Condition,Low fixed image (Door1),Low risky image (Door2),High fixed image (Door3),High risky image (Door4),NonExtreme Wild Card 1,NonExtreme Wild Card 2,,date,expName,psychopyVersion,OS,frameRate,PROLIFIC_PID,STUDY_ID,SESSION_ID,mouse_2.x,mouse_2.y,mouse_2.leftButton,mouse_2.midButton,mouse_2.rightButton,mouse_2.clicked_name,Trial Type,Left Option Image,Right Option Image,Chosen Door,mouse.x,mouse.y,mouse.leftButton,mouse.midButton,mouse.rightButton,mouse.time,mouse.clicked_name,Feedback,Cumulative Reward,Block,trial.thisRepN,trial.thisTrialN,trial.thisN,trial.thisIndex,trial.ran,blocks.thisRepN,blocks.thisTrialN,blocks.thisN,blocks.thisIndex,blocks.ran,Money conversion,First Outcome Reported,Shown Door (First Outcome),Displayed Image (First Outcome),outcomes.thisRepN,outcomes.thisTrialN,outcomes.thisN,outcomes.thisIndex,outcomes.ran,judgments.thisRepN,judgments.thisTrialN,judgments.thisN,judgments.thisIndex,judgments.ran,freqMouse.x,freqMouse.y,freqMouse.leftButton,freqMouse.midButton,freqMouse.rightButton,freqMouse.clicked_name,FQJ for first outcome,FQJ for second outcome,Shown Door,Displayed Image,trials.thisRepN,trials.thisTrialN,trials.thisN,trials.thisIndex,trials.ran,judgBlock.thisRepN,judgBlock.thisTrialN,judgBlock.thisN,judgBlock.thisIndex,judgBlock.ran
2,resources/DP.BMP,resources/DG.BMP,resources/DB.BMP,resources/DY.BMP,resources/DBN.BMP,resources/DR.BMP,,2023-08-15_16h58.57.471,HF_wild_card,2022.2.4,MacIntel,60.0024001,62d132acb69af7bf169cdbb8,64ce5acb97489d65b14ecc7a,64dba09e2bb7cee6daf3c706,,,,,,,,,,,,,,,,,,,,,,,,,,,,,,,,,,,,,,,,,,,,,,,,,,,,,,,,,,,,,,,,
,,,,,,,,2023-08-15_16h58.57.471,HF_wild_card,2022.2.4,MacIntel,60.0024001,62d132acb69af7bf169cdbb8,64ce5acb97489d65b14ecc7a,64dba09e2bb7cee6daf3c706,0.029600708,-0.427343872,1,0,0,agree,,,,,,,,,,,,,,,,,,,,,,,,,,,,,,,,,,,,,,,,,,,,,,,,,,,,,,,,,,
,,,,,,,,2023-08-15_16h58.57.471,HF_wild_card,2022.2.4,MacIntel,60.0024001,62d132acb69af7bf169cdbb8,64ce5acb97489d65b14ecc7a,64dba09e2bb7cee6daf3c706,,,,,,,,,,,,,,,,,,,,,,,,,,,,,,,,,,,,,,,,,,,,,,,,,,,,,,,,,,,,,,,,
,,,,,,,,2023-08-15_16h58.57.471,HF_wild_card,2022.2.4,MacIntel,60.0024001,62d132acb69af7bf169cdbb8,64ce5acb97489d65b14ecc7a,64dba09e2bb7cee6daf3c706,,,,,,,decisionTrl,resources/DY.BMP,resources/DB.BMP,Door4,-0.23366748,-0.016232666,1,0,0,2.943200001,optionLeft,60,60,1,0,0,0,0,1,,,,,,,,,,,,,,,,,,,,,,,,,,,,,,,,,,,,,,,
,,,,,,,,2023-08-15_16h58.57.471,HF_wild_card,2022.2.4,MacIntel,60.0024001,62d132acb69af7bf169cdbb8,64ce5acb97489d65b14ecc7a,64dba09e2bb7cee6daf3c706,,,,,,,decisionTrl,resources/DY.BMP,resources/DB.BMP,Door3,0.255455811,-0.016371582,1,0,0,1.3664,optionRight,70,130,1,1,0,1,0,1,,,,,,,,,,,,,,,,,,,,,,,,,,,,,,,,,,,,,,,
,,,,,,,,2023-08-15_16h58.57.471,HF_wild_card,2022.2.4,MacIntel,60.0024001,62d132acb69af7bf169cdbb8,64ce5acb97489d65b14ecc7a,64dba09e2bb7cee6daf3c706,,,,,,,sngl,resources/DR.BMP,resources/Empty.png,WildCard_NonEx,-0.245052063,0.03496521,1,0,0,1.4478,optionLeft,45,175,1,2,0,2,0,1,,,,,,,,,,,,,,,,,,,,,,,,,,,,,,,,,,,,,,,
,,,,,,,,2023-08-15_16h58.57.471,HF_wild_card,2022.2.4,MacIntel,60.0024001,62d132acb69af7bf169cdbb8,64ce5acb97489d65b14ecc7a,64dba09e2bb7cee6daf3c706,,,,,,,sngl,resources/DB.BMP,resources/Empty.png,Door3,-0.216054688,-0.008615479,1,0,0,0.9801,optionLeft,70,245,1,3,0,3,0,1,,,,,,,,,,,,,,,,,,,,,,,,,,,,,,,,,,,,,,,
,,,,,,,,2023-08-15_16h58.57.471,HF_wild_card,2022.2.4,MacIntel,60.0024001,62d132acb69af7bf169cdbb8,64ce5acb97489d65b14ecc7a,64dba09e2bb7cee6daf3c706,,,,,,,ctch,resources/DY.BMP,resources/DP.BMP,Door1,0.293867188,-0.014900208,1,0,0,0.9458,optionRight,30,275,1,4,0,4,0,1,,,,,,,,,,,,,,,,,,,,,,,,,,,,,,,,,,,,,,,
,,,,,,,,2023-08-15_16h58.57.471,HF_wild_card,2022.2.4,MacIntel,60.0024001,62d132acb69af7bf169cdbb8,64ce5acb97489d65b14ecc7a,64dba09e2bb7cee6daf3c706,,,,,,,decisionTrl,resources/DG.BMP,resources/DP.BMP,Door2,-0.2234505,-0.002443604,1,0,0,1.2477,optionLeft,20,295,1,5,0,5,0,1,,,,,,,,,,,,,,,,,,,,,,,,,,,,,,,,,,,,,,,
,,,,,,,,2023-08-15_16h58.57.471,HF_wild_card,2022.2.4,MacIntel,60.0024001,62d132acb69af7bf169cdbb8,64ce5acb97489d65b14ecc7a,64dba09e2bb7cee6daf3c706,,,,,,,decisionTrl,resources/DB.BMP,resources/DY.BMP,Door4,0.191866455,-0.041918457,1,0,0,1.366,optionRight,60,355,1,6,0,6,0,1,,,,,,,,,,,,,,,,,,,,,,,,,,,,,,,,,,,,,,,
,,,,,,,,2023-08-15_16h58.57.471,HF_wild_card,2022.2.4,MacIntel,60.0024001,62d132acb69af7bf169cdbb8,64ce5acb97489d65b14ecc7a,64dba09e2bb7cee6daf3c706,,,,,,,decisionTrl,resources/DP.BMP,resources/DG.BMP,Door2,0.395256104,-0.018263916,1,0,0,1.380400001,optionRight,20,375,1,7,0,7,0,1,,,,,,,,,,,,,,,,,,,,,,,,,,,,,,,,,,,,,,,
,,,,,,,,2023-08-15_16h58.57.471,HF_wild_card,2022.2.4,MacIntel,60.0024001,62d132acb69af7bf169cdbb8,64ce5acb97489d65b14ecc7a,64dba09e2bb7cee6daf3c706,,,,,,,sngl,resources/Empty.png,resources/DB.BMP,Door3,0.360208374,-0.001627625,1,0,0,0.6969,optionRight,70,445,1,8,0,8,0,1,,,,,,,,,,,,,,,,,,,,,,,,,,,,,,,,,,,,,,,
,,,,,,,,2023-08-15_16h58.57.471,HF_wild_card,2022.2.4,MacIntel,60.0024001,62d132acb69af7bf169cdbb8,64ce5acb97489d65b14ecc7a,64dba09e2bb7cee6daf3c706,,,,,,,sngl,resources/Empty.png,resources/DR.BMP,WildCard_NonEx,0.34305127,-0.035052124,1,0,0,0.914299999,optionRight,45,490,1,9,0,9,0,1,,,,,,,,,,,,,,,,,,,,,,,,,,,,,,,,,,,,,,,
,,,,,,,,2023-08-15_16h58.57.471,HF_wild_card,2022.2.4,MacIntel,60.0024001,62d132acb69af7bf169cdbb8,64ce5acb97489d65b14ecc7a,64dba09e2bb7cee6daf3c706,,,,,,,decisionTrl,resources/DR.BMP,resources/DG.BMP,WildCard_NonEx,-0.245811584,0.018068512,1,0,0,1.5644,optionLeft,45,535,1,10,0,10,0,1,,,,,,,,,,,,,,,,,,,,,,,,,,,,,,,,,,,,,,,
,,,,,,,,2023-08-15_16h58.57.471,HF_wild_card,2022.2.4,MacIntel,60.0024001,62d132acb69af7bf169cdbb8,64ce5acb97489d65b14ecc7a,64dba09e2bb7cee6daf3c706,,,,,,,decisionTrl,resources/DR.BMP,resources/DP.BMP,Door1,0.349947998,-0.022808167,1,0,0,2.5165,optionRight,30,565,1,11,0,11,0,1,,,,,,,,,,,,,,,,,,,,,,,,,,,,,,,,,,,,,,,
,,,,,,,,2023-08-15_16h58.57.471,HF_wild_card,2022.2.4,MacIntel,60.0024001,62d132acb69af7bf169cdbb8,64ce5acb97489d65b14ecc7a,64dba09e2bb7cee6daf3c706,,,,,,,decisionTrl,resources/DB.BMP,resources/DY.BMP,Door4,0.375338623,-0.015538208,1,0,0,2.5805,optionRight,80,645,1,12,0,12,0,1,,,,,,,,,,,,,,,,,,,,,,,,,,,,,,,,,,,,,,,
,,,,,,,,2023-08-15_16h58.57.471,HF_wild_card,2022.2.4,MacIntel,60.0024001,62d132acb69af7bf169cdbb8,64ce5acb97489d65b14ecc7a,64dba09e2bb7cee6daf3c706,,,,,,,sngl,resources/DY.BMP,resources/Empty.png,Door4,-0.241462646,0.052929626,1,0,0,0.6645,optionLeft,80,725,1,13,0,13,0,1,,,,,,,,,,,,,,,,,,,,,,,,,,,,,,,,,,,,,,,
,,,,,,,,2023-08-15_16h58.57.471,HF_wild_card,2022.2.4,MacIntel,60.0024001,62d132acb69af7bf169cdbb8,64ce5acb97489d65b14ecc7a,64dba09e2bb7cee6daf3c706,,,,,,,decisionTrl,resources/DY.BMP,resources/DR.BMP,Door4,-0.229769958,-0.000312561,1,0,0,1.0481,optionLeft,80,805,1,14,0,14,0,1,,,,,,,,,,,,,,,,,,,,,,,,,,,,,,,,,,,,,,,
,,,,,,,,2023-08-15_16h58.57.471,HF_wild_card,2022.2.4,MacIntel,60.0024001,62d132acb69af7bf169cdbb8,64ce5acb97489d65b14ecc7a,64dba09e2bb7cee6daf3c706,,,,,,,decisionTrl,resources/DG.BMP,resources/DP.BMP,Door1,0.276883789,-0.040447083,1,0,0,1.081200001,optionRight,30,835,1,15,0,15,0,1,,,,,,,,,,,,,,,,,,,,,,,,,,,,,,,,,,,,,,,
,,,,,,,,2023-08-15_16h58.57.471,HF_wild_card,2022.2.4,MacIntel,60.0024001,62d132acb69af7bf169cdbb8,64ce5acb97489d65b14ecc7a,64dba09e2bb7cee6daf3c706,,,,,,,decisionTrl,resources/DP.BMP,resources/DG.BMP,Door2,0.298680664,0.011232574,1,0,0,0.7481,optionRight,20,855,1,16,0,16,0,1,,,,,,,,,,,,,,,,,,,,,,,,,,,,,,,,,,,,,,,
,,,,,,,,2023-08-15_16h58.57.471,HF_wild_card,2022.2.4,MacIntel,60.0024001,62d132acb69af7bf169cdbb8,64ce5acb97489d65b14ecc7a,64dba09e2bb7cee6daf3c706,,,,,,,sngl,resources/DR.BMP,resources/Empty.png,WildCard_NonEx,-0.201827209,-0.005811646,1,0,0,0.6635,optionLeft,55,910,1,17,0,17,0,1,,,,,,,,,,,,,,,,,,,,,,,,,,,,,,,,,,,,,,,
,,,,,,,,2023-08-15_16h58.57.471,HF_wild_card,2022.2.4,MacIntel,60.0024001,62d132acb69af7bf169cdbb8,64ce5acb97489d65b14ecc7a,64dba09e2bb7cee6daf3c706,,,,,,,decisionTrl,resources/DB.BMP,resources/DR.BMP,Door3,-0.287000854,0.033485229,1,0,0,1.5315,optionLeft,70,980,1,18,0,18,0,1,,,,,,,,,,,,,,,,,,,,,,,,,,,,,,,,,,,,,,,
,,,,,,,,2023-08-15_16h58.57.471,HF_wild_card,2022.2.4,MacIntel,60.0024001,62d132acb69af7bf169cdbb8,64ce5acb97489d65b14ecc7a,64dba09e2bb7cee6daf3c706,,,,,,,ctch,resources/DG.BMP,resources/DB.BMP,Door2,-0.211054688,0.000646637,1,0,0,1.9143,optionLeft,40,1020,1,19,0,19,0,1,,,,,,,,,,,,,,,,,,,,,,,,,,,,,,,,,,,,,,,
,,,,,,,,2023-08-15_16h58.57.471,HF_wild_card,2022.2.4,MacIntel,60.0024001,62d132acb69af7bf169cdbb8,64ce5acb97489d65b14ecc7a,64dba09e2bb7cee6daf3c706,,,,,,,decisionTrl,resources/DR.BMP,resources/DY.BMP,Door4,0.22180127,-0.021640625,1,0,0,1.799,optionRight,80,1100,1,20,0,20,0,1,,,,,,,,,,,,,,,,,,,,,,,,,,,,,,,,,,,,,,,
,,,,,,,,2023-08-15_16h58.57.471,HF_wild_card,2022.2.4,MacIntel,60.0024001,62d132acb69af7bf169cdbb8,64ce5acb97489d65b14ecc7a,64dba09e2bb7cee6daf3c706,,,,,,,decisionTrl,resources/DR.BMP,resources/DB.BMP,WildCard_NonEx,-0.201241272,0.009622375,1,0,0,1.2994,optionLeft,45,1145,1,21,0,21,0,1,,,,,,,,,,,,,,,,,,,,,,,,,,,,,,,,,,,,,,,
,,,,,,,,2023-08-15_16h58.57.471,HF_wild_card,2022.2.4,MacIntel,60.0024001,62d132acb69af7bf169cdbb8,64ce5acb97489d65b14ecc7a,64dba09e2bb7cee6daf3c706,,,,,,,sngl,resources/Empty.png,resources/DR.BMP,WildCard_NonEx,0.364383911,-0.026866333,1,0,0,0.7321,optionRight,55,1200,1,22,0,22,0,1,,,,,,,,,,,,,,,,,,,,,,,,,,,,,,,,,,,,,,,
,,,,,,,,2023-08-15_16h58.57.471,HF_wild_card,2022.2.4,MacIntel,60.0024001,62d132acb69af7bf169cdbb8,64ce5acb97489d65b14ecc7a,64dba09e2bb7cee6daf3c706,,,,,,,decisionTrl,resources/DG.BMP,resources/DP.BMP,Door2,-0.197387146,-0.012217896,1,0,0,1.6983,optionLeft,20,1220,1,23,0,23,0,1,,,,,,,,,,,,,,,,,,,,,,,,,,,,,,,,,,,,,,,
,,,,,,,,2023-08-15_16h58.57.471,HF_wild_card,2022.2.4,MacIntel,60.0024001,62d132acb69af7bf169cdbb8,64ce5acb97489d65b14ecc7a,64dba09e2bb7cee6daf3c706,,,,,,,sngl,resources/DP.BMP,resources/Empty.png,Door1,-0.201401794,0.002638824,1,0,0,0.6143,optionLeft,30,1250,1,24,0,24,0,1,,,,,,,,,,,,,,,,,,,,,,,,,,,,,,,,,,,,,,,
,,,,,,,,2023-08-15_16h58.57.471,HF_wild_card,2022.2.4,MacIntel,60.0024001,62d132acb69af7bf169cdbb8,64ce5acb97489d65b14ecc7a,64dba09e2bb7cee6daf3c706,,,,,,,ctch,resources/DY.BMP,resources/DP.BMP,Door4,-0.214830688,-0.012725708,1,0,0,1.0156,optionLeft,80,1330,1,25,0,25,0,1,,,,,,,,,,,,,,,,,,,,,,,,,,,,,,,,,,,,,,,
,,,,,,,,2023-08-15_16h58.57.471,HF_wild_card,2022.2.4,MacIntel,60.0024001,62d132acb69af7bf169cdbb8,64ce5acb97489d65b14ecc7a,64dba09e2bb7cee6daf3c706,,,,,,,decisionTrl,resources/DG.BMP,resources/DR.BMP,WildCard_NonEx,0.366310791,-0.017278687,1,0,0,2.3662,optionRight,55,1385,1,26,0,26,0,1,,,,,,,,,,,,,,,,,,,,,,,,,,,,,,,,,,,,,,,
,,,,,,,,2023-08-15_16h58.57.471,HF_wild_card,2022.2.4,MacIntel,60.0024001,62d132acb69af7bf169cdbb8,64ce5acb97489d65b14ecc7a,64dba09e2bb7cee6daf3c706,,,,,,,sngl,resources/Empty.png,resources/DG.BMP,Door2,0.349249146,0.035824585,1,0,0,0.6654,optionRight,20,1405,1,27,0,27,0,1,,,,,,,,,,,,,,,,,,,,,,,,,,,,,,,,,,,,,,,
,,,,,,,,2023-08-15_16h58.57.471,HF_wild_card,2022.2.4,MacIntel,60.0024001,62d132acb69af7bf169cdbb8,64ce5acb97489d65b14ecc7a,64dba09e2bb7cee6daf3c706,,,,,,,decisionTrl,resources/DB.BMP,resources/DY.BMP,Door4,0.268068604,-0.071931458,1,0,0,1.948200001,optionRight,80,1485,1,28,0,28,0,1,,,,,,,,,,,,,,,,,,,,,,,,,,,,,,,,,,,,,,,
,,,,,,,,2023-08-15_16h58.57.471,HF_wild_card,2022.2.4,MacIntel,60.0024001,62d132acb69af7bf169cdbb8,64ce5acb97489d65b14ecc7a,64dba09e2bb7cee6daf3c706,,,,,,,decisionTrl,resources/DB.BMP,resources/DY.BMP,Door4,0.334930664,-0.044934937,1,0,0,0.7858,optionRight,80,1565,1,29,0,29,0,1,,,,,,,,,,,,,,,,,,,,,,,,,,,,,,,,,,,,,,,
,,,,,,,,2023-08-15_16h58.57.471,HF_wild_card,2022.2.4,MacIntel,60.0024001,62d132acb69af7bf169cdbb8,64ce5acb97489d65b14ecc7a,64dba09e2bb7cee6daf3c706,,,,,,,ctch,resources/DB.BMP,resources/DG.BMP,Door2,0.28671875,-0.061493103,1,0,0,1.5478,optionRight,40,1605,1,30,0,30,0,1,,,,,,,,,,,,,,,,,,,,,,,,,,,,,,,,,,,,,,,
,,,,,,,,2023-08-15_16h58.57.471,HF_wild_card,2022.2.4,MacIntel,60.0024001,62d132acb69af7bf169cdbb8,64ce5acb97489d65b14ecc7a,64dba09e2bb7cee6daf3c706,,,,,,,decisionTrl,resources/DY.BMP,resources/DB.BMP,Door3,0.31296875,0.021015564,1,0,0,0.7635,optionRight,70,1675,1,31,0,31,0,1,,,,,,,,,,,,,,,,,,,,,,,,,,,,,,,,,,,,,,,
,,,,,,,,2023-08-15_16h58.57.471,HF_wild_card,2022.2.4,MacIntel,60.0024001,62d132acb69af7bf169cdbb8,64ce5acb97489d65b14ecc7a,64dba09e2bb7cee6daf3c706,,,,,,,decisionTrl,resources/DG.BMP,resources/DP.BMP,Door1,0.280160645,-0.000481781,1,0,0,0.966,optionRight,30,1705,1,32,0,32,0,1,,,,,,,,,,,,,,,,,,,,,,,,,,,,,,,,,,,,,,,
,,,,,,,,2023-08-15_16h58.57.471,HF_wild_card,2022.2.4,MacIntel,60.0024001,62d132acb69af7bf169cdbb8,64ce5acb97489d65b14ecc7a,64dba09e2bb7cee6daf3c706,,,,,,,ctch,resources/DB.BMP,resources/DG.BMP,Door3,-0.283693542,-0.005381958,1,0,0,2.5818,optionLeft,70,1775,1,33,0,33,0,1,,,,,,,,,,,,,,,,,,,,,,,,,,,,,,,,,,,,,,,
,,,,,,,,2023-08-15_16h58.57.471,HF_wild_card,2022.2.4,MacIntel,60.0024001,62d132acb69af7bf169cdbb8,64ce5acb97489d65b14ecc7a,64dba09e2bb7cee6daf3c706,,,,,,,sngl,resources/Empty.png,resources/DY.BMP,Door4,0.341154541,0.025525146,1,0,0,0.8147,optionRight,60,1835,1,34,0,34,0,1,,,,,,,,,,,,,,,,,,,,,,,,,,,,,,,,,,,,,,,
,,,,,,,,2023-08-15_16h58.57.471,HF_wild_card,2022.2.4,MacIntel,60.0024001,62d132acb69af7bf169cdbb8,64ce5acb97489d65b14ecc7a,64dba09e2bb7cee6daf3c706,,,,,,,ctch,resources/DP.BMP,resources/DY.BMP,Door1,-0.204166626,0.064205719,1,0,0,4.8116,optionLeft,30,1865,1,35,0,35,0,1,,,,,,,,,,,,,,,,,,,,,,,,,,,,,,,,,,,,,,,
,,,,,,,,2023-08-15_16h58.57.471,HF_wild_card,2022.2.4,MacIntel,60.0024001,62d132acb69af7bf169cdbb8,64ce5acb97489d65b14ecc7a,64dba09e2bb7cee6daf3c706,,,,,,,decisionTrl,resources/DP.BMP,resources/DG.BMP,Door1,-0.276041626,0.015494781,1,0,0,1.484,optionLeft,30,1895,1,36,0,36,0,1,,,,,,,,,,,,,,,,,,,,,,,,,,,,,,,,,,,,,,,
,,,,,,,,2023-08-15_16h58.57.471,HF_wild_card,2022.2.4,MacIntel,60.0024001,62d132acb69af7bf169cdbb8,64ce5acb97489d65b14ecc7a,64dba09e2bb7cee6daf3c706,,,,,,,sngl,resources/DG.BMP,resources/Empty.png,Door2,-0.190199646,-0.003541687,1,0,0,0.5962,optionLeft,40,1935,1,37,0,37,0,1,,,,,,,,,,,,,,,,,,,,,,,,,,,,,,,,,,,,,,,
,,,,,,,,2023-08-15_16h58.57.471,HF_wild_card,2022.2.4,MacIntel,60.0024001,62d132acb69af7bf169cdbb8,64ce5acb97489d65b14ecc7a,64dba09e2bb7cee6daf3c706,,,,,,,decisionTrl,resources/DP.BMP,resources/DR.BMP,WildCard_NonEx,0.355112915,-0.051293457,1,0,0,1.544700001,optionRight,45,1980,1,38,0,38,0,1,,,,,,,,,,,,,,,,,,,,,,,,,,,,,,,,,,,,,,,
,,,,,,,,2023-08-15_16h58.57.471,HF_wild_card,2022.2.4,MacIntel,60.0024001,62d132acb69af7bf169cdbb8,64ce5acb97489d65b14ecc7a,64dba09e2bb7cee6daf3c706,,,,,,,decisionTrl,resources/DY.BMP,resources/DB.BMP,Door3,0.297578125,-0.081215393,1,0,0,1.2785,optionRight,70,2050,1,39,0,39,0,1,,,,,,,,,,,,,,,,,,,,,,,,,,,,,,,,,,,,,,,
,,,,,,,,2023-08-15_16h58.57.471,HF_wild_card,2022.2.4,MacIntel,60.0024001,62d132acb69af7bf169cdbb8,64ce5acb97489d65b14ecc7a,64dba09e2bb7cee6daf3c706,,,,,,,decisionTrl,resources/DP.BMP,resources/DG.BMP,Door1,-0.182881897,-0.001323853,1,0,0,1.498599999,optionLeft,30,2080,1,40,0,40,0,1,,,,,,,,,,,,,,,,,,,,,,,,,,,,,,,,,,,,,,,
,,,,,,,,2023-08-15_16h58.57.471,HF_wild_card,2022.2.4,MacIntel,60.0024001,62d132acb69af7bf169cdbb8,64ce5acb97489d65b14ecc7a,64dba09e2bb7cee6daf3c706,,,,,,,ctch,resources/DP.BMP,resources/DY.BMP,Door4,0.284752686,-0.068637207,1,0,0,1.0805,optionRight,80,2160,1,41,0,41,0,1,,,,,,,,,,,,,,,,,,,,,,,,,,,,,,,,,,,,,,,
,,,,,,,,2023-08-15_16h58.57.471,HF_wild_card,2022.2.4,MacIntel,60.0024001,62d132acb69af7bf169cdbb8,64ce5acb97489d65b14ecc7a,64dba09e2bb7cee6daf3c706,,,,,,,ctch,resources/DG.BMP,resources/DB.BMP,Door3,0.261640625,-0.009084229,1,0,0,1.5974,optionRight,70,2230,1,42,0,42,0,1,,,,,,,,,,,,,,,,,,,,,,,,,,,,,,,,,,,,,,,
,,,,,,,,2023-08-15_16h58.57.471,HF_wild_card,2022.2.4,MacIntel,60.0024001,62d132acb69af7bf169cdbb8,64ce5acb97489d65b14ecc7a,64dba09e2bb7cee6daf3c706,,,,,,,sngl,resources/Empty.png,resources/DP.BMP,Door1,0.245711914,0.021115387,1,0,0,0.9982,optionRight,30,2260,1,43,0,43,0,1,,,,,,,,,,,,,,,,,,,,,,,,,,,,,,,,,,,,,,,
,,,,,,,,2023-08-15_16h58.57.471,HF_wild_card,2022.2.4,MacIntel,60.0024001,62d132acb69af7bf169cdbb8,64ce5acb97489d65b14ecc7a,64dba09e2bb7cee6daf3c706,,,,,,,,,,,,,,,,,,,,,,,,,,0,0,0,0,1,,,,,,,,,,,,,,,,,,,,,,,,,,,,,,,,,,
,,,,,,,,2023-08-15_16h58.57.471,HF_wild_card,2022.2.4,MacIntel,60.0024001,62d132acb69af7bf169cdbb8,64ce5acb97489d65b14ecc7a,64dba09e2bb7cee6daf3c706,,,,,,,ctch,resources/DB.BMP,resources/DG.BMP,Door3,-0.140151794,-0.077256958,1,0,0,5.999900001,optionLeft,70,2330,2,0,0,0,0,1,,,,,,,,,,,,,,,,,,,,,,,,,,,,,,,,,,,,,,,
,,,,,,,,2023-08-15_16h58.57.471,HF_wild_card,2022.2.4,MacIntel,60.0024001,62d132acb69af7bf169cdbb8,64ce5acb97489d65b14ecc7a,64dba09e2bb7cee6daf3c706,,,,,,,ctch,resources/DG.BMP,resources/DB.BMP,Door3,0.282248291,0.031223938,1,0,0,1.1639,optionRight,70,2400,2,1,0,1,0,1,,,,,,,,,,,,,,,,,,,,,,,,,,,,,,,,,,,,,,,
,,,,,,,,2023-08-15_16h58.57.471,HF_wild_card,2022.2.4,MacIntel,60.0024001,62d132acb69af7bf169cdbb8,64ce5acb97489d65b14ecc7a,64dba09e2bb7cee6daf3c706,,,,,,,sngl,resources/Empty.png,resources/DB.BMP,Door3,0.330733521,0.005941772,1,0,0,0.6467,optionRight,70,2470,2,2,0,2,0,1,,,,,,,,,,,,,,,,,,,,,,,,,,,,,,,,,,,,,,,
,,,,,,,,2023-08-15_16h58.57.471,HF_wild_card,2022.2.4,MacIntel,60.0024001,62d132acb69af7bf169cdbb8,64ce5acb97489d65b14ecc7a,64dba09e2bb7cee6daf3c706,,,,,,,decisionTrl,resources/DR.BMP,resources/DG.BMP,Door2,0.307365479,-0.057786499,1,0,0,4.331299999,optionRight,20,2490,2,3,0,3,0,1,,,,,,,,,,,,,,,,,,,,,,,,,,,,,,,,,,,,,,,
,,,,,,,,2023-08-15_16h58.57.471,HF_wild_card,2022.2.4,MacIntel,60.0024001,62d132acb69af7bf169cdbb8,64ce5acb97489d65b14ecc7a,64dba09e2bb7cee6daf3c706,,,,,,,decisionTrl,resources/DB.BMP,resources/DR.BMP,Door3,-0.250694397,0.019144897,1,0,0,1.382,optionLeft,70,2560,2,4,0,4,0,1,,,,,,,,,,,,,,,,,,,,,,,,,,,,,,,,,,,,,,,
,,,,,,,,2023-08-15_16h58.57.471,HF_wild_card,2022.2.4,MacIntel,60.0024001,62d132acb69af7bf169cdbb8,64ce5acb97489d65b14ecc7a,64dba09e2bb7cee6daf3c706,,,,,,,decisionTrl,resources/DY.BMP,resources/DB.BMP,Door3,0.256992188,-0.022756104,1,0,0,1.9332,optionRight,70,2630,2,5,0,5,0,1,,,,,,,,,,,,,,,,,,,,,,,,,,,,,,,,,,,,,,,
,,,,,,,,2023-08-15_16h58.57.471,HF_wild_card,2022.2.4,MacIntel,60.0024001,62d132acb69af7bf169cdbb8,64ce5acb97489d65b14ecc7a,64dba09e2bb7cee6daf3c706,,,,,,,decisionTrl,resources/DG.BMP,resources/DP.BMP,Door1,0.245807373,-0.021914063,1,0,0,3.0012,optionRight,30,2660,2,6,0,6,0,1,,,,,,,,,,,,,,,,,,,,,,,,,,,,,,,,,,,,,,,
,,,,,,,,2023-08-15_16h58.57.471,HF_wild_card,2022.2.4,MacIntel,60.0024001,62d132acb69af7bf169cdbb8,64ce5acb97489d65b14ecc7a,64dba09e2bb7cee6daf3c706,,,,,,,decisionTrl,resources/DB.BMP,resources/DY.BMP,Door3,-0.213393982,0.025616302,1,0,0,2.011599999,optionLeft,70,2730,2,7,0,7,0,1,,,,,,,,,,,,,,,,,,,,,,,,,,,,,,,,,,,,,,,
,,,,,,,,2023-08-15_16h58.57.471,HF_wild_card,2022.2.4,MacIntel,60.0024001,62d132acb69af7bf169cdbb8,64ce5acb97489d65b14ecc7a,64dba09e2bb7cee6daf3c706,,,,,,,decisionTrl,resources/DR.BMP,resources/DP.BMP,WildCard_NonEx,-0.218541626,0.04651474,1,0,0,1.4513,optionLeft,45,2775,2,8,0,8,0,1,,,,,,,,,,,,,,,,,,,,,,,,,,,,,,,,,,,,,,,
,,,,,,,,2023-08-15_16h58.57.471,HF_wild_card,2022.2.4,MacIntel,60.0024001,62d132acb69af7bf169cdbb8,64ce5acb97489d65b14ecc7a,64dba09e2bb7cee6daf3c706,,,,,,,decisionTrl,resources/DR.BMP,resources/DY.BMP,Door4,0.204566101,-0.025013062,1,0,0,0.8653,optionRight,60,2835,2,9,0,9,0,1,,,,,,,,,,,,,,,,,,,,,,,,,,,,,,,,,,,,,,,
,,,,,,,,2023-08-15_16h58.57.471,HF_wild_card,2022.2.4,MacIntel,60.0024001,62d132acb69af7bf169cdbb8,64ce5acb97489d65b14ecc7a,64dba09e2bb7cee6daf3c706,,,,,,,sngl,resources/Empty.png,resources/DR.BMP,WildCard_NonEx,0.211818604,0.015772552,1,0,0,0.6112,optionRight,45,2880,2,10,0,10,0,1,,,,,,,,,,,,,,,,,,,,,,,,,,,,,,,,,,,,,,,
,,,,,,,,2023-08-15_16h58.57.471,HF_wild_card,2022.2.4,MacIntel,60.0024001,62d132acb69af7bf169cdbb8,64ce5acb97489d65b14ecc7a,64dba09e2bb7cee6daf3c706,,,,,,,decisionTrl,resources/DB.BMP,resources/DY.BMP,Door4,0.278606812,-0.004709229,1,0,0,1.5146,optionRight,60,2940,2,11,0,11,0,1,,,,,,,,,,,,,,,,,,,,,,,,,,,,,,,,,,,,,,,
,,,,,,,,2023-08-15_16h58.57.471,HF_wild_card,2022.2.4,MacIntel,60.0024001,62d132acb69af7bf169cdbb8,64ce5acb97489d65b14ecc7a,64dba09e2bb7cee6daf3c706,,,,,,,ctch,resources/DY.BMP,resources/DP.BMP,Door4,-0.158077209,0.015442688,1,0,0,1.233099999,optionLeft,60,3000,2,12,0,12,0,1,,,,,,,,,,,,,,,,,,,,,,,,,,,,,,,,,,,,,,,
,,,,,,,,2023-08-15_16h58.57.471,HF_wild_card,2022.2.4,MacIntel,60.0024001,62d132acb69af7bf169cdbb8,64ce5acb97489d65b14ecc7a,64dba09e2bb7cee6daf3c706,,,,,,,decisionTrl,resources/DY.BMP,resources/DR.BMP,Door4,-0.144531128,0.017261261,1,0,0,0.6314,optionLeft,60,3060,2,13,0,13,0,1,,,,,,,,,,,,,,,,,,,,,,,,,,,,,,,,,,,,,,,
,,,,,,,,2023-08-15_16h58.57.471,HF_wild_card,2022.2.4,MacIntel,60.0024001,62d132acb69af7bf169cdbb8,64ce5acb97489d65b14ecc7a,64dba09e2bb7cee6daf3c706,,,,,,,decisionTrl,resources/DG.BMP,resources/DP.BMP,Door2,-0.188758667,0.020316772,1,0,0,1.2658,optionLeft,20,3080,2,14,0,14,0,1,,,,,,,,,,,,,,,,,,,,,,,,,,,,,,,,,,,,,,,
,,,,,,,,2023-08-15_16h58.57.471,HF_wild_card,2022.2.4,MacIntel,60.0024001,62d132acb69af7bf169cdbb8,64ce5acb97489d65b14ecc7a,64dba09e2bb7cee6daf3c706,,,,,,,decisionTrl,resources/DP.BMP,resources/DG.BMP,Door1,-0.145624878,0.009895813,1,0,0,0.7812,optionLeft,30,3110,2,15,0,15,0,1,,,,,,,,,,,,,,,,,,,,,,,,,,,,,,,,,,,,,,,
,,,,,,,,2023-08-15_16h58.57.471,HF_wild_card,2022.2.4,MacIntel,60.0024001,62d132acb69af7bf169cdbb8,64ce5acb97489d65b14ecc7a,64dba09e2bb7cee6daf3c706,,,,,,,decisionTrl,resources/DY.BMP,resources/DB.BMP,Door3,0.280247437,0.003910522,1,0,0,0.9658,optionRight,70,3180,2,16,0,16,0,1,,,,,,,,,,,,,,,,,,,,,,,,,,,,,,,,,,,,,,,
,,,,,,,,2023-08-15_16h58.57.471,HF_wild_card,2022.2.4,MacIntel,60.0024001,62d132acb69af7bf169cdbb8,64ce5acb97489d65b14ecc7a,64dba09e2bb7cee6daf3c706,,,,,,,decisionTrl,resources/DP.BMP,resources/DG.BMP,Door2,0.162391541,-0.026922791,1,0,0,2.1955,optionRight,20,3200,2,17,0,17,0,1,,,,,,,,,,,,,,,,,,,,,,,,,,,,,,,,,,,,,,,
,,,,,,,,2023-08-15_16h58.57.471,HF_wild_card,2022.2.4,MacIntel,60.0024001,62d132acb69af7bf169cdbb8,64ce5acb97489d65b14ecc7a,64dba09e2bb7cee6daf3c706,,,,,,,sngl,resources/DR.BMP,resources/Empty.png,WildCard_NonEx,-0.106549438,0.01652771,1,0,0,0.6128,optionLeft,45,3245,2,18,0,18,0,1,,,,,,,,,,,,,,,,,,,,,,,,,,,,,,,,,,,,,,,
,,,,,,,,2023-08-15_16h58.57.471,HF_wild_card,2022.2.4,MacIntel,60.0024001,62d132acb69af7bf169cdbb8,64ce5acb97489d65b14ecc7a,64dba09e2bb7cee6daf3c706,,,,,,,decisionTrl,resources/DY.BMP,resources/DB.BMP,Door3,0.276024414,0.020703064,1,0,0,1.532900001,optionRight,70,3315,2,19,0,19,0,1,,,,,,,,,,,,,,,,,,,,,,,,,,,,,,,,,,,,,,,
,,,,,,,,2023-08-15_16h58.57.471,HF_wild_card,2022.2.4,MacIntel,60.0024001,62d132acb69af7bf169cdbb8,64ce5acb97489d65b14ecc7a,64dba09e2bb7cee6daf3c706,,,,,,,ctch,resources/DG.BMP,resources/DB.BMP,Door3,0.329210083,-0.022326416,1,0,0,0.764900001,optionRight,70,3385,2,20,0,20,0,1,,,,,,,,,,,,,,,,,,,,,,,,,,,,,,,,,,,,,,,
,,,,,,,,2023-08-15_16h58.57.471,HF_wild_card,2022.2.4,MacIntel,60.0024001,62d132acb69af7bf169cdbb8,64ce5acb97489d65b14ecc7a,64dba09e2bb7cee6daf3c706,,,,,,,ctch,resources/DB.BMP,resources/DG.BMP,Door3,-0.1765625,0.006927063,1,0,0,0.6647,optionLeft,70,3455,2,21,0,21,0,1,,,,,,,,,,,,,,,,,,,,,,,,,,,,,,,,,,,,,,,
,,,,,,,,2023-08-15_16h58.57.471,HF_wild_card,2022.2.4,MacIntel,60.0024001,62d132acb69af7bf169cdbb8,64ce5acb97489d65b14ecc7a,64dba09e2bb7cee6daf3c706,,,,,,,decisionTrl,resources/DG.BMP,resources/DP.BMP,Door1,0.195794312,-0.019691895,1,0,0,2.050700001,optionRight,30,3485,2,22,0,22,0,1,,,,,,,,,,,,,,,,,,,,,,,,,,,,,,,,,,,,,,,
,,,,,,,,2023-08-15_16h58.57.471,HF_wild_card,2022.2.4,MacIntel,60.0024001,62d132acb69af7bf169cdbb8,64ce5acb97489d65b14ecc7a,64dba09e2bb7cee6daf3c706,,,,,,,decisionTrl,resources/DG.BMP,resources/DR.BMP,Door2,-0.162339294,-0.009843811,1,0,0,4.648400001,optionLeft,40,3525,2,23,0,23,0,1,,,,,,,,,,,,,,,,,,,,,,,,,,,,,,,,,,,,,,,
,,,,,,,,2023-08-15_16h58.57.471,HF_wild_card,2022.2.4,MacIntel,60.0024001,62d132acb69af7bf169cdbb8,64ce5acb97489d65b14ecc7a,64dba09e2bb7cee6daf3c706,,,,,,,ctch,resources/DP.BMP,resources/DY.BMP,Door4,0.317013916,-0.106176331,1,0,0,5.7486,optionRight,60,3585,2,24,0,24,0,1,,,,,,,,,,,,,,,,,,,,,,,,,,,,,,,,,,,,,,,
,,,,,,,,2023-08-15_16h58.57.471,HF_wild_card,2022.2.4,MacIntel,60.0024001,62d132acb69af7bf169cdbb8,64ce5acb97489d65b14ecc7a,64dba09e2bb7cee6daf3c706,,,,,,,sngl,resources/Empty.png,resources/DR.BMP,WildCard_NonEx,0.310243164,-0.001397583,1,0,0,0.7322,optionRight,55,3640,2,25,0,25,0,1,,,,,,,,,,,,,,,,,,,,,,,,,,,,,,,,,,,,,,,
,,,,,,,,2023-08-15_16h58.57.471,HF_wild_card,2022.2.4,MacIntel,60.0024001,62d132acb69af7bf169cdbb8,64ce5acb97489d65b14ecc7a,64dba09e2bb7cee6daf3c706,,,,,,,sngl,resources/DR.BMP,resources/Empty.png,WildCard_NonEx,-0.182382812,0.003111969,1,0,0,0.7474,optionLeft,55,3695,2,26,0,26,0,1,,,,,,,,,,,,,,,,,,,,,,,,,,,,,,,,,,,,,,,
,,,,,,,,2023-08-15_16h58.57.471,HF_wild_card,2022.2.4,MacIntel,60.0024001,62d132acb69af7bf169cdbb8,64ce5acb97489d65b14ecc7a,64dba09e2bb7cee6daf3c706,,,,,,,decisionTrl,resources/DP.BMP,resources/DG.BMP,Door1,-0.289596344,0.015611969,1,0,0,9.9495,optionLeft,30,3725,2,27,0,27,0,1,,,,,,,,,,,,,,,,,,,,,,,,,,,,,,,,,,,,,,,
,,,,,,,,2023-08-15_16h58.57.471,HF_wild_card,2022.2.4,MacIntel,60.0024001,62d132acb69af7bf169cdbb8,64ce5acb97489d65b14ecc7a,64dba09e2bb7cee6daf3c706,,,,,,,decisionTrl,resources/DP.BMP,resources/DG.BMP,Door2,0.240668457,0.029618042,1,0,0,2.735,optionRight,20,3745,2,28,0,28,0,1,,,,,,,,,,,,,,,,,,,,,,,,,,,,,,,,,,,,,,,
,,,,,,,,2023-08-15_16h58.57.471,HF_wild_card,2022.2.4,MacIntel,60.0024001,62d132acb69af7bf169cdbb8,64ce5acb97489d65b14ecc7a,64dba09e2bb7cee6daf3c706,,,,,,,decisionTrl,resources/DG.BMP,resources/DP.BMP,Door2,-0.19615448,0.009166656,1,0,0,5.1495,optionLeft,20,3765,2,29,0,29,0,1,,,,,,,,,,,,,,,,,,,,,,,,,,,,,,,,,,,,,,,
,,,,,,,,2023-08-15_16h58.57.471,HF_wild_card,2022.2.4,MacIntel,60.0024001,62d132acb69af7bf169cdbb8,64ce5acb97489d65b14ecc7a,64dba09e2bb7cee6daf3c706,,,,,,,decisionTrl,resources/DB.BMP,resources/DY.BMP,Door4,0.253333374,-0.04648877,1,0,0,4.547799999,optionRight,60,3825,2,30,0,30,0,1,,,,,,,,,,,,,,,,,,,,,,,,,,,,,,,,,,,,,,,
,,,,,,,,2023-08-15_16h58.57.471,HF_wild_card,2022.2.4,MacIntel,60.0024001,62d132acb69af7bf169cdbb8,64ce5acb97489d65b14ecc7a,64dba09e2bb7cee6daf3c706,,,,,,,sngl,resources/Empty.png,resources/DG.BMP,Door2,0.245633789,-0.014418457,1,0,0,1.064799999,optionRight,40,3865,2,31,0,31,0,1,,,,,,,,,,,,,,,,,,,,,,,,,,,,,,,,,,,,,,,
,,,,,,,,2023-08-15_16h58.57.471,HF_wild_card,2022.2.4,MacIntel,60.0024001,62d132acb69af7bf169cdbb8,64ce5acb97489d65b14ecc7a,64dba09e2bb7cee6daf3c706,,,,,,,sngl,resources/Empty.png,resources/DP.BMP,Door1,0.177508728,-0.001480103,1,0,0,1.7652,optionRight,30,3895,2,32,0,32,0,1,,,,,,,,,,,,,,,,,,,,,,,,,,,,,,,,,,,,,,,
,,,,,,,,2023-08-15_16h58.57.471,HF_wild_card,2022.2.4,MacIntel,60.0024001,62d132acb69af7bf169cdbb8,64ce5acb97489d65b14ecc7a,64dba09e2bb7cee6daf3c706,,,,,,,decisionTrl,resources/DB.BMP,resources/DY.BMP,Door3,-0.25334198,0.012947021,1,0,0,3.112099999,optionLeft,70,3965,2,33,0,33,0,1,,,,,,,,,,,,,,,,,,,,,,,,,,,,,,,,,,,,,,,
,,,,,,,,2023-08-15_16h58.57.471,HF_wild_card,2022.2.4,MacIntel,60.0024001,62d132acb69af7bf169cdbb8,64ce5acb97489d65b14ecc7a,64dba09e2bb7cee6daf3c706,,,,,,,sngl,resources/DP.BMP,resources/Empty.png,Door1,-0.228168396,-0.012083374,1,0,0,0.781099999,optionLeft,30,3995,2,34,0,34,0,1,,,,,,,,,,,,,,,,,,,,,,,,,,,,,,,,,,,,,,,
,,,,,,,,2023-08-15_16h58.57.471,HF_wild_card,2022.2.4,MacIntel,60.0024001,62d132acb69af7bf169cdbb8,64ce5acb97489d65b14ecc7a,64dba09e2bb7cee6daf3c706,,,,,,,sngl,resources/DG.BMP,resources/Empty.png,Door2,-0.145208313,0.036558136,1,0,0,0.881900001,optionLeft,20,4015,2,35,0,35,0,1,,,,,,,,,,,,,,,,,,,,,,,,,,,,,,,,,,,,,,,
,,,,,,,,2023-08-15_16h58.57.471,HF_wild_card,2022.2.4,MacIntel,60.0024001,62d132acb69af7bf169cdbb8,64ce5acb97489d65b14ecc7a,64dba09e2bb7cee6daf3c706,,,,,,,sngl,resources/Empty.png,resources/DY.BMP,Door4,0.240369019,0.009414001,1,0,0,0.6486,optionRight,80,4095,2,36,0,36,0,1,,,,,,,,,,,,,,,,,,,,,,,,,,,,,,,,,,,,,,,
,,,,,,,,2023-08-15_16h58.57.471,HF_wild_card,2022.2.4,MacIntel,60.0024001,62d132acb69af7bf169cdbb8,64ce5acb97489d65b14ecc7a,64dba09e2bb7cee6daf3c706,,,,,,,sngl,resources/DY.BMP,resources/Empty.png,Door4,-0.206692688,-0.011436646,1,0,0,0.6307,optionLeft,60,4155,2,37,0,37,0,1,,,,,,,,,,,,,,,,,,,,,,,,,,,,,,,,,,,,,,,
,,,,,,,,2023-08-15_16h58.57.471,HF_wild_card,2022.2.4,MacIntel,60.0024001,62d132acb69af7bf169cdbb8,64ce5acb97489d65b14ecc7a,64dba09e2bb7cee6daf3c706,,,,,,,ctch,resources/DP.BMP,resources/DY.BMP,Door4,0.176684082,-0.012230957,1,0,0,1.148900001,optionRight,60,4215,2,38,0,38,0,1,,,,,,,,,,,,,,,,,,,,,,,,,,,,,,,,,,,,,,,
,,,,,,,,2023-08-15_16h58.57.471,HF_wild_card,2022.2.4,MacIntel,60.0024001,62d132acb69af7bf169cdbb8,64ce5acb97489d65b14ecc7a,64dba09e2bb7cee6daf3c706,,,,,,,ctch,resources/DY.BMP,resources/DP.BMP,Door4,-0.185707458,-0.014032166,1,0,0,1.0975,optionLeft,60,4275,2,39,0,39,0,1,,,,,,,,,,,,,,,,,,,,,,,,,,,,,,,,,,,,,,,
,,,,,,,,2023-08-15_16h58.57.471,HF_wild_card,2022.2.4,MacIntel,60.0024001,62d132acb69af7bf169cdbb8,64ce5acb97489d65b14ecc7a,64dba09e2bb7cee6daf3c706,,,,,,,decisionTrl,resources/DY.BMP,resources/DB.BMP,Door3,0.15822052,-0.023415833,1,0,0,0.912200001,optionRight,70,4345,2,40,0,40,0,1,,,,,,,,,,,,,,,,,,,,,,,,,,,,,,,,,,,,,,,
,,,,,,,,2023-08-15_16h58.57.471,HF_wild_card,2022.2.4,MacIntel,60.0024001,62d132acb69af7bf169cdbb8,64ce5acb97489d65b14ecc7a,64dba09e2bb7cee6daf3c706,,,,,,,sngl,resources/DB.BMP,resources/Empty.png,Door3,-0.150299438,0.008146637,1,0,0,0.5799,optionLeft,70,4415,2,41,0,41,0,1,,,,,,,,,,,,,,,,,,,,,,,,,,,,,,,,,,,,,,,
,,,,,,,,2023-08-15_16h58.57.471,HF_wild_card,2022.2.4,MacIntel,60.0024001,62d132acb69af7bf169cdbb8,64ce5acb97489d65b14ecc7a,64dba09e2bb7cee6daf3c706,,,,,,,decisionTrl,resources/DR.BMP,resources/DB.BMP,Door3,0.141701416,-0.012296021,1,0,0,0.679,optionRight,70,4485,2,42,0,42,0,1,,,,,,,,,,,,,,,,,,,,,,,,,,,,,,,,,,,,,,,
,,,,,,,,2023-08-15_16h58.57.471,HF_wild_card,2022.2.4,MacIntel,60.0024001,62d132acb69af7bf169cdbb8,64ce5acb97489d65b14ecc7a,64dba09e2bb7cee6daf3c706,,,,,,,decisionTrl,resources/DP.BMP,resources/DR.BMP,WildCard_NonEx,0.128880249,-0.005629364,1,0,0,1.0995,optionRight,45,4530,2,43,0,43,0,1,,,,,,,,,,,,,,,,,,,,,,,,,,,,,,,,,,,,,,,
,,,,,,,,2023-08-15_16h58.57.471,HF_wild_card,2022.2.4,MacIntel,60.0024001,62d132acb69af7bf169cdbb8,64ce5acb97489d65b14ecc7a,64dba09e2bb7cee6daf3c706,,,,,,,,,,,,,,,,,,,,,,,,,,1,0,1,0,1,,,,,,,,,,,,,,,,,,,,,,,,,,,,,,,,,,
,,,,,,,,2023-08-15_16h58.57.471,HF_wild_card,2022.2.4,MacIntel,60.0024001,62d132acb69af7bf169cdbb8,64ce5acb97489d65b14ecc7a,64dba09e2bb7cee6daf3c706,,,,,,,decisionTrl,resources/DR.BMP,resources/DY.BMP,Door4,0.263888916,-0.172960083,1,0,0,3.849900001,optionRight,60,4590,3,0,0,0,0,1,,,,,,,,,,,,,,,,,,,,,,,,,,,,,,,,,,,,,,,
,,,,,,,,2023-08-15_16h58.57.471,HF_wild_card,2022.2.4,MacIntel,60.0024001,62d132acb69af7bf169cdbb8,64ce5acb97489d65b14ecc7a,64dba09e2bb7cee6daf3c706,,,,,,,decisionTrl,resources/DG.BMP,resources/DR.BMP,WildCard_NonEx,0.230520874,-0.030429688,1,0,0,1.512299999,optionRight,45,4635,3,1,0,1,0,1,,,,,,,,,,,,,,,,,,,,,,,,,,,,,,,,,,,,,,,
,,,,,,,,2023-08-15_16h58.57.471,HF_wild_card,2022.2.4,MacIntel,60.0024001,62d132acb69af7bf169cdbb8,64ce5acb97489d65b14ecc7a,64dba09e2bb7cee6daf3c706,,,,,,,decisionTrl,resources/DG.BMP,resources/DP.BMP,Door2,-0.161219604,0.005490387,1,0,0,0.7653,optionLeft,20,4655,3,2,0,2,0,1,,,,,,,,,,,,,,,,,,,,,,,,,,,,,,,,,,,,,,,
,,,,,,,,2023-08-15_16h58.57.471,HF_wild_card,2022.2.4,MacIntel,60.0024001,62d132acb69af7bf169cdbb8,64ce5acb97489d65b14ecc7a,64dba09e2bb7cee6daf3c706,,,,,,,decisionTrl,resources/DP.BMP,resources/DR.BMP,WildCard_NonEx,0.284969727,-0.04578125,1,0,0,1.529299999,optionRight,55,4710,3,3,0,3,0,1,,,,,,,,,,,,,,,,,,,,,,,,,,,,,,,,,,,,,,,
,,,,,,,,2023-08-15_16h58.57.471,HF_wild_card,2022.2.4,MacIntel,60.0024001,62d132acb69af7bf169cdbb8,64ce5acb97489d65b14ecc7a,64dba09e2bb7cee6daf3c706,,,,,,,decisionTrl,resources/DG.BMP,resources/DP.BMP,Door1,0.273146729,-0.034631104,1,0,0,2.581,optionRight,30,4740,3,4,0,4,0,1,,,,,,,,,,,,,,,,,,,,,,,,,,,,,,,,,,,,,,,
,,,,,,,,2023-08-15_16h58.57.471,HF_wild_card,2022.2.4,MacIntel,60.0024001,62d132acb69af7bf169cdbb8,64ce5acb97489d65b14ecc7a,64dba09e2bb7cee6daf3c706,,,,,,,decisionTrl,resources/DP.BMP,resources/DG.BMP,Door2,0.234587769,-0.047491333,1,0,0,0.8988,optionRight,40,4780,3,5,0,5,0,1,,,,,,,,,,,,,,,,,,,,,,,,,,,,,,,,,,,,,,,
,,,,,,,,2023-08-15_16h58.57.471,HF_wild_card,2022.2.4,MacIntel,60.0024001,62d132acb69af7bf169cdbb8,64ce5acb97489d65b14ecc7a,64dba09e2bb7cee6daf3c706,,,,,,,ctch,resources/DG.BMP,resources/DB.BMP,Door3,0.250664063,-0.01144104,1,0,0,0.5846,optionRight,70,4850,3,6,0,6,0,1,,,,,,,,,,,,,,,,,,,,,,,,,,,,,,,,,,,,,,,
,,,,,,,,2023-08-15_16h58.57.471,HF_wild_card,2022.2.4,MacIntel,60.0024001,62d132acb69af7bf169cdbb8,64ce5acb97489d65b14ecc7a,64dba09e2bb7cee6daf3c706,,,,,,,sngl,resources/DR.BMP,resources/Empty.png,WildCard_NonEx,-0.176302063,-0.001979187,1,0,0,0.5636,optionLeft,55,4905,3,7,0,7,0,1,,,,,,,,,,,,,,,,,,,,,,,,,,,,,,,,,,,,,,,
,,,,,,,,2023-08-15_16h58.57.471,HF_wild_card,2022.2.4,MacIntel,60.0024001,62d132acb69af7bf169cdbb8,64ce5acb97489d65b14ecc7a,64dba09e2bb7cee6daf3c706,,,,,,,ctch,resources/DB.BMP,resources/DG.BMP,Door3,-0.220104126,-0.021710083,1,0,0,0.7004,optionLeft,70,4975,3,8,0,8,0,1,,,,,,,,,,,,,,,,,,,,,,,,,,,,,,,,,,,,,,,
,,,,,,,,2023-08-15_16h58.57.471,HF_wild_card,2022.2.4,MacIntel,60.0024001,62d132acb69af7bf169cdbb8,64ce5acb97489d65b14ecc7a,64dba09e2bb7cee6daf3c706,,,,,,,ctch,resources/DY.BMP,resources/DP.BMP,Door4,-0.181241272,-0.010720551,1,0,0,0.5297,optionLeft,80,5055,3,9,0,9,0,1,,,,,,,,,,,,,,,,,,,,,,,,,,,,,,,,,,,,,,,
,,,,,,,,2023-08-15_16h58.57.471,HF_wild_card,2022.2.4,MacIntel,60.0024001,62d132acb69af7bf169cdbb8,64ce5acb97489d65b14ecc7a,64dba09e2bb7cee6daf3c706,,,,,,,ctch,resources/DP.BMP,resources/DY.BMP,Door4,0.235052124,-0.026688416,1,0,0,0.4642,optionRight,60,5115,3,10,0,10,0,1,,,,,,,,,,,,,,,,,,,,,,,,,,,,,,,,,,,,,,,
,,,,,,,,2023-08-15_16h58.57.471,HF_wild_card,2022.2.4,MacIntel,60.0024001,62d132acb69af7bf169cdbb8,64ce5acb97489d65b14ecc7a,64dba09e2bb7cee6daf3c706,,,,,,,sngl,resources/DP.BMP,resources/Empty.png,Door1,-0.077495544,0.007582397,1,0,0,0.578299999,optionLeft,30,5145,3,11,0,11,0,1,,,,,,,,,,,,,,,,,,,,,,,,,,,,,,,,,,,,,,,
,,,,,,,,2023-08-15_16h58.57.471,HF_wild_card,2022.2.4,MacIntel,60.0024001,62d132acb69af7bf169cdbb8,64ce5acb97489d65b14ecc7a,64dba09e2bb7cee6daf3c706,,,,,,,decisionTrl,resources/DR.BMP,resources/DB.BMP,Door3,0.162825562,-0.002717041,1,0,0,0.6351,optionRight,70,5215,3,12,0,12,0,1,,,,,,,,,,,,,,,,,,,,,,,,,,,,,,,,,,,,,,,
,,,,,,,,2023-08-15_16h58.57.471,HF_wild_card,2022.2.4,MacIntel,60.0024001,62d132acb69af7bf169cdbb8,64ce5acb97489d65b14ecc7a,64dba09e2bb7cee6daf3c706,,,,,,,sngl,resources/DY.BMP,resources/Empty.png,Door4,-0.173485229,-0.006202271,1,0,0,0.584,optionLeft,80,5295,3,13,0,13,0,1,,,,,,,,,,,,,,,,,,,,,,,,,,,,,,,,,,,,,,,
,,,,,,,,2023-08-15_16h58.57.471,HF_wild_card,2022.2.4,MacIntel,60.0024001,62d132acb69af7bf169cdbb8,64ce5acb97489d65b14ecc7a,64dba09e2bb7cee6daf3c706,,,,,,,decisionTrl,resources/DB.BMP,resources/DY.BMP,Door4,0.230928833,0.003572021,1,0,0,0.514400001,optionRight,60,5355,3,14,0,14,0,1,,,,,,,,,,,,,,,,,,,,,,,,,,,,,,,,,,,,,,,
,,,,,,,,2023-08-15_16h58.57.471,HF_wild_card,2022.2.4,MacIntel,60.0024001,62d132acb69af7bf169cdbb8,64ce5acb97489d65b14ecc7a,64dba09e2bb7cee6daf3c706,,,,,,,sngl,resources/DR.BMP,resources/Empty.png,WildCard_NonEx,-0.243250854,0.006770813,1,0,0,0.6463,optionLeft,45,5400,3,15,0,15,0,1,,,,,,,,,,,,,,,,,,,,,,,,,,,,,,,,,,,,,,,
,,,,,,,,2023-08-15_16h58.57.471,HF_wild_card,2022.2.4,MacIntel,60.0024001,62d132acb69af7bf169cdbb8,64ce5acb97489d65b14ecc7a,64dba09e2bb7cee6daf3c706,,,,,,,decisionTrl,resources/DP.BMP,resources/DG.BMP,Door1,-0.245564209,-0.020759583,1,0,0,1.067299999,optionLeft,30,5430,3,16,0,16,0,1,,,,,,,,,,,,,,,,,,,,,,,,,,,,,,,,,,,,,,,
,,,,,,,,2023-08-15_16h58.57.471,HF_wild_card,2022.2.4,MacIntel,60.0024001,62d132acb69af7bf169cdbb8,64ce5acb97489d65b14ecc7a,64dba09e2bb7cee6daf3c706,,,,,,,sngl,resources/Empty.png,resources/DG.BMP,Door2,0.248441895,0.054518219,1,0,0,0.5828,optionRight,20,5450,3,17,0,17,0,1,,,,,,,,,,,,,,,,,,,,,,,,,,,,,,,,,,,,,,,
,,,,,,,,2023-08-15_16h58.57.471,HF_wild_card,2022.2.4,MacIntel,60.0024001,62d132acb69af7bf169cdbb8,64ce5acb97489d65b14ecc7a,64dba09e2bb7cee6daf3c706,,,,,,,ctch,resources/DB.BMP,resources/DG.BMP,Door3,-0.186206482,0.005954834,1,0,0,0.7638,optionLeft,70,5520,3,18,0,18,0,1,,,,,,,,,,,,,,,,,,,,,,,,,,,,,,,,,,,,,,,
,,,,,,,,2023-08-15_16h58.57.471,HF_wild_card,2022.2.4,MacIntel,60.0024001,62d132acb69af7bf169cdbb8,64ce5acb97489d65b14ecc7a,64dba09e2bb7cee6daf3c706,,,,,,,decisionTrl,resources/DB.BMP,resources/DY.BMP,Door3,-0.215577209,-0.020434082,1,0,0,0.6344,optionLeft,70,5590,3,19,0,19,0,1,,,,,,,,,,,,,,,,,,,,,,,,,,,,,,,,,,,,,,,
,,,,,,,,2023-08-15_16h58.57.471,HF_wild_card,2022.2.4,MacIntel,60.0024001,62d132acb69af7bf169cdbb8,64ce5acb97489d65b14ecc7a,64dba09e2bb7cee6daf3c706,,,,,,,decisionTrl,resources/DY.BMP,resources/DB.BMP,Door4,-0.181953125,-0.007178833,1,0,0,0.481799999,optionLeft,60,5650,3,20,0,20,0,1,,,,,,,,,,,,,,,,,,,,,,,,,,,,,,,,,,,,,,,
,,,,,,,,2023-08-15_16h58.57.471,HF_wild_card,2022.2.4,MacIntel,60.0024001,62d132acb69af7bf169cdbb8,64ce5acb97489d65b14ecc7a,64dba09e2bb7cee6daf3c706,,,,,,,decisionTrl,resources/DY.BMP,resources/DB.BMP,Door4,-0.169765625,-0.032530396,1,0,0,0.5327,optionLeft,80,5730,3,21,0,21,0,1,,,,,,,,,,,,,,,,,,,,,,,,,,,,,,,,,,,,,,,
,,,,,,,,2023-08-15_16h58.57.471,HF_wild_card,2022.2.4,MacIntel,60.0024001,62d132acb69af7bf169cdbb8,64ce5acb97489d65b14ecc7a,64dba09e2bb7cee6daf3c706,,,,,,,decisionTrl,resources/DY.BMP,resources/DB.BMP,Door4,-0.174717834,0.004522552,1,0,0,0.8825,optionLeft,60,5790,3,22,0,22,0,1,,,,,,,,,,,,,,,,,,,,,,,,,,,,,,,,,,,,,,,
,,,,,,,,2023-08-15_16h58.57.471,HF_wild_card,2022.2.4,MacIntel,60.0024001,62d132acb69af7bf169cdbb8,64ce5acb97489d65b14ecc7a,64dba09e2bb7cee6daf3c706,,,,,,,decisionTrl,resources/DB.BMP,resources/DY.BMP,Door4,0.191271729,-0.000121552,1,0,0,1.2658,optionRight,60,5850,3,23,0,23,0,1,,,,,,,,,,,,,,,,,,,,,,,,,,,,,,,,,,,,,,,
,,,,,,,,2023-08-15_16h58.57.471,HF_wild_card,2022.2.4,MacIntel,60.0024001,62d132acb69af7bf169cdbb8,64ce5acb97489d65b14ecc7a,64dba09e2bb7cee6daf3c706,,,,,,,decisionTrl,resources/DR.BMP,resources/DG.BMP,WildCard_NonEx,-0.259240417,0.024557281,1,0,0,1.8313,optionLeft,55,5905,3,24,0,24,0,1,,,,,,,,,,,,,,,,,,,,,,,,,,,,,,,,,,,,,,,
,,,,,,,,2023-08-15_16h58.57.471,HF_wild_card,2022.2.4,MacIntel,60.0024001,62d132acb69af7bf169cdbb8,64ce5acb97489d65b14ecc7a,64dba09e2bb7cee6daf3c706,,,,,,,decisionTrl,resources/DB.BMP,resources/DR.BMP,Door3,-0.230846313,0.018372375,1,0,0,0.865099999,optionLeft,70,5975,3,25,0,25,0,1,,,,,,,,,,,,,,,,,,,,,,,,,,,,,,,,,,,,,,,
,,,,,,,,2023-08-15_16h58.57.471,HF_wild_card,2022.2.4,MacIntel,60.0024001,62d132acb69af7bf169cdbb8,64ce5acb97489d65b14ecc7a,64dba09e2bb7cee6daf3c706,,,,,,,sngl,resources/Empty.png,resources/DB.BMP,Door3,0.239210083,0.016397552,1,0,0,0.597099999,optionRight,70,6045,3,26,0,26,0,1,,,,,,,,,,,,,,,,,,,,,,,,,,,,,,,,,,,,,,,
,,,,,,,,2023-08-15_16h58.57.471,HF_wild_card,2022.2.4,MacIntel,60.0024001,62d132acb69af7bf169cdbb8,64ce5acb97489d65b14ecc7a,64dba09e2bb7cee6daf3c706,,,,,,,sngl,resources/Empty.png,resources/DP.BMP,Door1,0.235720581,0.016566772,1,0,0,1.416,optionRight,30,6075,3,27,0,27,0,1,,,,,,,,,,,,,,,,,,,,,,,,,,,,,,,,,,,,,,,
,,,,,,,,2023-08-15_16h58.57.471,HF_wild_card,2022.2.4,MacIntel,60.0024001,62d132acb69af7bf169cdbb8,64ce5acb97489d65b14ecc7a,64dba09e2bb7cee6daf3c706,,,,,,,sngl,resources/DG.BMP,resources/Empty.png,Door2,-0.187877563,0.001631927,1,0,0,0.6975,optionLeft,40,6115,3,28,0,28,0,1,,,,,,,,,,,,,,,,,,,,,,,,,,,,,,,,,,,,,,,
,,,,,,,,2023-08-15_16h58.57.471,HF_wild_card,2022.2.4,MacIntel,60.0024001,62d132acb69af7bf169cdbb8,64ce5acb97489d65b14ecc7a,64dba09e2bb7cee6daf3c706,,,,,,,decisionTrl,resources/DY.BMP,resources/DR.BMP,Door4,-0.184418396,0.022252594,1,0,0,1.563299999,optionLeft,80,6195,3,29,0,29,0,1,,,,,,,,,,,,,,,,,,,,,,,,,,,,,,,,,,,,,,,
,,,,,,,,2023-08-15_16h58.57.471,HF_wild_card,2022.2.4,MacIntel,60.0024001,62d132acb69af7bf169cdbb8,64ce5acb97489d65b14ecc7a,64dba09e2bb7cee6daf3c706,,,,,,,decisionTrl,resources/DR.BMP,resources/DP.BMP,WildCard_NonEx,-0.267148438,-0.002929749,1,0,0,2.683,optionLeft,55,6250,3,30,0,30,0,1,,,,,,,,,,,,,,,,,,,,,,,,,,,,,,,,,,,,,,,
,,,,,,,,2023-08-15_16h58.57.471,HF_wild_card,2022.2.4,MacIntel,60.0024001,62d132acb69af7bf169cdbb8,64ce5acb97489d65b14ecc7a,64dba09e2bb7cee6daf3c706,,,,,,,decisionTrl,resources/DG.BMP,resources/DP.BMP,Door2,-0.287109375,0.004049469,1,0,0,2.896099999,optionLeft,20,6270,3,31,0,31,0,1,,,,,,,,,,,,,,,,,,,,,,,,,,,,,,,,,,,,,,,
,,,,,,,,2023-08-15_16h58.57.471,HF_wild_card,2022.2.4,MacIntel,60.0024001,62d132acb69af7bf169cdbb8,64ce5acb97489d65b14ecc7a,64dba09e2bb7cee6daf3c706,,,,,,,ctch,resources/DP.BMP,resources/DY.BMP,Door4,0.265217041,0.009149292,1,0,0,0.9144,optionRight,60,6330,3,32,0,32,0,1,,,,,,,,,,,,,,,,,,,,,,,,,,,,,,,,,,,,,,,
,,,,,,,,2023-08-15_16h58.57.471,HF_wild_card,2022.2.4,MacIntel,60.0024001,62d132acb69af7bf169cdbb8,64ce5acb97489d65b14ecc7a,64dba09e2bb7cee6daf3c706,,,,,,,ctch,resources/DG.BMP,resources/DB.BMP,Door3,0.19858075,-0.001054749,1,0,0,3.947700001,optionRight,70,6400,3,33,0,33,0,1,,,,,,,,,,,,,,,,,,,,,,,,,,,,,,,,,,,,,,,
,,,,,,,,2023-08-15_16h58.57.471,HF_wild_card,2022.2.4,MacIntel,60.0024001,62d132acb69af7bf169cdbb8,64ce5acb97489d65b14ecc7a,64dba09e2bb7cee6daf3c706,,,,,,,sngl,resources/DB.BMP,resources/Empty.png,Door3,-0.195603271,4.27246E-06,1,0,0,0.695099999,optionLeft,70,6470,3,34,0,34,0,1,,,,,,,,,,,,,,,,,,,,,,,,,,,,,,,,,,,,,,,
,,,,,,,,2023-08-15_16h58.57.471,HF_wild_card,2022.2.4,MacIntel,60.0024001,62d132acb69af7bf169cdbb8,64ce5acb97489d65b14ecc7a,64dba09e2bb7cee6daf3c706,,,,,,,ctch,resources/DY.BMP,resources/DP.BMP,Door4,-0.150303772,0.00682724,1,0,0,1.545200001,optionLeft,80,6550,3,35,0,35,0,1,,,,,,,,,,,,,,,,,,,,,,,,,,,,,,,,,,,,,,,
,,,,,,,,2023-08-15_16h58.57.471,HF_wild_card,2022.2.4,MacIntel,60.0024001,62d132acb69af7bf169cdbb8,64ce5acb97489d65b14ecc7a,64dba09e2bb7cee6daf3c706,,,,,,,sngl,resources/Empty.png,resources/DR.BMP,WildCard_NonEx,0.262217896,-0.004175415,1,0,0,0.5981,optionRight,55,6605,3,36,0,36,0,1,,,,,,,,,,,,,,,,,,,,,,,,,,,,,,,,,,,,,,,
,,,,,,,,2023-08-15_16h58.57.471,HF_wild_card,2022.2.4,MacIntel,60.0024001,62d132acb69af7bf169cdbb8,64ce5acb97489d65b14ecc7a,64dba09e2bb7cee6daf3c706,,,,,,,sngl,resources/Empty.png,resources/DY.BMP,Door4,0.237217896,-0.035386292,1,0,0,0.648,optionRight,60,6665,3,37,0,37,0,1,,,,,,,,,,,,,,,,,,,,,,,,,,,,,,,,,,,,,,,
,,,,,,,,2023-08-15_16h58.57.471,HF_wild_card,2022.2.4,MacIntel,60.0024001,62d132acb69af7bf169cdbb8,64ce5acb97489d65b14ecc7a,64dba09e2bb7cee6daf3c706,,,,,,,decisionTrl,resources/DY.BMP,resources/DB.BMP,Door3,0.270533936,-0.041888062,1,0,0,1.0615,optionRight,70,6735,3,38,0,38,0,1,,,,,,,,,,,,,,,,,,,,,,,,,,,,,,,,,,,,,,,
,,,,,,,,2023-08-15_16h58.57.471,HF_wild_card,2022.2.4,MacIntel,60.0024001,62d132acb69af7bf169cdbb8,64ce5acb97489d65b14ecc7a,64dba09e2bb7cee6daf3c706,,,,,,,decisionTrl,resources/DP.BMP,resources/DG.BMP,Door2,0.206766541,-0.041006958,1,0,0,4.2996,optionRight,40,6775,3,39,0,39,0,1,,,,,,,,,,,,,,,,,,,,,,,,,,,,,,,,,,,,,,,
,,,,,,,,2023-08-15_16h58.57.471,HF_wild_card,2022.2.4,MacIntel,60.0024001,62d132acb69af7bf169cdbb8,64ce5acb97489d65b14ecc7a,64dba09e2bb7cee6daf3c706,,,,,,,decisionTrl,resources/DG.BMP,resources/DP.BMP,Door2,-0.142534607,0.017886261,1,0,0,1.3318,optionLeft,20,6795,3,40,0,40,0,1,,,,,,,,,,,,,,,,,,,,,,,,,,,,,,,,,,,,,,,
,,,,,,,,2023-08-15_16h58.57.471,HF_wild_card,2022.2.4,MacIntel,60.0024001,62d132acb69af7bf169cdbb8,64ce5acb97489d65b14ecc7a,64dba09e2bb7cee6daf3c706,,,,,,,sngl,resources/Empty.png,resources/DR.BMP,WildCard_NonEx,0.215833374,-0.004006104,1,0,0,0.7452,optionRight,45,6840,3,41,0,41,0,1,,,,,,,,,,,,,,,,,,,,,,,,,,,,,,,,,,,,,,,
,,,,,,,,2023-08-15_16h58.57.471,HF_wild_card,2022.2.4,MacIntel,60.0024001,62d132acb69af7bf169cdbb8,64ce5acb97489d65b14ecc7a,64dba09e2bb7cee6daf3c706,,,,,,,decisionTrl,resources/DB.BMP,resources/DY.BMP,Door3,-0.186796875,0.016475677,1,0,0,0.9648,optionLeft,70,6910,3,42,0,42,0,1,,,,,,,,,,,,,,,,,,,,,,,,,,,,,,,,,,,,,,,
,,,,,,,,2023-08-15_16h58.57.471,HF_wild_card,2022.2.4,MacIntel,60.0024001,62d132acb69af7bf169cdbb8,64ce5acb97489d65b14ecc7a,64dba09e2bb7cee6daf3c706,,,,,,,decisionTrl,resources/DP.BMP,resources/DG.BMP,Door2,0.15538208,-0.016206604,1,0,0,0.9656,optionRight,20,6930,3,43,0,43,0,1,,,,,,,,,,,,,,,,,,,,,,,,,,,,,,,,,,,,,,,
,,,,,,,,2023-08-15_16h58.57.471,HF_wild_card,2022.2.4,MacIntel,60.0024001,62d132acb69af7bf169cdbb8,64ce5acb97489d65b14ecc7a,64dba09e2bb7cee6daf3c706,,,,,,,,,,,,,,,,,,,,,,,,,,2,0,2,0,1,,,,,,,,,,,,,,,,,,,,,,,,,,,,,,,,,,
,,,,,,,,2023-08-15_16h58.57.471,HF_wild_card,2022.2.4,MacIntel,60.0024001,62d132acb69af7bf169cdbb8,64ce5acb97489d65b14ecc7a,64dba09e2bb7cee6daf3c706,,,,,,,decisionTrl,resources/DP.BMP,resources/DG.BMP,Door2,0.308901978,-0.052855957,1,0,0,7.2439,optionRight,40,6970,4,0,0,0,0,1,,,,,,,,,,,,,,,,,,,,,,,,,,,,,,,,,,,,,,,
,,,,,,,,2023-08-15_16h58.57.471,HF_wild_card,2022.2.4,MacIntel,60.0024001,62d132acb69af7bf169cdbb8,64ce5acb97489d65b14ecc7a,64dba09e2bb7cee6daf3c706,,,,,,,decisionTrl,resources/DY.BMP,resources/DB.BMP,Door4,-0.319609314,0.003285522,1,0,0,1.0666,optionLeft,80,7050,4,1,0,1,0,1,,,,,,,,,,,,,,,,,,,,,,,,,,,,,,,,,,,,,,,
,,,,,,,,2023-08-15_16h58.57.471,HF_wild_card,2022.2.4,MacIntel,60.0024001,62d132acb69af7bf169cdbb8,64ce5acb97489d65b14ecc7a,64dba09e2bb7cee6daf3c706,,,,,,,decisionTrl,resources/DY.BMP,resources/DB.BMP,Door4,-0.199830688,0.002630188,1,0,0,0.5644,optionLeft,80,7130,4,2,0,2,0,1,,,,,,,,,,,,,,,,,,,,,,,,,,,,,,,,,,,,,,,
,,,,,,,,2023-08-15_16h58.57.471,HF_wild_card,2022.2.4,MacIntel,60.0024001,62d132acb69af7bf169cdbb8,64ce5acb97489d65b14ecc7a,64dba09e2bb7cee6daf3c706,,,,,,,decisionTrl,resources/DG.BMP,resources/DP.BMP,Door1,0.252899414,-0.013936646,1,0,0,2.7334,optionRight,30,7160,4,3,0,3,0,1,,,,,,,,,,,,,,,,,,,,,,,,,,,,,,,,,,,,,,,
,,,,,,,,2023-08-15_16h58.57.471,HF_wild_card,2022.2.4,MacIntel,60.0024001,62d132acb69af7bf169cdbb8,64ce5acb97489d65b14ecc7a,64dba09e2bb7cee6daf3c706,,,,,,,ctch,resources/DP.BMP,resources/DY.BMP,Door4,0.21289502,-0.023732666,1,0,0,0.945099999,optionRight,80,7240,4,4,0,4,0,1,,,,,,,,,,,,,,,,,,,,,,,,,,,,,,,,,,,,,,,
,,,,,,,,2023-08-15_16h58.57.471,HF_wild_card,2022.2.4,MacIntel,60.0024001,62d132acb69af7bf169cdbb8,64ce5acb97489d65b14ecc7a,64dba09e2bb7cee6daf3c706,,,,,,,decisionTrl,resources/DP.BMP,resources/DG.BMP,Door2,0.268198853,-0.016796875,1,0,0,1.2311,optionRight,20,7260,4,5,0,5,0,1,,,,,,,,,,,,,,,,,,,,,,,,,,,,,,,,,,,,,,,
,,,,,,,,2023-08-15_16h58.57.471,HF_wild_card,2022.2.4,MacIntel,60.0024001,62d132acb69af7bf169cdbb8,64ce5acb97489d65b14ecc7a,64dba09e2bb7cee6daf3c706,,,,,,,decisionTrl,resources/DY.BMP,resources/DB.BMP,Door4,-0.217573669,0.029201324,1,0,0,0.596299999,optionLeft,80,7340,4,6,0,6,0,1,,,,,,,,,,,,,,,,,,,,,,,,,,,,,,,,,,,,,,,
,,,,,,,,2023-08-15_16h58.57.471,HF_wild_card,2022.2.4,MacIntel,60.0024001,62d132acb69af7bf169cdbb8,64ce5acb97489d65b14ecc7a,64dba09e2bb7cee6daf3c706,,,,,,,decisionTrl,resources/DG.BMP,resources/DP.BMP,Door1,0.215416687,-0.04102002,1,0,0,1.6345,optionRight,30,7370,4,7,0,7,0,1,,,,,,,,,,,,,,,,,,,,,,,,,,,,,,,,,,,,,,,
,,,,,,,,2023-08-15_16h58.57.471,HF_wild_card,2022.2.4,MacIntel,60.0024001,62d132acb69af7bf169cdbb8,64ce5acb97489d65b14ecc7a,64dba09e2bb7cee6daf3c706,,,,,,,sngl,resources/DG.BMP,resources/Empty.png,Door2,-0.153098938,-0.022005249,1,0,0,0.601099999,optionLeft,20,7390,4,8,0,8,0,1,,,,,,,,,,,,,,,,,,,,,,,,,,,,,,,,,,,,,,,
,,,,,,,,2023-08-15_16h58.57.471,HF_wild_card,2022.2.4,MacIntel,60.0024001,62d132acb69af7bf169cdbb8,64ce5acb97489d65b14ecc7a,64dba09e2bb7cee6daf3c706,,,,,,,decisionTrl,resources/DP.BMP,resources/DG.BMP,Door2,0.357977661,0.039587646,1,0,0,1.3981,optionRight,20,7410,4,9,0,9,0,1,,,,,,,,,,,,,,,,,,,,,,,,,,,,,,,,,,,,,,,
,,,,,,,,2023-08-15_16h58.57.471,HF_wild_card,2022.2.4,MacIntel,60.0024001,62d132acb69af7bf169cdbb8,64ce5acb97489d65b14ecc7a,64dba09e2bb7cee6daf3c706,,,,,,,decisionTrl,resources/DBN.BMP,resources/DB.BMP,WildCard_Ex,-0.24272998,0.009240387,1,0,0,1.1493,optionLeft,55,7465,4,10,0,10,0,1,,,,,,,,,,,,,,,,,,,,,,,,,,,,,,,,,,,,,,,
,,,,,,,,2023-08-15_16h58.57.471,HF_wild_card,2022.2.4,MacIntel,60.0024001,62d132acb69af7bf169cdbb8,64ce5acb97489d65b14ecc7a,64dba09e2bb7cee6daf3c706,,,,,,,ctch,resources/DY.BMP,resources/DP.BMP,Door4,-0.18765625,-0.012682312,1,0,0,1.800299999,optionLeft,60,7525,4,11,0,11,0,1,,,,,,,,,,,,,,,,,,,,,,,,,,,,,,,,,,,,,,,
,,,,,,,,2023-08-15_16h58.57.471,HF_wild_card,2022.2.4,MacIntel,60.0024001,62d132acb69af7bf169cdbb8,64ce5acb97489d65b14ecc7a,64dba09e2bb7cee6daf3c706,,,,,,,ctch,resources/DB.BMP,resources/DG.BMP,Door3,-0.187999084,-0.009917603,1,0,0,0.7488,optionLeft,70,7595,4,12,0,12,0,1,,,,,,,,,,,,,,,,,,,,,,,,,,,,,,,,,,,,,,,
,,,,,,,,2023-08-15_16h58.57.471,HF_wild_card,2022.2.4,MacIntel,60.0024001,62d132acb69af7bf169cdbb8,64ce5acb97489d65b14ecc7a,64dba09e2bb7cee6daf3c706,,,,,,,sngl,resources/Empty.png,resources/DG.BMP,Door2,0.219661499,-0.000863739,1,0,0,0.6118,optionRight,40,7635,4,13,0,13,0,1,,,,,,,,,,,,,,,,,,,,,,,,,,,,,,,,,,,,,,,
,,,,,,,,2023-08-15_16h58.57.471,HF_wild_card,2022.2.4,MacIntel,60.0024001,62d132acb69af7bf169cdbb8,64ce5acb97489d65b14ecc7a,64dba09e2bb7cee6daf3c706,,,,,,,decisionTrl,resources/DBN.BMP,resources/DY.BMP,WildCard_Ex,-0.208945313,0.015985229,1,0,0,0.7836,optionLeft,45,7680,4,14,0,14,0,1,,,,,,,,,,,,,,,,,,,,,,,,,,,,,,,,,,,,,,,
,,,,,,,,2023-08-15_16h58.57.471,HF_wild_card,2022.2.4,MacIntel,60.0024001,62d132acb69af7bf169cdbb8,64ce5acb97489d65b14ecc7a,64dba09e2bb7cee6daf3c706,,,,,,,ctch,resources/DG.BMP,resources/DB.BMP,Door3,0.20493927,0.008454834,1,0,0,0.8941,optionRight,70,7750,4,15,0,15,0,1,,,,,,,,,,,,,,,,,,,,,,,,,,,,,,,,,,,,,,,
,,,,,,,,2023-08-15_16h58.57.471,HF_wild_card,2022.2.4,MacIntel,60.0024001,62d132acb69af7bf169cdbb8,64ce5acb97489d65b14ecc7a,64dba09e2bb7cee6daf3c706,,,,,,,decisionTrl,resources/DY.BMP,resources/DBN.BMP,Door4,-0.18625,0.006918335,1,0,0,0.779599999,optionLeft,80,7830,4,16,0,16,0,1,,,,,,,,,,,,,,,,,,,,,,,,,,,,,,,,,,,,,,,
,,,,,,,,2023-08-15_16h58.57.471,HF_wild_card,2022.2.4,MacIntel,60.0024001,62d132acb69af7bf169cdbb8,64ce5acb97489d65b14ecc7a,64dba09e2bb7cee6daf3c706,,,,,,,decisionTrl,resources/DBN.BMP,resources/DP.BMP,WildCard_Ex,-0.34198349,0.006879272,1,0,0,1.1969,optionLeft,55,7885,4,17,0,17,0,1,,,,,,,,,,,,,,,,,,,,,,,,,,,,,,,,,,,,,,,
,,,,,,,,2023-08-15_16h58.57.471,HF_wild_card,2022.2.4,MacIntel,60.0024001,62d132acb69af7bf169cdbb8,64ce5acb97489d65b14ecc7a,64dba09e2bb7cee6daf3c706,,,,,,,decisionTrl,resources/DB.BMP,resources/DY.BMP,Door3,-0.158211792,0.009618042,1,0,0,0.7624,optionLeft,70,7955,4,18,0,18,0,1,,,,,,,,,,,,,,,,,,,,,,,,,,,,,,,,,,,,,,,
,,,,,,,,2023-08-15_16h58.57.471,HF_wild_card,2022.2.4,MacIntel,60.0024001,62d132acb69af7bf169cdbb8,64ce5acb97489d65b14ecc7a,64dba09e2bb7cee6daf3c706,,,,,,,decisionTrl,resources/DBN.BMP,resources/DG.BMP,WildCard_Ex,-0.271536438,0.009053802,1,0,0,1.1331,optionLeft,45,8000,4,19,0,19,0,1,,,,,,,,,,,,,,,,,,,,,,,,,,,,,,,,,,,,,,,
,,,,,,,,2023-08-15_16h58.57.471,HF_wild_card,2022.2.4,MacIntel,60.0024001,62d132acb69af7bf169cdbb8,64ce5acb97489d65b14ecc7a,64dba09e2bb7cee6daf3c706,,,,,,,decisionTrl,resources/DB.BMP,resources/DBN.BMP,Door3,-0.207278625,-0.025703125,1,0,0,1.2483,optionLeft,70,8070,4,20,0,20,0,1,,,,,,,,,,,,,,,,,,,,,,,,,,,,,,,,,,,,,,,
,,,,,,,,2023-08-15_16h58.57.471,HF_wild_card,2022.2.4,MacIntel,60.0024001,62d132acb69af7bf169cdbb8,64ce5acb97489d65b14ecc7a,64dba09e2bb7cee6daf3c706,,,,,,,decisionTrl,resources/DP.BMP,resources/DG.BMP,Door2,0.332951416,0.03043396,1,0,0,3.7447,optionRight,40,8110,4,21,0,21,0,1,,,,,,,,,,,,,,,,,,,,,,,,,,,,,,,,,,,,,,,
,,,,,,,,2023-08-15_16h58.57.471,HF_wild_card,2022.2.4,MacIntel,60.0024001,62d132acb69af7bf169cdbb8,64ce5acb97489d65b14ecc7a,64dba09e2bb7cee6daf3c706,,,,,,,decisionTrl,resources/DB.BMP,resources/DY.BMP,Door4,0.34234375,-0.008576416,1,0,0,1.3635,optionRight,60,8170,4,22,0,22,0,1,,,,,,,,,,,,,,,,,,,,,,,,,,,,,,,,,,,,,,,
,,,,,,,,2023-08-15_16h58.57.471,HF_wild_card,2022.2.4,MacIntel,60.0024001,62d132acb69af7bf169cdbb8,64ce5acb97489d65b14ecc7a,64dba09e2bb7cee6daf3c706,,,,,,,decisionTrl,resources/DG.BMP,resources/DBN.BMP,WildCard_Ex,0.38523877,-0.026493103,1,0,0,1.2309,optionRight,45,8215,4,23,0,23,0,1,,,,,,,,,,,,,,,,,,,,,,,,,,,,,,,,,,,,,,,
,,,,,,,,2023-08-15_16h58.57.471,HF_wild_card,2022.2.4,MacIntel,60.0024001,62d132acb69af7bf169cdbb8,64ce5acb97489d65b14ecc7a,64dba09e2bb7cee6daf3c706,,,,,,,sngl,resources/Empty.png,resources/DP.BMP,Door1,0.279205811,-0.048498291,1,0,0,0.5518,optionRight,30,8245,4,24,0,24,0,1,,,,,,,,,,,,,,,,,,,,,,,,,,,,,,,,,,,,,,,
,,,,,,,,2023-08-15_16h58.57.471,HF_wild_card,2022.2.4,MacIntel,60.0024001,62d132acb69af7bf169cdbb8,64ce5acb97489d65b14ecc7a,64dba09e2bb7cee6daf3c706,,,,,,,sngl,resources/DY.BMP,resources/Empty.png,Door4,-0.171015625,0.005013,1,0,0,0.5645,optionLeft,60,8305,4,25,0,25,0,1,,,,,,,,,,,,,,,,,,,,,,,,,,,,,,,,,,,,,,,
,,,,,,,,2023-08-15_16h58.57.471,HF_wild_card,2022.2.4,MacIntel,60.0024001,62d132acb69af7bf169cdbb8,64ce5acb97489d65b14ecc7a,64dba09e2bb7cee6daf3c706,,,,,,,sngl,resources/Empty.png,resources/DB.BMP,Door3,0.171202393,0.010980835,1,0,0,0.480400001,optionRight,70,8375,4,26,0,26,0,1,,,,,,,,,,,,,,,,,,,,,,,,,,,,,,,,,,,,,,,
,,,,,,,,2023-08-15_16h58.57.471,HF_wild_card,2022.2.4,MacIntel,60.0024001,62d132acb69af7bf169cdbb8,64ce5acb97489d65b14ecc7a,64dba09e2bb7cee6daf3c706,,,,,,,decisionTrl,resources/DY.BMP,resources/DB.BMP,Door3,0.340555786,-0.0140625,1,0,0,0.9123,optionRight,70,8445,4,27,0,27,0,1,,,,,,,,,,,,,,,,,,,,,,,,,,,,,,,,,,,,,,,
,,,,,,,,2023-08-15_16h58.57.471,HF_wild_card,2022.2.4,MacIntel,60.0024001,62d132acb69af7bf169cdbb8,64ce5acb97489d65b14ecc7a,64dba09e2bb7cee6daf3c706,,,,,,,ctch,resources/DY.BMP,resources/DP.BMP,Door4,-0.229618042,0.022291656,1,0,0,1.164099999,optionLeft,60,8505,4,28,0,28,0,1,,,,,,,,,,,,,,,,,,,,,,,,,,,,,,,,,,,,,,,
,,,,,,,,2023-08-15_16h58.57.471,HF_wild_card,2022.2.4,MacIntel,60.0024001,62d132acb69af7bf169cdbb8,64ce5acb97489d65b14ecc7a,64dba09e2bb7cee6daf3c706,,,,,,,sngl,resources/Empty.png,resources/DBN.BMP,WildCard_Ex,0.266770874,-0.019375,1,0,0,0.563900001,optionRight,55,8560,4,29,0,29,0,1,,,,,,,,,,,,,,,,,,,,,,,,,,,,,,,,,,,,,,,
,,,,,,,,2023-08-15_16h58.57.471,HF_wild_card,2022.2.4,MacIntel,60.0024001,62d132acb69af7bf169cdbb8,64ce5acb97489d65b14ecc7a,64dba09e2bb7cee6daf3c706,,,,,,,decisionTrl,resources/DB.BMP,resources/DY.BMP,Door3,-0.171705688,0.042400146,1,0,0,0.9643,optionLeft,70,8630,4,30,0,30,0,1,,,,,,,,,,,,,,,,,,,,,,,,,,,,,,,,,,,,,,,
,,,,,,,,2023-08-15_16h58.57.471,HF_wild_card,2022.2.4,MacIntel,60.0024001,62d132acb69af7bf169cdbb8,64ce5acb97489d65b14ecc7a,64dba09e2bb7cee6daf3c706,,,,,,,sngl,resources/Empty.png,resources/DBN.BMP,WildCard_Ex,0.38800354,0.025772552,1,0,0,0.6327,optionRight,45,8675,4,31,0,31,0,1,,,,,,,,,,,,,,,,,,,,,,,,,,,,,,,,,,,,,,,
,,,,,,,,2023-08-15_16h58.57.471,HF_wild_card,2022.2.4,MacIntel,60.0024001,62d132acb69af7bf169cdbb8,64ce5acb97489d65b14ecc7a,64dba09e2bb7cee6daf3c706,,,,,,,sngl,resources/DBN.BMP,resources/Empty.png,WildCard_Ex,-0.21224823,0.011306396,1,0,0,0.6953,optionLeft,45,8720,4,32,0,32,0,1,,,,,,,,,,,,,,,,,,,,,,,,,,,,,,,,,,,,,,,
,,,,,,,,2023-08-15_16h58.57.471,HF_wild_card,2022.2.4,MacIntel,60.0024001,62d132acb69af7bf169cdbb8,64ce5acb97489d65b14ecc7a,64dba09e2bb7cee6daf3c706,,,,,,,sngl,resources/DBN.BMP,resources/Empty.png,WildCard_Ex,-0.121414917,0.004136261,1,0,0,0.615799999,optionLeft,55,8775,4,33,0,33,0,1,,,,,,,,,,,,,,,,,,,,,,,,,,,,,,,,,,,,,,,
,,,,,,,,2023-08-15_16h58.57.471,HF_wild_card,2022.2.4,MacIntel,60.0024001,62d132acb69af7bf169cdbb8,64ce5acb97489d65b14ecc7a,64dba09e2bb7cee6daf3c706,,,,,,,sngl,resources/Empty.png,resources/DY.BMP,Door4,0.32456604,-0.015004395,1,0,0,0.6139,optionRight,80,8855,4,34,0,34,0,1,,,,,,,,,,,,,,,,,,,,,,,,,,,,,,,,,,,,,,,
,,,,,,,,2023-08-15_16h58.57.471,HF_wild_card,2022.2.4,MacIntel,60.0024001,62d132acb69af7bf169cdbb8,64ce5acb97489d65b14ecc7a,64dba09e2bb7cee6daf3c706,,,,,,,decisionTrl,resources/DB.BMP,resources/DY.BMP,Door3,-0.239878418,0.026254272,1,0,0,0.9138,optionLeft,70,8925,4,35,0,35,0,1,,,,,,,,,,,,,,,,,,,,,,,,,,,,,,,,,,,,,,,
,,,,,,,,2023-08-15_16h58.57.471,HF_wild_card,2022.2.4,MacIntel,60.0024001,62d132acb69af7bf169cdbb8,64ce5acb97489d65b14ecc7a,64dba09e2bb7cee6daf3c706,,,,,,,ctch,resources/DG.BMP,resources/DB.BMP,Door3,0.157829895,0.010824585,1,0,0,0.7795,optionRight,70,8995,4,36,0,36,0,1,,,,,,,,,,,,,,,,,,,,,,,,,,,,,,,,,,,,,,,
,,,,,,,,2023-08-15_16h58.57.471,HF_wild_card,2022.2.4,MacIntel,60.0024001,62d132acb69af7bf169cdbb8,64ce5acb97489d65b14ecc7a,64dba09e2bb7cee6daf3c706,,,,,,,ctch,resources/DB.BMP,resources/DG.BMP,Door3,-0.220837646,0.013454834,1,0,0,1.431700001,optionLeft,70,9065,4,37,0,37,0,1,,,,,,,,,,,,,,,,,,,,,,,,,,,,,,,,,,,,,,,
,,,,,,,,2023-08-15_16h58.57.471,HF_wild_card,2022.2.4,MacIntel,60.0024001,62d132acb69af7bf169cdbb8,64ce5acb97489d65b14ecc7a,64dba09e2bb7cee6daf3c706,,,,,,,ctch,resources/DP.BMP,resources/DY.BMP,Door4,0.231588623,-0.03625,1,0,0,1.183200001,optionRight,80,9145,4,38,0,38,0,1,,,,,,,,,,,,,,,,,,,,,,,,,,,,,,,,,,,,,,,
,,,,,,,,2023-08-15_16h58.57.471,HF_wild_card,2022.2.4,MacIntel,60.0024001,62d132acb69af7bf169cdbb8,64ce5acb97489d65b14ecc7a,64dba09e2bb7cee6daf3c706,,,,,,,decisionTrl,resources/DG.BMP,resources/DP.BMP,Door2,-0.265564209,0.008719604,1,0,0,1.4488,optionLeft,20,9165,4,39,0,39,0,1,,,,,,,,,,,,,,,,,,,,,,,,,,,,,,,,,,,,,,,
,,,,,,,,2023-08-15_16h58.57.471,HF_wild_card,2022.2.4,MacIntel,60.0024001,62d132acb69af7bf169cdbb8,64ce5acb97489d65b14ecc7a,64dba09e2bb7cee6daf3c706,,,,,,,sngl,resources/DP.BMP,resources/Empty.png,Door1,-0.232712646,0.019175323,1,0,0,0.6822,optionLeft,30,9195,4,40,0,40,0,1,,,,,,,,,,,,,,,,,,,,,,,,,,,,,,,,,,,,,,,
,,,,,,,,2023-08-15_16h58.57.471,HF_wild_card,2022.2.4,MacIntel,60.0024001,62d132acb69af7bf169cdbb8,64ce5acb97489d65b14ecc7a,64dba09e2bb7cee6daf3c706,,,,,,,decisionTrl,resources/DG.BMP,resources/DP.BMP,Door2,-0.232777771,0.018385406,1,0,0,1.749,optionLeft,20,9215,4,41,0,41,0,1,,,,,,,,,,,,,,,,,,,,,,,,,,,,,,,,,,,,,,,
,,,,,,,,2023-08-15_16h58.57.471,HF_wild_card,2022.2.4,MacIntel,60.0024001,62d132acb69af7bf169cdbb8,64ce5acb97489d65b14ecc7a,64dba09e2bb7cee6daf3c706,,,,,,,sngl,resources/DB.BMP,resources/Empty.png,Door3,-0.139865417,-0.013116333,1,0,0,0.6516,optionLeft,70,9285,4,42,0,42,0,1,,,,,,,,,,,,,,,,,,,,,,,,,,,,,,,,,,,,,,,
,,,,,,,,2023-08-15_16h58.57.471,HF_wild_card,2022.2.4,MacIntel,60.0024001,62d132acb69af7bf169cdbb8,64ce5acb97489d65b14ecc7a,64dba09e2bb7cee6daf3c706,,,,,,,decisionTrl,resources/DP.BMP,resources/DBN.BMP,WildCard_Ex,0.303450562,-0.001237,1,0,0,1.484200001,optionRight,45,9330,4,43,0,43,0,1,,,,,,,,,,,,,,,,,,,,,,,,,,,,,,,,,,,,,,,
,,,,,,,,2023-08-15_16h58.57.471,HF_wild_card,2022.2.4,MacIntel,60.0024001,62d132acb69af7bf169cdbb8,64ce5acb97489d65b14ecc7a,64dba09e2bb7cee6daf3c706,,,,,,,,,,,,,,,,,,,,,,,,,,3,0,3,0,1,,,,,,,,,,,,,,,,,,,,,,,,,,,,,,,,,,
,,,,,,,,2023-08-15_16h58.57.471,HF_wild_card,2022.2.4,MacIntel,60.0024001,62d132acb69af7bf169cdbb8,64ce5acb97489d65b14ecc7a,64dba09e2bb7cee6daf3c706,,,,,,,decisionTrl,resources/DG.BMP,resources/DP.BMP,Door2,-0.211770813,-0.051063416,1,0,0,2.6962,optionLeft,20,9350,5,0,0,0,0,1,,,,,,,,,,,,,,,,,,,,,,,,,,,,,,,,,,,,,,,
,,,,,,,,2023-08-15_16h58.57.471,HF_wild_card,2022.2.4,MacIntel,60.0024001,62d132acb69af7bf169cdbb8,64ce5acb97489d65b14ecc7a,64dba09e2bb7cee6daf3c706,,,,,,,ctch,resources/DY.BMP,resources/DP.BMP,Door4,-0.216783813,0.026158844,1,0,0,0.9313,optionLeft,60,9410,5,1,0,1,0,1,,,,,,,,,,,,,,,,,,,,,,,,,,,,,,,,,,,,,,,
,,,,,,,,2023-08-15_16h58.57.471,HF_wild_card,2022.2.4,MacIntel,60.0024001,62d132acb69af7bf169cdbb8,64ce5acb97489d65b14ecc7a,64dba09e2bb7cee6daf3c706,,,,,,,decisionTrl,resources/DG.BMP,resources/DP.BMP,Door2,-0.233085938,0.036714386,1,0,0,0.9166,optionLeft,20,9430,5,2,0,2,0,1,,,,,,,,,,,,,,,,,,,,,,,,,,,,,,,,,,,,,,,
,,,,,,,,2023-08-15_16h58.57.471,HF_wild_card,2022.2.4,MacIntel,60.0024001,62d132acb69af7bf169cdbb8,64ce5acb97489d65b14ecc7a,64dba09e2bb7cee6daf3c706,,,,,,,decisionTrl,resources/DBN.BMP,resources/DB.BMP,Door3,0.345889771,-0.028446228,1,0,0,1.0336,optionRight,70,9500,5,3,0,3,0,1,,,,,,,,,,,,,,,,,,,,,,,,,,,,,,,,,,,,,,,
,,,,,,,,2023-08-15_16h58.57.471,HF_wild_card,2022.2.4,MacIntel,60.0024001,62d132acb69af7bf169cdbb8,64ce5acb97489d65b14ecc7a,64dba09e2bb7cee6daf3c706,,,,,,,decisionTrl,resources/DP.BMP,resources/DG.BMP,Door2,0.243632812,0.000429626,1,0,0,1.0995,optionRight,20,9520,5,4,0,4,0,1,,,,,,,,,,,,,,,,,,,,,,,,,,,,,,,,,,,,,,,
,,,,,,,,2023-08-15_16h58.57.471,HF_wild_card,2022.2.4,MacIntel,60.0024001,62d132acb69af7bf169cdbb8,64ce5acb97489d65b14ecc7a,64dba09e2bb7cee6daf3c706,,,,,,,decisionTrl,resources/DG.BMP,resources/DP.BMP,Door2,-0.228845459,-0.002500061,1,0,0,1.2326,optionLeft,20,9540,5,5,0,5,0,1,,,,,,,,,,,,,,,,,,,,,,,,,,,,,,,,,,,,,,,
,,,,,,,,2023-08-15_16h58.57.471,HF_wild_card,2022.2.4,MacIntel,60.0024001,62d132acb69af7bf169cdbb8,64ce5acb97489d65b14ecc7a,64dba09e2bb7cee6daf3c706,,,,,,,ctch,resources/DB.BMP,resources/DG.BMP,Door3,-0.245078125,-0.014014771,1,0,0,0.764400001,optionLeft,70,9610,5,6,0,6,0,1,,,,,,,,,,,,,,,,,,,,,,,,,,,,,,,,,,,,,,,
,,,,,,,,2023-08-15_16h58.57.471,HF_wild_card,2022.2.4,MacIntel,60.0024001,62d132acb69af7bf169cdbb8,64ce5acb97489d65b14ecc7a,64dba09e2bb7cee6daf3c706,,,,,,,decisionTrl,resources/DP.BMP,resources/DG.BMP,Door2,0.245555664,0.00652771,1,0,0,1.4663,optionRight,20,9630,5,7,0,7,0,1,,,,,,,,,,,,,,,,,,,,,,,,,,,,,,,,,,,,,,,
,,,,,,,,2023-08-15_16h58.57.471,HF_wild_card,2022.2.4,MacIntel,60.0024001,62d132acb69af7bf169cdbb8,64ce5acb97489d65b14ecc7a,64dba09e2bb7cee6daf3c706,,,,,,,decisionTrl,resources/DP.BMP,resources/DG.BMP,Door2,0.254882813,0.022599762,1,0,0,1.0307,optionRight,40,9670,5,8,0,8,0,1,,,,,,,,,,,,,,,,,,,,,,,,,,,,,,,,,,,,,,,
,,,,,,,,2023-08-15_16h58.57.471,HF_wild_card,2022.2.4,MacIntel,60.0024001,62d132acb69af7bf169cdbb8,64ce5acb97489d65b14ecc7a,64dba09e2bb7cee6daf3c706,,,,,,,decisionTrl,resources/DB.BMP,resources/DY.BMP,Door3,-0.400568512,-0.022395874,1,0,0,2.2005,optionLeft,70,9740,5,9,0,9,0,1,,,,,,,,,,,,,,,,,,,,,,,,,,,,,,,,,,,,,,,
,,,,,,,,2023-08-15_16h58.57.471,HF_wild_card,2022.2.4,MacIntel,60.0024001,62d132acb69af7bf169cdbb8,64ce5acb97489d65b14ecc7a,64dba09e2bb7cee6daf3c706,,,,,,,decisionTrl,resources/DG.BMP,resources/DP.BMP,Door2,-0.261358459,0.018480835,1,0,0,0.9503,optionLeft,40,9780,5,10,0,10,0,1,,,,,,,,,,,,,,,,,,,,,,,,,,,,,,,,,,,,,,,
,,,,,,,,2023-08-15_16h58.57.471,HF_wild_card,2022.2.4,MacIntel,60.0024001,62d132acb69af7bf169cdbb8,64ce5acb97489d65b14ecc7a,64dba09e2bb7cee6daf3c706,,,,,,,decisionTrl,resources/DY.BMP,resources/DB.BMP,Door4,-0.221840271,0.034895813,1,0,0,0.9998,optionLeft,80,9860,5,11,0,11,0,1,,,,,,,,,,,,,,,,,,,,,,,,,,,,,,,,,,,,,,,
,,,,,,,,2023-08-15_16h58.57.471,HF_wild_card,2022.2.4,MacIntel,60.0024001,62d132acb69af7bf169cdbb8,64ce5acb97489d65b14ecc7a,64dba09e2bb7cee6daf3c706,,,,,,,sngl,resources/Empty.png,resources/DP.BMP,Door1,-0.001553772,-0.012934082,1,0,0,0.3979,optionRight,30,9890,5,12,0,12,0,1,,,,,,,,,,,,,,,,,,,,,,,,,,,,,,,,,,,,,,,
,,,,,,,,2023-08-15_16h58.57.471,HF_wild_card,2022.2.4,MacIntel,60.0024001,62d132acb69af7bf169cdbb8,64ce5acb97489d65b14ecc7a,64dba09e2bb7cee6daf3c706,,,,,,,ctch,resources/DP.BMP,resources/DY.BMP,Door4,0.180811768,-0.026289063,1,0,0,1.881200001,optionRight,80,9970,5,13,0,13,0,1,,,,,,,,,,,,,,,,,,,,,,,,,,,,,,,,,,,,,,,
,,,,,,,,2023-08-15_16h58.57.471,HF_wild_card,2022.2.4,MacIntel,60.0024001,62d132acb69af7bf169cdbb8,64ce5acb97489d65b14ecc7a,64dba09e2bb7cee6daf3c706,,,,,,,sngl,resources/Empty.png,resources/DB.BMP,Door3,0.211636414,0.062052887,1,0,0,0.630799999,optionRight,70,10040,5,14,0,14,0,1,,,,,,,,,,,,,,,,,,,,,,,,,,,,,,,,,,,,,,,
,,,,,,,,2023-08-15_16h58.57.471,HF_wild_card,2022.2.4,MacIntel,60.0024001,62d132acb69af7bf169cdbb8,64ce5acb97489d65b14ecc7a,64dba09e2bb7cee6daf3c706,,,,,,,decisionTrl,resources/DY.BMP,resources/DB.BMP,Door3,0.224201416,-0.044405396,1,0,0,2.8477,optionRight,70,10110,5,15,0,15,0,1,,,,,,,,,,,,,,,,,,,,,,,,,,,,,,,,,,,,,,,
,,,,,,,,2023-08-15_16h58.57.471,HF_wild_card,2022.2.4,MacIntel,60.0024001,62d132acb69af7bf169cdbb8,64ce5acb97489d65b14ecc7a,64dba09e2bb7cee6daf3c706,,,,,,,sngl,resources/DBN.BMP,resources/Empty.png,WildCard_Ex,-0.228932251,0.003337646,1,0,0,0.6472,optionLeft,45,10155,5,16,0,16,0,1,,,,,,,,,,,,,,,,,,,,,,,,,,,,,,,,,,,,,,,
,,,,,,,,2023-08-15_16h58.57.471,HF_wild_card,2022.2.4,MacIntel,60.0024001,62d132acb69af7bf169cdbb8,64ce5acb97489d65b14ecc7a,64dba09e2bb7cee6daf3c706,,,,,,,decisionTrl,resources/DBN.BMP,resources/DY.BMP,Door4,0.223289978,0.012730011,1,0,0,1.048400001,optionRight,80,10235,5,17,0,17,0,1,,,,,,,,,,,,,,,,,,,,,,,,,,,,,,,,,,,,,,,
,,,,,,,,2023-08-15_16h58.57.471,HF_wild_card,2022.2.4,MacIntel,60.0024001,62d132acb69af7bf169cdbb8,64ce5acb97489d65b14ecc7a,64dba09e2bb7cee6daf3c706,,,,,,,sngl,resources/DP.BMP,resources/Empty.png,Door1,-0.203975647,-0.007482666,1,0,0,0.5987,optionLeft,30,10265,5,18,0,18,0,1,,,,,,,,,,,,,,,,,,,,,,,,,,,,,,,,,,,,,,,
,,,,,,,,2023-08-15_16h58.57.471,HF_wild_card,2022.2.4,MacIntel,60.0024001,62d132acb69af7bf169cdbb8,64ce5acb97489d65b14ecc7a,64dba09e2bb7cee6daf3c706,,,,,,,sngl,resources/DG.BMP,resources/Empty.png,Door2,-0.222078979,0.032899292,1,0,0,0.599,optionLeft,40,10305,5,19,0,19,0,1,,,,,,,,,,,,,,,,,,,,,,,,,,,,,,,,,,,,,,,
,,,,,,,,2023-08-15_16h58.57.471,HF_wild_card,2022.2.4,MacIntel,60.0024001,62d132acb69af7bf169cdbb8,64ce5acb97489d65b14ecc7a,64dba09e2bb7cee6daf3c706,,,,,,,decisionTrl,resources/DBN.BMP,resources/DP.BMP,Door1,0.265512207,-0.03306427,1,0,0,1.0807,optionRight,30,10335,5,20,0,20,0,1,,,,,,,,,,,,,,,,,,,,,,,,,,,,,,,,,,,,,,,
,,,,,,,,2023-08-15_16h58.57.471,HF_wild_card,2022.2.4,MacIntel,60.0024001,62d132acb69af7bf169cdbb8,64ce5acb97489d65b14ecc7a,64dba09e2bb7cee6daf3c706,,,,,,,sngl,resources/Empty.png,resources/DBN.BMP,WildCard_Ex,0.235655396,-0.012573792,1,0,0,0.4318,optionRight,55,10390,5,21,0,21,0,1,,,,,,,,,,,,,,,,,,,,,,,,,,,,,,,,,,,,,,,
,,,,,,,,2023-08-15_16h58.57.471,HF_wild_card,2022.2.4,MacIntel,60.0024001,62d132acb69af7bf169cdbb8,64ce5acb97489d65b14ecc7a,64dba09e2bb7cee6daf3c706,,,,,,,sngl,resources/DY.BMP,resources/Empty.png,Door4,-0.163528625,-0.039652832,1,0,0,0.499400001,optionLeft,80,10470,5,22,0,22,0,1,,,,,,,,,,,,,,,,,,,,,,,,,,,,,,,,,,,,,,,
,,,,,,,,2023-08-15_16h58.57.471,HF_wild_card,2022.2.4,MacIntel,60.0024001,62d132acb69af7bf169cdbb8,64ce5acb97489d65b14ecc7a,64dba09e2bb7cee6daf3c706,,,,,,,sngl,resources/Empty.png,resources/DY.BMP,Door4,0.276783936,-0.034240479,1,0,0,0.4824,optionRight,60,10530,5,23,0,23,0,1,,,,,,,,,,,,,,,,,,,,,,,,,,,,,,,,,,,,,,,
,,,,,,,,2023-08-15_16h58.57.471,HF_wild_card,2022.2.4,MacIntel,60.0024001,62d132acb69af7bf169cdbb8,64ce5acb97489d65b14ecc7a,64dba09e2bb7cee6daf3c706,,,,,,,decisionTrl,resources/DB.BMP,resources/DY.BMP,Door4,0.219687622,-0.005082489,1,0,0,0.998599999,optionRight,60,10590,5,24,0,24,0,1,,,,,,,,,,,,,,,,,,,,,,,,,,,,,,,,,,,,,,,
,,,,,,,,2023-08-15_16h58.57.471,HF_wild_card,2022.2.4,MacIntel,60.0024001,62d132acb69af7bf169cdbb8,64ce5acb97489d65b14ecc7a,64dba09e2bb7cee6daf3c706,,,,,,,ctch,resources/DG.BMP,resources/DB.BMP,Door3,0.248359375,-0.02758252,1,0,0,0.9802,optionRight,70,10660,5,25,0,25,0,1,,,,,,,,,,,,,,,,,,,,,,,,,,,,,,,,,,,,,,,
,,,,,,,,2023-08-15_16h58.57.471,HF_wild_card,2022.2.4,MacIntel,60.0024001,62d132acb69af7bf169cdbb8,64ce5acb97489d65b14ecc7a,64dba09e2bb7cee6daf3c706,,,,,,,ctch,resources/DP.BMP,resources/DY.BMP,Door4,0.246223999,-0.026436646,1,0,0,1.0155,optionRight,60,10720,5,26,0,26,0,1,,,,,,,,,,,,,,,,,,,,,,,,,,,,,,,,,,,,,,,
,,,,,,,,2023-08-15_16h58.57.471,HF_wild_card,2022.2.4,MacIntel,60.0024001,62d132acb69af7bf169cdbb8,64ce5acb97489d65b14ecc7a,64dba09e2bb7cee6daf3c706,,,,,,,decisionTrl,resources/DB.BMP,resources/DY.BMP,Door3,-0.220052063,-0.000538208,1,0,0,0.8661,optionLeft,70,10790,5,27,0,27,0,1,,,,,,,,,,,,,,,,,,,,,,,,,,,,,,,,,,,,,,,
,,,,,,,,2023-08-15_16h58.57.471,HF_wild_card,2022.2.4,MacIntel,60.0024001,62d132acb69af7bf169cdbb8,64ce5acb97489d65b14ecc7a,64dba09e2bb7cee6daf3c706,,,,,,,decisionTrl,resources/DB.BMP,resources/DBN.BMP,Door3,-0.154509521,-0.012604187,1,0,0,0.6806,optionLeft,70,10860,5,28,0,28,0,1,,,,,,,,,,,,,,,,,,,,,,,,,,,,,,,,,,,,,,,
,,,,,,,,2023-08-15_16h58.57.471,HF_wild_card,2022.2.4,MacIntel,60.0024001,62d132acb69af7bf169cdbb8,64ce5acb97489d65b14ecc7a,64dba09e2bb7cee6daf3c706,,,,,,,decisionTrl,resources/DY.BMP,resources/DB.BMP,Door3,0.227452271,-0.010711823,1,0,0,0.697400001,optionRight,70,10930,5,29,0,29,0,1,,,,,,,,,,,,,,,,,,,,,,,,,,,,,,,,,,,,,,,
,,,,,,,,2023-08-15_16h58.57.471,HF_wild_card,2022.2.4,MacIntel,60.0024001,62d132acb69af7bf169cdbb8,64ce5acb97489d65b14ecc7a,64dba09e2bb7cee6daf3c706,,,,,,,decisionTrl,resources/DP.BMP,resources/DBN.BMP,WildCard_Ex,0.283476562,-0.001853363,1,0,0,0.914,optionRight,55,10985,5,30,0,30,0,1,,,,,,,,,,,,,,,,,,,,,,,,,,,,,,,,,,,,,,,
,,,,,,,,2023-08-15_16h58.57.471,HF_wild_card,2022.2.4,MacIntel,60.0024001,62d132acb69af7bf169cdbb8,64ce5acb97489d65b14ecc7a,64dba09e2bb7cee6daf3c706,,,,,,,ctch,resources/DY.BMP,resources/DP.BMP,Door4,-0.116388855,0.003550323,1,0,0,0.7959,optionLeft,60,11045,5,31,0,31,0,1,,,,,,,,,,,,,,,,,,,,,,,,,,,,,,,,,,,,,,,
,,,,,,,,2023-08-15_16h58.57.471,HF_wild_card,2022.2.4,MacIntel,60.0024001,62d132acb69af7bf169cdbb8,64ce5acb97489d65b14ecc7a,64dba09e2bb7cee6daf3c706,,,,,,,decisionTrl,resources/DG.BMP,resources/DBN.BMP,WildCard_Ex,0.319084229,0.024791656,1,0,0,1.5443,optionRight,55,11100,5,32,0,32,0,1,,,,,,,,,,,,,,,,,,,,,,,,,,,,,,,,,,,,,,,
,,,,,,,,2023-08-15_16h58.57.471,HF_wild_card,2022.2.4,MacIntel,60.0024001,62d132acb69af7bf169cdbb8,64ce5acb97489d65b14ecc7a,64dba09e2bb7cee6daf3c706,,,,,,,decisionTrl,resources/DP.BMP,resources/DG.BMP,Door2,0.350425415,-0.06993927,1,0,0,3.7456,optionRight,40,11140,5,33,0,33,0,1,,,,,,,,,,,,,,,,,,,,,,,,,,,,,,,,,,,,,,,
,,,,,,,,2023-08-15_16h58.57.471,HF_wild_card,2022.2.4,MacIntel,60.0024001,62d132acb69af7bf169cdbb8,64ce5acb97489d65b14ecc7a,64dba09e2bb7cee6daf3c706,,,,,,,sngl,resources/Empty.png,resources/DG.BMP,Door2,0.29671875,-0.015950562,1,0,0,0.613099999,optionRight,20,11160,5,34,0,34,0,1,,,,,,,,,,,,,,,,,,,,,,,,,,,,,,,,,,,,,,,
,,,,,,,,2023-08-15_16h58.57.471,HF_wild_card,2022.2.4,MacIntel,60.0024001,62d132acb69af7bf169cdbb8,64ce5acb97489d65b14ecc7a,64dba09e2bb7cee6daf3c706,,,,,,,sngl,resources/DBN.BMP,resources/Empty.png,WildCard_Ex,-0.204192688,-0.002083344,1,0,0,0.5845,optionLeft,55,11215,5,35,0,35,0,1,,,,,,,,,,,,,,,,,,,,,,,,,,,,,,,,,,,,,,,
,,,,,,,,2023-08-15_16h58.57.471,HF_wild_card,2022.2.4,MacIntel,60.0024001,62d132acb69af7bf169cdbb8,64ce5acb97489d65b14ecc7a,64dba09e2bb7cee6daf3c706,,,,,,,sngl,resources/DB.BMP,resources/Empty.png,Door3,-0.116827209,-0.011857666,1,0,0,0.581099999,optionLeft,70,11285,5,36,0,36,0,1,,,,,,,,,,,,,,,,,,,,,,,,,,,,,,,,,,,,,,,
,,,,,,,,2023-08-15_16h58.57.471,HF_wild_card,2022.2.4,MacIntel,60.0024001,62d132acb69af7bf169cdbb8,64ce5acb97489d65b14ecc7a,64dba09e2bb7cee6daf3c706,,,,,,,decisionTrl,resources/DY.BMP,resources/DB.BMP,Door3,0.249184082,-0.034487854,1,0,0,0.665,optionRight,70,11355,5,37,0,37,0,1,,,,,,,,,,,,,,,,,,,,,,,,,,,,,,,,,,,,,,,
,,,,,,,,2023-08-15_16h58.57.471,HF_wild_card,2022.2.4,MacIntel,60.0024001,62d132acb69af7bf169cdbb8,64ce5acb97489d65b14ecc7a,64dba09e2bb7cee6daf3c706,,,,,,,decisionTrl,resources/DY.BMP,resources/DBN.BMP,Door4,-0.219223083,-0.012469666,1,0,0,0.6315,optionLeft,80,11435,5,38,0,38,0,1,,,,,,,,,,,,,,,,,,,,,,,,,,,,,,,,,,,,,,,
,,,,,,,,2023-08-15_16h58.57.471,HF_wild_card,2022.2.4,MacIntel,60.0024001,62d132acb69af7bf169cdbb8,64ce5acb97489d65b14ecc7a,64dba09e2bb7cee6daf3c706,,,,,,,ctch,resources/DB.BMP,resources/DG.BMP,Door3,-0.207374084,-0.011801239,1,0,0,0.8985,optionLeft,70,11505,5,39,0,39,0,1,,,,,,,,,,,,,,,,,,,,,,,,,,,,,,,,,,,,,,,
,,,,,,,,2023-08-15_16h58.57.471,HF_wild_card,2022.2.4,MacIntel,60.0024001,62d132acb69af7bf169cdbb8,64ce5acb97489d65b14ecc7a,64dba09e2bb7cee6daf3c706,,,,,,,decisionTrl,resources/DB.BMP,resources/DY.BMP,Door3,-0.244214355,0.004696167,1,0,0,0.699799999,optionLeft,70,11575,5,40,0,40,0,1,,,,,,,,,,,,,,,,,,,,,,,,,,,,,,,,,,,,,,,
,,,,,,,,2023-08-15_16h58.57.471,HF_wild_card,2022.2.4,MacIntel,60.0024001,62d132acb69af7bf169cdbb8,64ce5acb97489d65b14ecc7a,64dba09e2bb7cee6daf3c706,,,,,,,ctch,resources/DG.BMP,resources/DB.BMP,Door3,0.278446289,-0.062322083,1,0,0,0.9294,optionRight,70,11645,5,41,0,41,0,1,,,,,,,,,,,,,,,,,,,,,,,,,,,,,,,,,,,,,,,
,,,,,,,,2023-08-15_16h58.57.471,HF_wild_card,2022.2.4,MacIntel,60.0024001,62d132acb69af7bf169cdbb8,64ce5acb97489d65b14ecc7a,64dba09e2bb7cee6daf3c706,,,,,,,sngl,resources/Empty.png,resources/DBN.BMP,WildCard_Ex,0.260039062,0.009097198,1,0,0,0.575,optionRight,45,11690,5,42,0,42,0,1,,,,,,,,,,,,,,,,,,,,,,,,,,,,,,,,,,,,,,,
,,,,,,,,2023-08-15_16h58.57.471,HF_wild_card,2022.2.4,MacIntel,60.0024001,62d132acb69af7bf169cdbb8,64ce5acb97489d65b14ecc7a,64dba09e2bb7cee6daf3c706,,,,,,,decisionTrl,resources/DBN.BMP,resources/DG.BMP,WildCard_Ex,-0.276966125,0.002126709,1,0,0,0.9662,optionLeft,45,11735,5,43,0,43,0,1,,,,,,,,,,,,,,,,,,,,,,,,,,,,,,,,,,,,,,,
,,,,,,,,2023-08-15_16h58.57.471,HF_wild_card,2022.2.4,MacIntel,60.0024001,62d132acb69af7bf169cdbb8,64ce5acb97489d65b14ecc7a,64dba09e2bb7cee6daf3c706,,,,,,,,,,,,,,,,,,,,,,,,,,4,0,4,0,1,,,,,,,,,,,,,,,,,,,,,,,,,,,,,,,,,,
,,,,,,,,2023-08-15_16h58.57.471,HF_wild_card,2022.2.4,MacIntel,60.0024001,62d132acb69af7bf169cdbb8,64ce5acb97489d65b14ecc7a,64dba09e2bb7cee6daf3c706,,,,,,,ctch,resources/DB.BMP,resources/DG.BMP,Door3,-0.27054248,-0.074305603,1,0,0,0.7968,optionLeft,70,11805,6,0,0,0,0,1,,,,,,,,,,,,,,,,,,,,,,,,,,,,,,,,,,,,,,,
,,,,,,,,2023-08-15_16h58.57.471,HF_wild_card,2022.2.4,MacIntel,60.0024001,62d132acb69af7bf169cdbb8,64ce5acb97489d65b14ecc7a,64dba09e2bb7cee6daf3c706,,,,,,,decisionTrl,resources/DB.BMP,resources/DBN.BMP,Door3,-0.189643982,0.02198349,1,0,0,0.5642,optionLeft,70,11875,6,1,0,1,0,1,,,,,,,,,,,,,,,,,,,,,,,,,,,,,,,,,,,,,,,
,,,,,,,,2023-08-15_16h58.57.471,HF_wild_card,2022.2.4,MacIntel,60.0024001,62d132acb69af7bf169cdbb8,64ce5acb97489d65b14ecc7a,64dba09e2bb7cee6daf3c706,,,,,,,sngl,resources/DB.BMP,resources/Empty.png,Door3,-0.169340271,0.050976501,1,0,0,0.5314,optionLeft,70,11945,6,2,0,2,0,1,,,,,,,,,,,,,,,,,,,,,,,,,,,,,,,,,,,,,,,
,,,,,,,,2023-08-15_16h58.57.471,HF_wild_card,2022.2.4,MacIntel,60.0024001,62d132acb69af7bf169cdbb8,64ce5acb97489d65b14ecc7a,64dba09e2bb7cee6daf3c706,,,,,,,decisionTrl,resources/DP.BMP,resources/DG.BMP,Door1,-0.300993896,0.027808136,1,0,0,1.1316,optionLeft,30,11975,6,3,0,3,0,1,,,,,,,,,,,,,,,,,,,,,,,,,,,,,,,,,,,,,,,
,,,,,,,,2023-08-15_16h58.57.471,HF_wild_card,2022.2.4,MacIntel,60.0024001,62d132acb69af7bf169cdbb8,64ce5acb97489d65b14ecc7a,64dba09e2bb7cee6daf3c706,,,,,,,sngl,resources/DG.BMP,resources/Empty.png,Door2,-0.32948349,0.002078979,1,0,0,0.6845,optionLeft,20,11995,6,4,0,4,0,1,,,,,,,,,,,,,,,,,,,,,,,,,,,,,,,,,,,,,,,
,,,,,,,,2023-08-15_16h58.57.471,HF_wild_card,2022.2.4,MacIntel,60.0024001,62d132acb69af7bf169cdbb8,64ce5acb97489d65b14ecc7a,64dba09e2bb7cee6daf3c706,,,,,,,decisionTrl,resources/DG.BMP,resources/DP.BMP,Door2,-0.296866302,0.025334137,1,0,0,0.6978,optionLeft,40,12035,6,5,0,5,0,1,,,,,,,,,,,,,,,,,,,,,,,,,,,,,,,,,,,,,,,
,,,,,,,,2023-08-15_16h58.57.471,HF_wild_card,2022.2.4,MacIntel,60.0024001,62d132acb69af7bf169cdbb8,64ce5acb97489d65b14ecc7a,64dba09e2bb7cee6daf3c706,,,,,,,decisionTrl,resources/DB.BMP,resources/DY.BMP,Door4,0.239448853,-0.031015625,1,0,0,0.645900001,optionRight,60,12095,6,6,0,6,0,1,,,,,,,,,,,,,,,,,,,,,,,,,,,,,,,,,,,,,,,
,,,,,,,,2023-08-15_16h58.57.471,HF_wild_card,2022.2.4,MacIntel,60.0024001,62d132acb69af7bf169cdbb8,64ce5acb97489d65b14ecc7a,64dba09e2bb7cee6daf3c706,,,,,,,sngl,resources/DBN.BMP,resources/Empty.png,WildCard_Ex,-0.159565857,-0.009661469,1,0,0,0.5145,optionLeft,55,12150,6,7,0,7,0,1,,,,,,,,,,,,,,,,,,,,,,,,,,,,,,,,,,,,,,,
,,,,,,,,2023-08-15_16h58.57.471,HF_wild_card,2022.2.4,MacIntel,60.0024001,62d132acb69af7bf169cdbb8,64ce5acb97489d65b14ecc7a,64dba09e2bb7cee6daf3c706,,,,,,,decisionTrl,resources/DBN.BMP,resources/DY.BMP,WildCard_Ex,-0.325542511,0.010047729,1,0,0,0.7329,optionLeft,45,12195,6,8,0,8,0,1,,,,,,,,,,,,,,,,,,,,,,,,,,,,,,,,,,,,,,,
,,,,,,,,2023-08-15_16h58.57.471,HF_wild_card,2022.2.4,MacIntel,60.0024001,62d132acb69af7bf169cdbb8,64ce5acb97489d65b14ecc7a,64dba09e2bb7cee6daf3c706,,,,,,,decisionTrl,resources/DBN.BMP,resources/DB.BMP,Door3,0.291875,-0.047712708,1,0,0,1.1795,optionRight,70,12265,6,9,0,9,0,1,,,,,,,,,,,,,,,,,,,,,,,,,,,,,,,,,,,,,,,
,,,,,,,,2023-08-15_16h58.57.471,HF_wild_card,2022.2.4,MacIntel,60.0024001,62d132acb69af7bf169cdbb8,64ce5acb97489d65b14ecc7a,64dba09e2bb7cee6daf3c706,,,,,,,ctch,resources/DP.BMP,resources/DY.BMP,Door4,0.242686646,-0.049709229,1,0,0,0.482700001,optionRight,60,12325,6,10,0,10,0,1,,,,,,,,,,,,,,,,,,,,,,,,,,,,,,,,,,,,,,,
,,,,,,,,2023-08-15_16h58.57.471,HF_wild_card,2022.2.4,MacIntel,60.0024001,62d132acb69af7bf169cdbb8,64ce5acb97489d65b14ecc7a,64dba09e2bb7cee6daf3c706,,,,,,,ctch,resources/DG.BMP,resources/DB.BMP,Door3,0.203190125,-0.041158875,1,0,0,0.629599999,optionRight,70,12395,6,11,0,11,0,1,,,,,,,,,,,,,,,,,,,,,,,,,,,,,,,,,,,,,,,
,,,,,,,,2023-08-15_16h58.57.471,HF_wild_card,2022.2.4,MacIntel,60.0024001,62d132acb69af7bf169cdbb8,64ce5acb97489d65b14ecc7a,64dba09e2bb7cee6daf3c706,,,,,,,decisionTrl,resources/DP.BMP,resources/DG.BMP,Door2,0.195477478,0.008567688,1,0,0,0.8803,optionRight,40,12435,6,12,0,12,0,1,,,,,,,,,,,,,,,,,,,,,,,,,,,,,,,,,,,,,,,
,,,,,,,,2023-08-15_16h58.57.471,HF_wild_card,2022.2.4,MacIntel,60.0024001,62d132acb69af7bf169cdbb8,64ce5acb97489d65b14ecc7a,64dba09e2bb7cee6daf3c706,,,,,,,decisionTrl,resources/DP.BMP,resources/DG.BMP,Door2,0.167291687,0.017955719,1,0,0,0.7314,optionRight,20,12455,6,13,0,13,0,1,,,,,,,,,,,,,,,,,,,,,,,,,,,,,,,,,,,,,,,
,,,,,,,,2023-08-15_16h58.57.471,HF_wild_card,2022.2.4,MacIntel,60.0024001,62d132acb69af7bf169cdbb8,64ce5acb97489d65b14ecc7a,64dba09e2bb7cee6daf3c706,,,,,,,sngl,resources/Empty.png,resources/DG.BMP,Door2,0.212400208,0.022348022,1,0,0,0.6165,optionRight,40,12495,6,14,0,14,0,1,,,,,,,,,,,,,,,,,,,,,,,,,,,,,,,,,,,,,,,
,,,,,,,,2023-08-15_16h58.57.471,HF_wild_card,2022.2.4,MacIntel,60.0024001,62d132acb69af7bf169cdbb8,64ce5acb97489d65b14ecc7a,64dba09e2bb7cee6daf3c706,,,,,,,sngl,resources/DP.BMP,resources/Empty.png,Door1,-0.19427948,-0.010460083,1,0,0,0.5648,optionLeft,30,12525,6,15,0,15,0,1,,,,,,,,,,,,,,,,,,,,,,,,,,,,,,,,,,,,,,,
,,,,,,,,2023-08-15_16h58.57.471,HF_wild_card,2022.2.4,MacIntel,60.0024001,62d132acb69af7bf169cdbb8,64ce5acb97489d65b14ecc7a,64dba09e2bb7cee6daf3c706,,,,,,,sngl,resources/Empty.png,resources/DB.BMP,Door3,0.345790161,0.047087646,1,0,0,0.5799,optionRight,70,12595,6,16,0,16,0,1,,,,,,,,,,,,,,,,,,,,,,,,,,,,,,,,,,,,,,,
,,,,,,,,2023-08-15_16h58.57.471,HF_wild_card,2022.2.4,MacIntel,60.0024001,62d132acb69af7bf169cdbb8,64ce5acb97489d65b14ecc7a,64dba09e2bb7cee6daf3c706,,,,,,,decisionTrl,resources/DP.BMP,resources/DBN.BMP,WildCard_Ex,0.243216187,-0.012925354,1,0,0,0.7483,optionRight,55,12650,6,17,0,17,0,1,,,,,,,,,,,,,,,,,,,,,,,,,,,,,,,,,,,,,,,
,,,,,,,,2023-08-15_16h58.57.471,HF_wild_card,2022.2.4,MacIntel,60.0024001,62d132acb69af7bf169cdbb8,64ce5acb97489d65b14ecc7a,64dba09e2bb7cee6daf3c706,,,,,,,sngl,resources/Empty.png,resources/DBN.BMP,WildCard_Ex,0.296015625,0.036406189,1,0,0,0.5972,optionRight,55,12705,6,18,0,18,0,1,,,,,,,,,,,,,,,,,,,,,,,,,,,,,,,,,,,,,,,
,,,,,,,,2023-08-15_16h58.57.471,HF_wild_card,2022.2.4,MacIntel,60.0024001,62d132acb69af7bf169cdbb8,64ce5acb97489d65b14ecc7a,64dba09e2bb7cee6daf3c706,,,,,,,decisionTrl,resources/DG.BMP,resources/DP.BMP,Door1,0.187152832,0.020928802,1,0,0,1.830200001,optionRight,30,12735,6,19,0,19,0,1,,,,,,,,,,,,,,,,,,,,,,,,,,,,,,,,,,,,,,,
,,,,,,,,2023-08-15_16h58.57.471,HF_wild_card,2022.2.4,MacIntel,60.0024001,62d132acb69af7bf169cdbb8,64ce5acb97489d65b14ecc7a,64dba09e2bb7cee6daf3c706,,,,,,,decisionTrl,resources/DG.BMP,resources/DP.BMP,Door1,0.179127625,-0.030403687,1,0,0,0.8858,optionRight,30,12765,6,20,0,20,0,1,,,,,,,,,,,,,,,,,,,,,,,,,,,,,,,,,,,,,,,
,,,,,,,,2023-08-15_16h58.57.471,HF_wild_card,2022.2.4,MacIntel,60.0024001,62d132acb69af7bf169cdbb8,64ce5acb97489d65b14ecc7a,64dba09e2bb7cee6daf3c706,,,,,,,sngl,resources/DY.BMP,resources/Empty.png,Door4,-0.124735229,0.018749939,1,0,0,0.5782,optionLeft,60,12825,6,21,0,21,0,1,,,,,,,,,,,,,,,,,,,,,,,,,,,,,,,,,,,,,,,
,,,,,,,,2023-08-15_16h58.57.471,HF_wild_card,2022.2.4,MacIntel,60.0024001,62d132acb69af7bf169cdbb8,64ce5acb97489d65b14ecc7a,64dba09e2bb7cee6daf3c706,,,,,,,decisionTrl,resources/DY.BMP,resources/DB.BMP,Door4,-0.235308105,-0.000863739,1,0,0,0.6303,optionLeft,80,12905,6,22,0,22,0,1,,,,,,,,,,,,,,,,,,,,,,,,,,,,,,,,,,,,,,,
,,,,,,,,2023-08-15_16h58.57.471,HF_wild_card,2022.2.4,MacIntel,60.0024001,62d132acb69af7bf169cdbb8,64ce5acb97489d65b14ecc7a,64dba09e2bb7cee6daf3c706,,,,,,,decisionTrl,resources/DB.BMP,resources/DY.BMP,Door4,0.233658936,0.015677063,1,0,0,0.6175,optionRight,80,12985,6,23,0,23,0,1,,,,,,,,,,,,,,,,,,,,,,,,,,,,,,,,,,,,,,,
,,,,,,,,2023-08-15_16h58.57.471,HF_wild_card,2022.2.4,MacIntel,60.0024001,62d132acb69af7bf169cdbb8,64ce5acb97489d65b14ecc7a,64dba09e2bb7cee6daf3c706,,,,,,,decisionTrl,resources/DY.BMP,resources/DB.BMP,Door4,-0.196423584,0.029487823,1,0,0,0.584200001,optionLeft,80,13065,6,24,0,24,0,1,,,,,,,,,,,,,,,,,,,,,,,,,,,,,,,,,,,,,,,
,,,,,,,,2023-08-15_16h58.57.471,HF_wild_card,2022.2.4,MacIntel,60.0024001,62d132acb69af7bf169cdbb8,64ce5acb97489d65b14ecc7a,64dba09e2bb7cee6daf3c706,,,,,,,decisionTrl,resources/DG.BMP,resources/DP.BMP,Door1,0.272808228,-0.063671875,1,0,0,2.0978,optionRight,30,13095,6,25,0,25,0,1,,,,,,,,,,,,,,,,,,,,,,,,,,,,,,,,,,,,,,,
,,,,,,,,2023-08-15_16h58.57.471,HF_wild_card,2022.2.4,MacIntel,60.0024001,62d132acb69af7bf169cdbb8,64ce5acb97489d65b14ecc7a,64dba09e2bb7cee6daf3c706,,,,,,,decisionTrl,resources/DBN.BMP,resources/DG.BMP,WildCard_Ex,-0.159913147,0.014396637,1,0,0,0.9303,optionLeft,55,13150,6,26,0,26,0,1,,,,,,,,,,,,,,,,,,,,,,,,,,,,,,,,,,,,,,,
,,,,,,,,2023-08-15_16h58.57.471,HF_wild_card,2022.2.4,MacIntel,60.0024001,62d132acb69af7bf169cdbb8,64ce5acb97489d65b14ecc7a,64dba09e2bb7cee6daf3c706,,,,,,,sngl,resources/Empty.png,resources/DY.BMP,Door4,0.393876099,-0.00534729,1,0,0,0.6688,optionRight,80,13230,6,27,0,27,0,1,,,,,,,,,,,,,,,,,,,,,,,,,,,,,,,,,,,,,,,
,,,,,,,,2023-08-15_16h58.57.471,HF_wild_card,2022.2.4,MacIntel,60.0024001,62d132acb69af7bf169cdbb8,64ce5acb97489d65b14ecc7a,64dba09e2bb7cee6daf3c706,,,,,,,sngl,resources/DBN.BMP,resources/Empty.png,WildCard_Ex,-0.167838501,0.004522552,1,0,0,0.5336,optionLeft,45,13275,6,28,0,28,0,1,,,,,,,,,,,,,,,,,,,,,,,,,,,,,,,,,,,,,,,
,,,,,,,,2023-08-15_16h58.57.471,HF_wild_card,2022.2.4,MacIntel,60.0024001,62d132acb69af7bf169cdbb8,64ce5acb97489d65b14ecc7a,64dba09e2bb7cee6daf3c706,,,,,,,decisionTrl,resources/DY.BMP,resources/DBN.BMP,Door4,-0.19703125,0.021523376,1,0,0,0.713400001,optionLeft,80,13355,6,29,0,29,0,1,,,,,,,,,,,,,,,,,,,,,,,,,,,,,,,,,,,,,,,
,,,,,,,,2023-08-15_16h58.57.471,HF_wild_card,2022.2.4,MacIntel,60.0024001,62d132acb69af7bf169cdbb8,64ce5acb97489d65b14ecc7a,64dba09e2bb7cee6daf3c706,,,,,,,decisionTrl,resources/DG.BMP,resources/DBN.BMP,WildCard_Ex,0.150329895,0.014509521,1,0,0,0.7334,optionRight,55,13410,6,30,0,30,0,1,,,,,,,,,,,,,,,,,,,,,,,,,,,,,,,,,,,,,,,
,,,,,,,,2023-08-15_16h58.57.471,HF_wild_card,2022.2.4,MacIntel,60.0024001,62d132acb69af7bf169cdbb8,64ce5acb97489d65b14ecc7a,64dba09e2bb7cee6daf3c706,,,,,,,decisionTrl,resources/DB.BMP,resources/DY.BMP,Door4,0.241636353,0.017799469,1,0,0,0.7489,optionRight,80,13490,6,31,0,31,0,1,,,,,,,,,,,,,,,,,,,,,,,,,,,,,,,,,,,,,,,
,,,,,,,,2023-08-15_16h58.57.471,HF_wild_card,2022.2.4,MacIntel,60.0024001,62d132acb69af7bf169cdbb8,64ce5acb97489d65b14ecc7a,64dba09e2bb7cee6daf3c706,,,,,,,ctch,resources/DP.BMP,resources/DY.BMP,Door4,0.279826416,0.011618896,1,0,0,0.565400001,optionRight,80,13570,6,32,0,32,0,1,,,,,,,,,,,,,,,,,,,,,,,,,,,,,,,,,,,,,,,
,,,,,,,,2023-08-15_16h58.57.471,HF_wild_card,2022.2.4,MacIntel,60.0024001,62d132acb69af7bf169cdbb8,64ce5acb97489d65b14ecc7a,64dba09e2bb7cee6daf3c706,,,,,,,ctch,resources/DY.BMP,resources/DP.BMP,Door4,-0.207426208,-0.015820312,1,0,0,0.531,optionLeft,60,13630,6,33,0,33,0,1,,,,,,,,,,,,,,,,,,,,,,,,,,,,,,,,,,,,,,,
,,,,,,,,2023-08-15_16h58.57.471,HF_wild_card,2022.2.4,MacIntel,60.0024001,62d132acb69af7bf169cdbb8,64ce5acb97489d65b14ecc7a,64dba09e2bb7cee6daf3c706,,,,,,,ctch,resources/DY.BMP,resources/DP.BMP,Door4,-0.210078125,-0.010954926,1,0,0,0.5818,optionLeft,60,13690,6,34,0,34,0,1,,,,,,,,,,,,,,,,,,,,,,,,,,,,,,,,,,,,,,,
,,,,,,,,2023-08-15_16h58.57.471,HF_wild_card,2022.2.4,MacIntel,60.0024001,62d132acb69af7bf169cdbb8,64ce5acb97489d65b14ecc7a,64dba09e2bb7cee6daf3c706,,,,,,,decisionTrl,resources/DY.BMP,resources/DB.BMP,Door4,-0.191636169,-0.003138031,1,0,0,0.551400001,optionLeft,80,13770,6,35,0,35,0,1,,,,,,,,,,,,,,,,,,,,,,,,,,,,,,,,,,,,,,,
,,,,,,,,2023-08-15_16h58.57.471,HF_wild_card,2022.2.4,MacIntel,60.0024001,62d132acb69af7bf169cdbb8,64ce5acb97489d65b14ecc7a,64dba09e2bb7cee6daf3c706,,,,,,,decisionTrl,resources/DP.BMP,resources/DG.BMP,Door1,-0.169348938,0.011770813,1,0,0,1.597400001,optionLeft,30,13800,6,36,0,36,0,1,,,,,,,,,,,,,,,,,,,,,,,,,,,,,,,,,,,,,,,
,,,,,,,,2023-08-15_16h58.57.471,HF_wild_card,2022.2.4,MacIntel,60.0024001,62d132acb69af7bf169cdbb8,64ce5acb97489d65b14ecc7a,64dba09e2bb7cee6daf3c706,,,,,,,decisionTrl,resources/DBN.BMP,resources/DP.BMP,WildCard_Ex,-0.18834198,0.012651886,1,0,0,0.8651,optionLeft,55,13855,6,37,0,37,0,1,,,,,,,,,,,,,,,,,,,,,,,,,,,,,,,,,,,,,,,
,,,,,,,,2023-08-15_16h58.57.471,HF_wild_card,2022.2.4,MacIntel,60.0024001,62d132acb69af7bf169cdbb8,64ce5acb97489d65b14ecc7a,64dba09e2bb7cee6daf3c706,,,,,,,ctch,resources/DB.BMP,resources/DG.BMP,Door3,-0.142673584,0.008728271,1,0,0,0.615,optionLeft,70,13925,6,38,0,38,0,1,,,,,,,,,,,,,,,,,,,,,,,,,,,,,,,,,,,,,,,
,,,,,,,,2023-08-15_16h58.57.471,HF_wild_card,2022.2.4,MacIntel,60.0024001,62d132acb69af7bf169cdbb8,64ce5acb97489d65b14ecc7a,64dba09e2bb7cee6daf3c706,,,,,,,ctch,resources/DG.BMP,resources/DB.BMP,Door3,0.21040802,0.016792511,1,0,0,0.633,optionRight,70,13995,6,39,0,39,0,1,,,,,,,,,,,,,,,,,,,,,,,,,,,,,,,,,,,,,,,
,,,,,,,,2023-08-15_16h58.57.471,HF_wild_card,2022.2.4,MacIntel,60.0024001,62d132acb69af7bf169cdbb8,64ce5acb97489d65b14ecc7a,64dba09e2bb7cee6daf3c706,,,,,,,sngl,resources/Empty.png,resources/DP.BMP,Door1,0.209375122,0.018255188,1,0,0,0.5635,optionRight,30,14025,6,40,0,40,0,1,,,,,,,,,,,,,,,,,,,,,,,,,,,,,,,,,,,,,,,
,,,,,,,,2023-08-15_16h58.57.471,HF_wild_card,2022.2.4,MacIntel,60.0024001,62d132acb69af7bf169cdbb8,64ce5acb97489d65b14ecc7a,64dba09e2bb7cee6daf3c706,,,,,,,decisionTrl,resources/DY.BMP,resources/DB.BMP,Door3,0.230616333,-0.031215332,1,0,0,0.631599999,optionRight,70,14095,6,41,0,41,0,1,,,,,,,,,,,,,,,,,,,,,,,,,,,,,,,,,,,,,,,
,,,,,,,,2023-08-15_16h58.57.471,HF_wild_card,2022.2.4,MacIntel,60.0024001,62d132acb69af7bf169cdbb8,64ce5acb97489d65b14ecc7a,64dba09e2bb7cee6daf3c706,,,,,,,decisionTrl,resources/DB.BMP,resources/DY.BMP,Door4,0.207899353,0.021228271,1,0,0,0.5352,optionRight,80,14175,6,42,0,42,0,1,,,,,,,,,,,,,,,,,,,,,,,,,,,,,,,,,,,,,,,
,,,,,,,,2023-08-15_16h58.57.471,HF_wild_card,2022.2.4,MacIntel,60.0024001,62d132acb69af7bf169cdbb8,64ce5acb97489d65b14ecc7a,64dba09e2bb7cee6daf3c706,,,,,,,sngl,resources/Empty.png,resources/DBN.BMP,WildCard_Ex,0.183255249,0.043763,1,0,0,0.584400001,optionRight,45,14220,6,43,0,43,0,1,,,,,,,,,,,,,,,,,,,,,,,,,,,,,,,,,,,,,,,
,,,,,,,,2023-08-15_16h58.57.471,HF_wild_card,2022.2.4,MacIntel,60.0024001,62d132acb69af7bf169cdbb8,64ce5acb97489d65b14ecc7a,64dba09e2bb7cee6daf3c706,,,,,,,,,,,,,,,,,,,,,,,,,,5,0,5,0,1,,,,,,,,,,,,,,,,,,,,,,,,,,,,,,,,,,
,,,,,,,,2023-08-15_16h58.57.471,HF_wild_card,2022.2.4,MacIntel,60.0024001,62d132acb69af7bf169cdbb8,64ce5acb97489d65b14ecc7a,64dba09e2bb7cee6daf3c706,,,,,,,decisionTrl,resources/DP.BMP,resources/DG.BMP,Door1,-0.13300769,-0.033138062,1,0,0,1.1782,optionLeft,30,14250,7,0,0,0,0,1,,,,,,,,,,,,,,,,,,,,,,,,,,,,,,,,,,,,,,,
,,,,,,,,2023-08-15_16h58.57.471,HF_wild_card,2022.2.4,MacIntel,60.0024001,62d132acb69af7bf169cdbb8,64ce5acb97489d65b14ecc7a,64dba09e2bb7cee6daf3c706,,,,,,,ctch,resources/DG.BMP,resources/DB.BMP,Door3,0.21558606,-0.016584229,1,0,0,0.8494,optionRight,70,14320,7,1,0,1,0,1,,,,,,,,,,,,,,,,,,,,,,,,,,,,,,,,,,,,,,,
,,,,,,,,2023-08-15_16h58.57.471,HF_wild_card,2022.2.4,MacIntel,60.0024001,62d132acb69af7bf169cdbb8,64ce5acb97489d65b14ecc7a,64dba09e2bb7cee6daf3c706,,,,,,,decisionTrl,resources/DP.BMP,resources/DG.BMP,Door1,-0.283559021,-0.024696228,1,0,0,1.0649,optionLeft,30,14350,7,2,0,2,0,1,,,,,,,,,,,,,,,,,,,,,,,,,,,,,,,,,,,,,,,
,,,,,,,,2023-08-15_16h58.57.471,HF_wild_card,2022.2.4,MacIntel,60.0024001,62d132acb69af7bf169cdbb8,64ce5acb97489d65b14ecc7a,64dba09e2bb7cee6daf3c706,,,,,,,decisionTrl,resources/DG.BMP,resources/DP.BMP,Door2,-0.276974792,-0.00128479,1,0,0,0.7675,optionLeft,20,14370,7,3,0,3,0,1,,,,,,,,,,,,,,,,,,,,,,,,,,,,,,,,,,,,,,,
,,,,,,,,2023-08-15_16h58.57.471,HF_wild_card,2022.2.4,MacIntel,60.0024001,62d132acb69af7bf169cdbb8,64ce5acb97489d65b14ecc7a,64dba09e2bb7cee6daf3c706,,,,,,,ctch,resources/DB.BMP,resources/DG.BMP,Door3,-0.233789063,-0.019800354,1,0,0,0.732,optionLeft,70,14440,7,4,0,4,0,1,,,,,,,,,,,,,,,,,,,,,,,,,,,,,,,,,,,,,,,
,,,,,,,,2023-08-15_16h58.57.471,HF_wild_card,2022.2.4,MacIntel,60.0024001,62d132acb69af7bf169cdbb8,64ce5acb97489d65b14ecc7a,64dba09e2bb7cee6daf3c706,,,,,,,decisionTrl,resources/DY.BMP,resources/DB.BMP,Door4,-0.225286438,0.01423175,1,0,0,1.1645,optionLeft,80,14520,7,5,0,5,0,1,,,,,,,,,,,,,,,,,,,,,,,,,,,,,,,,,,,,,,,
,,,,,,,,2023-08-15_16h58.57.471,HF_wild_card,2022.2.4,MacIntel,60.0024001,62d132acb69af7bf169cdbb8,64ce5acb97489d65b14ecc7a,64dba09e2bb7cee6daf3c706,,,,,,,ctch,resources/DY.BMP,resources/DP.BMP,Door4,-0.249088501,0.031853271,1,0,0,0.612599999,optionLeft,80,14600,7,6,0,6,0,1,,,,,,,,,,,,,,,,,,,,,,,,,,,,,,,,,,,,,,,
,,,,,,,,2023-08-15_16h58.57.471,HF_wild_card,2022.2.4,MacIntel,60.0024001,62d132acb69af7bf169cdbb8,64ce5acb97489d65b14ecc7a,64dba09e2bb7cee6daf3c706,,,,,,,decisionTrl,resources/DY.BMP,resources/DB.BMP,Door4,-0.189466125,0.022408844,1,0,0,0.5992,optionLeft,60,14660,7,7,0,7,0,1,,,,,,,,,,,,,,,,,,,,,,,,,,,,,,,,,,,,,,,
,,,,,,,,2023-08-15_16h58.57.471,HF_wild_card,2022.2.4,MacIntel,60.0024001,62d132acb69af7bf169cdbb8,64ce5acb97489d65b14ecc7a,64dba09e2bb7cee6daf3c706,,,,,,,ctch,resources/DY.BMP,resources/DP.BMP,Door4,-0.2840625,-0.036128479,1,0,0,0.5308,optionLeft,60,14720,7,8,0,8,0,1,,,,,,,,,,,,,,,,,,,,,,,,,,,,,,,,,,,,,,,
,,,,,,,,2023-08-15_16h58.57.471,HF_wild_card,2022.2.4,MacIntel,60.0024001,62d132acb69af7bf169cdbb8,64ce5acb97489d65b14ecc7a,64dba09e2bb7cee6daf3c706,,,,,,,decisionTrl,resources/DY.BMP,resources/DB.BMP,Door4,-0.227400146,-0.011076416,1,0,0,0.517299999,optionLeft,80,14800,7,9,0,9,0,1,,,,,,,,,,,,,,,,,,,,,,,,,,,,,,,,,,,,,,,
,,,,,,,,2023-08-15_16h58.57.471,HF_wild_card,2022.2.4,MacIntel,60.0024001,62d132acb69af7bf169cdbb8,64ce5acb97489d65b14ecc7a,64dba09e2bb7cee6daf3c706,,,,,,,ctch,resources/DB.BMP,resources/DG.BMP,Door3,-0.210247375,-0.003407135,1,0,0,0.6685,optionLeft,70,14870,7,10,0,10,0,1,,,,,,,,,,,,,,,,,,,,,,,,,,,,,,,,,,,,,,,
,,,,,,,,2023-08-15_16h58.57.471,HF_wild_card,2022.2.4,MacIntel,60.0024001,62d132acb69af7bf169cdbb8,64ce5acb97489d65b14ecc7a,64dba09e2bb7cee6daf3c706,,,,,,,decisionTrl,resources/DG.BMP,resources/DP.BMP,Door1,0.208263916,-0.003706665,1,0,0,1.1313,optionRight,30,14900,7,11,0,11,0,1,,,,,,,,,,,,,,,,,,,,,,,,,,,,,,,,,,,,,,,
,,,,,,,,2023-08-15_16h58.57.471,HF_wild_card,2022.2.4,MacIntel,60.0024001,62d132acb69af7bf169cdbb8,64ce5acb97489d65b14ecc7a,64dba09e2bb7cee6daf3c706,,,,,,,ctch,resources/DP.BMP,resources/DY.BMP,Door4,0.24784729,-0.024318604,1,0,0,0.5823,optionRight,60,14960,7,12,0,12,0,1,,,,,,,,,,,,,,,,,,,,,,,,,,,,,,,,,,,,,,,
,,,,,,,,2023-08-15_16h58.57.471,HF_wild_card,2022.2.4,MacIntel,60.0024001,62d132acb69af7bf169cdbb8,64ce5acb97489d65b14ecc7a,64dba09e2bb7cee6daf3c706,,,,,,,decisionTrl,resources/DB.BMP,resources/DY.BMP,Door3,-0.231202209,-0.019114624,1,0,0,1.4503,optionLeft,70,15030,7,13,0,13,0,1,,,,,,,,,,,,,,,,,,,,,,,,,,,,,,,,,,,,,,,
,,,,,,,,2023-08-15_16h58.57.471,HF_wild_card,2022.2.4,MacIntel,60.0024001,62d132acb69af7bf169cdbb8,64ce5acb97489d65b14ecc7a,64dba09e2bb7cee6daf3c706,,,,,,,decisionTrl,resources/DP.BMP,resources/DG.BMP,Door1,-0.216553772,0.000355835,1,0,0,1.3652,optionLeft,30,15060,7,14,0,14,0,1,,,,,,,,,,,,,,,,,,,,,,,,,,,,,,,,,,,,,,,
,,,,,,,,2023-08-15_16h58.57.471,HF_wild_card,2022.2.4,MacIntel,60.0024001,62d132acb69af7bf169cdbb8,64ce5acb97489d65b14ecc7a,64dba09e2bb7cee6daf3c706,,,,,,,decisionTrl,resources/DP.BMP,resources/DG.BMP,Door1,-0.163081482,-0.028789063,1,0,0,0.713,optionLeft,30,15090,7,15,0,15,0,1,,,,,,,,,,,,,,,,,,,,,,,,,,,,,,,,,,,,,,,
,,,,,,,,2023-08-15_16h58.57.471,HF_wild_card,2022.2.4,MacIntel,60.0024001,62d132acb69af7bf169cdbb8,64ce5acb97489d65b14ecc7a,64dba09e2bb7cee6daf3c706,,,,,,,decisionTrl,resources/DP.BMP,resources/DG.BMP,Door2,0.154279541,-0.008259613,1,0,0,0.618400001,optionRight,20,15110,7,16,0,16,0,1,,,,,,,,,,,,,,,,,,,,,,,,,,,,,,,,,,,,,,,
,,,,,,,,2023-08-15_16h58.57.471,HF_wild_card,2022.2.4,MacIntel,60.0024001,62d132acb69af7bf169cdbb8,64ce5acb97489d65b14ecc7a,64dba09e2bb7cee6daf3c706,,,,,,,decisionTrl,resources/DG.BMP,resources/DP.BMP,Door2,-0.235295105,0.020920074,1,0,0,0.799,optionLeft,40,15150,7,17,0,17,0,1,,,,,,,,,,,,,,,,,,,,,,,,,,,,,,,,,,,,,,,
,,,,,,,,2023-08-15_16h58.57.471,HF_wild_card,2022.2.4,MacIntel,60.0024001,62d132acb69af7bf169cdbb8,64ce5acb97489d65b14ecc7a,64dba09e2bb7cee6daf3c706,,,,,,,decisionTrl,resources/DB.BMP,resources/DY.BMP,Door4,0.347912354,-0.030612,1,0,0,0.817,optionRight,60,15210,7,18,0,18,0,1,,,,,,,,,,,,,,,,,,,,,,,,,,,,,,,,,,,,,,,
,,,,,,,,2023-08-15_16h58.57.471,HF_wild_card,2022.2.4,MacIntel,60.0024001,62d132acb69af7bf169cdbb8,64ce5acb97489d65b14ecc7a,64dba09e2bb7cee6daf3c706,,,,,,,ctch,resources/DB.BMP,resources/DG.BMP,Door3,-0.159140503,-0.005742249,1,0,0,0.5648,optionLeft,70,15280,7,19,0,19,0,1,,,,,,,,,,,,,,,,,,,,,,,,,,,,,,,,,,,,,,,
,,,,,,,,2023-08-15_16h58.57.471,HF_wild_card,2022.2.4,MacIntel,60.0024001,62d132acb69af7bf169cdbb8,64ce5acb97489d65b14ecc7a,64dba09e2bb7cee6daf3c706,,,,,,,decisionTrl,resources/DY.BMP,resources/DB.BMP,Door4,-0.162947021,0.022148376,1,0,0,0.632599999,optionLeft,80,15360,7,20,0,20,0,1,,,,,,,,,,,,,,,,,,,,,,,,,,,,,,,,,,,,,,,
,,,,,,,,2023-08-15_16h58.57.471,HF_wild_card,2022.2.4,MacIntel,60.0024001,62d132acb69af7bf169cdbb8,64ce5acb97489d65b14ecc7a,64dba09e2bb7cee6daf3c706,,,,,,,ctch,resources/DY.BMP,resources/DP.BMP,Door4,-0.213007813,0.003411438,1,0,0,0.6821,optionLeft,60,15420,7,21,0,21,0,1,,,,,,,,,,,,,,,,,,,,,,,,,,,,,,,,,,,,,,,
,,,,,,,,2023-08-15_16h58.57.471,HF_wild_card,2022.2.4,MacIntel,60.0024001,62d132acb69af7bf169cdbb8,64ce5acb97489d65b14ecc7a,64dba09e2bb7cee6daf3c706,,,,,,,decisionTrl,resources/DG.BMP,resources/DP.BMP,Door2,-0.194665771,-0.000381958,1,0,0,0.731,optionLeft,20,15440,7,22,0,22,0,1,,,,,,,,,,,,,,,,,,,,,,,,,,,,,,,,,,,,,,,
,,,,,,,,2023-08-15_16h58.57.471,HF_wild_card,2022.2.4,MacIntel,60.0024001,62d132acb69af7bf169cdbb8,64ce5acb97489d65b14ecc7a,64dba09e2bb7cee6daf3c706,,,,,,,ctch,resources/DG.BMP,resources/DB.BMP,Door3,0.164392395,-0.010121552,1,0,0,0.863,optionRight,70,15510,7,23,0,23,0,1,,,,,,,,,,,,,,,,,,,,,,,,,,,,,,,,,,,,,,,
,,,,,,,,2023-08-15_16h58.57.471,HF_wild_card,2022.2.4,MacIntel,60.0024001,62d132acb69af7bf169cdbb8,64ce5acb97489d65b14ecc7a,64dba09e2bb7cee6daf3c706,,,,,,,decisionTrl,resources/DY.BMP,resources/DB.BMP,Door4,-0.154848083,0.03573349,1,0,0,0.6826,optionLeft,60,15570,7,24,0,24,0,1,,,,,,,,,,,,,,,,,,,,,,,,,,,,,,,,,,,,,,,
,,,,,,,,2023-08-15_16h58.57.471,HF_wild_card,2022.2.4,MacIntel,60.0024001,62d132acb69af7bf169cdbb8,64ce5acb97489d65b14ecc7a,64dba09e2bb7cee6daf3c706,,,,,,,decisionTrl,resources/DB.BMP,resources/DY.BMP,Door3,-0.208706482,0.047777771,1,0,0,0.9478,optionLeft,70,15640,7,25,0,25,0,1,,,,,,,,,,,,,,,,,,,,,,,,,,,,,,,,,,,,,,,
,,,,,,,,2023-08-15_16h58.57.471,HF_wild_card,2022.2.4,MacIntel,60.0024001,62d132acb69af7bf169cdbb8,64ce5acb97489d65b14ecc7a,64dba09e2bb7cee6daf3c706,,,,,,,decisionTrl,resources/DG.BMP,resources/DP.BMP,Door2,-0.243997375,0.041241302,1,0,0,1.064,optionLeft,40,15680,7,26,0,26,0,1,,,,,,,,,,,,,,,,,,,,,,,,,,,,,,,,,,,,,,,
,,,,,,,,2023-08-15_16h58.57.471,HF_wild_card,2022.2.4,MacIntel,60.0024001,62d132acb69af7bf169cdbb8,64ce5acb97489d65b14ecc7a,64dba09e2bb7cee6daf3c706,,,,,,,decisionTrl,resources/DB.BMP,resources/DY.BMP,Door4,0.15525177,-0.011701416,1,0,0,0.698299999,optionRight,60,15740,7,27,0,27,0,1,,,,,,,,,,,,,,,,,,,,,,,,,,,,,,,,,,,,,,,
,,,,,,,,2023-08-15_16h58.57.471,HF_wild_card,2022.2.4,MacIntel,60.0024001,62d132acb69af7bf169cdbb8,64ce5acb97489d65b14ecc7a,64dba09e2bb7cee6daf3c706,,,,,,,ctch,resources/DP.BMP,resources/DY.BMP,Door4,0.298506958,-0.002903656,1,0,0,0.749900001,optionRight,80,15820,7,28,0,28,0,1,,,,,,,,,,,,,,,,,,,,,,,,,,,,,,,,,,,,,,,
,,,,,,,,2023-08-15_16h58.57.471,HF_wild_card,2022.2.4,MacIntel,60.0024001,62d132acb69af7bf169cdbb8,64ce5acb97489d65b14ecc7a,64dba09e2bb7cee6daf3c706,,,,,,,decisionTrl,resources/DG.BMP,resources/DP.BMP,Door2,-0.243615417,0.063506927,1,0,0,0.7692,optionLeft,40,15860,7,29,0,29,0,1,,,,,,,,,,,,,,,,,,,,,,,,,,,,,,,,,,,,,,,
,,,,,,,,2023-08-15_16h58.57.471,HF_wild_card,2022.2.4,MacIntel,60.0024001,62d132acb69af7bf169cdbb8,64ce5acb97489d65b14ecc7a,64dba09e2bb7cee6daf3c706,,,,,,,decisionTrl,resources/DB.BMP,resources/DY.BMP,Door4,0.228567749,-0.007517426,1,0,0,0.633400001,optionRight,60,15920,7,30,0,30,0,1,,,,,,,,,,,,,,,,,,,,,,,,,,,,,,,,,,,,,,,
,,,,,,,,2023-08-15_16h58.57.471,HF_wild_card,2022.2.4,MacIntel,60.0024001,62d132acb69af7bf169cdbb8,64ce5acb97489d65b14ecc7a,64dba09e2bb7cee6daf3c706,,,,,,,decisionTrl,resources/DY.BMP,resources/DB.BMP,Door4,-0.283745605,-0.008611176,1,0,0,0.833,optionLeft,60,15980,7,31,0,31,0,1,,,,,,,,,,,,,,,,,,,,,,,,,,,,,,,,,,,,,,,
,,,,,,,,2023-08-15_16h58.57.471,HF_wild_card,2022.2.4,MacIntel,60.0024001,62d132acb69af7bf169cdbb8,64ce5acb97489d65b14ecc7a,64dba09e2bb7cee6daf3c706,,,,,,,decisionTrl,resources/DP.BMP,resources/DG.BMP,Door2,0.230434082,-0.007304749,1,0,0,0.8813,optionRight,40,16020,7,32,0,32,0,1,,,,,,,,,,,,,,,,,,,,,,,,,,,,,,,,,,,,,,,
,,,,,,,,2023-08-15_16h58.57.471,HF_wild_card,2022.2.4,MacIntel,60.0024001,62d132acb69af7bf169cdbb8,64ce5acb97489d65b14ecc7a,64dba09e2bb7cee6daf3c706,,,,,,,ctch,resources/DG.BMP,resources/DB.BMP,Door3,0.316002686,-0.027838562,1,0,0,0.8175,optionRight,70,16090,7,33,0,33,0,1,,,,,,,,,,,,,,,,,,,,,,,,,,,,,,,,,,,,,,,
,,,,,,,,2023-08-15_16h58.57.471,HF_wild_card,2022.2.4,MacIntel,60.0024001,62d132acb69af7bf169cdbb8,64ce5acb97489d65b14ecc7a,64dba09e2bb7cee6daf3c706,,,,,,,ctch,resources/DP.BMP,resources/DY.BMP,Door4,0.216584229,-0.051870667,1,0,0,0.6502,optionRight,60,16150,7,34,0,34,0,1,,,,,,,,,,,,,,,,,,,,,,,,,,,,,,,,,,,,,,,
,,,,,,,,2023-08-15_16h58.57.471,HF_wild_card,2022.2.4,MacIntel,60.0024001,62d132acb69af7bf169cdbb8,64ce5acb97489d65b14ecc7a,64dba09e2bb7cee6daf3c706,,,,,,,decisionTrl,resources/DB.BMP,resources/DY.BMP,Door4,0.332083374,-0.022743103,1,0,0,0.7992,optionRight,80,16230,7,35,0,35,0,1,,,,,,,,,,,,,,,,,,,,,,,,,,,,,,,,,,,,,,,
,,,,,,,,2023-08-15_16h58.57.471,HF_wild_card,2022.2.4,MacIntel,60.0024001,62d132acb69af7bf169cdbb8,64ce5acb97489d65b14ecc7a,64dba09e2bb7cee6daf3c706,,,,,,,,,,,,,,,,,,,,,,,,,,6,0,6,0,1,,,,,,,,,,,,,,,,,,,,,,,,,,,,,,,,,,
,,,,,,,,2023-08-15_16h58.57.471,HF_wild_card,2022.2.4,MacIntel,60.0024001,62d132acb69af7bf169cdbb8,64ce5acb97489d65b14ecc7a,64dba09e2bb7cee6daf3c706,,,,,,,,,,,,,,,,,,,,,,,,,,,,,,,4,,,,,,,,,,,,,,,,,,,,,,,,,,,,,,,,,
,,,,,,,,2023-08-15_16h58.57.471,HF_wild_card,2022.2.4,MacIntel,60.0024001,62d132acb69af7bf169cdbb8,64ce5acb97489d65b14ecc7a,64dba09e2bb7cee6daf3c706,,,,,,,,,,,,,,,,,,,,,,,,,,,,,,,,,,,,,,,,,,,,,,,,,,,,,,,,,,,,,,,,
,,,,,,,,2023-08-15_16h58.57.471,HF_wild_card,2022.2.4,MacIntel,60.0024001,62d132acb69af7bf169cdbb8,64ce5acb97489d65b14ecc7a,64dba09e2bb7cee6daf3c706,,,,,,,,,,,,,,,,,,,,,,,,,,,,,,,,45,WC_nonExtreme,resources/DR.BMP,0,0,0,0,1,,,,,,,,,,,,,,,,,,,,,,,,,
,,,,,,,,2023-08-15_16h58.57.471,HF_wild_card,2022.2.4,MacIntel,60.0024001,62d132acb69af7bf169cdbb8,64ce5acb97489d65b14ecc7a,64dba09e2bb7cee6daf3c706,,,,,,,,,,,,,,,,,,,,,,,,,,,,,,,,20,Door2,resources/DG.BMP,1,0,1,0,1,,,,,,,,,,,,,,,,,,,,,,,,,
,,,,,,,,2023-08-15_16h58.57.471,HF_wild_card,2022.2.4,MacIntel,60.0024001,62d132acb69af7bf169cdbb8,64ce5acb97489d65b14ecc7a,64dba09e2bb7cee6daf3c706,,,,,,,,,,,,,,,,,,,,,,,,,,,,,,,,70,Door3,resources/DB.BMP,2,0,2,0,1,,,,,,,,,,,,,,,,,,,,,,,,,
