Condition,Low fixed image (Door1),Low risky image (Door2),High fixed image (Door3),High risky image (Door4),NonExtreme Wild Card 1,NonExtreme Wild Card 2,,date,expName,psychopyVersion,OS,frameRate,PROLIFIC_PID,STUDY_ID,SESSION_ID,mouse_2.x,mouse_2.y,mouse_2.leftButton,mouse_2.midButton,mouse_2.rightButton,mouse_2.clicked_name,Trial Type,Left Option Image,Right Option Image,Chosen Door,mouse.x,mouse.y,mouse.leftButton,mouse.midButton,mouse.rightButton,mouse.time,mouse.clicked_name,Feedback,Cumulative Reward,Block,trial.thisRepN,trial.thisTrialN,trial.thisN,trial.thisIndex,trial.ran,blocks.thisRepN,blocks.thisTrialN,blocks.thisN,blocks.thisIndex,blocks.ran,Money conversion,First Outcome Reported,Shown Door (First Outcome),Displayed Image (First Outcome),outcomes.thisRepN,outcomes.thisTrialN,outcomes.thisN,outcomes.thisIndex,outcomes.ran,judgments.thisRepN,judgments.thisTrialN,judgments.thisN,judgments.thisIndex,judgments.ran,freqMouse.x,freqMouse.y,freqMouse.leftButton,freqMouse.midButton,freqMouse.rightButton,freqMouse.clicked_name,FQJ for first outcome,FQJ for second outcome,Shown Door,Displayed Image,trials.thisRepN,trials.thisTrialN,trials.thisN,trials.thisIndex,trials.ran,judgBlock.thisRepN,judgBlock.thisTrialN,judgBlock.thisN,judgBlock.thisIndex,judgBlock.ran
2,resources/DY.BMP,resources/DB.BMP,resources/DP.BMP,resources/DR.BMP,resources/DBN.BMP,resources/DG.BMP,,2023-08-16_08h41.43.833,HF_wild_card,2022.2.4,Win32,3.333400001,594e2bb7a402220001d84067,64d2fd46c836a06233681665,64dc7cefa440b7cd48ade3b9,,,,,,,,,,,,,,,,,,,,,,,,,,,,,,,,,,,,,,,,,,,,,,,,,,,,,,,,,,,,,,,,
,,,,,,,,2023-08-16_08h41.43.833,HF_wild_card,2022.2.4,Win32,3.333400001,594e2bb7a402220001d84067,64d2fd46c836a06233681665,64dc7cefa440b7cd48ade3b9,0.005555556,-0.425555556,1,0,0,agree,,,,,,,,,,,,,,,,,,,,,,,,,,,,,,,,,,,,,,,,,,,,,,,,,,,,,,,,,,
,,,,,,,,2023-08-16_08h41.43.833,HF_wild_card,2022.2.4,Win32,3.333400001,594e2bb7a402220001d84067,64d2fd46c836a06233681665,64dc7cefa440b7cd48ade3b9,,,,,,,,,,,,,,,,,,,,,,,,,,,,,,,,,,,,,,,,,,,,,,,,,,,,,,,,,,,,,,,,
,,,,,,,,2023-08-16_08h41.43.833,HF_wild_card,2022.2.4,Win32,3.333400001,594e2bb7a402220001d84067,64d2fd46c836a06233681665,64dc7cefa440b7cd48ade3b9,,,,,,,sngl,resources/Empty.png,resources/DG.BMP,WildCard_NonEx,0.417777778,-0.043333333,1,0,0,4.619,optionRight,45,45,1,0,0,0,0,1,,,,,,,,,,,,,,,,,,,,,,,,,,,,,,,,,,,,,,,
,,,,,,,,2023-08-16_08h41.43.833,HF_wild_card,2022.2.4,Win32,3.333400001,594e2bb7a402220001d84067,64d2fd46c836a06233681665,64dc7cefa440b7cd48ade3b9,,,,,,,decisionTrl,resources/DG.BMP,resources/DB.BMP,Door2,0.394444444,-0.05,1,0,0,7.3297,optionRight,20,65,1,1,0,1,0,1,,,,,,,,,,,,,,,,,,,,,,,,,,,,,,,,,,,,,,,
,,,,,,,,2023-08-16_08h41.43.833,HF_wild_card,2022.2.4,Win32,3.333400001,594e2bb7a402220001d84067,64d2fd46c836a06233681665,64dc7cefa440b7cd48ade3b9,,,,,,,sngl,resources/DB.BMP,resources/Empty.png,Door2,-0.299600533,-0.071238349,1,0,0,9.8887,optionLeft,40,105,1,2,0,2,0,1,,,,,,,,,,,,,,,,,,,,,,,,,,,,,,,,,,,,,,,
,,,,,,,,2023-08-16_08h41.43.833,HF_wild_card,2022.2.4,Win32,3.333400001,594e2bb7a402220001d84067,64d2fd46c836a06233681665,64dc7cefa440b7cd48ade3b9,,,,,,,ctch,resources/DY.BMP,resources/DR.BMP,Door1,-0.398135819,-0.027296937,1,0,0,5.1581,optionLeft,30,135,1,3,0,3,0,1,,,,,,,,,,,,,,,,,,,,,,,,,,,,,,,,,,,,,,,
,,,,,,,,2023-08-16_08h41.43.833,HF_wild_card,2022.2.4,Win32,3.333400001,594e2bb7a402220001d84067,64d2fd46c836a06233681665,64dc7cefa440b7cd48ade3b9,,,,,,,decisionTrl,resources/DG.BMP,resources/DP.BMP,WildCard_NonEx,-0.41677763,-0.028628495,1,0,0,2.4443,optionLeft,55,190,1,4,0,4,0,1,,,,,,,,,,,,,,,,,,,,,,,,,,,,,,,,,,,,,,,
,,,,,,,,2023-08-16_08h41.43.833,HF_wild_card,2022.2.4,Win32,3.333400001,594e2bb7a402220001d84067,64d2fd46c836a06233681665,64dc7cefa440b7cd48ade3b9,,,,,,,decisionTrl,resources/DP.BMP,resources/DR.BMP,Door4,0.402130493,-0.05126498,1,0,0,4.5193,optionRight,80,270,1,5,0,5,0,1,,,,,,,,,,,,,,,,,,,,,,,,,,,,,,,,,,,,,,,
,,,,,,,,2023-08-16_08h41.43.833,HF_wild_card,2022.2.4,Win32,3.333400001,594e2bb7a402220001d84067,64d2fd46c836a06233681665,64dc7cefa440b7cd48ade3b9,,,,,,,decisionTrl,resources/DR.BMP,resources/DP.BMP,Door4,-0.396804261,-0.028628495,1,0,0,1.7843,optionLeft,80,350,1,6,0,6,0,1,,,,,,,,,,,,,,,,,,,,,,,,,,,,,,,,,,,,,,,
,,,,,,,,2023-08-16_08h41.43.833,HF_wild_card,2022.2.4,Win32,3.333400001,594e2bb7a402220001d84067,64d2fd46c836a06233681665,64dc7cefa440b7cd48ade3b9,,,,,,,sngl,resources/Empty.png,resources/DP.BMP,Door3,0.363515313,-0.033954727,1,0,0,6.6053,optionRight,70,420,1,7,0,7,0,1,,,,,,,,,,,,,,,,,,,,,,,,,,,,,,,,,,,,,,,
,,,,,,,,2023-08-16_08h41.43.833,HF_wild_card,2022.2.4,Win32,3.333400001,594e2bb7a402220001d84067,64d2fd46c836a06233681665,64dc7cefa440b7cd48ade3b9,,,,,,,decisionTrl,resources/DB.BMP,resources/DY.BMP,Door2,-0.395472703,-0.052596538,1,0,0,3.9251,optionLeft,20,440,1,8,0,8,0,1,,,,,,,,,,,,,,,,,,,,,,,,,,,,,,,,,,,,,,,
,,,,,,,,2023-08-16_08h41.43.833,HF_wild_card,2022.2.4,Win32,3.333400001,594e2bb7a402220001d84067,64d2fd46c836a06233681665,64dc7cefa440b7cd48ade3b9,,,,,,,sngl,resources/Empty.png,resources/DR.BMP,Door4,0.366178429,-0.029960053,1,0,0,1.6575,optionRight,60,500,1,9,0,9,0,1,,,,,,,,,,,,,,,,,,,,,,,,,,,,,,,,,,,,,,,
,,,,,,,,2023-08-16_08h41.43.833,HF_wild_card,2022.2.4,Win32,3.333400001,594e2bb7a402220001d84067,64d2fd46c836a06233681665,64dc7cefa440b7cd48ade3b9,,,,,,,decisionTrl,resources/DR.BMP,resources/DG.BMP,Door4,-0.412782956,-0.027296937,1,0,0,4.1286,optionLeft,80,580,1,10,0,10,0,1,,,,,,,,,,,,,,,,,,,,,,,,,,,,,,,,,,,,,,,
,,,,,,,,2023-08-16_08h41.43.833,HF_wild_card,2022.2.4,Win32,3.333400001,594e2bb7a402220001d84067,64d2fd46c836a06233681665,64dc7cefa440b7cd48ade3b9,,,,,,,ctch,resources/DP.BMP,resources/DB.BMP,Door3,-0.408788282,-0.049933422,1,0,0,4.4747,optionLeft,70,650,1,11,0,11,0,1,,,,,,,,,,,,,,,,,,,,,,,,,,,,,,,,,,,,,,,
,,,,,,,,2023-08-16_08h41.43.833,HF_wild_card,2022.2.4,Win32,3.333400001,594e2bb7a402220001d84067,64d2fd46c836a06233681665,64dc7cefa440b7cd48ade3b9,,,,,,,sngl,resources/Empty.png,resources/DY.BMP,Door1,0.395472703,-0.048601864,1,0,0,2.2097,optionRight,30,680,1,12,0,12,0,1,,,,,,,,,,,,,,,,,,,,,,,,,,,,,,,,,,,,,,,
,,,,,,,,2023-08-16_08h41.43.833,HF_wild_card,2022.2.4,Win32,3.333400001,594e2bb7a402220001d84067,64d2fd46c836a06233681665,64dc7cefa440b7cd48ade3b9,,,,,,,decisionTrl,resources/DY.BMP,resources/DG.BMP,WildCard_NonEx,0.407456724,-0.043275632,1,0,0,2.0545,optionRight,45,725,1,13,0,13,0,1,,,,,,,,,,,,,,,,,,,,,,,,,,,,,,,,,,,,,,,
,,,,,,,,2023-08-16_08h41.43.833,HF_wild_card,2022.2.4,Win32,3.333400001,594e2bb7a402220001d84067,64d2fd46c836a06233681665,64dc7cefa440b7cd48ade3b9,,,,,,,decisionTrl,resources/DP.BMP,resources/DG.BMP,Door3,-0.354194407,-0.035286285,1,0,0,1.7442,optionLeft,70,795,1,14,0,14,0,1,,,,,,,,,,,,,,,,,,,,,,,,,,,,,,,,,,,,,,,
,,,,,,,,2023-08-16_08h41.43.833,HF_wild_card,2022.2.4,Win32,3.333400001,594e2bb7a402220001d84067,64d2fd46c836a06233681665,64dc7cefa440b7cd48ade3b9,,,,,,,decisionTrl,resources/DY.BMP,resources/DB.BMP,Door1,-0.370173103,-0.064580559,1,0,0,2.7046,optionLeft,30,825,1,15,0,15,0,1,,,,,,,,,,,,,,,,,,,,,,,,,,,,,,,,,,,,,,,
,,,,,,,,2023-08-16_08h41.43.833,HF_wild_card,2022.2.4,Win32,3.333400001,594e2bb7a402220001d84067,64d2fd46c836a06233681665,64dc7cefa440b7cd48ade3b9,,,,,,,sngl,resources/DR.BMP,resources/Empty.png,Door4,-0.436750999,-0.032623169,1,0,0,1.871,optionLeft,80,905,1,16,0,16,0,1,,,,,,,,,,,,,,,,,,,,,,,,,,,,,,,,,,,,,,,
,,,,,,,,2023-08-16_08h41.43.833,HF_wild_card,2022.2.4,Win32,3.333400001,594e2bb7a402220001d84067,64d2fd46c836a06233681665,64dc7cefa440b7cd48ade3b9,,,,,,,ctch,resources/DR.BMP,resources/DY.BMP,Door4,-0.402130493,-0.024633822,1,0,0,1.7085,optionLeft,60,965,1,17,0,17,0,1,,,,,,,,,,,,,,,,,,,,,,,,,,,,,,,,,,,,,,,
,,,,,,,,2023-08-16_08h41.43.833,HF_wild_card,2022.2.4,Win32,3.333400001,594e2bb7a402220001d84067,64d2fd46c836a06233681665,64dc7cefa440b7cd48ade3b9,,,,,,,decisionTrl,resources/DG.BMP,resources/DR.BMP,Door4,0.375499334,-0.052596538,1,0,0,2.0393,optionRight,60,1025,1,18,0,18,0,1,,,,,,,,,,,,,,,,,,,,,,,,,,,,,,,,,,,,,,,
,,,,,,,,2023-08-16_08h41.43.833,HF_wild_card,2022.2.4,Win32,3.333400001,594e2bb7a402220001d84067,64d2fd46c836a06233681665,64dc7cefa440b7cd48ade3b9,,,,,,,decisionTrl,resources/DY.BMP,resources/DB.BMP,Door2,0.344873502,-0.031291611,1,0,0,2.5504,optionRight,20,1045,1,19,0,19,0,1,,,,,,,,,,,,,,,,,,,,,,,,,,,,,,,,,,,,,,,
,,,,,,,,2023-08-16_08h41.43.833,HF_wild_card,2022.2.4,Win32,3.333400001,594e2bb7a402220001d84067,64d2fd46c836a06233681665,64dc7cefa440b7cd48ade3b9,,,,,,,decisionTrl,resources/DB.BMP,resources/DY.BMP,Door1,0.327563249,-0.036617843,1,0,0,1.7508,optionRight,30,1075,1,20,0,20,0,1,,,,,,,,,,,,,,,,,,,,,,,,,,,,,,,,,,,,,,,
,,,,,,,,2023-08-16_08h41.43.833,HF_wild_card,2022.2.4,Win32,3.333400001,594e2bb7a402220001d84067,64d2fd46c836a06233681665,64dc7cefa440b7cd48ade3b9,,,,,,,ctch,resources/DB.BMP,resources/DP.BMP,Door3,0.414114514,-0.073901465,1,0,0,1.8974,optionRight,70,1145,1,21,0,21,0,1,,,,,,,,,,,,,,,,,,,,,,,,,,,,,,,,,,,,,,,
,,,,,,,,2023-08-16_08h41.43.833,HF_wild_card,2022.2.4,Win32,3.333400001,594e2bb7a402220001d84067,64d2fd46c836a06233681665,64dc7cefa440b7cd48ade3b9,,,,,,,ctch,resources/DB.BMP,resources/DP.BMP,Door3,0.376830892,-0.080559254,1,0,0,1.7119,optionRight,70,1215,1,22,0,22,0,1,,,,,,,,,,,,,,,,,,,,,,,,,,,,,,,,,,,,,,,
,,,,,,,,2023-08-16_08h41.43.833,HF_wild_card,2022.2.4,Win32,3.333400001,594e2bb7a402220001d84067,64d2fd46c836a06233681665,64dc7cefa440b7cd48ade3b9,,,,,,,decisionTrl,resources/DP.BMP,resources/DR.BMP,Door3,-0.411451398,-0.029960053,1,0,0,1.7187,optionLeft,70,1285,1,23,0,23,0,1,,,,,,,,,,,,,,,,,,,,,,,,,,,,,,,,,,,,,,,
,,,,,,,,2023-08-16_08h41.43.833,HF_wild_card,2022.2.4,Win32,3.333400001,594e2bb7a402220001d84067,64d2fd46c836a06233681665,64dc7cefa440b7cd48ade3b9,,,,,,,decisionTrl,resources/DB.BMP,resources/DY.BMP,Door1,0.360852197,-0.069906791,1,0,0,2.4067,optionRight,30,1315,1,24,0,24,0,1,,,,,,,,,,,,,,,,,,,,,,,,,,,,,,,,,,,,,,,
,,,,,,,,2023-08-16_08h41.43.833,HF_wild_card,2022.2.4,Win32,3.333400001,594e2bb7a402220001d84067,64d2fd46c836a06233681665,64dc7cefa440b7cd48ade3b9,,,,,,,sngl,resources/DP.BMP,resources/Empty.png,Door3,-0.376830892,-0.0126498,1,0,0,1.5916,optionLeft,70,1385,1,25,0,25,0,1,,,,,,,,,,,,,,,,,,,,,,,,,,,,,,,,,,,,,,,
,,,,,,,,2023-08-16_08h41.43.833,HF_wild_card,2022.2.4,Win32,3.333400001,594e2bb7a402220001d84067,64d2fd46c836a06233681665,64dc7cefa440b7cd48ade3b9,,,,,,,sngl,resources/Empty.png,resources/DB.BMP,Door2,0.344873502,-0.077896138,1,0,0,2.1849,optionRight,20,1405,1,26,0,26,0,1,,,,,,,,,,,,,,,,,,,,,,,,,,,,,,,,,,,,,,,
,,,,,,,,2023-08-16_08h41.43.833,HF_wild_card,2022.2.4,Win32,3.333400001,594e2bb7a402220001d84067,64d2fd46c836a06233681665,64dc7cefa440b7cd48ade3b9,,,,,,,ctch,resources/DP.BMP,resources/DB.BMP,Door3,-0.391478029,-0.021970706,1,0,0,1.7019,optionLeft,70,1475,1,27,0,27,0,1,,,,,,,,,,,,,,,,,,,,,,,,,,,,,,,,,,,,,,,
,,,,,,,,2023-08-16_08h41.43.833,HF_wild_card,2022.2.4,Win32,3.333400001,594e2bb7a402220001d84067,64d2fd46c836a06233681665,64dc7cefa440b7cd48ade3b9,,,,,,,decisionTrl,resources/DB.BMP,resources/DY.BMP,Door1,0.403462051,-0.079227696,1,0,0,2.0676,optionRight,30,1505,1,28,0,28,0,1,,,,,,,,,,,,,,,,,,,,,,,,,,,,,,,,,,,,,,,
,,,,,,,,2023-08-16_08h41.43.833,HF_wild_card,2022.2.4,Win32,3.333400001,594e2bb7a402220001d84067,64d2fd46c836a06233681665,64dc7cefa440b7cd48ade3b9,,,,,,,decisionTrl,resources/DR.BMP,resources/DP.BMP,Door3,0.295605859,-0.041944075,1,0,0,1.7689,optionRight,70,1575,1,29,0,29,0,1,,,,,,,,,,,,,,,,,,,,,,,,,,,,,,,,,,,,,,,
,,,,,,,,2023-08-16_08h41.43.833,HF_wild_card,2022.2.4,Win32,3.333400001,594e2bb7a402220001d84067,64d2fd46c836a06233681665,64dc7cefa440b7cd48ade3b9,,,,,,,decisionTrl,resources/DR.BMP,resources/DP.BMP,Door3,0.327563249,-0.040612517,1,0,0,1.7144,optionRight,70,1645,1,30,0,30,0,1,,,,,,,,,,,,,,,,,,,,,,,,,,,,,,,,,,,,,,,
,,,,,,,,2023-08-16_08h41.43.833,HF_wild_card,2022.2.4,Win32,3.333400001,594e2bb7a402220001d84067,64d2fd46c836a06233681665,64dc7cefa440b7cd48ade3b9,,,,,,,ctch,resources/DR.BMP,resources/DY.BMP,Door4,-0.336884154,-0.015312916,1,0,0,1.7341,optionLeft,80,1725,1,31,0,31,0,1,,,,,,,,,,,,,,,,,,,,,,,,,,,,,,,,,,,,,,,
,,,,,,,,2023-08-16_08h41.43.833,HF_wild_card,2022.2.4,Win32,3.333400001,594e2bb7a402220001d84067,64d2fd46c836a06233681665,64dc7cefa440b7cd48ade3b9,,,,,,,decisionTrl,resources/DG.BMP,resources/DY.BMP,WildCard_NonEx,-0.356857523,-0.01930759,1,0,0,2.3854,optionLeft,55,1780,1,32,0,32,0,1,,,,,,,,,,,,,,,,,,,,,,,,,,,,,,,,,,,,,,,
,,,,,,,,2023-08-16_08h41.43.833,HF_wild_card,2022.2.4,Win32,3.333400001,594e2bb7a402220001d84067,64d2fd46c836a06233681665,64dc7cefa440b7cd48ade3b9,,,,,,,ctch,resources/DY.BMP,resources/DR.BMP,Door4,0.406125166,-0.112516644,1,0,0,2.1126,optionRight,60,1840,1,33,0,33,0,1,,,,,,,,,,,,,,,,,,,,,,,,,,,,,,,,,,,,,,,
,,,,,,,,2023-08-16_08h41.43.833,HF_wild_card,2022.2.4,Win32,3.333400001,594e2bb7a402220001d84067,64d2fd46c836a06233681665,64dc7cefa440b7cd48ade3b9,,,,,,,sngl,resources/DG.BMP,resources/Empty.png,WildCard_NonEx,-0.440745672,-0.076564581,1,0,0,1.5851,optionLeft,45,1885,1,34,0,34,0,1,,,,,,,,,,,,,,,,,,,,,,,,,,,,,,,,,,,,,,,
,,,,,,,,2023-08-16_08h41.43.833,HF_wild_card,2022.2.4,Win32,3.333400001,594e2bb7a402220001d84067,64d2fd46c836a06233681665,64dc7cefa440b7cd48ade3b9,,,,,,,sngl,resources/DG.BMP,resources/Empty.png,WildCard_NonEx,-0.312916112,-0.011318242,1,0,0,1.2478,optionLeft,55,1940,1,35,0,35,0,1,,,,,,,,,,,,,,,,,,,,,,,,,,,,,,,,,,,,,,,
,,,,,,,,2023-08-16_08h41.43.833,HF_wild_card,2022.2.4,Win32,3.333400001,594e2bb7a402220001d84067,64d2fd46c836a06233681665,64dc7cefa440b7cd48ade3b9,,,,,,,decisionTrl,resources/DR.BMP,resources/DP.BMP,Door4,-0.404793609,0.007323569,1,0,0,2.3947,optionLeft,80,2020,1,36,0,36,0,1,,,,,,,,,,,,,,,,,,,,,,,,,,,,,,,,,,,,,,,
,,,,,,,,2023-08-16_08h41.43.833,HF_wild_card,2022.2.4,Win32,3.333400001,594e2bb7a402220001d84067,64d2fd46c836a06233681665,64dc7cefa440b7cd48ade3b9,,,,,,,decisionTrl,resources/DB.BMP,resources/DG.BMP,WildCard_NonEx,0.338215712,-0.05792277,1,0,0,2.0758,optionRight,55,2075,1,37,0,37,0,1,,,,,,,,,,,,,,,,,,,,,,,,,,,,,,,,,,,,,,,
,,,,,,,,2023-08-16_08h41.43.833,HF_wild_card,2022.2.4,Win32,3.333400001,594e2bb7a402220001d84067,64d2fd46c836a06233681665,64dc7cefa440b7cd48ade3b9,,,,,,,sngl,resources/DY.BMP,resources/Empty.png,Door1,-0.415446072,-0.028628495,1,0,0,1.2595,optionLeft,30,2105,1,38,0,38,0,1,,,,,,,,,,,,,,,,,,,,,,,,,,,,,,,,,,,,,,,
,,,,,,,,2023-08-16_08h41.43.833,HF_wild_card,2022.2.4,Win32,3.333400001,594e2bb7a402220001d84067,64d2fd46c836a06233681665,64dc7cefa440b7cd48ade3b9,,,,,,,decisionTrl,resources/DP.BMP,resources/DR.BMP,Door4,0.343541944,-0.048601864,1,0,0,3.1181,optionRight,60,2165,1,39,0,39,0,1,,,,,,,,,,,,,,,,,,,,,,,,,,,,,,,,,,,,,,,
,,,,,,,,2023-08-16_08h41.43.833,HF_wild_card,2022.2.4,Win32,3.333400001,594e2bb7a402220001d84067,64d2fd46c836a06233681665,64dc7cefa440b7cd48ade3b9,,,,,,,decisionTrl,resources/DP.BMP,resources/DR.BMP,Door3,-0.367509987,-0.053928096,1,0,0,1.7109,optionLeft,70,2235,1,40,0,40,0,1,,,,,,,,,,,,,,,,,,,,,,,,,,,,,,,,,,,,,,,
,,,,,,,,2023-08-16_08h41.43.833,HF_wild_card,2022.2.4,Win32,3.333400001,594e2bb7a402220001d84067,64d2fd46c836a06233681665,64dc7cefa440b7cd48ade3b9,,,,,,,sngl,resources/Empty.png,resources/DG.BMP,WildCard_NonEx,0.407456724,-0.073901465,1,0,0,1.2651,optionRight,55,2290,1,41,0,41,0,1,,,,,,,,,,,,,,,,,,,,,,,,,,,,,,,,,,,,,,,
,,,,,,,,2023-08-16_08h41.43.833,HF_wild_card,2022.2.4,Win32,3.333400001,594e2bb7a402220001d84067,64d2fd46c836a06233681665,64dc7cefa440b7cd48ade3b9,,,,,,,decisionTrl,resources/DY.BMP,resources/DB.BMP,Door1,-0.324900133,-0.055259654,1,0,0,2.7494,optionLeft,30,2320,1,42,0,42,0,1,,,,,,,,,,,,,,,,,,,,,,,,,,,,,,,,,,,,,,,
,,,,,,,,2023-08-16_08h41.43.833,HF_wild_card,2022.2.4,Win32,3.333400001,594e2bb7a402220001d84067,64d2fd46c836a06233681665,64dc7cefa440b7cd48ade3b9,,,,,,,decisionTrl,resources/DY.BMP,resources/DB.BMP,Door1,-0.319573901,-0.045938748,1,0,0,1.7454,optionLeft,30,2350,1,43,0,43,0,1,,,,,,,,,,,,,,,,,,,,,,,,,,,,,,,,,,,,,,,
,,,,,,,,2023-08-16_08h41.43.833,HF_wild_card,2022.2.4,Win32,3.333400001,594e2bb7a402220001d84067,64d2fd46c836a06233681665,64dc7cefa440b7cd48ade3b9,,,,,,,,,,,,,,,,,,,,,,,,,,0,0,0,0,1,,,,,,,,,,,,,,,,,,,,,,,,,,,,,,,,,,
,,,,,,,,2023-08-16_08h41.43.833,HF_wild_card,2022.2.4,Win32,3.333400001,594e2bb7a402220001d84067,64d2fd46c836a06233681665,64dc7cefa440b7cd48ade3b9,,,,,,,decisionTrl,resources/DG.BMP,resources/DP.BMP,Door3,0.390146471,-0.116511318,1,0,0,2.0594,optionRight,70,2420,2,0,0,0,0,1,,,,,,,,,,,,,,,,,,,,,,,,,,,,,,,,,,,,,,,
,,,,,,,,2023-08-16_08h41.43.833,HF_wild_card,2022.2.4,Win32,3.333400001,594e2bb7a402220001d84067,64d2fd46c836a06233681665,64dc7cefa440b7cd48ade3b9,,,,,,,sngl,resources/Empty.png,resources/DB.BMP,Door2,0.249001332,-0.087217044,1,0,0,1.2454,optionRight,40,2460,2,1,0,1,0,1,,,,,,,,,,,,,,,,,,,,,,,,,,,,,,,,,,,,,,,
,,,,,,,,2023-08-16_08h41.43.833,HF_wild_card,2022.2.4,Win32,3.333400001,594e2bb7a402220001d84067,64d2fd46c836a06233681665,64dc7cefa440b7cd48ade3b9,,,,,,,decisionTrl,resources/DG.BMP,resources/DR.BMP,Door4,0.299600533,-0.065912117,1,0,0,2.047,optionRight,80,2540,2,2,0,2,0,1,,,,,,,,,,,,,,,,,,,,,,,,,,,,,,,,,,,,,,,
,,,,,,,,2023-08-16_08h41.43.833,HF_wild_card,2022.2.4,Win32,3.333400001,594e2bb7a402220001d84067,64d2fd46c836a06233681665,64dc7cefa440b7cd48ade3b9,,,,,,,sngl,resources/DB.BMP,resources/Empty.png,Door2,-0.539280959,-0.005992011,1,0,0,1.2411,optionLeft,20,2560,2,3,0,3,0,1,,,,,,,,,,,,,,,,,,,,,,,,,,,,,,,,,,,,,,,
,,,,,,,,2023-08-16_08h41.43.833,HF_wild_card,2022.2.4,Win32,3.333400001,594e2bb7a402220001d84067,64d2fd46c836a06233681665,64dc7cefa440b7cd48ade3b9,,,,,,,ctch,resources/DR.BMP,resources/DY.BMP,Door4,-0.335552597,-0.085885486,1,0,0,1.709,optionLeft,60,2620,2,4,0,4,0,1,,,,,,,,,,,,,,,,,,,,,,,,,,,,,,,,,,,,,,,
,,,,,,,,2023-08-16_08h41.43.833,HF_wild_card,2022.2.4,Win32,3.333400001,594e2bb7a402220001d84067,64d2fd46c836a06233681665,64dc7cefa440b7cd48ade3b9,,,,,,,decisionTrl,resources/DB.BMP,resources/DG.BMP,Door2,-0.270306258,-0.075233023,1,0,0,1.3698,optionLeft,20,2640,2,5,0,5,0,1,,,,,,,,,,,,,,,,,,,,,,,,,,,,,,,,,,,,,,,
,,,,,,,,2023-08-16_08h41.43.833,HF_wild_card,2022.2.4,Win32,3.333400001,594e2bb7a402220001d84067,64d2fd46c836a06233681665,64dc7cefa440b7cd48ade3b9,,,,,,,decisionTrl,resources/DR.BMP,resources/DP.BMP,Door4,-0.242343542,-0.068575233,1,0,0,1.7125,optionLeft,60,2700,2,6,0,6,0,1,,,,,,,,,,,,,,,,,,,,,,,,,,,,,,,,,,,,,,,
,,,,,,,,2023-08-16_08h41.43.833,HF_wild_card,2022.2.4,Win32,3.333400001,594e2bb7a402220001d84067,64d2fd46c836a06233681665,64dc7cefa440b7cd48ade3b9,,,,,,,decisionTrl,resources/DY.BMP,resources/DG.BMP,WildCard_NonEx,0.344873502,-0.169773635,1,0,0,1.3617,optionRight,45,2745,2,7,0,7,0,1,,,,,,,,,,,,,,,,,,,,,,,,,,,,,,,,,,,,,,,
,,,,,,,,2023-08-16_08h41.43.833,HF_wild_card,2022.2.4,Win32,3.333400001,594e2bb7a402220001d84067,64d2fd46c836a06233681665,64dc7cefa440b7cd48ade3b9,,,,,,,sngl,resources/DG.BMP,resources/Empty.png,WildCard_NonEx,-0.34620506,-0.059254328,1,0,0,1.275,optionLeft,45,2790,2,8,0,8,0,1,,,,,,,,,,,,,,,,,,,,,,,,,,,,,,,,,,,,,,,
,,,,,,,,2023-08-16_08h41.43.833,HF_wild_card,2022.2.4,Win32,3.333400001,594e2bb7a402220001d84067,64d2fd46c836a06233681665,64dc7cefa440b7cd48ade3b9,,,,,,,ctch,resources/DR.BMP,resources/DY.BMP,Door4,-0.278295606,-0.087217044,1,0,0,1.7308,optionLeft,60,2850,2,9,0,9,0,1,,,,,,,,,,,,,,,,,,,,,,,,,,,,,,,,,,,,,,,
,,,,,,,,2023-08-16_08h41.43.833,HF_wild_card,2022.2.4,Win32,3.333400001,594e2bb7a402220001d84067,64d2fd46c836a06233681665,64dc7cefa440b7cd48ade3b9,,,,,,,sngl,resources/DP.BMP,resources/Empty.png,Door3,-0.380825566,-0.075233023,1,0,0,1.2582,optionLeft,70,2920,2,10,0,10,0,1,,,,,,,,,,,,,,,,,,,,,,,,,,,,,,,,,,,,,,,
,,,,,,,,2023-08-16_08h41.43.833,HF_wild_card,2022.2.4,Win32,3.333400001,594e2bb7a402220001d84067,64d2fd46c836a06233681665,64dc7cefa440b7cd48ade3b9,,,,,,,decisionTrl,resources/DY.BMP,resources/DB.BMP,Door1,-0.335552597,-0.143142477,1,0,0,1.7199,optionLeft,30,2950,2,11,0,11,0,1,,,,,,,,,,,,,,,,,,,,,,,,,,,,,,,,,,,,,,,
,,,,,,,,2023-08-16_08h41.43.833,HF_wild_card,2022.2.4,Win32,3.333400001,594e2bb7a402220001d84067,64d2fd46c836a06233681665,64dc7cefa440b7cd48ade3b9,,,,,,,ctch,resources/DP.BMP,resources/DB.BMP,Door3,-0.331557923,-0.085885486,1,0,0,1.7391,optionLeft,70,3020,2,12,0,12,0,1,,,,,,,,,,,,,,,,,,,,,,,,,,,,,,,,,,,,,,,
,,,,,,,,2023-08-16_08h41.43.833,HF_wild_card,2022.2.4,Win32,3.333400001,594e2bb7a402220001d84067,64d2fd46c836a06233681665,64dc7cefa440b7cd48ade3b9,,,,,,,decisionTrl,resources/DR.BMP,resources/DP.BMP,Door3,0.320905459,-0.064580559,1,0,0,1.3656,optionRight,70,3090,2,13,0,13,0,1,,,,,,,,,,,,,,,,,,,,,,,,,,,,,,,,,,,,,,,
,,,,,,,,2023-08-16_08h41.43.833,HF_wild_card,2022.2.4,Win32,3.333400001,594e2bb7a402220001d84067,64d2fd46c836a06233681665,64dc7cefa440b7cd48ade3b9,,,,,,,decisionTrl,resources/DB.BMP,resources/DY.BMP,Door1,0.294274301,-0.11517976,1,0,0,1.7377,optionRight,30,3120,2,14,0,14,0,1,,,,,,,,,,,,,,,,,,,,,,,,,,,,,,,,,,,,,,,
,,,,,,,,2023-08-16_08h41.43.833,HF_wild_card,2022.2.4,Win32,3.333400001,594e2bb7a402220001d84067,64d2fd46c836a06233681665,64dc7cefa440b7cd48ade3b9,,,,,,,decisionTrl,resources/DB.BMP,resources/DY.BMP,Door2,-0.295605859,-0.065912117,1,0,0,1.7163,optionLeft,40,3160,2,15,0,15,0,1,,,,,,,,,,,,,,,,,,,,,,,,,,,,,,,,,,,,,,,
,,,,,,,,2023-08-16_08h41.43.833,HF_wild_card,2022.2.4,Win32,3.333400001,594e2bb7a402220001d84067,64d2fd46c836a06233681665,64dc7cefa440b7cd48ade3b9,,,,,,,ctch,resources/DY.BMP,resources/DR.BMP,Door4,0.362183755,-0.105858855,1,0,0,1.7439,optionRight,60,3220,2,16,0,16,0,1,,,,,,,,,,,,,,,,,,,,,,,,,,,,,,,,,,,,,,,
,,,,,,,,2023-08-16_08h41.43.833,HF_wild_card,2022.2.4,Win32,3.333400001,594e2bb7a402220001d84067,64d2fd46c836a06233681665,64dc7cefa440b7cd48ade3b9,,,,,,,decisionTrl,resources/DB.BMP,resources/DY.BMP,Door1,0.274300932,-0.060585885,1,0,0,3.5066,optionRight,30,3250,2,17,0,17,0,1,,,,,,,,,,,,,,,,,,,,,,,,,,,,,,,,,,,,,,,
,,,,,,,,2023-08-16_08h41.43.833,HF_wild_card,2022.2.4,Win32,3.333400001,594e2bb7a402220001d84067,64d2fd46c836a06233681665,64dc7cefa440b7cd48ade3b9,,,,,,,ctch,resources/DY.BMP,resources/DR.BMP,Door4,0.278295606,-0.08988016,1,0,0,1.3939,optionRight,60,3310,2,18,0,18,0,1,,,,,,,,,,,,,,,,,,,,,,,,,,,,,,,,,,,,,,,
,,,,,,,,2023-08-16_08h41.43.833,HF_wild_card,2022.2.4,Win32,3.333400001,594e2bb7a402220001d84067,64d2fd46c836a06233681665,64dc7cefa440b7cd48ade3b9,,,,,,,sngl,resources/Empty.png,resources/DY.BMP,Door1,0.250332889,-0.043275632,1,0,0,1.3193,optionRight,30,3340,2,19,0,19,0,1,,,,,,,,,,,,,,,,,,,,,,,,,,,,,,,,,,,,,,,
,,,,,,,,2023-08-16_08h41.43.833,HF_wild_card,2022.2.4,Win32,3.333400001,594e2bb7a402220001d84067,64d2fd46c836a06233681665,64dc7cefa440b7cd48ade3b9,,,,,,,sngl,resources/DY.BMP,resources/Empty.png,Door1,-0.34620506,-0.028628495,1,0,0,1.5659,optionLeft,30,3370,2,20,0,20,0,1,,,,,,,,,,,,,,,,,,,,,,,,,,,,,,,,,,,,,,,
,,,,,,,,2023-08-16_08h41.43.833,HF_wild_card,2022.2.4,Win32,3.333400001,594e2bb7a402220001d84067,64d2fd46c836a06233681665,64dc7cefa440b7cd48ade3b9,,,,,,,sngl,resources/Empty.png,resources/DR.BMP,Door4,0.28229028,-0.040612517,1,0,0,1.2546,optionRight,80,3450,2,21,0,21,0,1,,,,,,,,,,,,,,,,,,,,,,,,,,,,,,,,,,,,,,,
,,,,,,,,2023-08-16_08h41.43.833,HF_wild_card,2022.2.4,Win32,3.333400001,594e2bb7a402220001d84067,64d2fd46c836a06233681665,64dc7cefa440b7cd48ade3b9,,,,,,,decisionTrl,resources/DY.BMP,resources/DB.BMP,Door2,0.311584554,-0.075233023,1,0,0,2.4147,optionRight,20,3470,2,22,0,22,0,1,,,,,,,,,,,,,,,,,,,,,,,,,,,,,,,,,,,,,,,
,,,,,,,,2023-08-16_08h41.43.833,HF_wild_card,2022.2.4,Win32,3.333400001,594e2bb7a402220001d84067,64d2fd46c836a06233681665,64dc7cefa440b7cd48ade3b9,,,,,,,decisionTrl,resources/DY.BMP,resources/DB.BMP,Door1,-0.239680426,-0.05792277,1,0,0,1.7158,optionLeft,30,3500,2,23,0,23,0,1,,,,,,,,,,,,,,,,,,,,,,,,,,,,,,,,,,,,,,,
,,,,,,,,2023-08-16_08h41.43.833,HF_wild_card,2022.2.4,Win32,3.333400001,594e2bb7a402220001d84067,64d2fd46c836a06233681665,64dc7cefa440b7cd48ade3b9,,,,,,,decisionTrl,resources/DR.BMP,resources/DP.BMP,Door4,-0.304926764,-0.071238349,1,0,0,2.0729,optionLeft,80,3580,2,24,0,24,0,1,,,,,,,,,,,,,,,,,,,,,,,,,,,,,,,,,,,,,,,
,,,,,,,,2023-08-16_08h41.43.833,HF_wild_card,2022.2.4,Win32,3.333400001,594e2bb7a402220001d84067,64d2fd46c836a06233681665,64dc7cefa440b7cd48ade3b9,,,,,,,decisionTrl,resources/DP.BMP,resources/DR.BMP,Door4,0.359520639,-0.136484687,1,0,0,1.359,optionRight,60,3640,2,25,0,25,0,1,,,,,,,,,,,,,,,,,,,,,,,,,,,,,,,,,,,,,,,
,,,,,,,,2023-08-16_08h41.43.833,HF_wild_card,2022.2.4,Win32,3.333400001,594e2bb7a402220001d84067,64d2fd46c836a06233681665,64dc7cefa440b7cd48ade3b9,,,,,,,decisionTrl,resources/DG.BMP,resources/DY.BMP,WildCard_NonEx,-0.354194407,-0.039280959,1,0,0,2.0497,optionLeft,45,3685,2,26,0,26,0,1,,,,,,,,,,,,,,,,,,,,,,,,,,,,,,,,,,,,,,,
,,,,,,,,2023-08-16_08h41.43.833,HF_wild_card,2022.2.4,Win32,3.333400001,594e2bb7a402220001d84067,64d2fd46c836a06233681665,64dc7cefa440b7cd48ade3b9,,,,,,,ctch,resources/DB.BMP,resources/DP.BMP,Door3,0.367509987,-0.12849534,1,0,0,1.7185,optionRight,70,3755,2,27,0,27,0,1,,,,,,,,,,,,,,,,,,,,,,,,,,,,,,,,,,,,,,,
,,,,,,,,2023-08-16_08h41.43.833,HF_wild_card,2022.2.4,Win32,3.333400001,594e2bb7a402220001d84067,64d2fd46c836a06233681665,64dc7cefa440b7cd48ade3b9,,,,,,,sngl,resources/Empty.png,resources/DP.BMP,Door3,0.304926764,-0.093874834,1,0,0,1.2504,optionRight,70,3825,2,28,0,28,0,1,,,,,,,,,,,,,,,,,,,,,,,,,,,,,,,,,,,,,,,
,,,,,,,,2023-08-16_08h41.43.833,HF_wild_card,2022.2.4,Win32,3.333400001,594e2bb7a402220001d84067,64d2fd46c836a06233681665,64dc7cefa440b7cd48ade3b9,,,,,,,decisionTrl,resources/DB.BMP,resources/DY.BMP,Door1,0.311584554,-0.060585885,1,0,0,3.0912,optionRight,30,3855,2,29,0,29,0,1,,,,,,,,,,,,,,,,,,,,,,,,,,,,,,,,,,,,,,,
,,,,,,,,2023-08-16_08h41.43.833,HF_wild_card,2022.2.4,Win32,3.333400001,594e2bb7a402220001d84067,64d2fd46c836a06233681665,64dc7cefa440b7cd48ade3b9,,,,,,,sngl,resources/Empty.png,resources/DG.BMP,WildCard_NonEx,0.406125166,-0.11517976,1,0,0,1.245,optionRight,55,3910,2,30,0,30,0,1,,,,,,,,,,,,,,,,,,,,,,,,,,,,,,,,,,,,,,,
,,,,,,,,2023-08-16_08h41.43.833,HF_wild_card,2022.2.4,Win32,3.333400001,594e2bb7a402220001d84067,64d2fd46c836a06233681665,64dc7cefa440b7cd48ade3b9,,,,,,,sngl,resources/DG.BMP,resources/Empty.png,WildCard_NonEx,-0.250332889,-0.029960053,1,0,0,1.5795,optionLeft,55,3965,2,31,0,31,0,1,,,,,,,,,,,,,,,,,,,,,,,,,,,,,,,,,,,,,,,
,,,,,,,,2023-08-16_08h41.43.833,HF_wild_card,2022.2.4,Win32,3.333400001,594e2bb7a402220001d84067,64d2fd46c836a06233681665,64dc7cefa440b7cd48ade3b9,,,,,,,decisionTrl,resources/DR.BMP,resources/DP.BMP,Door4,-0.363515313,-0.003328895,1,0,0,2.0524,optionLeft,80,4045,2,32,0,32,0,1,,,,,,,,,,,,,,,,,,,,,,,,,,,,,,,,,,,,,,,
,,,,,,,,2023-08-16_08h41.43.833,HF_wild_card,2022.2.4,Win32,3.333400001,594e2bb7a402220001d84067,64d2fd46c836a06233681665,64dc7cefa440b7cd48ade3b9,,,,,,,decisionTrl,resources/DP.BMP,resources/DR.BMP,Door3,-0.308921438,-0.088548602,1,0,0,2.0682,optionLeft,70,4115,2,33,0,33,0,1,,,,,,,,,,,,,,,,,,,,,,,,,,,,,,,,,,,,,,,
,,,,,,,,2023-08-16_08h41.43.833,HF_wild_card,2022.2.4,Win32,3.333400001,594e2bb7a402220001d84067,64d2fd46c836a06233681665,64dc7cefa440b7cd48ade3b9,,,,,,,decisionTrl,resources/DG.BMP,resources/DB.BMP,WildCard_NonEx,-0.258322237,-0.076564581,1,0,0,2.0772,optionLeft,55,4170,2,34,0,34,0,1,,,,,,,,,,,,,,,,,,,,,,,,,,,,,,,,,,,,,,,
,,,,,,,,2023-08-16_08h41.43.833,HF_wild_card,2022.2.4,Win32,3.333400001,594e2bb7a402220001d84067,64d2fd46c836a06233681665,64dc7cefa440b7cd48ade3b9,,,,,,,decisionTrl,resources/DP.BMP,resources/DR.BMP,Door3,-0.294274301,-0.084553928,1,0,0,2.0683,optionLeft,70,4240,2,35,0,35,0,1,,,,,,,,,,,,,,,,,,,,,,,,,,,,,,,,,,,,,,,
,,,,,,,,2023-08-16_08h41.43.833,HF_wild_card,2022.2.4,Win32,3.333400001,594e2bb7a402220001d84067,64d2fd46c836a06233681665,64dc7cefa440b7cd48ade3b9,,,,,,,decisionTrl,resources/DP.BMP,resources/DG.BMP,Door3,-0.284953395,-0.079227696,1,0,0,1.3769,optionLeft,70,4310,2,36,0,36,0,1,,,,,,,,,,,,,,,,,,,,,,,,,,,,,,,,,,,,,,,
,,,,,,,,2023-08-16_08h41.43.833,HF_wild_card,2022.2.4,Win32,3.333400001,594e2bb7a402220001d84067,64d2fd46c836a06233681665,64dc7cefa440b7cd48ade3b9,,,,,,,decisionTrl,resources/DR.BMP,resources/DG.BMP,Door4,-0.30758988,-0.041944075,1,0,0,1.3643,optionLeft,60,4370,2,37,0,37,0,1,,,,,,,,,,,,,,,,,,,,,,,,,,,,,,,,,,,,,,,
,,,,,,,,2023-08-16_08h41.43.833,HF_wild_card,2022.2.4,Win32,3.333400001,594e2bb7a402220001d84067,64d2fd46c836a06233681665,64dc7cefa440b7cd48ade3b9,,,,,,,ctch,resources/DP.BMP,resources/DB.BMP,Door3,-0.295605859,-0.08988016,1,0,0,1.7461,optionLeft,70,4440,2,38,0,38,0,1,,,,,,,,,,,,,,,,,,,,,,,,,,,,,,,,,,,,,,,
,,,,,,,,2023-08-16_08h41.43.833,HF_wild_card,2022.2.4,Win32,3.333400001,594e2bb7a402220001d84067,64d2fd46c836a06233681665,64dc7cefa440b7cd48ade3b9,,,,,,,sngl,resources/DR.BMP,resources/Empty.png,Door4,-0.33954727,-0.052596538,1,0,0,1.6121,optionLeft,60,4500,2,39,0,39,0,1,,,,,,,,,,,,,,,,,,,,,,,,,,,,,,,,,,,,,,,
,,,,,,,,2023-08-16_08h41.43.833,HF_wild_card,2022.2.4,Win32,3.333400001,594e2bb7a402220001d84067,64d2fd46c836a06233681665,64dc7cefa440b7cd48ade3b9,,,,,,,sngl,resources/Empty.png,resources/DG.BMP,WildCard_NonEx,0.294274301,-0.100532623,1,0,0,1.5567,optionRight,45,4545,2,40,0,40,0,1,,,,,,,,,,,,,,,,,,,,,,,,,,,,,,,,,,,,,,,
,,,,,,,,2023-08-16_08h41.43.833,HF_wild_card,2022.2.4,Win32,3.333400001,594e2bb7a402220001d84067,64d2fd46c836a06233681665,64dc7cefa440b7cd48ade3b9,,,,,,,decisionTrl,resources/DY.BMP,resources/DB.BMP,Door1,-0.287616511,-0.08988016,1,0,0,2.0636,optionLeft,30,4575,2,41,0,41,0,1,,,,,,,,,,,,,,,,,,,,,,,,,,,,,,,,,,,,,,,
,,,,,,,,2023-08-16_08h41.43.833,HF_wild_card,2022.2.4,Win32,3.333400001,594e2bb7a402220001d84067,64d2fd46c836a06233681665,64dc7cefa440b7cd48ade3b9,,,,,,,decisionTrl,resources/DP.BMP,resources/DR.BMP,Door4,0.2689747,-0.116511318,1,0,0,2.1089,optionRight,80,4655,2,42,0,42,0,1,,,,,,,,,,,,,,,,,,,,,,,,,,,,,,,,,,,,,,,
,,,,,,,,2023-08-16_08h41.43.833,HF_wild_card,2022.2.4,Win32,3.333400001,594e2bb7a402220001d84067,64d2fd46c836a06233681665,64dc7cefa440b7cd48ade3b9,,,,,,,ctch,resources/DB.BMP,resources/DP.BMP,Door3,0.271637816,-0.069906791,1,0,0,1.7034,optionRight,70,4725,2,43,0,43,0,1,,,,,,,,,,,,,,,,,,,,,,,,,,,,,,,,,,,,,,,
,,,,,,,,2023-08-16_08h41.43.833,HF_wild_card,2022.2.4,Win32,3.333400001,594e2bb7a402220001d84067,64d2fd46c836a06233681665,64dc7cefa440b7cd48ade3b9,,,,,,,,,,,,,,,,,,,,,,,,,,1,0,1,0,1,,,,,,,,,,,,,,,,,,,,,,,,,,,,,,,,,,
,,,,,,,,2023-08-16_08h41.43.833,HF_wild_card,2022.2.4,Win32,3.333400001,594e2bb7a402220001d84067,64d2fd46c836a06233681665,64dc7cefa440b7cd48ade3b9,,,,,,,sngl,resources/Empty.png,resources/DG.BMP,WildCard_NonEx,0.41677763,-0.129826897,1,0,0,1.8817,optionRight,55,4780,3,0,0,0,0,1,,,,,,,,,,,,,,,,,,,,,,,,,,,,,,,,,,,,,,,
,,,,,,,,2023-08-16_08h41.43.833,HF_wild_card,2022.2.4,Win32,3.333400001,594e2bb7a402220001d84067,64d2fd46c836a06233681665,64dc7cefa440b7cd48ade3b9,,,,,,,ctch,resources/DR.BMP,resources/DY.BMP,Door4,-0.569906791,-0.0126498,1,0,0,2.0592,optionLeft,80,4860,3,1,0,1,0,1,,,,,,,,,,,,,,,,,,,,,,,,,,,,,,,,,,,,,,,
,,,,,,,,2023-08-16_08h41.43.833,HF_wild_card,2022.2.4,Win32,3.333400001,594e2bb7a402220001d84067,64d2fd46c836a06233681665,64dc7cefa440b7cd48ade3b9,,,,,,,decisionTrl,resources/DP.BMP,resources/DR.BMP,Door3,-0.462050599,-0.017976032,1,0,0,1.3745,optionLeft,70,4930,3,2,0,2,0,1,,,,,,,,,,,,,,,,,,,,,,,,,,,,,,,,,,,,,,,
,,,,,,,,2023-08-16_08h41.43.833,HF_wild_card,2022.2.4,Win32,3.333400001,594e2bb7a402220001d84067,64d2fd46c836a06233681665,64dc7cefa440b7cd48ade3b9,,,,,,,decisionTrl,resources/DY.BMP,resources/DG.BMP,Door1,-0.348868176,-0.017976032,1,0,0,1.3764,optionLeft,30,4960,3,3,0,3,0,1,,,,,,,,,,,,,,,,,,,,,,,,,,,,,,,,,,,,,,,
,,,,,,,,2023-08-16_08h41.43.833,HF_wild_card,2022.2.4,Win32,3.333400001,594e2bb7a402220001d84067,64d2fd46c836a06233681665,64dc7cefa440b7cd48ade3b9,,,,,,,decisionTrl,resources/DR.BMP,resources/DP.BMP,Door3,0.316910786,-0.183089214,1,0,0,1.3636,optionRight,70,5030,3,4,0,4,0,1,,,,,,,,,,,,,,,,,,,,,,,,,,,,,,,,,,,,,,,
,,,,,,,,2023-08-16_08h41.43.833,HF_wild_card,2022.2.4,Win32,3.333400001,594e2bb7a402220001d84067,64d2fd46c836a06233681665,64dc7cefa440b7cd48ade3b9,,,,,,,ctch,resources/DY.BMP,resources/DR.BMP,Door1,-0.292942743,-0.029960053,1,0,0,1.1021,optionLeft,30,5060,3,5,0,5,0,1,,,,,,,,,,,,,,,,,,,,,,,,,,,,,,,,,,,,,,,
,,,,,,,,2023-08-16_08h41.43.833,HF_wild_card,2022.2.4,Win32,3.333400001,594e2bb7a402220001d84067,64d2fd46c836a06233681665,64dc7cefa440b7cd48ade3b9,,,,,,,decisionTrl,resources/DP.BMP,resources/DR.BMP,Door4,0.387483356,-0.060585885,1,0,0,1.3602,optionRight,80,5140,3,6,0,6,0,1,,,,,,,,,,,,,,,,,,,,,,,,,,,,,,,,,,,,,,,
,,,,,,,,2023-08-16_08h41.43.833,HF_wild_card,2022.2.4,Win32,3.333400001,594e2bb7a402220001d84067,64d2fd46c836a06233681665,64dc7cefa440b7cd48ade3b9,,,,,,,decisionTrl,resources/DP.BMP,resources/DR.BMP,Door4,0.334221039,-0.101864181,1,0,0,1.3696,optionRight,80,5220,3,7,0,7,0,1,,,,,,,,,,,,,,,,,,,,,,,,,,,,,,,,,,,,,,,
,,,,,,,,2023-08-16_08h41.43.833,HF_wild_card,2022.2.4,Win32,3.333400001,594e2bb7a402220001d84067,64d2fd46c836a06233681665,64dc7cefa440b7cd48ade3b9,,,,,,,sngl,resources/DB.BMP,resources/Empty.png,Door2,-0.295605859,-0.035286285,1,0,0,1.2466,optionLeft,40,5260,3,8,0,8,0,1,,,,,,,,,,,,,,,,,,,,,,,,,,,,,,,,,,,,,,,
,,,,,,,,2023-08-16_08h41.43.833,HF_wild_card,2022.2.4,Win32,3.333400001,594e2bb7a402220001d84067,64d2fd46c836a06233681665,64dc7cefa440b7cd48ade3b9,,,,,,,sngl,resources/Empty.png,resources/DB.BMP,Door2,0.306258322,-0.108521971,1,0,0,1.2499,optionRight,20,5280,3,9,0,9,0,1,,,,,,,,,,,,,,,,,,,,,,,,,,,,,,,,,,,,,,,
,,,,,,,,2023-08-16_08h41.43.833,HF_wild_card,2022.2.4,Win32,3.333400001,594e2bb7a402220001d84067,64d2fd46c836a06233681665,64dc7cefa440b7cd48ade3b9,,,,,,,decisionTrl,resources/DB.BMP,resources/DG.BMP,Door2,-0.423435419,-0.01930759,1,0,0,1.3563,optionLeft,40,5320,3,10,0,10,0,1,,,,,,,,,,,,,,,,,,,,,,,,,,,,,,,,,,,,,,,
,,,,,,,,2023-08-16_08h41.43.833,HF_wild_card,2022.2.4,Win32,3.333400001,594e2bb7a402220001d84067,64d2fd46c836a06233681665,64dc7cefa440b7cd48ade3b9,,,,,,,decisionTrl,resources/DY.BMP,resources/DB.BMP,Door2,0.290279627,-0.092543276,1,0,0,1.3573,optionRight,40,5360,3,11,0,11,0,1,,,,,,,,,,,,,,,,,,,,,,,,,,,,,,,,,,,,,,,
,,,,,,,,2023-08-16_08h41.43.833,HF_wild_card,2022.2.4,Win32,3.333400001,594e2bb7a402220001d84067,64d2fd46c836a06233681665,64dc7cefa440b7cd48ade3b9,,,,,,,decisionTrl,resources/DR.BMP,resources/DP.BMP,Door4,-0.326231691,-0.009986684,1,0,0,1.3776,optionLeft,60,5420,3,12,0,12,0,1,,,,,,,,,,,,,,,,,,,,,,,,,,,,,,,,,,,,,,,
,,,,,,,,2023-08-16_08h41.43.833,HF_wild_card,2022.2.4,Win32,3.333400001,594e2bb7a402220001d84067,64d2fd46c836a06233681665,64dc7cefa440b7cd48ade3b9,,,,,,,decisionTrl,resources/DR.BMP,resources/DG.BMP,Door4,-0.262316911,-0.053928096,1,0,0,1.0904,optionLeft,80,5500,3,13,0,13,0,1,,,,,,,,,,,,,,,,,,,,,,,,,,,,,,,,,,,,,,,
,,,,,,,,2023-08-16_08h41.43.833,HF_wild_card,2022.2.4,Win32,3.333400001,594e2bb7a402220001d84067,64d2fd46c836a06233681665,64dc7cefa440b7cd48ade3b9,,,,,,,ctch,resources/DB.BMP,resources/DP.BMP,Door3,0.366178429,-0.125832224,1,0,0,1.398,optionRight,70,5570,3,14,0,14,0,1,,,,,,,,,,,,,,,,,,,,,,,,,,,,,,,,,,,,,,,
,,,,,,,,2023-08-16_08h41.43.833,HF_wild_card,2022.2.4,Win32,3.333400001,594e2bb7a402220001d84067,64d2fd46c836a06233681665,64dc7cefa440b7cd48ade3b9,,,,,,,decisionTrl,resources/DY.BMP,resources/DB.BMP,Door2,0.262316911,-0.129826897,1,0,0,1.3734,optionRight,20,5590,3,15,0,15,0,1,,,,,,,,,,,,,,,,,,,,,,,,,,,,,,,,,,,,,,,
,,,,,,,,2023-08-16_08h41.43.833,HF_wild_card,2022.2.4,Win32,3.333400001,594e2bb7a402220001d84067,64d2fd46c836a06233681665,64dc7cefa440b7cd48ade3b9,,,,,,,sngl,resources/Empty.png,resources/DG.BMP,WildCard_NonEx,0.229027963,-0.08322237,1,0,0,1.2438,optionRight,45,5635,3,16,0,16,0,1,,,,,,,,,,,,,,,,,,,,,,,,,,,,,,,,,,,,,,,
,,,,,,,,2023-08-16_08h41.43.833,HF_wild_card,2022.2.4,Win32,3.333400001,594e2bb7a402220001d84067,64d2fd46c836a06233681665,64dc7cefa440b7cd48ade3b9,,,,,,,decisionTrl,resources/DP.BMP,resources/DG.BMP,Door3,-0.320905459,-0.020639148,1,0,0,1.3956,optionLeft,70,5705,3,17,0,17,0,1,,,,,,,,,,,,,,,,,,,,,,,,,,,,,,,,,,,,,,,
,,,,,,,,2023-08-16_08h41.43.833,HF_wild_card,2022.2.4,Win32,3.333400001,594e2bb7a402220001d84067,64d2fd46c836a06233681665,64dc7cefa440b7cd48ade3b9,,,,,,,decisionTrl,resources/DG.BMP,resources/DR.BMP,WildCard_NonEx,-0.316910786,-0.072569907,1,0,0,1.7264,optionLeft,55,5760,3,18,0,18,0,1,,,,,,,,,,,,,,,,,,,,,,,,,,,,,,,,,,,,,,,
,,,,,,,,2023-08-16_08h41.43.833,HF_wild_card,2022.2.4,Win32,3.333400001,594e2bb7a402220001d84067,64d2fd46c836a06233681665,64dc7cefa440b7cd48ade3b9,,,,,,,decisionTrl,resources/DY.BMP,resources/DB.BMP,Door1,-0.259653795,-0.111185087,1,0,0,1.7158,optionLeft,30,5790,3,19,0,19,0,1,,,,,,,,,,,,,,,,,,,,,,,,,,,,,,,,,,,,,,,
,,,,,,,,2023-08-16_08h41.43.833,HF_wild_card,2022.2.4,Win32,3.333400001,594e2bb7a402220001d84067,64d2fd46c836a06233681665,64dc7cefa440b7cd48ade3b9,,,,,,,decisionTrl,resources/DB.BMP,resources/DY.BMP,Door1,0.295605859,-0.145805593,1,0,0,1.3605,optionRight,30,5820,3,20,0,20,0,1,,,,,,,,,,,,,,,,,,,,,,,,,,,,,,,,,,,,,,,
,,,,,,,,2023-08-16_08h41.43.833,HF_wild_card,2022.2.4,Win32,3.333400001,594e2bb7a402220001d84067,64d2fd46c836a06233681665,64dc7cefa440b7cd48ade3b9,,,,,,,sngl,resources/Empty.png,resources/DR.BMP,Door4,0.246338216,-0.045938748,1,0,0,1.2455,optionRight,60,5880,3,21,0,21,0,1,,,,,,,,,,,,,,,,,,,,,,,,,,,,,,,,,,,,,,,
,,,,,,,,2023-08-16_08h41.43.833,HF_wild_card,2022.2.4,Win32,3.333400001,594e2bb7a402220001d84067,64d2fd46c836a06233681665,64dc7cefa440b7cd48ade3b9,,,,,,,sngl,resources/DG.BMP,resources/Empty.png,WildCard_NonEx,-0.266311585,-0.052596538,1,0,0,1.292,optionLeft,55,5935,3,22,0,22,0,1,,,,,,,,,,,,,,,,,,,,,,,,,,,,,,,,,,,,,,,
,,,,,,,,2023-08-16_08h41.43.833,HF_wild_card,2022.2.4,Win32,3.333400001,594e2bb7a402220001d84067,64d2fd46c836a06233681665,64dc7cefa440b7cd48ade3b9,,,,,,,sngl,resources/DG.BMP,resources/Empty.png,WildCard_NonEx,-0.2689747,-0.021970706,1,0,0,1.2438,optionLeft,45,5980,3,23,0,23,0,1,,,,,,,,,,,,,,,,,,,,,,,,,,,,,,,,,,,,,,,
,,,,,,,,2023-08-16_08h41.43.833,HF_wild_card,2022.2.4,Win32,3.333400001,594e2bb7a402220001d84067,64d2fd46c836a06233681665,64dc7cefa440b7cd48ade3b9,,,,,,,sngl,resources/DR.BMP,resources/Empty.png,Door4,-0.311584554,-0.052596538,1,0,0,0.9407,optionLeft,80,6060,3,24,0,24,0,1,,,,,,,,,,,,,,,,,,,,,,,,,,,,,,,,,,,,,,,
,,,,,,,,2023-08-16_08h41.43.833,HF_wild_card,2022.2.4,Win32,3.333400001,594e2bb7a402220001d84067,64d2fd46c836a06233681665,64dc7cefa440b7cd48ade3b9,,,,,,,decisionTrl,resources/DP.BMP,resources/DR.BMP,Door4,0.332889481,-0.111185087,1,0,0,1.03,optionRight,80,6140,3,25,0,25,0,1,,,,,,,,,,,,,,,,,,,,,,,,,,,,,,,,,,,,,,,
,,,,,,,,2023-08-16_08h41.43.833,HF_wild_card,2022.2.4,Win32,3.333400001,594e2bb7a402220001d84067,64d2fd46c836a06233681665,64dc7cefa440b7cd48ade3b9,,,,,,,ctch,resources/DB.BMP,resources/DP.BMP,Door2,-0.332889481,-0.036617843,1,0,0,1.0226,optionLeft,20,6160,3,26,0,26,0,1,,,,,,,,,,,,,,,,,,,,,,,,,,,,,,,,,,,,,,,
,,,,,,,,2023-08-16_08h41.43.833,HF_wild_card,2022.2.4,Win32,3.333400001,594e2bb7a402220001d84067,64d2fd46c836a06233681665,64dc7cefa440b7cd48ade3b9,,,,,,,decisionTrl,resources/DB.BMP,resources/DY.BMP,Door1,0.258322237,-0.096537949,1,0,0,1.3801,optionRight,30,6190,3,27,0,27,0,1,,,,,,,,,,,,,,,,,,,,,,,,,,,,,,,,,,,,,,,
,,,,,,,,2023-08-16_08h41.43.833,HF_wild_card,2022.2.4,Win32,3.333400001,594e2bb7a402220001d84067,64d2fd46c836a06233681665,64dc7cefa440b7cd48ade3b9,,,,,,,decisionTrl,resources/DG.BMP,resources/DP.BMP,Door3,0.44207723,-0.165778961,1,0,0,1.7219,optionRight,70,6260,3,28,0,28,0,1,,,,,,,,,,,,,,,,,,,,,,,,,,,,,,,,,,,,,,,
,,,,,,,,2023-08-16_08h41.43.833,HF_wild_card,2022.2.4,Win32,3.333400001,594e2bb7a402220001d84067,64d2fd46c836a06233681665,64dc7cefa440b7cd48ade3b9,,,,,,,sngl,resources/DP.BMP,resources/Empty.png,Door3,-0.331557923,-0.025965379,1,0,0,1.2559,optionLeft,70,6330,3,29,0,29,0,1,,,,,,,,,,,,,,,,,,,,,,,,,,,,,,,,,,,,,,,
,,,,,,,,2023-08-16_08h41.43.833,HF_wild_card,2022.2.4,Win32,3.333400001,594e2bb7a402220001d84067,64d2fd46c836a06233681665,64dc7cefa440b7cd48ade3b9,,,,,,,sngl,resources/Empty.png,resources/DP.BMP,Door3,0.308921438,-0.079227696,1,0,0,1.2508,optionRight,70,6400,3,30,0,30,0,1,,,,,,,,,,,,,,,,,,,,,,,,,,,,,,,,,,,,,,,
,,,,,,,,2023-08-16_08h41.43.833,HF_wild_card,2022.2.4,Win32,3.333400001,594e2bb7a402220001d84067,64d2fd46c836a06233681665,64dc7cefa440b7cd48ade3b9,,,,,,,decisionTrl,resources/DY.BMP,resources/DB.BMP,Door1,-0.28229028,-0.011318242,1,0,0,1.701,optionLeft,30,6430,3,31,0,31,0,1,,,,,,,,,,,,,,,,,,,,,,,,,,,,,,,,,,,,,,,
,,,,,,,,2023-08-16_08h41.43.833,HF_wild_card,2022.2.4,Win32,3.333400001,594e2bb7a402220001d84067,64d2fd46c836a06233681665,64dc7cefa440b7cd48ade3b9,,,,,,,decisionTrl,resources/DB.BMP,resources/DY.BMP,Door1,0.256990679,-0.084553928,1,0,0,1.7191,optionRight,30,6460,3,32,0,32,0,1,,,,,,,,,,,,,,,,,,,,,,,,,,,,,,,,,,,,,,,
,,,,,,,,2023-08-16_08h41.43.833,HF_wild_card,2022.2.4,Win32,3.333400001,594e2bb7a402220001d84067,64d2fd46c836a06233681665,64dc7cefa440b7cd48ade3b9,,,,,,,ctch,resources/DR.BMP,resources/DY.BMP,Door4,-0.299600533,-0.031291611,1,0,0,1.7301,optionLeft,80,6540,3,33,0,33,0,1,,,,,,,,,,,,,,,,,,,,,,,,,,,,,,,,,,,,,,,
,,,,,,,,2023-08-16_08h41.43.833,HF_wild_card,2022.2.4,Win32,3.333400001,594e2bb7a402220001d84067,64d2fd46c836a06233681665,64dc7cefa440b7cd48ade3b9,,,,,,,sngl,resources/DY.BMP,resources/Empty.png,Door1,-0.185086551,-0.031291611,1,0,0,1.2552,optionLeft,30,6570,3,34,0,34,0,1,,,,,,,,,,,,,,,,,,,,,,,,,,,,,,,,,,,,,,,
,,,,,,,,2023-08-16_08h41.43.833,HF_wild_card,2022.2.4,Win32,3.333400001,594e2bb7a402220001d84067,64d2fd46c836a06233681665,64dc7cefa440b7cd48ade3b9,,,,,,,decisionTrl,resources/DB.BMP,resources/DY.BMP,Door2,-0.210386152,-0.055259654,1,0,0,2.4114,optionLeft,20,6590,3,35,0,35,0,1,,,,,,,,,,,,,,,,,,,,,,,,,,,,,,,,,,,,,,,
,,,,,,,,2023-08-16_08h41.43.833,HF_wild_card,2022.2.4,Win32,3.333400001,594e2bb7a402220001d84067,64d2fd46c836a06233681665,64dc7cefa440b7cd48ade3b9,,,,,,,ctch,resources/DY.BMP,resources/DR.BMP,Door4,0.272969374,-0.099201065,1,0,0,2.0641,optionRight,80,6670,3,36,0,36,0,1,,,,,,,,,,,,,,,,,,,,,,,,,,,,,,,,,,,,,,,
,,,,,,,,2023-08-16_08h41.43.833,HF_wild_card,2022.2.4,Win32,3.333400001,594e2bb7a402220001d84067,64d2fd46c836a06233681665,64dc7cefa440b7cd48ade3b9,,,,,,,decisionTrl,resources/DR.BMP,resources/DP.BMP,Door4,-0.315579228,-0.015312916,1,0,0,1.3604,optionLeft,80,6750,3,37,0,37,0,1,,,,,,,,,,,,,,,,,,,,,,,,,,,,,,,,,,,,,,,
,,,,,,,,2023-08-16_08h41.43.833,HF_wild_card,2022.2.4,Win32,3.333400001,594e2bb7a402220001d84067,64d2fd46c836a06233681665,64dc7cefa440b7cd48ade3b9,,,,,,,ctch,resources/DP.BMP,resources/DB.BMP,Door3,-0.280958722,-0.029960053,1,0,0,1.3714,optionLeft,70,6820,3,38,0,38,0,1,,,,,,,,,,,,,,,,,,,,,,,,,,,,,,,,,,,,,,,
,,,,,,,,2023-08-16_08h41.43.833,HF_wild_card,2022.2.4,Win32,3.333400001,594e2bb7a402220001d84067,64d2fd46c836a06233681665,64dc7cefa440b7cd48ade3b9,,,,,,,sngl,resources/Empty.png,resources/DY.BMP,Door1,0.266311585,-0.081890812,1,0,0,1.2603,optionRight,30,6850,3,39,0,39,0,1,,,,,,,,,,,,,,,,,,,,,,,,,,,,,,,,,,,,,,,
,,,,,,,,2023-08-16_08h41.43.833,HF_wild_card,2022.2.4,Win32,3.333400001,594e2bb7a402220001d84067,64d2fd46c836a06233681665,64dc7cefa440b7cd48ade3b9,,,,,,,decisionTrl,resources/DG.BMP,resources/DY.BMP,WildCard_NonEx,-0.311584554,-0.021970706,1,0,0,1.7516,optionLeft,45,6895,3,40,0,40,0,1,,,,,,,,,,,,,,,,,,,,,,,,,,,,,,,,,,,,,,,
,,,,,,,,2023-08-16_08h41.43.833,HF_wild_card,2022.2.4,Win32,3.333400001,594e2bb7a402220001d84067,64d2fd46c836a06233681665,64dc7cefa440b7cd48ade3b9,,,,,,,ctch,resources/DP.BMP,resources/DB.BMP,Door3,-0.5126498,-0.047270306,1,0,0,1.3696,optionLeft,70,6965,3,41,0,41,0,1,,,,,,,,,,,,,,,,,,,,,,,,,,,,,,,,,,,,,,,
,,,,,,,,2023-08-16_08h41.43.833,HF_wild_card,2022.2.4,Win32,3.333400001,594e2bb7a402220001d84067,64d2fd46c836a06233681665,64dc7cefa440b7cd48ade3b9,,,,,,,decisionTrl,resources/DR.BMP,resources/DP.BMP,Door3,0.306258322,-0.139147803,1,0,0,1.7113,optionRight,70,7035,3,42,0,42,0,1,,,,,,,,,,,,,,,,,,,,,,,,,,,,,,,,,,,,,,,
,,,,,,,,2023-08-16_08h41.43.833,HF_wild_card,2022.2.4,Win32,3.333400001,594e2bb7a402220001d84067,64d2fd46c836a06233681665,64dc7cefa440b7cd48ade3b9,,,,,,,decisionTrl,resources/DG.BMP,resources/DB.BMP,WildCard_NonEx,-0.336884154,-0.088548602,1,0,0,2.0886,optionLeft,45,7080,3,43,0,43,0,1,,,,,,,,,,,,,,,,,,,,,,,,,,,,,,,,,,,,,,,
,,,,,,,,2023-08-16_08h41.43.833,HF_wild_card,2022.2.4,Win32,3.333400001,594e2bb7a402220001d84067,64d2fd46c836a06233681665,64dc7cefa440b7cd48ade3b9,,,,,,,,,,,,,,,,,,,,,,,,,,2,0,2,0,1,,,,,,,,,,,,,,,,,,,,,,,,,,,,,,,,,,
,,,,,,,,2023-08-16_08h41.43.833,HF_wild_card,2022.2.4,Win32,3.333400001,594e2bb7a402220001d84067,64d2fd46c836a06233681665,64dc7cefa440b7cd48ade3b9,,,,,,,decisionTrl,resources/DY.BMP,resources/DBN.BMP,WildCard_Ex,0.350199734,-0.084553928,1,0,0,2.0486,optionRight,45,7125,4,0,0,0,0,1,,,,,,,,,,,,,,,,,,,,,,,,,,,,,,,,,,,,,,,
,,,,,,,,2023-08-16_08h41.43.833,HF_wild_card,2022.2.4,Win32,3.333400001,594e2bb7a402220001d84067,64d2fd46c836a06233681665,64dc7cefa440b7cd48ade3b9,,,,,,,decisionTrl,resources/DBN.BMP,resources/DR.BMP,Door4,0.276964048,-0.103195739,1,0,0,2.7918,optionRight,80,7205,4,1,0,1,0,1,,,,,,,,,,,,,,,,,,,,,,,,,,,,,,,,,,,,,,,
,,,,,,,,2023-08-16_08h41.43.833,HF_wild_card,2022.2.4,Win32,3.333400001,594e2bb7a402220001d84067,64d2fd46c836a06233681665,64dc7cefa440b7cd48ade3b9,,,,,,,ctch,resources/DB.BMP,resources/DP.BMP,Door3,0.336884154,-0.099201065,1,0,0,1.3724,optionRight,70,7275,4,2,0,2,0,1,,,,,,,,,,,,,,,,,,,,,,,,,,,,,,,,,,,,,,,
,,,,,,,,2023-08-16_08h41.43.833,HF_wild_card,2022.2.4,Win32,3.333400001,594e2bb7a402220001d84067,64d2fd46c836a06233681665,64dc7cefa440b7cd48ade3b9,,,,,,,ctch,resources/DR.BMP,resources/DY.BMP,Door4,-0.203728362,-0.01930759,1,0,0,1.7071,optionLeft,60,7335,4,3,0,3,0,1,,,,,,,,,,,,,,,,,,,,,,,,,,,,,,,,,,,,,,,
,,,,,,,,2023-08-16_08h41.43.833,HF_wild_card,2022.2.4,Win32,3.333400001,594e2bb7a402220001d84067,64d2fd46c836a06233681665,64dc7cefa440b7cd48ade3b9,,,,,,,sngl,resources/DB.BMP,resources/Empty.png,Door2,-0.326231691,-0.036617843,1,0,0,1.2661,optionLeft,20,7355,4,4,0,4,0,1,,,,,,,,,,,,,,,,,,,,,,,,,,,,,,,,,,,,,,,
,,,,,,,,2023-08-16_08h41.43.833,HF_wild_card,2022.2.4,Win32,3.333400001,594e2bb7a402220001d84067,64d2fd46c836a06233681665,64dc7cefa440b7cd48ade3b9,,,,,,,sngl,resources/DP.BMP,resources/Empty.png,Door3,-0.28229028,-0.060585885,1,0,0,1.2647,optionLeft,70,7425,4,5,0,5,0,1,,,,,,,,,,,,,,,,,,,,,,,,,,,,,,,,,,,,,,,
,,,,,,,,2023-08-16_08h41.43.833,HF_wild_card,2022.2.4,Win32,3.333400001,594e2bb7a402220001d84067,64d2fd46c836a06233681665,64dc7cefa440b7cd48ade3b9,,,,,,,decisionTrl,resources/DB.BMP,resources/DY.BMP,Door1,0.287616511,-0.116511318,1,0,0,1.3859,optionRight,30,7455,4,6,0,6,0,1,,,,,,,,,,,,,,,,,,,,,,,,,,,,,,,,,,,,,,,
,,,,,,,,2023-08-16_08h41.43.833,HF_wild_card,2022.2.4,Win32,3.333400001,594e2bb7a402220001d84067,64d2fd46c836a06233681665,64dc7cefa440b7cd48ade3b9,,,,,,,ctch,resources/DB.BMP,resources/DP.BMP,Door3,0.207723036,-0.092543276,1,0,0,1.3685,optionRight,70,7525,4,7,0,7,0,1,,,,,,,,,,,,,,,,,,,,,,,,,,,,,,,,,,,,,,,
,,,,,,,,2023-08-16_08h41.43.833,HF_wild_card,2022.2.4,Win32,3.333400001,594e2bb7a402220001d84067,64d2fd46c836a06233681665,64dc7cefa440b7cd48ade3b9,,,,,,,sngl,resources/Empty.png,resources/DY.BMP,Door1,0.229027963,-0.052596538,1,0,0,1.261,optionRight,30,7555,4,8,0,8,0,1,,,,,,,,,,,,,,,,,,,,,,,,,,,,,,,,,,,,,,,
,,,,,,,,2023-08-16_08h41.43.833,HF_wild_card,2022.2.4,Win32,3.333400001,594e2bb7a402220001d84067,64d2fd46c836a06233681665,64dc7cefa440b7cd48ade3b9,,,,,,,decisionTrl,resources/DBN.BMP,resources/DB.BMP,WildCard_Ex,-0.348868176,-0.035286285,1,0,0,1.3714,optionLeft,45,7600,4,9,0,9,0,1,,,,,,,,,,,,,,,,,,,,,,,,,,,,,,,,,,,,,,,
,,,,,,,,2023-08-16_08h41.43.833,HF_wild_card,2022.2.4,Win32,3.333400001,594e2bb7a402220001d84067,64d2fd46c836a06233681665,64dc7cefa440b7cd48ade3b9,,,,,,,ctch,resources/DY.BMP,resources/DR.BMP,Door4,0.302263648,-0.116511318,1,0,0,2.0448,optionRight,80,7680,4,10,0,10,0,1,,,,,,,,,,,,,,,,,,,,,,,,,,,,,,,,,,,,,,,
,,,,,,,,2023-08-16_08h41.43.833,HF_wild_card,2022.2.4,Win32,3.333400001,594e2bb7a402220001d84067,64d2fd46c836a06233681665,64dc7cefa440b7cd48ade3b9,,,,,,,decisionTrl,resources/DB.BMP,resources/DY.BMP,Door1,0.276964048,-0.05126498,1,0,0,1.3647,optionRight,30,7710,4,11,0,11,0,1,,,,,,,,,,,,,,,,,,,,,,,,,,,,,,,,,,,,,,,
,,,,,,,,2023-08-16_08h41.43.833,HF_wild_card,2022.2.4,Win32,3.333400001,594e2bb7a402220001d84067,64d2fd46c836a06233681665,64dc7cefa440b7cd48ade3b9,,,,,,,decisionTrl,resources/DB.BMP,resources/DY.BMP,Door2,-0.264980027,-0.031291611,1,0,0,1.6985,optionLeft,20,7730,4,12,0,12,0,1,,,,,,,,,,,,,,,,,,,,,,,,,,,,,,,,,,,,,,,
,,,,,,,,2023-08-16_08h41.43.833,HF_wild_card,2022.2.4,Win32,3.333400001,594e2bb7a402220001d84067,64d2fd46c836a06233681665,64dc7cefa440b7cd48ade3b9,,,,,,,decisionTrl,resources/DR.BMP,resources/DP.BMP,Door3,0.391478029,-0.112516644,1,0,0,1.3761,optionRight,70,7800,4,13,0,13,0,1,,,,,,,,,,,,,,,,,,,,,,,,,,,,,,,,,,,,,,,
,,,,,,,,2023-08-16_08h41.43.833,HF_wild_card,2022.2.4,Win32,3.333400001,594e2bb7a402220001d84067,64d2fd46c836a06233681665,64dc7cefa440b7cd48ade3b9,,,,,,,ctch,resources/DY.BMP,resources/DR.BMP,Door4,0.306258322,-0.103195739,1,0,0,1.3611,optionRight,60,7860,4,14,0,14,0,1,,,,,,,,,,,,,,,,,,,,,,,,,,,,,,,,,,,,,,,
,,,,,,,,2023-08-16_08h41.43.833,HF_wild_card,2022.2.4,Win32,3.333400001,594e2bb7a402220001d84067,64d2fd46c836a06233681665,64dc7cefa440b7cd48ade3b9,,,,,,,sngl,resources/Empty.png,resources/DR.BMP,Door4,0.360852197,-0.125832224,1,0,0,1.2533,optionRight,80,7940,4,15,0,15,0,1,,,,,,,,,,,,,,,,,,,,,,,,,,,,,,,,,,,,,,,
,,,,,,,,2023-08-16_08h41.43.833,HF_wild_card,2022.2.4,Win32,3.333400001,594e2bb7a402220001d84067,64d2fd46c836a06233681665,64dc7cefa440b7cd48ade3b9,,,,,,,decisionTrl,resources/DY.BMP,resources/DB.BMP,Door1,-0.262316911,-0.043275632,1,0,0,2.0656,optionLeft,30,7970,4,16,0,16,0,1,,,,,,,,,,,,,,,,,,,,,,,,,,,,,,,,,,,,,,,
,,,,,,,,2023-08-16_08h41.43.833,HF_wild_card,2022.2.4,Win32,3.333400001,594e2bb7a402220001d84067,64d2fd46c836a06233681665,64dc7cefa440b7cd48ade3b9,,,,,,,decisionTrl,resources/DP.BMP,resources/DBN.BMP,WildCard_Ex,0.304926764,-0.061917443,1,0,0,1.3793,optionRight,55,8025,4,17,0,17,0,1,,,,,,,,,,,,,,,,,,,,,,,,,,,,,,,,,,,,,,,
,,,,,,,,2023-08-16_08h41.43.833,HF_wild_card,2022.2.4,Win32,3.333400001,594e2bb7a402220001d84067,64d2fd46c836a06233681665,64dc7cefa440b7cd48ade3b9,,,,,,,sngl,resources/Empty.png,resources/DP.BMP,Door3,0.304926764,-0.097869507,1,0,0,1.2408,optionRight,70,8095,4,18,0,18,0,1,,,,,,,,,,,,,,,,,,,,,,,,,,,,,,,,,,,,,,,
,,,,,,,,2023-08-16_08h41.43.833,HF_wild_card,2022.2.4,Win32,3.333400001,594e2bb7a402220001d84067,64d2fd46c836a06233681665,64dc7cefa440b7cd48ade3b9,,,,,,,sngl,resources/DBN.BMP,resources/Empty.png,WildCard_Ex,-0.235685752,-0.01930759,1,0,0,1.3097,optionLeft,45,8140,4,19,0,19,0,1,,,,,,,,,,,,,,,,,,,,,,,,,,,,,,,,,,,,,,,
,,,,,,,,2023-08-16_08h41.43.833,HF_wild_card,2022.2.4,Win32,3.333400001,594e2bb7a402220001d84067,64d2fd46c836a06233681665,64dc7cefa440b7cd48ade3b9,,,,,,,decisionTrl,resources/DY.BMP,resources/DB.BMP,Door1,-0.279627164,-0.072569907,1,0,0,1.8281,optionLeft,30,8170,4,20,0,20,0,1,,,,,,,,,,,,,,,,,,,,,,,,,,,,,,,,,,,,,,,
,,,,,,,,2023-08-16_08h41.43.833,HF_wild_card,2022.2.4,Win32,3.333400001,594e2bb7a402220001d84067,64d2fd46c836a06233681665,64dc7cefa440b7cd48ade3b9,,,,,,,decisionTrl,resources/DR.BMP,resources/DBN.BMP,WildCard_Ex,0.239680426,-0.079227696,1,0,0,1.3817,optionRight,45,8215,4,21,0,21,0,1,,,,,,,,,,,,,,,,,,,,,,,,,,,,,,,,,,,,,,,
,,,,,,,,2023-08-16_08h41.43.833,HF_wild_card,2022.2.4,Win32,3.333400001,594e2bb7a402220001d84067,64d2fd46c836a06233681665,64dc7cefa440b7cd48ade3b9,,,,,,,decisionTrl,resources/DR.BMP,resources/DP.BMP,Door4,-0.367509987,-0.029960053,1,0,0,1.447,optionLeft,60,8275,4,22,0,22,0,1,,,,,,,,,,,,,,,,,,,,,,,,,,,,,,,,,,,,,,,
,,,,,,,,2023-08-16_08h41.43.833,HF_wild_card,2022.2.4,Win32,3.333400001,594e2bb7a402220001d84067,64d2fd46c836a06233681665,64dc7cefa440b7cd48ade3b9,,,,,,,sngl,resources/Empty.png,resources/DB.BMP,Door2,0.359520639,-0.101864181,1,0,0,1.2491,optionRight,40,8315,4,23,0,23,0,1,,,,,,,,,,,,,,,,,,,,,,,,,,,,,,,,,,,,,,,
,,,,,,,,2023-08-16_08h41.43.833,HF_wild_card,2022.2.4,Win32,3.333400001,594e2bb7a402220001d84067,64d2fd46c836a06233681665,64dc7cefa440b7cd48ade3b9,,,,,,,decisionTrl,resources/DY.BMP,resources/DB.BMP,Door1,-0.338215712,-0.009986684,1,0,0,1.3713,optionLeft,30,8345,4,24,0,24,0,1,,,,,,,,,,,,,,,,,,,,,,,,,,,,,,,,,,,,,,,
,,,,,,,,2023-08-16_08h41.43.833,HF_wild_card,2022.2.4,Win32,3.333400001,594e2bb7a402220001d84067,64d2fd46c836a06233681665,64dc7cefa440b7cd48ade3b9,,,,,,,ctch,resources/DP.BMP,resources/DB.BMP,Door3,-0.342210386,-0.021970706,1,0,0,1.3755,optionLeft,70,8415,4,25,0,25,0,1,,,,,,,,,,,,,,,,,,,,,,,,,,,,,,,,,,,,,,,
,,,,,,,,2023-08-16_08h41.43.833,HF_wild_card,2022.2.4,Win32,3.333400001,594e2bb7a402220001d84067,64d2fd46c836a06233681665,64dc7cefa440b7cd48ade3b9,,,,,,,sngl,resources/DBN.BMP,resources/Empty.png,WildCard_Ex,-0.311584554,-0.025965379,1,0,0,1.574,optionLeft,55,8470,4,26,0,26,0,1,,,,,,,,,,,,,,,,,,,,,,,,,,,,,,,,,,,,,,,
,,,,,,,,2023-08-16_08h41.43.833,HF_wild_card,2022.2.4,Win32,3.333400001,594e2bb7a402220001d84067,64d2fd46c836a06233681665,64dc7cefa440b7cd48ade3b9,,,,,,,sngl,resources/DY.BMP,resources/Empty.png,Door1,-0.320905459,-0.037949401,1,0,0,1.2525,optionLeft,30,8500,4,27,0,27,0,1,,,,,,,,,,,,,,,,,,,,,,,,,,,,,,,,,,,,,,,
,,,,,,,,2023-08-16_08h41.43.833,HF_wild_card,2022.2.4,Win32,3.333400001,594e2bb7a402220001d84067,64d2fd46c836a06233681665,64dc7cefa440b7cd48ade3b9,,,,,,,ctch,resources/DR.BMP,resources/DY.BMP,Door4,-0.291611185,-0.036617843,1,0,0,2.7174,optionLeft,60,8560,4,28,0,28,0,1,,,,,,,,,,,,,,,,,,,,,,,,,,,,,,,,,,,,,,,
,,,,,,,,2023-08-16_08h41.43.833,HF_wild_card,2022.2.4,Win32,3.333400001,594e2bb7a402220001d84067,64d2fd46c836a06233681665,64dc7cefa440b7cd48ade3b9,,,,,,,decisionTrl,resources/DP.BMP,resources/DR.BMP,Door3,-0.376830892,-0.035286285,1,0,0,1.3793,optionLeft,70,8630,4,29,0,29,0,1,,,,,,,,,,,,,,,,,,,,,,,,,,,,,,,,,,,,,,,
,,,,,,,,2023-08-16_08h41.43.833,HF_wild_card,2022.2.4,Win32,3.333400001,594e2bb7a402220001d84067,64d2fd46c836a06233681665,64dc7cefa440b7cd48ade3b9,,,,,,,sngl,resources/Empty.png,resources/DBN.BMP,WildCard_Ex,0.272969374,-0.085885486,1,0,0,1.2538,optionRight,45,8675,4,30,0,30,0,1,,,,,,,,,,,,,,,,,,,,,,,,,,,,,,,,,,,,,,,
,,,,,,,,2023-08-16_08h41.43.833,HF_wild_card,2022.2.4,Win32,3.333400001,594e2bb7a402220001d84067,64d2fd46c836a06233681665,64dc7cefa440b7cd48ade3b9,,,,,,,decisionTrl,resources/DR.BMP,resources/DP.BMP,Door4,-0.402130493,-0.039280959,1,0,0,1.7371,optionLeft,60,8735,4,31,0,31,0,1,,,,,,,,,,,,,,,,,,,,,,,,,,,,,,,,,,,,,,,
,,,,,,,,2023-08-16_08h41.43.833,HF_wild_card,2022.2.4,Win32,3.333400001,594e2bb7a402220001d84067,64d2fd46c836a06233681665,64dc7cefa440b7cd48ade3b9,,,,,,,sngl,resources/DR.BMP,resources/Empty.png,Door4,-0.328894807,-0.056591212,1,0,0,1.2897,optionLeft,60,8795,4,32,0,32,0,1,,,,,,,,,,,,,,,,,,,,,,,,,,,,,,,,,,,,,,,
,,,,,,,,2023-08-16_08h41.43.833,HF_wild_card,2022.2.4,Win32,3.333400001,594e2bb7a402220001d84067,64d2fd46c836a06233681665,64dc7cefa440b7cd48ade3b9,,,,,,,decisionTrl,resources/DP.BMP,resources/DR.BMP,Door3,-0.330226365,-0.033954727,1,0,0,1.703,optionLeft,70,8865,4,33,0,33,0,1,,,,,,,,,,,,,,,,,,,,,,,,,,,,,,,,,,,,,,,
,,,,,,,,2023-08-16_08h41.43.833,HF_wild_card,2022.2.4,Win32,3.333400001,594e2bb7a402220001d84067,64d2fd46c836a06233681665,64dc7cefa440b7cd48ade3b9,,,,,,,ctch,resources/DP.BMP,resources/DB.BMP,Door3,-0.326231691,-0.049933422,1,0,0,1.3776,optionLeft,70,8935,4,34,0,34,0,1,,,,,,,,,,,,,,,,,,,,,,,,,,,,,,,,,,,,,,,
,,,,,,,,2023-08-16_08h41.43.833,HF_wild_card,2022.2.4,Win32,3.333400001,594e2bb7a402220001d84067,64d2fd46c836a06233681665,64dc7cefa440b7cd48ade3b9,,,,,,,decisionTrl,resources/DB.BMP,resources/DBN.BMP,WildCard_Ex,0.276964048,-0.055259654,1,0,0,1.708,optionRight,55,8990,4,35,0,35,0,1,,,,,,,,,,,,,,,,,,,,,,,,,,,,,,,,,,,,,,,
,,,,,,,,2023-08-16_08h41.43.833,HF_wild_card,2022.2.4,Win32,3.333400001,594e2bb7a402220001d84067,64d2fd46c836a06233681665,64dc7cefa440b7cd48ade3b9,,,,,,,decisionTrl,resources/DP.BMP,resources/DR.BMP,Door3,-0.368841545,-0.055259654,1,0,0,2.3956,optionLeft,70,9060,4,36,0,36,0,1,,,,,,,,,,,,,,,,,,,,,,,,,,,,,,,,,,,,,,,
,,,,,,,,2023-08-16_08h41.43.833,HF_wild_card,2022.2.4,Win32,3.333400001,594e2bb7a402220001d84067,64d2fd46c836a06233681665,64dc7cefa440b7cd48ade3b9,,,,,,,decisionTrl,resources/DBN.BMP,resources/DP.BMP,Door3,0.294274301,-0.096537949,1,0,0,1.7816,optionRight,70,9130,4,37,0,37,0,1,,,,,,,,,,,,,,,,,,,,,,,,,,,,,,,,,,,,,,,
,,,,,,,,2023-08-16_08h41.43.833,HF_wild_card,2022.2.4,Win32,3.333400001,594e2bb7a402220001d84067,64d2fd46c836a06233681665,64dc7cefa440b7cd48ade3b9,,,,,,,decisionTrl,resources/DR.BMP,resources/DP.BMP,Door4,-0.300932091,-0.024633822,1,0,0,1.7083,optionLeft,80,9210,4,38,0,38,0,1,,,,,,,,,,,,,,,,,,,,,,,,,,,,,,,,,,,,,,,
,,,,,,,,2023-08-16_08h41.43.833,HF_wild_card,2022.2.4,Win32,3.333400001,594e2bb7a402220001d84067,64d2fd46c836a06233681665,64dc7cefa440b7cd48ade3b9,,,,,,,decisionTrl,resources/DP.BMP,resources/DR.BMP,Door3,-0.323568575,-0.053928096,1,0,0,1.7336,optionLeft,70,9280,4,39,0,39,0,1,,,,,,,,,,,,,,,,,,,,,,,,,,,,,,,,,,,,,,,
,,,,,,,,2023-08-16_08h41.43.833,HF_wild_card,2022.2.4,Win32,3.333400001,594e2bb7a402220001d84067,64d2fd46c836a06233681665,64dc7cefa440b7cd48ade3b9,,,,,,,decisionTrl,resources/DBN.BMP,resources/DY.BMP,WildCard_Ex,-0.328894807,-0.009986684,1,0,0,1.7361,optionLeft,55,9335,4,40,0,40,0,1,,,,,,,,,,,,,,,,,,,,,,,,,,,,,,,,,,,,,,,
,,,,,,,,2023-08-16_08h41.43.833,HF_wild_card,2022.2.4,Win32,3.333400001,594e2bb7a402220001d84067,64d2fd46c836a06233681665,64dc7cefa440b7cd48ade3b9,,,,,,,decisionTrl,resources/DB.BMP,resources/DY.BMP,Door1,0.319573901,-0.169773635,1,0,0,2.4242,optionRight,30,9365,4,41,0,41,0,1,,,,,,,,,,,,,,,,,,,,,,,,,,,,,,,,,,,,,,,
,,,,,,,,2023-08-16_08h41.43.833,HF_wild_card,2022.2.4,Win32,3.333400001,594e2bb7a402220001d84067,64d2fd46c836a06233681665,64dc7cefa440b7cd48ade3b9,,,,,,,decisionTrl,resources/DY.BMP,resources/DB.BMP,Door1,-0.271637816,-0.027296937,1,0,0,1.7138,optionLeft,30,9395,4,42,0,42,0,1,,,,,,,,,,,,,,,,,,,,,,,,,,,,,,,,,,,,,,,
,,,,,,,,2023-08-16_08h41.43.833,HF_wild_card,2022.2.4,Win32,3.333400001,594e2bb7a402220001d84067,64d2fd46c836a06233681665,64dc7cefa440b7cd48ade3b9,,,,,,,sngl,resources/Empty.png,resources/DBN.BMP,WildCard_Ex,0.264980027,-0.087217044,1,0,0,1.2931,optionRight,55,9450,4,43,0,43,0,1,,,,,,,,,,,,,,,,,,,,,,,,,,,,,,,,,,,,,,,
,,,,,,,,2023-08-16_08h41.43.833,HF_wild_card,2022.2.4,Win32,3.333400001,594e2bb7a402220001d84067,64d2fd46c836a06233681665,64dc7cefa440b7cd48ade3b9,,,,,,,,,,,,,,,,,,,,,,,,,,3,0,3,0,1,,,,,,,,,,,,,,,,,,,,,,,,,,,,,,,,,,
,,,,,,,,2023-08-16_08h41.43.833,HF_wild_card,2022.2.4,Win32,3.333400001,594e2bb7a402220001d84067,64d2fd46c836a06233681665,64dc7cefa440b7cd48ade3b9,,,,,,,decisionTrl,resources/DB.BMP,resources/DBN.BMP,WildCard_Ex,0.330226365,-0.157789614,1,0,0,1.7126,optionRight,55,9505,5,0,0,0,0,1,,,,,,,,,,,,,,,,,,,,,,,,,,,,,,,,,,,,,,,
,,,,,,,,2023-08-16_08h41.43.833,HF_wild_card,2022.2.4,Win32,3.333400001,594e2bb7a402220001d84067,64d2fd46c836a06233681665,64dc7cefa440b7cd48ade3b9,,,,,,,decisionTrl,resources/DR.BMP,resources/DBN.BMP,WildCard_Ex,0.342210386,-0.103195739,1,0,0,1.4309,optionRight,45,9550,5,1,0,1,0,1,,,,,,,,,,,,,,,,,,,,,,,,,,,,,,,,,,,,,,,
,,,,,,,,2023-08-16_08h41.43.833,HF_wild_card,2022.2.4,Win32,3.333400001,594e2bb7a402220001d84067,64d2fd46c836a06233681665,64dc7cefa440b7cd48ade3b9,,,,,,,decisionTrl,resources/DB.BMP,resources/DY.BMP,Door1,0.350199734,-0.107190413,1,0,0,1.7014,optionRight,30,9580,5,2,0,2,0,1,,,,,,,,,,,,,,,,,,,,,,,,,,,,,,,,,,,,,,,
,,,,,,,,2023-08-16_08h41.43.833,HF_wild_card,2022.2.4,Win32,3.333400001,594e2bb7a402220001d84067,64d2fd46c836a06233681665,64dc7cefa440b7cd48ade3b9,,,,,,,ctch,resources/DR.BMP,resources/DY.BMP,Door4,-0.451398136,-0.005992011,1,0,0,1.3604,optionLeft,80,9660,5,3,0,3,0,1,,,,,,,,,,,,,,,,,,,,,,,,,,,,,,,,,,,,,,,
,,,,,,,,2023-08-16_08h41.43.833,HF_wild_card,2022.2.4,Win32,3.333400001,594e2bb7a402220001d84067,64d2fd46c836a06233681665,64dc7cefa440b7cd48ade3b9,,,,,,,decisionTrl,resources/DP.BMP,resources/DR.BMP,Door4,0.379494008,-0.127163782,1,0,0,2.0519,optionRight,60,9720,5,4,0,4,0,1,,,,,,,,,,,,,,,,,,,,,,,,,,,,,,,,,,,,,,,
,,,,,,,,2023-08-16_08h41.43.833,HF_wild_card,2022.2.4,Win32,3.333400001,594e2bb7a402220001d84067,64d2fd46c836a06233681665,64dc7cefa440b7cd48ade3b9,,,,,,,ctch,resources/DY.BMP,resources/DR.BMP,Door4,0.331557923,-0.08988016,1,0,0,1.7473,optionRight,60,9780,5,5,0,5,0,1,,,,,,,,,,,,,,,,,,,,,,,,,,,,,,,,,,,,,,,
,,,,,,,,2023-08-16_08h41.43.833,HF_wild_card,2022.2.4,Win32,3.333400001,594e2bb7a402220001d84067,64d2fd46c836a06233681665,64dc7cefa440b7cd48ade3b9,,,,,,,sngl,resources/Empty.png,resources/DBN.BMP,WildCard_Ex,0.278295606,-0.069906791,1,0,0,1.2483,optionRight,55,9835,5,6,0,6,0,1,,,,,,,,,,,,,,,,,,,,,,,,,,,,,,,,,,,,,,,
,,,,,,,,2023-08-16_08h41.43.833,HF_wild_card,2022.2.4,Win32,3.333400001,594e2bb7a402220001d84067,64d2fd46c836a06233681665,64dc7cefa440b7cd48ade3b9,,,,,,,sngl,resources/DBN.BMP,resources/Empty.png,WildCard_Ex,-0.288948069,-0.041944075,1,0,0,1.5552,optionLeft,55,9890,5,7,0,7,0,1,,,,,,,,,,,,,,,,,,,,,,,,,,,,,,,,,,,,,,,
,,,,,,,,2023-08-16_08h41.43.833,HF_wild_card,2022.2.4,Win32,3.333400001,594e2bb7a402220001d84067,64d2fd46c836a06233681665,64dc7cefa440b7cd48ade3b9,,,,,,,decisionTrl,resources/DY.BMP,resources/DBN.BMP,WildCard_Ex,0.263648469,-0.168442077,1,0,0,1.7169,optionRight,55,9945,5,8,0,8,0,1,,,,,,,,,,,,,,,,,,,,,,,,,,,,,,,,,,,,,,,
,,,,,,,,2023-08-16_08h41.43.833,HF_wild_card,2022.2.4,Win32,3.333400001,594e2bb7a402220001d84067,64d2fd46c836a06233681665,64dc7cefa440b7cd48ade3b9,,,,,,,sngl,resources/Empty.png,resources/DBN.BMP,WildCard_Ex,0.267643142,-0.024633822,1,0,0,1.2489,optionRight,45,9990,5,9,0,9,0,1,,,,,,,,,,,,,,,,,,,,,,,,,,,,,,,,,,,,,,,
,,,,,,,,2023-08-16_08h41.43.833,HF_wild_card,2022.2.4,Win32,3.333400001,594e2bb7a402220001d84067,64d2fd46c836a06233681665,64dc7cefa440b7cd48ade3b9,,,,,,,decisionTrl,resources/DBN.BMP,resources/DR.BMP,Door4,0.234354194,-0.047270306,1,0,0,1.7568,optionRight,60,10050,5,10,0,10,0,1,,,,,,,,,,,,,,,,,,,,,,,,,,,,,,,,,,,,,,,
,,,,,,,,2023-08-16_08h41.43.833,HF_wild_card,2022.2.4,Win32,3.333400001,594e2bb7a402220001d84067,64d2fd46c836a06233681665,64dc7cefa440b7cd48ade3b9,,,,,,,ctch,resources/DP.BMP,resources/DB.BMP,Door3,-0.31424767,-0.037949401,1,0,0,1.7593,optionLeft,70,10120,5,11,0,11,0,1,,,,,,,,,,,,,,,,,,,,,,,,,,,,,,,,,,,,,,,
,,,,,,,,2023-08-16_08h41.43.833,HF_wild_card,2022.2.4,Win32,3.333400001,594e2bb7a402220001d84067,64d2fd46c836a06233681665,64dc7cefa440b7cd48ade3b9,,,,,,,decisionTrl,resources/DBN.BMP,resources/DY.BMP,WildCard_Ex,-0.271637816,-0.033954727,1,0,0,1.7053,optionLeft,45,10165,5,12,0,12,0,1,,,,,,,,,,,,,,,,,,,,,,,,,,,,,,,,,,,,,,,
,,,,,,,,2023-08-16_08h41.43.833,HF_wild_card,2022.2.4,Win32,3.333400001,594e2bb7a402220001d84067,64d2fd46c836a06233681665,64dc7cefa440b7cd48ade3b9,,,,,,,sngl,resources/DY.BMP,resources/Empty.png,Door1,-0.218375499,-0.025965379,1,0,0,1.2642,optionLeft,30,10195,5,13,0,13,0,1,,,,,,,,,,,,,,,,,,,,,,,,,,,,,,,,,,,,,,,
,,,,,,,,2023-08-16_08h41.43.833,HF_wild_card,2022.2.4,Win32,3.333400001,594e2bb7a402220001d84067,64d2fd46c836a06233681665,64dc7cefa440b7cd48ade3b9,,,,,,,ctch,resources/DR.BMP,resources/DY.BMP,Door4,-0.37816245,-0.033954727,1,0,0,1.7308,optionLeft,60,10255,5,14,0,14,0,1,,,,,,,,,,,,,,,,,,,,,,,,,,,,,,,,,,,,,,,
,,,,,,,,2023-08-16_08h41.43.833,HF_wild_card,2022.2.4,Win32,3.333400001,594e2bb7a402220001d84067,64d2fd46c836a06233681665,64dc7cefa440b7cd48ade3b9,,,,,,,decisionTrl,resources/DR.BMP,resources/DP.BMP,Door4,-0.340878828,-0.069906791,1,0,0,1.7495,optionLeft,80,10335,5,15,0,15,0,1,,,,,,,,,,,,,,,,,,,,,,,,,,,,,,,,,,,,,,,
,,,,,,,,2023-08-16_08h41.43.833,HF_wild_card,2022.2.4,Win32,3.333400001,594e2bb7a402220001d84067,64d2fd46c836a06233681665,64dc7cefa440b7cd48ade3b9,,,,,,,decisionTrl,resources/DBN.BMP,resources/DP.BMP,Door3,0.233022636,-0.124500666,1,0,0,1.7298,optionRight,70,10405,5,16,0,16,0,1,,,,,,,,,,,,,,,,,,,,,,,,,,,,,,,,,,,,,,,
,,,,,,,,2023-08-16_08h41.43.833,HF_wild_card,2022.2.4,Win32,3.333400001,594e2bb7a402220001d84067,64d2fd46c836a06233681665,64dc7cefa440b7cd48ade3b9,,,,,,,decisionTrl,resources/DY.BMP,resources/DB.BMP,Door1,-0.360852197,-0.072569907,1,0,0,2.4169,optionLeft,30,10435,5,17,0,17,0,1,,,,,,,,,,,,,,,,,,,,,,,,,,,,,,,,,,,,,,,
,,,,,,,,2023-08-16_08h41.43.833,HF_wild_card,2022.2.4,Win32,3.333400001,594e2bb7a402220001d84067,64d2fd46c836a06233681665,64dc7cefa440b7cd48ade3b9,,,,,,,decisionTrl,resources/DR.BMP,resources/DP.BMP,Door4,-0.418109188,-0.040612517,1,0,0,1.6964,optionLeft,60,10495,5,18,0,18,0,1,,,,,,,,,,,,,,,,,,,,,,,,,,,,,,,,,,,,,,,
,,,,,,,,2023-08-16_08h41.43.833,HF_wild_card,2022.2.4,Win32,3.333400001,594e2bb7a402220001d84067,64d2fd46c836a06233681665,64dc7cefa440b7cd48ade3b9,,,,,,,decisionTrl,resources/DR.BMP,resources/DP.BMP,Door4,-0.348868176,-0.067243675,1,0,0,1.725,optionLeft,60,10555,5,19,0,19,0,1,,,,,,,,,,,,,,,,,,,,,,,,,,,,,,,,,,,,,,,
,,,,,,,,2023-08-16_08h41.43.833,HF_wild_card,2022.2.4,Win32,3.333400001,594e2bb7a402220001d84067,64d2fd46c836a06233681665,64dc7cefa440b7cd48ade3b9,,,,,,,sngl,resources/DB.BMP,resources/Empty.png,Door2,-0.327563249,-0.036617843,1,0,0,1.2769,optionLeft,40,10595,5,20,0,20,0,1,,,,,,,,,,,,,,,,,,,,,,,,,,,,,,,,,,,,,,,
,,,,,,,,2023-08-16_08h41.43.833,HF_wild_card,2022.2.4,Win32,3.333400001,594e2bb7a402220001d84067,64d2fd46c836a06233681665,64dc7cefa440b7cd48ade3b9,,,,,,,decisionTrl,resources/DB.BMP,resources/DY.BMP,Door2,-0.254327563,-0.076564581,1,0,0,3.0676,optionLeft,20,10615,5,21,0,21,0,1,,,,,,,,,,,,,,,,,,,,,,,,,,,,,,,,,,,,,,,
,,,,,,,,2023-08-16_08h41.43.833,HF_wild_card,2022.2.4,Win32,3.333400001,594e2bb7a402220001d84067,64d2fd46c836a06233681665,64dc7cefa440b7cd48ade3b9,,,,,,,decisionTrl,resources/DP.BMP,resources/DBN.BMP,Door3,-0.360852197,-0.08988016,1,0,0,1.371,optionLeft,70,10685,5,22,0,22,0,1,,,,,,,,,,,,,,,,,,,,,,,,,,,,,,,,,,,,,,,
,,,,,,,,2023-08-16_08h41.43.833,HF_wild_card,2022.2.4,Win32,3.333400001,594e2bb7a402220001d84067,64d2fd46c836a06233681665,64dc7cefa440b7cd48ade3b9,,,,,,,decisionTrl,resources/DP.BMP,resources/DR.BMP,Door3,-0.414114514,-0.071238349,1,0,0,1.7003,optionLeft,70,10755,5,23,0,23,0,1,,,,,,,,,,,,,,,,,,,,,,,,,,,,,,,,,,,,,,,
,,,,,,,,2023-08-16_08h41.43.833,HF_wild_card,2022.2.4,Win32,3.333400001,594e2bb7a402220001d84067,64d2fd46c836a06233681665,64dc7cefa440b7cd48ade3b9,,,,,,,sngl,resources/Empty.png,resources/DY.BMP,Door1,0.379494008,-0.116511318,1,0,0,1.2471,optionRight,30,10785,5,24,0,24,0,1,,,,,,,,,,,,,,,,,,,,,,,,,,,,,,,,,,,,,,,
,,,,,,,,2023-08-16_08h41.43.833,HF_wild_card,2022.2.4,Win32,3.333400001,594e2bb7a402220001d84067,64d2fd46c836a06233681665,64dc7cefa440b7cd48ade3b9,,,,,,,ctch,resources/DB.BMP,resources/DP.BMP,Door3,0.372836218,-0.183089214,1,0,0,1.714,optionRight,70,10855,5,25,0,25,0,1,,,,,,,,,,,,,,,,,,,,,,,,,,,,,,,,,,,,,,,
,,,,,,,,2023-08-16_08h41.43.833,HF_wild_card,2022.2.4,Win32,3.333400001,594e2bb7a402220001d84067,64d2fd46c836a06233681665,64dc7cefa440b7cd48ade3b9,,,,,,,decisionTrl,resources/DY.BMP,resources/DB.BMP,Door1,-0.403462051,-0.043275632,1,0,0,1.7035,optionLeft,30,10885,5,26,0,26,0,1,,,,,,,,,,,,,,,,,,,,,,,,,,,,,,,,,,,,,,,
,,,,,,,,2023-08-16_08h41.43.833,HF_wild_card,2022.2.4,Win32,3.333400001,594e2bb7a402220001d84067,64d2fd46c836a06233681665,64dc7cefa440b7cd48ade3b9,,,,,,,sngl,resources/DR.BMP,resources/Empty.png,Door4,-0.356857523,-0.077896138,1,0,0,1.5754,optionLeft,80,10965,5,27,0,27,0,1,,,,,,,,,,,,,,,,,,,,,,,,,,,,,,,,,,,,,,,
,,,,,,,,2023-08-16_08h41.43.833,HF_wild_card,2022.2.4,Win32,3.333400001,594e2bb7a402220001d84067,64d2fd46c836a06233681665,64dc7cefa440b7cd48ade3b9,,,,,,,decisionTrl,resources/DP.BMP,resources/DR.BMP,Door4,0.355525965,-0.059254328,1,0,0,2.0544,optionRight,80,11045,5,28,0,28,0,1,,,,,,,,,,,,,,,,,,,,,,,,,,,,,,,,,,,,,,,
,,,,,,,,2023-08-16_08h41.43.833,HF_wild_card,2022.2.4,Win32,3.333400001,594e2bb7a402220001d84067,64d2fd46c836a06233681665,64dc7cefa440b7cd48ade3b9,,,,,,,decisionTrl,resources/DR.BMP,resources/DP.BMP,Door4,-0.30758988,-0.065912117,1,0,0,1.7217,optionLeft,60,11105,5,29,0,29,0,1,,,,,,,,,,,,,,,,,,,,,,,,,,,,,,,,,,,,,,,
,,,,,,,,2023-08-16_08h41.43.833,HF_wild_card,2022.2.4,Win32,3.333400001,594e2bb7a402220001d84067,64d2fd46c836a06233681665,64dc7cefa440b7cd48ade3b9,,,,,,,decisionTrl,resources/DBN.BMP,resources/DB.BMP,WildCard_Ex,-0.326231691,-0.027296937,1,0,0,1.7391,optionLeft,45,11150,5,30,0,30,0,1,,,,,,,,,,,,,,,,,,,,,,,,,,,,,,,,,,,,,,,
,,,,,,,,2023-08-16_08h41.43.833,HF_wild_card,2022.2.4,Win32,3.333400001,594e2bb7a402220001d84067,64d2fd46c836a06233681665,64dc7cefa440b7cd48ade3b9,,,,,,,ctch,resources/DB.BMP,resources/DP.BMP,Door3,0.302263648,-0.119174434,1,0,0,1.4086,optionRight,70,11220,5,31,0,31,0,1,,,,,,,,,,,,,,,,,,,,,,,,,,,,,,,,,,,,,,,
,,,,,,,,2023-08-16_08h41.43.833,HF_wild_card,2022.2.4,Win32,3.333400001,594e2bb7a402220001d84067,64d2fd46c836a06233681665,64dc7cefa440b7cd48ade3b9,,,,,,,sngl,resources/DP.BMP,resources/Empty.png,Door3,-0.358189081,-0.045938748,1,0,0,1.2561,optionLeft,70,11290,5,32,0,32,0,1,,,,,,,,,,,,,,,,,,,,,,,,,,,,,,,,,,,,,,,
,,,,,,,,2023-08-16_08h41.43.833,HF_wild_card,2022.2.4,Win32,3.333400001,594e2bb7a402220001d84067,64d2fd46c836a06233681665,64dc7cefa440b7cd48ade3b9,,,,,,,ctch,resources/DY.BMP,resources/DR.BMP,Door4,0.296937417,-0.188415446,1,0,0,1.3727,optionRight,80,11370,5,33,0,33,0,1,,,,,,,,,,,,,,,,,,,,,,,,,,,,,,,,,,,,,,,
,,,,,,,,2023-08-16_08h41.43.833,HF_wild_card,2022.2.4,Win32,3.333400001,594e2bb7a402220001d84067,64d2fd46c836a06233681665,64dc7cefa440b7cd48ade3b9,,,,,,,ctch,resources/DP.BMP,resources/DB.BMP,Door3,-0.484687084,-0.020639148,1,0,0,1.3663,optionLeft,70,11440,5,34,0,34,0,1,,,,,,,,,,,,,,,,,,,,,,,,,,,,,,,,,,,,,,,
,,,,,,,,2023-08-16_08h41.43.833,HF_wild_card,2022.2.4,Win32,3.333400001,594e2bb7a402220001d84067,64d2fd46c836a06233681665,64dc7cefa440b7cd48ade3b9,,,,,,,decisionTrl,resources/DB.BMP,resources/DY.BMP,Door1,0.308921438,-0.093874834,1,0,0,1.3737,optionRight,30,11470,5,35,0,35,0,1,,,,,,,,,,,,,,,,,,,,,,,,,,,,,,,,,,,,,,,
,,,,,,,,2023-08-16_08h41.43.833,HF_wild_card,2022.2.4,Win32,3.333400001,594e2bb7a402220001d84067,64d2fd46c836a06233681665,64dc7cefa440b7cd48ade3b9,,,,,,,decisionTrl,resources/DY.BMP,resources/DB.BMP,Door1,-0.258322237,-0.01930759,1,0,0,1.7145,optionLeft,30,11500,5,36,0,36,0,1,,,,,,,,,,,,,,,,,,,,,,,,,,,,,,,,,,,,,,,
,,,,,,,,2023-08-16_08h41.43.833,HF_wild_card,2022.2.4,Win32,3.333400001,594e2bb7a402220001d84067,64d2fd46c836a06233681665,64dc7cefa440b7cd48ade3b9,,,,,,,sngl,resources/Empty.png,resources/DB.BMP,Door2,0.278295606,-0.064580559,1,0,0,1.5536,optionRight,20,11520,5,37,0,37,0,1,,,,,,,,,,,,,,,,,,,,,,,,,,,,,,,,,,,,,,,
,,,,,,,,2023-08-16_08h41.43.833,HF_wild_card,2022.2.4,Win32,3.333400001,594e2bb7a402220001d84067,64d2fd46c836a06233681665,64dc7cefa440b7cd48ade3b9,,,,,,,decisionTrl,resources/DB.BMP,resources/DY.BMP,Door1,0.260985353,-0.075233023,1,0,0,1.7054,optionRight,30,11550,5,38,0,38,0,1,,,,,,,,,,,,,,,,,,,,,,,,,,,,,,,,,,,,,,,
,,,,,,,,2023-08-16_08h41.43.833,HF_wild_card,2022.2.4,Win32,3.333400001,594e2bb7a402220001d84067,64d2fd46c836a06233681665,64dc7cefa440b7cd48ade3b9,,,,,,,sngl,resources/DBN.BMP,resources/Empty.png,WildCard_Ex,-0.358189081,-0.005992011,1,0,0,1.3026,optionLeft,45,11595,5,39,0,39,0,1,,,,,,,,,,,,,,,,,,,,,,,,,,,,,,,,,,,,,,,
,,,,,,,,2023-08-16_08h41.43.833,HF_wild_card,2022.2.4,Win32,3.333400001,594e2bb7a402220001d84067,64d2fd46c836a06233681665,64dc7cefa440b7cd48ade3b9,,,,,,,decisionTrl,resources/DP.BMP,resources/DR.BMP,Door4,0.263648469,-0.093874834,1,0,0,2.7874,optionRight,80,11675,5,40,0,40,0,1,,,,,,,,,,,,,,,,,,,,,,,,,,,,,,,,,,,,,,,
,,,,,,,,2023-08-16_08h41.43.833,HF_wild_card,2022.2.4,Win32,3.333400001,594e2bb7a402220001d84067,64d2fd46c836a06233681665,64dc7cefa440b7cd48ade3b9,,,,,,,decisionTrl,resources/DY.BMP,resources/DB.BMP,Door1,-0.323568575,-0.000665779,1,0,0,2.0742,optionLeft,30,11705,5,41,0,41,0,1,,,,,,,,,,,,,,,,,,,,,,,,,,,,,,,,,,,,,,,
,,,,,,,,2023-08-16_08h41.43.833,HF_wild_card,2022.2.4,Win32,3.333400001,594e2bb7a402220001d84067,64d2fd46c836a06233681665,64dc7cefa440b7cd48ade3b9,,,,,,,sngl,resources/Empty.png,resources/DR.BMP,Door4,0.334221039,-0.056591212,1,0,0,1.2469,optionRight,60,11765,5,42,0,42,0,1,,,,,,,,,,,,,,,,,,,,,,,,,,,,,,,,,,,,,,,
,,,,,,,,2023-08-16_08h41.43.833,HF_wild_card,2022.2.4,Win32,3.333400001,594e2bb7a402220001d84067,64d2fd46c836a06233681665,64dc7cefa440b7cd48ade3b9,,,,,,,sngl,resources/Empty.png,resources/DP.BMP,Door3,0.37816245,-0.047270306,1,0,0,1.2581,optionRight,70,11835,5,43,0,43,0,1,,,,,,,,,,,,,,,,,,,,,,,,,,,,,,,,,,,,,,,
,,,,,,,,2023-08-16_08h41.43.833,HF_wild_card,2022.2.4,Win32,3.333400001,594e2bb7a402220001d84067,64d2fd46c836a06233681665,64dc7cefa440b7cd48ade3b9,,,,,,,,,,,,,,,,,,,,,,,,,,4,0,4,0,1,,,,,,,,,,,,,,,,,,,,,,,,,,,,,,,,,,
,,,,,,,,2023-08-16_08h41.43.833,HF_wild_card,2022.2.4,Win32,3.333400001,594e2bb7a402220001d84067,64d2fd46c836a06233681665,64dc7cefa440b7cd48ade3b9,,,,,,,decisionTrl,resources/DBN.BMP,resources/DR.BMP,Door4,0.35286285,-0.108521971,1,0,0,2.7792,optionRight,60,11895,6,0,0,0,0,1,,,,,,,,,,,,,,,,,,,,,,,,,,,,,,,,,,,,,,,
,,,,,,,,2023-08-16_08h41.43.833,HF_wild_card,2022.2.4,Win32,3.333400001,594e2bb7a402220001d84067,64d2fd46c836a06233681665,64dc7cefa440b7cd48ade3b9,,,,,,,decisionTrl,resources/DP.BMP,resources/DBN.BMP,Door3,-0.436750999,-0.075233023,1,0,0,1.3652,optionLeft,70,11965,6,1,0,1,0,1,,,,,,,,,,,,,,,,,,,,,,,,,,,,,,,,,,,,,,,
,,,,,,,,2023-08-16_08h41.43.833,HF_wild_card,2022.2.4,Win32,3.333400001,594e2bb7a402220001d84067,64d2fd46c836a06233681665,64dc7cefa440b7cd48ade3b9,,,,,,,decisionTrl,resources/DP.BMP,resources/DR.BMP,Door3,-0.419440746,-0.036617843,1,0,0,1.3941,optionLeft,70,12035,6,2,0,2,0,1,,,,,,,,,,,,,,,,,,,,,,,,,,,,,,,,,,,,,,,
,,,,,,,,2023-08-16_08h41.43.833,HF_wild_card,2022.2.4,Win32,3.333400001,594e2bb7a402220001d84067,64d2fd46c836a06233681665,64dc7cefa440b7cd48ade3b9,,,,,,,sngl,resources/DY.BMP,resources/Empty.png,Door1,-0.195739015,-0.065912117,1,0,0,2.8146,optionLeft,30,12065,6,3,0,3,0,1,,,,,,,,,,,,,,,,,,,,,,,,,,,,,,,,,,,,,,,
,,,,,,,,2023-08-16_08h41.43.833,HF_wild_card,2022.2.4,Win32,3.333400001,594e2bb7a402220001d84067,64d2fd46c836a06233681665,64dc7cefa440b7cd48ade3b9,,,,,,,sngl,resources/Empty.png,resources/DR.BMP,Door4,0.227696405,-0.05126498,1,0,0,1.2492,optionRight,80,12145,6,4,0,4,0,1,,,,,,,,,,,,,,,,,,,,,,,,,,,,,,,,,,,,,,,
,,,,,,,,2023-08-16_08h41.43.833,HF_wild_card,2022.2.4,Win32,3.333400001,594e2bb7a402220001d84067,64d2fd46c836a06233681665,64dc7cefa440b7cd48ade3b9,,,,,,,decisionTrl,resources/DP.BMP,resources/DR.BMP,Door4,0.366178429,-0.076564581,1,0,0,2.0652,optionRight,60,12205,6,5,0,5,0,1,,,,,,,,,,,,,,,,,,,,,,,,,,,,,,,,,,,,,,,
,,,,,,,,2023-08-16_08h41.43.833,HF_wild_card,2022.2.4,Win32,3.333400001,594e2bb7a402220001d84067,64d2fd46c836a06233681665,64dc7cefa440b7cd48ade3b9,,,,,,,decisionTrl,resources/DB.BMP,resources/DY.BMP,Door1,0.318242344,-0.097869507,1,0,0,1.3755,optionRight,30,12235,6,6,0,6,0,1,,,,,,,,,,,,,,,,,,,,,,,,,,,,,,,,,,,,,,,
,,,,,,,,2023-08-16_08h41.43.833,HF_wild_card,2022.2.4,Win32,3.333400001,594e2bb7a402220001d84067,64d2fd46c836a06233681665,64dc7cefa440b7cd48ade3b9,,,,,,,decisionTrl,resources/DBN.BMP,resources/DY.BMP,WildCard_Ex,-0.407456724,0.000665779,1,0,0,1.7226,optionLeft,45,12280,6,7,0,7,0,1,,,,,,,,,,,,,,,,,,,,,,,,,,,,,,,,,,,,,,,
,,,,,,,,2023-08-16_08h41.43.833,HF_wild_card,2022.2.4,Win32,3.333400001,594e2bb7a402220001d84067,64d2fd46c836a06233681665,64dc7cefa440b7cd48ade3b9,,,,,,,ctch,resources/DP.BMP,resources/DB.BMP,Door3,-0.350199734,-0.040612517,1,0,0,1.377,optionLeft,70,12350,6,8,0,8,0,1,,,,,,,,,,,,,,,,,,,,,,,,,,,,,,,,,,,,,,,
,,,,,,,,2023-08-16_08h41.43.833,HF_wild_card,2022.2.4,Win32,3.333400001,594e2bb7a402220001d84067,64d2fd46c836a06233681665,64dc7cefa440b7cd48ade3b9,,,,,,,sngl,resources/DBN.BMP,resources/Empty.png,WildCard_Ex,-0.300932091,-0.024633822,1,0,0,1.2561,optionLeft,45,12395,6,9,0,9,0,1,,,,,,,,,,,,,,,,,,,,,,,,,,,,,,,,,,,,,,,
,,,,,,,,2023-08-16_08h41.43.833,HF_wild_card,2022.2.4,Win32,3.333400001,594e2bb7a402220001d84067,64d2fd46c836a06233681665,64dc7cefa440b7cd48ade3b9,,,,,,,decisionTrl,resources/DR.BMP,resources/DP.BMP,Door4,-0.364846871,-0.029960053,1,0,0,2.3861,optionLeft,60,12455,6,10,0,10,0,1,,,,,,,,,,,,,,,,,,,,,,,,,,,,,,,,,,,,,,,
,,,,,,,,2023-08-16_08h41.43.833,HF_wild_card,2022.2.4,Win32,3.333400001,594e2bb7a402220001d84067,64d2fd46c836a06233681665,64dc7cefa440b7cd48ade3b9,,,,,,,sngl,resources/Empty.png,resources/DY.BMP,Door1,0.399467377,-0.024633822,1,0,0,4.9832,optionRight,30,12485,6,11,0,11,0,1,,,,,,,,,,,,,,,,,,,,,,,,,,,,,,,,,,,,,,,
,,,,,,,,2023-08-16_08h41.43.833,HF_wild_card,2022.2.4,Win32,3.333400001,594e2bb7a402220001d84067,64d2fd46c836a06233681665,64dc7cefa440b7cd48ade3b9,,,,,,,sngl,resources/DR.BMP,resources/Empty.png,Door4,-0.394141145,-0.024633822,1,0,0,1.2585,optionLeft,60,12545,6,12,0,12,0,1,,,,,,,,,,,,,,,,,,,,,,,,,,,,,,,,,,,,,,,
,,,,,,,,2023-08-16_08h41.43.833,HF_wild_card,2022.2.4,Win32,3.333400001,594e2bb7a402220001d84067,64d2fd46c836a06233681665,64dc7cefa440b7cd48ade3b9,,,,,,,decisionTrl,resources/DY.BMP,resources/DB.BMP,Door1,-0.483355526,-0.08322237,1,0,0,2.0847,optionLeft,30,12575,6,13,0,13,0,1,,,,,,,,,,,,,,,,,,,,,,,,,,,,,,,,,,,,,,,
,,,,,,,,2023-08-16_08h41.43.833,HF_wild_card,2022.2.4,Win32,3.333400001,594e2bb7a402220001d84067,64d2fd46c836a06233681665,64dc7cefa440b7cd48ade3b9,,,,,,,sngl,resources/DP.BMP,resources/Empty.png,Door3,-0.30758988,-0.035286285,1,0,0,1.2598,optionLeft,70,12645,6,14,0,14,0,1,,,,,,,,,,,,,,,,,,,,,,,,,,,,,,,,,,,,,,,
,,,,,,,,2023-08-16_08h41.43.833,HF_wild_card,2022.2.4,Win32,3.333400001,594e2bb7a402220001d84067,64d2fd46c836a06233681665,64dc7cefa440b7cd48ade3b9,,,,,,,ctch,resources/DB.BMP,resources/DP.BMP,Door3,0.278295606,-0.099201065,1,0,0,1.0376,optionRight,70,12715,6,15,0,15,0,1,,,,,,,,,,,,,,,,,,,,,,,,,,,,,,,,,,,,,,,
,,,,,,,,2023-08-16_08h41.43.833,HF_wild_card,2022.2.4,Win32,3.333400001,594e2bb7a402220001d84067,64d2fd46c836a06233681665,64dc7cefa440b7cd48ade3b9,,,,,,,decisionTrl,resources/DY.BMP,resources/DB.BMP,Door1,-0.267643142,-0.077896138,1,0,0,2.4114,optionLeft,30,12745,6,16,0,16,0,1,,,,,,,,,,,,,,,,,,,,,,,,,,,,,,,,,,,,,,,
,,,,,,,,2023-08-16_08h41.43.833,HF_wild_card,2022.2.4,Win32,3.333400001,594e2bb7a402220001d84067,64d2fd46c836a06233681665,64dc7cefa440b7cd48ade3b9,,,,,,,ctch,resources/DP.BMP,resources/DB.BMP,Door3,-0.334221039,-0.063249001,1,0,0,1.362,optionLeft,70,12815,6,17,0,17,0,1,,,,,,,,,,,,,,,,,,,,,,,,,,,,,,,,,,,,,,,
,,,,,,,,2023-08-16_08h41.43.833,HF_wild_card,2022.2.4,Win32,3.333400001,594e2bb7a402220001d84067,64d2fd46c836a06233681665,64dc7cefa440b7cd48ade3b9,,,,,,,sngl,resources/DBN.BMP,resources/Empty.png,WildCard_Ex,-0.315579228,-0.055259654,1,0,0,1.2626,optionLeft,55,12870,6,18,0,18,0,1,,,,,,,,,,,,,,,,,,,,,,,,,,,,,,,,,,,,,,,
,,,,,,,,2023-08-16_08h41.43.833,HF_wild_card,2022.2.4,Win32,3.333400001,594e2bb7a402220001d84067,64d2fd46c836a06233681665,64dc7cefa440b7cd48ade3b9,,,,,,,decisionTrl,resources/DP.BMP,resources/DR.BMP,Door4,0.332889481,-0.093874834,1,0,0,1.3779,optionRight,80,12950,6,19,0,19,0,1,,,,,,,,,,,,,,,,,,,,,,,,,,,,,,,,,,,,,,,
,,,,,,,,2023-08-16_08h41.43.833,HF_wild_card,2022.2.4,Win32,3.333400001,594e2bb7a402220001d84067,64d2fd46c836a06233681665,64dc7cefa440b7cd48ade3b9,,,,,,,decisionTrl,resources/DB.BMP,resources/DBN.BMP,WildCard_Ex,0.185086551,-0.073901465,1,0,0,1.7085,optionRight,55,13005,6,20,0,20,0,1,,,,,,,,,,,,,,,,,,,,,,,,,,,,,,,,,,,,,,,
,,,,,,,,2023-08-16_08h41.43.833,HF_wild_card,2022.2.4,Win32,3.333400001,594e2bb7a402220001d84067,64d2fd46c836a06233681665,64dc7cefa440b7cd48ade3b9,,,,,,,decisionTrl,resources/DY.BMP,resources/DB.BMP,Door1,-0.302263648,-0.055259654,1,0,0,2.0769,optionLeft,30,13035,6,21,0,21,0,1,,,,,,,,,,,,,,,,,,,,,,,,,,,,,,,,,,,,,,,
,,,,,,,,2023-08-16_08h41.43.833,HF_wild_card,2022.2.4,Win32,3.333400001,594e2bb7a402220001d84067,64d2fd46c836a06233681665,64dc7cefa440b7cd48ade3b9,,,,,,,decisionTrl,resources/DR.BMP,resources/DBN.BMP,WildCard_Ex,0.368841545,-0.085885486,1,0,0,1.3708,optionRight,55,13090,6,22,0,22,0,1,,,,,,,,,,,,,,,,,,,,,,,,,,,,,,,,,,,,,,,
,,,,,,,,2023-08-16_08h41.43.833,HF_wild_card,2022.2.4,Win32,3.333400001,594e2bb7a402220001d84067,64d2fd46c836a06233681665,64dc7cefa440b7cd48ade3b9,,,,,,,sngl,resources/Empty.png,resources/DP.BMP,Door3,0.260985353,-0.088548602,1,0,0,1.2502,optionRight,70,13160,6,23,0,23,0,1,,,,,,,,,,,,,,,,,,,,,,,,,,,,,,,,,,,,,,,
,,,,,,,,2023-08-16_08h41.43.833,HF_wild_card,2022.2.4,Win32,3.333400001,594e2bb7a402220001d84067,64d2fd46c836a06233681665,64dc7cefa440b7cd48ade3b9,,,,,,,decisionTrl,resources/DY.BMP,resources/DBN.BMP,WildCard_Ex,0.255659121,-0.084553928,1,0,0,1.3705,optionRight,55,13215,6,24,0,24,0,1,,,,,,,,,,,,,,,,,,,,,,,,,,,,,,,,,,,,,,,
,,,,,,,,2023-08-16_08h41.43.833,HF_wild_card,2022.2.4,Win32,3.333400001,594e2bb7a402220001d84067,64d2fd46c836a06233681665,64dc7cefa440b7cd48ade3b9,,,,,,,ctch,resources/DY.BMP,resources/DR.BMP,Door4,0.460719041,-0.099201065,1,0,0,1.4075,optionRight,80,13295,6,25,0,25,0,1,,,,,,,,,,,,,,,,,,,,,,,,,,,,,,,,,,,,,,,
,,,,,,,,2023-08-16_08h41.43.833,HF_wild_card,2022.2.4,Win32,3.333400001,594e2bb7a402220001d84067,64d2fd46c836a06233681665,64dc7cefa440b7cd48ade3b9,,,,,,,decisionTrl,resources/DR.BMP,resources/DP.BMP,Door3,0.386151798,-0.075233023,1,0,0,2.3839,optionRight,70,13365,6,26,0,26,0,1,,,,,,,,,,,,,,,,,,,,,,,,,,,,,,,,,,,,,,,
,,,,,,,,2023-08-16_08h41.43.833,HF_wild_card,2022.2.4,Win32,3.333400001,594e2bb7a402220001d84067,64d2fd46c836a06233681665,64dc7cefa440b7cd48ade3b9,,,,,,,ctch,resources/DY.BMP,resources/DR.BMP,Door4,0.423435419,-0.104527297,1,0,0,2.1261,optionRight,80,13445,6,27,0,27,0,1,,,,,,,,,,,,,,,,,,,,,,,,,,,,,,,,,,,,,,,
,,,,,,,,2023-08-16_08h41.43.833,HF_wild_card,2022.2.4,Win32,3.333400001,594e2bb7a402220001d84067,64d2fd46c836a06233681665,64dc7cefa440b7cd48ade3b9,,,,,,,ctch,resources/DR.BMP,resources/DY.BMP,Door4,-0.368841545,-0.009986684,1,0,0,1.3704,optionLeft,80,13525,6,28,0,28,0,1,,,,,,,,,,,,,,,,,,,,,,,,,,,,,,,,,,,,,,,
,,,,,,,,2023-08-16_08h41.43.833,HF_wild_card,2022.2.4,Win32,3.333400001,594e2bb7a402220001d84067,64d2fd46c836a06233681665,64dc7cefa440b7cd48ade3b9,,,,,,,decisionTrl,resources/DBN.BMP,resources/DP.BMP,Door3,0.434087883,-0.100532623,1,0,0,2.0575,optionRight,70,13595,6,29,0,29,0,1,,,,,,,,,,,,,,,,,,,,,,,,,,,,,,,,,,,,,,,
,,,,,,,,2023-08-16_08h41.43.833,HF_wild_card,2022.2.4,Win32,3.333400001,594e2bb7a402220001d84067,64d2fd46c836a06233681665,64dc7cefa440b7cd48ade3b9,,,,,,,decisionTrl,resources/DR.BMP,resources/DP.BMP,Door4,-0.428761651,-0.004660453,1,0,0,1.7619,optionLeft,80,13675,6,30,0,30,0,1,,,,,,,,,,,,,,,,,,,,,,,,,,,,,,,,,,,,,,,
,,,,,,,,2023-08-16_08h41.43.833,HF_wild_card,2022.2.4,Win32,3.333400001,594e2bb7a402220001d84067,64d2fd46c836a06233681665,64dc7cefa440b7cd48ade3b9,,,,,,,sngl,resources/DB.BMP,resources/Empty.png,Door2,-0.2436751,-0.047270306,1,0,0,1.2653,optionLeft,20,13695,6,31,0,31,0,1,,,,,,,,,,,,,,,,,,,,,,,,,,,,,,,,,,,,,,,
,,,,,,,,2023-08-16_08h41.43.833,HF_wild_card,2022.2.4,Win32,3.333400001,594e2bb7a402220001d84067,64d2fd46c836a06233681665,64dc7cefa440b7cd48ade3b9,,,,,,,decisionTrl,resources/DB.BMP,resources/DY.BMP,Door1,0.41677763,-0.080559254,1,0,0,2.0607,optionRight,30,13725,6,32,0,32,0,1,,,,,,,,,,,,,,,,,,,,,,,,,,,,,,,,,,,,,,,
,,,,,,,,2023-08-16_08h41.43.833,HF_wild_card,2022.2.4,Win32,3.333400001,594e2bb7a402220001d84067,64d2fd46c836a06233681665,64dc7cefa440b7cd48ade3b9,,,,,,,sngl,resources/Empty.png,resources/DBN.BMP,WildCard_Ex,0.234354194,-0.047270306,1,0,0,1.2567,optionRight,45,13770,6,33,0,33,0,1,,,,,,,,,,,,,,,,,,,,,,,,,,,,,,,,,,,,,,,
,,,,,,,,2023-08-16_08h41.43.833,HF_wild_card,2022.2.4,Win32,3.333400001,594e2bb7a402220001d84067,64d2fd46c836a06233681665,64dc7cefa440b7cd48ade3b9,,,,,,,decisionTrl,resources/DY.BMP,resources/DB.BMP,Door1,-0.363515313,-0.013981358,1,0,0,2.0441,optionLeft,30,13800,6,34,0,34,0,1,,,,,,,,,,,,,,,,,,,,,,,,,,,,,,,,,,,,,,,
,,,,,,,,2023-08-16_08h41.43.833,HF_wild_card,2022.2.4,Win32,3.333400001,594e2bb7a402220001d84067,64d2fd46c836a06233681665,64dc7cefa440b7cd48ade3b9,,,,,,,decisionTrl,resources/DB.BMP,resources/DY.BMP,Door1,0.2436751,-0.080559254,1,0,0,1.7058,optionRight,30,13830,6,35,0,35,0,1,,,,,,,,,,,,,,,,,,,,,,,,,,,,,,,,,,,,,,,
,,,,,,,,2023-08-16_08h41.43.833,HF_wild_card,2022.2.4,Win32,3.333400001,594e2bb7a402220001d84067,64d2fd46c836a06233681665,64dc7cefa440b7cd48ade3b9,,,,,,,decisionTrl,resources/DBN.BMP,resources/DB.BMP,WildCard_Ex,-0.308921438,-0.045938748,1,0,0,1.7156,optionLeft,45,13875,6,36,0,36,0,1,,,,,,,,,,,,,,,,,,,,,,,,,,,,,,,,,,,,,,,
,,,,,,,,2023-08-16_08h41.43.833,HF_wild_card,2022.2.4,Win32,3.333400001,594e2bb7a402220001d84067,64d2fd46c836a06233681665,64dc7cefa440b7cd48ade3b9,,,,,,,sngl,resources/Empty.png,resources/DB.BMP,Door2,0.330226365,-0.120505992,1,0,0,1.254,optionRight,40,13915,6,37,0,37,0,1,,,,,,,,,,,,,,,,,,,,,,,,,,,,,,,,,,,,,,,
,,,,,,,,2023-08-16_08h41.43.833,HF_wild_card,2022.2.4,Win32,3.333400001,594e2bb7a402220001d84067,64d2fd46c836a06233681665,64dc7cefa440b7cd48ade3b9,,,,,,,sngl,resources/Empty.png,resources/DBN.BMP,WildCard_Ex,0.254327563,-0.12183755,1,0,0,1.2615,optionRight,55,13970,6,38,0,38,0,1,,,,,,,,,,,,,,,,,,,,,,,,,,,,,,,,,,,,,,,
,,,,,,,,2023-08-16_08h41.43.833,HF_wild_card,2022.2.4,Win32,3.333400001,594e2bb7a402220001d84067,64d2fd46c836a06233681665,64dc7cefa440b7cd48ade3b9,,,,,,,ctch,resources/DB.BMP,resources/DP.BMP,Door2,-0.320905459,-0.076564581,1,0,0,2.425,optionLeft,40,14010,6,39,0,39,0,1,,,,,,,,,,,,,,,,,,,,,,,,,,,,,,,,,,,,,,,
,,,,,,,,2023-08-16_08h41.43.833,HF_wild_card,2022.2.4,Win32,3.333400001,594e2bb7a402220001d84067,64d2fd46c836a06233681665,64dc7cefa440b7cd48ade3b9,,,,,,,decisionTrl,resources/DR.BMP,resources/DP.BMP,Door4,-0.446071904,0.005992011,1,0,0,2.0534,optionLeft,80,14090,6,40,0,40,0,1,,,,,,,,,,,,,,,,,,,,,,,,,,,,,,,,,,,,,,,
,,,,,,,,2023-08-16_08h41.43.833,HF_wild_card,2022.2.4,Win32,3.333400001,594e2bb7a402220001d84067,64d2fd46c836a06233681665,64dc7cefa440b7cd48ade3b9,,,,,,,decisionTrl,resources/DP.BMP,resources/DR.BMP,Door3,-0.475366178,-0.023302264,1,0,0,1.3643,optionLeft,70,14160,6,41,0,41,0,1,,,,,,,,,,,,,,,,,,,,,,,,,,,,,,,,,,,,,,,
,,,,,,,,2023-08-16_08h41.43.833,HF_wild_card,2022.2.4,Win32,3.333400001,594e2bb7a402220001d84067,64d2fd46c836a06233681665,64dc7cefa440b7cd48ade3b9,,,,,,,decisionTrl,resources/DB.BMP,resources/DY.BMP,Door2,-0.320905459,-0.055259654,1,0,0,2.0548,optionLeft,20,14180,6,42,0,42,0,1,,,,,,,,,,,,,,,,,,,,,,,,,,,,,,,,,,,,,,,
,,,,,,,,2023-08-16_08h41.43.833,HF_wild_card,2022.2.4,Win32,3.333400001,594e2bb7a402220001d84067,64d2fd46c836a06233681665,64dc7cefa440b7cd48ade3b9,,,,,,,ctch,resources/DR.BMP,resources/DY.BMP,Door4,-0.490013316,-0.08322237,1,0,0,1.7306,optionLeft,60,14240,6,43,0,43,0,1,,,,,,,,,,,,,,,,,,,,,,,,,,,,,,,,,,,,,,,
,,,,,,,,2023-08-16_08h41.43.833,HF_wild_card,2022.2.4,Win32,3.333400001,594e2bb7a402220001d84067,64d2fd46c836a06233681665,64dc7cefa440b7cd48ade3b9,,,,,,,,,,,,,,,,,,,,,,,,,,5,0,5,0,1,,,,,,,,,,,,,,,,,,,,,,,,,,,,,,,,,,
,,,,,,,,2023-08-16_08h41.43.833,HF_wild_card,2022.2.4,Win32,3.333400001,594e2bb7a402220001d84067,64d2fd46c836a06233681665,64dc7cefa440b7cd48ade3b9,,,,,,,ctch,resources/DY.BMP,resources/DR.BMP,Door4,0.286284953,-0.103195739,1,0,0,2.3913,optionRight,60,14300,7,0,0,0,0,1,,,,,,,,,,,,,,,,,,,,,,,,,,,,,,,,,,,,,,,
,,,,,,,,2023-08-16_08h41.43.833,HF_wild_card,2022.2.4,Win32,3.333400001,594e2bb7a402220001d84067,64d2fd46c836a06233681665,64dc7cefa440b7cd48ade3b9,,,,,,,decisionTrl,resources/DP.BMP,resources/DR.BMP,Door4,0.374167776,-0.133821571,1,0,0,2.8548,optionRight,80,14380,7,1,0,1,0,1,,,,,,,,,,,,,,,,,,,,,,,,,,,,,,,,,,,,,,,
,,,,,,,,2023-08-16_08h41.43.833,HF_wild_card,2022.2.4,Win32,3.333400001,594e2bb7a402220001d84067,64d2fd46c836a06233681665,64dc7cefa440b7cd48ade3b9,,,,,,,decisionTrl,resources/DY.BMP,resources/DB.BMP,Door2,0.299600533,-0.088548602,1,0,0,2.3968,optionRight,40,14420,7,2,0,2,0,1,,,,,,,,,,,,,,,,,,,,,,,,,,,,,,,,,,,,,,,
,,,,,,,,2023-08-16_08h41.43.833,HF_wild_card,2022.2.4,Win32,3.333400001,594e2bb7a402220001d84067,64d2fd46c836a06233681665,64dc7cefa440b7cd48ade3b9,,,,,,,decisionTrl,resources/DY.BMP,resources/DB.BMP,Door2,0.382157124,-0.093874834,1,0,0,3.4086,optionRight,40,14460,7,3,0,3,0,1,,,,,,,,,,,,,,,,,,,,,,,,,,,,,,,,,,,,,,,
,,,,,,,,2023-08-16_08h41.43.833,HF_wild_card,2022.2.4,Win32,3.333400001,594e2bb7a402220001d84067,64d2fd46c836a06233681665,64dc7cefa440b7cd48ade3b9,,,,,,,ctch,resources/DR.BMP,resources/DY.BMP,Door4,-0.356857523,-0.041944075,1,0,0,1.3504,optionLeft,80,14540,7,4,0,4,0,1,,,,,,,,,,,,,,,,,,,,,,,,,,,,,,,,,,,,,,,
,,,,,,,,2023-08-16_08h41.43.833,HF_wild_card,2022.2.4,Win32,3.333400001,594e2bb7a402220001d84067,64d2fd46c836a06233681665,64dc7cefa440b7cd48ade3b9,,,,,,,decisionTrl,resources/DB.BMP,resources/DY.BMP,Door1,0.332889481,-0.099201065,1,0,0,1.6978,optionRight,30,14570,7,5,0,5,0,1,,,,,,,,,,,,,,,,,,,,,,,,,,,,,,,,,,,,,,,
,,,,,,,,2023-08-16_08h41.43.833,HF_wild_card,2022.2.4,Win32,3.333400001,594e2bb7a402220001d84067,64d2fd46c836a06233681665,64dc7cefa440b7cd48ade3b9,,,,,,,decisionTrl,resources/DP.BMP,resources/DR.BMP,Door3,-0.303595206,-0.064580559,1,0,0,1.7316,optionLeft,70,14640,7,6,0,6,0,1,,,,,,,,,,,,,,,,,,,,,,,,,,,,,,,,,,,,,,,
,,,,,,,,2023-08-16_08h41.43.833,HF_wild_card,2022.2.4,Win32,3.333400001,594e2bb7a402220001d84067,64d2fd46c836a06233681665,64dc7cefa440b7cd48ade3b9,,,,,,,decisionTrl,resources/DB.BMP,resources/DY.BMP,Door1,0.336884154,-0.096537949,1,0,0,1.3686,optionRight,30,14670,7,7,0,7,0,1,,,,,,,,,,,,,,,,,,,,,,,,,,,,,,,,,,,,,,,
,,,,,,,,2023-08-16_08h41.43.833,HF_wild_card,2022.2.4,Win32,3.333400001,594e2bb7a402220001d84067,64d2fd46c836a06233681665,64dc7cefa440b7cd48ade3b9,,,,,,,ctch,resources/DY.BMP,resources/DR.BMP,Door4,0.222370173,-0.088548602,1,0,0,1.7085,optionRight,80,14750,7,8,0,8,0,1,,,,,,,,,,,,,,,,,,,,,,,,,,,,,,,,,,,,,,,
,,,,,,,,2023-08-16_08h41.43.833,HF_wild_card,2022.2.4,Win32,3.333400001,594e2bb7a402220001d84067,64d2fd46c836a06233681665,64dc7cefa440b7cd48ade3b9,,,,,,,ctch,resources/DB.BMP,resources/DP.BMP,Door3,0.306258322,-0.084553928,1,0,0,1.3475,optionRight,70,14820,7,9,0,9,0,1,,,,,,,,,,,,,,,,,,,,,,,,,,,,,,,,,,,,,,,
,,,,,,,,2023-08-16_08h41.43.833,HF_wild_card,2022.2.4,Win32,3.333400001,594e2bb7a402220001d84067,64d2fd46c836a06233681665,64dc7cefa440b7cd48ade3b9,,,,,,,decisionTrl,resources/DB.BMP,resources/DY.BMP,Door2,-0.217043941,-0.039280959,1,0,0,2.0449,optionLeft,20,14840,7,10,0,10,0,1,,,,,,,,,,,,,,,,,,,,,,,,,,,,,,,,,,,,,,,
,,,,,,,,2023-08-16_08h41.43.833,HF_wild_card,2022.2.4,Win32,3.333400001,594e2bb7a402220001d84067,64d2fd46c836a06233681665,64dc7cefa440b7cd48ade3b9,,,,,,,decisionTrl,resources/DP.BMP,resources/DR.BMP,Door3,-0.260985353,-0.056591212,1,0,0,1.8119,optionLeft,70,14910,7,11,0,11,0,1,,,,,,,,,,,,,,,,,,,,,,,,,,,,,,,,,,,,,,,
,,,,,,,,2023-08-16_08h41.43.833,HF_wild_card,2022.2.4,Win32,3.333400001,594e2bb7a402220001d84067,64d2fd46c836a06233681665,64dc7cefa440b7cd48ade3b9,,,,,,,decisionTrl,resources/DY.BMP,resources/DB.BMP,Door1,-0.27563249,-0.11517976,1,0,0,2.0483,optionLeft,30,14940,7,12,0,12,0,1,,,,,,,,,,,,,,,,,,,,,,,,,,,,,,,,,,,,,,,
,,,,,,,,2023-08-16_08h41.43.833,HF_wild_card,2022.2.4,Win32,3.333400001,594e2bb7a402220001d84067,64d2fd46c836a06233681665,64dc7cefa440b7cd48ade3b9,,,,,,,decisionTrl,resources/DR.BMP,resources/DP.BMP,Door4,-0.315579228,-0.056591212,1,0,0,1.7026,optionLeft,60,15000,7,13,0,13,0,1,,,,,,,,,,,,,,,,,,,,,,,,,,,,,,,,,,,,,,,
,,,,,,,,2023-08-16_08h41.43.833,HF_wild_card,2022.2.4,Win32,3.333400001,594e2bb7a402220001d84067,64d2fd46c836a06233681665,64dc7cefa440b7cd48ade3b9,,,,,,,decisionTrl,resources/DY.BMP,resources/DB.BMP,Door2,0.296937417,-0.100532623,1,0,0,1.4203,optionRight,20,15020,7,14,0,14,0,1,,,,,,,,,,,,,,,,,,,,,,,,,,,,,,,,,,,,,,,
,,,,,,,,2023-08-16_08h41.43.833,HF_wild_card,2022.2.4,Win32,3.333400001,594e2bb7a402220001d84067,64d2fd46c836a06233681665,64dc7cefa440b7cd48ade3b9,,,,,,,decisionTrl,resources/DP.BMP,resources/DR.BMP,Door4,0.247669774,-0.125832224,1,0,0,1.7071,optionRight,80,15100,7,15,0,15,0,1,,,,,,,,,,,,,,,,,,,,,,,,,,,,,,,,,,,,,,,
,,,,,,,,2023-08-16_08h41.43.833,HF_wild_card,2022.2.4,Win32,3.333400001,594e2bb7a402220001d84067,64d2fd46c836a06233681665,64dc7cefa440b7cd48ade3b9,,,,,,,decisionTrl,resources/DB.BMP,resources/DY.BMP,Door1,0.294274301,-0.08988016,1,0,0,1.6873,optionRight,30,15130,7,16,0,16,0,1,,,,,,,,,,,,,,,,,,,,,,,,,,,,,,,,,,,,,,,
,,,,,,,,2023-08-16_08h41.43.833,HF_wild_card,2022.2.4,Win32,3.333400001,594e2bb7a402220001d84067,64d2fd46c836a06233681665,64dc7cefa440b7cd48ade3b9,,,,,,,decisionTrl,resources/DR.BMP,resources/DP.BMP,Door4,-0.438082557,-0.031291611,1,0,0,1.684,optionLeft,80,15210,7,17,0,17,0,1,,,,,,,,,,,,,,,,,,,,,,,,,,,,,,,,,,,,,,,
,,,,,,,,2023-08-16_08h41.43.833,HF_wild_card,2022.2.4,Win32,3.333400001,594e2bb7a402220001d84067,64d2fd46c836a06233681665,64dc7cefa440b7cd48ade3b9,,,,,,,decisionTrl,resources/DR.BMP,resources/DP.BMP,Door4,-0.342210386,-0.0126498,1,0,0,1.693,optionLeft,60,15270,7,18,0,18,0,1,,,,,,,,,,,,,,,,,,,,,,,,,,,,,,,,,,,,,,,
,,,,,,,,2023-08-16_08h41.43.833,HF_wild_card,2022.2.4,Win32,3.333400001,594e2bb7a402220001d84067,64d2fd46c836a06233681665,64dc7cefa440b7cd48ade3b9,,,,,,,decisionTrl,resources/DY.BMP,resources/DB.BMP,Door2,0.245006658,-0.084553928,1,0,0,1.4272,optionRight,20,15290,7,19,0,19,0,1,,,,,,,,,,,,,,,,,,,,,,,,,,,,,,,,,,,,,,,
,,,,,,,,2023-08-16_08h41.43.833,HF_wild_card,2022.2.4,Win32,3.333400001,594e2bb7a402220001d84067,64d2fd46c836a06233681665,64dc7cefa440b7cd48ade3b9,,,,,,,decisionTrl,resources/DP.BMP,resources/DR.BMP,Door3,-0.332889481,-0.060585885,1,0,0,1.3764,optionLeft,70,15360,7,20,0,20,0,1,,,,,,,,,,,,,,,,,,,,,,,,,,,,,,,,,,,,,,,
,,,,,,,,2023-08-16_08h41.43.833,HF_wild_card,2022.2.4,Win32,3.333400001,594e2bb7a402220001d84067,64d2fd46c836a06233681665,64dc7cefa440b7cd48ade3b9,,,,,,,decisionTrl,resources/DB.BMP,resources/DY.BMP,Door1,0.431424767,-0.14713715,1,0,0,1.3594,optionRight,30,15390,7,21,0,21,0,1,,,,,,,,,,,,,,,,,,,,,,,,,,,,,,,,,,,,,,,
,,,,,,,,2023-08-16_08h41.43.833,HF_wild_card,2022.2.4,Win32,3.333400001,594e2bb7a402220001d84067,64d2fd46c836a06233681665,64dc7cefa440b7cd48ade3b9,,,,,,,ctch,resources/DP.BMP,resources/DB.BMP,Door3,-0.294274301,-0.073901465,1,0,0,1.6982,optionLeft,70,15460,7,22,0,22,0,1,,,,,,,,,,,,,,,,,,,,,,,,,,,,,,,,,,,,,,,
,,,,,,,,2023-08-16_08h41.43.833,HF_wild_card,2022.2.4,Win32,3.333400001,594e2bb7a402220001d84067,64d2fd46c836a06233681665,64dc7cefa440b7cd48ade3b9,,,,,,,ctch,resources/DP.BMP,resources/DB.BMP,Door3,-0.30758988,-0.081890812,1,0,0,1.3612,optionLeft,70,15530,7,23,0,23,0,1,,,,,,,,,,,,,,,,,,,,,,,,,,,,,,,,,,,,,,,
,,,,,,,,2023-08-16_08h41.43.833,HF_wild_card,2022.2.4,Win32,3.333400001,594e2bb7a402220001d84067,64d2fd46c836a06233681665,64dc7cefa440b7cd48ade3b9,,,,,,,decisionTrl,resources/DR.BMP,resources/DP.BMP,Door4,-0.316910786,-0.131158455,1,0,0,1.6975,optionLeft,60,15590,7,24,0,24,0,1,,,,,,,,,,,,,,,,,,,,,,,,,,,,,,,,,,,,,,,
,,,,,,,,2023-08-16_08h41.43.833,HF_wild_card,2022.2.4,Win32,3.333400001,594e2bb7a402220001d84067,64d2fd46c836a06233681665,64dc7cefa440b7cd48ade3b9,,,,,,,decisionTrl,resources/DR.BMP,resources/DP.BMP,Door4,-0.326231691,-0.067243675,1,0,0,1.3961,optionLeft,80,15670,7,25,0,25,0,1,,,,,,,,,,,,,,,,,,,,,,,,,,,,,,,,,,,,,,,
,,,,,,,,2023-08-16_08h41.43.833,HF_wild_card,2022.2.4,Win32,3.333400001,594e2bb7a402220001d84067,64d2fd46c836a06233681665,64dc7cefa440b7cd48ade3b9,,,,,,,decisionTrl,resources/DP.BMP,resources/DR.BMP,Door3,-0.34620506,-0.08988016,1,0,0,1.4264,optionLeft,70,15740,7,26,0,26,0,1,,,,,,,,,,,,,,,,,,,,,,,,,,,,,,,,,,,,,,,
,,,,,,,,2023-08-16_08h41.43.833,HF_wild_card,2022.2.4,Win32,3.333400001,594e2bb7a402220001d84067,64d2fd46c836a06233681665,64dc7cefa440b7cd48ade3b9,,,,,,,ctch,resources/DR.BMP,resources/DY.BMP,Door4,-0.272969374,-0.091211718,1,0,0,1.366,optionLeft,60,15800,7,27,0,27,0,1,,,,,,,,,,,,,,,,,,,,,,,,,,,,,,,,,,,,,,,
,,,,,,,,2023-08-16_08h41.43.833,HF_wild_card,2022.2.4,Win32,3.333400001,594e2bb7a402220001d84067,64d2fd46c836a06233681665,64dc7cefa440b7cd48ade3b9,,,,,,,decisionTrl,resources/DY.BMP,resources/DB.BMP,Door2,0.280958722,-0.060585885,1,0,0,1.8136,optionRight,20,15820,7,28,0,28,0,1,,,,,,,,,,,,,,,,,,,,,,,,,,,,,,,,,,,,,,,
,,,,,,,,2023-08-16_08h41.43.833,HF_wild_card,2022.2.4,Win32,3.333400001,594e2bb7a402220001d84067,64d2fd46c836a06233681665,64dc7cefa440b7cd48ade3b9,,,,,,,ctch,resources/DP.BMP,resources/DB.BMP,Door3,-0.300932091,-0.053928096,1,0,0,1.3523,optionLeft,70,15890,7,29,0,29,0,1,,,,,,,,,,,,,,,,,,,,,,,,,,,,,,,,,,,,,,,
,,,,,,,,2023-08-16_08h41.43.833,HF_wild_card,2022.2.4,Win32,3.333400001,594e2bb7a402220001d84067,64d2fd46c836a06233681665,64dc7cefa440b7cd48ade3b9,,,,,,,ctch,resources/DB.BMP,resources/DP.BMP,Door3,0.472703063,-0.120505992,1,0,0,1.3805,optionRight,70,15960,7,30,0,30,0,1,,,,,,,,,,,,,,,,,,,,,,,,,,,,,,,,,,,,,,,
,,,,,,,,2023-08-16_08h41.43.833,HF_wild_card,2022.2.4,Win32,3.333400001,594e2bb7a402220001d84067,64d2fd46c836a06233681665,64dc7cefa440b7cd48ade3b9,,,,,,,decisionTrl,resources/DB.BMP,resources/DY.BMP,Door2,-0.299600533,-0.072569907,1,0,0,2.3651,optionLeft,20,15980,7,31,0,31,0,1,,,,,,,,,,,,,,,,,,,,,,,,,,,,,,,,,,,,,,,
,,,,,,,,2023-08-16_08h41.43.833,HF_wild_card,2022.2.4,Win32,3.333400001,594e2bb7a402220001d84067,64d2fd46c836a06233681665,64dc7cefa440b7cd48ade3b9,,,,,,,decisionTrl,resources/DR.BMP,resources/DP.BMP,Door4,-0.350199734,-0.036617843,1,0,0,1.6953,optionLeft,80,16060,7,32,0,32,0,1,,,,,,,,,,,,,,,,,,,,,,,,,,,,,,,,,,,,,,,
,,,,,,,,2023-08-16_08h41.43.833,HF_wild_card,2022.2.4,Win32,3.333400001,594e2bb7a402220001d84067,64d2fd46c836a06233681665,64dc7cefa440b7cd48ade3b9,,,,,,,ctch,resources/DR.BMP,resources/DY.BMP,Door4,-0.315579228,-0.055259654,1,0,0,1.3623,optionLeft,60,16120,7,33,0,33,0,1,,,,,,,,,,,,,,,,,,,,,,,,,,,,,,,,,,,,,,,
,,,,,,,,2023-08-16_08h41.43.833,HF_wild_card,2022.2.4,Win32,3.333400001,594e2bb7a402220001d84067,64d2fd46c836a06233681665,64dc7cefa440b7cd48ade3b9,,,,,,,ctch,resources/DB.BMP,resources/DP.BMP,Door3,0.356857523,-0.073901465,1,0,0,1.3482,optionRight,70,16190,7,34,0,34,0,1,,,,,,,,,,,,,,,,,,,,,,,,,,,,,,,,,,,,,,,
,,,,,,,,2023-08-16_08h41.43.833,HF_wild_card,2022.2.4,Win32,3.333400001,594e2bb7a402220001d84067,64d2fd46c836a06233681665,64dc7cefa440b7cd48ade3b9,,,,,,,ctch,resources/DY.BMP,resources/DR.BMP,Door4,0.358189081,-0.068575233,1,0,0,1.3602,optionRight,60,16250,7,35,0,35,0,1,,,,,,,,,,,,,,,,,,,,,,,,,,,,,,,,,,,,,,,
,,,,,,,,2023-08-16_08h41.43.833,HF_wild_card,2022.2.4,Win32,3.333400001,594e2bb7a402220001d84067,64d2fd46c836a06233681665,64dc7cefa440b7cd48ade3b9,,,,,,,,,,,,,,,,,,,,,,,,,,6,0,6,0,1,,,,,,,,,,,,,,,,,,,,,,,,,,,,,,,,,,
,,,,,,,,2023-08-16_08h41.43.833,HF_wild_card,2022.2.4,Win32,3.333400001,594e2bb7a402220001d84067,64d2fd46c836a06233681665,64dc7cefa440b7cd48ade3b9,,,,,,,,,,,,,,,,,,,,,,,,,,,,,,,4,,,,,,,,,,,,,,,,,,,,,,,,,,,,,,,,,
,,,,,,,,2023-08-16_08h41.43.833,HF_wild_card,2022.2.4,Win32,3.333400001,594e2bb7a402220001d84067,64d2fd46c836a06233681665,64dc7cefa440b7cd48ade3b9,,,,,,,,,,,,,,,,,,,,,,,,,,,,,,,,,,,,,,,,,,,,,,,,,,,,,,,,,,,,,,,,
,,,,,,,,2023-08-16_08h41.43.833,HF_wild_card,2022.2.4,Win32,3.333400001,594e2bb7a402220001d84067,64d2fd46c836a06233681665,64dc7cefa440b7cd48ade3b9,,,,,,,,,,,,,,,,,,,,,,,,,,,,,,,,20,Door2,resources/DB.BMP,0,0,0,0,1,,,,,,,,,,,,,,,,,,,,,,,,,
,,,,,,,,2023-08-16_08h41.43.833,HF_wild_card,2022.2.4,Win32,3.333400001,594e2bb7a402220001d84067,64d2fd46c836a06233681665,64dc7cefa440b7cd48ade3b9,,,,,,,,,,,,,,,,,,,,,,,,,,,,,,,,30,Door1,resources/DY.BMP,1,0,1,0,1,,,,,,,,,,,,,,,,,,,,,,,,,
,,,,,,,,2023-08-16_08h41.43.833,HF_wild_card,2022.2.4,Win32,3.333400001,594e2bb7a402220001d84067,64d2fd46c836a06233681665,64dc7cefa440b7cd48ade3b9,,,,,,,,,,,,,,,,,,,,,,,,,,,,,,,,55,WC_extreme,resources/DBN.BMP,2,0,2,0,1,,,,,,,,,,,,,,,,,,,,,,,,,
,,,,,,,,2023-08-16_08h41.43.833,HF_wild_card,2022.2.4,Win32,3.333400001,594e2bb7a402220001d84067,64d2fd46c836a06233681665,64dc7cefa440b7cd48ade3b9,,,,,,,,,,,,,,,,,,,,,,,,,,,,,,,,20,WC_nonExtreme,resources/DG.BMP,3,0,3,0,1,,,,,,,,,,,,,,,,,,,,,,,,,
,,,,,,,,2023-08-16_08h41.43.833,HF_wild_card,2022.2.4,Win32,3.333400001,594e2bb7a402220001d84067,64d2fd46c836a06233681665,64dc7cefa440b7cd48ade3b9,,,,,,,,,,,,,,,,,,,,,,,,,,,,,,,,70,Door3,resources/DP.BMP,4,0,4,0,1,,,,,,,,,,,,,,,,,,,,,,,,,
,,,,,,,,2023-08-16_08h41.43.833,HF_wild_card,2022.2.4,Win32,3.333400001,594e2bb7a402220001d84067,64d2fd46c836a06233681665,64dc7cefa440b7cd48ade3b9,,,,,,,,,,,,,,,,,,,,,,,,,,,,,,,,80,Door4,resources/DR.BMP,5,0,5,0,1,,,,,,,,,,,,,,,,,,,,,,,,,
,,,,,,,,2023-08-16_08h41.43.833,HF_wild_card,2022.2.4,Win32,3.333400001,594e2bb7a402220001d84067,64d2fd46c836a06233681665,64dc7cefa440b7cd48ade3b9,,,,,,,,,,,,,,,,,,,,,,,,,,,,,,,,,,,,,,,,,,,,,,,,,,,,,,,,,,,,,,,,
