Condition,Low fixed image (Door1),Low risky image (Door2),High fixed image (Door3),High risky image (Door4),Extreme Wild Card,NonExtreme Wild Card,,date,expName,psychopyVersion,OS,frameRate,PROLIFIC_PID,STUDY_ID,SESSION_ID,mouse_2.x,mouse_2.y,mouse_2.leftButton,mouse_2.midButton,mouse_2.rightButton,mouse_2.clicked_name,Trial Type,Left Option Image,Right Option Image,Chosen Door,mouse.x,mouse.y,mouse.leftButton,mouse.midButton,mouse.rightButton,mouse.time,mouse.clicked_name,Feedback,Cumulative Reward,Block,trial.thisRepN,trial.thisTrialN,trial.thisN,trial.thisIndex,trial.ran,blocks.thisRepN,blocks.thisTrialN,blocks.thisN,blocks.thisIndex,blocks.ran,Money conversion,First Outcome Reported,Shown Door (First Outcome),Displayed Image (First Outcome),outcomes.thisRepN,outcomes.thisTrialN,outcomes.thisN,outcomes.thisIndex,outcomes.ran,judgments.thisRepN,judgments.thisTrialN,judgments.thisN,judgments.thisIndex,judgments.ran,freqMouse.x,freqMouse.y,freqMouse.leftButton,freqMouse.midButton,freqMouse.rightButton,freqMouse.clicked_name,FQJ for first outcome,FQJ for second outcome,Shown Door,Displayed Image,trials.thisRepN,trials.thisTrialN,trials.thisN,trials.thisIndex,trials.ran,judgBlock.thisRepN,judgBlock.thisTrialN,judgBlock.thisN,judgBlock.thisIndex,judgBlock.ran
0,resources/DY.BMP,resources/DR.BMP,resources/DP.BMP,resources/DG.BMP,resources/DBN.BMP,resources/DB.BMP,63a21141da58c1ee1deebe34,2023-08-06_08h26.06.724,HF_wild_card,2022.2.4,Win32,29.93026249,63a21141da58c1ee1deebe34,64ce5acb97489d65b14ecc7a,64cf4ae847e2f92054050e52,,,,,,,,,,,,,,,,,,,,,,,,,,,,,,,,,,,,,,,,,,,,,,,,,,,,,,,,,,,,,,,,
,,,,,,,63a21141da58c1ee1deebe34,2023-08-06_08h26.06.724,HF_wild_card,2022.2.4,Win32,29.93026249,63a21141da58c1ee1deebe34,64ce5acb97489d65b14ecc7a,64cf4ae847e2f92054050e52,0.007407436,-0.425000014,1,0,0,agree,,,,,,,,,,,,,,,,,,,,,,,,,,,,,,,,,,,,,,,,,,,,,,,,,,,,,,,,,,
,,,,,,,63a21141da58c1ee1deebe34,2023-08-06_08h26.06.724,HF_wild_card,2022.2.4,Win32,29.93026249,63a21141da58c1ee1deebe34,64ce5acb97489d65b14ecc7a,64cf4ae847e2f92054050e52,,,,,,,,,,,,,,,,,,,,,,,,,,,,,,,,,,,,,,,,,,,,,,,,,,,,,,,,,,,,,,,,
,,,,,,,63a21141da58c1ee1deebe34,2023-08-06_08h26.06.724,HF_wild_card,2022.2.4,Win32,29.93026249,63a21141da58c1ee1deebe34,64ce5acb97489d65b14ecc7a,64cf4ae847e2f92054050e52,,,,,,,decisionTrl,resources/DBN.BMP,resources/DP.BMP,WildCard_Ex,-0.395370377,-0.135185171,1,0,0,4.8093,optionLeft,5,5,1,0,0,0,0,1,,,,,,,,,,,,,,,,,,,,,,,,,,,,,,,,,,,,,,,
,,,,,,,63a21141da58c1ee1deebe34,2023-08-06_08h26.06.724,HF_wild_card,2022.2.4,Win32,29.93026249,63a21141da58c1ee1deebe34,64ce5acb97489d65b14ecc7a,64cf4ae847e2f92054050e52,,,,,,,decisionTrl,resources/DR.BMP,resources/DY.BMP,Door1,0.337037122,-0.038888896,1,0,0,2.3954,optionRight,30,35,1,1,0,1,0,1,,,,,,,,,,,,,,,,,,,,,,,,,,,,,,,,,,,,,,,
,,,,,,,63a21141da58c1ee1deebe34,2023-08-06_08h26.06.724,HF_wild_card,2022.2.4,Win32,29.93026249,63a21141da58c1ee1deebe34,64ce5acb97489d65b14ecc7a,64cf4ae847e2f92054050e52,,,,,,,sngl,resources/DBN.BMP,resources/Empty.png,WildCard_Ex,-0.383333312,-0.018518519,1,0,0,2.1783,optionLeft,5,40,1,2,0,2,0,1,,,,,,,,,,,,,,,,,,,,,,,,,,,,,,,,,,,,,,,
,,,,,,,63a21141da58c1ee1deebe34,2023-08-06_08h26.06.724,HF_wild_card,2022.2.4,Win32,29.93026249,63a21141da58c1ee1deebe34,64ce5acb97489d65b14ecc7a,64cf4ae847e2f92054050e52,,,,,,,ctch,resources/DR.BMP,resources/DP.BMP,Door3,0.32222225,-0.051851873,1,0,0,2.6794,optionRight,70,110,1,3,0,3,0,1,,,,,,,,,,,,,,,,,,,,,,,,,,,,,,,,,,,,,,,
,,,,,,,63a21141da58c1ee1deebe34,2023-08-06_08h26.06.724,HF_wild_card,2022.2.4,Win32,29.93026249,63a21141da58c1ee1deebe34,64ce5acb97489d65b14ecc7a,64cf4ae847e2f92054050e52,,,,,,,sngl,resources/Empty.png,resources/DBN.BMP,WildCard_Ex,0.437037009,0.01944443,1,0,0,2.2461,optionRight,95,205,1,4,0,4,0,1,,,,,,,,,,,,,,,,,,,,,,,,,,,,,,,,,,,,,,,
,,,,,,,63a21141da58c1ee1deebe34,2023-08-06_08h26.06.724,HF_wild_card,2022.2.4,Win32,29.93026249,63a21141da58c1ee1deebe34,64ce5acb97489d65b14ecc7a,64cf4ae847e2f92054050e52,,,,,,,decisionTrl,resources/DG.BMP,resources/DP.BMP,Door3,0.396296325,-0.046296296,1,0,0,4.3786,optionRight,70,275,1,5,0,5,0,1,,,,,,,,,,,,,,,,,,,,,,,,,,,,,,,,,,,,,,,
,,,,,,,63a21141da58c1ee1deebe34,2023-08-06_08h26.06.724,HF_wild_card,2022.2.4,Win32,29.93026249,63a21141da58c1ee1deebe34,64ce5acb97489d65b14ecc7a,64cf4ae847e2f92054050e52,,,,,,,ctch,resources/DY.BMP,resources/DG.BMP,Door1,-0.312037044,-0.003703718,1,0,0,2.6786,optionLeft,30,305,1,6,0,6,0,1,,,,,,,,,,,,,,,,,,,,,,,,,,,,,,,,,,,,,,,
,,,,,,,63a21141da58c1ee1deebe34,2023-08-06_08h26.06.724,HF_wild_card,2022.2.4,Win32,29.93026249,63a21141da58c1ee1deebe34,64ce5acb97489d65b14ecc7a,64cf4ae847e2f92054050e52,,,,,,,decisionTrl,resources/DBN.BMP,resources/DY.BMP,WildCard_Ex,-0.311111097,-0.026851866,1,0,0,3.4452,optionLeft,95,400,1,7,0,7,0,1,,,,,,,,,,,,,,,,,,,,,,,,,,,,,,,,,,,,,,,
,,,,,,,63a21141da58c1ee1deebe34,2023-08-06_08h26.06.724,HF_wild_card,2022.2.4,Win32,29.93026249,63a21141da58c1ee1deebe34,64ce5acb97489d65b14ecc7a,64cf4ae847e2f92054050e52,,,,,,,ctch,resources/DR.BMP,resources/DP.BMP,Door2,-0.332407386,-0.020370377,1,0,0,3.2793,optionLeft,20,420,1,8,0,8,0,1,,,,,,,,,,,,,,,,,,,,,,,,,,,,,,,,,,,,,,,
,,,,,,,63a21141da58c1ee1deebe34,2023-08-06_08h26.06.724,HF_wild_card,2022.2.4,Win32,29.93026249,63a21141da58c1ee1deebe34,64ce5acb97489d65b14ecc7a,64cf4ae847e2f92054050e52,,,,,,,sngl,resources/DY.BMP,resources/Empty.png,Door1,-0.38703703,-0.030555548,1,0,0,1.0299,optionLeft,30,450,1,9,0,9,0,1,,,,,,,,,,,,,,,,,,,,,,,,,,,,,,,,,,,,,,,
,,,,,,,63a21141da58c1ee1deebe34,2023-08-06_08h26.06.724,HF_wild_card,2022.2.4,Win32,29.93026249,63a21141da58c1ee1deebe34,64ce5acb97489d65b14ecc7a,64cf4ae847e2f92054050e52,,,,,,,ctch,resources/DP.BMP,resources/DR.BMP,Door3,-0.291666667,-0.017592607,1,0,0,1.421,optionLeft,70,520,1,10,0,10,0,1,,,,,,,,,,,,,,,,,,,,,,,,,,,,,,,,,,,,,,,
,,,,,,,63a21141da58c1ee1deebe34,2023-08-06_08h26.06.724,HF_wild_card,2022.2.4,Win32,29.93026249,63a21141da58c1ee1deebe34,64ce5acb97489d65b14ecc7a,64cf4ae847e2f92054050e52,,,,,,,decisionTrl,resources/DY.BMP,resources/DR.BMP,Door1,-0.352777764,-0.036111125,1,0,0,1.4116,optionLeft,30,550,1,11,0,11,0,1,,,,,,,,,,,,,,,,,,,,,,,,,,,,,,,,,,,,,,,
,,,,,,,63a21141da58c1ee1deebe34,2023-08-06_08h26.06.724,HF_wild_card,2022.2.4,Win32,29.93026249,63a21141da58c1ee1deebe34,64ce5acb97489d65b14ecc7a,64cf4ae847e2f92054050e52,,,,,,,decisionTrl,resources/DY.BMP,resources/DR.BMP,Door1,-0.364814794,-0.055555556,1,0,0,1.9625,optionLeft,30,580,1,12,0,12,0,1,,,,,,,,,,,,,,,,,,,,,,,,,,,,,,,,,,,,,,,
,,,,,,,63a21141da58c1ee1deebe34,2023-08-06_08h26.06.724,HF_wild_card,2022.2.4,Win32,29.93026249,63a21141da58c1ee1deebe34,64ce5acb97489d65b14ecc7a,64cf4ae847e2f92054050e52,,,,,,,decisionTrl,resources/DP.BMP,resources/DG.BMP,Door4,0.42777775,0.006481489,1,0,0,6.1954,optionRight,60,640,1,13,0,13,0,1,,,,,,,,,,,,,,,,,,,,,,,,,,,,,,,,,,,,,,,
,,,,,,,63a21141da58c1ee1deebe34,2023-08-06_08h26.06.724,HF_wild_card,2022.2.4,Win32,29.93026249,63a21141da58c1ee1deebe34,64ce5acb97489d65b14ecc7a,64cf4ae847e2f92054050e52,,,,,,,sngl,resources/Empty.png,resources/DR.BMP,Door2,0.40833339,0.013888889,1,0,0,1.6448,optionRight,20,660,1,14,0,14,0,1,,,,,,,,,,,,,,,,,,,,,,,,,,,,,,,,,,,,,,,
,,,,,,,63a21141da58c1ee1deebe34,2023-08-06_08h26.06.724,HF_wild_card,2022.2.4,Win32,29.93026249,63a21141da58c1ee1deebe34,64ce5acb97489d65b14ecc7a,64cf4ae847e2f92054050e52,,,,,,,sngl,resources/Empty.png,resources/DG.BMP,Door4,0.444444444,0.000925912,1,0,0,2.6956,optionRight,60,720,1,15,0,15,0,1,,,,,,,,,,,,,,,,,,,,,,,,,,,,,,,,,,,,,,,
,,,,,,,63a21141da58c1ee1deebe34,2023-08-06_08h26.06.724,HF_wild_card,2022.2.4,Win32,29.93026249,63a21141da58c1ee1deebe34,64ce5acb97489d65b14ecc7a,64cf4ae847e2f92054050e52,,,,,,,decisionTrl,resources/DG.BMP,resources/DP.BMP,Door3,0.388888889,-0.01666666,1,0,0,1.3623,optionRight,70,790,1,16,0,16,0,1,,,,,,,,,,,,,,,,,,,,,,,,,,,,,,,,,,,,,,,
,,,,,,,63a21141da58c1ee1deebe34,2023-08-06_08h26.06.724,HF_wild_card,2022.2.4,Win32,29.93026249,63a21141da58c1ee1deebe34,64ce5acb97489d65b14ecc7a,64cf4ae847e2f92054050e52,,,,,,,sngl,resources/DR.BMP,resources/Empty.png,Door2,-0.319444444,0.01203703,1,0,0,1.9283,optionLeft,40,830,1,17,0,17,0,1,,,,,,,,,,,,,,,,,,,,,,,,,,,,,,,,,,,,,,,
,,,,,,,63a21141da58c1ee1deebe34,2023-08-06_08h26.06.724,HF_wild_card,2022.2.4,Win32,29.93026249,63a21141da58c1ee1deebe34,64ce5acb97489d65b14ecc7a,64cf4ae847e2f92054050e52,,,,,,,ctch,resources/DG.BMP,resources/DY.BMP,Door1,0.324074074,-0.052777785,1,0,0,1.4948,optionRight,30,860,1,18,0,18,0,1,,,,,,,,,,,,,,,,,,,,,,,,,,,,,,,,,,,,,,,
,,,,,,,63a21141da58c1ee1deebe34,2023-08-06_08h26.06.724,HF_wild_card,2022.2.4,Win32,29.93026249,63a21141da58c1ee1deebe34,64ce5acb97489d65b14ecc7a,64cf4ae847e2f92054050e52,,,,,,,decisionTrl,resources/DR.BMP,resources/DY.BMP,Door1,0.412037037,-0.012962977,1,0,0,1.48,optionRight,30,890,1,19,0,19,0,1,,,,,,,,,,,,,,,,,,,,,,,,,,,,,,,,,,,,,,,
,,,,,,,63a21141da58c1ee1deebe34,2023-08-06_08h26.06.724,HF_wild_card,2022.2.4,Win32,29.93026249,63a21141da58c1ee1deebe34,64ce5acb97489d65b14ecc7a,64cf4ae847e2f92054050e52,,,,,,,sngl,resources/DG.BMP,resources/Empty.png,Door4,-0.459259245,0.006481489,1,0,0,2.3446,optionLeft,80,970,1,20,0,20,0,1,,,,,,,,,,,,,,,,,,,,,,,,,,,,,,,,,,,,,,,
,,,,,,,63a21141da58c1ee1deebe34,2023-08-06_08h26.06.724,HF_wild_card,2022.2.4,Win32,29.93026249,63a21141da58c1ee1deebe34,64ce5acb97489d65b14ecc7a,64cf4ae847e2f92054050e52,,,,,,,decisionTrl,resources/DR.BMP,resources/DBN.BMP,WildCard_Ex,0.450000057,0.025925919,1,0,0,1.2964,optionRight,5,975,1,21,0,21,0,1,,,,,,,,,,,,,,,,,,,,,,,,,,,,,,,,,,,,,,,
,,,,,,,63a21141da58c1ee1deebe34,2023-08-06_08h26.06.724,HF_wild_card,2022.2.4,Win32,29.93026249,63a21141da58c1ee1deebe34,64ce5acb97489d65b14ecc7a,64cf4ae847e2f92054050e52,,,,,,,sngl,resources/Empty.png,resources/DY.BMP,Door1,0.478703675,-0.014814836,1,0,0,1.1956,optionRight,30,1005,1,22,0,22,0,1,,,,,,,,,,,,,,,,,,,,,,,,,,,,,,,,,,,,,,,
,,,,,,,63a21141da58c1ee1deebe34,2023-08-06_08h26.06.724,HF_wild_card,2022.2.4,Win32,29.93026249,63a21141da58c1ee1deebe34,64ce5acb97489d65b14ecc7a,64cf4ae847e2f92054050e52,,,,,,,ctch,resources/DG.BMP,resources/DY.BMP,Door4,-0.248148106,-0.005555577,1,0,0,1.3628,optionLeft,80,1085,1,23,0,23,0,1,,,,,,,,,,,,,,,,,,,,,,,,,,,,,,,,,,,,,,,
,,,,,,,63a21141da58c1ee1deebe34,2023-08-06_08h26.06.724,HF_wild_card,2022.2.4,Win32,29.93026249,63a21141da58c1ee1deebe34,64ce5acb97489d65b14ecc7a,64cf4ae847e2f92054050e52,,,,,,,decisionTrl,resources/DBN.BMP,resources/DG.BMP,Door4,0.346296381,0.008333312,1,0,0,2.3615,optionRight,80,1165,1,24,0,24,0,1,,,,,,,,,,,,,,,,,,,,,,,,,,,,,,,,,,,,,,,
,,,,,,,63a21141da58c1ee1deebe34,2023-08-06_08h26.06.724,HF_wild_card,2022.2.4,Win32,29.93026249,63a21141da58c1ee1deebe34,64ce5acb97489d65b14ecc7a,64cf4ae847e2f92054050e52,,,,,,,decisionTrl,resources/DY.BMP,resources/DBN.BMP,Door1,-0.352777764,-0.011111118,1,0,0,4.1449,optionLeft,30,1195,1,25,0,25,0,1,,,,,,,,,,,,,,,,,,,,,,,,,,,,,,,,,,,,,,,
,,,,,,,63a21141da58c1ee1deebe34,2023-08-06_08h26.06.724,HF_wild_card,2022.2.4,Win32,29.93026249,63a21141da58c1ee1deebe34,64ce5acb97489d65b14ecc7a,64cf4ae847e2f92054050e52,,,,,,,sngl,resources/DBN.BMP,resources/Empty.png,WildCard_Ex,-0.335185192,-0.009259259,1,0,0,1.6779,optionLeft,95,1290,1,26,0,26,0,1,,,,,,,,,,,,,,,,,,,,,,,,,,,,,,,,,,,,,,,
,,,,,,,63a21141da58c1ee1deebe34,2023-08-06_08h26.06.724,HF_wild_card,2022.2.4,Win32,29.93026249,63a21141da58c1ee1deebe34,64ce5acb97489d65b14ecc7a,64cf4ae847e2f92054050e52,,,,,,,sngl,resources/DP.BMP,resources/Empty.png,Door3,-0.342592593,0.006481489,1,0,0,2.0297,optionLeft,70,1360,1,27,0,27,0,1,,,,,,,,,,,,,,,,,,,,,,,,,,,,,,,,,,,,,,,
,,,,,,,63a21141da58c1ee1deebe34,2023-08-06_08h26.06.724,HF_wild_card,2022.2.4,Win32,29.93026249,63a21141da58c1ee1deebe34,64ce5acb97489d65b14ecc7a,64cf4ae847e2f92054050e52,,,,,,,decisionTrl,resources/DR.BMP,resources/DY.BMP,Door1,0.332407492,-0.037962984,1,0,0,1.945,optionRight,30,1390,1,28,0,28,0,1,,,,,,,,,,,,,,,,,,,,,,,,,,,,,,,,,,,,,,,
,,,,,,,63a21141da58c1ee1deebe34,2023-08-06_08h26.06.724,HF_wild_card,2022.2.4,Win32,29.93026249,63a21141da58c1ee1deebe34,64ce5acb97489d65b14ecc7a,64cf4ae847e2f92054050e52,,,,,,,decisionTrl,resources/DP.BMP,resources/DG.BMP,Door4,0.365740741,-0.043518526,1,0,0,2.763,optionRight,60,1450,1,29,0,29,0,1,,,,,,,,,,,,,,,,,,,,,,,,,,,,,,,,,,,,,,,
,,,,,,,63a21141da58c1ee1deebe34,2023-08-06_08h26.06.724,HF_wild_card,2022.2.4,Win32,29.93026249,63a21141da58c1ee1deebe34,64ce5acb97489d65b14ecc7a,64cf4ae847e2f92054050e52,,,,,,,decisionTrl,resources/DP.BMP,resources/DG.BMP,Door4,0.421296296,0.027777778,1,0,0,1.63,optionRight,80,1530,1,30,0,30,0,1,,,,,,,,,,,,,,,,,,,,,,,,,,,,,,,,,,,,,,,
,,,,,,,63a21141da58c1ee1deebe34,2023-08-06_08h26.06.724,HF_wild_card,2022.2.4,Win32,29.93026249,63a21141da58c1ee1deebe34,64ce5acb97489d65b14ecc7a,64cf4ae847e2f92054050e52,,,,,,,decisionTrl,resources/DY.BMP,resources/DR.BMP,Door2,0.420370455,-0.032407407,1,0,0,2.8129,optionRight,40,1570,1,31,0,31,0,1,,,,,,,,,,,,,,,,,,,,,,,,,,,,,,,,,,,,,,,
,,,,,,,63a21141da58c1ee1deebe34,2023-08-06_08h26.06.724,HF_wild_card,2022.2.4,Win32,29.93026249,63a21141da58c1ee1deebe34,64ce5acb97489d65b14ecc7a,64cf4ae847e2f92054050e52,,,,,,,decisionTrl,resources/DY.BMP,resources/DR.BMP,Door1,-0.324999986,-0.009259259,1,0,0,1.2795,optionLeft,30,1600,1,32,0,32,0,1,,,,,,,,,,,,,,,,,,,,,,,,,,,,,,,,,,,,,,,
,,,,,,,63a21141da58c1ee1deebe34,2023-08-06_08h26.06.724,HF_wild_card,2022.2.4,Win32,29.93026249,63a21141da58c1ee1deebe34,64ce5acb97489d65b14ecc7a,64cf4ae847e2f92054050e52,,,,,,,decisionTrl,resources/DBN.BMP,resources/DR.BMP,WildCard_Ex,-0.303703697,-0.01203703,1,0,0,1.2955,optionLeft,5,1605,1,33,0,33,0,1,,,,,,,,,,,,,,,,,,,,,,,,,,,,,,,,,,,,,,,
,,,,,,,63a21141da58c1ee1deebe34,2023-08-06_08h26.06.724,HF_wild_card,2022.2.4,Win32,29.93026249,63a21141da58c1ee1deebe34,64ce5acb97489d65b14ecc7a,64cf4ae847e2f92054050e52,,,,,,,decisionTrl,resources/DP.BMP,resources/DBN.BMP,WildCard_Ex,0.41851849,0.047222208,1,0,0,1.0954,optionRight,5,1610,1,34,0,34,0,1,,,,,,,,,,,,,,,,,,,,,,,,,,,,,,,,,,,,,,,
,,,,,,,63a21141da58c1ee1deebe34,2023-08-06_08h26.06.724,HF_wild_card,2022.2.4,Win32,29.93026249,63a21141da58c1ee1deebe34,64ce5acb97489d65b14ecc7a,64cf4ae847e2f92054050e52,,,,,,,decisionTrl,resources/DR.BMP,resources/DY.BMP,Door1,0.324074074,0.008333312,1,0,0,1.1474,optionRight,30,1640,1,35,0,35,0,1,,,,,,,,,,,,,,,,,,,,,,,,,,,,,,,,,,,,,,,
,,,,,,,63a21141da58c1ee1deebe34,2023-08-06_08h26.06.724,HF_wild_card,2022.2.4,Win32,29.93026249,63a21141da58c1ee1deebe34,64ce5acb97489d65b14ecc7a,64cf4ae847e2f92054050e52,,,,,,,decisionTrl,resources/DG.BMP,resources/DBN.BMP,WildCard_Ex,0.29814812,-0.010185206,1,0,0,1.4277,optionRight,5,1645,1,36,0,36,0,1,,,,,,,,,,,,,,,,,,,,,,,,,,,,,,,,,,,,,,,
,,,,,,,63a21141da58c1ee1deebe34,2023-08-06_08h26.06.724,HF_wild_card,2022.2.4,Win32,29.93026249,63a21141da58c1ee1deebe34,64ce5acb97489d65b14ecc7a,64cf4ae847e2f92054050e52,,,,,,,decisionTrl,resources/DP.BMP,resources/DG.BMP,Door3,-0.319444444,-0.026851866,1,0,0,1.0787,optionLeft,70,1715,1,37,0,37,0,1,,,,,,,,,,,,,,,,,,,,,,,,,,,,,,,,,,,,,,,
,,,,,,,63a21141da58c1ee1deebe34,2023-08-06_08h26.06.724,HF_wild_card,2022.2.4,Win32,29.93026249,63a21141da58c1ee1deebe34,64ce5acb97489d65b14ecc7a,64cf4ae847e2f92054050e52,,,,,,,decisionTrl,resources/DG.BMP,resources/DP.BMP,Door3,0.33148151,-0.062037044,1,0,0,1.9959,optionRight,70,1785,1,38,0,38,0,1,,,,,,,,,,,,,,,,,,,,,,,,,,,,,,,,,,,,,,,
,,,,,,,63a21141da58c1ee1deebe34,2023-08-06_08h26.06.724,HF_wild_card,2022.2.4,Win32,29.93026249,63a21141da58c1ee1deebe34,64ce5acb97489d65b14ecc7a,64cf4ae847e2f92054050e52,,,,,,,decisionTrl,resources/DG.BMP,resources/DP.BMP,Door3,0.387963048,-0.048148155,1,0,0,1.3303,optionRight,70,1855,1,39,0,39,0,1,,,,,,,,,,,,,,,,,,,,,,,,,,,,,,,,,,,,,,,
,,,,,,,63a21141da58c1ee1deebe34,2023-08-06_08h26.06.724,HF_wild_card,2022.2.4,Win32,29.93026249,63a21141da58c1ee1deebe34,64ce5acb97489d65b14ecc7a,64cf4ae847e2f92054050e52,,,,,,,sngl,resources/Empty.png,resources/DP.BMP,Door3,0.420370455,-0.011111118,1,0,0,1.6975,optionRight,70,1925,1,40,0,40,0,1,,,,,,,,,,,,,,,,,,,,,,,,,,,,,,,,,,,,,,,
,,,,,,,63a21141da58c1ee1deebe34,2023-08-06_08h26.06.724,HF_wild_card,2022.2.4,Win32,29.93026249,63a21141da58c1ee1deebe34,64ce5acb97489d65b14ecc7a,64cf4ae847e2f92054050e52,,,,,,,ctch,resources/DY.BMP,resources/DG.BMP,Door1,-0.303703697,-0.022222236,1,0,0,2.7622,optionLeft,30,1955,1,41,0,41,0,1,,,,,,,,,,,,,,,,,,,,,,,,,,,,,,,,,,,,,,,
,,,,,,,63a21141da58c1ee1deebe34,2023-08-06_08h26.06.724,HF_wild_card,2022.2.4,Win32,29.93026249,63a21141da58c1ee1deebe34,64ce5acb97489d65b14ecc7a,64cf4ae847e2f92054050e52,,,,,,,ctch,resources/DP.BMP,resources/DR.BMP,Door3,-0.344444452,-0.019444466,1,0,0,1.1969,optionLeft,70,2025,1,42,0,42,0,1,,,,,,,,,,,,,,,,,,,,,,,,,,,,,,,,,,,,,,,
,,,,,,,63a21141da58c1ee1deebe34,2023-08-06_08h26.06.724,HF_wild_card,2022.2.4,Win32,29.93026249,63a21141da58c1ee1deebe34,64ce5acb97489d65b14ecc7a,64cf4ae847e2f92054050e52,,,,,,,sngl,resources/Empty.png,resources/DBN.BMP,WildCard_Ex,0.381481453,0.053703697,1,0,0,1.9791,optionRight,5,2030,1,43,0,43,0,1,,,,,,,,,,,,,,,,,,,,,,,,,,,,,,,,,,,,,,,
,,,,,,,63a21141da58c1ee1deebe34,2023-08-06_08h26.06.724,HF_wild_card,2022.2.4,Win32,29.93026249,63a21141da58c1ee1deebe34,64ce5acb97489d65b14ecc7a,64cf4ae847e2f92054050e52,,,,,,,,,,,,,,,,,,,,,,,,,,0,0,0,0,1,,,,,,,,,,,,,,,,,,,,,,,,,,,,,,,,,,
,,,,,,,63a21141da58c1ee1deebe34,2023-08-06_08h26.06.724,HF_wild_card,2022.2.4,Win32,29.93026249,63a21141da58c1ee1deebe34,64ce5acb97489d65b14ecc7a,64cf4ae847e2f92054050e52,,,,,,,sngl,resources/DBN.BMP,resources/Empty.png,WildCard_Ex,-0.317592586,-0.093518504,1,0,0,0.975,optionLeft,95,2125,2,0,0,0,0,1,,,,,,,,,,,,,,,,,,,,,,,,,,,,,,,,,,,,,,,
,,,,,,,63a21141da58c1ee1deebe34,2023-08-06_08h26.06.724,HF_wild_card,2022.2.4,Win32,29.93026249,63a21141da58c1ee1deebe34,64ce5acb97489d65b14ecc7a,64cf4ae847e2f92054050e52,,,,,,,decisionTrl,resources/DG.BMP,resources/DP.BMP,Door3,0.341666751,-0.027777778,1,0,0,1.2793,optionRight,70,2195,2,1,0,1,0,1,,,,,,,,,,,,,,,,,,,,,,,,,,,,,,,,,,,,,,,
,,,,,,,63a21141da58c1ee1deebe34,2023-08-06_08h26.06.724,HF_wild_card,2022.2.4,Win32,29.93026249,63a21141da58c1ee1deebe34,64ce5acb97489d65b14ecc7a,64cf4ae847e2f92054050e52,,,,,,,sngl,resources/Empty.png,resources/DY.BMP,Door1,0.373148176,0.012962942,1,0,0,1.5615,optionRight,30,2225,2,2,0,2,0,1,,,,,,,,,,,,,,,,,,,,,,,,,,,,,,,,,,,,,,,
,,,,,,,63a21141da58c1ee1deebe34,2023-08-06_08h26.06.724,HF_wild_card,2022.2.4,Win32,29.93026249,63a21141da58c1ee1deebe34,64ce5acb97489d65b14ecc7a,64cf4ae847e2f92054050e52,,,,,,,decisionTrl,resources/DG.BMP,resources/DBN.BMP,WildCard_Ex,0.391666695,0.021296289,1,0,0,1.0432,optionRight,95,2320,2,3,0,3,0,1,,,,,,,,,,,,,,,,,,,,,,,,,,,,,,,,,,,,,,,
,,,,,,,63a21141da58c1ee1deebe34,2023-08-06_08h26.06.724,HF_wild_card,2022.2.4,Win32,29.93026249,63a21141da58c1ee1deebe34,64ce5acb97489d65b14ecc7a,64cf4ae847e2f92054050e52,,,,,,,sngl,resources/DY.BMP,resources/Empty.png,Door1,-0.324074074,-0.002777771,1,0,0,1.7468,optionLeft,30,2350,2,4,0,4,0,1,,,,,,,,,,,,,,,,,,,,,,,,,,,,,,,,,,,,,,,
,,,,,,,63a21141da58c1ee1deebe34,2023-08-06_08h26.06.724,HF_wild_card,2022.2.4,Win32,29.93026249,63a21141da58c1ee1deebe34,64ce5acb97489d65b14ecc7a,64cf4ae847e2f92054050e52,,,,,,,ctch,resources/DP.BMP,resources/DR.BMP,Door3,-0.287962949,-0.014814836,1,0,0,1.3775,optionLeft,70,2420,2,5,0,5,0,1,,,,,,,,,,,,,,,,,,,,,,,,,,,,,,,,,,,,,,,
,,,,,,,63a21141da58c1ee1deebe34,2023-08-06_08h26.06.724,HF_wild_card,2022.2.4,Win32,29.93026249,63a21141da58c1ee1deebe34,64ce5acb97489d65b14ecc7a,64cf4ae847e2f92054050e52,,,,,,,ctch,resources/DY.BMP,resources/DG.BMP,Door1,-0.378703683,-0.014814836,1,0,0,1.0117,optionLeft,30,2450,2,6,0,6,0,1,,,,,,,,,,,,,,,,,,,,,,,,,,,,,,,,,,,,,,,
,,,,,,,63a21141da58c1ee1deebe34,2023-08-06_08h26.06.724,HF_wild_card,2022.2.4,Win32,29.93026249,63a21141da58c1ee1deebe34,64ce5acb97489d65b14ecc7a,64cf4ae847e2f92054050e52,,,,,,,decisionTrl,resources/DBN.BMP,resources/DP.BMP,WildCard_Ex,-0.327777757,-0.015740748,1,0,0,1.1458,optionLeft,5,2455,2,7,0,7,0,1,,,,,,,,,,,,,,,,,,,,,,,,,,,,,,,,,,,,,,,
,,,,,,,63a21141da58c1ee1deebe34,2023-08-06_08h26.06.724,HF_wild_card,2022.2.4,Win32,29.93026249,63a21141da58c1ee1deebe34,64ce5acb97489d65b14ecc7a,64cf4ae847e2f92054050e52,,,,,,,decisionTrl,resources/DBN.BMP,resources/DY.BMP,WildCard_Ex,-0.386111118,-0.01666666,1,0,0,1.2132,optionLeft,95,2550,2,8,0,8,0,1,,,,,,,,,,,,,,,,,,,,,,,,,,,,,,,,,,,,,,,
,,,,,,,63a21141da58c1ee1deebe34,2023-08-06_08h26.06.724,HF_wild_card,2022.2.4,Win32,29.93026249,63a21141da58c1ee1deebe34,64ce5acb97489d65b14ecc7a,64cf4ae847e2f92054050e52,,,,,,,decisionTrl,resources/DR.BMP,resources/DY.BMP,Door1,0.262962977,-0.026851866,1,0,0,1.2624,optionRight,30,2580,2,9,0,9,0,1,,,,,,,,,,,,,,,,,,,,,,,,,,,,,,,,,,,,,,,
,,,,,,,63a21141da58c1ee1deebe34,2023-08-06_08h26.06.724,HF_wild_card,2022.2.4,Win32,29.93026249,63a21141da58c1ee1deebe34,64ce5acb97489d65b14ecc7a,64cf4ae847e2f92054050e52,,,,,,,decisionTrl,resources/DY.BMP,resources/DR.BMP,Door1,-0.244444459,-0.026851866,1,0,0,1.2292,optionLeft,30,2610,2,10,0,10,0,1,,,,,,,,,,,,,,,,,,,,,,,,,,,,,,,,,,,,,,,
,,,,,,,63a21141da58c1ee1deebe34,2023-08-06_08h26.06.724,HF_wild_card,2022.2.4,Win32,29.93026249,63a21141da58c1ee1deebe34,64ce5acb97489d65b14ecc7a,64cf4ae847e2f92054050e52,,,,,,,decisionTrl,resources/DP.BMP,resources/DG.BMP,Door3,-0.300925926,-0.013888889,1,0,0,1.1452,optionLeft,70,2680,2,11,0,11,0,1,,,,,,,,,,,,,,,,,,,,,,,,,,,,,,,,,,,,,,,
,,,,,,,63a21141da58c1ee1deebe34,2023-08-06_08h26.06.724,HF_wild_card,2022.2.4,Win32,29.93026249,63a21141da58c1ee1deebe34,64ce5acb97489d65b14ecc7a,64cf4ae847e2f92054050e52,,,,,,,decisionTrl,resources/DG.BMP,resources/DP.BMP,Door3,0.240740741,-0.025925919,1,0,0,2.4286,optionRight,70,2750,2,12,0,12,0,1,,,,,,,,,,,,,,,,,,,,,,,,,,,,,,,,,,,,,,,
,,,,,,,63a21141da58c1ee1deebe34,2023-08-06_08h26.06.724,HF_wild_card,2022.2.4,Win32,29.93026249,63a21141da58c1ee1deebe34,64ce5acb97489d65b14ecc7a,64cf4ae847e2f92054050e52,,,,,,,decisionTrl,resources/DY.BMP,resources/DR.BMP,Door1,-0.271296254,0.005555541,1,0,0,1.1294,optionLeft,30,2780,2,13,0,13,0,1,,,,,,,,,,,,,,,,,,,,,,,,,,,,,,,,,,,,,,,
,,,,,,,63a21141da58c1ee1deebe34,2023-08-06_08h26.06.724,HF_wild_card,2022.2.4,Win32,29.93026249,63a21141da58c1ee1deebe34,64ce5acb97489d65b14ecc7a,64cf4ae847e2f92054050e52,,,,,,,decisionTrl,resources/DP.BMP,resources/DG.BMP,Door3,-0.352777764,-0.018518519,1,0,0,1.1452,optionLeft,70,2850,2,14,0,14,0,1,,,,,,,,,,,,,,,,,,,,,,,,,,,,,,,,,,,,,,,
,,,,,,,63a21141da58c1ee1deebe34,2023-08-06_08h26.06.724,HF_wild_card,2022.2.4,Win32,29.93026249,63a21141da58c1ee1deebe34,64ce5acb97489d65b14ecc7a,64cf4ae847e2f92054050e52,,,,,,,decisionTrl,resources/DBN.BMP,resources/DR.BMP,WildCard_Ex,-0.255555541,-0.075000021,1,0,0,1.1286,optionLeft,95,2945,2,15,0,15,0,1,,,,,,,,,,,,,,,,,,,,,,,,,,,,,,,,,,,,,,,
,,,,,,,63a21141da58c1ee1deebe34,2023-08-06_08h26.06.724,HF_wild_card,2022.2.4,Win32,29.93026249,63a21141da58c1ee1deebe34,64ce5acb97489d65b14ecc7a,64cf4ae847e2f92054050e52,,,,,,,sngl,resources/Empty.png,resources/DR.BMP,Door2,0.362962935,-0.003703718,1,0,0,1.2969,optionRight,40,2985,2,16,0,16,0,1,,,,,,,,,,,,,,,,,,,,,,,,,,,,,,,,,,,,,,,
,,,,,,,63a21141da58c1ee1deebe34,2023-08-06_08h26.06.724,HF_wild_card,2022.2.4,Win32,29.93026249,63a21141da58c1ee1deebe34,64ce5acb97489d65b14ecc7a,64cf4ae847e2f92054050e52,,,,,,,decisionTrl,resources/DP.BMP,resources/DG.BMP,Door3,-0.328703704,-0.017592607,1,0,0,1.2451,optionLeft,70,3055,2,17,0,17,0,1,,,,,,,,,,,,,,,,,,,,,,,,,,,,,,,,,,,,,,,
,,,,,,,63a21141da58c1ee1deebe34,2023-08-06_08h26.06.724,HF_wild_card,2022.2.4,Win32,29.93026249,63a21141da58c1ee1deebe34,64ce5acb97489d65b14ecc7a,64cf4ae847e2f92054050e52,,,,,,,ctch,resources/DP.BMP,resources/DR.BMP,Door3,-0.305555556,-0.000925947,1,0,0,0.995,optionLeft,70,3125,2,18,0,18,0,1,,,,,,,,,,,,,,,,,,,,,,,,,,,,,,,,,,,,,,,
,,,,,,,63a21141da58c1ee1deebe34,2023-08-06_08h26.06.724,HF_wild_card,2022.2.4,Win32,29.93026249,63a21141da58c1ee1deebe34,64ce5acb97489d65b14ecc7a,64cf4ae847e2f92054050e52,,,,,,,sngl,resources/Empty.png,resources/DP.BMP,Door3,0.314814815,-0.012962977,1,0,0,1.1287,optionRight,70,3195,2,19,0,19,0,1,,,,,,,,,,,,,,,,,,,,,,,,,,,,,,,,,,,,,,,
,,,,,,,63a21141da58c1ee1deebe34,2023-08-06_08h26.06.724,HF_wild_card,2022.2.4,Win32,29.93026249,63a21141da58c1ee1deebe34,64ce5acb97489d65b14ecc7a,64cf4ae847e2f92054050e52,,,,,,,decisionTrl,resources/DBN.BMP,resources/DG.BMP,WildCard_Ex,-0.24537037,0.0074074,1,0,0,1.0454,optionLeft,95,3290,2,20,0,20,0,1,,,,,,,,,,,,,,,,,,,,,,,,,,,,,,,,,,,,,,,
,,,,,,,63a21141da58c1ee1deebe34,2023-08-06_08h26.06.724,HF_wild_card,2022.2.4,Win32,29.93026249,63a21141da58c1ee1deebe34,64ce5acb97489d65b14ecc7a,64cf4ae847e2f92054050e52,,,,,,,decisionTrl,resources/DR.BMP,resources/DBN.BMP,WildCard_Ex,0.320370427,0.011111118,1,0,0,3.2288,optionRight,95,3385,2,21,0,21,0,1,,,,,,,,,,,,,,,,,,,,,,,,,,,,,,,,,,,,,,,
,,,,,,,63a21141da58c1ee1deebe34,2023-08-06_08h26.06.724,HF_wild_card,2022.2.4,Win32,29.93026249,63a21141da58c1ee1deebe34,64ce5acb97489d65b14ecc7a,64cf4ae847e2f92054050e52,,,,,,,sngl,resources/Empty.png,resources/DBN.BMP,WildCard_Ex,0.419444473,0.011111118,1,0,0,1.0453,optionRight,5,3390,2,22,0,22,0,1,,,,,,,,,,,,,,,,,,,,,,,,,,,,,,,,,,,,,,,
,,,,,,,63a21141da58c1ee1deebe34,2023-08-06_08h26.06.724,HF_wild_card,2022.2.4,Win32,29.93026249,63a21141da58c1ee1deebe34,64ce5acb97489d65b14ecc7a,64cf4ae847e2f92054050e52,,,,,,,decisionTrl,resources/DP.BMP,resources/DBN.BMP,WildCard_Ex,0.367592564,0.013888889,1,0,0,1.0958,optionRight,5,3395,2,23,0,23,0,1,,,,,,,,,,,,,,,,,,,,,,,,,,,,,,,,,,,,,,,
,,,,,,,63a21141da58c1ee1deebe34,2023-08-06_08h26.06.724,HF_wild_card,2022.2.4,Win32,29.93026249,63a21141da58c1ee1deebe34,64ce5acb97489d65b14ecc7a,64cf4ae847e2f92054050e52,,,,,,,sngl,resources/Empty.png,resources/DBN.BMP,WildCard_Ex,0.374074159,0.029629637,1,0,0,1.0289,optionRight,95,3490,2,24,0,24,0,1,,,,,,,,,,,,,,,,,,,,,,,,,,,,,,,,,,,,,,,
,,,,,,,63a21141da58c1ee1deebe34,2023-08-06_08h26.06.724,HF_wild_card,2022.2.4,Win32,29.93026249,63a21141da58c1ee1deebe34,64ce5acb97489d65b14ecc7a,64cf4ae847e2f92054050e52,,,,,,,sngl,resources/DP.BMP,resources/Empty.png,Door3,-0.284259231,0.000925912,1,0,0,1.4453,optionLeft,70,3560,2,25,0,25,0,1,,,,,,,,,,,,,,,,,,,,,,,,,,,,,,,,,,,,,,,
,,,,,,,63a21141da58c1ee1deebe34,2023-08-06_08h26.06.724,HF_wild_card,2022.2.4,Win32,29.93026249,63a21141da58c1ee1deebe34,64ce5acb97489d65b14ecc7a,64cf4ae847e2f92054050e52,,,,,,,sngl,resources/DG.BMP,resources/Empty.png,Door4,-0.246296282,-0.030555548,1,0,0,1.6292,optionLeft,60,3620,2,26,0,26,0,1,,,,,,,,,,,,,,,,,,,,,,,,,,,,,,,,,,,,,,,
,,,,,,,63a21141da58c1ee1deebe34,2023-08-06_08h26.06.724,HF_wild_card,2022.2.4,Win32,29.93026249,63a21141da58c1ee1deebe34,64ce5acb97489d65b14ecc7a,64cf4ae847e2f92054050e52,,,,,,,decisionTrl,resources/DR.BMP,resources/DY.BMP,Door1,0.321296268,-0.032407407,1,0,0,1.3615,optionRight,30,3650,2,27,0,27,0,1,,,,,,,,,,,,,,,,,,,,,,,,,,,,,,,,,,,,,,,
,,,,,,,63a21141da58c1ee1deebe34,2023-08-06_08h26.06.724,HF_wild_card,2022.2.4,Win32,29.93026249,63a21141da58c1ee1deebe34,64ce5acb97489d65b14ecc7a,64cf4ae847e2f92054050e52,,,,,,,ctch,resources/DY.BMP,resources/DG.BMP,Door1,-0.273148148,-0.000925947,1,0,0,1.1799,optionLeft,30,3680,2,28,0,28,0,1,,,,,,,,,,,,,,,,,,,,,,,,,,,,,,,,,,,,,,,
,,,,,,,63a21141da58c1ee1deebe34,2023-08-06_08h26.06.724,HF_wild_card,2022.2.4,Win32,29.93026249,63a21141da58c1ee1deebe34,64ce5acb97489d65b14ecc7a,64cf4ae847e2f92054050e52,,,,,,,sngl,resources/DBN.BMP,resources/Empty.png,WildCard_Ex,-0.287037037,-0.000925947,1,0,0,0.9445,optionLeft,5,3685,2,29,0,29,0,1,,,,,,,,,,,,,,,,,,,,,,,,,,,,,,,,,,,,,,,
,,,,,,,63a21141da58c1ee1deebe34,2023-08-06_08h26.06.724,HF_wild_card,2022.2.4,Win32,29.93026249,63a21141da58c1ee1deebe34,64ce5acb97489d65b14ecc7a,64cf4ae847e2f92054050e52,,,,,,,ctch,resources/DG.BMP,resources/DY.BMP,Door1,0.292592578,-0.029629637,1,0,0,0.9953,optionRight,30,3715,2,30,0,30,0,1,,,,,,,,,,,,,,,,,,,,,,,,,,,,,,,,,,,,,,,
,,,,,,,63a21141da58c1ee1deebe34,2023-08-06_08h26.06.724,HF_wild_card,2022.2.4,Win32,29.93026249,63a21141da58c1ee1deebe34,64ce5acb97489d65b14ecc7a,64cf4ae847e2f92054050e52,,,,,,,decisionTrl,resources/DR.BMP,resources/DY.BMP,Door2,-0.331481474,-0.005555577,1,0,0,1.512,optionLeft,40,3755,2,31,0,31,0,1,,,,,,,,,,,,,,,,,,,,,,,,,,,,,,,,,,,,,,,
,,,,,,,63a21141da58c1ee1deebe34,2023-08-06_08h26.06.724,HF_wild_card,2022.2.4,Win32,29.93026249,63a21141da58c1ee1deebe34,64ce5acb97489d65b14ecc7a,64cf4ae847e2f92054050e52,,,,,,,decisionTrl,resources/DP.BMP,resources/DG.BMP,Door3,-0.437037044,-0.028703725,1,0,0,1.067,optionLeft,70,3825,2,32,0,32,0,1,,,,,,,,,,,,,,,,,,,,,,,,,,,,,,,,,,,,,,,
,,,,,,,63a21141da58c1ee1deebe34,2023-08-06_08h26.06.724,HF_wild_card,2022.2.4,Win32,29.93026249,63a21141da58c1ee1deebe34,64ce5acb97489d65b14ecc7a,64cf4ae847e2f92054050e52,,,,,,,decisionTrl,resources/DY.BMP,resources/DBN.BMP,WildCard_Ex,0.301851908,-0.019444466,1,0,0,1.3603,optionRight,5,3830,2,33,0,33,0,1,,,,,,,,,,,,,,,,,,,,,,,,,,,,,,,,,,,,,,,
,,,,,,,63a21141da58c1ee1deebe34,2023-08-06_08h26.06.724,HF_wild_card,2022.2.4,Win32,29.93026249,63a21141da58c1ee1deebe34,64ce5acb97489d65b14ecc7a,64cf4ae847e2f92054050e52,,,,,,,decisionTrl,resources/DY.BMP,resources/DR.BMP,Door1,-0.356481481,-0.01203703,1,0,0,1.1794,optionLeft,30,3860,2,34,0,34,0,1,,,,,,,,,,,,,,,,,,,,,,,,,,,,,,,,,,,,,,,
,,,,,,,63a21141da58c1ee1deebe34,2023-08-06_08h26.06.724,HF_wild_card,2022.2.4,Win32,29.93026249,63a21141da58c1ee1deebe34,64ce5acb97489d65b14ecc7a,64cf4ae847e2f92054050e52,,,,,,,decisionTrl,resources/DR.BMP,resources/DY.BMP,Door1,0.320370427,-0.034259266,1,0,0,1.4292,optionRight,30,3890,2,35,0,35,0,1,,,,,,,,,,,,,,,,,,,,,,,,,,,,,,,,,,,,,,,
,,,,,,,63a21141da58c1ee1deebe34,2023-08-06_08h26.06.724,HF_wild_card,2022.2.4,Win32,29.93026249,63a21141da58c1ee1deebe34,64ce5acb97489d65b14ecc7a,64cf4ae847e2f92054050e52,,,,,,,ctch,resources/DR.BMP,resources/DP.BMP,Door3,0.264814801,-0.033333355,1,0,0,1.1449,optionRight,70,3960,2,36,0,36,0,1,,,,,,,,,,,,,,,,,,,,,,,,,,,,,,,,,,,,,,,
,,,,,,,63a21141da58c1ee1deebe34,2023-08-06_08h26.06.724,HF_wild_card,2022.2.4,Win32,29.93026249,63a21141da58c1ee1deebe34,64ce5acb97489d65b14ecc7a,64cf4ae847e2f92054050e52,,,,,,,sngl,resources/DR.BMP,resources/Empty.png,Door2,-0.289814772,-0.00462963,1,0,0,1.146,optionLeft,20,3980,2,37,0,37,0,1,,,,,,,,,,,,,,,,,,,,,,,,,,,,,,,,,,,,,,,
,,,,,,,63a21141da58c1ee1deebe34,2023-08-06_08h26.06.724,HF_wild_card,2022.2.4,Win32,29.93026249,63a21141da58c1ee1deebe34,64ce5acb97489d65b14ecc7a,64cf4ae847e2f92054050e52,,,,,,,ctch,resources/DG.BMP,resources/DY.BMP,Door1,0.290740755,-0.000925947,1,0,0,1.1457,optionRight,30,4010,2,38,0,38,0,1,,,,,,,,,,,,,,,,,,,,,,,,,,,,,,,,,,,,,,,
,,,,,,,63a21141da58c1ee1deebe34,2023-08-06_08h26.06.724,HF_wild_card,2022.2.4,Win32,29.93026249,63a21141da58c1ee1deebe34,64ce5acb97489d65b14ecc7a,64cf4ae847e2f92054050e52,,,,,,,ctch,resources/DR.BMP,resources/DP.BMP,Door3,0.276851866,-0.012962977,1,0,0,1.2125,optionRight,70,4080,2,39,0,39,0,1,,,,,,,,,,,,,,,,,,,,,,,,,,,,,,,,,,,,,,,
,,,,,,,63a21141da58c1ee1deebe34,2023-08-06_08h26.06.724,HF_wild_card,2022.2.4,Win32,29.93026249,63a21141da58c1ee1deebe34,64ce5acb97489d65b14ecc7a,64cf4ae847e2f92054050e52,,,,,,,sngl,resources/Empty.png,resources/DG.BMP,Door4,0.309259344,-0.008333347,1,0,0,1.4955,optionRight,80,4160,2,40,0,40,0,1,,,,,,,,,,,,,,,,,,,,,,,,,,,,,,,,,,,,,,,
,,,,,,,63a21141da58c1ee1deebe34,2023-08-06_08h26.06.724,HF_wild_card,2022.2.4,Win32,29.93026249,63a21141da58c1ee1deebe34,64ce5acb97489d65b14ecc7a,64cf4ae847e2f92054050e52,,,,,,,decisionTrl,resources/DG.BMP,resources/DP.BMP,Door3,0.325000057,-0.014814836,1,0,0,1.0782,optionRight,70,4230,2,41,0,41,0,1,,,,,,,,,,,,,,,,,,,,,,,,,,,,,,,,,,,,,,,
,,,,,,,63a21141da58c1ee1deebe34,2023-08-06_08h26.06.724,HF_wild_card,2022.2.4,Win32,29.93026249,63a21141da58c1ee1deebe34,64ce5acb97489d65b14ecc7a,64cf4ae847e2f92054050e52,,,,,,,decisionTrl,resources/DY.BMP,resources/DR.BMP,Door1,-0.264814801,-0.008333347,1,0,0,1.2442,optionLeft,30,4260,2,42,0,42,0,1,,,,,,,,,,,,,,,,,,,,,,,,,,,,,,,,,,,,,,,
,,,,,,,63a21141da58c1ee1deebe34,2023-08-06_08h26.06.724,HF_wild_card,2022.2.4,Win32,29.93026249,63a21141da58c1ee1deebe34,64ce5acb97489d65b14ecc7a,64cf4ae847e2f92054050e52,,,,,,,decisionTrl,resources/DG.BMP,resources/DP.BMP,Door3,0.292592578,-0.025000007,1,0,0,1.1454,optionRight,70,4330,2,43,0,43,0,1,,,,,,,,,,,,,,,,,,,,,,,,,,,,,,,,,,,,,,,
,,,,,,,63a21141da58c1ee1deebe34,2023-08-06_08h26.06.724,HF_wild_card,2022.2.4,Win32,29.93026249,63a21141da58c1ee1deebe34,64ce5acb97489d65b14ecc7a,64cf4ae847e2f92054050e52,,,,,,,,,,,,,,,,,,,,,,,,,,1,0,1,0,1,,,,,,,,,,,,,,,,,,,,,,,,,,,,,,,,,,
,,,,,,,63a21141da58c1ee1deebe34,2023-08-06_08h26.06.724,HF_wild_card,2022.2.4,Win32,29.93026249,63a21141da58c1ee1deebe34,64ce5acb97489d65b14ecc7a,64cf4ae847e2f92054050e52,,,,,,,decisionTrl,resources/DP.BMP,resources/DG.BMP,Door3,-0.323148127,-0.092592593,1,0,0,2.0919,optionLeft,70,4400,3,0,0,0,0,1,,,,,,,,,,,,,,,,,,,,,,,,,,,,,,,,,,,,,,,
,,,,,,,63a21141da58c1ee1deebe34,2023-08-06_08h26.06.724,HF_wild_card,2022.2.4,Win32,29.93026249,63a21141da58c1ee1deebe34,64ce5acb97489d65b14ecc7a,64cf4ae847e2f92054050e52,,,,,,,ctch,resources/DP.BMP,resources/DR.BMP,Door3,-0.267592607,-0.062962956,1,0,0,1.829,optionLeft,70,4470,3,1,0,1,0,1,,,,,,,,,,,,,,,,,,,,,,,,,,,,,,,,,,,,,,,
,,,,,,,63a21141da58c1ee1deebe34,2023-08-06_08h26.06.724,HF_wild_card,2022.2.4,Win32,29.93026249,63a21141da58c1ee1deebe34,64ce5acb97489d65b14ecc7a,64cf4ae847e2f92054050e52,,,,,,,sngl,resources/DG.BMP,resources/Empty.png,Door4,-0.260185171,0.002777771,1,0,0,0.9958,optionLeft,80,4550,3,2,0,2,0,1,,,,,,,,,,,,,,,,,,,,,,,,,,,,,,,,,,,,,,,
,,,,,,,63a21141da58c1ee1deebe34,2023-08-06_08h26.06.724,HF_wild_card,2022.2.4,Win32,29.93026249,63a21141da58c1ee1deebe34,64ce5acb97489d65b14ecc7a,64cf4ae847e2f92054050e52,,,,,,,decisionTrl,resources/DR.BMP,resources/DY.BMP,Door1,0.429629714,-0.015740748,1,0,0,1.129,optionRight,30,4580,3,3,0,3,0,1,,,,,,,,,,,,,,,,,,,,,,,,,,,,,,,,,,,,,,,
,,,,,,,63a21141da58c1ee1deebe34,2023-08-06_08h26.06.724,HF_wild_card,2022.2.4,Win32,29.93026249,63a21141da58c1ee1deebe34,64ce5acb97489d65b14ecc7a,64cf4ae847e2f92054050e52,,,,,,,decisionTrl,resources/DBN.BMP,resources/DP.BMP,WildCard_Ex,-0.284259231,-0.017592607,1,0,0,0.9975,optionLeft,5,4585,3,4,0,4,0,1,,,,,,,,,,,,,,,,,,,,,,,,,,,,,,,,,,,,,,,
,,,,,,,63a21141da58c1ee1deebe34,2023-08-06_08h26.06.724,HF_wild_card,2022.2.4,Win32,29.93026249,63a21141da58c1ee1deebe34,64ce5acb97489d65b14ecc7a,64cf4ae847e2f92054050e52,,,,,,,sngl,resources/DBN.BMP,resources/Empty.png,WildCard_Ex,-0.256481453,0.011111118,1,0,0,0.8792,optionLeft,5,4590,3,5,0,5,0,1,,,,,,,,,,,,,,,,,,,,,,,,,,,,,,,,,,,,,,,
,,,,,,,63a21141da58c1ee1deebe34,2023-08-06_08h26.06.724,HF_wild_card,2022.2.4,Win32,29.93026249,63a21141da58c1ee1deebe34,64ce5acb97489d65b14ecc7a,64cf4ae847e2f92054050e52,,,,,,,sngl,resources/DP.BMP,resources/Empty.png,Door3,-0.299074067,-0.005555577,1,0,0,1.6289,optionLeft,70,4660,3,6,0,6,0,1,,,,,,,,,,,,,,,,,,,,,,,,,,,,,,,,,,,,,,,
,,,,,,,63a21141da58c1ee1deebe34,2023-08-06_08h26.06.724,HF_wild_card,2022.2.4,Win32,29.93026249,63a21141da58c1ee1deebe34,64ce5acb97489d65b14ecc7a,64cf4ae847e2f92054050e52,,,,,,,sngl,resources/DR.BMP,resources/Empty.png,Door2,-0.243518476,0.011111118,1,0,0,1.1614,optionLeft,40,4700,3,7,0,7,0,1,,,,,,,,,,,,,,,,,,,,,,,,,,,,,,,,,,,,,,,
,,,,,,,63a21141da58c1ee1deebe34,2023-08-06_08h26.06.724,HF_wild_card,2022.2.4,Win32,29.93026249,63a21141da58c1ee1deebe34,64ce5acb97489d65b14ecc7a,64cf4ae847e2f92054050e52,,,,,,,sngl,resources/Empty.png,resources/DG.BMP,Door4,0.340740769,-0.005555577,1,0,0,1.6294,optionRight,60,4760,3,8,0,8,0,1,,,,,,,,,,,,,,,,,,,,,,,,,,,,,,,,,,,,,,,
,,,,,,,63a21141da58c1ee1deebe34,2023-08-06_08h26.06.724,HF_wild_card,2022.2.4,Win32,29.93026249,63a21141da58c1ee1deebe34,64ce5acb97489d65b14ecc7a,64cf4ae847e2f92054050e52,,,,,,,decisionTrl,resources/DY.BMP,resources/DR.BMP,Door1,-0.189814815,-0.01203703,1,0,0,2.012,optionLeft,30,4790,3,9,0,9,0,1,,,,,,,,,,,,,,,,,,,,,,,,,,,,,,,,,,,,,,,
,,,,,,,63a21141da58c1ee1deebe34,2023-08-06_08h26.06.724,HF_wild_card,2022.2.4,Win32,29.93026249,63a21141da58c1ee1deebe34,64ce5acb97489d65b14ecc7a,64cf4ae847e2f92054050e52,,,,,,,decisionTrl,resources/DG.BMP,resources/DP.BMP,Door4,-0.233333305,-0.005555577,1,0,0,1.2954,optionLeft,80,4870,3,10,0,10,0,1,,,,,,,,,,,,,,,,,,,,,,,,,,,,,,,,,,,,,,,
,,,,,,,63a21141da58c1ee1deebe34,2023-08-06_08h26.06.724,HF_wild_card,2022.2.4,Win32,29.93026249,63a21141da58c1ee1deebe34,64ce5acb97489d65b14ecc7a,64cf4ae847e2f92054050e52,,,,,,,decisionTrl,resources/DP.BMP,resources/DG.BMP,Door4,0.293518561,0.005555541,1,0,0,1.2132,optionRight,80,4950,3,11,0,11,0,1,,,,,,,,,,,,,,,,,,,,,,,,,,,,,,,,,,,,,,,
,,,,,,,63a21141da58c1ee1deebe34,2023-08-06_08h26.06.724,HF_wild_card,2022.2.4,Win32,29.93026249,63a21141da58c1ee1deebe34,64ce5acb97489d65b14ecc7a,64cf4ae847e2f92054050e52,,,,,,,decisionTrl,resources/DY.BMP,resources/DBN.BMP,Door1,-0.354629623,-0.010185206,1,0,0,1.8617,optionLeft,30,4980,3,12,0,12,0,1,,,,,,,,,,,,,,,,,,,,,,,,,,,,,,,,,,,,,,,
,,,,,,,63a21141da58c1ee1deebe34,2023-08-06_08h26.06.724,HF_wild_card,2022.2.4,Win32,29.93026249,63a21141da58c1ee1deebe34,64ce5acb97489d65b14ecc7a,64cf4ae847e2f92054050e52,,,,,,,ctch,resources/DG.BMP,resources/DY.BMP,Door4,-0.300925926,0,1,0,0,1.4956,optionLeft,60,5040,3,13,0,13,0,1,,,,,,,,,,,,,,,,,,,,,,,,,,,,,,,,,,,,,,,
,,,,,,,63a21141da58c1ee1deebe34,2023-08-06_08h26.06.724,HF_wild_card,2022.2.4,Win32,29.93026249,63a21141da58c1ee1deebe34,64ce5acb97489d65b14ecc7a,64cf4ae847e2f92054050e52,,,,,,,ctch,resources/DR.BMP,resources/DP.BMP,Door2,-0.256481453,0.009259259,1,0,0,1.129,optionLeft,40,5080,3,14,0,14,0,1,,,,,,,,,,,,,,,,,,,,,,,,,,,,,,,,,,,,,,,
,,,,,,,63a21141da58c1ee1deebe34,2023-08-06_08h26.06.724,HF_wild_card,2022.2.4,Win32,29.93026249,63a21141da58c1ee1deebe34,64ce5acb97489d65b14ecc7a,64cf4ae847e2f92054050e52,,,,,,,decisionTrl,resources/DR.BMP,resources/DY.BMP,Door1,0.212962963,0.009259259,1,0,0,0.9958,optionRight,30,5110,3,15,0,15,0,1,,,,,,,,,,,,,,,,,,,,,,,,,,,,,,,,,,,,,,,
,,,,,,,63a21141da58c1ee1deebe34,2023-08-06_08h26.06.724,HF_wild_card,2022.2.4,Win32,29.93026249,63a21141da58c1ee1deebe34,64ce5acb97489d65b14ecc7a,64cf4ae847e2f92054050e52,,,,,,,sngl,resources/Empty.png,resources/DBN.BMP,WildCard_Ex,0.32685188,0.005555541,1,0,0,1.1794,optionRight,95,5205,3,16,0,16,0,1,,,,,,,,,,,,,,,,,,,,,,,,,,,,,,,,,,,,,,,
,,,,,,,63a21141da58c1ee1deebe34,2023-08-06_08h26.06.724,HF_wild_card,2022.2.4,Win32,29.93026249,63a21141da58c1ee1deebe34,64ce5acb97489d65b14ecc7a,64cf4ae847e2f92054050e52,,,,,,,decisionTrl,resources/DP.BMP,resources/DBN.BMP,Door3,-0.314814815,-0.030555548,1,0,0,1.6126,optionLeft,70,5275,3,17,0,17,0,1,,,,,,,,,,,,,,,,,,,,,,,,,,,,,,,,,,,,,,,
,,,,,,,63a21141da58c1ee1deebe34,2023-08-06_08h26.06.724,HF_wild_card,2022.2.4,Win32,29.93026249,63a21141da58c1ee1deebe34,64ce5acb97489d65b14ecc7a,64cf4ae847e2f92054050e52,,,,,,,decisionTrl,resources/DBN.BMP,resources/DR.BMP,WildCard_Ex,-0.287962949,0.003703683,1,0,0,1.0293,optionLeft,5,5280,3,18,0,18,0,1,,,,,,,,,,,,,,,,,,,,,,,,,,,,,,,,,,,,,,,
,,,,,,,63a21141da58c1ee1deebe34,2023-08-06_08h26.06.724,HF_wild_card,2022.2.4,Win32,29.93026249,63a21141da58c1ee1deebe34,64ce5acb97489d65b14ecc7a,64cf4ae847e2f92054050e52,,,,,,,sngl,resources/DY.BMP,resources/Empty.png,Door1,-0.283333319,-0.000925947,1,0,0,0.9124,optionLeft,30,5310,3,19,0,19,0,1,,,,,,,,,,,,,,,,,,,,,,,,,,,,,,,,,,,,,,,
,,,,,,,63a21141da58c1ee1deebe34,2023-08-06_08h26.06.724,HF_wild_card,2022.2.4,Win32,29.93026249,63a21141da58c1ee1deebe34,64ce5acb97489d65b14ecc7a,64cf4ae847e2f92054050e52,,,,,,,decisionTrl,resources/DR.BMP,resources/DY.BMP,Door1,0.199074074,-0.020370377,1,0,0,1.6789,optionRight,30,5340,3,20,0,20,0,1,,,,,,,,,,,,,,,,,,,,,,,,,,,,,,,,,,,,,,,
,,,,,,,63a21141da58c1ee1deebe34,2023-08-06_08h26.06.724,HF_wild_card,2022.2.4,Win32,29.93026249,63a21141da58c1ee1deebe34,64ce5acb97489d65b14ecc7a,64cf4ae847e2f92054050e52,,,,,,,decisionTrl,resources/DR.BMP,resources/DBN.BMP,Door2,0.006481524,0.009259259,1,0,0,0.63,optionLeft,20,5360,3,21,0,21,0,1,,,,,,,,,,,,,,,,,,,,,,,,,,,,,,,,,,,,,,,
,,,,,,,63a21141da58c1ee1deebe34,2023-08-06_08h26.06.724,HF_wild_card,2022.2.4,Win32,29.93026249,63a21141da58c1ee1deebe34,64ce5acb97489d65b14ecc7a,64cf4ae847e2f92054050e52,,,,,,,decisionTrl,resources/DR.BMP,resources/DY.BMP,Door1,0.284259302,0.00462963,1,0,0,0.9962,optionRight,30,5390,3,22,0,22,0,1,,,,,,,,,,,,,,,,,,,,,,,,,,,,,,,,,,,,,,,
,,,,,,,63a21141da58c1ee1deebe34,2023-08-06_08h26.06.724,HF_wild_card,2022.2.4,Win32,29.93026249,63a21141da58c1ee1deebe34,64ce5acb97489d65b14ecc7a,64cf4ae847e2f92054050e52,,,,,,,decisionTrl,resources/DBN.BMP,resources/DY.BMP,WildCard_Ex,-0.207407422,0.002777771,1,0,0,0.9295,optionLeft,5,5395,3,23,0,23,0,1,,,,,,,,,,,,,,,,,,,,,,,,,,,,,,,,,,,,,,,
,,,,,,,63a21141da58c1ee1deebe34,2023-08-06_08h26.06.724,HF_wild_card,2022.2.4,Win32,29.93026249,63a21141da58c1ee1deebe34,64ce5acb97489d65b14ecc7a,64cf4ae847e2f92054050e52,,,,,,,decisionTrl,resources/DG.BMP,resources/DBN.BMP,Door4,-0.276851866,-0.011111118,1,0,0,2.0452,optionLeft,80,5475,3,24,0,24,0,1,,,,,,,,,,,,,,,,,,,,,,,,,,,,,,,,,,,,,,,
,,,,,,,63a21141da58c1ee1deebe34,2023-08-06_08h26.06.724,HF_wild_card,2022.2.4,Win32,29.93026249,63a21141da58c1ee1deebe34,64ce5acb97489d65b14ecc7a,64cf4ae847e2f92054050e52,,,,,,,decisionTrl,resources/DBN.BMP,resources/DG.BMP,Door4,0.37037037,-0.023148148,1,0,0,1.2618,optionRight,60,5535,3,25,0,25,0,1,,,,,,,,,,,,,,,,,,,,,,,,,,,,,,,,,,,,,,,
,,,,,,,63a21141da58c1ee1deebe34,2023-08-06_08h26.06.724,HF_wild_card,2022.2.4,Win32,29.93026249,63a21141da58c1ee1deebe34,64ce5acb97489d65b14ecc7a,64cf4ae847e2f92054050e52,,,,,,,sngl,resources/DBN.BMP,resources/Empty.png,WildCard_Ex,-0.27407406,-0.013888889,1,0,0,1.5123,optionLeft,95,5630,3,26,0,26,0,1,,,,,,,,,,,,,,,,,,,,,,,,,,,,,,,,,,,,,,,
,,,,,,,63a21141da58c1ee1deebe34,2023-08-06_08h26.06.724,HF_wild_card,2022.2.4,Win32,29.93026249,63a21141da58c1ee1deebe34,64ce5acb97489d65b14ecc7a,64cf4ae847e2f92054050e52,,,,,,,sngl,resources/Empty.png,resources/DBN.BMP,WildCard_Ex,0.239814829,-0.005555577,1,0,0,1.0456,optionRight,5,5635,3,27,0,27,0,1,,,,,,,,,,,,,,,,,,,,,,,,,,,,,,,,,,,,,,,
,,,,,,,63a21141da58c1ee1deebe34,2023-08-06_08h26.06.724,HF_wild_card,2022.2.4,Win32,29.93026249,63a21141da58c1ee1deebe34,64ce5acb97489d65b14ecc7a,64cf4ae847e2f92054050e52,,,,,,,ctch,resources/DY.BMP,resources/DG.BMP,Door1,-0.277777778,-0.005555577,1,0,0,1.1283,optionLeft,30,5665,3,28,0,28,0,1,,,,,,,,,,,,,,,,,,,,,,,,,,,,,,,,,,,,,,,
,,,,,,,63a21141da58c1ee1deebe34,2023-08-06_08h26.06.724,HF_wild_card,2022.2.4,Win32,29.93026249,63a21141da58c1ee1deebe34,64ce5acb97489d65b14ecc7a,64cf4ae847e2f92054050e52,,,,,,,sngl,resources/Empty.png,resources/DR.BMP,Door2,0.246296282,-0.032407407,1,0,0,1.5453,optionRight,20,5685,3,29,0,29,0,1,,,,,,,,,,,,,,,,,,,,,,,,,,,,,,,,,,,,,,,
,,,,,,,63a21141da58c1ee1deebe34,2023-08-06_08h26.06.724,HF_wild_card,2022.2.4,Win32,29.93026249,63a21141da58c1ee1deebe34,64ce5acb97489d65b14ecc7a,64cf4ae847e2f92054050e52,,,,,,,sngl,resources/Empty.png,resources/DY.BMP,Door1,0.340740769,-0.024074095,1,0,0,1.6467,optionRight,30,5715,3,30,0,30,0,1,,,,,,,,,,,,,,,,,,,,,,,,,,,,,,,,,,,,,,,
,,,,,,,63a21141da58c1ee1deebe34,2023-08-06_08h26.06.724,HF_wild_card,2022.2.4,Win32,29.93026249,63a21141da58c1ee1deebe34,64ce5acb97489d65b14ecc7a,64cf4ae847e2f92054050e52,,,,,,,decisionTrl,resources/DG.BMP,resources/DP.BMP,Door3,0.249074088,-0.022222236,1,0,0,1.3464,optionRight,70,5785,3,31,0,31,0,1,,,,,,,,,,,,,,,,,,,,,,,,,,,,,,,,,,,,,,,
,,,,,,,63a21141da58c1ee1deebe34,2023-08-06_08h26.06.724,HF_wild_card,2022.2.4,Win32,29.93026249,63a21141da58c1ee1deebe34,64ce5acb97489d65b14ecc7a,64cf4ae847e2f92054050e52,,,,,,,sngl,resources/Empty.png,resources/DP.BMP,Door3,0.344444416,-0.000925947,1,0,0,1.029,optionRight,70,5855,3,32,0,32,0,1,,,,,,,,,,,,,,,,,,,,,,,,,,,,,,,,,,,,,,,
,,,,,,,63a21141da58c1ee1deebe34,2023-08-06_08h26.06.724,HF_wild_card,2022.2.4,Win32,29.93026249,63a21141da58c1ee1deebe34,64ce5acb97489d65b14ecc7a,64cf4ae847e2f92054050e52,,,,,,,decisionTrl,resources/DY.BMP,resources/DR.BMP,Door1,-0.212037051,-0.002777771,1,0,0,1.1952,optionLeft,30,5885,3,33,0,33,0,1,,,,,,,,,,,,,,,,,,,,,,,,,,,,,,,,,,,,,,,
,,,,,,,63a21141da58c1ee1deebe34,2023-08-06_08h26.06.724,HF_wild_card,2022.2.4,Win32,29.93026249,63a21141da58c1ee1deebe34,64ce5acb97489d65b14ecc7a,64cf4ae847e2f92054050e52,,,,,,,decisionTrl,resources/DP.BMP,resources/DG.BMP,Door4,0.27870369,-0.015740748,1,0,0,1.5792,optionRight,60,5945,3,34,0,34,0,1,,,,,,,,,,,,,,,,,,,,,,,,,,,,,,,,,,,,,,,
,,,,,,,63a21141da58c1ee1deebe34,2023-08-06_08h26.06.724,HF_wild_card,2022.2.4,Win32,29.93026249,63a21141da58c1ee1deebe34,64ce5acb97489d65b14ecc7a,64cf4ae847e2f92054050e52,,,,,,,decisionTrl,resources/DG.BMP,resources/DP.BMP,Door4,-0.191666638,-0.001851859,1,0,0,1.8619,optionLeft,60,6005,3,35,0,35,0,1,,,,,,,,,,,,,,,,,,,,,,,,,,,,,,,,,,,,,,,
,,,,,,,63a21141da58c1ee1deebe34,2023-08-06_08h26.06.724,HF_wild_card,2022.2.4,Win32,29.93026249,63a21141da58c1ee1deebe34,64ce5acb97489d65b14ecc7a,64cf4ae847e2f92054050e52,,,,,,,ctch,resources/DY.BMP,resources/DG.BMP,Door1,-0.258333347,-0.01203703,1,0,0,1.062,optionLeft,30,6035,3,36,0,36,0,1,,,,,,,,,,,,,,,,,,,,,,,,,,,,,,,,,,,,,,,
,,,,,,,63a21141da58c1ee1deebe34,2023-08-06_08h26.06.724,HF_wild_card,2022.2.4,Win32,29.93026249,63a21141da58c1ee1deebe34,64ce5acb97489d65b14ecc7a,64cf4ae847e2f92054050e52,,,,,,,decisionTrl,resources/DY.BMP,resources/DR.BMP,Door2,0.362962935,0.01203703,1,0,0,1.0787,optionRight,20,6055,3,37,0,37,0,1,,,,,,,,,,,,,,,,,,,,,,,,,,,,,,,,,,,,,,,
,,,,,,,63a21141da58c1ee1deebe34,2023-08-06_08h26.06.724,HF_wild_card,2022.2.4,Win32,29.93026249,63a21141da58c1ee1deebe34,64ce5acb97489d65b14ecc7a,64cf4ae847e2f92054050e52,,,,,,,decisionTrl,resources/DP.BMP,resources/DG.BMP,Door3,-0.223148134,-0.040740755,1,0,0,1.1122,optionLeft,70,6125,3,38,0,38,0,1,,,,,,,,,,,,,,,,,,,,,,,,,,,,,,,,,,,,,,,
,,,,,,,63a21141da58c1ee1deebe34,2023-08-06_08h26.06.724,HF_wild_card,2022.2.4,Win32,29.93026249,63a21141da58c1ee1deebe34,64ce5acb97489d65b14ecc7a,64cf4ae847e2f92054050e52,,,,,,,ctch,resources/DP.BMP,resources/DR.BMP,Door3,-0.176851838,-0.034259266,1,0,0,1.646,optionLeft,70,6195,3,39,0,39,0,1,,,,,,,,,,,,,,,,,,,,,,,,,,,,,,,,,,,,,,,
,,,,,,,63a21141da58c1ee1deebe34,2023-08-06_08h26.06.724,HF_wild_card,2022.2.4,Win32,29.93026249,63a21141da58c1ee1deebe34,64ce5acb97489d65b14ecc7a,64cf4ae847e2f92054050e52,,,,,,,ctch,resources/DR.BMP,resources/DP.BMP,Door3,0.247222265,-0.001851859,1,0,0,0.9453,optionRight,70,6265,3,40,0,40,0,1,,,,,,,,,,,,,,,,,,,,,,,,,,,,,,,,,,,,,,,
,,,,,,,63a21141da58c1ee1deebe34,2023-08-06_08h26.06.724,HF_wild_card,2022.2.4,Win32,29.93026249,63a21141da58c1ee1deebe34,64ce5acb97489d65b14ecc7a,64cf4ae847e2f92054050e52,,,,,,,decisionTrl,resources/DG.BMP,resources/DP.BMP,Door3,0.307407379,-0.012962977,1,0,0,1.0127,optionRight,70,6335,3,41,0,41,0,1,,,,,,,,,,,,,,,,,,,,,,,,,,,,,,,,,,,,,,,
,,,,,,,63a21141da58c1ee1deebe34,2023-08-06_08h26.06.724,HF_wild_card,2022.2.4,Win32,29.93026249,63a21141da58c1ee1deebe34,64ce5acb97489d65b14ecc7a,64cf4ae847e2f92054050e52,,,,,,,decisionTrl,resources/DY.BMP,resources/DR.BMP,Door2,0.257407436,0.015740748,1,0,0,1.9124,optionRight,40,6375,3,42,0,42,0,1,,,,,,,,,,,,,,,,,,,,,,,,,,,,,,,,,,,,,,,
,,,,,,,63a21141da58c1ee1deebe34,2023-08-06_08h26.06.724,HF_wild_card,2022.2.4,Win32,29.93026249,63a21141da58c1ee1deebe34,64ce5acb97489d65b14ecc7a,64cf4ae847e2f92054050e52,,,,,,,ctch,resources/DG.BMP,resources/DY.BMP,Door4,-0.247222194,-0.049074067,1,0,0,1.3454,optionLeft,80,6455,3,43,0,43,0,1,,,,,,,,,,,,,,,,,,,,,,,,,,,,,,,,,,,,,,,
,,,,,,,63a21141da58c1ee1deebe34,2023-08-06_08h26.06.724,HF_wild_card,2022.2.4,Win32,29.93026249,63a21141da58c1ee1deebe34,64ce5acb97489d65b14ecc7a,64cf4ae847e2f92054050e52,,,,,,,,,,,,,,,,,,,,,,,,,,2,0,2,0,1,,,,,,,,,,,,,,,,,,,,,,,,,,,,,,,,,,
,,,,,,,63a21141da58c1ee1deebe34,2023-08-06_08h26.06.724,HF_wild_card,2022.2.4,Win32,29.93026249,63a21141da58c1ee1deebe34,64ce5acb97489d65b14ecc7a,64cf4ae847e2f92054050e52,,,,,,,ctch,resources/DY.BMP,resources/DG.BMP,Door4,0.365740741,-0.089814822,1,0,0,1.8435,optionRight,60,6515,4,0,0,0,0,1,,,,,,,,,,,,,,,,,,,,,,,,,,,,,,,,,,,,,,,
,,,,,,,63a21141da58c1ee1deebe34,2023-08-06_08h26.06.724,HF_wild_card,2022.2.4,Win32,29.93026249,63a21141da58c1ee1deebe34,64ce5acb97489d65b14ecc7a,64cf4ae847e2f92054050e52,,,,,,,sngl,resources/DG.BMP,resources/Empty.png,Door4,-0.255555541,-0.037962984,1,0,0,1.1789,optionLeft,60,6575,4,1,0,1,0,1,,,,,,,,,,,,,,,,,,,,,,,,,,,,,,,,,,,,,,,
,,,,,,,63a21141da58c1ee1deebe34,2023-08-06_08h26.06.724,HF_wild_card,2022.2.4,Win32,29.93026249,63a21141da58c1ee1deebe34,64ce5acb97489d65b14ecc7a,64cf4ae847e2f92054050e52,,,,,,,ctch,resources/DG.BMP,resources/DY.BMP,Door4,-0.231481481,-0.042592614,1,0,0,1.2308,optionLeft,60,6635,4,2,0,2,0,1,,,,,,,,,,,,,,,,,,,,,,,,,,,,,,,,,,,,,,,
,,,,,,,63a21141da58c1ee1deebe34,2023-08-06_08h26.06.724,HF_wild_card,2022.2.4,Win32,29.93026249,63a21141da58c1ee1deebe34,64ce5acb97489d65b14ecc7a,64cf4ae847e2f92054050e52,,,,,,,decisionTrl,resources/DP.BMP,resources/DG.BMP,Door4,0.257407436,0.0074074,1,0,0,1.3944,optionRight,60,6695,4,3,0,3,0,1,,,,,,,,,,,,,,,,,,,,,,,,,,,,,,,,,,,,,,,
,,,,,,,63a21141da58c1ee1deebe34,2023-08-06_08h26.06.724,HF_wild_card,2022.2.4,Win32,29.93026249,63a21141da58c1ee1deebe34,64ce5acb97489d65b14ecc7a,64cf4ae847e2f92054050e52,,,,,,,ctch,resources/DY.BMP,resources/DG.BMP,Door4,0.335185157,0.034259266,1,0,0,1.1616,optionRight,80,6775,4,4,0,4,0,1,,,,,,,,,,,,,,,,,,,,,,,,,,,,,,,,,,,,,,,
,,,,,,,63a21141da58c1ee1deebe34,2023-08-06_08h26.06.724,HF_wild_card,2022.2.4,Win32,29.93026249,63a21141da58c1ee1deebe34,64ce5acb97489d65b14ecc7a,64cf4ae847e2f92054050e52,,,,,,,decisionTrl,resources/DG.BMP,resources/DP.BMP,Door4,-0.298148155,-0.061111132,1,0,0,0.9618,optionLeft,80,6855,4,5,0,5,0,1,,,,,,,,,,,,,,,,,,,,,,,,,,,,,,,,,,,,,,,
,,,,,,,63a21141da58c1ee1deebe34,2023-08-06_08h26.06.724,HF_wild_card,2022.2.4,Win32,29.93026249,63a21141da58c1ee1deebe34,64ce5acb97489d65b14ecc7a,64cf4ae847e2f92054050e52,,,,,,,decisionTrl,resources/DY.BMP,resources/DR.BMP,Door1,-0.213888875,-0.021296289,1,0,0,1.4953,optionLeft,30,6885,4,6,0,6,0,1,,,,,,,,,,,,,,,,,,,,,,,,,,,,,,,,,,,,,,,
,,,,,,,63a21141da58c1ee1deebe34,2023-08-06_08h26.06.724,HF_wild_card,2022.2.4,Win32,29.93026249,63a21141da58c1ee1deebe34,64ce5acb97489d65b14ecc7a,64cf4ae847e2f92054050e52,,,,,,,sngl,resources/DR.BMP,resources/Empty.png,Door2,-0.263888889,-0.044444437,1,0,0,1.1453,optionLeft,20,6905,4,7,0,7,0,1,,,,,,,,,,,,,,,,,,,,,,,,,,,,,,,,,,,,,,,
,,,,,,,63a21141da58c1ee1deebe34,2023-08-06_08h26.06.724,HF_wild_card,2022.2.4,Win32,29.93026249,63a21141da58c1ee1deebe34,64ce5acb97489d65b14ecc7a,64cf4ae847e2f92054050e52,,,,,,,decisionTrl,resources/DB.BMP,resources/DY.BMP,WildCard_NonEx,-0.306481467,-0.019444466,1,0,0,3.9955,optionLeft,45,6950,4,8,0,8,0,1,,,,,,,,,,,,,,,,,,,,,,,,,,,,,,,,,,,,,,,
,,,,,,,63a21141da58c1ee1deebe34,2023-08-06_08h26.06.724,HF_wild_card,2022.2.4,Win32,29.93026249,63a21141da58c1ee1deebe34,64ce5acb97489d65b14ecc7a,64cf4ae847e2f92054050e52,,,,,,,decisionTrl,resources/DY.BMP,resources/DR.BMP,Door1,-0.247222194,0.005555541,1,0,0,1.4787,optionLeft,30,6980,4,9,0,9,0,1,,,,,,,,,,,,,,,,,,,,,,,,,,,,,,,,,,,,,,,
,,,,,,,63a21141da58c1ee1deebe34,2023-08-06_08h26.06.724,HF_wild_card,2022.2.4,Win32,29.93026249,63a21141da58c1ee1deebe34,64ce5acb97489d65b14ecc7a,64cf4ae847e2f92054050e52,,,,,,,sngl,resources/DP.BMP,resources/Empty.png,Door3,-0.289814772,-0.043518526,1,0,0,0.9457,optionLeft,70,7050,4,10,0,10,0,1,,,,,,,,,,,,,,,,,,,,,,,,,,,,,,,,,,,,,,,
,,,,,,,63a21141da58c1ee1deebe34,2023-08-06_08h26.06.724,HF_wild_card,2022.2.4,Win32,29.93026249,63a21141da58c1ee1deebe34,64ce5acb97489d65b14ecc7a,64cf4ae847e2f92054050e52,,,,,,,decisionTrl,resources/DP.BMP,resources/DG.BMP,Door3,-0.240740741,-0.054629644,1,0,0,1.2458,optionLeft,70,7120,4,11,0,11,0,1,,,,,,,,,,,,,,,,,,,,,,,,,,,,,,,,,,,,,,,
,,,,,,,63a21141da58c1ee1deebe34,2023-08-06_08h26.06.724,HF_wild_card,2022.2.4,Win32,29.93026249,63a21141da58c1ee1deebe34,64ce5acb97489d65b14ecc7a,64cf4ae847e2f92054050e52,,,,,,,decisionTrl,resources/DR.BMP,resources/DY.BMP,Door2,-0.275925884,-0.037962984,1,0,0,2.2957,optionLeft,40,7160,4,12,0,12,0,1,,,,,,,,,,,,,,,,,,,,,,,,,,,,,,,,,,,,,,,
,,,,,,,63a21141da58c1ee1deebe34,2023-08-06_08h26.06.724,HF_wild_card,2022.2.4,Win32,29.93026249,63a21141da58c1ee1deebe34,64ce5acb97489d65b14ecc7a,64cf4ae847e2f92054050e52,,,,,,,decisionTrl,resources/DG.BMP,resources/DP.BMP,Door4,-0.25,-0.031481496,1,0,0,1.3623,optionLeft,80,7240,4,13,0,13,0,1,,,,,,,,,,,,,,,,,,,,,,,,,,,,,,,,,,,,,,,
,,,,,,,63a21141da58c1ee1deebe34,2023-08-06_08h26.06.724,HF_wild_card,2022.2.4,Win32,29.93026249,63a21141da58c1ee1deebe34,64ce5acb97489d65b14ecc7a,64cf4ae847e2f92054050e52,,,,,,,decisionTrl,resources/DP.BMP,resources/DG.BMP,Door4,0.313888974,0.005555541,1,0,0,1.1286,optionRight,80,7320,4,14,0,14,0,1,,,,,,,,,,,,,,,,,,,,,,,,,,,,,,,,,,,,,,,
,,,,,,,63a21141da58c1ee1deebe34,2023-08-06_08h26.06.724,HF_wild_card,2022.2.4,Win32,29.93026249,63a21141da58c1ee1deebe34,64ce5acb97489d65b14ecc7a,64cf4ae847e2f92054050e52,,,,,,,decisionTrl,resources/DP.BMP,resources/DG.BMP,Door4,0.312037009,0.008333312,1,0,0,1.0291,optionRight,60,7380,4,15,0,15,0,1,,,,,,,,,,,,,,,,,,,,,,,,,,,,,,,,,,,,,,,
,,,,,,,63a21141da58c1ee1deebe34,2023-08-06_08h26.06.724,HF_wild_card,2022.2.4,Win32,29.93026249,63a21141da58c1ee1deebe34,64ce5acb97489d65b14ecc7a,64cf4ae847e2f92054050e52,,,,,,,sngl,resources/Empty.png,resources/DG.BMP,Door4,0.350926011,0.01666666,1,0,0,0.9455,optionRight,80,7460,4,16,0,16,0,1,,,,,,,,,,,,,,,,,,,,,,,,,,,,,,,,,,,,,,,
,,,,,,,63a21141da58c1ee1deebe34,2023-08-06_08h26.06.724,HF_wild_card,2022.2.4,Win32,29.93026249,63a21141da58c1ee1deebe34,64ce5acb97489d65b14ecc7a,64cf4ae847e2f92054050e52,,,,,,,sngl,resources/Empty.png,resources/DP.BMP,Door3,0.349074046,0.003703683,1,0,0,1.0625,optionRight,70,7530,4,17,0,17,0,1,,,,,,,,,,,,,,,,,,,,,,,,,,,,,,,,,,,,,,,
,,,,,,,63a21141da58c1ee1deebe34,2023-08-06_08h26.06.724,HF_wild_card,2022.2.4,Win32,29.93026249,63a21141da58c1ee1deebe34,64ce5acb97489d65b14ecc7a,64cf4ae847e2f92054050e52,,,,,,,ctch,resources/DR.BMP,resources/DP.BMP,Door3,0.266666695,0.026851831,1,0,0,2.812,optionRight,70,7600,4,18,0,18,0,1,,,,,,,,,,,,,,,,,,,,,,,,,,,,,,,,,,,,,,,
,,,,,,,63a21141da58c1ee1deebe34,2023-08-06_08h26.06.724,HF_wild_card,2022.2.4,Win32,29.93026249,63a21141da58c1ee1deebe34,64ce5acb97489d65b14ecc7a,64cf4ae847e2f92054050e52,,,,,,,decisionTrl,resources/DB.BMP,resources/DR.BMP,WildCard_NonEx,-0.206481439,-0.025925919,1,0,0,1.2455,optionLeft,55,7655,4,19,0,19,0,1,,,,,,,,,,,,,,,,,,,,,,,,,,,,,,,,,,,,,,,
,,,,,,,63a21141da58c1ee1deebe34,2023-08-06_08h26.06.724,HF_wild_card,2022.2.4,Win32,29.93026249,63a21141da58c1ee1deebe34,64ce5acb97489d65b14ecc7a,64cf4ae847e2f92054050e52,,,,,,,decisionTrl,resources/DR.BMP,resources/DY.BMP,Door2,-0.188888903,-0.027777778,1,0,0,1.2119,optionLeft,40,7695,4,20,0,20,0,1,,,,,,,,,,,,,,,,,,,,,,,,,,,,,,,,,,,,,,,
,,,,,,,63a21141da58c1ee1deebe34,2023-08-06_08h26.06.724,HF_wild_card,2022.2.4,Win32,29.93026249,63a21141da58c1ee1deebe34,64ce5acb97489d65b14ecc7a,64cf4ae847e2f92054050e52,,,,,,,ctch,resources/DG.BMP,resources/DY.BMP,Door4,-0.24537037,-0.052777785,1,0,0,1.1791,optionLeft,60,7755,4,21,0,21,0,1,,,,,,,,,,,,,,,,,,,,,,,,,,,,,,,,,,,,,,,
,,,,,,,63a21141da58c1ee1deebe34,2023-08-06_08h26.06.724,HF_wild_card,2022.2.4,Win32,29.93026249,63a21141da58c1ee1deebe34,64ce5acb97489d65b14ecc7a,64cf4ae847e2f92054050e52,,,,,,,decisionTrl,resources/DG.BMP,resources/DP.BMP,Door4,-0.26944443,-0.074074074,1,0,0,1.1444,optionLeft,80,7835,4,22,0,22,0,1,,,,,,,,,,,,,,,,,,,,,,,,,,,,,,,,,,,,,,,
,,,,,,,63a21141da58c1ee1deebe34,2023-08-06_08h26.06.724,HF_wild_card,2022.2.4,Win32,29.93026249,63a21141da58c1ee1deebe34,64ce5acb97489d65b14ecc7a,64cf4ae847e2f92054050e52,,,,,,,sngl,resources/Empty.png,resources/DB.BMP,WildCard_NonEx,0.217592593,-0.019444466,1,0,0,1.2295,optionRight,45,7880,4,23,0,23,0,1,,,,,,,,,,,,,,,,,,,,,,,,,,,,,,,,,,,,,,,
,,,,,,,63a21141da58c1ee1deebe34,2023-08-06_08h26.06.724,HF_wild_card,2022.2.4,Win32,29.93026249,63a21141da58c1ee1deebe34,64ce5acb97489d65b14ecc7a,64cf4ae847e2f92054050e52,,,,,,,sngl,resources/DB.BMP,resources/Empty.png,WildCard_NonEx,-0.232407393,-0.034259266,1,0,0,1.2624,optionLeft,45,7925,4,24,0,24,0,1,,,,,,,,,,,,,,,,,,,,,,,,,,,,,,,,,,,,,,,
,,,,,,,63a21141da58c1ee1deebe34,2023-08-06_08h26.06.724,HF_wild_card,2022.2.4,Win32,29.93026249,63a21141da58c1ee1deebe34,64ce5acb97489d65b14ecc7a,64cf4ae847e2f92054050e52,,,,,,,sngl,resources/Empty.png,resources/DR.BMP,Door2,0.293518561,0.018518519,1,0,0,1.4121,optionRight,40,7965,4,25,0,25,0,1,,,,,,,,,,,,,,,,,,,,,,,,,,,,,,,,,,,,,,,
,,,,,,,63a21141da58c1ee1deebe34,2023-08-06_08h26.06.724,HF_wild_card,2022.2.4,Win32,29.93026249,63a21141da58c1ee1deebe34,64ce5acb97489d65b14ecc7a,64cf4ae847e2f92054050e52,,,,,,,decisionTrl,resources/DR.BMP,resources/DY.BMP,Door2,-0.174074032,-0.057407414,1,0,0,1.6126,optionLeft,20,7985,4,26,0,26,0,1,,,,,,,,,,,,,,,,,,,,,,,,,,,,,,,,,,,,,,,
,,,,,,,63a21141da58c1ee1deebe34,2023-08-06_08h26.06.724,HF_wild_card,2022.2.4,Win32,29.93026249,63a21141da58c1ee1deebe34,64ce5acb97489d65b14ecc7a,64cf4ae847e2f92054050e52,,,,,,,decisionTrl,resources/DB.BMP,resources/DG.BMP,Door4,0.297222279,0.010185171,1,0,0,1.8125,optionRight,80,8065,4,27,0,27,0,1,,,,,,,,,,,,,,,,,,,,,,,,,,,,,,,,,,,,,,,
,,,,,,,63a21141da58c1ee1deebe34,2023-08-06_08h26.06.724,HF_wild_card,2022.2.4,Win32,29.93026249,63a21141da58c1ee1deebe34,64ce5acb97489d65b14ecc7a,64cf4ae847e2f92054050e52,,,,,,,decisionTrl,resources/DY.BMP,resources/DR.BMP,Door1,-0.258333347,-0.056481503,1,0,0,1.3785,optionLeft,30,8095,4,28,0,28,0,1,,,,,,,,,,,,,,,,,,,,,,,,,,,,,,,,,,,,,,,
,,,,,,,63a21141da58c1ee1deebe34,2023-08-06_08h26.06.724,HF_wild_card,2022.2.4,Win32,29.93026249,63a21141da58c1ee1deebe34,64ce5acb97489d65b14ecc7a,64cf4ae847e2f92054050e52,,,,,,,decisionTrl,resources/DG.BMP,resources/DP.BMP,Door3,0.315740797,-0.021296289,1,0,0,2.1955,optionRight,70,8165,4,29,0,29,0,1,,,,,,,,,,,,,,,,,,,,,,,,,,,,,,,,,,,,,,,
,,,,,,,63a21141da58c1ee1deebe34,2023-08-06_08h26.06.724,HF_wild_card,2022.2.4,Win32,29.93026249,63a21141da58c1ee1deebe34,64ce5acb97489d65b14ecc7a,64cf4ae847e2f92054050e52,,,,,,,decisionTrl,resources/DG.BMP,resources/DB.BMP,Door4,-0.264814801,-0.110185199,1,0,0,1.5634,optionLeft,80,8245,4,30,0,30,0,1,,,,,,,,,,,,,,,,,,,,,,,,,,,,,,,,,,,,,,,
,,,,,,,63a21141da58c1ee1deebe34,2023-08-06_08h26.06.724,HF_wild_card,2022.2.4,Win32,29.93026249,63a21141da58c1ee1deebe34,64ce5acb97489d65b14ecc7a,64cf4ae847e2f92054050e52,,,,,,,sngl,resources/Empty.png,resources/DY.BMP,Door1,0.265740783,-0.010185206,1,0,0,1.3288,optionRight,30,8275,4,31,0,31,0,1,,,,,,,,,,,,,,,,,,,,,,,,,,,,,,,,,,,,,,,
,,,,,,,63a21141da58c1ee1deebe34,2023-08-06_08h26.06.724,HF_wild_card,2022.2.4,Win32,29.93026249,63a21141da58c1ee1deebe34,64ce5acb97489d65b14ecc7a,64cf4ae847e2f92054050e52,,,,,,,decisionTrl,resources/DY.BMP,resources/DB.BMP,WildCard_NonEx,0.222222222,0.001851859,1,0,0,1.0293,optionRight,55,8330,4,32,0,32,0,1,,,,,,,,,,,,,,,,,,,,,,,,,,,,,,,,,,,,,,,
,,,,,,,63a21141da58c1ee1deebe34,2023-08-06_08h26.06.724,HF_wild_card,2022.2.4,Win32,29.93026249,63a21141da58c1ee1deebe34,64ce5acb97489d65b14ecc7a,64cf4ae847e2f92054050e52,,,,,,,decisionTrl,resources/DR.BMP,resources/DB.BMP,Door2,-0.182407379,-0.022222236,1,0,0,1.3794,optionLeft,40,8370,4,33,0,33,0,1,,,,,,,,,,,,,,,,,,,,,,,,,,,,,,,,,,,,,,,
,,,,,,,63a21141da58c1ee1deebe34,2023-08-06_08h26.06.724,HF_wild_card,2022.2.4,Win32,29.93026249,63a21141da58c1ee1deebe34,64ce5acb97489d65b14ecc7a,64cf4ae847e2f92054050e52,,,,,,,decisionTrl,resources/DP.BMP,resources/DB.BMP,Door3,-0.291666667,-0.044444437,1,0,0,1.8804,optionLeft,70,8440,4,34,0,34,0,1,,,,,,,,,,,,,,,,,,,,,,,,,,,,,,,,,,,,,,,
,,,,,,,63a21141da58c1ee1deebe34,2023-08-06_08h26.06.724,HF_wild_card,2022.2.4,Win32,29.93026249,63a21141da58c1ee1deebe34,64ce5acb97489d65b14ecc7a,64cf4ae847e2f92054050e52,,,,,,,ctch,resources/DP.BMP,resources/DR.BMP,Door3,-0.291666667,-0.008333347,1,0,0,1.8122,optionLeft,70,8510,4,35,0,35,0,1,,,,,,,,,,,,,,,,,,,,,,,,,,,,,,,,,,,,,,,
,,,,,,,63a21141da58c1ee1deebe34,2023-08-06_08h26.06.724,HF_wild_card,2022.2.4,Win32,29.93026249,63a21141da58c1ee1deebe34,64ce5acb97489d65b14ecc7a,64cf4ae847e2f92054050e52,,,,,,,ctch,resources/DR.BMP,resources/DP.BMP,Door3,0.219444487,-0.021296289,1,0,0,1.1797,optionRight,70,8580,4,36,0,36,0,1,,,,,,,,,,,,,,,,,,,,,,,,,,,,,,,,,,,,,,,
,,,,,,,63a21141da58c1ee1deebe34,2023-08-06_08h26.06.724,HF_wild_card,2022.2.4,Win32,29.93026249,63a21141da58c1ee1deebe34,64ce5acb97489d65b14ecc7a,64cf4ae847e2f92054050e52,,,,,,,sngl,resources/DB.BMP,resources/Empty.png,WildCard_NonEx,-0.17314812,-0.026851866,1,0,0,0.8951,optionLeft,55,8635,4,37,0,37,0,1,,,,,,,,,,,,,,,,,,,,,,,,,,,,,,,,,,,,,,,
,,,,,,,63a21141da58c1ee1deebe34,2023-08-06_08h26.06.724,HF_wild_card,2022.2.4,Win32,29.93026249,63a21141da58c1ee1deebe34,64ce5acb97489d65b14ecc7a,64cf4ae847e2f92054050e52,,,,,,,sngl,resources/Empty.png,resources/DB.BMP,WildCard_NonEx,0.19722225,0.010185171,1,0,0,0.9621,optionRight,55,8690,4,38,0,38,0,1,,,,,,,,,,,,,,,,,,,,,,,,,,,,,,,,,,,,,,,
,,,,,,,63a21141da58c1ee1deebe34,2023-08-06_08h26.06.724,HF_wild_card,2022.2.4,Win32,29.93026249,63a21141da58c1ee1deebe34,64ce5acb97489d65b14ecc7a,64cf4ae847e2f92054050e52,,,,,,,decisionTrl,resources/DY.BMP,resources/DR.BMP,Door1,-0.235185199,-0.034259266,1,0,0,1.2286,optionLeft,30,8720,4,39,0,39,0,1,,,,,,,,,,,,,,,,,,,,,,,,,,,,,,,,,,,,,,,
,,,,,,,63a21141da58c1ee1deebe34,2023-08-06_08h26.06.724,HF_wild_card,2022.2.4,Win32,29.93026249,63a21141da58c1ee1deebe34,64ce5acb97489d65b14ecc7a,64cf4ae847e2f92054050e52,,,,,,,decisionTrl,resources/DB.BMP,resources/DP.BMP,WildCard_NonEx,-0.299999979,-0.081481474,1,0,0,1.1954,optionLeft,45,8765,4,40,0,40,0,1,,,,,,,,,,,,,,,,,,,,,,,,,,,,,,,,,,,,,,,
,,,,,,,63a21141da58c1ee1deebe34,2023-08-06_08h26.06.724,HF_wild_card,2022.2.4,Win32,29.93026249,63a21141da58c1ee1deebe34,64ce5acb97489d65b14ecc7a,64cf4ae847e2f92054050e52,,,,,,,decisionTrl,resources/DR.BMP,resources/DY.BMP,Door1,0.186111097,-0.017592607,1,0,0,1.2283,optionRight,30,8795,4,41,0,41,0,1,,,,,,,,,,,,,,,,,,,,,,,,,,,,,,,,,,,,,,,
,,,,,,,63a21141da58c1ee1deebe34,2023-08-06_08h26.06.724,HF_wild_card,2022.2.4,Win32,29.93026249,63a21141da58c1ee1deebe34,64ce5acb97489d65b14ecc7a,64cf4ae847e2f92054050e52,,,,,,,sngl,resources/DY.BMP,resources/Empty.png,Door1,-0.224074046,-0.017592607,1,0,0,1.0789,optionLeft,30,8825,4,42,0,42,0,1,,,,,,,,,,,,,,,,,,,,,,,,,,,,,,,,,,,,,,,
,,,,,,,63a21141da58c1ee1deebe34,2023-08-06_08h26.06.724,HF_wild_card,2022.2.4,Win32,29.93026249,63a21141da58c1ee1deebe34,64ce5acb97489d65b14ecc7a,64cf4ae847e2f92054050e52,,,,,,,ctch,resources/DP.BMP,resources/DR.BMP,Door3,-0.281481496,-0.023148148,1,0,0,1.1956,optionLeft,70,8895,4,43,0,43,0,1,,,,,,,,,,,,,,,,,,,,,,,,,,,,,,,,,,,,,,,
,,,,,,,63a21141da58c1ee1deebe34,2023-08-06_08h26.06.724,HF_wild_card,2022.2.4,Win32,29.93026249,63a21141da58c1ee1deebe34,64ce5acb97489d65b14ecc7a,64cf4ae847e2f92054050e52,,,,,,,,,,,,,,,,,,,,,,,,,,3,0,3,0,1,,,,,,,,,,,,,,,,,,,,,,,,,,,,,,,,,,
,,,,,,,63a21141da58c1ee1deebe34,2023-08-06_08h26.06.724,HF_wild_card,2022.2.4,Win32,29.93026249,63a21141da58c1ee1deebe34,64ce5acb97489d65b14ecc7a,64cf4ae847e2f92054050e52,,,,,,,sngl,resources/DB.BMP,resources/Empty.png,WildCard_NonEx,-0.219444416,-0.131481524,1,0,0,1.0115,optionLeft,45,8940,5,0,0,0,0,1,,,,,,,,,,,,,,,,,,,,,,,,,,,,,,,,,,,,,,,
,,,,,,,63a21141da58c1ee1deebe34,2023-08-06_08h26.06.724,HF_wild_card,2022.2.4,Win32,29.93026249,63a21141da58c1ee1deebe34,64ce5acb97489d65b14ecc7a,64cf4ae847e2f92054050e52,,,,,,,decisionTrl,resources/DG.BMP,resources/DP.BMP,Door3,0.235185199,-0.028703725,1,0,0,1.8615,optionRight,70,9010,5,1,0,1,0,1,,,,,,,,,,,,,,,,,,,,,,,,,,,,,,,,,,,,,,,
,,,,,,,63a21141da58c1ee1deebe34,2023-08-06_08h26.06.724,HF_wild_card,2022.2.4,Win32,29.93026249,63a21141da58c1ee1deebe34,64ce5acb97489d65b14ecc7a,64cf4ae847e2f92054050e52,,,,,,,sngl,resources/Empty.png,resources/DP.BMP,Door3,0.289814843,0.002777771,1,0,0,1.2123,optionRight,70,9080,5,2,0,2,0,1,,,,,,,,,,,,,,,,,,,,,,,,,,,,,,,,,,,,,,,
,,,,,,,63a21141da58c1ee1deebe34,2023-08-06_08h26.06.724,HF_wild_card,2022.2.4,Win32,29.93026249,63a21141da58c1ee1deebe34,64ce5acb97489d65b14ecc7a,64cf4ae847e2f92054050e52,,,,,,,decisionTrl,resources/DG.BMP,resources/DP.BMP,Door3,0.308333362,0.001851859,1,0,0,1.0957,optionRight,70,9150,5,3,0,3,0,1,,,,,,,,,,,,,,,,,,,,,,,,,,,,,,,,,,,,,,,
,,,,,,,63a21141da58c1ee1deebe34,2023-08-06_08h26.06.724,HF_wild_card,2022.2.4,Win32,29.93026249,63a21141da58c1ee1deebe34,64ce5acb97489d65b14ecc7a,64cf4ae847e2f92054050e52,,,,,,,sngl,resources/Empty.png,resources/DY.BMP,Door1,0.301851908,0.017592571,1,0,0,1.029,optionRight,30,9180,5,4,0,4,0,1,,,,,,,,,,,,,,,,,,,,,,,,,,,,,,,,,,,,,,,
,,,,,,,63a21141da58c1ee1deebe34,2023-08-06_08h26.06.724,HF_wild_card,2022.2.4,Win32,29.93026249,63a21141da58c1ee1deebe34,64ce5acb97489d65b14ecc7a,64cf4ae847e2f92054050e52,,,,,,,ctch,resources/DY.BMP,resources/DG.BMP,Door4,0.30277775,0.009259259,1,0,0,1.112,optionRight,60,9240,5,5,0,5,0,1,,,,,,,,,,,,,,,,,,,,,,,,,,,,,,,,,,,,,,,
,,,,,,,63a21141da58c1ee1deebe34,2023-08-06_08h26.06.724,HF_wild_card,2022.2.4,Win32,29.93026249,63a21141da58c1ee1deebe34,64ce5acb97489d65b14ecc7a,64cf4ae847e2f92054050e52,,,,,,,decisionTrl,resources/DY.BMP,resources/DB.BMP,WildCard_NonEx,0.314814815,0.002777771,1,0,0,1.112,optionRight,55,9295,5,6,0,6,0,1,,,,,,,,,,,,,,,,,,,,,,,,,,,,,,,,,,,,,,,
,,,,,,,63a21141da58c1ee1deebe34,2023-08-06_08h26.06.724,HF_wild_card,2022.2.4,Win32,29.93026249,63a21141da58c1ee1deebe34,64ce5acb97489d65b14ecc7a,64cf4ae847e2f92054050e52,,,,,,,ctch,resources/DR.BMP,resources/DP.BMP,Door3,0.265740783,-0.005555577,1,0,0,0.9961,optionRight,70,9365,5,7,0,7,0,1,,,,,,,,,,,,,,,,,,,,,,,,,,,,,,,,,,,,,,,
,,,,,,,63a21141da58c1ee1deebe34,2023-08-06_08h26.06.724,HF_wild_card,2022.2.4,Win32,29.93026249,63a21141da58c1ee1deebe34,64ce5acb97489d65b14ecc7a,64cf4ae847e2f92054050e52,,,,,,,sngl,resources/DG.BMP,resources/Empty.png,Door4,-0.162962949,-0.015740748,1,0,0,0.9951,optionLeft,80,9445,5,8,0,8,0,1,,,,,,,,,,,,,,,,,,,,,,,,,,,,,,,,,,,,,,,
,,,,,,,63a21141da58c1ee1deebe34,2023-08-06_08h26.06.724,HF_wild_card,2022.2.4,Win32,29.93026249,63a21141da58c1ee1deebe34,64ce5acb97489d65b14ecc7a,64cf4ae847e2f92054050e52,,,,,,,decisionTrl,resources/DP.BMP,resources/DG.BMP,Door4,0.229629658,0.00462963,1,0,0,1.0625,optionRight,60,9505,5,9,0,9,0,1,,,,,,,,,,,,,,,,,,,,,,,,,,,,,,,,,,,,,,,
,,,,,,,63a21141da58c1ee1deebe34,2023-08-06_08h26.06.724,HF_wild_card,2022.2.4,Win32,29.93026249,63a21141da58c1ee1deebe34,64ce5acb97489d65b14ecc7a,64cf4ae847e2f92054050e52,,,,,,,decisionTrl,resources/DB.BMP,resources/DY.BMP,Door1,0.178703732,-0.015740748,1,0,0,1.4121,optionRight,30,9535,5,10,0,10,0,1,,,,,,,,,,,,,,,,,,,,,,,,,,,,,,,,,,,,,,,
,,,,,,,63a21141da58c1ee1deebe34,2023-08-06_08h26.06.724,HF_wild_card,2022.2.4,Win32,29.93026249,63a21141da58c1ee1deebe34,64ce5acb97489d65b14ecc7a,64cf4ae847e2f92054050e52,,,,,,,decisionTrl,resources/DR.BMP,resources/DB.BMP,Door2,-0.203703704,-0.045370384,1,0,0,0.9782,optionLeft,40,9575,5,11,0,11,0,1,,,,,,,,,,,,,,,,,,,,,,,,,,,,,,,,,,,,,,,
,,,,,,,63a21141da58c1ee1deebe34,2023-08-06_08h26.06.724,HF_wild_card,2022.2.4,Win32,29.93026249,63a21141da58c1ee1deebe34,64ce5acb97489d65b14ecc7a,64cf4ae847e2f92054050e52,,,,,,,decisionTrl,resources/DP.BMP,resources/DB.BMP,WildCard_NonEx,0.231481481,0,1,0,0,0.9956,optionRight,55,9630,5,12,0,12,0,1,,,,,,,,,,,,,,,,,,,,,,,,,,,,,,,,,,,,,,,
,,,,,,,63a21141da58c1ee1deebe34,2023-08-06_08h26.06.724,HF_wild_card,2022.2.4,Win32,29.93026249,63a21141da58c1ee1deebe34,64ce5acb97489d65b14ecc7a,64cf4ae847e2f92054050e52,,,,,,,sngl,resources/Empty.png,resources/DB.BMP,WildCard_NonEx,0.27870369,0.01666666,1,0,0,1.0282,optionRight,45,9675,5,13,0,13,0,1,,,,,,,,,,,,,,,,,,,,,,,,,,,,,,,,,,,,,,,
,,,,,,,63a21141da58c1ee1deebe34,2023-08-06_08h26.06.724,HF_wild_card,2022.2.4,Win32,29.93026249,63a21141da58c1ee1deebe34,64ce5acb97489d65b14ecc7a,64cf4ae847e2f92054050e52,,,,,,,ctch,resources/DG.BMP,resources/DY.BMP,Door4,-0.163888861,-0.002777771,1,0,0,1.3792,optionLeft,80,9755,5,14,0,14,0,1,,,,,,,,,,,,,,,,,,,,,,,,,,,,,,,,,,,,,,,
,,,,,,,63a21141da58c1ee1deebe34,2023-08-06_08h26.06.724,HF_wild_card,2022.2.4,Win32,29.93026249,63a21141da58c1ee1deebe34,64ce5acb97489d65b14ecc7a,64cf4ae847e2f92054050e52,,,,,,,decisionTrl,resources/DR.BMP,resources/DY.BMP,Door2,-0.184259273,0,1,0,0,0.9453,optionLeft,20,9775,5,15,0,15,0,1,,,,,,,,,,,,,,,,,,,,,,,,,,,,,,,,,,,,,,,
,,,,,,,63a21141da58c1ee1deebe34,2023-08-06_08h26.06.724,HF_wild_card,2022.2.4,Win32,29.93026249,63a21141da58c1ee1deebe34,64ce5acb97489d65b14ecc7a,64cf4ae847e2f92054050e52,,,,,,,decisionTrl,resources/DR.BMP,resources/DY.BMP,Door2,-0.249074088,-0.057407414,1,0,0,0.929,optionLeft,20,9795,5,16,0,16,0,1,,,,,,,,,,,,,,,,,,,,,,,,,,,,,,,,,,,,,,,
,,,,,,,63a21141da58c1ee1deebe34,2023-08-06_08h26.06.724,HF_wild_card,2022.2.4,Win32,29.93026249,63a21141da58c1ee1deebe34,64ce5acb97489d65b14ecc7a,64cf4ae847e2f92054050e52,,,,,,,ctch,resources/DP.BMP,resources/DR.BMP,Door3,-0.213888875,-0.045370384,1,0,0,1.1784,optionLeft,70,9865,5,17,0,17,0,1,,,,,,,,,,,,,,,,,,,,,,,,,,,,,,,,,,,,,,,
,,,,,,,63a21141da58c1ee1deebe34,2023-08-06_08h26.06.724,HF_wild_card,2022.2.4,Win32,29.93026249,63a21141da58c1ee1deebe34,64ce5acb97489d65b14ecc7a,64cf4ae847e2f92054050e52,,,,,,,decisionTrl,resources/DY.BMP,resources/DR.BMP,Door2,0.354629658,-0.012962977,1,0,0,2.029,optionRight,20,9885,5,18,0,18,0,1,,,,,,,,,,,,,,,,,,,,,,,,,,,,,,,,,,,,,,,
,,,,,,,63a21141da58c1ee1deebe34,2023-08-06_08h26.06.724,HF_wild_card,2022.2.4,Win32,29.93026249,63a21141da58c1ee1deebe34,64ce5acb97489d65b14ecc7a,64cf4ae847e2f92054050e52,,,,,,,decisionTrl,resources/DB.BMP,resources/DR.BMP,Door2,0.20648151,-0.010185206,1,0,0,1.7963,optionRight,20,9905,5,19,0,19,0,1,,,,,,,,,,,,,,,,,,,,,,,,,,,,,,,,,,,,,,,
,,,,,,,63a21141da58c1ee1deebe34,2023-08-06_08h26.06.724,HF_wild_card,2022.2.4,Win32,29.93026249,63a21141da58c1ee1deebe34,64ce5acb97489d65b14ecc7a,64cf4ae847e2f92054050e52,,,,,,,decisionTrl,resources/DP.BMP,resources/DG.BMP,Door3,-0.157407407,-0.015740748,1,0,0,1.2125,optionLeft,70,9975,5,20,0,20,0,1,,,,,,,,,,,,,,,,,,,,,,,,,,,,,,,,,,,,,,,
,,,,,,,63a21141da58c1ee1deebe34,2023-08-06_08h26.06.724,HF_wild_card,2022.2.4,Win32,29.93026249,63a21141da58c1ee1deebe34,64ce5acb97489d65b14ecc7a,64cf4ae847e2f92054050e52,,,,,,,sngl,resources/DB.BMP,resources/Empty.png,WildCard_NonEx,-0.239814829,-0.037037037,1,0,0,1.0958,optionLeft,55,10030,5,21,0,21,0,1,,,,,,,,,,,,,,,,,,,,,,,,,,,,,,,,,,,,,,,
,,,,,,,63a21141da58c1ee1deebe34,2023-08-06_08h26.06.724,HF_wild_card,2022.2.4,Win32,29.93026249,63a21141da58c1ee1deebe34,64ce5acb97489d65b14ecc7a,64cf4ae847e2f92054050e52,,,,,,,decisionTrl,resources/DB.BMP,resources/DP.BMP,WildCard_NonEx,-0.17314812,-0.011111118,1,0,0,1.4788,optionLeft,55,10085,5,22,0,22,0,1,,,,,,,,,,,,,,,,,,,,,,,,,,,,,,,,,,,,,,,
,,,,,,,63a21141da58c1ee1deebe34,2023-08-06_08h26.06.724,HF_wild_card,2022.2.4,Win32,29.93026249,63a21141da58c1ee1deebe34,64ce5acb97489d65b14ecc7a,64cf4ae847e2f92054050e52,,,,,,,decisionTrl,resources/DY.BMP,resources/DR.BMP,Door2,0.193518533,-0.08425928,1,0,0,2.1788,optionRight,20,10105,5,23,0,23,0,1,,,,,,,,,,,,,,,,,,,,,,,,,,,,,,,,,,,,,,,
,,,,,,,63a21141da58c1ee1deebe34,2023-08-06_08h26.06.724,HF_wild_card,2022.2.4,Win32,29.93026249,63a21141da58c1ee1deebe34,64ce5acb97489d65b14ecc7a,64cf4ae847e2f92054050e52,,,,,,,sngl,resources/Empty.png,resources/DB.BMP,WildCard_NonEx,0.196296339,0.006481489,1,0,0,0.9452,optionRight,55,10160,5,24,0,24,0,1,,,,,,,,,,,,,,,,,,,,,,,,,,,,,,,,,,,,,,,
,,,,,,,63a21141da58c1ee1deebe34,2023-08-06_08h26.06.724,HF_wild_card,2022.2.4,Win32,29.93026249,63a21141da58c1ee1deebe34,64ce5acb97489d65b14ecc7a,64cf4ae847e2f92054050e52,,,,,,,sngl,resources/DR.BMP,resources/Empty.png,Door2,-0.181481467,-0.012962977,1,0,0,0.9124,optionLeft,40,10200,5,25,0,25,0,1,,,,,,,,,,,,,,,,,,,,,,,,,,,,,,,,,,,,,,,
,,,,,,,63a21141da58c1ee1deebe34,2023-08-06_08h26.06.724,HF_wild_card,2022.2.4,Win32,29.93026249,63a21141da58c1ee1deebe34,64ce5acb97489d65b14ecc7a,64cf4ae847e2f92054050e52,,,,,,,decisionTrl,resources/DR.BMP,resources/DY.BMP,Door2,-0.190740727,-0.024074095,1,0,0,1.1952,optionLeft,20,10220,5,26,0,26,0,1,,,,,,,,,,,,,,,,,,,,,,,,,,,,,,,,,,,,,,,
,,,,,,,63a21141da58c1ee1deebe34,2023-08-06_08h26.06.724,HF_wild_card,2022.2.4,Win32,29.93026249,63a21141da58c1ee1deebe34,64ce5acb97489d65b14ecc7a,64cf4ae847e2f92054050e52,,,,,,,decisionTrl,resources/DR.BMP,resources/DY.BMP,Door1,0.18240745,-0.001851859,1,0,0,1.0297,optionRight,30,10250,5,27,0,27,0,1,,,,,,,,,,,,,,,,,,,,,,,,,,,,,,,,,,,,,,,
,,,,,,,63a21141da58c1ee1deebe34,2023-08-06_08h26.06.724,HF_wild_card,2022.2.4,Win32,29.93026249,63a21141da58c1ee1deebe34,64ce5acb97489d65b14ecc7a,64cf4ae847e2f92054050e52,,,,,,,sngl,resources/Empty.png,resources/DG.BMP,Door4,0.24537037,0.00462963,1,0,0,0.9955,optionRight,60,10310,5,28,0,28,0,1,,,,,,,,,,,,,,,,,,,,,,,,,,,,,,,,,,,,,,,
,,,,,,,63a21141da58c1ee1deebe34,2023-08-06_08h26.06.724,HF_wild_card,2022.2.4,Win32,29.93026249,63a21141da58c1ee1deebe34,64ce5acb97489d65b14ecc7a,64cf4ae847e2f92054050e52,,,,,,,decisionTrl,resources/DP.BMP,resources/DG.BMP,Door4,0.241666653,-0.000925947,1,0,0,1.4291,optionRight,60,10370,5,29,0,29,0,1,,,,,,,,,,,,,,,,,,,,,,,,,,,,,,,,,,,,,,,
,,,,,,,63a21141da58c1ee1deebe34,2023-08-06_08h26.06.724,HF_wild_card,2022.2.4,Win32,29.93026249,63a21141da58c1ee1deebe34,64ce5acb97489d65b14ecc7a,64cf4ae847e2f92054050e52,,,,,,,sngl,resources/Empty.png,resources/DR.BMP,Door2,0.266666695,0.0074074,1,0,0,0.9955,optionRight,20,10390,5,30,0,30,0,1,,,,,,,,,,,,,,,,,,,,,,,,,,,,,,,,,,,,,,,
,,,,,,,63a21141da58c1ee1deebe34,2023-08-06_08h26.06.724,HF_wild_card,2022.2.4,Win32,29.93026249,63a21141da58c1ee1deebe34,64ce5acb97489d65b14ecc7a,64cf4ae847e2f92054050e52,,,,,,,ctch,resources/DP.BMP,resources/DR.BMP,Door3,-0.14907406,-0.021296289,1,0,0,1.1795,optionLeft,70,10460,5,31,0,31,0,1,,,,,,,,,,,,,,,,,,,,,,,,,,,,,,,,,,,,,,,
,,,,,,,63a21141da58c1ee1deebe34,2023-08-06_08h26.06.724,HF_wild_card,2022.2.4,Win32,29.93026249,63a21141da58c1ee1deebe34,64ce5acb97489d65b14ecc7a,64cf4ae847e2f92054050e52,,,,,,,decisionTrl,resources/DP.BMP,resources/DG.BMP,Door3,-0.220370328,-0.003703718,1,0,0,0.9454,optionLeft,70,10530,5,32,0,32,0,1,,,,,,,,,,,,,,,,,,,,,,,,,,,,,,,,,,,,,,,
,,,,,,,63a21141da58c1ee1deebe34,2023-08-06_08h26.06.724,HF_wild_card,2022.2.4,Win32,29.93026249,63a21141da58c1ee1deebe34,64ce5acb97489d65b14ecc7a,64cf4ae847e2f92054050e52,,,,,,,ctch,resources/DG.BMP,resources/DY.BMP,Door4,-0.246296282,-0.037037037,1,0,0,1.2791,optionLeft,80,10610,5,33,0,33,0,1,,,,,,,,,,,,,,,,,,,,,,,,,,,,,,,,,,,,,,,
,,,,,,,63a21141da58c1ee1deebe34,2023-08-06_08h26.06.724,HF_wild_card,2022.2.4,Win32,29.93026249,63a21141da58c1ee1deebe34,64ce5acb97489d65b14ecc7a,64cf4ae847e2f92054050e52,,,,,,,decisionTrl,resources/DY.BMP,resources/DR.BMP,Door2,0.224074116,-0.01666666,1,0,0,1.0957,optionRight,20,10630,5,34,0,34,0,1,,,,,,,,,,,,,,,,,,,,,,,,,,,,,,,,,,,,,,,
,,,,,,,63a21141da58c1ee1deebe34,2023-08-06_08h26.06.724,HF_wild_card,2022.2.4,Win32,29.93026249,63a21141da58c1ee1deebe34,64ce5acb97489d65b14ecc7a,64cf4ae847e2f92054050e52,,,,,,,sngl,resources/DY.BMP,resources/Empty.png,Door1,-0.193518533,-0.000925947,1,0,0,0.8782,optionLeft,30,10660,5,35,0,35,0,1,,,,,,,,,,,,,,,,,,,,,,,,,,,,,,,,,,,,,,,
,,,,,,,63a21141da58c1ee1deebe34,2023-08-06_08h26.06.724,HF_wild_card,2022.2.4,Win32,29.93026249,63a21141da58c1ee1deebe34,64ce5acb97489d65b14ecc7a,64cf4ae847e2f92054050e52,,,,,,,sngl,resources/DP.BMP,resources/Empty.png,Door3,-0.189814815,-0.010185206,1,0,0,1.1622,optionLeft,70,10730,5,36,0,36,0,1,,,,,,,,,,,,,,,,,,,,,,,,,,,,,,,,,,,,,,,
,,,,,,,63a21141da58c1ee1deebe34,2023-08-06_08h26.06.724,HF_wild_card,2022.2.4,Win32,29.93026249,63a21141da58c1ee1deebe34,64ce5acb97489d65b14ecc7a,64cf4ae847e2f92054050e52,,,,,,,decisionTrl,resources/DY.BMP,resources/DR.BMP,Door1,-0.22129631,-0.046296296,1,0,0,1.7458,optionLeft,30,10760,5,37,0,37,0,1,,,,,,,,,,,,,,,,,,,,,,,,,,,,,,,,,,,,,,,
,,,,,,,63a21141da58c1ee1deebe34,2023-08-06_08h26.06.724,HF_wild_card,2022.2.4,Win32,29.93026249,63a21141da58c1ee1deebe34,64ce5acb97489d65b14ecc7a,64cf4ae847e2f92054050e52,,,,,,,ctch,resources/DR.BMP,resources/DP.BMP,Door3,0.198148162,-0.034259266,1,0,0,2.4458,optionRight,70,10830,5,38,0,38,0,1,,,,,,,,,,,,,,,,,,,,,,,,,,,,,,,,,,,,,,,
,,,,,,,63a21141da58c1ee1deebe34,2023-08-06_08h26.06.724,HF_wild_card,2022.2.4,Win32,29.93026249,63a21141da58c1ee1deebe34,64ce5acb97489d65b14ecc7a,64cf4ae847e2f92054050e52,,,,,,,decisionTrl,resources/DG.BMP,resources/DB.BMP,WildCard_NonEx,0.25,0.001851859,1,0,0,1.1953,optionRight,45,10875,5,39,0,39,0,1,,,,,,,,,,,,,,,,,,,,,,,,,,,,,,,,,,,,,,,
,,,,,,,63a21141da58c1ee1deebe34,2023-08-06_08h26.06.724,HF_wild_card,2022.2.4,Win32,29.93026249,63a21141da58c1ee1deebe34,64ce5acb97489d65b14ecc7a,64cf4ae847e2f92054050e52,,,,,,,ctch,resources/DY.BMP,resources/DG.BMP,Door4,0.26944443,-0.0074074,1,0,0,1.1623,optionRight,60,10935,5,40,0,40,0,1,,,,,,,,,,,,,,,,,,,,,,,,,,,,,,,,,,,,,,,
,,,,,,,63a21141da58c1ee1deebe34,2023-08-06_08h26.06.724,HF_wild_card,2022.2.4,Win32,29.93026249,63a21141da58c1ee1deebe34,64ce5acb97489d65b14ecc7a,64cf4ae847e2f92054050e52,,,,,,,decisionTrl,resources/DB.BMP,resources/DG.BMP,Door4,0.272222236,-0.01666666,1,0,0,1.3785,optionRight,80,11015,5,41,0,41,0,1,,,,,,,,,,,,,,,,,,,,,,,,,,,,,,,,,,,,,,,
,,,,,,,63a21141da58c1ee1deebe34,2023-08-06_08h26.06.724,HF_wild_card,2022.2.4,Win32,29.93026249,63a21141da58c1ee1deebe34,64ce5acb97489d65b14ecc7a,64cf4ae847e2f92054050e52,,,,,,,decisionTrl,resources/DG.BMP,resources/DP.BMP,Door4,-0.215740698,0.020370377,1,0,0,1.2958,optionLeft,60,11075,5,42,0,42,0,1,,,,,,,,,,,,,,,,,,,,,,,,,,,,,,,,,,,,,,,
,,,,,,,63a21141da58c1ee1deebe34,2023-08-06_08h26.06.724,HF_wild_card,2022.2.4,Win32,29.93026249,63a21141da58c1ee1deebe34,64ce5acb97489d65b14ecc7a,64cf4ae847e2f92054050e52,,,,,,,decisionTrl,resources/DG.BMP,resources/DP.BMP,Door4,-0.255555541,-0.014814836,1,0,0,1.0626,optionLeft,80,11155,5,43,0,43,0,1,,,,,,,,,,,,,,,,,,,,,,,,,,,,,,,,,,,,,,,
,,,,,,,63a21141da58c1ee1deebe34,2023-08-06_08h26.06.724,HF_wild_card,2022.2.4,Win32,29.93026249,63a21141da58c1ee1deebe34,64ce5acb97489d65b14ecc7a,64cf4ae847e2f92054050e52,,,,,,,,,,,,,,,,,,,,,,,,,,4,0,4,0,1,,,,,,,,,,,,,,,,,,,,,,,,,,,,,,,,,,
,,,,,,,63a21141da58c1ee1deebe34,2023-08-06_08h26.06.724,HF_wild_card,2022.2.4,Win32,29.93026249,63a21141da58c1ee1deebe34,64ce5acb97489d65b14ecc7a,64cf4ae847e2f92054050e52,,,,,,,decisionTrl,resources/DP.BMP,resources/DB.BMP,Door3,-0.25,-0.117592635,1,0,0,1.1255,optionLeft,70,11225,6,0,0,0,0,1,,,,,,,,,,,,,,,,,,,,,,,,,,,,,,,,,,,,,,,
,,,,,,,63a21141da58c1ee1deebe34,2023-08-06_08h26.06.724,HF_wild_card,2022.2.4,Win32,29.93026249,63a21141da58c1ee1deebe34,64ce5acb97489d65b14ecc7a,64cf4ae847e2f92054050e52,,,,,,,decisionTrl,resources/DB.BMP,resources/DY.BMP,WildCard_NonEx,-0.195370356,-0.028703725,1,0,0,1.0797,optionLeft,45,11270,6,1,0,1,0,1,,,,,,,,,,,,,,,,,,,,,,,,,,,,,,,,,,,,,,,
,,,,,,,63a21141da58c1ee1deebe34,2023-08-06_08h26.06.724,HF_wild_card,2022.2.4,Win32,29.93026249,63a21141da58c1ee1deebe34,64ce5acb97489d65b14ecc7a,64cf4ae847e2f92054050e52,,,,,,,sngl,resources/DG.BMP,resources/Empty.png,Door4,-0.158333319,-0.017592607,1,0,0,1.0452,optionLeft,60,11330,6,2,0,2,0,1,,,,,,,,,,,,,,,,,,,,,,,,,,,,,,,,,,,,,,,
,,,,,,,63a21141da58c1ee1deebe34,2023-08-06_08h26.06.724,HF_wild_card,2022.2.4,Win32,29.93026249,63a21141da58c1ee1deebe34,64ce5acb97489d65b14ecc7a,64cf4ae847e2f92054050e52,,,,,,,sngl,resources/Empty.png,resources/DG.BMP,Door4,0.217592593,-0.030555548,1,0,0,1.0785,optionRight,80,11410,6,3,0,3,0,1,,,,,,,,,,,,,,,,,,,,,,,,,,,,,,,,,,,,,,,
,,,,,,,63a21141da58c1ee1deebe34,2023-08-06_08h26.06.724,HF_wild_card,2022.2.4,Win32,29.93026249,63a21141da58c1ee1deebe34,64ce5acb97489d65b14ecc7a,64cf4ae847e2f92054050e52,,,,,,,decisionTrl,resources/DR.BMP,resources/DY.BMP,Door2,-0.172222208,-0.023148148,1,0,0,1.6294,optionLeft,20,11430,6,4,0,4,0,1,,,,,,,,,,,,,,,,,,,,,,,,,,,,,,,,,,,,,,,
,,,,,,,63a21141da58c1ee1deebe34,2023-08-06_08h26.06.724,HF_wild_card,2022.2.4,Win32,29.93026249,63a21141da58c1ee1deebe34,64ce5acb97489d65b14ecc7a,64cf4ae847e2f92054050e52,,,,,,,decisionTrl,resources/DG.BMP,resources/DB.BMP,Door4,-0.252777735,-0.039814808,1,0,0,1.1802,optionLeft,80,11510,6,5,0,5,0,1,,,,,,,,,,,,,,,,,,,,,,,,,,,,,,,,,,,,,,,
,,,,,,,63a21141da58c1ee1deebe34,2023-08-06_08h26.06.724,HF_wild_card,2022.2.4,Win32,29.93026249,63a21141da58c1ee1deebe34,64ce5acb97489d65b14ecc7a,64cf4ae847e2f92054050e52,,,,,,,decisionTrl,resources/DB.BMP,resources/DG.BMP,Door4,0.216666681,-0.037962984,1,0,0,1.0301,optionRight,60,11570,6,6,0,6,0,1,,,,,,,,,,,,,,,,,,,,,,,,,,,,,,,,,,,,,,,
,,,,,,,63a21141da58c1ee1deebe34,2023-08-06_08h26.06.724,HF_wild_card,2022.2.4,Win32,29.93026249,63a21141da58c1ee1deebe34,64ce5acb97489d65b14ecc7a,64cf4ae847e2f92054050e52,,,,,,,decisionTrl,resources/DB.BMP,resources/DR.BMP,WildCard_NonEx,-0.258333347,-0.051851873,1,0,0,1.0121,optionLeft,45,11615,6,7,0,7,0,1,,,,,,,,,,,,,,,,,,,,,,,,,,,,,,,,,,,,,,,
,,,,,,,63a21141da58c1ee1deebe34,2023-08-06_08h26.06.724,HF_wild_card,2022.2.4,Win32,29.93026249,63a21141da58c1ee1deebe34,64ce5acb97489d65b14ecc7a,64cf4ae847e2f92054050e52,,,,,,,decisionTrl,resources/DY.BMP,resources/DR.BMP,Door1,-0.218518504,-0.065740762,1,0,0,1.1789,optionLeft,30,11645,6,8,0,8,0,1,,,,,,,,,,,,,,,,,,,,,,,,,,,,,,,,,,,,,,,
,,,,,,,63a21141da58c1ee1deebe34,2023-08-06_08h26.06.724,HF_wild_card,2022.2.4,Win32,29.93026249,63a21141da58c1ee1deebe34,64ce5acb97489d65b14ecc7a,64cf4ae847e2f92054050e52,,,,,,,sngl,resources/Empty.png,resources/DP.BMP,Door3,0.267592607,0.000925912,1,0,0,1.0957,optionRight,70,11715,6,9,0,9,0,1,,,,,,,,,,,,,,,,,,,,,,,,,,,,,,,,,,,,,,,
,,,,,,,63a21141da58c1ee1deebe34,2023-08-06_08h26.06.724,HF_wild_card,2022.2.4,Win32,29.93026249,63a21141da58c1ee1deebe34,64ce5acb97489d65b14ecc7a,64cf4ae847e2f92054050e52,,,,,,,sngl,resources/DP.BMP,resources/Empty.png,Door3,-0.222222222,-0.037037037,1,0,0,1.0624,optionLeft,70,11785,6,10,0,10,0,1,,,,,,,,,,,,,,,,,,,,,,,,,,,,,,,,,,,,,,,
,,,,,,,63a21141da58c1ee1deebe34,2023-08-06_08h26.06.724,HF_wild_card,2022.2.4,Win32,29.93026249,63a21141da58c1ee1deebe34,64ce5acb97489d65b14ecc7a,64cf4ae847e2f92054050e52,,,,,,,decisionTrl,resources/DB.BMP,resources/DP.BMP,WildCard_NonEx,-0.162037037,-0.025925919,1,0,0,1.4787,optionLeft,55,11840,6,11,0,11,0,1,,,,,,,,,,,,,,,,,,,,,,,,,,,,,,,,,,,,,,,
,,,,,,,63a21141da58c1ee1deebe34,2023-08-06_08h26.06.724,HF_wild_card,2022.2.4,Win32,29.93026249,63a21141da58c1ee1deebe34,64ce5acb97489d65b14ecc7a,64cf4ae847e2f92054050e52,,,,,,,sngl,resources/DY.BMP,resources/Empty.png,Door1,-0.180555556,-0.023148148,1,0,0,1.061,optionLeft,30,11870,6,12,0,12,0,1,,,,,,,,,,,,,,,,,,,,,,,,,,,,,,,,,,,,,,,
,,,,,,,63a21141da58c1ee1deebe34,2023-08-06_08h26.06.724,HF_wild_card,2022.2.4,Win32,29.93026249,63a21141da58c1ee1deebe34,64ce5acb97489d65b14ecc7a,64cf4ae847e2f92054050e52,,,,,,,decisionTrl,resources/DP.BMP,resources/DG.BMP,Door3,-0.282407407,-0.063888903,1,0,0,1.3623,optionLeft,70,11940,6,13,0,13,0,1,,,,,,,,,,,,,,,,,,,,,,,,,,,,,,,,,,,,,,,
,,,,,,,63a21141da58c1ee1deebe34,2023-08-06_08h26.06.724,HF_wild_card,2022.2.4,Win32,29.93026249,63a21141da58c1ee1deebe34,64ce5acb97489d65b14ecc7a,64cf4ae847e2f92054050e52,,,,,,,ctch,resources/DP.BMP,resources/DR.BMP,Door3,-0.292592578,-0.071296303,1,0,0,1.0121,optionLeft,70,12010,6,14,0,14,0,1,,,,,,,,,,,,,,,,,,,,,,,,,,,,,,,,,,,,,,,
,,,,,,,63a21141da58c1ee1deebe34,2023-08-06_08h26.06.724,HF_wild_card,2022.2.4,Win32,29.93026249,63a21141da58c1ee1deebe34,64ce5acb97489d65b14ecc7a,64cf4ae847e2f92054050e52,,,,,,,decisionTrl,resources/DR.BMP,resources/DY.BMP,Door1,0.178703732,-0.044444437,1,0,0,1.8287,optionRight,30,12040,6,15,0,15,0,1,,,,,,,,,,,,,,,,,,,,,,,,,,,,,,,,,,,,,,,
,,,,,,,63a21141da58c1ee1deebe34,2023-08-06_08h26.06.724,HF_wild_card,2022.2.4,Win32,29.93026249,63a21141da58c1ee1deebe34,64ce5acb97489d65b14ecc7a,64cf4ae847e2f92054050e52,,,,,,,decisionTrl,resources/DG.BMP,resources/DP.BMP,Door3,0.216666681,-0.037037037,1,0,0,1.2597,optionRight,70,12110,6,16,0,16,0,1,,,,,,,,,,,,,,,,,,,,,,,,,,,,,,,,,,,,,,,
,,,,,,,63a21141da58c1ee1deebe34,2023-08-06_08h26.06.724,HF_wild_card,2022.2.4,Win32,29.93026249,63a21141da58c1ee1deebe34,64ce5acb97489d65b14ecc7a,64cf4ae847e2f92054050e52,,,,,,,decisionTrl,resources/DY.BMP,resources/DR.BMP,Door1,-0.175925926,-0.056481503,1,0,0,1.6289,optionLeft,30,12140,6,17,0,17,0,1,,,,,,,,,,,,,,,,,,,,,,,,,,,,,,,,,,,,,,,
,,,,,,,63a21141da58c1ee1deebe34,2023-08-06_08h26.06.724,HF_wild_card,2022.2.4,Win32,29.93026249,63a21141da58c1ee1deebe34,64ce5acb97489d65b14ecc7a,64cf4ae847e2f92054050e52,,,,,,,sngl,resources/DB.BMP,resources/Empty.png,WildCard_NonEx,-0.241666653,-0.039814808,1,0,0,1.2797,optionLeft,45,12185,6,18,0,18,0,1,,,,,,,,,,,,,,,,,,,,,,,,,,,,,,,,,,,,,,,
,,,,,,,63a21141da58c1ee1deebe34,2023-08-06_08h26.06.724,HF_wild_card,2022.2.4,Win32,29.93026249,63a21141da58c1ee1deebe34,64ce5acb97489d65b14ecc7a,64cf4ae847e2f92054050e52,,,,,,,sngl,resources/Empty.png,resources/DY.BMP,Door1,0.227777764,-0.008333347,1,0,0,1.0287,optionRight,30,12215,6,19,0,19,0,1,,,,,,,,,,,,,,,,,,,,,,,,,,,,,,,,,,,,,,,
,,,,,,,63a21141da58c1ee1deebe34,2023-08-06_08h26.06.724,HF_wild_card,2022.2.4,Win32,29.93026249,63a21141da58c1ee1deebe34,64ce5acb97489d65b14ecc7a,64cf4ae847e2f92054050e52,,,,,,,ctch,resources/DY.BMP,resources/DG.BMP,Door1,-0.164814772,-0.037962984,1,0,0,1.1125,optionLeft,30,12245,6,20,0,20,0,1,,,,,,,,,,,,,,,,,,,,,,,,,,,,,,,,,,,,,,,
,,,,,,,63a21141da58c1ee1deebe34,2023-08-06_08h26.06.724,HF_wild_card,2022.2.4,Win32,29.93026249,63a21141da58c1ee1deebe34,64ce5acb97489d65b14ecc7a,64cf4ae847e2f92054050e52,,,,,,,decisionTrl,resources/DP.BMP,resources/DG.BMP,Door4,0.20185188,-0.003703718,1,0,0,1.1127,optionRight,80,12325,6,21,0,21,0,1,,,,,,,,,,,,,,,,,,,,,,,,,,,,,,,,,,,,,,,
,,,,,,,63a21141da58c1ee1deebe34,2023-08-06_08h26.06.724,HF_wild_card,2022.2.4,Win32,29.93026249,63a21141da58c1ee1deebe34,64ce5acb97489d65b14ecc7a,64cf4ae847e2f92054050e52,,,,,,,decisionTrl,resources/DY.BMP,resources/DB.BMP,WildCard_NonEx,0.220370399,-0.012962977,1,0,0,1.4631,optionRight,45,12370,6,22,0,22,0,1,,,,,,,,,,,,,,,,,,,,,,,,,,,,,,,,,,,,,,,
,,,,,,,63a21141da58c1ee1deebe34,2023-08-06_08h26.06.724,HF_wild_card,2022.2.4,Win32,29.93026249,63a21141da58c1ee1deebe34,64ce5acb97489d65b14ecc7a,64cf4ae847e2f92054050e52,,,,,,,sngl,resources/Empty.png,resources/DR.BMP,Door2,0.006481524,-0.010185206,1,0,0,0.6131,optionRight,40,12410,6,23,0,23,0,1,,,,,,,,,,,,,,,,,,,,,,,,,,,,,,,,,,,,,,,
,,,,,,,63a21141da58c1ee1deebe34,2023-08-06_08h26.06.724,HF_wild_card,2022.2.4,Win32,29.93026249,63a21141da58c1ee1deebe34,64ce5acb97489d65b14ecc7a,64cf4ae847e2f92054050e52,,,,,,,ctch,resources/DG.BMP,resources/DY.BMP,Door4,-0.167592578,-0.015740748,1,0,0,1.4457,optionLeft,80,12490,6,24,0,24,0,1,,,,,,,,,,,,,,,,,,,,,,,,,,,,,,,,,,,,,,,
,,,,,,,63a21141da58c1ee1deebe34,2023-08-06_08h26.06.724,HF_wild_card,2022.2.4,Win32,29.93026249,63a21141da58c1ee1deebe34,64ce5acb97489d65b14ecc7a,64cf4ae847e2f92054050e52,,,,,,,sngl,resources/Empty.png,resources/DB.BMP,WildCard_NonEx,0.263888889,0,1,0,0,1.228,optionRight,45,12535,6,25,0,25,0,1,,,,,,,,,,,,,,,,,,,,,,,,,,,,,,,,,,,,,,,
,,,,,,,63a21141da58c1ee1deebe34,2023-08-06_08h26.06.724,HF_wild_card,2022.2.4,Win32,29.93026249,63a21141da58c1ee1deebe34,64ce5acb97489d65b14ecc7a,64cf4ae847e2f92054050e52,,,,,,,decisionTrl,resources/DR.BMP,resources/DB.BMP,WildCard_NonEx,0.251851894,0.013888889,1,0,0,1.9128,optionRight,45,12580,6,26,0,26,0,1,,,,,,,,,,,,,,,,,,,,,,,,,,,,,,,,,,,,,,,
,,,,,,,63a21141da58c1ee1deebe34,2023-08-06_08h26.06.724,HF_wild_card,2022.2.4,Win32,29.93026249,63a21141da58c1ee1deebe34,64ce5acb97489d65b14ecc7a,64cf4ae847e2f92054050e52,,,,,,,decisionTrl,resources/DY.BMP,resources/DR.BMP,Door1,-0.200925898,-0.027777778,1,0,0,2.6786,optionLeft,30,12610,6,27,0,27,0,1,,,,,,,,,,,,,,,,,,,,,,,,,,,,,,,,,,,,,,,
,,,,,,,63a21141da58c1ee1deebe34,2023-08-06_08h26.06.724,HF_wild_card,2022.2.4,Win32,29.93026249,63a21141da58c1ee1deebe34,64ce5acb97489d65b14ecc7a,64cf4ae847e2f92054050e52,,,,,,,decisionTrl,resources/DP.BMP,resources/DG.BMP,Door4,0.30277775,-0.010185206,1,0,0,1.6954,optionRight,60,12670,6,28,0,28,0,1,,,,,,,,,,,,,,,,,,,,,,,,,,,,,,,,,,,,,,,
,,,,,,,63a21141da58c1ee1deebe34,2023-08-06_08h26.06.724,HF_wild_card,2022.2.4,Win32,29.93026249,63a21141da58c1ee1deebe34,64ce5acb97489d65b14ecc7a,64cf4ae847e2f92054050e52,,,,,,,decisionTrl,resources/DP.BMP,resources/DG.BMP,Door4,0.30277775,0.021296289,1,0,0,0.9959,optionRight,80,12750,6,29,0,29,0,1,,,,,,,,,,,,,,,,,,,,,,,,,,,,,,,,,,,,,,,
,,,,,,,63a21141da58c1ee1deebe34,2023-08-06_08h26.06.724,HF_wild_card,2022.2.4,Win32,29.93026249,63a21141da58c1ee1deebe34,64ce5acb97489d65b14ecc7a,64cf4ae847e2f92054050e52,,,,,,,decisionTrl,resources/DY.BMP,resources/DR.BMP,Door1,-0.202777792,-0.025000007,1,0,0,1.6617,optionLeft,30,12780,6,30,0,30,0,1,,,,,,,,,,,,,,,,,,,,,,,,,,,,,,,,,,,,,,,
,,,,,,,63a21141da58c1ee1deebe34,2023-08-06_08h26.06.724,HF_wild_card,2022.2.4,Win32,29.93026249,63a21141da58c1ee1deebe34,64ce5acb97489d65b14ecc7a,64cf4ae847e2f92054050e52,,,,,,,ctch,resources/DG.BMP,resources/DY.BMP,Door4,-0.255555541,-0.041666667,1,0,0,1.1623,optionLeft,60,12840,6,31,0,31,0,1,,,,,,,,,,,,,,,,,,,,,,,,,,,,,,,,,,,,,,,
,,,,,,,63a21141da58c1ee1deebe34,2023-08-06_08h26.06.724,HF_wild_card,2022.2.4,Win32,29.93026249,63a21141da58c1ee1deebe34,64ce5acb97489d65b14ecc7a,64cf4ae847e2f92054050e52,,,,,,,decisionTrl,resources/DG.BMP,resources/DP.BMP,Door4,-0.276851866,-0.046296296,1,0,0,1.1961,optionLeft,60,12900,6,32,0,32,0,1,,,,,,,,,,,,,,,,,,,,,,,,,,,,,,,,,,,,,,,
,,,,,,,63a21141da58c1ee1deebe34,2023-08-06_08h26.06.724,HF_wild_card,2022.2.4,Win32,29.93026249,63a21141da58c1ee1deebe34,64ce5acb97489d65b14ecc7a,64cf4ae847e2f92054050e52,,,,,,,decisionTrl,resources/DR.BMP,resources/DY.BMP,Door1,0.167592578,-0.046296296,1,0,0,1.8291,optionRight,30,12930,6,33,0,33,0,1,,,,,,,,,,,,,,,,,,,,,,,,,,,,,,,,,,,,,,,
,,,,,,,63a21141da58c1ee1deebe34,2023-08-06_08h26.06.724,HF_wild_card,2022.2.4,Win32,29.93026249,63a21141da58c1ee1deebe34,64ce5acb97489d65b14ecc7a,64cf4ae847e2f92054050e52,,,,,,,decisionTrl,resources/DG.BMP,resources/DP.BMP,Door4,-0.159259231,-0.071296303,1,0,0,1.8616,optionLeft,60,12990,6,34,0,34,0,1,,,,,,,,,,,,,,,,,,,,,,,,,,,,,,,,,,,,,,,
,,,,,,,63a21141da58c1ee1deebe34,2023-08-06_08h26.06.724,HF_wild_card,2022.2.4,Win32,29.93026249,63a21141da58c1ee1deebe34,64ce5acb97489d65b14ecc7a,64cf4ae847e2f92054050e52,,,,,,,decisionTrl,resources/DG.BMP,resources/DP.BMP,Door3,0.285185213,0.014814801,1,0,0,1.0121,optionRight,70,13060,6,35,0,35,0,1,,,,,,,,,,,,,,,,,,,,,,,,,,,,,,,,,,,,,,,
,,,,,,,63a21141da58c1ee1deebe34,2023-08-06_08h26.06.724,HF_wild_card,2022.2.4,Win32,29.93026249,63a21141da58c1ee1deebe34,64ce5acb97489d65b14ecc7a,64cf4ae847e2f92054050e52,,,,,,,decisionTrl,resources/DR.BMP,resources/DY.BMP,Door1,0.290740755,0.003703683,1,0,0,1.5623,optionRight,30,13090,6,36,0,36,0,1,,,,,,,,,,,,,,,,,,,,,,,,,,,,,,,,,,,,,,,
,,,,,,,63a21141da58c1ee1deebe34,2023-08-06_08h26.06.724,HF_wild_card,2022.2.4,Win32,29.93026249,63a21141da58c1ee1deebe34,64ce5acb97489d65b14ecc7a,64cf4ae847e2f92054050e52,,,,,,,ctch,resources/DY.BMP,resources/DG.BMP,Door4,0.330555527,0.011111118,1,0,0,1.6288,optionRight,60,13150,6,37,0,37,0,1,,,,,,,,,,,,,,,,,,,,,,,,,,,,,,,,,,,,,,,
,,,,,,,63a21141da58c1ee1deebe34,2023-08-06_08h26.06.724,HF_wild_card,2022.2.4,Win32,29.93026249,63a21141da58c1ee1deebe34,64ce5acb97489d65b14ecc7a,64cf4ae847e2f92054050e52,,,,,,,sngl,resources/DR.BMP,resources/Empty.png,Door2,-0.198148162,-0.023148148,1,0,0,1.2459,optionLeft,20,13170,6,38,0,38,0,1,,,,,,,,,,,,,,,,,,,,,,,,,,,,,,,,,,,,,,,
,,,,,,,63a21141da58c1ee1deebe34,2023-08-06_08h26.06.724,HF_wild_card,2022.2.4,Win32,29.93026249,63a21141da58c1ee1deebe34,64ce5acb97489d65b14ecc7a,64cf4ae847e2f92054050e52,,,,,,,ctch,resources/DP.BMP,resources/DR.BMP,Door3,-0.155555513,-0.021296289,1,0,0,1.1958,optionLeft,70,13240,6,39,0,39,0,1,,,,,,,,,,,,,,,,,,,,,,,,,,,,,,,,,,,,,,,
,,,,,,,63a21141da58c1ee1deebe34,2023-08-06_08h26.06.724,HF_wild_card,2022.2.4,Win32,29.93026249,63a21141da58c1ee1deebe34,64ce5acb97489d65b14ecc7a,64cf4ae847e2f92054050e52,,,,,,,ctch,resources/DR.BMP,resources/DP.BMP,Door3,0.279629672,-0.0074074,1,0,0,1.2796,optionRight,70,13310,6,40,0,40,0,1,,,,,,,,,,,,,,,,,,,,,,,,,,,,,,,,,,,,,,,
,,,,,,,63a21141da58c1ee1deebe34,2023-08-06_08h26.06.724,HF_wild_card,2022.2.4,Win32,29.93026249,63a21141da58c1ee1deebe34,64ce5acb97489d65b14ecc7a,64cf4ae847e2f92054050e52,,,,,,,sngl,resources/DB.BMP,resources/Empty.png,WildCard_NonEx,-0.215740698,-0.012962977,1,0,0,1.2794,optionLeft,55,13365,6,41,0,41,0,1,,,,,,,,,,,,,,,,,,,,,,,,,,,,,,,,,,,,,,,
,,,,,,,63a21141da58c1ee1deebe34,2023-08-06_08h26.06.724,HF_wild_card,2022.2.4,Win32,29.93026249,63a21141da58c1ee1deebe34,64ce5acb97489d65b14ecc7a,64cf4ae847e2f92054050e52,,,,,,,ctch,resources/DR.BMP,resources/DP.BMP,Door3,0.225000028,-0.012962977,1,0,0,1.2801,optionRight,70,13435,6,42,0,42,0,1,,,,,,,,,,,,,,,,,,,,,,,,,,,,,,,,,,,,,,,
,,,,,,,63a21141da58c1ee1deebe34,2023-08-06_08h26.06.724,HF_wild_card,2022.2.4,Win32,29.93026249,63a21141da58c1ee1deebe34,64ce5acb97489d65b14ecc7a,64cf4ae847e2f92054050e52,,,,,,,sngl,resources/Empty.png,resources/DB.BMP,WildCard_NonEx,0.223148134,-0.029629637,1,0,0,1.2791,optionRight,55,13490,6,43,0,43,0,1,,,,,,,,,,,,,,,,,,,,,,,,,,,,,,,,,,,,,,,
,,,,,,,63a21141da58c1ee1deebe34,2023-08-06_08h26.06.724,HF_wild_card,2022.2.4,Win32,29.93026249,63a21141da58c1ee1deebe34,64ce5acb97489d65b14ecc7a,64cf4ae847e2f92054050e52,,,,,,,,,,,,,,,,,,,,,,,,,,5,0,5,0,1,,,,,,,,,,,,,,,,,,,,,,,,,,,,,,,,,,
,,,,,,,63a21141da58c1ee1deebe34,2023-08-06_08h26.06.724,HF_wild_card,2022.2.4,Win32,29.93026249,63a21141da58c1ee1deebe34,64ce5acb97489d65b14ecc7a,64cf4ae847e2f92054050e52,,,,,,,ctch,resources/DR.BMP,resources/DP.BMP,Door3,0.20185188,-0.145370413,1,0,0,1.2398,optionRight,70,13560,7,0,0,0,0,1,,,,,,,,,,,,,,,,,,,,,,,,,,,,,,,,,,,,,,,
,,,,,,,63a21141da58c1ee1deebe34,2023-08-06_08h26.06.724,HF_wild_card,2022.2.4,Win32,29.93026249,63a21141da58c1ee1deebe34,64ce5acb97489d65b14ecc7a,64cf4ae847e2f92054050e52,,,,,,,decisionTrl,resources/DP.BMP,resources/DG.BMP,Door4,0.259259259,-0.048148155,1,0,0,1.8979,optionRight,60,13620,7,1,0,1,0,1,,,,,,,,,,,,,,,,,,,,,,,,,,,,,,,,,,,,,,,
,,,,,,,63a21141da58c1ee1deebe34,2023-08-06_08h26.06.724,HF_wild_card,2022.2.4,Win32,29.93026249,63a21141da58c1ee1deebe34,64ce5acb97489d65b14ecc7a,64cf4ae847e2f92054050e52,,,,,,,decisionTrl,resources/DY.BMP,resources/DR.BMP,Door1,-0.152777778,-0.033333355,1,0,0,1.6144,optionLeft,30,13650,7,2,0,2,0,1,,,,,,,,,,,,,,,,,,,,,,,,,,,,,,,,,,,,,,,
,,,,,,,63a21141da58c1ee1deebe34,2023-08-06_08h26.06.724,HF_wild_card,2022.2.4,Win32,29.93026249,63a21141da58c1ee1deebe34,64ce5acb97489d65b14ecc7a,64cf4ae847e2f92054050e52,,,,,,,decisionTrl,resources/DR.BMP,resources/DY.BMP,Door1,0.287037037,0.017592571,1,0,0,1.2297,optionRight,30,13680,7,3,0,3,0,1,,,,,,,,,,,,,,,,,,,,,,,,,,,,,,,,,,,,,,,
,,,,,,,63a21141da58c1ee1deebe34,2023-08-06_08h26.06.724,HF_wild_card,2022.2.4,Win32,29.93026249,63a21141da58c1ee1deebe34,64ce5acb97489d65b14ecc7a,64cf4ae847e2f92054050e52,,,,,,,decisionTrl,resources/DY.BMP,resources/DR.BMP,Door1,-0.132407365,-0.033333355,1,0,0,1.2311,optionLeft,30,13710,7,4,0,4,0,1,,,,,,,,,,,,,,,,,,,,,,,,,,,,,,,,,,,,,,,
,,,,,,,63a21141da58c1ee1deebe34,2023-08-06_08h26.06.724,HF_wild_card,2022.2.4,Win32,29.93026249,63a21141da58c1ee1deebe34,64ce5acb97489d65b14ecc7a,64cf4ae847e2f92054050e52,,,,,,,decisionTrl,resources/DG.BMP,resources/DP.BMP,Door4,-0.201851809,-0.021296289,1,0,0,1.6134,optionLeft,80,13790,7,5,0,5,0,1,,,,,,,,,,,,,,,,,,,,,,,,,,,,,,,,,,,,,,,
,,,,,,,63a21141da58c1ee1deebe34,2023-08-06_08h26.06.724,HF_wild_card,2022.2.4,Win32,29.93026249,63a21141da58c1ee1deebe34,64ce5acb97489d65b14ecc7a,64cf4ae847e2f92054050e52,,,,,,,ctch,resources/DG.BMP,resources/DY.BMP,Door4,-0.189814815,-0.017592607,1,0,0,1.164,optionLeft,60,13850,7,6,0,6,0,1,,,,,,,,,,,,,,,,,,,,,,,,,,,,,,,,,,,,,,,
,,,,,,,63a21141da58c1ee1deebe34,2023-08-06_08h26.06.724,HF_wild_card,2022.2.4,Win32,29.93026249,63a21141da58c1ee1deebe34,64ce5acb97489d65b14ecc7a,64cf4ae847e2f92054050e52,,,,,,,decisionTrl,resources/DP.BMP,resources/DG.BMP,Door4,0.20648151,-0.008333347,1,0,0,1.598,optionRight,60,13910,7,7,0,7,0,1,,,,,,,,,,,,,,,,,,,,,,,,,,,,,,,,,,,,,,,
,,,,,,,63a21141da58c1ee1deebe34,2023-08-06_08h26.06.724,HF_wild_card,2022.2.4,Win32,29.93026249,63a21141da58c1ee1deebe34,64ce5acb97489d65b14ecc7a,64cf4ae847e2f92054050e52,,,,,,,ctch,resources/DP.BMP,resources/DR.BMP,Door3,-0.215740698,-0.045370384,1,0,0,1.2819,optionLeft,70,13980,7,8,0,8,0,1,,,,,,,,,,,,,,,,,,,,,,,,,,,,,,,,,,,,,,,
,,,,,,,63a21141da58c1ee1deebe34,2023-08-06_08h26.06.724,HF_wild_card,2022.2.4,Win32,29.93026249,63a21141da58c1ee1deebe34,64ce5acb97489d65b14ecc7a,64cf4ae847e2f92054050e52,,,,,,,ctch,resources/DY.BMP,resources/DG.BMP,Door4,0.185185185,-0.01666666,1,0,0,1.5813,optionRight,80,14060,7,9,0,9,0,1,,,,,,,,,,,,,,,,,,,,,,,,,,,,,,,,,,,,,,,
,,,,,,,63a21141da58c1ee1deebe34,2023-08-06_08h26.06.724,HF_wild_card,2022.2.4,Win32,29.93026249,63a21141da58c1ee1deebe34,64ce5acb97489d65b14ecc7a,64cf4ae847e2f92054050e52,,,,,,,decisionTrl,resources/DY.BMP,resources/DR.BMP,Door1,-0.262962977,-0.072222215,1,0,0,1.8642,optionLeft,30,14090,7,10,0,10,0,1,,,,,,,,,,,,,,,,,,,,,,,,,,,,,,,,,,,,,,,
,,,,,,,63a21141da58c1ee1deebe34,2023-08-06_08h26.06.724,HF_wild_card,2022.2.4,Win32,29.93026249,63a21141da58c1ee1deebe34,64ce5acb97489d65b14ecc7a,64cf4ae847e2f92054050e52,,,,,,,decisionTrl,resources/DY.BMP,resources/DR.BMP,Door1,-0.183333291,-0.047222243,1,0,0,1.1145,optionLeft,30,14120,7,11,0,11,0,1,,,,,,,,,,,,,,,,,,,,,,,,,,,,,,,,,,,,,,,
,,,,,,,63a21141da58c1ee1deebe34,2023-08-06_08h26.06.724,HF_wild_card,2022.2.4,Win32,29.93026249,63a21141da58c1ee1deebe34,64ce5acb97489d65b14ecc7a,64cf4ae847e2f92054050e52,,,,,,,ctch,resources/DP.BMP,resources/DR.BMP,Door3,-0.184259273,-0.044444437,1,0,0,1.2806,optionLeft,70,14190,7,12,0,12,0,1,,,,,,,,,,,,,,,,,,,,,,,,,,,,,,,,,,,,,,,
,,,,,,,63a21141da58c1ee1deebe34,2023-08-06_08h26.06.724,HF_wild_card,2022.2.4,Win32,29.93026249,63a21141da58c1ee1deebe34,64ce5acb97489d65b14ecc7a,64cf4ae847e2f92054050e52,,,,,,,decisionTrl,resources/DP.BMP,resources/DG.BMP,Door3,-0.215740698,-0.045370384,1,0,0,1.0314,optionLeft,70,14260,7,13,0,13,0,1,,,,,,,,,,,,,,,,,,,,,,,,,,,,,,,,,,,,,,,
,,,,,,,63a21141da58c1ee1deebe34,2023-08-06_08h26.06.724,HF_wild_card,2022.2.4,Win32,29.93026249,63a21141da58c1ee1deebe34,64ce5acb97489d65b14ecc7a,64cf4ae847e2f92054050e52,,,,,,,ctch,resources/DR.BMP,resources/DP.BMP,Door3,0.267592607,-0.006481489,1,0,0,1.1809,optionRight,70,14330,7,14,0,14,0,1,,,,,,,,,,,,,,,,,,,,,,,,,,,,,,,,,,,,,,,
,,,,,,,63a21141da58c1ee1deebe34,2023-08-06_08h26.06.724,HF_wild_card,2022.2.4,Win32,29.93026249,63a21141da58c1ee1deebe34,64ce5acb97489d65b14ecc7a,64cf4ae847e2f92054050e52,,,,,,,decisionTrl,resources/DG.BMP,resources/DP.BMP,Door4,-0.212037051,-0.076851845,1,0,0,1.2481,optionLeft,80,14410,7,15,0,15,0,1,,,,,,,,,,,,,,,,,,,,,,,,,,,,,,,,,,,,,,,
,,,,,,,63a21141da58c1ee1deebe34,2023-08-06_08h26.06.724,HF_wild_card,2022.2.4,Win32,29.93026249,63a21141da58c1ee1deebe34,64ce5acb97489d65b14ecc7a,64cf4ae847e2f92054050e52,,,,,,,ctch,resources/DP.BMP,resources/DR.BMP,Door3,-0.280555513,-0.054629644,1,0,0,1.3143,optionLeft,70,14480,7,16,0,16,0,1,,,,,,,,,,,,,,,,,,,,,,,,,,,,,,,,,,,,,,,
,,,,,,,63a21141da58c1ee1deebe34,2023-08-06_08h26.06.724,HF_wild_card,2022.2.4,Win32,29.93026249,63a21141da58c1ee1deebe34,64ce5acb97489d65b14ecc7a,64cf4ae847e2f92054050e52,,,,,,,decisionTrl,resources/DR.BMP,resources/DY.BMP,Door1,0.242592635,-0.015740748,1,0,0,1.4475,optionRight,30,14510,7,17,0,17,0,1,,,,,,,,,,,,,,,,,,,,,,,,,,,,,,,,,,,,,,,
,,,,,,,63a21141da58c1ee1deebe34,2023-08-06_08h26.06.724,HF_wild_card,2022.2.4,Win32,29.93026249,63a21141da58c1ee1deebe34,64ce5acb97489d65b14ecc7a,64cf4ae847e2f92054050e52,,,,,,,ctch,resources/DG.BMP,resources/DY.BMP,Door4,-0.241666653,-0.100000028,1,0,0,1.1142,optionLeft,80,14590,7,18,0,18,0,1,,,,,,,,,,,,,,,,,,,,,,,,,,,,,,,,,,,,,,,
,,,,,,,63a21141da58c1ee1deebe34,2023-08-06_08h26.06.724,HF_wild_card,2022.2.4,Win32,29.93026249,63a21141da58c1ee1deebe34,64ce5acb97489d65b14ecc7a,64cf4ae847e2f92054050e52,,,,,,,decisionTrl,resources/DR.BMP,resources/DY.BMP,Door1,0.280555584,0.005555541,1,0,0,1.6149,optionRight,30,14620,7,19,0,19,0,1,,,,,,,,,,,,,,,,,,,,,,,,,,,,,,,,,,,,,,,
,,,,,,,63a21141da58c1ee1deebe34,2023-08-06_08h26.06.724,HF_wild_card,2022.2.4,Win32,29.93026249,63a21141da58c1ee1deebe34,64ce5acb97489d65b14ecc7a,64cf4ae847e2f92054050e52,,,,,,,decisionTrl,resources/DP.BMP,resources/DG.BMP,Door3,-0.212962963,-0.038888896,1,0,0,1.2479,optionLeft,70,14690,7,20,0,20,0,1,,,,,,,,,,,,,,,,,,,,,,,,,,,,,,,,,,,,,,,
