Condition,Low fixed image (Door1),Low risky image (Door2),High fixed image (Door3),High risky image (Door4),Extreme Wild Card,NonExtreme Wild Card,,date,expName,psychopyVersion,OS,frameRate,PROLIFIC_PID,STUDY_ID,SESSION_ID,mouse_2.x,mouse_2.y,mouse_2.leftButton,mouse_2.midButton,mouse_2.rightButton,mouse_2.clicked_name,Trial Type,Left Option Image,Right Option Image,Chosen Door,mouse.x,mouse.y,mouse.leftButton,mouse.midButton,mouse.rightButton,mouse.time,mouse.clicked_name,Feedback,Cumulative Reward,Block,trial.thisRepN,trial.thisTrialN,trial.thisN,trial.thisIndex,trial.ran,blocks.thisRepN,blocks.thisTrialN,blocks.thisN,blocks.thisIndex,blocks.ran,Money conversion,First Outcome Reported,Shown Door (First Outcome),Displayed Image (First Outcome),outcomes.thisRepN,outcomes.thisTrialN,outcomes.thisN,outcomes.thisIndex,outcomes.ran,judgments.thisRepN,judgments.thisTrialN,judgments.thisN,judgments.thisIndex,judgments.ran,freqMouse.x,freqMouse.y,freqMouse.leftButton,freqMouse.midButton,freqMouse.rightButton,freqMouse.clicked_name,FQJ for first outcome,FQJ for second outcome,Shown Door,Displayed Image,trials.thisRepN,trials.thisTrialN,trials.thisN,trials.thisIndex,trials.ran,judgBlock.thisRepN,judgBlock.thisTrialN,judgBlock.thisN,judgBlock.thisIndex,judgBlock.ran
0,resources/DG.BMP,resources/DB.BMP,resources/DY.BMP,resources/DR.BMP,resources/DBN.BMP,resources/DP.BMP,,2023-08-16_08h50.16.876,HF_wild_card,2022.2.4,Win32,60.0240096,63df7cace40d9c9ddda134d8,64d2fd46c836a06233681665,64dc7f8f0f4bab065e53d2ac,,,,,,,,,,,,,,,,,,,,,,,,,,,,,,,,,,,,,,,,,,,,,,,,,,,,,,,,,,,,,,,,
,,,,,,,,2023-08-16_08h50.16.876,HF_wild_card,2022.2.4,Win32,60.0240096,63df7cace40d9c9ddda134d8,64d2fd46c836a06233681665,64dc7f8f0f4bab065e53d2ac,-0.002777778,-0.425925926,1,0,0,agree,,,,,,,,,,,,,,,,,,,,,,,,,,,,,,,,,,,,,,,,,,,,,,,,,,,,,,,,,,
,,,,,,,,2023-08-16_08h50.16.876,HF_wild_card,2022.2.4,Win32,60.0240096,63df7cace40d9c9ddda134d8,64d2fd46c836a06233681665,64dc7f8f0f4bab065e53d2ac,,,,,,,,,,,,,,,,,,,,,,,,,,,,,,,,,,,,,,,,,,,,,,,,,,,,,,,,,,,,,,,,
,,,,,,,,2023-08-16_08h50.16.876,HF_wild_card,2022.2.4,Win32,60.0240096,63df7cace40d9c9ddda134d8,64d2fd46c836a06233681665,64dc7f8f0f4bab065e53d2ac,,,,,,,sngl,resources/Empty.png,resources/DB.BMP,Door2,0.317592593,-0.063888889,1,0,0,4.187,optionRight,20,20,1,0,0,0,0,1,,,,,,,,,,,,,,,,,,,,,,,,,,,,,,,,,,,,,,,
,,,,,,,,2023-08-16_08h50.16.876,HF_wild_card,2022.2.4,Win32,60.0240096,63df7cace40d9c9ddda134d8,64d2fd46c836a06233681665,64dc7f8f0f4bab065e53d2ac,,,,,,,decisionTrl,resources/DY.BMP,resources/DBN.BMP,Door3,-0.412037037,-0.010185185,1,0,0,2.413,optionLeft,70,90,1,1,0,1,0,1,,,,,,,,,,,,,,,,,,,,,,,,,,,,,,,,,,,,,,,
,,,,,,,,2023-08-16_08h50.16.876,HF_wild_card,2022.2.4,Win32,60.0240096,63df7cace40d9c9ddda134d8,64d2fd46c836a06233681665,64dc7f8f0f4bab065e53d2ac,,,,,,,ctch,resources/DG.BMP,resources/DR.BMP,Door4,0.27962963,-0.009259259,1,0,0,1.939,optionRight,80,170,1,2,0,2,0,1,,,,,,,,,,,,,,,,,,,,,,,,,,,,,,,,,,,,,,,
,,,,,,,,2023-08-16_08h50.16.876,HF_wild_card,2022.2.4,Win32,60.0240096,63df7cace40d9c9ddda134d8,64d2fd46c836a06233681665,64dc7f8f0f4bab065e53d2ac,,,,,,,decisionTrl,resources/DBN.BMP,resources/DY.BMP,Door3,0.355555556,-0.009259259,1,0,0,1.167,optionRight,70,240,1,3,0,3,0,1,,,,,,,,,,,,,,,,,,,,,,,,,,,,,,,,,,,,,,,
,,,,,,,,2023-08-16_08h50.16.876,HF_wild_card,2022.2.4,Win32,60.0240096,63df7cace40d9c9ddda134d8,64d2fd46c836a06233681665,64dc7f8f0f4bab065e53d2ac,,,,,,,decisionTrl,resources/DY.BMP,resources/DR.BMP,Door4,0.306481481,0.02962963,1,0,0,3.805,optionRight,80,320,1,4,0,4,0,1,,,,,,,,,,,,,,,,,,,,,,,,,,,,,,,,,,,,,,,
,,,,,,,,2023-08-16_08h50.16.876,HF_wild_card,2022.2.4,Win32,60.0240096,63df7cace40d9c9ddda134d8,64d2fd46c836a06233681665,64dc7f8f0f4bab065e53d2ac,,,,,,,decisionTrl,resources/DG.BMP,resources/DB.BMP,Door2,0.327777778,0.003703704,1,0,0,1.775,optionRight,40,360,1,5,0,5,0,1,,,,,,,,,,,,,,,,,,,,,,,,,,,,,,,,,,,,,,,
,,,,,,,,2023-08-16_08h50.16.876,HF_wild_card,2022.2.4,Win32,60.0240096,63df7cace40d9c9ddda134d8,64d2fd46c836a06233681665,64dc7f8f0f4bab065e53d2ac,,,,,,,ctch,resources/DY.BMP,resources/DB.BMP,Door3,-0.125,0.075,1,0,0,3.106,optionLeft,70,430,1,6,0,6,0,1,,,,,,,,,,,,,,,,,,,,,,,,,,,,,,,,,,,,,,,
,,,,,,,,2023-08-16_08h50.16.876,HF_wild_card,2022.2.4,Win32,60.0240096,63df7cace40d9c9ddda134d8,64d2fd46c836a06233681665,64dc7f8f0f4bab065e53d2ac,,,,,,,decisionTrl,resources/DB.BMP,resources/DG.BMP,Door1,0.337037037,0.041666667,1,0,0,2.039,optionRight,30,460,1,7,0,7,0,1,,,,,,,,,,,,,,,,,,,,,,,,,,,,,,,,,,,,,,,
,,,,,,,,2023-08-16_08h50.16.876,HF_wild_card,2022.2.4,Win32,60.0240096,63df7cace40d9c9ddda134d8,64d2fd46c836a06233681665,64dc7f8f0f4bab065e53d2ac,,,,,,,sngl,resources/DBN.BMP,resources/Empty.png,WildCard_Ex,-0.287962963,0.023148148,1,0,0,1.058,optionLeft,5,465,1,8,0,8,0,1,,,,,,,,,,,,,,,,,,,,,,,,,,,,,,,,,,,,,,,
,,,,,,,,2023-08-16_08h50.16.876,HF_wild_card,2022.2.4,Win32,60.0240096,63df7cace40d9c9ddda134d8,64d2fd46c836a06233681665,64dc7f8f0f4bab065e53d2ac,,,,,,,decisionTrl,resources/DY.BMP,resources/DR.BMP,Door4,0.460185185,0.028703704,1,0,0,1.991,optionRight,80,545,1,9,0,9,0,1,,,,,,,,,,,,,,,,,,,,,,,,,,,,,,,,,,,,,,,
,,,,,,,,2023-08-16_08h50.16.876,HF_wild_card,2022.2.4,Win32,60.0240096,63df7cace40d9c9ddda134d8,64d2fd46c836a06233681665,64dc7f8f0f4bab065e53d2ac,,,,,,,sngl,resources/Empty.png,resources/DY.BMP,Door3,0.386111111,0.012962963,1,0,0,0.939,optionRight,70,615,1,10,0,10,0,1,,,,,,,,,,,,,,,,,,,,,,,,,,,,,,,,,,,,,,,
,,,,,,,,2023-08-16_08h50.16.876,HF_wild_card,2022.2.4,Win32,60.0240096,63df7cace40d9c9ddda134d8,64d2fd46c836a06233681665,64dc7f8f0f4bab065e53d2ac,,,,,,,decisionTrl,resources/DB.BMP,resources/DG.BMP,Door2,-0.362962963,0.005555556,1,0,0,1.34,optionLeft,20,635,1,11,0,11,0,1,,,,,,,,,,,,,,,,,,,,,,,,,,,,,,,,,,,,,,,
,,,,,,,,2023-08-16_08h50.16.876,HF_wild_card,2022.2.4,Win32,60.0240096,63df7cace40d9c9ddda134d8,64d2fd46c836a06233681665,64dc7f8f0f4bab065e53d2ac,,,,,,,decisionTrl,resources/DY.BMP,resources/DR.BMP,Door4,0.303703704,-0.046296296,1,0,0,1.694,optionRight,80,715,1,12,0,12,0,1,,,,,,,,,,,,,,,,,,,,,,,,,,,,,,,,,,,,,,,
,,,,,,,,2023-08-16_08h50.16.876,HF_wild_card,2022.2.4,Win32,60.0240096,63df7cace40d9c9ddda134d8,64d2fd46c836a06233681665,64dc7f8f0f4bab065e53d2ac,,,,,,,ctch,resources/DR.BMP,resources/DG.BMP,Door4,-0.300925926,0.044444444,1,0,0,1.55,optionLeft,80,795,1,13,0,13,0,1,,,,,,,,,,,,,,,,,,,,,,,,,,,,,,,,,,,,,,,
,,,,,,,,2023-08-16_08h50.16.876,HF_wild_card,2022.2.4,Win32,60.0240096,63df7cace40d9c9ddda134d8,64d2fd46c836a06233681665,64dc7f8f0f4bab065e53d2ac,,,,,,,decisionTrl,resources/DG.BMP,resources/DB.BMP,Door2,0.419444444,-0.00462963,1,0,0,2.155,optionRight,40,835,1,14,0,14,0,1,,,,,,,,,,,,,,,,,,,,,,,,,,,,,,,,,,,,,,,
,,,,,,,,2023-08-16_08h50.16.876,HF_wild_card,2022.2.4,Win32,60.0240096,63df7cace40d9c9ddda134d8,64d2fd46c836a06233681665,64dc7f8f0f4bab065e53d2ac,,,,,,,decisionTrl,resources/DB.BMP,resources/DG.BMP,Door2,-0.290740741,0.032407407,1,0,0,1.013,optionLeft,40,875,1,15,0,15,0,1,,,,,,,,,,,,,,,,,,,,,,,,,,,,,,,,,,,,,,,
,,,,,,,,2023-08-16_08h50.16.876,HF_wild_card,2022.2.4,Win32,60.0240096,63df7cace40d9c9ddda134d8,64d2fd46c836a06233681665,64dc7f8f0f4bab065e53d2ac,,,,,,,ctch,resources/DB.BMP,resources/DY.BMP,Door3,0.465740741,0.006481481,1,0,0,1.914,optionRight,70,945,1,16,0,16,0,1,,,,,,,,,,,,,,,,,,,,,,,,,,,,,,,,,,,,,,,
,,,,,,,,2023-08-16_08h50.16.876,HF_wild_card,2022.2.4,Win32,60.0240096,63df7cace40d9c9ddda134d8,64d2fd46c836a06233681665,64dc7f8f0f4bab065e53d2ac,,,,,,,decisionTrl,resources/DB.BMP,resources/DBN.BMP,WildCard_Ex,0.425925926,-0.044444444,1,0,0,2.024,optionRight,95,1040,1,17,0,17,0,1,,,,,,,,,,,,,,,,,,,,,,,,,,,,,,,,,,,,,,,
,,,,,,,,2023-08-16_08h50.16.876,HF_wild_card,2022.2.4,Win32,60.0240096,63df7cace40d9c9ddda134d8,64d2fd46c836a06233681665,64dc7f8f0f4bab065e53d2ac,,,,,,,decisionTrl,resources/DBN.BMP,resources/DR.BMP,WildCard_Ex,-0.288888889,0.032407407,1,0,0,1.08,optionLeft,5,1045,1,18,0,18,0,1,,,,,,,,,,,,,,,,,,,,,,,,,,,,,,,,,,,,,,,
,,,,,,,,2023-08-16_08h50.16.876,HF_wild_card,2022.2.4,Win32,60.0240096,63df7cace40d9c9ddda134d8,64d2fd46c836a06233681665,64dc7f8f0f4bab065e53d2ac,,,,,,,decisionTrl,resources/DR.BMP,resources/DBN.BMP,Door4,-0.375925926,0.037037037,1,0,0,1.28,optionLeft,60,1105,1,19,0,19,0,1,,,,,,,,,,,,,,,,,,,,,,,,,,,,,,,,,,,,,,,
,,,,,,,,2023-08-16_08h50.16.876,HF_wild_card,2022.2.4,Win32,60.0240096,63df7cace40d9c9ddda134d8,64d2fd46c836a06233681665,64dc7f8f0f4bab065e53d2ac,,,,,,,decisionTrl,resources/DR.BMP,resources/DY.BMP,Door3,0.303703704,-0.027777778,1,0,0,2.324,optionRight,70,1175,1,20,0,20,0,1,,,,,,,,,,,,,,,,,,,,,,,,,,,,,,,,,,,,,,,
,,,,,,,,2023-08-16_08h50.16.876,HF_wild_card,2022.2.4,Win32,60.0240096,63df7cace40d9c9ddda134d8,64d2fd46c836a06233681665,64dc7f8f0f4bab065e53d2ac,,,,,,,ctch,resources/DR.BMP,resources/DG.BMP,Door4,-0.27962963,0.047222222,1,0,0,0.987,optionLeft,60,1235,1,21,0,21,0,1,,,,,,,,,,,,,,,,,,,,,,,,,,,,,,,,,,,,,,,
,,,,,,,,2023-08-16_08h50.16.876,HF_wild_card,2022.2.4,Win32,60.0240096,63df7cace40d9c9ddda134d8,64d2fd46c836a06233681665,64dc7f8f0f4bab065e53d2ac,,,,,,,decisionTrl,resources/DB.BMP,resources/DG.BMP,Door2,-0.312037037,0.026851852,1,0,0,1.504,optionLeft,40,1275,1,22,0,22,0,1,,,,,,,,,,,,,,,,,,,,,,,,,,,,,,,,,,,,,,,
,,,,,,,,2023-08-16_08h50.16.876,HF_wild_card,2022.2.4,Win32,60.0240096,63df7cace40d9c9ddda134d8,64d2fd46c836a06233681665,64dc7f8f0f4bab065e53d2ac,,,,,,,decisionTrl,resources/DG.BMP,resources/DB.BMP,Door2,0.294444444,0.036111111,1,0,0,1.131,optionRight,20,1295,1,23,0,23,0,1,,,,,,,,,,,,,,,,,,,,,,,,,,,,,,,,,,,,,,,
,,,,,,,,2023-08-16_08h50.16.876,HF_wild_card,2022.2.4,Win32,60.0240096,63df7cace40d9c9ddda134d8,64d2fd46c836a06233681665,64dc7f8f0f4bab065e53d2ac,,,,,,,decisionTrl,resources/DR.BMP,resources/DY.BMP,Door3,0.385185185,-0.05462963,1,0,0,2.378,optionRight,70,1365,1,24,0,24,0,1,,,,,,,,,,,,,,,,,,,,,,,,,,,,,,,,,,,,,,,
,,,,,,,,2023-08-16_08h50.16.876,HF_wild_card,2022.2.4,Win32,60.0240096,63df7cace40d9c9ddda134d8,64d2fd46c836a06233681665,64dc7f8f0f4bab065e53d2ac,,,,,,,decisionTrl,resources/DG.BMP,resources/DBN.BMP,WildCard_Ex,0.391666667,0.041666667,1,0,0,1.313,optionRight,95,1460,1,25,0,25,0,1,,,,,,,,,,,,,,,,,,,,,,,,,,,,,,,,,,,,,,,
,,,,,,,,2023-08-16_08h50.16.876,HF_wild_card,2022.2.4,Win32,60.0240096,63df7cace40d9c9ddda134d8,64d2fd46c836a06233681665,64dc7f8f0f4bab065e53d2ac,,,,,,,sngl,resources/Empty.png,resources/DG.BMP,Door1,-0.476851852,0.007407407,1,0,0,1.721,optionRight,30,1490,1,26,0,26,0,1,,,,,,,,,,,,,,,,,,,,,,,,,,,,,,,,,,,,,,,
,,,,,,,,2023-08-16_08h50.16.876,HF_wild_card,2022.2.4,Win32,60.0240096,63df7cace40d9c9ddda134d8,64d2fd46c836a06233681665,64dc7f8f0f4bab065e53d2ac,,,,,,,ctch,resources/DY.BMP,resources/DB.BMP,Door3,-0.331481481,0.022222222,1,0,0,1.693,optionLeft,70,1560,1,27,0,27,0,1,,,,,,,,,,,,,,,,,,,,,,,,,,,,,,,,,,,,,,,
,,,,,,,,2023-08-16_08h50.16.876,HF_wild_card,2022.2.4,Win32,60.0240096,63df7cace40d9c9ddda134d8,64d2fd46c836a06233681665,64dc7f8f0f4bab065e53d2ac,,,,,,,sngl,resources/DB.BMP,resources/Empty.png,Door2,-0.334259259,0.087962963,1,0,0,1.086,optionLeft,40,1600,1,28,0,28,0,1,,,,,,,,,,,,,,,,,,,,,,,,,,,,,,,,,,,,,,,
,,,,,,,,2023-08-16_08h50.16.876,HF_wild_card,2022.2.4,Win32,60.0240096,63df7cace40d9c9ddda134d8,64d2fd46c836a06233681665,64dc7f8f0f4bab065e53d2ac,,,,,,,sngl,resources/DG.BMP,resources/Empty.png,Door1,-0.324074074,0.028703704,1,0,0,1.254,optionLeft,30,1630,1,29,0,29,0,1,,,,,,,,,,,,,,,,,,,,,,,,,,,,,,,,,,,,,,,
,,,,,,,,2023-08-16_08h50.16.876,HF_wild_card,2022.2.4,Win32,60.0240096,63df7cace40d9c9ddda134d8,64d2fd46c836a06233681665,64dc7f8f0f4bab065e53d2ac,,,,,,,sngl,resources/Empty.png,resources/DBN.BMP,WildCard_Ex,0.372222222,0.025925926,1,0,0,1.019,optionRight,5,1635,1,30,0,30,0,1,,,,,,,,,,,,,,,,,,,,,,,,,,,,,,,,,,,,,,,
,,,,,,,,2023-08-16_08h50.16.876,HF_wild_card,2022.2.4,Win32,60.0240096,63df7cace40d9c9ddda134d8,64d2fd46c836a06233681665,64dc7f8f0f4bab065e53d2ac,,,,,,,decisionTrl,resources/DBN.BMP,resources/DG.BMP,WildCard_Ex,-0.393518519,0.052777778,1,0,0,1.752,optionLeft,5,1640,1,31,0,31,0,1,,,,,,,,,,,,,,,,,,,,,,,,,,,,,,,,,,,,,,,
,,,,,,,,2023-08-16_08h50.16.876,HF_wild_card,2022.2.4,Win32,60.0240096,63df7cace40d9c9ddda134d8,64d2fd46c836a06233681665,64dc7f8f0f4bab065e53d2ac,,,,,,,ctch,resources/DG.BMP,resources/DR.BMP,Door4,0.363888889,-0.000925926,1,0,0,0.973,optionRight,60,1700,1,32,0,32,0,1,,,,,,,,,,,,,,,,,,,,,,,,,,,,,,,,,,,,,,,
,,,,,,,,2023-08-16_08h50.16.876,HF_wild_card,2022.2.4,Win32,60.0240096,63df7cace40d9c9ddda134d8,64d2fd46c836a06233681665,64dc7f8f0f4bab065e53d2ac,,,,,,,decisionTrl,resources/DR.BMP,resources/DY.BMP,Door3,0.371296296,0.05462963,1,0,0,1.788,optionRight,70,1770,1,33,0,33,0,1,,,,,,,,,,,,,,,,,,,,,,,,,,,,,,,,,,,,,,,
,,,,,,,,2023-08-16_08h50.16.876,HF_wild_card,2022.2.4,Win32,60.0240096,63df7cace40d9c9ddda134d8,64d2fd46c836a06233681665,64dc7f8f0f4bab065e53d2ac,,,,,,,decisionTrl,resources/DBN.BMP,resources/DB.BMP,Door2,0.32962963,0.071296296,1,0,0,2.794,optionRight,40,1810,1,34,0,34,0,1,,,,,,,,,,,,,,,,,,,,,,,,,,,,,,,,,,,,,,,
,,,,,,,,2023-08-16_08h50.16.876,HF_wild_card,2022.2.4,Win32,60.0240096,63df7cace40d9c9ddda134d8,64d2fd46c836a06233681665,64dc7f8f0f4bab065e53d2ac,,,,,,,sngl,resources/DR.BMP,resources/Empty.png,Door4,-0.349074074,0.036111111,1,0,0,0.857,optionLeft,80,1890,1,35,0,35,0,1,,,,,,,,,,,,,,,,,,,,,,,,,,,,,,,,,,,,,,,
,,,,,,,,2023-08-16_08h50.16.876,HF_wild_card,2022.2.4,Win32,60.0240096,63df7cace40d9c9ddda134d8,64d2fd46c836a06233681665,64dc7f8f0f4bab065e53d2ac,,,,,,,sngl,resources/Empty.png,resources/DBN.BMP,WildCard_Ex,0.461111111,0.018518519,1,0,0,0.969,optionRight,95,1985,1,36,0,36,0,1,,,,,,,,,,,,,,,,,,,,,,,,,,,,,,,,,,,,,,,
,,,,,,,,2023-08-16_08h50.16.876,HF_wild_card,2022.2.4,Win32,60.0240096,63df7cace40d9c9ddda134d8,64d2fd46c836a06233681665,64dc7f8f0f4bab065e53d2ac,,,,,,,sngl,resources/Empty.png,resources/DR.BMP,Door4,0.415740741,0.060185185,1,0,0,0.861,optionRight,60,2045,1,37,0,37,0,1,,,,,,,,,,,,,,,,,,,,,,,,,,,,,,,,,,,,,,,
,,,,,,,,2023-08-16_08h50.16.876,HF_wild_card,2022.2.4,Win32,60.0240096,63df7cace40d9c9ddda134d8,64d2fd46c836a06233681665,64dc7f8f0f4bab065e53d2ac,,,,,,,sngl,resources/DBN.BMP,resources/Empty.png,WildCard_Ex,-0.300925926,0.099074074,1,0,0,1.046,optionLeft,95,2140,1,38,0,38,0,1,,,,,,,,,,,,,,,,,,,,,,,,,,,,,,,,,,,,,,,
,,,,,,,,2023-08-16_08h50.16.876,HF_wild_card,2022.2.4,Win32,60.0240096,63df7cace40d9c9ddda134d8,64d2fd46c836a06233681665,64dc7f8f0f4bab065e53d2ac,,,,,,,decisionTrl,resources/DR.BMP,resources/DY.BMP,Door3,0.478703704,0.037037037,1,0,0,2.204,optionRight,70,2210,1,39,0,39,0,1,,,,,,,,,,,,,,,,,,,,,,,,,,,,,,,,,,,,,,,
,,,,,,,,2023-08-16_08h50.16.876,HF_wild_card,2022.2.4,Win32,60.0240096,63df7cace40d9c9ddda134d8,64d2fd46c836a06233681665,64dc7f8f0f4bab065e53d2ac,,,,,,,ctch,resources/DB.BMP,resources/DY.BMP,Door3,0.341666667,0.075925926,1,0,0,1.682,optionRight,70,2280,1,40,0,40,0,1,,,,,,,,,,,,,,,,,,,,,,,,,,,,,,,,,,,,,,,
,,,,,,,,2023-08-16_08h50.16.876,HF_wild_card,2022.2.4,Win32,60.0240096,63df7cace40d9c9ddda134d8,64d2fd46c836a06233681665,64dc7f8f0f4bab065e53d2ac,,,,,,,decisionTrl,resources/DY.BMP,resources/DR.BMP,Door4,0.378703704,0.047222222,1,0,0,1.803,optionRight,80,2360,1,41,0,41,0,1,,,,,,,,,,,,,,,,,,,,,,,,,,,,,,,,,,,,,,,
,,,,,,,,2023-08-16_08h50.16.876,HF_wild_card,2022.2.4,Win32,60.0240096,63df7cace40d9c9ddda134d8,64d2fd46c836a06233681665,64dc7f8f0f4bab065e53d2ac,,,,,,,decisionTrl,resources/DG.BMP,resources/DB.BMP,Door2,0.312962963,0.011111111,1,0,0,2.027,optionRight,40,2400,1,42,0,42,0,1,,,,,,,,,,,,,,,,,,,,,,,,,,,,,,,,,,,,,,,
,,,,,,,,2023-08-16_08h50.16.876,HF_wild_card,2022.2.4,Win32,60.0240096,63df7cace40d9c9ddda134d8,64d2fd46c836a06233681665,64dc7f8f0f4bab065e53d2ac,,,,,,,sngl,resources/DY.BMP,resources/Empty.png,Door3,-0.266666667,0.039814815,1,0,0,0.808,optionLeft,70,2470,1,43,0,43,0,1,,,,,,,,,,,,,,,,,,,,,,,,,,,,,,,,,,,,,,,
,,,,,,,,2023-08-16_08h50.16.876,HF_wild_card,2022.2.4,Win32,60.0240096,63df7cace40d9c9ddda134d8,64d2fd46c836a06233681665,64dc7f8f0f4bab065e53d2ac,,,,,,,,,,,,,,,,,,,,,,,,,,0,0,0,0,1,,,,,,,,,,,,,,,,,,,,,,,,,,,,,,,,,,
,,,,,,,,2023-08-16_08h50.16.876,HF_wild_card,2022.2.4,Win32,60.0240096,63df7cace40d9c9ddda134d8,64d2fd46c836a06233681665,64dc7f8f0f4bab065e53d2ac,,,,,,,ctch,resources/DY.BMP,resources/DB.BMP,Door3,-0.507407407,-0.055555556,1,0,0,2.255,optionLeft,70,2540,2,0,0,0,0,1,,,,,,,,,,,,,,,,,,,,,,,,,,,,,,,,,,,,,,,
,,,,,,,,2023-08-16_08h50.16.876,HF_wild_card,2022.2.4,Win32,60.0240096,63df7cace40d9c9ddda134d8,64d2fd46c836a06233681665,64dc7f8f0f4bab065e53d2ac,,,,,,,decisionTrl,resources/DG.BMP,resources/DBN.BMP,WildCard_Ex,-0.010185185,-0.003703704,1,0,0,0.323,optionRight,5,2545,2,1,0,1,0,1,,,,,,,,,,,,,,,,,,,,,,,,,,,,,,,,,,,,,,,
,,,,,,,,2023-08-16_08h50.16.876,HF_wild_card,2022.2.4,Win32,60.0240096,63df7cace40d9c9ddda134d8,64d2fd46c836a06233681665,64dc7f8f0f4bab065e53d2ac,,,,,,,ctch,resources/DR.BMP,resources/DG.BMP,Door4,-0.303703704,0.038888889,1,0,0,1.395,optionLeft,80,2625,2,2,0,2,0,1,,,,,,,,,,,,,,,,,,,,,,,,,,,,,,,,,,,,,,,
,,,,,,,,2023-08-16_08h50.16.876,HF_wild_card,2022.2.4,Win32,60.0240096,63df7cace40d9c9ddda134d8,64d2fd46c836a06233681665,64dc7f8f0f4bab065e53d2ac,,,,,,,sngl,resources/DR.BMP,resources/Empty.png,Door4,-0.311111111,0.055555556,1,0,0,0.878,optionLeft,60,2685,2,3,0,3,0,1,,,,,,,,,,,,,,,,,,,,,,,,,,,,,,,,,,,,,,,
,,,,,,,,2023-08-16_08h50.16.876,HF_wild_card,2022.2.4,Win32,60.0240096,63df7cace40d9c9ddda134d8,64d2fd46c836a06233681665,64dc7f8f0f4bab065e53d2ac,,,,,,,decisionTrl,resources/DY.BMP,resources/DR.BMP,Door4,0.413888889,0.035185185,1,0,0,1.347,optionRight,80,2765,2,4,0,4,0,1,,,,,,,,,,,,,,,,,,,,,,,,,,,,,,,,,,,,,,,
,,,,,,,,2023-08-16_08h50.16.876,HF_wild_card,2022.2.4,Win32,60.0240096,63df7cace40d9c9ddda134d8,64d2fd46c836a06233681665,64dc7f8f0f4bab065e53d2ac,,,,,,,decisionTrl,resources/DG.BMP,resources/DB.BMP,Door2,0.477777778,0.001851852,1,0,0,2.244,optionRight,40,2805,2,5,0,5,0,1,,,,,,,,,,,,,,,,,,,,,,,,,,,,,,,,,,,,,,,
,,,,,,,,2023-08-16_08h50.16.876,HF_wild_card,2022.2.4,Win32,60.0240096,63df7cace40d9c9ddda134d8,64d2fd46c836a06233681665,64dc7f8f0f4bab065e53d2ac,,,,,,,decisionTrl,resources/DB.BMP,resources/DBN.BMP,WildCard_Ex,0.333333333,0.078703704,1,0,0,1.405,optionRight,5,2810,2,6,0,6,0,1,,,,,,,,,,,,,,,,,,,,,,,,,,,,,,,,,,,,,,,
,,,,,,,,2023-08-16_08h50.16.876,HF_wild_card,2022.2.4,Win32,60.0240096,63df7cace40d9c9ddda134d8,64d2fd46c836a06233681665,64dc7f8f0f4bab065e53d2ac,,,,,,,sngl,resources/Empty.png,resources/DY.BMP,Door3,0.336111111,0.012037037,1,0,0,0.823,optionRight,70,2880,2,7,0,7,0,1,,,,,,,,,,,,,,,,,,,,,,,,,,,,,,,,,,,,,,,
,,,,,,,,2023-08-16_08h50.16.876,HF_wild_card,2022.2.4,Win32,60.0240096,63df7cace40d9c9ddda134d8,64d2fd46c836a06233681665,64dc7f8f0f4bab065e53d2ac,,,,,,,decisionTrl,resources/DY.BMP,resources/DR.BMP,Door4,0.443518519,0.071296296,1,0,0,1.587,optionRight,60,2940,2,8,0,8,0,1,,,,,,,,,,,,,,,,,,,,,,,,,,,,,,,,,,,,,,,
,,,,,,,,2023-08-16_08h50.16.876,HF_wild_card,2022.2.4,Win32,60.0240096,63df7cace40d9c9ddda134d8,64d2fd46c836a06233681665,64dc7f8f0f4bab065e53d2ac,,,,,,,sngl,resources/DB.BMP,resources/Empty.png,Door2,-0.401851852,0.030555556,1,0,0,0.823,optionLeft,20,2960,2,9,0,9,0,1,,,,,,,,,,,,,,,,,,,,,,,,,,,,,,,,,,,,,,,
,,,,,,,,2023-08-16_08h50.16.876,HF_wild_card,2022.2.4,Win32,60.0240096,63df7cace40d9c9ddda134d8,64d2fd46c836a06233681665,64dc7f8f0f4bab065e53d2ac,,,,,,,decisionTrl,resources/DG.BMP,resources/DB.BMP,Door2,0.447222222,0.009259259,1,0,0,1.065,optionRight,40,3000,2,10,0,10,0,1,,,,,,,,,,,,,,,,,,,,,,,,,,,,,,,,,,,,,,,
,,,,,,,,2023-08-16_08h50.16.876,HF_wild_card,2022.2.4,Win32,60.0240096,63df7cace40d9c9ddda134d8,64d2fd46c836a06233681665,64dc7f8f0f4bab065e53d2ac,,,,,,,ctch,resources/DG.BMP,resources/DR.BMP,Door4,0.375925926,0.037962963,1,0,0,0.963,optionRight,80,3080,2,11,0,11,0,1,,,,,,,,,,,,,,,,,,,,,,,,,,,,,,,,,,,,,,,
,,,,,,,,2023-08-16_08h50.16.876,HF_wild_card,2022.2.4,Win32,60.0240096,63df7cace40d9c9ddda134d8,64d2fd46c836a06233681665,64dc7f8f0f4bab065e53d2ac,,,,,,,decisionTrl,resources/DR.BMP,resources/DY.BMP,Door3,0.34537037,0.073148148,1,0,0,1.384,optionRight,70,3150,2,12,0,12,0,1,,,,,,,,,,,,,,,,,,,,,,,,,,,,,,,,,,,,,,,
,,,,,,,,2023-08-16_08h50.16.876,HF_wild_card,2022.2.4,Win32,60.0240096,63df7cace40d9c9ddda134d8,64d2fd46c836a06233681665,64dc7f8f0f4bab065e53d2ac,,,,,,,decisionTrl,resources/DBN.BMP,resources/DY.BMP,Door3,0.387962963,0.033333333,1,0,0,1.506,optionRight,70,3220,2,13,0,13,0,1,,,,,,,,,,,,,,,,,,,,,,,,,,,,,,,,,,,,,,,
,,,,,,,,2023-08-16_08h50.16.876,HF_wild_card,2022.2.4,Win32,60.0240096,63df7cace40d9c9ddda134d8,64d2fd46c836a06233681665,64dc7f8f0f4bab065e53d2ac,,,,,,,decisionTrl,resources/DR.BMP,resources/DY.BMP,Door3,0.325925926,0.016666667,1,0,0,1.717,optionRight,70,3290,2,14,0,14,0,1,,,,,,,,,,,,,,,,,,,,,,,,,,,,,,,,,,,,,,,
,,,,,,,,2023-08-16_08h50.16.876,HF_wild_card,2022.2.4,Win32,60.0240096,63df7cace40d9c9ddda134d8,64d2fd46c836a06233681665,64dc7f8f0f4bab065e53d2ac,,,,,,,decisionTrl,resources/DR.BMP,resources/DBN.BMP,WildCard_Ex,0.32037037,0.067592593,1,0,0,1.201,optionRight,95,3385,2,15,0,15,0,1,,,,,,,,,,,,,,,,,,,,,,,,,,,,,,,,,,,,,,,
,,,,,,,,2023-08-16_08h50.16.876,HF_wild_card,2022.2.4,Win32,60.0240096,63df7cace40d9c9ddda134d8,64d2fd46c836a06233681665,64dc7f8f0f4bab065e53d2ac,,,,,,,decisionTrl,resources/DBN.BMP,resources/DR.BMP,Door4,0.35,0,1,0,0,1.242,optionRight,60,3445,2,16,0,16,0,1,,,,,,,,,,,,,,,,,,,,,,,,,,,,,,,,,,,,,,,
,,,,,,,,2023-08-16_08h50.16.876,HF_wild_card,2022.2.4,Win32,60.0240096,63df7cace40d9c9ddda134d8,64d2fd46c836a06233681665,64dc7f8f0f4bab065e53d2ac,,,,,,,sngl,resources/Empty.png,resources/DBN.BMP,WildCard_Ex,0.325,0.059259259,1,0,0,0.943,optionRight,95,3540,2,17,0,17,0,1,,,,,,,,,,,,,,,,,,,,,,,,,,,,,,,,,,,,,,,
,,,,,,,,2023-08-16_08h50.16.876,HF_wild_card,2022.2.4,Win32,60.0240096,63df7cace40d9c9ddda134d8,64d2fd46c836a06233681665,64dc7f8f0f4bab065e53d2ac,,,,,,,decisionTrl,resources/DB.BMP,resources/DG.BMP,Door2,-0.480555556,0.090740741,1,0,0,4.132,optionLeft,20,3560,2,18,0,18,0,1,,,,,,,,,,,,,,,,,,,,,,,,,,,,,,,,,,,,,,,
,,,,,,,,2023-08-16_08h50.16.876,HF_wild_card,2022.2.4,Win32,60.0240096,63df7cace40d9c9ddda134d8,64d2fd46c836a06233681665,64dc7f8f0f4bab065e53d2ac,,,,,,,decisionTrl,resources/DG.BMP,resources/DB.BMP,Door2,0.435185185,-0.008333333,1,0,0,1.268,optionRight,40,3600,2,19,0,19,0,1,,,,,,,,,,,,,,,,,,,,,,,,,,,,,,,,,,,,,,,
,,,,,,,,2023-08-16_08h50.16.876,HF_wild_card,2022.2.4,Win32,60.0240096,63df7cace40d9c9ddda134d8,64d2fd46c836a06233681665,64dc7f8f0f4bab065e53d2ac,,,,,,,sngl,resources/DBN.BMP,resources/Empty.png,WildCard_Ex,-0.373148148,0.102777778,1,0,0,0.893,optionLeft,5,3605,2,20,0,20,0,1,,,,,,,,,,,,,,,,,,,,,,,,,,,,,,,,,,,,,,,
,,,,,,,,2023-08-16_08h50.16.876,HF_wild_card,2022.2.4,Win32,60.0240096,63df7cace40d9c9ddda134d8,64d2fd46c836a06233681665,64dc7f8f0f4bab065e53d2ac,,,,,,,sngl,resources/DY.BMP,resources/Empty.png,Door3,-0.247222222,0.050925926,1,0,0,0.996,optionLeft,70,3675,2,21,0,21,0,1,,,,,,,,,,,,,,,,,,,,,,,,,,,,,,,,,,,,,,,
,,,,,,,,2023-08-16_08h50.16.876,HF_wild_card,2022.2.4,Win32,60.0240096,63df7cace40d9c9ddda134d8,64d2fd46c836a06233681665,64dc7f8f0f4bab065e53d2ac,,,,,,,ctch,resources/DB.BMP,resources/DY.BMP,Door3,0.437962963,0.062962963,1,0,0,1.314,optionRight,70,3745,2,22,0,22,0,1,,,,,,,,,,,,,,,,,,,,,,,,,,,,,,,,,,,,,,,
,,,,,,,,2023-08-16_08h50.16.876,HF_wild_card,2022.2.4,Win32,60.0240096,63df7cace40d9c9ddda134d8,64d2fd46c836a06233681665,64dc7f8f0f4bab065e53d2ac,,,,,,,sngl,resources/Empty.png,resources/DBN.BMP,WildCard_Ex,0.355555556,0.049074074,1,0,0,0.899,optionRight,5,3750,2,23,0,23,0,1,,,,,,,,,,,,,,,,,,,,,,,,,,,,,,,,,,,,,,,
,,,,,,,,2023-08-16_08h50.16.876,HF_wild_card,2022.2.4,Win32,60.0240096,63df7cace40d9c9ddda134d8,64d2fd46c836a06233681665,64dc7f8f0f4bab065e53d2ac,,,,,,,decisionTrl,resources/DG.BMP,resources/DB.BMP,Door1,-0.288888889,0.040740741,1,0,0,2.312,optionLeft,30,3780,2,24,0,24,0,1,,,,,,,,,,,,,,,,,,,,,,,,,,,,,,,,,,,,,,,
,,,,,,,,2023-08-16_08h50.16.876,HF_wild_card,2022.2.4,Win32,60.0240096,63df7cace40d9c9ddda134d8,64d2fd46c836a06233681665,64dc7f8f0f4bab065e53d2ac,,,,,,,decisionTrl,resources/DY.BMP,resources/DR.BMP,Door4,0.376851852,0.010185185,1,0,0,1.792,optionRight,80,3860,2,25,0,25,0,1,,,,,,,,,,,,,,,,,,,,,,,,,,,,,,,,,,,,,,,
,,,,,,,,2023-08-16_08h50.16.876,HF_wild_card,2022.2.4,Win32,60.0240096,63df7cace40d9c9ddda134d8,64d2fd46c836a06233681665,64dc7f8f0f4bab065e53d2ac,,,,,,,ctch,resources/DB.BMP,resources/DY.BMP,Door3,0.468518519,0.015740741,1,0,0,1.485,optionRight,70,3930,2,26,0,26,0,1,,,,,,,,,,,,,,,,,,,,,,,,,,,,,,,,,,,,,,,
,,,,,,,,2023-08-16_08h50.16.876,HF_wild_card,2022.2.4,Win32,60.0240096,63df7cace40d9c9ddda134d8,64d2fd46c836a06233681665,64dc7f8f0f4bab065e53d2ac,,,,,,,decisionTrl,resources/DBN.BMP,resources/DB.BMP,Door2,0.307407407,-0.047222222,1,0,0,2.491,optionRight,40,3970,2,27,0,27,0,1,,,,,,,,,,,,,,,,,,,,,,,,,,,,,,,,,,,,,,,
,,,,,,,,2023-08-16_08h50.16.876,HF_wild_card,2022.2.4,Win32,60.0240096,63df7cace40d9c9ddda134d8,64d2fd46c836a06233681665,64dc7f8f0f4bab065e53d2ac,,,,,,,decisionTrl,resources/DB.BMP,resources/DG.BMP,Door1,0.389814815,0.02962963,1,0,0,1.394,optionRight,30,4000,2,28,0,28,0,1,,,,,,,,,,,,,,,,,,,,,,,,,,,,,,,,,,,,,,,
,,,,,,,,2023-08-16_08h50.16.876,HF_wild_card,2022.2.4,Win32,60.0240096,63df7cace40d9c9ddda134d8,64d2fd46c836a06233681665,64dc7f8f0f4bab065e53d2ac,,,,,,,decisionTrl,resources/DB.BMP,resources/DG.BMP,Door1,0.362037037,0.031481481,1,0,0,1.3,optionRight,30,4030,2,29,0,29,0,1,,,,,,,,,,,,,,,,,,,,,,,,,,,,,,,,,,,,,,,
,,,,,,,,2023-08-16_08h50.16.876,HF_wild_card,2022.2.4,Win32,60.0240096,63df7cace40d9c9ddda134d8,64d2fd46c836a06233681665,64dc7f8f0f4bab065e53d2ac,,,,,,,decisionTrl,resources/DBN.BMP,resources/DG.BMP,WildCard_Ex,-0.198148148,0.007407407,1,0,0,4.106,optionLeft,95,4125,2,30,0,30,0,1,,,,,,,,,,,,,,,,,,,,,,,,,,,,,,,,,,,,,,,
,,,,,,,,2023-08-16_08h50.16.876,HF_wild_card,2022.2.4,Win32,60.0240096,63df7cace40d9c9ddda134d8,64d2fd46c836a06233681665,64dc7f8f0f4bab065e53d2ac,,,,,,,decisionTrl,resources/DR.BMP,resources/DY.BMP,Door3,0.342592593,0.050925926,1,0,0,1.224,optionRight,70,4195,2,31,0,31,0,1,,,,,,,,,,,,,,,,,,,,,,,,,,,,,,,,,,,,,,,
,,,,,,,,2023-08-16_08h50.16.876,HF_wild_card,2022.2.4,Win32,60.0240096,63df7cace40d9c9ddda134d8,64d2fd46c836a06233681665,64dc7f8f0f4bab065e53d2ac,,,,,,,sngl,resources/Empty.png,resources/DB.BMP,Door2,0.4,0.011111111,1,0,0,0.825,optionRight,40,4235,2,32,0,32,0,1,,,,,,,,,,,,,,,,,,,,,,,,,,,,,,,,,,,,,,,
,,,,,,,,2023-08-16_08h50.16.876,HF_wild_card,2022.2.4,Win32,60.0240096,63df7cace40d9c9ddda134d8,64d2fd46c836a06233681665,64dc7f8f0f4bab065e53d2ac,,,,,,,sngl,resources/Empty.png,resources/DG.BMP,Door1,0.271296296,0.026851852,1,0,0,1.376,optionRight,30,4265,2,33,0,33,0,1,,,,,,,,,,,,,,,,,,,,,,,,,,,,,,,,,,,,,,,
,,,,,,,,2023-08-16_08h50.16.876,HF_wild_card,2022.2.4,Win32,60.0240096,63df7cace40d9c9ddda134d8,64d2fd46c836a06233681665,64dc7f8f0f4bab065e53d2ac,,,,,,,decisionTrl,resources/DY.BMP,resources/DR.BMP,Door4,0.347222222,-0.063888889,1,0,0,1.521,optionRight,60,4325,2,34,0,34,0,1,,,,,,,,,,,,,,,,,,,,,,,,,,,,,,,,,,,,,,,
,,,,,,,,2023-08-16_08h50.16.876,HF_wild_card,2022.2.4,Win32,60.0240096,63df7cace40d9c9ddda134d8,64d2fd46c836a06233681665,64dc7f8f0f4bab065e53d2ac,,,,,,,sngl,resources/DG.BMP,resources/Empty.png,Door1,-0.383333333,0.010185185,1,0,0,0.825,optionLeft,30,4355,2,35,0,35,0,1,,,,,,,,,,,,,,,,,,,,,,,,,,,,,,,,,,,,,,,
,,,,,,,,2023-08-16_08h50.16.876,HF_wild_card,2022.2.4,Win32,60.0240096,63df7cace40d9c9ddda134d8,64d2fd46c836a06233681665,64dc7f8f0f4bab065e53d2ac,,,,,,,ctch,resources/DY.BMP,resources/DB.BMP,Door3,-0.353703704,0.000925926,1,0,0,1.796,optionLeft,70,4425,2,36,0,36,0,1,,,,,,,,,,,,,,,,,,,,,,,,,,,,,,,,,,,,,,,
,,,,,,,,2023-08-16_08h50.16.876,HF_wild_card,2022.2.4,Win32,60.0240096,63df7cace40d9c9ddda134d8,64d2fd46c836a06233681665,64dc7f8f0f4bab065e53d2ac,,,,,,,sngl,resources/DBN.BMP,resources/Empty.png,WildCard_Ex,-0.32962963,0.027777778,1,0,0,1.045,optionLeft,95,4520,2,37,0,37,0,1,,,,,,,,,,,,,,,,,,,,,,,,,,,,,,,,,,,,,,,
,,,,,,,,2023-08-16_08h50.16.876,HF_wild_card,2022.2.4,Win32,60.0240096,63df7cace40d9c9ddda134d8,64d2fd46c836a06233681665,64dc7f8f0f4bab065e53d2ac,,,,,,,ctch,resources/DG.BMP,resources/DR.BMP,Door4,0.310185185,-0.00462963,1,0,0,0.947,optionRight,80,4600,2,38,0,38,0,1,,,,,,,,,,,,,,,,,,,,,,,,,,,,,,,,,,,,,,,
,,,,,,,,2023-08-16_08h50.16.876,HF_wild_card,2022.2.4,Win32,60.0240096,63df7cace40d9c9ddda134d8,64d2fd46c836a06233681665,64dc7f8f0f4bab065e53d2ac,,,,,,,decisionTrl,resources/DR.BMP,resources/DY.BMP,Door3,0.400925926,-0.013888889,1,0,0,1.369,optionRight,70,4670,2,39,0,39,0,1,,,,,,,,,,,,,,,,,,,,,,,,,,,,,,,,,,,,,,,
,,,,,,,,2023-08-16_08h50.16.876,HF_wild_card,2022.2.4,Win32,60.0240096,63df7cace40d9c9ddda134d8,64d2fd46c836a06233681665,64dc7f8f0f4bab065e53d2ac,,,,,,,decisionTrl,resources/DB.BMP,resources/DG.BMP,Door2,-0.25,-0.005555556,1,0,0,1.705,optionLeft,20,4690,2,40,0,40,0,1,,,,,,,,,,,,,,,,,,,,,,,,,,,,,,,,,,,,,,,
,,,,,,,,2023-08-16_08h50.16.876,HF_wild_card,2022.2.4,Win32,60.0240096,63df7cace40d9c9ddda134d8,64d2fd46c836a06233681665,64dc7f8f0f4bab065e53d2ac,,,,,,,ctch,resources/DR.BMP,resources/DG.BMP,Door4,-0.260185185,0.001851852,1,0,0,1.13,optionLeft,60,4750,2,41,0,41,0,1,,,,,,,,,,,,,,,,,,,,,,,,,,,,,,,,,,,,,,,
,,,,,,,,2023-08-16_08h50.16.876,HF_wild_card,2022.2.4,Win32,60.0240096,63df7cace40d9c9ddda134d8,64d2fd46c836a06233681665,64dc7f8f0f4bab065e53d2ac,,,,,,,sngl,resources/Empty.png,resources/DR.BMP,Door4,0.365740741,0.061111111,1,0,0,0.758,optionRight,80,4830,2,42,0,42,0,1,,,,,,,,,,,,,,,,,,,,,,,,,,,,,,,,,,,,,,,
,,,,,,,,2023-08-16_08h50.16.876,HF_wild_card,2022.2.4,Win32,60.0240096,63df7cace40d9c9ddda134d8,64d2fd46c836a06233681665,64dc7f8f0f4bab065e53d2ac,,,,,,,decisionTrl,resources/DY.BMP,resources/DBN.BMP,Door3,-0.221296296,0.002777778,1,0,0,4.091,optionLeft,70,4900,2,43,0,43,0,1,,,,,,,,,,,,,,,,,,,,,,,,,,,,,,,,,,,,,,,
,,,,,,,,2023-08-16_08h50.16.876,HF_wild_card,2022.2.4,Win32,60.0240096,63df7cace40d9c9ddda134d8,64d2fd46c836a06233681665,64dc7f8f0f4bab065e53d2ac,,,,,,,,,,,,,,,,,,,,,,,,,,1,0,1,0,1,,,,,,,,,,,,,,,,,,,,,,,,,,,,,,,,,,
,,,,,,,,2023-08-16_08h50.16.876,HF_wild_card,2022.2.4,Win32,60.0240096,63df7cace40d9c9ddda134d8,64d2fd46c836a06233681665,64dc7f8f0f4bab065e53d2ac,,,,,,,sngl,resources/DY.BMP,resources/Empty.png,Door3,-0.332407407,-0.063888889,1,0,0,1.045,optionLeft,70,4970,3,0,0,0,0,1,,,,,,,,,,,,,,,,,,,,,,,,,,,,,,,,,,,,,,,
,,,,,,,,2023-08-16_08h50.16.876,HF_wild_card,2022.2.4,Win32,60.0240096,63df7cace40d9c9ddda134d8,64d2fd46c836a06233681665,64dc7f8f0f4bab065e53d2ac,,,,,,,sngl,resources/Empty.png,resources/DB.BMP,Door2,0.337962963,0.006481481,1,0,0,0.893,optionRight,20,4990,3,1,0,1,0,1,,,,,,,,,,,,,,,,,,,,,,,,,,,,,,,,,,,,,,,
,,,,,,,,2023-08-16_08h50.16.876,HF_wild_card,2022.2.4,Win32,60.0240096,63df7cace40d9c9ddda134d8,64d2fd46c836a06233681665,64dc7f8f0f4bab065e53d2ac,,,,,,,decisionTrl,resources/DY.BMP,resources/DR.BMP,Door3,-0.288888889,-0.056481481,1,0,0,3.095,optionLeft,70,5060,3,2,0,2,0,1,,,,,,,,,,,,,,,,,,,,,,,,,,,,,,,,,,,,,,,
,,,,,,,,2023-08-16_08h50.16.876,HF_wild_card,2022.2.4,Win32,60.0240096,63df7cace40d9c9ddda134d8,64d2fd46c836a06233681665,64dc7f8f0f4bab065e53d2ac,,,,,,,sngl,resources/Empty.png,resources/DBN.BMP,WildCard_Ex,0.325925926,-0.000925926,1,0,0,1.892,optionRight,5,5065,3,3,0,3,0,1,,,,,,,,,,,,,,,,,,,,,,,,,,,,,,,,,,,,,,,
,,,,,,,,2023-08-16_08h50.16.876,HF_wild_card,2022.2.4,Win32,60.0240096,63df7cace40d9c9ddda134d8,64d2fd46c836a06233681665,64dc7f8f0f4bab065e53d2ac,,,,,,,decisionTrl,resources/DBN.BMP,resources/DY.BMP,Door3,0.387037037,-0.033333333,1,0,0,1.327,optionRight,70,5135,3,4,0,4,0,1,,,,,,,,,,,,,,,,,,,,,,,,,,,,,,,,,,,,,,,
,,,,,,,,2023-08-16_08h50.16.876,HF_wild_card,2022.2.4,Win32,60.0240096,63df7cace40d9c9ddda134d8,64d2fd46c836a06233681665,64dc7f8f0f4bab065e53d2ac,,,,,,,ctch,resources/DR.BMP,resources/DG.BMP,Door4,-0.350925926,0.080555556,1,0,0,1.212,optionLeft,80,5215,3,5,0,5,0,1,,,,,,,,,,,,,,,,,,,,,,,,,,,,,,,,,,,,,,,
,,,,,,,,2023-08-16_08h50.16.876,HF_wild_card,2022.2.4,Win32,60.0240096,63df7cace40d9c9ddda134d8,64d2fd46c836a06233681665,64dc7f8f0f4bab065e53d2ac,,,,,,,sngl,resources/DBN.BMP,resources/Empty.png,WildCard_Ex,-0.447222222,0.042592593,1,0,0,0.885,optionLeft,95,5310,3,6,0,6,0,1,,,,,,,,,,,,,,,,,,,,,,,,,,,,,,,,,,,,,,,
,,,,,,,,2023-08-16_08h50.16.876,HF_wild_card,2022.2.4,Win32,60.0240096,63df7cace40d9c9ddda134d8,64d2fd46c836a06233681665,64dc7f8f0f4bab065e53d2ac,,,,,,,decisionTrl,resources/DBN.BMP,resources/DR.BMP,Door4,0.388888889,0.051851852,1,0,0,1.395,optionRight,80,5390,3,7,0,7,0,1,,,,,,,,,,,,,,,,,,,,,,,,,,,,,,,,,,,,,,,
,,,,,,,,2023-08-16_08h50.16.876,HF_wild_card,2022.2.4,Win32,60.0240096,63df7cace40d9c9ddda134d8,64d2fd46c836a06233681665,64dc7f8f0f4bab065e53d2ac,,,,,,,decisionTrl,resources/DB.BMP,resources/DG.BMP,Door1,0.483333333,-0.025925926,1,0,0,1.528,optionRight,30,5420,3,8,0,8,0,1,,,,,,,,,,,,,,,,,,,,,,,,,,,,,,,,,,,,,,,
,,,,,,,,2023-08-16_08h50.16.876,HF_wild_card,2022.2.4,Win32,60.0240096,63df7cace40d9c9ddda134d8,64d2fd46c836a06233681665,64dc7f8f0f4bab065e53d2ac,,,,,,,decisionTrl,resources/DB.BMP,resources/DBN.BMP,WildCard_Ex,0.412962963,0.053703704,1,0,0,0.938,optionRight,5,5425,3,9,0,9,0,1,,,,,,,,,,,,,,,,,,,,,,,,,,,,,,,,,,,,,,,
,,,,,,,,2023-08-16_08h50.16.876,HF_wild_card,2022.2.4,Win32,60.0240096,63df7cace40d9c9ddda134d8,64d2fd46c836a06233681665,64dc7f8f0f4bab065e53d2ac,,,,,,,decisionTrl,resources/DY.BMP,resources/DR.BMP,Door4,0.330555556,-0.006481481,1,0,0,1.361,optionRight,60,5485,3,10,0,10,0,1,,,,,,,,,,,,,,,,,,,,,,,,,,,,,,,,,,,,,,,
,,,,,,,,2023-08-16_08h50.16.876,HF_wild_card,2022.2.4,Win32,60.0240096,63df7cace40d9c9ddda134d8,64d2fd46c836a06233681665,64dc7f8f0f4bab065e53d2ac,,,,,,,decisionTrl,resources/DY.BMP,resources/DR.BMP,Door4,0.293518519,-0.011111111,1,0,0,1.284,optionRight,80,5565,3,11,0,11,0,1,,,,,,,,,,,,,,,,,,,,,,,,,,,,,,,,,,,,,,,
,,,,,,,,2023-08-16_08h50.16.876,HF_wild_card,2022.2.4,Win32,60.0240096,63df7cace40d9c9ddda134d8,64d2fd46c836a06233681665,64dc7f8f0f4bab065e53d2ac,,,,,,,decisionTrl,resources/DG.BMP,resources/DB.BMP,Door2,0.258333333,-0.008333333,1,0,0,1.361,optionRight,20,5585,3,12,0,12,0,1,,,,,,,,,,,,,,,,,,,,,,,,,,,,,,,,,,,,,,,
,,,,,,,,2023-08-16_08h50.16.876,HF_wild_card,2022.2.4,Win32,60.0240096,63df7cace40d9c9ddda134d8,64d2fd46c836a06233681665,64dc7f8f0f4bab065e53d2ac,,,,,,,decisionTrl,resources/DG.BMP,resources/DB.BMP,Door2,0.30462963,0.003703704,1,0,0,0.965,optionRight,20,5605,3,13,0,13,0,1,,,,,,,,,,,,,,,,,,,,,,,,,,,,,,,,,,,,,,,
,,,,,,,,2023-08-16_08h50.16.876,HF_wild_card,2022.2.4,Win32,60.0240096,63df7cace40d9c9ddda134d8,64d2fd46c836a06233681665,64dc7f8f0f4bab065e53d2ac,,,,,,,decisionTrl,resources/DBN.BMP,resources/DG.BMP,WildCard_Ex,-0.35462963,0.05,1,0,0,2.245,optionLeft,95,5700,3,14,0,14,0,1,,,,,,,,,,,,,,,,,,,,,,,,,,,,,,,,,,,,,,,
,,,,,,,,2023-08-16_08h50.16.876,HF_wild_card,2022.2.4,Win32,60.0240096,63df7cace40d9c9ddda134d8,64d2fd46c836a06233681665,64dc7f8f0f4bab065e53d2ac,,,,,,,ctch,resources/DR.BMP,resources/DG.BMP,Door4,-0.327777778,-0.002777778,1,0,0,1.509,optionLeft,80,5780,3,15,0,15,0,1,,,,,,,,,,,,,,,,,,,,,,,,,,,,,,,,,,,,,,,
,,,,,,,,2023-08-16_08h50.16.876,HF_wild_card,2022.2.4,Win32,60.0240096,63df7cace40d9c9ddda134d8,64d2fd46c836a06233681665,64dc7f8f0f4bab065e53d2ac,,,,,,,sngl,resources/DG.BMP,resources/Empty.png,Door1,-0.297222222,0.030555556,1,0,0,1.105,optionLeft,30,5810,3,16,0,16,0,1,,,,,,,,,,,,,,,,,,,,,,,,,,,,,,,,,,,,,,,
,,,,,,,,2023-08-16_08h50.16.876,HF_wild_card,2022.2.4,Win32,60.0240096,63df7cace40d9c9ddda134d8,64d2fd46c836a06233681665,64dc7f8f0f4bab065e53d2ac,,,,,,,ctch,resources/DY.BMP,resources/DB.BMP,Door3,-0.237037037,0.025925926,1,0,0,1.226,optionLeft,70,5880,3,17,0,17,0,1,,,,,,,,,,,,,,,,,,,,,,,,,,,,,,,,,,,,,,,
,,,,,,,,2023-08-16_08h50.16.876,HF_wild_card,2022.2.4,Win32,60.0240096,63df7cace40d9c9ddda134d8,64d2fd46c836a06233681665,64dc7f8f0f4bab065e53d2ac,,,,,,,sngl,resources/Empty.png,resources/DY.BMP,Door3,0.4,0.006481481,1,0,0,0.791,optionRight,70,5950,3,18,0,18,0,1,,,,,,,,,,,,,,,,,,,,,,,,,,,,,,,,,,,,,,,
,,,,,,,,2023-08-16_08h50.16.876,HF_wild_card,2022.2.4,Win32,60.0240096,63df7cace40d9c9ddda134d8,64d2fd46c836a06233681665,64dc7f8f0f4bab065e53d2ac,,,,,,,decisionTrl,resources/DB.BMP,resources/DG.BMP,Door2,-0.352777778,0.066666667,1,0,0,1.103,optionLeft,20,5970,3,19,0,19,0,1,,,,,,,,,,,,,,,,,,,,,,,,,,,,,,,,,,,,,,,
,,,,,,,,2023-08-16_08h50.16.876,HF_wild_card,2022.2.4,Win32,60.0240096,63df7cace40d9c9ddda134d8,64d2fd46c836a06233681665,64dc7f8f0f4bab065e53d2ac,,,,,,,decisionTrl,resources/DY.BMP,resources/DR.BMP,Door4,0.340740741,-0.007407407,1,0,0,1.841,optionRight,80,6050,3,20,0,20,0,1,,,,,,,,,,,,,,,,,,,,,,,,,,,,,,,,,,,,,,,
,,,,,,,,2023-08-16_08h50.16.876,HF_wild_card,2022.2.4,Win32,60.0240096,63df7cace40d9c9ddda134d8,64d2fd46c836a06233681665,64dc7f8f0f4bab065e53d2ac,,,,,,,sngl,resources/DB.BMP,resources/Empty.png,Door2,-0.296296296,0.013888889,1,0,0,0.809,optionLeft,40,6090,3,21,0,21,0,1,,,,,,,,,,,,,,,,,,,,,,,,,,,,,,,,,,,,,,,
,,,,,,,,2023-08-16_08h50.16.876,HF_wild_card,2022.2.4,Win32,60.0240096,63df7cace40d9c9ddda134d8,64d2fd46c836a06233681665,64dc7f8f0f4bab065e53d2ac,,,,,,,decisionTrl,resources/DR.BMP,resources/DY.BMP,Door3,0.371296296,0.043518519,1,0,0,1.422,optionRight,70,6160,3,22,0,22,0,1,,,,,,,,,,,,,,,,,,,,,,,,,,,,,,,,,,,,,,,
,,,,,,,,2023-08-16_08h50.16.876,HF_wild_card,2022.2.4,Win32,60.0240096,63df7cace40d9c9ddda134d8,64d2fd46c836a06233681665,64dc7f8f0f4bab065e53d2ac,,,,,,,decisionTrl,resources/DR.BMP,resources/DY.BMP,Door3,0.300925926,-0.005555556,1,0,0,1.044,optionRight,70,6230,3,23,0,23,0,1,,,,,,,,,,,,,,,,,,,,,,,,,,,,,,,,,,,,,,,
,,,,,,,,2023-08-16_08h50.16.876,HF_wild_card,2022.2.4,Win32,60.0240096,63df7cace40d9c9ddda134d8,64d2fd46c836a06233681665,64dc7f8f0f4bab065e53d2ac,,,,,,,sngl,resources/Empty.png,resources/DBN.BMP,WildCard_Ex,0.371296296,0.052777778,1,0,0,0.958,optionRight,95,6325,3,24,0,24,0,1,,,,,,,,,,,,,,,,,,,,,,,,,,,,,,,,,,,,,,,
,,,,,,,,2023-08-16_08h50.16.876,HF_wild_card,2022.2.4,Win32,60.0240096,63df7cace40d9c9ddda134d8,64d2fd46c836a06233681665,64dc7f8f0f4bab065e53d2ac,,,,,,,sngl,resources/Empty.png,resources/DG.BMP,Door1,0.272222222,0.001851852,1,0,0,0.994,optionRight,30,6355,3,25,0,25,0,1,,,,,,,,,,,,,,,,,,,,,,,,,,,,,,,,,,,,,,,
,,,,,,,,2023-08-16_08h50.16.876,HF_wild_card,2022.2.4,Win32,60.0240096,63df7cace40d9c9ddda134d8,64d2fd46c836a06233681665,64dc7f8f0f4bab065e53d2ac,,,,,,,ctch,resources/DB.BMP,resources/DY.BMP,Door3,0.316666667,0.021296296,1,0,0,1.043,optionRight,70,6425,3,26,0,26,0,1,,,,,,,,,,,,,,,,,,,,,,,,,,,,,,,,,,,,,,,
,,,,,,,,2023-08-16_08h50.16.876,HF_wild_card,2022.2.4,Win32,60.0240096,63df7cace40d9c9ddda134d8,64d2fd46c836a06233681665,64dc7f8f0f4bab065e53d2ac,,,,,,,decisionTrl,resources/DR.BMP,resources/DY.BMP,Door3,0.335185185,0.010185185,1,0,0,1.428,optionRight,70,6495,3,27,0,27,0,1,,,,,,,,,,,,,,,,,,,,,,,,,,,,,,,,,,,,,,,
,,,,,,,,2023-08-16_08h50.16.876,HF_wild_card,2022.2.4,Win32,60.0240096,63df7cace40d9c9ddda134d8,64d2fd46c836a06233681665,64dc7f8f0f4bab065e53d2ac,,,,,,,decisionTrl,resources/DG.BMP,resources/DB.BMP,Door2,0.418518519,0.032407407,1,0,0,0.945,optionRight,20,6515,3,28,0,28,0,1,,,,,,,,,,,,,,,,,,,,,,,,,,,,,,,,,,,,,,,
,,,,,,,,2023-08-16_08h50.16.876,HF_wild_card,2022.2.4,Win32,60.0240096,63df7cace40d9c9ddda134d8,64d2fd46c836a06233681665,64dc7f8f0f4bab065e53d2ac,,,,,,,sngl,resources/DBN.BMP,resources/Empty.png,WildCard_Ex,-0.315740741,0.031481481,1,0,0,0.87,optionLeft,5,6520,3,29,0,29,0,1,,,,,,,,,,,,,,,,,,,,,,,,,,,,,,,,,,,,,,,
,,,,,,,,2023-08-16_08h50.16.876,HF_wild_card,2022.2.4,Win32,60.0240096,63df7cace40d9c9ddda134d8,64d2fd46c836a06233681665,64dc7f8f0f4bab065e53d2ac,,,,,,,decisionTrl,resources/DB.BMP,resources/DG.BMP,Door1,0.405555556,0.014814815,1,0,0,1.55,optionRight,30,6550,3,30,0,30,0,1,,,,,,,,,,,,,,,,,,,,,,,,,,,,,,,,,,,,,,,
,,,,,,,,2023-08-16_08h50.16.876,HF_wild_card,2022.2.4,Win32,60.0240096,63df7cace40d9c9ddda134d8,64d2fd46c836a06233681665,64dc7f8f0f4bab065e53d2ac,,,,,,,decisionTrl,resources/DBN.BMP,resources/DB.BMP,WildCard_Ex,-0.365740741,0.018518519,1,0,0,1.824,optionLeft,95,6645,3,31,0,31,0,1,,,,,,,,,,,,,,,,,,,,,,,,,,,,,,,,,,,,,,,
,,,,,,,,2023-08-16_08h50.16.876,HF_wild_card,2022.2.4,Win32,60.0240096,63df7cace40d9c9ddda134d8,64d2fd46c836a06233681665,64dc7f8f0f4bab065e53d2ac,,,,,,,ctch,resources/DY.BMP,resources/DB.BMP,Door3,-0.37962963,0.02037037,1,0,0,1.278,optionLeft,70,6715,3,32,0,32,0,1,,,,,,,,,,,,,,,,,,,,,,,,,,,,,,,,,,,,,,,
,,,,,,,,2023-08-16_08h50.16.876,HF_wild_card,2022.2.4,Win32,60.0240096,63df7cace40d9c9ddda134d8,64d2fd46c836a06233681665,64dc7f8f0f4bab065e53d2ac,,,,,,,decisionTrl,resources/DR.BMP,resources/DBN.BMP,Door4,-0.374074074,0.043518519,1,0,0,1.692,optionLeft,60,6775,3,33,0,33,0,1,,,,,,,,,,,,,,,,,,,,,,,,,,,,,,,,,,,,,,,
,,,,,,,,2023-08-16_08h50.16.876,HF_wild_card,2022.2.4,Win32,60.0240096,63df7cace40d9c9ddda134d8,64d2fd46c836a06233681665,64dc7f8f0f4bab065e53d2ac,,,,,,,decisionTrl,resources/DY.BMP,resources/DBN.BMP,Door3,-0.35,-0.009259259,1,0,0,1.596,optionLeft,70,6845,3,34,0,34,0,1,,,,,,,,,,,,,,,,,,,,,,,,,,,,,,,,,,,,,,,
,,,,,,,,2023-08-16_08h50.16.876,HF_wild_card,2022.2.4,Win32,60.0240096,63df7cace40d9c9ddda134d8,64d2fd46c836a06233681665,64dc7f8f0f4bab065e53d2ac,,,,,,,ctch,resources/DB.BMP,resources/DY.BMP,Door3,0.34537037,-0.013888889,1,0,0,0.905,optionRight,70,6915,3,35,0,35,0,1,,,,,,,,,,,,,,,,,,,,,,,,,,,,,,,,,,,,,,,
,,,,,,,,2023-08-16_08h50.16.876,HF_wild_card,2022.2.4,Win32,60.0240096,63df7cace40d9c9ddda134d8,64d2fd46c836a06233681665,64dc7f8f0f4bab065e53d2ac,,,,,,,decisionTrl,resources/DG.BMP,resources/DB.BMP,Door1,-0.212037037,0.024074074,1,0,0,2.575,optionLeft,30,6945,3,36,0,36,0,1,,,,,,,,,,,,,,,,,,,,,,,,,,,,,,,,,,,,,,,
,,,,,,,,2023-08-16_08h50.16.876,HF_wild_card,2022.2.4,Win32,60.0240096,63df7cace40d9c9ddda134d8,64d2fd46c836a06233681665,64dc7f8f0f4bab065e53d2ac,,,,,,,sngl,resources/Empty.png,resources/DR.BMP,Door4,0.400925926,0.017592593,1,0,0,0.697,optionRight,60,7005,3,37,0,37,0,1,,,,,,,,,,,,,,,,,,,,,,,,,,,,,,,,,,,,,,,
,,,,,,,,2023-08-16_08h50.16.876,HF_wild_card,2022.2.4,Win32,60.0240096,63df7cace40d9c9ddda134d8,64d2fd46c836a06233681665,64dc7f8f0f4bab065e53d2ac,,,,,,,decisionTrl,resources/DB.BMP,resources/DG.BMP,Door2,-0.351851852,-0.049074074,1,0,0,1.976,optionLeft,20,7025,3,38,0,38,0,1,,,,,,,,,,,,,,,,,,,,,,,,,,,,,,,,,,,,,,,
,,,,,,,,2023-08-16_08h50.16.876,HF_wild_card,2022.2.4,Win32,60.0240096,63df7cace40d9c9ddda134d8,64d2fd46c836a06233681665,64dc7f8f0f4bab065e53d2ac,,,,,,,decisionTrl,resources/DG.BMP,resources/DBN.BMP,WildCard_Ex,0.347222222,0.000925926,1,0,0,0.943,optionRight,95,7120,3,39,0,39,0,1,,,,,,,,,,,,,,,,,,,,,,,,,,,,,,,,,,,,,,,
,,,,,,,,2023-08-16_08h50.16.876,HF_wild_card,2022.2.4,Win32,60.0240096,63df7cace40d9c9ddda134d8,64d2fd46c836a06233681665,64dc7f8f0f4bab065e53d2ac,,,,,,,decisionTrl,resources/DR.BMP,resources/DY.BMP,Door3,0.416666667,-0.033333333,1,0,0,1.024,optionRight,70,7190,3,40,0,40,0,1,,,,,,,,,,,,,,,,,,,,,,,,,,,,,,,,,,,,,,,
,,,,,,,,2023-08-16_08h50.16.876,HF_wild_card,2022.2.4,Win32,60.0240096,63df7cace40d9c9ddda134d8,64d2fd46c836a06233681665,64dc7f8f0f4bab065e53d2ac,,,,,,,sngl,resources/DR.BMP,resources/Empty.png,Door4,-0.300925926,0.046296296,1,0,0,0.895,optionLeft,80,7270,3,41,0,41,0,1,,,,,,,,,,,,,,,,,,,,,,,,,,,,,,,,,,,,,,,
,,,,,,,,2023-08-16_08h50.16.876,HF_wild_card,2022.2.4,Win32,60.0240096,63df7cace40d9c9ddda134d8,64d2fd46c836a06233681665,64dc7f8f0f4bab065e53d2ac,,,,,,,ctch,resources/DG.BMP,resources/DR.BMP,Door4,0.380555556,0.033333333,1,0,0,0.962,optionRight,60,7330,3,42,0,42,0,1,,,,,,,,,,,,,,,,,,,,,,,,,,,,,,,,,,,,,,,
,,,,,,,,2023-08-16_08h50.16.876,HF_wild_card,2022.2.4,Win32,60.0240096,63df7cace40d9c9ddda134d8,64d2fd46c836a06233681665,64dc7f8f0f4bab065e53d2ac,,,,,,,ctch,resources/DG.BMP,resources/DR.BMP,Door4,0.32962963,0.015740741,1,0,0,0.894,optionRight,80,7410,3,43,0,43,0,1,,,,,,,,,,,,,,,,,,,,,,,,,,,,,,,,,,,,,,,
,,,,,,,,2023-08-16_08h50.16.876,HF_wild_card,2022.2.4,Win32,60.0240096,63df7cace40d9c9ddda134d8,64d2fd46c836a06233681665,64dc7f8f0f4bab065e53d2ac,,,,,,,,,,,,,,,,,,,,,,,,,,2,0,2,0,1,,,,,,,,,,,,,,,,,,,,,,,,,,,,,,,,,,
,,,,,,,,2023-08-16_08h50.16.876,HF_wild_card,2022.2.4,Win32,60.0240096,63df7cace40d9c9ddda134d8,64d2fd46c836a06233681665,64dc7f8f0f4bab065e53d2ac,,,,,,,sngl,resources/DG.BMP,resources/Empty.png,Door1,-0.414814815,-0.12037037,1,0,0,1.51,optionLeft,30,7440,4,0,0,0,0,1,,,,,,,,,,,,,,,,,,,,,,,,,,,,,,,,,,,,,,,
,,,,,,,,2023-08-16_08h50.16.876,HF_wild_card,2022.2.4,Win32,60.0240096,63df7cace40d9c9ddda134d8,64d2fd46c836a06233681665,64dc7f8f0f4bab065e53d2ac,,,,,,,ctch,resources/DY.BMP,resources/DB.BMP,Door3,-0.368518519,0.053703704,1,0,0,1.398,optionLeft,70,7510,4,1,0,1,0,1,,,,,,,,,,,,,,,,,,,,,,,,,,,,,,,,,,,,,,,
,,,,,,,,2023-08-16_08h50.16.876,HF_wild_card,2022.2.4,Win32,60.0240096,63df7cace40d9c9ddda134d8,64d2fd46c836a06233681665,64dc7f8f0f4bab065e53d2ac,,,,,,,ctch,resources/DR.BMP,resources/DG.BMP,Door4,-0.426851852,0.002777778,1,0,0,1.423,optionLeft,60,7570,4,2,0,2,0,1,,,,,,,,,,,,,,,,,,,,,,,,,,,,,,,,,,,,,,,
,,,,,,,,2023-08-16_08h50.16.876,HF_wild_card,2022.2.4,Win32,60.0240096,63df7cace40d9c9ddda134d8,64d2fd46c836a06233681665,64dc7f8f0f4bab065e53d2ac,,,,,,,ctch,resources/DB.BMP,resources/DY.BMP,Door3,0.385185185,0.026851852,1,0,0,0.994,optionRight,70,7640,4,3,0,3,0,1,,,,,,,,,,,,,,,,,,,,,,,,,,,,,,,,,,,,,,,
,,,,,,,,2023-08-16_08h50.16.876,HF_wild_card,2022.2.4,Win32,60.0240096,63df7cace40d9c9ddda134d8,64d2fd46c836a06233681665,64dc7f8f0f4bab065e53d2ac,,,,,,,ctch,resources/DB.BMP,resources/DY.BMP,Door3,0.431481481,-0.005555556,1,0,0,0.839,optionRight,70,7710,4,4,0,4,0,1,,,,,,,,,,,,,,,,,,,,,,,,,,,,,,,,,,,,,,,
,,,,,,,,2023-08-16_08h50.16.876,HF_wild_card,2022.2.4,Win32,60.0240096,63df7cace40d9c9ddda134d8,64d2fd46c836a06233681665,64dc7f8f0f4bab065e53d2ac,,,,,,,decisionTrl,resources/DR.BMP,resources/DP.BMP,WildCard_NonEx,0.405555556,-0.025925926,1,0,0,2.744,optionRight,55,7765,4,5,0,5,0,1,,,,,,,,,,,,,,,,,,,,,,,,,,,,,,,,,,,,,,,
,,,,,,,,2023-08-16_08h50.16.876,HF_wild_card,2022.2.4,Win32,60.0240096,63df7cace40d9c9ddda134d8,64d2fd46c836a06233681665,64dc7f8f0f4bab065e53d2ac,,,,,,,sngl,resources/Empty.png,resources/DP.BMP,WildCard_NonEx,0.382407407,-0.023148148,1,0,0,0.863,optionRight,45,7810,4,6,0,6,0,1,,,,,,,,,,,,,,,,,,,,,,,,,,,,,,,,,,,,,,,
,,,,,,,,2023-08-16_08h50.16.876,HF_wild_card,2022.2.4,Win32,60.0240096,63df7cace40d9c9ddda134d8,64d2fd46c836a06233681665,64dc7f8f0f4bab065e53d2ac,,,,,,,sngl,resources/Empty.png,resources/DB.BMP,Door2,0.237962963,-0.022222222,1,0,0,0.928,optionRight,40,7850,4,7,0,7,0,1,,,,,,,,,,,,,,,,,,,,,,,,,,,,,,,,,,,,,,,
,,,,,,,,2023-08-16_08h50.16.876,HF_wild_card,2022.2.4,Win32,60.0240096,63df7cace40d9c9ddda134d8,64d2fd46c836a06233681665,64dc7f8f0f4bab065e53d2ac,,,,,,,decisionTrl,resources/DR.BMP,resources/DY.BMP,Door3,0.355555556,-0.02962963,1,0,0,1.243,optionRight,70,7920,4,8,0,8,0,1,,,,,,,,,,,,,,,,,,,,,,,,,,,,,,,,,,,,,,,
,,,,,,,,2023-08-16_08h50.16.876,HF_wild_card,2022.2.4,Win32,60.0240096,63df7cace40d9c9ddda134d8,64d2fd46c836a06233681665,64dc7f8f0f4bab065e53d2ac,,,,,,,decisionTrl,resources/DY.BMP,resources/DR.BMP,Door4,0.352777778,0.028703704,1,0,0,1.303,optionRight,60,7980,4,9,0,9,0,1,,,,,,,,,,,,,,,,,,,,,,,,,,,,,,,,,,,,,,,
,,,,,,,,2023-08-16_08h50.16.876,HF_wild_card,2022.2.4,Win32,60.0240096,63df7cace40d9c9ddda134d8,64d2fd46c836a06233681665,64dc7f8f0f4bab065e53d2ac,,,,,,,decisionTrl,resources/DB.BMP,resources/DG.BMP,Door1,0.397222222,0.026851852,1,0,0,2.262,optionRight,30,8010,4,10,0,10,0,1,,,,,,,,,,,,,,,,,,,,,,,,,,,,,,,,,,,,,,,
,,,,,,,,2023-08-16_08h50.16.876,HF_wild_card,2022.2.4,Win32,60.0240096,63df7cace40d9c9ddda134d8,64d2fd46c836a06233681665,64dc7f8f0f4bab065e53d2ac,,,,,,,decisionTrl,resources/DR.BMP,resources/DY.BMP,Door3,0.357407407,-0.00462963,1,0,0,1.294,optionRight,70,8080,4,11,0,11,0,1,,,,,,,,,,,,,,,,,,,,,,,,,,,,,,,,,,,,,,,
,,,,,,,,2023-08-16_08h50.16.876,HF_wild_card,2022.2.4,Win32,60.0240096,63df7cace40d9c9ddda134d8,64d2fd46c836a06233681665,64dc7f8f0f4bab065e53d2ac,,,,,,,sngl,resources/Empty.png,resources/DP.BMP,WildCard_NonEx,0.249074074,-0.000925926,1,0,0,0.984,optionRight,55,8135,4,12,0,12,0,1,,,,,,,,,,,,,,,,,,,,,,,,,,,,,,,,,,,,,,,
,,,,,,,,2023-08-16_08h50.16.876,HF_wild_card,2022.2.4,Win32,60.0240096,63df7cace40d9c9ddda134d8,64d2fd46c836a06233681665,64dc7f8f0f4bab065e53d2ac,,,,,,,sngl,resources/Empty.png,resources/DG.BMP,Door1,0.27962963,0.062037037,1,0,0,1.303,optionRight,30,8165,4,13,0,13,0,1,,,,,,,,,,,,,,,,,,,,,,,,,,,,,,,,,,,,,,,
,,,,,,,,2023-08-16_08h50.16.876,HF_wild_card,2022.2.4,Win32,60.0240096,63df7cace40d9c9ddda134d8,64d2fd46c836a06233681665,64dc7f8f0f4bab065e53d2ac,,,,,,,sngl,resources/Empty.png,resources/DY.BMP,Door3,0.398148148,0.00462963,1,0,0,0.796,optionRight,70,8235,4,14,0,14,0,1,,,,,,,,,,,,,,,,,,,,,,,,,,,,,,,,,,,,,,,
,,,,,,,,2023-08-16_08h50.16.876,HF_wild_card,2022.2.4,Win32,60.0240096,63df7cace40d9c9ddda134d8,64d2fd46c836a06233681665,64dc7f8f0f4bab065e53d2ac,,,,,,,decisionTrl,resources/DR.BMP,resources/DY.BMP,Door4,0.009259259,0.008333333,1,0,0,0.937,optionLeft,60,8295,4,15,0,15,0,1,,,,,,,,,,,,,,,,,,,,,,,,,,,,,,,,,,,,,,,
,,,,,,,,2023-08-16_08h50.16.876,HF_wild_card,2022.2.4,Win32,60.0240096,63df7cace40d9c9ddda134d8,64d2fd46c836a06233681665,64dc7f8f0f4bab065e53d2ac,,,,,,,decisionTrl,resources/DR.BMP,resources/DY.BMP,Door3,0.505555556,0.049074074,1,0,0,1.008,optionRight,70,8365,4,16,0,16,0,1,,,,,,,,,,,,,,,,,,,,,,,,,,,,,,,,,,,,,,,
,,,,,,,,2023-08-16_08h50.16.876,HF_wild_card,2022.2.4,Win32,60.0240096,63df7cace40d9c9ddda134d8,64d2fd46c836a06233681665,64dc7f8f0f4bab065e53d2ac,,,,,,,decisionTrl,resources/DG.BMP,resources/DB.BMP,Door2,0.384259259,-0.009259259,1,0,0,0.826,optionRight,20,8385,4,17,0,17,0,1,,,,,,,,,,,,,,,,,,,,,,,,,,,,,,,,,,,,,,,
,,,,,,,,2023-08-16_08h50.16.876,HF_wild_card,2022.2.4,Win32,60.0240096,63df7cace40d9c9ddda134d8,64d2fd46c836a06233681665,64dc7f8f0f4bab065e53d2ac,,,,,,,decisionTrl,resources/DB.BMP,resources/DP.BMP,WildCard_NonEx,0.436111111,-0.014814815,1,0,0,1.028,optionRight,45,8430,4,18,0,18,0,1,,,,,,,,,,,,,,,,,,,,,,,,,,,,,,,,,,,,,,,
,,,,,,,,2023-08-16_08h50.16.876,HF_wild_card,2022.2.4,Win32,60.0240096,63df7cace40d9c9ddda134d8,64d2fd46c836a06233681665,64dc7f8f0f4bab065e53d2ac,,,,,,,decisionTrl,resources/DG.BMP,resources/DB.BMP,Door1,-0.300925926,0.012962963,1,0,0,1.861,optionLeft,30,8460,4,19,0,19,0,1,,,,,,,,,,,,,,,,,,,,,,,,,,,,,,,,,,,,,,,
,,,,,,,,2023-08-16_08h50.16.876,HF_wild_card,2022.2.4,Win32,60.0240096,63df7cace40d9c9ddda134d8,64d2fd46c836a06233681665,64dc7f8f0f4bab065e53d2ac,,,,,,,ctch,resources/DR.BMP,resources/DG.BMP,Door4,-0.32962963,0.008333333,1,0,0,1.278,optionLeft,80,8540,4,20,0,20,0,1,,,,,,,,,,,,,,,,,,,,,,,,,,,,,,,,,,,,,,,
,,,,,,,,2023-08-16_08h50.16.876,HF_wild_card,2022.2.4,Win32,60.0240096,63df7cace40d9c9ddda134d8,64d2fd46c836a06233681665,64dc7f8f0f4bab065e53d2ac,,,,,,,sngl,resources/DR.BMP,resources/Empty.png,Door4,-0.312037037,0.022222222,1,0,0,0.868,optionLeft,60,8600,4,21,0,21,0,1,,,,,,,,,,,,,,,,,,,,,,,,,,,,,,,,,,,,,,,
,,,,,,,,2023-08-16_08h50.16.876,HF_wild_card,2022.2.4,Win32,60.0240096,63df7cace40d9c9ddda134d8,64d2fd46c836a06233681665,64dc7f8f0f4bab065e53d2ac,,,,,,,decisionTrl,resources/DP.BMP,resources/DB.BMP,WildCard_NonEx,-0.274074074,-0.060185185,1,0,0,1.825,optionLeft,55,8655,4,22,0,22,0,1,,,,,,,,,,,,,,,,,,,,,,,,,,,,,,,,,,,,,,,
,,,,,,,,2023-08-16_08h50.16.876,HF_wild_card,2022.2.4,Win32,60.0240096,63df7cace40d9c9ddda134d8,64d2fd46c836a06233681665,64dc7f8f0f4bab065e53d2ac,,,,,,,sngl,resources/DP.BMP,resources/Empty.png,WildCard_NonEx,-0.3,0.062037037,1,0,0,0.777,optionLeft,45,8700,4,23,0,23,0,1,,,,,,,,,,,,,,,,,,,,,,,,,,,,,,,,,,,,,,,
,,,,,,,,2023-08-16_08h50.16.876,HF_wild_card,2022.2.4,Win32,60.0240096,63df7cace40d9c9ddda134d8,64d2fd46c836a06233681665,64dc7f8f0f4bab065e53d2ac,,,,,,,ctch,resources/DG.BMP,resources/DR.BMP,Door4,0.387962963,-0.000925926,1,0,0,1.075,optionRight,60,8760,4,24,0,24,0,1,,,,,,,,,,,,,,,,,,,,,,,,,,,,,,,,,,,,,,,
,,,,,,,,2023-08-16_08h50.16.876,HF_wild_card,2022.2.4,Win32,60.0240096,63df7cace40d9c9ddda134d8,64d2fd46c836a06233681665,64dc7f8f0f4bab065e53d2ac,,,,,,,decisionTrl,resources/DY.BMP,resources/DP.BMP,Door3,-0.402777778,0.000925926,1,0,0,1.477,optionLeft,70,8830,4,25,0,25,0,1,,,,,,,,,,,,,,,,,,,,,,,,,,,,,,,,,,,,,,,
,,,,,,,,2023-08-16_08h50.16.876,HF_wild_card,2022.2.4,Win32,60.0240096,63df7cace40d9c9ddda134d8,64d2fd46c836a06233681665,64dc7f8f0f4bab065e53d2ac,,,,,,,sngl,resources/Empty.png,resources/DR.BMP,Door4,0.360185185,0.019444444,1,0,0,0.813,optionRight,80,8910,4,26,0,26,0,1,,,,,,,,,,,,,,,,,,,,,,,,,,,,,,,,,,,,,,,
,,,,,,,,2023-08-16_08h50.16.876,HF_wild_card,2022.2.4,Win32,60.0240096,63df7cace40d9c9ddda134d8,64d2fd46c836a06233681665,64dc7f8f0f4bab065e53d2ac,,,,,,,decisionTrl,resources/DY.BMP,resources/DR.BMP,Door4,0.340740741,0.034259259,1,0,0,1.378,optionRight,60,8970,4,27,0,27,0,1,,,,,,,,,,,,,,,,,,,,,,,,,,,,,,,,,,,,,,,
,,,,,,,,2023-08-16_08h50.16.876,HF_wild_card,2022.2.4,Win32,60.0240096,63df7cace40d9c9ddda134d8,64d2fd46c836a06233681665,64dc7f8f0f4bab065e53d2ac,,,,,,,decisionTrl,resources/DG.BMP,resources/DB.BMP,Door2,0.478703704,-0.007407407,1,0,0,2.053,optionRight,20,8990,4,28,0,28,0,1,,,,,,,,,,,,,,,,,,,,,,,,,,,,,,,,,,,,,,,
,,,,,,,,2023-08-16_08h50.16.876,HF_wild_card,2022.2.4,Win32,60.0240096,63df7cace40d9c9ddda134d8,64d2fd46c836a06233681665,64dc7f8f0f4bab065e53d2ac,,,,,,,decisionTrl,resources/DY.BMP,resources/DR.BMP,Door4,0.386111111,0.028703704,1,0,0,0.958,optionRight,80,9070,4,29,0,29,0,1,,,,,,,,,,,,,,,,,,,,,,,,,,,,,,,,,,,,,,,
,,,,,,,,2023-08-16_08h50.16.876,HF_wild_card,2022.2.4,Win32,60.0240096,63df7cace40d9c9ddda134d8,64d2fd46c836a06233681665,64dc7f8f0f4bab065e53d2ac,,,,,,,sngl,resources/DB.BMP,resources/Empty.png,Door2,-0.397222222,-0.028703704,1,0,0,0.72,optionLeft,20,9090,4,30,0,30,0,1,,,,,,,,,,,,,,,,,,,,,,,,,,,,,,,,,,,,,,,
,,,,,,,,2023-08-16_08h50.16.876,HF_wild_card,2022.2.4,Win32,60.0240096,63df7cace40d9c9ddda134d8,64d2fd46c836a06233681665,64dc7f8f0f4bab065e53d2ac,,,,,,,ctch,resources/DY.BMP,resources/DB.BMP,Door3,-0.363888889,0.032407407,1,0,0,0.96,optionLeft,70,9160,4,31,0,31,0,1,,,,,,,,,,,,,,,,,,,,,,,,,,,,,,,,,,,,,,,
,,,,,,,,2023-08-16_08h50.16.876,HF_wild_card,2022.2.4,Win32,60.0240096,63df7cace40d9c9ddda134d8,64d2fd46c836a06233681665,64dc7f8f0f4bab065e53d2ac,,,,,,,sngl,resources/DP.BMP,resources/Empty.png,WildCard_NonEx,-0.319444444,-0.005555556,1,0,0,0.821,optionLeft,55,9215,4,32,0,32,0,1,,,,,,,,,,,,,,,,,,,,,,,,,,,,,,,,,,,,,,,
,,,,,,,,2023-08-16_08h50.16.876,HF_wild_card,2022.2.4,Win32,60.0240096,63df7cace40d9c9ddda134d8,64d2fd46c836a06233681665,64dc7f8f0f4bab065e53d2ac,,,,,,,decisionTrl,resources/DG.BMP,resources/DB.BMP,Door1,-0.380555556,-0.036111111,1,0,0,1.243,optionLeft,30,9245,4,33,0,33,0,1,,,,,,,,,,,,,,,,,,,,,,,,,,,,,,,,,,,,,,,
,,,,,,,,2023-08-16_08h50.16.876,HF_wild_card,2022.2.4,Win32,60.0240096,63df7cace40d9c9ddda134d8,64d2fd46c836a06233681665,64dc7f8f0f4bab065e53d2ac,,,,,,,decisionTrl,resources/DB.BMP,resources/DG.BMP,Door1,0.491666667,0.022222222,1,0,0,3.124,optionRight,30,9275,4,34,0,34,0,1,,,,,,,,,,,,,,,,,,,,,,,,,,,,,,,,,,,,,,,
,,,,,,,,2023-08-16_08h50.16.876,HF_wild_card,2022.2.4,Win32,60.0240096,63df7cace40d9c9ddda134d8,64d2fd46c836a06233681665,64dc7f8f0f4bab065e53d2ac,,,,,,,decisionTrl,resources/DP.BMP,resources/DR.BMP,Door4,0.387962963,0.038888889,1,0,0,2.239,optionRight,60,9335,4,35,0,35,0,1,,,,,,,,,,,,,,,,,,,,,,,,,,,,,,,,,,,,,,,
,,,,,,,,2023-08-16_08h50.16.876,HF_wild_card,2022.2.4,Win32,60.0240096,63df7cace40d9c9ddda134d8,64d2fd46c836a06233681665,64dc7f8f0f4bab065e53d2ac,,,,,,,decisionTrl,resources/DB.BMP,resources/DG.BMP,Door2,-0.324074074,-0.013888889,1,0,0,1.545,optionLeft,20,9355,4,36,0,36,0,1,,,,,,,,,,,,,,,,,,,,,,,,,,,,,,,,,,,,,,,
,,,,,,,,2023-08-16_08h50.16.876,HF_wild_card,2022.2.4,Win32,60.0240096,63df7cace40d9c9ddda134d8,64d2fd46c836a06233681665,64dc7f8f0f4bab065e53d2ac,,,,,,,decisionTrl,resources/DY.BMP,resources/DR.BMP,Door4,0.410185185,0.005555556,1,0,0,1.045,optionRight,60,9415,4,37,0,37,0,1,,,,,,,,,,,,,,,,,,,,,,,,,,,,,,,,,,,,,,,
,,,,,,,,2023-08-16_08h50.16.876,HF_wild_card,2022.2.4,Win32,60.0240096,63df7cace40d9c9ddda134d8,64d2fd46c836a06233681665,64dc7f8f0f4bab065e53d2ac,,,,,,,sngl,resources/DY.BMP,resources/Empty.png,Door3,-0.32037037,0.025,1,0,0,0.743,optionLeft,70,9485,4,38,0,38,0,1,,,,,,,,,,,,,,,,,,,,,,,,,,,,,,,,,,,,,,,
,,,,,,,,2023-08-16_08h50.16.876,HF_wild_card,2022.2.4,Win32,60.0240096,63df7cace40d9c9ddda134d8,64d2fd46c836a06233681665,64dc7f8f0f4bab065e53d2ac,,,,,,,ctch,resources/DG.BMP,resources/DR.BMP,Door4,0.312037037,-0.058333333,1,0,0,1.126,optionRight,80,9565,4,39,0,39,0,1,,,,,,,,,,,,,,,,,,,,,,,,,,,,,,,,,,,,,,,
,,,,,,,,2023-08-16_08h50.16.876,HF_wild_card,2022.2.4,Win32,60.0240096,63df7cace40d9c9ddda134d8,64d2fd46c836a06233681665,64dc7f8f0f4bab065e53d2ac,,,,,,,decisionTrl,resources/DB.BMP,resources/DG.BMP,Door1,0.401851852,0.037962963,1,0,0,1.261,optionRight,30,9595,4,40,0,40,0,1,,,,,,,,,,,,,,,,,,,,,,,,,,,,,,,,,,,,,,,
,,,,,,,,2023-08-16_08h50.16.876,HF_wild_card,2022.2.4,Win32,60.0240096,63df7cace40d9c9ddda134d8,64d2fd46c836a06233681665,64dc7f8f0f4bab065e53d2ac,,,,,,,decisionTrl,resources/DG.BMP,resources/DP.BMP,WildCard_NonEx,0.32037037,-0.024074074,1,0,0,0.893,optionRight,55,9650,4,41,0,41,0,1,,,,,,,,,,,,,,,,,,,,,,,,,,,,,,,,,,,,,,,
,,,,,,,,2023-08-16_08h50.16.876,HF_wild_card,2022.2.4,Win32,60.0240096,63df7cace40d9c9ddda134d8,64d2fd46c836a06233681665,64dc7f8f0f4bab065e53d2ac,,,,,,,decisionTrl,resources/DP.BMP,resources/DG.BMP,WildCard_NonEx,-0.375,0.025925926,1,0,0,1.007,optionLeft,45,9695,4,42,0,42,0,1,,,,,,,,,,,,,,,,,,,,,,,,,,,,,,,,,,,,,,,
,,,,,,,,2023-08-16_08h50.16.876,HF_wild_card,2022.2.4,Win32,60.0240096,63df7cace40d9c9ddda134d8,64d2fd46c836a06233681665,64dc7f8f0f4bab065e53d2ac,,,,,,,decisionTrl,resources/DP.BMP,resources/DY.BMP,Door3,0.462037037,0.026851852,1,0,0,4.977,optionRight,70,9765,4,43,0,43,0,1,,,,,,,,,,,,,,,,,,,,,,,,,,,,,,,,,,,,,,,
,,,,,,,,2023-08-16_08h50.16.876,HF_wild_card,2022.2.4,Win32,60.0240096,63df7cace40d9c9ddda134d8,64d2fd46c836a06233681665,64dc7f8f0f4bab065e53d2ac,,,,,,,,,,,,,,,,,,,,,,,,,,3,0,3,0,1,,,,,,,,,,,,,,,,,,,,,,,,,,,,,,,,,,
,,,,,,,,2023-08-16_08h50.16.876,HF_wild_card,2022.2.4,Win32,60.0240096,63df7cace40d9c9ddda134d8,64d2fd46c836a06233681665,64dc7f8f0f4bab065e53d2ac,,,,,,,sngl,resources/DP.BMP,resources/Empty.png,WildCard_NonEx,-0.314814815,-0.034259259,1,0,0,1.255,optionLeft,55,9820,5,0,0,0,0,1,,,,,,,,,,,,,,,,,,,,,,,,,,,,,,,,,,,,,,,
,,,,,,,,2023-08-16_08h50.16.876,HF_wild_card,2022.2.4,Win32,60.0240096,63df7cace40d9c9ddda134d8,64d2fd46c836a06233681665,64dc7f8f0f4bab065e53d2ac,,,,,,,decisionTrl,resources/DP.BMP,resources/DR.BMP,Door4,0.372222222,0.000925926,1,0,0,1.328,optionRight,80,9900,5,1,0,1,0,1,,,,,,,,,,,,,,,,,,,,,,,,,,,,,,,,,,,,,,,
,,,,,,,,2023-08-16_08h50.16.876,HF_wild_card,2022.2.4,Win32,60.0240096,63df7cace40d9c9ddda134d8,64d2fd46c836a06233681665,64dc7f8f0f4bab065e53d2ac,,,,,,,sngl,resources/DY.BMP,resources/Empty.png,Door3,-0.425925926,0.021296296,1,0,0,0.846,optionLeft,70,9970,5,2,0,2,0,1,,,,,,,,,,,,,,,,,,,,,,,,,,,,,,,,,,,,,,,
,,,,,,,,2023-08-16_08h50.16.876,HF_wild_card,2022.2.4,Win32,60.0240096,63df7cace40d9c9ddda134d8,64d2fd46c836a06233681665,64dc7f8f0f4bab065e53d2ac,,,,,,,decisionTrl,resources/DR.BMP,resources/DY.BMP,Door3,0.411111111,-0.052777778,1,0,0,1.027,optionRight,70,10040,5,3,0,3,0,1,,,,,,,,,,,,,,,,,,,,,,,,,,,,,,,,,,,,,,,
,,,,,,,,2023-08-16_08h50.16.876,HF_wild_card,2022.2.4,Win32,60.0240096,63df7cace40d9c9ddda134d8,64d2fd46c836a06233681665,64dc7f8f0f4bab065e53d2ac,,,,,,,decisionTrl,resources/DY.BMP,resources/DR.BMP,Door4,0.42962963,0.10462963,1,0,0,4.811,optionRight,80,10120,5,4,0,4,0,1,,,,,,,,,,,,,,,,,,,,,,,,,,,,,,,,,,,,,,,
,,,,,,,,2023-08-16_08h50.16.876,HF_wild_card,2022.2.4,Win32,60.0240096,63df7cace40d9c9ddda134d8,64d2fd46c836a06233681665,64dc7f8f0f4bab065e53d2ac,,,,,,,decisionTrl,resources/DG.BMP,resources/DB.BMP,Door1,-0.271296296,-0.001851852,1,0,0,1.601,optionLeft,30,10150,5,5,0,5,0,1,,,,,,,,,,,,,,,,,,,,,,,,,,,,,,,,,,,,,,,
,,,,,,,,2023-08-16_08h50.16.876,HF_wild_card,2022.2.4,Win32,60.0240096,63df7cace40d9c9ddda134d8,64d2fd46c836a06233681665,64dc7f8f0f4bab065e53d2ac,,,,,,,decisionTrl,resources/DR.BMP,resources/DY.BMP,Door4,-0.217592593,-0.000925926,1,0,0,2.792,optionLeft,80,10230,5,6,0,6,0,1,,,,,,,,,,,,,,,,,,,,,,,,,,,,,,,,,,,,,,,
,,,,,,,,2023-08-16_08h50.16.876,HF_wild_card,2022.2.4,Win32,60.0240096,63df7cace40d9c9ddda134d8,64d2fd46c836a06233681665,64dc7f8f0f4bab065e53d2ac,,,,,,,decisionTrl,resources/DP.BMP,resources/DY.BMP,Door3,0.391666667,-0.008333333,1,0,0,1.045,optionRight,70,10300,5,7,0,7,0,1,,,,,,,,,,,,,,,,,,,,,,,,,,,,,,,,,,,,,,,
,,,,,,,,2023-08-16_08h50.16.876,HF_wild_card,2022.2.4,Win32,60.0240096,63df7cace40d9c9ddda134d8,64d2fd46c836a06233681665,64dc7f8f0f4bab065e53d2ac,,,,,,,ctch,resources/DB.BMP,resources/DY.BMP,Door3,0.326851852,-0.027777778,1,0,0,1.312,optionRight,70,10370,5,8,0,8,0,1,,,,,,,,,,,,,,,,,,,,,,,,,,,,,,,,,,,,,,,
,,,,,,,,2023-08-16_08h50.16.876,HF_wild_card,2022.2.4,Win32,60.0240096,63df7cace40d9c9ddda134d8,64d2fd46c836a06233681665,64dc7f8f0f4bab065e53d2ac,,,,,,,decisionTrl,resources/DP.BMP,resources/DG.BMP,WildCard_NonEx,-0.368518519,0.037037037,1,0,0,1.174,optionLeft,45,10415,5,9,0,9,0,1,,,,,,,,,,,,,,,,,,,,,,,,,,,,,,,,,,,,,,,
,,,,,,,,2023-08-16_08h50.16.876,HF_wild_card,2022.2.4,Win32,60.0240096,63df7cace40d9c9ddda134d8,64d2fd46c836a06233681665,64dc7f8f0f4bab065e53d2ac,,,,,,,decisionTrl,resources/DB.BMP,resources/DG.BMP,Door1,0.427777778,0.039814815,1,0,0,1.311,optionRight,30,10445,5,10,0,10,0,1,,,,,,,,,,,,,,,,,,,,,,,,,,,,,,,,,,,,,,,
,,,,,,,,2023-08-16_08h50.16.876,HF_wild_card,2022.2.4,Win32,60.0240096,63df7cace40d9c9ddda134d8,64d2fd46c836a06233681665,64dc7f8f0f4bab065e53d2ac,,,,,,,decisionTrl,resources/DG.BMP,resources/DB.BMP,Door1,-0.218518519,0.012037037,1,0,0,2.178,optionLeft,30,10475,5,11,0,11,0,1,,,,,,,,,,,,,,,,,,,,,,,,,,,,,,,,,,,,,,,
,,,,,,,,2023-08-16_08h50.16.876,HF_wild_card,2022.2.4,Win32,60.0240096,63df7cace40d9c9ddda134d8,64d2fd46c836a06233681665,64dc7f8f0f4bab065e53d2ac,,,,,,,decisionTrl,resources/DR.BMP,resources/DY.BMP,Door3,0.372222222,0.011111111,1,0,0,1.494,optionRight,70,10545,5,12,0,12,0,1,,,,,,,,,,,,,,,,,,,,,,,,,,,,,,,,,,,,,,,
,,,,,,,,2023-08-16_08h50.16.876,HF_wild_card,2022.2.4,Win32,60.0240096,63df7cace40d9c9ddda134d8,64d2fd46c836a06233681665,64dc7f8f0f4bab065e53d2ac,,,,,,,decisionTrl,resources/DB.BMP,resources/DG.BMP,Door1,0.325,0.051851852,1,0,0,1.487,optionRight,30,10575,5,13,0,13,0,1,,,,,,,,,,,,,,,,,,,,,,,,,,,,,,,,,,,,,,,
,,,,,,,,2023-08-16_08h50.16.876,HF_wild_card,2022.2.4,Win32,60.0240096,63df7cace40d9c9ddda134d8,64d2fd46c836a06233681665,64dc7f8f0f4bab065e53d2ac,,,,,,,decisionTrl,resources/DR.BMP,resources/DP.BMP,Door4,-0.319444444,0.013888889,1,0,0,1.576,optionLeft,60,10635,5,14,0,14,0,1,,,,,,,,,,,,,,,,,,,,,,,,,,,,,,,,,,,,,,,
,,,,,,,,2023-08-16_08h50.16.876,HF_wild_card,2022.2.4,Win32,60.0240096,63df7cace40d9c9ddda134d8,64d2fd46c836a06233681665,64dc7f8f0f4bab065e53d2ac,,,,,,,decisionTrl,resources/DB.BMP,resources/DP.BMP,WildCard_NonEx,0.417592593,0.02037037,1,0,0,0.944,optionRight,55,10690,5,15,0,15,0,1,,,,,,,,,,,,,,,,,,,,,,,,,,,,,,,,,,,,,,,
,,,,,,,,2023-08-16_08h50.16.876,HF_wild_card,2022.2.4,Win32,60.0240096,63df7cace40d9c9ddda134d8,64d2fd46c836a06233681665,64dc7f8f0f4bab065e53d2ac,,,,,,,sngl,resources/Empty.png,resources/DG.BMP,Door1,0.337962963,0.010185185,1,0,0,0.778,optionRight,30,10720,5,16,0,16,0,1,,,,,,,,,,,,,,,,,,,,,,,,,,,,,,,,,,,,,,,
,,,,,,,,2023-08-16_08h50.16.876,HF_wild_card,2022.2.4,Win32,60.0240096,63df7cace40d9c9ddda134d8,64d2fd46c836a06233681665,64dc7f8f0f4bab065e53d2ac,,,,,,,decisionTrl,resources/DB.BMP,resources/DG.BMP,Door1,0.405555556,0.035185185,1,0,0,1.296,optionRight,30,10750,5,17,0,17,0,1,,,,,,,,,,,,,,,,,,,,,,,,,,,,,,,,,,,,,,,
,,,,,,,,2023-08-16_08h50.16.876,HF_wild_card,2022.2.4,Win32,60.0240096,63df7cace40d9c9ddda134d8,64d2fd46c836a06233681665,64dc7f8f0f4bab065e53d2ac,,,,,,,decisionTrl,resources/DB.BMP,resources/DG.BMP,Door1,0.297222222,-0.012037037,1,0,0,1.078,optionRight,30,10780,5,18,0,18,0,1,,,,,,,,,,,,,,,,,,,,,,,,,,,,,,,,,,,,,,,
,,,,,,,,2023-08-16_08h50.16.876,HF_wild_card,2022.2.4,Win32,60.0240096,63df7cace40d9c9ddda134d8,64d2fd46c836a06233681665,64dc7f8f0f4bab065e53d2ac,,,,,,,sngl,resources/Empty.png,resources/DR.BMP,Door4,0.247222222,0.021296296,1,0,0,0.977,optionRight,60,10840,5,19,0,19,0,1,,,,,,,,,,,,,,,,,,,,,,,,,,,,,,,,,,,,,,,
,,,,,,,,2023-08-16_08h50.16.876,HF_wild_card,2022.2.4,Win32,60.0240096,63df7cace40d9c9ddda134d8,64d2fd46c836a06233681665,64dc7f8f0f4bab065e53d2ac,,,,,,,decisionTrl,resources/DG.BMP,resources/DP.BMP,WildCard_NonEx,0.307407407,0.001851852,1,0,0,1.329,optionRight,45,10885,5,20,0,20,0,1,,,,,,,,,,,,,,,,,,,,,,,,,,,,,,,,,,,,,,,
,,,,,,,,2023-08-16_08h50.16.876,HF_wild_card,2022.2.4,Win32,60.0240096,63df7cace40d9c9ddda134d8,64d2fd46c836a06233681665,64dc7f8f0f4bab065e53d2ac,,,,,,,ctch,resources/DY.BMP,resources/DB.BMP,Door3,-0.440740741,0.003703704,1,0,0,1.242,optionLeft,70,10955,5,21,0,21,0,1,,,,,,,,,,,,,,,,,,,,,,,,,,,,,,,,,,,,,,,
,,,,,,,,2023-08-16_08h50.16.876,HF_wild_card,2022.2.4,Win32,60.0240096,63df7cace40d9c9ddda134d8,64d2fd46c836a06233681665,64dc7f8f0f4bab065e53d2ac,,,,,,,ctch,resources/DR.BMP,resources/DG.BMP,Door4,-0.42037037,0.049074074,1,0,0,1.214,optionLeft,80,11035,5,22,0,22,0,1,,,,,,,,,,,,,,,,,,,,,,,,,,,,,,,,,,,,,,,
,,,,,,,,2023-08-16_08h50.16.876,HF_wild_card,2022.2.4,Win32,60.0240096,63df7cace40d9c9ddda134d8,64d2fd46c836a06233681665,64dc7f8f0f4bab065e53d2ac,,,,,,,sngl,resources/DP.BMP,resources/Empty.png,WildCard_NonEx,-0.307407407,0.018518519,1,0,0,0.857,optionLeft,45,11080,5,23,0,23,0,1,,,,,,,,,,,,,,,,,,,,,,,,,,,,,,,,,,,,,,,
,,,,,,,,2023-08-16_08h50.16.876,HF_wild_card,2022.2.4,Win32,60.0240096,63df7cace40d9c9ddda134d8,64d2fd46c836a06233681665,64dc7f8f0f4bab065e53d2ac,,,,,,,decisionTrl,resources/DY.BMP,resources/DP.BMP,Door3,-0.260185185,0.031481481,1,0,0,1.789,optionLeft,70,11150,5,24,0,24,0,1,,,,,,,,,,,,,,,,,,,,,,,,,,,,,,,,,,,,,,,
,,,,,,,,2023-08-16_08h50.16.876,HF_wild_card,2022.2.4,Win32,60.0240096,63df7cace40d9c9ddda134d8,64d2fd46c836a06233681665,64dc7f8f0f4bab065e53d2ac,,,,,,,decisionTrl,resources/DG.BMP,resources/DB.BMP,Door1,-0.174074074,0.02037037,1,0,0,2.101,optionLeft,30,11180,5,25,0,25,0,1,,,,,,,,,,,,,,,,,,,,,,,,,,,,,,,,,,,,,,,
,,,,,,,,2023-08-16_08h50.16.876,HF_wild_card,2022.2.4,Win32,60.0240096,63df7cace40d9c9ddda134d8,64d2fd46c836a06233681665,64dc7f8f0f4bab065e53d2ac,,,,,,,ctch,resources/DY.BMP,resources/DB.BMP,Door3,-0.250925926,-0.002777778,1,0,0,0.946,optionLeft,70,11250,5,26,0,26,0,1,,,,,,,,,,,,,,,,,,,,,,,,,,,,,,,,,,,,,,,
,,,,,,,,2023-08-16_08h50.16.876,HF_wild_card,2022.2.4,Win32,60.0240096,63df7cace40d9c9ddda134d8,64d2fd46c836a06233681665,64dc7f8f0f4bab065e53d2ac,,,,,,,decisionTrl,resources/DR.BMP,resources/DY.BMP,Door3,0.341666667,-0.032407407,1,0,0,1.834,optionRight,70,11320,5,27,0,27,0,1,,,,,,,,,,,,,,,,,,,,,,,,,,,,,,,,,,,,,,,
,,,,,,,,2023-08-16_08h50.16.876,HF_wild_card,2022.2.4,Win32,60.0240096,63df7cace40d9c9ddda134d8,64d2fd46c836a06233681665,64dc7f8f0f4bab065e53d2ac,,,,,,,ctch,resources/DR.BMP,resources/DG.BMP,Door4,-0.334259259,0.035185185,1,0,0,0.944,optionLeft,80,11400,5,28,0,28,0,1,,,,,,,,,,,,,,,,,,,,,,,,,,,,,,,,,,,,,,,
,,,,,,,,2023-08-16_08h50.16.876,HF_wild_card,2022.2.4,Win32,60.0240096,63df7cace40d9c9ddda134d8,64d2fd46c836a06233681665,64dc7f8f0f4bab065e53d2ac,,,,,,,sngl,resources/Empty.png,resources/DP.BMP,WildCard_NonEx,0.303703704,-0.065740741,1,0,0,1.244,optionRight,45,11445,5,29,0,29,0,1,,,,,,,,,,,,,,,,,,,,,,,,,,,,,,,,,,,,,,,
,,,,,,,,2023-08-16_08h50.16.876,HF_wild_card,2022.2.4,Win32,60.0240096,63df7cace40d9c9ddda134d8,64d2fd46c836a06233681665,64dc7f8f0f4bab065e53d2ac,,,,,,,decisionTrl,resources/DY.BMP,resources/DR.BMP,Door4,0.22962963,-0.087962963,1,0,0,2.711,optionRight,80,11525,5,30,0,30,0,1,,,,,,,,,,,,,,,,,,,,,,,,,,,,,,,,,,,,,,,
,,,,,,,,2023-08-16_08h50.16.876,HF_wild_card,2022.2.4,Win32,60.0240096,63df7cace40d9c9ddda134d8,64d2fd46c836a06233681665,64dc7f8f0f4bab065e53d2ac,,,,,,,decisionTrl,resources/DG.BMP,resources/DB.BMP,Door1,-0.232407407,0.010185185,1,0,0,1.581,optionLeft,30,11555,5,31,0,31,0,1,,,,,,,,,,,,,,,,,,,,,,,,,,,,,,,,,,,,,,,
,,,,,,,,2023-08-16_08h50.16.876,HF_wild_card,2022.2.4,Win32,60.0240096,63df7cace40d9c9ddda134d8,64d2fd46c836a06233681665,64dc7f8f0f4bab065e53d2ac,,,,,,,decisionTrl,resources/DY.BMP,resources/DR.BMP,Door3,-0.325,0.016666667,1,0,0,1.794,optionLeft,70,11625,5,32,0,32,0,1,,,,,,,,,,,,,,,,,,,,,,,,,,,,,,,,,,,,,,,
,,,,,,,,2023-08-16_08h50.16.876,HF_wild_card,2022.2.4,Win32,60.0240096,63df7cace40d9c9ddda134d8,64d2fd46c836a06233681665,64dc7f8f0f4bab065e53d2ac,,,,,,,sngl,resources/DB.BMP,resources/Empty.png,Door2,-0.3,0.014814815,1,0,0,0.875,optionLeft,40,11665,5,33,0,33,0,1,,,,,,,,,,,,,,,,,,,,,,,,,,,,,,,,,,,,,,,
,,,,,,,,2023-08-16_08h50.16.876,HF_wild_card,2022.2.4,Win32,60.0240096,63df7cace40d9c9ddda134d8,64d2fd46c836a06233681665,64dc7f8f0f4bab065e53d2ac,,,,,,,sngl,resources/Empty.png,resources/DP.BMP,WildCard_NonEx,0.343518519,-0.032407407,1,0,0,0.868,optionRight,55,11720,5,34,0,34,0,1,,,,,,,,,,,,,,,,,,,,,,,,,,,,,,,,,,,,,,,
,,,,,,,,2023-08-16_08h50.16.876,HF_wild_card,2022.2.4,Win32,60.0240096,63df7cace40d9c9ddda134d8,64d2fd46c836a06233681665,64dc7f8f0f4bab065e53d2ac,,,,,,,ctch,resources/DG.BMP,resources/DR.BMP,Door4,0.382407407,-0.023148148,1,0,0,1.176,optionRight,80,11800,5,35,0,35,0,1,,,,,,,,,,,,,,,,,,,,,,,,,,,,,,,,,,,,,,,
,,,,,,,,2023-08-16_08h50.16.876,HF_wild_card,2022.2.4,Win32,60.0240096,63df7cace40d9c9ddda134d8,64d2fd46c836a06233681665,64dc7f8f0f4bab065e53d2ac,,,,,,,decisionTrl,resources/DP.BMP,resources/DB.BMP,WildCard_NonEx,-0.308333333,-0.00462963,1,0,0,1.232,optionLeft,45,11845,5,36,0,36,0,1,,,,,,,,,,,,,,,,,,,,,,,,,,,,,,,,,,,,,,,
,,,,,,,,2023-08-16_08h50.16.876,HF_wild_card,2022.2.4,Win32,60.0240096,63df7cace40d9c9ddda134d8,64d2fd46c836a06233681665,64dc7f8f0f4bab065e53d2ac,,,,,,,sngl,resources/Empty.png,resources/DY.BMP,Door3,0.335185185,0.000925926,1,0,0,0.879,optionRight,70,11915,5,37,0,37,0,1,,,,,,,,,,,,,,,,,,,,,,,,,,,,,,,,,,,,,,,
,,,,,,,,2023-08-16_08h50.16.876,HF_wild_card,2022.2.4,Win32,60.0240096,63df7cace40d9c9ddda134d8,64d2fd46c836a06233681665,64dc7f8f0f4bab065e53d2ac,,,,,,,sngl,resources/DG.BMP,resources/Empty.png,Door1,-0.297222222,0.030555556,1,0,0,1.027,optionLeft,30,11945,5,38,0,38,0,1,,,,,,,,,,,,,,,,,,,,,,,,,,,,,,,,,,,,,,,
,,,,,,,,2023-08-16_08h50.16.876,HF_wild_card,2022.2.4,Win32,60.0240096,63df7cace40d9c9ddda134d8,64d2fd46c836a06233681665,64dc7f8f0f4bab065e53d2ac,,,,,,,decisionTrl,resources/DY.BMP,resources/DR.BMP,Door4,0.371296296,-0.031481481,1,0,0,1.309,optionRight,80,12025,5,39,0,39,0,1,,,,,,,,,,,,,,,,,,,,,,,,,,,,,,,,,,,,,,,
,,,,,,,,2023-08-16_08h50.16.876,HF_wild_card,2022.2.4,Win32,60.0240096,63df7cace40d9c9ddda134d8,64d2fd46c836a06233681665,64dc7f8f0f4bab065e53d2ac,,,,,,,ctch,resources/DB.BMP,resources/DY.BMP,Door3,0.346296296,-0.000925926,1,0,0,1.532,optionRight,70,12095,5,40,0,40,0,1,,,,,,,,,,,,,,,,,,,,,,,,,,,,,,,,,,,,,,,
,,,,,,,,2023-08-16_08h50.16.876,HF_wild_card,2022.2.4,Win32,60.0240096,63df7cace40d9c9ddda134d8,64d2fd46c836a06233681665,64dc7f8f0f4bab065e53d2ac,,,,,,,sngl,resources/Empty.png,resources/DB.BMP,Door2,0.375,-0.006481481,1,0,0,1.139,optionRight,20,12115,5,41,0,41,0,1,,,,,,,,,,,,,,,,,,,,,,,,,,,,,,,,,,,,,,,
,,,,,,,,2023-08-16_08h50.16.876,HF_wild_card,2022.2.4,Win32,60.0240096,63df7cace40d9c9ddda134d8,64d2fd46c836a06233681665,64dc7f8f0f4bab065e53d2ac,,,,,,,ctch,resources/DG.BMP,resources/DR.BMP,Door4,0.401851852,-0.064814815,1,0,0,1.141,optionRight,80,12195,5,42,0,42,0,1,,,,,,,,,,,,,,,,,,,,,,,,,,,,,,,,,,,,,,,
,,,,,,,,2023-08-16_08h50.16.876,HF_wild_card,2022.2.4,Win32,60.0240096,63df7cace40d9c9ddda134d8,64d2fd46c836a06233681665,64dc7f8f0f4bab065e53d2ac,,,,,,,sngl,resources/DR.BMP,resources/Empty.png,Door4,-0.363888889,0.030555556,1,0,0,0.927,optionLeft,80,12275,5,43,0,43,0,1,,,,,,,,,,,,,,,,,,,,,,,,,,,,,,,,,,,,,,,
,,,,,,,,2023-08-16_08h50.16.876,HF_wild_card,2022.2.4,Win32,60.0240096,63df7cace40d9c9ddda134d8,64d2fd46c836a06233681665,64dc7f8f0f4bab065e53d2ac,,,,,,,,,,,,,,,,,,,,,,,,,,4,0,4,0,1,,,,,,,,,,,,,,,,,,,,,,,,,,,,,,,,,,
,,,,,,,,2023-08-16_08h50.16.876,HF_wild_card,2022.2.4,Win32,60.0240096,63df7cace40d9c9ddda134d8,64d2fd46c836a06233681665,64dc7f8f0f4bab065e53d2ac,,,,,,,decisionTrl,resources/DP.BMP,resources/DR.BMP,Door4,0.502777778,0.083333333,1,0,0,1.744,optionRight,60,12335,6,0,0,0,0,1,,,,,,,,,,,,,,,,,,,,,,,,,,,,,,,,,,,,,,,
,,,,,,,,2023-08-16_08h50.16.876,HF_wild_card,2022.2.4,Win32,60.0240096,63df7cace40d9c9ddda134d8,64d2fd46c836a06233681665,64dc7f8f0f4bab065e53d2ac,,,,,,,sngl,resources/Empty.png,resources/DP.BMP,WildCard_NonEx,0.433333333,0.036111111,1,0,0,0.794,optionRight,45,12380,6,1,0,1,0,1,,,,,,,,,,,,,,,,,,,,,,,,,,,,,,,,,,,,,,,
,,,,,,,,2023-08-16_08h50.16.876,HF_wild_card,2022.2.4,Win32,60.0240096,63df7cace40d9c9ddda134d8,64d2fd46c836a06233681665,64dc7f8f0f4bab065e53d2ac,,,,,,,decisionTrl,resources/DY.BMP,resources/DR.BMP,Door4,0.334259259,0.021296296,1,0,0,1.556,optionRight,80,12460,6,2,0,2,0,1,,,,,,,,,,,,,,,,,,,,,,,,,,,,,,,,,,,,,,,
,,,,,,,,2023-08-16_08h50.16.876,HF_wild_card,2022.2.4,Win32,60.0240096,63df7cace40d9c9ddda134d8,64d2fd46c836a06233681665,64dc7f8f0f4bab065e53d2ac,,,,,,,decisionTrl,resources/DP.BMP,resources/DG.BMP,WildCard_NonEx,-0.374074074,-0.039814815,1,0,0,1.137,optionLeft,55,12515,6,3,0,3,0,1,,,,,,,,,,,,,,,,,,,,,,,,,,,,,,,,,,,,,,,
,,,,,,,,2023-08-16_08h50.16.876,HF_wild_card,2022.2.4,Win32,60.0240096,63df7cace40d9c9ddda134d8,64d2fd46c836a06233681665,64dc7f8f0f4bab065e53d2ac,,,,,,,decisionTrl,resources/DY.BMP,resources/DR.BMP,Door3,-0.380555556,0.038888889,1,0,0,2.694,optionLeft,70,12585,6,4,0,4,0,1,,,,,,,,,,,,,,,,,,,,,,,,,,,,,,,,,,,,,,,
,,,,,,,,2023-08-16_08h50.16.876,HF_wild_card,2022.2.4,Win32,60.0240096,63df7cace40d9c9ddda134d8,64d2fd46c836a06233681665,64dc7f8f0f4bab065e53d2ac,,,,,,,decisionTrl,resources/DB.BMP,resources/DG.BMP,Door2,-0.340740741,0.02962963,1,0,0,2.04,optionLeft,20,12605,6,5,0,5,0,1,,,,,,,,,,,,,,,,,,,,,,,,,,,,,,,,,,,,,,,
,,,,,,,,2023-08-16_08h50.16.876,HF_wild_card,2022.2.4,Win32,60.0240096,63df7cace40d9c9ddda134d8,64d2fd46c836a06233681665,64dc7f8f0f4bab065e53d2ac,,,,,,,ctch,resources/DG.BMP,resources/DR.BMP,Door4,0.37037037,-0.007407407,1,0,0,0.742,optionRight,60,12665,6,6,0,6,0,1,,,,,,,,,,,,,,,,,,,,,,,,,,,,,,,,,,,,,,,
,,,,,,,,2023-08-16_08h50.16.876,HF_wild_card,2022.2.4,Win32,60.0240096,63df7cace40d9c9ddda134d8,64d2fd46c836a06233681665,64dc7f8f0f4bab065e53d2ac,,,,,,,sngl,resources/DR.BMP,resources/Empty.png,Door4,-0.312962963,-0.003703704,1,0,0,2.56,optionLeft,60,12725,6,7,0,7,0,1,,,,,,,,,,,,,,,,,,,,,,,,,,,,,,,,,,,,,,,
,,,,,,,,2023-08-16_08h50.16.876,HF_wild_card,2022.2.4,Win32,60.0240096,63df7cace40d9c9ddda134d8,64d2fd46c836a06233681665,64dc7f8f0f4bab065e53d2ac,,,,,,,sngl,resources/Empty.png,resources/DY.BMP,Door3,0.380555556,-0.024074074,1,0,0,1.029,optionRight,70,12795,6,8,0,8,0,1,,,,,,,,,,,,,,,,,,,,,,,,,,,,,,,,,,,,,,,
,,,,,,,,2023-08-16_08h50.16.876,HF_wild_card,2022.2.4,Win32,60.0240096,63df7cace40d9c9ddda134d8,64d2fd46c836a06233681665,64dc7f8f0f4bab065e53d2ac,,,,,,,sngl,resources/Empty.png,resources/DG.BMP,Door1,0.390740741,0.003703704,1,0,0,0.864,optionRight,30,12825,6,9,0,9,0,1,,,,,,,,,,,,,,,,,,,,,,,,,,,,,,,,,,,,,,,
,,,,,,,,2023-08-16_08h50.16.876,HF_wild_card,2022.2.4,Win32,60.0240096,63df7cace40d9c9ddda134d8,64d2fd46c836a06233681665,64dc7f8f0f4bab065e53d2ac,,,,,,,ctch,resources/DY.BMP,resources/DB.BMP,Door3,-0.32037037,0.012962963,1,0,0,1.292,optionLeft,70,12895,6,10,0,10,0,1,,,,,,,,,,,,,,,,,,,,,,,,,,,,,,,,,,,,,,,
,,,,,,,,2023-08-16_08h50.16.876,HF_wild_card,2022.2.4,Win32,60.0240096,63df7cace40d9c9ddda134d8,64d2fd46c836a06233681665,64dc7f8f0f4bab065e53d2ac,,,,,,,ctch,resources/DR.BMP,resources/DG.BMP,Door4,-0.405555556,0.011111111,1,0,0,1.096,optionLeft,80,12975,6,11,0,11,0,1,,,,,,,,,,,,,,,,,,,,,,,,,,,,,,,,,,,,,,,
,,,,,,,,2023-08-16_08h50.16.876,HF_wild_card,2022.2.4,Win32,60.0240096,63df7cace40d9c9ddda134d8,64d2fd46c836a06233681665,64dc7f8f0f4bab065e53d2ac,,,,,,,decisionTrl,resources/DY.BMP,resources/DR.BMP,Door4,0.357407407,0.000925926,1,0,0,1.738,optionRight,60,13035,6,12,0,12,0,1,,,,,,,,,,,,,,,,,,,,,,,,,,,,,,,,,,,,,,,
,,,,,,,,2023-08-16_08h50.16.876,HF_wild_card,2022.2.4,Win32,60.0240096,63df7cace40d9c9ddda134d8,64d2fd46c836a06233681665,64dc7f8f0f4bab065e53d2ac,,,,,,,decisionTrl,resources/DG.BMP,resources/DB.BMP,Door2,0.383333333,-0.051851852,1,0,0,1.323,optionRight,40,13075,6,13,0,13,0,1,,,,,,,,,,,,,,,,,,,,,,,,,,,,,,,,,,,,,,,
,,,,,,,,2023-08-16_08h50.16.876,HF_wild_card,2022.2.4,Win32,60.0240096,63df7cace40d9c9ddda134d8,64d2fd46c836a06233681665,64dc7f8f0f4bab065e53d2ac,,,,,,,ctch,resources/DR.BMP,resources/DG.BMP,Door4,-0.268518519,0.018518519,1,0,0,0.986,optionLeft,60,13135,6,14,0,14,0,1,,,,,,,,,,,,,,,,,,,,,,,,,,,,,,,,,,,,,,,
,,,,,,,,2023-08-16_08h50.16.876,HF_wild_card,2022.2.4,Win32,60.0240096,63df7cace40d9c9ddda134d8,64d2fd46c836a06233681665,64dc7f8f0f4bab065e53d2ac,,,,,,,sngl,resources/Empty.png,resources/DR.BMP,Door4,0.388888889,0.025925926,1,0,0,0.751,optionRight,80,13215,6,15,0,15,0,1,,,,,,,,,,,,,,,,,,,,,,,,,,,,,,,,,,,,,,,
,,,,,,,,2023-08-16_08h50.16.876,HF_wild_card,2022.2.4,Win32,60.0240096,63df7cace40d9c9ddda134d8,64d2fd46c836a06233681665,64dc7f8f0f4bab065e53d2ac,,,,,,,sngl,resources/DY.BMP,resources/Empty.png,Door3,-0.258333333,0.030555556,1,0,0,0.896,optionLeft,70,13285,6,16,0,16,0,1,,,,,,,,,,,,,,,,,,,,,,,,,,,,,,,,,,,,,,,
,,,,,,,,2023-08-16_08h50.16.876,HF_wild_card,2022.2.4,Win32,60.0240096,63df7cace40d9c9ddda134d8,64d2fd46c836a06233681665,64dc7f8f0f4bab065e53d2ac,,,,,,,ctch,resources/DB.BMP,resources/DY.BMP,Door3,0.408333333,0.057407407,1,0,0,0.812,optionRight,70,13355,6,17,0,17,0,1,,,,,,,,,,,,,,,,,,,,,,,,,,,,,,,,,,,,,,,
,,,,,,,,2023-08-16_08h50.16.876,HF_wild_card,2022.2.4,Win32,60.0240096,63df7cace40d9c9ddda134d8,64d2fd46c836a06233681665,64dc7f8f0f4bab065e53d2ac,,,,,,,ctch,resources/DG.BMP,resources/DR.BMP,Door4,0.407407407,0.05462963,1,0,0,1.078,optionRight,60,13415,6,18,0,18,0,1,,,,,,,,,,,,,,,,,,,,,,,,,,,,,,,,,,,,,,,
,,,,,,,,2023-08-16_08h50.16.876,HF_wild_card,2022.2.4,Win32,60.0240096,63df7cace40d9c9ddda134d8,64d2fd46c836a06233681665,64dc7f8f0f4bab065e53d2ac,,,,,,,decisionTrl,resources/DB.BMP,resources/DG.BMP,Door2,-0.308333333,0.003703704,1,0,0,1.545,optionLeft,20,13435,6,19,0,19,0,1,,,,,,,,,,,,,,,,,,,,,,,,,,,,,,,,,,,,,,,
,,,,,,,,2023-08-16_08h50.16.876,HF_wild_card,2022.2.4,Win32,60.0240096,63df7cace40d9c9ddda134d8,64d2fd46c836a06233681665,64dc7f8f0f4bab065e53d2ac,,,,,,,decisionTrl,resources/DR.BMP,resources/DY.BMP,Door3,0.446296296,0.013888889,1,0,0,0.707,optionRight,70,13505,6,20,0,20,0,1,,,,,,,,,,,,,,,,,,,,,,,,,,,,,,,,,,,,,,,
,,,,,,,,2023-08-16_08h50.16.876,HF_wild_card,2022.2.4,Win32,60.0240096,63df7cace40d9c9ddda134d8,64d2fd46c836a06233681665,64dc7f8f0f4bab065e53d2ac,,,,,,,decisionTrl,resources/DB.BMP,resources/DG.BMP,Door1,0.402777778,0.034259259,1,0,0,1.125,optionRight,30,13535,6,21,0,21,0,1,,,,,,,,,,,,,,,,,,,,,,,,,,,,,,,,,,,,,,,
,,,,,,,,2023-08-16_08h50.16.876,HF_wild_card,2022.2.4,Win32,60.0240096,63df7cace40d9c9ddda134d8,64d2fd46c836a06233681665,64dc7f8f0f4bab065e53d2ac,,,,,,,decisionTrl,resources/DR.BMP,resources/DY.BMP,Door3,0.418518519,0.040740741,1,0,0,1.013,optionRight,70,13605,6,22,0,22,0,1,,,,,,,,,,,,,,,,,,,,,,,,,,,,,,,,,,,,,,,
,,,,,,,,2023-08-16_08h50.16.876,HF_wild_card,2022.2.4,Win32,60.0240096,63df7cace40d9c9ddda134d8,64d2fd46c836a06233681665,64dc7f8f0f4bab065e53d2ac,,,,,,,sngl,resources/Empty.png,resources/DP.BMP,WildCard_NonEx,0.238888889,0.007407407,1,0,0,0.903,optionRight,55,13660,6,23,0,23,0,1,,,,,,,,,,,,,,,,,,,,,,,,,,,,,,,,,,,,,,,
,,,,,,,,2023-08-16_08h50.16.876,HF_wild_card,2022.2.4,Win32,60.0240096,63df7cace40d9c9ddda134d8,64d2fd46c836a06233681665,64dc7f8f0f4bab065e53d2ac,,,,,,,sngl,resources/DP.BMP,resources/Empty.png,WildCard_NonEx,-0.260185185,-0.00462963,1,0,0,0.781,optionLeft,45,13705,6,24,0,24,0,1,,,,,,,,,,,,,,,,,,,,,,,,,,,,,,,,,,,,,,,
,,,,,,,,2023-08-16_08h50.16.876,HF_wild_card,2022.2.4,Win32,60.0240096,63df7cace40d9c9ddda134d8,64d2fd46c836a06233681665,64dc7f8f0f4bab065e53d2ac,,,,,,,sngl,resources/DP.BMP,resources/Empty.png,WildCard_NonEx,-0.211111111,-0.005555556,1,0,0,0.992,optionLeft,55,13760,6,25,0,25,0,1,,,,,,,,,,,,,,,,,,,,,,,,,,,,,,,,,,,,,,,
,,,,,,,,2023-08-16_08h50.16.876,HF_wild_card,2022.2.4,Win32,60.0240096,63df7cace40d9c9ddda134d8,64d2fd46c836a06233681665,64dc7f8f0f4bab065e53d2ac,,,,,,,decisionTrl,resources/DG.BMP,resources/DB.BMP,Door2,0.322222222,-0.012037037,1,0,0,2.012,optionRight,40,13800,6,26,0,26,0,1,,,,,,,,,,,,,,,,,,,,,,,,,,,,,,,,,,,,,,,
,,,,,,,,2023-08-16_08h50.16.876,HF_wild_card,2022.2.4,Win32,60.0240096,63df7cace40d9c9ddda134d8,64d2fd46c836a06233681665,64dc7f8f0f4bab065e53d2ac,,,,,,,ctch,resources/DY.BMP,resources/DB.BMP,Door3,-0.32962963,0.026851852,1,0,0,1.127,optionLeft,70,13870,6,27,0,27,0,1,,,,,,,,,,,,,,,,,,,,,,,,,,,,,,,,,,,,,,,
,,,,,,,,2023-08-16_08h50.16.876,HF_wild_card,2022.2.4,Win32,60.0240096,63df7cace40d9c9ddda134d8,64d2fd46c836a06233681665,64dc7f8f0f4bab065e53d2ac,,,,,,,decisionTrl,resources/DR.BMP,resources/DY.BMP,Door3,0.400925926,0.027777778,1,0,0,1.294,optionRight,70,13940,6,28,0,28,0,1,,,,,,,,,,,,,,,,,,,,,,,,,,,,,,,,,,,,,,,
,,,,,,,,2023-08-16_08h50.16.876,HF_wild_card,2022.2.4,Win32,60.0240096,63df7cace40d9c9ddda134d8,64d2fd46c836a06233681665,64dc7f8f0f4bab065e53d2ac,,,,,,,decisionTrl,resources/DG.BMP,resources/DB.BMP,Door2,0.314814815,0.016666667,1,0,0,0.878,optionRight,20,13960,6,29,0,29,0,1,,,,,,,,,,,,,,,,,,,,,,,,,,,,,,,,,,,,,,,
,,,,,,,,2023-08-16_08h50.16.876,HF_wild_card,2022.2.4,Win32,60.0240096,63df7cace40d9c9ddda134d8,64d2fd46c836a06233681665,64dc7f8f0f4bab065e53d2ac,,,,,,,sngl,resources/DG.BMP,resources/Empty.png,Door1,-0.263888889,0.034259259,1,0,0,0.83,optionLeft,30,13990,6,30,0,30,0,1,,,,,,,,,,,,,,,,,,,,,,,,,,,,,,,,,,,,,,,
,,,,,,,,2023-08-16_08h50.16.876,HF_wild_card,2022.2.4,Win32,60.0240096,63df7cace40d9c9ddda134d8,64d2fd46c836a06233681665,64dc7f8f0f4bab065e53d2ac,,,,,,,decisionTrl,resources/DY.BMP,resources/DP.BMP,Door3,-0.259259259,-0.012037037,1,0,0,1.779,optionLeft,70,14060,6,31,0,31,0,1,,,,,,,,,,,,,,,,,,,,,,,,,,,,,,,,,,,,,,,
,,,,,,,,2023-08-16_08h50.16.876,HF_wild_card,2022.2.4,Win32,60.0240096,63df7cace40d9c9ddda134d8,64d2fd46c836a06233681665,64dc7f8f0f4bab065e53d2ac,,,,,,,decisionTrl,resources/DY.BMP,resources/DR.BMP,Door4,0.397222222,-0.021296296,1,0,0,1.157,optionRight,80,14140,6,32,0,32,0,1,,,,,,,,,,,,,,,,,,,,,,,,,,,,,,,,,,,,,,,
,,,,,,,,2023-08-16_08h50.16.876,HF_wild_card,2022.2.4,Win32,60.0240096,63df7cace40d9c9ddda134d8,64d2fd46c836a06233681665,64dc7f8f0f4bab065e53d2ac,,,,,,,decisionTrl,resources/DP.BMP,resources/DB.BMP,WildCard_NonEx,-0.314814815,0.006481481,1,0,0,1.187,optionLeft,45,14185,6,33,0,33,0,1,,,,,,,,,,,,,,,,,,,,,,,,,,,,,,,,,,,,,,,
,,,,,,,,2023-08-16_08h50.16.876,HF_wild_card,2022.2.4,Win32,60.0240096,63df7cace40d9c9ddda134d8,64d2fd46c836a06233681665,64dc7f8f0f4bab065e53d2ac,,,,,,,ctch,resources/DB.BMP,resources/DY.BMP,Door3,0.348148148,0.039814815,1,0,0,0.86,optionRight,70,14255,6,34,0,34,0,1,,,,,,,,,,,,,,,,,,,,,,,,,,,,,,,,,,,,,,,
,,,,,,,,2023-08-16_08h50.16.876,HF_wild_card,2022.2.4,Win32,60.0240096,63df7cace40d9c9ddda134d8,64d2fd46c836a06233681665,64dc7f8f0f4bab065e53d2ac,,,,,,,decisionTrl,resources/DR.BMP,resources/DP.BMP,Door4,-0.310185185,0.07962963,1,0,0,1.306,optionLeft,80,14335,6,35,0,35,0,1,,,,,,,,,,,,,,,,,,,,,,,,,,,,,,,,,,,,,,,
,,,,,,,,2023-08-16_08h50.16.876,HF_wild_card,2022.2.4,Win32,60.0240096,63df7cace40d9c9ddda134d8,64d2fd46c836a06233681665,64dc7f8f0f4bab065e53d2ac,,,,,,,decisionTrl,resources/DB.BMP,resources/DG.BMP,Door1,0.259259259,-0.033333333,1,0,0,1.278,optionRight,30,14365,6,36,0,36,0,1,,,,,,,,,,,,,,,,,,,,,,,,,,,,,,,,,,,,,,,
,,,,,,,,2023-08-16_08h50.16.876,HF_wild_card,2022.2.4,Win32,60.0240096,63df7cace40d9c9ddda134d8,64d2fd46c836a06233681665,64dc7f8f0f4bab065e53d2ac,,,,,,,decisionTrl,resources/DP.BMP,resources/DY.BMP,Door3,0.299074074,0.096296296,1,0,0,1.162,optionRight,70,14435,6,37,0,37,0,1,,,,,,,,,,,,,,,,,,,,,,,,,,,,,,,,,,,,,,,
,,,,,,,,2023-08-16_08h50.16.876,HF_wild_card,2022.2.4,Win32,60.0240096,63df7cace40d9c9ddda134d8,64d2fd46c836a06233681665,64dc7f8f0f4bab065e53d2ac,,,,,,,decisionTrl,resources/DB.BMP,resources/DP.BMP,WildCard_NonEx,0.280555556,0.043518519,1,0,0,0.909,optionRight,55,14490,6,38,0,38,0,1,,,,,,,,,,,,,,,,,,,,,,,,,,,,,,,,,,,,,,,
,,,,,,,,2023-08-16_08h50.16.876,HF_wild_card,2022.2.4,Win32,60.0240096,63df7cace40d9c9ddda134d8,64d2fd46c836a06233681665,64dc7f8f0f4bab065e53d2ac,,,,,,,decisionTrl,resources/DG.BMP,resources/DB.BMP,Door1,-0.378703704,0.002777778,1,0,0,1.429,optionLeft,30,14520,6,39,0,39,0,1,,,,,,,,,,,,,,,,,,,,,,,,,,,,,,,,,,,,,,,
,,,,,,,,2023-08-16_08h50.16.876,HF_wild_card,2022.2.4,Win32,60.0240096,63df7cace40d9c9ddda134d8,64d2fd46c836a06233681665,64dc7f8f0f4bab065e53d2ac,,,,,,,sngl,resources/Empty.png,resources/DB.BMP,Door2,0.239814815,-0.035185185,1,0,0,0.762,optionRight,40,14560,6,40,0,40,0,1,,,,,,,,,,,,,,,,,,,,,,,,,,,,,,,,,,,,,,,
,,,,,,,,2023-08-16_08h50.16.876,HF_wild_card,2022.2.4,Win32,60.0240096,63df7cace40d9c9ddda134d8,64d2fd46c836a06233681665,64dc7f8f0f4bab065e53d2ac,,,,,,,sngl,resources/DB.BMP,resources/Empty.png,Door2,-0.257407407,-0.012037037,1,0,0,0.775,optionLeft,20,14580,6,41,0,41,0,1,,,,,,,,,,,,,,,,,,,,,,,,,,,,,,,,,,,,,,,
,,,,,,,,2023-08-16_08h50.16.876,HF_wild_card,2022.2.4,Win32,60.0240096,63df7cace40d9c9ddda134d8,64d2fd46c836a06233681665,64dc7f8f0f4bab065e53d2ac,,,,,,,decisionTrl,resources/DR.BMP,resources/DY.BMP,Door3,0.462037037,-0.018518519,1,0,0,2.412,optionRight,70,14650,6,42,0,42,0,1,,,,,,,,,,,,,,,,,,,,,,,,,,,,,,,,,,,,,,,
,,,,,,,,2023-08-16_08h50.16.876,HF_wild_card,2022.2.4,Win32,60.0240096,63df7cace40d9c9ddda134d8,64d2fd46c836a06233681665,64dc7f8f0f4bab065e53d2ac,,,,,,,decisionTrl,resources/DG.BMP,resources/DP.BMP,WildCard_NonEx,0.298148148,0.012037037,1,0,0,1.379,optionRight,55,14705,6,43,0,43,0,1,,,,,,,,,,,,,,,,,,,,,,,,,,,,,,,,,,,,,,,
,,,,,,,,2023-08-16_08h50.16.876,HF_wild_card,2022.2.4,Win32,60.0240096,63df7cace40d9c9ddda134d8,64d2fd46c836a06233681665,64dc7f8f0f4bab065e53d2ac,,,,,,,,,,,,,,,,,,,,,,,,,,5,0,5,0,1,,,,,,,,,,,,,,,,,,,,,,,,,,,,,,,,,,
,,,,,,,,2023-08-16_08h50.16.876,HF_wild_card,2022.2.4,Win32,60.0240096,63df7cace40d9c9ddda134d8,64d2fd46c836a06233681665,64dc7f8f0f4bab065e53d2ac,,,,,,,decisionTrl,resources/DB.BMP,resources/DG.BMP,Door1,0.346296296,0.014814815,1,0,0,1.772,optionRight,30,14735,7,0,0,0,0,1,,,,,,,,,,,,,,,,,,,,,,,,,,,,,,,,,,,,,,,
,,,,,,,,2023-08-16_08h50.16.876,HF_wild_card,2022.2.4,Win32,60.0240096,63df7cace40d9c9ddda134d8,64d2fd46c836a06233681665,64dc7f8f0f4bab065e53d2ac,,,,,,,ctch,resources/DB.BMP,resources/DY.BMP,Door3,0.412962963,-0.000925926,1,0,0,1.115,optionRight,70,14805,7,1,0,1,0,1,,,,,,,,,,,,,,,,,,,,,,,,,,,,,,,,,,,,,,,
,,,,,,,,2023-08-16_08h50.16.876,HF_wild_card,2022.2.4,Win32,60.0240096,63df7cace40d9c9ddda134d8,64d2fd46c836a06233681665,64dc7f8f0f4bab065e53d2ac,,,,,,,decisionTrl,resources/DY.BMP,resources/DR.BMP,Door4,0.361111111,0.057407407,1,0,0,2.598,optionRight,80,14885,7,2,0,2,0,1,,,,,,,,,,,,,,,,,,,,,,,,,,,,,,,,,,,,,,,
,,,,,,,,2023-08-16_08h50.16.876,HF_wild_card,2022.2.4,Win32,60.0240096,63df7cace40d9c9ddda134d8,64d2fd46c836a06233681665,64dc7f8f0f4bab065e53d2ac,,,,,,,decisionTrl,resources/DG.BMP,resources/DB.BMP,Door2,0.477777778,0.025925926,1,0,0,1.38,optionRight,20,14905,7,3,0,3,0,1,,,,,,,,,,,,,,,,,,,,,,,,,,,,,,,,,,,,,,,
,,,,,,,,2023-08-16_08h50.16.876,HF_wild_card,2022.2.4,Win32,60.0240096,63df7cace40d9c9ddda134d8,64d2fd46c836a06233681665,64dc7f8f0f4bab065e53d2ac,,,,,,,ctch,resources/DY.BMP,resources/DB.BMP,Door3,-0.259259259,-0.009259259,1,0,0,1.082,optionLeft,70,14975,7,4,0,4,0,1,,,,,,,,,,,,,,,,,,,,,,,,,,,,,,,,,,,,,,,
,,,,,,,,2023-08-16_08h50.16.876,HF_wild_card,2022.2.4,Win32,60.0240096,63df7cace40d9c9ddda134d8,64d2fd46c836a06233681665,64dc7f8f0f4bab065e53d2ac,,,,,,,ctch,resources/DR.BMP,resources/DG.BMP,Door4,-0.260185185,0.008333333,1,0,0,1.193,optionLeft,60,15035,7,5,0,5,0,1,,,,,,,,,,,,,,,,,,,,,,,,,,,,,,,,,,,,,,,
,,,,,,,,2023-08-16_08h50.16.876,HF_wild_card,2022.2.4,Win32,60.0240096,63df7cace40d9c9ddda134d8,64d2fd46c836a06233681665,64dc7f8f0f4bab065e53d2ac,,,,,,,decisionTrl,resources/DG.BMP,resources/DB.BMP,Door2,0.340740741,0.013888889,1,0,0,1.361,optionRight,20,15055,7,6,0,6,0,1,,,,,,,,,,,,,,,,,,,,,,,,,,,,,,,,,,,,,,,
,,,,,,,,2023-08-16_08h50.16.876,HF_wild_card,2022.2.4,Win32,60.0240096,63df7cace40d9c9ddda134d8,64d2fd46c836a06233681665,64dc7f8f0f4bab065e53d2ac,,,,,,,decisionTrl,resources/DY.BMP,resources/DR.BMP,Door4,0.425925926,-0.044444444,1,0,0,2.361,optionRight,60,15115,7,7,0,7,0,1,,,,,,,,,,,,,,,,,,,,,,,,,,,,,,,,,,,,,,,
,,,,,,,,2023-08-16_08h50.16.876,HF_wild_card,2022.2.4,Win32,60.0240096,63df7cace40d9c9ddda134d8,64d2fd46c836a06233681665,64dc7f8f0f4bab065e53d2ac,,,,,,,ctch,resources/DY.BMP,resources/DB.BMP,Door3,-0.236111111,0.021296296,1,0,0,1.009,optionLeft,70,15185,7,8,0,8,0,1,,,,,,,,,,,,,,,,,,,,,,,,,,,,,,,,,,,,,,,
,,,,,,,,2023-08-16_08h50.16.876,HF_wild_card,2022.2.4,Win32,60.0240096,63df7cace40d9c9ddda134d8,64d2fd46c836a06233681665,64dc7f8f0f4bab065e53d2ac,,,,,,,decisionTrl,resources/DB.BMP,resources/DG.BMP,Door1,0.332407407,-0.003703704,1,0,0,2.03,optionRight,30,15215,7,9,0,9,0,1,,,,,,,,,,,,,,,,,,,,,,,,,,,,,,,,,,,,,,,
,,,,,,,,2023-08-16_08h50.16.876,HF_wild_card,2022.2.4,Win32,60.0240096,63df7cace40d9c9ddda134d8,64d2fd46c836a06233681665,64dc7f8f0f4bab065e53d2ac,,,,,,,decisionTrl,resources/DR.BMP,resources/DY.BMP,Door3,0.346296296,-0.025925926,1,0,0,1.931,optionRight,70,15285,7,10,0,10,0,1,,,,,,,,,,,,,,,,,,,,,,,,,,,,,,,,,,,,,,,
,,,,,,,,2023-08-16_08h50.16.876,HF_wild_card,2022.2.4,Win32,60.0240096,63df7cace40d9c9ddda134d8,64d2fd46c836a06233681665,64dc7f8f0f4bab065e53d2ac,,,,,,,decisionTrl,resources/DG.BMP,resources/DB.BMP,Door2,0.335185185,0.047222222,1,0,0,1.729,optionRight,20,15305,7,11,0,11,0,1,,,,,,,,,,,,,,,,,,,,,,,,,,,,,,,,,,,,,,,
,,,,,,,,2023-08-16_08h50.16.876,HF_wild_card,2022.2.4,Win32,60.0240096,63df7cace40d9c9ddda134d8,64d2fd46c836a06233681665,64dc7f8f0f4bab065e53d2ac,,,,,,,decisionTrl,resources/DR.BMP,resources/DY.BMP,Door3,0.396296296,0.014814815,1,0,0,1.182,optionRight,70,15375,7,12,0,12,0,1,,,,,,,,,,,,,,,,,,,,,,,,,,,,,,,,,,,,,,,
,,,,,,,,2023-08-16_08h50.16.876,HF_wild_card,2022.2.4,Win32,60.0240096,63df7cace40d9c9ddda134d8,64d2fd46c836a06233681665,64dc7f8f0f4bab065e53d2ac,,,,,,,ctch,resources/DB.BMP,resources/DY.BMP,Door3,0.391666667,0.012037037,1,0,0,1.031,optionRight,70,15445,7,13,0,13,0,1,,,,,,,,,,,,,,,,,,,,,,,,,,,,,,,,,,,,,,,
,,,,,,,,2023-08-16_08h50.16.876,HF_wild_card,2022.2.4,Win32,60.0240096,63df7cace40d9c9ddda134d8,64d2fd46c836a06233681665,64dc7f8f0f4bab065e53d2ac,,,,,,,decisionTrl,resources/DY.BMP,resources/DR.BMP,Door3,-0.218518519,-0.012962963,1,0,0,2.033,optionLeft,70,15515,7,14,0,14,0,1,,,,,,,,,,,,,,,,,,,,,,,,,,,,,,,,,,,,,,,
,,,,,,,,2023-08-16_08h50.16.876,HF_wild_card,2022.2.4,Win32,60.0240096,63df7cace40d9c9ddda134d8,64d2fd46c836a06233681665,64dc7f8f0f4bab065e53d2ac,,,,,,,decisionTrl,resources/DB.BMP,resources/DG.BMP,Door1,0.424074074,0.036111111,1,0,0,1.815,optionRight,30,15545,7,15,0,15,0,1,,,,,,,,,,,,,,,,,,,,,,,,,,,,,,,,,,,,,,,
,,,,,,,,2023-08-16_08h50.16.876,HF_wild_card,2022.2.4,Win32,60.0240096,63df7cace40d9c9ddda134d8,64d2fd46c836a06233681665,64dc7f8f0f4bab065e53d2ac,,,,,,,ctch,resources/DR.BMP,resources/DG.BMP,Door4,-0.364814815,0.019444444,1,0,0,1.445,optionLeft,60,15605,7,16,0,16,0,1,,,,,,,,,,,,,,,,,,,,,,,,,,,,,,,,,,,,,,,
,,,,,,,,2023-08-16_08h50.16.876,HF_wild_card,2022.2.4,Win32,60.0240096,63df7cace40d9c9ddda134d8,64d2fd46c836a06233681665,64dc7f8f0f4bab065e53d2ac,,,,,,,ctch,resources/DG.BMP,resources/DR.BMP,Door4,0.311111111,0.013888889,1,0,0,0.846,optionRight,80,15685,7,17,0,17,0,1,,,,,,,,,,,,,,,,,,,,,,,,,,,,,,,,,,,,,,,
,,,,,,,,2023-08-16_08h50.16.876,HF_wild_card,2022.2.4,Win32,60.0240096,63df7cace40d9c9ddda134d8,64d2fd46c836a06233681665,64dc7f8f0f4bab065e53d2ac,,,,,,,decisionTrl,resources/DR.BMP,resources/DY.BMP,Door3,0.415740741,0.051851852,1,0,0,1.221,optionRight,70,15755,7,18,0,18,0,1,,,,,,,,,,,,,,,,,,,,,,,,,,,,,,,,,,,,,,,
,,,,,,,,2023-08-16_08h50.16.876,HF_wild_card,2022.2.4,Win32,60.0240096,63df7cace40d9c9ddda134d8,64d2fd46c836a06233681665,64dc7f8f0f4bab065e53d2ac,,,,,,,decisionTrl,resources/DB.BMP,resources/DG.BMP,Door1,0.35462963,0.033333333,1,0,0,1.335,optionRight,30,15785,7,19,0,19,0,1,,,,,,,,,,,,,,,,,,,,,,,,,,,,,,,,,,,,,,,
,,,,,,,,2023-08-16_08h50.16.876,HF_wild_card,2022.2.4,Win32,60.0240096,63df7cace40d9c9ddda134d8,64d2fd46c836a06233681665,64dc7f8f0f4bab065e53d2ac,,,,,,,decisionTrl,resources/DB.BMP,resources/DG.BMP,Door1,0.341666667,0.011111111,1,0,0,0.92,optionRight,30,15815,7,20,0,20,0,1,,,,,,,,,,,,,,,,,,,,,,,,,,,,,,,,,,,,,,,
,,,,,,,,2023-08-16_08h50.16.876,HF_wild_card,2022.2.4,Win32,60.0240096,63df7cace40d9c9ddda134d8,64d2fd46c836a06233681665,64dc7f8f0f4bab065e53d2ac,,,,,,,ctch,resources/DY.BMP,resources/DB.BMP,Door3,-0.239814815,-0.000925926,1,0,0,1.111,optionLeft,70,15885,7,21,0,21,0,1,,,,,,,,,,,,,,,,,,,,,,,,,,,,,,,,,,,,,,,
,,,,,,,,2023-08-16_08h50.16.876,HF_wild_card,2022.2.4,Win32,60.0240096,63df7cace40d9c9ddda134d8,64d2fd46c836a06233681665,64dc7f8f0f4bab065e53d2ac,,,,,,,decisionTrl,resources/DY.BMP,resources/DR.BMP,Door4,0.334259259,0.058333333,1,0,0,1.148,optionRight,80,15965,7,22,0,22,0,1,,,,,,,,,,,,,,,,,,,,,,,,,,,,,,,,,,,,,,,
,,,,,,,,2023-08-16_08h50.16.876,HF_wild_card,2022.2.4,Win32,60.0240096,63df7cace40d9c9ddda134d8,64d2fd46c836a06233681665,64dc7f8f0f4bab065e53d2ac,,,,,,,decisionTrl,resources/DR.BMP,resources/DY.BMP,Door3,0.474074074,0.064814815,1,0,0,1.095,optionRight,70,16035,7,23,0,23,0,1,,,,,,,,,,,,,,,,,,,,,,,,,,,,,,,,,,,,,,,
,,,,,,,,2023-08-16_08h50.16.876,HF_wild_card,2022.2.4,Win32,60.0240096,63df7cace40d9c9ddda134d8,64d2fd46c836a06233681665,64dc7f8f0f4bab065e53d2ac,,,,,,,decisionTrl,resources/DB.BMP,resources/DG.BMP,Door1,0.350925926,0.049074074,1,0,0,1.466,optionRight,30,16065,7,24,0,24,0,1,,,,,,,,,,,,,,,,,,,,,,,,,,,,,,,,,,,,,,,
,,,,,,,,2023-08-16_08h50.16.876,HF_wild_card,2022.2.4,Win32,60.0240096,63df7cace40d9c9ddda134d8,64d2fd46c836a06233681665,64dc7f8f0f4bab065e53d2ac,,,,,,,decisionTrl,resources/DG.BMP,resources/DB.BMP,Door2,0.349074074,-0.012037037,1,0,0,1.675,optionRight,40,16105,7,25,0,25,0,1,,,,,,,,,,,,,,,,,,,,,,,,,,,,,,,,,,,,,,,
,,,,,,,,2023-08-16_08h50.16.876,HF_wild_card,2022.2.4,Win32,60.0240096,63df7cace40d9c9ddda134d8,64d2fd46c836a06233681665,64dc7f8f0f4bab065e53d2ac,,,,,,,decisionTrl,resources/DR.BMP,resources/DY.BMP,Door3,0.376851852,0.084259259,1,0,0,1.08,optionRight,70,16175,7,26,0,26,0,1,,,,,,,,,,,,,,,,,,,,,,,,,,,,,,,,,,,,,,,
,,,,,,,,2023-08-16_08h50.16.876,HF_wild_card,2022.2.4,Win32,60.0240096,63df7cace40d9c9ddda134d8,64d2fd46c836a06233681665,64dc7f8f0f4bab065e53d2ac,,,,,,,ctch,resources/DG.BMP,resources/DR.BMP,Door4,0.362962963,0.07962963,1,0,0,0.978,optionRight,60,16235,7,27,0,27,0,1,,,,,,,,,,,,,,,,,,,,,,,,,,,,,,,,,,,,,,,
,,,,,,,,2023-08-16_08h50.16.876,HF_wild_card,2022.2.4,Win32,60.0240096,63df7cace40d9c9ddda134d8,64d2fd46c836a06233681665,64dc7f8f0f4bab065e53d2ac,,,,,,,decisionTrl,resources/DG.BMP,resources/DB.BMP,Door2,0.330555556,0.032407407,1,0,0,0.946,optionRight,20,16255,7,28,0,28,0,1,,,,,,,,,,,,,,,,,,,,,,,,,,,,,,,,,,,,,,,
,,,,,,,,2023-08-16_08h50.16.876,HF_wild_card,2022.2.4,Win32,60.0240096,63df7cace40d9c9ddda134d8,64d2fd46c836a06233681665,64dc7f8f0f4bab065e53d2ac,,,,,,,ctch,resources/DB.BMP,resources/DY.BMP,Door3,0.399074074,0.067592593,1,0,0,0.927,optionRight,70,16325,7,29,0,29,0,1,,,,,,,,,,,,,,,,,,,,,,,,,,,,,,,,,,,,,,,
,,,,,,,,2023-08-16_08h50.16.876,HF_wild_card,2022.2.4,Win32,60.0240096,63df7cace40d9c9ddda134d8,64d2fd46c836a06233681665,64dc7f8f0f4bab065e53d2ac,,,,,,,ctch,resources/DR.BMP,resources/DG.BMP,Door4,-0.327777778,0.042592593,1,0,0,1.03,optionLeft,80,16405,7,30,0,30,0,1,,,,,,,,,,,,,,,,,,,,,,,,,,,,,,,,,,,,,,,
,,,,,,,,2023-08-16_08h50.16.876,HF_wild_card,2022.2.4,Win32,60.0240096,63df7cace40d9c9ddda134d8,64d2fd46c836a06233681665,64dc7f8f0f4bab065e53d2ac,,,,,,,ctch,resources/DG.BMP,resources/DR.BMP,Door4,0.340740741,0.044444444,1,0,0,0.848,optionRight,60,16465,7,31,0,31,0,1,,,,,,,,,,,,,,,,,,,,,,,,,,,,,,,,,,,,,,,
,,,,,,,,2023-08-16_08h50.16.876,HF_wild_card,2022.2.4,Win32,60.0240096,63df7cace40d9c9ddda134d8,64d2fd46c836a06233681665,64dc7f8f0f4bab065e53d2ac,,,,,,,decisionTrl,resources/DY.BMP,resources/DR.BMP,Door3,-0.2,0.007407407,1,0,0,1.764,optionLeft,70,16535,7,32,0,32,0,1,,,,,,,,,,,,,,,,,,,,,,,,,,,,,,,,,,,,,,,
,,,,,,,,2023-08-16_08h50.16.876,HF_wild_card,2022.2.4,Win32,60.0240096,63df7cace40d9c9ddda134d8,64d2fd46c836a06233681665,64dc7f8f0f4bab065e53d2ac,,,,,,,decisionTrl,resources/DR.BMP,resources/DY.BMP,Door3,0.423148148,0.026851852,1,0,0,0.895,optionRight,70,16605,7,33,0,33,0,1,,,,,,,,,,,,,,,,,,,,,,,,,,,,,,,,,,,,,,,
,,,,,,,,2023-08-16_08h50.16.876,HF_wild_card,2022.2.4,Win32,60.0240096,63df7cace40d9c9ddda134d8,64d2fd46c836a06233681665,64dc7f8f0f4bab065e53d2ac,,,,,,,decisionTrl,resources/DY.BMP,resources/DR.BMP,Door4,0.408333333,0.052777778,1,0,0,1.164,optionRight,80,16685,7,34,0,34,0,1,,,,,,,,,,,,,,,,,,,,,,,,,,,,,,,,,,,,,,,
,,,,,,,,2023-08-16_08h50.16.876,HF_wild_card,2022.2.4,Win32,60.0240096,63df7cace40d9c9ddda134d8,64d2fd46c836a06233681665,64dc7f8f0f4bab065e53d2ac,,,,,,,decisionTrl,resources/DG.BMP,resources/DB.BMP,Door2,0.402777778,0.002777778,1,0,0,0.974,optionRight,40,16725,7,35,0,35,0,1,,,,,,,,,,,,,,,,,,,,,,,,,,,,,,,,,,,,,,,
,,,,,,,,2023-08-16_08h50.16.876,HF_wild_card,2022.2.4,Win32,60.0240096,63df7cace40d9c9ddda134d8,64d2fd46c836a06233681665,64dc7f8f0f4bab065e53d2ac,,,,,,,,,,,,,,,,,,,,,,,,,,6,0,6,0,1,,,,,,,,,,,,,,,,,,,,,,,,,,,,,,,,,,
,,,,,,,,2023-08-16_08h50.16.876,HF_wild_card,2022.2.4,Win32,60.0240096,63df7cace40d9c9ddda134d8,64d2fd46c836a06233681665,64dc7f8f0f4bab065e53d2ac,,,,,,,,,,,,,,,,,,,,,,,,,,,,,,,4,,,,,,,,,,,,,,,,,,,,,,,,,,,,,,,,,
,,,,,,,,2023-08-16_08h50.16.876,HF_wild_card,2022.2.4,Win32,60.0240096,63df7cace40d9c9ddda134d8,64d2fd46c836a06233681665,64dc7f8f0f4bab065e53d2ac,,,,,,,,,,,,,,,,,,,,,,,,,,,,,,,,,,,,,,,,,,,,,,,,,,,,,,,,,,,,,,,,
,,,,,,,,2023-08-16_08h50.16.876,HF_wild_card,2022.2.4,Win32,60.0240096,63df7cace40d9c9ddda134d8,64d2fd46c836a06233681665,64dc7f8f0f4bab065e53d2ac,,,,,,,,,,,,,,,,,,,,,,,,,,,,,,,,55,WC_nonExtreme,resources/DP.BMP,0,0,0,0,1,,,,,,,,,,,,,,,,,,,,,,,,,
,,,,,,,,2023-08-16_08h50.16.876,HF_wild_card,2022.2.4,Win32,60.0240096,63df7cace40d9c9ddda134d8,64d2fd46c836a06233681665,64dc7f8f0f4bab065e53d2ac,,,,,,,,,,,,,,,,,,,,,,,,,,,,,,,,95,WC_extreme,resources/DBN.BMP,1,0,1,0,1,,,,,,,,,,,,,,,,,,,,,,,,,
,,,,,,,,2023-08-16_08h50.16.876,HF_wild_card,2022.2.4,Win32,60.0240096,63df7cace40d9c9ddda134d8,64d2fd46c836a06233681665,64dc7f8f0f4bab065e53d2ac,,,,,,,,,,,,,,,,,,,,,,,,,,,,,,,,70,Door3,resources/DY.BMP,2,0,2,0,1,,,,,,,,,,,,,,,,,,,,,,,,,
,,,,,,,,2023-08-16_08h50.16.876,HF_wild_card,2022.2.4,Win32,60.0240096,63df7cace40d9c9ddda134d8,64d2fd46c836a06233681665,64dc7f8f0f4bab065e53d2ac,,,,,,,,,,,,,,,,,,,,,,,,,,,,,,,,30,Door1,resources/DG.BMP,3,0,3,0,1,,,,,,,,,,,,,,,,,,,,,,,,,
,,,,,,,,2023-08-16_08h50.16.876,HF_wild_card,2022.2.4,Win32,60.0240096,63df7cace40d9c9ddda134d8,64d2fd46c836a06233681665,64dc7f8f0f4bab065e53d2ac,,,,,,,,,,,,,,,,,,,,,,,,,,,,,,,,80,Door4,resources/DR.BMP,4,0,4,0,1,,,,,,,,,,,,,,,,,,,,,,,,,
,,,,,,,,2023-08-16_08h50.16.876,HF_wild_card,2022.2.4,Win32,60.0240096,63df7cace40d9c9ddda134d8,64d2fd46c836a06233681665,64dc7f8f0f4bab065e53d2ac,,,,,,,,,,,,,,,,,,,,,,,,,,,,,,,,40,Door2,resources/DB.BMP,5,0,5,0,1,,,,,,,,,,,,,,,,,,,,,,,,,
,,,,,,,,2023-08-16_08h50.16.876,HF_wild_card,2022.2.4,Win32,60.0240096,63df7cace40d9c9ddda134d8,64d2fd46c836a06233681665,64dc7f8f0f4bab065e53d2ac,,,,,,,,,,,,,,,,,,,,,,,,,,,,,,,,,,,,,,,,,,,,,,,,,,,,,,,,,,,,,,,,
,,,,,,,,2023-08-16_08h50.16.876,HF_wild_card,2022.2.4,Win32,60.0240096,63df7cace40d9c9ddda134d8,64d2fd46c836a06233681665,64dc7f8f0f4bab065e53d2ac,,,,,,,,,,,,,,,,,,,,,,,,,,,,,,,,,,,,,,,,0,0,0,0,1,,,,,,,,,,,,,,,,,,,,
,,,,,,,,2023-08-16_08h50.16.876,HF_wild_card,2022.2.4,Win32,60.0240096,63df7cace40d9c9ddda134d8,64d2fd46c836a06233681665,64dc7f8f0f4bab065e53d2ac,,,,,,,,,,,,,,,,,,,,,,,,,,,,,,,,,,,,,,,,1,0,1,0,1,,,,,,,,,,,,,,,,,,,,
,,,,,,,,2023-08-16_08h50.16.876,HF_wild_card,2022.2.4,Win32,60.0240096,63df7cace40d9c9ddda134d8,64d2fd46c836a06233681665,64dc7f8f0f4bab065e53d2ac,,,,,,,,,,,,,,,,,,,,,,,,,,,,,,,,,,,,,,,,,,,,,-0.253703704,-0.416666667,1,0,0,yes,50%,50%,WC_extreme,resources/DBN.BMP,0,0,0,0,1,,,,,
,,,,,,,,2023-08-16_08h50.16.876,HF_wild_card,2022.2.4,Win32,60.0240096,63df7cace40d9c9ddda134d8,64d2fd46c836a06233681665,64dc7f8f0f4bab065e53d2ac,,,,,,,,,,,,,,,,,,,,,,,,,,,,,,,,,,,,,,,,,,,,,,,,,,,,,,,,,,,,0,0,0,0,1
