Condition,Low fixed image (Door1),Low risky image (Door2),High fixed image (Door3),High risky image (Door4),Extreme Wild Card,NonExtreme Wild Card,,date,expName,psychopyVersion,OS,frameRate,PROLIFIC_PID,STUDY_ID,SESSION_ID,mouse_2.x,mouse_2.y,mouse_2.leftButton,mouse_2.midButton,mouse_2.rightButton,mouse_2.clicked_name,Trial Type,Left Option Image,Right Option Image,Chosen Door,mouse.x,mouse.y,mouse.leftButton,mouse.midButton,mouse.rightButton,mouse.time,mouse.clicked_name,Feedback,Cumulative Reward,Block,trial.thisRepN,trial.thisTrialN,trial.thisN,trial.thisIndex,trial.ran,blocks.thisRepN,blocks.thisTrialN,blocks.thisN,blocks.thisIndex,blocks.ran,Money conversion,First Outcome Reported,Shown Door (First Outcome),Displayed Image (First Outcome),outcomes.thisRepN,outcomes.thisTrialN,outcomes.thisN,outcomes.thisIndex,outcomes.ran,judgments.thisRepN,judgments.thisTrialN,judgments.thisN,judgments.thisIndex,judgments.ran,freqMouse.x,freqMouse.y,freqMouse.leftButton,freqMouse.midButton,freqMouse.rightButton,freqMouse.clicked_name,FQJ for first outcome,FQJ for second outcome,Shown Door,Displayed Image,trials.thisRepN,trials.thisTrialN,trials.thisN,trials.thisIndex,trials.ran,judgBlock.thisRepN,judgBlock.thisTrialN,judgBlock.thisN,judgBlock.thisIndex,judgBlock.ran
0,resources/DP.BMP,resources/DG.BMP,resources/DY.BMP,resources/DBN.BMP,resources/DB.BMP,resources/DR.BMP,,2023-08-16_10h45.21.464,HF_wild_card,2022.2.4,Win32,60.0276127,629f2dccc6e91be06559e2f1,64d2fd46c836a06233681665,64dc9aa432694dcd162eb111,,,,,,,,,,,,,,,,,,,,,,,,,,,,,,,,,,,,,,,,,,,,,,,,,,,,,,,,,,,,,,,,
,,,,,,,,2023-08-16_10h45.21.464,HF_wild_card,2022.2.4,Win32,60.0276127,629f2dccc6e91be06559e2f1,64d2fd46c836a06233681665,64dc9aa432694dcd162eb111,0.016666695,-0.418518561,1,0,0,agree,,,,,,,,,,,,,,,,,,,,,,,,,,,,,,,,,,,,,,,,,,,,,,,,,,,,,,,,,,
,,,,,,,,2023-08-16_10h45.21.464,HF_wild_card,2022.2.4,Win32,60.0276127,629f2dccc6e91be06559e2f1,64d2fd46c836a06233681665,64dc9aa432694dcd162eb111,,,,,,,,,,,,,,,,,,,,,,,,,,,,,,,,,,,,,,,,,,,,,,,,,,,,,,,,,,,,,,,,
,,,,,,,,2023-08-16_10h45.21.464,HF_wild_card,2022.2.4,Win32,60.0276127,629f2dccc6e91be06559e2f1,64d2fd46c836a06233681665,64dc9aa432694dcd162eb111,,,,,,,decisionTrl,resources/DY.BMP,resources/DBN.BMP,Door4,0.194444444,-0.083333333,1,0,0,1.4589,optionRight,60,60,1,0,0,0,0,1,,,,,,,,,,,,,,,,,,,,,,,,,,,,,,,,,,,,,,,
,,,,,,,,2023-08-16_10h45.21.464,HF_wild_card,2022.2.4,Win32,60.0276127,629f2dccc6e91be06559e2f1,64d2fd46c836a06233681665,64dc9aa432694dcd162eb111,,,,,,,ctch,resources/DP.BMP,resources/DBN.BMP,Door1,-0.212962963,-0.025000007,1,0,0,0.8636,optionLeft,30,90,1,1,0,1,0,1,,,,,,,,,,,,,,,,,,,,,,,,,,,,,,,,,,,,,,,
,,,,,,,,2023-08-16_10h45.21.464,HF_wild_card,2022.2.4,Win32,60.0276127,629f2dccc6e91be06559e2f1,64d2fd46c836a06233681665,64dc9aa432694dcd162eb111,,,,,,,decisionTrl,resources/DB.BMP,resources/DP.BMP,WildCard_Ex,-0.290740755,-0.037037037,1,0,0,0.8981,optionLeft,95,185,1,2,0,2,0,1,,,,,,,,,,,,,,,,,,,,,,,,,,,,,,,,,,,,,,,
,,,,,,,,2023-08-16_10h45.21.464,HF_wild_card,2022.2.4,Win32,60.0276127,629f2dccc6e91be06559e2f1,64d2fd46c836a06233681665,64dc9aa432694dcd162eb111,,,,,,,decisionTrl,resources/DBN.BMP,resources/DY.BMP,Door3,0.235185199,0.023148148,1,0,0,0.9973,optionRight,70,255,1,3,0,3,0,1,,,,,,,,,,,,,,,,,,,,,,,,,,,,,,,,,,,,,,,
,,,,,,,,2023-08-16_10h45.21.464,HF_wild_card,2022.2.4,Win32,60.0276127,629f2dccc6e91be06559e2f1,64d2fd46c836a06233681665,64dc9aa432694dcd162eb111,,,,,,,ctch,resources/DBN.BMP,resources/DP.BMP,Door4,-0.372222229,0.039814808,1,0,0,1.0143,optionLeft,60,315,1,4,0,4,0,1,,,,,,,,,,,,,,,,,,,,,,,,,,,,,,,,,,,,,,,
,,,,,,,,2023-08-16_10h45.21.464,HF_wild_card,2022.2.4,Win32,60.0276127,629f2dccc6e91be06559e2f1,64d2fd46c836a06233681665,64dc9aa432694dcd162eb111,,,,,,,decisionTrl,resources/DG.BMP,resources/DP.BMP,Door2,-0.376851859,-0.037962984,1,0,0,0.747,optionLeft,40,355,1,5,0,5,0,1,,,,,,,,,,,,,,,,,,,,,,,,,,,,,,,,,,,,,,,
,,,,,,,,2023-08-16_10h45.21.464,HF_wild_card,2022.2.4,Win32,60.0276127,629f2dccc6e91be06559e2f1,64d2fd46c836a06233681665,64dc9aa432694dcd162eb111,,,,,,,decisionTrl,resources/DG.BMP,resources/DP.BMP,Door1,0.377777806,-0.019444466,1,0,0,0.5481,optionRight,30,385,1,6,0,6,0,1,,,,,,,,,,,,,,,,,,,,,,,,,,,,,,,,,,,,,,,
,,,,,,,,2023-08-16_10h45.21.464,HF_wild_card,2022.2.4,Win32,60.0276127,629f2dccc6e91be06559e2f1,64d2fd46c836a06233681665,64dc9aa432694dcd162eb111,,,,,,,sngl,resources/Empty.png,resources/DY.BMP,Door3,0.233333376,-0.025000007,1,0,0,0.9479,optionRight,70,455,1,7,0,7,0,1,,,,,,,,,,,,,,,,,,,,,,,,,,,,,,,,,,,,,,,
,,,,,,,,2023-08-16_10h45.21.464,HF_wild_card,2022.2.4,Win32,60.0276127,629f2dccc6e91be06559e2f1,64d2fd46c836a06233681665,64dc9aa432694dcd162eb111,,,,,,,decisionTrl,resources/DP.BMP,resources/DG.BMP,Door2,0.396296325,0.005555541,1,0,0,0.9801,optionRight,20,475,1,8,0,8,0,1,,,,,,,,,,,,,,,,,,,,,,,,,,,,,,,,,,,,,,,
,,,,,,,,2023-08-16_10h45.21.464,HF_wild_card,2022.2.4,Win32,60.0276127,629f2dccc6e91be06559e2f1,64d2fd46c836a06233681665,64dc9aa432694dcd162eb111,,,,,,,sngl,resources/DP.BMP,resources/Empty.png,Door1,-0.208333333,-0.024074095,1,0,0,0.5653,optionLeft,30,505,1,9,0,9,0,1,,,,,,,,,,,,,,,,,,,,,,,,,,,,,,,,,,,,,,,
,,,,,,,,2023-08-16_10h45.21.464,HF_wild_card,2022.2.4,Win32,60.0276127,629f2dccc6e91be06559e2f1,64d2fd46c836a06233681665,64dc9aa432694dcd162eb111,,,,,,,decisionTrl,resources/DBN.BMP,resources/DB.BMP,Door4,-0.303703697,-0.028703725,1,0,0,1.5979,optionLeft,80,585,1,10,0,10,0,1,,,,,,,,,,,,,,,,,,,,,,,,,,,,,,,,,,,,,,,
,,,,,,,,2023-08-16_10h45.21.464,HF_wild_card,2022.2.4,Win32,60.0276127,629f2dccc6e91be06559e2f1,64d2fd46c836a06233681665,64dc9aa432694dcd162eb111,,,,,,,decisionTrl,resources/DB.BMP,resources/DBN.BMP,WildCard_Ex,-0.181481467,0.002777771,1,0,0,0.8147,optionLeft,95,680,1,11,0,11,0,1,,,,,,,,,,,,,,,,,,,,,,,,,,,,,,,,,,,,,,,
,,,,,,,,2023-08-16_10h45.21.464,HF_wild_card,2022.2.4,Win32,60.0276127,629f2dccc6e91be06559e2f1,64d2fd46c836a06233681665,64dc9aa432694dcd162eb111,,,,,,,decisionTrl,resources/DB.BMP,resources/DY.BMP,WildCard_Ex,-0.187962921,-0.050000014,1,0,0,0.7817,optionLeft,5,685,1,12,0,12,0,1,,,,,,,,,,,,,,,,,,,,,,,,,,,,,,,,,,,,,,,
,,,,,,,,2023-08-16_10h45.21.464,HF_wild_card,2022.2.4,Win32,60.0276127,629f2dccc6e91be06559e2f1,64d2fd46c836a06233681665,64dc9aa432694dcd162eb111,,,,,,,decisionTrl,resources/DG.BMP,resources/DP.BMP,Door1,0.340740769,0.045370349,1,0,0,0.6478,optionRight,30,715,1,13,0,13,0,1,,,,,,,,,,,,,,,,,,,,,,,,,,,,,,,,,,,,,,,
,,,,,,,,2023-08-16_10h45.21.464,HF_wild_card,2022.2.4,Win32,60.0276127,629f2dccc6e91be06559e2f1,64d2fd46c836a06233681665,64dc9aa432694dcd162eb111,,,,,,,decisionTrl,resources/DBN.BMP,resources/DY.BMP,Door4,-0.222222222,0.03148146,1,0,0,0.8488,optionLeft,60,775,1,14,0,14,0,1,,,,,,,,,,,,,,,,,,,,,,,,,,,,,,,,,,,,,,,
,,,,,,,,2023-08-16_10h45.21.464,HF_wild_card,2022.2.4,Win32,60.0276127,629f2dccc6e91be06559e2f1,64d2fd46c836a06233681665,64dc9aa432694dcd162eb111,,,,,,,ctch,resources/DY.BMP,resources/DG.BMP,Door3,-0.315740727,0.021296289,1,0,0,0.5313,optionLeft,70,845,1,15,0,15,0,1,,,,,,,,,,,,,,,,,,,,,,,,,,,,,,,,,,,,,,,
,,,,,,,,2023-08-16_10h45.21.464,HF_wild_card,2022.2.4,Win32,60.0276127,629f2dccc6e91be06559e2f1,64d2fd46c836a06233681665,64dc9aa432694dcd162eb111,,,,,,,decisionTrl,resources/DBN.BMP,resources/DY.BMP,Door4,-0.215740698,-0.01666666,1,0,0,0.5814,optionLeft,60,905,1,16,0,16,0,1,,,,,,,,,,,,,,,,,,,,,,,,,,,,,,,,,,,,,,,
,,,,,,,,2023-08-16_10h45.21.464,HF_wild_card,2022.2.4,Win32,60.0276127,629f2dccc6e91be06559e2f1,64d2fd46c836a06233681665,64dc9aa432694dcd162eb111,,,,,,,ctch,resources/DG.BMP,resources/DY.BMP,Door3,0.264814801,-0.00462963,1,0,0,0.4644,optionRight,70,975,1,17,0,17,0,1,,,,,,,,,,,,,,,,,,,,,,,,,,,,,,,,,,,,,,,
,,,,,,,,2023-08-16_10h45.21.464,HF_wild_card,2022.2.4,Win32,60.0276127,629f2dccc6e91be06559e2f1,64d2fd46c836a06233681665,64dc9aa432694dcd162eb111,,,,,,,ctch,resources/DY.BMP,resources/DG.BMP,Door2,0.188888903,-0.018518519,1,0,0,0.5472,optionRight,20,995,1,18,0,18,0,1,,,,,,,,,,,,,,,,,,,,,,,,,,,,,,,,,,,,,,,
,,,,,,,,2023-08-16_10h45.21.464,HF_wild_card,2022.2.4,Win32,60.0276127,629f2dccc6e91be06559e2f1,64d2fd46c836a06233681665,64dc9aa432694dcd162eb111,,,,,,,sngl,resources/Empty.png,resources/DB.BMP,WildCard_Ex,0.211111139,0.000925912,1,0,0,0.5975,optionRight,95,1090,1,19,0,19,0,1,,,,,,,,,,,,,,,,,,,,,,,,,,,,,,,,,,,,,,,
,,,,,,,,2023-08-16_10h45.21.464,HF_wild_card,2022.2.4,Win32,60.0276127,629f2dccc6e91be06559e2f1,64d2fd46c836a06233681665,64dc9aa432694dcd162eb111,,,,,,,decisionTrl,resources/DB.BMP,resources/DG.BMP,WildCard_Ex,-0.182407379,0,1,0,0,0.4815,optionLeft,95,1185,1,20,0,20,0,1,,,,,,,,,,,,,,,,,,,,,,,,,,,,,,,,,,,,,,,
,,,,,,,,2023-08-16_10h45.21.464,HF_wild_card,2022.2.4,Win32,60.0276127,629f2dccc6e91be06559e2f1,64d2fd46c836a06233681665,64dc9aa432694dcd162eb111,,,,,,,decisionTrl,resources/DY.BMP,resources/DBN.BMP,Door4,0.252777806,-0.001851859,1,0,0,0.5809,optionRight,60,1245,1,21,0,21,0,1,,,,,,,,,,,,,,,,,,,,,,,,,,,,,,,,,,,,,,,
,,,,,,,,2023-08-16_10h45.21.464,HF_wild_card,2022.2.4,Win32,60.0276127,629f2dccc6e91be06559e2f1,64d2fd46c836a06233681665,64dc9aa432694dcd162eb111,,,,,,,sngl,resources/DG.BMP,resources/Empty.png,Door2,-0.187037009,-0.056481503,1,0,0,0.5139,optionLeft,40,1285,1,22,0,22,0,1,,,,,,,,,,,,,,,,,,,,,,,,,,,,,,,,,,,,,,,
,,,,,,,,2023-08-16_10h45.21.464,HF_wild_card,2022.2.4,Win32,60.0276127,629f2dccc6e91be06559e2f1,64d2fd46c836a06233681665,64dc9aa432694dcd162eb111,,,,,,,sngl,resources/DBN.BMP,resources/Empty.png,Door4,0.143518519,-0.017592607,1,0,0,0.6312,optionLeft,80,1365,1,23,0,23,0,1,,,,,,,,,,,,,,,,,,,,,,,,,,,,,,,,,,,,,,,
,,,,,,,,2023-08-16_10h45.21.464,HF_wild_card,2022.2.4,Win32,60.0276127,629f2dccc6e91be06559e2f1,64d2fd46c836a06233681665,64dc9aa432694dcd162eb111,,,,,,,sngl,resources/Empty.png,resources/DB.BMP,WildCard_Ex,0.186111097,-0.023148148,1,0,0,0.6811,optionRight,5,1370,1,24,0,24,0,1,,,,,,,,,,,,,,,,,,,,,,,,,,,,,,,,,,,,,,,
,,,,,,,,2023-08-16_10h45.21.464,HF_wild_card,2022.2.4,Win32,60.0276127,629f2dccc6e91be06559e2f1,64d2fd46c836a06233681665,64dc9aa432694dcd162eb111,,,,,,,decisionTrl,resources/DG.BMP,resources/DP.BMP,Door2,-0.218518504,-0.037037037,1,0,0,0.5482,optionLeft,40,1410,1,25,0,25,0,1,,,,,,,,,,,,,,,,,,,,,,,,,,,,,,,,,,,,,,,
,,,,,,,,2023-08-16_10h45.21.464,HF_wild_card,2022.2.4,Win32,60.0276127,629f2dccc6e91be06559e2f1,64d2fd46c836a06233681665,64dc9aa432694dcd162eb111,,,,,,,decisionTrl,resources/DP.BMP,resources/DG.BMP,Door1,-0.277777778,-0.023148148,1,0,0,0.5987,optionLeft,30,1440,1,26,0,26,0,1,,,,,,,,,,,,,,,,,,,,,,,,,,,,,,,,,,,,,,,
,,,,,,,,2023-08-16_10h45.21.464,HF_wild_card,2022.2.4,Win32,60.0276127,629f2dccc6e91be06559e2f1,64d2fd46c836a06233681665,64dc9aa432694dcd162eb111,,,,,,,decisionTrl,resources/DY.BMP,resources/DB.BMP,WildCard_Ex,0.214814857,0.002777771,1,0,0,0.7974,optionRight,95,1535,1,27,0,27,0,1,,,,,,,,,,,,,,,,,,,,,,,,,,,,,,,,,,,,,,,
,,,,,,,,2023-08-16_10h45.21.464,HF_wild_card,2022.2.4,Win32,60.0276127,629f2dccc6e91be06559e2f1,64d2fd46c836a06233681665,64dc9aa432694dcd162eb111,,,,,,,sngl,resources/Empty.png,resources/DP.BMP,Door1,0.195370356,0.02407406,1,0,0,0.5251,optionRight,30,1565,1,28,0,28,0,1,,,,,,,,,,,,,,,,,,,,,,,,,,,,,,,,,,,,,,,
,,,,,,,,2023-08-16_10h45.21.464,HF_wild_card,2022.2.4,Win32,60.0276127,629f2dccc6e91be06559e2f1,64d2fd46c836a06233681665,64dc9aa432694dcd162eb111,,,,,,,decisionTrl,resources/DY.BMP,resources/DBN.BMP,Door3,-0.255555541,0.013888889,1,0,0,0.4308,optionLeft,70,1635,1,29,0,29,0,1,,,,,,,,,,,,,,,,,,,,,,,,,,,,,,,,,,,,,,,
,,,,,,,,2023-08-16_10h45.21.464,HF_wild_card,2022.2.4,Win32,60.0276127,629f2dccc6e91be06559e2f1,64d2fd46c836a06233681665,64dc9aa432694dcd162eb111,,,,,,,sngl,resources/DY.BMP,resources/Empty.png,Door3,-0.25462963,0.020370377,1,0,0,0.7645,optionLeft,70,1705,1,30,0,30,0,1,,,,,,,,,,,,,,,,,,,,,,,,,,,,,,,,,,,,,,,
,,,,,,,,2023-08-16_10h45.21.464,HF_wild_card,2022.2.4,Win32,60.0276127,629f2dccc6e91be06559e2f1,64d2fd46c836a06233681665,64dc9aa432694dcd162eb111,,,,,,,sngl,resources/Empty.png,resources/DBN.BMP,Door4,0.256481524,-0.037962984,1,0,0,0.5487,optionRight,60,1765,1,31,0,31,0,1,,,,,,,,,,,,,,,,,,,,,,,,,,,,,,,,,,,,,,,
,,,,,,,,2023-08-16_10h45.21.464,HF_wild_card,2022.2.4,Win32,60.0276127,629f2dccc6e91be06559e2f1,64d2fd46c836a06233681665,64dc9aa432694dcd162eb111,,,,,,,ctch,resources/DP.BMP,resources/DBN.BMP,Door1,-0.220370328,-0.01203703,1,0,0,0.6141,optionLeft,30,1795,1,32,0,32,0,1,,,,,,,,,,,,,,,,,,,,,,,,,,,,,,,,,,,,,,,
,,,,,,,,2023-08-16_10h45.21.464,HF_wild_card,2022.2.4,Win32,60.0276127,629f2dccc6e91be06559e2f1,64d2fd46c836a06233681665,64dc9aa432694dcd162eb111,,,,,,,ctch,resources/DG.BMP,resources/DY.BMP,Door3,0.200925968,-0.025925919,1,0,0,0.5482,optionRight,70,1865,1,33,0,33,0,1,,,,,,,,,,,,,,,,,,,,,,,,,,,,,,,,,,,,,,,
,,,,,,,,2023-08-16_10h45.21.464,HF_wild_card,2022.2.4,Win32,60.0276127,629f2dccc6e91be06559e2f1,64d2fd46c836a06233681665,64dc9aa432694dcd162eb111,,,,,,,sngl,resources/DB.BMP,resources/Empty.png,WildCard_Ex,-0.204629616,0.008333312,1,0,0,0.4645,optionLeft,5,1870,1,34,0,34,0,1,,,,,,,,,,,,,,,,,,,,,,,,,,,,,,,,,,,,,,,
,,,,,,,,2023-08-16_10h45.21.464,HF_wild_card,2022.2.4,Win32,60.0276127,629f2dccc6e91be06559e2f1,64d2fd46c836a06233681665,64dc9aa432694dcd162eb111,,,,,,,decisionTrl,resources/DP.BMP,resources/DG.BMP,Door2,0.196296339,-0.01666666,1,0,0,0.6145,optionRight,20,1890,1,35,0,35,0,1,,,,,,,,,,,,,,,,,,,,,,,,,,,,,,,,,,,,,,,
,,,,,,,,2023-08-16_10h45.21.464,HF_wild_card,2022.2.4,Win32,60.0276127,629f2dccc6e91be06559e2f1,64d2fd46c836a06233681665,64dc9aa432694dcd162eb111,,,,,,,decisionTrl,resources/DG.BMP,resources/DB.BMP,WildCard_Ex,0.23055557,-0.026851866,1,0,0,0.5641,optionRight,5,1895,1,36,0,36,0,1,,,,,,,,,,,,,,,,,,,,,,,,,,,,,,,,,,,,,,,
,,,,,,,,2023-08-16_10h45.21.464,HF_wild_card,2022.2.4,Win32,60.0276127,629f2dccc6e91be06559e2f1,64d2fd46c836a06233681665,64dc9aa432694dcd162eb111,,,,,,,decisionTrl,resources/DP.BMP,resources/DB.BMP,Door1,-0.342592593,0.009259259,1,0,0,0.7309,optionLeft,30,1925,1,37,0,37,0,1,,,,,,,,,,,,,,,,,,,,,,,,,,,,,,,,,,,,,,,
,,,,,,,,2023-08-16_10h45.21.464,HF_wild_card,2022.2.4,Win32,60.0276127,629f2dccc6e91be06559e2f1,64d2fd46c836a06233681665,64dc9aa432694dcd162eb111,,,,,,,decisionTrl,resources/DY.BMP,resources/DBN.BMP,Door4,0.372222194,-0.01666666,1,0,0,0.8646,optionRight,60,1985,1,38,0,38,0,1,,,,,,,,,,,,,,,,,,,,,,,,,,,,,,,,,,,,,,,
,,,,,,,,2023-08-16_10h45.21.464,HF_wild_card,2022.2.4,Win32,60.0276127,629f2dccc6e91be06559e2f1,64d2fd46c836a06233681665,64dc9aa432694dcd162eb111,,,,,,,sngl,resources/Empty.png,resources/DG.BMP,Door2,0.154629672,0.037962949,1,0,0,0.5986,optionRight,20,2005,1,39,0,39,0,1,,,,,,,,,,,,,,,,,,,,,,,,,,,,,,,,,,,,,,,
,,,,,,,,2023-08-16_10h45.21.464,HF_wild_card,2022.2.4,Win32,60.0276127,629f2dccc6e91be06559e2f1,64d2fd46c836a06233681665,64dc9aa432694dcd162eb111,,,,,,,sngl,resources/DB.BMP,resources/Empty.png,WildCard_Ex,-0.19722218,0.01666666,1,0,0,0.5149,optionLeft,95,2100,1,40,0,40,0,1,,,,,,,,,,,,,,,,,,,,,,,,,,,,,,,,,,,,,,,
,,,,,,,,2023-08-16_10h45.21.464,HF_wild_card,2022.2.4,Win32,60.0276127,629f2dccc6e91be06559e2f1,64d2fd46c836a06233681665,64dc9aa432694dcd162eb111,,,,,,,decisionTrl,resources/DP.BMP,resources/DG.BMP,Door1,-0.157407407,-0.009259259,1,0,0,0.5554,optionLeft,30,2130,1,41,0,41,0,1,,,,,,,,,,,,,,,,,,,,,,,,,,,,,,,,,,,,,,,
,,,,,,,,2023-08-16_10h45.21.464,HF_wild_card,2022.2.4,Win32,60.0276127,629f2dccc6e91be06559e2f1,64d2fd46c836a06233681665,64dc9aa432694dcd162eb111,,,,,,,ctch,resources/DBN.BMP,resources/DP.BMP,Door1,0.215740769,-0.038888896,1,0,0,0.5313,optionRight,30,2160,1,42,0,42,0,1,,,,,,,,,,,,,,,,,,,,,,,,,,,,,,,,,,,,,,,
,,,,,,,,2023-08-16_10h45.21.464,HF_wild_card,2022.2.4,Win32,60.0276127,629f2dccc6e91be06559e2f1,64d2fd46c836a06233681665,64dc9aa432694dcd162eb111,,,,,,,decisionTrl,resources/DBN.BMP,resources/DY.BMP,Door4,-0.19722218,-0.001851859,1,0,0,0.4314,optionLeft,60,2220,1,43,0,43,0,1,,,,,,,,,,,,,,,,,,,,,,,,,,,,,,,,,,,,,,,
,,,,,,,,2023-08-16_10h45.21.464,HF_wild_card,2022.2.4,Win32,60.0276127,629f2dccc6e91be06559e2f1,64d2fd46c836a06233681665,64dc9aa432694dcd162eb111,,,,,,,,,,,,,,,,,,,,,,,,,,0,0,0,0,1,,,,,,,,,,,,,,,,,,,,,,,,,,,,,,,,,,
,,,,,,,,2023-08-16_10h45.21.464,HF_wild_card,2022.2.4,Win32,60.0276127,629f2dccc6e91be06559e2f1,64d2fd46c836a06233681665,64dc9aa432694dcd162eb111,,,,,,,decisionTrl,resources/DY.BMP,resources/DBN.BMP,Door4,0.35555564,-0.065740762,1,0,0,0.9392,optionRight,80,2300,2,0,0,0,0,1,,,,,,,,,,,,,,,,,,,,,,,,,,,,,,,,,,,,,,,
,,,,,,,,2023-08-16_10h45.21.464,HF_wild_card,2022.2.4,Win32,60.0276127,629f2dccc6e91be06559e2f1,64d2fd46c836a06233681665,64dc9aa432694dcd162eb111,,,,,,,sngl,resources/Empty.png,resources/DB.BMP,WildCard_Ex,0.243518547,0.010185171,1,0,0,0.5051,optionRight,95,2395,2,1,0,1,0,1,,,,,,,,,,,,,,,,,,,,,,,,,,,,,,,,,,,,,,,
,,,,,,,,2023-08-16_10h45.21.464,HF_wild_card,2022.2.4,Win32,60.0276127,629f2dccc6e91be06559e2f1,64d2fd46c836a06233681665,64dc9aa432694dcd162eb111,,,,,,,ctch,resources/DG.BMP,resources/DY.BMP,Door2,-0.291666667,-0.017592607,1,0,0,0.7725,optionLeft,20,2415,2,2,0,2,0,1,,,,,,,,,,,,,,,,,,,,,,,,,,,,,,,,,,,,,,,
,,,,,,,,2023-08-16_10h45.21.464,HF_wild_card,2022.2.4,Win32,60.0276127,629f2dccc6e91be06559e2f1,64d2fd46c836a06233681665,64dc9aa432694dcd162eb111,,,,,,,decisionTrl,resources/DB.BMP,resources/DP.BMP,Door1,0.167592578,-0.014814836,1,0,0,0.7971,optionRight,30,2445,2,3,0,3,0,1,,,,,,,,,,,,,,,,,,,,,,,,,,,,,,,,,,,,,,,
,,,,,,,,2023-08-16_10h45.21.464,HF_wild_card,2022.2.4,Win32,60.0276127,629f2dccc6e91be06559e2f1,64d2fd46c836a06233681665,64dc9aa432694dcd162eb111,,,,,,,decisionTrl,resources/DG.BMP,resources/DP.BMP,Door1,0.159259302,-0.017592607,1,0,0,0.5905,optionRight,30,2475,2,4,0,4,0,1,,,,,,,,,,,,,,,,,,,,,,,,,,,,,,,,,,,,,,,
,,,,,,,,2023-08-16_10h45.21.464,HF_wild_card,2022.2.4,Win32,60.0276127,629f2dccc6e91be06559e2f1,64d2fd46c836a06233681665,64dc9aa432694dcd162eb111,,,,,,,decisionTrl,resources/DP.BMP,resources/DG.BMP,Door2,0.174074102,-0.015740748,1,0,0,0.7319,optionRight,40,2515,2,5,0,5,0,1,,,,,,,,,,,,,,,,,,,,,,,,,,,,,,,,,,,,,,,
,,,,,,,,2023-08-16_10h45.21.464,HF_wild_card,2022.2.4,Win32,60.0276127,629f2dccc6e91be06559e2f1,64d2fd46c836a06233681665,64dc9aa432694dcd162eb111,,,,,,,ctch,resources/DY.BMP,resources/DG.BMP,Door2,0.151851866,-0.017592607,1,0,0,0.4644,optionRight,40,2555,2,6,0,6,0,1,,,,,,,,,,,,,,,,,,,,,,,,,,,,,,,,,,,,,,,
,,,,,,,,2023-08-16_10h45.21.464,HF_wild_card,2022.2.4,Win32,60.0276127,629f2dccc6e91be06559e2f1,64d2fd46c836a06233681665,64dc9aa432694dcd162eb111,,,,,,,sngl,resources/Empty.png,resources/DP.BMP,Door1,0.190740727,-0.010185206,1,0,0,0.5311,optionRight,30,2585,2,7,0,7,0,1,,,,,,,,,,,,,,,,,,,,,,,,,,,,,,,,,,,,,,,
,,,,,,,,2023-08-16_10h45.21.464,HF_wild_card,2022.2.4,Win32,60.0276127,629f2dccc6e91be06559e2f1,64d2fd46c836a06233681665,64dc9aa432694dcd162eb111,,,,,,,sngl,resources/Empty.png,resources/DB.BMP,WildCard_Ex,0.212962963,-0.019444466,1,0,0,0.6982,optionRight,5,2590,2,8,0,8,0,1,,,,,,,,,,,,,,,,,,,,,,,,,,,,,,,,,,,,,,,
,,,,,,,,2023-08-16_10h45.21.464,HF_wild_card,2022.2.4,Win32,60.0276127,629f2dccc6e91be06559e2f1,64d2fd46c836a06233681665,64dc9aa432694dcd162eb111,,,,,,,sngl,resources/DY.BMP,resources/Empty.png,Door3,-0.213888875,0.00462963,1,0,0,0.5636,optionLeft,70,2660,2,9,0,9,0,1,,,,,,,,,,,,,,,,,,,,,,,,,,,,,,,,,,,,,,,
,,,,,,,,2023-08-16_10h45.21.464,HF_wild_card,2022.2.4,Win32,60.0276127,629f2dccc6e91be06559e2f1,64d2fd46c836a06233681665,64dc9aa432694dcd162eb111,,,,,,,decisionTrl,resources/DBN.BMP,resources/DB.BMP,WildCard_Ex,0.248148176,-0.026851866,1,0,0,0.6644,optionRight,95,2755,2,10,0,10,0,1,,,,,,,,,,,,,,,,,,,,,,,,,,,,,,,,,,,,,,,
,,,,,,,,2023-08-16_10h45.21.464,HF_wild_card,2022.2.4,Win32,60.0276127,629f2dccc6e91be06559e2f1,64d2fd46c836a06233681665,64dc9aa432694dcd162eb111,,,,,,,decisionTrl,resources/DY.BMP,resources/DB.BMP,Door3,-0.150925884,-0.00462963,1,0,0,0.6055,optionLeft,70,2825,2,11,0,11,0,1,,,,,,,,,,,,,,,,,,,,,,,,,,,,,,,,,,,,,,,
,,,,,,,,2023-08-16_10h45.21.464,HF_wild_card,2022.2.4,Win32,60.0276127,629f2dccc6e91be06559e2f1,64d2fd46c836a06233681665,64dc9aa432694dcd162eb111,,,,,,,decisionTrl,resources/DBN.BMP,resources/DY.BMP,Door3,0.22592594,-0.024074095,1,0,0,0.5978,optionRight,70,2895,2,12,0,12,0,1,,,,,,,,,,,,,,,,,,,,,,,,,,,,,,,,,,,,,,,
,,,,,,,,2023-08-16_10h45.21.464,HF_wild_card,2022.2.4,Win32,60.0276127,629f2dccc6e91be06559e2f1,64d2fd46c836a06233681665,64dc9aa432694dcd162eb111,,,,,,,decisionTrl,resources/DP.BMP,resources/DB.BMP,Door1,-0.310185185,0.006481489,1,0,0,1.4719,optionLeft,30,2925,2,13,0,13,0,1,,,,,,,,,,,,,,,,,,,,,,,,,,,,,,,,,,,,,,,
,,,,,,,,2023-08-16_10h45.21.464,HF_wild_card,2022.2.4,Win32,60.0276127,629f2dccc6e91be06559e2f1,64d2fd46c836a06233681665,64dc9aa432694dcd162eb111,,,,,,,decisionTrl,resources/DY.BMP,resources/DBN.BMP,Door4,0.210185228,0.003703683,1,0,0,0.6242,optionRight,60,2985,2,14,0,14,0,1,,,,,,,,,,,,,,,,,,,,,,,,,,,,,,,,,,,,,,,
,,,,,,,,2023-08-16_10h45.21.464,HF_wild_card,2022.2.4,Win32,60.0276127,629f2dccc6e91be06559e2f1,64d2fd46c836a06233681665,64dc9aa432694dcd162eb111,,,,,,,decisionTrl,resources/DG.BMP,resources/DB.BMP,WildCard_Ex,0.313888974,0.025000007,1,0,0,1.0644,optionRight,95,3080,2,15,0,15,0,1,,,,,,,,,,,,,,,,,,,,,,,,,,,,,,,,,,,,,,,
,,,,,,,,2023-08-16_10h45.21.464,HF_wild_card,2022.2.4,Win32,60.0276127,629f2dccc6e91be06559e2f1,64d2fd46c836a06233681665,64dc9aa432694dcd162eb111,,,,,,,sngl,resources/DBN.BMP,resources/Empty.png,Door4,-0.199074074,0.001851859,1,0,0,0.5568,optionLeft,60,3140,2,16,0,16,0,1,,,,,,,,,,,,,,,,,,,,,,,,,,,,,,,,,,,,,,,
,,,,,,,,2023-08-16_10h45.21.464,HF_wild_card,2022.2.4,Win32,60.0276127,629f2dccc6e91be06559e2f1,64d2fd46c836a06233681665,64dc9aa432694dcd162eb111,,,,,,,ctch,resources/DG.BMP,resources/DY.BMP,Door3,0.25,-0.023148148,1,0,0,0.4807,optionRight,70,3210,2,17,0,17,0,1,,,,,,,,,,,,,,,,,,,,,,,,,,,,,,,,,,,,,,,
,,,,,,,,2023-08-16_10h45.21.464,HF_wild_card,2022.2.4,Win32,60.0276127,629f2dccc6e91be06559e2f1,64d2fd46c836a06233681665,64dc9aa432694dcd162eb111,,,,,,,decisionTrl,resources/DB.BMP,resources/DY.BMP,WildCard_Ex,-0.175925926,0.032407407,1,0,0,0.439,optionLeft,5,3215,2,18,0,18,0,1,,,,,,,,,,,,,,,,,,,,,,,,,,,,,,,,,,,,,,,
,,,,,,,,2023-08-16_10h45.21.464,HF_wild_card,2022.2.4,Win32,60.0276127,629f2dccc6e91be06559e2f1,64d2fd46c836a06233681665,64dc9aa432694dcd162eb111,,,,,,,decisionTrl,resources/DBN.BMP,resources/DY.BMP,Door3,0.24537037,0.010185171,1,0,0,0.439,optionRight,70,3285,2,19,0,19,0,1,,,,,,,,,,,,,,,,,,,,,,,,,,,,,,,,,,,,,,,
,,,,,,,,2023-08-16_10h45.21.464,HF_wild_card,2022.2.4,Win32,60.0276127,629f2dccc6e91be06559e2f1,64d2fd46c836a06233681665,64dc9aa432694dcd162eb111,,,,,,,sngl,resources/Empty.png,resources/DBN.BMP,Door4,0.183333362,-0.0074074,1,0,0,0.5151,optionRight,80,3365,2,20,0,20,0,1,,,,,,,,,,,,,,,,,,,,,,,,,,,,,,,,,,,,,,,
,,,,,,,,2023-08-16_10h45.21.464,HF_wild_card,2022.2.4,Win32,60.0276127,629f2dccc6e91be06559e2f1,64d2fd46c836a06233681665,64dc9aa432694dcd162eb111,,,,,,,decisionTrl,resources/DP.BMP,resources/DG.BMP,Door2,0.236111111,0.008333312,1,0,0,0.9148,optionRight,40,3405,2,21,0,21,0,1,,,,,,,,,,,,,,,,,,,,,,,,,,,,,,,,,,,,,,,
,,,,,,,,2023-08-16_10h45.21.464,HF_wild_card,2022.2.4,Win32,60.0276127,629f2dccc6e91be06559e2f1,64d2fd46c836a06233681665,64dc9aa432694dcd162eb111,,,,,,,sngl,resources/DB.BMP,resources/Empty.png,WildCard_Ex,-0.170370384,-0.025000007,1,0,0,0.4655,optionLeft,95,3500,2,22,0,22,0,1,,,,,,,,,,,,,,,,,,,,,,,,,,,,,,,,,,,,,,,
,,,,,,,,2023-08-16_10h45.21.464,HF_wild_card,2022.2.4,Win32,60.0276127,629f2dccc6e91be06559e2f1,64d2fd46c836a06233681665,64dc9aa432694dcd162eb111,,,,,,,sngl,resources/DG.BMP,resources/Empty.png,Door2,-0.22129631,-0.013888889,1,0,0,0.6145,optionLeft,20,3520,2,23,0,23,0,1,,,,,,,,,,,,,,,,,,,,,,,,,,,,,,,,,,,,,,,
,,,,,,,,2023-08-16_10h45.21.464,HF_wild_card,2022.2.4,Win32,60.0276127,629f2dccc6e91be06559e2f1,64d2fd46c836a06233681665,64dc9aa432694dcd162eb111,,,,,,,decisionTrl,resources/DP.BMP,resources/DG.BMP,Door2,0.199999986,-0.011111118,1,0,0,0.5881,optionRight,20,3540,2,24,0,24,0,1,,,,,,,,,,,,,,,,,,,,,,,,,,,,,,,,,,,,,,,
,,,,,,,,2023-08-16_10h45.21.464,HF_wild_card,2022.2.4,Win32,60.0276127,629f2dccc6e91be06559e2f1,64d2fd46c836a06233681665,64dc9aa432694dcd162eb111,,,,,,,decisionTrl,resources/DB.BMP,resources/DBN.BMP,Door4,0.225000028,-0.006481489,1,0,0,0.5143,optionRight,60,3600,2,25,0,25,0,1,,,,,,,,,,,,,,,,,,,,,,,,,,,,,,,,,,,,,,,
,,,,,,,,2023-08-16_10h45.21.464,HF_wild_card,2022.2.4,Win32,60.0276127,629f2dccc6e91be06559e2f1,64d2fd46c836a06233681665,64dc9aa432694dcd162eb111,,,,,,,decisionTrl,resources/DBN.BMP,resources/DY.BMP,Door4,-0.188888903,-0.051851873,1,0,0,0.614,optionLeft,60,3660,2,26,0,26,0,1,,,,,,,,,,,,,,,,,,,,,,,,,,,,,,,,,,,,,,,
,,,,,,,,2023-08-16_10h45.21.464,HF_wild_card,2022.2.4,Win32,60.0276127,629f2dccc6e91be06559e2f1,64d2fd46c836a06233681665,64dc9aa432694dcd162eb111,,,,,,,sngl,resources/DB.BMP,resources/Empty.png,WildCard_Ex,-0.264814801,-0.062037044,1,0,0,0.4979,optionLeft,5,3665,2,27,0,27,0,1,,,,,,,,,,,,,,,,,,,,,,,,,,,,,,,,,,,,,,,
,,,,,,,,2023-08-16_10h45.21.464,HF_wild_card,2022.2.4,Win32,60.0276127,629f2dccc6e91be06559e2f1,64d2fd46c836a06233681665,64dc9aa432694dcd162eb111,,,,,,,ctch,resources/DP.BMP,resources/DBN.BMP,Door4,0.184259273,-0.002777771,1,0,0,0.5482,optionRight,60,3725,2,28,0,28,0,1,,,,,,,,,,,,,,,,,,,,,,,,,,,,,,,,,,,,,,,
,,,,,,,,2023-08-16_10h45.21.464,HF_wild_card,2022.2.4,Win32,60.0276127,629f2dccc6e91be06559e2f1,64d2fd46c836a06233681665,64dc9aa432694dcd162eb111,,,,,,,ctch,resources/DBN.BMP,resources/DP.BMP,Door4,-0.213888875,-0.0074074,1,0,0,0.4978,optionLeft,60,3785,2,29,0,29,0,1,,,,,,,,,,,,,,,,,,,,,,,,,,,,,,,,,,,,,,,
,,,,,,,,2023-08-16_10h45.21.464,HF_wild_card,2022.2.4,Win32,60.0276127,629f2dccc6e91be06559e2f1,64d2fd46c836a06233681665,64dc9aa432694dcd162eb111,,,,,,,sngl,resources/Empty.png,resources/DY.BMP,Door3,0.251851894,-0.032407407,1,0,0,0.447,optionRight,70,3855,2,30,0,30,0,1,,,,,,,,,,,,,,,,,,,,,,,,,,,,,,,,,,,,,,,
,,,,,,,,2023-08-16_10h45.21.464,HF_wild_card,2022.2.4,Win32,60.0276127,629f2dccc6e91be06559e2f1,64d2fd46c836a06233681665,64dc9aa432694dcd162eb111,,,,,,,decisionTrl,resources/DP.BMP,resources/DG.BMP,Door2,0.292592578,-0.021296289,1,0,0,0.6604,optionRight,20,3875,2,31,0,31,0,1,,,,,,,,,,,,,,,,,,,,,,,,,,,,,,,,,,,,,,,
,,,,,,,,2023-08-16_10h45.21.464,HF_wild_card,2022.2.4,Win32,60.0276127,629f2dccc6e91be06559e2f1,64d2fd46c836a06233681665,64dc9aa432694dcd162eb111,,,,,,,decisionTrl,resources/DG.BMP,resources/DP.BMP,Door2,-0.17777775,0.0074074,1,0,0,0.5575,optionLeft,20,3895,2,32,0,32,0,1,,,,,,,,,,,,,,,,,,,,,,,,,,,,,,,,,,,,,,,
,,,,,,,,2023-08-16_10h45.21.464,HF_wild_card,2022.2.4,Win32,60.0276127,629f2dccc6e91be06559e2f1,64d2fd46c836a06233681665,64dc9aa432694dcd162eb111,,,,,,,decisionTrl,resources/DBN.BMP,resources/DY.BMP,Door3,0.226851852,-0.005555577,1,0,0,0.5733,optionRight,70,3965,2,33,0,33,0,1,,,,,,,,,,,,,,,,,,,,,,,,,,,,,,,,,,,,,,,
,,,,,,,,2023-08-16_10h45.21.464,HF_wild_card,2022.2.4,Win32,60.0276127,629f2dccc6e91be06559e2f1,64d2fd46c836a06233681665,64dc9aa432694dcd162eb111,,,,,,,sngl,resources/DP.BMP,resources/Empty.png,Door1,-0.172222208,-0.040740755,1,0,0,0.5219,optionLeft,30,3995,2,34,0,34,0,1,,,,,,,,,,,,,,,,,,,,,,,,,,,,,,,,,,,,,,,
,,,,,,,,2023-08-16_10h45.21.464,HF_wild_card,2022.2.4,Win32,60.0276127,629f2dccc6e91be06559e2f1,64d2fd46c836a06233681665,64dc9aa432694dcd162eb111,,,,,,,decisionTrl,resources/DY.BMP,resources/DBN.BMP,Door4,0.277777778,-0.038888896,1,0,0,0.5077,optionRight,80,4075,2,35,0,35,0,1,,,,,,,,,,,,,,,,,,,,,,,,,,,,,,,,,,,,,,,
,,,,,,,,2023-08-16_10h45.21.464,HF_wild_card,2022.2.4,Win32,60.0276127,629f2dccc6e91be06559e2f1,64d2fd46c836a06233681665,64dc9aa432694dcd162eb111,,,,,,,ctch,resources/DBN.BMP,resources/DP.BMP,Door4,-0.239814829,-0.015740748,1,0,0,1.0906,optionLeft,80,4155,2,36,0,36,0,1,,,,,,,,,,,,,,,,,,,,,,,,,,,,,,,,,,,,,,,
,,,,,,,,2023-08-16_10h45.21.464,HF_wild_card,2022.2.4,Win32,60.0276127,629f2dccc6e91be06559e2f1,64d2fd46c836a06233681665,64dc9aa432694dcd162eb111,,,,,,,sngl,resources/Empty.png,resources/DG.BMP,Door2,0.242592635,-0.003703718,1,0,0,0.5239,optionRight,40,4195,2,37,0,37,0,1,,,,,,,,,,,,,,,,,,,,,,,,,,,,,,,,,,,,,,,
,,,,,,,,2023-08-16_10h45.21.464,HF_wild_card,2022.2.4,Win32,60.0276127,629f2dccc6e91be06559e2f1,64d2fd46c836a06233681665,64dc9aa432694dcd162eb111,,,,,,,ctch,resources/DY.BMP,resources/DG.BMP,Door3,-0.127777735,0.026851831,1,0,0,0.9972,optionLeft,70,4265,2,38,0,38,0,1,,,,,,,,,,,,,,,,,,,,,,,,,,,,,,,,,,,,,,,
,,,,,,,,2023-08-16_10h45.21.464,HF_wild_card,2022.2.4,Win32,60.0276127,629f2dccc6e91be06559e2f1,64d2fd46c836a06233681665,64dc9aa432694dcd162eb111,,,,,,,decisionTrl,resources/DB.BMP,resources/DG.BMP,Door2,0.35555564,0.046296296,1,0,0,1.3724,optionRight,40,4305,2,39,0,39,0,1,,,,,,,,,,,,,,,,,,,,,,,,,,,,,,,,,,,,,,,
,,,,,,,,2023-08-16_10h45.21.464,HF_wild_card,2022.2.4,Win32,60.0276127,629f2dccc6e91be06559e2f1,64d2fd46c836a06233681665,64dc9aa432694dcd162eb111,,,,,,,decisionTrl,resources/DG.BMP,resources/DP.BMP,Door2,-0.19259255,-0.012962977,1,0,0,0.5055,optionLeft,20,4325,2,40,0,40,0,1,,,,,,,,,,,,,,,,,,,,,,,,,,,,,,,,,,,,,,,
,,,,,,,,2023-08-16_10h45.21.464,HF_wild_card,2022.2.4,Win32,60.0276127,629f2dccc6e91be06559e2f1,64d2fd46c836a06233681665,64dc9aa432694dcd162eb111,,,,,,,ctch,resources/DP.BMP,resources/DBN.BMP,Door4,0.181481467,0.022222201,1,0,0,0.7248,optionRight,80,4405,2,41,0,41,0,1,,,,,,,,,,,,,,,,,,,,,,,,,,,,,,,,,,,,,,,
,,,,,,,,2023-08-16_10h45.21.464,HF_wild_card,2022.2.4,Win32,60.0276127,629f2dccc6e91be06559e2f1,64d2fd46c836a06233681665,64dc9aa432694dcd162eb111,,,,,,,decisionTrl,resources/DG.BMP,resources/DP.BMP,Door1,0.287037037,-0.012962977,1,0,0,0.9218,optionRight,30,4435,2,42,0,42,0,1,,,,,,,,,,,,,,,,,,,,,,,,,,,,,,,,,,,,,,,
,,,,,,,,2023-08-16_10h45.21.464,HF_wild_card,2022.2.4,Win32,60.0276127,629f2dccc6e91be06559e2f1,64d2fd46c836a06233681665,64dc9aa432694dcd162eb111,,,,,,,decisionTrl,resources/DY.BMP,resources/DBN.BMP,Door3,-0.178703661,-0.027777778,1,0,0,0.448,optionLeft,70,4505,2,43,0,43,0,1,,,,,,,,,,,,,,,,,,,,,,,,,,,,,,,,,,,,,,,
,,,,,,,,2023-08-16_10h45.21.464,HF_wild_card,2022.2.4,Win32,60.0276127,629f2dccc6e91be06559e2f1,64d2fd46c836a06233681665,64dc9aa432694dcd162eb111,,,,,,,,,,,,,,,,,,,,,,,,,,1,0,1,0,1,,,,,,,,,,,,,,,,,,,,,,,,,,,,,,,,,,
,,,,,,,,2023-08-16_10h45.21.464,HF_wild_card,2022.2.4,Win32,60.0276127,629f2dccc6e91be06559e2f1,64d2fd46c836a06233681665,64dc9aa432694dcd162eb111,,,,,,,sngl,resources/Empty.png,resources/DP.BMP,Door1,0.012037065,-0.175925926,1,0,0,0.7052,optionRight,30,4535,3,0,0,0,0,1,,,,,,,,,,,,,,,,,,,,,,,,,,,,,,,,,,,,,,,
,,,,,,,,2023-08-16_10h45.21.464,HF_wild_card,2022.2.4,Win32,60.0276127,629f2dccc6e91be06559e2f1,64d2fd46c836a06233681665,64dc9aa432694dcd162eb111,,,,,,,decisionTrl,resources/DY.BMP,resources/DBN.BMP,Door4,0.184259273,-0.018518519,1,0,0,0.4142,optionRight,80,4615,3,1,0,1,0,1,,,,,,,,,,,,,,,,,,,,,,,,,,,,,,,,,,,,,,,
,,,,,,,,2023-08-16_10h45.21.464,HF_wild_card,2022.2.4,Win32,60.0276127,629f2dccc6e91be06559e2f1,64d2fd46c836a06233681665,64dc9aa432694dcd162eb111,,,,,,,decisionTrl,resources/DG.BMP,resources/DP.BMP,Door2,-0.206481439,-0.066666674,1,0,0,0.4984,optionLeft,40,4655,3,2,0,2,0,1,,,,,,,,,,,,,,,,,,,,,,,,,,,,,,,,,,,,,,,
,,,,,,,,2023-08-16_10h45.21.464,HF_wild_card,2022.2.4,Win32,60.0276127,629f2dccc6e91be06559e2f1,64d2fd46c836a06233681665,64dc9aa432694dcd162eb111,,,,,,,sngl,resources/DY.BMP,resources/Empty.png,Door3,-0.184259273,-0.026851866,1,0,0,0.5573,optionLeft,70,4725,3,3,0,3,0,1,,,,,,,,,,,,,,,,,,,,,,,,,,,,,,,,,,,,,,,
,,,,,,,,2023-08-16_10h45.21.464,HF_wild_card,2022.2.4,Win32,60.0276127,629f2dccc6e91be06559e2f1,64d2fd46c836a06233681665,64dc9aa432694dcd162eb111,,,,,,,sngl,resources/Empty.png,resources/DY.BMP,Door3,0.199074074,-0.018518519,1,0,0,0.491,optionRight,70,4795,3,4,0,4,0,1,,,,,,,,,,,,,,,,,,,,,,,,,,,,,,,,,,,,,,,
,,,,,,,,2023-08-16_10h45.21.464,HF_wild_card,2022.2.4,Win32,60.0276127,629f2dccc6e91be06559e2f1,64d2fd46c836a06233681665,64dc9aa432694dcd162eb111,,,,,,,ctch,resources/DBN.BMP,resources/DP.BMP,Door4,-0.224074046,-0.003703718,1,0,0,0.4393,optionLeft,80,4875,3,5,0,5,0,1,,,,,,,,,,,,,,,,,,,,,,,,,,,,,,,,,,,,,,,
,,,,,,,,2023-08-16_10h45.21.464,HF_wild_card,2022.2.4,Win32,60.0276127,629f2dccc6e91be06559e2f1,64d2fd46c836a06233681665,64dc9aa432694dcd162eb111,,,,,,,ctch,resources/DP.BMP,resources/DBN.BMP,Door4,0.189814815,0.001851859,1,0,0,0.4485,optionRight,80,4955,3,6,0,6,0,1,,,,,,,,,,,,,,,,,,,,,,,,,,,,,,,,,,,,,,,
,,,,,,,,2023-08-16_10h45.21.464,HF_wild_card,2022.2.4,Win32,60.0276127,629f2dccc6e91be06559e2f1,64d2fd46c836a06233681665,64dc9aa432694dcd162eb111,,,,,,,sngl,resources/Empty.png,resources/DBN.BMP,Door4,0.213888875,-0.008333347,1,0,0,0.4726,optionRight,60,5015,3,7,0,7,0,1,,,,,,,,,,,,,,,,,,,,,,,,,,,,,,,,,,,,,,,
,,,,,,,,2023-08-16_10h45.21.464,HF_wild_card,2022.2.4,Win32,60.0276127,629f2dccc6e91be06559e2f1,64d2fd46c836a06233681665,64dc9aa432694dcd162eb111,,,,,,,decisionTrl,resources/DG.BMP,resources/DP.BMP,Door1,0.260185171,0.01203703,1,0,0,0.5644,optionRight,30,5045,3,8,0,8,0,1,,,,,,,,,,,,,,,,,,,,,,,,,,,,,,,,,,,,,,,
,,,,,,,,2023-08-16_10h45.21.464,HF_wild_card,2022.2.4,Win32,60.0276127,629f2dccc6e91be06559e2f1,64d2fd46c836a06233681665,64dc9aa432694dcd162eb111,,,,,,,sngl,resources/DP.BMP,resources/Empty.png,Door1,-0.180555556,-0.010185206,1,0,0,0.4308,optionLeft,30,5075,3,9,0,9,0,1,,,,,,,,,,,,,,,,,,,,,,,,,,,,,,,,,,,,,,,
,,,,,,,,2023-08-16_10h45.21.464,HF_wild_card,2022.2.4,Win32,60.0276127,629f2dccc6e91be06559e2f1,64d2fd46c836a06233681665,64dc9aa432694dcd162eb111,,,,,,,decisionTrl,resources/DB.BMP,resources/DG.BMP,Door2,0.205555598,-0.022222236,1,0,0,0.6982,optionRight,40,5115,3,10,0,10,0,1,,,,,,,,,,,,,,,,,,,,,,,,,,,,,,,,,,,,,,,
,,,,,,,,2023-08-16_10h45.21.464,HF_wild_card,2022.2.4,Win32,60.0276127,629f2dccc6e91be06559e2f1,64d2fd46c836a06233681665,64dc9aa432694dcd162eb111,,,,,,,sngl,resources/DB.BMP,resources/Empty.png,WildCard_Ex,-0.232407393,-0.076851845,1,0,0,0.5151,optionLeft,5,5120,3,11,0,11,0,1,,,,,,,,,,,,,,,,,,,,,,,,,,,,,,,,,,,,,,,
,,,,,,,,2023-08-16_10h45.21.464,HF_wild_card,2022.2.4,Win32,60.0276127,629f2dccc6e91be06559e2f1,64d2fd46c836a06233681665,64dc9aa432694dcd162eb111,,,,,,,decisionTrl,resources/DP.BMP,resources/DG.BMP,Door2,0.26944443,-0.009259259,1,0,0,0.6574,optionRight,40,5160,3,12,0,12,0,1,,,,,,,,,,,,,,,,,,,,,,,,,,,,,,,,,,,,,,,
,,,,,,,,2023-08-16_10h45.21.464,HF_wild_card,2022.2.4,Win32,60.0276127,629f2dccc6e91be06559e2f1,64d2fd46c836a06233681665,64dc9aa432694dcd162eb111,,,,,,,decisionTrl,resources/DBN.BMP,resources/DY.BMP,Door4,-0.154629601,-0.028703725,1,0,0,1.481,optionLeft,60,5220,3,13,0,13,0,1,,,,,,,,,,,,,,,,,,,,,,,,,,,,,,,,,,,,,,,
,,,,,,,,2023-08-16_10h45.21.464,HF_wild_card,2022.2.4,Win32,60.0276127,629f2dccc6e91be06559e2f1,64d2fd46c836a06233681665,64dc9aa432694dcd162eb111,,,,,,,ctch,resources/DY.BMP,resources/DG.BMP,Door2,0.219444487,-0.015740748,1,0,0,0.5557,optionRight,20,5240,3,14,0,14,0,1,,,,,,,,,,,,,,,,,,,,,,,,,,,,,,,,,,,,,,,
,,,,,,,,2023-08-16_10h45.21.464,HF_wild_card,2022.2.4,Win32,60.0276127,629f2dccc6e91be06559e2f1,64d2fd46c836a06233681665,64dc9aa432694dcd162eb111,,,,,,,sngl,resources/Empty.png,resources/DB.BMP,WildCard_Ex,0.261111153,0.029629637,1,0,0,0.5888,optionRight,95,5335,3,15,0,15,0,1,,,,,,,,,,,,,,,,,,,,,,,,,,,,,,,,,,,,,,,
,,,,,,,,2023-08-16_10h45.21.464,HF_wild_card,2022.2.4,Win32,60.0276127,629f2dccc6e91be06559e2f1,64d2fd46c836a06233681665,64dc9aa432694dcd162eb111,,,,,,,decisionTrl,resources/DY.BMP,resources/DBN.BMP,Door4,0.272222236,0.032407407,1,0,0,0.7062,optionRight,60,5395,3,16,0,16,0,1,,,,,,,,,,,,,,,,,,,,,,,,,,,,,,,,,,,,,,,
,,,,,,,,2023-08-16_10h45.21.464,HF_wild_card,2022.2.4,Win32,60.0276127,629f2dccc6e91be06559e2f1,64d2fd46c836a06233681665,64dc9aa432694dcd162eb111,,,,,,,decisionTrl,resources/DB.BMP,resources/DBN.BMP,Door4,0.338888945,0.073148127,1,0,0,0.7479,optionRight,60,5455,3,17,0,17,0,1,,,,,,,,,,,,,,,,,,,,,,,,,,,,,,,,,,,,,,,
,,,,,,,,2023-08-16_10h45.21.464,HF_wild_card,2022.2.4,Win32,60.0276127,629f2dccc6e91be06559e2f1,64d2fd46c836a06233681665,64dc9aa432694dcd162eb111,,,,,,,sngl,resources/DG.BMP,resources/Empty.png,Door2,-0.152777778,0.01666666,1,0,0,0.5231,optionLeft,40,5495,3,18,0,18,0,1,,,,,,,,,,,,,,,,,,,,,,,,,,,,,,,,,,,,,,,
,,,,,,,,2023-08-16_10h45.21.464,HF_wild_card,2022.2.4,Win32,60.0276127,629f2dccc6e91be06559e2f1,64d2fd46c836a06233681665,64dc9aa432694dcd162eb111,,,,,,,sngl,resources/DBN.BMP,resources/Empty.png,Door4,-0.224074046,0.0074074,1,0,0,0.4817,optionLeft,80,5575,3,19,0,19,0,1,,,,,,,,,,,,,,,,,,,,,,,,,,,,,,,,,,,,,,,
,,,,,,,,2023-08-16_10h45.21.464,HF_wild_card,2022.2.4,Win32,60.0276127,629f2dccc6e91be06559e2f1,64d2fd46c836a06233681665,64dc9aa432694dcd162eb111,,,,,,,ctch,resources/DY.BMP,resources/DG.BMP,Door3,-0.276851866,0.064814815,1,0,0,0.8651,optionLeft,70,5645,3,20,0,20,0,1,,,,,,,,,,,,,,,,,,,,,,,,,,,,,,,,,,,,,,,
,,,,,,,,2023-08-16_10h45.21.464,HF_wild_card,2022.2.4,Win32,60.0276127,629f2dccc6e91be06559e2f1,64d2fd46c836a06233681665,64dc9aa432694dcd162eb111,,,,,,,decisionTrl,resources/DP.BMP,resources/DB.BMP,WildCard_Ex,0.263888889,0.025000007,1,0,0,0.8054,optionRight,95,5740,3,21,0,21,0,1,,,,,,,,,,,,,,,,,,,,,,,,,,,,,,,,,,,,,,,
,,,,,,,,2023-08-16_10h45.21.464,HF_wild_card,2022.2.4,Win32,60.0276127,629f2dccc6e91be06559e2f1,64d2fd46c836a06233681665,64dc9aa432694dcd162eb111,,,,,,,sngl,resources/Empty.png,resources/DG.BMP,Door2,0.19722225,0.051851838,1,0,0,0.5388,optionRight,20,5760,3,22,0,22,0,1,,,,,,,,,,,,,,,,,,,,,,,,,,,,,,,,,,,,,,,
,,,,,,,,2023-08-16_10h45.21.464,HF_wild_card,2022.2.4,Win32,60.0276127,629f2dccc6e91be06559e2f1,64d2fd46c836a06233681665,64dc9aa432694dcd162eb111,,,,,,,decisionTrl,resources/DG.BMP,resources/DP.BMP,Door2,-0.182407379,-0.039814808,1,0,0,0.535,optionLeft,40,5800,3,23,0,23,0,1,,,,,,,,,,,,,,,,,,,,,,,,,,,,,,,,,,,,,,,
,,,,,,,,2023-08-16_10h45.21.464,HF_wild_card,2022.2.4,Win32,60.0276127,629f2dccc6e91be06559e2f1,64d2fd46c836a06233681665,64dc9aa432694dcd162eb111,,,,,,,decisionTrl,resources/DY.BMP,resources/DBN.BMP,Door4,0.188888903,0.014814801,1,0,0,0.3733,optionRight,60,5860,3,24,0,24,0,1,,,,,,,,,,,,,,,,,,,,,,,,,,,,,,,,,,,,,,,
,,,,,,,,2023-08-16_10h45.21.464,HF_wild_card,2022.2.4,Win32,60.0276127,629f2dccc6e91be06559e2f1,64d2fd46c836a06233681665,64dc9aa432694dcd162eb111,,,,,,,decisionTrl,resources/DBN.BMP,resources/DB.BMP,Door4,-0.171296296,0.002777771,1,0,0,0.3686,optionLeft,80,5940,3,25,0,25,0,1,,,,,,,,,,,,,,,,,,,,,,,,,,,,,,,,,,,,,,,
,,,,,,,,2023-08-16_10h45.21.464,HF_wild_card,2022.2.4,Win32,60.0276127,629f2dccc6e91be06559e2f1,64d2fd46c836a06233681665,64dc9aa432694dcd162eb111,,,,,,,sngl,resources/Empty.png,resources/DB.BMP,WildCard_Ex,0.22592594,0,1,0,0,0.4559,optionRight,5,5945,3,26,0,26,0,1,,,,,,,,,,,,,,,,,,,,,,,,,,,,,,,,,,,,,,,
,,,,,,,,2023-08-16_10h45.21.464,HF_wild_card,2022.2.4,Win32,60.0276127,629f2dccc6e91be06559e2f1,64d2fd46c836a06233681665,64dc9aa432694dcd162eb111,,,,,,,decisionTrl,resources/DP.BMP,resources/DG.BMP,Door1,-0.161111125,-0.003703718,1,0,0,0.4073,optionLeft,30,5975,3,27,0,27,0,1,,,,,,,,,,,,,,,,,,,,,,,,,,,,,,,,,,,,,,,
,,,,,,,,2023-08-16_10h45.21.464,HF_wild_card,2022.2.4,Win32,60.0276127,629f2dccc6e91be06559e2f1,64d2fd46c836a06233681665,64dc9aa432694dcd162eb111,,,,,,,decisionTrl,resources/DY.BMP,resources/DB.BMP,Door3,-0.17314812,-0.028703725,1,0,0,0.4817,optionLeft,70,6045,3,28,0,28,0,1,,,,,,,,,,,,,,,,,,,,,,,,,,,,,,,,,,,,,,,
,,,,,,,,2023-08-16_10h45.21.464,HF_wild_card,2022.2.4,Win32,60.0276127,629f2dccc6e91be06559e2f1,64d2fd46c836a06233681665,64dc9aa432694dcd162eb111,,,,,,,decisionTrl,resources/DG.BMP,resources/DP.BMP,Door1,0.146296325,0.010185171,1,0,0,0.6576,optionRight,30,6075,3,29,0,29,0,1,,,,,,,,,,,,,,,,,,,,,,,,,,,,,,,,,,,,,,,
,,,,,,,,2023-08-16_10h45.21.464,HF_wild_card,2022.2.4,Win32,60.0276127,629f2dccc6e91be06559e2f1,64d2fd46c836a06233681665,64dc9aa432694dcd162eb111,,,,,,,ctch,resources/DG.BMP,resources/DY.BMP,Door2,-0.175000014,-0.013888889,1,0,0,0.4654,optionLeft,40,6115,3,30,0,30,0,1,,,,,,,,,,,,,,,,,,,,,,,,,,,,,,,,,,,,,,,
,,,,,,,,2023-08-16_10h45.21.464,HF_wild_card,2022.2.4,Win32,60.0276127,629f2dccc6e91be06559e2f1,64d2fd46c836a06233681665,64dc9aa432694dcd162eb111,,,,,,,ctch,resources/DG.BMP,resources/DY.BMP,Door3,0.210185228,-0.015740748,1,0,0,0.4719,optionRight,70,6185,3,31,0,31,0,1,,,,,,,,,,,,,,,,,,,,,,,,,,,,,,,,,,,,,,,
,,,,,,,,2023-08-16_10h45.21.464,HF_wild_card,2022.2.4,Win32,60.0276127,629f2dccc6e91be06559e2f1,64d2fd46c836a06233681665,64dc9aa432694dcd162eb111,,,,,,,ctch,resources/DBN.BMP,resources/DP.BMP,Door4,-0.200925898,0.010185171,1,0,0,0.6315,optionLeft,60,6245,3,32,0,32,0,1,,,,,,,,,,,,,,,,,,,,,,,,,,,,,,,,,,,,,,,
,,,,,,,,2023-08-16_10h45.21.464,HF_wild_card,2022.2.4,Win32,60.0276127,629f2dccc6e91be06559e2f1,64d2fd46c836a06233681665,64dc9aa432694dcd162eb111,,,,,,,decisionTrl,resources/DG.BMP,resources/DB.BMP,WildCard_Ex,0.308333362,0.025000007,1,0,0,0.7406,optionRight,95,6340,3,33,0,33,0,1,,,,,,,,,,,,,,,,,,,,,,,,,,,,,,,,,,,,,,,
,,,,,,,,2023-08-16_10h45.21.464,HF_wild_card,2022.2.4,Win32,60.0276127,629f2dccc6e91be06559e2f1,64d2fd46c836a06233681665,64dc9aa432694dcd162eb111,,,,,,,decisionTrl,resources/DBN.BMP,resources/DY.BMP,Door4,-0.241666653,0.013888889,1,0,0,0.6653,optionLeft,80,6420,3,34,0,34,0,1,,,,,,,,,,,,,,,,,,,,,,,,,,,,,,,,,,,,,,,
,,,,,,,,2023-08-16_10h45.21.464,HF_wild_card,2022.2.4,Win32,60.0276127,629f2dccc6e91be06559e2f1,64d2fd46c836a06233681665,64dc9aa432694dcd162eb111,,,,,,,decisionTrl,resources/DBN.BMP,resources/DY.BMP,Door4,-0.175925926,0.035185178,1,0,0,0.5148,optionLeft,80,6500,3,35,0,35,0,1,,,,,,,,,,,,,,,,,,,,,,,,,,,,,,,,,,,,,,,
,,,,,,,,2023-08-16_10h45.21.464,HF_wild_card,2022.2.4,Win32,60.0276127,629f2dccc6e91be06559e2f1,64d2fd46c836a06233681665,64dc9aa432694dcd162eb111,,,,,,,decisionTrl,resources/DB.BMP,resources/DP.BMP,Door1,0.369444529,0.044444437,1,0,0,0.7484,optionRight,30,6530,3,36,0,36,0,1,,,,,,,,,,,,,,,,,,,,,,,,,,,,,,,,,,,,,,,
,,,,,,,,2023-08-16_10h45.21.464,HF_wild_card,2022.2.4,Win32,60.0276127,629f2dccc6e91be06559e2f1,64d2fd46c836a06233681665,64dc9aa432694dcd162eb111,,,,,,,ctch,resources/DP.BMP,resources/DBN.BMP,Door4,0.343518575,0.020370377,1,0,0,0.6653,optionRight,60,6590,3,37,0,37,0,1,,,,,,,,,,,,,,,,,,,,,,,,,,,,,,,,,,,,,,,
,,,,,,,,2023-08-16_10h45.21.464,HF_wild_card,2022.2.4,Win32,60.0276127,629f2dccc6e91be06559e2f1,64d2fd46c836a06233681665,64dc9aa432694dcd162eb111,,,,,,,decisionTrl,resources/DP.BMP,resources/DG.BMP,Door2,0.37962963,0.04074072,1,0,0,0.8149,optionRight,20,6610,3,38,0,38,0,1,,,,,,,,,,,,,,,,,,,,,,,,,,,,,,,,,,,,,,,
,,,,,,,,2023-08-16_10h45.21.464,HF_wild_card,2022.2.4,Win32,60.0276127,629f2dccc6e91be06559e2f1,64d2fd46c836a06233681665,64dc9aa432694dcd162eb111,,,,,,,decisionTrl,resources/DY.BMP,resources/DBN.BMP,Door4,0.281481496,0.025000007,1,0,0,0.6481,optionRight,80,6690,3,39,0,39,0,1,,,,,,,,,,,,,,,,,,,,,,,,,,,,,,,,,,,,,,,
,,,,,,,,2023-08-16_10h45.21.464,HF_wild_card,2022.2.4,Win32,60.0276127,629f2dccc6e91be06559e2f1,64d2fd46c836a06233681665,64dc9aa432694dcd162eb111,,,,,,,sngl,resources/DB.BMP,resources/Empty.png,WildCard_Ex,-0.223148134,-0.017592607,1,0,0,0.4808,optionLeft,95,6785,3,40,0,40,0,1,,,,,,,,,,,,,,,,,,,,,,,,,,,,,,,,,,,,,,,
,,,,,,,,2023-08-16_10h45.21.464,HF_wild_card,2022.2.4,Win32,60.0276127,629f2dccc6e91be06559e2f1,64d2fd46c836a06233681665,64dc9aa432694dcd162eb111,,,,,,,decisionTrl,resources/DP.BMP,resources/DG.BMP,Door1,-0.212037051,-0.034259266,1,0,0,0.9556,optionLeft,30,6815,3,41,0,41,0,1,,,,,,,,,,,,,,,,,,,,,,,,,,,,,,,,,,,,,,,
,,,,,,,,2023-08-16_10h45.21.464,HF_wild_card,2022.2.4,Win32,60.0276127,629f2dccc6e91be06559e2f1,64d2fd46c836a06233681665,64dc9aa432694dcd162eb111,,,,,,,decisionTrl,resources/DB.BMP,resources/DY.BMP,WildCard_Ex,-0.235185199,0.006481489,1,0,0,0.7651,optionLeft,5,6820,3,42,0,42,0,1,,,,,,,,,,,,,,,,,,,,,,,,,,,,,,,,,,,,,,,
,,,,,,,,2023-08-16_10h45.21.464,HF_wild_card,2022.2.4,Win32,60.0276127,629f2dccc6e91be06559e2f1,64d2fd46c836a06233681665,64dc9aa432694dcd162eb111,,,,,,,decisionTrl,resources/DBN.BMP,resources/DY.BMP,Door4,-0.22592594,0.015740748,1,0,0,0.7884,optionLeft,80,6900,3,43,0,43,0,1,,,,,,,,,,,,,,,,,,,,,,,,,,,,,,,,,,,,,,,
,,,,,,,,2023-08-16_10h45.21.464,HF_wild_card,2022.2.4,Win32,60.0276127,629f2dccc6e91be06559e2f1,64d2fd46c836a06233681665,64dc9aa432694dcd162eb111,,,,,,,,,,,,,,,,,,,,,,,,,,2,0,2,0,1,,,,,,,,,,,,,,,,,,,,,,,,,,,,,,,,,,
,,,,,,,,2023-08-16_10h45.21.464,HF_wild_card,2022.2.4,Win32,60.0276127,629f2dccc6e91be06559e2f1,64d2fd46c836a06233681665,64dc9aa432694dcd162eb111,,,,,,,decisionTrl,resources/DR.BMP,resources/DY.BMP,WildCard_NonEx,-0.202777792,-0.141666695,1,0,0,0.973,optionLeft,55,6955,4,0,0,0,0,1,,,,,,,,,,,,,,,,,,,,,,,,,,,,,,,,,,,,,,,
,,,,,,,,2023-08-16_10h45.21.464,HF_wild_card,2022.2.4,Win32,60.0276127,629f2dccc6e91be06559e2f1,64d2fd46c836a06233681665,64dc9aa432694dcd162eb111,,,,,,,decisionTrl,resources/DP.BMP,resources/DG.BMP,Door2,0.150925954,-0.005555577,1,0,0,1.1057,optionRight,40,6995,4,1,0,1,0,1,,,,,,,,,,,,,,,,,,,,,,,,,,,,,,,,,,,,,,,
,,,,,,,,2023-08-16_10h45.21.464,HF_wild_card,2022.2.4,Win32,60.0276127,629f2dccc6e91be06559e2f1,64d2fd46c836a06233681665,64dc9aa432694dcd162eb111,,,,,,,ctch,resources/DY.BMP,resources/DG.BMP,Door3,-0.198148162,-0.069444444,1,0,0,0.765,optionLeft,70,7065,4,2,0,2,0,1,,,,,,,,,,,,,,,,,,,,,,,,,,,,,,,,,,,,,,,
,,,,,,,,2023-08-16_10h45.21.464,HF_wild_card,2022.2.4,Win32,60.0276127,629f2dccc6e91be06559e2f1,64d2fd46c836a06233681665,64dc9aa432694dcd162eb111,,,,,,,decisionTrl,resources/DY.BMP,resources/DBN.BMP,Door4,0.212037051,0.005555541,1,0,0,0.515,optionRight,80,7145,4,3,0,3,0,1,,,,,,,,,,,,,,,,,,,,,,,,,,,,,,,,,,,,,,,
,,,,,,,,2023-08-16_10h45.21.464,HF_wild_card,2022.2.4,Win32,60.0276127,629f2dccc6e91be06559e2f1,64d2fd46c836a06233681665,64dc9aa432694dcd162eb111,,,,,,,sngl,resources/DP.BMP,resources/Empty.png,Door1,-0.205555527,-0.027777778,1,0,0,0.4883,optionLeft,30,7175,4,4,0,4,0,1,,,,,,,,,,,,,,,,,,,,,,,,,,,,,,,,,,,,,,,
,,,,,,,,2023-08-16_10h45.21.464,HF_wild_card,2022.2.4,Win32,60.0276127,629f2dccc6e91be06559e2f1,64d2fd46c836a06233681665,64dc9aa432694dcd162eb111,,,,,,,decisionTrl,resources/DG.BMP,resources/DR.BMP,WildCard_NonEx,0.249074088,0.000925912,1,0,0,0.5858,optionRight,45,7220,4,5,0,5,0,1,,,,,,,,,,,,,,,,,,,,,,,,,,,,,,,,,,,,,,,
,,,,,,,,2023-08-16_10h45.21.464,HF_wild_card,2022.2.4,Win32,60.0276127,629f2dccc6e91be06559e2f1,64d2fd46c836a06233681665,64dc9aa432694dcd162eb111,,,,,,,decisionTrl,resources/DP.BMP,resources/DR.BMP,WildCard_NonEx,0.314814815,0.01666666,1,0,0,0.8149,optionRight,45,7265,4,6,0,6,0,1,,,,,,,,,,,,,,,,,,,,,,,,,,,,,,,,,,,,,,,
,,,,,,,,2023-08-16_10h45.21.464,HF_wild_card,2022.2.4,Win32,60.0276127,629f2dccc6e91be06559e2f1,64d2fd46c836a06233681665,64dc9aa432694dcd162eb111,,,,,,,decisionTrl,resources/DR.BMP,resources/DP.BMP,WildCard_NonEx,-0.183333291,0.033333319,1,0,0,0.5485,optionLeft,55,7320,4,7,0,7,0,1,,,,,,,,,,,,,,,,,,,,,,,,,,,,,,,,,,,,,,,
,,,,,,,,2023-08-16_10h45.21.464,HF_wild_card,2022.2.4,Win32,60.0276127,629f2dccc6e91be06559e2f1,64d2fd46c836a06233681665,64dc9aa432694dcd162eb111,,,,,,,decisionTrl,resources/DBN.BMP,resources/DY.BMP,Door4,-0.189814815,0.013888889,1,0,0,0.7724,optionLeft,80,7400,4,8,0,8,0,1,,,,,,,,,,,,,,,,,,,,,,,,,,,,,,,,,,,,,,,
,,,,,,,,2023-08-16_10h45.21.464,HF_wild_card,2022.2.4,Win32,60.0276127,629f2dccc6e91be06559e2f1,64d2fd46c836a06233681665,64dc9aa432694dcd162eb111,,,,,,,ctch,resources/DP.BMP,resources/DBN.BMP,Door4,0.226851852,0.027777778,1,0,0,0.5723,optionRight,60,7460,4,9,0,9,0,1,,,,,,,,,,,,,,,,,,,,,,,,,,,,,,,,,,,,,,,
,,,,,,,,2023-08-16_10h45.21.464,HF_wild_card,2022.2.4,Win32,60.0276127,629f2dccc6e91be06559e2f1,64d2fd46c836a06233681665,64dc9aa432694dcd162eb111,,,,,,,decisionTrl,resources/DP.BMP,resources/DG.BMP,Door1,-0.213888875,-0.020370377,1,0,0,0.5892,optionLeft,30,7490,4,10,0,10,0,1,,,,,,,,,,,,,,,,,,,,,,,,,,,,,,,,,,,,,,,
,,,,,,,,2023-08-16_10h45.21.464,HF_wild_card,2022.2.4,Win32,60.0276127,629f2dccc6e91be06559e2f1,64d2fd46c836a06233681665,64dc9aa432694dcd162eb111,,,,,,,decisionTrl,resources/DG.BMP,resources/DP.BMP,Door1,0.213888875,0.01666666,1,0,0,0.6984,optionRight,30,7520,4,11,0,11,0,1,,,,,,,,,,,,,,,,,,,,,,,,,,,,,,,,,,,,,,,
,,,,,,,,2023-08-16_10h45.21.464,HF_wild_card,2022.2.4,Win32,60.0276127,629f2dccc6e91be06559e2f1,64d2fd46c836a06233681665,64dc9aa432694dcd162eb111,,,,,,,sngl,resources/Empty.png,resources/DG.BMP,Door2,0.252777806,0.082407386,1,0,0,0.6072,optionRight,40,7560,4,12,0,12,0,1,,,,,,,,,,,,,,,,,,,,,,,,,,,,,,,,,,,,,,,
,,,,,,,,2023-08-16_10h45.21.464,HF_wild_card,2022.2.4,Win32,60.0276127,629f2dccc6e91be06559e2f1,64d2fd46c836a06233681665,64dc9aa432694dcd162eb111,,,,,,,decisionTrl,resources/DY.BMP,resources/DBN.BMP,Door4,0.271296325,0.121296282,1,0,0,0.6892,optionRight,60,7620,4,13,0,13,0,1,,,,,,,,,,,,,,,,,,,,,,,,,,,,,,,,,,,,,,,
,,,,,,,,2023-08-16_10h45.21.464,HF_wild_card,2022.2.4,Win32,60.0276127,629f2dccc6e91be06559e2f1,64d2fd46c836a06233681665,64dc9aa432694dcd162eb111,,,,,,,ctch,resources/DG.BMP,resources/DY.BMP,Door2,-0.166666667,0.01666666,1,0,0,0.5907,optionLeft,40,7660,4,14,0,14,0,1,,,,,,,,,,,,,,,,,,,,,,,,,,,,,,,,,,,,,,,
,,,,,,,,2023-08-16_10h45.21.464,HF_wild_card,2022.2.4,Win32,60.0276127,629f2dccc6e91be06559e2f1,64d2fd46c836a06233681665,64dc9aa432694dcd162eb111,,,,,,,sngl,resources/DG.BMP,resources/Empty.png,Door2,-0.200925898,0.006481489,1,0,0,0.5531,optionLeft,20,7680,4,15,0,15,0,1,,,,,,,,,,,,,,,,,,,,,,,,,,,,,,,,,,,,,,,
,,,,,,,,2023-08-16_10h45.21.464,HF_wild_card,2022.2.4,Win32,60.0276127,629f2dccc6e91be06559e2f1,64d2fd46c836a06233681665,64dc9aa432694dcd162eb111,,,,,,,ctch,resources/DY.BMP,resources/DG.BMP,Door2,0.167592578,0.037037037,1,0,0,0.5472,optionRight,40,7720,4,16,0,16,0,1,,,,,,,,,,,,,,,,,,,,,,,,,,,,,,,,,,,,,,,
,,,,,,,,2023-08-16_10h45.21.464,HF_wild_card,2022.2.4,Win32,60.0276127,629f2dccc6e91be06559e2f1,64d2fd46c836a06233681665,64dc9aa432694dcd162eb111,,,,,,,decisionTrl,resources/DBN.BMP,resources/DY.BMP,Door3,0.181481467,-0.021296289,1,0,0,0.5055,optionRight,70,7790,4,17,0,17,0,1,,,,,,,,,,,,,,,,,,,,,,,,,,,,,,,,,,,,,,,
,,,,,,,,2023-08-16_10h45.21.464,HF_wild_card,2022.2.4,Win32,60.0276127,629f2dccc6e91be06559e2f1,64d2fd46c836a06233681665,64dc9aa432694dcd162eb111,,,,,,,decisionTrl,resources/DBN.BMP,resources/DY.BMP,Door3,0.185185185,0.01666666,1,0,0,0.5061,optionRight,70,7860,4,18,0,18,0,1,,,,,,,,,,,,,,,,,,,,,,,,,,,,,,,,,,,,,,,
,,,,,,,,2023-08-16_10h45.21.464,HF_wild_card,2022.2.4,Win32,60.0276127,629f2dccc6e91be06559e2f1,64d2fd46c836a06233681665,64dc9aa432694dcd162eb111,,,,,,,decisionTrl,resources/DR.BMP,resources/DBN.BMP,Door4,0.202777792,0.026851831,1,0,0,0.6152,optionRight,60,7920,4,19,0,19,0,1,,,,,,,,,,,,,,,,,,,,,,,,,,,,,,,,,,,,,,,
,,,,,,,,2023-08-16_10h45.21.464,HF_wild_card,2022.2.4,Win32,60.0276127,629f2dccc6e91be06559e2f1,64d2fd46c836a06233681665,64dc9aa432694dcd162eb111,,,,,,,sngl,resources/DR.BMP,resources/Empty.png,WildCard_NonEx,-0.208333333,-0.01203703,1,0,0,0.5141,optionLeft,55,7975,4,20,0,20,0,1,,,,,,,,,,,,,,,,,,,,,,,,,,,,,,,,,,,,,,,
,,,,,,,,2023-08-16_10h45.21.464,HF_wild_card,2022.2.4,Win32,60.0276127,629f2dccc6e91be06559e2f1,64d2fd46c836a06233681665,64dc9aa432694dcd162eb111,,,,,,,sngl,resources/Empty.png,resources/DP.BMP,Door1,0.180555556,-0.003703718,1,0,0,0.5154,optionRight,30,8005,4,21,0,21,0,1,,,,,,,,,,,,,,,,,,,,,,,,,,,,,,,,,,,,,,,
,,,,,,,,2023-08-16_10h45.21.464,HF_wild_card,2022.2.4,Win32,60.0276127,629f2dccc6e91be06559e2f1,64d2fd46c836a06233681665,64dc9aa432694dcd162eb111,,,,,,,decisionTrl,resources/DY.BMP,resources/DBN.BMP,Door4,0.173148191,0.049999979,1,0,0,0.57,optionRight,80,8085,4,22,0,22,0,1,,,,,,,,,,,,,,,,,,,,,,,,,,,,,,,,,,,,,,,
,,,,,,,,2023-08-16_10h45.21.464,HF_wild_card,2022.2.4,Win32,60.0276127,629f2dccc6e91be06559e2f1,64d2fd46c836a06233681665,64dc9aa432694dcd162eb111,,,,,,,ctch,resources/DG.BMP,resources/DY.BMP,Door3,0.136111153,-0.002777771,1,0,0,0.5908,optionRight,70,8155,4,23,0,23,0,1,,,,,,,,,,,,,,,,,,,,,,,,,,,,,,,,,,,,,,,
,,,,,,,,2023-08-16_10h45.21.464,HF_wild_card,2022.2.4,Win32,60.0276127,629f2dccc6e91be06559e2f1,64d2fd46c836a06233681665,64dc9aa432694dcd162eb111,,,,,,,sngl,resources/DY.BMP,resources/Empty.png,Door3,-0.215740698,-0.003703718,1,0,0,0.5196,optionLeft,70,8225,4,24,0,24,0,1,,,,,,,,,,,,,,,,,,,,,,,,,,,,,,,,,,,,,,,
,,,,,,,,2023-08-16_10h45.21.464,HF_wild_card,2022.2.4,Win32,60.0276127,629f2dccc6e91be06559e2f1,64d2fd46c836a06233681665,64dc9aa432694dcd162eb111,,,,,,,decisionTrl,resources/DP.BMP,resources/DG.BMP,Door1,-0.223148134,-0.0074074,1,0,0,0.9141,optionLeft,30,8255,4,25,0,25,0,1,,,,,,,,,,,,,,,,,,,,,,,,,,,,,,,,,,,,,,,
,,,,,,,,2023-08-16_10h45.21.464,HF_wild_card,2022.2.4,Win32,60.0276127,629f2dccc6e91be06559e2f1,64d2fd46c836a06233681665,64dc9aa432694dcd162eb111,,,,,,,decisionTrl,resources/DR.BMP,resources/DG.BMP,Door2,0.220370399,0.034259266,1,0,0,0.5716,optionRight,40,8295,4,26,0,26,0,1,,,,,,,,,,,,,,,,,,,,,,,,,,,,,,,,,,,,,,,
,,,,,,,,2023-08-16_10h45.21.464,HF_wild_card,2022.2.4,Win32,60.0276127,629f2dccc6e91be06559e2f1,64d2fd46c836a06233681665,64dc9aa432694dcd162eb111,,,,,,,decisionTrl,resources/DBN.BMP,resources/DR.BMP,Door4,-0.212037051,0.008333312,1,0,0,1.1465,optionLeft,60,8355,4,27,0,27,0,1,,,,,,,,,,,,,,,,,,,,,,,,,,,,,,,,,,,,,,,
,,,,,,,,2023-08-16_10h45.21.464,HF_wild_card,2022.2.4,Win32,60.0276127,629f2dccc6e91be06559e2f1,64d2fd46c836a06233681665,64dc9aa432694dcd162eb111,,,,,,,decisionTrl,resources/DY.BMP,resources/DBN.BMP,Door4,0.187962991,0.026851831,1,0,0,0.5221,optionRight,60,8415,4,28,0,28,0,1,,,,,,,,,,,,,,,,,,,,,,,,,,,,,,,,,,,,,,,
,,,,,,,,2023-08-16_10h45.21.464,HF_wild_card,2022.2.4,Win32,60.0276127,629f2dccc6e91be06559e2f1,64d2fd46c836a06233681665,64dc9aa432694dcd162eb111,,,,,,,sngl,resources/Empty.png,resources/DBN.BMP,Door4,0.20185188,0.014814801,1,0,0,0.523,optionRight,80,8495,4,29,0,29,0,1,,,,,,,,,,,,,,,,,,,,,,,,,,,,,,,,,,,,,,,
,,,,,,,,2023-08-16_10h45.21.464,HF_wild_card,2022.2.4,Win32,60.0276127,629f2dccc6e91be06559e2f1,64d2fd46c836a06233681665,64dc9aa432694dcd162eb111,,,,,,,decisionTrl,resources/DG.BMP,resources/DP.BMP,Door2,-0.259259259,-0.001851859,1,0,0,0.9481,optionLeft,40,8535,4,30,0,30,0,1,,,,,,,,,,,,,,,,,,,,,,,,,,,,,,,,,,,,,,,
,,,,,,,,2023-08-16_10h45.21.464,HF_wild_card,2022.2.4,Win32,60.0276127,629f2dccc6e91be06559e2f1,64d2fd46c836a06233681665,64dc9aa432694dcd162eb111,,,,,,,ctch,resources/DP.BMP,resources/DBN.BMP,Door4,0.186111097,-0.015740748,1,0,0,0.5727,optionRight,80,8615,4,31,0,31,0,1,,,,,,,,,,,,,,,,,,,,,,,,,,,,,,,,,,,,,,,
,,,,,,,,2023-08-16_10h45.21.464,HF_wild_card,2022.2.4,Win32,60.0276127,629f2dccc6e91be06559e2f1,64d2fd46c836a06233681665,64dc9aa432694dcd162eb111,,,,,,,sngl,resources/DR.BMP,resources/Empty.png,WildCard_NonEx,-0.191666638,-0.020370377,1,0,0,0.5144,optionLeft,45,8660,4,32,0,32,0,1,,,,,,,,,,,,,,,,,,,,,,,,,,,,,,,,,,,,,,,
,,,,,,,,2023-08-16_10h45.21.464,HF_wild_card,2022.2.4,Win32,60.0276127,629f2dccc6e91be06559e2f1,64d2fd46c836a06233681665,64dc9aa432694dcd162eb111,,,,,,,ctch,resources/DBN.BMP,resources/DP.BMP,Door4,-0.271296254,-0.011111118,1,0,0,0.5986,optionLeft,80,8740,4,33,0,33,0,1,,,,,,,,,,,,,,,,,,,,,,,,,,,,,,,,,,,,,,,
,,,,,,,,2023-08-16_10h45.21.464,HF_wild_card,2022.2.4,Win32,60.0276127,629f2dccc6e91be06559e2f1,64d2fd46c836a06233681665,64dc9aa432694dcd162eb111,,,,,,,decisionTrl,resources/DG.BMP,resources/DP.BMP,Door2,-0.212962963,0.062962956,1,0,0,1.2385,optionLeft,20,8760,4,34,0,34,0,1,,,,,,,,,,,,,,,,,,,,,,,,,,,,,,,,,,,,,,,
,,,,,,,,2023-08-16_10h45.21.464,HF_wild_card,2022.2.4,Win32,60.0276127,629f2dccc6e91be06559e2f1,64d2fd46c836a06233681665,64dc9aa432694dcd162eb111,,,,,,,decisionTrl,resources/DY.BMP,resources/DR.BMP,WildCard_NonEx,0.146296325,0.008333312,1,0,0,0.6981,optionRight,45,8805,4,35,0,35,0,1,,,,,,,,,,,,,,,,,,,,,,,,,,,,,,,,,,,,,,,
,,,,,,,,2023-08-16_10h45.21.464,HF_wild_card,2022.2.4,Win32,60.0276127,629f2dccc6e91be06559e2f1,64d2fd46c836a06233681665,64dc9aa432694dcd162eb111,,,,,,,decisionTrl,resources/DG.BMP,resources/DP.BMP,Door2,-0.201851809,0.022222201,1,0,0,0.5726,optionLeft,20,8825,4,36,0,36,0,1,,,,,,,,,,,,,,,,,,,,,,,,,,,,,,,,,,,,,,,
,,,,,,,,2023-08-16_10h45.21.464,HF_wild_card,2022.2.4,Win32,60.0276127,629f2dccc6e91be06559e2f1,64d2fd46c836a06233681665,64dc9aa432694dcd162eb111,,,,,,,decisionTrl,resources/DP.BMP,resources/DG.BMP,Door2,0.164814843,0.01944443,1,0,0,0.6243,optionRight,40,8865,4,37,0,37,0,1,,,,,,,,,,,,,,,,,,,,,,,,,,,,,,,,,,,,,,,
,,,,,,,,2023-08-16_10h45.21.464,HF_wild_card,2022.2.4,Win32,60.0276127,629f2dccc6e91be06559e2f1,64d2fd46c836a06233681665,64dc9aa432694dcd162eb111,,,,,,,ctch,resources/DBN.BMP,resources/DP.BMP,Door4,-0.241666653,-0.030555548,1,0,0,0.6057,optionLeft,60,8925,4,38,0,38,0,1,,,,,,,,,,,,,,,,,,,,,,,,,,,,,,,,,,,,,,,
,,,,,,,,2023-08-16_10h45.21.464,HF_wild_card,2022.2.4,Win32,60.0276127,629f2dccc6e91be06559e2f1,64d2fd46c836a06233681665,64dc9aa432694dcd162eb111,,,,,,,sngl,resources/DBN.BMP,resources/Empty.png,Door4,-0.25462963,-0.051851873,1,0,0,0.5062,optionLeft,60,8985,4,39,0,39,0,1,,,,,,,,,,,,,,,,,,,,,,,,,,,,,,,,,,,,,,,
,,,,,,,,2023-08-16_10h45.21.464,HF_wild_card,2022.2.4,Win32,60.0276127,629f2dccc6e91be06559e2f1,64d2fd46c836a06233681665,64dc9aa432694dcd162eb111,,,,,,,decisionTrl,resources/DBN.BMP,resources/DY.BMP,Door4,-0.201851809,-0.022222236,1,0,0,0.5646,optionLeft,80,9065,4,40,0,40,0,1,,,,,,,,,,,,,,,,,,,,,,,,,,,,,,,,,,,,,,,
,,,,,,,,2023-08-16_10h45.21.464,HF_wild_card,2022.2.4,Win32,60.0276127,629f2dccc6e91be06559e2f1,64d2fd46c836a06233681665,64dc9aa432694dcd162eb111,,,,,,,sngl,resources/Empty.png,resources/DR.BMP,WildCard_NonEx,0.183333362,0.009259259,1,0,0,0.4551,optionRight,55,9120,4,41,0,41,0,1,,,,,,,,,,,,,,,,,,,,,,,,,,,,,,,,,,,,,,,
,,,,,,,,2023-08-16_10h45.21.464,HF_wild_card,2022.2.4,Win32,60.0276127,629f2dccc6e91be06559e2f1,64d2fd46c836a06233681665,64dc9aa432694dcd162eb111,,,,,,,sngl,resources/Empty.png,resources/DY.BMP,Door3,0.247222265,0.001851859,1,0,0,0.4649,optionRight,70,9190,4,42,0,42,0,1,,,,,,,,,,,,,,,,,,,,,,,,,,,,,,,,,,,,,,,
,,,,,,,,2023-08-16_10h45.21.464,HF_wild_card,2022.2.4,Win32,60.0276127,629f2dccc6e91be06559e2f1,64d2fd46c836a06233681665,64dc9aa432694dcd162eb111,,,,,,,sngl,resources/Empty.png,resources/DR.BMP,WildCard_NonEx,0.18240745,-0.00462963,1,0,0,0.4723,optionRight,45,9235,4,43,0,43,0,1,,,,,,,,,,,,,,,,,,,,,,,,,,,,,,,,,,,,,,,
,,,,,,,,2023-08-16_10h45.21.464,HF_wild_card,2022.2.4,Win32,60.0276127,629f2dccc6e91be06559e2f1,64d2fd46c836a06233681665,64dc9aa432694dcd162eb111,,,,,,,,,,,,,,,,,,,,,,,,,,3,0,3,0,1,,,,,,,,,,,,,,,,,,,,,,,,,,,,,,,,,,
,,,,,,,,2023-08-16_10h45.21.464,HF_wild_card,2022.2.4,Win32,60.0276127,629f2dccc6e91be06559e2f1,64d2fd46c836a06233681665,64dc9aa432694dcd162eb111,,,,,,,decisionTrl,resources/DG.BMP,resources/DR.BMP,WildCard_NonEx,0.224074116,0.01666666,1,0,0,0.6191,optionRight,55,9290,5,0,0,0,0,1,,,,,,,,,,,,,,,,,,,,,,,,,,,,,,,,,,,,,,,
,,,,,,,,2023-08-16_10h45.21.464,HF_wild_card,2022.2.4,Win32,60.0276127,629f2dccc6e91be06559e2f1,64d2fd46c836a06233681665,64dc9aa432694dcd162eb111,,,,,,,sngl,resources/DBN.BMP,resources/Empty.png,Door4,-0.248148106,-0.009259259,1,0,0,0.5221,optionLeft,80,9370,5,1,0,1,0,1,,,,,,,,,,,,,,,,,,,,,,,,,,,,,,,,,,,,,,,
,,,,,,,,2023-08-16_10h45.21.464,HF_wild_card,2022.2.4,Win32,60.0276127,629f2dccc6e91be06559e2f1,64d2fd46c836a06233681665,64dc9aa432694dcd162eb111,,,,,,,decisionTrl,resources/DG.BMP,resources/DP.BMP,Door2,-0.182407379,-0.009259259,1,0,0,0.5807,optionLeft,40,9410,5,2,0,2,0,1,,,,,,,,,,,,,,,,,,,,,,,,,,,,,,,,,,,,,,,
,,,,,,,,2023-08-16_10h45.21.464,HF_wild_card,2022.2.4,Win32,60.0276127,629f2dccc6e91be06559e2f1,64d2fd46c836a06233681665,64dc9aa432694dcd162eb111,,,,,,,decisionTrl,resources/DY.BMP,resources/DR.BMP,WildCard_NonEx,0.162962949,0.006481489,1,0,0,0.4982,optionRight,45,9455,5,3,0,3,0,1,,,,,,,,,,,,,,,,,,,,,,,,,,,,,,,,,,,,,,,
,,,,,,,,2023-08-16_10h45.21.464,HF_wild_card,2022.2.4,Win32,60.0276127,629f2dccc6e91be06559e2f1,64d2fd46c836a06233681665,64dc9aa432694dcd162eb111,,,,,,,decisionTrl,resources/DP.BMP,resources/DG.BMP,Door2,0.285185213,0.015740748,1,0,0,1.0141,optionRight,20,9475,5,4,0,4,0,1,,,,,,,,,,,,,,,,,,,,,,,,,,,,,,,,,,,,,,,
,,,,,,,,2023-08-16_10h45.21.464,HF_wild_card,2022.2.4,Win32,60.0276127,629f2dccc6e91be06559e2f1,64d2fd46c836a06233681665,64dc9aa432694dcd162eb111,,,,,,,decisionTrl,resources/DBN.BMP,resources/DY.BMP,Door4,-0.215740698,0.043518526,1,0,0,0.6075,optionLeft,60,9535,5,5,0,5,0,1,,,,,,,,,,,,,,,,,,,,,,,,,,,,,,,,,,,,,,,
,,,,,,,,2023-08-16_10h45.21.464,HF_wild_card,2022.2.4,Win32,60.0276127,629f2dccc6e91be06559e2f1,64d2fd46c836a06233681665,64dc9aa432694dcd162eb111,,,,,,,decisionTrl,resources/DY.BMP,resources/DBN.BMP,Door3,-0.223148134,0.000925912,1,0,0,0.6222,optionLeft,70,9605,5,6,0,6,0,1,,,,,,,,,,,,,,,,,,,,,,,,,,,,,,,,,,,,,,,
,,,,,,,,2023-08-16_10h45.21.464,HF_wild_card,2022.2.4,Win32,60.0276127,629f2dccc6e91be06559e2f1,64d2fd46c836a06233681665,64dc9aa432694dcd162eb111,,,,,,,decisionTrl,resources/DBN.BMP,resources/DY.BMP,Door3,0.199999986,0.003703683,1,0,0,0.5237,optionRight,70,9675,5,7,0,7,0,1,,,,,,,,,,,,,,,,,,,,,,,,,,,,,,,,,,,,,,,
,,,,,,,,2023-08-16_10h45.21.464,HF_wild_card,2022.2.4,Win32,60.0276127,629f2dccc6e91be06559e2f1,64d2fd46c836a06233681665,64dc9aa432694dcd162eb111,,,,,,,ctch,resources/DP.BMP,resources/DBN.BMP,Door4,0.20185188,0.002777771,1,0,0,0.5971,optionRight,80,9755,5,8,0,8,0,1,,,,,,,,,,,,,,,,,,,,,,,,,,,,,,,,,,,,,,,
,,,,,,,,2023-08-16_10h45.21.464,HF_wild_card,2022.2.4,Win32,60.0276127,629f2dccc6e91be06559e2f1,64d2fd46c836a06233681665,64dc9aa432694dcd162eb111,,,,,,,ctch,resources/DY.BMP,resources/DG.BMP,Door3,-0.193518533,-0.053703697,1,0,0,0.998,optionLeft,70,9825,5,9,0,9,0,1,,,,,,,,,,,,,,,,,,,,,,,,,,,,,,,,,,,,,,,
,,,,,,,,2023-08-16_10h45.21.464,HF_wild_card,2022.2.4,Win32,60.0276127,629f2dccc6e91be06559e2f1,64d2fd46c836a06233681665,64dc9aa432694dcd162eb111,,,,,,,sngl,resources/Empty.png,resources/DG.BMP,Door2,0.159259302,-0.003703718,1,0,0,0.6063,optionRight,20,9845,5,10,0,10,0,1,,,,,,,,,,,,,,,,,,,,,,,,,,,,,,,,,,,,,,,
,,,,,,,,2023-08-16_10h45.21.464,HF_wild_card,2022.2.4,Win32,60.0276127,629f2dccc6e91be06559e2f1,64d2fd46c836a06233681665,64dc9aa432694dcd162eb111,,,,,,,decisionTrl,resources/DR.BMP,resources/DP.BMP,WildCard_NonEx,-0.324074074,-0.034259266,1,0,0,0.6059,optionLeft,55,9900,5,11,0,11,0,1,,,,,,,,,,,,,,,,,,,,,,,,,,,,,,,,,,,,,,,
,,,,,,,,2023-08-16_10h45.21.464,HF_wild_card,2022.2.4,Win32,60.0276127,629f2dccc6e91be06559e2f1,64d2fd46c836a06233681665,64dc9aa432694dcd162eb111,,,,,,,decisionTrl,resources/DP.BMP,resources/DG.BMP,Door2,0.253703718,0.032407407,1,0,0,1.2474,optionRight,40,9940,5,12,0,12,0,1,,,,,,,,,,,,,,,,,,,,,,,,,,,,,,,,,,,,,,,
,,,,,,,,2023-08-16_10h45.21.464,HF_wild_card,2022.2.4,Win32,60.0276127,629f2dccc6e91be06559e2f1,64d2fd46c836a06233681665,64dc9aa432694dcd162eb111,,,,,,,ctch,resources/DBN.BMP,resources/DP.BMP,Door4,-0.189814815,-0.036111125,1,0,0,0.6224,optionLeft,80,10020,5,13,0,13,0,1,,,,,,,,,,,,,,,,,,,,,,,,,,,,,,,,,,,,,,,
,,,,,,,,2023-08-16_10h45.21.464,HF_wild_card,2022.2.4,Win32,60.0276127,629f2dccc6e91be06559e2f1,64d2fd46c836a06233681665,64dc9aa432694dcd162eb111,,,,,,,decisionTrl,resources/DG.BMP,resources/DP.BMP,Door2,-0.215740698,-0.043518526,1,0,0,0.6141,optionLeft,40,10060,5,14,0,14,0,1,,,,,,,,,,,,,,,,,,,,,,,,,,,,,,,,,,,,,,,
,,,,,,,,2023-08-16_10h45.21.464,HF_wild_card,2022.2.4,Win32,60.0276127,629f2dccc6e91be06559e2f1,64d2fd46c836a06233681665,64dc9aa432694dcd162eb111,,,,,,,sngl,resources/DR.BMP,resources/Empty.png,WildCard_NonEx,-0.252777735,-0.058333326,1,0,0,0.5909,optionLeft,55,10115,5,15,0,15,0,1,,,,,,,,,,,,,,,,,,,,,,,,,,,,,,,,,,,,,,,
,,,,,,,,2023-08-16_10h45.21.464,HF_wild_card,2022.2.4,Win32,60.0276127,629f2dccc6e91be06559e2f1,64d2fd46c836a06233681665,64dc9aa432694dcd162eb111,,,,,,,decisionTrl,resources/DY.BMP,resources/DBN.BMP,Door3,-0.263888889,-0.035185178,1,0,0,0.4815,optionLeft,70,10185,5,16,0,16,0,1,,,,,,,,,,,,,,,,,,,,,,,,,,,,,,,,,,,,,,,
,,,,,,,,2023-08-16_10h45.21.464,HF_wild_card,2022.2.4,Win32,60.0276127,629f2dccc6e91be06559e2f1,64d2fd46c836a06233681665,64dc9aa432694dcd162eb111,,,,,,,sngl,resources/DG.BMP,resources/Empty.png,Door2,-0.201851809,-0.018518519,1,0,0,0.5391,optionLeft,40,10225,5,17,0,17,0,1,,,,,,,,,,,,,,,,,,,,,,,,,,,,,,,,,,,,,,,
,,,,,,,,2023-08-16_10h45.21.464,HF_wild_card,2022.2.4,Win32,60.0276127,629f2dccc6e91be06559e2f1,64d2fd46c836a06233681665,64dc9aa432694dcd162eb111,,,,,,,decisionTrl,resources/DR.BMP,resources/DBN.BMP,Door4,0.157407407,-0.01666666,1,0,0,0.8079,optionRight,60,10285,5,18,0,18,0,1,,,,,,,,,,,,,,,,,,,,,,,,,,,,,,,,,,,,,,,
,,,,,,,,2023-08-16_10h45.21.464,HF_wild_card,2022.2.4,Win32,60.0276127,629f2dccc6e91be06559e2f1,64d2fd46c836a06233681665,64dc9aa432694dcd162eb111,,,,,,,decisionTrl,resources/DBN.BMP,resources/DR.BMP,Door4,-0.204629616,-0.027777778,1,0,0,0.5483,optionLeft,80,10365,5,19,0,19,0,1,,,,,,,,,,,,,,,,,,,,,,,,,,,,,,,,,,,,,,,
,,,,,,,,2023-08-16_10h45.21.464,HF_wild_card,2022.2.4,Win32,60.0276127,629f2dccc6e91be06559e2f1,64d2fd46c836a06233681665,64dc9aa432694dcd162eb111,,,,,,,sngl,resources/Empty.png,resources/DR.BMP,WildCard_NonEx,0.250925912,0.00462963,1,0,0,0.4818,optionRight,45,10410,5,20,0,20,0,1,,,,,,,,,,,,,,,,,,,,,,,,,,,,,,,,,,,,,,,
,,,,,,,,2023-08-16_10h45.21.464,HF_wild_card,2022.2.4,Win32,60.0276127,629f2dccc6e91be06559e2f1,64d2fd46c836a06233681665,64dc9aa432694dcd162eb111,,,,,,,sngl,resources/DP.BMP,resources/Empty.png,Door1,-0.240740741,-0.078703704,1,0,0,0.5483,optionLeft,30,10440,5,21,0,21,0,1,,,,,,,,,,,,,,,,,,,,,,,,,,,,,,,,,,,,,,,
,,,,,,,,2023-08-16_10h45.21.464,HF_wild_card,2022.2.4,Win32,60.0276127,629f2dccc6e91be06559e2f1,64d2fd46c836a06233681665,64dc9aa432694dcd162eb111,,,,,,,decisionTrl,resources/DY.BMP,resources/DBN.BMP,Door4,0.151851866,-0.010185206,1,0,0,0.5224,optionRight,80,10520,5,22,0,22,0,1,,,,,,,,,,,,,,,,,,,,,,,,,,,,,,,,,,,,,,,
,,,,,,,,2023-08-16_10h45.21.464,HF_wild_card,2022.2.4,Win32,60.0276127,629f2dccc6e91be06559e2f1,64d2fd46c836a06233681665,64dc9aa432694dcd162eb111,,,,,,,decisionTrl,resources/DBN.BMP,resources/DY.BMP,Door3,0.203703704,-0.003703718,1,0,0,0.5387,optionRight,70,10590,5,23,0,23,0,1,,,,,,,,,,,,,,,,,,,,,,,,,,,,,,,,,,,,,,,
,,,,,,,,2023-08-16_10h45.21.464,HF_wild_card,2022.2.4,Win32,60.0276127,629f2dccc6e91be06559e2f1,64d2fd46c836a06233681665,64dc9aa432694dcd162eb111,,,,,,,decisionTrl,resources/DY.BMP,resources/DBN.BMP,Door4,0.301851908,0.059259238,1,0,0,0.7843,optionRight,80,10670,5,24,0,24,0,1,,,,,,,,,,,,,,,,,,,,,,,,,,,,,,,,,,,,,,,
,,,,,,,,2023-08-16_10h45.21.464,HF_wild_card,2022.2.4,Win32,60.0276127,629f2dccc6e91be06559e2f1,64d2fd46c836a06233681665,64dc9aa432694dcd162eb111,,,,,,,ctch,resources/DBN.BMP,resources/DP.BMP,Door4,-0.287962949,-0.025925919,1,0,0,0.7483,optionLeft,60,10730,5,25,0,25,0,1,,,,,,,,,,,,,,,,,,,,,,,,,,,,,,,,,,,,,,,
,,,,,,,,2023-08-16_10h45.21.464,HF_wild_card,2022.2.4,Win32,60.0276127,629f2dccc6e91be06559e2f1,64d2fd46c836a06233681665,64dc9aa432694dcd162eb111,,,,,,,decisionTrl,resources/DG.BMP,resources/DP.BMP,Door2,-0.214814787,-0.020370377,1,0,0,1.0887,optionLeft,40,10770,5,26,0,26,0,1,,,,,,,,,,,,,,,,,,,,,,,,,,,,,,,,,,,,,,,
,,,,,,,,2023-08-16_10h45.21.464,HF_wild_card,2022.2.4,Win32,60.0276127,629f2dccc6e91be06559e2f1,64d2fd46c836a06233681665,64dc9aa432694dcd162eb111,,,,,,,decisionTrl,resources/DP.BMP,resources/DR.BMP,WildCard_NonEx,0.231481481,-0.017592607,1,0,0,0.6558,optionRight,45,10815,5,27,0,27,0,1,,,,,,,,,,,,,,,,,,,,,,,,,,,,,,,,,,,,,,,
,,,,,,,,2023-08-16_10h45.21.464,HF_wild_card,2022.2.4,Win32,60.0276127,629f2dccc6e91be06559e2f1,64d2fd46c836a06233681665,64dc9aa432694dcd162eb111,,,,,,,decisionTrl,resources/DG.BMP,resources/DP.BMP,Door2,-0.203703704,-0.031481496,1,0,0,0.5392,optionLeft,40,10855,5,28,0,28,0,1,,,,,,,,,,,,,,,,,,,,,,,,,,,,,,,,,,,,,,,
,,,,,,,,2023-08-16_10h45.21.464,HF_wild_card,2022.2.4,Win32,60.0276127,629f2dccc6e91be06559e2f1,64d2fd46c836a06233681665,64dc9aa432694dcd162eb111,,,,,,,sngl,resources/DR.BMP,resources/Empty.png,WildCard_NonEx,-0.298148155,-0.046296296,1,0,0,0.531,optionLeft,45,10900,5,29,0,29,0,1,,,,,,,,,,,,,,,,,,,,,,,,,,,,,,,,,,,,,,,
,,,,,,,,2023-08-16_10h45.21.464,HF_wild_card,2022.2.4,Win32,60.0276127,629f2dccc6e91be06559e2f1,64d2fd46c836a06233681665,64dc9aa432694dcd162eb111,,,,,,,sngl,resources/DY.BMP,resources/Empty.png,Door3,-0.249074088,-0.043518526,1,0,0,0.5392,optionLeft,70,10970,5,30,0,30,0,1,,,,,,,,,,,,,,,,,,,,,,,,,,,,,,,,,,,,,,,
,,,,,,,,2023-08-16_10h45.21.464,HF_wild_card,2022.2.4,Win32,60.0276127,629f2dccc6e91be06559e2f1,64d2fd46c836a06233681665,64dc9aa432694dcd162eb111,,,,,,,sngl,resources/Empty.png,resources/DY.BMP,Door3,0.185185185,0.002777771,1,0,0,0.5057,optionRight,70,11040,5,31,0,31,0,1,,,,,,,,,,,,,,,,,,,,,,,,,,,,,,,,,,,,,,,
,,,,,,,,2023-08-16_10h45.21.464,HF_wild_card,2022.2.4,Win32,60.0276127,629f2dccc6e91be06559e2f1,64d2fd46c836a06233681665,64dc9aa432694dcd162eb111,,,,,,,ctch,resources/DG.BMP,resources/DY.BMP,Door3,0.188888903,0.021296289,1,0,0,0.4981,optionRight,70,11110,5,32,0,32,0,1,,,,,,,,,,,,,,,,,,,,,,,,,,,,,,,,,,,,,,,
,,,,,,,,2023-08-16_10h45.21.464,HF_wild_card,2022.2.4,Win32,60.0276127,629f2dccc6e91be06559e2f1,64d2fd46c836a06233681665,64dc9aa432694dcd162eb111,,,,,,,ctch,resources/DY.BMP,resources/DG.BMP,Door3,-0.234259217,-0.068518533,1,0,0,0.4815,optionLeft,70,11180,5,33,0,33,0,1,,,,,,,,,,,,,,,,,,,,,,,,,,,,,,,,,,,,,,,
,,,,,,,,2023-08-16_10h45.21.464,HF_wild_card,2022.2.4,Win32,60.0276127,629f2dccc6e91be06559e2f1,64d2fd46c836a06233681665,64dc9aa432694dcd162eb111,,,,,,,decisionTrl,resources/DP.BMP,resources/DG.BMP,Door1,-0.268518519,-0.100000028,1,0,0,0.6978,optionLeft,30,11210,5,34,0,34,0,1,,,,,,,,,,,,,,,,,,,,,,,,,,,,,,,,,,,,,,,
,,,,,,,,2023-08-16_10h45.21.464,HF_wild_card,2022.2.4,Win32,60.0276127,629f2dccc6e91be06559e2f1,64d2fd46c836a06233681665,64dc9aa432694dcd162eb111,,,,,,,decisionTrl,resources/DP.BMP,resources/DG.BMP,Door2,0.18240745,-0.024074095,1,0,0,0.5149,optionRight,40,11250,5,35,0,35,0,1,,,,,,,,,,,,,,,,,,,,,,,,,,,,,,,,,,,,,,,
,,,,,,,,2023-08-16_10h45.21.464,HF_wild_card,2022.2.4,Win32,60.0276127,629f2dccc6e91be06559e2f1,64d2fd46c836a06233681665,64dc9aa432694dcd162eb111,,,,,,,decisionTrl,resources/DR.BMP,resources/DG.BMP,WildCard_NonEx,-0.155555513,-0.059259273,1,0,0,0.532,optionLeft,45,11295,5,36,0,36,0,1,,,,,,,,,,,,,,,,,,,,,,,,,,,,,,,,,,,,,,,
,,,,,,,,2023-08-16_10h45.21.464,HF_wild_card,2022.2.4,Win32,60.0276127,629f2dccc6e91be06559e2f1,64d2fd46c836a06233681665,64dc9aa432694dcd162eb111,,,,,,,ctch,resources/DP.BMP,resources/DBN.BMP,Door4,0.284259302,0.009259259,1,0,0,0.7814,optionRight,60,11355,5,37,0,37,0,1,,,,,,,,,,,,,,,,,,,,,,,,,,,,,,,,,,,,,,,
,,,,,,,,2023-08-16_10h45.21.464,HF_wild_card,2022.2.4,Win32,60.0276127,629f2dccc6e91be06559e2f1,64d2fd46c836a06233681665,64dc9aa432694dcd162eb111,,,,,,,decisionTrl,resources/DBN.BMP,resources/DY.BMP,Door3,0.238888917,0.01666666,1,0,0,0.5813,optionRight,70,11425,5,38,0,38,0,1,,,,,,,,,,,,,,,,,,,,,,,,,,,,,,,,,,,,,,,
,,,,,,,,2023-08-16_10h45.21.464,HF_wild_card,2022.2.4,Win32,60.0276127,629f2dccc6e91be06559e2f1,64d2fd46c836a06233681665,64dc9aa432694dcd162eb111,,,,,,,sngl,resources/Empty.png,resources/DBN.BMP,Door4,0.237963005,-0.019444466,1,0,0,0.5648,optionRight,60,11485,5,39,0,39,0,1,,,,,,,,,,,,,,,,,,,,,,,,,,,,,,,,,,,,,,,
,,,,,,,,2023-08-16_10h45.21.464,HF_wild_card,2022.2.4,Win32,60.0276127,629f2dccc6e91be06559e2f1,64d2fd46c836a06233681665,64dc9aa432694dcd162eb111,,,,,,,sngl,resources/Empty.png,resources/DR.BMP,WildCard_NonEx,0.212962963,0.0074074,1,0,0,0.5725,optionRight,55,11540,5,40,0,40,0,1,,,,,,,,,,,,,,,,,,,,,,,,,,,,,,,,,,,,,,,
,,,,,,,,2023-08-16_10h45.21.464,HF_wild_card,2022.2.4,Win32,60.0276127,629f2dccc6e91be06559e2f1,64d2fd46c836a06233681665,64dc9aa432694dcd162eb111,,,,,,,ctch,resources/DG.BMP,resources/DY.BMP,Door3,0.202777792,0.01944443,1,0,0,0.5554,optionRight,70,11610,5,41,0,41,0,1,,,,,,,,,,,,,,,,,,,,,,,,,,,,,,,,,,,,,,,
,,,,,,,,2023-08-16_10h45.21.464,HF_wild_card,2022.2.4,Win32,60.0276127,629f2dccc6e91be06559e2f1,64d2fd46c836a06233681665,64dc9aa432694dcd162eb111,,,,,,,decisionTrl,resources/DR.BMP,resources/DY.BMP,Door3,0.258333347,-0.000925947,1,0,0,0.5325,optionRight,70,11680,5,42,0,42,0,1,,,,,,,,,,,,,,,,,,,,,,,,,,,,,,,,,,,,,,,
,,,,,,,,2023-08-16_10h45.21.464,HF_wild_card,2022.2.4,Win32,60.0276127,629f2dccc6e91be06559e2f1,64d2fd46c836a06233681665,64dc9aa432694dcd162eb111,,,,,,,sngl,resources/Empty.png,resources/DP.BMP,Door1,0.249074088,0.045370349,1,0,0,0.4979,optionRight,30,11710,5,43,0,43,0,1,,,,,,,,,,,,,,,,,,,,,,,,,,,,,,,,,,,,,,,
,,,,,,,,2023-08-16_10h45.21.464,HF_wild_card,2022.2.4,Win32,60.0276127,629f2dccc6e91be06559e2f1,64d2fd46c836a06233681665,64dc9aa432694dcd162eb111,,,,,,,,,,,,,,,,,,,,,,,,,,4,0,4,0,1,,,,,,,,,,,,,,,,,,,,,,,,,,,,,,,,,,
,,,,,,,,2023-08-16_10h45.21.464,HF_wild_card,2022.2.4,Win32,60.0276127,629f2dccc6e91be06559e2f1,64d2fd46c836a06233681665,64dc9aa432694dcd162eb111,,,,,,,sngl,resources/DP.BMP,resources/Empty.png,Door1,-0.174074032,-0.151851866,1,0,0,0.6208,optionLeft,30,11740,6,0,0,0,0,1,,,,,,,,,,,,,,,,,,,,,,,,,,,,,,,,,,,,,,,
,,,,,,,,2023-08-16_10h45.21.464,HF_wild_card,2022.2.4,Win32,60.0276127,629f2dccc6e91be06559e2f1,64d2fd46c836a06233681665,64dc9aa432694dcd162eb111,,,,,,,decisionTrl,resources/DP.BMP,resources/DG.BMP,Door1,-0.206481439,-0.076851845,1,0,0,0.489,optionLeft,30,11770,6,1,0,1,0,1,,,,,,,,,,,,,,,,,,,,,,,,,,,,,,,,,,,,,,,
,,,,,,,,2023-08-16_10h45.21.464,HF_wild_card,2022.2.4,Win32,60.0276127,629f2dccc6e91be06559e2f1,64d2fd46c836a06233681665,64dc9aa432694dcd162eb111,,,,,,,decisionTrl,resources/DG.BMP,resources/DR.BMP,WildCard_NonEx,0.187962991,0.023148148,1,0,0,0.4894,optionRight,45,11815,6,2,0,2,0,1,,,,,,,,,,,,,,,,,,,,,,,,,,,,,,,,,,,,,,,
,,,,,,,,2023-08-16_10h45.21.464,HF_wild_card,2022.2.4,Win32,60.0276127,629f2dccc6e91be06559e2f1,64d2fd46c836a06233681665,64dc9aa432694dcd162eb111,,,,,,,sngl,resources/Empty.png,resources/DR.BMP,WildCard_NonEx,0.217592593,0.015740748,1,0,0,0.4648,optionRight,55,11870,6,3,0,3,0,1,,,,,,,,,,,,,,,,,,,,,,,,,,,,,,,,,,,,,,,
,,,,,,,,2023-08-16_10h45.21.464,HF_wild_card,2022.2.4,Win32,60.0276127,629f2dccc6e91be06559e2f1,64d2fd46c836a06233681665,64dc9aa432694dcd162eb111,,,,,,,decisionTrl,resources/DR.BMP,resources/DBN.BMP,Door4,0.226851852,0.023148148,1,0,0,0.8237,optionRight,60,11930,6,4,0,4,0,1,,,,,,,,,,,,,,,,,,,,,,,,,,,,,,,,,,,,,,,
,,,,,,,,2023-08-16_10h45.21.464,HF_wild_card,2022.2.4,Win32,60.0276127,629f2dccc6e91be06559e2f1,64d2fd46c836a06233681665,64dc9aa432694dcd162eb111,,,,,,,decisionTrl,resources/DY.BMP,resources/DBN.BMP,Door4,0.196296339,0.059259238,1,0,0,0.6236,optionRight,60,11990,6,5,0,5,0,1,,,,,,,,,,,,,,,,,,,,,,,,,,,,,,,,,,,,,,,
,,,,,,,,2023-08-16_10h45.21.464,HF_wild_card,2022.2.4,Win32,60.0276127,629f2dccc6e91be06559e2f1,64d2fd46c836a06233681665,64dc9aa432694dcd162eb111,,,,,,,ctch,resources/DG.BMP,resources/DY.BMP,Door3,0.23055557,0.061111097,1,0,0,0.5141,optionRight,70,12060,6,6,0,6,0,1,,,,,,,,,,,,,,,,,,,,,,,,,,,,,,,,,,,,,,,
,,,,,,,,2023-08-16_10h45.21.464,HF_wild_card,2022.2.4,Win32,60.0276127,629f2dccc6e91be06559e2f1,64d2fd46c836a06233681665,64dc9aa432694dcd162eb111,,,,,,,decisionTrl,resources/DY.BMP,resources/DBN.BMP,Door4,0.272222236,0.058333326,1,0,0,0.7886,optionRight,60,12120,6,7,0,7,0,1,,,,,,,,,,,,,,,,,,,,,,,,,,,,,,,,,,,,,,,
,,,,,,,,2023-08-16_10h45.21.464,HF_wild_card,2022.2.4,Win32,60.0276127,629f2dccc6e91be06559e2f1,64d2fd46c836a06233681665,64dc9aa432694dcd162eb111,,,,,,,decisionTrl,resources/DBN.BMP,resources/DR.BMP,Door4,-0.204629616,0.025925919,1,0,0,0.589,optionLeft,80,12200,6,8,0,8,0,1,,,,,,,,,,,,,,,,,,,,,,,,,,,,,,,,,,,,,,,
,,,,,,,,2023-08-16_10h45.21.464,HF_wild_card,2022.2.4,Win32,60.0276127,629f2dccc6e91be06559e2f1,64d2fd46c836a06233681665,64dc9aa432694dcd162eb111,,,,,,,sngl,resources/DR.BMP,resources/Empty.png,WildCard_NonEx,-0.184259273,-0.009259259,1,0,0,0.5219,optionLeft,45,12245,6,9,0,9,0,1,,,,,,,,,,,,,,,,,,,,,,,,,,,,,,,,,,,,,,,
,,,,,,,,2023-08-16_10h45.21.464,HF_wild_card,2022.2.4,Win32,60.0276127,629f2dccc6e91be06559e2f1,64d2fd46c836a06233681665,64dc9aa432694dcd162eb111,,,,,,,sngl,resources/Empty.png,resources/DP.BMP,Door1,0.195370356,0.02870369,1,0,0,0.5482,optionRight,30,12275,6,10,0,10,0,1,,,,,,,,,,,,,,,,,,,,,,,,,,,,,,,,,,,,,,,
,,,,,,,,2023-08-16_10h45.21.464,HF_wild_card,2022.2.4,Win32,60.0276127,629f2dccc6e91be06559e2f1,64d2fd46c836a06233681665,64dc9aa432694dcd162eb111,,,,,,,ctch,resources/DY.BMP,resources/DG.BMP,Door3,-0.262036995,-0.0074074,1,0,0,0.765,optionLeft,70,12345,6,11,0,11,0,1,,,,,,,,,,,,,,,,,,,,,,,,,,,,,,,,,,,,,,,
,,,,,,,,2023-08-16_10h45.21.464,HF_wild_card,2022.2.4,Win32,60.0276127,629f2dccc6e91be06559e2f1,64d2fd46c836a06233681665,64dc9aa432694dcd162eb111,,,,,,,sngl,resources/Empty.png,resources/DR.BMP,WildCard_NonEx,0.169444473,-0.008333347,1,0,0,0.5573,optionRight,45,12390,6,12,0,12,0,1,,,,,,,,,,,,,,,,,,,,,,,,,,,,,,,,,,,,,,,
,,,,,,,,2023-08-16_10h45.21.464,HF_wild_card,2022.2.4,Win32,60.0276127,629f2dccc6e91be06559e2f1,64d2fd46c836a06233681665,64dc9aa432694dcd162eb111,,,,,,,decisionTrl,resources/DBN.BMP,resources/DY.BMP,Door4,-0.186111097,-0.003703718,1,0,0,0.5391,optionLeft,60,12450,6,13,0,13,0,1,,,,,,,,,,,,,,,,,,,,,,,,,,,,,,,,,,,,,,,
,,,,,,,,2023-08-16_10h45.21.464,HF_wild_card,2022.2.4,Win32,60.0276127,629f2dccc6e91be06559e2f1,64d2fd46c836a06233681665,64dc9aa432694dcd162eb111,,,,,,,decisionTrl,resources/DG.BMP,resources/DP.BMP,Door1,0.187962991,0.005555541,1,0,0,0.5477,optionRight,30,12480,6,14,0,14,0,1,,,,,,,,,,,,,,,,,,,,,,,,,,,,,,,,,,,,,,,
,,,,,,,,2023-08-16_10h45.21.464,HF_wild_card,2022.2.4,Win32,60.0276127,629f2dccc6e91be06559e2f1,64d2fd46c836a06233681665,64dc9aa432694dcd162eb111,,,,,,,decisionTrl,resources/DP.BMP,resources/DG.BMP,Door1,-0.17777775,0.03148146,1,0,0,0.6738,optionLeft,30,12510,6,15,0,15,0,1,,,,,,,,,,,,,,,,,,,,,,,,,,,,,,,,,,,,,,,
,,,,,,,,2023-08-16_10h45.21.464,HF_wild_card,2022.2.4,Win32,60.0276127,629f2dccc6e91be06559e2f1,64d2fd46c836a06233681665,64dc9aa432694dcd162eb111,,,,,,,decisionTrl,resources/DP.BMP,resources/DR.BMP,WildCard_NonEx,0.172222208,0.052777785,1,0,0,0.5904,optionRight,55,12565,6,16,0,16,0,1,,,,,,,,,,,,,,,,,,,,,,,,,,,,,,,,,,,,,,,
,,,,,,,,2023-08-16_10h45.21.464,HF_wild_card,2022.2.4,Win32,60.0276127,629f2dccc6e91be06559e2f1,64d2fd46c836a06233681665,64dc9aa432694dcd162eb111,,,,,,,decisionTrl,resources/DBN.BMP,resources/DY.BMP,Door4,-0.215740698,0.0074074,1,0,0,0.7719,optionLeft,80,12645,6,17,0,17,0,1,,,,,,,,,,,,,,,,,,,,,,,,,,,,,,,,,,,,,,,
,,,,,,,,2023-08-16_10h45.21.464,HF_wild_card,2022.2.4,Win32,60.0276127,629f2dccc6e91be06559e2f1,64d2fd46c836a06233681665,64dc9aa432694dcd162eb111,,,,,,,decisionTrl,resources/DR.BMP,resources/DY.BMP,Door3,0.277777778,0.073148127,1,0,0,1.4645,optionRight,70,12715,6,18,0,18,0,1,,,,,,,,,,,,,,,,,,,,,,,,,,,,,,,,,,,,,,,
,,,,,,,,2023-08-16_10h45.21.464,HF_wild_card,2022.2.4,Win32,60.0276127,629f2dccc6e91be06559e2f1,64d2fd46c836a06233681665,64dc9aa432694dcd162eb111,,,,,,,decisionTrl,resources/DG.BMP,resources/DP.BMP,Door1,0.243518547,0.02870369,1,0,0,0.8819,optionRight,30,12745,6,19,0,19,0,1,,,,,,,,,,,,,,,,,,,,,,,,,,,,,,,,,,,,,,,
,,,,,,,,2023-08-16_10h45.21.464,HF_wild_card,2022.2.4,Win32,60.0276127,629f2dccc6e91be06559e2f1,64d2fd46c836a06233681665,64dc9aa432694dcd162eb111,,,,,,,decisionTrl,resources/DBN.BMP,resources/DY.BMP,Door4,-0.265740712,-0.014814836,1,0,0,0.5558,optionLeft,80,12825,6,20,0,20,0,1,,,,,,,,,,,,,,,,,,,,,,,,,,,,,,,,,,,,,,,
,,,,,,,,2023-08-16_10h45.21.464,HF_wild_card,2022.2.4,Win32,60.0276127,629f2dccc6e91be06559e2f1,64d2fd46c836a06233681665,64dc9aa432694dcd162eb111,,,,,,,sngl,resources/Empty.png,resources/DY.BMP,Door3,0.162962949,0.013888889,1,0,0,0.5406,optionRight,70,12895,6,21,0,21,0,1,,,,,,,,,,,,,,,,,,,,,,,,,,,,,,,,,,,,,,,
,,,,,,,,2023-08-16_10h45.21.464,HF_wild_card,2022.2.4,Win32,60.0276127,629f2dccc6e91be06559e2f1,64d2fd46c836a06233681665,64dc9aa432694dcd162eb111,,,,,,,sngl,resources/Empty.png,resources/DBN.BMP,Door4,0.208333333,0.008333312,1,0,0,0.5393,optionRight,80,12975,6,22,0,22,0,1,,,,,,,,,,,,,,,,,,,,,,,,,,,,,,,,,,,,,,,
,,,,,,,,2023-08-16_10h45.21.464,HF_wild_card,2022.2.4,Win32,60.0276127,629f2dccc6e91be06559e2f1,64d2fd46c836a06233681665,64dc9aa432694dcd162eb111,,,,,,,decisionTrl,resources/DP.BMP,resources/DG.BMP,Door1,-0.253703718,-0.006481489,1,0,0,0.6654,optionLeft,30,13005,6,23,0,23,0,1,,,,,,,,,,,,,,,,,,,,,,,,,,,,,,,,,,,,,,,
,,,,,,,,2023-08-16_10h45.21.464,HF_wild_card,2022.2.4,Win32,60.0276127,629f2dccc6e91be06559e2f1,64d2fd46c836a06233681665,64dc9aa432694dcd162eb111,,,,,,,ctch,resources/DBN.BMP,resources/DP.BMP,Door1,0.202777792,0.042592578,1,0,0,0.5078,optionRight,30,13035,6,24,0,24,0,1,,,,,,,,,,,,,,,,,,,,,,,,,,,,,,,,,,,,,,,
,,,,,,,,2023-08-16_10h45.21.464,HF_wild_card,2022.2.4,Win32,60.0276127,629f2dccc6e91be06559e2f1,64d2fd46c836a06233681665,64dc9aa432694dcd162eb111,,,,,,,ctch,resources/DP.BMP,resources/DBN.BMP,Door4,0.33148151,0.11296297,1,0,0,0.6397,optionRight,60,13095,6,25,0,25,0,1,,,,,,,,,,,,,,,,,,,,,,,,,,,,,,,,,,,,,,,
,,,,,,,,2023-08-16_10h45.21.464,HF_wild_card,2022.2.4,Win32,60.0276127,629f2dccc6e91be06559e2f1,64d2fd46c836a06233681665,64dc9aa432694dcd162eb111,,,,,,,decisionTrl,resources/DY.BMP,resources/DBN.BMP,Door4,0.22129631,0.059259238,1,0,0,0.5651,optionRight,60,13155,6,26,0,26,0,1,,,,,,,,,,,,,,,,,,,,,,,,,,,,,,,,,,,,,,,
,,,,,,,,2023-08-16_10h45.21.464,HF_wild_card,2022.2.4,Win32,60.0276127,629f2dccc6e91be06559e2f1,64d2fd46c836a06233681665,64dc9aa432694dcd162eb111,,,,,,,sngl,resources/DR.BMP,resources/Empty.png,WildCard_NonEx,-0.19722218,-0.024074095,1,0,0,0.5245,optionLeft,55,13210,6,27,0,27,0,1,,,,,,,,,,,,,,,,,,,,,,,,,,,,,,,,,,,,,,,
,,,,,,,,2023-08-16_10h45.21.464,HF_wild_card,2022.2.4,Win32,60.0276127,629f2dccc6e91be06559e2f1,64d2fd46c836a06233681665,64dc9aa432694dcd162eb111,,,,,,,decisionTrl,resources/DBN.BMP,resources/DY.BMP,Door4,-0.205555527,-0.0074074,1,0,0,0.5469,optionLeft,80,13290,6,28,0,28,0,1,,,,,,,,,,,,,,,,,,,,,,,,,,,,,,,,,,,,,,,
,,,,,,,,2023-08-16_10h45.21.464,HF_wild_card,2022.2.4,Win32,60.0276127,629f2dccc6e91be06559e2f1,64d2fd46c836a06233681665,64dc9aa432694dcd162eb111,,,,,,,sngl,resources/DY.BMP,resources/Empty.png,Door3,-0.239814829,-0.035185178,1,0,0,0.5147,optionLeft,70,13360,6,29,0,29,0,1,,,,,,,,,,,,,,,,,,,,,,,,,,,,,,,,,,,,,,,
,,,,,,,,2023-08-16_10h45.21.464,HF_wild_card,2022.2.4,Win32,60.0276127,629f2dccc6e91be06559e2f1,64d2fd46c836a06233681665,64dc9aa432694dcd162eb111,,,,,,,ctch,resources/DBN.BMP,resources/DP.BMP,Door4,-0.183333291,-0.01203703,1,0,0,0.5486,optionLeft,80,13440,6,30,0,30,0,1,,,,,,,,,,,,,,,,,,,,,,,,,,,,,,,,,,,,,,,
,,,,,,,,2023-08-16_10h45.21.464,HF_wild_card,2022.2.4,Win32,60.0276127,629f2dccc6e91be06559e2f1,64d2fd46c836a06233681665,64dc9aa432694dcd162eb111,,,,,,,decisionTrl,resources/DG.BMP,resources/DP.BMP,Door2,-0.248148106,-0.013888889,1,0,0,0.6147,optionLeft,20,13460,6,31,0,31,0,1,,,,,,,,,,,,,,,,,,,,,,,,,,,,,,,,,,,,,,,
,,,,,,,,2023-08-16_10h45.21.464,HF_wild_card,2022.2.4,Win32,60.0276127,629f2dccc6e91be06559e2f1,64d2fd46c836a06233681665,64dc9aa432694dcd162eb111,,,,,,,ctch,resources/DY.BMP,resources/DG.BMP,Door3,-0.24537037,-0.015740748,1,0,0,0.9395,optionLeft,70,13530,6,32,0,32,0,1,,,,,,,,,,,,,,,,,,,,,,,,,,,,,,,,,,,,,,,
,,,,,,,,2023-08-16_10h45.21.464,HF_wild_card,2022.2.4,Win32,60.0276127,629f2dccc6e91be06559e2f1,64d2fd46c836a06233681665,64dc9aa432694dcd162eb111,,,,,,,decisionTrl,resources/DP.BMP,resources/DG.BMP,Door2,0.311111168,0.099999993,1,0,0,0.9738,optionRight,40,13570,6,33,0,33,0,1,,,,,,,,,,,,,,,,,,,,,,,,,,,,,,,,,,,,,,,
,,,,,,,,2023-08-16_10h45.21.464,HF_wild_card,2022.2.4,Win32,60.0276127,629f2dccc6e91be06559e2f1,64d2fd46c836a06233681665,64dc9aa432694dcd162eb111,,,,,,,sngl,resources/Empty.png,resources/DG.BMP,Door2,0.214814857,0.046296296,1,0,0,0.6216,optionRight,40,13610,6,34,0,34,0,1,,,,,,,,,,,,,,,,,,,,,,,,,,,,,,,,,,,,,,,
,,,,,,,,2023-08-16_10h45.21.464,HF_wild_card,2022.2.4,Win32,60.0276127,629f2dccc6e91be06559e2f1,64d2fd46c836a06233681665,64dc9aa432694dcd162eb111,,,,,,,decisionTrl,resources/DY.BMP,resources/DR.BMP,Door3,-0.140740712,-0.002777771,1,0,0,0.5238,optionLeft,70,13680,6,35,0,35,0,1,,,,,,,,,,,,,,,,,,,,,,,,,,,,,,,,,,,,,,,
,,,,,,,,2023-08-16_10h45.21.464,HF_wild_card,2022.2.4,Win32,60.0276127,629f2dccc6e91be06559e2f1,64d2fd46c836a06233681665,64dc9aa432694dcd162eb111,,,,,,,ctch,resources/DP.BMP,resources/DBN.BMP,Door4,0.187037079,0.001851859,1,0,0,0.5056,optionRight,80,13760,6,36,0,36,0,1,,,,,,,,,,,,,,,,,,,,,,,,,,,,,,,,,,,,,,,
,,,,,,,,2023-08-16_10h45.21.464,HF_wild_card,2022.2.4,Win32,60.0276127,629f2dccc6e91be06559e2f1,64d2fd46c836a06233681665,64dc9aa432694dcd162eb111,,,,,,,decisionTrl,resources/DR.BMP,resources/DG.BMP,WildCard_NonEx,-0.167592578,0.003703683,1,0,0,0.9969,optionLeft,55,13815,6,37,0,37,0,1,,,,,,,,,,,,,,,,,,,,,,,,,,,,,,,,,,,,,,,
,,,,,,,,2023-08-16_10h45.21.464,HF_wild_card,2022.2.4,Win32,60.0276127,629f2dccc6e91be06559e2f1,64d2fd46c836a06233681665,64dc9aa432694dcd162eb111,,,,,,,decisionTrl,resources/DG.BMP,resources/DP.BMP,Door2,-0.17314812,-0.002777771,1,0,0,0.6142,optionLeft,40,13855,6,38,0,38,0,1,,,,,,,,,,,,,,,,,,,,,,,,,,,,,,,,,,,,,,,
,,,,,,,,2023-08-16_10h45.21.464,HF_wild_card,2022.2.4,Win32,60.0276127,629f2dccc6e91be06559e2f1,64d2fd46c836a06233681665,64dc9aa432694dcd162eb111,,,,,,,sngl,resources/DBN.BMP,resources/Empty.png,Door4,-0.202777792,-0.029629637,1,0,0,0.4982,optionLeft,60,13915,6,39,0,39,0,1,,,,,,,,,,,,,,,,,,,,,,,,,,,,,,,,,,,,,,,
,,,,,,,,2023-08-16_10h45.21.464,HF_wild_card,2022.2.4,Win32,60.0276127,629f2dccc6e91be06559e2f1,64d2fd46c836a06233681665,64dc9aa432694dcd162eb111,,,,,,,decisionTrl,resources/DY.BMP,resources/DBN.BMP,Door4,0.235185199,0.025000007,1,0,0,0.5983,optionRight,60,13975,6,40,0,40,0,1,,,,,,,,,,,,,,,,,,,,,,,,,,,,,,,,,,,,,,,
,,,,,,,,2023-08-16_10h45.21.464,HF_wild_card,2022.2.4,Win32,60.0276127,629f2dccc6e91be06559e2f1,64d2fd46c836a06233681665,64dc9aa432694dcd162eb111,,,,,,,ctch,resources/DG.BMP,resources/DY.BMP,Door3,0.172222208,0.021296289,1,0,0,0.589,optionRight,70,14045,6,41,0,41,0,1,,,,,,,,,,,,,,,,,,,,,,,,,,,,,,,,,,,,,,,
,,,,,,,,2023-08-16_10h45.21.464,HF_wild_card,2022.2.4,Win32,60.0276127,629f2dccc6e91be06559e2f1,64d2fd46c836a06233681665,64dc9aa432694dcd162eb111,,,,,,,sngl,resources/DG.BMP,resources/Empty.png,Door2,-0.198148162,-0.008333347,1,0,0,0.6225,optionLeft,20,14065,6,42,0,42,0,1,,,,,,,,,,,,,,,,,,,,,,,,,,,,,,,,,,,,,,,
,,,,,,,,2023-08-16_10h45.21.464,HF_wild_card,2022.2.4,Win32,60.0276127,629f2dccc6e91be06559e2f1,64d2fd46c836a06233681665,64dc9aa432694dcd162eb111,,,,,,,decisionTrl,resources/DR.BMP,resources/DP.BMP,WildCard_NonEx,-0.276851866,-0.015740748,1,0,0,0.5979,optionLeft,55,14120,6,43,0,43,0,1,,,,,,,,,,,,,,,,,,,,,,,,,,,,,,,,,,,,,,,
,,,,,,,,2023-08-16_10h45.21.464,HF_wild_card,2022.2.4,Win32,60.0276127,629f2dccc6e91be06559e2f1,64d2fd46c836a06233681665,64dc9aa432694dcd162eb111,,,,,,,,,,,,,,,,,,,,,,,,,,5,0,5,0,1,,,,,,,,,,,,,,,,,,,,,,,,,,,,,,,,,,
,,,,,,,,2023-08-16_10h45.21.464,HF_wild_card,2022.2.4,Win32,60.0276127,629f2dccc6e91be06559e2f1,64d2fd46c836a06233681665,64dc9aa432694dcd162eb111,,,,,,,decisionTrl,resources/DG.BMP,resources/DP.BMP,Door2,-0.185185185,-0.023148148,1,0,0,2.3179,optionLeft,20,14140,7,0,0,0,0,1,,,,,,,,,,,,,,,,,,,,,,,,,,,,,,,,,,,,,,,
,,,,,,,,2023-08-16_10h45.21.464,HF_wild_card,2022.2.4,Win32,60.0276127,629f2dccc6e91be06559e2f1,64d2fd46c836a06233681665,64dc9aa432694dcd162eb111,,,,,,,ctch,resources/DY.BMP,resources/DG.BMP,Door3,-0.158333319,-0.025000007,1,0,0,1.0059,optionLeft,70,14210,7,1,0,1,0,1,,,,,,,,,,,,,,,,,,,,,,,,,,,,,,,,,,,,,,,
,,,,,,,,2023-08-16_10h45.21.464,HF_wild_card,2022.2.4,Win32,60.0276127,629f2dccc6e91be06559e2f1,64d2fd46c836a06233681665,64dc9aa432694dcd162eb111,,,,,,,ctch,resources/DBN.BMP,resources/DP.BMP,Door4,-0.208333333,-0.018518519,1,0,0,0.615,optionLeft,60,14270,7,2,0,2,0,1,,,,,,,,,,,,,,,,,,,,,,,,,,,,,,,,,,,,,,,
,,,,,,,,2023-08-16_10h45.21.464,HF_wild_card,2022.2.4,Win32,60.0276127,629f2dccc6e91be06559e2f1,64d2fd46c836a06233681665,64dc9aa432694dcd162eb111,,,,,,,ctch,resources/DG.BMP,resources/DY.BMP,Door3,0.24537037,-0.030555548,1,0,0,0.64,optionRight,70,14340,7,3,0,3,0,1,,,,,,,,,,,,,,,,,,,,,,,,,,,,,,,,,,,,,,,
,,,,,,,,2023-08-16_10h45.21.464,HF_wild_card,2022.2.4,Win32,60.0276127,629f2dccc6e91be06559e2f1,64d2fd46c836a06233681665,64dc9aa432694dcd162eb111,,,,,,,decisionTrl,resources/DG.BMP,resources/DP.BMP,Door2,-0.226851852,-0.011111118,1,0,0,0.8484,optionLeft,40,14380,7,4,0,4,0,1,,,,,,,,,,,,,,,,,,,,,,,,,,,,,,,,,,,,,,,
,,,,,,,,2023-08-16_10h45.21.464,HF_wild_card,2022.2.4,Win32,60.0276127,629f2dccc6e91be06559e2f1,64d2fd46c836a06233681665,64dc9aa432694dcd162eb111,,,,,,,decisionTrl,resources/DP.BMP,resources/DG.BMP,Door1,-0.228703675,-0.022222236,1,0,0,1.2068,optionLeft,30,14410,7,5,0,5,0,1,,,,,,,,,,,,,,,,,,,,,,,,,,,,,,,,,,,,,,,
,,,,,,,,2023-08-16_10h45.21.464,HF_wild_card,2022.2.4,Win32,60.0276127,629f2dccc6e91be06559e2f1,64d2fd46c836a06233681665,64dc9aa432694dcd162eb111,,,,,,,decisionTrl,resources/DBN.BMP,resources/DY.BMP,Door4,-0.212037051,0.005555541,1,0,0,0.606,optionLeft,80,14490,7,6,0,6,0,1,,,,,,,,,,,,,,,,,,,,,,,,,,,,,,,,,,,,,,,
,,,,,,,,2023-08-16_10h45.21.464,HF_wild_card,2022.2.4,Win32,60.0276127,629f2dccc6e91be06559e2f1,64d2fd46c836a06233681665,64dc9aa432694dcd162eb111,,,,,,,decisionTrl,resources/DG.BMP,resources/DP.BMP,Door2,-0.215740698,-0.019444466,1,0,0,0.882,optionLeft,40,14530,7,7,0,7,0,1,,,,,,,,,,,,,,,,,,,,,,,,,,,,,,,,,,,,,,,
,,,,,,,,2023-08-16_10h45.21.464,HF_wild_card,2022.2.4,Win32,60.0276127,629f2dccc6e91be06559e2f1,64d2fd46c836a06233681665,64dc9aa432694dcd162eb111,,,,,,,decisionTrl,resources/DG.BMP,resources/DP.BMP,Door2,-0.176851838,-0.023148148,1,0,0,0.6331,optionLeft,40,14570,7,8,0,8,0,1,,,,,,,,,,,,,,,,,,,,,,,,,,,,,,,,,,,,,,,
,,,,,,,,2023-08-16_10h45.21.464,HF_wild_card,2022.2.4,Win32,60.0276127,629f2dccc6e91be06559e2f1,64d2fd46c836a06233681665,64dc9aa432694dcd162eb111,,,,,,,decisionTrl,resources/DBN.BMP,resources/DY.BMP,Door3,0.218518504,-0.015740748,1,0,0,0.9817,optionRight,70,14640,7,9,0,9,0,1,,,,,,,,,,,,,,,,,,,,,,,,,,,,,,,,,,,,,,,
,,,,,,,,2023-08-16_10h45.21.464,HF_wild_card,2022.2.4,Win32,60.0276127,629f2dccc6e91be06559e2f1,64d2fd46c836a06233681665,64dc9aa432694dcd162eb111,,,,,,,decisionTrl,resources/DY.BMP,resources/DBN.BMP,Door3,-0.250925912,-0.038888896,1,0,0,0.6567,optionLeft,70,14710,7,10,0,10,0,1,,,,,,,,,,,,,,,,,,,,,,,,,,,,,,,,,,,,,,,
,,,,,,,,2023-08-16_10h45.21.464,HF_wild_card,2022.2.4,Win32,60.0276127,629f2dccc6e91be06559e2f1,64d2fd46c836a06233681665,64dc9aa432694dcd162eb111,,,,,,,decisionTrl,resources/DY.BMP,resources/DBN.BMP,Door3,-0.187962921,-0.021296289,1,0,0,0.548,optionLeft,70,14780,7,11,0,11,0,1,,,,,,,,,,,,,,,,,,,,,,,,,,,,,,,,,,,,,,,
,,,,,,,,2023-08-16_10h45.21.464,HF_wild_card,2022.2.4,Win32,60.0276127,629f2dccc6e91be06559e2f1,64d2fd46c836a06233681665,64dc9aa432694dcd162eb111,,,,,,,ctch,resources/DP.BMP,resources/DBN.BMP,Door4,0.162037037,-0.00462963,1,0,0,0.6656,optionRight,60,14840,7,12,0,12,0,1,,,,,,,,,,,,,,,,,,,,,,,,,,,,,,,,,,,,,,,
,,,,,,,,2023-08-16_10h45.21.464,HF_wild_card,2022.2.4,Win32,60.0276127,629f2dccc6e91be06559e2f1,64d2fd46c836a06233681665,64dc9aa432694dcd162eb111,,,,,,,ctch,resources/DP.BMP,resources/DBN.BMP,Door4,0.243518547,0.010185171,1,0,0,0.6064,optionRight,60,14900,7,13,0,13,0,1,,,,,,,,,,,,,,,,,,,,,,,,,,,,,,,,,,,,,,,
,,,,,,,,2023-08-16_10h45.21.464,HF_wild_card,2022.2.4,Win32,60.0276127,629f2dccc6e91be06559e2f1,64d2fd46c836a06233681665,64dc9aa432694dcd162eb111,,,,,,,ctch,resources/DBN.BMP,resources/DP.BMP,Door4,-0.209259245,-0.009259259,1,0,0,0.5824,optionLeft,60,14960,7,14,0,14,0,1,,,,,,,,,,,,,,,,,,,,,,,,,,,,,,,,,,,,,,,
,,,,,,,,2023-08-16_10h45.21.464,HF_wild_card,2022.2.4,Win32,60.0276127,629f2dccc6e91be06559e2f1,64d2fd46c836a06233681665,64dc9aa432694dcd162eb111,,,,,,,decisionTrl,resources/DY.BMP,resources/DBN.BMP,Door3,-0.229629587,-0.019444466,1,0,0,1.2063,optionLeft,70,15030,7,15,0,15,0,1,,,,,,,,,,,,,,,,,,,,,,,,,,,,,,,,,,,,,,,
,,,,,,,,2023-08-16_10h45.21.464,HF_wild_card,2022.2.4,Win32,60.0276127,629f2dccc6e91be06559e2f1,64d2fd46c836a06233681665,64dc9aa432694dcd162eb111,,,,,,,decisionTrl,resources/DY.BMP,resources/DBN.BMP,Door3,-0.237962935,-0.020370377,1,0,0,0.5374,optionLeft,70,15100,7,16,0,16,0,1,,,,,,,,,,,,,,,,,,,,,,,,,,,,,,,,,,,,,,,
,,,,,,,,2023-08-16_10h45.21.464,HF_wild_card,2022.2.4,Win32,60.0276127,629f2dccc6e91be06559e2f1,64d2fd46c836a06233681665,64dc9aa432694dcd162eb111,,,,,,,decisionTrl,resources/DBN.BMP,resources/DY.BMP,Door3,0.199074074,-0.026851866,1,0,0,0.5989,optionRight,70,15170,7,17,0,17,0,1,,,,,,,,,,,,,,,,,,,,,,,,,,,,,,,,,,,,,,,
,,,,,,,,2023-08-16_10h45.21.464,HF_wild_card,2022.2.4,Win32,60.0276127,629f2dccc6e91be06559e2f1,64d2fd46c836a06233681665,64dc9aa432694dcd162eb111,,,,,,,ctch,resources/DG.BMP,resources/DY.BMP,Door3,0.22129631,-0.033333355,1,0,0,0.5652,optionRight,70,15240,7,18,0,18,0,1,,,,,,,,,,,,,,,,,,,,,,,,,,,,,,,,,,,,,,,
,,,,,,,,2023-08-16_10h45.21.464,HF_wild_card,2022.2.4,Win32,60.0276127,629f2dccc6e91be06559e2f1,64d2fd46c836a06233681665,64dc9aa432694dcd162eb111,,,,,,,decisionTrl,resources/DBN.BMP,resources/DY.BMP,Door3,0.212037051,0.015740748,1,0,0,0.4844,optionRight,70,15310,7,19,0,19,0,1,,,,,,,,,,,,,,,,,,,,,,,,,,,,,,,,,,,,,,,
,,,,,,,,2023-08-16_10h45.21.464,HF_wild_card,2022.2.4,Win32,60.0276127,629f2dccc6e91be06559e2f1,64d2fd46c836a06233681665,64dc9aa432694dcd162eb111,,,,,,,decisionTrl,resources/DP.BMP,resources/DG.BMP,Door1,-0.185185185,-0.041666667,1,0,0,0.7649,optionLeft,30,15340,7,20,0,20,0,1,,,,,,,,,,,,,,,,,,,,,,,,,,,,,,,,,,,,,,,
,,,,,,,,2023-08-16_10h45.21.464,HF_wild_card,2022.2.4,Win32,60.0276127,629f2dccc6e91be06559e2f1,64d2fd46c836a06233681665,64dc9aa432694dcd162eb111,,,,,,,decisionTrl,resources/DP.BMP,resources/DG.BMP,Door2,0.223148134,0.051851838,1,0,0,0.9153,optionRight,20,15360,7,21,0,21,0,1,,,,,,,,,,,,,,,,,,,,,,,,,,,,,,,,,,,,,,,
,,,,,,,,2023-08-16_10h45.21.464,HF_wild_card,2022.2.4,Win32,60.0276127,629f2dccc6e91be06559e2f1,64d2fd46c836a06233681665,64dc9aa432694dcd162eb111,,,,,,,decisionTrl,resources/DP.BMP,resources/DG.BMP,Door2,0.103703746,-0.001851859,1,0,0,0.8255,optionRight,20,15380,7,22,0,22,0,1,,,,,,,,,,,,,,,,,,,,,,,,,,,,,,,,,,,,,,,
,,,,,,,,2023-08-16_10h45.21.464,HF_wild_card,2022.2.4,Win32,60.0276127,629f2dccc6e91be06559e2f1,64d2fd46c836a06233681665,64dc9aa432694dcd162eb111,,,,,,,ctch,resources/DP.BMP,resources/DBN.BMP,Door4,0.209259245,0.015740748,1,0,0,0.932,optionRight,60,15440,7,23,0,23,0,1,,,,,,,,,,,,,,,,,,,,,,,,,,,,,,,,,,,,,,,
,,,,,,,,2023-08-16_10h45.21.464,HF_wild_card,2022.2.4,Win32,60.0276127,629f2dccc6e91be06559e2f1,64d2fd46c836a06233681665,64dc9aa432694dcd162eb111,,,,,,,decisionTrl,resources/DP.BMP,resources/DG.BMP,Door2,0.163888931,-0.015740748,1,0,0,1.1318,optionRight,20,15460,7,24,0,24,0,1,,,,,,,,,,,,,,,,,,,,,,,,,,,,,,,,,,,,,,,
,,,,,,,,2023-08-16_10h45.21.464,HF_wild_card,2022.2.4,Win32,60.0276127,629f2dccc6e91be06559e2f1,64d2fd46c836a06233681665,64dc9aa432694dcd162eb111,,,,,,,ctch,resources/DBN.BMP,resources/DP.BMP,Door4,-0.184259273,-0.028703725,1,0,0,0.8321,optionLeft,80,15540,7,25,0,25,0,1,,,,,,,,,,,,,,,,,,,,,,,,,,,,,,,,,,,,,,,
,,,,,,,,2023-08-16_10h45.21.464,HF_wild_card,2022.2.4,Win32,60.0276127,629f2dccc6e91be06559e2f1,64d2fd46c836a06233681665,64dc9aa432694dcd162eb111,,,,,,,decisionTrl,resources/DY.BMP,resources/DBN.BMP,Door3,-0.205555527,-0.013888889,1,0,0,0.9323,optionLeft,70,15610,7,26,0,26,0,1,,,,,,,,,,,,,,,,,,,,,,,,,,,,,,,,,,,,,,,
,,,,,,,,2023-08-16_10h45.21.464,HF_wild_card,2022.2.4,Win32,60.0276127,629f2dccc6e91be06559e2f1,64d2fd46c836a06233681665,64dc9aa432694dcd162eb111,,,,,,,decisionTrl,resources/DY.BMP,resources/DBN.BMP,Door3,-0.207407422,-0.005555577,1,0,0,0.5231,optionLeft,70,15680,7,27,0,27,0,1,,,,,,,,,,,,,,,,,,,,,,,,,,,,,,,,,,,,,,,
,,,,,,,,2023-08-16_10h45.21.464,HF_wild_card,2022.2.4,Win32,60.0276127,629f2dccc6e91be06559e2f1,64d2fd46c836a06233681665,64dc9aa432694dcd162eb111,,,,,,,ctch,resources/DY.BMP,resources/DG.BMP,Door3,-0.215740698,0.011111118,1,0,0,0.5321,optionLeft,70,15750,7,28,0,28,0,1,,,,,,,,,,,,,,,,,,,,,,,,,,,,,,,,,,,,,,,
,,,,,,,,2023-08-16_10h45.21.464,HF_wild_card,2022.2.4,Win32,60.0276127,629f2dccc6e91be06559e2f1,64d2fd46c836a06233681665,64dc9aa432694dcd162eb111,,,,,,,decisionTrl,resources/DG.BMP,resources/DP.BMP,Door2,-0.175925926,-0.009259259,1,0,0,1.2157,optionLeft,20,15770,7,29,0,29,0,1,,,,,,,,,,,,,,,,,,,,,,,,,,,,,,,,,,,,,,,
,,,,,,,,2023-08-16_10h45.21.464,HF_wild_card,2022.2.4,Win32,60.0276127,629f2dccc6e91be06559e2f1,64d2fd46c836a06233681665,64dc9aa432694dcd162eb111,,,,,,,ctch,resources/DG.BMP,resources/DY.BMP,Door3,0.190740727,-0.010185206,1,0,0,1.0557,optionRight,70,15840,7,30,0,30,0,1,,,,,,,,,,,,,,,,,,,,,,,,,,,,,,,,,,,,,,,
,,,,,,,,2023-08-16_10h45.21.464,HF_wild_card,2022.2.4,Win32,60.0276127,629f2dccc6e91be06559e2f1,64d2fd46c836a06233681665,64dc9aa432694dcd162eb111,,,,,,,ctch,resources/DY.BMP,resources/DG.BMP,Door3,-0.224074046,-0.029629637,1,0,0,0.5398,optionLeft,70,15910,7,31,0,31,0,1,,,,,,,,,,,,,,,,,,,,,,,,,,,,,,,,,,,,,,,
,,,,,,,,2023-08-16_10h45.21.464,HF_wild_card,2022.2.4,Win32,60.0276127,629f2dccc6e91be06559e2f1,64d2fd46c836a06233681665,64dc9aa432694dcd162eb111,,,,,,,decisionTrl,resources/DG.BMP,resources/DP.BMP,Door2,-0.215740698,-0.01666666,1,0,0,0.6254,optionLeft,20,15930,7,32,0,32,0,1,,,,,,,,,,,,,,,,,,,,,,,,,,,,,,,,,,,,,,,
,,,,,,,,2023-08-16_10h45.21.464,HF_wild_card,2022.2.4,Win32,60.0276127,629f2dccc6e91be06559e2f1,64d2fd46c836a06233681665,64dc9aa432694dcd162eb111,,,,,,,decisionTrl,resources/DBN.BMP,resources/DY.BMP,Door3,0.164814843,0.013888889,1,0,0,0.9816,optionRight,70,16000,7,33,0,33,0,1,,,,,,,,,,,,,,,,,,,,,,,,,,,,,,,,,,,,,,,
,,,,,,,,2023-08-16_10h45.21.464,HF_wild_card,2022.2.4,Win32,60.0276127,629f2dccc6e91be06559e2f1,64d2fd46c836a06233681665,64dc9aa432694dcd162eb111,,,,,,,decisionTrl,resources/DBN.BMP,resources/DY.BMP,Door3,0.160185213,0.000925912,1,0,0,0.6074,optionRight,70,16070,7,34,0,34,0,1,,,,,,,,,,,,,,,,,,,,,,,,,,,,,,,,,,,,,,,
,,,,,,,,2023-08-16_10h45.21.464,HF_wild_card,2022.2.4,Win32,60.0276127,629f2dccc6e91be06559e2f1,64d2fd46c836a06233681665,64dc9aa432694dcd162eb111,,,,,,,decisionTrl,resources/DP.BMP,resources/DG.BMP,Door2,0.187037079,0.027777778,1,0,0,0.9818,optionRight,40,16110,7,35,0,35,0,1,,,,,,,,,,,,,,,,,,,,,,,,,,,,,,,,,,,,,,,
,,,,,,,,2023-08-16_10h45.21.464,HF_wild_card,2022.2.4,Win32,60.0276127,629f2dccc6e91be06559e2f1,64d2fd46c836a06233681665,64dc9aa432694dcd162eb111,,,,,,,,,,,,,,,,,,,,,,,,,,6,0,6,0,1,,,,,,,,,,,,,,,,,,,,,,,,,,,,,,,,,,
,,,,,,,,2023-08-16_10h45.21.464,HF_wild_card,2022.2.4,Win32,60.0276127,629f2dccc6e91be06559e2f1,64d2fd46c836a06233681665,64dc9aa432694dcd162eb111,,,,,,,,,,,,,,,,,,,,,,,,,,,,,,,4,,,,,,,,,,,,,,,,,,,,,,,,,,,,,,,,,
,,,,,,,,2023-08-16_10h45.21.464,HF_wild_card,2022.2.4,Win32,60.0276127,629f2dccc6e91be06559e2f1,64d2fd46c836a06233681665,64dc9aa432694dcd162eb111,,,,,,,,,,,,,,,,,,,,,,,,,,,,,,,,,,,,,,,,,,,,,,,,,,,,,,,,,,,,,,,,
,,,,,,,,2023-08-16_10h45.21.464,HF_wild_card,2022.2.4,Win32,60.0276127,629f2dccc6e91be06559e2f1,64d2fd46c836a06233681665,64dc9aa432694dcd162eb111,,,,,,,,,,,,,,,,,,,,,,,,,,,,,,,,70,Door3,resources/DY.BMP,0,0,0,0,1,,,,,,,,,,,,,,,,,,,,,,,,,
,,,,,,,,2023-08-16_10h45.21.464,HF_wild_card,2022.2.4,Win32,60.0276127,629f2dccc6e91be06559e2f1,64d2fd46c836a06233681665,64dc9aa432694dcd162eb111,,,,,,,,,,,,,,,,,,,,,,,,,,,,,,,,55,WC_nonExtreme,resources/DR.BMP,1,0,1,0,1,,,,,,,,,,,,,,,,,,,,,,,,,
,,,,,,,,2023-08-16_10h45.21.464,HF_wild_card,2022.2.4,Win32,60.0276127,629f2dccc6e91be06559e2f1,64d2fd46c836a06233681665,64dc9aa432694dcd162eb111,,,,,,,,,,,,,,,,,,,,,,,,,,,,,,,,60,Door4,resources/DBN.BMP,2,0,2,0,1,,,,,,,,,,,,,,,,,,,,,,,,,
,,,,,,,,2023-08-16_10h45.21.464,HF_wild_card,2022.2.4,Win32,60.0276127,629f2dccc6e91be06559e2f1,64d2fd46c836a06233681665,64dc9aa432694dcd162eb111,,,,,,,,,,,,,,,,,,,,,,,,,,,,,,,,30,Door2,resources/DG.BMP,3,0,3,0,1,,,,,,,,,,,,,,,,,,,,,,,,,
,,,,,,,,2023-08-16_10h45.21.464,HF_wild_card,2022.2.4,Win32,60.0276127,629f2dccc6e91be06559e2f1,64d2fd46c836a06233681665,64dc9aa432694dcd162eb111,,,,,,,,,,,,,,,,,,,,,,,,,,,,,,,,5,Door1,resources/DP.BMP,4,0,4,0,1,,,,,,,,,,,,,,,,,,,,,,,,,
,,,,,,,,2023-08-16_10h45.21.464,HF_wild_card,2022.2.4,Win32,60.0276127,629f2dccc6e91be06559e2f1,64d2fd46c836a06233681665,64dc9aa432694dcd162eb111,,,,,,,,,,,,,,,,,,,,,,,,,,,,,,,,20,WC_extreme,resources/DB.BMP,5,0,5,0,1,,,,,,,,,,,,,,,,,,,,,,,,,
,,,,,,,,2023-08-16_10h45.21.464,HF_wild_card,2022.2.4,Win32,60.0276127,629f2dccc6e91be06559e2f1,64d2fd46c836a06233681665,64dc9aa432694dcd162eb111,,,,,,,,,,,,,,,,,,,,,,,,,,,,,,,,,,,,,,,,,,,,,,,,,,,,,,,,,,,,,,,,
,,,,,,,,2023-08-16_10h45.21.464,HF_wild_card,2022.2.4,Win32,60.0276127,629f2dccc6e91be06559e2f1,64d2fd46c836a06233681665,64dc9aa432694dcd162eb111,,,,,,,,,,,,,,,,,,,,,,,,,,,,,,,,,,,,,,,,0,0,0,0,1,,,,,,,,,,,,,,,,,,,,
,,,,,,,,2023-08-16_10h45.21.464,HF_wild_card,2022.2.4,Win32,60.0276127,629f2dccc6e91be06559e2f1,64d2fd46c836a06233681665,64dc9aa432694dcd162eb111,,,,,,,,,,,,,,,,,,,,,,,,,,,,,,,,,,,,,,,,1,0,1,0,1,,,,,,,,,,,,,,,,,,,,
