Condition,Low fixed image (Door1),Low risky image (Door2),High fixed image (Door3),High risky image (Door4),Extreme Wild Card,NonExtreme Wild Card,,date,expName,psychopyVersion,OS,frameRate,PROLIFIC_PID,STUDY_ID,SESSION_ID,mouse_2.x,mouse_2.y,mouse_2.leftButton,mouse_2.midButton,mouse_2.rightButton,mouse_2.clicked_name,Trial Type,Left Option Image,Right Option Image,Chosen Door,mouse.x,mouse.y,mouse.leftButton,mouse.midButton,mouse.rightButton,mouse.time,mouse.clicked_name,Feedback,Cumulative Reward,Block,trial.thisRepN,trial.thisTrialN,trial.thisN,trial.thisIndex,trial.ran,blocks.thisRepN,blocks.thisTrialN,blocks.thisN,blocks.thisIndex,blocks.ran,Money conversion,First Outcome Reported,Shown Door (First Outcome),Displayed Image (First Outcome),outcomes.thisRepN,outcomes.thisTrialN,outcomes.thisN,outcomes.thisIndex,outcomes.ran,judgments.thisRepN,judgments.thisTrialN,judgments.thisN,judgments.thisIndex,judgments.ran,freqMouse.x,freqMouse.y,freqMouse.leftButton,freqMouse.midButton,freqMouse.rightButton,freqMouse.clicked_name,FQJ for first outcome,FQJ for second outcome,Shown Door,Displayed Image,trials.thisRepN,trials.thisTrialN,trials.thisN,trials.thisIndex,trials.ran,judgBlock.thisRepN,judgBlock.thisTrialN,judgBlock.thisN,judgBlock.thisIndex,judgBlock.ran
0,resources/DP.BMP,resources/DG.BMP,resources/DY.BMP,resources/DR.BMP,resources/DBN.BMP,resources/DB.BMP,,2023-08-16_08h55.42.330,HF_wild_card,2022.2.4,Win32,40.02081082,63ed0d97a93096d3dbfe8a3f,64d2fd46c836a06233681665,64dc7cce792e1824bf53d2bb,,,,,,,,,,,,,,,,,,,,,,,,,,,,,,,,,,,,,,,,,,,,,,,,,,,,,,,,,,,,,,,,
,,,,,,,,2023-08-16_08h55.42.330,HF_wild_card,2022.2.4,Win32,40.02081082,63ed0d97a93096d3dbfe8a3f,64d2fd46c836a06233681665,64dc7cce792e1824bf53d2bb,-0.020833333,-0.419270833,1,0,0,agree,,,,,,,,,,,,,,,,,,,,,,,,,,,,,,,,,,,,,,,,,,,,,,,,,,,,,,,,,,
,,,,,,,,2023-08-16_08h55.42.330,HF_wild_card,2022.2.4,Win32,40.02081082,63ed0d97a93096d3dbfe8a3f,64d2fd46c836a06233681665,64dc7cce792e1824bf53d2bb,,,,,,,,,,,,,,,,,,,,,,,,,,,,,,,,,,,,,,,,,,,,,,,,,,,,,,,,,,,,,,,,
,,,,,,,,2023-08-16_08h55.42.330,HF_wild_card,2022.2.4,Win32,40.02081082,63ed0d97a93096d3dbfe8a3f,64d2fd46c836a06233681665,64dc7cce792e1824bf53d2bb,,,,,,,decisionTrl,resources/DP.BMP,resources/DG.BMP,Door1,-0.32421875,-0.0859375,1,0,0,3.1016,optionLeft,30,30,1,0,0,0,0,1,,,,,,,,,,,,,,,,,,,,,,,,,,,,,,,,,,,,,,,
,,,,,,,,2023-08-16_08h55.42.330,HF_wild_card,2022.2.4,Win32,40.02081082,63ed0d97a93096d3dbfe8a3f,64d2fd46c836a06233681665,64dc7cce792e1824bf53d2bb,,,,,,,ctch,resources/DG.BMP,resources/DY.BMP,Door2,-0.25390625,-0.045572917,1,0,0,1.2642,optionLeft,40,70,1,1,0,1,0,1,,,,,,,,,,,,,,,,,,,,,,,,,,,,,,,,,,,,,,,
,,,,,,,,2023-08-16_08h55.42.330,HF_wild_card,2022.2.4,Win32,40.02081082,63ed0d97a93096d3dbfe8a3f,64d2fd46c836a06233681665,64dc7cce792e1824bf53d2bb,,,,,,,sngl,resources/DR.BMP,resources/Empty.png,Door4,-0.290364583,-0.014322917,1,0,0,1.2468,optionLeft,80,150,1,2,0,2,0,1,,,,,,,,,,,,,,,,,,,,,,,,,,,,,,,,,,,,,,,
,,,,,,,,2023-08-16_08h55.42.330,HF_wild_card,2022.2.4,Win32,40.02081082,63ed0d97a93096d3dbfe8a3f,64d2fd46c836a06233681665,64dc7cce792e1824bf53d2bb,,,,,,,decisionTrl,resources/DG.BMP,resources/DP.BMP,Door2,-0.247395833,-0.016927083,1,0,0,2.1705,optionLeft,20,170,1,3,0,3,0,1,,,,,,,,,,,,,,,,,,,,,,,,,,,,,,,,,,,,,,,
,,,,,,,,2023-08-16_08h55.42.330,HF_wild_card,2022.2.4,Win32,40.02081082,63ed0d97a93096d3dbfe8a3f,64d2fd46c836a06233681665,64dc7cce792e1824bf53d2bb,,,,,,,decisionTrl,resources/DP.BMP,resources/DG.BMP,Door1,-0.256510417,-0.014322917,1,0,0,1.098,optionLeft,30,200,1,4,0,4,0,1,,,,,,,,,,,,,,,,,,,,,,,,,,,,,,,,,,,,,,,
,,,,,,,,2023-08-16_08h55.42.330,HF_wild_card,2022.2.4,Win32,40.02081082,63ed0d97a93096d3dbfe8a3f,64d2fd46c836a06233681665,64dc7cce792e1824bf53d2bb,,,,,,,decisionTrl,resources/DP.BMP,resources/DBN.BMP,WildCard_Ex,0.1640625,0.001302083,1,0,0,1.4184,optionRight,95,295,1,5,0,5,0,1,,,,,,,,,,,,,,,,,,,,,,,,,,,,,,,,,,,,,,,
,,,,,,,,2023-08-16_08h55.42.330,HF_wild_card,2022.2.4,Win32,40.02081082,63ed0d97a93096d3dbfe8a3f,64d2fd46c836a06233681665,64dc7cce792e1824bf53d2bb,,,,,,,ctch,resources/DY.BMP,resources/DG.BMP,Door3,-0.317708333,0.010416667,1,0,0,1.2429,optionLeft,70,365,1,6,0,6,0,1,,,,,,,,,,,,,,,,,,,,,,,,,,,,,,,,,,,,,,,
,,,,,,,,2023-08-16_08h55.42.330,HF_wild_card,2022.2.4,Win32,40.02081082,63ed0d97a93096d3dbfe8a3f,64d2fd46c836a06233681665,64dc7cce792e1824bf53d2bb,,,,,,,ctch,resources/DP.BMP,resources/DR.BMP,Door4,0.25,-0.01171875,1,0,0,1.0733,optionRight,60,425,1,7,0,7,0,1,,,,,,,,,,,,,,,,,,,,,,,,,,,,,,,,,,,,,,,
,,,,,,,,2023-08-16_08h55.42.330,HF_wild_card,2022.2.4,Win32,40.02081082,63ed0d97a93096d3dbfe8a3f,64d2fd46c836a06233681665,64dc7cce792e1824bf53d2bb,,,,,,,decisionTrl,resources/DG.BMP,resources/DBN.BMP,WildCard_Ex,0.256510417,-0.002604167,1,0,0,1.1258,optionRight,5,430,1,8,0,8,0,1,,,,,,,,,,,,,,,,,,,,,,,,,,,,,,,,,,,,,,,
,,,,,,,,2023-08-16_08h55.42.330,HF_wild_card,2022.2.4,Win32,40.02081082,63ed0d97a93096d3dbfe8a3f,64d2fd46c836a06233681665,64dc7cce792e1824bf53d2bb,,,,,,,sngl,resources/Empty.png,resources/DY.BMP,Door3,0.235677083,-0.006510417,1,0,0,1.7009,optionRight,70,500,1,9,0,9,0,1,,,,,,,,,,,,,,,,,,,,,,,,,,,,,,,,,,,,,,,
,,,,,,,,2023-08-16_08h55.42.330,HF_wild_card,2022.2.4,Win32,40.02081082,63ed0d97a93096d3dbfe8a3f,64d2fd46c836a06233681665,64dc7cce792e1824bf53d2bb,,,,,,,decisionTrl,resources/DY.BMP,resources/DR.BMP,Door3,-0.2578125,-0.009114583,1,0,0,1.0987,optionLeft,70,570,1,10,0,10,0,1,,,,,,,,,,,,,,,,,,,,,,,,,,,,,,,,,,,,,,,
,,,,,,,,2023-08-16_08h55.42.330,HF_wild_card,2022.2.4,Win32,40.02081082,63ed0d97a93096d3dbfe8a3f,64d2fd46c836a06233681665,64dc7cce792e1824bf53d2bb,,,,,,,decisionTrl,resources/DBN.BMP,resources/DG.BMP,WildCard_Ex,-0.342447917,-0.009114583,1,0,0,0.7683,optionLeft,5,575,1,11,0,11,0,1,,,,,,,,,,,,,,,,,,,,,,,,,,,,,,,,,,,,,,,
,,,,,,,,2023-08-16_08h55.42.330,HF_wild_card,2022.2.4,Win32,40.02081082,63ed0d97a93096d3dbfe8a3f,64d2fd46c836a06233681665,64dc7cce792e1824bf53d2bb,,,,,,,decisionTrl,resources/DR.BMP,resources/DY.BMP,Door4,-0.33984375,-0.0546875,1,0,0,1.2617,optionLeft,80,655,1,12,0,12,0,1,,,,,,,,,,,,,,,,,,,,,,,,,,,,,,,,,,,,,,,
,,,,,,,,2023-08-16_08h55.42.330,HF_wild_card,2022.2.4,Win32,40.02081082,63ed0d97a93096d3dbfe8a3f,64d2fd46c836a06233681665,64dc7cce792e1824bf53d2bb,,,,,,,decisionTrl,resources/DP.BMP,resources/DG.BMP,Door1,-0.236979167,-0.009114583,1,0,0,1.1731,optionLeft,30,685,1,13,0,13,0,1,,,,,,,,,,,,,,,,,,,,,,,,,,,,,,,,,,,,,,,
,,,,,,,,2023-08-16_08h55.42.330,HF_wild_card,2022.2.4,Win32,40.02081082,63ed0d97a93096d3dbfe8a3f,64d2fd46c836a06233681665,64dc7cce792e1824bf53d2bb,,,,,,,decisionTrl,resources/DBN.BMP,resources/DY.BMP,WildCard_Ex,-0.296875,0.005208333,1,0,0,0.7737,optionLeft,95,780,1,14,0,14,0,1,,,,,,,,,,,,,,,,,,,,,,,,,,,,,,,,,,,,,,,
,,,,,,,,2023-08-16_08h55.42.330,HF_wild_card,2022.2.4,Win32,40.02081082,63ed0d97a93096d3dbfe8a3f,64d2fd46c836a06233681665,64dc7cce792e1824bf53d2bb,,,,,,,ctch,resources/DY.BMP,resources/DG.BMP,Door3,-0.231770833,0,1,0,0,1.3693,optionLeft,70,850,1,15,0,15,0,1,,,,,,,,,,,,,,,,,,,,,,,,,,,,,,,,,,,,,,,
,,,,,,,,2023-08-16_08h55.42.330,HF_wild_card,2022.2.4,Win32,40.02081082,63ed0d97a93096d3dbfe8a3f,64d2fd46c836a06233681665,64dc7cce792e1824bf53d2bb,,,,,,,decisionTrl,resources/DP.BMP,resources/DG.BMP,Door1,-0.282552083,0.001302083,1,0,0,0.8969,optionLeft,30,880,1,16,0,16,0,1,,,,,,,,,,,,,,,,,,,,,,,,,,,,,,,,,,,,,,,
,,,,,,,,2023-08-16_08h55.42.330,HF_wild_card,2022.2.4,Win32,40.02081082,63ed0d97a93096d3dbfe8a3f,64d2fd46c836a06233681665,64dc7cce792e1824bf53d2bb,,,,,,,sngl,resources/Empty.png,resources/DG.BMP,Door2,0.20703125,-0.001302083,1,0,0,0.724,optionRight,20,900,1,17,0,17,0,1,,,,,,,,,,,,,,,,,,,,,,,,,,,,,,,,,,,,,,,
,,,,,,,,2023-08-16_08h55.42.330,HF_wild_card,2022.2.4,Win32,40.02081082,63ed0d97a93096d3dbfe8a3f,64d2fd46c836a06233681665,64dc7cce792e1824bf53d2bb,,,,,,,decisionTrl,resources/DBN.BMP,resources/DR.BMP,WildCard_Ex,-0.239583333,-0.0078125,1,0,0,0.9161,optionLeft,95,995,1,18,0,18,0,1,,,,,,,,,,,,,,,,,,,,,,,,,,,,,,,,,,,,,,,
,,,,,,,,2023-08-16_08h55.42.330,HF_wild_card,2022.2.4,Win32,40.02081082,63ed0d97a93096d3dbfe8a3f,64d2fd46c836a06233681665,64dc7cce792e1824bf53d2bb,,,,,,,decisionTrl,resources/DR.BMP,resources/DY.BMP,Door3,0.190104167,-0.006510417,1,0,0,1.043,optionRight,70,1065,1,19,0,19,0,1,,,,,,,,,,,,,,,,,,,,,,,,,,,,,,,,,,,,,,,
,,,,,,,,2023-08-16_08h55.42.330,HF_wild_card,2022.2.4,Win32,40.02081082,63ed0d97a93096d3dbfe8a3f,64d2fd46c836a06233681665,64dc7cce792e1824bf53d2bb,,,,,,,decisionTrl,resources/DY.BMP,resources/DBN.BMP,WildCard_Ex,0.342447917,-0.018229167,1,0,0,1.1464,optionRight,95,1160,1,20,0,20,0,1,,,,,,,,,,,,,,,,,,,,,,,,,,,,,,,,,,,,,,,
,,,,,,,,2023-08-16_08h55.42.330,HF_wild_card,2022.2.4,Win32,40.02081082,63ed0d97a93096d3dbfe8a3f,64d2fd46c836a06233681665,64dc7cce792e1824bf53d2bb,,,,,,,ctch,resources/DP.BMP,resources/DR.BMP,Door1,-0.278645833,-0.00390625,1,0,0,1.1256,optionLeft,30,1190,1,21,0,21,0,1,,,,,,,,,,,,,,,,,,,,,,,,,,,,,,,,,,,,,,,
,,,,,,,,2023-08-16_08h55.42.330,HF_wild_card,2022.2.4,Win32,40.02081082,63ed0d97a93096d3dbfe8a3f,64d2fd46c836a06233681665,64dc7cce792e1824bf53d2bb,,,,,,,ctch,resources/DR.BMP,resources/DP.BMP,Door4,-0.221354167,0.001302083,1,0,0,1.0982,optionLeft,60,1250,1,22,0,22,0,1,,,,,,,,,,,,,,,,,,,,,,,,,,,,,,,,,,,,,,,
,,,,,,,,2023-08-16_08h55.42.330,HF_wild_card,2022.2.4,Win32,40.02081082,63ed0d97a93096d3dbfe8a3f,64d2fd46c836a06233681665,64dc7cce792e1824bf53d2bb,,,,,,,decisionTrl,resources/DG.BMP,resources/DP.BMP,Door2,-0.220052083,-0.002604167,1,0,0,1.2396,optionLeft,20,1270,1,23,0,23,0,1,,,,,,,,,,,,,,,,,,,,,,,,,,,,,,,,,,,,,,,
,,,,,,,,2023-08-16_08h55.42.330,HF_wild_card,2022.2.4,Win32,40.02081082,63ed0d97a93096d3dbfe8a3f,64d2fd46c836a06233681665,64dc7cce792e1824bf53d2bb,,,,,,,sngl,resources/DBN.BMP,resources/Empty.png,WildCard_Ex,-0.263020833,-0.0078125,1,0,0,0.7939,optionLeft,95,1365,1,24,0,24,0,1,,,,,,,,,,,,,,,,,,,,,,,,,,,,,,,,,,,,,,,
,,,,,,,,2023-08-16_08h55.42.330,HF_wild_card,2022.2.4,Win32,40.02081082,63ed0d97a93096d3dbfe8a3f,64d2fd46c836a06233681665,64dc7cce792e1824bf53d2bb,,,,,,,decisionTrl,resources/DY.BMP,resources/DR.BMP,Door4,0.220052083,-0.006510417,1,0,0,0.9945,optionRight,60,1425,1,25,0,25,0,1,,,,,,,,,,,,,,,,,,,,,,,,,,,,,,,,,,,,,,,
,,,,,,,,2023-08-16_08h55.42.330,HF_wild_card,2022.2.4,Win32,40.02081082,63ed0d97a93096d3dbfe8a3f,64d2fd46c836a06233681665,64dc7cce792e1824bf53d2bb,,,,,,,sngl,resources/Empty.png,resources/DBN.BMP,WildCard_Ex,0.153645833,-0.002604167,1,0,0,0.9238,optionRight,5,1430,1,26,0,26,0,1,,,,,,,,,,,,,,,,,,,,,,,,,,,,,,,,,,,,,,,
,,,,,,,,2023-08-16_08h55.42.330,HF_wild_card,2022.2.4,Win32,40.02081082,63ed0d97a93096d3dbfe8a3f,64d2fd46c836a06233681665,64dc7cce792e1824bf53d2bb,,,,,,,sngl,resources/Empty.png,resources/DP.BMP,Door1,0.259114583,-0.005208333,1,0,0,0.744,optionRight,30,1460,1,27,0,27,0,1,,,,,,,,,,,,,,,,,,,,,,,,,,,,,,,,,,,,,,,
,,,,,,,,2023-08-16_08h55.42.330,HF_wild_card,2022.2.4,Win32,40.02081082,63ed0d97a93096d3dbfe8a3f,64d2fd46c836a06233681665,64dc7cce792e1824bf53d2bb,,,,,,,ctch,resources/DG.BMP,resources/DY.BMP,Door3,0.279947917,-0.0078125,1,0,0,1.2711,optionRight,70,1530,1,28,0,28,0,1,,,,,,,,,,,,,,,,,,,,,,,,,,,,,,,,,,,,,,,
,,,,,,,,2023-08-16_08h55.42.330,HF_wild_card,2022.2.4,Win32,40.02081082,63ed0d97a93096d3dbfe8a3f,64d2fd46c836a06233681665,64dc7cce792e1824bf53d2bb,,,,,,,sngl,resources/DY.BMP,resources/Empty.png,Door3,-0.368489583,-0.010416667,1,0,0,0.5709,optionLeft,70,1600,1,29,0,29,0,1,,,,,,,,,,,,,,,,,,,,,,,,,,,,,,,,,,,,,,,
,,,,,,,,2023-08-16_08h55.42.330,HF_wild_card,2022.2.4,Win32,40.02081082,63ed0d97a93096d3dbfe8a3f,64d2fd46c836a06233681665,64dc7cce792e1824bf53d2bb,,,,,,,sngl,resources/Empty.png,resources/DBN.BMP,WildCard_Ex,0.173177083,-0.00390625,1,0,0,0.7175,optionRight,95,1695,1,30,0,30,0,1,,,,,,,,,,,,,,,,,,,,,,,,,,,,,,,,,,,,,,,
,,,,,,,,2023-08-16_08h55.42.330,HF_wild_card,2022.2.4,Win32,40.02081082,63ed0d97a93096d3dbfe8a3f,64d2fd46c836a06233681665,64dc7cce792e1824bf53d2bb,,,,,,,decisionTrl,resources/DY.BMP,resources/DR.BMP,Door3,-0.4140625,0.010416667,1,0,0,0.7641,optionLeft,70,1765,1,31,0,31,0,1,,,,,,,,,,,,,,,,,,,,,,,,,,,,,,,,,,,,,,,
,,,,,,,,2023-08-16_08h55.42.330,HF_wild_card,2022.2.4,Win32,40.02081082,63ed0d97a93096d3dbfe8a3f,64d2fd46c836a06233681665,64dc7cce792e1824bf53d2bb,,,,,,,sngl,resources/Empty.png,resources/DR.BMP,Door4,0.432291667,0.006510417,1,0,0,0.6233,optionRight,60,1825,1,32,0,32,0,1,,,,,,,,,,,,,,,,,,,,,,,,,,,,,,,,,,,,,,,
,,,,,,,,2023-08-16_08h55.42.330,HF_wild_card,2022.2.4,Win32,40.02081082,63ed0d97a93096d3dbfe8a3f,64d2fd46c836a06233681665,64dc7cce792e1824bf53d2bb,,,,,,,sngl,resources/DBN.BMP,resources/Empty.png,WildCard_Ex,-0.229166667,0.00390625,1,0,0,0.6437,optionLeft,5,1830,1,33,0,33,0,1,,,,,,,,,,,,,,,,,,,,,,,,,,,,,,,,,,,,,,,
,,,,,,,,2023-08-16_08h55.42.330,HF_wild_card,2022.2.4,Win32,40.02081082,63ed0d97a93096d3dbfe8a3f,64d2fd46c836a06233681665,64dc7cce792e1824bf53d2bb,,,,,,,decisionTrl,resources/DG.BMP,resources/DP.BMP,Door2,-0.186197917,-0.00390625,1,0,0,1.119,optionLeft,20,1850,1,34,0,34,0,1,,,,,,,,,,,,,,,,,,,,,,,,,,,,,,,,,,,,,,,
,,,,,,,,2023-08-16_08h55.42.330,HF_wild_card,2022.2.4,Win32,40.02081082,63ed0d97a93096d3dbfe8a3f,64d2fd46c836a06233681665,64dc7cce792e1824bf53d2bb,,,,,,,sngl,resources/DP.BMP,resources/Empty.png,Door1,-0.1875,-0.005208333,1,0,0,0.7507,optionLeft,30,1880,1,35,0,35,0,1,,,,,,,,,,,,,,,,,,,,,,,,,,,,,,,,,,,,,,,
,,,,,,,,2023-08-16_08h55.42.330,HF_wild_card,2022.2.4,Win32,40.02081082,63ed0d97a93096d3dbfe8a3f,64d2fd46c836a06233681665,64dc7cce792e1824bf53d2bb,,,,,,,decisionTrl,resources/DG.BMP,resources/DP.BMP,Door1,0.272135417,-0.001302083,1,0,0,0.7757,optionRight,30,1910,1,36,0,36,0,1,,,,,,,,,,,,,,,,,,,,,,,,,,,,,,,,,,,,,,,
,,,,,,,,2023-08-16_08h55.42.330,HF_wild_card,2022.2.4,Win32,40.02081082,63ed0d97a93096d3dbfe8a3f,64d2fd46c836a06233681665,64dc7cce792e1824bf53d2bb,,,,,,,decisionTrl,resources/DBN.BMP,resources/DP.BMP,WildCard_Ex,-0.486979167,0.018229167,1,0,0,0.8227,optionLeft,95,2005,1,37,0,37,0,1,,,,,,,,,,,,,,,,,,,,,,,,,,,,,,,,,,,,,,,
,,,,,,,,2023-08-16_08h55.42.330,HF_wild_card,2022.2.4,Win32,40.02081082,63ed0d97a93096d3dbfe8a3f,64d2fd46c836a06233681665,64dc7cce792e1824bf53d2bb,,,,,,,decisionTrl,resources/DR.BMP,resources/DY.BMP,Door3,0.221354167,0.002604167,1,0,0,1.3135,optionRight,70,2075,1,38,0,38,0,1,,,,,,,,,,,,,,,,,,,,,,,,,,,,,,,,,,,,,,,
,,,,,,,,2023-08-16_08h55.42.330,HF_wild_card,2022.2.4,Win32,40.02081082,63ed0d97a93096d3dbfe8a3f,64d2fd46c836a06233681665,64dc7cce792e1824bf53d2bb,,,,,,,decisionTrl,resources/DY.BMP,resources/DR.BMP,Door3,-0.23046875,-0.014322917,1,0,0,0.6893,optionLeft,70,2145,1,39,0,39,0,1,,,,,,,,,,,,,,,,,,,,,,,,,,,,,,,,,,,,,,,
,,,,,,,,2023-08-16_08h55.42.330,HF_wild_card,2022.2.4,Win32,40.02081082,63ed0d97a93096d3dbfe8a3f,64d2fd46c836a06233681665,64dc7cce792e1824bf53d2bb,,,,,,,sngl,resources/DG.BMP,resources/Empty.png,Door2,-0.2109375,-0.006510417,1,0,0,0.6956,optionLeft,40,2185,1,40,0,40,0,1,,,,,,,,,,,,,,,,,,,,,,,,,,,,,,,,,,,,,,,
,,,,,,,,2023-08-16_08h55.42.330,HF_wild_card,2022.2.4,Win32,40.02081082,63ed0d97a93096d3dbfe8a3f,64d2fd46c836a06233681665,64dc7cce792e1824bf53d2bb,,,,,,,ctch,resources/DR.BMP,resources/DP.BMP,Door4,-0.270833333,-0.009114583,1,0,0,1.1235,optionLeft,60,2245,1,41,0,41,0,1,,,,,,,,,,,,,,,,,,,,,,,,,,,,,,,,,,,,,,,
,,,,,,,,2023-08-16_08h55.42.330,HF_wild_card,2022.2.4,Win32,40.02081082,63ed0d97a93096d3dbfe8a3f,64d2fd46c836a06233681665,64dc7cce792e1824bf53d2bb,,,,,,,decisionTrl,resources/DR.BMP,resources/DBN.BMP,WildCard_Ex,0.213541667,0.001302083,1,0,0,0.9424,optionRight,5,2250,1,42,0,42,0,1,,,,,,,,,,,,,,,,,,,,,,,,,,,,,,,,,,,,,,,
,,,,,,,,2023-08-16_08h55.42.330,HF_wild_card,2022.2.4,Win32,40.02081082,63ed0d97a93096d3dbfe8a3f,64d2fd46c836a06233681665,64dc7cce792e1824bf53d2bb,,,,,,,decisionTrl,resources/DR.BMP,resources/DY.BMP,Door3,0.291666667,-0.010416667,1,0,0,1.0616,optionRight,70,2320,1,43,0,43,0,1,,,,,,,,,,,,,,,,,,,,,,,,,,,,,,,,,,,,,,,
,,,,,,,,2023-08-16_08h55.42.330,HF_wild_card,2022.2.4,Win32,40.02081082,63ed0d97a93096d3dbfe8a3f,64d2fd46c836a06233681665,64dc7cce792e1824bf53d2bb,,,,,,,,,,,,,,,,,,,,,,,,,,0,0,0,0,1,,,,,,,,,,,,,,,,,,,,,,,,,,,,,,,,,,
,,,,,,,,2023-08-16_08h55.42.330,HF_wild_card,2022.2.4,Win32,40.02081082,63ed0d97a93096d3dbfe8a3f,64d2fd46c836a06233681665,64dc7cce792e1824bf53d2bb,,,,,,,decisionTrl,resources/DG.BMP,resources/DP.BMP,Door2,-0.259114583,-0.0546875,1,0,0,2.0953,optionLeft,20,2340,2,0,0,0,0,1,,,,,,,,,,,,,,,,,,,,,,,,,,,,,,,,,,,,,,,
,,,,,,,,2023-08-16_08h55.42.330,HF_wild_card,2022.2.4,Win32,40.02081082,63ed0d97a93096d3dbfe8a3f,64d2fd46c836a06233681665,64dc7cce792e1824bf53d2bb,,,,,,,decisionTrl,resources/DY.BMP,resources/DR.BMP,Door3,-0.385416667,-0.018229167,1,0,0,0.992,optionLeft,70,2410,2,1,0,1,0,1,,,,,,,,,,,,,,,,,,,,,,,,,,,,,,,,,,,,,,,
,,,,,,,,2023-08-16_08h55.42.330,HF_wild_card,2022.2.4,Win32,40.02081082,63ed0d97a93096d3dbfe8a3f,64d2fd46c836a06233681665,64dc7cce792e1824bf53d2bb,,,,,,,decisionTrl,resources/DG.BMP,resources/DP.BMP,Door1,0.192708333,-0.00390625,1,0,0,1.0185,optionRight,30,2440,2,2,0,2,0,1,,,,,,,,,,,,,,,,,,,,,,,,,,,,,,,,,,,,,,,
,,,,,,,,2023-08-16_08h55.42.330,HF_wild_card,2022.2.4,Win32,40.02081082,63ed0d97a93096d3dbfe8a3f,64d2fd46c836a06233681665,64dc7cce792e1824bf53d2bb,,,,,,,ctch,resources/DP.BMP,resources/DR.BMP,Door4,0.444010417,-0.024739583,1,0,0,0.8698,optionRight,80,2520,2,3,0,3,0,1,,,,,,,,,,,,,,,,,,,,,,,,,,,,,,,,,,,,,,,
,,,,,,,,2023-08-16_08h55.42.330,HF_wild_card,2022.2.4,Win32,40.02081082,63ed0d97a93096d3dbfe8a3f,64d2fd46c836a06233681665,64dc7cce792e1824bf53d2bb,,,,,,,sngl,resources/DR.BMP,resources/Empty.png,Door4,-0.3828125,-0.005208333,1,0,0,0.5635,optionLeft,60,2580,2,4,0,4,0,1,,,,,,,,,,,,,,,,,,,,,,,,,,,,,,,,,,,,,,,
,,,,,,,,2023-08-16_08h55.42.330,HF_wild_card,2022.2.4,Win32,40.02081082,63ed0d97a93096d3dbfe8a3f,64d2fd46c836a06233681665,64dc7cce792e1824bf53d2bb,,,,,,,decisionTrl,resources/DG.BMP,resources/DP.BMP,Door1,0.197916667,-0.010416667,1,0,0,1.3213,optionRight,30,2610,2,5,0,5,0,1,,,,,,,,,,,,,,,,,,,,,,,,,,,,,,,,,,,,,,,
,,,,,,,,2023-08-16_08h55.42.330,HF_wild_card,2022.2.4,Win32,40.02081082,63ed0d97a93096d3dbfe8a3f,64d2fd46c836a06233681665,64dc7cce792e1824bf53d2bb,,,,,,,sngl,resources/DBN.BMP,resources/Empty.png,WildCard_Ex,-0.247395833,-0.016927083,1,0,0,0.6473,optionLeft,5,2615,2,6,0,6,0,1,,,,,,,,,,,,,,,,,,,,,,,,,,,,,,,,,,,,,,,
,,,,,,,,2023-08-16_08h55.42.330,HF_wild_card,2022.2.4,Win32,40.02081082,63ed0d97a93096d3dbfe8a3f,64d2fd46c836a06233681665,64dc7cce792e1824bf53d2bb,,,,,,,ctch,resources/DY.BMP,resources/DG.BMP,Door3,-0.240885417,-0.01953125,1,0,0,1.1455,optionLeft,70,2685,2,7,0,7,0,1,,,,,,,,,,,,,,,,,,,,,,,,,,,,,,,,,,,,,,,
,,,,,,,,2023-08-16_08h55.42.330,HF_wild_card,2022.2.4,Win32,40.02081082,63ed0d97a93096d3dbfe8a3f,64d2fd46c836a06233681665,64dc7cce792e1824bf53d2bb,,,,,,,decisionTrl,resources/DR.BMP,resources/DBN.BMP,WildCard_Ex,0.251302083,0.00390625,1,0,0,1.1476,optionRight,95,2780,2,8,0,8,0,1,,,,,,,,,,,,,,,,,,,,,,,,,,,,,,,,,,,,,,,
,,,,,,,,2023-08-16_08h55.42.330,HF_wild_card,2022.2.4,Win32,40.02081082,63ed0d97a93096d3dbfe8a3f,64d2fd46c836a06233681665,64dc7cce792e1824bf53d2bb,,,,,,,decisionTrl,resources/DG.BMP,resources/DP.BMP,Door1,0.201822917,0.00390625,1,0,0,1.2676,optionRight,30,2810,2,9,0,9,0,1,,,,,,,,,,,,,,,,,,,,,,,,,,,,,,,,,,,,,,,
,,,,,,,,2023-08-16_08h55.42.330,HF_wild_card,2022.2.4,Win32,40.02081082,63ed0d97a93096d3dbfe8a3f,64d2fd46c836a06233681665,64dc7cce792e1824bf53d2bb,,,,,,,sngl,resources/Empty.png,resources/DR.BMP,Door4,0.231770833,0.015625,1,0,0,0.6436,optionRight,80,2890,2,10,0,10,0,1,,,,,,,,,,,,,,,,,,,,,,,,,,,,,,,,,,,,,,,
,,,,,,,,2023-08-16_08h55.42.330,HF_wild_card,2022.2.4,Win32,40.02081082,63ed0d97a93096d3dbfe8a3f,64d2fd46c836a06233681665,64dc7cce792e1824bf53d2bb,,,,,,,decisionTrl,resources/DY.BMP,resources/DR.BMP,Door3,-0.188802083,0.00390625,1,0,0,1.1379,optionLeft,70,2960,2,11,0,11,0,1,,,,,,,,,,,,,,,,,,,,,,,,,,,,,,,,,,,,,,,
,,,,,,,,2023-08-16_08h55.42.330,HF_wild_card,2022.2.4,Win32,40.02081082,63ed0d97a93096d3dbfe8a3f,64d2fd46c836a06233681665,64dc7cce792e1824bf53d2bb,,,,,,,decisionTrl,resources/DP.BMP,resources/DG.BMP,Door1,-0.243489583,0.001302083,1,0,0,0.8931,optionLeft,30,2990,2,12,0,12,0,1,,,,,,,,,,,,,,,,,,,,,,,,,,,,,,,,,,,,,,,
,,,,,,,,2023-08-16_08h55.42.330,HF_wild_card,2022.2.4,Win32,40.02081082,63ed0d97a93096d3dbfe8a3f,64d2fd46c836a06233681665,64dc7cce792e1824bf53d2bb,,,,,,,decisionTrl,resources/DBN.BMP,resources/DG.BMP,WildCard_Ex,-0.190104167,0.001302083,1,0,0,0.694,optionLeft,5,2995,2,13,0,13,0,1,,,,,,,,,,,,,,,,,,,,,,,,,,,,,,,,,,,,,,,
,,,,,,,,2023-08-16_08h55.42.330,HF_wild_card,2022.2.4,Win32,40.02081082,63ed0d97a93096d3dbfe8a3f,64d2fd46c836a06233681665,64dc7cce792e1824bf53d2bb,,,,,,,decisionTrl,resources/DR.BMP,resources/DY.BMP,Door3,0.307291667,0.006510417,1,0,0,0.9444,optionRight,70,3065,2,14,0,14,0,1,,,,,,,,,,,,,,,,,,,,,,,,,,,,,,,,,,,,,,,
,,,,,,,,2023-08-16_08h55.42.330,HF_wild_card,2022.2.4,Win32,40.02081082,63ed0d97a93096d3dbfe8a3f,64d2fd46c836a06233681665,64dc7cce792e1824bf53d2bb,,,,,,,ctch,resources/DP.BMP,resources/DR.BMP,Door4,0.263020833,-0.002604167,1,0,0,1.3391,optionRight,60,3125,2,15,0,15,0,1,,,,,,,,,,,,,,,,,,,,,,,,,,,,,,,,,,,,,,,
,,,,,,,,2023-08-16_08h55.42.330,HF_wild_card,2022.2.4,Win32,40.02081082,63ed0d97a93096d3dbfe8a3f,64d2fd46c836a06233681665,64dc7cce792e1824bf53d2bb,,,,,,,decisionTrl,resources/DP.BMP,resources/DG.BMP,Door1,-0.18359375,0.0078125,1,0,0,1.1413,optionLeft,30,3155,2,16,0,16,0,1,,,,,,,,,,,,,,,,,,,,,,,,,,,,,,,,,,,,,,,
,,,,,,,,2023-08-16_08h55.42.330,HF_wild_card,2022.2.4,Win32,40.02081082,63ed0d97a93096d3dbfe8a3f,64d2fd46c836a06233681665,64dc7cce792e1824bf53d2bb,,,,,,,sngl,resources/Empty.png,resources/DY.BMP,Door3,0.205729167,0.010416667,1,0,0,0.6448,optionRight,70,3225,2,17,0,17,0,1,,,,,,,,,,,,,,,,,,,,,,,,,,,,,,,,,,,,,,,
,,,,,,,,2023-08-16_08h55.42.330,HF_wild_card,2022.2.4,Win32,40.02081082,63ed0d97a93096d3dbfe8a3f,64d2fd46c836a06233681665,64dc7cce792e1824bf53d2bb,,,,,,,decisionTrl,resources/DP.BMP,resources/DBN.BMP,WildCard_Ex,0.212239583,0.005208333,1,0,0,0.8715,optionRight,5,3230,2,18,0,18,0,1,,,,,,,,,,,,,,,,,,,,,,,,,,,,,,,,,,,,,,,
,,,,,,,,2023-08-16_08h55.42.330,HF_wild_card,2022.2.4,Win32,40.02081082,63ed0d97a93096d3dbfe8a3f,64d2fd46c836a06233681665,64dc7cce792e1824bf53d2bb,,,,,,,sngl,resources/DG.BMP,resources/Empty.png,Door2,-0.233072917,0.005208333,1,0,0,0.8917,optionLeft,20,3250,2,19,0,19,0,1,,,,,,,,,,,,,,,,,,,,,,,,,,,,,,,,,,,,,,,
,,,,,,,,2023-08-16_08h55.42.330,HF_wild_card,2022.2.4,Win32,40.02081082,63ed0d97a93096d3dbfe8a3f,64d2fd46c836a06233681665,64dc7cce792e1824bf53d2bb,,,,,,,ctch,resources/DG.BMP,resources/DY.BMP,Door3,0.221354167,0.009114583,1,0,0,1.4952,optionRight,70,3320,2,20,0,20,0,1,,,,,,,,,,,,,,,,,,,,,,,,,,,,,,,,,,,,,,,
,,,,,,,,2023-08-16_08h55.42.330,HF_wild_card,2022.2.4,Win32,40.02081082,63ed0d97a93096d3dbfe8a3f,64d2fd46c836a06233681665,64dc7cce792e1824bf53d2bb,,,,,,,decisionTrl,resources/DP.BMP,resources/DG.BMP,Door1,-0.251302083,0.006510417,1,0,0,1.169,optionLeft,30,3350,2,21,0,21,0,1,,,,,,,,,,,,,,,,,,,,,,,,,,,,,,,,,,,,,,,
,,,,,,,,2023-08-16_08h55.42.330,HF_wild_card,2022.2.4,Win32,40.02081082,63ed0d97a93096d3dbfe8a3f,64d2fd46c836a06233681665,64dc7cce792e1824bf53d2bb,,,,,,,sngl,resources/DBN.BMP,resources/Empty.png,WildCard_Ex,-0.25,-0.010416667,1,0,0,0.5965,optionLeft,95,3445,2,22,0,22,0,1,,,,,,,,,,,,,,,,,,,,,,,,,,,,,,,,,,,,,,,
,,,,,,,,2023-08-16_08h55.42.330,HF_wild_card,2022.2.4,Win32,40.02081082,63ed0d97a93096d3dbfe8a3f,64d2fd46c836a06233681665,64dc7cce792e1824bf53d2bb,,,,,,,sngl,resources/Empty.png,resources/DBN.BMP,WildCard_Ex,0.25,-0.009114583,1,0,0,0.5447,optionRight,95,3540,2,23,0,23,0,1,,,,,,,,,,,,,,,,,,,,,,,,,,,,,,,,,,,,,,,
,,,,,,,,2023-08-16_08h55.42.330,HF_wild_card,2022.2.4,Win32,40.02081082,63ed0d97a93096d3dbfe8a3f,64d2fd46c836a06233681665,64dc7cce792e1824bf53d2bb,,,,,,,sngl,resources/Empty.png,resources/DBN.BMP,WildCard_Ex,0.255208333,-0.002604167,1,0,0,0.5468,optionRight,5,3545,2,24,0,24,0,1,,,,,,,,,,,,,,,,,,,,,,,,,,,,,,,,,,,,,,,
,,,,,,,,2023-08-16_08h55.42.330,HF_wild_card,2022.2.4,Win32,40.02081082,63ed0d97a93096d3dbfe8a3f,64d2fd46c836a06233681665,64dc7cce792e1824bf53d2bb,,,,,,,decisionTrl,resources/DG.BMP,resources/DBN.BMP,WildCard_Ex,0.171875,0.01953125,1,0,0,0.9956,optionRight,95,3640,2,25,0,25,0,1,,,,,,,,,,,,,,,,,,,,,,,,,,,,,,,,,,,,,,,
,,,,,,,,2023-08-16_08h55.42.330,HF_wild_card,2022.2.4,Win32,40.02081082,63ed0d97a93096d3dbfe8a3f,64d2fd46c836a06233681665,64dc7cce792e1824bf53d2bb,,,,,,,decisionTrl,resources/DY.BMP,resources/DR.BMP,Door3,-0.196614583,0.005208333,1,0,0,1.023,optionLeft,70,3710,2,26,0,26,0,1,,,,,,,,,,,,,,,,,,,,,,,,,,,,,,,,,,,,,,,
,,,,,,,,2023-08-16_08h55.42.330,HF_wild_card,2022.2.4,Win32,40.02081082,63ed0d97a93096d3dbfe8a3f,64d2fd46c836a06233681665,64dc7cce792e1824bf53d2bb,,,,,,,ctch,resources/DG.BMP,resources/DY.BMP,Door3,0.234375,0.00390625,1,0,0,0.5952,optionRight,70,3780,2,27,0,27,0,1,,,,,,,,,,,,,,,,,,,,,,,,,,,,,,,,,,,,,,,
,,,,,,,,2023-08-16_08h55.42.330,HF_wild_card,2022.2.4,Win32,40.02081082,63ed0d97a93096d3dbfe8a3f,64d2fd46c836a06233681665,64dc7cce792e1824bf53d2bb,,,,,,,sngl,resources/DP.BMP,resources/Empty.png,Door1,-0.2578125,0.0078125,1,0,0,0.6696,optionLeft,30,3810,2,28,0,28,0,1,,,,,,,,,,,,,,,,,,,,,,,,,,,,,,,,,,,,,,,
,,,,,,,,2023-08-16_08h55.42.330,HF_wild_card,2022.2.4,Win32,40.02081082,63ed0d97a93096d3dbfe8a3f,64d2fd46c836a06233681665,64dc7cce792e1824bf53d2bb,,,,,,,decisionTrl,resources/DR.BMP,resources/DY.BMP,Door3,0.217447917,0.009114583,1,0,0,0.8329,optionRight,70,3880,2,29,0,29,0,1,,,,,,,,,,,,,,,,,,,,,,,,,,,,,,,,,,,,,,,
,,,,,,,,2023-08-16_08h55.42.330,HF_wild_card,2022.2.4,Win32,40.02081082,63ed0d97a93096d3dbfe8a3f,64d2fd46c836a06233681665,64dc7cce792e1824bf53d2bb,,,,,,,sngl,resources/Empty.png,resources/DG.BMP,Door2,0.20703125,0.01171875,1,0,0,0.571,optionRight,40,3920,2,30,0,30,0,1,,,,,,,,,,,,,,,,,,,,,,,,,,,,,,,,,,,,,,,
,,,,,,,,2023-08-16_08h55.42.330,HF_wild_card,2022.2.4,Win32,40.02081082,63ed0d97a93096d3dbfe8a3f,64d2fd46c836a06233681665,64dc7cce792e1824bf53d2bb,,,,,,,sngl,resources/Empty.png,resources/DP.BMP,Door1,0.2421875,0.00390625,1,0,0,0.5204,optionRight,30,3950,2,31,0,31,0,1,,,,,,,,,,,,,,,,,,,,,,,,,,,,,,,,,,,,,,,
,,,,,,,,2023-08-16_08h55.42.330,HF_wild_card,2022.2.4,Win32,40.02081082,63ed0d97a93096d3dbfe8a3f,64d2fd46c836a06233681665,64dc7cce792e1824bf53d2bb,,,,,,,decisionTrl,resources/DBN.BMP,resources/DY.BMP,WildCard_Ex,-0.313802083,0.016927083,1,0,0,0.6912,optionLeft,95,4045,2,32,0,32,0,1,,,,,,,,,,,,,,,,,,,,,,,,,,,,,,,,,,,,,,,
,,,,,,,,2023-08-16_08h55.42.330,HF_wild_card,2022.2.4,Win32,40.02081082,63ed0d97a93096d3dbfe8a3f,64d2fd46c836a06233681665,64dc7cce792e1824bf53d2bb,,,,,,,decisionTrl,resources/DY.BMP,resources/DR.BMP,Door3,-0.23046875,0.01953125,1,0,0,0.6942,optionLeft,70,4115,2,33,0,33,0,1,,,,,,,,,,,,,,,,,,,,,,,,,,,,,,,,,,,,,,,
,,,,,,,,2023-08-16_08h55.42.330,HF_wild_card,2022.2.4,Win32,40.02081082,63ed0d97a93096d3dbfe8a3f,64d2fd46c836a06233681665,64dc7cce792e1824bf53d2bb,,,,,,,decisionTrl,resources/DBN.BMP,resources/DP.BMP,WildCard_Ex,-0.28515625,0.015625,1,0,0,0.7367,optionLeft,95,4210,2,34,0,34,0,1,,,,,,,,,,,,,,,,,,,,,,,,,,,,,,,,,,,,,,,
,,,,,,,,2023-08-16_08h55.42.330,HF_wild_card,2022.2.4,Win32,40.02081082,63ed0d97a93096d3dbfe8a3f,64d2fd46c836a06233681665,64dc7cce792e1824bf53d2bb,,,,,,,decisionTrl,resources/DBN.BMP,resources/DR.BMP,WildCard_Ex,-0.225260417,0.009114583,1,0,0,0.5934,optionLeft,95,4305,2,35,0,35,0,1,,,,,,,,,,,,,,,,,,,,,,,,,,,,,,,,,,,,,,,
,,,,,,,,2023-08-16_08h55.42.330,HF_wild_card,2022.2.4,Win32,40.02081082,63ed0d97a93096d3dbfe8a3f,64d2fd46c836a06233681665,64dc7cce792e1824bf53d2bb,,,,,,,sngl,resources/DY.BMP,resources/Empty.png,Door3,-0.263020833,0.015625,1,0,0,0.6122,optionLeft,70,4375,2,36,0,36,0,1,,,,,,,,,,,,,,,,,,,,,,,,,,,,,,,,,,,,,,,
,,,,,,,,2023-08-16_08h55.42.330,HF_wild_card,2022.2.4,Win32,40.02081082,63ed0d97a93096d3dbfe8a3f,64d2fd46c836a06233681665,64dc7cce792e1824bf53d2bb,,,,,,,ctch,resources/DY.BMP,resources/DG.BMP,Door3,-0.26171875,0.01171875,1,0,0,0.6185,optionLeft,70,4445,2,37,0,37,0,1,,,,,,,,,,,,,,,,,,,,,,,,,,,,,,,,,,,,,,,
,,,,,,,,2023-08-16_08h55.42.330,HF_wild_card,2022.2.4,Win32,40.02081082,63ed0d97a93096d3dbfe8a3f,64d2fd46c836a06233681665,64dc7cce792e1824bf53d2bb,,,,,,,decisionTrl,resources/DR.BMP,resources/DY.BMP,Door3,0.274739583,0.01171875,1,0,0,0.5891,optionRight,70,4515,2,38,0,38,0,1,,,,,,,,,,,,,,,,,,,,,,,,,,,,,,,,,,,,,,,
,,,,,,,,2023-08-16_08h55.42.330,HF_wild_card,2022.2.4,Win32,40.02081082,63ed0d97a93096d3dbfe8a3f,64d2fd46c836a06233681665,64dc7cce792e1824bf53d2bb,,,,,,,decisionTrl,resources/DY.BMP,resources/DBN.BMP,WildCard_Ex,0.389322917,0,1,0,0,0.9497,optionRight,5,4520,2,39,0,39,0,1,,,,,,,,,,,,,,,,,,,,,,,,,,,,,,,,,,,,,,,
,,,,,,,,2023-08-16_08h55.42.330,HF_wild_card,2022.2.4,Win32,40.02081082,63ed0d97a93096d3dbfe8a3f,64d2fd46c836a06233681665,64dc7cce792e1824bf53d2bb,,,,,,,ctch,resources/DR.BMP,resources/DP.BMP,Door4,-0.31640625,0.022135417,1,0,0,0.9683,optionLeft,60,4580,2,40,0,40,0,1,,,,,,,,,,,,,,,,,,,,,,,,,,,,,,,,,,,,,,,
,,,,,,,,2023-08-16_08h55.42.330,HF_wild_card,2022.2.4,Win32,40.02081082,63ed0d97a93096d3dbfe8a3f,64d2fd46c836a06233681665,64dc7cce792e1824bf53d2bb,,,,,,,decisionTrl,resources/DR.BMP,resources/DY.BMP,Door4,-0.256510417,0.013020833,1,0,0,0.5698,optionLeft,80,4660,2,41,0,41,0,1,,,,,,,,,,,,,,,,,,,,,,,,,,,,,,,,,,,,,,,
,,,,,,,,2023-08-16_08h55.42.330,HF_wild_card,2022.2.4,Win32,40.02081082,63ed0d97a93096d3dbfe8a3f,64d2fd46c836a06233681665,64dc7cce792e1824bf53d2bb,,,,,,,ctch,resources/DR.BMP,resources/DP.BMP,Door4,-0.180989583,-0.016927083,1,0,0,0.7465,optionLeft,80,4740,2,42,0,42,0,1,,,,,,,,,,,,,,,,,,,,,,,,,,,,,,,,,,,,,,,
,,,,,,,,2023-08-16_08h55.42.330,HF_wild_card,2022.2.4,Win32,40.02081082,63ed0d97a93096d3dbfe8a3f,64d2fd46c836a06233681665,64dc7cce792e1824bf53d2bb,,,,,,,decisionTrl,resources/DP.BMP,resources/DG.BMP,Door1,-0.21484375,0.009114583,1,0,0,1.7464,optionLeft,30,4770,2,43,0,43,0,1,,,,,,,,,,,,,,,,,,,,,,,,,,,,,,,,,,,,,,,
,,,,,,,,2023-08-16_08h55.42.330,HF_wild_card,2022.2.4,Win32,40.02081082,63ed0d97a93096d3dbfe8a3f,64d2fd46c836a06233681665,64dc7cce792e1824bf53d2bb,,,,,,,,,,,,,,,,,,,,,,,,,,1,0,1,0,1,,,,,,,,,,,,,,,,,,,,,,,,,,,,,,,,,,
,,,,,,,,2023-08-16_08h55.42.330,HF_wild_card,2022.2.4,Win32,40.02081082,63ed0d97a93096d3dbfe8a3f,64d2fd46c836a06233681665,64dc7cce792e1824bf53d2bb,,,,,,,ctch,resources/DY.BMP,resources/DG.BMP,Door3,-0.287760417,-0.0390625,1,0,0,1.7105,optionLeft,70,4840,3,0,0,0,0,1,,,,,,,,,,,,,,,,,,,,,,,,,,,,,,,,,,,,,,,
,,,,,,,,2023-08-16_08h55.42.330,HF_wild_card,2022.2.4,Win32,40.02081082,63ed0d97a93096d3dbfe8a3f,64d2fd46c836a06233681665,64dc7cce792e1824bf53d2bb,,,,,,,sngl,resources/Empty.png,resources/DG.BMP,Door2,0.25,-0.01171875,1,0,0,0.7211,optionRight,20,4860,3,1,0,1,0,1,,,,,,,,,,,,,,,,,,,,,,,,,,,,,,,,,,,,,,,
,,,,,,,,2023-08-16_08h55.42.330,HF_wild_card,2022.2.4,Win32,40.02081082,63ed0d97a93096d3dbfe8a3f,64d2fd46c836a06233681665,64dc7cce792e1824bf53d2bb,,,,,,,decisionTrl,resources/DP.BMP,resources/DG.BMP,Door1,-0.243489583,0.005208333,1,0,0,1.1648,optionLeft,30,4890,3,2,0,2,0,1,,,,,,,,,,,,,,,,,,,,,,,,,,,,,,,,,,,,,,,
,,,,,,,,2023-08-16_08h55.42.330,HF_wild_card,2022.2.4,Win32,40.02081082,63ed0d97a93096d3dbfe8a3f,64d2fd46c836a06233681665,64dc7cce792e1824bf53d2bb,,,,,,,sngl,resources/Empty.png,resources/DR.BMP,Door4,0.223958333,-0.006510417,1,0,0,0.562,optionRight,60,4950,3,3,0,3,0,1,,,,,,,,,,,,,,,,,,,,,,,,,,,,,,,,,,,,,,,
,,,,,,,,2023-08-16_08h55.42.330,HF_wild_card,2022.2.4,Win32,40.02081082,63ed0d97a93096d3dbfe8a3f,64d2fd46c836a06233681665,64dc7cce792e1824bf53d2bb,,,,,,,ctch,resources/DR.BMP,resources/DP.BMP,Door4,-0.239583333,-0.001302083,1,0,0,1.5901,optionLeft,60,5010,3,4,0,4,0,1,,,,,,,,,,,,,,,,,,,,,,,,,,,,,,,,,,,,,,,
,,,,,,,,2023-08-16_08h55.42.330,HF_wild_card,2022.2.4,Win32,40.02081082,63ed0d97a93096d3dbfe8a3f,64d2fd46c836a06233681665,64dc7cce792e1824bf53d2bb,,,,,,,ctch,resources/DR.BMP,resources/DP.BMP,Door4,-0.2265625,-0.005208333,1,0,0,0.7953,optionLeft,80,5090,3,5,0,5,0,1,,,,,,,,,,,,,,,,,,,,,,,,,,,,,,,,,,,,,,,
,,,,,,,,2023-08-16_08h55.42.330,HF_wild_card,2022.2.4,Win32,40.02081082,63ed0d97a93096d3dbfe8a3f,64d2fd46c836a06233681665,64dc7cce792e1824bf53d2bb,,,,,,,sngl,resources/DY.BMP,resources/Empty.png,Door3,-0.248697917,0.016927083,1,0,0,0.5711,optionLeft,70,5160,3,6,0,6,0,1,,,,,,,,,,,,,,,,,,,,,,,,,,,,,,,,,,,,,,,
,,,,,,,,2023-08-16_08h55.42.330,HF_wild_card,2022.2.4,Win32,40.02081082,63ed0d97a93096d3dbfe8a3f,64d2fd46c836a06233681665,64dc7cce792e1824bf53d2bb,,,,,,,decisionTrl,resources/DY.BMP,resources/DBN.BMP,WildCard_Ex,0.32421875,0.010416667,1,0,0,0.7644,optionRight,95,5255,3,7,0,7,0,1,,,,,,,,,,,,,,,,,,,,,,,,,,,,,,,,,,,,,,,
,,,,,,,,2023-08-16_08h55.42.330,HF_wild_card,2022.2.4,Win32,40.02081082,63ed0d97a93096d3dbfe8a3f,64d2fd46c836a06233681665,64dc7cce792e1824bf53d2bb,,,,,,,decisionTrl,resources/DG.BMP,resources/DBN.BMP,WildCard_Ex,0.303385417,0.01171875,1,0,0,1.2969,optionRight,95,5350,3,8,0,8,0,1,,,,,,,,,,,,,,,,,,,,,,,,,,,,,,,,,,,,,,,
,,,,,,,,2023-08-16_08h55.42.330,HF_wild_card,2022.2.4,Win32,40.02081082,63ed0d97a93096d3dbfe8a3f,64d2fd46c836a06233681665,64dc7cce792e1824bf53d2bb,,,,,,,decisionTrl,resources/DP.BMP,resources/DG.BMP,Door1,-0.22265625,0.029947917,1,0,0,1.3204,optionLeft,30,5380,3,9,0,9,0,1,,,,,,,,,,,,,,,,,,,,,,,,,,,,,,,,,,,,,,,
,,,,,,,,2023-08-16_08h55.42.330,HF_wild_card,2022.2.4,Win32,40.02081082,63ed0d97a93096d3dbfe8a3f,64d2fd46c836a06233681665,64dc7cce792e1824bf53d2bb,,,,,,,sngl,resources/DR.BMP,resources/Empty.png,Door4,-0.234375,0.01171875,1,0,0,0.6466,optionLeft,80,5460,3,10,0,10,0,1,,,,,,,,,,,,,,,,,,,,,,,,,,,,,,,,,,,,,,,
,,,,,,,,2023-08-16_08h55.42.330,HF_wild_card,2022.2.4,Win32,40.02081082,63ed0d97a93096d3dbfe8a3f,64d2fd46c836a06233681665,64dc7cce792e1824bf53d2bb,,,,,,,decisionTrl,resources/DR.BMP,resources/DBN.BMP,WildCard_Ex,0.244791667,0.00390625,1,0,0,0.8619,optionRight,95,5555,3,11,0,11,0,1,,,,,,,,,,,,,,,,,,,,,,,,,,,,,,,,,,,,,,,
,,,,,,,,2023-08-16_08h55.42.330,HF_wild_card,2022.2.4,Win32,40.02081082,63ed0d97a93096d3dbfe8a3f,64d2fd46c836a06233681665,64dc7cce792e1824bf53d2bb,,,,,,,decisionTrl,resources/DBN.BMP,resources/DG.BMP,WildCard_Ex,-0.239583333,0.01953125,1,0,0,0.6594,optionLeft,5,5560,3,12,0,12,0,1,,,,,,,,,,,,,,,,,,,,,,,,,,,,,,,,,,,,,,,
,,,,,,,,2023-08-16_08h55.42.330,HF_wild_card,2022.2.4,Win32,40.02081082,63ed0d97a93096d3dbfe8a3f,64d2fd46c836a06233681665,64dc7cce792e1824bf53d2bb,,,,,,,decisionTrl,resources/DR.BMP,resources/DY.BMP,Door3,0.346354167,0.0078125,1,0,0,1.0222,optionRight,70,5630,3,13,0,13,0,1,,,,,,,,,,,,,,,,,,,,,,,,,,,,,,,,,,,,,,,
,,,,,,,,2023-08-16_08h55.42.330,HF_wild_card,2022.2.4,Win32,40.02081082,63ed0d97a93096d3dbfe8a3f,64d2fd46c836a06233681665,64dc7cce792e1824bf53d2bb,,,,,,,decisionTrl,resources/DBN.BMP,resources/DP.BMP,WildCard_Ex,-0.21484375,0.002604167,1,0,0,0.6635,optionLeft,5,5635,3,14,0,14,0,1,,,,,,,,,,,,,,,,,,,,,,,,,,,,,,,,,,,,,,,
,,,,,,,,2023-08-16_08h55.42.330,HF_wild_card,2022.2.4,Win32,40.02081082,63ed0d97a93096d3dbfe8a3f,64d2fd46c836a06233681665,64dc7cce792e1824bf53d2bb,,,,,,,ctch,resources/DG.BMP,resources/DY.BMP,Door3,0.212239583,0.00390625,1,0,0,1.3425,optionRight,70,5705,3,15,0,15,0,1,,,,,,,,,,,,,,,,,,,,,,,,,,,,,,,,,,,,,,,
,,,,,,,,2023-08-16_08h55.42.330,HF_wild_card,2022.2.4,Win32,40.02081082,63ed0d97a93096d3dbfe8a3f,64d2fd46c836a06233681665,64dc7cce792e1824bf53d2bb,,,,,,,decisionTrl,resources/DP.BMP,resources/DBN.BMP,WildCard_Ex,0.2578125,0.002604167,1,0,0,0.7204,optionRight,95,5800,3,16,0,16,0,1,,,,,,,,,,,,,,,,,,,,,,,,,,,,,,,,,,,,,,,
,,,,,,,,2023-08-16_08h55.42.330,HF_wild_card,2022.2.4,Win32,40.02081082,63ed0d97a93096d3dbfe8a3f,64d2fd46c836a06233681665,64dc7cce792e1824bf53d2bb,,,,,,,decisionTrl,resources/DBN.BMP,resources/DR.BMP,Door4,0.274739583,0,1,0,0,0.638,optionRight,80,5880,3,17,0,17,0,1,,,,,,,,,,,,,,,,,,,,,,,,,,,,,,,,,,,,,,,
,,,,,,,,2023-08-16_08h55.42.330,HF_wild_card,2022.2.4,Win32,40.02081082,63ed0d97a93096d3dbfe8a3f,64d2fd46c836a06233681665,64dc7cce792e1824bf53d2bb,,,,,,,sngl,resources/DBN.BMP,resources/Empty.png,WildCard_Ex,-0.220052083,-0.024739583,1,0,0,0.845,optionLeft,95,5975,3,18,0,18,0,1,,,,,,,,,,,,,,,,,,,,,,,,,,,,,,,,,,,,,,,
,,,,,,,,2023-08-16_08h55.42.330,HF_wild_card,2022.2.4,Win32,40.02081082,63ed0d97a93096d3dbfe8a3f,64d2fd46c836a06233681665,64dc7cce792e1824bf53d2bb,,,,,,,sngl,resources/DBN.BMP,resources/Empty.png,WildCard_Ex,-0.223958333,0.016927083,1,0,0,0.5698,optionLeft,5,5980,3,19,0,19,0,1,,,,,,,,,,,,,,,,,,,,,,,,,,,,,,,,,,,,,,,
,,,,,,,,2023-08-16_08h55.42.330,HF_wild_card,2022.2.4,Win32,40.02081082,63ed0d97a93096d3dbfe8a3f,64d2fd46c836a06233681665,64dc7cce792e1824bf53d2bb,,,,,,,decisionTrl,resources/DP.BMP,resources/DG.BMP,Door1,-0.131510417,0.00390625,1,0,0,1.3379,optionLeft,30,6010,3,20,0,20,0,1,,,,,,,,,,,,,,,,,,,,,,,,,,,,,,,,,,,,,,,
,,,,,,,,2023-08-16_08h55.42.330,HF_wild_card,2022.2.4,Win32,40.02081082,63ed0d97a93096d3dbfe8a3f,64d2fd46c836a06233681665,64dc7cce792e1824bf53d2bb,,,,,,,decisionTrl,resources/DY.BMP,resources/DR.BMP,Door3,-0.182291667,0.01171875,1,0,0,0.8697,optionLeft,70,6080,3,21,0,21,0,1,,,,,,,,,,,,,,,,,,,,,,,,,,,,,,,,,,,,,,,
,,,,,,,,2023-08-16_08h55.42.330,HF_wild_card,2022.2.4,Win32,40.02081082,63ed0d97a93096d3dbfe8a3f,64d2fd46c836a06233681665,64dc7cce792e1824bf53d2bb,,,,,,,decisionTrl,resources/DY.BMP,resources/DR.BMP,Door3,-0.264322917,0.005208333,1,0,0,0.645,optionLeft,70,6150,3,22,0,22,0,1,,,,,,,,,,,,,,,,,,,,,,,,,,,,,,,,,,,,,,,
,,,,,,,,2023-08-16_08h55.42.330,HF_wild_card,2022.2.4,Win32,40.02081082,63ed0d97a93096d3dbfe8a3f,64d2fd46c836a06233681665,64dc7cce792e1824bf53d2bb,,,,,,,ctch,resources/DY.BMP,resources/DG.BMP,Door3,-0.25390625,0.01171875,1,0,0,0.6212,optionLeft,70,6220,3,23,0,23,0,1,,,,,,,,,,,,,,,,,,,,,,,,,,,,,,,,,,,,,,,
,,,,,,,,2023-08-16_08h55.42.330,HF_wild_card,2022.2.4,Win32,40.02081082,63ed0d97a93096d3dbfe8a3f,64d2fd46c836a06233681665,64dc7cce792e1824bf53d2bb,,,,,,,decisionTrl,resources/DG.BMP,resources/DP.BMP,Door1,0.260416667,0.010416667,1,0,0,1.2381,optionRight,30,6250,3,24,0,24,0,1,,,,,,,,,,,,,,,,,,,,,,,,,,,,,,,,,,,,,,,
,,,,,,,,2023-08-16_08h55.42.330,HF_wild_card,2022.2.4,Win32,40.02081082,63ed0d97a93096d3dbfe8a3f,64d2fd46c836a06233681665,64dc7cce792e1824bf53d2bb,,,,,,,decisionTrl,resources/DG.BMP,resources/DP.BMP,Door2,-0.235677083,0.014322917,1,0,0,0.8447,optionLeft,20,6270,3,25,0,25,0,1,,,,,,,,,,,,,,,,,,,,,,,,,,,,,,,,,,,,,,,
,,,,,,,,2023-08-16_08h55.42.330,HF_wild_card,2022.2.4,Win32,40.02081082,63ed0d97a93096d3dbfe8a3f,64d2fd46c836a06233681665,64dc7cce792e1824bf53d2bb,,,,,,,sngl,resources/DG.BMP,resources/Empty.png,Door2,-0.201822917,0.013020833,1,0,0,0.5955,optionLeft,40,6310,3,26,0,26,0,1,,,,,,,,,,,,,,,,,,,,,,,,,,,,,,,,,,,,,,,
,,,,,,,,2023-08-16_08h55.42.330,HF_wild_card,2022.2.4,Win32,40.02081082,63ed0d97a93096d3dbfe8a3f,64d2fd46c836a06233681665,64dc7cce792e1824bf53d2bb,,,,,,,ctch,resources/DP.BMP,resources/DR.BMP,Door4,0.1796875,0.005208333,1,0,0,0.6712,optionRight,60,6370,3,27,0,27,0,1,,,,,,,,,,,,,,,,,,,,,,,,,,,,,,,,,,,,,,,
,,,,,,,,2023-08-16_08h55.42.330,HF_wild_card,2022.2.4,Win32,40.02081082,63ed0d97a93096d3dbfe8a3f,64d2fd46c836a06233681665,64dc7cce792e1824bf53d2bb,,,,,,,ctch,resources/DP.BMP,resources/DR.BMP,Door4,0.266927083,-0.009114583,1,0,0,0.5708,optionRight,80,6450,3,28,0,28,0,1,,,,,,,,,,,,,,,,,,,,,,,,,,,,,,,,,,,,,,,
,,,,,,,,2023-08-16_08h55.42.330,HF_wild_card,2022.2.4,Win32,40.02081082,63ed0d97a93096d3dbfe8a3f,64d2fd46c836a06233681665,64dc7cce792e1824bf53d2bb,,,,,,,decisionTrl,resources/DG.BMP,resources/DP.BMP,Door1,0.213541667,-0.01171875,1,0,0,1.0952,optionRight,30,6480,3,29,0,29,0,1,,,,,,,,,,,,,,,,,,,,,,,,,,,,,,,,,,,,,,,
,,,,,,,,2023-08-16_08h55.42.330,HF_wild_card,2022.2.4,Win32,40.02081082,63ed0d97a93096d3dbfe8a3f,64d2fd46c836a06233681665,64dc7cce792e1824bf53d2bb,,,,,,,sngl,resources/DP.BMP,resources/Empty.png,Door1,-0.188802083,-0.018229167,1,0,0,0.5392,optionLeft,30,6510,3,30,0,30,0,1,,,,,,,,,,,,,,,,,,,,,,,,,,,,,,,,,,,,,,,
,,,,,,,,2023-08-16_08h55.42.330,HF_wild_card,2022.2.4,Win32,40.02081082,63ed0d97a93096d3dbfe8a3f,64d2fd46c836a06233681665,64dc7cce792e1824bf53d2bb,,,,,,,decisionTrl,resources/DP.BMP,resources/DG.BMP,Door1,-0.432291667,-0.00390625,1,0,0,1.1192,optionLeft,30,6540,3,31,0,31,0,1,,,,,,,,,,,,,,,,,,,,,,,,,,,,,,,,,,,,,,,
,,,,,,,,2023-08-16_08h55.42.330,HF_wild_card,2022.2.4,Win32,40.02081082,63ed0d97a93096d3dbfe8a3f,64d2fd46c836a06233681665,64dc7cce792e1824bf53d2bb,,,,,,,sngl,resources/Empty.png,resources/DP.BMP,Door1,0.26953125,-0.0078125,1,0,0,0.5458,optionRight,30,6570,3,32,0,32,0,1,,,,,,,,,,,,,,,,,,,,,,,,,,,,,,,,,,,,,,,
,,,,,,,,2023-08-16_08h55.42.330,HF_wild_card,2022.2.4,Win32,40.02081082,63ed0d97a93096d3dbfe8a3f,64d2fd46c836a06233681665,64dc7cce792e1824bf53d2bb,,,,,,,sngl,resources/Empty.png,resources/DBN.BMP,WildCard_Ex,0.26953125,-0.009114583,1,0,0,0.5611,optionRight,95,6665,3,33,0,33,0,1,,,,,,,,,,,,,,,,,,,,,,,,,,,,,,,,,,,,,,,
,,,,,,,,2023-08-16_08h55.42.330,HF_wild_card,2022.2.4,Win32,40.02081082,63ed0d97a93096d3dbfe8a3f,64d2fd46c836a06233681665,64dc7cce792e1824bf53d2bb,,,,,,,sngl,resources/Empty.png,resources/DY.BMP,Door3,0.25,-0.00390625,1,0,0,0.57,optionRight,70,6735,3,34,0,34,0,1,,,,,,,,,,,,,,,,,,,,,,,,,,,,,,,,,,,,,,,
,,,,,,,,2023-08-16_08h55.42.330,HF_wild_card,2022.2.4,Win32,40.02081082,63ed0d97a93096d3dbfe8a3f,64d2fd46c836a06233681665,64dc7cce792e1824bf53d2bb,,,,,,,ctch,resources/DG.BMP,resources/DY.BMP,Door3,0.24609375,0.015625,1,0,0,0.8466,optionRight,70,6805,3,35,0,35,0,1,,,,,,,,,,,,,,,,,,,,,,,,,,,,,,,,,,,,,,,
,,,,,,,,2023-08-16_08h55.42.330,HF_wild_card,2022.2.4,Win32,40.02081082,63ed0d97a93096d3dbfe8a3f,64d2fd46c836a06233681665,64dc7cce792e1824bf53d2bb,,,,,,,decisionTrl,resources/DBN.BMP,resources/DY.BMP,WildCard_Ex,-0.200520833,0.001302083,1,0,0,0.9963,optionLeft,95,6900,3,36,0,36,0,1,,,,,,,,,,,,,,,,,,,,,,,,,,,,,,,,,,,,,,,
,,,,,,,,2023-08-16_08h55.42.330,HF_wild_card,2022.2.4,Win32,40.02081082,63ed0d97a93096d3dbfe8a3f,64d2fd46c836a06233681665,64dc7cce792e1824bf53d2bb,,,,,,,sngl,resources/Empty.png,resources/DBN.BMP,WildCard_Ex,0.294270833,0.002604167,1,0,0,0.6467,optionRight,5,6905,3,37,0,37,0,1,,,,,,,,,,,,,,,,,,,,,,,,,,,,,,,,,,,,,,,
,,,,,,,,2023-08-16_08h55.42.330,HF_wild_card,2022.2.4,Win32,40.02081082,63ed0d97a93096d3dbfe8a3f,64d2fd46c836a06233681665,64dc7cce792e1824bf53d2bb,,,,,,,decisionTrl,resources/DG.BMP,resources/DP.BMP,Door1,0.393229167,0,1,0,0,1.094,optionRight,30,6935,3,38,0,38,0,1,,,,,,,,,,,,,,,,,,,,,,,,,,,,,,,,,,,,,,,
,,,,,,,,2023-08-16_08h55.42.330,HF_wild_card,2022.2.4,Win32,40.02081082,63ed0d97a93096d3dbfe8a3f,64d2fd46c836a06233681665,64dc7cce792e1824bf53d2bb,,,,,,,decisionTrl,resources/DR.BMP,resources/DY.BMP,Door3,0.385416667,-0.015625,1,0,0,0.7637,optionRight,70,7005,3,39,0,39,0,1,,,,,,,,,,,,,,,,,,,,,,,,,,,,,,,,,,,,,,,
,,,,,,,,2023-08-16_08h55.42.330,HF_wild_card,2022.2.4,Win32,40.02081082,63ed0d97a93096d3dbfe8a3f,64d2fd46c836a06233681665,64dc7cce792e1824bf53d2bb,,,,,,,decisionTrl,resources/DR.BMP,resources/DY.BMP,Door3,0.186197917,-0.013020833,1,0,0,0.847,optionRight,70,7075,3,40,0,40,0,1,,,,,,,,,,,,,,,,,,,,,,,,,,,,,,,,,,,,,,,
,,,,,,,,2023-08-16_08h55.42.330,HF_wild_card,2022.2.4,Win32,40.02081082,63ed0d97a93096d3dbfe8a3f,64d2fd46c836a06233681665,64dc7cce792e1824bf53d2bb,,,,,,,decisionTrl,resources/DY.BMP,resources/DR.BMP,Door4,0.26171875,-0.010416667,1,0,0,0.8442,optionRight,60,7135,3,41,0,41,0,1,,,,,,,,,,,,,,,,,,,,,,,,,,,,,,,,,,,,,,,
,,,,,,,,2023-08-16_08h55.42.330,HF_wild_card,2022.2.4,Win32,40.02081082,63ed0d97a93096d3dbfe8a3f,64d2fd46c836a06233681665,64dc7cce792e1824bf53d2bb,,,,,,,decisionTrl,resources/DR.BMP,resources/DY.BMP,Door3,0.272135417,-0.00390625,1,0,0,0.8684,optionRight,70,7205,3,42,0,42,0,1,,,,,,,,,,,,,,,,,,,,,,,,,,,,,,,,,,,,,,,
,,,,,,,,2023-08-16_08h55.42.330,HF_wild_card,2022.2.4,Win32,40.02081082,63ed0d97a93096d3dbfe8a3f,64d2fd46c836a06233681665,64dc7cce792e1824bf53d2bb,,,,,,,decisionTrl,resources/DY.BMP,resources/DR.BMP,Door3,-0.197916667,-0.001302083,1,0,0,0.8421,optionLeft,70,7275,3,43,0,43,0,1,,,,,,,,,,,,,,,,,,,,,,,,,,,,,,,,,,,,,,,
,,,,,,,,2023-08-16_08h55.42.330,HF_wild_card,2022.2.4,Win32,40.02081082,63ed0d97a93096d3dbfe8a3f,64d2fd46c836a06233681665,64dc7cce792e1824bf53d2bb,,,,,,,,,,,,,,,,,,,,,,,,,,2,0,2,0,1,,,,,,,,,,,,,,,,,,,,,,,,,,,,,,,,,,
,,,,,,,,2023-08-16_08h55.42.330,HF_wild_card,2022.2.4,Win32,40.02081082,63ed0d97a93096d3dbfe8a3f,64d2fd46c836a06233681665,64dc7cce792e1824bf53d2bb,,,,,,,decisionTrl,resources/DB.BMP,resources/DR.BMP,Door4,0.268229167,-0.040364583,1,0,0,1.7391,optionRight,80,7355,4,0,0,0,0,1,,,,,,,,,,,,,,,,,,,,,,,,,,,,,,,,,,,,,,,
,,,,,,,,2023-08-16_08h55.42.330,HF_wild_card,2022.2.4,Win32,40.02081082,63ed0d97a93096d3dbfe8a3f,64d2fd46c836a06233681665,64dc7cce792e1824bf53d2bb,,,,,,,decisionTrl,resources/DP.BMP,resources/DB.BMP,WildCard_NonEx,0.393229167,-0.01953125,1,0,0,1.4937,optionRight,55,7410,4,1,0,1,0,1,,,,,,,,,,,,,,,,,,,,,,,,,,,,,,,,,,,,,,,
,,,,,,,,2023-08-16_08h55.42.330,HF_wild_card,2022.2.4,Win32,40.02081082,63ed0d97a93096d3dbfe8a3f,64d2fd46c836a06233681665,64dc7cce792e1824bf53d2bb,,,,,,,decisionTrl,resources/DR.BMP,resources/DY.BMP,Door4,-0.274739583,-0.01171875,1,0,0,0.8948,optionLeft,60,7470,4,2,0,2,0,1,,,,,,,,,,,,,,,,,,,,,,,,,,,,,,,,,,,,,,,
,,,,,,,,2023-08-16_08h55.42.330,HF_wild_card,2022.2.4,Win32,40.02081082,63ed0d97a93096d3dbfe8a3f,64d2fd46c836a06233681665,64dc7cce792e1824bf53d2bb,,,,,,,ctch,resources/DG.BMP,resources/DY.BMP,Door3,0.266927083,-0.014322917,1,0,0,0.8463,optionRight,70,7540,4,3,0,3,0,1,,,,,,,,,,,,,,,,,,,,,,,,,,,,,,,,,,,,,,,
,,,,,,,,2023-08-16_08h55.42.330,HF_wild_card,2022.2.4,Win32,40.02081082,63ed0d97a93096d3dbfe8a3f,64d2fd46c836a06233681665,64dc7cce792e1824bf53d2bb,,,,,,,ctch,resources/DR.BMP,resources/DP.BMP,Door4,-0.19921875,0.006510417,1,0,0,0.8958,optionLeft,80,7620,4,4,0,4,0,1,,,,,,,,,,,,,,,,,,,,,,,,,,,,,,,,,,,,,,,
,,,,,,,,2023-08-16_08h55.42.330,HF_wild_card,2022.2.4,Win32,40.02081082,63ed0d97a93096d3dbfe8a3f,64d2fd46c836a06233681665,64dc7cce792e1824bf53d2bb,,,,,,,decisionTrl,resources/DG.BMP,resources/DP.BMP,Door1,0.252604167,0.014322917,1,0,0,2.1416,optionRight,30,7650,4,5,0,5,0,1,,,,,,,,,,,,,,,,,,,,,,,,,,,,,,,,,,,,,,,
,,,,,,,,2023-08-16_08h55.42.330,HF_wild_card,2022.2.4,Win32,40.02081082,63ed0d97a93096d3dbfe8a3f,64d2fd46c836a06233681665,64dc7cce792e1824bf53d2bb,,,,,,,decisionTrl,resources/DY.BMP,resources/DR.BMP,Door3,-0.16015625,0.005208333,1,0,0,1.1931,optionLeft,70,7720,4,6,0,6,0,1,,,,,,,,,,,,,,,,,,,,,,,,,,,,,,,,,,,,,,,
,,,,,,,,2023-08-16_08h55.42.330,HF_wild_card,2022.2.4,Win32,40.02081082,63ed0d97a93096d3dbfe8a3f,64d2fd46c836a06233681665,64dc7cce792e1824bf53d2bb,,,,,,,decisionTrl,resources/DR.BMP,resources/DY.BMP,Door3,0.329427083,-0.005208333,1,0,0,0.5721,optionRight,70,7790,4,7,0,7,0,1,,,,,,,,,,,,,,,,,,,,,,,,,,,,,,,,,,,,,,,
,,,,,,,,2023-08-16_08h55.42.330,HF_wild_card,2022.2.4,Win32,40.02081082,63ed0d97a93096d3dbfe8a3f,64d2fd46c836a06233681665,64dc7cce792e1824bf53d2bb,,,,,,,ctch,resources/DY.BMP,resources/DG.BMP,Door3,-0.225260417,-0.0078125,1,0,0,0.6718,optionLeft,70,7860,4,8,0,8,0,1,,,,,,,,,,,,,,,,,,,,,,,,,,,,,,,,,,,,,,,
,,,,,,,,2023-08-16_08h55.42.330,HF_wild_card,2022.2.4,Win32,40.02081082,63ed0d97a93096d3dbfe8a3f,64d2fd46c836a06233681665,64dc7cce792e1824bf53d2bb,,,,,,,sngl,resources/Empty.png,resources/DP.BMP,Door1,0.209635417,-0.009114583,1,0,0,0.5949,optionRight,30,7890,4,9,0,9,0,1,,,,,,,,,,,,,,,,,,,,,,,,,,,,,,,,,,,,,,,
,,,,,,,,2023-08-16_08h55.42.330,HF_wild_card,2022.2.4,Win32,40.02081082,63ed0d97a93096d3dbfe8a3f,64d2fd46c836a06233681665,64dc7cce792e1824bf53d2bb,,,,,,,ctch,resources/DR.BMP,resources/DP.BMP,Door4,-0.25,0.006510417,1,0,0,0.743,optionLeft,80,7970,4,10,0,10,0,1,,,,,,,,,,,,,,,,,,,,,,,,,,,,,,,,,,,,,,,
,,,,,,,,2023-08-16_08h55.42.330,HF_wild_card,2022.2.4,Win32,40.02081082,63ed0d97a93096d3dbfe8a3f,64d2fd46c836a06233681665,64dc7cce792e1824bf53d2bb,,,,,,,decisionTrl,resources/DG.BMP,resources/DP.BMP,Door1,0.264322917,-0.001302083,1,0,0,1.3195,optionRight,30,8000,4,11,0,11,0,1,,,,,,,,,,,,,,,,,,,,,,,,,,,,,,,,,,,,,,,
,,,,,,,,2023-08-16_08h55.42.330,HF_wild_card,2022.2.4,Win32,40.02081082,63ed0d97a93096d3dbfe8a3f,64d2fd46c836a06233681665,64dc7cce792e1824bf53d2bb,,,,,,,decisionTrl,resources/DB.BMP,resources/DP.BMP,WildCard_NonEx,-0.278645833,-0.001302083,1,0,0,0.8978,optionLeft,55,8055,4,12,0,12,0,1,,,,,,,,,,,,,,,,,,,,,,,,,,,,,,,,,,,,,,,
,,,,,,,,2023-08-16_08h55.42.330,HF_wild_card,2022.2.4,Win32,40.02081082,63ed0d97a93096d3dbfe8a3f,64d2fd46c836a06233681665,64dc7cce792e1824bf53d2bb,,,,,,,sngl,resources/Empty.png,resources/DR.BMP,Door4,0.203125,-0.01171875,1,0,0,0.6387,optionRight,80,8135,4,13,0,13,0,1,,,,,,,,,,,,,,,,,,,,,,,,,,,,,,,,,,,,,,,
,,,,,,,,2023-08-16_08h55.42.330,HF_wild_card,2022.2.4,Win32,40.02081082,63ed0d97a93096d3dbfe8a3f,64d2fd46c836a06233681665,64dc7cce792e1824bf53d2bb,,,,,,,decisionTrl,resources/DR.BMP,resources/DB.BMP,Door4,-0.276041667,-0.002604167,1,0,0,0.596,optionLeft,80,8215,4,14,0,14,0,1,,,,,,,,,,,,,,,,,,,,,,,,,,,,,,,,,,,,,,,
,,,,,,,,2023-08-16_08h55.42.330,HF_wild_card,2022.2.4,Win32,40.02081082,63ed0d97a93096d3dbfe8a3f,64d2fd46c836a06233681665,64dc7cce792e1824bf53d2bb,,,,,,,sngl,resources/DG.BMP,resources/Empty.png,Door2,-0.213541667,-0.014322917,1,0,0,0.7961,optionLeft,20,8235,4,15,0,15,0,1,,,,,,,,,,,,,,,,,,,,,,,,,,,,,,,,,,,,,,,
,,,,,,,,2023-08-16_08h55.42.330,HF_wild_card,2022.2.4,Win32,40.02081082,63ed0d97a93096d3dbfe8a3f,64d2fd46c836a06233681665,64dc7cce792e1824bf53d2bb,,,,,,,decisionTrl,resources/DG.BMP,resources/DP.BMP,Door2,-0.200520833,-0.005208333,1,0,0,1.1966,optionLeft,20,8255,4,16,0,16,0,1,,,,,,,,,,,,,,,,,,,,,,,,,,,,,,,,,,,,,,,
,,,,,,,,2023-08-16_08h55.42.330,HF_wild_card,2022.2.4,Win32,40.02081082,63ed0d97a93096d3dbfe8a3f,64d2fd46c836a06233681665,64dc7cce792e1824bf53d2bb,,,,,,,decisionTrl,resources/DY.BMP,resources/DR.BMP,Door4,0.208333333,-0.002604167,1,0,0,1.1703,optionRight,80,8335,4,17,0,17,0,1,,,,,,,,,,,,,,,,,,,,,,,,,,,,,,,,,,,,,,,
,,,,,,,,2023-08-16_08h55.42.330,HF_wild_card,2022.2.4,Win32,40.02081082,63ed0d97a93096d3dbfe8a3f,64d2fd46c836a06233681665,64dc7cce792e1824bf53d2bb,,,,,,,ctch,resources/DP.BMP,resources/DR.BMP,Door4,0.197916667,-0.001302083,1,0,0,0.9238,optionRight,60,8395,4,18,0,18,0,1,,,,,,,,,,,,,,,,,,,,,,,,,,,,,,,,,,,,,,,
,,,,,,,,2023-08-16_08h55.42.330,HF_wild_card,2022.2.4,Win32,40.02081082,63ed0d97a93096d3dbfe8a3f,64d2fd46c836a06233681665,64dc7cce792e1824bf53d2bb,,,,,,,decisionTrl,resources/DG.BMP,resources/DB.BMP,WildCard_NonEx,0.227864583,0,1,0,0,1.0723,optionRight,55,8450,4,19,0,19,0,1,,,,,,,,,,,,,,,,,,,,,,,,,,,,,,,,,,,,,,,
,,,,,,,,2023-08-16_08h55.42.330,HF_wild_card,2022.2.4,Win32,40.02081082,63ed0d97a93096d3dbfe8a3f,64d2fd46c836a06233681665,64dc7cce792e1824bf53d2bb,,,,,,,sngl,resources/DB.BMP,resources/Empty.png,WildCard_NonEx,-0.23828125,0.00390625,1,0,0,0.5924,optionLeft,55,8505,4,20,0,20,0,1,,,,,,,,,,,,,,,,,,,,,,,,,,,,,,,,,,,,,,,
,,,,,,,,2023-08-16_08h55.42.330,HF_wild_card,2022.2.4,Win32,40.02081082,63ed0d97a93096d3dbfe8a3f,64d2fd46c836a06233681665,64dc7cce792e1824bf53d2bb,,,,,,,sngl,resources/DP.BMP,resources/Empty.png,Door1,-0.22265625,0.00390625,1,0,0,0.7168,optionLeft,30,8535,4,21,0,21,0,1,,,,,,,,,,,,,,,,,,,,,,,,,,,,,,,,,,,,,,,
,,,,,,,,2023-08-16_08h55.42.330,HF_wild_card,2022.2.4,Win32,40.02081082,63ed0d97a93096d3dbfe8a3f,64d2fd46c836a06233681665,64dc7cce792e1824bf53d2bb,,,,,,,decisionTrl,resources/DY.BMP,resources/DR.BMP,Door4,0.1953125,0.0078125,1,0,0,0.9993,optionRight,80,8615,4,22,0,22,0,1,,,,,,,,,,,,,,,,,,,,,,,,,,,,,,,,,,,,,,,
,,,,,,,,2023-08-16_08h55.42.330,HF_wild_card,2022.2.4,Win32,40.02081082,63ed0d97a93096d3dbfe8a3f,64d2fd46c836a06233681665,64dc7cce792e1824bf53d2bb,,,,,,,decisionTrl,resources/DB.BMP,resources/DY.BMP,WildCard_NonEx,-0.290364583,0.005208333,1,0,0,1.1922,optionLeft,45,8660,4,23,0,23,0,1,,,,,,,,,,,,,,,,,,,,,,,,,,,,,,,,,,,,,,,
,,,,,,,,2023-08-16_08h55.42.330,HF_wild_card,2022.2.4,Win32,40.02081082,63ed0d97a93096d3dbfe8a3f,64d2fd46c836a06233681665,64dc7cce792e1824bf53d2bb,,,,,,,decisionTrl,resources/DR.BMP,resources/DY.BMP,Door3,0.182291667,-0.006510417,1,0,0,0.8745,optionRight,70,8730,4,24,0,24,0,1,,,,,,,,,,,,,,,,,,,,,,,,,,,,,,,,,,,,,,,
,,,,,,,,2023-08-16_08h55.42.330,HF_wild_card,2022.2.4,Win32,40.02081082,63ed0d97a93096d3dbfe8a3f,64d2fd46c836a06233681665,64dc7cce792e1824bf53d2bb,,,,,,,decisionTrl,resources/DP.BMP,resources/DG.BMP,Door1,-0.233072917,-0.006510417,1,0,0,1.4214,optionLeft,30,8760,4,25,0,25,0,1,,,,,,,,,,,,,,,,,,,,,,,,,,,,,,,,,,,,,,,
,,,,,,,,2023-08-16_08h55.42.330,HF_wild_card,2022.2.4,Win32,40.02081082,63ed0d97a93096d3dbfe8a3f,64d2fd46c836a06233681665,64dc7cce792e1824bf53d2bb,,,,,,,sngl,resources/DR.BMP,resources/Empty.png,Door4,-0.171875,-0.005208333,1,0,0,0.8193,optionLeft,60,8820,4,26,0,26,0,1,,,,,,,,,,,,,,,,,,,,,,,,,,,,,,,,,,,,,,,
,,,,,,,,2023-08-16_08h55.42.330,HF_wild_card,2022.2.4,Win32,40.02081082,63ed0d97a93096d3dbfe8a3f,64d2fd46c836a06233681665,64dc7cce792e1824bf53d2bb,,,,,,,decisionTrl,resources/DP.BMP,resources/DG.BMP,Door1,-0.197916667,-0.006510417,1,0,0,1.1705,optionLeft,30,8850,4,27,0,27,0,1,,,,,,,,,,,,,,,,,,,,,,,,,,,,,,,,,,,,,,,
,,,,,,,,2023-08-16_08h55.42.330,HF_wild_card,2022.2.4,Win32,40.02081082,63ed0d97a93096d3dbfe8a3f,64d2fd46c836a06233681665,64dc7cce792e1824bf53d2bb,,,,,,,sngl,resources/Empty.png,resources/DB.BMP,WildCard_NonEx,0.188802083,0.006510417,1,0,0,0.6208,optionRight,45,8895,4,28,0,28,0,1,,,,,,,,,,,,,,,,,,,,,,,,,,,,,,,,,,,,,,,
,,,,,,,,2023-08-16_08h55.42.330,HF_wild_card,2022.2.4,Win32,40.02081082,63ed0d97a93096d3dbfe8a3f,64d2fd46c836a06233681665,64dc7cce792e1824bf53d2bb,,,,,,,decisionTrl,resources/DR.BMP,resources/DY.BMP,Door4,-0.197916667,0,1,0,0,1.1243,optionLeft,80,8975,4,29,0,29,0,1,,,,,,,,,,,,,,,,,,,,,,,,,,,,,,,,,,,,,,,
,,,,,,,,2023-08-16_08h55.42.330,HF_wild_card,2022.2.4,Win32,40.02081082,63ed0d97a93096d3dbfe8a3f,64d2fd46c836a06233681665,64dc7cce792e1824bf53d2bb,,,,,,,sngl,resources/DB.BMP,resources/Empty.png,WildCard_NonEx,-0.192708333,0.009114583,1,0,0,0.701,optionLeft,45,9020,4,30,0,30,0,1,,,,,,,,,,,,,,,,,,,,,,,,,,,,,,,,,,,,,,,
,,,,,,,,2023-08-16_08h55.42.330,HF_wild_card,2022.2.4,Win32,40.02081082,63ed0d97a93096d3dbfe8a3f,64d2fd46c836a06233681665,64dc7cce792e1824bf53d2bb,,,,,,,sngl,resources/DY.BMP,resources/Empty.png,Door3,-0.154947917,0.010416667,1,0,0,0.7456,optionLeft,70,9090,4,31,0,31,0,1,,,,,,,,,,,,,,,,,,,,,,,,,,,,,,,,,,,,,,,
,,,,,,,,2023-08-16_08h55.42.330,HF_wild_card,2022.2.4,Win32,40.02081082,63ed0d97a93096d3dbfe8a3f,64d2fd46c836a06233681665,64dc7cce792e1824bf53d2bb,,,,,,,ctch,resources/DP.BMP,resources/DR.BMP,Door4,0.24609375,0.002604167,1,0,0,0.7945,optionRight,80,9170,4,32,0,32,0,1,,,,,,,,,,,,,,,,,,,,,,,,,,,,,,,,,,,,,,,
,,,,,,,,2023-08-16_08h55.42.330,HF_wild_card,2022.2.4,Win32,40.02081082,63ed0d97a93096d3dbfe8a3f,64d2fd46c836a06233681665,64dc7cce792e1824bf53d2bb,,,,,,,ctch,resources/DG.BMP,resources/DY.BMP,Door3,0.329427083,-0.002604167,1,0,0,1.1412,optionRight,70,9240,4,33,0,33,0,1,,,,,,,,,,,,,,,,,,,,,,,,,,,,,,,,,,,,,,,
,,,,,,,,2023-08-16_08h55.42.330,HF_wild_card,2022.2.4,Win32,40.02081082,63ed0d97a93096d3dbfe8a3f,64d2fd46c836a06233681665,64dc7cce792e1824bf53d2bb,,,,,,,decisionTrl,resources/DG.BMP,resources/DP.BMP,Door1,0.30859375,-0.013020833,1,0,0,2.7703,optionRight,30,9270,4,34,0,34,0,1,,,,,,,,,,,,,,,,,,,,,,,,,,,,,,,,,,,,,,,
,,,,,,,,2023-08-16_08h55.42.330,HF_wild_card,2022.2.4,Win32,40.02081082,63ed0d97a93096d3dbfe8a3f,64d2fd46c836a06233681665,64dc7cce792e1824bf53d2bb,,,,,,,decisionTrl,resources/DP.BMP,resources/DG.BMP,Door1,-0.330729167,-0.00390625,1,0,0,1.9482,optionLeft,30,9300,4,35,0,35,0,1,,,,,,,,,,,,,,,,,,,,,,,,,,,,,,,,,,,,,,,
,,,,,,,,2023-08-16_08h55.42.330,HF_wild_card,2022.2.4,Win32,40.02081082,63ed0d97a93096d3dbfe8a3f,64d2fd46c836a06233681665,64dc7cce792e1824bf53d2bb,,,,,,,decisionTrl,resources/DB.BMP,resources/DG.BMP,WildCard_NonEx,-0.361979167,-0.005208333,1,0,0,0.7696,optionLeft,55,9355,4,36,0,36,0,1,,,,,,,,,,,,,,,,,,,,,,,,,,,,,,,,,,,,,,,
,,,,,,,,2023-08-16_08h55.42.330,HF_wild_card,2022.2.4,Win32,40.02081082,63ed0d97a93096d3dbfe8a3f,64d2fd46c836a06233681665,64dc7cce792e1824bf53d2bb,,,,,,,ctch,resources/DY.BMP,resources/DG.BMP,Door3,-0.23046875,-0.0078125,1,0,0,1.0725,optionLeft,70,9425,4,37,0,37,0,1,,,,,,,,,,,,,,,,,,,,,,,,,,,,,,,,,,,,,,,
,,,,,,,,2023-08-16_08h55.42.330,HF_wild_card,2022.2.4,Win32,40.02081082,63ed0d97a93096d3dbfe8a3f,64d2fd46c836a06233681665,64dc7cce792e1824bf53d2bb,,,,,,,decisionTrl,resources/DY.BMP,resources/DR.BMP,Door4,0.19140625,-0.006510417,1,0,0,0.8957,optionRight,80,9505,4,38,0,38,0,1,,,,,,,,,,,,,,,,,,,,,,,,,,,,,,,,,,,,,,,
,,,,,,,,2023-08-16_08h55.42.330,HF_wild_card,2022.2.4,Win32,40.02081082,63ed0d97a93096d3dbfe8a3f,64d2fd46c836a06233681665,64dc7cce792e1824bf53d2bb,,,,,,,sngl,resources/Empty.png,resources/DB.BMP,WildCard_NonEx,0.263020833,-0.0078125,1,0,0,0.6184,optionRight,55,9560,4,39,0,39,0,1,,,,,,,,,,,,,,,,,,,,,,,,,,,,,,,,,,,,,,,
,,,,,,,,2023-08-16_08h55.42.330,HF_wild_card,2022.2.4,Win32,40.02081082,63ed0d97a93096d3dbfe8a3f,64d2fd46c836a06233681665,64dc7cce792e1824bf53d2bb,,,,,,,decisionTrl,resources/DP.BMP,resources/DG.BMP,Door1,-0.220052083,0.002604167,1,0,0,2.3391,optionLeft,30,9590,4,40,0,40,0,1,,,,,,,,,,,,,,,,,,,,,,,,,,,,,,,,,,,,,,,
,,,,,,,,2023-08-16_08h55.42.330,HF_wild_card,2022.2.4,Win32,40.02081082,63ed0d97a93096d3dbfe8a3f,64d2fd46c836a06233681665,64dc7cce792e1824bf53d2bb,,,,,,,sngl,resources/Empty.png,resources/DG.BMP,Door2,0.22265625,0.002604167,1,0,0,0.648,optionRight,40,9630,4,41,0,41,0,1,,,,,,,,,,,,,,,,,,,,,,,,,,,,,,,,,,,,,,,
,,,,,,,,2023-08-16_08h55.42.330,HF_wild_card,2022.2.4,Win32,40.02081082,63ed0d97a93096d3dbfe8a3f,64d2fd46c836a06233681665,64dc7cce792e1824bf53d2bb,,,,,,,decisionTrl,resources/DY.BMP,resources/DB.BMP,WildCard_NonEx,0.243489583,0.0078125,1,0,0,0.8953,optionRight,45,9675,4,42,0,42,0,1,,,,,,,,,,,,,,,,,,,,,,,,,,,,,,,,,,,,,,,
,,,,,,,,2023-08-16_08h55.42.330,HF_wild_card,2022.2.4,Win32,40.02081082,63ed0d97a93096d3dbfe8a3f,64d2fd46c836a06233681665,64dc7cce792e1824bf53d2bb,,,,,,,sngl,resources/Empty.png,resources/DY.BMP,Door3,0.2578125,-0.006510417,1,0,0,0.5984,optionRight,70,9745,4,43,0,43,0,1,,,,,,,,,,,,,,,,,,,,,,,,,,,,,,,,,,,,,,,
,,,,,,,,2023-08-16_08h55.42.330,HF_wild_card,2022.2.4,Win32,40.02081082,63ed0d97a93096d3dbfe8a3f,64d2fd46c836a06233681665,64dc7cce792e1824bf53d2bb,,,,,,,,,,,,,,,,,,,,,,,,,,3,0,3,0,1,,,,,,,,,,,,,,,,,,,,,,,,,,,,,,,,,,
,,,,,,,,2023-08-16_08h55.42.330,HF_wild_card,2022.2.4,Win32,40.02081082,63ed0d97a93096d3dbfe8a3f,64d2fd46c836a06233681665,64dc7cce792e1824bf53d2bb,,,,,,,ctch,resources/DR.BMP,resources/DP.BMP,Door4,-0.255208333,-0.046875,1,0,0,1.1786,optionLeft,80,9825,5,0,0,0,0,1,,,,,,,,,,,,,,,,,,,,,,,,,,,,,,,,,,,,,,,
,,,,,,,,2023-08-16_08h55.42.330,HF_wild_card,2022.2.4,Win32,40.02081082,63ed0d97a93096d3dbfe8a3f,64d2fd46c836a06233681665,64dc7cce792e1824bf53d2bb,,,,,,,decisionTrl,resources/DP.BMP,resources/DG.BMP,Door1,-0.221354167,-0.014322917,1,0,0,1.2198,optionLeft,30,9855,5,1,0,1,0,1,,,,,,,,,,,,,,,,,,,,,,,,,,,,,,,,,,,,,,,
,,,,,,,,2023-08-16_08h55.42.330,HF_wild_card,2022.2.4,Win32,40.02081082,63ed0d97a93096d3dbfe8a3f,64d2fd46c836a06233681665,64dc7cce792e1824bf53d2bb,,,,,,,decisionTrl,resources/DB.BMP,resources/DG.BMP,WildCard_NonEx,-0.204427083,0.005208333,1,0,0,0.6417,optionLeft,55,9910,5,2,0,2,0,1,,,,,,,,,,,,,,,,,,,,,,,,,,,,,,,,,,,,,,,
,,,,,,,,2023-08-16_08h55.42.330,HF_wild_card,2022.2.4,Win32,40.02081082,63ed0d97a93096d3dbfe8a3f,64d2fd46c836a06233681665,64dc7cce792e1824bf53d2bb,,,,,,,decisionTrl,resources/DG.BMP,resources/DP.BMP,Door1,0.354166667,-0.0078125,1,0,0,1.1215,optionRight,30,9940,5,3,0,3,0,1,,,,,,,,,,,,,,,,,,,,,,,,,,,,,,,,,,,,,,,
,,,,,,,,2023-08-16_08h55.42.330,HF_wild_card,2022.2.4,Win32,40.02081082,63ed0d97a93096d3dbfe8a3f,64d2fd46c836a06233681665,64dc7cce792e1824bf53d2bb,,,,,,,decisionTrl,resources/DP.BMP,resources/DG.BMP,Door1,-0.294270833,0.001302083,1,0,0,1.1927,optionLeft,30,9970,5,4,0,4,0,1,,,,,,,,,,,,,,,,,,,,,,,,,,,,,,,,,,,,,,,
,,,,,,,,2023-08-16_08h55.42.330,HF_wild_card,2022.2.4,Win32,40.02081082,63ed0d97a93096d3dbfe8a3f,64d2fd46c836a06233681665,64dc7cce792e1824bf53d2bb,,,,,,,sngl,resources/DP.BMP,resources/Empty.png,Door1,-0.30078125,-0.00390625,1,0,0,0.6411,optionLeft,30,10000,5,5,0,5,0,1,,,,,,,,,,,,,,,,,,,,,,,,,,,,,,,,,,,,,,,
,,,,,,,,2023-08-16_08h55.42.330,HF_wild_card,2022.2.4,Win32,40.02081082,63ed0d97a93096d3dbfe8a3f,64d2fd46c836a06233681665,64dc7cce792e1824bf53d2bb,,,,,,,decisionTrl,resources/DY.BMP,resources/DR.BMP,Door4,0.270833333,0.009114583,1,0,0,1.2446,optionRight,60,10060,5,6,0,6,0,1,,,,,,,,,,,,,,,,,,,,,,,,,,,,,,,,,,,,,,,
,,,,,,,,2023-08-16_08h55.42.330,HF_wild_card,2022.2.4,Win32,40.02081082,63ed0d97a93096d3dbfe8a3f,64d2fd46c836a06233681665,64dc7cce792e1824bf53d2bb,,,,,,,decisionTrl,resources/DR.BMP,resources/DY.BMP,Door3,0.235677083,-0.00390625,1,0,0,0.7717,optionRight,70,10130,5,7,0,7,0,1,,,,,,,,,,,,,,,,,,,,,,,,,,,,,,,,,,,,,,,
,,,,,,,,2023-08-16_08h55.42.330,HF_wild_card,2022.2.4,Win32,40.02081082,63ed0d97a93096d3dbfe8a3f,64d2fd46c836a06233681665,64dc7cce792e1824bf53d2bb,,,,,,,decisionTrl,resources/DR.BMP,resources/DB.BMP,Door4,-0.364583333,0.005208333,1,0,0,1.0975,optionLeft,60,10190,5,8,0,8,0,1,,,,,,,,,,,,,,,,,,,,,,,,,,,,,,,,,,,,,,,
,,,,,,,,2023-08-16_08h55.42.330,HF_wild_card,2022.2.4,Win32,40.02081082,63ed0d97a93096d3dbfe8a3f,64d2fd46c836a06233681665,64dc7cce792e1824bf53d2bb,,,,,,,decisionTrl,resources/DP.BMP,resources/DG.BMP,Door1,-0.244791667,0.002604167,1,0,0,1.0012,optionLeft,30,10220,5,9,0,9,0,1,,,,,,,,,,,,,,,,,,,,,,,,,,,,,,,,,,,,,,,
,,,,,,,,2023-08-16_08h55.42.330,HF_wild_card,2022.2.4,Win32,40.02081082,63ed0d97a93096d3dbfe8a3f,64d2fd46c836a06233681665,64dc7cce792e1824bf53d2bb,,,,,,,sngl,resources/Empty.png,resources/DB.BMP,WildCard_NonEx,0.23046875,-0.002604167,1,0,0,0.6454,optionRight,45,10265,5,10,0,10,0,1,,,,,,,,,,,,,,,,,,,,,,,,,,,,,,,,,,,,,,,
,,,,,,,,2023-08-16_08h55.42.330,HF_wild_card,2022.2.4,Win32,40.02081082,63ed0d97a93096d3dbfe8a3f,64d2fd46c836a06233681665,64dc7cce792e1824bf53d2bb,,,,,,,ctch,resources/DY.BMP,resources/DG.BMP,Door3,-0.319010417,0.009114583,1,0,0,0.7493,optionLeft,70,10335,5,11,0,11,0,1,,,,,,,,,,,,,,,,,,,,,,,,,,,,,,,,,,,,,,,
,,,,,,,,2023-08-16_08h55.42.330,HF_wild_card,2022.2.4,Win32,40.02081082,63ed0d97a93096d3dbfe8a3f,64d2fd46c836a06233681665,64dc7cce792e1824bf53d2bb,,,,,,,sngl,resources/DY.BMP,resources/Empty.png,Door3,-0.299479167,0.0078125,1,0,0,0.573,optionLeft,70,10405,5,12,0,12,0,1,,,,,,,,,,,,,,,,,,,,,,,,,,,,,,,,,,,,,,,
,,,,,,,,2023-08-16_08h55.42.330,HF_wild_card,2022.2.4,Win32,40.02081082,63ed0d97a93096d3dbfe8a3f,64d2fd46c836a06233681665,64dc7cce792e1824bf53d2bb,,,,,,,sngl,resources/DB.BMP,resources/Empty.png,WildCard_NonEx,-0.299479167,0.0078125,1,0,0,0.6858,optionLeft,55,10460,5,13,0,13,0,1,,,,,,,,,,,,,,,,,,,,,,,,,,,,,,,,,,,,,,,
,,,,,,,,2023-08-16_08h55.42.330,HF_wild_card,2022.2.4,Win32,40.02081082,63ed0d97a93096d3dbfe8a3f,64d2fd46c836a06233681665,64dc7cce792e1824bf53d2bb,,,,,,,sngl,resources/DR.BMP,resources/Empty.png,Door4,-0.34765625,0.009114583,1,0,0,0.5943,optionLeft,80,10540,5,14,0,14,0,1,,,,,,,,,,,,,,,,,,,,,,,,,,,,,,,,,,,,,,,
,,,,,,,,2023-08-16_08h55.42.330,HF_wild_card,2022.2.4,Win32,40.02081082,63ed0d97a93096d3dbfe8a3f,64d2fd46c836a06233681665,64dc7cce792e1824bf53d2bb,,,,,,,ctch,resources/DR.BMP,resources/DP.BMP,Door4,-0.244791667,0.002604167,1,0,0,0.699,optionLeft,80,10620,5,15,0,15,0,1,,,,,,,,,,,,,,,,,,,,,,,,,,,,,,,,,,,,,,,
,,,,,,,,2023-08-16_08h55.42.330,HF_wild_card,2022.2.4,Win32,40.02081082,63ed0d97a93096d3dbfe8a3f,64d2fd46c836a06233681665,64dc7cce792e1824bf53d2bb,,,,,,,decisionTrl,resources/DY.BMP,resources/DR.BMP,Door4,0.236979167,0,1,0,0,0.7181,optionRight,80,10700,5,16,0,16,0,1,,,,,,,,,,,,,,,,,,,,,,,,,,,,,,,,,,,,,,,
,,,,,,,,2023-08-16_08h55.42.330,HF_wild_card,2022.2.4,Win32,40.02081082,63ed0d97a93096d3dbfe8a3f,64d2fd46c836a06233681665,64dc7cce792e1824bf53d2bb,,,,,,,sngl,resources/Empty.png,resources/DR.BMP,Door4,0.259114583,0.001302083,1,0,0,0.5233,optionRight,60,10760,5,17,0,17,0,1,,,,,,,,,,,,,,,,,,,,,,,,,,,,,,,,,,,,,,,
,,,,,,,,2023-08-16_08h55.42.330,HF_wild_card,2022.2.4,Win32,40.02081082,63ed0d97a93096d3dbfe8a3f,64d2fd46c836a06233681665,64dc7cce792e1824bf53d2bb,,,,,,,sngl,resources/Empty.png,resources/DY.BMP,Door3,0.23828125,0.006510417,1,0,0,0.5727,optionRight,70,10830,5,18,0,18,0,1,,,,,,,,,,,,,,,,,,,,,,,,,,,,,,,,,,,,,,,
,,,,,,,,2023-08-16_08h55.42.330,HF_wild_card,2022.2.4,Win32,40.02081082,63ed0d97a93096d3dbfe8a3f,64d2fd46c836a06233681665,64dc7cce792e1824bf53d2bb,,,,,,,decisionTrl,resources/DG.BMP,resources/DP.BMP,Door1,0.337239583,-0.001302083,1,0,0,1.2245,optionRight,30,10860,5,19,0,19,0,1,,,,,,,,,,,,,,,,,,,,,,,,,,,,,,,,,,,,,,,
,,,,,,,,2023-08-16_08h55.42.330,HF_wild_card,2022.2.4,Win32,40.02081082,63ed0d97a93096d3dbfe8a3f,64d2fd46c836a06233681665,64dc7cce792e1824bf53d2bb,,,,,,,ctch,resources/DP.BMP,resources/DR.BMP,Door4,0.268229167,-0.009114583,1,0,0,0.7955,optionRight,80,10940,5,20,0,20,0,1,,,,,,,,,,,,,,,,,,,,,,,,,,,,,,,,,,,,,,,
,,,,,,,,2023-08-16_08h55.42.330,HF_wild_card,2022.2.4,Win32,40.02081082,63ed0d97a93096d3dbfe8a3f,64d2fd46c836a06233681665,64dc7cce792e1824bf53d2bb,,,,,,,decisionTrl,resources/DY.BMP,resources/DR.BMP,Door4,0.34765625,-0.0078125,1,0,0,1.4463,optionRight,80,11020,5,21,0,21,0,1,,,,,,,,,,,,,,,,,,,,,,,,,,,,,,,,,,,,,,,
,,,,,,,,2023-08-16_08h55.42.330,HF_wild_card,2022.2.4,Win32,40.02081082,63ed0d97a93096d3dbfe8a3f,64d2fd46c836a06233681665,64dc7cce792e1824bf53d2bb,,,,,,,decisionTrl,resources/DP.BMP,resources/DG.BMP,Door1,-0.240885417,-0.0078125,1,0,0,1.2474,optionLeft,30,11050,5,22,0,22,0,1,,,,,,,,,,,,,,,,,,,,,,,,,,,,,,,,,,,,,,,
,,,,,,,,2023-08-16_08h55.42.330,HF_wild_card,2022.2.4,Win32,40.02081082,63ed0d97a93096d3dbfe8a3f,64d2fd46c836a06233681665,64dc7cce792e1824bf53d2bb,,,,,,,decisionTrl,resources/DP.BMP,resources/DB.BMP,WildCard_NonEx,0.248697917,-0.006510417,1,0,0,0.7417,optionRight,55,11105,5,23,0,23,0,1,,,,,,,,,,,,,,,,,,,,,,,,,,,,,,,,,,,,,,,
,,,,,,,,2023-08-16_08h55.42.330,HF_wild_card,2022.2.4,Win32,40.02081082,63ed0d97a93096d3dbfe8a3f,64d2fd46c836a06233681665,64dc7cce792e1824bf53d2bb,,,,,,,decisionTrl,resources/DR.BMP,resources/DY.BMP,Door4,-0.375,-0.0234375,1,0,0,0.993,optionLeft,60,11165,5,24,0,24,0,1,,,,,,,,,,,,,,,,,,,,,,,,,,,,,,,,,,,,,,,
,,,,,,,,2023-08-16_08h55.42.330,HF_wild_card,2022.2.4,Win32,40.02081082,63ed0d97a93096d3dbfe8a3f,64d2fd46c836a06233681665,64dc7cce792e1824bf53d2bb,,,,,,,decisionTrl,resources/DY.BMP,resources/DR.BMP,Door4,0.256510417,-0.009114583,1,0,0,0.7981,optionRight,60,11225,5,25,0,25,0,1,,,,,,,,,,,,,,,,,,,,,,,,,,,,,,,,,,,,,,,
,,,,,,,,2023-08-16_08h55.42.330,HF_wild_card,2022.2.4,Win32,40.02081082,63ed0d97a93096d3dbfe8a3f,64d2fd46c836a06233681665,64dc7cce792e1824bf53d2bb,,,,,,,decisionTrl,resources/DG.BMP,resources/DP.BMP,Door1,0.361979167,-0.010416667,1,0,0,1.3203,optionRight,30,11255,5,26,0,26,0,1,,,,,,,,,,,,,,,,,,,,,,,,,,,,,,,,,,,,,,,
,,,,,,,,2023-08-16_08h55.42.330,HF_wild_card,2022.2.4,Win32,40.02081082,63ed0d97a93096d3dbfe8a3f,64d2fd46c836a06233681665,64dc7cce792e1824bf53d2bb,,,,,,,decisionTrl,resources/DB.BMP,resources/DY.BMP,Door3,0.234375,0.002604167,1,0,0,1.1006,optionRight,70,11325,5,27,0,27,0,1,,,,,,,,,,,,,,,,,,,,,,,,,,,,,,,,,,,,,,,
,,,,,,,,2023-08-16_08h55.42.330,HF_wild_card,2022.2.4,Win32,40.02081082,63ed0d97a93096d3dbfe8a3f,64d2fd46c836a06233681665,64dc7cce792e1824bf53d2bb,,,,,,,decisionTrl,resources/DG.BMP,resources/DP.BMP,Door1,0.231770833,-0.001302083,1,0,0,1.522,optionRight,30,11355,5,28,0,28,0,1,,,,,,,,,,,,,,,,,,,,,,,,,,,,,,,,,,,,,,,
,,,,,,,,2023-08-16_08h55.42.330,HF_wild_card,2022.2.4,Win32,40.02081082,63ed0d97a93096d3dbfe8a3f,64d2fd46c836a06233681665,64dc7cce792e1824bf53d2bb,,,,,,,ctch,resources/DG.BMP,resources/DY.BMP,Door3,0.274739583,-0.006510417,1,0,0,1.3011,optionRight,70,11425,5,29,0,29,0,1,,,,,,,,,,,,,,,,,,,,,,,,,,,,,,,,,,,,,,,
,,,,,,,,2023-08-16_08h55.42.330,HF_wild_card,2022.2.4,Win32,40.02081082,63ed0d97a93096d3dbfe8a3f,64d2fd46c836a06233681665,64dc7cce792e1824bf53d2bb,,,,,,,sngl,resources/Empty.png,resources/DG.BMP,Door2,0.243489583,-0.002604167,1,0,0,0.6478,optionRight,20,11445,5,30,0,30,0,1,,,,,,,,,,,,,,,,,,,,,,,,,,,,,,,,,,,,,,,
,,,,,,,,2023-08-16_08h55.42.330,HF_wild_card,2022.2.4,Win32,40.02081082,63ed0d97a93096d3dbfe8a3f,64d2fd46c836a06233681665,64dc7cce792e1824bf53d2bb,,,,,,,decisionTrl,resources/DR.BMP,resources/DY.BMP,Door4,-0.345052083,0.010416667,1,0,0,2.2982,optionLeft,80,11525,5,31,0,31,0,1,,,,,,,,,,,,,,,,,,,,,,,,,,,,,,,,,,,,,,,
,,,,,,,,2023-08-16_08h55.42.330,HF_wild_card,2022.2.4,Win32,40.02081082,63ed0d97a93096d3dbfe8a3f,64d2fd46c836a06233681665,64dc7cce792e1824bf53d2bb,,,,,,,sngl,resources/Empty.png,resources/DB.BMP,WildCard_NonEx,0.236979167,-0.016927083,1,0,0,0.6474,optionRight,55,11580,5,32,0,32,0,1,,,,,,,,,,,,,,,,,,,,,,,,,,,,,,,,,,,,,,,
,,,,,,,,2023-08-16_08h55.42.330,HF_wild_card,2022.2.4,Win32,40.02081082,63ed0d97a93096d3dbfe8a3f,64d2fd46c836a06233681665,64dc7cce792e1824bf53d2bb,,,,,,,ctch,resources/DP.BMP,resources/DR.BMP,Door4,0.470052083,0,1,0,0,0.9213,optionRight,60,11640,5,33,0,33,0,1,,,,,,,,,,,,,,,,,,,,,,,,,,,,,,,,,,,,,,,
,,,,,,,,2023-08-16_08h55.42.330,HF_wild_card,2022.2.4,Win32,40.02081082,63ed0d97a93096d3dbfe8a3f,64d2fd46c836a06233681665,64dc7cce792e1824bf53d2bb,,,,,,,ctch,resources/DG.BMP,resources/DY.BMP,Door3,0.299479167,0.005208333,1,0,0,0.8956,optionRight,70,11710,5,34,0,34,0,1,,,,,,,,,,,,,,,,,,,,,,,,,,,,,,,,,,,,,,,
,,,,,,,,2023-08-16_08h55.42.330,HF_wild_card,2022.2.4,Win32,40.02081082,63ed0d97a93096d3dbfe8a3f,64d2fd46c836a06233681665,64dc7cce792e1824bf53d2bb,,,,,,,decisionTrl,resources/DG.BMP,resources/DB.BMP,WildCard_NonEx,0.342447917,-0.00390625,1,0,0,0.819,optionRight,45,11755,5,35,0,35,0,1,,,,,,,,,,,,,,,,,,,,,,,,,,,,,,,,,,,,,,,
,,,,,,,,2023-08-16_08h55.42.330,HF_wild_card,2022.2.4,Win32,40.02081082,63ed0d97a93096d3dbfe8a3f,64d2fd46c836a06233681665,64dc7cce792e1824bf53d2bb,,,,,,,sngl,resources/DG.BMP,resources/Empty.png,Door2,-0.390625,0.009114583,1,0,0,0.8399,optionLeft,40,11795,5,36,0,36,0,1,,,,,,,,,,,,,,,,,,,,,,,,,,,,,,,,,,,,,,,
,,,,,,,,2023-08-16_08h55.42.330,HF_wild_card,2022.2.4,Win32,40.02081082,63ed0d97a93096d3dbfe8a3f,64d2fd46c836a06233681665,64dc7cce792e1824bf53d2bb,,,,,,,decisionTrl,resources/DB.BMP,resources/DR.BMP,Door4,0.287760417,0.013020833,1,0,0,1.3477,optionRight,60,11855,5,37,0,37,0,1,,,,,,,,,,,,,,,,,,,,,,,,,,,,,,,,,,,,,,,
,,,,,,,,2023-08-16_08h55.42.330,HF_wild_card,2022.2.4,Win32,40.02081082,63ed0d97a93096d3dbfe8a3f,64d2fd46c836a06233681665,64dc7cce792e1824bf53d2bb,,,,,,,sngl,resources/Empty.png,resources/DP.BMP,Door1,0.342447917,0.005208333,1,0,0,0.5969,optionRight,30,11885,5,38,0,38,0,1,,,,,,,,,,,,,,,,,,,,,,,,,,,,,,,,,,,,,,,
,,,,,,,,2023-08-16_08h55.42.330,HF_wild_card,2022.2.4,Win32,40.02081082,63ed0d97a93096d3dbfe8a3f,64d2fd46c836a06233681665,64dc7cce792e1824bf53d2bb,,,,,,,ctch,resources/DY.BMP,resources/DG.BMP,Door3,-0.334635417,0.010416667,1,0,0,0.9912,optionLeft,70,11955,5,39,0,39,0,1,,,,,,,,,,,,,,,,,,,,,,,,,,,,,,,,,,,,,,,
,,,,,,,,2023-08-16_08h55.42.330,HF_wild_card,2022.2.4,Win32,40.02081082,63ed0d97a93096d3dbfe8a3f,64d2fd46c836a06233681665,64dc7cce792e1824bf53d2bb,,,,,,,decisionTrl,resources/DB.BMP,resources/DP.BMP,WildCard_NonEx,-0.21875,-0.002604167,1,0,0,0.9471,optionLeft,55,12010,5,40,0,40,0,1,,,,,,,,,,,,,,,,,,,,,,,,,,,,,,,,,,,,,,,
,,,,,,,,2023-08-16_08h55.42.330,HF_wild_card,2022.2.4,Win32,40.02081082,63ed0d97a93096d3dbfe8a3f,64d2fd46c836a06233681665,64dc7cce792e1824bf53d2bb,,,,,,,sngl,resources/DB.BMP,resources/Empty.png,WildCard_NonEx,-0.321614583,-0.002604167,1,0,0,0.5705,optionLeft,45,12055,5,41,0,41,0,1,,,,,,,,,,,,,,,,,,,,,,,,,,,,,,,,,,,,,,,
,,,,,,,,2023-08-16_08h55.42.330,HF_wild_card,2022.2.4,Win32,40.02081082,63ed0d97a93096d3dbfe8a3f,64d2fd46c836a06233681665,64dc7cce792e1824bf53d2bb,,,,,,,decisionTrl,resources/DR.BMP,resources/DY.BMP,Door4,-0.23046875,0.01171875,1,0,0,1.3155,optionLeft,80,12135,5,42,0,42,0,1,,,,,,,,,,,,,,,,,,,,,,,,,,,,,,,,,,,,,,,
,,,,,,,,2023-08-16_08h55.42.330,HF_wild_card,2022.2.4,Win32,40.02081082,63ed0d97a93096d3dbfe8a3f,64d2fd46c836a06233681665,64dc7cce792e1824bf53d2bb,,,,,,,decisionTrl,resources/DY.BMP,resources/DB.BMP,Door3,-0.20703125,0.002604167,1,0,0,0.6939,optionLeft,70,12205,5,43,0,43,0,1,,,,,,,,,,,,,,,,,,,,,,,,,,,,,,,,,,,,,,,
,,,,,,,,2023-08-16_08h55.42.330,HF_wild_card,2022.2.4,Win32,40.02081082,63ed0d97a93096d3dbfe8a3f,64d2fd46c836a06233681665,64dc7cce792e1824bf53d2bb,,,,,,,,,,,,,,,,,,,,,,,,,,4,0,4,0,1,,,,,,,,,,,,,,,,,,,,,,,,,,,,,,,,,,
,,,,,,,,2023-08-16_08h55.42.330,HF_wild_card,2022.2.4,Win32,40.02081082,63ed0d97a93096d3dbfe8a3f,64d2fd46c836a06233681665,64dc7cce792e1824bf53d2bb,,,,,,,decisionTrl,resources/DG.BMP,resources/DP.BMP,Door2,-0.201822917,-0.0390625,1,0,0,1.4288,optionLeft,40,12245,6,0,0,0,0,1,,,,,,,,,,,,,,,,,,,,,,,,,,,,,,,,,,,,,,,
,,,,,,,,2023-08-16_08h55.42.330,HF_wild_card,2022.2.4,Win32,40.02081082,63ed0d97a93096d3dbfe8a3f,64d2fd46c836a06233681665,64dc7cce792e1824bf53d2bb,,,,,,,decisionTrl,resources/DR.BMP,resources/DY.BMP,Door3,0.37109375,-0.009114583,1,0,0,0.797,optionRight,70,12315,6,1,0,1,0,1,,,,,,,,,,,,,,,,,,,,,,,,,,,,,,,,,,,,,,,
,,,,,,,,2023-08-16_08h55.42.330,HF_wild_card,2022.2.4,Win32,40.02081082,63ed0d97a93096d3dbfe8a3f,64d2fd46c836a06233681665,64dc7cce792e1824bf53d2bb,,,,,,,ctch,resources/DP.BMP,resources/DR.BMP,Door4,0.23828125,0.002604167,1,0,0,0.7657,optionRight,60,12375,6,2,0,2,0,1,,,,,,,,,,,,,,,,,,,,,,,,,,,,,,,,,,,,,,,
,,,,,,,,2023-08-16_08h55.42.330,HF_wild_card,2022.2.4,Win32,40.02081082,63ed0d97a93096d3dbfe8a3f,64d2fd46c836a06233681665,64dc7cce792e1824bf53d2bb,,,,,,,decisionTrl,resources/DY.BMP,resources/DB.BMP,Door3,-0.303385417,-0.016927083,1,0,0,1.099,optionLeft,70,12445,6,3,0,3,0,1,,,,,,,,,,,,,,,,,,,,,,,,,,,,,,,,,,,,,,,
,,,,,,,,2023-08-16_08h55.42.330,HF_wild_card,2022.2.4,Win32,40.02081082,63ed0d97a93096d3dbfe8a3f,64d2fd46c836a06233681665,64dc7cce792e1824bf53d2bb,,,,,,,decisionTrl,resources/DG.BMP,resources/DP.BMP,Door2,-0.21484375,-0.010416667,1,0,0,1.421,optionLeft,20,12465,6,4,0,4,0,1,,,,,,,,,,,,,,,,,,,,,,,,,,,,,,,,,,,,,,,
,,,,,,,,2023-08-16_08h55.42.330,HF_wild_card,2022.2.4,Win32,40.02081082,63ed0d97a93096d3dbfe8a3f,64d2fd46c836a06233681665,64dc7cce792e1824bf53d2bb,,,,,,,sngl,resources/Empty.png,resources/DB.BMP,WildCard_NonEx,0.212239583,-0.002604167,1,0,0,0.5988,optionRight,55,12520,6,5,0,5,0,1,,,,,,,,,,,,,,,,,,,,,,,,,,,,,,,,,,,,,,,
,,,,,,,,2023-08-16_08h55.42.330,HF_wild_card,2022.2.4,Win32,40.02081082,63ed0d97a93096d3dbfe8a3f,64d2fd46c836a06233681665,64dc7cce792e1824bf53d2bb,,,,,,,decisionTrl,resources/DB.BMP,resources/DG.BMP,WildCard_NonEx,-0.209635417,-0.005208333,1,0,0,0.8953,optionLeft,55,12575,6,6,0,6,0,1,,,,,,,,,,,,,,,,,,,,,,,,,,,,,,,,,,,,,,,
,,,,,,,,2023-08-16_08h55.42.330,HF_wild_card,2022.2.4,Win32,40.02081082,63ed0d97a93096d3dbfe8a3f,64d2fd46c836a06233681665,64dc7cce792e1824bf53d2bb,,,,,,,decisionTrl,resources/DY.BMP,resources/DR.BMP,Door4,0.220052083,-0.006510417,1,0,0,0.9948,optionRight,60,12635,6,7,0,7,0,1,,,,,,,,,,,,,,,,,,,,,,,,,,,,,,,,,,,,,,,
,,,,,,,,2023-08-16_08h55.42.330,HF_wild_card,2022.2.4,Win32,40.02081082,63ed0d97a93096d3dbfe8a3f,64d2fd46c836a06233681665,64dc7cce792e1824bf53d2bb,,,,,,,decisionTrl,resources/DP.BMP,resources/DG.BMP,Door1,-0.236979167,0.020833333,1,0,0,1.3768,optionLeft,30,12665,6,8,0,8,0,1,,,,,,,,,,,,,,,,,,,,,,,,,,,,,,,,,,,,,,,
,,,,,,,,2023-08-16_08h55.42.330,HF_wild_card,2022.2.4,Win32,40.02081082,63ed0d97a93096d3dbfe8a3f,64d2fd46c836a06233681665,64dc7cce792e1824bf53d2bb,,,,,,,decisionTrl,resources/DG.BMP,resources/DP.BMP,Door1,0.272135417,0.009114583,1,0,0,1.1238,optionRight,30,12695,6,9,0,9,0,1,,,,,,,,,,,,,,,,,,,,,,,,,,,,,,,,,,,,,,,
,,,,,,,,2023-08-16_08h55.42.330,HF_wild_card,2022.2.4,Win32,40.02081082,63ed0d97a93096d3dbfe8a3f,64d2fd46c836a06233681665,64dc7cce792e1824bf53d2bb,,,,,,,sngl,resources/DP.BMP,resources/Empty.png,Door1,-0.286458333,0.001302083,1,0,0,0.5986,optionLeft,30,12725,6,10,0,10,0,1,,,,,,,,,,,,,,,,,,,,,,,,,,,,,,,,,,,,,,,
,,,,,,,,2023-08-16_08h55.42.330,HF_wild_card,2022.2.4,Win32,40.02081082,63ed0d97a93096d3dbfe8a3f,64d2fd46c836a06233681665,64dc7cce792e1824bf53d2bb,,,,,,,decisionTrl,resources/DR.BMP,resources/DY.BMP,Door4,-0.248697917,0.01171875,1,0,0,1.1671,optionLeft,60,12785,6,11,0,11,0,1,,,,,,,,,,,,,,,,,,,,,,,,,,,,,,,,,,,,,,,
,,,,,,,,2023-08-16_08h55.42.330,HF_wild_card,2022.2.4,Win32,40.02081082,63ed0d97a93096d3dbfe8a3f,64d2fd46c836a06233681665,64dc7cce792e1824bf53d2bb,,,,,,,decisionTrl,resources/DG.BMP,resources/DB.BMP,WildCard_NonEx,0.248697917,0.0078125,1,0,0,0.7443,optionRight,45,12830,6,12,0,12,0,1,,,,,,,,,,,,,,,,,,,,,,,,,,,,,,,,,,,,,,,
,,,,,,,,2023-08-16_08h55.42.330,HF_wild_card,2022.2.4,Win32,40.02081082,63ed0d97a93096d3dbfe8a3f,64d2fd46c836a06233681665,64dc7cce792e1824bf53d2bb,,,,,,,sngl,resources/Empty.png,resources/DR.BMP,Door4,0.21875,-0.00390625,1,0,0,0.6236,optionRight,80,12910,6,13,0,13,0,1,,,,,,,,,,,,,,,,,,,,,,,,,,,,,,,,,,,,,,,
,,,,,,,,2023-08-16_08h55.42.330,HF_wild_card,2022.2.4,Win32,40.02081082,63ed0d97a93096d3dbfe8a3f,64d2fd46c836a06233681665,64dc7cce792e1824bf53d2bb,,,,,,,decisionTrl,resources/DY.BMP,resources/DR.BMP,Door4,0.21484375,0.006510417,1,0,0,0.8177,optionRight,60,12970,6,14,0,14,0,1,,,,,,,,,,,,,,,,,,,,,,,,,,,,,,,,,,,,,,,
,,,,,,,,2023-08-16_08h55.42.330,HF_wild_card,2022.2.4,Win32,40.02081082,63ed0d97a93096d3dbfe8a3f,64d2fd46c836a06233681665,64dc7cce792e1824bf53d2bb,,,,,,,ctch,resources/DG.BMP,resources/DY.BMP,Door3,0.302083333,0.00390625,1,0,0,0.7245,optionRight,70,13040,6,15,0,15,0,1,,,,,,,,,,,,,,,,,,,,,,,,,,,,,,,,,,,,,,,
,,,,,,,,2023-08-16_08h55.42.330,HF_wild_card,2022.2.4,Win32,40.02081082,63ed0d97a93096d3dbfe8a3f,64d2fd46c836a06233681665,64dc7cce792e1824bf53d2bb,,,,,,,sngl,resources/DB.BMP,resources/Empty.png,WildCard_NonEx,-0.266927083,0.005208333,1,0,0,0.6932,optionLeft,55,13095,6,16,0,16,0,1,,,,,,,,,,,,,,,,,,,,,,,,,,,,,,,,,,,,,,,
,,,,,,,,2023-08-16_08h55.42.330,HF_wild_card,2022.2.4,Win32,40.02081082,63ed0d97a93096d3dbfe8a3f,64d2fd46c836a06233681665,64dc7cce792e1824bf53d2bb,,,,,,,ctch,resources/DY.BMP,resources/DG.BMP,Door3,-0.321614583,0.009114583,1,0,0,0.6192,optionLeft,70,13165,6,17,0,17,0,1,,,,,,,,,,,,,,,,,,,,,,,,,,,,,,,,,,,,,,,
,,,,,,,,2023-08-16_08h55.42.330,HF_wild_card,2022.2.4,Win32,40.02081082,63ed0d97a93096d3dbfe8a3f,64d2fd46c836a06233681665,64dc7cce792e1824bf53d2bb,,,,,,,decisionTrl,resources/DP.BMP,resources/DG.BMP,Door1,-0.177083333,0,1,0,0,2.343,optionLeft,30,13195,6,18,0,18,0,1,,,,,,,,,,,,,,,,,,,,,,,,,,,,,,,,,,,,,,,
,,,,,,,,2023-08-16_08h55.42.330,HF_wild_card,2022.2.4,Win32,40.02081082,63ed0d97a93096d3dbfe8a3f,64d2fd46c836a06233681665,64dc7cce792e1824bf53d2bb,,,,,,,sngl,resources/DR.BMP,resources/Empty.png,Door4,-0.255208333,0.00390625,1,0,0,0.6227,optionLeft,60,13255,6,19,0,19,0,1,,,,,,,,,,,,,,,,,,,,,,,,,,,,,,,,,,,,,,,
,,,,,,,,2023-08-16_08h55.42.330,HF_wild_card,2022.2.4,Win32,40.02081082,63ed0d97a93096d3dbfe8a3f,64d2fd46c836a06233681665,64dc7cce792e1824bf53d2bb,,,,,,,ctch,resources/DP.BMP,resources/DR.BMP,Door4,0.286458333,0.005208333,1,0,0,0.9235,optionRight,80,13335,6,20,0,20,0,1,,,,,,,,,,,,,,,,,,,,,,,,,,,,,,,,,,,,,,,
,,,,,,,,2023-08-16_08h55.42.330,HF_wild_card,2022.2.4,Win32,40.02081082,63ed0d97a93096d3dbfe8a3f,64d2fd46c836a06233681665,64dc7cce792e1824bf53d2bb,,,,,,,decisionTrl,resources/DY.BMP,resources/DR.BMP,Door3,-0.309895833,0.002604167,1,0,0,0.7776,optionLeft,70,13405,6,21,0,21,0,1,,,,,,,,,,,,,,,,,,,,,,,,,,,,,,,,,,,,,,,
,,,,,,,,2023-08-16_08h55.42.330,HF_wild_card,2022.2.4,Win32,40.02081082,63ed0d97a93096d3dbfe8a3f,64d2fd46c836a06233681665,64dc7cce792e1824bf53d2bb,,,,,,,decisionTrl,resources/DR.BMP,resources/DY.BMP,Door4,-0.325520833,-0.0078125,1,0,0,1.0693,optionLeft,60,13465,6,22,0,22,0,1,,,,,,,,,,,,,,,,,,,,,,,,,,,,,,,,,,,,,,,
,,,,,,,,2023-08-16_08h55.42.330,HF_wild_card,2022.2.4,Win32,40.02081082,63ed0d97a93096d3dbfe8a3f,64d2fd46c836a06233681665,64dc7cce792e1824bf53d2bb,,,,,,,sngl,resources/DB.BMP,resources/Empty.png,WildCard_NonEx,-0.235677083,0,1,0,0,0.5941,optionLeft,45,13510,6,23,0,23,0,1,,,,,,,,,,,,,,,,,,,,,,,,,,,,,,,,,,,,,,,
,,,,,,,,2023-08-16_08h55.42.330,HF_wild_card,2022.2.4,Win32,40.02081082,63ed0d97a93096d3dbfe8a3f,64d2fd46c836a06233681665,64dc7cce792e1824bf53d2bb,,,,,,,sngl,resources/Empty.png,resources/DY.BMP,Door3,0.34375,-0.005208333,1,0,0,0.5451,optionRight,70,13580,6,24,0,24,0,1,,,,,,,,,,,,,,,,,,,,,,,,,,,,,,,,,,,,,,,
,,,,,,,,2023-08-16_08h55.42.330,HF_wild_card,2022.2.4,Win32,40.02081082,63ed0d97a93096d3dbfe8a3f,64d2fd46c836a06233681665,64dc7cce792e1824bf53d2bb,,,,,,,decisionTrl,resources/DR.BMP,resources/DY.BMP,Door4,-0.244791667,0.002604167,1,0,0,0.9483,optionLeft,80,13660,6,25,0,25,0,1,,,,,,,,,,,,,,,,,,,,,,,,,,,,,,,,,,,,,,,
,,,,,,,,2023-08-16_08h55.42.330,HF_wild_card,2022.2.4,Win32,40.02081082,63ed0d97a93096d3dbfe8a3f,64d2fd46c836a06233681665,64dc7cce792e1824bf53d2bb,,,,,,,ctch,resources/DY.BMP,resources/DG.BMP,Door3,-0.212239583,0.010416667,1,0,0,0.8983,optionLeft,70,13730,6,26,0,26,0,1,,,,,,,,,,,,,,,,,,,,,,,,,,,,,,,,,,,,,,,
,,,,,,,,2023-08-16_08h55.42.330,HF_wild_card,2022.2.4,Win32,40.02081082,63ed0d97a93096d3dbfe8a3f,64d2fd46c836a06233681665,64dc7cce792e1824bf53d2bb,,,,,,,ctch,resources/DG.BMP,resources/DY.BMP,Door3,0.223958333,0.015625,1,0,0,0.7939,optionRight,70,13800,6,27,0,27,0,1,,,,,,,,,,,,,,,,,,,,,,,,,,,,,,,,,,,,,,,
,,,,,,,,2023-08-16_08h55.42.330,HF_wild_card,2022.2.4,Win32,40.02081082,63ed0d97a93096d3dbfe8a3f,64d2fd46c836a06233681665,64dc7cce792e1824bf53d2bb,,,,,,,decisionTrl,resources/DG.BMP,resources/DP.BMP,Door1,0.470052083,-0.029947917,1,0,0,1.6978,optionRight,30,13830,6,28,0,28,0,1,,,,,,,,,,,,,,,,,,,,,,,,,,,,,,,,,,,,,,,
,,,,,,,,2023-08-16_08h55.42.330,HF_wild_card,2022.2.4,Win32,40.02081082,63ed0d97a93096d3dbfe8a3f,64d2fd46c836a06233681665,64dc7cce792e1824bf53d2bb,,,,,,,decisionTrl,resources/DB.BMP,resources/DR.BMP,Door4,0.247395833,-0.009114583,1,0,0,1.1672,optionRight,80,13910,6,29,0,29,0,1,,,,,,,,,,,,,,,,,,,,,,,,,,,,,,,,,,,,,,,
,,,,,,,,2023-08-16_08h55.42.330,HF_wild_card,2022.2.4,Win32,40.02081082,63ed0d97a93096d3dbfe8a3f,64d2fd46c836a06233681665,64dc7cce792e1824bf53d2bb,,,,,,,sngl,resources/DY.BMP,resources/Empty.png,Door3,-0.240885417,-0.001302083,1,0,0,0.5958,optionLeft,70,13980,6,30,0,30,0,1,,,,,,,,,,,,,,,,,,,,,,,,,,,,,,,,,,,,,,,
,,,,,,,,2023-08-16_08h55.42.330,HF_wild_card,2022.2.4,Win32,40.02081082,63ed0d97a93096d3dbfe8a3f,64d2fd46c836a06233681665,64dc7cce792e1824bf53d2bb,,,,,,,decisionTrl,resources/DP.BMP,resources/DG.BMP,Door1,-0.16796875,0,1,0,0,1.2192,optionLeft,30,14010,6,31,0,31,0,1,,,,,,,,,,,,,,,,,,,,,,,,,,,,,,,,,,,,,,,
,,,,,,,,2023-08-16_08h55.42.330,HF_wild_card,2022.2.4,Win32,40.02081082,63ed0d97a93096d3dbfe8a3f,64d2fd46c836a06233681665,64dc7cce792e1824bf53d2bb,,,,,,,decisionTrl,resources/DB.BMP,resources/DY.BMP,Door3,0.236979167,-0.005208333,1,0,0,1.1368,optionRight,70,14080,6,32,0,32,0,1,,,,,,,,,,,,,,,,,,,,,,,,,,,,,,,,,,,,,,,
,,,,,,,,2023-08-16_08h55.42.330,HF_wild_card,2022.2.4,Win32,40.02081082,63ed0d97a93096d3dbfe8a3f,64d2fd46c836a06233681665,64dc7cce792e1824bf53d2bb,,,,,,,ctch,resources/DR.BMP,resources/DP.BMP,Door4,-0.270833333,-0.0078125,1,0,0,0.865,optionLeft,60,14140,6,33,0,33,0,1,,,,,,,,,,,,,,,,,,,,,,,,,,,,,,,,,,,,,,,
,,,,,,,,2023-08-16_08h55.42.330,HF_wild_card,2022.2.4,Win32,40.02081082,63ed0d97a93096d3dbfe8a3f,64d2fd46c836a06233681665,64dc7cce792e1824bf53d2bb,,,,,,,decisionTrl,resources/DR.BMP,resources/DB.BMP,Door4,-0.268229167,-0.002604167,1,0,0,1.0989,optionLeft,60,14200,6,34,0,34,0,1,,,,,,,,,,,,,,,,,,,,,,,,,,,,,,,,,,,,,,,
,,,,,,,,2023-08-16_08h55.42.330,HF_wild_card,2022.2.4,Win32,40.02081082,63ed0d97a93096d3dbfe8a3f,64d2fd46c836a06233681665,64dc7cce792e1824bf53d2bb,,,,,,,decisionTrl,resources/DP.BMP,resources/DG.BMP,Door1,-0.203125,0.005208333,1,0,0,1.0952,optionLeft,30,14230,6,35,0,35,0,1,,,,,,,,,,,,,,,,,,,,,,,,,,,,,,,,,,,,,,,
,,,,,,,,2023-08-16_08h55.42.330,HF_wild_card,2022.2.4,Win32,40.02081082,63ed0d97a93096d3dbfe8a3f,64d2fd46c836a06233681665,64dc7cce792e1824bf53d2bb,,,,,,,decisionTrl,resources/DP.BMP,resources/DB.BMP,WildCard_NonEx,0.213541667,-0.001302083,1,0,0,0.9731,optionRight,45,14275,6,36,0,36,0,1,,,,,,,,,,,,,,,,,,,,,,,,,,,,,,,,,,,,,,,
,,,,,,,,2023-08-16_08h55.42.330,HF_wild_card,2022.2.4,Win32,40.02081082,63ed0d97a93096d3dbfe8a3f,64d2fd46c836a06233681665,64dc7cce792e1824bf53d2bb,,,,,,,sngl,resources/Empty.png,resources/DG.BMP,Door2,0.213541667,-0.00390625,1,0,0,0.6982,optionRight,40,14315,6,37,0,37,0,1,,,,,,,,,,,,,,,,,,,,,,,,,,,,,,,,,,,,,,,
,,,,,,,,2023-08-16_08h55.42.330,HF_wild_card,2022.2.4,Win32,40.02081082,63ed0d97a93096d3dbfe8a3f,64d2fd46c836a06233681665,64dc7cce792e1824bf53d2bb,,,,,,,ctch,resources/DR.BMP,resources/DP.BMP,Door4,-0.201822917,0,1,0,0,1.8016,optionLeft,60,14375,6,38,0,38,0,1,,,,,,,,,,,,,,,,,,,,,,,,,,,,,,,,,,,,,,,
,,,,,,,,2023-08-16_08h55.42.330,HF_wild_card,2022.2.4,Win32,40.02081082,63ed0d97a93096d3dbfe8a3f,64d2fd46c836a06233681665,64dc7cce792e1824bf53d2bb,,,,,,,decisionTrl,resources/DY.BMP,resources/DR.BMP,Door4,0.186197917,0.01171875,1,0,0,1.2451,optionRight,60,14435,6,39,0,39,0,1,,,,,,,,,,,,,,,,,,,,,,,,,,,,,,,,,,,,,,,
,,,,,,,,2023-08-16_08h55.42.330,HF_wild_card,2022.2.4,Win32,40.02081082,63ed0d97a93096d3dbfe8a3f,64d2fd46c836a06233681665,64dc7cce792e1824bf53d2bb,,,,,,,sngl,resources/Empty.png,resources/DB.BMP,WildCard_NonEx,0.248697917,0.00390625,1,0,0,0.5969,optionRight,45,14480,6,40,0,40,0,1,,,,,,,,,,,,,,,,,,,,,,,,,,,,,,,,,,,,,,,
,,,,,,,,2023-08-16_08h55.42.330,HF_wild_card,2022.2.4,Win32,40.02081082,63ed0d97a93096d3dbfe8a3f,64d2fd46c836a06233681665,64dc7cce792e1824bf53d2bb,,,,,,,sngl,resources/Empty.png,resources/DP.BMP,Door1,0.265625,0.002604167,1,0,0,0.6209,optionRight,30,14510,6,41,0,41,0,1,,,,,,,,,,,,,,,,,,,,,,,,,,,,,,,,,,,,,,,
,,,,,,,,2023-08-16_08h55.42.330,HF_wild_card,2022.2.4,Win32,40.02081082,63ed0d97a93096d3dbfe8a3f,64d2fd46c836a06233681665,64dc7cce792e1824bf53d2bb,,,,,,,sngl,resources/DG.BMP,resources/Empty.png,Door2,-0.326822917,-0.00390625,1,0,0,0.5147,optionLeft,20,14530,6,42,0,42,0,1,,,,,,,,,,,,,,,,,,,,,,,,,,,,,,,,,,,,,,,
,,,,,,,,2023-08-16_08h55.42.330,HF_wild_card,2022.2.4,Win32,40.02081082,63ed0d97a93096d3dbfe8a3f,64d2fd46c836a06233681665,64dc7cce792e1824bf53d2bb,,,,,,,decisionTrl,resources/DB.BMP,resources/DP.BMP,WildCard_NonEx,-0.341145833,0.005208333,1,0,0,0.8408,optionLeft,55,14585,6,43,0,43,0,1,,,,,,,,,,,,,,,,,,,,,,,,,,,,,,,,,,,,,,,
,,,,,,,,2023-08-16_08h55.42.330,HF_wild_card,2022.2.4,Win32,40.02081082,63ed0d97a93096d3dbfe8a3f,64d2fd46c836a06233681665,64dc7cce792e1824bf53d2bb,,,,,,,,,,,,,,,,,,,,,,,,,,5,0,5,0,1,,,,,,,,,,,,,,,,,,,,,,,,,,,,,,,,,,
,,,,,,,,2023-08-16_08h55.42.330,HF_wild_card,2022.2.4,Win32,40.02081082,63ed0d97a93096d3dbfe8a3f,64d2fd46c836a06233681665,64dc7cce792e1824bf53d2bb,,,,,,,decisionTrl,resources/DY.BMP,resources/DR.BMP,Door4,0.263020833,-0.06640625,1,0,0,1.1395,optionRight,80,14665,7,0,0,0,0,1,,,,,,,,,,,,,,,,,,,,,,,,,,,,,,,,,,,,,,,
,,,,,,,,2023-08-16_08h55.42.330,HF_wild_card,2022.2.4,Win32,40.02081082,63ed0d97a93096d3dbfe8a3f,64d2fd46c836a06233681665,64dc7cce792e1824bf53d2bb,,,,,,,ctch,resources/DR.BMP,resources/DP.BMP,Door4,-0.208333333,-0.014322917,1,0,0,0.7229,optionLeft,80,14745,7,1,0,1,0,1,,,,,,,,,,,,,,,,,,,,,,,,,,,,,,,,,,,,,,,
,,,,,,,,2023-08-16_08h55.42.330,HF_wild_card,2022.2.4,Win32,40.02081082,63ed0d97a93096d3dbfe8a3f,64d2fd46c836a06233681665,64dc7cce792e1824bf53d2bb,,,,,,,ctch,resources/DP.BMP,resources/DR.BMP,Door4,0.330729167,-0.009114583,1,0,0,0.6964,optionRight,80,14825,7,2,0,2,0,1,,,,,,,,,,,,,,,,,,,,,,,,,,,,,,,,,,,,,,,
,,,,,,,,2023-08-16_08h55.42.330,HF_wild_card,2022.2.4,Win32,40.02081082,63ed0d97a93096d3dbfe8a3f,64d2fd46c836a06233681665,64dc7cce792e1824bf53d2bb,,,,,,,ctch,resources/DG.BMP,resources/DY.BMP,Door3,0.268229167,-0.0078125,1,0,0,1.1397,optionRight,70,14895,7,3,0,3,0,1,,,,,,,,,,,,,,,,,,,,,,,,,,,,,,,,,,,,,,,
,,,,,,,,2023-08-16_08h55.42.330,HF_wild_card,2022.2.4,Win32,40.02081082,63ed0d97a93096d3dbfe8a3f,64d2fd46c836a06233681665,64dc7cce792e1824bf53d2bb,,,,,,,decisionTrl,resources/DY.BMP,resources/DR.BMP,Door4,0.326822917,-0.009114583,1,0,0,1.1254,optionRight,80,14975,7,4,0,4,0,1,,,,,,,,,,,,,,,,,,,,,,,,,,,,,,,,,,,,,,,
,,,,,,,,2023-08-16_08h55.42.330,HF_wild_card,2022.2.4,Win32,40.02081082,63ed0d97a93096d3dbfe8a3f,64d2fd46c836a06233681665,64dc7cce792e1824bf53d2bb,,,,,,,decisionTrl,resources/DP.BMP,resources/DG.BMP,Door1,-0.259114583,-0.005208333,1,0,0,2.2713,optionLeft,30,15005,7,5,0,5,0,1,,,,,,,,,,,,,,,,,,,,,,,,,,,,,,,,,,,,,,,
,,,,,,,,2023-08-16_08h55.42.330,HF_wild_card,2022.2.4,Win32,40.02081082,63ed0d97a93096d3dbfe8a3f,64d2fd46c836a06233681665,64dc7cce792e1824bf53d2bb,,,,,,,decisionTrl,resources/DP.BMP,resources/DG.BMP,Door1,-0.234375,-0.005208333,1,0,0,0.7961,optionLeft,30,15035,7,6,0,6,0,1,,,,,,,,,,,,,,,,,,,,,,,,,,,,,,,,,,,,,,,
,,,,,,,,2023-08-16_08h55.42.330,HF_wild_card,2022.2.4,Win32,40.02081082,63ed0d97a93096d3dbfe8a3f,64d2fd46c836a06233681665,64dc7cce792e1824bf53d2bb,,,,,,,ctch,resources/DR.BMP,resources/DP.BMP,Door4,-0.227864583,-0.0078125,1,0,0,0.8743,optionLeft,60,15095,7,7,0,7,0,1,,,,,,,,,,,,,,,,,,,,,,,,,,,,,,,,,,,,,,,
,,,,,,,,2023-08-16_08h55.42.330,HF_wild_card,2022.2.4,Win32,40.02081082,63ed0d97a93096d3dbfe8a3f,64d2fd46c836a06233681665,64dc7cce792e1824bf53d2bb,,,,,,,ctch,resources/DP.BMP,resources/DR.BMP,Door4,0.299479167,-0.014322917,1,0,0,0.6444,optionRight,80,15175,7,8,0,8,0,1,,,,,,,,,,,,,,,,,,,,,,,,,,,,,,,,,,,,,,,
,,,,,,,,2023-08-16_08h55.42.330,HF_wild_card,2022.2.4,Win32,40.02081082,63ed0d97a93096d3dbfe8a3f,64d2fd46c836a06233681665,64dc7cce792e1824bf53d2bb,,,,,,,decisionTrl,resources/DG.BMP,resources/DP.BMP,Door2,-0.21875,-0.010416667,1,0,0,1.1733,optionLeft,20,15195,7,9,0,9,0,1,,,,,,,,,,,,,,,,,,,,,,,,,,,,,,,,,,,,,,,
,,,,,,,,2023-08-16_08h55.42.330,HF_wild_card,2022.2.4,Win32,40.02081082,63ed0d97a93096d3dbfe8a3f,64d2fd46c836a06233681665,64dc7cce792e1824bf53d2bb,,,,,,,decisionTrl,resources/DP.BMP,resources/DG.BMP,Door1,-0.334635417,0.001302083,1,0,0,0.7226,optionLeft,30,15225,7,10,0,10,0,1,,,,,,,,,,,,,,,,,,,,,,,,,,,,,,,,,,,,,,,
,,,,,,,,2023-08-16_08h55.42.330,HF_wild_card,2022.2.4,Win32,40.02081082,63ed0d97a93096d3dbfe8a3f,64d2fd46c836a06233681665,64dc7cce792e1824bf53d2bb,,,,,,,decisionTrl,resources/DG.BMP,resources/DP.BMP,Door1,0.286458333,-0.001302083,1,0,0,0.9207,optionRight,30,15255,7,11,0,11,0,1,,,,,,,,,,,,,,,,,,,,,,,,,,,,,,,,,,,,,,,
,,,,,,,,2023-08-16_08h55.42.330,HF_wild_card,2022.2.4,Win32,40.02081082,63ed0d97a93096d3dbfe8a3f,64d2fd46c836a06233681665,64dc7cce792e1824bf53d2bb,,,,,,,decisionTrl,resources/DR.BMP,resources/DY.BMP,Door4,-0.204427083,-0.006510417,1,0,0,0.9998,optionLeft,60,15315,7,12,0,12,0,1,,,,,,,,,,,,,,,,,,,,,,,,,,,,,,,,,,,,,,,
,,,,,,,,2023-08-16_08h55.42.330,HF_wild_card,2022.2.4,Win32,40.02081082,63ed0d97a93096d3dbfe8a3f,64d2fd46c836a06233681665,64dc7cce792e1824bf53d2bb,,,,,,,ctch,resources/DY.BMP,resources/DG.BMP,Door3,-0.3125,-0.006510417,1,0,0,1.075,optionLeft,70,15385,7,13,0,13,0,1,,,,,,,,,,,,,,,,,,,,,,,,,,,,,,,,,,,,,,,
,,,,,,,,2023-08-16_08h55.42.330,HF_wild_card,2022.2.4,Win32,40.02081082,63ed0d97a93096d3dbfe8a3f,64d2fd46c836a06233681665,64dc7cce792e1824bf53d2bb,,,,,,,decisionTrl,resources/DR.BMP,resources/DY.BMP,Door4,-0.256510417,0.036458333,1,0,0,1.0557,optionLeft,60,15445,7,14,0,14,0,1,,,,,,,,,,,,,,,,,,,,,,,,,,,,,,,,,,,,,,,
,,,,,,,,2023-08-16_08h55.42.330,HF_wild_card,2022.2.4,Win32,40.02081082,63ed0d97a93096d3dbfe8a3f,64d2fd46c836a06233681665,64dc7cce792e1824bf53d2bb,,,,,,,ctch,resources/DY.BMP,resources/DG.BMP,Door3,-0.1875,0.006510417,1,0,0,1.5405,optionLeft,70,15515,7,15,0,15,0,1,,,,,,,,,,,,,,,,,,,,,,,,,,,,,,,,,,,,,,,
,,,,,,,,2023-08-16_08h55.42.330,HF_wild_card,2022.2.4,Win32,40.02081082,63ed0d97a93096d3dbfe8a3f,64d2fd46c836a06233681665,64dc7cce792e1824bf53d2bb,,,,,,,decisionTrl,resources/DG.BMP,resources/DP.BMP,Door1,0.16015625,0,1,0,0,2.0965,optionRight,30,15545,7,16,0,16,0,1,,,,,,,,,,,,,,,,,,,,,,,,,,,,,,,,,,,,,,,
,,,,,,,,2023-08-16_08h55.42.330,HF_wild_card,2022.2.4,Win32,40.02081082,63ed0d97a93096d3dbfe8a3f,64d2fd46c836a06233681665,64dc7cce792e1824bf53d2bb,,,,,,,decisionTrl,resources/DP.BMP,resources/DG.BMP,Door1,-0.290364583,-0.001302083,1,0,0,1.1211,optionLeft,30,15575,7,17,0,17,0,1,,,,,,,,,,,,,,,,,,,,,,,,,,,,,,,,,,,,,,,
,,,,,,,,2023-08-16_08h55.42.330,HF_wild_card,2022.2.4,Win32,40.02081082,63ed0d97a93096d3dbfe8a3f,64d2fd46c836a06233681665,64dc7cce792e1824bf53d2bb,,,,,,,decisionTrl,resources/DR.BMP,resources/DY.BMP,Door4,-0.221354167,0.00390625,1,0,0,1.2203,optionLeft,80,15655,7,18,0,18,0,1,,,,,,,,,,,,,,,,,,,,,,,,,,,,,,,,,,,,,,,
,,,,,,,,2023-08-16_08h55.42.330,HF_wild_card,2022.2.4,Win32,40.02081082,63ed0d97a93096d3dbfe8a3f,64d2fd46c836a06233681665,64dc7cce792e1824bf53d2bb,,,,,,,ctch,resources/DY.BMP,resources/DG.BMP,Door3,-0.227864583,-0.001302083,1,0,0,0.9969,optionLeft,70,15725,7,19,0,19,0,1,,,,,,,,,,,,,,,,,,,,,,,,,,,,,,,,,,,,,,,
,,,,,,,,2023-08-16_08h55.42.330,HF_wild_card,2022.2.4,Win32,40.02081082,63ed0d97a93096d3dbfe8a3f,64d2fd46c836a06233681665,64dc7cce792e1824bf53d2bb,,,,,,,decisionTrl,resources/DG.BMP,resources/DP.BMP,Door1,0.385416667,0.006510417,1,0,0,1.4856,optionRight,30,15755,7,20,0,20,0,1,,,,,,,,,,,,,,,,,,,,,,,,,,,,,,,,,,,,,,,
,,,,,,,,2023-08-16_08h55.42.330,HF_wild_card,2022.2.4,Win32,40.02081082,63ed0d97a93096d3dbfe8a3f,64d2fd46c836a06233681665,64dc7cce792e1824bf53d2bb,,,,,,,decisionTrl,resources/DG.BMP,resources/DP.BMP,Door1,0.360677083,-0.002604167,1,0,0,0.8506,optionRight,30,15785,7,21,0,21,0,1,,,,,,,,,,,,,,,,,,,,,,,,,,,,,,,,,,,,,,,
,,,,,,,,2023-08-16_08h55.42.330,HF_wild_card,2022.2.4,Win32,40.02081082,63ed0d97a93096d3dbfe8a3f,64d2fd46c836a06233681665,64dc7cce792e1824bf53d2bb,,,,,,,decisionTrl,resources/DY.BMP,resources/DR.BMP,Door4,0.248697917,0.002604167,1,0,0,1.0489,optionRight,60,15845,7,22,0,22,0,1,,,,,,,,,,,,,,,,,,,,,,,,,,,,,,,,,,,,,,,
,,,,,,,,2023-08-16_08h55.42.330,HF_wild_card,2022.2.4,Win32,40.02081082,63ed0d97a93096d3dbfe8a3f,64d2fd46c836a06233681665,64dc7cce792e1824bf53d2bb,,,,,,,decisionTrl,resources/DR.BMP,resources/DY.BMP,Door4,-0.225260417,-0.006510417,1,0,0,0.7975,optionLeft,60,15905,7,23,0,23,0,1,,,,,,,,,,,,,,,,,,,,,,,,,,,,,,,,,,,,,,,
,,,,,,,,2023-08-16_08h55.42.330,HF_wild_card,2022.2.4,Win32,40.02081082,63ed0d97a93096d3dbfe8a3f,64d2fd46c836a06233681665,64dc7cce792e1824bf53d2bb,,,,,,,decisionTrl,resources/DR.BMP,resources/DY.BMP,Door4,-0.279947917,-0.015625,1,0,0,0.6722,optionLeft,60,15965,7,24,0,24,0,1,,,,,,,,,,,,,,,,,,,,,,,,,,,,,,,,,,,,,,,
,,,,,,,,2023-08-16_08h55.42.330,HF_wild_card,2022.2.4,Win32,40.02081082,63ed0d97a93096d3dbfe8a3f,64d2fd46c836a06233681665,64dc7cce792e1824bf53d2bb,,,,,,,ctch,resources/DG.BMP,resources/DY.BMP,Door3,0.23828125,-0.0078125,1,0,0,0.8737,optionRight,70,16035,7,25,0,25,0,1,,,,,,,,,,,,,,,,,,,,,,,,,,,,,,,,,,,,,,,
,,,,,,,,2023-08-16_08h55.42.330,HF_wild_card,2022.2.4,Win32,40.02081082,63ed0d97a93096d3dbfe8a3f,64d2fd46c836a06233681665,64dc7cce792e1824bf53d2bb,,,,,,,ctch,resources/DP.BMP,resources/DR.BMP,Door4,0.264322917,-0.013020833,1,0,0,0.9743,optionRight,60,16095,7,26,0,26,0,1,,,,,,,,,,,,,,,,,,,,,,,,,,,,,,,,,,,,,,,
,,,,,,,,2023-08-16_08h55.42.330,HF_wild_card,2022.2.4,Win32,40.02081082,63ed0d97a93096d3dbfe8a3f,64d2fd46c836a06233681665,64dc7cce792e1824bf53d2bb,,,,,,,decisionTrl,resources/DP.BMP,resources/DG.BMP,Door1,-0.235677083,-0.006510417,1,0,0,1.0762,optionLeft,30,16125,7,27,0,27,0,1,,,,,,,,,,,,,,,,,,,,,,,,,,,,,,,,,,,,,,,
,,,,,,,,2023-08-16_08h55.42.330,HF_wild_card,2022.2.4,Win32,40.02081082,63ed0d97a93096d3dbfe8a3f,64d2fd46c836a06233681665,64dc7cce792e1824bf53d2bb,,,,,,,decisionTrl,resources/DG.BMP,resources/DP.BMP,Door1,0.31640625,-0.006510417,1,0,0,0.6975,optionRight,30,16155,7,28,0,28,0,1,,,,,,,,,,,,,,,,,,,,,,,,,,,,,,,,,,,,,,,
,,,,,,,,2023-08-16_08h55.42.330,HF_wild_card,2022.2.4,Win32,40.02081082,63ed0d97a93096d3dbfe8a3f,64d2fd46c836a06233681665,64dc7cce792e1824bf53d2bb,,,,,,,decisionTrl,resources/DY.BMP,resources/DR.BMP,Door4,0.28125,-0.001302083,1,0,0,0.774,optionRight,60,16215,7,29,0,29,0,1,,,,,,,,,,,,,,,,,,,,,,,,,,,,,,,,,,,,,,,
,,,,,,,,2023-08-16_08h55.42.330,HF_wild_card,2022.2.4,Win32,40.02081082,63ed0d97a93096d3dbfe8a3f,64d2fd46c836a06233681665,64dc7cce792e1824bf53d2bb,,,,,,,decisionTrl,resources/DR.BMP,resources/DY.BMP,Door4,-0.368489583,0.010416667,1,0,0,0.9482,optionLeft,80,16295,7,30,0,30,0,1,,,,,,,,,,,,,,,,,,,,,,,,,,,,,,,,,,,,,,,
,,,,,,,,2023-08-16_08h55.42.330,HF_wild_card,2022.2.4,Win32,40.02081082,63ed0d97a93096d3dbfe8a3f,64d2fd46c836a06233681665,64dc7cce792e1824bf53d2bb,,,,,,,ctch,resources/DR.BMP,resources/DP.BMP,Door4,-0.416666667,0.010416667,1,0,0,0.7026,optionLeft,80,16375,7,31,0,31,0,1,,,,,,,,,,,,,,,,,,,,,,,,,,,,,,,,,,,,,,,
,,,,,,,,2023-08-16_08h55.42.330,HF_wild_card,2022.2.4,Win32,40.02081082,63ed0d97a93096d3dbfe8a3f,64d2fd46c836a06233681665,64dc7cce792e1824bf53d2bb,,,,,,,decisionTrl,resources/DY.BMP,resources/DR.BMP,Door4,0.243489583,0.010416667,1,0,0,0.7242,optionRight,80,16455,7,32,0,32,0,1,,,,,,,,,,,,,,,,,,,,,,,,,,,,,,,,,,,,,,,
,,,,,,,,2023-08-16_08h55.42.330,HF_wild_card,2022.2.4,Win32,40.02081082,63ed0d97a93096d3dbfe8a3f,64d2fd46c836a06233681665,64dc7cce792e1824bf53d2bb,,,,,,,decisionTrl,resources/DY.BMP,resources/DR.BMP,Door4,0.240885417,0.010416667,1,0,0,0.6488,optionRight,80,16535,7,33,0,33,0,1,,,,,,,,,,,,,,,,,,,,,,,,,,,,,,,,,,,,,,,
,,,,,,,,2023-08-16_08h55.42.330,HF_wild_card,2022.2.4,Win32,40.02081082,63ed0d97a93096d3dbfe8a3f,64d2fd46c836a06233681665,64dc7cce792e1824bf53d2bb,,,,,,,ctch,resources/DG.BMP,resources/DY.BMP,Door3,0.2421875,-0.001302083,1,0,0,1.1197,optionRight,70,16605,7,34,0,34,0,1,,,,,,,,,,,,,,,,,,,,,,,,,,,,,,,,,,,,,,,
,,,,,,,,2023-08-16_08h55.42.330,HF_wild_card,2022.2.4,Win32,40.02081082,63ed0d97a93096d3dbfe8a3f,64d2fd46c836a06233681665,64dc7cce792e1824bf53d2bb,,,,,,,decisionTrl,resources/DP.BMP,resources/DG.BMP,Door1,-0.188802083,0,1,0,0,0.899,optionLeft,30,16635,7,35,0,35,0,1,,,,,,,,,,,,,,,,,,,,,,,,,,,,,,,,,,,,,,,
,,,,,,,,2023-08-16_08h55.42.330,HF_wild_card,2022.2.4,Win32,40.02081082,63ed0d97a93096d3dbfe8a3f,64d2fd46c836a06233681665,64dc7cce792e1824bf53d2bb,,,,,,,,,,,,,,,,,,,,,,,,,,6,0,6,0,1,,,,,,,,,,,,,,,,,,,,,,,,,,,,,,,,,,
,,,,,,,,2023-08-16_08h55.42.330,HF_wild_card,2022.2.4,Win32,40.02081082,63ed0d97a93096d3dbfe8a3f,64d2fd46c836a06233681665,64dc7cce792e1824bf53d2bb,,,,,,,,,,,,,,,,,,,,,,,,,,,,,,,4,,,,,,,,,,,,,,,,,,,,,,,,,,,,,,,,,
,,,,,,,,2023-08-16_08h55.42.330,HF_wild_card,2022.2.4,Win32,40.02081082,63ed0d97a93096d3dbfe8a3f,64d2fd46c836a06233681665,64dc7cce792e1824bf53d2bb,,,,,,,,,,,,,,,,,,,,,,,,,,,,,,,,,,,,,,,,,,,,,,,,,,,,,,,,,,,,,,,,
,,,,,,,,2023-08-16_08h55.42.330,HF_wild_card,2022.2.4,Win32,40.02081082,63ed0d97a93096d3dbfe8a3f,64d2fd46c836a06233681665,64dc7cce792e1824bf53d2bb,,,,,,,,,,,,,,,,,,,,,,,,,,,,,,,,70,Door3,resources/DY.BMP,0,0,0,0,1,,,,,,,,,,,,,,,,,,,,,,,,,
,,,,,,,,2023-08-16_08h55.42.330,HF_wild_card,2022.2.4,Win32,40.02081082,63ed0d97a93096d3dbfe8a3f,64d2fd46c836a06233681665,64dc7cce792e1824bf53d2bb,,,,,,,,,,,,,,,,,,,,,,,,,,,,,,,,20,Door2,resources/DG.BMP,1,0,1,0,1,,,,,,,,,,,,,,,,,,,,,,,,,
,,,,,,,,2023-08-16_08h55.42.330,HF_wild_card,2022.2.4,Win32,40.02081082,63ed0d97a93096d3dbfe8a3f,64d2fd46c836a06233681665,64dc7cce792e1824bf53d2bb,,,,,,,,,,,,,,,,,,,,,,,,,,,,,,,,80,Door4,resources/DR.BMP,2,0,2,0,1,,,,,,,,,,,,,,,,,,,,,,,,,
,,,,,,,,2023-08-16_08h55.42.330,HF_wild_card,2022.2.4,Win32,40.02081082,63ed0d97a93096d3dbfe8a3f,64d2fd46c836a06233681665,64dc7cce792e1824bf53d2bb,,,,,,,,,,,,,,,,,,,,,,,,,,,,,,,,95,WC_extreme,resources/DBN.BMP,3,0,3,0,1,,,,,,,,,,,,,,,,,,,,,,,,,
,,,,,,,,2023-08-16_08h55.42.330,HF_wild_card,2022.2.4,Win32,40.02081082,63ed0d97a93096d3dbfe8a3f,64d2fd46c836a06233681665,64dc7cce792e1824bf53d2bb,,,,,,,,,,,,,,,,,,,,,,,,,,,,,,,,30,Door1,resources/DP.BMP,4,0,4,0,1,,,,,,,,,,,,,,,,,,,,,,,,,
,,,,,,,,2023-08-16_08h55.42.330,HF_wild_card,2022.2.4,Win32,40.02081082,63ed0d97a93096d3dbfe8a3f,64d2fd46c836a06233681665,64dc7cce792e1824bf53d2bb,,,,,,,,,,,,,,,,,,,,,,,,,,,,,,,,55,WC_nonExtreme,resources/DB.BMP,5,0,5,0,1,,,,,,,,,,,,,,,,,,,,,,,,,
,,,,,,,,2023-08-16_08h55.42.330,HF_wild_card,2022.2.4,Win32,40.02081082,63ed0d97a93096d3dbfe8a3f,64d2fd46c836a06233681665,64dc7cce792e1824bf53d2bb,,,,,,,,,,,,,,,,,,,,,,,,,,,,,,,,,,,,,,,,,,,,,,,,,,,,,,,,,,,,,,,,
,,,,,,,,2023-08-16_08h55.42.330,HF_wild_card,2022.2.4,Win32,40.02081082,63ed0d97a93096d3dbfe8a3f,64d2fd46c836a06233681665,64dc7cce792e1824bf53d2bb,,,,,,,,,,,,,,,,,,,,,,,,,,,,,,,,,,,,,,,,0,0,0,0,1,,,,,,,,,,,,,,,,,,,,
,,,,,,,,2023-08-16_08h55.42.330,HF_wild_card,2022.2.4,Win32,40.02081082,63ed0d97a93096d3dbfe8a3f,64d2fd46c836a06233681665,64dc7cce792e1824bf53d2bb,,,,,,,,,,,,,,,,,,,,,,,,,,,,,,,,,,,,,,,,1,0,1,0,1,,,,,,,,,,,,,,,,,,,,
