Condition,Low fixed image (Door1),Low risky image (Door2),High fixed image (Door3),High risky image (Door4),Extreme Wild Card,NonExtreme Wild Card,,date,expName,psychopyVersion,OS,frameRate,PROLIFIC_PID,STUDY_ID,SESSION_ID,mouse_2.x,mouse_2.y,mouse_2.leftButton,mouse_2.midButton,mouse_2.rightButton,mouse_2.clicked_name,Trial Type,Left Option Image,Right Option Image,Chosen Door,mouse.x,mouse.y,mouse.leftButton,mouse.midButton,mouse.rightButton,mouse.time,mouse.clicked_name,Feedback,Cumulative Reward,Block,trial.thisRepN,trial.thisTrialN,trial.thisN,trial.thisIndex,trial.ran,blocks.thisRepN,blocks.thisTrialN,blocks.thisN,blocks.thisIndex,blocks.ran,Money conversion,First Outcome Reported,Shown Door (First Outcome),Displayed Image (First Outcome),outcomes.thisRepN,outcomes.thisTrialN,outcomes.thisN,outcomes.thisIndex,outcomes.ran,judgments.thisRepN,judgments.thisTrialN,judgments.thisN,judgments.thisIndex,judgments.ran,freqMouse.x,freqMouse.y,freqMouse.leftButton,freqMouse.midButton,freqMouse.rightButton,freqMouse.clicked_name,trials.thisRepN,trials.thisTrialN,trials.thisN,trials.thisIndex,trials.ran,FQJ for first outcome,FQJ for second outcome,Shown Door,Displayed Image,judgBlock.thisRepN,judgBlock.thisTrialN,judgBlock.thisN,judgBlock.thisIndex,judgBlock.ran
1,resources/DB.BMP,resources/DP.BMP,resources/DR.BMP,resources/DY.BMP,resources/DBN.BMP,resources/DG.BMP,,2023-08-06_08h29.54.237,HF_wild_card,2022.2.4,MacIntel,59.99880002,63ee215c40e6f16b0d6ad3f2,64ce5acb97489d65b14ecc7a,64cf4be62e975eb9284fa418,,,,,,,,,,,,,,,,,,,,,,,,,,,,,,,,,,,,,,,,,,,,,,,,,,,,,,,,,,,,,,,,
,,,,,,,,2023-08-06_08h29.54.237,HF_wild_card,2022.2.4,MacIntel,59.99880002,63ee215c40e6f16b0d6ad3f2,64ce5acb97489d65b14ecc7a,64cf4be62e975eb9284fa418,0.018233507,-0.426970486,1,0,0,agree,,,,,,,,,,,,,,,,,,,,,,,,,,,,,,,,,,,,,,,,,,,,,,,,,,,,,,,,,,
,,,,,,,,2023-08-06_08h29.54.237,HF_wild_card,2022.2.4,MacIntel,59.99880002,63ee215c40e6f16b0d6ad3f2,64ce5acb97489d65b14ecc7a,64cf4be62e975eb9284fa418,,,,,,,,,,,,,,,,,,,,,,,,,,,,,,,,,,,,,,,,,,,,,,,,,,,,,,,,,,,,,,,,
,,,,,,,,2023-08-06_08h29.54.237,HF_wild_card,2022.2.4,MacIntel,59.99880002,63ee215c40e6f16b0d6ad3f2,64ce5acb97489d65b14ecc7a,64cf4be62e975eb9284fa418,,,,,,,decisionTrl,resources/DG.BMP,resources/DP.BMP,Door2,0.330190972,-0.094166667,1,0,0,2.9525,optionRight,40,40,1,0,0,0,0,1,,,,,,,,,,,,,,,,,,,,,,,,,,,,,,,,,,,,,,,
,,,,,,,,2023-08-06_08h29.54.237,HF_wild_card,2022.2.4,MacIntel,59.99880002,63ee215c40e6f16b0d6ad3f2,64ce5acb97489d65b14ecc7a,64cf4be62e975eb9284fa418,,,,,,,decisionTrl,resources/DG.BMP,resources/DY.BMP,Door4,0.33046441,-0.007638889,1,0,0,2.2432,optionRight,80,120,1,1,0,1,0,1,,,,,,,,,,,,,,,,,,,,,,,,,,,,,,,,,,,,,,,
,,,,,,,,2023-08-06_08h29.54.237,HF_wild_card,2022.2.4,MacIntel,59.99880002,63ee215c40e6f16b0d6ad3f2,64ce5acb97489d65b14ecc7a,64cf4be62e975eb9284fa418,,,,,,,ctch,resources/DR.BMP,resources/DP.BMP,Door2,0.333142361,-0.034396701,1,0,0,1.5665,optionRight,40,160,1,2,0,2,0,1,,,,,,,,,,,,,,,,,,,,,,,,,,,,,,,,,,,,,,,
,,,,,,,,2023-08-06_08h29.54.237,HF_wild_card,2022.2.4,MacIntel,59.99880002,63ee215c40e6f16b0d6ad3f2,64ce5acb97489d65b14ecc7a,64cf4be62e975eb9284fa418,,,,,,,sngl,resources/DR.BMP,resources/Empty.png,Door3,-0.379340278,-0.000425347,1,0,0,1.9789,optionLeft,70,230,1,3,0,3,0,1,,,,,,,,,,,,,,,,,,,,,,,,,,,,,,,,,,,,,,,
,,,,,,,,2023-08-06_08h29.54.237,HF_wild_card,2022.2.4,MacIntel,59.99880002,63ee215c40e6f16b0d6ad3f2,64ce5acb97489d65b14ecc7a,64cf4be62e975eb9284fa418,,,,,,,decisionTrl,resources/DP.BMP,resources/DB.BMP,Door1,0.380924479,-0.036796875,1,0,0,1.8765,optionRight,30,260,1,4,0,4,0,1,,,,,,,,,,,,,,,,,,,,,,,,,,,,,,,,,,,,,,,
,,,,,,,,2023-08-06_08h29.54.237,HF_wild_card,2022.2.4,MacIntel,59.99880002,63ee215c40e6f16b0d6ad3f2,64ce5acb97489d65b14ecc7a,64cf4be62e975eb9284fa418,,,,,,,decisionTrl,resources/DG.BMP,resources/DB.BMP,Door1,0.356072049,-0.064040799,1,0,0,1.8316,optionRight,30,290,1,5,0,5,0,1,,,,,,,,,,,,,,,,,,,,,,,,,,,,,,,,,,,,,,,
,,,,,,,,2023-08-06_08h29.54.237,HF_wild_card,2022.2.4,MacIntel,59.99880002,63ee215c40e6f16b0d6ad3f2,64ce5acb97489d65b14ecc7a,64cf4be62e975eb9284fa418,,,,,,,ctch,resources/DY.BMP,resources/DB.BMP,Door4,-0.323411458,-0.035290799,1,0,0,2.4468,optionLeft,80,370,1,6,0,6,0,1,,,,,,,,,,,,,,,,,,,,,,,,,,,,,,,,,,,,,,,
,,,,,,,,2023-08-06_08h29.54.237,HF_wild_card,2022.2.4,MacIntel,59.99880002,63ee215c40e6f16b0d6ad3f2,64ce5acb97489d65b14ecc7a,64cf4be62e975eb9284fa418,,,,,,,sngl,resources/DG.BMP,resources/Empty.png,WildCard_NonEx,-0.368663194,-0.019270833,1,0,0,1.729,optionLeft,45,415,1,7,0,7,0,1,,,,,,,,,,,,,,,,,,,,,,,,,,,,,,,,,,,,,,,
,,,,,,,,2023-08-06_08h29.54.237,HF_wild_card,2022.2.4,MacIntel,59.99880002,63ee215c40e6f16b0d6ad3f2,64ce5acb97489d65b14ecc7a,64cf4be62e975eb9284fa418,,,,,,,sngl,resources/DY.BMP,resources/Empty.png,Door4,-0.359388021,0.014292535,1,0,0,1.7124,optionLeft,80,495,1,8,0,8,0,1,,,,,,,,,,,,,,,,,,,,,,,,,,,,,,,,,,,,,,,
,,,,,,,,2023-08-06_08h29.54.237,HF_wild_card,2022.2.4,MacIntel,59.99880002,63ee215c40e6f16b0d6ad3f2,64ce5acb97489d65b14ecc7a,64cf4be62e975eb9284fa418,,,,,,,decisionTrl,resources/DP.BMP,resources/DB.BMP,Door1,0.364431424,-0.015416667,1,0,0,1.6974,optionRight,30,525,1,9,0,9,0,1,,,,,,,,,,,,,,,,,,,,,,,,,,,,,,,,,,,,,,,
,,,,,,,,2023-08-06_08h29.54.237,HF_wild_card,2022.2.4,MacIntel,59.99880002,63ee215c40e6f16b0d6ad3f2,64ce5acb97489d65b14ecc7a,64cf4be62e975eb9284fa418,,,,,,,sngl,resources/Empty.png,resources/DG.BMP,WildCard_NonEx,0.347387153,0.015698785,1,0,0,1.5931,optionRight,55,580,1,10,0,10,0,1,,,,,,,,,,,,,,,,,,,,,,,,,,,,,,,,,,,,,,,
,,,,,,,,2023-08-06_08h29.54.237,HF_wild_card,2022.2.4,MacIntel,59.99880002,63ee215c40e6f16b0d6ad3f2,64ce5acb97489d65b14ecc7a,64cf4be62e975eb9284fa418,,,,,,,sngl,resources/Empty.png,resources/DR.BMP,Door3,0.355195313,-0.025399306,1,0,0,1.5146,optionRight,70,650,1,11,0,11,0,1,,,,,,,,,,,,,,,,,,,,,,,,,,,,,,,,,,,,,,,
,,,,,,,,2023-08-06_08h29.54.237,HF_wild_card,2022.2.4,MacIntel,59.99880002,63ee215c40e6f16b0d6ad3f2,64ce5acb97489d65b14ecc7a,64cf4be62e975eb9284fa418,,,,,,,decisionTrl,resources/DB.BMP,resources/DP.BMP,Door1,-0.347569444,-0.013602431,1,0,0,2.1298,optionLeft,30,680,1,12,0,12,0,1,,,,,,,,,,,,,,,,,,,,,,,,,,,,,,,,,,,,,,,
,,,,,,,,2023-08-06_08h29.54.237,HF_wild_card,2022.2.4,MacIntel,59.99880002,63ee215c40e6f16b0d6ad3f2,64ce5acb97489d65b14ecc7a,64cf4be62e975eb9284fa418,,,,,,,ctch,resources/DR.BMP,resources/DP.BMP,Door2,0.39999566,0.014782986,1,0,0,1.7947,optionRight,20,700,1,13,0,13,0,1,,,,,,,,,,,,,,,,,,,,,,,,,,,,,,,,,,,,,,,
,,,,,,,,2023-08-06_08h29.54.237,HF_wild_card,2022.2.4,MacIntel,59.99880002,63ee215c40e6f16b0d6ad3f2,64ce5acb97489d65b14ecc7a,64cf4be62e975eb9284fa418,,,,,,,decisionTrl,resources/DP.BMP,resources/DB.BMP,Door1,0.333845486,-0.003164063,1,0,0,1.5105,optionRight,30,730,1,14,0,14,0,1,,,,,,,,,,,,,,,,,,,,,,,,,,,,,,,,,,,,,,,
,,,,,,,,2023-08-06_08h29.54.237,HF_wild_card,2022.2.4,MacIntel,59.99880002,63ee215c40e6f16b0d6ad3f2,64ce5acb97489d65b14ecc7a,64cf4be62e975eb9284fa418,,,,,,,decisionTrl,resources/DR.BMP,resources/DY.BMP,Door3,-0.413072917,-0.046931424,1,0,0,1.9792,optionLeft,70,800,1,15,0,15,0,1,,,,,,,,,,,,,,,,,,,,,,,,,,,,,,,,,,,,,,,
,,,,,,,,2023-08-06_08h29.54.237,HF_wild_card,2022.2.4,MacIntel,59.99880002,63ee215c40e6f16b0d6ad3f2,64ce5acb97489d65b14ecc7a,64cf4be62e975eb9284fa418,,,,,,,decisionTrl,resources/DY.BMP,resources/DR.BMP,Door3,0.370234375,-0.018116319,1,0,0,1.8294,optionRight,70,870,1,16,0,16,0,1,,,,,,,,,,,,,,,,,,,,,,,,,,,,,,,,,,,,,,,
,,,,,,,,2023-08-06_08h29.54.237,HF_wild_card,2022.2.4,MacIntel,59.99880002,63ee215c40e6f16b0d6ad3f2,64ce5acb97489d65b14ecc7a,64cf4be62e975eb9284fa418,,,,,,,ctch,resources/DY.BMP,resources/DB.BMP,Door1,0.35766059,-0.008255208,1,0,0,1.5778,optionRight,30,900,1,17,0,17,0,1,,,,,,,,,,,,,,,,,,,,,,,,,,,,,,,,,,,,,,,
,,,,,,,,2023-08-06_08h29.54.237,HF_wild_card,2022.2.4,MacIntel,59.99880002,63ee215c40e6f16b0d6ad3f2,64ce5acb97489d65b14ecc7a,64cf4be62e975eb9284fa418,,,,,,,decisionTrl,resources/DB.BMP,resources/DP.BMP,Door1,-0.382834201,-0.042621528,1,0,0,1.5956,optionLeft,30,930,1,18,0,18,0,1,,,,,,,,,,,,,,,,,,,,,,,,,,,,,,,,,,,,,,,
,,,,,,,,2023-08-06_08h29.54.237,HF_wild_card,2022.2.4,MacIntel,59.99880002,63ee215c40e6f16b0d6ad3f2,64ce5acb97489d65b14ecc7a,64cf4be62e975eb9284fa418,,,,,,,decisionTrl,resources/DB.BMP,resources/DG.BMP,Door1,-0.373893229,-0.028480903,1,0,0,1.5309,optionLeft,30,960,1,19,0,19,0,1,,,,,,,,,,,,,,,,,,,,,,,,,,,,,,,,,,,,,,,
,,,,,,,,2023-08-06_08h29.54.237,HF_wild_card,2022.2.4,MacIntel,59.99880002,63ee215c40e6f16b0d6ad3f2,64ce5acb97489d65b14ecc7a,64cf4be62e975eb9284fa418,,,,,,,decisionTrl,resources/DB.BMP,resources/DP.BMP,Door2,0.35219184,-0.020872396,1,0,0,1.576,optionRight,40,1000,1,20,0,20,0,1,,,,,,,,,,,,,,,,,,,,,,,,,,,,,,,,,,,,,,,
,,,,,,,,2023-08-06_08h29.54.237,HF_wild_card,2022.2.4,MacIntel,59.99880002,63ee215c40e6f16b0d6ad3f2,64ce5acb97489d65b14ecc7a,64cf4be62e975eb9284fa418,,,,,,,sngl,resources/DP.BMP,resources/Empty.png,Door2,-0.397083333,-0.001684028,1,0,0,1.5278,optionLeft,40,1040,1,21,0,21,0,1,,,,,,,,,,,,,,,,,,,,,,,,,,,,,,,,,,,,,,,
,,,,,,,,2023-08-06_08h29.54.237,HF_wild_card,2022.2.4,MacIntel,59.99880002,63ee215c40e6f16b0d6ad3f2,64ce5acb97489d65b14ecc7a,64cf4be62e975eb9284fa418,,,,,,,sngl,resources/DG.BMP,resources/Empty.png,WildCard_NonEx,-0.413446181,-0.024348958,1,0,0,1.6446,optionLeft,55,1095,1,22,0,22,0,1,,,,,,,,,,,,,,,,,,,,,,,,,,,,,,,,,,,,,,,
,,,,,,,,2023-08-06_08h29.54.237,HF_wild_card,2022.2.4,MacIntel,59.99880002,63ee215c40e6f16b0d6ad3f2,64ce5acb97489d65b14ecc7a,64cf4be62e975eb9284fa418,,,,,,,decisionTrl,resources/DY.BMP,resources/DR.BMP,Door3,0.350564236,-0.008789063,1,0,0,2.3029,optionRight,70,1165,1,23,0,23,0,1,,,,,,,,,,,,,,,,,,,,,,,,,,,,,,,,,,,,,,,
,,,,,,,,2023-08-06_08h29.54.237,HF_wild_card,2022.2.4,MacIntel,59.99880002,63ee215c40e6f16b0d6ad3f2,64ce5acb97489d65b14ecc7a,64cf4be62e975eb9284fa418,,,,,,,sngl,resources/DB.BMP,resources/Empty.png,Door1,-0.380507812,-0.015008681,1,0,0,1.4953,optionLeft,30,1195,1,24,0,24,0,1,,,,,,,,,,,,,,,,,,,,,,,,,,,,,,,,,,,,,,,
,,,,,,,,2023-08-06_08h29.54.237,HF_wild_card,2022.2.4,MacIntel,59.99880002,63ee215c40e6f16b0d6ad3f2,64ce5acb97489d65b14ecc7a,64cf4be62e975eb9284fa418,,,,,,,decisionTrl,resources/DY.BMP,resources/DG.BMP,Door4,-0.315928819,-0.012478299,1,0,0,2.4625,optionLeft,60,1255,1,25,0,25,0,1,,,,,,,,,,,,,,,,,,,,,,,,,,,,,,,,,,,,,,,
,,,,,,,,2023-08-06_08h29.54.237,HF_wild_card,2022.2.4,MacIntel,59.99880002,63ee215c40e6f16b0d6ad3f2,64ce5acb97489d65b14ecc7a,64cf4be62e975eb9284fa418,,,,,,,sngl,resources/Empty.png,resources/DY.BMP,Door4,0.347925347,-0.003454861,1,0,0,1.3769,optionRight,60,1315,1,26,0,26,0,1,,,,,,,,,,,,,,,,,,,,,,,,,,,,,,,,,,,,,,,
,,,,,,,,2023-08-06_08h29.54.237,HF_wild_card,2022.2.4,MacIntel,59.99880002,63ee215c40e6f16b0d6ad3f2,64ce5acb97489d65b14ecc7a,64cf4be62e975eb9284fa418,,,,,,,decisionTrl,resources/DY.BMP,resources/DR.BMP,Door4,-0.38171441,-0.016701389,1,0,0,8.9055,optionLeft,80,1395,1,27,0,27,0,1,,,,,,,,,,,,,,,,,,,,,,,,,,,,,,,,,,,,,,,
,,,,,,,,2023-08-06_08h29.54.237,HF_wild_card,2022.2.4,MacIntel,59.99880002,63ee215c40e6f16b0d6ad3f2,64ce5acb97489d65b14ecc7a,64cf4be62e975eb9284fa418,,,,,,,decisionTrl,resources/DG.BMP,resources/DR.BMP,Door3,0.34203125,-0.016957465,1,0,0,3.4255,optionRight,70,1465,1,28,0,28,0,1,,,,,,,,,,,,,,,,,,,,,,,,,,,,,,,,,,,,,,,
,,,,,,,,2023-08-06_08h29.54.237,HF_wild_card,2022.2.4,MacIntel,59.99880002,63ee215c40e6f16b0d6ad3f2,64ce5acb97489d65b14ecc7a,64cf4be62e975eb9284fa418,,,,,,,sngl,resources/Empty.png,resources/DP.BMP,Door2,0.348897569,-0.033233507,1,0,0,1.788,optionRight,20,1485,1,29,0,29,0,1,,,,,,,,,,,,,,,,,,,,,,,,,,,,,,,,,,,,,,,
,,,,,,,,2023-08-06_08h29.54.237,HF_wild_card,2022.2.4,MacIntel,59.99880002,63ee215c40e6f16b0d6ad3f2,64ce5acb97489d65b14ecc7a,64cf4be62e975eb9284fa418,,,,,,,decisionTrl,resources/DB.BMP,resources/DP.BMP,Door1,-0.406440972,-0.001892361,1,0,0,1.4617,optionLeft,30,1515,1,30,0,30,0,1,,,,,,,,,,,,,,,,,,,,,,,,,,,,,,,,,,,,,,,
,,,,,,,,2023-08-06_08h29.54.237,HF_wild_card,2022.2.4,MacIntel,59.99880002,63ee215c40e6f16b0d6ad3f2,64ce5acb97489d65b14ecc7a,64cf4be62e975eb9284fa418,,,,,,,decisionTrl,resources/DR.BMP,resources/DY.BMP,Door4,0.415095486,0.018923611,1,0,0,2.2948,optionRight,80,1595,1,31,0,31,0,1,,,,,,,,,,,,,,,,,,,,,,,,,,,,,,,,,,,,,,,
,,,,,,,,2023-08-06_08h29.54.237,HF_wild_card,2022.2.4,MacIntel,59.99880002,63ee215c40e6f16b0d6ad3f2,64ce5acb97489d65b14ecc7a,64cf4be62e975eb9284fa418,,,,,,,decisionTrl,resources/DP.BMP,resources/DG.BMP,Door2,-0.355273438,-0.021072049,1,0,0,4.1788,optionLeft,20,1615,1,32,0,32,0,1,,,,,,,,,,,,,,,,,,,,,,,,,,,,,,,,,,,,,,,
,,,,,,,,2023-08-06_08h29.54.237,HF_wild_card,2022.2.4,MacIntel,59.99880002,63ee215c40e6f16b0d6ad3f2,64ce5acb97489d65b14ecc7a,64cf4be62e975eb9284fa418,,,,,,,ctch,resources/DP.BMP,resources/DR.BMP,Door3,0.367851563,0.035876736,1,0,0,1.4779,optionRight,70,1685,1,33,0,33,0,1,,,,,,,,,,,,,,,,,,,,,,,,,,,,,,,,,,,,,,,
,,,,,,,,2023-08-06_08h29.54.237,HF_wild_card,2022.2.4,MacIntel,59.99880002,63ee215c40e6f16b0d6ad3f2,64ce5acb97489d65b14ecc7a,64cf4be62e975eb9284fa418,,,,,,,decisionTrl,resources/DP.BMP,resources/DB.BMP,Door1,0.370598958,0.002894965,1,0,0,1.8129,optionRight,30,1715,1,34,0,34,0,1,,,,,,,,,,,,,,,,,,,,,,,,,,,,,,,,,,,,,,,
,,,,,,,,2023-08-06_08h29.54.237,HF_wild_card,2022.2.4,MacIntel,59.99880002,63ee215c40e6f16b0d6ad3f2,64ce5acb97489d65b14ecc7a,64cf4be62e975eb9284fa418,,,,,,,ctch,resources/DB.BMP,resources/DY.BMP,Door4,0.342426215,-0.022508681,1,0,0,1.7123,optionRight,80,1795,1,35,0,35,0,1,,,,,,,,,,,,,,,,,,,,,,,,,,,,,,,,,,,,,,,
,,,,,,,,2023-08-06_08h29.54.237,HF_wild_card,2022.2.4,MacIntel,59.99880002,63ee215c40e6f16b0d6ad3f2,64ce5acb97489d65b14ecc7a,64cf4be62e975eb9284fa418,,,,,,,sngl,resources/Empty.png,resources/DG.BMP,WildCard_NonEx,0.364891493,-0.022886285,1,0,0,1.8447,optionRight,45,1840,1,36,0,36,0,1,,,,,,,,,,,,,,,,,,,,,,,,,,,,,,,,,,,,,,,
,,,,,,,,2023-08-06_08h29.54.237,HF_wild_card,2022.2.4,MacIntel,59.99880002,63ee215c40e6f16b0d6ad3f2,64ce5acb97489d65b14ecc7a,64cf4be62e975eb9284fa418,,,,,,,sngl,resources/Empty.png,resources/DB.BMP,Door1,0.287248264,-0.057408854,1,0,0,1.7111,optionRight,30,1870,1,37,0,37,0,1,,,,,,,,,,,,,,,,,,,,,,,,,,,,,,,,,,,,,,,
,,,,,,,,2023-08-06_08h29.54.237,HF_wild_card,2022.2.4,MacIntel,59.99880002,63ee215c40e6f16b0d6ad3f2,64ce5acb97489d65b14ecc7a,64cf4be62e975eb9284fa418,,,,,,,decisionTrl,resources/DR.BMP,resources/DY.BMP,Door4,0.383038194,-0.015572917,1,0,0,1.9749,optionRight,60,1930,1,38,0,38,0,1,,,,,,,,,,,,,,,,,,,,,,,,,,,,,,,,,,,,,,,
,,,,,,,,2023-08-06_08h29.54.237,HF_wild_card,2022.2.4,MacIntel,59.99880002,63ee215c40e6f16b0d6ad3f2,64ce5acb97489d65b14ecc7a,64cf4be62e975eb9284fa418,,,,,,,decisionTrl,resources/DR.BMP,resources/DY.BMP,Door4,0.337638889,-0.014904514,1,0,0,1.7772,optionRight,80,2010,1,39,0,39,0,1,,,,,,,,,,,,,,,,,,,,,,,,,,,,,,,,,,,,,,,
,,,,,,,,2023-08-06_08h29.54.237,HF_wild_card,2022.2.4,MacIntel,59.99880002,63ee215c40e6f16b0d6ad3f2,64ce5acb97489d65b14ecc7a,64cf4be62e975eb9284fa418,,,,,,,ctch,resources/DB.BMP,resources/DY.BMP,Door4,0.401671007,-0.038029514,1,0,0,1.8948,optionRight,60,2070,1,40,0,40,0,1,,,,,,,,,,,,,,,,,,,,,,,,,,,,,,,,,,,,,,,
,,,,,,,,2023-08-06_08h29.54.237,HF_wild_card,2022.2.4,MacIntel,59.99880002,63ee215c40e6f16b0d6ad3f2,64ce5acb97489d65b14ecc7a,64cf4be62e975eb9284fa418,,,,,,,ctch,resources/DP.BMP,resources/DR.BMP,Door3,0.335347222,-0.007829861,1,0,0,2.0613,optionRight,70,2140,1,41,0,41,0,1,,,,,,,,,,,,,,,,,,,,,,,,,,,,,,,,,,,,,,,
,,,,,,,,2023-08-06_08h29.54.237,HF_wild_card,2022.2.4,MacIntel,59.99880002,63ee215c40e6f16b0d6ad3f2,64ce5acb97489d65b14ecc7a,64cf4be62e975eb9284fa418,,,,,,,decisionTrl,resources/DR.BMP,resources/DG.BMP,Door3,-0.349934896,-0.017690972,1,0,0,3.9307,optionLeft,70,2210,1,42,0,42,0,1,,,,,,,,,,,,,,,,,,,,,,,,,,,,,,,,,,,,,,,
,,,,,,,,2023-08-06_08h29.54.237,HF_wild_card,2022.2.4,MacIntel,59.99880002,63ee215c40e6f16b0d6ad3f2,64ce5acb97489d65b14ecc7a,64cf4be62e975eb9284fa418,,,,,,,decisionTrl,resources/DY.BMP,resources/DR.BMP,Door4,-0.411145833,0.039314236,1,0,0,2.3445,optionLeft,60,2270,1,43,0,43,0,1,,,,,,,,,,,,,,,,,,,,,,,,,,,,,,,,,,,,,,,
,,,,,,,,2023-08-06_08h29.54.237,HF_wild_card,2022.2.4,MacIntel,59.99880002,63ee215c40e6f16b0d6ad3f2,64ce5acb97489d65b14ecc7a,64cf4be62e975eb9284fa418,,,,,,,,,,,,,,,,,,,,,,,,,,0,0,0,0,1,,,,,,,,,,,,,,,,,,,,,,,,,,,,,,,,,,
,,,,,,,,2023-08-06_08h29.54.237,HF_wild_card,2022.2.4,MacIntel,59.99880002,63ee215c40e6f16b0d6ad3f2,64ce5acb97489d65b14ecc7a,64cf4be62e975eb9284fa418,,,,,,,decisionTrl,resources/DR.BMP,resources/DY.BMP,Door4,0.381775174,-0.027278646,1,0,0,2.5356,optionRight,60,2330,2,0,0,0,0,1,,,,,,,,,,,,,,,,,,,,,,,,,,,,,,,,,,,,,,,
,,,,,,,,2023-08-06_08h29.54.237,HF_wild_card,2022.2.4,MacIntel,59.99880002,63ee215c40e6f16b0d6ad3f2,64ce5acb97489d65b14ecc7a,64cf4be62e975eb9284fa418,,,,,,,ctch,resources/DY.BMP,resources/DB.BMP,Door4,-0.422382812,-0.021553819,1,0,0,1.08,optionLeft,60,2390,2,1,0,1,0,1,,,,,,,,,,,,,,,,,,,,,,,,,,,,,,,,,,,,,,,
,,,,,,,,2023-08-06_08h29.54.237,HF_wild_card,2022.2.4,MacIntel,59.99880002,63ee215c40e6f16b0d6ad3f2,64ce5acb97489d65b14ecc7a,64cf4be62e975eb9284fa418,,,,,,,ctch,resources/DR.BMP,resources/DP.BMP,Door3,-0.392478299,-0.030894097,1,0,0,1.4995,optionLeft,70,2460,2,2,0,2,0,1,,,,,,,,,,,,,,,,,,,,,,,,,,,,,,,,,,,,,,,
,,,,,,,,2023-08-06_08h29.54.237,HF_wild_card,2022.2.4,MacIntel,59.99880002,63ee215c40e6f16b0d6ad3f2,64ce5acb97489d65b14ecc7a,64cf4be62e975eb9284fa418,,,,,,,sngl,resources/DB.BMP,resources/Empty.png,Door1,-0.350451389,0.037712674,1,0,0,1.3127,optionLeft,30,2490,2,3,0,3,0,1,,,,,,,,,,,,,,,,,,,,,,,,,,,,,,,,,,,,,,,
,,,,,,,,2023-08-06_08h29.54.237,HF_wild_card,2022.2.4,MacIntel,59.99880002,63ee215c40e6f16b0d6ad3f2,64ce5acb97489d65b14ecc7a,64cf4be62e975eb9284fa418,,,,,,,sngl,resources/DG.BMP,resources/Empty.png,WildCard_NonEx,-0.36593316,0.070881076,1,0,0,1.0777,optionLeft,45,2535,2,4,0,4,0,1,,,,,,,,,,,,,,,,,,,,,,,,,,,,,,,,,,,,,,,
,,,,,,,,2023-08-06_08h29.54.237,HF_wild_card,2022.2.4,MacIntel,59.99880002,63ee215c40e6f16b0d6ad3f2,64ce5acb97489d65b14ecc7a,64cf4be62e975eb9284fa418,,,,,,,ctch,resources/DR.BMP,resources/DP.BMP,Door3,-0.413138021,0.046432292,1,0,0,1.0956,optionLeft,70,2605,2,5,0,5,0,1,,,,,,,,,,,,,,,,,,,,,,,,,,,,,,,,,,,,,,,
,,,,,,,,2023-08-06_08h29.54.237,HF_wild_card,2022.2.4,MacIntel,59.99880002,63ee215c40e6f16b0d6ad3f2,64ce5acb97489d65b14ecc7a,64cf4be62e975eb9284fa418,,,,,,,decisionTrl,resources/DY.BMP,resources/DR.BMP,Door4,-0.343619792,0.032204861,1,0,0,1.1293,optionLeft,60,2665,2,6,0,6,0,1,,,,,,,,,,,,,,,,,,,,,,,,,,,,,,,,,,,,,,,
,,,,,,,,2023-08-06_08h29.54.237,HF_wild_card,2022.2.4,MacIntel,59.99880002,63ee215c40e6f16b0d6ad3f2,64ce5acb97489d65b14ecc7a,64cf4be62e975eb9284fa418,,,,,,,ctch,resources/DB.BMP,resources/DY.BMP,Door4,0.403888889,0.018411458,1,0,0,1.1786,optionRight,80,2745,2,7,0,7,0,1,,,,,,,,,,,,,,,,,,,,,,,,,,,,,,,,,,,,,,,
,,,,,,,,2023-08-06_08h29.54.237,HF_wild_card,2022.2.4,MacIntel,59.99880002,63ee215c40e6f16b0d6ad3f2,64ce5acb97489d65b14ecc7a,64cf4be62e975eb9284fa418,,,,,,,sngl,resources/Empty.png,resources/DR.BMP,Door3,0.309587674,0.025017361,1,0,0,1.1104,optionRight,70,2815,2,8,0,8,0,1,,,,,,,,,,,,,,,,,,,,,,,,,,,,,,,,,,,,,,,
,,,,,,,,2023-08-06_08h29.54.237,HF_wild_card,2022.2.4,MacIntel,59.99880002,63ee215c40e6f16b0d6ad3f2,64ce5acb97489d65b14ecc7a,64cf4be62e975eb9284fa418,,,,,,,decisionTrl,resources/DY.BMP,resources/DR.BMP,Door3,0.331323785,0.024713542,1,0,0,1.2602,optionRight,70,2885,2,9,0,9,0,1,,,,,,,,,,,,,,,,,,,,,,,,,,,,,,,,,,,,,,,
,,,,,,,,2023-08-06_08h29.54.237,HF_wild_card,2022.2.4,MacIntel,59.99880002,63ee215c40e6f16b0d6ad3f2,64ce5acb97489d65b14ecc7a,64cf4be62e975eb9284fa418,,,,,,,decisionTrl,resources/DB.BMP,resources/DP.BMP,Door1,-0.37953559,0.056032986,1,0,0,2.5437,optionLeft,30,2915,2,10,0,10,0,1,,,,,,,,,,,,,,,,,,,,,,,,,,,,,,,,,,,,,,,
,,,,,,,,2023-08-06_08h29.54.237,HF_wild_card,2022.2.4,MacIntel,59.99880002,63ee215c40e6f16b0d6ad3f2,64ce5acb97489d65b14ecc7a,64cf4be62e975eb9284fa418,,,,,,,decisionTrl,resources/DP.BMP,resources/DB.BMP,Door1,0.358723958,0.083138021,1,0,0,2.4792,optionRight,30,2945,2,11,0,11,0,1,,,,,,,,,,,,,,,,,,,,,,,,,,,,,,,,,,,,,,,
,,,,,,,,2023-08-06_08h29.54.237,HF_wild_card,2022.2.4,MacIntel,59.99880002,63ee215c40e6f16b0d6ad3f2,64ce5acb97489d65b14ecc7a,64cf4be62e975eb9284fa418,,,,,,,decisionTrl,resources/DG.BMP,resources/DR.BMP,Door3,0.309244792,0.095746528,1,0,0,1.1975,optionRight,70,3015,2,12,0,12,0,1,,,,,,,,,,,,,,,,,,,,,,,,,,,,,,,,,,,,,,,
,,,,,,,,2023-08-06_08h29.54.237,HF_wild_card,2022.2.4,MacIntel,59.99880002,63ee215c40e6f16b0d6ad3f2,64ce5acb97489d65b14ecc7a,64cf4be62e975eb9284fa418,,,,,,,sngl,resources/Empty.png,resources/DP.BMP,Door2,0.342382813,0.076875,1,0,0,1.2269,optionRight,40,3055,2,13,0,13,0,1,,,,,,,,,,,,,,,,,,,,,,,,,,,,,,,,,,,,,,,
,,,,,,,,2023-08-06_08h29.54.237,HF_wild_card,2022.2.4,MacIntel,59.99880002,63ee215c40e6f16b0d6ad3f2,64ce5acb97489d65b14ecc7a,64cf4be62e975eb9284fa418,,,,,,,decisionTrl,resources/DY.BMP,resources/DG.BMP,Door4,-0.341935764,0.11577691,1,0,0,1.5632,optionLeft,80,3135,2,14,0,14,0,1,,,,,,,,,,,,,,,,,,,,,,,,,,,,,,,,,,,,,,,
,,,,,,,,2023-08-06_08h29.54.237,HF_wild_card,2022.2.4,MacIntel,59.99880002,63ee215c40e6f16b0d6ad3f2,64ce5acb97489d65b14ecc7a,64cf4be62e975eb9284fa418,,,,,,,sngl,resources/Empty.png,resources/DB.BMP,Door1,0.310173611,0.039171007,1,0,0,1.129,optionRight,30,3165,2,15,0,15,0,1,,,,,,,,,,,,,,,,,,,,,,,,,,,,,,,,,,,,,,,
,,,,,,,,2023-08-06_08h29.54.237,HF_wild_card,2022.2.4,MacIntel,59.99880002,63ee215c40e6f16b0d6ad3f2,64ce5acb97489d65b14ecc7a,64cf4be62e975eb9284fa418,,,,,,,decisionTrl,resources/DY.BMP,resources/DR.BMP,Door4,-0.322734375,0.139357639,1,0,0,1.4467,optionLeft,80,3245,2,16,0,16,0,1,,,,,,,,,,,,,,,,,,,,,,,,,,,,,,,,,,,,,,,
,,,,,,,,2023-08-06_08h29.54.237,HF_wild_card,2022.2.4,MacIntel,59.99880002,63ee215c40e6f16b0d6ad3f2,64ce5acb97489d65b14ecc7a,64cf4be62e975eb9284fa418,,,,,,,decisionTrl,resources/DR.BMP,resources/DY.BMP,Door4,0.324487847,0.120850694,1,0,0,1.0593,optionRight,80,3325,2,17,0,17,0,1,,,,,,,,,,,,,,,,,,,,,,,,,,,,,,,,,,,,,,,
,,,,,,,,2023-08-06_08h29.54.237,HF_wild_card,2022.2.4,MacIntel,59.99880002,63ee215c40e6f16b0d6ad3f2,64ce5acb97489d65b14ecc7a,64cf4be62e975eb9284fa418,,,,,,,sngl,resources/DP.BMP,resources/Empty.png,Door2,-0.287400174,0.110963542,1,0,0,1.0792,optionLeft,20,3345,2,18,0,18,0,1,,,,,,,,,,,,,,,,,,,,,,,,,,,,,,,,,,,,,,,
,,,,,,,,2023-08-06_08h29.54.237,HF_wild_card,2022.2.4,MacIntel,59.99880002,63ee215c40e6f16b0d6ad3f2,64ce5acb97489d65b14ecc7a,64cf4be62e975eb9284fa418,,,,,,,ctch,resources/DB.BMP,resources/DY.BMP,Door4,0.339665799,0.122790799,1,0,0,1.3449,optionRight,80,3425,2,19,0,19,0,1,,,,,,,,,,,,,,,,,,,,,,,,,,,,,,,,,,,,,,,
,,,,,,,,2023-08-06_08h29.54.237,HF_wild_card,2022.2.4,MacIntel,59.99880002,63ee215c40e6f16b0d6ad3f2,64ce5acb97489d65b14ecc7a,64cf4be62e975eb9284fa418,,,,,,,decisionTrl,resources/DY.BMP,resources/DR.BMP,Door4,-0.242526042,0.146553819,1,0,0,1.578,optionLeft,60,3485,2,20,0,20,0,1,,,,,,,,,,,,,,,,,,,,,,,,,,,,,,,,,,,,,,,
,,,,,,,,2023-08-06_08h29.54.237,HF_wild_card,2022.2.4,MacIntel,59.99880002,63ee215c40e6f16b0d6ad3f2,64ce5acb97489d65b14ecc7a,64cf4be62e975eb9284fa418,,,,,,,ctch,resources/DY.BMP,resources/DB.BMP,Door4,-0.251080729,0.171059028,1,0,0,1.2591,optionLeft,60,3545,2,21,0,21,0,1,,,,,,,,,,,,,,,,,,,,,,,,,,,,,,,,,,,,,,,
,,,,,,,,2023-08-06_08h29.54.237,HF_wild_card,2022.2.4,MacIntel,59.99880002,63ee215c40e6f16b0d6ad3f2,64ce5acb97489d65b14ecc7a,64cf4be62e975eb9284fa418,,,,,,,decisionTrl,resources/DG.BMP,resources/DP.BMP,WildCard_NonEx,-0.302465278,0.168784722,1,0,0,1.9958,optionLeft,45,3590,2,22,0,22,0,1,,,,,,,,,,,,,,,,,,,,,,,,,,,,,,,,,,,,,,,
,,,,,,,,2023-08-06_08h29.54.237,HF_wild_card,2022.2.4,MacIntel,59.99880002,63ee215c40e6f16b0d6ad3f2,64ce5acb97489d65b14ecc7a,64cf4be62e975eb9284fa418,,,,,,,ctch,resources/DP.BMP,resources/DR.BMP,Door3,0.296519097,0.130030382,1,0,0,1.0971,optionRight,70,3660,2,23,0,23,0,1,,,,,,,,,,,,,,,,,,,,,,,,,,,,,,,,,,,,,,,
,,,,,,,,2023-08-06_08h29.54.237,HF_wild_card,2022.2.4,MacIntel,59.99880002,63ee215c40e6f16b0d6ad3f2,64ce5acb97489d65b14ecc7a,64cf4be62e975eb9284fa418,,,,,,,decisionTrl,resources/DB.BMP,resources/DP.BMP,Door1,-0.332743056,0.141588542,1,0,0,1.3303,optionLeft,30,3690,2,24,0,24,0,1,,,,,,,,,,,,,,,,,,,,,,,,,,,,,,,,,,,,,,,
,,,,,,,,2023-08-06_08h29.54.237,HF_wild_card,2022.2.4,MacIntel,59.99880002,63ee215c40e6f16b0d6ad3f2,64ce5acb97489d65b14ecc7a,64cf4be62e975eb9284fa418,,,,,,,decisionTrl,resources/DG.BMP,resources/DB.BMP,WildCard_NonEx,-0.348142361,0.147000868,1,0,0,1.7601,optionLeft,45,3735,2,25,0,25,0,1,,,,,,,,,,,,,,,,,,,,,,,,,,,,,,,,,,,,,,,
,,,,,,,,2023-08-06_08h29.54.237,HF_wild_card,2022.2.4,MacIntel,59.99880002,63ee215c40e6f16b0d6ad3f2,64ce5acb97489d65b14ecc7a,64cf4be62e975eb9284fa418,,,,,,,sngl,resources/DY.BMP,resources/Empty.png,Door4,-0.287456597,0.173085938,1,0,0,0.9287,optionLeft,60,3795,2,26,0,26,0,1,,,,,,,,,,,,,,,,,,,,,,,,,,,,,,,,,,,,,,,
,,,,,,,,2023-08-06_08h29.54.237,HF_wild_card,2022.2.4,MacIntel,59.99880002,63ee215c40e6f16b0d6ad3f2,64ce5acb97489d65b14ecc7a,64cf4be62e975eb9284fa418,,,,,,,decisionTrl,resources/DR.BMP,resources/DG.BMP,Door3,-0.281540799,0.165390625,1,0,0,1.1633,optionLeft,70,3865,2,27,0,27,0,1,,,,,,,,,,,,,,,,,,,,,,,,,,,,,,,,,,,,,,,
,,,,,,,,2023-08-06_08h29.54.237,HF_wild_card,2022.2.4,MacIntel,59.99880002,63ee215c40e6f16b0d6ad3f2,64ce5acb97489d65b14ecc7a,64cf4be62e975eb9284fa418,,,,,,,decisionTrl,resources/DP.BMP,resources/DG.BMP,WildCard_NonEx,0.334040799,0.167252604,1,0,0,1.8606,optionRight,45,3910,2,28,0,28,0,1,,,,,,,,,,,,,,,,,,,,,,,,,,,,,,,,,,,,,,,
,,,,,,,,2023-08-06_08h29.54.237,HF_wild_card,2022.2.4,MacIntel,59.99880002,63ee215c40e6f16b0d6ad3f2,64ce5acb97489d65b14ecc7a,64cf4be62e975eb9284fa418,,,,,,,sngl,resources/Empty.png,resources/DG.BMP,WildCard_NonEx,0.333949653,0.071844618,1,0,0,1.1094,optionRight,55,3965,2,29,0,29,0,1,,,,,,,,,,,,,,,,,,,,,,,,,,,,,,,,,,,,,,,
,,,,,,,,2023-08-06_08h29.54.237,HF_wild_card,2022.2.4,MacIntel,59.99880002,63ee215c40e6f16b0d6ad3f2,64ce5acb97489d65b14ecc7a,64cf4be62e975eb9284fa418,,,,,,,decisionTrl,resources/DB.BMP,resources/DG.BMP,WildCard_NonEx,0.304947917,0.091814236,1,0,0,1.1118,optionRight,45,4010,2,30,0,30,0,1,,,,,,,,,,,,,,,,,,,,,,,,,,,,,,,,,,,,,,,
,,,,,,,,2023-08-06_08h29.54.237,HF_wild_card,2022.2.4,MacIntel,59.99880002,63ee215c40e6f16b0d6ad3f2,64ce5acb97489d65b14ecc7a,64cf4be62e975eb9284fa418,,,,,,,ctch,resources/DP.BMP,resources/DR.BMP,Door3,0.315703125,0.129409722,1,0,0,1.0978,optionRight,70,4080,2,31,0,31,0,1,,,,,,,,,,,,,,,,,,,,,,,,,,,,,,,,,,,,,,,
,,,,,,,,2023-08-06_08h29.54.237,HF_wild_card,2022.2.4,MacIntel,59.99880002,63ee215c40e6f16b0d6ad3f2,64ce5acb97489d65b14ecc7a,64cf4be62e975eb9284fa418,,,,,,,decisionTrl,resources/DP.BMP,resources/DB.BMP,Door2,-0.291276042,0.142374132,1,0,0,1.2598,optionLeft,20,4100,2,32,0,32,0,1,,,,,,,,,,,,,,,,,,,,,,,,,,,,,,,,,,,,,,,
,,,,,,,,2023-08-06_08h29.54.237,HF_wild_card,2022.2.4,MacIntel,59.99880002,63ee215c40e6f16b0d6ad3f2,64ce5acb97489d65b14ecc7a,64cf4be62e975eb9284fa418,,,,,,,decisionTrl,resources/DB.BMP,resources/DP.BMP,Door1,-0.235759549,0.188459201,1,0,0,1.2278,optionLeft,30,4130,2,33,0,33,0,1,,,,,,,,,,,,,,,,,,,,,,,,,,,,,,,,,,,,,,,
,,,,,,,,2023-08-06_08h29.54.237,HF_wild_card,2022.2.4,MacIntel,59.99880002,63ee215c40e6f16b0d6ad3f2,64ce5acb97489d65b14ecc7a,64cf4be62e975eb9284fa418,,,,,,,decisionTrl,resources/DG.BMP,resources/DY.BMP,Door4,0.241757813,0.14640625,1,0,0,1.1286,optionRight,80,4210,2,34,0,34,0,1,,,,,,,,,,,,,,,,,,,,,,,,,,,,,,,,,,,,,,,
,,,,,,,,2023-08-06_08h29.54.237,HF_wild_card,2022.2.4,MacIntel,59.99880002,63ee215c40e6f16b0d6ad3f2,64ce5acb97489d65b14ecc7a,64cf4be62e975eb9284fa418,,,,,,,sngl,resources/DR.BMP,resources/Empty.png,Door3,-0.220746528,0.195985243,1,0,0,0.9947,optionLeft,70,4280,2,35,0,35,0,1,,,,,,,,,,,,,,,,,,,,,,,,,,,,,,,,,,,,,,,
,,,,,,,,2023-08-06_08h29.54.237,HF_wild_card,2022.2.4,MacIntel,59.99880002,63ee215c40e6f16b0d6ad3f2,64ce5acb97489d65b14ecc7a,64cf4be62e975eb9284fa418,,,,,,,decisionTrl,resources/DR.BMP,resources/DY.BMP,Door4,0.200013021,0.152243924,1,0,0,1.1941,optionRight,60,4340,2,36,0,36,0,1,,,,,,,,,,,,,,,,,,,,,,,,,,,,,,,,,,,,,,,
,,,,,,,,2023-08-06_08h29.54.237,HF_wild_card,2022.2.4,MacIntel,59.99880002,63ee215c40e6f16b0d6ad3f2,64ce5acb97489d65b14ecc7a,64cf4be62e975eb9284fa418,,,,,,,sngl,resources/Empty.png,resources/DG.BMP,WildCard_NonEx,0.220998264,0.158776042,1,0,0,1.0104,optionRight,45,4385,2,37,0,37,0,1,,,,,,,,,,,,,,,,,,,,,,,,,,,,,,,,,,,,,,,
,,,,,,,,2023-08-06_08h29.54.237,HF_wild_card,2022.2.4,MacIntel,59.99880002,63ee215c40e6f16b0d6ad3f2,64ce5acb97489d65b14ecc7a,64cf4be62e975eb9284fa418,,,,,,,sngl,resources/DG.BMP,resources/Empty.png,WildCard_NonEx,-0.235685764,0.173689236,1,0,0,0.9455,optionLeft,55,4440,2,38,0,38,0,1,,,,,,,,,,,,,,,,,,,,,,,,,,,,,,,,,,,,,,,
,,,,,,,,2023-08-06_08h29.54.237,HF_wild_card,2022.2.4,MacIntel,59.99880002,63ee215c40e6f16b0d6ad3f2,64ce5acb97489d65b14ecc7a,64cf4be62e975eb9284fa418,,,,,,,decisionTrl,resources/DR.BMP,resources/DY.BMP,Door4,0.247708333,0.144548611,1,0,0,1.1447,optionRight,80,4520,2,39,0,39,0,1,,,,,,,,,,,,,,,,,,,,,,,,,,,,,,,,,,,,,,,
,,,,,,,,2023-08-06_08h29.54.237,HF_wild_card,2022.2.4,MacIntel,59.99880002,63ee215c40e6f16b0d6ad3f2,64ce5acb97489d65b14ecc7a,64cf4be62e975eb9284fa418,,,,,,,decisionTrl,resources/DP.BMP,resources/DB.BMP,Door2,-0.200590278,0.211527778,1,0,0,1.4259,optionLeft,20,4540,2,40,0,40,0,1,,,,,,,,,,,,,,,,,,,,,,,,,,,,,,,,,,,,,,,
,,,,,,,,2023-08-06_08h29.54.237,HF_wild_card,2022.2.4,MacIntel,59.99880002,63ee215c40e6f16b0d6ad3f2,64ce5acb97489d65b14ecc7a,64cf4be62e975eb9284fa418,,,,,,,decisionTrl,resources/DP.BMP,resources/DB.BMP,Door1,0.262547743,0.136384549,1,0,0,1.2115,optionRight,30,4570,2,41,0,41,0,1,,,,,,,,,,,,,,,,,,,,,,,,,,,,,,,,,,,,,,,
,,,,,,,,2023-08-06_08h29.54.237,HF_wild_card,2022.2.4,MacIntel,59.99880002,63ee215c40e6f16b0d6ad3f2,64ce5acb97489d65b14ecc7a,64cf4be62e975eb9284fa418,,,,,,,sngl,resources/Empty.png,resources/DY.BMP,Door4,0.230546875,0.171085069,1,0,0,1.0784,optionRight,80,4650,2,42,0,42,0,1,,,,,,,,,,,,,,,,,,,,,,,,,,,,,,,,,,,,,,,
,,,,,,,,2023-08-06_08h29.54.237,HF_wild_card,2022.2.4,MacIntel,59.99880002,63ee215c40e6f16b0d6ad3f2,64ce5acb97489d65b14ecc7a,64cf4be62e975eb9284fa418,,,,,,,decisionTrl,resources/DB.BMP,resources/DP.BMP,Door1,-0.301293403,0.181601563,1,0,0,1.7759,optionLeft,30,4680,2,43,0,43,0,1,,,,,,,,,,,,,,,,,,,,,,,,,,,,,,,,,,,,,,,
,,,,,,,,2023-08-06_08h29.54.237,HF_wild_card,2022.2.4,MacIntel,59.99880002,63ee215c40e6f16b0d6ad3f2,64ce5acb97489d65b14ecc7a,64cf4be62e975eb9284fa418,,,,,,,,,,,,,,,,,,,,,,,,,,1,0,1,0,1,,,,,,,,,,,,,,,,,,,,,,,,,,,,,,,,,,
,,,,,,,,2023-08-06_08h29.54.237,HF_wild_card,2022.2.4,MacIntel,59.99880002,63ee215c40e6f16b0d6ad3f2,64ce5acb97489d65b14ecc7a,64cf4be62e975eb9284fa418,,,,,,,decisionTrl,resources/DY.BMP,resources/DR.BMP,Door4,-0.292452257,0.108342014,1,0,0,1.4104,optionLeft,80,4760,3,0,0,0,0,1,,,,,,,,,,,,,,,,,,,,,,,,,,,,,,,,,,,,,,,
,,,,,,,,2023-08-06_08h29.54.237,HF_wild_card,2022.2.4,MacIntel,59.99880002,63ee215c40e6f16b0d6ad3f2,64ce5acb97489d65b14ecc7a,64cf4be62e975eb9284fa418,,,,,,,ctch,resources/DB.BMP,resources/DY.BMP,Door4,0.24421441,0.180750868,1,0,0,1.0111,optionRight,80,4840,3,1,0,1,0,1,,,,,,,,,,,,,,,,,,,,,,,,,,,,,,,,,,,,,,,
,,,,,,,,2023-08-06_08h29.54.237,HF_wild_card,2022.2.4,MacIntel,59.99880002,63ee215c40e6f16b0d6ad3f2,64ce5acb97489d65b14ecc7a,64cf4be62e975eb9284fa418,,,,,,,decisionTrl,resources/DB.BMP,resources/DP.BMP,Door1,-0.247204861,0.219626736,1,0,0,1.3762,optionLeft,30,4870,3,2,0,2,0,1,,,,,,,,,,,,,,,,,,,,,,,,,,,,,,,,,,,,,,,
,,,,,,,,2023-08-06_08h29.54.237,HF_wild_card,2022.2.4,MacIntel,59.99880002,63ee215c40e6f16b0d6ad3f2,64ce5acb97489d65b14ecc7a,64cf4be62e975eb9284fa418,,,,,,,sngl,resources/Empty.png,resources/DY.BMP,Door4,0.219470486,0.180920139,1,0,0,0.9278,optionRight,60,4930,3,3,0,3,0,1,,,,,,,,,,,,,,,,,,,,,,,,,,,,,,,,,,,,,,,
,,,,,,,,2023-08-06_08h29.54.237,HF_wild_card,2022.2.4,MacIntel,59.99880002,63ee215c40e6f16b0d6ad3f2,64ce5acb97489d65b14ecc7a,64cf4be62e975eb9284fa418,,,,,,,sngl,resources/Empty.png,resources/DP.BMP,Door2,0.210520833,0.171358507,1,0,0,1.1947,optionRight,20,4950,3,4,0,4,0,1,,,,,,,,,,,,,,,,,,,,,,,,,,,,,,,,,,,,,,,
,,,,,,,,2023-08-06_08h29.54.237,HF_wild_card,2022.2.4,MacIntel,59.99880002,63ee215c40e6f16b0d6ad3f2,64ce5acb97489d65b14ecc7a,64cf4be62e975eb9284fa418,,,,,,,decisionTrl,resources/DY.BMP,resources/DR.BMP,Door4,-0.207947049,0.227795139,1,0,0,1.4954,optionLeft,80,5030,3,5,0,5,0,1,,,,,,,,,,,,,,,,,,,,,,,,,,,,,,,,,,,,,,,
,,,,,,,,2023-08-06_08h29.54.237,HF_wild_card,2022.2.4,MacIntel,59.99880002,63ee215c40e6f16b0d6ad3f2,64ce5acb97489d65b14ecc7a,64cf4be62e975eb9284fa418,,,,,,,decisionTrl,resources/DB.BMP,resources/DP.BMP,Door1,-0.139778646,0.179427083,1,0,0,1.4127,optionLeft,30,5060,3,6,0,6,0,1,,,,,,,,,,,,,,,,,,,,,,,,,,,,,,,,,,,,,,,
,,,,,,,,2023-08-06_08h29.54.237,HF_wild_card,2022.2.4,MacIntel,59.99880002,63ee215c40e6f16b0d6ad3f2,64ce5acb97489d65b14ecc7a,64cf4be62e975eb9284fa418,,,,,,,decisionTrl,resources/DG.BMP,resources/DP.BMP,WildCard_NonEx,-0.248828125,0.159735243,1,0,0,1.4447,optionLeft,55,5115,3,7,0,7,0,1,,,,,,,,,,,,,,,,,,,,,,,,,,,,,,,,,,,,,,,
,,,,,,,,2023-08-06_08h29.54.237,HF_wild_card,2022.2.4,MacIntel,59.99880002,63ee215c40e6f16b0d6ad3f2,64ce5acb97489d65b14ecc7a,64cf4be62e975eb9284fa418,,,,,,,ctch,resources/DP.BMP,resources/DR.BMP,Door3,0.250946181,0.171519097,1,0,0,1.2927,optionRight,70,5185,3,8,0,8,0,1,,,,,,,,,,,,,,,,,,,,,,,,,,,,,,,,,,,,,,,
,,,,,,,,2023-08-06_08h29.54.237,HF_wild_card,2022.2.4,MacIntel,59.99880002,63ee215c40e6f16b0d6ad3f2,64ce5acb97489d65b14ecc7a,64cf4be62e975eb9284fa418,,,,,,,decisionTrl,resources/DR.BMP,resources/DY.BMP,Door4,0.235347222,0.167960069,1,0,0,1.3106,optionRight,60,5245,3,9,0,9,0,1,,,,,,,,,,,,,,,,,,,,,,,,,,,,,,,,,,,,,,,
,,,,,,,,2023-08-06_08h29.54.237,HF_wild_card,2022.2.4,MacIntel,59.99880002,63ee215c40e6f16b0d6ad3f2,64ce5acb97489d65b14ecc7a,64cf4be62e975eb9284fa418,,,,,,,decisionTrl,resources/DP.BMP,resources/DB.BMP,Door1,0.225664063,0.198936632,1,0,0,2.0123,optionRight,30,5275,3,10,0,10,0,1,,,,,,,,,,,,,,,,,,,,,,,,,,,,,,,,,,,,,,,
,,,,,,,,2023-08-06_08h29.54.237,HF_wild_card,2022.2.4,MacIntel,59.99880002,63ee215c40e6f16b0d6ad3f2,64ce5acb97489d65b14ecc7a,64cf4be62e975eb9284fa418,,,,,,,ctch,resources/DB.BMP,resources/DY.BMP,Door4,0.174904514,0.141124132,1,0,0,1.5315,optionRight,80,5355,3,11,0,11,0,1,,,,,,,,,,,,,,,,,,,,,,,,,,,,,,,,,,,,,,,
,,,,,,,,2023-08-06_08h29.54.237,HF_wild_card,2022.2.4,MacIntel,59.99880002,63ee215c40e6f16b0d6ad3f2,64ce5acb97489d65b14ecc7a,64cf4be62e975eb9284fa418,,,,,,,ctch,resources/DP.BMP,resources/DR.BMP,Door3,0.187105035,0.17796441,1,0,0,1.5783,optionRight,70,5425,3,12,0,12,0,1,,,,,,,,,,,,,,,,,,,,,,,,,,,,,,,,,,,,,,,
,,,,,,,,2023-08-06_08h29.54.237,HF_wild_card,2022.2.4,MacIntel,59.99880002,63ee215c40e6f16b0d6ad3f2,64ce5acb97489d65b14ecc7a,64cf4be62e975eb9284fa418,,,,,,,sngl,resources/Empty.png,resources/DB.BMP,Door1,0.140130208,0.143138021,1,0,0,1.0452,optionRight,30,5455,3,13,0,13,0,1,,,,,,,,,,,,,,,,,,,,,,,,,,,,,,,,,,,,,,,
,,,,,,,,2023-08-06_08h29.54.237,HF_wild_card,2022.2.4,MacIntel,59.99880002,63ee215c40e6f16b0d6ad3f2,64ce5acb97489d65b14ecc7a,64cf4be62e975eb9284fa418,,,,,,,sngl,resources/DG.BMP,resources/Empty.png,WildCard_NonEx,-0.209513889,0.135729167,1,0,0,1.0131,optionLeft,55,5510,3,14,0,14,0,1,,,,,,,,,,,,,,,,,,,,,,,,,,,,,,,,,,,,,,,
,,,,,,,,2023-08-06_08h29.54.237,HF_wild_card,2022.2.4,MacIntel,59.99880002,63ee215c40e6f16b0d6ad3f2,64ce5acb97489d65b14ecc7a,64cf4be62e975eb9284fa418,,,,,,,sngl,resources/DR.BMP,resources/Empty.png,Door3,-0.146132812,0.123988715,1,0,0,0.8111,optionLeft,70,5580,3,15,0,15,0,1,,,,,,,,,,,,,,,,,,,,,,,,,,,,,,,,,,,,,,,
,,,,,,,,2023-08-06_08h29.54.237,HF_wild_card,2022.2.4,MacIntel,59.99880002,63ee215c40e6f16b0d6ad3f2,64ce5acb97489d65b14ecc7a,64cf4be62e975eb9284fa418,,,,,,,decisionTrl,resources/DG.BMP,resources/DR.BMP,Door3,0.153207465,0.107990451,1,0,0,0.9974,optionRight,70,5650,3,16,0,16,0,1,,,,,,,,,,,,,,,,,,,,,,,,,,,,,,,,,,,,,,,
,,,,,,,,2023-08-06_08h29.54.237,HF_wild_card,2022.2.4,MacIntel,59.99880002,63ee215c40e6f16b0d6ad3f2,64ce5acb97489d65b14ecc7a,64cf4be62e975eb9284fa418,,,,,,,decisionTrl,resources/DR.BMP,resources/DY.BMP,Door4,0.186393229,0.140603299,1,0,0,1.0113,optionRight,60,5710,3,17,0,17,0,1,,,,,,,,,,,,,,,,,,,,,,,,,,,,,,,,,,,,,,,
,,,,,,,,2023-08-06_08h29.54.237,HF_wild_card,2022.2.4,MacIntel,59.99880002,63ee215c40e6f16b0d6ad3f2,64ce5acb97489d65b14ecc7a,64cf4be62e975eb9284fa418,,,,,,,ctch,resources/DY.BMP,resources/DB.BMP,Door4,-0.163298611,0.128563368,1,0,0,0.9947,optionLeft,80,5790,3,18,0,18,0,1,,,,,,,,,,,,,,,,,,,,,,,,,,,,,,,,,,,,,,,
,,,,,,,,2023-08-06_08h29.54.237,HF_wild_card,2022.2.4,MacIntel,59.99880002,63ee215c40e6f16b0d6ad3f2,64ce5acb97489d65b14ecc7a,64cf4be62e975eb9284fa418,,,,,,,decisionTrl,resources/DG.BMP,resources/DB.BMP,WildCard_NonEx,-0.173402778,0.122330729,1,0,0,1.5974,optionLeft,45,5835,3,19,0,19,0,1,,,,,,,,,,,,,,,,,,,,,,,,,,,,,,,,,,,,,,,
,,,,,,,,2023-08-06_08h29.54.237,HF_wild_card,2022.2.4,MacIntel,59.99880002,63ee215c40e6f16b0d6ad3f2,64ce5acb97489d65b14ecc7a,64cf4be62e975eb9284fa418,,,,,,,ctch,resources/DR.BMP,resources/DP.BMP,Door3,-0.181749132,0.156649306,1,0,0,1.3933,optionLeft,70,5905,3,20,0,20,0,1,,,,,,,,,,,,,,,,,,,,,,,,,,,,,,,,,,,,,,,
,,,,,,,,2023-08-06_08h29.54.237,HF_wild_card,2022.2.4,MacIntel,59.99880002,63ee215c40e6f16b0d6ad3f2,64ce5acb97489d65b14ecc7a,64cf4be62e975eb9284fa418,,,,,,,decisionTrl,resources/DP.BMP,resources/DG.BMP,WildCard_NonEx,0.146436632,0.133502604,1,0,0,1.746,optionRight,45,5950,3,21,0,21,0,1,,,,,,,,,,,,,,,,,,,,,,,,,,,,,,,,,,,,,,,
,,,,,,,,2023-08-06_08h29.54.237,HF_wild_card,2022.2.4,MacIntel,59.99880002,63ee215c40e6f16b0d6ad3f2,64ce5acb97489d65b14ecc7a,64cf4be62e975eb9284fa418,,,,,,,decisionTrl,resources/DY.BMP,resources/DR.BMP,Door4,-0.181341146,0.218198785,1,0,0,2.8807,optionLeft,80,6030,3,22,0,22,0,1,,,,,,,,,,,,,,,,,,,,,,,,,,,,,,,,,,,,,,,
,,,,,,,,2023-08-06_08h29.54.237,HF_wild_card,2022.2.4,MacIntel,59.99880002,63ee215c40e6f16b0d6ad3f2,64ce5acb97489d65b14ecc7a,64cf4be62e975eb9284fa418,,,,,,,decisionTrl,resources/DB.BMP,resources/DP.BMP,Door1,-0.159913194,0.191848958,1,0,0,1.4276,optionLeft,30,6060,3,23,0,23,0,1,,,,,,,,,,,,,,,,,,,,,,,,,,,,,,,,,,,,,,,
,,,,,,,,2023-08-06_08h29.54.237,HF_wild_card,2022.2.4,MacIntel,59.99880002,63ee215c40e6f16b0d6ad3f2,64ce5acb97489d65b14ecc7a,64cf4be62e975eb9284fa418,,,,,,,decisionTrl,resources/DB.BMP,resources/DP.BMP,Door1,-0.140429688,0.189053819,1,0,0,1.3141,optionLeft,30,6090,3,24,0,24,0,1,,,,,,,,,,,,,,,,,,,,,,,,,,,,,,,,,,,,,,,
,,,,,,,,2023-08-06_08h29.54.237,HF_wild_card,2022.2.4,MacIntel,59.99880002,63ee215c40e6f16b0d6ad3f2,64ce5acb97489d65b14ecc7a,64cf4be62e975eb9284fa418,,,,,,,decisionTrl,resources/DY.BMP,resources/DR.BMP,Door4,-0.153975694,0.199266493,1,0,0,1.4305,optionLeft,60,6150,3,25,0,25,0,1,,,,,,,,,,,,,,,,,,,,,,,,,,,,,,,,,,,,,,,
,,,,,,,,2023-08-06_08h29.54.237,HF_wild_card,2022.2.4,MacIntel,59.99880002,63ee215c40e6f16b0d6ad3f2,64ce5acb97489d65b14ecc7a,64cf4be62e975eb9284fa418,,,,,,,sngl,resources/Empty.png,resources/DG.BMP,WildCard_NonEx,0.132994792,0.117482639,1,0,0,1.2479,optionRight,45,6195,3,26,0,26,0,1,,,,,,,,,,,,,,,,,,,,,,,,,,,,,,,,,,,,,,,
,,,,,,,,2023-08-06_08h29.54.237,HF_wild_card,2022.2.4,MacIntel,59.99880002,63ee215c40e6f16b0d6ad3f2,64ce5acb97489d65b14ecc7a,64cf4be62e975eb9284fa418,,,,,,,decisionTrl,resources/DP.BMP,resources/DB.BMP,Door1,0.157638889,0.162482639,1,0,0,1.6607,optionRight,30,6225,3,27,0,27,0,1,,,,,,,,,,,,,,,,,,,,,,,,,,,,,,,,,,,,,,,
,,,,,,,,2023-08-06_08h29.54.237,HF_wild_card,2022.2.4,MacIntel,59.99880002,63ee215c40e6f16b0d6ad3f2,64ce5acb97489d65b14ecc7a,64cf4be62e975eb9284fa418,,,,,,,sngl,resources/DB.BMP,resources/Empty.png,Door1,-0.172161458,0.11047309,1,0,0,0.9967,optionLeft,30,6255,3,28,0,28,0,1,,,,,,,,,,,,,,,,,,,,,,,,,,,,,,,,,,,,,,,
,,,,,,,,2023-08-06_08h29.54.237,HF_wild_card,2022.2.4,MacIntel,59.99880002,63ee215c40e6f16b0d6ad3f2,64ce5acb97489d65b14ecc7a,64cf4be62e975eb9284fa418,,,,,,,sngl,resources/DY.BMP,resources/Empty.png,Door4,-0.165251736,0.124605035,1,0,0,0.8335,optionLeft,80,6335,3,29,0,29,0,1,,,,,,,,,,,,,,,,,,,,,,,,,,,,,,,,,,,,,,,
,,,,,,,,2023-08-06_08h29.54.237,HF_wild_card,2022.2.4,MacIntel,59.99880002,63ee215c40e6f16b0d6ad3f2,64ce5acb97489d65b14ecc7a,64cf4be62e975eb9284fa418,,,,,,,decisionTrl,resources/DP.BMP,resources/DB.BMP,Door1,0.202899306,0.181397569,1,0,0,1.7918,optionRight,30,6365,3,30,0,30,0,1,,,,,,,,,,,,,,,,,,,,,,,,,,,,,,,,,,,,,,,
,,,,,,,,2023-08-06_08h29.54.237,HF_wild_card,2022.2.4,MacIntel,59.99880002,63ee215c40e6f16b0d6ad3f2,64ce5acb97489d65b14ecc7a,64cf4be62e975eb9284fa418,,,,,,,ctch,resources/DR.BMP,resources/DP.BMP,Door3,-0.173155382,0.185607639,1,0,0,1.0794,optionLeft,70,6435,3,31,0,31,0,1,,,,,,,,,,,,,,,,,,,,,,,,,,,,,,,,,,,,,,,
,,,,,,,,2023-08-06_08h29.54.237,HF_wild_card,2022.2.4,MacIntel,59.99880002,63ee215c40e6f16b0d6ad3f2,64ce5acb97489d65b14ecc7a,64cf4be62e975eb9284fa418,,,,,,,decisionTrl,resources/DB.BMP,resources/DG.BMP,WildCard_NonEx,0.152369792,0.145590278,1,0,0,1.5443,optionRight,45,6480,3,32,0,32,0,1,,,,,,,,,,,,,,,,,,,,,,,,,,,,,,,,,,,,,,,
,,,,,,,,2023-08-06_08h29.54.237,HF_wild_card,2022.2.4,MacIntel,59.99880002,63ee215c40e6f16b0d6ad3f2,64ce5acb97489d65b14ecc7a,64cf4be62e975eb9284fa418,,,,,,,decisionTrl,resources/DR.BMP,resources/DG.BMP,Door3,-0.138710937,0.147282986,1,0,0,1.0777,optionLeft,70,6550,3,33,0,33,0,1,,,,,,,,,,,,,,,,,,,,,,,,,,,,,,,,,,,,,,,
,,,,,,,,2023-08-06_08h29.54.237,HF_wild_card,2022.2.4,MacIntel,59.99880002,63ee215c40e6f16b0d6ad3f2,64ce5acb97489d65b14ecc7a,64cf4be62e975eb9284fa418,,,,,,,decisionTrl,resources/DR.BMP,resources/DY.BMP,Door4,0.144357639,0.172942708,1,0,0,1.1954,optionRight,80,6630,3,34,0,34,0,1,,,,,,,,,,,,,,,,,,,,,,,,,,,,,,,,,,,,,,,
,,,,,,,,2023-08-06_08h29.54.237,HF_wild_card,2022.2.4,MacIntel,59.99880002,63ee215c40e6f16b0d6ad3f2,64ce5acb97489d65b14ecc7a,64cf4be62e975eb9284fa418,,,,,,,sngl,resources/Empty.png,resources/DR.BMP,Door3,0.131171875,0.133020833,1,0,0,1.2139,optionRight,70,6700,3,35,0,35,0,1,,,,,,,,,,,,,,,,,,,,,,,,,,,,,,,,,,,,,,,
,,,,,,,,2023-08-06_08h29.54.237,HF_wild_card,2022.2.4,MacIntel,59.99880002,63ee215c40e6f16b0d6ad3f2,64ce5acb97489d65b14ecc7a,64cf4be62e975eb9284fa418,,,,,,,sngl,resources/DG.BMP,resources/Empty.png,WildCard_NonEx,-0.102000868,0.109388021,1,0,0,0.8618,optionLeft,45,6745,3,36,0,36,0,1,,,,,,,,,,,,,,,,,,,,,,,,,,,,,,,,,,,,,,,
,,,,,,,,2023-08-06_08h29.54.237,HF_wild_card,2022.2.4,MacIntel,59.99880002,63ee215c40e6f16b0d6ad3f2,64ce5acb97489d65b14ecc7a,64cf4be62e975eb9284fa418,,,,,,,sngl,resources/DP.BMP,resources/Empty.png,Door2,-0.183537326,0.05827691,1,0,0,2.8627,optionLeft,40,6785,3,37,0,37,0,1,,,,,,,,,,,,,,,,,,,,,,,,,,,,,,,,,,,,,,,
,,,,,,,,2023-08-06_08h29.54.237,HF_wild_card,2022.2.4,MacIntel,59.99880002,63ee215c40e6f16b0d6ad3f2,64ce5acb97489d65b14ecc7a,64cf4be62e975eb9284fa418,,,,,,,decisionTrl,resources/DP.BMP,resources/DB.BMP,Door1,0.159440104,0.195338542,1,0,0,1.9757,optionRight,30,6815,3,38,0,38,0,1,,,,,,,,,,,,,,,,,,,,,,,,,,,,,,,,,,,,,,,
,,,,,,,,2023-08-06_08h29.54.237,HF_wild_card,2022.2.4,MacIntel,59.99880002,63ee215c40e6f16b0d6ad3f2,64ce5acb97489d65b14ecc7a,64cf4be62e975eb9284fa418,,,,,,,decisionTrl,resources/DG.BMP,resources/DY.BMP,Door4,0.15515625,0.13281684,1,0,0,1.7777,optionRight,80,6895,3,39,0,39,0,1,,,,,,,,,,,,,,,,,,,,,,,,,,,,,,,,,,,,,,,
,,,,,,,,2023-08-06_08h29.54.237,HF_wild_card,2022.2.4,MacIntel,59.99880002,63ee215c40e6f16b0d6ad3f2,64ce5acb97489d65b14ecc7a,64cf4be62e975eb9284fa418,,,,,,,sngl,resources/Empty.png,resources/DG.BMP,WildCard_NonEx,0.140438368,0.143211806,1,0,0,1.2305,optionRight,55,6950,3,40,0,40,0,1,,,,,,,,,,,,,,,,,,,,,,,,,,,,,,,,,,,,,,,
,,,,,,,,2023-08-06_08h29.54.237,HF_wild_card,2022.2.4,MacIntel,59.99880002,63ee215c40e6f16b0d6ad3f2,64ce5acb97489d65b14ecc7a,64cf4be62e975eb9284fa418,,,,,,,ctch,resources/DY.BMP,resources/DB.BMP,Door4,-0.128203125,0.177426215,1,0,0,1.3617,optionLeft,80,7030,3,41,0,41,0,1,,,,,,,,,,,,,,,,,,,,,,,,,,,,,,,,,,,,,,,
,,,,,,,,2023-08-06_08h29.54.237,HF_wild_card,2022.2.4,MacIntel,59.99880002,63ee215c40e6f16b0d6ad3f2,64ce5acb97489d65b14ecc7a,64cf4be62e975eb9284fa418,,,,,,,decisionTrl,resources/DY.BMP,resources/DG.BMP,Door4,-0.122743056,0.135967882,1,0,0,1.1101,optionLeft,60,7090,3,42,0,42,0,1,,,,,,,,,,,,,,,,,,,,,,,,,,,,,,,,,,,,,,,
,,,,,,,,2023-08-06_08h29.54.237,HF_wild_card,2022.2.4,MacIntel,59.99880002,63ee215c40e6f16b0d6ad3f2,64ce5acb97489d65b14ecc7a,64cf4be62e975eb9284fa418,,,,,,,decisionTrl,resources/DR.BMP,resources/DY.BMP,Door3,-0.158858507,0.140802951,1,0,0,1.71,optionLeft,70,7160,3,43,0,43,0,1,,,,,,,,,,,,,,,,,,,,,,,,,,,,,,,,,,,,,,,
,,,,,,,,2023-08-06_08h29.54.237,HF_wild_card,2022.2.4,MacIntel,59.99880002,63ee215c40e6f16b0d6ad3f2,64ce5acb97489d65b14ecc7a,64cf4be62e975eb9284fa418,,,,,,,,,,,,,,,,,,,,,,,,,,2,0,2,0,1,,,,,,,,,,,,,,,,,,,,,,,,,,,,,,,,,,
,,,,,,,,2023-08-06_08h29.54.237,HF_wild_card,2022.2.4,MacIntel,59.99880002,63ee215c40e6f16b0d6ad3f2,64ce5acb97489d65b14ecc7a,64cf4be62e975eb9284fa418,,,,,,,decisionTrl,resources/DR.BMP,resources/DY.BMP,Door4,0.150677083,-0.023333333,1,0,0,4.0891,optionRight,80,7240,4,0,0,0,0,1,,,,,,,,,,,,,,,,,,,,,,,,,,,,,,,,,,,,,,,
,,,,,,,,2023-08-06_08h29.54.237,HF_wild_card,2022.2.4,MacIntel,59.99880002,63ee215c40e6f16b0d6ad3f2,64ce5acb97489d65b14ecc7a,64cf4be62e975eb9284fa418,,,,,,,decisionTrl,resources/DP.BMP,resources/DB.BMP,Door1,0.123372396,0.032230903,1,0,0,1.4303,optionRight,30,7270,4,1,0,1,0,1,,,,,,,,,,,,,,,,,,,,,,,,,,,,,,,,,,,,,,,
,,,,,,,,2023-08-06_08h29.54.237,HF_wild_card,2022.2.4,MacIntel,59.99880002,63ee215c40e6f16b0d6ad3f2,64ce5acb97489d65b14ecc7a,64cf4be62e975eb9284fa418,,,,,,,decisionTrl,resources/DB.BMP,resources/DP.BMP,Door1,-0.161766493,0.066202257,1,0,0,1.178,optionLeft,30,7300,4,2,0,2,0,1,,,,,,,,,,,,,,,,,,,,,,,,,,,,,,,,,,,,,,,
,,,,,,,,2023-08-06_08h29.54.237,HF_wild_card,2022.2.4,MacIntel,59.99880002,63ee215c40e6f16b0d6ad3f2,64ce5acb97489d65b14ecc7a,64cf4be62e975eb9284fa418,,,,,,,decisionTrl,resources/DBN.BMP,resources/DR.BMP,WildCard_Ex,-0.162855903,0.048242187,1,0,0,1.3311,optionLeft,95,7395,4,3,0,3,0,1,,,,,,,,,,,,,,,,,,,,,,,,,,,,,,,,,,,,,,,
,,,,,,,,2023-08-06_08h29.54.237,HF_wild_card,2022.2.4,MacIntel,59.99880002,63ee215c40e6f16b0d6ad3f2,64ce5acb97489d65b14ecc7a,64cf4be62e975eb9284fa418,,,,,,,decisionTrl,resources/DR.BMP,resources/DBN.BMP,WildCard_Ex,0.138576389,0.054010417,1,0,0,1.2428,optionRight,5,7400,4,4,0,4,0,1,,,,,,,,,,,,,,,,,,,,,,,,,,,,,,,,,,,,,,,
,,,,,,,,2023-08-06_08h29.54.237,HF_wild_card,2022.2.4,MacIntel,59.99880002,63ee215c40e6f16b0d6ad3f2,64ce5acb97489d65b14ecc7a,64cf4be62e975eb9284fa418,,,,,,,sngl,resources/Empty.png,resources/DP.BMP,Door2,0.126445312,0.027022569,1,0,0,1.7954,optionRight,40,7440,4,5,0,5,0,1,,,,,,,,,,,,,,,,,,,,,,,,,,,,,,,,,,,,,,,
,,,,,,,,2023-08-06_08h29.54.237,HF_wild_card,2022.2.4,MacIntel,59.99880002,63ee215c40e6f16b0d6ad3f2,64ce5acb97489d65b14ecc7a,64cf4be62e975eb9284fa418,,,,,,,decisionTrl,resources/DP.BMP,resources/DB.BMP,Door2,-0.135876736,0.028836806,1,0,0,1.1965,optionLeft,20,7460,4,6,0,6,0,1,,,,,,,,,,,,,,,,,,,,,,,,,,,,,,,,,,,,,,,
,,,,,,,,2023-08-06_08h29.54.237,HF_wild_card,2022.2.4,MacIntel,59.99880002,63ee215c40e6f16b0d6ad3f2,64ce5acb97489d65b14ecc7a,64cf4be62e975eb9284fa418,,,,,,,decisionTrl,resources/DY.BMP,resources/DR.BMP,Door4,-0.130052083,0.082708333,1,0,0,1.1609,optionLeft,80,7540,4,7,0,7,0,1,,,,,,,,,,,,,,,,,,,,,,,,,,,,,,,,,,,,,,,
,,,,,,,,2023-08-06_08h29.54.237,HF_wild_card,2022.2.4,MacIntel,59.99880002,63ee215c40e6f16b0d6ad3f2,64ce5acb97489d65b14ecc7a,64cf4be62e975eb9284fa418,,,,,,,ctch,resources/DB.BMP,resources/DY.BMP,Door4,0.141974826,0.041974826,1,0,0,0.9285,optionRight,60,7600,4,8,0,8,0,1,,,,,,,,,,,,,,,,,,,,,,,,,,,,,,,,,,,,,,,
,,,,,,,,2023-08-06_08h29.54.237,HF_wild_card,2022.2.4,MacIntel,59.99880002,63ee215c40e6f16b0d6ad3f2,64ce5acb97489d65b14ecc7a,64cf4be62e975eb9284fa418,,,,,,,decisionTrl,resources/DY.BMP,resources/DR.BMP,Door4,-0.141579861,0.034735243,1,0,0,0.8401,optionLeft,80,7680,4,9,0,9,0,1,,,,,,,,,,,,,,,,,,,,,,,,,,,,,,,,,,,,,,,
,,,,,,,,2023-08-06_08h29.54.237,HF_wild_card,2022.2.4,MacIntel,59.99880002,63ee215c40e6f16b0d6ad3f2,64ce5acb97489d65b14ecc7a,64cf4be62e975eb9284fa418,,,,,,,sngl,resources/Empty.png,resources/DR.BMP,Door3,0.127777778,0.042395833,1,0,0,0.8981,optionRight,70,7750,4,10,0,10,0,1,,,,,,,,,,,,,,,,,,,,,,,,,,,,,,,,,,,,,,,
,,,,,,,,2023-08-06_08h29.54.237,HF_wild_card,2022.2.4,MacIntel,59.99880002,63ee215c40e6f16b0d6ad3f2,64ce5acb97489d65b14ecc7a,64cf4be62e975eb9284fa418,,,,,,,decisionTrl,resources/DP.BMP,resources/DB.BMP,Door1,0.141189236,0.073710938,1,0,0,1.8111,optionRight,30,7780,4,11,0,11,0,1,,,,,,,,,,,,,,,,,,,,,,,,,,,,,,,,,,,,,,,
,,,,,,,,2023-08-06_08h29.54.237,HF_wild_card,2022.2.4,MacIntel,59.99880002,63ee215c40e6f16b0d6ad3f2,64ce5acb97489d65b14ecc7a,64cf4be62e975eb9284fa418,,,,,,,decisionTrl,resources/DBN.BMP,resources/DP.BMP,WildCard_Ex,-0.151006944,0.04562934,1,0,0,0.9952,optionLeft,5,7785,4,12,0,12,0,1,,,,,,,,,,,,,,,,,,,,,,,,,,,,,,,,,,,,,,,
,,,,,,,,2023-08-06_08h29.54.237,HF_wild_card,2022.2.4,MacIntel,59.99880002,63ee215c40e6f16b0d6ad3f2,64ce5acb97489d65b14ecc7a,64cf4be62e975eb9284fa418,,,,,,,decisionTrl,resources/DBN.BMP,resources/DB.BMP,WildCard_Ex,-0.143702257,0.032013889,1,0,0,0.9108,optionLeft,95,7880,4,13,0,13,0,1,,,,,,,,,,,,,,,,,,,,,,,,,,,,,,,,,,,,,,,
,,,,,,,,2023-08-06_08h29.54.237,HF_wild_card,2022.2.4,MacIntel,59.99880002,63ee215c40e6f16b0d6ad3f2,64ce5acb97489d65b14ecc7a,64cf4be62e975eb9284fa418,,,,,,,decisionTrl,resources/DBN.BMP,resources/DY.BMP,WildCard_Ex,-0.122196181,0.024153646,1,0,0,1.5935,optionLeft,5,7885,4,14,0,14,0,1,,,,,,,,,,,,,,,,,,,,,,,,,,,,,,,,,,,,,,,
,,,,,,,,2023-08-06_08h29.54.237,HF_wild_card,2022.2.4,MacIntel,59.99880002,63ee215c40e6f16b0d6ad3f2,64ce5acb97489d65b14ecc7a,64cf4be62e975eb9284fa418,,,,,,,sngl,resources/DY.BMP,resources/Empty.png,Door4,-0.127005208,0.028190104,1,0,0,0.8284,optionLeft,60,7945,4,15,0,15,0,1,,,,,,,,,,,,,,,,,,,,,,,,,,,,,,,,,,,,,,,
,,,,,,,,2023-08-06_08h29.54.237,HF_wild_card,2022.2.4,MacIntel,59.99880002,63ee215c40e6f16b0d6ad3f2,64ce5acb97489d65b14ecc7a,64cf4be62e975eb9284fa418,,,,,,,decisionTrl,resources/DB.BMP,resources/DP.BMP,Door1,-0.150551215,0.068151042,1,0,0,1.7087,optionLeft,30,7975,4,16,0,16,0,1,,,,,,,,,,,,,,,,,,,,,,,,,,,,,,,,,,,,,,,
,,,,,,,,2023-08-06_08h29.54.237,HF_wild_card,2022.2.4,MacIntel,59.99880002,63ee215c40e6f16b0d6ad3f2,64ce5acb97489d65b14ecc7a,64cf4be62e975eb9284fa418,,,,,,,sngl,resources/Empty.png,resources/DB.BMP,Door1,0.109978299,0.037439236,1,0,0,1.2775,optionRight,30,8005,4,17,0,17,0,1,,,,,,,,,,,,,,,,,,,,,,,,,,,,,,,,,,,,,,,
,,,,,,,,2023-08-06_08h29.54.237,HF_wild_card,2022.2.4,MacIntel,59.99880002,63ee215c40e6f16b0d6ad3f2,64ce5acb97489d65b14ecc7a,64cf4be62e975eb9284fa418,,,,,,,decisionTrl,resources/DY.BMP,resources/DR.BMP,Door4,-0.116037326,0.064622396,1,0,0,1.3114,optionLeft,80,8085,4,18,0,18,0,1,,,,,,,,,,,,,,,,,,,,,,,,,,,,,,,,,,,,,,,
,,,,,,,,2023-08-06_08h29.54.237,HF_wild_card,2022.2.4,MacIntel,59.99880002,63ee215c40e6f16b0d6ad3f2,64ce5acb97489d65b14ecc7a,64cf4be62e975eb9284fa418,,,,,,,sngl,resources/Empty.png,resources/DBN.BMP,WildCard_Ex,0.151210938,0.045703125,1,0,0,0.9284,optionRight,5,8090,4,19,0,19,0,1,,,,,,,,,,,,,,,,,,,,,,,,,,,,,,,,,,,,,,,
,,,,,,,,2023-08-06_08h29.54.237,HF_wild_card,2022.2.4,MacIntel,59.99880002,63ee215c40e6f16b0d6ad3f2,64ce5acb97489d65b14ecc7a,64cf4be62e975eb9284fa418,,,,,,,sngl,resources/DB.BMP,resources/Empty.png,Door1,-0.135507812,0.031671007,1,0,0,0.9951,optionLeft,30,8120,4,20,0,20,0,1,,,,,,,,,,,,,,,,,,,,,,,,,,,,,,,,,,,,,,,
,,,,,,,,2023-08-06_08h29.54.237,HF_wild_card,2022.2.4,MacIntel,59.99880002,63ee215c40e6f16b0d6ad3f2,64ce5acb97489d65b14ecc7a,64cf4be62e975eb9284fa418,,,,,,,decisionTrl,resources/DY.BMP,resources/DR.BMP,Door4,-0.169908854,0.054327257,1,0,0,1.2091,optionLeft,60,8180,4,21,0,21,0,1,,,,,,,,,,,,,,,,,,,,,,,,,,,,,,,,,,,,,,,
,,,,,,,,2023-08-06_08h29.54.237,HF_wild_card,2022.2.4,MacIntel,59.99880002,63ee215c40e6f16b0d6ad3f2,64ce5acb97489d65b14ecc7a,64cf4be62e975eb9284fa418,,,,,,,decisionTrl,resources/DB.BMP,resources/DP.BMP,Door1,-0.117760417,0.066440972,1,0,0,1.3278,optionLeft,30,8210,4,22,0,22,0,1,,,,,,,,,,,,,,,,,,,,,,,,,,,,,,,,,,,,,,,
,,,,,,,,2023-08-06_08h29.54.237,HF_wild_card,2022.2.4,MacIntel,59.99880002,63ee215c40e6f16b0d6ad3f2,64ce5acb97489d65b14ecc7a,64cf4be62e975eb9284fa418,,,,,,,decisionTrl,resources/DB.BMP,resources/DP.BMP,Door1,-0.112243924,0.043806424,1,0,0,1.5771,optionLeft,30,8240,4,23,0,23,0,1,,,,,,,,,,,,,,,,,,,,,,,,,,,,,,,,,,,,,,,
,,,,,,,,2023-08-06_08h29.54.237,HF_wild_card,2022.2.4,MacIntel,59.99880002,63ee215c40e6f16b0d6ad3f2,64ce5acb97489d65b14ecc7a,64cf4be62e975eb9284fa418,,,,,,,decisionTrl,resources/DY.BMP,resources/DBN.BMP,WildCard_Ex,0.12171875,0.041775174,1,0,0,1.178,optionRight,5,8245,4,24,0,24,0,1,,,,,,,,,,,,,,,,,,,,,,,,,,,,,,,,,,,,,,,
,,,,,,,,2023-08-06_08h29.54.237,HF_wild_card,2022.2.4,MacIntel,59.99880002,63ee215c40e6f16b0d6ad3f2,64ce5acb97489d65b14ecc7a,64cf4be62e975eb9284fa418,,,,,,,decisionTrl,resources/DP.BMP,resources/DB.BMP,Door1,0.171679688,0.041657986,1,0,0,1.7864,optionRight,30,8275,4,25,0,25,0,1,,,,,,,,,,,,,,,,,,,,,,,,,,,,,,,,,,,,,,,
,,,,,,,,2023-08-06_08h29.54.237,HF_wild_card,2022.2.4,MacIntel,59.99880002,63ee215c40e6f16b0d6ad3f2,64ce5acb97489d65b14ecc7a,64cf4be62e975eb9284fa418,,,,,,,ctch,resources/DP.BMP,resources/DR.BMP,Door3,0.120021701,0.027452257,1,0,0,1.0806,optionRight,70,8345,4,26,0,26,0,1,,,,,,,,,,,,,,,,,,,,,,,,,,,,,,,,,,,,,,,
,,,,,,,,2023-08-06_08h29.54.237,HF_wild_card,2022.2.4,MacIntel,59.99880002,63ee215c40e6f16b0d6ad3f2,64ce5acb97489d65b14ecc7a,64cf4be62e975eb9284fa418,,,,,,,sngl,resources/DBN.BMP,resources/Empty.png,WildCard_Ex,-0.132096354,0.017834201,1,0,0,0.9977,optionLeft,95,8440,4,27,0,27,0,1,,,,,,,,,,,,,,,,,,,,,,,,,,,,,,,,,,,,,,,
,,,,,,,,2023-08-06_08h29.54.237,HF_wild_card,2022.2.4,MacIntel,59.99880002,63ee215c40e6f16b0d6ad3f2,64ce5acb97489d65b14ecc7a,64cf4be62e975eb9284fa418,,,,,,,decisionTrl,resources/DR.BMP,resources/DY.BMP,Door4,0.128949653,0.037018229,1,0,0,1.226,optionRight,60,8500,4,28,0,28,0,1,,,,,,,,,,,,,,,,,,,,,,,,,,,,,,,,,,,,,,,
,,,,,,,,2023-08-06_08h29.54.237,HF_wild_card,2022.2.4,MacIntel,59.99880002,63ee215c40e6f16b0d6ad3f2,64ce5acb97489d65b14ecc7a,64cf4be62e975eb9284fa418,,,,,,,decisionTrl,resources/DR.BMP,resources/DY.BMP,Door4,0.121284722,0.023984375,1,0,0,0.9808,optionRight,80,8580,4,29,0,29,0,1,,,,,,,,,,,,,,,,,,,,,,,,,,,,,,,,,,,,,,,
,,,,,,,,2023-08-06_08h29.54.237,HF_wild_card,2022.2.4,MacIntel,59.99880002,63ee215c40e6f16b0d6ad3f2,64ce5acb97489d65b14ecc7a,64cf4be62e975eb9284fa418,,,,,,,decisionTrl,resources/DB.BMP,resources/DBN.BMP,WildCard_Ex,0.133324653,0.022317708,1,0,0,0.9112,optionRight,5,8585,4,30,0,30,0,1,,,,,,,,,,,,,,,,,,,,,,,,,,,,,,,,,,,,,,,
,,,,,,,,2023-08-06_08h29.54.237,HF_wild_card,2022.2.4,MacIntel,59.99880002,63ee215c40e6f16b0d6ad3f2,64ce5acb97489d65b14ecc7a,64cf4be62e975eb9284fa418,,,,,,,sngl,resources/DBN.BMP,resources/Empty.png,WildCard_Ex,-0.109674479,0.024900174,1,0,0,0.9126,optionLeft,5,8590,4,31,0,31,0,1,,,,,,,,,,,,,,,,,,,,,,,,,,,,,,,,,,,,,,,
,,,,,,,,2023-08-06_08h29.54.237,HF_wild_card,2022.2.4,MacIntel,59.99880002,63ee215c40e6f16b0d6ad3f2,64ce5acb97489d65b14ecc7a,64cf4be62e975eb9284fa418,,,,,,,ctch,resources/DB.BMP,resources/DY.BMP,Door4,0.125529514,0.037573785,1,0,0,1.1269,optionRight,80,8670,4,32,0,32,0,1,,,,,,,,,,,,,,,,,,,,,,,,,,,,,,,,,,,,,,,
,,,,,,,,2023-08-06_08h29.54.237,HF_wild_card,2022.2.4,MacIntel,59.99880002,63ee215c40e6f16b0d6ad3f2,64ce5acb97489d65b14ecc7a,64cf4be62e975eb9284fa418,,,,,,,ctch,resources/DY.BMP,resources/DB.BMP,Door4,-0.126197917,0.026905382,1,0,0,1.2452,optionLeft,80,8750,4,33,0,33,0,1,,,,,,,,,,,,,,,,,,,,,,,,,,,,,,,,,,,,,,,
,,,,,,,,2023-08-06_08h29.54.237,HF_wild_card,2022.2.4,MacIntel,59.99880002,63ee215c40e6f16b0d6ad3f2,64ce5acb97489d65b14ecc7a,64cf4be62e975eb9284fa418,,,,,,,sngl,resources/DP.BMP,resources/Empty.png,Door2,-0.123645833,0.020351562,1,0,0,0.8115,optionLeft,20,8770,4,34,0,34,0,1,,,,,,,,,,,,,,,,,,,,,,,,,,,,,,,,,,,,,,,
,,,,,,,,2023-08-06_08h29.54.237,HF_wild_card,2022.2.4,MacIntel,59.99880002,63ee215c40e6f16b0d6ad3f2,64ce5acb97489d65b14ecc7a,64cf4be62e975eb9284fa418,,,,,,,ctch,resources/DP.BMP,resources/DR.BMP,Door3,0.135911458,0.043741319,1,0,0,1.3584,optionRight,70,8840,4,35,0,35,0,1,,,,,,,,,,,,,,,,,,,,,,,,,,,,,,,,,,,,,,,
,,,,,,,,2023-08-06_08h29.54.237,HF_wild_card,2022.2.4,MacIntel,59.99880002,63ee215c40e6f16b0d6ad3f2,64ce5acb97489d65b14ecc7a,64cf4be62e975eb9284fa418,,,,,,,sngl,resources/Empty.png,resources/DBN.BMP,WildCard_Ex,0.139969618,0.015611979,1,0,0,0.9264,optionRight,95,8935,4,36,0,36,0,1,,,,,,,,,,,,,,,,,,,,,,,,,,,,,,,,,,,,,,,
,,,,,,,,2023-08-06_08h29.54.237,HF_wild_card,2022.2.4,MacIntel,59.99880002,63ee215c40e6f16b0d6ad3f2,64ce5acb97489d65b14ecc7a,64cf4be62e975eb9284fa418,,,,,,,ctch,resources/DR.BMP,resources/DP.BMP,Door3,-0.128654514,-0.006532118,1,0,0,2.3782,optionLeft,70,9005,4,37,0,37,0,1,,,,,,,,,,,,,,,,,,,,,,,,,,,,,,,,,,,,,,,
,,,,,,,,2023-08-06_08h29.54.237,HF_wild_card,2022.2.4,MacIntel,59.99880002,63ee215c40e6f16b0d6ad3f2,64ce5acb97489d65b14ecc7a,64cf4be62e975eb9284fa418,,,,,,,decisionTrl,resources/DR.BMP,resources/DY.BMP,Door4,0.113776042,0.028789063,1,0,0,1.2137,optionRight,80,9085,4,38,0,38,0,1,,,,,,,,,,,,,,,,,,,,,,,,,,,,,,,,,,,,,,,
,,,,,,,,2023-08-06_08h29.54.237,HF_wild_card,2022.2.4,MacIntel,59.99880002,63ee215c40e6f16b0d6ad3f2,64ce5acb97489d65b14ecc7a,64cf4be62e975eb9284fa418,,,,,,,ctch,resources/DY.BMP,resources/DB.BMP,Door4,-0.140017361,-0.000203993,1,0,0,0.9284,optionLeft,60,9145,4,39,0,39,0,1,,,,,,,,,,,,,,,,,,,,,,,,,,,,,,,,,,,,,,,
,,,,,,,,2023-08-06_08h29.54.237,HF_wild_card,2022.2.4,MacIntel,59.99880002,63ee215c40e6f16b0d6ad3f2,64ce5acb97489d65b14ecc7a,64cf4be62e975eb9284fa418,,,,,,,sngl,resources/DR.BMP,resources/Empty.png,Door3,-0.114479167,0.013485243,1,0,0,0.909,optionLeft,70,9215,4,40,0,40,0,1,,,,,,,,,,,,,,,,,,,,,,,,,,,,,,,,,,,,,,,
,,,,,,,,2023-08-06_08h29.54.237,HF_wild_card,2022.2.4,MacIntel,59.99880002,63ee215c40e6f16b0d6ad3f2,64ce5acb97489d65b14ecc7a,64cf4be62e975eb9284fa418,,,,,,,ctch,resources/DR.BMP,resources/DP.BMP,Door3,-0.122595486,0.026523438,1,0,0,1.1953,optionLeft,70,9285,4,41,0,41,0,1,,,,,,,,,,,,,,,,,,,,,,,,,,,,,,,,,,,,,,,
,,,,,,,,2023-08-06_08h29.54.237,HF_wild_card,2022.2.4,MacIntel,59.99880002,63ee215c40e6f16b0d6ad3f2,64ce5acb97489d65b14ecc7a,64cf4be62e975eb9284fa418,,,,,,,sngl,resources/Empty.png,resources/DY.BMP,Door4,0.124292535,0.02015625,1,0,0,1.0277,optionRight,80,9365,4,42,0,42,0,1,,,,,,,,,,,,,,,,,,,,,,,,,,,,,,,,,,,,,,,
,,,,,,,,2023-08-06_08h29.54.237,HF_wild_card,2022.2.4,MacIntel,59.99880002,63ee215c40e6f16b0d6ad3f2,64ce5acb97489d65b14ecc7a,64cf4be62e975eb9284fa418,,,,,,,decisionTrl,resources/DP.BMP,resources/DBN.BMP,WildCard_Ex,0.127747396,0.021909722,1,0,0,0.9618,optionRight,5,9370,4,43,0,43,0,1,,,,,,,,,,,,,,,,,,,,,,,,,,,,,,,,,,,,,,,
,,,,,,,,2023-08-06_08h29.54.237,HF_wild_card,2022.2.4,MacIntel,59.99880002,63ee215c40e6f16b0d6ad3f2,64ce5acb97489d65b14ecc7a,64cf4be62e975eb9284fa418,,,,,,,,,,,,,,,,,,,,,,,,,,3,0,3,0,1,,,,,,,,,,,,,,,,,,,,,,,,,,,,,,,,,,
,,,,,,,,2023-08-06_08h29.54.237,HF_wild_card,2022.2.4,MacIntel,59.99880002,63ee215c40e6f16b0d6ad3f2,64ce5acb97489d65b14ecc7a,64cf4be62e975eb9284fa418,,,,,,,sngl,resources/DY.BMP,resources/Empty.png,Door4,-0.126857639,-0.112460937,1,0,0,0.9772,optionLeft,80,9450,5,0,0,0,0,1,,,,,,,,,,,,,,,,,,,,,,,,,,,,,,,,,,,,,,,
,,,,,,,,2023-08-06_08h29.54.237,HF_wild_card,2022.2.4,MacIntel,59.99880002,63ee215c40e6f16b0d6ad3f2,64ce5acb97489d65b14ecc7a,64cf4be62e975eb9284fa418,,,,,,,sngl,resources/DBN.BMP,resources/Empty.png,WildCard_Ex,-0.111289062,-0.003064236,1,0,0,0.7938,optionLeft,5,9455,5,1,0,1,0,1,,,,,,,,,,,,,,,,,,,,,,,,,,,,,,,,,,,,,,,
,,,,,,,,2023-08-06_08h29.54.237,HF_wild_card,2022.2.4,MacIntel,59.99880002,63ee215c40e6f16b0d6ad3f2,64ce5acb97489d65b14ecc7a,64cf4be62e975eb9284fa418,,,,,,,ctch,resources/DY.BMP,resources/DB.BMP,Door4,-0.13077691,-0.002925347,1,0,0,0.894,optionLeft,60,9515,5,2,0,2,0,1,,,,,,,,,,,,,,,,,,,,,,,,,,,,,,,,,,,,,,,
,,,,,,,,2023-08-06_08h29.54.237,HF_wild_card,2022.2.4,MacIntel,59.99880002,63ee215c40e6f16b0d6ad3f2,64ce5acb97489d65b14ecc7a,64cf4be62e975eb9284fa418,,,,,,,decisionTrl,resources/DB.BMP,resources/DP.BMP,Door1,-0.133428819,0.001280382,1,0,0,0.7965,optionLeft,30,9545,5,3,0,3,0,1,,,,,,,,,,,,,,,,,,,,,,,,,,,,,,,,,,,,,,,
,,,,,,,,2023-08-06_08h29.54.237,HF_wild_card,2022.2.4,MacIntel,59.99880002,63ee215c40e6f16b0d6ad3f2,64ce5acb97489d65b14ecc7a,64cf4be62e975eb9284fa418,,,,,,,decisionTrl,resources/DR.BMP,resources/DY.BMP,Door4,0.173255208,-0.000646701,1,0,0,1.1264,optionRight,80,9625,5,4,0,4,0,1,,,,,,,,,,,,,,,,,,,,,,,,,,,,,,,,,,,,,,,
,,,,,,,,2023-08-06_08h29.54.237,HF_wild_card,2022.2.4,MacIntel,59.99880002,63ee215c40e6f16b0d6ad3f2,64ce5acb97489d65b14ecc7a,64cf4be62e975eb9284fa418,,,,,,,ctch,resources/DB.BMP,resources/DY.BMP,Door4,0.135499132,0.010807292,1,0,0,1.0936,optionRight,80,9705,5,5,0,5,0,1,,,,,,,,,,,,,,,,,,,,,,,,,,,,,,,,,,,,,,,
,,,,,,,,2023-08-06_08h29.54.237,HF_wild_card,2022.2.4,MacIntel,59.99880002,63ee215c40e6f16b0d6ad3f2,64ce5acb97489d65b14ecc7a,64cf4be62e975eb9284fa418,,,,,,,sngl,resources/DB.BMP,resources/Empty.png,Door1,-0.113046875,0.00640625,1,0,0,0.8781,optionLeft,30,9735,5,6,0,6,0,1,,,,,,,,,,,,,,,,,,,,,,,,,,,,,,,,,,,,,,,
,,,,,,,,2023-08-06_08h29.54.237,HF_wild_card,2022.2.4,MacIntel,59.99880002,63ee215c40e6f16b0d6ad3f2,64ce5acb97489d65b14ecc7a,64cf4be62e975eb9284fa418,,,,,,,decisionTrl,resources/DR.BMP,resources/DY.BMP,Door4,0.153806424,0.016549479,1,0,0,0.7798,optionRight,80,9815,5,7,0,7,0,1,,,,,,,,,,,,,,,,,,,,,,,,,,,,,,,,,,,,,,,
,,,,,,,,2023-08-06_08h29.54.237,HF_wild_card,2022.2.4,MacIntel,59.99880002,63ee215c40e6f16b0d6ad3f2,64ce5acb97489d65b14ecc7a,64cf4be62e975eb9284fa418,,,,,,,decisionTrl,resources/DBN.BMP,resources/DP.BMP,WildCard_Ex,-0.111953125,0.008107639,1,0,0,1.2125,optionLeft,5,9820,5,8,0,8,0,1,,,,,,,,,,,,,,,,,,,,,,,,,,,,,,,,,,,,,,,
,,,,,,,,2023-08-06_08h29.54.237,HF_wild_card,2022.2.4,MacIntel,59.99880002,63ee215c40e6f16b0d6ad3f2,64ce5acb97489d65b14ecc7a,64cf4be62e975eb9284fa418,,,,,,,decisionTrl,resources/DR.BMP,resources/DY.BMP,Door4,0.124470486,0.008138021,1,0,0,0.8617,optionRight,80,9900,5,9,0,9,0,1,,,,,,,,,,,,,,,,,,,,,,,,,,,,,,,,,,,,,,,
,,,,,,,,2023-08-06_08h29.54.237,HF_wild_card,2022.2.4,MacIntel,59.99880002,63ee215c40e6f16b0d6ad3f2,64ce5acb97489d65b14ecc7a,64cf4be62e975eb9284fa418,,,,,,,decisionTrl,resources/DP.BMP,resources/DB.BMP,Door1,0.120512153,0.007960069,1,0,0,2.1626,optionRight,30,9930,5,10,0,10,0,1,,,,,,,,,,,,,,,,,,,,,,,,,,,,,,,,,,,,,,,
,,,,,,,,2023-08-06_08h29.54.237,HF_wild_card,2022.2.4,MacIntel,59.99880002,63ee215c40e6f16b0d6ad3f2,64ce5acb97489d65b14ecc7a,64cf4be62e975eb9284fa418,,,,,,,decisionTrl,resources/DBN.BMP,resources/DR.BMP,WildCard_Ex,-0.121397569,0.015824653,1,0,0,1.1777,optionLeft,95,10025,5,11,0,11,0,1,,,,,,,,,,,,,,,,,,,,,,,,,,,,,,,,,,,,,,,
,,,,,,,,2023-08-06_08h29.54.237,HF_wild_card,2022.2.4,MacIntel,59.99880002,63ee215c40e6f16b0d6ad3f2,64ce5acb97489d65b14ecc7a,64cf4be62e975eb9284fa418,,,,,,,ctch,resources/DR.BMP,resources/DP.BMP,Door3,-0.134670139,-0.000837674,1,0,0,1.5761,optionLeft,70,10095,5,12,0,12,0,1,,,,,,,,,,,,,,,,,,,,,,,,,,,,,,,,,,,,,,,
,,,,,,,,2023-08-06_08h29.54.237,HF_wild_card,2022.2.4,MacIntel,59.99880002,63ee215c40e6f16b0d6ad3f2,64ce5acb97489d65b14ecc7a,64cf4be62e975eb9284fa418,,,,,,,decisionTrl,resources/DP.BMP,resources/DB.BMP,Door1,0.131901042,0.015690104,1,0,0,1.8121,optionRight,30,10125,5,13,0,13,0,1,,,,,,,,,,,,,,,,,,,,,,,,,,,,,,,,,,,,,,,
,,,,,,,,2023-08-06_08h29.54.237,HF_wild_card,2022.2.4,MacIntel,59.99880002,63ee215c40e6f16b0d6ad3f2,64ce5acb97489d65b14ecc7a,64cf4be62e975eb9284fa418,,,,,,,decisionTrl,resources/DBN.BMP,resources/DY.BMP,WildCard_Ex,-0.136788194,0.001397569,1,0,0,1.2949,optionLeft,5,10130,5,14,0,14,0,1,,,,,,,,,,,,,,,,,,,,,,,,,,,,,,,,,,,,,,,
,,,,,,,,2023-08-06_08h29.54.237,HF_wild_card,2022.2.4,MacIntel,59.99880002,63ee215c40e6f16b0d6ad3f2,64ce5acb97489d65b14ecc7a,64cf4be62e975eb9284fa418,,,,,,,decisionTrl,resources/DP.BMP,resources/DB.BMP,Door1,0.122083333,0.000494792,1,0,0,1.6101,optionRight,30,10160,5,15,0,15,0,1,,,,,,,,,,,,,,,,,,,,,,,,,,,,,,,,,,,,,,,
,,,,,,,,2023-08-06_08h29.54.237,HF_wild_card,2022.2.4,MacIntel,59.99880002,63ee215c40e6f16b0d6ad3f2,64ce5acb97489d65b14ecc7a,64cf4be62e975eb9284fa418,,,,,,,decisionTrl,resources/DY.BMP,resources/DBN.BMP,WildCard_Ex,0.127460938,-0.000746528,1,0,0,1.0593,optionRight,5,10165,5,16,0,16,0,1,,,,,,,,,,,,,,,,,,,,,,,,,,,,,,,,,,,,,,,
,,,,,,,,2023-08-06_08h29.54.237,HF_wild_card,2022.2.4,MacIntel,59.99880002,63ee215c40e6f16b0d6ad3f2,64ce5acb97489d65b14ecc7a,64cf4be62e975eb9284fa418,,,,,,,decisionTrl,resources/DY.BMP,resources/DR.BMP,Door4,-0.130733507,0.000611979,1,0,0,1.1125,optionLeft,60,10225,5,17,0,17,0,1,,,,,,,,,,,,,,,,,,,,,,,,,,,,,,,,,,,,,,,
,,,,,,,,2023-08-06_08h29.54.237,HF_wild_card,2022.2.4,MacIntel,59.99880002,63ee215c40e6f16b0d6ad3f2,64ce5acb97489d65b14ecc7a,64cf4be62e975eb9284fa418,,,,,,,sngl,resources/Empty.png,resources/DB.BMP,Door1,0.136614583,-0.001753472,1,0,0,0.9111,optionRight,30,10255,5,18,0,18,0,1,,,,,,,,,,,,,,,,,,,,,,,,,,,,,,,,,,,,,,,
,,,,,,,,2023-08-06_08h29.54.237,HF_wild_card,2022.2.4,MacIntel,59.99880002,63ee215c40e6f16b0d6ad3f2,64ce5acb97489d65b14ecc7a,64cf4be62e975eb9284fa418,,,,,,,ctch,resources/DP.BMP,resources/DR.BMP,Door3,0.124305556,0.022235243,1,0,0,1.5518,optionRight,70,10325,5,19,0,19,0,1,,,,,,,,,,,,,,,,,,,,,,,,,,,,,,,,,,,,,,,
,,,,,,,,2023-08-06_08h29.54.237,HF_wild_card,2022.2.4,MacIntel,59.99880002,63ee215c40e6f16b0d6ad3f2,64ce5acb97489d65b14ecc7a,64cf4be62e975eb9284fa418,,,,,,,decisionTrl,resources/DB.BMP,resources/DP.BMP,Door1,-0.114270833,0.024917535,1,0,0,1.2069,optionLeft,30,10355,5,20,0,20,0,1,,,,,,,,,,,,,,,,,,,,,,,,,,,,,,,,,,,,,,,
,,,,,,,,2023-08-06_08h29.54.237,HF_wild_card,2022.2.4,MacIntel,59.99880002,63ee215c40e6f16b0d6ad3f2,64ce5acb97489d65b14ecc7a,64cf4be62e975eb9284fa418,,,,,,,sngl,resources/DP.BMP,resources/Empty.png,Door2,-0.132269965,0.0125,1,0,0,0.8151,optionLeft,40,10395,5,21,0,21,0,1,,,,,,,,,,,,,,,,,,,,,,,,,,,,,,,,,,,,,,,
,,,,,,,,2023-08-06_08h29.54.237,HF_wild_card,2022.2.4,MacIntel,59.99880002,63ee215c40e6f16b0d6ad3f2,64ce5acb97489d65b14ecc7a,64cf4be62e975eb9284fa418,,,,,,,sngl,resources/Empty.png,resources/DP.BMP,Door2,0.129908854,0.032569444,1,0,0,0.8636,optionRight,20,10415,5,22,0,22,0,1,,,,,,,,,,,,,,,,,,,,,,,,,,,,,,,,,,,,,,,
,,,,,,,,2023-08-06_08h29.54.237,HF_wild_card,2022.2.4,MacIntel,59.99880002,63ee215c40e6f16b0d6ad3f2,64ce5acb97489d65b14ecc7a,64cf4be62e975eb9284fa418,,,,,,,sngl,resources/DR.BMP,resources/Empty.png,Door3,-0.121966146,0.017847222,1,0,0,0.8659,optionLeft,70,10485,5,23,0,23,0,1,,,,,,,,,,,,,,,,,,,,,,,,,,,,,,,,,,,,,,,
,,,,,,,,2023-08-06_08h29.54.237,HF_wild_card,2022.2.4,MacIntel,59.99880002,63ee215c40e6f16b0d6ad3f2,64ce5acb97489d65b14ecc7a,64cf4be62e975eb9284fa418,,,,,,,decisionTrl,resources/DY.BMP,resources/DR.BMP,Door3,0.197925347,0.027486979,1,0,0,0.8123,optionRight,70,10555,5,24,0,24,0,1,,,,,,,,,,,,,,,,,,,,,,,,,,,,,,,,,,,,,,,
,,,,,,,,2023-08-06_08h29.54.237,HF_wild_card,2022.2.4,MacIntel,59.99880002,63ee215c40e6f16b0d6ad3f2,64ce5acb97489d65b14ecc7a,64cf4be62e975eb9284fa418,,,,,,,sngl,resources/Empty.png,resources/DY.BMP,Door4,0.132178819,0.027934028,1,0,0,0.8771,optionRight,60,10615,5,25,0,25,0,1,,,,,,,,,,,,,,,,,,,,,,,,,,,,,,,,,,,,,,,
,,,,,,,,2023-08-06_08h29.54.237,HF_wild_card,2022.2.4,MacIntel,59.99880002,63ee215c40e6f16b0d6ad3f2,64ce5acb97489d65b14ecc7a,64cf4be62e975eb9284fa418,,,,,,,sngl,resources/Empty.png,resources/DR.BMP,Door3,0.118511285,0.021380208,1,0,0,1.0396,optionRight,70,10685,5,26,0,26,0,1,,,,,,,,,,,,,,,,,,,,,,,,,,,,,,,,,,,,,,,
,,,,,,,,2023-08-06_08h29.54.237,HF_wild_card,2022.2.4,MacIntel,59.99880002,63ee215c40e6f16b0d6ad3f2,64ce5acb97489d65b14ecc7a,64cf4be62e975eb9284fa418,,,,,,,decisionTrl,resources/DY.BMP,resources/DR.BMP,Door3,0.121987847,0.009917535,1,0,0,0.9806,optionRight,70,10755,5,27,0,27,0,1,,,,,,,,,,,,,,,,,,,,,,,,,,,,,,,,,,,,,,,
,,,,,,,,2023-08-06_08h29.54.237,HF_wild_card,2022.2.4,MacIntel,59.99880002,63ee215c40e6f16b0d6ad3f2,64ce5acb97489d65b14ecc7a,64cf4be62e975eb9284fa418,,,,,,,decisionTrl,resources/DR.BMP,resources/DY.BMP,Door3,-0.169353299,0.012135417,1,0,0,0.994,optionLeft,70,10825,5,28,0,28,0,1,,,,,,,,,,,,,,,,,,,,,,,,,,,,,,,,,,,,,,,
,,,,,,,,2023-08-06_08h29.54.237,HF_wild_card,2022.2.4,MacIntel,59.99880002,63ee215c40e6f16b0d6ad3f2,64ce5acb97489d65b14ecc7a,64cf4be62e975eb9284fa418,,,,,,,decisionTrl,resources/DB.BMP,resources/DP.BMP,Door1,-0.129279514,0.000868056,1,0,0,1.1629,optionLeft,30,10855,5,29,0,29,0,1,,,,,,,,,,,,,,,,,,,,,,,,,,,,,,,,,,,,,,,
,,,,,,,,2023-08-06_08h29.54.237,HF_wild_card,2022.2.4,MacIntel,59.99880002,63ee215c40e6f16b0d6ad3f2,64ce5acb97489d65b14ecc7a,64cf4be62e975eb9284fa418,,,,,,,sngl,resources/Empty.png,resources/DBN.BMP,WildCard_Ex,0.140338542,-7.37847E-05,1,0,0,0.9454,optionRight,5,10860,5,30,0,30,0,1,,,,,,,,,,,,,,,,,,,,,,,,,,,,,,,,,,,,,,,
,,,,,,,,2023-08-06_08h29.54.237,HF_wild_card,2022.2.4,MacIntel,59.99880002,63ee215c40e6f16b0d6ad3f2,64ce5acb97489d65b14ecc7a,64cf4be62e975eb9284fa418,,,,,,,ctch,resources/DR.BMP,resources/DP.BMP,Door3,-0.13421441,0.001545139,1,0,0,1.5474,optionLeft,70,10930,5,31,0,31,0,1,,,,,,,,,,,,,,,,,,,,,,,,,,,,,,,,,,,,,,,
,,,,,,,,2023-08-06_08h29.54.237,HF_wild_card,2022.2.4,MacIntel,59.99880002,63ee215c40e6f16b0d6ad3f2,64ce5acb97489d65b14ecc7a,64cf4be62e975eb9284fa418,,,,,,,sngl,resources/DBN.BMP,resources/Empty.png,WildCard_Ex,-0.108632812,-0.003810764,1,0,0,0.9765,optionLeft,95,11025,5,32,0,32,0,1,,,,,,,,,,,,,,,,,,,,,,,,,,,,,,,,,,,,,,,
,,,,,,,,2023-08-06_08h29.54.237,HF_wild_card,2022.2.4,MacIntel,59.99880002,63ee215c40e6f16b0d6ad3f2,64ce5acb97489d65b14ecc7a,64cf4be62e975eb9284fa418,,,,,,,ctch,resources/DB.BMP,resources/DY.BMP,Door4,0.140789931,0.013055556,1,0,0,1.4625,optionRight,80,11105,5,33,0,33,0,1,,,,,,,,,,,,,,,,,,,,,,,,,,,,,,,,,,,,,,,
,,,,,,,,2023-08-06_08h29.54.237,HF_wild_card,2022.2.4,MacIntel,59.99880002,63ee215c40e6f16b0d6ad3f2,64ce5acb97489d65b14ecc7a,64cf4be62e975eb9284fa418,,,,,,,decisionTrl,resources/DB.BMP,resources/DP.BMP,Door1,-0.14312066,-0.001840278,1,0,0,1.0469,optionLeft,30,11135,5,34,0,34,0,1,,,,,,,,,,,,,,,,,,,,,,,,,,,,,,,,,,,,,,,
,,,,,,,,2023-08-06_08h29.54.237,HF_wild_card,2022.2.4,MacIntel,59.99880002,63ee215c40e6f16b0d6ad3f2,64ce5acb97489d65b14ecc7a,64cf4be62e975eb9284fa418,,,,,,,decisionTrl,resources/DR.BMP,resources/DBN.BMP,WildCard_Ex,0.132430556,0.003381076,1,0,0,1.095,optionRight,95,11230,5,35,0,35,0,1,,,,,,,,,,,,,,,,,,,,,,,,,,,,,,,,,,,,,,,
,,,,,,,,2023-08-06_08h29.54.237,HF_wild_card,2022.2.4,MacIntel,59.99880002,63ee215c40e6f16b0d6ad3f2,64ce5acb97489d65b14ecc7a,64cf4be62e975eb9284fa418,,,,,,,ctch,resources/DP.BMP,resources/DR.BMP,Door3,0.126124132,0.009422743,1,0,0,1.5949,optionRight,70,11300,5,36,0,36,0,1,,,,,,,,,,,,,,,,,,,,,,,,,,,,,,,,,,,,,,,
,,,,,,,,2023-08-06_08h29.54.237,HF_wild_card,2022.2.4,MacIntel,59.99880002,63ee215c40e6f16b0d6ad3f2,64ce5acb97489d65b14ecc7a,64cf4be62e975eb9284fa418,,,,,,,decisionTrl,resources/DY.BMP,resources/DR.BMP,Door3,0.1215625,0.002591146,1,0,0,0.9447,optionRight,70,11370,5,37,0,37,0,1,,,,,,,,,,,,,,,,,,,,,,,,,,,,,,,,,,,,,,,
,,,,,,,,2023-08-06_08h29.54.237,HF_wild_card,2022.2.4,MacIntel,59.99880002,63ee215c40e6f16b0d6ad3f2,64ce5acb97489d65b14ecc7a,64cf4be62e975eb9284fa418,,,,,,,ctch,resources/DY.BMP,resources/DB.BMP,Door4,-0.157248264,0.003546007,1,0,0,0.9473,optionLeft,80,11450,5,38,0,38,0,1,,,,,,,,,,,,,,,,,,,,,,,,,,,,,,,,,,,,,,,
,,,,,,,,2023-08-06_08h29.54.237,HF_wild_card,2022.2.4,MacIntel,59.99880002,63ee215c40e6f16b0d6ad3f2,64ce5acb97489d65b14ecc7a,64cf4be62e975eb9284fa418,,,,,,,sngl,resources/Empty.png,resources/DBN.BMP,WildCard_Ex,0.129661458,0.008485243,1,0,0,0.8108,optionRight,95,11545,5,39,0,39,0,1,,,,,,,,,,,,,,,,,,,,,,,,,,,,,,,,,,,,,,,
,,,,,,,,2023-08-06_08h29.54.237,HF_wild_card,2022.2.4,MacIntel,59.99880002,63ee215c40e6f16b0d6ad3f2,64ce5acb97489d65b14ecc7a,64cf4be62e975eb9284fa418,,,,,,,decisionTrl,resources/DBN.BMP,resources/DB.BMP,Door1,0.161966146,0.020381944,1,0,0,2.1116,optionRight,30,11575,5,40,0,40,0,1,,,,,,,,,,,,,,,,,,,,,,,,,,,,,,,,,,,,,,,
,,,,,,,,2023-08-06_08h29.54.237,HF_wild_card,2022.2.4,MacIntel,59.99880002,63ee215c40e6f16b0d6ad3f2,64ce5acb97489d65b14ecc7a,64cf4be62e975eb9284fa418,,,,,,,decisionTrl,resources/DB.BMP,resources/DBN.BMP,WildCard_Ex,0.135794271,0.014335937,1,0,0,0.9965,optionRight,5,11580,5,41,0,41,0,1,,,,,,,,,,,,,,,,,,,,,,,,,,,,,,,,,,,,,,,
,,,,,,,,2023-08-06_08h29.54.237,HF_wild_card,2022.2.4,MacIntel,59.99880002,63ee215c40e6f16b0d6ad3f2,64ce5acb97489d65b14ecc7a,64cf4be62e975eb9284fa418,,,,,,,decisionTrl,resources/DP.BMP,resources/DBN.BMP,WildCard_Ex,0.13125,0.020095486,1,0,0,0.8795,optionRight,95,11675,5,42,0,42,0,1,,,,,,,,,,,,,,,,,,,,,,,,,,,,,,,,,,,,,,,
,,,,,,,,2023-08-06_08h29.54.237,HF_wild_card,2022.2.4,MacIntel,59.99880002,63ee215c40e6f16b0d6ad3f2,64ce5acb97489d65b14ecc7a,64cf4be62e975eb9284fa418,,,,,,,decisionTrl,resources/DP.BMP,resources/DB.BMP,Door1,0.133172743,0.031223958,1,0,0,1.2638,optionRight,30,11705,5,43,0,43,0,1,,,,,,,,,,,,,,,,,,,,,,,,,,,,,,,,,,,,,,,
,,,,,,,,2023-08-06_08h29.54.237,HF_wild_card,2022.2.4,MacIntel,59.99880002,63ee215c40e6f16b0d6ad3f2,64ce5acb97489d65b14ecc7a,64cf4be62e975eb9284fa418,,,,,,,,,,,,,,,,,,,,,,,,,,4,0,4,0,1,,,,,,,,,,,,,,,,,,,,,,,,,,,,,,,,,,
,,,,,,,,2023-08-06_08h29.54.237,HF_wild_card,2022.2.4,MacIntel,59.99880002,63ee215c40e6f16b0d6ad3f2,64ce5acb97489d65b14ecc7a,64cf4be62e975eb9284fa418,,,,,,,sngl,resources/Empty.png,resources/DBN.BMP,WildCard_Ex,0.128684896,-0.068463542,1,0,0,1.4817,optionRight,95,11800,6,0,0,0,0,1,,,,,,,,,,,,,,,,,,,,,,,,,,,,,,,,,,,,,,,
,,,,,,,,2023-08-06_08h29.54.237,HF_wild_card,2022.2.4,MacIntel,59.99880002,63ee215c40e6f16b0d6ad3f2,64ce5acb97489d65b14ecc7a,64cf4be62e975eb9284fa418,,,,,,,decisionTrl,resources/DP.BMP,resources/DB.BMP,Door1,0.112803819,-0.011358507,1,0,0,1.6958,optionRight,30,11830,6,1,0,1,0,1,,,,,,,,,,,,,,,,,,,,,,,,,,,,,,,,,,,,,,,
,,,,,,,,2023-08-06_08h29.54.237,HF_wild_card,2022.2.4,MacIntel,59.99880002,63ee215c40e6f16b0d6ad3f2,64ce5acb97489d65b14ecc7a,64cf4be62e975eb9284fa418,,,,,,,ctch,resources/DR.BMP,resources/DP.BMP,Door3,-0.117057292,0.004318576,1,0,0,1.0933,optionLeft,70,11900,6,2,0,2,0,1,,,,,,,,,,,,,,,,,,,,,,,,,,,,,,,,,,,,,,,
,,,,,,,,2023-08-06_08h29.54.237,HF_wild_card,2022.2.4,MacIntel,59.99880002,63ee215c40e6f16b0d6ad3f2,64ce5acb97489d65b14ecc7a,64cf4be62e975eb9284fa418,,,,,,,ctch,resources/DP.BMP,resources/DR.BMP,Door3,0.139136285,0.000638021,1,0,0,0.9459,optionRight,70,11970,6,3,0,3,0,1,,,,,,,,,,,,,,,,,,,,,,,,,,,,,,,,,,,,,,,
,,,,,,,,2023-08-06_08h29.54.237,HF_wild_card,2022.2.4,MacIntel,59.99880002,63ee215c40e6f16b0d6ad3f2,64ce5acb97489d65b14ecc7a,64cf4be62e975eb9284fa418,,,,,,,sngl,resources/DB.BMP,resources/Empty.png,Door1,-0.126775174,0.012517361,1,0,0,1.1438,optionLeft,30,12000,6,4,0,4,0,1,,,,,,,,,,,,,,,,,,,,,,,,,,,,,,,,,,,,,,,
,,,,,,,,2023-08-06_08h29.54.237,HF_wild_card,2022.2.4,MacIntel,59.99880002,63ee215c40e6f16b0d6ad3f2,64ce5acb97489d65b14ecc7a,64cf4be62e975eb9284fa418,,,,,,,decisionTrl,resources/DY.BMP,resources/DR.BMP,Door4,-0.124756944,-0.007990451,1,0,0,1.2445,optionLeft,60,12060,6,5,0,5,0,1,,,,,,,,,,,,,,,,,,,,,,,,,,,,,,,,,,,,,,,
,,,,,,,,2023-08-06_08h29.54.237,HF_wild_card,2022.2.4,MacIntel,59.99880002,63ee215c40e6f16b0d6ad3f2,64ce5acb97489d65b14ecc7a,64cf4be62e975eb9284fa418,,,,,,,ctch,resources/DY.BMP,resources/DB.BMP,Door4,-0.119613715,-0.015802951,1,0,0,0.88,optionLeft,60,12120,6,6,0,6,0,1,,,,,,,,,,,,,,,,,,,,,,,,,,,,,,,,,,,,,,,
,,,,,,,,2023-08-06_08h29.54.237,HF_wild_card,2022.2.4,MacIntel,59.99880002,63ee215c40e6f16b0d6ad3f2,64ce5acb97489d65b14ecc7a,64cf4be62e975eb9284fa418,,,,,,,sngl,resources/DBN.BMP,resources/Empty.png,WildCard_Ex,-0.109231771,-0.000221354,1,0,0,0.8787,optionLeft,95,12215,6,7,0,7,0,1,,,,,,,,,,,,,,,,,,,,,,,,,,,,,,,,,,,,,,,
,,,,,,,,2023-08-06_08h29.54.237,HF_wild_card,2022.2.4,MacIntel,59.99880002,63ee215c40e6f16b0d6ad3f2,64ce5acb97489d65b14ecc7a,64cf4be62e975eb9284fa418,,,,,,,sngl,resources/DP.BMP,resources/Empty.png,Door2,-0.112057292,-0.00734375,1,0,0,1.0303,optionLeft,20,12235,6,8,0,8,0,1,,,,,,,,,,,,,,,,,,,,,,,,,,,,,,,,,,,,,,,
,,,,,,,,2023-08-06_08h29.54.237,HF_wild_card,2022.2.4,MacIntel,59.99880002,63ee215c40e6f16b0d6ad3f2,64ce5acb97489d65b14ecc7a,64cf4be62e975eb9284fa418,,,,,,,decisionTrl,resources/DY.BMP,resources/DR.BMP,Door4,-0.129635417,0.010277778,1,0,0,1.281,optionLeft,60,12295,6,9,0,9,0,1,,,,,,,,,,,,,,,,,,,,,,,,,,,,,,,,,,,,,,,
,,,,,,,,2023-08-06_08h29.54.237,HF_wild_card,2022.2.4,MacIntel,59.99880002,63ee215c40e6f16b0d6ad3f2,64ce5acb97489d65b14ecc7a,64cf4be62e975eb9284fa418,,,,,,,ctch,resources/DB.BMP,resources/DY.BMP,Door4,0.129396701,0.004322917,1,0,0,0.9801,optionRight,60,12355,6,10,0,10,0,1,,,,,,,,,,,,,,,,,,,,,,,,,,,,,,,,,,,,,,,
,,,,,,,,2023-08-06_08h29.54.237,HF_wild_card,2022.2.4,MacIntel,59.99880002,63ee215c40e6f16b0d6ad3f2,64ce5acb97489d65b14ecc7a,64cf4be62e975eb9284fa418,,,,,,,decisionTrl,resources/DY.BMP,resources/DR.BMP,Door4,-0.149396701,0.007430556,1,0,0,1.0613,optionLeft,60,12415,6,11,0,11,0,1,,,,,,,,,,,,,,,,,,,,,,,,,,,,,,,,,,,,,,,
,,,,,,,,2023-08-06_08h29.54.237,HF_wild_card,2022.2.4,MacIntel,59.99880002,63ee215c40e6f16b0d6ad3f2,64ce5acb97489d65b14ecc7a,64cf4be62e975eb9284fa418,,,,,,,sngl,resources/Empty.png,resources/DR.BMP,Door3,0.131762153,-0.00328125,1,0,0,0.912,optionRight,70,12485,6,12,0,12,0,1,,,,,,,,,,,,,,,,,,,,,,,,,,,,,,,,,,,,,,,
,,,,,,,,2023-08-06_08h29.54.237,HF_wild_card,2022.2.4,MacIntel,59.99880002,63ee215c40e6f16b0d6ad3f2,64ce5acb97489d65b14ecc7a,64cf4be62e975eb9284fa418,,,,,,,decisionTrl,resources/DB.BMP,resources/DBN.BMP,WildCard_Ex,0.11094184,-0.009040799,1,0,0,1.2265,optionRight,95,12580,6,13,0,13,0,1,,,,,,,,,,,,,,,,,,,,,,,,,,,,,,,,,,,,,,,
,,,,,,,,2023-08-06_08h29.54.237,HF_wild_card,2022.2.4,MacIntel,59.99880002,63ee215c40e6f16b0d6ad3f2,64ce5acb97489d65b14ecc7a,64cf4be62e975eb9284fa418,,,,,,,decisionTrl,resources/DY.BMP,resources/DR.BMP,Door4,-0.140733507,0.020138889,1,0,0,1.2117,optionLeft,60,12640,6,14,0,14,0,1,,,,,,,,,,,,,,,,,,,,,,,,,,,,,,,,,,,,,,,
,,,,,,,,2023-08-06_08h29.54.237,HF_wild_card,2022.2.4,MacIntel,59.99880002,63ee215c40e6f16b0d6ad3f2,64ce5acb97489d65b14ecc7a,64cf4be62e975eb9284fa418,,,,,,,sngl,resources/Empty.png,resources/DP.BMP,Door2,0.108385417,-0.005208333,1,0,0,1.1759,optionRight,40,12680,6,15,0,15,0,1,,,,,,,,,,,,,,,,,,,,,,,,,,,,,,,,,,,,,,,
,,,,,,,,2023-08-06_08h29.54.237,HF_wild_card,2022.2.4,MacIntel,59.99880002,63ee215c40e6f16b0d6ad3f2,64ce5acb97489d65b14ecc7a,64cf4be62e975eb9284fa418,,,,,,,decisionTrl,resources/DB.BMP,resources/DP.BMP,Door1,-0.11516059,-0.002018229,1,0,0,2.6785,optionLeft,30,12710,6,16,0,16,0,1,,,,,,,,,,,,,,,,,,,,,,,,,,,,,,,,,,,,,,,
,,,,,,,,2023-08-06_08h29.54.237,HF_wild_card,2022.2.4,MacIntel,59.99880002,63ee215c40e6f16b0d6ad3f2,64ce5acb97489d65b14ecc7a,64cf4be62e975eb9284fa418,,,,,,,decisionTrl,resources/DR.BMP,resources/DY.BMP,Door4,0.116158854,-0.009023438,1,0,0,1.0948,optionRight,80,12790,6,17,0,17,0,1,,,,,,,,,,,,,,,,,,,,,,,,,,,,,,,,,,,,,,,
,,,,,,,,2023-08-06_08h29.54.237,HF_wild_card,2022.2.4,MacIntel,59.99880002,63ee215c40e6f16b0d6ad3f2,64ce5acb97489d65b14ecc7a,64cf4be62e975eb9284fa418,,,,,,,decisionTrl,resources/DBN.BMP,resources/DP.BMP,WildCard_Ex,-0.112243924,-0.004144965,1,0,0,0.8436,optionLeft,5,12795,6,18,0,18,0,1,,,,,,,,,,,,,,,,,,,,,,,,,,,,,,,,,,,,,,,
,,,,,,,,2023-08-06_08h29.54.237,HF_wild_card,2022.2.4,MacIntel,59.99880002,63ee215c40e6f16b0d6ad3f2,64ce5acb97489d65b14ecc7a,64cf4be62e975eb9284fa418,,,,,,,decisionTrl,resources/DR.BMP,resources/DBN.BMP,WildCard_Ex,0.12875434,-0.005499132,1,0,0,0.9765,optionRight,95,12890,6,19,0,19,0,1,,,,,,,,,,,,,,,,,,,,,,,,,,,,,,,,,,,,,,,
,,,,,,,,2023-08-06_08h29.54.237,HF_wild_card,2022.2.4,MacIntel,59.99880002,63ee215c40e6f16b0d6ad3f2,64ce5acb97489d65b14ecc7a,64cf4be62e975eb9284fa418,,,,,,,sngl,resources/Empty.png,resources/DY.BMP,Door4,0.134275174,-0.006914063,1,0,0,1.0282,optionRight,80,12970,6,20,0,20,0,1,,,,,,,,,,,,,,,,,,,,,,,,,,,,,,,,,,,,,,,
,,,,,,,,2023-08-06_08h29.54.237,HF_wild_card,2022.2.4,MacIntel,59.99880002,63ee215c40e6f16b0d6ad3f2,64ce5acb97489d65b14ecc7a,64cf4be62e975eb9284fa418,,,,,,,decisionTrl,resources/DP.BMP,resources/DB.BMP,Door1,0.133467882,-0.011974826,1,0,0,1.8801,optionRight,30,13000,6,21,0,21,0,1,,,,,,,,,,,,,,,,,,,,,,,,,,,,,,,,,,,,,,,
,,,,,,,,2023-08-06_08h29.54.237,HF_wild_card,2022.2.4,MacIntel,59.99880002,63ee215c40e6f16b0d6ad3f2,64ce5acb97489d65b14ecc7a,64cf4be62e975eb9284fa418,,,,,,,sngl,resources/Empty.png,resources/DBN.BMP,WildCard_Ex,0.127335069,0.001462674,1,0,0,0.9624,optionRight,5,13005,6,22,0,22,0,1,,,,,,,,,,,,,,,,,,,,,,,,,,,,,,,,,,,,,,,
,,,,,,,,2023-08-06_08h29.54.237,HF_wild_card,2022.2.4,MacIntel,59.99880002,63ee215c40e6f16b0d6ad3f2,64ce5acb97489d65b14ecc7a,64cf4be62e975eb9284fa418,,,,,,,decisionTrl,resources/DB.BMP,resources/DP.BMP,Door1,-0.142578125,0.001046007,1,0,0,1.1934,optionLeft,30,13035,6,23,0,23,0,1,,,,,,,,,,,,,,,,,,,,,,,,,,,,,,,,,,,,,,,
,,,,,,,,2023-08-06_08h29.54.237,HF_wild_card,2022.2.4,MacIntel,59.99880002,63ee215c40e6f16b0d6ad3f2,64ce5acb97489d65b14ecc7a,64cf4be62e975eb9284fa418,,,,,,,decisionTrl,resources/DR.BMP,resources/DY.BMP,Door4,0.114965278,-0.006002604,1,0,0,1.0447,optionRight,80,13115,6,24,0,24,0,1,,,,,,,,,,,,,,,,,,,,,,,,,,,,,,,,,,,,,,,
,,,,,,,,2023-08-06_08h29.54.237,HF_wild_card,2022.2.4,MacIntel,59.99880002,63ee215c40e6f16b0d6ad3f2,64ce5acb97489d65b14ecc7a,64cf4be62e975eb9284fa418,,,,,,,sngl,resources/DBN.BMP,resources/Empty.png,WildCard_Ex,-0.122274306,0.008146701,1,0,0,0.9785,optionLeft,5,13120,6,25,0,25,0,1,,,,,,,,,,,,,,,,,,,,,,,,,,,,,,,,,,,,,,,
,,,,,,,,2023-08-06_08h29.54.237,HF_wild_card,2022.2.4,MacIntel,59.99880002,63ee215c40e6f16b0d6ad3f2,64ce5acb97489d65b14ecc7a,64cf4be62e975eb9284fa418,,,,,,,decisionTrl,resources/DP.BMP,resources/DBN.BMP,Door2,-0.114448785,0.015091146,1,0,0,1.4611,optionLeft,20,13140,6,26,0,26,0,1,,,,,,,,,,,,,,,,,,,,,,,,,,,,,,,,,,,,,,,
,,,,,,,,2023-08-06_08h29.54.237,HF_wild_card,2022.2.4,MacIntel,59.99880002,63ee215c40e6f16b0d6ad3f2,64ce5acb97489d65b14ecc7a,64cf4be62e975eb9284fa418,,,,,,,ctch,resources/DY.BMP,resources/DB.BMP,Door4,-0.125199653,0.009600694,1,0,0,1.0105,optionLeft,80,13220,6,27,0,27,0,1,,,,,,,,,,,,,,,,,,,,,,,,,,,,,,,,,,,,,,,
,,,,,,,,2023-08-06_08h29.54.237,HF_wild_card,2022.2.4,MacIntel,59.99880002,63ee215c40e6f16b0d6ad3f2,64ce5acb97489d65b14ecc7a,64cf4be62e975eb9284fa418,,,,,,,sngl,resources/Empty.png,resources/DB.BMP,Door1,0.123081597,0.015247396,1,0,0,0.9952,optionRight,30,13250,6,28,0,28,0,1,,,,,,,,,,,,,,,,,,,,,,,,,,,,,,,,,,,,,,,
,,,,,,,,2023-08-06_08h29.54.237,HF_wild_card,2022.2.4,MacIntel,59.99880002,63ee215c40e6f16b0d6ad3f2,64ce5acb97489d65b14ecc7a,64cf4be62e975eb9284fa418,,,,,,,ctch,resources/DB.BMP,resources/DY.BMP,Door4,0.140377604,-0.000364583,1,0,0,1.3749,optionRight,80,13330,6,29,0,29,0,1,,,,,,,,,,,,,,,,,,,,,,,,,,,,,,,,,,,,,,,
,,,,,,,,2023-08-06_08h29.54.237,HF_wild_card,2022.2.4,MacIntel,59.99880002,63ee215c40e6f16b0d6ad3f2,64ce5acb97489d65b14ecc7a,64cf4be62e975eb9284fa418,,,,,,,decisionTrl,resources/DR.BMP,resources/DY.BMP,Door4,0.119006076,-0.007929687,1,0,0,1.0449,optionRight,60,13390,6,30,0,30,0,1,,,,,,,,,,,,,,,,,,,,,,,,,,,,,,,,,,,,,,,
,,,,,,,,2023-08-06_08h29.54.237,HF_wild_card,2022.2.4,MacIntel,59.99880002,63ee215c40e6f16b0d6ad3f2,64ce5acb97489d65b14ecc7a,64cf4be62e975eb9284fa418,,,,,,,decisionTrl,resources/DBN.BMP,resources/DR.BMP,WildCard_Ex,-0.140625,-0.007460937,1,0,0,1.2623,optionLeft,95,13485,6,31,0,31,0,1,,,,,,,,,,,,,,,,,,,,,,,,,,,,,,,,,,,,,,,
,,,,,,,,2023-08-06_08h29.54.237,HF_wild_card,2022.2.4,MacIntel,59.99880002,63ee215c40e6f16b0d6ad3f2,64ce5acb97489d65b14ecc7a,64cf4be62e975eb9284fa418,,,,,,,sngl,resources/DR.BMP,resources/Empty.png,Door3,-0.119461806,0.006927083,1,0,0,0.9946,optionLeft,70,13555,6,32,0,32,0,1,,,,,,,,,,,,,,,,,,,,,,,,,,,,,,,,,,,,,,,
,,,,,,,,2023-08-06_08h29.54.237,HF_wild_card,2022.2.4,MacIntel,59.99880002,63ee215c40e6f16b0d6ad3f2,64ce5acb97489d65b14ecc7a,64cf4be62e975eb9284fa418,,,,,,,decisionTrl,resources/DBN.BMP,resources/DB.BMP,WildCard_Ex,-0.115672743,0.010177951,1,0,0,0.875,optionLeft,5,13560,6,33,0,33,0,1,,,,,,,,,,,,,,,,,,,,,,,,,,,,,,,,,,,,,,,
,,,,,,,,2023-08-06_08h29.54.237,HF_wild_card,2022.2.4,MacIntel,59.99880002,63ee215c40e6f16b0d6ad3f2,64ce5acb97489d65b14ecc7a,64cf4be62e975eb9284fa418,,,,,,,decisionTrl,resources/DP.BMP,resources/DB.BMP,Door1,0.117855903,-0.01297309,1,0,0,1.0762,optionRight,30,13590,6,34,0,34,0,1,,,,,,,,,,,,,,,,,,,,,,,,,,,,,,,,,,,,,,,
,,,,,,,,2023-08-06_08h29.54.237,HF_wild_card,2022.2.4,MacIntel,59.99880002,63ee215c40e6f16b0d6ad3f2,64ce5acb97489d65b14ecc7a,64cf4be62e975eb9284fa418,,,,,,,ctch,resources/DP.BMP,resources/DR.BMP,Door3,0.110533854,-0.015494792,1,0,0,1.4279,optionRight,70,13660,6,35,0,35,0,1,,,,,,,,,,,,,,,,,,,,,,,,,,,,,,,,,,,,,,,
,,,,,,,,2023-08-06_08h29.54.237,HF_wild_card,2022.2.4,MacIntel,59.99880002,63ee215c40e6f16b0d6ad3f2,64ce5acb97489d65b14ecc7a,64cf4be62e975eb9284fa418,,,,,,,decisionTrl,resources/DBN.BMP,resources/DY.BMP,Door4,0.197000868,-0.014700521,1,0,0,1.4112,optionRight,60,13720,6,36,0,36,0,1,,,,,,,,,,,,,,,,,,,,,,,,,,,,,,,,,,,,,,,
,,,,,,,,2023-08-06_08h29.54.237,HF_wild_card,2022.2.4,MacIntel,59.99880002,63ee215c40e6f16b0d6ad3f2,64ce5acb97489d65b14ecc7a,64cf4be62e975eb9284fa418,,,,,,,ctch,resources/DR.BMP,resources/DP.BMP,Door3,-0.135946181,0.020512153,1,0,0,1.7615,optionLeft,70,13790,6,37,0,37,0,1,,,,,,,,,,,,,,,,,,,,,,,,,,,,,,,,,,,,,,,
,,,,,,,,2023-08-06_08h29.54.237,HF_wild_card,2022.2.4,MacIntel,59.99880002,63ee215c40e6f16b0d6ad3f2,64ce5acb97489d65b14ecc7a,64cf4be62e975eb9284fa418,,,,,,,decisionTrl,resources/DR.BMP,resources/DY.BMP,Door4,0.181866319,-0.012044271,1,0,0,1.5458,optionRight,80,13870,6,38,0,38,0,1,,,,,,,,,,,,,,,,,,,,,,,,,,,,,,,,,,,,,,,
,,,,,,,,2023-08-06_08h29.54.237,HF_wild_card,2022.2.4,MacIntel,59.99880002,63ee215c40e6f16b0d6ad3f2,64ce5acb97489d65b14ecc7a,64cf4be62e975eb9284fa418,,,,,,,decisionTrl,resources/DB.BMP,resources/DP.BMP,Door1,-0.114657118,0.006480035,1,0,0,1.4459,optionLeft,30,13900,6,39,0,39,0,1,,,,,,,,,,,,,,,,,,,,,,,,,,,,,,,,,,,,,,,
,,,,,,,,2023-08-06_08h29.54.237,HF_wild_card,2022.2.4,MacIntel,59.99880002,63ee215c40e6f16b0d6ad3f2,64ce5acb97489d65b14ecc7a,64cf4be62e975eb9284fa418,,,,,,,decisionTrl,resources/DP.BMP,resources/DB.BMP,Door1,0.135581597,-0.003454861,1,0,0,1.8632,optionRight,30,13930,6,40,0,40,0,1,,,,,,,,,,,,,,,,,,,,,,,,,,,,,,,,,,,,,,,
,,,,,,,,2023-08-06_08h29.54.237,HF_wild_card,2022.2.4,MacIntel,59.99880002,63ee215c40e6f16b0d6ad3f2,64ce5acb97489d65b14ecc7a,64cf4be62e975eb9284fa418,,,,,,,decisionTrl,resources/DB.BMP,resources/DP.BMP,Door1,-0.123389757,-0.001484375,1,0,0,1.2299,optionLeft,30,13960,6,41,0,41,0,1,,,,,,,,,,,,,,,,,,,,,,,,,,,,,,,,,,,,,,,
,,,,,,,,2023-08-06_08h29.54.237,HF_wild_card,2022.2.4,MacIntel,59.99880002,63ee215c40e6f16b0d6ad3f2,64ce5acb97489d65b14ecc7a,64cf4be62e975eb9284fa418,,,,,,,sngl,resources/DY.BMP,resources/Empty.png,Door4,-0.119622396,-0.010572917,1,0,0,1.2646,optionLeft,60,14020,6,42,0,42,0,1,,,,,,,,,,,,,,,,,,,,,,,,,,,,,,,,,,,,,,,
,,,,,,,,2023-08-06_08h29.54.237,HF_wild_card,2022.2.4,MacIntel,59.99880002,63ee215c40e6f16b0d6ad3f2,64ce5acb97489d65b14ecc7a,64cf4be62e975eb9284fa418,,,,,,,decisionTrl,resources/DY.BMP,resources/DBN.BMP,Door4,-0.116119792,-0.009366319,1,0,0,1.1775,optionLeft,60,14080,6,43,0,43,0,1,,,,,,,,,,,,,,,,,,,,,,,,,,,,,,,,,,,,,,,
,,,,,,,,2023-08-06_08h29.54.237,HF_wild_card,2022.2.4,MacIntel,59.99880002,63ee215c40e6f16b0d6ad3f2,64ce5acb97489d65b14ecc7a,64cf4be62e975eb9284fa418,,,,,,,,,,,,,,,,,,,,,,,,,,5,0,5,0,1,,,,,,,,,,,,,,,,,,,,,,,,,,,,,,,,,,
,,,,,,,,2023-08-06_08h29.54.237,HF_wild_card,2022.2.4,MacIntel,59.99880002,63ee215c40e6f16b0d6ad3f2,64ce5acb97489d65b14ecc7a,64cf4be62e975eb9284fa418,,,,,,,decisionTrl,resources/DP.BMP,resources/DB.BMP,Door1,0.124982639,-0.089631076,1,0,0,1.7438,optionRight,30,14110,7,0,0,0,0,1,,,,,,,,,,,,,,,,,,,,,,,,,,,,,,,,,,,,,,,
,,,,,,,,2023-08-06_08h29.54.237,HF_wild_card,2022.2.4,MacIntel,59.99880002,63ee215c40e6f16b0d6ad3f2,64ce5acb97489d65b14ecc7a,64cf4be62e975eb9284fa418,,,,,,,decisionTrl,resources/DP.BMP,resources/DB.BMP,Door1,0.132382813,-0.035924479,1,0,0,2.6325,optionRight,30,14140,7,1,0,1,0,1,,,,,,,,,,,,,,,,,,,,,,,,,,,,,,,,,,,,,,,
,,,,,,,,2023-08-06_08h29.54.237,HF_wild_card,2022.2.4,MacIntel,59.99880002,63ee215c40e6f16b0d6ad3f2,64ce5acb97489d65b14ecc7a,64cf4be62e975eb9284fa418,,,,,,,decisionTrl,resources/DP.BMP,resources/DB.BMP,Door1,0.121423611,-0.028632813,1,0,0,0.9957,optionRight,30,14170,7,2,0,2,0,1,,,,,,,,,,,,,,,,,,,,,,,,,,,,,,,,,,,,,,,
,,,,,,,,2023-08-06_08h29.54.237,HF_wild_card,2022.2.4,MacIntel,59.99880002,63ee215c40e6f16b0d6ad3f2,64ce5acb97489d65b14ecc7a,64cf4be62e975eb9284fa418,,,,,,,decisionTrl,resources/DP.BMP,resources/DB.BMP,Door1,0.12266059,-0.035425347,1,0,0,0.9477,optionRight,30,14200,7,3,0,3,0,1,,,,,,,,,,,,,,,,,,,,,,,,,,,,,,,,,,,,,,,
,,,,,,,,2023-08-06_08h29.54.237,HF_wild_card,2022.2.4,MacIntel,59.99880002,63ee215c40e6f16b0d6ad3f2,64ce5acb97489d65b14ecc7a,64cf4be62e975eb9284fa418,,,,,,,ctch,resources/DR.BMP,resources/DP.BMP,Door3,-0.223159722,-0.013480903,1,0,0,1.0616,optionLeft,70,14270,7,4,0,4,0,1,,,,,,,,,,,,,,,,,,,,,,,,,,,,,,,,,,,,,,,
,,,,,,,,2023-08-06_08h29.54.237,HF_wild_card,2022.2.4,MacIntel,59.99880002,63ee215c40e6f16b0d6ad3f2,64ce5acb97489d65b14ecc7a,64cf4be62e975eb9284fa418,,,,,,,decisionTrl,resources/DY.BMP,resources/DR.BMP,Door4,-0.157391493,-0.006627604,1,0,0,0.9623,optionLeft,60,14330,7,5,0,5,0,1,,,,,,,,,,,,,,,,,,,,,,,,,,,,,,,,,,,,,,,
,,,,,,,,2023-08-06_08h29.54.237,HF_wild_card,2022.2.4,MacIntel,59.99880002,63ee215c40e6f16b0d6ad3f2,64ce5acb97489d65b14ecc7a,64cf4be62e975eb9284fa418,,,,,,,ctch,resources/DP.BMP,resources/DR.BMP,Door3,0.137165799,-0.000407986,1,0,0,1.0773,optionRight,70,14400,7,6,0,6,0,1,,,,,,,,,,,,,,,,,,,,,,,,,,,,,,,,,,,,,,,
,,,,,,,,2023-08-06_08h29.54.237,HF_wild_card,2022.2.4,MacIntel,59.99880002,63ee215c40e6f16b0d6ad3f2,64ce5acb97489d65b14ecc7a,64cf4be62e975eb9284fa418,,,,,,,decisionTrl,resources/DR.BMP,resources/DY.BMP,Door4,0.130902778,-0.013875868,1,0,0,1.03,optionRight,80,14480,7,7,0,7,0,1,,,,,,,,,,,,,,,,,,,,,,,,,,,,,,,,,,,,,,,
,,,,,,,,2023-08-06_08h29.54.237,HF_wild_card,2022.2.4,MacIntel,59.99880002,63ee215c40e6f16b0d6ad3f2,64ce5acb97489d65b14ecc7a,64cf4be62e975eb9284fa418,,,,,,,ctch,resources/DR.BMP,resources/DP.BMP,Door3,-0.16203559,-0.007105035,1,0,0,1.1149,optionLeft,70,14550,7,8,0,8,0,1,,,,,,,,,,,,,,,,,,,,,,,,,,,,,,,,,,,,,,,
,,,,,,,,2023-08-06_08h29.54.237,HF_wild_card,2022.2.4,MacIntel,59.99880002,63ee215c40e6f16b0d6ad3f2,64ce5acb97489d65b14ecc7a,64cf4be62e975eb9284fa418,,,,,,,decisionTrl,resources/DR.BMP,resources/DY.BMP,Door4,0.138567708,-0.007317708,1,0,0,1.0462,optionRight,80,14630,7,9,0,9,0,1,,,,,,,,,,,,,,,,,,,,,,,,,,,,,,,,,,,,,,,
,,,,,,,,2023-08-06_08h29.54.237,HF_wild_card,2022.2.4,MacIntel,59.99880002,63ee215c40e6f16b0d6ad3f2,64ce5acb97489d65b14ecc7a,64cf4be62e975eb9284fa418,,,,,,,decisionTrl,resources/DY.BMP,resources/DR.BMP,Door4,-0.121063368,0.006727431,1,0,0,1.0975,optionLeft,60,14690,7,10,0,10,0,1,,,,,,,,,,,,,,,,,,,,,,,,,,,,,,,,,,,,,,,
,,,,,,,,2023-08-06_08h29.54.237,HF_wild_card,2022.2.4,MacIntel,59.99880002,63ee215c40e6f16b0d6ad3f2,64ce5acb97489d65b14ecc7a,64cf4be62e975eb9284fa418,,,,,,,ctch,resources/DP.BMP,resources/DR.BMP,Door3,0.135104167,-0.002065972,1,0,0,0.9137,optionRight,70,14760,7,11,0,11,0,1,,,,,,,,,,,,,,,,,,,,,,,,,,,,,,,,,,,,,,,
,,,,,,,,2023-08-06_08h29.54.237,HF_wild_card,2022.2.4,MacIntel,59.99880002,63ee215c40e6f16b0d6ad3f2,64ce5acb97489d65b14ecc7a,64cf4be62e975eb9284fa418,,,,,,,decisionTrl,resources/DR.BMP,resources/DY.BMP,Door4,0.13156684,-0.017486979,1,0,0,0.9472,optionRight,80,14840,7,12,0,12,0,1,,,,,,,,,,,,,,,,,,,,,,,,,,,,,,,,,,,,,,,
,,,,,,,,2023-08-06_08h29.54.237,HF_wild_card,2022.2.4,MacIntel,59.99880002,63ee215c40e6f16b0d6ad3f2,64ce5acb97489d65b14ecc7a,64cf4be62e975eb9284fa418,,,,,,,decisionTrl,resources/DY.BMP,resources/DR.BMP,Door4,-0.139561632,0.006076389,1,0,0,1.0308,optionLeft,60,14900,7,13,0,13,0,1,,,,,,,,,,,,,,,,,,,,,,,,,,,,,,,,,,,,,,,
,,,,,,,,2023-08-06_08h29.54.237,HF_wild_card,2022.2.4,MacIntel,59.99880002,63ee215c40e6f16b0d6ad3f2,64ce5acb97489d65b14ecc7a,64cf4be62e975eb9284fa418,,,,,,,decisionTrl,resources/DP.BMP,resources/DB.BMP,Door1,0.148932292,-0.01562066,1,0,0,1.4612,optionRight,30,14930,7,14,0,14,0,1,,,,,,,,,,,,,,,,,,,,,,,,,,,,,,,,,,,,,,,
,,,,,,,,2023-08-06_08h29.54.237,HF_wild_card,2022.2.4,MacIntel,59.99880002,63ee215c40e6f16b0d6ad3f2,64ce5acb97489d65b14ecc7a,64cf4be62e975eb9284fa418,,,,,,,decisionTrl,resources/DB.BMP,resources/DP.BMP,Door1,-0.142335069,-0.008125,1,0,0,1.797,optionLeft,30,14960,7,15,0,15,0,1,,,,,,,,,,,,,,,,,,,,,,,,,,,,,,,,,,,,,,,
,,,,,,,,2023-08-06_08h29.54.237,HF_wild_card,2022.2.4,MacIntel,59.99880002,63ee215c40e6f16b0d6ad3f2,64ce5acb97489d65b14ecc7a,64cf4be62e975eb9284fa418,,,,,,,decisionTrl,resources/DB.BMP,resources/DP.BMP,Door1,-0.108893229,-0.004114583,1,0,0,1.4456,optionLeft,30,14990,7,16,0,16,0,1,,,,,,,,,,,,,,,,,,,,,,,,,,,,,,,,,,,,,,,
,,,,,,,,2023-08-06_08h29.54.237,HF_wild_card,2022.2.4,MacIntel,59.99880002,63ee215c40e6f16b0d6ad3f2,64ce5acb97489d65b14ecc7a,64cf4be62e975eb9284fa418,,,,,,,decisionTrl,resources/DP.BMP,resources/DB.BMP,Door1,0.195707465,0.009236111,1,0,0,1.3263,optionRight,30,15020,7,17,0,17,0,1,,,,,,,,,,,,,,,,,,,,,,,,,,,,,,,,,,,,,,,
,,,,,,,,2023-08-06_08h29.54.237,HF_wild_card,2022.2.4,MacIntel,59.99880002,63ee215c40e6f16b0d6ad3f2,64ce5acb97489d65b14ecc7a,64cf4be62e975eb9284fa418,,,,,,,decisionTrl,resources/DY.BMP,resources/DR.BMP,Door4,-0.129709201,0.029609375,1,0,0,1.063,optionLeft,80,15100,7,18,0,18,0,1,,,,,,,,,,,,,,,,,,,,,,,,,,,,,,,,,,,,,,,
,,,,,,,,2023-08-06_08h29.54.237,HF_wild_card,2022.2.4,MacIntel,59.99880002,63ee215c40e6f16b0d6ad3f2,64ce5acb97489d65b14ecc7a,64cf4be62e975eb9284fa418,,,,,,,decisionTrl,resources/DR.BMP,resources/DY.BMP,Door4,0.119392361,-0.001124132,1,0,0,0.9635,optionRight,80,15180,7,19,0,19,0,1,,,,,,,,,,,,,,,,,,,,,,,,,,,,,,,,,,,,,,,
,,,,,,,,2023-08-06_08h29.54.237,HF_wild_card,2022.2.4,MacIntel,59.99880002,63ee215c40e6f16b0d6ad3f2,64ce5acb97489d65b14ecc7a,64cf4be62e975eb9284fa418,,,,,,,decisionTrl,resources/DB.BMP,resources/DP.BMP,Door1,-0.117061632,0.012799479,1,0,0,1.6973,optionLeft,30,15210,7,20,0,20,0,1,,,,,,,,,,,,,,,,,,,,,,,,,,,,,,,,,,,,,,,
,,,,,,,,2023-08-06_08h29.54.237,HF_wild_card,2022.2.4,MacIntel,59.99880002,63ee215c40e6f16b0d6ad3f2,64ce5acb97489d65b14ecc7a,64cf4be62e975eb9284fa418,,,,,,,decisionTrl,resources/DR.BMP,resources/DY.BMP,Door4,0.117248264,0.001432292,1,0,0,0.9853,optionRight,60,15270,7,21,0,21,0,1,,,,,,,,,,,,,,,,,,,,,,,,,,,,,,,,,,,,,,,
,,,,,,,,2023-08-06_08h29.54.237,HF_wild_card,2022.2.4,MacIntel,59.99880002,63ee215c40e6f16b0d6ad3f2,64ce5acb97489d65b14ecc7a,64cf4be62e975eb9284fa418,,,,,,,ctch,resources/DR.BMP,resources/DP.BMP,Door3,-0.141111111,0.012925347,1,0,0,1.2453,optionLeft,70,15340,7,22,0,22,0,1,,,,,,,,,,,,,,,,,,,,,,,,,,,,,,,,,,,,,,,
,,,,,,,,2023-08-06_08h29.54.237,HF_wild_card,2022.2.4,MacIntel,59.99880002,63ee215c40e6f16b0d6ad3f2,64ce5acb97489d65b14ecc7a,64cf4be62e975eb9284fa418,,,,,,,ctch,resources/DB.BMP,resources/DY.BMP,Door4,0.12328125,-0.003988715,1,0,0,0.8964,optionRight,80,15420,7,23,0,23,0,1,,,,,,,,,,,,,,,,,,,,,,,,,,,,,,,,,,,,,,,
,,,,,,,,2023-08-06_08h29.54.237,HF_wild_card,2022.2.4,MacIntel,59.99880002,63ee215c40e6f16b0d6ad3f2,64ce5acb97489d65b14ecc7a,64cf4be62e975eb9284fa418,,,,,,,ctch,resources/DY.BMP,resources/DB.BMP,Door4,-0.136883681,0.004201389,1,0,0,0.8987,optionLeft,80,15500,7,24,0,24,0,1,,,,,,,,,,,,,,,,,,,,,,,,,,,,,,,,,,,,,,,
,,,,,,,,2023-08-06_08h29.54.237,HF_wild_card,2022.2.4,MacIntel,59.99880002,63ee215c40e6f16b0d6ad3f2,64ce5acb97489d65b14ecc7a,64cf4be62e975eb9284fa418,,,,,,,decisionTrl,resources/DB.BMP,resources/DP.BMP,Door1,-0.121775174,-0.004796007,1,0,0,1.4945,optionLeft,30,15530,7,25,0,25,0,1,,,,,,,,,,,,,,,,,,,,,,,,,,,,,,,,,,,,,,,
,,,,,,,,2023-08-06_08h29.54.237,HF_wild_card,2022.2.4,MacIntel,59.99880002,63ee215c40e6f16b0d6ad3f2,64ce5acb97489d65b14ecc7a,64cf4be62e975eb9284fa418,,,,,,,ctch,resources/DP.BMP,resources/DR.BMP,Door3,0.123732639,-0.005959201,1,0,0,1.1126,optionRight,70,15600,7,26,0,26,0,1,,,,,,,,,,,,,,,,,,,,,,,,,,,,,,,,,,,,,,,
,,,,,,,,2023-08-06_08h29.54.237,HF_wild_card,2022.2.4,MacIntel,59.99880002,63ee215c40e6f16b0d6ad3f2,64ce5acb97489d65b14ecc7a,64cf4be62e975eb9284fa418,,,,,,,decisionTrl,resources/DB.BMP,resources/DP.BMP,Door1,-0.129079861,-0.000407986,1,0,0,1.1661,optionLeft,30,15630,7,27,0,27,0,1,,,,,,,,,,,,,,,,,,,,,,,,,,,,,,,,,,,,,,,
,,,,,,,,2023-08-06_08h29.54.237,HF_wild_card,2022.2.4,MacIntel,59.99880002,63ee215c40e6f16b0d6ad3f2,64ce5acb97489d65b14ecc7a,64cf4be62e975eb9284fa418,,,,,,,decisionTrl,resources/DB.BMP,resources/DP.BMP,Door1,-0.125234375,0.007886285,1,0,0,1.0493,optionLeft,30,15660,7,28,0,28,0,1,,,,,,,,,,,,,,,,,,,,,,,,,,,,,,,,,,,,,,,
,,,,,,,,2023-08-06_08h29.54.237,HF_wild_card,2022.2.4,MacIntel,59.99880002,63ee215c40e6f16b0d6ad3f2,64ce5acb97489d65b14ecc7a,64cf4be62e975eb9284fa418,,,,,,,decisionTrl,resources/DY.BMP,resources/DR.BMP,Door4,-0.115512153,0.001705729,1,0,0,0.8301,optionLeft,60,15720,7,29,0,29,0,1,,,,,,,,,,,,,,,,,,,,,,,,,,,,,,,,,,,,,,,
,,,,,,,,2023-08-06_08h29.54.237,HF_wild_card,2022.2.4,MacIntel,59.99880002,63ee215c40e6f16b0d6ad3f2,64ce5acb97489d65b14ecc7a,64cf4be62e975eb9284fa418,,,,,,,ctch,resources/DY.BMP,resources/DB.BMP,Door4,-0.127851562,-0.006618924,1,0,0,0.7961,optionLeft,80,15800,7,30,0,30,0,1,,,,,,,,,,,,,,,,,,,,,,,,,,,,,,,,,,,,,,,
,,,,,,,,2023-08-06_08h29.54.237,HF_wild_card,2022.2.4,MacIntel,59.99880002,63ee215c40e6f16b0d6ad3f2,64ce5acb97489d65b14ecc7a,64cf4be62e975eb9284fa418,,,,,,,ctch,resources/DB.BMP,resources/DY.BMP,Door4,0.136046007,-0.014908854,1,0,0,1.0305,optionRight,80,15880,7,31,0,31,0,1,,,,,,,,,,,,,,,,,,,,,,,,,,,,,,,,,,,,,,,
,,,,,,,,2023-08-06_08h29.54.237,HF_wild_card,2022.2.4,MacIntel,59.99880002,63ee215c40e6f16b0d6ad3f2,64ce5acb97489d65b14ecc7a,64cf4be62e975eb9284fa418,,,,,,,decisionTrl,resources/DR.BMP,resources/DY.BMP,Door4,0.124184028,-0.008185764,1,0,0,1.0317,optionRight,60,15940,7,32,0,32,0,1,,,,,,,,,,,,,,,,,,,,,,,,,,,,,,,,,,,,,,,
,,,,,,,,2023-08-06_08h29.54.237,HF_wild_card,2022.2.4,MacIntel,59.99880002,63ee215c40e6f16b0d6ad3f2,64ce5acb97489d65b14ecc7a,64cf4be62e975eb9284fa418,,,,,,,decisionTrl,resources/DY.BMP,resources/DR.BMP,Door4,-0.192677951,0.006367187,1,0,0,1.2139,optionLeft,60,16000,7,33,0,33,0,1,,,,,,,,,,,,,,,,,,,,,,,,,,,,,,,,,,,,,,,
,,,,,,,,2023-08-06_08h29.54.237,HF_wild_card,2022.2.4,MacIntel,59.99880002,63ee215c40e6f16b0d6ad3f2,64ce5acb97489d65b14ecc7a,64cf4be62e975eb9284fa418,,,,,,,ctch,resources/DB.BMP,resources/DY.BMP,Door4,0.125807292,-0.017278646,1,0,0,0.98,optionRight,80,16080,7,34,0,34,0,1,,,,,,,,,,,,,,,,,,,,,,,,,,,,,,,,,,,,,,,
,,,,,,,,2023-08-06_08h29.54.237,HF_wild_card,2022.2.4,MacIntel,59.99880002,63ee215c40e6f16b0d6ad3f2,64ce5acb97489d65b14ecc7a,64cf4be62e975eb9284fa418,,,,,,,ctch,resources/DY.BMP,resources/DB.BMP,Door4,-0.13640191,0.000980903,1,0,0,0.9313,optionLeft,60,16140,7,35,0,35,0,1,,,,,,,,,,,,,,,,,,,,,,,,,,,,,,,,,,,,,,,
,,,,,,,,2023-08-06_08h29.54.237,HF_wild_card,2022.2.4,MacIntel,59.99880002,63ee215c40e6f16b0d6ad3f2,64ce5acb97489d65b14ecc7a,64cf4be62e975eb9284fa418,,,,,,,,,,,,,,,,,,,,,,,,,,6,0,6,0,1,,,,,,,,,,,,,,,,,,,,,,,,,,,,,,,,,,
,,,,,,,,2023-08-06_08h29.54.237,HF_wild_card,2022.2.4,MacIntel,59.99880002,63ee215c40e6f16b0d6ad3f2,64ce5acb97489d65b14ecc7a,64cf4be62e975eb9284fa418,,,,,,,,,,,,,,,,,,,,,,,,,,,,,,,4,,,,,,,,,,,,,,,,,,,,,,,,,,,,,,,,,
,,,,,,,,2023-08-06_08h29.54.237,HF_wild_card,2022.2.4,MacIntel,59.99880002,63ee215c40e6f16b0d6ad3f2,64ce5acb97489d65b14ecc7a,64cf4be62e975eb9284fa418,,,,,,,,,,,,,,,,,,,,,,,,,,,,,,,,,,,,,,,,,,,,,,,,,,,,,,,,,,,,,,,,
,,,,,,,,2023-08-06_08h29.54.237,HF_wild_card,2022.2.4,MacIntel,59.99880002,63ee215c40e6f16b0d6ad3f2,64ce5acb97489d65b14ecc7a,64cf4be62e975eb9284fa418,,,,,,,,,,,,,,,,,,,,,,,,,,,,,,,,20,Door1,resources/DB.BMP,0,0,0,0,1,,,,,,,,,,,,,,,,,,,,,,,,,
,,,,,,,,2023-08-06_08h29.54.237,HF_wild_card,2022.2.4,MacIntel,59.99880002,63ee215c40e6f16b0d6ad3f2,64ce5acb97489d65b14ecc7a,64cf4be62e975eb9284fa418,,,,,,,,,,,,,,,,,,,,,,,,,,,,,,,,60,Door3,resources/DR.BMP,1,0,1,0,1,,,,,,,,,,,,,,,,,,,,,,,,,
,,,,,,,,2023-08-06_08h29.54.237,HF_wild_card,2022.2.4,MacIntel,59.99880002,63ee215c40e6f16b0d6ad3f2,64ce5acb97489d65b14ecc7a,64cf4be62e975eb9284fa418,,,,,,,,,,,,,,,,,,,,,,,,,,,,,,,,80,Door4,resources/DY.BMP,2,0,2,0,1,,,,,,,,,,,,,,,,,,,,,,,,,
