Condition,Low fixed image (Door1),Low risky image (Door2),High fixed image (Door3),High risky image (Door4),NonExtreme Wild Card 1,NonExtreme Wild Card 2,,date,expName,psychopyVersion,OS,frameRate,PROLIFIC_PID,STUDY_ID,SESSION_ID,mouse_2.x,mouse_2.y,mouse_2.leftButton,mouse_2.midButton,mouse_2.rightButton,mouse_2.clicked_name,Trial Type,Left Option Image,Right Option Image,Chosen Door,mouse.x,mouse.y,mouse.leftButton,mouse.midButton,mouse.rightButton,mouse.time,mouse.clicked_name,Feedback,Cumulative Reward,Block,trial.thisRepN,trial.thisTrialN,trial.thisN,trial.thisIndex,trial.ran,blocks.thisRepN,blocks.thisTrialN,blocks.thisN,blocks.thisIndex,blocks.ran,Money conversion,First Outcome Reported,Shown Door (First Outcome),Displayed Image (First Outcome),outcomes.thisRepN,outcomes.thisTrialN,outcomes.thisN,outcomes.thisIndex,outcomes.ran,judgments.thisRepN,judgments.thisTrialN,judgments.thisN,judgments.thisIndex,judgments.ran,freqMouse.x,freqMouse.y,freqMouse.leftButton,freqMouse.midButton,freqMouse.rightButton,freqMouse.clicked_name,FQJ for first outcome,FQJ for second outcome,Shown Door,Displayed Image,trials.thisRepN,trials.thisTrialN,trials.thisN,trials.thisIndex,trials.ran,judgBlock.thisRepN,judgBlock.thisTrialN,judgBlock.thisN,judgBlock.thisIndex,judgBlock.ran
2,resources/DY.BMP,resources/DG.BMP,resources/DP.BMP,resources/DBN.BMP,resources/DB.BMP,resources/DR.BMP,,2023-08-16_08h46.41.042,HF_wild_card,2022.2.4,Win32,59.95203837,63f79eb498a9401ce52a9fe1,64d2fd46c836a06233681665,64dc7ebf96ba187eefe1fcec,,,,,,,,,,,,,,,,,,,,,,,,,,,,,,,,,,,,,,,,,,,,,,,,,,,,,,,,,,,,,,,,
,,,,,,,,2023-08-16_08h46.41.042,HF_wild_card,2022.2.4,Win32,59.95203837,63f79eb498a9401ce52a9fe1,64d2fd46c836a06233681665,64dc7ebf96ba187eefe1fcec,0.019444444,-0.414814815,1,0,0,agree,,,,,,,,,,,,,,,,,,,,,,,,,,,,,,,,,,,,,,,,,,,,,,,,,,,,,,,,,,
,,,,,,,,2023-08-16_08h46.41.042,HF_wild_card,2022.2.4,Win32,59.95203837,63f79eb498a9401ce52a9fe1,64d2fd46c836a06233681665,64dc7ebf96ba187eefe1fcec,,,,,,,,,,,,,,,,,,,,,,,,,,,,,,,,,,,,,,,,,,,,,,,,,,,,,,,,,,,,,,,,
,,,,,,,,2023-08-16_08h46.41.042,HF_wild_card,2022.2.4,Win32,59.95203837,63f79eb498a9401ce52a9fe1,64d2fd46c836a06233681665,64dc7ebf96ba187eefe1fcec,,,,,,,decisionTrl,resources/DBN.BMP,resources/DP.BMP,Door4,-0.210185185,-0.031481481,1,0,0,1.33,optionLeft,80,80,1,0,0,0,0,1,,,,,,,,,,,,,,,,,,,,,,,,,,,,,,,,,,,,,,,
,,,,,,,,2023-08-16_08h46.41.042,HF_wild_card,2022.2.4,Win32,59.95203837,63f79eb498a9401ce52a9fe1,64d2fd46c836a06233681665,64dc7ebf96ba187eefe1fcec,,,,,,,decisionTrl,resources/DY.BMP,resources/DG.BMP,Door2,0.255555556,-0.042592593,1,0,0,1.098,optionRight,40,120,1,1,0,1,0,1,,,,,,,,,,,,,,,,,,,,,,,,,,,,,,,,,,,,,,,
,,,,,,,,2023-08-16_08h46.41.042,HF_wild_card,2022.2.4,Win32,59.95203837,63f79eb498a9401ce52a9fe1,64d2fd46c836a06233681665,64dc7ebf96ba187eefe1fcec,,,,,,,decisionTrl,resources/DP.BMP,resources/DBN.BMP,Door3,-0.271296296,-0.002777778,1,0,0,0.582,optionLeft,70,190,1,2,0,2,0,1,,,,,,,,,,,,,,,,,,,,,,,,,,,,,,,,,,,,,,,
,,,,,,,,2023-08-16_08h46.41.042,HF_wild_card,2022.2.4,Win32,59.95203837,63f79eb498a9401ce52a9fe1,64d2fd46c836a06233681665,64dc7ebf96ba187eefe1fcec,,,,,,,ctch,resources/DP.BMP,resources/DG.BMP,Door2,0.393518519,-0.068518519,1,0,0,0.382,optionRight,40,230,1,3,0,3,0,1,,,,,,,,,,,,,,,,,,,,,,,,,,,,,,,,,,,,,,,
,,,,,,,,2023-08-16_08h46.41.042,HF_wild_card,2022.2.4,Win32,59.95203837,63f79eb498a9401ce52a9fe1,64d2fd46c836a06233681665,64dc7ebf96ba187eefe1fcec,,,,,,,decisionTrl,resources/DG.BMP,resources/DY.BMP,Door2,-0.365740741,0.049074074,1,0,0,0.415,optionLeft,20,250,1,4,0,4,0,1,,,,,,,,,,,,,,,,,,,,,,,,,,,,,,,,,,,,,,,
,,,,,,,,2023-08-16_08h46.41.042,HF_wild_card,2022.2.4,Win32,59.95203837,63f79eb498a9401ce52a9fe1,64d2fd46c836a06233681665,64dc7ebf96ba187eefe1fcec,,,,,,,decisionTrl,resources/DR.BMP,resources/DBN.BMP,Door4,0.385185185,-0.024074074,1,0,0,0.382,optionRight,80,330,1,5,0,5,0,1,,,,,,,,,,,,,,,,,,,,,,,,,,,,,,,,,,,,,,,
,,,,,,,,2023-08-16_08h46.41.042,HF_wild_card,2022.2.4,Win32,59.95203837,63f79eb498a9401ce52a9fe1,64d2fd46c836a06233681665,64dc7ebf96ba187eefe1fcec,,,,,,,sngl,resources/Empty.png,resources/DR.BMP,WildCard_NonEx,0.436111111,0.027777778,1,0,0,0.28,optionRight,55,385,1,6,0,6,0,1,,,,,,,,,,,,,,,,,,,,,,,,,,,,,,,,,,,,,,,
,,,,,,,,2023-08-16_08h46.41.042,HF_wild_card,2022.2.4,Win32,59.95203837,63f79eb498a9401ce52a9fe1,64d2fd46c836a06233681665,64dc7ebf96ba187eefe1fcec,,,,,,,decisionTrl,resources/DBN.BMP,resources/DR.BMP,Door4,-0.207407407,0.012962963,1,0,0,0.482,optionLeft,60,445,1,7,0,7,0,1,,,,,,,,,,,,,,,,,,,,,,,,,,,,,,,,,,,,,,,
,,,,,,,,2023-08-16_08h46.41.042,HF_wild_card,2022.2.4,Win32,59.95203837,63f79eb498a9401ce52a9fe1,64d2fd46c836a06233681665,64dc7ebf96ba187eefe1fcec,,,,,,,sngl,resources/DBN.BMP,resources/Empty.png,Door4,-0.216666667,0.009259259,1,0,0,0.631,optionLeft,80,525,1,8,0,8,0,1,,,,,,,,,,,,,,,,,,,,,,,,,,,,,,,,,,,,,,,
,,,,,,,,2023-08-16_08h46.41.042,HF_wild_card,2022.2.4,Win32,59.95203837,63f79eb498a9401ce52a9fe1,64d2fd46c836a06233681665,64dc7ebf96ba187eefe1fcec,,,,,,,decisionTrl,resources/DG.BMP,resources/DY.BMP,Door1,0.510185185,-0.02037037,1,0,0,0.315,optionRight,30,555,1,9,0,9,0,1,,,,,,,,,,,,,,,,,,,,,,,,,,,,,,,,,,,,,,,
,,,,,,,,2023-08-16_08h46.41.042,HF_wild_card,2022.2.4,Win32,59.95203837,63f79eb498a9401ce52a9fe1,64d2fd46c836a06233681665,64dc7ebf96ba187eefe1fcec,,,,,,,ctch,resources/DP.BMP,resources/DG.BMP,Door3,-0.296296296,0.010185185,1,0,0,0.265,optionLeft,70,625,1,10,0,10,0,1,,,,,,,,,,,,,,,,,,,,,,,,,,,,,,,,,,,,,,,
,,,,,,,,2023-08-16_08h46.41.042,HF_wild_card,2022.2.4,Win32,59.95203837,63f79eb498a9401ce52a9fe1,64d2fd46c836a06233681665,64dc7ebf96ba187eefe1fcec,,,,,,,sngl,resources/DY.BMP,resources/Empty.png,Door1,0.424074074,-0.012962963,1,0,0,0.265,optionLeft,30,655,1,11,0,11,0,1,,,,,,,,,,,,,,,,,,,,,,,,,,,,,,,,,,,,,,,
,,,,,,,,2023-08-16_08h46.41.042,HF_wild_card,2022.2.4,Win32,59.95203837,63f79eb498a9401ce52a9fe1,64d2fd46c836a06233681665,64dc7ebf96ba187eefe1fcec,,,,,,,decisionTrl,resources/DR.BMP,resources/DY.BMP,Door1,0.481481481,-0.006481481,1,0,0,0.282,optionRight,30,685,1,12,0,12,0,1,,,,,,,,,,,,,,,,,,,,,,,,,,,,,,,,,,,,,,,
,,,,,,,,2023-08-16_08h46.41.042,HF_wild_card,2022.2.4,Win32,59.95203837,63f79eb498a9401ce52a9fe1,64d2fd46c836a06233681665,64dc7ebf96ba187eefe1fcec,,,,,,,sngl,resources/Empty.png,resources/DR.BMP,WildCard_NonEx,0.25462963,-0.015740741,1,0,0,0.432,optionRight,45,730,1,13,0,13,0,1,,,,,,,,,,,,,,,,,,,,,,,,,,,,,,,,,,,,,,,
,,,,,,,,2023-08-16_08h46.41.042,HF_wild_card,2022.2.4,Win32,59.95203837,63f79eb498a9401ce52a9fe1,64d2fd46c836a06233681665,64dc7ebf96ba187eefe1fcec,,,,,,,decisionTrl,resources/DP.BMP,resources/DR.BMP,WildCard_NonEx,0.336111111,-0.062962963,1,0,0,0.598,optionRight,45,775,1,14,0,14,0,1,,,,,,,,,,,,,,,,,,,,,,,,,,,,,,,,,,,,,,,
,,,,,,,,2023-08-16_08h46.41.042,HF_wild_card,2022.2.4,Win32,59.95203837,63f79eb498a9401ce52a9fe1,64d2fd46c836a06233681665,64dc7ebf96ba187eefe1fcec,,,,,,,decisionTrl,resources/DR.BMP,resources/DG.BMP,WildCard_NonEx,-0.232407407,0.031481481,1,0,0,0.465,optionLeft,45,820,1,15,0,15,0,1,,,,,,,,,,,,,,,,,,,,,,,,,,,,,,,,,,,,,,,
,,,,,,,,2023-08-16_08h46.41.042,HF_wild_card,2022.2.4,Win32,59.95203837,63f79eb498a9401ce52a9fe1,64d2fd46c836a06233681665,64dc7ebf96ba187eefe1fcec,,,,,,,sngl,resources/Empty.png,resources/DY.BMP,Door1,0.301851852,0.015740741,1,0,0,0.415,optionRight,30,850,1,16,0,16,0,1,,,,,,,,,,,,,,,,,,,,,,,,,,,,,,,,,,,,,,,
,,,,,,,,2023-08-16_08h46.41.042,HF_wild_card,2022.2.4,Win32,59.95203837,63f79eb498a9401ce52a9fe1,64d2fd46c836a06233681665,64dc7ebf96ba187eefe1fcec,,,,,,,ctch,resources/DG.BMP,resources/DP.BMP,Door3,0.325,-0.026851852,1,0,0,0.632,optionRight,70,920,1,17,0,17,0,1,,,,,,,,,,,,,,,,,,,,,,,,,,,,,,,,,,,,,,,
,,,,,,,,2023-08-16_08h46.41.042,HF_wild_card,2022.2.4,Win32,59.95203837,63f79eb498a9401ce52a9fe1,64d2fd46c836a06233681665,64dc7ebf96ba187eefe1fcec,,,,,,,sngl,resources/Empty.png,resources/DG.BMP,Door2,0.274074074,0.022222222,1,0,0,0.499,optionRight,20,940,1,18,0,18,0,1,,,,,,,,,,,,,,,,,,,,,,,,,,,,,,,,,,,,,,,
,,,,,,,,2023-08-16_08h46.41.042,HF_wild_card,2022.2.4,Win32,59.95203837,63f79eb498a9401ce52a9fe1,64d2fd46c836a06233681665,64dc7ebf96ba187eefe1fcec,,,,,,,sngl,resources/DR.BMP,resources/Empty.png,WildCard_NonEx,-0.213888889,0.005555556,1,0,0,0.498,optionLeft,45,985,1,19,0,19,0,1,,,,,,,,,,,,,,,,,,,,,,,,,,,,,,,,,,,,,,,
,,,,,,,,2023-08-16_08h46.41.042,HF_wild_card,2022.2.4,Win32,59.95203837,63f79eb498a9401ce52a9fe1,64d2fd46c836a06233681665,64dc7ebf96ba187eefe1fcec,,,,,,,ctch,resources/DY.BMP,resources/DBN.BMP,Door4,0.384259259,-0.010185185,1,0,0,0.582,optionRight,80,1065,1,20,0,20,0,1,,,,,,,,,,,,,,,,,,,,,,,,,,,,,,,,,,,,,,,
,,,,,,,,2023-08-16_08h46.41.042,HF_wild_card,2022.2.4,Win32,59.95203837,63f79eb498a9401ce52a9fe1,64d2fd46c836a06233681665,64dc7ebf96ba187eefe1fcec,,,,,,,decisionTrl,resources/DP.BMP,resources/DBN.BMP,Door4,0.292592593,0.030555556,1,0,0,0.466,optionRight,80,1145,1,21,0,21,0,1,,,,,,,,,,,,,,,,,,,,,,,,,,,,,,,,,,,,,,,
,,,,,,,,2023-08-16_08h46.41.042,HF_wild_card,2022.2.4,Win32,59.95203837,63f79eb498a9401ce52a9fe1,64d2fd46c836a06233681665,64dc7ebf96ba187eefe1fcec,,,,,,,decisionTrl,resources/DY.BMP,resources/DG.BMP,Door2,0.417592593,0.012037037,1,0,0,1.413,optionRight,20,1165,1,22,0,22,0,1,,,,,,,,,,,,,,,,,,,,,,,,,,,,,,,,,,,,,,,
,,,,,,,,2023-08-16_08h46.41.042,HF_wild_card,2022.2.4,Win32,59.95203837,63f79eb498a9401ce52a9fe1,64d2fd46c836a06233681665,64dc7ebf96ba187eefe1fcec,,,,,,,sngl,resources/DG.BMP,resources/Empty.png,Door2,-0.237962963,0.032407407,1,0,0,0.431,optionLeft,40,1205,1,23,0,23,0,1,,,,,,,,,,,,,,,,,,,,,,,,,,,,,,,,,,,,,,,
,,,,,,,,2023-08-16_08h46.41.042,HF_wild_card,2022.2.4,Win32,59.95203837,63f79eb498a9401ce52a9fe1,64d2fd46c836a06233681665,64dc7ebf96ba187eefe1fcec,,,,,,,ctch,resources/DG.BMP,resources/DP.BMP,Door2,-0.252777778,0.062962963,1,0,0,0.682,optionLeft,20,1225,1,24,0,24,0,1,,,,,,,,,,,,,,,,,,,,,,,,,,,,,,,,,,,,,,,
,,,,,,,,2023-08-16_08h46.41.042,HF_wild_card,2022.2.4,Win32,59.95203837,63f79eb498a9401ce52a9fe1,64d2fd46c836a06233681665,64dc7ebf96ba187eefe1fcec,,,,,,,ctch,resources/DBN.BMP,resources/DY.BMP,Door1,0.333333333,0.021296296,1,0,0,0.299,optionRight,30,1255,1,25,0,25,0,1,,,,,,,,,,,,,,,,,,,,,,,,,,,,,,,,,,,,,,,
,,,,,,,,2023-08-16_08h46.41.042,HF_wild_card,2022.2.4,Win32,59.95203837,63f79eb498a9401ce52a9fe1,64d2fd46c836a06233681665,64dc7ebf96ba187eefe1fcec,,,,,,,decisionTrl,resources/DP.BMP,resources/DBN.BMP,Door4,0.233333333,0.012962963,1,0,0,0.448,optionRight,80,1335,1,26,0,26,0,1,,,,,,,,,,,,,,,,,,,,,,,,,,,,,,,,,,,,,,,
,,,,,,,,2023-08-16_08h46.41.042,HF_wild_card,2022.2.4,Win32,59.95203837,63f79eb498a9401ce52a9fe1,64d2fd46c836a06233681665,64dc7ebf96ba187eefe1fcec,,,,,,,decisionTrl,resources/DG.BMP,resources/DR.BMP,Door2,-0.212037037,0.025925926,1,0,0,0.465,optionLeft,20,1355,1,27,0,27,0,1,,,,,,,,,,,,,,,,,,,,,,,,,,,,,,,,,,,,,,,
,,,,,,,,2023-08-16_08h46.41.042,HF_wild_card,2022.2.4,Win32,59.95203837,63f79eb498a9401ce52a9fe1,64d2fd46c836a06233681665,64dc7ebf96ba187eefe1fcec,,,,,,,sngl,resources/Empty.png,resources/DBN.BMP,Door4,0.280555556,0.018518519,1,0,0,0.432,optionRight,60,1415,1,28,0,28,0,1,,,,,,,,,,,,,,,,,,,,,,,,,,,,,,,,,,,,,,,
,,,,,,,,2023-08-16_08h46.41.042,HF_wild_card,2022.2.4,Win32,59.95203837,63f79eb498a9401ce52a9fe1,64d2fd46c836a06233681665,64dc7ebf96ba187eefe1fcec,,,,,,,decisionTrl,resources/DY.BMP,resources/DG.BMP,Door1,-0.306481481,0.04537037,1,0,0,0.449,optionLeft,30,1445,1,29,0,29,0,1,,,,,,,,,,,,,,,,,,,,,,,,,,,,,,,,,,,,,,,
,,,,,,,,2023-08-16_08h46.41.042,HF_wild_card,2022.2.4,Win32,59.95203837,63f79eb498a9401ce52a9fe1,64d2fd46c836a06233681665,64dc7ebf96ba187eefe1fcec,,,,,,,decisionTrl,resources/DR.BMP,resources/DP.BMP,WildCard_NonEx,-0.384259259,0.103703704,1,0,0,0.499,optionLeft,45,1490,1,30,0,30,0,1,,,,,,,,,,,,,,,,,,,,,,,,,,,,,,,,,,,,,,,
,,,,,,,,2023-08-16_08h46.41.042,HF_wild_card,2022.2.4,Win32,59.95203837,63f79eb498a9401ce52a9fe1,64d2fd46c836a06233681665,64dc7ebf96ba187eefe1fcec,,,,,,,decisionTrl,resources/DBN.BMP,resources/DP.BMP,Door4,-0.265740741,0.069444444,1,0,0,0.481,optionLeft,80,1570,1,31,0,31,0,1,,,,,,,,,,,,,,,,,,,,,,,,,,,,,,,,,,,,,,,
,,,,,,,,2023-08-16_08h46.41.042,HF_wild_card,2022.2.4,Win32,59.95203837,63f79eb498a9401ce52a9fe1,64d2fd46c836a06233681665,64dc7ebf96ba187eefe1fcec,,,,,,,decisionTrl,resources/DBN.BMP,resources/DP.BMP,Door4,-0.290740741,0.058333333,1,0,0,0.433,optionLeft,60,1630,1,32,0,32,0,1,,,,,,,,,,,,,,,,,,,,,,,,,,,,,,,,,,,,,,,
,,,,,,,,2023-08-16_08h46.41.042,HF_wild_card,2022.2.4,Win32,59.95203837,63f79eb498a9401ce52a9fe1,64d2fd46c836a06233681665,64dc7ebf96ba187eefe1fcec,,,,,,,sngl,resources/DR.BMP,resources/Empty.png,WildCard_NonEx,-0.143518519,0.049074074,1,0,0,0.615,optionLeft,55,1685,1,33,0,33,0,1,,,,,,,,,,,,,,,,,,,,,,,,,,,,,,,,,,,,,,,
,,,,,,,,2023-08-16_08h46.41.042,HF_wild_card,2022.2.4,Win32,59.95203837,63f79eb498a9401ce52a9fe1,64d2fd46c836a06233681665,64dc7ebf96ba187eefe1fcec,,,,,,,sngl,resources/DP.BMP,resources/Empty.png,Door3,-0.275,0.007407407,1,0,0,0.465,optionLeft,70,1755,1,34,0,34,0,1,,,,,,,,,,,,,,,,,,,,,,,,,,,,,,,,,,,,,,,
,,,,,,,,2023-08-16_08h46.41.042,HF_wild_card,2022.2.4,Win32,59.95203837,63f79eb498a9401ce52a9fe1,64d2fd46c836a06233681665,64dc7ebf96ba187eefe1fcec,,,,,,,decisionTrl,resources/DY.BMP,resources/DR.BMP,Door1,-0.218518519,0.042592593,1,0,0,0.365,optionLeft,30,1785,1,35,0,35,0,1,,,,,,,,,,,,,,,,,,,,,,,,,,,,,,,,,,,,,,,
,,,,,,,,2023-08-16_08h46.41.042,HF_wild_card,2022.2.4,Win32,59.95203837,63f79eb498a9401ce52a9fe1,64d2fd46c836a06233681665,64dc7ebf96ba187eefe1fcec,,,,,,,decisionTrl,resources/DP.BMP,resources/DBN.BMP,Door4,0.319444444,0.034259259,1,0,0,0.299,optionRight,80,1865,1,36,0,36,0,1,,,,,,,,,,,,,,,,,,,,,,,,,,,,,,,,,,,,,,,
,,,,,,,,2023-08-16_08h46.41.042,HF_wild_card,2022.2.4,Win32,59.95203837,63f79eb498a9401ce52a9fe1,64d2fd46c836a06233681665,64dc7ebf96ba187eefe1fcec,,,,,,,decisionTrl,resources/DBN.BMP,resources/DP.BMP,Door4,-0.249074074,0.02037037,1,0,0,0.416,optionLeft,60,1925,1,37,0,37,0,1,,,,,,,,,,,,,,,,,,,,,,,,,,,,,,,,,,,,,,,
,,,,,,,,2023-08-16_08h46.41.042,HF_wild_card,2022.2.4,Win32,59.95203837,63f79eb498a9401ce52a9fe1,64d2fd46c836a06233681665,64dc7ebf96ba187eefe1fcec,,,,,,,sngl,resources/Empty.png,resources/DP.BMP,Door3,0.251851852,0.042592593,1,0,0,0.416,optionRight,70,1995,1,38,0,38,0,1,,,,,,,,,,,,,,,,,,,,,,,,,,,,,,,,,,,,,,,
,,,,,,,,2023-08-16_08h46.41.042,HF_wild_card,2022.2.4,Win32,59.95203837,63f79eb498a9401ce52a9fe1,64d2fd46c836a06233681665,64dc7ebf96ba187eefe1fcec,,,,,,,decisionTrl,resources/DY.BMP,resources/DG.BMP,Door1,-0.165740741,0.035185185,1,0,0,0.362,optionLeft,30,2025,1,39,0,39,0,1,,,,,,,,,,,,,,,,,,,,,,,,,,,,,,,,,,,,,,,
,,,,,,,,2023-08-16_08h46.41.042,HF_wild_card,2022.2.4,Win32,59.95203837,63f79eb498a9401ce52a9fe1,64d2fd46c836a06233681665,64dc7ebf96ba187eefe1fcec,,,,,,,decisionTrl,resources/DG.BMP,resources/DY.BMP,Door2,-0.234259259,0.061111111,1,0,0,0.431,optionLeft,40,2065,1,40,0,40,0,1,,,,,,,,,,,,,,,,,,,,,,,,,,,,,,,,,,,,,,,
,,,,,,,,2023-08-16_08h46.41.042,HF_wild_card,2022.2.4,Win32,59.95203837,63f79eb498a9401ce52a9fe1,64d2fd46c836a06233681665,64dc7ebf96ba187eefe1fcec,,,,,,,ctch,resources/DY.BMP,resources/DBN.BMP,Door4,0.243518519,0.037037037,1,0,0,0.448,optionRight,60,2125,1,41,0,41,0,1,,,,,,,,,,,,,,,,,,,,,,,,,,,,,,,,,,,,,,,
,,,,,,,,2023-08-16_08h46.41.042,HF_wild_card,2022.2.4,Win32,59.95203837,63f79eb498a9401ce52a9fe1,64d2fd46c836a06233681665,64dc7ebf96ba187eefe1fcec,,,,,,,decisionTrl,resources/DG.BMP,resources/DY.BMP,Door1,0.215740741,0.007407407,1,0,0,0.449,optionRight,30,2155,1,42,0,42,0,1,,,,,,,,,,,,,,,,,,,,,,,,,,,,,,,,,,,,,,,
,,,,,,,,2023-08-16_08h46.41.042,HF_wild_card,2022.2.4,Win32,59.95203837,63f79eb498a9401ce52a9fe1,64d2fd46c836a06233681665,64dc7ebf96ba187eefe1fcec,,,,,,,ctch,resources/DBN.BMP,resources/DY.BMP,Door1,0.283333333,0.002777778,1,0,0,0.365,optionRight,30,2185,1,43,0,43,0,1,,,,,,,,,,,,,,,,,,,,,,,,,,,,,,,,,,,,,,,
,,,,,,,,2023-08-16_08h46.41.042,HF_wild_card,2022.2.4,Win32,59.95203837,63f79eb498a9401ce52a9fe1,64d2fd46c836a06233681665,64dc7ebf96ba187eefe1fcec,,,,,,,,,,,,,,,,,,,,,,,,,,0,0,0,0,1,,,,,,,,,,,,,,,,,,,,,,,,,,,,,,,,,,
,,,,,,,,2023-08-16_08h46.41.042,HF_wild_card,2022.2.4,Win32,59.95203837,63f79eb498a9401ce52a9fe1,64d2fd46c836a06233681665,64dc7ebf96ba187eefe1fcec,,,,,,,decisionTrl,resources/DP.BMP,resources/DBN.BMP,Door4,0.425,-0.006481481,1,0,0,0.53,optionRight,60,2245,2,0,0,0,0,1,,,,,,,,,,,,,,,,,,,,,,,,,,,,,,,,,,,,,,,
,,,,,,,,2023-08-16_08h46.41.042,HF_wild_card,2022.2.4,Win32,59.95203837,63f79eb498a9401ce52a9fe1,64d2fd46c836a06233681665,64dc7ebf96ba187eefe1fcec,,,,,,,decisionTrl,resources/DBN.BMP,resources/DP.BMP,Door4,-0.386111111,0.091666667,1,0,0,0.416,optionLeft,60,2305,2,1,0,1,0,1,,,,,,,,,,,,,,,,,,,,,,,,,,,,,,,,,,,,,,,
,,,,,,,,2023-08-16_08h46.41.042,HF_wild_card,2022.2.4,Win32,59.95203837,63f79eb498a9401ce52a9fe1,64d2fd46c836a06233681665,64dc7ebf96ba187eefe1fcec,,,,,,,decisionTrl,resources/DP.BMP,resources/DR.BMP,WildCard_NonEx,0.189814815,0.031481481,1,0,0,0.465,optionRight,55,2360,2,2,0,2,0,1,,,,,,,,,,,,,,,,,,,,,,,,,,,,,,,,,,,,,,,
,,,,,,,,2023-08-16_08h46.41.042,HF_wild_card,2022.2.4,Win32,59.95203837,63f79eb498a9401ce52a9fe1,64d2fd46c836a06233681665,64dc7ebf96ba187eefe1fcec,,,,,,,decisionTrl,resources/DG.BMP,resources/DY.BMP,Door2,-0.125925926,0.013888889,1,0,0,0.381,optionLeft,40,2400,2,3,0,3,0,1,,,,,,,,,,,,,,,,,,,,,,,,,,,,,,,,,,,,,,,
,,,,,,,,2023-08-16_08h46.41.042,HF_wild_card,2022.2.4,Win32,59.95203837,63f79eb498a9401ce52a9fe1,64d2fd46c836a06233681665,64dc7ebf96ba187eefe1fcec,,,,,,,sngl,resources/Empty.png,resources/DR.BMP,WildCard_NonEx,0.57037037,-0.024074074,1,0,0,0.415,optionRight,55,2455,2,4,0,4,0,1,,,,,,,,,,,,,,,,,,,,,,,,,,,,,,,,,,,,,,,
,,,,,,,,2023-08-16_08h46.41.042,HF_wild_card,2022.2.4,Win32,59.95203837,63f79eb498a9401ce52a9fe1,64d2fd46c836a06233681665,64dc7ebf96ba187eefe1fcec,,,,,,,ctch,resources/DP.BMP,resources/DG.BMP,Door3,-0.342592593,0.084259259,1,0,0,0.282,optionLeft,70,2525,2,5,0,5,0,1,,,,,,,,,,,,,,,,,,,,,,,,,,,,,,,,,,,,,,,
,,,,,,,,2023-08-16_08h46.41.042,HF_wild_card,2022.2.4,Win32,59.95203837,63f79eb498a9401ce52a9fe1,64d2fd46c836a06233681665,64dc7ebf96ba187eefe1fcec,,,,,,,decisionTrl,resources/DG.BMP,resources/DR.BMP,WildCard_NonEx,0.421296296,0,1,0,0,0.232,optionRight,55,2580,2,6,0,6,0,1,,,,,,,,,,,,,,,,,,,,,,,,,,,,,,,,,,,,,,,
,,,,,,,,2023-08-16_08h46.41.042,HF_wild_card,2022.2.4,Win32,59.95203837,63f79eb498a9401ce52a9fe1,64d2fd46c836a06233681665,64dc7ebf96ba187eefe1fcec,,,,,,,sngl,resources/Empty.png,resources/DG.BMP,Door2,0.284259259,0.000925926,1,0,0,0.399,optionRight,40,2620,2,7,0,7,0,1,,,,,,,,,,,,,,,,,,,,,,,,,,,,,,,,,,,,,,,
,,,,,,,,2023-08-16_08h46.41.042,HF_wild_card,2022.2.4,Win32,59.95203837,63f79eb498a9401ce52a9fe1,64d2fd46c836a06233681665,64dc7ebf96ba187eefe1fcec,,,,,,,ctch,resources/DBN.BMP,resources/DY.BMP,Door4,-0.253703704,0.041666667,1,0,0,0.349,optionLeft,80,2700,2,8,0,8,0,1,,,,,,,,,,,,,,,,,,,,,,,,,,,,,,,,,,,,,,,
,,,,,,,,2023-08-16_08h46.41.042,HF_wild_card,2022.2.4,Win32,59.95203837,63f79eb498a9401ce52a9fe1,64d2fd46c836a06233681665,64dc7ebf96ba187eefe1fcec,,,,,,,ctch,resources/DG.BMP,resources/DP.BMP,Door3,0.180555556,0.017592593,1,0,0,0.4,optionRight,70,2770,2,9,0,9,0,1,,,,,,,,,,,,,,,,,,,,,,,,,,,,,,,,,,,,,,,
,,,,,,,,2023-08-16_08h46.41.042,HF_wild_card,2022.2.4,Win32,59.95203837,63f79eb498a9401ce52a9fe1,64d2fd46c836a06233681665,64dc7ebf96ba187eefe1fcec,,,,,,,decisionTrl,resources/DY.BMP,resources/DG.BMP,Door1,-0.205555556,0.006481481,1,0,0,0.364,optionLeft,30,2800,2,10,0,10,0,1,,,,,,,,,,,,,,,,,,,,,,,,,,,,,,,,,,,,,,,
,,,,,,,,2023-08-16_08h46.41.042,HF_wild_card,2022.2.4,Win32,59.95203837,63f79eb498a9401ce52a9fe1,64d2fd46c836a06233681665,64dc7ebf96ba187eefe1fcec,,,,,,,decisionTrl,resources/DBN.BMP,resources/DP.BMP,Door4,-0.167592593,0.001851852,1,0,0,0.432,optionLeft,60,2860,2,11,0,11,0,1,,,,,,,,,,,,,,,,,,,,,,,,,,,,,,,,,,,,,,,
,,,,,,,,2023-08-16_08h46.41.042,HF_wild_card,2022.2.4,Win32,59.95203837,63f79eb498a9401ce52a9fe1,64d2fd46c836a06233681665,64dc7ebf96ba187eefe1fcec,,,,,,,sngl,resources/DR.BMP,resources/Empty.png,WildCard_NonEx,-0.261111111,0.065740741,1,0,0,0.415,optionLeft,55,2915,2,12,0,12,0,1,,,,,,,,,,,,,,,,,,,,,,,,,,,,,,,,,,,,,,,
,,,,,,,,2023-08-16_08h46.41.042,HF_wild_card,2022.2.4,Win32,59.95203837,63f79eb498a9401ce52a9fe1,64d2fd46c836a06233681665,64dc7ebf96ba187eefe1fcec,,,,,,,decisionTrl,resources/DP.BMP,resources/DBN.BMP,Door4,0.3,0.014814815,1,0,0,0.416,optionRight,60,2975,2,13,0,13,0,1,,,,,,,,,,,,,,,,,,,,,,,,,,,,,,,,,,,,,,,
,,,,,,,,2023-08-16_08h46.41.042,HF_wild_card,2022.2.4,Win32,59.95203837,63f79eb498a9401ce52a9fe1,64d2fd46c836a06233681665,64dc7ebf96ba187eefe1fcec,,,,,,,decisionTrl,resources/DG.BMP,resources/DY.BMP,Door2,-0.228703704,0.013888889,1,0,0,0.347,optionLeft,20,2995,2,14,0,14,0,1,,,,,,,,,,,,,,,,,,,,,,,,,,,,,,,,,,,,,,,
,,,,,,,,2023-08-16_08h46.41.042,HF_wild_card,2022.2.4,Win32,59.95203837,63f79eb498a9401ce52a9fe1,64d2fd46c836a06233681665,64dc7ebf96ba187eefe1fcec,,,,,,,sngl,resources/Empty.png,resources/DBN.BMP,Door4,0.250925926,0.018518519,1,0,0,0.349,optionRight,80,3075,2,15,0,15,0,1,,,,,,,,,,,,,,,,,,,,,,,,,,,,,,,,,,,,,,,
,,,,,,,,2023-08-16_08h46.41.042,HF_wild_card,2022.2.4,Win32,59.95203837,63f79eb498a9401ce52a9fe1,64d2fd46c836a06233681665,64dc7ebf96ba187eefe1fcec,,,,,,,decisionTrl,resources/DY.BMP,resources/DR.BMP,Door1,-0.183333333,0.021296296,1,0,0,0.381,optionLeft,30,3105,2,16,0,16,0,1,,,,,,,,,,,,,,,,,,,,,,,,,,,,,,,,,,,,,,,
,,,,,,,,2023-08-16_08h46.41.042,HF_wild_card,2022.2.4,Win32,59.95203837,63f79eb498a9401ce52a9fe1,64d2fd46c836a06233681665,64dc7ebf96ba187eefe1fcec,,,,,,,decisionTrl,resources/DR.BMP,resources/DG.BMP,Door2,0.186111111,0.012037037,1,0,0,0.348,optionRight,40,3145,2,17,0,17,0,1,,,,,,,,,,,,,,,,,,,,,,,,,,,,,,,,,,,,,,,
,,,,,,,,2023-08-16_08h46.41.042,HF_wild_card,2022.2.4,Win32,59.95203837,63f79eb498a9401ce52a9fe1,64d2fd46c836a06233681665,64dc7ebf96ba187eefe1fcec,,,,,,,ctch,resources/DY.BMP,resources/DBN.BMP,Door1,-0.175925926,-0.00462963,1,0,0,0.331,optionLeft,30,3175,2,18,0,18,0,1,,,,,,,,,,,,,,,,,,,,,,,,,,,,,,,,,,,,,,,
,,,,,,,,2023-08-16_08h46.41.042,HF_wild_card,2022.2.4,Win32,59.95203837,63f79eb498a9401ce52a9fe1,64d2fd46c836a06233681665,64dc7ebf96ba187eefe1fcec,,,,,,,ctch,resources/DP.BMP,resources/DG.BMP,Door2,0.238888889,0.016666667,1,0,0,0.381,optionRight,40,3215,2,19,0,19,0,1,,,,,,,,,,,,,,,,,,,,,,,,,,,,,,,,,,,,,,,
,,,,,,,,2023-08-16_08h46.41.042,HF_wild_card,2022.2.4,Win32,59.95203837,63f79eb498a9401ce52a9fe1,64d2fd46c836a06233681665,64dc7ebf96ba187eefe1fcec,,,,,,,sngl,resources/DR.BMP,resources/Empty.png,WildCard_NonEx,-0.272222222,0.084259259,1,0,0,0.399,optionLeft,45,3260,2,20,0,20,0,1,,,,,,,,,,,,,,,,,,,,,,,,,,,,,,,,,,,,,,,
,,,,,,,,2023-08-16_08h46.41.042,HF_wild_card,2022.2.4,Win32,59.95203837,63f79eb498a9401ce52a9fe1,64d2fd46c836a06233681665,64dc7ebf96ba187eefe1fcec,,,,,,,decisionTrl,resources/DP.BMP,resources/DBN.BMP,Door4,0.276851852,0.040740741,1,0,0,0.332,optionRight,80,3340,2,21,0,21,0,1,,,,,,,,,,,,,,,,,,,,,,,,,,,,,,,,,,,,,,,
,,,,,,,,2023-08-16_08h46.41.042,HF_wild_card,2022.2.4,Win32,59.95203837,63f79eb498a9401ce52a9fe1,64d2fd46c836a06233681665,64dc7ebf96ba187eefe1fcec,,,,,,,decisionTrl,resources/DY.BMP,resources/DG.BMP,Door2,0.288888889,-0.019444444,1,0,0,0.465,optionRight,20,3360,2,22,0,22,0,1,,,,,,,,,,,,,,,,,,,,,,,,,,,,,,,,,,,,,,,
,,,,,,,,2023-08-16_08h46.41.042,HF_wild_card,2022.2.4,Win32,59.95203837,63f79eb498a9401ce52a9fe1,64d2fd46c836a06233681665,64dc7ebf96ba187eefe1fcec,,,,,,,decisionTrl,resources/DY.BMP,resources/DG.BMP,Door1,-0.142592593,0.025925926,1,0,0,0.481,optionLeft,30,3390,2,23,0,23,0,1,,,,,,,,,,,,,,,,,,,,,,,,,,,,,,,,,,,,,,,
,,,,,,,,2023-08-16_08h46.41.042,HF_wild_card,2022.2.4,Win32,59.95203837,63f79eb498a9401ce52a9fe1,64d2fd46c836a06233681665,64dc7ebf96ba187eefe1fcec,,,,,,,sngl,resources/Empty.png,resources/DY.BMP,Door1,0.232407407,0.006481481,1,0,0,0.399,optionRight,30,3420,2,24,0,24,0,1,,,,,,,,,,,,,,,,,,,,,,,,,,,,,,,,,,,,,,,
,,,,,,,,2023-08-16_08h46.41.042,HF_wild_card,2022.2.4,Win32,59.95203837,63f79eb498a9401ce52a9fe1,64d2fd46c836a06233681665,64dc7ebf96ba187eefe1fcec,,,,,,,decisionTrl,resources/DY.BMP,resources/DG.BMP,Door2,0.211111111,-0.019444444,1,0,0,0.399,optionRight,20,3440,2,25,0,25,0,1,,,,,,,,,,,,,,,,,,,,,,,,,,,,,,,,,,,,,,,
,,,,,,,,2023-08-16_08h46.41.042,HF_wild_card,2022.2.4,Win32,59.95203837,63f79eb498a9401ce52a9fe1,64d2fd46c836a06233681665,64dc7ebf96ba187eefe1fcec,,,,,,,decisionTrl,resources/DP.BMP,resources/DBN.BMP,Door4,0.149074074,0.021296296,1,0,0,0.949,optionRight,80,3520,2,26,0,26,0,1,,,,,,,,,,,,,,,,,,,,,,,,,,,,,,,,,,,,,,,
,,,,,,,,2023-08-16_08h46.41.042,HF_wild_card,2022.2.4,Win32,59.95203837,63f79eb498a9401ce52a9fe1,64d2fd46c836a06233681665,64dc7ebf96ba187eefe1fcec,,,,,,,ctch,resources/DG.BMP,resources/DP.BMP,Door3,0.290740741,0.005555556,1,0,0,0.564,optionRight,70,3590,2,27,0,27,0,1,,,,,,,,,,,,,,,,,,,,,,,,,,,,,,,,,,,,,,,
,,,,,,,,2023-08-16_08h46.41.042,HF_wild_card,2022.2.4,Win32,59.95203837,63f79eb498a9401ce52a9fe1,64d2fd46c836a06233681665,64dc7ebf96ba187eefe1fcec,,,,,,,decisionTrl,resources/DG.BMP,resources/DY.BMP,Door1,0.201851852,-0.010185185,1,0,0,0.465,optionRight,30,3620,2,28,0,28,0,1,,,,,,,,,,,,,,,,,,,,,,,,,,,,,,,,,,,,,,,
,,,,,,,,2023-08-16_08h46.41.042,HF_wild_card,2022.2.4,Win32,59.95203837,63f79eb498a9401ce52a9fe1,64d2fd46c836a06233681665,64dc7ebf96ba187eefe1fcec,,,,,,,decisionTrl,resources/DR.BMP,resources/DBN.BMP,Door4,0.206481481,0,1,0,0,0.449,optionRight,60,3680,2,29,0,29,0,1,,,,,,,,,,,,,,,,,,,,,,,,,,,,,,,,,,,,,,,
,,,,,,,,2023-08-16_08h46.41.042,HF_wild_card,2022.2.4,Win32,59.95203837,63f79eb498a9401ce52a9fe1,64d2fd46c836a06233681665,64dc7ebf96ba187eefe1fcec,,,,,,,ctch,resources/DBN.BMP,resources/DY.BMP,Door4,-0.435185185,0.043518519,1,0,0,0.615,optionLeft,80,3760,2,30,0,30,0,1,,,,,,,,,,,,,,,,,,,,,,,,,,,,,,,,,,,,,,,
,,,,,,,,2023-08-16_08h46.41.042,HF_wild_card,2022.2.4,Win32,59.95203837,63f79eb498a9401ce52a9fe1,64d2fd46c836a06233681665,64dc7ebf96ba187eefe1fcec,,,,,,,decisionTrl,resources/DBN.BMP,resources/DP.BMP,Door4,-0.230555556,0.044444444,1,0,0,0.449,optionLeft,80,3840,2,31,0,31,0,1,,,,,,,,,,,,,,,,,,,,,,,,,,,,,,,,,,,,,,,
,,,,,,,,2023-08-16_08h46.41.042,HF_wild_card,2022.2.4,Win32,59.95203837,63f79eb498a9401ce52a9fe1,64d2fd46c836a06233681665,64dc7ebf96ba187eefe1fcec,,,,,,,ctch,resources/DY.BMP,resources/DBN.BMP,Door4,0.217592593,0.035185185,1,0,0,0.466,optionRight,60,3900,2,32,0,32,0,1,,,,,,,,,,,,,,,,,,,,,,,,,,,,,,,,,,,,,,,
,,,,,,,,2023-08-16_08h46.41.042,HF_wild_card,2022.2.4,Win32,59.95203837,63f79eb498a9401ce52a9fe1,64d2fd46c836a06233681665,64dc7ebf96ba187eefe1fcec,,,,,,,decisionTrl,resources/DBN.BMP,resources/DP.BMP,Door4,-0.223148148,0.028703704,1,0,0,0.482,optionLeft,60,3960,2,33,0,33,0,1,,,,,,,,,,,,,,,,,,,,,,,,,,,,,,,,,,,,,,,
,,,,,,,,2023-08-16_08h46.41.042,HF_wild_card,2022.2.4,Win32,59.95203837,63f79eb498a9401ce52a9fe1,64d2fd46c836a06233681665,64dc7ebf96ba187eefe1fcec,,,,,,,sngl,resources/DG.BMP,resources/Empty.png,Door2,-0.186111111,0.005555556,1,0,0,0.549,optionLeft,20,3980,2,34,0,34,0,1,,,,,,,,,,,,,,,,,,,,,,,,,,,,,,,,,,,,,,,
,,,,,,,,2023-08-16_08h46.41.042,HF_wild_card,2022.2.4,Win32,59.95203837,63f79eb498a9401ce52a9fe1,64d2fd46c836a06233681665,64dc7ebf96ba187eefe1fcec,,,,,,,decisionTrl,resources/DG.BMP,resources/DY.BMP,Door2,-0.213888889,0.012962963,1,0,0,0.666,optionLeft,20,4000,2,35,0,35,0,1,,,,,,,,,,,,,,,,,,,,,,,,,,,,,,,,,,,,,,,
,,,,,,,,2023-08-16_08h46.41.042,HF_wild_card,2022.2.4,Win32,59.95203837,63f79eb498a9401ce52a9fe1,64d2fd46c836a06233681665,64dc7ebf96ba187eefe1fcec,,,,,,,decisionTrl,resources/DR.BMP,resources/DY.BMP,Door1,0.24537037,-0.012962963,1,0,0,0.616,optionRight,30,4030,2,36,0,36,0,1,,,,,,,,,,,,,,,,,,,,,,,,,,,,,,,,,,,,,,,
,,,,,,,,2023-08-16_08h46.41.042,HF_wild_card,2022.2.4,Win32,59.95203837,63f79eb498a9401ce52a9fe1,64d2fd46c836a06233681665,64dc7ebf96ba187eefe1fcec,,,,,,,decisionTrl,resources/DR.BMP,resources/DP.BMP,Door3,0.224074074,-0.005555556,1,0,0,0.681,optionRight,70,4100,2,37,0,37,0,1,,,,,,,,,,,,,,,,,,,,,,,,,,,,,,,,,,,,,,,
,,,,,,,,2023-08-16_08h46.41.042,HF_wild_card,2022.2.4,Win32,59.95203837,63f79eb498a9401ce52a9fe1,64d2fd46c836a06233681665,64dc7ebf96ba187eefe1fcec,,,,,,,sngl,resources/DY.BMP,resources/Empty.png,Door1,-0.216666667,0.034259259,1,0,0,0.449,optionLeft,30,4130,2,38,0,38,0,1,,,,,,,,,,,,,,,,,,,,,,,,,,,,,,,,,,,,,,,
,,,,,,,,2023-08-16_08h46.41.042,HF_wild_card,2022.2.4,Win32,59.95203837,63f79eb498a9401ce52a9fe1,64d2fd46c836a06233681665,64dc7ebf96ba187eefe1fcec,,,,,,,decisionTrl,resources/DBN.BMP,resources/DR.BMP,Door4,-0.216666667,0.030555556,1,0,0,0.499,optionLeft,60,4190,2,39,0,39,0,1,,,,,,,,,,,,,,,,,,,,,,,,,,,,,,,,,,,,,,,
,,,,,,,,2023-08-16_08h46.41.042,HF_wild_card,2022.2.4,Win32,59.95203837,63f79eb498a9401ce52a9fe1,64d2fd46c836a06233681665,64dc7ebf96ba187eefe1fcec,,,,,,,sngl,resources/DBN.BMP,resources/Empty.png,Door4,-0.264814815,0.043518519,1,0,0,0.45,optionLeft,60,4250,2,40,0,40,0,1,,,,,,,,,,,,,,,,,,,,,,,,,,,,,,,,,,,,,,,
,,,,,,,,2023-08-16_08h46.41.042,HF_wild_card,2022.2.4,Win32,59.95203837,63f79eb498a9401ce52a9fe1,64d2fd46c836a06233681665,64dc7ebf96ba187eefe1fcec,,,,,,,sngl,resources/DP.BMP,resources/Empty.png,Door3,-0.186111111,0.018518519,1,0,0,0.515,optionLeft,70,4320,2,41,0,41,0,1,,,,,,,,,,,,,,,,,,,,,,,,,,,,,,,,,,,,,,,
,,,,,,,,2023-08-16_08h46.41.042,HF_wild_card,2022.2.4,Win32,59.95203837,63f79eb498a9401ce52a9fe1,64d2fd46c836a06233681665,64dc7ebf96ba187eefe1fcec,,,,,,,sngl,resources/Empty.png,resources/DR.BMP,WildCard_NonEx,0.236111111,0.030555556,1,0,0,0.464,optionRight,45,4365,2,42,0,42,0,1,,,,,,,,,,,,,,,,,,,,,,,,,,,,,,,,,,,,,,,
,,,,,,,,2023-08-16_08h46.41.042,HF_wild_card,2022.2.4,Win32,59.95203837,63f79eb498a9401ce52a9fe1,64d2fd46c836a06233681665,64dc7ebf96ba187eefe1fcec,,,,,,,sngl,resources/Empty.png,resources/DP.BMP,Door3,0.24537037,0.012037037,1,0,0,0.466,optionRight,70,4435,2,43,0,43,0,1,,,,,,,,,,,,,,,,,,,,,,,,,,,,,,,,,,,,,,,
,,,,,,,,2023-08-16_08h46.41.042,HF_wild_card,2022.2.4,Win32,59.95203837,63f79eb498a9401ce52a9fe1,64d2fd46c836a06233681665,64dc7ebf96ba187eefe1fcec,,,,,,,,,,,,,,,,,,,,,,,,,,1,0,1,0,1,,,,,,,,,,,,,,,,,,,,,,,,,,,,,,,,,,
,,,,,,,,2023-08-16_08h46.41.042,HF_wild_card,2022.2.4,Win32,59.95203837,63f79eb498a9401ce52a9fe1,64d2fd46c836a06233681665,64dc7ebf96ba187eefe1fcec,,,,,,,decisionTrl,resources/DG.BMP,resources/DY.BMP,Door1,0.275925926,-0.031481481,1,0,0,0.613,optionRight,30,4465,3,0,0,0,0,1,,,,,,,,,,,,,,,,,,,,,,,,,,,,,,,,,,,,,,,
,,,,,,,,2023-08-16_08h46.41.042,HF_wild_card,2022.2.4,Win32,59.95203837,63f79eb498a9401ce52a9fe1,64d2fd46c836a06233681665,64dc7ebf96ba187eefe1fcec,,,,,,,decisionTrl,resources/DR.BMP,resources/DY.BMP,Door1,0.212962963,-0.024074074,1,0,0,0.582,optionRight,30,4495,3,1,0,1,0,1,,,,,,,,,,,,,,,,,,,,,,,,,,,,,,,,,,,,,,,
,,,,,,,,2023-08-16_08h46.41.042,HF_wild_card,2022.2.4,Win32,59.95203837,63f79eb498a9401ce52a9fe1,64d2fd46c836a06233681665,64dc7ebf96ba187eefe1fcec,,,,,,,ctch,resources/DP.BMP,resources/DG.BMP,Door3,-0.243518519,0.023148148,1,0,0,0.799,optionLeft,70,4565,3,2,0,2,0,1,,,,,,,,,,,,,,,,,,,,,,,,,,,,,,,,,,,,,,,
,,,,,,,,2023-08-16_08h46.41.042,HF_wild_card,2022.2.4,Win32,59.95203837,63f79eb498a9401ce52a9fe1,64d2fd46c836a06233681665,64dc7ebf96ba187eefe1fcec,,,,,,,sngl,resources/DBN.BMP,resources/Empty.png,Door4,-0.184259259,0.023148148,1,0,0,0.465,optionLeft,80,4645,3,3,0,3,0,1,,,,,,,,,,,,,,,,,,,,,,,,,,,,,,,,,,,,,,,
,,,,,,,,2023-08-16_08h46.41.042,HF_wild_card,2022.2.4,Win32,59.95203837,63f79eb498a9401ce52a9fe1,64d2fd46c836a06233681665,64dc7ebf96ba187eefe1fcec,,,,,,,sngl,resources/DY.BMP,resources/Empty.png,Door1,-0.130555556,0.009259259,1,0,0,0.499,optionLeft,30,4675,3,4,0,4,0,1,,,,,,,,,,,,,,,,,,,,,,,,,,,,,,,,,,,,,,,
,,,,,,,,2023-08-16_08h46.41.042,HF_wild_card,2022.2.4,Win32,59.95203837,63f79eb498a9401ce52a9fe1,64d2fd46c836a06233681665,64dc7ebf96ba187eefe1fcec,,,,,,,sngl,resources/DP.BMP,resources/Empty.png,Door3,-0.275,0.039814815,1,0,0,0.481,optionLeft,70,4745,3,5,0,5,0,1,,,,,,,,,,,,,,,,,,,,,,,,,,,,,,,,,,,,,,,
,,,,,,,,2023-08-16_08h46.41.042,HF_wild_card,2022.2.4,Win32,59.95203837,63f79eb498a9401ce52a9fe1,64d2fd46c836a06233681665,64dc7ebf96ba187eefe1fcec,,,,,,,decisionTrl,resources/DR.BMP,resources/DBN.BMP,Door4,0.277777778,0.021296296,1,0,0,0.465,optionRight,60,4805,3,6,0,6,0,1,,,,,,,,,,,,,,,,,,,,,,,,,,,,,,,,,,,,,,,
,,,,,,,,2023-08-16_08h46.41.042,HF_wild_card,2022.2.4,Win32,59.95203837,63f79eb498a9401ce52a9fe1,64d2fd46c836a06233681665,64dc7ebf96ba187eefe1fcec,,,,,,,decisionTrl,resources/DY.BMP,resources/DG.BMP,Door1,-0.187962963,0.012962963,1,0,0,0.615,optionLeft,30,4835,3,7,0,7,0,1,,,,,,,,,,,,,,,,,,,,,,,,,,,,,,,,,,,,,,,
,,,,,,,,2023-08-16_08h46.41.042,HF_wild_card,2022.2.4,Win32,59.95203837,63f79eb498a9401ce52a9fe1,64d2fd46c836a06233681665,64dc7ebf96ba187eefe1fcec,,,,,,,decisionTrl,resources/DY.BMP,resources/DG.BMP,Door2,0.196296296,0.032407407,1,0,0,0.633,optionRight,40,4875,3,8,0,8,0,1,,,,,,,,,,,,,,,,,,,,,,,,,,,,,,,,,,,,,,,
,,,,,,,,2023-08-16_08h46.41.042,HF_wild_card,2022.2.4,Win32,59.95203837,63f79eb498a9401ce52a9fe1,64d2fd46c836a06233681665,64dc7ebf96ba187eefe1fcec,,,,,,,sngl,resources/Empty.png,resources/DBN.BMP,Door4,0.380555556,-0.038888889,1,0,0,0.45,optionRight,60,4935,3,9,0,9,0,1,,,,,,,,,,,,,,,,,,,,,,,,,,,,,,,,,,,,,,,
,,,,,,,,2023-08-16_08h46.41.042,HF_wild_card,2022.2.4,Win32,59.95203837,63f79eb498a9401ce52a9fe1,64d2fd46c836a06233681665,64dc7ebf96ba187eefe1fcec,,,,,,,decisionTrl,resources/DP.BMP,resources/DBN.BMP,Door4,0.235185185,0.047222222,1,0,0,0.481,optionRight,60,4995,3,10,0,10,0,1,,,,,,,,,,,,,,,,,,,,,,,,,,,,,,,,,,,,,,,
,,,,,,,,2023-08-16_08h46.41.042,HF_wild_card,2022.2.4,Win32,59.95203837,63f79eb498a9401ce52a9fe1,64d2fd46c836a06233681665,64dc7ebf96ba187eefe1fcec,,,,,,,decisionTrl,resources/DG.BMP,resources/DR.BMP,WildCard_NonEx,0.25,0.067592593,1,0,0,0.533,optionRight,45,5040,3,11,0,11,0,1,,,,,,,,,,,,,,,,,,,,,,,,,,,,,,,,,,,,,,,
,,,,,,,,2023-08-16_08h46.41.042,HF_wild_card,2022.2.4,Win32,59.95203837,63f79eb498a9401ce52a9fe1,64d2fd46c836a06233681665,64dc7ebf96ba187eefe1fcec,,,,,,,decisionTrl,resources/DBN.BMP,resources/DP.BMP,Door4,-0.212037037,0,1,0,0,0.516,optionLeft,80,5120,3,12,0,12,0,1,,,,,,,,,,,,,,,,,,,,,,,,,,,,,,,,,,,,,,,
,,,,,,,,2023-08-16_08h46.41.042,HF_wild_card,2022.2.4,Win32,59.95203837,63f79eb498a9401ce52a9fe1,64d2fd46c836a06233681665,64dc7ebf96ba187eefe1fcec,,,,,,,sngl,resources/Empty.png,resources/DY.BMP,Door1,0.242592593,0,1,0,0,0.432,optionRight,30,5150,3,13,0,13,0,1,,,,,,,,,,,,,,,,,,,,,,,,,,,,,,,,,,,,,,,
,,,,,,,,2023-08-16_08h46.41.042,HF_wild_card,2022.2.4,Win32,59.95203837,63f79eb498a9401ce52a9fe1,64d2fd46c836a06233681665,64dc7ebf96ba187eefe1fcec,,,,,,,ctch,resources/DBN.BMP,resources/DY.BMP,Door4,-0.228703704,0.011111111,1,0,0,0.448,optionLeft,80,5230,3,14,0,14,0,1,,,,,,,,,,,,,,,,,,,,,,,,,,,,,,,,,,,,,,,
,,,,,,,,2023-08-16_08h46.41.042,HF_wild_card,2022.2.4,Win32,59.95203837,63f79eb498a9401ce52a9fe1,64d2fd46c836a06233681665,64dc7ebf96ba187eefe1fcec,,,,,,,decisionTrl,resources/DY.BMP,resources/DR.BMP,WildCard_NonEx,0.258333333,0.05462963,1,0,0,0.648,optionRight,45,5275,3,15,0,15,0,1,,,,,,,,,,,,,,,,,,,,,,,,,,,,,,,,,,,,,,,
,,,,,,,,2023-08-16_08h46.41.042,HF_wild_card,2022.2.4,Win32,59.95203837,63f79eb498a9401ce52a9fe1,64d2fd46c836a06233681665,64dc7ebf96ba187eefe1fcec,,,,,,,decisionTrl,resources/DR.BMP,resources/DG.BMP,WildCard_NonEx,-0.252777778,0.05,1,0,0,0.613,optionLeft,55,5330,3,16,0,16,0,1,,,,,,,,,,,,,,,,,,,,,,,,,,,,,,,,,,,,,,,
,,,,,,,,2023-08-16_08h46.41.042,HF_wild_card,2022.2.4,Win32,59.95203837,63f79eb498a9401ce52a9fe1,64d2fd46c836a06233681665,64dc7ebf96ba187eefe1fcec,,,,,,,decisionTrl,resources/DP.BMP,resources/DBN.BMP,Door4,0.302777778,0.012962963,1,0,0,0.482,optionRight,80,5410,3,17,0,17,0,1,,,,,,,,,,,,,,,,,,,,,,,,,,,,,,,,,,,,,,,
,,,,,,,,2023-08-16_08h46.41.042,HF_wild_card,2022.2.4,Win32,59.95203837,63f79eb498a9401ce52a9fe1,64d2fd46c836a06233681665,64dc7ebf96ba187eefe1fcec,,,,,,,sngl,resources/Empty.png,resources/DR.BMP,WildCard_NonEx,0.175925926,-0.018518519,1,0,0,0.448,optionRight,55,5465,3,18,0,18,0,1,,,,,,,,,,,,,,,,,,,,,,,,,,,,,,,,,,,,,,,
,,,,,,,,2023-08-16_08h46.41.042,HF_wild_card,2022.2.4,Win32,59.95203837,63f79eb498a9401ce52a9fe1,64d2fd46c836a06233681665,64dc7ebf96ba187eefe1fcec,,,,,,,ctch,resources/DG.BMP,resources/DP.BMP,Door3,0.248148148,0.053703704,1,0,0,0.566,optionRight,70,5535,3,19,0,19,0,1,,,,,,,,,,,,,,,,,,,,,,,,,,,,,,,,,,,,,,,
,,,,,,,,2023-08-16_08h46.41.042,HF_wild_card,2022.2.4,Win32,59.95203837,63f79eb498a9401ce52a9fe1,64d2fd46c836a06233681665,64dc7ebf96ba187eefe1fcec,,,,,,,decisionTrl,resources/DY.BMP,resources/DG.BMP,Door2,0.300925926,0.027777778,1,0,0,0.749,optionRight,20,5555,3,20,0,20,0,1,,,,,,,,,,,,,,,,,,,,,,,,,,,,,,,,,,,,,,,
,,,,,,,,2023-08-16_08h46.41.042,HF_wild_card,2022.2.4,Win32,59.95203837,63f79eb498a9401ce52a9fe1,64d2fd46c836a06233681665,64dc7ebf96ba187eefe1fcec,,,,,,,decisionTrl,resources/DP.BMP,resources/DR.BMP,Door3,-0.2,0.027777778,1,0,0,0.865,optionLeft,70,5625,3,21,0,21,0,1,,,,,,,,,,,,,,,,,,,,,,,,,,,,,,,,,,,,,,,
,,,,,,,,2023-08-16_08h46.41.042,HF_wild_card,2022.2.4,Win32,59.95203837,63f79eb498a9401ce52a9fe1,64d2fd46c836a06233681665,64dc7ebf96ba187eefe1fcec,,,,,,,ctch,resources/DP.BMP,resources/DG.BMP,Door3,-0.246296296,0.037037037,1,0,0,0.516,optionLeft,70,5695,3,22,0,22,0,1,,,,,,,,,,,,,,,,,,,,,,,,,,,,,,,,,,,,,,,
,,,,,,,,2023-08-16_08h46.41.042,HF_wild_card,2022.2.4,Win32,59.95203837,63f79eb498a9401ce52a9fe1,64d2fd46c836a06233681665,64dc7ebf96ba187eefe1fcec,,,,,,,sngl,resources/Empty.png,resources/DR.BMP,WildCard_NonEx,0.234259259,0.024074074,1,0,0,0.516,optionRight,45,5740,3,23,0,23,0,1,,,,,,,,,,,,,,,,,,,,,,,,,,,,,,,,,,,,,,,
,,,,,,,,2023-08-16_08h46.41.042,HF_wild_card,2022.2.4,Win32,59.95203837,63f79eb498a9401ce52a9fe1,64d2fd46c836a06233681665,64dc7ebf96ba187eefe1fcec,,,,,,,decisionTrl,resources/DBN.BMP,resources/DR.BMP,Door4,-0.175925926,-0.016666667,1,0,0,0.499,optionLeft,80,5820,3,24,0,24,0,1,,,,,,,,,,,,,,,,,,,,,,,,,,,,,,,,,,,,,,,
,,,,,,,,2023-08-16_08h46.41.042,HF_wild_card,2022.2.4,Win32,59.95203837,63f79eb498a9401ce52a9fe1,64d2fd46c836a06233681665,64dc7ebf96ba187eefe1fcec,,,,,,,ctch,resources/DBN.BMP,resources/DY.BMP,Door4,-0.163888889,-0.006481481,1,0,0,0.517,optionLeft,60,5880,3,25,0,25,0,1,,,,,,,,,,,,,,,,,,,,,,,,,,,,,,,,,,,,,,,
,,,,,,,,2023-08-16_08h46.41.042,HF_wild_card,2022.2.4,Win32,59.95203837,63f79eb498a9401ce52a9fe1,64d2fd46c836a06233681665,64dc7ebf96ba187eefe1fcec,,,,,,,sngl,resources/Empty.png,resources/DP.BMP,Door3,0.267592593,0.019444444,1,0,0,0.448,optionRight,70,5950,3,26,0,26,0,1,,,,,,,,,,,,,,,,,,,,,,,,,,,,,,,,,,,,,,,
,,,,,,,,2023-08-16_08h46.41.042,HF_wild_card,2022.2.4,Win32,59.95203837,63f79eb498a9401ce52a9fe1,64d2fd46c836a06233681665,64dc7ebf96ba187eefe1fcec,,,,,,,decisionTrl,resources/DR.BMP,resources/DP.BMP,Door3,0.272222222,0.032407407,1,0,0,0.481,optionRight,70,6020,3,27,0,27,0,1,,,,,,,,,,,,,,,,,,,,,,,,,,,,,,,,,,,,,,,
,,,,,,,,2023-08-16_08h46.41.042,HF_wild_card,2022.2.4,Win32,59.95203837,63f79eb498a9401ce52a9fe1,64d2fd46c836a06233681665,64dc7ebf96ba187eefe1fcec,,,,,,,decisionTrl,resources/DP.BMP,resources/DBN.BMP,Door4,0.441666667,0.033333333,1,0,0,0.748,optionRight,60,6080,3,28,0,28,0,1,,,,,,,,,,,,,,,,,,,,,,,,,,,,,,,,,,,,,,,
,,,,,,,,2023-08-16_08h46.41.042,HF_wild_card,2022.2.4,Win32,59.95203837,63f79eb498a9401ce52a9fe1,64d2fd46c836a06233681665,64dc7ebf96ba187eefe1fcec,,,,,,,decisionTrl,resources/DP.BMP,resources/DBN.BMP,Door3,-0.286111111,-0.022222222,1,0,0,0.849,optionLeft,70,6150,3,29,0,29,0,1,,,,,,,,,,,,,,,,,,,,,,,,,,,,,,,,,,,,,,,
,,,,,,,,2023-08-16_08h46.41.042,HF_wild_card,2022.2.4,Win32,59.95203837,63f79eb498a9401ce52a9fe1,64d2fd46c836a06233681665,64dc7ebf96ba187eefe1fcec,,,,,,,ctch,resources/DY.BMP,resources/DBN.BMP,Door4,0.217592593,0.024074074,1,0,0,0.498,optionRight,80,6230,3,30,0,30,0,1,,,,,,,,,,,,,,,,,,,,,,,,,,,,,,,,,,,,,,,
,,,,,,,,2023-08-16_08h46.41.042,HF_wild_card,2022.2.4,Win32,59.95203837,63f79eb498a9401ce52a9fe1,64d2fd46c836a06233681665,64dc7ebf96ba187eefe1fcec,,,,,,,sngl,resources/Empty.png,resources/DG.BMP,Door2,0.27962963,0.060185185,1,0,0,0.565,optionRight,20,6250,3,31,0,31,0,1,,,,,,,,,,,,,,,,,,,,,,,,,,,,,,,,,,,,,,,
,,,,,,,,2023-08-16_08h46.41.042,HF_wild_card,2022.2.4,Win32,59.95203837,63f79eb498a9401ce52a9fe1,64d2fd46c836a06233681665,64dc7ebf96ba187eefe1fcec,,,,,,,sngl,resources/DR.BMP,resources/Empty.png,WildCard_NonEx,-0.165740741,0.025925926,1,0,0,0.462,optionLeft,45,6295,3,32,0,32,0,1,,,,,,,,,,,,,,,,,,,,,,,,,,,,,,,,,,,,,,,
,,,,,,,,2023-08-16_08h46.41.042,HF_wild_card,2022.2.4,Win32,59.95203837,63f79eb498a9401ce52a9fe1,64d2fd46c836a06233681665,64dc7ebf96ba187eefe1fcec,,,,,,,ctch,resources/DG.BMP,resources/DP.BMP,Door3,0.313888889,0.050925926,1,0,0,0.449,optionRight,70,6365,3,33,0,33,0,1,,,,,,,,,,,,,,,,,,,,,,,,,,,,,,,,,,,,,,,
,,,,,,,,2023-08-16_08h46.41.042,HF_wild_card,2022.2.4,Win32,59.95203837,63f79eb498a9401ce52a9fe1,64d2fd46c836a06233681665,64dc7ebf96ba187eefe1fcec,,,,,,,decisionTrl,resources/DBN.BMP,resources/DP.BMP,Door3,0.185185185,0.044444444,1,0,0,0.432,optionRight,70,6435,3,34,0,34,0,1,,,,,,,,,,,,,,,,,,,,,,,,,,,,,,,,,,,,,,,
,,,,,,,,2023-08-16_08h46.41.042,HF_wild_card,2022.2.4,Win32,59.95203837,63f79eb498a9401ce52a9fe1,64d2fd46c836a06233681665,64dc7ebf96ba187eefe1fcec,,,,,,,decisionTrl,resources/DBN.BMP,resources/DP.BMP,Door3,0.153703704,0.037037037,1,0,0,0.465,optionRight,70,6505,3,35,0,35,0,1,,,,,,,,,,,,,,,,,,,,,,,,,,,,,,,,,,,,,,,
,,,,,,,,2023-08-16_08h46.41.042,HF_wild_card,2022.2.4,Win32,59.95203837,63f79eb498a9401ce52a9fe1,64d2fd46c836a06233681665,64dc7ebf96ba187eefe1fcec,,,,,,,decisionTrl,resources/DG.BMP,resources/DY.BMP,Door2,-0.250925926,-0.017592593,1,0,0,0.665,optionLeft,20,6525,3,36,0,36,0,1,,,,,,,,,,,,,,,,,,,,,,,,,,,,,,,,,,,,,,,
,,,,,,,,2023-08-16_08h46.41.042,HF_wild_card,2022.2.4,Win32,59.95203837,63f79eb498a9401ce52a9fe1,64d2fd46c836a06233681665,64dc7ebf96ba187eefe1fcec,,,,,,,decisionTrl,resources/DG.BMP,resources/DY.BMP,Door1,0.171296296,0.031481481,1,0,0,0.615,optionRight,30,6555,3,37,0,37,0,1,,,,,,,,,,,,,,,,,,,,,,,,,,,,,,,,,,,,,,,
,,,,,,,,2023-08-16_08h46.41.042,HF_wild_card,2022.2.4,Win32,59.95203837,63f79eb498a9401ce52a9fe1,64d2fd46c836a06233681665,64dc7ebf96ba187eefe1fcec,,,,,,,decisionTrl,resources/DBN.BMP,resources/DP.BMP,Door4,-0.22962963,0.031481481,1,0,0,0.564,optionLeft,80,6635,3,38,0,38,0,1,,,,,,,,,,,,,,,,,,,,,,,,,,,,,,,,,,,,,,,
,,,,,,,,2023-08-16_08h46.41.042,HF_wild_card,2022.2.4,Win32,59.95203837,63f79eb498a9401ce52a9fe1,64d2fd46c836a06233681665,64dc7ebf96ba187eefe1fcec,,,,,,,decisionTrl,resources/DG.BMP,resources/DY.BMP,Door1,0.292592593,0.028703704,1,0,0,0.566,optionRight,30,6665,3,39,0,39,0,1,,,,,,,,,,,,,,,,,,,,,,,,,,,,,,,,,,,,,,,
,,,,,,,,2023-08-16_08h46.41.042,HF_wild_card,2022.2.4,Win32,59.95203837,63f79eb498a9401ce52a9fe1,64d2fd46c836a06233681665,64dc7ebf96ba187eefe1fcec,,,,,,,decisionTrl,resources/DY.BMP,resources/DG.BMP,Door2,0.161111111,0.025,1,0,0,0.498,optionRight,20,6685,3,40,0,40,0,1,,,,,,,,,,,,,,,,,,,,,,,,,,,,,,,,,,,,,,,
,,,,,,,,2023-08-16_08h46.41.042,HF_wild_card,2022.2.4,Win32,59.95203837,63f79eb498a9401ce52a9fe1,64d2fd46c836a06233681665,64dc7ebf96ba187eefe1fcec,,,,,,,ctch,resources/DY.BMP,resources/DBN.BMP,Door4,0.222222222,0.025,1,0,0,0.483,optionRight,60,6745,3,41,0,41,0,1,,,,,,,,,,,,,,,,,,,,,,,,,,,,,,,,,,,,,,,
,,,,,,,,2023-08-16_08h46.41.042,HF_wild_card,2022.2.4,Win32,59.95203837,63f79eb498a9401ce52a9fe1,64d2fd46c836a06233681665,64dc7ebf96ba187eefe1fcec,,,,,,,sngl,resources/DG.BMP,resources/Empty.png,Door2,-0.156481481,0.000925926,1,0,0,0.482,optionLeft,40,6785,3,42,0,42,0,1,,,,,,,,,,,,,,,,,,,,,,,,,,,,,,,,,,,,,,,
,,,,,,,,2023-08-16_08h46.41.042,HF_wild_card,2022.2.4,Win32,59.95203837,63f79eb498a9401ce52a9fe1,64d2fd46c836a06233681665,64dc7ebf96ba187eefe1fcec,,,,,,,sngl,resources/DR.BMP,resources/Empty.png,WildCard_NonEx,-0.271296296,0.028703704,1,0,0,0.432,optionLeft,55,6840,3,43,0,43,0,1,,,,,,,,,,,,,,,,,,,,,,,,,,,,,,,,,,,,,,,
,,,,,,,,2023-08-16_08h46.41.042,HF_wild_card,2022.2.4,Win32,59.95203837,63f79eb498a9401ce52a9fe1,64d2fd46c836a06233681665,64dc7ebf96ba187eefe1fcec,,,,,,,,,,,,,,,,,,,,,,,,,,2,0,2,0,1,,,,,,,,,,,,,,,,,,,,,,,,,,,,,,,,,,
,,,,,,,,2023-08-16_08h46.41.042,HF_wild_card,2022.2.4,Win32,59.95203837,63f79eb498a9401ce52a9fe1,64d2fd46c836a06233681665,64dc7ebf96ba187eefe1fcec,,,,,,,decisionTrl,resources/DBN.BMP,resources/DP.BMP,Door4,-0.250925926,0.057407407,1,0,0,0.632,optionLeft,60,6900,4,0,0,0,0,1,,,,,,,,,,,,,,,,,,,,,,,,,,,,,,,,,,,,,,,
,,,,,,,,2023-08-16_08h46.41.042,HF_wild_card,2022.2.4,Win32,59.95203837,63f79eb498a9401ce52a9fe1,64d2fd46c836a06233681665,64dc7ebf96ba187eefe1fcec,,,,,,,decisionTrl,resources/DP.BMP,resources/DBN.BMP,Door3,-0.246296296,0.003703704,1,0,0,0.715,optionLeft,70,6970,4,1,0,1,0,1,,,,,,,,,,,,,,,,,,,,,,,,,,,,,,,,,,,,,,,
,,,,,,,,2023-08-16_08h46.41.042,HF_wild_card,2022.2.4,Win32,59.95203837,63f79eb498a9401ce52a9fe1,64d2fd46c836a06233681665,64dc7ebf96ba187eefe1fcec,,,,,,,decisionTrl,resources/DY.BMP,resources/DB.BMP,WildCard_Ex,0.2,0.046296296,1,0,0,0.566,optionRight,55,7025,4,2,0,2,0,1,,,,,,,,,,,,,,,,,,,,,,,,,,,,,,,,,,,,,,,
,,,,,,,,2023-08-16_08h46.41.042,HF_wild_card,2022.2.4,Win32,59.95203837,63f79eb498a9401ce52a9fe1,64d2fd46c836a06233681665,64dc7ebf96ba187eefe1fcec,,,,,,,decisionTrl,resources/DY.BMP,resources/DG.BMP,Door2,0.250925926,0.024074074,1,0,0,0.482,optionRight,20,7045,4,3,0,3,0,1,,,,,,,,,,,,,,,,,,,,,,,,,,,,,,,,,,,,,,,
,,,,,,,,2023-08-16_08h46.41.042,HF_wild_card,2022.2.4,Win32,59.95203837,63f79eb498a9401ce52a9fe1,64d2fd46c836a06233681665,64dc7ebf96ba187eefe1fcec,,,,,,,decisionTrl,resources/DY.BMP,resources/DG.BMP,Door2,0.252777778,0.030555556,1,0,0,0.482,optionRight,20,7065,4,4,0,4,0,1,,,,,,,,,,,,,,,,,,,,,,,,,,,,,,,,,,,,,,,
,,,,,,,,2023-08-16_08h46.41.042,HF_wild_card,2022.2.4,Win32,59.95203837,63f79eb498a9401ce52a9fe1,64d2fd46c836a06233681665,64dc7ebf96ba187eefe1fcec,,,,,,,decisionTrl,resources/DY.BMP,resources/DG.BMP,Door1,-0.224074074,0.050925926,1,0,0,0.464,optionLeft,30,7095,4,5,0,5,0,1,,,,,,,,,,,,,,,,,,,,,,,,,,,,,,,,,,,,,,,
,,,,,,,,2023-08-16_08h46.41.042,HF_wild_card,2022.2.4,Win32,59.95203837,63f79eb498a9401ce52a9fe1,64d2fd46c836a06233681665,64dc7ebf96ba187eefe1fcec,,,,,,,decisionTrl,resources/DP.BMP,resources/DBN.BMP,Door4,0.301851852,0.058333333,1,0,0,0.548,optionRight,80,7175,4,6,0,6,0,1,,,,,,,,,,,,,,,,,,,,,,,,,,,,,,,,,,,,,,,
,,,,,,,,2023-08-16_08h46.41.042,HF_wild_card,2022.2.4,Win32,59.95203837,63f79eb498a9401ce52a9fe1,64d2fd46c836a06233681665,64dc7ebf96ba187eefe1fcec,,,,,,,decisionTrl,resources/DBN.BMP,resources/DP.BMP,Door4,-0.266666667,0.05,1,0,0,0.547,optionLeft,80,7255,4,7,0,7,0,1,,,,,,,,,,,,,,,,,,,,,,,,,,,,,,,,,,,,,,,
,,,,,,,,2023-08-16_08h46.41.042,HF_wild_card,2022.2.4,Win32,59.95203837,63f79eb498a9401ce52a9fe1,64d2fd46c836a06233681665,64dc7ebf96ba187eefe1fcec,,,,,,,decisionTrl,resources/DBN.BMP,resources/DP.BMP,Door3,0.25462963,0.016666667,1,0,0,0.465,optionRight,70,7325,4,8,0,8,0,1,,,,,,,,,,,,,,,,,,,,,,,,,,,,,,,,,,,,,,,
,,,,,,,,2023-08-16_08h46.41.042,HF_wild_card,2022.2.4,Win32,59.95203837,63f79eb498a9401ce52a9fe1,64d2fd46c836a06233681665,64dc7ebf96ba187eefe1fcec,,,,,,,decisionTrl,resources/DP.BMP,resources/DBN.BMP,Door4,0.207407407,0.027777778,1,0,0,0.498,optionRight,80,7405,4,9,0,9,0,1,,,,,,,,,,,,,,,,,,,,,,,,,,,,,,,,,,,,,,,
,,,,,,,,2023-08-16_08h46.41.042,HF_wild_card,2022.2.4,Win32,59.95203837,63f79eb498a9401ce52a9fe1,64d2fd46c836a06233681665,64dc7ebf96ba187eefe1fcec,,,,,,,sngl,resources/DY.BMP,resources/Empty.png,Door1,-0.181481481,0.013888889,1,0,0,0.449,optionLeft,30,7435,4,10,0,10,0,1,,,,,,,,,,,,,,,,,,,,,,,,,,,,,,,,,,,,,,,
,,,,,,,,2023-08-16_08h46.41.042,HF_wild_card,2022.2.4,Win32,59.95203837,63f79eb498a9401ce52a9fe1,64d2fd46c836a06233681665,64dc7ebf96ba187eefe1fcec,,,,,,,decisionTrl,resources/DB.BMP,resources/DBN.BMP,Door4,0.291666667,0.014814815,1,0,0,1.015,optionRight,80,7515,4,11,0,11,0,1,,,,,,,,,,,,,,,,,,,,,,,,,,,,,,,,,,,,,,,
,,,,,,,,2023-08-16_08h46.41.042,HF_wild_card,2022.2.4,Win32,59.95203837,63f79eb498a9401ce52a9fe1,64d2fd46c836a06233681665,64dc7ebf96ba187eefe1fcec,,,,,,,sngl,resources/Empty.png,resources/DG.BMP,Door2,0.244444444,0.012037037,1,0,0,0.431,optionRight,40,7555,4,12,0,12,0,1,,,,,,,,,,,,,,,,,,,,,,,,,,,,,,,,,,,,,,,
,,,,,,,,2023-08-16_08h46.41.042,HF_wild_card,2022.2.4,Win32,59.95203837,63f79eb498a9401ce52a9fe1,64d2fd46c836a06233681665,64dc7ebf96ba187eefe1fcec,,,,,,,ctch,resources/DP.BMP,resources/DG.BMP,Door3,-0.284259259,0.011111111,1,0,0,0.482,optionLeft,70,7625,4,13,0,13,0,1,,,,,,,,,,,,,,,,,,,,,,,,,,,,,,,,,,,,,,,
,,,,,,,,2023-08-16_08h46.41.042,HF_wild_card,2022.2.4,Win32,59.95203837,63f79eb498a9401ce52a9fe1,64d2fd46c836a06233681665,64dc7ebf96ba187eefe1fcec,,,,,,,sngl,resources/DG.BMP,resources/Empty.png,Door2,-0.272222222,0.046296296,1,0,0,0.465,optionLeft,20,7645,4,14,0,14,0,1,,,,,,,,,,,,,,,,,,,,,,,,,,,,,,,,,,,,,,,
,,,,,,,,2023-08-16_08h46.41.042,HF_wild_card,2022.2.4,Win32,59.95203837,63f79eb498a9401ce52a9fe1,64d2fd46c836a06233681665,64dc7ebf96ba187eefe1fcec,,,,,,,sngl,resources/Empty.png,resources/DP.BMP,Door3,0.300925926,0.052777778,1,0,0,0.381,optionRight,70,7715,4,15,0,15,0,1,,,,,,,,,,,,,,,,,,,,,,,,,,,,,,,,,,,,,,,
,,,,,,,,2023-08-16_08h46.41.042,HF_wild_card,2022.2.4,Win32,59.95203837,63f79eb498a9401ce52a9fe1,64d2fd46c836a06233681665,64dc7ebf96ba187eefe1fcec,,,,,,,sngl,resources/Empty.png,resources/DB.BMP,WildCard_Ex,0.282407407,-0.005555556,1,0,0,0.415,optionRight,55,7770,4,16,0,16,0,1,,,,,,,,,,,,,,,,,,,,,,,,,,,,,,,,,,,,,,,
,,,,,,,,2023-08-16_08h46.41.042,HF_wild_card,2022.2.4,Win32,59.95203837,63f79eb498a9401ce52a9fe1,64d2fd46c836a06233681665,64dc7ebf96ba187eefe1fcec,,,,,,,ctch,resources/DBN.BMP,resources/DY.BMP,Door4,-0.253703704,0.019444444,1,0,0,0.481,optionLeft,60,7830,4,17,0,17,0,1,,,,,,,,,,,,,,,,,,,,,,,,,,,,,,,,,,,,,,,
,,,,,,,,2023-08-16_08h46.41.042,HF_wild_card,2022.2.4,Win32,59.95203837,63f79eb498a9401ce52a9fe1,64d2fd46c836a06233681665,64dc7ebf96ba187eefe1fcec,,,,,,,decisionTrl,resources/DG.BMP,resources/DY.BMP,Door1,0.218518519,-0.00462963,1,0,0,0.748,optionRight,30,7860,4,18,0,18,0,1,,,,,,,,,,,,,,,,,,,,,,,,,,,,,,,,,,,,,,,
,,,,,,,,2023-08-16_08h46.41.042,HF_wild_card,2022.2.4,Win32,59.95203837,63f79eb498a9401ce52a9fe1,64d2fd46c836a06233681665,64dc7ebf96ba187eefe1fcec,,,,,,,ctch,resources/DP.BMP,resources/DG.BMP,Door3,-0.225,0.013888889,1,0,0,0.498,optionLeft,70,7930,4,19,0,19,0,1,,,,,,,,,,,,,,,,,,,,,,,,,,,,,,,,,,,,,,,
,,,,,,,,2023-08-16_08h46.41.042,HF_wild_card,2022.2.4,Win32,59.95203837,63f79eb498a9401ce52a9fe1,64d2fd46c836a06233681665,64dc7ebf96ba187eefe1fcec,,,,,,,decisionTrl,resources/DP.BMP,resources/DBN.BMP,Door3,-0.233333333,0.036111111,1,0,0,0.882,optionLeft,70,8000,4,20,0,20,0,1,,,,,,,,,,,,,,,,,,,,,,,,,,,,,,,,,,,,,,,
,,,,,,,,2023-08-16_08h46.41.042,HF_wild_card,2022.2.4,Win32,59.95203837,63f79eb498a9401ce52a9fe1,64d2fd46c836a06233681665,64dc7ebf96ba187eefe1fcec,,,,,,,decisionTrl,resources/DP.BMP,resources/DB.BMP,Door3,-0.316666667,0.074074074,1,0,0,0.679,optionLeft,70,8070,4,21,0,21,0,1,,,,,,,,,,,,,,,,,,,,,,,,,,,,,,,,,,,,,,,
,,,,,,,,2023-08-16_08h46.41.042,HF_wild_card,2022.2.4,Win32,59.95203837,63f79eb498a9401ce52a9fe1,64d2fd46c836a06233681665,64dc7ebf96ba187eefe1fcec,,,,,,,sngl,resources/DP.BMP,resources/Empty.png,Door3,-0.197222222,0.016666667,1,0,0,0.465,optionLeft,70,8140,4,22,0,22,0,1,,,,,,,,,,,,,,,,,,,,,,,,,,,,,,,,,,,,,,,
,,,,,,,,2023-08-16_08h46.41.042,HF_wild_card,2022.2.4,Win32,59.95203837,63f79eb498a9401ce52a9fe1,64d2fd46c836a06233681665,64dc7ebf96ba187eefe1fcec,,,,,,,decisionTrl,resources/DB.BMP,resources/DY.BMP,WildCard_Ex,-0.289814815,0.075,1,0,0,0.731,optionLeft,45,8185,4,23,0,23,0,1,,,,,,,,,,,,,,,,,,,,,,,,,,,,,,,,,,,,,,,
,,,,,,,,2023-08-16_08h46.41.042,HF_wild_card,2022.2.4,Win32,59.95203837,63f79eb498a9401ce52a9fe1,64d2fd46c836a06233681665,64dc7ebf96ba187eefe1fcec,,,,,,,ctch,resources/DBN.BMP,resources/DY.BMP,Door4,-0.268518519,0.025925926,1,0,0,0.498,optionLeft,80,8265,4,24,0,24,0,1,,,,,,,,,,,,,,,,,,,,,,,,,,,,,,,,,,,,,,,
,,,,,,,,2023-08-16_08h46.41.042,HF_wild_card,2022.2.4,Win32,59.95203837,63f79eb498a9401ce52a9fe1,64d2fd46c836a06233681665,64dc7ebf96ba187eefe1fcec,,,,,,,sngl,resources/Empty.png,resources/DY.BMP,Door1,0.287962963,0.074074074,1,0,0,0.415,optionRight,30,8295,4,25,0,25,0,1,,,,,,,,,,,,,,,,,,,,,,,,,,,,,,,,,,,,,,,
,,,,,,,,2023-08-16_08h46.41.042,HF_wild_card,2022.2.4,Win32,59.95203837,63f79eb498a9401ce52a9fe1,64d2fd46c836a06233681665,64dc7ebf96ba187eefe1fcec,,,,,,,ctch,resources/DG.BMP,resources/DP.BMP,Door3,0.25462963,0.02962963,1,0,0,0.616,optionRight,70,8365,4,26,0,26,0,1,,,,,,,,,,,,,,,,,,,,,,,,,,,,,,,,,,,,,,,
,,,,,,,,2023-08-16_08h46.41.042,HF_wild_card,2022.2.4,Win32,59.95203837,63f79eb498a9401ce52a9fe1,64d2fd46c836a06233681665,64dc7ebf96ba187eefe1fcec,,,,,,,sngl,resources/DB.BMP,resources/Empty.png,WildCard_Ex,-0.27962963,0.037962963,1,0,0,0.416,optionLeft,55,8420,4,27,0,27,0,1,,,,,,,,,,,,,,,,,,,,,,,,,,,,,,,,,,,,,,,
,,,,,,,,2023-08-16_08h46.41.042,HF_wild_card,2022.2.4,Win32,59.95203837,63f79eb498a9401ce52a9fe1,64d2fd46c836a06233681665,64dc7ebf96ba187eefe1fcec,,,,,,,sngl,resources/DBN.BMP,resources/Empty.png,Door4,-0.236111111,0.023148148,1,0,0,0.449,optionLeft,60,8480,4,28,0,28,0,1,,,,,,,,,,,,,,,,,,,,,,,,,,,,,,,,,,,,,,,
,,,,,,,,2023-08-16_08h46.41.042,HF_wild_card,2022.2.4,Win32,59.95203837,63f79eb498a9401ce52a9fe1,64d2fd46c836a06233681665,64dc7ebf96ba187eefe1fcec,,,,,,,sngl,resources/DB.BMP,resources/Empty.png,WildCard_Ex,-0.181481481,0.02962963,1,0,0,0.465,optionLeft,45,8525,4,29,0,29,0,1,,,,,,,,,,,,,,,,,,,,,,,,,,,,,,,,,,,,,,,
,,,,,,,,2023-08-16_08h46.41.042,HF_wild_card,2022.2.4,Win32,59.95203837,63f79eb498a9401ce52a9fe1,64d2fd46c836a06233681665,64dc7ebf96ba187eefe1fcec,,,,,,,decisionTrl,resources/DBN.BMP,resources/DP.BMP,Door3,0.309259259,0.05462963,1,0,0,0.482,optionRight,70,8595,4,30,0,30,0,1,,,,,,,,,,,,,,,,,,,,,,,,,,,,,,,,,,,,,,,
,,,,,,,,2023-08-16_08h46.41.042,HF_wild_card,2022.2.4,Win32,59.95203837,63f79eb498a9401ce52a9fe1,64d2fd46c836a06233681665,64dc7ebf96ba187eefe1fcec,,,,,,,ctch,resources/DY.BMP,resources/DBN.BMP,Door4,0.35,0.003703704,1,0,0,0.548,optionRight,80,8675,4,31,0,31,0,1,,,,,,,,,,,,,,,,,,,,,,,,,,,,,,,,,,,,,,,
,,,,,,,,2023-08-16_08h46.41.042,HF_wild_card,2022.2.4,Win32,59.95203837,63f79eb498a9401ce52a9fe1,64d2fd46c836a06233681665,64dc7ebf96ba187eefe1fcec,,,,,,,decisionTrl,resources/DY.BMP,resources/DG.BMP,Door2,0.290740741,0.012037037,1,0,0,0.698,optionRight,40,8715,4,32,0,32,0,1,,,,,,,,,,,,,,,,,,,,,,,,,,,,,,,,,,,,,,,
,,,,,,,,2023-08-16_08h46.41.042,HF_wild_card,2022.2.4,Win32,59.95203837,63f79eb498a9401ce52a9fe1,64d2fd46c836a06233681665,64dc7ebf96ba187eefe1fcec,,,,,,,decisionTrl,resources/DB.BMP,resources/DP.BMP,Door3,0.233333333,0.033333333,1,0,0,0.598,optionRight,70,8785,4,33,0,33,0,1,,,,,,,,,,,,,,,,,,,,,,,,,,,,,,,,,,,,,,,
,,,,,,,,2023-08-16_08h46.41.042,HF_wild_card,2022.2.4,Win32,59.95203837,63f79eb498a9401ce52a9fe1,64d2fd46c836a06233681665,64dc7ebf96ba187eefe1fcec,,,,,,,decisionTrl,resources/DG.BMP,resources/DY.BMP,Door2,-0.177777778,0.017592593,1,0,0,0.549,optionLeft,40,8825,4,34,0,34,0,1,,,,,,,,,,,,,,,,,,,,,,,,,,,,,,,,,,,,,,,
,,,,,,,,2023-08-16_08h46.41.042,HF_wild_card,2022.2.4,Win32,59.95203837,63f79eb498a9401ce52a9fe1,64d2fd46c836a06233681665,64dc7ebf96ba187eefe1fcec,,,,,,,sngl,resources/Empty.png,resources/DB.BMP,WildCard_Ex,0.309259259,0.055555556,1,0,0,0.414,optionRight,45,8870,4,35,0,35,0,1,,,,,,,,,,,,,,,,,,,,,,,,,,,,,,,,,,,,,,,
,,,,,,,,2023-08-16_08h46.41.042,HF_wild_card,2022.2.4,Win32,59.95203837,63f79eb498a9401ce52a9fe1,64d2fd46c836a06233681665,64dc7ebf96ba187eefe1fcec,,,,,,,decisionTrl,resources/DG.BMP,resources/DY.BMP,Door2,-0.210185185,0.042592593,1,0,0,0.482,optionLeft,40,8910,4,36,0,36,0,1,,,,,,,,,,,,,,,,,,,,,,,,,,,,,,,,,,,,,,,
,,,,,,,,2023-08-16_08h46.41.042,HF_wild_card,2022.2.4,Win32,59.95203837,63f79eb498a9401ce52a9fe1,64d2fd46c836a06233681665,64dc7ebf96ba187eefe1fcec,,,,,,,decisionTrl,resources/DBN.BMP,resources/DB.BMP,Door4,-0.267592593,0.039814815,1,0,0,0.649,optionLeft,80,8990,4,37,0,37,0,1,,,,,,,,,,,,,,,,,,,,,,,,,,,,,,,,,,,,,,,
,,,,,,,,2023-08-16_08h46.41.042,HF_wild_card,2022.2.4,Win32,59.95203837,63f79eb498a9401ce52a9fe1,64d2fd46c836a06233681665,64dc7ebf96ba187eefe1fcec,,,,,,,ctch,resources/DG.BMP,resources/DP.BMP,Door3,0.187037037,0.009259259,1,0,0,0.53,optionRight,70,9060,4,38,0,38,0,1,,,,,,,,,,,,,,,,,,,,,,,,,,,,,,,,,,,,,,,
,,,,,,,,2023-08-16_08h46.41.042,HF_wild_card,2022.2.4,Win32,59.95203837,63f79eb498a9401ce52a9fe1,64d2fd46c836a06233681665,64dc7ebf96ba187eefe1fcec,,,,,,,sngl,resources/Empty.png,resources/DBN.BMP,Door4,0.211111111,0.024074074,1,0,0,0.449,optionRight,80,9140,4,39,0,39,0,1,,,,,,,,,,,,,,,,,,,,,,,,,,,,,,,,,,,,,,,
,,,,,,,,2023-08-16_08h46.41.042,HF_wild_card,2022.2.4,Win32,59.95203837,63f79eb498a9401ce52a9fe1,64d2fd46c836a06233681665,64dc7ebf96ba187eefe1fcec,,,,,,,decisionTrl,resources/DB.BMP,resources/DG.BMP,WildCard_Ex,-0.227777778,0.023148148,1,0,0,0.565,optionLeft,45,9185,4,40,0,40,0,1,,,,,,,,,,,,,,,,,,,,,,,,,,,,,,,,,,,,,,,
,,,,,,,,2023-08-16_08h46.41.042,HF_wild_card,2022.2.4,Win32,59.95203837,63f79eb498a9401ce52a9fe1,64d2fd46c836a06233681665,64dc7ebf96ba187eefe1fcec,,,,,,,ctch,resources/DY.BMP,resources/DBN.BMP,Door4,0.218518519,0.044444444,1,0,0,0.465,optionRight,80,9265,4,41,0,41,0,1,,,,,,,,,,,,,,,,,,,,,,,,,,,,,,,,,,,,,,,
,,,,,,,,2023-08-16_08h46.41.042,HF_wild_card,2022.2.4,Win32,59.95203837,63f79eb498a9401ce52a9fe1,64d2fd46c836a06233681665,64dc7ebf96ba187eefe1fcec,,,,,,,decisionTrl,resources/DG.BMP,resources/DB.BMP,WildCard_Ex,0.325925926,0.023148148,1,0,0,0.514,optionRight,45,9310,4,42,0,42,0,1,,,,,,,,,,,,,,,,,,,,,,,,,,,,,,,,,,,,,,,
,,,,,,,,2023-08-16_08h46.41.042,HF_wild_card,2022.2.4,Win32,59.95203837,63f79eb498a9401ce52a9fe1,64d2fd46c836a06233681665,64dc7ebf96ba187eefe1fcec,,,,,,,decisionTrl,resources/DG.BMP,resources/DY.BMP,Door2,-0.308333333,0.05462963,1,0,0,0.848,optionLeft,20,9330,4,43,0,43,0,1,,,,,,,,,,,,,,,,,,,,,,,,,,,,,,,,,,,,,,,
,,,,,,,,2023-08-16_08h46.41.042,HF_wild_card,2022.2.4,Win32,59.95203837,63f79eb498a9401ce52a9fe1,64d2fd46c836a06233681665,64dc7ebf96ba187eefe1fcec,,,,,,,,,,,,,,,,,,,,,,,,,,3,0,3,0,1,,,,,,,,,,,,,,,,,,,,,,,,,,,,,,,,,,
,,,,,,,,2023-08-16_08h46.41.042,HF_wild_card,2022.2.4,Win32,59.95203837,63f79eb498a9401ce52a9fe1,64d2fd46c836a06233681665,64dc7ebf96ba187eefe1fcec,,,,,,,decisionTrl,resources/DG.BMP,resources/DY.BMP,Door2,-0.27037037,-0.012962963,1,0,0,0.548,optionLeft,20,9350,5,0,0,0,0,1,,,,,,,,,,,,,,,,,,,,,,,,,,,,,,,,,,,,,,,
,,,,,,,,2023-08-16_08h46.41.042,HF_wild_card,2022.2.4,Win32,59.95203837,63f79eb498a9401ce52a9fe1,64d2fd46c836a06233681665,64dc7ebf96ba187eefe1fcec,,,,,,,sngl,resources/Empty.png,resources/DBN.BMP,Door4,0.244444444,0.039814815,1,0,0,0.399,optionRight,60,9410,5,1,0,1,0,1,,,,,,,,,,,,,,,,,,,,,,,,,,,,,,,,,,,,,,,
,,,,,,,,2023-08-16_08h46.41.042,HF_wild_card,2022.2.4,Win32,59.95203837,63f79eb498a9401ce52a9fe1,64d2fd46c836a06233681665,64dc7ebf96ba187eefe1fcec,,,,,,,ctch,resources/DY.BMP,resources/DBN.BMP,Door4,0.378703704,0.014814815,1,0,0,0.466,optionRight,80,9490,5,2,0,2,0,1,,,,,,,,,,,,,,,,,,,,,,,,,,,,,,,,,,,,,,,
,,,,,,,,2023-08-16_08h46.41.042,HF_wild_card,2022.2.4,Win32,59.95203837,63f79eb498a9401ce52a9fe1,64d2fd46c836a06233681665,64dc7ebf96ba187eefe1fcec,,,,,,,decisionTrl,resources/DY.BMP,resources/DG.BMP,Door2,0.208333333,0.011111111,1,0,0,0.482,optionRight,20,9510,5,3,0,3,0,1,,,,,,,,,,,,,,,,,,,,,,,,,,,,,,,,,,,,,,,
,,,,,,,,2023-08-16_08h46.41.042,HF_wild_card,2022.2.4,Win32,59.95203837,63f79eb498a9401ce52a9fe1,64d2fd46c836a06233681665,64dc7ebf96ba187eefe1fcec,,,,,,,sngl,resources/Empty.png,resources/DY.BMP,Door1,0.289814815,0.017592593,1,0,0,0.432,optionRight,30,9540,5,4,0,4,0,1,,,,,,,,,,,,,,,,,,,,,,,,,,,,,,,,,,,,,,,
,,,,,,,,2023-08-16_08h46.41.042,HF_wild_card,2022.2.4,Win32,59.95203837,63f79eb498a9401ce52a9fe1,64d2fd46c836a06233681665,64dc7ebf96ba187eefe1fcec,,,,,,,decisionTrl,resources/DP.BMP,resources/DBN.BMP,Door3,-0.285185185,0.043518519,1,0,0,0.881,optionLeft,70,9610,5,5,0,5,0,1,,,,,,,,,,,,,,,,,,,,,,,,,,,,,,,,,,,,,,,
,,,,,,,,2023-08-16_08h46.41.042,HF_wild_card,2022.2.4,Win32,59.95203837,63f79eb498a9401ce52a9fe1,64d2fd46c836a06233681665,64dc7ebf96ba187eefe1fcec,,,,,,,decisionTrl,resources/DBN.BMP,resources/DP.BMP,Door4,-0.27037037,-0.02037037,1,0,0,0.699,optionLeft,60,9670,5,6,0,6,0,1,,,,,,,,,,,,,,,,,,,,,,,,,,,,,,,,,,,,,,,
,,,,,,,,2023-08-16_08h46.41.042,HF_wild_card,2022.2.4,Win32,59.95203837,63f79eb498a9401ce52a9fe1,64d2fd46c836a06233681665,64dc7ebf96ba187eefe1fcec,,,,,,,decisionTrl,resources/DP.BMP,resources/DBN.BMP,Door3,-0.327777778,0.018518519,1,0,0,0.699,optionLeft,70,9740,5,7,0,7,0,1,,,,,,,,,,,,,,,,,,,,,,,,,,,,,,,,,,,,,,,
,,,,,,,,2023-08-16_08h46.41.042,HF_wild_card,2022.2.4,Win32,59.95203837,63f79eb498a9401ce52a9fe1,64d2fd46c836a06233681665,64dc7ebf96ba187eefe1fcec,,,,,,,ctch,resources/DG.BMP,resources/DP.BMP,Door3,0.225,0.012037037,1,0,0,0.499,optionRight,70,9810,5,8,0,8,0,1,,,,,,,,,,,,,,,,,,,,,,,,,,,,,,,,,,,,,,,
,,,,,,,,2023-08-16_08h46.41.042,HF_wild_card,2022.2.4,Win32,59.95203837,63f79eb498a9401ce52a9fe1,64d2fd46c836a06233681665,64dc7ebf96ba187eefe1fcec,,,,,,,sngl,resources/Empty.png,resources/DP.BMP,Door3,0.214814815,0.018518519,1,0,0,0.412,optionRight,70,9880,5,9,0,9,0,1,,,,,,,,,,,,,,,,,,,,,,,,,,,,,,,,,,,,,,,
,,,,,,,,2023-08-16_08h46.41.042,HF_wild_card,2022.2.4,Win32,59.95203837,63f79eb498a9401ce52a9fe1,64d2fd46c836a06233681665,64dc7ebf96ba187eefe1fcec,,,,,,,sngl,resources/DY.BMP,resources/Empty.png,Door1,-0.198148148,0.011111111,1,0,0,0.448,optionLeft,30,9910,5,10,0,10,0,1,,,,,,,,,,,,,,,,,,,,,,,,,,,,,,,,,,,,,,,
,,,,,,,,2023-08-16_08h46.41.042,HF_wild_card,2022.2.4,Win32,59.95203837,63f79eb498a9401ce52a9fe1,64d2fd46c836a06233681665,64dc7ebf96ba187eefe1fcec,,,,,,,decisionTrl,resources/DP.BMP,resources/DBN.BMP,Door3,-0.398148148,0.07037037,1,0,0,0.798,optionLeft,70,9980,5,11,0,11,0,1,,,,,,,,,,,,,,,,,,,,,,,,,,,,,,,,,,,,,,,
,,,,,,,,2023-08-16_08h46.41.042,HF_wild_card,2022.2.4,Win32,59.95203837,63f79eb498a9401ce52a9fe1,64d2fd46c836a06233681665,64dc7ebf96ba187eefe1fcec,,,,,,,decisionTrl,resources/DBN.BMP,resources/DP.BMP,Door3,0.318518519,0.035185185,1,0,0,0.699,optionRight,70,10050,5,12,0,12,0,1,,,,,,,,,,,,,,,,,,,,,,,,,,,,,,,,,,,,,,,
,,,,,,,,2023-08-16_08h46.41.042,HF_wild_card,2022.2.4,Win32,59.95203837,63f79eb498a9401ce52a9fe1,64d2fd46c836a06233681665,64dc7ebf96ba187eefe1fcec,,,,,,,sngl,resources/DBN.BMP,resources/Empty.png,Door4,-0.175,0.032407407,1,0,0,0.482,optionLeft,80,10130,5,13,0,13,0,1,,,,,,,,,,,,,,,,,,,,,,,,,,,,,,,,,,,,,,,
,,,,,,,,2023-08-16_08h46.41.042,HF_wild_card,2022.2.4,Win32,59.95203837,63f79eb498a9401ce52a9fe1,64d2fd46c836a06233681665,64dc7ebf96ba187eefe1fcec,,,,,,,ctch,resources/DP.BMP,resources/DG.BMP,Door3,-0.237037037,0.048148148,1,0,0,0.548,optionLeft,70,10200,5,14,0,14,0,1,,,,,,,,,,,,,,,,,,,,,,,,,,,,,,,,,,,,,,,
,,,,,,,,2023-08-16_08h46.41.042,HF_wild_card,2022.2.4,Win32,59.95203837,63f79eb498a9401ce52a9fe1,64d2fd46c836a06233681665,64dc7ebf96ba187eefe1fcec,,,,,,,sngl,resources/Empty.png,resources/DB.BMP,WildCard_Ex,0.238888889,0.018518519,1,0,0,0.432,optionRight,55,10255,5,15,0,15,0,1,,,,,,,,,,,,,,,,,,,,,,,,,,,,,,,,,,,,,,,
,,,,,,,,2023-08-16_08h46.41.042,HF_wild_card,2022.2.4,Win32,59.95203837,63f79eb498a9401ce52a9fe1,64d2fd46c836a06233681665,64dc7ebf96ba187eefe1fcec,,,,,,,sngl,resources/DG.BMP,resources/Empty.png,Door2,-0.246296296,0.043518519,1,0,0,0.398,optionLeft,40,10295,5,16,0,16,0,1,,,,,,,,,,,,,,,,,,,,,,,,,,,,,,,,,,,,,,,
,,,,,,,,2023-08-16_08h46.41.042,HF_wild_card,2022.2.4,Win32,59.95203837,63f79eb498a9401ce52a9fe1,64d2fd46c836a06233681665,64dc7ebf96ba187eefe1fcec,,,,,,,decisionTrl,resources/DB.BMP,resources/DBN.BMP,Door4,0.196296296,-0.005555556,1,0,0,0.449,optionRight,60,10355,5,17,0,17,0,1,,,,,,,,,,,,,,,,,,,,,,,,,,,,,,,,,,,,,,,
,,,,,,,,2023-08-16_08h46.41.042,HF_wild_card,2022.2.4,Win32,59.95203837,63f79eb498a9401ce52a9fe1,64d2fd46c836a06233681665,64dc7ebf96ba187eefe1fcec,,,,,,,decisionTrl,resources/DBN.BMP,resources/DP.BMP,Door3,0.298148148,-0.055555556,1,0,0,0.815,optionRight,70,10425,5,18,0,18,0,1,,,,,,,,,,,,,,,,,,,,,,,,,,,,,,,,,,,,,,,
,,,,,,,,2023-08-16_08h46.41.042,HF_wild_card,2022.2.4,Win32,59.95203837,63f79eb498a9401ce52a9fe1,64d2fd46c836a06233681665,64dc7ebf96ba187eefe1fcec,,,,,,,decisionTrl,resources/DY.BMP,resources/DG.BMP,Door2,0.299074074,0.005555556,1,0,0,0.648,optionRight,20,10445,5,19,0,19,0,1,,,,,,,,,,,,,,,,,,,,,,,,,,,,,,,,,,,,,,,
,,,,,,,,2023-08-16_08h46.41.042,HF_wild_card,2022.2.4,Win32,59.95203837,63f79eb498a9401ce52a9fe1,64d2fd46c836a06233681665,64dc7ebf96ba187eefe1fcec,,,,,,,decisionTrl,resources/DG.BMP,resources/DY.BMP,Door2,-0.210185185,0.012037037,1,0,0,0.481,optionLeft,40,10485,5,20,0,20,0,1,,,,,,,,,,,,,,,,,,,,,,,,,,,,,,,,,,,,,,,
,,,,,,,,2023-08-16_08h46.41.042,HF_wild_card,2022.2.4,Win32,59.95203837,63f79eb498a9401ce52a9fe1,64d2fd46c836a06233681665,64dc7ebf96ba187eefe1fcec,,,,,,,sngl,resources/DB.BMP,resources/Empty.png,WildCard_Ex,-0.139814815,0.010185185,1,0,0,0.448,optionLeft,55,10540,5,21,0,21,0,1,,,,,,,,,,,,,,,,,,,,,,,,,,,,,,,,,,,,,,,
,,,,,,,,2023-08-16_08h46.41.042,HF_wild_card,2022.2.4,Win32,59.95203837,63f79eb498a9401ce52a9fe1,64d2fd46c836a06233681665,64dc7ebf96ba187eefe1fcec,,,,,,,ctch,resources/DBN.BMP,resources/DY.BMP,Door4,-0.238888889,0.056481481,1,0,0,0.498,optionLeft,60,10600,5,22,0,22,0,1,,,,,,,,,,,,,,,,,,,,,,,,,,,,,,,,,,,,,,,
,,,,,,,,2023-08-16_08h46.41.042,HF_wild_card,2022.2.4,Win32,59.95203837,63f79eb498a9401ce52a9fe1,64d2fd46c836a06233681665,64dc7ebf96ba187eefe1fcec,,,,,,,decisionTrl,resources/DG.BMP,resources/DY.BMP,Door1,0.228703704,0.028703704,1,0,0,0.665,optionRight,30,10630,5,23,0,23,0,1,,,,,,,,,,,,,,,,,,,,,,,,,,,,,,,,,,,,,,,
,,,,,,,,2023-08-16_08h46.41.042,HF_wild_card,2022.2.4,Win32,59.95203837,63f79eb498a9401ce52a9fe1,64d2fd46c836a06233681665,64dc7ebf96ba187eefe1fcec,,,,,,,sngl,resources/Empty.png,resources/DG.BMP,Door2,0.227777778,0.04537037,1,0,0,0.449,optionRight,20,10650,5,24,0,24,0,1,,,,,,,,,,,,,,,,,,,,,,,,,,,,,,,,,,,,,,,
,,,,,,,,2023-08-16_08h46.41.042,HF_wild_card,2022.2.4,Win32,59.95203837,63f79eb498a9401ce52a9fe1,64d2fd46c836a06233681665,64dc7ebf96ba187eefe1fcec,,,,,,,decisionTrl,resources/DB.BMP,resources/DG.BMP,WildCard_Ex,-0.307407407,0.066666667,1,0,0,0.512,optionLeft,45,10695,5,25,0,25,0,1,,,,,,,,,,,,,,,,,,,,,,,,,,,,,,,,,,,,,,,
,,,,,,,,2023-08-16_08h46.41.042,HF_wild_card,2022.2.4,Win32,59.95203837,63f79eb498a9401ce52a9fe1,64d2fd46c836a06233681665,64dc7ebf96ba187eefe1fcec,,,,,,,decisionTrl,resources/DG.BMP,resources/DY.BMP,Door2,-0.191666667,0.033333333,1,0,0,0.615,optionLeft,40,10735,5,26,0,26,0,1,,,,,,,,,,,,,,,,,,,,,,,,,,,,,,,,,,,,,,,
,,,,,,,,2023-08-16_08h46.41.042,HF_wild_card,2022.2.4,Win32,59.95203837,63f79eb498a9401ce52a9fe1,64d2fd46c836a06233681665,64dc7ebf96ba187eefe1fcec,,,,,,,ctch,resources/DP.BMP,resources/DG.BMP,Door3,-0.357407407,0.059259259,1,0,0,0.532,optionLeft,70,10805,5,27,0,27,0,1,,,,,,,,,,,,,,,,,,,,,,,,,,,,,,,,,,,,,,,
,,,,,,,,2023-08-16_08h46.41.042,HF_wild_card,2022.2.4,Win32,59.95203837,63f79eb498a9401ce52a9fe1,64d2fd46c836a06233681665,64dc7ebf96ba187eefe1fcec,,,,,,,decisionTrl,resources/DB.BMP,resources/DP.BMP,Door3,0.287962963,0.002777778,1,0,0,0.448,optionRight,70,10875,5,28,0,28,0,1,,,,,,,,,,,,,,,,,,,,,,,,,,,,,,,,,,,,,,,
,,,,,,,,2023-08-16_08h46.41.042,HF_wild_card,2022.2.4,Win32,59.95203837,63f79eb498a9401ce52a9fe1,64d2fd46c836a06233681665,64dc7ebf96ba187eefe1fcec,,,,,,,decisionTrl,resources/DG.BMP,resources/DB.BMP,WildCard_Ex,0.300925926,0.026851852,1,0,0,0.531,optionRight,45,10920,5,29,0,29,0,1,,,,,,,,,,,,,,,,,,,,,,,,,,,,,,,,,,,,,,,
,,,,,,,,2023-08-16_08h46.41.042,HF_wild_card,2022.2.4,Win32,59.95203837,63f79eb498a9401ce52a9fe1,64d2fd46c836a06233681665,64dc7ebf96ba187eefe1fcec,,,,,,,decisionTrl,resources/DP.BMP,resources/DBN.BMP,Door4,0.314814815,-0.021296296,1,0,0,0.499,optionRight,80,11000,5,30,0,30,0,1,,,,,,,,,,,,,,,,,,,,,,,,,,,,,,,,,,,,,,,
,,,,,,,,2023-08-16_08h46.41.042,HF_wild_card,2022.2.4,Win32,59.95203837,63f79eb498a9401ce52a9fe1,64d2fd46c836a06233681665,64dc7ebf96ba187eefe1fcec,,,,,,,decisionTrl,resources/DY.BMP,resources/DG.BMP,Door2,0.214814815,0.022222222,1,0,0,0.532,optionRight,20,11020,5,31,0,31,0,1,,,,,,,,,,,,,,,,,,,,,,,,,,,,,,,,,,,,,,,
,,,,,,,,2023-08-16_08h46.41.042,HF_wild_card,2022.2.4,Win32,59.95203837,63f79eb498a9401ce52a9fe1,64d2fd46c836a06233681665,64dc7ebf96ba187eefe1fcec,,,,,,,ctch,resources/DY.BMP,resources/DBN.BMP,Door4,0.237037037,0.023148148,1,0,0,0.565,optionRight,80,11100,5,32,0,32,0,1,,,,,,,,,,,,,,,,,,,,,,,,,,,,,,,,,,,,,,,
,,,,,,,,2023-08-16_08h46.41.042,HF_wild_card,2022.2.4,Win32,59.95203837,63f79eb498a9401ce52a9fe1,64d2fd46c836a06233681665,64dc7ebf96ba187eefe1fcec,,,,,,,decisionTrl,resources/DP.BMP,resources/DB.BMP,Door3,-0.233333333,0.023148148,1,0,0,0.616,optionLeft,70,11170,5,33,0,33,0,1,,,,,,,,,,,,,,,,,,,,,,,,,,,,,,,,,,,,,,,
,,,,,,,,2023-08-16_08h46.41.042,HF_wild_card,2022.2.4,Win32,59.95203837,63f79eb498a9401ce52a9fe1,64d2fd46c836a06233681665,64dc7ebf96ba187eefe1fcec,,,,,,,decisionTrl,resources/DBN.BMP,resources/DB.BMP,Door4,-0.318518519,-0.002777778,1,0,0,0.782,optionLeft,60,11230,5,34,0,34,0,1,,,,,,,,,,,,,,,,,,,,,,,,,,,,,,,,,,,,,,,
,,,,,,,,2023-08-16_08h46.41.042,HF_wild_card,2022.2.4,Win32,59.95203837,63f79eb498a9401ce52a9fe1,64d2fd46c836a06233681665,64dc7ebf96ba187eefe1fcec,,,,,,,ctch,resources/DBN.BMP,resources/DY.BMP,Door4,-0.199074074,0.001851852,1,0,0,0.515,optionLeft,60,11290,5,35,0,35,0,1,,,,,,,,,,,,,,,,,,,,,,,,,,,,,,,,,,,,,,,
,,,,,,,,2023-08-16_08h46.41.042,HF_wild_card,2022.2.4,Win32,59.95203837,63f79eb498a9401ce52a9fe1,64d2fd46c836a06233681665,64dc7ebf96ba187eefe1fcec,,,,,,,sngl,resources/DP.BMP,resources/Empty.png,Door3,-0.201851852,0.016666667,1,0,0,0.449,optionLeft,70,11360,5,36,0,36,0,1,,,,,,,,,,,,,,,,,,,,,,,,,,,,,,,,,,,,,,,
,,,,,,,,2023-08-16_08h46.41.042,HF_wild_card,2022.2.4,Win32,59.95203837,63f79eb498a9401ce52a9fe1,64d2fd46c836a06233681665,64dc7ebf96ba187eefe1fcec,,,,,,,sngl,resources/DB.BMP,resources/Empty.png,WildCard_Ex,-0.336111111,-0.003703704,1,0,0,0.915,optionLeft,45,11405,5,37,0,37,0,1,,,,,,,,,,,,,,,,,,,,,,,,,,,,,,,,,,,,,,,
,,,,,,,,2023-08-16_08h46.41.042,HF_wild_card,2022.2.4,Win32,59.95203837,63f79eb498a9401ce52a9fe1,64d2fd46c836a06233681665,64dc7ebf96ba187eefe1fcec,,,,,,,decisionTrl,resources/DB.BMP,resources/DY.BMP,WildCard_Ex,-0.209259259,-0.003703704,1,0,0,0.648,optionLeft,45,11450,5,38,0,38,0,1,,,,,,,,,,,,,,,,,,,,,,,,,,,,,,,,,,,,,,,
,,,,,,,,2023-08-16_08h46.41.042,HF_wild_card,2022.2.4,Win32,59.95203837,63f79eb498a9401ce52a9fe1,64d2fd46c836a06233681665,64dc7ebf96ba187eefe1fcec,,,,,,,decisionTrl,resources/DY.BMP,resources/DG.BMP,Door1,-0.162962963,0.017592593,1,0,0,0.583,optionLeft,30,11480,5,39,0,39,0,1,,,,,,,,,,,,,,,,,,,,,,,,,,,,,,,,,,,,,,,
,,,,,,,,2023-08-16_08h46.41.042,HF_wild_card,2022.2.4,Win32,59.95203837,63f79eb498a9401ce52a9fe1,64d2fd46c836a06233681665,64dc7ebf96ba187eefe1fcec,,,,,,,decisionTrl,resources/DBN.BMP,resources/DP.BMP,Door3,0.344444444,-0.003703704,1,0,0,0.665,optionRight,70,11550,5,40,0,40,0,1,,,,,,,,,,,,,,,,,,,,,,,,,,,,,,,,,,,,,,,
,,,,,,,,2023-08-16_08h46.41.042,HF_wild_card,2022.2.4,Win32,59.95203837,63f79eb498a9401ce52a9fe1,64d2fd46c836a06233681665,64dc7ebf96ba187eefe1fcec,,,,,,,decisionTrl,resources/DY.BMP,resources/DB.BMP,WildCard_Ex,0.207407407,0,1,0,0,0.646,optionRight,55,11605,5,41,0,41,0,1,,,,,,,,,,,,,,,,,,,,,,,,,,,,,,,,,,,,,,,
,,,,,,,,2023-08-16_08h46.41.042,HF_wild_card,2022.2.4,Win32,59.95203837,63f79eb498a9401ce52a9fe1,64d2fd46c836a06233681665,64dc7ebf96ba187eefe1fcec,,,,,,,ctch,resources/DG.BMP,resources/DP.BMP,Door3,0.353703704,-0.02962963,1,0,0,0.665,optionRight,70,11675,5,42,0,42,0,1,,,,,,,,,,,,,,,,,,,,,,,,,,,,,,,,,,,,,,,
,,,,,,,,2023-08-16_08h46.41.042,HF_wild_card,2022.2.4,Win32,59.95203837,63f79eb498a9401ce52a9fe1,64d2fd46c836a06233681665,64dc7ebf96ba187eefe1fcec,,,,,,,sngl,resources/Empty.png,resources/DB.BMP,WildCard_Ex,0.272222222,0.032407407,1,0,0,0.465,optionRight,45,11720,5,43,0,43,0,1,,,,,,,,,,,,,,,,,,,,,,,,,,,,,,,,,,,,,,,
,,,,,,,,2023-08-16_08h46.41.042,HF_wild_card,2022.2.4,Win32,59.95203837,63f79eb498a9401ce52a9fe1,64d2fd46c836a06233681665,64dc7ebf96ba187eefe1fcec,,,,,,,,,,,,,,,,,,,,,,,,,,4,0,4,0,1,,,,,,,,,,,,,,,,,,,,,,,,,,,,,,,,,,
,,,,,,,,2023-08-16_08h46.41.042,HF_wild_card,2022.2.4,Win32,59.95203837,63f79eb498a9401ce52a9fe1,64d2fd46c836a06233681665,64dc7ebf96ba187eefe1fcec,,,,,,,decisionTrl,resources/DBN.BMP,resources/DP.BMP,Door3,0.317592593,0.013888889,1,0,0,0.597,optionRight,70,11790,6,0,0,0,0,1,,,,,,,,,,,,,,,,,,,,,,,,,,,,,,,,,,,,,,,
,,,,,,,,2023-08-16_08h46.41.042,HF_wild_card,2022.2.4,Win32,59.95203837,63f79eb498a9401ce52a9fe1,64d2fd46c836a06233681665,64dc7ebf96ba187eefe1fcec,,,,,,,decisionTrl,resources/DG.BMP,resources/DY.BMP,Door2,-0.274074074,0.077777778,1,0,0,0.649,optionLeft,20,11810,6,1,0,1,0,1,,,,,,,,,,,,,,,,,,,,,,,,,,,,,,,,,,,,,,,
,,,,,,,,2023-08-16_08h46.41.042,HF_wild_card,2022.2.4,Win32,59.95203837,63f79eb498a9401ce52a9fe1,64d2fd46c836a06233681665,64dc7ebf96ba187eefe1fcec,,,,,,,decisionTrl,resources/DY.BMP,resources/DG.BMP,Door2,0.374074074,0.02962963,1,0,0,0.482,optionRight,40,11850,6,2,0,2,0,1,,,,,,,,,,,,,,,,,,,,,,,,,,,,,,,,,,,,,,,
,,,,,,,,2023-08-16_08h46.41.042,HF_wild_card,2022.2.4,Win32,59.95203837,63f79eb498a9401ce52a9fe1,64d2fd46c836a06233681665,64dc7ebf96ba187eefe1fcec,,,,,,,decisionTrl,resources/DP.BMP,resources/DB.BMP,Door3,-0.210185185,0.015740741,1,0,0,0.515,optionLeft,70,11920,6,3,0,3,0,1,,,,,,,,,,,,,,,,,,,,,,,,,,,,,,,,,,,,,,,
,,,,,,,,2023-08-16_08h46.41.042,HF_wild_card,2022.2.4,Win32,59.95203837,63f79eb498a9401ce52a9fe1,64d2fd46c836a06233681665,64dc7ebf96ba187eefe1fcec,,,,,,,sngl,resources/Empty.png,resources/DY.BMP,Door1,0.380555556,0,1,0,0,0.483,optionRight,30,11950,6,4,0,4,0,1,,,,,,,,,,,,,,,,,,,,,,,,,,,,,,,,,,,,,,,
,,,,,,,,2023-08-16_08h46.41.042,HF_wild_card,2022.2.4,Win32,59.95203837,63f79eb498a9401ce52a9fe1,64d2fd46c836a06233681665,64dc7ebf96ba187eefe1fcec,,,,,,,decisionTrl,resources/DY.BMP,resources/DG.BMP,Door2,0.289814815,0.033333333,1,0,0,0.633,optionRight,40,11990,6,5,0,5,0,1,,,,,,,,,,,,,,,,,,,,,,,,,,,,,,,,,,,,,,,
,,,,,,,,2023-08-16_08h46.41.042,HF_wild_card,2022.2.4,Win32,59.95203837,63f79eb498a9401ce52a9fe1,64d2fd46c836a06233681665,64dc7ebf96ba187eefe1fcec,,,,,,,ctch,resources/DG.BMP,resources/DP.BMP,Door3,0.275,-0.000925926,1,0,0,0.531,optionRight,70,12060,6,6,0,6,0,1,,,,,,,,,,,,,,,,,,,,,,,,,,,,,,,,,,,,,,,
,,,,,,,,2023-08-16_08h46.41.042,HF_wild_card,2022.2.4,Win32,59.95203837,63f79eb498a9401ce52a9fe1,64d2fd46c836a06233681665,64dc7ebf96ba187eefe1fcec,,,,,,,sngl,resources/Empty.png,resources/DG.BMP,Door2,0.307407407,-0.00462963,1,0,0,0.515,optionRight,40,12100,6,7,0,7,0,1,,,,,,,,,,,,,,,,,,,,,,,,,,,,,,,,,,,,,,,
,,,,,,,,2023-08-16_08h46.41.042,HF_wild_card,2022.2.4,Win32,59.95203837,63f79eb498a9401ce52a9fe1,64d2fd46c836a06233681665,64dc7ebf96ba187eefe1fcec,,,,,,,decisionTrl,resources/DG.BMP,resources/DB.BMP,WildCard_Ex,0.303703704,0.017592593,1,0,0,0.615,optionRight,45,12145,6,8,0,8,0,1,,,,,,,,,,,,,,,,,,,,,,,,,,,,,,,,,,,,,,,
,,,,,,,,2023-08-16_08h46.41.042,HF_wild_card,2022.2.4,Win32,59.95203837,63f79eb498a9401ce52a9fe1,64d2fd46c836a06233681665,64dc7ebf96ba187eefe1fcec,,,,,,,decisionTrl,resources/DBN.BMP,resources/DP.BMP,Door4,-0.237037037,0.009259259,1,0,0,0.549,optionLeft,60,12205,6,9,0,9,0,1,,,,,,,,,,,,,,,,,,,,,,,,,,,,,,,,,,,,,,,
,,,,,,,,2023-08-16_08h46.41.042,HF_wild_card,2022.2.4,Win32,59.95203837,63f79eb498a9401ce52a9fe1,64d2fd46c836a06233681665,64dc7ebf96ba187eefe1fcec,,,,,,,decisionTrl,resources/DY.BMP,resources/DB.BMP,WildCard_Ex,0.255555556,0.027777778,1,0,0,0.598,optionRight,55,12260,6,10,0,10,0,1,,,,,,,,,,,,,,,,,,,,,,,,,,,,,,,,,,,,,,,
,,,,,,,,2023-08-16_08h46.41.042,HF_wild_card,2022.2.4,Win32,59.95203837,63f79eb498a9401ce52a9fe1,64d2fd46c836a06233681665,64dc7ebf96ba187eefe1fcec,,,,,,,sngl,resources/Empty.png,resources/DB.BMP,WildCard_Ex,0.276851852,0.001851852,1,0,0,0.465,optionRight,45,12305,6,11,0,11,0,1,,,,,,,,,,,,,,,,,,,,,,,,,,,,,,,,,,,,,,,
,,,,,,,,2023-08-16_08h46.41.042,HF_wild_card,2022.2.4,Win32,59.95203837,63f79eb498a9401ce52a9fe1,64d2fd46c836a06233681665,64dc7ebf96ba187eefe1fcec,,,,,,,decisionTrl,resources/DB.BMP,resources/DG.BMP,WildCard_Ex,-0.266666667,0.051851852,1,0,0,0.582,optionLeft,45,12350,6,12,0,12,0,1,,,,,,,,,,,,,,,,,,,,,,,,,,,,,,,,,,,,,,,
,,,,,,,,2023-08-16_08h46.41.042,HF_wild_card,2022.2.4,Win32,59.95203837,63f79eb498a9401ce52a9fe1,64d2fd46c836a06233681665,64dc7ebf96ba187eefe1fcec,,,,,,,decisionTrl,resources/DP.BMP,resources/DBN.BMP,Door3,-0.260185185,0.039814815,1,0,0,0.799,optionLeft,70,12420,6,13,0,13,0,1,,,,,,,,,,,,,,,,,,,,,,,,,,,,,,,,,,,,,,,
,,,,,,,,2023-08-16_08h46.41.042,HF_wild_card,2022.2.4,Win32,59.95203837,63f79eb498a9401ce52a9fe1,64d2fd46c836a06233681665,64dc7ebf96ba187eefe1fcec,,,,,,,sngl,resources/Empty.png,resources/DP.BMP,Door3,0.22037037,0.007407407,1,0,0,0.498,optionRight,70,12490,6,14,0,14,0,1,,,,,,,,,,,,,,,,,,,,,,,,,,,,,,,,,,,,,,,
,,,,,,,,2023-08-16_08h46.41.042,HF_wild_card,2022.2.4,Win32,59.95203837,63f79eb498a9401ce52a9fe1,64d2fd46c836a06233681665,64dc7ebf96ba187eefe1fcec,,,,,,,decisionTrl,resources/DB.BMP,resources/DBN.BMP,Door4,0.319444444,0.008333333,1,0,0,0.699,optionRight,60,12550,6,15,0,15,0,1,,,,,,,,,,,,,,,,,,,,,,,,,,,,,,,,,,,,,,,
,,,,,,,,2023-08-16_08h46.41.042,HF_wild_card,2022.2.4,Win32,59.95203837,63f79eb498a9401ce52a9fe1,64d2fd46c836a06233681665,64dc7ebf96ba187eefe1fcec,,,,,,,sngl,resources/DBN.BMP,resources/Empty.png,Door4,-0.175925926,0.030555556,1,0,0,0.499,optionLeft,60,12610,6,16,0,16,0,1,,,,,,,,,,,,,,,,,,,,,,,,,,,,,,,,,,,,,,,
,,,,,,,,2023-08-16_08h46.41.042,HF_wild_card,2022.2.4,Win32,59.95203837,63f79eb498a9401ce52a9fe1,64d2fd46c836a06233681665,64dc7ebf96ba187eefe1fcec,,,,,,,decisionTrl,resources/DBN.BMP,resources/DP.BMP,Door3,0.2,0.008333333,1,0,0,0.732,optionRight,70,12680,6,17,0,17,0,1,,,,,,,,,,,,,,,,,,,,,,,,,,,,,,,,,,,,,,,
,,,,,,,,2023-08-16_08h46.41.042,HF_wild_card,2022.2.4,Win32,59.95203837,63f79eb498a9401ce52a9fe1,64d2fd46c836a06233681665,64dc7ebf96ba187eefe1fcec,,,,,,,decisionTrl,resources/DB.BMP,resources/DY.BMP,WildCard_Ex,-0.196296296,0.043518519,1,0,0,0.716,optionLeft,55,12735,6,18,0,18,0,1,,,,,,,,,,,,,,,,,,,,,,,,,,,,,,,,,,,,,,,
,,,,,,,,2023-08-16_08h46.41.042,HF_wild_card,2022.2.4,Win32,59.95203837,63f79eb498a9401ce52a9fe1,64d2fd46c836a06233681665,64dc7ebf96ba187eefe1fcec,,,,,,,decisionTrl,resources/DG.BMP,resources/DY.BMP,Door1,0.29537037,0.008333333,1,0,0,0.665,optionRight,30,12765,6,19,0,19,0,1,,,,,,,,,,,,,,,,,,,,,,,,,,,,,,,,,,,,,,,
,,,,,,,,2023-08-16_08h46.41.042,HF_wild_card,2022.2.4,Win32,59.95203837,63f79eb498a9401ce52a9fe1,64d2fd46c836a06233681665,64dc7ebf96ba187eefe1fcec,,,,,,,ctch,resources/DY.BMP,resources/DBN.BMP,Door4,0.275,0.018518519,1,0,0,0.548,optionRight,60,12825,6,20,0,20,0,1,,,,,,,,,,,,,,,,,,,,,,,,,,,,,,,,,,,,,,,
,,,,,,,,2023-08-16_08h46.41.042,HF_wild_card,2022.2.4,Win32,59.95203837,63f79eb498a9401ce52a9fe1,64d2fd46c836a06233681665,64dc7ebf96ba187eefe1fcec,,,,,,,sngl,resources/Empty.png,resources/DBN.BMP,Door4,0.334259259,-0.024074074,1,0,0,0.714,optionRight,80,12905,6,21,0,21,0,1,,,,,,,,,,,,,,,,,,,,,,,,,,,,,,,,,,,,,,,
,,,,,,,,2023-08-16_08h46.41.042,HF_wild_card,2022.2.4,Win32,59.95203837,63f79eb498a9401ce52a9fe1,64d2fd46c836a06233681665,64dc7ebf96ba187eefe1fcec,,,,,,,decisionTrl,resources/DP.BMP,resources/DBN.BMP,Door3,-0.239814815,0.052777778,1,0,0,0.716,optionLeft,70,12975,6,22,0,22,0,1,,,,,,,,,,,,,,,,,,,,,,,,,,,,,,,,,,,,,,,
,,,,,,,,2023-08-16_08h46.41.042,HF_wild_card,2022.2.4,Win32,59.95203837,63f79eb498a9401ce52a9fe1,64d2fd46c836a06233681665,64dc7ebf96ba187eefe1fcec,,,,,,,decisionTrl,resources/DG.BMP,resources/DY.BMP,Door1,0.235185185,0.013888889,1,0,0,0.549,optionRight,30,13005,6,23,0,23,0,1,,,,,,,,,,,,,,,,,,,,,,,,,,,,,,,,,,,,,,,
,,,,,,,,2023-08-16_08h46.41.042,HF_wild_card,2022.2.4,Win32,59.95203837,63f79eb498a9401ce52a9fe1,64d2fd46c836a06233681665,64dc7ebf96ba187eefe1fcec,,,,,,,decisionTrl,resources/DY.BMP,resources/DG.BMP,Door2,0.276851852,0.025,1,0,0,0.582,optionRight,40,13045,6,24,0,24,0,1,,,,,,,,,,,,,,,,,,,,,,,,,,,,,,,,,,,,,,,
,,,,,,,,2023-08-16_08h46.41.042,HF_wild_card,2022.2.4,Win32,59.95203837,63f79eb498a9401ce52a9fe1,64d2fd46c836a06233681665,64dc7ebf96ba187eefe1fcec,,,,,,,ctch,resources/DP.BMP,resources/DG.BMP,Door3,-0.181481481,0.041666667,1,0,0,0.482,optionLeft,70,13115,6,25,0,25,0,1,,,,,,,,,,,,,,,,,,,,,,,,,,,,,,,,,,,,,,,
,,,,,,,,2023-08-16_08h46.41.042,HF_wild_card,2022.2.4,Win32,59.95203837,63f79eb498a9401ce52a9fe1,64d2fd46c836a06233681665,64dc7ebf96ba187eefe1fcec,,,,,,,decisionTrl,resources/DG.BMP,resources/DY.BMP,Door1,0.212962963,0.025,1,0,0,0.598,optionRight,30,13145,6,26,0,26,0,1,,,,,,,,,,,,,,,,,,,,,,,,,,,,,,,,,,,,,,,
,,,,,,,,2023-08-16_08h46.41.042,HF_wild_card,2022.2.4,Win32,59.95203837,63f79eb498a9401ce52a9fe1,64d2fd46c836a06233681665,64dc7ebf96ba187eefe1fcec,,,,,,,ctch,resources/DG.BMP,resources/DP.BMP,Door3,0.312962963,0.042592593,1,0,0,0.498,optionRight,70,13215,6,27,0,27,0,1,,,,,,,,,,,,,,,,,,,,,,,,,,,,,,,,,,,,,,,
,,,,,,,,2023-08-16_08h46.41.042,HF_wild_card,2022.2.4,Win32,59.95203837,63f79eb498a9401ce52a9fe1,64d2fd46c836a06233681665,64dc7ebf96ba187eefe1fcec,,,,,,,ctch,resources/DP.BMP,resources/DG.BMP,Door3,-0.232407407,0.027777778,1,0,0,0.496,optionLeft,70,13285,6,28,0,28,0,1,,,,,,,,,,,,,,,,,,,,,,,,,,,,,,,,,,,,,,,
,,,,,,,,2023-08-16_08h46.41.042,HF_wild_card,2022.2.4,Win32,59.95203837,63f79eb498a9401ce52a9fe1,64d2fd46c836a06233681665,64dc7ebf96ba187eefe1fcec,,,,,,,sngl,resources/DG.BMP,resources/Empty.png,Door2,-0.212037037,0.055555556,1,0,0,0.499,optionLeft,20,13305,6,29,0,29,0,1,,,,,,,,,,,,,,,,,,,,,,,,,,,,,,,,,,,,,,,
,,,,,,,,2023-08-16_08h46.41.042,HF_wild_card,2022.2.4,Win32,59.95203837,63f79eb498a9401ce52a9fe1,64d2fd46c836a06233681665,64dc7ebf96ba187eefe1fcec,,,,,,,ctch,resources/DY.BMP,resources/DBN.BMP,Door4,0.285185185,0.002777778,1,0,0,0.481,optionRight,60,13365,6,30,0,30,0,1,,,,,,,,,,,,,,,,,,,,,,,,,,,,,,,,,,,,,,,
,,,,,,,,2023-08-16_08h46.41.042,HF_wild_card,2022.2.4,Win32,59.95203837,63f79eb498a9401ce52a9fe1,64d2fd46c836a06233681665,64dc7ebf96ba187eefe1fcec,,,,,,,sngl,resources/DY.BMP,resources/Empty.png,Door1,-0.162962963,0.033333333,1,0,0,0.449,optionLeft,30,13395,6,31,0,31,0,1,,,,,,,,,,,,,,,,,,,,,,,,,,,,,,,,,,,,,,,
,,,,,,,,2023-08-16_08h46.41.042,HF_wild_card,2022.2.4,Win32,59.95203837,63f79eb498a9401ce52a9fe1,64d2fd46c836a06233681665,64dc7ebf96ba187eefe1fcec,,,,,,,ctch,resources/DBN.BMP,resources/DY.BMP,Door4,-0.310185185,0.07037037,1,0,0,0.532,optionLeft,60,13455,6,32,0,32,0,1,,,,,,,,,,,,,,,,,,,,,,,,,,,,,,,,,,,,,,,
,,,,,,,,2023-08-16_08h46.41.042,HF_wild_card,2022.2.4,Win32,59.95203837,63f79eb498a9401ce52a9fe1,64d2fd46c836a06233681665,64dc7ebf96ba187eefe1fcec,,,,,,,decisionTrl,resources/DB.BMP,resources/DP.BMP,Door3,0.257407407,0.008333333,1,0,0,0.582,optionRight,70,13525,6,33,0,33,0,1,,,,,,,,,,,,,,,,,,,,,,,,,,,,,,,,,,,,,,,
,,,,,,,,2023-08-16_08h46.41.042,HF_wild_card,2022.2.4,Win32,59.95203837,63f79eb498a9401ce52a9fe1,64d2fd46c836a06233681665,64dc7ebf96ba187eefe1fcec,,,,,,,sngl,resources/Empty.png,resources/DB.BMP,WildCard_Ex,0.248148148,-0.000925926,1,0,0,0.483,optionRight,55,13580,6,34,0,34,0,1,,,,,,,,,,,,,,,,,,,,,,,,,,,,,,,,,,,,,,,
,,,,,,,,2023-08-16_08h46.41.042,HF_wild_card,2022.2.4,Win32,59.95203837,63f79eb498a9401ce52a9fe1,64d2fd46c836a06233681665,64dc7ebf96ba187eefe1fcec,,,,,,,decisionTrl,resources/DBN.BMP,resources/DB.BMP,Door4,-0.263888889,0.049074074,1,0,0,0.582,optionLeft,60,13640,6,35,0,35,0,1,,,,,,,,,,,,,,,,,,,,,,,,,,,,,,,,,,,,,,,
,,,,,,,,2023-08-16_08h46.41.042,HF_wild_card,2022.2.4,Win32,59.95203837,63f79eb498a9401ce52a9fe1,64d2fd46c836a06233681665,64dc7ebf96ba187eefe1fcec,,,,,,,decisionTrl,resources/DY.BMP,resources/DG.BMP,Door2,0.238888889,0.031481481,1,0,0,0.699,optionRight,20,13660,6,36,0,36,0,1,,,,,,,,,,,,,,,,,,,,,,,,,,,,,,,,,,,,,,,
,,,,,,,,2023-08-16_08h46.41.042,HF_wild_card,2022.2.4,Win32,59.95203837,63f79eb498a9401ce52a9fe1,64d2fd46c836a06233681665,64dc7ebf96ba187eefe1fcec,,,,,,,sngl,resources/DB.BMP,resources/Empty.png,WildCard_Ex,-0.207407407,0.040740741,1,0,0,0.482,optionLeft,45,13705,6,37,0,37,0,1,,,,,,,,,,,,,,,,,,,,,,,,,,,,,,,,,,,,,,,
,,,,,,,,2023-08-16_08h46.41.042,HF_wild_card,2022.2.4,Win32,59.95203837,63f79eb498a9401ce52a9fe1,64d2fd46c836a06233681665,64dc7ebf96ba187eefe1fcec,,,,,,,sngl,resources/DP.BMP,resources/Empty.png,Door3,-0.287037037,0.05462963,1,0,0,0.466,optionLeft,70,13775,6,38,0,38,0,1,,,,,,,,,,,,,,,,,,,,,,,,,,,,,,,,,,,,,,,
,,,,,,,,2023-08-16_08h46.41.042,HF_wild_card,2022.2.4,Win32,59.95203837,63f79eb498a9401ce52a9fe1,64d2fd46c836a06233681665,64dc7ebf96ba187eefe1fcec,,,,,,,sngl,resources/DB.BMP,resources/Empty.png,WildCard_Ex,-0.17037037,0.013888889,1,0,0,0.465,optionLeft,55,13830,6,39,0,39,0,1,,,,,,,,,,,,,,,,,,,,,,,,,,,,,,,,,,,,,,,
,,,,,,,,2023-08-16_08h46.41.042,HF_wild_card,2022.2.4,Win32,59.95203837,63f79eb498a9401ce52a9fe1,64d2fd46c836a06233681665,64dc7ebf96ba187eefe1fcec,,,,,,,decisionTrl,resources/DP.BMP,resources/DBN.BMP,Door4,0.456481481,-0.022222222,1,0,0,0.498,optionRight,60,13890,6,40,0,40,0,1,,,,,,,,,,,,,,,,,,,,,,,,,,,,,,,,,,,,,,,
,,,,,,,,2023-08-16_08h46.41.042,HF_wild_card,2022.2.4,Win32,59.95203837,63f79eb498a9401ce52a9fe1,64d2fd46c836a06233681665,64dc7ebf96ba187eefe1fcec,,,,,,,ctch,resources/DBN.BMP,resources/DY.BMP,Door4,-0.201851852,0,1,0,0,0.516,optionLeft,80,13970,6,41,0,41,0,1,,,,,,,,,,,,,,,,,,,,,,,,,,,,,,,,,,,,,,,
,,,,,,,,2023-08-16_08h46.41.042,HF_wild_card,2022.2.4,Win32,59.95203837,63f79eb498a9401ce52a9fe1,64d2fd46c836a06233681665,64dc7ebf96ba187eefe1fcec,,,,,,,decisionTrl,resources/DBN.BMP,resources/DP.BMP,Door3,0.322222222,-0.014814815,1,0,0,0.716,optionRight,70,14040,6,42,0,42,0,1,,,,,,,,,,,,,,,,,,,,,,,,,,,,,,,,,,,,,,,
,,,,,,,,2023-08-16_08h46.41.042,HF_wild_card,2022.2.4,Win32,59.95203837,63f79eb498a9401ce52a9fe1,64d2fd46c836a06233681665,64dc7ebf96ba187eefe1fcec,,,,,,,decisionTrl,resources/DP.BMP,resources/DBN.BMP,Door3,-0.275925926,0.025,1,0,0,0.483,optionLeft,70,14110,6,43,0,43,0,1,,,,,,,,,,,,,,,,,,,,,,,,,,,,,,,,,,,,,,,
,,,,,,,,2023-08-16_08h46.41.042,HF_wild_card,2022.2.4,Win32,59.95203837,63f79eb498a9401ce52a9fe1,64d2fd46c836a06233681665,64dc7ebf96ba187eefe1fcec,,,,,,,,,,,,,,,,,,,,,,,,,,5,0,5,0,1,,,,,,,,,,,,,,,,,,,,,,,,,,,,,,,,,,
,,,,,,,,2023-08-16_08h46.41.042,HF_wild_card,2022.2.4,Win32,59.95203837,63f79eb498a9401ce52a9fe1,64d2fd46c836a06233681665,64dc7ebf96ba187eefe1fcec,,,,,,,decisionTrl,resources/DY.BMP,resources/DG.BMP,Door2,0.264814815,-0.00462963,1,0,0,0.846,optionRight,20,14130,7,0,0,0,0,1,,,,,,,,,,,,,,,,,,,,,,,,,,,,,,,,,,,,,,,
,,,,,,,,2023-08-16_08h46.41.042,HF_wild_card,2022.2.4,Win32,59.95203837,63f79eb498a9401ce52a9fe1,64d2fd46c836a06233681665,64dc7ebf96ba187eefe1fcec,,,,,,,decisionTrl,resources/DBN.BMP,resources/DP.BMP,Door3,0.322222222,0.02037037,1,0,0,0.733,optionRight,70,14200,7,1,0,1,0,1,,,,,,,,,,,,,,,,,,,,,,,,,,,,,,,,,,,,,,,
,,,,,,,,2023-08-16_08h46.41.042,HF_wild_card,2022.2.4,Win32,59.95203837,63f79eb498a9401ce52a9fe1,64d2fd46c836a06233681665,64dc7ebf96ba187eefe1fcec,,,,,,,ctch,resources/DBN.BMP,resources/DY.BMP,Door4,-0.276851852,0.074074074,1,0,0,0.566,optionLeft,80,14280,7,2,0,2,0,1,,,,,,,,,,,,,,,,,,,,,,,,,,,,,,,,,,,,,,,
,,,,,,,,2023-08-16_08h46.41.042,HF_wild_card,2022.2.4,Win32,59.95203837,63f79eb498a9401ce52a9fe1,64d2fd46c836a06233681665,64dc7ebf96ba187eefe1fcec,,,,,,,ctch,resources/DG.BMP,resources/DP.BMP,Door3,0.267592593,-0.003703704,1,0,0,0.467,optionRight,70,14350,7,3,0,3,0,1,,,,,,,,,,,,,,,,,,,,,,,,,,,,,,,,,,,,,,,
,,,,,,,,2023-08-16_08h46.41.042,HF_wild_card,2022.2.4,Win32,59.95203837,63f79eb498a9401ce52a9fe1,64d2fd46c836a06233681665,64dc7ebf96ba187eefe1fcec,,,,,,,ctch,resources/DY.BMP,resources/DBN.BMP,Door4,0.205555556,0.014814815,1,0,0,0.566,optionRight,60,14410,7,4,0,4,0,1,,,,,,,,,,,,,,,,,,,,,,,,,,,,,,,,,,,,,,,
,,,,,,,,2023-08-16_08h46.41.042,HF_wild_card,2022.2.4,Win32,59.95203837,63f79eb498a9401ce52a9fe1,64d2fd46c836a06233681665,64dc7ebf96ba187eefe1fcec,,,,,,,decisionTrl,resources/DY.BMP,resources/DG.BMP,Door2,0.412962963,0.005555556,1,0,0,0.683,optionRight,40,14450,7,5,0,5,0,1,,,,,,,,,,,,,,,,,,,,,,,,,,,,,,,,,,,,,,,
,,,,,,,,2023-08-16_08h46.41.042,HF_wild_card,2022.2.4,Win32,59.95203837,63f79eb498a9401ce52a9fe1,64d2fd46c836a06233681665,64dc7ebf96ba187eefe1fcec,,,,,,,decisionTrl,resources/DY.BMP,resources/DG.BMP,Door2,0.2,0.051851852,1,0,0,0.599,optionRight,20,14470,7,6,0,6,0,1,,,,,,,,,,,,,,,,,,,,,,,,,,,,,,,,,,,,,,,
,,,,,,,,2023-08-16_08h46.41.042,HF_wild_card,2022.2.4,Win32,59.95203837,63f79eb498a9401ce52a9fe1,64d2fd46c836a06233681665,64dc7ebf96ba187eefe1fcec,,,,,,,decisionTrl,resources/DG.BMP,resources/DY.BMP,Door2,-0.290740741,0.125925926,1,0,0,0.566,optionLeft,20,14490,7,7,0,7,0,1,,,,,,,,,,,,,,,,,,,,,,,,,,,,,,,,,,,,,,,
,,,,,,,,2023-08-16_08h46.41.042,HF_wild_card,2022.2.4,Win32,59.95203837,63f79eb498a9401ce52a9fe1,64d2fd46c836a06233681665,64dc7ebf96ba187eefe1fcec,,,,,,,ctch,resources/DY.BMP,resources/DBN.BMP,Door4,0.362962963,0.065740741,1,0,0,0.532,optionRight,80,14570,7,8,0,8,0,1,,,,,,,,,,,,,,,,,,,,,,,,,,,,,,,,,,,,,,,
,,,,,,,,2023-08-16_08h46.41.042,HF_wild_card,2022.2.4,Win32,59.95203837,63f79eb498a9401ce52a9fe1,64d2fd46c836a06233681665,64dc7ebf96ba187eefe1fcec,,,,,,,decisionTrl,resources/DG.BMP,resources/DY.BMP,Door2,-0.260185185,0.027777778,1,0,0,0.616,optionLeft,40,14610,7,9,0,9,0,1,,,,,,,,,,,,,,,,,,,,,,,,,,,,,,,,,,,,,,,
,,,,,,,,2023-08-16_08h46.41.042,HF_wild_card,2022.2.4,Win32,59.95203837,63f79eb498a9401ce52a9fe1,64d2fd46c836a06233681665,64dc7ebf96ba187eefe1fcec,,,,,,,decisionTrl,resources/DP.BMP,resources/DBN.BMP,Door3,-0.237962963,0.025925926,1,0,0,0.883,optionLeft,70,14680,7,10,0,10,0,1,,,,,,,,,,,,,,,,,,,,,,,,,,,,,,,,,,,,,,,
,,,,,,,,2023-08-16_08h46.41.042,HF_wild_card,2022.2.4,Win32,59.95203837,63f79eb498a9401ce52a9fe1,64d2fd46c836a06233681665,64dc7ebf96ba187eefe1fcec,,,,,,,decisionTrl,resources/DP.BMP,resources/DBN.BMP,Door3,-0.284259259,0.065740741,1,0,0,0.566,optionLeft,70,14750,7,11,0,11,0,1,,,,,,,,,,,,,,,,,,,,,,,,,,,,,,,,,,,,,,,
,,,,,,,,2023-08-16_08h46.41.042,HF_wild_card,2022.2.4,Win32,59.95203837,63f79eb498a9401ce52a9fe1,64d2fd46c836a06233681665,64dc7ebf96ba187eefe1fcec,,,,,,,decisionTrl,resources/DBN.BMP,resources/DP.BMP,Door3,0.340740741,0.065740741,1,0,0,0.598,optionRight,70,14820,7,12,0,12,0,1,,,,,,,,,,,,,,,,,,,,,,,,,,,,,,,,,,,,,,,
,,,,,,,,2023-08-16_08h46.41.042,HF_wild_card,2022.2.4,Win32,59.95203837,63f79eb498a9401ce52a9fe1,64d2fd46c836a06233681665,64dc7ebf96ba187eefe1fcec,,,,,,,decisionTrl,resources/DY.BMP,resources/DG.BMP,Door2,0.306481481,0.07037037,1,0,0,0.566,optionRight,40,14860,7,13,0,13,0,1,,,,,,,,,,,,,,,,,,,,,,,,,,,,,,,,,,,,,,,
,,,,,,,,2023-08-16_08h46.41.042,HF_wild_card,2022.2.4,Win32,59.95203837,63f79eb498a9401ce52a9fe1,64d2fd46c836a06233681665,64dc7ebf96ba187eefe1fcec,,,,,,,decisionTrl,resources/DBN.BMP,resources/DP.BMP,Door3,0.262962963,0.033333333,1,0,0,0.583,optionRight,70,14930,7,14,0,14,0,1,,,,,,,,,,,,,,,,,,,,,,,,,,,,,,,,,,,,,,,
,,,,,,,,2023-08-16_08h46.41.042,HF_wild_card,2022.2.4,Win32,59.95203837,63f79eb498a9401ce52a9fe1,64d2fd46c836a06233681665,64dc7ebf96ba187eefe1fcec,,,,,,,ctch,resources/DP.BMP,resources/DG.BMP,Door3,-0.174074074,0.033333333,1,0,0,0.515,optionLeft,70,15000,7,15,0,15,0,1,,,,,,,,,,,,,,,,,,,,,,,,,,,,,,,,,,,,,,,
,,,,,,,,2023-08-16_08h46.41.042,HF_wild_card,2022.2.4,Win32,59.95203837,63f79eb498a9401ce52a9fe1,64d2fd46c836a06233681665,64dc7ebf96ba187eefe1fcec,,,,,,,decisionTrl,resources/DBN.BMP,resources/DP.BMP,Door3,0.214814815,0.030555556,1,0,0,0.565,optionRight,70,15070,7,16,0,16,0,1,,,,,,,,,,,,,,,,,,,,,,,,,,,,,,,,,,,,,,,
,,,,,,,,2023-08-16_08h46.41.042,HF_wild_card,2022.2.4,Win32,59.95203837,63f79eb498a9401ce52a9fe1,64d2fd46c836a06233681665,64dc7ebf96ba187eefe1fcec,,,,,,,decisionTrl,resources/DP.BMP,resources/DBN.BMP,Door3,-0.233333333,0.02962963,1,0,0,0.549,optionLeft,70,15140,7,17,0,17,0,1,,,,,,,,,,,,,,,,,,,,,,,,,,,,,,,,,,,,,,,
,,,,,,,,2023-08-16_08h46.41.042,HF_wild_card,2022.2.4,Win32,59.95203837,63f79eb498a9401ce52a9fe1,64d2fd46c836a06233681665,64dc7ebf96ba187eefe1fcec,,,,,,,decisionTrl,resources/DP.BMP,resources/DBN.BMP,Door3,-0.238888889,0.044444444,1,0,0,0.55,optionLeft,70,15210,7,18,0,18,0,1,,,,,,,,,,,,,,,,,,,,,,,,,,,,,,,,,,,,,,,
,,,,,,,,2023-08-16_08h46.41.042,HF_wild_card,2022.2.4,Win32,59.95203837,63f79eb498a9401ce52a9fe1,64d2fd46c836a06233681665,64dc7ebf96ba187eefe1fcec,,,,,,,ctch,resources/DP.BMP,resources/DG.BMP,Door3,-0.209259259,0.058333333,1,0,0,0.482,optionLeft,70,15280,7,19,0,19,0,1,,,,,,,,,,,,,,,,,,,,,,,,,,,,,,,,,,,,,,,
,,,,,,,,2023-08-16_08h46.41.042,HF_wild_card,2022.2.4,Win32,59.95203837,63f79eb498a9401ce52a9fe1,64d2fd46c836a06233681665,64dc7ebf96ba187eefe1fcec,,,,,,,decisionTrl,resources/DY.BMP,resources/DG.BMP,Door2,0.217592593,0.058333333,1,0,0,0.499,optionRight,20,15300,7,20,0,20,0,1,,,,,,,,,,,,,,,,,,,,,,,,,,,,,,,,,,,,,,,
,,,,,,,,2023-08-16_08h46.41.042,HF_wild_card,2022.2.4,Win32,59.95203837,63f79eb498a9401ce52a9fe1,64d2fd46c836a06233681665,64dc7ebf96ba187eefe1fcec,,,,,,,decisionTrl,resources/DG.BMP,resources/DY.BMP,Door2,-0.222222222,0.023148148,1,0,0,0.499,optionLeft,20,15320,7,21,0,21,0,1,,,,,,,,,,,,,,,,,,,,,,,,,,,,,,,,,,,,,,,
,,,,,,,,2023-08-16_08h46.41.042,HF_wild_card,2022.2.4,Win32,59.95203837,63f79eb498a9401ce52a9fe1,64d2fd46c836a06233681665,64dc7ebf96ba187eefe1fcec,,,,,,,decisionTrl,resources/DP.BMP,resources/DBN.BMP,Door3,-0.212962963,0.061111111,1,0,0,0.549,optionLeft,70,15390,7,22,0,22,0,1,,,,,,,,,,,,,,,,,,,,,,,,,,,,,,,,,,,,,,,
,,,,,,,,2023-08-16_08h46.41.042,HF_wild_card,2022.2.4,Win32,59.95203837,63f79eb498a9401ce52a9fe1,64d2fd46c836a06233681665,64dc7ebf96ba187eefe1fcec,,,,,,,ctch,resources/DY.BMP,resources/DBN.BMP,Door4,0.35,0.00462963,1,0,0,0.516,optionRight,60,15450,7,23,0,23,0,1,,,,,,,,,,,,,,,,,,,,,,,,,,,,,,,,,,,,,,,
,,,,,,,,2023-08-16_08h46.41.042,HF_wild_card,2022.2.4,Win32,59.95203837,63f79eb498a9401ce52a9fe1,64d2fd46c836a06233681665,64dc7ebf96ba187eefe1fcec,,,,,,,ctch,resources/DG.BMP,resources/DP.BMP,Door3,0.238888889,0.036111111,1,0,0,0.482,optionRight,70,15520,7,24,0,24,0,1,,,,,,,,,,,,,,,,,,,,,,,,,,,,,,,,,,,,,,,
,,,,,,,,2023-08-16_08h46.41.042,HF_wild_card,2022.2.4,Win32,59.95203837,63f79eb498a9401ce52a9fe1,64d2fd46c836a06233681665,64dc7ebf96ba187eefe1fcec,,,,,,,ctch,resources/DP.BMP,resources/DG.BMP,Door3,-0.17962963,0.042592593,1,0,0,0.465,optionLeft,70,15590,7,25,0,25,0,1,,,,,,,,,,,,,,,,,,,,,,,,,,,,,,,,,,,,,,,
,,,,,,,,2023-08-16_08h46.41.042,HF_wild_card,2022.2.4,Win32,59.95203837,63f79eb498a9401ce52a9fe1,64d2fd46c836a06233681665,64dc7ebf96ba187eefe1fcec,,,,,,,ctch,resources/DBN.BMP,resources/DY.BMP,Door4,-0.139814815,0.025925926,1,0,0,0.533,optionLeft,80,15670,7,26,0,26,0,1,,,,,,,,,,,,,,,,,,,,,,,,,,,,,,,,,,,,,,,
,,,,,,,,2023-08-16_08h46.41.042,HF_wild_card,2022.2.4,Win32,59.95203837,63f79eb498a9401ce52a9fe1,64d2fd46c836a06233681665,64dc7ebf96ba187eefe1fcec,,,,,,,ctch,resources/DBN.BMP,resources/DY.BMP,Door4,-0.157407407,0.038888889,1,0,0,0.516,optionLeft,60,15730,7,27,0,27,0,1,,,,,,,,,,,,,,,,,,,,,,,,,,,,,,,,,,,,,,,
,,,,,,,,2023-08-16_08h46.41.042,HF_wild_card,2022.2.4,Win32,59.95203837,63f79eb498a9401ce52a9fe1,64d2fd46c836a06233681665,64dc7ebf96ba187eefe1fcec,,,,,,,decisionTrl,resources/DBN.BMP,resources/DP.BMP,Door3,0.207407407,0.037962963,1,0,0,0.549,optionRight,70,15800,7,28,0,28,0,1,,,,,,,,,,,,,,,,,,,,,,,,,,,,,,,,,,,,,,,
,,,,,,,,2023-08-16_08h46.41.042,HF_wild_card,2022.2.4,Win32,59.95203837,63f79eb498a9401ce52a9fe1,64d2fd46c836a06233681665,64dc7ebf96ba187eefe1fcec,,,,,,,decisionTrl,resources/DG.BMP,resources/DY.BMP,Door2,-0.189814815,0.04537037,1,0,0,0.498,optionLeft,20,15820,7,29,0,29,0,1,,,,,,,,,,,,,,,,,,,,,,,,,,,,,,,,,,,,,,,
,,,,,,,,2023-08-16_08h46.41.042,HF_wild_card,2022.2.4,Win32,59.95203837,63f79eb498a9401ce52a9fe1,64d2fd46c836a06233681665,64dc7ebf96ba187eefe1fcec,,,,,,,decisionTrl,resources/DG.BMP,resources/DY.BMP,Door2,-0.162962963,0.04537037,1,0,0,0.5,optionLeft,20,15840,7,30,0,30,0,1,,,,,,,,,,,,,,,,,,,,,,,,,,,,,,,,,,,,,,,
,,,,,,,,2023-08-16_08h46.41.042,HF_wild_card,2022.2.4,Win32,59.95203837,63f79eb498a9401ce52a9fe1,64d2fd46c836a06233681665,64dc7ebf96ba187eefe1fcec,,,,,,,decisionTrl,resources/DG.BMP,resources/DY.BMP,Door2,-0.201851852,0.053703704,1,0,0,0.55,optionLeft,20,15860,7,31,0,31,0,1,,,,,,,,,,,,,,,,,,,,,,,,,,,,,,,,,,,,,,,
,,,,,,,,2023-08-16_08h46.41.042,HF_wild_card,2022.2.4,Win32,59.95203837,63f79eb498a9401ce52a9fe1,64d2fd46c836a06233681665,64dc7ebf96ba187eefe1fcec,,,,,,,ctch,resources/DG.BMP,resources/DP.BMP,Door3,0.236111111,0.032407407,1,0,0,0.498,optionRight,70,15930,7,32,0,32,0,1,,,,,,,,,,,,,,,,,,,,,,,,,,,,,,,,,,,,,,,
,,,,,,,,2023-08-16_08h46.41.042,HF_wild_card,2022.2.4,Win32,59.95203837,63f79eb498a9401ce52a9fe1,64d2fd46c836a06233681665,64dc7ebf96ba187eefe1fcec,,,,,,,decisionTrl,resources/DBN.BMP,resources/DP.BMP,Door3,0.150925926,0.041666667,1,0,0,0.516,optionRight,70,16000,7,33,0,33,0,1,,,,,,,,,,,,,,,,,,,,,,,,,,,,,,,,,,,,,,,
,,,,,,,,2023-08-16_08h46.41.042,HF_wild_card,2022.2.4,Win32,59.95203837,63f79eb498a9401ce52a9fe1,64d2fd46c836a06233681665,64dc7ebf96ba187eefe1fcec,,,,,,,decisionTrl,resources/DP.BMP,resources/DBN.BMP,Door3,-0.209259259,0.022222222,1,0,0,0.515,optionLeft,70,16070,7,34,0,34,0,1,,,,,,,,,,,,,,,,,,,,,,,,,,,,,,,,,,,,,,,
,,,,,,,,2023-08-16_08h46.41.042,HF_wild_card,2022.2.4,Win32,59.95203837,63f79eb498a9401ce52a9fe1,64d2fd46c836a06233681665,64dc7ebf96ba187eefe1fcec,,,,,,,decisionTrl,resources/DY.BMP,resources/DG.BMP,Door2,0.263888889,0.014814815,1,0,0,0.566,optionRight,20,16090,7,35,0,35,0,1,,,,,,,,,,,,,,,,,,,,,,,,,,,,,,,,,,,,,,,
,,,,,,,,2023-08-16_08h46.41.042,HF_wild_card,2022.2.4,Win32,59.95203837,63f79eb498a9401ce52a9fe1,64d2fd46c836a06233681665,64dc7ebf96ba187eefe1fcec,,,,,,,,,,,,,,,,,,,,,,,,,,6,0,6,0,1,,,,,,,,,,,,,,,,,,,,,,,,,,,,,,,,,,
,,,,,,,,2023-08-16_08h46.41.042,HF_wild_card,2022.2.4,Win32,59.95203837,63f79eb498a9401ce52a9fe1,64d2fd46c836a06233681665,64dc7ebf96ba187eefe1fcec,,,,,,,,,,,,,,,,,,,,,,,,,,,,,,,4,,,,,,,,,,,,,,,,,,,,,,,,,,,,,,,,,
,,,,,,,,2023-08-16_08h46.41.042,HF_wild_card,2022.2.4,Win32,59.95203837,63f79eb498a9401ce52a9fe1,64d2fd46c836a06233681665,64dc7ebf96ba187eefe1fcec,,,,,,,,,,,,,,,,,,,,,,,,,,,,,,,,,,,,,,,,,,,,,,,,,,,,,,,,,,,,,,,,
,,,,,,,,2023-08-16_08h46.41.042,HF_wild_card,2022.2.4,Win32,59.95203837,63f79eb498a9401ce52a9fe1,64d2fd46c836a06233681665,64dc7ebf96ba187eefe1fcec,,,,,,,,,,,,,,,,,,,,,,,,,,,,,,,,50,Door2,resources/DG.BMP,0,0,0,0,1,,,,,,,,,,,,,,,,,,,,,,,,,
,,,,,,,,2023-08-16_08h46.41.042,HF_wild_card,2022.2.4,Win32,59.95203837,63f79eb498a9401ce52a9fe1,64d2fd46c836a06233681665,64dc7ebf96ba187eefe1fcec,,,,,,,,,,,,,,,,,,,,,,,,,,,,,,,,70,Door3,resources/DP.BMP,1,0,1,0,1,,,,,,,,,,,,,,,,,,,,,,,,,
,,,,,,,,2023-08-16_08h46.41.042,HF_wild_card,2022.2.4,Win32,59.95203837,63f79eb498a9401ce52a9fe1,64d2fd46c836a06233681665,64dc7ebf96ba187eefe1fcec,,,,,,,,,,,,,,,,,,,,,,,,,,,,,,,,20,Door1,resources/DY.BMP,2,0,2,0,1,,,,,,,,,,,,,,,,,,,,,,,,,
,,,,,,,,2023-08-16_08h46.41.042,HF_wild_card,2022.2.4,Win32,59.95203837,63f79eb498a9401ce52a9fe1,64d2fd46c836a06233681665,64dc7ebf96ba187eefe1fcec,,,,,,,,,,,,,,,,,,,,,,,,,,,,,,,,80,Door4,resources/DBN.BMP,3,0,3,0,1,,,,,,,,,,,,,,,,,,,,,,,,,
,,,,,,,,2023-08-16_08h46.41.042,HF_wild_card,2022.2.4,Win32,59.95203837,63f79eb498a9401ce52a9fe1,64d2fd46c836a06233681665,64dc7ebf96ba187eefe1fcec,,,,,,,,,,,,,,,,,,,,,,,,,,,,,,,,55,WC_extreme,resources/DB.BMP,4,0,4,0,1,,,,,,,,,,,,,,,,,,,,,,,,,
,,,,,,,,2023-08-16_08h46.41.042,HF_wild_card,2022.2.4,Win32,59.95203837,63f79eb498a9401ce52a9fe1,64d2fd46c836a06233681665,64dc7ebf96ba187eefe1fcec,,,,,,,,,,,,,,,,,,,,,,,,,,,,,,,,45,WC_nonExtreme,resources/DR.BMP,5,0,5,0,1,,,,,,,,,,,,,,,,,,,,,,,,,
,,,,,,,,2023-08-16_08h46.41.042,HF_wild_card,2022.2.4,Win32,59.95203837,63f79eb498a9401ce52a9fe1,64d2fd46c836a06233681665,64dc7ebf96ba187eefe1fcec,,,,,,,,,,,,,,,,,,,,,,,,,,,,,,,,,,,,,,,,,,,,,,,,,,,,,,,,,,,,,,,,
,,,,,,,,2023-08-16_08h46.41.042,HF_wild_card,2022.2.4,Win32,59.95203837,63f79eb498a9401ce52a9fe1,64d2fd46c836a06233681665,64dc7ebf96ba187eefe1fcec,,,,,,,,,,,,,,,,,,,,,,,,,,,,,,,,,,,,,,,,0,0,0,0,1,,,,,,,,,,,,,,,,,,,,
,,,,,,,,2023-08-16_08h46.41.042,HF_wild_card,2022.2.4,Win32,59.95203837,63f79eb498a9401ce52a9fe1,64d2fd46c836a06233681665,64dc7ebf96ba187eefe1fcec,,,,,,,,,,,,,,,,,,,,,,,,,,,,,,,,,,,,,,,,1,0,1,0,1,,,,,,,,,,,,,,,,,,,,
,,,,,,,,2023-08-16_08h46.41.042,HF_wild_card,2022.2.4,Win32,59.95203837,63f79eb498a9401ce52a9fe1,64d2fd46c836a06233681665,64dc7ebf96ba187eefe1fcec,,,,,,,,,,,,,,,,,,,,,,,,,,,,,,,,,,,,,,,,,,,,,-0.296296296,-0.414814815,1,0,0,yes,40%,60%,Door2,resources/DG.BMP,0,0,0,0,1,,,,,
