Condition,Low fixed image (Door1),Low risky image (Door2),High fixed image (Door3),High risky image (Door4),NonExtreme Wild Card 1,NonExtreme Wild Card 2,,date,expName,psychopyVersion,OS,frameRate,PROLIFIC_PID,STUDY_ID,SESSION_ID,mouse_2.x,mouse_2.y,mouse_2.leftButton,mouse_2.midButton,mouse_2.rightButton,mouse_2.clicked_name,Trial Type,Left Option Image,Right Option Image,Chosen Door,mouse.x,mouse.y,mouse.leftButton,mouse.midButton,mouse.rightButton,mouse.time,mouse.clicked_name,Feedback,Cumulative Reward,Block,trial.thisRepN,trial.thisTrialN,trial.thisN,trial.thisIndex,trial.ran
2,resources/DBN.BMP,resources/DR.BMP,resources/DG.BMP,resources/DB.BMP,resources/DY.BMP,resources/DP.BMP,,2023-08-16_08h49.12,HF_wild_card,2022.2.4,MacIntel,90.90909091,5894b2033e061b0001dff3d3,64d2fd46c836a06233681665,64dc7e51efbc35fa1e2eb119,,,,,,,,,,,,,,,,,,,,,,,,,
,,,,,,,,2023-08-16_08h49.12,HF_wild_card,2022.2.4,MacIntel,90.90909091,5894b2033e061b0001dff3d3,64d2fd46c836a06233681665,64dc7e51efbc35fa1e2eb119,0.00125,-0.4175,1,0,0,agree,,,,,,,,,,,,,,,,,,,
,,,,,,,,2023-08-16_08h49.12,HF_wild_card,2022.2.4,MacIntel,90.90909091,5894b2033e061b0001dff3d3,64d2fd46c836a06233681665,64dc7e51efbc35fa1e2eb119,,,,,,,,,,,,,,,,,,,,,,,,,
,,,,,,,,2023-08-16_08h49.12,HF_wild_card,2022.2.4,MacIntel,90.90909091,5894b2033e061b0001dff3d3,64d2fd46c836a06233681665,64dc7e51efbc35fa1e2eb119,,,,,,,ctch,resources/DG.BMP,resources/DR.BMP,Door3,-0.29125,0.02875,1,0,0,1.747,optionLeft,70,70,1,0,0,0,0,1
,,,,,,,,2023-08-16_08h49.12,HF_wild_card,2022.2.4,MacIntel,90.90909091,5894b2033e061b0001dff3d3,64d2fd46c836a06233681665,64dc7e51efbc35fa1e2eb119,,,,,,,decisionTrl,resources/DB.BMP,resources/DP.BMP,WildCard_NonEx,0.28,0.00375,1,0,0,1.289,optionRight,45,115,1,1,0,1,0,1
,,,,,,,,2023-08-16_08h49.12,HF_wild_card,2022.2.4,MacIntel,90.90909091,5894b2033e061b0001dff3d3,64d2fd46c836a06233681665,64dc7e51efbc35fa1e2eb119,,,,,,,decisionTrl,resources/DR.BMP,resources/DBN.BMP,Door2,-0.4,-0.02,1,0,0,1.115,optionLeft,40,155,1,2,0,2,0,1
,,,,,,,,2023-08-16_08h49.12,HF_wild_card,2022.2.4,MacIntel,90.90909091,5894b2033e061b0001dff3d3,64d2fd46c836a06233681665,64dc7e51efbc35fa1e2eb119,,,,,,,ctch,resources/DBN.BMP,resources/DB.BMP,Door1,-0.3475,0.02,1,0,0,1.087,optionLeft,30,185,1,3,0,3,0,1
,,,,,,,,2023-08-16_08h49.12,HF_wild_card,2022.2.4,MacIntel,90.90909091,5894b2033e061b0001dff3d3,64d2fd46c836a06233681665,64dc7e51efbc35fa1e2eb119,,,,,,,sngl,resources/DG.BMP,resources/Empty.png,Door3,-0.34125,0.04875,1,0,0,1.323,optionLeft,70,255,1,4,0,4,0,1
,,,,,,,,2023-08-16_08h49.12,HF_wild_card,2022.2.4,MacIntel,90.90909091,5894b2033e061b0001dff3d3,64d2fd46c836a06233681665,64dc7e51efbc35fa1e2eb119,,,,,,,decisionTrl,resources/DR.BMP,resources/DBN.BMP,Door2,-0.32625,0.0325,1,0,0,1.487,optionLeft,40,295,1,5,0,5,0,1
,,,,,,,,2023-08-16_08h49.12,HF_wild_card,2022.2.4,MacIntel,90.90909091,5894b2033e061b0001dff3d3,64d2fd46c836a06233681665,64dc7e51efbc35fa1e2eb119,,,,,,,ctch,resources/DB.BMP,resources/DBN.BMP,Door1,0.3125,-0.0125,1,0,0,2.034,optionRight,30,325,1,6,0,6,0,1
,,,,,,,,2023-08-16_08h49.12,HF_wild_card,2022.2.4,MacIntel,90.90909091,5894b2033e061b0001dff3d3,64d2fd46c836a06233681665,64dc7e51efbc35fa1e2eb119,,,,,,,decisionTrl,resources/DP.BMP,resources/DB.BMP,WildCard_NonEx,-0.40125,-0.0325,1,0,0,1.163,optionLeft,45,370,1,7,0,7,0,1
,,,,,,,,2023-08-16_08h49.12,HF_wild_card,2022.2.4,MacIntel,90.90909091,5894b2033e061b0001dff3d3,64d2fd46c836a06233681665,64dc7e51efbc35fa1e2eb119,,,,,,,decisionTrl,resources/DB.BMP,resources/DG.BMP,Door3,0.39375,0.02625,1,0,0,0.919,optionRight,70,440,1,8,0,8,0,1
,,,,,,,,2023-08-16_08h49.12,HF_wild_card,2022.2.4,MacIntel,90.90909091,5894b2033e061b0001dff3d3,64d2fd46c836a06233681665,64dc7e51efbc35fa1e2eb119,,,,,,,decisionTrl,resources/DBN.BMP,resources/DR.BMP,Door1,-0.46,0.005,1,0,0,1.287,optionLeft,30,470,1,9,0,9,0,1
,,,,,,,,2023-08-16_08h49.12,HF_wild_card,2022.2.4,MacIntel,90.90909091,5894b2033e061b0001dff3d3,64d2fd46c836a06233681665,64dc7e51efbc35fa1e2eb119,,,,,,,ctch,resources/DG.BMP,resources/DR.BMP,Door3,-0.3675,-0.01,1,0,0,1.334,optionLeft,70,540,1,10,0,10,0,1
,,,,,,,,2023-08-16_08h49.12,HF_wild_card,2022.2.4,MacIntel,90.90909091,5894b2033e061b0001dff3d3,64d2fd46c836a06233681665,64dc7e51efbc35fa1e2eb119,,,,,,,decisionTrl,resources/DP.BMP,resources/DBN.BMP,WildCard_NonEx,-0.38875,-0.0425,1,0,0,2.216,optionLeft,45,585,1,11,0,11,0,1
,,,,,,,,2023-08-16_08h49.12,HF_wild_card,2022.2.4,MacIntel,90.90909091,5894b2033e061b0001dff3d3,64d2fd46c836a06233681665,64dc7e51efbc35fa1e2eb119,,,,,,,decisionTrl,resources/DBN.BMP,resources/DP.BMP,WildCard_NonEx,0.4075,-0.07,1,0,0,1.663,optionRight,55,640,1,12,0,12,0,1
,,,,,,,,2023-08-16_08h49.12,HF_wild_card,2022.2.4,MacIntel,90.90909091,5894b2033e061b0001dff3d3,64d2fd46c836a06233681665,64dc7e51efbc35fa1e2eb119,,,,,,,decisionTrl,resources/DB.BMP,resources/DG.BMP,Door3,0.3525,0.01,1,0,0,0.895,optionRight,70,710,1,13,0,13,0,1
,,,,,,,,2023-08-16_08h49.12,HF_wild_card,2022.2.4,MacIntel,90.90909091,5894b2033e061b0001dff3d3,64d2fd46c836a06233681665,64dc7e51efbc35fa1e2eb119,,,,,,,decisionTrl,resources/DB.BMP,resources/DG.BMP,Door3,0.33,-0.03625,1,0,0,1.479,optionRight,70,780,1,14,0,14,0,1
,,,,,,,,2023-08-16_08h49.12,HF_wild_card,2022.2.4,MacIntel,90.90909091,5894b2033e061b0001dff3d3,64d2fd46c836a06233681665,64dc7e51efbc35fa1e2eb119,,,,,,,decisionTrl,resources/DR.BMP,resources/DBN.BMP,Door2,-0.425,-0.005,1,0,0,1.613,optionLeft,40,820,1,15,0,15,0,1
,,,,,,,,2023-08-16_08h49.12,HF_wild_card,2022.2.4,MacIntel,90.90909091,5894b2033e061b0001dff3d3,64d2fd46c836a06233681665,64dc7e51efbc35fa1e2eb119,,,,,,,decisionTrl,resources/DG.BMP,resources/DB.BMP,Door4,0.455,0.04625,1,0,0,1.594,optionRight,60,880,1,16,0,16,0,1
,,,,,,,,2023-08-16_08h49.12,HF_wild_card,2022.2.4,MacIntel,90.90909091,5894b2033e061b0001dff3d3,64d2fd46c836a06233681665,64dc7e51efbc35fa1e2eb119,,,,,,,sngl,resources/DBN.BMP,resources/Empty.png,Door1,-0.41125,-0.0125,1,0,0,0.862,optionLeft,30,910,1,17,0,17,0,1
,,,,,,,,2023-08-16_08h49.12,HF_wild_card,2022.2.4,MacIntel,90.90909091,5894b2033e061b0001dff3d3,64d2fd46c836a06233681665,64dc7e51efbc35fa1e2eb119,,,,,,,sngl,resources/Empty.png,resources/DP.BMP,WildCard_NonEx,0.385,-0.02125,1,0,0,1.629,optionRight,55,965,1,18,0,18,0,1
,,,,,,,,2023-08-16_08h49.12,HF_wild_card,2022.2.4,MacIntel,90.90909091,5894b2033e061b0001dff3d3,64d2fd46c836a06233681665,64dc7e51efbc35fa1e2eb119,,,,,,,decisionTrl,resources/DB.BMP,resources/DG.BMP,Door3,0.44875,0.0175,1,0,0,1.844,optionRight,70,1035,1,19,0,19,0,1
,,,,,,,,2023-08-16_08h49.12,HF_wild_card,2022.2.4,MacIntel,90.90909091,5894b2033e061b0001dff3d3,64d2fd46c836a06233681665,64dc7e51efbc35fa1e2eb119,,,,,,,sngl,resources/DP.BMP,resources/Empty.png,WildCard_NonEx,-0.36875,-0.04,1,0,0,1.046,optionLeft,55,1090,1,20,0,20,0,1
,,,,,,,,2023-08-16_08h49.12,HF_wild_card,2022.2.4,MacIntel,90.90909091,5894b2033e061b0001dff3d3,64d2fd46c836a06233681665,64dc7e51efbc35fa1e2eb119,,,,,,,ctch,resources/DR.BMP,resources/DG.BMP,Door3,0.39375,0.0075,1,0,0,1.037,optionRight,70,1160,1,21,0,21,0,1
,,,,,,,,2023-08-16_08h49.12,HF_wild_card,2022.2.4,MacIntel,90.90909091,5894b2033e061b0001dff3d3,64d2fd46c836a06233681665,64dc7e51efbc35fa1e2eb119,,,,,,,decisionTrl,resources/DG.BMP,resources/DB.BMP,Door3,-0.37,-0.0175,1,0,0,1.011,optionLeft,70,1230,1,22,0,22,0,1
,,,,,,,,2023-08-16_08h49.12,HF_wild_card,2022.2.4,MacIntel,90.90909091,5894b2033e061b0001dff3d3,64d2fd46c836a06233681665,64dc7e51efbc35fa1e2eb119,,,,,,,sngl,resources/DR.BMP,resources/Empty.png,Door2,-0.36125,-0.0025,1,0,0,1.544,optionLeft,40,1270,1,23,0,23,0,1
,,,,,,,,2023-08-16_08h49.12,HF_wild_card,2022.2.4,MacIntel,90.90909091,5894b2033e061b0001dff3d3,64d2fd46c836a06233681665,64dc7e51efbc35fa1e2eb119,,,,,,,decisionTrl,resources/DP.BMP,resources/DR.BMP,WildCard_NonEx,-0.355,-0.045,1,0,0,1.529,optionLeft,45,1315,1,24,0,24,0,1
,,,,,,,,2023-08-16_08h49.12,HF_wild_card,2022.2.4,MacIntel,90.90909091,5894b2033e061b0001dff3d3,64d2fd46c836a06233681665,64dc7e51efbc35fa1e2eb119,,,,,,,decisionTrl,resources/DR.BMP,resources/DBN.BMP,Door2,-0.36875,0.00125,1,0,0,0.962,optionLeft,20,1335,1,25,0,25,0,1
,,,,,,,,2023-08-16_08h49.12,HF_wild_card,2022.2.4,MacIntel,90.90909091,5894b2033e061b0001dff3d3,64d2fd46c836a06233681665,64dc7e51efbc35fa1e2eb119,,,,,,,decisionTrl,resources/DP.BMP,resources/DG.BMP,Door3,0.30375,-0.04125,1,0,0,1.362,optionRight,70,1405,1,26,0,26,0,1
,,,,,,,,2023-08-16_08h49.12,HF_wild_card,2022.2.4,MacIntel,90.90909091,5894b2033e061b0001dff3d3,64d2fd46c836a06233681665,64dc7e51efbc35fa1e2eb119,,,,,,,decisionTrl,resources/DR.BMP,resources/DP.BMP,WildCard_NonEx,0.3375,-0.04125,1,0,0,0.946,optionRight,45,1450,1,27,0,27,0,1
,,,,,,,,2023-08-16_08h49.12,HF_wild_card,2022.2.4,MacIntel,90.90909091,5894b2033e061b0001dff3d3,64d2fd46c836a06233681665,64dc7e51efbc35fa1e2eb119,,,,,,,decisionTrl,resources/DBN.BMP,resources/DR.BMP,Door1,-0.31875,-0.01875,1,0,0,0.896,optionLeft,30,1480,1,28,0,28,0,1
,,,,,,,,2023-08-16_08h49.12,HF_wild_card,2022.2.4,MacIntel,90.90909091,5894b2033e061b0001dff3d3,64d2fd46c836a06233681665,64dc7e51efbc35fa1e2eb119,,,,,,,sngl,resources/Empty.png,resources/DG.BMP,Door3,0.33625,0.0025,1,0,0,0.963,optionRight,70,1550,1,29,0,29,0,1
,,,,,,,,2023-08-16_08h49.12,HF_wild_card,2022.2.4,MacIntel,90.90909091,5894b2033e061b0001dff3d3,64d2fd46c836a06233681665,64dc7e51efbc35fa1e2eb119,,,,,,,decisionTrl,resources/DBN.BMP,resources/DR.BMP,Door1,-0.3675,-0.02125,1,0,0,1.179,optionLeft,30,1580,1,30,0,30,0,1
,,,,,,,,2023-08-16_08h49.12,HF_wild_card,2022.2.4,MacIntel,90.90909091,5894b2033e061b0001dff3d3,64d2fd46c836a06233681665,64dc7e51efbc35fa1e2eb119,,,,,,,sngl,resources/DP.BMP,resources/Empty.png,WildCard_NonEx,-0.35625,-0.06,1,0,0,0.811,optionLeft,45,1625,1,31,0,31,0,1
,,,,,,,,2023-08-16_08h49.12,HF_wild_card,2022.2.4,MacIntel,90.90909091,5894b2033e061b0001dff3d3,64d2fd46c836a06233681665,64dc7e51efbc35fa1e2eb119,,,,,,,sngl,resources/Empty.png,resources/DBN.BMP,Door1,0.3375,0.02625,1,0,0,1.062,optionRight,30,1655,1,32,0,32,0,1
,,,,,,,,2023-08-16_08h49.12,HF_wild_card,2022.2.4,MacIntel,90.90909091,5894b2033e061b0001dff3d3,64d2fd46c836a06233681665,64dc7e51efbc35fa1e2eb119,,,,,,,sngl,resources/Empty.png,resources/DB.BMP,Door4,0.34625,-0.02625,1,0,0,0.813,optionRight,60,1715,1,33,0,33,0,1
,,,,,,,,2023-08-16_08h49.12,HF_wild_card,2022.2.4,MacIntel,90.90909091,5894b2033e061b0001dff3d3,64d2fd46c836a06233681665,64dc7e51efbc35fa1e2eb119,,,,,,,ctch,resources/DB.BMP,resources/DBN.BMP,Door4,-0.3425,-0.03375,1,0,0,1.229,optionLeft,80,1795,1,34,0,34,0,1
,,,,,,,,2023-08-16_08h49.12,HF_wild_card,2022.2.4,MacIntel,90.90909091,5894b2033e061b0001dff3d3,64d2fd46c836a06233681665,64dc7e51efbc35fa1e2eb119,,,,,,,sngl,resources/Empty.png,resources/DR.BMP,Door2,0.34875,-0.01625,1,0,0,0.828,optionRight,20,1815,1,35,0,35,0,1
,,,,,,,,2023-08-16_08h49.12,HF_wild_card,2022.2.4,MacIntel,90.90909091,5894b2033e061b0001dff3d3,64d2fd46c836a06233681665,64dc7e51efbc35fa1e2eb119,,,,,,,decisionTrl,resources/DG.BMP,resources/DB.BMP,Door3,-0.37125,0.02375,1,0,0,1.411,optionLeft,70,1885,1,36,0,36,0,1
,,,,,,,,2023-08-16_08h49.12,HF_wild_card,2022.2.4,MacIntel,90.90909091,5894b2033e061b0001dff3d3,64d2fd46c836a06233681665,64dc7e51efbc35fa1e2eb119,,,,,,,sngl,resources/Empty.png,resources/DP.BMP,WildCard_NonEx,0.31125,-0.01125,1,0,0,0.912,optionRight,45,1930,1,37,0,37,0,1
,,,,,,,,2023-08-16_08h49.12,HF_wild_card,2022.2.4,MacIntel,90.90909091,5894b2033e061b0001dff3d3,64d2fd46c836a06233681665,64dc7e51efbc35fa1e2eb119,,,,,,,ctch,resources/DBN.BMP,resources/DB.BMP,Door1,-0.41875,0.0175,1,0,0,1.245,optionLeft,30,1960,1,38,0,38,0,1
,,,,,,,,2023-08-16_08h49.12,HF_wild_card,2022.2.4,MacIntel,90.90909091,5894b2033e061b0001dff3d3,64d2fd46c836a06233681665,64dc7e51efbc35fa1e2eb119,,,,,,,sngl,resources/DB.BMP,resources/Empty.png,Door4,-0.3175,0.005,1,0,0,0.794,optionLeft,80,2040,1,39,0,39,0,1
,,,,,,,,2023-08-16_08h49.12,HF_wild_card,2022.2.4,MacIntel,90.90909091,5894b2033e061b0001dff3d3,64d2fd46c836a06233681665,64dc7e51efbc35fa1e2eb119,,,,,,,ctch,resources/DR.BMP,resources/DG.BMP,Door3,0.33625,-0.0075,1,0,0,1.047,optionRight,70,2110,1,40,0,40,0,1
,,,,,,,,2023-08-16_08h49.12,HF_wild_card,2022.2.4,MacIntel,90.90909091,5894b2033e061b0001dff3d3,64d2fd46c836a06233681665,64dc7e51efbc35fa1e2eb119,,,,,,,decisionTrl,resources/DG.BMP,resources/DB.BMP,Door4,0.28,0.00375,1,0,0,0.694,optionRight,80,2190,1,41,0,41,0,1
,,,,,,,,2023-08-16_08h49.12,HF_wild_card,2022.2.4,MacIntel,90.90909091,5894b2033e061b0001dff3d3,64d2fd46c836a06233681665,64dc7e51efbc35fa1e2eb119,,,,,,,decisionTrl,resources/DG.BMP,resources/DP.BMP,Door3,-0.37125,0.00625,1,0,0,0.729,optionLeft,70,2260,1,42,0,42,0,1
,,,,,,,,2023-08-16_08h49.12,HF_wild_card,2022.2.4,MacIntel,90.90909091,5894b2033e061b0001dff3d3,64d2fd46c836a06233681665,64dc7e51efbc35fa1e2eb119,,,,,,,decisionTrl,resources/DBN.BMP,resources/DR.BMP,Door1,-0.27875,0.005,1,0,0,1.012,optionLeft,30,2290,1,43,0,43,0,1
