Condition,Low fixed image (Door1),Low risky image (Door2),High fixed image (Door3),High risky image (Door4),Extreme Wild Card,NonExtreme Wild Card,,date,expName,psychopyVersion,OS,frameRate,PROLIFIC_PID,STUDY_ID,SESSION_ID,mouse_2.x,mouse_2.y,mouse_2.leftButton,mouse_2.midButton,mouse_2.rightButton,mouse_2.clicked_name,Trial Type,Left Option Image,Right Option Image,Chosen Door,mouse.x,mouse.y,mouse.leftButton,mouse.midButton,mouse.rightButton,mouse.time,mouse.clicked_name,Feedback,Cumulative Reward,Block,trial.thisRepN,trial.thisTrialN,trial.thisN,trial.thisIndex,trial.ran,blocks.thisRepN,blocks.thisTrialN,blocks.thisN,blocks.thisIndex,blocks.ran,Money conversion,First Outcome Reported,Shown Door (First Outcome),Displayed Image (First Outcome),outcomes.thisRepN,outcomes.thisTrialN,outcomes.thisN,outcomes.thisIndex,outcomes.ran,judgments.thisRepN,judgments.thisTrialN,judgments.thisN,judgments.thisIndex,judgments.ran,freqMouse.x,freqMouse.y,freqMouse.leftButton,freqMouse.midButton,freqMouse.rightButton,freqMouse.clicked_name,FQJ for first outcome,FQJ for second outcome,Shown Door,Displayed Image,trials.thisRepN,trials.thisTrialN,trials.thisN,trials.thisIndex,trials.ran,judgBlock.thisRepN,judgBlock.thisTrialN,judgBlock.thisN,judgBlock.thisIndex,judgBlock.ran
0,resources/DP.BMP,resources/DG.BMP,resources/DB.BMP,resources/DR.BMP,resources/DBN.BMP,resources/DY.BMP,,2023-08-06_08h13.09.624,HF_wild_card,2022.2.4,Win32,58.76131155,5c5c9a127bca5b000167acb8,64ce5acb97489d65b14ecc7a,64cf47f0acc4858e8327c027,,,,,,,,,,,,,,,,,,,,,,,,,,,,,,,,,,,,,,,,,,,,,,,,,,,,,,,,,,,,,,,,
,,,,,,,,2023-08-06_08h13.09.624,HF_wild_card,2022.2.4,Win32,58.76131155,5c5c9a127bca5b000167acb8,64ce5acb97489d65b14ecc7a,64cf47f0acc4858e8327c027,-0.00462963,-0.426851838,1,0,0,agree,,,,,,,,,,,,,,,,,,,,,,,,,,,,,,,,,,,,,,,,,,,,,,,,,,,,,,,,,,
,,,,,,,,2023-08-06_08h13.09.624,HF_wild_card,2022.2.4,Win32,58.76131155,5c5c9a127bca5b000167acb8,64ce5acb97489d65b14ecc7a,64cf47f0acc4858e8327c027,,,,,,,,,,,,,,,,,,,,,,,,,,,,,,,,,,,,,,,,,,,,,,,,,,,,,,,,,,,,,,,,
,,,,,,,,2023-08-06_08h13.09.624,HF_wild_card,2022.2.4,Win32,58.76131155,5c5c9a127bca5b000167acb8,64ce5acb97489d65b14ecc7a,64cf47f0acc4858e8327c027,,,,,,,ctch,resources/DP.BMP,resources/DR.BMP,Door1,-0.354629623,-0.089814822,1,0,0,6.0096,optionLeft,30,30,1,0,0,0,0,1,,,,,,,,,,,,,,,,,,,,,,,,,,,,,,,,,,,,,,,
,,,,,,,,2023-08-06_08h13.09.624,HF_wild_card,2022.2.4,Win32,58.76131155,5c5c9a127bca5b000167acb8,64ce5acb97489d65b14ecc7a,64cf47f0acc4858e8327c027,,,,,,,decisionTrl,resources/DR.BMP,resources/DB.BMP,Door3,0.397222307,0.025925919,1,0,0,3.3397,optionRight,70,100,1,1,0,1,0,1,,,,,,,,,,,,,,,,,,,,,,,,,,,,,,,,,,,,,,,
,,,,,,,,2023-08-06_08h13.09.624,HF_wild_card,2022.2.4,Win32,58.76131155,5c5c9a127bca5b000167acb8,64ce5acb97489d65b14ecc7a,64cf47f0acc4858e8327c027,,,,,,,decisionTrl,resources/DP.BMP,resources/DG.BMP,Door1,-0.35833334,-0.027777778,1,0,0,1.7628,optionLeft,30,130,1,2,0,2,0,1,,,,,,,,,,,,,,,,,,,,,,,,,,,,,,,,,,,,,,,
,,,,,,,,2023-08-06_08h13.09.624,HF_wild_card,2022.2.4,Win32,58.76131155,5c5c9a127bca5b000167acb8,64ce5acb97489d65b14ecc7a,64cf47f0acc4858e8327c027,,,,,,,ctch,resources/DR.BMP,resources/DP.BMP,Door1,0.433333362,-0.050925926,1,0,0,1.0113,optionRight,30,160,1,3,0,3,0,1,,,,,,,,,,,,,,,,,,,,,,,,,,,,,,,,,,,,,,,
,,,,,,,,2023-08-06_08h13.09.624,HF_wild_card,2022.2.4,Win32,58.76131155,5c5c9a127bca5b000167acb8,64ce5acb97489d65b14ecc7a,64cf47f0acc4858e8327c027,,,,,,,sngl,resources/Empty.png,resources/DG.BMP,Door2,0.348148205,0.026851831,1,0,0,1.9125,optionRight,20,180,1,4,0,4,0,1,,,,,,,,,,,,,,,,,,,,,,,,,,,,,,,,,,,,,,,
,,,,,,,,2023-08-06_08h13.09.624,HF_wild_card,2022.2.4,Win32,58.76131155,5c5c9a127bca5b000167acb8,64ce5acb97489d65b14ecc7a,64cf47f0acc4858e8327c027,,,,,,,ctch,resources/DP.BMP,resources/DR.BMP,Door1,-0.340740734,-0.015740748,1,0,0,1.162,optionLeft,30,210,1,5,0,5,0,1,,,,,,,,,,,,,,,,,,,,,,,,,,,,,,,,,,,,,,,
,,,,,,,,2023-08-06_08h13.09.624,HF_wild_card,2022.2.4,Win32,58.76131155,5c5c9a127bca5b000167acb8,64ce5acb97489d65b14ecc7a,64cf47f0acc4858e8327c027,,,,,,,ctch,resources/DB.BMP,resources/DG.BMP,Door3,-0.296296296,0.027777778,1,0,0,1.3287,optionLeft,70,280,1,6,0,6,0,1,,,,,,,,,,,,,,,,,,,,,,,,,,,,,,,,,,,,,,,
,,,,,,,,2023-08-06_08h13.09.624,HF_wild_card,2022.2.4,Win32,58.76131155,5c5c9a127bca5b000167acb8,64ce5acb97489d65b14ecc7a,64cf47f0acc4858e8327c027,,,,,,,decisionTrl,resources/DBN.BMP,resources/DB.BMP,WildCard_Ex,-0.326851845,0.082407386,1,0,0,1.9785,optionLeft,95,375,1,7,0,7,0,1,,,,,,,,,,,,,,,,,,,,,,,,,,,,,,,,,,,,,,,
,,,,,,,,2023-08-06_08h13.09.624,HF_wild_card,2022.2.4,Win32,58.76131155,5c5c9a127bca5b000167acb8,64ce5acb97489d65b14ecc7a,64cf47f0acc4858e8327c027,,,,,,,ctch,resources/DR.BMP,resources/DP.BMP,Door1,0.374074159,0.000925912,1,0,0,1.2782,optionRight,30,405,1,8,0,8,0,1,,,,,,,,,,,,,,,,,,,,,,,,,,,,,,,,,,,,,,,
,,,,,,,,2023-08-06_08h13.09.624,HF_wild_card,2022.2.4,Win32,58.76131155,5c5c9a127bca5b000167acb8,64ce5acb97489d65b14ecc7a,64cf47f0acc4858e8327c027,,,,,,,sngl,resources/Empty.png,resources/DBN.BMP,WildCard_Ex,0.351851852,0.052777785,1,0,0,1.1455,optionRight,95,500,1,9,0,9,0,1,,,,,,,,,,,,,,,,,,,,,,,,,,,,,,,,,,,,,,,
,,,,,,,,2023-08-06_08h13.09.624,HF_wild_card,2022.2.4,Win32,58.76131155,5c5c9a127bca5b000167acb8,64ce5acb97489d65b14ecc7a,64cf47f0acc4858e8327c027,,,,,,,sngl,resources/DG.BMP,resources/Empty.png,Door2,-0.319444444,0.018518519,1,0,0,1.5448,optionLeft,40,540,1,10,0,10,0,1,,,,,,,,,,,,,,,,,,,,,,,,,,,,,,,,,,,,,,,
,,,,,,,,2023-08-06_08h13.09.624,HF_wild_card,2022.2.4,Win32,58.76131155,5c5c9a127bca5b000167acb8,64ce5acb97489d65b14ecc7a,64cf47f0acc4858e8327c027,,,,,,,decisionTrl,resources/DBN.BMP,resources/DR.BMP,WildCard_Ex,-0.442592586,0.095370363,1,0,0,1.247,optionLeft,5,545,1,11,0,11,0,1,,,,,,,,,,,,,,,,,,,,,,,,,,,,,,,,,,,,,,,
,,,,,,,,2023-08-06_08h13.09.624,HF_wild_card,2022.2.4,Win32,58.76131155,5c5c9a127bca5b000167acb8,64ce5acb97489d65b14ecc7a,64cf47f0acc4858e8327c027,,,,,,,decisionTrl,resources/DG.BMP,resources/DP.BMP,Door1,0.328703704,-0.024074095,1,0,0,1.2476,optionRight,30,575,1,12,0,12,0,1,,,,,,,,,,,,,,,,,,,,,,,,,,,,,,,,,,,,,,,
,,,,,,,,2023-08-06_08h13.09.624,HF_wild_card,2022.2.4,Win32,58.76131155,5c5c9a127bca5b000167acb8,64ce5acb97489d65b14ecc7a,64cf47f0acc4858e8327c027,,,,,,,sngl,resources/DBN.BMP,resources/Empty.png,WildCard_Ex,-0.456481474,0.087962963,1,0,0,0.9469,optionLeft,95,670,1,13,0,13,0,1,,,,,,,,,,,,,,,,,,,,,,,,,,,,,,,,,,,,,,,
,,,,,,,,2023-08-06_08h13.09.624,HF_wild_card,2022.2.4,Win32,58.76131155,5c5c9a127bca5b000167acb8,64ce5acb97489d65b14ecc7a,64cf47f0acc4858e8327c027,,,,,,,ctch,resources/DG.BMP,resources/DB.BMP,Door3,0.324074074,0.055555556,1,0,0,1.5459,optionRight,70,740,1,14,0,14,0,1,,,,,,,,,,,,,,,,,,,,,,,,,,,,,,,,,,,,,,,
,,,,,,,,2023-08-06_08h13.09.624,HF_wild_card,2022.2.4,Win32,58.76131155,5c5c9a127bca5b000167acb8,64ce5acb97489d65b14ecc7a,64cf47f0acc4858e8327c027,,,,,,,decisionTrl,resources/DR.BMP,resources/DBN.BMP,WildCard_Ex,0.337962963,0.082407386,1,0,0,1.2631,optionRight,5,745,1,15,0,15,0,1,,,,,,,,,,,,,,,,,,,,,,,,,,,,,,,,,,,,,,,
,,,,,,,,2023-08-06_08h13.09.624,HF_wild_card,2022.2.4,Win32,58.76131155,5c5c9a127bca5b000167acb8,64ce5acb97489d65b14ecc7a,64cf47f0acc4858e8327c027,,,,,,,sngl,resources/Empty.png,resources/DP.BMP,Door1,0.262037065,-0.038888896,1,0,0,1.2133,optionRight,30,775,1,16,0,16,0,1,,,,,,,,,,,,,,,,,,,,,,,,,,,,,,,,,,,,,,,
,,,,,,,,2023-08-06_08h13.09.624,HF_wild_card,2022.2.4,Win32,58.76131155,5c5c9a127bca5b000167acb8,64ce5acb97489d65b14ecc7a,64cf47f0acc4858e8327c027,,,,,,,decisionTrl,resources/DR.BMP,resources/DB.BMP,Door3,0.277777778,0,1,0,0,1.5482,optionRight,70,845,1,17,0,17,0,1,,,,,,,,,,,,,,,,,,,,,,,,,,,,,,,,,,,,,,,
,,,,,,,,2023-08-06_08h13.09.624,HF_wild_card,2022.2.4,Win32,58.76131155,5c5c9a127bca5b000167acb8,64ce5acb97489d65b14ecc7a,64cf47f0acc4858e8327c027,,,,,,,decisionTrl,resources/DP.BMP,resources/DG.BMP,Door1,-0.452777757,0.026851831,1,0,0,1.012,optionLeft,30,875,1,18,0,18,0,1,,,,,,,,,,,,,,,,,,,,,,,,,,,,,,,,,,,,,,,
,,,,,,,,2023-08-06_08h13.09.624,HF_wild_card,2022.2.4,Win32,58.76131155,5c5c9a127bca5b000167acb8,64ce5acb97489d65b14ecc7a,64cf47f0acc4858e8327c027,,,,,,,decisionTrl,resources/DG.BMP,resources/DP.BMP,Door1,0.324074074,-0.013888889,1,0,0,1.1261,optionRight,30,905,1,19,0,19,0,1,,,,,,,,,,,,,,,,,,,,,,,,,,,,,,,,,,,,,,,
,,,,,,,,2023-08-06_08h13.09.624,HF_wild_card,2022.2.4,Win32,58.76131155,5c5c9a127bca5b000167acb8,64ce5acb97489d65b14ecc7a,64cf47f0acc4858e8327c027,,,,,,,decisionTrl,resources/DR.BMP,resources/DB.BMP,Door3,0.317592621,0.0074074,1,0,0,1.3123,optionRight,70,975,1,20,0,20,0,1,,,,,,,,,,,,,,,,,,,,,,,,,,,,,,,,,,,,,,,
,,,,,,,,2023-08-06_08h13.09.624,HF_wild_card,2022.2.4,Win32,58.76131155,5c5c9a127bca5b000167acb8,64ce5acb97489d65b14ecc7a,64cf47f0acc4858e8327c027,,,,,,,decisionTrl,resources/DB.BMP,resources/DR.BMP,Door3,-0.387962942,0.044444437,1,0,0,1.3749,optionLeft,70,1045,1,21,0,21,0,1,,,,,,,,,,,,,,,,,,,,,,,,,,,,,,,,,,,,,,,
,,,,,,,,2023-08-06_08h13.09.624,HF_wild_card,2022.2.4,Win32,58.76131155,5c5c9a127bca5b000167acb8,64ce5acb97489d65b14ecc7a,64cf47f0acc4858e8327c027,,,,,,,sngl,resources/DB.BMP,resources/Empty.png,Door3,-0.332407386,0.03611109,1,0,0,1.012,optionLeft,70,1115,1,22,0,22,0,1,,,,,,,,,,,,,,,,,,,,,,,,,,,,,,,,,,,,,,,
,,,,,,,,2023-08-06_08h13.09.624,HF_wild_card,2022.2.4,Win32,58.76131155,5c5c9a127bca5b000167acb8,64ce5acb97489d65b14ecc7a,64cf47f0acc4858e8327c027,,,,,,,decisionTrl,resources/DBN.BMP,resources/DP.BMP,WildCard_Ex,-0.299999979,0.162962949,1,0,0,2.8958,optionLeft,95,1210,1,23,0,23,0,1,,,,,,,,,,,,,,,,,,,,,,,,,,,,,,,,,,,,,,,
,,,,,,,,2023-08-06_08h13.09.624,HF_wild_card,2022.2.4,Win32,58.76131155,5c5c9a127bca5b000167acb8,64ce5acb97489d65b14ecc7a,64cf47f0acc4858e8327c027,,,,,,,decisionTrl,resources/DG.BMP,resources/DBN.BMP,WildCard_Ex,0.327777863,0.143518519,1,0,0,1.3127,optionRight,95,1305,1,24,0,24,0,1,,,,,,,,,,,,,,,,,,,,,,,,,,,,,,,,,,,,,,,
,,,,,,,,2023-08-06_08h13.09.624,HF_wild_card,2022.2.4,Win32,58.76131155,5c5c9a127bca5b000167acb8,64ce5acb97489d65b14ecc7a,64cf47f0acc4858e8327c027,,,,,,,decisionTrl,resources/DG.BMP,resources/DP.BMP,Door1,0.377777806,0,1,0,0,1.0781,optionRight,30,1335,1,25,0,25,0,1,,,,,,,,,,,,,,,,,,,,,,,,,,,,,,,,,,,,,,,
,,,,,,,,2023-08-06_08h13.09.624,HF_wild_card,2022.2.4,Win32,58.76131155,5c5c9a127bca5b000167acb8,64ce5acb97489d65b14ecc7a,64cf47f0acc4858e8327c027,,,,,,,decisionTrl,resources/DB.BMP,resources/DR.BMP,Door3,-0.37037037,0.046296296,1,0,0,1.2139,optionLeft,70,1405,1,26,0,26,0,1,,,,,,,,,,,,,,,,,,,,,,,,,,,,,,,,,,,,,,,
,,,,,,,,2023-08-06_08h13.09.624,HF_wild_card,2022.2.4,Win32,58.76131155,5c5c9a127bca5b000167acb8,64ce5acb97489d65b14ecc7a,64cf47f0acc4858e8327c027,,,,,,,decisionTrl,resources/DR.BMP,resources/DB.BMP,Door3,0.339814787,0.049999979,1,0,0,1.347,optionRight,70,1475,1,27,0,27,0,1,,,,,,,,,,,,,,,,,,,,,,,,,,,,,,,,,,,,,,,
,,,,,,,,2023-08-06_08h13.09.624,HF_wild_card,2022.2.4,Win32,58.76131155,5c5c9a127bca5b000167acb8,64ce5acb97489d65b14ecc7a,64cf47f0acc4858e8327c027,,,,,,,decisionTrl,resources/DP.BMP,resources/DG.BMP,Door1,-0.371296282,-0.018518519,1,0,0,1.145,optionLeft,30,1505,1,28,0,28,0,1,,,,,,,,,,,,,,,,,,,,,,,,,,,,,,,,,,,,,,,
,,,,,,,,2023-08-06_08h13.09.624,HF_wild_card,2022.2.4,Win32,58.76131155,5c5c9a127bca5b000167acb8,64ce5acb97489d65b14ecc7a,64cf47f0acc4858e8327c027,,,,,,,sngl,resources/DBN.BMP,resources/Empty.png,WildCard_Ex,-0.309259238,0.084259245,1,0,0,1.0646,optionLeft,5,1510,1,29,0,29,0,1,,,,,,,,,,,,,,,,,,,,,,,,,,,,,,,,,,,,,,,
,,,,,,,,2023-08-06_08h13.09.624,HF_wild_card,2022.2.4,Win32,58.76131155,5c5c9a127bca5b000167acb8,64ce5acb97489d65b14ecc7a,64cf47f0acc4858e8327c027,,,,,,,ctch,resources/DG.BMP,resources/DB.BMP,Door3,0.362037094,0.025000007,1,0,0,1.1785,optionRight,70,1580,1,30,0,30,0,1,,,,,,,,,,,,,,,,,,,,,,,,,,,,,,,,,,,,,,,
,,,,,,,,2023-08-06_08h13.09.624,HF_wild_card,2022.2.4,Win32,58.76131155,5c5c9a127bca5b000167acb8,64ce5acb97489d65b14ecc7a,64cf47f0acc4858e8327c027,,,,,,,sngl,resources/Empty.png,resources/DR.BMP,Door4,0.343518575,0.025000007,1,0,0,1.2462,optionRight,60,1640,1,31,0,31,0,1,,,,,,,,,,,,,,,,,,,,,,,,,,,,,,,,,,,,,,,
,,,,,,,,2023-08-06_08h13.09.624,HF_wild_card,2022.2.4,Win32,58.76131155,5c5c9a127bca5b000167acb8,64ce5acb97489d65b14ecc7a,64cf47f0acc4858e8327c027,,,,,,,decisionTrl,resources/DB.BMP,resources/DR.BMP,Door3,-0.343518504,0.037037037,1,0,0,1.714,optionLeft,70,1710,1,32,0,32,0,1,,,,,,,,,,,,,,,,,,,,,,,,,,,,,,,,,,,,,,,
,,,,,,,,2023-08-06_08h13.09.624,HF_wild_card,2022.2.4,Win32,58.76131155,5c5c9a127bca5b000167acb8,64ce5acb97489d65b14ecc7a,64cf47f0acc4858e8327c027,,,,,,,sngl,resources/Empty.png,resources/DB.BMP,Door3,0.328703704,0.012962942,1,0,0,0.9754,optionRight,70,1780,1,33,0,33,0,1,,,,,,,,,,,,,,,,,,,,,,,,,,,,,,,,,,,,,,,
,,,,,,,,2023-08-06_08h13.09.624,HF_wild_card,2022.2.4,Win32,58.76131155,5c5c9a127bca5b000167acb8,64ce5acb97489d65b14ecc7a,64cf47f0acc4858e8327c027,,,,,,,sngl,resources/DP.BMP,resources/Empty.png,Door1,-0.396296289,0.002777771,1,0,0,0.8908,optionLeft,30,1810,1,34,0,34,0,1,,,,,,,,,,,,,,,,,,,,,,,,,,,,,,,,,,,,,,,
,,,,,,,,2023-08-06_08h13.09.624,HF_wild_card,2022.2.4,Win32,58.76131155,5c5c9a127bca5b000167acb8,64ce5acb97489d65b14ecc7a,64cf47f0acc4858e8327c027,,,,,,,decisionTrl,resources/DB.BMP,resources/DR.BMP,Door3,-0.338888875,0.025000007,1,0,0,1.2618,optionLeft,70,1880,1,35,0,35,0,1,,,,,,,,,,,,,,,,,,,,,,,,,,,,,,,,,,,,,,,
,,,,,,,,2023-08-06_08h13.09.624,HF_wild_card,2022.2.4,Win32,58.76131155,5c5c9a127bca5b000167acb8,64ce5acb97489d65b14ecc7a,64cf47f0acc4858e8327c027,,,,,,,sngl,resources/Empty.png,resources/DBN.BMP,WildCard_Ex,0.316666638,0.084259245,1,0,0,1.0391,optionRight,5,1885,1,36,0,36,0,1,,,,,,,,,,,,,,,,,,,,,,,,,,,,,,,,,,,,,,,
,,,,,,,,2023-08-06_08h13.09.624,HF_wild_card,2022.2.4,Win32,58.76131155,5c5c9a127bca5b000167acb8,64ce5acb97489d65b14ecc7a,64cf47f0acc4858e8327c027,,,,,,,ctch,resources/DB.BMP,resources/DG.BMP,Door3,-0.384259259,0.03148146,1,0,0,1.1131,optionLeft,70,1955,1,37,0,37,0,1,,,,,,,,,,,,,,,,,,,,,,,,,,,,,,,,,,,,,,,
,,,,,,,,2023-08-06_08h13.09.624,HF_wild_card,2022.2.4,Win32,58.76131155,5c5c9a127bca5b000167acb8,64ce5acb97489d65b14ecc7a,64cf47f0acc4858e8327c027,,,,,,,sngl,resources/DR.BMP,resources/Empty.png,Door4,-0.354629623,0.008333312,1,0,0,1.2287,optionLeft,80,2035,1,38,0,38,0,1,,,,,,,,,,,,,,,,,,,,,,,,,,,,,,,,,,,,,,,
,,,,,,,,2023-08-06_08h13.09.624,HF_wild_card,2022.2.4,Win32,58.76131155,5c5c9a127bca5b000167acb8,64ce5acb97489d65b14ecc7a,64cf47f0acc4858e8327c027,,,,,,,decisionTrl,resources/DB.BMP,resources/DBN.BMP,WildCard_Ex,0.316666638,0.103703711,1,0,0,1.3114,optionRight,95,2130,1,39,0,39,0,1,,,,,,,,,,,,,,,,,,,,,,,,,,,,,,,,,,,,,,,
,,,,,,,,2023-08-06_08h13.09.624,HF_wild_card,2022.2.4,Win32,58.76131155,5c5c9a127bca5b000167acb8,64ce5acb97489d65b14ecc7a,64cf47f0acc4858e8327c027,,,,,,,decisionTrl,resources/DP.BMP,resources/DG.BMP,Door1,-0.383333312,-0.037037037,1,0,0,1.1976,optionLeft,30,2160,1,40,0,40,0,1,,,,,,,,,,,,,,,,,,,,,,,,,,,,,,,,,,,,,,,
,,,,,,,,2023-08-06_08h13.09.624,HF_wild_card,2022.2.4,Win32,58.76131155,5c5c9a127bca5b000167acb8,64ce5acb97489d65b14ecc7a,64cf47f0acc4858e8327c027,,,,,,,decisionTrl,resources/DP.BMP,resources/DBN.BMP,WildCard_Ex,0.293518561,0.1175926,1,0,0,2.0808,optionRight,95,2255,1,41,0,41,0,1,,,,,,,,,,,,,,,,,,,,,,,,,,,,,,,,,,,,,,,
,,,,,,,,2023-08-06_08h13.09.624,HF_wild_card,2022.2.4,Win32,58.76131155,5c5c9a127bca5b000167acb8,64ce5acb97489d65b14ecc7a,64cf47f0acc4858e8327c027,,,,,,,decisionTrl,resources/DBN.BMP,resources/DG.BMP,WildCard_Ex,-0.408333319,0.075925933,1,0,0,1.3428,optionLeft,95,2350,1,42,0,42,0,1,,,,,,,,,,,,,,,,,,,,,,,,,,,,,,,,,,,,,,,
,,,,,,,,2023-08-06_08h13.09.624,HF_wild_card,2022.2.4,Win32,58.76131155,5c5c9a127bca5b000167acb8,64ce5acb97489d65b14ecc7a,64cf47f0acc4858e8327c027,,,,,,,decisionTrl,resources/DG.BMP,resources/DP.BMP,Door1,0.387963048,-0.012962977,1,0,0,1.0582,optionRight,30,2380,1,43,0,43,0,1,,,,,,,,,,,,,,,,,,,,,,,,,,,,,,,,,,,,,,,
,,,,,,,,2023-08-06_08h13.09.624,HF_wild_card,2022.2.4,Win32,58.76131155,5c5c9a127bca5b000167acb8,64ce5acb97489d65b14ecc7a,64cf47f0acc4858e8327c027,,,,,,,,,,,,,,,,,,,,,,,,,,0,0,0,0,1,,,,,,,,,,,,,,,,,,,,,,,,,,,,,,,,,,
,,,,,,,,2023-08-06_08h13.09.624,HF_wild_card,2022.2.4,Win32,58.76131155,5c5c9a127bca5b000167acb8,64ce5acb97489d65b14ecc7a,64cf47f0acc4858e8327c027,,,,,,,sngl,resources/DB.BMP,resources/Empty.png,Door3,-0.375925912,-0.032407407,1,0,0,1.3209,optionLeft,70,2450,2,0,0,0,0,1,,,,,,,,,,,,,,,,,,,,,,,,,,,,,,,,,,,,,,,
,,,,,,,,2023-08-06_08h13.09.624,HF_wild_card,2022.2.4,Win32,58.76131155,5c5c9a127bca5b000167acb8,64ce5acb97489d65b14ecc7a,64cf47f0acc4858e8327c027,,,,,,,decisionTrl,resources/DP.BMP,resources/DG.BMP,Door1,-0.3824074,-0.059259273,1,0,0,1.1784,optionLeft,30,2480,2,1,0,1,0,1,,,,,,,,,,,,,,,,,,,,,,,,,,,,,,,,,,,,,,,
,,,,,,,,2023-08-06_08h13.09.624,HF_wild_card,2022.2.4,Win32,58.76131155,5c5c9a127bca5b000167acb8,64ce5acb97489d65b14ecc7a,64cf47f0acc4858e8327c027,,,,,,,sngl,resources/Empty.png,resources/DP.BMP,Door1,0.273148148,0.021296289,1,0,0,1.3955,optionRight,30,2510,2,2,0,2,0,1,,,,,,,,,,,,,,,,,,,,,,,,,,,,,,,,,,,,,,,
,,,,,,,,2023-08-06_08h13.09.624,HF_wild_card,2022.2.4,Win32,58.76131155,5c5c9a127bca5b000167acb8,64ce5acb97489d65b14ecc7a,64cf47f0acc4858e8327c027,,,,,,,ctch,resources/DB.BMP,resources/DG.BMP,Door3,-0.420370349,-0.021296289,1,0,0,1.6582,optionLeft,70,2580,2,3,0,3,0,1,,,,,,,,,,,,,,,,,,,,,,,,,,,,,,,,,,,,,,,
,,,,,,,,2023-08-06_08h13.09.624,HF_wild_card,2022.2.4,Win32,58.76131155,5c5c9a127bca5b000167acb8,64ce5acb97489d65b14ecc7a,64cf47f0acc4858e8327c027,,,,,,,sngl,resources/Empty.png,resources/DBN.BMP,WildCard_Ex,0.293518561,0.002777771,1,0,0,1.5933,optionRight,95,2675,2,4,0,4,0,1,,,,,,,,,,,,,,,,,,,,,,,,,,,,,,,,,,,,,,,
,,,,,,,,2023-08-06_08h13.09.624,HF_wild_card,2022.2.4,Win32,58.76131155,5c5c9a127bca5b000167acb8,64ce5acb97489d65b14ecc7a,64cf47f0acc4858e8327c027,,,,,,,decisionTrl,resources/DBN.BMP,resources/DG.BMP,WildCard_Ex,-0.41111109,-0.008333347,1,0,0,1.5921,optionLeft,95,2770,2,5,0,5,0,1,,,,,,,,,,,,,,,,,,,,,,,,,,,,,,,,,,,,,,,
,,,,,,,,2023-08-06_08h13.09.624,HF_wild_card,2022.2.4,Win32,58.76131155,5c5c9a127bca5b000167acb8,64ce5acb97489d65b14ecc7a,64cf47f0acc4858e8327c027,,,,,,,decisionTrl,resources/DG.BMP,resources/DP.BMP,Door1,0.375925982,-0.037037037,1,0,0,1.7982,optionRight,30,2800,2,6,0,6,0,1,,,,,,,,,,,,,,,,,,,,,,,,,,,,,,,,,,,,,,,
,,,,,,,,2023-08-06_08h13.09.624,HF_wild_card,2022.2.4,Win32,58.76131155,5c5c9a127bca5b000167acb8,64ce5acb97489d65b14ecc7a,64cf47f0acc4858e8327c027,,,,,,,ctch,resources/DR.BMP,resources/DP.BMP,Door1,0.338888945,-0.011111118,1,0,0,1.7927,optionRight,30,2830,2,7,0,7,0,1,,,,,,,,,,,,,,,,,,,,,,,,,,,,,,,,,,,,,,,
,,,,,,,,2023-08-06_08h13.09.624,HF_wild_card,2022.2.4,Win32,58.76131155,5c5c9a127bca5b000167acb8,64ce5acb97489d65b14ecc7a,64cf47f0acc4858e8327c027,,,,,,,ctch,resources/DG.BMP,resources/DB.BMP,Door3,0.29814812,-0.035185178,1,0,0,1.5585,optionRight,70,2900,2,8,0,8,0,1,,,,,,,,,,,,,,,,,,,,,,,,,,,,,,,,,,,,,,,
,,,,,,,,2023-08-06_08h13.09.624,HF_wild_card,2022.2.4,Win32,58.76131155,5c5c9a127bca5b000167acb8,64ce5acb97489d65b14ecc7a,64cf47f0acc4858e8327c027,,,,,,,ctch,resources/DB.BMP,resources/DG.BMP,Door3,-0.346296275,0.062037044,1,0,0,1.9778,optionLeft,70,2970,2,9,0,9,0,1,,,,,,,,,,,,,,,,,,,,,,,,,,,,,,,,,,,,,,,
,,,,,,,,2023-08-06_08h13.09.624,HF_wild_card,2022.2.4,Win32,58.76131155,5c5c9a127bca5b000167acb8,64ce5acb97489d65b14ecc7a,64cf47f0acc4858e8327c027,,,,,,,decisionTrl,resources/DB.BMP,resources/DR.BMP,Door3,-0.359259252,0.029629637,1,0,0,1.0461,optionLeft,70,3040,2,10,0,10,0,1,,,,,,,,,,,,,,,,,,,,,,,,,,,,,,,,,,,,,,,
,,,,,,,,2023-08-06_08h13.09.624,HF_wild_card,2022.2.4,Win32,58.76131155,5c5c9a127bca5b000167acb8,64ce5acb97489d65b14ecc7a,64cf47f0acc4858e8327c027,,,,,,,sngl,resources/Empty.png,resources/DG.BMP,Door2,0.348148205,0.003703683,1,0,0,1.4736,optionRight,40,3080,2,11,0,11,0,1,,,,,,,,,,,,,,,,,,,,,,,,,,,,,,,,,,,,,,,
,,,,,,,,2023-08-06_08h13.09.624,HF_wild_card,2022.2.4,Win32,58.76131155,5c5c9a127bca5b000167acb8,64ce5acb97489d65b14ecc7a,64cf47f0acc4858e8327c027,,,,,,,decisionTrl,resources/DR.BMP,resources/DB.BMP,Door3,0.371296353,-0.006481489,1,0,0,1.231,optionRight,70,3150,2,12,0,12,0,1,,,,,,,,,,,,,,,,,,,,,,,,,,,,,,,,,,,,,,,
,,,,,,,,2023-08-06_08h13.09.624,HF_wild_card,2022.2.4,Win32,58.76131155,5c5c9a127bca5b000167acb8,64ce5acb97489d65b14ecc7a,64cf47f0acc4858e8327c027,,,,,,,sngl,resources/Empty.png,resources/DBN.BMP,WildCard_Ex,0.300925926,0.089814822,1,0,0,0.897,optionRight,5,3155,2,13,0,13,0,1,,,,,,,,,,,,,,,,,,,,,,,,,,,,,,,,,,,,,,,
,,,,,,,,2023-08-06_08h13.09.624,HF_wild_card,2022.2.4,Win32,58.76131155,5c5c9a127bca5b000167acb8,64ce5acb97489d65b14ecc7a,64cf47f0acc4858e8327c027,,,,,,,decisionTrl,resources/DBN.BMP,resources/DR.BMP,WildCard_Ex,-0.355555534,0.138888889,1,0,0,0.9614,optionLeft,95,3250,2,14,0,14,0,1,,,,,,,,,,,,,,,,,,,,,,,,,,,,,,,,,,,,,,,
,,,,,,,,2023-08-06_08h13.09.624,HF_wild_card,2022.2.4,Win32,58.76131155,5c5c9a127bca5b000167acb8,64ce5acb97489d65b14ecc7a,64cf47f0acc4858e8327c027,,,,,,,decisionTrl,resources/DB.BMP,resources/DR.BMP,Door3,-0.351851852,0.070370356,1,0,0,1.2463,optionLeft,70,3320,2,15,0,15,0,1,,,,,,,,,,,,,,,,,,,,,,,,,,,,,,,,,,,,,,,
,,,,,,,,2023-08-06_08h13.09.624,HF_wild_card,2022.2.4,Win32,58.76131155,5c5c9a127bca5b000167acb8,64ce5acb97489d65b14ecc7a,64cf47f0acc4858e8327c027,,,,,,,decisionTrl,resources/DB.BMP,resources/DR.BMP,Door3,-0.368518511,0.025925919,1,0,0,1.8303,optionLeft,70,3390,2,16,0,16,0,1,,,,,,,,,,,,,,,,,,,,,,,,,,,,,,,,,,,,,,,
,,,,,,,,2023-08-06_08h13.09.624,HF_wild_card,2022.2.4,Win32,58.76131155,5c5c9a127bca5b000167acb8,64ce5acb97489d65b14ecc7a,64cf47f0acc4858e8327c027,,,,,,,sngl,resources/DP.BMP,resources/Empty.png,Door1,-0.312962956,0.01944443,1,0,0,0.929,optionLeft,30,3420,2,17,0,17,0,1,,,,,,,,,,,,,,,,,,,,,,,,,,,,,,,,,,,,,,,
,,,,,,,,2023-08-06_08h13.09.624,HF_wild_card,2022.2.4,Win32,58.76131155,5c5c9a127bca5b000167acb8,64ce5acb97489d65b14ecc7a,64cf47f0acc4858e8327c027,,,,,,,decisionTrl,resources/DR.BMP,resources/DB.BMP,Door3,0.321296268,0.043518526,1,0,0,1.2627,optionRight,70,3490,2,18,0,18,0,1,,,,,,,,,,,,,,,,,,,,,,,,,,,,,,,,,,,,,,,
,,,,,,,,2023-08-06_08h13.09.624,HF_wild_card,2022.2.4,Win32,58.76131155,5c5c9a127bca5b000167acb8,64ce5acb97489d65b14ecc7a,64cf47f0acc4858e8327c027,,,,,,,decisionTrl,resources/DP.BMP,resources/DBN.BMP,WildCard_Ex,0.33148151,0.075925933,1,0,0,1.7129,optionRight,5,3495,2,19,0,19,0,1,,,,,,,,,,,,,,,,,,,,,,,,,,,,,,,,,,,,,,,
,,,,,,,,2023-08-06_08h13.09.624,HF_wild_card,2022.2.4,Win32,58.76131155,5c5c9a127bca5b000167acb8,64ce5acb97489d65b14ecc7a,64cf47f0acc4858e8327c027,,,,,,,decisionTrl,resources/DBN.BMP,resources/DP.BMP,WildCard_Ex,-0.321296303,0.094444452,1,0,0,1.2448,optionLeft,95,3590,2,20,0,20,0,1,,,,,,,,,,,,,,,,,,,,,,,,,,,,,,,,,,,,,,,
,,,,,,,,2023-08-06_08h13.09.624,HF_wild_card,2022.2.4,Win32,58.76131155,5c5c9a127bca5b000167acb8,64ce5acb97489d65b14ecc7a,64cf47f0acc4858e8327c027,,,,,,,decisionTrl,resources/DP.BMP,resources/DG.BMP,Door1,-0.390740748,0.010185171,1,0,0,1.3126,optionLeft,30,3620,2,21,0,21,0,1,,,,,,,,,,,,,,,,,,,,,,,,,,,,,,,,,,,,,,,
,,,,,,,,2023-08-06_08h13.09.624,HF_wild_card,2022.2.4,Win32,58.76131155,5c5c9a127bca5b000167acb8,64ce5acb97489d65b14ecc7a,64cf47f0acc4858e8327c027,,,,,,,ctch,resources/DR.BMP,resources/DP.BMP,Door1,0.377777806,0.018518519,1,0,0,1.1135,optionRight,30,3650,2,22,0,22,0,1,,,,,,,,,,,,,,,,,,,,,,,,,,,,,,,,,,,,,,,
,,,,,,,,2023-08-06_08h13.09.624,HF_wild_card,2022.2.4,Win32,58.76131155,5c5c9a127bca5b000167acb8,64ce5acb97489d65b14ecc7a,64cf47f0acc4858e8327c027,,,,,,,sngl,resources/DR.BMP,resources/Empty.png,Door4,-0.323148127,0.02407406,1,0,0,1.3291,optionLeft,60,3710,2,23,0,23,0,1,,,,,,,,,,,,,,,,,,,,,,,,,,,,,,,,,,,,,,,
,,,,,,,,2023-08-06_08h13.09.624,HF_wild_card,2022.2.4,Win32,58.76131155,5c5c9a127bca5b000167acb8,64ce5acb97489d65b14ecc7a,64cf47f0acc4858e8327c027,,,,,,,decisionTrl,resources/DG.BMP,resources/DBN.BMP,WildCard_Ex,0.315740797,0.133333312,1,0,0,1.2799,optionRight,5,3715,2,24,0,24,0,1,,,,,,,,,,,,,,,,,,,,,,,,,,,,,,,,,,,,,,,
,,,,,,,,2023-08-06_08h13.09.624,HF_wild_card,2022.2.4,Win32,58.76131155,5c5c9a127bca5b000167acb8,64ce5acb97489d65b14ecc7a,64cf47f0acc4858e8327c027,,,,,,,sngl,resources/DG.BMP,resources/Empty.png,Door2,-0.29351849,0.067592586,1,0,0,1.178,optionLeft,20,3735,2,25,0,25,0,1,,,,,,,,,,,,,,,,,,,,,,,,,,,,,,,,,,,,,,,
,,,,,,,,2023-08-06_08h13.09.624,HF_wild_card,2022.2.4,Win32,58.76131155,5c5c9a127bca5b000167acb8,64ce5acb97489d65b14ecc7a,64cf47f0acc4858e8327c027,,,,,,,decisionTrl,resources/DG.BMP,resources/DP.BMP,Door1,0.357407464,0.01944443,1,0,0,0.9455,optionRight,30,3765,2,26,0,26,0,1,,,,,,,,,,,,,,,,,,,,,,,,,,,,,,,,,,,,,,,
,,,,,,,,2023-08-06_08h13.09.624,HF_wild_card,2022.2.4,Win32,58.76131155,5c5c9a127bca5b000167acb8,64ce5acb97489d65b14ecc7a,64cf47f0acc4858e8327c027,,,,,,,decisionTrl,resources/DG.BMP,resources/DP.BMP,Door1,0.332407492,-0.010185206,1,0,0,1.5457,optionRight,30,3795,2,27,0,27,0,1,,,,,,,,,,,,,,,,,,,,,,,,,,,,,,,,,,,,,,,
,,,,,,,,2023-08-06_08h13.09.624,HF_wild_card,2022.2.4,Win32,58.76131155,5c5c9a127bca5b000167acb8,64ce5acb97489d65b14ecc7a,64cf47f0acc4858e8327c027,,,,,,,ctch,resources/DG.BMP,resources/DB.BMP,Door3,0.316666638,0.064814815,1,0,0,1.2786,optionRight,70,3865,2,28,0,28,0,1,,,,,,,,,,,,,,,,,,,,,,,,,,,,,,,,,,,,,,,
,,,,,,,,2023-08-06_08h13.09.624,HF_wild_card,2022.2.4,Win32,58.76131155,5c5c9a127bca5b000167acb8,64ce5acb97489d65b14ecc7a,64cf47f0acc4858e8327c027,,,,,,,ctch,resources/DP.BMP,resources/DR.BMP,Door1,-0.381481489,-0.048148155,1,0,0,2.157,optionLeft,30,3895,2,29,0,29,0,1,,,,,,,,,,,,,,,,,,,,,,,,,,,,,,,,,,,,,,,
,,,,,,,,2023-08-06_08h13.09.624,HF_wild_card,2022.2.4,Win32,58.76131155,5c5c9a127bca5b000167acb8,64ce5acb97489d65b14ecc7a,64cf47f0acc4858e8327c027,,,,,,,decisionTrl,resources/DR.BMP,resources/DB.BMP,Door3,0.393518519,0.01944443,1,0,0,1.2734,optionRight,70,3965,2,30,0,30,0,1,,,,,,,,,,,,,,,,,,,,,,,,,,,,,,,,,,,,,,,
,,,,,,,,2023-08-06_08h13.09.624,HF_wild_card,2022.2.4,Win32,58.76131155,5c5c9a127bca5b000167acb8,64ce5acb97489d65b14ecc7a,64cf47f0acc4858e8327c027,,,,,,,sngl,resources/Empty.png,resources/DB.BMP,Door3,0.377777806,-0.069444444,1,0,0,1.7299,optionRight,70,4035,2,31,0,31,0,1,,,,,,,,,,,,,,,,,,,,,,,,,,,,,,,,,,,,,,,
,,,,,,,,2023-08-06_08h13.09.624,HF_wild_card,2022.2.4,Win32,58.76131155,5c5c9a127bca5b000167acb8,64ce5acb97489d65b14ecc7a,64cf47f0acc4858e8327c027,,,,,,,decisionTrl,resources/DB.BMP,resources/DR.BMP,Door3,-0.3824074,-0.010185206,1,0,0,1.7282,optionLeft,70,4105,2,32,0,32,0,1,,,,,,,,,,,,,,,,,,,,,,,,,,,,,,,,,,,,,,,
,,,,,,,,2023-08-06_08h13.09.624,HF_wild_card,2022.2.4,Win32,58.76131155,5c5c9a127bca5b000167acb8,64ce5acb97489d65b14ecc7a,64cf47f0acc4858e8327c027,,,,,,,sngl,resources/DBN.BMP,resources/Empty.png,WildCard_Ex,-0.352777764,-0.112037023,1,0,0,1.4959,optionLeft,95,4200,2,33,0,33,0,1,,,,,,,,,,,,,,,,,,,,,,,,,,,,,,,,,,,,,,,
,,,,,,,,2023-08-06_08h13.09.624,HF_wild_card,2022.2.4,Win32,58.76131155,5c5c9a127bca5b000167acb8,64ce5acb97489d65b14ecc7a,64cf47f0acc4858e8327c027,,,,,,,decisionTrl,resources/DBN.BMP,resources/DB.BMP,WildCard_Ex,-0.381481489,0.048148155,1,0,0,1.9454,optionLeft,5,4205,2,34,0,34,0,1,,,,,,,,,,,,,,,,,,,,,,,,,,,,,,,,,,,,,,,
,,,,,,,,2023-08-06_08h13.09.624,HF_wild_card,2022.2.4,Win32,58.76131155,5c5c9a127bca5b000167acb8,64ce5acb97489d65b14ecc7a,64cf47f0acc4858e8327c027,,,,,,,ctch,resources/DP.BMP,resources/DR.BMP,Door1,-0.352777764,-0.056481503,1,0,0,1.7758,optionLeft,30,4235,2,35,0,35,0,1,,,,,,,,,,,,,,,,,,,,,,,,,,,,,,,,,,,,,,,
,,,,,,,,2023-08-06_08h13.09.624,HF_wild_card,2022.2.4,Win32,58.76131155,5c5c9a127bca5b000167acb8,64ce5acb97489d65b14ecc7a,64cf47f0acc4858e8327c027,,,,,,,sngl,resources/DBN.BMP,resources/Empty.png,WildCard_Ex,-0.300925926,0.11296297,1,0,0,1.1126,optionLeft,5,4240,2,36,0,36,0,1,,,,,,,,,,,,,,,,,,,,,,,,,,,,,,,,,,,,,,,
,,,,,,,,2023-08-06_08h13.09.624,HF_wild_card,2022.2.4,Win32,58.76131155,5c5c9a127bca5b000167acb8,64ce5acb97489d65b14ecc7a,64cf47f0acc4858e8327c027,,,,,,,sngl,resources/Empty.png,resources/DR.BMP,Door4,0.348148205,0.059259238,1,0,0,1.2296,optionRight,80,4320,2,37,0,37,0,1,,,,,,,,,,,,,,,,,,,,,,,,,,,,,,,,,,,,,,,
,,,,,,,,2023-08-06_08h13.09.624,HF_wild_card,2022.2.4,Win32,58.76131155,5c5c9a127bca5b000167acb8,64ce5acb97489d65b14ecc7a,64cf47f0acc4858e8327c027,,,,,,,decisionTrl,resources/DP.BMP,resources/DG.BMP,Door1,-0.302777785,-0.010185206,1,0,0,1.3956,optionLeft,30,4350,2,38,0,38,0,1,,,,,,,,,,,,,,,,,,,,,,,,,,,,,,,,,,,,,,,
,,,,,,,,2023-08-06_08h13.09.624,HF_wild_card,2022.2.4,Win32,58.76131155,5c5c9a127bca5b000167acb8,64ce5acb97489d65b14ecc7a,64cf47f0acc4858e8327c027,,,,,,,decisionTrl,resources/DR.BMP,resources/DBN.BMP,WildCard_Ex,0.336111139,0.122222229,1,0,0,1.1123,optionRight,95,4445,2,39,0,39,0,1,,,,,,,,,,,,,,,,,,,,,,,,,,,,,,,,,,,,,,,
,,,,,,,,2023-08-06_08h13.09.624,HF_wild_card,2022.2.4,Win32,58.76131155,5c5c9a127bca5b000167acb8,64ce5acb97489d65b14ecc7a,64cf47f0acc4858e8327c027,,,,,,,decisionTrl,resources/DB.BMP,resources/DBN.BMP,WildCard_Ex,0.30277775,0.154629637,1,0,0,1.1626,optionRight,95,4540,2,40,0,40,0,1,,,,,,,,,,,,,,,,,,,,,,,,,,,,,,,,,,,,,,,
,,,,,,,,2023-08-06_08h13.09.624,HF_wild_card,2022.2.4,Win32,58.76131155,5c5c9a127bca5b000167acb8,64ce5acb97489d65b14ecc7a,64cf47f0acc4858e8327c027,,,,,,,decisionTrl,resources/DP.BMP,resources/DG.BMP,Door1,-0.494444423,-0.013888889,1,0,0,1.1076,optionLeft,30,4570,2,41,0,41,0,1,,,,,,,,,,,,,,,,,,,,,,,,,,,,,,,,,,,,,,,
,,,,,,,,2023-08-06_08h13.09.624,HF_wild_card,2022.2.4,Win32,58.76131155,5c5c9a127bca5b000167acb8,64ce5acb97489d65b14ecc7a,64cf47f0acc4858e8327c027,,,,,,,decisionTrl,resources/DG.BMP,resources/DP.BMP,Door1,0.262037065,0.02407406,1,0,0,1.1457,optionRight,30,4600,2,42,0,42,0,1,,,,,,,,,,,,,,,,,,,,,,,,,,,,,,,,,,,,,,,
,,,,,,,,2023-08-06_08h13.09.624,HF_wild_card,2022.2.4,Win32,58.76131155,5c5c9a127bca5b000167acb8,64ce5acb97489d65b14ecc7a,64cf47f0acc4858e8327c027,,,,,,,decisionTrl,resources/DR.BMP,resources/DB.BMP,Door3,0.256481524,0,1,0,0,1.1454,optionRight,70,4670,2,43,0,43,0,1,,,,,,,,,,,,,,,,,,,,,,,,,,,,,,,,,,,,,,,
,,,,,,,,2023-08-06_08h13.09.624,HF_wild_card,2022.2.4,Win32,58.76131155,5c5c9a127bca5b000167acb8,64ce5acb97489d65b14ecc7a,64cf47f0acc4858e8327c027,,,,,,,,,,,,,,,,,,,,,,,,,,1,0,1,0,1,,,,,,,,,,,,,,,,,,,,,,,,,,,,,,,,,,
,,,,,,,,2023-08-06_08h13.09.624,HF_wild_card,2022.2.4,Win32,58.76131155,5c5c9a127bca5b000167acb8,64ce5acb97489d65b14ecc7a,64cf47f0acc4858e8327c027,,,,,,,decisionTrl,resources/DB.BMP,resources/DR.BMP,Door3,-0.353703711,-0.008333347,1,0,0,2.7239,optionLeft,70,4740,3,0,0,0,0,1,,,,,,,,,,,,,,,,,,,,,,,,,,,,,,,,,,,,,,,
,,,,,,,,2023-08-06_08h13.09.624,HF_wild_card,2022.2.4,Win32,58.76131155,5c5c9a127bca5b000167acb8,64ce5acb97489d65b14ecc7a,64cf47f0acc4858e8327c027,,,,,,,decisionTrl,resources/DR.BMP,resources/DBN.BMP,WildCard_Ex,0.235185199,0.095370363,1,0,0,0.9955,optionRight,5,4745,3,1,0,1,0,1,,,,,,,,,,,,,,,,,,,,,,,,,,,,,,,,,,,,,,,
,,,,,,,,2023-08-06_08h13.09.624,HF_wild_card,2022.2.4,Win32,58.76131155,5c5c9a127bca5b000167acb8,64ce5acb97489d65b14ecc7a,64cf47f0acc4858e8327c027,,,,,,,decisionTrl,resources/DP.BMP,resources/DG.BMP,Door1,-0.418518526,-0.023148148,1,0,0,1.1788,optionLeft,30,4775,3,2,0,2,0,1,,,,,,,,,,,,,,,,,,,,,,,,,,,,,,,,,,,,,,,
,,,,,,,,2023-08-06_08h13.09.624,HF_wild_card,2022.2.4,Win32,58.76131155,5c5c9a127bca5b000167acb8,64ce5acb97489d65b14ecc7a,64cf47f0acc4858e8327c027,,,,,,,decisionTrl,resources/DG.BMP,resources/DP.BMP,Door2,-0.311111097,-0.014814836,1,0,0,1.7792,optionLeft,40,4815,3,3,0,3,0,1,,,,,,,,,,,,,,,,,,,,,,,,,,,,,,,,,,,,,,,
,,,,,,,,2023-08-06_08h13.09.624,HF_wild_card,2022.2.4,Win32,58.76131155,5c5c9a127bca5b000167acb8,64ce5acb97489d65b14ecc7a,64cf47f0acc4858e8327c027,,,,,,,decisionTrl,resources/DB.BMP,resources/DR.BMP,Door3,-0.355555534,-0.006481489,1,0,0,1.0117,optionLeft,70,4885,3,4,0,4,0,1,,,,,,,,,,,,,,,,,,,,,,,,,,,,,,,,,,,,,,,
,,,,,,,,2023-08-06_08h13.09.624,HF_wild_card,2022.2.4,Win32,58.76131155,5c5c9a127bca5b000167acb8,64ce5acb97489d65b14ecc7a,64cf47f0acc4858e8327c027,,,,,,,ctch,resources/DR.BMP,resources/DP.BMP,Door1,0.258333347,0.01944443,1,0,0,1.2795,optionRight,30,4915,3,5,0,5,0,1,,,,,,,,,,,,,,,,,,,,,,,,,,,,,,,,,,,,,,,
,,,,,,,,2023-08-06_08h13.09.624,HF_wild_card,2022.2.4,Win32,58.76131155,5c5c9a127bca5b000167acb8,64ce5acb97489d65b14ecc7a,64cf47f0acc4858e8327c027,,,,,,,decisionTrl,resources/DP.BMP,resources/DG.BMP,Door2,0.262962977,0.003703683,1,0,0,1.9955,optionRight,40,4955,3,6,0,6,0,1,,,,,,,,,,,,,,,,,,,,,,,,,,,,,,,,,,,,,,,
,,,,,,,,2023-08-06_08h13.09.624,HF_wild_card,2022.2.4,Win32,58.76131155,5c5c9a127bca5b000167acb8,64ce5acb97489d65b14ecc7a,64cf47f0acc4858e8327c027,,,,,,,decisionTrl,resources/DB.BMP,resources/DBN.BMP,WildCard_Ex,0.325925898,0.137962942,1,0,0,1.2414,optionRight,95,5050,3,7,0,7,0,1,,,,,,,,,,,,,,,,,,,,,,,,,,,,,,,,,,,,,,,
,,,,,,,,2023-08-06_08h13.09.624,HF_wild_card,2022.2.4,Win32,58.76131155,5c5c9a127bca5b000167acb8,64ce5acb97489d65b14ecc7a,64cf47f0acc4858e8327c027,,,,,,,ctch,resources/DG.BMP,resources/DB.BMP,Door3,0.323148233,0.039814808,1,0,0,1.5293,optionRight,70,5120,3,8,0,8,0,1,,,,,,,,,,,,,,,,,,,,,,,,,,,,,,,,,,,,,,,
,,,,,,,,2023-08-06_08h13.09.624,HF_wild_card,2022.2.4,Win32,58.76131155,5c5c9a127bca5b000167acb8,64ce5acb97489d65b14ecc7a,64cf47f0acc4858e8327c027,,,,,,,decisionTrl,resources/DR.BMP,resources/DB.BMP,Door3,0.309259344,0.078703704,1,0,0,1.1096,optionRight,70,5190,3,9,0,9,0,1,,,,,,,,,,,,,,,,,,,,,,,,,,,,,,,,,,,,,,,
,,,,,,,,2023-08-06_08h13.09.624,HF_wild_card,2022.2.4,Win32,58.76131155,5c5c9a127bca5b000167acb8,64ce5acb97489d65b14ecc7a,64cf47f0acc4858e8327c027,,,,,,,decisionTrl,resources/DBN.BMP,resources/DG.BMP,WildCard_Ex,-0.285185143,0.130555541,1,0,0,1.4296,optionLeft,5,5195,3,10,0,10,0,1,,,,,,,,,,,,,,,,,,,,,,,,,,,,,,,,,,,,,,,
,,,,,,,,2023-08-06_08h13.09.624,HF_wild_card,2022.2.4,Win32,58.76131155,5c5c9a127bca5b000167acb8,64ce5acb97489d65b14ecc7a,64cf47f0acc4858e8327c027,,,,,,,sngl,resources/DG.BMP,resources/Empty.png,Door2,-0.229629587,0.047222208,1,0,0,1.0964,optionLeft,40,5235,3,11,0,11,0,1,,,,,,,,,,,,,,,,,,,,,,,,,,,,,,,,,,,,,,,
,,,,,,,,2023-08-06_08h13.09.624,HF_wild_card,2022.2.4,Win32,58.76131155,5c5c9a127bca5b000167acb8,64ce5acb97489d65b14ecc7a,64cf47f0acc4858e8327c027,,,,,,,ctch,resources/DB.BMP,resources/DG.BMP,Door3,-0.298148155,0.061111097,1,0,0,1.5981,optionLeft,70,5305,3,12,0,12,0,1,,,,,,,,,,,,,,,,,,,,,,,,,,,,,,,,,,,,,,,
,,,,,,,,2023-08-06_08h13.09.624,HF_wild_card,2022.2.4,Win32,58.76131155,5c5c9a127bca5b000167acb8,64ce5acb97489d65b14ecc7a,64cf47f0acc4858e8327c027,,,,,,,decisionTrl,resources/DB.BMP,resources/DR.BMP,Door3,-0.266666624,0.025000007,1,0,0,0.8625,optionLeft,70,5375,3,13,0,13,0,1,,,,,,,,,,,,,,,,,,,,,,,,,,,,,,,,,,,,,,,
,,,,,,,,2023-08-06_08h13.09.624,HF_wild_card,2022.2.4,Win32,58.76131155,5c5c9a127bca5b000167acb8,64ce5acb97489d65b14ecc7a,64cf47f0acc4858e8327c027,,,,,,,decisionTrl,resources/DBN.BMP,resources/DB.BMP,WildCard_Ex,-0.292592578,0.114814794,1,0,0,2.345,optionLeft,95,5470,3,14,0,14,0,1,,,,,,,,,,,,,,,,,,,,,,,,,,,,,,,,,,,,,,,
,,,,,,,,2023-08-06_08h13.09.624,HF_wild_card,2022.2.4,Win32,58.76131155,5c5c9a127bca5b000167acb8,64ce5acb97489d65b14ecc7a,64cf47f0acc4858e8327c027,,,,,,,decisionTrl,resources/DR.BMP,resources/DB.BMP,Door3,0.324074074,0.089814822,1,0,0,1.0139,optionRight,70,5540,3,15,0,15,0,1,,,,,,,,,,,,,,,,,,,,,,,,,,,,,,,,,,,,,,,
,,,,,,,,2023-08-06_08h13.09.624,HF_wild_card,2022.2.4,Win32,58.76131155,5c5c9a127bca5b000167acb8,64ce5acb97489d65b14ecc7a,64cf47f0acc4858e8327c027,,,,,,,ctch,resources/DR.BMP,resources/DP.BMP,Door1,0.272222236,0.054629608,1,0,0,1.395,optionRight,30,5570,3,16,0,16,0,1,,,,,,,,,,,,,,,,,,,,,,,,,,,,,,,,,,,,,,,
,,,,,,,,2023-08-06_08h13.09.624,HF_wild_card,2022.2.4,Win32,58.76131155,5c5c9a127bca5b000167acb8,64ce5acb97489d65b14ecc7a,64cf47f0acc4858e8327c027,,,,,,,ctch,resources/DG.BMP,resources/DB.BMP,Door3,0.327777863,0.072222215,1,0,0,1.2618,optionRight,70,5640,3,17,0,17,0,1,,,,,,,,,,,,,,,,,,,,,,,,,,,,,,,,,,,,,,,
,,,,,,,,2023-08-06_08h13.09.624,HF_wild_card,2022.2.4,Win32,58.76131155,5c5c9a127bca5b000167acb8,64ce5acb97489d65b14ecc7a,64cf47f0acc4858e8327c027,,,,,,,sngl,resources/DP.BMP,resources/Empty.png,Door1,-0.238888847,0.041666667,1,0,0,1.2452,optionLeft,30,5670,3,18,0,18,0,1,,,,,,,,,,,,,,,,,,,,,,,,,,,,,,,,,,,,,,,
,,,,,,,,2023-08-06_08h13.09.624,HF_wild_card,2022.2.4,Win32,58.76131155,5c5c9a127bca5b000167acb8,64ce5acb97489d65b14ecc7a,64cf47f0acc4858e8327c027,,,,,,,sngl,resources/DBN.BMP,resources/Empty.png,WildCard_Ex,-0.215740698,0.099074081,1,0,0,1.0082,optionLeft,5,5675,3,19,0,19,0,1,,,,,,,,,,,,,,,,,,,,,,,,,,,,,,,,,,,,,,,
,,,,,,,,2023-08-06_08h13.09.624,HF_wild_card,2022.2.4,Win32,58.76131155,5c5c9a127bca5b000167acb8,64ce5acb97489d65b14ecc7a,64cf47f0acc4858e8327c027,,,,,,,ctch,resources/DB.BMP,resources/DG.BMP,Door3,-0.349999993,-0.019444466,1,0,0,2.5633,optionLeft,70,5745,3,20,0,20,0,1,,,,,,,,,,,,,,,,,,,,,,,,,,,,,,,,,,,,,,,
,,,,,,,,2023-08-06_08h13.09.624,HF_wild_card,2022.2.4,Win32,58.76131155,5c5c9a127bca5b000167acb8,64ce5acb97489d65b14ecc7a,64cf47f0acc4858e8327c027,,,,,,,decisionTrl,resources/DR.BMP,resources/DB.BMP,Door3,0.209259245,0.009259259,1,0,0,0.745,optionRight,70,5815,3,21,0,21,0,1,,,,,,,,,,,,,,,,,,,,,,,,,,,,,,,,,,,,,,,
,,,,,,,,2023-08-06_08h13.09.624,HF_wild_card,2022.2.4,Win32,58.76131155,5c5c9a127bca5b000167acb8,64ce5acb97489d65b14ecc7a,64cf47f0acc4858e8327c027,,,,,,,decisionTrl,resources/DP.BMP,resources/DG.BMP,Door2,0.176851838,0.012962942,1,0,0,2.0141,optionRight,20,5835,3,22,0,22,0,1,,,,,,,,,,,,,,,,,,,,,,,,,,,,,,,,,,,,,,,
,,,,,,,,2023-08-06_08h13.09.624,HF_wild_card,2022.2.4,Win32,58.76131155,5c5c9a127bca5b000167acb8,64ce5acb97489d65b14ecc7a,64cf47f0acc4858e8327c027,,,,,,,sngl,resources/DR.BMP,resources/Empty.png,Door4,-0.451851845,0.044444437,1,0,0,1.0648,optionLeft,80,5915,3,23,0,23,0,1,,,,,,,,,,,,,,,,,,,,,,,,,,,,,,,,,,,,,,,
,,,,,,,,2023-08-06_08h13.09.624,HF_wild_card,2022.2.4,Win32,58.76131155,5c5c9a127bca5b000167acb8,64ce5acb97489d65b14ecc7a,64cf47f0acc4858e8327c027,,,,,,,decisionTrl,resources/DBN.BMP,resources/DP.BMP,WildCard_Ex,-0.328703704,0.066666674,1,0,0,1.8279,optionLeft,5,5920,3,24,0,24,0,1,,,,,,,,,,,,,,,,,,,,,,,,,,,,,,,,,,,,,,,
,,,,,,,,2023-08-06_08h13.09.624,HF_wild_card,2022.2.4,Win32,58.76131155,5c5c9a127bca5b000167acb8,64ce5acb97489d65b14ecc7a,64cf47f0acc4858e8327c027,,,,,,,sngl,resources/Empty.png,resources/DBN.BMP,WildCard_Ex,0.209259245,0.093518504,1,0,0,2.1617,optionRight,5,5925,3,25,0,25,0,1,,,,,,,,,,,,,,,,,,,,,,,,,,,,,,,,,,,,,,,
,,,,,,,,2023-08-06_08h13.09.624,HF_wild_card,2022.2.4,Win32,58.76131155,5c5c9a127bca5b000167acb8,64ce5acb97489d65b14ecc7a,64cf47f0acc4858e8327c027,,,,,,,decisionTrl,resources/DP.BMP,resources/DBN.BMP,WildCard_Ex,0.179629644,0.047222208,1,0,0,0.8438,optionRight,5,5930,3,26,0,26,0,1,,,,,,,,,,,,,,,,,,,,,,,,,,,,,,,,,,,,,,,
,,,,,,,,2023-08-06_08h13.09.624,HF_wild_card,2022.2.4,Win32,58.76131155,5c5c9a127bca5b000167acb8,64ce5acb97489d65b14ecc7a,64cf47f0acc4858e8327c027,,,,,,,decisionTrl,resources/DP.BMP,resources/DG.BMP,Door2,0.175000014,0.025925919,1,0,0,1.8618,optionRight,20,5950,3,27,0,27,0,1,,,,,,,,,,,,,,,,,,,,,,,,,,,,,,,,,,,,,,,
,,,,,,,,2023-08-06_08h13.09.624,HF_wild_card,2022.2.4,Win32,58.76131155,5c5c9a127bca5b000167acb8,64ce5acb97489d65b14ecc7a,64cf47f0acc4858e8327c027,,,,,,,sngl,resources/DBN.BMP,resources/Empty.png,WildCard_Ex,-0.430555556,0.070370356,1,0,0,0.863,optionLeft,95,6045,3,28,0,28,0,1,,,,,,,,,,,,,,,,,,,,,,,,,,,,,,,,,,,,,,,
,,,,,,,,2023-08-06_08h13.09.624,HF_wild_card,2022.2.4,Win32,58.76131155,5c5c9a127bca5b000167acb8,64ce5acb97489d65b14ecc7a,64cf47f0acc4858e8327c027,,,,,,,decisionTrl,resources/DG.BMP,resources/DBN.BMP,WildCard_Ex,0.186111097,0.103703711,1,0,0,1.2775,optionRight,5,6050,3,29,0,29,0,1,,,,,,,,,,,,,,,,,,,,,,,,,,,,,,,,,,,,,,,
,,,,,,,,2023-08-06_08h13.09.624,HF_wild_card,2022.2.4,Win32,58.76131155,5c5c9a127bca5b000167acb8,64ce5acb97489d65b14ecc7a,64cf47f0acc4858e8327c027,,,,,,,sngl,resources/Empty.png,resources/DP.BMP,Door1,0.405555584,0.029629637,1,0,0,1.1295,optionRight,30,6080,3,30,0,30,0,1,,,,,,,,,,,,,,,,,,,,,,,,,,,,,,,,,,,,,,,
,,,,,,,,2023-08-06_08h13.09.624,HF_wild_card,2022.2.4,Win32,58.76131155,5c5c9a127bca5b000167acb8,64ce5acb97489d65b14ecc7a,64cf47f0acc4858e8327c027,,,,,,,decisionTrl,resources/DG.BMP,resources/DP.BMP,Door2,-0.25,0.059259238,1,0,0,1.8295,optionLeft,40,6120,3,31,0,31,0,1,,,,,,,,,,,,,,,,,,,,,,,,,,,,,,,,,,,,,,,
,,,,,,,,2023-08-06_08h13.09.624,HF_wild_card,2022.2.4,Win32,58.76131155,5c5c9a127bca5b000167acb8,64ce5acb97489d65b14ecc7a,64cf47f0acc4858e8327c027,,,,,,,sngl,resources/Empty.png,resources/DG.BMP,Door2,0.267592607,0.10833334,1,0,0,0.9624,optionRight,20,6140,3,32,0,32,0,1,,,,,,,,,,,,,,,,,,,,,,,,,,,,,,,,,,,,,,,
,,,,,,,,2023-08-06_08h13.09.624,HF_wild_card,2022.2.4,Win32,58.76131155,5c5c9a127bca5b000167acb8,64ce5acb97489d65b14ecc7a,64cf47f0acc4858e8327c027,,,,,,,sngl,resources/Empty.png,resources/DB.BMP,Door3,0.250925912,0.116666653,1,0,0,1.0965,optionRight,70,6210,3,33,0,33,0,1,,,,,,,,,,,,,,,,,,,,,,,,,,,,,,,,,,,,,,,
,,,,,,,,2023-08-06_08h13.09.624,HF_wild_card,2022.2.4,Win32,58.76131155,5c5c9a127bca5b000167acb8,64ce5acb97489d65b14ecc7a,64cf47f0acc4858e8327c027,,,,,,,ctch,resources/DP.BMP,resources/DR.BMP,Door4,0.226851852,0.069444444,1,0,0,1.6789,optionRight,60,6270,3,34,0,34,0,1,,,,,,,,,,,,,,,,,,,,,,,,,,,,,,,,,,,,,,,
,,,,,,,,2023-08-06_08h13.09.624,HF_wild_card,2022.2.4,Win32,58.76131155,5c5c9a127bca5b000167acb8,64ce5acb97489d65b14ecc7a,64cf47f0acc4858e8327c027,,,,,,,ctch,resources/DP.BMP,resources/DR.BMP,Door4,0.214814857,0.104629623,1,0,0,2.1809,optionRight,80,6350,3,35,0,35,0,1,,,,,,,,,,,,,,,,,,,,,,,,,,,,,,,,,,,,,,,
,,,,,,,,2023-08-06_08h13.09.624,HF_wild_card,2022.2.4,Win32,58.76131155,5c5c9a127bca5b000167acb8,64ce5acb97489d65b14ecc7a,64cf47f0acc4858e8327c027,,,,,,,sngl,resources/Empty.png,resources/DBN.BMP,WildCard_Ex,0.24537037,0.13703703,1,0,0,0.9784,optionRight,95,6445,3,36,0,36,0,1,,,,,,,,,,,,,,,,,,,,,,,,,,,,,,,,,,,,,,,
,,,,,,,,2023-08-06_08h13.09.624,HF_wild_card,2022.2.4,Win32,58.76131155,5c5c9a127bca5b000167acb8,64ce5acb97489d65b14ecc7a,64cf47f0acc4858e8327c027,,,,,,,decisionTrl,resources/DB.BMP,resources/DR.BMP,Door3,-0.376851859,0.049074067,1,0,0,2.6451,optionLeft,70,6515,3,37,0,37,0,1,,,,,,,,,,,,,,,,,,,,,,,,,,,,,,,,,,,,,,,
,,,,,,,,2023-08-06_08h13.09.624,HF_wild_card,2022.2.4,Win32,58.76131155,5c5c9a127bca5b000167acb8,64ce5acb97489d65b14ecc7a,64cf47f0acc4858e8327c027,,,,,,,decisionTrl,resources/DBN.BMP,resources/DR.BMP,WildCard_Ex,-0.424999979,0.086111104,1,0,0,1.0933,optionLeft,5,6520,3,38,0,38,0,1,,,,,,,,,,,,,,,,,,,,,,,,,,,,,,,,,,,,,,,
,,,,,,,,2023-08-06_08h13.09.624,HF_wild_card,2022.2.4,Win32,58.76131155,5c5c9a127bca5b000167acb8,64ce5acb97489d65b14ecc7a,64cf47f0acc4858e8327c027,,,,,,,sngl,resources/Empty.png,resources/DR.BMP,Door4,0.198148162,0.037037037,1,0,0,0.9315,optionRight,60,6580,3,39,0,39,0,1,,,,,,,,,,,,,,,,,,,,,,,,,,,,,,,,,,,,,,,
,,,,,,,,2023-08-06_08h13.09.624,HF_wild_card,2022.2.4,Win32,58.76131155,5c5c9a127bca5b000167acb8,64ce5acb97489d65b14ecc7a,64cf47f0acc4858e8327c027,,,,,,,decisionTrl,resources/DG.BMP,resources/DP.BMP,Door2,-0.287962949,0.078703704,1,0,0,1.5791,optionLeft,40,6620,3,40,0,40,0,1,,,,,,,,,,,,,,,,,,,,,,,,,,,,,,,,,,,,,,,
,,,,,,,,2023-08-06_08h13.09.624,HF_wild_card,2022.2.4,Win32,58.76131155,5c5c9a127bca5b000167acb8,64ce5acb97489d65b14ecc7a,64cf47f0acc4858e8327c027,,,,,,,sngl,resources/DB.BMP,resources/Empty.png,Door3,-0.318518497,0.027777778,1,0,0,0.8629,optionLeft,70,6690,3,41,0,41,0,1,,,,,,,,,,,,,,,,,,,,,,,,,,,,,,,,,,,,,,,
,,,,,,,,2023-08-06_08h13.09.624,HF_wild_card,2022.2.4,Win32,58.76131155,5c5c9a127bca5b000167acb8,64ce5acb97489d65b14ecc7a,64cf47f0acc4858e8327c027,,,,,,,decisionTrl,resources/DG.BMP,resources/DP.BMP,Door2,-0.217592593,0.060185185,1,0,0,1.2475,optionLeft,20,6710,3,42,0,42,0,1,,,,,,,,,,,,,,,,,,,,,,,,,,,,,,,,,,,,,,,
,,,,,,,,2023-08-06_08h13.09.624,HF_wild_card,2022.2.4,Win32,58.76131155,5c5c9a127bca5b000167acb8,64ce5acb97489d65b14ecc7a,64cf47f0acc4858e8327c027,,,,,,,decisionTrl,resources/DR.BMP,resources/DB.BMP,Door3,0.180555556,0.02870369,1,0,0,1.0415,optionRight,70,6780,3,43,0,43,0,1,,,,,,,,,,,,,,,,,,,,,,,,,,,,,,,,,,,,,,,
,,,,,,,,2023-08-06_08h13.09.624,HF_wild_card,2022.2.4,Win32,58.76131155,5c5c9a127bca5b000167acb8,64ce5acb97489d65b14ecc7a,64cf47f0acc4858e8327c027,,,,,,,,,,,,,,,,,,,,,,,,,,2,0,2,0,1,,,,,,,,,,,,,,,,,,,,,,,,,,,,,,,,,,
,,,,,,,,2023-08-06_08h13.09.624,HF_wild_card,2022.2.4,Win32,58.76131155,5c5c9a127bca5b000167acb8,64ce5acb97489d65b14ecc7a,64cf47f0acc4858e8327c027,,,,,,,ctch,resources/DB.BMP,resources/DG.BMP,Door3,-0.348148134,0.041666667,1,0,0,1.158,optionLeft,70,6850,4,0,0,0,0,1,,,,,,,,,,,,,,,,,,,,,,,,,,,,,,,,,,,,,,,
,,,,,,,,2023-08-06_08h13.09.624,HF_wild_card,2022.2.4,Win32,58.76131155,5c5c9a127bca5b000167acb8,64ce5acb97489d65b14ecc7a,64cf47f0acc4858e8327c027,,,,,,,ctch,resources/DP.BMP,resources/DR.BMP,Door4,0.156481496,0.02870369,1,0,0,1.8449,optionRight,80,6930,4,1,0,1,0,1,,,,,,,,,,,,,,,,,,,,,,,,,,,,,,,,,,,,,,,
,,,,,,,,2023-08-06_08h13.09.624,HF_wild_card,2022.2.4,Win32,58.76131155,5c5c9a127bca5b000167acb8,64ce5acb97489d65b14ecc7a,64cf47f0acc4858e8327c027,,,,,,,decisionTrl,resources/DG.BMP,resources/DP.BMP,Door2,-0.229629587,0.115740741,1,0,0,1.7906,optionLeft,20,6950,4,2,0,2,0,1,,,,,,,,,,,,,,,,,,,,,,,,,,,,,,,,,,,,,,,
,,,,,,,,2023-08-06_08h13.09.624,HF_wild_card,2022.2.4,Win32,58.76131155,5c5c9a127bca5b000167acb8,64ce5acb97489d65b14ecc7a,64cf47f0acc4858e8327c027,,,,,,,decisionTrl,resources/DP.BMP,resources/DG.BMP,Door2,0.199999986,0.16574072,1,0,0,1.013,optionRight,40,6990,4,3,0,3,0,1,,,,,,,,,,,,,,,,,,,,,,,,,,,,,,,,,,,,,,,
,,,,,,,,2023-08-06_08h13.09.624,HF_wild_card,2022.2.4,Win32,58.76131155,5c5c9a127bca5b000167acb8,64ce5acb97489d65b14ecc7a,64cf47f0acc4858e8327c027,,,,,,,decisionTrl,resources/DB.BMP,resources/DR.BMP,Door3,-0.280555513,0.053703697,1,0,0,1.0622,optionLeft,70,7060,4,4,0,4,0,1,,,,,,,,,,,,,,,,,,,,,,,,,,,,,,,,,,,,,,,
,,,,,,,,2023-08-06_08h13.09.624,HF_wild_card,2022.2.4,Win32,58.76131155,5c5c9a127bca5b000167acb8,64ce5acb97489d65b14ecc7a,64cf47f0acc4858e8327c027,,,,,,,decisionTrl,resources/DG.BMP,resources/DP.BMP,Door2,-0.19259255,0.094444452,1,0,0,1.8111,optionLeft,40,7100,4,5,0,5,0,1,,,,,,,,,,,,,,,,,,,,,,,,,,,,,,,,,,,,,,,
,,,,,,,,2023-08-06_08h13.09.624,HF_wild_card,2022.2.4,Win32,58.76131155,5c5c9a127bca5b000167acb8,64ce5acb97489d65b14ecc7a,64cf47f0acc4858e8327c027,,,,,,,ctch,resources/DG.BMP,resources/DB.BMP,Door3,0.255555541,0.11296297,1,0,0,0.9951,optionRight,70,7170,4,6,0,6,0,1,,,,,,,,,,,,,,,,,,,,,,,,,,,,,,,,,,,,,,,
,,,,,,,,2023-08-06_08h13.09.624,HF_wild_card,2022.2.4,Win32,58.76131155,5c5c9a127bca5b000167acb8,64ce5acb97489d65b14ecc7a,64cf47f0acc4858e8327c027,,,,,,,sngl,resources/Empty.png,resources/DR.BMP,Door4,0.194444444,0.157407407,1,0,0,1.0796,optionRight,80,7250,4,7,0,7,0,1,,,,,,,,,,,,,,,,,,,,,,,,,,,,,,,,,,,,,,,
,,,,,,,,2023-08-06_08h13.09.624,HF_wild_card,2022.2.4,Win32,58.76131155,5c5c9a127bca5b000167acb8,64ce5acb97489d65b14ecc7a,64cf47f0acc4858e8327c027,,,,,,,decisionTrl,resources/DG.BMP,resources/DY.BMP,WildCard_NonEx,0.189814815,0.124074053,1,0,0,1.5633,optionRight,45,7295,4,8,0,8,0,1,,,,,,,,,,,,,,,,,,,,,,,,,,,,,,,,,,,,,,,
,,,,,,,,2023-08-06_08h13.09.624,HF_wild_card,2022.2.4,Win32,58.76131155,5c5c9a127bca5b000167acb8,64ce5acb97489d65b14ecc7a,64cf47f0acc4858e8327c027,,,,,,,sngl,resources/DP.BMP,resources/Empty.png,Door1,-0.215740698,0.067592586,1,0,0,1.1128,optionLeft,30,7325,4,9,0,9,0,1,,,,,,,,,,,,,,,,,,,,,,,,,,,,,,,,,,,,,,,
,,,,,,,,2023-08-06_08h13.09.624,HF_wild_card,2022.2.4,Win32,58.76131155,5c5c9a127bca5b000167acb8,64ce5acb97489d65b14ecc7a,64cf47f0acc4858e8327c027,,,,,,,ctch,resources/DR.BMP,resources/DP.BMP,Door4,-0.251851824,0.079629616,1,0,0,1.846,optionLeft,80,7405,4,10,0,10,0,1,,,,,,,,,,,,,,,,,,,,,,,,,,,,,,,,,,,,,,,
,,,,,,,,2023-08-06_08h13.09.624,HF_wild_card,2022.2.4,Win32,58.76131155,5c5c9a127bca5b000167acb8,64ce5acb97489d65b14ecc7a,64cf47f0acc4858e8327c027,,,,,,,decisionTrl,resources/DR.BMP,resources/DB.BMP,Door3,0.23055557,0.093518504,1,0,0,1.1903,optionRight,70,7475,4,11,0,11,0,1,,,,,,,,,,,,,,,,,,,,,,,,,,,,,,,,,,,,,,,
,,,,,,,,2023-08-06_08h13.09.624,HF_wild_card,2022.2.4,Win32,58.76131155,5c5c9a127bca5b000167acb8,64ce5acb97489d65b14ecc7a,64cf47f0acc4858e8327c027,,,,,,,decisionTrl,resources/DY.BMP,resources/DP.BMP,WildCard_NonEx,-0.212962963,0.097222222,1,0,0,1.1768,optionLeft,55,7530,4,12,0,12,0,1,,,,,,,,,,,,,,,,,,,,,,,,,,,,,,,,,,,,,,,
,,,,,,,,2023-08-06_08h13.09.624,HF_wild_card,2022.2.4,Win32,58.76131155,5c5c9a127bca5b000167acb8,64ce5acb97489d65b14ecc7a,64cf47f0acc4858e8327c027,,,,,,,sngl,resources/Empty.png,resources/DP.BMP,Door1,0.187037079,0.199074074,1,0,0,1.1621,optionRight,30,7560,4,13,0,13,0,1,,,,,,,,,,,,,,,,,,,,,,,,,,,,,,,,,,,,,,,
,,,,,,,,2023-08-06_08h13.09.624,HF_wild_card,2022.2.4,Win32,58.76131155,5c5c9a127bca5b000167acb8,64ce5acb97489d65b14ecc7a,64cf47f0acc4858e8327c027,,,,,,,decisionTrl,resources/DB.BMP,resources/DY.BMP,WildCard_NonEx,0.195370356,0.142592571,1,0,0,1.1132,optionRight,45,7605,4,14,0,14,0,1,,,,,,,,,,,,,,,,,,,,,,,,,,,,,,,,,,,,,,,
,,,,,,,,2023-08-06_08h13.09.624,HF_wild_card,2022.2.4,Win32,58.76131155,5c5c9a127bca5b000167acb8,64ce5acb97489d65b14ecc7a,64cf47f0acc4858e8327c027,,,,,,,decisionTrl,resources/DR.BMP,resources/DB.BMP,Door3,0.23055557,0.14907406,1,0,0,0.9123,optionRight,70,7675,4,15,0,15,0,1,,,,,,,,,,,,,,,,,,,,,,,,,,,,,,,,,,,,,,,
,,,,,,,,2023-08-06_08h13.09.624,HF_wild_card,2022.2.4,Win32,58.76131155,5c5c9a127bca5b000167acb8,64ce5acb97489d65b14ecc7a,64cf47f0acc4858e8327c027,,,,,,,decisionTrl,resources/DP.BMP,resources/DG.BMP,Door2,0.202777792,0.121296282,1,0,0,1.5286,optionRight,40,7715,4,16,0,16,0,1,,,,,,,,,,,,,,,,,,,,,,,,,,,,,,,,,,,,,,,
,,,,,,,,2023-08-06_08h13.09.624,HF_wild_card,2022.2.4,Win32,58.76131155,5c5c9a127bca5b000167acb8,64ce5acb97489d65b14ecc7a,64cf47f0acc4858e8327c027,,,,,,,decisionTrl,resources/DG.BMP,resources/DP.BMP,Door1,0.200925968,0.076851845,1,0,0,2.5952,optionRight,30,7745,4,17,0,17,0,1,,,,,,,,,,,,,,,,,,,,,,,,,,,,,,,,,,,,,,,
,,,,,,,,2023-08-06_08h13.09.624,HF_wild_card,2022.2.4,Win32,58.76131155,5c5c9a127bca5b000167acb8,64ce5acb97489d65b14ecc7a,64cf47f0acc4858e8327c027,,,,,,,decisionTrl,resources/DP.BMP,resources/DG.BMP,Door1,-0.218518504,0.116666653,1,0,0,1.5453,optionLeft,30,7775,4,18,0,18,0,1,,,,,,,,,,,,,,,,,,,,,,,,,,,,,,,,,,,,,,,
,,,,,,,,2023-08-06_08h13.09.624,HF_wild_card,2022.2.4,Win32,58.76131155,5c5c9a127bca5b000167acb8,64ce5acb97489d65b14ecc7a,64cf47f0acc4858e8327c027,,,,,,,sngl,resources/DG.BMP,resources/Empty.png,Door2,-0.178703661,0.096296275,1,0,0,0.8622,optionLeft,20,7795,4,19,0,19,0,1,,,,,,,,,,,,,,,,,,,,,,,,,,,,,,,,,,,,,,,
,,,,,,,,2023-08-06_08h13.09.624,HF_wild_card,2022.2.4,Win32,58.76131155,5c5c9a127bca5b000167acb8,64ce5acb97489d65b14ecc7a,64cf47f0acc4858e8327c027,,,,,,,decisionTrl,resources/DG.BMP,resources/DP.BMP,Door1,0.163888931,0.14166666,1,0,0,1.0454,optionRight,30,7825,4,20,0,20,0,1,,,,,,,,,,,,,,,,,,,,,,,,,,,,,,,,,,,,,,,
,,,,,,,,2023-08-06_08h13.09.624,HF_wild_card,2022.2.4,Win32,58.76131155,5c5c9a127bca5b000167acb8,64ce5acb97489d65b14ecc7a,64cf47f0acc4858e8327c027,,,,,,,decisionTrl,resources/DB.BMP,resources/DR.BMP,Door3,-0.262962977,0.10833334,1,0,0,0.9957,optionLeft,70,7895,4,21,0,21,0,1,,,,,,,,,,,,,,,,,,,,,,,,,,,,,,,,,,,,,,,
,,,,,,,,2023-08-06_08h13.09.624,HF_wild_card,2022.2.4,Win32,58.76131155,5c5c9a127bca5b000167acb8,64ce5acb97489d65b14ecc7a,64cf47f0acc4858e8327c027,,,,,,,sngl,resources/DR.BMP,resources/Empty.png,Door4,-0.213888875,0.158333319,1,0,0,1.1127,optionLeft,60,7955,4,22,0,22,0,1,,,,,,,,,,,,,,,,,,,,,,,,,,,,,,,,,,,,,,,
,,,,,,,,2023-08-06_08h13.09.624,HF_wild_card,2022.2.4,Win32,58.76131155,5c5c9a127bca5b000167acb8,64ce5acb97489d65b14ecc7a,64cf47f0acc4858e8327c027,,,,,,,decisionTrl,resources/DR.BMP,resources/DY.BMP,WildCard_NonEx,0.187962991,0.16574072,1,0,0,1.0799,optionRight,45,8000,4,23,0,23,0,1,,,,,,,,,,,,,,,,,,,,,,,,,,,,,,,,,,,,,,,
,,,,,,,,2023-08-06_08h13.09.624,HF_wild_card,2022.2.4,Win32,58.76131155,5c5c9a127bca5b000167acb8,64ce5acb97489d65b14ecc7a,64cf47f0acc4858e8327c027,,,,,,,sngl,resources/Empty.png,resources/DY.BMP,WildCard_NonEx,0.190740727,0.116666653,1,0,0,0.8481,optionRight,55,8055,4,24,0,24,0,1,,,,,,,,,,,,,,,,,,,,,,,,,,,,,,,,,,,,,,,
,,,,,,,,2023-08-06_08h13.09.624,HF_wild_card,2022.2.4,Win32,58.76131155,5c5c9a127bca5b000167acb8,64ce5acb97489d65b14ecc7a,64cf47f0acc4858e8327c027,,,,,,,sngl,resources/Empty.png,resources/DY.BMP,WildCard_NonEx,0.196296339,0.088888875,1,0,0,0.7757,optionRight,45,8100,4,25,0,25,0,1,,,,,,,,,,,,,,,,,,,,,,,,,,,,,,,,,,,,,,,
,,,,,,,,2023-08-06_08h13.09.624,HF_wild_card,2022.2.4,Win32,58.76131155,5c5c9a127bca5b000167acb8,64ce5acb97489d65b14ecc7a,64cf47f0acc4858e8327c027,,,,,,,decisionTrl,resources/DR.BMP,resources/DB.BMP,Door3,0.189814815,0.094444452,1,0,0,1.0794,optionRight,70,8170,4,26,0,26,0,1,,,,,,,,,,,,,,,,,,,,,,,,,,,,,,,,,,,,,,,
,,,,,,,,2023-08-06_08h13.09.624,HF_wild_card,2022.2.4,Win32,58.76131155,5c5c9a127bca5b000167acb8,64ce5acb97489d65b14ecc7a,64cf47f0acc4858e8327c027,,,,,,,decisionTrl,resources/DR.BMP,resources/DB.BMP,Door3,0.203703704,0.10833334,1,0,0,0.8972,optionRight,70,8240,4,27,0,27,0,1,,,,,,,,,,,,,,,,,,,,,,,,,,,,,,,,,,,,,,,
,,,,,,,,2023-08-06_08h13.09.624,HF_wild_card,2022.2.4,Win32,58.76131155,5c5c9a127bca5b000167acb8,64ce5acb97489d65b14ecc7a,64cf47f0acc4858e8327c027,,,,,,,sngl,resources/DY.BMP,resources/Empty.png,WildCard_NonEx,-0.188888903,0.101851852,1,0,0,0.9285,optionLeft,55,8295,4,28,0,28,0,1,,,,,,,,,,,,,,,,,,,,,,,,,,,,,,,,,,,,,,,
,,,,,,,,2023-08-06_08h13.09.624,HF_wild_card,2022.2.4,Win32,58.76131155,5c5c9a127bca5b000167acb8,64ce5acb97489d65b14ecc7a,64cf47f0acc4858e8327c027,,,,,,,decisionTrl,resources/DY.BMP,resources/DG.BMP,WildCard_NonEx,-0.243518476,0.12037037,1,0,0,1.3629,optionLeft,55,8350,4,29,0,29,0,1,,,,,,,,,,,,,,,,,,,,,,,,,,,,,,,,,,,,,,,
,,,,,,,,2023-08-06_08h13.09.624,HF_wild_card,2022.2.4,Win32,58.76131155,5c5c9a127bca5b000167acb8,64ce5acb97489d65b14ecc7a,64cf47f0acc4858e8327c027,,,,,,,ctch,resources/DP.BMP,resources/DR.BMP,Door4,0.168518561,0.090740734,1,0,0,1.5632,optionRight,60,8410,4,30,0,30,0,1,,,,,,,,,,,,,,,,,,,,,,,,,,,,,,,,,,,,,,,
,,,,,,,,2023-08-06_08h13.09.624,HF_wild_card,2022.2.4,Win32,58.76131155,5c5c9a127bca5b000167acb8,64ce5acb97489d65b14ecc7a,64cf47f0acc4858e8327c027,,,,,,,sngl,resources/Empty.png,resources/DG.BMP,Door2,0.192592621,0.14166666,1,0,0,1.0811,optionRight,40,8450,4,31,0,31,0,1,,,,,,,,,,,,,,,,,,,,,,,,,,,,,,,,,,,,,,,
,,,,,,,,2023-08-06_08h13.09.624,HF_wild_card,2022.2.4,Win32,58.76131155,5c5c9a127bca5b000167acb8,64ce5acb97489d65b14ecc7a,64cf47f0acc4858e8327c027,,,,,,,decisionTrl,resources/DP.BMP,resources/DY.BMP,WildCard_NonEx,0.183333362,0.158333319,1,0,0,1.7465,optionRight,45,8495,4,32,0,32,0,1,,,,,,,,,,,,,,,,,,,,,,,,,,,,,,,,,,,,,,,
,,,,,,,,2023-08-06_08h13.09.624,HF_wild_card,2022.2.4,Win32,58.76131155,5c5c9a127bca5b000167acb8,64ce5acb97489d65b14ecc7a,64cf47f0acc4858e8327c027,,,,,,,decisionTrl,resources/DB.BMP,resources/DR.BMP,Door3,-0.252777735,0.152777778,1,0,0,0.9783,optionLeft,70,8565,4,33,0,33,0,1,,,,,,,,,,,,,,,,,,,,,,,,,,,,,,,,,,,,,,,
,,,,,,,,2023-08-06_08h13.09.624,HF_wild_card,2022.2.4,Win32,58.76131155,5c5c9a127bca5b000167acb8,64ce5acb97489d65b14ecc7a,64cf47f0acc4858e8327c027,,,,,,,ctch,resources/DR.BMP,resources/DP.BMP,Door4,-0.271296254,0.112037023,1,0,0,1.3461,optionLeft,80,8645,4,34,0,34,0,1,,,,,,,,,,,,,,,,,,,,,,,,,,,,,,,,,,,,,,,
,,,,,,,,2023-08-06_08h13.09.624,HF_wild_card,2022.2.4,Win32,58.76131155,5c5c9a127bca5b000167acb8,64ce5acb97489d65b14ecc7a,64cf47f0acc4858e8327c027,,,,,,,decisionTrl,resources/DY.BMP,resources/DB.BMP,Door3,0.242592635,0.055555556,1,0,0,1.7629,optionRight,70,8715,4,35,0,35,0,1,,,,,,,,,,,,,,,,,,,,,,,,,,,,,,,,,,,,,,,
,,,,,,,,2023-08-06_08h13.09.624,HF_wild_card,2022.2.4,Win32,58.76131155,5c5c9a127bca5b000167acb8,64ce5acb97489d65b14ecc7a,64cf47f0acc4858e8327c027,,,,,,,ctch,resources/DB.BMP,resources/DG.BMP,Door3,-0.233333305,0.119444423,1,0,0,0.9446,optionLeft,70,8785,4,36,0,36,0,1,,,,,,,,,,,,,,,,,,,,,,,,,,,,,,,,,,,,,,,
,,,,,,,,2023-08-06_08h13.09.624,HF_wild_card,2022.2.4,Win32,58.76131155,5c5c9a127bca5b000167acb8,64ce5acb97489d65b14ecc7a,64cf47f0acc4858e8327c027,,,,,,,decisionTrl,resources/DB.BMP,resources/DR.BMP,Door3,-0.216666681,0.125925912,1,0,0,0.93,optionLeft,70,8855,4,37,0,37,0,1,,,,,,,,,,,,,,,,,,,,,,,,,,,,,,,,,,,,,,,
,,,,,,,,2023-08-06_08h13.09.624,HF_wild_card,2022.2.4,Win32,58.76131155,5c5c9a127bca5b000167acb8,64ce5acb97489d65b14ecc7a,64cf47f0acc4858e8327c027,,,,,,,sngl,resources/DB.BMP,resources/Empty.png,Door3,-0.218518504,0.125925912,1,0,0,0.878,optionLeft,70,8925,4,38,0,38,0,1,,,,,,,,,,,,,,,,,,,,,,,,,,,,,,,,,,,,,,,
,,,,,,,,2023-08-06_08h13.09.624,HF_wild_card,2022.2.4,Win32,58.76131155,5c5c9a127bca5b000167acb8,64ce5acb97489d65b14ecc7a,64cf47f0acc4858e8327c027,,,,,,,decisionTrl,resources/DP.BMP,resources/DG.BMP,Door2,0.190740727,0.089814822,1,0,0,1.1292,optionRight,40,8965,4,39,0,39,0,1,,,,,,,,,,,,,,,,,,,,,,,,,,,,,,,,,,,,,,,
,,,,,,,,2023-08-06_08h13.09.624,HF_wild_card,2022.2.4,Win32,58.76131155,5c5c9a127bca5b000167acb8,64ce5acb97489d65b14ecc7a,64cf47f0acc4858e8327c027,,,,,,,sngl,resources/Empty.png,resources/DB.BMP,Door3,0.196296339,0.087962963,1,0,0,0.8982,optionRight,70,9035,4,40,0,40,0,1,,,,,,,,,,,,,,,,,,,,,,,,,,,,,,,,,,,,,,,
,,,,,,,,2023-08-06_08h13.09.624,HF_wild_card,2022.2.4,Win32,58.76131155,5c5c9a127bca5b000167acb8,64ce5acb97489d65b14ecc7a,64cf47f0acc4858e8327c027,,,,,,,ctch,resources/DG.BMP,resources/DB.BMP,Door3,0.192592621,0.052777785,1,0,0,0.8147,optionRight,70,9105,4,41,0,41,0,1,,,,,,,,,,,,,,,,,,,,,,,,,,,,,,,,,,,,,,,
,,,,,,,,2023-08-06_08h13.09.624,HF_wild_card,2022.2.4,Win32,58.76131155,5c5c9a127bca5b000167acb8,64ce5acb97489d65b14ecc7a,64cf47f0acc4858e8327c027,,,,,,,decisionTrl,resources/DY.BMP,resources/DR.BMP,WildCard_NonEx,-0.198148162,0.10833334,1,0,0,3.829,optionLeft,45,9150,4,42,0,42,0,1,,,,,,,,,,,,,,,,,,,,,,,,,,,,,,,,,,,,,,,
,,,,,,,,2023-08-06_08h13.09.624,HF_wild_card,2022.2.4,Win32,58.76131155,5c5c9a127bca5b000167acb8,64ce5acb97489d65b14ecc7a,64cf47f0acc4858e8327c027,,,,,,,sngl,resources/DY.BMP,resources/Empty.png,WildCard_NonEx,-0.204629616,0.119444423,1,0,0,0.8815,optionLeft,45,9195,4,43,0,43,0,1,,,,,,,,,,,,,,,,,,,,,,,,,,,,,,,,,,,,,,,
,,,,,,,,2023-08-06_08h13.09.624,HF_wild_card,2022.2.4,Win32,58.76131155,5c5c9a127bca5b000167acb8,64ce5acb97489d65b14ecc7a,64cf47f0acc4858e8327c027,,,,,,,,,,,,,,,,,,,,,,,,,,3,0,3,0,1,,,,,,,,,,,,,,,,,,,,,,,,,,,,,,,,,,
,,,,,,,,2023-08-06_08h13.09.624,HF_wild_card,2022.2.4,Win32,58.76131155,5c5c9a127bca5b000167acb8,64ce5acb97489d65b14ecc7a,64cf47f0acc4858e8327c027,,,,,,,ctch,resources/DB.BMP,resources/DG.BMP,Door3,-0.344444452,0.160185178,1,0,0,1.1228,optionLeft,70,9265,5,0,0,0,0,1,,,,,,,,,,,,,,,,,,,,,,,,,,,,,,,,,,,,,,,
,,,,,,,,2023-08-06_08h13.09.624,HF_wild_card,2022.2.4,Win32,58.76131155,5c5c9a127bca5b000167acb8,64ce5acb97489d65b14ecc7a,64cf47f0acc4858e8327c027,,,,,,,sngl,resources/DR.BMP,resources/Empty.png,Door4,-0.211111069,0.14444443,1,0,0,1.0473,optionLeft,80,9345,5,1,0,1,0,1,,,,,,,,,,,,,,,,,,,,,,,,,,,,,,,,,,,,,,,
,,,,,,,,2023-08-06_08h13.09.624,HF_wild_card,2022.2.4,Win32,58.76131155,5c5c9a127bca5b000167acb8,64ce5acb97489d65b14ecc7a,64cf47f0acc4858e8327c027,,,,,,,decisionTrl,resources/DP.BMP,resources/DG.BMP,Door2,0.184259273,0.110185164,1,0,0,2.7274,optionRight,40,9385,5,2,0,2,0,1,,,,,,,,,,,,,,,,,,,,,,,,,,,,,,,,,,,,,,,
,,,,,,,,2023-08-06_08h13.09.624,HF_wild_card,2022.2.4,Win32,58.76131155,5c5c9a127bca5b000167acb8,64ce5acb97489d65b14ecc7a,64cf47f0acc4858e8327c027,,,,,,,sngl,resources/DY.BMP,resources/Empty.png,WildCard_NonEx,-0.298148155,0.12037037,1,0,0,0.8638,optionLeft,45,9430,5,3,0,3,0,1,,,,,,,,,,,,,,,,,,,,,,,,,,,,,,,,,,,,,,,
,,,,,,,,2023-08-06_08h13.09.624,HF_wild_card,2022.2.4,Win32,58.76131155,5c5c9a127bca5b000167acb8,64ce5acb97489d65b14ecc7a,64cf47f0acc4858e8327c027,,,,,,,decisionTrl,resources/DG.BMP,resources/DP.BMP,Door2,-0.187037009,0.143518519,1,0,0,1.5954,optionLeft,20,9450,5,4,0,4,0,1,,,,,,,,,,,,,,,,,,,,,,,,,,,,,,,,,,,,,,,
,,,,,,,,2023-08-06_08h13.09.624,HF_wild_card,2022.2.4,Win32,58.76131155,5c5c9a127bca5b000167acb8,64ce5acb97489d65b14ecc7a,64cf47f0acc4858e8327c027,,,,,,,ctch,resources/DR.BMP,resources/DP.BMP,Door4,-0.231481481,0.124074053,1,0,0,2.1295,optionLeft,80,9530,5,5,0,5,0,1,,,,,,,,,,,,,,,,,,,,,,,,,,,,,,,,,,,,,,,
,,,,,,,,2023-08-06_08h13.09.624,HF_wild_card,2022.2.4,Win32,58.76131155,5c5c9a127bca5b000167acb8,64ce5acb97489d65b14ecc7a,64cf47f0acc4858e8327c027,,,,,,,sngl,resources/DY.BMP,resources/Empty.png,WildCard_NonEx,-0.204629616,0.130555541,1,0,0,0.9303,optionLeft,55,9585,5,6,0,6,0,1,,,,,,,,,,,,,,,,,,,,,,,,,,,,,,,,,,,,,,,
,,,,,,,,2023-08-06_08h13.09.624,HF_wild_card,2022.2.4,Win32,58.76131155,5c5c9a127bca5b000167acb8,64ce5acb97489d65b14ecc7a,64cf47f0acc4858e8327c027,,,,,,,sngl,resources/Empty.png,resources/DR.BMP,Door4,0.202777792,0.060185185,1,0,0,1.0784,optionRight,60,9645,5,7,0,7,0,1,,,,,,,,,,,,,,,,,,,,,,,,,,,,,,,,,,,,,,,
,,,,,,,,2023-08-06_08h13.09.624,HF_wild_card,2022.2.4,Win32,58.76131155,5c5c9a127bca5b000167acb8,64ce5acb97489d65b14ecc7a,64cf47f0acc4858e8327c027,,,,,,,ctch,resources/DP.BMP,resources/DR.BMP,Door4,0.147222236,0.14166666,1,0,0,1.9643,optionRight,80,9725,5,8,0,8,0,1,,,,,,,,,,,,,,,,,,,,,,,,,,,,,,,,,,,,,,,
,,,,,,,,2023-08-06_08h13.09.624,HF_wild_card,2022.2.4,Win32,58.76131155,5c5c9a127bca5b000167acb8,64ce5acb97489d65b14ecc7a,64cf47f0acc4858e8327c027,,,,,,,sngl,resources/Empty.png,resources/DY.BMP,WildCard_NonEx,0.207407422,0.096296275,1,0,0,0.9787,optionRight,55,9780,5,9,0,9,0,1,,,,,,,,,,,,,,,,,,,,,,,,,,,,,,,,,,,,,,,
,,,,,,,,2023-08-06_08h13.09.624,HF_wild_card,2022.2.4,Win32,58.76131155,5c5c9a127bca5b000167acb8,64ce5acb97489d65b14ecc7a,64cf47f0acc4858e8327c027,,,,,,,decisionTrl,resources/DR.BMP,resources/DY.BMP,Door4,-0.240740741,0.051851838,1,0,0,1.8639,optionLeft,60,9840,5,10,0,10,0,1,,,,,,,,,,,,,,,,,,,,,,,,,,,,,,,,,,,,,,,
,,,,,,,,2023-08-06_08h13.09.624,HF_wild_card,2022.2.4,Win32,58.76131155,5c5c9a127bca5b000167acb8,64ce5acb97489d65b14ecc7a,64cf47f0acc4858e8327c027,,,,,,,decisionTrl,resources/DP.BMP,resources/DG.BMP,Door2,0.15370369,0.152777778,1,0,0,2.0245,optionRight,40,9880,5,11,0,11,0,1,,,,,,,,,,,,,,,,,,,,,,,,,,,,,,,,,,,,,,,
,,,,,,,,2023-08-06_08h13.09.624,HF_wild_card,2022.2.4,Win32,58.76131155,5c5c9a127bca5b000167acb8,64ce5acb97489d65b14ecc7a,64cf47f0acc4858e8327c027,,,,,,,decisionTrl,resources/DG.BMP,resources/DP.BMP,Door1,0.198148162,0.090740734,1,0,0,1.6807,optionRight,30,9910,5,12,0,12,0,1,,,,,,,,,,,,,,,,,,,,,,,,,,,,,,,,,,,,,,,
,,,,,,,,2023-08-06_08h13.09.624,HF_wild_card,2022.2.4,Win32,58.76131155,5c5c9a127bca5b000167acb8,64ce5acb97489d65b14ecc7a,64cf47f0acc4858e8327c027,,,,,,,decisionTrl,resources/DB.BMP,resources/DR.BMP,Door3,-0.232407393,0.137962942,1,0,0,1.1464,optionLeft,70,9980,5,13,0,13,0,1,,,,,,,,,,,,,,,,,,,,,,,,,,,,,,,,,,,,,,,
,,,,,,,,2023-08-06_08h13.09.624,HF_wild_card,2022.2.4,Win32,58.76131155,5c5c9a127bca5b000167acb8,64ce5acb97489d65b14ecc7a,64cf47f0acc4858e8327c027,,,,,,,decisionTrl,resources/DB.BMP,resources/DR.BMP,Door3,-0.217592593,0.147222201,1,0,0,2.0481,optionLeft,70,10050,5,14,0,14,0,1,,,,,,,,,,,,,,,,,,,,,,,,,,,,,,,,,,,,,,,
,,,,,,,,2023-08-06_08h13.09.624,HF_wild_card,2022.2.4,Win32,58.76131155,5c5c9a127bca5b000167acb8,64ce5acb97489d65b14ecc7a,64cf47f0acc4858e8327c027,,,,,,,decisionTrl,resources/DB.BMP,resources/DR.BMP,Door3,-0.250925912,0.151851831,1,0,0,1.0611,optionLeft,70,10120,5,15,0,15,0,1,,,,,,,,,,,,,,,,,,,,,,,,,,,,,,,,,,,,,,,
,,,,,,,,2023-08-06_08h13.09.624,HF_wild_card,2022.2.4,Win32,58.76131155,5c5c9a127bca5b000167acb8,64ce5acb97489d65b14ecc7a,64cf47f0acc4858e8327c027,,,,,,,decisionTrl,resources/DG.BMP,resources/DP.BMP,Door2,-0.196296268,0.13703703,1,0,0,1.6957,optionLeft,20,10140,5,16,0,16,0,1,,,,,,,,,,,,,,,,,,,,,,,,,,,,,,,,,,,,,,,
,,,,,,,,2023-08-06_08h13.09.624,HF_wild_card,2022.2.4,Win32,58.76131155,5c5c9a127bca5b000167acb8,64ce5acb97489d65b14ecc7a,64cf47f0acc4858e8327c027,,,,,,,decisionTrl,resources/DR.BMP,resources/DB.BMP,Door3,0.187037079,0.173148155,1,0,0,1.2785,optionRight,70,10210,5,17,0,17,0,1,,,,,,,,,,,,,,,,,,,,,,,,,,,,,,,,,,,,,,,
,,,,,,,,2023-08-06_08h13.09.624,HF_wild_card,2022.2.4,Win32,58.76131155,5c5c9a127bca5b000167acb8,64ce5acb97489d65b14ecc7a,64cf47f0acc4858e8327c027,,,,,,,decisionTrl,resources/DG.BMP,resources/DP.BMP,Door2,-0.200925898,0.151851831,1,0,0,2.3961,optionLeft,20,10230,5,18,0,18,0,1,,,,,,,,,,,,,,,,,,,,,,,,,,,,,,,,,,,,,,,
,,,,,,,,2023-08-06_08h13.09.624,HF_wild_card,2022.2.4,Win32,58.76131155,5c5c9a127bca5b000167acb8,64ce5acb97489d65b14ecc7a,64cf47f0acc4858e8327c027,,,,,,,decisionTrl,resources/DP.BMP,resources/DG.BMP,Door2,0.188888903,0.150000007,1,0,0,1.0793,optionRight,20,10250,5,19,0,19,0,1,,,,,,,,,,,,,,,,,,,,,,,,,,,,,,,,,,,,,,,
,,,,,,,,2023-08-06_08h13.09.624,HF_wild_card,2022.2.4,Win32,58.76131155,5c5c9a127bca5b000167acb8,64ce5acb97489d65b14ecc7a,64cf47f0acc4858e8327c027,,,,,,,decisionTrl,resources/DY.BMP,resources/DP.BMP,WildCard_NonEx,-0.219444416,0.136111118,1,0,0,1.1955,optionLeft,45,10295,5,20,0,20,0,1,,,,,,,,,,,,,,,,,,,,,,,,,,,,,,,,,,,,,,,
,,,,,,,,2023-08-06_08h13.09.624,HF_wild_card,2022.2.4,Win32,58.76131155,5c5c9a127bca5b000167acb8,64ce5acb97489d65b14ecc7a,64cf47f0acc4858e8327c027,,,,,,,decisionTrl,resources/DB.BMP,resources/DR.BMP,Door3,-0.209259245,0.168518526,1,0,0,1.1454,optionLeft,70,10365,5,21,0,21,0,1,,,,,,,,,,,,,,,,,,,,,,,,,,,,,,,,,,,,,,,
,,,,,,,,2023-08-06_08h13.09.624,HF_wild_card,2022.2.4,Win32,58.76131155,5c5c9a127bca5b000167acb8,64ce5acb97489d65b14ecc7a,64cf47f0acc4858e8327c027,,,,,,,sngl,resources/DP.BMP,resources/Empty.png,Door1,-0.187037009,0.171296296,1,0,0,0.9952,optionLeft,30,10395,5,22,0,22,0,1,,,,,,,,,,,,,,,,,,,,,,,,,,,,,,,,,,,,,,,
,,,,,,,,2023-08-06_08h13.09.624,HF_wild_card,2022.2.4,Win32,58.76131155,5c5c9a127bca5b000167acb8,64ce5acb97489d65b14ecc7a,64cf47f0acc4858e8327c027,,,,,,,decisionTrl,resources/DR.BMP,resources/DB.BMP,Door3,0.222222222,0.180555556,1,0,0,1.0465,optionRight,70,10465,5,23,0,23,0,1,,,,,,,,,,,,,,,,,,,,,,,,,,,,,,,,,,,,,,,
,,,,,,,,2023-08-06_08h13.09.624,HF_wild_card,2022.2.4,Win32,58.76131155,5c5c9a127bca5b000167acb8,64ce5acb97489d65b14ecc7a,64cf47f0acc4858e8327c027,,,,,,,decisionTrl,resources/DG.BMP,resources/DY.BMP,WildCard_NonEx,0.192592621,0.146296289,1,0,0,1.1112,optionRight,55,10520,5,24,0,24,0,1,,,,,,,,,,,,,,,,,,,,,,,,,,,,,,,,,,,,,,,
,,,,,,,,2023-08-06_08h13.09.624,HF_wild_card,2022.2.4,Win32,58.76131155,5c5c9a127bca5b000167acb8,64ce5acb97489d65b14ecc7a,64cf47f0acc4858e8327c027,,,,,,,decisionTrl,resources/DR.BMP,resources/DB.BMP,Door3,0.179629644,0.152777778,1,0,0,1.1799,optionRight,70,10590,5,25,0,25,0,1,,,,,,,,,,,,,,,,,,,,,,,,,,,,,,,,,,,,,,,
,,,,,,,,2023-08-06_08h13.09.624,HF_wild_card,2022.2.4,Win32,58.76131155,5c5c9a127bca5b000167acb8,64ce5acb97489d65b14ecc7a,64cf47f0acc4858e8327c027,,,,,,,ctch,resources/DR.BMP,resources/DP.BMP,Door4,-0.218518504,0.162962949,1,0,0,1.1142,optionLeft,80,10670,5,26,0,26,0,1,,,,,,,,,,,,,,,,,,,,,,,,,,,,,,,,,,,,,,,
,,,,,,,,2023-08-06_08h13.09.624,HF_wild_card,2022.2.4,Win32,58.76131155,5c5c9a127bca5b000167acb8,64ce5acb97489d65b14ecc7a,64cf47f0acc4858e8327c027,,,,,,,decisionTrl,resources/DP.BMP,resources/DG.BMP,Door2,0.19722225,0.150000007,1,0,0,2.5114,optionRight,20,10690,5,27,0,27,0,1,,,,,,,,,,,,,,,,,,,,,,,,,,,,,,,,,,,,,,,
,,,,,,,,2023-08-06_08h13.09.624,HF_wild_card,2022.2.4,Win32,58.76131155,5c5c9a127bca5b000167acb8,64ce5acb97489d65b14ecc7a,64cf47f0acc4858e8327c027,,,,,,,ctch,resources/DG.BMP,resources/DB.BMP,Door3,0.160185213,0.1324074,1,0,0,1.1139,optionRight,70,10760,5,28,0,28,0,1,,,,,,,,,,,,,,,,,,,,,,,,,,,,,,,,,,,,,,,
,,,,,,,,2023-08-06_08h13.09.624,HF_wild_card,2022.2.4,Win32,58.76131155,5c5c9a127bca5b000167acb8,64ce5acb97489d65b14ecc7a,64cf47f0acc4858e8327c027,,,,,,,ctch,resources/DP.BMP,resources/DR.BMP,Door4,0.174074102,0.115740741,1,0,0,2.362,optionRight,60,10820,5,29,0,29,0,1,,,,,,,,,,,,,,,,,,,,,,,,,,,,,,,,,,,,,,,
,,,,,,,,2023-08-06_08h13.09.624,HF_wild_card,2022.2.4,Win32,58.76131155,5c5c9a127bca5b000167acb8,64ce5acb97489d65b14ecc7a,64cf47f0acc4858e8327c027,,,,,,,sngl,resources/Empty.png,resources/DY.BMP,WildCard_NonEx,0.188888903,0.102777764,1,0,0,0.8466,optionRight,45,10865,5,30,0,30,0,1,,,,,,,,,,,,,,,,,,,,,,,,,,,,,,,,,,,,,,,
,,,,,,,,2023-08-06_08h13.09.624,HF_wild_card,2022.2.4,Win32,58.76131155,5c5c9a127bca5b000167acb8,64ce5acb97489d65b14ecc7a,64cf47f0acc4858e8327c027,,,,,,,sngl,resources/DG.BMP,resources/Empty.png,Door2,-0.203703704,0.122222229,1,0,0,1.0294,optionLeft,40,10905,5,31,0,31,0,1,,,,,,,,,,,,,,,,,,,,,,,,,,,,,,,,,,,,,,,
,,,,,,,,2023-08-06_08h13.09.624,HF_wild_card,2022.2.4,Win32,58.76131155,5c5c9a127bca5b000167acb8,64ce5acb97489d65b14ecc7a,64cf47f0acc4858e8327c027,,,,,,,ctch,resources/DB.BMP,resources/DG.BMP,Door3,-0.205555527,0.181481467,1,0,0,1.1452,optionLeft,70,10975,5,32,0,32,0,1,,,,,,,,,,,,,,,,,,,,,,,,,,,,,,,,,,,,,,,
,,,,,,,,2023-08-06_08h13.09.624,HF_wild_card,2022.2.4,Win32,58.76131155,5c5c9a127bca5b000167acb8,64ce5acb97489d65b14ecc7a,64cf47f0acc4858e8327c027,,,,,,,decisionTrl,resources/DY.BMP,resources/DR.BMP,Door4,0.170370384,0.123148141,1,0,0,2.3442,optionRight,60,11035,5,33,0,33,0,1,,,,,,,,,,,,,,,,,,,,,,,,,,,,,,,,,,,,,,,
,,,,,,,,2023-08-06_08h13.09.624,HF_wild_card,2022.2.4,Win32,58.76131155,5c5c9a127bca5b000167acb8,64ce5acb97489d65b14ecc7a,64cf47f0acc4858e8327c027,,,,,,,sngl,resources/Empty.png,resources/DB.BMP,Door3,0.22592594,0.097222222,1,0,0,0.9801,optionRight,70,11105,5,34,0,34,0,1,,,,,,,,,,,,,,,,,,,,,,,,,,,,,,,,,,,,,,,
,,,,,,,,2023-08-06_08h13.09.624,HF_wild_card,2022.2.4,Win32,58.76131155,5c5c9a127bca5b000167acb8,64ce5acb97489d65b14ecc7a,64cf47f0acc4858e8327c027,,,,,,,decisionTrl,resources/DR.BMP,resources/DB.BMP,Door3,0.215740769,0.091666645,1,0,0,1.0465,optionRight,70,11175,5,35,0,35,0,1,,,,,,,,,,,,,,,,,,,,,,,,,,,,,,,,,,,,,,,
,,,,,,,,2023-08-06_08h13.09.624,HF_wild_card,2022.2.4,Win32,58.76131155,5c5c9a127bca5b000167acb8,64ce5acb97489d65b14ecc7a,64cf47f0acc4858e8327c027,,,,,,,ctch,resources/DG.BMP,resources/DB.BMP,Door3,0.212037051,0.142592571,1,0,0,0.9807,optionRight,70,11245,5,36,0,36,0,1,,,,,,,,,,,,,,,,,,,,,,,,,,,,,,,,,,,,,,,
,,,,,,,,2023-08-06_08h13.09.624,HF_wild_card,2022.2.4,Win32,58.76131155,5c5c9a127bca5b000167acb8,64ce5acb97489d65b14ecc7a,64cf47f0acc4858e8327c027,,,,,,,sngl,resources/Empty.png,resources/DP.BMP,Door1,0.208333333,0.067592586,1,0,0,0.895,optionRight,30,11275,5,37,0,37,0,1,,,,,,,,,,,,,,,,,,,,,,,,,,,,,,,,,,,,,,,
,,,,,,,,2023-08-06_08h13.09.624,HF_wild_card,2022.2.4,Win32,58.76131155,5c5c9a127bca5b000167acb8,64ce5acb97489d65b14ecc7a,64cf47f0acc4858e8327c027,,,,,,,decisionTrl,resources/DP.BMP,resources/DY.BMP,WildCard_NonEx,0.198148162,0.110185164,1,0,0,1.4971,optionRight,45,11320,5,38,0,38,0,1,,,,,,,,,,,,,,,,,,,,,,,,,,,,,,,,,,,,,,,
,,,,,,,,2023-08-06_08h13.09.624,HF_wild_card,2022.2.4,Win32,58.76131155,5c5c9a127bca5b000167acb8,64ce5acb97489d65b14ecc7a,64cf47f0acc4858e8327c027,,,,,,,sngl,resources/Empty.png,resources/DG.BMP,Door2,0.215740769,0.083333333,1,0,0,1.4299,optionRight,20,11340,5,39,0,39,0,1,,,,,,,,,,,,,,,,,,,,,,,,,,,,,,,,,,,,,,,
,,,,,,,,2023-08-06_08h13.09.624,HF_wild_card,2022.2.4,Win32,58.76131155,5c5c9a127bca5b000167acb8,64ce5acb97489d65b14ecc7a,64cf47f0acc4858e8327c027,,,,,,,sngl,resources/DB.BMP,resources/Empty.png,Door3,-0.3675926,0.154629637,1,0,0,0.9132,optionLeft,70,11410,5,40,0,40,0,1,,,,,,,,,,,,,,,,,,,,,,,,,,,,,,,,,,,,,,,
,,,,,,,,2023-08-06_08h13.09.624,HF_wild_card,2022.2.4,Win32,58.76131155,5c5c9a127bca5b000167acb8,64ce5acb97489d65b14ecc7a,64cf47f0acc4858e8327c027,,,,,,,decisionTrl,resources/DY.BMP,resources/DG.BMP,WildCard_NonEx,-0.216666681,0.086111104,1,0,0,1.3606,optionLeft,55,11465,5,41,0,41,0,1,,,,,,,,,,,,,,,,,,,,,,,,,,,,,,,,,,,,,,,
,,,,,,,,2023-08-06_08h13.09.624,HF_wild_card,2022.2.4,Win32,58.76131155,5c5c9a127bca5b000167acb8,64ce5acb97489d65b14ecc7a,64cf47f0acc4858e8327c027,,,,,,,decisionTrl,resources/DY.BMP,resources/DB.BMP,Door3,0.163888931,0.151851831,1,0,0,1.1962,optionRight,70,11535,5,42,0,42,0,1,,,,,,,,,,,,,,,,,,,,,,,,,,,,,,,,,,,,,,,
,,,,,,,,2023-08-06_08h13.09.624,HF_wild_card,2022.2.4,Win32,58.76131155,5c5c9a127bca5b000167acb8,64ce5acb97489d65b14ecc7a,64cf47f0acc4858e8327c027,,,,,,,decisionTrl,resources/DB.BMP,resources/DY.BMP,Door3,-0.219444416,0.154629637,1,0,0,2.0456,optionLeft,70,11605,5,43,0,43,0,1,,,,,,,,,,,,,,,,,,,,,,,,,,,,,,,,,,,,,,,
,,,,,,,,2023-08-06_08h13.09.624,HF_wild_card,2022.2.4,Win32,58.76131155,5c5c9a127bca5b000167acb8,64ce5acb97489d65b14ecc7a,64cf47f0acc4858e8327c027,,,,,,,,,,,,,,,,,,,,,,,,,,4,0,4,0,1,,,,,,,,,,,,,,,,,,,,,,,,,,,,,,,,,,
,,,,,,,,2023-08-06_08h13.09.624,HF_wild_card,2022.2.4,Win32,58.76131155,5c5c9a127bca5b000167acb8,64ce5acb97489d65b14ecc7a,64cf47f0acc4858e8327c027,,,,,,,sngl,resources/DG.BMP,resources/Empty.png,Door2,-0.363888882,0.104629623,1,0,0,1.5557,optionLeft,20,11625,6,0,0,0,0,1,,,,,,,,,,,,,,,,,,,,,,,,,,,,,,,,,,,,,,,
,,,,,,,,2023-08-06_08h13.09.624,HF_wild_card,2022.2.4,Win32,58.76131155,5c5c9a127bca5b000167acb8,64ce5acb97489d65b14ecc7a,64cf47f0acc4858e8327c027,,,,,,,ctch,resources/DG.BMP,resources/DB.BMP,Door3,0.217592593,0.16111109,1,0,0,1.0134,optionRight,70,11695,6,1,0,1,0,1,,,,,,,,,,,,,,,,,,,,,,,,,,,,,,,,,,,,,,,
,,,,,,,,2023-08-06_08h13.09.624,HF_wild_card,2022.2.4,Win32,58.76131155,5c5c9a127bca5b000167acb8,64ce5acb97489d65b14ecc7a,64cf47f0acc4858e8327c027,,,,,,,sngl,resources/DY.BMP,resources/Empty.png,WildCard_NonEx,-0.200925898,0.136111118,1,0,0,0.962,optionLeft,45,11740,6,2,0,2,0,1,,,,,,,,,,,,,,,,,,,,,,,,,,,,,,,,,,,,,,,
,,,,,,,,2023-08-06_08h13.09.624,HF_wild_card,2022.2.4,Win32,58.76131155,5c5c9a127bca5b000167acb8,64ce5acb97489d65b14ecc7a,64cf47f0acc4858e8327c027,,,,,,,decisionTrl,resources/DB.BMP,resources/DY.BMP,Door3,-0.215740698,0.191666674,1,0,0,1.212,optionLeft,70,11810,6,3,0,3,0,1,,,,,,,,,,,,,,,,,,,,,,,,,,,,,,,,,,,,,,,
,,,,,,,,2023-08-06_08h13.09.624,HF_wild_card,2022.2.4,Win32,58.76131155,5c5c9a127bca5b000167acb8,64ce5acb97489d65b14ecc7a,64cf47f0acc4858e8327c027,,,,,,,ctch,resources/DB.BMP,resources/DG.BMP,Door3,-0.191666638,0.043518526,1,0,0,1.1959,optionLeft,70,11880,6,4,0,4,0,1,,,,,,,,,,,,,,,,,,,,,,,,,,,,,,,,,,,,,,,
,,,,,,,,2023-08-06_08h13.09.624,HF_wild_card,2022.2.4,Win32,58.76131155,5c5c9a127bca5b000167acb8,64ce5acb97489d65b14ecc7a,64cf47f0acc4858e8327c027,,,,,,,ctch,resources/DG.BMP,resources/DB.BMP,Door3,0.242592635,0.088888875,1,0,0,1.1786,optionRight,70,11950,6,5,0,5,0,1,,,,,,,,,,,,,,,,,,,,,,,,,,,,,,,,,,,,,,,
,,,,,,,,2023-08-06_08h13.09.624,HF_wild_card,2022.2.4,Win32,58.76131155,5c5c9a127bca5b000167acb8,64ce5acb97489d65b14ecc7a,64cf47f0acc4858e8327c027,,,,,,,decisionTrl,resources/DB.BMP,resources/DR.BMP,Door3,-0.203703704,0.081481474,1,0,0,1.1456,optionLeft,70,12020,6,6,0,6,0,1,,,,,,,,,,,,,,,,,,,,,,,,,,,,,,,,,,,,,,,
,,,,,,,,2023-08-06_08h13.09.624,HF_wild_card,2022.2.4,Win32,58.76131155,5c5c9a127bca5b000167acb8,64ce5acb97489d65b14ecc7a,64cf47f0acc4858e8327c027,,,,,,,decisionTrl,resources/DR.BMP,resources/DY.BMP,Door4,-0.276851866,0.098148134,1,0,0,1.3131,optionLeft,60,12080,6,7,0,7,0,1,,,,,,,,,,,,,,,,,,,,,,,,,,,,,,,,,,,,,,,
,,,,,,,,2023-08-06_08h13.09.624,HF_wild_card,2022.2.4,Win32,58.76131155,5c5c9a127bca5b000167acb8,64ce5acb97489d65b14ecc7a,64cf47f0acc4858e8327c027,,,,,,,decisionTrl,resources/DY.BMP,resources/DB.BMP,Door3,0.246296282,0.087962963,1,0,0,1.4121,optionRight,70,12150,6,8,0,8,0,1,,,,,,,,,,,,,,,,,,,,,,,,,,,,,,,,,,,,,,,
,,,,,,,,2023-08-06_08h13.09.624,HF_wild_card,2022.2.4,Win32,58.76131155,5c5c9a127bca5b000167acb8,64ce5acb97489d65b14ecc7a,64cf47f0acc4858e8327c027,,,,,,,sngl,resources/Empty.png,resources/DB.BMP,Door3,0.227777764,0.072222215,1,0,0,0.862,optionRight,70,12220,6,9,0,9,0,1,,,,,,,,,,,,,,,,,,,,,,,,,,,,,,,,,,,,,,,
,,,,,,,,2023-08-06_08h13.09.624,HF_wild_card,2022.2.4,Win32,58.76131155,5c5c9a127bca5b000167acb8,64ce5acb97489d65b14ecc7a,64cf47f0acc4858e8327c027,,,,,,,decisionTrl,resources/DG.BMP,resources/DP.BMP,Door2,-0.290740755,0.065740727,1,0,0,2.0538,optionLeft,20,12240,6,10,0,10,0,1,,,,,,,,,,,,,,,,,,,,,,,,,,,,,,,,,,,,,,,
,,,,,,,,2023-08-06_08h13.09.624,HF_wild_card,2022.2.4,Win32,58.76131155,5c5c9a127bca5b000167acb8,64ce5acb97489d65b14ecc7a,64cf47f0acc4858e8327c027,,,,,,,ctch,resources/DP.BMP,resources/DR.BMP,Door4,0.198148162,0.123148141,1,0,0,1.7049,optionRight,60,12300,6,11,0,11,0,1,,,,,,,,,,,,,,,,,,,,,,,,,,,,,,,,,,,,,,,
,,,,,,,,2023-08-06_08h13.09.624,HF_wild_card,2022.2.4,Win32,58.76131155,5c5c9a127bca5b000167acb8,64ce5acb97489d65b14ecc7a,64cf47f0acc4858e8327c027,,,,,,,sngl,resources/Empty.png,resources/DY.BMP,WildCard_NonEx,0.200925968,0.092592593,1,0,0,1.0569,optionRight,55,12355,6,12,0,12,0,1,,,,,,,,,,,,,,,,,,,,,,,,,,,,,,,,,,,,,,,
,,,,,,,,2023-08-06_08h13.09.624,HF_wild_card,2022.2.4,Win32,58.76131155,5c5c9a127bca5b000167acb8,64ce5acb97489d65b14ecc7a,64cf47f0acc4858e8327c027,,,,,,,sngl,resources/DY.BMP,resources/Empty.png,WildCard_NonEx,-0.337962963,0.069444444,1,0,0,0.9022,optionLeft,55,12410,6,13,0,13,0,1,,,,,,,,,,,,,,,,,,,,,,,,,,,,,,,,,,,,,,,
,,,,,,,,2023-08-06_08h13.09.624,HF_wild_card,2022.2.4,Win32,58.76131155,5c5c9a127bca5b000167acb8,64ce5acb97489d65b14ecc7a,64cf47f0acc4858e8327c027,,,,,,,decisionTrl,resources/DP.BMP,resources/DG.BMP,Door2,0.210185228,0.067592586,1,0,0,1.6209,optionRight,40,12450,6,14,0,14,0,1,,,,,,,,,,,,,,,,,,,,,,,,,,,,,,,,,,,,,,,
,,,,,,,,2023-08-06_08h13.09.624,HF_wild_card,2022.2.4,Win32,58.76131155,5c5c9a127bca5b000167acb8,64ce5acb97489d65b14ecc7a,64cf47f0acc4858e8327c027,,,,,,,decisionTrl,resources/DG.BMP,resources/DP.BMP,Door2,-0.212962963,0.150000007,1,0,0,1.6498,optionLeft,20,12470,6,15,0,15,0,1,,,,,,,,,,,,,,,,,,,,,,,,,,,,,,,,,,,,,,,
,,,,,,,,2023-08-06_08h13.09.624,HF_wild_card,2022.2.4,Win32,58.76131155,5c5c9a127bca5b000167acb8,64ce5acb97489d65b14ecc7a,64cf47f0acc4858e8327c027,,,,,,,decisionTrl,resources/DP.BMP,resources/DY.BMP,WildCard_NonEx,0.161111125,0.195370356,1,0,0,1.4422,optionRight,45,12515,6,16,0,16,0,1,,,,,,,,,,,,,,,,,,,,,,,,,,,,,,,,,,,,,,,
,,,,,,,,2023-08-06_08h13.09.624,HF_wild_card,2022.2.4,Win32,58.76131155,5c5c9a127bca5b000167acb8,64ce5acb97489d65b14ecc7a,64cf47f0acc4858e8327c027,,,,,,,sngl,resources/Empty.png,resources/DY.BMP,WildCard_NonEx,0.190740727,0.181481467,1,0,0,0.7135,optionRight,45,12560,6,17,0,17,0,1,,,,,,,,,,,,,,,,,,,,,,,,,,,,,,,,,,,,,,,
,,,,,,,,2023-08-06_08h13.09.624,HF_wild_card,2022.2.4,Win32,58.76131155,5c5c9a127bca5b000167acb8,64ce5acb97489d65b14ecc7a,64cf47f0acc4858e8327c027,,,,,,,decisionTrl,resources/DG.BMP,resources/DP.BMP,Door2,-0.213888875,0.158333319,1,0,0,2.2153,optionLeft,40,12600,6,18,0,18,0,1,,,,,,,,,,,,,,,,,,,,,,,,,,,,,,,,,,,,,,,
,,,,,,,,2023-08-06_08h13.09.624,HF_wild_card,2022.2.4,Win32,58.76131155,5c5c9a127bca5b000167acb8,64ce5acb97489d65b14ecc7a,64cf47f0acc4858e8327c027,,,,,,,decisionTrl,resources/DR.BMP,resources/DB.BMP,Door3,0.18240745,0.197222215,1,0,0,1.3111,optionRight,70,12670,6,19,0,19,0,1,,,,,,,,,,,,,,,,,,,,,,,,,,,,,,,,,,,,,,,
,,,,,,,,2023-08-06_08h13.09.624,HF_wild_card,2022.2.4,Win32,58.76131155,5c5c9a127bca5b000167acb8,64ce5acb97489d65b14ecc7a,64cf47f0acc4858e8327c027,,,,,,,sngl,resources/Empty.png,resources/DR.BMP,Door4,0.200925968,0.202777757,1,0,0,0.7878,optionRight,80,12750,6,20,0,20,0,1,,,,,,,,,,,,,,,,,,,,,,,,,,,,,,,,,,,,,,,
,,,,,,,,2023-08-06_08h13.09.624,HF_wild_card,2022.2.4,Win32,58.76131155,5c5c9a127bca5b000167acb8,64ce5acb97489d65b14ecc7a,64cf47f0acc4858e8327c027,,,,,,,decisionTrl,resources/DG.BMP,resources/DY.BMP,WildCard_NonEx,0.176851838,0.174074067,1,0,0,1.4067,optionRight,55,12805,6,21,0,21,0,1,,,,,,,,,,,,,,,,,,,,,,,,,,,,,,,,,,,,,,,
,,,,,,,,2023-08-06_08h13.09.624,HF_wild_card,2022.2.4,Win32,58.76131155,5c5c9a127bca5b000167acb8,64ce5acb97489d65b14ecc7a,64cf47f0acc4858e8327c027,,,,,,,decisionTrl,resources/DB.BMP,resources/DR.BMP,Door3,-0.182407379,0.172222208,1,0,0,1.9956,optionLeft,70,12875,6,22,0,22,0,1,,,,,,,,,,,,,,,,,,,,,,,,,,,,,,,,,,,,,,,
,,,,,,,,2023-08-06_08h13.09.624,HF_wild_card,2022.2.4,Win32,58.76131155,5c5c9a127bca5b000167acb8,64ce5acb97489d65b14ecc7a,64cf47f0acc4858e8327c027,,,,,,,decisionTrl,resources/DY.BMP,resources/DP.BMP,WildCard_NonEx,-0.16851849,0.191666674,1,0,0,1.4082,optionLeft,45,12920,6,23,0,23,0,1,,,,,,,,,,,,,,,,,,,,,,,,,,,,,,,,,,,,,,,
,,,,,,,,2023-08-06_08h13.09.624,HF_wild_card,2022.2.4,Win32,58.76131155,5c5c9a127bca5b000167acb8,64ce5acb97489d65b14ecc7a,64cf47f0acc4858e8327c027,,,,,,,sngl,resources/DR.BMP,resources/Empty.png,Door4,-0.172222208,0.170370349,1,0,0,1.2722,optionLeft,60,12980,6,24,0,24,0,1,,,,,,,,,,,,,,,,,,,,,,,,,,,,,,,,,,,,,,,
,,,,,,,,2023-08-06_08h13.09.624,HF_wild_card,2022.2.4,Win32,58.76131155,5c5c9a127bca5b000167acb8,64ce5acb97489d65b14ecc7a,64cf47f0acc4858e8327c027,,,,,,,decisionTrl,resources/DB.BMP,resources/DR.BMP,Door3,-0.185185185,0.189814815,1,0,0,1.5903,optionLeft,70,13050,6,25,0,25,0,1,,,,,,,,,,,,,,,,,,,,,,,,,,,,,,,,,,,,,,,
,,,,,,,,2023-08-06_08h13.09.624,HF_wild_card,2022.2.4,Win32,58.76131155,5c5c9a127bca5b000167acb8,64ce5acb97489d65b14ecc7a,64cf47f0acc4858e8327c027,,,,,,,decisionTrl,resources/DG.BMP,resources/DP.BMP,Door2,-0.161111125,0.168518526,1,0,0,1.3156,optionLeft,20,13070,6,26,0,26,0,1,,,,,,,,,,,,,,,,,,,,,,,,,,,,,,,,,,,,,,,
,,,,,,,,2023-08-06_08h13.09.624,HF_wild_card,2022.2.4,Win32,58.76131155,5c5c9a127bca5b000167acb8,64ce5acb97489d65b14ecc7a,64cf47f0acc4858e8327c027,,,,,,,decisionTrl,resources/DY.BMP,resources/DG.BMP,WildCard_NonEx,-0.19259255,0.12962963,1,0,0,1.4407,optionLeft,45,13115,6,27,0,27,0,1,,,,,,,,,,,,,,,,,,,,,,,,,,,,,,,,,,,,,,,
,,,,,,,,2023-08-06_08h13.09.624,HF_wild_card,2022.2.4,Win32,58.76131155,5c5c9a127bca5b000167acb8,64ce5acb97489d65b14ecc7a,64cf47f0acc4858e8327c027,,,,,,,decisionTrl,resources/DP.BMP,resources/DG.BMP,Door2,0.212962963,0.151851831,1,0,0,1.3608,optionRight,40,13155,6,28,0,28,0,1,,,,,,,,,,,,,,,,,,,,,,,,,,,,,,,,,,,,,,,
,,,,,,,,2023-08-06_08h13.09.624,HF_wild_card,2022.2.4,Win32,58.76131155,5c5c9a127bca5b000167acb8,64ce5acb97489d65b14ecc7a,64cf47f0acc4858e8327c027,,,,,,,ctch,resources/DB.BMP,resources/DG.BMP,Door3,-0.236111111,0.16111109,1,0,0,1.1185,optionLeft,70,13225,6,29,0,29,0,1,,,,,,,,,,,,,,,,,,,,,,,,,,,,,,,,,,,,,,,
,,,,,,,,2023-08-06_08h13.09.624,HF_wild_card,2022.2.4,Win32,58.76131155,5c5c9a127bca5b000167acb8,64ce5acb97489d65b14ecc7a,64cf47f0acc4858e8327c027,,,,,,,sngl,resources/DB.BMP,resources/Empty.png,Door3,-0.203703704,0.169444437,1,0,0,0.848,optionLeft,70,13295,6,30,0,30,0,1,,,,,,,,,,,,,,,,,,,,,,,,,,,,,,,,,,,,,,,
,,,,,,,,2023-08-06_08h13.09.624,HF_wild_card,2022.2.4,Win32,58.76131155,5c5c9a127bca5b000167acb8,64ce5acb97489d65b14ecc7a,64cf47f0acc4858e8327c027,,,,,,,decisionTrl,resources/DB.BMP,resources/DR.BMP,Door3,-0.215740698,0.169444437,1,0,0,1.0643,optionLeft,70,13365,6,31,0,31,0,1,,,,,,,,,,,,,,,,,,,,,,,,,,,,,,,,,,,,,,,
,,,,,,,,2023-08-06_08h13.09.624,HF_wild_card,2022.2.4,Win32,58.76131155,5c5c9a127bca5b000167acb8,64ce5acb97489d65b14ecc7a,64cf47f0acc4858e8327c027,,,,,,,sngl,resources/Empty.png,resources/DG.BMP,Door2,0.189814815,0.140740748,1,0,0,0.898,optionRight,40,13405,6,32,0,32,0,1,,,,,,,,,,,,,,,,,,,,,,,,,,,,,,,,,,,,,,,
,,,,,,,,2023-08-06_08h13.09.624,HF_wild_card,2022.2.4,Win32,58.76131155,5c5c9a127bca5b000167acb8,64ce5acb97489d65b14ecc7a,64cf47f0acc4858e8327c027,,,,,,,sngl,resources/DP.BMP,resources/Empty.png,Door1,-0.206481439,0.196296303,1,0,0,0.9816,optionLeft,30,13435,6,33,0,33,0,1,,,,,,,,,,,,,,,,,,,,,,,,,,,,,,,,,,,,,,,
,,,,,,,,2023-08-06_08h13.09.624,HF_wild_card,2022.2.4,Win32,58.76131155,5c5c9a127bca5b000167acb8,64ce5acb97489d65b14ecc7a,64cf47f0acc4858e8327c027,,,,,,,sngl,resources/Empty.png,resources/DP.BMP,Door1,0.219444487,0.11296297,1,0,0,0.8152,optionRight,30,13465,6,34,0,34,0,1,,,,,,,,,,,,,,,,,,,,,,,,,,,,,,,,,,,,,,,
,,,,,,,,2023-08-06_08h13.09.624,HF_wild_card,2022.2.4,Win32,58.76131155,5c5c9a127bca5b000167acb8,64ce5acb97489d65b14ecc7a,64cf47f0acc4858e8327c027,,,,,,,decisionTrl,resources/DP.BMP,resources/DG.BMP,Door2,0.172222208,0.061111097,1,0,0,1.471,optionRight,20,13485,6,35,0,35,0,1,,,,,,,,,,,,,,,,,,,,,,,,,,,,,,,,,,,,,,,
,,,,,,,,2023-08-06_08h13.09.624,HF_wild_card,2022.2.4,Win32,58.76131155,5c5c9a127bca5b000167acb8,64ce5acb97489d65b14ecc7a,64cf47f0acc4858e8327c027,,,,,,,decisionTrl,resources/DP.BMP,resources/DG.BMP,Door1,-0.211111069,0.164814808,1,0,0,0.8981,optionLeft,30,13515,6,36,0,36,0,1,,,,,,,,,,,,,,,,,,,,,,,,,,,,,,,,,,,,,,,
,,,,,,,,2023-08-06_08h13.09.624,HF_wild_card,2022.2.4,Win32,58.76131155,5c5c9a127bca5b000167acb8,64ce5acb97489d65b14ecc7a,64cf47f0acc4858e8327c027,,,,,,,decisionTrl,resources/DR.BMP,resources/DB.BMP,Door3,0.219444487,0.134259259,1,0,0,1.1659,optionRight,70,13585,6,37,0,37,0,1,,,,,,,,,,,,,,,,,,,,,,,,,,,,,,,,,,,,,,,
,,,,,,,,2023-08-06_08h13.09.624,HF_wild_card,2022.2.4,Win32,58.76131155,5c5c9a127bca5b000167acb8,64ce5acb97489d65b14ecc7a,64cf47f0acc4858e8327c027,,,,,,,decisionTrl,resources/DR.BMP,resources/DB.BMP,Door4,-0.189814815,0.216666663,1,0,0,1.8623,optionLeft,60,13645,6,38,0,38,0,1,,,,,,,,,,,,,,,,,,,,,,,,,,,,,,,,,,,,,,,
,,,,,,,,2023-08-06_08h13.09.624,HF_wild_card,2022.2.4,Win32,58.76131155,5c5c9a127bca5b000167acb8,64ce5acb97489d65b14ecc7a,64cf47f0acc4858e8327c027,,,,,,,ctch,resources/DR.BMP,resources/DP.BMP,Door4,-0.202777792,0.201851845,1,0,0,1.3803,optionLeft,60,13705,6,39,0,39,0,1,,,,,,,,,,,,,,,,,,,,,,,,,,,,,,,,,,,,,,,
,,,,,,,,2023-08-06_08h13.09.624,HF_wild_card,2022.2.4,Win32,58.76131155,5c5c9a127bca5b000167acb8,64ce5acb97489d65b14ecc7a,64cf47f0acc4858e8327c027,,,,,,,ctch,resources/DR.BMP,resources/DP.BMP,Door4,-0.17314812,0.185185185,1,0,0,1.2552,optionLeft,60,13765,6,40,0,40,0,1,,,,,,,,,,,,,,,,,,,,,,,,,,,,,,,,,,,,,,,
,,,,,,,,2023-08-06_08h13.09.624,HF_wild_card,2022.2.4,Win32,58.76131155,5c5c9a127bca5b000167acb8,64ce5acb97489d65b14ecc7a,64cf47f0acc4858e8327c027,,,,,,,decisionTrl,resources/DY.BMP,resources/DR.BMP,Door4,0.143518519,0.186111097,1,0,0,2.1309,optionRight,60,13825,6,41,0,41,0,1,,,,,,,,,,,,,,,,,,,,,,,,,,,,,,,,,,,,,,,
,,,,,,,,2023-08-06_08h13.09.624,HF_wild_card,2022.2.4,Win32,58.76131155,5c5c9a127bca5b000167acb8,64ce5acb97489d65b14ecc7a,64cf47f0acc4858e8327c027,,,,,,,decisionTrl,resources/DR.BMP,resources/DB.BMP,Door3,0.187962991,0.12962963,1,0,0,1.4198,optionRight,70,13895,6,42,0,42,0,1,,,,,,,,,,,,,,,,,,,,,,,,,,,,,,,,,,,,,,,
,,,,,,,,2023-08-06_08h13.09.624,HF_wild_card,2022.2.4,Win32,58.76131155,5c5c9a127bca5b000167acb8,64ce5acb97489d65b14ecc7a,64cf47f0acc4858e8327c027,,,,,,,ctch,resources/DP.BMP,resources/DR.BMP,Door4,0.162037037,0.193518497,1,0,0,1.356,optionRight,80,13975,6,43,0,43,0,1,,,,,,,,,,,,,,,,,,,,,,,,,,,,,,,,,,,,,,,
,,,,,,,,2023-08-06_08h13.09.624,HF_wild_card,2022.2.4,Win32,58.76131155,5c5c9a127bca5b000167acb8,64ce5acb97489d65b14ecc7a,64cf47f0acc4858e8327c027,,,,,,,,,,,,,,,,,,,,,,,,,,5,0,5,0,1,,,,,,,,,,,,,,,,,,,,,,,,,,,,,,,,,,
,,,,,,,,2023-08-06_08h13.09.624,HF_wild_card,2022.2.4,Win32,58.76131155,5c5c9a127bca5b000167acb8,64ce5acb97489d65b14ecc7a,64cf47f0acc4858e8327c027,,,,,,,decisionTrl,resources/DP.BMP,resources/DG.BMP,Door2,0.171296296,0.166666667,1,0,0,2.641,optionRight,20,13995,7,0,0,0,0,1,,,,,,,,,,,,,,,,,,,,,,,,,,,,,,,,,,,,,,,
,,,,,,,,2023-08-06_08h13.09.624,HF_wild_card,2022.2.4,Win32,58.76131155,5c5c9a127bca5b000167acb8,64ce5acb97489d65b14ecc7a,64cf47f0acc4858e8327c027,,,,,,,decisionTrl,resources/DR.BMP,resources/DB.BMP,Door3,0.199999986,0.147222201,1,0,0,1.182,optionRight,70,14065,7,1,0,1,0,1,,,,,,,,,,,,,,,,,,,,,,,,,,,,,,,,,,,,,,,
,,,,,,,,2023-08-06_08h13.09.624,HF_wild_card,2022.2.4,Win32,58.76131155,5c5c9a127bca5b000167acb8,64ce5acb97489d65b14ecc7a,64cf47f0acc4858e8327c027,,,,,,,ctch,resources/DR.BMP,resources/DP.BMP,Door4,-0.248148106,0.095370363,1,0,0,1.5165,optionLeft,60,14125,7,2,0,2,0,1,,,,,,,,,,,,,,,,,,,,,,,,,,,,,,,,,,,,,,,
,,,,,,,,2023-08-06_08h13.09.624,HF_wild_card,2022.2.4,Win32,58.76131155,5c5c9a127bca5b000167acb8,64ce5acb97489d65b14ecc7a,64cf47f0acc4858e8327c027,,,,,,,decisionTrl,resources/DB.BMP,resources/DR.BMP,Door3,-0.195370356,0.16574072,1,0,0,1.0162,optionLeft,70,14195,7,3,0,3,0,1,,,,,,,,,,,,,,,,,,,,,,,,,,,,,,,,,,,,,,,
,,,,,,,,2023-08-06_08h13.09.624,HF_wild_card,2022.2.4,Win32,58.76131155,5c5c9a127bca5b000167acb8,64ce5acb97489d65b14ecc7a,64cf47f0acc4858e8327c027,,,,,,,decisionTrl,resources/DG.BMP,resources/DP.BMP,Door2,-0.190740727,0.148148148,1,0,0,1.6807,optionLeft,40,14235,7,4,0,4,0,1,,,,,,,,,,,,,,,,,,,,,,,,,,,,,,,,,,,,,,,
,,,,,,,,2023-08-06_08h13.09.624,HF_wild_card,2022.2.4,Win32,58.76131155,5c5c9a127bca5b000167acb8,64ce5acb97489d65b14ecc7a,64cf47f0acc4858e8327c027,,,,,,,decisionTrl,resources/DG.BMP,resources/DP.BMP,Door2,-0.180555556,0.123148141,1,0,0,1.3465,optionLeft,20,14255,7,5,0,5,0,1,,,,,,,,,,,,,,,,,,,,,,,,,,,,,,,,,,,,,,,
,,,,,,,,2023-08-06_08h13.09.624,HF_wild_card,2022.2.4,Win32,58.76131155,5c5c9a127bca5b000167acb8,64ce5acb97489d65b14ecc7a,64cf47f0acc4858e8327c027,,,,,,,decisionTrl,resources/DG.BMP,resources/DP.BMP,Door2,-0.179629644,0.111111111,1,0,0,1.0324,optionLeft,20,14275,7,6,0,6,0,1,,,,,,,,,,,,,,,,,,,,,,,,,,,,,,,,,,,,,,,
,,,,,,,,2023-08-06_08h13.09.624,HF_wild_card,2022.2.4,Win32,58.76131155,5c5c9a127bca5b000167acb8,64ce5acb97489d65b14ecc7a,64cf47f0acc4858e8327c027,,,,,,,ctch,resources/DR.BMP,resources/DP.BMP,Door4,-0.175000014,0.192592586,1,0,0,1.2647,optionLeft,80,14355,7,7,0,7,0,1,,,,,,,,,,,,,,,,,,,,,,,,,,,,,,,,,,,,,,,
,,,,,,,,2023-08-06_08h13.09.624,HF_wild_card,2022.2.4,Win32,58.76131155,5c5c9a127bca5b000167acb8,64ce5acb97489d65b14ecc7a,64cf47f0acc4858e8327c027,,,,,,,ctch,resources/DB.BMP,resources/DG.BMP,Door3,-0.178703661,0.179629608,1,0,0,1.097,optionLeft,70,14425,7,8,0,8,0,1,,,,,,,,,,,,,,,,,,,,,,,,,,,,,,,,,,,,,,,
,,,,,,,,2023-08-06_08h13.09.624,HF_wild_card,2022.2.4,Win32,58.76131155,5c5c9a127bca5b000167acb8,64ce5acb97489d65b14ecc7a,64cf47f0acc4858e8327c027,,,,,,,ctch,resources/DR.BMP,resources/DP.BMP,Door4,-0.176851838,0.148148148,1,0,0,1.4481,optionLeft,60,14485,7,9,0,9,0,1,,,,,,,,,,,,,,,,,,,,,,,,,,,,,,,,,,,,,,,
,,,,,,,,2023-08-06_08h13.09.624,HF_wild_card,2022.2.4,Win32,58.76131155,5c5c9a127bca5b000167acb8,64ce5acb97489d65b14ecc7a,64cf47f0acc4858e8327c027,,,,,,,ctch,resources/DP.BMP,resources/DR.BMP,Door4,0.195370356,0.137962942,1,0,0,1.7959,optionRight,60,14545,7,10,0,10,0,1,,,,,,,,,,,,,,,,,,,,,,,,,,,,,,,,,,,,,,,
,,,,,,,,2023-08-06_08h13.09.624,HF_wild_card,2022.2.4,Win32,58.76131155,5c5c9a127bca5b000167acb8,64ce5acb97489d65b14ecc7a,64cf47f0acc4858e8327c027,,,,,,,decisionTrl,resources/DG.BMP,resources/DP.BMP,Door2,-0.199074074,0.12962963,1,0,0,1.3807,optionLeft,20,14565,7,11,0,11,0,1,,,,,,,,,,,,,,,,,,,,,,,,,,,,,,,,,,,,,,,
,,,,,,,,2023-08-06_08h13.09.624,HF_wild_card,2022.2.4,Win32,58.76131155,5c5c9a127bca5b000167acb8,64ce5acb97489d65b14ecc7a,64cf47f0acc4858e8327c027,,,,,,,ctch,resources/DG.BMP,resources/DB.BMP,Door3,0.24537037,0.12962963,1,0,0,1.1814,optionRight,70,14635,7,12,0,12,0,1,,,,,,,,,,,,,,,,,,,,,,,,,,,,,,,,,,,,,,,
,,,,,,,,2023-08-06_08h13.09.624,HF_wild_card,2022.2.4,Win32,58.76131155,5c5c9a127bca5b000167acb8,64ce5acb97489d65b14ecc7a,64cf47f0acc4858e8327c027,,,,,,,decisionTrl,resources/DR.BMP,resources/DB.BMP,Door3,0.193518533,0.125925912,1,0,0,1.3644,optionRight,70,14705,7,13,0,13,0,1,,,,,,,,,,,,,,,,,,,,,,,,,,,,,,,,,,,,,,,
,,,,,,,,2023-08-06_08h13.09.624,HF_wild_card,2022.2.4,Win32,58.76131155,5c5c9a127bca5b000167acb8,64ce5acb97489d65b14ecc7a,64cf47f0acc4858e8327c027,,,,,,,ctch,resources/DG.BMP,resources/DB.BMP,Door3,0.222222222,0.148148148,1,0,0,1.1305,optionRight,70,14775,7,14,0,14,0,1,,,,,,,,,,,,,,,,,,,,,,,,,,,,,,,,,,,,,,,
,,,,,,,,2023-08-06_08h13.09.624,HF_wild_card,2022.2.4,Win32,58.76131155,5c5c9a127bca5b000167acb8,64ce5acb97489d65b14ecc7a,64cf47f0acc4858e8327c027,,,,,,,decisionTrl,resources/DR.BMP,resources/DB.BMP,Door3,0.188888903,0.123148141,1,0,0,0.831,optionRight,70,14845,7,15,0,15,0,1,,,,,,,,,,,,,,,,,,,,,,,,,,,,,,,,,,,,,,,
,,,,,,,,2023-08-06_08h13.09.624,HF_wild_card,2022.2.4,Win32,58.76131155,5c5c9a127bca5b000167acb8,64ce5acb97489d65b14ecc7a,64cf47f0acc4858e8327c027,,,,,,,decisionTrl,resources/DB.BMP,resources/DR.BMP,Door3,-0.348148134,0.104629623,1,0,0,1.0983,optionLeft,70,14915,7,16,0,16,0,1,,,,,,,,,,,,,,,,,,,,,,,,,,,,,,,,,,,,,,,
,,,,,,,,2023-08-06_08h13.09.624,HF_wild_card,2022.2.4,Win32,58.76131155,5c5c9a127bca5b000167acb8,64ce5acb97489d65b14ecc7a,64cf47f0acc4858e8327c027,,,,,,,ctch,resources/DB.BMP,resources/DG.BMP,Door3,-0.272222236,0.143518519,1,0,0,0.93,optionLeft,70,14985,7,17,0,17,0,1,,,,,,,,,,,,,,,,,,,,,,,,,,,,,,,,,,,,,,,
,,,,,,,,2023-08-06_08h13.09.624,HF_wild_card,2022.2.4,Win32,58.76131155,5c5c9a127bca5b000167acb8,64ce5acb97489d65b14ecc7a,64cf47f0acc4858e8327c027,,,,,,,decisionTrl,resources/DP.BMP,resources/DG.BMP,Door2,0.167592578,0.111111111,1,0,0,1.5981,optionRight,20,15005,7,18,0,18,0,1,,,,,,,,,,,,,,,,,,,,,,,,,,,,,,,,,,,,,,,
,,,,,,,,2023-08-06_08h13.09.624,HF_wild_card,2022.2.4,Win32,58.76131155,5c5c9a127bca5b000167acb8,64ce5acb97489d65b14ecc7a,64cf47f0acc4858e8327c027,,,,,,,decisionTrl,resources/DP.BMP,resources/DG.BMP,Door1,-0.271296254,0.109259252,1,0,0,0.9991,optionLeft,30,15035,7,19,0,19,0,1,,,,,,,,,,,,,,,,,,,,,,,,,,,,,,,,,,,,,,,
,,,,,,,,2023-08-06_08h13.09.624,HF_wild_card,2022.2.4,Win32,58.76131155,5c5c9a127bca5b000167acb8,64ce5acb97489d65b14ecc7a,64cf47f0acc4858e8327c027,,,,,,,decisionTrl,resources/DG.BMP,resources/DP.BMP,Door1,0.180555556,0.062037044,1,0,0,1.6305,optionRight,30,15065,7,20,0,20,0,1,,,,,,,,,,,,,,,,,,,,,,,,,,,,,,,,,,,,,,,
,,,,,,,,2023-08-06_08h13.09.624,HF_wild_card,2022.2.4,Win32,58.76131155,5c5c9a127bca5b000167acb8,64ce5acb97489d65b14ecc7a,64cf47f0acc4858e8327c027,,,,,,,decisionTrl,resources/DR.BMP,resources/DB.BMP,Door3,0.175000014,0.16111109,1,0,0,1.4809,optionRight,70,15135,7,21,0,21,0,1,,,,,,,,,,,,,,,,,,,,,,,,,,,,,,,,,,,,,,,
,,,,,,,,2023-08-06_08h13.09.624,HF_wild_card,2022.2.4,Win32,58.76131155,5c5c9a127bca5b000167acb8,64ce5acb97489d65b14ecc7a,64cf47f0acc4858e8327c027,,,,,,,decisionTrl,resources/DR.BMP,resources/DB.BMP,Door3,0.214814857,0.154629637,1,0,0,0.8835,optionRight,70,15205,7,22,0,22,0,1,,,,,,,,,,,,,,,,,,,,,,,,,,,,,,,,,,,,,,,
,,,,,,,,2023-08-06_08h13.09.624,HF_wild_card,2022.2.4,Win32,58.76131155,5c5c9a127bca5b000167acb8,64ce5acb97489d65b14ecc7a,64cf47f0acc4858e8327c027,,,,,,,decisionTrl,resources/DP.BMP,resources/DG.BMP,Door2,0.152777778,0.143518519,1,0,0,2.3812,optionRight,20,15225,7,23,0,23,0,1,,,,,,,,,,,,,,,,,,,,,,,,,,,,,,,,,,,,,,,
,,,,,,,,2023-08-06_08h13.09.624,HF_wild_card,2022.2.4,Win32,58.76131155,5c5c9a127bca5b000167acb8,64ce5acb97489d65b14ecc7a,64cf47f0acc4858e8327c027,,,,,,,decisionTrl,resources/DB.BMP,resources/DR.BMP,Door3,-0.23055557,0.16111109,1,0,0,1.1647,optionLeft,70,15295,7,24,0,24,0,1,,,,,,,,,,,,,,,,,,,,,,,,,,,,,,,,,,,,,,,
,,,,,,,,2023-08-06_08h13.09.624,HF_wild_card,2022.2.4,Win32,58.76131155,5c5c9a127bca5b000167acb8,64ce5acb97489d65b14ecc7a,64cf47f0acc4858e8327c027,,,,,,,decisionTrl,resources/DB.BMP,resources/DR.BMP,Door3,-0.22592594,0.139814801,1,0,0,0.9149,optionLeft,70,15365,7,25,0,25,0,1,,,,,,,,,,,,,,,,,,,,,,,,,,,,,,,,,,,,,,,
,,,,,,,,2023-08-06_08h13.09.624,HF_wild_card,2022.2.4,Win32,58.76131155,5c5c9a127bca5b000167acb8,64ce5acb97489d65b14ecc7a,64cf47f0acc4858e8327c027,,,,,,,ctch,resources/DP.BMP,resources/DR.BMP,Door4,0.185185185,0.142592571,1,0,0,1.3971,optionRight,60,15425,7,26,0,26,0,1,,,,,,,,,,,,,,,,,,,,,,,,,,,,,,,,,,,,,,,
,,,,,,,,2023-08-06_08h13.09.624,HF_wild_card,2022.2.4,Win32,58.76131155,5c5c9a127bca5b000167acb8,64ce5acb97489d65b14ecc7a,64cf47f0acc4858e8327c027,,,,,,,ctch,resources/DB.BMP,resources/DG.BMP,Door3,-0.256481453,0.142592571,1,0,0,0.9802,optionLeft,70,15495,7,27,0,27,0,1,,,,,,,,,,,,,,,,,,,,,,,,,,,,,,,,,,,,,,,
,,,,,,,,2023-08-06_08h13.09.624,HF_wild_card,2022.2.4,Win32,58.76131155,5c5c9a127bca5b000167acb8,64ce5acb97489d65b14ecc7a,64cf47f0acc4858e8327c027,,,,,,,ctch,resources/DG.BMP,resources/DB.BMP,Door3,0.14907406,0.085185192,1,0,0,0.8476,optionRight,70,15565,7,28,0,28,0,1,,,,,,,,,,,,,,,,,,,,,,,,,,,,,,,,,,,,,,,
,,,,,,,,2023-08-06_08h13.09.624,HF_wild_card,2022.2.4,Win32,58.76131155,5c5c9a127bca5b000167acb8,64ce5acb97489d65b14ecc7a,64cf47f0acc4858e8327c027,,,,,,,decisionTrl,resources/DP.BMP,resources/DG.BMP,Door2,0.168518561,0.070370356,1,0,0,1.8323,optionRight,20,15585,7,29,0,29,0,1,,,,,,,,,,,,,,,,,,,,,,,,,,,,,,,,,,,,,,,
,,,,,,,,2023-08-06_08h13.09.624,HF_wild_card,2022.2.4,Win32,58.76131155,5c5c9a127bca5b000167acb8,64ce5acb97489d65b14ecc7a,64cf47f0acc4858e8327c027,,,,,,,decisionTrl,resources/DR.BMP,resources/DB.BMP,Door3,0.17777782,0.138888889,1,0,0,1.1302,optionRight,70,15655,7,30,0,30,0,1,,,,,,,,,,,,,,,,,,,,,,,,,,,,,,,,,,,,,,,
,,,,,,,,2023-08-06_08h13.09.624,HF_wild_card,2022.2.4,Win32,58.76131155,5c5c9a127bca5b000167acb8,64ce5acb97489d65b14ecc7a,64cf47f0acc4858e8327c027,,,,,,,decisionTrl,resources/DG.BMP,resources/DP.BMP,Door2,-0.183333291,0.128703683,1,0,0,1.2452,optionLeft,40,15695,7,31,0,31,0,1,,,,,,,,,,,,,,,,,,,,,,,,,,,,,,,,,,,,,,,
,,,,,,,,2023-08-06_08h13.09.624,HF_wild_card,2022.2.4,Win32,58.76131155,5c5c9a127bca5b000167acb8,64ce5acb97489d65b14ecc7a,64cf47f0acc4858e8327c027,,,,,,,ctch,resources/DP.BMP,resources/DR.BMP,Door4,0.181481467,0.102777764,1,0,0,1.7821,optionRight,80,15775,7,32,0,32,0,1,,,,,,,,,,,,,,,,,,,,,,,,,,,,,,,,,,,,,,,
,,,,,,,,2023-08-06_08h13.09.624,HF_wild_card,2022.2.4,Win32,58.76131155,5c5c9a127bca5b000167acb8,64ce5acb97489d65b14ecc7a,64cf47f0acc4858e8327c027,,,,,,,decisionTrl,resources/DB.BMP,resources/DR.BMP,Door3,-0.22129631,0.138888889,1,0,0,1.0658,optionLeft,70,15845,7,33,0,33,0,1,,,,,,,,,,,,,,,,,,,,,,,,,,,,,,,,,,,,,,,
,,,,,,,,2023-08-06_08h13.09.624,HF_wild_card,2022.2.4,Win32,58.76131155,5c5c9a127bca5b000167acb8,64ce5acb97489d65b14ecc7a,64cf47f0acc4858e8327c027,,,,,,,decisionTrl,resources/DP.BMP,resources/DG.BMP,Door2,0.234259288,0.170370349,1,0,0,1.158,optionRight,20,15865,7,34,0,34,0,1,,,,,,,,,,,,,,,,,,,,,,,,,,,,,,,,,,,,,,,
,,,,,,,,2023-08-06_08h13.09.624,HF_wild_card,2022.2.4,Win32,58.76131155,5c5c9a127bca5b000167acb8,64ce5acb97489d65b14ecc7a,64cf47f0acc4858e8327c027,,,,,,,decisionTrl,resources/DB.BMP,resources/DR.BMP,Door3,-0.25462963,0.150000007,1,0,0,0.9641,optionLeft,70,15935,7,35,0,35,0,1,,,,,,,,,,,,,,,,,,,,,,,,,,,,,,,,,,,,,,,
,,,,,,,,2023-08-06_08h13.09.624,HF_wild_card,2022.2.4,Win32,58.76131155,5c5c9a127bca5b000167acb8,64ce5acb97489d65b14ecc7a,64cf47f0acc4858e8327c027,,,,,,,,,,,,,,,,,,,,,,,,,,6,0,6,0,1,,,,,,,,,,,,,,,,,,,,,,,,,,,,,,,,,,
,,,,,,,,2023-08-06_08h13.09.624,HF_wild_card,2022.2.4,Win32,58.76131155,5c5c9a127bca5b000167acb8,64ce5acb97489d65b14ecc7a,64cf47f0acc4858e8327c027,,,,,,,,,,,,,,,,,,,,,,,,,,,,,,,3,,,,,,,,,,,,,,,,,,,,,,,,,,,,,,,,,
,,,,,,,,2023-08-06_08h13.09.624,HF_wild_card,2022.2.4,Win32,58.76131155,5c5c9a127bca5b000167acb8,64ce5acb97489d65b14ecc7a,64cf47f0acc4858e8327c027,,,,,,,,,,,,,,,,,,,,,,,,,,,,,,,,,,,,,,,,,,,,,,,,,,,,,,,,,,,,,,,,
,,,,,,,,2023-08-06_08h13.09.624,HF_wild_card,2022.2.4,Win32,58.76131155,5c5c9a127bca5b000167acb8,64ce5acb97489d65b14ecc7a,64cf47f0acc4858e8327c027,,,,,,,,,,,,,,,,,,,,,,,,,,,,,,,,70,Door3,resources/DB.BMP,0,0,0,0,1,,,,,,,,,,,,,,,,,,,,,,,,,
,,,,,,,,2023-08-06_08h13.09.624,HF_wild_card,2022.2.4,Win32,58.76131155,5c5c9a127bca5b000167acb8,64ce5acb97489d65b14ecc7a,64cf47f0acc4858e8327c027,,,,,,,,,,,,,,,,,,,,,,,,,,,,,,,,20,Door2,resources/DG.BMP,1,0,1,0,1,,,,,,,,,,,,,,,,,,,,,,,,,
,,,,,,,,2023-08-06_08h13.09.624,HF_wild_card,2022.2.4,Win32,58.76131155,5c5c9a127bca5b000167acb8,64ce5acb97489d65b14ecc7a,64cf47f0acc4858e8327c027,,,,,,,,,,,,,,,,,,,,,,,,,,,,,,,,30,Door1,resources/DP.BMP,2,0,2,0,1,,,,,,,,,,,,,,,,,,,,,,,,,
,,,,,,,,2023-08-06_08h13.09.624,HF_wild_card,2022.2.4,Win32,58.76131155,5c5c9a127bca5b000167acb8,64ce5acb97489d65b14ecc7a,64cf47f0acc4858e8327c027,,,,,,,,,,,,,,,,,,,,,,,,,,,,,,,,80,Door4,resources/DR.BMP,3,0,3,0,1,,,,,,,,,,,,,,,,,,,,,,,,,
,,,,,,,,2023-08-06_08h13.09.624,HF_wild_card,2022.2.4,Win32,58.76131155,5c5c9a127bca5b000167acb8,64ce5acb97489d65b14ecc7a,64cf47f0acc4858e8327c027,,,,,,,,,,,,,,,,,,,,,,,,,,,,,,,,40,WC_extreme,resources/DBN.BMP,4,0,4,0,1,,,,,,,,,,,,,,,,,,,,,,,,,
,,,,,,,,2023-08-06_08h13.09.624,HF_wild_card,2022.2.4,Win32,58.76131155,5c5c9a127bca5b000167acb8,64ce5acb97489d65b14ecc7a,64cf47f0acc4858e8327c027,,,,,,,,,,,,,,,,,,,,,,,,,,,,,,,,55,WC_nonExtreme,resources/DY.BMP,5,0,5,0,1,,,,,,,,,,,,,,,,,,,,,,,,,
,,,,,,,,2023-08-06_08h13.09.624,HF_wild_card,2022.2.4,Win32,58.76131155,5c5c9a127bca5b000167acb8,64ce5acb97489d65b14ecc7a,64cf47f0acc4858e8327c027,,,,,,,,,,,,,,,,,,,,,,,,,,,,,,,,,,,,,,,,,,,,,,,,,,,,,,,,,,,,,,,,
,,,,,,,,2023-08-06_08h13.09.624,HF_wild_card,2022.2.4,Win32,58.76131155,5c5c9a127bca5b000167acb8,64ce5acb97489d65b14ecc7a,64cf47f0acc4858e8327c027,,,,,,,,,,,,,,,,,,,,,,,,,,,,,,,,,,,,,,,,0,0,0,0,1,,,,,,,,,,,,,,,,,,,,
