Condition,Low fixed image (Door1),Low risky image (Door2),High fixed image (Door3),High risky image (Door4),Extreme Wild Card,NonExtreme Wild Card,,date,expName,psychopyVersion,OS,frameRate,PROLIFIC_PID,STUDY_ID,SESSION_ID,mouse_2.x,mouse_2.y,mouse_2.leftButton,mouse_2.midButton,mouse_2.rightButton,mouse_2.clicked_name,Trial Type,Left Option Image,Right Option Image,Chosen Door,mouse.x,mouse.y,mouse.leftButton,mouse.midButton,mouse.rightButton,mouse.time,mouse.clicked_name,Feedback,Cumulative Reward,Block,trial.thisRepN,trial.thisTrialN,trial.thisN,trial.thisIndex,trial.ran,blocks.thisRepN,blocks.thisTrialN,blocks.thisN,blocks.thisIndex,blocks.ran,Money conversion,First Outcome Reported,Shown Door (First Outcome),Displayed Image (First Outcome),outcomes.thisRepN,outcomes.thisTrialN,outcomes.thisN,outcomes.thisIndex,outcomes.ran,judgments.thisRepN,judgments.thisTrialN,judgments.thisN,judgments.thisIndex,judgments.ran,freqMouse.x,freqMouse.y,freqMouse.leftButton,freqMouse.midButton,freqMouse.rightButton,freqMouse.clicked_name,FQJ for first outcome,FQJ for second outcome,Shown Door,Displayed Image,trials.thisRepN,trials.thisTrialN,trials.thisN,trials.thisIndex,trials.ran,judgBlock.thisRepN,judgBlock.thisTrialN,judgBlock.thisN,judgBlock.thisIndex,judgBlock.ran
1,resources/DG.BMP,resources/DY.BMP,resources/DB.BMP,resources/DBN.BMP,resources/DR.BMP,resources/DP.BMP,,2023-08-16_08h47.19.772,HF_wild_card,2022.2.4,Win32,60.05645307,5f547d6418bf9a7f13fa4e83,64d2fd46c836a06233681665,64dc7f040f4bab065e53d283,,,,,,,,,,,,,,,,,,,,,,,,,,,,,,,,,,,,,,,,,,,,,,,,,,,,,,,,,,,,,,,,
,,,,,,,,2023-08-16_08h47.19.772,HF_wild_card,2022.2.4,Win32,60.05645307,5f547d6418bf9a7f13fa4e83,64d2fd46c836a06233681665,64dc7f040f4bab065e53d283,0.014322917,-0.420572917,1,0,0,agree,,,,,,,,,,,,,,,,,,,,,,,,,,,,,,,,,,,,,,,,,,,,,,,,,,,,,,,,,,
,,,,,,,,2023-08-16_08h47.19.772,HF_wild_card,2022.2.4,Win32,60.05645307,5f547d6418bf9a7f13fa4e83,64d2fd46c836a06233681665,64dc7f040f4bab065e53d283,,,,,,,,,,,,,,,,,,,,,,,,,,,,,,,,,,,,,,,,,,,,,,,,,,,,,,,,,,,,,,,,
,,,,,,,,2023-08-16_08h47.19.772,HF_wild_card,2022.2.4,Win32,60.05645307,5f547d6418bf9a7f13fa4e83,64d2fd46c836a06233681665,64dc7f040f4bab065e53d283,,,,,,,sngl,resources/Empty.png,resources/DB.BMP,Door3,0.329427083,-0.118489583,1,0,0,2.8996,optionRight,70,70,1,0,0,0,0,1,,,,,,,,,,,,,,,,,,,,,,,,,,,,,,,,,,,,,,,
,,,,,,,,2023-08-16_08h47.19.772,HF_wild_card,2022.2.4,Win32,60.05645307,5f547d6418bf9a7f13fa4e83,64d2fd46c836a06233681665,64dc7f040f4bab065e53d283,,,,,,,ctch,resources/DBN.BMP,resources/DG.BMP,Door1,0.3515625,-0.022135417,1,0,0,1.8645,optionRight,30,100,1,1,0,1,0,1,,,,,,,,,,,,,,,,,,,,,,,,,,,,,,,,,,,,,,,
,,,,,,,,2023-08-16_08h47.19.772,HF_wild_card,2022.2.4,Win32,60.05645307,5f547d6418bf9a7f13fa4e83,64d2fd46c836a06233681665,64dc7f040f4bab065e53d283,,,,,,,decisionTrl,resources/DY.BMP,resources/DP.BMP,Door2,-0.451822917,-0.069010417,1,0,0,1.66,optionLeft,20,120,1,2,0,2,0,1,,,,,,,,,,,,,,,,,,,,,,,,,,,,,,,,,,,,,,,
,,,,,,,,2023-08-16_08h47.19.772,HF_wild_card,2022.2.4,Win32,60.05645307,5f547d6418bf9a7f13fa4e83,64d2fd46c836a06233681665,64dc7f040f4bab065e53d283,,,,,,,ctch,resources/DY.BMP,resources/DB.BMP,Door2,-0.35546875,-0.072916667,1,0,0,1.6613,optionLeft,40,160,1,3,0,3,0,1,,,,,,,,,,,,,,,,,,,,,,,,,,,,,,,,,,,,,,,
,,,,,,,,2023-08-16_08h47.19.772,HF_wild_card,2022.2.4,Win32,60.05645307,5f547d6418bf9a7f13fa4e83,64d2fd46c836a06233681665,64dc7f040f4bab065e53d283,,,,,,,sngl,resources/DB.BMP,resources/Empty.png,Door3,-0.342447917,-0.0234375,1,0,0,1.1273,optionLeft,70,230,1,4,0,4,0,1,,,,,,,,,,,,,,,,,,,,,,,,,,,,,,,,,,,,,,,
,,,,,,,,2023-08-16_08h47.19.772,HF_wild_card,2022.2.4,Win32,60.05645307,5f547d6418bf9a7f13fa4e83,64d2fd46c836a06233681665,64dc7f040f4bab065e53d283,,,,,,,decisionTrl,resources/DB.BMP,resources/DBN.BMP,Door4,0.5,0.052083333,1,0,0,1.4444,optionRight,60,290,1,5,0,5,0,1,,,,,,,,,,,,,,,,,,,,,,,,,,,,,,,,,,,,,,,
,,,,,,,,2023-08-16_08h47.19.772,HF_wild_card,2022.2.4,Win32,60.05645307,5f547d6418bf9a7f13fa4e83,64d2fd46c836a06233681665,64dc7f040f4bab065e53d283,,,,,,,decisionTrl,resources/DB.BMP,resources/DBN.BMP,Door3,-0.354166667,-0.033854167,1,0,0,1.2292,optionLeft,70,360,1,6,0,6,0,1,,,,,,,,,,,,,,,,,,,,,,,,,,,,,,,,,,,,,,,
,,,,,,,,2023-08-16_08h47.19.772,HF_wild_card,2022.2.4,Win32,60.05645307,5f547d6418bf9a7f13fa4e83,64d2fd46c836a06233681665,64dc7f040f4bab065e53d283,,,,,,,decisionTrl,resources/DG.BMP,resources/DY.BMP,Door2,0.442708333,0.005208333,1,0,0,2.3439,optionRight,20,380,1,7,0,7,0,1,,,,,,,,,,,,,,,,,,,,,,,,,,,,,,,,,,,,,,,
,,,,,,,,2023-08-16_08h47.19.772,HF_wild_card,2022.2.4,Win32,60.05645307,5f547d6418bf9a7f13fa4e83,64d2fd46c836a06233681665,64dc7f040f4bab065e53d283,,,,,,,decisionTrl,resources/DBN.BMP,resources/DB.BMP,Door3,0.359375,-0.07421875,1,0,0,1.578,optionRight,70,450,1,8,0,8,0,1,,,,,,,,,,,,,,,,,,,,,,,,,,,,,,,,,,,,,,,
,,,,,,,,2023-08-16_08h47.19.772,HF_wild_card,2022.2.4,Win32,60.05645307,5f547d6418bf9a7f13fa4e83,64d2fd46c836a06233681665,64dc7f040f4bab065e53d283,,,,,,,decisionTrl,resources/DBN.BMP,resources/DB.BMP,Door3,0.270833333,-0.083333333,1,0,0,1.3778,optionRight,70,520,1,9,0,9,0,1,,,,,,,,,,,,,,,,,,,,,,,,,,,,,,,,,,,,,,,
,,,,,,,,2023-08-16_08h47.19.772,HF_wild_card,2022.2.4,Win32,60.05645307,5f547d6418bf9a7f13fa4e83,64d2fd46c836a06233681665,64dc7f040f4bab065e53d283,,,,,,,sngl,resources/Empty.png,resources/DBN.BMP,Door4,0.216145833,-0.018229167,1,0,0,1.3786,optionRight,60,580,1,10,0,10,0,1,,,,,,,,,,,,,,,,,,,,,,,,,,,,,,,,,,,,,,,
,,,,,,,,2023-08-16_08h47.19.772,HF_wild_card,2022.2.4,Win32,60.05645307,5f547d6418bf9a7f13fa4e83,64d2fd46c836a06233681665,64dc7f040f4bab065e53d283,,,,,,,decisionTrl,resources/DB.BMP,resources/DP.BMP,WildCard_NonEx,0.358072917,-0.02734375,1,0,0,2.1784,optionRight,45,625,1,11,0,11,0,1,,,,,,,,,,,,,,,,,,,,,,,,,,,,,,,,,,,,,,,
,,,,,,,,2023-08-16_08h47.19.772,HF_wild_card,2022.2.4,Win32,60.05645307,5f547d6418bf9a7f13fa4e83,64d2fd46c836a06233681665,64dc7f040f4bab065e53d283,,,,,,,ctch,resources/DG.BMP,resources/DBN.BMP,Door1,-0.299479167,-0.044270833,1,0,0,1.195,optionLeft,30,655,1,12,0,12,0,1,,,,,,,,,,,,,,,,,,,,,,,,,,,,,,,,,,,,,,,
,,,,,,,,2023-08-16_08h47.19.772,HF_wild_card,2022.2.4,Win32,60.05645307,5f547d6418bf9a7f13fa4e83,64d2fd46c836a06233681665,64dc7f040f4bab065e53d283,,,,,,,sngl,resources/DBN.BMP,resources/Empty.png,Door4,-0.24609375,-0.01953125,1,0,0,1.0093,optionLeft,80,735,1,13,0,13,0,1,,,,,,,,,,,,,,,,,,,,,,,,,,,,,,,,,,,,,,,
,,,,,,,,2023-08-16_08h47.19.772,HF_wild_card,2022.2.4,Win32,60.05645307,5f547d6418bf9a7f13fa4e83,64d2fd46c836a06233681665,64dc7f040f4bab065e53d283,,,,,,,sngl,resources/DG.BMP,resources/Empty.png,Door1,-0.296875,-0.018229167,1,0,0,1.2418,optionLeft,30,765,1,14,0,14,0,1,,,,,,,,,,,,,,,,,,,,,,,,,,,,,,,,,,,,,,,
,,,,,,,,2023-08-16_08h47.19.772,HF_wild_card,2022.2.4,Win32,60.05645307,5f547d6418bf9a7f13fa4e83,64d2fd46c836a06233681665,64dc7f040f4bab065e53d283,,,,,,,decisionTrl,resources/DY.BMP,resources/DG.BMP,Door2,-0.334635417,-0.069010417,1,0,0,1.7083,optionLeft,40,805,1,15,0,15,0,1,,,,,,,,,,,,,,,,,,,,,,,,,,,,,,,,,,,,,,,
,,,,,,,,2023-08-16_08h47.19.772,HF_wild_card,2022.2.4,Win32,60.05645307,5f547d6418bf9a7f13fa4e83,64d2fd46c836a06233681665,64dc7f040f4bab065e53d283,,,,,,,decisionTrl,resources/DG.BMP,resources/DY.BMP,Door2,0.311197917,-0.032552083,1,0,0,1.5118,optionRight,20,825,1,16,0,16,0,1,,,,,,,,,,,,,,,,,,,,,,,,,,,,,,,,,,,,,,,
,,,,,,,,2023-08-16_08h47.19.772,HF_wild_card,2022.2.4,Win32,60.05645307,5f547d6418bf9a7f13fa4e83,64d2fd46c836a06233681665,64dc7f040f4bab065e53d283,,,,,,,decisionTrl,resources/DP.BMP,resources/DG.BMP,Door1,0.247395833,-0.022135417,1,0,0,1.6444,optionRight,30,855,1,17,0,17,0,1,,,,,,,,,,,,,,,,,,,,,,,,,,,,,,,,,,,,,,,
,,,,,,,,2023-08-16_08h47.19.772,HF_wild_card,2022.2.4,Win32,60.05645307,5f547d6418bf9a7f13fa4e83,64d2fd46c836a06233681665,64dc7f040f4bab065e53d283,,,,,,,ctch,resources/DY.BMP,resources/DB.BMP,Door2,-0.311197917,-0.037760417,1,0,0,1.2271,optionLeft,20,875,1,18,0,18,0,1,,,,,,,,,,,,,,,,,,,,,,,,,,,,,,,,,,,,,,,
,,,,,,,,2023-08-16_08h47.19.772,HF_wild_card,2022.2.4,Win32,60.05645307,5f547d6418bf9a7f13fa4e83,64d2fd46c836a06233681665,64dc7f040f4bab065e53d283,,,,,,,ctch,resources/DBN.BMP,resources/DG.BMP,Door4,-0.26171875,-0.100260417,1,0,0,1.5441,optionLeft,60,935,1,19,0,19,0,1,,,,,,,,,,,,,,,,,,,,,,,,,,,,,,,,,,,,,,,
,,,,,,,,2023-08-16_08h47.19.772,HF_wild_card,2022.2.4,Win32,60.05645307,5f547d6418bf9a7f13fa4e83,64d2fd46c836a06233681665,64dc7f040f4bab065e53d283,,,,,,,decisionTrl,resources/DG.BMP,resources/DY.BMP,Door1,-0.294270833,-0.044270833,1,0,0,1.3238,optionLeft,30,965,1,20,0,20,0,1,,,,,,,,,,,,,,,,,,,,,,,,,,,,,,,,,,,,,,,
,,,,,,,,2023-08-16_08h47.19.772,HF_wild_card,2022.2.4,Win32,60.05645307,5f547d6418bf9a7f13fa4e83,64d2fd46c836a06233681665,64dc7f040f4bab065e53d283,,,,,,,decisionTrl,resources/DP.BMP,resources/DB.BMP,Door3,0.348958333,0.024739583,1,0,0,1.6784,optionRight,70,1035,1,21,0,21,0,1,,,,,,,,,,,,,,,,,,,,,,,,,,,,,,,,,,,,,,,
,,,,,,,,2023-08-16_08h47.19.772,HF_wild_card,2022.2.4,Win32,60.05645307,5f547d6418bf9a7f13fa4e83,64d2fd46c836a06233681665,64dc7f040f4bab065e53d283,,,,,,,decisionTrl,resources/DP.BMP,resources/DBN.BMP,Door4,0.196614583,-0.046875,1,0,0,3.2101,optionRight,60,1095,1,22,0,22,0,1,,,,,,,,,,,,,,,,,,,,,,,,,,,,,,,,,,,,,,,
,,,,,,,,2023-08-16_08h47.19.772,HF_wild_card,2022.2.4,Win32,60.05645307,5f547d6418bf9a7f13fa4e83,64d2fd46c836a06233681665,64dc7f040f4bab065e53d283,,,,,,,decisionTrl,resources/DBN.BMP,resources/DB.BMP,Door4,-0.322916667,-0.045572917,1,0,0,1.4757,optionLeft,60,1155,1,23,0,23,0,1,,,,,,,,,,,,,,,,,,,,,,,,,,,,,,,,,,,,,,,
,,,,,,,,2023-08-16_08h47.19.772,HF_wild_card,2022.2.4,Win32,60.05645307,5f547d6418bf9a7f13fa4e83,64d2fd46c836a06233681665,64dc7f040f4bab065e53d283,,,,,,,decisionTrl,resources/DB.BMP,resources/DBN.BMP,Door3,-0.329427083,-0.080729167,1,0,0,1.4615,optionLeft,70,1225,1,24,0,24,0,1,,,,,,,,,,,,,,,,,,,,,,,,,,,,,,,,,,,,,,,
,,,,,,,,2023-08-16_08h47.19.772,HF_wild_card,2022.2.4,Win32,60.05645307,5f547d6418bf9a7f13fa4e83,64d2fd46c836a06233681665,64dc7f040f4bab065e53d283,,,,,,,sngl,resources/Empty.png,resources/DY.BMP,Door2,0.388020833,-0.006510417,1,0,0,1.1263,optionRight,20,1245,1,25,0,25,0,1,,,,,,,,,,,,,,,,,,,,,,,,,,,,,,,,,,,,,,,
,,,,,,,,2023-08-16_08h47.19.772,HF_wild_card,2022.2.4,Win32,60.05645307,5f547d6418bf9a7f13fa4e83,64d2fd46c836a06233681665,64dc7f040f4bab065e53d283,,,,,,,decisionTrl,resources/DY.BMP,resources/DG.BMP,Door1,0.401041667,0.001302083,1,0,0,1.3607,optionRight,30,1275,1,26,0,26,0,1,,,,,,,,,,,,,,,,,,,,,,,,,,,,,,,,,,,,,,,
,,,,,,,,2023-08-16_08h47.19.772,HF_wild_card,2022.2.4,Win32,60.05645307,5f547d6418bf9a7f13fa4e83,64d2fd46c836a06233681665,64dc7f040f4bab065e53d283,,,,,,,sngl,resources/Empty.png,resources/DP.BMP,WildCard_NonEx,0.34765625,-0.03125,1,0,0,1.0104,optionRight,55,1330,1,27,0,27,0,1,,,,,,,,,,,,,,,,,,,,,,,,,,,,,,,,,,,,,,,
,,,,,,,,2023-08-16_08h47.19.772,HF_wild_card,2022.2.4,Win32,60.05645307,5f547d6418bf9a7f13fa4e83,64d2fd46c836a06233681665,64dc7f040f4bab065e53d283,,,,,,,decisionTrl,resources/DG.BMP,resources/DY.BMP,Door1,-0.28515625,-0.04296875,1,0,0,1.6447,optionLeft,30,1360,1,28,0,28,0,1,,,,,,,,,,,,,,,,,,,,,,,,,,,,,,,,,,,,,,,
,,,,,,,,2023-08-16_08h47.19.772,HF_wild_card,2022.2.4,Win32,60.05645307,5f547d6418bf9a7f13fa4e83,64d2fd46c836a06233681665,64dc7f040f4bab065e53d283,,,,,,,sngl,resources/Empty.png,resources/DG.BMP,Door1,0.307291667,0,1,0,0,0.9791,optionRight,30,1390,1,29,0,29,0,1,,,,,,,,,,,,,,,,,,,,,,,,,,,,,,,,,,,,,,,
,,,,,,,,2023-08-16_08h47.19.772,HF_wild_card,2022.2.4,Win32,60.05645307,5f547d6418bf9a7f13fa4e83,64d2fd46c836a06233681665,64dc7f040f4bab065e53d283,,,,,,,ctch,resources/DG.BMP,resources/DBN.BMP,Door4,0.373697917,0.0234375,1,0,0,1.1616,optionRight,80,1470,1,30,0,30,0,1,,,,,,,,,,,,,,,,,,,,,,,,,,,,,,,,,,,,,,,
,,,,,,,,2023-08-16_08h47.19.772,HF_wild_card,2022.2.4,Win32,60.05645307,5f547d6418bf9a7f13fa4e83,64d2fd46c836a06233681665,64dc7f040f4bab065e53d283,,,,,,,decisionTrl,resources/DBN.BMP,resources/DP.BMP,Door4,-0.251302083,-0.063802083,1,0,0,1.245,optionLeft,60,1530,1,31,0,31,0,1,,,,,,,,,,,,,,,,,,,,,,,,,,,,,,,,,,,,,,,
,,,,,,,,2023-08-16_08h47.19.772,HF_wild_card,2022.2.4,Win32,60.05645307,5f547d6418bf9a7f13fa4e83,64d2fd46c836a06233681665,64dc7f040f4bab065e53d283,,,,,,,decisionTrl,resources/DB.BMP,resources/DBN.BMP,Door3,-0.29296875,-0.033854167,1,0,0,1.6949,optionLeft,70,1600,1,32,0,32,0,1,,,,,,,,,,,,,,,,,,,,,,,,,,,,,,,,,,,,,,,
,,,,,,,,2023-08-16_08h47.19.772,HF_wild_card,2022.2.4,Win32,60.05645307,5f547d6418bf9a7f13fa4e83,64d2fd46c836a06233681665,64dc7f040f4bab065e53d283,,,,,,,decisionTrl,resources/DY.BMP,resources/DG.BMP,Door1,0.302083333,0.00390625,1,0,0,1.2781,optionRight,30,1630,1,33,0,33,0,1,,,,,,,,,,,,,,,,,,,,,,,,,,,,,,,,,,,,,,,
,,,,,,,,2023-08-16_08h47.19.772,HF_wild_card,2022.2.4,Win32,60.05645307,5f547d6418bf9a7f13fa4e83,64d2fd46c836a06233681665,64dc7f040f4bab065e53d283,,,,,,,ctch,resources/DB.BMP,resources/DY.BMP,Door3,-0.278645833,-0.045572917,1,0,0,1.3624,optionLeft,70,1700,1,34,0,34,0,1,,,,,,,,,,,,,,,,,,,,,,,,,,,,,,,,,,,,,,,
,,,,,,,,2023-08-16_08h47.19.772,HF_wild_card,2022.2.4,Win32,60.05645307,5f547d6418bf9a7f13fa4e83,64d2fd46c836a06233681665,64dc7f040f4bab065e53d283,,,,,,,sngl,resources/DP.BMP,resources/Empty.png,WildCard_NonEx,-0.204427083,-0.018229167,1,0,0,1.0227,optionLeft,55,1755,1,35,0,35,0,1,,,,,,,,,,,,,,,,,,,,,,,,,,,,,,,,,,,,,,,
,,,,,,,,2023-08-16_08h47.19.772,HF_wild_card,2022.2.4,Win32,60.05645307,5f547d6418bf9a7f13fa4e83,64d2fd46c836a06233681665,64dc7f040f4bab065e53d283,,,,,,,sngl,resources/DP.BMP,resources/Empty.png,WildCard_NonEx,-0.256510417,-0.016927083,1,0,0,1.0454,optionLeft,45,1800,1,36,0,36,0,1,,,,,,,,,,,,,,,,,,,,,,,,,,,,,,,,,,,,,,,
,,,,,,,,2023-08-16_08h47.19.772,HF_wild_card,2022.2.4,Win32,60.05645307,5f547d6418bf9a7f13fa4e83,64d2fd46c836a06233681665,64dc7f040f4bab065e53d283,,,,,,,decisionTrl,resources/DP.BMP,resources/DY.BMP,WildCard_NonEx,-0.213541667,-0.048177083,1,0,0,1.3288,optionLeft,55,1855,1,37,0,37,0,1,,,,,,,,,,,,,,,,,,,,,,,,,,,,,,,,,,,,,,,
,,,,,,,,2023-08-16_08h47.19.772,HF_wild_card,2022.2.4,Win32,60.05645307,5f547d6418bf9a7f13fa4e83,64d2fd46c836a06233681665,64dc7f040f4bab065e53d283,,,,,,,sngl,resources/DY.BMP,resources/Empty.png,Door2,-0.223958333,-0.026041667,1,0,0,0.9771,optionLeft,40,1895,1,38,0,38,0,1,,,,,,,,,,,,,,,,,,,,,,,,,,,,,,,,,,,,,,,
,,,,,,,,2023-08-16_08h47.19.772,HF_wild_card,2022.2.4,Win32,60.05645307,5f547d6418bf9a7f13fa4e83,64d2fd46c836a06233681665,64dc7f040f4bab065e53d283,,,,,,,ctch,resources/DB.BMP,resources/DY.BMP,Door3,-0.240885417,-0.037760417,1,0,0,1.2284,optionLeft,70,1965,1,39,0,39,0,1,,,,,,,,,,,,,,,,,,,,,,,,,,,,,,,,,,,,,,,
,,,,,,,,2023-08-16_08h47.19.772,HF_wild_card,2022.2.4,Win32,60.05645307,5f547d6418bf9a7f13fa4e83,64d2fd46c836a06233681665,64dc7f040f4bab065e53d283,,,,,,,decisionTrl,resources/DY.BMP,resources/DG.BMP,Door1,0.325520833,0.03515625,1,0,0,1.3281,optionRight,30,1995,1,40,0,40,0,1,,,,,,,,,,,,,,,,,,,,,,,,,,,,,,,,,,,,,,,
,,,,,,,,2023-08-16_08h47.19.772,HF_wild_card,2022.2.4,Win32,60.05645307,5f547d6418bf9a7f13fa4e83,64d2fd46c836a06233681665,64dc7f040f4bab065e53d283,,,,,,,decisionTrl,resources/DG.BMP,resources/DP.BMP,WildCard_NonEx,0.329427083,-0.018229167,1,0,0,2.5123,optionRight,45,2040,1,41,0,41,0,1,,,,,,,,,,,,,,,,,,,,,,,,,,,,,,,,,,,,,,,
,,,,,,,,2023-08-16_08h47.19.772,HF_wild_card,2022.2.4,Win32,60.05645307,5f547d6418bf9a7f13fa4e83,64d2fd46c836a06233681665,64dc7f040f4bab065e53d283,,,,,,,sngl,resources/Empty.png,resources/DP.BMP,WildCard_NonEx,0.329427083,-0.052083333,1,0,0,1.078,optionRight,45,2085,1,42,0,42,0,1,,,,,,,,,,,,,,,,,,,,,,,,,,,,,,,,,,,,,,,
,,,,,,,,2023-08-16_08h47.19.772,HF_wild_card,2022.2.4,Win32,60.05645307,5f547d6418bf9a7f13fa4e83,64d2fd46c836a06233681665,64dc7f040f4bab065e53d283,,,,,,,decisionTrl,resources/DBN.BMP,resources/DB.BMP,Door4,-0.272135417,-0.029947917,1,0,0,0.9959,optionLeft,80,2165,1,43,0,43,0,1,,,,,,,,,,,,,,,,,,,,,,,,,,,,,,,,,,,,,,,
,,,,,,,,2023-08-16_08h47.19.772,HF_wild_card,2022.2.4,Win32,60.05645307,5f547d6418bf9a7f13fa4e83,64d2fd46c836a06233681665,64dc7f040f4bab065e53d283,,,,,,,,,,,,,,,,,,,,,,,,,,0,0,0,0,1,,,,,,,,,,,,,,,,,,,,,,,,,,,,,,,,,,
,,,,,,,,2023-08-16_08h47.19.772,HF_wild_card,2022.2.4,Win32,60.05645307,5f547d6418bf9a7f13fa4e83,64d2fd46c836a06233681665,64dc7f040f4bab065e53d283,,,,,,,decisionTrl,resources/DBN.BMP,resources/DB.BMP,Door3,0.38671875,-0.083333333,1,0,0,1.6241,optionRight,70,2235,2,0,0,0,0,1,,,,,,,,,,,,,,,,,,,,,,,,,,,,,,,,,,,,,,,
,,,,,,,,2023-08-16_08h47.19.772,HF_wild_card,2022.2.4,Win32,60.05645307,5f547d6418bf9a7f13fa4e83,64d2fd46c836a06233681665,64dc7f040f4bab065e53d283,,,,,,,ctch,resources/DY.BMP,resources/DB.BMP,Door3,0.462239583,0.02734375,1,0,0,1.795,optionRight,70,2305,2,1,0,1,0,1,,,,,,,,,,,,,,,,,,,,,,,,,,,,,,,,,,,,,,,
,,,,,,,,2023-08-16_08h47.19.772,HF_wild_card,2022.2.4,Win32,60.05645307,5f547d6418bf9a7f13fa4e83,64d2fd46c836a06233681665,64dc7f040f4bab065e53d283,,,,,,,decisionTrl,resources/DG.BMP,resources/DY.BMP,Door1,-0.424479167,-0.083333333,1,0,0,1.3787,optionLeft,30,2335,2,2,0,2,0,1,,,,,,,,,,,,,,,,,,,,,,,,,,,,,,,,,,,,,,,
,,,,,,,,2023-08-16_08h47.19.772,HF_wild_card,2022.2.4,Win32,60.05645307,5f547d6418bf9a7f13fa4e83,64d2fd46c836a06233681665,64dc7f040f4bab065e53d283,,,,,,,decisionTrl,resources/DP.BMP,resources/DB.BMP,Door3,0.270833333,-0.079427083,1,0,0,1.5281,optionRight,70,2405,2,3,0,3,0,1,,,,,,,,,,,,,,,,,,,,,,,,,,,,,,,,,,,,,,,
,,,,,,,,2023-08-16_08h47.19.772,HF_wild_card,2022.2.4,Win32,60.05645307,5f547d6418bf9a7f13fa4e83,64d2fd46c836a06233681665,64dc7f040f4bab065e53d283,,,,,,,sngl,resources/Empty.png,resources/DY.BMP,Door2,0.36328125,-0.041666667,1,0,0,1.0782,optionRight,40,2445,2,4,0,4,0,1,,,,,,,,,,,,,,,,,,,,,,,,,,,,,,,,,,,,,,,
,,,,,,,,2023-08-16_08h47.19.772,HF_wild_card,2022.2.4,Win32,60.05645307,5f547d6418bf9a7f13fa4e83,64d2fd46c836a06233681665,64dc7f040f4bab065e53d283,,,,,,,decisionTrl,resources/DY.BMP,resources/DG.BMP,Door1,0.2890625,-0.006510417,1,0,0,1.2787,optionRight,30,2475,2,5,0,5,0,1,,,,,,,,,,,,,,,,,,,,,,,,,,,,,,,,,,,,,,,
,,,,,,,,2023-08-16_08h47.19.772,HF_wild_card,2022.2.4,Win32,60.05645307,5f547d6418bf9a7f13fa4e83,64d2fd46c836a06233681665,64dc7f040f4bab065e53d283,,,,,,,sngl,resources/DP.BMP,resources/Empty.png,WildCard_NonEx,-0.36328125,-0.0859375,1,0,0,0.9461,optionLeft,45,2520,2,6,0,6,0,1,,,,,,,,,,,,,,,,,,,,,,,,,,,,,,,,,,,,,,,
,,,,,,,,2023-08-16_08h47.19.772,HF_wild_card,2022.2.4,Win32,60.05645307,5f547d6418bf9a7f13fa4e83,64d2fd46c836a06233681665,64dc7f040f4bab065e53d283,,,,,,,sngl,resources/Empty.png,resources/DG.BMP,Door1,0.455729167,0.013020833,1,0,0,0.9456,optionRight,30,2550,2,7,0,7,0,1,,,,,,,,,,,,,,,,,,,,,,,,,,,,,,,,,,,,,,,
,,,,,,,,2023-08-16_08h47.19.772,HF_wild_card,2022.2.4,Win32,60.05645307,5f547d6418bf9a7f13fa4e83,64d2fd46c836a06233681665,64dc7f040f4bab065e53d283,,,,,,,sngl,resources/DB.BMP,resources/Empty.png,Door3,-0.329427083,-0.040364583,1,0,0,0.911,optionLeft,70,2620,2,8,0,8,0,1,,,,,,,,,,,,,,,,,,,,,,,,,,,,,,,,,,,,,,,
,,,,,,,,2023-08-16_08h47.19.772,HF_wild_card,2022.2.4,Win32,60.05645307,5f547d6418bf9a7f13fa4e83,64d2fd46c836a06233681665,64dc7f040f4bab065e53d283,,,,,,,ctch,resources/DBN.BMP,resources/DG.BMP,Door4,-0.3515625,-0.072916667,1,0,0,1.5946,optionLeft,60,2680,2,9,0,9,0,1,,,,,,,,,,,,,,,,,,,,,,,,,,,,,,,,,,,,,,,
,,,,,,,,2023-08-16_08h47.19.772,HF_wild_card,2022.2.4,Win32,60.05645307,5f547d6418bf9a7f13fa4e83,64d2fd46c836a06233681665,64dc7f040f4bab065e53d283,,,,,,,decisionTrl,resources/DB.BMP,resources/DBN.BMP,Door3,-0.2890625,-0.061197917,1,0,0,1.962,optionLeft,70,2750,2,10,0,10,0,1,,,,,,,,,,,,,,,,,,,,,,,,,,,,,,,,,,,,,,,
,,,,,,,,2023-08-16_08h47.19.772,HF_wild_card,2022.2.4,Win32,60.05645307,5f547d6418bf9a7f13fa4e83,64d2fd46c836a06233681665,64dc7f040f4bab065e53d283,,,,,,,decisionTrl,resources/DY.BMP,resources/DG.BMP,Door2,-0.259114583,-0.063802083,1,0,0,1.1788,optionLeft,20,2770,2,11,0,11,0,1,,,,,,,,,,,,,,,,,,,,,,,,,,,,,,,,,,,,,,,
,,,,,,,,2023-08-16_08h47.19.772,HF_wild_card,2022.2.4,Win32,60.05645307,5f547d6418bf9a7f13fa4e83,64d2fd46c836a06233681665,64dc7f040f4bab065e53d283,,,,,,,ctch,resources/DG.BMP,resources/DBN.BMP,Door4,0.2421875,-0.013020833,1,0,0,1.5956,optionRight,80,2850,2,12,0,12,0,1,,,,,,,,,,,,,,,,,,,,,,,,,,,,,,,,,,,,,,,
,,,,,,,,2023-08-16_08h47.19.772,HF_wild_card,2022.2.4,Win32,60.05645307,5f547d6418bf9a7f13fa4e83,64d2fd46c836a06233681665,64dc7f040f4bab065e53d283,,,,,,,decisionTrl,resources/DBN.BMP,resources/DB.BMP,Door3,0.381510417,0,1,0,0,1.5617,optionRight,70,2920,2,13,0,13,0,1,,,,,,,,,,,,,,,,,,,,,,,,,,,,,,,,,,,,,,,
,,,,,,,,2023-08-16_08h47.19.772,HF_wild_card,2022.2.4,Win32,60.05645307,5f547d6418bf9a7f13fa4e83,64d2fd46c836a06233681665,64dc7f040f4bab065e53d283,,,,,,,decisionTrl,resources/DBN.BMP,resources/DB.BMP,Door4,-0.26953125,-0.048177083,1,0,0,0.9286,optionLeft,60,2980,2,14,0,14,0,1,,,,,,,,,,,,,,,,,,,,,,,,,,,,,,,,,,,,,,,
,,,,,,,,2023-08-16_08h47.19.772,HF_wild_card,2022.2.4,Win32,60.05645307,5f547d6418bf9a7f13fa4e83,64d2fd46c836a06233681665,64dc7f040f4bab065e53d283,,,,,,,decisionTrl,resources/DP.BMP,resources/DBN.BMP,Door4,0.319010417,0.006510417,1,0,0,1.4954,optionRight,60,3040,2,15,0,15,0,1,,,,,,,,,,,,,,,,,,,,,,,,,,,,,,,,,,,,,,,
,,,,,,,,2023-08-16_08h47.19.772,HF_wild_card,2022.2.4,Win32,60.05645307,5f547d6418bf9a7f13fa4e83,64d2fd46c836a06233681665,64dc7f040f4bab065e53d283,,,,,,,ctch,resources/DG.BMP,resources/DBN.BMP,Door1,-0.345052083,-0.06640625,1,0,0,1.2947,optionLeft,30,3070,2,16,0,16,0,1,,,,,,,,,,,,,,,,,,,,,,,,,,,,,,,,,,,,,,,
,,,,,,,,2023-08-16_08h47.19.772,HF_wild_card,2022.2.4,Win32,60.05645307,5f547d6418bf9a7f13fa4e83,64d2fd46c836a06233681665,64dc7f040f4bab065e53d283,,,,,,,sngl,resources/Empty.png,resources/DB.BMP,Door3,0.395833333,-0.016927083,1,0,0,0.9449,optionRight,70,3140,2,17,0,17,0,1,,,,,,,,,,,,,,,,,,,,,,,,,,,,,,,,,,,,,,,
,,,,,,,,2023-08-16_08h47.19.772,HF_wild_card,2022.2.4,Win32,60.05645307,5f547d6418bf9a7f13fa4e83,64d2fd46c836a06233681665,64dc7f040f4bab065e53d283,,,,,,,ctch,resources/DBN.BMP,resources/DG.BMP,Door4,-0.236979167,-0.045572917,1,0,0,1.412,optionLeft,80,3220,2,18,0,18,0,1,,,,,,,,,,,,,,,,,,,,,,,,,,,,,,,,,,,,,,,
,,,,,,,,2023-08-16_08h47.19.772,HF_wild_card,2022.2.4,Win32,60.05645307,5f547d6418bf9a7f13fa4e83,64d2fd46c836a06233681665,64dc7f040f4bab065e53d283,,,,,,,decisionTrl,resources/DBN.BMP,resources/DB.BMP,Door3,0.25390625,-0.013020833,1,0,0,1.4125,optionRight,70,3290,2,19,0,19,0,1,,,,,,,,,,,,,,,,,,,,,,,,,,,,,,,,,,,,,,,
,,,,,,,,2023-08-16_08h47.19.772,HF_wild_card,2022.2.4,Win32,60.05645307,5f547d6418bf9a7f13fa4e83,64d2fd46c836a06233681665,64dc7f040f4bab065e53d283,,,,,,,sngl,resources/DBN.BMP,resources/Empty.png,Door4,-0.2890625,-0.006510417,1,0,0,1.1452,optionLeft,60,3350,2,20,0,20,0,1,,,,,,,,,,,,,,,,,,,,,,,,,,,,,,,,,,,,,,,
,,,,,,,,2023-08-16_08h47.19.772,HF_wild_card,2022.2.4,Win32,60.05645307,5f547d6418bf9a7f13fa4e83,64d2fd46c836a06233681665,64dc7f040f4bab065e53d283,,,,,,,sngl,resources/Empty.png,resources/DP.BMP,WildCard_NonEx,0.352864583,0.028645833,1,0,0,1.1116,optionRight,45,3395,2,21,0,21,0,1,,,,,,,,,,,,,,,,,,,,,,,,,,,,,,,,,,,,,,,
,,,,,,,,2023-08-16_08h47.19.772,HF_wild_card,2022.2.4,Win32,60.05645307,5f547d6418bf9a7f13fa4e83,64d2fd46c836a06233681665,64dc7f040f4bab065e53d283,,,,,,,decisionTrl,resources/DB.BMP,resources/DBN.BMP,Door3,-0.302083333,-0.028645833,1,0,0,1.1281,optionLeft,70,3465,2,22,0,22,0,1,,,,,,,,,,,,,,,,,,,,,,,,,,,,,,,,,,,,,,,
,,,,,,,,2023-08-16_08h47.19.772,HF_wild_card,2022.2.4,Win32,60.05645307,5f547d6418bf9a7f13fa4e83,64d2fd46c836a06233681665,64dc7f040f4bab065e53d283,,,,,,,decisionTrl,resources/DG.BMP,resources/DY.BMP,Door1,-0.221354167,-0.05078125,1,0,0,1.2557,optionLeft,30,3495,2,23,0,23,0,1,,,,,,,,,,,,,,,,,,,,,,,,,,,,,,,,,,,,,,,
,,,,,,,,2023-08-16_08h47.19.772,HF_wild_card,2022.2.4,Win32,60.05645307,5f547d6418bf9a7f13fa4e83,64d2fd46c836a06233681665,64dc7f040f4bab065e53d283,,,,,,,decisionTrl,resources/DP.BMP,resources/DY.BMP,WildCard_NonEx,-0.23828125,-0.049479167,1,0,0,1.8416,optionLeft,55,3550,2,24,0,24,0,1,,,,,,,,,,,,,,,,,,,,,,,,,,,,,,,,,,,,,,,
,,,,,,,,2023-08-16_08h47.19.772,HF_wild_card,2022.2.4,Win32,60.05645307,5f547d6418bf9a7f13fa4e83,64d2fd46c836a06233681665,64dc7f040f4bab065e53d283,,,,,,,sngl,resources/DP.BMP,resources/Empty.png,WildCard_NonEx,-0.25390625,-0.045572917,1,0,0,1.495,optionLeft,55,3605,2,25,0,25,0,1,,,,,,,,,,,,,,,,,,,,,,,,,,,,,,,,,,,,,,,
,,,,,,,,2023-08-16_08h47.19.772,HF_wild_card,2022.2.4,Win32,60.05645307,5f547d6418bf9a7f13fa4e83,64d2fd46c836a06233681665,64dc7f040f4bab065e53d283,,,,,,,sngl,resources/Empty.png,resources/DBN.BMP,Door4,0.419270833,0.0390625,1,0,0,1.0774,optionRight,80,3685,2,26,0,26,0,1,,,,,,,,,,,,,,,,,,,,,,,,,,,,,,,,,,,,,,,
,,,,,,,,2023-08-16_08h47.19.772,HF_wild_card,2022.2.4,Win32,60.05645307,5f547d6418bf9a7f13fa4e83,64d2fd46c836a06233681665,64dc7f040f4bab065e53d283,,,,,,,ctch,resources/DB.BMP,resources/DY.BMP,Door3,-0.328125,-0.096354167,1,0,0,1.3957,optionLeft,70,3755,2,27,0,27,0,1,,,,,,,,,,,,,,,,,,,,,,,,,,,,,,,,,,,,,,,
,,,,,,,,2023-08-16_08h47.19.772,HF_wild_card,2022.2.4,Win32,60.05645307,5f547d6418bf9a7f13fa4e83,64d2fd46c836a06233681665,64dc7f040f4bab065e53d283,,,,,,,decisionTrl,resources/DY.BMP,resources/DG.BMP,Door1,0.399739583,0.057291667,1,0,0,2.1444,optionRight,30,3785,2,28,0,28,0,1,,,,,,,,,,,,,,,,,,,,,,,,,,,,,,,,,,,,,,,
,,,,,,,,2023-08-16_08h47.19.772,HF_wild_card,2022.2.4,Win32,60.05645307,5f547d6418bf9a7f13fa4e83,64d2fd46c836a06233681665,64dc7f040f4bab065e53d283,,,,,,,ctch,resources/DB.BMP,resources/DY.BMP,Door3,-0.264322917,-0.104166667,1,0,0,1.229,optionLeft,70,3855,2,29,0,29,0,1,,,,,,,,,,,,,,,,,,,,,,,,,,,,,,,,,,,,,,,
,,,,,,,,2023-08-16_08h47.19.772,HF_wild_card,2022.2.4,Win32,60.05645307,5f547d6418bf9a7f13fa4e83,64d2fd46c836a06233681665,64dc7f040f4bab065e53d283,,,,,,,decisionTrl,resources/DG.BMP,resources/DY.BMP,Door1,-0.157552083,-0.06640625,1,0,0,1.228,optionLeft,30,3885,2,30,0,30,0,1,,,,,,,,,,,,,,,,,,,,,,,,,,,,,,,,,,,,,,,
,,,,,,,,2023-08-16_08h47.19.772,HF_wild_card,2022.2.4,Win32,60.05645307,5f547d6418bf9a7f13fa4e83,64d2fd46c836a06233681665,64dc7f040f4bab065e53d283,,,,,,,decisionTrl,resources/DG.BMP,resources/DY.BMP,Door2,0.21875,0.002604167,1,0,0,1.0296,optionRight,20,3905,2,31,0,31,0,1,,,,,,,,,,,,,,,,,,,,,,,,,,,,,,,,,,,,,,,
,,,,,,,,2023-08-16_08h47.19.772,HF_wild_card,2022.2.4,Win32,60.05645307,5f547d6418bf9a7f13fa4e83,64d2fd46c836a06233681665,64dc7f040f4bab065e53d283,,,,,,,decisionTrl,resources/DB.BMP,resources/DBN.BMP,Door3,-0.266927083,-0.063802083,1,0,0,1.0962,optionLeft,70,3975,2,32,0,32,0,1,,,,,,,,,,,,,,,,,,,,,,,,,,,,,,,,,,,,,,,
,,,,,,,,2023-08-16_08h47.19.772,HF_wild_card,2022.2.4,Win32,60.05645307,5f547d6418bf9a7f13fa4e83,64d2fd46c836a06233681665,64dc7f040f4bab065e53d283,,,,,,,decisionTrl,resources/DB.BMP,resources/DP.BMP,Door3,-0.2265625,-0.040364583,1,0,0,1.4616,optionLeft,70,4045,2,33,0,33,0,1,,,,,,,,,,,,,,,,,,,,,,,,,,,,,,,,,,,,,,,
,,,,,,,,2023-08-16_08h47.19.772,HF_wild_card,2022.2.4,Win32,60.05645307,5f547d6418bf9a7f13fa4e83,64d2fd46c836a06233681665,64dc7f040f4bab065e53d283,,,,,,,decisionTrl,resources/DY.BMP,resources/DP.BMP,Door2,-0.263020833,-0.109375,1,0,0,1.9942,optionLeft,40,4085,2,34,0,34,0,1,,,,,,,,,,,,,,,,,,,,,,,,,,,,,,,,,,,,,,,
,,,,,,,,2023-08-16_08h47.19.772,HF_wild_card,2022.2.4,Win32,60.05645307,5f547d6418bf9a7f13fa4e83,64d2fd46c836a06233681665,64dc7f040f4bab065e53d283,,,,,,,sngl,resources/DY.BMP,resources/Empty.png,Door2,-0.194010417,-0.075520833,1,0,0,0.8911,optionLeft,20,4105,2,35,0,35,0,1,,,,,,,,,,,,,,,,,,,,,,,,,,,,,,,,,,,,,,,
,,,,,,,,2023-08-16_08h47.19.772,HF_wild_card,2022.2.4,Win32,60.05645307,5f547d6418bf9a7f13fa4e83,64d2fd46c836a06233681665,64dc7f040f4bab065e53d283,,,,,,,ctch,resources/DY.BMP,resources/DB.BMP,Door3,0.375,0.037760417,1,0,0,1.0773,optionRight,70,4175,2,36,0,36,0,1,,,,,,,,,,,,,,,,,,,,,,,,,,,,,,,,,,,,,,,
,,,,,,,,2023-08-16_08h47.19.772,HF_wild_card,2022.2.4,Win32,60.05645307,5f547d6418bf9a7f13fa4e83,64d2fd46c836a06233681665,64dc7f040f4bab065e53d283,,,,,,,sngl,resources/DG.BMP,resources/Empty.png,Door1,-0.23828125,-0.102864583,1,0,0,0.979,optionLeft,30,4205,2,37,0,37,0,1,,,,,,,,,,,,,,,,,,,,,,,,,,,,,,,,,,,,,,,
,,,,,,,,2023-08-16_08h47.19.772,HF_wild_card,2022.2.4,Win32,60.05645307,5f547d6418bf9a7f13fa4e83,64d2fd46c836a06233681665,64dc7f040f4bab065e53d283,,,,,,,decisionTrl,resources/DBN.BMP,resources/DP.BMP,Door4,-0.201822917,-0.046875,1,0,0,1.1616,optionLeft,60,4265,2,38,0,38,0,1,,,,,,,,,,,,,,,,,,,,,,,,,,,,,,,,,,,,,,,
,,,,,,,,2023-08-16_08h47.19.772,HF_wild_card,2022.2.4,Win32,60.05645307,5f547d6418bf9a7f13fa4e83,64d2fd46c836a06233681665,64dc7f040f4bab065e53d283,,,,,,,decisionTrl,resources/DP.BMP,resources/DG.BMP,WildCard_NonEx,-0.1796875,-0.065104167,1,0,0,1.9603,optionLeft,45,4310,2,39,0,39,0,1,,,,,,,,,,,,,,,,,,,,,,,,,,,,,,,,,,,,,,,
,,,,,,,,2023-08-16_08h47.19.772,HF_wild_card,2022.2.4,Win32,60.05645307,5f547d6418bf9a7f13fa4e83,64d2fd46c836a06233681665,64dc7f040f4bab065e53d283,,,,,,,decisionTrl,resources/DB.BMP,resources/DBN.BMP,Door3,-0.149739583,-0.0703125,1,0,0,1.6775,optionLeft,70,4380,2,40,0,40,0,1,,,,,,,,,,,,,,,,,,,,,,,,,,,,,,,,,,,,,,,
,,,,,,,,2023-08-16_08h47.19.772,HF_wild_card,2022.2.4,Win32,60.05645307,5f547d6418bf9a7f13fa4e83,64d2fd46c836a06233681665,64dc7f040f4bab065e53d283,,,,,,,decisionTrl,resources/DY.BMP,resources/DG.BMP,Door1,0.411458333,0.067708333,1,0,0,1.3419,optionRight,30,4410,2,41,0,41,0,1,,,,,,,,,,,,,,,,,,,,,,,,,,,,,,,,,,,,,,,
,,,,,,,,2023-08-16_08h47.19.772,HF_wild_card,2022.2.4,Win32,60.05645307,5f547d6418bf9a7f13fa4e83,64d2fd46c836a06233681665,64dc7f040f4bab065e53d283,,,,,,,sngl,resources/Empty.png,resources/DP.BMP,WildCard_NonEx,0.23828125,0.005208333,1,0,0,1.3924,optionRight,55,4465,2,42,0,42,0,1,,,,,,,,,,,,,,,,,,,,,,,,,,,,,,,,,,,,,,,
,,,,,,,,2023-08-16_08h47.19.772,HF_wild_card,2022.2.4,Win32,60.05645307,5f547d6418bf9a7f13fa4e83,64d2fd46c836a06233681665,64dc7f040f4bab065e53d283,,,,,,,decisionTrl,resources/DG.BMP,resources/DP.BMP,Door1,-0.236979167,-0.08984375,1,0,0,2.8251,optionLeft,30,4495,2,43,0,43,0,1,,,,,,,,,,,,,,,,,,,,,,,,,,,,,,,,,,,,,,,
,,,,,,,,2023-08-16_08h47.19.772,HF_wild_card,2022.2.4,Win32,60.05645307,5f547d6418bf9a7f13fa4e83,64d2fd46c836a06233681665,64dc7f040f4bab065e53d283,,,,,,,,,,,,,,,,,,,,,,,,,,1,0,1,0,1,,,,,,,,,,,,,,,,,,,,,,,,,,,,,,,,,,
,,,,,,,,2023-08-16_08h47.19.772,HF_wild_card,2022.2.4,Win32,60.05645307,5f547d6418bf9a7f13fa4e83,64d2fd46c836a06233681665,64dc7f040f4bab065e53d283,,,,,,,decisionTrl,resources/DG.BMP,resources/DY.BMP,Door2,0.239583333,-0.135416667,1,0,0,1.8109,optionRight,40,4535,3,0,0,0,0,1,,,,,,,,,,,,,,,,,,,,,,,,,,,,,,,,,,,,,,,
,,,,,,,,2023-08-16_08h47.19.772,HF_wild_card,2022.2.4,Win32,60.05645307,5f547d6418bf9a7f13fa4e83,64d2fd46c836a06233681665,64dc7f040f4bab065e53d283,,,,,,,sngl,resources/DY.BMP,resources/Empty.png,Door2,-0.21875,-0.126302083,1,0,0,0.891,optionLeft,40,4575,3,1,0,1,0,1,,,,,,,,,,,,,,,,,,,,,,,,,,,,,,,,,,,,,,,
,,,,,,,,2023-08-16_08h47.19.772,HF_wild_card,2022.2.4,Win32,60.05645307,5f547d6418bf9a7f13fa4e83,64d2fd46c836a06233681665,64dc7f040f4bab065e53d283,,,,,,,decisionTrl,resources/DG.BMP,resources/DY.BMP,Door2,0.37890625,0.022135417,1,0,0,1.3772,optionRight,20,4595,3,2,0,2,0,1,,,,,,,,,,,,,,,,,,,,,,,,,,,,,,,,,,,,,,,
,,,,,,,,2023-08-16_08h47.19.772,HF_wild_card,2022.2.4,Win32,60.05645307,5f547d6418bf9a7f13fa4e83,64d2fd46c836a06233681665,64dc7f040f4bab065e53d283,,,,,,,sngl,resources/Empty.png,resources/DBN.BMP,Door4,0.3046875,-0.0078125,1,0,0,0.9946,optionRight,60,4655,3,3,0,3,0,1,,,,,,,,,,,,,,,,,,,,,,,,,,,,,,,,,,,,,,,
,,,,,,,,2023-08-16_08h47.19.772,HF_wild_card,2022.2.4,Win32,60.05645307,5f547d6418bf9a7f13fa4e83,64d2fd46c836a06233681665,64dc7f040f4bab065e53d283,,,,,,,ctch,resources/DB.BMP,resources/DY.BMP,Door3,-0.217447917,-0.087239583,1,0,0,1.1914,optionLeft,70,4725,3,4,0,4,0,1,,,,,,,,,,,,,,,,,,,,,,,,,,,,,,,,,,,,,,,
,,,,,,,,2023-08-16_08h47.19.772,HF_wild_card,2022.2.4,Win32,60.05645307,5f547d6418bf9a7f13fa4e83,64d2fd46c836a06233681665,64dc7f040f4bab065e53d283,,,,,,,decisionTrl,resources/DY.BMP,resources/DG.BMP,Door1,0.30859375,0.022135417,1,0,0,1.3764,optionRight,30,4755,3,5,0,5,0,1,,,,,,,,,,,,,,,,,,,,,,,,,,,,,,,,,,,,,,,
,,,,,,,,2023-08-16_08h47.19.772,HF_wild_card,2022.2.4,Win32,60.05645307,5f547d6418bf9a7f13fa4e83,64d2fd46c836a06233681665,64dc7f040f4bab065e53d283,,,,,,,decisionTrl,resources/DP.BMP,resources/DBN.BMP,Door4,0.235677083,0.053385417,1,0,0,1.0104,optionRight,80,4835,3,6,0,6,0,1,,,,,,,,,,,,,,,,,,,,,,,,,,,,,,,,,,,,,,,
,,,,,,,,2023-08-16_08h47.19.772,HF_wild_card,2022.2.4,Win32,60.05645307,5f547d6418bf9a7f13fa4e83,64d2fd46c836a06233681665,64dc7f040f4bab065e53d283,,,,,,,ctch,resources/DB.BMP,resources/DY.BMP,Door3,-0.18359375,-0.080729167,1,0,0,1.2254,optionLeft,70,4905,3,7,0,7,0,1,,,,,,,,,,,,,,,,,,,,,,,,,,,,,,,,,,,,,,,
,,,,,,,,2023-08-16_08h47.19.772,HF_wild_card,2022.2.4,Win32,60.05645307,5f547d6418bf9a7f13fa4e83,64d2fd46c836a06233681665,64dc7f040f4bab065e53d283,,,,,,,sngl,resources/Empty.png,resources/DY.BMP,Door2,0.268229167,0.044270833,1,0,0,1.0096,optionRight,20,4925,3,8,0,8,0,1,,,,,,,,,,,,,,,,,,,,,,,,,,,,,,,,,,,,,,,
,,,,,,,,2023-08-16_08h47.19.772,HF_wild_card,2022.2.4,Win32,60.05645307,5f547d6418bf9a7f13fa4e83,64d2fd46c836a06233681665,64dc7f040f4bab065e53d283,,,,,,,sngl,resources/Empty.png,resources/DP.BMP,WildCard_NonEx,0.22265625,0.018229167,1,0,0,1.9774,optionRight,55,4980,3,9,0,9,0,1,,,,,,,,,,,,,,,,,,,,,,,,,,,,,,,,,,,,,,,
,,,,,,,,2023-08-16_08h47.19.772,HF_wild_card,2022.2.4,Win32,60.05645307,5f547d6418bf9a7f13fa4e83,64d2fd46c836a06233681665,64dc7f040f4bab065e53d283,,,,,,,decisionTrl,resources/DBN.BMP,resources/DB.BMP,Door4,-0.309895833,-0.040364583,1,0,0,3.9236,optionLeft,60,5040,3,10,0,10,0,1,,,,,,,,,,,,,,,,,,,,,,,,,,,,,,,,,,,,,,,
,,,,,,,,2023-08-16_08h47.19.772,HF_wild_card,2022.2.4,Win32,60.05645307,5f547d6418bf9a7f13fa4e83,64d2fd46c836a06233681665,64dc7f040f4bab065e53d283,,,,,,,decisionTrl,resources/DB.BMP,resources/DBN.BMP,Door4,0.30859375,0.036458333,1,0,0,1.655,optionRight,60,5100,3,11,0,11,0,1,,,,,,,,,,,,,,,,,,,,,,,,,,,,,,,,,,,,,,,
,,,,,,,,2023-08-16_08h47.19.772,HF_wild_card,2022.2.4,Win32,60.05645307,5f547d6418bf9a7f13fa4e83,64d2fd46c836a06233681665,64dc7f040f4bab065e53d283,,,,,,,decisionTrl,resources/DY.BMP,resources/DG.BMP,Door2,-0.248697917,-0.065104167,1,0,0,1.7413,optionLeft,40,5140,3,12,0,12,0,1,,,,,,,,,,,,,,,,,,,,,,,,,,,,,,,,,,,,,,,
,,,,,,,,2023-08-16_08h47.19.772,HF_wild_card,2022.2.4,Win32,60.05645307,5f547d6418bf9a7f13fa4e83,64d2fd46c836a06233681665,64dc7f040f4bab065e53d283,,,,,,,decisionTrl,resources/DBN.BMP,resources/DB.BMP,Door3,0.388020833,0.069010417,1,0,0,2.2912,optionRight,70,5210,3,13,0,13,0,1,,,,,,,,,,,,,,,,,,,,,,,,,,,,,,,,,,,,,,,
,,,,,,,,2023-08-16_08h47.19.772,HF_wild_card,2022.2.4,Win32,60.05645307,5f547d6418bf9a7f13fa4e83,64d2fd46c836a06233681665,64dc7f040f4bab065e53d283,,,,,,,decisionTrl,resources/DP.BMP,resources/DB.BMP,Door3,0.157552083,0.010416667,1,0,0,1.7261,optionRight,70,5280,3,14,0,14,0,1,,,,,,,,,,,,,,,,,,,,,,,,,,,,,,,,,,,,,,,
,,,,,,,,2023-08-16_08h47.19.772,HF_wild_card,2022.2.4,Win32,60.05645307,5f547d6418bf9a7f13fa4e83,64d2fd46c836a06233681665,64dc7f040f4bab065e53d283,,,,,,,sngl,resources/Empty.png,resources/DP.BMP,WildCard_NonEx,0.30859375,-0.028645833,1,0,0,2.3072,optionRight,45,5325,3,15,0,15,0,1,,,,,,,,,,,,,,,,,,,,,,,,,,,,,,,,,,,,,,,
,,,,,,,,2023-08-16_08h47.19.772,HF_wild_card,2022.2.4,Win32,60.05645307,5f547d6418bf9a7f13fa4e83,64d2fd46c836a06233681665,64dc7f040f4bab065e53d283,,,,,,,ctch,resources/DBN.BMP,resources/DG.BMP,Door4,-0.25,-0.02734375,1,0,0,1.0412,optionLeft,80,5405,3,16,0,16,0,1,,,,,,,,,,,,,,,,,,,,,,,,,,,,,,,,,,,,,,,
,,,,,,,,2023-08-16_08h47.19.772,HF_wild_card,2022.2.4,Win32,60.05645307,5f547d6418bf9a7f13fa4e83,64d2fd46c836a06233681665,64dc7f040f4bab065e53d283,,,,,,,sngl,resources/Empty.png,resources/DG.BMP,Door1,0.317708333,0.03515625,1,0,0,1.3381,optionRight,30,5435,3,17,0,17,0,1,,,,,,,,,,,,,,,,,,,,,,,,,,,,,,,,,,,,,,,
,,,,,,,,2023-08-16_08h47.19.772,HF_wild_card,2022.2.4,Win32,60.05645307,5f547d6418bf9a7f13fa4e83,64d2fd46c836a06233681665,64dc7f040f4bab065e53d283,,,,,,,sngl,resources/DG.BMP,resources/Empty.png,Door1,-0.217447917,-0.015625,1,0,0,1.1644,optionLeft,30,5465,3,18,0,18,0,1,,,,,,,,,,,,,,,,,,,,,,,,,,,,,,,,,,,,,,,
,,,,,,,,2023-08-16_08h47.19.772,HF_wild_card,2022.2.4,Win32,60.05645307,5f547d6418bf9a7f13fa4e83,64d2fd46c836a06233681665,64dc7f040f4bab065e53d283,,,,,,,sngl,resources/DB.BMP,resources/Empty.png,Door3,-0.30078125,-0.037760417,1,0,0,2.2468,optionLeft,70,5535,3,19,0,19,0,1,,,,,,,,,,,,,,,,,,,,,,,,,,,,,,,,,,,,,,,
,,,,,,,,2023-08-16_08h47.19.772,HF_wild_card,2022.2.4,Win32,60.05645307,5f547d6418bf9a7f13fa4e83,64d2fd46c836a06233681665,64dc7f040f4bab065e53d283,,,,,,,decisionTrl,resources/DP.BMP,resources/DY.BMP,WildCard_NonEx,-0.216145833,-0.0625,1,0,0,1.6588,optionLeft,45,5580,3,20,0,20,0,1,,,,,,,,,,,,,,,,,,,,,,,,,,,,,,,,,,,,,,,
,,,,,,,,2023-08-16_08h47.19.772,HF_wild_card,2022.2.4,Win32,60.05645307,5f547d6418bf9a7f13fa4e83,64d2fd46c836a06233681665,64dc7f040f4bab065e53d283,,,,,,,decisionTrl,resources/DG.BMP,resources/DY.BMP,Door1,-0.240885417,-0.03125,1,0,0,16.9897,optionLeft,30,5610,3,21,0,21,0,1,,,,,,,,,,,,,,,,,,,,,,,,,,,,,,,,,,,,,,,
,,,,,,,,2023-08-16_08h47.19.772,HF_wild_card,2022.2.4,Win32,60.05645307,5f547d6418bf9a7f13fa4e83,64d2fd46c836a06233681665,64dc7f040f4bab065e53d283,,,,,,,decisionTrl,resources/DBN.BMP,resources/DB.BMP,Door4,-0.236979167,-0.055989583,1,0,0,1.0265,optionLeft,80,5690,3,22,0,22,0,1,,,,,,,,,,,,,,,,,,,,,,,,,,,,,,,,,,,,,,,
,,,,,,,,2023-08-16_08h47.19.772,HF_wild_card,2022.2.4,Win32,60.05645307,5f547d6418bf9a7f13fa4e83,64d2fd46c836a06233681665,64dc7f040f4bab065e53d283,,,,,,,decisionTrl,resources/DB.BMP,resources/DBN.BMP,Door4,0.221354167,0.088541667,1,0,0,1.3254,optionRight,60,5750,3,23,0,23,0,1,,,,,,,,,,,,,,,,,,,,,,,,,,,,,,,,,,,,,,,
,,,,,,,,2023-08-16_08h47.19.772,HF_wild_card,2022.2.4,Win32,60.05645307,5f547d6418bf9a7f13fa4e83,64d2fd46c836a06233681665,64dc7f040f4bab065e53d283,,,,,,,ctch,resources/DG.BMP,resources/DBN.BMP,Door4,0.30078125,0.098958333,1,0,0,1.1275,optionRight,60,5810,3,24,0,24,0,1,,,,,,,,,,,,,,,,,,,,,,,,,,,,,,,,,,,,,,,
,,,,,,,,2023-08-16_08h47.19.772,HF_wild_card,2022.2.4,Win32,60.05645307,5f547d6418bf9a7f13fa4e83,64d2fd46c836a06233681665,64dc7f040f4bab065e53d283,,,,,,,decisionTrl,resources/DBN.BMP,resources/DP.BMP,Door4,-0.154947917,-0.033854167,1,0,0,1.1946,optionLeft,80,5890,3,25,0,25,0,1,,,,,,,,,,,,,,,,,,,,,,,,,,,,,,,,,,,,,,,
,,,,,,,,2023-08-16_08h47.19.772,HF_wild_card,2022.2.4,Win32,60.05645307,5f547d6418bf9a7f13fa4e83,64d2fd46c836a06233681665,64dc7f040f4bab065e53d283,,,,,,,ctch,resources/DBN.BMP,resources/DG.BMP,Door4,-0.227864583,-0.041666667,1,0,0,1.0263,optionLeft,60,5950,3,26,0,26,0,1,,,,,,,,,,,,,,,,,,,,,,,,,,,,,,,,,,,,,,,
,,,,,,,,2023-08-16_08h47.19.772,HF_wild_card,2022.2.4,Win32,60.05645307,5f547d6418bf9a7f13fa4e83,64d2fd46c836a06233681665,64dc7f040f4bab065e53d283,,,,,,,decisionTrl,resources/DB.BMP,resources/DBN.BMP,Door4,0.352864583,0.100260417,1,0,0,1.1554,optionRight,80,6030,3,27,0,27,0,1,,,,,,,,,,,,,,,,,,,,,,,,,,,,,,,,,,,,,,,
,,,,,,,,2023-08-16_08h47.19.772,HF_wild_card,2022.2.4,Win32,60.05645307,5f547d6418bf9a7f13fa4e83,64d2fd46c836a06233681665,64dc7f040f4bab065e53d283,,,,,,,decisionTrl,resources/DG.BMP,resources/DP.BMP,WildCard_NonEx,0.1953125,0.024739583,1,0,0,1.2408,optionRight,45,6075,3,28,0,28,0,1,,,,,,,,,,,,,,,,,,,,,,,,,,,,,,,,,,,,,,,
,,,,,,,,2023-08-16_08h47.19.772,HF_wild_card,2022.2.4,Win32,60.05645307,5f547d6418bf9a7f13fa4e83,64d2fd46c836a06233681665,64dc7f040f4bab065e53d283,,,,,,,sngl,resources/DP.BMP,resources/Empty.png,WildCard_NonEx,-0.213541667,-0.0546875,1,0,0,1.0893,optionLeft,45,6120,3,29,0,29,0,1,,,,,,,,,,,,,,,,,,,,,,,,,,,,,,,,,,,,,,,
,,,,,,,,2023-08-16_08h47.19.772,HF_wild_card,2022.2.4,Win32,60.05645307,5f547d6418bf9a7f13fa4e83,64d2fd46c836a06233681665,64dc7f040f4bab065e53d283,,,,,,,decisionTrl,resources/DBN.BMP,resources/DB.BMP,Door4,-0.161458333,-0.04296875,1,0,0,1.007,optionLeft,80,6200,3,30,0,30,0,1,,,,,,,,,,,,,,,,,,,,,,,,,,,,,,,,,,,,,,,
,,,,,,,,2023-08-16_08h47.19.772,HF_wild_card,2022.2.4,Win32,60.05645307,5f547d6418bf9a7f13fa4e83,64d2fd46c836a06233681665,64dc7f040f4bab065e53d283,,,,,,,ctch,resources/DG.BMP,resources/DBN.BMP,Door4,0.352864583,0.092447917,1,0,0,0.9767,optionRight,80,6280,3,31,0,31,0,1,,,,,,,,,,,,,,,,,,,,,,,,,,,,,,,,,,,,,,,
,,,,,,,,2023-08-16_08h47.19.772,HF_wild_card,2022.2.4,Win32,60.05645307,5f547d6418bf9a7f13fa4e83,64d2fd46c836a06233681665,64dc7f040f4bab065e53d283,,,,,,,decisionTrl,resources/DG.BMP,resources/DY.BMP,Door1,-0.145833333,-0.015625,1,0,0,1.8747,optionLeft,30,6310,3,32,0,32,0,1,,,,,,,,,,,,,,,,,,,,,,,,,,,,,,,,,,,,,,,
,,,,,,,,2023-08-16_08h47.19.772,HF_wild_card,2022.2.4,Win32,60.05645307,5f547d6418bf9a7f13fa4e83,64d2fd46c836a06233681665,64dc7f040f4bab065e53d283,,,,,,,sngl,resources/DP.BMP,resources/Empty.png,WildCard_NonEx,-0.165364583,-0.024739583,1,0,0,0.9231,optionLeft,55,6365,3,33,0,33,0,1,,,,,,,,,,,,,,,,,,,,,,,,,,,,,,,,,,,,,,,
,,,,,,,,2023-08-16_08h47.19.772,HF_wild_card,2022.2.4,Win32,60.05645307,5f547d6418bf9a7f13fa4e83,64d2fd46c836a06233681665,64dc7f040f4bab065e53d283,,,,,,,sngl,resources/Empty.png,resources/DB.BMP,Door3,0.251302083,0.032552083,1,0,0,1.0662,optionRight,70,6435,3,34,0,34,0,1,,,,,,,,,,,,,,,,,,,,,,,,,,,,,,,,,,,,,,,
,,,,,,,,2023-08-16_08h47.19.772,HF_wild_card,2022.2.4,Win32,60.05645307,5f547d6418bf9a7f13fa4e83,64d2fd46c836a06233681665,64dc7f040f4bab065e53d283,,,,,,,decisionTrl,resources/DP.BMP,resources/DG.BMP,Door1,0.239583333,0.028645833,1,0,0,1.8457,optionRight,30,6465,3,35,0,35,0,1,,,,,,,,,,,,,,,,,,,,,,,,,,,,,,,,,,,,,,,
,,,,,,,,2023-08-16_08h47.19.772,HF_wild_card,2022.2.4,Win32,60.05645307,5f547d6418bf9a7f13fa4e83,64d2fd46c836a06233681665,64dc7f040f4bab065e53d283,,,,,,,decisionTrl,resources/DY.BMP,resources/DG.BMP,Door2,-0.233072917,-0.076822917,1,0,0,1.3199,optionLeft,40,6505,3,36,0,36,0,1,,,,,,,,,,,,,,,,,,,,,,,,,,,,,,,,,,,,,,,
,,,,,,,,2023-08-16_08h47.19.772,HF_wild_card,2022.2.4,Win32,60.05645307,5f547d6418bf9a7f13fa4e83,64d2fd46c836a06233681665,64dc7f040f4bab065e53d283,,,,,,,decisionTrl,resources/DY.BMP,resources/DP.BMP,Door2,-0.19140625,-0.063802083,1,0,0,2.0935,optionLeft,40,6545,3,37,0,37,0,1,,,,,,,,,,,,,,,,,,,,,,,,,,,,,,,,,,,,,,,
,,,,,,,,2023-08-16_08h47.19.772,HF_wild_card,2022.2.4,Win32,60.05645307,5f547d6418bf9a7f13fa4e83,64d2fd46c836a06233681665,64dc7f040f4bab065e53d283,,,,,,,ctch,resources/DY.BMP,resources/DB.BMP,Door3,0.266927083,0.005208333,1,0,0,1.778,optionRight,70,6615,3,38,0,38,0,1,,,,,,,,,,,,,,,,,,,,,,,,,,,,,,,,,,,,,,,
,,,,,,,,2023-08-16_08h47.19.772,HF_wild_card,2022.2.4,Win32,60.05645307,5f547d6418bf9a7f13fa4e83,64d2fd46c836a06233681665,64dc7f040f4bab065e53d283,,,,,,,decisionTrl,resources/DY.BMP,resources/DG.BMP,Door1,0.234375,0.01171875,1,0,0,4.6285,optionRight,30,6645,3,39,0,39,0,1,,,,,,,,,,,,,,,,,,,,,,,,,,,,,,,,,,,,,,,
,,,,,,,,2023-08-16_08h47.19.772,HF_wild_card,2022.2.4,Win32,60.05645307,5f547d6418bf9a7f13fa4e83,64d2fd46c836a06233681665,64dc7f040f4bab065e53d283,,,,,,,ctch,resources/DY.BMP,resources/DB.BMP,Door3,0.260416667,-0.01171875,1,0,0,1.1611,optionRight,70,6715,3,40,0,40,0,1,,,,,,,,,,,,,,,,,,,,,,,,,,,,,,,,,,,,,,,
,,,,,,,,2023-08-16_08h47.19.772,HF_wild_card,2022.2.4,Win32,60.05645307,5f547d6418bf9a7f13fa4e83,64d2fd46c836a06233681665,64dc7f040f4bab065e53d283,,,,,,,sngl,resources/DBN.BMP,resources/Empty.png,Door4,-0.173177083,-0.0546875,1,0,0,0.9444,optionLeft,80,6795,3,41,0,41,0,1,,,,,,,,,,,,,,,,,,,,,,,,,,,,,,,,,,,,,,,
,,,,,,,,2023-08-16_08h47.19.772,HF_wild_card,2022.2.4,Win32,60.05645307,5f547d6418bf9a7f13fa4e83,64d2fd46c836a06233681665,64dc7f040f4bab065e53d283,,,,,,,decisionTrl,resources/DB.BMP,resources/DBN.BMP,Door3,-0.19140625,-0.040364583,1,0,0,1.7427,optionLeft,70,6865,3,42,0,42,0,1,,,,,,,,,,,,,,,,,,,,,,,,,,,,,,,,,,,,,,,
,,,,,,,,2023-08-16_08h47.19.772,HF_wild_card,2022.2.4,Win32,60.05645307,5f547d6418bf9a7f13fa4e83,64d2fd46c836a06233681665,64dc7f040f4bab065e53d283,,,,,,,decisionTrl,resources/DB.BMP,resources/DP.BMP,Door3,-0.170572917,-0.028645833,1,0,0,1.3175,optionLeft,70,6935,3,43,0,43,0,1,,,,,,,,,,,,,,,,,,,,,,,,,,,,,,,,,,,,,,,
,,,,,,,,2023-08-16_08h47.19.772,HF_wild_card,2022.2.4,Win32,60.05645307,5f547d6418bf9a7f13fa4e83,64d2fd46c836a06233681665,64dc7f040f4bab065e53d283,,,,,,,,,,,,,,,,,,,,,,,,,,2,0,2,0,1,,,,,,,,,,,,,,,,,,,,,,,,,,,,,,,,,,
,,,,,,,,2023-08-16_08h47.19.772,HF_wild_card,2022.2.4,Win32,60.05645307,5f547d6418bf9a7f13fa4e83,64d2fd46c836a06233681665,64dc7f040f4bab065e53d283,,,,,,,decisionTrl,resources/DBN.BMP,resources/DR.BMP,WildCard_Ex,0.298177083,-0.18359375,1,0,0,1.5376,optionRight,95,7030,4,0,0,0,0,1,,,,,,,,,,,,,,,,,,,,,,,,,,,,,,,,,,,,,,,
,,,,,,,,2023-08-16_08h47.19.772,HF_wild_card,2022.2.4,Win32,60.05645307,5f547d6418bf9a7f13fa4e83,64d2fd46c836a06233681665,64dc7f040f4bab065e53d283,,,,,,,decisionTrl,resources/DG.BMP,resources/DY.BMP,Door1,-0.359375,-0.0703125,1,0,0,1.1756,optionLeft,30,7060,4,1,0,1,0,1,,,,,,,,,,,,,,,,,,,,,,,,,,,,,,,,,,,,,,,
,,,,,,,,2023-08-16_08h47.19.772,HF_wild_card,2022.2.4,Win32,60.05645307,5f547d6418bf9a7f13fa4e83,64d2fd46c836a06233681665,64dc7f040f4bab065e53d283,,,,,,,decisionTrl,resources/DB.BMP,resources/DBN.BMP,Door4,0.31640625,0.040364583,1,0,0,1.3222,optionRight,80,7140,4,2,0,2,0,1,,,,,,,,,,,,,,,,,,,,,,,,,,,,,,,,,,,,,,,
,,,,,,,,2023-08-16_08h47.19.772,HF_wild_card,2022.2.4,Win32,60.05645307,5f547d6418bf9a7f13fa4e83,64d2fd46c836a06233681665,64dc7f040f4bab065e53d283,,,,,,,sngl,resources/DY.BMP,resources/Empty.png,Door2,-0.376302083,-0.1171875,1,0,0,0.9227,optionLeft,20,7160,4,3,0,3,0,1,,,,,,,,,,,,,,,,,,,,,,,,,,,,,,,,,,,,,,,
,,,,,,,,2023-08-16_08h47.19.772,HF_wild_card,2022.2.4,Win32,60.05645307,5f547d6418bf9a7f13fa4e83,64d2fd46c836a06233681665,64dc7f040f4bab065e53d283,,,,,,,sngl,resources/Empty.png,resources/DBN.BMP,Door4,0.33203125,0.03515625,1,0,0,0.8575,optionRight,80,7240,4,4,0,4,0,1,,,,,,,,,,,,,,,,,,,,,,,,,,,,,,,,,,,,,,,
,,,,,,,,2023-08-16_08h47.19.772,HF_wild_card,2022.2.4,Win32,60.05645307,5f547d6418bf9a7f13fa4e83,64d2fd46c836a06233681665,64dc7f040f4bab065e53d283,,,,,,,decisionTrl,resources/DBN.BMP,resources/DB.BMP,Door4,-0.203125,-0.040364583,1,0,0,1.0426,optionLeft,60,7300,4,5,0,5,0,1,,,,,,,,,,,,,,,,,,,,,,,,,,,,,,,,,,,,,,,
,,,,,,,,2023-08-16_08h47.19.772,HF_wild_card,2022.2.4,Win32,60.05645307,5f547d6418bf9a7f13fa4e83,64d2fd46c836a06233681665,64dc7f040f4bab065e53d283,,,,,,,ctch,resources/DBN.BMP,resources/DG.BMP,Door4,-0.170572917,-0.020833333,1,0,0,0.9594,optionLeft,80,7380,4,6,0,6,0,1,,,,,,,,,,,,,,,,,,,,,,,,,,,,,,,,,,,,,,,
,,,,,,,,2023-08-16_08h47.19.772,HF_wild_card,2022.2.4,Win32,60.05645307,5f547d6418bf9a7f13fa4e83,64d2fd46c836a06233681665,64dc7f040f4bab065e53d283,,,,,,,decisionTrl,resources/DB.BMP,resources/DR.BMP,WildCard_Ex,0.33203125,0.026041667,1,0,0,0.8622,optionRight,5,7385,4,7,0,7,0,1,,,,,,,,,,,,,,,,,,,,,,,,,,,,,,,,,,,,,,,
,,,,,,,,2023-08-16_08h47.19.772,HF_wild_card,2022.2.4,Win32,60.05645307,5f547d6418bf9a7f13fa4e83,64d2fd46c836a06233681665,64dc7f040f4bab065e53d283,,,,,,,sngl,resources/Empty.png,resources/DY.BMP,Door2,0.278645833,0.026041667,1,0,0,0.892,optionRight,40,7425,4,8,0,8,0,1,,,,,,,,,,,,,,,,,,,,,,,,,,,,,,,,,,,,,,,
,,,,,,,,2023-08-16_08h47.19.772,HF_wild_card,2022.2.4,Win32,60.05645307,5f547d6418bf9a7f13fa4e83,64d2fd46c836a06233681665,64dc7f040f4bab065e53d283,,,,,,,decisionTrl,resources/DY.BMP,resources/DR.BMP,WildCard_Ex,0.364583333,0.06640625,1,0,0,0.858,optionRight,5,7430,4,9,0,9,0,1,,,,,,,,,,,,,,,,,,,,,,,,,,,,,,,,,,,,,,,
,,,,,,,,2023-08-16_08h47.19.772,HF_wild_card,2022.2.4,Win32,60.05645307,5f547d6418bf9a7f13fa4e83,64d2fd46c836a06233681665,64dc7f040f4bab065e53d283,,,,,,,decisionTrl,resources/DBN.BMP,resources/DB.BMP,Door4,-0.200520833,-0.006510417,1,0,0,1.0243,optionLeft,80,7510,4,10,0,10,0,1,,,,,,,,,,,,,,,,,,,,,,,,,,,,,,,,,,,,,,,
,,,,,,,,2023-08-16_08h47.19.772,HF_wild_card,2022.2.4,Win32,60.05645307,5f547d6418bf9a7f13fa4e83,64d2fd46c836a06233681665,64dc7f040f4bab065e53d283,,,,,,,decisionTrl,resources/DBN.BMP,resources/DB.BMP,Door4,-0.134114583,-0.013020833,1,0,0,0.8752,optionLeft,80,7590,4,11,0,11,0,1,,,,,,,,,,,,,,,,,,,,,,,,,,,,,,,,,,,,,,,
,,,,,,,,2023-08-16_08h47.19.772,HF_wild_card,2022.2.4,Win32,60.05645307,5f547d6418bf9a7f13fa4e83,64d2fd46c836a06233681665,64dc7f040f4bab065e53d283,,,,,,,decisionTrl,resources/DY.BMP,resources/DG.BMP,Door2,-0.244791667,-0.028645833,1,0,0,1.0743,optionLeft,20,7610,4,12,0,12,0,1,,,,,,,,,,,,,,,,,,,,,,,,,,,,,,,,,,,,,,,
,,,,,,,,2023-08-16_08h47.19.772,HF_wild_card,2022.2.4,Win32,60.05645307,5f547d6418bf9a7f13fa4e83,64d2fd46c836a06233681665,64dc7f040f4bab065e53d283,,,,,,,sngl,resources/DR.BMP,resources/Empty.png,WildCard_Ex,-0.20703125,0,1,0,0,0.8917,optionLeft,95,7705,4,13,0,13,0,1,,,,,,,,,,,,,,,,,,,,,,,,,,,,,,,,,,,,,,,
,,,,,,,,2023-08-16_08h47.19.772,HF_wild_card,2022.2.4,Win32,60.05645307,5f547d6418bf9a7f13fa4e83,64d2fd46c836a06233681665,64dc7f040f4bab065e53d283,,,,,,,sngl,resources/DG.BMP,resources/Empty.png,Door1,-0.243489583,-0.0078125,1,0,0,0.8907,optionLeft,30,7735,4,14,0,14,0,1,,,,,,,,,,,,,,,,,,,,,,,,,,,,,,,,,,,,,,,
,,,,,,,,2023-08-16_08h47.19.772,HF_wild_card,2022.2.4,Win32,60.05645307,5f547d6418bf9a7f13fa4e83,64d2fd46c836a06233681665,64dc7f040f4bab065e53d283,,,,,,,ctch,resources/DB.BMP,resources/DY.BMP,Door3,-0.235677083,-0.032552083,1,0,0,1.1942,optionLeft,70,7805,4,15,0,15,0,1,,,,,,,,,,,,,,,,,,,,,,,,,,,,,,,,,,,,,,,
,,,,,,,,2023-08-16_08h47.19.772,HF_wild_card,2022.2.4,Win32,60.05645307,5f547d6418bf9a7f13fa4e83,64d2fd46c836a06233681665,64dc7f040f4bab065e53d283,,,,,,,sngl,resources/Empty.png,resources/DR.BMP,WildCard_Ex,0.216145833,0.009114583,1,0,0,0.8413,optionRight,5,7810,4,16,0,16,0,1,,,,,,,,,,,,,,,,,,,,,,,,,,,,,,,,,,,,,,,
,,,,,,,,2023-08-16_08h47.19.772,HF_wild_card,2022.2.4,Win32,60.05645307,5f547d6418bf9a7f13fa4e83,64d2fd46c836a06233681665,64dc7f040f4bab065e53d283,,,,,,,decisionTrl,resources/DR.BMP,resources/DG.BMP,WildCard_Ex,-0.259114583,-0.032552083,1,0,0,0.8072,optionLeft,95,7905,4,17,0,17,0,1,,,,,,,,,,,,,,,,,,,,,,,,,,,,,,,,,,,,,,,
,,,,,,,,2023-08-16_08h47.19.772,HF_wild_card,2022.2.4,Win32,60.05645307,5f547d6418bf9a7f13fa4e83,64d2fd46c836a06233681665,64dc7f040f4bab065e53d283,,,,,,,sngl,resources/Empty.png,resources/DG.BMP,Door1,0.307291667,0.05078125,1,0,0,0.8254,optionRight,30,7935,4,18,0,18,0,1,,,,,,,,,,,,,,,,,,,,,,,,,,,,,,,,,,,,,,,
,,,,,,,,2023-08-16_08h47.19.772,HF_wild_card,2022.2.4,Win32,60.05645307,5f547d6418bf9a7f13fa4e83,64d2fd46c836a06233681665,64dc7f040f4bab065e53d283,,,,,,,ctch,resources/DY.BMP,resources/DB.BMP,Door2,-0.170572917,-0.0078125,1,0,0,0.792,optionLeft,40,7975,4,19,0,19,0,1,,,,,,,,,,,,,,,,,,,,,,,,,,,,,,,,,,,,,,,
,,,,,,,,2023-08-16_08h47.19.772,HF_wild_card,2022.2.4,Win32,60.05645307,5f547d6418bf9a7f13fa4e83,64d2fd46c836a06233681665,64dc7f040f4bab065e53d283,,,,,,,decisionTrl,resources/DB.BMP,resources/DBN.BMP,Door3,-0.166666667,-0.020833333,1,0,0,0.8083,optionLeft,70,8045,4,20,0,20,0,1,,,,,,,,,,,,,,,,,,,,,,,,,,,,,,,,,,,,,,,
,,,,,,,,2023-08-16_08h47.19.772,HF_wild_card,2022.2.4,Win32,60.05645307,5f547d6418bf9a7f13fa4e83,64d2fd46c836a06233681665,64dc7f040f4bab065e53d283,,,,,,,decisionTrl,resources/DB.BMP,resources/DBN.BMP,Door4,0.403645833,0.151041667,1,0,0,0.8454,optionRight,80,8125,4,21,0,21,0,1,,,,,,,,,,,,,,,,,,,,,,,,,,,,,,,,,,,,,,,
,,,,,,,,2023-08-16_08h47.19.772,HF_wild_card,2022.2.4,Win32,60.05645307,5f547d6418bf9a7f13fa4e83,64d2fd46c836a06233681665,64dc7f040f4bab065e53d283,,,,,,,decisionTrl,resources/DG.BMP,resources/DY.BMP,Door1,-0.295572917,-0.022135417,1,0,0,1.2084,optionLeft,30,8155,4,22,0,22,0,1,,,,,,,,,,,,,,,,,,,,,,,,,,,,,,,,,,,,,,,
,,,,,,,,2023-08-16_08h47.19.772,HF_wild_card,2022.2.4,Win32,60.05645307,5f547d6418bf9a7f13fa4e83,64d2fd46c836a06233681665,64dc7f040f4bab065e53d283,,,,,,,decisionTrl,resources/DR.BMP,resources/DBN.BMP,Door4,0.270833333,0.114583333,1,0,0,1.1951,optionRight,80,8235,4,23,0,23,0,1,,,,,,,,,,,,,,,,,,,,,,,,,,,,,,,,,,,,,,,
,,,,,,,,2023-08-16_08h47.19.772,HF_wild_card,2022.2.4,Win32,60.05645307,5f547d6418bf9a7f13fa4e83,64d2fd46c836a06233681665,64dc7f040f4bab065e53d283,,,,,,,decisionTrl,resources/DR.BMP,resources/DB.BMP,Door3,0.270833333,0.104166667,1,0,0,1.245,optionRight,70,8305,4,24,0,24,0,1,,,,,,,,,,,,,,,,,,,,,,,,,,,,,,,,,,,,,,,
,,,,,,,,2023-08-16_08h47.19.772,HF_wild_card,2022.2.4,Win32,60.05645307,5f547d6418bf9a7f13fa4e83,64d2fd46c836a06233681665,64dc7f040f4bab065e53d283,,,,,,,decisionTrl,resources/DG.BMP,resources/DR.BMP,WildCard_Ex,0.319010417,0.098958333,1,0,0,0.845,optionRight,95,8400,4,25,0,25,0,1,,,,,,,,,,,,,,,,,,,,,,,,,,,,,,,,,,,,,,,
,,,,,,,,2023-08-16_08h47.19.772,HF_wild_card,2022.2.4,Win32,60.05645307,5f547d6418bf9a7f13fa4e83,64d2fd46c836a06233681665,64dc7f040f4bab065e53d283,,,,,,,sngl,resources/DBN.BMP,resources/Empty.png,Door4,-0.32421875,-0.01171875,1,0,0,0.8275,optionLeft,60,8460,4,26,0,26,0,1,,,,,,,,,,,,,,,,,,,,,,,,,,,,,,,,,,,,,,,
,,,,,,,,2023-08-16_08h47.19.772,HF_wild_card,2022.2.4,Win32,60.05645307,5f547d6418bf9a7f13fa4e83,64d2fd46c836a06233681665,64dc7f040f4bab065e53d283,,,,,,,decisionTrl,resources/DY.BMP,resources/DG.BMP,Door2,-0.334635417,-0.015625,1,0,0,1.0442,optionLeft,40,8500,4,27,0,27,0,1,,,,,,,,,,,,,,,,,,,,,,,,,,,,,,,,,,,,,,,
,,,,,,,,2023-08-16_08h47.19.772,HF_wild_card,2022.2.4,Win32,60.05645307,5f547d6418bf9a7f13fa4e83,64d2fd46c836a06233681665,64dc7f040f4bab065e53d283,,,,,,,ctch,resources/DY.BMP,resources/DB.BMP,Door3,0.173177083,0.048177083,1,0,0,0.9124,optionRight,70,8570,4,28,0,28,0,1,,,,,,,,,,,,,,,,,,,,,,,,,,,,,,,,,,,,,,,
,,,,,,,,2023-08-16_08h47.19.772,HF_wild_card,2022.2.4,Win32,60.05645307,5f547d6418bf9a7f13fa4e83,64d2fd46c836a06233681665,64dc7f040f4bab065e53d283,,,,,,,sngl,resources/Empty.png,resources/DB.BMP,Door3,0.27734375,0.069010417,1,0,0,0.8594,optionRight,70,8640,4,29,0,29,0,1,,,,,,,,,,,,,,,,,,,,,,,,,,,,,,,,,,,,,,,
,,,,,,,,2023-08-16_08h47.19.772,HF_wild_card,2022.2.4,Win32,60.05645307,5f547d6418bf9a7f13fa4e83,64d2fd46c836a06233681665,64dc7f040f4bab065e53d283,,,,,,,ctch,resources/DG.BMP,resources/DBN.BMP,Door4,0.315104167,0.157552083,1,0,0,1.0574,optionRight,80,8720,4,30,0,30,0,1,,,,,,,,,,,,,,,,,,,,,,,,,,,,,,,,,,,,,,,
,,,,,,,,2023-08-16_08h47.19.772,HF_wild_card,2022.2.4,Win32,60.05645307,5f547d6418bf9a7f13fa4e83,64d2fd46c836a06233681665,64dc7f040f4bab065e53d283,,,,,,,decisionTrl,resources/DB.BMP,resources/DBN.BMP,Door4,0.34375,0.170572917,1,0,0,0.9777,optionRight,60,8780,4,31,0,31,0,1,,,,,,,,,,,,,,,,,,,,,,,,,,,,,,,,,,,,,,,
,,,,,,,,2023-08-16_08h47.19.772,HF_wild_card,2022.2.4,Win32,60.05645307,5f547d6418bf9a7f13fa4e83,64d2fd46c836a06233681665,64dc7f040f4bab065e53d283,,,,,,,ctch,resources/DB.BMP,resources/DY.BMP,Door3,-0.20703125,0.002604167,1,0,0,1.3763,optionLeft,70,8850,4,32,0,32,0,1,,,,,,,,,,,,,,,,,,,,,,,,,,,,,,,,,,,,,,,
,,,,,,,,2023-08-16_08h47.19.772,HF_wild_card,2022.2.4,Win32,60.05645307,5f547d6418bf9a7f13fa4e83,64d2fd46c836a06233681665,64dc7f040f4bab065e53d283,,,,,,,decisionTrl,resources/DBN.BMP,resources/DB.BMP,Door4,-0.165364583,-0.009114583,1,0,0,0.8922,optionLeft,60,8910,4,33,0,33,0,1,,,,,,,,,,,,,,,,,,,,,,,,,,,,,,,,,,,,,,,
,,,,,,,,2023-08-16_08h47.19.772,HF_wild_card,2022.2.4,Win32,60.05645307,5f547d6418bf9a7f13fa4e83,64d2fd46c836a06233681665,64dc7f040f4bab065e53d283,,,,,,,ctch,resources/DBN.BMP,resources/DG.BMP,Door4,-0.240885417,-0.014322917,1,0,0,0.8766,optionLeft,80,8990,4,34,0,34,0,1,,,,,,,,,,,,,,,,,,,,,,,,,,,,,,,,,,,,,,,
,,,,,,,,2023-08-16_08h47.19.772,HF_wild_card,2022.2.4,Win32,60.05645307,5f547d6418bf9a7f13fa4e83,64d2fd46c836a06233681665,64dc7f040f4bab065e53d283,,,,,,,decisionTrl,resources/DG.BMP,resources/DY.BMP,Door1,-0.244791667,0.005208333,1,0,0,2.2605,optionLeft,30,9020,4,35,0,35,0,1,,,,,,,,,,,,,,,,,,,,,,,,,,,,,,,,,,,,,,,
,,,,,,,,2023-08-16_08h47.19.772,HF_wild_card,2022.2.4,Win32,60.05645307,5f547d6418bf9a7f13fa4e83,64d2fd46c836a06233681665,64dc7f040f4bab065e53d283,,,,,,,decisionTrl,resources/DR.BMP,resources/DY.BMP,Door2,0.27734375,0.088541667,1,0,0,1.5787,optionRight,20,9040,4,36,0,36,0,1,,,,,,,,,,,,,,,,,,,,,,,,,,,,,,,,,,,,,,,
,,,,,,,,2023-08-16_08h47.19.772,HF_wild_card,2022.2.4,Win32,60.05645307,5f547d6418bf9a7f13fa4e83,64d2fd46c836a06233681665,64dc7f040f4bab065e53d283,,,,,,,sngl,resources/Empty.png,resources/DR.BMP,WildCard_Ex,0.28125,0.006510417,1,0,0,1.2937,optionRight,95,9135,4,37,0,37,0,1,,,,,,,,,,,,,,,,,,,,,,,,,,,,,,,,,,,,,,,
,,,,,,,,2023-08-16_08h47.19.772,HF_wild_card,2022.2.4,Win32,60.05645307,5f547d6418bf9a7f13fa4e83,64d2fd46c836a06233681665,64dc7f040f4bab065e53d283,,,,,,,decisionTrl,resources/DY.BMP,resources/DG.BMP,Door2,-0.20703125,0.001302083,1,0,0,1.1922,optionLeft,40,9175,4,38,0,38,0,1,,,,,,,,,,,,,,,,,,,,,,,,,,,,,,,,,,,,,,,
,,,,,,,,2023-08-16_08h47.19.772,HF_wild_card,2022.2.4,Win32,60.05645307,5f547d6418bf9a7f13fa4e83,64d2fd46c836a06233681665,64dc7f040f4bab065e53d283,,,,,,,ctch,resources/DG.BMP,resources/DBN.BMP,Door4,0.2890625,0.065104167,1,0,0,0.9774,optionRight,80,9255,4,39,0,39,0,1,,,,,,,,,,,,,,,,,,,,,,,,,,,,,,,,,,,,,,,
,,,,,,,,2023-08-16_08h47.19.772,HF_wild_card,2022.2.4,Win32,60.05645307,5f547d6418bf9a7f13fa4e83,64d2fd46c836a06233681665,64dc7f040f4bab065e53d283,,,,,,,decisionTrl,resources/DG.BMP,resources/DY.BMP,Door2,0.321614583,0.044270833,1,0,0,1.977,optionRight,40,9295,4,40,0,40,0,1,,,,,,,,,,,,,,,,,,,,,,,,,,,,,,,,,,,,,,,
,,,,,,,,2023-08-16_08h47.19.772,HF_wild_card,2022.2.4,Win32,60.05645307,5f547d6418bf9a7f13fa4e83,64d2fd46c836a06233681665,64dc7f040f4bab065e53d283,,,,,,,decisionTrl,resources/DY.BMP,resources/DG.BMP,Door2,-0.229166667,-0.00390625,1,0,0,1.0643,optionLeft,40,9335,4,41,0,41,0,1,,,,,,,,,,,,,,,,,,,,,,,,,,,,,,,,,,,,,,,
,,,,,,,,2023-08-16_08h47.19.772,HF_wild_card,2022.2.4,Win32,60.05645307,5f547d6418bf9a7f13fa4e83,64d2fd46c836a06233681665,64dc7f040f4bab065e53d283,,,,,,,sngl,resources/DR.BMP,resources/Empty.png,WildCard_Ex,-0.28125,-0.010416667,1,0,0,0.8135,optionLeft,5,9340,4,42,0,42,0,1,,,,,,,,,,,,,,,,,,,,,,,,,,,,,,,,,,,,,,,
,,,,,,,,2023-08-16_08h47.19.772,HF_wild_card,2022.2.4,Win32,60.05645307,5f547d6418bf9a7f13fa4e83,64d2fd46c836a06233681665,64dc7f040f4bab065e53d283,,,,,,,sngl,resources/DB.BMP,resources/Empty.png,Door3,-0.212239583,-0.00390625,1,0,0,0.8596,optionLeft,70,9410,4,43,0,43,0,1,,,,,,,,,,,,,,,,,,,,,,,,,,,,,,,,,,,,,,,
,,,,,,,,2023-08-16_08h47.19.772,HF_wild_card,2022.2.4,Win32,60.05645307,5f547d6418bf9a7f13fa4e83,64d2fd46c836a06233681665,64dc7f040f4bab065e53d283,,,,,,,,,,,,,,,,,,,,,,,,,,3,0,3,0,1,,,,,,,,,,,,,,,,,,,,,,,,,,,,,,,,,,
,,,,,,,,2023-08-16_08h47.19.772,HF_wild_card,2022.2.4,Win32,60.05645307,5f547d6418bf9a7f13fa4e83,64d2fd46c836a06233681665,64dc7f040f4bab065e53d283,,,,,,,sngl,resources/Empty.png,resources/DR.BMP,WildCard_Ex,0.432291667,0.0625,1,0,0,0.9612,optionRight,95,9505,5,0,0,0,0,1,,,,,,,,,,,,,,,,,,,,,,,,,,,,,,,,,,,,,,,
,,,,,,,,2023-08-16_08h47.19.772,HF_wild_card,2022.2.4,Win32,60.05645307,5f547d6418bf9a7f13fa4e83,64d2fd46c836a06233681665,64dc7f040f4bab065e53d283,,,,,,,sngl,resources/Empty.png,resources/DG.BMP,Door1,0.26953125,0.076822917,1,0,0,0.8438,optionRight,30,9535,5,1,0,1,0,1,,,,,,,,,,,,,,,,,,,,,,,,,,,,,,,,,,,,,,,
,,,,,,,,2023-08-16_08h47.19.772,HF_wild_card,2022.2.4,Win32,60.05645307,5f547d6418bf9a7f13fa4e83,64d2fd46c836a06233681665,64dc7f040f4bab065e53d283,,,,,,,decisionTrl,resources/DB.BMP,resources/DBN.BMP,Door4,0.248697917,0.111979167,1,0,0,0.9428,optionRight,60,9595,5,2,0,2,0,1,,,,,,,,,,,,,,,,,,,,,,,,,,,,,,,,,,,,,,,
,,,,,,,,2023-08-16_08h47.19.772,HF_wild_card,2022.2.4,Win32,60.05645307,5f547d6418bf9a7f13fa4e83,64d2fd46c836a06233681665,64dc7f040f4bab065e53d283,,,,,,,decisionTrl,resources/DR.BMP,resources/DB.BMP,WildCard_Ex,-0.200520833,-0.026041667,1,0,0,1.0295,optionLeft,95,9690,5,3,0,3,0,1,,,,,,,,,,,,,,,,,,,,,,,,,,,,,,,,,,,,,,,
,,,,,,,,2023-08-16_08h47.19.772,HF_wild_card,2022.2.4,Win32,60.05645307,5f547d6418bf9a7f13fa4e83,64d2fd46c836a06233681665,64dc7f040f4bab065e53d283,,,,,,,sngl,resources/Empty.png,resources/DY.BMP,Door2,0.317708333,0.118489583,1,0,0,0.8831,optionRight,20,9710,5,4,0,4,0,1,,,,,,,,,,,,,,,,,,,,,,,,,,,,,,,,,,,,,,,
,,,,,,,,2023-08-16_08h47.19.772,HF_wild_card,2022.2.4,Win32,60.05645307,5f547d6418bf9a7f13fa4e83,64d2fd46c836a06233681665,64dc7f040f4bab065e53d283,,,,,,,sngl,resources/DR.BMP,resources/Empty.png,WildCard_Ex,-0.18359375,0.010416667,1,0,0,0.7827,optionLeft,95,9805,5,5,0,5,0,1,,,,,,,,,,,,,,,,,,,,,,,,,,,,,,,,,,,,,,,
,,,,,,,,2023-08-16_08h47.19.772,HF_wild_card,2022.2.4,Win32,60.05645307,5f547d6418bf9a7f13fa4e83,64d2fd46c836a06233681665,64dc7f040f4bab065e53d283,,,,,,,sngl,resources/DB.BMP,resources/Empty.png,Door3,-0.1875,0.005208333,1,0,0,0.8286,optionLeft,70,9875,5,6,0,6,0,1,,,,,,,,,,,,,,,,,,,,,,,,,,,,,,,,,,,,,,,
,,,,,,,,2023-08-16_08h47.19.772,HF_wild_card,2022.2.4,Win32,60.05645307,5f547d6418bf9a7f13fa4e83,64d2fd46c836a06233681665,64dc7f040f4bab065e53d283,,,,,,,ctch,resources/DY.BMP,resources/DB.BMP,Door2,-0.162760417,0.013020833,1,0,0,1.1941,optionLeft,40,9915,5,7,0,7,0,1,,,,,,,,,,,,,,,,,,,,,,,,,,,,,,,,,,,,,,,
,,,,,,,,2023-08-16_08h47.19.772,HF_wild_card,2022.2.4,Win32,60.05645307,5f547d6418bf9a7f13fa4e83,64d2fd46c836a06233681665,64dc7f040f4bab065e53d283,,,,,,,decisionTrl,resources/DG.BMP,resources/DY.BMP,Door2,0.212239583,0.048177083,1,0,0,1.1218,optionRight,20,9935,5,8,0,8,0,1,,,,,,,,,,,,,,,,,,,,,,,,,,,,,,,,,,,,,,,
,,,,,,,,2023-08-16_08h47.19.772,HF_wild_card,2022.2.4,Win32,60.05645307,5f547d6418bf9a7f13fa4e83,64d2fd46c836a06233681665,64dc7f040f4bab065e53d283,,,,,,,decisionTrl,resources/DBN.BMP,resources/DB.BMP,Door4,-0.231770833,0,1,0,0,0.9114,optionLeft,80,10015,5,9,0,9,0,1,,,,,,,,,,,,,,,,,,,,,,,,,,,,,,,,,,,,,,,
,,,,,,,,2023-08-16_08h47.19.772,HF_wild_card,2022.2.4,Win32,60.05645307,5f547d6418bf9a7f13fa4e83,64d2fd46c836a06233681665,64dc7f040f4bab065e53d283,,,,,,,decisionTrl,resources/DBN.BMP,resources/DB.BMP,Door4,-0.303385417,-0.0078125,1,0,0,0.8448,optionLeft,80,10095,5,10,0,10,0,1,,,,,,,,,,,,,,,,,,,,,,,,,,,,,,,,,,,,,,,
,,,,,,,,2023-08-16_08h47.19.772,HF_wild_card,2022.2.4,Win32,60.05645307,5f547d6418bf9a7f13fa4e83,64d2fd46c836a06233681665,64dc7f040f4bab065e53d283,,,,,,,decisionTrl,resources/DY.BMP,resources/DG.BMP,Door2,-0.186197917,0.010416667,1,0,0,1.1831,optionLeft,20,10115,5,11,0,11,0,1,,,,,,,,,,,,,,,,,,,,,,,,,,,,,,,,,,,,,,,
,,,,,,,,2023-08-16_08h47.19.772,HF_wild_card,2022.2.4,Win32,60.05645307,5f547d6418bf9a7f13fa4e83,64d2fd46c836a06233681665,64dc7f040f4bab065e53d283,,,,,,,ctch,resources/DBN.BMP,resources/DG.BMP,Door4,-0.192708333,0.024739583,1,0,0,1.0203,optionLeft,80,10195,5,12,0,12,0,1,,,,,,,,,,,,,,,,,,,,,,,,,,,,,,,,,,,,,,,
,,,,,,,,2023-08-16_08h47.19.772,HF_wild_card,2022.2.4,Win32,60.05645307,5f547d6418bf9a7f13fa4e83,64d2fd46c836a06233681665,64dc7f040f4bab065e53d283,,,,,,,decisionTrl,resources/DBN.BMP,resources/DB.BMP,Door4,-0.225260417,0.00390625,1,0,0,0.9944,optionLeft,80,10275,5,13,0,13,0,1,,,,,,,,,,,,,,,,,,,,,,,,,,,,,,,,,,,,,,,
,,,,,,,,2023-08-16_08h47.19.772,HF_wild_card,2022.2.4,Win32,60.05645307,5f547d6418bf9a7f13fa4e83,64d2fd46c836a06233681665,64dc7f040f4bab065e53d283,,,,,,,decisionTrl,resources/DBN.BMP,resources/DR.BMP,Door4,-0.216145833,0.001302083,1,0,0,0.9442,optionLeft,60,10335,5,14,0,14,0,1,,,,,,,,,,,,,,,,,,,,,,,,,,,,,,,,,,,,,,,
,,,,,,,,2023-08-16_08h47.19.772,HF_wild_card,2022.2.4,Win32,60.05645307,5f547d6418bf9a7f13fa4e83,64d2fd46c836a06233681665,64dc7f040f4bab065e53d283,,,,,,,ctch,resources/DBN.BMP,resources/DG.BMP,Door4,-0.26171875,-0.013020833,1,0,0,0.8666,optionLeft,60,10395,5,15,0,15,0,1,,,,,,,,,,,,,,,,,,,,,,,,,,,,,,,,,,,,,,,
,,,,,,,,2023-08-16_08h47.19.772,HF_wild_card,2022.2.4,Win32,60.05645307,5f547d6418bf9a7f13fa4e83,64d2fd46c836a06233681665,64dc7f040f4bab065e53d283,,,,,,,decisionTrl,resources/DB.BMP,resources/DBN.BMP,Door4,0.177083333,0.041666667,1,0,0,1.0308,optionRight,80,10475,5,16,0,16,0,1,,,,,,,,,,,,,,,,,,,,,,,,,,,,,,,,,,,,,,,
,,,,,,,,2023-08-16_08h47.19.772,HF_wild_card,2022.2.4,Win32,60.05645307,5f547d6418bf9a7f13fa4e83,64d2fd46c836a06233681665,64dc7f040f4bab065e53d283,,,,,,,decisionTrl,resources/DR.BMP,resources/DBN.BMP,Door4,0.18359375,0.0625,1,0,0,1.2342,optionRight,80,10555,5,17,0,17,0,1,,,,,,,,,,,,,,,,,,,,,,,,,,,,,,,,,,,,,,,
,,,,,,,,2023-08-16_08h47.19.772,HF_wild_card,2022.2.4,Win32,60.05645307,5f547d6418bf9a7f13fa4e83,64d2fd46c836a06233681665,64dc7f040f4bab065e53d283,,,,,,,decisionTrl,resources/DG.BMP,resources/DY.BMP,Door1,-0.20703125,0.015625,1,0,0,1.6098,optionLeft,30,10585,5,18,0,18,0,1,,,,,,,,,,,,,,,,,,,,,,,,,,,,,,,,,,,,,,,
,,,,,,,,2023-08-16_08h47.19.772,HF_wild_card,2022.2.4,Win32,60.05645307,5f547d6418bf9a7f13fa4e83,64d2fd46c836a06233681665,64dc7f040f4bab065e53d283,,,,,,,sngl,resources/DG.BMP,resources/Empty.png,Door1,-0.169270833,0.00390625,1,0,0,1.0285,optionLeft,30,10615,5,19,0,19,0,1,,,,,,,,,,,,,,,,,,,,,,,,,,,,,,,,,,,,,,,
,,,,,,,,2023-08-16_08h47.19.772,HF_wild_card,2022.2.4,Win32,60.05645307,5f547d6418bf9a7f13fa4e83,64d2fd46c836a06233681665,64dc7f040f4bab065e53d283,,,,,,,ctch,resources/DB.BMP,resources/DY.BMP,Door3,-0.239583333,-0.01171875,1,0,0,1.45,optionLeft,70,10685,5,20,0,20,0,1,,,,,,,,,,,,,,,,,,,,,,,,,,,,,,,,,,,,,,,
,,,,,,,,2023-08-16_08h47.19.772,HF_wild_card,2022.2.4,Win32,60.05645307,5f547d6418bf9a7f13fa4e83,64d2fd46c836a06233681665,64dc7f040f4bab065e53d283,,,,,,,decisionTrl,resources/DY.BMP,resources/DR.BMP,WildCard_Ex,0.252604167,0.09765625,1,0,0,1.9056,optionRight,95,10780,5,21,0,21,0,1,,,,,,,,,,,,,,,,,,,,,,,,,,,,,,,,,,,,,,,
,,,,,,,,2023-08-16_08h47.19.772,HF_wild_card,2022.2.4,Win32,60.05645307,5f547d6418bf9a7f13fa4e83,64d2fd46c836a06233681665,64dc7f040f4bab065e53d283,,,,,,,sngl,resources/Empty.png,resources/DBN.BMP,Door4,0.276041667,0.126302083,1,0,0,0.943,optionRight,60,10840,5,22,0,22,0,1,,,,,,,,,,,,,,,,,,,,,,,,,,,,,,,,,,,,,,,
,,,,,,,,2023-08-16_08h47.19.772,HF_wild_card,2022.2.4,Win32,60.05645307,5f547d6418bf9a7f13fa4e83,64d2fd46c836a06233681665,64dc7f040f4bab065e53d283,,,,,,,decisionTrl,resources/DB.BMP,resources/DR.BMP,Door3,-0.213541667,0.033854167,1,0,0,1.0933,optionLeft,70,10910,5,23,0,23,0,1,,,,,,,,,,,,,,,,,,,,,,,,,,,,,,,,,,,,,,,
,,,,,,,,2023-08-16_08h47.19.772,HF_wild_card,2022.2.4,Win32,60.05645307,5f547d6418bf9a7f13fa4e83,64d2fd46c836a06233681665,64dc7f040f4bab065e53d283,,,,,,,decisionTrl,resources/DY.BMP,resources/DG.BMP,Door2,-0.204427083,0.037760417,1,0,0,1.2481,optionLeft,40,10950,5,24,0,24,0,1,,,,,,,,,,,,,,,,,,,,,,,,,,,,,,,,,,,,,,,
,,,,,,,,2023-08-16_08h47.19.772,HF_wild_card,2022.2.4,Win32,60.05645307,5f547d6418bf9a7f13fa4e83,64d2fd46c836a06233681665,64dc7f040f4bab065e53d283,,,,,,,ctch,resources/DG.BMP,resources/DBN.BMP,Door4,0.282552083,0.162760417,1,0,0,1.0097,optionRight,80,11030,5,25,0,25,0,1,,,,,,,,,,,,,,,,,,,,,,,,,,,,,,,,,,,,,,,
,,,,,,,,2023-08-16_08h47.19.772,HF_wild_card,2022.2.4,Win32,60.05645307,5f547d6418bf9a7f13fa4e83,64d2fd46c836a06233681665,64dc7f040f4bab065e53d283,,,,,,,ctch,resources/DG.BMP,resources/DBN.BMP,Door4,0.25390625,0.127604167,1,0,0,0.9459,optionRight,80,11110,5,26,0,26,0,1,,,,,,,,,,,,,,,,,,,,,,,,,,,,,,,,,,,,,,,
,,,,,,,,2023-08-16_08h47.19.772,HF_wild_card,2022.2.4,Win32,60.05645307,5f547d6418bf9a7f13fa4e83,64d2fd46c836a06233681665,64dc7f040f4bab065e53d283,,,,,,,decisionTrl,resources/DG.BMP,resources/DY.BMP,Door1,-0.19921875,0.029947917,1,0,0,1.1733,optionLeft,30,11140,5,27,0,27,0,1,,,,,,,,,,,,,,,,,,,,,,,,,,,,,,,,,,,,,,,
,,,,,,,,2023-08-16_08h47.19.772,HF_wild_card,2022.2.4,Win32,60.05645307,5f547d6418bf9a7f13fa4e83,64d2fd46c836a06233681665,64dc7f040f4bab065e53d283,,,,,,,decisionTrl,resources/DY.BMP,resources/DG.BMP,Door1,0.196614583,0.084635417,1,0,0,1.1063,optionRight,30,11170,5,28,0,28,0,1,,,,,,,,,,,,,,,,,,,,,,,,,,,,,,,,,,,,,,,
,,,,,,,,2023-08-16_08h47.19.772,HF_wild_card,2022.2.4,Win32,60.05645307,5f547d6418bf9a7f13fa4e83,64d2fd46c836a06233681665,64dc7f040f4bab065e53d283,,,,,,,decisionTrl,resources/DB.BMP,resources/DBN.BMP,Door4,0.28515625,0.18359375,1,0,0,0.9281,optionRight,60,11230,5,29,0,29,0,1,,,,,,,,,,,,,,,,,,,,,,,,,,,,,,,,,,,,,,,
,,,,,,,,2023-08-16_08h47.19.772,HF_wild_card,2022.2.4,Win32,60.05645307,5f547d6418bf9a7f13fa4e83,64d2fd46c836a06233681665,64dc7f040f4bab065e53d283,,,,,,,sngl,resources/Empty.png,resources/DB.BMP,Door3,0.2421875,0.069010417,1,0,0,0.978,optionRight,70,11300,5,30,0,30,0,1,,,,,,,,,,,,,,,,,,,,,,,,,,,,,,,,,,,,,,,
,,,,,,,,2023-08-16_08h47.19.772,HF_wild_card,2022.2.4,Win32,60.05645307,5f547d6418bf9a7f13fa4e83,64d2fd46c836a06233681665,64dc7f040f4bab065e53d283,,,,,,,decisionTrl,resources/DY.BMP,resources/DG.BMP,Door2,-0.299479167,0.024739583,1,0,0,1.4889,optionLeft,20,11320,5,31,0,31,0,1,,,,,,,,,,,,,,,,,,,,,,,,,,,,,,,,,,,,,,,
,,,,,,,,2023-08-16_08h47.19.772,HF_wild_card,2022.2.4,Win32,60.05645307,5f547d6418bf9a7f13fa4e83,64d2fd46c836a06233681665,64dc7f040f4bab065e53d283,,,,,,,decisionTrl,resources/DBN.BMP,resources/DB.BMP,Door3,0.278645833,0.05859375,1,0,0,0.8335,optionRight,70,11390,5,32,0,32,0,1,,,,,,,,,,,,,,,,,,,,,,,,,,,,,,,,,,,,,,,
,,,,,,,,2023-08-16_08h47.19.772,HF_wild_card,2022.2.4,Win32,60.05645307,5f547d6418bf9a7f13fa4e83,64d2fd46c836a06233681665,64dc7f040f4bab065e53d283,,,,,,,decisionTrl,resources/DR.BMP,resources/DY.BMP,WildCard_Ex,-0.157552083,0.052083333,1,0,0,1.1106,optionLeft,95,11485,5,33,0,33,0,1,,,,,,,,,,,,,,,,,,,,,,,,,,,,,,,,,,,,,,,
,,,,,,,,2023-08-16_08h47.19.772,HF_wild_card,2022.2.4,Win32,60.05645307,5f547d6418bf9a7f13fa4e83,64d2fd46c836a06233681665,64dc7f040f4bab065e53d283,,,,,,,ctch,resources/DY.BMP,resources/DB.BMP,Door3,0.231770833,0.127604167,1,0,0,1.2882,optionRight,70,11555,5,34,0,34,0,1,,,,,,,,,,,,,,,,,,,,,,,,,,,,,,,,,,,,,,,
,,,,,,,,2023-08-16_08h47.19.772,HF_wild_card,2022.2.4,Win32,60.05645307,5f547d6418bf9a7f13fa4e83,64d2fd46c836a06233681665,64dc7f040f4bab065e53d283,,,,,,,decisionTrl,resources/DG.BMP,resources/DY.BMP,Door1,-0.234375,0.0703125,1,0,0,1.3053,optionLeft,30,11585,5,35,0,35,0,1,,,,,,,,,,,,,,,,,,,,,,,,,,,,,,,,,,,,,,,
,,,,,,,,2023-08-16_08h47.19.772,HF_wild_card,2022.2.4,Win32,60.05645307,5f547d6418bf9a7f13fa4e83,64d2fd46c836a06233681665,64dc7f040f4bab065e53d283,,,,,,,decisionTrl,resources/DR.BMP,resources/DG.BMP,Door1,0.27734375,0.104166667,1,0,0,1.5935,optionRight,30,11615,5,36,0,36,0,1,,,,,,,,,,,,,,,,,,,,,,,,,,,,,,,,,,,,,,,
,,,,,,,,2023-08-16_08h47.19.772,HF_wild_card,2022.2.4,Win32,60.05645307,5f547d6418bf9a7f13fa4e83,64d2fd46c836a06233681665,64dc7f040f4bab065e53d283,,,,,,,decisionTrl,resources/DB.BMP,resources/DBN.BMP,Door4,0.216145833,0.095052083,1,0,0,0.9721,optionRight,80,11695,5,37,0,37,0,1,,,,,,,,,,,,,,,,,,,,,,,,,,,,,,,,,,,,,,,
,,,,,,,,2023-08-16_08h47.19.772,HF_wild_card,2022.2.4,Win32,60.05645307,5f547d6418bf9a7f13fa4e83,64d2fd46c836a06233681665,64dc7f040f4bab065e53d283,,,,,,,decisionTrl,resources/DG.BMP,resources/DR.BMP,WildCard_Ex,0.233072917,0.037760417,1,0,0,2.0307,optionRight,5,11700,5,38,0,38,0,1,,,,,,,,,,,,,,,,,,,,,,,,,,,,,,,,,,,,,,,
,,,,,,,,2023-08-16_08h47.19.772,HF_wild_card,2022.2.4,Win32,60.05645307,5f547d6418bf9a7f13fa4e83,64d2fd46c836a06233681665,64dc7f040f4bab065e53d283,,,,,,,sngl,resources/DY.BMP,resources/Empty.png,Door2,-0.240885417,0.036458333,1,0,0,0.8976,optionLeft,40,11740,5,39,0,39,0,1,,,,,,,,,,,,,,,,,,,,,,,,,,,,,,,,,,,,,,,
,,,,,,,,2023-08-16_08h47.19.772,HF_wild_card,2022.2.4,Win32,60.05645307,5f547d6418bf9a7f13fa4e83,64d2fd46c836a06233681665,64dc7f040f4bab065e53d283,,,,,,,sngl,resources/Empty.png,resources/DR.BMP,WildCard_Ex,0.33203125,0.1171875,1,0,0,0.8557,optionRight,5,11745,5,40,0,40,0,1,,,,,,,,,,,,,,,,,,,,,,,,,,,,,,,,,,,,,,,
,,,,,,,,2023-08-16_08h47.19.772,HF_wild_card,2022.2.4,Win32,60.05645307,5f547d6418bf9a7f13fa4e83,64d2fd46c836a06233681665,64dc7f040f4bab065e53d283,,,,,,,ctch,resources/DB.BMP,resources/DY.BMP,Door3,-0.263020833,0.040364583,1,0,0,0.8451,optionLeft,70,11815,5,41,0,41,0,1,,,,,,,,,,,,,,,,,,,,,,,,,,,,,,,,,,,,,,,
,,,,,,,,2023-08-16_08h47.19.772,HF_wild_card,2022.2.4,Win32,60.05645307,5f547d6418bf9a7f13fa4e83,64d2fd46c836a06233681665,64dc7f040f4bab065e53d283,,,,,,,sngl,resources/DR.BMP,resources/Empty.png,WildCard_Ex,-0.227864583,0.010416667,1,0,0,0.939,optionLeft,5,11820,5,42,0,42,0,1,,,,,,,,,,,,,,,,,,,,,,,,,,,,,,,,,,,,,,,
,,,,,,,,2023-08-16_08h47.19.772,HF_wild_card,2022.2.4,Win32,60.05645307,5f547d6418bf9a7f13fa4e83,64d2fd46c836a06233681665,64dc7f040f4bab065e53d283,,,,,,,sngl,resources/DBN.BMP,resources/Empty.png,Door4,-0.259114583,0.046875,1,0,0,0.8605,optionLeft,80,11900,5,43,0,43,0,1,,,,,,,,,,,,,,,,,,,,,,,,,,,,,,,,,,,,,,,
,,,,,,,,2023-08-16_08h47.19.772,HF_wild_card,2022.2.4,Win32,60.05645307,5f547d6418bf9a7f13fa4e83,64d2fd46c836a06233681665,64dc7f040f4bab065e53d283,,,,,,,,,,,,,,,,,,,,,,,,,,4,0,4,0,1,,,,,,,,,,,,,,,,,,,,,,,,,,,,,,,,,,
,,,,,,,,2023-08-16_08h47.19.772,HF_wild_card,2022.2.4,Win32,60.05645307,5f547d6418bf9a7f13fa4e83,64d2fd46c836a06233681665,64dc7f040f4bab065e53d283,,,,,,,decisionTrl,resources/DR.BMP,resources/DG.BMP,WildCard_Ex,-0.157552083,0.0078125,1,0,0,1.4481,optionLeft,95,11995,6,0,0,0,0,1,,,,,,,,,,,,,,,,,,,,,,,,,,,,,,,,,,,,,,,
,,,,,,,,2023-08-16_08h47.19.772,HF_wild_card,2022.2.4,Win32,60.05645307,5f547d6418bf9a7f13fa4e83,64d2fd46c836a06233681665,64dc7f040f4bab065e53d283,,,,,,,decisionTrl,resources/DR.BMP,resources/DY.BMP,WildCard_Ex,-0.16796875,0.014322917,1,0,0,0.8764,optionLeft,5,12000,6,1,0,1,0,1,,,,,,,,,,,,,,,,,,,,,,,,,,,,,,,,,,,,,,,
,,,,,,,,2023-08-16_08h47.19.772,HF_wild_card,2022.2.4,Win32,60.05645307,5f547d6418bf9a7f13fa4e83,64d2fd46c836a06233681665,64dc7f040f4bab065e53d283,,,,,,,sngl,resources/Empty.png,resources/DB.BMP,Door3,0.311197917,0.063802083,1,0,0,0.8945,optionRight,70,12070,6,2,0,2,0,1,,,,,,,,,,,,,,,,,,,,,,,,,,,,,,,,,,,,,,,
,,,,,,,,2023-08-16_08h47.19.772,HF_wild_card,2022.2.4,Win32,60.05645307,5f547d6418bf9a7f13fa4e83,64d2fd46c836a06233681665,64dc7f040f4bab065e53d283,,,,,,,decisionTrl,resources/DY.BMP,resources/DG.BMP,Door1,0.182291667,0.072916667,1,0,0,1.0103,optionRight,30,12100,6,3,0,3,0,1,,,,,,,,,,,,,,,,,,,,,,,,,,,,,,,,,,,,,,,
,,,,,,,,2023-08-16_08h47.19.772,HF_wild_card,2022.2.4,Win32,60.05645307,5f547d6418bf9a7f13fa4e83,64d2fd46c836a06233681665,64dc7f040f4bab065e53d283,,,,,,,decisionTrl,resources/DB.BMP,resources/DR.BMP,Door3,-0.221354167,0.040364583,1,0,0,1.0104,optionLeft,70,12170,6,4,0,4,0,1,,,,,,,,,,,,,,,,,,,,,,,,,,,,,,,,,,,,,,,
,,,,,,,,2023-08-16_08h47.19.772,HF_wild_card,2022.2.4,Win32,60.05645307,5f547d6418bf9a7f13fa4e83,64d2fd46c836a06233681665,64dc7f040f4bab065e53d283,,,,,,,sngl,resources/Empty.png,resources/DG.BMP,Door1,0.180989583,0.06640625,1,0,0,0.8775,optionRight,30,12200,6,5,0,5,0,1,,,,,,,,,,,,,,,,,,,,,,,,,,,,,,,,,,,,,,,
,,,,,,,,2023-08-16_08h47.19.772,HF_wild_card,2022.2.4,Win32,60.05645307,5f547d6418bf9a7f13fa4e83,64d2fd46c836a06233681665,64dc7f040f4bab065e53d283,,,,,,,sngl,resources/DB.BMP,resources/Empty.png,Door3,-0.173177083,-0.00390625,1,0,0,0.9499,optionLeft,70,12270,6,6,0,6,0,1,,,,,,,,,,,,,,,,,,,,,,,,,,,,,,,,,,,,,,,
,,,,,,,,2023-08-16_08h47.19.772,HF_wild_card,2022.2.4,Win32,60.05645307,5f547d6418bf9a7f13fa4e83,64d2fd46c836a06233681665,64dc7f040f4bab065e53d283,,,,,,,sngl,resources/Empty.png,resources/DR.BMP,WildCard_Ex,0.295572917,0.067708333,1,0,0,1.0163,optionRight,5,12275,6,7,0,7,0,1,,,,,,,,,,,,,,,,,,,,,,,,,,,,,,,,,,,,,,,
,,,,,,,,2023-08-16_08h47.19.772,HF_wild_card,2022.2.4,Win32,60.05645307,5f547d6418bf9a7f13fa4e83,64d2fd46c836a06233681665,64dc7f040f4bab065e53d283,,,,,,,sngl,resources/DG.BMP,resources/Empty.png,Door1,-0.225260417,0.0234375,1,0,0,1.0117,optionLeft,30,12305,6,8,0,8,0,1,,,,,,,,,,,,,,,,,,,,,,,,,,,,,,,,,,,,,,,
,,,,,,,,2023-08-16_08h47.19.772,HF_wild_card,2022.2.4,Win32,60.05645307,5f547d6418bf9a7f13fa4e83,64d2fd46c836a06233681665,64dc7f040f4bab065e53d283,,,,,,,decisionTrl,resources/DG.BMP,resources/DY.BMP,Door1,-0.22265625,0.026041667,1,0,0,5.3136,optionLeft,30,12335,6,9,0,9,0,1,,,,,,,,,,,,,,,,,,,,,,,,,,,,,,,,,,,,,,,
,,,,,,,,2023-08-16_08h47.19.772,HF_wild_card,2022.2.4,Win32,60.05645307,5f547d6418bf9a7f13fa4e83,64d2fd46c836a06233681665,64dc7f040f4bab065e53d283,,,,,,,decisionTrl,resources/DG.BMP,resources/DY.BMP,Door1,-0.248697917,0.024739583,1,0,0,0.8989,optionLeft,30,12365,6,10,0,10,0,1,,,,,,,,,,,,,,,,,,,,,,,,,,,,,,,,,,,,,,,
,,,,,,,,2023-08-16_08h47.19.772,HF_wild_card,2022.2.4,Win32,60.05645307,5f547d6418bf9a7f13fa4e83,64d2fd46c836a06233681665,64dc7f040f4bab065e53d283,,,,,,,sngl,resources/DR.BMP,resources/Empty.png,WildCard_Ex,-0.259114583,-0.002604167,1,0,0,0.8103,optionLeft,5,12370,6,11,0,11,0,1,,,,,,,,,,,,,,,,,,,,,,,,,,,,,,,,,,,,,,,
,,,,,,,,2023-08-16_08h47.19.772,HF_wild_card,2022.2.4,Win32,60.05645307,5f547d6418bf9a7f13fa4e83,64d2fd46c836a06233681665,64dc7f040f4bab065e53d283,,,,,,,ctch,resources/DG.BMP,resources/DBN.BMP,Door4,0.216145833,0.106770833,1,0,0,0.8944,optionRight,60,12430,6,12,0,12,0,1,,,,,,,,,,,,,,,,,,,,,,,,,,,,,,,,,,,,,,,
,,,,,,,,2023-08-16_08h47.19.772,HF_wild_card,2022.2.4,Win32,60.05645307,5f547d6418bf9a7f13fa4e83,64d2fd46c836a06233681665,64dc7f040f4bab065e53d283,,,,,,,sngl,resources/Empty.png,resources/DR.BMP,WildCard_Ex,0.180989583,0.106770833,1,0,0,0.844,optionRight,95,12525,6,13,0,13,0,1,,,,,,,,,,,,,,,,,,,,,,,,,,,,,,,,,,,,,,,
,,,,,,,,2023-08-16_08h47.19.772,HF_wild_card,2022.2.4,Win32,60.05645307,5f547d6418bf9a7f13fa4e83,64d2fd46c836a06233681665,64dc7f040f4bab065e53d283,,,,,,,sngl,resources/Empty.png,resources/DY.BMP,Door2,0.196614583,0.100260417,1,0,0,0.8277,optionRight,40,12565,6,14,0,14,0,1,,,,,,,,,,,,,,,,,,,,,,,,,,,,,,,,,,,,,,,
,,,,,,,,2023-08-16_08h47.19.772,HF_wild_card,2022.2.4,Win32,60.05645307,5f547d6418bf9a7f13fa4e83,64d2fd46c836a06233681665,64dc7f040f4bab065e53d283,,,,,,,decisionTrl,resources/DG.BMP,resources/DY.BMP,Door1,-0.173177083,0.05078125,1,0,0,1.0277,optionLeft,30,12595,6,15,0,15,0,1,,,,,,,,,,,,,,,,,,,,,,,,,,,,,,,,,,,,,,,
,,,,,,,,2023-08-16_08h47.19.772,HF_wild_card,2022.2.4,Win32,60.05645307,5f547d6418bf9a7f13fa4e83,64d2fd46c836a06233681665,64dc7f040f4bab065e53d283,,,,,,,ctch,resources/DB.BMP,resources/DY.BMP,Door3,-0.244791667,0.057291667,1,0,0,0.9281,optionLeft,70,12665,6,16,0,16,0,1,,,,,,,,,,,,,,,,,,,,,,,,,,,,,,,,,,,,,,,
,,,,,,,,2023-08-16_08h47.19.772,HF_wild_card,2022.2.4,Win32,60.05645307,5f547d6418bf9a7f13fa4e83,64d2fd46c836a06233681665,64dc7f040f4bab065e53d283,,,,,,,decisionTrl,resources/DBN.BMP,resources/DB.BMP,Door4,-0.23828125,0.075520833,1,0,0,0.9103,optionLeft,80,12745,6,17,0,17,0,1,,,,,,,,,,,,,,,,,,,,,,,,,,,,,,,,,,,,,,,
,,,,,,,,2023-08-16_08h47.19.772,HF_wild_card,2022.2.4,Win32,60.05645307,5f547d6418bf9a7f13fa4e83,64d2fd46c836a06233681665,64dc7f040f4bab065e53d283,,,,,,,decisionTrl,resources/DBN.BMP,resources/DR.BMP,Door4,-0.1875,0.071614583,1,0,0,1.0109,optionLeft,60,12805,6,18,0,18,0,1,,,,,,,,,,,,,,,,,,,,,,,,,,,,,,,,,,,,,,,
,,,,,,,,2023-08-16_08h47.19.772,HF_wild_card,2022.2.4,Win32,60.05645307,5f547d6418bf9a7f13fa4e83,64d2fd46c836a06233681665,64dc7f040f4bab065e53d283,,,,,,,sngl,resources/DY.BMP,resources/Empty.png,Door2,-0.231770833,0.087239583,1,0,0,0.8276,optionLeft,20,12825,6,19,0,19,0,1,,,,,,,,,,,,,,,,,,,,,,,,,,,,,,,,,,,,,,,
,,,,,,,,2023-08-16_08h47.19.772,HF_wild_card,2022.2.4,Win32,60.05645307,5f547d6418bf9a7f13fa4e83,64d2fd46c836a06233681665,64dc7f040f4bab065e53d283,,,,,,,decisionTrl,resources/DG.BMP,resources/DY.BMP,Door1,-0.1953125,0.057291667,1,0,0,0.9111,optionLeft,30,12855,6,20,0,20,0,1,,,,,,,,,,,,,,,,,,,,,,,,,,,,,,,,,,,,,,,
,,,,,,,,2023-08-16_08h47.19.772,HF_wild_card,2022.2.4,Win32,60.05645307,5f547d6418bf9a7f13fa4e83,64d2fd46c836a06233681665,64dc7f040f4bab065e53d283,,,,,,,ctch,resources/DBN.BMP,resources/DG.BMP,Door4,-0.197916667,0.04296875,1,0,0,0.8943,optionLeft,60,12915,6,21,0,21,0,1,,,,,,,,,,,,,,,,,,,,,,,,,,,,,,,,,,,,,,,
,,,,,,,,2023-08-16_08h47.19.772,HF_wild_card,2022.2.4,Win32,60.05645307,5f547d6418bf9a7f13fa4e83,64d2fd46c836a06233681665,64dc7f040f4bab065e53d283,,,,,,,sngl,resources/DBN.BMP,resources/Empty.png,Door4,-0.220052083,0.052083333,1,0,0,0.8429,optionLeft,60,12975,6,22,0,22,0,1,,,,,,,,,,,,,,,,,,,,,,,,,,,,,,,,,,,,,,,
,,,,,,,,2023-08-16_08h47.19.772,HF_wild_card,2022.2.4,Win32,60.05645307,5f547d6418bf9a7f13fa4e83,64d2fd46c836a06233681665,64dc7f040f4bab065e53d283,,,,,,,decisionTrl,resources/DBN.BMP,resources/DB.BMP,Door4,-0.200520833,0.067708333,1,0,0,1.5443,optionLeft,80,13055,6,23,0,23,0,1,,,,,,,,,,,,,,,,,,,,,,,,,,,,,,,,,,,,,,,
,,,,,,,,2023-08-16_08h47.19.772,HF_wild_card,2022.2.4,Win32,60.05645307,5f547d6418bf9a7f13fa4e83,64d2fd46c836a06233681665,64dc7f040f4bab065e53d283,,,,,,,ctch,resources/DY.BMP,resources/DB.BMP,Door3,0.174479167,0.08203125,1,0,0,1.7629,optionRight,70,13125,6,24,0,24,0,1,,,,,,,,,,,,,,,,,,,,,,,,,,,,,,,,,,,,,,,
,,,,,,,,2023-08-16_08h47.19.772,HF_wild_card,2022.2.4,Win32,60.05645307,5f547d6418bf9a7f13fa4e83,64d2fd46c836a06233681665,64dc7f040f4bab065e53d283,,,,,,,decisionTrl,resources/DY.BMP,resources/DR.BMP,Door2,-0.200520833,0.059895833,1,0,0,0.9272,optionLeft,20,13145,6,25,0,25,0,1,,,,,,,,,,,,,,,,,,,,,,,,,,,,,,,,,,,,,,,
,,,,,,,,2023-08-16_08h47.19.772,HF_wild_card,2022.2.4,Win32,60.05645307,5f547d6418bf9a7f13fa4e83,64d2fd46c836a06233681665,64dc7f040f4bab065e53d283,,,,,,,decisionTrl,resources/DR.BMP,resources/DBN.BMP,Door4,0.28515625,0.10546875,1,0,0,0.961,optionRight,80,13225,6,26,0,26,0,1,,,,,,,,,,,,,,,,,,,,,,,,,,,,,,,,,,,,,,,
,,,,,,,,2023-08-16_08h47.19.772,HF_wild_card,2022.2.4,Win32,60.05645307,5f547d6418bf9a7f13fa4e83,64d2fd46c836a06233681665,64dc7f040f4bab065e53d283,,,,,,,decisionTrl,resources/DR.BMP,resources/DB.BMP,Door3,0.25,0.079427083,1,0,0,0.9777,optionRight,70,13295,6,27,0,27,0,1,,,,,,,,,,,,,,,,,,,,,,,,,,,,,,,,,,,,,,,
,,,,,,,,2023-08-16_08h47.19.772,HF_wild_card,2022.2.4,Win32,60.05645307,5f547d6418bf9a7f13fa4e83,64d2fd46c836a06233681665,64dc7f040f4bab065e53d283,,,,,,,sngl,resources/Empty.png,resources/DBN.BMP,Door4,0.231770833,0.147135417,1,0,0,0.9438,optionRight,80,13375,6,28,0,28,0,1,,,,,,,,,,,,,,,,,,,,,,,,,,,,,,,,,,,,,,,
,,,,,,,,2023-08-16_08h47.19.772,HF_wild_card,2022.2.4,Win32,60.05645307,5f547d6418bf9a7f13fa4e83,64d2fd46c836a06233681665,64dc7f040f4bab065e53d283,,,,,,,decisionTrl,resources/DB.BMP,resources/DBN.BMP,Door4,0.305989583,0.17578125,1,0,0,0.9603,optionRight,60,13435,6,29,0,29,0,1,,,,,,,,,,,,,,,,,,,,,,,,,,,,,,,,,,,,,,,
,,,,,,,,2023-08-16_08h47.19.772,HF_wild_card,2022.2.4,Win32,60.05645307,5f547d6418bf9a7f13fa4e83,64d2fd46c836a06233681665,64dc7f040f4bab065e53d283,,,,,,,decisionTrl,resources/DBN.BMP,resources/DB.BMP,Door4,-0.21484375,0.041666667,1,0,0,1.1941,optionLeft,80,13515,6,30,0,30,0,1,,,,,,,,,,,,,,,,,,,,,,,,,,,,,,,,,,,,,,,
,,,,,,,,2023-08-16_08h47.19.772,HF_wild_card,2022.2.4,Win32,60.05645307,5f547d6418bf9a7f13fa4e83,64d2fd46c836a06233681665,64dc7f040f4bab065e53d283,,,,,,,decisionTrl,resources/DY.BMP,resources/DG.BMP,Door2,-0.223958333,0.0625,1,0,0,1.0595,optionLeft,40,13555,6,31,0,31,0,1,,,,,,,,,,,,,,,,,,,,,,,,,,,,,,,,,,,,,,,
,,,,,,,,2023-08-16_08h47.19.772,HF_wild_card,2022.2.4,Win32,60.05645307,5f547d6418bf9a7f13fa4e83,64d2fd46c836a06233681665,64dc7f040f4bab065e53d283,,,,,,,decisionTrl,resources/DY.BMP,resources/DG.BMP,Door2,-0.1953125,0.067708333,1,0,0,1.0279,optionLeft,40,13595,6,32,0,32,0,1,,,,,,,,,,,,,,,,,,,,,,,,,,,,,,,,,,,,,,,
,,,,,,,,2023-08-16_08h47.19.772,HF_wild_card,2022.2.4,Win32,60.05645307,5f547d6418bf9a7f13fa4e83,64d2fd46c836a06233681665,64dc7f040f4bab065e53d283,,,,,,,decisionTrl,resources/DB.BMP,resources/DBN.BMP,Door4,0.171875,0.11328125,1,0,0,0.9602,optionRight,80,13675,6,33,0,33,0,1,,,,,,,,,,,,,,,,,,,,,,,,,,,,,,,,,,,,,,,
,,,,,,,,2023-08-16_08h47.19.772,HF_wild_card,2022.2.4,Win32,60.05645307,5f547d6418bf9a7f13fa4e83,64d2fd46c836a06233681665,64dc7f040f4bab065e53d283,,,,,,,sngl,resources/DR.BMP,resources/Empty.png,WildCard_Ex,-0.248697917,0.071614583,1,0,0,1.5772,optionLeft,95,13770,6,34,0,34,0,1,,,,,,,,,,,,,,,,,,,,,,,,,,,,,,,,,,,,,,,
,,,,,,,,2023-08-16_08h47.19.772,HF_wild_card,2022.2.4,Win32,60.05645307,5f547d6418bf9a7f13fa4e83,64d2fd46c836a06233681665,64dc7f040f4bab065e53d283,,,,,,,decisionTrl,resources/DBN.BMP,resources/DB.BMP,Door4,-0.145833333,0.083333333,1,0,0,1.0776,optionLeft,60,13830,6,35,0,35,0,1,,,,,,,,,,,,,,,,,,,,,,,,,,,,,,,,,,,,,,,
,,,,,,,,2023-08-16_08h47.19.772,HF_wild_card,2022.2.4,Win32,60.05645307,5f547d6418bf9a7f13fa4e83,64d2fd46c836a06233681665,64dc7f040f4bab065e53d283,,,,,,,ctch,resources/DG.BMP,resources/DBN.BMP,Door4,0.26171875,0.169270833,1,0,0,1.1267,optionRight,60,13890,6,36,0,36,0,1,,,,,,,,,,,,,,,,,,,,,,,,,,,,,,,,,,,,,,,
,,,,,,,,2023-08-16_08h47.19.772,HF_wild_card,2022.2.4,Win32,60.05645307,5f547d6418bf9a7f13fa4e83,64d2fd46c836a06233681665,64dc7f040f4bab065e53d283,,,,,,,decisionTrl,resources/DG.BMP,resources/DR.BMP,Door1,-0.221354167,0.07421875,1,0,0,1.1273,optionLeft,30,13920,6,37,0,37,0,1,,,,,,,,,,,,,,,,,,,,,,,,,,,,,,,,,,,,,,,
,,,,,,,,2023-08-16_08h47.19.772,HF_wild_card,2022.2.4,Win32,60.05645307,5f547d6418bf9a7f13fa4e83,64d2fd46c836a06233681665,64dc7f040f4bab065e53d283,,,,,,,decisionTrl,resources/DY.BMP,resources/DG.BMP,Door2,-0.1796875,0.071614583,1,0,0,0.9106,optionLeft,40,13960,6,38,0,38,0,1,,,,,,,,,,,,,,,,,,,,,,,,,,,,,,,,,,,,,,,
,,,,,,,,2023-08-16_08h47.19.772,HF_wild_card,2022.2.4,Win32,60.05645307,5f547d6418bf9a7f13fa4e83,64d2fd46c836a06233681665,64dc7f040f4bab065e53d283,,,,,,,ctch,resources/DY.BMP,resources/DB.BMP,Door2,-0.236979167,0.06640625,1,0,0,0.9085,optionLeft,20,13980,6,39,0,39,0,1,,,,,,,,,,,,,,,,,,,,,,,,,,,,,,,,,,,,,,,
,,,,,,,,2023-08-16_08h47.19.772,HF_wild_card,2022.2.4,Win32,60.05645307,5f547d6418bf9a7f13fa4e83,64d2fd46c836a06233681665,64dc7f040f4bab065e53d283,,,,,,,ctch,resources/DB.BMP,resources/DY.BMP,Door3,-0.208333333,0.06640625,1,0,0,1.0593,optionLeft,70,14050,6,40,0,40,0,1,,,,,,,,,,,,,,,,,,,,,,,,,,,,,,,,,,,,,,,
,,,,,,,,2023-08-16_08h47.19.772,HF_wild_card,2022.2.4,Win32,60.05645307,5f547d6418bf9a7f13fa4e83,64d2fd46c836a06233681665,64dc7f040f4bab065e53d283,,,,,,,decisionTrl,resources/DB.BMP,resources/DBN.BMP,Door4,0.1796875,0.118489583,1,0,0,0.9446,optionRight,60,14110,6,41,0,41,0,1,,,,,,,,,,,,,,,,,,,,,,,,,,,,,,,,,,,,,,,
,,,,,,,,2023-08-16_08h47.19.772,HF_wild_card,2022.2.4,Win32,60.05645307,5f547d6418bf9a7f13fa4e83,64d2fd46c836a06233681665,64dc7f040f4bab065e53d283,,,,,,,decisionTrl,resources/DB.BMP,resources/DBN.BMP,Door4,0.2265625,0.122395833,1,0,0,0.9021,optionRight,80,14190,6,42,0,42,0,1,,,,,,,,,,,,,,,,,,,,,,,,,,,,,,,,,,,,,,,
,,,,,,,,2023-08-16_08h47.19.772,HF_wild_card,2022.2.4,Win32,60.05645307,5f547d6418bf9a7f13fa4e83,64d2fd46c836a06233681665,64dc7f040f4bab065e53d283,,,,,,,ctch,resources/DBN.BMP,resources/DG.BMP,Door4,-0.23046875,0.044270833,1,0,0,0.9362,optionLeft,80,14270,6,43,0,43,0,1,,,,,,,,,,,,,,,,,,,,,,,,,,,,,,,,,,,,,,,
,,,,,,,,2023-08-16_08h47.19.772,HF_wild_card,2022.2.4,Win32,60.05645307,5f547d6418bf9a7f13fa4e83,64d2fd46c836a06233681665,64dc7f040f4bab065e53d283,,,,,,,,,,,,,,,,,,,,,,,,,,5,0,5,0,1,,,,,,,,,,,,,,,,,,,,,,,,,,,,,,,,,,
,,,,,,,,2023-08-16_08h47.19.772,HF_wild_card,2022.2.4,Win32,60.05645307,5f547d6418bf9a7f13fa4e83,64d2fd46c836a06233681665,64dc7f040f4bab065e53d283,,,,,,,decisionTrl,resources/DG.BMP,resources/DY.BMP,Door1,-0.21875,0.037760417,1,0,0,1.5284,optionLeft,30,14300,7,0,0,0,0,1,,,,,,,,,,,,,,,,,,,,,,,,,,,,,,,,,,,,,,,
,,,,,,,,2023-08-16_08h47.19.772,HF_wild_card,2022.2.4,Win32,60.05645307,5f547d6418bf9a7f13fa4e83,64d2fd46c836a06233681665,64dc7f040f4bab065e53d283,,,,,,,ctch,resources/DG.BMP,resources/DBN.BMP,Door4,0.268229167,0.140625,1,0,0,1.0603,optionRight,80,14380,7,1,0,1,0,1,,,,,,,,,,,,,,,,,,,,,,,,,,,,,,,,,,,,,,,
,,,,,,,,2023-08-16_08h47.19.772,HF_wild_card,2022.2.4,Win32,60.05645307,5f547d6418bf9a7f13fa4e83,64d2fd46c836a06233681665,64dc7f040f4bab065e53d283,,,,,,,ctch,resources/DG.BMP,resources/DBN.BMP,Door4,0.24609375,0.145833333,1,0,0,0.9141,optionRight,60,14440,7,2,0,2,0,1,,,,,,,,,,,,,,,,,,,,,,,,,,,,,,,,,,,,,,,
,,,,,,,,2023-08-16_08h47.19.772,HF_wild_card,2022.2.4,Win32,60.05645307,5f547d6418bf9a7f13fa4e83,64d2fd46c836a06233681665,64dc7f040f4bab065e53d283,,,,,,,decisionTrl,resources/DB.BMP,resources/DBN.BMP,Door4,0.2265625,0.1171875,1,0,0,0.9864,optionRight,80,14520,7,3,0,3,0,1,,,,,,,,,,,,,,,,,,,,,,,,,,,,,,,,,,,,,,,
,,,,,,,,2023-08-16_08h47.19.772,HF_wild_card,2022.2.4,Win32,60.05645307,5f547d6418bf9a7f13fa4e83,64d2fd46c836a06233681665,64dc7f040f4bab065e53d283,,,,,,,decisionTrl,resources/DB.BMP,resources/DBN.BMP,Door3,-0.221354167,0.00390625,1,0,0,0.9137,optionLeft,70,14590,7,4,0,4,0,1,,,,,,,,,,,,,,,,,,,,,,,,,,,,,,,,,,,,,,,
,,,,,,,,2023-08-16_08h47.19.772,HF_wild_card,2022.2.4,Win32,60.05645307,5f547d6418bf9a7f13fa4e83,64d2fd46c836a06233681665,64dc7f040f4bab065e53d283,,,,,,,ctch,resources/DB.BMP,resources/DY.BMP,Door3,-0.26953125,0.03515625,1,0,0,1.2301,optionLeft,70,14660,7,5,0,5,0,1,,,,,,,,,,,,,,,,,,,,,,,,,,,,,,,,,,,,,,,
,,,,,,,,2023-08-16_08h47.19.772,HF_wild_card,2022.2.4,Win32,60.05645307,5f547d6418bf9a7f13fa4e83,64d2fd46c836a06233681665,64dc7f040f4bab065e53d283,,,,,,,decisionTrl,resources/DG.BMP,resources/DY.BMP,Door2,0.19921875,0.07421875,1,0,0,1.3921,optionRight,40,14700,7,6,0,6,0,1,,,,,,,,,,,,,,,,,,,,,,,,,,,,,,,,,,,,,,,
,,,,,,,,2023-08-16_08h47.19.772,HF_wild_card,2022.2.4,Win32,60.05645307,5f547d6418bf9a7f13fa4e83,64d2fd46c836a06233681665,64dc7f040f4bab065e53d283,,,,,,,decisionTrl,resources/DBN.BMP,resources/DB.BMP,Door4,-0.204427083,0.0703125,1,0,0,1.0688,optionLeft,60,14760,7,7,0,7,0,1,,,,,,,,,,,,,,,,,,,,,,,,,,,,,,,,,,,,,,,
,,,,,,,,2023-08-16_08h47.19.772,HF_wild_card,2022.2.4,Win32,60.05645307,5f547d6418bf9a7f13fa4e83,64d2fd46c836a06233681665,64dc7f040f4bab065e53d283,,,,,,,ctch,resources/DBN.BMP,resources/DG.BMP,Door4,-0.21875,0.08203125,1,0,0,0.8972,optionLeft,60,14820,7,8,0,8,0,1,,,,,,,,,,,,,,,,,,,,,,,,,,,,,,,,,,,,,,,
,,,,,,,,2023-08-16_08h47.19.772,HF_wild_card,2022.2.4,Win32,60.05645307,5f547d6418bf9a7f13fa4e83,64d2fd46c836a06233681665,64dc7f040f4bab065e53d283,,,,,,,decisionTrl,resources/DY.BMP,resources/DG.BMP,Door2,-0.236979167,0.071614583,1,0,0,1.7467,optionLeft,40,14860,7,9,0,9,0,1,,,,,,,,,,,,,,,,,,,,,,,,,,,,,,,,,,,,,,,
,,,,,,,,2023-08-16_08h47.19.772,HF_wild_card,2022.2.4,Win32,60.05645307,5f547d6418bf9a7f13fa4e83,64d2fd46c836a06233681665,64dc7f040f4bab065e53d283,,,,,,,decisionTrl,resources/DB.BMP,resources/DBN.BMP,Door4,0.255208333,0.10546875,1,0,0,1.0858,optionRight,60,14920,7,10,0,10,0,1,,,,,,,,,,,,,,,,,,,,,,,,,,,,,,,,,,,,,,,
,,,,,,,,2023-08-16_08h47.19.772,HF_wild_card,2022.2.4,Win32,60.05645307,5f547d6418bf9a7f13fa4e83,64d2fd46c836a06233681665,64dc7f040f4bab065e53d283,,,,,,,ctch,resources/DB.BMP,resources/DY.BMP,Door3,-0.173177083,0.05078125,1,0,0,1.1115,optionLeft,70,14990,7,11,0,11,0,1,,,,,,,,,,,,,,,,,,,,,,,,,,,,,,,,,,,,,,,
,,,,,,,,2023-08-16_08h47.19.772,HF_wild_card,2022.2.4,Win32,60.05645307,5f547d6418bf9a7f13fa4e83,64d2fd46c836a06233681665,64dc7f040f4bab065e53d283,,,,,,,decisionTrl,resources/DG.BMP,resources/DY.BMP,Door2,0.119791667,0.084635417,1,0,0,2.3469,optionRight,40,15030,7,12,0,12,0,1,,,,,,,,,,,,,,,,,,,,,,,,,,,,,,,,,,,,,,,
,,,,,,,,2023-08-16_08h47.19.772,HF_wild_card,2022.2.4,Win32,60.05645307,5f547d6418bf9a7f13fa4e83,64d2fd46c836a06233681665,64dc7f040f4bab065e53d283,,,,,,,decisionTrl,resources/DBN.BMP,resources/DB.BMP,Door4,-0.139322917,0.033854167,1,0,0,1.3139,optionLeft,60,15090,7,13,0,13,0,1,,,,,,,,,,,,,,,,,,,,,,,,,,,,,,,,,,,,,,,
,,,,,,,,2023-08-16_08h47.19.772,HF_wild_card,2022.2.4,Win32,60.05645307,5f547d6418bf9a7f13fa4e83,64d2fd46c836a06233681665,64dc7f040f4bab065e53d283,,,,,,,decisionTrl,resources/DY.BMP,resources/DG.BMP,Door2,-0.204427083,0.061197917,1,0,0,1.0476,optionLeft,20,15110,7,14,0,14,0,1,,,,,,,,,,,,,,,,,,,,,,,,,,,,,,,,,,,,,,,
,,,,,,,,2023-08-16_08h47.19.772,HF_wild_card,2022.2.4,Win32,60.05645307,5f547d6418bf9a7f13fa4e83,64d2fd46c836a06233681665,64dc7f040f4bab065e53d283,,,,,,,decisionTrl,resources/DBN.BMP,resources/DB.BMP,Door4,-0.1484375,0.078125,1,0,0,0.9965,optionLeft,80,15190,7,15,0,15,0,1,,,,,,,,,,,,,,,,,,,,,,,,,,,,,,,,,,,,,,,
,,,,,,,,2023-08-16_08h47.19.772,HF_wild_card,2022.2.4,Win32,60.05645307,5f547d6418bf9a7f13fa4e83,64d2fd46c836a06233681665,64dc7f040f4bab065e53d283,,,,,,,decisionTrl,resources/DY.BMP,resources/DG.BMP,Door2,-0.205729167,0.0625,1,0,0,0.8972,optionLeft,20,15210,7,16,0,16,0,1,,,,,,,,,,,,,,,,,,,,,,,,,,,,,,,,,,,,,,,
,,,,,,,,2023-08-16_08h47.19.772,HF_wild_card,2022.2.4,Win32,60.05645307,5f547d6418bf9a7f13fa4e83,64d2fd46c836a06233681665,64dc7f040f4bab065e53d283,,,,,,,ctch,resources/DY.BMP,resources/DB.BMP,Door3,0.28125,0.03125,1,0,0,1.364,optionRight,70,15280,7,17,0,17,0,1,,,,,,,,,,,,,,,,,,,,,,,,,,,,,,,,,,,,,,,
,,,,,,,,2023-08-16_08h47.19.772,HF_wild_card,2022.2.4,Win32,60.05645307,5f547d6418bf9a7f13fa4e83,64d2fd46c836a06233681665,64dc7f040f4bab065e53d283,,,,,,,decisionTrl,resources/DG.BMP,resources/DY.BMP,Door2,0.186197917,0.078125,1,0,0,1.4476,optionRight,20,15300,7,18,0,18,0,1,,,,,,,,,,,,,,,,,,,,,,,,,,,,,,,,,,,,,,,
,,,,,,,,2023-08-16_08h47.19.772,HF_wild_card,2022.2.4,Win32,60.05645307,5f547d6418bf9a7f13fa4e83,64d2fd46c836a06233681665,64dc7f040f4bab065e53d283,,,,,,,decisionTrl,resources/DG.BMP,resources/DY.BMP,Door2,0.256510417,0.09375,1,0,0,0.9148,optionRight,20,15320,7,19,0,19,0,1,,,,,,,,,,,,,,,,,,,,,,,,,,,,,,,,,,,,,,,
,,,,,,,,2023-08-16_08h47.19.772,HF_wild_card,2022.2.4,Win32,60.05645307,5f547d6418bf9a7f13fa4e83,64d2fd46c836a06233681665,64dc7f040f4bab065e53d283,,,,,,,ctch,resources/DG.BMP,resources/DBN.BMP,Door4,0.188802083,0.106770833,1,0,0,0.981,optionRight,80,15400,7,20,0,20,0,1,,,,,,,,,,,,,,,,,,,,,,,,,,,,,,,,,,,,,,,
,,,,,,,,2023-08-16_08h47.19.772,HF_wild_card,2022.2.4,Win32,60.05645307,5f547d6418bf9a7f13fa4e83,64d2fd46c836a06233681665,64dc7f040f4bab065e53d283,,,,,,,ctch,resources/DB.BMP,resources/DY.BMP,Door3,-0.265625,0.06640625,1,0,0,1.0637,optionLeft,70,15470,7,21,0,21,0,1,,,,,,,,,,,,,,,,,,,,,,,,,,,,,,,,,,,,,,,
,,,,,,,,2023-08-16_08h47.19.772,HF_wild_card,2022.2.4,Win32,60.05645307,5f547d6418bf9a7f13fa4e83,64d2fd46c836a06233681665,64dc7f040f4bab065e53d283,,,,,,,decisionTrl,resources/DB.BMP,resources/DBN.BMP,Door4,0.25390625,0.135416667,1,0,0,0.9638,optionRight,60,15530,7,22,0,22,0,1,,,,,,,,,,,,,,,,,,,,,,,,,,,,,,,,,,,,,,,
,,,,,,,,2023-08-16_08h47.19.772,HF_wild_card,2022.2.4,Win32,60.05645307,5f547d6418bf9a7f13fa4e83,64d2fd46c836a06233681665,64dc7f040f4bab065e53d283,,,,,,,ctch,resources/DY.BMP,resources/DB.BMP,Door3,0.309895833,0.087239583,1,0,0,1.4805,optionRight,70,15600,7,23,0,23,0,1,,,,,,,,,,,,,,,,,,,,,,,,,,,,,,,,,,,,,,,
,,,,,,,,2023-08-16_08h47.19.772,HF_wild_card,2022.2.4,Win32,60.05645307,5f547d6418bf9a7f13fa4e83,64d2fd46c836a06233681665,64dc7f040f4bab065e53d283,,,,,,,decisionTrl,resources/DY.BMP,resources/DG.BMP,Door2,-0.180989583,0.055989583,1,0,0,2.1805,optionLeft,40,15640,7,24,0,24,0,1,,,,,,,,,,,,,,,,,,,,,,,,,,,,,,,,,,,,,,,
,,,,,,,,2023-08-16_08h47.19.772,HF_wild_card,2022.2.4,Win32,60.05645307,5f547d6418bf9a7f13fa4e83,64d2fd46c836a06233681665,64dc7f040f4bab065e53d283,,,,,,,decisionTrl,resources/DG.BMP,resources/DY.BMP,Door1,-0.190104167,0.04296875,1,0,0,1.38,optionLeft,30,15670,7,25,0,25,0,1,,,,,,,,,,,,,,,,,,,,,,,,,,,,,,,,,,,,,,,
,,,,,,,,2023-08-16_08h47.19.772,HF_wild_card,2022.2.4,Win32,60.05645307,5f547d6418bf9a7f13fa4e83,64d2fd46c836a06233681665,64dc7f040f4bab065e53d283,,,,,,,ctch,resources/DBN.BMP,resources/DG.BMP,Door4,-0.17578125,0.078125,1,0,0,0.9803,optionLeft,60,15730,7,26,0,26,0,1,,,,,,,,,,,,,,,,,,,,,,,,,,,,,,,,,,,,,,,
,,,,,,,,2023-08-16_08h47.19.772,HF_wild_card,2022.2.4,Win32,60.05645307,5f547d6418bf9a7f13fa4e83,64d2fd46c836a06233681665,64dc7f040f4bab065e53d283,,,,,,,decisionTrl,resources/DY.BMP,resources/DG.BMP,Door1,0.16015625,0.078125,1,0,0,1.8132,optionRight,30,15760,7,27,0,27,0,1,,,,,,,,,,,,,,,,,,,,,,,,,,,,,,,,,,,,,,,
,,,,,,,,2023-08-16_08h47.19.772,HF_wild_card,2022.2.4,Win32,60.05645307,5f547d6418bf9a7f13fa4e83,64d2fd46c836a06233681665,64dc7f040f4bab065e53d283,,,,,,,decisionTrl,resources/DBN.BMP,resources/DB.BMP,Door4,-0.217447917,0.063802083,1,0,0,1.0803,optionLeft,80,15840,7,28,0,28,0,1,,,,,,,,,,,,,,,,,,,,,,,,,,,,,,,,,,,,,,,
,,,,,,,,2023-08-16_08h47.19.772,HF_wild_card,2022.2.4,Win32,60.05645307,5f547d6418bf9a7f13fa4e83,64d2fd46c836a06233681665,64dc7f040f4bab065e53d283,,,,,,,decisionTrl,resources/DBN.BMP,resources/DB.BMP,Door4,-0.140625,0.037760417,1,0,0,2.4296,optionLeft,80,15920,7,29,0,29,0,1,,,,,,,,,,,,,,,,,,,,,,,,,,,,,,,,,,,,,,,
,,,,,,,,2023-08-16_08h47.19.772,HF_wild_card,2022.2.4,Win32,60.05645307,5f547d6418bf9a7f13fa4e83,64d2fd46c836a06233681665,64dc7f040f4bab065e53d283,,,,,,,ctch,resources/DBN.BMP,resources/DG.BMP,Door4,-0.154947917,0.006510417,1,0,0,1.2143,optionLeft,60,15980,7,30,0,30,0,1,,,,,,,,,,,,,,,,,,,,,,,,,,,,,,,,,,,,,,,
,,,,,,,,2023-08-16_08h47.19.772,HF_wild_card,2022.2.4,Win32,60.05645307,5f547d6418bf9a7f13fa4e83,64d2fd46c836a06233681665,64dc7f040f4bab065e53d283,,,,,,,decisionTrl,resources/DB.BMP,resources/DBN.BMP,Door4,0.162760417,0.13671875,1,0,0,1.0959,optionRight,80,16060,7,31,0,31,0,1,,,,,,,,,,,,,,,,,,,,,,,,,,,,,,,,,,,,,,,
,,,,,,,,2023-08-16_08h47.19.772,HF_wild_card,2022.2.4,Win32,60.05645307,5f547d6418bf9a7f13fa4e83,64d2fd46c836a06233681665,64dc7f040f4bab065e53d283,,,,,,,decisionTrl,resources/DY.BMP,resources/DG.BMP,Door2,-0.1875,0.057291667,1,0,0,1.0945,optionLeft,40,16100,7,32,0,32,0,1,,,,,,,,,,,,,,,,,,,,,,,,,,,,,,,,,,,,,,,
,,,,,,,,2023-08-16_08h47.19.772,HF_wild_card,2022.2.4,Win32,60.05645307,5f547d6418bf9a7f13fa4e83,64d2fd46c836a06233681665,64dc7f040f4bab065e53d283,,,,,,,ctch,resources/DY.BMP,resources/DB.BMP,Door3,0.162760417,0.1015625,1,0,0,1.1307,optionRight,70,16170,7,33,0,33,0,1,,,,,,,,,,,,,,,,,,,,,,,,,,,,,,,,,,,,,,,
,,,,,,,,2023-08-16_08h47.19.772,HF_wild_card,2022.2.4,Win32,60.05645307,5f547d6418bf9a7f13fa4e83,64d2fd46c836a06233681665,64dc7f040f4bab065e53d283,,,,,,,decisionTrl,resources/DBN.BMP,resources/DB.BMP,Door4,-0.196614583,0.080729167,1,0,0,0.9312,optionLeft,60,16230,7,34,0,34,0,1,,,,,,,,,,,,,,,,,,,,,,,,,,,,,,,,,,,,,,,
,,,,,,,,2023-08-16_08h47.19.772,HF_wild_card,2022.2.4,Win32,60.05645307,5f547d6418bf9a7f13fa4e83,64d2fd46c836a06233681665,64dc7f040f4bab065e53d283,,,,,,,decisionTrl,resources/DB.BMP,resources/DBN.BMP,Door4,0.266927083,0.118489583,1,0,0,0.8972,optionRight,80,16310,7,35,0,35,0,1,,,,,,,,,,,,,,,,,,,,,,,,,,,,,,,,,,,,,,,
,,,,,,,,2023-08-16_08h47.19.772,HF_wild_card,2022.2.4,Win32,60.05645307,5f547d6418bf9a7f13fa4e83,64d2fd46c836a06233681665,64dc7f040f4bab065e53d283,,,,,,,,,,,,,,,,,,,,,,,,,,6,0,6,0,1,,,,,,,,,,,,,,,,,,,,,,,,,,,,,,,,,,
,,,,,,,,2023-08-16_08h47.19.772,HF_wild_card,2022.2.4,Win32,60.05645307,5f547d6418bf9a7f13fa4e83,64d2fd46c836a06233681665,64dc7f040f4bab065e53d283,,,,,,,,,,,,,,,,,,,,,,,,,,,,,,,4,,,,,,,,,,,,,,,,,,,,,,,,,,,,,,,,,
,,,,,,,,2023-08-16_08h47.19.772,HF_wild_card,2022.2.4,Win32,60.05645307,5f547d6418bf9a7f13fa4e83,64d2fd46c836a06233681665,64dc7f040f4bab065e53d283,,,,,,,,,,,,,,,,,,,,,,,,,,,,,,,,,,,,,,,,,,,,,,,,,,,,,,,,,,,,,,,,
,,,,,,,,2023-08-16_08h47.19.772,HF_wild_card,2022.2.4,Win32,60.05645307,5f547d6418bf9a7f13fa4e83,64d2fd46c836a06233681665,64dc7f040f4bab065e53d283,,,,,,,,,,,,,,,,,,,,,,,,,,,,,,,,60,Door3,resources/DB.BMP,0,0,0,0,1,,,,,,,,,,,,,,,,,,,,,,,,,
,,,,,,,,2023-08-16_08h47.19.772,HF_wild_card,2022.2.4,Win32,60.05645307,5f547d6418bf9a7f13fa4e83,64d2fd46c836a06233681665,64dc7f040f4bab065e53d283,,,,,,,,,,,,,,,,,,,,,,,,,,,,,,,,20,Door2,resources/DY.BMP,1,0,1,0,1,,,,,,,,,,,,,,,,,,,,,,,,,
,,,,,,,,2023-08-16_08h47.19.772,HF_wild_card,2022.2.4,Win32,60.05645307,5f547d6418bf9a7f13fa4e83,64d2fd46c836a06233681665,64dc7f040f4bab065e53d283,,,,,,,,,,,,,,,,,,,,,,,,,,,,,,,,95,WC_extreme,resources/DR.BMP,2,0,2,0,1,,,,,,,,,,,,,,,,,,,,,,,,,
,,,,,,,,2023-08-16_08h47.19.772,HF_wild_card,2022.2.4,Win32,60.05645307,5f547d6418bf9a7f13fa4e83,64d2fd46c836a06233681665,64dc7f040f4bab065e53d283,,,,,,,,,,,,,,,,,,,,,,,,,,,,,,,,80,Door4,resources/DBN.BMP,3,0,3,0,1,,,,,,,,,,,,,,,,,,,,,,,,,
,,,,,,,,2023-08-16_08h47.19.772,HF_wild_card,2022.2.4,Win32,60.05645307,5f547d6418bf9a7f13fa4e83,64d2fd46c836a06233681665,64dc7f040f4bab065e53d283,,,,,,,,,,,,,,,,,,,,,,,,,,,,,,,,40,WC_nonExtreme,resources/DP.BMP,4,0,4,0,1,,,,,,,,,,,,,,,,,,,,,,,,,
,,,,,,,,2023-08-16_08h47.19.772,HF_wild_card,2022.2.4,Win32,60.05645307,5f547d6418bf9a7f13fa4e83,64d2fd46c836a06233681665,64dc7f040f4bab065e53d283,,,,,,,,,,,,,,,,,,,,,,,,,,,,,,,,20,Door1,resources/DG.BMP,5,0,5,0,1,,,,,,,,,,,,,,,,,,,,,,,,,
,,,,,,,,2023-08-16_08h47.19.772,HF_wild_card,2022.2.4,Win32,60.05645307,5f547d6418bf9a7f13fa4e83,64d2fd46c836a06233681665,64dc7f040f4bab065e53d283,,,,,,,,,,,,,,,,,,,,,,,,,,,,,,,,,,,,,,,,,,,,,,,,,,,,,,,,,,,,,,,,
,,,,,,,,2023-08-16_08h47.19.772,HF_wild_card,2022.2.4,Win32,60.05645307,5f547d6418bf9a7f13fa4e83,64d2fd46c836a06233681665,64dc7f040f4bab065e53d283,,,,,,,,,,,,,,,,,,,,,,,,,,,,,,,,,,,,,,,,0,0,0,0,1,,,,,,,,,,,,,,,,,,,,
,,,,,,,,2023-08-16_08h47.19.772,HF_wild_card,2022.2.4,Win32,60.05645307,5f547d6418bf9a7f13fa4e83,64d2fd46c836a06233681665,64dc7f040f4bab065e53d283,,,,,,,,,,,,,,,,,,,,,,,,,,,,,,,,,,,,,,,,1,0,1,0,1,,,,,,,,,,,,,,,,,,,,
