Condition,Low fixed image (Door1),Low risky image (Door2),High fixed image (Door3),High risky image (Door4),Extreme Wild Card,NonExtreme Wild Card,,date,expName,psychopyVersion,OS,frameRate,PROLIFIC_PID,STUDY_ID,SESSION_ID,mouse_2.x,mouse_2.y,mouse_2.leftButton,mouse_2.midButton,mouse_2.rightButton,mouse_2.clicked_name,Trial Type,Left Option Image,Right Option Image,Chosen Door,mouse.x,mouse.y,mouse.leftButton,mouse.midButton,mouse.rightButton,mouse.time,mouse.clicked_name,Feedback,Cumulative Reward,Block,trial.thisRepN,trial.thisTrialN,trial.thisN,trial.thisIndex,trial.ran,blocks.thisRepN,blocks.thisTrialN,blocks.thisN,blocks.thisIndex,blocks.ran,Money conversion,First Outcome Reported,Shown Door (First Outcome),Displayed Image (First Outcome),outcomes.thisRepN,outcomes.thisTrialN,outcomes.thisN,outcomes.thisIndex,outcomes.ran,judgments.thisRepN,judgments.thisTrialN,judgments.thisN,judgments.thisIndex,judgments.ran,freqMouse.x,freqMouse.y,freqMouse.leftButton,freqMouse.midButton,freqMouse.rightButton,freqMouse.clicked_name,FQJ for first outcome,FQJ for second outcome,Shown Door,Displayed Image,trials.thisRepN,trials.thisTrialN,trials.thisN,trials.thisIndex,trials.ran,judgBlock.thisRepN,judgBlock.thisTrialN,judgBlock.thisN,judgBlock.thisIndex,judgBlock.ran
1,resources/DP.BMP,resources/DR.BMP,resources/DG.BMP,resources/DBN.BMP,resources/DB.BMP,resources/DY.BMP,,2023-08-16_08h48.51.133,HF_wild_card,2022.2.4,MacIntel,59.95203837,57f18e976c19420001438a1b,64d2fd46c836a06233681665,64dc7f50a2d5bf81038bce02,,,,,,,,,,,,,,,,,,,,,,,,,,,,,,,,,,,,,,,,,,,,,,,,,,,,,,,,,,,,,,,,
,,,,,,,,2023-08-16_08h48.51.133,HF_wild_card,2022.2.4,MacIntel,59.95203837,57f18e976c19420001438a1b,64d2fd46c836a06233681665,64dc7f50a2d5bf81038bce02,0.013333333,-0.415555556,1,0,0,agree,,,,,,,,,,,,,,,,,,,,,,,,,,,,,,,,,,,,,,,,,,,,,,,,,,,,,,,,,,
,,,,,,,,2023-08-16_08h48.51.133,HF_wild_card,2022.2.4,MacIntel,59.95203837,57f18e976c19420001438a1b,64d2fd46c836a06233681665,64dc7f50a2d5bf81038bce02,,,,,,,,,,,,,,,,,,,,,,,,,,,,,,,,,,,,,,,,,,,,,,,,,,,,,,,,,,,,,,,,
,,,,,,,,2023-08-16_08h48.51.133,HF_wild_card,2022.2.4,MacIntel,59.95203837,57f18e976c19420001438a1b,64d2fd46c836a06233681665,64dc7f50a2d5bf81038bce02,,,,,,,decisionTrl,resources/DP.BMP,resources/DR.BMP,Door1,-0.283333333,-0.167777778,1,0,0,3.825,optionLeft,30,30,1,0,0,0,0,1,,,,,,,,,,,,,,,,,,,,,,,,,,,,,,,,,,,,,,,
,,,,,,,,2023-08-16_08h48.51.133,HF_wild_card,2022.2.4,MacIntel,59.95203837,57f18e976c19420001438a1b,64d2fd46c836a06233681665,64dc7f50a2d5bf81038bce02,,,,,,,decisionTrl,resources/DR.BMP,resources/DP.BMP,Door2,-0.402222222,0.004444444,1,0,0,3.079,optionLeft,20,50,1,1,0,1,0,1,,,,,,,,,,,,,,,,,,,,,,,,,,,,,,,,,,,,,,,
,,,,,,,,2023-08-16_08h48.51.133,HF_wild_card,2022.2.4,MacIntel,59.95203837,57f18e976c19420001438a1b,64d2fd46c836a06233681665,64dc7f50a2d5bf81038bce02,,,,,,,decisionTrl,resources/DR.BMP,resources/DP.BMP,Door1,0.474444444,-0.117777778,1,0,0,2.298,optionRight,30,80,1,2,0,2,0,1,,,,,,,,,,,,,,,,,,,,,,,,,,,,,,,,,,,,,,,
,,,,,,,,2023-08-16_08h48.51.133,HF_wild_card,2022.2.4,MacIntel,59.95203837,57f18e976c19420001438a1b,64d2fd46c836a06233681665,64dc7f50a2d5bf81038bce02,,,,,,,decisionTrl,resources/DBN.BMP,resources/DG.BMP,Door3,0.388888889,-0.073333333,1,0,0,2.064,optionRight,70,150,1,3,0,3,0,1,,,,,,,,,,,,,,,,,,,,,,,,,,,,,,,,,,,,,,,
,,,,,,,,2023-08-16_08h48.51.133,HF_wild_card,2022.2.4,MacIntel,59.95203837,57f18e976c19420001438a1b,64d2fd46c836a06233681665,64dc7f50a2d5bf81038bce02,,,,,,,ctch,resources/DP.BMP,resources/DBN.BMP,Door1,-0.358888889,-0.006666667,1,0,0,0.946,optionLeft,30,180,1,4,0,4,0,1,,,,,,,,,,,,,,,,,,,,,,,,,,,,,,,,,,,,,,,
,,,,,,,,2023-08-16_08h48.51.133,HF_wild_card,2022.2.4,MacIntel,59.95203837,57f18e976c19420001438a1b,64d2fd46c836a06233681665,64dc7f50a2d5bf81038bce02,,,,,,,sngl,resources/Empty.png,resources/DP.BMP,Door1,0.371111111,-0.068888889,1,0,0,1.529,optionRight,30,210,1,5,0,5,0,1,,,,,,,,,,,,,,,,,,,,,,,,,,,,,,,,,,,,,,,
,,,,,,,,2023-08-16_08h48.51.133,HF_wild_card,2022.2.4,MacIntel,59.95203837,57f18e976c19420001438a1b,64d2fd46c836a06233681665,64dc7f50a2d5bf81038bce02,,,,,,,decisionTrl,resources/DR.BMP,resources/DP.BMP,Door2,-0.342222222,0.02,1,0,0,1.549,optionLeft,40,250,1,6,0,6,0,1,,,,,,,,,,,,,,,,,,,,,,,,,,,,,,,,,,,,,,,
,,,,,,,,2023-08-16_08h48.51.133,HF_wild_card,2022.2.4,MacIntel,59.95203837,57f18e976c19420001438a1b,64d2fd46c836a06233681665,64dc7f50a2d5bf81038bce02,,,,,,,decisionTrl,resources/DG.BMP,resources/DBN.BMP,Door4,0.464444444,0.013333333,1,0,0,1.266,optionRight,60,310,1,7,0,7,0,1,,,,,,,,,,,,,,,,,,,,,,,,,,,,,,,,,,,,,,,
,,,,,,,,2023-08-16_08h48.51.133,HF_wild_card,2022.2.4,MacIntel,59.95203837,57f18e976c19420001438a1b,64d2fd46c836a06233681665,64dc7f50a2d5bf81038bce02,,,,,,,decisionTrl,resources/DBN.BMP,resources/DG.BMP,Door4,-0.293333333,0.053333333,1,0,0,1.715,optionLeft,80,390,1,8,0,8,0,1,,,,,,,,,,,,,,,,,,,,,,,,,,,,,,,,,,,,,,,
,,,,,,,,2023-08-16_08h48.51.133,HF_wild_card,2022.2.4,MacIntel,59.95203837,57f18e976c19420001438a1b,64d2fd46c836a06233681665,64dc7f50a2d5bf81038bce02,,,,,,,sngl,resources/Empty.png,resources/DY.BMP,WildCard_NonEx,0.367777778,-0.026666667,1,0,0,1.381,optionRight,55,445,1,9,0,9,0,1,,,,,,,,,,,,,,,,,,,,,,,,,,,,,,,,,,,,,,,
,,,,,,,,2023-08-16_08h48.51.133,HF_wild_card,2022.2.4,MacIntel,59.95203837,57f18e976c19420001438a1b,64d2fd46c836a06233681665,64dc7f50a2d5bf81038bce02,,,,,,,decisionTrl,resources/DY.BMP,resources/DP.BMP,WildCard_NonEx,-0.401111111,-0.027777778,1,0,0,1.798,optionLeft,45,490,1,10,0,10,0,1,,,,,,,,,,,,,,,,,,,,,,,,,,,,,,,,,,,,,,,
,,,,,,,,2023-08-16_08h48.51.133,HF_wild_card,2022.2.4,MacIntel,59.95203837,57f18e976c19420001438a1b,64d2fd46c836a06233681665,64dc7f50a2d5bf81038bce02,,,,,,,decisionTrl,resources/DP.BMP,resources/DR.BMP,Door1,-0.371111111,0.015555556,1,0,0,3.049,optionLeft,30,520,1,11,0,11,0,1,,,,,,,,,,,,,,,,,,,,,,,,,,,,,,,,,,,,,,,
,,,,,,,,2023-08-16_08h48.51.133,HF_wild_card,2022.2.4,MacIntel,59.95203837,57f18e976c19420001438a1b,64d2fd46c836a06233681665,64dc7f50a2d5bf81038bce02,,,,,,,decisionTrl,resources/DR.BMP,resources/DY.BMP,Door2,-0.49,0.018888889,1,0,0,2.013,optionLeft,40,560,1,12,0,12,0,1,,,,,,,,,,,,,,,,,,,,,,,,,,,,,,,,,,,,,,,
,,,,,,,,2023-08-16_08h48.51.133,HF_wild_card,2022.2.4,MacIntel,59.95203837,57f18e976c19420001438a1b,64d2fd46c836a06233681665,64dc7f50a2d5bf81038bce02,,,,,,,decisionTrl,resources/DY.BMP,resources/DR.BMP,WildCard_NonEx,-0.368888889,-0.004444444,1,0,0,0.998,optionLeft,45,605,1,13,0,13,0,1,,,,,,,,,,,,,,,,,,,,,,,,,,,,,,,,,,,,,,,
,,,,,,,,2023-08-16_08h48.51.133,HF_wild_card,2022.2.4,MacIntel,59.95203837,57f18e976c19420001438a1b,64d2fd46c836a06233681665,64dc7f50a2d5bf81038bce02,,,,,,,ctch,resources/DR.BMP,resources/DG.BMP,Door3,0.364444444,-0.005555556,1,0,0,1.532,optionRight,70,675,1,14,0,14,0,1,,,,,,,,,,,,,,,,,,,,,,,,,,,,,,,,,,,,,,,
,,,,,,,,2023-08-16_08h48.51.133,HF_wild_card,2022.2.4,MacIntel,59.95203837,57f18e976c19420001438a1b,64d2fd46c836a06233681665,64dc7f50a2d5bf81038bce02,,,,,,,sngl,resources/Empty.png,resources/DG.BMP,Door3,0.466666667,0.023333333,1,0,0,1.198,optionRight,70,745,1,15,0,15,0,1,,,,,,,,,,,,,,,,,,,,,,,,,,,,,,,,,,,,,,,
,,,,,,,,2023-08-16_08h48.51.133,HF_wild_card,2022.2.4,MacIntel,59.95203837,57f18e976c19420001438a1b,64d2fd46c836a06233681665,64dc7f50a2d5bf81038bce02,,,,,,,sngl,resources/DP.BMP,resources/Empty.png,Door1,-0.373333333,-0.003333333,1,0,0,1.564,optionLeft,30,775,1,16,0,16,0,1,,,,,,,,,,,,,,,,,,,,,,,,,,,,,,,,,,,,,,,
,,,,,,,,2023-08-16_08h48.51.133,HF_wild_card,2022.2.4,MacIntel,59.95203837,57f18e976c19420001438a1b,64d2fd46c836a06233681665,64dc7f50a2d5bf81038bce02,,,,,,,sngl,resources/DY.BMP,resources/Empty.png,WildCard_NonEx,-0.345555556,-0.002222222,1,0,0,1.182,optionLeft,55,830,1,17,0,17,0,1,,,,,,,,,,,,,,,,,,,,,,,,,,,,,,,,,,,,,,,
,,,,,,,,2023-08-16_08h48.51.133,HF_wild_card,2022.2.4,MacIntel,59.95203837,57f18e976c19420001438a1b,64d2fd46c836a06233681665,64dc7f50a2d5bf81038bce02,,,,,,,sngl,resources/Empty.png,resources/DY.BMP,WildCard_NonEx,0.508888889,-0.004444444,1,0,0,1.098,optionRight,45,875,1,18,0,18,0,1,,,,,,,,,,,,,,,,,,,,,,,,,,,,,,,,,,,,,,,
,,,,,,,,2023-08-16_08h48.51.133,HF_wild_card,2022.2.4,MacIntel,59.95203837,57f18e976c19420001438a1b,64d2fd46c836a06233681665,64dc7f50a2d5bf81038bce02,,,,,,,ctch,resources/DP.BMP,resources/DBN.BMP,Door4,0.402222222,0.014444444,1,0,0,1.298,optionRight,60,935,1,19,0,19,0,1,,,,,,,,,,,,,,,,,,,,,,,,,,,,,,,,,,,,,,,
,,,,,,,,2023-08-16_08h48.51.133,HF_wild_card,2022.2.4,MacIntel,59.95203837,57f18e976c19420001438a1b,64d2fd46c836a06233681665,64dc7f50a2d5bf81038bce02,,,,,,,decisionTrl,resources/DG.BMP,resources/DBN.BMP,Door4,0.497777778,-0.122222222,1,0,0,1.699,optionRight,80,1015,1,20,0,20,0,1,,,,,,,,,,,,,,,,,,,,,,,,,,,,,,,,,,,,,,,
,,,,,,,,2023-08-16_08h48.51.133,HF_wild_card,2022.2.4,MacIntel,59.95203837,57f18e976c19420001438a1b,64d2fd46c836a06233681665,64dc7f50a2d5bf81038bce02,,,,,,,decisionTrl,resources/DP.BMP,resources/DR.BMP,Door2,0.415555556,-0.043333333,1,0,0,1.749,optionRight,40,1055,1,21,0,21,0,1,,,,,,,,,,,,,,,,,,,,,,,,,,,,,,,,,,,,,,,
,,,,,,,,2023-08-16_08h48.51.133,HF_wild_card,2022.2.4,MacIntel,59.95203837,57f18e976c19420001438a1b,64d2fd46c836a06233681665,64dc7f50a2d5bf81038bce02,,,,,,,ctch,resources/DR.BMP,resources/DG.BMP,Door3,0.527777778,-0.091111111,1,0,0,1.548,optionRight,70,1125,1,22,0,22,0,1,,,,,,,,,,,,,,,,,,,,,,,,,,,,,,,,,,,,,,,
,,,,,,,,2023-08-16_08h48.51.133,HF_wild_card,2022.2.4,MacIntel,59.95203837,57f18e976c19420001438a1b,64d2fd46c836a06233681665,64dc7f50a2d5bf81038bce02,,,,,,,ctch,resources/DG.BMP,resources/DR.BMP,Door3,-0.374444444,0.046666667,1,0,0,1.264,optionLeft,70,1195,1,23,0,23,0,1,,,,,,,,,,,,,,,,,,,,,,,,,,,,,,,,,,,,,,,
,,,,,,,,2023-08-16_08h48.51.133,HF_wild_card,2022.2.4,MacIntel,59.95203837,57f18e976c19420001438a1b,64d2fd46c836a06233681665,64dc7f50a2d5bf81038bce02,,,,,,,decisionTrl,resources/DG.BMP,resources/DBN.BMP,Door4,0.334444444,0.032222222,1,0,0,1.198,optionRight,80,1275,1,24,0,24,0,1,,,,,,,,,,,,,,,,,,,,,,,,,,,,,,,,,,,,,,,
,,,,,,,,2023-08-16_08h48.51.133,HF_wild_card,2022.2.4,MacIntel,59.95203837,57f18e976c19420001438a1b,64d2fd46c836a06233681665,64dc7f50a2d5bf81038bce02,,,,,,,sngl,resources/Empty.png,resources/DBN.BMP,Door4,0.352222222,0.015555556,1,0,0,1.314,optionRight,60,1335,1,25,0,25,0,1,,,,,,,,,,,,,,,,,,,,,,,,,,,,,,,,,,,,,,,
,,,,,,,,2023-08-16_08h48.51.133,HF_wild_card,2022.2.4,MacIntel,59.95203837,57f18e976c19420001438a1b,64d2fd46c836a06233681665,64dc7f50a2d5bf81038bce02,,,,,,,decisionTrl,resources/DY.BMP,resources/DG.BMP,WildCard_NonEx,-0.35,0.025555556,1,0,0,1.782,optionLeft,55,1390,1,26,0,26,0,1,,,,,,,,,,,,,,,,,,,,,,,,,,,,,,,,,,,,,,,
,,,,,,,,2023-08-16_08h48.51.133,HF_wild_card,2022.2.4,MacIntel,59.95203837,57f18e976c19420001438a1b,64d2fd46c836a06233681665,64dc7f50a2d5bf81038bce02,,,,,,,decisionTrl,resources/DY.BMP,resources/DBN.BMP,Door4,0.464444444,0.076666667,1,0,0,1.331,optionRight,60,1450,1,27,0,27,0,1,,,,,,,,,,,,,,,,,,,,,,,,,,,,,,,,,,,,,,,
,,,,,,,,2023-08-16_08h48.51.133,HF_wild_card,2022.2.4,MacIntel,59.95203837,57f18e976c19420001438a1b,64d2fd46c836a06233681665,64dc7f50a2d5bf81038bce02,,,,,,,decisionTrl,resources/DBN.BMP,resources/DY.BMP,WildCard_NonEx,0.472222222,0.024444444,1,0,0,1.315,optionRight,45,1495,1,28,0,28,0,1,,,,,,,,,,,,,,,,,,,,,,,,,,,,,,,,,,,,,,,
,,,,,,,,2023-08-16_08h48.51.133,HF_wild_card,2022.2.4,MacIntel,59.95203837,57f18e976c19420001438a1b,64d2fd46c836a06233681665,64dc7f50a2d5bf81038bce02,,,,,,,decisionTrl,resources/DBN.BMP,resources/DG.BMP,Door4,-0.447777778,0.03,1,0,0,1.498,optionLeft,60,1555,1,29,0,29,0,1,,,,,,,,,,,,,,,,,,,,,,,,,,,,,,,,,,,,,,,
,,,,,,,,2023-08-16_08h48.51.133,HF_wild_card,2022.2.4,MacIntel,59.95203837,57f18e976c19420001438a1b,64d2fd46c836a06233681665,64dc7f50a2d5bf81038bce02,,,,,,,decisionTrl,resources/DP.BMP,resources/DR.BMP,Door2,0.377777778,-0.041111111,1,0,0,2.214,optionRight,20,1575,1,30,0,30,0,1,,,,,,,,,,,,,,,,,,,,,,,,,,,,,,,,,,,,,,,
,,,,,,,,2023-08-16_08h48.51.133,HF_wild_card,2022.2.4,MacIntel,59.95203837,57f18e976c19420001438a1b,64d2fd46c836a06233681665,64dc7f50a2d5bf81038bce02,,,,,,,decisionTrl,resources/DBN.BMP,resources/DG.BMP,Door4,-0.29,0.037777778,1,0,0,1.414,optionLeft,80,1655,1,31,0,31,0,1,,,,,,,,,,,,,,,,,,,,,,,,,,,,,,,,,,,,,,,
,,,,,,,,2023-08-16_08h48.51.133,HF_wild_card,2022.2.4,MacIntel,59.95203837,57f18e976c19420001438a1b,64d2fd46c836a06233681665,64dc7f50a2d5bf81038bce02,,,,,,,sngl,resources/DR.BMP,resources/Empty.png,Door2,-0.33,0.001111111,1,0,0,1.465,optionLeft,40,1695,1,32,0,32,0,1,,,,,,,,,,,,,,,,,,,,,,,,,,,,,,,,,,,,,,,
,,,,,,,,2023-08-16_08h48.51.133,HF_wild_card,2022.2.4,MacIntel,59.95203837,57f18e976c19420001438a1b,64d2fd46c836a06233681665,64dc7f50a2d5bf81038bce02,,,,,,,ctch,resources/DBN.BMP,resources/DP.BMP,Door4,-0.351111111,0.037777778,1,0,0,1.563,optionLeft,60,1755,1,33,0,33,0,1,,,,,,,,,,,,,,,,,,,,,,,,,,,,,,,,,,,,,,,
,,,,,,,,2023-08-16_08h48.51.133,HF_wild_card,2022.2.4,MacIntel,59.95203837,57f18e976c19420001438a1b,64d2fd46c836a06233681665,64dc7f50a2d5bf81038bce02,,,,,,,sngl,resources/Empty.png,resources/DR.BMP,Door2,0.394444444,-0.022222222,1,0,0,2.015,optionRight,20,1775,1,34,0,34,0,1,,,,,,,,,,,,,,,,,,,,,,,,,,,,,,,,,,,,,,,
,,,,,,,,2023-08-16_08h48.51.133,HF_wild_card,2022.2.4,MacIntel,59.95203837,57f18e976c19420001438a1b,64d2fd46c836a06233681665,64dc7f50a2d5bf81038bce02,,,,,,,ctch,resources/DG.BMP,resources/DR.BMP,Door3,-0.328888889,0.027777778,1,0,0,1.815,optionLeft,70,1845,1,35,0,35,0,1,,,,,,,,,,,,,,,,,,,,,,,,,,,,,,,,,,,,,,,
,,,,,,,,2023-08-16_08h48.51.133,HF_wild_card,2022.2.4,MacIntel,59.95203837,57f18e976c19420001438a1b,64d2fd46c836a06233681665,64dc7f50a2d5bf81038bce02,,,,,,,sngl,resources/DY.BMP,resources/Empty.png,WildCard_NonEx,-0.293333333,0.008888889,1,0,0,1.598,optionLeft,45,1890,1,36,0,36,0,1,,,,,,,,,,,,,,,,,,,,,,,,,,,,,,,,,,,,,,,
,,,,,,,,2023-08-16_08h48.51.133,HF_wild_card,2022.2.4,MacIntel,59.95203837,57f18e976c19420001438a1b,64d2fd46c836a06233681665,64dc7f50a2d5bf81038bce02,,,,,,,sngl,resources/DG.BMP,resources/Empty.png,Door3,-0.247777778,0.04,1,0,0,1.099,optionLeft,70,1960,1,37,0,37,0,1,,,,,,,,,,,,,,,,,,,,,,,,,,,,,,,,,,,,,,,
,,,,,,,,2023-08-16_08h48.51.133,HF_wild_card,2022.2.4,MacIntel,59.95203837,57f18e976c19420001438a1b,64d2fd46c836a06233681665,64dc7f50a2d5bf81038bce02,,,,,,,sngl,resources/DBN.BMP,resources/Empty.png,Door4,-0.367777778,0.055555556,1,0,0,1.282,optionLeft,80,2040,1,38,0,38,0,1,,,,,,,,,,,,,,,,,,,,,,,,,,,,,,,,,,,,,,,
,,,,,,,,2023-08-16_08h48.51.133,HF_wild_card,2022.2.4,MacIntel,59.95203837,57f18e976c19420001438a1b,64d2fd46c836a06233681665,64dc7f50a2d5bf81038bce02,,,,,,,ctch,resources/DBN.BMP,resources/DP.BMP,Door4,-0.276666667,0.046666667,1,0,0,1.165,optionLeft,60,2100,1,39,0,39,0,1,,,,,,,,,,,,,,,,,,,,,,,,,,,,,,,,,,,,,,,
,,,,,,,,2023-08-16_08h48.51.133,HF_wild_card,2022.2.4,MacIntel,59.95203837,57f18e976c19420001438a1b,64d2fd46c836a06233681665,64dc7f50a2d5bf81038bce02,,,,,,,decisionTrl,resources/DG.BMP,resources/DBN.BMP,Door4,0.485555556,-0.031111111,1,0,0,1.315,optionRight,80,2180,1,40,0,40,0,1,,,,,,,,,,,,,,,,,,,,,,,,,,,,,,,,,,,,,,,
,,,,,,,,2023-08-16_08h48.51.133,HF_wild_card,2022.2.4,MacIntel,59.95203837,57f18e976c19420001438a1b,64d2fd46c836a06233681665,64dc7f50a2d5bf81038bce02,,,,,,,decisionTrl,resources/DR.BMP,resources/DP.BMP,Door2,-0.374444444,0.003333333,1,0,0,2.282,optionLeft,20,2200,1,41,0,41,0,1,,,,,,,,,,,,,,,,,,,,,,,,,,,,,,,,,,,,,,,
,,,,,,,,2023-08-16_08h48.51.133,HF_wild_card,2022.2.4,MacIntel,59.95203837,57f18e976c19420001438a1b,64d2fd46c836a06233681665,64dc7f50a2d5bf81038bce02,,,,,,,decisionTrl,resources/DP.BMP,resources/DY.BMP,WildCard_NonEx,0.418888889,-0.011111111,1,0,0,1.399,optionRight,45,2245,1,42,0,42,0,1,,,,,,,,,,,,,,,,,,,,,,,,,,,,,,,,,,,,,,,
,,,,,,,,2023-08-16_08h48.51.133,HF_wild_card,2022.2.4,MacIntel,59.95203837,57f18e976c19420001438a1b,64d2fd46c836a06233681665,64dc7f50a2d5bf81038bce02,,,,,,,decisionTrl,resources/DG.BMP,resources/DY.BMP,Door3,-0.296666667,0.024444444,1,0,0,1.482,optionLeft,70,2315,1,43,0,43,0,1,,,,,,,,,,,,,,,,,,,,,,,,,,,,,,,,,,,,,,,
,,,,,,,,2023-08-16_08h48.51.133,HF_wild_card,2022.2.4,MacIntel,59.95203837,57f18e976c19420001438a1b,64d2fd46c836a06233681665,64dc7f50a2d5bf81038bce02,,,,,,,,,,,,,,,,,,,,,,,,,,0,0,0,0,1,,,,,,,,,,,,,,,,,,,,,,,,,,,,,,,,,,
,,,,,,,,2023-08-16_08h48.51.133,HF_wild_card,2022.2.4,MacIntel,59.95203837,57f18e976c19420001438a1b,64d2fd46c836a06233681665,64dc7f50a2d5bf81038bce02,,,,,,,sngl,resources/Empty.png,resources/DBN.BMP,Door4,0.356666667,-0.016666667,1,0,0,1.393,optionRight,80,2395,2,0,0,0,0,1,,,,,,,,,,,,,,,,,,,,,,,,,,,,,,,,,,,,,,,
,,,,,,,,2023-08-16_08h48.51.133,HF_wild_card,2022.2.4,MacIntel,59.95203837,57f18e976c19420001438a1b,64d2fd46c836a06233681665,64dc7f50a2d5bf81038bce02,,,,,,,sngl,resources/Empty.png,resources/DG.BMP,Door3,0.364444444,0.024444444,1,0,0,0.898,optionRight,70,2465,2,1,0,1,0,1,,,,,,,,,,,,,,,,,,,,,,,,,,,,,,,,,,,,,,,
,,,,,,,,2023-08-16_08h48.51.133,HF_wild_card,2022.2.4,MacIntel,59.95203837,57f18e976c19420001438a1b,64d2fd46c836a06233681665,64dc7f50a2d5bf81038bce02,,,,,,,decisionTrl,resources/DG.BMP,resources/DBN.BMP,Door4,0.332222222,0.025555556,1,0,0,1.432,optionRight,60,2525,2,2,0,2,0,1,,,,,,,,,,,,,,,,,,,,,,,,,,,,,,,,,,,,,,,
,,,,,,,,2023-08-16_08h48.51.133,HF_wild_card,2022.2.4,MacIntel,59.95203837,57f18e976c19420001438a1b,64d2fd46c836a06233681665,64dc7f50a2d5bf81038bce02,,,,,,,decisionTrl,resources/DBN.BMP,resources/DG.BMP,Door3,0.491111111,-0.104444444,1,0,0,2.231,optionRight,70,2595,2,3,0,3,0,1,,,,,,,,,,,,,,,,,,,,,,,,,,,,,,,,,,,,,,,
,,,,,,,,2023-08-16_08h48.51.133,HF_wild_card,2022.2.4,MacIntel,59.95203837,57f18e976c19420001438a1b,64d2fd46c836a06233681665,64dc7f50a2d5bf81038bce02,,,,,,,sngl,resources/Empty.png,resources/DR.BMP,Door2,0.415555556,-0.02,1,0,0,1.064,optionRight,40,2635,2,4,0,4,0,1,,,,,,,,,,,,,,,,,,,,,,,,,,,,,,,,,,,,,,,
,,,,,,,,2023-08-16_08h48.51.133,HF_wild_card,2022.2.4,MacIntel,59.95203837,57f18e976c19420001438a1b,64d2fd46c836a06233681665,64dc7f50a2d5bf81038bce02,,,,,,,decisionTrl,resources/DP.BMP,resources/DR.BMP,Door2,0.318888889,-0.032222222,1,0,0,2.282,optionRight,40,2675,2,5,0,5,0,1,,,,,,,,,,,,,,,,,,,,,,,,,,,,,,,,,,,,,,,
,,,,,,,,2023-08-16_08h48.51.133,HF_wild_card,2022.2.4,MacIntel,59.95203837,57f18e976c19420001438a1b,64d2fd46c836a06233681665,64dc7f50a2d5bf81038bce02,,,,,,,decisionTrl,resources/DY.BMP,resources/DG.BMP,Door3,0.334444444,0.021111111,1,0,0,1.515,optionRight,70,2745,2,6,0,6,0,1,,,,,,,,,,,,,,,,,,,,,,,,,,,,,,,,,,,,,,,
,,,,,,,,2023-08-16_08h48.51.133,HF_wild_card,2022.2.4,MacIntel,59.95203837,57f18e976c19420001438a1b,64d2fd46c836a06233681665,64dc7f50a2d5bf81038bce02,,,,,,,decisionTrl,resources/DP.BMP,resources/DY.BMP,WildCard_NonEx,0.31,0.016666667,1,0,0,1.531,optionRight,45,2790,2,7,0,7,0,1,,,,,,,,,,,,,,,,,,,,,,,,,,,,,,,,,,,,,,,
,,,,,,,,2023-08-16_08h48.51.133,HF_wild_card,2022.2.4,MacIntel,59.95203837,57f18e976c19420001438a1b,64d2fd46c836a06233681665,64dc7f50a2d5bf81038bce02,,,,,,,sngl,resources/Empty.png,resources/DY.BMP,WildCard_NonEx,0.403333333,0.01,1,0,0,0.999,optionRight,55,2845,2,8,0,8,0,1,,,,,,,,,,,,,,,,,,,,,,,,,,,,,,,,,,,,,,,
,,,,,,,,2023-08-16_08h48.51.133,HF_wild_card,2022.2.4,MacIntel,59.95203837,57f18e976c19420001438a1b,64d2fd46c836a06233681665,64dc7f50a2d5bf81038bce02,,,,,,,decisionTrl,resources/DR.BMP,resources/DY.BMP,Door2,-0.314444444,-0.017777778,1,0,0,1.447,optionLeft,20,2865,2,9,0,9,0,1,,,,,,,,,,,,,,,,,,,,,,,,,,,,,,,,,,,,,,,
,,,,,,,,2023-08-16_08h48.51.133,HF_wild_card,2022.2.4,MacIntel,59.95203837,57f18e976c19420001438a1b,64d2fd46c836a06233681665,64dc7f50a2d5bf81038bce02,,,,,,,decisionTrl,resources/DG.BMP,resources/DBN.BMP,Door3,-0.357777778,0.043333333,1,0,0,2.097,optionLeft,70,2935,2,10,0,10,0,1,,,,,,,,,,,,,,,,,,,,,,,,,,,,,,,,,,,,,,,
,,,,,,,,2023-08-16_08h48.51.133,HF_wild_card,2022.2.4,MacIntel,59.95203837,57f18e976c19420001438a1b,64d2fd46c836a06233681665,64dc7f50a2d5bf81038bce02,,,,,,,ctch,resources/DG.BMP,resources/DR.BMP,Door3,-0.39,-0.011111111,1,0,0,1.398,optionLeft,70,3005,2,11,0,11,0,1,,,,,,,,,,,,,,,,,,,,,,,,,,,,,,,,,,,,,,,
,,,,,,,,2023-08-16_08h48.51.133,HF_wild_card,2022.2.4,MacIntel,59.95203837,57f18e976c19420001438a1b,64d2fd46c836a06233681665,64dc7f50a2d5bf81038bce02,,,,,,,decisionTrl,resources/DG.BMP,resources/DY.BMP,Door3,-0.278888889,0.076666667,1,0,0,1.165,optionLeft,70,3075,2,12,0,12,0,1,,,,,,,,,,,,,,,,,,,,,,,,,,,,,,,,,,,,,,,
,,,,,,,,2023-08-16_08h48.51.133,HF_wild_card,2022.2.4,MacIntel,59.95203837,57f18e976c19420001438a1b,64d2fd46c836a06233681665,64dc7f50a2d5bf81038bce02,,,,,,,decisionTrl,resources/DG.BMP,resources/DBN.BMP,Door3,-0.281111111,0.081111111,1,0,0,1.348,optionLeft,70,3145,2,13,0,13,0,1,,,,,,,,,,,,,,,,,,,,,,,,,,,,,,,,,,,,,,,
,,,,,,,,2023-08-16_08h48.51.133,HF_wild_card,2022.2.4,MacIntel,59.95203837,57f18e976c19420001438a1b,64d2fd46c836a06233681665,64dc7f50a2d5bf81038bce02,,,,,,,sngl,resources/Empty.png,resources/DP.BMP,Door1,0.41,-0.055555556,1,0,0,1.381,optionRight,30,3175,2,14,0,14,0,1,,,,,,,,,,,,,,,,,,,,,,,,,,,,,,,,,,,,,,,
,,,,,,,,2023-08-16_08h48.51.133,HF_wild_card,2022.2.4,MacIntel,59.95203837,57f18e976c19420001438a1b,64d2fd46c836a06233681665,64dc7f50a2d5bf81038bce02,,,,,,,decisionTrl,resources/DR.BMP,resources/DP.BMP,Door1,0.268888889,-0.022222222,1,0,0,2.017,optionRight,30,3205,2,15,0,15,0,1,,,,,,,,,,,,,,,,,,,,,,,,,,,,,,,,,,,,,,,
,,,,,,,,2023-08-16_08h48.51.133,HF_wild_card,2022.2.4,MacIntel,59.95203837,57f18e976c19420001438a1b,64d2fd46c836a06233681665,64dc7f50a2d5bf81038bce02,,,,,,,decisionTrl,resources/DY.BMP,resources/DP.BMP,WildCard_NonEx,-0.361111111,0.037777778,1,0,0,1.299,optionLeft,55,3260,2,16,0,16,0,1,,,,,,,,,,,,,,,,,,,,,,,,,,,,,,,,,,,,,,,
,,,,,,,,2023-08-16_08h48.51.133,HF_wild_card,2022.2.4,MacIntel,59.95203837,57f18e976c19420001438a1b,64d2fd46c836a06233681665,64dc7f50a2d5bf81038bce02,,,,,,,decisionTrl,resources/DR.BMP,resources/DP.BMP,Door1,0.34,-0.018888889,1,0,0,1.5,optionRight,30,3290,2,17,0,17,0,1,,,,,,,,,,,,,,,,,,,,,,,,,,,,,,,,,,,,,,,
,,,,,,,,2023-08-16_08h48.51.133,HF_wild_card,2022.2.4,MacIntel,59.95203837,57f18e976c19420001438a1b,64d2fd46c836a06233681665,64dc7f50a2d5bf81038bce02,,,,,,,ctch,resources/DBN.BMP,resources/DP.BMP,Door4,-0.3,0.058888889,1,0,0,1.197,optionLeft,60,3350,2,18,0,18,0,1,,,,,,,,,,,,,,,,,,,,,,,,,,,,,,,,,,,,,,,
,,,,,,,,2023-08-16_08h48.51.133,HF_wild_card,2022.2.4,MacIntel,59.95203837,57f18e976c19420001438a1b,64d2fd46c836a06233681665,64dc7f50a2d5bf81038bce02,,,,,,,decisionTrl,resources/DG.BMP,resources/DBN.BMP,Door3,-0.402222222,0.088888889,1,0,0,1.282,optionLeft,70,3420,2,19,0,19,0,1,,,,,,,,,,,,,,,,,,,,,,,,,,,,,,,,,,,,,,,
,,,,,,,,2023-08-16_08h48.51.133,HF_wild_card,2022.2.4,MacIntel,59.95203837,57f18e976c19420001438a1b,64d2fd46c836a06233681665,64dc7f50a2d5bf81038bce02,,,,,,,decisionTrl,resources/DBN.BMP,resources/DY.BMP,Door4,-0.367777778,0.055555556,1,0,0,1.398,optionLeft,80,3500,2,20,0,20,0,1,,,,,,,,,,,,,,,,,,,,,,,,,,,,,,,,,,,,,,,
,,,,,,,,2023-08-16_08h48.51.133,HF_wild_card,2022.2.4,MacIntel,59.95203837,57f18e976c19420001438a1b,64d2fd46c836a06233681665,64dc7f50a2d5bf81038bce02,,,,,,,decisionTrl,resources/DR.BMP,resources/DP.BMP,Door2,-0.322222222,0.037777778,1,0,0,1.764,optionLeft,20,3520,2,21,0,21,0,1,,,,,,,,,,,,,,,,,,,,,,,,,,,,,,,,,,,,,,,
,,,,,,,,2023-08-16_08h48.51.133,HF_wild_card,2022.2.4,MacIntel,59.95203837,57f18e976c19420001438a1b,64d2fd46c836a06233681665,64dc7f50a2d5bf81038bce02,,,,,,,sngl,resources/DY.BMP,resources/Empty.png,WildCard_NonEx,-0.363333333,0.025555556,1,0,0,0.981,optionLeft,45,3565,2,22,0,22,0,1,,,,,,,,,,,,,,,,,,,,,,,,,,,,,,,,,,,,,,,
,,,,,,,,2023-08-16_08h48.51.133,HF_wild_card,2022.2.4,MacIntel,59.95203837,57f18e976c19420001438a1b,64d2fd46c836a06233681665,64dc7f50a2d5bf81038bce02,,,,,,,ctch,resources/DG.BMP,resources/DR.BMP,Door3,-0.297777778,0.05,1,0,0,1.481,optionLeft,70,3635,2,23,0,23,0,1,,,,,,,,,,,,,,,,,,,,,,,,,,,,,,,,,,,,,,,
,,,,,,,,2023-08-16_08h48.51.133,HF_wild_card,2022.2.4,MacIntel,59.95203837,57f18e976c19420001438a1b,64d2fd46c836a06233681665,64dc7f50a2d5bf81038bce02,,,,,,,ctch,resources/DP.BMP,resources/DBN.BMP,Door4,0.377777778,0.046666667,1,0,0,1.849,optionRight,60,3695,2,24,0,24,0,1,,,,,,,,,,,,,,,,,,,,,,,,,,,,,,,,,,,,,,,
,,,,,,,,2023-08-16_08h48.51.133,HF_wild_card,2022.2.4,MacIntel,59.95203837,57f18e976c19420001438a1b,64d2fd46c836a06233681665,64dc7f50a2d5bf81038bce02,,,,,,,sngl,resources/DG.BMP,resources/Empty.png,Door3,-0.273333333,0.064444444,1,0,0,1.149,optionLeft,70,3765,2,25,0,25,0,1,,,,,,,,,,,,,,,,,,,,,,,,,,,,,,,,,,,,,,,
,,,,,,,,2023-08-16_08h48.51.133,HF_wild_card,2022.2.4,MacIntel,59.95203837,57f18e976c19420001438a1b,64d2fd46c836a06233681665,64dc7f50a2d5bf81038bce02,,,,,,,sngl,resources/Empty.png,resources/DY.BMP,WildCard_NonEx,0.454444444,-0.032222222,1,0,0,1.065,optionRight,45,3810,2,26,0,26,0,1,,,,,,,,,,,,,,,,,,,,,,,,,,,,,,,,,,,,,,,
,,,,,,,,2023-08-16_08h48.51.133,HF_wild_card,2022.2.4,MacIntel,59.95203837,57f18e976c19420001438a1b,64d2fd46c836a06233681665,64dc7f50a2d5bf81038bce02,,,,,,,ctch,resources/DP.BMP,resources/DBN.BMP,Door4,0.398888889,0.05,1,0,0,1.365,optionRight,60,3870,2,27,0,27,0,1,,,,,,,,,,,,,,,,,,,,,,,,,,,,,,,,,,,,,,,
,,,,,,,,2023-08-16_08h48.51.133,HF_wild_card,2022.2.4,MacIntel,59.95203837,57f18e976c19420001438a1b,64d2fd46c836a06233681665,64dc7f50a2d5bf81038bce02,,,,,,,decisionTrl,resources/DP.BMP,resources/DR.BMP,Door1,-0.452222222,0.061111111,1,0,0,2.613,optionLeft,30,3900,2,28,0,28,0,1,,,,,,,,,,,,,,,,,,,,,,,,,,,,,,,,,,,,,,,
,,,,,,,,2023-08-16_08h48.51.133,HF_wild_card,2022.2.4,MacIntel,59.95203837,57f18e976c19420001438a1b,64d2fd46c836a06233681665,64dc7f50a2d5bf81038bce02,,,,,,,sngl,resources/DBN.BMP,resources/Empty.png,Door4,-0.425555556,0.112222222,1,0,0,0.981,optionLeft,60,3960,2,29,0,29,0,1,,,,,,,,,,,,,,,,,,,,,,,,,,,,,,,,,,,,,,,
,,,,,,,,2023-08-16_08h48.51.133,HF_wild_card,2022.2.4,MacIntel,59.95203837,57f18e976c19420001438a1b,64d2fd46c836a06233681665,64dc7f50a2d5bf81038bce02,,,,,,,ctch,resources/DBN.BMP,resources/DP.BMP,Door4,-0.29,0.012222222,1,0,0,1.763,optionLeft,80,4040,2,30,0,30,0,1,,,,,,,,,,,,,,,,,,,,,,,,,,,,,,,,,,,,,,,
,,,,,,,,2023-08-16_08h48.51.133,HF_wild_card,2022.2.4,MacIntel,59.95203837,57f18e976c19420001438a1b,64d2fd46c836a06233681665,64dc7f50a2d5bf81038bce02,,,,,,,decisionTrl,resources/DP.BMP,resources/DR.BMP,Door1,-0.341111111,0.03,1,0,0,3.298,optionLeft,30,4070,2,31,0,31,0,1,,,,,,,,,,,,,,,,,,,,,,,,,,,,,,,,,,,,,,,
,,,,,,,,2023-08-16_08h48.51.133,HF_wild_card,2022.2.4,MacIntel,59.95203837,57f18e976c19420001438a1b,64d2fd46c836a06233681665,64dc7f50a2d5bf81038bce02,,,,,,,ctch,resources/DR.BMP,resources/DG.BMP,Door3,0.443333333,-0.04,1,0,0,1.331,optionRight,70,4140,2,32,0,32,0,1,,,,,,,,,,,,,,,,,,,,,,,,,,,,,,,,,,,,,,,
,,,,,,,,2023-08-16_08h48.51.133,HF_wild_card,2022.2.4,MacIntel,59.95203837,57f18e976c19420001438a1b,64d2fd46c836a06233681665,64dc7f50a2d5bf81038bce02,,,,,,,ctch,resources/DR.BMP,resources/DG.BMP,Door3,0.306666667,0.033333333,1,0,0,1.349,optionRight,70,4210,2,33,0,33,0,1,,,,,,,,,,,,,,,,,,,,,,,,,,,,,,,,,,,,,,,
,,,,,,,,2023-08-16_08h48.51.133,HF_wild_card,2022.2.4,MacIntel,59.95203837,57f18e976c19420001438a1b,64d2fd46c836a06233681665,64dc7f50a2d5bf81038bce02,,,,,,,decisionTrl,resources/DY.BMP,resources/DR.BMP,WildCard_NonEx,-0.318888889,0.052222222,1,0,0,2.715,optionLeft,55,4265,2,34,0,34,0,1,,,,,,,,,,,,,,,,,,,,,,,,,,,,,,,,,,,,,,,
,,,,,,,,2023-08-16_08h48.51.133,HF_wild_card,2022.2.4,MacIntel,59.95203837,57f18e976c19420001438a1b,64d2fd46c836a06233681665,64dc7f50a2d5bf81038bce02,,,,,,,decisionTrl,resources/DP.BMP,resources/DR.BMP,Door1,-0.298888889,0.017777778,1,0,0,1.648,optionLeft,30,4295,2,35,0,35,0,1,,,,,,,,,,,,,,,,,,,,,,,,,,,,,,,,,,,,,,,
,,,,,,,,2023-08-16_08h48.51.133,HF_wild_card,2022.2.4,MacIntel,59.95203837,57f18e976c19420001438a1b,64d2fd46c836a06233681665,64dc7f50a2d5bf81038bce02,,,,,,,decisionTrl,resources/DBN.BMP,resources/DG.BMP,Door3,0.394444444,0.062222222,1,0,0,1.615,optionRight,70,4365,2,36,0,36,0,1,,,,,,,,,,,,,,,,,,,,,,,,,,,,,,,,,,,,,,,
,,,,,,,,2023-08-16_08h48.51.133,HF_wild_card,2022.2.4,MacIntel,59.95203837,57f18e976c19420001438a1b,64d2fd46c836a06233681665,64dc7f50a2d5bf81038bce02,,,,,,,decisionTrl,resources/DBN.BMP,resources/DG.BMP,Door4,-0.29,0.043333333,1,0,0,1.147,optionLeft,60,4425,2,37,0,37,0,1,,,,,,,,,,,,,,,,,,,,,,,,,,,,,,,,,,,,,,,
,,,,,,,,2023-08-16_08h48.51.133,HF_wild_card,2022.2.4,MacIntel,59.95203837,57f18e976c19420001438a1b,64d2fd46c836a06233681665,64dc7f50a2d5bf81038bce02,,,,,,,decisionTrl,resources/DY.BMP,resources/DBN.BMP,WildCard_NonEx,-0.407777778,0.085555556,1,0,0,1.514,optionLeft,55,4480,2,38,0,38,0,1,,,,,,,,,,,,,,,,,,,,,,,,,,,,,,,,,,,,,,,
,,,,,,,,2023-08-16_08h48.51.133,HF_wild_card,2022.2.4,MacIntel,59.95203837,57f18e976c19420001438a1b,64d2fd46c836a06233681665,64dc7f50a2d5bf81038bce02,,,,,,,sngl,resources/DP.BMP,resources/Empty.png,Door1,-0.266666667,0.006666667,1,0,0,1.198,optionLeft,30,4510,2,39,0,39,0,1,,,,,,,,,,,,,,,,,,,,,,,,,,,,,,,,,,,,,,,
,,,,,,,,2023-08-16_08h48.51.133,HF_wild_card,2022.2.4,MacIntel,59.95203837,57f18e976c19420001438a1b,64d2fd46c836a06233681665,64dc7f50a2d5bf81038bce02,,,,,,,decisionTrl,resources/DBN.BMP,resources/DG.BMP,Door3,0.417777778,0.071111111,1,0,0,1.431,optionRight,70,4580,2,40,0,40,0,1,,,,,,,,,,,,,,,,,,,,,,,,,,,,,,,,,,,,,,,
,,,,,,,,2023-08-16_08h48.51.133,HF_wild_card,2022.2.4,MacIntel,59.95203837,57f18e976c19420001438a1b,64d2fd46c836a06233681665,64dc7f50a2d5bf81038bce02,,,,,,,sngl,resources/DY.BMP,resources/Empty.png,WildCard_NonEx,-0.285555556,0.027777778,1,0,0,1.565,optionLeft,55,4635,2,41,0,41,0,1,,,,,,,,,,,,,,,,,,,,,,,,,,,,,,,,,,,,,,,
,,,,,,,,2023-08-16_08h48.51.133,HF_wild_card,2022.2.4,MacIntel,59.95203837,57f18e976c19420001438a1b,64d2fd46c836a06233681665,64dc7f50a2d5bf81038bce02,,,,,,,decisionTrl,resources/DR.BMP,resources/DP.BMP,Door1,0.308888889,0.028888889,1,0,0,2.566,optionRight,30,4665,2,42,0,42,0,1,,,,,,,,,,,,,,,,,,,,,,,,,,,,,,,,,,,,,,,
,,,,,,,,2023-08-16_08h48.51.133,HF_wild_card,2022.2.4,MacIntel,59.95203837,57f18e976c19420001438a1b,64d2fd46c836a06233681665,64dc7f50a2d5bf81038bce02,,,,,,,sngl,resources/DR.BMP,resources/Empty.png,Door2,-0.36,-0.003333333,1,0,0,0.948,optionLeft,20,4685,2,43,0,43,0,1,,,,,,,,,,,,,,,,,,,,,,,,,,,,,,,,,,,,,,,
,,,,,,,,2023-08-16_08h48.51.133,HF_wild_card,2022.2.4,MacIntel,59.95203837,57f18e976c19420001438a1b,64d2fd46c836a06233681665,64dc7f50a2d5bf81038bce02,,,,,,,,,,,,,,,,,,,,,,,,,,1,0,1,0,1,,,,,,,,,,,,,,,,,,,,,,,,,,,,,,,,,,
,,,,,,,,2023-08-16_08h48.51.133,HF_wild_card,2022.2.4,MacIntel,59.95203837,57f18e976c19420001438a1b,64d2fd46c836a06233681665,64dc7f50a2d5bf81038bce02,,,,,,,ctch,resources/DG.BMP,resources/DR.BMP,Door3,-0.307777778,-0.111111111,1,0,0,3.547,optionLeft,70,4755,3,0,0,0,0,1,,,,,,,,,,,,,,,,,,,,,,,,,,,,,,,,,,,,,,,
,,,,,,,,2023-08-16_08h48.51.133,HF_wild_card,2022.2.4,MacIntel,59.95203837,57f18e976c19420001438a1b,64d2fd46c836a06233681665,64dc7f50a2d5bf81038bce02,,,,,,,sngl,resources/DBN.BMP,resources/Empty.png,Door4,-0.423333333,-0.008888889,1,0,0,0.732,optionLeft,80,4835,3,1,0,1,0,1,,,,,,,,,,,,,,,,,,,,,,,,,,,,,,,,,,,,,,,
,,,,,,,,2023-08-16_08h48.51.133,HF_wild_card,2022.2.4,MacIntel,59.95203837,57f18e976c19420001438a1b,64d2fd46c836a06233681665,64dc7f50a2d5bf81038bce02,,,,,,,decisionTrl,resources/DBN.BMP,resources/DG.BMP,Door4,-0.31,0.03,1,0,0,1.948,optionLeft,80,4915,3,2,0,2,0,1,,,,,,,,,,,,,,,,,,,,,,,,,,,,,,,,,,,,,,,
,,,,,,,,2023-08-16_08h48.51.133,HF_wild_card,2022.2.4,MacIntel,59.95203837,57f18e976c19420001438a1b,64d2fd46c836a06233681665,64dc7f50a2d5bf81038bce02,,,,,,,decisionTrl,resources/DY.BMP,resources/DBN.BMP,Door4,0.385555556,-0.01,1,0,0,2.536,optionRight,80,4995,3,3,0,3,0,1,,,,,,,,,,,,,,,,,,,,,,,,,,,,,,,,,,,,,,,
,,,,,,,,2023-08-16_08h48.51.133,HF_wild_card,2022.2.4,MacIntel,59.95203837,57f18e976c19420001438a1b,64d2fd46c836a06233681665,64dc7f50a2d5bf81038bce02,,,,,,,decisionTrl,resources/DBN.BMP,resources/DG.BMP,Door4,-0.351111111,-0.054444444,1,0,0,1.214,optionLeft,80,5075,3,4,0,4,0,1,,,,,,,,,,,,,,,,,,,,,,,,,,,,,,,,,,,,,,,
,,,,,,,,2023-08-16_08h48.51.133,HF_wild_card,2022.2.4,MacIntel,59.95203837,57f18e976c19420001438a1b,64d2fd46c836a06233681665,64dc7f50a2d5bf81038bce02,,,,,,,decisionTrl,resources/DP.BMP,resources/DR.BMP,Door2,0.353333333,0.021111111,1,0,0,1.598,optionRight,20,5095,3,5,0,5,0,1,,,,,,,,,,,,,,,,,,,,,,,,,,,,,,,,,,,,,,,
,,,,,,,,2023-08-16_08h48.51.133,HF_wild_card,2022.2.4,MacIntel,59.95203837,57f18e976c19420001438a1b,64d2fd46c836a06233681665,64dc7f50a2d5bf81038bce02,,,,,,,ctch,resources/DP.BMP,resources/DBN.BMP,Door4,0.484444444,0.025555556,1,0,0,1.365,optionRight,80,5175,3,6,0,6,0,1,,,,,,,,,,,,,,,,,,,,,,,,,,,,,,,,,,,,,,,
,,,,,,,,2023-08-16_08h48.51.133,HF_wild_card,2022.2.4,MacIntel,59.95203837,57f18e976c19420001438a1b,64d2fd46c836a06233681665,64dc7f50a2d5bf81038bce02,,,,,,,ctch,resources/DBN.BMP,resources/DP.BMP,Door4,-0.448888889,0.046666667,1,0,0,1.116,optionLeft,60,5235,3,7,0,7,0,1,,,,,,,,,,,,,,,,,,,,,,,,,,,,,,,,,,,,,,,
,,,,,,,,2023-08-16_08h48.51.133,HF_wild_card,2022.2.4,MacIntel,59.95203837,57f18e976c19420001438a1b,64d2fd46c836a06233681665,64dc7f50a2d5bf81038bce02,,,,,,,decisionTrl,resources/DY.BMP,resources/DR.BMP,WildCard_NonEx,-0.292222222,-0.011111111,1,0,0,1.298,optionLeft,45,5280,3,8,0,8,0,1,,,,,,,,,,,,,,,,,,,,,,,,,,,,,,,,,,,,,,,
,,,,,,,,2023-08-16_08h48.51.133,HF_wild_card,2022.2.4,MacIntel,59.95203837,57f18e976c19420001438a1b,64d2fd46c836a06233681665,64dc7f50a2d5bf81038bce02,,,,,,,decisionTrl,resources/DP.BMP,resources/DR.BMP,Door1,-0.401111111,-0.002222222,1,0,0,1.248,optionLeft,30,5310,3,9,0,9,0,1,,,,,,,,,,,,,,,,,,,,,,,,,,,,,,,,,,,,,,,
,,,,,,,,2023-08-16_08h48.51.133,HF_wild_card,2022.2.4,MacIntel,59.95203837,57f18e976c19420001438a1b,64d2fd46c836a06233681665,64dc7f50a2d5bf81038bce02,,,,,,,ctch,resources/DG.BMP,resources/DR.BMP,Door3,-0.33,-0.01,1,0,0,1.315,optionLeft,70,5380,3,10,0,10,0,1,,,,,,,,,,,,,,,,,,,,,,,,,,,,,,,,,,,,,,,
,,,,,,,,2023-08-16_08h48.51.133,HF_wild_card,2022.2.4,MacIntel,59.95203837,57f18e976c19420001438a1b,64d2fd46c836a06233681665,64dc7f50a2d5bf81038bce02,,,,,,,decisionTrl,resources/DG.BMP,resources/DBN.BMP,Door4,0.481111111,0.072222222,1,0,0,1.264,optionRight,80,5460,3,11,0,11,0,1,,,,,,,,,,,,,,,,,,,,,,,,,,,,,,,,,,,,,,,
,,,,,,,,2023-08-16_08h48.51.133,HF_wild_card,2022.2.4,MacIntel,59.95203837,57f18e976c19420001438a1b,64d2fd46c836a06233681665,64dc7f50a2d5bf81038bce02,,,,,,,sngl,resources/Empty.png,resources/DY.BMP,WildCard_NonEx,0.325555556,0.05,1,0,0,1.163,optionRight,55,5515,3,12,0,12,0,1,,,,,,,,,,,,,,,,,,,,,,,,,,,,,,,,,,,,,,,
,,,,,,,,2023-08-16_08h48.51.133,HF_wild_card,2022.2.4,MacIntel,59.95203837,57f18e976c19420001438a1b,64d2fd46c836a06233681665,64dc7f50a2d5bf81038bce02,,,,,,,ctch,resources/DBN.BMP,resources/DP.BMP,Door4,-0.238888889,0.061111111,1,0,0,1.582,optionLeft,60,5575,3,13,0,13,0,1,,,,,,,,,,,,,,,,,,,,,,,,,,,,,,,,,,,,,,,
,,,,,,,,2023-08-16_08h48.51.133,HF_wild_card,2022.2.4,MacIntel,59.95203837,57f18e976c19420001438a1b,64d2fd46c836a06233681665,64dc7f50a2d5bf81038bce02,,,,,,,sngl,resources/DY.BMP,resources/Empty.png,WildCard_NonEx,-0.328888889,0.032222222,1,0,0,1.414,optionLeft,45,5620,3,14,0,14,0,1,,,,,,,,,,,,,,,,,,,,,,,,,,,,,,,,,,,,,,,
,,,,,,,,2023-08-16_08h48.51.133,HF_wild_card,2022.2.4,MacIntel,59.95203837,57f18e976c19420001438a1b,64d2fd46c836a06233681665,64dc7f50a2d5bf81038bce02,,,,,,,decisionTrl,resources/DBN.BMP,resources/DY.BMP,Door4,-0.273333333,0.028888889,1,0,0,1.547,optionLeft,60,5680,3,15,0,15,0,1,,,,,,,,,,,,,,,,,,,,,,,,,,,,,,,,,,,,,,,
,,,,,,,,2023-08-16_08h48.51.133,HF_wild_card,2022.2.4,MacIntel,59.95203837,57f18e976c19420001438a1b,64d2fd46c836a06233681665,64dc7f50a2d5bf81038bce02,,,,,,,sngl,resources/Empty.png,resources/DY.BMP,WildCard_NonEx,0.306666667,0.042222222,1,0,0,1.099,optionRight,45,5725,3,16,0,16,0,1,,,,,,,,,,,,,,,,,,,,,,,,,,,,,,,,,,,,,,,
,,,,,,,,2023-08-16_08h48.51.133,HF_wild_card,2022.2.4,MacIntel,59.95203837,57f18e976c19420001438a1b,64d2fd46c836a06233681665,64dc7f50a2d5bf81038bce02,,,,,,,sngl,resources/DP.BMP,resources/Empty.png,Door1,-0.378888889,0.035555556,1,0,0,1.032,optionLeft,30,5755,3,17,0,17,0,1,,,,,,,,,,,,,,,,,,,,,,,,,,,,,,,,,,,,,,,
,,,,,,,,2023-08-16_08h48.51.133,HF_wild_card,2022.2.4,MacIntel,59.95203837,57f18e976c19420001438a1b,64d2fd46c836a06233681665,64dc7f50a2d5bf81038bce02,,,,,,,sngl,resources/Empty.png,resources/DR.BMP,Door2,0.296666667,0.012222222,1,0,0,0.914,optionRight,20,5775,3,18,0,18,0,1,,,,,,,,,,,,,,,,,,,,,,,,,,,,,,,,,,,,,,,
,,,,,,,,2023-08-16_08h48.51.133,HF_wild_card,2022.2.4,MacIntel,59.95203837,57f18e976c19420001438a1b,64d2fd46c836a06233681665,64dc7f50a2d5bf81038bce02,,,,,,,decisionTrl,resources/DG.BMP,resources/DBN.BMP,Door3,-0.412222222,0.063333333,1,0,0,1.363,optionLeft,70,5845,3,19,0,19,0,1,,,,,,,,,,,,,,,,,,,,,,,,,,,,,,,,,,,,,,,
,,,,,,,,2023-08-16_08h48.51.133,HF_wild_card,2022.2.4,MacIntel,59.95203837,57f18e976c19420001438a1b,64d2fd46c836a06233681665,64dc7f50a2d5bf81038bce02,,,,,,,decisionTrl,resources/DR.BMP,resources/DP.BMP,Door1,0.341111111,-0.018888889,1,0,0,2.165,optionRight,30,5875,3,20,0,20,0,1,,,,,,,,,,,,,,,,,,,,,,,,,,,,,,,,,,,,,,,
,,,,,,,,2023-08-16_08h48.51.133,HF_wild_card,2022.2.4,MacIntel,59.95203837,57f18e976c19420001438a1b,64d2fd46c836a06233681665,64dc7f50a2d5bf81038bce02,,,,,,,decisionTrl,resources/DR.BMP,resources/DP.BMP,Door1,0.365555556,0.001111111,1,0,0,1.065,optionRight,30,5905,3,21,0,21,0,1,,,,,,,,,,,,,,,,,,,,,,,,,,,,,,,,,,,,,,,
,,,,,,,,2023-08-16_08h48.51.133,HF_wild_card,2022.2.4,MacIntel,59.95203837,57f18e976c19420001438a1b,64d2fd46c836a06233681665,64dc7f50a2d5bf81038bce02,,,,,,,sngl,resources/Empty.png,resources/DBN.BMP,Door4,0.402222222,0.045555556,1,0,0,0.999,optionRight,60,5965,3,22,0,22,0,1,,,,,,,,,,,,,,,,,,,,,,,,,,,,,,,,,,,,,,,
,,,,,,,,2023-08-16_08h48.51.133,HF_wild_card,2022.2.4,MacIntel,59.95203837,57f18e976c19420001438a1b,64d2fd46c836a06233681665,64dc7f50a2d5bf81038bce02,,,,,,,decisionTrl,resources/DR.BMP,resources/DP.BMP,Door2,-0.398888889,-0.024444444,1,0,0,1.616,optionLeft,40,6005,3,23,0,23,0,1,,,,,,,,,,,,,,,,,,,,,,,,,,,,,,,,,,,,,,,
,,,,,,,,2023-08-16_08h48.51.133,HF_wild_card,2022.2.4,MacIntel,59.95203837,57f18e976c19420001438a1b,64d2fd46c836a06233681665,64dc7f50a2d5bf81038bce02,,,,,,,sngl,resources/Empty.png,resources/DG.BMP,Door3,0.348888889,0.013333333,1,0,0,0.967,optionRight,70,6075,3,24,0,24,0,1,,,,,,,,,,,,,,,,,,,,,,,,,,,,,,,,,,,,,,,
,,,,,,,,2023-08-16_08h48.51.133,HF_wild_card,2022.2.4,MacIntel,59.95203837,57f18e976c19420001438a1b,64d2fd46c836a06233681665,64dc7f50a2d5bf81038bce02,,,,,,,sngl,resources/DR.BMP,resources/Empty.png,Door2,-0.382222222,0.033333333,1,0,0,0.85,optionLeft,40,6115,3,25,0,25,0,1,,,,,,,,,,,,,,,,,,,,,,,,,,,,,,,,,,,,,,,
,,,,,,,,2023-08-16_08h48.51.133,HF_wild_card,2022.2.4,MacIntel,59.95203837,57f18e976c19420001438a1b,64d2fd46c836a06233681665,64dc7f50a2d5bf81038bce02,,,,,,,ctch,resources/DR.BMP,resources/DG.BMP,Door3,0.516666667,0.003333333,1,0,0,1.466,optionRight,70,6185,3,26,0,26,0,1,,,,,,,,,,,,,,,,,,,,,,,,,,,,,,,,,,,,,,,
,,,,,,,,2023-08-16_08h48.51.133,HF_wild_card,2022.2.4,MacIntel,59.95203837,57f18e976c19420001438a1b,64d2fd46c836a06233681665,64dc7f50a2d5bf81038bce02,,,,,,,decisionTrl,resources/DR.BMP,resources/DY.BMP,WildCard_NonEx,0.321111111,0.017777778,1,0,0,2.014,optionRight,55,6240,3,27,0,27,0,1,,,,,,,,,,,,,,,,,,,,,,,,,,,,,,,,,,,,,,,
,,,,,,,,2023-08-16_08h48.51.133,HF_wild_card,2022.2.4,MacIntel,59.95203837,57f18e976c19420001438a1b,64d2fd46c836a06233681665,64dc7f50a2d5bf81038bce02,,,,,,,sngl,resources/DY.BMP,resources/Empty.png,WildCard_NonEx,-0.343333333,0.036666667,1,0,0,1.247,optionLeft,55,6295,3,28,0,28,0,1,,,,,,,,,,,,,,,,,,,,,,,,,,,,,,,,,,,,,,,
,,,,,,,,2023-08-16_08h48.51.133,HF_wild_card,2022.2.4,MacIntel,59.95203837,57f18e976c19420001438a1b,64d2fd46c836a06233681665,64dc7f50a2d5bf81038bce02,,,,,,,sngl,resources/DG.BMP,resources/Empty.png,Door3,-0.388888889,0.01,1,0,0,0.998,optionLeft,70,6365,3,29,0,29,0,1,,,,,,,,,,,,,,,,,,,,,,,,,,,,,,,,,,,,,,,
,,,,,,,,2023-08-16_08h48.51.133,HF_wild_card,2022.2.4,MacIntel,59.95203837,57f18e976c19420001438a1b,64d2fd46c836a06233681665,64dc7f50a2d5bf81038bce02,,,,,,,ctch,resources/DP.BMP,resources/DBN.BMP,Door4,0.255555556,0.055555556,1,0,0,1.496,optionRight,80,6445,3,30,0,30,0,1,,,,,,,,,,,,,,,,,,,,,,,,,,,,,,,,,,,,,,,
,,,,,,,,2023-08-16_08h48.51.133,HF_wild_card,2022.2.4,MacIntel,59.95203837,57f18e976c19420001438a1b,64d2fd46c836a06233681665,64dc7f50a2d5bf81038bce02,,,,,,,decisionTrl,resources/DBN.BMP,resources/DG.BMP,Door4,-0.353333333,0.016666667,1,0,0,1.115,optionLeft,80,6525,3,31,0,31,0,1,,,,,,,,,,,,,,,,,,,,,,,,,,,,,,,,,,,,,,,
,,,,,,,,2023-08-16_08h48.51.133,HF_wild_card,2022.2.4,MacIntel,59.95203837,57f18e976c19420001438a1b,64d2fd46c836a06233681665,64dc7f50a2d5bf81038bce02,,,,,,,decisionTrl,resources/DG.BMP,resources/DBN.BMP,Door4,0.295555556,0.05,1,0,0,1.381,optionRight,60,6585,3,32,0,32,0,1,,,,,,,,,,,,,,,,,,,,,,,,,,,,,,,,,,,,,,,
,,,,,,,,2023-08-16_08h48.51.133,HF_wild_card,2022.2.4,MacIntel,59.95203837,57f18e976c19420001438a1b,64d2fd46c836a06233681665,64dc7f50a2d5bf81038bce02,,,,,,,decisionTrl,resources/DY.BMP,resources/DP.BMP,WildCard_NonEx,-0.29,0.004444444,1,0,0,1.248,optionLeft,55,6640,3,33,0,33,0,1,,,,,,,,,,,,,,,,,,,,,,,,,,,,,,,,,,,,,,,
,,,,,,,,2023-08-16_08h48.51.133,HF_wild_card,2022.2.4,MacIntel,59.95203837,57f18e976c19420001438a1b,64d2fd46c836a06233681665,64dc7f50a2d5bf81038bce02,,,,,,,decisionTrl,resources/DR.BMP,resources/DP.BMP,Door1,0.357777778,0.022222222,1,0,0,4.448,optionRight,30,6670,3,34,0,34,0,1,,,,,,,,,,,,,,,,,,,,,,,,,,,,,,,,,,,,,,,
,,,,,,,,2023-08-16_08h48.51.133,HF_wild_card,2022.2.4,MacIntel,59.95203837,57f18e976c19420001438a1b,64d2fd46c836a06233681665,64dc7f50a2d5bf81038bce02,,,,,,,decisionTrl,resources/DP.BMP,resources/DY.BMP,WildCard_NonEx,0.34,-0.006666667,1,0,0,3.532,optionRight,55,6725,3,35,0,35,0,1,,,,,,,,,,,,,,,,,,,,,,,,,,,,,,,,,,,,,,,
,,,,,,,,2023-08-16_08h48.51.133,HF_wild_card,2022.2.4,MacIntel,59.95203837,57f18e976c19420001438a1b,64d2fd46c836a06233681665,64dc7f50a2d5bf81038bce02,,,,,,,ctch,resources/DR.BMP,resources/DG.BMP,Door3,0.387777778,0.026666667,1,0,0,1.699,optionRight,70,6795,3,36,0,36,0,1,,,,,,,,,,,,,,,,,,,,,,,,,,,,,,,,,,,,,,,
,,,,,,,,2023-08-16_08h48.51.133,HF_wild_card,2022.2.4,MacIntel,59.95203837,57f18e976c19420001438a1b,64d2fd46c836a06233681665,64dc7f50a2d5bf81038bce02,,,,,,,decisionTrl,resources/DP.BMP,resources/DR.BMP,Door1,-0.325555556,-0.033333333,1,0,0,2.313,optionLeft,30,6825,3,37,0,37,0,1,,,,,,,,,,,,,,,,,,,,,,,,,,,,,,,,,,,,,,,
,,,,,,,,2023-08-16_08h48.51.133,HF_wild_card,2022.2.4,MacIntel,59.95203837,57f18e976c19420001438a1b,64d2fd46c836a06233681665,64dc7f50a2d5bf81038bce02,,,,,,,decisionTrl,resources/DY.BMP,resources/DG.BMP,Door3,0.363333333,-0.004444444,1,0,0,2.848,optionRight,70,6895,3,38,0,38,0,1,,,,,,,,,,,,,,,,,,,,,,,,,,,,,,,,,,,,,,,
,,,,,,,,2023-08-16_08h48.51.133,HF_wild_card,2022.2.4,MacIntel,59.95203837,57f18e976c19420001438a1b,64d2fd46c836a06233681665,64dc7f50a2d5bf81038bce02,,,,,,,sngl,resources/Empty.png,resources/DP.BMP,Door1,0.415555556,-0.012222222,1,0,0,1.38,optionRight,30,6925,3,39,0,39,0,1,,,,,,,,,,,,,,,,,,,,,,,,,,,,,,,,,,,,,,,
,,,,,,,,2023-08-16_08h48.51.133,HF_wild_card,2022.2.4,MacIntel,59.95203837,57f18e976c19420001438a1b,64d2fd46c836a06233681665,64dc7f50a2d5bf81038bce02,,,,,,,decisionTrl,resources/DG.BMP,resources/DY.BMP,Door3,-0.141111111,0.014444444,1,0,0,1.315,optionLeft,70,6995,3,40,0,40,0,1,,,,,,,,,,,,,,,,,,,,,,,,,,,,,,,,,,,,,,,
,,,,,,,,2023-08-16_08h48.51.133,HF_wild_card,2022.2.4,MacIntel,59.95203837,57f18e976c19420001438a1b,64d2fd46c836a06233681665,64dc7f50a2d5bf81038bce02,,,,,,,decisionTrl,resources/DP.BMP,resources/DR.BMP,Door1,-0.288888889,-0.004444444,1,0,0,1.782,optionLeft,30,7025,3,41,0,41,0,1,,,,,,,,,,,,,,,,,,,,,,,,,,,,,,,,,,,,,,,
,,,,,,,,2023-08-16_08h48.51.133,HF_wild_card,2022.2.4,MacIntel,59.95203837,57f18e976c19420001438a1b,64d2fd46c836a06233681665,64dc7f50a2d5bf81038bce02,,,,,,,decisionTrl,resources/DBN.BMP,resources/DG.BMP,Door4,-0.372222222,-0.008888889,1,0,0,1.048,optionLeft,80,7105,3,42,0,42,0,1,,,,,,,,,,,,,,,,,,,,,,,,,,,,,,,,,,,,,,,
,,,,,,,,2023-08-16_08h48.51.133,HF_wild_card,2022.2.4,MacIntel,59.95203837,57f18e976c19420001438a1b,64d2fd46c836a06233681665,64dc7f50a2d5bf81038bce02,,,,,,,decisionTrl,resources/DG.BMP,resources/DBN.BMP,Door4,0.414444444,0.037777778,1,0,0,1.013,optionRight,80,7185,3,43,0,43,0,1,,,,,,,,,,,,,,,,,,,,,,,,,,,,,,,,,,,,,,,
,,,,,,,,2023-08-16_08h48.51.133,HF_wild_card,2022.2.4,MacIntel,59.95203837,57f18e976c19420001438a1b,64d2fd46c836a06233681665,64dc7f50a2d5bf81038bce02,,,,,,,,,,,,,,,,,,,,,,,,,,2,0,2,0,1,,,,,,,,,,,,,,,,,,,,,,,,,,,,,,,,,,
,,,,,,,,2023-08-16_08h48.51.133,HF_wild_card,2022.2.4,MacIntel,59.95203837,57f18e976c19420001438a1b,64d2fd46c836a06233681665,64dc7f50a2d5bf81038bce02,,,,,,,ctch,resources/DP.BMP,resources/DBN.BMP,Door4,0.355555556,-0.165555556,1,0,0,1.593,optionRight,80,7265,4,0,0,0,0,1,,,,,,,,,,,,,,,,,,,,,,,,,,,,,,,,,,,,,,,
,,,,,,,,2023-08-16_08h48.51.133,HF_wild_card,2022.2.4,MacIntel,59.95203837,57f18e976c19420001438a1b,64d2fd46c836a06233681665,64dc7f50a2d5bf81038bce02,,,,,,,sngl,resources/DR.BMP,resources/Empty.png,Door2,-0.365555556,0.072222222,1,0,0,1.013,optionLeft,20,7285,4,1,0,1,0,1,,,,,,,,,,,,,,,,,,,,,,,,,,,,,,,,,,,,,,,
,,,,,,,,2023-08-16_08h48.51.133,HF_wild_card,2022.2.4,MacIntel,59.95203837,57f18e976c19420001438a1b,64d2fd46c836a06233681665,64dc7f50a2d5bf81038bce02,,,,,,,ctch,resources/DBN.BMP,resources/DP.BMP,Door4,-0.467777778,0.082222222,1,0,0,1.914,optionLeft,80,7365,4,2,0,2,0,1,,,,,,,,,,,,,,,,,,,,,,,,,,,,,,,,,,,,,,,
,,,,,,,,2023-08-16_08h48.51.133,HF_wild_card,2022.2.4,MacIntel,59.95203837,57f18e976c19420001438a1b,64d2fd46c836a06233681665,64dc7f50a2d5bf81038bce02,,,,,,,ctch,resources/DG.BMP,resources/DR.BMP,Door3,-0.232222222,0.044444444,1,0,0,1.147,optionLeft,70,7435,4,3,0,3,0,1,,,,,,,,,,,,,,,,,,,,,,,,,,,,,,,,,,,,,,,
,,,,,,,,2023-08-16_08h48.51.133,HF_wild_card,2022.2.4,MacIntel,59.95203837,57f18e976c19420001438a1b,64d2fd46c836a06233681665,64dc7f50a2d5bf81038bce02,,,,,,,decisionTrl,resources/DR.BMP,resources/DP.BMP,Door2,-0.323333333,-0.013333333,1,0,0,1.747,optionLeft,40,7475,4,4,0,4,0,1,,,,,,,,,,,,,,,,,,,,,,,,,,,,,,,,,,,,,,,
,,,,,,,,2023-08-16_08h48.51.133,HF_wild_card,2022.2.4,MacIntel,59.95203837,57f18e976c19420001438a1b,64d2fd46c836a06233681665,64dc7f50a2d5bf81038bce02,,,,,,,decisionTrl,resources/DBN.BMP,resources/DB.BMP,Door4,-0.265555556,-0.026666667,1,0,0,1.398,optionLeft,80,7555,4,5,0,5,0,1,,,,,,,,,,,,,,,,,,,,,,,,,,,,,,,,,,,,,,,
,,,,,,,,2023-08-16_08h48.51.133,HF_wild_card,2022.2.4,MacIntel,59.95203837,57f18e976c19420001438a1b,64d2fd46c836a06233681665,64dc7f50a2d5bf81038bce02,,,,,,,decisionTrl,resources/DP.BMP,resources/DR.BMP,Door1,-0.405555556,-0.028888889,1,0,0,2.098,optionLeft,30,7585,4,6,0,6,0,1,,,,,,,,,,,,,,,,,,,,,,,,,,,,,,,,,,,,,,,
,,,,,,,,2023-08-16_08h48.51.133,HF_wild_card,2022.2.4,MacIntel,59.95203837,57f18e976c19420001438a1b,64d2fd46c836a06233681665,64dc7f50a2d5bf81038bce02,,,,,,,decisionTrl,resources/DP.BMP,resources/DB.BMP,WildCard_Ex,0.316666667,-0.017777778,1,0,0,0.948,optionRight,5,7590,4,7,0,7,0,1,,,,,,,,,,,,,,,,,,,,,,,,,,,,,,,,,,,,,,,
,,,,,,,,2023-08-16_08h48.51.133,HF_wild_card,2022.2.4,MacIntel,59.95203837,57f18e976c19420001438a1b,64d2fd46c836a06233681665,64dc7f50a2d5bf81038bce02,,,,,,,decisionTrl,resources/DG.BMP,resources/DB.BMP,Door3,-0.366666667,0.001111111,1,0,0,0.865,optionLeft,70,7660,4,8,0,8,0,1,,,,,,,,,,,,,,,,,,,,,,,,,,,,,,,,,,,,,,,
,,,,,,,,2023-08-16_08h48.51.133,HF_wild_card,2022.2.4,MacIntel,59.95203837,57f18e976c19420001438a1b,64d2fd46c836a06233681665,64dc7f50a2d5bf81038bce02,,,,,,,sngl,resources/DB.BMP,resources/Empty.png,WildCard_Ex,-0.404444444,-0.071111111,1,0,0,1.516,optionLeft,95,7755,4,9,0,9,0,1,,,,,,,,,,,,,,,,,,,,,,,,,,,,,,,,,,,,,,,
,,,,,,,,2023-08-16_08h48.51.133,HF_wild_card,2022.2.4,MacIntel,59.95203837,57f18e976c19420001438a1b,64d2fd46c836a06233681665,64dc7f50a2d5bf81038bce02,,,,,,,decisionTrl,resources/DBN.BMP,resources/DG.BMP,Door4,-0.282222222,0.012222222,1,0,0,1.866,optionLeft,80,7835,4,10,0,10,0,1,,,,,,,,,,,,,,,,,,,,,,,,,,,,,,,,,,,,,,,
,,,,,,,,2023-08-16_08h48.51.133,HF_wild_card,2022.2.4,MacIntel,59.95203837,57f18e976c19420001438a1b,64d2fd46c836a06233681665,64dc7f50a2d5bf81038bce02,,,,,,,ctch,resources/DR.BMP,resources/DG.BMP,Door3,0.442222222,-0.077777778,1,0,0,1.596,optionRight,70,7905,4,11,0,11,0,1,,,,,,,,,,,,,,,,,,,,,,,,,,,,,,,,,,,,,,,
,,,,,,,,2023-08-16_08h48.51.133,HF_wild_card,2022.2.4,MacIntel,59.95203837,57f18e976c19420001438a1b,64d2fd46c836a06233681665,64dc7f50a2d5bf81038bce02,,,,,,,decisionTrl,resources/DP.BMP,resources/DR.BMP,Door1,-0.304444444,-0.045555556,1,0,0,1.281,optionLeft,30,7935,4,12,0,12,0,1,,,,,,,,,,,,,,,,,,,,,,,,,,,,,,,,,,,,,,,
,,,,,,,,2023-08-16_08h48.51.133,HF_wild_card,2022.2.4,MacIntel,59.95203837,57f18e976c19420001438a1b,64d2fd46c836a06233681665,64dc7f50a2d5bf81038bce02,,,,,,,decisionTrl,resources/DBN.BMP,resources/DG.BMP,Door4,-0.28,0.031111111,1,0,0,1.147,optionLeft,60,7995,4,13,0,13,0,1,,,,,,,,,,,,,,,,,,,,,,,,,,,,,,,,,,,,,,,
,,,,,,,,2023-08-16_08h48.51.133,HF_wild_card,2022.2.4,MacIntel,59.95203837,57f18e976c19420001438a1b,64d2fd46c836a06233681665,64dc7f50a2d5bf81038bce02,,,,,,,decisionTrl,resources/DR.BMP,resources/DB.BMP,WildCard_Ex,0.37,-0.016666667,1,0,0,1.365,optionRight,95,8090,4,14,0,14,0,1,,,,,,,,,,,,,,,,,,,,,,,,,,,,,,,,,,,,,,,
,,,,,,,,2023-08-16_08h48.51.133,HF_wild_card,2022.2.4,MacIntel,59.95203837,57f18e976c19420001438a1b,64d2fd46c836a06233681665,64dc7f50a2d5bf81038bce02,,,,,,,sngl,resources/Empty.png,resources/DB.BMP,WildCard_Ex,0.313333333,-0.042222222,1,0,0,0.932,optionRight,5,8095,4,15,0,15,0,1,,,,,,,,,,,,,,,,,,,,,,,,,,,,,,,,,,,,,,,
,,,,,,,,2023-08-16_08h48.51.133,HF_wild_card,2022.2.4,MacIntel,59.95203837,57f18e976c19420001438a1b,64d2fd46c836a06233681665,64dc7f50a2d5bf81038bce02,,,,,,,decisionTrl,resources/DBN.BMP,resources/DG.BMP,Door3,0.374444444,0.032222222,1,0,0,1.248,optionRight,70,8165,4,16,0,16,0,1,,,,,,,,,,,,,,,,,,,,,,,,,,,,,,,,,,,,,,,
,,,,,,,,2023-08-16_08h48.51.133,HF_wild_card,2022.2.4,MacIntel,59.95203837,57f18e976c19420001438a1b,64d2fd46c836a06233681665,64dc7f50a2d5bf81038bce02,,,,,,,decisionTrl,resources/DP.BMP,resources/DR.BMP,Door1,-0.34,0.003333333,1,0,0,2.081,optionLeft,30,8195,4,17,0,17,0,1,,,,,,,,,,,,,,,,,,,,,,,,,,,,,,,,,,,,,,,
,,,,,,,,2023-08-16_08h48.51.133,HF_wild_card,2022.2.4,MacIntel,59.95203837,57f18e976c19420001438a1b,64d2fd46c836a06233681665,64dc7f50a2d5bf81038bce02,,,,,,,decisionTrl,resources/DG.BMP,resources/DBN.BMP,Door4,0.275555556,-0.061111111,1,0,0,1.448,optionRight,60,8255,4,18,0,18,0,1,,,,,,,,,,,,,,,,,,,,,,,,,,,,,,,,,,,,,,,
,,,,,,,,2023-08-16_08h48.51.133,HF_wild_card,2022.2.4,MacIntel,59.95203837,57f18e976c19420001438a1b,64d2fd46c836a06233681665,64dc7f50a2d5bf81038bce02,,,,,,,sngl,resources/Empty.png,resources/DR.BMP,Door2,0.266666667,0.005555556,1,0,0,1.132,optionRight,40,8295,4,19,0,19,0,1,,,,,,,,,,,,,,,,,,,,,,,,,,,,,,,,,,,,,,,
,,,,,,,,2023-08-16_08h48.51.133,HF_wild_card,2022.2.4,MacIntel,59.95203837,57f18e976c19420001438a1b,64d2fd46c836a06233681665,64dc7f50a2d5bf81038bce02,,,,,,,ctch,resources/DR.BMP,resources/DG.BMP,Door2,-0.334444444,-0.032222222,1,0,0,3.464,optionLeft,20,8315,4,20,0,20,0,1,,,,,,,,,,,,,,,,,,,,,,,,,,,,,,,,,,,,,,,
,,,,,,,,2023-08-16_08h48.51.133,HF_wild_card,2022.2.4,MacIntel,59.95203837,57f18e976c19420001438a1b,64d2fd46c836a06233681665,64dc7f50a2d5bf81038bce02,,,,,,,sngl,resources/Empty.png,resources/DB.BMP,WildCard_Ex,0.222222222,-0.022222222,1,0,0,0.998,optionRight,95,8410,4,21,0,21,0,1,,,,,,,,,,,,,,,,,,,,,,,,,,,,,,,,,,,,,,,
,,,,,,,,2023-08-16_08h48.51.133,HF_wild_card,2022.2.4,MacIntel,59.95203837,57f18e976c19420001438a1b,64d2fd46c836a06233681665,64dc7f50a2d5bf81038bce02,,,,,,,decisionTrl,resources/DB.BMP,resources/DR.BMP,Door2,0.316666667,-0.048888889,1,0,0,1.482,optionRight,20,8430,4,22,0,22,0,1,,,,,,,,,,,,,,,,,,,,,,,,,,,,,,,,,,,,,,,
,,,,,,,,2023-08-16_08h48.51.133,HF_wild_card,2022.2.4,MacIntel,59.95203837,57f18e976c19420001438a1b,64d2fd46c836a06233681665,64dc7f50a2d5bf81038bce02,,,,,,,decisionTrl,resources/DR.BMP,resources/DP.BMP,Door2,-0.358888889,-0.061111111,1,0,0,1.88,optionLeft,20,8450,4,23,0,23,0,1,,,,,,,,,,,,,,,,,,,,,,,,,,,,,,,,,,,,,,,
,,,,,,,,2023-08-16_08h48.51.133,HF_wild_card,2022.2.4,MacIntel,59.95203837,57f18e976c19420001438a1b,64d2fd46c836a06233681665,64dc7f50a2d5bf81038bce02,,,,,,,ctch,resources/DBN.BMP,resources/DP.BMP,Door4,-0.256666667,0.023333333,1,0,0,1.581,optionLeft,80,8530,4,24,0,24,0,1,,,,,,,,,,,,,,,,,,,,,,,,,,,,,,,,,,,,,,,
,,,,,,,,2023-08-16_08h48.51.133,HF_wild_card,2022.2.4,MacIntel,59.95203837,57f18e976c19420001438a1b,64d2fd46c836a06233681665,64dc7f50a2d5bf81038bce02,,,,,,,decisionTrl,resources/DB.BMP,resources/DP.BMP,WildCard_Ex,-0.462222222,-0.057777778,1,0,0,1.265,optionLeft,5,8535,4,25,0,25,0,1,,,,,,,,,,,,,,,,,,,,,,,,,,,,,,,,,,,,,,,
,,,,,,,,2023-08-16_08h48.51.133,HF_wild_card,2022.2.4,MacIntel,59.95203837,57f18e976c19420001438a1b,64d2fd46c836a06233681665,64dc7f50a2d5bf81038bce02,,,,,,,ctch,resources/DG.BMP,resources/DR.BMP,Door3,-0.303333333,0.015555556,1,0,0,1.314,optionLeft,70,8605,4,26,0,26,0,1,,,,,,,,,,,,,,,,,,,,,,,,,,,,,,,,,,,,,,,
,,,,,,,,2023-08-16_08h48.51.133,HF_wild_card,2022.2.4,MacIntel,59.95203837,57f18e976c19420001438a1b,64d2fd46c836a06233681665,64dc7f50a2d5bf81038bce02,,,,,,,decisionTrl,resources/DG.BMP,resources/DBN.BMP,Door4,0.326666667,0.012222222,1,0,0,1.599,optionRight,80,8685,4,27,0,27,0,1,,,,,,,,,,,,,,,,,,,,,,,,,,,,,,,,,,,,,,,
,,,,,,,,2023-08-16_08h48.51.133,HF_wild_card,2022.2.4,MacIntel,59.95203837,57f18e976c19420001438a1b,64d2fd46c836a06233681665,64dc7f50a2d5bf81038bce02,,,,,,,decisionTrl,resources/DG.BMP,resources/DBN.BMP,Door4,0.364444444,-0.094444444,1,0,0,1.63,optionRight,60,8745,4,28,0,28,0,1,,,,,,,,,,,,,,,,,,,,,,,,,,,,,,,,,,,,,,,
,,,,,,,,2023-08-16_08h48.51.133,HF_wild_card,2022.2.4,MacIntel,59.95203837,57f18e976c19420001438a1b,64d2fd46c836a06233681665,64dc7f50a2d5bf81038bce02,,,,,,,sngl,resources/Empty.png,resources/DG.BMP,Door3,0.432222222,0.006666667,1,0,0,1.197,optionRight,70,8815,4,29,0,29,0,1,,,,,,,,,,,,,,,,,,,,,,,,,,,,,,,,,,,,,,,
,,,,,,,,2023-08-16_08h48.51.133,HF_wild_card,2022.2.4,MacIntel,59.95203837,57f18e976c19420001438a1b,64d2fd46c836a06233681665,64dc7f50a2d5bf81038bce02,,,,,,,decisionTrl,resources/DR.BMP,resources/DP.BMP,Door2,-0.311111111,-0.031111111,1,0,0,2.031,optionLeft,20,8835,4,30,0,30,0,1,,,,,,,,,,,,,,,,,,,,,,,,,,,,,,,,,,,,,,,
,,,,,,,,2023-08-16_08h48.51.133,HF_wild_card,2022.2.4,MacIntel,59.95203837,57f18e976c19420001438a1b,64d2fd46c836a06233681665,64dc7f50a2d5bf81038bce02,,,,,,,sngl,resources/Empty.png,resources/DBN.BMP,Door4,0.483333333,-0.022222222,1,0,0,1.298,optionRight,80,8915,4,31,0,31,0,1,,,,,,,,,,,,,,,,,,,,,,,,,,,,,,,,,,,,,,,
,,,,,,,,2023-08-16_08h48.51.133,HF_wild_card,2022.2.4,MacIntel,59.95203837,57f18e976c19420001438a1b,64d2fd46c836a06233681665,64dc7f50a2d5bf81038bce02,,,,,,,sngl,resources/DG.BMP,resources/Empty.png,Door3,-0.386666667,-0.088888889,1,0,0,0.931,optionLeft,70,8985,4,32,0,32,0,1,,,,,,,,,,,,,,,,,,,,,,,,,,,,,,,,,,,,,,,
,,,,,,,,2023-08-16_08h48.51.133,HF_wild_card,2022.2.4,MacIntel,59.95203837,57f18e976c19420001438a1b,64d2fd46c836a06233681665,64dc7f50a2d5bf81038bce02,,,,,,,ctch,resources/DP.BMP,resources/DBN.BMP,Door4,0.272222222,0.033333333,1,0,0,1.065,optionRight,80,9065,4,33,0,33,0,1,,,,,,,,,,,,,,,,,,,,,,,,,,,,,,,,,,,,,,,
,,,,,,,,2023-08-16_08h48.51.133,HF_wild_card,2022.2.4,MacIntel,59.95203837,57f18e976c19420001438a1b,64d2fd46c836a06233681665,64dc7f50a2d5bf81038bce02,,,,,,,decisionTrl,resources/DP.BMP,resources/DR.BMP,Door1,-0.354444444,-0.057777778,1,0,0,1.216,optionLeft,30,9095,4,34,0,34,0,1,,,,,,,,,,,,,,,,,,,,,,,,,,,,,,,,,,,,,,,
,,,,,,,,2023-08-16_08h48.51.133,HF_wild_card,2022.2.4,MacIntel,59.95203837,57f18e976c19420001438a1b,64d2fd46c836a06233681665,64dc7f50a2d5bf81038bce02,,,,,,,decisionTrl,resources/DB.BMP,resources/DG.BMP,Door3,0.231111111,-0.013333333,1,0,0,1.415,optionRight,70,9165,4,35,0,35,0,1,,,,,,,,,,,,,,,,,,,,,,,,,,,,,,,,,,,,,,,
,,,,,,,,2023-08-16_08h48.51.133,HF_wild_card,2022.2.4,MacIntel,59.95203837,57f18e976c19420001438a1b,64d2fd46c836a06233681665,64dc7f50a2d5bf81038bce02,,,,,,,decisionTrl,resources/DR.BMP,resources/DP.BMP,Door2,-0.33,-0.004444444,1,0,0,3.249,optionLeft,40,9205,4,36,0,36,0,1,,,,,,,,,,,,,,,,,,,,,,,,,,,,,,,,,,,,,,,
,,,,,,,,2023-08-16_08h48.51.133,HF_wild_card,2022.2.4,MacIntel,59.95203837,57f18e976c19420001438a1b,64d2fd46c836a06233681665,64dc7f50a2d5bf81038bce02,,,,,,,sngl,resources/Empty.png,resources/DP.BMP,Door1,0.347777778,-0.036666667,1,0,0,1.316,optionRight,30,9235,4,37,0,37,0,1,,,,,,,,,,,,,,,,,,,,,,,,,,,,,,,,,,,,,,,
,,,,,,,,2023-08-16_08h48.51.133,HF_wild_card,2022.2.4,MacIntel,59.95203837,57f18e976c19420001438a1b,64d2fd46c836a06233681665,64dc7f50a2d5bf81038bce02,,,,,,,sngl,resources/DB.BMP,resources/Empty.png,WildCard_Ex,-0.332222222,-0.048888889,1,0,0,3.831,optionLeft,5,9240,4,38,0,38,0,1,,,,,,,,,,,,,,,,,,,,,,,,,,,,,,,,,,,,,,,
,,,,,,,,2023-08-16_08h48.51.133,HF_wild_card,2022.2.4,MacIntel,59.95203837,57f18e976c19420001438a1b,64d2fd46c836a06233681665,64dc7f50a2d5bf81038bce02,,,,,,,decisionTrl,resources/DG.BMP,resources/DBN.BMP,Door4,0.39,-0.047777778,1,0,0,0.798,optionRight,60,9300,4,39,0,39,0,1,,,,,,,,,,,,,,,,,,,,,,,,,,,,,,,,,,,,,,,
,,,,,,,,2023-08-16_08h48.51.133,HF_wild_card,2022.2.4,MacIntel,59.95203837,57f18e976c19420001438a1b,64d2fd46c836a06233681665,64dc7f50a2d5bf81038bce02,,,,,,,decisionTrl,resources/DBN.BMP,resources/DG.BMP,Door4,-0.365555556,0.114444444,1,0,0,3.197,optionLeft,80,9380,4,40,0,40,0,1,,,,,,,,,,,,,,,,,,,,,,,,,,,,,,,,,,,,,,,
,,,,,,,,2023-08-16_08h48.51.133,HF_wild_card,2022.2.4,MacIntel,59.95203837,57f18e976c19420001438a1b,64d2fd46c836a06233681665,64dc7f50a2d5bf81038bce02,,,,,,,sngl,resources/DP.BMP,resources/Empty.png,Door1,-0.341111111,0.034444444,1,0,0,0.848,optionLeft,30,9410,4,41,0,41,0,1,,,,,,,,,,,,,,,,,,,,,,,,,,,,,,,,,,,,,,,
,,,,,,,,2023-08-16_08h48.51.133,HF_wild_card,2022.2.4,MacIntel,59.95203837,57f18e976c19420001438a1b,64d2fd46c836a06233681665,64dc7f50a2d5bf81038bce02,,,,,,,sngl,resources/DBN.BMP,resources/Empty.png,Door4,-0.29,0.015555556,1,0,0,0.914,optionLeft,60,9470,4,42,0,42,0,1,,,,,,,,,,,,,,,,,,,,,,,,,,,,,,,,,,,,,,,
,,,,,,,,2023-08-16_08h48.51.133,HF_wild_card,2022.2.4,MacIntel,59.95203837,57f18e976c19420001438a1b,64d2fd46c836a06233681665,64dc7f50a2d5bf81038bce02,,,,,,,decisionTrl,resources/DB.BMP,resources/DBN.BMP,WildCard_Ex,-0.223333333,-0.031111111,1,0,0,1.198,optionLeft,5,9475,4,43,0,43,0,1,,,,,,,,,,,,,,,,,,,,,,,,,,,,,,,,,,,,,,,
,,,,,,,,2023-08-16_08h48.51.133,HF_wild_card,2022.2.4,MacIntel,59.95203837,57f18e976c19420001438a1b,64d2fd46c836a06233681665,64dc7f50a2d5bf81038bce02,,,,,,,,,,,,,,,,,,,,,,,,,,3,0,3,0,1,,,,,,,,,,,,,,,,,,,,,,,,,,,,,,,,,,
,,,,,,,,2023-08-16_08h48.51.133,HF_wild_card,2022.2.4,MacIntel,59.95203837,57f18e976c19420001438a1b,64d2fd46c836a06233681665,64dc7f50a2d5bf81038bce02,,,,,,,ctch,resources/DR.BMP,resources/DG.BMP,Door3,0.362222222,0.046666667,1,0,0,3.041,optionRight,70,9545,5,0,0,0,0,1,,,,,,,,,,,,,,,,,,,,,,,,,,,,,,,,,,,,,,,
,,,,,,,,2023-08-16_08h48.51.133,HF_wild_card,2022.2.4,MacIntel,59.95203837,57f18e976c19420001438a1b,64d2fd46c836a06233681665,64dc7f50a2d5bf81038bce02,,,,,,,decisionTrl,resources/DB.BMP,resources/DG.BMP,WildCard_Ex,-0.345555556,0.028888889,1,0,0,0.748,optionLeft,5,9550,5,1,0,1,0,1,,,,,,,,,,,,,,,,,,,,,,,,,,,,,,,,,,,,,,,
,,,,,,,,2023-08-16_08h48.51.133,HF_wild_card,2022.2.4,MacIntel,59.95203837,57f18e976c19420001438a1b,64d2fd46c836a06233681665,64dc7f50a2d5bf81038bce02,,,,,,,ctch,resources/DP.BMP,resources/DBN.BMP,Door4,0.367777778,0.046666667,1,0,0,1.598,optionRight,60,9610,5,2,0,2,0,1,,,,,,,,,,,,,,,,,,,,,,,,,,,,,,,,,,,,,,,
,,,,,,,,2023-08-16_08h48.51.133,HF_wild_card,2022.2.4,MacIntel,59.95203837,57f18e976c19420001438a1b,64d2fd46c836a06233681665,64dc7f50a2d5bf81038bce02,,,,,,,ctch,resources/DR.BMP,resources/DG.BMP,Door3,0.272222222,0.007777778,1,0,0,1.548,optionRight,70,9680,5,3,0,3,0,1,,,,,,,,,,,,,,,,,,,,,,,,,,,,,,,,,,,,,,,
,,,,,,,,2023-08-16_08h48.51.133,HF_wild_card,2022.2.4,MacIntel,59.95203837,57f18e976c19420001438a1b,64d2fd46c836a06233681665,64dc7f50a2d5bf81038bce02,,,,,,,ctch,resources/DBN.BMP,resources/DP.BMP,Door4,-0.436666667,0.1,1,0,0,1.214,optionLeft,60,9740,5,4,0,4,0,1,,,,,,,,,,,,,,,,,,,,,,,,,,,,,,,,,,,,,,,
,,,,,,,,2023-08-16_08h48.51.133,HF_wild_card,2022.2.4,MacIntel,59.95203837,57f18e976c19420001438a1b,64d2fd46c836a06233681665,64dc7f50a2d5bf81038bce02,,,,,,,decisionTrl,resources/DP.BMP,resources/DR.BMP,Door1,-0.344444444,0.005555556,1,0,0,2.348,optionLeft,30,9770,5,5,0,5,0,1,,,,,,,,,,,,,,,,,,,,,,,,,,,,,,,,,,,,,,,
,,,,,,,,2023-08-16_08h48.51.133,HF_wild_card,2022.2.4,MacIntel,59.95203837,57f18e976c19420001438a1b,64d2fd46c836a06233681665,64dc7f50a2d5bf81038bce02,,,,,,,sngl,resources/DP.BMP,resources/Empty.png,Door1,-0.345555556,0.007777778,1,0,0,0.948,optionLeft,30,9800,5,6,0,6,0,1,,,,,,,,,,,,,,,,,,,,,,,,,,,,,,,,,,,,,,,
,,,,,,,,2023-08-16_08h48.51.133,HF_wild_card,2022.2.4,MacIntel,59.95203837,57f18e976c19420001438a1b,64d2fd46c836a06233681665,64dc7f50a2d5bf81038bce02,,,,,,,decisionTrl,resources/DBN.BMP,resources/DG.BMP,Door4,-0.381111111,0.097777778,1,0,0,1.015,optionLeft,60,9860,5,7,0,7,0,1,,,,,,,,,,,,,,,,,,,,,,,,,,,,,,,,,,,,,,,
,,,,,,,,2023-08-16_08h48.51.133,HF_wild_card,2022.2.4,MacIntel,59.95203837,57f18e976c19420001438a1b,64d2fd46c836a06233681665,64dc7f50a2d5bf81038bce02,,,,,,,decisionTrl,resources/DR.BMP,resources/DP.BMP,Door1,0.33,-0.022222222,1,0,0,1.181,optionRight,30,9890,5,8,0,8,0,1,,,,,,,,,,,,,,,,,,,,,,,,,,,,,,,,,,,,,,,
,,,,,,,,2023-08-16_08h48.51.133,HF_wild_card,2022.2.4,MacIntel,59.95203837,57f18e976c19420001438a1b,64d2fd46c836a06233681665,64dc7f50a2d5bf81038bce02,,,,,,,decisionTrl,resources/DR.BMP,resources/DB.BMP,Door2,-0.323333333,0.068888889,1,0,0,1.632,optionLeft,40,9930,5,9,0,9,0,1,,,,,,,,,,,,,,,,,,,,,,,,,,,,,,,,,,,,,,,
,,,,,,,,2023-08-16_08h48.51.133,HF_wild_card,2022.2.4,MacIntel,59.95203837,57f18e976c19420001438a1b,64d2fd46c836a06233681665,64dc7f50a2d5bf81038bce02,,,,,,,sngl,resources/Empty.png,resources/DG.BMP,Door3,0.384444444,-0.024444444,1,0,0,0.999,optionRight,70,10000,5,10,0,10,0,1,,,,,,,,,,,,,,,,,,,,,,,,,,,,,,,,,,,,,,,
,,,,,,,,2023-08-16_08h48.51.133,HF_wild_card,2022.2.4,MacIntel,59.95203837,57f18e976c19420001438a1b,64d2fd46c836a06233681665,64dc7f50a2d5bf81038bce02,,,,,,,ctch,resources/DG.BMP,resources/DR.BMP,Door3,-0.428888889,0.025555556,1,0,0,4.097,optionLeft,70,10070,5,11,0,11,0,1,,,,,,,,,,,,,,,,,,,,,,,,,,,,,,,,,,,,,,,
,,,,,,,,2023-08-16_08h48.51.133,HF_wild_card,2022.2.4,MacIntel,59.95203837,57f18e976c19420001438a1b,64d2fd46c836a06233681665,64dc7f50a2d5bf81038bce02,,,,,,,decisionTrl,resources/DB.BMP,resources/DR.BMP,WildCard_Ex,-0.345555556,0.012222222,1,0,0,3.615,optionLeft,95,10165,5,12,0,12,0,1,,,,,,,,,,,,,,,,,,,,,,,,,,,,,,,,,,,,,,,
,,,,,,,,2023-08-16_08h48.51.133,HF_wild_card,2022.2.4,MacIntel,59.95203837,57f18e976c19420001438a1b,64d2fd46c836a06233681665,64dc7f50a2d5bf81038bce02,,,,,,,sngl,resources/Empty.png,resources/DBN.BMP,Door4,0.422222222,0.024444444,1,0,0,0.781,optionRight,60,10225,5,13,0,13,0,1,,,,,,,,,,,,,,,,,,,,,,,,,,,,,,,,,,,,,,,
,,,,,,,,2023-08-16_08h48.51.133,HF_wild_card,2022.2.4,MacIntel,59.95203837,57f18e976c19420001438a1b,64d2fd46c836a06233681665,64dc7f50a2d5bf81038bce02,,,,,,,sngl,resources/DB.BMP,resources/Empty.png,WildCard_Ex,-0.366666667,0.01,1,0,0,1.031,optionLeft,5,10230,5,14,0,14,0,1,,,,,,,,,,,,,,,,,,,,,,,,,,,,,,,,,,,,,,,
,,,,,,,,2023-08-16_08h48.51.133,HF_wild_card,2022.2.4,MacIntel,59.95203837,57f18e976c19420001438a1b,64d2fd46c836a06233681665,64dc7f50a2d5bf81038bce02,,,,,,,decisionTrl,resources/DG.BMP,resources/DB.BMP,WildCard_Ex,0.374444444,0.01,1,0,0,1.067,optionRight,5,10235,5,15,0,15,0,1,,,,,,,,,,,,,,,,,,,,,,,,,,,,,,,,,,,,,,,
,,,,,,,,2023-08-16_08h48.51.133,HF_wild_card,2022.2.4,MacIntel,59.95203837,57f18e976c19420001438a1b,64d2fd46c836a06233681665,64dc7f50a2d5bf81038bce02,,,,,,,decisionTrl,resources/DBN.BMP,resources/DG.BMP,Door4,-0.247777778,0.094444444,1,0,0,0.897,optionLeft,60,10295,5,16,0,16,0,1,,,,,,,,,,,,,,,,,,,,,,,,,,,,,,,,,,,,,,,
,,,,,,,,2023-08-16_08h48.51.133,HF_wild_card,2022.2.4,MacIntel,59.95203837,57f18e976c19420001438a1b,64d2fd46c836a06233681665,64dc7f50a2d5bf81038bce02,,,,,,,decisionTrl,resources/DBN.BMP,resources/DG.BMP,Door3,0.331111111,0.003333333,1,0,0,1.315,optionRight,70,10365,5,17,0,17,0,1,,,,,,,,,,,,,,,,,,,,,,,,,,,,,,,,,,,,,,,
,,,,,,,,2023-08-16_08h48.51.133,HF_wild_card,2022.2.4,MacIntel,59.95203837,57f18e976c19420001438a1b,64d2fd46c836a06233681665,64dc7f50a2d5bf81038bce02,,,,,,,decisionTrl,resources/DP.BMP,resources/DR.BMP,Door2,0.355555556,-0.02,1,0,0,1.447,optionRight,40,10405,5,18,0,18,0,1,,,,,,,,,,,,,,,,,,,,,,,,,,,,,,,,,,,,,,,
,,,,,,,,2023-08-16_08h48.51.133,HF_wild_card,2022.2.4,MacIntel,59.95203837,57f18e976c19420001438a1b,64d2fd46c836a06233681665,64dc7f50a2d5bf81038bce02,,,,,,,decisionTrl,resources/DR.BMP,resources/DP.BMP,Door1,0.395555556,-0.024444444,1,0,0,1.198,optionRight,30,10435,5,19,0,19,0,1,,,,,,,,,,,,,,,,,,,,,,,,,,,,,,,,,,,,,,,
,,,,,,,,2023-08-16_08h48.51.133,HF_wild_card,2022.2.4,MacIntel,59.95203837,57f18e976c19420001438a1b,64d2fd46c836a06233681665,64dc7f50a2d5bf81038bce02,,,,,,,sngl,resources/Empty.png,resources/DB.BMP,WildCard_Ex,0.466666667,-0.035555556,1,0,0,0.913,optionRight,95,10530,5,20,0,20,0,1,,,,,,,,,,,,,,,,,,,,,,,,,,,,,,,,,,,,,,,
,,,,,,,,2023-08-16_08h48.51.133,HF_wild_card,2022.2.4,MacIntel,59.95203837,57f18e976c19420001438a1b,64d2fd46c836a06233681665,64dc7f50a2d5bf81038bce02,,,,,,,sngl,resources/DBN.BMP,resources/Empty.png,Door4,-0.378888889,0.045555556,1,0,0,0.914,optionLeft,80,10610,5,21,0,21,0,1,,,,,,,,,,,,,,,,,,,,,,,,,,,,,,,,,,,,,,,
,,,,,,,,2023-08-16_08h48.51.133,HF_wild_card,2022.2.4,MacIntel,59.95203837,57f18e976c19420001438a1b,64d2fd46c836a06233681665,64dc7f50a2d5bf81038bce02,,,,,,,decisionTrl,resources/DP.BMP,resources/DR.BMP,Door1,-0.271111111,0.015555556,1,0,0,1.132,optionLeft,30,10640,5,22,0,22,0,1,,,,,,,,,,,,,,,,,,,,,,,,,,,,,,,,,,,,,,,
,,,,,,,,2023-08-16_08h48.51.133,HF_wild_card,2022.2.4,MacIntel,59.95203837,57f18e976c19420001438a1b,64d2fd46c836a06233681665,64dc7f50a2d5bf81038bce02,,,,,,,decisionTrl,resources/DG.BMP,resources/DBN.BMP,Door4,0.351111111,0.085555556,1,0,0,1.131,optionRight,60,10700,5,23,0,23,0,1,,,,,,,,,,,,,,,,,,,,,,,,,,,,,,,,,,,,,,,
,,,,,,,,2023-08-16_08h48.51.133,HF_wild_card,2022.2.4,MacIntel,59.95203837,57f18e976c19420001438a1b,64d2fd46c836a06233681665,64dc7f50a2d5bf81038bce02,,,,,,,decisionTrl,resources/DP.BMP,resources/DB.BMP,WildCard_Ex,0.33,-0.036666667,1,0,0,1.198,optionRight,95,10795,5,24,0,24,0,1,,,,,,,,,,,,,,,,,,,,,,,,,,,,,,,,,,,,,,,
,,,,,,,,2023-08-16_08h48.51.133,HF_wild_card,2022.2.4,MacIntel,59.95203837,57f18e976c19420001438a1b,64d2fd46c836a06233681665,64dc7f50a2d5bf81038bce02,,,,,,,sngl,resources/DB.BMP,resources/Empty.png,WildCard_Ex,-0.297777778,0.035555556,1,0,0,0.915,optionLeft,95,10890,5,25,0,25,0,1,,,,,,,,,,,,,,,,,,,,,,,,,,,,,,,,,,,,,,,
,,,,,,,,2023-08-16_08h48.51.133,HF_wild_card,2022.2.4,MacIntel,59.95203837,57f18e976c19420001438a1b,64d2fd46c836a06233681665,64dc7f50a2d5bf81038bce02,,,,,,,decisionTrl,resources/DBN.BMP,resources/DG.BMP,Door4,-0.354444444,0.018888889,1,0,0,1.049,optionLeft,80,10970,5,26,0,26,0,1,,,,,,,,,,,,,,,,,,,,,,,,,,,,,,,,,,,,,,,
,,,,,,,,2023-08-16_08h48.51.133,HF_wild_card,2022.2.4,MacIntel,59.95203837,57f18e976c19420001438a1b,64d2fd46c836a06233681665,64dc7f50a2d5bf81038bce02,,,,,,,ctch,resources/DG.BMP,resources/DR.BMP,Door3,-0.438888889,0.014444444,1,0,0,1.497,optionLeft,70,11040,5,27,0,27,0,1,,,,,,,,,,,,,,,,,,,,,,,,,,,,,,,,,,,,,,,
,,,,,,,,2023-08-16_08h48.51.133,HF_wild_card,2022.2.4,MacIntel,59.95203837,57f18e976c19420001438a1b,64d2fd46c836a06233681665,64dc7f50a2d5bf81038bce02,,,,,,,sngl,resources/DG.BMP,resources/Empty.png,Door3,-0.37,0.018888889,1,0,0,0.915,optionLeft,70,11110,5,28,0,28,0,1,,,,,,,,,,,,,,,,,,,,,,,,,,,,,,,,,,,,,,,
,,,,,,,,2023-08-16_08h48.51.133,HF_wild_card,2022.2.4,MacIntel,59.95203837,57f18e976c19420001438a1b,64d2fd46c836a06233681665,64dc7f50a2d5bf81038bce02,,,,,,,decisionTrl,resources/DBN.BMP,resources/DB.BMP,WildCard_Ex,0.442222222,0.016666667,1,0,0,1.199,optionRight,5,11115,5,29,0,29,0,1,,,,,,,,,,,,,,,,,,,,,,,,,,,,,,,,,,,,,,,
,,,,,,,,2023-08-16_08h48.51.133,HF_wild_card,2022.2.4,MacIntel,59.95203837,57f18e976c19420001438a1b,64d2fd46c836a06233681665,64dc7f50a2d5bf81038bce02,,,,,,,ctch,resources/DP.BMP,resources/DBN.BMP,Door4,0.42,0.022222222,1,0,0,1.016,optionRight,60,11175,5,30,0,30,0,1,,,,,,,,,,,,,,,,,,,,,,,,,,,,,,,,,,,,,,,
,,,,,,,,2023-08-16_08h48.51.133,HF_wild_card,2022.2.4,MacIntel,59.95203837,57f18e976c19420001438a1b,64d2fd46c836a06233681665,64dc7f50a2d5bf81038bce02,,,,,,,decisionTrl,resources/DR.BMP,resources/DP.BMP,Door2,-0.351111111,0.051111111,1,0,0,1.463,optionLeft,40,11215,5,31,0,31,0,1,,,,,,,,,,,,,,,,,,,,,,,,,,,,,,,,,,,,,,,
,,,,,,,,2023-08-16_08h48.51.133,HF_wild_card,2022.2.4,MacIntel,59.95203837,57f18e976c19420001438a1b,64d2fd46c836a06233681665,64dc7f50a2d5bf81038bce02,,,,,,,sngl,resources/Empty.png,resources/DP.BMP,Door1,0.367777778,0.025555556,1,0,0,0.881,optionRight,30,11245,5,32,0,32,0,1,,,,,,,,,,,,,,,,,,,,,,,,,,,,,,,,,,,,,,,
,,,,,,,,2023-08-16_08h48.51.133,HF_wild_card,2022.2.4,MacIntel,59.95203837,57f18e976c19420001438a1b,64d2fd46c836a06233681665,64dc7f50a2d5bf81038bce02,,,,,,,decisionTrl,resources/DG.BMP,resources/DBN.BMP,Door4,0.371111111,0.038888889,1,0,0,0.998,optionRight,60,11305,5,33,0,33,0,1,,,,,,,,,,,,,,,,,,,,,,,,,,,,,,,,,,,,,,,
,,,,,,,,2023-08-16_08h48.51.133,HF_wild_card,2022.2.4,MacIntel,59.95203837,57f18e976c19420001438a1b,64d2fd46c836a06233681665,64dc7f50a2d5bf81038bce02,,,,,,,decisionTrl,resources/DB.BMP,resources/DBN.BMP,WildCard_Ex,-0.358888889,0.008888889,1,0,0,1.614,optionLeft,95,11400,5,34,0,34,0,1,,,,,,,,,,,,,,,,,,,,,,,,,,,,,,,,,,,,,,,
,,,,,,,,2023-08-16_08h48.51.133,HF_wild_card,2022.2.4,MacIntel,59.95203837,57f18e976c19420001438a1b,64d2fd46c836a06233681665,64dc7f50a2d5bf81038bce02,,,,,,,decisionTrl,resources/DR.BMP,resources/DP.BMP,Door1,0.348888889,-0.015555556,1,0,0,1.098,optionRight,30,11430,5,35,0,35,0,1,,,,,,,,,,,,,,,,,,,,,,,,,,,,,,,,,,,,,,,
,,,,,,,,2023-08-16_08h48.51.133,HF_wild_card,2022.2.4,MacIntel,59.95203837,57f18e976c19420001438a1b,64d2fd46c836a06233681665,64dc7f50a2d5bf81038bce02,,,,,,,decisionTrl,resources/DP.BMP,resources/DR.BMP,Door2,0.397777778,0.007777778,1,0,0,1.398,optionRight,20,11450,5,36,0,36,0,1,,,,,,,,,,,,,,,,,,,,,,,,,,,,,,,,,,,,,,,
,,,,,,,,2023-08-16_08h48.51.133,HF_wild_card,2022.2.4,MacIntel,59.95203837,57f18e976c19420001438a1b,64d2fd46c836a06233681665,64dc7f50a2d5bf81038bce02,,,,,,,sngl,resources/DR.BMP,resources/Empty.png,Door2,-0.353333333,0.03,1,0,0,0.948,optionLeft,40,11490,5,37,0,37,0,1,,,,,,,,,,,,,,,,,,,,,,,,,,,,,,,,,,,,,,,
,,,,,,,,2023-08-16_08h48.51.133,HF_wild_card,2022.2.4,MacIntel,59.95203837,57f18e976c19420001438a1b,64d2fd46c836a06233681665,64dc7f50a2d5bf81038bce02,,,,,,,ctch,resources/DBN.BMP,resources/DP.BMP,Door4,-0.26,0.035555556,1,0,0,1.316,optionLeft,80,11570,5,38,0,38,0,1,,,,,,,,,,,,,,,,,,,,,,,,,,,,,,,,,,,,,,,
,,,,,,,,2023-08-16_08h48.51.133,HF_wild_card,2022.2.4,MacIntel,59.95203837,57f18e976c19420001438a1b,64d2fd46c836a06233681665,64dc7f50a2d5bf81038bce02,,,,,,,sngl,resources/Empty.png,resources/DB.BMP,WildCard_Ex,0.264444444,0.001111111,1,0,0,1.016,optionRight,5,11575,5,39,0,39,0,1,,,,,,,,,,,,,,,,,,,,,,,,,,,,,,,,,,,,,,,
,,,,,,,,2023-08-16_08h48.51.133,HF_wild_card,2022.2.4,MacIntel,59.95203837,57f18e976c19420001438a1b,64d2fd46c836a06233681665,64dc7f50a2d5bf81038bce02,,,,,,,sngl,resources/Empty.png,resources/DR.BMP,Door2,0.447777778,-0.01,1,0,0,0.997,optionRight,20,11595,5,40,0,40,0,1,,,,,,,,,,,,,,,,,,,,,,,,,,,,,,,,,,,,,,,
,,,,,,,,2023-08-16_08h48.51.133,HF_wild_card,2022.2.4,MacIntel,59.95203837,57f18e976c19420001438a1b,64d2fd46c836a06233681665,64dc7f50a2d5bf81038bce02,,,,,,,decisionTrl,resources/DB.BMP,resources/DP.BMP,WildCard_Ex,-0.277777778,0.015555556,1,0,0,0.882,optionLeft,95,11690,5,41,0,41,0,1,,,,,,,,,,,,,,,,,,,,,,,,,,,,,,,,,,,,,,,
,,,,,,,,2023-08-16_08h48.51.133,HF_wild_card,2022.2.4,MacIntel,59.95203837,57f18e976c19420001438a1b,64d2fd46c836a06233681665,64dc7f50a2d5bf81038bce02,,,,,,,decisionTrl,resources/DG.BMP,resources/DBN.BMP,Door3,-0.337777778,0.042222222,1,0,0,1.43,optionLeft,70,11760,5,42,0,42,0,1,,,,,,,,,,,,,,,,,,,,,,,,,,,,,,,,,,,,,,,
,,,,,,,,2023-08-16_08h48.51.133,HF_wild_card,2022.2.4,MacIntel,59.95203837,57f18e976c19420001438a1b,64d2fd46c836a06233681665,64dc7f50a2d5bf81038bce02,,,,,,,decisionTrl,resources/DG.BMP,resources/DBN.BMP,Door3,-0.377777778,-0.015555556,1,0,0,1.282,optionLeft,70,11830,5,43,0,43,0,1,,,,,,,,,,,,,,,,,,,,,,,,,,,,,,,,,,,,,,,
,,,,,,,,2023-08-16_08h48.51.133,HF_wild_card,2022.2.4,MacIntel,59.95203837,57f18e976c19420001438a1b,64d2fd46c836a06233681665,64dc7f50a2d5bf81038bce02,,,,,,,,,,,,,,,,,,,,,,,,,,4,0,4,0,1,,,,,,,,,,,,,,,,,,,,,,,,,,,,,,,,,,
,,,,,,,,2023-08-16_08h48.51.133,HF_wild_card,2022.2.4,MacIntel,59.95203837,57f18e976c19420001438a1b,64d2fd46c836a06233681665,64dc7f50a2d5bf81038bce02,,,,,,,decisionTrl,resources/DG.BMP,resources/DBN.BMP,Door4,0.547777778,0.031111111,1,0,0,1.647,optionRight,80,11910,6,0,0,0,0,1,,,,,,,,,,,,,,,,,,,,,,,,,,,,,,,,,,,,,,,
,,,,,,,,2023-08-16_08h48.51.133,HF_wild_card,2022.2.4,MacIntel,59.95203837,57f18e976c19420001438a1b,64d2fd46c836a06233681665,64dc7f50a2d5bf81038bce02,,,,,,,decisionTrl,resources/DB.BMP,resources/DR.BMP,WildCard_Ex,-0.462222222,0.008888889,1,0,0,0.815,optionLeft,95,12005,6,1,0,1,0,1,,,,,,,,,,,,,,,,,,,,,,,,,,,,,,,,,,,,,,,
,,,,,,,,2023-08-16_08h48.51.133,HF_wild_card,2022.2.4,MacIntel,59.95203837,57f18e976c19420001438a1b,64d2fd46c836a06233681665,64dc7f50a2d5bf81038bce02,,,,,,,decisionTrl,resources/DG.BMP,resources/DB.BMP,Door3,-0.316666667,0.028888889,1,0,0,1.332,optionLeft,70,12075,6,2,0,2,0,1,,,,,,,,,,,,,,,,,,,,,,,,,,,,,,,,,,,,,,,
,,,,,,,,2023-08-16_08h48.51.133,HF_wild_card,2022.2.4,MacIntel,59.95203837,57f18e976c19420001438a1b,64d2fd46c836a06233681665,64dc7f50a2d5bf81038bce02,,,,,,,decisionTrl,resources/DP.BMP,resources/DR.BMP,Door1,-0.37,-0.013333333,1,0,0,1.548,optionLeft,30,12105,6,3,0,3,0,1,,,,,,,,,,,,,,,,,,,,,,,,,,,,,,,,,,,,,,,
,,,,,,,,2023-08-16_08h48.51.133,HF_wild_card,2022.2.4,MacIntel,59.95203837,57f18e976c19420001438a1b,64d2fd46c836a06233681665,64dc7f50a2d5bf81038bce02,,,,,,,decisionTrl,resources/DR.BMP,resources/DB.BMP,WildCard_Ex,0.364444444,-0.055555556,1,0,0,1.116,optionRight,95,12200,6,4,0,4,0,1,,,,,,,,,,,,,,,,,,,,,,,,,,,,,,,,,,,,,,,
,,,,,,,,2023-08-16_08h48.51.133,HF_wild_card,2022.2.4,MacIntel,59.95203837,57f18e976c19420001438a1b,64d2fd46c836a06233681665,64dc7f50a2d5bf81038bce02,,,,,,,ctch,resources/DBN.BMP,resources/DP.BMP,Door4,-0.396666667,0.002222222,1,0,0,1.032,optionLeft,80,12280,6,5,0,5,0,1,,,,,,,,,,,,,,,,,,,,,,,,,,,,,,,,,,,,,,,
,,,,,,,,2023-08-16_08h48.51.133,HF_wild_card,2022.2.4,MacIntel,59.95203837,57f18e976c19420001438a1b,64d2fd46c836a06233681665,64dc7f50a2d5bf81038bce02,,,,,,,sngl,resources/Empty.png,resources/DB.BMP,WildCard_Ex,0.334444444,-0.028888889,1,0,0,1.132,optionRight,95,12375,6,6,0,6,0,1,,,,,,,,,,,,,,,,,,,,,,,,,,,,,,,,,,,,,,,
,,,,,,,,2023-08-16_08h48.51.133,HF_wild_card,2022.2.4,MacIntel,59.95203837,57f18e976c19420001438a1b,64d2fd46c836a06233681665,64dc7f50a2d5bf81038bce02,,,,,,,sngl,resources/DB.BMP,resources/Empty.png,WildCard_Ex,-0.37,-0.006666667,1,0,0,0.798,optionLeft,5,12380,6,7,0,7,0,1,,,,,,,,,,,,,,,,,,,,,,,,,,,,,,,,,,,,,,,
,,,,,,,,2023-08-16_08h48.51.133,HF_wild_card,2022.2.4,MacIntel,59.95203837,57f18e976c19420001438a1b,64d2fd46c836a06233681665,64dc7f50a2d5bf81038bce02,,,,,,,decisionTrl,resources/DR.BMP,resources/DP.BMP,Door2,-0.353333333,-0.057777778,1,0,0,1.297,optionLeft,40,12420,6,8,0,8,0,1,,,,,,,,,,,,,,,,,,,,,,,,,,,,,,,,,,,,,,,
,,,,,,,,2023-08-16_08h48.51.133,HF_wild_card,2022.2.4,MacIntel,59.95203837,57f18e976c19420001438a1b,64d2fd46c836a06233681665,64dc7f50a2d5bf81038bce02,,,,,,,sngl,resources/Empty.png,resources/DR.BMP,Door2,0.394444444,-0.021111111,1,0,0,0.798,optionRight,40,12460,6,9,0,9,0,1,,,,,,,,,,,,,,,,,,,,,,,,,,,,,,,,,,,,,,,
,,,,,,,,2023-08-16_08h48.51.133,HF_wild_card,2022.2.4,MacIntel,59.95203837,57f18e976c19420001438a1b,64d2fd46c836a06233681665,64dc7f50a2d5bf81038bce02,,,,,,,sngl,resources/DR.BMP,resources/Empty.png,Door2,-0.373333333,-0.021111111,1,0,0,1.163,optionLeft,20,12480,6,10,0,10,0,1,,,,,,,,,,,,,,,,,,,,,,,,,,,,,,,,,,,,,,,
,,,,,,,,2023-08-16_08h48.51.133,HF_wild_card,2022.2.4,MacIntel,59.95203837,57f18e976c19420001438a1b,64d2fd46c836a06233681665,64dc7f50a2d5bf81038bce02,,,,,,,decisionTrl,resources/DG.BMP,resources/DBN.BMP,Door3,-0.325555556,-0.016666667,1,0,0,1.097,optionLeft,70,12550,6,11,0,11,0,1,,,,,,,,,,,,,,,,,,,,,,,,,,,,,,,,,,,,,,,
,,,,,,,,2023-08-16_08h48.51.133,HF_wild_card,2022.2.4,MacIntel,59.95203837,57f18e976c19420001438a1b,64d2fd46c836a06233681665,64dc7f50a2d5bf81038bce02,,,,,,,sngl,resources/DB.BMP,resources/Empty.png,WildCard_Ex,-0.393333333,-0.011111111,1,0,0,0.799,optionLeft,95,12645,6,12,0,12,0,1,,,,,,,,,,,,,,,,,,,,,,,,,,,,,,,,,,,,,,,
,,,,,,,,2023-08-16_08h48.51.133,HF_wild_card,2022.2.4,MacIntel,59.95203837,57f18e976c19420001438a1b,64d2fd46c836a06233681665,64dc7f50a2d5bf81038bce02,,,,,,,decisionTrl,resources/DP.BMP,resources/DB.BMP,Door1,-0.371111111,-0.018888889,1,0,0,1.381,optionLeft,30,12675,6,13,0,13,0,1,,,,,,,,,,,,,,,,,,,,,,,,,,,,,,,,,,,,,,,
,,,,,,,,2023-08-16_08h48.51.133,HF_wild_card,2022.2.4,MacIntel,59.95203837,57f18e976c19420001438a1b,64d2fd46c836a06233681665,64dc7f50a2d5bf81038bce02,,,,,,,sngl,resources/DBN.BMP,resources/Empty.png,Door4,-0.386666667,0.02,1,0,0,0.831,optionLeft,60,12735,6,14,0,14,0,1,,,,,,,,,,,,,,,,,,,,,,,,,,,,,,,,,,,,,,,
,,,,,,,,2023-08-16_08h48.51.133,HF_wild_card,2022.2.4,MacIntel,59.95203837,57f18e976c19420001438a1b,64d2fd46c836a06233681665,64dc7f50a2d5bf81038bce02,,,,,,,ctch,resources/DP.BMP,resources/DBN.BMP,Door4,0.287777778,0.004444444,1,0,0,1.381,optionRight,80,12815,6,15,0,15,0,1,,,,,,,,,,,,,,,,,,,,,,,,,,,,,,,,,,,,,,,
,,,,,,,,2023-08-16_08h48.51.133,HF_wild_card,2022.2.4,MacIntel,59.95203837,57f18e976c19420001438a1b,64d2fd46c836a06233681665,64dc7f50a2d5bf81038bce02,,,,,,,decisionTrl,resources/DR.BMP,resources/DP.BMP,Door1,0.372222222,0.002222222,1,0,0,2.065,optionRight,30,12845,6,16,0,16,0,1,,,,,,,,,,,,,,,,,,,,,,,,,,,,,,,,,,,,,,,
,,,,,,,,2023-08-16_08h48.51.133,HF_wild_card,2022.2.4,MacIntel,59.95203837,57f18e976c19420001438a1b,64d2fd46c836a06233681665,64dc7f50a2d5bf81038bce02,,,,,,,ctch,resources/DG.BMP,resources/DR.BMP,Door3,-0.333333333,0.021111111,1,0,0,1.149,optionLeft,70,12915,6,17,0,17,0,1,,,,,,,,,,,,,,,,,,,,,,,,,,,,,,,,,,,,,,,
,,,,,,,,2023-08-16_08h48.51.133,HF_wild_card,2022.2.4,MacIntel,59.95203837,57f18e976c19420001438a1b,64d2fd46c836a06233681665,64dc7f50a2d5bf81038bce02,,,,,,,sngl,resources/Empty.png,resources/DB.BMP,WildCard_Ex,0.284444444,-0.004444444,1,0,0,0.964,optionRight,5,12920,6,18,0,18,0,1,,,,,,,,,,,,,,,,,,,,,,,,,,,,,,,,,,,,,,,
,,,,,,,,2023-08-16_08h48.51.133,HF_wild_card,2022.2.4,MacIntel,59.95203837,57f18e976c19420001438a1b,64d2fd46c836a06233681665,64dc7f50a2d5bf81038bce02,,,,,,,sngl,resources/Empty.png,resources/DBN.BMP,Door4,0.334444444,-0.033333333,1,0,0,0.913,optionRight,80,13000,6,19,0,19,0,1,,,,,,,,,,,,,,,,,,,,,,,,,,,,,,,,,,,,,,,
,,,,,,,,2023-08-16_08h48.51.133,HF_wild_card,2022.2.4,MacIntel,59.95203837,57f18e976c19420001438a1b,64d2fd46c836a06233681665,64dc7f50a2d5bf81038bce02,,,,,,,decisionTrl,resources/DG.BMP,resources/DBN.BMP,Door4,0.361111111,0.008888889,1,0,0,1.382,optionRight,80,13080,6,20,0,20,0,1,,,,,,,,,,,,,,,,,,,,,,,,,,,,,,,,,,,,,,,
,,,,,,,,2023-08-16_08h48.51.133,HF_wild_card,2022.2.4,MacIntel,59.95203837,57f18e976c19420001438a1b,64d2fd46c836a06233681665,64dc7f50a2d5bf81038bce02,,,,,,,decisionTrl,resources/DB.BMP,resources/DBN.BMP,WildCard_Ex,-0.304444444,-0.007777778,1,0,0,1.23,optionLeft,95,13175,6,21,0,21,0,1,,,,,,,,,,,,,,,,,,,,,,,,,,,,,,,,,,,,,,,
,,,,,,,,2023-08-16_08h48.51.133,HF_wild_card,2022.2.4,MacIntel,59.95203837,57f18e976c19420001438a1b,64d2fd46c836a06233681665,64dc7f50a2d5bf81038bce02,,,,,,,sngl,resources/DP.BMP,resources/Empty.png,Door1,-0.367777778,0.015555556,1,0,0,0.964,optionLeft,30,13205,6,22,0,22,0,1,,,,,,,,,,,,,,,,,,,,,,,,,,,,,,,,,,,,,,,
,,,,,,,,2023-08-16_08h48.51.133,HF_wild_card,2022.2.4,MacIntel,59.95203837,57f18e976c19420001438a1b,64d2fd46c836a06233681665,64dc7f50a2d5bf81038bce02,,,,,,,decisionTrl,resources/DBN.BMP,resources/DG.BMP,Door4,-0.357777778,0.003333333,1,0,0,1.148,optionLeft,80,13285,6,23,0,23,0,1,,,,,,,,,,,,,,,,,,,,,,,,,,,,,,,,,,,,,,,
,,,,,,,,2023-08-16_08h48.51.133,HF_wild_card,2022.2.4,MacIntel,59.95203837,57f18e976c19420001438a1b,64d2fd46c836a06233681665,64dc7f50a2d5bf81038bce02,,,,,,,sngl,resources/Empty.png,resources/DG.BMP,Door3,0.265555556,0.017777778,1,0,0,0.998,optionRight,70,13355,6,24,0,24,0,1,,,,,,,,,,,,,,,,,,,,,,,,,,,,,,,,,,,,,,,
,,,,,,,,2023-08-16_08h48.51.133,HF_wild_card,2022.2.4,MacIntel,59.95203837,57f18e976c19420001438a1b,64d2fd46c836a06233681665,64dc7f50a2d5bf81038bce02,,,,,,,ctch,resources/DR.BMP,resources/DG.BMP,Door3,0.257777778,0.003333333,1,0,0,1.765,optionRight,70,13425,6,25,0,25,0,1,,,,,,,,,,,,,,,,,,,,,,,,,,,,,,,,,,,,,,,
,,,,,,,,2023-08-16_08h48.51.133,HF_wild_card,2022.2.4,MacIntel,59.95203837,57f18e976c19420001438a1b,64d2fd46c836a06233681665,64dc7f50a2d5bf81038bce02,,,,,,,decisionTrl,resources/DBN.BMP,resources/DG.BMP,Door4,-0.278888889,-0.118888889,1,0,0,2.115,optionLeft,80,13505,6,26,0,26,0,1,,,,,,,,,,,,,,,,,,,,,,,,,,,,,,,,,,,,,,,
,,,,,,,,2023-08-16_08h48.51.133,HF_wild_card,2022.2.4,MacIntel,59.95203837,57f18e976c19420001438a1b,64d2fd46c836a06233681665,64dc7f50a2d5bf81038bce02,,,,,,,sngl,resources/DG.BMP,resources/Empty.png,Door3,-0.365555556,0.023333333,1,0,0,0.865,optionLeft,70,13575,6,27,0,27,0,1,,,,,,,,,,,,,,,,,,,,,,,,,,,,,,,,,,,,,,,
,,,,,,,,2023-08-16_08h48.51.133,HF_wild_card,2022.2.4,MacIntel,59.95203837,57f18e976c19420001438a1b,64d2fd46c836a06233681665,64dc7f50a2d5bf81038bce02,,,,,,,decisionTrl,resources/DBN.BMP,resources/DG.BMP,Door4,-0.386666667,-0.007777778,1,0,0,0.981,optionLeft,80,13655,6,28,0,28,0,1,,,,,,,,,,,,,,,,,,,,,,,,,,,,,,,,,,,,,,,
,,,,,,,,2023-08-16_08h48.51.133,HF_wild_card,2022.2.4,MacIntel,59.95203837,57f18e976c19420001438a1b,64d2fd46c836a06233681665,64dc7f50a2d5bf81038bce02,,,,,,,decisionTrl,resources/DG.BMP,resources/DBN.BMP,Door4,0.31,0.018888889,1,0,0,0.931,optionRight,80,13735,6,29,0,29,0,1,,,,,,,,,,,,,,,,,,,,,,,,,,,,,,,,,,,,,,,
,,,,,,,,2023-08-16_08h48.51.133,HF_wild_card,2022.2.4,MacIntel,59.95203837,57f18e976c19420001438a1b,64d2fd46c836a06233681665,64dc7f50a2d5bf81038bce02,,,,,,,ctch,resources/DG.BMP,resources/DR.BMP,Door3,-0.191111111,0.028888889,1,0,0,1.464,optionLeft,70,13805,6,30,0,30,0,1,,,,,,,,,,,,,,,,,,,,,,,,,,,,,,,,,,,,,,,
,,,,,,,,2023-08-16_08h48.51.133,HF_wild_card,2022.2.4,MacIntel,59.95203837,57f18e976c19420001438a1b,64d2fd46c836a06233681665,64dc7f50a2d5bf81038bce02,,,,,,,ctch,resources/DP.BMP,resources/DBN.BMP,Door4,0.361111111,-0.001111111,1,0,0,1.747,optionRight,60,13865,6,31,0,31,0,1,,,,,,,,,,,,,,,,,,,,,,,,,,,,,,,,,,,,,,,
,,,,,,,,2023-08-16_08h48.51.133,HF_wild_card,2022.2.4,MacIntel,59.95203837,57f18e976c19420001438a1b,64d2fd46c836a06233681665,64dc7f50a2d5bf81038bce02,,,,,,,decisionTrl,resources/DBN.BMP,resources/DB.BMP,WildCard_Ex,0.281111111,-0.021111111,1,0,0,1.015,optionRight,5,13870,6,32,0,32,0,1,,,,,,,,,,,,,,,,,,,,,,,,,,,,,,,,,,,,,,,
,,,,,,,,2023-08-16_08h48.51.133,HF_wild_card,2022.2.4,MacIntel,59.95203837,57f18e976c19420001438a1b,64d2fd46c836a06233681665,64dc7f50a2d5bf81038bce02,,,,,,,ctch,resources/DBN.BMP,resources/DP.BMP,Door4,-0.423333333,0.004444444,1,0,0,1.099,optionLeft,60,13930,6,33,0,33,0,1,,,,,,,,,,,,,,,,,,,,,,,,,,,,,,,,,,,,,,,
,,,,,,,,2023-08-16_08h48.51.133,HF_wild_card,2022.2.4,MacIntel,59.95203837,57f18e976c19420001438a1b,64d2fd46c836a06233681665,64dc7f50a2d5bf81038bce02,,,,,,,decisionTrl,resources/DR.BMP,resources/DP.BMP,Door2,-0.375555556,-0.017777778,1,0,0,2.165,optionLeft,20,13950,6,34,0,34,0,1,,,,,,,,,,,,,,,,,,,,,,,,,,,,,,,,,,,,,,,
,,,,,,,,2023-08-16_08h48.51.133,HF_wild_card,2022.2.4,MacIntel,59.95203837,57f18e976c19420001438a1b,64d2fd46c836a06233681665,64dc7f50a2d5bf81038bce02,,,,,,,decisionTrl,resources/DB.BMP,resources/DG.BMP,WildCard_Ex,-0.354444444,0,1,0,0,0.965,optionLeft,5,13955,6,35,0,35,0,1,,,,,,,,,,,,,,,,,,,,,,,,,,,,,,,,,,,,,,,
,,,,,,,,2023-08-16_08h48.51.133,HF_wild_card,2022.2.4,MacIntel,59.95203837,57f18e976c19420001438a1b,64d2fd46c836a06233681665,64dc7f50a2d5bf81038bce02,,,,,,,decisionTrl,resources/DBN.BMP,resources/DG.BMP,Door4,-0.361111111,0.024444444,1,0,0,1.016,optionLeft,60,14015,6,36,0,36,0,1,,,,,,,,,,,,,,,,,,,,,,,,,,,,,,,,,,,,,,,
,,,,,,,,2023-08-16_08h48.51.133,HF_wild_card,2022.2.4,MacIntel,59.95203837,57f18e976c19420001438a1b,64d2fd46c836a06233681665,64dc7f50a2d5bf81038bce02,,,,,,,ctch,resources/DR.BMP,resources/DG.BMP,Door3,0.408888889,-0.022222222,1,0,0,1.082,optionRight,70,14085,6,37,0,37,0,1,,,,,,,,,,,,,,,,,,,,,,,,,,,,,,,,,,,,,,,
,,,,,,,,2023-08-16_08h48.51.133,HF_wild_card,2022.2.4,MacIntel,59.95203837,57f18e976c19420001438a1b,64d2fd46c836a06233681665,64dc7f50a2d5bf81038bce02,,,,,,,decisionTrl,resources/DP.BMP,resources/DR.BMP,Door1,-0.476666667,0.02,1,0,0,2.247,optionLeft,30,14115,6,38,0,38,0,1,,,,,,,,,,,,,,,,,,,,,,,,,,,,,,,,,,,,,,,
,,,,,,,,2023-08-16_08h48.51.133,HF_wild_card,2022.2.4,MacIntel,59.95203837,57f18e976c19420001438a1b,64d2fd46c836a06233681665,64dc7f50a2d5bf81038bce02,,,,,,,decisionTrl,resources/DP.BMP,resources/DR.BMP,Door1,-0.34,0.017777778,1,0,0,0.881,optionLeft,30,14145,6,39,0,39,0,1,,,,,,,,,,,,,,,,,,,,,,,,,,,,,,,,,,,,,,,
,,,,,,,,2023-08-16_08h48.51.133,HF_wild_card,2022.2.4,MacIntel,59.95203837,57f18e976c19420001438a1b,64d2fd46c836a06233681665,64dc7f50a2d5bf81038bce02,,,,,,,decisionTrl,resources/DB.BMP,resources/DP.BMP,WildCard_Ex,-0.335555556,0.042222222,1,0,0,1.33,optionLeft,5,14150,6,40,0,40,0,1,,,,,,,,,,,,,,,,,,,,,,,,,,,,,,,,,,,,,,,
,,,,,,,,2023-08-16_08h48.51.133,HF_wild_card,2022.2.4,MacIntel,59.95203837,57f18e976c19420001438a1b,64d2fd46c836a06233681665,64dc7f50a2d5bf81038bce02,,,,,,,decisionTrl,resources/DP.BMP,resources/DR.BMP,Door1,-0.35,0.02,1,0,0,0.948,optionLeft,30,14180,6,41,0,41,0,1,,,,,,,,,,,,,,,,,,,,,,,,,,,,,,,,,,,,,,,
,,,,,,,,2023-08-16_08h48.51.133,HF_wild_card,2022.2.4,MacIntel,59.95203837,57f18e976c19420001438a1b,64d2fd46c836a06233681665,64dc7f50a2d5bf81038bce02,,,,,,,sngl,resources/Empty.png,resources/DP.BMP,Door1,0.357777778,-0.005555556,1,0,0,1.797,optionRight,30,14210,6,42,0,42,0,1,,,,,,,,,,,,,,,,,,,,,,,,,,,,,,,,,,,,,,,
,,,,,,,,2023-08-16_08h48.51.133,HF_wild_card,2022.2.4,MacIntel,59.95203837,57f18e976c19420001438a1b,64d2fd46c836a06233681665,64dc7f50a2d5bf81038bce02,,,,,,,decisionTrl,resources/DR.BMP,resources/DP.BMP,Door2,-0.392222222,-0.103333333,1,0,0,1.297,optionLeft,40,14250,6,43,0,43,0,1,,,,,,,,,,,,,,,,,,,,,,,,,,,,,,,,,,,,,,,
,,,,,,,,2023-08-16_08h48.51.133,HF_wild_card,2022.2.4,MacIntel,59.95203837,57f18e976c19420001438a1b,64d2fd46c836a06233681665,64dc7f50a2d5bf81038bce02,,,,,,,,,,,,,,,,,,,,,,,,,,5,0,5,0,1,,,,,,,,,,,,,,,,,,,,,,,,,,,,,,,,,,
,,,,,,,,2023-08-16_08h48.51.133,HF_wild_card,2022.2.4,MacIntel,59.95203837,57f18e976c19420001438a1b,64d2fd46c836a06233681665,64dc7f50a2d5bf81038bce02,,,,,,,decisionTrl,resources/DG.BMP,resources/DBN.BMP,Door4,0.506666667,0.098888889,1,0,0,1.712,optionRight,60,14310,7,0,0,0,0,1,,,,,,,,,,,,,,,,,,,,,,,,,,,,,,,,,,,,,,,
,,,,,,,,2023-08-16_08h48.51.133,HF_wild_card,2022.2.4,MacIntel,59.95203837,57f18e976c19420001438a1b,64d2fd46c836a06233681665,64dc7f50a2d5bf81038bce02,,,,,,,ctch,resources/DG.BMP,resources/DR.BMP,Door3,-0.321111111,-0.022222222,1,0,0,1.115,optionLeft,70,14380,7,1,0,1,0,1,,,,,,,,,,,,,,,,,,,,,,,,,,,,,,,,,,,,,,,
,,,,,,,,2023-08-16_08h48.51.133,HF_wild_card,2022.2.4,MacIntel,59.95203837,57f18e976c19420001438a1b,64d2fd46c836a06233681665,64dc7f50a2d5bf81038bce02,,,,,,,decisionTrl,resources/DBN.BMP,resources/DG.BMP,Door4,-0.41,0.015555556,1,0,0,1.082,optionLeft,80,14460,7,2,0,2,0,1,,,,,,,,,,,,,,,,,,,,,,,,,,,,,,,,,,,,,,,
,,,,,,,,2023-08-16_08h48.51.133,HF_wild_card,2022.2.4,MacIntel,59.95203837,57f18e976c19420001438a1b,64d2fd46c836a06233681665,64dc7f50a2d5bf81038bce02,,,,,,,ctch,resources/DP.BMP,resources/DBN.BMP,Door4,0.242222222,-0.011111111,1,0,0,1.365,optionRight,60,14520,7,3,0,3,0,1,,,,,,,,,,,,,,,,,,,,,,,,,,,,,,,,,,,,,,,
,,,,,,,,2023-08-16_08h48.51.133,HF_wild_card,2022.2.4,MacIntel,59.95203837,57f18e976c19420001438a1b,64d2fd46c836a06233681665,64dc7f50a2d5bf81038bce02,,,,,,,ctch,resources/DG.BMP,resources/DR.BMP,Door3,-0.357777778,-0.011111111,1,0,0,1.415,optionLeft,70,14590,7,4,0,4,0,1,,,,,,,,,,,,,,,,,,,,,,,,,,,,,,,,,,,,,,,
,,,,,,,,2023-08-16_08h48.51.133,HF_wild_card,2022.2.4,MacIntel,59.95203837,57f18e976c19420001438a1b,64d2fd46c836a06233681665,64dc7f50a2d5bf81038bce02,,,,,,,decisionTrl,resources/DBN.BMP,resources/DG.BMP,Door4,-0.304444444,0.028888889,1,0,0,1.115,optionLeft,80,14670,7,5,0,5,0,1,,,,,,,,,,,,,,,,,,,,,,,,,,,,,,,,,,,,,,,
,,,,,,,,2023-08-16_08h48.51.133,HF_wild_card,2022.2.4,MacIntel,59.95203837,57f18e976c19420001438a1b,64d2fd46c836a06233681665,64dc7f50a2d5bf81038bce02,,,,,,,decisionTrl,resources/DG.BMP,resources/DBN.BMP,Door3,-0.292222222,-0.09,1,0,0,1.698,optionLeft,70,14740,7,6,0,6,0,1,,,,,,,,,,,,,,,,,,,,,,,,,,,,,,,,,,,,,,,
,,,,,,,,2023-08-16_08h48.51.133,HF_wild_card,2022.2.4,MacIntel,59.95203837,57f18e976c19420001438a1b,64d2fd46c836a06233681665,64dc7f50a2d5bf81038bce02,,,,,,,decisionTrl,resources/DR.BMP,resources/DP.BMP,Door1,0.328888889,0.003333333,1,0,0,1.899,optionRight,30,14770,7,7,0,7,0,1,,,,,,,,,,,,,,,,,,,,,,,,,,,,,,,,,,,,,,,
,,,,,,,,2023-08-16_08h48.51.133,HF_wild_card,2022.2.4,MacIntel,59.95203837,57f18e976c19420001438a1b,64d2fd46c836a06233681665,64dc7f50a2d5bf81038bce02,,,,,,,decisionTrl,resources/DBN.BMP,resources/DG.BMP,Door3,0.317777778,-0.002222222,1,0,0,1.964,optionRight,70,14840,7,8,0,8,0,1,,,,,,,,,,,,,,,,,,,,,,,,,,,,,,,,,,,,,,,
,,,,,,,,2023-08-16_08h48.51.133,HF_wild_card,2022.2.4,MacIntel,59.95203837,57f18e976c19420001438a1b,64d2fd46c836a06233681665,64dc7f50a2d5bf81038bce02,,,,,,,decisionTrl,resources/DP.BMP,resources/DR.BMP,Door1,-0.338888889,-0.042222222,1,0,0,1.349,optionLeft,30,14870,7,9,0,9,0,1,,,,,,,,,,,,,,,,,,,,,,,,,,,,,,,,,,,,,,,
,,,,,,,,2023-08-16_08h48.51.133,HF_wild_card,2022.2.4,MacIntel,59.95203837,57f18e976c19420001438a1b,64d2fd46c836a06233681665,64dc7f50a2d5bf81038bce02,,,,,,,ctch,resources/DBN.BMP,resources/DP.BMP,Door4,-0.363333333,-0.052222222,1,0,0,2.399,optionLeft,80,14950,7,10,0,10,0,1,,,,,,,,,,,,,,,,,,,,,,,,,,,,,,,,,,,,,,,
,,,,,,,,2023-08-16_08h48.51.133,HF_wild_card,2022.2.4,MacIntel,59.95203837,57f18e976c19420001438a1b,64d2fd46c836a06233681665,64dc7f50a2d5bf81038bce02,,,,,,,decisionTrl,resources/DG.BMP,resources/DBN.BMP,Door4,0.288888889,0.001111111,1,0,0,1.732,optionRight,60,15010,7,11,0,11,0,1,,,,,,,,,,,,,,,,,,,,,,,,,,,,,,,,,,,,,,,
,,,,,,,,2023-08-16_08h48.51.133,HF_wild_card,2022.2.4,MacIntel,59.95203837,57f18e976c19420001438a1b,64d2fd46c836a06233681665,64dc7f50a2d5bf81038bce02,,,,,,,decisionTrl,resources/DP.BMP,resources/DR.BMP,Door2,0.403333333,0.055555556,1,0,0,2.35,optionRight,40,15050,7,12,0,12,0,1,,,,,,,,,,,,,,,,,,,,,,,,,,,,,,,,,,,,,,,
,,,,,,,,2023-08-16_08h48.51.133,HF_wild_card,2022.2.4,MacIntel,59.95203837,57f18e976c19420001438a1b,64d2fd46c836a06233681665,64dc7f50a2d5bf81038bce02,,,,,,,decisionTrl,resources/DR.BMP,resources/DP.BMP,Door1,0.305555556,-0.017777778,1,0,0,1.882,optionRight,30,15080,7,13,0,13,0,1,,,,,,,,,,,,,,,,,,,,,,,,,,,,,,,,,,,,,,,
,,,,,,,,2023-08-16_08h48.51.133,HF_wild_card,2022.2.4,MacIntel,59.95203837,57f18e976c19420001438a1b,64d2fd46c836a06233681665,64dc7f50a2d5bf81038bce02,,,,,,,decisionTrl,resources/DG.BMP,resources/DBN.BMP,Door3,-0.303333333,0,1,0,0,1.649,optionLeft,70,15150,7,14,0,14,0,1,,,,,,,,,,,,,,,,,,,,,,,,,,,,,,,,,,,,,,,
,,,,,,,,2023-08-16_08h48.51.133,HF_wild_card,2022.2.4,MacIntel,59.95203837,57f18e976c19420001438a1b,64d2fd46c836a06233681665,64dc7f50a2d5bf81038bce02,,,,,,,decisionTrl,resources/DBN.BMP,resources/DG.BMP,Door4,-0.41,0.046666667,1,0,0,1.515,optionLeft,60,15210,7,15,0,15,0,1,,,,,,,,,,,,,,,,,,,,,,,,,,,,,,,,,,,,,,,
,,,,,,,,2023-08-16_08h48.51.133,HF_wild_card,2022.2.4,MacIntel,59.95203837,57f18e976c19420001438a1b,64d2fd46c836a06233681665,64dc7f50a2d5bf81038bce02,,,,,,,decisionTrl,resources/DR.BMP,resources/DP.BMP,Door1,0.406666667,0.023333333,1,0,0,3.949,optionRight,30,15240,7,16,0,16,0,1,,,,,,,,,,,,,,,,,,,,,,,,,,,,,,,,,,,,,,,
,,,,,,,,2023-08-16_08h48.51.133,HF_wild_card,2022.2.4,MacIntel,59.95203837,57f18e976c19420001438a1b,64d2fd46c836a06233681665,64dc7f50a2d5bf81038bce02,,,,,,,decisionTrl,resources/DP.BMP,resources/DR.BMP,Door2,0.358888889,0.034444444,1,0,0,1.396,optionRight,40,15280,7,17,0,17,0,1,,,,,,,,,,,,,,,,,,,,,,,,,,,,,,,,,,,,,,,
,,,,,,,,2023-08-16_08h48.51.133,HF_wild_card,2022.2.4,MacIntel,59.95203837,57f18e976c19420001438a1b,64d2fd46c836a06233681665,64dc7f50a2d5bf81038bce02,,,,,,,decisionTrl,resources/DP.BMP,resources/DR.BMP,Door1,-0.362222222,-0.013333333,1,0,0,0.983,optionLeft,30,15310,7,18,0,18,0,1,,,,,,,,,,,,,,,,,,,,,,,,,,,,,,,,,,,,,,,
,,,,,,,,2023-08-16_08h48.51.133,HF_wild_card,2022.2.4,MacIntel,59.95203837,57f18e976c19420001438a1b,64d2fd46c836a06233681665,64dc7f50a2d5bf81038bce02,,,,,,,ctch,resources/DG.BMP,resources/DR.BMP,Door3,-0.467777778,0.014444444,1,0,0,0.982,optionLeft,70,15380,7,19,0,19,0,1,,,,,,,,,,,,,,,,,,,,,,,,,,,,,,,,,,,,,,,
,,,,,,,,2023-08-16_08h48.51.133,HF_wild_card,2022.2.4,MacIntel,59.95203837,57f18e976c19420001438a1b,64d2fd46c836a06233681665,64dc7f50a2d5bf81038bce02,,,,,,,ctch,resources/DP.BMP,resources/DBN.BMP,Door4,0.431111111,0.164444444,1,0,0,0.933,optionRight,60,15440,7,20,0,20,0,1,,,,,,,,,,,,,,,,,,,,,,,,,,,,,,,,,,,,,,,
,,,,,,,,2023-08-16_08h48.51.133,HF_wild_card,2022.2.4,MacIntel,59.95203837,57f18e976c19420001438a1b,64d2fd46c836a06233681665,64dc7f50a2d5bf81038bce02,,,,,,,decisionTrl,resources/DP.BMP,resources/DR.BMP,Door1,-0.324444444,-0.023333333,1,0,0,3.116,optionLeft,30,15470,7,21,0,21,0,1,,,,,,,,,,,,,,,,,,,,,,,,,,,,,,,,,,,,,,,
,,,,,,,,2023-08-16_08h48.51.133,HF_wild_card,2022.2.4,MacIntel,59.95203837,57f18e976c19420001438a1b,64d2fd46c836a06233681665,64dc7f50a2d5bf81038bce02,,,,,,,decisionTrl,resources/DR.BMP,resources/DP.BMP,Door1,0.307777778,-0.025555556,1,0,0,1.163,optionRight,30,15500,7,22,0,22,0,1,,,,,,,,,,,,,,,,,,,,,,,,,,,,,,,,,,,,,,,
,,,,,,,,2023-08-16_08h48.51.133,HF_wild_card,2022.2.4,MacIntel,59.95203837,57f18e976c19420001438a1b,64d2fd46c836a06233681665,64dc7f50a2d5bf81038bce02,,,,,,,ctch,resources/DBN.BMP,resources/DP.BMP,Door4,-0.374444444,0.145555556,1,0,0,1.181,optionLeft,60,15560,7,23,0,23,0,1,,,,,,,,,,,,,,,,,,,,,,,,,,,,,,,,,,,,,,,
,,,,,,,,2023-08-16_08h48.51.133,HF_wild_card,2022.2.4,MacIntel,59.95203837,57f18e976c19420001438a1b,64d2fd46c836a06233681665,64dc7f50a2d5bf81038bce02,,,,,,,decisionTrl,resources/DBN.BMP,resources/DG.BMP,Door3,0.452222222,-0.154444444,1,0,0,1.966,optionRight,70,15630,7,24,0,24,0,1,,,,,,,,,,,,,,,,,,,,,,,,,,,,,,,,,,,,,,,
,,,,,,,,2023-08-16_08h48.51.133,HF_wild_card,2022.2.4,MacIntel,59.95203837,57f18e976c19420001438a1b,64d2fd46c836a06233681665,64dc7f50a2d5bf81038bce02,,,,,,,ctch,resources/DR.BMP,resources/DG.BMP,Door3,0.501111111,0.053333333,1,0,0,1.149,optionRight,70,15700,7,25,0,25,0,1,,,,,,,,,,,,,,,,,,,,,,,,,,,,,,,,,,,,,,,
,,,,,,,,2023-08-16_08h48.51.133,HF_wild_card,2022.2.4,MacIntel,59.95203837,57f18e976c19420001438a1b,64d2fd46c836a06233681665,64dc7f50a2d5bf81038bce02,,,,,,,decisionTrl,resources/DBN.BMP,resources/DG.BMP,Door4,-0.444444444,0.037777778,1,0,0,0.799,optionLeft,80,15780,7,26,0,26,0,1,,,,,,,,,,,,,,,,,,,,,,,,,,,,,,,,,,,,,,,
,,,,,,,,2023-08-16_08h48.51.133,HF_wild_card,2022.2.4,MacIntel,59.95203837,57f18e976c19420001438a1b,64d2fd46c836a06233681665,64dc7f50a2d5bf81038bce02,,,,,,,ctch,resources/DP.BMP,resources/DBN.BMP,Door4,0.34,0.056666667,1,0,0,1.232,optionRight,60,15840,7,27,0,27,0,1,,,,,,,,,,,,,,,,,,,,,,,,,,,,,,,,,,,,,,,
,,,,,,,,2023-08-16_08h48.51.133,HF_wild_card,2022.2.4,MacIntel,59.95203837,57f18e976c19420001438a1b,64d2fd46c836a06233681665,64dc7f50a2d5bf81038bce02,,,,,,,decisionTrl,resources/DP.BMP,resources/DR.BMP,Door1,-0.394444444,0.077777778,1,0,0,1.434,optionLeft,30,15870,7,28,0,28,0,1,,,,,,,,,,,,,,,,,,,,,,,,,,,,,,,,,,,,,,,
,,,,,,,,2023-08-16_08h48.51.133,HF_wild_card,2022.2.4,MacIntel,59.95203837,57f18e976c19420001438a1b,64d2fd46c836a06233681665,64dc7f50a2d5bf81038bce02,,,,,,,ctch,resources/DR.BMP,resources/DG.BMP,Door3,0.374444444,0.007777778,1,0,0,1.682,optionRight,70,15940,7,29,0,29,0,1,,,,,,,,,,,,,,,,,,,,,,,,,,,,,,,,,,,,,,,
,,,,,,,,2023-08-16_08h48.51.133,HF_wild_card,2022.2.4,MacIntel,59.95203837,57f18e976c19420001438a1b,64d2fd46c836a06233681665,64dc7f50a2d5bf81038bce02,,,,,,,decisionTrl,resources/DG.BMP,resources/DBN.BMP,Door4,0.367777778,-0.03,1,0,0,1.1,optionRight,60,16000,7,30,0,30,0,1,,,,,,,,,,,,,,,,,,,,,,,,,,,,,,,,,,,,,,,
,,,,,,,,2023-08-16_08h48.51.133,HF_wild_card,2022.2.4,MacIntel,59.95203837,57f18e976c19420001438a1b,64d2fd46c836a06233681665,64dc7f50a2d5bf81038bce02,,,,,,,decisionTrl,resources/DR.BMP,resources/DP.BMP,Door1,0.386666667,-0.042222222,1,0,0,1.199,optionRight,30,16030,7,31,0,31,0,1,,,,,,,,,,,,,,,,,,,,,,,,,,,,,,,,,,,,,,,
,,,,,,,,2023-08-16_08h48.51.133,HF_wild_card,2022.2.4,MacIntel,59.95203837,57f18e976c19420001438a1b,64d2fd46c836a06233681665,64dc7f50a2d5bf81038bce02,,,,,,,ctch,resources/DBN.BMP,resources/DP.BMP,Door4,-0.451111111,0.038888889,1,0,0,0.9,optionLeft,80,16110,7,32,0,32,0,1,,,,,,,,,,,,,,,,,,,,,,,,,,,,,,,,,,,,,,,
,,,,,,,,2023-08-16_08h48.51.133,HF_wild_card,2022.2.4,MacIntel,59.95203837,57f18e976c19420001438a1b,64d2fd46c836a06233681665,64dc7f50a2d5bf81038bce02,,,,,,,decisionTrl,resources/DG.BMP,resources/DBN.BMP,Door4,0.375555556,0.008888889,1,0,0,1.199,optionRight,80,16190,7,33,0,33,0,1,,,,,,,,,,,,,,,,,,,,,,,,,,,,,,,,,,,,,,,
,,,,,,,,2023-08-16_08h48.51.133,HF_wild_card,2022.2.4,MacIntel,59.95203837,57f18e976c19420001438a1b,64d2fd46c836a06233681665,64dc7f50a2d5bf81038bce02,,,,,,,ctch,resources/DR.BMP,resources/DG.BMP,Door3,0.35,-0.048888889,1,0,0,1.165,optionRight,70,16260,7,34,0,34,0,1,,,,,,,,,,,,,,,,,,,,,,,,,,,,,,,,,,,,,,,
,,,,,,,,2023-08-16_08h48.51.133,HF_wild_card,2022.2.4,MacIntel,59.95203837,57f18e976c19420001438a1b,64d2fd46c836a06233681665,64dc7f50a2d5bf81038bce02,,,,,,,decisionTrl,resources/DR.BMP,resources/DP.BMP,Door2,-0.29,-0.014444444,1,0,0,1.732,optionLeft,40,16300,7,35,0,35,0,1,,,,,,,,,,,,,,,,,,,,,,,,,,,,,,,,,,,,,,,
,,,,,,,,2023-08-16_08h48.51.133,HF_wild_card,2022.2.4,MacIntel,59.95203837,57f18e976c19420001438a1b,64d2fd46c836a06233681665,64dc7f50a2d5bf81038bce02,,,,,,,,,,,,,,,,,,,,,,,,,,6,0,6,0,1,,,,,,,,,,,,,,,,,,,,,,,,,,,,,,,,,,
,,,,,,,,2023-08-16_08h48.51.133,HF_wild_card,2022.2.4,MacIntel,59.95203837,57f18e976c19420001438a1b,64d2fd46c836a06233681665,64dc7f50a2d5bf81038bce02,,,,,,,,,,,,,,,,,,,,,,,,,,,,,,,4,,,,,,,,,,,,,,,,,,,,,,,,,,,,,,,,,
,,,,,,,,2023-08-16_08h48.51.133,HF_wild_card,2022.2.4,MacIntel,59.95203837,57f18e976c19420001438a1b,64d2fd46c836a06233681665,64dc7f50a2d5bf81038bce02,,,,,,,,,,,,,,,,,,,,,,,,,,,,,,,,,,,,,,,,,,,,,,,,,,,,,,,,,,,,,,,,
,,,,,,,,2023-08-16_08h48.51.133,HF_wild_card,2022.2.4,MacIntel,59.95203837,57f18e976c19420001438a1b,64d2fd46c836a06233681665,64dc7f50a2d5bf81038bce02,,,,,,,,,,,,,,,,,,,,,,,,,,,,,,,,35,WC_nonExtreme,resources/DY.BMP,0,0,0,0,1,,,,,,,,,,,,,,,,,,,,,,,,,
,,,,,,,,2023-08-16_08h48.51.133,HF_wild_card,2022.2.4,MacIntel,59.95203837,57f18e976c19420001438a1b,64d2fd46c836a06233681665,64dc7f50a2d5bf81038bce02,,,,,,,,,,,,,,,,,,,,,,,,,,,,,,,,40,Door1,resources/DP.BMP,1,0,1,0,1,,,,,,,,,,,,,,,,,,,,,,,,,
,,,,,,,,2023-08-16_08h48.51.133,HF_wild_card,2022.2.4,MacIntel,59.95203837,57f18e976c19420001438a1b,64d2fd46c836a06233681665,64dc7f50a2d5bf81038bce02,,,,,,,,,,,,,,,,,,,,,,,,,,,,,,,,30,Door2,resources/DR.BMP,2,0,2,0,1,,,,,,,,,,,,,,,,,,,,,,,,,
,,,,,,,,2023-08-16_08h48.51.133,HF_wild_card,2022.2.4,MacIntel,59.95203837,57f18e976c19420001438a1b,64d2fd46c836a06233681665,64dc7f50a2d5bf81038bce02,,,,,,,,,,,,,,,,,,,,,,,,,,,,,,,,60,Door4,resources/DBN.BMP,3,0,3,0,1,,,,,,,,,,,,,,,,,,,,,,,,,
,,,,,,,,2023-08-16_08h48.51.133,HF_wild_card,2022.2.4,MacIntel,59.95203837,57f18e976c19420001438a1b,64d2fd46c836a06233681665,64dc7f50a2d5bf81038bce02,,,,,,,,,,,,,,,,,,,,,,,,,,,,,,,,95,WC_extreme,resources/DB.BMP,4,0,4,0,1,,,,,,,,,,,,,,,,,,,,,,,,,
,,,,,,,,2023-08-16_08h48.51.133,HF_wild_card,2022.2.4,MacIntel,59.95203837,57f18e976c19420001438a1b,64d2fd46c836a06233681665,64dc7f50a2d5bf81038bce02,,,,,,,,,,,,,,,,,,,,,,,,,,,,,,,,70,Door3,resources/DG.BMP,5,0,5,0,1,,,,,,,,,,,,,,,,,,,,,,,,,
