Condition,Low fixed image (Door1),Low risky image (Door2),High fixed image (Door3),High risky image (Door4),Extreme Wild Card,NonExtreme Wild Card,,date,expName,psychopyVersion,OS,frameRate,PROLIFIC_PID,STUDY_ID,SESSION_ID,mouse_2.x,mouse_2.y,mouse_2.leftButton,mouse_2.midButton,mouse_2.rightButton,mouse_2.clicked_name,Trial Type,Left Option Image,Right Option Image,Chosen Door,mouse.x,mouse.y,mouse.leftButton,mouse.midButton,mouse.rightButton,mouse.time,mouse.clicked_name,Feedback,Cumulative Reward,Block,trial.thisRepN,trial.thisTrialN,trial.thisN,trial.thisIndex,trial.ran,blocks.thisRepN,blocks.thisTrialN,blocks.thisN,blocks.thisIndex,blocks.ran,Money conversion,First Outcome Reported,Shown Door (First Outcome),Displayed Image (First Outcome),outcomes.thisRepN,outcomes.thisTrialN,outcomes.thisN,outcomes.thisIndex,outcomes.ran,judgments.thisRepN,judgments.thisTrialN,judgments.thisN,judgments.thisIndex,judgments.ran,freqMouse.x,freqMouse.y,freqMouse.leftButton,freqMouse.midButton,freqMouse.rightButton,freqMouse.clicked_name,trials.thisRepN,trials.thisTrialN,trials.thisN,trials.thisIndex,trials.ran,FQJ for first outcome,FQJ for second outcome,Shown Door,Displayed Image,judgBlock.thisRepN,judgBlock.thisTrialN,judgBlock.thisN,judgBlock.thisIndex,judgBlock.ran
0,resources/DBN.BMP,resources/DY.BMP,resources/DR.BMP,resources/DP.BMP,resources/DG.BMP,resources/DB.BMP,,2023-08-16_08h38.50.247,HF_wild_card,2022.2.4,Win32,60.11060351,6146f8473af59b2f858aa2f2,64d2fd46c836a06233681665,64dc7cf31a8da31a47b5d4a8,,,,,,,,,,,,,,,,,,,,,,,,,,,,,,,,,,,,,,,,,,,,,,,,,,,,,,,,,,,,,,,,
,,,,,,,,2023-08-16_08h38.50.247,HF_wild_card,2022.2.4,Win32,60.11060351,6146f8473af59b2f858aa2f2,64d2fd46c836a06233681665,64dc7cf31a8da31a47b5d4a8,-0.011111111,-0.421296296,1,0,0,agree,,,,,,,,,,,,,,,,,,,,,,,,,,,,,,,,,,,,,,,,,,,,,,,,,,,,,,,,,,
,,,,,,,,2023-08-16_08h38.50.247,HF_wild_card,2022.2.4,Win32,60.11060351,6146f8473af59b2f858aa2f2,64d2fd46c836a06233681665,64dc7cf31a8da31a47b5d4a8,,,,,,,,,,,,,,,,,,,,,,,,,,,,,,,,,,,,,,,,,,,,,,,,,,,,,,,,,,,,,,,,
,,,,,,,,2023-08-16_08h38.50.247,HF_wild_card,2022.2.4,Win32,60.11060351,6146f8473af59b2f858aa2f2,64d2fd46c836a06233681665,64dc7cf31a8da31a47b5d4a8,,,,,,,ctch,resources/DY.BMP,resources/DR.BMP,Door3,0.355555556,-0.048148148,1,0,0,1.9279,optionRight,70,70,1,0,0,0,0,1,,,,,,,,,,,,,,,,,,,,,,,,,,,,,,,,,,,,,,,
,,,,,,,,2023-08-16_08h38.50.247,HF_wild_card,2022.2.4,Win32,60.11060351,6146f8473af59b2f858aa2f2,64d2fd46c836a06233681665,64dc7cf31a8da31a47b5d4a8,,,,,,,decisionTrl,resources/DR.BMP,resources/DP.BMP,Door4,0.340740741,-0.037037037,1,0,0,1.0116,optionRight,80,150,1,1,0,1,0,1,,,,,,,,,,,,,,,,,,,,,,,,,,,,,,,,,,,,,,,
,,,,,,,,2023-08-16_08h38.50.247,HF_wild_card,2022.2.4,Win32,60.11060351,6146f8473af59b2f858aa2f2,64d2fd46c836a06233681665,64dc7cf31a8da31a47b5d4a8,,,,,,,decisionTrl,resources/DG.BMP,resources/DP.BMP,WildCard_Ex,-0.302777778,0.00462963,1,0,0,0.8312,optionLeft,5,155,1,2,0,2,0,1,,,,,,,,,,,,,,,,,,,,,,,,,,,,,,,,,,,,,,,
,,,,,,,,2023-08-16_08h38.50.247,HF_wild_card,2022.2.4,Win32,60.11060351,6146f8473af59b2f858aa2f2,64d2fd46c836a06233681665,64dc7cf31a8da31a47b5d4a8,,,,,,,decisionTrl,resources/DBN.BMP,resources/DY.BMP,Door1,-0.423148148,-0.022222222,1,0,0,1.1086,optionLeft,30,185,1,3,0,3,0,1,,,,,,,,,,,,,,,,,,,,,,,,,,,,,,,,,,,,,,,
,,,,,,,,2023-08-16_08h38.50.247,HF_wild_card,2022.2.4,Win32,60.11060351,6146f8473af59b2f858aa2f2,64d2fd46c836a06233681665,64dc7cf31a8da31a47b5d4a8,,,,,,,sngl,resources/Empty.png,resources/DBN.BMP,Door1,0.386111111,-0.014814815,1,0,0,0.5817,optionRight,30,215,1,4,0,4,0,1,,,,,,,,,,,,,,,,,,,,,,,,,,,,,,,,,,,,,,,
,,,,,,,,2023-08-16_08h38.50.247,HF_wild_card,2022.2.4,Win32,60.11060351,6146f8473af59b2f858aa2f2,64d2fd46c836a06233681665,64dc7cf31a8da31a47b5d4a8,,,,,,,sngl,resources/DY.BMP,resources/Empty.png,Door2,-0.360185185,0.00462963,1,0,0,0.5589,optionLeft,40,255,1,5,0,5,0,1,,,,,,,,,,,,,,,,,,,,,,,,,,,,,,,,,,,,,,,
,,,,,,,,2023-08-16_08h38.50.247,HF_wild_card,2022.2.4,Win32,60.11060351,6146f8473af59b2f858aa2f2,64d2fd46c836a06233681665,64dc7cf31a8da31a47b5d4a8,,,,,,,decisionTrl,resources/DBN.BMP,resources/DG.BMP,WildCard_Ex,0.368518519,-0.033333333,1,0,0,0.6321,optionRight,5,260,1,6,0,6,0,1,,,,,,,,,,,,,,,,,,,,,,,,,,,,,,,,,,,,,,,
,,,,,,,,2023-08-16_08h38.50.247,HF_wild_card,2022.2.4,Win32,60.11060351,6146f8473af59b2f858aa2f2,64d2fd46c836a06233681665,64dc7cf31a8da31a47b5d4a8,,,,,,,sngl,resources/Empty.png,resources/DR.BMP,Door3,0.373148148,-0.057407407,1,0,0,0.5974,optionRight,70,330,1,7,0,7,0,1,,,,,,,,,,,,,,,,,,,,,,,,,,,,,,,,,,,,,,,
,,,,,,,,2023-08-16_08h38.50.247,HF_wild_card,2022.2.4,Win32,60.11060351,6146f8473af59b2f858aa2f2,64d2fd46c836a06233681665,64dc7cf31a8da31a47b5d4a8,,,,,,,ctch,resources/DBN.BMP,resources/DP.BMP,Door4,0.457407407,-0.065740741,1,0,0,0.5494,optionRight,80,410,1,8,0,8,0,1,,,,,,,,,,,,,,,,,,,,,,,,,,,,,,,,,,,,,,,
,,,,,,,,2023-08-16_08h38.50.247,HF_wild_card,2022.2.4,Win32,60.11060351,6146f8473af59b2f858aa2f2,64d2fd46c836a06233681665,64dc7cf31a8da31a47b5d4a8,,,,,,,decisionTrl,resources/DR.BMP,resources/DP.BMP,Door4,0.381481481,-0.015740741,1,0,0,0.6144,optionRight,80,490,1,9,0,9,0,1,,,,,,,,,,,,,,,,,,,,,,,,,,,,,,,,,,,,,,,
,,,,,,,,2023-08-16_08h38.50.247,HF_wild_card,2022.2.4,Win32,60.11060351,6146f8473af59b2f858aa2f2,64d2fd46c836a06233681665,64dc7cf31a8da31a47b5d4a8,,,,,,,decisionTrl,resources/DBN.BMP,resources/DY.BMP,Door1,-0.409259259,0.075925926,1,0,0,0.9802,optionLeft,30,520,1,10,0,10,0,1,,,,,,,,,,,,,,,,,,,,,,,,,,,,,,,,,,,,,,,
,,,,,,,,2023-08-16_08h38.50.247,HF_wild_card,2022.2.4,Win32,60.11060351,6146f8473af59b2f858aa2f2,64d2fd46c836a06233681665,64dc7cf31a8da31a47b5d4a8,,,,,,,decisionTrl,resources/DR.BMP,resources/DG.BMP,Door3,-0.303703704,0.018518519,1,0,0,1.0141,optionLeft,70,590,1,11,0,11,0,1,,,,,,,,,,,,,,,,,,,,,,,,,,,,,,,,,,,,,,,
,,,,,,,,2023-08-16_08h38.50.247,HF_wild_card,2022.2.4,Win32,60.11060351,6146f8473af59b2f858aa2f2,64d2fd46c836a06233681665,64dc7cf31a8da31a47b5d4a8,,,,,,,decisionTrl,resources/DR.BMP,resources/DP.BMP,Door4,0.324074074,-0.001851852,1,0,0,0.5666,optionRight,60,650,1,12,0,12,0,1,,,,,,,,,,,,,,,,,,,,,,,,,,,,,,,,,,,,,,,
,,,,,,,,2023-08-16_08h38.50.247,HF_wild_card,2022.2.4,Win32,60.11060351,6146f8473af59b2f858aa2f2,64d2fd46c836a06233681665,64dc7cf31a8da31a47b5d4a8,,,,,,,ctch,resources/DR.BMP,resources/DY.BMP,Door2,0.496296296,0.007407407,1,0,0,1.4507,optionRight,20,670,1,13,0,13,0,1,,,,,,,,,,,,,,,,,,,,,,,,,,,,,,,,,,,,,,,
,,,,,,,,2023-08-16_08h38.50.247,HF_wild_card,2022.2.4,Win32,60.11060351,6146f8473af59b2f858aa2f2,64d2fd46c836a06233681665,64dc7cf31a8da31a47b5d4a8,,,,,,,decisionTrl,resources/DG.BMP,resources/DR.BMP,WildCard_Ex,-0.39537037,0.025925926,1,0,0,0.6929,optionLeft,5,675,1,14,0,14,0,1,,,,,,,,,,,,,,,,,,,,,,,,,,,,,,,,,,,,,,,
,,,,,,,,2023-08-16_08h38.50.247,HF_wild_card,2022.2.4,Win32,60.11060351,6146f8473af59b2f858aa2f2,64d2fd46c836a06233681665,64dc7cf31a8da31a47b5d4a8,,,,,,,sngl,resources/DR.BMP,resources/Empty.png,Door3,-0.351851852,0.022222222,1,0,0,0.7688,optionLeft,70,745,1,15,0,15,0,1,,,,,,,,,,,,,,,,,,,,,,,,,,,,,,,,,,,,,,,
,,,,,,,,2023-08-16_08h38.50.247,HF_wild_card,2022.2.4,Win32,60.11060351,6146f8473af59b2f858aa2f2,64d2fd46c836a06233681665,64dc7cf31a8da31a47b5d4a8,,,,,,,ctch,resources/DR.BMP,resources/DY.BMP,Door2,0.366666667,0.022222222,1,0,0,0.5252,optionRight,20,765,1,16,0,16,0,1,,,,,,,,,,,,,,,,,,,,,,,,,,,,,,,,,,,,,,,
,,,,,,,,2023-08-16_08h38.50.247,HF_wild_card,2022.2.4,Win32,60.11060351,6146f8473af59b2f858aa2f2,64d2fd46c836a06233681665,64dc7cf31a8da31a47b5d4a8,,,,,,,decisionTrl,resources/DY.BMP,resources/DBN.BMP,Door2,-0.288888889,0.006481481,1,0,0,0.5561,optionLeft,40,805,1,17,0,17,0,1,,,,,,,,,,,,,,,,,,,,,,,,,,,,,,,,,,,,,,,
,,,,,,,,2023-08-16_08h38.50.247,HF_wild_card,2022.2.4,Win32,60.11060351,6146f8473af59b2f858aa2f2,64d2fd46c836a06233681665,64dc7cf31a8da31a47b5d4a8,,,,,,,decisionTrl,resources/DY.BMP,resources/DBN.BMP,Door1,0.251851852,-0.028703704,1,0,0,0.5102,optionRight,30,835,1,18,0,18,0,1,,,,,,,,,,,,,,,,,,,,,,,,,,,,,,,,,,,,,,,
,,,,,,,,2023-08-16_08h38.50.247,HF_wild_card,2022.2.4,Win32,60.11060351,6146f8473af59b2f858aa2f2,64d2fd46c836a06233681665,64dc7cf31a8da31a47b5d4a8,,,,,,,decisionTrl,resources/DR.BMP,resources/DP.BMP,Door3,-0.355555556,0.02037037,1,0,0,0.6517,optionLeft,70,905,1,19,0,19,0,1,,,,,,,,,,,,,,,,,,,,,,,,,,,,,,,,,,,,,,,
,,,,,,,,2023-08-16_08h38.50.247,HF_wild_card,2022.2.4,Win32,60.11060351,6146f8473af59b2f858aa2f2,64d2fd46c836a06233681665,64dc7cf31a8da31a47b5d4a8,,,,,,,sngl,resources/DP.BMP,resources/Empty.png,Door4,-0.321296296,-0.002777778,1,0,0,0.6606,optionLeft,80,985,1,20,0,20,0,1,,,,,,,,,,,,,,,,,,,,,,,,,,,,,,,,,,,,,,,
,,,,,,,,2023-08-16_08h38.50.247,HF_wild_card,2022.2.4,Win32,60.11060351,6146f8473af59b2f858aa2f2,64d2fd46c836a06233681665,64dc7cf31a8da31a47b5d4a8,,,,,,,ctch,resources/DP.BMP,resources/DBN.BMP,Door1,0.368518519,0.028703704,1,0,0,0.4911,optionRight,30,1015,1,21,0,21,0,1,,,,,,,,,,,,,,,,,,,,,,,,,,,,,,,,,,,,,,,
,,,,,,,,2023-08-16_08h38.50.247,HF_wild_card,2022.2.4,Win32,60.11060351,6146f8473af59b2f858aa2f2,64d2fd46c836a06233681665,64dc7cf31a8da31a47b5d4a8,,,,,,,sngl,resources/DG.BMP,resources/Empty.png,WildCard_Ex,-0.355555556,0.002777778,1,0,0,0.5589,optionLeft,5,1020,1,22,0,22,0,1,,,,,,,,,,,,,,,,,,,,,,,,,,,,,,,,,,,,,,,
,,,,,,,,2023-08-16_08h38.50.247,HF_wild_card,2022.2.4,Win32,60.11060351,6146f8473af59b2f858aa2f2,64d2fd46c836a06233681665,64dc7cf31a8da31a47b5d4a8,,,,,,,decisionTrl,resources/DP.BMP,resources/DR.BMP,Door3,0.349074074,-0.009259259,1,0,0,0.5433,optionRight,70,1090,1,23,0,23,0,1,,,,,,,,,,,,,,,,,,,,,,,,,,,,,,,,,,,,,,,
,,,,,,,,2023-08-16_08h38.50.247,HF_wild_card,2022.2.4,Win32,60.11060351,6146f8473af59b2f858aa2f2,64d2fd46c836a06233681665,64dc7cf31a8da31a47b5d4a8,,,,,,,sngl,resources/Empty.png,resources/DG.BMP,WildCard_Ex,0.339814815,-0.008333333,1,0,0,0.498,optionRight,95,1185,1,24,0,24,0,1,,,,,,,,,,,,,,,,,,,,,,,,,,,,,,,,,,,,,,,
,,,,,,,,2023-08-16_08h38.50.247,HF_wild_card,2022.2.4,Win32,60.11060351,6146f8473af59b2f858aa2f2,64d2fd46c836a06233681665,64dc7cf31a8da31a47b5d4a8,,,,,,,ctch,resources/DY.BMP,resources/DR.BMP,Door3,0.302777778,0.001851852,1,0,0,0.4147,optionRight,70,1255,1,25,0,25,0,1,,,,,,,,,,,,,,,,,,,,,,,,,,,,,,,,,,,,,,,
,,,,,,,,2023-08-16_08h38.50.247,HF_wild_card,2022.2.4,Win32,60.11060351,6146f8473af59b2f858aa2f2,64d2fd46c836a06233681665,64dc7cf31a8da31a47b5d4a8,,,,,,,decisionTrl,resources/DP.BMP,resources/DR.BMP,Door3,0.286111111,0.011111111,1,0,0,0.4145,optionRight,70,1325,1,26,0,26,0,1,,,,,,,,,,,,,,,,,,,,,,,,,,,,,,,,,,,,,,,
,,,,,,,,2023-08-16_08h38.50.247,HF_wild_card,2022.2.4,Win32,60.11060351,6146f8473af59b2f858aa2f2,64d2fd46c836a06233681665,64dc7cf31a8da31a47b5d4a8,,,,,,,sngl,resources/Empty.png,resources/DY.BMP,Door2,0.261111111,0.035185185,1,0,0,0.4144,optionRight,20,1345,1,27,0,27,0,1,,,,,,,,,,,,,,,,,,,,,,,,,,,,,,,,,,,,,,,
,,,,,,,,2023-08-16_08h38.50.247,HF_wild_card,2022.2.4,Win32,60.11060351,6146f8473af59b2f858aa2f2,64d2fd46c836a06233681665,64dc7cf31a8da31a47b5d4a8,,,,,,,ctch,resources/DP.BMP,resources/DBN.BMP,Door4,-0.242592593,0.023148148,1,0,0,0.5149,optionLeft,60,1405,1,28,0,28,0,1,,,,,,,,,,,,,,,,,,,,,,,,,,,,,,,,,,,,,,,
,,,,,,,,2023-08-16_08h38.50.247,HF_wild_card,2022.2.4,Win32,60.11060351,6146f8473af59b2f858aa2f2,64d2fd46c836a06233681665,64dc7cf31a8da31a47b5d4a8,,,,,,,decisionTrl,resources/DBN.BMP,resources/DY.BMP,Door1,-0.252777778,0.010185185,1,0,0,0.4471,optionLeft,30,1435,1,29,0,29,0,1,,,,,,,,,,,,,,,,,,,,,,,,,,,,,,,,,,,,,,,
,,,,,,,,2023-08-16_08h38.50.247,HF_wild_card,2022.2.4,Win32,60.11060351,6146f8473af59b2f858aa2f2,64d2fd46c836a06233681665,64dc7cf31a8da31a47b5d4a8,,,,,,,sngl,resources/Empty.png,resources/DP.BMP,Door4,0.300925926,0.002777778,1,0,0,0.4649,optionRight,60,1495,1,30,0,30,0,1,,,,,,,,,,,,,,,,,,,,,,,,,,,,,,,,,,,,,,,
,,,,,,,,2023-08-16_08h38.50.247,HF_wild_card,2022.2.4,Win32,60.11060351,6146f8473af59b2f858aa2f2,64d2fd46c836a06233681665,64dc7cf31a8da31a47b5d4a8,,,,,,,sngl,resources/DBN.BMP,resources/Empty.png,Door1,-0.346296296,0.060185185,1,0,0,0.5631,optionLeft,30,1525,1,31,0,31,0,1,,,,,,,,,,,,,,,,,,,,,,,,,,,,,,,,,,,,,,,
,,,,,,,,2023-08-16_08h38.50.247,HF_wild_card,2022.2.4,Win32,60.11060351,6146f8473af59b2f858aa2f2,64d2fd46c836a06233681665,64dc7cf31a8da31a47b5d4a8,,,,,,,decisionTrl,resources/DG.BMP,resources/DBN.BMP,Door1,0.294444444,0.025925926,1,0,0,0.5414,optionRight,30,1555,1,32,0,32,0,1,,,,,,,,,,,,,,,,,,,,,,,,,,,,,,,,,,,,,,,
,,,,,,,,2023-08-16_08h38.50.247,HF_wild_card,2022.2.4,Win32,60.11060351,6146f8473af59b2f858aa2f2,64d2fd46c836a06233681665,64dc7cf31a8da31a47b5d4a8,,,,,,,decisionTrl,resources/DBN.BMP,resources/DY.BMP,Door2,0.326851852,0.026851852,1,0,0,0.5789,optionRight,20,1575,1,33,0,33,0,1,,,,,,,,,,,,,,,,,,,,,,,,,,,,,,,,,,,,,,,
,,,,,,,,2023-08-16_08h38.50.247,HF_wild_card,2022.2.4,Win32,60.11060351,6146f8473af59b2f858aa2f2,64d2fd46c836a06233681665,64dc7cf31a8da31a47b5d4a8,,,,,,,sngl,resources/Empty.png,resources/DG.BMP,WildCard_Ex,0.236111111,0.012037037,1,0,0,0.5637,optionRight,5,1580,1,34,0,34,0,1,,,,,,,,,,,,,,,,,,,,,,,,,,,,,,,,,,,,,,,
,,,,,,,,2023-08-16_08h38.50.247,HF_wild_card,2022.2.4,Win32,60.11060351,6146f8473af59b2f858aa2f2,64d2fd46c836a06233681665,64dc7cf31a8da31a47b5d4a8,,,,,,,decisionTrl,resources/DY.BMP,resources/DG.BMP,Door2,-0.312037037,0.064814815,1,0,0,0.5812,optionLeft,40,1620,1,35,0,35,0,1,,,,,,,,,,,,,,,,,,,,,,,,,,,,,,,,,,,,,,,
,,,,,,,,2023-08-16_08h38.50.247,HF_wild_card,2022.2.4,Win32,60.11060351,6146f8473af59b2f858aa2f2,64d2fd46c836a06233681665,64dc7cf31a8da31a47b5d4a8,,,,,,,decisionTrl,resources/DG.BMP,resources/DY.BMP,Door2,0.459259259,-0.047222222,1,0,0,0.6085,optionRight,20,1640,1,36,0,36,0,1,,,,,,,,,,,,,,,,,,,,,,,,,,,,,,,,,,,,,,,
,,,,,,,,2023-08-16_08h38.50.247,HF_wild_card,2022.2.4,Win32,60.11060351,6146f8473af59b2f858aa2f2,64d2fd46c836a06233681665,64dc7cf31a8da31a47b5d4a8,,,,,,,decisionTrl,resources/DP.BMP,resources/DR.BMP,Door4,-0.400925926,0.064814815,1,0,0,0.6415,optionLeft,60,1700,1,37,0,37,0,1,,,,,,,,,,,,,,,,,,,,,,,,,,,,,,,,,,,,,,,
,,,,,,,,2023-08-16_08h38.50.247,HF_wild_card,2022.2.4,Win32,60.11060351,6146f8473af59b2f858aa2f2,64d2fd46c836a06233681665,64dc7cf31a8da31a47b5d4a8,,,,,,,ctch,resources/DBN.BMP,resources/DP.BMP,Door4,0.406481481,0.026851852,1,0,0,0.6814,optionRight,80,1780,1,38,0,38,0,1,,,,,,,,,,,,,,,,,,,,,,,,,,,,,,,,,,,,,,,
,,,,,,,,2023-08-16_08h38.50.247,HF_wild_card,2022.2.4,Win32,60.11060351,6146f8473af59b2f858aa2f2,64d2fd46c836a06233681665,64dc7cf31a8da31a47b5d4a8,,,,,,,decisionTrl,resources/DP.BMP,resources/DG.BMP,Door4,-0.40462963,0.035185185,1,0,0,0.4595,optionLeft,60,1840,1,39,0,39,0,1,,,,,,,,,,,,,,,,,,,,,,,,,,,,,,,,,,,,,,,
,,,,,,,,2023-08-16_08h38.50.247,HF_wild_card,2022.2.4,Win32,60.11060351,6146f8473af59b2f858aa2f2,64d2fd46c836a06233681665,64dc7cf31a8da31a47b5d4a8,,,,,,,decisionTrl,resources/DY.BMP,resources/DBN.BMP,Door2,-0.217592593,0.04537037,1,0,0,0.3584,optionLeft,20,1860,1,40,0,40,0,1,,,,,,,,,,,,,,,,,,,,,,,,,,,,,,,,,,,,,,,
,,,,,,,,2023-08-16_08h38.50.247,HF_wild_card,2022.2.4,Win32,60.11060351,6146f8473af59b2f858aa2f2,64d2fd46c836a06233681665,64dc7cf31a8da31a47b5d4a8,,,,,,,sngl,resources/DG.BMP,resources/Empty.png,WildCard_Ex,0.232407407,0.075,1,0,0,0.3187,optionLeft,95,1955,1,41,0,41,0,1,,,,,,,,,,,,,,,,,,,,,,,,,,,,,,,,,,,,,,,
,,,,,,,,2023-08-16_08h38.50.247,HF_wild_card,2022.2.4,Win32,60.11060351,6146f8473af59b2f858aa2f2,64d2fd46c836a06233681665,64dc7cf31a8da31a47b5d4a8,,,,,,,decisionTrl,resources/DY.BMP,resources/DBN.BMP,Door1,0.30462963,0.061111111,1,0,0,0.3377,optionRight,30,1985,1,42,0,42,0,1,,,,,,,,,,,,,,,,,,,,,,,,,,,,,,,,,,,,,,,
,,,,,,,,2023-08-16_08h38.50.247,HF_wild_card,2022.2.4,Win32,60.11060351,6146f8473af59b2f858aa2f2,64d2fd46c836a06233681665,64dc7cf31a8da31a47b5d4a8,,,,,,,decisionTrl,resources/DP.BMP,resources/DR.BMP,Door3,0.27962963,0.00462963,1,0,0,0.4133,optionRight,70,2055,1,43,0,43,0,1,,,,,,,,,,,,,,,,,,,,,,,,,,,,,,,,,,,,,,,
,,,,,,,,2023-08-16_08h38.50.247,HF_wild_card,2022.2.4,Win32,60.11060351,6146f8473af59b2f858aa2f2,64d2fd46c836a06233681665,64dc7cf31a8da31a47b5d4a8,,,,,,,,,,,,,,,,,,,,,,,,,,0,0,0,0,1,,,,,,,,,,,,,,,,,,,,,,,,,,,,,,,,,,
,,,,,,,,2023-08-16_08h38.50.247,HF_wild_card,2022.2.4,Win32,60.11060351,6146f8473af59b2f858aa2f2,64d2fd46c836a06233681665,64dc7cf31a8da31a47b5d4a8,,,,,,,decisionTrl,resources/DR.BMP,resources/DP.BMP,Door4,0.365740741,-0.078703704,1,0,0,0.5613,optionRight,80,2135,2,0,0,0,0,1,,,,,,,,,,,,,,,,,,,,,,,,,,,,,,,,,,,,,,,
,,,,,,,,2023-08-16_08h38.50.247,HF_wild_card,2022.2.4,Win32,60.11060351,6146f8473af59b2f858aa2f2,64d2fd46c836a06233681665,64dc7cf31a8da31a47b5d4a8,,,,,,,decisionTrl,resources/DBN.BMP,resources/DY.BMP,Door2,0.262037037,0.003703704,1,0,0,0.3645,optionRight,40,2175,2,1,0,1,0,1,,,,,,,,,,,,,,,,,,,,,,,,,,,,,,,,,,,,,,,
,,,,,,,,2023-08-16_08h38.50.247,HF_wild_card,2022.2.4,Win32,60.11060351,6146f8473af59b2f858aa2f2,64d2fd46c836a06233681665,64dc7cf31a8da31a47b5d4a8,,,,,,,decisionTrl,resources/DY.BMP,resources/DBN.BMP,Door1,0.288888889,0.016666667,1,0,0,0.3475,optionRight,30,2205,2,2,0,2,0,1,,,,,,,,,,,,,,,,,,,,,,,,,,,,,,,,,,,,,,,
,,,,,,,,2023-08-16_08h38.50.247,HF_wild_card,2022.2.4,Win32,60.11060351,6146f8473af59b2f858aa2f2,64d2fd46c836a06233681665,64dc7cf31a8da31a47b5d4a8,,,,,,,sngl,resources/DR.BMP,resources/Empty.png,Door3,-0.346296296,-0.008333333,1,0,0,0.7141,optionLeft,70,2275,2,3,0,3,0,1,,,,,,,,,,,,,,,,,,,,,,,,,,,,,,,,,,,,,,,
,,,,,,,,2023-08-16_08h38.50.247,HF_wild_card,2022.2.4,Win32,60.11060351,6146f8473af59b2f858aa2f2,64d2fd46c836a06233681665,64dc7cf31a8da31a47b5d4a8,,,,,,,sngl,resources/DG.BMP,resources/Empty.png,WildCard_Ex,-0.266666667,0.050925926,1,0,0,0.3642,optionLeft,95,2370,2,4,0,4,0,1,,,,,,,,,,,,,,,,,,,,,,,,,,,,,,,,,,,,,,,
,,,,,,,,2023-08-16_08h38.50.247,HF_wild_card,2022.2.4,Win32,60.11060351,6146f8473af59b2f858aa2f2,64d2fd46c836a06233681665,64dc7cf31a8da31a47b5d4a8,,,,,,,sngl,resources/DG.BMP,resources/Empty.png,WildCard_Ex,-0.357407407,0.080555556,1,0,0,0.3363,optionLeft,5,2375,2,5,0,5,0,1,,,,,,,,,,,,,,,,,,,,,,,,,,,,,,,,,,,,,,,
,,,,,,,,2023-08-16_08h38.50.247,HF_wild_card,2022.2.4,Win32,60.11060351,6146f8473af59b2f858aa2f2,64d2fd46c836a06233681665,64dc7cf31a8da31a47b5d4a8,,,,,,,decisionTrl,resources/DBN.BMP,resources/DG.BMP,WildCard_Ex,0.264814815,0.022222222,1,0,0,0.298,optionRight,5,2380,2,6,0,6,0,1,,,,,,,,,,,,,,,,,,,,,,,,,,,,,,,,,,,,,,,
,,,,,,,,2023-08-16_08h38.50.247,HF_wild_card,2022.2.4,Win32,60.11060351,6146f8473af59b2f858aa2f2,64d2fd46c836a06233681665,64dc7cf31a8da31a47b5d4a8,,,,,,,decisionTrl,resources/DBN.BMP,resources/DY.BMP,Door1,-0.267592593,0.05,1,0,0,0.4468,optionLeft,30,2410,2,7,0,7,0,1,,,,,,,,,,,,,,,,,,,,,,,,,,,,,,,,,,,,,,,
,,,,,,,,2023-08-16_08h38.50.247,HF_wild_card,2022.2.4,Win32,60.11060351,6146f8473af59b2f858aa2f2,64d2fd46c836a06233681665,64dc7cf31a8da31a47b5d4a8,,,,,,,decisionTrl,resources/DR.BMP,resources/DG.BMP,WildCard_Ex,0.244444444,0.013888889,1,0,0,0.3088,optionRight,5,2415,2,8,0,8,0,1,,,,,,,,,,,,,,,,,,,,,,,,,,,,,,,,,,,,,,,
,,,,,,,,2023-08-16_08h38.50.247,HF_wild_card,2022.2.4,Win32,60.11060351,6146f8473af59b2f858aa2f2,64d2fd46c836a06233681665,64dc7cf31a8da31a47b5d4a8,,,,,,,decisionTrl,resources/DY.BMP,resources/DG.BMP,Door2,-0.135185185,0.044444444,1,0,0,0.3582,optionLeft,20,2435,2,9,0,9,0,1,,,,,,,,,,,,,,,,,,,,,,,,,,,,,,,,,,,,,,,
,,,,,,,,2023-08-16_08h38.50.247,HF_wild_card,2022.2.4,Win32,60.11060351,6146f8473af59b2f858aa2f2,64d2fd46c836a06233681665,64dc7cf31a8da31a47b5d4a8,,,,,,,decisionTrl,resources/DG.BMP,resources/DP.BMP,Door4,0.282407407,0.012962963,1,0,0,0.5083,optionRight,60,2495,2,10,0,10,0,1,,,,,,,,,,,,,,,,,,,,,,,,,,,,,,,,,,,,,,,
,,,,,,,,2023-08-16_08h38.50.247,HF_wild_card,2022.2.4,Win32,60.11060351,6146f8473af59b2f858aa2f2,64d2fd46c836a06233681665,64dc7cf31a8da31a47b5d4a8,,,,,,,decisionTrl,resources/DP.BMP,resources/DG.BMP,Door4,-0.30462963,0.068518519,1,0,0,0.5108,optionLeft,60,2555,2,11,0,11,0,1,,,,,,,,,,,,,,,,,,,,,,,,,,,,,,,,,,,,,,,
,,,,,,,,2023-08-16_08h38.50.247,HF_wild_card,2022.2.4,Win32,60.11060351,6146f8473af59b2f858aa2f2,64d2fd46c836a06233681665,64dc7cf31a8da31a47b5d4a8,,,,,,,decisionTrl,resources/DG.BMP,resources/DR.BMP,WildCard_Ex,-0.537037037,0.056481481,1,0,0,0.3595,optionLeft,5,2560,2,12,0,12,0,1,,,,,,,,,,,,,,,,,,,,,,,,,,,,,,,,,,,,,,,
,,,,,,,,2023-08-16_08h38.50.247,HF_wild_card,2022.2.4,Win32,60.11060351,6146f8473af59b2f858aa2f2,64d2fd46c836a06233681665,64dc7cf31a8da31a47b5d4a8,,,,,,,sngl,resources/DY.BMP,resources/Empty.png,Door2,0.262962963,0.030555556,1,0,0,0.3326,optionLeft,20,2580,2,13,0,13,0,1,,,,,,,,,,,,,,,,,,,,,,,,,,,,,,,,,,,,,,,
,,,,,,,,2023-08-16_08h38.50.247,HF_wild_card,2022.2.4,Win32,60.11060351,6146f8473af59b2f858aa2f2,64d2fd46c836a06233681665,64dc7cf31a8da31a47b5d4a8,,,,,,,ctch,resources/DBN.BMP,resources/DP.BMP,Door4,0.375,0.033333333,1,0,0,0.4648,optionRight,60,2640,2,14,0,14,0,1,,,,,,,,,,,,,,,,,,,,,,,,,,,,,,,,,,,,,,,
,,,,,,,,2023-08-16_08h38.50.247,HF_wild_card,2022.2.4,Win32,60.11060351,6146f8473af59b2f858aa2f2,64d2fd46c836a06233681665,64dc7cf31a8da31a47b5d4a8,,,,,,,decisionTrl,resources/DR.BMP,resources/DP.BMP,Door3,-0.334259259,0.02962963,1,0,0,0.4951,optionLeft,70,2710,2,15,0,15,0,1,,,,,,,,,,,,,,,,,,,,,,,,,,,,,,,,,,,,,,,
,,,,,,,,2023-08-16_08h38.50.247,HF_wild_card,2022.2.4,Win32,60.11060351,6146f8473af59b2f858aa2f2,64d2fd46c836a06233681665,64dc7cf31a8da31a47b5d4a8,,,,,,,ctch,resources/DY.BMP,resources/DR.BMP,Door3,0.32037037,-0.036111111,1,0,0,0.5153,optionRight,70,2780,2,16,0,16,0,1,,,,,,,,,,,,,,,,,,,,,,,,,,,,,,,,,,,,,,,
,,,,,,,,2023-08-16_08h38.50.247,HF_wild_card,2022.2.4,Win32,60.11060351,6146f8473af59b2f858aa2f2,64d2fd46c836a06233681665,64dc7cf31a8da31a47b5d4a8,,,,,,,ctch,resources/DP.BMP,resources/DBN.BMP,Door4,-0.282407407,0.019444444,1,0,0,0.7477,optionLeft,60,2840,2,17,0,17,0,1,,,,,,,,,,,,,,,,,,,,,,,,,,,,,,,,,,,,,,,
,,,,,,,,2023-08-16_08h38.50.247,HF_wild_card,2022.2.4,Win32,60.11060351,6146f8473af59b2f858aa2f2,64d2fd46c836a06233681665,64dc7cf31a8da31a47b5d4a8,,,,,,,sngl,resources/Empty.png,resources/DG.BMP,WildCard_Ex,0.208333333,0.043518519,1,0,0,0.3349,optionRight,95,2935,2,18,0,18,0,1,,,,,,,,,,,,,,,,,,,,,,,,,,,,,,,,,,,,,,,
,,,,,,,,2023-08-16_08h38.50.247,HF_wild_card,2022.2.4,Win32,60.11060351,6146f8473af59b2f858aa2f2,64d2fd46c836a06233681665,64dc7cf31a8da31a47b5d4a8,,,,,,,sngl,resources/Empty.png,resources/DP.BMP,Door4,-0.183333333,0.026851852,1,0,0,0.2801,optionRight,80,3015,2,19,0,19,0,1,,,,,,,,,,,,,,,,,,,,,,,,,,,,,,,,,,,,,,,
,,,,,,,,2023-08-16_08h38.50.247,HF_wild_card,2022.2.4,Win32,60.11060351,6146f8473af59b2f858aa2f2,64d2fd46c836a06233681665,64dc7cf31a8da31a47b5d4a8,,,,,,,sngl,resources/Empty.png,resources/DR.BMP,Door3,0.192592593,-0.00462963,1,0,0,0.3143,optionRight,70,3085,2,20,0,20,0,1,,,,,,,,,,,,,,,,,,,,,,,,,,,,,,,,,,,,,,,
,,,,,,,,2023-08-16_08h38.50.247,HF_wild_card,2022.2.4,Win32,60.11060351,6146f8473af59b2f858aa2f2,64d2fd46c836a06233681665,64dc7cf31a8da31a47b5d4a8,,,,,,,decisionTrl,resources/DY.BMP,resources/DBN.BMP,Door1,0.208333333,-0.001851852,1,0,0,0.3993,optionRight,30,3115,2,21,0,21,0,1,,,,,,,,,,,,,,,,,,,,,,,,,,,,,,,,,,,,,,,
,,,,,,,,2023-08-16_08h38.50.247,HF_wild_card,2022.2.4,Win32,60.11060351,6146f8473af59b2f858aa2f2,64d2fd46c836a06233681665,64dc7cf31a8da31a47b5d4a8,,,,,,,sngl,resources/Empty.png,resources/DG.BMP,WildCard_Ex,0.269444444,-0.025,1,0,0,0.3642,optionRight,5,3120,2,22,0,22,0,1,,,,,,,,,,,,,,,,,,,,,,,,,,,,,,,,,,,,,,,
,,,,,,,,2023-08-16_08h38.50.247,HF_wild_card,2022.2.4,Win32,60.11060351,6146f8473af59b2f858aa2f2,64d2fd46c836a06233681665,64dc7cf31a8da31a47b5d4a8,,,,,,,sngl,resources/Empty.png,resources/DY.BMP,Door2,0.231481481,-0.014814815,1,0,0,0.4306,optionRight,40,3160,2,23,0,23,0,1,,,,,,,,,,,,,,,,,,,,,,,,,,,,,,,,,,,,,,,
,,,,,,,,2023-08-16_08h38.50.247,HF_wild_card,2022.2.4,Win32,60.11060351,6146f8473af59b2f858aa2f2,64d2fd46c836a06233681665,64dc7cf31a8da31a47b5d4a8,,,,,,,sngl,resources/DP.BMP,resources/Empty.png,Door4,0.247222222,-0.001851852,1,0,0,0.3305,optionLeft,60,3220,2,24,0,24,0,1,,,,,,,,,,,,,,,,,,,,,,,,,,,,,,,,,,,,,,,
,,,,,,,,2023-08-16_08h38.50.247,HF_wild_card,2022.2.4,Win32,60.11060351,6146f8473af59b2f858aa2f2,64d2fd46c836a06233681665,64dc7cf31a8da31a47b5d4a8,,,,,,,decisionTrl,resources/DR.BMP,resources/DP.BMP,Door3,-0.334259259,0.021296296,1,0,0,0.548,optionLeft,70,3290,2,25,0,25,0,1,,,,,,,,,,,,,,,,,,,,,,,,,,,,,,,,,,,,,,,
,,,,,,,,2023-08-16_08h38.50.247,HF_wild_card,2022.2.4,Win32,60.11060351,6146f8473af59b2f858aa2f2,64d2fd46c836a06233681665,64dc7cf31a8da31a47b5d4a8,,,,,,,decisionTrl,resources/DBN.BMP,resources/DY.BMP,Door1,-0.265740741,0.049074074,1,0,0,0.3813,optionLeft,30,3320,2,26,0,26,0,1,,,,,,,,,,,,,,,,,,,,,,,,,,,,,,,,,,,,,,,
,,,,,,,,2023-08-16_08h38.50.247,HF_wild_card,2022.2.4,Win32,60.11060351,6146f8473af59b2f858aa2f2,64d2fd46c836a06233681665,64dc7cf31a8da31a47b5d4a8,,,,,,,sngl,resources/Empty.png,resources/DBN.BMP,Door1,0.291666667,-0.017592593,1,0,0,0.6645,optionRight,30,3350,2,27,0,27,0,1,,,,,,,,,,,,,,,,,,,,,,,,,,,,,,,,,,,,,,,
,,,,,,,,2023-08-16_08h38.50.247,HF_wild_card,2022.2.4,Win32,60.11060351,6146f8473af59b2f858aa2f2,64d2fd46c836a06233681665,64dc7cf31a8da31a47b5d4a8,,,,,,,decisionTrl,resources/DG.BMP,resources/DY.BMP,WildCard_Ex,-0.246296296,-0.001851852,1,0,0,0.3934,optionLeft,5,3355,2,28,0,28,0,1,,,,,,,,,,,,,,,,,,,,,,,,,,,,,,,,,,,,,,,
,,,,,,,,2023-08-16_08h38.50.247,HF_wild_card,2022.2.4,Win32,60.11060351,6146f8473af59b2f858aa2f2,64d2fd46c836a06233681665,64dc7cf31a8da31a47b5d4a8,,,,,,,sngl,resources/DBN.BMP,resources/Empty.png,Door1,0.232407407,0.025925926,1,0,0,0.3298,optionLeft,30,3385,2,29,0,29,0,1,,,,,,,,,,,,,,,,,,,,,,,,,,,,,,,,,,,,,,,
,,,,,,,,2023-08-16_08h38.50.247,HF_wild_card,2022.2.4,Win32,60.11060351,6146f8473af59b2f858aa2f2,64d2fd46c836a06233681665,64dc7cf31a8da31a47b5d4a8,,,,,,,ctch,resources/DP.BMP,resources/DBN.BMP,Door4,-0.296296296,0.057407407,1,0,0,0.5458,optionLeft,60,3445,2,30,0,30,0,1,,,,,,,,,,,,,,,,,,,,,,,,,,,,,,,,,,,,,,,
,,,,,,,,2023-08-16_08h38.50.247,HF_wild_card,2022.2.4,Win32,60.11060351,6146f8473af59b2f858aa2f2,64d2fd46c836a06233681665,64dc7cf31a8da31a47b5d4a8,,,,,,,decisionTrl,resources/DP.BMP,resources/DR.BMP,Door3,0.305555556,0.012962963,1,0,0,0.3678,optionRight,70,3515,2,31,0,31,0,1,,,,,,,,,,,,,,,,,,,,,,,,,,,,,,,,,,,,,,,
,,,,,,,,2023-08-16_08h38.50.247,HF_wild_card,2022.2.4,Win32,60.11060351,6146f8473af59b2f858aa2f2,64d2fd46c836a06233681665,64dc7cf31a8da31a47b5d4a8,,,,,,,decisionTrl,resources/DY.BMP,resources/DBN.BMP,Door2,-0.298148148,0.066666667,1,0,0,0.7977,optionLeft,20,3535,2,32,0,32,0,1,,,,,,,,,,,,,,,,,,,,,,,,,,,,,,,,,,,,,,,
,,,,,,,,2023-08-16_08h38.50.247,HF_wild_card,2022.2.4,Win32,60.11060351,6146f8473af59b2f858aa2f2,64d2fd46c836a06233681665,64dc7cf31a8da31a47b5d4a8,,,,,,,ctch,resources/DR.BMP,resources/DY.BMP,Door2,0.312962963,-0.035185185,1,0,0,0.3845,optionRight,40,3575,2,33,0,33,0,1,,,,,,,,,,,,,,,,,,,,,,,,,,,,,,,,,,,,,,,
,,,,,,,,2023-08-16_08h38.50.247,HF_wild_card,2022.2.4,Win32,60.11060351,6146f8473af59b2f858aa2f2,64d2fd46c836a06233681665,64dc7cf31a8da31a47b5d4a8,,,,,,,decisionTrl,resources/DP.BMP,resources/DR.BMP,Door4,-0.330555556,0.065740741,1,0,0,0.5114,optionLeft,60,3635,2,34,0,34,0,1,,,,,,,,,,,,,,,,,,,,,,,,,,,,,,,,,,,,,,,
,,,,,,,,2023-08-16_08h38.50.247,HF_wild_card,2022.2.4,Win32,60.11060351,6146f8473af59b2f858aa2f2,64d2fd46c836a06233681665,64dc7cf31a8da31a47b5d4a8,,,,,,,decisionTrl,resources/DBN.BMP,resources/DY.BMP,Door2,0.322222222,-0.049074074,1,0,0,0.5321,optionRight,40,3675,2,35,0,35,0,1,,,,,,,,,,,,,,,,,,,,,,,,,,,,,,,,,,,,,,,
,,,,,,,,2023-08-16_08h38.50.247,HF_wild_card,2022.2.4,Win32,60.11060351,6146f8473af59b2f858aa2f2,64d2fd46c836a06233681665,64dc7cf31a8da31a47b5d4a8,,,,,,,decisionTrl,resources/DR.BMP,resources/DP.BMP,Door3,-0.294444444,0.043518519,1,0,0,0.4086,optionLeft,70,3745,2,36,0,36,0,1,,,,,,,,,,,,,,,,,,,,,,,,,,,,,,,,,,,,,,,
,,,,,,,,2023-08-16_08h38.50.247,HF_wild_card,2022.2.4,Win32,60.11060351,6146f8473af59b2f858aa2f2,64d2fd46c836a06233681665,64dc7cf31a8da31a47b5d4a8,,,,,,,ctch,resources/DBN.BMP,resources/DP.BMP,Door1,-0.224074074,0.012962963,1,0,0,0.3431,optionLeft,30,3775,2,37,0,37,0,1,,,,,,,,,,,,,,,,,,,,,,,,,,,,,,,,,,,,,,,
,,,,,,,,2023-08-16_08h38.50.247,HF_wild_card,2022.2.4,Win32,60.11060351,6146f8473af59b2f858aa2f2,64d2fd46c836a06233681665,64dc7cf31a8da31a47b5d4a8,,,,,,,decisionTrl,resources/DG.BMP,resources/DBN.BMP,Door1,0.286111111,0.034259259,1,0,0,0.3761,optionRight,30,3805,2,38,0,38,0,1,,,,,,,,,,,,,,,,,,,,,,,,,,,,,,,,,,,,,,,
,,,,,,,,2023-08-16_08h38.50.247,HF_wild_card,2022.2.4,Win32,60.11060351,6146f8473af59b2f858aa2f2,64d2fd46c836a06233681665,64dc7cf31a8da31a47b5d4a8,,,,,,,decisionTrl,resources/DY.BMP,resources/DBN.BMP,Door2,-0.315740741,0.077777778,1,0,0,0.3562,optionLeft,20,3825,2,39,0,39,0,1,,,,,,,,,,,,,,,,,,,,,,,,,,,,,,,,,,,,,,,
,,,,,,,,2023-08-16_08h38.50.247,HF_wild_card,2022.2.4,Win32,60.11060351,6146f8473af59b2f858aa2f2,64d2fd46c836a06233681665,64dc7cf31a8da31a47b5d4a8,,,,,,,ctch,resources/DY.BMP,resources/DR.BMP,Door3,0.246296296,0.056481481,1,0,0,0.3639,optionRight,70,3895,2,40,0,40,0,1,,,,,,,,,,,,,,,,,,,,,,,,,,,,,,,,,,,,,,,
,,,,,,,,2023-08-16_08h38.50.247,HF_wild_card,2022.2.4,Win32,60.11060351,6146f8473af59b2f858aa2f2,64d2fd46c836a06233681665,64dc7cf31a8da31a47b5d4a8,,,,,,,ctch,resources/DR.BMP,resources/DY.BMP,Door3,-0.136111111,0.017592593,1,0,0,0.3154,optionLeft,70,3965,2,41,0,41,0,1,,,,,,,,,,,,,,,,,,,,,,,,,,,,,,,,,,,,,,,
,,,,,,,,2023-08-16_08h38.50.247,HF_wild_card,2022.2.4,Win32,60.11060351,6146f8473af59b2f858aa2f2,64d2fd46c836a06233681665,64dc7cf31a8da31a47b5d4a8,,,,,,,decisionTrl,resources/DP.BMP,resources/DR.BMP,Door3,0.187037037,0.023148148,1,0,0,0.3081,optionRight,70,4035,2,42,0,42,0,1,,,,,,,,,,,,,,,,,,,,,,,,,,,,,,,,,,,,,,,
,,,,,,,,2023-08-16_08h38.50.247,HF_wild_card,2022.2.4,Win32,60.11060351,6146f8473af59b2f858aa2f2,64d2fd46c836a06233681665,64dc7cf31a8da31a47b5d4a8,,,,,,,decisionTrl,resources/DP.BMP,resources/DR.BMP,Door4,-0.263888889,0.046296296,1,0,0,0.3167,optionLeft,80,4115,2,43,0,43,0,1,,,,,,,,,,,,,,,,,,,,,,,,,,,,,,,,,,,,,,,
,,,,,,,,2023-08-16_08h38.50.247,HF_wild_card,2022.2.4,Win32,60.11060351,6146f8473af59b2f858aa2f2,64d2fd46c836a06233681665,64dc7cf31a8da31a47b5d4a8,,,,,,,,,,,,,,,,,,,,,,,,,,1,0,1,0,1,,,,,,,,,,,,,,,,,,,,,,,,,,,,,,,,,,
,,,,,,,,2023-08-16_08h38.50.247,HF_wild_card,2022.2.4,Win32,60.11060351,6146f8473af59b2f858aa2f2,64d2fd46c836a06233681665,64dc7cf31a8da31a47b5d4a8,,,,,,,decisionTrl,resources/DR.BMP,resources/DG.BMP,WildCard_Ex,0.34537037,-0.036111111,1,0,0,0.6111,optionRight,5,4120,3,0,0,0,0,1,,,,,,,,,,,,,,,,,,,,,,,,,,,,,,,,,,,,,,,
,,,,,,,,2023-08-16_08h38.50.247,HF_wild_card,2022.2.4,Win32,60.11060351,6146f8473af59b2f858aa2f2,64d2fd46c836a06233681665,64dc7cf31a8da31a47b5d4a8,,,,,,,sngl,resources/DG.BMP,resources/Empty.png,WildCard_Ex,-0.289814815,0.044444444,1,0,0,0.4094,optionLeft,95,4215,3,1,0,1,0,1,,,,,,,,,,,,,,,,,,,,,,,,,,,,,,,,,,,,,,,
,,,,,,,,2023-08-16_08h38.50.247,HF_wild_card,2022.2.4,Win32,60.11060351,6146f8473af59b2f858aa2f2,64d2fd46c836a06233681665,64dc7cf31a8da31a47b5d4a8,,,,,,,ctch,resources/DR.BMP,resources/DY.BMP,Door3,-0.287037037,0.07037037,1,0,0,0.4764,optionLeft,70,4285,3,2,0,2,0,1,,,,,,,,,,,,,,,,,,,,,,,,,,,,,,,,,,,,,,,
,,,,,,,,2023-08-16_08h38.50.247,HF_wild_card,2022.2.4,Win32,60.11060351,6146f8473af59b2f858aa2f2,64d2fd46c836a06233681665,64dc7cf31a8da31a47b5d4a8,,,,,,,ctch,resources/DP.BMP,resources/DBN.BMP,Door4,-0.192592593,0.044444444,1,0,0,0.4321,optionLeft,60,4345,3,3,0,3,0,1,,,,,,,,,,,,,,,,,,,,,,,,,,,,,,,,,,,,,,,
,,,,,,,,2023-08-16_08h38.50.247,HF_wild_card,2022.2.4,Win32,60.11060351,6146f8473af59b2f858aa2f2,64d2fd46c836a06233681665,64dc7cf31a8da31a47b5d4a8,,,,,,,sngl,resources/DY.BMP,resources/Empty.png,Door2,-0.27037037,0.05,1,0,0,0.4326,optionLeft,40,4385,3,4,0,4,0,1,,,,,,,,,,,,,,,,,,,,,,,,,,,,,,,,,,,,,,,
,,,,,,,,2023-08-16_08h38.50.247,HF_wild_card,2022.2.4,Win32,60.11060351,6146f8473af59b2f858aa2f2,64d2fd46c836a06233681665,64dc7cf31a8da31a47b5d4a8,,,,,,,ctch,resources/DY.BMP,resources/DR.BMP,Door3,0.351851852,0.00462963,1,0,0,0.3683,optionRight,70,4455,3,5,0,5,0,1,,,,,,,,,,,,,,,,,,,,,,,,,,,,,,,,,,,,,,,
,,,,,,,,2023-08-16_08h38.50.247,HF_wild_card,2022.2.4,Win32,60.11060351,6146f8473af59b2f858aa2f2,64d2fd46c836a06233681665,64dc7cf31a8da31a47b5d4a8,,,,,,,decisionTrl,resources/DP.BMP,resources/DR.BMP,Door3,0.178703704,0.023148148,1,0,0,0.3108,optionRight,70,4525,3,6,0,6,0,1,,,,,,,,,,,,,,,,,,,,,,,,,,,,,,,,,,,,,,,
,,,,,,,,2023-08-16_08h38.50.247,HF_wild_card,2022.2.4,Win32,60.11060351,6146f8473af59b2f858aa2f2,64d2fd46c836a06233681665,64dc7cf31a8da31a47b5d4a8,,,,,,,decisionTrl,resources/DR.BMP,resources/DP.BMP,Door4,0.177777778,0.001851852,1,0,0,0.3113,optionRight,60,4585,3,7,0,7,0,1,,,,,,,,,,,,,,,,,,,,,,,,,,,,,,,,,,,,,,,
,,,,,,,,2023-08-16_08h38.50.247,HF_wild_card,2022.2.4,Win32,60.11060351,6146f8473af59b2f858aa2f2,64d2fd46c836a06233681665,64dc7cf31a8da31a47b5d4a8,,,,,,,decisionTrl,resources/DY.BMP,resources/DBN.BMP,Door1,0.212037037,0.012962963,1,0,0,0.3419,optionRight,30,4615,3,8,0,8,0,1,,,,,,,,,,,,,,,,,,,,,,,,,,,,,,,,,,,,,,,
,,,,,,,,2023-08-16_08h38.50.247,HF_wild_card,2022.2.4,Win32,60.11060351,6146f8473af59b2f858aa2f2,64d2fd46c836a06233681665,64dc7cf31a8da31a47b5d4a8,,,,,,,sngl,resources/Empty.png,resources/DG.BMP,WildCard_Ex,0.207407407,0.016666667,1,0,0,0.2905,optionRight,5,4620,3,9,0,9,0,1,,,,,,,,,,,,,,,,,,,,,,,,,,,,,,,,,,,,,,,
,,,,,,,,2023-08-16_08h38.50.247,HF_wild_card,2022.2.4,Win32,60.11060351,6146f8473af59b2f858aa2f2,64d2fd46c836a06233681665,64dc7cf31a8da31a47b5d4a8,,,,,,,decisionTrl,resources/DG.BMP,resources/DR.BMP,Door3,0.180555556,0.010185185,1,0,0,0.3207,optionRight,70,4690,3,10,0,10,0,1,,,,,,,,,,,,,,,,,,,,,,,,,,,,,,,,,,,,,,,
,,,,,,,,2023-08-16_08h38.50.247,HF_wild_card,2022.2.4,Win32,60.11060351,6146f8473af59b2f858aa2f2,64d2fd46c836a06233681665,64dc7cf31a8da31a47b5d4a8,,,,,,,decisionTrl,resources/DBN.BMP,resources/DY.BMP,Door1,-0.228703704,0.030555556,1,0,0,0.3313,optionLeft,30,4720,3,11,0,11,0,1,,,,,,,,,,,,,,,,,,,,,,,,,,,,,,,,,,,,,,,
,,,,,,,,2023-08-16_08h38.50.247,HF_wild_card,2022.2.4,Win32,60.11060351,6146f8473af59b2f858aa2f2,64d2fd46c836a06233681665,64dc7cf31a8da31a47b5d4a8,,,,,,,sngl,resources/DP.BMP,resources/Empty.png,Door4,-0.366666667,0.043518519,1,0,0,0.5272,optionLeft,80,4800,3,12,0,12,0,1,,,,,,,,,,,,,,,,,,,,,,,,,,,,,,,,,,,,,,,
,,,,,,,,2023-08-16_08h38.50.247,HF_wild_card,2022.2.4,Win32,60.11060351,6146f8473af59b2f858aa2f2,64d2fd46c836a06233681665,64dc7cf31a8da31a47b5d4a8,,,,,,,decisionTrl,resources/DY.BMP,resources/DG.BMP,WildCard_Ex,0.333333333,0.00462963,1,0,0,0.4651,optionRight,95,4895,3,13,0,13,0,1,,,,,,,,,,,,,,,,,,,,,,,,,,,,,,,,,,,,,,,
,,,,,,,,2023-08-16_08h38.50.247,HF_wild_card,2022.2.4,Win32,60.11060351,6146f8473af59b2f858aa2f2,64d2fd46c836a06233681665,64dc7cf31a8da31a47b5d4a8,,,,,,,decisionTrl,resources/DG.BMP,resources/DY.BMP,Door2,0.438888889,0.035185185,1,0,0,0.7813,optionRight,40,4935,3,14,0,14,0,1,,,,,,,,,,,,,,,,,,,,,,,,,,,,,,,,,,,,,,,
,,,,,,,,2023-08-16_08h38.50.247,HF_wild_card,2022.2.4,Win32,60.11060351,6146f8473af59b2f858aa2f2,64d2fd46c836a06233681665,64dc7cf31a8da31a47b5d4a8,,,,,,,decisionTrl,resources/DP.BMP,resources/DR.BMP,Door3,0.265740741,0.002777778,1,0,0,0.3981,optionRight,70,5005,3,15,0,15,0,1,,,,,,,,,,,,,,,,,,,,,,,,,,,,,,,,,,,,,,,
,,,,,,,,2023-08-16_08h38.50.247,HF_wild_card,2022.2.4,Win32,60.11060351,6146f8473af59b2f858aa2f2,64d2fd46c836a06233681665,64dc7cf31a8da31a47b5d4a8,,,,,,,decisionTrl,resources/DP.BMP,resources/DR.BMP,Door3,0.228703704,0.018518519,1,0,0,0.3149,optionRight,70,5075,3,16,0,16,0,1,,,,,,,,,,,,,,,,,,,,,,,,,,,,,,,,,,,,,,,
,,,,,,,,2023-08-16_08h38.50.247,HF_wild_card,2022.2.4,Win32,60.11060351,6146f8473af59b2f858aa2f2,64d2fd46c836a06233681665,64dc7cf31a8da31a47b5d4a8,,,,,,,decisionTrl,resources/DG.BMP,resources/DBN.BMP,Door1,0.300925926,0.017592593,1,0,0,0.2974,optionRight,30,5105,3,17,0,17,0,1,,,,,,,,,,,,,,,,,,,,,,,,,,,,,,,,,,,,,,,
,,,,,,,,2023-08-16_08h38.50.247,HF_wild_card,2022.2.4,Win32,60.11060351,6146f8473af59b2f858aa2f2,64d2fd46c836a06233681665,64dc7cf31a8da31a47b5d4a8,,,,,,,ctch,resources/DBN.BMP,resources/DP.BMP,Door4,0.25462963,0.000925926,1,0,0,0.2405,optionRight,60,5165,3,18,0,18,0,1,,,,,,,,,,,,,,,,,,,,,,,,,,,,,,,,,,,,,,,
,,,,,,,,2023-08-16_08h38.50.247,HF_wild_card,2022.2.4,Win32,60.11060351,6146f8473af59b2f858aa2f2,64d2fd46c836a06233681665,64dc7cf31a8da31a47b5d4a8,,,,,,,sngl,resources/DBN.BMP,resources/Empty.png,Door1,-0.212037037,0.011111111,1,0,0,0.2412,optionLeft,30,5195,3,19,0,19,0,1,,,,,,,,,,,,,,,,,,,,,,,,,,,,,,,,,,,,,,,
,,,,,,,,2023-08-16_08h38.50.247,HF_wild_card,2022.2.4,Win32,60.11060351,6146f8473af59b2f858aa2f2,64d2fd46c836a06233681665,64dc7cf31a8da31a47b5d4a8,,,,,,,decisionTrl,resources/DBN.BMP,resources/DY.BMP,Door1,-0.293518519,0.030555556,1,0,0,0.3609,optionLeft,30,5225,3,20,0,20,0,1,,,,,,,,,,,,,,,,,,,,,,,,,,,,,,,,,,,,,,,
,,,,,,,,2023-08-16_08h38.50.247,HF_wild_card,2022.2.4,Win32,60.11060351,6146f8473af59b2f858aa2f2,64d2fd46c836a06233681665,64dc7cf31a8da31a47b5d4a8,,,,,,,decisionTrl,resources/DBN.BMP,resources/DY.BMP,Door1,-0.307407407,0.07962963,1,0,0,0.3307,optionLeft,30,5255,3,21,0,21,0,1,,,,,,,,,,,,,,,,,,,,,,,,,,,,,,,,,,,,,,,
,,,,,,,,2023-08-16_08h38.50.247,HF_wild_card,2022.2.4,Win32,60.11060351,6146f8473af59b2f858aa2f2,64d2fd46c836a06233681665,64dc7cf31a8da31a47b5d4a8,,,,,,,ctch,resources/DBN.BMP,resources/DP.BMP,Door4,0.340740741,0.011111111,1,0,0,0.4098,optionRight,60,5315,3,22,0,22,0,1,,,,,,,,,,,,,,,,,,,,,,,,,,,,,,,,,,,,,,,
,,,,,,,,2023-08-16_08h38.50.247,HF_wild_card,2022.2.4,Win32,60.11060351,6146f8473af59b2f858aa2f2,64d2fd46c836a06233681665,64dc7cf31a8da31a47b5d4a8,,,,,,,decisionTrl,resources/DBN.BMP,resources/DG.BMP,WildCard_Ex,0.234259259,0.025,1,0,0,0.3255,optionRight,95,5410,3,23,0,23,0,1,,,,,,,,,,,,,,,,,,,,,,,,,,,,,,,,,,,,,,,
,,,,,,,,2023-08-16_08h38.50.247,HF_wild_card,2022.2.4,Win32,60.11060351,6146f8473af59b2f858aa2f2,64d2fd46c836a06233681665,64dc7cf31a8da31a47b5d4a8,,,,,,,decisionTrl,resources/DR.BMP,resources/DP.BMP,Door4,0.200925926,0.026851852,1,0,0,0.3082,optionRight,60,5470,3,24,0,24,0,1,,,,,,,,,,,,,,,,,,,,,,,,,,,,,,,,,,,,,,,
,,,,,,,,2023-08-16_08h38.50.247,HF_wild_card,2022.2.4,Win32,60.11060351,6146f8473af59b2f858aa2f2,64d2fd46c836a06233681665,64dc7cf31a8da31a47b5d4a8,,,,,,,sngl,resources/Empty.png,resources/DR.BMP,Door3,0.212037037,0.024074074,1,0,0,0.279,optionRight,70,5540,3,25,0,25,0,1,,,,,,,,,,,,,,,,,,,,,,,,,,,,,,,,,,,,,,,
,,,,,,,,2023-08-16_08h38.50.247,HF_wild_card,2022.2.4,Win32,60.11060351,6146f8473af59b2f858aa2f2,64d2fd46c836a06233681665,64dc7cf31a8da31a47b5d4a8,,,,,,,decisionTrl,resources/DY.BMP,resources/DBN.BMP,Door1,0.233333333,0.003703704,1,0,0,0.274,optionRight,30,5570,3,26,0,26,0,1,,,,,,,,,,,,,,,,,,,,,,,,,,,,,,,,,,,,,,,
,,,,,,,,2023-08-16_08h38.50.247,HF_wild_card,2022.2.4,Win32,60.11060351,6146f8473af59b2f858aa2f2,64d2fd46c836a06233681665,64dc7cf31a8da31a47b5d4a8,,,,,,,decisionTrl,resources/DY.BMP,resources/DBN.BMP,Door2,-0.521296296,0.081481481,1,0,0,0.3594,optionLeft,40,5610,3,27,0,27,0,1,,,,,,,,,,,,,,,,,,,,,,,,,,,,,,,,,,,,,,,
,,,,,,,,2023-08-16_08h38.50.247,HF_wild_card,2022.2.4,Win32,60.11060351,6146f8473af59b2f858aa2f2,64d2fd46c836a06233681665,64dc7cf31a8da31a47b5d4a8,,,,,,,decisionTrl,resources/DBN.BMP,resources/DY.BMP,Door2,0.351851852,-0.010185185,1,0,0,0.294,optionRight,20,5630,3,28,0,28,0,1,,,,,,,,,,,,,,,,,,,,,,,,,,,,,,,,,,,,,,,
,,,,,,,,2023-08-16_08h38.50.247,HF_wild_card,2022.2.4,Win32,60.11060351,6146f8473af59b2f858aa2f2,64d2fd46c836a06233681665,64dc7cf31a8da31a47b5d4a8,,,,,,,sngl,resources/DG.BMP,resources/Empty.png,WildCard_Ex,0.299074074,0.000925926,1,0,0,0.3433,optionLeft,5,5635,3,29,0,29,0,1,,,,,,,,,,,,,,,,,,,,,,,,,,,,,,,,,,,,,,,
,,,,,,,,2023-08-16_08h38.50.247,HF_wild_card,2022.2.4,Win32,60.11060351,6146f8473af59b2f858aa2f2,64d2fd46c836a06233681665,64dc7cf31a8da31a47b5d4a8,,,,,,,decisionTrl,resources/DY.BMP,resources/DBN.BMP,Door2,-0.233333333,0.077777778,1,0,0,0.3768,optionLeft,20,5655,3,30,0,30,0,1,,,,,,,,,,,,,,,,,,,,,,,,,,,,,,,,,,,,,,,
,,,,,,,,2023-08-16_08h38.50.247,HF_wild_card,2022.2.4,Win32,60.11060351,6146f8473af59b2f858aa2f2,64d2fd46c836a06233681665,64dc7cf31a8da31a47b5d4a8,,,,,,,sngl,resources/DR.BMP,resources/Empty.png,Door3,-0.315740741,0.065740741,1,0,0,0.3512,optionLeft,70,5725,3,31,0,31,0,1,,,,,,,,,,,,,,,,,,,,,,,,,,,,,,,,,,,,,,,
,,,,,,,,2023-08-16_08h38.50.247,HF_wild_card,2022.2.4,Win32,60.11060351,6146f8473af59b2f858aa2f2,64d2fd46c836a06233681665,64dc7cf31a8da31a47b5d4a8,,,,,,,ctch,resources/DR.BMP,resources/DY.BMP,Door3,-0.35462963,0.039814815,1,0,0,0.5823,optionLeft,70,5795,3,32,0,32,0,1,,,,,,,,,,,,,,,,,,,,,,,,,,,,,,,,,,,,,,,
,,,,,,,,2023-08-16_08h38.50.247,HF_wild_card,2022.2.4,Win32,60.11060351,6146f8473af59b2f858aa2f2,64d2fd46c836a06233681665,64dc7cf31a8da31a47b5d4a8,,,,,,,ctch,resources/DP.BMP,resources/DBN.BMP,Door4,-0.300925926,0.059259259,1,0,0,0.5306,optionLeft,60,5855,3,33,0,33,0,1,,,,,,,,,,,,,,,,,,,,,,,,,,,,,,,,,,,,,,,
,,,,,,,,2023-08-16_08h38.50.247,HF_wild_card,2022.2.4,Win32,60.11060351,6146f8473af59b2f858aa2f2,64d2fd46c836a06233681665,64dc7cf31a8da31a47b5d4a8,,,,,,,decisionTrl,resources/DP.BMP,resources/DG.BMP,WildCard_Ex,0.358333333,0.061111111,1,0,0,0.3303,optionRight,5,5860,3,34,0,34,0,1,,,,,,,,,,,,,,,,,,,,,,,,,,,,,,,,,,,,,,,
,,,,,,,,2023-08-16_08h38.50.247,HF_wild_card,2022.2.4,Win32,60.11060351,6146f8473af59b2f858aa2f2,64d2fd46c836a06233681665,64dc7cf31a8da31a47b5d4a8,,,,,,,sngl,resources/Empty.png,resources/DBN.BMP,Door1,-0.148148148,0.042592593,1,0,0,0.2764,optionRight,30,5890,3,35,0,35,0,1,,,,,,,,,,,,,,,,,,,,,,,,,,,,,,,,,,,,,,,
,,,,,,,,2023-08-16_08h38.50.247,HF_wild_card,2022.2.4,Win32,60.11060351,6146f8473af59b2f858aa2f2,64d2fd46c836a06233681665,64dc7cf31a8da31a47b5d4a8,,,,,,,decisionTrl,resources/DG.BMP,resources/DP.BMP,WildCard_Ex,-0.563888889,0.066666667,1,0,0,0.5273,optionLeft,5,5895,3,36,0,36,0,1,,,,,,,,,,,,,,,,,,,,,,,,,,,,,,,,,,,,,,,
,,,,,,,,2023-08-16_08h38.50.247,HF_wild_card,2022.2.4,Win32,60.11060351,6146f8473af59b2f858aa2f2,64d2fd46c836a06233681665,64dc7cf31a8da31a47b5d4a8,,,,,,,sngl,resources/Empty.png,resources/DY.BMP,Door2,0.324074074,0.017592593,1,0,0,0.3003,optionRight,20,5915,3,37,0,37,0,1,,,,,,,,,,,,,,,,,,,,,,,,,,,,,,,,,,,,,,,
,,,,,,,,2023-08-16_08h38.50.247,HF_wild_card,2022.2.4,Win32,60.11060351,6146f8473af59b2f858aa2f2,64d2fd46c836a06233681665,64dc7cf31a8da31a47b5d4a8,,,,,,,sngl,resources/Empty.png,resources/DG.BMP,WildCard_Ex,0.244444444,0.05462963,1,0,0,0.3534,optionRight,95,6010,3,38,0,38,0,1,,,,,,,,,,,,,,,,,,,,,,,,,,,,,,,,,,,,,,,
,,,,,,,,2023-08-16_08h38.50.247,HF_wild_card,2022.2.4,Win32,60.11060351,6146f8473af59b2f858aa2f2,64d2fd46c836a06233681665,64dc7cf31a8da31a47b5d4a8,,,,,,,decisionTrl,resources/DR.BMP,resources/DP.BMP,Door4,0.262037037,0.05462963,1,0,0,0.4773,optionRight,60,6070,3,39,0,39,0,1,,,,,,,,,,,,,,,,,,,,,,,,,,,,,,,,,,,,,,,
,,,,,,,,2023-08-16_08h38.50.247,HF_wild_card,2022.2.4,Win32,60.11060351,6146f8473af59b2f858aa2f2,64d2fd46c836a06233681665,64dc7cf31a8da31a47b5d4a8,,,,,,,sngl,resources/Empty.png,resources/DP.BMP,Door4,0.25462963,0.012037037,1,0,0,0.2968,optionRight,60,6130,3,40,0,40,0,1,,,,,,,,,,,,,,,,,,,,,,,,,,,,,,,,,,,,,,,
,,,,,,,,2023-08-16_08h38.50.247,HF_wild_card,2022.2.4,Win32,60.11060351,6146f8473af59b2f858aa2f2,64d2fd46c836a06233681665,64dc7cf31a8da31a47b5d4a8,,,,,,,ctch,resources/DY.BMP,resources/DR.BMP,Door3,0.208333333,-0.001851852,1,0,0,0.2871,optionRight,70,6200,3,41,0,41,0,1,,,,,,,,,,,,,,,,,,,,,,,,,,,,,,,,,,,,,,,
,,,,,,,,2023-08-16_08h38.50.247,HF_wild_card,2022.2.4,Win32,60.11060351,6146f8473af59b2f858aa2f2,64d2fd46c836a06233681665,64dc7cf31a8da31a47b5d4a8,,,,,,,decisionTrl,resources/DR.BMP,resources/DP.BMP,Door4,0.241666667,0.007407407,1,0,0,0.2923,optionRight,80,6280,3,42,0,42,0,1,,,,,,,,,,,,,,,,,,,,,,,,,,,,,,,,,,,,,,,
,,,,,,,,2023-08-16_08h38.50.247,HF_wild_card,2022.2.4,Win32,60.11060351,6146f8473af59b2f858aa2f2,64d2fd46c836a06233681665,64dc7cf31a8da31a47b5d4a8,,,,,,,decisionTrl,resources/DP.BMP,resources/DR.BMP,Door3,0.251851852,-0.003703704,1,0,0,0.2754,optionRight,70,6350,3,43,0,43,0,1,,,,,,,,,,,,,,,,,,,,,,,,,,,,,,,,,,,,,,,
,,,,,,,,2023-08-16_08h38.50.247,HF_wild_card,2022.2.4,Win32,60.11060351,6146f8473af59b2f858aa2f2,64d2fd46c836a06233681665,64dc7cf31a8da31a47b5d4a8,,,,,,,,,,,,,,,,,,,,,,,,,,2,0,2,0,1,,,,,,,,,,,,,,,,,,,,,,,,,,,,,,,,,,
,,,,,,,,2023-08-16_08h38.50.247,HF_wild_card,2022.2.4,Win32,60.11060351,6146f8473af59b2f858aa2f2,64d2fd46c836a06233681665,64dc7cf31a8da31a47b5d4a8,,,,,,,decisionTrl,resources/DY.BMP,resources/DBN.BMP,Door2,-0.422222222,-0.003703704,1,0,0,0.5404,optionLeft,40,6390,4,0,0,0,0,1,,,,,,,,,,,,,,,,,,,,,,,,,,,,,,,,,,,,,,,
,,,,,,,,2023-08-16_08h38.50.247,HF_wild_card,2022.2.4,Win32,60.11060351,6146f8473af59b2f858aa2f2,64d2fd46c836a06233681665,64dc7cf31a8da31a47b5d4a8,,,,,,,sngl,resources/DB.BMP,resources/Empty.png,WildCard_NonEx,-0.301851852,0.042592593,1,0,0,0.4645,optionLeft,55,6445,4,1,0,1,0,1,,,,,,,,,,,,,,,,,,,,,,,,,,,,,,,,,,,,,,,
,,,,,,,,2023-08-16_08h38.50.247,HF_wild_card,2022.2.4,Win32,60.11060351,6146f8473af59b2f858aa2f2,64d2fd46c836a06233681665,64dc7cf31a8da31a47b5d4a8,,,,,,,ctch,resources/DY.BMP,resources/DR.BMP,Door2,-0.232407407,0.043518519,1,0,0,0.309,optionLeft,20,6465,4,2,0,2,0,1,,,,,,,,,,,,,,,,,,,,,,,,,,,,,,,,,,,,,,,
,,,,,,,,2023-08-16_08h38.50.247,HF_wild_card,2022.2.4,Win32,60.11060351,6146f8473af59b2f858aa2f2,64d2fd46c836a06233681665,64dc7cf31a8da31a47b5d4a8,,,,,,,ctch,resources/DY.BMP,resources/DR.BMP,Door2,-0.32037037,0.055555556,1,0,0,0.2749,optionLeft,40,6505,4,3,0,3,0,1,,,,,,,,,,,,,,,,,,,,,,,,,,,,,,,,,,,,,,,
,,,,,,,,2023-08-16_08h38.50.247,HF_wild_card,2022.2.4,Win32,60.11060351,6146f8473af59b2f858aa2f2,64d2fd46c836a06233681665,64dc7cf31a8da31a47b5d4a8,,,,,,,decisionTrl,resources/DP.BMP,resources/DR.BMP,Door3,0.191666667,0.031481481,1,0,0,0.3175,optionRight,70,6575,4,4,0,4,0,1,,,,,,,,,,,,,,,,,,,,,,,,,,,,,,,,,,,,,,,
,,,,,,,,2023-08-16_08h38.50.247,HF_wild_card,2022.2.4,Win32,60.11060351,6146f8473af59b2f858aa2f2,64d2fd46c836a06233681665,64dc7cf31a8da31a47b5d4a8,,,,,,,sngl,resources/Empty.png,resources/DB.BMP,WildCard_NonEx,-0.299074074,0.059259259,1,0,0,0.25,optionRight,45,6620,4,5,0,5,0,1,,,,,,,,,,,,,,,,,,,,,,,,,,,,,,,,,,,,,,,
,,,,,,,,2023-08-16_08h38.50.247,HF_wild_card,2022.2.4,Win32,60.11060351,6146f8473af59b2f858aa2f2,64d2fd46c836a06233681665,64dc7cf31a8da31a47b5d4a8,,,,,,,decisionTrl,resources/DP.BMP,resources/DR.BMP,Door4,-0.255555556,0.051851852,1,0,0,0.3815,optionLeft,80,6700,4,6,0,6,0,1,,,,,,,,,,,,,,,,,,,,,,,,,,,,,,,,,,,,,,,
,,,,,,,,2023-08-16_08h38.50.247,HF_wild_card,2022.2.4,Win32,60.11060351,6146f8473af59b2f858aa2f2,64d2fd46c836a06233681665,64dc7cf31a8da31a47b5d4a8,,,,,,,decisionTrl,resources/DBN.BMP,resources/DY.BMP,Door2,0.22962963,0.064814815,1,0,0,0.3295,optionRight,40,6740,4,7,0,7,0,1,,,,,,,,,,,,,,,,,,,,,,,,,,,,,,,,,,,,,,,
,,,,,,,,2023-08-16_08h38.50.247,HF_wild_card,2022.2.4,Win32,60.11060351,6146f8473af59b2f858aa2f2,64d2fd46c836a06233681665,64dc7cf31a8da31a47b5d4a8,,,,,,,sngl,resources/Empty.png,resources/DR.BMP,Door3,0.230555556,0.047222222,1,0,0,0.2959,optionRight,70,6810,4,8,0,8,0,1,,,,,,,,,,,,,,,,,,,,,,,,,,,,,,,,,,,,,,,
,,,,,,,,2023-08-16_08h38.50.247,HF_wild_card,2022.2.4,Win32,60.11060351,6146f8473af59b2f858aa2f2,64d2fd46c836a06233681665,64dc7cf31a8da31a47b5d4a8,,,,,,,decisionTrl,resources/DBN.BMP,resources/DY.BMP,Door2,0.310185185,0.02962963,1,0,0,0.3035,optionRight,40,6850,4,9,0,9,0,1,,,,,,,,,,,,,,,,,,,,,,,,,,,,,,,,,,,,,,,
,,,,,,,,2023-08-16_08h38.50.247,HF_wild_card,2022.2.4,Win32,60.11060351,6146f8473af59b2f858aa2f2,64d2fd46c836a06233681665,64dc7cf31a8da31a47b5d4a8,,,,,,,ctch,resources/DBN.BMP,resources/DP.BMP,Door4,0.222222222,0.026851852,1,0,0,0.2992,optionRight,60,6910,4,10,0,10,0,1,,,,,,,,,,,,,,,,,,,,,,,,,,,,,,,,,,,,,,,
,,,,,,,,2023-08-16_08h38.50.247,HF_wild_card,2022.2.4,Win32,60.11060351,6146f8473af59b2f858aa2f2,64d2fd46c836a06233681665,64dc7cf31a8da31a47b5d4a8,,,,,,,decisionTrl,resources/DY.BMP,resources/DB.BMP,WildCard_NonEx,0.359259259,0.037962963,1,0,0,0.3316,optionRight,55,6965,4,11,0,11,0,1,,,,,,,,,,,,,,,,,,,,,,,,,,,,,,,,,,,,,,,
,,,,,,,,2023-08-16_08h38.50.247,HF_wild_card,2022.2.4,Win32,60.11060351,6146f8473af59b2f858aa2f2,64d2fd46c836a06233681665,64dc7cf31a8da31a47b5d4a8,,,,,,,decisionTrl,resources/DBN.BMP,resources/DY.BMP,Door2,0.260185185,0.026851852,1,0,0,0.2689,optionRight,20,6985,4,12,0,12,0,1,,,,,,,,,,,,,,,,,,,,,,,,,,,,,,,,,,,,,,,
,,,,,,,,2023-08-16_08h38.50.247,HF_wild_card,2022.2.4,Win32,60.11060351,6146f8473af59b2f858aa2f2,64d2fd46c836a06233681665,64dc7cf31a8da31a47b5d4a8,,,,,,,decisionTrl,resources/DR.BMP,resources/DP.BMP,Door4,0.237037037,0.036111111,1,0,0,0.3268,optionRight,80,7065,4,13,0,13,0,1,,,,,,,,,,,,,,,,,,,,,,,,,,,,,,,,,,,,,,,
,,,,,,,,2023-08-16_08h38.50.247,HF_wild_card,2022.2.4,Win32,60.11060351,6146f8473af59b2f858aa2f2,64d2fd46c836a06233681665,64dc7cf31a8da31a47b5d4a8,,,,,,,sngl,resources/DB.BMP,resources/Empty.png,WildCard_NonEx,0.187962963,0.026851852,1,0,0,0.5108,optionLeft,45,7110,4,14,0,14,0,1,,,,,,,,,,,,,,,,,,,,,,,,,,,,,,,,,,,,,,,
,,,,,,,,2023-08-16_08h38.50.247,HF_wild_card,2022.2.4,Win32,60.11060351,6146f8473af59b2f858aa2f2,64d2fd46c836a06233681665,64dc7cf31a8da31a47b5d4a8,,,,,,,decisionTrl,resources/DB.BMP,resources/DR.BMP,Door3,0.252777778,0.021296296,1,0,0,0.4033,optionRight,70,7180,4,15,0,15,0,1,,,,,,,,,,,,,,,,,,,,,,,,,,,,,,,,,,,,,,,
,,,,,,,,2023-08-16_08h38.50.247,HF_wild_card,2022.2.4,Win32,60.11060351,6146f8473af59b2f858aa2f2,64d2fd46c836a06233681665,64dc7cf31a8da31a47b5d4a8,,,,,,,decisionTrl,resources/DP.BMP,resources/DB.BMP,Door4,-0.392592593,0.062037037,1,0,0,0.515,optionLeft,60,7240,4,16,0,16,0,1,,,,,,,,,,,,,,,,,,,,,,,,,,,,,,,,,,,,,,,
,,,,,,,,2023-08-16_08h38.50.247,HF_wild_card,2022.2.4,Win32,60.11060351,6146f8473af59b2f858aa2f2,64d2fd46c836a06233681665,64dc7cf31a8da31a47b5d4a8,,,,,,,sngl,resources/DP.BMP,resources/Empty.png,Door4,-0.348148148,0.025925926,1,0,0,0.3761,optionLeft,60,7300,4,17,0,17,0,1,,,,,,,,,,,,,,,,,,,,,,,,,,,,,,,,,,,,,,,
,,,,,,,,2023-08-16_08h38.50.247,HF_wild_card,2022.2.4,Win32,60.11060351,6146f8473af59b2f858aa2f2,64d2fd46c836a06233681665,64dc7cf31a8da31a47b5d4a8,,,,,,,sngl,resources/DBN.BMP,resources/Empty.png,Door1,0.413888889,0.003703704,1,0,0,0.322,optionLeft,30,7330,4,18,0,18,0,1,,,,,,,,,,,,,,,,,,,,,,,,,,,,,,,,,,,,,,,
,,,,,,,,2023-08-16_08h38.50.247,HF_wild_card,2022.2.4,Win32,60.11060351,6146f8473af59b2f858aa2f2,64d2fd46c836a06233681665,64dc7cf31a8da31a47b5d4a8,,,,,,,decisionTrl,resources/DR.BMP,resources/DB.BMP,WildCard_NonEx,0.413888889,0.025,1,0,0,0.3425,optionRight,45,7375,4,19,0,19,0,1,,,,,,,,,,,,,,,,,,,,,,,,,,,,,,,,,,,,,,,
,,,,,,,,2023-08-16_08h38.50.247,HF_wild_card,2022.2.4,Win32,60.11060351,6146f8473af59b2f858aa2f2,64d2fd46c836a06233681665,64dc7cf31a8da31a47b5d4a8,,,,,,,decisionTrl,resources/DB.BMP,resources/DY.BMP,WildCard_NonEx,-0.357407407,0.062037037,1,0,0,0.3578,optionLeft,55,7430,4,20,0,20,0,1,,,,,,,,,,,,,,,,,,,,,,,,,,,,,,,,,,,,,,,
,,,,,,,,2023-08-16_08h38.50.247,HF_wild_card,2022.2.4,Win32,60.11060351,6146f8473af59b2f858aa2f2,64d2fd46c836a06233681665,64dc7cf31a8da31a47b5d4a8,,,,,,,sngl,resources/DR.BMP,resources/Empty.png,Door3,0.17962963,0.017592593,1,0,0,0.3653,optionLeft,70,7500,4,21,0,21,0,1,,,,,,,,,,,,,,,,,,,,,,,,,,,,,,,,,,,,,,,
,,,,,,,,2023-08-16_08h38.50.247,HF_wild_card,2022.2.4,Win32,60.11060351,6146f8473af59b2f858aa2f2,64d2fd46c836a06233681665,64dc7cf31a8da31a47b5d4a8,,,,,,,ctch,resources/DR.BMP,resources/DY.BMP,Door2,0.251851852,0.011111111,1,0,0,0.3308,optionRight,20,7520,4,22,0,22,0,1,,,,,,,,,,,,,,,,,,,,,,,,,,,,,,,,,,,,,,,
,,,,,,,,2023-08-16_08h38.50.247,HF_wild_card,2022.2.4,Win32,60.11060351,6146f8473af59b2f858aa2f2,64d2fd46c836a06233681665,64dc7cf31a8da31a47b5d4a8,,,,,,,ctch,resources/DR.BMP,resources/DY.BMP,Door3,-0.244444444,0.030555556,1,0,0,0.3249,optionLeft,70,7590,4,23,0,23,0,1,,,,,,,,,,,,,,,,,,,,,,,,,,,,,,,,,,,,,,,
,,,,,,,,2023-08-16_08h38.50.247,HF_wild_card,2022.2.4,Win32,60.11060351,6146f8473af59b2f858aa2f2,64d2fd46c836a06233681665,64dc7cf31a8da31a47b5d4a8,,,,,,,decisionTrl,resources/DB.BMP,resources/DBN.BMP,Door1,0.206481481,0.016666667,1,0,0,0.2645,optionRight,30,7620,4,24,0,24,0,1,,,,,,,,,,,,,,,,,,,,,,,,,,,,,,,,,,,,,,,
,,,,,,,,2023-08-16_08h38.50.247,HF_wild_card,2022.2.4,Win32,60.11060351,6146f8473af59b2f858aa2f2,64d2fd46c836a06233681665,64dc7cf31a8da31a47b5d4a8,,,,,,,decisionTrl,resources/DBN.BMP,resources/DY.BMP,Door1,-0.192592593,0.027777778,1,0,0,0.3532,optionLeft,30,7650,4,25,0,25,0,1,,,,,,,,,,,,,,,,,,,,,,,,,,,,,,,,,,,,,,,
,,,,,,,,2023-08-16_08h38.50.247,HF_wild_card,2022.2.4,Win32,60.11060351,6146f8473af59b2f858aa2f2,64d2fd46c836a06233681665,64dc7cf31a8da31a47b5d4a8,,,,,,,decisionTrl,resources/DR.BMP,resources/DP.BMP,Door4,0.194444444,0.012037037,1,0,0,0.2983,optionRight,60,7710,4,26,0,26,0,1,,,,,,,,,,,,,,,,,,,,,,,,,,,,,,,,,,,,,,,
,,,,,,,,2023-08-16_08h38.50.247,HF_wild_card,2022.2.4,Win32,60.11060351,6146f8473af59b2f858aa2f2,64d2fd46c836a06233681665,64dc7cf31a8da31a47b5d4a8,,,,,,,decisionTrl,resources/DY.BMP,resources/DBN.BMP,Door1,0.217592593,0.006481481,1,0,0,0.5367,optionRight,30,7740,4,27,0,27,0,1,,,,,,,,,,,,,,,,,,,,,,,,,,,,,,,,,,,,,,,
,,,,,,,,2023-08-16_08h38.50.247,HF_wild_card,2022.2.4,Win32,60.11060351,6146f8473af59b2f858aa2f2,64d2fd46c836a06233681665,64dc7cf31a8da31a47b5d4a8,,,,,,,ctch,resources/DBN.BMP,resources/DP.BMP,Door1,-0.187037037,0.048148148,1,0,0,0.3404,optionLeft,30,7770,4,28,0,28,0,1,,,,,,,,,,,,,,,,,,,,,,,,,,,,,,,,,,,,,,,
,,,,,,,,2023-08-16_08h38.50.247,HF_wild_card,2022.2.4,Win32,60.11060351,6146f8473af59b2f858aa2f2,64d2fd46c836a06233681665,64dc7cf31a8da31a47b5d4a8,,,,,,,decisionTrl,resources/DY.BMP,resources/DBN.BMP,Door2,-0.153703704,0.07962963,1,0,0,0.3691,optionLeft,20,7790,4,29,0,29,0,1,,,,,,,,,,,,,,,,,,,,,,,,,,,,,,,,,,,,,,,
,,,,,,,,2023-08-16_08h38.50.247,HF_wild_card,2022.2.4,Win32,60.11060351,6146f8473af59b2f858aa2f2,64d2fd46c836a06233681665,64dc7cf31a8da31a47b5d4a8,,,,,,,decisionTrl,resources/DB.BMP,resources/DP.BMP,Door4,0.437037037,0.008333333,1,0,0,0.9293,optionRight,80,7870,4,30,0,30,0,1,,,,,,,,,,,,,,,,,,,,,,,,,,,,,,,,,,,,,,,
,,,,,,,,2023-08-16_08h38.50.247,HF_wild_card,2022.2.4,Win32,60.11060351,6146f8473af59b2f858aa2f2,64d2fd46c836a06233681665,64dc7cf31a8da31a47b5d4a8,,,,,,,sngl,resources/DY.BMP,resources/Empty.png,Door2,-0.215740741,0.037037037,1,0,0,3.1272,optionLeft,20,7890,4,31,0,31,0,1,,,,,,,,,,,,,,,,,,,,,,,,,,,,,,,,,,,,,,,
,,,,,,,,2023-08-16_08h38.50.247,HF_wild_card,2022.2.4,Win32,60.11060351,6146f8473af59b2f858aa2f2,64d2fd46c836a06233681665,64dc7cf31a8da31a47b5d4a8,,,,,,,ctch,resources/DP.BMP,resources/DBN.BMP,Door1,0.29537037,0.028703704,1,0,0,0.3578,optionRight,30,7920,4,32,0,32,0,1,,,,,,,,,,,,,,,,,,,,,,,,,,,,,,,,,,,,,,,
,,,,,,,,2023-08-16_08h38.50.247,HF_wild_card,2022.2.4,Win32,60.11060351,6146f8473af59b2f858aa2f2,64d2fd46c836a06233681665,64dc7cf31a8da31a47b5d4a8,,,,,,,sngl,resources/Empty.png,resources/DY.BMP,Door2,-0.274074074,0.036111111,1,0,0,0.3266,optionRight,40,7960,4,33,0,33,0,1,,,,,,,,,,,,,,,,,,,,,,,,,,,,,,,,,,,,,,,
,,,,,,,,2023-08-16_08h38.50.247,HF_wild_card,2022.2.4,Win32,60.11060351,6146f8473af59b2f858aa2f2,64d2fd46c836a06233681665,64dc7cf31a8da31a47b5d4a8,,,,,,,sngl,resources/Empty.png,resources/DP.BMP,Door4,0.27962963,0.038888889,1,0,0,0.6125,optionRight,80,8040,4,34,0,34,0,1,,,,,,,,,,,,,,,,,,,,,,,,,,,,,,,,,,,,,,,
,,,,,,,,2023-08-16_08h38.50.247,HF_wild_card,2022.2.4,Win32,60.11060351,6146f8473af59b2f858aa2f2,64d2fd46c836a06233681665,64dc7cf31a8da31a47b5d4a8,,,,,,,decisionTrl,resources/DBN.BMP,resources/DB.BMP,Door1,-0.265740741,0.062962963,1,0,0,0.3617,optionLeft,30,8070,4,35,0,35,0,1,,,,,,,,,,,,,,,,,,,,,,,,,,,,,,,,,,,,,,,
,,,,,,,,2023-08-16_08h38.50.247,HF_wild_card,2022.2.4,Win32,60.11060351,6146f8473af59b2f858aa2f2,64d2fd46c836a06233681665,64dc7cf31a8da31a47b5d4a8,,,,,,,sngl,resources/Empty.png,resources/DB.BMP,WildCard_NonEx,0.234259259,0.065740741,1,0,0,0.2725,optionRight,55,8125,4,36,0,36,0,1,,,,,,,,,,,,,,,,,,,,,,,,,,,,,,,,,,,,,,,
,,,,,,,,2023-08-16_08h38.50.247,HF_wild_card,2022.2.4,Win32,60.11060351,6146f8473af59b2f858aa2f2,64d2fd46c836a06233681665,64dc7cf31a8da31a47b5d4a8,,,,,,,decisionTrl,resources/DR.BMP,resources/DP.BMP,Door4,0.234259259,0.037037037,1,0,0,0.3971,optionRight,60,8185,4,37,0,37,0,1,,,,,,,,,,,,,,,,,,,,,,,,,,,,,,,,,,,,,,,
,,,,,,,,2023-08-16_08h38.50.247,HF_wild_card,2022.2.4,Win32,60.11060351,6146f8473af59b2f858aa2f2,64d2fd46c836a06233681665,64dc7cf31a8da31a47b5d4a8,,,,,,,decisionTrl,resources/DR.BMP,resources/DP.BMP,Door4,0.216666667,0.074074074,1,0,0,0.3412,optionRight,80,8265,4,38,0,38,0,1,,,,,,,,,,,,,,,,,,,,,,,,,,,,,,,,,,,,,,,
,,,,,,,,2023-08-16_08h38.50.247,HF_wild_card,2022.2.4,Win32,60.11060351,6146f8473af59b2f858aa2f2,64d2fd46c836a06233681665,64dc7cf31a8da31a47b5d4a8,,,,,,,ctch,resources/DP.BMP,resources/DBN.BMP,Door1,0.247222222,0.067592593,1,0,0,0.3826,optionRight,30,8295,4,39,0,39,0,1,,,,,,,,,,,,,,,,,,,,,,,,,,,,,,,,,,,,,,,
,,,,,,,,2023-08-16_08h38.50.247,HF_wild_card,2022.2.4,Win32,60.11060351,6146f8473af59b2f858aa2f2,64d2fd46c836a06233681665,64dc7cf31a8da31a47b5d4a8,,,,,,,decisionTrl,resources/DP.BMP,resources/DR.BMP,Door4,-0.39537037,0.084259259,1,0,0,0.2988,optionLeft,80,8375,4,40,0,40,0,1,,,,,,,,,,,,,,,,,,,,,,,,,,,,,,,,,,,,,,,
,,,,,,,,2023-08-16_08h38.50.247,HF_wild_card,2022.2.4,Win32,60.11060351,6146f8473af59b2f858aa2f2,64d2fd46c836a06233681665,64dc7cf31a8da31a47b5d4a8,,,,,,,decisionTrl,resources/DP.BMP,resources/DR.BMP,Door3,0.189814815,0.083333333,1,0,0,0.3316,optionRight,70,8445,4,41,0,41,0,1,,,,,,,,,,,,,,,,,,,,,,,,,,,,,,,,,,,,,,,
,,,,,,,,2023-08-16_08h38.50.247,HF_wild_card,2022.2.4,Win32,60.11060351,6146f8473af59b2f858aa2f2,64d2fd46c836a06233681665,64dc7cf31a8da31a47b5d4a8,,,,,,,decisionTrl,resources/DY.BMP,resources/DBN.BMP,Door2,-0.173148148,0.035185185,1,0,0,0.2962,optionLeft,40,8485,4,42,0,42,0,1,,,,,,,,,,,,,,,,,,,,,,,,,,,,,,,,,,,,,,,
,,,,,,,,2023-08-16_08h38.50.247,HF_wild_card,2022.2.4,Win32,60.11060351,6146f8473af59b2f858aa2f2,64d2fd46c836a06233681665,64dc7cf31a8da31a47b5d4a8,,,,,,,sngl,resources/Empty.png,resources/DBN.BMP,Door1,0.228703704,0.047222222,1,0,0,0.38,optionRight,30,8515,4,43,0,43,0,1,,,,,,,,,,,,,,,,,,,,,,,,,,,,,,,,,,,,,,,
,,,,,,,,2023-08-16_08h38.50.247,HF_wild_card,2022.2.4,Win32,60.11060351,6146f8473af59b2f858aa2f2,64d2fd46c836a06233681665,64dc7cf31a8da31a47b5d4a8,,,,,,,,,,,,,,,,,,,,,,,,,,3,0,3,0,1,,,,,,,,,,,,,,,,,,,,,,,,,,,,,,,,,,
,,,,,,,,2023-08-16_08h38.50.247,HF_wild_card,2022.2.4,Win32,60.11060351,6146f8473af59b2f858aa2f2,64d2fd46c836a06233681665,64dc7cf31a8da31a47b5d4a8,,,,,,,decisionTrl,resources/DBN.BMP,resources/DY.BMP,Door1,-0.235185185,-0.062962963,1,0,0,0.5427,optionLeft,30,8545,5,0,0,0,0,1,,,,,,,,,,,,,,,,,,,,,,,,,,,,,,,,,,,,,,,
,,,,,,,,2023-08-16_08h38.50.247,HF_wild_card,2022.2.4,Win32,60.11060351,6146f8473af59b2f858aa2f2,64d2fd46c836a06233681665,64dc7cf31a8da31a47b5d4a8,,,,,,,decisionTrl,resources/DY.BMP,resources/DBN.BMP,Door1,0.236111111,0.069444444,1,0,0,0.358,optionRight,30,8575,5,1,0,1,0,1,,,,,,,,,,,,,,,,,,,,,,,,,,,,,,,,,,,,,,,
,,,,,,,,2023-08-16_08h38.50.247,HF_wild_card,2022.2.4,Win32,60.11060351,6146f8473af59b2f858aa2f2,64d2fd46c836a06233681665,64dc7cf31a8da31a47b5d4a8,,,,,,,decisionTrl,resources/DBN.BMP,resources/DY.BMP,Door2,0.212037037,0.067592593,1,0,0,0.3773,optionRight,20,8595,5,2,0,2,0,1,,,,,,,,,,,,,,,,,,,,,,,,,,,,,,,,,,,,,,,
,,,,,,,,2023-08-16_08h38.50.247,HF_wild_card,2022.2.4,Win32,60.11060351,6146f8473af59b2f858aa2f2,64d2fd46c836a06233681665,64dc7cf31a8da31a47b5d4a8,,,,,,,sngl,resources/DBN.BMP,resources/Empty.png,Door1,-0.288888889,0.076851852,1,0,0,0.3919,optionLeft,30,8625,5,3,0,3,0,1,,,,,,,,,,,,,,,,,,,,,,,,,,,,,,,,,,,,,,,
,,,,,,,,2023-08-16_08h38.50.247,HF_wild_card,2022.2.4,Win32,60.11060351,6146f8473af59b2f858aa2f2,64d2fd46c836a06233681665,64dc7cf31a8da31a47b5d4a8,,,,,,,ctch,resources/DR.BMP,resources/DY.BMP,Door2,0.117592593,0.102777778,1,0,0,0.3027,optionRight,40,8665,5,4,0,4,0,1,,,,,,,,,,,,,,,,,,,,,,,,,,,,,,,,,,,,,,,
,,,,,,,,2023-08-16_08h38.50.247,HF_wild_card,2022.2.4,Win32,60.11060351,6146f8473af59b2f858aa2f2,64d2fd46c836a06233681665,64dc7cf31a8da31a47b5d4a8,,,,,,,decisionTrl,resources/DP.BMP,resources/DR.BMP,Door3,0.167592593,0.099074074,1,0,0,0.2631,optionRight,70,8735,5,5,0,5,0,1,,,,,,,,,,,,,,,,,,,,,,,,,,,,,,,,,,,,,,,
,,,,,,,,2023-08-16_08h38.50.247,HF_wild_card,2022.2.4,Win32,60.11060351,6146f8473af59b2f858aa2f2,64d2fd46c836a06233681665,64dc7cf31a8da31a47b5d4a8,,,,,,,decisionTrl,resources/DR.BMP,resources/DP.BMP,Door4,0.110185185,0.075,1,0,0,0.3159,optionRight,80,8815,5,6,0,6,0,1,,,,,,,,,,,,,,,,,,,,,,,,,,,,,,,,,,,,,,,
,,,,,,,,2023-08-16_08h38.50.247,HF_wild_card,2022.2.4,Win32,60.11060351,6146f8473af59b2f858aa2f2,64d2fd46c836a06233681665,64dc7cf31a8da31a47b5d4a8,,,,,,,decisionTrl,resources/DP.BMP,resources/DR.BMP,Door4,-0.202777778,0.088888889,1,0,0,0.4397,optionLeft,60,8875,5,7,0,7,0,1,,,,,,,,,,,,,,,,,,,,,,,,,,,,,,,,,,,,,,,
,,,,,,,,2023-08-16_08h38.50.247,HF_wild_card,2022.2.4,Win32,60.11060351,6146f8473af59b2f858aa2f2,64d2fd46c836a06233681665,64dc7cf31a8da31a47b5d4a8,,,,,,,ctch,resources/DBN.BMP,resources/DP.BMP,Door4,0.206481481,0.061111111,1,0,0,0.3934,optionRight,60,8935,5,8,0,8,0,1,,,,,,,,,,,,,,,,,,,,,,,,,,,,,,,,,,,,,,,
,,,,,,,,2023-08-16_08h38.50.247,HF_wild_card,2022.2.4,Win32,60.11060351,6146f8473af59b2f858aa2f2,64d2fd46c836a06233681665,64dc7cf31a8da31a47b5d4a8,,,,,,,sngl,resources/Empty.png,resources/DBN.BMP,Door1,-0.148148148,0.052777778,1,0,0,0.3751,optionRight,30,8965,5,9,0,9,0,1,,,,,,,,,,,,,,,,,,,,,,,,,,,,,,,,,,,,,,,
,,,,,,,,2023-08-16_08h38.50.247,HF_wild_card,2022.2.4,Win32,60.11060351,6146f8473af59b2f858aa2f2,64d2fd46c836a06233681665,64dc7cf31a8da31a47b5d4a8,,,,,,,decisionTrl,resources/DP.BMP,resources/DB.BMP,Door4,-0.237962963,0.102777778,1,0,0,0.3856,optionLeft,60,9025,5,10,0,10,0,1,,,,,,,,,,,,,,,,,,,,,,,,,,,,,,,,,,,,,,,
,,,,,,,,2023-08-16_08h38.50.247,HF_wild_card,2022.2.4,Win32,60.11060351,6146f8473af59b2f858aa2f2,64d2fd46c836a06233681665,64dc7cf31a8da31a47b5d4a8,,,,,,,decisionTrl,resources/DB.BMP,resources/DP.BMP,Door4,0.128703704,0.05,1,0,0,0.3001,optionRight,80,9105,5,11,0,11,0,1,,,,,,,,,,,,,,,,,,,,,,,,,,,,,,,,,,,,,,,
,,,,,,,,2023-08-16_08h38.50.247,HF_wild_card,2022.2.4,Win32,60.11060351,6146f8473af59b2f858aa2f2,64d2fd46c836a06233681665,64dc7cf31a8da31a47b5d4a8,,,,,,,decisionTrl,resources/DP.BMP,resources/DR.BMP,Door3,0.219444444,0.072222222,1,0,0,0.311,optionRight,70,9175,5,12,0,12,0,1,,,,,,,,,,,,,,,,,,,,,,,,,,,,,,,,,,,,,,,
,,,,,,,,2023-08-16_08h38.50.247,HF_wild_card,2022.2.4,Win32,60.11060351,6146f8473af59b2f858aa2f2,64d2fd46c836a06233681665,64dc7cf31a8da31a47b5d4a8,,,,,,,sngl,resources/DB.BMP,resources/Empty.png,WildCard_NonEx,0.151851852,0.053703704,1,0,0,0.5307,optionLeft,45,9220,5,13,0,13,0,1,,,,,,,,,,,,,,,,,,,,,,,,,,,,,,,,,,,,,,,
,,,,,,,,2023-08-16_08h38.50.247,HF_wild_card,2022.2.4,Win32,60.11060351,6146f8473af59b2f858aa2f2,64d2fd46c836a06233681665,64dc7cf31a8da31a47b5d4a8,,,,,,,ctch,resources/DY.BMP,resources/DR.BMP,Door3,0.157407407,0.055555556,1,0,0,0.3484,optionRight,70,9290,5,14,0,14,0,1,,,,,,,,,,,,,,,,,,,,,,,,,,,,,,,,,,,,,,,
,,,,,,,,2023-08-16_08h38.50.247,HF_wild_card,2022.2.4,Win32,60.11060351,6146f8473af59b2f858aa2f2,64d2fd46c836a06233681665,64dc7cf31a8da31a47b5d4a8,,,,,,,decisionTrl,resources/DY.BMP,resources/DBN.BMP,Door2,-0.246296296,0.074074074,1,0,0,0.3316,optionLeft,20,9310,5,15,0,15,0,1,,,,,,,,,,,,,,,,,,,,,,,,,,,,,,,,,,,,,,,
,,,,,,,,2023-08-16_08h38.50.247,HF_wild_card,2022.2.4,Win32,60.11060351,6146f8473af59b2f858aa2f2,64d2fd46c836a06233681665,64dc7cf31a8da31a47b5d4a8,,,,,,,decisionTrl,resources/DB.BMP,resources/DR.BMP,Door3,0.221296296,0.076851852,1,0,0,0.3926,optionRight,70,9380,5,16,0,16,0,1,,,,,,,,,,,,,,,,,,,,,,,,,,,,,,,,,,,,,,,
,,,,,,,,2023-08-16_08h38.50.247,HF_wild_card,2022.2.4,Win32,60.11060351,6146f8473af59b2f858aa2f2,64d2fd46c836a06233681665,64dc7cf31a8da31a47b5d4a8,,,,,,,decisionTrl,resources/DR.BMP,resources/DP.BMP,Door4,0.182407407,0.078703704,1,0,0,0.3105,optionRight,60,9440,5,17,0,17,0,1,,,,,,,,,,,,,,,,,,,,,,,,,,,,,,,,,,,,,,,
,,,,,,,,2023-08-16_08h38.50.247,HF_wild_card,2022.2.4,Win32,60.11060351,6146f8473af59b2f858aa2f2,64d2fd46c836a06233681665,64dc7cf31a8da31a47b5d4a8,,,,,,,decisionTrl,resources/DBN.BMP,resources/DB.BMP,WildCard_NonEx,0.108333333,0.042592593,1,0,0,0.2807,optionRight,45,9485,5,18,0,18,0,1,,,,,,,,,,,,,,,,,,,,,,,,,,,,,,,,,,,,,,,
,,,,,,,,2023-08-16_08h38.50.247,HF_wild_card,2022.2.4,Win32,60.11060351,6146f8473af59b2f858aa2f2,64d2fd46c836a06233681665,64dc7cf31a8da31a47b5d4a8,,,,,,,ctch,resources/DY.BMP,resources/DR.BMP,Door2,-0.339814815,0.087962963,1,0,0,0.3814,optionLeft,40,9525,5,19,0,19,0,1,,,,,,,,,,,,,,,,,,,,,,,,,,,,,,,,,,,,,,,
,,,,,,,,2023-08-16_08h38.50.247,HF_wild_card,2022.2.4,Win32,60.11060351,6146f8473af59b2f858aa2f2,64d2fd46c836a06233681665,64dc7cf31a8da31a47b5d4a8,,,,,,,decisionTrl,resources/DBN.BMP,resources/DY.BMP,Door2,0.235185185,0.064814815,1,0,0,0.364,optionRight,40,9565,5,20,0,20,0,1,,,,,,,,,,,,,,,,,,,,,,,,,,,,,,,,,,,,,,,
,,,,,,,,2023-08-16_08h38.50.247,HF_wild_card,2022.2.4,Win32,60.11060351,6146f8473af59b2f858aa2f2,64d2fd46c836a06233681665,64dc7cf31a8da31a47b5d4a8,,,,,,,decisionTrl,resources/DB.BMP,resources/DY.BMP,WildCard_NonEx,-0.509259259,0.10462963,1,0,0,0.6535,optionLeft,45,9610,5,21,0,21,0,1,,,,,,,,,,,,,,,,,,,,,,,,,,,,,,,,,,,,,,,
,,,,,,,,2023-08-16_08h38.50.247,HF_wild_card,2022.2.4,Win32,60.11060351,6146f8473af59b2f858aa2f2,64d2fd46c836a06233681665,64dc7cf31a8da31a47b5d4a8,,,,,,,sngl,resources/DP.BMP,resources/Empty.png,Door4,-0.127777778,0.055555556,1,0,0,0.4296,optionLeft,80,9690,5,22,0,22,0,1,,,,,,,,,,,,,,,,,,,,,,,,,,,,,,,,,,,,,,,
,,,,,,,,2023-08-16_08h38.50.247,HF_wild_card,2022.2.4,Win32,60.11060351,6146f8473af59b2f858aa2f2,64d2fd46c836a06233681665,64dc7cf31a8da31a47b5d4a8,,,,,,,decisionTrl,resources/DBN.BMP,resources/DY.BMP,Door2,0.126851852,0.056481481,1,0,0,0.3637,optionRight,40,9730,5,23,0,23,0,1,,,,,,,,,,,,,,,,,,,,,,,,,,,,,,,,,,,,,,,
,,,,,,,,2023-08-16_08h38.50.247,HF_wild_card,2022.2.4,Win32,60.11060351,6146f8473af59b2f858aa2f2,64d2fd46c836a06233681665,64dc7cf31a8da31a47b5d4a8,,,,,,,decisionTrl,resources/DP.BMP,resources/DR.BMP,Door4,-0.278703704,0.012037037,1,0,0,0.32,optionLeft,60,9790,5,24,0,24,0,1,,,,,,,,,,,,,,,,,,,,,,,,,,,,,,,,,,,,,,,
,,,,,,,,2023-08-16_08h38.50.247,HF_wild_card,2022.2.4,Win32,60.11060351,6146f8473af59b2f858aa2f2,64d2fd46c836a06233681665,64dc7cf31a8da31a47b5d4a8,,,,,,,sngl,resources/Empty.png,resources/DP.BMP,Door4,0.300925926,0.075925926,1,0,0,0.5068,optionRight,60,9850,5,25,0,25,0,1,,,,,,,,,,,,,,,,,,,,,,,,,,,,,,,,,,,,,,,
,,,,,,,,2023-08-16_08h38.50.247,HF_wild_card,2022.2.4,Win32,60.11060351,6146f8473af59b2f858aa2f2,64d2fd46c836a06233681665,64dc7cf31a8da31a47b5d4a8,,,,,,,ctch,resources/DR.BMP,resources/DY.BMP,Door3,-0.240740741,0.067592593,1,0,0,0.5012,optionLeft,70,9920,5,26,0,26,0,1,,,,,,,,,,,,,,,,,,,,,,,,,,,,,,,,,,,,,,,
,,,,,,,,2023-08-16_08h38.50.247,HF_wild_card,2022.2.4,Win32,60.11060351,6146f8473af59b2f858aa2f2,64d2fd46c836a06233681665,64dc7cf31a8da31a47b5d4a8,,,,,,,decisionTrl,resources/DB.BMP,resources/DBN.BMP,WildCard_NonEx,-0.113888889,0.074074074,1,0,0,0.4051,optionLeft,45,9965,5,27,0,27,0,1,,,,,,,,,,,,,,,,,,,,,,,,,,,,,,,,,,,,,,,
,,,,,,,,2023-08-16_08h38.50.247,HF_wild_card,2022.2.4,Win32,60.11060351,6146f8473af59b2f858aa2f2,64d2fd46c836a06233681665,64dc7cf31a8da31a47b5d4a8,,,,,,,ctch,resources/DP.BMP,resources/DBN.BMP,Door1,0.152777778,0.090740741,1,0,0,0.2913,optionRight,30,9995,5,28,0,28,0,1,,,,,,,,,,,,,,,,,,,,,,,,,,,,,,,,,,,,,,,
,,,,,,,,2023-08-16_08h38.50.247,HF_wild_card,2022.2.4,Win32,60.11060351,6146f8473af59b2f858aa2f2,64d2fd46c836a06233681665,64dc7cf31a8da31a47b5d4a8,,,,,,,decisionTrl,resources/DR.BMP,resources/DP.BMP,Door3,-0.172222222,0.037037037,1,0,0,0.4488,optionLeft,70,10065,5,29,0,29,0,1,,,,,,,,,,,,,,,,,,,,,,,,,,,,,,,,,,,,,,,
,,,,,,,,2023-08-16_08h38.50.247,HF_wild_card,2022.2.4,Win32,60.11060351,6146f8473af59b2f858aa2f2,64d2fd46c836a06233681665,64dc7cf31a8da31a47b5d4a8,,,,,,,sngl,resources/DR.BMP,resources/Empty.png,Door3,-0.261009667,0.095059076,1,0,0,0.417,optionLeft,70,10135,5,30,0,30,0,1,,,,,,,,,,,,,,,,,,,,,,,,,,,,,,,,,,,,,,,
,,,,,,,,2023-08-16_08h38.50.247,HF_wild_card,2022.2.4,Win32,60.11060351,6146f8473af59b2f858aa2f2,64d2fd46c836a06233681665,64dc7cf31a8da31a47b5d4a8,,,,,,,sngl,resources/Empty.png,resources/DY.BMP,Door2,0.330827068,0.076799141,1,0,0,0.3738,optionRight,20,10155,5,31,0,31,0,1,,,,,,,,,,,,,,,,,,,,,,,,,,,,,,,,,,,,,,,
,,,,,,,,2023-08-16_08h38.50.247,HF_wild_card,2022.2.4,Win32,60.11060351,6146f8473af59b2f858aa2f2,64d2fd46c836a06233681665,64dc7cf31a8da31a47b5d4a8,,,,,,,sngl,resources/Empty.png,resources/DR.BMP,Door3,-0.183673469,0.029538131,1,0,0,0.3839,optionRight,70,10225,5,32,0,32,0,1,,,,,,,,,,,,,,,,,,,,,,,,,,,,,,,,,,,,,,,
,,,,,,,,2023-08-16_08h38.50.247,HF_wild_card,2022.2.4,Win32,60.11060351,6146f8473af59b2f858aa2f2,64d2fd46c836a06233681665,64dc7cf31a8da31a47b5d4a8,,,,,,,decisionTrl,resources/DY.BMP,resources/DBN.BMP,Door2,-0.16433942,0.043501611,1,0,0,0.308,optionLeft,20,10245,5,33,0,33,0,1,,,,,,,,,,,,,,,,,,,,,,,,,,,,,,,,,,,,,,,
,,,,,,,,2023-08-16_08h38.50.247,HF_wild_card,2022.2.4,Win32,60.11060351,6146f8473af59b2f858aa2f2,64d2fd46c836a06233681665,64dc7cf31a8da31a47b5d4a8,,,,,,,decisionTrl,resources/DY.BMP,resources/DBN.BMP,Door2,-0.167561762,0.056390977,1,0,0,0.5152,optionLeft,20,10265,5,34,0,34,0,1,,,,,,,,,,,,,,,,,,,,,,,,,,,,,,,,,,,,,,,
,,,,,,,,2023-08-16_08h38.50.247,HF_wild_card,2022.2.4,Win32,60.11060351,6146f8473af59b2f858aa2f2,64d2fd46c836a06233681665,64dc7cf31a8da31a47b5d4a8,,,,,,,sngl,resources/Empty.png,resources/DB.BMP,WildCard_NonEx,0.264232009,0.100429646,1,0,0,0.2792,optionRight,55,10320,5,35,0,35,0,1,,,,,,,,,,,,,,,,,,,,,,,,,,,,,,,,,,,,,,,
,,,,,,,,2023-08-16_08h38.50.247,HF_wild_card,2022.2.4,Win32,60.11060351,6146f8473af59b2f858aa2f2,64d2fd46c836a06233681665,64dc7cf31a8da31a47b5d4a8,,,,,,,sngl,resources/DB.BMP,resources/Empty.png,WildCard_NonEx,0.247046187,0.08216971,1,0,0,0.3576,optionLeft,55,10375,5,36,0,36,0,1,,,,,,,,,,,,,,,,,,,,,,,,,,,,,,,,,,,,,,,
,,,,,,,,2023-08-16_08h38.50.247,HF_wild_card,2022.2.4,Win32,60.11060351,6146f8473af59b2f858aa2f2,64d2fd46c836a06233681665,64dc7cf31a8da31a47b5d4a8,,,,,,,sngl,resources/Empty.png,resources/DB.BMP,WildCard_NonEx,0.160042965,0.142320086,1,0,0,0.3247,optionRight,45,10420,5,37,0,37,0,1,,,,,,,,,,,,,,,,,,,,,,,,,,,,,,,,,,,,,,,
,,,,,,,,2023-08-16_08h38.50.247,HF_wild_card,2022.2.4,Win32,60.11060351,6146f8473af59b2f858aa2f2,64d2fd46c836a06233681665,64dc7cf31a8da31a47b5d4a8,,,,,,,decisionTrl,resources/DR.BMP,resources/DP.BMP,Door4,0.257787325,0.106874329,1,0,0,0.3308,optionRight,80,10500,5,38,0,38,0,1,,,,,,,,,,,,,,,,,,,,,,,,,,,,,,,,,,,,,,,
,,,,,,,,2023-08-16_08h38.50.247,HF_wild_card,2022.2.4,Win32,60.11060351,6146f8473af59b2f858aa2f2,64d2fd46c836a06233681665,64dc7cf31a8da31a47b5d4a8,,,,,,,ctch,resources/DP.BMP,resources/DBN.BMP,Door1,0.177228786,0.073576799,1,0,0,0.3137,optionRight,30,10530,5,39,0,39,0,1,,,,,,,,,,,,,,,,,,,,,,,,,,,,,,,,,,,,,,,
,,,,,,,,2023-08-16_08h38.50.247,HF_wild_card,2022.2.4,Win32,60.11060351,6146f8473af59b2f858aa2f2,64d2fd46c836a06233681665,64dc7cf31a8da31a47b5d4a8,,,,,,,sngl,resources/DY.BMP,resources/Empty.png,Door2,-0.236305048,0.100429646,1,0,0,0.8318,optionLeft,40,10570,5,40,0,40,0,1,,,,,,,,,,,,,,,,,,,,,,,,,,,,,,,,,,,,,,,
,,,,,,,,2023-08-16_08h38.50.247,HF_wild_card,2022.2.4,Win32,60.11060351,6146f8473af59b2f858aa2f2,64d2fd46c836a06233681665,64dc7cf31a8da31a47b5d4a8,,,,,,,decisionTrl,resources/DY.BMP,resources/DB.BMP,WildCard_NonEx,0.229860365,0.12943072,1,0,0,0.3151,optionRight,55,10625,5,41,0,41,0,1,,,,,,,,,,,,,,,,,,,,,,,,,,,,,,,,,,,,,,,
,,,,,,,,2023-08-16_08h38.50.247,HF_wild_card,2022.2.4,Win32,60.11060351,6146f8473af59b2f858aa2f2,64d2fd46c836a06233681665,64dc7cf31a8da31a47b5d4a8,,,,,,,ctch,resources/DBN.BMP,resources/DP.BMP,Door1,-0.223415682,0.120837809,1,0,0,0.2593,optionLeft,30,10655,5,42,0,42,0,1,,,,,,,,,,,,,,,,,,,,,,,,,,,,,,,,,,,,,,,
,,,,,,,,2023-08-16_08h38.50.247,HF_wild_card,2022.2.4,Win32,60.11060351,6146f8473af59b2f858aa2f2,64d2fd46c836a06233681665,64dc7cf31a8da31a47b5d4a8,,,,,,,decisionTrl,resources/DR.BMP,resources/DB.BMP,WildCard_NonEx,0.213748657,0.144468314,1,0,0,0.2918,optionRight,55,10710,5,43,0,43,0,1,,,,,,,,,,,,,,,,,,,,,,,,,,,,,,,,,,,,,,,
,,,,,,,,2023-08-16_08h38.50.247,HF_wild_card,2022.2.4,Win32,60.11060351,6146f8473af59b2f858aa2f2,64d2fd46c836a06233681665,64dc7cf31a8da31a47b5d4a8,,,,,,,,,,,,,,,,,,,,,,,,,,4,0,4,0,1,,,,,,,,,,,,,,,,,,,,,,,,,,,,,,,,,,
,,,,,,,,2023-08-16_08h38.50.247,HF_wild_card,2022.2.4,Win32,60.11060351,6146f8473af59b2f858aa2f2,64d2fd46c836a06233681665,64dc7cf31a8da31a47b5d4a8,,,,,,,decisionTrl,resources/DP.BMP,resources/DR.BMP,Door3,0.251342642,-0.087540279,1,0,0,1.4195,optionRight,70,10780,6,0,0,0,0,1,,,,,,,,,,,,,,,,,,,,,,,,,,,,,,,,,,,,,,,
,,,,,,,,2023-08-16_08h38.50.247,HF_wild_card,2022.2.4,Win32,60.11060351,6146f8473af59b2f858aa2f2,64d2fd46c836a06233681665,64dc7cf31a8da31a47b5d4a8,,,,,,,decisionTrl,resources/DY.BMP,resources/DBN.BMP,Door1,0.278195489,0.073576799,1,0,0,0.3909,optionRight,30,10810,6,1,0,1,0,1,,,,,,,,,,,,,,,,,,,,,,,,,,,,,,,,,,,,,,,
,,,,,,,,2023-08-16_08h38.50.247,HF_wild_card,2022.2.4,Win32,60.11060351,6146f8473af59b2f858aa2f2,64d2fd46c836a06233681665,64dc7cf31a8da31a47b5d4a8,,,,,,,decisionTrl,resources/DP.BMP,resources/DB.BMP,WildCard_NonEx,0.248120301,0.097207304,1,0,0,0.3993,optionRight,55,10865,6,2,0,2,0,1,,,,,,,,,,,,,,,,,,,,,,,,,,,,,,,,,,,,,,,
,,,,,,,,2023-08-16_08h38.50.247,HF_wild_card,2022.2.4,Win32,60.11060351,6146f8473af59b2f858aa2f2,64d2fd46c836a06233681665,64dc7cf31a8da31a47b5d4a8,,,,,,,decisionTrl,resources/DB.BMP,resources/DBN.BMP,WildCard_NonEx,-0.251342642,0.093984962,1,0,0,0.9591,optionLeft,45,10910,6,3,0,3,0,1,,,,,,,,,,,,,,,,,,,,,,,,,,,,,,,,,,,,,,,
,,,,,,,,2023-08-16_08h38.50.247,HF_wild_card,2022.2.4,Win32,60.11060351,6146f8473af59b2f858aa2f2,64d2fd46c836a06233681665,64dc7cf31a8da31a47b5d4a8,,,,,,,decisionTrl,resources/DR.BMP,resources/DB.BMP,WildCard_NonEx,0.155746509,0.080021482,1,0,0,0.3257,optionRight,45,10955,6,4,0,4,0,1,,,,,,,,,,,,,,,,,,,,,,,,,,,,,,,,,,,,,,,
,,,,,,,,2023-08-16_08h38.50.247,HF_wild_card,2022.2.4,Win32,60.11060351,6146f8473af59b2f858aa2f2,64d2fd46c836a06233681665,64dc7cf31a8da31a47b5d4a8,,,,,,,ctch,resources/DP.BMP,resources/DBN.BMP,Door4,-0.248120301,0.098281418,1,0,0,0.3917,optionLeft,80,11035,6,5,0,5,0,1,,,,,,,,,,,,,,,,,,,,,,,,,,,,,,,,,,,,,,,
,,,,,,,,2023-08-16_08h38.50.247,HF_wild_card,2022.2.4,Win32,60.11060351,6146f8473af59b2f858aa2f2,64d2fd46c836a06233681665,64dc7cf31a8da31a47b5d4a8,,,,,,,ctch,resources/DBN.BMP,resources/DP.BMP,Door4,0.227712137,0.145542427,1,0,0,0.311,optionRight,60,11095,6,6,0,6,0,1,,,,,,,,,,,,,,,,,,,,,,,,,,,,,,,,,,,,,,,
,,,,,,,,2023-08-16_08h38.50.247,HF_wild_card,2022.2.4,Win32,60.11060351,6146f8473af59b2f858aa2f2,64d2fd46c836a06233681665,64dc7cf31a8da31a47b5d4a8,,,,,,,decisionTrl,resources/DY.BMP,resources/DBN.BMP,Door1,0.230934479,0.084317938,1,0,0,0.3006,optionRight,30,11125,6,7,0,7,0,1,,,,,,,,,,,,,,,,,,,,,,,,,,,,,,,,,,,,,,,
,,,,,,,,2023-08-16_08h38.50.247,HF_wild_card,2022.2.4,Win32,60.11060351,6146f8473af59b2f858aa2f2,64d2fd46c836a06233681665,64dc7cf31a8da31a47b5d4a8,,,,,,,sngl,resources/DP.BMP,resources/Empty.png,Door4,0.283566058,0.066058002,1,0,0,0.2624,optionLeft,60,11185,6,8,0,8,0,1,,,,,,,,,,,,,,,,,,,,,,,,,,,,,,,,,,,,,,,
,,,,,,,,2023-08-16_08h38.50.247,HF_wild_card,2022.2.4,Win32,60.11060351,6146f8473af59b2f858aa2f2,64d2fd46c836a06233681665,64dc7cf31a8da31a47b5d4a8,,,,,,,sngl,resources/Empty.png,resources/DP.BMP,Door4,-0.214822771,0.131578947,1,0,0,0.33,optionRight,80,11265,6,9,0,9,0,1,,,,,,,,,,,,,,,,,,,,,,,,,,,,,,,,,,,,,,,
,,,,,,,,2023-08-16_08h38.50.247,HF_wild_card,2022.2.4,Win32,60.11060351,6146f8473af59b2f858aa2f2,64d2fd46c836a06233681665,64dc7cf31a8da31a47b5d4a8,,,,,,,decisionTrl,resources/DR.BMP,resources/DP.BMP,Door3,-0.223415682,0.134801289,1,0,0,0.363,optionLeft,70,11335,6,10,0,10,0,1,,,,,,,,,,,,,,,,,,,,,,,,,,,,,,,,,,,,,,,
,,,,,,,,2023-08-16_08h38.50.247,HF_wild_card,2022.2.4,Win32,60.11060351,6146f8473af59b2f858aa2f2,64d2fd46c836a06233681665,64dc7cf31a8da31a47b5d4a8,,,,,,,decisionTrl,resources/DBN.BMP,resources/DB.BMP,Door1,-0.128893663,0.099355532,1,0,0,0.3421,optionLeft,30,11365,6,11,0,11,0,1,,,,,,,,,,,,,,,,,,,,,,,,,,,,,,,,,,,,,,,
,,,,,,,,2023-08-16_08h38.50.247,HF_wild_card,2022.2.4,Win32,60.11060351,6146f8473af59b2f858aa2f2,64d2fd46c836a06233681665,64dc7cf31a8da31a47b5d4a8,,,,,,,sngl,resources/DB.BMP,resources/Empty.png,WildCard_NonEx,0.377013963,0.086466165,1,0,0,0.4145,optionLeft,45,11410,6,12,0,12,0,1,,,,,,,,,,,,,,,,,,,,,,,,,,,,,,,,,,,,,,,
,,,,,,,,2023-08-16_08h38.50.247,HF_wild_card,2022.2.4,Win32,60.11060351,6146f8473af59b2f858aa2f2,64d2fd46c836a06233681665,64dc7cf31a8da31a47b5d4a8,,,,,,,sngl,resources/Empty.png,resources/DR.BMP,Door3,0.419978518,0.059613319,1,0,0,0.4136,optionRight,70,11480,6,13,0,13,0,1,,,,,,,,,,,,,,,,,,,,,,,,,,,,,,,,,,,,,,,
,,,,,,,,2023-08-16_08h38.50.247,HF_wild_card,2022.2.4,Win32,60.11060351,6146f8473af59b2f858aa2f2,64d2fd46c836a06233681665,64dc7cf31a8da31a47b5d4a8,,,,,,,sngl,resources/Empty.png,resources/DB.BMP,WildCard_NonEx,0.409237379,0.058539205,1,0,0,0.4464,optionRight,55,11535,6,14,0,14,0,1,,,,,,,,,,,,,,,,,,,,,,,,,,,,,,,,,,,,,,,
,,,,,,,,2023-08-16_08h38.50.247,HF_wild_card,2022.2.4,Win32,60.11060351,6146f8473af59b2f858aa2f2,64d2fd46c836a06233681665,64dc7cf31a8da31a47b5d4a8,,,,,,,decisionTrl,resources/DBN.BMP,resources/DY.BMP,Door2,0.357679914,0.136949517,1,0,0,0.297,optionRight,20,11555,6,15,0,15,0,1,,,,,,,,,,,,,,,,,,,,,,,,,,,,,,,,,,,,,,,
,,,,,,,,2023-08-16_08h38.50.247,HF_wild_card,2022.2.4,Win32,60.11060351,6146f8473af59b2f858aa2f2,64d2fd46c836a06233681665,64dc7cf31a8da31a47b5d4a8,,,,,,,sngl,resources/Empty.png,resources/DBN.BMP,Door1,0.358754028,0.012352309,1,0,0,0.5549,optionRight,30,11585,6,16,0,16,0,1,,,,,,,,,,,,,,,,,,,,,,,,,,,,,,,,,,,,,,,
,,,,,,,,2023-08-16_08h38.50.247,HF_wild_card,2022.2.4,Win32,60.11060351,6146f8473af59b2f858aa2f2,64d2fd46c836a06233681665,64dc7cf31a8da31a47b5d4a8,,,,,,,decisionTrl,resources/DP.BMP,resources/DR.BMP,Door3,0.486573577,0.0349087,1,0,0,33.9361,optionRight,70,11655,6,17,0,17,0,1,,,,,,,,,,,,,,,,,,,,,,,,,,,,,,,,,,,,,,,
,,,,,,,,2023-08-16_08h38.50.247,HF_wild_card,2022.2.4,Win32,60.11060351,6146f8473af59b2f858aa2f2,64d2fd46c836a06233681665,64dc7cf31a8da31a47b5d4a8,,,,,,,decisionTrl,resources/DP.BMP,resources/DR.BMP,Door4,-0.26745435,0.029538131,1,0,0,0.5617,optionLeft,80,11735,6,18,0,18,0,1,,,,,,,,,,,,,,,,,,,,,,,,,,,,,,,,,,,,,,,
,,,,,,,,2023-08-16_08h38.50.247,HF_wild_card,2022.2.4,Win32,60.11060351,6146f8473af59b2f858aa2f2,64d2fd46c836a06233681665,64dc7cf31a8da31a47b5d4a8,,,,,,,ctch,resources/DR.BMP,resources/DY.BMP,Door3,-0.219119227,0.071428571,1,0,0,0.3443,optionLeft,70,11805,6,19,0,19,0,1,,,,,,,,,,,,,,,,,,,,,,,,,,,,,,,,,,,,,,,
,,,,,,,,2023-08-16_08h38.50.247,HF_wild_card,2022.2.4,Win32,60.11060351,6146f8473af59b2f858aa2f2,64d2fd46c836a06233681665,64dc7cf31a8da31a47b5d4a8,,,,,,,ctch,resources/DY.BMP,resources/DR.BMP,Door2,-0.152524168,0.043501611,1,0,0,0.2796,optionLeft,20,11825,6,20,0,20,0,1,,,,,,,,,,,,,,,,,,,,,,,,,,,,,,,,,,,,,,,
,,,,,,,,2023-08-16_08h38.50.247,HF_wild_card,2022.2.4,Win32,60.11060351,6146f8473af59b2f858aa2f2,64d2fd46c836a06233681665,64dc7cf31a8da31a47b5d4a8,,,,,,,sngl,resources/Empty.png,resources/DB.BMP,WildCard_NonEx,0.218045113,0.063909774,1,0,0,0.2466,optionRight,45,11870,6,21,0,21,0,1,,,,,,,,,,,,,,,,,,,,,,,,,,,,,,,,,,,,,,,
,,,,,,,,2023-08-16_08h38.50.247,HF_wild_card,2022.2.4,Win32,60.11060351,6146f8473af59b2f858aa2f2,64d2fd46c836a06233681665,64dc7cf31a8da31a47b5d4a8,,,,,,,sngl,resources/Empty.png,resources/DY.BMP,Door2,0.284640172,0.060687433,1,0,0,0.2478,optionRight,40,11910,6,22,0,22,0,1,,,,,,,,,,,,,,,,,,,,,,,,,,,,,,,,,,,,,,,
,,,,,,,,2023-08-16_08h38.50.247,HF_wild_card,2022.2.4,Win32,60.11060351,6146f8473af59b2f858aa2f2,64d2fd46c836a06233681665,64dc7cf31a8da31a47b5d4a8,,,,,,,sngl,resources/DB.BMP,resources/Empty.png,WildCard_NonEx,-0.168635875,0.056390977,1,0,0,0.2798,optionLeft,55,11965,6,23,0,23,0,1,,,,,,,,,,,,,,,,,,,,,,,,,,,,,,,,,,,,,,,
,,,,,,,,2023-08-16_08h38.50.247,HF_wild_card,2022.2.4,Win32,60.11060351,6146f8473af59b2f858aa2f2,64d2fd46c836a06233681665,64dc7cf31a8da31a47b5d4a8,,,,,,,decisionTrl,resources/DY.BMP,resources/DBN.BMP,Door1,0.168635875,0.046723953,1,0,0,0.2474,optionRight,30,11995,6,24,0,24,0,1,,,,,,,,,,,,,,,,,,,,,,,,,,,,,,,,,,,,,,,
,,,,,,,,2023-08-16_08h38.50.247,HF_wild_card,2022.2.4,Win32,60.11060351,6146f8473af59b2f858aa2f2,64d2fd46c836a06233681665,64dc7cf31a8da31a47b5d4a8,,,,,,,sngl,resources/DY.BMP,resources/Empty.png,Door2,-0.19763695,0.028464017,1,0,0,0.2462,optionLeft,20,12015,6,25,0,25,0,1,,,,,,,,,,,,,,,,,,,,,,,,,,,,,,,,,,,,,,,
,,,,,,,,2023-08-16_08h38.50.247,HF_wild_card,2022.2.4,Win32,60.11060351,6146f8473af59b2f858aa2f2,64d2fd46c836a06233681665,64dc7cf31a8da31a47b5d4a8,,,,,,,decisionTrl,resources/DR.BMP,resources/DP.BMP,Door3,-0.181525242,0.04027927,1,0,0,0.2978,optionLeft,70,12085,6,26,0,26,0,1,,,,,,,,,,,,,,,,,,,,,,,,,,,,,,,,,,,,,,,
,,,,,,,,2023-08-16_08h38.50.247,HF_wild_card,2022.2.4,Win32,60.11060351,6146f8473af59b2f858aa2f2,64d2fd46c836a06233681665,64dc7cf31a8da31a47b5d4a8,,,,,,,decisionTrl,resources/DB.BMP,resources/DP.BMP,WildCard_NonEx,-0.20622986,0.063909774,1,0,0,0.2988,optionLeft,55,12140,6,27,0,27,0,1,,,,,,,,,,,,,,,,,,,,,,,,,,,,,,,,,,,,,,,
,,,,,,,,2023-08-16_08h38.50.247,HF_wild_card,2022.2.4,Win32,60.11060351,6146f8473af59b2f858aa2f2,64d2fd46c836a06233681665,64dc7cf31a8da31a47b5d4a8,,,,,,,decisionTrl,resources/DB.BMP,resources/DR.BMP,Door3,0.265306122,0.105800215,1,0,0,0.4059,optionRight,70,12210,6,28,0,28,0,1,,,,,,,,,,,,,,,,,,,,,,,,,,,,,,,,,,,,,,,
,,,,,,,,2023-08-16_08h38.50.247,HF_wild_card,2022.2.4,Win32,60.11060351,6146f8473af59b2f858aa2f2,64d2fd46c836a06233681665,64dc7cf31a8da31a47b5d4a8,,,,,,,decisionTrl,resources/DY.BMP,resources/DBN.BMP,Door1,0.332975295,0.077873255,1,0,0,0.3286,optionRight,30,12240,6,29,0,29,0,1,,,,,,,,,,,,,,,,,,,,,,,,,,,,,,,,,,,,,,,
,,,,,,,,2023-08-16_08h38.50.247,HF_wild_card,2022.2.4,Win32,60.11060351,6146f8473af59b2f858aa2f2,64d2fd46c836a06233681665,64dc7cf31a8da31a47b5d4a8,,,,,,,ctch,resources/DBN.BMP,resources/DP.BMP,Door1,-0.226638024,0.052094522,1,0,0,0.2643,optionLeft,30,12270,6,30,0,30,0,1,,,,,,,,,,,,,,,,,,,,,,,,,,,,,,,,,,,,,,,
,,,,,,,,2023-08-16_08h38.50.247,HF_wild_card,2022.2.4,Win32,60.11060351,6146f8473af59b2f858aa2f2,64d2fd46c836a06233681665,64dc7cf31a8da31a47b5d4a8,,,,,,,ctch,resources/DY.BMP,resources/DR.BMP,Door3,0.247046187,0.053168636,1,0,0,0.2828,optionRight,70,12340,6,31,0,31,0,1,,,,,,,,,,,,,,,,,,,,,,,,,,,,,,,,,,,,,,,
,,,,,,,,2023-08-16_08h38.50.247,HF_wild_card,2022.2.4,Win32,60.11060351,6146f8473af59b2f858aa2f2,64d2fd46c836a06233681665,64dc7cf31a8da31a47b5d4a8,,,,,,,ctch,resources/DP.BMP,resources/DBN.BMP,Door1,0.210526316,0.069280344,1,0,0,0.3136,optionRight,30,12370,6,32,0,32,0,1,,,,,,,,,,,,,,,,,,,,,,,,,,,,,,,,,,,,,,,
,,,,,,,,2023-08-16_08h38.50.247,HF_wild_card,2022.2.4,Win32,60.11060351,6146f8473af59b2f858aa2f2,64d2fd46c836a06233681665,64dc7cf31a8da31a47b5d4a8,,,,,,,decisionTrl,resources/DB.BMP,resources/DY.BMP,Door2,0.243823845,0.06820623,1,0,0,0.2776,optionRight,40,12410,6,33,0,33,0,1,,,,,,,,,,,,,,,,,,,,,,,,,,,,,,,,,,,,,,,
,,,,,,,,2023-08-16_08h38.50.247,HF_wild_card,2022.2.4,Win32,60.11060351,6146f8473af59b2f858aa2f2,64d2fd46c836a06233681665,64dc7cf31a8da31a47b5d4a8,,,,,,,decisionTrl,resources/DBN.BMP,resources/DY.BMP,Door2,0.258861439,0.091836735,1,0,0,0.2429,optionRight,20,12430,6,34,0,34,0,1,,,,,,,,,,,,,,,,,,,,,,,,,,,,,,,,,,,,,,,
,,,,,,,,2023-08-16_08h38.50.247,HF_wild_card,2022.2.4,Win32,60.11060351,6146f8473af59b2f858aa2f2,64d2fd46c836a06233681665,64dc7cf31a8da31a47b5d4a8,,,,,,,decisionTrl,resources/DY.BMP,resources/DB.BMP,WildCard_NonEx,0.277121375,0.140171858,1,0,0,0.2597,optionRight,45,12475,6,35,0,35,0,1,,,,,,,,,,,,,,,,,,,,,,,,,,,,,,,,,,,,,,,
,,,,,,,,2023-08-16_08h38.50.247,HF_wild_card,2022.2.4,Win32,60.11060351,6146f8473af59b2f858aa2f2,64d2fd46c836a06233681665,64dc7cf31a8da31a47b5d4a8,,,,,,,decisionTrl,resources/DBN.BMP,resources/DY.BMP,Door2,0.194414608,0.049946294,1,0,0,0.2771,optionRight,40,12515,6,36,0,36,0,1,,,,,,,,,,,,,,,,,,,,,,,,,,,,,,,,,,,,,,,
,,,,,,,,2023-08-16_08h38.50.247,HF_wild_card,2022.2.4,Win32,60.11060351,6146f8473af59b2f858aa2f2,64d2fd46c836a06233681665,64dc7cf31a8da31a47b5d4a8,,,,,,,decisionTrl,resources/DBN.BMP,resources/DY.BMP,Door1,-0.186895811,0.051020408,1,0,0,0.2774,optionLeft,30,12545,6,37,0,37,0,1,,,,,,,,,,,,,,,,,,,,,,,,,,,,,,,,,,,,,,,
,,,,,,,,2023-08-16_08h38.50.247,HF_wild_card,2022.2.4,Win32,60.11060351,6146f8473af59b2f858aa2f2,64d2fd46c836a06233681665,64dc7cf31a8da31a47b5d4a8,,,,,,,decisionTrl,resources/DR.BMP,resources/DP.BMP,Door4,0.377013963,0.052094522,1,0,0,0.3313,optionRight,60,12605,6,38,0,38,0,1,,,,,,,,,,,,,,,,,,,,,,,,,,,,,,,,,,,,,,,
,,,,,,,,2023-08-16_08h38.50.247,HF_wild_card,2022.2.4,Win32,60.11060351,6146f8473af59b2f858aa2f2,64d2fd46c836a06233681665,64dc7cf31a8da31a47b5d4a8,,,,,,,sngl,resources/DR.BMP,resources/Empty.png,Door3,0.360902256,0.111170784,1,0,0,0.2979,optionLeft,70,12675,6,39,0,39,0,1,,,,,,,,,,,,,,,,,,,,,,,,,,,,,,,,,,,,,,,
,,,,,,,,2023-08-16_08h38.50.247,HF_wild_card,2022.2.4,Win32,60.11060351,6146f8473af59b2f858aa2f2,64d2fd46c836a06233681665,64dc7cf31a8da31a47b5d4a8,,,,,,,ctch,resources/DR.BMP,resources/DY.BMP,Door3,-0.207303974,0.076799141,1,0,0,0.2916,optionLeft,70,12745,6,40,0,40,0,1,,,,,,,,,,,,,,,,,,,,,,,,,,,,,,,,,,,,,,,
,,,,,,,,2023-08-16_08h38.50.247,HF_wild_card,2022.2.4,Win32,60.11060351,6146f8473af59b2f858aa2f2,64d2fd46c836a06233681665,64dc7cf31a8da31a47b5d4a8,,,,,,,decisionTrl,resources/DR.BMP,resources/DP.BMP,Door3,-0.258861439,0.080021482,1,0,0,0.3476,optionLeft,70,12815,6,41,0,41,0,1,,,,,,,,,,,,,,,,,,,,,,,,,,,,,,,,,,,,,,,
,,,,,,,,2023-08-16_08h38.50.247,HF_wild_card,2022.2.4,Win32,60.11060351,6146f8473af59b2f858aa2f2,64d2fd46c836a06233681665,64dc7cf31a8da31a47b5d4a8,,,,,,,decisionTrl,resources/DP.BMP,resources/DR.BMP,Door3,0.340494092,0.029538131,1,0,0,0.4614,optionRight,70,12885,6,42,0,42,0,1,,,,,,,,,,,,,,,,,,,,,,,,,,,,,,,,,,,,,,,
,,,,,,,,2023-08-16_08h38.50.247,HF_wild_card,2022.2.4,Win32,60.11060351,6146f8473af59b2f858aa2f2,64d2fd46c836a06233681665,64dc7cf31a8da31a47b5d4a8,,,,,,,sngl,resources/DBN.BMP,resources/Empty.png,Door1,-0.399570354,0.035982814,1,0,0,0.5947,optionLeft,30,12915,6,43,0,43,0,1,,,,,,,,,,,,,,,,,,,,,,,,,,,,,,,,,,,,,,,
,,,,,,,,2023-08-16_08h38.50.247,HF_wild_card,2022.2.4,Win32,60.11060351,6146f8473af59b2f858aa2f2,64d2fd46c836a06233681665,64dc7cf31a8da31a47b5d4a8,,,,,,,,,,,,,,,,,,,,,,,,,,5,0,5,0,1,,,,,,,,,,,,,,,,,,,,,,,,,,,,,,,,,,
,,,,,,,,2023-08-16_08h38.50.247,HF_wild_card,2022.2.4,Win32,60.11060351,6146f8473af59b2f858aa2f2,64d2fd46c836a06233681665,64dc7cf31a8da31a47b5d4a8,,,,,,,ctch,resources/DP.BMP,resources/DBN.BMP,Door1,0.223415682,0.106874329,1,0,0,0.6414,optionRight,30,12945,7,0,0,0,0,1,,,,,,,,,,,,,,,,,,,,,,,,,,,,,,,,,,,,,,,
,,,,,,,,2023-08-16_08h38.50.247,HF_wild_card,2022.2.4,Win32,60.11060351,6146f8473af59b2f858aa2f2,64d2fd46c836a06233681665,64dc7cf31a8da31a47b5d4a8,,,,,,,decisionTrl,resources/DY.BMP,resources/DBN.BMP,Door2,-0.16433942,0.0349087,1,0,0,0.3556,optionLeft,40,12985,7,1,0,1,0,1,,,,,,,,,,,,,,,,,,,,,,,,,,,,,,,,,,,,,,,
,,,,,,,,2023-08-16_08h38.50.247,HF_wild_card,2022.2.4,Win32,60.11060351,6146f8473af59b2f858aa2f2,64d2fd46c836a06233681665,64dc7cf31a8da31a47b5d4a8,,,,,,,ctch,resources/DBN.BMP,resources/DP.BMP,Door4,0.22019334,0.038131042,1,0,0,0.3493,optionRight,60,13045,7,2,0,2,0,1,,,,,,,,,,,,,,,,,,,,,,,,,,,,,,,,,,,,,,,
,,,,,,,,2023-08-16_08h38.50.247,HF_wild_card,2022.2.4,Win32,60.11060351,6146f8473af59b2f858aa2f2,64d2fd46c836a06233681665,64dc7cf31a8da31a47b5d4a8,,,,,,,decisionTrl,resources/DR.BMP,resources/DP.BMP,Door4,0.222341568,0.013426423,1,0,0,0.5818,optionRight,60,13105,7,3,0,3,0,1,,,,,,,,,,,,,,,,,,,,,,,,,,,,,,,,,,,,,,,
,,,,,,,,2023-08-16_08h38.50.247,HF_wild_card,2022.2.4,Win32,60.11060351,6146f8473af59b2f858aa2f2,64d2fd46c836a06233681665,64dc7cf31a8da31a47b5d4a8,,,,,,,decisionTrl,resources/DBN.BMP,resources/DY.BMP,Door1,-0.301825994,0.109022556,1,0,0,0.3812,optionLeft,30,13135,7,4,0,4,0,1,,,,,,,,,,,,,,,,,,,,,,,,,,,,,,,,,,,,,,,
,,,,,,,,2023-08-16_08h38.50.247,HF_wild_card,2022.2.4,Win32,60.11060351,6146f8473af59b2f858aa2f2,64d2fd46c836a06233681665,64dc7cf31a8da31a47b5d4a8,,,,,,,ctch,resources/DY.BMP,resources/DR.BMP,Door3,0.165413534,0.0349087,1,0,0,0.6384,optionRight,70,13205,7,5,0,5,0,1,,,,,,,,,,,,,,,,,,,,,,,,,,,,,,,,,,,,,,,
,,,,,,,,2023-08-16_08h38.50.247,HF_wild_card,2022.2.4,Win32,60.11060351,6146f8473af59b2f858aa2f2,64d2fd46c836a06233681665,64dc7cf31a8da31a47b5d4a8,,,,,,,decisionTrl,resources/DBN.BMP,resources/DY.BMP,Door2,0.196562836,0.012352309,1,0,0,0.4445,optionRight,40,13245,7,6,0,6,0,1,,,,,,,,,,,,,,,,,,,,,,,,,,,,,,,,,,,,,,,
,,,,,,,,2023-08-16_08h38.50.247,HF_wild_card,2022.2.4,Win32,60.11060351,6146f8473af59b2f858aa2f2,64d2fd46c836a06233681665,64dc7cf31a8da31a47b5d4a8,,,,,,,decisionTrl,resources/DBN.BMP,resources/DY.BMP,Door1,-0.22019334,0.078947368,1,0,0,25.9393,optionLeft,30,13275,7,7,0,7,0,1,,,,,,,,,,,,,,,,,,,,,,,,,,,,,,,,,,,,,,,
,,,,,,,,2023-08-16_08h38.50.247,HF_wild_card,2022.2.4,Win32,60.11060351,6146f8473af59b2f858aa2f2,64d2fd46c836a06233681665,64dc7cf31a8da31a47b5d4a8,,,,,,,ctch,resources/DR.BMP,resources/DY.BMP,Door2,0.221267454,-0.088614393,1,0,0,15.0035,optionRight,40,13315,7,8,0,8,0,1,,,,,,,,,,,,,,,,,,,,,,,,,,,,,,,,,,,,,,,
,,,,,,,,2023-08-16_08h38.50.247,HF_wild_card,2022.2.4,Win32,60.11060351,6146f8473af59b2f858aa2f2,64d2fd46c836a06233681665,64dc7cf31a8da31a47b5d4a8,,,,,,,ctch,resources/DP.BMP,resources/DBN.BMP,Door1,0.257787325,0.002685285,1,0,0,0.3756,optionRight,30,13345,7,9,0,9,0,1,,,,,,,,,,,,,,,,,,,,,,,,,,,,,,,,,,,,,,,
,,,,,,,,2023-08-16_08h38.50.247,HF_wild_card,2022.2.4,Win32,60.11060351,6146f8473af59b2f858aa2f2,64d2fd46c836a06233681665,64dc7cf31a8da31a47b5d4a8,,,,,,,ctch,resources/DY.BMP,resources/DR.BMP,Door2,-0.262083781,0.041353383,1,0,0,0.3434,optionLeft,40,13385,7,10,0,10,0,1,,,,,,,,,,,,,,,,,,,,,,,,,,,,,,,,,,,,,,,
,,,,,,,,2023-08-16_08h38.50.247,HF_wild_card,2022.2.4,Win32,60.11060351,6146f8473af59b2f858aa2f2,64d2fd46c836a06233681665,64dc7cf31a8da31a47b5d4a8,,,,,,,decisionTrl,resources/DP.BMP,resources/DR.BMP,Door3,0.209452202,0.032760473,1,0,0,0.3129,optionRight,70,13455,7,11,0,11,0,1,,,,,,,,,,,,,,,,,,,,,,,,,,,,,,,,,,,,,,,
,,,,,,,,2023-08-16_08h38.50.247,HF_wild_card,2022.2.4,Win32,60.11060351,6146f8473af59b2f858aa2f2,64d2fd46c836a06233681665,64dc7cf31a8da31a47b5d4a8,,,,,,,decisionTrl,resources/DY.BMP,resources/DBN.BMP,Door2,-0.255639098,0.011278195,1,0,0,0.2851,optionLeft,20,13475,7,12,0,12,0,1,,,,,,,,,,,,,,,,,,,,,,,,,,,,,,,,,,,,,,,
,,,,,,,,2023-08-16_08h38.50.247,HF_wild_card,2022.2.4,Win32,60.11060351,6146f8473af59b2f858aa2f2,64d2fd46c836a06233681665,64dc7cf31a8da31a47b5d4a8,,,,,,,decisionTrl,resources/DR.BMP,resources/DP.BMP,Door4,0.191192266,0.031686359,1,0,0,0.3106,optionRight,60,13535,7,13,0,13,0,1,,,,,,,,,,,,,,,,,,,,,,,,,,,,,,,,,,,,,,,
,,,,,,,,2023-08-16_08h38.50.247,HF_wild_card,2022.2.4,Win32,60.11060351,6146f8473af59b2f858aa2f2,64d2fd46c836a06233681665,64dc7cf31a8da31a47b5d4a8,,,,,,,decisionTrl,resources/DY.BMP,resources/DBN.BMP,Door1,0.201933405,0.011278195,1,0,0,0.2937,optionRight,30,13565,7,14,0,14,0,1,,,,,,,,,,,,,,,,,,,,,,,,,,,,,,,,,,,,,,,
,,,,,,,,2023-08-16_08h38.50.247,HF_wild_card,2022.2.4,Win32,60.11060351,6146f8473af59b2f858aa2f2,64d2fd46c836a06233681665,64dc7cf31a8da31a47b5d4a8,,,,,,,ctch,resources/DP.BMP,resources/DBN.BMP,Door1,0.208378088,0.008055854,1,0,0,0.3143,optionRight,30,13595,7,15,0,15,0,1,,,,,,,,,,,,,,,,,,,,,,,,,,,,,,,,,,,,,,,
,,,,,,,,2023-08-16_08h38.50.247,HF_wild_card,2022.2.4,Win32,60.11060351,6146f8473af59b2f858aa2f2,64d2fd46c836a06233681665,64dc7cf31a8da31a47b5d4a8,,,,,,,decisionTrl,resources/DY.BMP,resources/DBN.BMP,Door1,0.186895811,0.018796992,1,0,0,0.2831,optionRight,30,13625,7,16,0,16,0,1,,,,,,,,,,,,,,,,,,,,,,,,,,,,,,,,,,,,,,,
,,,,,,,,2023-08-16_08h38.50.247,HF_wild_card,2022.2.4,Win32,60.11060351,6146f8473af59b2f858aa2f2,64d2fd46c836a06233681665,64dc7cf31a8da31a47b5d4a8,,,,,,,decisionTrl,resources/DP.BMP,resources/DR.BMP,Door4,-0.203007519,0.062835661,1,0,0,0.3421,optionLeft,60,13685,7,17,0,17,0,1,,,,,,,,,,,,,,,,,,,,,,,,,,,,,,,,,,,,,,,
,,,,,,,,2023-08-16_08h38.50.247,HF_wild_card,2022.2.4,Win32,60.11060351,6146f8473af59b2f858aa2f2,64d2fd46c836a06233681665,64dc7cf31a8da31a47b5d4a8,,,,,,,decisionTrl,resources/DR.BMP,resources/DP.BMP,Door3,-0.143931257,0.062835661,1,0,0,0.3471,optionLeft,70,13755,7,18,0,18,0,1,,,,,,,,,,,,,,,,,,,,,,,,,,,,,,,,,,,,,,,
,,,,,,,,2023-08-16_08h38.50.247,HF_wild_card,2022.2.4,Win32,60.11060351,6146f8473af59b2f858aa2f2,64d2fd46c836a06233681665,64dc7cf31a8da31a47b5d4a8,,,,,,,decisionTrl,resources/DBN.BMP,resources/DY.BMP,Door1,-0.191192266,0.080021482,1,0,0,0.3474,optionLeft,30,13785,7,19,0,19,0,1,,,,,,,,,,,,,,,,,,,,,,,,,,,,,,,,,,,,,,,
,,,,,,,,2023-08-16_08h38.50.247,HF_wild_card,2022.2.4,Win32,60.11060351,6146f8473af59b2f858aa2f2,64d2fd46c836a06233681665,64dc7cf31a8da31a47b5d4a8,,,,,,,decisionTrl,resources/DY.BMP,resources/DBN.BMP,Door1,0.181525242,0.029538131,1,0,0,0.3739,optionRight,30,13815,7,20,0,20,0,1,,,,,,,,,,,,,,,,,,,,,,,,,,,,,,,,,,,,,,,
,,,,,,,,2023-08-16_08h38.50.247,HF_wild_card,2022.2.4,Win32,60.11060351,6146f8473af59b2f858aa2f2,64d2fd46c836a06233681665,64dc7cf31a8da31a47b5d4a8,,,,,,,ctch,resources/DBN.BMP,resources/DP.BMP,Door4,0.22019334,0.041353383,1,0,0,0.3469,optionRight,60,13875,7,21,0,21,0,1,,,,,,,,,,,,,,,,,,,,,,,,,,,,,,,,,,,,,,,
,,,,,,,,2023-08-16_08h38.50.247,HF_wild_card,2022.2.4,Win32,60.11060351,6146f8473af59b2f858aa2f2,64d2fd46c836a06233681665,64dc7cf31a8da31a47b5d4a8,,,,,,,decisionTrl,resources/DP.BMP,resources/DR.BMP,Door3,0.214822771,0.025241676,1,0,0,0.2734,optionRight,70,13945,7,22,0,22,0,1,,,,,,,,,,,,,,,,,,,,,,,,,,,,,,,,,,,,,,,
,,,,,,,,2023-08-16_08h38.50.247,HF_wild_card,2022.2.4,Win32,60.11060351,6146f8473af59b2f858aa2f2,64d2fd46c836a06233681665,64dc7cf31a8da31a47b5d4a8,,,,,,,ctch,resources/DBN.BMP,resources/DP.BMP,Door4,0.332975295,0.031686359,1,0,0,0.3025,optionRight,60,14005,7,23,0,23,0,1,,,,,,,,,,,,,,,,,,,,,,,,,,,,,,,,,,,,,,,
,,,,,,,,2023-08-16_08h38.50.247,HF_wild_card,2022.2.4,Win32,60.11060351,6146f8473af59b2f858aa2f2,64d2fd46c836a06233681665,64dc7cf31a8da31a47b5d4a8,,,,,,,decisionTrl,resources/DP.BMP,resources/DR.BMP,Door4,-0.125671321,0.026315789,1,0,0,0.333,optionLeft,80,14085,7,24,0,24,0,1,,,,,,,,,,,,,,,,,,,,,,,,,,,,,,,,,,,,,,,
,,,,,,,,2023-08-16_08h38.50.247,HF_wild_card,2022.2.4,Win32,60.11060351,6146f8473af59b2f858aa2f2,64d2fd46c836a06233681665,64dc7cf31a8da31a47b5d4a8,,,,,,,decisionTrl,resources/DBN.BMP,resources/DY.BMP,Door2,0.15037594,-0.00698174,1,0,0,0.3101,optionRight,40,14125,7,25,0,25,0,1,,,,,,,,,,,,,,,,,,,,,,,,,,,,,,,,,,,,,,,
,,,,,,,,2023-08-16_08h38.50.247,HF_wild_card,2022.2.4,Win32,60.11060351,6146f8473af59b2f858aa2f2,64d2fd46c836a06233681665,64dc7cf31a8da31a47b5d4a8,,,,,,,decisionTrl,resources/DP.BMP,resources/DR.BMP,Door3,0.152524168,0.024167562,1,0,0,0.3508,optionRight,70,14195,7,26,0,26,0,1,,,,,,,,,,,,,,,,,,,,,,,,,,,,,,,,,,,,,,,
,,,,,,,,2023-08-16_08h38.50.247,HF_wild_card,2022.2.4,Win32,60.11060351,6146f8473af59b2f858aa2f2,64d2fd46c836a06233681665,64dc7cf31a8da31a47b5d4a8,,,,,,,ctch,resources/DY.BMP,resources/DR.BMP,Door3,0.271750806,-0.010204082,1,0,0,0.3316,optionRight,70,14265,7,27,0,27,0,1,,,,,,,,,,,,,,,,,,,,,,,,,,,,,,,,,,,,,,,
,,,,,,,,2023-08-16_08h38.50.247,HF_wild_card,2022.2.4,Win32,60.11060351,6146f8473af59b2f858aa2f2,64d2fd46c836a06233681665,64dc7cf31a8da31a47b5d4a8,,,,,,,ctch,resources/DR.BMP,resources/DY.BMP,Door2,0.199785177,0.00698174,1,0,0,0.3155,optionRight,40,14305,7,28,0,28,0,1,,,,,,,,,,,,,,,,,,,,,,,,,,,,,,,,,,,,,,,
,,,,,,,,2023-08-16_08h38.50.247,HF_wild_card,2022.2.4,Win32,60.11060351,6146f8473af59b2f858aa2f2,64d2fd46c836a06233681665,64dc7cf31a8da31a47b5d4a8,,,,,,,decisionTrl,resources/DR.BMP,resources/DP.BMP,Door4,0.214822771,0.005907626,1,0,0,0.2482,optionRight,60,14365,7,29,0,29,0,1,,,,,,,,,,,,,,,,,,,,,,,,,,,,,,,,,,,,,,,
,,,,,,,,2023-08-16_08h38.50.247,HF_wild_card,2022.2.4,Win32,60.11060351,6146f8473af59b2f858aa2f2,64d2fd46c836a06233681665,64dc7cf31a8da31a47b5d4a8,,,,,,,ctch,resources/DR.BMP,resources/DY.BMP,Door3,-0.214822771,0.058539205,1,0,0,0.318,optionLeft,70,14435,7,30,0,30,0,1,,,,,,,,,,,,,,,,,,,,,,,,,,,,,,,,,,,,,,,
,,,,,,,,2023-08-16_08h38.50.247,HF_wild_card,2022.2.4,Win32,60.11060351,6146f8473af59b2f858aa2f2,64d2fd46c836a06233681665,64dc7cf31a8da31a47b5d4a8,,,,,,,decisionTrl,resources/DP.BMP,resources/DR.BMP,Door4,-0.271750806,0.059613319,1,0,0,0.2688,optionLeft,80,14515,7,31,0,31,0,1,,,,,,,,,,,,,,,,,,,,,,,,,,,,,,,,,,,,,,,
,,,,,,,,2023-08-16_08h38.50.247,HF_wild_card,2022.2.4,Win32,60.11060351,6146f8473af59b2f858aa2f2,64d2fd46c836a06233681665,64dc7cf31a8da31a47b5d4a8,,,,,,,decisionTrl,resources/DY.BMP,resources/DBN.BMP,Door2,-0.243823845,0.058539205,1,0,0,0.2487,optionLeft,40,14555,7,32,0,32,0,1,,,,,,,,,,,,,,,,,,,,,,,,,,,,,,,,,,,,,,,
,,,,,,,,2023-08-16_08h38.50.247,HF_wild_card,2022.2.4,Win32,60.11060351,6146f8473af59b2f858aa2f2,64d2fd46c836a06233681665,64dc7cf31a8da31a47b5d4a8,,,,,,,decisionTrl,resources/DBN.BMP,resources/DY.BMP,Door2,0.238453276,0.052094522,1,0,0,0.2655,optionRight,20,14575,7,33,0,33,0,1,,,,,,,,,,,,,,,,,,,,,,,,,,,,,,,,,,,,,,,
,,,,,,,,2023-08-16_08h38.50.247,HF_wild_card,2022.2.4,Win32,60.11060351,6146f8473af59b2f858aa2f2,64d2fd46c836a06233681665,64dc7cf31a8da31a47b5d4a8,,,,,,,decisionTrl,resources/DR.BMP,resources/DP.BMP,Door4,0.223415682,0.08216971,1,0,0,0.2661,optionRight,60,14635,7,34,0,34,0,1,,,,,,,,,,,,,,,,,,,,,,,,,,,,,,,,,,,,,,,
,,,,,,,,2023-08-16_08h38.50.247,HF_wild_card,2022.2.4,Win32,60.11060351,6146f8473af59b2f858aa2f2,64d2fd46c836a06233681665,64dc7cf31a8da31a47b5d4a8,,,,,,,decisionTrl,resources/DR.BMP,resources/DP.BMP,Door4,0.251342642,0.091836735,1,0,0,0.2995,optionRight,60,14695,7,35,0,35,0,1,,,,,,,,,,,,,,,,,,,,,,,,,,,,,,,,,,,,,,,
,,,,,,,,2023-08-16_08h38.50.247,HF_wild_card,2022.2.4,Win32,60.11060351,6146f8473af59b2f858aa2f2,64d2fd46c836a06233681665,64dc7cf31a8da31a47b5d4a8,,,,,,,,,,,,,,,,,,,,,,,,,,6,0,6,0,1,,,,,,,,,,,,,,,,,,,,,,,,,,,,,,,,,,
,,,,,,,,2023-08-16_08h38.50.247,HF_wild_card,2022.2.4,Win32,60.11060351,6146f8473af59b2f858aa2f2,64d2fd46c836a06233681665,64dc7cf31a8da31a47b5d4a8,,,,,,,,,,,,,,,,,,,,,,,,,,,,,,,3,,,,,,,,,,,,,,,,,,,,,,,,,,,,,,,,,
,,,,,,,,2023-08-16_08h38.50.247,HF_wild_card,2022.2.4,Win32,60.11060351,6146f8473af59b2f858aa2f2,64d2fd46c836a06233681665,64dc7cf31a8da31a47b5d4a8,,,,,,,,,,,,,,,,,,,,,,,,,,,,,,,,,,,,,,,,,,,,,,,,,,,,,,,,,,,,,,,,
,,,,,,,,2023-08-16_08h38.50.247,HF_wild_card,2022.2.4,Win32,60.11060351,6146f8473af59b2f858aa2f2,64d2fd46c836a06233681665,64dc7cf31a8da31a47b5d4a8,,,,,,,,,,,,,,,,,,,,,,,,,,,,,,,,60,Door2,resources/DY.BMP,0,0,0,0,1,,,,,,,,,,,,,,,,,,,,,,,,,
,,,,,,,,2023-08-16_08h38.50.247,HF_wild_card,2022.2.4,Win32,60.11060351,6146f8473af59b2f858aa2f2,64d2fd46c836a06233681665,64dc7cf31a8da31a47b5d4a8,,,,,,,,,,,,,,,,,,,,,,,,,,,,,,,,20,Door1,resources/DBN.BMP,1,0,1,0,1,,,,,,,,,,,,,,,,,,,,,,,,,
,,,,,,,,2023-08-16_08h38.50.247,HF_wild_card,2022.2.4,Win32,60.11060351,6146f8473af59b2f858aa2f2,64d2fd46c836a06233681665,64dc7cf31a8da31a47b5d4a8,,,,,,,,,,,,,,,,,,,,,,,,,,,,,,,,60,Door4,resources/DP.BMP,2,0,2,0,1,,,,,,,,,,,,,,,,,,,,,,,,,
,,,,,,,,2023-08-16_08h38.50.247,HF_wild_card,2022.2.4,Win32,60.11060351,6146f8473af59b2f858aa2f2,64d2fd46c836a06233681665,64dc7cf31a8da31a47b5d4a8,,,,,,,,,,,,,,,,,,,,,,,,,,,,,,,,20,WC_extreme,resources/DG.BMP,3,0,3,0,1,,,,,,,,,,,,,,,,,,,,,,,,,
,,,,,,,,2023-08-16_08h38.50.247,HF_wild_card,2022.2.4,Win32,60.11060351,6146f8473af59b2f858aa2f2,64d2fd46c836a06233681665,64dc7cf31a8da31a47b5d4a8,,,,,,,,,,,,,,,,,,,,,,,,,,,,,,,,30,WC_nonExtreme,resources/DB.BMP,4,0,4,0,1,,,,,,,,,,,,,,,,,,,,,,,,,
,,,,,,,,2023-08-16_08h38.50.247,HF_wild_card,2022.2.4,Win32,60.11060351,6146f8473af59b2f858aa2f2,64d2fd46c836a06233681665,64dc7cf31a8da31a47b5d4a8,,,,,,,,,,,,,,,,,,,,,,,,,,,,,,,,60,Door3,resources/DR.BMP,5,0,5,0,1,,,,,,,,,,,,,,,,,,,,,,,,,
,,,,,,,,2023-08-16_08h38.50.247,HF_wild_card,2022.2.4,Win32,60.11060351,6146f8473af59b2f858aa2f2,64d2fd46c836a06233681665,64dc7cf31a8da31a47b5d4a8,,,,,,,,,,,,,,,,,,,,,,,,,,,,,,,,,,,,,,,,,,,,,,,,,,,,,,,,,,,,,,,,
,,,,,,,,2023-08-16_08h38.50.247,HF_wild_card,2022.2.4,Win32,60.11060351,6146f8473af59b2f858aa2f2,64d2fd46c836a06233681665,64dc7cf31a8da31a47b5d4a8,,,,,,,,,,,,,,,,,,,,,,,,,,,,,,,,,,,,,,,,0,0,0,0,1,,,,,,,,,,,,,,,,,,,,
