Condition,Low fixed image (Door1),Low risky image (Door2),High fixed image (Door3),High risky image (Door4),Extreme Wild Card,NonExtreme Wild Card,,date,expName,psychopyVersion,OS,frameRate,PROLIFIC_PID,STUDY_ID,SESSION_ID,mouse_2.x,mouse_2.y,mouse_2.leftButton,mouse_2.midButton,mouse_2.rightButton,mouse_2.clicked_name,Trial Type,Left Option Image,Right Option Image,Chosen Door,mouse.x,mouse.y,mouse.leftButton,mouse.midButton,mouse.rightButton,mouse.time,mouse.clicked_name,Feedback,Cumulative Reward,Block,trial.thisRepN,trial.thisTrialN,trial.thisN,trial.thisIndex,trial.ran,blocks.thisRepN,blocks.thisTrialN,blocks.thisN,blocks.thisIndex,blocks.ran,Money conversion,First Outcome Reported,Shown Door (First Outcome),Displayed Image (First Outcome),outcomes.thisRepN,outcomes.thisTrialN,outcomes.thisN,outcomes.thisIndex,outcomes.ran,judgments.thisRepN,judgments.thisTrialN,judgments.thisN,judgments.thisIndex,judgments.ran,freqMouse.x,freqMouse.y,freqMouse.leftButton,freqMouse.midButton,freqMouse.rightButton,freqMouse.clicked_name,FQJ for first outcome,FQJ for second outcome,Shown Door,Displayed Image,trials.thisRepN,trials.thisTrialN,trials.thisN,trials.thisIndex,trials.ran,judgBlock.thisRepN,judgBlock.thisTrialN,judgBlock.thisN,judgBlock.thisIndex,judgBlock.ran
0,resources/DR.BMP,resources/DY.BMP,resources/DBN.BMP,resources/DP.BMP,resources/DG.BMP,resources/DB.BMP,,2023-08-16_08h38.41.640,HF_wild_card,2022.2.4,Win32,74.97938067,63e52eba784c6096179a9337,64d2fd46c836a06233681665,64dc7d2cfbb02c379c4e572f,,,,,,,,,,,,,,,,,,,,,,,,,,,,,,,,,,,,,,,,,,,,,,,,,,,,,,,,,,,,,,,,
,,,,,,,,2023-08-16_08h38.41.640,HF_wild_card,2022.2.4,Win32,74.97938067,63e52eba784c6096179a9337,64d2fd46c836a06233681665,64dc7d2cfbb02c379c4e572f,-0.011928429,-0.414512922,1,0,0,agree,,,,,,,,,,,,,,,,,,,,,,,,,,,,,,,,,,,,,,,,,,,,,,,,,,,,,,,,,,
,,,,,,,,2023-08-16_08h38.41.640,HF_wild_card,2022.2.4,Win32,74.97938067,63e52eba784c6096179a9337,64d2fd46c836a06233681665,64dc7d2cfbb02c379c4e572f,,,,,,,,,,,,,,,,,,,,,,,,,,,,,,,,,,,,,,,,,,,,,,,,,,,,,,,,,,,,,,,,
,,,,,,,,2023-08-16_08h38.41.640,HF_wild_card,2022.2.4,Win32,74.97938067,63e52eba784c6096179a9337,64d2fd46c836a06233681665,64dc7d2cfbb02c379c4e572f,,,,,,,decisionTrl,resources/DG.BMP,resources/DY.BMP,WildCard_Ex,-0.308151093,-0.148111332,1,0,0,2.4603,optionLeft,5,5,1,0,0,0,0,1,,,,,,,,,,,,,,,,,,,,,,,,,,,,,,,,,,,,,,,
,,,,,,,,2023-08-16_08h38.41.640,HF_wild_card,2022.2.4,Win32,74.97938067,63e52eba784c6096179a9337,64d2fd46c836a06233681665,64dc7d2cfbb02c379c4e572f,,,,,,,decisionTrl,resources/DG.BMP,resources/DBN.BMP,Door3,0.218687873,-0.002982107,1,0,0,1.8374,optionRight,70,75,1,1,0,1,0,1,,,,,,,,,,,,,,,,,,,,,,,,,,,,,,,,,,,,,,,
,,,,,,,,2023-08-16_08h38.41.640,HF_wild_card,2022.2.4,Win32,74.97938067,63e52eba784c6096179a9337,64d2fd46c836a06233681665,64dc7d2cfbb02c379c4e572f,,,,,,,sngl,resources/DBN.BMP,resources/Empty.png,Door3,-0.300198807,0.010934394,1,0,0,1.7178,optionLeft,70,145,1,2,0,2,0,1,,,,,,,,,,,,,,,,,,,,,,,,,,,,,,,,,,,,,,,
,,,,,,,,2023-08-16_08h38.41.640,HF_wild_card,2022.2.4,Win32,74.97938067,63e52eba784c6096179a9337,64d2fd46c836a06233681665,64dc7d2cfbb02c379c4e572f,,,,,,,decisionTrl,resources/DBN.BMP,resources/DP.BMP,Door4,0.27833002,-0.026838966,1,0,0,1.9046,optionRight,80,225,1,3,0,3,0,1,,,,,,,,,,,,,,,,,,,,,,,,,,,,,,,,,,,,,,,
,,,,,,,,2023-08-16_08h38.41.640,HF_wild_card,2022.2.4,Win32,74.97938067,63e52eba784c6096179a9337,64d2fd46c836a06233681665,64dc7d2cfbb02c379c4e572f,,,,,,,sngl,resources/DG.BMP,resources/Empty.png,WildCard_Ex,0.385685885,-0.020874751,1,0,0,1.9044,optionLeft,95,320,1,4,0,4,0,1,,,,,,,,,,,,,,,,,,,,,,,,,,,,,,,,,,,,,,,
,,,,,,,,2023-08-16_08h38.41.640,HF_wild_card,2022.2.4,Win32,74.97938067,63e52eba784c6096179a9337,64d2fd46c836a06233681665,64dc7d2cfbb02c379c4e572f,,,,,,,ctch,resources/DR.BMP,resources/DP.BMP,Door1,-0.375745527,-0.066600398,1,0,0,1.2374,optionLeft,30,350,1,5,0,5,0,1,,,,,,,,,,,,,,,,,,,,,,,,,,,,,,,,,,,,,,,
,,,,,,,,2023-08-16_08h38.41.640,HF_wild_card,2022.2.4,Win32,74.97938067,63e52eba784c6096179a9337,64d2fd46c836a06233681665,64dc7d2cfbb02c379c4e572f,,,,,,,decisionTrl,resources/DR.BMP,resources/DY.BMP,Door2,0.357852883,-0.040755467,1,0,0,1.0115,optionRight,20,370,1,6,0,6,0,1,,,,,,,,,,,,,,,,,,,,,,,,,,,,,,,,,,,,,,,
,,,,,,,,2023-08-16_08h38.41.640,HF_wild_card,2022.2.4,Win32,74.97938067,63e52eba784c6096179a9337,64d2fd46c836a06233681665,64dc7d2cfbb02c379c4e572f,,,,,,,ctch,resources/DBN.BMP,resources/DY.BMP,Door3,-0.401590457,-0.036779324,1,0,0,1.0642,optionLeft,70,440,1,7,0,7,0,1,,,,,,,,,,,,,,,,,,,,,,,,,,,,,,,,,,,,,,,
,,,,,,,,2023-08-16_08h38.41.640,HF_wild_card,2022.2.4,Win32,74.97938067,63e52eba784c6096179a9337,64d2fd46c836a06233681665,64dc7d2cfbb02c379c4e572f,,,,,,,sngl,resources/Empty.png,resources/DP.BMP,Door4,0.300198807,-0.048707753,1,0,0,0.9714,optionRight,60,500,1,8,0,8,0,1,,,,,,,,,,,,,,,,,,,,,,,,,,,,,,,,,,,,,,,
,,,,,,,,2023-08-16_08h38.41.640,HF_wild_card,2022.2.4,Win32,74.97938067,63e52eba784c6096179a9337,64d2fd46c836a06233681665,64dc7d2cfbb02c379c4e572f,,,,,,,ctch,resources/DY.BMP,resources/DBN.BMP,Door2,-0.330019881,-0.042743539,1,0,0,1.2914,optionLeft,20,520,1,9,0,9,0,1,,,,,,,,,,,,,,,,,,,,,,,,,,,,,,,,,,,,,,,
,,,,,,,,2023-08-16_08h38.41.640,HF_wild_card,2022.2.4,Win32,74.97938067,63e52eba784c6096179a9337,64d2fd46c836a06233681665,64dc7d2cfbb02c379c4e572f,,,,,,,decisionTrl,resources/DR.BMP,resources/DG.BMP,WildCard_Ex,0.288270378,-0.048707753,1,0,0,1.5981,optionRight,95,615,1,10,0,10,0,1,,,,,,,,,,,,,,,,,,,,,,,,,,,,,,,,,,,,,,,
,,,,,,,,2023-08-16_08h38.41.640,HF_wild_card,2022.2.4,Win32,74.97938067,63e52eba784c6096179a9337,64d2fd46c836a06233681665,64dc7d2cfbb02c379c4e572f,,,,,,,decisionTrl,resources/DY.BMP,resources/DR.BMP,Door1,0.318091451,-0.034791252,1,0,0,1.4108,optionRight,30,645,1,11,0,11,0,1,,,,,,,,,,,,,,,,,,,,,,,,,,,,,,,,,,,,,,,
,,,,,,,,2023-08-16_08h38.41.640,HF_wild_card,2022.2.4,Win32,74.97938067,63e52eba784c6096179a9337,64d2fd46c836a06233681665,64dc7d2cfbb02c379c4e572f,,,,,,,decisionTrl,resources/DG.BMP,resources/DR.BMP,WildCard_Ex,-0.469184891,-0.01888668,1,0,0,1.0107,optionLeft,5,650,1,12,0,12,0,1,,,,,,,,,,,,,,,,,,,,,,,,,,,,,,,,,,,,,,,
,,,,,,,,2023-08-16_08h38.41.640,HF_wild_card,2022.2.4,Win32,74.97938067,63e52eba784c6096179a9337,64d2fd46c836a06233681665,64dc7d2cfbb02c379c4e572f,,,,,,,decisionTrl,resources/DP.BMP,resources/DG.BMP,Door4,-0.298210736,-0.032803181,1,0,0,0.8375,optionLeft,60,710,1,13,0,13,0,1,,,,,,,,,,,,,,,,,,,,,,,,,,,,,,,,,,,,,,,
,,,,,,,,2023-08-16_08h38.41.640,HF_wild_card,2022.2.4,Win32,74.97938067,63e52eba784c6096179a9337,64d2fd46c836a06233681665,64dc7d2cfbb02c379c4e572f,,,,,,,ctch,resources/DR.BMP,resources/DP.BMP,Door4,0.335984095,-0.042743539,1,0,0,1.4775,optionRight,60,770,1,14,0,14,0,1,,,,,,,,,,,,,,,,,,,,,,,,,,,,,,,,,,,,,,,
,,,,,,,,2023-08-16_08h38.41.640,HF_wild_card,2022.2.4,Win32,74.97938067,63e52eba784c6096179a9337,64d2fd46c836a06233681665,64dc7d2cfbb02c379c4e572f,,,,,,,decisionTrl,resources/DY.BMP,resources/DR.BMP,Door1,0.369781312,-0.020874751,1,0,0,1.5449,optionRight,30,800,1,15,0,15,0,1,,,,,,,,,,,,,,,,,,,,,,,,,,,,,,,,,,,,,,,
,,,,,,,,2023-08-16_08h38.41.640,HF_wild_card,2022.2.4,Win32,74.97938067,63e52eba784c6096179a9337,64d2fd46c836a06233681665,64dc7d2cfbb02c379c4e572f,,,,,,,sngl,resources/DY.BMP,resources/Empty.png,Door2,-0.385685885,-0.030815109,1,0,0,1.0378,optionLeft,40,840,1,16,0,16,0,1,,,,,,,,,,,,,,,,,,,,,,,,,,,,,,,,,,,,,,,
,,,,,,,,2023-08-16_08h38.41.640,HF_wild_card,2022.2.4,Win32,74.97938067,63e52eba784c6096179a9337,64d2fd46c836a06233681665,64dc7d2cfbb02c379c4e572f,,,,,,,decisionTrl,resources/DG.BMP,resources/DP.BMP,Door4,0.335984095,-0.020874751,1,0,0,1.5575,optionRight,80,920,1,17,0,17,0,1,,,,,,,,,,,,,,,,,,,,,,,,,,,,,,,,,,,,,,,
,,,,,,,,2023-08-16_08h38.41.640,HF_wild_card,2022.2.4,Win32,74.97938067,63e52eba784c6096179a9337,64d2fd46c836a06233681665,64dc7d2cfbb02c379c4e572f,,,,,,,decisionTrl,resources/DR.BMP,resources/DY.BMP,Door1,-0.296222664,-0.020874751,1,0,0,1.3846,optionLeft,30,950,1,18,0,18,0,1,,,,,,,,,,,,,,,,,,,,,,,,,,,,,,,,,,,,,,,
,,,,,,,,2023-08-16_08h38.41.640,HF_wild_card,2022.2.4,Win32,74.97938067,63e52eba784c6096179a9337,64d2fd46c836a06233681665,64dc7d2cfbb02c379c4e572f,,,,,,,decisionTrl,resources/DBN.BMP,resources/DG.BMP,Door3,-0.24055666,0.028827038,1,0,0,2.0515,optionLeft,70,1020,1,19,0,19,0,1,,,,,,,,,,,,,,,,,,,,,,,,,,,,,,,,,,,,,,,
,,,,,,,,2023-08-16_08h38.41.640,HF_wild_card,2022.2.4,Win32,74.97938067,63e52eba784c6096179a9337,64d2fd46c836a06233681665,64dc7d2cfbb02c379c4e572f,,,,,,,decisionTrl,resources/DP.BMP,resources/DBN.BMP,Door3,0.389662028,0.026838966,1,0,0,2.1581,optionRight,70,1090,1,20,0,20,0,1,,,,,,,,,,,,,,,,,,,,,,,,,,,,,,,,,,,,,,,
,,,,,,,,2023-08-16_08h38.41.640,HF_wild_card,2022.2.4,Win32,74.97938067,63e52eba784c6096179a9337,64d2fd46c836a06233681665,64dc7d2cfbb02c379c4e572f,,,,,,,decisionTrl,resources/DR.BMP,resources/DY.BMP,Door1,-0.294234592,0.048707753,1,0,0,1.3309,optionLeft,30,1120,1,21,0,21,0,1,,,,,,,,,,,,,,,,,,,,,,,,,,,,,,,,,,,,,,,
,,,,,,,,2023-08-16_08h38.41.640,HF_wild_card,2022.2.4,Win32,74.97938067,63e52eba784c6096179a9337,64d2fd46c836a06233681665,64dc7d2cfbb02c379c4e572f,,,,,,,ctch,resources/DP.BMP,resources/DR.BMP,Door4,-0.328031809,-0.00695825,1,0,0,1.4648,optionLeft,60,1180,1,22,0,22,0,1,,,,,,,,,,,,,,,,,,,,,,,,,,,,,,,,,,,,,,,
,,,,,,,,2023-08-16_08h38.41.640,HF_wild_card,2022.2.4,Win32,74.97938067,63e52eba784c6096179a9337,64d2fd46c836a06233681665,64dc7d2cfbb02c379c4e572f,,,,,,,sngl,resources/DR.BMP,resources/Empty.png,Door1,-0.359840954,-0.028827038,1,0,0,1.0781,optionLeft,30,1210,1,23,0,23,0,1,,,,,,,,,,,,,,,,,,,,,,,,,,,,,,,,,,,,,,,
,,,,,,,,2023-08-16_08h38.41.640,HF_wild_card,2022.2.4,Win32,74.97938067,63e52eba784c6096179a9337,64d2fd46c836a06233681665,64dc7d2cfbb02c379c4e572f,,,,,,,decisionTrl,resources/DY.BMP,resources/DR.BMP,Door2,-0.343936382,0.032803181,1,0,0,1.3046,optionLeft,20,1230,1,24,0,24,0,1,,,,,,,,,,,,,,,,,,,,,,,,,,,,,,,,,,,,,,,
,,,,,,,,2023-08-16_08h38.41.640,HF_wild_card,2022.2.4,Win32,74.97938067,63e52eba784c6096179a9337,64d2fd46c836a06233681665,64dc7d2cfbb02c379c4e572f,,,,,,,decisionTrl,resources/DBN.BMP,resources/DP.BMP,Door4,0.469184891,0.022862823,1,0,0,1.1045,optionRight,80,1310,1,25,0,25,0,1,,,,,,,,,,,,,,,,,,,,,,,,,,,,,,,,,,,,,,,
,,,,,,,,2023-08-16_08h38.41.640,HF_wild_card,2022.2.4,Win32,74.97938067,63e52eba784c6096179a9337,64d2fd46c836a06233681665,64dc7d2cfbb02c379c4e572f,,,,,,,decisionTrl,resources/DBN.BMP,resources/DP.BMP,Door4,0.298210736,0.00695825,1,0,0,1.065,optionRight,80,1390,1,26,0,26,0,1,,,,,,,,,,,,,,,,,,,,,,,,,,,,,,,,,,,,,,,
,,,,,,,,2023-08-16_08h38.41.640,HF_wild_card,2022.2.4,Win32,74.97938067,63e52eba784c6096179a9337,64d2fd46c836a06233681665,64dc7d2cfbb02c379c4e572f,,,,,,,sngl,resources/DP.BMP,resources/Empty.png,Door4,-0.318091451,0.010934394,1,0,0,0.892,optionLeft,80,1470,1,27,0,27,0,1,,,,,,,,,,,,,,,,,,,,,,,,,,,,,,,,,,,,,,,
,,,,,,,,2023-08-16_08h38.41.640,HF_wild_card,2022.2.4,Win32,74.97938067,63e52eba784c6096179a9337,64d2fd46c836a06233681665,64dc7d2cfbb02c379c4e572f,,,,,,,decisionTrl,resources/DR.BMP,resources/DY.BMP,Door2,0.212723658,0.008946322,1,0,0,1.9448,optionRight,40,1510,1,28,0,28,0,1,,,,,,,,,,,,,,,,,,,,,,,,,,,,,,,,,,,,,,,
,,,,,,,,2023-08-16_08h38.41.640,HF_wild_card,2022.2.4,Win32,74.97938067,63e52eba784c6096179a9337,64d2fd46c836a06233681665,64dc7d2cfbb02c379c4e572f,,,,,,,decisionTrl,resources/DP.BMP,resources/DBN.BMP,Door3,0.250497018,0.024850895,1,0,0,1.1845,optionRight,70,1580,1,29,0,29,0,1,,,,,,,,,,,,,,,,,,,,,,,,,,,,,,,,,,,,,,,
,,,,,,,,2023-08-16_08h38.41.640,HF_wild_card,2022.2.4,Win32,74.97938067,63e52eba784c6096179a9337,64d2fd46c836a06233681665,64dc7d2cfbb02c379c4e572f,,,,,,,decisionTrl,resources/DP.BMP,resources/DBN.BMP,Door4,-0.306163022,0.014910537,1,0,0,1.0114,optionLeft,80,1660,1,30,0,30,0,1,,,,,,,,,,,,,,,,,,,,,,,,,,,,,,,,,,,,,,,
,,,,,,,,2023-08-16_08h38.41.640,HF_wild_card,2022.2.4,Win32,74.97938067,63e52eba784c6096179a9337,64d2fd46c836a06233681665,64dc7d2cfbb02c379c4e572f,,,,,,,decisionTrl,resources/DP.BMP,resources/DBN.BMP,Door4,-0.322067594,-0.012922465,1,0,0,0.6511,optionLeft,80,1740,1,31,0,31,0,1,,,,,,,,,,,,,,,,,,,,,,,,,,,,,,,,,,,,,,,
,,,,,,,,2023-08-16_08h38.41.640,HF_wild_card,2022.2.4,Win32,74.97938067,63e52eba784c6096179a9337,64d2fd46c836a06233681665,64dc7d2cfbb02c379c4e572f,,,,,,,decisionTrl,resources/DY.BMP,resources/DG.BMP,WildCard_Ex,0.467196819,0.016898608,1,0,0,1.6783,optionRight,5,1745,1,32,0,32,0,1,,,,,,,,,,,,,,,,,,,,,,,,,,,,,,,,,,,,,,,
,,,,,,,,2023-08-16_08h38.41.640,HF_wild_card,2022.2.4,Win32,74.97938067,63e52eba784c6096179a9337,64d2fd46c836a06233681665,64dc7d2cfbb02c379c4e572f,,,,,,,ctch,resources/DBN.BMP,resources/DY.BMP,Door2,0.339960239,0.014910537,1,0,0,1.2248,optionRight,40,1785,1,33,0,33,0,1,,,,,,,,,,,,,,,,,,,,,,,,,,,,,,,,,,,,,,,
,,,,,,,,2023-08-16_08h38.41.640,HF_wild_card,2022.2.4,Win32,74.97938067,63e52eba784c6096179a9337,64d2fd46c836a06233681665,64dc7d2cfbb02c379c4e572f,,,,,,,sngl,resources/Empty.png,resources/DG.BMP,WildCard_Ex,0.242544732,-0.020874751,1,0,0,0.8115,optionRight,95,1880,1,34,0,34,0,1,,,,,,,,,,,,,,,,,,,,,,,,,,,,,,,,,,,,,,,
,,,,,,,,2023-08-16_08h38.41.640,HF_wild_card,2022.2.4,Win32,74.97938067,63e52eba784c6096179a9337,64d2fd46c836a06233681665,64dc7d2cfbb02c379c4e572f,,,,,,,ctch,resources/DY.BMP,resources/DBN.BMP,Door3,0.256461233,0.022862823,1,0,0,1.7708,optionRight,70,1950,1,35,0,35,0,1,,,,,,,,,,,,,,,,,,,,,,,,,,,,,,,,,,,,,,,
,,,,,,,,2023-08-16_08h38.41.640,HF_wild_card,2022.2.4,Win32,74.97938067,63e52eba784c6096179a9337,64d2fd46c836a06233681665,64dc7d2cfbb02c379c4e572f,,,,,,,decisionTrl,resources/DBN.BMP,resources/DP.BMP,Door3,-0.222664016,0.038767396,1,0,0,2.3713,optionLeft,70,2020,1,36,0,36,0,1,,,,,,,,,,,,,,,,,,,,,,,,,,,,,,,,,,,,,,,
,,,,,,,,2023-08-16_08h38.41.640,HF_wild_card,2022.2.4,Win32,74.97938067,63e52eba784c6096179a9337,64d2fd46c836a06233681665,64dc7d2cfbb02c379c4e572f,,,,,,,ctch,resources/DP.BMP,resources/DR.BMP,Door4,-0.272365805,0.002982107,1,0,0,1.0646,optionLeft,60,2080,1,37,0,37,0,1,,,,,,,,,,,,,,,,,,,,,,,,,,,,,,,,,,,,,,,
,,,,,,,,2023-08-16_08h38.41.640,HF_wild_card,2022.2.4,Win32,74.97938067,63e52eba784c6096179a9337,64d2fd46c836a06233681665,64dc7d2cfbb02c379c4e572f,,,,,,,sngl,resources/Empty.png,resources/DBN.BMP,Door3,0.391650099,0.014910537,1,0,0,0.8514,optionRight,70,2150,1,38,0,38,0,1,,,,,,,,,,,,,,,,,,,,,,,,,,,,,,,,,,,,,,,
,,,,,,,,2023-08-16_08h38.41.640,HF_wild_card,2022.2.4,Win32,74.97938067,63e52eba784c6096179a9337,64d2fd46c836a06233681665,64dc7d2cfbb02c379c4e572f,,,,,,,sngl,resources/Empty.png,resources/DR.BMP,Door1,0.258449304,-0.01888668,1,0,0,0.7181,optionRight,30,2180,1,39,0,39,0,1,,,,,,,,,,,,,,,,,,,,,,,,,,,,,,,,,,,,,,,
,,,,,,,,2023-08-16_08h38.41.640,HF_wild_card,2022.2.4,Win32,74.97938067,63e52eba784c6096179a9337,64d2fd46c836a06233681665,64dc7d2cfbb02c379c4e572f,,,,,,,sngl,resources/Empty.png,resources/DY.BMP,Door2,0.236580517,-0.014910537,1,0,0,0.7318,optionRight,20,2200,1,40,0,40,0,1,,,,,,,,,,,,,,,,,,,,,,,,,,,,,,,,,,,,,,,
,,,,,,,,2023-08-16_08h38.41.640,HF_wild_card,2022.2.4,Win32,74.97938067,63e52eba784c6096179a9337,64d2fd46c836a06233681665,64dc7d2cfbb02c379c4e572f,,,,,,,sngl,resources/DG.BMP,resources/Empty.png,WildCard_Ex,-0.377733598,0.00695825,1,0,0,0.6908,optionLeft,5,2205,1,41,0,41,0,1,,,,,,,,,,,,,,,,,,,,,,,,,,,,,,,,,,,,,,,
,,,,,,,,2023-08-16_08h38.41.640,HF_wild_card,2022.2.4,Win32,74.97938067,63e52eba784c6096179a9337,64d2fd46c836a06233681665,64dc7d2cfbb02c379c4e572f,,,,,,,sngl,resources/Empty.png,resources/DG.BMP,WildCard_Ex,0.270377734,-0.054671968,1,0,0,1.4248,optionRight,5,2210,1,42,0,42,0,1,,,,,,,,,,,,,,,,,,,,,,,,,,,,,,,,,,,,,,,
,,,,,,,,2023-08-16_08h38.41.640,HF_wild_card,2022.2.4,Win32,74.97938067,63e52eba784c6096179a9337,64d2fd46c836a06233681665,64dc7d2cfbb02c379c4e572f,,,,,,,decisionTrl,resources/DY.BMP,resources/DR.BMP,Door2,-0.212723658,-0.008946322,1,0,0,2.6779,optionLeft,20,2230,1,43,0,43,0,1,,,,,,,,,,,,,,,,,,,,,,,,,,,,,,,,,,,,,,,
,,,,,,,,2023-08-16_08h38.41.640,HF_wild_card,2022.2.4,Win32,74.97938067,63e52eba784c6096179a9337,64d2fd46c836a06233681665,64dc7d2cfbb02c379c4e572f,,,,,,,,,,,,,,,,,,,,,,,,,,0,0,0,0,1,,,,,,,,,,,,,,,,,,,,,,,,,,,,,,,,,,
,,,,,,,,2023-08-16_08h38.41.640,HF_wild_card,2022.2.4,Win32,74.97938067,63e52eba784c6096179a9337,64d2fd46c836a06233681665,64dc7d2cfbb02c379c4e572f,,,,,,,sngl,resources/Empty.png,resources/DP.BMP,Door4,0.337972167,-0.104373757,1,0,0,0.5903,optionRight,80,2310,2,0,0,0,0,1,,,,,,,,,,,,,,,,,,,,,,,,,,,,,,,,,,,,,,,
,,,,,,,,2023-08-16_08h38.41.640,HF_wild_card,2022.2.4,Win32,74.97938067,63e52eba784c6096179a9337,64d2fd46c836a06233681665,64dc7d2cfbb02c379c4e572f,,,,,,,ctch,resources/DY.BMP,resources/DBN.BMP,Door3,0.26640159,0.002982107,1,0,0,0.7982,optionRight,70,2380,2,1,0,1,0,1,,,,,,,,,,,,,,,,,,,,,,,,,,,,,,,,,,,,,,,
,,,,,,,,2023-08-16_08h38.41.640,HF_wild_card,2022.2.4,Win32,74.97938067,63e52eba784c6096179a9337,64d2fd46c836a06233681665,64dc7d2cfbb02c379c4e572f,,,,,,,decisionTrl,resources/DY.BMP,resources/DG.BMP,Door2,-0.312127237,-0.020874751,1,0,0,0.6512,optionLeft,20,2400,2,2,0,2,0,1,,,,,,,,,,,,,,,,,,,,,,,,,,,,,,,,,,,,,,,
,,,,,,,,2023-08-16_08h38.41.640,HF_wild_card,2022.2.4,Win32,74.97938067,63e52eba784c6096179a9337,64d2fd46c836a06233681665,64dc7d2cfbb02c379c4e572f,,,,,,,decisionTrl,resources/DP.BMP,resources/DBN.BMP,Door4,-0.367793241,-0.020874751,1,0,0,0.999,optionLeft,80,2480,2,3,0,3,0,1,,,,,,,,,,,,,,,,,,,,,,,,,,,,,,,,,,,,,,,
,,,,,,,,2023-08-16_08h38.41.640,HF_wild_card,2022.2.4,Win32,74.97938067,63e52eba784c6096179a9337,64d2fd46c836a06233681665,64dc7d2cfbb02c379c4e572f,,,,,,,decisionTrl,resources/DBN.BMP,resources/DP.BMP,Door4,0.361829026,-0.010934394,1,0,0,0.6517,optionRight,80,2560,2,4,0,4,0,1,,,,,,,,,,,,,,,,,,,,,,,,,,,,,,,,,,,,,,,
,,,,,,,,2023-08-16_08h38.41.640,HF_wild_card,2022.2.4,Win32,74.97938067,63e52eba784c6096179a9337,64d2fd46c836a06233681665,64dc7d2cfbb02c379c4e572f,,,,,,,sngl,resources/DR.BMP,resources/Empty.png,Door1,-0.226640159,0.00695825,1,0,0,0.7448,optionLeft,30,2590,2,5,0,5,0,1,,,,,,,,,,,,,,,,,,,,,,,,,,,,,,,,,,,,,,,
,,,,,,,,2023-08-16_08h38.41.640,HF_wild_card,2022.2.4,Win32,74.97938067,63e52eba784c6096179a9337,64d2fd46c836a06233681665,64dc7d2cfbb02c379c4e572f,,,,,,,sngl,resources/DBN.BMP,resources/Empty.png,Door3,-0.276341948,-0.058648111,1,0,0,0.6109,optionLeft,70,2660,2,6,0,6,0,1,,,,,,,,,,,,,,,,,,,,,,,,,,,,,,,,,,,,,,,
,,,,,,,,2023-08-16_08h38.41.640,HF_wild_card,2022.2.4,Win32,74.97938067,63e52eba784c6096179a9337,64d2fd46c836a06233681665,64dc7d2cfbb02c379c4e572f,,,,,,,ctch,resources/DR.BMP,resources/DP.BMP,Door4,0.21471173,-0.022862823,1,0,0,0.5039,optionRight,60,2720,2,7,0,7,0,1,,,,,,,,,,,,,,,,,,,,,,,,,,,,,,,,,,,,,,,
,,,,,,,,2023-08-16_08h38.41.640,HF_wild_card,2022.2.4,Win32,74.97938067,63e52eba784c6096179a9337,64d2fd46c836a06233681665,64dc7d2cfbb02c379c4e572f,,,,,,,ctch,resources/DBN.BMP,resources/DY.BMP,Door3,-0.274353877,-0.002982107,1,0,0,0.9179,optionLeft,70,2790,2,8,0,8,0,1,,,,,,,,,,,,,,,,,,,,,,,,,,,,,,,,,,,,,,,
,,,,,,,,2023-08-16_08h38.41.640,HF_wild_card,2022.2.4,Win32,74.97938067,63e52eba784c6096179a9337,64d2fd46c836a06233681665,64dc7d2cfbb02c379c4e572f,,,,,,,sngl,resources/DP.BMP,resources/Empty.png,Door4,-0.2027833,-0.028827038,1,0,0,0.6114,optionLeft,60,2850,2,9,0,9,0,1,,,,,,,,,,,,,,,,,,,,,,,,,,,,,,,,,,,,,,,
,,,,,,,,2023-08-16_08h38.41.640,HF_wild_card,2022.2.4,Win32,74.97938067,63e52eba784c6096179a9337,64d2fd46c836a06233681665,64dc7d2cfbb02c379c4e572f,,,,,,,decisionTrl,resources/DP.BMP,resources/DBN.BMP,Door4,-0.260437376,-0.008946322,1,0,0,1.0516,optionLeft,60,2910,2,10,0,10,0,1,,,,,,,,,,,,,,,,,,,,,,,,,,,,,,,,,,,,,,,
,,,,,,,,2023-08-16_08h38.41.640,HF_wild_card,2022.2.4,Win32,74.97938067,63e52eba784c6096179a9337,64d2fd46c836a06233681665,64dc7d2cfbb02c379c4e572f,,,,,,,decisionTrl,resources/DG.BMP,resources/DBN.BMP,Door3,0.27833002,0.004970179,1,0,0,0.5715,optionRight,70,2980,2,11,0,11,0,1,,,,,,,,,,,,,,,,,,,,,,,,,,,,,,,,,,,,,,,
,,,,,,,,2023-08-16_08h38.41.640,HF_wild_card,2022.2.4,Win32,74.97938067,63e52eba784c6096179a9337,64d2fd46c836a06233681665,64dc7d2cfbb02c379c4e572f,,,,,,,decisionTrl,resources/DP.BMP,resources/DBN.BMP,Door3,0.332007952,0.014910537,1,0,0,0.5447,optionRight,70,3050,2,12,0,12,0,1,,,,,,,,,,,,,,,,,,,,,,,,,,,,,,,,,,,,,,,
,,,,,,,,2023-08-16_08h38.41.640,HF_wild_card,2022.2.4,Win32,74.97938067,63e52eba784c6096179a9337,64d2fd46c836a06233681665,64dc7d2cfbb02c379c4e572f,,,,,,,ctch,resources/DP.BMP,resources/DR.BMP,Door4,-0.264413519,0.032803181,1,0,0,1.506,optionLeft,80,3130,2,13,0,13,0,1,,,,,,,,,,,,,,,,,,,,,,,,,,,,,,,,,,,,,,,
,,,,,,,,2023-08-16_08h38.41.640,HF_wild_card,2022.2.4,Win32,74.97938067,63e52eba784c6096179a9337,64d2fd46c836a06233681665,64dc7d2cfbb02c379c4e572f,,,,,,,decisionTrl,resources/DG.BMP,resources/DP.BMP,Door4,0.312127237,-0.008946322,1,0,0,0.6504,optionRight,80,3210,2,14,0,14,0,1,,,,,,,,,,,,,,,,,,,,,,,,,,,,,,,,,,,,,,,
,,,,,,,,2023-08-16_08h38.41.640,HF_wild_card,2022.2.4,Win32,74.97938067,63e52eba784c6096179a9337,64d2fd46c836a06233681665,64dc7d2cfbb02c379c4e572f,,,,,,,sngl,resources/Empty.png,resources/DR.BMP,Door1,0.192842942,-0.004970179,1,0,0,0.638,optionRight,30,3240,2,15,0,15,0,1,,,,,,,,,,,,,,,,,,,,,,,,,,,,,,,,,,,,,,,
,,,,,,,,2023-08-16_08h38.41.640,HF_wild_card,2022.2.4,Win32,74.97938067,63e52eba784c6096179a9337,64d2fd46c836a06233681665,64dc7d2cfbb02c379c4e572f,,,,,,,sngl,resources/Empty.png,resources/DG.BMP,WildCard_Ex,0.355864811,0.042743539,1,0,0,0.5981,optionRight,5,3245,2,16,0,16,0,1,,,,,,,,,,,,,,,,,,,,,,,,,,,,,,,,,,,,,,,
,,,,,,,,2023-08-16_08h38.41.640,HF_wild_card,2022.2.4,Win32,74.97938067,63e52eba784c6096179a9337,64d2fd46c836a06233681665,64dc7d2cfbb02c379c4e572f,,,,,,,ctch,resources/DP.BMP,resources/DR.BMP,Door1,0.359840954,0.032803181,1,0,0,0.6645,optionRight,30,3275,2,17,0,17,0,1,,,,,,,,,,,,,,,,,,,,,,,,,,,,,,,,,,,,,,,
,,,,,,,,2023-08-16_08h38.41.640,HF_wild_card,2022.2.4,Win32,74.97938067,63e52eba784c6096179a9337,64d2fd46c836a06233681665,64dc7d2cfbb02c379c4e572f,,,,,,,decisionTrl,resources/DBN.BMP,resources/DP.BMP,Door4,0.254473161,0.014910537,1,0,0,0.6247,optionRight,80,3355,2,18,0,18,0,1,,,,,,,,,,,,,,,,,,,,,,,,,,,,,,,,,,,,,,,
,,,,,,,,2023-08-16_08h38.41.640,HF_wild_card,2022.2.4,Win32,74.97938067,63e52eba784c6096179a9337,64d2fd46c836a06233681665,64dc7d2cfbb02c379c4e572f,,,,,,,sngl,resources/Empty.png,resources/DG.BMP,WildCard_Ex,0.147117296,-0.030815109,1,0,0,0.825,optionRight,95,3450,2,19,0,19,0,1,,,,,,,,,,,,,,,,,,,,,,,,,,,,,,,,,,,,,,,
,,,,,,,,2023-08-16_08h38.41.640,HF_wild_card,2022.2.4,Win32,74.97938067,63e52eba784c6096179a9337,64d2fd46c836a06233681665,64dc7d2cfbb02c379c4e572f,,,,,,,decisionTrl,resources/DBN.BMP,resources/DP.BMP,Door4,0.087475149,-0.042743539,1,0,0,0.8915,optionRight,60,3510,2,20,0,20,0,1,,,,,,,,,,,,,,,,,,,,,,,,,,,,,,,,,,,,,,,
,,,,,,,,2023-08-16_08h38.41.640,HF_wild_card,2022.2.4,Win32,74.97938067,63e52eba784c6096179a9337,64d2fd46c836a06233681665,64dc7d2cfbb02c379c4e572f,,,,,,,sngl,resources/DG.BMP,resources/Empty.png,WildCard_Ex,-0.328031809,-0.000994036,1,0,0,0.6917,optionLeft,95,3605,2,21,0,21,0,1,,,,,,,,,,,,,,,,,,,,,,,,,,,,,,,,,,,,,,,
,,,,,,,,2023-08-16_08h38.41.640,HF_wild_card,2022.2.4,Win32,74.97938067,63e52eba784c6096179a9337,64d2fd46c836a06233681665,64dc7d2cfbb02c379c4e572f,,,,,,,decisionTrl,resources/DBN.BMP,resources/DG.BMP,WildCard_Ex,0.184890656,0.010934394,1,0,0,0.6513,optionRight,5,3610,2,22,0,22,0,1,,,,,,,,,,,,,,,,,,,,,,,,,,,,,,,,,,,,,,,
,,,,,,,,2023-08-16_08h38.41.640,HF_wild_card,2022.2.4,Win32,74.97938067,63e52eba784c6096179a9337,64d2fd46c836a06233681665,64dc7d2cfbb02c379c4e572f,,,,,,,decisionTrl,resources/DR.BMP,resources/DY.BMP,Door2,0.276341948,0.020874751,1,0,0,0.8645,optionRight,20,3630,2,23,0,23,0,1,,,,,,,,,,,,,,,,,,,,,,,,,,,,,,,,,,,,,,,
,,,,,,,,2023-08-16_08h38.41.640,HF_wild_card,2022.2.4,Win32,74.97938067,63e52eba784c6096179a9337,64d2fd46c836a06233681665,64dc7d2cfbb02c379c4e572f,,,,,,,decisionTrl,resources/DP.BMP,resources/DBN.BMP,Door4,-0.339960239,-0.012922465,1,0,0,0.5968,optionLeft,80,3710,2,24,0,24,0,1,,,,,,,,,,,,,,,,,,,,,,,,,,,,,,,,,,,,,,,
,,,,,,,,2023-08-16_08h38.41.640,HF_wild_card,2022.2.4,Win32,74.97938067,63e52eba784c6096179a9337,64d2fd46c836a06233681665,64dc7d2cfbb02c379c4e572f,,,,,,,decisionTrl,resources/DR.BMP,resources/DG.BMP,Door1,-0.222664016,0.016898608,1,0,0,0.8775,optionLeft,30,3740,2,25,0,25,0,1,,,,,,,,,,,,,,,,,,,,,,,,,,,,,,,,,,,,,,,
,,,,,,,,2023-08-16_08h38.41.640,HF_wild_card,2022.2.4,Win32,74.97938067,63e52eba784c6096179a9337,64d2fd46c836a06233681665,64dc7d2cfbb02c379c4e572f,,,,,,,sngl,resources/DG.BMP,resources/Empty.png,WildCard_Ex,-0.238568588,-0.00695825,1,0,0,0.6114,optionLeft,5,3745,2,26,0,26,0,1,,,,,,,,,,,,,,,,,,,,,,,,,,,,,,,,,,,,,,,
,,,,,,,,2023-08-16_08h38.41.640,HF_wild_card,2022.2.4,Win32,74.97938067,63e52eba784c6096179a9337,64d2fd46c836a06233681665,64dc7d2cfbb02c379c4e572f,,,,,,,decisionTrl,resources/DY.BMP,resources/DR.BMP,Door1,0.210735586,0.004970179,1,0,0,0.5713,optionRight,30,3775,2,27,0,27,0,1,,,,,,,,,,,,,,,,,,,,,,,,,,,,,,,,,,,,,,,
,,,,,,,,2023-08-16_08h38.41.640,HF_wild_card,2022.2.4,Win32,74.97938067,63e52eba784c6096179a9337,64d2fd46c836a06233681665,64dc7d2cfbb02c379c4e572f,,,,,,,decisionTrl,resources/DR.BMP,resources/DY.BMP,Door2,0.423459245,0.042743539,1,0,0,0.4912,optionRight,20,3795,2,28,0,28,0,1,,,,,,,,,,,,,,,,,,,,,,,,,,,,,,,,,,,,,,,
,,,,,,,,2023-08-16_08h38.41.640,HF_wild_card,2022.2.4,Win32,74.97938067,63e52eba784c6096179a9337,64d2fd46c836a06233681665,64dc7d2cfbb02c379c4e572f,,,,,,,decisionTrl,resources/DY.BMP,resources/DR.BMP,Door1,0.2027833,0.016898608,1,0,0,1.0913,optionRight,30,3825,2,29,0,29,0,1,,,,,,,,,,,,,,,,,,,,,,,,,,,,,,,,,,,,,,,
,,,,,,,,2023-08-16_08h38.41.640,HF_wild_card,2022.2.4,Win32,74.97938067,63e52eba784c6096179a9337,64d2fd46c836a06233681665,64dc7d2cfbb02c379c4e572f,,,,,,,decisionTrl,resources/DP.BMP,resources/DG.BMP,Door4,-0.401590457,0.080516899,1,0,0,1.0775,optionLeft,60,3885,2,30,0,30,0,1,,,,,,,,,,,,,,,,,,,,,,,,,,,,,,,,,,,,,,,
,,,,,,,,2023-08-16_08h38.41.640,HF_wild_card,2022.2.4,Win32,74.97938067,63e52eba784c6096179a9337,64d2fd46c836a06233681665,64dc7d2cfbb02c379c4e572f,,,,,,,sngl,resources/Empty.png,resources/DY.BMP,Door2,0.206759443,-0.00695825,1,0,0,0.5447,optionRight,40,3925,2,31,0,31,0,1,,,,,,,,,,,,,,,,,,,,,,,,,,,,,,,,,,,,,,,
,,,,,,,,2023-08-16_08h38.41.640,HF_wild_card,2022.2.4,Win32,74.97938067,63e52eba784c6096179a9337,64d2fd46c836a06233681665,64dc7d2cfbb02c379c4e572f,,,,,,,sngl,resources/DY.BMP,resources/Empty.png,Door2,-0.27833002,-0.020874751,1,0,0,0.598,optionLeft,20,3945,2,32,0,32,0,1,,,,,,,,,,,,,,,,,,,,,,,,,,,,,,,,,,,,,,,
,,,,,,,,2023-08-16_08h38.41.640,HF_wild_card,2022.2.4,Win32,74.97938067,63e52eba784c6096179a9337,64d2fd46c836a06233681665,64dc7d2cfbb02c379c4e572f,,,,,,,sngl,resources/Empty.png,resources/DBN.BMP,Door3,0.190854871,-0.012922465,1,0,0,0.5048,optionRight,70,4015,2,33,0,33,0,1,,,,,,,,,,,,,,,,,,,,,,,,,,,,,,,,,,,,,,,
,,,,,,,,2023-08-16_08h38.41.640,HF_wild_card,2022.2.4,Win32,74.97938067,63e52eba784c6096179a9337,64d2fd46c836a06233681665,64dc7d2cfbb02c379c4e572f,,,,,,,decisionTrl,resources/DG.BMP,resources/DR.BMP,Door1,0.161033797,-0.000994036,1,0,0,0.7448,optionRight,30,4045,2,34,0,34,0,1,,,,,,,,,,,,,,,,,,,,,,,,,,,,,,,,,,,,,,,
,,,,,,,,2023-08-16_08h38.41.640,HF_wild_card,2022.2.4,Win32,74.97938067,63e52eba784c6096179a9337,64d2fd46c836a06233681665,64dc7d2cfbb02c379c4e572f,,,,,,,decisionTrl,resources/DY.BMP,resources/DR.BMP,Door2,-0.250497018,-0.014910537,1,0,0,0.8648,optionLeft,20,4065,2,35,0,35,0,1,,,,,,,,,,,,,,,,,,,,,,,,,,,,,,,,,,,,,,,
,,,,,,,,2023-08-16_08h38.41.640,HF_wild_card,2022.2.4,Win32,74.97938067,63e52eba784c6096179a9337,64d2fd46c836a06233681665,64dc7d2cfbb02c379c4e572f,,,,,,,decisionTrl,resources/DBN.BMP,resources/DP.BMP,Door3,-0.200795229,0.080516899,1,0,0,0.9054,optionLeft,70,4135,2,36,0,36,0,1,,,,,,,,,,,,,,,,,,,,,,,,,,,,,,,,,,,,,,,
,,,,,,,,2023-08-16_08h38.41.640,HF_wild_card,2022.2.4,Win32,74.97938067,63e52eba784c6096179a9337,64d2fd46c836a06233681665,64dc7d2cfbb02c379c4e572f,,,,,,,ctch,resources/DR.BMP,resources/DP.BMP,Door4,0.190854871,0.004970179,1,0,0,0.6242,optionRight,80,4215,2,37,0,37,0,1,,,,,,,,,,,,,,,,,,,,,,,,,,,,,,,,,,,,,,,
,,,,,,,,2023-08-16_08h38.41.640,HF_wild_card,2022.2.4,Win32,74.97938067,63e52eba784c6096179a9337,64d2fd46c836a06233681665,64dc7d2cfbb02c379c4e572f,,,,,,,decisionTrl,resources/DG.BMP,resources/DY.BMP,WildCard_Ex,-0.224652087,0.042743539,1,0,0,0.6112,optionLeft,5,4220,2,38,0,38,0,1,,,,,,,,,,,,,,,,,,,,,,,,,,,,,,,,,,,,,,,
,,,,,,,,2023-08-16_08h38.41.640,HF_wild_card,2022.2.4,Win32,74.97938067,63e52eba784c6096179a9337,64d2fd46c836a06233681665,64dc7d2cfbb02c379c4e572f,,,,,,,decisionTrl,resources/DY.BMP,resources/DR.BMP,Door2,-0.182902584,0.028827038,1,0,0,0.5579,optionLeft,20,4240,2,39,0,39,0,1,,,,,,,,,,,,,,,,,,,,,,,,,,,,,,,,,,,,,,,
,,,,,,,,2023-08-16_08h38.41.640,HF_wild_card,2022.2.4,Win32,74.97938067,63e52eba784c6096179a9337,64d2fd46c836a06233681665,64dc7d2cfbb02c379c4e572f,,,,,,,ctch,resources/DBN.BMP,resources/DY.BMP,Door3,-0.210735586,0.078528827,1,0,0,0.9049,optionLeft,70,4310,2,40,0,40,0,1,,,,,,,,,,,,,,,,,,,,,,,,,,,,,,,,,,,,,,,
,,,,,,,,2023-08-16_08h38.41.640,HF_wild_card,2022.2.4,Win32,74.97938067,63e52eba784c6096179a9337,64d2fd46c836a06233681665,64dc7d2cfbb02c379c4e572f,,,,,,,ctch,resources/DY.BMP,resources/DBN.BMP,Door3,0.178926441,0.076540755,1,0,0,1.3313,optionRight,70,4380,2,41,0,41,0,1,,,,,,,,,,,,,,,,,,,,,,,,,,,,,,,,,,,,,,,
,,,,,,,,2023-08-16_08h38.41.640,HF_wild_card,2022.2.4,Win32,74.97938067,63e52eba784c6096179a9337,64d2fd46c836a06233681665,64dc7d2cfbb02c379c4e572f,,,,,,,decisionTrl,resources/DR.BMP,resources/DY.BMP,Door2,0.149105368,0.060636183,1,0,0,0.6911,optionRight,20,4400,2,42,0,42,0,1,,,,,,,,,,,,,,,,,,,,,,,,,,,,,,,,,,,,,,,
,,,,,,,,2023-08-16_08h38.41.640,HF_wild_card,2022.2.4,Win32,74.97938067,63e52eba784c6096179a9337,64d2fd46c836a06233681665,64dc7d2cfbb02c379c4e572f,,,,,,,decisionTrl,resources/DR.BMP,resources/DY.BMP,Door1,-0.248508946,0.070576541,1,0,0,0.585,optionLeft,30,4430,2,43,0,43,0,1,,,,,,,,,,,,,,,,,,,,,,,,,,,,,,,,,,,,,,,
,,,,,,,,2023-08-16_08h38.41.640,HF_wild_card,2022.2.4,Win32,74.97938067,63e52eba784c6096179a9337,64d2fd46c836a06233681665,64dc7d2cfbb02c379c4e572f,,,,,,,,,,,,,,,,,,,,,,,,,,1,0,1,0,1,,,,,,,,,,,,,,,,,,,,,,,,,,,,,,,,,,
,,,,,,,,2023-08-16_08h38.41.640,HF_wild_card,2022.2.4,Win32,74.97938067,63e52eba784c6096179a9337,64d2fd46c836a06233681665,64dc7d2cfbb02c379c4e572f,,,,,,,sngl,resources/DY.BMP,resources/Empty.png,Door2,-0.246520875,0.024850895,1,0,0,0.7504,optionLeft,40,4470,3,0,0,0,0,1,,,,,,,,,,,,,,,,,,,,,,,,,,,,,,,,,,,,,,,
,,,,,,,,2023-08-16_08h38.41.640,HF_wild_card,2022.2.4,Win32,74.97938067,63e52eba784c6096179a9337,64d2fd46c836a06233681665,64dc7d2cfbb02c379c4e572f,,,,,,,decisionTrl,resources/DBN.BMP,resources/DP.BMP,Door4,0.200795229,0.01888668,1,0,0,0.6649,optionRight,60,4530,3,1,0,1,0,1,,,,,,,,,,,,,,,,,,,,,,,,,,,,,,,,,,,,,,,
,,,,,,,,2023-08-16_08h38.41.640,HF_wild_card,2022.2.4,Win32,74.97938067,63e52eba784c6096179a9337,64d2fd46c836a06233681665,64dc7d2cfbb02c379c4e572f,,,,,,,ctch,resources/DBN.BMP,resources/DY.BMP,Door2,0.238568588,0.032803181,1,0,0,0.5181,optionRight,20,4550,3,2,0,2,0,1,,,,,,,,,,,,,,,,,,,,,,,,,,,,,,,,,,,,,,,
,,,,,,,,2023-08-16_08h38.41.640,HF_wild_card,2022.2.4,Win32,74.97938067,63e52eba784c6096179a9337,64d2fd46c836a06233681665,64dc7d2cfbb02c379c4e572f,,,,,,,decisionTrl,resources/DP.BMP,resources/DBN.BMP,Door3,0.268389662,0.05666004,1,0,0,0.5313,optionRight,70,4620,3,3,0,3,0,1,,,,,,,,,,,,,,,,,,,,,,,,,,,,,,,,,,,,,,,
,,,,,,,,2023-08-16_08h38.41.640,HF_wild_card,2022.2.4,Win32,74.97938067,63e52eba784c6096179a9337,64d2fd46c836a06233681665,64dc7d2cfbb02c379c4e572f,,,,,,,decisionTrl,resources/DBN.BMP,resources/DP.BMP,Door3,-0.252485089,-0.022862823,1,0,0,0.5573,optionLeft,70,4690,3,4,0,4,0,1,,,,,,,,,,,,,,,,,,,,,,,,,,,,,,,,,,,,,,,
,,,,,,,,2023-08-16_08h38.41.640,HF_wild_card,2022.2.4,Win32,74.97938067,63e52eba784c6096179a9337,64d2fd46c836a06233681665,64dc7d2cfbb02c379c4e572f,,,,,,,ctch,resources/DY.BMP,resources/DBN.BMP,Door3,0.119284294,-0.00695825,1,0,0,0.6781,optionRight,70,4760,3,5,0,5,0,1,,,,,,,,,,,,,,,,,,,,,,,,,,,,,,,,,,,,,,,
,,,,,,,,2023-08-16_08h38.41.640,HF_wild_card,2022.2.4,Win32,74.97938067,63e52eba784c6096179a9337,64d2fd46c836a06233681665,64dc7d2cfbb02c379c4e572f,,,,,,,decisionTrl,resources/DY.BMP,resources/DR.BMP,Door2,-0.170974155,0.020874751,1,0,0,1.3047,optionLeft,40,4800,3,6,0,6,0,1,,,,,,,,,,,,,,,,,,,,,,,,,,,,,,,,,,,,,,,
,,,,,,,,2023-08-16_08h38.41.640,HF_wild_card,2022.2.4,Win32,74.97938067,63e52eba784c6096179a9337,64d2fd46c836a06233681665,64dc7d2cfbb02c379c4e572f,,,,,,,ctch,resources/DP.BMP,resources/DR.BMP,Door4,-0.123260437,0.01888668,1,0,0,0.9713,optionLeft,80,4880,3,7,0,7,0,1,,,,,,,,,,,,,,,,,,,,,,,,,,,,,,,,,,,,,,,
,,,,,,,,2023-08-16_08h38.41.640,HF_wild_card,2022.2.4,Win32,74.97938067,63e52eba784c6096179a9337,64d2fd46c836a06233681665,64dc7d2cfbb02c379c4e572f,,,,,,,sngl,resources/DP.BMP,resources/Empty.png,Door4,-0.161033797,-0.014910537,1,0,0,0.6114,optionLeft,80,4960,3,8,0,8,0,1,,,,,,,,,,,,,,,,,,,,,,,,,,,,,,,,,,,,,,,
,,,,,,,,2023-08-16_08h38.41.640,HF_wild_card,2022.2.4,Win32,74.97938067,63e52eba784c6096179a9337,64d2fd46c836a06233681665,64dc7d2cfbb02c379c4e572f,,,,,,,decisionTrl,resources/DY.BMP,resources/DR.BMP,Door1,0.250497018,0.026838966,1,0,0,1.3581,optionRight,30,4990,3,9,0,9,0,1,,,,,,,,,,,,,,,,,,,,,,,,,,,,,,,,,,,,,,,
,,,,,,,,2023-08-16_08h38.41.640,HF_wild_card,2022.2.4,Win32,74.97938067,63e52eba784c6096179a9337,64d2fd46c836a06233681665,64dc7d2cfbb02c379c4e572f,,,,,,,sngl,resources/Empty.png,resources/DG.BMP,WildCard_Ex,0.166998012,0.016898608,1,0,0,0.6512,optionRight,5,4995,3,10,0,10,0,1,,,,,,,,,,,,,,,,,,,,,,,,,,,,,,,,,,,,,,,
,,,,,,,,2023-08-16_08h38.41.640,HF_wild_card,2022.2.4,Win32,74.97938067,63e52eba784c6096179a9337,64d2fd46c836a06233681665,64dc7d2cfbb02c379c4e572f,,,,,,,decisionTrl,resources/DR.BMP,resources/DY.BMP,Door1,-0.200795229,0.042743539,1,0,0,0.7181,optionLeft,30,5025,3,11,0,11,0,1,,,,,,,,,,,,,,,,,,,,,,,,,,,,,,,,,,,,,,,
,,,,,,,,2023-08-16_08h38.41.640,HF_wild_card,2022.2.4,Win32,74.97938067,63e52eba784c6096179a9337,64d2fd46c836a06233681665,64dc7d2cfbb02c379c4e572f,,,,,,,decisionTrl,resources/DR.BMP,resources/DG.BMP,Door1,-0.141153082,0.002982107,1,0,0,1.452,optionLeft,30,5055,3,12,0,12,0,1,,,,,,,,,,,,,,,,,,,,,,,,,,,,,,,,,,,,,,,
,,,,,,,,2023-08-16_08h38.41.640,HF_wild_card,2022.2.4,Win32,74.97938067,63e52eba784c6096179a9337,64d2fd46c836a06233681665,64dc7d2cfbb02c379c4e572f,,,,,,,decisionTrl,resources/DP.BMP,resources/DBN.BMP,Door3,0.230616302,0.020874751,1,0,0,0.8513,optionRight,70,5125,3,13,0,13,0,1,,,,,,,,,,,,,,,,,,,,,,,,,,,,,,,,,,,,,,,
,,,,,,,,2023-08-16_08h38.41.640,HF_wild_card,2022.2.4,Win32,74.97938067,63e52eba784c6096179a9337,64d2fd46c836a06233681665,64dc7d2cfbb02c379c4e572f,,,,,,,decisionTrl,resources/DY.BMP,resources/DR.BMP,Door2,-0.17693837,0.030815109,1,0,0,1.1318,optionLeft,20,5145,3,14,0,14,0,1,,,,,,,,,,,,,,,,,,,,,,,,,,,,,,,,,,,,,,,
,,,,,,,,2023-08-16_08h38.41.640,HF_wild_card,2022.2.4,Win32,74.97938067,63e52eba784c6096179a9337,64d2fd46c836a06233681665,64dc7d2cfbb02c379c4e572f,,,,,,,decisionTrl,resources/DP.BMP,resources/DBN.BMP,Door4,-0.157057654,0.004970179,1,0,0,0.9716,optionLeft,80,5225,3,15,0,15,0,1,,,,,,,,,,,,,,,,,,,,,,,,,,,,,,,,,,,,,,,
,,,,,,,,2023-08-16_08h38.41.640,HF_wild_card,2022.2.4,Win32,74.97938067,63e52eba784c6096179a9337,64d2fd46c836a06233681665,64dc7d2cfbb02c379c4e572f,,,,,,,sngl,resources/Empty.png,resources/DY.BMP,Door2,0.145129225,0.010934394,1,0,0,0.8374,optionRight,20,5245,3,16,0,16,0,1,,,,,,,,,,,,,,,,,,,,,,,,,,,,,,,,,,,,,,,
,,,,,,,,2023-08-16_08h38.41.640,HF_wild_card,2022.2.4,Win32,74.97938067,63e52eba784c6096179a9337,64d2fd46c836a06233681665,64dc7d2cfbb02c379c4e572f,,,,,,,decisionTrl,resources/DY.BMP,resources/DR.BMP,Door1,0.16500994,0.010934394,1,0,0,0.7977,optionRight,30,5275,3,17,0,17,0,1,,,,,,,,,,,,,,,,,,,,,,,,,,,,,,,,,,,,,,,
,,,,,,,,2023-08-16_08h38.41.640,HF_wild_card,2022.2.4,Win32,74.97938067,63e52eba784c6096179a9337,64d2fd46c836a06233681665,64dc7d2cfbb02c379c4e572f,,,,,,,decisionTrl,resources/DR.BMP,resources/DY.BMP,Door2,0.151093439,0.024850895,1,0,0,1.1446,optionRight,40,5315,3,18,0,18,0,1,,,,,,,,,,,,,,,,,,,,,,,,,,,,,,,,,,,,,,,
,,,,,,,,2023-08-16_08h38.41.640,HF_wild_card,2022.2.4,Win32,74.97938067,63e52eba784c6096179a9337,64d2fd46c836a06233681665,64dc7d2cfbb02c379c4e572f,,,,,,,decisionTrl,resources/DG.BMP,resources/DP.BMP,WildCard_Ex,-0.170974155,0.062624254,1,0,0,1.5579,optionLeft,5,5320,3,19,0,19,0,1,,,,,,,,,,,,,,,,,,,,,,,,,,,,,,,,,,,,,,,
,,,,,,,,2023-08-16_08h38.41.640,HF_wild_card,2022.2.4,Win32,74.97938067,63e52eba784c6096179a9337,64d2fd46c836a06233681665,64dc7d2cfbb02c379c4e572f,,,,,,,sngl,resources/DR.BMP,resources/Empty.png,Door1,-0.184890656,0.008946322,1,0,0,0.5578,optionLeft,30,5350,3,20,0,20,0,1,,,,,,,,,,,,,,,,,,,,,,,,,,,,,,,,,,,,,,,
,,,,,,,,2023-08-16_08h38.41.640,HF_wild_card,2022.2.4,Win32,74.97938067,63e52eba784c6096179a9337,64d2fd46c836a06233681665,64dc7d2cfbb02c379c4e572f,,,,,,,ctch,resources/DR.BMP,resources/DP.BMP,Door4,0.151093439,0.024850895,1,0,0,0.6251,optionRight,80,5430,3,21,0,21,0,1,,,,,,,,,,,,,,,,,,,,,,,,,,,,,,,,,,,,,,,
,,,,,,,,2023-08-16_08h38.41.640,HF_wild_card,2022.2.4,Win32,74.97938067,63e52eba784c6096179a9337,64d2fd46c836a06233681665,64dc7d2cfbb02c379c4e572f,,,,,,,decisionTrl,resources/DBN.BMP,resources/DG.BMP,Door3,-0.117296223,0.048707753,1,0,0,0.8247,optionLeft,70,5500,3,22,0,22,0,1,,,,,,,,,,,,,,,,,,,,,,,,,,,,,,,,,,,,,,,
,,,,,,,,2023-08-16_08h38.41.640,HF_wild_card,2022.2.4,Win32,74.97938067,63e52eba784c6096179a9337,64d2fd46c836a06233681665,64dc7d2cfbb02c379c4e572f,,,,,,,sngl,resources/DBN.BMP,resources/Empty.png,Door3,-0.159045726,0.014910537,1,0,0,0.598,optionLeft,70,5570,3,23,0,23,0,1,,,,,,,,,,,,,,,,,,,,,,,,,,,,,,,,,,,,,,,
,,,,,,,,2023-08-16_08h38.41.640,HF_wild_card,2022.2.4,Win32,74.97938067,63e52eba784c6096179a9337,64d2fd46c836a06233681665,64dc7d2cfbb02c379c4e572f,,,,,,,decisionTrl,resources/DP.BMP,resources/DBN.BMP,Door3,0.188866799,0.022862823,1,0,0,0.4918,optionRight,70,5640,3,24,0,24,0,1,,,,,,,,,,,,,,,,,,,,,,,,,,,,,,,,,,,,,,,
,,,,,,,,2023-08-16_08h38.41.640,HF_wild_card,2022.2.4,Win32,74.97938067,63e52eba784c6096179a9337,64d2fd46c836a06233681665,64dc7d2cfbb02c379c4e572f,,,,,,,decisionTrl,resources/DG.BMP,resources/DBN.BMP,Door3,0.226640159,0.052683897,1,0,0,0.5845,optionRight,70,5710,3,25,0,25,0,1,,,,,,,,,,,,,,,,,,,,,,,,,,,,,,,,,,,,,,,
,,,,,,,,2023-08-16_08h38.41.640,HF_wild_card,2022.2.4,Win32,74.97938067,63e52eba784c6096179a9337,64d2fd46c836a06233681665,64dc7d2cfbb02c379c4e572f,,,,,,,ctch,resources/DY.BMP,resources/DBN.BMP,Door3,0.224652087,0.062624254,1,0,0,0.5317,optionRight,70,5780,3,26,0,26,0,1,,,,,,,,,,,,,,,,,,,,,,,,,,,,,,,,,,,,,,,
,,,,,,,,2023-08-16_08h38.41.640,HF_wild_card,2022.2.4,Win32,74.97938067,63e52eba784c6096179a9337,64d2fd46c836a06233681665,64dc7d2cfbb02c379c4e572f,,,,,,,sngl,resources/DG.BMP,resources/Empty.png,WildCard_Ex,-0.085487078,0.002982107,1,0,0,0.7717,optionLeft,95,5875,3,27,0,27,0,1,,,,,,,,,,,,,,,,,,,,,,,,,,,,,,,,,,,,,,,
,,,,,,,,2023-08-16_08h38.41.640,HF_wild_card,2022.2.4,Win32,74.97938067,63e52eba784c6096179a9337,64d2fd46c836a06233681665,64dc7d2cfbb02c379c4e572f,,,,,,,decisionTrl,resources/DR.BMP,resources/DY.BMP,Door1,-0.170974155,0.062624254,1,0,0,1.7849,optionLeft,30,5905,3,28,0,28,0,1,,,,,,,,,,,,,,,,,,,,,,,,,,,,,,,,,,,,,,,
,,,,,,,,2023-08-16_08h38.41.640,HF_wild_card,2022.2.4,Win32,74.97938067,63e52eba784c6096179a9337,64d2fd46c836a06233681665,64dc7d2cfbb02c379c4e572f,,,,,,,decisionTrl,resources/DR.BMP,resources/DY.BMP,Door1,-0.21471173,0.042743539,1,0,0,0.6112,optionLeft,30,5935,3,29,0,29,0,1,,,,,,,,,,,,,,,,,,,,,,,,,,,,,,,,,,,,,,,
,,,,,,,,2023-08-16_08h38.41.640,HF_wild_card,2022.2.4,Win32,74.97938067,63e52eba784c6096179a9337,64d2fd46c836a06233681665,64dc7d2cfbb02c379c4e572f,,,,,,,decisionTrl,resources/DY.BMP,resources/DG.BMP,Door2,-0.170974155,0.026838966,1,0,0,1.4253,optionLeft,20,5955,3,30,0,30,0,1,,,,,,,,,,,,,,,,,,,,,,,,,,,,,,,,,,,,,,,
,,,,,,,,2023-08-16_08h38.41.640,HF_wild_card,2022.2.4,Win32,74.97938067,63e52eba784c6096179a9337,64d2fd46c836a06233681665,64dc7d2cfbb02c379c4e572f,,,,,,,ctch,resources/DBN.BMP,resources/DY.BMP,Door3,-0.220675944,0.05666004,1,0,0,0.7975,optionLeft,70,6025,3,31,0,31,0,1,,,,,,,,,,,,,,,,,,,,,,,,,,,,,,,,,,,,,,,
,,,,,,,,2023-08-16_08h38.41.640,HF_wild_card,2022.2.4,Win32,74.97938067,63e52eba784c6096179a9337,64d2fd46c836a06233681665,64dc7d2cfbb02c379c4e572f,,,,,,,sngl,resources/Empty.png,resources/DG.BMP,WildCard_Ex,0.145129225,0.060636183,1,0,0,0.7975,optionRight,95,6120,3,32,0,32,0,1,,,,,,,,,,,,,,,,,,,,,,,,,,,,,,,,,,,,,,,
,,,,,,,,2023-08-16_08h38.41.640,HF_wild_card,2022.2.4,Win32,74.97938067,63e52eba784c6096179a9337,64d2fd46c836a06233681665,64dc7d2cfbb02c379c4e572f,,,,,,,sngl,resources/Empty.png,resources/DR.BMP,Door1,0.147117296,0.004970179,1,0,0,0.6118,optionRight,30,6150,3,33,0,33,0,1,,,,,,,,,,,,,,,,,,,,,,,,,,,,,,,,,,,,,,,
,,,,,,,,2023-08-16_08h38.41.640,HF_wild_card,2022.2.4,Win32,74.97938067,63e52eba784c6096179a9337,64d2fd46c836a06233681665,64dc7d2cfbb02c379c4e572f,,,,,,,sngl,resources/DG.BMP,resources/Empty.png,WildCard_Ex,-0.204771372,-0.004970179,1,0,0,0.5981,optionLeft,5,6155,3,34,0,34,0,1,,,,,,,,,,,,,,,,,,,,,,,,,,,,,,,,,,,,,,,
,,,,,,,,2023-08-16_08h38.41.640,HF_wild_card,2022.2.4,Win32,74.97938067,63e52eba784c6096179a9337,64d2fd46c836a06233681665,64dc7d2cfbb02c379c4e572f,,,,,,,decisionTrl,resources/DP.BMP,resources/DG.BMP,WildCard_Ex,0.238568588,0.020874751,1,0,0,0.5449,optionRight,5,6160,3,35,0,35,0,1,,,,,,,,,,,,,,,,,,,,,,,,,,,,,,,,,,,,,,,
,,,,,,,,2023-08-16_08h38.41.640,HF_wild_card,2022.2.4,Win32,74.97938067,63e52eba784c6096179a9337,64d2fd46c836a06233681665,64dc7d2cfbb02c379c4e572f,,,,,,,decisionTrl,resources/DBN.BMP,resources/DP.BMP,Door3,-0.24055666,0.062624254,1,0,0,1.0247,optionLeft,70,6230,3,36,0,36,0,1,,,,,,,,,,,,,,,,,,,,,,,,,,,,,,,,,,,,,,,
,,,,,,,,2023-08-16_08h38.41.640,HF_wild_card,2022.2.4,Win32,74.97938067,63e52eba784c6096179a9337,64d2fd46c836a06233681665,64dc7d2cfbb02c379c4e572f,,,,,,,decisionTrl,resources/DG.BMP,resources/DY.BMP,Door2,0.184890656,-0.00695825,1,0,0,1.0382,optionRight,40,6270,3,37,0,37,0,1,,,,,,,,,,,,,,,,,,,,,,,,,,,,,,,,,,,,,,,
,,,,,,,,2023-08-16_08h38.41.640,HF_wild_card,2022.2.4,Win32,74.97938067,63e52eba784c6096179a9337,64d2fd46c836a06233681665,64dc7d2cfbb02c379c4e572f,,,,,,,sngl,resources/Empty.png,resources/DP.BMP,Door4,0.163021869,-0.016898608,1,0,0,0.5847,optionRight,60,6330,3,38,0,38,0,1,,,,,,,,,,,,,,,,,,,,,,,,,,,,,,,,,,,,,,,
,,,,,,,,2023-08-16_08h38.41.640,HF_wild_card,2022.2.4,Win32,74.97938067,63e52eba784c6096179a9337,64d2fd46c836a06233681665,64dc7d2cfbb02c379c4e572f,,,,,,,sngl,resources/Empty.png,resources/DBN.BMP,Door3,0.198807157,0.004970179,1,0,0,0.5983,optionRight,70,6400,3,39,0,39,0,1,,,,,,,,,,,,,,,,,,,,,,,,,,,,,,,,,,,,,,,
,,,,,,,,2023-08-16_08h38.41.640,HF_wild_card,2022.2.4,Win32,74.97938067,63e52eba784c6096179a9337,64d2fd46c836a06233681665,64dc7d2cfbb02c379c4e572f,,,,,,,ctch,resources/DP.BMP,resources/DR.BMP,Door4,-0.246520875,0.024850895,1,0,0,1.0648,optionLeft,60,6460,3,40,0,40,0,1,,,,,,,,,,,,,,,,,,,,,,,,,,,,,,,,,,,,,,,
,,,,,,,,2023-08-16_08h38.41.640,HF_wild_card,2022.2.4,Win32,74.97938067,63e52eba784c6096179a9337,64d2fd46c836a06233681665,64dc7d2cfbb02c379c4e572f,,,,,,,ctch,resources/DR.BMP,resources/DP.BMP,Door4,0.157057654,0.036779324,1,0,0,0.9444,optionRight,80,6540,3,41,0,41,0,1,,,,,,,,,,,,,,,,,,,,,,,,,,,,,,,,,,,,,,,
,,,,,,,,2023-08-16_08h38.41.640,HF_wild_card,2022.2.4,Win32,74.97938067,63e52eba784c6096179a9337,64d2fd46c836a06233681665,64dc7d2cfbb02c379c4e572f,,,,,,,decisionTrl,resources/DG.BMP,resources/DR.BMP,Door1,0.2027833,0.030815109,1,0,0,1.3448,optionRight,30,6570,3,42,0,42,0,1,,,,,,,,,,,,,,,,,,,,,,,,,,,,,,,,,,,,,,,
,,,,,,,,2023-08-16_08h38.41.640,HF_wild_card,2022.2.4,Win32,74.97938067,63e52eba784c6096179a9337,64d2fd46c836a06233681665,64dc7d2cfbb02c379c4e572f,,,,,,,decisionTrl,resources/DBN.BMP,resources/DP.BMP,Door3,-0.190854871,0.022862823,1,0,0,0.758,optionLeft,70,6640,3,43,0,43,0,1,,,,,,,,,,,,,,,,,,,,,,,,,,,,,,,,,,,,,,,
,,,,,,,,2023-08-16_08h38.41.640,HF_wild_card,2022.2.4,Win32,74.97938067,63e52eba784c6096179a9337,64d2fd46c836a06233681665,64dc7d2cfbb02c379c4e572f,,,,,,,,,,,,,,,,,,,,,,,,,,2,0,2,0,1,,,,,,,,,,,,,,,,,,,,,,,,,,,,,,,,,,
,,,,,,,,2023-08-16_08h38.41.640,HF_wild_card,2022.2.4,Win32,74.97938067,63e52eba784c6096179a9337,64d2fd46c836a06233681665,64dc7d2cfbb02c379c4e572f,,,,,,,sngl,resources/DP.BMP,resources/Empty.png,Door4,-0.591182365,-0.081162325,1,0,0,4.3921,optionLeft,60,6700,4,0,0,0,0,1,,,,,,,,,,,,,,,,,,,,,,,,,,,,,,,,,,,,,,,
,,,,,,,,2023-08-16_08h38.41.640,HF_wild_card,2022.2.4,Win32,74.97938067,63e52eba784c6096179a9337,64d2fd46c836a06233681665,64dc7d2cfbb02c379c4e572f,,,,,,,decisionTrl,resources/DR.BMP,resources/DB.BMP,WildCard_NonEx,0.268537074,-0.039078156,1,0,0,1.1496,optionRight,45,6745,4,1,0,1,0,1,,,,,,,,,,,,,,,,,,,,,,,,,,,,,,,,,,,,,,,
,,,,,,,,2023-08-16_08h38.41.640,HF_wild_card,2022.2.4,Win32,74.97938067,63e52eba784c6096179a9337,64d2fd46c836a06233681665,64dc7d2cfbb02c379c4e572f,,,,,,,decisionTrl,resources/DB.BMP,resources/DBN.BMP,Door3,0.170340681,-0.029058116,1,0,0,1.1318,optionRight,70,6815,4,2,0,2,0,1,,,,,,,,,,,,,,,,,,,,,,,,,,,,,,,,,,,,,,,
,,,,,,,,2023-08-16_08h38.41.640,HF_wild_card,2022.2.4,Win32,74.97938067,63e52eba784c6096179a9337,64d2fd46c836a06233681665,64dc7d2cfbb02c379c4e572f,,,,,,,decisionTrl,resources/DY.BMP,resources/DR.BMP,Door2,-0.256513026,-0.039078156,1,0,0,1.348,optionLeft,40,6855,4,3,0,3,0,1,,,,,,,,,,,,,,,,,,,,,,,,,,,,,,,,,,,,,,,
,,,,,,,,2023-08-16_08h38.41.640,HF_wild_card,2022.2.4,Win32,74.97938067,63e52eba784c6096179a9337,64d2fd46c836a06233681665,64dc7d2cfbb02c379c4e572f,,,,,,,decisionTrl,resources/DBN.BMP,resources/DP.BMP,Door4,0.206412826,-0.029058116,1,0,0,0.6017,optionRight,60,6915,4,4,0,4,0,1,,,,,,,,,,,,,,,,,,,,,,,,,,,,,,,,,,,,,,,
,,,,,,,,2023-08-16_08h38.41.640,HF_wild_card,2022.2.4,Win32,74.97938067,63e52eba784c6096179a9337,64d2fd46c836a06233681665,64dc7d2cfbb02c379c4e572f,,,,,,,sngl,resources/DB.BMP,resources/Empty.png,WildCard_NonEx,-0.216432866,-0.037074148,1,0,0,0.8247,optionLeft,45,6960,4,5,0,5,0,1,,,,,,,,,,,,,,,,,,,,,,,,,,,,,,,,,,,,,,,
,,,,,,,,2023-08-16_08h38.41.640,HF_wild_card,2022.2.4,Win32,74.97938067,63e52eba784c6096179a9337,64d2fd46c836a06233681665,64dc7d2cfbb02c379c4e572f,,,,,,,decisionTrl,resources/DB.BMP,resources/DP.BMP,Door4,0.146292585,-0.031062124,1,0,0,1.4116,optionRight,80,7040,4,6,0,6,0,1,,,,,,,,,,,,,,,,,,,,,,,,,,,,,,,,,,,,,,,
,,,,,,,,2023-08-16_08h38.41.640,HF_wild_card,2022.2.4,Win32,74.97938067,63e52eba784c6096179a9337,64d2fd46c836a06233681665,64dc7d2cfbb02c379c4e572f,,,,,,,sngl,resources/Empty.png,resources/DR.BMP,Door1,0.124248497,-0.043086172,1,0,0,0.7313,optionRight,30,7070,4,7,0,7,0,1,,,,,,,,,,,,,,,,,,,,,,,,,,,,,,,,,,,,,,,
,,,,,,,,2023-08-16_08h38.41.640,HF_wild_card,2022.2.4,Win32,74.97938067,63e52eba784c6096179a9337,64d2fd46c836a06233681665,64dc7d2cfbb02c379c4e572f,,,,,,,sngl,resources/Empty.png,resources/DB.BMP,WildCard_NonEx,0.130260521,-0.011022044,1,0,0,1.051,optionRight,45,7115,4,8,0,8,0,1,,,,,,,,,,,,,,,,,,,,,,,,,,,,,,,,,,,,,,,
,,,,,,,,2023-08-16_08h38.41.640,HF_wild_card,2022.2.4,Win32,74.97938067,63e52eba784c6096179a9337,64d2fd46c836a06233681665,64dc7d2cfbb02c379c4e572f,,,,,,,decisionTrl,resources/DBN.BMP,resources/DB.BMP,Door3,-0.296593186,-0.039078156,1,0,0,1.3846,optionLeft,70,7185,4,9,0,9,0,1,,,,,,,,,,,,,,,,,,,,,,,,,,,,,,,,,,,,,,,
,,,,,,,,2023-08-16_08h38.41.640,HF_wild_card,2022.2.4,Win32,74.97938067,63e52eba784c6096179a9337,64d2fd46c836a06233681665,64dc7d2cfbb02c379c4e572f,,,,,,,ctch,resources/DR.BMP,resources/DP.BMP,Door4,0.216432866,-0.029058116,1,0,0,1.4649,optionRight,80,7265,4,10,0,10,0,1,,,,,,,,,,,,,,,,,,,,,,,,,,,,,,,,,,,,,,,
,,,,,,,,2023-08-16_08h38.41.640,HF_wild_card,2022.2.4,Win32,74.97938067,63e52eba784c6096179a9337,64d2fd46c836a06233681665,64dc7d2cfbb02c379c4e572f,,,,,,,ctch,resources/DP.BMP,resources/DR.BMP,Door4,-0.248496994,-0.001002004,1,0,0,0.9049,optionLeft,80,7345,4,11,0,11,0,1,,,,,,,,,,,,,,,,,,,,,,,,,,,,,,,,,,,,,,,
,,,,,,,,2023-08-16_08h38.41.640,HF_wild_card,2022.2.4,Win32,74.97938067,63e52eba784c6096179a9337,64d2fd46c836a06233681665,64dc7d2cfbb02c379c4e572f,,,,,,,decisionTrl,resources/DP.BMP,resources/DBN.BMP,Door4,-0.182364729,-0.021042084,1,0,0,1.1316,optionLeft,60,7405,4,12,0,12,0,1,,,,,,,,,,,,,,,,,,,,,,,,,,,,,,,,,,,,,,,
,,,,,,,,2023-08-16_08h38.41.640,HF_wild_card,2022.2.4,Win32,74.97938067,63e52eba784c6096179a9337,64d2fd46c836a06233681665,64dc7d2cfbb02c379c4e572f,,,,,,,sngl,resources/Empty.png,resources/DB.BMP,WildCard_NonEx,0.148296593,-0.019038076,1,0,0,0.5578,optionRight,55,7460,4,13,0,13,0,1,,,,,,,,,,,,,,,,,,,,,,,,,,,,,,,,,,,,,,,
,,,,,,,,2023-08-16_08h38.41.640,HF_wild_card,2022.2.4,Win32,74.97938067,63e52eba784c6096179a9337,64d2fd46c836a06233681665,64dc7d2cfbb02c379c4e572f,,,,,,,sngl,resources/DB.BMP,resources/Empty.png,WildCard_NonEx,-0.214428858,-0.001002004,1,0,0,0.571,optionLeft,55,7515,4,14,0,14,0,1,,,,,,,,,,,,,,,,,,,,,,,,,,,,,,,,,,,,,,,
,,,,,,,,2023-08-16_08h38.41.640,HF_wild_card,2022.2.4,Win32,74.97938067,63e52eba784c6096179a9337,64d2fd46c836a06233681665,64dc7d2cfbb02c379c4e572f,,,,,,,ctch,resources/DBN.BMP,resources/DY.BMP,Door2,0.186372745,0.031062124,1,0,0,1.2822,optionRight,20,7535,4,15,0,15,0,1,,,,,,,,,,,,,,,,,,,,,,,,,,,,,,,,,,,,,,,
,,,,,,,,2023-08-16_08h38.41.640,HF_wild_card,2022.2.4,Win32,74.97938067,63e52eba784c6096179a9337,64d2fd46c836a06233681665,64dc7d2cfbb02c379c4e572f,,,,,,,decisionTrl,resources/DP.BMP,resources/DBN.BMP,Door4,-0.206412826,-0.009018036,1,0,0,0.8468,optionLeft,60,7595,4,16,0,16,0,1,,,,,,,,,,,,,,,,,,,,,,,,,,,,,,,,,,,,,,,
,,,,,,,,2023-08-16_08h38.41.640,HF_wild_card,2022.2.4,Win32,74.97938067,63e52eba784c6096179a9337,64d2fd46c836a06233681665,64dc7d2cfbb02c379c4e572f,,,,,,,decisionTrl,resources/DB.BMP,resources/DY.BMP,WildCard_NonEx,-0.156312625,0.01503006,1,0,0,1.1574,optionLeft,45,7640,4,17,0,17,0,1,,,,,,,,,,,,,,,,,,,,,,,,,,,,,,,,,,,,,,,
,,,,,,,,2023-08-16_08h38.41.640,HF_wild_card,2022.2.4,Win32,74.97938067,63e52eba784c6096179a9337,64d2fd46c836a06233681665,64dc7d2cfbb02c379c4e572f,,,,,,,decisionTrl,resources/DBN.BMP,resources/DP.BMP,Door3,-0.178356713,0.053106212,1,0,0,1.1183,optionLeft,70,7710,4,18,0,18,0,1,,,,,,,,,,,,,,,,,,,,,,,,,,,,,,,,,,,,,,,
,,,,,,,,2023-08-16_08h38.41.640,HF_wild_card,2022.2.4,Win32,74.97938067,63e52eba784c6096179a9337,64d2fd46c836a06233681665,64dc7d2cfbb02c379c4e572f,,,,,,,sngl,resources/Empty.png,resources/DP.BMP,Door4,0.138276553,0.01503006,1,0,0,0.6523,optionRight,80,7790,4,19,0,19,0,1,,,,,,,,,,,,,,,,,,,,,,,,,,,,,,,,,,,,,,,
,,,,,,,,2023-08-16_08h38.41.640,HF_wild_card,2022.2.4,Win32,74.97938067,63e52eba784c6096179a9337,64d2fd46c836a06233681665,64dc7d2cfbb02c379c4e572f,,,,,,,decisionTrl,resources/DBN.BMP,resources/DP.BMP,Door4,0.158316633,0.037074148,1,0,0,0.6216,optionRight,60,7850,4,20,0,20,0,1,,,,,,,,,,,,,,,,,,,,,,,,,,,,,,,,,,,,,,,
,,,,,,,,2023-08-16_08h38.41.640,HF_wild_card,2022.2.4,Win32,74.97938067,63e52eba784c6096179a9337,64d2fd46c836a06233681665,64dc7d2cfbb02c379c4e572f,,,,,,,ctch,resources/DY.BMP,resources/DBN.BMP,Door3,0.144288577,0.03507014,1,0,0,1.0949,optionRight,70,7920,4,21,0,21,0,1,,,,,,,,,,,,,,,,,,,,,,,,,,,,,,,,,,,,,,,
,,,,,,,,2023-08-16_08h38.41.640,HF_wild_card,2022.2.4,Win32,74.97938067,63e52eba784c6096179a9337,64d2fd46c836a06233681665,64dc7d2cfbb02c379c4e572f,,,,,,,ctch,resources/DY.BMP,resources/DBN.BMP,Door3,0.096192385,0.013026052,1,0,0,0.8125,optionRight,70,7990,4,22,0,22,0,1,,,,,,,,,,,,,,,,,,,,,,,,,,,,,,,,,,,,,,,
,,,,,,,,2023-08-16_08h38.41.640,HF_wild_card,2022.2.4,Win32,74.97938067,63e52eba784c6096179a9337,64d2fd46c836a06233681665,64dc7d2cfbb02c379c4e572f,,,,,,,ctch,resources/DP.BMP,resources/DR.BMP,Door4,-0.186372745,-0.009018036,1,0,0,1.2781,optionLeft,60,8050,4,23,0,23,0,1,,,,,,,,,,,,,,,,,,,,,,,,,,,,,,,,,,,,,,,
,,,,,,,,2023-08-16_08h38.41.640,HF_wild_card,2022.2.4,Win32,74.97938067,63e52eba784c6096179a9337,64d2fd46c836a06233681665,64dc7d2cfbb02c379c4e572f,,,,,,,decisionTrl,resources/DB.BMP,resources/DR.BMP,WildCard_NonEx,-0.178356713,0.017034068,1,0,0,0.958,optionLeft,55,8105,4,24,0,24,0,1,,,,,,,,,,,,,,,,,,,,,,,,,,,,,,,,,,,,,,,
,,,,,,,,2023-08-16_08h38.41.640,HF_wild_card,2022.2.4,Win32,74.97938067,63e52eba784c6096179a9337,64d2fd46c836a06233681665,64dc7d2cfbb02c379c4e572f,,,,,,,decisionTrl,resources/DY.BMP,resources/DB.BMP,WildCard_NonEx,0.20240481,0.007014028,1,0,0,0.5446,optionRight,45,8150,4,25,0,25,0,1,,,,,,,,,,,,,,,,,,,,,,,,,,,,,,,,,,,,,,,
,,,,,,,,2023-08-16_08h38.41.640,HF_wild_card,2022.2.4,Win32,74.97938067,63e52eba784c6096179a9337,64d2fd46c836a06233681665,64dc7d2cfbb02c379c4e572f,,,,,,,ctch,resources/DBN.BMP,resources/DY.BMP,Door3,-0.142284569,0.01503006,1,0,0,0.7975,optionLeft,70,8220,4,26,0,26,0,1,,,,,,,,,,,,,,,,,,,,,,,,,,,,,,,,,,,,,,,
,,,,,,,,2023-08-16_08h38.41.640,HF_wild_card,2022.2.4,Win32,74.97938067,63e52eba784c6096179a9337,64d2fd46c836a06233681665,64dc7d2cfbb02c379c4e572f,,,,,,,decisionTrl,resources/DR.BMP,resources/DY.BMP,Door1,-0.166332665,0.017034068,1,0,0,1.4115,optionLeft,30,8250,4,27,0,27,0,1,,,,,,,,,,,,,,,,,,,,,,,,,,,,,,,,,,,,,,,
,,,,,,,,2023-08-16_08h38.41.640,HF_wild_card,2022.2.4,Win32,74.97938067,63e52eba784c6096179a9337,64d2fd46c836a06233681665,64dc7d2cfbb02c379c4e572f,,,,,,,decisionTrl,resources/DP.BMP,resources/DBN.BMP,Door3,0.200400802,0.037074148,1,0,0,1.3849,optionRight,70,8320,4,28,0,28,0,1,,,,,,,,,,,,,,,,,,,,,,,,,,,,,,,,,,,,,,,
,,,,,,,,2023-08-16_08h38.41.640,HF_wild_card,2022.2.4,Win32,74.97938067,63e52eba784c6096179a9337,64d2fd46c836a06233681665,64dc7d2cfbb02c379c4e572f,,,,,,,sngl,resources/Empty.png,resources/DBN.BMP,Door3,0.112224449,0.013026052,1,0,0,0.5573,optionRight,70,8390,4,29,0,29,0,1,,,,,,,,,,,,,,,,,,,,,,,,,,,,,,,,,,,,,,,
,,,,,,,,2023-08-16_08h38.41.640,HF_wild_card,2022.2.4,Win32,74.97938067,63e52eba784c6096179a9337,64d2fd46c836a06233681665,64dc7d2cfbb02c379c4e572f,,,,,,,decisionTrl,resources/DBN.BMP,resources/DP.BMP,Door3,-0.180360721,0.033066132,1,0,0,0.5716,optionLeft,70,8460,4,30,0,30,0,1,,,,,,,,,,,,,,,,,,,,,,,,,,,,,,,,,,,,,,,
,,,,,,,,2023-08-16_08h38.41.640,HF_wild_card,2022.2.4,Win32,74.97938067,63e52eba784c6096179a9337,64d2fd46c836a06233681665,64dc7d2cfbb02c379c4e572f,,,,,,,sngl,resources/Empty.png,resources/DY.BMP,Door2,0.148296593,-0.009018036,1,0,0,0.611,optionRight,40,8500,4,31,0,31,0,1,,,,,,,,,,,,,,,,,,,,,,,,,,,,,,,,,,,,,,,
,,,,,,,,2023-08-16_08h38.41.640,HF_wild_card,2022.2.4,Win32,74.97938067,63e52eba784c6096179a9337,64d2fd46c836a06233681665,64dc7d2cfbb02c379c4e572f,,,,,,,decisionTrl,resources/DR.BMP,resources/DY.BMP,Door1,-0.268537074,0.031062124,1,0,0,0.6646,optionLeft,30,8530,4,32,0,32,0,1,,,,,,,,,,,,,,,,,,,,,,,,,,,,,,,,,,,,,,,
,,,,,,,,2023-08-16_08h38.41.640,HF_wild_card,2022.2.4,Win32,74.97938067,63e52eba784c6096179a9337,64d2fd46c836a06233681665,64dc7d2cfbb02c379c4e572f,,,,,,,decisionTrl,resources/DP.BMP,resources/DBN.BMP,Door3,0.184368737,0.057114228,1,0,0,1.5617,optionRight,70,8600,4,33,0,33,0,1,,,,,,,,,,,,,,,,,,,,,,,,,,,,,,,,,,,,,,,
,,,,,,,,2023-08-16_08h38.41.640,HF_wild_card,2022.2.4,Win32,74.97938067,63e52eba784c6096179a9337,64d2fd46c836a06233681665,64dc7d2cfbb02c379c4e572f,,,,,,,sngl,resources/DR.BMP,resources/Empty.png,Door1,-0.180360721,-0.033066132,1,0,0,0.7992,optionLeft,30,8630,4,34,0,34,0,1,,,,,,,,,,,,,,,,,,,,,,,,,,,,,,,,,,,,,,,
,,,,,,,,2023-08-16_08h38.41.640,HF_wild_card,2022.2.4,Win32,74.97938067,63e52eba784c6096179a9337,64d2fd46c836a06233681665,64dc7d2cfbb02c379c4e572f,,,,,,,decisionTrl,resources/DY.BMP,resources/DR.BMP,Door2,-0.166332665,0.019038076,1,0,0,0.7445,optionLeft,40,8670,4,35,0,35,0,1,,,,,,,,,,,,,,,,,,,,,,,,,,,,,,,,,,,,,,,
,,,,,,,,2023-08-16_08h38.41.640,HF_wild_card,2022.2.4,Win32,74.97938067,63e52eba784c6096179a9337,64d2fd46c836a06233681665,64dc7d2cfbb02c379c4e572f,,,,,,,decisionTrl,resources/DY.BMP,resources/DR.BMP,Door2,-0.168336673,0.011022044,1,0,0,0.5982,optionLeft,20,8690,4,36,0,36,0,1,,,,,,,,,,,,,,,,,,,,,,,,,,,,,,,,,,,,,,,
,,,,,,,,2023-08-16_08h38.41.640,HF_wild_card,2022.2.4,Win32,74.97938067,63e52eba784c6096179a9337,64d2fd46c836a06233681665,64dc7d2cfbb02c379c4e572f,,,,,,,sngl,resources/DBN.BMP,resources/Empty.png,Door3,-0.160320641,0.023046092,1,0,0,0.6111,optionLeft,70,8760,4,37,0,37,0,1,,,,,,,,,,,,,,,,,,,,,,,,,,,,,,,,,,,,,,,
,,,,,,,,2023-08-16_08h38.41.640,HF_wild_card,2022.2.4,Win32,74.97938067,63e52eba784c6096179a9337,64d2fd46c836a06233681665,64dc7d2cfbb02c379c4e572f,,,,,,,decisionTrl,resources/DR.BMP,resources/DY.BMP,Door1,-0.178356713,-0.011022044,1,0,0,1.1181,optionLeft,30,8790,4,38,0,38,0,1,,,,,,,,,,,,,,,,,,,,,,,,,,,,,,,,,,,,,,,
,,,,,,,,2023-08-16_08h38.41.640,HF_wild_card,2022.2.4,Win32,74.97938067,63e52eba784c6096179a9337,64d2fd46c836a06233681665,64dc7d2cfbb02c379c4e572f,,,,,,,decisionTrl,resources/DR.BMP,resources/DY.BMP,Door1,-0.184368737,-0.011022044,1,0,0,0.6383,optionLeft,30,8820,4,39,0,39,0,1,,,,,,,,,,,,,,,,,,,,,,,,,,,,,,,,,,,,,,,
,,,,,,,,2023-08-16_08h38.41.640,HF_wild_card,2022.2.4,Win32,74.97938067,63e52eba784c6096179a9337,64d2fd46c836a06233681665,64dc7d2cfbb02c379c4e572f,,,,,,,sngl,resources/DY.BMP,resources/Empty.png,Door2,-0.142284569,-0.037074148,1,0,0,0.7578,optionLeft,20,8840,4,40,0,40,0,1,,,,,,,,,,,,,,,,,,,,,,,,,,,,,,,,,,,,,,,
,,,,,,,,2023-08-16_08h38.41.640,HF_wild_card,2022.2.4,Win32,74.97938067,63e52eba784c6096179a9337,64d2fd46c836a06233681665,64dc7d2cfbb02c379c4e572f,,,,,,,decisionTrl,resources/DP.BMP,resources/DB.BMP,Door4,-0.200400802,0.03507014,1,0,0,1.865,optionLeft,60,8900,4,41,0,41,0,1,,,,,,,,,,,,,,,,,,,,,,,,,,,,,,,,,,,,,,,
,,,,,,,,2023-08-16_08h38.41.640,HF_wild_card,2022.2.4,Win32,74.97938067,63e52eba784c6096179a9337,64d2fd46c836a06233681665,64dc7d2cfbb02c379c4e572f,,,,,,,ctch,resources/DR.BMP,resources/DP.BMP,Door4,0.22244489,0.007014028,1,0,0,1.0915,optionRight,80,8980,4,42,0,42,0,1,,,,,,,,,,,,,,,,,,,,,,,,,,,,,,,,,,,,,,,
,,,,,,,,2023-08-16_08h38.41.640,HF_wild_card,2022.2.4,Win32,74.97938067,63e52eba784c6096179a9337,64d2fd46c836a06233681665,64dc7d2cfbb02c379c4e572f,,,,,,,decisionTrl,resources/DY.BMP,resources/DR.BMP,Door1,0.178356713,0.011022044,1,0,0,2.8121,optionRight,30,9010,4,43,0,43,0,1,,,,,,,,,,,,,,,,,,,,,,,,,,,,,,,,,,,,,,,
,,,,,,,,2023-08-16_08h38.41.640,HF_wild_card,2022.2.4,Win32,74.97938067,63e52eba784c6096179a9337,64d2fd46c836a06233681665,64dc7d2cfbb02c379c4e572f,,,,,,,,,,,,,,,,,,,,,,,,,,3,0,3,0,1,,,,,,,,,,,,,,,,,,,,,,,,,,,,,,,,,,
,,,,,,,,2023-08-16_08h38.41.640,HF_wild_card,2022.2.4,Win32,74.97938067,63e52eba784c6096179a9337,64d2fd46c836a06233681665,64dc7d2cfbb02c379c4e572f,,,,,,,ctch,resources/DY.BMP,resources/DBN.BMP,Door3,0.176119403,-0.092537313,1,0,0,1.582,optionRight,70,9080,5,0,0,0,0,1,,,,,,,,,,,,,,,,,,,,,,,,,,,,,,,,,,,,,,,
,,,,,,,,2023-08-16_08h38.41.640,HF_wild_card,2022.2.4,Win32,74.97938067,63e52eba784c6096179a9337,64d2fd46c836a06233681665,64dc7d2cfbb02c379c4e572f,,,,,,,decisionTrl,resources/DY.BMP,resources/DB.BMP,WildCard_NonEx,0.173134328,0.017910448,1,0,0,1.0781,optionRight,55,9135,5,1,0,1,0,1,,,,,,,,,,,,,,,,,,,,,,,,,,,,,,,,,,,,,,,
,,,,,,,,2023-08-16_08h38.41.640,HF_wild_card,2022.2.4,Win32,74.97938067,63e52eba784c6096179a9337,64d2fd46c836a06233681665,64dc7d2cfbb02c379c4e572f,,,,,,,sngl,resources/Empty.png,resources/DB.BMP,WildCard_NonEx,0.16119403,0.005970149,1,0,0,0.611,optionRight,55,9190,5,2,0,2,0,1,,,,,,,,,,,,,,,,,,,,,,,,,,,,,,,,,,,,,,,
,,,,,,,,2023-08-16_08h38.41.640,HF_wild_card,2022.2.4,Win32,74.97938067,63e52eba784c6096179a9337,64d2fd46c836a06233681665,64dc7d2cfbb02c379c4e572f,,,,,,,decisionTrl,resources/DBN.BMP,resources/DB.BMP,Door3,-0.311940299,0.019402985,1,0,0,0.8114,optionLeft,70,9260,5,3,0,3,0,1,,,,,,,,,,,,,,,,,,,,,,,,,,,,,,,,,,,,,,,
,,,,,,,,2023-08-16_08h38.41.640,HF_wild_card,2022.2.4,Win32,74.97938067,63e52eba784c6096179a9337,64d2fd46c836a06233681665,64dc7d2cfbb02c379c4e572f,,,,,,,decisionTrl,resources/DY.BMP,resources/DR.BMP,Door2,-0.219402985,0.005970149,1,0,0,1.3045,optionLeft,20,9280,5,4,0,4,0,1,,,,,,,,,,,,,,,,,,,,,,,,,,,,,,,,,,,,,,,
,,,,,,,,2023-08-16_08h38.41.640,HF_wild_card,2022.2.4,Win32,74.97938067,63e52eba784c6096179a9337,64d2fd46c836a06233681665,64dc7d2cfbb02c379c4e572f,,,,,,,decisionTrl,resources/DR.BMP,resources/DY.BMP,Door1,-0.182089552,-0.028358209,1,0,0,0.5711,optionLeft,30,9310,5,5,0,5,0,1,,,,,,,,,,,,,,,,,,,,,,,,,,,,,,,,,,,,,,,
,,,,,,,,2023-08-16_08h38.41.640,HF_wild_card,2022.2.4,Win32,74.97938067,63e52eba784c6096179a9337,64d2fd46c836a06233681665,64dc7d2cfbb02c379c4e572f,,,,,,,decisionTrl,resources/DY.BMP,resources/DR.BMP,Door1,0.226865672,0.008955224,1,0,0,0.5444,optionRight,30,9340,5,6,0,6,0,1,,,,,,,,,,,,,,,,,,,,,,,,,,,,,,,,,,,,,,,
,,,,,,,,2023-08-16_08h38.41.640,HF_wild_card,2022.2.4,Win32,74.97938067,63e52eba784c6096179a9337,64d2fd46c836a06233681665,64dc7d2cfbb02c379c4e572f,,,,,,,ctch,resources/DP.BMP,resources/DR.BMP,Door4,-0.232835821,-0.028358209,1,0,0,0.9309,optionLeft,60,9400,5,7,0,7,0,1,,,,,,,,,,,,,,,,,,,,,,,,,,,,,,,,,,,,,,,
,,,,,,,,2023-08-16_08h38.41.640,HF_wild_card,2022.2.4,Win32,74.97938067,63e52eba784c6096179a9337,64d2fd46c836a06233681665,64dc7d2cfbb02c379c4e572f,,,,,,,decisionTrl,resources/DY.BMP,resources/DR.BMP,Door1,0.23880597,-0.019402985,1,0,0,1.1178,optionRight,30,9430,5,8,0,8,0,1,,,,,,,,,,,,,,,,,,,,,,,,,,,,,,,,,,,,,,,
,,,,,,,,2023-08-16_08h38.41.640,HF_wild_card,2022.2.4,Win32,74.97938067,63e52eba784c6096179a9337,64d2fd46c836a06233681665,64dc7d2cfbb02c379c4e572f,,,,,,,decisionTrl,resources/DB.BMP,resources/DBN.BMP,Door3,0.185074627,-0.035820896,1,0,0,1.5181,optionRight,70,9500,5,9,0,9,0,1,,,,,,,,,,,,,,,,,,,,,,,,,,,,,,,,,,,,,,,
,,,,,,,,2023-08-16_08h38.41.640,HF_wild_card,2022.2.4,Win32,74.97938067,63e52eba784c6096179a9337,64d2fd46c836a06233681665,64dc7d2cfbb02c379c4e572f,,,,,,,decisionTrl,resources/DBN.BMP,resources/DP.BMP,Door3,-0.168656716,0.013432836,1,0,0,0.6643,optionLeft,70,9570,5,10,0,10,0,1,,,,,,,,,,,,,,,,,,,,,,,,,,,,,,,,,,,,,,,
,,,,,,,,2023-08-16_08h38.41.640,HF_wild_card,2022.2.4,Win32,74.97938067,63e52eba784c6096179a9337,64d2fd46c836a06233681665,64dc7d2cfbb02c379c4e572f,,,,,,,decisionTrl,resources/DP.BMP,resources/DBN.BMP,Door3,0.17761194,-0.005970149,1,0,0,1.3578,optionRight,70,9640,5,11,0,11,0,1,,,,,,,,,,,,,,,,,,,,,,,,,,,,,,,,,,,,,,,
,,,,,,,,2023-08-16_08h38.41.640,HF_wild_card,2022.2.4,Win32,74.97938067,63e52eba784c6096179a9337,64d2fd46c836a06233681665,64dc7d2cfbb02c379c4e572f,,,,,,,sngl,resources/Empty.png,resources/DB.BMP,WildCard_NonEx,0.134328358,0.002985075,1,0,0,0.7447,optionRight,45,9685,5,12,0,12,0,1,,,,,,,,,,,,,,,,,,,,,,,,,,,,,,,,,,,,,,,
,,,,,,,,2023-08-16_08h38.41.640,HF_wild_card,2022.2.4,Win32,74.97938067,63e52eba784c6096179a9337,64d2fd46c836a06233681665,64dc7d2cfbb02c379c4e572f,,,,,,,decisionTrl,resources/DB.BMP,resources/DY.BMP,WildCard_NonEx,-0.226865672,0.025373134,1,0,0,1.1978,optionLeft,55,9740,5,13,0,13,0,1,,,,,,,,,,,,,,,,,,,,,,,,,,,,,,,,,,,,,,,
,,,,,,,,2023-08-16_08h38.41.640,HF_wild_card,2022.2.4,Win32,74.97938067,63e52eba784c6096179a9337,64d2fd46c836a06233681665,64dc7d2cfbb02c379c4e572f,,,,,,,decisionTrl,resources/DP.BMP,resources/DBN.BMP,Door3,0.323880597,0.037313433,1,0,0,1.5453,optionRight,70,9810,5,14,0,14,0,1,,,,,,,,,,,,,,,,,,,,,,,,,,,,,,,,,,,,,,,
,,,,,,,,2023-08-16_08h38.41.640,HF_wild_card,2022.2.4,Win32,74.97938067,63e52eba784c6096179a9337,64d2fd46c836a06233681665,64dc7d2cfbb02c379c4e572f,,,,,,,ctch,resources/DBN.BMP,resources/DY.BMP,Door3,-0.262686567,0.01641791,1,0,0,0.5979,optionLeft,70,9880,5,15,0,15,0,1,,,,,,,,,,,,,,,,,,,,,,,,,,,,,,,,,,,,,,,
,,,,,,,,2023-08-16_08h38.41.640,HF_wild_card,2022.2.4,Win32,74.97938067,63e52eba784c6096179a9337,64d2fd46c836a06233681665,64dc7d2cfbb02c379c4e572f,,,,,,,decisionTrl,resources/DBN.BMP,resources/DP.BMP,Door3,-0.173134328,-0.025373134,1,0,0,0.5982,optionLeft,70,9950,5,16,0,16,0,1,,,,,,,,,,,,,,,,,,,,,,,,,,,,,,,,,,,,,,,
,,,,,,,,2023-08-16_08h38.41.640,HF_wild_card,2022.2.4,Win32,74.97938067,63e52eba784c6096179a9337,64d2fd46c836a06233681665,64dc7d2cfbb02c379c4e572f,,,,,,,ctch,resources/DR.BMP,resources/DP.BMP,Door4,0.241791045,-0.028358209,1,0,0,1.1049,optionRight,60,10010,5,17,0,17,0,1,,,,,,,,,,,,,,,,,,,,,,,,,,,,,,,,,,,,,,,
,,,,,,,,2023-08-16_08h38.41.640,HF_wild_card,2022.2.4,Win32,74.97938067,63e52eba784c6096179a9337,64d2fd46c836a06233681665,64dc7d2cfbb02c379c4e572f,,,,,,,sngl,resources/Empty.png,resources/DR.BMP,Door1,0.182089552,-0.017910448,1,0,0,0.5718,optionRight,30,10040,5,18,0,18,0,1,,,,,,,,,,,,,,,,,,,,,,,,,,,,,,,,,,,,,,,
,,,,,,,,2023-08-16_08h38.41.640,HF_wild_card,2022.2.4,Win32,74.97938067,63e52eba784c6096179a9337,64d2fd46c836a06233681665,64dc7d2cfbb02c379c4e572f,,,,,,,sngl,resources/Empty.png,resources/DBN.BMP,Door3,0.205970149,0.013432836,1,0,0,0.5983,optionRight,70,10110,5,19,0,19,0,1,,,,,,,,,,,,,,,,,,,,,,,,,,,,,,,,,,,,,,,
,,,,,,,,2023-08-16_08h38.41.640,HF_wild_card,2022.2.4,Win32,74.97938067,63e52eba784c6096179a9337,64d2fd46c836a06233681665,64dc7d2cfbb02c379c4e572f,,,,,,,decisionTrl,resources/DB.BMP,resources/DP.BMP,WildCard_NonEx,-0.211940299,0.002985075,1,0,0,2.0382,optionLeft,45,10155,5,20,0,20,0,1,,,,,,,,,,,,,,,,,,,,,,,,,,,,,,,,,,,,,,,
,,,,,,,,2023-08-16_08h38.41.640,HF_wild_card,2022.2.4,Win32,74.97938067,63e52eba784c6096179a9337,64d2fd46c836a06233681665,64dc7d2cfbb02c379c4e572f,,,,,,,sngl,resources/Empty.png,resources/DY.BMP,Door2,0.13880597,-0.034328358,1,0,0,0.9845,optionRight,20,10175,5,21,0,21,0,1,,,,,,,,,,,,,,,,,,,,,,,,,,,,,,,,,,,,,,,
,,,,,,,,2023-08-16_08h38.41.640,HF_wild_card,2022.2.4,Win32,74.97938067,63e52eba784c6096179a9337,64d2fd46c836a06233681665,64dc7d2cfbb02c379c4e572f,,,,,,,decisionTrl,resources/DP.BMP,resources/DBN.BMP,Door3,0.153731343,-0.002985075,1,0,0,1.1451,optionRight,70,10245,5,22,0,22,0,1,,,,,,,,,,,,,,,,,,,,,,,,,,,,,,,,,,,,,,,
,,,,,,,,2023-08-16_08h38.41.640,HF_wild_card,2022.2.4,Win32,74.97938067,63e52eba784c6096179a9337,64d2fd46c836a06233681665,64dc7d2cfbb02c379c4e572f,,,,,,,ctch,resources/DBN.BMP,resources/DY.BMP,Door3,-0.235820896,-0.062686567,1,0,0,0.5846,optionLeft,70,10315,5,23,0,23,0,1,,,,,,,,,,,,,,,,,,,,,,,,,,,,,,,,,,,,,,,
,,,,,,,,2023-08-16_08h38.41.640,HF_wild_card,2022.2.4,Win32,74.97938067,63e52eba784c6096179a9337,64d2fd46c836a06233681665,64dc7d2cfbb02c379c4e572f,,,,,,,decisionTrl,resources/DP.BMP,resources/DBN.BMP,Door3,0.174626866,-0.013432836,1,0,0,0.6116,optionRight,70,10385,5,24,0,24,0,1,,,,,,,,,,,,,,,,,,,,,,,,,,,,,,,,,,,,,,,
,,,,,,,,2023-08-16_08h38.41.640,HF_wild_card,2022.2.4,Win32,74.97938067,63e52eba784c6096179a9337,64d2fd46c836a06233681665,64dc7d2cfbb02c379c4e572f,,,,,,,sngl,resources/DP.BMP,resources/Empty.png,Door4,-0.164179104,-0.004477612,1,0,0,0.6248,optionLeft,80,10465,5,25,0,25,0,1,,,,,,,,,,,,,,,,,,,,,,,,,,,,,,,,,,,,,,,
,,,,,,,,2023-08-16_08h38.41.640,HF_wild_card,2022.2.4,Win32,74.97938067,63e52eba784c6096179a9337,64d2fd46c836a06233681665,64dc7d2cfbb02c379c4e572f,,,,,,,ctch,resources/DY.BMP,resources/DBN.BMP,Door3,0.21641791,0.005970149,1,0,0,0.5582,optionRight,70,10535,5,26,0,26,0,1,,,,,,,,,,,,,,,,,,,,,,,,,,,,,,,,,,,,,,,
,,,,,,,,2023-08-16_08h38.41.640,HF_wild_card,2022.2.4,Win32,74.97938067,63e52eba784c6096179a9337,64d2fd46c836a06233681665,64dc7d2cfbb02c379c4e572f,,,,,,,sngl,resources/DBN.BMP,resources/Empty.png,Door3,-0.291044776,-0.004477612,1,0,0,0.545,optionLeft,70,10605,5,27,0,27,0,1,,,,,,,,,,,,,,,,,,,,,,,,,,,,,,,,,,,,,,,
,,,,,,,,2023-08-16_08h38.41.640,HF_wild_card,2022.2.4,Win32,74.97938067,63e52eba784c6096179a9337,64d2fd46c836a06233681665,64dc7d2cfbb02c379c4e572f,,,,,,,decisionTrl,resources/DR.BMP,resources/DY.BMP,Door1,-0.164179104,-0.001492537,1,0,0,1.598,optionLeft,30,10635,5,28,0,28,0,1,,,,,,,,,,,,,,,,,,,,,,,,,,,,,,,,,,,,,,,
,,,,,,,,2023-08-16_08h38.41.640,HF_wild_card,2022.2.4,Win32,74.97938067,63e52eba784c6096179a9337,64d2fd46c836a06233681665,64dc7d2cfbb02c379c4e572f,,,,,,,decisionTrl,resources/DB.BMP,resources/DR.BMP,WildCard_NonEx,-0.240298507,0.014925373,1,0,0,0.8112,optionLeft,55,10690,5,29,0,29,0,1,,,,,,,,,,,,,,,,,,,,,,,,,,,,,,,,,,,,,,,
,,,,,,,,2023-08-16_08h38.41.640,HF_wild_card,2022.2.4,Win32,74.97938067,63e52eba784c6096179a9337,64d2fd46c836a06233681665,64dc7d2cfbb02c379c4e572f,,,,,,,sngl,resources/Empty.png,resources/DP.BMP,Door4,0.288059701,0.019402985,1,0,0,0.5179,optionRight,60,10750,5,30,0,30,0,1,,,,,,,,,,,,,,,,,,,,,,,,,,,,,,,,,,,,,,,
,,,,,,,,2023-08-16_08h38.41.640,HF_wild_card,2022.2.4,Win32,74.97938067,63e52eba784c6096179a9337,64d2fd46c836a06233681665,64dc7d2cfbb02c379c4e572f,,,,,,,decisionTrl,resources/DBN.BMP,resources/DP.BMP,Door3,-0.240298507,0.02238806,1,0,0,0.825,optionLeft,70,10820,5,31,0,31,0,1,,,,,,,,,,,,,,,,,,,,,,,,,,,,,,,,,,,,,,,
,,,,,,,,2023-08-16_08h38.41.640,HF_wild_card,2022.2.4,Win32,74.97938067,63e52eba784c6096179a9337,64d2fd46c836a06233681665,64dc7d2cfbb02c379c4e572f,,,,,,,decisionTrl,resources/DR.BMP,resources/DY.BMP,Door1,-0.208955224,-0.013432836,1,0,0,1.0383,optionLeft,30,10850,5,32,0,32,0,1,,,,,,,,,,,,,,,,,,,,,,,,,,,,,,,,,,,,,,,
,,,,,,,,2023-08-16_08h38.41.640,HF_wild_card,2022.2.4,Win32,74.97938067,63e52eba784c6096179a9337,64d2fd46c836a06233681665,64dc7d2cfbb02c379c4e572f,,,,,,,sngl,resources/DY.BMP,resources/Empty.png,Door2,-0.149253731,-0.011940299,1,0,0,1.1587,optionLeft,40,10890,5,33,0,33,0,1,,,,,,,,,,,,,,,,,,,,,,,,,,,,,,,,,,,,,,,
,,,,,,,,2023-08-16_08h38.41.640,HF_wild_card,2022.2.4,Win32,74.97938067,63e52eba784c6096179a9337,64d2fd46c836a06233681665,64dc7d2cfbb02c379c4e572f,,,,,,,ctch,resources/DR.BMP,resources/DP.BMP,Door4,0.234328358,0,1,0,0,0.723,optionRight,60,10950,5,34,0,34,0,1,,,,,,,,,,,,,,,,,,,,,,,,,,,,,,,,,,,,,,,
,,,,,,,,2023-08-16_08h38.41.640,HF_wild_card,2022.2.4,Win32,74.97938067,63e52eba784c6096179a9337,64d2fd46c836a06233681665,64dc7d2cfbb02c379c4e572f,,,,,,,decisionTrl,resources/DP.BMP,resources/DB.BMP,Door4,-0.231343284,0.004477612,1,0,0,0.5988,optionLeft,60,11010,5,35,0,35,0,1,,,,,,,,,,,,,,,,,,,,,,,,,,,,,,,,,,,,,,,
,,,,,,,,2023-08-16_08h38.41.640,HF_wild_card,2022.2.4,Win32,74.97938067,63e52eba784c6096179a9337,64d2fd46c836a06233681665,64dc7d2cfbb02c379c4e572f,,,,,,,sngl,resources/DR.BMP,resources/Empty.png,Door1,-0.21641791,0.019402985,1,0,0,0.7173,optionLeft,30,11040,5,36,0,36,0,1,,,,,,,,,,,,,,,,,,,,,,,,,,,,,,,,,,,,,,,
,,,,,,,,2023-08-16_08h38.41.640,HF_wild_card,2022.2.4,Win32,74.97938067,63e52eba784c6096179a9337,64d2fd46c836a06233681665,64dc7d2cfbb02c379c4e572f,,,,,,,decisionTrl,resources/DR.BMP,resources/DY.BMP,Door1,-0.253731343,0.010447761,1,0,0,1.1498,optionLeft,30,11070,5,37,0,37,0,1,,,,,,,,,,,,,,,,,,,,,,,,,,,,,,,,,,,,,,,
,,,,,,,,2023-08-16_08h38.41.640,HF_wild_card,2022.2.4,Win32,74.97938067,63e52eba784c6096179a9337,64d2fd46c836a06233681665,64dc7d2cfbb02c379c4e572f,,,,,,,decisionTrl,resources/DR.BMP,resources/DB.BMP,WildCard_NonEx,0.231343284,-0.001492537,1,0,0,0.6512,optionRight,55,11125,5,38,0,38,0,1,,,,,,,,,,,,,,,,,,,,,,,,,,,,,,,,,,,,,,,
,,,,,,,,2023-08-16_08h38.41.640,HF_wild_card,2022.2.4,Win32,74.97938067,63e52eba784c6096179a9337,64d2fd46c836a06233681665,64dc7d2cfbb02c379c4e572f,,,,,,,decisionTrl,resources/DBN.BMP,resources/DP.BMP,Door3,-0.250746269,-0.020895522,1,0,0,0.5321,optionLeft,70,11195,5,39,0,39,0,1,,,,,,,,,,,,,,,,,,,,,,,,,,,,,,,,,,,,,,,
,,,,,,,,2023-08-16_08h38.41.640,HF_wild_card,2022.2.4,Win32,74.97938067,63e52eba784c6096179a9337,64d2fd46c836a06233681665,64dc7d2cfbb02c379c4e572f,,,,,,,sngl,resources/DB.BMP,resources/Empty.png,WildCard_NonEx,-0.191044776,-0.023880597,1,0,0,0.7321,optionLeft,45,11240,5,40,0,40,0,1,,,,,,,,,,,,,,,,,,,,,,,,,,,,,,,,,,,,,,,
,,,,,,,,2023-08-16_08h38.41.640,HF_wild_card,2022.2.4,Win32,74.97938067,63e52eba784c6096179a9337,64d2fd46c836a06233681665,64dc7d2cfbb02c379c4e572f,,,,,,,ctch,resources/DP.BMP,resources/DR.BMP,Door4,-0.147761194,-0.004477612,1,0,0,0.6205,optionLeft,80,11320,5,41,0,41,0,1,,,,,,,,,,,,,,,,,,,,,,,,,,,,,,,,,,,,,,,
,,,,,,,,2023-08-16_08h38.41.640,HF_wild_card,2022.2.4,Win32,74.97938067,63e52eba784c6096179a9337,64d2fd46c836a06233681665,64dc7d2cfbb02c379c4e572f,,,,,,,sngl,resources/DB.BMP,resources/Empty.png,WildCard_NonEx,-0.149253731,-0.026865672,1,0,0,0.4782,optionLeft,55,11375,5,42,0,42,0,1,,,,,,,,,,,,,,,,,,,,,,,,,,,,,,,,,,,,,,,
,,,,,,,,2023-08-16_08h38.41.640,HF_wild_card,2022.2.4,Win32,74.97938067,63e52eba784c6096179a9337,64d2fd46c836a06233681665,64dc7d2cfbb02c379c4e572f,,,,,,,decisionTrl,resources/DY.BMP,resources/DR.BMP,Door1,0.22238806,0.013432836,1,0,0,1.4387,optionRight,30,11405,5,43,0,43,0,1,,,,,,,,,,,,,,,,,,,,,,,,,,,,,,,,,,,,,,,
,,,,,,,,2023-08-16_08h38.41.640,HF_wild_card,2022.2.4,Win32,74.97938067,63e52eba784c6096179a9337,64d2fd46c836a06233681665,64dc7d2cfbb02c379c4e572f,,,,,,,,,,,,,,,,,,,,,,,,,,4,0,4,0,1,,,,,,,,,,,,,,,,,,,,,,,,,,,,,,,,,,
,,,,,,,,2023-08-16_08h38.41.640,HF_wild_card,2022.2.4,Win32,74.97938067,63e52eba784c6096179a9337,64d2fd46c836a06233681665,64dc7d2cfbb02c379c4e572f,,,,,,,decisionTrl,resources/DB.BMP,resources/DBN.BMP,Door3,0.313432836,-0.052238806,1,0,0,0.7044,optionRight,70,11475,6,0,0,0,0,1,,,,,,,,,,,,,,,,,,,,,,,,,,,,,,,,,,,,,,,
,,,,,,,,2023-08-16_08h38.41.640,HF_wild_card,2022.2.4,Win32,74.97938067,63e52eba784c6096179a9337,64d2fd46c836a06233681665,64dc7d2cfbb02c379c4e572f,,,,,,,sngl,resources/Empty.png,resources/DB.BMP,WildCard_NonEx,0.226865672,-0.007462687,1,0,0,0.5453,optionRight,45,11520,6,1,0,1,0,1,,,,,,,,,,,,,,,,,,,,,,,,,,,,,,,,,,,,,,,
,,,,,,,,2023-08-16_08h38.41.640,HF_wild_card,2022.2.4,Win32,74.97938067,63e52eba784c6096179a9337,64d2fd46c836a06233681665,64dc7d2cfbb02c379c4e572f,,,,,,,decisionTrl,resources/DBN.BMP,resources/DP.BMP,Door3,-0.244776119,-0.007462687,1,0,0,0.5711,optionLeft,70,11590,6,2,0,2,0,1,,,,,,,,,,,,,,,,,,,,,,,,,,,,,,,,,,,,,,,
,,,,,,,,2023-08-16_08h38.41.640,HF_wild_card,2022.2.4,Win32,74.97938067,63e52eba784c6096179a9337,64d2fd46c836a06233681665,64dc7d2cfbb02c379c4e572f,,,,,,,decisionTrl,resources/DB.BMP,resources/DP.BMP,Door4,0.198507463,-0.005970149,1,0,0,1.0649,optionRight,60,11650,6,3,0,3,0,1,,,,,,,,,,,,,,,,,,,,,,,,,,,,,,,,,,,,,,,
,,,,,,,,2023-08-16_08h38.41.640,HF_wild_card,2022.2.4,Win32,74.97938067,63e52eba784c6096179a9337,64d2fd46c836a06233681665,64dc7d2cfbb02c379c4e572f,,,,,,,decisionTrl,resources/DBN.BMP,resources/DP.BMP,Door3,-0.255223881,-0.019402985,1,0,0,0.9048,optionLeft,70,11720,6,4,0,4,0,1,,,,,,,,,,,,,,,,,,,,,,,,,,,,,,,,,,,,,,,
,,,,,,,,2023-08-16_08h38.41.640,HF_wild_card,2022.2.4,Win32,74.97938067,63e52eba784c6096179a9337,64d2fd46c836a06233681665,64dc7d2cfbb02c379c4e572f,,,,,,,decisionTrl,resources/DR.BMP,resources/DY.BMP,Door1,-0.168656716,-0.001492537,1,0,0,0.7049,optionLeft,30,11750,6,5,0,5,0,1,,,,,,,,,,,,,,,,,,,,,,,,,,,,,,,,,,,,,,,
,,,,,,,,2023-08-16_08h38.41.640,HF_wild_card,2022.2.4,Win32,74.97938067,63e52eba784c6096179a9337,64d2fd46c836a06233681665,64dc7d2cfbb02c379c4e572f,,,,,,,sngl,resources/Empty.png,resources/DBN.BMP,Door3,0.18358209,-0.023880597,1,0,0,0.5584,optionRight,70,11820,6,6,0,6,0,1,,,,,,,,,,,,,,,,,,,,,,,,,,,,,,,,,,,,,,,
,,,,,,,,2023-08-16_08h38.41.640,HF_wild_card,2022.2.4,Win32,74.97938067,63e52eba784c6096179a9337,64d2fd46c836a06233681665,64dc7d2cfbb02c379c4e572f,,,,,,,sngl,resources/DB.BMP,resources/Empty.png,WildCard_NonEx,-0.144776119,-0.004477612,1,0,0,0.5981,optionLeft,55,11875,6,7,0,7,0,1,,,,,,,,,,,,,,,,,,,,,,,,,,,,,,,,,,,,,,,
,,,,,,,,2023-08-16_08h38.41.640,HF_wild_card,2022.2.4,Win32,74.97938067,63e52eba784c6096179a9337,64d2fd46c836a06233681665,64dc7d2cfbb02c379c4e572f,,,,,,,decisionTrl,resources/DR.BMP,resources/DY.BMP,Door2,0.253731343,0.010447761,1,0,0,1.1049,optionRight,40,11915,6,8,0,8,0,1,,,,,,,,,,,,,,,,,,,,,,,,,,,,,,,,,,,,,,,
,,,,,,,,2023-08-16_08h38.41.640,HF_wild_card,2022.2.4,Win32,74.97938067,63e52eba784c6096179a9337,64d2fd46c836a06233681665,64dc7d2cfbb02c379c4e572f,,,,,,,decisionTrl,resources/DR.BMP,resources/DY.BMP,Door2,0.259701493,0.029850746,1,0,0,0.6116,optionRight,20,11935,6,9,0,9,0,1,,,,,,,,,,,,,,,,,,,,,,,,,,,,,,,,,,,,,,,
,,,,,,,,2023-08-16_08h38.41.640,HF_wild_card,2022.2.4,Win32,74.97938067,63e52eba784c6096179a9337,64d2fd46c836a06233681665,64dc7d2cfbb02c379c4e572f,,,,,,,ctch,resources/DBN.BMP,resources/DY.BMP,Door3,-0.249253731,-0.032835821,1,0,0,0.7049,optionLeft,70,12005,6,10,0,10,0,1,,,,,,,,,,,,,,,,,,,,,,,,,,,,,,,,,,,,,,,
,,,,,,,,2023-08-16_08h38.41.640,HF_wild_card,2022.2.4,Win32,74.97938067,63e52eba784c6096179a9337,64d2fd46c836a06233681665,64dc7d2cfbb02c379c4e572f,,,,,,,decisionTrl,resources/DBN.BMP,resources/DP.BMP,Door3,-0.226865672,-0.002985075,1,0,0,0.5441,optionLeft,70,12075,6,11,0,11,0,1,,,,,,,,,,,,,,,,,,,,,,,,,,,,,,,,,,,,,,,
,,,,,,,,2023-08-16_08h38.41.640,HF_wild_card,2022.2.4,Win32,74.97938067,63e52eba784c6096179a9337,64d2fd46c836a06233681665,64dc7d2cfbb02c379c4e572f,,,,,,,decisionTrl,resources/DB.BMP,resources/DR.BMP,WildCard_NonEx,-0.259701493,0.011940299,1,0,0,1.451,optionLeft,55,12130,6,12,0,12,0,1,,,,,,,,,,,,,,,,,,,,,,,,,,,,,,,,,,,,,,,
,,,,,,,,2023-08-16_08h38.41.640,HF_wild_card,2022.2.4,Win32,74.97938067,63e52eba784c6096179a9337,64d2fd46c836a06233681665,64dc7d2cfbb02c379c4e572f,,,,,,,decisionTrl,resources/DY.BMP,resources/DR.BMP,Door1,0.289552239,0.032835821,1,0,0,0.9183,optionRight,30,12160,6,13,0,13,0,1,,,,,,,,,,,,,,,,,,,,,,,,,,,,,,,,,,,,,,,
,,,,,,,,2023-08-16_08h38.41.640,HF_wild_card,2022.2.4,Win32,74.97938067,63e52eba784c6096179a9337,64d2fd46c836a06233681665,64dc7d2cfbb02c379c4e572f,,,,,,,sngl,resources/Empty.png,resources/DY.BMP,Door2,0.176119403,0,1,0,0,0.6248,optionRight,40,12200,6,14,0,14,0,1,,,,,,,,,,,,,,,,,,,,,,,,,,,,,,,,,,,,,,,
,,,,,,,,2023-08-16_08h38.41.640,HF_wild_card,2022.2.4,Win32,74.97938067,63e52eba784c6096179a9337,64d2fd46c836a06233681665,64dc7d2cfbb02c379c4e572f,,,,,,,sngl,resources/Empty.png,resources/DB.BMP,WildCard_NonEx,0.156716418,0.010447761,1,0,0,0.5584,optionRight,55,12255,6,15,0,15,0,1,,,,,,,,,,,,,,,,,,,,,,,,,,,,,,,,,,,,,,,
,,,,,,,,2023-08-16_08h38.41.640,HF_wild_card,2022.2.4,Win32,74.97938067,63e52eba784c6096179a9337,64d2fd46c836a06233681665,64dc7d2cfbb02c379c4e572f,,,,,,,decisionTrl,resources/DY.BMP,resources/DB.BMP,Door2,-0.256716418,-0.019402985,1,0,0,0.6248,optionLeft,20,12275,6,16,0,16,0,1,,,,,,,,,,,,,,,,,,,,,,,,,,,,,,,,,,,,,,,
,,,,,,,,2023-08-16_08h38.41.640,HF_wild_card,2022.2.4,Win32,74.97938067,63e52eba784c6096179a9337,64d2fd46c836a06233681665,64dc7d2cfbb02c379c4e572f,,,,,,,sngl,resources/DB.BMP,resources/Empty.png,WildCard_NonEx,-0.162686567,-0.029850746,1,0,0,0.6783,optionLeft,45,12320,6,17,0,17,0,1,,,,,,,,,,,,,,,,,,,,,,,,,,,,,,,,,,,,,,,
,,,,,,,,2023-08-16_08h38.41.640,HF_wild_card,2022.2.4,Win32,74.97938067,63e52eba784c6096179a9337,64d2fd46c836a06233681665,64dc7d2cfbb02c379c4e572f,,,,,,,decisionTrl,resources/DY.BMP,resources/DR.BMP,Door1,0.295522388,0.037313433,1,0,0,1.1581,optionRight,30,12350,6,18,0,18,0,1,,,,,,,,,,,,,,,,,,,,,,,,,,,,,,,,,,,,,,,
,,,,,,,,2023-08-16_08h38.41.640,HF_wild_card,2022.2.4,Win32,74.97938067,63e52eba784c6096179a9337,64d2fd46c836a06233681665,64dc7d2cfbb02c379c4e572f,,,,,,,decisionTrl,resources/DP.BMP,resources/DBN.BMP,Door3,0.437313433,0.041791045,1,0,0,1.198,optionRight,70,12420,6,19,0,19,0,1,,,,,,,,,,,,,,,,,,,,,,,,,,,,,,,,,,,,,,,
,,,,,,,,2023-08-16_08h38.41.640,HF_wild_card,2022.2.4,Win32,74.97938067,63e52eba784c6096179a9337,64d2fd46c836a06233681665,64dc7d2cfbb02c379c4e572f,,,,,,,sngl,resources/DY.BMP,resources/Empty.png,Door2,-0.150746269,-0.020895522,1,0,0,0.771,optionLeft,20,12440,6,20,0,20,0,1,,,,,,,,,,,,,,,,,,,,,,,,,,,,,,,,,,,,,,,
,,,,,,,,2023-08-16_08h38.41.640,HF_wild_card,2022.2.4,Win32,74.97938067,63e52eba784c6096179a9337,64d2fd46c836a06233681665,64dc7d2cfbb02c379c4e572f,,,,,,,sngl,resources/DR.BMP,resources/Empty.png,Door1,-0.210447761,-0.004477612,1,0,0,0.638,optionLeft,30,12470,6,21,0,21,0,1,,,,,,,,,,,,,,,,,,,,,,,,,,,,,,,,,,,,,,,
,,,,,,,,2023-08-16_08h38.41.640,HF_wild_card,2022.2.4,Win32,74.97938067,63e52eba784c6096179a9337,64d2fd46c836a06233681665,64dc7d2cfbb02c379c4e572f,,,,,,,ctch,resources/DP.BMP,resources/DR.BMP,Door1,0.204477612,-0.014925373,1,0,0,0.6112,optionRight,30,12500,6,22,0,22,0,1,,,,,,,,,,,,,,,,,,,,,,,,,,,,,,,,,,,,,,,
,,,,,,,,2023-08-16_08h38.41.640,HF_wild_card,2022.2.4,Win32,74.97938067,63e52eba784c6096179a9337,64d2fd46c836a06233681665,64dc7d2cfbb02c379c4e572f,,,,,,,decisionTrl,resources/DR.BMP,resources/DB.BMP,WildCard_NonEx,0.149253731,-0.011940299,1,0,0,1.8648,optionRight,45,12545,6,23,0,23,0,1,,,,,,,,,,,,,,,,,,,,,,,,,,,,,,,,,,,,,,,
,,,,,,,,2023-08-16_08h38.41.640,HF_wild_card,2022.2.4,Win32,74.97938067,63e52eba784c6096179a9337,64d2fd46c836a06233681665,64dc7d2cfbb02c379c4e572f,,,,,,,decisionTrl,resources/DB.BMP,resources/DY.BMP,WildCard_NonEx,-0.241791045,-0.004477612,1,0,0,1.3315,optionLeft,55,12600,6,24,0,24,0,1,,,,,,,,,,,,,,,,,,,,,,,,,,,,,,,,,,,,,,,
,,,,,,,,2023-08-16_08h38.41.640,HF_wild_card,2022.2.4,Win32,74.97938067,63e52eba784c6096179a9337,64d2fd46c836a06233681665,64dc7d2cfbb02c379c4e572f,,,,,,,decisionTrl,resources/DBN.BMP,resources/DP.BMP,Door3,-0.243283582,0,1,0,0,0.8115,optionLeft,70,12670,6,25,0,25,0,1,,,,,,,,,,,,,,,,,,,,,,,,,,,,,,,,,,,,,,,
,,,,,,,,2023-08-16_08h38.41.640,HF_wild_card,2022.2.4,Win32,74.97938067,63e52eba784c6096179a9337,64d2fd46c836a06233681665,64dc7d2cfbb02c379c4e572f,,,,,,,sngl,resources/DP.BMP,resources/Empty.png,Door4,-0.152238806,-0.029850746,1,0,0,0.6377,optionLeft,60,12730,6,26,0,26,0,1,,,,,,,,,,,,,,,,,,,,,,,,,,,,,,,,,,,,,,,
,,,,,,,,2023-08-16_08h38.41.640,HF_wild_card,2022.2.4,Win32,74.97938067,63e52eba784c6096179a9337,64d2fd46c836a06233681665,64dc7d2cfbb02c379c4e572f,,,,,,,sngl,resources/DBN.BMP,resources/Empty.png,Door3,-0.182089552,-0.014925373,1,0,0,0.6165,optionLeft,70,12800,6,27,0,27,0,1,,,,,,,,,,,,,,,,,,,,,,,,,,,,,,,,,,,,,,,
,,,,,,,,2023-08-16_08h38.41.640,HF_wild_card,2022.2.4,Win32,74.97938067,63e52eba784c6096179a9337,64d2fd46c836a06233681665,64dc7d2cfbb02c379c4e572f,,,,,,,sngl,resources/Empty.png,resources/DR.BMP,Door1,0.156716418,0.010447761,1,0,0,0.9182,optionRight,30,12830,6,28,0,28,0,1,,,,,,,,,,,,,,,,,,,,,,,,,,,,,,,,,,,,,,,
,,,,,,,,2023-08-16_08h38.41.640,HF_wild_card,2022.2.4,Win32,74.97938067,63e52eba784c6096179a9337,64d2fd46c836a06233681665,64dc7d2cfbb02c379c4e572f,,,,,,,ctch,resources/DBN.BMP,resources/DY.BMP,Door3,-0.237313433,0.002985075,1,0,0,0.7756,optionLeft,70,12900,6,29,0,29,0,1,,,,,,,,,,,,,,,,,,,,,,,,,,,,,,,,,,,,,,,
,,,,,,,,2023-08-16_08h38.41.640,HF_wild_card,2022.2.4,Win32,74.97938067,63e52eba784c6096179a9337,64d2fd46c836a06233681665,64dc7d2cfbb02c379c4e572f,,,,,,,decisionTrl,resources/DBN.BMP,resources/DB.BMP,Door3,-0.252238806,-0.004477612,1,0,0,0.6695,optionLeft,70,12970,6,30,0,30,0,1,,,,,,,,,,,,,,,,,,,,,,,,,,,,,,,,,,,,,,,
,,,,,,,,2023-08-16_08h38.41.640,HF_wild_card,2022.2.4,Win32,74.97938067,63e52eba784c6096179a9337,64d2fd46c836a06233681665,64dc7d2cfbb02c379c4e572f,,,,,,,ctch,resources/DY.BMP,resources/DBN.BMP,Door3,0.259701493,0.011940299,1,0,0,0.5366,optionRight,70,13040,6,31,0,31,0,1,,,,,,,,,,,,,,,,,,,,,,,,,,,,,,,,,,,,,,,
,,,,,,,,2023-08-16_08h38.41.640,HF_wild_card,2022.2.4,Win32,74.97938067,63e52eba784c6096179a9337,64d2fd46c836a06233681665,64dc7d2cfbb02c379c4e572f,,,,,,,decisionTrl,resources/DP.BMP,resources/DBN.BMP,Door3,0.211940299,0.01641791,1,0,0,0.5366,optionRight,70,13110,6,32,0,32,0,1,,,,,,,,,,,,,,,,,,,,,,,,,,,,,,,,,,,,,,,
,,,,,,,,2023-08-16_08h38.41.640,HF_wild_card,2022.2.4,Win32,74.97938067,63e52eba784c6096179a9337,64d2fd46c836a06233681665,64dc7d2cfbb02c379c4e572f,,,,,,,decisionTrl,resources/DP.BMP,resources/DB.BMP,Door4,-0.22238806,0.059701493,1,0,0,1.5363,optionLeft,60,13170,6,33,0,33,0,1,,,,,,,,,,,,,,,,,,,,,,,,,,,,,,,,,,,,,,,
,,,,,,,,2023-08-16_08h38.41.640,HF_wild_card,2022.2.4,Win32,74.97938067,63e52eba784c6096179a9337,64d2fd46c836a06233681665,64dc7d2cfbb02c379c4e572f,,,,,,,decisionTrl,resources/DR.BMP,resources/DY.BMP,Door1,-0.205970149,0.03880597,1,0,0,1.3273,optionLeft,30,13200,6,34,0,34,0,1,,,,,,,,,,,,,,,,,,,,,,,,,,,,,,,,,,,,,,,
,,,,,,,,2023-08-16_08h38.41.640,HF_wild_card,2022.2.4,Win32,74.97938067,63e52eba784c6096179a9337,64d2fd46c836a06233681665,64dc7d2cfbb02c379c4e572f,,,,,,,decisionTrl,resources/DP.BMP,resources/DBN.BMP,Door3,0.143283582,0.007462687,1,0,0,0.8121,optionRight,70,13270,6,35,0,35,0,1,,,,,,,,,,,,,,,,,,,,,,,,,,,,,,,,,,,,,,,
,,,,,,,,2023-08-16_08h38.41.640,HF_wild_card,2022.2.4,Win32,74.97938067,63e52eba784c6096179a9337,64d2fd46c836a06233681665,64dc7d2cfbb02c379c4e572f,,,,,,,ctch,resources/DY.BMP,resources/DBN.BMP,Door3,0.179104478,0.008955224,1,0,0,0.5044,optionRight,70,13340,6,36,0,36,0,1,,,,,,,,,,,,,,,,,,,,,,,,,,,,,,,,,,,,,,,
,,,,,,,,2023-08-16_08h38.41.640,HF_wild_card,2022.2.4,Win32,74.97938067,63e52eba784c6096179a9337,64d2fd46c836a06233681665,64dc7d2cfbb02c379c4e572f,,,,,,,decisionTrl,resources/DY.BMP,resources/DR.BMP,Door2,-0.22238806,0.059701493,1,0,0,1.4118,optionLeft,40,13380,6,37,0,37,0,1,,,,,,,,,,,,,,,,,,,,,,,,,,,,,,,,,,,,,,,
,,,,,,,,2023-08-16_08h38.41.640,HF_wild_card,2022.2.4,Win32,74.97938067,63e52eba784c6096179a9337,64d2fd46c836a06233681665,64dc7d2cfbb02c379c4e572f,,,,,,,decisionTrl,resources/DP.BMP,resources/DBN.BMP,Door3,0.23880597,0.014925373,1,0,0,0.5449,optionRight,70,13450,6,38,0,38,0,1,,,,,,,,,,,,,,,,,,,,,,,,,,,,,,,,,,,,,,,
,,,,,,,,2023-08-16_08h38.41.640,HF_wild_card,2022.2.4,Win32,74.97938067,63e52eba784c6096179a9337,64d2fd46c836a06233681665,64dc7d2cfbb02c379c4e572f,,,,,,,sngl,resources/Empty.png,resources/DP.BMP,Door4,0.213432836,0.011940299,1,0,0,0.5846,optionRight,80,13530,6,39,0,39,0,1,,,,,,,,,,,,,,,,,,,,,,,,,,,,,,,,,,,,,,,
,,,,,,,,2023-08-16_08h38.41.640,HF_wild_card,2022.2.4,Win32,74.97938067,63e52eba784c6096179a9337,64d2fd46c836a06233681665,64dc7d2cfbb02c379c4e572f,,,,,,,ctch,resources/DP.BMP,resources/DR.BMP,Door4,-0.2,-0.008955224,1,0,0,0.5578,optionLeft,60,13590,6,40,0,40,0,1,,,,,,,,,,,,,,,,,,,,,,,,,,,,,,,,,,,,,,,
,,,,,,,,2023-08-16_08h38.41.640,HF_wild_card,2022.2.4,Win32,74.97938067,63e52eba784c6096179a9337,64d2fd46c836a06233681665,64dc7d2cfbb02c379c4e572f,,,,,,,ctch,resources/DR.BMP,resources/DP.BMP,Door4,0.231343284,-0.013432836,1,0,0,0.6248,optionRight,60,13650,6,41,0,41,0,1,,,,,,,,,,,,,,,,,,,,,,,,,,,,,,,,,,,,,,,
,,,,,,,,2023-08-16_08h38.41.640,HF_wild_card,2022.2.4,Win32,74.97938067,63e52eba784c6096179a9337,64d2fd46c836a06233681665,64dc7d2cfbb02c379c4e572f,,,,,,,ctch,resources/DR.BMP,resources/DP.BMP,Door4,0.180597015,0.008955224,1,0,0,0.9272,optionRight,60,13710,6,42,0,42,0,1,,,,,,,,,,,,,,,,,,,,,,,,,,,,,,,,,,,,,,,
,,,,,,,,2023-08-16_08h38.41.640,HF_wild_card,2022.2.4,Win32,74.97938067,63e52eba784c6096179a9337,64d2fd46c836a06233681665,64dc7d2cfbb02c379c4e572f,,,,,,,decisionTrl,resources/DY.BMP,resources/DR.BMP,Door1,0.280597015,0.029850746,1,0,0,1.8657,optionRight,30,13740,6,43,0,43,0,1,,,,,,,,,,,,,,,,,,,,,,,,,,,,,,,,,,,,,,,
,,,,,,,,2023-08-16_08h38.41.640,HF_wild_card,2022.2.4,Win32,74.97938067,63e52eba784c6096179a9337,64d2fd46c836a06233681665,64dc7d2cfbb02c379c4e572f,,,,,,,,,,,,,,,,,,,,,,,,,,5,0,5,0,1,,,,,,,,,,,,,,,,,,,,,,,,,,,,,,,,,,
,,,,,,,,2023-08-16_08h38.41.640,HF_wild_card,2022.2.4,Win32,74.97938067,63e52eba784c6096179a9337,64d2fd46c836a06233681665,64dc7d2cfbb02c379c4e572f,,,,,,,ctch,resources/DP.BMP,resources/DR.BMP,Door4,-0.265671642,-0.055223881,1,0,0,1.4032,optionLeft,60,13800,7,0,0,0,0,1,,,,,,,,,,,,,,,,,,,,,,,,,,,,,,,,,,,,,,,
,,,,,,,,2023-08-16_08h38.41.640,HF_wild_card,2022.2.4,Win32,74.97938067,63e52eba784c6096179a9337,64d2fd46c836a06233681665,64dc7d2cfbb02c379c4e572f,,,,,,,decisionTrl,resources/DP.BMP,resources/DBN.BMP,Door3,0.168656716,0,1,0,0,0.7455,optionRight,70,13870,7,1,0,1,0,1,,,,,,,,,,,,,,,,,,,,,,,,,,,,,,,,,,,,,,,
,,,,,,,,2023-08-16_08h38.41.640,HF_wild_card,2022.2.4,Win32,74.97938067,63e52eba784c6096179a9337,64d2fd46c836a06233681665,64dc7d2cfbb02c379c4e572f,,,,,,,ctch,resources/DP.BMP,resources/DR.BMP,Door4,-0.350746269,-0.007462687,1,0,0,0.6122,optionLeft,80,13950,7,2,0,2,0,1,,,,,,,,,,,,,,,,,,,,,,,,,,,,,,,,,,,,,,,
,,,,,,,,2023-08-16_08h38.41.640,HF_wild_card,2022.2.4,Win32,74.97938067,63e52eba784c6096179a9337,64d2fd46c836a06233681665,64dc7d2cfbb02c379c4e572f,,,,,,,decisionTrl,resources/DP.BMP,resources/DBN.BMP,Door3,0.27761194,-0.017910448,1,0,0,0.5589,optionRight,70,14020,7,3,0,3,0,1,,,,,,,,,,,,,,,,,,,,,,,,,,,,,,,,,,,,,,,
,,,,,,,,2023-08-16_08h38.41.640,HF_wild_card,2022.2.4,Win32,74.97938067,63e52eba784c6096179a9337,64d2fd46c836a06233681665,64dc7d2cfbb02c379c4e572f,,,,,,,decisionTrl,resources/DR.BMP,resources/DY.BMP,Door1,-0.235820896,0.002985075,1,0,0,1.0254,optionLeft,30,14050,7,4,0,4,0,1,,,,,,,,,,,,,,,,,,,,,,,,,,,,,,,,,,,,,,,
,,,,,,,,2023-08-16_08h38.41.640,HF_wild_card,2022.2.4,Win32,74.97938067,63e52eba784c6096179a9337,64d2fd46c836a06233681665,64dc7d2cfbb02c379c4e572f,,,,,,,ctch,resources/DP.BMP,resources/DR.BMP,Door4,-0.210447761,0.026865672,1,0,0,1.1507,optionLeft,80,14130,7,5,0,5,0,1,,,,,,,,,,,,,,,,,,,,,,,,,,,,,,,,,,,,,,,
,,,,,,,,2023-08-16_08h38.41.640,HF_wild_card,2022.2.4,Win32,74.97938067,63e52eba784c6096179a9337,64d2fd46c836a06233681665,64dc7d2cfbb02c379c4e572f,,,,,,,decisionTrl,resources/DY.BMP,resources/DR.BMP,Door1,0.276119403,0.02238806,1,0,0,1.1205,optionRight,30,14160,7,6,0,6,0,1,,,,,,,,,,,,,,,,,,,,,,,,,,,,,,,,,,,,,,,
,,,,,,,,2023-08-16_08h38.41.640,HF_wild_card,2022.2.4,Win32,74.97938067,63e52eba784c6096179a9337,64d2fd46c836a06233681665,64dc7d2cfbb02c379c4e572f,,,,,,,ctch,resources/DR.BMP,resources/DP.BMP,Door4,0.234328358,0.010447761,1,0,0,0.826,optionRight,60,14220,7,7,0,7,0,1,,,,,,,,,,,,,,,,,,,,,,,,,,,,,,,,,,,,,,,
,,,,,,,,2023-08-16_08h38.41.640,HF_wild_card,2022.2.4,Win32,74.97938067,63e52eba784c6096179a9337,64d2fd46c836a06233681665,64dc7d2cfbb02c379c4e572f,,,,,,,decisionTrl,resources/DBN.BMP,resources/DP.BMP,Door3,-0.276119403,0.032835821,1,0,0,0.7641,optionLeft,70,14290,7,8,0,8,0,1,,,,,,,,,,,,,,,,,,,,,,,,,,,,,,,,,,,,,,,
,,,,,,,,2023-08-16_08h38.41.640,HF_wild_card,2022.2.4,Win32,74.97938067,63e52eba784c6096179a9337,64d2fd46c836a06233681665,64dc7d2cfbb02c379c4e572f,,,,,,,decisionTrl,resources/DBN.BMP,resources/DP.BMP,Door3,-0.197014925,-0.031343284,1,0,0,0.5679,optionLeft,70,14360,7,9,0,9,0,1,,,,,,,,,,,,,,,,,,,,,,,,,,,,,,,,,,,,,,,
,,,,,,,,2023-08-16_08h38.41.640,HF_wild_card,2022.2.4,Win32,74.97938067,63e52eba784c6096179a9337,64d2fd46c836a06233681665,64dc7d2cfbb02c379c4e572f,,,,,,,decisionTrl,resources/DBN.BMP,resources/DP.BMP,Door3,-0.268656716,-0.026865672,1,0,0,0.7065,optionLeft,70,14430,7,10,0,10,0,1,,,,,,,,,,,,,,,,,,,,,,,,,,,,,,,,,,,,,,,
,,,,,,,,2023-08-16_08h38.41.640,HF_wild_card,2022.2.4,Win32,74.97938067,63e52eba784c6096179a9337,64d2fd46c836a06233681665,64dc7d2cfbb02c379c4e572f,,,,,,,decisionTrl,resources/DR.BMP,resources/DY.BMP,Door1,-0.255223881,0.014925373,1,0,0,1.3457,optionLeft,30,14460,7,11,0,11,0,1,,,,,,,,,,,,,,,,,,,,,,,,,,,,,,,,,,,,,,,
,,,,,,,,2023-08-16_08h38.41.640,HF_wild_card,2022.2.4,Win32,74.97938067,63e52eba784c6096179a9337,64d2fd46c836a06233681665,64dc7d2cfbb02c379c4e572f,,,,,,,decisionTrl,resources/DR.BMP,resources/DY.BMP,Door1,-0.223880597,-0.020895522,1,0,0,0.6889,optionLeft,30,14490,7,12,0,12,0,1,,,,,,,,,,,,,,,,,,,,,,,,,,,,,,,,,,,,,,,
,,,,,,,,2023-08-16_08h38.41.640,HF_wild_card,2022.2.4,Win32,74.97938067,63e52eba784c6096179a9337,64d2fd46c836a06233681665,64dc7d2cfbb02c379c4e572f,,,,,,,decisionTrl,resources/DP.BMP,resources/DBN.BMP,Door3,0.271641791,0.008955224,1,0,0,0.6789,optionRight,70,14560,7,13,0,13,0,1,,,,,,,,,,,,,,,,,,,,,,,,,,,,,,,,,,,,,,,
,,,,,,,,2023-08-16_08h38.41.640,HF_wild_card,2022.2.4,Win32,74.97938067,63e52eba784c6096179a9337,64d2fd46c836a06233681665,64dc7d2cfbb02c379c4e572f,,,,,,,decisionTrl,resources/DY.BMP,resources/DR.BMP,Door1,0.314925373,0.043283582,1,0,0,1.0532,optionRight,30,14590,7,14,0,14,0,1,,,,,,,,,,,,,,,,,,,,,,,,,,,,,,,,,,,,,,,
,,,,,,,,2023-08-16_08h38.41.640,HF_wild_card,2022.2.4,Win32,74.97938067,63e52eba784c6096179a9337,64d2fd46c836a06233681665,64dc7d2cfbb02c379c4e572f,,,,,,,decisionTrl,resources/DP.BMP,resources/DBN.BMP,Door3,0.262686567,0.020895522,1,0,0,0.652,optionRight,70,14660,7,15,0,15,0,1,,,,,,,,,,,,,,,,,,,,,,,,,,,,,,,,,,,,,,,
,,,,,,,,2023-08-16_08h38.41.640,HF_wild_card,2022.2.4,Win32,74.97938067,63e52eba784c6096179a9337,64d2fd46c836a06233681665,64dc7d2cfbb02c379c4e572f,,,,,,,decisionTrl,resources/DR.BMP,resources/DY.BMP,Door1,-0.211940299,0.004477612,1,0,0,1.119,optionLeft,30,14690,7,16,0,16,0,1,,,,,,,,,,,,,,,,,,,,,,,,,,,,,,,,,,,,,,,
,,,,,,,,2023-08-16_08h38.41.640,HF_wild_card,2022.2.4,Win32,74.97938067,63e52eba784c6096179a9337,64d2fd46c836a06233681665,64dc7d2cfbb02c379c4e572f,,,,,,,ctch,resources/DBN.BMP,resources/DY.BMP,Door3,-0.226865672,0.023880597,1,0,0,0.7055,optionLeft,70,14760,7,17,0,17,0,1,,,,,,,,,,,,,,,,,,,,,,,,,,,,,,,,,,,,,,,
,,,,,,,,2023-08-16_08h38.41.640,HF_wild_card,2022.2.4,Win32,74.97938067,63e52eba784c6096179a9337,64d2fd46c836a06233681665,64dc7d2cfbb02c379c4e572f,,,,,,,ctch,resources/DBN.BMP,resources/DY.BMP,Door3,-0.247761194,0.005970149,1,0,0,0.6527,optionLeft,70,14830,7,18,0,18,0,1,,,,,,,,,,,,,,,,,,,,,,,,,,,,,,,,,,,,,,,
,,,,,,,,2023-08-16_08h38.41.640,HF_wild_card,2022.2.4,Win32,74.97938067,63e52eba784c6096179a9337,64d2fd46c836a06233681665,64dc7d2cfbb02c379c4e572f,,,,,,,decisionTrl,resources/DR.BMP,resources/DY.BMP,Door1,-0.22238806,0.031343284,1,0,0,1.1452,optionLeft,30,14860,7,19,0,19,0,1,,,,,,,,,,,,,,,,,,,,,,,,,,,,,,,,,,,,,,,
,,,,,,,,2023-08-16_08h38.41.640,HF_wild_card,2022.2.4,Win32,74.97938067,63e52eba784c6096179a9337,64d2fd46c836a06233681665,64dc7d2cfbb02c379c4e572f,,,,,,,ctch,resources/DR.BMP,resources/DP.BMP,Door4,0.310447761,0.025373134,1,0,0,0.9726,optionRight,80,14940,7,20,0,20,0,1,,,,,,,,,,,,,,,,,,,,,,,,,,,,,,,,,,,,,,,
,,,,,,,,2023-08-16_08h38.41.640,HF_wild_card,2022.2.4,Win32,74.97938067,63e52eba784c6096179a9337,64d2fd46c836a06233681665,64dc7d2cfbb02c379c4e572f,,,,,,,ctch,resources/DBN.BMP,resources/DY.BMP,Door3,-0.271641791,0.007462687,1,0,0,0.7589,optionLeft,70,15010,7,21,0,21,0,1,,,,,,,,,,,,,,,,,,,,,,,,,,,,,,,,,,,,,,,
,,,,,,,,2023-08-16_08h38.41.640,HF_wild_card,2022.2.4,Win32,74.97938067,63e52eba784c6096179a9337,64d2fd46c836a06233681665,64dc7d2cfbb02c379c4e572f,,,,,,,ctch,resources/DY.BMP,resources/DBN.BMP,Door3,0.323880597,0.029850746,1,0,0,0.5456,optionRight,70,15080,7,22,0,22,0,1,,,,,,,,,,,,,,,,,,,,,,,,,,,,,,,,,,,,,,,
,,,,,,,,2023-08-16_08h38.41.640,HF_wild_card,2022.2.4,Win32,74.97938067,63e52eba784c6096179a9337,64d2fd46c836a06233681665,64dc7d2cfbb02c379c4e572f,,,,,,,decisionTrl,resources/DY.BMP,resources/DR.BMP,Door1,0.304477612,0.043283582,1,0,0,1.0257,optionRight,30,15110,7,23,0,23,0,1,,,,,,,,,,,,,,,,,,,,,,,,,,,,,,,,,,,,,,,
,,,,,,,,2023-08-16_08h38.41.640,HF_wild_card,2022.2.4,Win32,74.97938067,63e52eba784c6096179a9337,64d2fd46c836a06233681665,64dc7d2cfbb02c379c4e572f,,,,,,,decisionTrl,resources/DY.BMP,resources/DR.BMP,Door1,0.279104478,0.043283582,1,0,0,0.5456,optionRight,30,15140,7,24,0,24,0,1,,,,,,,,,,,,,,,,,,,,,,,,,,,,,,,,,,,,,,,
,,,,,,,,2023-08-16_08h38.41.640,HF_wild_card,2022.2.4,Win32,74.97938067,63e52eba784c6096179a9337,64d2fd46c836a06233681665,64dc7d2cfbb02c379c4e572f,,,,,,,ctch,resources/DY.BMP,resources/DBN.BMP,Door3,0.249253731,0.011940299,1,0,0,0.5722,optionRight,70,15210,7,25,0,25,0,1,,,,,,,,,,,,,,,,,,,,,,,,,,,,,,,,,,,,,,,
,,,,,,,,2023-08-16_08h38.41.640,HF_wild_card,2022.2.4,Win32,74.97938067,63e52eba784c6096179a9337,64d2fd46c836a06233681665,64dc7d2cfbb02c379c4e572f,,,,,,,decisionTrl,resources/DP.BMP,resources/DBN.BMP,Door3,0.237313433,0.019402985,1,0,0,0.5721,optionRight,70,15280,7,26,0,26,0,1,,,,,,,,,,,,,,,,,,,,,,,,,,,,,,,,,,,,,,,
,,,,,,,,2023-08-16_08h38.41.640,HF_wild_card,2022.2.4,Win32,74.97938067,63e52eba784c6096179a9337,64d2fd46c836a06233681665,64dc7d2cfbb02c379c4e572f,,,,,,,decisionTrl,resources/DBN.BMP,resources/DP.BMP,Door3,-0.3,-0.029850746,1,0,0,0.5588,optionLeft,70,15350,7,27,0,27,0,1,,,,,,,,,,,,,,,,,,,,,,,,,,,,,,,,,,,,,,,
,,,,,,,,2023-08-16_08h38.41.640,HF_wild_card,2022.2.4,Win32,74.97938067,63e52eba784c6096179a9337,64d2fd46c836a06233681665,64dc7d2cfbb02c379c4e572f,,,,,,,decisionTrl,resources/DBN.BMP,resources/DP.BMP,Door3,-0.228358209,-0.02238806,1,0,0,0.5988,optionLeft,70,15420,7,28,0,28,0,1,,,,,,,,,,,,,,,,,,,,,,,,,,,,,,,,,,,,,,,
,,,,,,,,2023-08-16_08h38.41.640,HF_wild_card,2022.2.4,Win32,74.97938067,63e52eba784c6096179a9337,64d2fd46c836a06233681665,64dc7d2cfbb02c379c4e572f,,,,,,,decisionTrl,resources/DY.BMP,resources/DR.BMP,Door1,0.347761194,-0.010447761,1,0,0,0.7589,optionRight,30,15450,7,29,0,29,0,1,,,,,,,,,,,,,,,,,,,,,,,,,,,,,,,,,,,,,,,
,,,,,,,,2023-08-16_08h38.41.640,HF_wild_card,2022.2.4,Win32,74.97938067,63e52eba784c6096179a9337,64d2fd46c836a06233681665,64dc7d2cfbb02c379c4e572f,,,,,,,decisionTrl,resources/DY.BMP,resources/DR.BMP,Door1,0.250746269,-0.002985075,1,0,0,0.6789,optionRight,30,15480,7,30,0,30,0,1,,,,,,,,,,,,,,,,,,,,,,,,,,,,,,,,,,,,,,,
,,,,,,,,2023-08-16_08h38.41.640,HF_wild_card,2022.2.4,Win32,74.97938067,63e52eba784c6096179a9337,64d2fd46c836a06233681665,64dc7d2cfbb02c379c4e572f,,,,,,,ctch,resources/DY.BMP,resources/DBN.BMP,Door3,0.325373134,0.029850746,1,0,0,0.5594,optionRight,70,15550,7,31,0,31,0,1,,,,,,,,,,,,,,,,,,,,,,,,,,,,,,,,,,,,,,,
,,,,,,,,2023-08-16_08h38.41.640,HF_wild_card,2022.2.4,Win32,74.97938067,63e52eba784c6096179a9337,64d2fd46c836a06233681665,64dc7d2cfbb02c379c4e572f,,,,,,,decisionTrl,resources/DBN.BMP,resources/DP.BMP,Door3,-0.265671642,-0.019402985,1,0,0,0.5856,optionLeft,70,15620,7,32,0,32,0,1,,,,,,,,,,,,,,,,,,,,,,,,,,,,,,,,,,,,,,,
,,,,,,,,2023-08-16_08h38.41.640,HF_wild_card,2022.2.4,Win32,74.97938067,63e52eba784c6096179a9337,64d2fd46c836a06233681665,64dc7d2cfbb02c379c4e572f,,,,,,,ctch,resources/DR.BMP,resources/DP.BMP,Door4,0.313432836,0.001492537,1,0,0,0.9461,optionRight,60,15680,7,33,0,33,0,1,,,,,,,,,,,,,,,,,,,,,,,,,,,,,,,,,,,,,,,
,,,,,,,,2023-08-16_08h38.41.640,HF_wild_card,2022.2.4,Win32,74.97938067,63e52eba784c6096179a9337,64d2fd46c836a06233681665,64dc7d2cfbb02c379c4e572f,,,,,,,decisionTrl,resources/DR.BMP,resources/DY.BMP,Door1,-0.240298507,-0.010447761,1,0,0,0.5993,optionLeft,30,15710,7,34,0,34,0,1,,,,,,,,,,,,,,,,,,,,,,,,,,,,,,,,,,,,,,,
,,,,,,,,2023-08-16_08h38.41.640,HF_wild_card,2022.2.4,Win32,74.97938067,63e52eba784c6096179a9337,64d2fd46c836a06233681665,64dc7d2cfbb02c379c4e572f,,,,,,,decisionTrl,resources/DP.BMP,resources/DBN.BMP,Door3,0.301492537,0.005970149,1,0,0,0.5728,optionRight,70,15780,7,35,0,35,0,1,,,,,,,,,,,,,,,,,,,,,,,,,,,,,,,,,,,,,,,
,,,,,,,,2023-08-16_08h38.41.640,HF_wild_card,2022.2.4,Win32,74.97938067,63e52eba784c6096179a9337,64d2fd46c836a06233681665,64dc7d2cfbb02c379c4e572f,,,,,,,,,,,,,,,,,,,,,,,,,,6,0,6,0,1,,,,,,,,,,,,,,,,,,,,,,,,,,,,,,,,,,
,,,,,,,,2023-08-16_08h38.41.640,HF_wild_card,2022.2.4,Win32,74.97938067,63e52eba784c6096179a9337,64d2fd46c836a06233681665,64dc7d2cfbb02c379c4e572f,,,,,,,,,,,,,,,,,,,,,,,,,,,,,,,3,,,,,,,,,,,,,,,,,,,,,,,,,,,,,,,,,
,,,,,,,,2023-08-16_08h38.41.640,HF_wild_card,2022.2.4,Win32,74.97938067,63e52eba784c6096179a9337,64d2fd46c836a06233681665,64dc7d2cfbb02c379c4e572f,,,,,,,,,,,,,,,,,,,,,,,,,,,,,,,,,,,,,,,,,,,,,,,,,,,,,,,,,,,,,,,,
,,,,,,,,2023-08-16_08h38.41.640,HF_wild_card,2022.2.4,Win32,74.97938067,63e52eba784c6096179a9337,64d2fd46c836a06233681665,64dc7d2cfbb02c379c4e572f,,,,,,,,,,,,,,,,,,,,,,,,,,,,,,,,40,WC_extreme,resources/DG.BMP,0,0,0,0,1,,,,,,,,,,,,,,,,,,,,,,,,,
,,,,,,,,2023-08-16_08h38.41.640,HF_wild_card,2022.2.4,Win32,74.97938067,63e52eba784c6096179a9337,64d2fd46c836a06233681665,64dc7d2cfbb02c379c4e572f,,,,,,,,,,,,,,,,,,,,,,,,,,,,,,,,50,Door4,resources/DP.BMP,1,0,1,0,1,,,,,,,,,,,,,,,,,,,,,,,,,
,,,,,,,,2023-08-16_08h38.41.640,HF_wild_card,2022.2.4,Win32,74.97938067,63e52eba784c6096179a9337,64d2fd46c836a06233681665,64dc7d2cfbb02c379c4e572f,,,,,,,,,,,,,,,,,,,,,,,,,,,,,,,,30,Door1,resources/DR.BMP,2,0,2,0,1,,,,,,,,,,,,,,,,,,,,,,,,,
,,,,,,,,2023-08-16_08h38.41.640,HF_wild_card,2022.2.4,Win32,74.97938067,63e52eba784c6096179a9337,64d2fd46c836a06233681665,64dc7d2cfbb02c379c4e572f,,,,,,,,,,,,,,,,,,,,,,,,,,,,,,,,55,WC_nonExtreme,resources/DB.BMP,3,0,3,0,1,,,,,,,,,,,,,,,,,,,,,,,,,
,,,,,,,,2023-08-16_08h38.41.640,HF_wild_card,2022.2.4,Win32,74.97938067,63e52eba784c6096179a9337,64d2fd46c836a06233681665,64dc7d2cfbb02c379c4e572f,,,,,,,,,,,,,,,,,,,,,,,,,,,,,,,,70,Door3,resources/DBN.BMP,4,0,4,0,1,,,,,,,,,,,,,,,,,,,,,,,,,
,,,,,,,,2023-08-16_08h38.41.640,HF_wild_card,2022.2.4,Win32,74.97938067,63e52eba784c6096179a9337,64d2fd46c836a06233681665,64dc7d2cfbb02c379c4e572f,,,,,,,,,,,,,,,,,,,,,,,,,,,,,,,,20,Door2,resources/DY.BMP,5,0,5,0,1,,,,,,,,,,,,,,,,,,,,,,,,,
,,,,,,,,2023-08-16_08h38.41.640,HF_wild_card,2022.2.4,Win32,74.97938067,63e52eba784c6096179a9337,64d2fd46c836a06233681665,64dc7d2cfbb02c379c4e572f,,,,,,,,,,,,,,,,,,,,,,,,,,,,,,,,,,,,,,,,,,,,,,,,,,,,,,,,,,,,,,,,
