Condition,Low fixed image (Door1),Low risky image (Door2),High fixed image (Door3),High risky image (Door4),Extreme Wild Card,NonExtreme Wild Card,,date,expName,psychopyVersion,OS,frameRate,PROLIFIC_PID,STUDY_ID,SESSION_ID,mouse_2.x,mouse_2.y,mouse_2.leftButton,mouse_2.midButton,mouse_2.rightButton,mouse_2.clicked_name,Trial Type,Left Option Image,Right Option Image,Chosen Door,mouse.x,mouse.y,mouse.leftButton,mouse.midButton,mouse.rightButton,mouse.time,mouse.clicked_name,Feedback,Cumulative Reward,Block,trial.thisRepN,trial.thisTrialN,trial.thisN,trial.thisIndex,trial.ran,blocks.thisRepN,blocks.thisTrialN,blocks.thisN,blocks.thisIndex,blocks.ran,Money conversion,First Outcome Reported,Shown Door (First Outcome),Displayed Image (First Outcome),outcomes.thisRepN,outcomes.thisTrialN,outcomes.thisN,outcomes.thisIndex,outcomes.ran,judgments.thisRepN,judgments.thisTrialN,judgments.thisN,judgments.thisIndex,judgments.ran,freqMouse.x,freqMouse.y,freqMouse.leftButton,freqMouse.midButton,freqMouse.rightButton,freqMouse.clicked_name,FQJ for first outcome,FQJ for second outcome,Shown Door,Displayed Image,trials.thisRepN,trials.thisTrialN,trials.thisN,trials.thisIndex,trials.ran,judgBlock.thisRepN,judgBlock.thisTrialN,judgBlock.thisN,judgBlock.thisIndex,judgBlock.ran
0,resources/DY.BMP,resources/DR.BMP,resources/DG.BMP,resources/DB.BMP,resources/DP.BMP,resources/DBN.BMP,,2023-08-16_08h26.36.071,HF_wild_card,2022.2.4,Linux x86_64,60.06006006,62a12f67f0da767bd2c0222f,64d2fd46c836a06233681665,64dc7a124d2b9397b5c54744,,,,,,,,,,,,,,,,,,,,,,,,,,,,,,,,,,,,,,,,,,,,,,,,,,,,,,,,,,,,,,,,
,,,,,,,,2023-08-16_08h26.36.071,HF_wild_card,2022.2.4,Linux x86_64,60.06006006,62a12f67f0da767bd2c0222f,64d2fd46c836a06233681665,64dc7a124d2b9397b5c54744,-0.019981751,-0.40820012,1,0,0,agree,,,,,,,,,,,,,,,,,,,,,,,,,,,,,,,,,,,,,,,,,,,,,,,,,,,,,,,,,,
,,,,,,,,2023-08-16_08h26.36.071,HF_wild_card,2022.2.4,Linux x86_64,60.06006006,62a12f67f0da767bd2c0222f,64d2fd46c836a06233681665,64dc7a124d2b9397b5c54744,,,,,,,,,,,,,,,,,,,,,,,,,,,,,,,,,,,,,,,,,,,,,,,,,,,,,,,,,,,,,,,,
,,,,,,,,2023-08-16_08h26.36.071,HF_wild_card,2022.2.4,Linux x86_64,60.06006006,62a12f67f0da767bd2c0222f,64d2fd46c836a06233681665,64dc7a124d2b9397b5c54744,,,,,,,decisionTrl,resources/DB.BMP,resources/DG.BMP,Door4,-0.434693241,0.003034943,1,0,0,3.3211,optionLeft,80,80,1,0,0,0,0,1,,,,,,,,,,,,,,,,,,,,,,,,,,,,,,,,,,,,,,,
,,,,,,,,2023-08-16_08h26.36.071,HF_wild_card,2022.2.4,Linux x86_64,60.06006006,62a12f67f0da767bd2c0222f,64d2fd46c836a06233681665,64dc7a124d2b9397b5c54744,,,,,,,decisionTrl,resources/DP.BMP,resources/DB.BMP,WildCard_Ex,-0.392460097,-0.099739567,1,0,0,5.9902,optionLeft,95,175,1,1,0,1,0,1,,,,,,,,,,,,,,,,,,,,,,,,,,,,,,,,,,,,,,,
,,,,,,,,2023-08-16_08h26.36.071,HF_wild_card,2022.2.4,Linux x86_64,60.06006006,62a12f67f0da767bd2c0222f,64d2fd46c836a06233681665,64dc7a124d2b9397b5c54744,,,,,,,sngl,resources/Empty.png,resources/DY.BMP,Door1,0.333154927,0.015853327,1,0,0,1.3689,optionRight,30,205,1,2,0,2,0,1,,,,,,,,,,,,,,,,,,,,,,,,,,,,,,,,,,,,,,,
,,,,,,,,2023-08-16_08h26.36.071,HF_wild_card,2022.2.4,Linux x86_64,60.06006006,62a12f67f0da767bd2c0222f,64d2fd46c836a06233681665,64dc7a124d2b9397b5c54744,,,,,,,decisionTrl,resources/DY.BMP,resources/DR.BMP,Door1,-0.414340557,-0.032179158,1,0,0,1.8643,optionLeft,30,235,1,3,0,3,0,1,,,,,,,,,,,,,,,,,,,,,,,,,,,,,,,,,,,,,,,
,,,,,,,,2023-08-16_08h26.36.071,HF_wild_card,2022.2.4,Linux x86_64,60.06006006,62a12f67f0da767bd2c0222f,64d2fd46c836a06233681665,64dc7a124d2b9397b5c54744,,,,,,,ctch,resources/DB.BMP,resources/DY.BMP,Door4,-0.413766877,-0.118265883,1,0,0,1.6037,optionLeft,80,315,1,4,0,4,0,1,,,,,,,,,,,,,,,,,,,,,,,,,,,,,,,,,,,,,,,
,,,,,,,,2023-08-16_08h26.36.071,HF_wild_card,2022.2.4,Linux x86_64,60.06006006,62a12f67f0da767bd2c0222f,64d2fd46c836a06233681665,64dc7a124d2b9397b5c54744,,,,,,,sngl,resources/Empty.png,resources/DP.BMP,WildCard_Ex,0.335524922,-0.087158454,1,0,0,1.8176,optionRight,95,410,1,5,0,5,0,1,,,,,,,,,,,,,,,,,,,,,,,,,,,,,,,,,,,,,,,
,,,,,,,,2023-08-16_08h26.36.071,HF_wild_card,2022.2.4,Linux x86_64,60.06006006,62a12f67f0da767bd2c0222f,64d2fd46c836a06233681665,64dc7a124d2b9397b5c54744,,,,,,,sngl,resources/DP.BMP,resources/Empty.png,WildCard_Ex,-0.357285136,-0.014592626,1,0,0,1.4018,optionLeft,5,415,1,6,0,6,0,1,,,,,,,,,,,,,,,,,,,,,,,,,,,,,,,,,,,,,,,
,,,,,,,,2023-08-16_08h26.36.071,HF_wild_card,2022.2.4,Linux x86_64,60.06006006,62a12f67f0da767bd2c0222f,64d2fd46c836a06233681665,64dc7a124d2b9397b5c54744,,,,,,,sngl,resources/Empty.png,resources/DR.BMP,Door2,0.322144986,-0.008262393,1,0,0,1.4333,optionRight,20,435,1,7,0,7,0,1,,,,,,,,,,,,,,,,,,,,,,,,,,,,,,,,,,,,,,,
,,,,,,,,2023-08-16_08h26.36.071,HF_wild_card,2022.2.4,Linux x86_64,60.06006006,62a12f67f0da767bd2c0222f,64d2fd46c836a06233681665,64dc7a124d2b9397b5c54744,,,,,,,decisionTrl,resources/DR.BMP,resources/DY.BMP,Door1,0.423878212,0.029491143,1,0,0,2.0854,optionRight,30,465,1,8,0,8,0,1,,,,,,,,,,,,,,,,,,,,,,,,,,,,,,,,,,,,,,,
,,,,,,,,2023-08-16_08h26.36.071,HF_wild_card,2022.2.4,Linux x86_64,60.06006006,62a12f67f0da767bd2c0222f,64d2fd46c836a06233681665,64dc7a124d2b9397b5c54744,,,,,,,decisionTrl,resources/DR.BMP,resources/DY.BMP,Door2,-0.400625428,-0.070343018,1,0,0,1.9557,optionLeft,40,505,1,9,0,9,0,1,,,,,,,,,,,,,,,,,,,,,,,,,,,,,,,,,,,,,,,
,,,,,,,,2023-08-16_08h26.36.071,HF_wild_card,2022.2.4,Linux x86_64,60.06006006,62a12f67f0da767bd2c0222f,64d2fd46c836a06233681665,64dc7a124d2b9397b5c54744,,,,,,,decisionTrl,resources/DR.BMP,resources/DY.BMP,Door2,-0.399584646,-0.04188797,1,0,0,1.7032,optionLeft,20,525,1,10,0,10,0,1,,,,,,,,,,,,,,,,,,,,,,,,,,,,,,,,,,,,,,,
,,,,,,,,2023-08-16_08h26.36.071,HF_wild_card,2022.2.4,Linux x86_64,60.06006006,62a12f67f0da767bd2c0222f,64d2fd46c836a06233681665,64dc7a124d2b9397b5c54744,,,,,,,decisionTrl,resources/DY.BMP,resources/DR.BMP,Door1,-0.361383937,0.021083997,1,0,0,1.8856,optionLeft,30,555,1,11,0,11,0,1,,,,,,,,,,,,,,,,,,,,,,,,,,,,,,,,,,,,,,,
,,,,,,,,2023-08-16_08h26.36.071,HF_wild_card,2022.2.4,Linux x86_64,60.06006006,62a12f67f0da767bd2c0222f,64d2fd46c836a06233681665,64dc7a124d2b9397b5c54744,,,,,,,ctch,resources/DG.BMP,resources/DR.BMP,Door3,-0.434271076,0.016613798,1,0,0,1.5001,optionLeft,70,625,1,12,0,12,0,1,,,,,,,,,,,,,,,,,,,,,,,,,,,,,,,,,,,,,,,
,,,,,,,,2023-08-16_08h26.36.071,HF_wild_card,2022.2.4,Linux x86_64,60.06006006,62a12f67f0da767bd2c0222f,64d2fd46c836a06233681665,64dc7a124d2b9397b5c54744,,,,,,,sngl,resources/DP.BMP,resources/Empty.png,WildCard_Ex,-0.414380484,-0.09425642,1,0,0,1.3535,optionLeft,95,720,1,13,0,13,0,1,,,,,,,,,,,,,,,,,,,,,,,,,,,,,,,,,,,,,,,
,,,,,,,,2023-08-16_08h26.36.071,HF_wild_card,2022.2.4,Linux x86_64,60.06006006,62a12f67f0da767bd2c0222f,64d2fd46c836a06233681665,64dc7a124d2b9397b5c54744,,,,,,,decisionTrl,resources/DB.BMP,resources/DP.BMP,Door4,-0.40619011,-0.019775927,1,0,0,1.6393,optionLeft,80,800,1,14,0,14,0,1,,,,,,,,,,,,,,,,,,,,,,,,,,,,,,,,,,,,,,,
,,,,,,,,2023-08-16_08h26.36.071,HF_wild_card,2022.2.4,Linux x86_64,60.06006006,62a12f67f0da767bd2c0222f,64d2fd46c836a06233681665,64dc7a124d2b9397b5c54744,,,,,,,ctch,resources/DY.BMP,resources/DB.BMP,Door4,0.382378027,0.04638883,1,0,0,5.332,optionRight,80,880,1,15,0,15,0,1,,,,,,,,,,,,,,,,,,,,,,,,,,,,,,,,,,,,,,,
,,,,,,,,2023-08-16_08h26.36.071,HF_wild_card,2022.2.4,Linux x86_64,60.06006006,62a12f67f0da767bd2c0222f,64d2fd46c836a06233681665,64dc7a124d2b9397b5c54744,,,,,,,decisionTrl,resources/DR.BMP,resources/DP.BMP,Door2,-0.361868819,-0.009049016,1,0,0,3.0323,optionLeft,40,920,1,16,0,16,0,1,,,,,,,,,,,,,,,,,,,,,,,,,,,,,,,,,,,,,,,
,,,,,,,,2023-08-16_08h26.36.071,HF_wild_card,2022.2.4,Linux x86_64,60.06006006,62a12f67f0da767bd2c0222f,64d2fd46c836a06233681665,64dc7a124d2b9397b5c54744,,,,,,,sngl,resources/Empty.png,resources/DB.BMP,Door4,0.336093057,-0.022160842,1,0,0,1.1697,optionRight,60,980,1,17,0,17,0,1,,,,,,,,,,,,,,,,,,,,,,,,,,,,,,,,,,,,,,,
,,,,,,,,2023-08-16_08h26.36.071,HF_wild_card,2022.2.4,Linux x86_64,60.06006006,62a12f67f0da767bd2c0222f,64d2fd46c836a06233681665,64dc7a124d2b9397b5c54744,,,,,,,sngl,resources/DR.BMP,resources/Empty.png,Door2,-0.517836219,-0.004829612,1,0,0,1.0725,optionLeft,40,1020,1,18,0,18,0,1,,,,,,,,,,,,,,,,,,,,,,,,,,,,,,,,,,,,,,,
,,,,,,,,2023-08-16_08h26.36.071,HF_wild_card,2022.2.4,Linux x86_64,60.06006006,62a12f67f0da767bd2c0222f,64d2fd46c836a06233681665,64dc7a124d2b9397b5c54744,,,,,,,ctch,resources/DG.BMP,resources/DR.BMP,Door2,0.336514221,-0.021095231,1,0,0,1.8521,optionRight,40,1060,1,19,0,19,0,1,,,,,,,,,,,,,,,,,,,,,,,,,,,,,,,,,,,,,,,
,,,,,,,,2023-08-16_08h26.36.071,HF_wild_card,2022.2.4,Linux x86_64,60.06006006,62a12f67f0da767bd2c0222f,64d2fd46c836a06233681665,64dc7a124d2b9397b5c54744,,,,,,,decisionTrl,resources/DP.BMP,resources/DR.BMP,WildCard_Ex,-0.344839188,-0.024215645,1,0,0,1.4518,optionLeft,95,1155,1,20,0,20,0,1,,,,,,,,,,,,,,,,,,,,,,,,,,,,,,,,,,,,,,,
,,,,,,,,2023-08-16_08h26.36.071,HF_wild_card,2022.2.4,Linux x86_64,60.06006006,62a12f67f0da767bd2c0222f,64d2fd46c836a06233681665,64dc7a124d2b9397b5c54744,,,,,,,ctch,resources/DR.BMP,resources/DG.BMP,Door3,0.35795409,-0.027935068,1,0,0,2.2676,optionRight,70,1225,1,21,0,21,0,1,,,,,,,,,,,,,,,,,,,,,,,,,,,,,,,,,,,,,,,
,,,,,,,,2023-08-16_08h26.36.071,HF_wild_card,2022.2.4,Linux x86_64,60.06006006,62a12f67f0da767bd2c0222f,64d2fd46c836a06233681665,64dc7a124d2b9397b5c54744,,,,,,,decisionTrl,resources/DP.BMP,resources/DY.BMP,WildCard_Ex,-0.415807046,-0.038301206,1,0,0,2.0502,optionLeft,95,1320,1,22,0,22,0,1,,,,,,,,,,,,,,,,,,,,,,,,,,,,,,,,,,,,,,,
,,,,,,,,2023-08-16_08h26.36.071,HF_wild_card,2022.2.4,Linux x86_64,60.06006006,62a12f67f0da767bd2c0222f,64d2fd46c836a06233681665,64dc7a124d2b9397b5c54744,,,,,,,decisionTrl,resources/DB.BMP,resources/DG.BMP,Door3,0.325005123,-0.049808122,1,0,0,2.2034,optionRight,70,1390,1,23,0,23,0,1,,,,,,,,,,,,,,,,,,,,,,,,,,,,,,,,,,,,,,,
,,,,,,,,2023-08-16_08h26.36.071,HF_wild_card,2022.2.4,Linux x86_64,60.06006006,62a12f67f0da767bd2c0222f,64d2fd46c836a06233681665,64dc7a124d2b9397b5c54744,,,,,,,decisionTrl,resources/DB.BMP,resources/DG.BMP,Door4,-0.360763639,-0.108423123,1,0,0,2.2359,optionLeft,60,1450,1,24,0,24,0,1,,,,,,,,,,,,,,,,,,,,,,,,,,,,,,,,,,,,,,,
,,,,,,,,2023-08-16_08h26.36.071,HF_wild_card,2022.2.4,Linux x86_64,60.06006006,62a12f67f0da767bd2c0222f,64d2fd46c836a06233681665,64dc7a124d2b9397b5c54744,,,,,,,decisionTrl,resources/DP.BMP,resources/DG.BMP,WildCard_Ex,-0.380780738,-0.033713731,1,0,0,1.1702,optionLeft,95,1545,1,25,0,25,0,1,,,,,,,,,,,,,,,,,,,,,,,,,,,,,,,,,,,,,,,
,,,,,,,,2023-08-16_08h26.36.071,HF_wild_card,2022.2.4,Linux x86_64,60.06006006,62a12f67f0da767bd2c0222f,64d2fd46c836a06233681665,64dc7a124d2b9397b5c54744,,,,,,,ctch,resources/DY.BMP,resources/DB.BMP,Door4,0.358417471,-0.009712318,1,0,0,1.0405,optionRight,80,1625,1,26,0,26,0,1,,,,,,,,,,,,,,,,,,,,,,,,,,,,,,,,,,,,,,,
,,,,,,,,2023-08-16_08h26.36.071,HF_wild_card,2022.2.4,Linux x86_64,60.06006006,62a12f67f0da767bd2c0222f,64d2fd46c836a06233681665,64dc7a124d2b9397b5c54744,,,,,,,decisionTrl,resources/DG.BMP,resources/DB.BMP,Door4,0.457204839,-0.07810289,1,0,0,1.3237,optionRight,60,1685,1,27,0,27,0,1,,,,,,,,,,,,,,,,,,,,,,,,,,,,,,,,,,,,,,,
,,,,,,,,2023-08-16_08h26.36.071,HF_wild_card,2022.2.4,Linux x86_64,60.06006006,62a12f67f0da767bd2c0222f,64d2fd46c836a06233681665,64dc7a124d2b9397b5c54744,,,,,,,sngl,resources/DB.BMP,resources/Empty.png,Door4,-0.468065698,-0.119413959,1,0,0,0.8397,optionLeft,80,1765,1,28,0,28,0,1,,,,,,,,,,,,,,,,,,,,,,,,,,,,,,,,,,,,,,,
,,,,,,,,2023-08-16_08h26.36.071,HF_wild_card,2022.2.4,Linux x86_64,60.06006006,62a12f67f0da767bd2c0222f,64d2fd46c836a06233681665,64dc7a124d2b9397b5c54744,,,,,,,sngl,resources/DY.BMP,resources/Empty.png,Door1,-0.356398123,-0.027817363,1,0,0,1.0534,optionLeft,30,1795,1,29,0,29,0,1,,,,,,,,,,,,,,,,,,,,,,,,,,,,,,,,,,,,,,,
,,,,,,,,2023-08-16_08h26.36.071,HF_wild_card,2022.2.4,Linux x86_64,60.06006006,62a12f67f0da767bd2c0222f,64d2fd46c836a06233681665,64dc7a124d2b9397b5c54744,,,,,,,sngl,resources/Empty.png,resources/DP.BMP,WildCard_Ex,0.452351506,-0.03349814,1,0,0,1.0648,optionRight,5,1800,1,30,0,30,0,1,,,,,,,,,,,,,,,,,,,,,,,,,,,,,,,,,,,,,,,
,,,,,,,,2023-08-16_08h26.36.071,HF_wild_card,2022.2.4,Linux x86_64,60.06006006,62a12f67f0da767bd2c0222f,64d2fd46c836a06233681665,64dc7a124d2b9397b5c54744,,,,,,,decisionTrl,resources/DY.BMP,resources/DP.BMP,WildCard_Ex,0.431578373,-0.041198838,1,0,0,1.6504,optionRight,5,1805,1,31,0,31,0,1,,,,,,,,,,,,,,,,,,,,,,,,,,,,,,,,,,,,,,,
,,,,,,,,2023-08-16_08h26.36.071,HF_wild_card,2022.2.4,Linux x86_64,60.06006006,62a12f67f0da767bd2c0222f,64d2fd46c836a06233681665,64dc7a124d2b9397b5c54744,,,,,,,sngl,resources/DG.BMP,resources/Empty.png,Door3,-0.336823118,0.033929966,1,0,0,0.8772,optionLeft,70,1875,1,32,0,32,0,1,,,,,,,,,,,,,,,,,,,,,,,,,,,,,,,,,,,,,,,
,,,,,,,,2023-08-16_08h26.36.071,HF_wild_card,2022.2.4,Linux x86_64,60.06006006,62a12f67f0da767bd2c0222f,64d2fd46c836a06233681665,64dc7a124d2b9397b5c54744,,,,,,,decisionTrl,resources/DG.BMP,resources/DP.BMP,Door3,-0.285383933,0.011241059,1,0,0,1.1709,optionLeft,70,1945,1,33,0,33,0,1,,,,,,,,,,,,,,,,,,,,,,,,,,,,,,,,,,,,,,,
,,,,,,,,2023-08-16_08h26.36.071,HF_wild_card,2022.2.4,Linux x86_64,60.06006006,62a12f67f0da767bd2c0222f,64d2fd46c836a06233681665,64dc7a124d2b9397b5c54744,,,,,,,decisionTrl,resources/DG.BMP,resources/DB.BMP,Door3,-0.392269872,0.035341001,1,0,0,1.6157,optionLeft,70,2015,1,34,0,34,0,1,,,,,,,,,,,,,,,,,,,,,,,,,,,,,,,,,,,,,,,
,,,,,,,,2023-08-16_08h26.36.071,HF_wild_card,2022.2.4,Linux x86_64,60.06006006,62a12f67f0da767bd2c0222f,64d2fd46c836a06233681665,64dc7a124d2b9397b5c54744,,,,,,,decisionTrl,resources/DB.BMP,resources/DG.BMP,Door4,-0.362843843,-0.030251184,1,0,0,1.4689,optionLeft,80,2095,1,35,0,35,0,1,,,,,,,,,,,,,,,,,,,,,,,,,,,,,,,,,,,,,,,
,,,,,,,,2023-08-16_08h26.36.071,HF_wild_card,2022.2.4,Linux x86_64,60.06006006,62a12f67f0da767bd2c0222f,64d2fd46c836a06233681665,64dc7a124d2b9397b5c54744,,,,,,,decisionTrl,resources/DG.BMP,resources/DB.BMP,Door4,0.430288693,-0.039230114,1,0,0,1.1655,optionRight,60,2155,1,36,0,36,0,1,,,,,,,,,,,,,,,,,,,,,,,,,,,,,,,,,,,,,,,
,,,,,,,,2023-08-16_08h26.36.071,HF_wild_card,2022.2.4,Linux x86_64,60.06006006,62a12f67f0da767bd2c0222f,64d2fd46c836a06233681665,64dc7a124d2b9397b5c54744,,,,,,,decisionTrl,resources/DG.BMP,resources/DB.BMP,Door4,0.277404928,-0.019867015,1,0,0,1.2214,optionRight,80,2235,1,37,0,37,0,1,,,,,,,,,,,,,,,,,,,,,,,,,,,,,,,,,,,,,,,
,,,,,,,,2023-08-16_08h26.36.071,HF_wild_card,2022.2.4,Linux x86_64,60.06006006,62a12f67f0da767bd2c0222f,64d2fd46c836a06233681665,64dc7a124d2b9397b5c54744,,,,,,,decisionTrl,resources/DR.BMP,resources/DY.BMP,Door2,-0.514670905,-0.01853959,1,0,0,1.0717,optionLeft,20,2255,1,38,0,38,0,1,,,,,,,,,,,,,,,,,,,,,,,,,,,,,,,,,,,,,,,
,,,,,,,,2023-08-16_08h26.36.071,HF_wild_card,2022.2.4,Linux x86_64,60.06006006,62a12f67f0da767bd2c0222f,64d2fd46c836a06233681665,64dc7a124d2b9397b5c54744,,,,,,,ctch,resources/DB.BMP,resources/DY.BMP,Door4,-0.480224073,-0.099593383,1,0,0,1.2703,optionLeft,80,2335,1,39,0,39,0,1,,,,,,,,,,,,,,,,,,,,,,,,,,,,,,,,,,,,,,,
,,,,,,,,2023-08-16_08h26.36.071,HF_wild_card,2022.2.4,Linux x86_64,60.06006006,62a12f67f0da767bd2c0222f,64d2fd46c836a06233681665,64dc7a124d2b9397b5c54744,,,,,,,ctch,resources/DR.BMP,resources/DG.BMP,Door3,0.409272278,-0.048951555,1,0,0,0.9372,optionRight,70,2405,1,40,0,40,0,1,,,,,,,,,,,,,,,,,,,,,,,,,,,,,,,,,,,,,,,
,,,,,,,,2023-08-16_08h26.36.071,HF_wild_card,2022.2.4,Linux x86_64,60.06006006,62a12f67f0da767bd2c0222f,64d2fd46c836a06233681665,64dc7a124d2b9397b5c54744,,,,,,,sngl,resources/Empty.png,resources/DG.BMP,Door3,0.459408687,-0.041533279,1,0,0,1.1686,optionRight,70,2475,1,41,0,41,0,1,,,,,,,,,,,,,,,,,,,,,,,,,,,,,,,,,,,,,,,
,,,,,,,,2023-08-16_08h26.36.071,HF_wild_card,2022.2.4,Linux x86_64,60.06006006,62a12f67f0da767bd2c0222f,64d2fd46c836a06233681665,64dc7a124d2b9397b5c54744,,,,,,,decisionTrl,resources/DY.BMP,resources/DR.BMP,Door1,-0.46430277,0.013112756,1,0,0,0.9868,optionLeft,30,2505,1,42,0,42,0,1,,,,,,,,,,,,,,,,,,,,,,,,,,,,,,,,,,,,,,,
,,,,,,,,2023-08-16_08h26.36.071,HF_wild_card,2022.2.4,Linux x86_64,60.06006006,62a12f67f0da767bd2c0222f,64d2fd46c836a06233681665,64dc7a124d2b9397b5c54744,,,,,,,decisionTrl,resources/DY.BMP,resources/DR.BMP,Door2,0.458369873,-0.018801869,1,0,0,0.8672,optionRight,40,2545,1,43,0,43,0,1,,,,,,,,,,,,,,,,,,,,,,,,,,,,,,,,,,,,,,,
,,,,,,,,2023-08-16_08h26.36.071,HF_wild_card,2022.2.4,Linux x86_64,60.06006006,62a12f67f0da767bd2c0222f,64d2fd46c836a06233681665,64dc7a124d2b9397b5c54744,,,,,,,,,,,,,,,,,,,,,,,,,,0,0,0,0,1,,,,,,,,,,,,,,,,,,,,,,,,,,,,,,,,,,
,,,,,,,,2023-08-16_08h26.36.071,HF_wild_card,2022.2.4,Linux x86_64,60.06006006,62a12f67f0da767bd2c0222f,64d2fd46c836a06233681665,64dc7a124d2b9397b5c54744,,,,,,,ctch,resources/DB.BMP,resources/DY.BMP,Door4,-0.454504445,-0.069849978,1,0,0,1.3993,optionLeft,60,2605,2,0,0,0,0,1,,,,,,,,,,,,,,,,,,,,,,,,,,,,,,,,,,,,,,,
,,,,,,,,2023-08-16_08h26.36.071,HF_wild_card,2022.2.4,Linux x86_64,60.06006006,62a12f67f0da767bd2c0222f,64d2fd46c836a06233681665,64dc7a124d2b9397b5c54744,,,,,,,decisionTrl,resources/DB.BMP,resources/DG.BMP,Door3,0.417048715,0.00517976,1,0,0,0.8649,optionRight,70,2675,2,1,0,1,0,1,,,,,,,,,,,,,,,,,,,,,,,,,,,,,,,,,,,,,,,
,,,,,,,,2023-08-16_08h26.36.071,HF_wild_card,2022.2.4,Linux x86_64,60.06006006,62a12f67f0da767bd2c0222f,64d2fd46c836a06233681665,64dc7a124d2b9397b5c54744,,,,,,,ctch,resources/DR.BMP,resources/DG.BMP,Door2,-0.337496186,-0.042611269,1,0,0,1.1383,optionLeft,20,2695,2,2,0,2,0,1,,,,,,,,,,,,,,,,,,,,,,,,,,,,,,,,,,,,,,,
,,,,,,,,2023-08-16_08h26.36.071,HF_wild_card,2022.2.4,Linux x86_64,60.06006006,62a12f67f0da767bd2c0222f,64d2fd46c836a06233681665,64dc7a124d2b9397b5c54744,,,,,,,decisionTrl,resources/DY.BMP,resources/DR.BMP,Door1,-0.346577438,0.018504063,1,0,0,1.9335,optionLeft,30,2725,2,3,0,3,0,1,,,,,,,,,,,,,,,,,,,,,,,,,,,,,,,,,,,,,,,
,,,,,,,,2023-08-16_08h26.36.071,HF_wild_card,2022.2.4,Linux x86_64,60.06006006,62a12f67f0da767bd2c0222f,64d2fd46c836a06233681665,64dc7a124d2b9397b5c54744,,,,,,,decisionTrl,resources/DY.BMP,resources/DR.BMP,Door2,0.351094826,-0.034617595,1,0,0,0.9047,optionRight,20,2745,2,4,0,4,0,1,,,,,,,,,,,,,,,,,,,,,,,,,,,,,,,,,,,,,,,
,,,,,,,,2023-08-16_08h26.36.071,HF_wild_card,2022.2.4,Linux x86_64,60.06006006,62a12f67f0da767bd2c0222f,64d2fd46c836a06233681665,64dc7a124d2b9397b5c54744,,,,,,,sngl,resources/Empty.png,resources/DP.BMP,WildCard_Ex,0.342938869,-0.001921999,1,0,0,1.3535,optionRight,5,2750,2,5,0,5,0,1,,,,,,,,,,,,,,,,,,,,,,,,,,,,,,,,,,,,,,,
,,,,,,,,2023-08-16_08h26.36.071,HF_wild_card,2022.2.4,Linux x86_64,60.06006006,62a12f67f0da767bd2c0222f,64d2fd46c836a06233681665,64dc7a124d2b9397b5c54744,,,,,,,sngl,resources/Empty.png,resources/DR.BMP,Door2,0.328562335,-0.063770755,1,0,0,1.0751,optionRight,40,2790,2,6,0,6,0,1,,,,,,,,,,,,,,,,,,,,,,,,,,,,,,,,,,,,,,,
,,,,,,,,2023-08-16_08h26.36.071,HF_wild_card,2022.2.4,Linux x86_64,60.06006006,62a12f67f0da767bd2c0222f,64d2fd46c836a06233681665,64dc7a124d2b9397b5c54744,,,,,,,ctch,resources/DG.BMP,resources/DR.BMP,Door3,-0.469689963,-0.017449615,1,0,0,0.9388,optionLeft,70,2860,2,7,0,7,0,1,,,,,,,,,,,,,,,,,,,,,,,,,,,,,,,,,,,,,,,
,,,,,,,,2023-08-16_08h26.36.071,HF_wild_card,2022.2.4,Linux x86_64,60.06006006,62a12f67f0da767bd2c0222f,64d2fd46c836a06233681665,64dc7a124d2b9397b5c54744,,,,,,,sngl,resources/DR.BMP,resources/Empty.png,Door2,-0.319239126,0.009922971,1,0,0,0.9085,optionLeft,20,2880,2,8,0,8,0,1,,,,,,,,,,,,,,,,,,,,,,,,,,,,,,,,,,,,,,,
,,,,,,,,2023-08-16_08h26.36.071,HF_wild_card,2022.2.4,Linux x86_64,60.06006006,62a12f67f0da767bd2c0222f,64d2fd46c836a06233681665,64dc7a124d2b9397b5c54744,,,,,,,decisionTrl,resources/DR.BMP,resources/DY.BMP,Door1,0.417943706,-0.072078835,1,0,0,0.9065,optionRight,30,2910,2,9,0,9,0,1,,,,,,,,,,,,,,,,,,,,,,,,,,,,,,,,,,,,,,,
,,,,,,,,2023-08-16_08h26.36.071,HF_wild_card,2022.2.4,Linux x86_64,60.06006006,62a12f67f0da767bd2c0222f,64d2fd46c836a06233681665,64dc7a124d2b9397b5c54744,,,,,,,sngl,resources/Empty.png,resources/DB.BMP,Door4,0.53394442,-0.052339328,1,0,0,1.552,optionRight,80,2990,2,10,0,10,0,1,,,,,,,,,,,,,,,,,,,,,,,,,,,,,,,,,,,,,,,
,,,,,,,,2023-08-16_08h26.36.071,HF_wild_card,2022.2.4,Linux x86_64,60.06006006,62a12f67f0da767bd2c0222f,64d2fd46c836a06233681665,64dc7a124d2b9397b5c54744,,,,,,,decisionTrl,resources/DB.BMP,resources/DG.BMP,Door4,-0.506129382,-0.020356334,1,0,0,1.0207,optionLeft,80,3070,2,11,0,11,0,1,,,,,,,,,,,,,,,,,,,,,,,,,,,,,,,,,,,,,,,
,,,,,,,,2023-08-16_08h26.36.071,HF_wild_card,2022.2.4,Linux x86_64,60.06006006,62a12f67f0da767bd2c0222f,64d2fd46c836a06233681665,64dc7a124d2b9397b5c54744,,,,,,,sngl,resources/DG.BMP,resources/Empty.png,Door3,-0.426717027,0.075250695,1,0,0,1.12,optionLeft,70,3140,2,12,0,12,0,1,,,,,,,,,,,,,,,,,,,,,,,,,,,,,,,,,,,,,,,
,,,,,,,,2023-08-16_08h26.36.071,HF_wild_card,2022.2.4,Linux x86_64,60.06006006,62a12f67f0da767bd2c0222f,64d2fd46c836a06233681665,64dc7a124d2b9397b5c54744,,,,,,,decisionTrl,resources/DY.BMP,resources/DR.BMP,Door2,0.343839013,-0.021112941,1,0,0,1.1378,optionRight,40,3180,2,13,0,13,0,1,,,,,,,,,,,,,,,,,,,,,,,,,,,,,,,,,,,,,,,
,,,,,,,,2023-08-16_08h26.36.071,HF_wild_card,2022.2.4,Linux x86_64,60.06006006,62a12f67f0da767bd2c0222f,64d2fd46c836a06233681665,64dc7a124d2b9397b5c54744,,,,,,,decisionTrl,resources/DP.BMP,resources/DG.BMP,WildCard_Ex,-0.366004541,-0.02628093,1,0,0,1.0046,optionLeft,5,3185,2,14,0,14,0,1,,,,,,,,,,,,,,,,,,,,,,,,,,,,,,,,,,,,,,,
,,,,,,,,2023-08-16_08h26.36.071,HF_wild_card,2022.2.4,Linux x86_64,60.06006006,62a12f67f0da767bd2c0222f,64d2fd46c836a06233681665,64dc7a124d2b9397b5c54744,,,,,,,decisionTrl,resources/DP.BMP,resources/DY.BMP,Door1,0.352756299,0.031005716,1,0,0,0.7882,optionRight,30,3215,2,15,0,15,0,1,,,,,,,,,,,,,,,,,,,,,,,,,,,,,,,,,,,,,,,
,,,,,,,,2023-08-16_08h26.36.071,HF_wild_card,2022.2.4,Linux x86_64,60.06006006,62a12f67f0da767bd2c0222f,64d2fd46c836a06233681665,64dc7a124d2b9397b5c54744,,,,,,,decisionTrl,resources/DG.BMP,resources/DB.BMP,Door4,0.351126024,-0.044569939,1,0,0,1.203,optionRight,80,3295,2,16,0,16,0,1,,,,,,,,,,,,,,,,,,,,,,,,,,,,,,,,,,,,,,,
,,,,,,,,2023-08-16_08h26.36.071,HF_wild_card,2022.2.4,Linux x86_64,60.06006006,62a12f67f0da767bd2c0222f,64d2fd46c836a06233681665,64dc7a124d2b9397b5c54744,,,,,,,ctch,resources/DG.BMP,resources/DR.BMP,Door3,-0.329629127,-0.00172122,1,0,0,0.9185,optionLeft,70,3365,2,17,0,17,0,1,,,,,,,,,,,,,,,,,,,,,,,,,,,,,,,,,,,,,,,
,,,,,,,,2023-08-16_08h26.36.071,HF_wild_card,2022.2.4,Linux x86_64,60.06006006,62a12f67f0da767bd2c0222f,64d2fd46c836a06233681665,64dc7a124d2b9397b5c54744,,,,,,,decisionTrl,resources/DB.BMP,resources/DG.BMP,Door4,-0.474314861,-0.088309213,1,0,0,1.3701,optionLeft,80,3445,2,18,0,18,0,1,,,,,,,,,,,,,,,,,,,,,,,,,,,,,,,,,,,,,,,
,,,,,,,,2023-08-16_08h26.36.071,HF_wild_card,2022.2.4,Linux x86_64,60.06006006,62a12f67f0da767bd2c0222f,64d2fd46c836a06233681665,64dc7a124d2b9397b5c54744,,,,,,,decisionTrl,resources/DG.BMP,resources/DP.BMP,WildCard_Ex,0.365189582,-0.05122964,1,0,0,0.9071,optionRight,95,3540,2,19,0,19,0,1,,,,,,,,,,,,,,,,,,,,,,,,,,,,,,,,,,,,,,,
,,,,,,,,2023-08-16_08h26.36.071,HF_wild_card,2022.2.4,Linux x86_64,60.06006006,62a12f67f0da767bd2c0222f,64d2fd46c836a06233681665,64dc7a124d2b9397b5c54744,,,,,,,ctch,resources/DY.BMP,resources/DB.BMP,Door1,-0.378752553,0.007322287,1,0,0,1.4221,optionLeft,30,3570,2,20,0,20,0,1,,,,,,,,,,,,,,,,,,,,,,,,,,,,,,,,,,,,,,,
,,,,,,,,2023-08-16_08h26.36.071,HF_wild_card,2022.2.4,Linux x86_64,60.06006006,62a12f67f0da767bd2c0222f,64d2fd46c836a06233681665,64dc7a124d2b9397b5c54744,,,,,,,decisionTrl,resources/DR.BMP,resources/DP.BMP,WildCard_Ex,0.386792021,-0.070070649,1,0,0,1.2051,optionRight,95,3665,2,21,0,21,0,1,,,,,,,,,,,,,,,,,,,,,,,,,,,,,,,,,,,,,,,
,,,,,,,,2023-08-16_08h26.36.071,HF_wild_card,2022.2.4,Linux x86_64,60.06006006,62a12f67f0da767bd2c0222f,64d2fd46c836a06233681665,64dc7a124d2b9397b5c54744,,,,,,,decisionTrl,resources/DY.BMP,resources/DP.BMP,WildCard_Ex,0.410028169,-0.042298508,1,0,0,0.9878,optionRight,5,3670,2,22,0,22,0,1,,,,,,,,,,,,,,,,,,,,,,,,,,,,,,,,,,,,,,,
,,,,,,,,2023-08-16_08h26.36.071,HF_wild_card,2022.2.4,Linux x86_64,60.06006006,62a12f67f0da767bd2c0222f,64d2fd46c836a06233681665,64dc7a124d2b9397b5c54744,,,,,,,decisionTrl,resources/DG.BMP,resources/DB.BMP,Door4,0.282139697,-0.022389527,1,0,0,1.7025,optionRight,80,3750,2,23,0,23,0,1,,,,,,,,,,,,,,,,,,,,,,,,,,,,,,,,,,,,,,,
,,,,,,,,2023-08-16_08h26.36.071,HF_wild_card,2022.2.4,Linux x86_64,60.06006006,62a12f67f0da767bd2c0222f,64d2fd46c836a06233681665,64dc7a124d2b9397b5c54744,,,,,,,decisionTrl,resources/DR.BMP,resources/DY.BMP,Door2,-0.330396467,-0.015972714,1,0,0,1.4848,optionLeft,20,3770,2,24,0,24,0,1,,,,,,,,,,,,,,,,,,,,,,,,,,,,,,,,,,,,,,,
,,,,,,,,2023-08-16_08h26.36.071,HF_wild_card,2022.2.4,Linux x86_64,60.06006006,62a12f67f0da767bd2c0222f,64d2fd46c836a06233681665,64dc7a124d2b9397b5c54744,,,,,,,decisionTrl,resources/DR.BMP,resources/DY.BMP,Door1,0.401565391,-0.063682637,1,0,0,1.5038,optionRight,30,3800,2,25,0,25,0,1,,,,,,,,,,,,,,,,,,,,,,,,,,,,,,,,,,,,,,,
,,,,,,,,2023-08-16_08h26.36.071,HF_wild_card,2022.2.4,Linux x86_64,60.06006006,62a12f67f0da767bd2c0222f,64d2fd46c836a06233681665,64dc7a124d2b9397b5c54744,,,,,,,decisionTrl,resources/DY.BMP,resources/DR.BMP,Door1,-0.350381044,-0.048739184,1,0,0,1.0708,optionLeft,30,3830,2,26,0,26,0,1,,,,,,,,,,,,,,,,,,,,,,,,,,,,,,,,,,,,,,,
,,,,,,,,2023-08-16_08h26.36.071,HF_wild_card,2022.2.4,Linux x86_64,60.06006006,62a12f67f0da767bd2c0222f,64d2fd46c836a06233681665,64dc7a124d2b9397b5c54744,,,,,,,ctch,resources/DY.BMP,resources/DB.BMP,Door4,0.366178595,-0.045556269,1,0,0,0.9051,optionRight,80,3910,2,27,0,27,0,1,,,,,,,,,,,,,,,,,,,,,,,,,,,,,,,,,,,,,,,
,,,,,,,,2023-08-16_08h26.36.071,HF_wild_card,2022.2.4,Linux x86_64,60.06006006,62a12f67f0da767bd2c0222f,64d2fd46c836a06233681665,64dc7a124d2b9397b5c54744,,,,,,,decisionTrl,resources/DP.BMP,resources/DR.BMP,WildCard_Ex,-0.427572592,-0.038014205,1,0,0,1.3411,optionLeft,5,3915,2,28,0,28,0,1,,,,,,,,,,,,,,,,,,,,,,,,,,,,,,,,,,,,,,,
,,,,,,,,2023-08-16_08h26.36.071,HF_wild_card,2022.2.4,Linux x86_64,60.06006006,62a12f67f0da767bd2c0222f,64d2fd46c836a06233681665,64dc7a124d2b9397b5c54744,,,,,,,decisionTrl,resources/DP.BMP,resources/DB.BMP,Door4,0.480753533,-0.027647173,1,0,0,1.5713,optionRight,60,3975,2,29,0,29,0,1,,,,,,,,,,,,,,,,,,,,,,,,,,,,,,,,,,,,,,,
,,,,,,,,2023-08-16_08h26.36.071,HF_wild_card,2022.2.4,Linux x86_64,60.06006006,62a12f67f0da767bd2c0222f,64d2fd46c836a06233681665,64dc7a124d2b9397b5c54744,,,,,,,decisionTrl,resources/DR.BMP,resources/DY.BMP,Door1,0.382583529,-0.034027744,1,0,0,2.0538,optionRight,30,4005,2,30,0,30,0,1,,,,,,,,,,,,,,,,,,,,,,,,,,,,,,,,,,,,,,,
,,,,,,,,2023-08-16_08h26.36.071,HF_wild_card,2022.2.4,Linux x86_64,60.06006006,62a12f67f0da767bd2c0222f,64d2fd46c836a06233681665,64dc7a124d2b9397b5c54744,,,,,,,sngl,resources/Empty.png,resources/DY.BMP,Door1,0.247909492,-0.089333824,1,0,0,0.9247,optionRight,30,4035,2,31,0,31,0,1,,,,,,,,,,,,,,,,,,,,,,,,,,,,,,,,,,,,,,,
,,,,,,,,2023-08-16_08h26.36.071,HF_wild_card,2022.2.4,Linux x86_64,60.06006006,62a12f67f0da767bd2c0222f,64d2fd46c836a06233681665,64dc7a124d2b9397b5c54744,,,,,,,decisionTrl,resources/DG.BMP,resources/DB.BMP,Door4,0.249629567,-0.058187147,1,0,0,1.1042,optionRight,80,4115,2,32,0,32,0,1,,,,,,,,,,,,,,,,,,,,,,,,,,,,,,,,,,,,,,,
,,,,,,,,2023-08-16_08h26.36.071,HF_wild_card,2022.2.4,Linux x86_64,60.06006006,62a12f67f0da767bd2c0222f,64d2fd46c836a06233681665,64dc7a124d2b9397b5c54744,,,,,,,sngl,resources/Empty.png,resources/DG.BMP,Door3,0.4305221,-0.007237424,1,0,0,1.2483,optionRight,70,4185,2,33,0,33,0,1,,,,,,,,,,,,,,,,,,,,,,,,,,,,,,,,,,,,,,,
,,,,,,,,2023-08-16_08h26.36.071,HF_wild_card,2022.2.4,Linux x86_64,60.06006006,62a12f67f0da767bd2c0222f,64d2fd46c836a06233681665,64dc7a124d2b9397b5c54744,,,,,,,ctch,resources/DR.BMP,resources/DG.BMP,Door2,-0.428181549,-0.02145214,1,0,0,2.882,optionLeft,20,4205,2,34,0,34,0,1,,,,,,,,,,,,,,,,,,,,,,,,,,,,,,,,,,,,,,,
,,,,,,,,2023-08-16_08h26.36.071,HF_wild_card,2022.2.4,Linux x86_64,60.06006006,62a12f67f0da767bd2c0222f,64d2fd46c836a06233681665,64dc7a124d2b9397b5c54744,,,,,,,decisionTrl,resources/DB.BMP,resources/DP.BMP,Door4,-0.324391158,-0.042262302,1,0,0,1.2869,optionLeft,80,4285,2,35,0,35,0,1,,,,,,,,,,,,,,,,,,,,,,,,,,,,,,,,,,,,,,,
,,,,,,,,2023-08-16_08h26.36.071,HF_wild_card,2022.2.4,Linux x86_64,60.06006006,62a12f67f0da767bd2c0222f,64d2fd46c836a06233681665,64dc7a124d2b9397b5c54744,,,,,,,decisionTrl,resources/DG.BMP,resources/DB.BMP,Door4,0.367354363,-0.071954868,1,0,0,0.8031,optionRight,80,4365,2,36,0,36,0,1,,,,,,,,,,,,,,,,,,,,,,,,,,,,,,,,,,,,,,,
,,,,,,,,2023-08-16_08h26.36.071,HF_wild_card,2022.2.4,Linux x86_64,60.06006006,62a12f67f0da767bd2c0222f,64d2fd46c836a06233681665,64dc7a124d2b9397b5c54744,,,,,,,sngl,resources/DB.BMP,resources/Empty.png,Door4,-0.329125497,-0.024745713,1,0,0,1.0218,optionLeft,60,4425,2,37,0,37,0,1,,,,,,,,,,,,,,,,,,,,,,,,,,,,,,,,,,,,,,,
,,,,,,,,2023-08-16_08h26.36.071,HF_wild_card,2022.2.4,Linux x86_64,60.06006006,62a12f67f0da767bd2c0222f,64d2fd46c836a06233681665,64dc7a124d2b9397b5c54744,,,,,,,sngl,resources/DP.BMP,resources/Empty.png,WildCard_Ex,-0.342361361,-0.041512135,1,0,0,1.1606,optionLeft,5,4430,2,38,0,38,0,1,,,,,,,,,,,,,,,,,,,,,,,,,,,,,,,,,,,,,,,
,,,,,,,,2023-08-16_08h26.36.071,HF_wild_card,2022.2.4,Linux x86_64,60.06006006,62a12f67f0da767bd2c0222f,64d2fd46c836a06233681665,64dc7a124d2b9397b5c54744,,,,,,,decisionTrl,resources/DB.BMP,resources/DG.BMP,Door4,-0.402979682,0.019353439,1,0,0,1.4739,optionLeft,80,4510,2,39,0,39,0,1,,,,,,,,,,,,,,,,,,,,,,,,,,,,,,,,,,,,,,,
,,,,,,,,2023-08-16_08h26.36.071,HF_wild_card,2022.2.4,Linux x86_64,60.06006006,62a12f67f0da767bd2c0222f,64d2fd46c836a06233681665,64dc7a124d2b9397b5c54744,,,,,,,sngl,resources/DY.BMP,resources/Empty.png,Door1,-0.357000246,0.018971916,1,0,0,1.3875,optionLeft,30,4540,2,40,0,40,0,1,,,,,,,,,,,,,,,,,,,,,,,,,,,,,,,,,,,,,,,
,,,,,,,,2023-08-16_08h26.36.071,HF_wild_card,2022.2.4,Linux x86_64,60.06006006,62a12f67f0da767bd2c0222f,64d2fd46c836a06233681665,64dc7a124d2b9397b5c54744,,,,,,,sngl,resources/DP.BMP,resources/Empty.png,WildCard_Ex,-0.35330397,0.000167972,1,0,0,1.1743,optionLeft,95,4635,2,41,0,41,0,1,,,,,,,,,,,,,,,,,,,,,,,,,,,,,,,,,,,,,,,
,,,,,,,,2023-08-16_08h26.36.071,HF_wild_card,2022.2.4,Linux x86_64,60.06006006,62a12f67f0da767bd2c0222f,64d2fd46c836a06233681665,64dc7a124d2b9397b5c54744,,,,,,,ctch,resources/DB.BMP,resources/DY.BMP,Door4,-0.322949605,0.01652958,1,0,0,1.464,optionLeft,80,4715,2,42,0,42,0,1,,,,,,,,,,,,,,,,,,,,,,,,,,,,,,,,,,,,,,,
,,,,,,,,2023-08-16_08h26.36.071,HF_wild_card,2022.2.4,Linux x86_64,60.06006006,62a12f67f0da767bd2c0222f,64d2fd46c836a06233681665,64dc7a124d2b9397b5c54744,,,,,,,sngl,resources/Empty.png,resources/DP.BMP,WildCard_Ex,0.36274145,-0.045272273,1,0,0,1.1364,optionRight,95,4810,2,43,0,43,0,1,,,,,,,,,,,,,,,,,,,,,,,,,,,,,,,,,,,,,,,
,,,,,,,,2023-08-16_08h26.36.071,HF_wild_card,2022.2.4,Linux x86_64,60.06006006,62a12f67f0da767bd2c0222f,64d2fd46c836a06233681665,64dc7a124d2b9397b5c54744,,,,,,,,,,,,,,,,,,,,,,,,,,1,0,1,0,1,,,,,,,,,,,,,,,,,,,,,,,,,,,,,,,,,,
,,,,,,,,2023-08-16_08h26.36.071,HF_wild_card,2022.2.4,Linux x86_64,60.06006006,62a12f67f0da767bd2c0222f,64d2fd46c836a06233681665,64dc7a124d2b9397b5c54744,,,,,,,sngl,resources/Empty.png,resources/DY.BMP,Door1,0.375111337,0.005510158,1,0,0,1.1827,optionRight,30,4840,3,0,0,0,0,1,,,,,,,,,,,,,,,,,,,,,,,,,,,,,,,,,,,,,,,
,,,,,,,,2023-08-16_08h26.36.071,HF_wild_card,2022.2.4,Linux x86_64,60.06006006,62a12f67f0da767bd2c0222f,64d2fd46c836a06233681665,64dc7a124d2b9397b5c54744,,,,,,,decisionTrl,resources/DG.BMP,resources/DP.BMP,WildCard_Ex,0.440780586,0.037622128,1,0,0,2.7755,optionRight,95,4935,3,1,0,1,0,1,,,,,,,,,,,,,,,,,,,,,,,,,,,,,,,,,,,,,,,
,,,,,,,,2023-08-16_08h26.36.071,HF_wild_card,2022.2.4,Linux x86_64,60.06006006,62a12f67f0da767bd2c0222f,64d2fd46c836a06233681665,64dc7a124d2b9397b5c54744,,,,,,,sngl,resources/Empty.png,resources/DR.BMP,Door2,0.409110137,-0.012412748,1,0,0,1.2027,optionRight,20,4955,3,2,0,2,0,1,,,,,,,,,,,,,,,,,,,,,,,,,,,,,,,,,,,,,,,
,,,,,,,,2023-08-16_08h26.36.071,HF_wild_card,2022.2.4,Linux x86_64,60.06006006,62a12f67f0da767bd2c0222f,64d2fd46c836a06233681665,64dc7a124d2b9397b5c54744,,,,,,,sngl,resources/Empty.png,resources/DB.BMP,Door4,0.281224384,-0.01715875,1,0,0,1.1547,optionRight,60,5015,3,3,0,3,0,1,,,,,,,,,,,,,,,,,,,,,,,,,,,,,,,,,,,,,,,
,,,,,,,,2023-08-16_08h26.36.071,HF_wild_card,2022.2.4,Linux x86_64,60.06006006,62a12f67f0da767bd2c0222f,64d2fd46c836a06233681665,64dc7a124d2b9397b5c54744,,,,,,,decisionTrl,resources/DY.BMP,resources/DR.BMP,Door1,-0.343721879,-0.031891764,1,0,0,1.9023,optionLeft,30,5045,3,4,0,4,0,1,,,,,,,,,,,,,,,,,,,,,,,,,,,,,,,,,,,,,,,
,,,,,,,,2023-08-16_08h26.36.071,HF_wild_card,2022.2.4,Linux x86_64,60.06006006,62a12f67f0da767bd2c0222f,64d2fd46c836a06233681665,64dc7a124d2b9397b5c54744,,,,,,,sngl,resources/DR.BMP,resources/Empty.png,Door2,-0.451995921,-0.008694576,1,0,0,1.045,optionLeft,40,5085,3,5,0,5,0,1,,,,,,,,,,,,,,,,,,,,,,,,,,,,,,,,,,,,,,,
,,,,,,,,2023-08-16_08h26.36.071,HF_wild_card,2022.2.4,Linux x86_64,60.06006006,62a12f67f0da767bd2c0222f,64d2fd46c836a06233681665,64dc7a124d2b9397b5c54744,,,,,,,ctch,resources/DB.BMP,resources/DY.BMP,Door4,-0.378657029,-0.014394458,1,0,0,1.1365,optionLeft,80,5165,3,6,0,6,0,1,,,,,,,,,,,,,,,,,,,,,,,,,,,,,,,,,,,,,,,
,,,,,,,,2023-08-16_08h26.36.071,HF_wild_card,2022.2.4,Linux x86_64,60.06006006,62a12f67f0da767bd2c0222f,64d2fd46c836a06233681665,64dc7a124d2b9397b5c54744,,,,,,,decisionTrl,resources/DP.BMP,resources/DG.BMP,WildCard_Ex,-0.338945539,-0.006650578,1,0,0,1.2531,optionLeft,5,5170,3,7,0,7,0,1,,,,,,,,,,,,,,,,,,,,,,,,,,,,,,,,,,,,,,,
,,,,,,,,2023-08-16_08h26.36.071,HF_wild_card,2022.2.4,Linux x86_64,60.06006006,62a12f67f0da767bd2c0222f,64d2fd46c836a06233681665,64dc7a124d2b9397b5c54744,,,,,,,decisionTrl,resources/DR.BMP,resources/DY.BMP,Door1,0.492799712,0.026901943,1,0,0,2.6186,optionRight,30,5200,3,8,0,8,0,1,,,,,,,,,,,,,,,,,,,,,,,,,,,,,,,,,,,,,,,
,,,,,,,,2023-08-16_08h26.36.071,HF_wild_card,2022.2.4,Linux x86_64,60.06006006,62a12f67f0da767bd2c0222f,64d2fd46c836a06233681665,64dc7a124d2b9397b5c54744,,,,,,,decisionTrl,resources/DY.BMP,resources/DR.BMP,Door2,0.454207176,0.045109059,1,0,0,1.8528,optionRight,20,5220,3,9,0,9,0,1,,,,,,,,,,,,,,,,,,,,,,,,,,,,,,,,,,,,,,,
,,,,,,,,2023-08-16_08h26.36.071,HF_wild_card,2022.2.4,Linux x86_64,60.06006006,62a12f67f0da767bd2c0222f,64d2fd46c836a06233681665,64dc7a124d2b9397b5c54744,,,,,,,decisionTrl,resources/DP.BMP,resources/DR.BMP,WildCard_Ex,-0.308734675,-0.016264474,1,0,0,1.3382,optionLeft,5,5225,3,10,0,10,0,1,,,,,,,,,,,,,,,,,,,,,,,,,,,,,,,,,,,,,,,
,,,,,,,,2023-08-16_08h26.36.071,HF_wild_card,2022.2.4,Linux x86_64,60.06006006,62a12f67f0da767bd2c0222f,64d2fd46c836a06233681665,64dc7a124d2b9397b5c54744,,,,,,,decisionTrl,resources/DP.BMP,resources/DY.BMP,Door1,0.451673608,-0.037745879,1,0,0,1.544,optionRight,30,5255,3,11,0,11,0,1,,,,,,,,,,,,,,,,,,,,,,,,,,,,,,,,,,,,,,,
,,,,,,,,2023-08-16_08h26.36.071,HF_wild_card,2022.2.4,Linux x86_64,60.06006006,62a12f67f0da767bd2c0222f,64d2fd46c836a06233681665,64dc7a124d2b9397b5c54744,,,,,,,decisionTrl,resources/DB.BMP,resources/DG.BMP,Door4,-0.326131555,-0.031202381,1,0,0,0.9884,optionLeft,60,5315,3,12,0,12,0,1,,,,,,,,,,,,,,,,,,,,,,,,,,,,,,,,,,,,,,,
,,,,,,,,2023-08-16_08h26.36.071,HF_wild_card,2022.2.4,Linux x86_64,60.06006006,62a12f67f0da767bd2c0222f,64d2fd46c836a06233681665,64dc7a124d2b9397b5c54744,,,,,,,decisionTrl,resources/DB.BMP,resources/DG.BMP,Door3,0.368170932,0.053529192,1,0,0,0.8729,optionRight,70,5385,3,13,0,13,0,1,,,,,,,,,,,,,,,,,,,,,,,,,,,,,,,,,,,,,,,
,,,,,,,,2023-08-16_08h26.36.071,HF_wild_card,2022.2.4,Linux x86_64,60.06006006,62a12f67f0da767bd2c0222f,64d2fd46c836a06233681665,64dc7a124d2b9397b5c54744,,,,,,,ctch,resources/DB.BMP,resources/DY.BMP,Door4,-0.344630251,-0.041652523,1,0,0,3.1178,optionLeft,80,5465,3,14,0,14,0,1,,,,,,,,,,,,,,,,,,,,,,,,,,,,,,,,,,,,,,,
,,,,,,,,2023-08-16_08h26.36.071,HF_wild_card,2022.2.4,Linux x86_64,60.06006006,62a12f67f0da767bd2c0222f,64d2fd46c836a06233681665,64dc7a124d2b9397b5c54744,,,,,,,sngl,resources/Empty.png,resources/DG.BMP,Door3,0.417439969,0.033298792,1,0,0,1.0709,optionRight,70,5535,3,15,0,15,0,1,,,,,,,,,,,,,,,,,,,,,,,,,,,,,,,,,,,,,,,
,,,,,,,,2023-08-16_08h26.36.071,HF_wild_card,2022.2.4,Linux x86_64,60.06006006,62a12f67f0da767bd2c0222f,64d2fd46c836a06233681665,64dc7a124d2b9397b5c54744,,,,,,,decisionTrl,resources/DG.BMP,resources/DB.BMP,Door4,0.447674911,-0.082257932,1,0,0,2.05,optionRight,80,5615,3,16,0,16,0,1,,,,,,,,,,,,,,,,,,,,,,,,,,,,,,,,,,,,,,,
,,,,,,,,2023-08-16_08h26.36.071,HF_wild_card,2022.2.4,Linux x86_64,60.06006006,62a12f67f0da767bd2c0222f,64d2fd46c836a06233681665,64dc7a124d2b9397b5c54744,,,,,,,decisionTrl,resources/DR.BMP,resources/DY.BMP,Door2,-0.333418065,-0.003695561,1,0,0,1.22,optionLeft,40,5655,3,17,0,17,0,1,,,,,,,,,,,,,,,,,,,,,,,,,,,,,,,,,,,,,,,
,,,,,,,,2023-08-16_08h26.36.071,HF_wild_card,2022.2.4,Linux x86_64,60.06006006,62a12f67f0da767bd2c0222f,64d2fd46c836a06233681665,64dc7a124d2b9397b5c54744,,,,,,,decisionTrl,resources/DG.BMP,resources/DB.BMP,Door4,0.373232056,-0.015800449,1,0,0,1.1652,optionRight,60,5715,3,18,0,18,0,1,,,,,,,,,,,,,,,,,,,,,,,,,,,,,,,,,,,,,,,
,,,,,,,,2023-08-16_08h26.36.071,HF_wild_card,2022.2.4,Linux x86_64,60.06006006,62a12f67f0da767bd2c0222f,64d2fd46c836a06233681665,64dc7a124d2b9397b5c54744,,,,,,,decisionTrl,resources/DR.BMP,resources/DY.BMP,Door1,0.422029126,0.028417482,1,0,0,1.6266,optionRight,30,5745,3,19,0,19,0,1,,,,,,,,,,,,,,,,,,,,,,,,,,,,,,,,,,,,,,,
,,,,,,,,2023-08-16_08h26.36.071,HF_wild_card,2022.2.4,Linux x86_64,60.06006006,62a12f67f0da767bd2c0222f,64d2fd46c836a06233681665,64dc7a124d2b9397b5c54744,,,,,,,decisionTrl,resources/DY.BMP,resources/DR.BMP,Door2,0.313758054,0.007103476,1,0,0,1.6551,optionRight,40,5785,3,20,0,20,0,1,,,,,,,,,,,,,,,,,,,,,,,,,,,,,,,,,,,,,,,
,,,,,,,,2023-08-16_08h26.36.071,HF_wild_card,2022.2.4,Linux x86_64,60.06006006,62a12f67f0da767bd2c0222f,64d2fd46c836a06233681665,64dc7a124d2b9397b5c54744,,,,,,,ctch,resources/DY.BMP,resources/DB.BMP,Door4,0.374957068,-0.006279931,1,0,0,1.1051,optionRight,60,5845,3,21,0,21,0,1,,,,,,,,,,,,,,,,,,,,,,,,,,,,,,,,,,,,,,,
,,,,,,,,2023-08-16_08h26.36.071,HF_wild_card,2022.2.4,Linux x86_64,60.06006006,62a12f67f0da767bd2c0222f,64d2fd46c836a06233681665,64dc7a124d2b9397b5c54744,,,,,,,decisionTrl,resources/DY.BMP,resources/DP.BMP,WildCard_Ex,0.304032857,0.039025078,1,0,0,3.3334,optionRight,95,5940,3,22,0,22,0,1,,,,,,,,,,,,,,,,,,,,,,,,,,,,,,,,,,,,,,,
,,,,,,,,2023-08-16_08h26.36.071,HF_wild_card,2022.2.4,Linux x86_64,60.06006006,62a12f67f0da767bd2c0222f,64d2fd46c836a06233681665,64dc7a124d2b9397b5c54744,,,,,,,ctch,resources/DG.BMP,resources/DR.BMP,Door3,-0.432029089,0.041570057,1,0,0,2.4344,optionLeft,70,6010,3,23,0,23,0,1,,,,,,,,,,,,,,,,,,,,,,,,,,,,,,,,,,,,,,,
,,,,,,,,2023-08-16_08h26.36.071,HF_wild_card,2022.2.4,Linux x86_64,60.06006006,62a12f67f0da767bd2c0222f,64d2fd46c836a06233681665,64dc7a124d2b9397b5c54744,,,,,,,decisionTrl,resources/DR.BMP,resources/DP.BMP,WildCard_Ex,0.351223623,-0.005612372,1,0,0,1.7814,optionRight,95,6105,3,24,0,24,0,1,,,,,,,,,,,,,,,,,,,,,,,,,,,,,,,,,,,,,,,
,,,,,,,,2023-08-16_08h26.36.071,HF_wild_card,2022.2.4,Linux x86_64,60.06006006,62a12f67f0da767bd2c0222f,64d2fd46c836a06233681665,64dc7a124d2b9397b5c54744,,,,,,,sngl,resources/DP.BMP,resources/Empty.png,WildCard_Ex,-0.292925675,-0.025695908,1,0,0,1.1539,optionLeft,95,6200,3,25,0,25,0,1,,,,,,,,,,,,,,,,,,,,,,,,,,,,,,,,,,,,,,,
,,,,,,,,2023-08-16_08h26.36.071,HF_wild_card,2022.2.4,Linux x86_64,60.06006006,62a12f67f0da767bd2c0222f,64d2fd46c836a06233681665,64dc7a124d2b9397b5c54744,,,,,,,sngl,resources/DG.BMP,resources/Empty.png,Door3,-0.401138502,-0.041027109,1,0,0,1.1532,optionLeft,70,6270,3,26,0,26,0,1,,,,,,,,,,,,,,,,,,,,,,,,,,,,,,,,,,,,,,,
,,,,,,,,2023-08-16_08h26.36.071,HF_wild_card,2022.2.4,Linux x86_64,60.06006006,62a12f67f0da767bd2c0222f,64d2fd46c836a06233681665,64dc7a124d2b9397b5c54744,,,,,,,ctch,resources/DR.BMP,resources/DG.BMP,Door3,0.474861816,0.027610215,1,0,0,1.0039,optionRight,70,6340,3,27,0,27,0,1,,,,,,,,,,,,,,,,,,,,,,,,,,,,,,,,,,,,,,,
,,,,,,,,2023-08-16_08h26.36.071,HF_wild_card,2022.2.4,Linux x86_64,60.06006006,62a12f67f0da767bd2c0222f,64d2fd46c836a06233681665,64dc7a124d2b9397b5c54744,,,,,,,ctch,resources/DR.BMP,resources/DG.BMP,Door3,0.337092946,-0.042197009,1,0,0,1.2254,optionRight,70,6410,3,28,0,28,0,1,,,,,,,,,,,,,,,,,,,,,,,,,,,,,,,,,,,,,,,
,,,,,,,,2023-08-16_08h26.36.071,HF_wild_card,2022.2.4,Linux x86_64,60.06006006,62a12f67f0da767bd2c0222f,64d2fd46c836a06233681665,64dc7a124d2b9397b5c54744,,,,,,,sngl,resources/DB.BMP,resources/Empty.png,Door4,-0.322277825,-0.063526614,1,0,0,1.1014,optionLeft,80,6490,3,29,0,29,0,1,,,,,,,,,,,,,,,,,,,,,,,,,,,,,,,,,,,,,,,
,,,,,,,,2023-08-16_08h26.36.071,HF_wild_card,2022.2.4,Linux x86_64,60.06006006,62a12f67f0da767bd2c0222f,64d2fd46c836a06233681665,64dc7a124d2b9397b5c54744,,,,,,,decisionTrl,resources/DG.BMP,resources/DB.BMP,Door4,0.309210041,-0.076752031,1,0,0,1.1366,optionRight,80,6570,3,30,0,30,0,1,,,,,,,,,,,,,,,,,,,,,,,,,,,,,,,,,,,,,,,
,,,,,,,,2023-08-16_08h26.36.071,HF_wild_card,2022.2.4,Linux x86_64,60.06006006,62a12f67f0da767bd2c0222f,64d2fd46c836a06233681665,64dc7a124d2b9397b5c54744,,,,,,,decisionTrl,resources/DY.BMP,resources/DR.BMP,Door1,-0.294188451,-0.031259731,1,0,0,1.1877,optionLeft,30,6600,3,31,0,31,0,1,,,,,,,,,,,,,,,,,,,,,,,,,,,,,,,,,,,,,,,
,,,,,,,,2023-08-16_08h26.36.071,HF_wild_card,2022.2.4,Linux x86_64,60.06006006,62a12f67f0da767bd2c0222f,64d2fd46c836a06233681665,64dc7a124d2b9397b5c54744,,,,,,,sngl,resources/Empty.png,resources/DP.BMP,WildCard_Ex,0.391193421,-0.03629853,1,0,0,1.154,optionRight,5,6605,3,32,0,32,0,1,,,,,,,,,,,,,,,,,,,,,,,,,,,,,,,,,,,,,,,
,,,,,,,,2023-08-16_08h26.36.071,HF_wild_card,2022.2.4,Linux x86_64,60.06006006,62a12f67f0da767bd2c0222f,64d2fd46c836a06233681665,64dc7a124d2b9397b5c54744,,,,,,,decisionTrl,resources/DB.BMP,resources/DG.BMP,Door4,-0.302063811,-0.076197706,1,0,0,1.4205,optionLeft,80,6685,3,33,0,33,0,1,,,,,,,,,,,,,,,,,,,,,,,,,,,,,,,,,,,,,,,
,,,,,,,,2023-08-16_08h26.36.071,HF_wild_card,2022.2.4,Linux x86_64,60.06006006,62a12f67f0da767bd2c0222f,64d2fd46c836a06233681665,64dc7a124d2b9397b5c54744,,,,,,,ctch,resources/DY.BMP,resources/DB.BMP,Door4,0.439272238,-0.050740357,1,0,0,0.9944,optionRight,80,6765,3,34,0,34,0,1,,,,,,,,,,,,,,,,,,,,,,,,,,,,,,,,,,,,,,,
,,,,,,,,2023-08-16_08h26.36.071,HF_wild_card,2022.2.4,Linux x86_64,60.06006006,62a12f67f0da767bd2c0222f,64d2fd46c836a06233681665,64dc7a124d2b9397b5c54744,,,,,,,decisionTrl,resources/DG.BMP,resources/DB.BMP,Door4,0.31500008,-0.031411139,1,0,0,1.3531,optionRight,80,6845,3,35,0,35,0,1,,,,,,,,,,,,,,,,,,,,,,,,,,,,,,,,,,,,,,,
,,,,,,,,2023-08-16_08h26.36.071,HF_wild_card,2022.2.4,Linux x86_64,60.06006006,62a12f67f0da767bd2c0222f,64d2fd46c836a06233681665,64dc7a124d2b9397b5c54744,,,,,,,ctch,resources/DG.BMP,resources/DR.BMP,Door3,-0.351162945,-0.048773387,1,0,0,2.0824,optionLeft,70,6915,3,36,0,36,0,1,,,,,,,,,,,,,,,,,,,,,,,,,,,,,,,,,,,,,,,
,,,,,,,,2023-08-16_08h26.36.071,HF_wild_card,2022.2.4,Linux x86_64,60.06006006,62a12f67f0da767bd2c0222f,64d2fd46c836a06233681665,64dc7a124d2b9397b5c54744,,,,,,,sngl,resources/DP.BMP,resources/Empty.png,WildCard_Ex,-0.381755619,-0.037320887,1,0,0,1.3707,optionLeft,5,6920,3,37,0,37,0,1,,,,,,,,,,,,,,,,,,,,,,,,,,,,,,,,,,,,,,,
,,,,,,,,2023-08-16_08h26.36.071,HF_wild_card,2022.2.4,Linux x86_64,60.06006006,62a12f67f0da767bd2c0222f,64d2fd46c836a06233681665,64dc7a124d2b9397b5c54744,,,,,,,decisionTrl,resources/DR.BMP,resources/DY.BMP,Door1,0.427698741,-0.002749873,1,0,0,2.9514,optionRight,30,6950,3,38,0,38,0,1,,,,,,,,,,,,,,,,,,,,,,,,,,,,,,,,,,,,,,,
,,,,,,,,2023-08-16_08h26.36.071,HF_wild_card,2022.2.4,Linux x86_64,60.06006006,62a12f67f0da767bd2c0222f,64d2fd46c836a06233681665,64dc7a124d2b9397b5c54744,,,,,,,decisionTrl,resources/DB.BMP,resources/DG.BMP,Door4,-0.376391823,0.001654103,1,0,0,1.0206,optionLeft,80,7030,3,39,0,39,0,1,,,,,,,,,,,,,,,,,,,,,,,,,,,,,,,,,,,,,,,
,,,,,,,,2023-08-16_08h26.36.071,HF_wild_card,2022.2.4,Linux x86_64,60.06006006,62a12f67f0da767bd2c0222f,64d2fd46c836a06233681665,64dc7a124d2b9397b5c54744,,,,,,,decisionTrl,resources/DB.BMP,resources/DP.BMP,Door4,-0.3928013,-0.062539855,1,0,0,1.2714,optionLeft,60,7090,3,40,0,40,0,1,,,,,,,,,,,,,,,,,,,,,,,,,,,,,,,,,,,,,,,
,,,,,,,,2023-08-16_08h26.36.071,HF_wild_card,2022.2.4,Linux x86_64,60.06006006,62a12f67f0da767bd2c0222f,64d2fd46c836a06233681665,64dc7a124d2b9397b5c54744,,,,,,,decisionTrl,resources/DP.BMP,resources/DB.BMP,WildCard_Ex,-0.388830903,-0.046267546,1,0,0,1.1837,optionLeft,95,7185,3,41,0,41,0,1,,,,,,,,,,,,,,,,,,,,,,,,,,,,,,,,,,,,,,,
,,,,,,,,2023-08-16_08h26.36.071,HF_wild_card,2022.2.4,Linux x86_64,60.06006006,62a12f67f0da767bd2c0222f,64d2fd46c836a06233681665,64dc7a124d2b9397b5c54744,,,,,,,sngl,resources/Empty.png,resources/DP.BMP,WildCard_Ex,0.39216841,-0.019088477,1,0,0,1.0033,optionRight,95,7280,3,42,0,42,0,1,,,,,,,,,,,,,,,,,,,,,,,,,,,,,,,,,,,,,,,
,,,,,,,,2023-08-16_08h26.36.071,HF_wild_card,2022.2.4,Linux x86_64,60.06006006,62a12f67f0da767bd2c0222f,64d2fd46c836a06233681665,64dc7a124d2b9397b5c54744,,,,,,,sngl,resources/DY.BMP,resources/Empty.png,Door1,-0.225554955,-0.040855059,1,0,0,1.2078,optionLeft,30,7310,3,43,0,43,0,1,,,,,,,,,,,,,,,,,,,,,,,,,,,,,,,,,,,,,,,
,,,,,,,,2023-08-16_08h26.36.071,HF_wild_card,2022.2.4,Linux x86_64,60.06006006,62a12f67f0da767bd2c0222f,64d2fd46c836a06233681665,64dc7a124d2b9397b5c54744,,,,,,,,,,,,,,,,,,,,,,,,,,2,0,2,0,1,,,,,,,,,,,,,,,,,,,,,,,,,,,,,,,,,,
,,,,,,,,2023-08-16_08h26.36.071,HF_wild_card,2022.2.4,Linux x86_64,60.06006006,62a12f67f0da767bd2c0222f,64d2fd46c836a06233681665,64dc7a124d2b9397b5c54744,,,,,,,sngl,resources/DBN.BMP,resources/Empty.png,WildCard_NonEx,-0.423280097,-0.094652862,1,0,0,2.2024,optionLeft,45,7355,4,0,0,0,0,1,,,,,,,,,,,,,,,,,,,,,,,,,,,,,,,,,,,,,,,
,,,,,,,,2023-08-16_08h26.36.071,HF_wild_card,2022.2.4,Linux x86_64,60.06006006,62a12f67f0da767bd2c0222f,64d2fd46c836a06233681665,64dc7a124d2b9397b5c54744,,,,,,,decisionTrl,resources/DBN.BMP,resources/DB.BMP,Door4,0.412161466,-0.030406849,1,0,0,1.1716,optionRight,60,7415,4,1,0,1,0,1,,,,,,,,,,,,,,,,,,,,,,,,,,,,,,,,,,,,,,,
,,,,,,,,2023-08-16_08h26.36.071,HF_wild_card,2022.2.4,Linux x86_64,60.06006006,62a12f67f0da767bd2c0222f,64d2fd46c836a06233681665,64dc7a124d2b9397b5c54744,,,,,,,decisionTrl,resources/DY.BMP,resources/DR.BMP,Door1,-0.240935886,0.009994632,1,0,0,1.9544,optionLeft,30,7445,4,2,0,2,0,1,,,,,,,,,,,,,,,,,,,,,,,,,,,,,,,,,,,,,,,
,,,,,,,,2023-08-16_08h26.36.071,HF_wild_card,2022.2.4,Linux x86_64,60.06006006,62a12f67f0da767bd2c0222f,64d2fd46c836a06233681665,64dc7a124d2b9397b5c54744,,,,,,,decisionTrl,resources/DR.BMP,resources/DBN.BMP,WildCard_NonEx,0.444713311,0.037860007,1,0,0,0.986,optionRight,55,7500,4,3,0,3,0,1,,,,,,,,,,,,,,,,,,,,,,,,,,,,,,,,,,,,,,,
,,,,,,,,2023-08-16_08h26.36.071,HF_wild_card,2022.2.4,Linux x86_64,60.06006006,62a12f67f0da767bd2c0222f,64d2fd46c836a06233681665,64dc7a124d2b9397b5c54744,,,,,,,decisionTrl,resources/DBN.BMP,resources/DY.BMP,WildCard_NonEx,-0.28622111,-0.028183001,1,0,0,1.255,optionLeft,45,7545,4,4,0,4,0,1,,,,,,,,,,,,,,,,,,,,,,,,,,,,,,,,,,,,,,,
,,,,,,,,2023-08-16_08h26.36.071,HF_wild_card,2022.2.4,Linux x86_64,60.06006006,62a12f67f0da767bd2c0222f,64d2fd46c836a06233681665,64dc7a124d2b9397b5c54744,,,,,,,sngl,resources/DY.BMP,resources/Empty.png,Door1,-0.297780224,-0.022157729,1,0,0,1.2038,optionLeft,30,7575,4,5,0,5,0,1,,,,,,,,,,,,,,,,,,,,,,,,,,,,,,,,,,,,,,,
,,,,,,,,2023-08-16_08h26.36.071,HF_wild_card,2022.2.4,Linux x86_64,60.06006006,62a12f67f0da767bd2c0222f,64d2fd46c836a06233681665,64dc7a124d2b9397b5c54744,,,,,,,decisionTrl,resources/DB.BMP,resources/DBN.BMP,Door4,-0.295770893,-0.048856854,1,0,0,1.2646,optionLeft,80,7655,4,6,0,6,0,1,,,,,,,,,,,,,,,,,,,,,,,,,,,,,,,,,,,,,,,
,,,,,,,,2023-08-16_08h26.36.071,HF_wild_card,2022.2.4,Linux x86_64,60.06006006,62a12f67f0da767bd2c0222f,64d2fd46c836a06233681665,64dc7a124d2b9397b5c54744,,,,,,,decisionTrl,resources/DY.BMP,resources/DR.BMP,Door1,-0.363661879,-0.044581423,1,0,0,1.5701,optionLeft,30,7685,4,7,0,7,0,1,,,,,,,,,,,,,,,,,,,,,,,,,,,,,,,,,,,,,,,
,,,,,,,,2023-08-16_08h26.36.071,HF_wild_card,2022.2.4,Linux x86_64,60.06006006,62a12f67f0da767bd2c0222f,64d2fd46c836a06233681665,64dc7a124d2b9397b5c54744,,,,,,,ctch,resources/DB.BMP,resources/DY.BMP,Door4,-0.347585627,-0.021269106,1,0,0,1.5034,optionLeft,80,7765,4,8,0,8,0,1,,,,,,,,,,,,,,,,,,,,,,,,,,,,,,,,,,,,,,,
,,,,,,,,2023-08-16_08h26.36.071,HF_wild_card,2022.2.4,Linux x86_64,60.06006006,62a12f67f0da767bd2c0222f,64d2fd46c836a06233681665,64dc7a124d2b9397b5c54744,,,,,,,decisionTrl,resources/DB.BMP,resources/DG.BMP,Door3,0.353929491,-0.002743469,1,0,0,2.1033,optionRight,70,7835,4,9,0,9,0,1,,,,,,,,,,,,,,,,,,,,,,,,,,,,,,,,,,,,,,,
,,,,,,,,2023-08-16_08h26.36.071,HF_wild_card,2022.2.4,Linux x86_64,60.06006006,62a12f67f0da767bd2c0222f,64d2fd46c836a06233681665,64dc7a124d2b9397b5c54744,,,,,,,sngl,resources/DB.BMP,resources/Empty.png,Door4,-0.329476253,-0.008127872,1,0,0,0.9542,optionLeft,60,7895,4,10,0,10,0,1,,,,,,,,,,,,,,,,,,,,,,,,,,,,,,,,,,,,,,,
,,,,,,,,2023-08-16_08h26.36.071,HF_wild_card,2022.2.4,Linux x86_64,60.06006006,62a12f67f0da767bd2c0222f,64d2fd46c836a06233681665,64dc7a124d2b9397b5c54744,,,,,,,decisionTrl,resources/DG.BMP,resources/DB.BMP,Door4,0.448108669,-0.014690976,1,0,0,1.3216,optionRight,60,7955,4,11,0,11,0,1,,,,,,,,,,,,,,,,,,,,,,,,,,,,,,,,,,,,,,,
,,,,,,,,2023-08-16_08h26.36.071,HF_wild_card,2022.2.4,Linux x86_64,60.06006006,62a12f67f0da767bd2c0222f,64d2fd46c836a06233681665,64dc7a124d2b9397b5c54744,,,,,,,ctch,resources/DB.BMP,resources/DY.BMP,Door4,-0.454902103,-0.046920794,1,0,0,0.9598,optionLeft,60,8015,4,12,0,12,0,1,,,,,,,,,,,,,,,,,,,,,,,,,,,,,,,,,,,,,,,
,,,,,,,,2023-08-16_08h26.36.071,HF_wild_card,2022.2.4,Linux x86_64,60.06006006,62a12f67f0da767bd2c0222f,64d2fd46c836a06233681665,64dc7a124d2b9397b5c54744,,,,,,,sngl,resources/DG.BMP,resources/Empty.png,Door3,-0.351437281,-0.00191123,1,0,0,1.0543,optionLeft,70,8085,4,13,0,13,0,1,,,,,,,,,,,,,,,,,,,,,,,,,,,,,,,,,,,,,,,
,,,,,,,,2023-08-16_08h26.36.071,HF_wild_card,2022.2.4,Linux x86_64,60.06006006,62a12f67f0da767bd2c0222f,64d2fd46c836a06233681665,64dc7a124d2b9397b5c54744,,,,,,,decisionTrl,resources/DG.BMP,resources/DBN.BMP,WildCard_NonEx,0.370381792,-0.009780115,1,0,0,1.0216,optionRight,55,8140,4,14,0,14,0,1,,,,,,,,,,,,,,,,,,,,,,,,,,,,,,,,,,,,,,,
,,,,,,,,2023-08-16_08h26.36.071,HF_wild_card,2022.2.4,Linux x86_64,60.06006006,62a12f67f0da767bd2c0222f,64d2fd46c836a06233681665,64dc7a124d2b9397b5c54744,,,,,,,sngl,resources/Empty.png,resources/DB.BMP,Door4,0.274628723,-0.015933897,1,0,0,1.457,optionRight,80,8220,4,15,0,15,0,1,,,,,,,,,,,,,,,,,,,,,,,,,,,,,,,,,,,,,,,
,,,,,,,,2023-08-16_08h26.36.071,HF_wild_card,2022.2.4,Linux x86_64,60.06006006,62a12f67f0da767bd2c0222f,64d2fd46c836a06233681665,64dc7a124d2b9397b5c54744,,,,,,,decisionTrl,resources/DBN.BMP,resources/DR.BMP,WildCard_NonEx,-0.459624278,0.029438014,1,0,0,1.2699,optionLeft,45,8265,4,16,0,16,0,1,,,,,,,,,,,,,,,,,,,,,,,,,,,,,,,,,,,,,,,
,,,,,,,,2023-08-16_08h26.36.071,HF_wild_card,2022.2.4,Linux x86_64,60.06006006,62a12f67f0da767bd2c0222f,64d2fd46c836a06233681665,64dc7a124d2b9397b5c54744,,,,,,,sngl,resources/DBN.BMP,resources/Empty.png,WildCard_NonEx,-0.29044978,0.01804308,1,0,0,0.9885,optionLeft,55,8320,4,17,0,17,0,1,,,,,,,,,,,,,,,,,,,,,,,,,,,,,,,,,,,,,,,
,,,,,,,,2023-08-16_08h26.36.071,HF_wild_card,2022.2.4,Linux x86_64,60.06006006,62a12f67f0da767bd2c0222f,64d2fd46c836a06233681665,64dc7a124d2b9397b5c54744,,,,,,,ctch,resources/DY.BMP,resources/DB.BMP,Door4,0.359958591,0.011238483,1,0,0,0.8736,optionRight,60,8380,4,18,0,18,0,1,,,,,,,,,,,,,,,,,,,,,,,,,,,,,,,,,,,,,,,
,,,,,,,,2023-08-16_08h26.36.071,HF_wild_card,2022.2.4,Linux x86_64,60.06006006,62a12f67f0da767bd2c0222f,64d2fd46c836a06233681665,64dc7a124d2b9397b5c54744,,,,,,,decisionTrl,resources/DY.BMP,resources/DR.BMP,Door2,0.436385912,-0.023156295,1,0,0,1.4202,optionRight,40,8420,4,19,0,19,0,1,,,,,,,,,,,,,,,,,,,,,,,,,,,,,,,,,,,,,,,
,,,,,,,,2023-08-16_08h26.36.071,HF_wild_card,2022.2.4,Linux x86_64,60.06006006,62a12f67f0da767bd2c0222f,64d2fd46c836a06233681665,64dc7a124d2b9397b5c54744,,,,,,,decisionTrl,resources/DR.BMP,resources/DY.BMP,Door2,-0.314969062,-0.031846005,1,0,0,0.8397,optionLeft,20,8440,4,20,0,20,0,1,,,,,,,,,,,,,,,,,,,,,,,,,,,,,,,,,,,,,,,
,,,,,,,,2023-08-16_08h26.36.071,HF_wild_card,2022.2.4,Linux x86_64,60.06006006,62a12f67f0da767bd2c0222f,64d2fd46c836a06233681665,64dc7a124d2b9397b5c54744,,,,,,,ctch,resources/DY.BMP,resources/DB.BMP,Door4,0.440571077,-0.053006529,1,0,0,0.9243,optionRight,80,8520,4,21,0,21,0,1,,,,,,,,,,,,,,,,,,,,,,,,,,,,,,,,,,,,,,,
,,,,,,,,2023-08-16_08h26.36.071,HF_wild_card,2022.2.4,Linux x86_64,60.06006006,62a12f67f0da767bd2c0222f,64d2fd46c836a06233681665,64dc7a124d2b9397b5c54744,,,,,,,ctch,resources/DR.BMP,resources/DG.BMP,Door3,0.435745794,0.056648174,1,0,0,1.7362,optionRight,70,8590,4,22,0,22,0,1,,,,,,,,,,,,,,,,,,,,,,,,,,,,,,,,,,,,,,,
,,,,,,,,2023-08-16_08h26.36.071,HF_wild_card,2022.2.4,Linux x86_64,60.06006006,62a12f67f0da767bd2c0222f,64d2fd46c836a06233681665,64dc7a124d2b9397b5c54744,,,,,,,sngl,resources/Empty.png,resources/DG.BMP,Door3,0.336943543,0.004970322,1,0,0,1.0698,optionRight,70,8660,4,23,0,23,0,1,,,,,,,,,,,,,,,,,,,,,,,,,,,,,,,,,,,,,,,
,,,,,,,,2023-08-16_08h26.36.071,HF_wild_card,2022.2.4,Linux x86_64,60.06006006,62a12f67f0da767bd2c0222f,64d2fd46c836a06233681665,64dc7a124d2b9397b5c54744,,,,,,,ctch,resources/DR.BMP,resources/DG.BMP,Door3,0.463639218,-0.036799656,1,0,0,1.5702,optionRight,70,8730,4,24,0,24,0,1,,,,,,,,,,,,,,,,,,,,,,,,,,,,,,,,,,,,,,,
,,,,,,,,2023-08-16_08h26.36.071,HF_wild_card,2022.2.4,Linux x86_64,60.06006006,62a12f67f0da767bd2c0222f,64d2fd46c836a06233681665,64dc7a124d2b9397b5c54744,,,,,,,ctch,resources/DG.BMP,resources/DR.BMP,Door3,-0.26969704,-0.002104711,1,0,0,1.2039,optionLeft,70,8800,4,25,0,25,0,1,,,,,,,,,,,,,,,,,,,,,,,,,,,,,,,,,,,,,,,
,,,,,,,,2023-08-16_08h26.36.071,HF_wild_card,2022.2.4,Linux x86_64,60.06006006,62a12f67f0da767bd2c0222f,64d2fd46c836a06233681665,64dc7a124d2b9397b5c54744,,,,,,,sngl,resources/Empty.png,resources/DR.BMP,Door2,0.31008743,0.016052532,1,0,0,1.1711,optionRight,40,8840,4,26,0,26,0,1,,,,,,,,,,,,,,,,,,,,,,,,,,,,,,,,,,,,,,,
,,,,,,,,2023-08-16_08h26.36.071,HF_wild_card,2022.2.4,Linux x86_64,60.06006006,62a12f67f0da767bd2c0222f,64d2fd46c836a06233681665,64dc7a124d2b9397b5c54744,,,,,,,decisionTrl,resources/DG.BMP,resources/DB.BMP,Door4,0.452405887,-0.0062175,1,0,0,1.6989,optionRight,80,8920,4,27,0,27,0,1,,,,,,,,,,,,,,,,,,,,,,,,,,,,,,,,,,,,,,,
,,,,,,,,2023-08-16_08h26.36.071,HF_wild_card,2022.2.4,Linux x86_64,60.06006006,62a12f67f0da767bd2c0222f,64d2fd46c836a06233681665,64dc7a124d2b9397b5c54744,,,,,,,decisionTrl,resources/DG.BMP,resources/DB.BMP,Door3,-0.325901796,0.034436851,1,0,0,1.0054,optionLeft,70,8990,4,28,0,28,0,1,,,,,,,,,,,,,,,,,,,,,,,,,,,,,,,,,,,,,,,
,,,,,,,,2023-08-16_08h26.36.071,HF_wild_card,2022.2.4,Linux x86_64,60.06006006,62a12f67f0da767bd2c0222f,64d2fd46c836a06233681665,64dc7a124d2b9397b5c54744,,,,,,,decisionTrl,resources/DR.BMP,resources/DY.BMP,Door1,0.470551002,0.020893629,1,0,0,1.9346,optionRight,30,9020,4,29,0,29,0,1,,,,,,,,,,,,,,,,,,,,,,,,,,,,,,,,,,,,,,,
,,,,,,,,2023-08-16_08h26.36.071,HF_wild_card,2022.2.4,Linux x86_64,60.06006006,62a12f67f0da767bd2c0222f,64d2fd46c836a06233681665,64dc7a124d2b9397b5c54744,,,,,,,decisionTrl,resources/DY.BMP,resources/DR.BMP,Door2,0.34694186,-0.039972124,1,0,0,1.6828,optionRight,40,9060,4,30,0,30,0,1,,,,,,,,,,,,,,,,,,,,,,,,,,,,,,,,,,,,,,,
,,,,,,,,2023-08-16_08h26.36.071,HF_wild_card,2022.2.4,Linux x86_64,60.06006006,62a12f67f0da767bd2c0222f,64d2fd46c836a06233681665,64dc7a124d2b9397b5c54744,,,,,,,decisionTrl,resources/DY.BMP,resources/DBN.BMP,WildCard_NonEx,0.403974741,-0.007250483,1,0,0,1.1384,optionRight,45,9105,4,31,0,31,0,1,,,,,,,,,,,,,,,,,,,,,,,,,,,,,,,,,,,,,,,
,,,,,,,,2023-08-16_08h26.36.071,HF_wild_card,2022.2.4,Linux x86_64,60.06006006,62a12f67f0da767bd2c0222f,64d2fd46c836a06233681665,64dc7a124d2b9397b5c54744,,,,,,,sngl,resources/DR.BMP,resources/Empty.png,Door2,-0.31239682,-0.019469464,1,0,0,1.2378,optionLeft,20,9125,4,32,0,32,0,1,,,,,,,,,,,,,,,,,,,,,,,,,,,,,,,,,,,,,,,
,,,,,,,,2023-08-16_08h26.36.071,HF_wild_card,2022.2.4,Linux x86_64,60.06006006,62a12f67f0da767bd2c0222f,64d2fd46c836a06233681665,64dc7a124d2b9397b5c54744,,,,,,,ctch,resources/DG.BMP,resources/DR.BMP,Door3,-0.336952057,0.057260279,1,0,0,1.2886,optionLeft,70,9195,4,33,0,33,0,1,,,,,,,,,,,,,,,,,,,,,,,,,,,,,,,,,,,,,,,
,,,,,,,,2023-08-16_08h26.36.071,HF_wild_card,2022.2.4,Linux x86_64,60.06006006,62a12f67f0da767bd2c0222f,64d2fd46c836a06233681665,64dc7a124d2b9397b5c54744,,,,,,,decisionTrl,resources/DG.BMP,resources/DB.BMP,Door4,0.441819686,0.048748235,1,0,0,1.4202,optionRight,80,9275,4,34,0,34,0,1,,,,,,,,,,,,,,,,,,,,,,,,,,,,,,,,,,,,,,,
,,,,,,,,2023-08-16_08h26.36.071,HF_wild_card,2022.2.4,Linux x86_64,60.06006006,62a12f67f0da767bd2c0222f,64d2fd46c836a06233681665,64dc7a124d2b9397b5c54744,,,,,,,decisionTrl,resources/DB.BMP,resources/DG.BMP,Door4,-0.543074792,0.019761509,1,0,0,1.2368,optionLeft,60,9335,4,35,0,35,0,1,,,,,,,,,,,,,,,,,,,,,,,,,,,,,,,,,,,,,,,
,,,,,,,,2023-08-16_08h26.36.071,HF_wild_card,2022.2.4,Linux x86_64,60.06006006,62a12f67f0da767bd2c0222f,64d2fd46c836a06233681665,64dc7a124d2b9397b5c54744,,,,,,,decisionTrl,resources/DR.BMP,resources/DY.BMP,Door2,-0.258569823,0.011364667,1,0,0,1.4031,optionLeft,40,9375,4,36,0,36,0,1,,,,,,,,,,,,,,,,,,,,,,,,,,,,,,,,,,,,,,,
,,,,,,,,2023-08-16_08h26.36.071,HF_wild_card,2022.2.4,Linux x86_64,60.06006006,62a12f67f0da767bd2c0222f,64d2fd46c836a06233681665,64dc7a124d2b9397b5c54744,,,,,,,sngl,resources/Empty.png,resources/DBN.BMP,WildCard_NonEx,0.356510426,-0.028911989,1,0,0,1.2029,optionRight,45,9420,4,37,0,37,0,1,,,,,,,,,,,,,,,,,,,,,,,,,,,,,,,,,,,,,,,
,,,,,,,,2023-08-16_08h26.36.071,HF_wild_card,2022.2.4,Linux x86_64,60.06006006,62a12f67f0da767bd2c0222f,64d2fd46c836a06233681665,64dc7a124d2b9397b5c54744,,,,,,,decisionTrl,resources/DR.BMP,resources/DY.BMP,Door2,-0.41219134,-0.051605475,1,0,0,1.1065,optionLeft,20,9440,4,38,0,38,0,1,,,,,,,,,,,,,,,,,,,,,,,,,,,,,,,,,,,,,,,
,,,,,,,,2023-08-16_08h26.36.071,HF_wild_card,2022.2.4,Linux x86_64,60.06006006,62a12f67f0da767bd2c0222f,64d2fd46c836a06233681665,64dc7a124d2b9397b5c54744,,,,,,,decisionTrl,resources/DB.BMP,resources/DG.BMP,Door4,-0.273710047,-0.00077242,1,0,0,1.3368,optionLeft,60,9500,4,39,0,39,0,1,,,,,,,,,,,,,,,,,,,,,,,,,,,,,,,,,,,,,,,
,,,,,,,,2023-08-16_08h26.36.071,HF_wild_card,2022.2.4,Linux x86_64,60.06006006,62a12f67f0da767bd2c0222f,64d2fd46c836a06233681665,64dc7a124d2b9397b5c54744,,,,,,,decisionTrl,resources/DBN.BMP,resources/DG.BMP,WildCard_NonEx,-0.254348308,0.001835241,1,0,0,1.3377,optionLeft,55,9555,4,40,0,40,0,1,,,,,,,,,,,,,,,,,,,,,,,,,,,,,,,,,,,,,,,
,,,,,,,,2023-08-16_08h26.36.071,HF_wild_card,2022.2.4,Linux x86_64,60.06006006,62a12f67f0da767bd2c0222f,64d2fd46c836a06233681665,64dc7a124d2b9397b5c54744,,,,,,,sngl,resources/Empty.png,resources/DBN.BMP,WildCard_NonEx,0.465018484,0.037836359,1,0,0,0.9059,optionRight,55,9610,4,41,0,41,0,1,,,,,,,,,,,,,,,,,,,,,,,,,,,,,,,,,,,,,,,
,,,,,,,,2023-08-16_08h26.36.071,HF_wild_card,2022.2.4,Linux x86_64,60.06006006,62a12f67f0da767bd2c0222f,64d2fd46c836a06233681665,64dc7a124d2b9397b5c54744,,,,,,,decisionTrl,resources/DB.BMP,resources/DG.BMP,Door4,-0.489881867,-0.040062282,1,0,0,1.4048,optionLeft,80,9690,4,42,0,42,0,1,,,,,,,,,,,,,,,,,,,,,,,,,,,,,,,,,,,,,,,
,,,,,,,,2023-08-16_08h26.36.071,HF_wild_card,2022.2.4,Linux x86_64,60.06006006,62a12f67f0da767bd2c0222f,64d2fd46c836a06233681665,64dc7a124d2b9397b5c54744,,,,,,,sngl,resources/Empty.png,resources/DY.BMP,Door1,0.351750686,0.018893207,1,0,0,1.1362,optionRight,30,9720,4,43,0,43,0,1,,,,,,,,,,,,,,,,,,,,,,,,,,,,,,,,,,,,,,,
,,,,,,,,2023-08-16_08h26.36.071,HF_wild_card,2022.2.4,Linux x86_64,60.06006006,62a12f67f0da767bd2c0222f,64d2fd46c836a06233681665,64dc7a124d2b9397b5c54744,,,,,,,,,,,,,,,,,,,,,,,,,,3,0,3,0,1,,,,,,,,,,,,,,,,,,,,,,,,,,,,,,,,,,
,,,,,,,,2023-08-16_08h26.36.071,HF_wild_card,2022.2.4,Linux x86_64,60.06006006,62a12f67f0da767bd2c0222f,64d2fd46c836a06233681665,64dc7a124d2b9397b5c54744,,,,,,,decisionTrl,resources/DY.BMP,resources/DR.BMP,Door1,-0.350233286,-0.124363889,1,0,0,1.2313,optionLeft,30,9750,5,0,0,0,0,1,,,,,,,,,,,,,,,,,,,,,,,,,,,,,,,,,,,,,,,
,,,,,,,,2023-08-16_08h26.36.071,HF_wild_card,2022.2.4,Linux x86_64,60.06006006,62a12f67f0da767bd2c0222f,64d2fd46c836a06233681665,64dc7a124d2b9397b5c54744,,,,,,,ctch,resources/DB.BMP,resources/DY.BMP,Door4,-0.390702671,-0.000766553,1,0,0,1.8695,optionLeft,80,9830,5,1,0,1,0,1,,,,,,,,,,,,,,,,,,,,,,,,,,,,,,,,,,,,,,,
,,,,,,,,2023-08-16_08h26.36.071,HF_wild_card,2022.2.4,Linux x86_64,60.06006006,62a12f67f0da767bd2c0222f,64d2fd46c836a06233681665,64dc7a124d2b9397b5c54744,,,,,,,sngl,resources/Empty.png,resources/DR.BMP,Door2,0.38541619,-0.024665358,1,0,0,1.2002,optionRight,20,9850,5,2,0,2,0,1,,,,,,,,,,,,,,,,,,,,,,,,,,,,,,,,,,,,,,,
,,,,,,,,2023-08-16_08h26.36.071,HF_wild_card,2022.2.4,Linux x86_64,60.06006006,62a12f67f0da767bd2c0222f,64d2fd46c836a06233681665,64dc7a124d2b9397b5c54744,,,,,,,decisionTrl,resources/DR.BMP,resources/DY.BMP,Door1,0.301026893,-0.053503039,1,0,0,1.4167,optionRight,30,9880,5,3,0,3,0,1,,,,,,,,,,,,,,,,,,,,,,,,,,,,,,,,,,,,,,,
,,,,,,,,2023-08-16_08h26.36.071,HF_wild_card,2022.2.4,Linux x86_64,60.06006006,62a12f67f0da767bd2c0222f,64d2fd46c836a06233681665,64dc7a124d2b9397b5c54744,,,,,,,ctch,resources/DR.BMP,resources/DG.BMP,Door3,0.312255716,-0.0030758,1,0,0,1.0372,optionRight,70,9950,5,4,0,4,0,1,,,,,,,,,,,,,,,,,,,,,,,,,,,,,,,,,,,,,,,
,,,,,,,,2023-08-16_08h26.36.071,HF_wild_card,2022.2.4,Linux x86_64,60.06006006,62a12f67f0da767bd2c0222f,64d2fd46c836a06233681665,64dc7a124d2b9397b5c54744,,,,,,,ctch,resources/DR.BMP,resources/DG.BMP,Door3,0.297686131,0.002271502,1,0,0,1.4039,optionRight,70,10020,5,5,0,5,0,1,,,,,,,,,,,,,,,,,,,,,,,,,,,,,,,,,,,,,,,
,,,,,,,,2023-08-16_08h26.36.071,HF_wild_card,2022.2.4,Linux x86_64,60.06006006,62a12f67f0da767bd2c0222f,64d2fd46c836a06233681665,64dc7a124d2b9397b5c54744,,,,,,,sngl,resources/DY.BMP,resources/Empty.png,Door1,-0.328567237,-0.02625585,1,0,0,1.1198,optionLeft,30,10050,5,6,0,6,0,1,,,,,,,,,,,,,,,,,,,,,,,,,,,,,,,,,,,,,,,
,,,,,,,,2023-08-16_08h26.36.071,HF_wild_card,2022.2.4,Linux x86_64,60.06006006,62a12f67f0da767bd2c0222f,64d2fd46c836a06233681665,64dc7a124d2b9397b5c54744,,,,,,,decisionTrl,resources/DBN.BMP,resources/DB.BMP,Door4,0.305632794,-0.005618025,1,0,0,1.238,optionRight,80,10130,5,7,0,7,0,1,,,,,,,,,,,,,,,,,,,,,,,,,,,,,,,,,,,,,,,
,,,,,,,,2023-08-16_08h26.36.071,HF_wild_card,2022.2.4,Linux x86_64,60.06006006,62a12f67f0da767bd2c0222f,64d2fd46c836a06233681665,64dc7a124d2b9397b5c54744,,,,,,,sngl,resources/Empty.png,resources/DB.BMP,Door4,0.277515836,-0.043666683,1,0,0,1.0361,optionRight,60,10190,5,8,0,8,0,1,,,,,,,,,,,,,,,,,,,,,,,,,,,,,,,,,,,,,,,
,,,,,,,,2023-08-16_08h26.36.071,HF_wild_card,2022.2.4,Linux x86_64,60.06006006,62a12f67f0da767bd2c0222f,64d2fd46c836a06233681665,64dc7a124d2b9397b5c54744,,,,,,,sngl,resources/Empty.png,resources/DBN.BMP,WildCard_NonEx,0.303532984,0.012361909,1,0,0,1.1563,optionRight,45,10235,5,9,0,9,0,1,,,,,,,,,,,,,,,,,,,,,,,,,,,,,,,,,,,,,,,
,,,,,,,,2023-08-16_08h26.36.071,HF_wild_card,2022.2.4,Linux x86_64,60.06006006,62a12f67f0da767bd2c0222f,64d2fd46c836a06233681665,64dc7a124d2b9397b5c54744,,,,,,,ctch,resources/DB.BMP,resources/DY.BMP,Door4,-0.406177981,0.018087908,1,0,0,1.0377,optionLeft,80,10315,5,10,0,10,0,1,,,,,,,,,,,,,,,,,,,,,,,,,,,,,,,,,,,,,,,
,,,,,,,,2023-08-16_08h26.36.071,HF_wild_card,2022.2.4,Linux x86_64,60.06006006,62a12f67f0da767bd2c0222f,64d2fd46c836a06233681665,64dc7a124d2b9397b5c54744,,,,,,,sngl,resources/DR.BMP,resources/Empty.png,Door2,-0.410029636,-0.010777392,1,0,0,1.1672,optionLeft,40,10355,5,11,0,11,0,1,,,,,,,,,,,,,,,,,,,,,,,,,,,,,,,,,,,,,,,
,,,,,,,,2023-08-16_08h26.36.071,HF_wild_card,2022.2.4,Linux x86_64,60.06006006,62a12f67f0da767bd2c0222f,64d2fd46c836a06233681665,64dc7a124d2b9397b5c54744,,,,,,,decisionTrl,resources/DG.BMP,resources/DB.BMP,Door4,0.413640764,-0.010745193,1,0,0,0.9181,optionRight,60,10415,5,12,0,12,0,1,,,,,,,,,,,,,,,,,,,,,,,,,,,,,,,,,,,,,,,
,,,,,,,,2023-08-16_08h26.36.071,HF_wild_card,2022.2.4,Linux x86_64,60.06006006,62a12f67f0da767bd2c0222f,64d2fd46c836a06233681665,64dc7a124d2b9397b5c54744,,,,,,,decisionTrl,resources/DR.BMP,resources/DY.BMP,Door1,0.4049981,-0.021113656,1,0,0,1.3196,optionRight,30,10445,5,13,0,13,0,1,,,,,,,,,,,,,,,,,,,,,,,,,,,,,,,,,,,,,,,
,,,,,,,,2023-08-16_08h26.36.071,HF_wild_card,2022.2.4,Linux x86_64,60.06006006,62a12f67f0da767bd2c0222f,64d2fd46c836a06233681665,64dc7a124d2b9397b5c54744,,,,,,,ctch,resources/DG.BMP,resources/DR.BMP,Door3,-0.344332553,-0.013319367,1,0,0,1.0677,optionLeft,70,10515,5,14,0,14,0,1,,,,,,,,,,,,,,,,,,,,,,,,,,,,,,,,,,,,,,,
,,,,,,,,2023-08-16_08h26.36.071,HF_wild_card,2022.2.4,Linux x86_64,60.06006006,62a12f67f0da767bd2c0222f,64d2fd46c836a06233681665,64dc7a124d2b9397b5c54744,,,,,,,decisionTrl,resources/DG.BMP,resources/DBN.BMP,Door3,-0.386753775,-0.029006189,1,0,0,1.7112,optionLeft,70,10585,5,15,0,15,0,1,,,,,,,,,,,,,,,,,,,,,,,,,,,,,,,,,,,,,,,
,,,,,,,,2023-08-16_08h26.36.071,HF_wild_card,2022.2.4,Linux x86_64,60.06006006,62a12f67f0da767bd2c0222f,64d2fd46c836a06233681665,64dc7a124d2b9397b5c54744,,,,,,,decisionTrl,resources/DG.BMP,resources/DB.BMP,Door4,0.304760628,0.004854191,1,0,0,0.9383,optionRight,80,10665,5,16,0,16,0,1,,,,,,,,,,,,,,,,,,,,,,,,,,,,,,,,,,,,,,,
,,,,,,,,2023-08-16_08h26.36.071,HF_wild_card,2022.2.4,Linux x86_64,60.06006006,62a12f67f0da767bd2c0222f,64d2fd46c836a06233681665,64dc7a124d2b9397b5c54744,,,,,,,decisionTrl,resources/DG.BMP,resources/DB.BMP,Door4,0.418728219,-0.060343198,1,0,0,0.8715,optionRight,60,10725,5,17,0,17,0,1,,,,,,,,,,,,,,,,,,,,,,,,,,,,,,,,,,,,,,,
,,,,,,,,2023-08-16_08h26.36.071,HF_wild_card,2022.2.4,Linux x86_64,60.06006006,62a12f67f0da767bd2c0222f,64d2fd46c836a06233681665,64dc7a124d2b9397b5c54744,,,,,,,decisionTrl,resources/DR.BMP,resources/DY.BMP,Door2,-0.323806029,-0.018866911,1,0,0,1.038,optionLeft,20,10745,5,18,0,18,0,1,,,,,,,,,,,,,,,,,,,,,,,,,,,,,,,,,,,,,,,
,,,,,,,,2023-08-16_08h26.36.071,HF_wild_card,2022.2.4,Linux x86_64,60.06006006,62a12f67f0da767bd2c0222f,64d2fd46c836a06233681665,64dc7a124d2b9397b5c54744,,,,,,,decisionTrl,resources/DY.BMP,resources/DR.BMP,Door1,-0.362773256,-0.008441956,1,0,0,2.4066,optionLeft,30,10775,5,19,0,19,0,1,,,,,,,,,,,,,,,,,,,,,,,,,,,,,,,,,,,,,,,
,,,,,,,,2023-08-16_08h26.36.071,HF_wild_card,2022.2.4,Linux x86_64,60.06006006,62a12f67f0da767bd2c0222f,64d2fd46c836a06233681665,64dc7a124d2b9397b5c54744,,,,,,,decisionTrl,resources/DBN.BMP,resources/DY.BMP,WildCard_NonEx,-0.399674052,-0.037865016,1,0,0,1.1491,optionLeft,45,10820,5,20,0,20,0,1,,,,,,,,,,,,,,,,,,,,,,,,,,,,,,,,,,,,,,,
,,,,,,,,2023-08-16_08h26.36.071,HF_wild_card,2022.2.4,Linux x86_64,60.06006006,62a12f67f0da767bd2c0222f,64d2fd46c836a06233681665,64dc7a124d2b9397b5c54744,,,,,,,decisionTrl,resources/DB.BMP,resources/DG.BMP,Door4,-0.260635573,-0.022970685,1,0,0,4.8974,optionLeft,60,10880,5,21,0,21,0,1,,,,,,,,,,,,,,,,,,,,,,,,,,,,,,,,,,,,,,,
,,,,,,,,2023-08-16_08h26.36.071,HF_wild_card,2022.2.4,Linux x86_64,60.06006006,62a12f67f0da767bd2c0222f,64d2fd46c836a06233681665,64dc7a124d2b9397b5c54744,,,,,,,decisionTrl,resources/DB.BMP,resources/DG.BMP,Door3,0.41011432,-0.006666713,1,0,0,1.405,optionRight,70,10950,5,22,0,22,0,1,,,,,,,,,,,,,,,,,,,,,,,,,,,,,,,,,,,,,,,
,,,,,,,,2023-08-16_08h26.36.071,HF_wild_card,2022.2.4,Linux x86_64,60.06006006,62a12f67f0da767bd2c0222f,64d2fd46c836a06233681665,64dc7a124d2b9397b5c54744,,,,,,,decisionTrl,resources/DBN.BMP,resources/DR.BMP,WildCard_NonEx,-0.535609041,0.011410676,1,0,0,0.9405,optionLeft,45,10995,5,23,0,23,0,1,,,,,,,,,,,,,,,,,,,,,,,,,,,,,,,,,,,,,,,
,,,,,,,,2023-08-16_08h26.36.071,HF_wild_card,2022.2.4,Linux x86_64,60.06006006,62a12f67f0da767bd2c0222f,64d2fd46c836a06233681665,64dc7a124d2b9397b5c54744,,,,,,,sngl,resources/Empty.png,resources/DBN.BMP,WildCard_NonEx,0.28226377,0.000495079,1,0,0,0.9533,optionRight,55,11050,5,24,0,24,0,1,,,,,,,,,,,,,,,,,,,,,,,,,,,,,,,,,,,,,,,
,,,,,,,,2023-08-16_08h26.36.071,HF_wild_card,2022.2.4,Linux x86_64,60.06006006,62a12f67f0da767bd2c0222f,64d2fd46c836a06233681665,64dc7a124d2b9397b5c54744,,,,,,,decisionTrl,resources/DR.BMP,resources/DBN.BMP,Door2,-0.4733759,-0.053748467,1,0,0,1.3332,optionLeft,20,11070,5,25,0,25,0,1,,,,,,,,,,,,,,,,,,,,,,,,,,,,,,,,,,,,,,,
,,,,,,,,2023-08-16_08h26.36.071,HF_wild_card,2022.2.4,Linux x86_64,60.06006006,62a12f67f0da767bd2c0222f,64d2fd46c836a06233681665,64dc7a124d2b9397b5c54744,,,,,,,decisionTrl,resources/DB.BMP,resources/DG.BMP,Door3,0.498052027,-0.014080088,1,0,0,2.4518,optionRight,70,11140,5,26,0,26,0,1,,,,,,,,,,,,,,,,,,,,,,,,,,,,,,,,,,,,,,,
,,,,,,,,2023-08-16_08h26.36.071,HF_wild_card,2022.2.4,Linux x86_64,60.06006006,62a12f67f0da767bd2c0222f,64d2fd46c836a06233681665,64dc7a124d2b9397b5c54744,,,,,,,decisionTrl,resources/DY.BMP,resources/DR.BMP,Door2,0.393451364,-0.011302237,1,0,0,1.3222,optionRight,40,11180,5,27,0,27,0,1,,,,,,,,,,,,,,,,,,,,,,,,,,,,,,,,,,,,,,,
,,,,,,,,2023-08-16_08h26.36.071,HF_wild_card,2022.2.4,Linux x86_64,60.06006006,62a12f67f0da767bd2c0222f,64d2fd46c836a06233681665,64dc7a124d2b9397b5c54744,,,,,,,ctch,resources/DY.BMP,resources/DB.BMP,Door4,0.391022265,-0.03736271,1,0,0,1.2038,optionRight,60,11240,5,28,0,28,0,1,,,,,,,,,,,,,,,,,,,,,,,,,,,,,,,,,,,,,,,
,,,,,,,,2023-08-16_08h26.36.071,HF_wild_card,2022.2.4,Linux x86_64,60.06006006,62a12f67f0da767bd2c0222f,64d2fd46c836a06233681665,64dc7a124d2b9397b5c54744,,,,,,,decisionTrl,resources/DB.BMP,resources/DG.BMP,Door3,0.405811091,0.005743888,1,0,0,1.9692,optionRight,70,11310,5,29,0,29,0,1,,,,,,,,,,,,,,,,,,,,,,,,,,,,,,,,,,,,,,,
,,,,,,,,2023-08-16_08h26.36.071,HF_wild_card,2022.2.4,Linux x86_64,60.06006006,62a12f67f0da767bd2c0222f,64d2fd46c836a06233681665,64dc7a124d2b9397b5c54744,,,,,,,decisionTrl,resources/DB.BMP,resources/DBN.BMP,Door4,-0.471622695,-0.066846447,1,0,0,1.1048,optionLeft,80,11390,5,30,0,30,0,1,,,,,,,,,,,,,,,,,,,,,,,,,,,,,,,,,,,,,,,
,,,,,,,,2023-08-16_08h26.36.071,HF_wild_card,2022.2.4,Linux x86_64,60.06006006,62a12f67f0da767bd2c0222f,64d2fd46c836a06233681665,64dc7a124d2b9397b5c54744,,,,,,,decisionTrl,resources/DBN.BMP,resources/DG.BMP,WildCard_NonEx,-0.392519022,-0.026273739,1,0,0,1.1701,optionLeft,45,11435,5,31,0,31,0,1,,,,,,,,,,,,,,,,,,,,,,,,,,,,,,,,,,,,,,,
,,,,,,,,2023-08-16_08h26.36.071,HF_wild_card,2022.2.4,Linux x86_64,60.06006006,62a12f67f0da767bd2c0222f,64d2fd46c836a06233681665,64dc7a124d2b9397b5c54744,,,,,,,decisionTrl,resources/DG.BMP,resources/DB.BMP,Door4,0.228151847,0.068260631,1,0,0,1.5499,optionRight,80,11515,5,32,0,32,0,1,,,,,,,,,,,,,,,,,,,,,,,,,,,,,,,,,,,,,,,
,,,,,,,,2023-08-16_08h26.36.071,HF_wild_card,2022.2.4,Linux x86_64,60.06006006,62a12f67f0da767bd2c0222f,64d2fd46c836a06233681665,64dc7a124d2b9397b5c54744,,,,,,,sngl,resources/DBN.BMP,resources/Empty.png,WildCard_NonEx,-0.354888701,-0.073375635,1,0,0,1.4528,optionLeft,45,11560,5,33,0,33,0,1,,,,,,,,,,,,,,,,,,,,,,,,,,,,,,,,,,,,,,,
,,,,,,,,2023-08-16_08h26.36.071,HF_wild_card,2022.2.4,Linux x86_64,60.06006006,62a12f67f0da767bd2c0222f,64d2fd46c836a06233681665,64dc7a124d2b9397b5c54744,,,,,,,decisionTrl,resources/DR.BMP,resources/DY.BMP,Door2,-0.413679617,-0.056040756,1,0,0,1.7825,optionLeft,40,11600,5,34,0,34,0,1,,,,,,,,,,,,,,,,,,,,,,,,,,,,,,,,,,,,,,,
,,,,,,,,2023-08-16_08h26.36.071,HF_wild_card,2022.2.4,Linux x86_64,60.06006006,62a12f67f0da767bd2c0222f,64d2fd46c836a06233681665,64dc7a124d2b9397b5c54744,,,,,,,ctch,resources/DG.BMP,resources/DR.BMP,Door2,0.3568473,-0.029306177,1,0,0,0.8861,optionRight,40,11640,5,35,0,35,0,1,,,,,,,,,,,,,,,,,,,,,,,,,,,,,,,,,,,,,,,
,,,,,,,,2023-08-16_08h26.36.071,HF_wild_card,2022.2.4,Linux x86_64,60.06006006,62a12f67f0da767bd2c0222f,64d2fd46c836a06233681665,64dc7a124d2b9397b5c54744,,,,,,,ctch,resources/DY.BMP,resources/DB.BMP,Door4,0.405009834,-0.020153801,1,0,0,1.0027,optionRight,80,11720,5,36,0,36,0,1,,,,,,,,,,,,,,,,,,,,,,,,,,,,,,,,,,,,,,,
,,,,,,,,2023-08-16_08h26.36.071,HF_wild_card,2022.2.4,Linux x86_64,60.06006006,62a12f67f0da767bd2c0222f,64d2fd46c836a06233681665,64dc7a124d2b9397b5c54744,,,,,,,decisionTrl,resources/DY.BMP,resources/DBN.BMP,WildCard_NonEx,0.51547531,-0.013414855,1,0,0,1.8158,optionRight,45,11765,5,37,0,37,0,1,,,,,,,,,,,,,,,,,,,,,,,,,,,,,,,,,,,,,,,
,,,,,,,,2023-08-16_08h26.36.071,HF_wild_card,2022.2.4,Linux x86_64,60.06006006,62a12f67f0da767bd2c0222f,64d2fd46c836a06233681665,64dc7a124d2b9397b5c54744,,,,,,,sngl,resources/DBN.BMP,resources/Empty.png,WildCard_NonEx,-0.21528867,-0.022681072,1,0,0,1.0709,optionLeft,55,11820,5,38,0,38,0,1,,,,,,,,,,,,,,,,,,,,,,,,,,,,,,,,,,,,,,,
,,,,,,,,2023-08-16_08h26.36.071,HF_wild_card,2022.2.4,Linux x86_64,60.06006006,62a12f67f0da767bd2c0222f,64d2fd46c836a06233681665,64dc7a124d2b9397b5c54744,,,,,,,sngl,resources/DB.BMP,resources/Empty.png,Door4,-0.336397625,-0.05726679,1,0,0,0.9052,optionLeft,80,11900,5,39,0,39,0,1,,,,,,,,,,,,,,,,,,,,,,,,,,,,,,,,,,,,,,,
,,,,,,,,2023-08-16_08h26.36.071,HF_wild_card,2022.2.4,Linux x86_64,60.06006006,62a12f67f0da767bd2c0222f,64d2fd46c836a06233681665,64dc7a124d2b9397b5c54744,,,,,,,sngl,resources/DG.BMP,resources/Empty.png,Door3,-0.399049819,-0.020804044,1,0,0,1.1217,optionLeft,70,11970,5,40,0,40,0,1,,,,,,,,,,,,,,,,,,,,,,,,,,,,,,,,,,,,,,,
,,,,,,,,2023-08-16_08h26.36.071,HF_wild_card,2022.2.4,Linux x86_64,60.06006006,62a12f67f0da767bd2c0222f,64d2fd46c836a06233681665,64dc7a124d2b9397b5c54744,,,,,,,sngl,resources/Empty.png,resources/DY.BMP,Door1,0.235726074,-0.044647539,1,0,0,1.0725,optionRight,30,12000,5,41,0,41,0,1,,,,,,,,,,,,,,,,,,,,,,,,,,,,,,,,,,,,,,,
,,,,,,,,2023-08-16_08h26.36.071,HF_wild_card,2022.2.4,Linux x86_64,60.06006006,62a12f67f0da767bd2c0222f,64d2fd46c836a06233681665,64dc7a124d2b9397b5c54744,,,,,,,decisionTrl,resources/DY.BMP,resources/DR.BMP,Door2,0.295155354,-0.033607474,1,0,0,1.637,optionRight,40,12040,5,42,0,42,0,1,,,,,,,,,,,,,,,,,,,,,,,,,,,,,,,,,,,,,,,
,,,,,,,,2023-08-16_08h26.36.071,HF_wild_card,2022.2.4,Linux x86_64,60.06006006,62a12f67f0da767bd2c0222f,64d2fd46c836a06233681665,64dc7a124d2b9397b5c54744,,,,,,,sngl,resources/Empty.png,resources/DG.BMP,Door3,0.394013632,-0.03068394,1,0,0,1.121,optionRight,70,12110,5,43,0,43,0,1,,,,,,,,,,,,,,,,,,,,,,,,,,,,,,,,,,,,,,,
,,,,,,,,2023-08-16_08h26.36.071,HF_wild_card,2022.2.4,Linux x86_64,60.06006006,62a12f67f0da767bd2c0222f,64d2fd46c836a06233681665,64dc7a124d2b9397b5c54744,,,,,,,,,,,,,,,,,,,,,,,,,,4,0,4,0,1,,,,,,,,,,,,,,,,,,,,,,,,,,,,,,,,,,
,,,,,,,,2023-08-16_08h26.36.071,HF_wild_card,2022.2.4,Linux x86_64,60.06006006,62a12f67f0da767bd2c0222f,64d2fd46c836a06233681665,64dc7a124d2b9397b5c54744,,,,,,,sngl,resources/Empty.png,resources/DR.BMP,Door2,0.384590462,-0.136228895,1,0,0,2.2953,optionRight,40,12150,6,0,0,0,0,1,,,,,,,,,,,,,,,,,,,,,,,,,,,,,,,,,,,,,,,
,,,,,,,,2023-08-16_08h26.36.071,HF_wild_card,2022.2.4,Linux x86_64,60.06006006,62a12f67f0da767bd2c0222f,64d2fd46c836a06233681665,64dc7a124d2b9397b5c54744,,,,,,,decisionTrl,resources/DG.BMP,resources/DB.BMP,Door4,0.508518304,-0.026718551,1,0,0,1.9352,optionRight,60,12210,6,1,0,1,0,1,,,,,,,,,,,,,,,,,,,,,,,,,,,,,,,,,,,,,,,
,,,,,,,,2023-08-16_08h26.36.071,HF_wild_card,2022.2.4,Linux x86_64,60.06006006,62a12f67f0da767bd2c0222f,64d2fd46c836a06233681665,64dc7a124d2b9397b5c54744,,,,,,,ctch,resources/DG.BMP,resources/DR.BMP,Door3,-0.500894741,-0.06970061,1,0,0,1.039,optionLeft,70,12280,6,2,0,2,0,1,,,,,,,,,,,,,,,,,,,,,,,,,,,,,,,,,,,,,,,
,,,,,,,,2023-08-16_08h26.36.071,HF_wild_card,2022.2.4,Linux x86_64,60.06006006,62a12f67f0da767bd2c0222f,64d2fd46c836a06233681665,64dc7a124d2b9397b5c54744,,,,,,,ctch,resources/DG.BMP,resources/DR.BMP,Door3,-0.361261079,-0.008761908,1,0,0,1.2392,optionLeft,70,12350,6,3,0,3,0,1,,,,,,,,,,,,,,,,,,,,,,,,,,,,,,,,,,,,,,,
,,,,,,,,2023-08-16_08h26.36.071,HF_wild_card,2022.2.4,Linux x86_64,60.06006006,62a12f67f0da767bd2c0222f,64d2fd46c836a06233681665,64dc7a124d2b9397b5c54744,,,,,,,decisionTrl,resources/DG.BMP,resources/DB.BMP,Door4,0.329644797,-0.084869671,1,0,0,1.8534,optionRight,60,12410,6,4,0,4,0,1,,,,,,,,,,,,,,,,,,,,,,,,,,,,,,,,,,,,,,,
,,,,,,,,2023-08-16_08h26.36.071,HF_wild_card,2022.2.4,Linux x86_64,60.06006006,62a12f67f0da767bd2c0222f,64d2fd46c836a06233681665,64dc7a124d2b9397b5c54744,,,,,,,decisionTrl,resources/DB.BMP,resources/DG.BMP,Door4,-0.299249575,-0.06237657,1,0,0,1.3415,optionLeft,60,12470,6,5,0,5,0,1,,,,,,,,,,,,,,,,,,,,,,,,,,,,,,,,,,,,,,,
,,,,,,,,2023-08-16_08h26.36.071,HF_wild_card,2022.2.4,Linux x86_64,60.06006006,62a12f67f0da767bd2c0222f,64d2fd46c836a06233681665,64dc7a124d2b9397b5c54744,,,,,,,ctch,resources/DY.BMP,resources/DB.BMP,Door4,0.274591515,-0.003279298,1,0,0,1.1531,optionRight,80,12550,6,6,0,6,0,1,,,,,,,,,,,,,,,,,,,,,,,,,,,,,,,,,,,,,,,
,,,,,,,,2023-08-16_08h26.36.071,HF_wild_card,2022.2.4,Linux x86_64,60.06006006,62a12f67f0da767bd2c0222f,64d2fd46c836a06233681665,64dc7a124d2b9397b5c54744,,,,,,,decisionTrl,resources/DR.BMP,resources/DY.BMP,Door1,0.308010732,-0.001809624,1,0,0,2.0908,optionRight,30,12580,6,7,0,7,0,1,,,,,,,,,,,,,,,,,,,,,,,,,,,,,,,,,,,,,,,
,,,,,,,,2023-08-16_08h26.36.071,HF_wild_card,2022.2.4,Linux x86_64,60.06006006,62a12f67f0da767bd2c0222f,64d2fd46c836a06233681665,64dc7a124d2b9397b5c54744,,,,,,,decisionTrl,resources/DBN.BMP,resources/DY.BMP,WildCard_NonEx,-0.368853302,-0.015313528,1,0,0,1.1363,optionLeft,45,12625,6,8,0,8,0,1,,,,,,,,,,,,,,,,,,,,,,,,,,,,,,,,,,,,,,,
,,,,,,,,2023-08-16_08h26.36.071,HF_wild_card,2022.2.4,Linux x86_64,60.06006006,62a12f67f0da767bd2c0222f,64d2fd46c836a06233681665,64dc7a124d2b9397b5c54744,,,,,,,decisionTrl,resources/DG.BMP,resources/DBN.BMP,Door3,-0.34351924,-0.056249084,1,0,0,1.4253,optionLeft,70,12695,6,9,0,9,0,1,,,,,,,,,,,,,,,,,,,,,,,,,,,,,,,,,,,,,,,
,,,,,,,,2023-08-16_08h26.36.071,HF_wild_card,2022.2.4,Linux x86_64,60.06006006,62a12f67f0da767bd2c0222f,64d2fd46c836a06233681665,64dc7a124d2b9397b5c54744,,,,,,,sngl,resources/DBN.BMP,resources/Empty.png,WildCard_NonEx,-0.293956582,0.016784596,1,0,0,1.1047,optionLeft,45,12740,6,10,0,10,0,1,,,,,,,,,,,,,,,,,,,,,,,,,,,,,,,,,,,,,,,
,,,,,,,,2023-08-16_08h26.36.071,HF_wild_card,2022.2.4,Linux x86_64,60.06006006,62a12f67f0da767bd2c0222f,64d2fd46c836a06233681665,64dc7a124d2b9397b5c54744,,,,,,,decisionTrl,resources/DY.BMP,resources/DR.BMP,Door1,-0.330303054,0.011787191,1,0,0,1.7341,optionLeft,30,12770,6,11,0,11,0,1,,,,,,,,,,,,,,,,,,,,,,,,,,,,,,,,,,,,,,,
,,,,,,,,2023-08-16_08h26.36.071,HF_wild_card,2022.2.4,Linux x86_64,60.06006006,62a12f67f0da767bd2c0222f,64d2fd46c836a06233681665,64dc7a124d2b9397b5c54744,,,,,,,sngl,resources/Empty.png,resources/DBN.BMP,WildCard_NonEx,0.373255525,-0.000465921,1,0,0,1.0656,optionRight,45,12815,6,12,0,12,0,1,,,,,,,,,,,,,,,,,,,,,,,,,,,,,,,,,,,,,,,
,,,,,,,,2023-08-16_08h26.36.071,HF_wild_card,2022.2.4,Linux x86_64,60.06006006,62a12f67f0da767bd2c0222f,64d2fd46c836a06233681665,64dc7a124d2b9397b5c54744,,,,,,,sngl,resources/DG.BMP,resources/Empty.png,Door3,-0.361080586,-0.06891463,1,0,0,1.1885,optionLeft,70,12885,6,13,0,13,0,1,,,,,,,,,,,,,,,,,,,,,,,,,,,,,,,,,,,,,,,
,,,,,,,,2023-08-16_08h26.36.071,HF_wild_card,2022.2.4,Linux x86_64,60.06006006,62a12f67f0da767bd2c0222f,64d2fd46c836a06233681665,64dc7a124d2b9397b5c54744,,,,,,,sngl,resources/DBN.BMP,resources/Empty.png,WildCard_NonEx,-0.439253992,-0.00078208,1,0,0,1.2691,optionLeft,55,12940,6,14,0,14,0,1,,,,,,,,,,,,,,,,,,,,,,,,,,,,,,,,,,,,,,,
,,,,,,,,2023-08-16_08h26.36.071,HF_wild_card,2022.2.4,Linux x86_64,60.06006006,62a12f67f0da767bd2c0222f,64d2fd46c836a06233681665,64dc7a124d2b9397b5c54744,,,,,,,decisionTrl,resources/DR.BMP,resources/DBN.BMP,WildCard_NonEx,0.354393014,0.028439091,1,0,0,1.6343,optionRight,55,12995,6,15,0,15,0,1,,,,,,,,,,,,,,,,,,,,,,,,,,,,,,,,,,,,,,,
,,,,,,,,2023-08-16_08h26.36.071,HF_wild_card,2022.2.4,Linux x86_64,60.06006006,62a12f67f0da767bd2c0222f,64d2fd46c836a06233681665,64dc7a124d2b9397b5c54744,,,,,,,decisionTrl,resources/DR.BMP,resources/DY.BMP,Door2,-0.302276933,-0.07787145,1,0,0,2.1697,optionLeft,40,13035,6,16,0,16,0,1,,,,,,,,,,,,,,,,,,,,,,,,,,,,,,,,,,,,,,,
,,,,,,,,2023-08-16_08h26.36.071,HF_wild_card,2022.2.4,Linux x86_64,60.06006006,62a12f67f0da767bd2c0222f,64d2fd46c836a06233681665,64dc7a124d2b9397b5c54744,,,,,,,decisionTrl,resources/DB.BMP,resources/DG.BMP,Door3,0.473937058,-0.009619727,1,0,0,2.0701,optionRight,70,13105,6,17,0,17,0,1,,,,,,,,,,,,,,,,,,,,,,,,,,,,,,,,,,,,,,,
,,,,,,,,2023-08-16_08h26.36.071,HF_wild_card,2022.2.4,Linux x86_64,60.06006006,62a12f67f0da767bd2c0222f,64d2fd46c836a06233681665,64dc7a124d2b9397b5c54744,,,,,,,decisionTrl,resources/DG.BMP,resources/DB.BMP,Door3,-0.369958983,-0.028476693,1,0,0,1.2915,optionLeft,70,13175,6,18,0,18,0,1,,,,,,,,,,,,,,,,,,,,,,,,,,,,,,,,,,,,,,,
,,,,,,,,2023-08-16_08h26.36.071,HF_wild_card,2022.2.4,Linux x86_64,60.06006006,62a12f67f0da767bd2c0222f,64d2fd46c836a06233681665,64dc7a124d2b9397b5c54744,,,,,,,decisionTrl,resources/DY.BMP,resources/DBN.BMP,WildCard_NonEx,0.283583217,-0.00162219,1,0,0,1.1369,optionRight,55,13230,6,19,0,19,0,1,,,,,,,,,,,,,,,,,,,,,,,,,,,,,,,,,,,,,,,
,,,,,,,,2023-08-16_08h26.36.071,HF_wild_card,2022.2.4,Linux x86_64,60.06006006,62a12f67f0da767bd2c0222f,64d2fd46c836a06233681665,64dc7a124d2b9397b5c54744,,,,,,,ctch,resources/DR.BMP,resources/DG.BMP,Door3,0.344278781,-0.021166284,1,0,0,1.321,optionRight,70,13300,6,20,0,20,0,1,,,,,,,,,,,,,,,,,,,,,,,,,,,,,,,,,,,,,,,
,,,,,,,,2023-08-16_08h26.36.071,HF_wild_card,2022.2.4,Linux x86_64,60.06006006,62a12f67f0da767bd2c0222f,64d2fd46c836a06233681665,64dc7a124d2b9397b5c54744,,,,,,,sngl,resources/Empty.png,resources/DB.BMP,Door4,0.450102293,-0.058729737,1,0,0,1.1345,optionRight,80,13380,6,21,0,21,0,1,,,,,,,,,,,,,,,,,,,,,,,,,,,,,,,,,,,,,,,
,,,,,,,,2023-08-16_08h26.36.071,HF_wild_card,2022.2.4,Linux x86_64,60.06006006,62a12f67f0da767bd2c0222f,64d2fd46c836a06233681665,64dc7a124d2b9397b5c54744,,,,,,,decisionTrl,resources/DBN.BMP,resources/DG.BMP,WildCard_NonEx,-0.36217446,-0.004534526,1,0,0,0.9715,optionLeft,45,13425,6,22,0,22,0,1,,,,,,,,,,,,,,,,,,,,,,,,,,,,,,,,,,,,,,,
,,,,,,,,2023-08-16_08h26.36.071,HF_wild_card,2022.2.4,Linux x86_64,60.06006006,62a12f67f0da767bd2c0222f,64d2fd46c836a06233681665,64dc7a124d2b9397b5c54744,,,,,,,sngl,resources/DR.BMP,resources/Empty.png,Door2,-0.479871421,-0.072383867,1,0,0,1.1181,optionLeft,20,13445,6,23,0,23,0,1,,,,,,,,,,,,,,,,,,,,,,,,,,,,,,,,,,,,,,,
,,,,,,,,2023-08-16_08h26.36.071,HF_wild_card,2022.2.4,Linux x86_64,60.06006006,62a12f67f0da767bd2c0222f,64d2fd46c836a06233681665,64dc7a124d2b9397b5c54744,,,,,,,decisionTrl,resources/DR.BMP,resources/DY.BMP,Door1,0.4035666,-0.077231118,1,0,0,1.2031,optionRight,30,13475,6,24,0,24,0,1,,,,,,,,,,,,,,,,,,,,,,,,,,,,,,,,,,,,,,,
,,,,,,,,2023-08-16_08h26.36.071,HF_wild_card,2022.2.4,Linux x86_64,60.06006006,62a12f67f0da767bd2c0222f,64d2fd46c836a06233681665,64dc7a124d2b9397b5c54744,,,,,,,decisionTrl,resources/DB.BMP,resources/DG.BMP,Door4,-0.374004583,-0.086541197,1,0,0,1.3031,optionLeft,80,13555,6,25,0,25,0,1,,,,,,,,,,,,,,,,,,,,,,,,,,,,,,,,,,,,,,,
,,,,,,,,2023-08-16_08h26.36.071,HF_wild_card,2022.2.4,Linux x86_64,60.06006006,62a12f67f0da767bd2c0222f,64d2fd46c836a06233681665,64dc7a124d2b9397b5c54744,,,,,,,sngl,resources/Empty.png,resources/DBN.BMP,WildCard_NonEx,0.376570886,0.004012507,1,0,0,1.1518,optionRight,55,13610,6,26,0,26,0,1,,,,,,,,,,,,,,,,,,,,,,,,,,,,,,,,,,,,,,,
,,,,,,,,2023-08-16_08h26.36.071,HF_wild_card,2022.2.4,Linux x86_64,60.06006006,62a12f67f0da767bd2c0222f,64d2fd46c836a06233681665,64dc7a124d2b9397b5c54744,,,,,,,decisionTrl,resources/DBN.BMP,resources/DR.BMP,WildCard_NonEx,-0.375233622,-0.035563354,1,0,0,1.6863,optionLeft,55,13665,6,27,0,27,0,1,,,,,,,,,,,,,,,,,,,,,,,,,,,,,,,,,,,,,,,
,,,,,,,,2023-08-16_08h26.36.071,HF_wild_card,2022.2.4,Linux x86_64,60.06006006,62a12f67f0da767bd2c0222f,64d2fd46c836a06233681665,64dc7a124d2b9397b5c54744,,,,,,,decisionTrl,resources/DBN.BMP,resources/DB.BMP,Door4,0.271566375,-0.041265848,1,0,0,1.1549,optionRight,80,13745,6,28,0,28,0,1,,,,,,,,,,,,,,,,,,,,,,,,,,,,,,,,,,,,,,,
,,,,,,,,2023-08-16_08h26.36.071,HF_wild_card,2022.2.4,Linux x86_64,60.06006006,62a12f67f0da767bd2c0222f,64d2fd46c836a06233681665,64dc7a124d2b9397b5c54744,,,,,,,decisionTrl,resources/DY.BMP,resources/DR.BMP,Door2,0.347729664,0.088638252,1,0,0,2.8019,optionRight,20,13765,6,29,0,29,0,1,,,,,,,,,,,,,,,,,,,,,,,,,,,,,,,,,,,,,,,
,,,,,,,,2023-08-16_08h26.36.071,HF_wild_card,2022.2.4,Linux x86_64,60.06006006,62a12f67f0da767bd2c0222f,64d2fd46c836a06233681665,64dc7a124d2b9397b5c54744,,,,,,,decisionTrl,resources/DY.BMP,resources/DR.BMP,Door1,-0.275700237,-0.022639535,1,0,0,0.9068,optionLeft,30,13795,6,30,0,30,0,1,,,,,,,,,,,,,,,,,,,,,,,,,,,,,,,,,,,,,,,
,,,,,,,,2023-08-16_08h26.36.071,HF_wild_card,2022.2.4,Linux x86_64,60.06006006,62a12f67f0da767bd2c0222f,64d2fd46c836a06233681665,64dc7a124d2b9397b5c54744,,,,,,,decisionTrl,resources/DB.BMP,resources/DBN.BMP,Door4,-0.387312573,-0.045723847,1,0,0,1.3863,optionLeft,60,13855,6,31,0,31,0,1,,,,,,,,,,,,,,,,,,,,,,,,,,,,,,,,,,,,,,,
,,,,,,,,2023-08-16_08h26.36.071,HF_wild_card,2022.2.4,Linux x86_64,60.06006006,62a12f67f0da767bd2c0222f,64d2fd46c836a06233681665,64dc7a124d2b9397b5c54744,,,,,,,sngl,resources/DY.BMP,resources/Empty.png,Door1,-0.386811984,-0.042037338,1,0,0,1.0686,optionLeft,30,13885,6,32,0,32,0,1,,,,,,,,,,,,,,,,,,,,,,,,,,,,,,,,,,,,,,,
,,,,,,,,2023-08-16_08h26.36.071,HF_wild_card,2022.2.4,Linux x86_64,60.06006006,62a12f67f0da767bd2c0222f,64d2fd46c836a06233681665,64dc7a124d2b9397b5c54744,,,,,,,decisionTrl,resources/DR.BMP,resources/DY.BMP,Door1,0.406135801,-0.053577454,1,0,0,1.4897,optionRight,30,13915,6,33,0,33,0,1,,,,,,,,,,,,,,,,,,,,,,,,,,,,,,,,,,,,,,,
,,,,,,,,2023-08-16_08h26.36.071,HF_wild_card,2022.2.4,Linux x86_64,60.06006006,62a12f67f0da767bd2c0222f,64d2fd46c836a06233681665,64dc7a124d2b9397b5c54744,,,,,,,sngl,resources/Empty.png,resources/DG.BMP,Door3,0.340824463,-0.035742452,1,0,0,1.0043,optionRight,70,13985,6,34,0,34,0,1,,,,,,,,,,,,,,,,,,,,,,,,,,,,,,,,,,,,,,,
,,,,,,,,2023-08-16_08h26.36.071,HF_wild_card,2022.2.4,Linux x86_64,60.06006006,62a12f67f0da767bd2c0222f,64d2fd46c836a06233681665,64dc7a124d2b9397b5c54744,,,,,,,sngl,resources/Empty.png,resources/DY.BMP,Door1,0.265622424,-0.012405413,1,0,0,1.0228,optionRight,30,14015,6,35,0,35,0,1,,,,,,,,,,,,,,,,,,,,,,,,,,,,,,,,,,,,,,,
,,,,,,,,2023-08-16_08h26.36.071,HF_wild_card,2022.2.4,Linux x86_64,60.06006006,62a12f67f0da767bd2c0222f,64d2fd46c836a06233681665,64dc7a124d2b9397b5c54744,,,,,,,decisionTrl,resources/DG.BMP,resources/DB.BMP,Door4,0.291041742,-0.022482833,1,0,0,1.0716,optionRight,80,14095,6,36,0,36,0,1,,,,,,,,,,,,,,,,,,,,,,,,,,,,,,,,,,,,,,,
,,,,,,,,2023-08-16_08h26.36.071,HF_wild_card,2022.2.4,Linux x86_64,60.06006006,62a12f67f0da767bd2c0222f,64d2fd46c836a06233681665,64dc7a124d2b9397b5c54744,,,,,,,ctch,resources/DB.BMP,resources/DY.BMP,Door4,-0.338361054,-0.012425269,1,0,0,0.9204,optionLeft,60,14155,6,37,0,37,0,1,,,,,,,,,,,,,,,,,,,,,,,,,,,,,,,,,,,,,,,
,,,,,,,,2023-08-16_08h26.36.071,HF_wild_card,2022.2.4,Linux x86_64,60.06006006,62a12f67f0da767bd2c0222f,64d2fd46c836a06233681665,64dc7a124d2b9397b5c54744,,,,,,,sngl,resources/DB.BMP,resources/Empty.png,Door4,-0.342879623,-0.0655924,1,0,0,0.8849,optionLeft,60,14215,6,38,0,38,0,1,,,,,,,,,,,,,,,,,,,,,,,,,,,,,,,,,,,,,,,
,,,,,,,,2023-08-16_08h26.36.071,HF_wild_card,2022.2.4,Linux x86_64,60.06006006,62a12f67f0da767bd2c0222f,64d2fd46c836a06233681665,64dc7a124d2b9397b5c54744,,,,,,,ctch,resources/DB.BMP,resources/DY.BMP,Door4,-0.403097674,-0.015426976,1,0,0,0.9237,optionLeft,60,14275,6,39,0,39,0,1,,,,,,,,,,,,,,,,,,,,,,,,,,,,,,,,,,,,,,,
,,,,,,,,2023-08-16_08h26.36.071,HF_wild_card,2022.2.4,Linux x86_64,60.06006006,62a12f67f0da767bd2c0222f,64d2fd46c836a06233681665,64dc7a124d2b9397b5c54744,,,,,,,decisionTrl,resources/DY.BMP,resources/DR.BMP,Door2,0.322514202,0.022953798,1,0,0,2.4347,optionRight,20,14295,6,40,0,40,0,1,,,,,,,,,,,,,,,,,,,,,,,,,,,,,,,,,,,,,,,
,,,,,,,,2023-08-16_08h26.36.071,HF_wild_card,2022.2.4,Linux x86_64,60.06006006,62a12f67f0da767bd2c0222f,64d2fd46c836a06233681665,64dc7a124d2b9397b5c54744,,,,,,,ctch,resources/DR.BMP,resources/DG.BMP,Door3,0.296655188,-0.073726319,1,0,0,1.1981,optionRight,70,14365,6,41,0,41,0,1,,,,,,,,,,,,,,,,,,,,,,,,,,,,,,,,,,,,,,,
,,,,,,,,2023-08-16_08h26.36.071,HF_wild_card,2022.2.4,Linux x86_64,60.06006006,62a12f67f0da767bd2c0222f,64d2fd46c836a06233681665,64dc7a124d2b9397b5c54744,,,,,,,decisionTrl,resources/DB.BMP,resources/DG.BMP,Door4,-0.479602988,-0.066976675,1,0,0,0.9711,optionLeft,60,14425,6,42,0,42,0,1,,,,,,,,,,,,,,,,,,,,,,,,,,,,,,,,,,,,,,,
,,,,,,,,2023-08-16_08h26.36.071,HF_wild_card,2022.2.4,Linux x86_64,60.06006006,62a12f67f0da767bd2c0222f,64d2fd46c836a06233681665,64dc7a124d2b9397b5c54744,,,,,,,ctch,resources/DY.BMP,resources/DB.BMP,Door4,0.307821759,-0.034572516,1,0,0,0.9624,optionRight,80,14505,6,43,0,43,0,1,,,,,,,,,,,,,,,,,,,,,,,,,,,,,,,,,,,,,,,
,,,,,,,,2023-08-16_08h26.36.071,HF_wild_card,2022.2.4,Linux x86_64,60.06006006,62a12f67f0da767bd2c0222f,64d2fd46c836a06233681665,64dc7a124d2b9397b5c54744,,,,,,,,,,,,,,,,,,,,,,,,,,5,0,5,0,1,,,,,,,,,,,,,,,,,,,,,,,,,,,,,,,,,,
,,,,,,,,2023-08-16_08h26.36.071,HF_wild_card,2022.2.4,Linux x86_64,60.06006006,62a12f67f0da767bd2c0222f,64d2fd46c836a06233681665,64dc7a124d2b9397b5c54744,,,,,,,decisionTrl,resources/DG.BMP,resources/DB.BMP,Door4,0.491761757,-0.039574179,1,0,0,1.5078,optionRight,80,14585,7,0,0,0,0,1,,,,,,,,,,,,,,,,,,,,,,,,,,,,,,,,,,,,,,,
,,,,,,,,2023-08-16_08h26.36.071,HF_wild_card,2022.2.4,Linux x86_64,60.06006006,62a12f67f0da767bd2c0222f,64d2fd46c836a06233681665,64dc7a124d2b9397b5c54744,,,,,,,decisionTrl,resources/DY.BMP,resources/DR.BMP,Door1,-0.410654513,-0.04645219,1,0,0,1.8288,optionLeft,30,14615,7,1,0,1,0,1,,,,,,,,,,,,,,,,,,,,,,,,,,,,,,,,,,,,,,,
,,,,,,,,2023-08-16_08h26.36.071,HF_wild_card,2022.2.4,Linux x86_64,60.06006006,62a12f67f0da767bd2c0222f,64d2fd46c836a06233681665,64dc7a124d2b9397b5c54744,,,,,,,decisionTrl,resources/DB.BMP,resources/DG.BMP,Door4,-0.351450376,-0.042467017,1,0,0,1.4568,optionLeft,60,14675,7,2,0,2,0,1,,,,,,,,,,,,,,,,,,,,,,,,,,,,,,,,,,,,,,,
,,,,,,,,2023-08-16_08h26.36.071,HF_wild_card,2022.2.4,Linux x86_64,60.06006006,62a12f67f0da767bd2c0222f,64d2fd46c836a06233681665,64dc7a124d2b9397b5c54744,,,,,,,decisionTrl,resources/DR.BMP,resources/DY.BMP,Door1,0.284524575,-0.066241212,1,0,0,1.8492,optionRight,30,14705,7,3,0,3,0,1,,,,,,,,,,,,,,,,,,,,,,,,,,,,,,,,,,,,,,,
,,,,,,,,2023-08-16_08h26.36.071,HF_wild_card,2022.2.4,Linux x86_64,60.06006006,62a12f67f0da767bd2c0222f,64d2fd46c836a06233681665,64dc7a124d2b9397b5c54744,,,,,,,ctch,resources/DG.BMP,resources/DR.BMP,Door3,-0.442075919,-0.041612489,1,0,0,1.1427,optionLeft,70,14775,7,4,0,4,0,1,,,,,,,,,,,,,,,,,,,,,,,,,,,,,,,,,,,,,,,
,,,,,,,,2023-08-16_08h26.36.071,HF_wild_card,2022.2.4,Linux x86_64,60.06006006,62a12f67f0da767bd2c0222f,64d2fd46c836a06233681665,64dc7a124d2b9397b5c54744,,,,,,,ctch,resources/DB.BMP,resources/DY.BMP,Door4,-0.351739273,-0.067190369,1,0,0,1.0235,optionLeft,80,14855,7,5,0,5,0,1,,,,,,,,,,,,,,,,,,,,,,,,,,,,,,,,,,,,,,,
,,,,,,,,2023-08-16_08h26.36.071,HF_wild_card,2022.2.4,Linux x86_64,60.06006006,62a12f67f0da767bd2c0222f,64d2fd46c836a06233681665,64dc7a124d2b9397b5c54744,,,,,,,ctch,resources/DY.BMP,resources/DB.BMP,Door4,0.289910409,-0.102650972,1,0,0,1.111,optionRight,80,14935,7,6,0,6,0,1,,,,,,,,,,,,,,,,,,,,,,,,,,,,,,,,,,,,,,,
,,,,,,,,2023-08-16_08h26.36.071,HF_wild_card,2022.2.4,Linux x86_64,60.06006006,62a12f67f0da767bd2c0222f,64d2fd46c836a06233681665,64dc7a124d2b9397b5c54744,,,,,,,decisionTrl,resources/DY.BMP,resources/DR.BMP,Door1,-0.318212619,-0.131470227,1,0,0,1.9746,optionLeft,30,14965,7,7,0,7,0,1,,,,,,,,,,,,,,,,,,,,,,,,,,,,,,,,,,,,,,,
,,,,,,,,2023-08-16_08h26.36.071,HF_wild_card,2022.2.4,Linux x86_64,60.06006006,62a12f67f0da767bd2c0222f,64d2fd46c836a06233681665,64dc7a124d2b9397b5c54744,,,,,,,decisionTrl,resources/DY.BMP,resources/DR.BMP,Door1,-0.437724785,-0.077038818,1,0,0,1.1111,optionLeft,30,14995,7,8,0,8,0,1,,,,,,,,,,,,,,,,,,,,,,,,,,,,,,,,,,,,,,,
,,,,,,,,2023-08-16_08h26.36.071,HF_wild_card,2022.2.4,Linux x86_64,60.06006006,62a12f67f0da767bd2c0222f,64d2fd46c836a06233681665,64dc7a124d2b9397b5c54744,,,,,,,ctch,resources/DB.BMP,resources/DY.BMP,Door4,-0.38233624,-0.006082801,1,0,0,1.1573,optionLeft,80,15075,7,9,0,9,0,1,,,,,,,,,,,,,,,,,,,,,,,,,,,,,,,,,,,,,,,
,,,,,,,,2023-08-16_08h26.36.071,HF_wild_card,2022.2.4,Linux x86_64,60.06006006,62a12f67f0da767bd2c0222f,64d2fd46c836a06233681665,64dc7a124d2b9397b5c54744,,,,,,,decisionTrl,resources/DG.BMP,resources/DB.BMP,Door4,0.2751638,-0.054492803,1,0,0,1.4787,optionRight,80,15155,7,10,0,10,0,1,,,,,,,,,,,,,,,,,,,,,,,,,,,,,,,,,,,,,,,
,,,,,,,,2023-08-16_08h26.36.071,HF_wild_card,2022.2.4,Linux x86_64,60.06006006,62a12f67f0da767bd2c0222f,64d2fd46c836a06233681665,64dc7a124d2b9397b5c54744,,,,,,,ctch,resources/DG.BMP,resources/DR.BMP,Door3,-0.408742889,-0.031974408,1,0,0,1.0636,optionLeft,70,15225,7,11,0,11,0,1,,,,,,,,,,,,,,,,,,,,,,,,,,,,,,,,,,,,,,,
,,,,,,,,2023-08-16_08h26.36.071,HF_wild_card,2022.2.4,Linux x86_64,60.06006006,62a12f67f0da767bd2c0222f,64d2fd46c836a06233681665,64dc7a124d2b9397b5c54744,,,,,,,ctch,resources/DY.BMP,resources/DB.BMP,Door4,0.278856248,-0.048697504,1,0,0,1.2257,optionRight,80,15305,7,12,0,12,0,1,,,,,,,,,,,,,,,,,,,,,,,,,,,,,,,,,,,,,,,
,,,,,,,,2023-08-16_08h26.36.071,HF_wild_card,2022.2.4,Linux x86_64,60.06006006,62a12f67f0da767bd2c0222f,64d2fd46c836a06233681665,64dc7a124d2b9397b5c54744,,,,,,,decisionTrl,resources/DG.BMP,resources/DB.BMP,Door4,0.366452502,-0.000649134,1,0,0,1.5742,optionRight,60,15365,7,13,0,13,0,1,,,,,,,,,,,,,,,,,,,,,,,,,,,,,,,,,,,,,,,
,,,,,,,,2023-08-16_08h26.36.071,HF_wild_card,2022.2.4,Linux x86_64,60.06006006,62a12f67f0da767bd2c0222f,64d2fd46c836a06233681665,64dc7a124d2b9397b5c54744,,,,,,,decisionTrl,resources/DG.BMP,resources/DB.BMP,Door4,0.364439845,-0.052613736,1,0,0,1.2275,optionRight,80,15445,7,14,0,14,0,1,,,,,,,,,,,,,,,,,,,,,,,,,,,,,,,,,,,,,,,
,,,,,,,,2023-08-16_08h26.36.071,HF_wild_card,2022.2.4,Linux x86_64,60.06006006,62a12f67f0da767bd2c0222f,64d2fd46c836a06233681665,64dc7a124d2b9397b5c54744,,,,,,,decisionTrl,resources/DB.BMP,resources/DG.BMP,Door4,-0.441873101,-0.092825278,1,0,0,1.1928,optionLeft,60,15505,7,15,0,15,0,1,,,,,,,,,,,,,,,,,,,,,,,,,,,,,,,,,,,,,,,
,,,,,,,,2023-08-16_08h26.36.071,HF_wild_card,2022.2.4,Linux x86_64,60.06006006,62a12f67f0da767bd2c0222f,64d2fd46c836a06233681665,64dc7a124d2b9397b5c54744,,,,,,,ctch,resources/DB.BMP,resources/DY.BMP,Door4,-0.312464867,-0.000187506,1,0,0,2.1577,optionLeft,60,15565,7,16,0,16,0,1,,,,,,,,,,,,,,,,,,,,,,,,,,,,,,,,,,,,,,,
,,,,,,,,2023-08-16_08h26.36.071,HF_wild_card,2022.2.4,Linux x86_64,60.06006006,62a12f67f0da767bd2c0222f,64d2fd46c836a06233681665,64dc7a124d2b9397b5c54744,,,,,,,ctch,resources/DY.BMP,resources/DB.BMP,Door4,0.319981637,-0.025776549,1,0,0,1.3607,optionRight,60,15625,7,17,0,17,0,1,,,,,,,,,,,,,,,,,,,,,,,,,,,,,,,,,,,,,,,
,,,,,,,,2023-08-16_08h26.36.071,HF_wild_card,2022.2.4,Linux x86_64,60.06006006,62a12f67f0da767bd2c0222f,64d2fd46c836a06233681665,64dc7a124d2b9397b5c54744,,,,,,,decisionTrl,resources/DR.BMP,resources/DY.BMP,Door1,0.337996238,-0.050726547,1,0,0,1.927,optionRight,30,15655,7,18,0,18,0,1,,,,,,,,,,,,,,,,,,,,,,,,,,,,,,,,,,,,,,,
,,,,,,,,2023-08-16_08h26.36.071,HF_wild_card,2022.2.4,Linux x86_64,60.06006006,62a12f67f0da767bd2c0222f,64d2fd46c836a06233681665,64dc7a124d2b9397b5c54744,,,,,,,decisionTrl,resources/DR.BMP,resources/DY.BMP,Door1,0.314563747,-0.00264791,1,0,0,1.5781,optionRight,30,15685,7,19,0,19,0,1,,,,,,,,,,,,,,,,,,,,,,,,,,,,,,,,,,,,,,,
,,,,,,,,2023-08-16_08h26.36.071,HF_wild_card,2022.2.4,Linux x86_64,60.06006006,62a12f67f0da767bd2c0222f,64d2fd46c836a06233681665,64dc7a124d2b9397b5c54744,,,,,,,decisionTrl,resources/DY.BMP,resources/DR.BMP,Door1,-0.383758223,-0.119482508,1,0,0,1.6639,optionLeft,30,15715,7,20,0,20,0,1,,,,,,,,,,,,,,,,,,,,,,,,,,,,,,,,,,,,,,,
,,,,,,,,2023-08-16_08h26.36.071,HF_wild_card,2022.2.4,Linux x86_64,60.06006006,62a12f67f0da767bd2c0222f,64d2fd46c836a06233681665,64dc7a124d2b9397b5c54744,,,,,,,ctch,resources/DR.BMP,resources/DG.BMP,Door3,0.300109076,0.021419869,1,0,0,2.2102,optionRight,70,15785,7,21,0,21,0,1,,,,,,,,,,,,,,,,,,,,,,,,,,,,,,,,,,,,,,,
,,,,,,,,2023-08-16_08h26.36.071,HF_wild_card,2022.2.4,Linux x86_64,60.06006006,62a12f67f0da767bd2c0222f,64d2fd46c836a06233681665,64dc7a124d2b9397b5c54744,,,,,,,decisionTrl,resources/DB.BMP,resources/DG.BMP,Door4,-0.320280659,-0.034670223,1,0,0,1.8743,optionLeft,80,15865,7,22,0,22,0,1,,,,,,,,,,,,,,,,,,,,,,,,,,,,,,,,,,,,,,,
,,,,,,,,2023-08-16_08h26.36.071,HF_wild_card,2022.2.4,Linux x86_64,60.06006006,62a12f67f0da767bd2c0222f,64d2fd46c836a06233681665,64dc7a124d2b9397b5c54744,,,,,,,decisionTrl,resources/DG.BMP,resources/DB.BMP,Door3,-0.554929566,-0.004840095,1,0,0,3.1207,optionLeft,70,15935,7,23,0,23,0,1,,,,,,,,,,,,,,,,,,,,,,,,,,,,,,,,,,,,,,,
,,,,,,,,2023-08-16_08h26.36.071,HF_wild_card,2022.2.4,Linux x86_64,60.06006006,62a12f67f0da767bd2c0222f,64d2fd46c836a06233681665,64dc7a124d2b9397b5c54744,,,,,,,decisionTrl,resources/DY.BMP,resources/DR.BMP,Door1,-0.287760727,-0.014735912,1,0,0,1.8071,optionLeft,30,15965,7,24,0,24,0,1,,,,,,,,,,,,,,,,,,,,,,,,,,,,,,,,,,,,,,,
,,,,,,,,2023-08-16_08h26.36.071,HF_wild_card,2022.2.4,Linux x86_64,60.06006006,62a12f67f0da767bd2c0222f,64d2fd46c836a06233681665,64dc7a124d2b9397b5c54744,,,,,,,decisionTrl,resources/DB.BMP,resources/DG.BMP,Door4,-0.474485409,-0.036172882,1,0,0,1.4579,optionLeft,60,16025,7,25,0,25,0,1,,,,,,,,,,,,,,,,,,,,,,,,,,,,,,,,,,,,,,,
,,,,,,,,2023-08-16_08h26.36.071,HF_wild_card,2022.2.4,Linux x86_64,60.06006006,62a12f67f0da767bd2c0222f,64d2fd46c836a06233681665,64dc7a124d2b9397b5c54744,,,,,,,ctch,resources/DR.BMP,resources/DG.BMP,Door3,0.345186079,-0.073054359,1,0,0,1.0604,optionRight,70,16095,7,26,0,26,0,1,,,,,,,,,,,,,,,,,,,,,,,,,,,,,,,,,,,,,,,
,,,,,,,,2023-08-16_08h26.36.071,HF_wild_card,2022.2.4,Linux x86_64,60.06006006,62a12f67f0da767bd2c0222f,64d2fd46c836a06233681665,64dc7a124d2b9397b5c54744,,,,,,,ctch,resources/DG.BMP,resources/DR.BMP,Door3,-0.39653482,-0.012864071,1,0,0,1.1932,optionLeft,70,16165,7,27,0,27,0,1,,,,,,,,,,,,,,,,,,,,,,,,,,,,,,,,,,,,,,,
,,,,,,,,2023-08-16_08h26.36.071,HF_wild_card,2022.2.4,Linux x86_64,60.06006006,62a12f67f0da767bd2c0222f,64d2fd46c836a06233681665,64dc7a124d2b9397b5c54744,,,,,,,ctch,resources/DR.BMP,resources/DG.BMP,Door3,0.365256843,-0.058430608,1,0,0,1.1602,optionRight,70,16235,7,28,0,28,0,1,,,,,,,,,,,,,,,,,,,,,,,,,,,,,,,,,,,,,,,
,,,,,,,,2023-08-16_08h26.36.071,HF_wild_card,2022.2.4,Linux x86_64,60.06006006,62a12f67f0da767bd2c0222f,64d2fd46c836a06233681665,64dc7a124d2b9397b5c54744,,,,,,,decisionTrl,resources/DR.BMP,resources/DY.BMP,Door1,0.286810567,-0.022278977,1,0,0,1.809,optionRight,30,16265,7,29,0,29,0,1,,,,,,,,,,,,,,,,,,,,,,,,,,,,,,,,,,,,,,,
,,,,,,,,2023-08-16_08h26.36.071,HF_wild_card,2022.2.4,Linux x86_64,60.06006006,62a12f67f0da767bd2c0222f,64d2fd46c836a06233681665,64dc7a124d2b9397b5c54744,,,,,,,decisionTrl,resources/DR.BMP,resources/DY.BMP,Door1,0.393902151,-0.041324844,1,0,0,2.3918,optionRight,30,16295,7,30,0,30,0,1,,,,,,,,,,,,,,,,,,,,,,,,,,,,,,,,,,,,,,,
,,,,,,,,2023-08-16_08h26.36.071,HF_wild_card,2022.2.4,Linux x86_64,60.06006006,62a12f67f0da767bd2c0222f,64d2fd46c836a06233681665,64dc7a124d2b9397b5c54744,,,,,,,decisionTrl,resources/DB.BMP,resources/DG.BMP,Door4,-0.445645546,0.086210691,1,0,0,2.525,optionLeft,80,16375,7,31,0,31,0,1,,,,,,,,,,,,,,,,,,,,,,,,,,,,,,,,,,,,,,,
,,,,,,,,2023-08-16_08h26.36.071,HF_wild_card,2022.2.4,Linux x86_64,60.06006006,62a12f67f0da767bd2c0222f,64d2fd46c836a06233681665,64dc7a124d2b9397b5c54744,,,,,,,decisionTrl,resources/DR.BMP,resources/DY.BMP,Door1,0.327620834,-0.089548949,1,0,0,1.309,optionRight,30,16405,7,32,0,32,0,1,,,,,,,,,,,,,,,,,,,,,,,,,,,,,,,,,,,,,,,
,,,,,,,,2023-08-16_08h26.36.071,HF_wild_card,2022.2.4,Linux x86_64,60.06006006,62a12f67f0da767bd2c0222f,64d2fd46c836a06233681665,64dc7a124d2b9397b5c54744,,,,,,,decisionTrl,resources/DB.BMP,resources/DG.BMP,Door4,-0.327471788,-0.023310922,1,0,0,1.1266,optionLeft,80,16485,7,33,0,33,0,1,,,,,,,,,,,,,,,,,,,,,,,,,,,,,,,,,,,,,,,
,,,,,,,,2023-08-16_08h26.36.071,HF_wild_card,2022.2.4,Linux x86_64,60.06006006,62a12f67f0da767bd2c0222f,64d2fd46c836a06233681665,64dc7a124d2b9397b5c54744,,,,,,,decisionTrl,resources/DY.BMP,resources/DR.BMP,Door1,-0.377295509,-0.060169716,1,0,0,1.4582,optionLeft,30,16515,7,34,0,34,0,1,,,,,,,,,,,,,,,,,,,,,,,,,,,,,,,,,,,,,,,
,,,,,,,,2023-08-16_08h26.36.071,HF_wild_card,2022.2.4,Linux x86_64,60.06006006,62a12f67f0da767bd2c0222f,64d2fd46c836a06233681665,64dc7a124d2b9397b5c54744,,,,,,,decisionTrl,resources/DG.BMP,resources/DB.BMP,Door3,-0.417773015,0.026866166,1,0,0,1.7753,optionLeft,70,16585,7,35,0,35,0,1,,,,,,,,,,,,,,,,,,,,,,,,,,,,,,,,,,,,,,,
