Condition,Low fixed image (Door1),Low risky image (Door2),High fixed image (Door3),High risky image (Door4),Extreme Wild Card,NonExtreme Wild Card,,date,expName,psychopyVersion,OS,frameRate,PROLIFIC_PID,STUDY_ID,SESSION_ID,mouse_2.x,mouse_2.y,mouse_2.leftButton,mouse_2.midButton,mouse_2.rightButton,mouse_2.clicked_name,Trial Type,Left Option Image,Right Option Image,Chosen Door,mouse.x,mouse.y,mouse.leftButton,mouse.midButton,mouse.rightButton,mouse.time,mouse.clicked_name,Feedback,Cumulative Reward,Block,trial.thisRepN,trial.thisTrialN,trial.thisN,trial.thisIndex,trial.ran,blocks.thisRepN,blocks.thisTrialN,blocks.thisN,blocks.thisIndex,blocks.ran,Money conversion,First Outcome Reported,Shown Door (First Outcome),Displayed Image (First Outcome),outcomes.thisRepN,outcomes.thisTrialN,outcomes.thisN,outcomes.thisIndex,outcomes.ran,judgments.thisRepN,judgments.thisTrialN,judgments.thisN,judgments.thisIndex,judgments.ran,freqMouse.x,freqMouse.y,freqMouse.leftButton,freqMouse.midButton,freqMouse.rightButton,freqMouse.clicked_name,FQJ for first outcome,FQJ for second outcome,Shown Door,Displayed Image,trials.thisRepN,trials.thisTrialN,trials.thisN,trials.thisIndex,trials.ran,judgBlock.thisRepN,judgBlock.thisTrialN,judgBlock.thisN,judgBlock.thisIndex,judgBlock.ran
0,resources/DP.BMP,resources/DY.BMP,resources/DB.BMP,resources/DR.BMP,resources/DBN.BMP,resources/DG.BMP,,2023-08-16_08h17.35.614,HF_wild_card,2022.2.4,Win32,60.25548325,609408e1ef7e7d611c5a06ac,64d2fd46c836a06233681665,64dc77e61c7c0de1694e5753,,,,,,,,,,,,,,,,,,,,,,,,,,,,,,,,,,,,,,,,,,,,,,,,,,,,,,,,,,,,,,,,
,,,,,,,,2023-08-16_08h17.35.614,HF_wild_card,2022.2.4,Win32,60.25548325,609408e1ef7e7d611c5a06ac,64d2fd46c836a06233681665,64dc77e61c7c0de1694e5753,-0.002604167,-0.427083333,1,0,0,agree,,,,,,,,,,,,,,,,,,,,,,,,,,,,,,,,,,,,,,,,,,,,,,,,,,,,,,,,,,
,,,,,,,,2023-08-16_08h17.35.614,HF_wild_card,2022.2.4,Win32,60.25548325,609408e1ef7e7d611c5a06ac,64d2fd46c836a06233681665,64dc77e61c7c0de1694e5753,,,,,,,,,,,,,,,,,,,,,,,,,,,,,,,,,,,,,,,,,,,,,,,,,,,,,,,,,,,,,,,,
,,,,,,,,2023-08-16_08h17.35.614,HF_wild_card,2022.2.4,Win32,60.25548325,609408e1ef7e7d611c5a06ac,64d2fd46c836a06233681665,64dc77e61c7c0de1694e5753,,,,,,,sngl,resources/DBN.BMP,resources/Empty.png,WildCard_Ex,-0.403645833,0.009114583,1,0,0,7.0301,optionLeft,95,95,1,0,0,0,0,1,,,,,,,,,,,,,,,,,,,,,,,,,,,,,,,,,,,,,,,
,,,,,,,,2023-08-16_08h17.35.614,HF_wild_card,2022.2.4,Win32,60.25548325,609408e1ef7e7d611c5a06ac,64d2fd46c836a06233681665,64dc77e61c7c0de1694e5753,,,,,,,decisionTrl,resources/DBN.BMP,resources/DP.BMP,WildCard_Ex,-0.420572917,0.006510417,1,0,0,3.4279,optionLeft,5,100,1,1,0,1,0,1,,,,,,,,,,,,,,,,,,,,,,,,,,,,,,,,,,,,,,,
,,,,,,,,2023-08-16_08h17.35.614,HF_wild_card,2022.2.4,Win32,60.25548325,609408e1ef7e7d611c5a06ac,64d2fd46c836a06233681665,64dc77e61c7c0de1694e5753,,,,,,,decisionTrl,resources/DBN.BMP,resources/DY.BMP,Door2,0.41015625,-0.052083333,1,0,0,2.8444,optionRight,20,120,1,2,0,2,0,1,,,,,,,,,,,,,,,,,,,,,,,,,,,,,,,,,,,,,,,
,,,,,,,,2023-08-16_08h17.35.614,HF_wild_card,2022.2.4,Win32,60.25548325,609408e1ef7e7d611c5a06ac,64d2fd46c836a06233681665,64dc77e61c7c0de1694e5753,,,,,,,decisionTrl,resources/DR.BMP,resources/DB.BMP,Door4,-0.40234375,-0.048177083,1,0,0,2.4785,optionLeft,80,200,1,3,0,3,0,1,,,,,,,,,,,,,,,,,,,,,,,,,,,,,,,,,,,,,,,
,,,,,,,,2023-08-16_08h17.35.614,HF_wild_card,2022.2.4,Win32,60.25548325,609408e1ef7e7d611c5a06ac,64d2fd46c836a06233681665,64dc77e61c7c0de1694e5753,,,,,,,ctch,resources/DR.BMP,resources/DP.BMP,Door1,0.395833333,-0.084635417,1,0,0,2.8105,optionRight,30,230,1,4,0,4,0,1,,,,,,,,,,,,,,,,,,,,,,,,,,,,,,,,,,,,,,,
,,,,,,,,2023-08-16_08h17.35.614,HF_wild_card,2022.2.4,Win32,60.25548325,609408e1ef7e7d611c5a06ac,64d2fd46c836a06233681665,64dc77e61c7c0de1694e5753,,,,,,,decisionTrl,resources/DY.BMP,resources/DP.BMP,Door1,0.408854167,-0.05859375,1,0,0,2.9922,optionRight,30,260,1,5,0,5,0,1,,,,,,,,,,,,,,,,,,,,,,,,,,,,,,,,,,,,,,,
,,,,,,,,2023-08-16_08h17.35.614,HF_wild_card,2022.2.4,Win32,60.25548325,609408e1ef7e7d611c5a06ac,64d2fd46c836a06233681665,64dc77e61c7c0de1694e5753,,,,,,,sngl,resources/Empty.png,resources/DP.BMP,Door1,0.395833333,-0.067708333,1,0,0,2.1729,optionRight,30,290,1,6,0,6,0,1,,,,,,,,,,,,,,,,,,,,,,,,,,,,,,,,,,,,,,,
,,,,,,,,2023-08-16_08h17.35.614,HF_wild_card,2022.2.4,Win32,60.25548325,609408e1ef7e7d611c5a06ac,64d2fd46c836a06233681665,64dc77e61c7c0de1694e5753,,,,,,,decisionTrl,resources/DB.BMP,resources/DR.BMP,Door3,-0.412760417,-0.028645833,1,0,0,2.7702,optionLeft,70,360,1,7,0,7,0,1,,,,,,,,,,,,,,,,,,,,,,,,,,,,,,,,,,,,,,,
,,,,,,,,2023-08-16_08h17.35.614,HF_wild_card,2022.2.4,Win32,60.25548325,609408e1ef7e7d611c5a06ac,64d2fd46c836a06233681665,64dc77e61c7c0de1694e5753,,,,,,,decisionTrl,resources/DB.BMP,resources/DR.BMP,Door4,0.395833333,-0.052083333,1,0,0,2.1888,optionRight,80,440,1,8,0,8,0,1,,,,,,,,,,,,,,,,,,,,,,,,,,,,,,,,,,,,,,,
,,,,,,,,2023-08-16_08h17.35.614,HF_wild_card,2022.2.4,Win32,60.25548325,609408e1ef7e7d611c5a06ac,64d2fd46c836a06233681665,64dc77e61c7c0de1694e5753,,,,,,,sngl,resources/Empty.png,resources/DBN.BMP,WildCard_Ex,0.403645833,-0.00390625,1,0,0,1.7596,optionRight,95,535,1,9,0,9,0,1,,,,,,,,,,,,,,,,,,,,,,,,,,,,,,,,,,,,,,,
,,,,,,,,2023-08-16_08h17.35.614,HF_wild_card,2022.2.4,Win32,60.25548325,609408e1ef7e7d611c5a06ac,64d2fd46c836a06233681665,64dc77e61c7c0de1694e5753,,,,,,,sngl,resources/Empty.png,resources/DBN.BMP,WildCard_Ex,0.403645833,-0.001302083,1,0,0,2.4463,optionRight,5,540,1,10,0,10,0,1,,,,,,,,,,,,,,,,,,,,,,,,,,,,,,,,,,,,,,,
,,,,,,,,2023-08-16_08h17.35.614,HF_wild_card,2022.2.4,Win32,60.25548325,609408e1ef7e7d611c5a06ac,64d2fd46c836a06233681665,64dc77e61c7c0de1694e5753,,,,,,,ctch,resources/DY.BMP,resources/DB.BMP,Door2,-0.385416667,-0.05078125,1,0,0,1.8454,optionLeft,40,580,1,11,0,11,0,1,,,,,,,,,,,,,,,,,,,,,,,,,,,,,,,,,,,,,,,
,,,,,,,,2023-08-16_08h17.35.614,HF_wild_card,2022.2.4,Win32,60.25548325,609408e1ef7e7d611c5a06ac,64d2fd46c836a06233681665,64dc77e61c7c0de1694e5753,,,,,,,decisionTrl,resources/DR.BMP,resources/DB.BMP,Door4,-0.397135417,-0.0390625,1,0,0,2.1821,optionLeft,80,660,1,12,0,12,0,1,,,,,,,,,,,,,,,,,,,,,,,,,,,,,,,,,,,,,,,
,,,,,,,,2023-08-16_08h17.35.614,HF_wild_card,2022.2.4,Win32,60.25548325,609408e1ef7e7d611c5a06ac,64d2fd46c836a06233681665,64dc77e61c7c0de1694e5753,,,,,,,decisionTrl,resources/DB.BMP,resources/DBN.BMP,WildCard_Ex,0.393229167,0,1,0,0,1.1589,optionRight,5,665,1,13,0,13,0,1,,,,,,,,,,,,,,,,,,,,,,,,,,,,,,,,,,,,,,,
,,,,,,,,2023-08-16_08h17.35.614,HF_wild_card,2022.2.4,Win32,60.25548325,609408e1ef7e7d611c5a06ac,64d2fd46c836a06233681665,64dc77e61c7c0de1694e5753,,,,,,,decisionTrl,resources/DP.BMP,resources/DY.BMP,Door1,-0.389322917,-0.091145833,1,0,0,1.1749,optionLeft,30,695,1,14,0,14,0,1,,,,,,,,,,,,,,,,,,,,,,,,,,,,,,,,,,,,,,,
,,,,,,,,2023-08-16_08h17.35.614,HF_wild_card,2022.2.4,Win32,60.25548325,609408e1ef7e7d611c5a06ac,64d2fd46c836a06233681665,64dc77e61c7c0de1694e5753,,,,,,,ctch,resources/DP.BMP,resources/DR.BMP,Door1,-0.401041667,-0.045572917,1,0,0,1.4539,optionLeft,30,725,1,15,0,15,0,1,,,,,,,,,,,,,,,,,,,,,,,,,,,,,,,,,,,,,,,
,,,,,,,,2023-08-16_08h17.35.614,HF_wild_card,2022.2.4,Win32,60.25548325,609408e1ef7e7d611c5a06ac,64d2fd46c836a06233681665,64dc77e61c7c0de1694e5753,,,,,,,decisionTrl,resources/DY.BMP,resources/DP.BMP,Door2,-0.411458333,-0.009114583,1,0,0,1.6842,optionLeft,40,765,1,16,0,16,0,1,,,,,,,,,,,,,,,,,,,,,,,,,,,,,,,,,,,,,,,
,,,,,,,,2023-08-16_08h17.35.614,HF_wild_card,2022.2.4,Win32,60.25548325,609408e1ef7e7d611c5a06ac,64d2fd46c836a06233681665,64dc77e61c7c0de1694e5753,,,,,,,decisionTrl,resources/DY.BMP,resources/DP.BMP,Door2,-0.376302083,-0.0390625,1,0,0,2.0857,optionLeft,40,805,1,17,0,17,0,1,,,,,,,,,,,,,,,,,,,,,,,,,,,,,,,,,,,,,,,
,,,,,,,,2023-08-16_08h17.35.614,HF_wild_card,2022.2.4,Win32,60.25548325,609408e1ef7e7d611c5a06ac,64d2fd46c836a06233681665,64dc77e61c7c0de1694e5753,,,,,,,sngl,resources/DB.BMP,resources/Empty.png,Door3,-0.397135417,-0.022135417,1,0,0,1.7903,optionLeft,70,875,1,18,0,18,0,1,,,,,,,,,,,,,,,,,,,,,,,,,,,,,,,,,,,,,,,
,,,,,,,,2023-08-16_08h17.35.614,HF_wild_card,2022.2.4,Win32,60.25548325,609408e1ef7e7d611c5a06ac,64d2fd46c836a06233681665,64dc77e61c7c0de1694e5753,,,,,,,sngl,resources/Empty.png,resources/DY.BMP,Door2,0.428385417,-0.05078125,1,0,0,1.2433,optionRight,20,895,1,19,0,19,0,1,,,,,,,,,,,,,,,,,,,,,,,,,,,,,,,,,,,,,,,
,,,,,,,,2023-08-16_08h17.35.614,HF_wild_card,2022.2.4,Win32,60.25548325,609408e1ef7e7d611c5a06ac,64d2fd46c836a06233681665,64dc77e61c7c0de1694e5753,,,,,,,decisionTrl,resources/DBN.BMP,resources/DB.BMP,Door3,0.361979167,-0.002604167,1,0,0,2.0573,optionRight,70,965,1,20,0,20,0,1,,,,,,,,,,,,,,,,,,,,,,,,,,,,,,,,,,,,,,,
,,,,,,,,2023-08-16_08h17.35.614,HF_wild_card,2022.2.4,Win32,60.25548325,609408e1ef7e7d611c5a06ac,64d2fd46c836a06233681665,64dc77e61c7c0de1694e5753,,,,,,,decisionTrl,resources/DBN.BMP,resources/DR.BMP,Door4,0.380208333,-0.055989583,1,0,0,1.8529,optionRight,60,1025,1,21,0,21,0,1,,,,,,,,,,,,,,,,,,,,,,,,,,,,,,,,,,,,,,,
,,,,,,,,2023-08-16_08h17.35.614,HF_wild_card,2022.2.4,Win32,60.25548325,609408e1ef7e7d611c5a06ac,64d2fd46c836a06233681665,64dc77e61c7c0de1694e5753,,,,,,,decisionTrl,resources/DY.BMP,resources/DBN.BMP,Door2,-0.399739583,-0.037760417,1,0,0,0.8678,optionLeft,40,1065,1,22,0,22,0,1,,,,,,,,,,,,,,,,,,,,,,,,,,,,,,,,,,,,,,,
,,,,,,,,2023-08-16_08h17.35.614,HF_wild_card,2022.2.4,Win32,60.25548325,609408e1ef7e7d611c5a06ac,64d2fd46c836a06233681665,64dc77e61c7c0de1694e5753,,,,,,,decisionTrl,resources/DP.BMP,resources/DY.BMP,Door2,0.41015625,-0.069010417,1,0,0,1.0904,optionRight,40,1105,1,23,0,23,0,1,,,,,,,,,,,,,,,,,,,,,,,,,,,,,,,,,,,,,,,
,,,,,,,,2023-08-16_08h17.35.614,HF_wild_card,2022.2.4,Win32,60.25548325,609408e1ef7e7d611c5a06ac,64d2fd46c836a06233681665,64dc77e61c7c0de1694e5753,,,,,,,ctch,resources/DR.BMP,resources/DP.BMP,Door4,-0.391927083,-0.048177083,1,0,0,1.0366,optionLeft,60,1165,1,24,0,24,0,1,,,,,,,,,,,,,,,,,,,,,,,,,,,,,,,,,,,,,,,
,,,,,,,,2023-08-16_08h17.35.614,HF_wild_card,2022.2.4,Win32,60.25548325,609408e1ef7e7d611c5a06ac,64d2fd46c836a06233681665,64dc77e61c7c0de1694e5753,,,,,,,decisionTrl,resources/DP.BMP,resources/DBN.BMP,WildCard_Ex,0.397135417,-0.0234375,1,0,0,1.2603,optionRight,95,1260,1,25,0,25,0,1,,,,,,,,,,,,,,,,,,,,,,,,,,,,,,,,,,,,,,,
,,,,,,,,2023-08-16_08h17.35.614,HF_wild_card,2022.2.4,Win32,60.25548325,609408e1ef7e7d611c5a06ac,64d2fd46c836a06233681665,64dc77e61c7c0de1694e5753,,,,,,,decisionTrl,resources/DP.BMP,resources/DY.BMP,Door1,-0.358072917,-0.016927083,1,0,0,0.8888,optionLeft,30,1290,1,26,0,26,0,1,,,,,,,,,,,,,,,,,,,,,,,,,,,,,,,,,,,,,,,
,,,,,,,,2023-08-16_08h17.35.614,HF_wild_card,2022.2.4,Win32,60.25548325,609408e1ef7e7d611c5a06ac,64d2fd46c836a06233681665,64dc77e61c7c0de1694e5753,,,,,,,decisionTrl,resources/DY.BMP,resources/DP.BMP,Door1,0.395833333,-0.055989583,1,0,0,1.0839,optionRight,30,1320,1,27,0,27,0,1,,,,,,,,,,,,,,,,,,,,,,,,,,,,,,,,,,,,,,,
,,,,,,,,2023-08-16_08h17.35.614,HF_wild_card,2022.2.4,Win32,60.25548325,609408e1ef7e7d611c5a06ac,64d2fd46c836a06233681665,64dc77e61c7c0de1694e5753,,,,,,,ctch,resources/DB.BMP,resources/DY.BMP,Door3,-0.416666667,-0.048177083,1,0,0,0.8818,optionLeft,70,1390,1,28,0,28,0,1,,,,,,,,,,,,,,,,,,,,,,,,,,,,,,,,,,,,,,,
,,,,,,,,2023-08-16_08h17.35.614,HF_wild_card,2022.2.4,Win32,60.25548325,609408e1ef7e7d611c5a06ac,64d2fd46c836a06233681665,64dc77e61c7c0de1694e5753,,,,,,,ctch,resources/DY.BMP,resources/DB.BMP,Door3,0.395833333,-0.053385417,1,0,0,0.9407,optionRight,70,1460,1,29,0,29,0,1,,,,,,,,,,,,,,,,,,,,,,,,,,,,,,,,,,,,,,,
,,,,,,,,2023-08-16_08h17.35.614,HF_wild_card,2022.2.4,Win32,60.25548325,609408e1ef7e7d611c5a06ac,64d2fd46c836a06233681665,64dc77e61c7c0de1694e5753,,,,,,,sngl,resources/DBN.BMP,resources/Empty.png,WildCard_Ex,-0.390625,0.001302083,1,0,0,1.1393,optionLeft,5,1465,1,30,0,30,0,1,,,,,,,,,,,,,,,,,,,,,,,,,,,,,,,,,,,,,,,
,,,,,,,,2023-08-16_08h17.35.614,HF_wild_card,2022.2.4,Win32,60.25548325,609408e1ef7e7d611c5a06ac,64d2fd46c836a06233681665,64dc77e61c7c0de1694e5753,,,,,,,decisionTrl,resources/DR.BMP,resources/DB.BMP,Door3,0.40234375,-0.088541667,1,0,0,1.9096,optionRight,70,1535,1,31,0,31,0,1,,,,,,,,,,,,,,,,,,,,,,,,,,,,,,,,,,,,,,,
,,,,,,,,2023-08-16_08h17.35.614,HF_wild_card,2022.2.4,Win32,60.25548325,609408e1ef7e7d611c5a06ac,64d2fd46c836a06233681665,64dc77e61c7c0de1694e5753,,,,,,,ctch,resources/DB.BMP,resources/DY.BMP,Door2,0.393229167,-0.040364583,1,0,0,1.6472,optionRight,40,1575,1,32,0,32,0,1,,,,,,,,,,,,,,,,,,,,,,,,,,,,,,,,,,,,,,,
,,,,,,,,2023-08-16_08h17.35.614,HF_wild_card,2022.2.4,Win32,60.25548325,609408e1ef7e7d611c5a06ac,64d2fd46c836a06233681665,64dc77e61c7c0de1694e5753,,,,,,,decisionTrl,resources/DB.BMP,resources/DR.BMP,Door4,0.380208333,-0.044270833,1,0,0,1.7536,optionRight,60,1635,1,33,0,33,0,1,,,,,,,,,,,,,,,,,,,,,,,,,,,,,,,,,,,,,,,
,,,,,,,,2023-08-16_08h17.35.614,HF_wild_card,2022.2.4,Win32,60.25548325,609408e1ef7e7d611c5a06ac,64d2fd46c836a06233681665,64dc77e61c7c0de1694e5753,,,,,,,sngl,resources/DY.BMP,resources/Empty.png,Door2,-0.385416667,-0.040364583,1,0,0,1.8864,optionLeft,40,1675,1,34,0,34,0,1,,,,,,,,,,,,,,,,,,,,,,,,,,,,,,,,,,,,,,,
,,,,,,,,2023-08-16_08h17.35.614,HF_wild_card,2022.2.4,Win32,60.25548325,609408e1ef7e7d611c5a06ac,64d2fd46c836a06233681665,64dc77e61c7c0de1694e5753,,,,,,,sngl,resources/Empty.png,resources/DR.BMP,Door4,0.3984375,-0.049479167,1,0,0,1.3543,optionRight,60,1735,1,35,0,35,0,1,,,,,,,,,,,,,,,,,,,,,,,,,,,,,,,,,,,,,,,
,,,,,,,,2023-08-16_08h17.35.614,HF_wild_card,2022.2.4,Win32,60.25548325,609408e1ef7e7d611c5a06ac,64d2fd46c836a06233681665,64dc77e61c7c0de1694e5753,,,,,,,decisionTrl,resources/DR.BMP,resources/DBN.BMP,WildCard_Ex,0.388020833,-0.00390625,1,0,0,1.5122,optionRight,95,1830,1,36,0,36,0,1,,,,,,,,,,,,,,,,,,,,,,,,,,,,,,,,,,,,,,,
,,,,,,,,2023-08-16_08h17.35.614,HF_wild_card,2022.2.4,Win32,60.25548325,609408e1ef7e7d611c5a06ac,64d2fd46c836a06233681665,64dc77e61c7c0de1694e5753,,,,,,,decisionTrl,resources/DR.BMP,resources/DB.BMP,Door3,0.416666667,-0.010416667,1,0,0,1.1437,optionRight,70,1900,1,37,0,37,0,1,,,,,,,,,,,,,,,,,,,,,,,,,,,,,,,,,,,,,,,
,,,,,,,,2023-08-16_08h17.35.614,HF_wild_card,2022.2.4,Win32,60.25548325,609408e1ef7e7d611c5a06ac,64d2fd46c836a06233681665,64dc77e61c7c0de1694e5753,,,,,,,decisionTrl,resources/DB.BMP,resources/DR.BMP,Door3,-0.3984375,-0.029947917,1,0,0,0.8211,optionLeft,70,1970,1,38,0,38,0,1,,,,,,,,,,,,,,,,,,,,,,,,,,,,,,,,,,,,,,,
,,,,,,,,2023-08-16_08h17.35.614,HF_wild_card,2022.2.4,Win32,60.25548325,609408e1ef7e7d611c5a06ac,64d2fd46c836a06233681665,64dc77e61c7c0de1694e5753,,,,,,,sngl,resources/DR.BMP,resources/Empty.png,Door4,-0.389322917,-0.0234375,1,0,0,1.0804,optionLeft,80,2050,1,39,0,39,0,1,,,,,,,,,,,,,,,,,,,,,,,,,,,,,,,,,,,,,,,
,,,,,,,,2023-08-16_08h17.35.614,HF_wild_card,2022.2.4,Win32,60.25548325,609408e1ef7e7d611c5a06ac,64d2fd46c836a06233681665,64dc77e61c7c0de1694e5753,,,,,,,decisionTrl,resources/DP.BMP,resources/DY.BMP,Door2,0.395833333,-0.06640625,1,0,0,1.0531,optionRight,20,2070,1,40,0,40,0,1,,,,,,,,,,,,,,,,,,,,,,,,,,,,,,,,,,,,,,,
,,,,,,,,2023-08-16_08h17.35.614,HF_wild_card,2022.2.4,Win32,60.25548325,609408e1ef7e7d611c5a06ac,64d2fd46c836a06233681665,64dc77e61c7c0de1694e5753,,,,,,,sngl,resources/Empty.png,resources/DB.BMP,Door3,0.334635417,-0.032552083,1,0,0,1.2701,optionRight,70,2140,1,41,0,41,0,1,,,,,,,,,,,,,,,,,,,,,,,,,,,,,,,,,,,,,,,
,,,,,,,,2023-08-16_08h17.35.614,HF_wild_card,2022.2.4,Win32,60.25548325,609408e1ef7e7d611c5a06ac,64d2fd46c836a06233681665,64dc77e61c7c0de1694e5753,,,,,,,ctch,resources/DP.BMP,resources/DR.BMP,Door4,0.399739583,-0.0390625,1,0,0,1.6874,optionRight,60,2200,1,42,0,42,0,1,,,,,,,,,,,,,,,,,,,,,,,,,,,,,,,,,,,,,,,
,,,,,,,,2023-08-16_08h17.35.614,HF_wild_card,2022.2.4,Win32,60.25548325,609408e1ef7e7d611c5a06ac,64d2fd46c836a06233681665,64dc77e61c7c0de1694e5753,,,,,,,sngl,resources/DP.BMP,resources/Empty.png,Door1,-0.397135417,-0.049479167,1,0,0,0.83,optionLeft,30,2230,1,43,0,43,0,1,,,,,,,,,,,,,,,,,,,,,,,,,,,,,,,,,,,,,,,
,,,,,,,,2023-08-16_08h17.35.614,HF_wild_card,2022.2.4,Win32,60.25548325,609408e1ef7e7d611c5a06ac,64d2fd46c836a06233681665,64dc77e61c7c0de1694e5753,,,,,,,,,,,,,,,,,,,,,,,,,,0,0,0,0,1,,,,,,,,,,,,,,,,,,,,,,,,,,,,,,,,,,
,,,,,,,,2023-08-16_08h17.35.614,HF_wild_card,2022.2.4,Win32,60.25548325,609408e1ef7e7d611c5a06ac,64d2fd46c836a06233681665,64dc77e61c7c0de1694e5753,,,,,,,decisionTrl,resources/DP.BMP,resources/DY.BMP,Door2,0.399739583,-0.049479167,1,0,0,1.807,optionRight,40,2270,2,0,0,0,0,1,,,,,,,,,,,,,,,,,,,,,,,,,,,,,,,,,,,,,,,
,,,,,,,,2023-08-16_08h17.35.614,HF_wild_card,2022.2.4,Win32,60.25548325,609408e1ef7e7d611c5a06ac,64d2fd46c836a06233681665,64dc77e61c7c0de1694e5753,,,,,,,decisionTrl,resources/DBN.BMP,resources/DY.BMP,WildCard_Ex,-0.38671875,0.010416667,1,0,0,1.7759,optionLeft,5,2275,2,1,0,1,0,1,,,,,,,,,,,,,,,,,,,,,,,,,,,,,,,,,,,,,,,
,,,,,,,,2023-08-16_08h17.35.614,HF_wild_card,2022.2.4,Win32,60.25548325,609408e1ef7e7d611c5a06ac,64d2fd46c836a06233681665,64dc77e61c7c0de1694e5753,,,,,,,sngl,resources/Empty.png,resources/DY.BMP,Door2,0.372395833,-0.048177083,1,0,0,0.9019,optionRight,40,2315,2,2,0,2,0,1,,,,,,,,,,,,,,,,,,,,,,,,,,,,,,,,,,,,,,,
,,,,,,,,2023-08-16_08h17.35.614,HF_wild_card,2022.2.4,Win32,60.25548325,609408e1ef7e7d611c5a06ac,64d2fd46c836a06233681665,64dc77e61c7c0de1694e5753,,,,,,,decisionTrl,resources/DBN.BMP,resources/DB.BMP,Door3,0.368489583,-0.033854167,1,0,0,1.0727,optionRight,70,2385,2,3,0,3,0,1,,,,,,,,,,,,,,,,,,,,,,,,,,,,,,,,,,,,,,,
,,,,,,,,2023-08-16_08h17.35.614,HF_wild_card,2022.2.4,Win32,60.25548325,609408e1ef7e7d611c5a06ac,64d2fd46c836a06233681665,64dc77e61c7c0de1694e5753,,,,,,,sngl,resources/DP.BMP,resources/Empty.png,Door1,-0.3671875,-0.026041667,1,0,0,1.7613,optionLeft,30,2415,2,4,0,4,0,1,,,,,,,,,,,,,,,,,,,,,,,,,,,,,,,,,,,,,,,
,,,,,,,,2023-08-16_08h17.35.614,HF_wild_card,2022.2.4,Win32,60.25548325,609408e1ef7e7d611c5a06ac,64d2fd46c836a06233681665,64dc77e61c7c0de1694e5753,,,,,,,decisionTrl,resources/DP.BMP,resources/DY.BMP,Door2,0.420572917,-0.059895833,1,0,0,1.1141,optionRight,40,2455,2,5,0,5,0,1,,,,,,,,,,,,,,,,,,,,,,,,,,,,,,,,,,,,,,,
,,,,,,,,2023-08-16_08h17.35.614,HF_wild_card,2022.2.4,Win32,60.25548325,609408e1ef7e7d611c5a06ac,64d2fd46c836a06233681665,64dc77e61c7c0de1694e5753,,,,,,,decisionTrl,resources/DR.BMP,resources/DB.BMP,Door4,-0.40234375,-0.04296875,1,0,0,1.0763,optionLeft,60,2515,2,6,0,6,0,1,,,,,,,,,,,,,,,,,,,,,,,,,,,,,,,,,,,,,,,
,,,,,,,,2023-08-16_08h17.35.614,HF_wild_card,2022.2.4,Win32,60.25548325,609408e1ef7e7d611c5a06ac,64d2fd46c836a06233681665,64dc77e61c7c0de1694e5753,,,,,,,sngl,resources/Empty.png,resources/DP.BMP,Door1,0.295572917,-0.052083333,1,0,0,1.8978,optionRight,30,2545,2,7,0,7,0,1,,,,,,,,,,,,,,,,,,,,,,,,,,,,,,,,,,,,,,,
,,,,,,,,2023-08-16_08h17.35.614,HF_wild_card,2022.2.4,Win32,60.25548325,609408e1ef7e7d611c5a06ac,64d2fd46c836a06233681665,64dc77e61c7c0de1694e5753,,,,,,,sngl,resources/Empty.png,resources/DBN.BMP,WildCard_Ex,0.389322917,-0.03125,1,0,0,0.8841,optionRight,5,2550,2,8,0,8,0,1,,,,,,,,,,,,,,,,,,,,,,,,,,,,,,,,,,,,,,,
,,,,,,,,2023-08-16_08h17.35.614,HF_wild_card,2022.2.4,Win32,60.25548325,609408e1ef7e7d611c5a06ac,64d2fd46c836a06233681665,64dc77e61c7c0de1694e5753,,,,,,,decisionTrl,resources/DR.BMP,resources/DB.BMP,Door3,0.368489583,-0.052083333,1,0,0,0.7989,optionRight,70,2620,2,9,0,9,0,1,,,,,,,,,,,,,,,,,,,,,,,,,,,,,,,,,,,,,,,
,,,,,,,,2023-08-16_08h17.35.614,HF_wild_card,2022.2.4,Win32,60.25548325,609408e1ef7e7d611c5a06ac,64d2fd46c836a06233681665,64dc77e61c7c0de1694e5753,,,,,,,ctch,resources/DP.BMP,resources/DR.BMP,Door4,0.376302083,-0.04296875,1,0,0,1.0129,optionRight,60,2680,2,10,0,10,0,1,,,,,,,,,,,,,,,,,,,,,,,,,,,,,,,,,,,,,,,
,,,,,,,,2023-08-16_08h17.35.614,HF_wild_card,2022.2.4,Win32,60.25548325,609408e1ef7e7d611c5a06ac,64d2fd46c836a06233681665,64dc77e61c7c0de1694e5753,,,,,,,decisionTrl,resources/DB.BMP,resources/DR.BMP,Door4,0.399739583,-0.040364583,1,0,0,1.5361,optionRight,80,2760,2,11,0,11,0,1,,,,,,,,,,,,,,,,,,,,,,,,,,,,,,,,,,,,,,,
,,,,,,,,2023-08-16_08h17.35.614,HF_wild_card,2022.2.4,Win32,60.25548325,609408e1ef7e7d611c5a06ac,64d2fd46c836a06233681665,64dc77e61c7c0de1694e5753,,,,,,,decisionTrl,resources/DY.BMP,resources/DP.BMP,Door2,-0.37109375,-0.03125,1,0,0,1.4206,optionLeft,20,2780,2,12,0,12,0,1,,,,,,,,,,,,,,,,,,,,,,,,,,,,,,,,,,,,,,,
,,,,,,,,2023-08-16_08h17.35.614,HF_wild_card,2022.2.4,Win32,60.25548325,609408e1ef7e7d611c5a06ac,64d2fd46c836a06233681665,64dc77e61c7c0de1694e5753,,,,,,,sngl,resources/Empty.png,resources/DBN.BMP,WildCard_Ex,0.377604167,-0.005208333,1,0,0,3.1327,optionRight,95,2875,2,13,0,13,0,1,,,,,,,,,,,,,,,,,,,,,,,,,,,,,,,,,,,,,,,
,,,,,,,,2023-08-16_08h17.35.614,HF_wild_card,2022.2.4,Win32,60.25548325,609408e1ef7e7d611c5a06ac,64d2fd46c836a06233681665,64dc77e61c7c0de1694e5753,,,,,,,ctch,resources/DR.BMP,resources/DP.BMP,Door4,-0.412760417,-0.026041667,1,0,0,11.8322,optionLeft,80,2955,2,14,0,14,0,1,,,,,,,,,,,,,,,,,,,,,,,,,,,,,,,,,,,,,,,
,,,,,,,,2023-08-16_08h17.35.614,HF_wild_card,2022.2.4,Win32,60.25548325,609408e1ef7e7d611c5a06ac,64d2fd46c836a06233681665,64dc77e61c7c0de1694e5753,,,,,,,decisionTrl,resources/DB.BMP,resources/DR.BMP,Door4,0.39453125,-0.0625,1,0,0,1.6514,optionRight,80,3035,2,15,0,15,0,1,,,,,,,,,,,,,,,,,,,,,,,,,,,,,,,,,,,,,,,
,,,,,,,,2023-08-16_08h17.35.614,HF_wild_card,2022.2.4,Win32,60.25548325,609408e1ef7e7d611c5a06ac,64d2fd46c836a06233681665,64dc77e61c7c0de1694e5753,,,,,,,sngl,resources/DB.BMP,resources/Empty.png,Door3,-0.438802083,-0.040364583,1,0,0,1.5023,optionLeft,70,3105,2,16,0,16,0,1,,,,,,,,,,,,,,,,,,,,,,,,,,,,,,,,,,,,,,,
,,,,,,,,2023-08-16_08h17.35.614,HF_wild_card,2022.2.4,Win32,60.25548325,609408e1ef7e7d611c5a06ac,64d2fd46c836a06233681665,64dc77e61c7c0de1694e5753,,,,,,,sngl,resources/DR.BMP,resources/Empty.png,Door4,-0.403645833,-0.048177083,1,0,0,1.3209,optionLeft,60,3165,2,17,0,17,0,1,,,,,,,,,,,,,,,,,,,,,,,,,,,,,,,,,,,,,,,
,,,,,,,,2023-08-16_08h17.35.614,HF_wild_card,2022.2.4,Win32,60.25548325,609408e1ef7e7d611c5a06ac,64d2fd46c836a06233681665,64dc77e61c7c0de1694e5753,,,,,,,decisionTrl,resources/DBN.BMP,resources/DP.BMP,Door1,0.37109375,-0.063802083,1,0,0,1.9178,optionRight,30,3195,2,18,0,18,0,1,,,,,,,,,,,,,,,,,,,,,,,,,,,,,,,,,,,,,,,
,,,,,,,,2023-08-16_08h17.35.614,HF_wild_card,2022.2.4,Win32,60.25548325,609408e1ef7e7d611c5a06ac,64d2fd46c836a06233681665,64dc77e61c7c0de1694e5753,,,,,,,decisionTrl,resources/DR.BMP,resources/DB.BMP,Door4,-0.389322917,-0.045572917,1,0,0,1.3703,optionLeft,60,3255,2,19,0,19,0,1,,,,,,,,,,,,,,,,,,,,,,,,,,,,,,,,,,,,,,,
,,,,,,,,2023-08-16_08h17.35.614,HF_wild_card,2022.2.4,Win32,60.25548325,609408e1ef7e7d611c5a06ac,64d2fd46c836a06233681665,64dc77e61c7c0de1694e5753,,,,,,,decisionTrl,resources/DBN.BMP,resources/DR.BMP,Door4,0.40234375,-0.05078125,1,0,0,1.1704,optionRight,60,3315,2,20,0,20,0,1,,,,,,,,,,,,,,,,,,,,,,,,,,,,,,,,,,,,,,,
,,,,,,,,2023-08-16_08h17.35.614,HF_wild_card,2022.2.4,Win32,60.25548325,609408e1ef7e7d611c5a06ac,64d2fd46c836a06233681665,64dc77e61c7c0de1694e5753,,,,,,,sngl,resources/Empty.png,resources/DR.BMP,Door4,0.381510417,-0.057291667,1,0,0,1.3506,optionRight,80,3395,2,21,0,21,0,1,,,,,,,,,,,,,,,,,,,,,,,,,,,,,,,,,,,,,,,
,,,,,,,,2023-08-16_08h17.35.614,HF_wild_card,2022.2.4,Win32,60.25548325,609408e1ef7e7d611c5a06ac,64d2fd46c836a06233681665,64dc77e61c7c0de1694e5753,,,,,,,sngl,resources/Empty.png,resources/DB.BMP,Door3,0.369791667,-0.048177083,1,0,0,1.181,optionRight,70,3465,2,22,0,22,0,1,,,,,,,,,,,,,,,,,,,,,,,,,,,,,,,,,,,,,,,
,,,,,,,,2023-08-16_08h17.35.614,HF_wild_card,2022.2.4,Win32,60.25548325,609408e1ef7e7d611c5a06ac,64d2fd46c836a06233681665,64dc77e61c7c0de1694e5753,,,,,,,decisionTrl,resources/DY.BMP,resources/DP.BMP,Door2,-0.415364583,-0.013020833,1,0,0,1.4719,optionLeft,20,3485,2,23,0,23,0,1,,,,,,,,,,,,,,,,,,,,,,,,,,,,,,,,,,,,,,,
,,,,,,,,2023-08-16_08h17.35.614,HF_wild_card,2022.2.4,Win32,60.25548325,609408e1ef7e7d611c5a06ac,64d2fd46c836a06233681665,64dc77e61c7c0de1694e5753,,,,,,,decisionTrl,resources/DY.BMP,resources/DP.BMP,Door1,0.3984375,-0.063802083,1,0,0,0.9471,optionRight,30,3515,2,24,0,24,0,1,,,,,,,,,,,,,,,,,,,,,,,,,,,,,,,,,,,,,,,
,,,,,,,,2023-08-16_08h17.35.614,HF_wild_card,2022.2.4,Win32,60.25548325,609408e1ef7e7d611c5a06ac,64d2fd46c836a06233681665,64dc77e61c7c0de1694e5753,,,,,,,ctch,resources/DB.BMP,resources/DY.BMP,Door2,0.391927083,-0.055989583,1,0,0,1.4867,optionRight,40,3555,2,25,0,25,0,1,,,,,,,,,,,,,,,,,,,,,,,,,,,,,,,,,,,,,,,
,,,,,,,,2023-08-16_08h17.35.614,HF_wild_card,2022.2.4,Win32,60.25548325,609408e1ef7e7d611c5a06ac,64d2fd46c836a06233681665,64dc77e61c7c0de1694e5753,,,,,,,ctch,resources/DY.BMP,resources/DB.BMP,Door2,-0.377604167,-0.069010417,1,0,0,1.5077,optionLeft,40,3595,2,26,0,26,0,1,,,,,,,,,,,,,,,,,,,,,,,,,,,,,,,,,,,,,,,
,,,,,,,,2023-08-16_08h17.35.614,HF_wild_card,2022.2.4,Win32,60.25548325,609408e1ef7e7d611c5a06ac,64d2fd46c836a06233681665,64dc77e61c7c0de1694e5753,,,,,,,decisionTrl,resources/DR.BMP,resources/DB.BMP,Door3,0.34765625,-0.061197917,1,0,0,1.1701,optionRight,70,3665,2,27,0,27,0,1,,,,,,,,,,,,,,,,,,,,,,,,,,,,,,,,,,,,,,,
,,,,,,,,2023-08-16_08h17.35.614,HF_wild_card,2022.2.4,Win32,60.25548325,609408e1ef7e7d611c5a06ac,64d2fd46c836a06233681665,64dc77e61c7c0de1694e5753,,,,,,,decisionTrl,resources/DB.BMP,resources/DBN.BMP,WildCard_Ex,0.369791667,0.006510417,1,0,0,1.1492,optionRight,5,3670,2,28,0,28,0,1,,,,,,,,,,,,,,,,,,,,,,,,,,,,,,,,,,,,,,,
,,,,,,,,2023-08-16_08h17.35.614,HF_wild_card,2022.2.4,Win32,60.25548325,609408e1ef7e7d611c5a06ac,64d2fd46c836a06233681665,64dc77e61c7c0de1694e5753,,,,,,,sngl,resources/DY.BMP,resources/Empty.png,Door2,-0.3828125,-0.071614583,1,0,0,1.2923,optionLeft,20,3690,2,29,0,29,0,1,,,,,,,,,,,,,,,,,,,,,,,,,,,,,,,,,,,,,,,
,,,,,,,,2023-08-16_08h17.35.614,HF_wild_card,2022.2.4,Win32,60.25548325,609408e1ef7e7d611c5a06ac,64d2fd46c836a06233681665,64dc77e61c7c0de1694e5753,,,,,,,decisionTrl,resources/DB.BMP,resources/DR.BMP,Door4,0.397135417,-0.046875,1,0,0,0.9914,optionRight,60,3750,2,30,0,30,0,1,,,,,,,,,,,,,,,,,,,,,,,,,,,,,,,,,,,,,,,
,,,,,,,,2023-08-16_08h17.35.614,HF_wild_card,2022.2.4,Win32,60.25548325,609408e1ef7e7d611c5a06ac,64d2fd46c836a06233681665,64dc77e61c7c0de1694e5753,,,,,,,decisionTrl,resources/DP.BMP,resources/DY.BMP,Door2,0.4140625,-0.075520833,1,0,0,1.8361,optionRight,20,3770,2,31,0,31,0,1,,,,,,,,,,,,,,,,,,,,,,,,,,,,,,,,,,,,,,,
,,,,,,,,2023-08-16_08h17.35.614,HF_wild_card,2022.2.4,Win32,60.25548325,609408e1ef7e7d611c5a06ac,64d2fd46c836a06233681665,64dc77e61c7c0de1694e5753,,,,,,,decisionTrl,resources/DY.BMP,resources/DBN.BMP,WildCard_Ex,0.4296875,0.01171875,1,0,0,1.1393,optionRight,5,3775,2,32,0,32,0,1,,,,,,,,,,,,,,,,,,,,,,,,,,,,,,,,,,,,,,,
,,,,,,,,2023-08-16_08h17.35.614,HF_wild_card,2022.2.4,Win32,60.25548325,609408e1ef7e7d611c5a06ac,64d2fd46c836a06233681665,64dc77e61c7c0de1694e5753,,,,,,,decisionTrl,resources/DY.BMP,resources/DP.BMP,Door2,-0.421875,-0.05859375,1,0,0,1.3244,optionLeft,20,3795,2,33,0,33,0,1,,,,,,,,,,,,,,,,,,,,,,,,,,,,,,,,,,,,,,,
,,,,,,,,2023-08-16_08h17.35.614,HF_wild_card,2022.2.4,Win32,60.25548325,609408e1ef7e7d611c5a06ac,64d2fd46c836a06233681665,64dc77e61c7c0de1694e5753,,,,,,,decisionTrl,resources/DP.BMP,resources/DBN.BMP,WildCard_Ex,0.33203125,0.005208333,1,0,0,0.9508,optionRight,95,3890,2,34,0,34,0,1,,,,,,,,,,,,,,,,,,,,,,,,,,,,,,,,,,,,,,,
,,,,,,,,2023-08-16_08h17.35.614,HF_wild_card,2022.2.4,Win32,60.25548325,609408e1ef7e7d611c5a06ac,64d2fd46c836a06233681665,64dc77e61c7c0de1694e5753,,,,,,,ctch,resources/DR.BMP,resources/DP.BMP,Door1,0.408854167,-0.049479167,1,0,0,1.0312,optionRight,30,3920,2,35,0,35,0,1,,,,,,,,,,,,,,,,,,,,,,,,,,,,,,,,,,,,,,,
,,,,,,,,2023-08-16_08h17.35.614,HF_wild_card,2022.2.4,Win32,60.25548325,609408e1ef7e7d611c5a06ac,64d2fd46c836a06233681665,64dc77e61c7c0de1694e5753,,,,,,,sngl,resources/DBN.BMP,resources/Empty.png,WildCard_Ex,-0.361979167,0.0546875,1,0,0,1.4919,optionLeft,5,3925,2,36,0,36,0,1,,,,,,,,,,,,,,,,,,,,,,,,,,,,,,,,,,,,,,,
,,,,,,,,2023-08-16_08h17.35.614,HF_wild_card,2022.2.4,Win32,60.25548325,609408e1ef7e7d611c5a06ac,64d2fd46c836a06233681665,64dc77e61c7c0de1694e5753,,,,,,,ctch,resources/DP.BMP,resources/DR.BMP,Door4,0.389322917,-0.037760417,1,0,0,1.3172,optionRight,60,3985,2,37,0,37,0,1,,,,,,,,,,,,,,,,,,,,,,,,,,,,,,,,,,,,,,,
,,,,,,,,2023-08-16_08h17.35.614,HF_wild_card,2022.2.4,Win32,60.25548325,609408e1ef7e7d611c5a06ac,64d2fd46c836a06233681665,64dc77e61c7c0de1694e5753,,,,,,,decisionTrl,resources/DR.BMP,resources/DBN.BMP,WildCard_Ex,0.388020833,0,1,0,0,1.0952,optionRight,95,4080,2,38,0,38,0,1,,,,,,,,,,,,,,,,,,,,,,,,,,,,,,,,,,,,,,,
,,,,,,,,2023-08-16_08h17.35.614,HF_wild_card,2022.2.4,Win32,60.25548325,609408e1ef7e7d611c5a06ac,64d2fd46c836a06233681665,64dc77e61c7c0de1694e5753,,,,,,,decisionTrl,resources/DB.BMP,resources/DR.BMP,Door3,-0.407552083,-0.029947917,1,0,0,12.5049,optionLeft,70,4150,2,39,0,39,0,1,,,,,,,,,,,,,,,,,,,,,,,,,,,,,,,,,,,,,,,
,,,,,,,,2023-08-16_08h17.35.614,HF_wild_card,2022.2.4,Win32,60.25548325,609408e1ef7e7d611c5a06ac,64d2fd46c836a06233681665,64dc77e61c7c0de1694e5753,,,,,,,decisionTrl,resources/DP.BMP,resources/DY.BMP,Door2,0.40234375,-0.0625,1,0,0,1.41,optionRight,20,4170,2,40,0,40,0,1,,,,,,,,,,,,,,,,,,,,,,,,,,,,,,,,,,,,,,,
,,,,,,,,2023-08-16_08h17.35.614,HF_wild_card,2022.2.4,Win32,60.25548325,609408e1ef7e7d611c5a06ac,64d2fd46c836a06233681665,64dc77e61c7c0de1694e5753,,,,,,,sngl,resources/DBN.BMP,resources/Empty.png,WildCard_Ex,-0.385416667,0.020833333,1,0,0,1.1711,optionLeft,95,4265,2,41,0,41,0,1,,,,,,,,,,,,,,,,,,,,,,,,,,,,,,,,,,,,,,,
,,,,,,,,2023-08-16_08h17.35.614,HF_wild_card,2022.2.4,Win32,60.25548325,609408e1ef7e7d611c5a06ac,64d2fd46c836a06233681665,64dc77e61c7c0de1694e5753,,,,,,,ctch,resources/DB.BMP,resources/DY.BMP,Door2,0.397135417,-0.04296875,1,0,0,1.753,optionRight,40,4305,2,42,0,42,0,1,,,,,,,,,,,,,,,,,,,,,,,,,,,,,,,,,,,,,,,
,,,,,,,,2023-08-16_08h17.35.614,HF_wild_card,2022.2.4,Win32,60.25548325,609408e1ef7e7d611c5a06ac,64d2fd46c836a06233681665,64dc77e61c7c0de1694e5753,,,,,,,ctch,resources/DY.BMP,resources/DB.BMP,Door3,0.38671875,-0.029947917,1,0,0,0.9226,optionRight,70,4375,2,43,0,43,0,1,,,,,,,,,,,,,,,,,,,,,,,,,,,,,,,,,,,,,,,
,,,,,,,,2023-08-16_08h17.35.614,HF_wild_card,2022.2.4,Win32,60.25548325,609408e1ef7e7d611c5a06ac,64d2fd46c836a06233681665,64dc77e61c7c0de1694e5753,,,,,,,,,,,,,,,,,,,,,,,,,,1,0,1,0,1,,,,,,,,,,,,,,,,,,,,,,,,,,,,,,,,,,
,,,,,,,,2023-08-16_08h17.35.614,HF_wild_card,2022.2.4,Win32,60.25548325,609408e1ef7e7d611c5a06ac,64d2fd46c836a06233681665,64dc77e61c7c0de1694e5753,,,,,,,decisionTrl,resources/DP.BMP,resources/DBN.BMP,WildCard_Ex,0.365885417,-0.013020833,1,0,0,1.1576,optionRight,95,4470,3,0,0,0,0,1,,,,,,,,,,,,,,,,,,,,,,,,,,,,,,,,,,,,,,,
,,,,,,,,2023-08-16_08h17.35.614,HF_wild_card,2022.2.4,Win32,60.25548325,609408e1ef7e7d611c5a06ac,64d2fd46c836a06233681665,64dc77e61c7c0de1694e5753,,,,,,,decisionTrl,resources/DBN.BMP,resources/DP.BMP,WildCard_Ex,-0.412760417,0.016927083,1,0,0,1.1735,optionLeft,95,4565,3,1,0,1,0,1,,,,,,,,,,,,,,,,,,,,,,,,,,,,,,,,,,,,,,,
,,,,,,,,2023-08-16_08h17.35.614,HF_wild_card,2022.2.4,Win32,60.25548325,609408e1ef7e7d611c5a06ac,64d2fd46c836a06233681665,64dc77e61c7c0de1694e5753,,,,,,,sngl,resources/DBN.BMP,resources/Empty.png,WildCard_Ex,-0.368489583,0.001302083,1,0,0,1.218,optionLeft,5,4570,3,2,0,2,0,1,,,,,,,,,,,,,,,,,,,,,,,,,,,,,,,,,,,,,,,
,,,,,,,,2023-08-16_08h17.35.614,HF_wild_card,2022.2.4,Win32,60.25548325,609408e1ef7e7d611c5a06ac,64d2fd46c836a06233681665,64dc77e61c7c0de1694e5753,,,,,,,sngl,resources/DR.BMP,resources/Empty.png,Door4,-0.399739583,-0.049479167,1,0,0,1.1831,optionLeft,80,4650,3,3,0,3,0,1,,,,,,,,,,,,,,,,,,,,,,,,,,,,,,,,,,,,,,,
,,,,,,,,2023-08-16_08h17.35.614,HF_wild_card,2022.2.4,Win32,60.25548325,609408e1ef7e7d611c5a06ac,64d2fd46c836a06233681665,64dc77e61c7c0de1694e5753,,,,,,,decisionTrl,resources/DB.BMP,resources/DR.BMP,Door4,0.393229167,-0.059895833,1,0,0,1.0642,optionRight,60,4710,3,4,0,4,0,1,,,,,,,,,,,,,,,,,,,,,,,,,,,,,,,,,,,,,,,
,,,,,,,,2023-08-16_08h17.35.614,HF_wild_card,2022.2.4,Win32,60.25548325,609408e1ef7e7d611c5a06ac,64d2fd46c836a06233681665,64dc77e61c7c0de1694e5753,,,,,,,ctch,resources/DP.BMP,resources/DR.BMP,Door4,0.40234375,-0.037760417,1,0,0,1.0256,optionRight,60,4770,3,5,0,5,0,1,,,,,,,,,,,,,,,,,,,,,,,,,,,,,,,,,,,,,,,
,,,,,,,,2023-08-16_08h17.35.614,HF_wild_card,2022.2.4,Win32,60.25548325,609408e1ef7e7d611c5a06ac,64d2fd46c836a06233681665,64dc77e61c7c0de1694e5753,,,,,,,ctch,resources/DR.BMP,resources/DP.BMP,Door4,-0.3984375,-0.04296875,1,0,0,1.0775,optionLeft,80,4850,3,6,0,6,0,1,,,,,,,,,,,,,,,,,,,,,,,,,,,,,,,,,,,,,,,
,,,,,,,,2023-08-16_08h17.35.614,HF_wild_card,2022.2.4,Win32,60.25548325,609408e1ef7e7d611c5a06ac,64d2fd46c836a06233681665,64dc77e61c7c0de1694e5753,,,,,,,ctch,resources/DY.BMP,resources/DB.BMP,Door3,0.3984375,-0.046875,1,0,0,1.0823,optionRight,70,4920,3,7,0,7,0,1,,,,,,,,,,,,,,,,,,,,,,,,,,,,,,,,,,,,,,,
,,,,,,,,2023-08-16_08h17.35.614,HF_wild_card,2022.2.4,Win32,60.25548325,609408e1ef7e7d611c5a06ac,64d2fd46c836a06233681665,64dc77e61c7c0de1694e5753,,,,,,,decisionTrl,resources/DBN.BMP,resources/DB.BMP,WildCard_Ex,-0.438802083,-0.00390625,1,0,0,1.1451,optionLeft,95,5015,3,8,0,8,0,1,,,,,,,,,,,,,,,,,,,,,,,,,,,,,,,,,,,,,,,
,,,,,,,,2023-08-16_08h17.35.614,HF_wild_card,2022.2.4,Win32,60.25548325,609408e1ef7e7d611c5a06ac,64d2fd46c836a06233681665,64dc77e61c7c0de1694e5753,,,,,,,sngl,resources/DY.BMP,resources/Empty.png,Door2,-0.380208333,-0.04296875,1,0,0,1.3258,optionLeft,40,5055,3,9,0,9,0,1,,,,,,,,,,,,,,,,,,,,,,,,,,,,,,,,,,,,,,,
,,,,,,,,2023-08-16_08h17.35.614,HF_wild_card,2022.2.4,Win32,60.25548325,609408e1ef7e7d611c5a06ac,64d2fd46c836a06233681665,64dc77e61c7c0de1694e5753,,,,,,,decisionTrl,resources/DR.BMP,resources/DB.BMP,Door3,0.419270833,-0.052083333,1,0,0,1.2633,optionRight,70,5125,3,10,0,10,0,1,,,,,,,,,,,,,,,,,,,,,,,,,,,,,,,,,,,,,,,
,,,,,,,,2023-08-16_08h17.35.614,HF_wild_card,2022.2.4,Win32,60.25548325,609408e1ef7e7d611c5a06ac,64d2fd46c836a06233681665,64dc77e61c7c0de1694e5753,,,,,,,ctch,resources/DB.BMP,resources/DY.BMP,Door2,0.403645833,-0.052083333,1,0,0,1.4084,optionRight,40,5165,3,11,0,11,0,1,,,,,,,,,,,,,,,,,,,,,,,,,,,,,,,,,,,,,,,
,,,,,,,,2023-08-16_08h17.35.614,HF_wild_card,2022.2.4,Win32,60.25548325,609408e1ef7e7d611c5a06ac,64d2fd46c836a06233681665,64dc77e61c7c0de1694e5753,,,,,,,decisionTrl,resources/DY.BMP,resources/DBN.BMP,WildCard_Ex,0.361979167,0.001302083,1,0,0,1.143,optionRight,5,5170,3,12,0,12,0,1,,,,,,,,,,,,,,,,,,,,,,,,,,,,,,,,,,,,,,,
,,,,,,,,2023-08-16_08h17.35.614,HF_wild_card,2022.2.4,Win32,60.25548325,609408e1ef7e7d611c5a06ac,64d2fd46c836a06233681665,64dc77e61c7c0de1694e5753,,,,,,,sngl,resources/DBN.BMP,resources/Empty.png,WildCard_Ex,-0.389322917,0.00390625,1,0,0,1.3728,optionLeft,95,5265,3,13,0,13,0,1,,,,,,,,,,,,,,,,,,,,,,,,,,,,,,,,,,,,,,,
,,,,,,,,2023-08-16_08h17.35.614,HF_wild_card,2022.2.4,Win32,60.25548325,609408e1ef7e7d611c5a06ac,64d2fd46c836a06233681665,64dc77e61c7c0de1694e5753,,,,,,,sngl,resources/DP.BMP,resources/Empty.png,Door1,-0.388020833,-0.046875,1,0,0,1.478,optionLeft,30,5295,3,14,0,14,0,1,,,,,,,,,,,,,,,,,,,,,,,,,,,,,,,,,,,,,,,
,,,,,,,,2023-08-16_08h17.35.614,HF_wild_card,2022.2.4,Win32,60.25548325,609408e1ef7e7d611c5a06ac,64d2fd46c836a06233681665,64dc77e61c7c0de1694e5753,,,,,,,sngl,resources/Empty.png,resources/DR.BMP,Door4,0.395833333,-0.05078125,1,0,0,1.4196,optionRight,60,5355,3,15,0,15,0,1,,,,,,,,,,,,,,,,,,,,,,,,,,,,,,,,,,,,,,,
,,,,,,,,2023-08-16_08h17.35.614,HF_wild_card,2022.2.4,Win32,60.25548325,609408e1ef7e7d611c5a06ac,64d2fd46c836a06233681665,64dc77e61c7c0de1694e5753,,,,,,,decisionTrl,resources/DY.BMP,resources/DP.BMP,Door1,0.427083333,-0.078125,1,0,0,1.1269,optionRight,30,5385,3,16,0,16,0,1,,,,,,,,,,,,,,,,,,,,,,,,,,,,,,,,,,,,,,,
,,,,,,,,2023-08-16_08h17.35.614,HF_wild_card,2022.2.4,Win32,60.25548325,609408e1ef7e7d611c5a06ac,64d2fd46c836a06233681665,64dc77e61c7c0de1694e5753,,,,,,,decisionTrl,resources/DB.BMP,resources/DR.BMP,Door3,-0.412760417,-0.037760417,1,0,0,0.9745,optionLeft,70,5455,3,17,0,17,0,1,,,,,,,,,,,,,,,,,,,,,,,,,,,,,,,,,,,,,,,
,,,,,,,,2023-08-16_08h17.35.614,HF_wild_card,2022.2.4,Win32,60.25548325,609408e1ef7e7d611c5a06ac,64d2fd46c836a06233681665,64dc77e61c7c0de1694e5753,,,,,,,sngl,resources/Empty.png,resources/DBN.BMP,WildCard_Ex,0.376302083,-0.040364583,1,0,0,1.5966,optionRight,5,5460,3,18,0,18,0,1,,,,,,,,,,,,,,,,,,,,,,,,,,,,,,,,,,,,,,,
,,,,,,,,2023-08-16_08h17.35.614,HF_wild_card,2022.2.4,Win32,60.25548325,609408e1ef7e7d611c5a06ac,64d2fd46c836a06233681665,64dc77e61c7c0de1694e5753,,,,,,,decisionTrl,resources/DB.BMP,resources/DBN.BMP,Door3,-0.37890625,-0.024739583,1,0,0,45.3176,optionLeft,70,5530,3,19,0,19,0,1,,,,,,,,,,,,,,,,,,,,,,,,,,,,,,,,,,,,,,,
,,,,,,,,2023-08-16_08h17.35.614,HF_wild_card,2022.2.4,Win32,60.25548325,609408e1ef7e7d611c5a06ac,64d2fd46c836a06233681665,64dc77e61c7c0de1694e5753,,,,,,,sngl,resources/Empty.png,resources/DP.BMP,Door1,0.384114583,-0.06640625,1,0,0,1.1826,optionRight,30,5560,3,20,0,20,0,1,,,,,,,,,,,,,,,,,,,,,,,,,,,,,,,,,,,,,,,
,,,,,,,,2023-08-16_08h17.35.614,HF_wild_card,2022.2.4,Win32,60.25548325,609408e1ef7e7d611c5a06ac,64d2fd46c836a06233681665,64dc77e61c7c0de1694e5753,,,,,,,decisionTrl,resources/DP.BMP,resources/DY.BMP,Door2,0.40234375,-0.044270833,1,0,0,1.2091,optionRight,20,5580,3,21,0,21,0,1,,,,,,,,,,,,,,,,,,,,,,,,,,,,,,,,,,,,,,,
,,,,,,,,2023-08-16_08h17.35.614,HF_wild_card,2022.2.4,Win32,60.25548325,609408e1ef7e7d611c5a06ac,64d2fd46c836a06233681665,64dc77e61c7c0de1694e5753,,,,,,,sngl,resources/Empty.png,resources/DB.BMP,Door3,0.408854167,-0.03515625,1,0,0,1.1399,optionRight,70,5650,3,22,0,22,0,1,,,,,,,,,,,,,,,,,,,,,,,,,,,,,,,,,,,,,,,
,,,,,,,,2023-08-16_08h17.35.614,HF_wild_card,2022.2.4,Win32,60.25548325,609408e1ef7e7d611c5a06ac,64d2fd46c836a06233681665,64dc77e61c7c0de1694e5753,,,,,,,ctch,resources/DP.BMP,resources/DR.BMP,Door4,0.333333333,-0.03515625,1,0,0,1.0021,optionRight,60,5710,3,23,0,23,0,1,,,,,,,,,,,,,,,,,,,,,,,,,,,,,,,,,,,,,,,
,,,,,,,,2023-08-16_08h17.35.614,HF_wild_card,2022.2.4,Win32,60.25548325,609408e1ef7e7d611c5a06ac,64d2fd46c836a06233681665,64dc77e61c7c0de1694e5753,,,,,,,decisionTrl,resources/DR.BMP,resources/DB.BMP,Door3,0.385416667,-0.045572917,1,0,0,0.8395,optionRight,70,5780,3,24,0,24,0,1,,,,,,,,,,,,,,,,,,,,,,,,,,,,,,,,,,,,,,,
,,,,,,,,2023-08-16_08h17.35.614,HF_wild_card,2022.2.4,Win32,60.25548325,609408e1ef7e7d611c5a06ac,64d2fd46c836a06233681665,64dc77e61c7c0de1694e5753,,,,,,,decisionTrl,resources/DB.BMP,resources/DR.BMP,Door3,-0.467447917,-0.036458333,1,0,0,0.933,optionLeft,70,5850,3,25,0,25,0,1,,,,,,,,,,,,,,,,,,,,,,,,,,,,,,,,,,,,,,,
,,,,,,,,2023-08-16_08h17.35.614,HF_wild_card,2022.2.4,Win32,60.25548325,609408e1ef7e7d611c5a06ac,64d2fd46c836a06233681665,64dc77e61c7c0de1694e5753,,,,,,,sngl,resources/Empty.png,resources/DY.BMP,Door2,0.358072917,-0.032552083,1,0,0,1.002,optionRight,20,5870,3,26,0,26,0,1,,,,,,,,,,,,,,,,,,,,,,,,,,,,,,,,,,,,,,,
,,,,,,,,2023-08-16_08h17.35.614,HF_wild_card,2022.2.4,Win32,60.25548325,609408e1ef7e7d611c5a06ac,64d2fd46c836a06233681665,64dc77e61c7c0de1694e5753,,,,,,,decisionTrl,resources/DP.BMP,resources/DY.BMP,Door2,0.359375,-0.03515625,1,0,0,0.9886,optionRight,20,5890,3,27,0,27,0,1,,,,,,,,,,,,,,,,,,,,,,,,,,,,,,,,,,,,,,,
,,,,,,,,2023-08-16_08h17.35.614,HF_wild_card,2022.2.4,Win32,60.25548325,609408e1ef7e7d611c5a06ac,64d2fd46c836a06233681665,64dc77e61c7c0de1694e5753,,,,,,,decisionTrl,resources/DB.BMP,resources/DR.BMP,Door3,-0.40234375,-0.048177083,1,0,0,0.9104,optionLeft,70,5960,3,28,0,28,0,1,,,,,,,,,,,,,,,,,,,,,,,,,,,,,,,,,,,,,,,
,,,,,,,,2023-08-16_08h17.35.614,HF_wild_card,2022.2.4,Win32,60.25548325,609408e1ef7e7d611c5a06ac,64d2fd46c836a06233681665,64dc77e61c7c0de1694e5753,,,,,,,decisionTrl,resources/DP.BMP,resources/DY.BMP,Door2,0.39453125,-0.057291667,1,0,0,1.0002,optionRight,20,5980,3,29,0,29,0,1,,,,,,,,,,,,,,,,,,,,,,,,,,,,,,,,,,,,,,,
,,,,,,,,2023-08-16_08h17.35.614,HF_wild_card,2022.2.4,Win32,60.25548325,609408e1ef7e7d611c5a06ac,64d2fd46c836a06233681665,64dc77e61c7c0de1694e5753,,,,,,,decisionTrl,resources/DBN.BMP,resources/DR.BMP,WildCard_Ex,-0.393229167,0.032552083,1,0,0,1.077,optionLeft,95,6075,3,30,0,30,0,1,,,,,,,,,,,,,,,,,,,,,,,,,,,,,,,,,,,,,,,
,,,,,,,,2023-08-16_08h17.35.614,HF_wild_card,2022.2.4,Win32,60.25548325,609408e1ef7e7d611c5a06ac,64d2fd46c836a06233681665,64dc77e61c7c0de1694e5753,,,,,,,decisionTrl,resources/DBN.BMP,resources/DY.BMP,Door2,0.401041667,-0.046875,1,0,0,1.1506,optionRight,40,6115,3,31,0,31,0,1,,,,,,,,,,,,,,,,,,,,,,,,,,,,,,,,,,,,,,,
,,,,,,,,2023-08-16_08h17.35.614,HF_wild_card,2022.2.4,Win32,60.25548325,609408e1ef7e7d611c5a06ac,64d2fd46c836a06233681665,64dc77e61c7c0de1694e5753,,,,,,,decisionTrl,resources/DR.BMP,resources/DBN.BMP,WildCard_Ex,0.358072917,0.018229167,1,0,0,1.6986,optionRight,5,6120,3,32,0,32,0,1,,,,,,,,,,,,,,,,,,,,,,,,,,,,,,,,,,,,,,,
,,,,,,,,2023-08-16_08h17.35.614,HF_wild_card,2022.2.4,Win32,60.25548325,609408e1ef7e7d611c5a06ac,64d2fd46c836a06233681665,64dc77e61c7c0de1694e5753,,,,,,,decisionTrl,resources/DR.BMP,resources/DB.BMP,Door3,0.436197917,-0.032552083,1,0,0,1.3466,optionRight,70,6190,3,33,0,33,0,1,,,,,,,,,,,,,,,,,,,,,,,,,,,,,,,,,,,,,,,
,,,,,,,,2023-08-16_08h17.35.614,HF_wild_card,2022.2.4,Win32,60.25548325,609408e1ef7e7d611c5a06ac,64d2fd46c836a06233681665,64dc77e61c7c0de1694e5753,,,,,,,decisionTrl,resources/DR.BMP,resources/DB.BMP,Door3,0.38671875,-0.0390625,1,0,0,1.1549,optionRight,70,6260,3,34,0,34,0,1,,,,,,,,,,,,,,,,,,,,,,,,,,,,,,,,,,,,,,,
,,,,,,,,2023-08-16_08h17.35.614,HF_wild_card,2022.2.4,Win32,60.25548325,609408e1ef7e7d611c5a06ac,64d2fd46c836a06233681665,64dc77e61c7c0de1694e5753,,,,,,,ctch,resources/DR.BMP,resources/DP.BMP,Door1,0.380208333,-0.052083333,1,0,0,2.6885,optionRight,30,6290,3,35,0,35,0,1,,,,,,,,,,,,,,,,,,,,,,,,,,,,,,,,,,,,,,,
,,,,,,,,2023-08-16_08h17.35.614,HF_wild_card,2022.2.4,Win32,60.25548325,609408e1ef7e7d611c5a06ac,64d2fd46c836a06233681665,64dc77e61c7c0de1694e5753,,,,,,,sngl,resources/Empty.png,resources/DBN.BMP,WildCard_Ex,0.41015625,-0.02734375,1,0,0,3.1465,optionRight,95,6385,3,36,0,36,0,1,,,,,,,,,,,,,,,,,,,,,,,,,,,,,,,,,,,,,,,
,,,,,,,,2023-08-16_08h17.35.614,HF_wild_card,2022.2.4,Win32,60.25548325,609408e1ef7e7d611c5a06ac,64d2fd46c836a06233681665,64dc77e61c7c0de1694e5753,,,,,,,decisionTrl,resources/DY.BMP,resources/DP.BMP,Door2,-0.388020833,-0.014322917,1,0,0,3.0508,optionLeft,40,6425,3,37,0,37,0,1,,,,,,,,,,,,,,,,,,,,,,,,,,,,,,,,,,,,,,,
,,,,,,,,2023-08-16_08h17.35.614,HF_wild_card,2022.2.4,Win32,60.25548325,609408e1ef7e7d611c5a06ac,64d2fd46c836a06233681665,64dc77e61c7c0de1694e5753,,,,,,,ctch,resources/DB.BMP,resources/DY.BMP,Door2,0.391927083,-0.052083333,1,0,0,1.3314,optionRight,40,6465,3,38,0,38,0,1,,,,,,,,,,,,,,,,,,,,,,,,,,,,,,,,,,,,,,,
,,,,,,,,2023-08-16_08h17.35.614,HF_wild_card,2022.2.4,Win32,60.25548325,609408e1ef7e7d611c5a06ac,64d2fd46c836a06233681665,64dc77e61c7c0de1694e5753,,,,,,,sngl,resources/DB.BMP,resources/Empty.png,Door3,-0.420572917,-0.0234375,1,0,0,1.2434,optionLeft,70,6535,3,39,0,39,0,1,,,,,,,,,,,,,,,,,,,,,,,,,,,,,,,,,,,,,,,
,,,,,,,,2023-08-16_08h17.35.614,HF_wild_card,2022.2.4,Win32,60.25548325,609408e1ef7e7d611c5a06ac,64d2fd46c836a06233681665,64dc77e61c7c0de1694e5753,,,,,,,decisionTrl,resources/DP.BMP,resources/DY.BMP,Door2,0.40625,-0.0390625,1,0,0,1.2084,optionRight,20,6555,3,40,0,40,0,1,,,,,,,,,,,,,,,,,,,,,,,,,,,,,,,,,,,,,,,
,,,,,,,,2023-08-16_08h17.35.614,HF_wild_card,2022.2.4,Win32,60.25548325,609408e1ef7e7d611c5a06ac,64d2fd46c836a06233681665,64dc77e61c7c0de1694e5753,,,,,,,decisionTrl,resources/DY.BMP,resources/DP.BMP,Door1,0.369791667,-0.057291667,1,0,0,1.0845,optionRight,30,6585,3,41,0,41,0,1,,,,,,,,,,,,,,,,,,,,,,,,,,,,,,,,,,,,,,,
,,,,,,,,2023-08-16_08h17.35.614,HF_wild_card,2022.2.4,Win32,60.25548325,609408e1ef7e7d611c5a06ac,64d2fd46c836a06233681665,64dc77e61c7c0de1694e5753,,,,,,,decisionTrl,resources/DY.BMP,resources/DP.BMP,Door2,-0.4765625,-0.041666667,1,0,0,2.0309,optionLeft,40,6625,3,42,0,42,0,1,,,,,,,,,,,,,,,,,,,,,,,,,,,,,,,,,,,,,,,
,,,,,,,,2023-08-16_08h17.35.614,HF_wild_card,2022.2.4,Win32,60.25548325,609408e1ef7e7d611c5a06ac,64d2fd46c836a06233681665,64dc77e61c7c0de1694e5753,,,,,,,ctch,resources/DY.BMP,resources/DB.BMP,Door3,0.354166667,-0.014322917,1,0,0,0.8305,optionRight,70,6695,3,43,0,43,0,1,,,,,,,,,,,,,,,,,,,,,,,,,,,,,,,,,,,,,,,
,,,,,,,,2023-08-16_08h17.35.614,HF_wild_card,2022.2.4,Win32,60.25548325,609408e1ef7e7d611c5a06ac,64d2fd46c836a06233681665,64dc77e61c7c0de1694e5753,,,,,,,,,,,,,,,,,,,,,,,,,,2,0,2,0,1,,,,,,,,,,,,,,,,,,,,,,,,,,,,,,,,,,
,,,,,,,,2023-08-16_08h17.35.614,HF_wild_card,2022.2.4,Win32,60.25548325,609408e1ef7e7d611c5a06ac,64d2fd46c836a06233681665,64dc77e61c7c0de1694e5753,,,,,,,decisionTrl,resources/DP.BMP,resources/DY.BMP,Door2,0.41015625,-0.0390625,1,0,0,1.2519,optionRight,40,6735,4,0,0,0,0,1,,,,,,,,,,,,,,,,,,,,,,,,,,,,,,,,,,,,,,,
,,,,,,,,2023-08-16_08h17.35.614,HF_wild_card,2022.2.4,Win32,60.25548325,609408e1ef7e7d611c5a06ac,64d2fd46c836a06233681665,64dc77e61c7c0de1694e5753,,,,,,,decisionTrl,resources/DG.BMP,resources/DR.BMP,WildCard_NonEx,-0.356770833,-0.036458333,1,0,0,0.8833,optionLeft,55,6790,4,1,0,1,0,1,,,,,,,,,,,,,,,,,,,,,,,,,,,,,,,,,,,,,,,
,,,,,,,,2023-08-16_08h17.35.614,HF_wild_card,2022.2.4,Win32,60.25548325,609408e1ef7e7d611c5a06ac,64d2fd46c836a06233681665,64dc77e61c7c0de1694e5753,,,,,,,ctch,resources/DP.BMP,resources/DR.BMP,Door4,0.364583333,-0.032552083,1,0,0,0.8971,optionRight,80,6870,4,2,0,2,0,1,,,,,,,,,,,,,,,,,,,,,,,,,,,,,,,,,,,,,,,
,,,,,,,,2023-08-16_08h17.35.614,HF_wild_card,2022.2.4,Win32,60.25548325,609408e1ef7e7d611c5a06ac,64d2fd46c836a06233681665,64dc77e61c7c0de1694e5753,,,,,,,decisionTrl,resources/DR.BMP,resources/DB.BMP,Door3,0.390625,-0.044270833,1,0,0,0.8247,optionRight,70,6940,4,3,0,3,0,1,,,,,,,,,,,,,,,,,,,,,,,,,,,,,,,,,,,,,,,
,,,,,,,,2023-08-16_08h17.35.614,HF_wild_card,2022.2.4,Win32,60.25548325,609408e1ef7e7d611c5a06ac,64d2fd46c836a06233681665,64dc77e61c7c0de1694e5753,,,,,,,sngl,resources/Empty.png,resources/DG.BMP,WildCard_NonEx,0.427083333,-0.036458333,1,0,0,0.949,optionRight,45,6985,4,4,0,4,0,1,,,,,,,,,,,,,,,,,,,,,,,,,,,,,,,,,,,,,,,
,,,,,,,,2023-08-16_08h17.35.614,HF_wild_card,2022.2.4,Win32,60.25548325,609408e1ef7e7d611c5a06ac,64d2fd46c836a06233681665,64dc77e61c7c0de1694e5753,,,,,,,ctch,resources/DR.BMP,resources/DP.BMP,Door1,0.361979167,-0.0625,1,0,0,1.0468,optionRight,30,7015,4,5,0,5,0,1,,,,,,,,,,,,,,,,,,,,,,,,,,,,,,,,,,,,,,,
,,,,,,,,2023-08-16_08h17.35.614,HF_wild_card,2022.2.4,Win32,60.25548325,609408e1ef7e7d611c5a06ac,64d2fd46c836a06233681665,64dc77e61c7c0de1694e5753,,,,,,,ctch,resources/DR.BMP,resources/DP.BMP,Door1,0.333333333,-0.0390625,1,0,0,0.9308,optionRight,30,7045,4,6,0,6,0,1,,,,,,,,,,,,,,,,,,,,,,,,,,,,,,,,,,,,,,,
,,,,,,,,2023-08-16_08h17.35.614,HF_wild_card,2022.2.4,Win32,60.25548325,609408e1ef7e7d611c5a06ac,64d2fd46c836a06233681665,64dc77e61c7c0de1694e5753,,,,,,,sngl,resources/DR.BMP,resources/Empty.png,Door4,-0.416666667,-0.046875,1,0,0,0.7828,optionLeft,60,7105,4,7,0,7,0,1,,,,,,,,,,,,,,,,,,,,,,,,,,,,,,,,,,,,,,,
,,,,,,,,2023-08-16_08h17.35.614,HF_wild_card,2022.2.4,Win32,60.25548325,609408e1ef7e7d611c5a06ac,64d2fd46c836a06233681665,64dc77e61c7c0de1694e5753,,,,,,,decisionTrl,resources/DB.BMP,resources/DG.BMP,WildCard_NonEx,0.373697917,-0.033854167,1,0,0,1.2889,optionRight,55,7160,4,8,0,8,0,1,,,,,,,,,,,,,,,,,,,,,,,,,,,,,,,,,,,,,,,
,,,,,,,,2023-08-16_08h17.35.614,HF_wild_card,2022.2.4,Win32,60.25548325,609408e1ef7e7d611c5a06ac,64d2fd46c836a06233681665,64dc77e61c7c0de1694e5753,,,,,,,ctch,resources/DP.BMP,resources/DR.BMP,Door4,0.354166667,-0.04296875,1,0,0,1.0567,optionRight,80,7240,4,9,0,9,0,1,,,,,,,,,,,,,,,,,,,,,,,,,,,,,,,,,,,,,,,
,,,,,,,,2023-08-16_08h17.35.614,HF_wild_card,2022.2.4,Win32,60.25548325,609408e1ef7e7d611c5a06ac,64d2fd46c836a06233681665,64dc77e61c7c0de1694e5753,,,,,,,decisionTrl,resources/DB.BMP,resources/DR.BMP,Door4,0.390625,-0.026041667,1,0,0,1.0194,optionRight,60,7300,4,10,0,10,0,1,,,,,,,,,,,,,,,,,,,,,,,,,,,,,,,,,,,,,,,
,,,,,,,,2023-08-16_08h17.35.614,HF_wild_card,2022.2.4,Win32,60.25548325,609408e1ef7e7d611c5a06ac,64d2fd46c836a06233681665,64dc77e61c7c0de1694e5753,,,,,,,sngl,resources/Empty.png,resources/DG.BMP,WildCard_NonEx,0.430989583,-0.040364583,1,0,0,1.2781,optionRight,55,7355,4,11,0,11,0,1,,,,,,,,,,,,,,,,,,,,,,,,,,,,,,,,,,,,,,,
,,,,,,,,2023-08-16_08h17.35.614,HF_wild_card,2022.2.4,Win32,60.25548325,609408e1ef7e7d611c5a06ac,64d2fd46c836a06233681665,64dc77e61c7c0de1694e5753,,,,,,,decisionTrl,resources/DG.BMP,resources/DB.BMP,WildCard_NonEx,-0.37890625,-0.009114583,1,0,0,1.3111,optionLeft,55,7410,4,12,0,12,0,1,,,,,,,,,,,,,,,,,,,,,,,,,,,,,,,,,,,,,,,
,,,,,,,,2023-08-16_08h17.35.614,HF_wild_card,2022.2.4,Win32,60.25548325,609408e1ef7e7d611c5a06ac,64d2fd46c836a06233681665,64dc77e61c7c0de1694e5753,,,,,,,decisionTrl,resources/DR.BMP,resources/DG.BMP,WildCard_NonEx,0.368489583,-0.03515625,1,0,0,0.9024,optionRight,45,7455,4,13,0,13,0,1,,,,,,,,,,,,,,,,,,,,,,,,,,,,,,,,,,,,,,,
,,,,,,,,2023-08-16_08h17.35.614,HF_wild_card,2022.2.4,Win32,60.25548325,609408e1ef7e7d611c5a06ac,64d2fd46c836a06233681665,64dc77e61c7c0de1694e5753,,,,,,,decisionTrl,resources/DP.BMP,resources/DG.BMP,Door1,-0.416666667,-0.083333333,1,0,0,1.1082,optionLeft,30,7485,4,14,0,14,0,1,,,,,,,,,,,,,,,,,,,,,,,,,,,,,,,,,,,,,,,
,,,,,,,,2023-08-16_08h17.35.614,HF_wild_card,2022.2.4,Win32,60.25548325,609408e1ef7e7d611c5a06ac,64d2fd46c836a06233681665,64dc77e61c7c0de1694e5753,,,,,,,ctch,resources/DB.BMP,resources/DY.BMP,Door2,0.39453125,-0.0546875,1,0,0,1.1997,optionRight,20,7505,4,15,0,15,0,1,,,,,,,,,,,,,,,,,,,,,,,,,,,,,,,,,,,,,,,
,,,,,,,,2023-08-16_08h17.35.614,HF_wild_card,2022.2.4,Win32,60.25548325,609408e1ef7e7d611c5a06ac,64d2fd46c836a06233681665,64dc77e61c7c0de1694e5753,,,,,,,decisionTrl,resources/DY.BMP,resources/DP.BMP,Door1,0.359375,-0.04296875,1,0,0,0.9433,optionRight,30,7535,4,16,0,16,0,1,,,,,,,,,,,,,,,,,,,,,,,,,,,,,,,,,,,,,,,
,,,,,,,,2023-08-16_08h17.35.614,HF_wild_card,2022.2.4,Win32,60.25548325,609408e1ef7e7d611c5a06ac,64d2fd46c836a06233681665,64dc77e61c7c0de1694e5753,,,,,,,sngl,resources/DB.BMP,resources/Empty.png,Door3,-0.411458333,-0.046875,1,0,0,1.6624,optionLeft,70,7605,4,17,0,17,0,1,,,,,,,,,,,,,,,,,,,,,,,,,,,,,,,,,,,,,,,
,,,,,,,,2023-08-16_08h17.35.614,HF_wild_card,2022.2.4,Win32,60.25548325,609408e1ef7e7d611c5a06ac,64d2fd46c836a06233681665,64dc77e61c7c0de1694e5753,,,,,,,sngl,resources/Empty.png,resources/DY.BMP,Door2,0.375,-0.0390625,1,0,0,0.846,optionRight,40,7645,4,18,0,18,0,1,,,,,,,,,,,,,,,,,,,,,,,,,,,,,,,,,,,,,,,
,,,,,,,,2023-08-16_08h17.35.614,HF_wild_card,2022.2.4,Win32,60.25548325,609408e1ef7e7d611c5a06ac,64d2fd46c836a06233681665,64dc77e61c7c0de1694e5753,,,,,,,decisionTrl,resources/DB.BMP,resources/DR.BMP,Door4,0.403645833,-0.0390625,1,0,0,0.8522,optionRight,80,7725,4,19,0,19,0,1,,,,,,,,,,,,,,,,,,,,,,,,,,,,,,,,,,,,,,,
,,,,,,,,2023-08-16_08h17.35.614,HF_wild_card,2022.2.4,Win32,60.25548325,609408e1ef7e7d611c5a06ac,64d2fd46c836a06233681665,64dc77e61c7c0de1694e5753,,,,,,,decisionTrl,resources/DR.BMP,resources/DB.BMP,Door3,0.380208333,-0.045572917,1,0,0,0.8952,optionRight,70,7795,4,20,0,20,0,1,,,,,,,,,,,,,,,,,,,,,,,,,,,,,,,,,,,,,,,
,,,,,,,,2023-08-16_08h17.35.614,HF_wild_card,2022.2.4,Win32,60.25548325,609408e1ef7e7d611c5a06ac,64d2fd46c836a06233681665,64dc77e61c7c0de1694e5753,,,,,,,decisionTrl,resources/DY.BMP,resources/DP.BMP,Door2,-0.389322917,-0.052083333,1,0,0,1.052,optionLeft,20,7815,4,21,0,21,0,1,,,,,,,,,,,,,,,,,,,,,,,,,,,,,,,,,,,,,,,
,,,,,,,,2023-08-16_08h17.35.614,HF_wild_card,2022.2.4,Win32,60.25548325,609408e1ef7e7d611c5a06ac,64d2fd46c836a06233681665,64dc77e61c7c0de1694e5753,,,,,,,sngl,resources/Empty.png,resources/DB.BMP,Door3,0.419270833,-0.069010417,1,0,0,1.0334,optionRight,70,7885,4,22,0,22,0,1,,,,,,,,,,,,,,,,,,,,,,,,,,,,,,,,,,,,,,,
,,,,,,,,2023-08-16_08h17.35.614,HF_wild_card,2022.2.4,Win32,60.25548325,609408e1ef7e7d611c5a06ac,64d2fd46c836a06233681665,64dc77e61c7c0de1694e5753,,,,,,,ctch,resources/DY.BMP,resources/DB.BMP,Door3,0.375,-0.041666667,1,0,0,1.4789,optionRight,70,7955,4,23,0,23,0,1,,,,,,,,,,,,,,,,,,,,,,,,,,,,,,,,,,,,,,,
,,,,,,,,2023-08-16_08h17.35.614,HF_wild_card,2022.2.4,Win32,60.25548325,609408e1ef7e7d611c5a06ac,64d2fd46c836a06233681665,64dc77e61c7c0de1694e5753,,,,,,,decisionTrl,resources/DY.BMP,resources/DG.BMP,Door2,-0.368489583,-0.0390625,1,0,0,1.1088,optionLeft,40,7995,4,24,0,24,0,1,,,,,,,,,,,,,,,,,,,,,,,,,,,,,,,,,,,,,,,
,,,,,,,,2023-08-16_08h17.35.614,HF_wild_card,2022.2.4,Win32,60.25548325,609408e1ef7e7d611c5a06ac,64d2fd46c836a06233681665,64dc77e61c7c0de1694e5753,,,,,,,sngl,resources/DY.BMP,resources/Empty.png,Door2,-0.3828125,-0.037760417,1,0,0,0.7982,optionLeft,20,8015,4,25,0,25,0,1,,,,,,,,,,,,,,,,,,,,,,,,,,,,,,,,,,,,,,,
,,,,,,,,2023-08-16_08h17.35.614,HF_wild_card,2022.2.4,Win32,60.25548325,609408e1ef7e7d611c5a06ac,64d2fd46c836a06233681665,64dc77e61c7c0de1694e5753,,,,,,,decisionTrl,resources/DB.BMP,resources/DR.BMP,Door4,0.365885417,-0.046875,1,0,0,1.3517,optionRight,80,8095,4,26,0,26,0,1,,,,,,,,,,,,,,,,,,,,,,,,,,,,,,,,,,,,,,,
,,,,,,,,2023-08-16_08h17.35.614,HF_wild_card,2022.2.4,Win32,60.25548325,609408e1ef7e7d611c5a06ac,64d2fd46c836a06233681665,64dc77e61c7c0de1694e5753,,,,,,,sngl,resources/DG.BMP,resources/Empty.png,WildCard_NonEx,-0.365885417,-0.006510417,1,0,0,0.98,optionLeft,55,8150,4,27,0,27,0,1,,,,,,,,,,,,,,,,,,,,,,,,,,,,,,,,,,,,,,,
,,,,,,,,2023-08-16_08h17.35.614,HF_wild_card,2022.2.4,Win32,60.25548325,609408e1ef7e7d611c5a06ac,64d2fd46c836a06233681665,64dc77e61c7c0de1694e5753,,,,,,,decisionTrl,resources/DB.BMP,resources/DR.BMP,Door4,0.368489583,-0.048177083,1,0,0,1.3604,optionRight,60,8210,4,28,0,28,0,1,,,,,,,,,,,,,,,,,,,,,,,,,,,,,,,,,,,,,,,
,,,,,,,,2023-08-16_08h17.35.614,HF_wild_card,2022.2.4,Win32,60.25548325,609408e1ef7e7d611c5a06ac,64d2fd46c836a06233681665,64dc77e61c7c0de1694e5753,,,,,,,ctch,resources/DY.BMP,resources/DB.BMP,Door2,-0.328125,-0.037760417,1,0,0,1.2912,optionLeft,20,8230,4,29,0,29,0,1,,,,,,,,,,,,,,,,,,,,,,,,,,,,,,,,,,,,,,,
,,,,,,,,2023-08-16_08h17.35.614,HF_wild_card,2022.2.4,Win32,60.25548325,609408e1ef7e7d611c5a06ac,64d2fd46c836a06233681665,64dc77e61c7c0de1694e5753,,,,,,,decisionTrl,resources/DY.BMP,resources/DP.BMP,Door2,-0.391927083,-0.036458333,1,0,0,1.2484,optionLeft,40,8270,4,30,0,30,0,1,,,,,,,,,,,,,,,,,,,,,,,,,,,,,,,,,,,,,,,
,,,,,,,,2023-08-16_08h17.35.614,HF_wild_card,2022.2.4,Win32,60.25548325,609408e1ef7e7d611c5a06ac,64d2fd46c836a06233681665,64dc77e61c7c0de1694e5753,,,,,,,decisionTrl,resources/DG.BMP,resources/DY.BMP,Door2,0.393229167,-0.0625,1,0,0,0.9795,optionRight,40,8310,4,31,0,31,0,1,,,,,,,,,,,,,,,,,,,,,,,,,,,,,,,,,,,,,,,
,,,,,,,,2023-08-16_08h17.35.614,HF_wild_card,2022.2.4,Win32,60.25548325,609408e1ef7e7d611c5a06ac,64d2fd46c836a06233681665,64dc77e61c7c0de1694e5753,,,,,,,sngl,resources/Empty.png,resources/DR.BMP,Door4,0.388020833,-0.045572917,1,0,0,0.7719,optionRight,80,8390,4,32,0,32,0,1,,,,,,,,,,,,,,,,,,,,,,,,,,,,,,,,,,,,,,,
,,,,,,,,2023-08-16_08h17.35.614,HF_wild_card,2022.2.4,Win32,60.25548325,609408e1ef7e7d611c5a06ac,64d2fd46c836a06233681665,64dc77e61c7c0de1694e5753,,,,,,,ctch,resources/DB.BMP,resources/DY.BMP,Door3,-0.397135417,-0.002604167,1,0,0,1.11,optionLeft,70,8460,4,33,0,33,0,1,,,,,,,,,,,,,,,,,,,,,,,,,,,,,,,,,,,,,,,
,,,,,,,,2023-08-16_08h17.35.614,HF_wild_card,2022.2.4,Win32,60.25548325,609408e1ef7e7d611c5a06ac,64d2fd46c836a06233681665,64dc77e61c7c0de1694e5753,,,,,,,decisionTrl,resources/DP.BMP,resources/DY.BMP,Door2,0.505208333,-0.044270833,1,0,0,1.0601,optionRight,20,8480,4,34,0,34,0,1,,,,,,,,,,,,,,,,,,,,,,,,,,,,,,,,,,,,,,,
,,,,,,,,2023-08-16_08h17.35.614,HF_wild_card,2022.2.4,Win32,60.25548325,609408e1ef7e7d611c5a06ac,64d2fd46c836a06233681665,64dc77e61c7c0de1694e5753,,,,,,,sngl,resources/DG.BMP,resources/Empty.png,WildCard_NonEx,-0.350260417,0.005208333,1,0,0,0.7968,optionLeft,45,8525,4,35,0,35,0,1,,,,,,,,,,,,,,,,,,,,,,,,,,,,,,,,,,,,,,,
,,,,,,,,2023-08-16_08h17.35.614,HF_wild_card,2022.2.4,Win32,60.25548325,609408e1ef7e7d611c5a06ac,64d2fd46c836a06233681665,64dc77e61c7c0de1694e5753,,,,,,,sngl,resources/DP.BMP,resources/Empty.png,Door1,-0.415364583,-0.016927083,1,0,0,0.8544,optionLeft,30,8555,4,36,0,36,0,1,,,,,,,,,,,,,,,,,,,,,,,,,,,,,,,,,,,,,,,
,,,,,,,,2023-08-16_08h17.35.614,HF_wild_card,2022.2.4,Win32,60.25548325,609408e1ef7e7d611c5a06ac,64d2fd46c836a06233681665,64dc77e61c7c0de1694e5753,,,,,,,sngl,resources/Empty.png,resources/DP.BMP,Door1,0.373697917,-0.053385417,1,0,0,0.9943,optionRight,30,8585,4,37,0,37,0,1,,,,,,,,,,,,,,,,,,,,,,,,,,,,,,,,,,,,,,,
,,,,,,,,2023-08-16_08h17.35.614,HF_wild_card,2022.2.4,Win32,60.25548325,609408e1ef7e7d611c5a06ac,64d2fd46c836a06233681665,64dc77e61c7c0de1694e5753,,,,,,,decisionTrl,resources/DY.BMP,resources/DP.BMP,Door2,-0.466145833,-0.057291667,1,0,0,0.978,optionLeft,40,8625,4,38,0,38,0,1,,,,,,,,,,,,,,,,,,,,,,,,,,,,,,,,,,,,,,,
,,,,,,,,2023-08-16_08h17.35.614,HF_wild_card,2022.2.4,Win32,60.25548325,609408e1ef7e7d611c5a06ac,64d2fd46c836a06233681665,64dc77e61c7c0de1694e5753,,,,,,,decisionTrl,resources/DR.BMP,resources/DB.BMP,Door4,-0.438802083,-0.059895833,1,0,0,1.0022,optionLeft,60,8685,4,39,0,39,0,1,,,,,,,,,,,,,,,,,,,,,,,,,,,,,,,,,,,,,,,
,,,,,,,,2023-08-16_08h17.35.614,HF_wild_card,2022.2.4,Win32,60.25548325,609408e1ef7e7d611c5a06ac,64d2fd46c836a06233681665,64dc77e61c7c0de1694e5753,,,,,,,decisionTrl,resources/DP.BMP,resources/DY.BMP,Door2,0.408854167,-0.02734375,1,0,0,0.8562,optionRight,20,8705,4,40,0,40,0,1,,,,,,,,,,,,,,,,,,,,,,,,,,,,,,,,,,,,,,,
,,,,,,,,2023-08-16_08h17.35.614,HF_wild_card,2022.2.4,Win32,60.25548325,609408e1ef7e7d611c5a06ac,64d2fd46c836a06233681665,64dc77e61c7c0de1694e5753,,,,,,,decisionTrl,resources/DG.BMP,resources/DP.BMP,Door1,0.43359375,-0.061197917,1,0,0,0.8151,optionRight,30,8735,4,41,0,41,0,1,,,,,,,,,,,,,,,,,,,,,,,,,,,,,,,,,,,,,,,
,,,,,,,,2023-08-16_08h17.35.614,HF_wild_card,2022.2.4,Win32,60.25548325,609408e1ef7e7d611c5a06ac,64d2fd46c836a06233681665,64dc77e61c7c0de1694e5753,,,,,,,decisionTrl,resources/DR.BMP,resources/DB.BMP,Door4,-0.3984375,-0.049479167,1,0,0,1.082,optionLeft,60,8795,4,42,0,42,0,1,,,,,,,,,,,,,,,,,,,,,,,,,,,,,,,,,,,,,,,
,,,,,,,,2023-08-16_08h17.35.614,HF_wild_card,2022.2.4,Win32,60.25548325,609408e1ef7e7d611c5a06ac,64d2fd46c836a06233681665,64dc77e61c7c0de1694e5753,,,,,,,decisionTrl,resources/DP.BMP,resources/DY.BMP,Door1,-0.4375,-0.053385417,1,0,0,0.817,optionLeft,30,8825,4,43,0,43,0,1,,,,,,,,,,,,,,,,,,,,,,,,,,,,,,,,,,,,,,,
,,,,,,,,2023-08-16_08h17.35.614,HF_wild_card,2022.2.4,Win32,60.25548325,609408e1ef7e7d611c5a06ac,64d2fd46c836a06233681665,64dc77e61c7c0de1694e5753,,,,,,,,,,,,,,,,,,,,,,,,,,3,0,3,0,1,,,,,,,,,,,,,,,,,,,,,,,,,,,,,,,,,,
,,,,,,,,2023-08-16_08h17.35.614,HF_wild_card,2022.2.4,Win32,60.25548325,609408e1ef7e7d611c5a06ac,64d2fd46c836a06233681665,64dc77e61c7c0de1694e5753,,,,,,,ctch,resources/DP.BMP,resources/DR.BMP,Door4,0.446614583,-0.055989583,1,0,0,1.1769,optionRight,60,8885,5,0,0,0,0,1,,,,,,,,,,,,,,,,,,,,,,,,,,,,,,,,,,,,,,,
,,,,,,,,2023-08-16_08h17.35.614,HF_wild_card,2022.2.4,Win32,60.25548325,609408e1ef7e7d611c5a06ac,64d2fd46c836a06233681665,64dc77e61c7c0de1694e5753,,,,,,,decisionTrl,resources/DB.BMP,resources/DR.BMP,Door4,0.446614583,-0.063802083,1,0,0,1.0266,optionRight,80,8965,5,1,0,1,0,1,,,,,,,,,,,,,,,,,,,,,,,,,,,,,,,,,,,,,,,
,,,,,,,,2023-08-16_08h17.35.614,HF_wild_card,2022.2.4,Win32,60.25548325,609408e1ef7e7d611c5a06ac,64d2fd46c836a06233681665,64dc77e61c7c0de1694e5753,,,,,,,decisionTrl,resources/DP.BMP,resources/DG.BMP,Door1,-0.35546875,-0.0390625,1,0,0,1.2752,optionLeft,30,8995,5,2,0,2,0,1,,,,,,,,,,,,,,,,,,,,,,,,,,,,,,,,,,,,,,,
,,,,,,,,2023-08-16_08h17.35.614,HF_wild_card,2022.2.4,Win32,60.25548325,609408e1ef7e7d611c5a06ac,64d2fd46c836a06233681665,64dc77e61c7c0de1694e5753,,,,,,,sngl,resources/Empty.png,resources/DP.BMP,Door1,0.38671875,-0.015625,1,0,0,0.7718,optionRight,30,9025,5,3,0,3,0,1,,,,,,,,,,,,,,,,,,,,,,,,,,,,,,,,,,,,,,,
,,,,,,,,2023-08-16_08h17.35.614,HF_wild_card,2022.2.4,Win32,60.25548325,609408e1ef7e7d611c5a06ac,64d2fd46c836a06233681665,64dc77e61c7c0de1694e5753,,,,,,,decisionTrl,resources/DY.BMP,resources/DP.BMP,Door2,-0.368489583,-0.03515625,1,0,0,0.8926,optionLeft,20,9045,5,4,0,4,0,1,,,,,,,,,,,,,,,,,,,,,,,,,,,,,,,,,,,,,,,
,,,,,,,,2023-08-16_08h17.35.614,HF_wild_card,2022.2.4,Win32,60.25548325,609408e1ef7e7d611c5a06ac,64d2fd46c836a06233681665,64dc77e61c7c0de1694e5753,,,,,,,decisionTrl,resources/DY.BMP,resources/DG.BMP,Door2,-0.337239583,-0.0390625,1,0,0,0.6676,optionLeft,40,9085,5,5,0,5,0,1,,,,,,,,,,,,,,,,,,,,,,,,,,,,,,,,,,,,,,,
,,,,,,,,2023-08-16_08h17.35.614,HF_wild_card,2022.2.4,Win32,60.25548325,609408e1ef7e7d611c5a06ac,64d2fd46c836a06233681665,64dc77e61c7c0de1694e5753,,,,,,,decisionTrl,resources/DY.BMP,resources/DP.BMP,Door2,-0.333333333,-0.05859375,1,0,0,0.6487,optionLeft,40,9125,5,6,0,6,0,1,,,,,,,,,,,,,,,,,,,,,,,,,,,,,,,,,,,,,,,
,,,,,,,,2023-08-16_08h17.35.614,HF_wild_card,2022.2.4,Win32,60.25548325,609408e1ef7e7d611c5a06ac,64d2fd46c836a06233681665,64dc77e61c7c0de1694e5753,,,,,,,sngl,resources/DY.BMP,resources/Empty.png,Door2,-0.350260417,-0.029947917,1,0,0,0.7179,optionLeft,40,9165,5,7,0,7,0,1,,,,,,,,,,,,,,,,,,,,,,,,,,,,,,,,,,,,,,,
,,,,,,,,2023-08-16_08h17.35.614,HF_wild_card,2022.2.4,Win32,60.25548325,609408e1ef7e7d611c5a06ac,64d2fd46c836a06233681665,64dc77e61c7c0de1694e5753,,,,,,,sngl,resources/Empty.png,resources/DR.BMP,Door4,0.381510417,-0.037760417,1,0,0,1.5297,optionRight,60,9225,5,8,0,8,0,1,,,,,,,,,,,,,,,,,,,,,,,,,,,,,,,,,,,,,,,
,,,,,,,,2023-08-16_08h17.35.614,HF_wild_card,2022.2.4,Win32,60.25548325,609408e1ef7e7d611c5a06ac,64d2fd46c836a06233681665,64dc77e61c7c0de1694e5753,,,,,,,ctch,resources/DR.BMP,resources/DP.BMP,Door4,-0.40234375,-0.04296875,1,0,0,1.0041,optionLeft,60,9285,5,9,0,9,0,1,,,,,,,,,,,,,,,,,,,,,,,,,,,,,,,,,,,,,,,
,,,,,,,,2023-08-16_08h17.35.614,HF_wild_card,2022.2.4,Win32,60.25548325,609408e1ef7e7d611c5a06ac,64d2fd46c836a06233681665,64dc77e61c7c0de1694e5753,,,,,,,ctch,resources/DY.BMP,resources/DB.BMP,Door2,-0.380208333,-0.044270833,1,0,0,1.128,optionLeft,20,9305,5,10,0,10,0,1,,,,,,,,,,,,,,,,,,,,,,,,,,,,,,,,,,,,,,,
,,,,,,,,2023-08-16_08h17.35.614,HF_wild_card,2022.2.4,Win32,60.25548325,609408e1ef7e7d611c5a06ac,64d2fd46c836a06233681665,64dc77e61c7c0de1694e5753,,,,,,,sngl,resources/DR.BMP,resources/Empty.png,Door4,-0.421875,-0.040364583,1,0,0,0.9335,optionLeft,80,9385,5,11,0,11,0,1,,,,,,,,,,,,,,,,,,,,,,,,,,,,,,,,,,,,,,,
,,,,,,,,2023-08-16_08h17.35.614,HF_wild_card,2022.2.4,Win32,60.25548325,609408e1ef7e7d611c5a06ac,64d2fd46c836a06233681665,64dc77e61c7c0de1694e5753,,,,,,,decisionTrl,resources/DB.BMP,resources/DR.BMP,Door4,0.38671875,-0.057291667,1,0,0,0.9198,optionRight,80,9465,5,12,0,12,0,1,,,,,,,,,,,,,,,,,,,,,,,,,,,,,,,,,,,,,,,
,,,,,,,,2023-08-16_08h17.35.614,HF_wild_card,2022.2.4,Win32,60.25548325,609408e1ef7e7d611c5a06ac,64d2fd46c836a06233681665,64dc77e61c7c0de1694e5753,,,,,,,ctch,resources/DY.BMP,resources/DB.BMP,Door2,-0.381510417,-0.05078125,1,0,0,0.9759,optionLeft,40,9505,5,13,0,13,0,1,,,,,,,,,,,,,,,,,,,,,,,,,,,,,,,,,,,,,,,
,,,,,,,,2023-08-16_08h17.35.614,HF_wild_card,2022.2.4,Win32,60.25548325,609408e1ef7e7d611c5a06ac,64d2fd46c836a06233681665,64dc77e61c7c0de1694e5753,,,,,,,decisionTrl,resources/DB.BMP,resources/DR.BMP,Door3,-0.385416667,-0.0390625,1,0,0,1.1444,optionLeft,70,9575,5,14,0,14,0,1,,,,,,,,,,,,,,,,,,,,,,,,,,,,,,,,,,,,,,,
,,,,,,,,2023-08-16_08h17.35.614,HF_wild_card,2022.2.4,Win32,60.25548325,609408e1ef7e7d611c5a06ac,64d2fd46c836a06233681665,64dc77e61c7c0de1694e5753,,,,,,,decisionTrl,resources/DY.BMP,resources/DP.BMP,Door2,-0.391927083,-0.044270833,1,0,0,1.1609,optionLeft,40,9615,5,15,0,15,0,1,,,,,,,,,,,,,,,,,,,,,,,,,,,,,,,,,,,,,,,
,,,,,,,,2023-08-16_08h17.35.614,HF_wild_card,2022.2.4,Win32,60.25548325,609408e1ef7e7d611c5a06ac,64d2fd46c836a06233681665,64dc77e61c7c0de1694e5753,,,,,,,decisionTrl,resources/DP.BMP,resources/DY.BMP,Door2,0.326822917,-0.040364583,1,0,0,1.3887,optionRight,20,9635,5,16,0,16,0,1,,,,,,,,,,,,,,,,,,,,,,,,,,,,,,,,,,,,,,,
,,,,,,,,2023-08-16_08h17.35.614,HF_wild_card,2022.2.4,Win32,60.25548325,609408e1ef7e7d611c5a06ac,64d2fd46c836a06233681665,64dc77e61c7c0de1694e5753,,,,,,,decisionTrl,resources/DB.BMP,resources/DG.BMP,WildCard_NonEx,0.330729167,-0.020833333,1,0,0,1.487,optionRight,55,9690,5,17,0,17,0,1,,,,,,,,,,,,,,,,,,,,,,,,,,,,,,,,,,,,,,,
,,,,,,,,2023-08-16_08h17.35.614,HF_wild_card,2022.2.4,Win32,60.25548325,609408e1ef7e7d611c5a06ac,64d2fd46c836a06233681665,64dc77e61c7c0de1694e5753,,,,,,,decisionTrl,resources/DR.BMP,resources/DB.BMP,Door4,-0.375,-0.03125,1,0,0,0.8628,optionLeft,80,9770,5,18,0,18,0,1,,,,,,,,,,,,,,,,,,,,,,,,,,,,,,,,,,,,,,,
,,,,,,,,2023-08-16_08h17.35.614,HF_wild_card,2022.2.4,Win32,60.25548325,609408e1ef7e7d611c5a06ac,64d2fd46c836a06233681665,64dc77e61c7c0de1694e5753,,,,,,,decisionTrl,resources/DR.BMP,resources/DG.BMP,Door4,-0.384114583,-0.02734375,1,0,0,0.7445,optionLeft,80,9850,5,19,0,19,0,1,,,,,,,,,,,,,,,,,,,,,,,,,,,,,,,,,,,,,,,
,,,,,,,,2023-08-16_08h17.35.614,HF_wild_card,2022.2.4,Win32,60.25548325,609408e1ef7e7d611c5a06ac,64d2fd46c836a06233681665,64dc77e61c7c0de1694e5753,,,,,,,decisionTrl,resources/DR.BMP,resources/DB.BMP,Door4,-0.389322917,-0.040364583,1,0,0,0.7304,optionLeft,60,9910,5,20,0,20,0,1,,,,,,,,,,,,,,,,,,,,,,,,,,,,,,,,,,,,,,,
,,,,,,,,2023-08-16_08h17.35.614,HF_wild_card,2022.2.4,Win32,60.25548325,609408e1ef7e7d611c5a06ac,64d2fd46c836a06233681665,64dc77e61c7c0de1694e5753,,,,,,,decisionTrl,resources/DP.BMP,resources/DY.BMP,Door2,0.420572917,-0.044270833,1,0,0,1.2486,optionRight,20,9930,5,21,0,21,0,1,,,,,,,,,,,,,,,,,,,,,,,,,,,,,,,,,,,,,,,
,,,,,,,,2023-08-16_08h17.35.614,HF_wild_card,2022.2.4,Win32,60.25548325,609408e1ef7e7d611c5a06ac,64d2fd46c836a06233681665,64dc77e61c7c0de1694e5753,,,,,,,sngl,resources/Empty.png,resources/DG.BMP,WildCard_NonEx,0.40625,-0.0234375,1,0,0,0.8196,optionRight,55,9985,5,22,0,22,0,1,,,,,,,,,,,,,,,,,,,,,,,,,,,,,,,,,,,,,,,
,,,,,,,,2023-08-16_08h17.35.614,HF_wild_card,2022.2.4,Win32,60.25548325,609408e1ef7e7d611c5a06ac,64d2fd46c836a06233681665,64dc77e61c7c0de1694e5753,,,,,,,decisionTrl,resources/DR.BMP,resources/DB.BMP,Door4,-0.373697917,-0.03515625,1,0,0,0.7497,optionLeft,60,10045,5,23,0,23,0,1,,,,,,,,,,,,,,,,,,,,,,,,,,,,,,,,,,,,,,,
,,,,,,,,2023-08-16_08h17.35.614,HF_wild_card,2022.2.4,Win32,60.25548325,609408e1ef7e7d611c5a06ac,64d2fd46c836a06233681665,64dc77e61c7c0de1694e5753,,,,,,,decisionTrl,resources/DG.BMP,resources/DB.BMP,WildCard_NonEx,-0.33984375,-0.01171875,1,0,0,0.9839,optionLeft,45,10090,5,24,0,24,0,1,,,,,,,,,,,,,,,,,,,,,,,,,,,,,,,,,,,,,,,
,,,,,,,,2023-08-16_08h17.35.614,HF_wild_card,2022.2.4,Win32,60.25548325,609408e1ef7e7d611c5a06ac,64d2fd46c836a06233681665,64dc77e61c7c0de1694e5753,,,,,,,ctch,resources/DB.BMP,resources/DY.BMP,Door2,0.317708333,-0.026041667,1,0,0,1.1628,optionRight,40,10130,5,25,0,25,0,1,,,,,,,,,,,,,,,,,,,,,,,,,,,,,,,,,,,,,,,
,,,,,,,,2023-08-16_08h17.35.614,HF_wild_card,2022.2.4,Win32,60.25548325,609408e1ef7e7d611c5a06ac,64d2fd46c836a06233681665,64dc77e61c7c0de1694e5753,,,,,,,sngl,resources/DP.BMP,resources/Empty.png,Door1,-0.377604167,-0.024739583,1,0,0,0.7899,optionLeft,30,10160,5,26,0,26,0,1,,,,,,,,,,,,,,,,,,,,,,,,,,,,,,,,,,,,,,,
,,,,,,,,2023-08-16_08h17.35.614,HF_wild_card,2022.2.4,Win32,60.25548325,609408e1ef7e7d611c5a06ac,64d2fd46c836a06233681665,64dc77e61c7c0de1694e5753,,,,,,,decisionTrl,resources/DB.BMP,resources/DR.BMP,Door4,0.373697917,-0.032552083,1,0,0,0.8636,optionRight,80,10240,5,27,0,27,0,1,,,,,,,,,,,,,,,,,,,,,,,,,,,,,,,,,,,,,,,
,,,,,,,,2023-08-16_08h17.35.614,HF_wild_card,2022.2.4,Win32,60.25548325,609408e1ef7e7d611c5a06ac,64d2fd46c836a06233681665,64dc77e61c7c0de1694e5753,,,,,,,decisionTrl,resources/DR.BMP,resources/DB.BMP,Door4,-0.364583333,-0.03515625,1,0,0,0.6966,optionLeft,80,10320,5,28,0,28,0,1,,,,,,,,,,,,,,,,,,,,,,,,,,,,,,,,,,,,,,,
,,,,,,,,2023-08-16_08h17.35.614,HF_wild_card,2022.2.4,Win32,60.25548325,609408e1ef7e7d611c5a06ac,64d2fd46c836a06233681665,64dc77e61c7c0de1694e5753,,,,,,,sngl,resources/DG.BMP,resources/Empty.png,WildCard_NonEx,-0.298177083,-0.024739583,1,0,0,1.0796,optionLeft,55,10375,5,29,0,29,0,1,,,,,,,,,,,,,,,,,,,,,,,,,,,,,,,,,,,,,,,
,,,,,,,,2023-08-16_08h17.35.614,HF_wild_card,2022.2.4,Win32,60.25548325,609408e1ef7e7d611c5a06ac,64d2fd46c836a06233681665,64dc77e61c7c0de1694e5753,,,,,,,sngl,resources/Empty.png,resources/DB.BMP,Door3,0.375,-0.059895833,1,0,0,0.854,optionRight,70,10445,5,30,0,30,0,1,,,,,,,,,,,,,,,,,,,,,,,,,,,,,,,,,,,,,,,
,,,,,,,,2023-08-16_08h17.35.614,HF_wild_card,2022.2.4,Win32,60.25548325,609408e1ef7e7d611c5a06ac,64d2fd46c836a06233681665,64dc77e61c7c0de1694e5753,,,,,,,ctch,resources/DP.BMP,resources/DR.BMP,Door4,0.384114583,-0.020833333,1,0,0,1.0551,optionRight,60,10505,5,31,0,31,0,1,,,,,,,,,,,,,,,,,,,,,,,,,,,,,,,,,,,,,,,
,,,,,,,,2023-08-16_08h17.35.614,HF_wild_card,2022.2.4,Win32,60.25548325,609408e1ef7e7d611c5a06ac,64d2fd46c836a06233681665,64dc77e61c7c0de1694e5753,,,,,,,decisionTrl,resources/DG.BMP,resources/DP.BMP,Door1,0.33203125,-0.03125,1,0,0,0.8063,optionRight,30,10535,5,32,0,32,0,1,,,,,,,,,,,,,,,,,,,,,,,,,,,,,,,,,,,,,,,
,,,,,,,,2023-08-16_08h17.35.614,HF_wild_card,2022.2.4,Win32,60.25548325,609408e1ef7e7d611c5a06ac,64d2fd46c836a06233681665,64dc77e61c7c0de1694e5753,,,,,,,decisionTrl,resources/DP.BMP,resources/DY.BMP,Door1,-0.299479167,-0.018229167,1,0,0,0.7408,optionLeft,30,10565,5,33,0,33,0,1,,,,,,,,,,,,,,,,,,,,,,,,,,,,,,,,,,,,,,,
,,,,,,,,2023-08-16_08h17.35.614,HF_wild_card,2022.2.4,Win32,60.25548325,609408e1ef7e7d611c5a06ac,64d2fd46c836a06233681665,64dc77e61c7c0de1694e5753,,,,,,,sngl,resources/Empty.png,resources/DY.BMP,Door2,0.354166667,-0.015625,1,0,0,0.7013,optionRight,20,10585,5,34,0,34,0,1,,,,,,,,,,,,,,,,,,,,,,,,,,,,,,,,,,,,,,,
,,,,,,,,2023-08-16_08h17.35.614,HF_wild_card,2022.2.4,Win32,60.25548325,609408e1ef7e7d611c5a06ac,64d2fd46c836a06233681665,64dc77e61c7c0de1694e5753,,,,,,,ctch,resources/DB.BMP,resources/DY.BMP,Door3,-0.3828125,-0.06640625,1,0,0,0.8013,optionLeft,70,10655,5,35,0,35,0,1,,,,,,,,,,,,,,,,,,,,,,,,,,,,,,,,,,,,,,,
,,,,,,,,2023-08-16_08h17.35.614,HF_wild_card,2022.2.4,Win32,60.25548325,609408e1ef7e7d611c5a06ac,64d2fd46c836a06233681665,64dc77e61c7c0de1694e5753,,,,,,,decisionTrl,resources/DY.BMP,resources/DP.BMP,Door1,0.352864583,-0.044270833,1,0,0,0.9979,optionRight,30,10685,5,36,0,36,0,1,,,,,,,,,,,,,,,,,,,,,,,,,,,,,,,,,,,,,,,
,,,,,,,,2023-08-16_08h17.35.614,HF_wild_card,2022.2.4,Win32,60.25548325,609408e1ef7e7d611c5a06ac,64d2fd46c836a06233681665,64dc77e61c7c0de1694e5753,,,,,,,decisionTrl,resources/DG.BMP,resources/DR.BMP,Door4,0.388020833,-0.05078125,1,0,0,0.8492,optionRight,60,10745,5,37,0,37,0,1,,,,,,,,,,,,,,,,,,,,,,,,,,,,,,,,,,,,,,,
,,,,,,,,2023-08-16_08h17.35.614,HF_wild_card,2022.2.4,Win32,60.25548325,609408e1ef7e7d611c5a06ac,64d2fd46c836a06233681665,64dc77e61c7c0de1694e5753,,,,,,,decisionTrl,resources/DG.BMP,resources/DY.BMP,WildCard_NonEx,-0.391927083,0.001302083,1,0,0,0.937,optionLeft,55,10800,5,38,0,38,0,1,,,,,,,,,,,,,,,,,,,,,,,,,,,,,,,,,,,,,,,
,,,,,,,,2023-08-16_08h17.35.614,HF_wild_card,2022.2.4,Win32,60.25548325,609408e1ef7e7d611c5a06ac,64d2fd46c836a06233681665,64dc77e61c7c0de1694e5753,,,,,,,decisionTrl,resources/DP.BMP,resources/DY.BMP,Door2,0.358072917,-0.03125,1,0,0,0.8219,optionRight,40,10840,5,39,0,39,0,1,,,,,,,,,,,,,,,,,,,,,,,,,,,,,,,,,,,,,,,
,,,,,,,,2023-08-16_08h17.35.614,HF_wild_card,2022.2.4,Win32,60.25548325,609408e1ef7e7d611c5a06ac,64d2fd46c836a06233681665,64dc77e61c7c0de1694e5753,,,,,,,sngl,resources/DG.BMP,resources/Empty.png,WildCard_NonEx,-0.37890625,-0.022135417,1,0,0,0.9314,optionLeft,45,10885,5,40,0,40,0,1,,,,,,,,,,,,,,,,,,,,,,,,,,,,,,,,,,,,,,,
,,,,,,,,2023-08-16_08h17.35.614,HF_wild_card,2022.2.4,Win32,60.25548325,609408e1ef7e7d611c5a06ac,64d2fd46c836a06233681665,64dc77e61c7c0de1694e5753,,,,,,,sngl,resources/Empty.png,resources/DG.BMP,WildCard_NonEx,0.41015625,-0.009114583,1,0,0,0.9849,optionRight,45,10930,5,41,0,41,0,1,,,,,,,,,,,,,,,,,,,,,,,,,,,,,,,,,,,,,,,
,,,,,,,,2023-08-16_08h17.35.614,HF_wild_card,2022.2.4,Win32,60.25548325,609408e1ef7e7d611c5a06ac,64d2fd46c836a06233681665,64dc77e61c7c0de1694e5753,,,,,,,sngl,resources/DB.BMP,resources/Empty.png,Door3,-0.393229167,-0.020833333,1,0,0,1.0622,optionLeft,70,11000,5,42,0,42,0,1,,,,,,,,,,,,,,,,,,,,,,,,,,,,,,,,,,,,,,,
,,,,,,,,2023-08-16_08h17.35.614,HF_wild_card,2022.2.4,Win32,60.25548325,609408e1ef7e7d611c5a06ac,64d2fd46c836a06233681665,64dc77e61c7c0de1694e5753,,,,,,,ctch,resources/DR.BMP,resources/DP.BMP,Door4,-0.377604167,0.0078125,1,0,0,0.8246,optionLeft,80,11080,5,43,0,43,0,1,,,,,,,,,,,,,,,,,,,,,,,,,,,,,,,,,,,,,,,
,,,,,,,,2023-08-16_08h17.35.614,HF_wild_card,2022.2.4,Win32,60.25548325,609408e1ef7e7d611c5a06ac,64d2fd46c836a06233681665,64dc77e61c7c0de1694e5753,,,,,,,,,,,,,,,,,,,,,,,,,,4,0,4,0,1,,,,,,,,,,,,,,,,,,,,,,,,,,,,,,,,,,
,,,,,,,,2023-08-16_08h17.35.614,HF_wild_card,2022.2.4,Win32,60.25548325,609408e1ef7e7d611c5a06ac,64d2fd46c836a06233681665,64dc77e61c7c0de1694e5753,,,,,,,sngl,resources/DG.BMP,resources/Empty.png,WildCard_NonEx,-0.37109375,-0.002604167,1,0,0,1.2439,optionLeft,45,11125,6,0,0,0,0,1,,,,,,,,,,,,,,,,,,,,,,,,,,,,,,,,,,,,,,,
,,,,,,,,2023-08-16_08h17.35.614,HF_wild_card,2022.2.4,Win32,60.25548325,609408e1ef7e7d611c5a06ac,64d2fd46c836a06233681665,64dc77e61c7c0de1694e5753,,,,,,,ctch,resources/DR.BMP,resources/DP.BMP,Door4,-0.37109375,-0.01953125,1,0,0,0.7314,optionLeft,60,11185,6,1,0,1,0,1,,,,,,,,,,,,,,,,,,,,,,,,,,,,,,,,,,,,,,,
,,,,,,,,2023-08-16_08h17.35.614,HF_wild_card,2022.2.4,Win32,60.25548325,609408e1ef7e7d611c5a06ac,64d2fd46c836a06233681665,64dc77e61c7c0de1694e5753,,,,,,,decisionTrl,resources/DY.BMP,resources/DP.BMP,Door1,0.30859375,-0.052083333,1,0,0,1.4816,optionRight,30,11215,6,2,0,2,0,1,,,,,,,,,,,,,,,,,,,,,,,,,,,,,,,,,,,,,,,
,,,,,,,,2023-08-16_08h17.35.614,HF_wild_card,2022.2.4,Win32,60.25548325,609408e1ef7e7d611c5a06ac,64d2fd46c836a06233681665,64dc77e61c7c0de1694e5753,,,,,,,decisionTrl,resources/DY.BMP,resources/DG.BMP,Door2,-0.365885417,-0.018229167,1,0,0,0.664,optionLeft,40,11255,6,3,0,3,0,1,,,,,,,,,,,,,,,,,,,,,,,,,,,,,,,,,,,,,,,
,,,,,,,,2023-08-16_08h17.35.614,HF_wild_card,2022.2.4,Win32,60.25548325,609408e1ef7e7d611c5a06ac,64d2fd46c836a06233681665,64dc77e61c7c0de1694e5753,,,,,,,decisionTrl,resources/DR.BMP,resources/DG.BMP,Door4,-0.3984375,-0.029947917,1,0,0,0.7133,optionLeft,60,11315,6,4,0,4,0,1,,,,,,,,,,,,,,,,,,,,,,,,,,,,,,,,,,,,,,,
,,,,,,,,2023-08-16_08h17.35.614,HF_wild_card,2022.2.4,Win32,60.25548325,609408e1ef7e7d611c5a06ac,64d2fd46c836a06233681665,64dc77e61c7c0de1694e5753,,,,,,,decisionTrl,resources/DR.BMP,resources/DB.BMP,Door4,-0.395833333,-0.0390625,1,0,0,0.7832,optionLeft,80,11395,6,5,0,5,0,1,,,,,,,,,,,,,,,,,,,,,,,,,,,,,,,,,,,,,,,
,,,,,,,,2023-08-16_08h17.35.614,HF_wild_card,2022.2.4,Win32,60.25548325,609408e1ef7e7d611c5a06ac,64d2fd46c836a06233681665,64dc77e61c7c0de1694e5753,,,,,,,decisionTrl,resources/DR.BMP,resources/DB.BMP,Door4,-0.375,-0.0078125,1,0,0,0.6855,optionLeft,60,11455,6,6,0,6,0,1,,,,,,,,,,,,,,,,,,,,,,,,,,,,,,,,,,,,,,,
,,,,,,,,2023-08-16_08h17.35.614,HF_wild_card,2022.2.4,Win32,60.25548325,609408e1ef7e7d611c5a06ac,64d2fd46c836a06233681665,64dc77e61c7c0de1694e5753,,,,,,,decisionTrl,resources/DB.BMP,resources/DR.BMP,Door4,0.354166667,-0.040364583,1,0,0,1.0011,optionRight,80,11535,6,7,0,7,0,1,,,,,,,,,,,,,,,,,,,,,,,,,,,,,,,,,,,,,,,
,,,,,,,,2023-08-16_08h17.35.614,HF_wild_card,2022.2.4,Win32,60.25548325,609408e1ef7e7d611c5a06ac,64d2fd46c836a06233681665,64dc77e61c7c0de1694e5753,,,,,,,sngl,resources/DB.BMP,resources/Empty.png,Door3,-0.358072917,-0.016927083,1,0,0,0.7098,optionLeft,70,11605,6,8,0,8,0,1,,,,,,,,,,,,,,,,,,,,,,,,,,,,,,,,,,,,,,,
,,,,,,,,2023-08-16_08h17.35.614,HF_wild_card,2022.2.4,Win32,60.25548325,609408e1ef7e7d611c5a06ac,64d2fd46c836a06233681665,64dc77e61c7c0de1694e5753,,,,,,,decisionTrl,resources/DB.BMP,resources/DR.BMP,Door4,0.368489583,-0.03515625,1,0,0,1.0355,optionRight,80,11685,6,9,0,9,0,1,,,,,,,,,,,,,,,,,,,,,,,,,,,,,,,,,,,,,,,
,,,,,,,,2023-08-16_08h17.35.614,HF_wild_card,2022.2.4,Win32,60.25548325,609408e1ef7e7d611c5a06ac,64d2fd46c836a06233681665,64dc77e61c7c0de1694e5753,,,,,,,decisionTrl,resources/DY.BMP,resources/DP.BMP,Door2,-0.390625,-0.010416667,1,0,0,0.8356,optionLeft,40,11725,6,10,0,10,0,1,,,,,,,,,,,,,,,,,,,,,,,,,,,,,,,,,,,,,,,
,,,,,,,,2023-08-16_08h17.35.614,HF_wild_card,2022.2.4,Win32,60.25548325,609408e1ef7e7d611c5a06ac,64d2fd46c836a06233681665,64dc77e61c7c0de1694e5753,,,,,,,ctch,resources/DB.BMP,resources/DY.BMP,Door2,0.388020833,-0.04296875,1,0,0,0.856,optionRight,40,11765,6,11,0,11,0,1,,,,,,,,,,,,,,,,,,,,,,,,,,,,,,,,,,,,,,,
,,,,,,,,2023-08-16_08h17.35.614,HF_wild_card,2022.2.4,Win32,60.25548325,609408e1ef7e7d611c5a06ac,64d2fd46c836a06233681665,64dc77e61c7c0de1694e5753,,,,,,,sngl,resources/Empty.png,resources/DG.BMP,WildCard_NonEx,0.369791667,-0.006510417,1,0,0,0.7674,optionRight,45,11810,6,12,0,12,0,1,,,,,,,,,,,,,,,,,,,,,,,,,,,,,,,,,,,,,,,
,,,,,,,,2023-08-16_08h17.35.614,HF_wild_card,2022.2.4,Win32,60.25548325,609408e1ef7e7d611c5a06ac,64d2fd46c836a06233681665,64dc77e61c7c0de1694e5753,,,,,,,ctch,resources/DY.BMP,resources/DB.BMP,Door2,-0.279947917,-0.024739583,1,0,0,0.644,optionLeft,20,11830,6,13,0,13,0,1,,,,,,,,,,,,,,,,,,,,,,,,,,,,,,,,,,,,,,,
,,,,,,,,2023-08-16_08h17.35.614,HF_wild_card,2022.2.4,Win32,60.25548325,609408e1ef7e7d611c5a06ac,64d2fd46c836a06233681665,64dc77e61c7c0de1694e5753,,,,,,,decisionTrl,resources/DG.BMP,resources/DY.BMP,Door2,0.376302083,-0.020833333,1,0,0,0.7506,optionRight,40,11870,6,14,0,14,0,1,,,,,,,,,,,,,,,,,,,,,,,,,,,,,,,,,,,,,,,
,,,,,,,,2023-08-16_08h17.35.614,HF_wild_card,2022.2.4,Win32,60.25548325,609408e1ef7e7d611c5a06ac,64d2fd46c836a06233681665,64dc77e61c7c0de1694e5753,,,,,,,sngl,resources/DP.BMP,resources/Empty.png,Door1,-0.32421875,-0.018229167,1,0,0,0.6339,optionLeft,30,11900,6,15,0,15,0,1,,,,,,,,,,,,,,,,,,,,,,,,,,,,,,,,,,,,,,,
,,,,,,,,2023-08-16_08h17.35.614,HF_wild_card,2022.2.4,Win32,60.25548325,609408e1ef7e7d611c5a06ac,64d2fd46c836a06233681665,64dc77e61c7c0de1694e5753,,,,,,,decisionTrl,resources/DP.BMP,resources/DY.BMP,Door2,0.333333333,-0.052083333,1,0,0,0.7733,optionRight,20,11920,6,16,0,16,0,1,,,,,,,,,,,,,,,,,,,,,,,,,,,,,,,,,,,,,,,
,,,,,,,,2023-08-16_08h17.35.614,HF_wild_card,2022.2.4,Win32,60.25548325,609408e1ef7e7d611c5a06ac,64d2fd46c836a06233681665,64dc77e61c7c0de1694e5753,,,,,,,sngl,resources/Empty.png,resources/DP.BMP,Door1,0.3515625,-0.026041667,1,0,0,0.8624,optionRight,30,11950,6,17,0,17,0,1,,,,,,,,,,,,,,,,,,,,,,,,,,,,,,,,,,,,,,,
,,,,,,,,2023-08-16_08h17.35.614,HF_wild_card,2022.2.4,Win32,60.25548325,609408e1ef7e7d611c5a06ac,64d2fd46c836a06233681665,64dc77e61c7c0de1694e5753,,,,,,,sngl,resources/Empty.png,resources/DY.BMP,Door2,0.350260417,-0.0234375,1,0,0,0.9105,optionRight,40,11990,6,18,0,18,0,1,,,,,,,,,,,,,,,,,,,,,,,,,,,,,,,,,,,,,,,
,,,,,,,,2023-08-16_08h17.35.614,HF_wild_card,2022.2.4,Win32,60.25548325,609408e1ef7e7d611c5a06ac,64d2fd46c836a06233681665,64dc77e61c7c0de1694e5753,,,,,,,sngl,resources/Empty.png,resources/DG.BMP,WildCard_NonEx,0.415364583,-0.0390625,1,0,0,0.7469,optionRight,55,12045,6,19,0,19,0,1,,,,,,,,,,,,,,,,,,,,,,,,,,,,,,,,,,,,,,,
,,,,,,,,2023-08-16_08h17.35.614,HF_wild_card,2022.2.4,Win32,60.25548325,609408e1ef7e7d611c5a06ac,64d2fd46c836a06233681665,64dc77e61c7c0de1694e5753,,,,,,,sngl,resources/DY.BMP,resources/Empty.png,Door2,-0.341145833,-0.032552083,1,0,0,0.9273,optionLeft,20,12065,6,20,0,20,0,1,,,,,,,,,,,,,,,,,,,,,,,,,,,,,,,,,,,,,,,
,,,,,,,,2023-08-16_08h17.35.614,HF_wild_card,2022.2.4,Win32,60.25548325,609408e1ef7e7d611c5a06ac,64d2fd46c836a06233681665,64dc77e61c7c0de1694e5753,,,,,,,ctch,resources/DR.BMP,resources/DP.BMP,Door4,-0.321614583,-0.013020833,1,0,0,0.8322,optionLeft,80,12145,6,21,0,21,0,1,,,,,,,,,,,,,,,,,,,,,,,,,,,,,,,,,,,,,,,
,,,,,,,,2023-08-16_08h17.35.614,HF_wild_card,2022.2.4,Win32,60.25548325,609408e1ef7e7d611c5a06ac,64d2fd46c836a06233681665,64dc77e61c7c0de1694e5753,,,,,,,decisionTrl,resources/DR.BMP,resources/DB.BMP,Door4,-0.350260417,-0.01171875,1,0,0,0.847,optionLeft,80,12225,6,22,0,22,0,1,,,,,,,,,,,,,,,,,,,,,,,,,,,,,,,,,,,,,,,
,,,,,,,,2023-08-16_08h17.35.614,HF_wild_card,2022.2.4,Win32,60.25548325,609408e1ef7e7d611c5a06ac,64d2fd46c836a06233681665,64dc77e61c7c0de1694e5753,,,,,,,decisionTrl,resources/DP.BMP,resources/DG.BMP,WildCard_NonEx,0.282552083,-0.014322917,1,0,0,1.5817,optionRight,45,12270,6,23,0,23,0,1,,,,,,,,,,,,,,,,,,,,,,,,,,,,,,,,,,,,,,,
,,,,,,,,2023-08-16_08h17.35.614,HF_wild_card,2022.2.4,Win32,60.25548325,609408e1ef7e7d611c5a06ac,64d2fd46c836a06233681665,64dc77e61c7c0de1694e5753,,,,,,,decisionTrl,resources/DG.BMP,resources/DP.BMP,WildCard_NonEx,-0.342447917,-0.014322917,1,0,0,0.7639,optionLeft,45,12315,6,24,0,24,0,1,,,,,,,,,,,,,,,,,,,,,,,,,,,,,,,,,,,,,,,
,,,,,,,,2023-08-16_08h17.35.614,HF_wild_card,2022.2.4,Win32,60.25548325,609408e1ef7e7d611c5a06ac,64d2fd46c836a06233681665,64dc77e61c7c0de1694e5753,,,,,,,decisionTrl,resources/DP.BMP,resources/DY.BMP,Door2,0.365885417,-0.08203125,1,0,0,0.9655,optionRight,40,12355,6,25,0,25,0,1,,,,,,,,,,,,,,,,,,,,,,,,,,,,,,,,,,,,,,,
,,,,,,,,2023-08-16_08h17.35.614,HF_wild_card,2022.2.4,Win32,60.25548325,609408e1ef7e7d611c5a06ac,64d2fd46c836a06233681665,64dc77e61c7c0de1694e5753,,,,,,,decisionTrl,resources/DB.BMP,resources/DG.BMP,Door3,-0.3359375,-0.028645833,1,0,0,1.1979,optionLeft,70,12425,6,26,0,26,0,1,,,,,,,,,,,,,,,,,,,,,,,,,,,,,,,,,,,,,,,
,,,,,,,,2023-08-16_08h17.35.614,HF_wild_card,2022.2.4,Win32,60.25548325,609408e1ef7e7d611c5a06ac,64d2fd46c836a06233681665,64dc77e61c7c0de1694e5753,,,,,,,ctch,resources/DY.BMP,resources/DB.BMP,Door2,-0.377604167,-0.0234375,1,0,0,0.8019,optionLeft,20,12445,6,27,0,27,0,1,,,,,,,,,,,,,,,,,,,,,,,,,,,,,,,,,,,,,,,
,,,,,,,,2023-08-16_08h17.35.614,HF_wild_card,2022.2.4,Win32,60.25548325,609408e1ef7e7d611c5a06ac,64d2fd46c836a06233681665,64dc77e61c7c0de1694e5753,,,,,,,ctch,resources/DB.BMP,resources/DY.BMP,Door3,-0.381510417,-0.024739583,1,0,0,0.7546,optionLeft,70,12515,6,28,0,28,0,1,,,,,,,,,,,,,,,,,,,,,,,,,,,,,,,,,,,,,,,
,,,,,,,,2023-08-16_08h17.35.614,HF_wild_card,2022.2.4,Win32,60.25548325,609408e1ef7e7d611c5a06ac,64d2fd46c836a06233681665,64dc77e61c7c0de1694e5753,,,,,,,decisionTrl,resources/DG.BMP,resources/DB.BMP,Door3,0.364583333,-0.045572917,1,0,0,0.7872,optionRight,70,12585,6,29,0,29,0,1,,,,,,,,,,,,,,,,,,,,,,,,,,,,,,,,,,,,,,,
,,,,,,,,2023-08-16_08h17.35.614,HF_wild_card,2022.2.4,Win32,60.25548325,609408e1ef7e7d611c5a06ac,64d2fd46c836a06233681665,64dc77e61c7c0de1694e5753,,,,,,,decisionTrl,resources/DY.BMP,resources/DP.BMP,Door1,0.358072917,-0.029947917,1,0,0,0.9284,optionRight,30,12615,6,30,0,30,0,1,,,,,,,,,,,,,,,,,,,,,,,,,,,,,,,,,,,,,,,
,,,,,,,,2023-08-16_08h17.35.614,HF_wild_card,2022.2.4,Win32,60.25548325,609408e1ef7e7d611c5a06ac,64d2fd46c836a06233681665,64dc77e61c7c0de1694e5753,,,,,,,ctch,resources/DP.BMP,resources/DR.BMP,Door4,0.365885417,-0.037760417,1,0,0,0.8758,optionRight,80,12695,6,31,0,31,0,1,,,,,,,,,,,,,,,,,,,,,,,,,,,,,,,,,,,,,,,
,,,,,,,,2023-08-16_08h17.35.614,HF_wild_card,2022.2.4,Win32,60.25548325,609408e1ef7e7d611c5a06ac,64d2fd46c836a06233681665,64dc77e61c7c0de1694e5753,,,,,,,sngl,resources/Empty.png,resources/DB.BMP,Door3,0.401041667,-0.010416667,1,0,0,0.7562,optionRight,70,12765,6,32,0,32,0,1,,,,,,,,,,,,,,,,,,,,,,,,,,,,,,,,,,,,,,,
,,,,,,,,2023-08-16_08h17.35.614,HF_wild_card,2022.2.4,Win32,60.25548325,609408e1ef7e7d611c5a06ac,64d2fd46c836a06233681665,64dc77e61c7c0de1694e5753,,,,,,,ctch,resources/DP.BMP,resources/DR.BMP,Door1,-0.475260417,-0.0078125,1,0,0,1.8528,optionLeft,30,12795,6,33,0,33,0,1,,,,,,,,,,,,,,,,,,,,,,,,,,,,,,,,,,,,,,,
,,,,,,,,2023-08-16_08h17.35.614,HF_wild_card,2022.2.4,Win32,60.25548325,609408e1ef7e7d611c5a06ac,64d2fd46c836a06233681665,64dc77e61c7c0de1694e5753,,,,,,,decisionTrl,resources/DR.BMP,resources/DB.BMP,Door4,-0.373697917,0.00390625,1,0,0,1.4907,optionLeft,60,12855,6,34,0,34,0,1,,,,,,,,,,,,,,,,,,,,,,,,,,,,,,,,,,,,,,,
,,,,,,,,2023-08-16_08h17.35.614,HF_wild_card,2022.2.4,Win32,60.25548325,609408e1ef7e7d611c5a06ac,64d2fd46c836a06233681665,64dc77e61c7c0de1694e5753,,,,,,,decisionTrl,resources/DY.BMP,resources/DP.BMP,Door1,0.412760417,-0.00390625,1,0,0,0.9904,optionRight,30,12885,6,35,0,35,0,1,,,,,,,,,,,,,,,,,,,,,,,,,,,,,,,,,,,,,,,
,,,,,,,,2023-08-16_08h17.35.614,HF_wild_card,2022.2.4,Win32,60.25548325,609408e1ef7e7d611c5a06ac,64d2fd46c836a06233681665,64dc77e61c7c0de1694e5753,,,,,,,decisionTrl,resources/DP.BMP,resources/DY.BMP,Door1,-0.358072917,-0.00390625,1,0,0,0.7318,optionLeft,30,12915,6,36,0,36,0,1,,,,,,,,,,,,,,,,,,,,,,,,,,,,,,,,,,,,,,,
,,,,,,,,2023-08-16_08h17.35.614,HF_wild_card,2022.2.4,Win32,60.25548325,609408e1ef7e7d611c5a06ac,64d2fd46c836a06233681665,64dc77e61c7c0de1694e5753,,,,,,,sngl,resources/DG.BMP,resources/Empty.png,WildCard_NonEx,-0.311197917,-0.009114583,1,0,0,0.7335,optionLeft,55,12970,6,37,0,37,0,1,,,,,,,,,,,,,,,,,,,,,,,,,,,,,,,,,,,,,,,
,,,,,,,,2023-08-16_08h17.35.614,HF_wild_card,2022.2.4,Win32,60.25548325,609408e1ef7e7d611c5a06ac,64d2fd46c836a06233681665,64dc77e61c7c0de1694e5753,,,,,,,sngl,resources/Empty.png,resources/DR.BMP,Door4,0.356770833,-0.041666667,1,0,0,0.8433,optionRight,80,13050,6,38,0,38,0,1,,,,,,,,,,,,,,,,,,,,,,,,,,,,,,,,,,,,,,,
,,,,,,,,2023-08-16_08h17.35.614,HF_wild_card,2022.2.4,Win32,60.25548325,609408e1ef7e7d611c5a06ac,64d2fd46c836a06233681665,64dc77e61c7c0de1694e5753,,,,,,,decisionTrl,resources/DP.BMP,resources/DY.BMP,Door2,0.404947917,-0.03125,1,0,0,0.9158,optionRight,40,13090,6,39,0,39,0,1,,,,,,,,,,,,,,,,,,,,,,,,,,,,,,,,,,,,,,,
,,,,,,,,2023-08-16_08h17.35.614,HF_wild_card,2022.2.4,Win32,60.25548325,609408e1ef7e7d611c5a06ac,64d2fd46c836a06233681665,64dc77e61c7c0de1694e5753,,,,,,,sngl,resources/DR.BMP,resources/Empty.png,Door4,-0.307291667,-0.013020833,1,0,0,0.88,optionLeft,60,13150,6,40,0,40,0,1,,,,,,,,,,,,,,,,,,,,,,,,,,,,,,,,,,,,,,,
,,,,,,,,2023-08-16_08h17.35.614,HF_wild_card,2022.2.4,Win32,60.25548325,609408e1ef7e7d611c5a06ac,64d2fd46c836a06233681665,64dc77e61c7c0de1694e5753,,,,,,,decisionTrl,resources/DG.BMP,resources/DR.BMP,Door4,0.423177083,-0.05078125,1,0,0,0.8424,optionRight,60,13210,6,41,0,41,0,1,,,,,,,,,,,,,,,,,,,,,,,,,,,,,,,,,,,,,,,
,,,,,,,,2023-08-16_08h17.35.614,HF_wild_card,2022.2.4,Win32,60.25548325,609408e1ef7e7d611c5a06ac,64d2fd46c836a06233681665,64dc77e61c7c0de1694e5753,,,,,,,decisionTrl,resources/DB.BMP,resources/DR.BMP,Door4,0.420572917,-0.03125,1,0,0,1.0659,optionRight,60,13270,6,42,0,42,0,1,,,,,,,,,,,,,,,,,,,,,,,,,,,,,,,,,,,,,,,
,,,,,,,,2023-08-16_08h17.35.614,HF_wild_card,2022.2.4,Win32,60.25548325,609408e1ef7e7d611c5a06ac,64d2fd46c836a06233681665,64dc77e61c7c0de1694e5753,,,,,,,decisionTrl,resources/DB.BMP,resources/DR.BMP,Door3,-0.415364583,-0.03515625,1,0,0,0.8918,optionLeft,70,13340,6,43,0,43,0,1,,,,,,,,,,,,,,,,,,,,,,,,,,,,,,,,,,,,,,,
,,,,,,,,2023-08-16_08h17.35.614,HF_wild_card,2022.2.4,Win32,60.25548325,609408e1ef7e7d611c5a06ac,64d2fd46c836a06233681665,64dc77e61c7c0de1694e5753,,,,,,,,,,,,,,,,,,,,,,,,,,5,0,5,0,1,,,,,,,,,,,,,,,,,,,,,,,,,,,,,,,,,,
,,,,,,,,2023-08-16_08h17.35.614,HF_wild_card,2022.2.4,Win32,60.25548325,609408e1ef7e7d611c5a06ac,64d2fd46c836a06233681665,64dc77e61c7c0de1694e5753,,,,,,,ctch,resources/DY.BMP,resources/DB.BMP,Door3,0.361979167,-0.08203125,1,0,0,1.6153,optionRight,70,13410,7,0,0,0,0,1,,,,,,,,,,,,,,,,,,,,,,,,,,,,,,,,,,,,,,,
,,,,,,,,2023-08-16_08h17.35.614,HF_wild_card,2022.2.4,Win32,60.25548325,609408e1ef7e7d611c5a06ac,64d2fd46c836a06233681665,64dc77e61c7c0de1694e5753,,,,,,,decisionTrl,resources/DR.BMP,resources/DB.BMP,Door4,-0.401041667,-0.029947917,1,0,0,1.1182,optionLeft,80,13490,7,1,0,1,0,1,,,,,,,,,,,,,,,,,,,,,,,,,,,,,,,,,,,,,,,
,,,,,,,,2023-08-16_08h17.35.614,HF_wild_card,2022.2.4,Win32,60.25548325,609408e1ef7e7d611c5a06ac,64d2fd46c836a06233681665,64dc77e61c7c0de1694e5753,,,,,,,decisionTrl,resources/DB.BMP,resources/DR.BMP,Door3,-0.37109375,-0.014322917,1,0,0,1.4168,optionLeft,70,13560,7,2,0,2,0,1,,,,,,,,,,,,,,,,,,,,,,,,,,,,,,,,,,,,,,,
,,,,,,,,2023-08-16_08h17.35.614,HF_wild_card,2022.2.4,Win32,60.25548325,609408e1ef7e7d611c5a06ac,64d2fd46c836a06233681665,64dc77e61c7c0de1694e5753,,,,,,,decisionTrl,resources/DP.BMP,resources/DY.BMP,Door2,0.416666667,-0.037760417,1,0,0,1.8186,optionRight,20,13580,7,3,0,3,0,1,,,,,,,,,,,,,,,,,,,,,,,,,,,,,,,,,,,,,,,
,,,,,,,,2023-08-16_08h17.35.614,HF_wild_card,2022.2.4,Win32,60.25548325,609408e1ef7e7d611c5a06ac,64d2fd46c836a06233681665,64dc77e61c7c0de1694e5753,,,,,,,decisionTrl,resources/DB.BMP,resources/DR.BMP,Door3,-0.3828125,-0.020833333,1,0,0,1.0572,optionLeft,70,13650,7,4,0,4,0,1,,,,,,,,,,,,,,,,,,,,,,,,,,,,,,,,,,,,,,,
,,,,,,,,2023-08-16_08h17.35.614,HF_wild_card,2022.2.4,Win32,60.25548325,609408e1ef7e7d611c5a06ac,64d2fd46c836a06233681665,64dc77e61c7c0de1694e5753,,,,,,,ctch,resources/DR.BMP,resources/DP.BMP,Door1,0.404947917,-0.01953125,1,0,0,0.9643,optionRight,30,13680,7,5,0,5,0,1,,,,,,,,,,,,,,,,,,,,,,,,,,,,,,,,,,,,,,,
,,,,,,,,2023-08-16_08h17.35.614,HF_wild_card,2022.2.4,Win32,60.25548325,609408e1ef7e7d611c5a06ac,64d2fd46c836a06233681665,64dc77e61c7c0de1694e5753,,,,,,,ctch,resources/DP.BMP,resources/DR.BMP,Door4,0.412760417,-0.026041667,1,0,0,1.0535,optionRight,60,13740,7,6,0,6,0,1,,,,,,,,,,,,,,,,,,,,,,,,,,,,,,,,,,,,,,,
,,,,,,,,2023-08-16_08h17.35.614,HF_wild_card,2022.2.4,Win32,60.25548325,609408e1ef7e7d611c5a06ac,64d2fd46c836a06233681665,64dc77e61c7c0de1694e5753,,,,,,,ctch,resources/DP.BMP,resources/DR.BMP,Door1,-0.360677083,-0.029947917,1,0,0,1.1021,optionLeft,30,13770,7,7,0,7,0,1,,,,,,,,,,,,,,,,,,,,,,,,,,,,,,,,,,,,,,,
,,,,,,,,2023-08-16_08h17.35.614,HF_wild_card,2022.2.4,Win32,60.25548325,609408e1ef7e7d611c5a06ac,64d2fd46c836a06233681665,64dc77e61c7c0de1694e5753,,,,,,,decisionTrl,resources/DB.BMP,resources/DR.BMP,Door4,0.423177083,-0.0546875,1,0,0,0.8938,optionRight,80,13850,7,8,0,8,0,1,,,,,,,,,,,,,,,,,,,,,,,,,,,,,,,,,,,,,,,
,,,,,,,,2023-08-16_08h17.35.614,HF_wild_card,2022.2.4,Win32,60.25548325,609408e1ef7e7d611c5a06ac,64d2fd46c836a06233681665,64dc77e61c7c0de1694e5753,,,,,,,decisionTrl,resources/DB.BMP,resources/DR.BMP,Door3,-0.423177083,-0.059895833,1,0,0,0.8846,optionLeft,70,13920,7,9,0,9,0,1,,,,,,,,,,,,,,,,,,,,,,,,,,,,,,,,,,,,,,,
,,,,,,,,2023-08-16_08h17.35.614,HF_wild_card,2022.2.4,Win32,60.25548325,609408e1ef7e7d611c5a06ac,64d2fd46c836a06233681665,64dc77e61c7c0de1694e5753,,,,,,,ctch,resources/DR.BMP,resources/DP.BMP,Door4,-0.389322917,-0.029947917,1,0,0,0.9702,optionLeft,80,14000,7,10,0,10,0,1,,,,,,,,,,,,,,,,,,,,,,,,,,,,,,,,,,,,,,,
,,,,,,,,2023-08-16_08h17.35.614,HF_wild_card,2022.2.4,Win32,60.25548325,609408e1ef7e7d611c5a06ac,64d2fd46c836a06233681665,64dc77e61c7c0de1694e5753,,,,,,,decisionTrl,resources/DR.BMP,resources/DB.BMP,Door3,0.423177083,-0.06640625,1,0,0,0.6013,optionRight,70,14070,7,11,0,11,0,1,,,,,,,,,,,,,,,,,,,,,,,,,,,,,,,,,,,,,,,
,,,,,,,,2023-08-16_08h17.35.614,HF_wild_card,2022.2.4,Win32,60.25548325,609408e1ef7e7d611c5a06ac,64d2fd46c836a06233681665,64dc77e61c7c0de1694e5753,,,,,,,decisionTrl,resources/DB.BMP,resources/DR.BMP,Door3,-0.389322917,-0.03515625,1,0,0,1.0047,optionLeft,70,14140,7,12,0,12,0,1,,,,,,,,,,,,,,,,,,,,,,,,,,,,,,,,,,,,,,,
,,,,,,,,2023-08-16_08h17.35.614,HF_wild_card,2022.2.4,Win32,60.25548325,609408e1ef7e7d611c5a06ac,64d2fd46c836a06233681665,64dc77e61c7c0de1694e5753,,,,,,,decisionTrl,resources/DP.BMP,resources/DY.BMP,Door2,0.385416667,-0.048177083,1,0,0,0.9381,optionRight,40,14180,7,13,0,13,0,1,,,,,,,,,,,,,,,,,,,,,,,,,,,,,,,,,,,,,,,
,,,,,,,,2023-08-16_08h17.35.614,HF_wild_card,2022.2.4,Win32,60.25548325,609408e1ef7e7d611c5a06ac,64d2fd46c836a06233681665,64dc77e61c7c0de1694e5753,,,,,,,decisionTrl,resources/DR.BMP,resources/DB.BMP,Door4,-0.37109375,-0.037760417,1,0,0,0.8927,optionLeft,80,14260,7,14,0,14,0,1,,,,,,,,,,,,,,,,,,,,,,,,,,,,,,,,,,,,,,,
,,,,,,,,2023-08-16_08h17.35.614,HF_wild_card,2022.2.4,Win32,60.25548325,609408e1ef7e7d611c5a06ac,64d2fd46c836a06233681665,64dc77e61c7c0de1694e5753,,,,,,,decisionTrl,resources/DR.BMP,resources/DB.BMP,Door3,0.364583333,-0.028645833,1,0,0,0.8094,optionRight,70,14330,7,15,0,15,0,1,,,,,,,,,,,,,,,,,,,,,,,,,,,,,,,,,,,,,,,
,,,,,,,,2023-08-16_08h17.35.614,HF_wild_card,2022.2.4,Win32,60.25548325,609408e1ef7e7d611c5a06ac,64d2fd46c836a06233681665,64dc77e61c7c0de1694e5753,,,,,,,decisionTrl,resources/DR.BMP,resources/DB.BMP,Door4,-0.350260417,-0.03125,1,0,0,0.9562,optionLeft,80,14410,7,16,0,16,0,1,,,,,,,,,,,,,,,,,,,,,,,,,,,,,,,,,,,,,,,
,,,,,,,,2023-08-16_08h17.35.614,HF_wild_card,2022.2.4,Win32,60.25548325,609408e1ef7e7d611c5a06ac,64d2fd46c836a06233681665,64dc77e61c7c0de1694e5753,,,,,,,ctch,resources/DR.BMP,resources/DP.BMP,Door1,0.389322917,-0.06640625,1,0,0,0.8493,optionRight,30,14440,7,17,0,17,0,1,,,,,,,,,,,,,,,,,,,,,,,,,,,,,,,,,,,,,,,
,,,,,,,,2023-08-16_08h17.35.614,HF_wild_card,2022.2.4,Win32,60.25548325,609408e1ef7e7d611c5a06ac,64d2fd46c836a06233681665,64dc77e61c7c0de1694e5753,,,,,,,ctch,resources/DB.BMP,resources/DY.BMP,Door2,0.36328125,-0.052083333,1,0,0,1.3206,optionRight,20,14460,7,18,0,18,0,1,,,,,,,,,,,,,,,,,,,,,,,,,,,,,,,,,,,,,,,
,,,,,,,,2023-08-16_08h17.35.614,HF_wild_card,2022.2.4,Win32,60.25548325,609408e1ef7e7d611c5a06ac,64d2fd46c836a06233681665,64dc77e61c7c0de1694e5753,,,,,,,decisionTrl,resources/DR.BMP,resources/DB.BMP,Door4,-0.368489583,-0.028645833,1,0,0,0.9522,optionLeft,80,14540,7,19,0,19,0,1,,,,,,,,,,,,,,,,,,,,,,,,,,,,,,,,,,,,,,,
,,,,,,,,2023-08-16_08h17.35.614,HF_wild_card,2022.2.4,Win32,60.25548325,609408e1ef7e7d611c5a06ac,64d2fd46c836a06233681665,64dc77e61c7c0de1694e5753,,,,,,,decisionTrl,resources/DY.BMP,resources/DP.BMP,Door1,0.388020833,-0.0546875,1,0,0,0.8188,optionRight,30,14570,7,20,0,20,0,1,,,,,,,,,,,,,,,,,,,,,,,,,,,,,,,,,,,,,,,
,,,,,,,,2023-08-16_08h17.35.614,HF_wild_card,2022.2.4,Win32,60.25548325,609408e1ef7e7d611c5a06ac,64d2fd46c836a06233681665,64dc77e61c7c0de1694e5753,,,,,,,decisionTrl,resources/DP.BMP,resources/DY.BMP,Door2,0.3828125,-0.059895833,1,0,0,1.0088,optionRight,40,14610,7,21,0,21,0,1,,,,,,,,,,,,,,,,,,,,,,,,,,,,,,,,,,,,,,,
,,,,,,,,2023-08-16_08h17.35.614,HF_wild_card,2022.2.4,Win32,60.25548325,609408e1ef7e7d611c5a06ac,64d2fd46c836a06233681665,64dc77e61c7c0de1694e5753,,,,,,,decisionTrl,resources/DP.BMP,resources/DY.BMP,Door2,0.4140625,-0.045572917,1,0,0,1.0102,optionRight,20,14630,7,22,0,22,0,1,,,,,,,,,,,,,,,,,,,,,,,,,,,,,,,,,,,,,,,
,,,,,,,,2023-08-16_08h17.35.614,HF_wild_card,2022.2.4,Win32,60.25548325,609408e1ef7e7d611c5a06ac,64d2fd46c836a06233681665,64dc77e61c7c0de1694e5753,,,,,,,decisionTrl,resources/DB.BMP,resources/DR.BMP,Door3,-0.389322917,-0.040364583,1,0,0,0.9823,optionLeft,70,14700,7,23,0,23,0,1,,,,,,,,,,,,,,,,,,,,,,,,,,,,,,,,,,,,,,,
,,,,,,,,2023-08-16_08h17.35.614,HF_wild_card,2022.2.4,Win32,60.25548325,609408e1ef7e7d611c5a06ac,64d2fd46c836a06233681665,64dc77e61c7c0de1694e5753,,,,,,,ctch,resources/DY.BMP,resources/DB.BMP,Door3,0.44140625,-0.0546875,1,0,0,0.8021,optionRight,70,14770,7,24,0,24,0,1,,,,,,,,,,,,,,,,,,,,,,,,,,,,,,,,,,,,,,,
,,,,,,,,2023-08-16_08h17.35.614,HF_wild_card,2022.2.4,Win32,60.25548325,609408e1ef7e7d611c5a06ac,64d2fd46c836a06233681665,64dc77e61c7c0de1694e5753,,,,,,,decisionTrl,resources/DY.BMP,resources/DP.BMP,Door2,-0.44921875,-0.0390625,1,0,0,0.7868,optionLeft,20,14790,7,25,0,25,0,1,,,,,,,,,,,,,,,,,,,,,,,,,,,,,,,,,,,,,,,
,,,,,,,,2023-08-16_08h17.35.614,HF_wild_card,2022.2.4,Win32,60.25548325,609408e1ef7e7d611c5a06ac,64d2fd46c836a06233681665,64dc77e61c7c0de1694e5753,,,,,,,ctch,resources/DY.BMP,resources/DB.BMP,Door3,0.376302083,-0.063802083,1,0,0,0.8454,optionRight,70,14860,7,26,0,26,0,1,,,,,,,,,,,,,,,,,,,,,,,,,,,,,,,,,,,,,,,
,,,,,,,,2023-08-16_08h17.35.614,HF_wild_card,2022.2.4,Win32,60.25548325,609408e1ef7e7d611c5a06ac,64d2fd46c836a06233681665,64dc77e61c7c0de1694e5753,,,,,,,decisionTrl,resources/DP.BMP,resources/DY.BMP,Door2,0.34765625,-0.063802083,1,0,0,0.8582,optionRight,40,14900,7,27,0,27,0,1,,,,,,,,,,,,,,,,,,,,,,,,,,,,,,,,,,,,,,,
,,,,,,,,2023-08-16_08h17.35.614,HF_wild_card,2022.2.4,Win32,60.25548325,609408e1ef7e7d611c5a06ac,64d2fd46c836a06233681665,64dc77e61c7c0de1694e5753,,,,,,,decisionTrl,resources/DY.BMP,resources/DP.BMP,Door2,-0.365885417,-0.022135417,1,0,0,0.9009,optionLeft,20,14920,7,28,0,28,0,1,,,,,,,,,,,,,,,,,,,,,,,,,,,,,,,,,,,,,,,
,,,,,,,,2023-08-16_08h17.35.614,HF_wild_card,2022.2.4,Win32,60.25548325,609408e1ef7e7d611c5a06ac,64d2fd46c836a06233681665,64dc77e61c7c0de1694e5753,,,,,,,decisionTrl,resources/DY.BMP,resources/DP.BMP,Door1,0.337239583,-0.044270833,1,0,0,0.9309,optionRight,30,14950,7,29,0,29,0,1,,,,,,,,,,,,,,,,,,,,,,,,,,,,,,,,,,,,,,,
,,,,,,,,2023-08-16_08h17.35.614,HF_wild_card,2022.2.4,Win32,60.25548325,609408e1ef7e7d611c5a06ac,64d2fd46c836a06233681665,64dc77e61c7c0de1694e5753,,,,,,,ctch,resources/DP.BMP,resources/DR.BMP,Door4,0.38671875,-0.059895833,1,0,0,0.9747,optionRight,60,15010,7,30,0,30,0,1,,,,,,,,,,,,,,,,,,,,,,,,,,,,,,,,,,,,,,,
,,,,,,,,2023-08-16_08h17.35.614,HF_wild_card,2022.2.4,Win32,60.25548325,609408e1ef7e7d611c5a06ac,64d2fd46c836a06233681665,64dc77e61c7c0de1694e5753,,,,,,,decisionTrl,resources/DY.BMP,resources/DP.BMP,Door2,-0.368489583,-0.046875,1,0,0,1.1076,optionLeft,40,15050,7,31,0,31,0,1,,,,,,,,,,,,,,,,,,,,,,,,,,,,,,,,,,,,,,,
,,,,,,,,2023-08-16_08h17.35.614,HF_wild_card,2022.2.4,Win32,60.25548325,609408e1ef7e7d611c5a06ac,64d2fd46c836a06233681665,64dc77e61c7c0de1694e5753,,,,,,,ctch,resources/DB.BMP,resources/DY.BMP,Door2,0.356770833,-0.053385417,1,0,0,0.9468,optionRight,20,15070,7,32,0,32,0,1,,,,,,,,,,,,,,,,,,,,,,,,,,,,,,,,,,,,,,,
,,,,,,,,2023-08-16_08h17.35.614,HF_wild_card,2022.2.4,Win32,60.25548325,609408e1ef7e7d611c5a06ac,64d2fd46c836a06233681665,64dc77e61c7c0de1694e5753,,,,,,,decisionTrl,resources/DY.BMP,resources/DP.BMP,Door2,-0.35546875,-0.032552083,1,0,0,0.9784,optionLeft,20,15090,7,33,0,33,0,1,,,,,,,,,,,,,,,,,,,,,,,,,,,,,,,,,,,,,,,
,,,,,,,,2023-08-16_08h17.35.614,HF_wild_card,2022.2.4,Win32,60.25548325,609408e1ef7e7d611c5a06ac,64d2fd46c836a06233681665,64dc77e61c7c0de1694e5753,,,,,,,decisionTrl,resources/DP.BMP,resources/DY.BMP,Door2,0.356770833,-0.06640625,1,0,0,1.115,optionRight,40,15130,7,34,0,34,0,1,,,,,,,,,,,,,,,,,,,,,,,,,,,,,,,,,,,,,,,
,,,,,,,,2023-08-16_08h17.35.614,HF_wild_card,2022.2.4,Win32,60.25548325,609408e1ef7e7d611c5a06ac,64d2fd46c836a06233681665,64dc77e61c7c0de1694e5753,,,,,,,ctch,resources/DB.BMP,resources/DY.BMP,Door3,-0.350260417,-0.045572917,1,0,0,0.9246,optionLeft,70,15200,7,35,0,35,0,1,,,,,,,,,,,,,,,,,,,,,,,,,,,,,,,,,,,,,,,
,,,,,,,,2023-08-16_08h17.35.614,HF_wild_card,2022.2.4,Win32,60.25548325,609408e1ef7e7d611c5a06ac,64d2fd46c836a06233681665,64dc77e61c7c0de1694e5753,,,,,,,,,,,,,,,,,,,,,,,,,,6,0,6,0,1,,,,,,,,,,,,,,,,,,,,,,,,,,,,,,,,,,
,,,,,,,,2023-08-16_08h17.35.614,HF_wild_card,2022.2.4,Win32,60.25548325,609408e1ef7e7d611c5a06ac,64d2fd46c836a06233681665,64dc77e61c7c0de1694e5753,,,,,,,,,,,,,,,,,,,,,,,,,,,,,,,3,,,,,,,,,,,,,,,,,,,,,,,,,,,,,,,,,
,,,,,,,,2023-08-16_08h17.35.614,HF_wild_card,2022.2.4,Win32,60.25548325,609408e1ef7e7d611c5a06ac,64d2fd46c836a06233681665,64dc77e61c7c0de1694e5753,,,,,,,,,,,,,,,,,,,,,,,,,,,,,,,,,,,,,,,,,,,,,,,,,,,,,,,,,,,,,,,,
,,,,,,,,2023-08-16_08h17.35.614,HF_wild_card,2022.2.4,Win32,60.25548325,609408e1ef7e7d611c5a06ac,64d2fd46c836a06233681665,64dc77e61c7c0de1694e5753,,,,,,,,,,,,,,,,,,,,,,,,,,,,,,,,40,Door1,resources/DP.BMP,0,0,0,0,1,,,,,,,,,,,,,,,,,,,,,,,,,
,,,,,,,,2023-08-16_08h17.35.614,HF_wild_card,2022.2.4,Win32,60.25548325,609408e1ef7e7d611c5a06ac,64d2fd46c836a06233681665,64dc77e61c7c0de1694e5753,,,,,,,,,,,,,,,,,,,,,,,,,,,,,,,,70,Door2,resources/DY.BMP,1,0,1,0,1,,,,,,,,,,,,,,,,,,,,,,,,,
,,,,,,,,2023-08-16_08h17.35.614,HF_wild_card,2022.2.4,Win32,60.25548325,609408e1ef7e7d611c5a06ac,64d2fd46c836a06233681665,64dc77e61c7c0de1694e5753,,,,,,,,,,,,,,,,,,,,,,,,,,,,,,,,20,WC_nonExtreme,resources/DG.BMP,2,0,2,0,1,,,,,,,,,,,,,,,,,,,,,,,,,
,,,,,,,,2023-08-16_08h17.35.614,HF_wild_card,2022.2.4,Win32,60.25548325,609408e1ef7e7d611c5a06ac,64d2fd46c836a06233681665,64dc77e61c7c0de1694e5753,,,,,,,,,,,,,,,,,,,,,,,,,,,,,,,,40,WC_extreme,resources/DBN.BMP,3,0,3,0,1,,,,,,,,,,,,,,,,,,,,,,,,,
,,,,,,,,2023-08-16_08h17.35.614,HF_wild_card,2022.2.4,Win32,60.25548325,609408e1ef7e7d611c5a06ac,64d2fd46c836a06233681665,64dc77e61c7c0de1694e5753,,,,,,,,,,,,,,,,,,,,,,,,,,,,,,,,60,Door3,resources/DB.BMP,4,0,4,0,1,,,,,,,,,,,,,,,,,,,,,,,,,
,,,,,,,,2023-08-16_08h17.35.614,HF_wild_card,2022.2.4,Win32,60.25548325,609408e1ef7e7d611c5a06ac,64d2fd46c836a06233681665,64dc77e61c7c0de1694e5753,,,,,,,,,,,,,,,,,,,,,,,,,,,,,,,,90,Door4,resources/DR.BMP,5,0,5,0,1,,,,,,,,,,,,,,,,,,,,,,,,,
,,,,,,,,2023-08-16_08h17.35.614,HF_wild_card,2022.2.4,Win32,60.25548325,609408e1ef7e7d611c5a06ac,64d2fd46c836a06233681665,64dc77e61c7c0de1694e5753,,,,,,,,,,,,,,,,,,,,,,,,,,,,,,,,,,,,,,,,,,,,,,,,,,,,,,,,,,,,,,,,
,,,,,,,,2023-08-16_08h17.35.614,HF_wild_card,2022.2.4,Win32,60.25548325,609408e1ef7e7d611c5a06ac,64d2fd46c836a06233681665,64dc77e61c7c0de1694e5753,,,,,,,,,,,,,,,,,,,,,,,,,,,,,,,,,,,,,,,,0,0,0,0,1,,,,,,,,,,,,,,,,,,,,
