Condition,Low fixed image (Door1),Low risky image (Door2),High fixed image (Door3),High risky image (Door4),Extreme Wild Card,NonExtreme Wild Card,,date,expName,psychopyVersion,OS,frameRate,PROLIFIC_PID,STUDY_ID,SESSION_ID,mouse_2.x,mouse_2.y,mouse_2.leftButton,mouse_2.midButton,mouse_2.rightButton,mouse_2.clicked_name,Trial Type,Left Option Image,Right Option Image,Chosen Door,mouse.x,mouse.y,mouse.leftButton,mouse.midButton,mouse.rightButton,mouse.time,mouse.clicked_name,Feedback,Cumulative Reward,Block,trial.thisRepN,trial.thisTrialN,trial.thisN,trial.thisIndex,trial.ran,blocks.thisRepN,blocks.thisTrialN,blocks.thisN,blocks.thisIndex,blocks.ran,Money conversion,First Outcome Reported,Shown Door (First Outcome),Displayed Image (First Outcome),outcomes.thisRepN,outcomes.thisTrialN,outcomes.thisN,outcomes.thisIndex,outcomes.ran,judgments.thisRepN,judgments.thisTrialN,judgments.thisN,judgments.thisIndex,judgments.ran,freqMouse.x,freqMouse.y,freqMouse.leftButton,freqMouse.midButton,freqMouse.rightButton,freqMouse.clicked_name,FQJ for first outcome,FQJ for second outcome,Shown Door,Displayed Image,trials.thisRepN,trials.thisTrialN,trials.thisN,trials.thisIndex,trials.ran,judgBlock.thisRepN,judgBlock.thisTrialN,judgBlock.thisN,judgBlock.thisIndex,judgBlock.ran
1,resources/DY.BMP,resources/DB.BMP,resources/DP.BMP,resources/DG.BMP,resources/DBN.BMP,resources/DR.BMP,,2023-08-16_08h44.55.072,HF_wild_card,2022.2.4,Win32,59.10165485,5eb9499bcbc2140180e31037,64d2fd46c836a06233681665,64dc7e6befbc35fa1e2eb123,,,,,,,,,,,,,,,,,,,,,,,,,,,,,,,,,,,,,,,,,,,,,,,,,,,,,,,,,,,,,,,,
,,,,,,,,2023-08-16_08h44.55.072,HF_wild_card,2022.2.4,Win32,59.10165485,5eb9499bcbc2140180e31037,64d2fd46c836a06233681665,64dc7e6befbc35fa1e2eb123,0.018518575,-0.422222222,1,0,0,agree,,,,,,,,,,,,,,,,,,,,,,,,,,,,,,,,,,,,,,,,,,,,,,,,,,,,,,,,,,
,,,,,,,,2023-08-16_08h44.55.072,HF_wild_card,2022.2.4,Win32,59.10165485,5eb9499bcbc2140180e31037,64d2fd46c836a06233681665,64dc7e6befbc35fa1e2eb123,,,,,,,,,,,,,,,,,,,,,,,,,,,,,,,,,,,,,,,,,,,,,,,,,,,,,,,,,,,,,,,,
,,,,,,,,2023-08-16_08h44.55.072,HF_wild_card,2022.2.4,Win32,59.10165485,5eb9499bcbc2140180e31037,64d2fd46c836a06233681665,64dc7e6befbc35fa1e2eb123,,,,,,,decisionTrl,resources/DG.BMP,resources/DP.BMP,Door3,0.400925954,0.002777778,1,0,0,2.2729,optionRight,70,70,1,0,0,0,0,1,,,,,,,,,,,,,,,,,,,,,,,,,,,,,,,,,,,,,,,
,,,,,,,,2023-08-16_08h44.55.072,HF_wild_card,2022.2.4,Win32,59.10165485,5eb9499bcbc2140180e31037,64d2fd46c836a06233681665,64dc7e6befbc35fa1e2eb123,,,,,,,decisionTrl,resources/DB.BMP,resources/DY.BMP,Door2,-0.436111111,0.011111111,1,0,0,1.3843,optionLeft,40,110,1,1,0,1,0,1,,,,,,,,,,,,,,,,,,,,,,,,,,,,,,,,,,,,,,,
,,,,,,,,2023-08-16_08h44.55.072,HF_wild_card,2022.2.4,Win32,59.10165485,5eb9499bcbc2140180e31037,64d2fd46c836a06233681665,64dc7e6befbc35fa1e2eb123,,,,,,,decisionTrl,resources/DR.BMP,resources/DG.BMP,Door4,0.471296353,-0.013888889,1,0,0,1.1987,optionRight,80,190,1,2,0,2,0,1,,,,,,,,,,,,,,,,,,,,,,,,,,,,,,,,,,,,,,,
,,,,,,,,2023-08-16_08h44.55.072,HF_wild_card,2022.2.4,Win32,59.10165485,5eb9499bcbc2140180e31037,64d2fd46c836a06233681665,64dc7e6befbc35fa1e2eb123,,,,,,,sngl,resources/DG.BMP,resources/Empty.png,Door4,-0.377777778,0.064814801,1,0,0,0.8661,optionLeft,80,270,1,3,0,3,0,1,,,,,,,,,,,,,,,,,,,,,,,,,,,,,,,,,,,,,,,
,,,,,,,,2023-08-16_08h44.55.072,HF_wild_card,2022.2.4,Win32,59.10165485,5eb9499bcbc2140180e31037,64d2fd46c836a06233681665,64dc7e6befbc35fa1e2eb123,,,,,,,decisionTrl,resources/DG.BMP,resources/DP.BMP,Door4,-0.382407379,0.038888889,1,0,0,1.6317,optionLeft,80,350,1,4,0,4,0,1,,,,,,,,,,,,,,,,,,,,,,,,,,,,,,,,,,,,,,,
,,,,,,,,2023-08-16_08h44.55.072,HF_wild_card,2022.2.4,Win32,59.10165485,5eb9499bcbc2140180e31037,64d2fd46c836a06233681665,64dc7e6befbc35fa1e2eb123,,,,,,,decisionTrl,resources/DP.BMP,resources/DG.BMP,Door3,-0.45,0.021296268,1,0,0,1.2318,optionLeft,70,420,1,5,0,5,0,1,,,,,,,,,,,,,,,,,,,,,,,,,,,,,,,,,,,,,,,
,,,,,,,,2023-08-16_08h44.55.072,HF_wild_card,2022.2.4,Win32,59.10165485,5eb9499bcbc2140180e31037,64d2fd46c836a06233681665,64dc7e6befbc35fa1e2eb123,,,,,,,decisionTrl,resources/DP.BMP,resources/DG.BMP,Door4,0.466666667,0.012962935,1,0,0,0.6996,optionRight,80,500,1,6,0,6,0,1,,,,,,,,,,,,,,,,,,,,,,,,,,,,,,,,,,,,,,,
,,,,,,,,2023-08-16_08h44.55.072,HF_wild_card,2022.2.4,Win32,59.10165485,5eb9499bcbc2140180e31037,64d2fd46c836a06233681665,64dc7e6befbc35fa1e2eb123,,,,,,,sngl,resources/Empty.png,resources/DB.BMP,Door2,0.378703732,-0.009259288,1,0,0,1.9647,optionRight,20,520,1,7,0,7,0,1,,,,,,,,,,,,,,,,,,,,,,,,,,,,,,,,,,,,,,,
,,,,,,,,2023-08-16_08h44.55.072,HF_wild_card,2022.2.4,Win32,59.10165485,5eb9499bcbc2140180e31037,64d2fd46c836a06233681665,64dc7e6befbc35fa1e2eb123,,,,,,,ctch,resources/DY.BMP,resources/DG.BMP,Door4,0.384259288,-0.018518533,1,0,0,0.9985,optionRight,60,580,1,8,0,8,0,1,,,,,,,,,,,,,,,,,,,,,,,,,,,,,,,,,,,,,,,
,,,,,,,,2023-08-16_08h44.55.072,HF_wild_card,2022.2.4,Win32,59.10165485,5eb9499bcbc2140180e31037,64d2fd46c836a06233681665,64dc7e6befbc35fa1e2eb123,,,,,,,decisionTrl,resources/DR.BMP,resources/DY.BMP,Door1,0.313888889,0.051851824,1,0,0,1.1472,optionRight,30,610,1,9,0,9,0,1,,,,,,,,,,,,,,,,,,,,,,,,,,,,,,,,,,,,,,,
,,,,,,,,2023-08-16_08h44.55.072,HF_wild_card,2022.2.4,Win32,59.10165485,5eb9499bcbc2140180e31037,64d2fd46c836a06233681665,64dc7e6befbc35fa1e2eb123,,,,,,,decisionTrl,resources/DB.BMP,resources/DY.BMP,Door2,-0.540740734,0.044444444,1,0,0,1.0482,optionLeft,20,630,1,10,0,10,0,1,,,,,,,,,,,,,,,,,,,,,,,,,,,,,,,,,,,,,,,
,,,,,,,,2023-08-16_08h44.55.072,HF_wild_card,2022.2.4,Win32,59.10165485,5eb9499bcbc2140180e31037,64d2fd46c836a06233681665,64dc7e6befbc35fa1e2eb123,,,,,,,decisionTrl,resources/DB.BMP,resources/DY.BMP,Door1,0.503703732,0.051851824,1,0,0,0.6319,optionRight,30,660,1,11,0,11,0,1,,,,,,,,,,,,,,,,,,,,,,,,,,,,,,,,,,,,,,,
,,,,,,,,2023-08-16_08h44.55.072,HF_wild_card,2022.2.4,Win32,59.10165485,5eb9499bcbc2140180e31037,64d2fd46c836a06233681665,64dc7e6befbc35fa1e2eb123,,,,,,,sngl,resources/Empty.png,resources/DR.BMP,WildCard_NonEx,-0.567592578,0.029629601,1,0,0,1.4155,optionRight,55,715,1,12,0,12,0,1,,,,,,,,,,,,,,,,,,,,,,,,,,,,,,,,,,,,,,,
,,,,,,,,2023-08-16_08h44.55.072,HF_wild_card,2022.2.4,Win32,59.10165485,5eb9499bcbc2140180e31037,64d2fd46c836a06233681665,64dc7e6befbc35fa1e2eb123,,,,,,,decisionTrl,resources/DG.BMP,resources/DP.BMP,Door4,-0.391666667,0.059259245,1,0,0,1.464,optionLeft,80,795,1,13,0,13,0,1,,,,,,,,,,,,,,,,,,,,,,,,,,,,,,,,,,,,,,,
,,,,,,,,2023-08-16_08h44.55.072,HF_wild_card,2022.2.4,Win32,59.10165485,5eb9499bcbc2140180e31037,64d2fd46c836a06233681665,64dc7e6befbc35fa1e2eb123,,,,,,,ctch,resources/DB.BMP,resources/DP.BMP,Door3,0.40648151,0.011111111,1,0,0,1.4493,optionRight,70,865,1,14,0,14,0,1,,,,,,,,,,,,,,,,,,,,,,,,,,,,,,,,,,,,,,,
,,,,,,,,2023-08-16_08h44.55.072,HF_wild_card,2022.2.4,Win32,59.10165485,5eb9499bcbc2140180e31037,64d2fd46c836a06233681665,64dc7e6befbc35fa1e2eb123,,,,,,,ctch,resources/DG.BMP,resources/DY.BMP,Door4,-0.319444444,0.035185157,1,0,0,0.9661,optionLeft,60,925,1,15,0,15,0,1,,,,,,,,,,,,,,,,,,,,,,,,,,,,,,,,,,,,,,,
,,,,,,,,2023-08-16_08h44.55.072,HF_wild_card,2022.2.4,Win32,59.10165485,5eb9499bcbc2140180e31037,64d2fd46c836a06233681665,64dc7e6befbc35fa1e2eb123,,,,,,,decisionTrl,resources/DY.BMP,resources/DB.BMP,Door2,0.405555556,0.027777778,1,0,0,1.3817,optionRight,40,965,1,16,0,16,0,1,,,,,,,,,,,,,,,,,,,,,,,,,,,,,,,,,,,,,,,
,,,,,,,,2023-08-16_08h44.55.072,HF_wild_card,2022.2.4,Win32,59.10165485,5eb9499bcbc2140180e31037,64d2fd46c836a06233681665,64dc7e6befbc35fa1e2eb123,,,,,,,sngl,resources/Empty.png,resources/DY.BMP,Door1,0.423148176,0.006481467,1,0,0,1.1142,optionRight,30,995,1,17,0,17,0,1,,,,,,,,,,,,,,,,,,,,,,,,,,,,,,,,,,,,,,,
,,,,,,,,2023-08-16_08h44.55.072,HF_wild_card,2022.2.4,Win32,59.10165485,5eb9499bcbc2140180e31037,64d2fd46c836a06233681665,64dc7e6befbc35fa1e2eb123,,,,,,,decisionTrl,resources/DB.BMP,resources/DY.BMP,Door2,-0.346296268,0.047222222,1,0,0,0.9158,optionLeft,20,1015,1,18,0,18,0,1,,,,,,,,,,,,,,,,,,,,,,,,,,,,,,,,,,,,,,,
,,,,,,,,2023-08-16_08h44.55.072,HF_wild_card,2022.2.4,Win32,59.10165485,5eb9499bcbc2140180e31037,64d2fd46c836a06233681665,64dc7e6befbc35fa1e2eb123,,,,,,,sngl,resources/DR.BMP,resources/Empty.png,WildCard_NonEx,-0.483333333,0.056481467,1,0,0,1.1984,optionLeft,45,1060,1,19,0,19,0,1,,,,,,,,,,,,,,,,,,,,,,,,,,,,,,,,,,,,,,,
,,,,,,,,2023-08-16_08h44.55.072,HF_wild_card,2022.2.4,Win32,59.10165485,5eb9499bcbc2140180e31037,64d2fd46c836a06233681665,64dc7e6befbc35fa1e2eb123,,,,,,,sngl,resources/Empty.png,resources/DP.BMP,Door3,0.350925954,0.048148134,1,0,0,0.9998,optionRight,70,1130,1,20,0,20,0,1,,,,,,,,,,,,,,,,,,,,,,,,,,,,,,,,,,,,,,,
,,,,,,,,2023-08-16_08h44.55.072,HF_wild_card,2022.2.4,Win32,59.10165485,5eb9499bcbc2140180e31037,64d2fd46c836a06233681665,64dc7e6befbc35fa1e2eb123,,,,,,,sngl,resources/Empty.png,resources/DG.BMP,Door4,0.245370399,0.061111111,1,0,0,2.4307,optionRight,60,1190,1,21,0,21,0,1,,,,,,,,,,,,,,,,,,,,,,,,,,,,,,,,,,,,,,,
,,,,,,,,2023-08-16_08h44.55.072,HF_wild_card,2022.2.4,Win32,59.10165485,5eb9499bcbc2140180e31037,64d2fd46c836a06233681665,64dc7e6befbc35fa1e2eb123,,,,,,,sngl,resources/DP.BMP,resources/Empty.png,Door3,-0.554629623,0.054629601,1,0,0,0.732,optionLeft,70,1260,1,22,0,22,0,1,,,,,,,,,,,,,,,,,,,,,,,,,,,,,,,,,,,,,,,
,,,,,,,,2023-08-16_08h44.55.072,HF_wild_card,2022.2.4,Win32,59.10165485,5eb9499bcbc2140180e31037,64d2fd46c836a06233681665,64dc7e6befbc35fa1e2eb123,,,,,,,decisionTrl,resources/DR.BMP,resources/DP.BMP,Door3,0.416666667,0.070370356,1,0,0,0.9147,optionRight,70,1330,1,23,0,23,0,1,,,,,,,,,,,,,,,,,,,,,,,,,,,,,,,,,,,,,,,
,,,,,,,,2023-08-16_08h44.55.072,HF_wild_card,2022.2.4,Win32,59.10165485,5eb9499bcbc2140180e31037,64d2fd46c836a06233681665,64dc7e6befbc35fa1e2eb123,,,,,,,ctch,resources/DP.BMP,resources/DB.BMP,Door3,-0.366666667,0.058333333,1,0,0,1.1992,optionLeft,70,1400,1,24,0,24,0,1,,,,,,,,,,,,,,,,,,,,,,,,,,,,,,,,,,,,,,,
,,,,,,,,2023-08-16_08h44.55.072,HF_wild_card,2022.2.4,Win32,59.10165485,5eb9499bcbc2140180e31037,64d2fd46c836a06233681665,64dc7e6befbc35fa1e2eb123,,,,,,,ctch,resources/DP.BMP,resources/DB.BMP,Door3,-0.485185157,0.133333333,1,0,0,0.8991,optionLeft,70,1470,1,25,0,25,0,1,,,,,,,,,,,,,,,,,,,,,,,,,,,,,,,,,,,,,,,
,,,,,,,,2023-08-16_08h44.55.072,HF_wild_card,2022.2.4,Win32,59.10165485,5eb9499bcbc2140180e31037,64d2fd46c836a06233681665,64dc7e6befbc35fa1e2eb123,,,,,,,ctch,resources/DG.BMP,resources/DY.BMP,Door4,-0.314814801,0.072222222,1,0,0,0.9993,optionLeft,60,1530,1,26,0,26,0,1,,,,,,,,,,,,,,,,,,,,,,,,,,,,,,,,,,,,,,,
,,,,,,,,2023-08-16_08h44.55.072,HF_wild_card,2022.2.4,Win32,59.10165485,5eb9499bcbc2140180e31037,64d2fd46c836a06233681665,64dc7e6befbc35fa1e2eb123,,,,,,,decisionTrl,resources/DY.BMP,resources/DR.BMP,Door1,-0.405555556,0.099074046,1,0,0,1.648,optionLeft,30,1560,1,27,0,27,0,1,,,,,,,,,,,,,,,,,,,,,,,,,,,,,,,,,,,,,,,
,,,,,,,,2023-08-16_08h44.55.072,HF_wild_card,2022.2.4,Win32,59.10165485,5eb9499bcbc2140180e31037,64d2fd46c836a06233681665,64dc7e6befbc35fa1e2eb123,,,,,,,decisionTrl,resources/DY.BMP,resources/DB.BMP,Door2,0.340740797,-0.00648151,1,0,0,1.265,optionRight,40,1600,1,28,0,28,0,1,,,,,,,,,,,,,,,,,,,,,,,,,,,,,,,,,,,,,,,
,,,,,,,,2023-08-16_08h44.55.072,HF_wild_card,2022.2.4,Win32,59.10165485,5eb9499bcbc2140180e31037,64d2fd46c836a06233681665,64dc7e6befbc35fa1e2eb123,,,,,,,decisionTrl,resources/DP.BMP,resources/DG.BMP,Door4,0.300925954,-0.00648151,1,0,0,1.5487,optionRight,80,1680,1,29,0,29,0,1,,,,,,,,,,,,,,,,,,,,,,,,,,,,,,,,,,,,,,,
,,,,,,,,2023-08-16_08h44.55.072,HF_wild_card,2022.2.4,Win32,59.10165485,5eb9499bcbc2140180e31037,64d2fd46c836a06233681665,64dc7e6befbc35fa1e2eb123,,,,,,,ctch,resources/DY.BMP,resources/DG.BMP,Door4,0.376851908,0.07870369,1,0,0,0.732,optionRight,60,1740,1,30,0,30,0,1,,,,,,,,,,,,,,,,,,,,,,,,,,,,,,,,,,,,,,,
,,,,,,,,2023-08-16_08h44.55.072,HF_wild_card,2022.2.4,Win32,59.10165485,5eb9499bcbc2140180e31037,64d2fd46c836a06233681665,64dc7e6befbc35fa1e2eb123,,,,,,,decisionTrl,resources/DR.BMP,resources/DB.BMP,WildCard_NonEx,-0.556481467,0.1,1,0,0,1.0489,optionLeft,45,1785,1,31,0,31,0,1,,,,,,,,,,,,,,,,,,,,,,,,,,,,,,,,,,,,,,,
,,,,,,,,2023-08-16_08h44.55.072,HF_wild_card,2022.2.4,Win32,59.10165485,5eb9499bcbc2140180e31037,64d2fd46c836a06233681665,64dc7e6befbc35fa1e2eb123,,,,,,,decisionTrl,resources/DB.BMP,resources/DR.BMP,WildCard_NonEx,0.441666667,0.023148134,1,0,0,0.9663,optionRight,55,1840,1,32,0,32,0,1,,,,,,,,,,,,,,,,,,,,,,,,,,,,,,,,,,,,,,,
,,,,,,,,2023-08-16_08h44.55.072,HF_wild_card,2022.2.4,Win32,59.10165485,5eb9499bcbc2140180e31037,64d2fd46c836a06233681665,64dc7e6befbc35fa1e2eb123,,,,,,,decisionTrl,resources/DY.BMP,resources/DB.BMP,Door1,-0.385185157,0.044444444,1,0,0,0.9154,optionLeft,30,1870,1,33,0,33,0,1,,,,,,,,,,,,,,,,,,,,,,,,,,,,,,,,,,,,,,,
,,,,,,,,2023-08-16_08h44.55.072,HF_wild_card,2022.2.4,Win32,59.10165485,5eb9499bcbc2140180e31037,64d2fd46c836a06233681665,64dc7e6befbc35fa1e2eb123,,,,,,,decisionTrl,resources/DP.BMP,resources/DR.BMP,Door3,-0.473148134,0.092592578,1,0,0,0.7488,optionLeft,70,1940,1,34,0,34,0,1,,,,,,,,,,,,,,,,,,,,,,,,,,,,,,,,,,,,,,,
,,,,,,,,2023-08-16_08h44.55.072,HF_wild_card,2022.2.4,Win32,59.10165485,5eb9499bcbc2140180e31037,64d2fd46c836a06233681665,64dc7e6befbc35fa1e2eb123,,,,,,,decisionTrl,resources/DG.BMP,resources/DR.BMP,Door4,-0.351851824,0.133333333,1,0,0,1.0322,optionLeft,80,2020,1,35,0,35,0,1,,,,,,,,,,,,,,,,,,,,,,,,,,,,,,,,,,,,,,,
,,,,,,,,2023-08-16_08h44.55.072,HF_wild_card,2022.2.4,Win32,59.10165485,5eb9499bcbc2140180e31037,64d2fd46c836a06233681665,64dc7e6befbc35fa1e2eb123,,,,,,,sngl,resources/DY.BMP,resources/Empty.png,Door1,-0.4,0.148148134,1,0,0,1.516,optionLeft,30,2050,1,36,0,36,0,1,,,,,,,,,,,,,,,,,,,,,,,,,,,,,,,,,,,,,,,
,,,,,,,,2023-08-16_08h44.55.072,HF_wild_card,2022.2.4,Win32,59.10165485,5eb9499bcbc2140180e31037,64d2fd46c836a06233681665,64dc7e6befbc35fa1e2eb123,,,,,,,decisionTrl,resources/DG.BMP,resources/DP.BMP,Door4,-0.441666667,0.14351849,1,0,0,1.5314,optionLeft,60,2110,1,37,0,37,0,1,,,,,,,,,,,,,,,,,,,,,,,,,,,,,,,,,,,,,,,
,,,,,,,,2023-08-16_08h44.55.072,HF_wild_card,2022.2.4,Win32,59.10165485,5eb9499bcbc2140180e31037,64d2fd46c836a06233681665,64dc7e6befbc35fa1e2eb123,,,,,,,ctch,resources/DB.BMP,resources/DP.BMP,Door3,0.374074131,0.070370356,1,0,0,0.7154,optionRight,70,2180,1,38,0,38,0,1,,,,,,,,,,,,,,,,,,,,,,,,,,,,,,,,,,,,,,,
,,,,,,,,2023-08-16_08h44.55.072,HF_wild_card,2022.2.4,Win32,59.10165485,5eb9499bcbc2140180e31037,64d2fd46c836a06233681665,64dc7e6befbc35fa1e2eb123,,,,,,,sngl,resources/Empty.png,resources/DR.BMP,WildCard_NonEx,0.387037065,0.04351849,1,0,0,1.416,optionRight,45,2225,1,39,0,39,0,1,,,,,,,,,,,,,,,,,,,,,,,,,,,,,,,,,,,,,,,
,,,,,,,,2023-08-16_08h44.55.072,HF_wild_card,2022.2.4,Win32,59.10165485,5eb9499bcbc2140180e31037,64d2fd46c836a06233681665,64dc7e6befbc35fa1e2eb123,,,,,,,decisionTrl,resources/DY.BMP,resources/DB.BMP,Door1,-0.485185157,0.046296268,1,0,0,1.1433,optionLeft,30,2255,1,40,0,40,0,1,,,,,,,,,,,,,,,,,,,,,,,,,,,,,,,,,,,,,,,
,,,,,,,,2023-08-16_08h44.55.072,HF_wild_card,2022.2.4,Win32,59.10165485,5eb9499bcbc2140180e31037,64d2fd46c836a06233681665,64dc7e6befbc35fa1e2eb123,,,,,,,decisionTrl,resources/DP.BMP,resources/DG.BMP,Door3,-0.531481467,0.204629623,1,0,0,0.782,optionLeft,70,2325,1,41,0,41,0,1,,,,,,,,,,,,,,,,,,,,,,,,,,,,,,,,,,,,,,,
,,,,,,,,2023-08-16_08h44.55.072,HF_wild_card,2022.2.4,Win32,59.10165485,5eb9499bcbc2140180e31037,64d2fd46c836a06233681665,64dc7e6befbc35fa1e2eb123,,,,,,,sngl,resources/DB.BMP,resources/Empty.png,Door2,-0.317592578,0.111111111,1,0,0,0.8491,optionLeft,40,2365,1,42,0,42,0,1,,,,,,,,,,,,,,,,,,,,,,,,,,,,,,,,,,,,,,,
,,,,,,,,2023-08-16_08h44.55.072,HF_wild_card,2022.2.4,Win32,59.10165485,5eb9499bcbc2140180e31037,64d2fd46c836a06233681665,64dc7e6befbc35fa1e2eb123,,,,,,,sngl,resources/DR.BMP,resources/Empty.png,WildCard_NonEx,-0.364814801,0.10370369,1,0,0,0.5985,optionLeft,55,2420,1,43,0,43,0,1,,,,,,,,,,,,,,,,,,,,,,,,,,,,,,,,,,,,,,,
,,,,,,,,2023-08-16_08h44.55.072,HF_wild_card,2022.2.4,Win32,59.10165485,5eb9499bcbc2140180e31037,64d2fd46c836a06233681665,64dc7e6befbc35fa1e2eb123,,,,,,,,,,,,,,,,,,,,,,,,,,0,0,0,0,1,,,,,,,,,,,,,,,,,,,,,,,,,,,,,,,,,,
,,,,,,,,2023-08-16_08h44.55.072,HF_wild_card,2022.2.4,Win32,59.10165485,5eb9499bcbc2140180e31037,64d2fd46c836a06233681665,64dc7e6befbc35fa1e2eb123,,,,,,,decisionTrl,resources/DG.BMP,resources/DP.BMP,Door3,0.405555556,0.009259245,1,0,0,1.0409,optionRight,70,2490,2,0,0,0,0,1,,,,,,,,,,,,,,,,,,,,,,,,,,,,,,,,,,,,,,,
,,,,,,,,2023-08-16_08h44.55.072,HF_wild_card,2022.2.4,Win32,59.10165485,5eb9499bcbc2140180e31037,64d2fd46c836a06233681665,64dc7e6befbc35fa1e2eb123,,,,,,,sngl,resources/DR.BMP,resources/Empty.png,WildCard_NonEx,-0.502777778,0.15,1,0,0,0.8316,optionLeft,45,2535,2,1,0,1,0,1,,,,,,,,,,,,,,,,,,,,,,,,,,,,,,,,,,,,,,,
,,,,,,,,2023-08-16_08h44.55.072,HF_wild_card,2022.2.4,Win32,59.10165485,5eb9499bcbc2140180e31037,64d2fd46c836a06233681665,64dc7e6befbc35fa1e2eb123,,,,,,,decisionTrl,resources/DY.BMP,resources/DB.BMP,Door2,0.420370399,0.095370356,1,0,0,1.417,optionRight,40,2575,2,2,0,2,0,1,,,,,,,,,,,,,,,,,,,,,,,,,,,,,,,,,,,,,,,
,,,,,,,,2023-08-16_08h44.55.072,HF_wild_card,2022.2.4,Win32,59.10165485,5eb9499bcbc2140180e31037,64d2fd46c836a06233681665,64dc7e6befbc35fa1e2eb123,,,,,,,ctch,resources/DY.BMP,resources/DG.BMP,Door4,0.383333333,0.021296268,1,0,0,0.9296,optionRight,60,2635,2,3,0,3,0,1,,,,,,,,,,,,,,,,,,,,,,,,,,,,,,,,,,,,,,,
,,,,,,,,2023-08-16_08h44.55.072,HF_wild_card,2022.2.4,Win32,59.10165485,5eb9499bcbc2140180e31037,64d2fd46c836a06233681665,64dc7e6befbc35fa1e2eb123,,,,,,,decisionTrl,resources/DR.BMP,resources/DG.BMP,Door4,0.379629686,0.109259245,1,0,0,1.131,optionRight,80,2715,2,4,0,4,0,1,,,,,,,,,,,,,,,,,,,,,,,,,,,,,,,,,,,,,,,
,,,,,,,,2023-08-16_08h44.55.072,HF_wild_card,2022.2.4,Win32,59.10165485,5eb9499bcbc2140180e31037,64d2fd46c836a06233681665,64dc7e6befbc35fa1e2eb123,,,,,,,decisionTrl,resources/DB.BMP,resources/DY.BMP,Door1,0.404629686,0.112037023,1,0,0,2.1338,optionRight,30,2745,2,5,0,5,0,1,,,,,,,,,,,,,,,,,,,,,,,,,,,,,,,,,,,,,,,
,,,,,,,,2023-08-16_08h44.55.072,HF_wild_card,2022.2.4,Win32,59.10165485,5eb9499bcbc2140180e31037,64d2fd46c836a06233681665,64dc7e6befbc35fa1e2eb123,,,,,,,decisionTrl,resources/DP.BMP,resources/DG.BMP,Door3,-0.350925912,0.212037023,1,0,0,1.1145,optionLeft,70,2815,2,6,0,6,0,1,,,,,,,,,,,,,,,,,,,,,,,,,,,,,,,,,,,,,,,
,,,,,,,,2023-08-16_08h44.55.072,HF_wild_card,2022.2.4,Win32,59.10165485,5eb9499bcbc2140180e31037,64d2fd46c836a06233681665,64dc7e6befbc35fa1e2eb123,,,,,,,decisionTrl,resources/DG.BMP,resources/DP.BMP,Door4,-0.377777778,0.184259245,1,0,0,0.8685,optionLeft,60,2875,2,7,0,7,0,1,,,,,,,,,,,,,,,,,,,,,,,,,,,,,,,,,,,,,,,
,,,,,,,,2023-08-16_08h44.55.072,HF_wild_card,2022.2.4,Win32,59.10165485,5eb9499bcbc2140180e31037,64d2fd46c836a06233681665,64dc7e6befbc35fa1e2eb123,,,,,,,decisionTrl,resources/DP.BMP,resources/DR.BMP,Door3,-0.488888889,0.230555556,1,0,0,0.6835,optionLeft,70,2945,2,8,0,8,0,1,,,,,,,,,,,,,,,,,,,,,,,,,,,,,,,,,,,,,,,
,,,,,,,,2023-08-16_08h44.55.072,HF_wild_card,2022.2.4,Win32,59.10165485,5eb9499bcbc2140180e31037,64d2fd46c836a06233681665,64dc7e6befbc35fa1e2eb123,,,,,,,decisionTrl,resources/DG.BMP,resources/DP.BMP,Door3,0.375,0.075,1,0,0,1.2653,optionRight,70,3015,2,9,0,9,0,1,,,,,,,,,,,,,,,,,,,,,,,,,,,,,,,,,,,,,,,
,,,,,,,,2023-08-16_08h44.55.072,HF_wild_card,2022.2.4,Win32,59.10165485,5eb9499bcbc2140180e31037,64d2fd46c836a06233681665,64dc7e6befbc35fa1e2eb123,,,,,,,decisionTrl,resources/DR.BMP,resources/DY.BMP,WildCard_NonEx,-0.287037023,0.056481467,1,0,0,0.9991,optionLeft,55,3070,2,10,0,10,0,1,,,,,,,,,,,,,,,,,,,,,,,,,,,,,,,,,,,,,,,
,,,,,,,,2023-08-16_08h44.55.072,HF_wild_card,2022.2.4,Win32,59.10165485,5eb9499bcbc2140180e31037,64d2fd46c836a06233681665,64dc7e6befbc35fa1e2eb123,,,,,,,decisionTrl,resources/DG.BMP,resources/DP.BMP,Door3,0.38148151,0.125,1,0,0,0.696,optionRight,70,3140,2,11,0,11,0,1,,,,,,,,,,,,,,,,,,,,,,,,,,,,,,,,,,,,,,,
,,,,,,,,2023-08-16_08h44.55.072,HF_wild_card,2022.2.4,Win32,59.10165485,5eb9499bcbc2140180e31037,64d2fd46c836a06233681665,64dc7e6befbc35fa1e2eb123,,,,,,,sngl,resources/DR.BMP,resources/Empty.png,WildCard_NonEx,-0.32870369,0.115740712,1,0,0,0.7981,optionLeft,55,3195,2,12,0,12,0,1,,,,,,,,,,,,,,,,,,,,,,,,,,,,,,,,,,,,,,,
,,,,,,,,2023-08-16_08h44.55.072,HF_wild_card,2022.2.4,Win32,59.10165485,5eb9499bcbc2140180e31037,64d2fd46c836a06233681665,64dc7e6befbc35fa1e2eb123,,,,,,,decisionTrl,resources/DG.BMP,resources/DR.BMP,Door4,-0.505555556,0.186111111,1,0,0,0.7993,optionLeft,60,3255,2,13,0,13,0,1,,,,,,,,,,,,,,,,,,,,,,,,,,,,,,,,,,,,,,,
,,,,,,,,2023-08-16_08h44.55.072,HF_wild_card,2022.2.4,Win32,59.10165485,5eb9499bcbc2140180e31037,64d2fd46c836a06233681665,64dc7e6befbc35fa1e2eb123,,,,,,,ctch,resources/DP.BMP,resources/DB.BMP,Door3,-0.34351849,0.251851845,1,0,0,0.8844,optionLeft,70,3325,2,14,0,14,0,1,,,,,,,,,,,,,,,,,,,,,,,,,,,,,,,,,,,,,,,
,,,,,,,,2023-08-16_08h44.55.072,HF_wild_card,2022.2.4,Win32,59.10165485,5eb9499bcbc2140180e31037,64d2fd46c836a06233681665,64dc7e6befbc35fa1e2eb123,,,,,,,ctch,resources/DG.BMP,resources/DY.BMP,Door4,-0.280555556,0.2074074,1,0,0,1.1155,optionLeft,80,3405,2,15,0,15,0,1,,,,,,,,,,,,,,,,,,,,,,,,,,,,,,,,,,,,,,,
,,,,,,,,2023-08-16_08h44.55.072,HF_wild_card,2022.2.4,Win32,59.10165485,5eb9499bcbc2140180e31037,64d2fd46c836a06233681665,64dc7e6befbc35fa1e2eb123,,,,,,,ctch,resources/DP.BMP,resources/DB.BMP,Door3,-0.325925912,0.187037023,1,0,0,0.9476,optionLeft,70,3475,2,16,0,16,0,1,,,,,,,,,,,,,,,,,,,,,,,,,,,,,,,,,,,,,,,
,,,,,,,,2023-08-16_08h44.55.072,HF_wild_card,2022.2.4,Win32,59.10165485,5eb9499bcbc2140180e31037,64d2fd46c836a06233681665,64dc7e6befbc35fa1e2eb123,,,,,,,decisionTrl,resources/DP.BMP,resources/DG.BMP,Door4,0.429629686,0.224074067,1,0,0,0.7014,optionRight,60,3535,2,17,0,17,0,1,,,,,,,,,,,,,,,,,,,,,,,,,,,,,,,,,,,,,,,
,,,,,,,,2023-08-16_08h44.55.072,HF_wild_card,2022.2.4,Win32,59.10165485,5eb9499bcbc2140180e31037,64d2fd46c836a06233681665,64dc7e6befbc35fa1e2eb123,,,,,,,sngl,resources/Empty.png,resources/DG.BMP,Door4,0.373148176,0.158333333,1,0,0,0.78,optionRight,80,3615,2,18,0,18,0,1,,,,,,,,,,,,,,,,,,,,,,,,,,,,,,,,,,,,,,,
,,,,,,,,2023-08-16_08h44.55.072,HF_wild_card,2022.2.4,Win32,59.10165485,5eb9499bcbc2140180e31037,64d2fd46c836a06233681665,64dc7e6befbc35fa1e2eb123,,,,,,,decisionTrl,resources/DB.BMP,resources/DY.BMP,Door2,-0.4,0.146296289,1,0,0,1.1463,optionLeft,20,3635,2,19,0,19,0,1,,,,,,,,,,,,,,,,,,,,,,,,,,,,,,,,,,,,,,,
,,,,,,,,2023-08-16_08h44.55.072,HF_wild_card,2022.2.4,Win32,59.10165485,5eb9499bcbc2140180e31037,64d2fd46c836a06233681665,64dc7e6befbc35fa1e2eb123,,,,,,,decisionTrl,resources/DR.BMP,resources/DP.BMP,Door3,0.388888889,0.217592578,1,0,0,0.7314,optionRight,70,3705,2,20,0,20,0,1,,,,,,,,,,,,,,,,,,,,,,,,,,,,,,,,,,,,,,,
,,,,,,,,2023-08-16_08h44.55.072,HF_wild_card,2022.2.4,Win32,59.10165485,5eb9499bcbc2140180e31037,64d2fd46c836a06233681665,64dc7e6befbc35fa1e2eb123,,,,,,,decisionTrl,resources/DY.BMP,resources/DB.BMP,Door1,-0.371296268,0.162962956,1,0,0,1.7846,optionLeft,30,3735,2,21,0,21,0,1,,,,,,,,,,,,,,,,,,,,,,,,,,,,,,,,,,,,,,,
,,,,,,,,2023-08-16_08h44.55.072,HF_wild_card,2022.2.4,Win32,59.10165485,5eb9499bcbc2140180e31037,64d2fd46c836a06233681665,64dc7e6befbc35fa1e2eb123,,,,,,,decisionTrl,resources/DY.BMP,resources/DR.BMP,WildCard_NonEx,0.397222222,0.2324074,1,0,0,0.7143,optionRight,55,3790,2,22,0,22,0,1,,,,,,,,,,,,,,,,,,,,,,,,,,,,,,,,,,,,,,,
,,,,,,,,2023-08-16_08h44.55.072,HF_wild_card,2022.2.4,Win32,59.10165485,5eb9499bcbc2140180e31037,64d2fd46c836a06233681665,64dc7e6befbc35fa1e2eb123,,,,,,,sngl,resources/DG.BMP,resources/Empty.png,Door4,-0.30370369,0.170370356,1,0,0,0.6127,optionLeft,60,3850,2,23,0,23,0,1,,,,,,,,,,,,,,,,,,,,,,,,,,,,,,,,,,,,,,,
,,,,,,,,2023-08-16_08h44.55.072,HF_wild_card,2022.2.4,Win32,59.10165485,5eb9499bcbc2140180e31037,64d2fd46c836a06233681665,64dc7e6befbc35fa1e2eb123,,,,,,,decisionTrl,resources/DY.BMP,resources/DB.BMP,Door2,0.430555556,0.183333333,1,0,0,0.934,optionRight,20,3870,2,24,0,24,0,1,,,,,,,,,,,,,,,,,,,,,,,,,,,,,,,,,,,,,,,
,,,,,,,,2023-08-16_08h44.55.072,HF_wild_card,2022.2.4,Win32,59.10165485,5eb9499bcbc2140180e31037,64d2fd46c836a06233681665,64dc7e6befbc35fa1e2eb123,,,,,,,sngl,resources/DY.BMP,resources/Empty.png,Door1,-0.451851824,0.214814801,1,0,0,0.5299,optionLeft,30,3900,2,25,0,25,0,1,,,,,,,,,,,,,,,,,,,,,,,,,,,,,,,,,,,,,,,
,,,,,,,,2023-08-16_08h44.55.072,HF_wild_card,2022.2.4,Win32,59.10165485,5eb9499bcbc2140180e31037,64d2fd46c836a06233681665,64dc7e6befbc35fa1e2eb123,,,,,,,decisionTrl,resources/DB.BMP,resources/DY.BMP,Door2,-0.405555556,0.198148134,1,0,0,0.9178,optionLeft,20,3920,2,26,0,26,0,1,,,,,,,,,,,,,,,,,,,,,,,,,,,,,,,,,,,,,,,
,,,,,,,,2023-08-16_08h44.55.072,HF_wild_card,2022.2.4,Win32,59.10165485,5eb9499bcbc2140180e31037,64d2fd46c836a06233681665,64dc7e6befbc35fa1e2eb123,,,,,,,sngl,resources/Empty.png,resources/DY.BMP,Door1,0.482407464,0.25,1,0,0,0.5836,optionRight,30,3950,2,27,0,27,0,1,,,,,,,,,,,,,,,,,,,,,,,,,,,,,,,,,,,,,,,
,,,,,,,,2023-08-16_08h44.55.072,HF_wild_card,2022.2.4,Win32,59.10165485,5eb9499bcbc2140180e31037,64d2fd46c836a06233681665,64dc7e6befbc35fa1e2eb123,,,,,,,sngl,resources/DP.BMP,resources/Empty.png,Door3,-0.352777778,0.245370356,1,0,0,0.6483,optionLeft,70,4020,2,28,0,28,0,1,,,,,,,,,,,,,,,,,,,,,,,,,,,,,,,,,,,,,,,
,,,,,,,,2023-08-16_08h44.55.072,HF_wild_card,2022.2.4,Win32,59.10165485,5eb9499bcbc2140180e31037,64d2fd46c836a06233681665,64dc7e6befbc35fa1e2eb123,,,,,,,decisionTrl,resources/DB.BMP,resources/DY.BMP,Door2,-0.466666667,0.1824074,1,0,0,1.1311,optionLeft,20,4040,2,29,0,29,0,1,,,,,,,,,,,,,,,,,,,,,,,,,,,,,,,,,,,,,,,
,,,,,,,,2023-08-16_08h44.55.072,HF_wild_card,2022.2.4,Win32,59.10165485,5eb9499bcbc2140180e31037,64d2fd46c836a06233681665,64dc7e6befbc35fa1e2eb123,,,,,,,decisionTrl,resources/DY.BMP,resources/DB.BMP,Door1,-0.200925912,0.2,1,0,0,1.0976,optionLeft,30,4070,2,30,0,30,0,1,,,,,,,,,,,,,,,,,,,,,,,,,,,,,,,,,,,,,,,
,,,,,,,,2023-08-16_08h44.55.072,HF_wild_card,2022.2.4,Win32,59.10165485,5eb9499bcbc2140180e31037,64d2fd46c836a06233681665,64dc7e6befbc35fa1e2eb123,,,,,,,sngl,resources/DB.BMP,resources/Empty.png,Door2,-0.26851849,0.244444444,1,0,0,0.6834,optionLeft,20,4090,2,31,0,31,0,1,,,,,,,,,,,,,,,,,,,,,,,,,,,,,,,,,,,,,,,
,,,,,,,,2023-08-16_08h44.55.072,HF_wild_card,2022.2.4,Win32,59.10165485,5eb9499bcbc2140180e31037,64d2fd46c836a06233681665,64dc7e6befbc35fa1e2eb123,,,,,,,sngl,resources/Empty.png,resources/DB.BMP,Door2,0.319444444,0.172222222,1,0,0,0.5838,optionRight,40,4130,2,32,0,32,0,1,,,,,,,,,,,,,,,,,,,,,,,,,,,,,,,,,,,,,,,
,,,,,,,,2023-08-16_08h44.55.072,HF_wild_card,2022.2.4,Win32,59.10165485,5eb9499bcbc2140180e31037,64d2fd46c836a06233681665,64dc7e6befbc35fa1e2eb123,,,,,,,sngl,resources/Empty.png,resources/DR.BMP,WildCard_NonEx,0.383333333,0.169444444,1,0,0,0.5623,optionRight,55,4185,2,33,0,33,0,1,,,,,,,,,,,,,,,,,,,,,,,,,,,,,,,,,,,,,,,
,,,,,,,,2023-08-16_08h44.55.072,HF_wild_card,2022.2.4,Win32,59.10165485,5eb9499bcbc2140180e31037,64d2fd46c836a06233681665,64dc7e6befbc35fa1e2eb123,,,,,,,decisionTrl,resources/DR.BMP,resources/DB.BMP,WildCard_NonEx,-0.295370356,0.212962956,1,0,0,1.2495,optionLeft,45,4230,2,34,0,34,0,1,,,,,,,,,,,,,,,,,,,,,,,,,,,,,,,,,,,,,,,
,,,,,,,,2023-08-16_08h44.55.072,HF_wild_card,2022.2.4,Win32,59.10165485,5eb9499bcbc2140180e31037,64d2fd46c836a06233681665,64dc7e6befbc35fa1e2eb123,,,,,,,ctch,resources/DB.BMP,resources/DP.BMP,Door3,0.308333333,0.2,1,0,0,0.7317,optionRight,70,4300,2,35,0,35,0,1,,,,,,,,,,,,,,,,,,,,,,,,,,,,,,,,,,,,,,,
,,,,,,,,2023-08-16_08h44.55.072,HF_wild_card,2022.2.4,Win32,59.10165485,5eb9499bcbc2140180e31037,64d2fd46c836a06233681665,64dc7e6befbc35fa1e2eb123,,,,,,,decisionTrl,resources/DP.BMP,resources/DG.BMP,Door4,0.320370399,0.220370356,1,0,0,1.1819,optionRight,60,4360,2,36,0,36,0,1,,,,,,,,,,,,,,,,,,,,,,,,,,,,,,,,,,,,,,,
,,,,,,,,2023-08-16_08h44.55.072,HF_wild_card,2022.2.4,Win32,59.10165485,5eb9499bcbc2140180e31037,64d2fd46c836a06233681665,64dc7e6befbc35fa1e2eb123,,,,,,,sngl,resources/Empty.png,resources/DP.BMP,Door3,0.450925954,0.185185178,1,0,0,0.5487,optionRight,70,4430,2,37,0,37,0,1,,,,,,,,,,,,,,,,,,,,,,,,,,,,,,,,,,,,,,,
,,,,,,,,2023-08-16_08h44.55.072,HF_wild_card,2022.2.4,Win32,59.10165485,5eb9499bcbc2140180e31037,64d2fd46c836a06233681665,64dc7e6befbc35fa1e2eb123,,,,,,,decisionTrl,resources/DB.BMP,resources/DR.BMP,WildCard_NonEx,0.319444444,0.145370356,1,0,0,1.1158,optionRight,45,4475,2,38,0,38,0,1,,,,,,,,,,,,,,,,,,,,,,,,,,,,,,,,,,,,,,,
,,,,,,,,2023-08-16_08h44.55.072,HF_wild_card,2022.2.4,Win32,59.10165485,5eb9499bcbc2140180e31037,64d2fd46c836a06233681665,64dc7e6befbc35fa1e2eb123,,,,,,,sngl,resources/Empty.png,resources/DR.BMP,WildCard_NonEx,0.359259288,0.132407379,1,0,0,0.9155,optionRight,45,4520,2,39,0,39,0,1,,,,,,,,,,,,,,,,,,,,,,,,,,,,,,,,,,,,,,,
,,,,,,,,2023-08-16_08h44.55.072,HF_wild_card,2022.2.4,Win32,59.10165485,5eb9499bcbc2140180e31037,64d2fd46c836a06233681665,64dc7e6befbc35fa1e2eb123,,,,,,,decisionTrl,resources/DP.BMP,resources/DG.BMP,Door3,-0.299074046,0.236111111,1,0,0,1.1493,optionLeft,70,4590,2,40,0,40,0,1,,,,,,,,,,,,,,,,,,,,,,,,,,,,,,,,,,,,,,,
,,,,,,,,2023-08-16_08h44.55.072,HF_wild_card,2022.2.4,Win32,59.10165485,5eb9499bcbc2140180e31037,64d2fd46c836a06233681665,64dc7e6befbc35fa1e2eb123,,,,,,,ctch,resources/DY.BMP,resources/DG.BMP,Door4,0.365740797,0.162962956,1,0,0,0.8824,optionRight,80,4670,2,41,0,41,0,1,,,,,,,,,,,,,,,,,,,,,,,,,,,,,,,,,,,,,,,
,,,,,,,,2023-08-16_08h44.55.072,HF_wild_card,2022.2.4,Win32,59.10165485,5eb9499bcbc2140180e31037,64d2fd46c836a06233681665,64dc7e6befbc35fa1e2eb123,,,,,,,ctch,resources/DB.BMP,resources/DP.BMP,Door3,0.363888889,0.160185178,1,0,0,0.7985,optionRight,70,4740,2,42,0,42,0,1,,,,,,,,,,,,,,,,,,,,,,,,,,,,,,,,,,,,,,,
,,,,,,,,2023-08-16_08h44.55.072,HF_wild_card,2022.2.4,Win32,59.10165485,5eb9499bcbc2140180e31037,64d2fd46c836a06233681665,64dc7e6befbc35fa1e2eb123,,,,,,,ctch,resources/DG.BMP,resources/DY.BMP,Door4,-0.413888889,0.20370369,1,0,0,0.9488,optionLeft,80,4820,2,43,0,43,0,1,,,,,,,,,,,,,,,,,,,,,,,,,,,,,,,,,,,,,,,
,,,,,,,,2023-08-16_08h44.55.072,HF_wild_card,2022.2.4,Win32,59.10165485,5eb9499bcbc2140180e31037,64d2fd46c836a06233681665,64dc7e6befbc35fa1e2eb123,,,,,,,,,,,,,,,,,,,,,,,,,,1,0,1,0,1,,,,,,,,,,,,,,,,,,,,,,,,,,,,,,,,,,
,,,,,,,,2023-08-16_08h44.55.072,HF_wild_card,2022.2.4,Win32,59.10165485,5eb9499bcbc2140180e31037,64d2fd46c836a06233681665,64dc7e6befbc35fa1e2eb123,,,,,,,sngl,resources/Empty.png,resources/DB.BMP,Door2,0.475925954,0.039814801,1,0,0,1.0091,optionRight,20,4840,3,0,0,0,0,1,,,,,,,,,,,,,,,,,,,,,,,,,,,,,,,,,,,,,,,
,,,,,,,,2023-08-16_08h44.55.072,HF_wild_card,2022.2.4,Win32,59.10165485,5eb9499bcbc2140180e31037,64d2fd46c836a06233681665,64dc7e6befbc35fa1e2eb123,,,,,,,sngl,resources/Empty.png,resources/DY.BMP,Door1,0.414814843,0.079629601,1,0,0,0.8153,optionRight,30,4870,3,1,0,1,0,1,,,,,,,,,,,,,,,,,,,,,,,,,,,,,,,,,,,,,,,
,,,,,,,,2023-08-16_08h44.55.072,HF_wild_card,2022.2.4,Win32,59.10165485,5eb9499bcbc2140180e31037,64d2fd46c836a06233681665,64dc7e6befbc35fa1e2eb123,,,,,,,decisionTrl,resources/DP.BMP,resources/DG.BMP,Door4,0.364814843,0.213888889,1,0,0,2.6654,optionRight,80,4950,3,2,0,2,0,1,,,,,,,,,,,,,,,,,,,,,,,,,,,,,,,,,,,,,,,
,,,,,,,,2023-08-16_08h44.55.072,HF_wild_card,2022.2.4,Win32,59.10165485,5eb9499bcbc2140180e31037,64d2fd46c836a06233681665,64dc7e6befbc35fa1e2eb123,,,,,,,ctch,resources/DP.BMP,resources/DB.BMP,Door3,-0.365740712,0.166666667,1,0,0,0.6814,optionLeft,70,5020,3,3,0,3,0,1,,,,,,,,,,,,,,,,,,,,,,,,,,,,,,,,,,,,,,,
,,,,,,,,2023-08-16_08h44.55.072,HF_wild_card,2022.2.4,Win32,59.10165485,5eb9499bcbc2140180e31037,64d2fd46c836a06233681665,64dc7e6befbc35fa1e2eb123,,,,,,,decisionTrl,resources/DR.BMP,resources/DP.BMP,Door3,0.354629686,0.208333333,1,0,0,0.7147,optionRight,70,5090,3,4,0,4,0,1,,,,,,,,,,,,,,,,,,,,,,,,,,,,,,,,,,,,,,,
,,,,,,,,2023-08-16_08h44.55.072,HF_wild_card,2022.2.4,Win32,59.10165485,5eb9499bcbc2140180e31037,64d2fd46c836a06233681665,64dc7e6befbc35fa1e2eb123,,,,,,,decisionTrl,resources/DG.BMP,resources/DP.BMP,Door4,-0.47870369,0.171296289,1,0,0,0.8826,optionLeft,80,5170,3,5,0,5,0,1,,,,,,,,,,,,,,,,,,,,,,,,,,,,,,,,,,,,,,,
,,,,,,,,2023-08-16_08h44.55.072,HF_wild_card,2022.2.4,Win32,59.10165485,5eb9499bcbc2140180e31037,64d2fd46c836a06233681665,64dc7e6befbc35fa1e2eb123,,,,,,,decisionTrl,resources/DB.BMP,resources/DY.BMP,Door1,0.497222222,0.231481467,1,0,0,1.6651,optionRight,30,5200,3,6,0,6,0,1,,,,,,,,,,,,,,,,,,,,,,,,,,,,,,,,,,,,,,,
,,,,,,,,2023-08-16_08h44.55.072,HF_wild_card,2022.2.4,Win32,59.10165485,5eb9499bcbc2140180e31037,64d2fd46c836a06233681665,64dc7e6befbc35fa1e2eb123,,,,,,,ctch,resources/DP.BMP,resources/DB.BMP,Door3,-0.340740712,0.221296289,1,0,0,0.7324,optionLeft,70,5270,3,7,0,7,0,1,,,,,,,,,,,,,,,,,,,,,,,,,,,,,,,,,,,,,,,
,,,,,,,,2023-08-16_08h44.55.072,HF_wild_card,2022.2.4,Win32,59.10165485,5eb9499bcbc2140180e31037,64d2fd46c836a06233681665,64dc7e6befbc35fa1e2eb123,,,,,,,sngl,resources/DG.BMP,resources/Empty.png,Door4,-0.397222222,0.220370356,1,0,0,0.6825,optionLeft,80,5350,3,8,0,8,0,1,,,,,,,,,,,,,,,,,,,,,,,,,,,,,,,,,,,,,,,
,,,,,,,,2023-08-16_08h44.55.072,HF_wild_card,2022.2.4,Win32,59.10165485,5eb9499bcbc2140180e31037,64d2fd46c836a06233681665,64dc7e6befbc35fa1e2eb123,,,,,,,decisionTrl,resources/DG.BMP,resources/DP.BMP,Door3,0.328703732,0.221296289,1,0,0,1.0974,optionRight,70,5420,3,9,0,9,0,1,,,,,,,,,,,,,,,,,,,,,,,,,,,,,,,,,,,,,,,
,,,,,,,,2023-08-16_08h44.55.072,HF_wild_card,2022.2.4,Win32,59.10165485,5eb9499bcbc2140180e31037,64d2fd46c836a06233681665,64dc7e6befbc35fa1e2eb123,,,,,,,decisionTrl,resources/DP.BMP,resources/DG.BMP,Door4,0.424074131,0.208333333,1,0,0,0.7325,optionRight,60,5480,3,10,0,10,0,1,,,,,,,,,,,,,,,,,,,,,,,,,,,,,,,,,,,,,,,
,,,,,,,,2023-08-16_08h44.55.072,HF_wild_card,2022.2.4,Win32,59.10165485,5eb9499bcbc2140180e31037,64d2fd46c836a06233681665,64dc7e6befbc35fa1e2eb123,,,,,,,ctch,resources/DG.BMP,resources/DY.BMP,Door4,-0.419444444,0.236111111,1,0,0,0.6477,optionLeft,60,5540,3,11,0,11,0,1,,,,,,,,,,,,,,,,,,,,,,,,,,,,,,,,,,,,,,,
,,,,,,,,2023-08-16_08h44.55.072,HF_wild_card,2022.2.4,Win32,59.10165485,5eb9499bcbc2140180e31037,64d2fd46c836a06233681665,64dc7e6befbc35fa1e2eb123,,,,,,,decisionTrl,resources/DP.BMP,resources/DG.BMP,Door3,-0.329629601,0.170370356,1,0,0,0.7482,optionLeft,70,5610,3,12,0,12,0,1,,,,,,,,,,,,,,,,,,,,,,,,,,,,,,,,,,,,,,,
,,,,,,,,2023-08-16_08h44.55.072,HF_wild_card,2022.2.4,Win32,59.10165485,5eb9499bcbc2140180e31037,64d2fd46c836a06233681665,64dc7e6befbc35fa1e2eb123,,,,,,,decisionTrl,resources/DY.BMP,resources/DB.BMP,Door1,-0.196296268,0.225925912,1,0,0,1.0318,optionLeft,30,5640,3,13,0,13,0,1,,,,,,,,,,,,,,,,,,,,,,,,,,,,,,,,,,,,,,,
,,,,,,,,2023-08-16_08h44.55.072,HF_wild_card,2022.2.4,Win32,59.10165485,5eb9499bcbc2140180e31037,64d2fd46c836a06233681665,64dc7e6befbc35fa1e2eb123,,,,,,,sngl,resources/DB.BMP,resources/Empty.png,Door2,-0.364814801,0.195370356,1,0,0,0.632,optionLeft,40,5680,3,14,0,14,0,1,,,,,,,,,,,,,,,,,,,,,,,,,,,,,,,,,,,,,,,
,,,,,,,,2023-08-16_08h44.55.072,HF_wild_card,2022.2.4,Win32,59.10165485,5eb9499bcbc2140180e31037,64d2fd46c836a06233681665,64dc7e6befbc35fa1e2eb123,,,,,,,sngl,resources/Empty.png,resources/DR.BMP,WildCard_NonEx,0.387963019,0.20370369,1,0,0,0.9153,optionRight,45,5725,3,15,0,15,0,1,,,,,,,,,,,,,,,,,,,,,,,,,,,,,,,,,,,,,,,
,,,,,,,,2023-08-16_08h44.55.072,HF_wild_card,2022.2.4,Win32,59.10165485,5eb9499bcbc2140180e31037,64d2fd46c836a06233681665,64dc7e6befbc35fa1e2eb123,,,,,,,ctch,resources/DY.BMP,resources/DG.BMP,Door4,0.344444444,0.220370356,1,0,0,0.7496,optionRight,60,5785,3,16,0,16,0,1,,,,,,,,,,,,,,,,,,,,,,,,,,,,,,,,,,,,,,,
,,,,,,,,2023-08-16_08h44.55.072,HF_wild_card,2022.2.4,Win32,59.10165485,5eb9499bcbc2140180e31037,64d2fd46c836a06233681665,64dc7e6befbc35fa1e2eb123,,,,,,,decisionTrl,resources/DB.BMP,resources/DY.BMP,Door2,-0.371296268,0.17870369,1,0,0,1.0817,optionLeft,40,5825,3,17,0,17,0,1,,,,,,,,,,,,,,,,,,,,,,,,,,,,,,,,,,,,,,,
,,,,,,,,2023-08-16_08h44.55.072,HF_wild_card,2022.2.4,Win32,59.10165485,5eb9499bcbc2140180e31037,64d2fd46c836a06233681665,64dc7e6befbc35fa1e2eb123,,,,,,,decisionTrl,resources/DB.BMP,resources/DR.BMP,WildCard_NonEx,0.325,0.15,1,0,0,0.7987,optionRight,55,5880,3,18,0,18,0,1,,,,,,,,,,,,,,,,,,,,,,,,,,,,,,,,,,,,,,,
,,,,,,,,2023-08-16_08h44.55.072,HF_wild_card,2022.2.4,Win32,59.10165485,5eb9499bcbc2140180e31037,64d2fd46c836a06233681665,64dc7e6befbc35fa1e2eb123,,,,,,,sngl,resources/DY.BMP,resources/Empty.png,Door1,-0.27870369,0.152777778,1,0,0,0.6652,optionLeft,30,5910,3,19,0,19,0,1,,,,,,,,,,,,,,,,,,,,,,,,,,,,,,,,,,,,,,,
,,,,,,,,2023-08-16_08h44.55.072,HF_wild_card,2022.2.4,Win32,59.10165485,5eb9499bcbc2140180e31037,64d2fd46c836a06233681665,64dc7e6befbc35fa1e2eb123,,,,,,,decisionTrl,resources/DP.BMP,resources/DR.BMP,Door3,-0.321296268,0.230555556,1,0,0,0.7658,optionLeft,70,5980,3,20,0,20,0,1,,,,,,,,,,,,,,,,,,,,,,,,,,,,,,,,,,,,,,,
,,,,,,,,2023-08-16_08h44.55.072,HF_wild_card,2022.2.4,Win32,59.10165485,5eb9499bcbc2140180e31037,64d2fd46c836a06233681665,64dc7e6befbc35fa1e2eb123,,,,,,,decisionTrl,resources/DB.BMP,resources/DY.BMP,Door1,0.350925954,0.204629623,1,0,0,1.4646,optionRight,30,6010,3,21,0,21,0,1,,,,,,,,,,,,,,,,,,,,,,,,,,,,,,,,,,,,,,,
,,,,,,,,2023-08-16_08h44.55.072,HF_wild_card,2022.2.4,Win32,59.10165485,5eb9499bcbc2140180e31037,64d2fd46c836a06233681665,64dc7e6befbc35fa1e2eb123,,,,,,,ctch,resources/DB.BMP,resources/DP.BMP,Door3,0.250925954,0.197222222,1,0,0,0.7819,optionRight,70,6080,3,22,0,22,0,1,,,,,,,,,,,,,,,,,,,,,,,,,,,,,,,,,,,,,,,
,,,,,,,,2023-08-16_08h44.55.072,HF_wild_card,2022.2.4,Win32,59.10165485,5eb9499bcbc2140180e31037,64d2fd46c836a06233681665,64dc7e6befbc35fa1e2eb123,,,,,,,ctch,resources/DY.BMP,resources/DG.BMP,Door4,0.408333333,0.235185178,1,0,0,0.6647,optionRight,80,6160,3,23,0,23,0,1,,,,,,,,,,,,,,,,,,,,,,,,,,,,,,,,,,,,,,,
,,,,,,,,2023-08-16_08h44.55.072,HF_wild_card,2022.2.4,Win32,59.10165485,5eb9499bcbc2140180e31037,64d2fd46c836a06233681665,64dc7e6befbc35fa1e2eb123,,,,,,,sngl,resources/DP.BMP,resources/Empty.png,Door3,-0.35,0.162037023,1,0,0,0.6152,optionLeft,70,6230,3,24,0,24,0,1,,,,,,,,,,,,,,,,,,,,,,,,,,,,,,,,,,,,,,,
,,,,,,,,2023-08-16_08h44.55.072,HF_wild_card,2022.2.4,Win32,59.10165485,5eb9499bcbc2140180e31037,64d2fd46c836a06233681665,64dc7e6befbc35fa1e2eb123,,,,,,,sngl,resources/Empty.png,resources/DP.BMP,Door3,0.362963019,0.183333333,1,0,0,1.1652,optionRight,70,6300,3,25,0,25,0,1,,,,,,,,,,,,,,,,,,,,,,,,,,,,,,,,,,,,,,,
,,,,,,,,2023-08-16_08h44.55.072,HF_wild_card,2022.2.4,Win32,59.10165485,5eb9499bcbc2140180e31037,64d2fd46c836a06233681665,64dc7e6befbc35fa1e2eb123,,,,,,,decisionTrl,resources/DY.BMP,resources/DB.BMP,Door1,-0.425,0.126851824,1,0,0,1.4831,optionLeft,30,6330,3,26,0,26,0,1,,,,,,,,,,,,,,,,,,,,,,,,,,,,,,,,,,,,,,,
,,,,,,,,2023-08-16_08h44.55.072,HF_wild_card,2022.2.4,Win32,59.10165485,5eb9499bcbc2140180e31037,64d2fd46c836a06233681665,64dc7e6befbc35fa1e2eb123,,,,,,,sngl,resources/Empty.png,resources/DG.BMP,Door4,0.339814843,0.171296289,1,0,0,0.7831,optionRight,60,6390,3,27,0,27,0,1,,,,,,,,,,,,,,,,,,,,,,,,,,,,,,,,,,,,,,,
,,,,,,,,2023-08-16_08h44.55.072,HF_wild_card,2022.2.4,Win32,59.10165485,5eb9499bcbc2140180e31037,64d2fd46c836a06233681665,64dc7e6befbc35fa1e2eb123,,,,,,,ctch,resources/DB.BMP,resources/DP.BMP,Door3,0.327777778,0.251851845,1,0,0,0.6665,optionRight,70,6460,3,28,0,28,0,1,,,,,,,,,,,,,,,,,,,,,,,,,,,,,,,,,,,,,,,
,,,,,,,,2023-08-16_08h44.55.072,HF_wild_card,2022.2.4,Win32,59.10165485,5eb9499bcbc2140180e31037,64d2fd46c836a06233681665,64dc7e6befbc35fa1e2eb123,,,,,,,decisionTrl,resources/DR.BMP,resources/DG.BMP,Door4,0.393518575,0.214814801,1,0,0,1.3659,optionRight,60,6520,3,29,0,29,0,1,,,,,,,,,,,,,,,,,,,,,,,,,,,,,,,,,,,,,,,
,,,,,,,,2023-08-16_08h44.55.072,HF_wild_card,2022.2.4,Win32,59.10165485,5eb9499bcbc2140180e31037,64d2fd46c836a06233681665,64dc7e6befbc35fa1e2eb123,,,,,,,decisionTrl,resources/DY.BMP,resources/DB.BMP,Door1,-0.282407379,0.192592578,1,0,0,1.0813,optionLeft,30,6550,3,30,0,30,0,1,,,,,,,,,,,,,,,,,,,,,,,,,,,,,,,,,,,,,,,
,,,,,,,,2023-08-16_08h44.55.072,HF_wild_card,2022.2.4,Win32,59.10165485,5eb9499bcbc2140180e31037,64d2fd46c836a06233681665,64dc7e6befbc35fa1e2eb123,,,,,,,decisionTrl,resources/DY.BMP,resources/DR.BMP,WildCard_NonEx,0.263888889,0.191666667,1,0,0,0.9987,optionRight,45,6595,3,31,0,31,0,1,,,,,,,,,,,,,,,,,,,,,,,,,,,,,,,,,,,,,,,
,,,,,,,,2023-08-16_08h44.55.072,HF_wild_card,2022.2.4,Win32,59.10165485,5eb9499bcbc2140180e31037,64d2fd46c836a06233681665,64dc7e6befbc35fa1e2eb123,,,,,,,decisionTrl,resources/DG.BMP,resources/DR.BMP,Door4,-0.416666667,0.224074067,1,0,0,0.733,optionLeft,60,6655,3,32,0,32,0,1,,,,,,,,,,,,,,,,,,,,,,,,,,,,,,,,,,,,,,,
,,,,,,,,2023-08-16_08h44.55.072,HF_wild_card,2022.2.4,Win32,59.10165485,5eb9499bcbc2140180e31037,64d2fd46c836a06233681665,64dc7e6befbc35fa1e2eb123,,,,,,,decisionTrl,resources/DG.BMP,resources/DP.BMP,Door3,0.337037065,0.241666667,1,0,0,0.6163,optionRight,70,6725,3,33,0,33,0,1,,,,,,,,,,,,,,,,,,,,,,,,,,,,,,,,,,,,,,,
,,,,,,,,2023-08-16_08h44.55.072,HF_wild_card,2022.2.4,Win32,59.10165485,5eb9499bcbc2140180e31037,64d2fd46c836a06233681665,64dc7e6befbc35fa1e2eb123,,,,,,,decisionTrl,resources/DY.BMP,resources/DB.BMP,Door1,-0.362037023,0.265740734,1,0,0,0.8332,optionLeft,30,6755,3,34,0,34,0,1,,,,,,,,,,,,,,,,,,,,,,,,,,,,,,,,,,,,,,,
,,,,,,,,2023-08-16_08h44.55.072,HF_wild_card,2022.2.4,Win32,59.10165485,5eb9499bcbc2140180e31037,64d2fd46c836a06233681665,64dc7e6befbc35fa1e2eb123,,,,,,,decisionTrl,resources/DP.BMP,resources/DG.BMP,Door3,-0.361111111,0.167592578,1,0,0,1.2493,optionLeft,70,6825,3,35,0,35,0,1,,,,,,,,,,,,,,,,,,,,,,,,,,,,,,,,,,,,,,,
,,,,,,,,2023-08-16_08h44.55.072,HF_wild_card,2022.2.4,Win32,59.10165485,5eb9499bcbc2140180e31037,64d2fd46c836a06233681665,64dc7e6befbc35fa1e2eb123,,,,,,,sngl,resources/DR.BMP,resources/Empty.png,WildCard_NonEx,-0.385185157,0.209259245,1,0,0,0.6646,optionLeft,45,6870,3,36,0,36,0,1,,,,,,,,,,,,,,,,,,,,,,,,,,,,,,,,,,,,,,,
,,,,,,,,2023-08-16_08h44.55.072,HF_wild_card,2022.2.4,Win32,59.10165485,5eb9499bcbc2140180e31037,64d2fd46c836a06233681665,64dc7e6befbc35fa1e2eb123,,,,,,,sngl,resources/Empty.png,resources/DR.BMP,WildCard_NonEx,0.320370399,0.225,1,0,0,0.6975,optionRight,55,6925,3,37,0,37,0,1,,,,,,,,,,,,,,,,,,,,,,,,,,,,,,,,,,,,,,,
,,,,,,,,2023-08-16_08h44.55.072,HF_wild_card,2022.2.4,Win32,59.10165485,5eb9499bcbc2140180e31037,64d2fd46c836a06233681665,64dc7e6befbc35fa1e2eb123,,,,,,,decisionTrl,resources/DR.BMP,resources/DB.BMP,WildCard_NonEx,-0.266666667,0.175,1,0,0,0.8989,optionLeft,45,6970,3,38,0,38,0,1,,,,,,,,,,,,,,,,,,,,,,,,,,,,,,,,,,,,,,,
,,,,,,,,2023-08-16_08h44.55.072,HF_wild_card,2022.2.4,Win32,59.10165485,5eb9499bcbc2140180e31037,64d2fd46c836a06233681665,64dc7e6befbc35fa1e2eb123,,,,,,,decisionTrl,resources/DG.BMP,resources/DP.BMP,Door3,0.286111111,0.212037023,1,0,0,0.9324,optionRight,70,7040,3,39,0,39,0,1,,,,,,,,,,,,,,,,,,,,,,,,,,,,,,,,,,,,,,,
,,,,,,,,2023-08-16_08h44.55.072,HF_wild_card,2022.2.4,Win32,59.10165485,5eb9499bcbc2140180e31037,64d2fd46c836a06233681665,64dc7e6befbc35fa1e2eb123,,,,,,,decisionTrl,resources/DR.BMP,resources/DY.BMP,WildCard_NonEx,-0.267592578,0.1574074,1,0,0,1.032,optionLeft,55,7095,3,40,0,40,0,1,,,,,,,,,,,,,,,,,,,,,,,,,,,,,,,,,,,,,,,
,,,,,,,,2023-08-16_08h44.55.072,HF_wild_card,2022.2.4,Win32,59.10165485,5eb9499bcbc2140180e31037,64d2fd46c836a06233681665,64dc7e6befbc35fa1e2eb123,,,,,,,sngl,resources/DR.BMP,resources/Empty.png,WildCard_NonEx,-0.342592578,0.168518511,1,0,0,0.6158,optionLeft,55,7150,3,41,0,41,0,1,,,,,,,,,,,,,,,,,,,,,,,,,,,,,,,,,,,,,,,
,,,,,,,,2023-08-16_08h44.55.072,HF_wild_card,2022.2.4,Win32,59.10165485,5eb9499bcbc2140180e31037,64d2fd46c836a06233681665,64dc7e6befbc35fa1e2eb123,,,,,,,ctch,resources/DG.BMP,resources/DY.BMP,Door4,-0.275925912,0.163888889,1,0,0,0.7151,optionLeft,60,7210,3,42,0,42,0,1,,,,,,,,,,,,,,,,,,,,,,,,,,,,,,,,,,,,,,,
,,,,,,,,2023-08-16_08h44.55.072,HF_wild_card,2022.2.4,Win32,59.10165485,5eb9499bcbc2140180e31037,64d2fd46c836a06233681665,64dc7e6befbc35fa1e2eb123,,,,,,,decisionTrl,resources/DB.BMP,resources/DY.BMP,Door1,0.228703732,0.198148134,1,0,0,1.0984,optionRight,30,7240,3,43,0,43,0,1,,,,,,,,,,,,,,,,,,,,,,,,,,,,,,,,,,,,,,,
,,,,,,,,2023-08-16_08h44.55.072,HF_wild_card,2022.2.4,Win32,59.10165485,5eb9499bcbc2140180e31037,64d2fd46c836a06233681665,64dc7e6befbc35fa1e2eb123,,,,,,,,,,,,,,,,,,,,,,,,,,2,0,2,0,1,,,,,,,,,,,,,,,,,,,,,,,,,,,,,,,,,,
,,,,,,,,2023-08-16_08h44.55.072,HF_wild_card,2022.2.4,Win32,59.10165485,5eb9499bcbc2140180e31037,64d2fd46c836a06233681665,64dc7e6befbc35fa1e2eb123,,,,,,,decisionTrl,resources/DBN.BMP,resources/DB.BMP,WildCard_Ex,-0.348148134,0.152777778,1,0,0,2.31,optionLeft,5,7245,4,0,0,0,0,1,,,,,,,,,,,,,,,,,,,,,,,,,,,,,,,,,,,,,,,
,,,,,,,,2023-08-16_08h44.55.072,HF_wild_card,2022.2.4,Win32,59.10165485,5eb9499bcbc2140180e31037,64d2fd46c836a06233681665,64dc7e6befbc35fa1e2eb123,,,,,,,sngl,resources/Empty.png,resources/DB.BMP,Door2,0.367592621,0.17870369,1,0,0,0.7497,optionRight,40,7285,4,1,0,1,0,1,,,,,,,,,,,,,,,,,,,,,,,,,,,,,,,,,,,,,,,
,,,,,,,,2023-08-16_08h44.55.072,HF_wild_card,2022.2.4,Win32,59.10165485,5eb9499bcbc2140180e31037,64d2fd46c836a06233681665,64dc7e6befbc35fa1e2eb123,,,,,,,decisionTrl,resources/DY.BMP,resources/DB.BMP,Door1,-0.359259245,0.168518511,1,0,0,1.0333,optionLeft,30,7315,4,2,0,2,0,1,,,,,,,,,,,,,,,,,,,,,,,,,,,,,,,,,,,,,,,
,,,,,,,,2023-08-16_08h44.55.072,HF_wild_card,2022.2.4,Win32,59.10165485,5eb9499bcbc2140180e31037,64d2fd46c836a06233681665,64dc7e6befbc35fa1e2eb123,,,,,,,decisionTrl,resources/DG.BMP,resources/DP.BMP,Door3,0.427777778,0.195370356,1,0,0,0.8162,optionRight,70,7385,4,3,0,3,0,1,,,,,,,,,,,,,,,,,,,,,,,,,,,,,,,,,,,,,,,
,,,,,,,,2023-08-16_08h44.55.072,HF_wild_card,2022.2.4,Win32,59.10165485,5eb9499bcbc2140180e31037,64d2fd46c836a06233681665,64dc7e6befbc35fa1e2eb123,,,,,,,ctch,resources/DP.BMP,resources/DB.BMP,Door3,-0.32870369,0.239814801,1,0,0,0.7491,optionLeft,70,7455,4,4,0,4,0,1,,,,,,,,,,,,,,,,,,,,,,,,,,,,,,,,,,,,,,,
,,,,,,,,2023-08-16_08h44.55.072,HF_wild_card,2022.2.4,Win32,59.10165485,5eb9499bcbc2140180e31037,64d2fd46c836a06233681665,64dc7e6befbc35fa1e2eb123,,,,,,,ctch,resources/DB.BMP,resources/DP.BMP,Door3,0.330555556,0.1824074,1,0,0,0.9489,optionRight,70,7525,4,5,0,5,0,1,,,,,,,,,,,,,,,,,,,,,,,,,,,,,,,,,,,,,,,
,,,,,,,,2023-08-16_08h44.55.072,HF_wild_card,2022.2.4,Win32,59.10165485,5eb9499bcbc2140180e31037,64d2fd46c836a06233681665,64dc7e6befbc35fa1e2eb123,,,,,,,decisionTrl,resources/DB.BMP,resources/DY.BMP,Door1,0.338888889,0.209259245,1,0,0,0.8498,optionRight,30,7555,4,6,0,6,0,1,,,,,,,,,,,,,,,,,,,,,,,,,,,,,,,,,,,,,,,
,,,,,,,,2023-08-16_08h44.55.072,HF_wild_card,2022.2.4,Win32,59.10165485,5eb9499bcbc2140180e31037,64d2fd46c836a06233681665,64dc7e6befbc35fa1e2eb123,,,,,,,sngl,resources/Empty.png,resources/DBN.BMP,WildCard_Ex,0.201851908,0.245370356,1,0,0,1.7653,optionRight,5,7560,4,7,0,7,0,1,,,,,,,,,,,,,,,,,,,,,,,,,,,,,,,,,,,,,,,
,,,,,,,,2023-08-16_08h44.55.072,HF_wild_card,2022.2.4,Win32,59.10165485,5eb9499bcbc2140180e31037,64d2fd46c836a06233681665,64dc7e6befbc35fa1e2eb123,,,,,,,sngl,resources/Empty.png,resources/DP.BMP,Door3,0.384259288,0.225925912,1,0,0,0.6479,optionRight,70,7630,4,8,0,8,0,1,,,,,,,,,,,,,,,,,,,,,,,,,,,,,,,,,,,,,,,
,,,,,,,,2023-08-16_08h44.55.072,HF_wild_card,2022.2.4,Win32,59.10165485,5eb9499bcbc2140180e31037,64d2fd46c836a06233681665,64dc7e6befbc35fa1e2eb123,,,,,,,sngl,resources/DB.BMP,resources/Empty.png,Door2,-0.340740712,0.156481467,1,0,0,0.6319,optionLeft,20,7650,4,9,0,9,0,1,,,,,,,,,,,,,,,,,,,,,,,,,,,,,,,,,,,,,,,
,,,,,,,,2023-08-16_08h44.55.072,HF_wild_card,2022.2.4,Win32,59.10165485,5eb9499bcbc2140180e31037,64d2fd46c836a06233681665,64dc7e6befbc35fa1e2eb123,,,,,,,decisionTrl,resources/DG.BMP,resources/DBN.BMP,Door4,-0.270370356,0.1574074,1,0,0,0.7988,optionLeft,60,7710,4,10,0,10,0,1,,,,,,,,,,,,,,,,,,,,,,,,,,,,,,,,,,,,,,,
,,,,,,,,2023-08-16_08h44.55.072,HF_wild_card,2022.2.4,Win32,59.10165485,5eb9499bcbc2140180e31037,64d2fd46c836a06233681665,64dc7e6befbc35fa1e2eb123,,,,,,,decisionTrl,resources/DBN.BMP,resources/DP.BMP,Door3,0.308333333,0.244444444,1,0,0,0.6155,optionRight,70,7780,4,11,0,11,0,1,,,,,,,,,,,,,,,,,,,,,,,,,,,,,,,,,,,,,,,
,,,,,,,,2023-08-16_08h44.55.072,HF_wild_card,2022.2.4,Win32,59.10165485,5eb9499bcbc2140180e31037,64d2fd46c836a06233681665,64dc7e6befbc35fa1e2eb123,,,,,,,decisionTrl,resources/DP.BMP,resources/DBN.BMP,Door3,-0.261111111,0.176851845,1,0,0,0.699,optionLeft,70,7850,4,12,0,12,0,1,,,,,,,,,,,,,,,,,,,,,,,,,,,,,,,,,,,,,,,
,,,,,,,,2023-08-16_08h44.55.072,HF_wild_card,2022.2.4,Win32,59.10165485,5eb9499bcbc2140180e31037,64d2fd46c836a06233681665,64dc7e6befbc35fa1e2eb123,,,,,,,decisionTrl,resources/DG.BMP,resources/DP.BMP,Door3,0.358333333,0.212962956,1,0,0,0.7153,optionRight,70,7920,4,13,0,13,0,1,,,,,,,,,,,,,,,,,,,,,,,,,,,,,,,,,,,,,,,
,,,,,,,,2023-08-16_08h44.55.072,HF_wild_card,2022.2.4,Win32,59.10165485,5eb9499bcbc2140180e31037,64d2fd46c836a06233681665,64dc7e6befbc35fa1e2eb123,,,,,,,ctch,resources/DP.BMP,resources/DB.BMP,Door3,-0.322222222,0.252777778,1,0,0,0.7315,optionLeft,70,7990,4,14,0,14,0,1,,,,,,,,,,,,,,,,,,,,,,,,,,,,,,,,,,,,,,,
,,,,,,,,2023-08-16_08h44.55.072,HF_wild_card,2022.2.4,Win32,59.10165485,5eb9499bcbc2140180e31037,64d2fd46c836a06233681665,64dc7e6befbc35fa1e2eb123,,,,,,,decisionTrl,resources/DP.BMP,resources/DG.BMP,Door4,0.436111111,0.155555556,1,0,0,0.7655,optionRight,80,8070,4,15,0,15,0,1,,,,,,,,,,,,,,,,,,,,,,,,,,,,,,,,,,,,,,,
,,,,,,,,2023-08-16_08h44.55.072,HF_wild_card,2022.2.4,Win32,59.10165485,5eb9499bcbc2140180e31037,64d2fd46c836a06233681665,64dc7e6befbc35fa1e2eb123,,,,,,,ctch,resources/DY.BMP,resources/DG.BMP,Door4,0.308333333,0.17870369,1,0,0,0.8156,optionRight,60,8130,4,16,0,16,0,1,,,,,,,,,,,,,,,,,,,,,,,,,,,,,,,,,,,,,,,
,,,,,,,,2023-08-16_08h44.55.072,HF_wild_card,2022.2.4,Win32,59.10165485,5eb9499bcbc2140180e31037,64d2fd46c836a06233681665,64dc7e6befbc35fa1e2eb123,,,,,,,decisionTrl,resources/DY.BMP,resources/DB.BMP,Door1,-0.363888889,0.275925912,1,0,0,0.7987,optionLeft,30,8160,4,17,0,17,0,1,,,,,,,,,,,,,,,,,,,,,,,,,,,,,,,,,,,,,,,
,,,,,,,,2023-08-16_08h44.55.072,HF_wild_card,2022.2.4,Win32,59.10165485,5eb9499bcbc2140180e31037,64d2fd46c836a06233681665,64dc7e6befbc35fa1e2eb123,,,,,,,decisionTrl,resources/DY.BMP,resources/DB.BMP,Door1,-0.331481467,0.254629623,1,0,0,0.7997,optionLeft,30,8190,4,18,0,18,0,1,,,,,,,,,,,,,,,,,,,,,,,,,,,,,,,,,,,,,,,
,,,,,,,,2023-08-16_08h44.55.072,HF_wild_card,2022.2.4,Win32,59.10165485,5eb9499bcbc2140180e31037,64d2fd46c836a06233681665,64dc7e6befbc35fa1e2eb123,,,,,,,sngl,resources/DBN.BMP,resources/Empty.png,WildCard_Ex,0.310185242,0.199074067,1,0,0,1.4319,optionLeft,5,8195,4,19,0,19,0,1,,,,,,,,,,,,,,,,,,,,,,,,,,,,,,,,,,,,,,,
,,,,,,,,2023-08-16_08h44.55.072,HF_wild_card,2022.2.4,Win32,59.10165485,5eb9499bcbc2140180e31037,64d2fd46c836a06233681665,64dc7e6befbc35fa1e2eb123,,,,,,,sngl,resources/Empty.png,resources/DBN.BMP,WildCard_Ex,0.266666667,0.166666667,1,0,0,0.6645,optionRight,95,8290,4,20,0,20,0,1,,,,,,,,,,,,,,,,,,,,,,,,,,,,,,,,,,,,,,,
,,,,,,,,2023-08-16_08h44.55.072,HF_wild_card,2022.2.4,Win32,59.10165485,5eb9499bcbc2140180e31037,64d2fd46c836a06233681665,64dc7e6befbc35fa1e2eb123,,,,,,,decisionTrl,resources/DBN.BMP,resources/DG.BMP,Door4,0.310185242,0.142592578,1,0,0,0.8825,optionRight,60,8350,4,21,0,21,0,1,,,,,,,,,,,,,,,,,,,,,,,,,,,,,,,,,,,,,,,
,,,,,,,,2023-08-16_08h44.55.072,HF_wild_card,2022.2.4,Win32,59.10165485,5eb9499bcbc2140180e31037,64d2fd46c836a06233681665,64dc7e6befbc35fa1e2eb123,,,,,,,ctch,resources/DB.BMP,resources/DP.BMP,Door3,0.351851908,0.219444444,1,0,0,0.6822,optionRight,70,8420,4,22,0,22,0,1,,,,,,,,,,,,,,,,,,,,,,,,,,,,,,,,,,,,,,,
,,,,,,,,2023-08-16_08h44.55.072,HF_wild_card,2022.2.4,Win32,59.10165485,5eb9499bcbc2140180e31037,64d2fd46c836a06233681665,64dc7e6befbc35fa1e2eb123,,,,,,,ctch,resources/DG.BMP,resources/DY.BMP,Door4,-0.250925912,0.116666667,1,0,0,0.7829,optionLeft,60,8480,4,23,0,23,0,1,,,,,,,,,,,,,,,,,,,,,,,,,,,,,,,,,,,,,,,
,,,,,,,,2023-08-16_08h44.55.072,HF_wild_card,2022.2.4,Win32,59.10165485,5eb9499bcbc2140180e31037,64d2fd46c836a06233681665,64dc7e6befbc35fa1e2eb123,,,,,,,sngl,resources/Empty.png,resources/DY.BMP,Door1,0.278703732,0.172222222,1,0,0,0.7986,optionRight,30,8510,4,24,0,24,0,1,,,,,,,,,,,,,,,,,,,,,,,,,,,,,,,,,,,,,,,
,,,,,,,,2023-08-16_08h44.55.072,HF_wild_card,2022.2.4,Win32,59.10165485,5eb9499bcbc2140180e31037,64d2fd46c836a06233681665,64dc7e6befbc35fa1e2eb123,,,,,,,decisionTrl,resources/DY.BMP,resources/DBN.BMP,WildCard_Ex,0.243518575,0.187962956,1,0,0,0.6154,optionRight,95,8605,4,25,0,25,0,1,,,,,,,,,,,,,,,,,,,,,,,,,,,,,,,,,,,,,,,
,,,,,,,,2023-08-16_08h44.55.072,HF_wild_card,2022.2.4,Win32,59.10165485,5eb9499bcbc2140180e31037,64d2fd46c836a06233681665,64dc7e6befbc35fa1e2eb123,,,,,,,sngl,resources/DP.BMP,resources/Empty.png,Door3,-0.486111111,0.269444444,1,0,0,0.6322,optionLeft,70,8675,4,26,0,26,0,1,,,,,,,,,,,,,,,,,,,,,,,,,,,,,,,,,,,,,,,
,,,,,,,,2023-08-16_08h44.55.072,HF_wild_card,2022.2.4,Win32,59.10165485,5eb9499bcbc2140180e31037,64d2fd46c836a06233681665,64dc7e6befbc35fa1e2eb123,,,,,,,decisionTrl,resources/DP.BMP,resources/DG.BMP,Door4,0.229629686,0.181481467,1,0,0,0.9314,optionRight,80,8755,4,27,0,27,0,1,,,,,,,,,,,,,,,,,,,,,,,,,,,,,,,,,,,,,,,
,,,,,,,,2023-08-16_08h44.55.072,HF_wild_card,2022.2.4,Win32,59.10165485,5eb9499bcbc2140180e31037,64d2fd46c836a06233681665,64dc7e6befbc35fa1e2eb123,,,,,,,sngl,resources/DG.BMP,resources/Empty.png,Door4,-0.36851849,0.196296289,1,0,0,0.5651,optionLeft,60,8815,4,28,0,28,0,1,,,,,,,,,,,,,,,,,,,,,,,,,,,,,,,,,,,,,,,
,,,,,,,,2023-08-16_08h44.55.072,HF_wild_card,2022.2.4,Win32,59.10165485,5eb9499bcbc2140180e31037,64d2fd46c836a06233681665,64dc7e6befbc35fa1e2eb123,,,,,,,ctch,resources/DY.BMP,resources/DG.BMP,Door4,0.355555556,0.194444444,1,0,0,0.6321,optionRight,80,8895,4,29,0,29,0,1,,,,,,,,,,,,,,,,,,,,,,,,,,,,,,,,,,,,,,,
,,,,,,,,2023-08-16_08h44.55.072,HF_wild_card,2022.2.4,Win32,59.10165485,5eb9499bcbc2140180e31037,64d2fd46c836a06233681665,64dc7e6befbc35fa1e2eb123,,,,,,,sngl,resources/Empty.png,resources/DG.BMP,Door4,0.430555556,0.248148134,1,0,0,0.6486,optionRight,80,8975,4,30,0,30,0,1,,,,,,,,,,,,,,,,,,,,,,,,,,,,,,,,,,,,,,,
,,,,,,,,2023-08-16_08h44.55.072,HF_wild_card,2022.2.4,Win32,59.10165485,5eb9499bcbc2140180e31037,64d2fd46c836a06233681665,64dc7e6befbc35fa1e2eb123,,,,,,,decisionTrl,resources/DG.BMP,resources/DP.BMP,Door3,0.366666667,0.189814801,1,0,0,0.883,optionRight,70,9045,4,31,0,31,0,1,,,,,,,,,,,,,,,,,,,,,,,,,,,,,,,,,,,,,,,
,,,,,,,,2023-08-16_08h44.55.072,HF_wild_card,2022.2.4,Win32,59.10165485,5eb9499bcbc2140180e31037,64d2fd46c836a06233681665,64dc7e6befbc35fa1e2eb123,,,,,,,decisionTrl,resources/DB.BMP,resources/DBN.BMP,WildCard_Ex,0.346296353,0.223148134,1,0,0,0.6164,optionRight,5,9050,4,32,0,32,0,1,,,,,,,,,,,,,,,,,,,,,,,,,,,,,,,,,,,,,,,
,,,,,,,,2023-08-16_08h44.55.072,HF_wild_card,2022.2.4,Win32,59.10165485,5eb9499bcbc2140180e31037,64d2fd46c836a06233681665,64dc7e6befbc35fa1e2eb123,,,,,,,decisionTrl,resources/DP.BMP,resources/DG.BMP,Door3,-0.350925912,0.117592578,1,0,0,0.7814,optionLeft,70,9120,4,33,0,33,0,1,,,,,,,,,,,,,,,,,,,,,,,,,,,,,,,,,,,,,,,
,,,,,,,,2023-08-16_08h44.55.072,HF_wild_card,2022.2.4,Win32,59.10165485,5eb9499bcbc2140180e31037,64d2fd46c836a06233681665,64dc7e6befbc35fa1e2eb123,,,,,,,ctch,resources/DG.BMP,resources/DY.BMP,Door4,-0.402777778,0.213888889,1,0,0,0.6825,optionLeft,80,9200,4,34,0,34,0,1,,,,,,,,,,,,,,,,,,,,,,,,,,,,,,,,,,,,,,,
,,,,,,,,2023-08-16_08h44.55.072,HF_wild_card,2022.2.4,Win32,59.10165485,5eb9499bcbc2140180e31037,64d2fd46c836a06233681665,64dc7e6befbc35fa1e2eb123,,,,,,,decisionTrl,resources/DY.BMP,resources/DB.BMP,Door1,-0.360185157,0.230555556,1,0,0,0.7483,optionLeft,30,9230,4,35,0,35,0,1,,,,,,,,,,,,,,,,,,,,,,,,,,,,,,,,,,,,,,,
,,,,,,,,2023-08-16_08h44.55.072,HF_wild_card,2022.2.4,Win32,59.10165485,5eb9499bcbc2140180e31037,64d2fd46c836a06233681665,64dc7e6befbc35fa1e2eb123,,,,,,,decisionTrl,resources/DB.BMP,resources/DY.BMP,Door1,0.374074131,0.25370369,1,0,0,0.8486,optionRight,30,9260,4,36,0,36,0,1,,,,,,,,,,,,,,,,,,,,,,,,,,,,,,,,,,,,,,,
,,,,,,,,2023-08-16_08h44.55.072,HF_wild_card,2022.2.4,Win32,59.10165485,5eb9499bcbc2140180e31037,64d2fd46c836a06233681665,64dc7e6befbc35fa1e2eb123,,,,,,,decisionTrl,resources/DB.BMP,resources/DY.BMP,Door1,0.363888889,0.204629623,1,0,0,0.6671,optionRight,30,9290,4,37,0,37,0,1,,,,,,,,,,,,,,,,,,,,,,,,,,,,,,,,,,,,,,,
,,,,,,,,2023-08-16_08h44.55.072,HF_wild_card,2022.2.4,Win32,59.10165485,5eb9499bcbc2140180e31037,64d2fd46c836a06233681665,64dc7e6befbc35fa1e2eb123,,,,,,,decisionTrl,resources/DP.BMP,resources/DG.BMP,Door3,-0.340740712,0.161111111,1,0,0,0.8995,optionLeft,70,9360,4,38,0,38,0,1,,,,,,,,,,,,,,,,,,,,,,,,,,,,,,,,,,,,,,,
,,,,,,,,2023-08-16_08h44.55.072,HF_wild_card,2022.2.4,Win32,59.10165485,5eb9499bcbc2140180e31037,64d2fd46c836a06233681665,64dc7e6befbc35fa1e2eb123,,,,,,,decisionTrl,resources/DG.BMP,resources/DP.BMP,Door4,-0.270370356,0.120370356,1,0,0,0.8487,optionLeft,80,9440,4,39,0,39,0,1,,,,,,,,,,,,,,,,,,,,,,,,,,,,,,,,,,,,,,,
,,,,,,,,2023-08-16_08h44.55.072,HF_wild_card,2022.2.4,Win32,59.10165485,5eb9499bcbc2140180e31037,64d2fd46c836a06233681665,64dc7e6befbc35fa1e2eb123,,,,,,,sngl,resources/DY.BMP,resources/Empty.png,Door1,-0.264814801,0.163888889,1,0,0,0.7993,optionLeft,30,9470,4,40,0,40,0,1,,,,,,,,,,,,,,,,,,,,,,,,,,,,,,,,,,,,,,,
,,,,,,,,2023-08-16_08h44.55.072,HF_wild_card,2022.2.4,Win32,59.10165485,5eb9499bcbc2140180e31037,64d2fd46c836a06233681665,64dc7e6befbc35fa1e2eb123,,,,,,,decisionTrl,resources/DB.BMP,resources/DY.BMP,Door1,0.388888889,0.346296289,1,0,0,0.699,optionRight,30,9500,4,41,0,41,0,1,,,,,,,,,,,,,,,,,,,,,,,,,,,,,,,,,,,,,,,
,,,,,,,,2023-08-16_08h44.55.072,HF_wild_card,2022.2.4,Win32,59.10165485,5eb9499bcbc2140180e31037,64d2fd46c836a06233681665,64dc7e6befbc35fa1e2eb123,,,,,,,sngl,resources/DBN.BMP,resources/Empty.png,WildCard_Ex,-0.348148134,0.198148134,1,0,0,0.6275,optionLeft,95,9595,4,42,0,42,0,1,,,,,,,,,,,,,,,,,,,,,,,,,,,,,,,,,,,,,,,
,,,,,,,,2023-08-16_08h44.55.072,HF_wild_card,2022.2.4,Win32,59.10165485,5eb9499bcbc2140180e31037,64d2fd46c836a06233681665,64dc7e6befbc35fa1e2eb123,,,,,,,decisionTrl,resources/DBN.BMP,resources/DY.BMP,WildCard_Ex,-0.239814801,0.180555556,1,0,0,0.6655,optionLeft,95,9690,4,43,0,43,0,1,,,,,,,,,,,,,,,,,,,,,,,,,,,,,,,,,,,,,,,
,,,,,,,,2023-08-16_08h44.55.072,HF_wild_card,2022.2.4,Win32,59.10165485,5eb9499bcbc2140180e31037,64d2fd46c836a06233681665,64dc7e6befbc35fa1e2eb123,,,,,,,,,,,,,,,,,,,,,,,,,,3,0,3,0,1,,,,,,,,,,,,,,,,,,,,,,,,,,,,,,,,,,
,,,,,,,,2023-08-16_08h44.55.072,HF_wild_card,2022.2.4,Win32,59.10165485,5eb9499bcbc2140180e31037,64d2fd46c836a06233681665,64dc7e6befbc35fa1e2eb123,,,,,,,decisionTrl,resources/DB.BMP,resources/DY.BMP,Door1,0.291666667,0.09351849,1,0,0,1.2086,optionRight,30,9720,5,0,0,0,0,1,,,,,,,,,,,,,,,,,,,,,,,,,,,,,,,,,,,,,,,
,,,,,,,,2023-08-16_08h44.55.072,HF_wild_card,2022.2.4,Win32,59.10165485,5eb9499bcbc2140180e31037,64d2fd46c836a06233681665,64dc7e6befbc35fa1e2eb123,,,,,,,decisionTrl,resources/DP.BMP,resources/DG.BMP,Door3,-0.42870369,0.194444444,1,0,0,0.8823,optionLeft,70,9790,5,1,0,1,0,1,,,,,,,,,,,,,,,,,,,,,,,,,,,,,,,,,,,,,,,
,,,,,,,,2023-08-16_08h44.55.072,HF_wild_card,2022.2.4,Win32,59.10165485,5eb9499bcbc2140180e31037,64d2fd46c836a06233681665,64dc7e6befbc35fa1e2eb123,,,,,,,sngl,resources/DG.BMP,resources/Empty.png,Door4,-0.35370369,0.220370356,1,0,0,0.6149,optionLeft,80,9870,5,2,0,2,0,1,,,,,,,,,,,,,,,,,,,,,,,,,,,,,,,,,,,,,,,
,,,,,,,,2023-08-16_08h44.55.072,HF_wild_card,2022.2.4,Win32,59.10165485,5eb9499bcbc2140180e31037,64d2fd46c836a06233681665,64dc7e6befbc35fa1e2eb123,,,,,,,decisionTrl,resources/DBN.BMP,resources/DP.BMP,WildCard_Ex,-0.339814801,0.243518511,1,0,0,0.7326,optionLeft,95,9965,5,3,0,3,0,1,,,,,,,,,,,,,,,,,,,,,,,,,,,,,,,,,,,,,,,
,,,,,,,,2023-08-16_08h44.55.072,HF_wild_card,2022.2.4,Win32,59.10165485,5eb9499bcbc2140180e31037,64d2fd46c836a06233681665,64dc7e6befbc35fa1e2eb123,,,,,,,sngl,resources/DBN.BMP,resources/Empty.png,WildCard_Ex,-0.294444444,0.217592578,1,0,0,0.5982,optionLeft,5,9970,5,4,0,4,0,1,,,,,,,,,,,,,,,,,,,,,,,,,,,,,,,,,,,,,,,
,,,,,,,,2023-08-16_08h44.55.072,HF_wild_card,2022.2.4,Win32,59.10165485,5eb9499bcbc2140180e31037,64d2fd46c836a06233681665,64dc7e6befbc35fa1e2eb123,,,,,,,sngl,resources/DY.BMP,resources/Empty.png,Door1,-0.237037023,0.137037023,1,0,0,0.5998,optionLeft,30,10000,5,5,0,5,0,1,,,,,,,,,,,,,,,,,,,,,,,,,,,,,,,,,,,,,,,
,,,,,,,,2023-08-16_08h44.55.072,HF_wild_card,2022.2.4,Win32,59.10165485,5eb9499bcbc2140180e31037,64d2fd46c836a06233681665,64dc7e6befbc35fa1e2eb123,,,,,,,decisionTrl,resources/DY.BMP,resources/DB.BMP,Door1,-0.329629601,0.201851845,1,0,0,0.9153,optionLeft,30,10030,5,6,0,6,0,1,,,,,,,,,,,,,,,,,,,,,,,,,,,,,,,,,,,,,,,
,,,,,,,,2023-08-16_08h44.55.072,HF_wild_card,2022.2.4,Win32,59.10165485,5eb9499bcbc2140180e31037,64d2fd46c836a06233681665,64dc7e6befbc35fa1e2eb123,,,,,,,decisionTrl,resources/DP.BMP,resources/DG.BMP,Door4,0.229629686,0.1824074,1,0,0,0.8159,optionRight,80,10110,5,7,0,7,0,1,,,,,,,,,,,,,,,,,,,,,,,,,,,,,,,,,,,,,,,
,,,,,,,,2023-08-16_08h44.55.072,HF_wild_card,2022.2.4,Win32,59.10165485,5eb9499bcbc2140180e31037,64d2fd46c836a06233681665,64dc7e6befbc35fa1e2eb123,,,,,,,decisionTrl,resources/DB.BMP,resources/DY.BMP,Door1,0.203703732,0.163888889,1,0,0,0.7321,optionRight,30,10140,5,8,0,8,0,1,,,,,,,,,,,,,,,,,,,,,,,,,,,,,,,,,,,,,,,
,,,,,,,,2023-08-16_08h44.55.072,HF_wild_card,2022.2.4,Win32,59.10165485,5eb9499bcbc2140180e31037,64d2fd46c836a06233681665,64dc7e6befbc35fa1e2eb123,,,,,,,ctch,resources/DY.BMP,resources/DG.BMP,Door4,0.229629686,0.176851845,1,0,0,0.7826,optionRight,60,10200,5,9,0,9,0,1,,,,,,,,,,,,,,,,,,,,,,,,,,,,,,,,,,,,,,,
,,,,,,,,2023-08-16_08h44.55.072,HF_wild_card,2022.2.4,Win32,59.10165485,5eb9499bcbc2140180e31037,64d2fd46c836a06233681665,64dc7e6befbc35fa1e2eb123,,,,,,,sngl,resources/Empty.png,resources/DBN.BMP,WildCard_Ex,0.177777778,0.198148134,1,0,0,0.5494,optionRight,95,10295,5,10,0,10,0,1,,,,,,,,,,,,,,,,,,,,,,,,,,,,,,,,,,,,,,,
,,,,,,,,2023-08-16_08h44.55.072,HF_wild_card,2022.2.4,Win32,59.10165485,5eb9499bcbc2140180e31037,64d2fd46c836a06233681665,64dc7e6befbc35fa1e2eb123,,,,,,,decisionTrl,resources/DG.BMP,resources/DP.BMP,Door4,-0.311111111,0.164814801,1,0,0,0.9994,optionLeft,80,10375,5,11,0,11,0,1,,,,,,,,,,,,,,,,,,,,,,,,,,,,,,,,,,,,,,,
,,,,,,,,2023-08-16_08h44.55.072,HF_wild_card,2022.2.4,Win32,59.10165485,5eb9499bcbc2140180e31037,64d2fd46c836a06233681665,64dc7e6befbc35fa1e2eb123,,,,,,,ctch,resources/DG.BMP,resources/DY.BMP,Door4,-0.332407379,0.215740734,1,0,0,0.6834,optionLeft,60,10435,5,12,0,12,0,1,,,,,,,,,,,,,,,,,,,,,,,,,,,,,,,,,,,,,,,
,,,,,,,,2023-08-16_08h44.55.072,HF_wild_card,2022.2.4,Win32,59.10165485,5eb9499bcbc2140180e31037,64d2fd46c836a06233681665,64dc7e6befbc35fa1e2eb123,,,,,,,ctch,resources/DP.BMP,resources/DB.BMP,Door3,-0.334259245,0.1824074,1,0,0,0.7822,optionLeft,70,10505,5,13,0,13,0,1,,,,,,,,,,,,,,,,,,,,,,,,,,,,,,,,,,,,,,,
,,,,,,,,2023-08-16_08h44.55.072,HF_wild_card,2022.2.4,Win32,59.10165485,5eb9499bcbc2140180e31037,64d2fd46c836a06233681665,64dc7e6befbc35fa1e2eb123,,,,,,,sngl,resources/Empty.png,resources/DP.BMP,Door3,0.367592621,0.164814801,1,0,0,0.5642,optionRight,70,10575,5,14,0,14,0,1,,,,,,,,,,,,,,,,,,,,,,,,,,,,,,,,,,,,,,,
,,,,,,,,2023-08-16_08h44.55.072,HF_wild_card,2022.2.4,Win32,59.10165485,5eb9499bcbc2140180e31037,64d2fd46c836a06233681665,64dc7e6befbc35fa1e2eb123,,,,,,,sngl,resources/Empty.png,resources/DY.BMP,Door1,0.309259288,0.170370356,1,0,0,0.6489,optionRight,30,10605,5,15,0,15,0,1,,,,,,,,,,,,,,,,,,,,,,,,,,,,,,,,,,,,,,,
,,,,,,,,2023-08-16_08h44.55.072,HF_wild_card,2022.2.4,Win32,59.10165485,5eb9499bcbc2140180e31037,64d2fd46c836a06233681665,64dc7e6befbc35fa1e2eb123,,,,,,,ctch,resources/DY.BMP,resources/DG.BMP,Door4,0.320370399,0.167592578,1,0,0,0.782,optionRight,60,10665,5,16,0,16,0,1,,,,,,,,,,,,,,,,,,,,,,,,,,,,,,,,,,,,,,,
,,,,,,,,2023-08-16_08h44.55.072,HF_wild_card,2022.2.4,Win32,59.10165485,5eb9499bcbc2140180e31037,64d2fd46c836a06233681665,64dc7e6befbc35fa1e2eb123,,,,,,,decisionTrl,resources/DP.BMP,resources/DG.BMP,Door3,-0.475925912,0.262037023,1,0,0,0.682,optionLeft,70,10735,5,17,0,17,0,1,,,,,,,,,,,,,,,,,,,,,,,,,,,,,,,,,,,,,,,
,,,,,,,,2023-08-16_08h44.55.072,HF_wild_card,2022.2.4,Win32,59.10165485,5eb9499bcbc2140180e31037,64d2fd46c836a06233681665,64dc7e6befbc35fa1e2eb123,,,,,,,sngl,resources/DBN.BMP,resources/Empty.png,WildCard_Ex,-0.274074046,0.177777778,1,0,0,0.5992,optionLeft,95,10830,5,18,0,18,0,1,,,,,,,,,,,,,,,,,,,,,,,,,,,,,,,,,,,,,,,
,,,,,,,,2023-08-16_08h44.55.072,HF_wild_card,2022.2.4,Win32,59.10165485,5eb9499bcbc2140180e31037,64d2fd46c836a06233681665,64dc7e6befbc35fa1e2eb123,,,,,,,sngl,resources/Empty.png,resources/DB.BMP,Door2,0.245370399,0.171296289,1,0,0,0.5665,optionRight,20,10850,5,19,0,19,0,1,,,,,,,,,,,,,,,,,,,,,,,,,,,,,,,,,,,,,,,
,,,,,,,,2023-08-16_08h44.55.072,HF_wild_card,2022.2.4,Win32,59.10165485,5eb9499bcbc2140180e31037,64d2fd46c836a06233681665,64dc7e6befbc35fa1e2eb123,,,,,,,decisionTrl,resources/DP.BMP,resources/DG.BMP,Door3,-0.324074046,0.227777778,1,0,0,0.782,optionLeft,70,10920,5,20,0,20,0,1,,,,,,,,,,,,,,,,,,,,,,,,,,,,,,,,,,,,,,,
,,,,,,,,2023-08-16_08h44.55.072,HF_wild_card,2022.2.4,Win32,59.10165485,5eb9499bcbc2140180e31037,64d2fd46c836a06233681665,64dc7e6befbc35fa1e2eb123,,,,,,,ctch,resources/DP.BMP,resources/DB.BMP,Door3,-0.423148134,0.220370356,1,0,0,0.665,optionLeft,70,10990,5,21,0,21,0,1,,,,,,,,,,,,,,,,,,,,,,,,,,,,,,,,,,,,,,,
,,,,,,,,2023-08-16_08h44.55.072,HF_wild_card,2022.2.4,Win32,59.10165485,5eb9499bcbc2140180e31037,64d2fd46c836a06233681665,64dc7e6befbc35fa1e2eb123,,,,,,,decisionTrl,resources/DG.BMP,resources/DP.BMP,Door3,0.291666667,0.189814801,1,0,0,0.7165,optionRight,70,11060,5,22,0,22,0,1,,,,,,,,,,,,,,,,,,,,,,,,,,,,,,,,,,,,,,,
,,,,,,,,2023-08-16_08h44.55.072,HF_wild_card,2022.2.4,Win32,59.10165485,5eb9499bcbc2140180e31037,64d2fd46c836a06233681665,64dc7e6befbc35fa1e2eb123,,,,,,,decisionTrl,resources/DBN.BMP,resources/DB.BMP,WildCard_Ex,-0.313888889,0.230555556,1,0,0,0.7316,optionLeft,95,11155,5,23,0,23,0,1,,,,,,,,,,,,,,,,,,,,,,,,,,,,,,,,,,,,,,,
,,,,,,,,2023-08-16_08h44.55.072,HF_wild_card,2022.2.4,Win32,59.10165485,5eb9499bcbc2140180e31037,64d2fd46c836a06233681665,64dc7e6befbc35fa1e2eb123,,,,,,,decisionTrl,resources/DBN.BMP,resources/DY.BMP,WildCard_Ex,-0.256481467,0.193518511,1,0,0,0.6315,optionLeft,5,11160,5,24,0,24,0,1,,,,,,,,,,,,,,,,,,,,,,,,,,,,,,,,,,,,,,,
,,,,,,,,2023-08-16_08h44.55.072,HF_wild_card,2022.2.4,Win32,59.10165485,5eb9499bcbc2140180e31037,64d2fd46c836a06233681665,64dc7e6befbc35fa1e2eb123,,,,,,,sngl,resources/DB.BMP,resources/Empty.png,Door2,-0.308333333,0.201851845,1,0,0,0.5989,optionLeft,40,11200,5,25,0,25,0,1,,,,,,,,,,,,,,,,,,,,,,,,,,,,,,,,,,,,,,,
,,,,,,,,2023-08-16_08h44.55.072,HF_wild_card,2022.2.4,Win32,59.10165485,5eb9499bcbc2140180e31037,64d2fd46c836a06233681665,64dc7e6befbc35fa1e2eb123,,,,,,,sngl,resources/Empty.png,resources/DG.BMP,Door4,0.469444444,0.213888889,1,0,0,1.0641,optionRight,60,11260,5,26,0,26,0,1,,,,,,,,,,,,,,,,,,,,,,,,,,,,,,,,,,,,,,,
,,,,,,,,2023-08-16_08h44.55.072,HF_wild_card,2022.2.4,Win32,59.10165485,5eb9499bcbc2140180e31037,64d2fd46c836a06233681665,64dc7e6befbc35fa1e2eb123,,,,,,,ctch,resources/DB.BMP,resources/DP.BMP,Door3,0.235185242,0.187037023,1,0,0,0.7985,optionRight,70,11330,5,27,0,27,0,1,,,,,,,,,,,,,,,,,,,,,,,,,,,,,,,,,,,,,,,
,,,,,,,,2023-08-16_08h44.55.072,HF_wild_card,2022.2.4,Win32,59.10165485,5eb9499bcbc2140180e31037,64d2fd46c836a06233681665,64dc7e6befbc35fa1e2eb123,,,,,,,decisionTrl,resources/DP.BMP,resources/DBN.BMP,WildCard_Ex,0.268518575,0.175,1,0,0,0.7324,optionRight,95,11425,5,28,0,28,0,1,,,,,,,,,,,,,,,,,,,,,,,,,,,,,,,,,,,,,,,
,,,,,,,,2023-08-16_08h44.55.072,HF_wild_card,2022.2.4,Win32,59.10165485,5eb9499bcbc2140180e31037,64d2fd46c836a06233681665,64dc7e6befbc35fa1e2eb123,,,,,,,decisionTrl,resources/DY.BMP,resources/DB.BMP,Door2,0.207407464,0.134259245,1,0,0,1.1825,optionRight,20,11445,5,29,0,29,0,1,,,,,,,,,,,,,,,,,,,,,,,,,,,,,,,,,,,,,,,
,,,,,,,,2023-08-16_08h44.55.072,HF_wild_card,2022.2.4,Win32,59.10165485,5eb9499bcbc2140180e31037,64d2fd46c836a06233681665,64dc7e6befbc35fa1e2eb123,,,,,,,ctch,resources/DB.BMP,resources/DP.BMP,Door3,0.307407464,0.206481467,1,0,0,0.6486,optionRight,70,11515,5,30,0,30,0,1,,,,,,,,,,,,,,,,,,,,,,,,,,,,,,,,,,,,,,,
,,,,,,,,2023-08-16_08h44.55.072,HF_wild_card,2022.2.4,Win32,59.10165485,5eb9499bcbc2140180e31037,64d2fd46c836a06233681665,64dc7e6befbc35fa1e2eb123,,,,,,,decisionTrl,resources/DB.BMP,resources/DBN.BMP,WildCard_Ex,0.249074131,0.111111111,1,0,0,0.8825,optionRight,5,11520,5,31,0,31,0,1,,,,,,,,,,,,,,,,,,,,,,,,,,,,,,,,,,,,,,,
,,,,,,,,2023-08-16_08h44.55.072,HF_wild_card,2022.2.4,Win32,59.10165485,5eb9499bcbc2140180e31037,64d2fd46c836a06233681665,64dc7e6befbc35fa1e2eb123,,,,,,,decisionTrl,resources/DG.BMP,resources/DP.BMP,Door4,-0.31851849,0.168518511,1,0,0,0.933,optionLeft,80,11600,5,32,0,32,0,1,,,,,,,,,,,,,,,,,,,,,,,,,,,,,,,,,,,,,,,
,,,,,,,,2023-08-16_08h44.55.072,HF_wild_card,2022.2.4,Win32,59.10165485,5eb9499bcbc2140180e31037,64d2fd46c836a06233681665,64dc7e6befbc35fa1e2eb123,,,,,,,decisionTrl,resources/DB.BMP,resources/DY.BMP,Door1,0.360185242,0.237962956,1,0,0,1.0805,optionRight,30,11630,5,33,0,33,0,1,,,,,,,,,,,,,,,,,,,,,,,,,,,,,,,,,,,,,,,
,,,,,,,,2023-08-16_08h44.55.072,HF_wild_card,2022.2.4,Win32,59.10165485,5eb9499bcbc2140180e31037,64d2fd46c836a06233681665,64dc7e6befbc35fa1e2eb123,,,,,,,sngl,resources/DP.BMP,resources/Empty.png,Door3,-0.376851824,0.180555556,1,0,0,0.5817,optionLeft,70,11700,5,34,0,34,0,1,,,,,,,,,,,,,,,,,,,,,,,,,,,,,,,,,,,,,,,
,,,,,,,,2023-08-16_08h44.55.072,HF_wild_card,2022.2.4,Win32,59.10165485,5eb9499bcbc2140180e31037,64d2fd46c836a06233681665,64dc7e6befbc35fa1e2eb123,,,,,,,decisionTrl,resources/DY.BMP,resources/DBN.BMP,WildCard_Ex,0.257407464,0.247222222,1,0,0,0.5654,optionRight,95,11795,5,35,0,35,0,1,,,,,,,,,,,,,,,,,,,,,,,,,,,,,,,,,,,,,,,
,,,,,,,,2023-08-16_08h44.55.072,HF_wild_card,2022.2.4,Win32,59.10165485,5eb9499bcbc2140180e31037,64d2fd46c836a06233681665,64dc7e6befbc35fa1e2eb123,,,,,,,decisionTrl,resources/DG.BMP,resources/DP.BMP,Door3,0.336111111,0.177777778,1,0,0,0.9813,optionRight,70,11865,5,36,0,36,0,1,,,,,,,,,,,,,,,,,,,,,,,,,,,,,,,,,,,,,,,
,,,,,,,,2023-08-16_08h44.55.072,HF_wild_card,2022.2.4,Win32,59.10165485,5eb9499bcbc2140180e31037,64d2fd46c836a06233681665,64dc7e6befbc35fa1e2eb123,,,,,,,ctch,resources/DG.BMP,resources/DY.BMP,Door4,-0.269444444,0.152777778,1,0,0,0.615,optionLeft,60,11925,5,37,0,37,0,1,,,,,,,,,,,,,,,,,,,,,,,,,,,,,,,,,,,,,,,
,,,,,,,,2023-08-16_08h44.55.072,HF_wild_card,2022.2.4,Win32,59.10165485,5eb9499bcbc2140180e31037,64d2fd46c836a06233681665,64dc7e6befbc35fa1e2eb123,,,,,,,decisionTrl,resources/DG.BMP,resources/DBN.BMP,WildCard_Ex,0.293518575,0.179629623,1,0,0,0.6823,optionRight,95,12020,5,38,0,38,0,1,,,,,,,,,,,,,,,,,,,,,,,,,,,,,,,,,,,,,,,
,,,,,,,,2023-08-16_08h44.55.072,HF_wild_card,2022.2.4,Win32,59.10165485,5eb9499bcbc2140180e31037,64d2fd46c836a06233681665,64dc7e6befbc35fa1e2eb123,,,,,,,decisionTrl,resources/DY.BMP,resources/DB.BMP,Door1,-0.412962935,0.107407379,1,0,0,1.1927,optionLeft,30,12050,5,39,0,39,0,1,,,,,,,,,,,,,,,,,,,,,,,,,,,,,,,,,,,,,,,
,,,,,,,,2023-08-16_08h44.55.072,HF_wild_card,2022.2.4,Win32,59.10165485,5eb9499bcbc2140180e31037,64d2fd46c836a06233681665,64dc7e6befbc35fa1e2eb123,,,,,,,sngl,resources/Empty.png,resources/DBN.BMP,WildCard_Ex,0.25,0.164814801,1,0,0,0.5483,optionRight,5,12055,5,40,0,40,0,1,,,,,,,,,,,,,,,,,,,,,,,,,,,,,,,,,,,,,,,
,,,,,,,,2023-08-16_08h44.55.072,HF_wild_card,2022.2.4,Win32,59.10165485,5eb9499bcbc2140180e31037,64d2fd46c836a06233681665,64dc7e6befbc35fa1e2eb123,,,,,,,decisionTrl,resources/DBN.BMP,resources/DG.BMP,WildCard_Ex,-0.400925912,0.162037023,1,0,0,0.6499,optionLeft,95,12150,5,41,0,41,0,1,,,,,,,,,,,,,,,,,,,,,,,,,,,,,,,,,,,,,,,
,,,,,,,,2023-08-16_08h44.55.072,HF_wild_card,2022.2.4,Win32,59.10165485,5eb9499bcbc2140180e31037,64d2fd46c836a06233681665,64dc7e6befbc35fa1e2eb123,,,,,,,decisionTrl,resources/DB.BMP,resources/DY.BMP,Door1,0.413888889,0.2074074,1,0,0,0.7146,optionRight,30,12180,5,42,0,42,0,1,,,,,,,,,,,,,,,,,,,,,,,,,,,,,,,,,,,,,,,
,,,,,,,,2023-08-16_08h44.55.072,HF_wild_card,2022.2.4,Win32,59.10165485,5eb9499bcbc2140180e31037,64d2fd46c836a06233681665,64dc7e6befbc35fa1e2eb123,,,,,,,decisionTrl,resources/DY.BMP,resources/DB.BMP,Door1,-0.338888889,0.191666667,1,0,0,0.7501,optionLeft,30,12210,5,43,0,43,0,1,,,,,,,,,,,,,,,,,,,,,,,,,,,,,,,,,,,,,,,
,,,,,,,,2023-08-16_08h44.55.072,HF_wild_card,2022.2.4,Win32,59.10165485,5eb9499bcbc2140180e31037,64d2fd46c836a06233681665,64dc7e6befbc35fa1e2eb123,,,,,,,,,,,,,,,,,,,,,,,,,,4,0,4,0,1,,,,,,,,,,,,,,,,,,,,,,,,,,,,,,,,,,
,,,,,,,,2023-08-16_08h44.55.072,HF_wild_card,2022.2.4,Win32,59.10165485,5eb9499bcbc2140180e31037,64d2fd46c836a06233681665,64dc7e6befbc35fa1e2eb123,,,,,,,decisionTrl,resources/DP.BMP,resources/DBN.BMP,WildCard_Ex,0.286111111,0.123148134,1,0,0,0.765,optionRight,95,12305,6,0,0,0,0,1,,,,,,,,,,,,,,,,,,,,,,,,,,,,,,,,,,,,,,,
,,,,,,,,2023-08-16_08h44.55.072,HF_wild_card,2022.2.4,Win32,59.10165485,5eb9499bcbc2140180e31037,64d2fd46c836a06233681665,64dc7e6befbc35fa1e2eb123,,,,,,,decisionTrl,resources/DG.BMP,resources/DP.BMP,Door4,-0.346296268,0.176851845,1,0,0,0.8983,optionLeft,60,12365,6,1,0,1,0,1,,,,,,,,,,,,,,,,,,,,,,,,,,,,,,,,,,,,,,,
,,,,,,,,2023-08-16_08h44.55.072,HF_wild_card,2022.2.4,Win32,59.10165485,5eb9499bcbc2140180e31037,64d2fd46c836a06233681665,64dc7e6befbc35fa1e2eb123,,,,,,,decisionTrl,resources/DB.BMP,resources/DY.BMP,Door2,-0.304629601,0.216666667,1,0,0,0.8978,optionLeft,40,12405,6,2,0,2,0,1,,,,,,,,,,,,,,,,,,,,,,,,,,,,,,,,,,,,,,,
,,,,,,,,2023-08-16_08h44.55.072,HF_wild_card,2022.2.4,Win32,59.10165485,5eb9499bcbc2140180e31037,64d2fd46c836a06233681665,64dc7e6befbc35fa1e2eb123,,,,,,,decisionTrl,resources/DG.BMP,resources/DP.BMP,Door3,0.333333333,0.241666667,1,0,0,0.8492,optionRight,70,12475,6,3,0,3,0,1,,,,,,,,,,,,,,,,,,,,,,,,,,,,,,,,,,,,,,,
,,,,,,,,2023-08-16_08h44.55.072,HF_wild_card,2022.2.4,Win32,59.10165485,5eb9499bcbc2140180e31037,64d2fd46c836a06233681665,64dc7e6befbc35fa1e2eb123,,,,,,,decisionTrl,resources/DB.BMP,resources/DY.BMP,Door2,-0.270370356,0.176851845,1,0,0,0.9831,optionLeft,20,12495,6,4,0,4,0,1,,,,,,,,,,,,,,,,,,,,,,,,,,,,,,,,,,,,,,,
,,,,,,,,2023-08-16_08h44.55.072,HF_wild_card,2022.2.4,Win32,59.10165485,5eb9499bcbc2140180e31037,64d2fd46c836a06233681665,64dc7e6befbc35fa1e2eb123,,,,,,,ctch,resources/DB.BMP,resources/DP.BMP,Door3,0.277777778,0.217592578,1,0,0,0.5819,optionRight,70,12565,6,5,0,5,0,1,,,,,,,,,,,,,,,,,,,,,,,,,,,,,,,,,,,,,,,
,,,,,,,,2023-08-16_08h44.55.072,HF_wild_card,2022.2.4,Win32,59.10165485,5eb9499bcbc2140180e31037,64d2fd46c836a06233681665,64dc7e6befbc35fa1e2eb123,,,,,,,sngl,resources/DBN.BMP,resources/Empty.png,WildCard_Ex,-0.287037023,0.174074067,1,0,0,0.5988,optionLeft,95,12660,6,6,0,6,0,1,,,,,,,,,,,,,,,,,,,,,,,,,,,,,,,,,,,,,,,
,,,,,,,,2023-08-16_08h44.55.072,HF_wild_card,2022.2.4,Win32,59.10165485,5eb9499bcbc2140180e31037,64d2fd46c836a06233681665,64dc7e6befbc35fa1e2eb123,,,,,,,decisionTrl,resources/DBN.BMP,resources/DP.BMP,WildCard_Ex,-0.422222222,0.201851845,1,0,0,0.6987,optionLeft,5,12665,6,7,0,7,0,1,,,,,,,,,,,,,,,,,,,,,,,,,,,,,,,,,,,,,,,
,,,,,,,,2023-08-16_08h44.55.072,HF_wild_card,2022.2.4,Win32,59.10165485,5eb9499bcbc2140180e31037,64d2fd46c836a06233681665,64dc7e6befbc35fa1e2eb123,,,,,,,decisionTrl,resources/DBN.BMP,resources/DY.BMP,WildCard_Ex,-0.245370356,0.135185157,1,0,0,0.6144,optionLeft,5,12670,6,8,0,8,0,1,,,,,,,,,,,,,,,,,,,,,,,,,,,,,,,,,,,,,,,
,,,,,,,,2023-08-16_08h44.55.072,HF_wild_card,2022.2.4,Win32,59.10165485,5eb9499bcbc2140180e31037,64d2fd46c836a06233681665,64dc7e6befbc35fa1e2eb123,,,,,,,decisionTrl,resources/DBN.BMP,resources/DB.BMP,WildCard_Ex,-0.381481467,0.223148134,1,0,0,0.5319,optionLeft,95,12765,6,9,0,9,0,1,,,,,,,,,,,,,,,,,,,,,,,,,,,,,,,,,,,,,,,
,,,,,,,,2023-08-16_08h44.55.072,HF_wild_card,2022.2.4,Win32,59.10165485,5eb9499bcbc2140180e31037,64d2fd46c836a06233681665,64dc7e6befbc35fa1e2eb123,,,,,,,decisionTrl,resources/DY.BMP,resources/DB.BMP,Door1,-0.272222222,0.15370369,1,0,0,1.0317,optionLeft,30,12795,6,10,0,10,0,1,,,,,,,,,,,,,,,,,,,,,,,,,,,,,,,,,,,,,,,
,,,,,,,,2023-08-16_08h44.55.072,HF_wild_card,2022.2.4,Win32,59.10165485,5eb9499bcbc2140180e31037,64d2fd46c836a06233681665,64dc7e6befbc35fa1e2eb123,,,,,,,sngl,resources/DB.BMP,resources/Empty.png,Door2,-0.334259245,0.2,1,0,0,0.5655,optionLeft,20,12815,6,11,0,11,0,1,,,,,,,,,,,,,,,,,,,,,,,,,,,,,,,,,,,,,,,
,,,,,,,,2023-08-16_08h44.55.072,HF_wild_card,2022.2.4,Win32,59.10165485,5eb9499bcbc2140180e31037,64d2fd46c836a06233681665,64dc7e6befbc35fa1e2eb123,,,,,,,ctch,resources/DG.BMP,resources/DY.BMP,Door4,-0.312962935,0.165740734,1,0,0,1.0151,optionLeft,80,12895,6,12,0,12,0,1,,,,,,,,,,,,,,,,,,,,,,,,,,,,,,,,,,,,,,,
,,,,,,,,2023-08-16_08h44.55.072,HF_wild_card,2022.2.4,Win32,59.10165485,5eb9499bcbc2140180e31037,64d2fd46c836a06233681665,64dc7e6befbc35fa1e2eb123,,,,,,,decisionTrl,resources/DG.BMP,resources/DP.BMP,Door3,0.334259288,0.168518511,1,0,0,0.7823,optionRight,70,12965,6,13,0,13,0,1,,,,,,,,,,,,,,,,,,,,,,,,,,,,,,,,,,,,,,,
,,,,,,,,2023-08-16_08h44.55.072,HF_wild_card,2022.2.4,Win32,59.10165485,5eb9499bcbc2140180e31037,64d2fd46c836a06233681665,64dc7e6befbc35fa1e2eb123,,,,,,,sngl,resources/DP.BMP,resources/Empty.png,Door3,-0.337962935,0.179629623,1,0,0,0.5821,optionLeft,70,13035,6,14,0,14,0,1,,,,,,,,,,,,,,,,,,,,,,,,,,,,,,,,,,,,,,,
,,,,,,,,2023-08-16_08h44.55.072,HF_wild_card,2022.2.4,Win32,59.10165485,5eb9499bcbc2140180e31037,64d2fd46c836a06233681665,64dc7e6befbc35fa1e2eb123,,,,,,,sngl,resources/Empty.png,resources/DG.BMP,Door4,0.346296353,0.174074067,1,0,0,0.6147,optionRight,80,13115,6,15,0,15,0,1,,,,,,,,,,,,,,,,,,,,,,,,,,,,,,,,,,,,,,,
,,,,,,,,2023-08-16_08h44.55.072,HF_wild_card,2022.2.4,Win32,59.10165485,5eb9499bcbc2140180e31037,64d2fd46c836a06233681665,64dc7e6befbc35fa1e2eb123,,,,,,,ctch,resources/DB.BMP,resources/DP.BMP,Door3,0.322222222,0.192592578,1,0,0,0.6308,optionRight,70,13185,6,16,0,16,0,1,,,,,,,,,,,,,,,,,,,,,,,,,,,,,,,,,,,,,,,
,,,,,,,,2023-08-16_08h44.55.072,HF_wild_card,2022.2.4,Win32,59.10165485,5eb9499bcbc2140180e31037,64d2fd46c836a06233681665,64dc7e6befbc35fa1e2eb123,,,,,,,ctch,resources/DG.BMP,resources/DY.BMP,Door4,-0.280555556,0.15,1,0,0,0.7816,optionLeft,80,13265,6,17,0,17,0,1,,,,,,,,,,,,,,,,,,,,,,,,,,,,,,,,,,,,,,,
,,,,,,,,2023-08-16_08h44.55.072,HF_wild_card,2022.2.4,Win32,59.10165485,5eb9499bcbc2140180e31037,64d2fd46c836a06233681665,64dc7e6befbc35fa1e2eb123,,,,,,,sngl,resources/Empty.png,resources/DBN.BMP,WildCard_Ex,0.262963019,0.138888889,1,0,0,0.566,optionRight,5,13270,6,18,0,18,0,1,,,,,,,,,,,,,,,,,,,,,,,,,,,,,,,,,,,,,,,
,,,,,,,,2023-08-16_08h44.55.072,HF_wild_card,2022.2.4,Win32,59.10165485,5eb9499bcbc2140180e31037,64d2fd46c836a06233681665,64dc7e6befbc35fa1e2eb123,,,,,,,ctch,resources/DP.BMP,resources/DB.BMP,Door3,-0.362037023,0.1824074,1,0,0,0.8817,optionLeft,70,13340,6,19,0,19,0,1,,,,,,,,,,,,,,,,,,,,,,,,,,,,,,,,,,,,,,,
,,,,,,,,2023-08-16_08h44.55.072,HF_wild_card,2022.2.4,Win32,59.10165485,5eb9499bcbc2140180e31037,64d2fd46c836a06233681665,64dc7e6befbc35fa1e2eb123,,,,,,,decisionTrl,resources/DG.BMP,resources/DP.BMP,Door4,-0.300925912,0.146296289,1,0,0,1.2654,optionLeft,60,13400,6,20,0,20,0,1,,,,,,,,,,,,,,,,,,,,,,,,,,,,,,,,,,,,,,,
,,,,,,,,2023-08-16_08h44.55.072,HF_wild_card,2022.2.4,Win32,59.10165485,5eb9499bcbc2140180e31037,64d2fd46c836a06233681665,64dc7e6befbc35fa1e2eb123,,,,,,,decisionTrl,resources/DY.BMP,resources/DB.BMP,Door1,-0.275,0.160185178,1,0,0,0.8649,optionLeft,30,13430,6,21,0,21,0,1,,,,,,,,,,,,,,,,,,,,,,,,,,,,,,,,,,,,,,,
,,,,,,,,2023-08-16_08h44.55.072,HF_wild_card,2022.2.4,Win32,59.10165485,5eb9499bcbc2140180e31037,64d2fd46c836a06233681665,64dc7e6befbc35fa1e2eb123,,,,,,,sngl,resources/Empty.png,resources/DBN.BMP,WildCard_Ex,0.277777778,0.175925912,1,0,0,0.5822,optionRight,95,13525,6,22,0,22,0,1,,,,,,,,,,,,,,,,,,,,,,,,,,,,,,,,,,,,,,,
,,,,,,,,2023-08-16_08h44.55.072,HF_wild_card,2022.2.4,Win32,59.10165485,5eb9499bcbc2140180e31037,64d2fd46c836a06233681665,64dc7e6befbc35fa1e2eb123,,,,,,,ctch,resources/DY.BMP,resources/DG.BMP,Door4,0.364814843,0.270370356,1,0,0,1.232,optionRight,60,13585,6,23,0,23,0,1,,,,,,,,,,,,,,,,,,,,,,,,,,,,,,,,,,,,,,,
,,,,,,,,2023-08-16_08h44.55.072,HF_wild_card,2022.2.4,Win32,59.10165485,5eb9499bcbc2140180e31037,64d2fd46c836a06233681665,64dc7e6befbc35fa1e2eb123,,,,,,,decisionTrl,resources/DP.BMP,resources/DG.BMP,Door3,-0.387037023,0.191666667,1,0,0,0.7151,optionLeft,70,13655,6,24,0,24,0,1,,,,,,,,,,,,,,,,,,,,,,,,,,,,,,,,,,,,,,,
,,,,,,,,2023-08-16_08h44.55.072,HF_wild_card,2022.2.4,Win32,59.10165485,5eb9499bcbc2140180e31037,64d2fd46c836a06233681665,64dc7e6befbc35fa1e2eb123,,,,,,,decisionTrl,resources/DP.BMP,resources/DG.BMP,Door4,0.387963019,0.225925912,1,0,0,0.631,optionRight,60,13715,6,25,0,25,0,1,,,,,,,,,,,,,,,,,,,,,,,,,,,,,,,,,,,,,,,
,,,,,,,,2023-08-16_08h44.55.072,HF_wild_card,2022.2.4,Win32,59.10165485,5eb9499bcbc2140180e31037,64d2fd46c836a06233681665,64dc7e6befbc35fa1e2eb123,,,,,,,sngl,resources/DG.BMP,resources/Empty.png,Door4,-0.461111111,0.171296289,1,0,0,0.566,optionLeft,60,13775,6,26,0,26,0,1,,,,,,,,,,,,,,,,,,,,,,,,,,,,,,,,,,,,,,,
,,,,,,,,2023-08-16_08h44.55.072,HF_wild_card,2022.2.4,Win32,59.10165485,5eb9499bcbc2140180e31037,64d2fd46c836a06233681665,64dc7e6befbc35fa1e2eb123,,,,,,,ctch,resources/DY.BMP,resources/DG.BMP,Door4,0.373148176,0.169444444,1,0,0,0.5815,optionRight,80,13855,6,27,0,27,0,1,,,,,,,,,,,,,,,,,,,,,,,,,,,,,,,,,,,,,,,
,,,,,,,,2023-08-16_08h44.55.072,HF_wild_card,2022.2.4,Win32,59.10165485,5eb9499bcbc2140180e31037,64d2fd46c836a06233681665,64dc7e6befbc35fa1e2eb123,,,,,,,sngl,resources/Empty.png,resources/DP.BMP,Door3,0.38148151,0.141666667,1,0,0,0.4985,optionRight,70,13925,6,28,0,28,0,1,,,,,,,,,,,,,,,,,,,,,,,,,,,,,,,,,,,,,,,
,,,,,,,,2023-08-16_08h44.55.072,HF_wild_card,2022.2.4,Win32,59.10165485,5eb9499bcbc2140180e31037,64d2fd46c836a06233681665,64dc7e6befbc35fa1e2eb123,,,,,,,decisionTrl,resources/DB.BMP,resources/DBN.BMP,WildCard_Ex,0.314814843,0.197222222,1,0,0,0.6823,optionRight,5,13930,6,29,0,29,0,1,,,,,,,,,,,,,,,,,,,,,,,,,,,,,,,,,,,,,,,
,,,,,,,,2023-08-16_08h44.55.072,HF_wild_card,2022.2.4,Win32,59.10165485,5eb9499bcbc2140180e31037,64d2fd46c836a06233681665,64dc7e6befbc35fa1e2eb123,,,,,,,sngl,resources/DY.BMP,resources/Empty.png,Door1,-0.407407379,0.222222222,1,0,0,0.615,optionLeft,30,13960,6,30,0,30,0,1,,,,,,,,,,,,,,,,,,,,,,,,,,,,,,,,,,,,,,,
,,,,,,,,2023-08-16_08h44.55.072,HF_wild_card,2022.2.4,Win32,59.10165485,5eb9499bcbc2140180e31037,64d2fd46c836a06233681665,64dc7e6befbc35fa1e2eb123,,,,,,,sngl,resources/DBN.BMP,resources/Empty.png,WildCard_Ex,-0.375,0.212962956,1,0,0,0.5657,optionLeft,5,13965,6,31,0,31,0,1,,,,,,,,,,,,,,,,,,,,,,,,,,,,,,,,,,,,,,,
,,,,,,,,2023-08-16_08h44.55.072,HF_wild_card,2022.2.4,Win32,59.10165485,5eb9499bcbc2140180e31037,64d2fd46c836a06233681665,64dc7e6befbc35fa1e2eb123,,,,,,,decisionTrl,resources/DP.BMP,resources/DG.BMP,Door3,-0.376851824,0.17870369,1,0,0,0.7986,optionLeft,70,14035,6,32,0,32,0,1,,,,,,,,,,,,,,,,,,,,,,,,,,,,,,,,,,,,,,,
,,,,,,,,2023-08-16_08h44.55.072,HF_wild_card,2022.2.4,Win32,59.10165485,5eb9499bcbc2140180e31037,64d2fd46c836a06233681665,64dc7e6befbc35fa1e2eb123,,,,,,,ctch,resources/DP.BMP,resources/DB.BMP,Door3,-0.380555556,0.230555556,1,0,0,0.8481,optionLeft,70,14105,6,33,0,33,0,1,,,,,,,,,,,,,,,,,,,,,,,,,,,,,,,,,,,,,,,
,,,,,,,,2023-08-16_08h44.55.072,HF_wild_card,2022.2.4,Win32,59.10165485,5eb9499bcbc2140180e31037,64d2fd46c836a06233681665,64dc7e6befbc35fa1e2eb123,,,,,,,decisionTrl,resources/DY.BMP,resources/DBN.BMP,WildCard_Ex,0.298148176,0.184259245,1,0,0,0.848,optionRight,95,14200,6,34,0,34,0,1,,,,,,,,,,,,,,,,,,,,,,,,,,,,,,,,,,,,,,,
,,,,,,,,2023-08-16_08h44.55.072,HF_wild_card,2022.2.4,Win32,59.10165485,5eb9499bcbc2140180e31037,64d2fd46c836a06233681665,64dc7e6befbc35fa1e2eb123,,,,,,,decisionTrl,resources/DB.BMP,resources/DY.BMP,Door1,0.378703732,0.20370369,1,0,0,1.2821,optionRight,30,14230,6,35,0,35,0,1,,,,,,,,,,,,,,,,,,,,,,,,,,,,,,,,,,,,,,,
,,,,,,,,2023-08-16_08h44.55.072,HF_wild_card,2022.2.4,Win32,59.10165485,5eb9499bcbc2140180e31037,64d2fd46c836a06233681665,64dc7e6befbc35fa1e2eb123,,,,,,,decisionTrl,resources/DY.BMP,resources/DB.BMP,Door2,0.284259288,0.131481467,1,0,0,0.8159,optionRight,20,14250,6,36,0,36,0,1,,,,,,,,,,,,,,,,,,,,,,,,,,,,,,,,,,,,,,,
,,,,,,,,2023-08-16_08h44.55.072,HF_wild_card,2022.2.4,Win32,59.10165485,5eb9499bcbc2140180e31037,64d2fd46c836a06233681665,64dc7e6befbc35fa1e2eb123,,,,,,,decisionTrl,resources/DP.BMP,resources/DG.BMP,Door4,0.269444444,0.213888889,1,0,0,1.4991,optionRight,60,14310,6,37,0,37,0,1,,,,,,,,,,,,,,,,,,,,,,,,,,,,,,,,,,,,,,,
,,,,,,,,2023-08-16_08h44.55.072,HF_wild_card,2022.2.4,Win32,59.10165485,5eb9499bcbc2140180e31037,64d2fd46c836a06233681665,64dc7e6befbc35fa1e2eb123,,,,,,,decisionTrl,resources/DY.BMP,resources/DB.BMP,Door1,-0.394444444,0.284259245,1,0,0,0.9483,optionLeft,30,14340,6,38,0,38,0,1,,,,,,,,,,,,,,,,,,,,,,,,,,,,,,,,,,,,,,,
,,,,,,,,2023-08-16_08h44.55.072,HF_wild_card,2022.2.4,Win32,59.10165485,5eb9499bcbc2140180e31037,64d2fd46c836a06233681665,64dc7e6befbc35fa1e2eb123,,,,,,,decisionTrl,resources/DB.BMP,resources/DY.BMP,Door2,-0.350925912,0.17870369,1,0,0,0.9487,optionLeft,20,14360,6,39,0,39,0,1,,,,,,,,,,,,,,,,,,,,,,,,,,,,,,,,,,,,,,,
,,,,,,,,2023-08-16_08h44.55.072,HF_wild_card,2022.2.4,Win32,59.10165485,5eb9499bcbc2140180e31037,64d2fd46c836a06233681665,64dc7e6befbc35fa1e2eb123,,,,,,,decisionTrl,resources/DBN.BMP,resources/DG.BMP,WildCard_Ex,-0.313888889,0.184259245,1,0,0,0.6813,optionLeft,5,14365,6,40,0,40,0,1,,,,,,,,,,,,,,,,,,,,,,,,,,,,,,,,,,,,,,,
,,,,,,,,2023-08-16_08h44.55.072,HF_wild_card,2022.2.4,Win32,59.10165485,5eb9499bcbc2140180e31037,64d2fd46c836a06233681665,64dc7e6befbc35fa1e2eb123,,,,,,,sngl,resources/Empty.png,resources/DY.BMP,Door1,0.394444444,0.214814801,1,0,0,0.6818,optionRight,30,14395,6,41,0,41,0,1,,,,,,,,,,,,,,,,,,,,,,,,,,,,,,,,,,,,,,,
,,,,,,,,2023-08-16_08h44.55.072,HF_wild_card,2022.2.4,Win32,59.10165485,5eb9499bcbc2140180e31037,64d2fd46c836a06233681665,64dc7e6befbc35fa1e2eb123,,,,,,,sngl,resources/Empty.png,resources/DB.BMP,Door2,0.501851908,0.248148134,1,0,0,0.6157,optionRight,40,14435,6,42,0,42,0,1,,,,,,,,,,,,,,,,,,,,,,,,,,,,,,,,,,,,,,,
,,,,,,,,2023-08-16_08h44.55.072,HF_wild_card,2022.2.4,Win32,59.10165485,5eb9499bcbc2140180e31037,64d2fd46c836a06233681665,64dc7e6befbc35fa1e2eb123,,,,,,,decisionTrl,resources/DG.BMP,resources/DBN.BMP,WildCard_Ex,0.325925954,0.237037023,1,0,0,0.5657,optionRight,95,14530,6,43,0,43,0,1,,,,,,,,,,,,,,,,,,,,,,,,,,,,,,,,,,,,,,,
,,,,,,,,2023-08-16_08h44.55.072,HF_wild_card,2022.2.4,Win32,59.10165485,5eb9499bcbc2140180e31037,64d2fd46c836a06233681665,64dc7e6befbc35fa1e2eb123,,,,,,,,,,,,,,,,,,,,,,,,,,5,0,5,0,1,,,,,,,,,,,,,,,,,,,,,,,,,,,,,,,,,,
,,,,,,,,2023-08-16_08h44.55.072,HF_wild_card,2022.2.4,Win32,59.10165485,5eb9499bcbc2140180e31037,64d2fd46c836a06233681665,64dc7e6befbc35fa1e2eb123,,,,,,,ctch,resources/DG.BMP,resources/DY.BMP,Door4,-0.333333333,0.116666667,1,0,0,1.358,optionLeft,80,14610,7,0,0,0,0,1,,,,,,,,,,,,,,,,,,,,,,,,,,,,,,,,,,,,,,,
,,,,,,,,2023-08-16_08h44.55.072,HF_wild_card,2022.2.4,Win32,59.10165485,5eb9499bcbc2140180e31037,64d2fd46c836a06233681665,64dc7e6befbc35fa1e2eb123,,,,,,,ctch,resources/DP.BMP,resources/DB.BMP,Door3,-0.334259245,0.166666667,1,0,0,0.6821,optionLeft,70,14680,7,1,0,1,0,1,,,,,,,,,,,,,,,,,,,,,,,,,,,,,,,,,,,,,,,
,,,,,,,,2023-08-16_08h44.55.072,HF_wild_card,2022.2.4,Win32,59.10165485,5eb9499bcbc2140180e31037,64d2fd46c836a06233681665,64dc7e6befbc35fa1e2eb123,,,,,,,ctch,resources/DB.BMP,resources/DP.BMP,Door3,0.404629686,0.149074067,1,0,0,0.5993,optionRight,70,14750,7,2,0,2,0,1,,,,,,,,,,,,,,,,,,,,,,,,,,,,,,,,,,,,,,,
,,,,,,,,2023-08-16_08h44.55.072,HF_wild_card,2022.2.4,Win32,59.10165485,5eb9499bcbc2140180e31037,64d2fd46c836a06233681665,64dc7e6befbc35fa1e2eb123,,,,,,,decisionTrl,resources/DB.BMP,resources/DY.BMP,Door2,-0.417592578,0.2,1,0,0,0.8157,optionLeft,40,14790,7,3,0,3,0,1,,,,,,,,,,,,,,,,,,,,,,,,,,,,,,,,,,,,,,,
,,,,,,,,2023-08-16_08h44.55.072,HF_wild_card,2022.2.4,Win32,59.10165485,5eb9499bcbc2140180e31037,64d2fd46c836a06233681665,64dc7e6befbc35fa1e2eb123,,,,,,,ctch,resources/DP.BMP,resources/DB.BMP,Door3,-0.331481467,0.156481467,1,0,0,0.7995,optionLeft,70,14860,7,4,0,4,0,1,,,,,,,,,,,,,,,,,,,,,,,,,,,,,,,,,,,,,,,
,,,,,,,,2023-08-16_08h44.55.072,HF_wild_card,2022.2.4,Win32,59.10165485,5eb9499bcbc2140180e31037,64d2fd46c836a06233681665,64dc7e6befbc35fa1e2eb123,,,,,,,ctch,resources/DY.BMP,resources/DG.BMP,Door4,0.297222222,0.135185157,1,0,0,0.6661,optionRight,60,14920,7,5,0,5,0,1,,,,,,,,,,,,,,,,,,,,,,,,,,,,,,,,,,,,,,,
,,,,,,,,2023-08-16_08h44.55.072,HF_wild_card,2022.2.4,Win32,59.10165485,5eb9499bcbc2140180e31037,64d2fd46c836a06233681665,64dc7e6befbc35fa1e2eb123,,,,,,,decisionTrl,resources/DG.BMP,resources/DP.BMP,Door3,0.274074131,0.187037023,1,0,0,1.2659,optionRight,70,14990,7,6,0,6,0,1,,,,,,,,,,,,,,,,,,,,,,,,,,,,,,,,,,,,,,,
,,,,,,,,2023-08-16_08h44.55.072,HF_wild_card,2022.2.4,Win32,59.10165485,5eb9499bcbc2140180e31037,64d2fd46c836a06233681665,64dc7e6befbc35fa1e2eb123,,,,,,,decisionTrl,resources/DY.BMP,resources/DB.BMP,Door1,-0.245370356,0.185185178,1,0,0,1.3502,optionLeft,30,15020,7,7,0,7,0,1,,,,,,,,,,,,,,,,,,,,,,,,,,,,,,,,,,,,,,,
,,,,,,,,2023-08-16_08h44.55.072,HF_wild_card,2022.2.4,Win32,59.10165485,5eb9499bcbc2140180e31037,64d2fd46c836a06233681665,64dc7e6befbc35fa1e2eb123,,,,,,,decisionTrl,resources/DY.BMP,resources/DB.BMP,Door1,-0.507407379,0.206481467,1,0,0,0.7154,optionLeft,30,15050,7,8,0,8,0,1,,,,,,,,,,,,,,,,,,,,,,,,,,,,,,,,,,,,,,,
,,,,,,,,2023-08-16_08h44.55.072,HF_wild_card,2022.2.4,Win32,59.10165485,5eb9499bcbc2140180e31037,64d2fd46c836a06233681665,64dc7e6befbc35fa1e2eb123,,,,,,,ctch,resources/DP.BMP,resources/DB.BMP,Door3,-0.382407379,0.162962956,1,0,0,0.7161,optionLeft,70,15120,7,9,0,9,0,1,,,,,,,,,,,,,,,,,,,,,,,,,,,,,,,,,,,,,,,
,,,,,,,,2023-08-16_08h44.55.072,HF_wild_card,2022.2.4,Win32,59.10165485,5eb9499bcbc2140180e31037,64d2fd46c836a06233681665,64dc7e6befbc35fa1e2eb123,,,,,,,ctch,resources/DB.BMP,resources/DP.BMP,Door3,0.326851908,0.081481467,1,0,0,0.6492,optionRight,70,15190,7,10,0,10,0,1,,,,,,,,,,,,,,,,,,,,,,,,,,,,,,,,,,,,,,,
,,,,,,,,2023-08-16_08h44.55.072,HF_wild_card,2022.2.4,Win32,59.10165485,5eb9499bcbc2140180e31037,64d2fd46c836a06233681665,64dc7e6befbc35fa1e2eb123,,,,,,,decisionTrl,resources/DP.BMP,resources/DG.BMP,Door4,0.446296353,0.112962935,1,0,0,0.7489,optionRight,60,15250,7,11,0,11,0,1,,,,,,,,,,,,,,,,,,,,,,,,,,,,,,,,,,,,,,,
,,,,,,,,2023-08-16_08h44.55.072,HF_wild_card,2022.2.4,Win32,59.10165485,5eb9499bcbc2140180e31037,64d2fd46c836a06233681665,64dc7e6befbc35fa1e2eb123,,,,,,,decisionTrl,resources/DY.BMP,resources/DB.BMP,Door1,-0.325,0.123148134,1,0,0,0.8158,optionLeft,30,15280,7,12,0,12,0,1,,,,,,,,,,,,,,,,,,,,,,,,,,,,,,,,,,,,,,,
,,,,,,,,2023-08-16_08h44.55.072,HF_wild_card,2022.2.4,Win32,59.10165485,5eb9499bcbc2140180e31037,64d2fd46c836a06233681665,64dc7e6befbc35fa1e2eb123,,,,,,,ctch,resources/DG.BMP,resources/DY.BMP,Door4,-0.398148134,0.159259245,1,0,0,0.5985,optionLeft,80,15360,7,13,0,13,0,1,,,,,,,,,,,,,,,,,,,,,,,,,,,,,,,,,,,,,,,
,,,,,,,,2023-08-16_08h44.55.072,HF_wild_card,2022.2.4,Win32,59.10165485,5eb9499bcbc2140180e31037,64d2fd46c836a06233681665,64dc7e6befbc35fa1e2eb123,,,,,,,decisionTrl,resources/DP.BMP,resources/DG.BMP,Door3,-0.373148134,0.141666667,1,0,0,0.6994,optionLeft,70,15430,7,14,0,14,0,1,,,,,,,,,,,,,,,,,,,,,,,,,,,,,,,,,,,,,,,
,,,,,,,,2023-08-16_08h44.55.072,HF_wild_card,2022.2.4,Win32,59.10165485,5eb9499bcbc2140180e31037,64d2fd46c836a06233681665,64dc7e6befbc35fa1e2eb123,,,,,,,ctch,resources/DY.BMP,resources/DG.BMP,Door4,0.312963019,0.074074046,1,0,0,0.6327,optionRight,60,15490,7,15,0,15,0,1,,,,,,,,,,,,,,,,,,,,,,,,,,,,,,,,,,,,,,,
,,,,,,,,2023-08-16_08h44.55.072,HF_wild_card,2022.2.4,Win32,59.10165485,5eb9499bcbc2140180e31037,64d2fd46c836a06233681665,64dc7e6befbc35fa1e2eb123,,,,,,,decisionTrl,resources/DB.BMP,resources/DY.BMP,Door1,0.294444444,0.175925912,1,0,0,1.5186,optionRight,30,15520,7,16,0,16,0,1,,,,,,,,,,,,,,,,,,,,,,,,,,,,,,,,,,,,,,,
,,,,,,,,2023-08-16_08h44.55.072,HF_wild_card,2022.2.4,Win32,59.10165485,5eb9499bcbc2140180e31037,64d2fd46c836a06233681665,64dc7e6befbc35fa1e2eb123,,,,,,,decisionTrl,resources/DB.BMP,resources/DY.BMP,Door1,0.285185242,0.088888889,1,0,0,0.7835,optionRight,30,15550,7,17,0,17,0,1,,,,,,,,,,,,,,,,,,,,,,,,,,,,,,,,,,,,,,,
,,,,,,,,2023-08-16_08h44.55.072,HF_wild_card,2022.2.4,Win32,59.10165485,5eb9499bcbc2140180e31037,64d2fd46c836a06233681665,64dc7e6befbc35fa1e2eb123,,,,,,,ctch,resources/DY.BMP,resources/DG.BMP,Door4,0.308333333,0.119444444,1,0,0,0.6161,optionRight,80,15630,7,18,0,18,0,1,,,,,,,,,,,,,,,,,,,,,,,,,,,,,,,,,,,,,,,
,,,,,,,,2023-08-16_08h44.55.072,HF_wild_card,2022.2.4,Win32,59.10165485,5eb9499bcbc2140180e31037,64d2fd46c836a06233681665,64dc7e6befbc35fa1e2eb123,,,,,,,decisionTrl,resources/DY.BMP,resources/DB.BMP,Door1,-0.449074046,0.139814801,1,0,0,0.9495,optionLeft,30,15660,7,19,0,19,0,1,,,,,,,,,,,,,,,,,,,,,,,,,,,,,,,,,,,,,,,
,,,,,,,,2023-08-16_08h44.55.072,HF_wild_card,2022.2.4,Win32,59.10165485,5eb9499bcbc2140180e31037,64d2fd46c836a06233681665,64dc7e6befbc35fa1e2eb123,,,,,,,decisionTrl,resources/DP.BMP,resources/DG.BMP,Door3,-0.296296268,0.138888889,1,0,0,0.8998,optionLeft,70,15730,7,20,0,20,0,1,,,,,,,,,,,,,,,,,,,,,,,,,,,,,,,,,,,,,,,
,,,,,,,,2023-08-16_08h44.55.072,HF_wild_card,2022.2.4,Win32,59.10165485,5eb9499bcbc2140180e31037,64d2fd46c836a06233681665,64dc7e6befbc35fa1e2eb123,,,,,,,decisionTrl,resources/DG.BMP,resources/DP.BMP,Door3,0.475,0.150925912,1,0,0,1.4161,optionRight,70,15800,7,21,0,21,0,1,,,,,,,,,,,,,,,,,,,,,,,,,,,,,,,,,,,,,,,
,,,,,,,,2023-08-16_08h44.55.072,HF_wild_card,2022.2.4,Win32,59.10165485,5eb9499bcbc2140180e31037,64d2fd46c836a06233681665,64dc7e6befbc35fa1e2eb123,,,,,,,decisionTrl,resources/DB.BMP,resources/DY.BMP,Door1,0.276851908,0.112037023,1,0,0,0.7161,optionRight,30,15830,7,22,0,22,0,1,,,,,,,,,,,,,,,,,,,,,,,,,,,,,,,,,,,,,,,
,,,,,,,,2023-08-16_08h44.55.072,HF_wild_card,2022.2.4,Win32,59.10165485,5eb9499bcbc2140180e31037,64d2fd46c836a06233681665,64dc7e6befbc35fa1e2eb123,,,,,,,decisionTrl,resources/DP.BMP,resources/DG.BMP,Door3,-0.364814801,0.156481467,1,0,0,0.7831,optionLeft,70,15900,7,23,0,23,0,1,,,,,,,,,,,,,,,,,,,,,,,,,,,,,,,,,,,,,,,
,,,,,,,,2023-08-16_08h44.55.072,HF_wild_card,2022.2.4,Win32,59.10165485,5eb9499bcbc2140180e31037,64d2fd46c836a06233681665,64dc7e6befbc35fa1e2eb123,,,,,,,decisionTrl,resources/DB.BMP,resources/DY.BMP,Door1,0.387037065,0.235185178,1,0,0,0.65,optionRight,30,15930,7,24,0,24,0,1,,,,,,,,,,,,,,,,,,,,,,,,,,,,,,,,,,,,,,,
,,,,,,,,2023-08-16_08h44.55.072,HF_wild_card,2022.2.4,Win32,59.10165485,5eb9499bcbc2140180e31037,64d2fd46c836a06233681665,64dc7e6befbc35fa1e2eb123,,,,,,,decisionTrl,resources/DP.BMP,resources/DG.BMP,Door3,-0.294444444,0.148148134,1,0,0,0.7662,optionLeft,70,16000,7,25,0,25,0,1,,,,,,,,,,,,,,,,,,,,,,,,,,,,,,,,,,,,,,,
,,,,,,,,2023-08-16_08h44.55.072,HF_wild_card,2022.2.4,Win32,59.10165485,5eb9499bcbc2140180e31037,64d2fd46c836a06233681665,64dc7e6befbc35fa1e2eb123,,,,,,,ctch,resources/DG.BMP,resources/DY.BMP,Door4,-0.247222222,0.081481467,1,0,0,0.8106,optionLeft,60,16060,7,26,0,26,0,1,,,,,,,,,,,,,,,,,,,,,,,,,,,,,,,,,,,,,,,
,,,,,,,,2023-08-16_08h44.55.072,HF_wild_card,2022.2.4,Win32,59.10165485,5eb9499bcbc2140180e31037,64d2fd46c836a06233681665,64dc7e6befbc35fa1e2eb123,,,,,,,decisionTrl,resources/DY.BMP,resources/DB.BMP,Door1,-0.340740712,0.180555556,1,0,0,0.6838,optionLeft,30,16090,7,27,0,27,0,1,,,,,,,,,,,,,,,,,,,,,,,,,,,,,,,,,,,,,,,
,,,,,,,,2023-08-16_08h44.55.072,HF_wild_card,2022.2.4,Win32,59.10165485,5eb9499bcbc2140180e31037,64d2fd46c836a06233681665,64dc7e6befbc35fa1e2eb123,,,,,,,decisionTrl,resources/DG.BMP,resources/DP.BMP,Door3,0.332407464,0.159259245,1,0,0,0.8665,optionRight,70,16160,7,28,0,28,0,1,,,,,,,,,,,,,,,,,,,,,,,,,,,,,,,,,,,,,,,
,,,,,,,,2023-08-16_08h44.55.072,HF_wild_card,2022.2.4,Win32,59.10165485,5eb9499bcbc2140180e31037,64d2fd46c836a06233681665,64dc7e6befbc35fa1e2eb123,,,,,,,ctch,resources/DB.BMP,resources/DP.BMP,Door3,0.352777778,0.101851824,1,0,0,0.5997,optionRight,70,16230,7,29,0,29,0,1,,,,,,,,,,,,,,,,,,,,,,,,,,,,,,,,,,,,,,,
,,,,,,,,2023-08-16_08h44.55.072,HF_wild_card,2022.2.4,Win32,59.10165485,5eb9499bcbc2140180e31037,64d2fd46c836a06233681665,64dc7e6befbc35fa1e2eb123,,,,,,,decisionTrl,resources/DG.BMP,resources/DP.BMP,Door3,0.249074131,0.070370356,1,0,0,0.6666,optionRight,70,16300,7,30,0,30,0,1,,,,,,,,,,,,,,,,,,,,,,,,,,,,,,,,,,,,,,,
,,,,,,,,2023-08-16_08h44.55.072,HF_wild_card,2022.2.4,Win32,59.10165485,5eb9499bcbc2140180e31037,64d2fd46c836a06233681665,64dc7e6befbc35fa1e2eb123,,,,,,,decisionTrl,resources/DG.BMP,resources/DP.BMP,Door3,0.338888889,0.14351849,1,0,0,0.6174,optionRight,70,16370,7,31,0,31,0,1,,,,,,,,,,,,,,,,,,,,,,,,,,,,,,,,,,,,,,,
,,,,,,,,2023-08-16_08h44.55.072,HF_wild_card,2022.2.4,Win32,59.10165485,5eb9499bcbc2140180e31037,64d2fd46c836a06233681665,64dc7e6befbc35fa1e2eb123,,,,,,,decisionTrl,resources/DY.BMP,resources/DB.BMP,Door1,-0.432407379,0.138888889,1,0,0,0.7486,optionLeft,30,16400,7,32,0,32,0,1,,,,,,,,,,,,,,,,,,,,,,,,,,,,,,,,,,,,,,,
,,,,,,,,2023-08-16_08h44.55.072,HF_wild_card,2022.2.4,Win32,59.10165485,5eb9499bcbc2140180e31037,64d2fd46c836a06233681665,64dc7e6befbc35fa1e2eb123,,,,,,,decisionTrl,resources/DP.BMP,resources/DG.BMP,Door3,-0.379629601,0.171296289,1,0,0,0.6827,optionLeft,70,16470,7,33,0,33,0,1,,,,,,,,,,,,,,,,,,,,,,,,,,,,,,,,,,,,,,,
,,,,,,,,2023-08-16_08h44.55.072,HF_wild_card,2022.2.4,Win32,59.10165485,5eb9499bcbc2140180e31037,64d2fd46c836a06233681665,64dc7e6befbc35fa1e2eb123,,,,,,,decisionTrl,resources/DB.BMP,resources/DY.BMP,Door1,0.338888889,0.181481467,1,0,0,0.8823,optionRight,30,16500,7,34,0,34,0,1,,,,,,,,,,,,,,,,,,,,,,,,,,,,,,,,,,,,,,,
,,,,,,,,2023-08-16_08h44.55.072,HF_wild_card,2022.2.4,Win32,59.10165485,5eb9499bcbc2140180e31037,64d2fd46c836a06233681665,64dc7e6befbc35fa1e2eb123,,,,,,,decisionTrl,resources/DG.BMP,resources/DP.BMP,Door3,0.403703732,0.210185178,1,0,0,1.0818,optionRight,70,16570,7,35,0,35,0,1,,,,,,,,,,,,,,,,,,,,,,,,,,,,,,,,,,,,,,,
,,,,,,,,2023-08-16_08h44.55.072,HF_wild_card,2022.2.4,Win32,59.10165485,5eb9499bcbc2140180e31037,64d2fd46c836a06233681665,64dc7e6befbc35fa1e2eb123,,,,,,,,,,,,,,,,,,,,,,,,,,6,0,6,0,1,,,,,,,,,,,,,,,,,,,,,,,,,,,,,,,,,,
,,,,,,,,2023-08-16_08h44.55.072,HF_wild_card,2022.2.4,Win32,59.10165485,5eb9499bcbc2140180e31037,64d2fd46c836a06233681665,64dc7e6befbc35fa1e2eb123,,,,,,,,,,,,,,,,,,,,,,,,,,,,,,,4,,,,,,,,,,,,,,,,,,,,,,,,,,,,,,,,,
,,,,,,,,2023-08-16_08h44.55.072,HF_wild_card,2022.2.4,Win32,59.10165485,5eb9499bcbc2140180e31037,64d2fd46c836a06233681665,64dc7e6befbc35fa1e2eb123,,,,,,,,,,,,,,,,,,,,,,,,,,,,,,,,,,,,,,,,,,,,,,,,,,,,,,,,,,,,,,,,
,,,,,,,,2023-08-16_08h44.55.072,HF_wild_card,2022.2.4,Win32,59.10165485,5eb9499bcbc2140180e31037,64d2fd46c836a06233681665,64dc7e6befbc35fa1e2eb123,,,,,,,,,,,,,,,,,,,,,,,,,,,,,,,,60,Door4,resources/DG.BMP,0,0,0,0,1,,,,,,,,,,,,,,,,,,,,,,,,,
,,,,,,,,2023-08-16_08h44.55.072,HF_wild_card,2022.2.4,Win32,59.10165485,5eb9499bcbc2140180e31037,64d2fd46c836a06233681665,64dc7e6befbc35fa1e2eb123,,,,,,,,,,,,,,,,,,,,,,,,,,,,,,,,20,Door2,resources/DB.BMP,1,0,1,0,1,,,,,,,,,,,,,,,,,,,,,,,,,
,,,,,,,,2023-08-16_08h44.55.072,HF_wild_card,2022.2.4,Win32,59.10165485,5eb9499bcbc2140180e31037,64d2fd46c836a06233681665,64dc7e6befbc35fa1e2eb123,,,,,,,,,,,,,,,,,,,,,,,,,,,,,,,,80,Door3,resources/DP.BMP,2,0,2,0,1,,,,,,,,,,,,,,,,,,,,,,,,,
,,,,,,,,2023-08-16_08h44.55.072,HF_wild_card,2022.2.4,Win32,59.10165485,5eb9499bcbc2140180e31037,64d2fd46c836a06233681665,64dc7e6befbc35fa1e2eb123,,,,,,,,,,,,,,,,,,,,,,,,,,,,,,,,30,Door1,resources/DY.BMP,3,0,3,0,1,,,,,,,,,,,,,,,,,,,,,,,,,
,,,,,,,,2023-08-16_08h44.55.072,HF_wild_card,2022.2.4,Win32,59.10165485,5eb9499bcbc2140180e31037,64d2fd46c836a06233681665,64dc7e6befbc35fa1e2eb123,,,,,,,,,,,,,,,,,,,,,,,,,,,,,,,,45,WC_nonExtreme,resources/DR.BMP,4,0,4,0,1,,,,,,,,,,,,,,,,,,,,,,,,,
,,,,,,,,2023-08-16_08h44.55.072,HF_wild_card,2022.2.4,Win32,59.10165485,5eb9499bcbc2140180e31037,64d2fd46c836a06233681665,64dc7e6befbc35fa1e2eb123,,,,,,,,,,,,,,,,,,,,,,,,,,,,,,,,95,WC_extreme,resources/DBN.BMP,5,0,5,0,1,,,,,,,,,,,,,,,,,,,,,,,,,
,,,,,,,,2023-08-16_08h44.55.072,HF_wild_card,2022.2.4,Win32,59.10165485,5eb9499bcbc2140180e31037,64d2fd46c836a06233681665,64dc7e6befbc35fa1e2eb123,,,,,,,,,,,,,,,,,,,,,,,,,,,,,,,,,,,,,,,,,,,,,,,,,,,,,,,,,,,,,,,,
,,,,,,,,2023-08-16_08h44.55.072,HF_wild_card,2022.2.4,Win32,59.10165485,5eb9499bcbc2140180e31037,64d2fd46c836a06233681665,64dc7e6befbc35fa1e2eb123,,,,,,,,,,,,,,,,,,,,,,,,,,,,,,,,,,,,,,,,0,0,0,0,1,,,,,,,,,,,,,,,,,,,,
,,,,,,,,2023-08-16_08h44.55.072,HF_wild_card,2022.2.4,Win32,59.10165485,5eb9499bcbc2140180e31037,64d2fd46c836a06233681665,64dc7e6befbc35fa1e2eb123,,,,,,,,,,,,,,,,,,,,,,,,,,,,,,,,,,,,,,,,1,0,1,0,1,,,,,,,,,,,,,,,,,,,,
