Condition,Low fixed image (Door1),Low risky image (Door2),High fixed image (Door3),High risky image (Door4),Extreme Wild Card,NonExtreme Wild Card,,date,expName,psychopyVersion,OS,frameRate,PROLIFIC_PID,STUDY_ID,SESSION_ID,mouse_2.x,mouse_2.y,mouse_2.leftButton,mouse_2.midButton,mouse_2.rightButton,mouse_2.clicked_name,Trial Type,Left Option Image,Right Option Image,Chosen Door,mouse.x,mouse.y,mouse.leftButton,mouse.midButton,mouse.rightButton,mouse.time,mouse.clicked_name,Feedback,Cumulative Reward,Block,trial.thisRepN,trial.thisTrialN,trial.thisN,trial.thisIndex,trial.ran,blocks.thisRepN,blocks.thisTrialN,blocks.thisN,blocks.thisIndex,blocks.ran,Money conversion,First Outcome Reported,Shown Door (First Outcome),Displayed Image (First Outcome),outcomes.thisRepN,outcomes.thisTrialN,outcomes.thisN,outcomes.thisIndex,outcomes.ran,judgments.thisRepN,judgments.thisTrialN,judgments.thisN,judgments.thisIndex,judgments.ran,freqMouse.x,freqMouse.y,freqMouse.leftButton,freqMouse.midButton,freqMouse.rightButton,freqMouse.clicked_name,FQJ for first outcome,FQJ for second outcome,Shown Door,Displayed Image,trials.thisRepN,trials.thisTrialN,trials.thisN,trials.thisIndex,trials.ran,judgBlock.thisRepN,judgBlock.thisTrialN,judgBlock.thisN,judgBlock.thisIndex,judgBlock.ran
1,resources/DR.BMP,resources/DY.BMP,resources/DBN.BMP,resources/DB.BMP,resources/DG.BMP,resources/DP.BMP,,2023-08-16_08h49.06.545,HF_wild_card,2022.2.4,Win32,59.95922773,5aeaf3c226b6680001698375,64d2fd46c836a06233681665,64dc7f6dc002480885e2960e,,,,,,,,,,,,,,,,,,,,,,,,,,,,,,,,,,,,,,,,,,,,,,,,,,,,,,,,,,,,,,,,
,,,,,,,,2023-08-16_08h49.06.545,HF_wild_card,2022.2.4,Win32,59.95922773,5aeaf3c226b6680001698375,64d2fd46c836a06233681665,64dc7f6dc002480885e2960e,0.003703704,-0.423148148,1,0,0,agree,,,,,,,,,,,,,,,,,,,,,,,,,,,,,,,,,,,,,,,,,,,,,,,,,,,,,,,,,,
,,,,,,,,2023-08-16_08h49.06.545,HF_wild_card,2022.2.4,Win32,59.95922773,5aeaf3c226b6680001698375,64d2fd46c836a06233681665,64dc7f6dc002480885e2960e,,,,,,,,,,,,,,,,,,,,,,,,,,,,,,,,,,,,,,,,,,,,,,,,,,,,,,,,,,,,,,,,
,,,,,,,,2023-08-16_08h49.06.545,HF_wild_card,2022.2.4,Win32,59.95922773,5aeaf3c226b6680001698375,64d2fd46c836a06233681665,64dc7f6dc002480885e2960e,,,,,,,sngl,resources/Empty.png,resources/DY.BMP,Door2,0.396296296,-0.073148148,1,0,0,1.6955,optionRight,20,20,1,0,0,0,0,1,,,,,,,,,,,,,,,,,,,,,,,,,,,,,,,,,,,,,,,
,,,,,,,,2023-08-16_08h49.06.545,HF_wild_card,2022.2.4,Win32,59.95922773,5aeaf3c226b6680001698375,64d2fd46c836a06233681665,64dc7f6dc002480885e2960e,,,,,,,decisionTrl,resources/DP.BMP,resources/DBN.BMP,Door3,0.440740741,-0.030555556,1,0,0,2.913,optionRight,70,90,1,1,0,1,0,1,,,,,,,,,,,,,,,,,,,,,,,,,,,,,,,,,,,,,,,
,,,,,,,,2023-08-16_08h49.06.545,HF_wild_card,2022.2.4,Win32,59.95922773,5aeaf3c226b6680001698375,64d2fd46c836a06233681665,64dc7f6dc002480885e2960e,,,,,,,decisionTrl,resources/DR.BMP,resources/DP.BMP,Door1,-0.259259259,-0.033333333,1,0,0,4.2453,optionLeft,30,120,1,2,0,2,0,1,,,,,,,,,,,,,,,,,,,,,,,,,,,,,,,,,,,,,,,
,,,,,,,,2023-08-16_08h49.06.545,HF_wild_card,2022.2.4,Win32,59.95922773,5aeaf3c226b6680001698375,64d2fd46c836a06233681665,64dc7f6dc002480885e2960e,,,,,,,decisionTrl,resources/DY.BMP,resources/DR.BMP,Door2,-0.275,-0.046296296,1,0,0,2.6646,optionLeft,20,140,1,3,0,3,0,1,,,,,,,,,,,,,,,,,,,,,,,,,,,,,,,,,,,,,,,
,,,,,,,,2023-08-16_08h49.06.545,HF_wild_card,2022.2.4,Win32,59.95922773,5aeaf3c226b6680001698375,64d2fd46c836a06233681665,64dc7f6dc002480885e2960e,,,,,,,decisionTrl,resources/DB.BMP,resources/DBN.BMP,Door3,0.47962963,-0.052777778,1,0,0,1.1295,optionRight,70,210,1,4,0,4,0,1,,,,,,,,,,,,,,,,,,,,,,,,,,,,,,,,,,,,,,,
,,,,,,,,2023-08-16_08h49.06.545,HF_wild_card,2022.2.4,Win32,59.95922773,5aeaf3c226b6680001698375,64d2fd46c836a06233681665,64dc7f6dc002480885e2960e,,,,,,,decisionTrl,resources/DB.BMP,resources/DBN.BMP,Door3,0.360185185,-0.010185185,1,0,0,0.5466,optionRight,70,280,1,5,0,5,0,1,,,,,,,,,,,,,,,,,,,,,,,,,,,,,,,,,,,,,,,
,,,,,,,,2023-08-16_08h49.06.545,HF_wild_card,2022.2.4,Win32,59.95922773,5aeaf3c226b6680001698375,64d2fd46c836a06233681665,64dc7f6dc002480885e2960e,,,,,,,sngl,resources/DR.BMP,resources/Empty.png,Door1,-0.238888889,-0.065740741,1,0,0,0.8961,optionLeft,30,310,1,6,0,6,0,1,,,,,,,,,,,,,,,,,,,,,,,,,,,,,,,,,,,,,,,
,,,,,,,,2023-08-16_08h49.06.545,HF_wild_card,2022.2.4,Win32,59.95922773,5aeaf3c226b6680001698375,64d2fd46c836a06233681665,64dc7f6dc002480885e2960e,,,,,,,decisionTrl,resources/DY.BMP,resources/DP.BMP,Door2,-0.323148148,-0.108333333,1,0,0,1.0618,optionLeft,40,350,1,7,0,7,0,1,,,,,,,,,,,,,,,,,,,,,,,,,,,,,,,,,,,,,,,
,,,,,,,,2023-08-16_08h49.06.545,HF_wild_card,2022.2.4,Win32,59.95922773,5aeaf3c226b6680001698375,64d2fd46c836a06233681665,64dc7f6dc002480885e2960e,,,,,,,sngl,resources/Empty.png,resources/DBN.BMP,Door3,0.401851852,-0.035185185,1,0,0,0.7793,optionRight,70,420,1,8,0,8,0,1,,,,,,,,,,,,,,,,,,,,,,,,,,,,,,,,,,,,,,,
,,,,,,,,2023-08-16_08h49.06.545,HF_wild_card,2022.2.4,Win32,59.95922773,5aeaf3c226b6680001698375,64d2fd46c836a06233681665,64dc7f6dc002480885e2960e,,,,,,,decisionTrl,resources/DY.BMP,resources/DR.BMP,Door2,-0.233333333,-0.077777778,1,0,0,1.4296,optionLeft,40,460,1,9,0,9,0,1,,,,,,,,,,,,,,,,,,,,,,,,,,,,,,,,,,,,,,,
,,,,,,,,2023-08-16_08h49.06.545,HF_wild_card,2022.2.4,Win32,59.95922773,5aeaf3c226b6680001698375,64d2fd46c836a06233681665,64dc7f6dc002480885e2960e,,,,,,,sngl,resources/Empty.png,resources/DP.BMP,WildCard_NonEx,0.331481481,0.007407407,1,0,0,0.7308,optionRight,45,505,1,10,0,10,0,1,,,,,,,,,,,,,,,,,,,,,,,,,,,,,,,,,,,,,,,
,,,,,,,,2023-08-16_08h49.06.545,HF_wild_card,2022.2.4,Win32,59.95922773,5aeaf3c226b6680001698375,64d2fd46c836a06233681665,64dc7f6dc002480885e2960e,,,,,,,decisionTrl,resources/DB.BMP,resources/DP.BMP,Door4,-0.191666667,-0.07037037,1,0,0,1.6485,optionLeft,80,585,1,11,0,11,0,1,,,,,,,,,,,,,,,,,,,,,,,,,,,,,,,,,,,,,,,
,,,,,,,,2023-08-16_08h49.06.545,HF_wild_card,2022.2.4,Win32,59.95922773,5aeaf3c226b6680001698375,64d2fd46c836a06233681665,64dc7f6dc002480885e2960e,,,,,,,decisionTrl,resources/DR.BMP,resources/DY.BMP,Door1,-0.306481481,-0.063888889,1,0,0,1.6466,optionLeft,30,615,1,12,0,12,0,1,,,,,,,,,,,,,,,,,,,,,,,,,,,,,,,,,,,,,,,
,,,,,,,,2023-08-16_08h49.06.545,HF_wild_card,2022.2.4,Win32,59.95922773,5aeaf3c226b6680001698375,64d2fd46c836a06233681665,64dc7f6dc002480885e2960e,,,,,,,decisionTrl,resources/DB.BMP,resources/DBN.BMP,Door3,0.347222222,-0.007407407,1,0,0,0.9147,optionRight,70,685,1,13,0,13,0,1,,,,,,,,,,,,,,,,,,,,,,,,,,,,,,,,,,,,,,,
,,,,,,,,2023-08-16_08h49.06.545,HF_wild_card,2022.2.4,Win32,59.95922773,5aeaf3c226b6680001698375,64d2fd46c836a06233681665,64dc7f6dc002480885e2960e,,,,,,,decisionTrl,resources/DR.BMP,resources/DY.BMP,Door2,0.293518519,-0.015740741,1,0,0,3.0316,optionRight,20,705,1,14,0,14,0,1,,,,,,,,,,,,,,,,,,,,,,,,,,,,,,,,,,,,,,,
,,,,,,,,2023-08-16_08h49.06.545,HF_wild_card,2022.2.4,Win32,59.95922773,5aeaf3c226b6680001698375,64d2fd46c836a06233681665,64dc7f6dc002480885e2960e,,,,,,,ctch,resources/DBN.BMP,resources/DY.BMP,Door3,-0.315740741,-0.018518519,1,0,0,0.879,optionLeft,70,775,1,15,0,15,0,1,,,,,,,,,,,,,,,,,,,,,,,,,,,,,,,,,,,,,,,
,,,,,,,,2023-08-16_08h49.06.545,HF_wild_card,2022.2.4,Win32,59.95922773,5aeaf3c226b6680001698375,64d2fd46c836a06233681665,64dc7f6dc002480885e2960e,,,,,,,decisionTrl,resources/DY.BMP,resources/DR.BMP,Door1,0.280555556,-0.027777778,1,0,0,1.8465,optionRight,30,805,1,16,0,16,0,1,,,,,,,,,,,,,,,,,,,,,,,,,,,,,,,,,,,,,,,
,,,,,,,,2023-08-16_08h49.06.545,HF_wild_card,2022.2.4,Win32,59.95922773,5aeaf3c226b6680001698375,64d2fd46c836a06233681665,64dc7f6dc002480885e2960e,,,,,,,ctch,resources/DB.BMP,resources/DR.BMP,Door4,-0.24537037,-0.02962963,1,0,0,1.6138,optionLeft,80,885,1,17,0,17,0,1,,,,,,,,,,,,,,,,,,,,,,,,,,,,,,,,,,,,,,,
,,,,,,,,2023-08-16_08h49.06.545,HF_wild_card,2022.2.4,Win32,59.95922773,5aeaf3c226b6680001698375,64d2fd46c836a06233681665,64dc7f6dc002480885e2960e,,,,,,,sngl,resources/DB.BMP,resources/Empty.png,Door4,-0.262037037,-0.002777778,1,0,0,0.5308,optionLeft,80,965,1,18,0,18,0,1,,,,,,,,,,,,,,,,,,,,,,,,,,,,,,,,,,,,,,,
,,,,,,,,2023-08-16_08h49.06.545,HF_wild_card,2022.2.4,Win32,59.95922773,5aeaf3c226b6680001698375,64d2fd46c836a06233681665,64dc7f6dc002480885e2960e,,,,,,,sngl,resources/DY.BMP,resources/Empty.png,Door2,-0.3,-0.008333333,1,0,0,1.963,optionLeft,40,1005,1,19,0,19,0,1,,,,,,,,,,,,,,,,,,,,,,,,,,,,,,,,,,,,,,,
,,,,,,,,2023-08-16_08h49.06.545,HF_wild_card,2022.2.4,Win32,59.95922773,5aeaf3c226b6680001698375,64d2fd46c836a06233681665,64dc7f6dc002480885e2960e,,,,,,,ctch,resources/DB.BMP,resources/DR.BMP,Door4,-0.338888889,0,1,0,0,0.9135,optionLeft,80,1085,1,20,0,20,0,1,,,,,,,,,,,,,,,,,,,,,,,,,,,,,,,,,,,,,,,
,,,,,,,,2023-08-16_08h49.06.545,HF_wild_card,2022.2.4,Win32,59.95922773,5aeaf3c226b6680001698375,64d2fd46c836a06233681665,64dc7f6dc002480885e2960e,,,,,,,ctch,resources/DR.BMP,resources/DB.BMP,Door4,0.344444444,-0.007407407,1,0,0,0.5807,optionRight,80,1165,1,21,0,21,0,1,,,,,,,,,,,,,,,,,,,,,,,,,,,,,,,,,,,,,,,
,,,,,,,,2023-08-16_08h49.06.545,HF_wild_card,2022.2.4,Win32,59.95922773,5aeaf3c226b6680001698375,64d2fd46c836a06233681665,64dc7f6dc002480885e2960e,,,,,,,decisionTrl,resources/DBN.BMP,resources/DB.BMP,Door4,0.378703704,-0.015740741,1,0,0,2.0794,optionRight,60,1225,1,22,0,22,0,1,,,,,,,,,,,,,,,,,,,,,,,,,,,,,,,,,,,,,,,
,,,,,,,,2023-08-16_08h49.06.545,HF_wild_card,2022.2.4,Win32,59.95922773,5aeaf3c226b6680001698375,64d2fd46c836a06233681665,64dc7f6dc002480885e2960e,,,,,,,decisionTrl,resources/DBN.BMP,resources/DB.BMP,Door3,-0.242592593,-0.024074074,1,0,0,0.7299,optionLeft,70,1295,1,23,0,23,0,1,,,,,,,,,,,,,,,,,,,,,,,,,,,,,,,,,,,,,,,
,,,,,,,,2023-08-16_08h49.06.545,HF_wild_card,2022.2.4,Win32,59.95922773,5aeaf3c226b6680001698375,64d2fd46c836a06233681665,64dc7f6dc002480885e2960e,,,,,,,decisionTrl,resources/DP.BMP,resources/DY.BMP,WildCard_NonEx,-0.249074074,-0.027777778,1,0,0,1.481,optionLeft,55,1350,1,24,0,24,0,1,,,,,,,,,,,,,,,,,,,,,,,,,,,,,,,,,,,,,,,
,,,,,,,,2023-08-16_08h49.06.545,HF_wild_card,2022.2.4,Win32,59.95922773,5aeaf3c226b6680001698375,64d2fd46c836a06233681665,64dc7f6dc002480885e2960e,,,,,,,sngl,resources/Empty.png,resources/DP.BMP,WildCard_NonEx,0.247222222,0.008333333,1,0,0,0.665,optionRight,55,1405,1,25,0,25,0,1,,,,,,,,,,,,,,,,,,,,,,,,,,,,,,,,,,,,,,,
,,,,,,,,2023-08-16_08h49.06.545,HF_wild_card,2022.2.4,Win32,59.95922773,5aeaf3c226b6680001698375,64d2fd46c836a06233681665,64dc7f6dc002480885e2960e,,,,,,,decisionTrl,resources/DB.BMP,resources/DBN.BMP,Door3,0.178703704,0.003703704,1,0,0,1.3634,optionRight,70,1475,1,26,0,26,0,1,,,,,,,,,,,,,,,,,,,,,,,,,,,,,,,,,,,,,,,
,,,,,,,,2023-08-16_08h49.06.545,HF_wild_card,2022.2.4,Win32,59.95922773,5aeaf3c226b6680001698375,64d2fd46c836a06233681665,64dc7f6dc002480885e2960e,,,,,,,sngl,resources/DP.BMP,resources/Empty.png,WildCard_NonEx,-0.168518519,-0.038888889,1,0,0,0.7615,optionLeft,45,1520,1,27,0,27,0,1,,,,,,,,,,,,,,,,,,,,,,,,,,,,,,,,,,,,,,,
,,,,,,,,2023-08-16_08h49.06.545,HF_wild_card,2022.2.4,Win32,59.95922773,5aeaf3c226b6680001698375,64d2fd46c836a06233681665,64dc7f6dc002480885e2960e,,,,,,,ctch,resources/DY.BMP,resources/DBN.BMP,Door3,0.306481481,0.005555556,1,0,0,0.6819,optionRight,70,1590,1,28,0,28,0,1,,,,,,,,,,,,,,,,,,,,,,,,,,,,,,,,,,,,,,,
,,,,,,,,2023-08-16_08h49.06.545,HF_wild_card,2022.2.4,Win32,59.95922773,5aeaf3c226b6680001698375,64d2fd46c836a06233681665,64dc7f6dc002480885e2960e,,,,,,,decisionTrl,resources/DBN.BMP,resources/DB.BMP,Door3,-0.224074074,-0.008333333,1,0,0,0.9135,optionLeft,70,1660,1,29,0,29,0,1,,,,,,,,,,,,,,,,,,,,,,,,,,,,,,,,,,,,,,,
,,,,,,,,2023-08-16_08h49.06.545,HF_wild_card,2022.2.4,Win32,59.95922773,5aeaf3c226b6680001698375,64d2fd46c836a06233681665,64dc7f6dc002480885e2960e,,,,,,,ctch,resources/DBN.BMP,resources/DY.BMP,Door3,-0.25462963,-0.016666667,1,0,0,0.6965,optionLeft,70,1730,1,30,0,30,0,1,,,,,,,,,,,,,,,,,,,,,,,,,,,,,,,,,,,,,,,
,,,,,,,,2023-08-16_08h49.06.545,HF_wild_card,2022.2.4,Win32,59.95922773,5aeaf3c226b6680001698375,64d2fd46c836a06233681665,64dc7f6dc002480885e2960e,,,,,,,sngl,resources/Empty.png,resources/DR.BMP,Door1,0.235185185,-0.008333333,1,0,0,0.6132,optionRight,30,1760,1,31,0,31,0,1,,,,,,,,,,,,,,,,,,,,,,,,,,,,,,,,,,,,,,,
,,,,,,,,2023-08-16_08h49.06.545,HF_wild_card,2022.2.4,Win32,59.95922773,5aeaf3c226b6680001698375,64d2fd46c836a06233681665,64dc7f6dc002480885e2960e,,,,,,,ctch,resources/DR.BMP,resources/DB.BMP,Door4,0.218518519,-0.008333333,1,0,0,0.7311,optionRight,80,1840,1,32,0,32,0,1,,,,,,,,,,,,,,,,,,,,,,,,,,,,,,,,,,,,,,,
,,,,,,,,2023-08-16_08h49.06.545,HF_wild_card,2022.2.4,Win32,59.95922773,5aeaf3c226b6680001698375,64d2fd46c836a06233681665,64dc7f6dc002480885e2960e,,,,,,,sngl,resources/DBN.BMP,resources/Empty.png,Door3,-0.237962963,-0.013888889,1,0,0,0.579,optionLeft,70,1910,1,33,0,33,0,1,,,,,,,,,,,,,,,,,,,,,,,,,,,,,,,,,,,,,,,
,,,,,,,,2023-08-16_08h49.06.545,HF_wild_card,2022.2.4,Win32,59.95922773,5aeaf3c226b6680001698375,64d2fd46c836a06233681665,64dc7f6dc002480885e2960e,,,,,,,decisionTrl,resources/DP.BMP,resources/DR.BMP,Door1,0.261111111,-0.008333333,1,0,0,0.9811,optionRight,30,1940,1,34,0,34,0,1,,,,,,,,,,,,,,,,,,,,,,,,,,,,,,,,,,,,,,,
,,,,,,,,2023-08-16_08h49.06.545,HF_wild_card,2022.2.4,Win32,59.95922773,5aeaf3c226b6680001698375,64d2fd46c836a06233681665,64dc7f6dc002480885e2960e,,,,,,,decisionTrl,resources/DBN.BMP,resources/DP.BMP,WildCard_NonEx,0.25,-0.008333333,1,0,0,0.6317,optionRight,55,1995,1,35,0,35,0,1,,,,,,,,,,,,,,,,,,,,,,,,,,,,,,,,,,,,,,,
,,,,,,,,2023-08-16_08h49.06.545,HF_wild_card,2022.2.4,Win32,59.95922773,5aeaf3c226b6680001698375,64d2fd46c836a06233681665,64dc7f6dc002480885e2960e,,,,,,,decisionTrl,resources/DR.BMP,resources/DY.BMP,Door2,0.134259259,-0.009259259,1,0,0,2.7315,optionRight,40,2035,1,36,0,36,0,1,,,,,,,,,,,,,,,,,,,,,,,,,,,,,,,,,,,,,,,
,,,,,,,,2023-08-16_08h49.06.545,HF_wild_card,2022.2.4,Win32,59.95922773,5aeaf3c226b6680001698375,64d2fd46c836a06233681665,64dc7f6dc002480885e2960e,,,,,,,decisionTrl,resources/DY.BMP,resources/DR.BMP,Door2,-0.319444444,-0.02962963,1,0,0,0.6978,optionLeft,20,2055,1,37,0,37,0,1,,,,,,,,,,,,,,,,,,,,,,,,,,,,,,,,,,,,,,,
,,,,,,,,2023-08-16_08h49.06.545,HF_wild_card,2022.2.4,Win32,59.95922773,5aeaf3c226b6680001698375,64d2fd46c836a06233681665,64dc7f6dc002480885e2960e,,,,,,,decisionTrl,resources/DP.BMP,resources/DB.BMP,Door4,0.238888889,-0.005555556,1,0,0,0.698,optionRight,60,2115,1,38,0,38,0,1,,,,,,,,,,,,,,,,,,,,,,,,,,,,,,,,,,,,,,,
,,,,,,,,2023-08-16_08h49.06.545,HF_wild_card,2022.2.4,Win32,59.95922773,5aeaf3c226b6680001698375,64d2fd46c836a06233681665,64dc7f6dc002480885e2960e,,,,,,,decisionTrl,resources/DR.BMP,resources/DY.BMP,Door2,0.182407407,0.009259259,1,0,0,1.2979,optionRight,20,2135,1,39,0,39,0,1,,,,,,,,,,,,,,,,,,,,,,,,,,,,,,,,,,,,,,,
,,,,,,,,2023-08-16_08h49.06.545,HF_wild_card,2022.2.4,Win32,59.95922773,5aeaf3c226b6680001698375,64d2fd46c836a06233681665,64dc7f6dc002480885e2960e,,,,,,,ctch,resources/DY.BMP,resources/DBN.BMP,Door3,0.40462963,0.033333333,1,0,0,0.846,optionRight,70,2205,1,40,0,40,0,1,,,,,,,,,,,,,,,,,,,,,,,,,,,,,,,,,,,,,,,
,,,,,,,,2023-08-16_08h49.06.545,HF_wild_card,2022.2.4,Win32,59.95922773,5aeaf3c226b6680001698375,64d2fd46c836a06233681665,64dc7f6dc002480885e2960e,,,,,,,decisionTrl,resources/DBN.BMP,resources/DB.BMP,Door4,0.267592593,0.047222222,1,0,0,1.43,optionRight,60,2265,1,41,0,41,0,1,,,,,,,,,,,,,,,,,,,,,,,,,,,,,,,,,,,,,,,
,,,,,,,,2023-08-16_08h49.06.545,HF_wild_card,2022.2.4,Win32,59.95922773,5aeaf3c226b6680001698375,64d2fd46c836a06233681665,64dc7f6dc002480885e2960e,,,,,,,sngl,resources/Empty.png,resources/DB.BMP,Door4,0.330555556,0.016666667,1,0,0,0.5786,optionRight,60,2325,1,42,0,42,0,1,,,,,,,,,,,,,,,,,,,,,,,,,,,,,,,,,,,,,,,
,,,,,,,,2023-08-16_08h49.06.545,HF_wild_card,2022.2.4,Win32,59.95922773,5aeaf3c226b6680001698375,64d2fd46c836a06233681665,64dc7f6dc002480885e2960e,,,,,,,sngl,resources/DP.BMP,resources/Empty.png,WildCard_NonEx,-0.224074074,-0.025925926,1,0,0,0.5982,optionLeft,55,2380,1,43,0,43,0,1,,,,,,,,,,,,,,,,,,,,,,,,,,,,,,,,,,,,,,,
,,,,,,,,2023-08-16_08h49.06.545,HF_wild_card,2022.2.4,Win32,59.95922773,5aeaf3c226b6680001698375,64d2fd46c836a06233681665,64dc7f6dc002480885e2960e,,,,,,,,,,,,,,,,,,,,,,,,,,0,0,0,0,1,,,,,,,,,,,,,,,,,,,,,,,,,,,,,,,,,,
,,,,,,,,2023-08-16_08h49.06.545,HF_wild_card,2022.2.4,Win32,59.95922773,5aeaf3c226b6680001698375,64d2fd46c836a06233681665,64dc7f6dc002480885e2960e,,,,,,,decisionTrl,resources/DY.BMP,resources/DP.BMP,WildCard_NonEx,0.416666667,-0.062962963,1,0,0,3.5269,optionRight,55,2435,2,0,0,0,0,1,,,,,,,,,,,,,,,,,,,,,,,,,,,,,,,,,,,,,,,
,,,,,,,,2023-08-16_08h49.06.545,HF_wild_card,2022.2.4,Win32,59.95922773,5aeaf3c226b6680001698375,64d2fd46c836a06233681665,64dc7f6dc002480885e2960e,,,,,,,sngl,resources/DP.BMP,resources/Empty.png,WildCard_NonEx,-0.2,-0.017592593,1,0,0,0.4805,optionLeft,45,2480,2,1,0,1,0,1,,,,,,,,,,,,,,,,,,,,,,,,,,,,,,,,,,,,,,,
,,,,,,,,2023-08-16_08h49.06.545,HF_wild_card,2022.2.4,Win32,59.95922773,5aeaf3c226b6680001698375,64d2fd46c836a06233681665,64dc7f6dc002480885e2960e,,,,,,,sngl,resources/Empty.png,resources/DB.BMP,Door4,0.330555556,0.012962963,1,0,0,0.595,optionRight,80,2560,2,2,0,2,0,1,,,,,,,,,,,,,,,,,,,,,,,,,,,,,,,,,,,,,,,
,,,,,,,,2023-08-16_08h49.06.545,HF_wild_card,2022.2.4,Win32,59.95922773,5aeaf3c226b6680001698375,64d2fd46c836a06233681665,64dc7f6dc002480885e2960e,,,,,,,decisionTrl,resources/DB.BMP,resources/DP.BMP,Door4,-0.210185185,-0.035185185,1,0,0,0.798,optionLeft,80,2640,2,3,0,3,0,1,,,,,,,,,,,,,,,,,,,,,,,,,,,,,,,,,,,,,,,
,,,,,,,,2023-08-16_08h49.06.545,HF_wild_card,2022.2.4,Win32,59.95922773,5aeaf3c226b6680001698375,64d2fd46c836a06233681665,64dc7f6dc002480885e2960e,,,,,,,sngl,resources/DB.BMP,resources/Empty.png,Door4,-0.2,-0.002777778,1,0,0,0.4633,optionLeft,60,2700,2,4,0,4,0,1,,,,,,,,,,,,,,,,,,,,,,,,,,,,,,,,,,,,,,,
,,,,,,,,2023-08-16_08h49.06.545,HF_wild_card,2022.2.4,Win32,59.95922773,5aeaf3c226b6680001698375,64d2fd46c836a06233681665,64dc7f6dc002480885e2960e,,,,,,,ctch,resources/DB.BMP,resources/DR.BMP,Door4,-0.153703704,-0.019444444,1,0,0,0.698,optionLeft,60,2760,2,5,0,5,0,1,,,,,,,,,,,,,,,,,,,,,,,,,,,,,,,,,,,,,,,
,,,,,,,,2023-08-16_08h49.06.545,HF_wild_card,2022.2.4,Win32,59.95922773,5aeaf3c226b6680001698375,64d2fd46c836a06233681665,64dc7f6dc002480885e2960e,,,,,,,decisionTrl,resources/DR.BMP,resources/DY.BMP,Door2,0.226851852,-0.017592593,1,0,0,1.3793,optionRight,40,2800,2,6,0,6,0,1,,,,,,,,,,,,,,,,,,,,,,,,,,,,,,,,,,,,,,,
,,,,,,,,2023-08-16_08h49.06.545,HF_wild_card,2022.2.4,Win32,59.95922773,5aeaf3c226b6680001698375,64d2fd46c836a06233681665,64dc7f6dc002480885e2960e,,,,,,,sngl,resources/DP.BMP,resources/Empty.png,WildCard_NonEx,-0.296296296,-0.060185185,1,0,0,0.5463,optionLeft,55,2855,2,7,0,7,0,1,,,,,,,,,,,,,,,,,,,,,,,,,,,,,,,,,,,,,,,
,,,,,,,,2023-08-16_08h49.06.545,HF_wild_card,2022.2.4,Win32,59.95922773,5aeaf3c226b6680001698375,64d2fd46c836a06233681665,64dc7f6dc002480885e2960e,,,,,,,decisionTrl,resources/DP.BMP,resources/DBN.BMP,Door3,0.336111111,-0.018518519,1,0,0,0.6801,optionRight,70,2925,2,8,0,8,0,1,,,,,,,,,,,,,,,,,,,,,,,,,,,,,,,,,,,,,,,
,,,,,,,,2023-08-16_08h49.06.545,HF_wild_card,2022.2.4,Win32,59.95922773,5aeaf3c226b6680001698375,64d2fd46c836a06233681665,64dc7f6dc002480885e2960e,,,,,,,decisionTrl,resources/DY.BMP,resources/DR.BMP,Door1,0.381481481,0.022222222,1,0,0,0.863,optionRight,30,2955,2,9,0,9,0,1,,,,,,,,,,,,,,,,,,,,,,,,,,,,,,,,,,,,,,,
,,,,,,,,2023-08-16_08h49.06.545,HF_wild_card,2022.2.4,Win32,59.95922773,5aeaf3c226b6680001698375,64d2fd46c836a06233681665,64dc7f6dc002480885e2960e,,,,,,,ctch,resources/DY.BMP,resources/DBN.BMP,Door3,0.205555556,-0.008333333,1,0,0,0.9139,optionRight,70,3025,2,10,0,10,0,1,,,,,,,,,,,,,,,,,,,,,,,,,,,,,,,,,,,,,,,
,,,,,,,,2023-08-16_08h49.06.545,HF_wild_card,2022.2.4,Win32,59.95922773,5aeaf3c226b6680001698375,64d2fd46c836a06233681665,64dc7f6dc002480885e2960e,,,,,,,sngl,resources/DBN.BMP,resources/Empty.png,Door3,-0.24537037,-0.017592593,1,0,0,0.5293,optionLeft,70,3095,2,11,0,11,0,1,,,,,,,,,,,,,,,,,,,,,,,,,,,,,,,,,,,,,,,
,,,,,,,,2023-08-16_08h49.06.545,HF_wild_card,2022.2.4,Win32,59.95922773,5aeaf3c226b6680001698375,64d2fd46c836a06233681665,64dc7f6dc002480885e2960e,,,,,,,decisionTrl,resources/DBN.BMP,resources/DB.BMP,Door4,0.301851852,0.008333333,1,0,0,2.2479,optionRight,80,3175,2,12,0,12,0,1,,,,,,,,,,,,,,,,,,,,,,,,,,,,,,,,,,,,,,,
,,,,,,,,2023-08-16_08h49.06.545,HF_wild_card,2022.2.4,Win32,59.95922773,5aeaf3c226b6680001698375,64d2fd46c836a06233681665,64dc7f6dc002480885e2960e,,,,,,,sngl,resources/Empty.png,resources/DR.BMP,Door1,0.2,0.024074074,1,0,0,0.5956,optionRight,30,3205,2,13,0,13,0,1,,,,,,,,,,,,,,,,,,,,,,,,,,,,,,,,,,,,,,,
,,,,,,,,2023-08-16_08h49.06.545,HF_wild_card,2022.2.4,Win32,59.95922773,5aeaf3c226b6680001698375,64d2fd46c836a06233681665,64dc7f6dc002480885e2960e,,,,,,,decisionTrl,resources/DBN.BMP,resources/DB.BMP,Door4,0.15462963,-0.014814815,1,0,0,1.1987,optionRight,80,3285,2,14,0,14,0,1,,,,,,,,,,,,,,,,,,,,,,,,,,,,,,,,,,,,,,,
,,,,,,,,2023-08-16_08h49.06.545,HF_wild_card,2022.2.4,Win32,59.95922773,5aeaf3c226b6680001698375,64d2fd46c836a06233681665,64dc7f6dc002480885e2960e,,,,,,,decisionTrl,resources/DP.BMP,resources/DB.BMP,Door4,0.258333333,-0.009259259,1,0,0,0.6468,optionRight,80,3365,2,15,0,15,0,1,,,,,,,,,,,,,,,,,,,,,,,,,,,,,,,,,,,,,,,
,,,,,,,,2023-08-16_08h49.06.545,HF_wild_card,2022.2.4,Win32,59.95922773,5aeaf3c226b6680001698375,64d2fd46c836a06233681665,64dc7f6dc002480885e2960e,,,,,,,decisionTrl,resources/DP.BMP,resources/DY.BMP,WildCard_NonEx,-0.210185185,-0.031481481,1,0,0,1.2815,optionLeft,55,3420,2,16,0,16,0,1,,,,,,,,,,,,,,,,,,,,,,,,,,,,,,,,,,,,,,,
,,,,,,,,2023-08-16_08h49.06.545,HF_wild_card,2022.2.4,Win32,59.95922773,5aeaf3c226b6680001698375,64d2fd46c836a06233681665,64dc7f6dc002480885e2960e,,,,,,,sngl,resources/DR.BMP,resources/Empty.png,Door1,-0.277777778,-0.009259259,1,0,0,0.8295,optionLeft,30,3450,2,17,0,17,0,1,,,,,,,,,,,,,,,,,,,,,,,,,,,,,,,,,,,,,,,
,,,,,,,,2023-08-16_08h49.06.545,HF_wild_card,2022.2.4,Win32,59.95922773,5aeaf3c226b6680001698375,64d2fd46c836a06233681665,64dc7f6dc002480885e2960e,,,,,,,decisionTrl,resources/DB.BMP,resources/DBN.BMP,Door4,-0.286111111,-0.007407407,1,0,0,1.0463,optionLeft,80,3530,2,18,0,18,0,1,,,,,,,,,,,,,,,,,,,,,,,,,,,,,,,,,,,,,,,
,,,,,,,,2023-08-16_08h49.06.545,HF_wild_card,2022.2.4,Win32,59.95922773,5aeaf3c226b6680001698375,64d2fd46c836a06233681665,64dc7f6dc002480885e2960e,,,,,,,decisionTrl,resources/DP.BMP,resources/DR.BMP,WildCard_NonEx,-0.208333333,-0.046296296,1,0,0,1.3296,optionLeft,45,3575,2,19,0,19,0,1,,,,,,,,,,,,,,,,,,,,,,,,,,,,,,,,,,,,,,,
,,,,,,,,2023-08-16_08h49.06.545,HF_wild_card,2022.2.4,Win32,59.95922773,5aeaf3c226b6680001698375,64d2fd46c836a06233681665,64dc7f6dc002480885e2960e,,,,,,,decisionTrl,resources/DR.BMP,resources/DY.BMP,Door2,0.226851852,-0.001851852,1,0,0,1.8797,optionRight,40,3615,2,20,0,20,0,1,,,,,,,,,,,,,,,,,,,,,,,,,,,,,,,,,,,,,,,
,,,,,,,,2023-08-16_08h49.06.545,HF_wild_card,2022.2.4,Win32,59.95922773,5aeaf3c226b6680001698375,64d2fd46c836a06233681665,64dc7f6dc002480885e2960e,,,,,,,decisionTrl,resources/DR.BMP,resources/DY.BMP,Door2,0.247222222,0.003703704,1,0,0,0.5801,optionRight,40,3655,2,21,0,21,0,1,,,,,,,,,,,,,,,,,,,,,,,,,,,,,,,,,,,,,,,
,,,,,,,,2023-08-16_08h49.06.545,HF_wild_card,2022.2.4,Win32,59.95922773,5aeaf3c226b6680001698375,64d2fd46c836a06233681665,64dc7f6dc002480885e2960e,,,,,,,ctch,resources/DBN.BMP,resources/DY.BMP,Door3,-0.318518519,0,1,0,0,1.2132,optionLeft,70,3725,2,22,0,22,0,1,,,,,,,,,,,,,,,,,,,,,,,,,,,,,,,,,,,,,,,
,,,,,,,,2023-08-16_08h49.06.545,HF_wild_card,2022.2.4,Win32,59.95922773,5aeaf3c226b6680001698375,64d2fd46c836a06233681665,64dc7f6dc002480885e2960e,,,,,,,sngl,resources/Empty.png,resources/DP.BMP,WildCard_NonEx,0.301851852,-0.008333333,1,0,0,0.6801,optionRight,45,3770,2,23,0,23,0,1,,,,,,,,,,,,,,,,,,,,,,,,,,,,,,,,,,,,,,,
,,,,,,,,2023-08-16_08h49.06.545,HF_wild_card,2022.2.4,Win32,59.95922773,5aeaf3c226b6680001698375,64d2fd46c836a06233681665,64dc7f6dc002480885e2960e,,,,,,,ctch,resources/DBN.BMP,resources/DY.BMP,Door3,-0.296296296,0.013888889,1,0,0,0.7468,optionLeft,70,3840,2,24,0,24,0,1,,,,,,,,,,,,,,,,,,,,,,,,,,,,,,,,,,,,,,,
,,,,,,,,2023-08-16_08h49.06.545,HF_wild_card,2022.2.4,Win32,59.95922773,5aeaf3c226b6680001698375,64d2fd46c836a06233681665,64dc7f6dc002480885e2960e,,,,,,,sngl,resources/Empty.png,resources/DY.BMP,Door2,0.282407407,0.023148148,1,0,0,0.6969,optionRight,40,3880,2,25,0,25,0,1,,,,,,,,,,,,,,,,,,,,,,,,,,,,,,,,,,,,,,,
,,,,,,,,2023-08-16_08h49.06.545,HF_wild_card,2022.2.4,Win32,59.95922773,5aeaf3c226b6680001698375,64d2fd46c836a06233681665,64dc7f6dc002480885e2960e,,,,,,,sngl,resources/DY.BMP,resources/Empty.png,Door2,-0.211111111,-0.006481481,1,0,0,0.5465,optionLeft,20,3900,2,26,0,26,0,1,,,,,,,,,,,,,,,,,,,,,,,,,,,,,,,,,,,,,,,
,,,,,,,,2023-08-16_08h49.06.545,HF_wild_card,2022.2.4,Win32,59.95922773,5aeaf3c226b6680001698375,64d2fd46c836a06233681665,64dc7f6dc002480885e2960e,,,,,,,decisionTrl,resources/DB.BMP,resources/DBN.BMP,Door3,0.285185185,0.017592593,1,0,0,0.9153,optionRight,70,3970,2,27,0,27,0,1,,,,,,,,,,,,,,,,,,,,,,,,,,,,,,,,,,,,,,,
,,,,,,,,2023-08-16_08h49.06.545,HF_wild_card,2022.2.4,Win32,59.95922773,5aeaf3c226b6680001698375,64d2fd46c836a06233681665,64dc7f6dc002480885e2960e,,,,,,,ctch,resources/DR.BMP,resources/DB.BMP,Door4,0.291666667,-0.010185185,1,0,0,0.6135,optionRight,60,4030,2,28,0,28,0,1,,,,,,,,,,,,,,,,,,,,,,,,,,,,,,,,,,,,,,,
,,,,,,,,2023-08-16_08h49.06.545,HF_wild_card,2022.2.4,Win32,59.95922773,5aeaf3c226b6680001698375,64d2fd46c836a06233681665,64dc7f6dc002480885e2960e,,,,,,,decisionTrl,resources/DR.BMP,resources/DP.BMP,WildCard_NonEx,0.312037037,-0.022222222,1,0,0,0.9798,optionRight,55,4085,2,29,0,29,0,1,,,,,,,,,,,,,,,,,,,,,,,,,,,,,,,,,,,,,,,
,,,,,,,,2023-08-16_08h49.06.545,HF_wild_card,2022.2.4,Win32,59.95922773,5aeaf3c226b6680001698375,64d2fd46c836a06233681665,64dc7f6dc002480885e2960e,,,,,,,ctch,resources/DR.BMP,resources/DB.BMP,Door4,0.349074074,-0.00462963,1,0,0,0.5464,optionRight,60,4145,2,30,0,30,0,1,,,,,,,,,,,,,,,,,,,,,,,,,,,,,,,,,,,,,,,
,,,,,,,,2023-08-16_08h49.06.545,HF_wild_card,2022.2.4,Win32,59.95922773,5aeaf3c226b6680001698375,64d2fd46c836a06233681665,64dc7f6dc002480885e2960e,,,,,,,decisionTrl,resources/DY.BMP,resources/DR.BMP,Door2,-0.441666667,0.00462963,1,0,0,1.7799,optionLeft,20,4165,2,31,0,31,0,1,,,,,,,,,,,,,,,,,,,,,,,,,,,,,,,,,,,,,,,
,,,,,,,,2023-08-16_08h49.06.545,HF_wild_card,2022.2.4,Win32,59.95922773,5aeaf3c226b6680001698375,64d2fd46c836a06233681665,64dc7f6dc002480885e2960e,,,,,,,sngl,resources/Empty.png,resources/DP.BMP,WildCard_NonEx,0.174074074,-0.003703704,1,0,0,0.5621,optionRight,55,4220,2,32,0,32,0,1,,,,,,,,,,,,,,,,,,,,,,,,,,,,,,,,,,,,,,,
,,,,,,,,2023-08-16_08h49.06.545,HF_wild_card,2022.2.4,Win32,59.95922773,5aeaf3c226b6680001698375,64d2fd46c836a06233681665,64dc7f6dc002480885e2960e,,,,,,,decisionTrl,resources/DBN.BMP,resources/DB.BMP,Door3,-0.367592593,-0.068518519,1,0,0,1.6314,optionLeft,70,4290,2,33,0,33,0,1,,,,,,,,,,,,,,,,,,,,,,,,,,,,,,,,,,,,,,,
,,,,,,,,2023-08-16_08h49.06.545,HF_wild_card,2022.2.4,Win32,59.95922773,5aeaf3c226b6680001698375,64d2fd46c836a06233681665,64dc7f6dc002480885e2960e,,,,,,,decisionTrl,resources/DY.BMP,resources/DR.BMP,Door2,-0.24537037,-0.021296296,1,0,0,2.5801,optionLeft,20,4310,2,34,0,34,0,1,,,,,,,,,,,,,,,,,,,,,,,,,,,,,,,,,,,,,,,
,,,,,,,,2023-08-16_08h49.06.545,HF_wild_card,2022.2.4,Win32,59.95922773,5aeaf3c226b6680001698375,64d2fd46c836a06233681665,64dc7f6dc002480885e2960e,,,,,,,sngl,resources/Empty.png,resources/DBN.BMP,Door3,0.27037037,0.052777778,1,0,0,0.5802,optionRight,70,4380,2,35,0,35,0,1,,,,,,,,,,,,,,,,,,,,,,,,,,,,,,,,,,,,,,,
,,,,,,,,2023-08-16_08h49.06.545,HF_wild_card,2022.2.4,Win32,59.95922773,5aeaf3c226b6680001698375,64d2fd46c836a06233681665,64dc7f6dc002480885e2960e,,,,,,,decisionTrl,resources/DR.BMP,resources/DY.BMP,Door1,-0.197222222,-0.040740741,1,0,0,1.5488,optionLeft,30,4410,2,36,0,36,0,1,,,,,,,,,,,,,,,,,,,,,,,,,,,,,,,,,,,,,,,
,,,,,,,,2023-08-16_08h49.06.545,HF_wild_card,2022.2.4,Win32,59.95922773,5aeaf3c226b6680001698375,64d2fd46c836a06233681665,64dc7f6dc002480885e2960e,,,,,,,decisionTrl,resources/DBN.BMP,resources/DB.BMP,Door3,-0.236111111,-0.028703704,1,0,0,1.3967,optionLeft,70,4480,2,37,0,37,0,1,,,,,,,,,,,,,,,,,,,,,,,,,,,,,,,,,,,,,,,
,,,,,,,,2023-08-16_08h49.06.545,HF_wild_card,2022.2.4,Win32,59.95922773,5aeaf3c226b6680001698375,64d2fd46c836a06233681665,64dc7f6dc002480885e2960e,,,,,,,ctch,resources/DB.BMP,resources/DR.BMP,Door4,-0.257407407,-0.052777778,1,0,0,0.9627,optionLeft,60,4540,2,38,0,38,0,1,,,,,,,,,,,,,,,,,,,,,,,,,,,,,,,,,,,,,,,
,,,,,,,,2023-08-16_08h49.06.545,HF_wild_card,2022.2.4,Win32,59.95922773,5aeaf3c226b6680001698375,64d2fd46c836a06233681665,64dc7f6dc002480885e2960e,,,,,,,decisionTrl,resources/DY.BMP,resources/DR.BMP,Door1,0.322222222,-0.026851852,1,0,0,1.2488,optionRight,30,4570,2,39,0,39,0,1,,,,,,,,,,,,,,,,,,,,,,,,,,,,,,,,,,,,,,,
,,,,,,,,2023-08-16_08h49.06.545,HF_wild_card,2022.2.4,Win32,59.95922773,5aeaf3c226b6680001698375,64d2fd46c836a06233681665,64dc7f6dc002480885e2960e,,,,,,,decisionTrl,resources/DBN.BMP,resources/DP.BMP,Door3,-0.325925926,-0.008333333,1,0,0,1.0295,optionLeft,70,4640,2,40,0,40,0,1,,,,,,,,,,,,,,,,,,,,,,,,,,,,,,,,,,,,,,,
,,,,,,,,2023-08-16_08h49.06.545,HF_wild_card,2022.2.4,Win32,59.95922773,5aeaf3c226b6680001698375,64d2fd46c836a06233681665,64dc7f6dc002480885e2960e,,,,,,,decisionTrl,resources/DB.BMP,resources/DBN.BMP,Door4,-0.400925926,0.011111111,1,0,0,1.3462,optionLeft,80,4720,2,41,0,41,0,1,,,,,,,,,,,,,,,,,,,,,,,,,,,,,,,,,,,,,,,
,,,,,,,,2023-08-16_08h49.06.545,HF_wild_card,2022.2.4,Win32,59.95922773,5aeaf3c226b6680001698375,64d2fd46c836a06233681665,64dc7f6dc002480885e2960e,,,,,,,decisionTrl,resources/DB.BMP,resources/DBN.BMP,Door4,-0.156481481,-0.024074074,1,0,0,0.6984,optionLeft,80,4800,2,42,0,42,0,1,,,,,,,,,,,,,,,,,,,,,,,,,,,,,,,,,,,,,,,
,,,,,,,,2023-08-16_08h49.06.545,HF_wild_card,2022.2.4,Win32,59.95922773,5aeaf3c226b6680001698375,64d2fd46c836a06233681665,64dc7f6dc002480885e2960e,,,,,,,ctch,resources/DY.BMP,resources/DBN.BMP,Door3,0.338888889,0.003703704,1,0,0,0.5961,optionRight,70,4870,2,43,0,43,0,1,,,,,,,,,,,,,,,,,,,,,,,,,,,,,,,,,,,,,,,
,,,,,,,,2023-08-16_08h49.06.545,HF_wild_card,2022.2.4,Win32,59.95922773,5aeaf3c226b6680001698375,64d2fd46c836a06233681665,64dc7f6dc002480885e2960e,,,,,,,,,,,,,,,,,,,,,,,,,,1,0,1,0,1,,,,,,,,,,,,,,,,,,,,,,,,,,,,,,,,,,
,,,,,,,,2023-08-16_08h49.06.545,HF_wild_card,2022.2.4,Win32,59.95922773,5aeaf3c226b6680001698375,64d2fd46c836a06233681665,64dc7f6dc002480885e2960e,,,,,,,ctch,resources/DY.BMP,resources/DBN.BMP,Door3,0.332407407,-0.049074074,1,0,0,0.8582,optionRight,70,4940,3,0,0,0,0,1,,,,,,,,,,,,,,,,,,,,,,,,,,,,,,,,,,,,,,,
,,,,,,,,2023-08-16_08h49.06.545,HF_wild_card,2022.2.4,Win32,59.95922773,5aeaf3c226b6680001698375,64d2fd46c836a06233681665,64dc7f6dc002480885e2960e,,,,,,,ctch,resources/DB.BMP,resources/DR.BMP,Door4,-0.192592593,-0.018518519,1,0,0,0.9302,optionLeft,60,5000,3,1,0,1,0,1,,,,,,,,,,,,,,,,,,,,,,,,,,,,,,,,,,,,,,,
,,,,,,,,2023-08-16_08h49.06.545,HF_wild_card,2022.2.4,Win32,59.95922773,5aeaf3c226b6680001698375,64d2fd46c836a06233681665,64dc7f6dc002480885e2960e,,,,,,,decisionTrl,resources/DR.BMP,resources/DP.BMP,WildCard_NonEx,0.453703704,-0.084259259,1,0,0,1.7814,optionRight,45,5045,3,2,0,2,0,1,,,,,,,,,,,,,,,,,,,,,,,,,,,,,,,,,,,,,,,
,,,,,,,,2023-08-16_08h49.06.545,HF_wild_card,2022.2.4,Win32,59.95922773,5aeaf3c226b6680001698375,64d2fd46c836a06233681665,64dc7f6dc002480885e2960e,,,,,,,decisionTrl,resources/DBN.BMP,resources/DB.BMP,Door4,0.203703704,-0.003703704,1,0,0,2.7483,optionRight,60,5105,3,3,0,3,0,1,,,,,,,,,,,,,,,,,,,,,,,,,,,,,,,,,,,,,,,
,,,,,,,,2023-08-16_08h49.06.545,HF_wild_card,2022.2.4,Win32,59.95922773,5aeaf3c226b6680001698375,64d2fd46c836a06233681665,64dc7f6dc002480885e2960e,,,,,,,decisionTrl,resources/DY.BMP,resources/DR.BMP,Door1,0.299074074,0.014814815,1,0,0,1.2791,optionRight,30,5135,3,4,0,4,0,1,,,,,,,,,,,,,,,,,,,,,,,,,,,,,,,,,,,,,,,
,,,,,,,,2023-08-16_08h49.06.545,HF_wild_card,2022.2.4,Win32,59.95922773,5aeaf3c226b6680001698375,64d2fd46c836a06233681665,64dc7f6dc002480885e2960e,,,,,,,decisionTrl,resources/DB.BMP,resources/DBN.BMP,Door3,0.425,0.002777778,1,0,0,1.9971,optionRight,70,5205,3,5,0,5,0,1,,,,,,,,,,,,,,,,,,,,,,,,,,,,,,,,,,,,,,,
,,,,,,,,2023-08-16_08h49.06.545,HF_wild_card,2022.2.4,Win32,59.95922773,5aeaf3c226b6680001698375,64d2fd46c836a06233681665,64dc7f6dc002480885e2960e,,,,,,,decisionTrl,resources/DP.BMP,resources/DY.BMP,WildCard_NonEx,-0.125925926,-0.062037037,1,0,0,1.4155,optionLeft,45,5250,3,6,0,6,0,1,,,,,,,,,,,,,,,,,,,,,,,,,,,,,,,,,,,,,,,
,,,,,,,,2023-08-16_08h49.06.545,HF_wild_card,2022.2.4,Win32,59.95922773,5aeaf3c226b6680001698375,64d2fd46c836a06233681665,64dc7f6dc002480885e2960e,,,,,,,ctch,resources/DR.BMP,resources/DB.BMP,Door4,0.275925926,0.025,1,0,0,0.8142,optionRight,60,5310,3,7,0,7,0,1,,,,,,,,,,,,,,,,,,,,,,,,,,,,,,,,,,,,,,,
,,,,,,,,2023-08-16_08h49.06.545,HF_wild_card,2022.2.4,Win32,59.95922773,5aeaf3c226b6680001698375,64d2fd46c836a06233681665,64dc7f6dc002480885e2960e,,,,,,,decisionTrl,resources/DY.BMP,resources/DP.BMP,WildCard_NonEx,0.212962963,0.003703704,1,0,0,2.0629,optionRight,45,5355,3,8,0,8,0,1,,,,,,,,,,,,,,,,,,,,,,,,,,,,,,,,,,,,,,,
,,,,,,,,2023-08-16_08h49.06.545,HF_wild_card,2022.2.4,Win32,59.95922773,5aeaf3c226b6680001698375,64d2fd46c836a06233681665,64dc7f6dc002480885e2960e,,,,,,,decisionTrl,resources/DY.BMP,resources/DR.BMP,Door1,0.268518519,0.016666667,1,0,0,1.1801,optionRight,30,5385,3,9,0,9,0,1,,,,,,,,,,,,,,,,,,,,,,,,,,,,,,,,,,,,,,,
,,,,,,,,2023-08-16_08h49.06.545,HF_wild_card,2022.2.4,Win32,59.95922773,5aeaf3c226b6680001698375,64d2fd46c836a06233681665,64dc7f6dc002480885e2960e,,,,,,,sngl,resources/DR.BMP,resources/Empty.png,Door1,-0.196296296,-0.00462963,1,0,0,0.5644,optionLeft,30,5415,3,10,0,10,0,1,,,,,,,,,,,,,,,,,,,,,,,,,,,,,,,,,,,,,,,
,,,,,,,,2023-08-16_08h49.06.545,HF_wild_card,2022.2.4,Win32,59.95922773,5aeaf3c226b6680001698375,64d2fd46c836a06233681665,64dc7f6dc002480885e2960e,,,,,,,ctch,resources/DBN.BMP,resources/DY.BMP,Door3,-0.19537037,-0.009259259,1,0,0,0.8298,optionLeft,70,5485,3,11,0,11,0,1,,,,,,,,,,,,,,,,,,,,,,,,,,,,,,,,,,,,,,,
,,,,,,,,2023-08-16_08h49.06.545,HF_wild_card,2022.2.4,Win32,59.95922773,5aeaf3c226b6680001698375,64d2fd46c836a06233681665,64dc7f6dc002480885e2960e,,,,,,,decisionTrl,resources/DB.BMP,resources/DBN.BMP,Door4,-0.19537037,-0.058333333,1,0,0,1.8136,optionLeft,80,5565,3,12,0,12,0,1,,,,,,,,,,,,,,,,,,,,,,,,,,,,,,,,,,,,,,,
,,,,,,,,2023-08-16_08h49.06.545,HF_wild_card,2022.2.4,Win32,59.95922773,5aeaf3c226b6680001698375,64d2fd46c836a06233681665,64dc7f6dc002480885e2960e,,,,,,,decisionTrl,resources/DBN.BMP,resources/DB.BMP,Door4,0.487037037,-0.001851852,1,0,0,0.5975,optionRight,60,5625,3,13,0,13,0,1,,,,,,,,,,,,,,,,,,,,,,,,,,,,,,,,,,,,,,,
,,,,,,,,2023-08-16_08h49.06.545,HF_wild_card,2022.2.4,Win32,59.95922773,5aeaf3c226b6680001698375,64d2fd46c836a06233681665,64dc7f6dc002480885e2960e,,,,,,,sngl,resources/Empty.png,resources/DY.BMP,Door2,0.342592593,-0.008333333,1,0,0,1.0299,optionRight,20,5645,3,14,0,14,0,1,,,,,,,,,,,,,,,,,,,,,,,,,,,,,,,,,,,,,,,
,,,,,,,,2023-08-16_08h49.06.545,HF_wild_card,2022.2.4,Win32,59.95922773,5aeaf3c226b6680001698375,64d2fd46c836a06233681665,64dc7f6dc002480885e2960e,,,,,,,sngl,resources/Empty.png,resources/DBN.BMP,Door3,0.302777778,-0.005555556,1,0,0,0.5474,optionRight,70,5715,3,15,0,15,0,1,,,,,,,,,,,,,,,,,,,,,,,,,,,,,,,,,,,,,,,
,,,,,,,,2023-08-16_08h49.06.545,HF_wild_card,2022.2.4,Win32,59.95922773,5aeaf3c226b6680001698375,64d2fd46c836a06233681665,64dc7f6dc002480885e2960e,,,,,,,sngl,resources/Empty.png,resources/DP.BMP,WildCard_NonEx,0.29537037,-0.008333333,1,0,0,0.5468,optionRight,55,5770,3,16,0,16,0,1,,,,,,,,,,,,,,,,,,,,,,,,,,,,,,,,,,,,,,,
,,,,,,,,2023-08-16_08h49.06.545,HF_wild_card,2022.2.4,Win32,59.95922773,5aeaf3c226b6680001698375,64d2fd46c836a06233681665,64dc7f6dc002480885e2960e,,,,,,,ctch,resources/DB.BMP,resources/DR.BMP,Door4,-0.321296296,-0.018518519,1,0,0,0.7124,optionLeft,60,5830,3,17,0,17,0,1,,,,,,,,,,,,,,,,,,,,,,,,,,,,,,,,,,,,,,,
,,,,,,,,2023-08-16_08h49.06.545,HF_wild_card,2022.2.4,Win32,59.95922773,5aeaf3c226b6680001698375,64d2fd46c836a06233681665,64dc7f6dc002480885e2960e,,,,,,,decisionTrl,resources/DR.BMP,resources/DY.BMP,Door1,-0.144444444,-0.025925926,1,0,0,1.2135,optionLeft,30,5860,3,18,0,18,0,1,,,,,,,,,,,,,,,,,,,,,,,,,,,,,,,,,,,,,,,
,,,,,,,,2023-08-16_08h49.06.545,HF_wild_card,2022.2.4,Win32,59.95922773,5aeaf3c226b6680001698375,64d2fd46c836a06233681665,64dc7f6dc002480885e2960e,,,,,,,sngl,resources/DY.BMP,resources/Empty.png,Door2,-0.151851852,-0.024074074,1,0,0,0.8306,optionLeft,40,5900,3,19,0,19,0,1,,,,,,,,,,,,,,,,,,,,,,,,,,,,,,,,,,,,,,,
,,,,,,,,2023-08-16_08h49.06.545,HF_wild_card,2022.2.4,Win32,59.95922773,5aeaf3c226b6680001698375,64d2fd46c836a06233681665,64dc7f6dc002480885e2960e,,,,,,,decisionTrl,resources/DBN.BMP,resources/DB.BMP,Door4,0.252777778,0.005555556,1,0,0,1.0801,optionRight,80,5980,3,20,0,20,0,1,,,,,,,,,,,,,,,,,,,,,,,,,,,,,,,,,,,,,,,
,,,,,,,,2023-08-16_08h49.06.545,HF_wild_card,2022.2.4,Win32,59.95922773,5aeaf3c226b6680001698375,64d2fd46c836a06233681665,64dc7f6dc002480885e2960e,,,,,,,sngl,resources/DB.BMP,resources/Empty.png,Door4,-0.165740741,-0.031481481,1,0,0,0.5308,optionLeft,80,6060,3,21,0,21,0,1,,,,,,,,,,,,,,,,,,,,,,,,,,,,,,,,,,,,,,,
,,,,,,,,2023-08-16_08h49.06.545,HF_wild_card,2022.2.4,Win32,59.95922773,5aeaf3c226b6680001698375,64d2fd46c836a06233681665,64dc7f6dc002480885e2960e,,,,,,,sngl,resources/Empty.png,resources/DP.BMP,WildCard_NonEx,0.214814815,-0.009259259,1,0,0,0.5975,optionRight,45,6105,3,22,0,22,0,1,,,,,,,,,,,,,,,,,,,,,,,,,,,,,,,,,,,,,,,
,,,,,,,,2023-08-16_08h49.06.545,HF_wild_card,2022.2.4,Win32,59.95922773,5aeaf3c226b6680001698375,64d2fd46c836a06233681665,64dc7f6dc002480885e2960e,,,,,,,decisionTrl,resources/DR.BMP,resources/DY.BMP,Door2,0.260185185,-0.018518519,1,0,0,0.6467,optionRight,20,6125,3,23,0,23,0,1,,,,,,,,,,,,,,,,,,,,,,,,,,,,,,,,,,,,,,,
,,,,,,,,2023-08-16_08h49.06.545,HF_wild_card,2022.2.4,Win32,59.95922773,5aeaf3c226b6680001698375,64d2fd46c836a06233681665,64dc7f6dc002480885e2960e,,,,,,,decisionTrl,resources/DP.BMP,resources/DR.BMP,WildCard_NonEx,-0.152777778,-0.053703704,1,0,0,1.1134,optionLeft,45,6170,3,24,0,24,0,1,,,,,,,,,,,,,,,,,,,,,,,,,,,,,,,,,,,,,,,
,,,,,,,,2023-08-16_08h49.06.545,HF_wild_card,2022.2.4,Win32,59.95922773,5aeaf3c226b6680001698375,64d2fd46c836a06233681665,64dc7f6dc002480885e2960e,,,,,,,decisionTrl,resources/DY.BMP,resources/DR.BMP,Door2,-0.239814815,-0.015740741,1,0,0,0.5813,optionLeft,40,6210,3,25,0,25,0,1,,,,,,,,,,,,,,,,,,,,,,,,,,,,,,,,,,,,,,,
,,,,,,,,2023-08-16_08h49.06.545,HF_wild_card,2022.2.4,Win32,59.95922773,5aeaf3c226b6680001698375,64d2fd46c836a06233681665,64dc7f6dc002480885e2960e,,,,,,,sngl,resources/DP.BMP,resources/Empty.png,WildCard_NonEx,-0.296296296,-0.022222222,1,0,0,0.5311,optionLeft,45,6255,3,26,0,26,0,1,,,,,,,,,,,,,,,,,,,,,,,,,,,,,,,,,,,,,,,
,,,,,,,,2023-08-16_08h49.06.545,HF_wild_card,2022.2.4,Win32,59.95922773,5aeaf3c226b6680001698375,64d2fd46c836a06233681665,64dc7f6dc002480885e2960e,,,,,,,decisionTrl,resources/DP.BMP,resources/DBN.BMP,Door3,0.298148148,-0.019444444,1,0,0,0.997,optionRight,70,6325,3,27,0,27,0,1,,,,,,,,,,,,,,,,,,,,,,,,,,,,,,,,,,,,,,,
,,,,,,,,2023-08-16_08h49.06.545,HF_wild_card,2022.2.4,Win32,59.95922773,5aeaf3c226b6680001698375,64d2fd46c836a06233681665,64dc7f6dc002480885e2960e,,,,,,,sngl,resources/Empty.png,resources/DB.BMP,Door4,0.292592593,0.024074074,1,0,0,0.513,optionRight,60,6385,3,28,0,28,0,1,,,,,,,,,,,,,,,,,,,,,,,,,,,,,,,,,,,,,,,
,,,,,,,,2023-08-16_08h49.06.545,HF_wild_card,2022.2.4,Win32,59.95922773,5aeaf3c226b6680001698375,64d2fd46c836a06233681665,64dc7f6dc002480885e2960e,,,,,,,decisionTrl,resources/DR.BMP,resources/DY.BMP,Door2,0.27962963,0.012037037,1,0,0,0.9484,optionRight,20,6405,3,29,0,29,0,1,,,,,,,,,,,,,,,,,,,,,,,,,,,,,,,,,,,,,,,
,,,,,,,,2023-08-16_08h49.06.545,HF_wild_card,2022.2.4,Win32,59.95922773,5aeaf3c226b6680001698375,64d2fd46c836a06233681665,64dc7f6dc002480885e2960e,,,,,,,decisionTrl,resources/DBN.BMP,resources/DB.BMP,Door4,0.266666667,0.016666667,1,0,0,1.1309,optionRight,80,6485,3,30,0,30,0,1,,,,,,,,,,,,,,,,,,,,,,,,,,,,,,,,,,,,,,,
,,,,,,,,2023-08-16_08h49.06.545,HF_wild_card,2022.2.4,Win32,59.95922773,5aeaf3c226b6680001698375,64d2fd46c836a06233681665,64dc7f6dc002480885e2960e,,,,,,,decisionTrl,resources/DB.BMP,resources/DBN.BMP,Door4,-0.201851852,0.009259259,1,0,0,0.6969,optionLeft,80,6565,3,31,0,31,0,1,,,,,,,,,,,,,,,,,,,,,,,,,,,,,,,,,,,,,,,
,,,,,,,,2023-08-16_08h49.06.545,HF_wild_card,2022.2.4,Win32,59.95922773,5aeaf3c226b6680001698375,64d2fd46c836a06233681665,64dc7f6dc002480885e2960e,,,,,,,ctch,resources/DBN.BMP,resources/DY.BMP,Door3,-0.212962963,-0.002777778,1,0,0,0.8302,optionLeft,70,6635,3,32,0,32,0,1,,,,,,,,,,,,,,,,,,,,,,,,,,,,,,,,,,,,,,,
,,,,,,,,2023-08-16_08h49.06.545,HF_wild_card,2022.2.4,Win32,59.95922773,5aeaf3c226b6680001698375,64d2fd46c836a06233681665,64dc7f6dc002480885e2960e,,,,,,,decisionTrl,resources/DR.BMP,resources/DY.BMP,Door2,0.286111111,-0.018518519,1,0,0,1.3634,optionRight,20,6655,3,33,0,33,0,1,,,,,,,,,,,,,,,,,,,,,,,,,,,,,,,,,,,,,,,
,,,,,,,,2023-08-16_08h49.06.545,HF_wild_card,2022.2.4,Win32,59.95922773,5aeaf3c226b6680001698375,64d2fd46c836a06233681665,64dc7f6dc002480885e2960e,,,,,,,sngl,resources/Empty.png,resources/DR.BMP,Door1,0.286111111,0.000925926,1,0,0,0.598,optionRight,30,6685,3,34,0,34,0,1,,,,,,,,,,,,,,,,,,,,,,,,,,,,,,,,,,,,,,,
,,,,,,,,2023-08-16_08h49.06.545,HF_wild_card,2022.2.4,Win32,59.95922773,5aeaf3c226b6680001698375,64d2fd46c836a06233681665,64dc7f6dc002480885e2960e,,,,,,,sngl,resources/DBN.BMP,resources/Empty.png,Door3,-0.215740741,-0.010185185,1,0,0,0.5652,optionLeft,70,6755,3,35,0,35,0,1,,,,,,,,,,,,,,,,,,,,,,,,,,,,,,,,,,,,,,,
,,,,,,,,2023-08-16_08h49.06.545,HF_wild_card,2022.2.4,Win32,59.95922773,5aeaf3c226b6680001698375,64d2fd46c836a06233681665,64dc7f6dc002480885e2960e,,,,,,,decisionTrl,resources/DP.BMP,resources/DB.BMP,Door4,0.171296296,0.00462963,1,0,0,1.28,optionRight,60,6815,3,36,0,36,0,1,,,,,,,,,,,,,,,,,,,,,,,,,,,,,,,,,,,,,,,
,,,,,,,,2023-08-16_08h49.06.545,HF_wild_card,2022.2.4,Win32,59.95922773,5aeaf3c226b6680001698375,64d2fd46c836a06233681665,64dc7f6dc002480885e2960e,,,,,,,ctch,resources/DR.BMP,resources/DB.BMP,Door4,0.416666667,-0.008333333,1,0,0,0.8984,optionRight,60,6875,3,37,0,37,0,1,,,,,,,,,,,,,,,,,,,,,,,,,,,,,,,,,,,,,,,
,,,,,,,,2023-08-16_08h49.06.545,HF_wild_card,2022.2.4,Win32,59.95922773,5aeaf3c226b6680001698375,64d2fd46c836a06233681665,64dc7f6dc002480885e2960e,,,,,,,decisionTrl,resources/DB.BMP,resources/DP.BMP,Door4,-0.194444444,-0.005555556,1,0,0,0.6293,optionLeft,60,6935,3,38,0,38,0,1,,,,,,,,,,,,,,,,,,,,,,,,,,,,,,,,,,,,,,,
,,,,,,,,2023-08-16_08h49.06.545,HF_wild_card,2022.2.4,Win32,59.95922773,5aeaf3c226b6680001698375,64d2fd46c836a06233681665,64dc7f6dc002480885e2960e,,,,,,,sngl,resources/DP.BMP,resources/Empty.png,WildCard_NonEx,-0.25462963,0,1,0,0,0.6136,optionLeft,55,6990,3,39,0,39,0,1,,,,,,,,,,,,,,,,,,,,,,,,,,,,,,,,,,,,,,,
,,,,,,,,2023-08-16_08h49.06.545,HF_wild_card,2022.2.4,Win32,59.95922773,5aeaf3c226b6680001698375,64d2fd46c836a06233681665,64dc7f6dc002480885e2960e,,,,,,,decisionTrl,resources/DB.BMP,resources/DBN.BMP,Door4,-0.305555556,-0.017592593,1,0,0,1.4486,optionLeft,80,7070,3,40,0,40,0,1,,,,,,,,,,,,,,,,,,,,,,,,,,,,,,,,,,,,,,,
,,,,,,,,2023-08-16_08h49.06.545,HF_wild_card,2022.2.4,Win32,59.95922773,5aeaf3c226b6680001698375,64d2fd46c836a06233681665,64dc7f6dc002480885e2960e,,,,,,,ctch,resources/DY.BMP,resources/DBN.BMP,Door3,0.322222222,-0.003703704,1,0,0,1.1971,optionRight,70,7140,3,41,0,41,0,1,,,,,,,,,,,,,,,,,,,,,,,,,,,,,,,,,,,,,,,
,,,,,,,,2023-08-16_08h49.06.545,HF_wild_card,2022.2.4,Win32,59.95922773,5aeaf3c226b6680001698375,64d2fd46c836a06233681665,64dc7f6dc002480885e2960e,,,,,,,decisionTrl,resources/DBN.BMP,resources/DP.BMP,Door3,-0.247222222,-0.007407407,1,0,0,1.3483,optionLeft,70,7210,3,42,0,42,0,1,,,,,,,,,,,,,,,,,,,,,,,,,,,,,,,,,,,,,,,
,,,,,,,,2023-08-16_08h49.06.545,HF_wild_card,2022.2.4,Win32,59.95922773,5aeaf3c226b6680001698375,64d2fd46c836a06233681665,64dc7f6dc002480885e2960e,,,,,,,decisionTrl,resources/DY.BMP,resources/DR.BMP,Door1,0.251851852,-0.018518519,1,0,0,2.7647,optionRight,30,7240,3,43,0,43,0,1,,,,,,,,,,,,,,,,,,,,,,,,,,,,,,,,,,,,,,,
,,,,,,,,2023-08-16_08h49.06.545,HF_wild_card,2022.2.4,Win32,59.95922773,5aeaf3c226b6680001698375,64d2fd46c836a06233681665,64dc7f6dc002480885e2960e,,,,,,,,,,,,,,,,,,,,,,,,,,2,0,2,0,1,,,,,,,,,,,,,,,,,,,,,,,,,,,,,,,,,,
,,,,,,,,2023-08-16_08h49.06.545,HF_wild_card,2022.2.4,Win32,59.95922773,5aeaf3c226b6680001698375,64d2fd46c836a06233681665,64dc7f6dc002480885e2960e,,,,,,,ctch,resources/DR.BMP,resources/DB.BMP,Door4,0.330555556,-0.062037037,1,0,0,1.0283,optionRight,60,7300,4,0,0,0,0,1,,,,,,,,,,,,,,,,,,,,,,,,,,,,,,,,,,,,,,,
,,,,,,,,2023-08-16_08h49.06.545,HF_wild_card,2022.2.4,Win32,59.95922773,5aeaf3c226b6680001698375,64d2fd46c836a06233681665,64dc7f6dc002480885e2960e,,,,,,,ctch,resources/DBN.BMP,resources/DY.BMP,Door3,-0.255555556,0.011111111,1,0,0,0.846,optionLeft,70,7370,4,1,0,1,0,1,,,,,,,,,,,,,,,,,,,,,,,,,,,,,,,,,,,,,,,
,,,,,,,,2023-08-16_08h49.06.545,HF_wild_card,2022.2.4,Win32,59.95922773,5aeaf3c226b6680001698375,64d2fd46c836a06233681665,64dc7f6dc002480885e2960e,,,,,,,decisionTrl,resources/DB.BMP,resources/DG.BMP,Door4,-0.206481481,-0.007407407,1,0,0,1.9796,optionLeft,60,7430,4,2,0,2,0,1,,,,,,,,,,,,,,,,,,,,,,,,,,,,,,,,,,,,,,,
,,,,,,,,2023-08-16_08h49.06.545,HF_wild_card,2022.2.4,Win32,59.95922773,5aeaf3c226b6680001698375,64d2fd46c836a06233681665,64dc7f6dc002480885e2960e,,,,,,,ctch,resources/DB.BMP,resources/DR.BMP,Door4,-0.238888889,-0.02037037,1,0,0,0.5962,optionLeft,80,7510,4,3,0,3,0,1,,,,,,,,,,,,,,,,,,,,,,,,,,,,,,,,,,,,,,,
,,,,,,,,2023-08-16_08h49.06.545,HF_wild_card,2022.2.4,Win32,59.95922773,5aeaf3c226b6680001698375,64d2fd46c836a06233681665,64dc7f6dc002480885e2960e,,,,,,,ctch,resources/DBN.BMP,resources/DY.BMP,Door3,-0.187962963,-0.011111111,1,0,0,0.7146,optionLeft,70,7580,4,4,0,4,0,1,,,,,,,,,,,,,,,,,,,,,,,,,,,,,,,,,,,,,,,
,,,,,,,,2023-08-16_08h49.06.545,HF_wild_card,2022.2.4,Win32,59.95922773,5aeaf3c226b6680001698375,64d2fd46c836a06233681665,64dc7f6dc002480885e2960e,,,,,,,decisionTrl,resources/DB.BMP,resources/DBN.BMP,Door4,-0.227777778,0.007407407,1,0,0,0.513,optionLeft,60,7640,4,5,0,5,0,1,,,,,,,,,,,,,,,,,,,,,,,,,,,,,,,,,,,,,,,
,,,,,,,,2023-08-16_08h49.06.545,HF_wild_card,2022.2.4,Win32,59.95922773,5aeaf3c226b6680001698375,64d2fd46c836a06233681665,64dc7f6dc002480885e2960e,,,,,,,decisionTrl,resources/DY.BMP,resources/DR.BMP,Door1,0.151851852,-0.013888889,1,0,0,1.08,optionRight,30,7670,4,6,0,6,0,1,,,,,,,,,,,,,,,,,,,,,,,,,,,,,,,,,,,,,,,
,,,,,,,,2023-08-16_08h49.06.545,HF_wild_card,2022.2.4,Win32,59.95922773,5aeaf3c226b6680001698375,64d2fd46c836a06233681665,64dc7f6dc002480885e2960e,,,,,,,sngl,resources/Empty.png,resources/DY.BMP,Door2,0.225925926,0.009259259,1,0,0,0.562,optionRight,40,7710,4,7,0,7,0,1,,,,,,,,,,,,,,,,,,,,,,,,,,,,,,,,,,,,,,,
,,,,,,,,2023-08-16_08h49.06.545,HF_wild_card,2022.2.4,Win32,59.95922773,5aeaf3c226b6680001698375,64d2fd46c836a06233681665,64dc7f6dc002480885e2960e,,,,,,,decisionTrl,resources/DB.BMP,resources/DBN.BMP,Door3,0.2,-0.002777778,1,0,0,1.1306,optionRight,70,7780,4,8,0,8,0,1,,,,,,,,,,,,,,,,,,,,,,,,,,,,,,,,,,,,,,,
,,,,,,,,2023-08-16_08h49.06.545,HF_wild_card,2022.2.4,Win32,59.95922773,5aeaf3c226b6680001698375,64d2fd46c836a06233681665,64dc7f6dc002480885e2960e,,,,,,,decisionTrl,resources/DG.BMP,resources/DBN.BMP,Door3,0.312037037,-0.002777778,1,0,0,0.6133,optionRight,70,7850,4,9,0,9,0,1,,,,,,,,,,,,,,,,,,,,,,,,,,,,,,,,,,,,,,,
,,,,,,,,2023-08-16_08h49.06.545,HF_wild_card,2022.2.4,Win32,59.95922773,5aeaf3c226b6680001698375,64d2fd46c836a06233681665,64dc7f6dc002480885e2960e,,,,,,,decisionTrl,resources/DBN.BMP,resources/DG.BMP,WildCard_Ex,0.327777778,-0.000925926,1,0,0,0.5815,optionRight,95,7945,4,10,0,10,0,1,,,,,,,,,,,,,,,,,,,,,,,,,,,,,,,,,,,,,,,
,,,,,,,,2023-08-16_08h49.06.545,HF_wild_card,2022.2.4,Win32,59.95922773,5aeaf3c226b6680001698375,64d2fd46c836a06233681665,64dc7f6dc002480885e2960e,,,,,,,decisionTrl,resources/DY.BMP,resources/DR.BMP,Door1,0.284259259,-0.043518519,1,0,0,4.1969,optionRight,30,7975,4,11,0,11,0,1,,,,,,,,,,,,,,,,,,,,,,,,,,,,,,,,,,,,,,,
,,,,,,,,2023-08-16_08h49.06.545,HF_wild_card,2022.2.4,Win32,59.95922773,5aeaf3c226b6680001698375,64d2fd46c836a06233681665,64dc7f6dc002480885e2960e,,,,,,,ctch,resources/DY.BMP,resources/DBN.BMP,Door3,0.250925926,-0.000925926,1,0,0,0.8152,optionRight,70,8045,4,12,0,12,0,1,,,,,,,,,,,,,,,,,,,,,,,,,,,,,,,,,,,,,,,
,,,,,,,,2023-08-16_08h49.06.545,HF_wild_card,2022.2.4,Win32,59.95922773,5aeaf3c226b6680001698375,64d2fd46c836a06233681665,64dc7f6dc002480885e2960e,,,,,,,decisionTrl,resources/DG.BMP,resources/DY.BMP,WildCard_Ex,-0.227777778,-0.032407407,1,0,0,0.6983,optionLeft,95,8140,4,13,0,13,0,1,,,,,,,,,,,,,,,,,,,,,,,,,,,,,,,,,,,,,,,
,,,,,,,,2023-08-16_08h49.06.545,HF_wild_card,2022.2.4,Win32,59.95922773,5aeaf3c226b6680001698375,64d2fd46c836a06233681665,64dc7f6dc002480885e2960e,,,,,,,decisionTrl,resources/DBN.BMP,resources/DB.BMP,Door4,0.337962963,-0.003703704,1,0,0,1.2798,optionRight,60,8200,4,14,0,14,0,1,,,,,,,,,,,,,,,,,,,,,,,,,,,,,,,,,,,,,,,
,,,,,,,,2023-08-16_08h49.06.545,HF_wild_card,2022.2.4,Win32,59.95922773,5aeaf3c226b6680001698375,64d2fd46c836a06233681665,64dc7f6dc002480885e2960e,,,,,,,sngl,resources/Empty.png,resources/DG.BMP,WildCard_Ex,0.405555556,0.000925926,1,0,0,0.5483,optionRight,5,8205,4,15,0,15,0,1,,,,,,,,,,,,,,,,,,,,,,,,,,,,,,,,,,,,,,,
,,,,,,,,2023-08-16_08h49.06.545,HF_wild_card,2022.2.4,Win32,59.95922773,5aeaf3c226b6680001698375,64d2fd46c836a06233681665,64dc7f6dc002480885e2960e,,,,,,,decisionTrl,resources/DY.BMP,resources/DG.BMP,WildCard_Ex,0.237037037,0.005555556,1,0,0,1.0134,optionRight,5,8210,4,16,0,16,0,1,,,,,,,,,,,,,,,,,,,,,,,,,,,,,,,,,,,,,,,
,,,,,,,,2023-08-16_08h49.06.545,HF_wild_card,2022.2.4,Win32,59.95922773,5aeaf3c226b6680001698375,64d2fd46c836a06233681665,64dc7f6dc002480885e2960e,,,,,,,sngl,resources/Empty.png,resources/DR.BMP,Door1,0.325,0.013888889,1,0,0,0.7966,optionRight,30,8240,4,17,0,17,0,1,,,,,,,,,,,,,,,,,,,,,,,,,,,,,,,,,,,,,,,
,,,,,,,,2023-08-16_08h49.06.545,HF_wild_card,2022.2.4,Win32,59.95922773,5aeaf3c226b6680001698375,64d2fd46c836a06233681665,64dc7f6dc002480885e2960e,,,,,,,decisionTrl,resources/DR.BMP,resources/DY.BMP,Door1,-0.142592593,-0.031481481,1,0,0,2.0484,optionLeft,30,8270,4,18,0,18,0,1,,,,,,,,,,,,,,,,,,,,,,,,,,,,,,,,,,,,,,,
,,,,,,,,2023-08-16_08h49.06.545,HF_wild_card,2022.2.4,Win32,59.95922773,5aeaf3c226b6680001698375,64d2fd46c836a06233681665,64dc7f6dc002480885e2960e,,,,,,,decisionTrl,resources/DR.BMP,resources/DY.BMP,Door2,0.246296296,-0.010185185,1,0,0,1.0985,optionRight,20,8290,4,19,0,19,0,1,,,,,,,,,,,,,,,,,,,,,,,,,,,,,,,,,,,,,,,
,,,,,,,,2023-08-16_08h49.06.545,HF_wild_card,2022.2.4,Win32,59.95922773,5aeaf3c226b6680001698375,64d2fd46c836a06233681665,64dc7f6dc002480885e2960e,,,,,,,decisionTrl,resources/DY.BMP,resources/DR.BMP,Door2,-0.262962963,-0.039814815,1,0,0,0.9801,optionLeft,40,8330,4,20,0,20,0,1,,,,,,,,,,,,,,,,,,,,,,,,,,,,,,,,,,,,,,,
,,,,,,,,2023-08-16_08h49.06.545,HF_wild_card,2022.2.4,Win32,59.95922773,5aeaf3c226b6680001698375,64d2fd46c836a06233681665,64dc7f6dc002480885e2960e,,,,,,,sngl,resources/DY.BMP,resources/Empty.png,Door2,-0.192592593,-0.000925926,1,0,0,0.5139,optionLeft,20,8350,4,21,0,21,0,1,,,,,,,,,,,,,,,,,,,,,,,,,,,,,,,,,,,,,,,
,,,,,,,,2023-08-16_08h49.06.545,HF_wild_card,2022.2.4,Win32,59.95922773,5aeaf3c226b6680001698375,64d2fd46c836a06233681665,64dc7f6dc002480885e2960e,,,,,,,decisionTrl,resources/DBN.BMP,resources/DB.BMP,Door4,0.301851852,-0.015740741,1,0,0,1.4301,optionRight,60,8410,4,22,0,22,0,1,,,,,,,,,,,,,,,,,,,,,,,,,,,,,,,,,,,,,,,
,,,,,,,,2023-08-16_08h49.06.545,HF_wild_card,2022.2.4,Win32,59.95922773,5aeaf3c226b6680001698375,64d2fd46c836a06233681665,64dc7f6dc002480885e2960e,,,,,,,ctch,resources/DB.BMP,resources/DR.BMP,Door4,-0.12962963,-0.016666667,1,0,0,0.6303,optionLeft,60,8470,4,23,0,23,0,1,,,,,,,,,,,,,,,,,,,,,,,,,,,,,,,,,,,,,,,
,,,,,,,,2023-08-16_08h49.06.545,HF_wild_card,2022.2.4,Win32,59.95922773,5aeaf3c226b6680001698375,64d2fd46c836a06233681665,64dc7f6dc002480885e2960e,,,,,,,decisionTrl,resources/DG.BMP,resources/DB.BMP,WildCard_Ex,-0.199074074,-0.008333333,1,0,0,1.3984,optionLeft,5,8475,4,24,0,24,0,1,,,,,,,,,,,,,,,,,,,,,,,,,,,,,,,,,,,,,,,
,,,,,,,,2023-08-16_08h49.06.545,HF_wild_card,2022.2.4,Win32,59.95922773,5aeaf3c226b6680001698375,64d2fd46c836a06233681665,64dc7f6dc002480885e2960e,,,,,,,decisionTrl,resources/DBN.BMP,resources/DB.BMP,Door3,-0.205555556,-0.036111111,1,0,0,1.3967,optionLeft,70,8545,4,25,0,25,0,1,,,,,,,,,,,,,,,,,,,,,,,,,,,,,,,,,,,,,,,
,,,,,,,,2023-08-16_08h49.06.545,HF_wild_card,2022.2.4,Win32,59.95922773,5aeaf3c226b6680001698375,64d2fd46c836a06233681665,64dc7f6dc002480885e2960e,,,,,,,decisionTrl,resources/DY.BMP,resources/DR.BMP,Door1,0.259259259,-0.040740741,1,0,0,1.3136,optionRight,30,8575,4,26,0,26,0,1,,,,,,,,,,,,,,,,,,,,,,,,,,,,,,,,,,,,,,,
,,,,,,,,2023-08-16_08h49.06.545,HF_wild_card,2022.2.4,Win32,59.95922773,5aeaf3c226b6680001698375,64d2fd46c836a06233681665,64dc7f6dc002480885e2960e,,,,,,,ctch,resources/DY.BMP,resources/DBN.BMP,Door3,0.261111111,-0.005555556,1,0,0,0.7803,optionRight,70,8645,4,27,0,27,0,1,,,,,,,,,,,,,,,,,,,,,,,,,,,,,,,,,,,,,,,
,,,,,,,,2023-08-16_08h49.06.545,HF_wild_card,2022.2.4,Win32,59.95922773,5aeaf3c226b6680001698375,64d2fd46c836a06233681665,64dc7f6dc002480885e2960e,,,,,,,sngl,resources/DR.BMP,resources/Empty.png,Door1,-0.101851852,-0.037037037,1,0,0,0.609,optionLeft,30,8675,4,28,0,28,0,1,,,,,,,,,,,,,,,,,,,,,,,,,,,,,,,,,,,,,,,
,,,,,,,,2023-08-16_08h49.06.545,HF_wild_card,2022.2.4,Win32,59.95922773,5aeaf3c226b6680001698375,64d2fd46c836a06233681665,64dc7f6dc002480885e2960e,,,,,,,sngl,resources/DG.BMP,resources/Empty.png,WildCard_Ex,-0.225,0.042592593,1,0,0,0.5815,optionLeft,5,8680,4,29,0,29,0,1,,,,,,,,,,,,,,,,,,,,,,,,,,,,,,,,,,,,,,,
,,,,,,,,2023-08-16_08h49.06.545,HF_wild_card,2022.2.4,Win32,59.95922773,5aeaf3c226b6680001698375,64d2fd46c836a06233681665,64dc7f6dc002480885e2960e,,,,,,,sngl,resources/DB.BMP,resources/Empty.png,Door4,-0.233333333,-0.016666667,1,0,0,0.5806,optionLeft,60,8740,4,30,0,30,0,1,,,,,,,,,,,,,,,,,,,,,,,,,,,,,,,,,,,,,,,
,,,,,,,,2023-08-16_08h49.06.545,HF_wild_card,2022.2.4,Win32,59.95922773,5aeaf3c226b6680001698375,64d2fd46c836a06233681665,64dc7f6dc002480885e2960e,,,,,,,decisionTrl,resources/DG.BMP,resources/DR.BMP,WildCard_Ex,-0.176851852,-0.014814815,1,0,0,1.0315,optionLeft,95,8835,4,31,0,31,0,1,,,,,,,,,,,,,,,,,,,,,,,,,,,,,,,,,,,,,,,
,,,,,,,,2023-08-16_08h49.06.545,HF_wild_card,2022.2.4,Win32,59.95922773,5aeaf3c226b6680001698375,64d2fd46c836a06233681665,64dc7f6dc002480885e2960e,,,,,,,sngl,resources/Empty.png,resources/DB.BMP,Door4,0.274074074,0.022222222,1,0,0,0.5965,optionRight,80,8915,4,32,0,32,0,1,,,,,,,,,,,,,,,,,,,,,,,,,,,,,,,,,,,,,,,
,,,,,,,,2023-08-16_08h49.06.545,HF_wild_card,2022.2.4,Win32,59.95922773,5aeaf3c226b6680001698375,64d2fd46c836a06233681665,64dc7f6dc002480885e2960e,,,,,,,decisionTrl,resources/DR.BMP,resources/DY.BMP,Door2,0.283333333,-0.002777778,1,0,0,0.9648,optionRight,40,8955,4,33,0,33,0,1,,,,,,,,,,,,,,,,,,,,,,,,,,,,,,,,,,,,,,,
,,,,,,,,2023-08-16_08h49.06.545,HF_wild_card,2022.2.4,Win32,59.95922773,5aeaf3c226b6680001698375,64d2fd46c836a06233681665,64dc7f6dc002480885e2960e,,,,,,,decisionTrl,resources/DR.BMP,resources/DG.BMP,WildCard_Ex,0.275,0.010185185,1,0,0,0.9152,optionRight,95,9050,4,34,0,34,0,1,,,,,,,,,,,,,,,,,,,,,,,,,,,,,,,,,,,,,,,
,,,,,,,,2023-08-16_08h49.06.545,HF_wild_card,2022.2.4,Win32,59.95922773,5aeaf3c226b6680001698375,64d2fd46c836a06233681665,64dc7f6dc002480885e2960e,,,,,,,ctch,resources/DR.BMP,resources/DB.BMP,Door4,0.287037037,-0.000925926,1,0,0,0.7131,optionRight,60,9110,4,35,0,35,0,1,,,,,,,,,,,,,,,,,,,,,,,,,,,,,,,,,,,,,,,
,,,,,,,,2023-08-16_08h49.06.545,HF_wild_card,2022.2.4,Win32,59.95922773,5aeaf3c226b6680001698375,64d2fd46c836a06233681665,64dc7f6dc002480885e2960e,,,,,,,sngl,resources/Empty.png,resources/DG.BMP,WildCard_Ex,0.280555556,0.010185185,1,0,0,0.5963,optionRight,95,9205,4,36,0,36,0,1,,,,,,,,,,,,,,,,,,,,,,,,,,,,,,,,,,,,,,,
,,,,,,,,2023-08-16_08h49.06.545,HF_wild_card,2022.2.4,Win32,59.95922773,5aeaf3c226b6680001698375,64d2fd46c836a06233681665,64dc7f6dc002480885e2960e,,,,,,,decisionTrl,resources/DB.BMP,resources/DBN.BMP,Door4,-0.214814815,-0.033333333,1,0,0,1.5479,optionLeft,80,9285,4,37,0,37,0,1,,,,,,,,,,,,,,,,,,,,,,,,,,,,,,,,,,,,,,,
,,,,,,,,2023-08-16_08h49.06.545,HF_wild_card,2022.2.4,Win32,59.95922773,5aeaf3c226b6680001698375,64d2fd46c836a06233681665,64dc7f6dc002480885e2960e,,,,,,,decisionTrl,resources/DR.BMP,resources/DY.BMP,Door2,0.292592593,0.00462963,1,0,0,1.0131,optionRight,40,9325,4,38,0,38,0,1,,,,,,,,,,,,,,,,,,,,,,,,,,,,,,,,,,,,,,,
,,,,,,,,2023-08-16_08h49.06.545,HF_wild_card,2022.2.4,Win32,59.95922773,5aeaf3c226b6680001698375,64d2fd46c836a06233681665,64dc7f6dc002480885e2960e,,,,,,,sngl,resources/Empty.png,resources/DBN.BMP,Door3,0.250925926,0.005555556,1,0,0,0.5146,optionRight,70,9395,4,39,0,39,0,1,,,,,,,,,,,,,,,,,,,,,,,,,,,,,,,,,,,,,,,
,,,,,,,,2023-08-16_08h49.06.545,HF_wild_card,2022.2.4,Win32,59.95922773,5aeaf3c226b6680001698375,64d2fd46c836a06233681665,64dc7f6dc002480885e2960e,,,,,,,sngl,resources/DBN.BMP,resources/Empty.png,Door3,-0.287037037,-0.02962963,1,0,0,2.7314,optionLeft,70,9465,4,40,0,40,0,1,,,,,,,,,,,,,,,,,,,,,,,,,,,,,,,,,,,,,,,
,,,,,,,,2023-08-16_08h49.06.545,HF_wild_card,2022.2.4,Win32,59.95922773,5aeaf3c226b6680001698375,64d2fd46c836a06233681665,64dc7f6dc002480885e2960e,,,,,,,sngl,resources/DG.BMP,resources/Empty.png,WildCard_Ex,-0.264814815,-0.014814815,1,0,0,0.7318,optionLeft,95,9560,4,41,0,41,0,1,,,,,,,,,,,,,,,,,,,,,,,,,,,,,,,,,,,,,,,
,,,,,,,,2023-08-16_08h49.06.545,HF_wild_card,2022.2.4,Win32,59.95922773,5aeaf3c226b6680001698375,64d2fd46c836a06233681665,64dc7f6dc002480885e2960e,,,,,,,decisionTrl,resources/DB.BMP,resources/DBN.BMP,Door4,-0.35462963,-0.034259259,1,0,0,1.3298,optionLeft,60,9620,4,42,0,42,0,1,,,,,,,,,,,,,,,,,,,,,,,,,,,,,,,,,,,,,,,
,,,,,,,,2023-08-16_08h49.06.545,HF_wild_card,2022.2.4,Win32,59.95922773,5aeaf3c226b6680001698375,64d2fd46c836a06233681665,64dc7f6dc002480885e2960e,,,,,,,decisionTrl,resources/DBN.BMP,resources/DB.BMP,Door3,-0.264814815,-0.007407407,1,0,0,1.1319,optionLeft,70,9690,4,43,0,43,0,1,,,,,,,,,,,,,,,,,,,,,,,,,,,,,,,,,,,,,,,
,,,,,,,,2023-08-16_08h49.06.545,HF_wild_card,2022.2.4,Win32,59.95922773,5aeaf3c226b6680001698375,64d2fd46c836a06233681665,64dc7f6dc002480885e2960e,,,,,,,,,,,,,,,,,,,,,,,,,,3,0,3,0,1,,,,,,,,,,,,,,,,,,,,,,,,,,,,,,,,,,
,,,,,,,,2023-08-16_08h49.06.545,HF_wild_card,2022.2.4,Win32,59.95922773,5aeaf3c226b6680001698375,64d2fd46c836a06233681665,64dc7f6dc002480885e2960e,,,,,,,ctch,resources/DBN.BMP,resources/DY.BMP,Door3,-0.217592593,-0.069444444,1,0,0,0.8967,optionLeft,70,9760,5,0,0,0,0,1,,,,,,,,,,,,,,,,,,,,,,,,,,,,,,,,,,,,,,,
,,,,,,,,2023-08-16_08h49.06.545,HF_wild_card,2022.2.4,Win32,59.95922773,5aeaf3c226b6680001698375,64d2fd46c836a06233681665,64dc7f6dc002480885e2960e,,,,,,,decisionTrl,resources/DG.BMP,resources/DR.BMP,WildCard_Ex,-0.288888889,-0.024074074,1,0,0,0.6301,optionLeft,95,9855,5,1,0,1,0,1,,,,,,,,,,,,,,,,,,,,,,,,,,,,,,,,,,,,,,,
,,,,,,,,2023-08-16_08h49.06.545,HF_wild_card,2022.2.4,Win32,59.95922773,5aeaf3c226b6680001698375,64d2fd46c836a06233681665,64dc7f6dc002480885e2960e,,,,,,,decisionTrl,resources/DBN.BMP,resources/DB.BMP,Door3,-0.264814815,-0.009259259,1,0,0,0.8308,optionLeft,70,9925,5,2,0,2,0,1,,,,,,,,,,,,,,,,,,,,,,,,,,,,,,,,,,,,,,,
,,,,,,,,2023-08-16_08h49.06.545,HF_wild_card,2022.2.4,Win32,59.95922773,5aeaf3c226b6680001698375,64d2fd46c836a06233681665,64dc7f6dc002480885e2960e,,,,,,,decisionTrl,resources/DY.BMP,resources/DR.BMP,Door2,-0.243518519,-0.037962963,1,0,0,1.0467,optionLeft,20,9945,5,3,0,3,0,1,,,,,,,,,,,,,,,,,,,,,,,,,,,,,,,,,,,,,,,
,,,,,,,,2023-08-16_08h49.06.545,HF_wild_card,2022.2.4,Win32,59.95922773,5aeaf3c226b6680001698375,64d2fd46c836a06233681665,64dc7f6dc002480885e2960e,,,,,,,decisionTrl,resources/DBN.BMP,resources/DG.BMP,WildCard_Ex,0.294444444,-0.00462963,1,0,0,0.613,optionRight,5,9950,5,4,0,4,0,1,,,,,,,,,,,,,,,,,,,,,,,,,,,,,,,,,,,,,,,
,,,,,,,,2023-08-16_08h49.06.545,HF_wild_card,2022.2.4,Win32,59.95922773,5aeaf3c226b6680001698375,64d2fd46c836a06233681665,64dc7f6dc002480885e2960e,,,,,,,decisionTrl,resources/DG.BMP,resources/DY.BMP,WildCard_Ex,-0.183333333,-0.017592593,1,0,0,0.7296,optionLeft,5,9955,5,5,0,5,0,1,,,,,,,,,,,,,,,,,,,,,,,,,,,,,,,,,,,,,,,
,,,,,,,,2023-08-16_08h49.06.545,HF_wild_card,2022.2.4,Win32,59.95922773,5aeaf3c226b6680001698375,64d2fd46c836a06233681665,64dc7f6dc002480885e2960e,,,,,,,sngl,resources/DG.BMP,resources/Empty.png,WildCard_Ex,-0.162962963,-0.026851852,1,0,0,0.6969,optionLeft,5,9960,5,6,0,6,0,1,,,,,,,,,,,,,,,,,,,,,,,,,,,,,,,,,,,,,,,
,,,,,,,,2023-08-16_08h49.06.545,HF_wild_card,2022.2.4,Win32,59.95922773,5aeaf3c226b6680001698375,64d2fd46c836a06233681665,64dc7f6dc002480885e2960e,,,,,,,ctch,resources/DY.BMP,resources/DBN.BMP,Door3,0.250925926,-0.016666667,1,0,0,0.7479,optionRight,70,10030,5,7,0,7,0,1,,,,,,,,,,,,,,,,,,,,,,,,,,,,,,,,,,,,,,,
,,,,,,,,2023-08-16_08h49.06.545,HF_wild_card,2022.2.4,Win32,59.95922773,5aeaf3c226b6680001698375,64d2fd46c836a06233681665,64dc7f6dc002480885e2960e,,,,,,,decisionTrl,resources/DY.BMP,resources/DR.BMP,Door2,-0.282407407,-0.043518519,1,0,0,0.863,optionLeft,40,10070,5,8,0,8,0,1,,,,,,,,,,,,,,,,,,,,,,,,,,,,,,,,,,,,,,,
,,,,,,,,2023-08-16_08h49.06.545,HF_wild_card,2022.2.4,Win32,59.95922773,5aeaf3c226b6680001698375,64d2fd46c836a06233681665,64dc7f6dc002480885e2960e,,,,,,,ctch,resources/DB.BMP,resources/DR.BMP,Door4,-0.261111111,-0.050925926,1,0,0,0.6634,optionLeft,60,10130,5,9,0,9,0,1,,,,,,,,,,,,,,,,,,,,,,,,,,,,,,,,,,,,,,,
,,,,,,,,2023-08-16_08h49.06.545,HF_wild_card,2022.2.4,Win32,59.95922773,5aeaf3c226b6680001698375,64d2fd46c836a06233681665,64dc7f6dc002480885e2960e,,,,,,,sngl,resources/DR.BMP,resources/Empty.png,Door1,-0.185185185,-0.024074074,1,0,0,0.6131,optionLeft,30,10160,5,10,0,10,0,1,,,,,,,,,,,,,,,,,,,,,,,,,,,,,,,,,,,,,,,
,,,,,,,,2023-08-16_08h49.06.545,HF_wild_card,2022.2.4,Win32,59.95922773,5aeaf3c226b6680001698375,64d2fd46c836a06233681665,64dc7f6dc002480885e2960e,,,,,,,ctch,resources/DR.BMP,resources/DB.BMP,Door4,0.243518519,-0.044444444,1,0,0,0.7966,optionRight,60,10220,5,11,0,11,0,1,,,,,,,,,,,,,,,,,,,,,,,,,,,,,,,,,,,,,,,
,,,,,,,,2023-08-16_08h49.06.545,HF_wild_card,2022.2.4,Win32,59.95922773,5aeaf3c226b6680001698375,64d2fd46c836a06233681665,64dc7f6dc002480885e2960e,,,,,,,decisionTrl,resources/DB.BMP,resources/DG.BMP,WildCard_Ex,0.265740741,-0.021296296,1,0,0,0.599,optionRight,95,10315,5,12,0,12,0,1,,,,,,,,,,,,,,,,,,,,,,,,,,,,,,,,,,,,,,,
,,,,,,,,2023-08-16_08h49.06.545,HF_wild_card,2022.2.4,Win32,59.95922773,5aeaf3c226b6680001698375,64d2fd46c836a06233681665,64dc7f6dc002480885e2960e,,,,,,,decisionTrl,resources/DB.BMP,resources/DBN.BMP,Door4,-0.193518519,-0.040740741,1,0,0,1.6878,optionLeft,60,10375,5,13,0,13,0,1,,,,,,,,,,,,,,,,,,,,,,,,,,,,,,,,,,,,,,,
,,,,,,,,2023-08-16_08h49.06.545,HF_wild_card,2022.2.4,Win32,59.95922773,5aeaf3c226b6680001698375,64d2fd46c836a06233681665,64dc7f6dc002480885e2960e,,,,,,,sngl,resources/DBN.BMP,resources/Empty.png,Door3,-0.153703704,-0.010185185,1,0,0,0.5649,optionLeft,70,10445,5,14,0,14,0,1,,,,,,,,,,,,,,,,,,,,,,,,,,,,,,,,,,,,,,,
,,,,,,,,2023-08-16_08h49.06.545,HF_wild_card,2022.2.4,Win32,59.95922773,5aeaf3c226b6680001698375,64d2fd46c836a06233681665,64dc7f6dc002480885e2960e,,,,,,,decisionTrl,resources/DBN.BMP,resources/DB.BMP,Door3,-0.184259259,-0.033333333,1,0,0,0.5641,optionLeft,70,10515,5,15,0,15,0,1,,,,,,,,,,,,,,,,,,,,,,,,,,,,,,,,,,,,,,,
,,,,,,,,2023-08-16_08h49.06.545,HF_wild_card,2022.2.4,Win32,59.95922773,5aeaf3c226b6680001698375,64d2fd46c836a06233681665,64dc7f6dc002480885e2960e,,,,,,,decisionTrl,resources/DY.BMP,resources/DG.BMP,WildCard_Ex,0.243518519,-0.006481481,1,0,0,0.8629,optionRight,5,10520,5,16,0,16,0,1,,,,,,,,,,,,,,,,,,,,,,,,,,,,,,,,,,,,,,,
,,,,,,,,2023-08-16_08h49.06.545,HF_wild_card,2022.2.4,Win32,59.95922773,5aeaf3c226b6680001698375,64d2fd46c836a06233681665,64dc7f6dc002480885e2960e,,,,,,,ctch,resources/DB.BMP,resources/DR.BMP,Door4,-0.137962963,-0.016666667,1,0,0,0.7463,optionLeft,60,10580,5,17,0,17,0,1,,,,,,,,,,,,,,,,,,,,,,,,,,,,,,,,,,,,,,,
,,,,,,,,2023-08-16_08h49.06.545,HF_wild_card,2022.2.4,Win32,59.95922773,5aeaf3c226b6680001698375,64d2fd46c836a06233681665,64dc7f6dc002480885e2960e,,,,,,,sngl,resources/Empty.png,resources/DY.BMP,Door2,0.205555556,-0.008333333,1,0,0,0.6484,optionRight,20,10600,5,18,0,18,0,1,,,,,,,,,,,,,,,,,,,,,,,,,,,,,,,,,,,,,,,
,,,,,,,,2023-08-16_08h49.06.545,HF_wild_card,2022.2.4,Win32,59.95922773,5aeaf3c226b6680001698375,64d2fd46c836a06233681665,64dc7f6dc002480885e2960e,,,,,,,decisionTrl,resources/DR.BMP,resources/DY.BMP,Door2,0.199074074,-0.008333333,1,0,0,0.9313,optionRight,20,10620,5,19,0,19,0,1,,,,,,,,,,,,,,,,,,,,,,,,,,,,,,,,,,,,,,,
,,,,,,,,2023-08-16_08h49.06.545,HF_wild_card,2022.2.4,Win32,59.95922773,5aeaf3c226b6680001698375,64d2fd46c836a06233681665,64dc7f6dc002480885e2960e,,,,,,,decisionTrl,resources/DR.BMP,resources/DY.BMP,Door2,0.231481481,-0.028703704,1,0,0,1.0137,optionRight,40,10660,5,20,0,20,0,1,,,,,,,,,,,,,,,,,,,,,,,,,,,,,,,,,,,,,,,
,,,,,,,,2023-08-16_08h49.06.545,HF_wild_card,2022.2.4,Win32,59.95922773,5aeaf3c226b6680001698375,64d2fd46c836a06233681665,64dc7f6dc002480885e2960e,,,,,,,sngl,resources/Empty.png,resources/DG.BMP,WildCard_Ex,0.216666667,-0.009259259,1,0,0,0.6981,optionRight,5,10665,5,21,0,21,0,1,,,,,,,,,,,,,,,,,,,,,,,,,,,,,,,,,,,,,,,
,,,,,,,,2023-08-16_08h49.06.545,HF_wild_card,2022.2.4,Win32,59.95922773,5aeaf3c226b6680001698375,64d2fd46c836a06233681665,64dc7f6dc002480885e2960e,,,,,,,sngl,resources/DB.BMP,resources/Empty.png,Door4,-0.175925926,0,1,0,0,0.5138,optionLeft,80,10745,5,22,0,22,0,1,,,,,,,,,,,,,,,,,,,,,,,,,,,,,,,,,,,,,,,
,,,,,,,,2023-08-16_08h49.06.545,HF_wild_card,2022.2.4,Win32,59.95922773,5aeaf3c226b6680001698375,64d2fd46c836a06233681665,64dc7f6dc002480885e2960e,,,,,,,decisionTrl,resources/DY.BMP,resources/DR.BMP,Door2,-0.198148148,-0.02037037,1,0,0,1.0635,optionLeft,40,10785,5,23,0,23,0,1,,,,,,,,,,,,,,,,,,,,,,,,,,,,,,,,,,,,,,,
,,,,,,,,2023-08-16_08h49.06.545,HF_wild_card,2022.2.4,Win32,59.95922773,5aeaf3c226b6680001698375,64d2fd46c836a06233681665,64dc7f6dc002480885e2960e,,,,,,,sngl,resources/DY.BMP,resources/Empty.png,Door2,-0.202777778,0.000925926,1,0,0,0.5299,optionLeft,40,10825,5,24,0,24,0,1,,,,,,,,,,,,,,,,,,,,,,,,,,,,,,,,,,,,,,,
,,,,,,,,2023-08-16_08h49.06.545,HF_wild_card,2022.2.4,Win32,59.95922773,5aeaf3c226b6680001698375,64d2fd46c836a06233681665,64dc7f6dc002480885e2960e,,,,,,,decisionTrl,resources/DY.BMP,resources/DR.BMP,Door2,-0.182407407,-0.009259259,1,0,0,0.5818,optionLeft,20,10845,5,25,0,25,0,1,,,,,,,,,,,,,,,,,,,,,,,,,,,,,,,,,,,,,,,
,,,,,,,,2023-08-16_08h49.06.545,HF_wild_card,2022.2.4,Win32,59.95922773,5aeaf3c226b6680001698375,64d2fd46c836a06233681665,64dc7f6dc002480885e2960e,,,,,,,ctch,resources/DY.BMP,resources/DBN.BMP,Door3,0.262037037,-0.032407407,1,0,0,0.8134,optionRight,70,10915,5,26,0,26,0,1,,,,,,,,,,,,,,,,,,,,,,,,,,,,,,,,,,,,,,,
,,,,,,,,2023-08-16_08h49.06.545,HF_wild_card,2022.2.4,Win32,59.95922773,5aeaf3c226b6680001698375,64d2fd46c836a06233681665,64dc7f6dc002480885e2960e,,,,,,,decisionTrl,resources/DBN.BMP,resources/DB.BMP,Door4,0.337962963,0.000925926,1,0,0,1.7316,optionRight,60,10975,5,27,0,27,0,1,,,,,,,,,,,,,,,,,,,,,,,,,,,,,,,,,,,,,,,
,,,,,,,,2023-08-16_08h49.06.545,HF_wild_card,2022.2.4,Win32,59.95922773,5aeaf3c226b6680001698375,64d2fd46c836a06233681665,64dc7f6dc002480885e2960e,,,,,,,sngl,resources/Empty.png,resources/DR.BMP,Door1,0.381481481,-0.00462963,1,0,0,0.5646,optionRight,30,11005,5,28,0,28,0,1,,,,,,,,,,,,,,,,,,,,,,,,,,,,,,,,,,,,,,,
,,,,,,,,2023-08-16_08h49.06.545,HF_wild_card,2022.2.4,Win32,59.95922773,5aeaf3c226b6680001698375,64d2fd46c836a06233681665,64dc7f6dc002480885e2960e,,,,,,,decisionTrl,resources/DR.BMP,resources/DY.BMP,Door1,-0.264814815,-0.023148148,1,0,0,1.4468,optionLeft,30,11035,5,29,0,29,0,1,,,,,,,,,,,,,,,,,,,,,,,,,,,,,,,,,,,,,,,
,,,,,,,,2023-08-16_08h49.06.545,HF_wild_card,2022.2.4,Win32,59.95922773,5aeaf3c226b6680001698375,64d2fd46c836a06233681665,64dc7f6dc002480885e2960e,,,,,,,ctch,resources/DR.BMP,resources/DB.BMP,Door4,0.181481481,-0.035185185,1,0,0,0.8624,optionRight,80,11115,5,30,0,30,0,1,,,,,,,,,,,,,,,,,,,,,,,,,,,,,,,,,,,,,,,
,,,,,,,,2023-08-16_08h49.06.545,HF_wild_card,2022.2.4,Win32,59.95922773,5aeaf3c226b6680001698375,64d2fd46c836a06233681665,64dc7f6dc002480885e2960e,,,,,,,decisionTrl,resources/DR.BMP,resources/DG.BMP,WildCard_Ex,0.290740741,-0.015740741,1,0,0,1.2476,optionRight,5,11120,5,31,0,31,0,1,,,,,,,,,,,,,,,,,,,,,,,,,,,,,,,,,,,,,,,
,,,,,,,,2023-08-16_08h49.06.545,HF_wild_card,2022.2.4,Win32,59.95922773,5aeaf3c226b6680001698375,64d2fd46c836a06233681665,64dc7f6dc002480885e2960e,,,,,,,decisionTrl,resources/DG.BMP,resources/DB.BMP,Door4,0.400925926,-0.019444444,1,0,0,0.6985,optionRight,80,11200,5,32,0,32,0,1,,,,,,,,,,,,,,,,,,,,,,,,,,,,,,,,,,,,,,,
,,,,,,,,2023-08-16_08h49.06.545,HF_wild_card,2022.2.4,Win32,59.95922773,5aeaf3c226b6680001698375,64d2fd46c836a06233681665,64dc7f6dc002480885e2960e,,,,,,,decisionTrl,resources/DG.BMP,resources/DBN.BMP,Door3,0.313888889,-0.011111111,1,0,0,0.8133,optionRight,70,11270,5,33,0,33,0,1,,,,,,,,,,,,,,,,,,,,,,,,,,,,,,,,,,,,,,,
,,,,,,,,2023-08-16_08h49.06.545,HF_wild_card,2022.2.4,Win32,59.95922773,5aeaf3c226b6680001698375,64d2fd46c836a06233681665,64dc7f6dc002480885e2960e,,,,,,,decisionTrl,resources/DB.BMP,resources/DBN.BMP,Door3,0.287037037,0.002777778,1,0,0,1.3635,optionRight,70,11340,5,34,0,34,0,1,,,,,,,,,,,,,,,,,,,,,,,,,,,,,,,,,,,,,,,
,,,,,,,,2023-08-16_08h49.06.545,HF_wild_card,2022.2.4,Win32,59.95922773,5aeaf3c226b6680001698375,64d2fd46c836a06233681665,64dc7f6dc002480885e2960e,,,,,,,decisionTrl,resources/DR.BMP,resources/DY.BMP,Door2,0.301851852,-0.016666667,1,0,0,0.8464,optionRight,20,11360,5,35,0,35,0,1,,,,,,,,,,,,,,,,,,,,,,,,,,,,,,,,,,,,,,,
,,,,,,,,2023-08-16_08h49.06.545,HF_wild_card,2022.2.4,Win32,59.95922773,5aeaf3c226b6680001698375,64d2fd46c836a06233681665,64dc7f6dc002480885e2960e,,,,,,,sngl,resources/DG.BMP,resources/Empty.png,WildCard_Ex,-0.221296296,-0.011111111,1,0,0,0.6148,optionLeft,95,11455,5,36,0,36,0,1,,,,,,,,,,,,,,,,,,,,,,,,,,,,,,,,,,,,,,,
,,,,,,,,2023-08-16_08h49.06.545,HF_wild_card,2022.2.4,Win32,59.95922773,5aeaf3c226b6680001698375,64d2fd46c836a06233681665,64dc7f6dc002480885e2960e,,,,,,,decisionTrl,resources/DBN.BMP,resources/DB.BMP,Door3,-0.20462963,-0.033333333,1,0,0,0.5965,optionLeft,70,11525,5,37,0,37,0,1,,,,,,,,,,,,,,,,,,,,,,,,,,,,,,,,,,,,,,,
,,,,,,,,2023-08-16_08h49.06.545,HF_wild_card,2022.2.4,Win32,59.95922773,5aeaf3c226b6680001698375,64d2fd46c836a06233681665,64dc7f6dc002480885e2960e,,,,,,,sngl,resources/Empty.png,resources/DBN.BMP,Door3,0.24537037,-0.002777778,1,0,0,0.4801,optionRight,70,11595,5,38,0,38,0,1,,,,,,,,,,,,,,,,,,,,,,,,,,,,,,,,,,,,,,,
,,,,,,,,2023-08-16_08h49.06.545,HF_wild_card,2022.2.4,Win32,59.95922773,5aeaf3c226b6680001698375,64d2fd46c836a06233681665,64dc7f6dc002480885e2960e,,,,,,,sngl,resources/Empty.png,resources/DB.BMP,Door4,0.262037037,0.010185185,1,0,0,0.6133,optionRight,60,11655,5,39,0,39,0,1,,,,,,,,,,,,,,,,,,,,,,,,,,,,,,,,,,,,,,,
,,,,,,,,2023-08-16_08h49.06.545,HF_wild_card,2022.2.4,Win32,59.95922773,5aeaf3c226b6680001698375,64d2fd46c836a06233681665,64dc7f6dc002480885e2960e,,,,,,,decisionTrl,resources/DB.BMP,resources/DBN.BMP,Door3,0.27962963,0,1,0,0,0.6797,optionRight,70,11725,5,40,0,40,0,1,,,,,,,,,,,,,,,,,,,,,,,,,,,,,,,,,,,,,,,
,,,,,,,,2023-08-16_08h49.06.545,HF_wild_card,2022.2.4,Win32,59.95922773,5aeaf3c226b6680001698375,64d2fd46c836a06233681665,64dc7f6dc002480885e2960e,,,,,,,decisionTrl,resources/DB.BMP,resources/DBN.BMP,Door3,0.277777778,0.00462963,1,0,0,0.6488,optionRight,70,11795,5,41,0,41,0,1,,,,,,,,,,,,,,,,,,,,,,,,,,,,,,,,,,,,,,,
,,,,,,,,2023-08-16_08h49.06.545,HF_wild_card,2022.2.4,Win32,59.95922773,5aeaf3c226b6680001698375,64d2fd46c836a06233681665,64dc7f6dc002480885e2960e,,,,,,,sngl,resources/Empty.png,resources/DG.BMP,WildCard_Ex,0.384259259,-0.003703704,1,0,0,0.6304,optionRight,95,11890,5,42,0,42,0,1,,,,,,,,,,,,,,,,,,,,,,,,,,,,,,,,,,,,,,,
,,,,,,,,2023-08-16_08h49.06.545,HF_wild_card,2022.2.4,Win32,59.95922773,5aeaf3c226b6680001698375,64d2fd46c836a06233681665,64dc7f6dc002480885e2960e,,,,,,,ctch,resources/DBN.BMP,resources/DY.BMP,Door3,-0.153703704,-0.022222222,1,0,0,0.7131,optionLeft,70,11960,5,43,0,43,0,1,,,,,,,,,,,,,,,,,,,,,,,,,,,,,,,,,,,,,,,
,,,,,,,,2023-08-16_08h49.06.545,HF_wild_card,2022.2.4,Win32,59.95922773,5aeaf3c226b6680001698375,64d2fd46c836a06233681665,64dc7f6dc002480885e2960e,,,,,,,,,,,,,,,,,,,,,,,,,,4,0,4,0,1,,,,,,,,,,,,,,,,,,,,,,,,,,,,,,,,,,
,,,,,,,,2023-08-16_08h49.06.545,HF_wild_card,2022.2.4,Win32,59.95922773,5aeaf3c226b6680001698375,64d2fd46c836a06233681665,64dc7f6dc002480885e2960e,,,,,,,decisionTrl,resources/DBN.BMP,resources/DB.BMP,Door4,0.17037037,-0.081481481,1,0,0,1.3751,optionRight,60,12020,6,0,0,0,0,1,,,,,,,,,,,,,,,,,,,,,,,,,,,,,,,,,,,,,,,
,,,,,,,,2023-08-16_08h49.06.545,HF_wild_card,2022.2.4,Win32,59.95922773,5aeaf3c226b6680001698375,64d2fd46c836a06233681665,64dc7f6dc002480885e2960e,,,,,,,decisionTrl,resources/DY.BMP,resources/DR.BMP,Door2,-0.232407407,-0.035185185,1,0,0,0.9464,optionLeft,40,12060,6,1,0,1,0,1,,,,,,,,,,,,,,,,,,,,,,,,,,,,,,,,,,,,,,,
,,,,,,,,2023-08-16_08h49.06.545,HF_wild_card,2022.2.4,Win32,59.95922773,5aeaf3c226b6680001698375,64d2fd46c836a06233681665,64dc7f6dc002480885e2960e,,,,,,,sngl,resources/DY.BMP,resources/Empty.png,Door2,-0.138888889,-0.056481481,1,0,0,0.5466,optionLeft,20,12080,6,2,0,2,0,1,,,,,,,,,,,,,,,,,,,,,,,,,,,,,,,,,,,,,,,
,,,,,,,,2023-08-16_08h49.06.545,HF_wild_card,2022.2.4,Win32,59.95922773,5aeaf3c226b6680001698375,64d2fd46c836a06233681665,64dc7f6dc002480885e2960e,,,,,,,decisionTrl,resources/DB.BMP,resources/DBN.BMP,Door3,0.349074074,-0.002777778,1,0,0,1.731,optionRight,70,12150,6,3,0,3,0,1,,,,,,,,,,,,,,,,,,,,,,,,,,,,,,,,,,,,,,,
,,,,,,,,2023-08-16_08h49.06.545,HF_wild_card,2022.2.4,Win32,59.95922773,5aeaf3c226b6680001698375,64d2fd46c836a06233681665,64dc7f6dc002480885e2960e,,,,,,,decisionTrl,resources/DY.BMP,resources/DG.BMP,WildCard_Ex,0.306481481,-0.012962963,1,0,0,0.7305,optionRight,5,12155,6,4,0,4,0,1,,,,,,,,,,,,,,,,,,,,,,,,,,,,,,,,,,,,,,,
,,,,,,,,2023-08-16_08h49.06.545,HF_wild_card,2022.2.4,Win32,59.95922773,5aeaf3c226b6680001698375,64d2fd46c836a06233681665,64dc7f6dc002480885e2960e,,,,,,,decisionTrl,resources/DG.BMP,resources/DR.BMP,Door1,0.325,-0.012037037,1,0,0,0.5477,optionRight,30,12185,6,5,0,5,0,1,,,,,,,,,,,,,,,,,,,,,,,,,,,,,,,,,,,,,,,
,,,,,,,,2023-08-16_08h49.06.545,HF_wild_card,2022.2.4,Win32,59.95922773,5aeaf3c226b6680001698375,64d2fd46c836a06233681665,64dc7f6dc002480885e2960e,,,,,,,decisionTrl,resources/DR.BMP,resources/DY.BMP,Door2,0.249074074,-0.016666667,1,0,0,0.7635,optionRight,40,12225,6,6,0,6,0,1,,,,,,,,,,,,,,,,,,,,,,,,,,,,,,,,,,,,,,,
,,,,,,,,2023-08-16_08h49.06.545,HF_wild_card,2022.2.4,Win32,59.95922773,5aeaf3c226b6680001698375,64d2fd46c836a06233681665,64dc7f6dc002480885e2960e,,,,,,,sngl,resources/Empty.png,resources/DBN.BMP,Door3,0.292592593,0.006481481,1,0,0,0.5321,optionRight,70,12295,6,7,0,7,0,1,,,,,,,,,,,,,,,,,,,,,,,,,,,,,,,,,,,,,,,
,,,,,,,,2023-08-16_08h49.06.545,HF_wild_card,2022.2.4,Win32,59.95922773,5aeaf3c226b6680001698375,64d2fd46c836a06233681665,64dc7f6dc002480885e2960e,,,,,,,decisionTrl,resources/DG.BMP,resources/DBN.BMP,WildCard_Ex,-0.151851852,-0.009259259,1,0,0,0.8148,optionLeft,5,12300,6,8,0,8,0,1,,,,,,,,,,,,,,,,,,,,,,,,,,,,,,,,,,,,,,,
,,,,,,,,2023-08-16_08h49.06.545,HF_wild_card,2022.2.4,Win32,59.95922773,5aeaf3c226b6680001698375,64d2fd46c836a06233681665,64dc7f6dc002480885e2960e,,,,,,,sngl,resources/DB.BMP,resources/Empty.png,Door4,-0.112962963,-0.015740741,1,0,0,0.4649,optionLeft,60,12360,6,9,0,9,0,1,,,,,,,,,,,,,,,,,,,,,,,,,,,,,,,,,,,,,,,
,,,,,,,,2023-08-16_08h49.06.545,HF_wild_card,2022.2.4,Win32,59.95922773,5aeaf3c226b6680001698375,64d2fd46c836a06233681665,64dc7f6dc002480885e2960e,,,,,,,sngl,resources/Empty.png,resources/DB.BMP,Door4,0.158333333,-0.016666667,1,0,0,0.4488,optionRight,80,12440,6,10,0,10,0,1,,,,,,,,,,,,,,,,,,,,,,,,,,,,,,,,,,,,,,,
,,,,,,,,2023-08-16_08h49.06.545,HF_wild_card,2022.2.4,Win32,59.95922773,5aeaf3c226b6680001698375,64d2fd46c836a06233681665,64dc7f6dc002480885e2960e,,,,,,,sngl,resources/Empty.png,resources/DG.BMP,WildCard_Ex,0.241666667,0.019444444,1,0,0,0.8303,optionRight,5,12445,6,11,0,11,0,1,,,,,,,,,,,,,,,,,,,,,,,,,,,,,,,,,,,,,,,
,,,,,,,,2023-08-16_08h49.06.545,HF_wild_card,2022.2.4,Win32,59.95922773,5aeaf3c226b6680001698375,64d2fd46c836a06233681665,64dc7f6dc002480885e2960e,,,,,,,decisionTrl,resources/DBN.BMP,resources/DB.BMP,Door4,0.20462963,0.009259259,1,0,0,0.8478,optionRight,80,12525,6,12,0,12,0,1,,,,,,,,,,,,,,,,,,,,,,,,,,,,,,,,,,,,,,,
,,,,,,,,2023-08-16_08h49.06.545,HF_wild_card,2022.2.4,Win32,59.95922773,5aeaf3c226b6680001698375,64d2fd46c836a06233681665,64dc7f6dc002480885e2960e,,,,,,,decisionTrl,resources/DB.BMP,resources/DBN.BMP,Door3,0.151851852,0.00462963,1,0,0,0.5463,optionRight,70,12595,6,13,0,13,0,1,,,,,,,,,,,,,,,,,,,,,,,,,,,,,,,,,,,,,,,
,,,,,,,,2023-08-16_08h49.06.545,HF_wild_card,2022.2.4,Win32,59.95922773,5aeaf3c226b6680001698375,64d2fd46c836a06233681665,64dc7f6dc002480885e2960e,,,,,,,decisionTrl,resources/DY.BMP,resources/DR.BMP,Door1,0.210185185,0.005555556,1,0,0,0.7307,optionRight,30,12625,6,14,0,14,0,1,,,,,,,,,,,,,,,,,,,,,,,,,,,,,,,,,,,,,,,
,,,,,,,,2023-08-16_08h49.06.545,HF_wild_card,2022.2.4,Win32,59.95922773,5aeaf3c226b6680001698375,64d2fd46c836a06233681665,64dc7f6dc002480885e2960e,,,,,,,ctch,resources/DR.BMP,resources/DB.BMP,Door4,0.24537037,-0.012962963,1,0,0,0.6318,optionRight,80,12705,6,15,0,15,0,1,,,,,,,,,,,,,,,,,,,,,,,,,,,,,,,,,,,,,,,
,,,,,,,,2023-08-16_08h49.06.545,HF_wild_card,2022.2.4,Win32,59.95922773,5aeaf3c226b6680001698375,64d2fd46c836a06233681665,64dc7f6dc002480885e2960e,,,,,,,decisionTrl,resources/DBN.BMP,resources/DG.BMP,Door3,-0.162962963,-0.049074074,1,0,0,0.9964,optionLeft,70,12775,6,16,0,16,0,1,,,,,,,,,,,,,,,,,,,,,,,,,,,,,,,,,,,,,,,
,,,,,,,,2023-08-16_08h49.06.545,HF_wild_card,2022.2.4,Win32,59.95922773,5aeaf3c226b6680001698375,64d2fd46c836a06233681665,64dc7f6dc002480885e2960e,,,,,,,decisionTrl,resources/DR.BMP,resources/DG.BMP,WildCard_Ex,0.187962963,-0.005555556,1,0,0,0.8132,optionRight,95,12870,6,17,0,17,0,1,,,,,,,,,,,,,,,,,,,,,,,,,,,,,,,,,,,,,,,
,,,,,,,,2023-08-16_08h49.06.545,HF_wild_card,2022.2.4,Win32,59.95922773,5aeaf3c226b6680001698375,64d2fd46c836a06233681665,64dc7f6dc002480885e2960e,,,,,,,decisionTrl,resources/DG.BMP,resources/DY.BMP,WildCard_Ex,-0.109259259,0.009259259,1,0,0,0.4635,optionLeft,5,12875,6,18,0,18,0,1,,,,,,,,,,,,,,,,,,,,,,,,,,,,,,,,,,,,,,,
,,,,,,,,2023-08-16_08h49.06.545,HF_wild_card,2022.2.4,Win32,59.95922773,5aeaf3c226b6680001698375,64d2fd46c836a06233681665,64dc7f6dc002480885e2960e,,,,,,,decisionTrl,resources/DY.BMP,resources/DR.BMP,Door1,0.265740741,0.038888889,1,0,0,0.6475,optionRight,30,12905,6,19,0,19,0,1,,,,,,,,,,,,,,,,,,,,,,,,,,,,,,,,,,,,,,,
,,,,,,,,2023-08-16_08h49.06.545,HF_wild_card,2022.2.4,Win32,59.95922773,5aeaf3c226b6680001698375,64d2fd46c836a06233681665,64dc7f6dc002480885e2960e,,,,,,,sngl,resources/Empty.png,resources/DY.BMP,Door2,0.426851852,0.012037037,1,0,0,0.4294,optionRight,40,12945,6,20,0,20,0,1,,,,,,,,,,,,,,,,,,,,,,,,,,,,,,,,,,,,,,,
,,,,,,,,2023-08-16_08h49.06.545,HF_wild_card,2022.2.4,Win32,59.95922773,5aeaf3c226b6680001698375,64d2fd46c836a06233681665,64dc7f6dc002480885e2960e,,,,,,,decisionTrl,resources/DR.BMP,resources/DY.BMP,Door2,0.203703704,0.001851852,1,0,0,0.4794,optionRight,40,12985,6,21,0,21,0,1,,,,,,,,,,,,,,,,,,,,,,,,,,,,,,,,,,,,,,,
,,,,,,,,2023-08-16_08h49.06.545,HF_wild_card,2022.2.4,Win32,59.95922773,5aeaf3c226b6680001698375,64d2fd46c836a06233681665,64dc7f6dc002480885e2960e,,,,,,,ctch,resources/DB.BMP,resources/DR.BMP,Door4,-0.238888889,-0.036111111,1,0,0,0.8481,optionLeft,60,13045,6,22,0,22,0,1,,,,,,,,,,,,,,,,,,,,,,,,,,,,,,,,,,,,,,,
,,,,,,,,2023-08-16_08h49.06.545,HF_wild_card,2022.2.4,Win32,59.95922773,5aeaf3c226b6680001698375,64d2fd46c836a06233681665,64dc7f6dc002480885e2960e,,,,,,,decisionTrl,resources/DR.BMP,resources/DY.BMP,Door1,-0.126851852,-0.013888889,1,0,0,0.965,optionLeft,30,13075,6,23,0,23,0,1,,,,,,,,,,,,,,,,,,,,,,,,,,,,,,,,,,,,,,,
,,,,,,,,2023-08-16_08h49.06.545,HF_wild_card,2022.2.4,Win32,59.95922773,5aeaf3c226b6680001698375,64d2fd46c836a06233681665,64dc7f6dc002480885e2960e,,,,,,,decisionTrl,resources/DBN.BMP,resources/DB.BMP,Door4,0.326851852,0,1,0,0,1.3467,optionRight,80,13155,6,24,0,24,0,1,,,,,,,,,,,,,,,,,,,,,,,,,,,,,,,,,,,,,,,
,,,,,,,,2023-08-16_08h49.06.545,HF_wild_card,2022.2.4,Win32,59.95922773,5aeaf3c226b6680001698375,64d2fd46c836a06233681665,64dc7f6dc002480885e2960e,,,,,,,decisionTrl,resources/DY.BMP,resources/DR.BMP,Door2,-0.159259259,0.000925926,1,0,0,1.1131,optionLeft,40,13195,6,25,0,25,0,1,,,,,,,,,,,,,,,,,,,,,,,,,,,,,,,,,,,,,,,
,,,,,,,,2023-08-16_08h49.06.545,HF_wild_card,2022.2.4,Win32,59.95922773,5aeaf3c226b6680001698375,64d2fd46c836a06233681665,64dc7f6dc002480885e2960e,,,,,,,decisionTrl,resources/DB.BMP,resources/DBN.BMP,Door3,0.244444444,0.00462963,1,0,0,0.7468,optionRight,70,13265,6,26,0,26,0,1,,,,,,,,,,,,,,,,,,,,,,,,,,,,,,,,,,,,,,,
,,,,,,,,2023-08-16_08h49.06.545,HF_wild_card,2022.2.4,Win32,59.95922773,5aeaf3c226b6680001698375,64d2fd46c836a06233681665,64dc7f6dc002480885e2960e,,,,,,,ctch,resources/DY.BMP,resources/DBN.BMP,Door3,0.275925926,-0.014814815,1,0,0,0.4983,optionRight,70,13335,6,27,0,27,0,1,,,,,,,,,,,,,,,,,,,,,,,,,,,,,,,,,,,,,,,
,,,,,,,,2023-08-16_08h49.06.545,HF_wild_card,2022.2.4,Win32,59.95922773,5aeaf3c226b6680001698375,64d2fd46c836a06233681665,64dc7f6dc002480885e2960e,,,,,,,sngl,resources/DG.BMP,resources/Empty.png,WildCard_Ex,-0.138888889,-0.031481481,1,0,0,0.6635,optionLeft,5,13340,6,28,0,28,0,1,,,,,,,,,,,,,,,,,,,,,,,,,,,,,,,,,,,,,,,
,,,,,,,,2023-08-16_08h49.06.545,HF_wild_card,2022.2.4,Win32,59.95922773,5aeaf3c226b6680001698375,64d2fd46c836a06233681665,64dc7f6dc002480885e2960e,,,,,,,decisionTrl,resources/DR.BMP,resources/DY.BMP,Door2,0.247222222,-0.013888889,1,0,0,0.6806,optionRight,20,13360,6,29,0,29,0,1,,,,,,,,,,,,,,,,,,,,,,,,,,,,,,,,,,,,,,,
,,,,,,,,2023-08-16_08h49.06.545,HF_wild_card,2022.2.4,Win32,59.95922773,5aeaf3c226b6680001698375,64d2fd46c836a06233681665,64dc7f6dc002480885e2960e,,,,,,,decisionTrl,resources/DG.BMP,resources/DB.BMP,Door4,0.239814815,-0.005555556,1,0,0,0.8146,optionRight,60,13420,6,30,0,30,0,1,,,,,,,,,,,,,,,,,,,,,,,,,,,,,,,,,,,,,,,
,,,,,,,,2023-08-16_08h49.06.545,HF_wild_card,2022.2.4,Win32,59.95922773,5aeaf3c226b6680001698375,64d2fd46c836a06233681665,64dc7f6dc002480885e2960e,,,,,,,ctch,resources/DR.BMP,resources/DB.BMP,Door4,0.32037037,0.010185185,1,0,0,0.5471,optionRight,80,13500,6,31,0,31,0,1,,,,,,,,,,,,,,,,,,,,,,,,,,,,,,,,,,,,,,,
,,,,,,,,2023-08-16_08h49.06.545,HF_wild_card,2022.2.4,Win32,59.95922773,5aeaf3c226b6680001698375,64d2fd46c836a06233681665,64dc7f6dc002480885e2960e,,,,,,,ctch,resources/DBN.BMP,resources/DY.BMP,Door3,-0.215740741,0.003703704,1,0,0,0.6457,optionLeft,70,13570,6,32,0,32,0,1,,,,,,,,,,,,,,,,,,,,,,,,,,,,,,,,,,,,,,,
,,,,,,,,2023-08-16_08h49.06.545,HF_wild_card,2022.2.4,Win32,59.95922773,5aeaf3c226b6680001698375,64d2fd46c836a06233681665,64dc7f6dc002480885e2960e,,,,,,,sngl,resources/DBN.BMP,resources/Empty.png,Door3,-0.247222222,0.007407407,1,0,0,0.5131,optionLeft,70,13640,6,33,0,33,0,1,,,,,,,,,,,,,,,,,,,,,,,,,,,,,,,,,,,,,,,
,,,,,,,,2023-08-16_08h49.06.545,HF_wild_card,2022.2.4,Win32,59.95922773,5aeaf3c226b6680001698375,64d2fd46c836a06233681665,64dc7f6dc002480885e2960e,,,,,,,sngl,resources/DG.BMP,resources/Empty.png,WildCard_Ex,-0.218518519,-0.009259259,1,0,0,0.9314,optionLeft,95,13735,6,34,0,34,0,1,,,,,,,,,,,,,,,,,,,,,,,,,,,,,,,,,,,,,,,
,,,,,,,,2023-08-16_08h49.06.545,HF_wild_card,2022.2.4,Win32,59.95922773,5aeaf3c226b6680001698375,64d2fd46c836a06233681665,64dc7f6dc002480885e2960e,,,,,,,ctch,resources/DY.BMP,resources/DBN.BMP,Door3,0.291666667,0,1,0,0,0.5978,optionRight,70,13805,6,35,0,35,0,1,,,,,,,,,,,,,,,,,,,,,,,,,,,,,,,,,,,,,,,
,,,,,,,,2023-08-16_08h49.06.545,HF_wild_card,2022.2.4,Win32,59.95922773,5aeaf3c226b6680001698375,64d2fd46c836a06233681665,64dc7f6dc002480885e2960e,,,,,,,decisionTrl,resources/DBN.BMP,resources/DB.BMP,Door4,0.202777778,0.007407407,1,0,0,0.5291,optionRight,80,13885,6,36,0,36,0,1,,,,,,,,,,,,,,,,,,,,,,,,,,,,,,,,,,,,,,,
,,,,,,,,2023-08-16_08h49.06.545,HF_wild_card,2022.2.4,Win32,59.95922773,5aeaf3c226b6680001698375,64d2fd46c836a06233681665,64dc7f6dc002480885e2960e,,,,,,,sngl,resources/Empty.png,resources/DR.BMP,Door1,0.207407407,-0.003703704,1,0,0,0.5623,optionRight,30,13915,6,37,0,37,0,1,,,,,,,,,,,,,,,,,,,,,,,,,,,,,,,,,,,,,,,
,,,,,,,,2023-08-16_08h49.06.545,HF_wild_card,2022.2.4,Win32,59.95922773,5aeaf3c226b6680001698375,64d2fd46c836a06233681665,64dc7f6dc002480885e2960e,,,,,,,sngl,resources/Empty.png,resources/DG.BMP,WildCard_Ex,0.272222222,0.025925926,1,0,0,0.5315,optionRight,95,14010,6,38,0,38,0,1,,,,,,,,,,,,,,,,,,,,,,,,,,,,,,,,,,,,,,,
,,,,,,,,2023-08-16_08h49.06.545,HF_wild_card,2022.2.4,Win32,59.95922773,5aeaf3c226b6680001698375,64d2fd46c836a06233681665,64dc7f6dc002480885e2960e,,,,,,,ctch,resources/DB.BMP,resources/DR.BMP,Door4,-0.198148148,0.001851852,1,0,0,0.6117,optionLeft,60,14070,6,39,0,39,0,1,,,,,,,,,,,,,,,,,,,,,,,,,,,,,,,,,,,,,,,
,,,,,,,,2023-08-16_08h49.06.545,HF_wild_card,2022.2.4,Win32,59.95922773,5aeaf3c226b6680001698375,64d2fd46c836a06233681665,64dc7f6dc002480885e2960e,,,,,,,decisionTrl,resources/DB.BMP,resources/DBN.BMP,Door3,0.256481481,0.003703704,1,0,0,0.7146,optionRight,70,14140,6,40,0,40,0,1,,,,,,,,,,,,,,,,,,,,,,,,,,,,,,,,,,,,,,,
,,,,,,,,2023-08-16_08h49.06.545,HF_wild_card,2022.2.4,Win32,59.95922773,5aeaf3c226b6680001698375,64d2fd46c836a06233681665,64dc7f6dc002480885e2960e,,,,,,,sngl,resources/DR.BMP,resources/Empty.png,Door1,-0.173148148,-0.012962963,1,0,0,0.4795,optionLeft,30,14170,6,41,0,41,0,1,,,,,,,,,,,,,,,,,,,,,,,,,,,,,,,,,,,,,,,
,,,,,,,,2023-08-16_08h49.06.545,HF_wild_card,2022.2.4,Win32,59.95922773,5aeaf3c226b6680001698375,64d2fd46c836a06233681665,64dc7f6dc002480885e2960e,,,,,,,ctch,resources/DBN.BMP,resources/DY.BMP,Door3,-0.205555556,-0.011111111,1,0,0,0.798,optionLeft,70,14240,6,42,0,42,0,1,,,,,,,,,,,,,,,,,,,,,,,,,,,,,,,,,,,,,,,
,,,,,,,,2023-08-16_08h49.06.545,HF_wild_card,2022.2.4,Win32,59.95922773,5aeaf3c226b6680001698375,64d2fd46c836a06233681665,64dc7f6dc002480885e2960e,,,,,,,decisionTrl,resources/DB.BMP,resources/DG.BMP,WildCard_Ex,0.273148148,-0.006481481,1,0,0,0.5813,optionRight,95,14335,6,43,0,43,0,1,,,,,,,,,,,,,,,,,,,,,,,,,,,,,,,,,,,,,,,
,,,,,,,,2023-08-16_08h49.06.545,HF_wild_card,2022.2.4,Win32,59.95922773,5aeaf3c226b6680001698375,64d2fd46c836a06233681665,64dc7f6dc002480885e2960e,,,,,,,,,,,,,,,,,,,,,,,,,,5,0,5,0,1,,,,,,,,,,,,,,,,,,,,,,,,,,,,,,,,,,
,,,,,,,,2023-08-16_08h49.06.545,HF_wild_card,2022.2.4,Win32,59.95922773,5aeaf3c226b6680001698375,64d2fd46c836a06233681665,64dc7f6dc002480885e2960e,,,,,,,decisionTrl,resources/DY.BMP,resources/DR.BMP,Door1,0.171296296,-0.101851852,1,0,0,1.2788,optionRight,30,14365,7,0,0,0,0,1,,,,,,,,,,,,,,,,,,,,,,,,,,,,,,,,,,,,,,,
,,,,,,,,2023-08-16_08h49.06.545,HF_wild_card,2022.2.4,Win32,59.95922773,5aeaf3c226b6680001698375,64d2fd46c836a06233681665,64dc7f6dc002480885e2960e,,,,,,,ctch,resources/DY.BMP,resources/DBN.BMP,Door3,0.298148148,-0.009259259,1,0,0,2.2812,optionRight,70,14435,7,1,0,1,0,1,,,,,,,,,,,,,,,,,,,,,,,,,,,,,,,,,,,,,,,
,,,,,,,,2023-08-16_08h49.06.545,HF_wild_card,2022.2.4,Win32,59.95922773,5aeaf3c226b6680001698375,64d2fd46c836a06233681665,64dc7f6dc002480885e2960e,,,,,,,decisionTrl,resources/DBN.BMP,resources/DB.BMP,Door4,0.17037037,-0.02037037,1,0,0,1.683,optionRight,80,14515,7,2,0,2,0,1,,,,,,,,,,,,,,,,,,,,,,,,,,,,,,,,,,,,,,,
,,,,,,,,2023-08-16_08h49.06.545,HF_wild_card,2022.2.4,Win32,59.95922773,5aeaf3c226b6680001698375,64d2fd46c836a06233681665,64dc7f6dc002480885e2960e,,,,,,,decisionTrl,resources/DB.BMP,resources/DBN.BMP,Door3,0.193518519,-0.008333333,1,0,0,1.0644,optionRight,70,14585,7,3,0,3,0,1,,,,,,,,,,,,,,,,,,,,,,,,,,,,,,,,,,,,,,,
,,,,,,,,2023-08-16_08h49.06.545,HF_wild_card,2022.2.4,Win32,59.95922773,5aeaf3c226b6680001698375,64d2fd46c836a06233681665,64dc7f6dc002480885e2960e,,,,,,,ctch,resources/DB.BMP,resources/DR.BMP,Door4,-0.243518519,-0.019444444,1,0,0,0.5985,optionLeft,80,14665,7,4,0,4,0,1,,,,,,,,,,,,,,,,,,,,,,,,,,,,,,,,,,,,,,,
,,,,,,,,2023-08-16_08h49.06.545,HF_wild_card,2022.2.4,Win32,59.95922773,5aeaf3c226b6680001698375,64d2fd46c836a06233681665,64dc7f6dc002480885e2960e,,,,,,,decisionTrl,resources/DY.BMP,resources/DR.BMP,Door1,0.230555556,-0.033333333,1,0,0,0.7318,optionRight,30,14695,7,5,0,5,0,1,,,,,,,,,,,,,,,,,,,,,,,,,,,,,,,,,,,,,,,
,,,,,,,,2023-08-16_08h49.06.545,HF_wild_card,2022.2.4,Win32,59.95922773,5aeaf3c226b6680001698375,64d2fd46c836a06233681665,64dc7f6dc002480885e2960e,,,,,,,ctch,resources/DB.BMP,resources/DR.BMP,Door4,-0.20462963,-0.043518519,1,0,0,0.6999,optionLeft,80,14775,7,6,0,6,0,1,,,,,,,,,,,,,,,,,,,,,,,,,,,,,,,,,,,,,,,
,,,,,,,,2023-08-16_08h49.06.545,HF_wild_card,2022.2.4,Win32,59.95922773,5aeaf3c226b6680001698375,64d2fd46c836a06233681665,64dc7f6dc002480885e2960e,,,,,,,ctch,resources/DY.BMP,resources/DBN.BMP,Door3,0.287962963,-0.025,1,0,0,0.6479,optionRight,70,14845,7,7,0,7,0,1,,,,,,,,,,,,,,,,,,,,,,,,,,,,,,,,,,,,,,,
,,,,,,,,2023-08-16_08h49.06.545,HF_wild_card,2022.2.4,Win32,59.95922773,5aeaf3c226b6680001698375,64d2fd46c836a06233681665,64dc7f6dc002480885e2960e,,,,,,,ctch,resources/DBN.BMP,resources/DY.BMP,Door3,-0.181481481,-0.032407407,1,0,0,0.5818,optionLeft,70,14915,7,8,0,8,0,1,,,,,,,,,,,,,,,,,,,,,,,,,,,,,,,,,,,,,,,
,,,,,,,,2023-08-16_08h49.06.545,HF_wild_card,2022.2.4,Win32,59.95922773,5aeaf3c226b6680001698375,64d2fd46c836a06233681665,64dc7f6dc002480885e2960e,,,,,,,decisionTrl,resources/DY.BMP,resources/DR.BMP,Door1,0.251851852,-0.038888889,1,0,0,0.6484,optionRight,30,14945,7,9,0,9,0,1,,,,,,,,,,,,,,,,,,,,,,,,,,,,,,,,,,,,,,,
,,,,,,,,2023-08-16_08h49.06.545,HF_wild_card,2022.2.4,Win32,59.95922773,5aeaf3c226b6680001698375,64d2fd46c836a06233681665,64dc7f6dc002480885e2960e,,,,,,,decisionTrl,resources/DBN.BMP,resources/DB.BMP,Door4,0.211111111,-0.041666667,1,0,0,1.8829,optionRight,60,15005,7,10,0,10,0,1,,,,,,,,,,,,,,,,,,,,,,,,,,,,,,,,,,,,,,,
,,,,,,,,2023-08-16_08h49.06.545,HF_wild_card,2022.2.4,Win32,59.95922773,5aeaf3c226b6680001698375,64d2fd46c836a06233681665,64dc7f6dc002480885e2960e,,,,,,,decisionTrl,resources/DR.BMP,resources/DY.BMP,Door2,0.233333333,-0.023148148,1,0,0,0.7665,optionRight,40,15045,7,11,0,11,0,1,,,,,,,,,,,,,,,,,,,,,,,,,,,,,,,,,,,,,,,
,,,,,,,,2023-08-16_08h49.06.545,HF_wild_card,2022.2.4,Win32,59.95922773,5aeaf3c226b6680001698375,64d2fd46c836a06233681665,64dc7f6dc002480885e2960e,,,,,,,decisionTrl,resources/DR.BMP,resources/DY.BMP,Door1,-0.142592593,-0.040740741,1,0,0,0.8825,optionLeft,30,15075,7,12,0,12,0,1,,,,,,,,,,,,,,,,,,,,,,,,,,,,,,,,,,,,,,,
,,,,,,,,2023-08-16_08h49.06.545,HF_wild_card,2022.2.4,Win32,59.95922773,5aeaf3c226b6680001698375,64d2fd46c836a06233681665,64dc7f6dc002480885e2960e,,,,,,,ctch,resources/DBN.BMP,resources/DY.BMP,Door3,-0.3,-0.05462963,1,0,0,0.7317,optionLeft,70,15145,7,13,0,13,0,1,,,,,,,,,,,,,,,,,,,,,,,,,,,,,,,,,,,,,,,
,,,,,,,,2023-08-16_08h49.06.545,HF_wild_card,2022.2.4,Win32,59.95922773,5aeaf3c226b6680001698375,64d2fd46c836a06233681665,64dc7f6dc002480885e2960e,,,,,,,decisionTrl,resources/DR.BMP,resources/DY.BMP,Door1,-0.169444444,-0.013888889,1,0,0,1.2329,optionLeft,30,15175,7,14,0,14,0,1,,,,,,,,,,,,,,,,,,,,,,,,,,,,,,,,,,,,,,,
,,,,,,,,2023-08-16_08h49.06.545,HF_wild_card,2022.2.4,Win32,59.95922773,5aeaf3c226b6680001698375,64d2fd46c836a06233681665,64dc7f6dc002480885e2960e,,,,,,,decisionTrl,resources/DBN.BMP,resources/DB.BMP,Door3,-0.268518519,-0.053703704,1,0,0,1.3485,optionLeft,70,15245,7,15,0,15,0,1,,,,,,,,,,,,,,,,,,,,,,,,,,,,,,,,,,,,,,,
,,,,,,,,2023-08-16_08h49.06.545,HF_wild_card,2022.2.4,Win32,59.95922773,5aeaf3c226b6680001698375,64d2fd46c836a06233681665,64dc7f6dc002480885e2960e,,,,,,,decisionTrl,resources/DBN.BMP,resources/DB.BMP,Door3,-0.212962963,-0.037037037,1,0,0,0.4819,optionLeft,70,15315,7,16,0,16,0,1,,,,,,,,,,,,,,,,,,,,,,,,,,,,,,,,,,,,,,,
,,,,,,,,2023-08-16_08h49.06.545,HF_wild_card,2022.2.4,Win32,59.95922773,5aeaf3c226b6680001698375,64d2fd46c836a06233681665,64dc7f6dc002480885e2960e,,,,,,,decisionTrl,resources/DBN.BMP,resources/DB.BMP,Door3,-0.216666667,-0.030555556,1,0,0,0.5654,optionLeft,70,15385,7,17,0,17,0,1,,,,,,,,,,,,,,,,,,,,,,,,,,,,,,,,,,,,,,,
,,,,,,,,2023-08-16_08h49.06.545,HF_wild_card,2022.2.4,Win32,59.95922773,5aeaf3c226b6680001698375,64d2fd46c836a06233681665,64dc7f6dc002480885e2960e,,,,,,,decisionTrl,resources/DR.BMP,resources/DY.BMP,Door2,0.226851852,-0.013888889,1,0,0,0.6989,optionRight,20,15405,7,18,0,18,0,1,,,,,,,,,,,,,,,,,,,,,,,,,,,,,,,,,,,,,,,
,,,,,,,,2023-08-16_08h49.06.545,HF_wild_card,2022.2.4,Win32,59.95922773,5aeaf3c226b6680001698375,64d2fd46c836a06233681665,64dc7f6dc002480885e2960e,,,,,,,decisionTrl,resources/DB.BMP,resources/DBN.BMP,Door3,0.290740741,-0.016666667,1,0,0,0.9295,optionRight,70,15475,7,19,0,19,0,1,,,,,,,,,,,,,,,,,,,,,,,,,,,,,,,,,,,,,,,
,,,,,,,,2023-08-16_08h49.06.545,HF_wild_card,2022.2.4,Win32,59.95922773,5aeaf3c226b6680001698375,64d2fd46c836a06233681665,64dc7f6dc002480885e2960e,,,,,,,decisionTrl,resources/DR.BMP,resources/DY.BMP,Door2,0.368518519,-0.028703704,1,0,0,0.7816,optionRight,20,15495,7,20,0,20,0,1,,,,,,,,,,,,,,,,,,,,,,,,,,,,,,,,,,,,,,,
,,,,,,,,2023-08-16_08h49.06.545,HF_wild_card,2022.2.4,Win32,59.95922773,5aeaf3c226b6680001698375,64d2fd46c836a06233681665,64dc7f6dc002480885e2960e,,,,,,,decisionTrl,resources/DB.BMP,resources/DBN.BMP,Door4,-0.136111111,-0.023148148,1,0,0,1.1814,optionLeft,60,15555,7,21,0,21,0,1,,,,,,,,,,,,,,,,,,,,,,,,,,,,,,,,,,,,,,,
,,,,,,,,2023-08-16_08h49.06.545,HF_wild_card,2022.2.4,Win32,59.95922773,5aeaf3c226b6680001698375,64d2fd46c836a06233681665,64dc7f6dc002480885e2960e,,,,,,,decisionTrl,resources/DBN.BMP,resources/DB.BMP,Door4,0.19537037,0.003703704,1,0,0,0.6483,optionRight,80,15635,7,22,0,22,0,1,,,,,,,,,,,,,,,,,,,,,,,,,,,,,,,,,,,,,,,
,,,,,,,,2023-08-16_08h49.06.545,HF_wild_card,2022.2.4,Win32,59.95922773,5aeaf3c226b6680001698375,64d2fd46c836a06233681665,64dc7f6dc002480885e2960e,,,,,,,ctch,resources/DR.BMP,resources/DB.BMP,Door4,0.157407407,-0.003703704,1,0,0,0.6314,optionRight,60,15695,7,23,0,23,0,1,,,,,,,,,,,,,,,,,,,,,,,,,,,,,,,,,,,,,,,
,,,,,,,,2023-08-16_08h49.06.545,HF_wild_card,2022.2.4,Win32,59.95922773,5aeaf3c226b6680001698375,64d2fd46c836a06233681665,64dc7f6dc002480885e2960e,,,,,,,ctch,resources/DY.BMP,resources/DBN.BMP,Door3,0.24537037,0.012037037,1,0,0,0.5307,optionRight,70,15765,7,24,0,24,0,1,,,,,,,,,,,,,,,,,,,,,,,,,,,,,,,,,,,,,,,
,,,,,,,,2023-08-16_08h49.06.545,HF_wild_card,2022.2.4,Win32,59.95922773,5aeaf3c226b6680001698375,64d2fd46c836a06233681665,64dc7f6dc002480885e2960e,,,,,,,decisionTrl,resources/DR.BMP,resources/DY.BMP,Door2,0.328703704,-0.002777778,1,0,0,0.7493,optionRight,40,15805,7,25,0,25,0,1,,,,,,,,,,,,,,,,,,,,,,,,,,,,,,,,,,,,,,,
,,,,,,,,2023-08-16_08h49.06.545,HF_wild_card,2022.2.4,Win32,59.95922773,5aeaf3c226b6680001698375,64d2fd46c836a06233681665,64dc7f6dc002480885e2960e,,,,,,,decisionTrl,resources/DY.BMP,resources/DR.BMP,Door1,0.287962963,-0.012037037,1,0,0,0.5829,optionRight,30,15835,7,26,0,26,0,1,,,,,,,,,,,,,,,,,,,,,,,,,,,,,,,,,,,,,,,
,,,,,,,,2023-08-16_08h49.06.545,HF_wild_card,2022.2.4,Win32,59.95922773,5aeaf3c226b6680001698375,64d2fd46c836a06233681665,64dc7f6dc002480885e2960e,,,,,,,ctch,resources/DB.BMP,resources/DR.BMP,Door4,-0.247222222,-0.036111111,1,0,0,0.6151,optionLeft,60,15895,7,27,0,27,0,1,,,,,,,,,,,,,,,,,,,,,,,,,,,,,,,,,,,,,,,
,,,,,,,,2023-08-16_08h49.06.545,HF_wild_card,2022.2.4,Win32,59.95922773,5aeaf3c226b6680001698375,64d2fd46c836a06233681665,64dc7f6dc002480885e2960e,,,,,,,decisionTrl,resources/DB.BMP,resources/DBN.BMP,Door4,-0.200925926,-0.04537037,1,0,0,0.7145,optionLeft,80,15975,7,28,0,28,0,1,,,,,,,,,,,,,,,,,,,,,,,,,,,,,,,,,,,,,,,
,,,,,,,,2023-08-16_08h49.06.545,HF_wild_card,2022.2.4,Win32,59.95922773,5aeaf3c226b6680001698375,64d2fd46c836a06233681665,64dc7f6dc002480885e2960e,,,,,,,decisionTrl,resources/DY.BMP,resources/DR.BMP,Door1,0.208333333,-0.00462963,1,0,0,0.6151,optionRight,30,16005,7,29,0,29,0,1,,,,,,,,,,,,,,,,,,,,,,,,,,,,,,,,,,,,,,,
,,,,,,,,2023-08-16_08h49.06.545,HF_wild_card,2022.2.4,Win32,59.95922773,5aeaf3c226b6680001698375,64d2fd46c836a06233681665,64dc7f6dc002480885e2960e,,,,,,,decisionTrl,resources/DB.BMP,resources/DBN.BMP,Door3,0.237037037,-0.003703704,1,0,0,0.7647,optionRight,70,16075,7,30,0,30,0,1,,,,,,,,,,,,,,,,,,,,,,,,,,,,,,,,,,,,,,,
,,,,,,,,2023-08-16_08h49.06.545,HF_wild_card,2022.2.4,Win32,59.95922773,5aeaf3c226b6680001698375,64d2fd46c836a06233681665,64dc7f6dc002480885e2960e,,,,,,,ctch,resources/DR.BMP,resources/DB.BMP,Door4,0.261111111,0.010185185,1,0,0,0.5814,optionRight,80,16155,7,31,0,31,0,1,,,,,,,,,,,,,,,,,,,,,,,,,,,,,,,,,,,,,,,
,,,,,,,,2023-08-16_08h49.06.545,HF_wild_card,2022.2.4,Win32,59.95922773,5aeaf3c226b6680001698375,64d2fd46c836a06233681665,64dc7f6dc002480885e2960e,,,,,,,decisionTrl,resources/DY.BMP,resources/DR.BMP,Door2,-0.214814815,-0.039814815,1,0,0,0.9142,optionLeft,20,16175,7,32,0,32,0,1,,,,,,,,,,,,,,,,,,,,,,,,,,,,,,,,,,,,,,,
,,,,,,,,2023-08-16_08h49.06.545,HF_wild_card,2022.2.4,Win32,59.95922773,5aeaf3c226b6680001698375,64d2fd46c836a06233681665,64dc7f6dc002480885e2960e,,,,,,,ctch,resources/DBN.BMP,resources/DY.BMP,Door3,-0.30462963,-0.028703704,1,0,0,0.8324,optionLeft,70,16245,7,33,0,33,0,1,,,,,,,,,,,,,,,,,,,,,,,,,,,,,,,,,,,,,,,
,,,,,,,,2023-08-16_08h49.06.545,HF_wild_card,2022.2.4,Win32,59.95922773,5aeaf3c226b6680001698375,64d2fd46c836a06233681665,64dc7f6dc002480885e2960e,,,,,,,ctch,resources/DR.BMP,resources/DB.BMP,Door4,0.340740741,-0.015740741,1,0,0,0.6489,optionRight,80,16325,7,34,0,34,0,1,,,,,,,,,,,,,,,,,,,,,,,,,,,,,,,,,,,,,,,
,,,,,,,,2023-08-16_08h49.06.545,HF_wild_card,2022.2.4,Win32,59.95922773,5aeaf3c226b6680001698375,64d2fd46c836a06233681665,64dc7f6dc002480885e2960e,,,,,,,decisionTrl,resources/DB.BMP,resources/DBN.BMP,Door3,0.289814815,-0.001851852,1,0,0,0.7142,optionRight,70,16395,7,35,0,35,0,1,,,,,,,,,,,,,,,,,,,,,,,,,,,,,,,,,,,,,,,
,,,,,,,,2023-08-16_08h49.06.545,HF_wild_card,2022.2.4,Win32,59.95922773,5aeaf3c226b6680001698375,64d2fd46c836a06233681665,64dc7f6dc002480885e2960e,,,,,,,,,,,,,,,,,,,,,,,,,,6,0,6,0,1,,,,,,,,,,,,,,,,,,,,,,,,,,,,,,,,,,
,,,,,,,,2023-08-16_08h49.06.545,HF_wild_card,2022.2.4,Win32,59.95922773,5aeaf3c226b6680001698375,64d2fd46c836a06233681665,64dc7f6dc002480885e2960e,,,,,,,,,,,,,,,,,,,,,,,,,,,,,,,4,,,,,,,,,,,,,,,,,,,,,,,,,,,,,,,,,
,,,,,,,,2023-08-16_08h49.06.545,HF_wild_card,2022.2.4,Win32,59.95922773,5aeaf3c226b6680001698375,64d2fd46c836a06233681665,64dc7f6dc002480885e2960e,,,,,,,,,,,,,,,,,,,,,,,,,,,,,,,,,,,,,,,,,,,,,,,,,,,,,,,,,,,,,,,,
,,,,,,,,2023-08-16_08h49.06.545,HF_wild_card,2022.2.4,Win32,59.95922773,5aeaf3c226b6680001698375,64d2fd46c836a06233681665,64dc7f6dc002480885e2960e,,,,,,,,,,,,,,,,,,,,,,,,,,,,,,,,45,WC_nonExtreme,resources/DP.BMP,0,0,0,0,1,,,,,,,,,,,,,,,,,,,,,,,,,
,,,,,,,,2023-08-16_08h49.06.545,HF_wild_card,2022.2.4,Win32,59.95922773,5aeaf3c226b6680001698375,64d2fd46c836a06233681665,64dc7f6dc002480885e2960e,,,,,,,,,,,,,,,,,,,,,,,,,,,,,,,,20,Door2,resources/DY.BMP,1,0,1,0,1,,,,,,,,,,,,,,,,,,,,,,,,,
,,,,,,,,2023-08-16_08h49.06.545,HF_wild_card,2022.2.4,Win32,59.95922773,5aeaf3c226b6680001698375,64d2fd46c836a06233681665,64dc7f6dc002480885e2960e,,,,,,,,,,,,,,,,,,,,,,,,,,,,,,,,80,Door4,resources/DB.BMP,2,0,2,0,1,,,,,,,,,,,,,,,,,,,,,,,,,
,,,,,,,,2023-08-16_08h49.06.545,HF_wild_card,2022.2.4,Win32,59.95922773,5aeaf3c226b6680001698375,64d2fd46c836a06233681665,64dc7f6dc002480885e2960e,,,,,,,,,,,,,,,,,,,,,,,,,,,,,,,,25,Door1,resources/DR.BMP,3,0,3,0,1,,,,,,,,,,,,,,,,,,,,,,,,,
,,,,,,,,2023-08-16_08h49.06.545,HF_wild_card,2022.2.4,Win32,59.95922773,5aeaf3c226b6680001698375,64d2fd46c836a06233681665,64dc7f6dc002480885e2960e,,,,,,,,,,,,,,,,,,,,,,,,,,,,,,,,95,WC_extreme,resources/DG.BMP,4,0,4,0,1,,,,,,,,,,,,,,,,,,,,,,,,,
,,,,,,,,2023-08-16_08h49.06.545,HF_wild_card,2022.2.4,Win32,59.95922773,5aeaf3c226b6680001698375,64d2fd46c836a06233681665,64dc7f6dc002480885e2960e,,,,,,,,,,,,,,,,,,,,,,,,,,,,,,,,70,Door3,resources/DBN.BMP,5,0,5,0,1,,,,,,,,,,,,,,,,,,,,,,,,,
,,,,,,,,2023-08-16_08h49.06.545,HF_wild_card,2022.2.4,Win32,59.95922773,5aeaf3c226b6680001698375,64d2fd46c836a06233681665,64dc7f6dc002480885e2960e,,,,,,,,,,,,,,,,,,,,,,,,,,,,,,,,,,,,,,,,,,,,,,,,,,,,,,,,,,,,,,,,
