Condition,Low fixed image (Door1),Low risky image (Door2),High fixed image (Door3),High risky image (Door4),Extreme Wild Card,NonExtreme Wild Card,,date,expName,psychopyVersion,OS,frameRate,PROLIFIC_PID,STUDY_ID,SESSION_ID,mouse_2.x,mouse_2.y,mouse_2.leftButton,mouse_2.midButton,mouse_2.rightButton,mouse_2.clicked_name,Trial Type,Left Option Image,Right Option Image,Chosen Door,mouse.x,mouse.y,mouse.leftButton,mouse.midButton,mouse.rightButton,mouse.time,mouse.clicked_name,Feedback,Cumulative Reward,Block,trial.thisRepN,trial.thisTrialN,trial.thisN,trial.thisIndex,trial.ran,blocks.thisRepN,blocks.thisTrialN,blocks.thisN,blocks.thisIndex,blocks.ran,Money conversion,First Outcome Reported,Shown Door (First Outcome),Displayed Image (First Outcome),outcomes.thisRepN,outcomes.thisTrialN,outcomes.thisN,outcomes.thisIndex,outcomes.ran,judgments.thisRepN,judgments.thisTrialN,judgments.thisN,judgments.thisIndex,judgments.ran,freqMouse.x,freqMouse.y,freqMouse.leftButton,freqMouse.midButton,freqMouse.rightButton,freqMouse.clicked_name,FQJ for first outcome,FQJ for second outcome,Shown Door,Displayed Image,trials.thisRepN,trials.thisTrialN,trials.thisN,trials.thisIndex,trials.ran,judgBlock.thisRepN,judgBlock.thisTrialN,judgBlock.thisN,judgBlock.thisIndex,judgBlock.ran
0,resources/DG.BMP,resources/DBN.BMP,resources/DB.BMP,resources/DP.BMP,resources/DY.BMP,resources/DR.BMP,,2023-08-16_21h49.56.740,HF_wild_card,2022.2.4,MacIntel,58.82352941,5b9f707da0e8f30001a17cba,64d2fd46c836a06233681665,64dd36535f22f1658c5fd71c,,,,,,,,,,,,,,,,,,,,,,,,,,,,,,,,,,,,,,,,,,,,,,,,,,,,,,,,,,,,,,,,
,,,,,,,,2023-08-16_21h49.56.740,HF_wild_card,2022.2.4,MacIntel,58.82352941,5b9f707da0e8f30001a17cba,64d2fd46c836a06233681665,64dd36535f22f1658c5fd71c,0.006666667,-0.418888889,1,0,0,agree,,,,,,,,,,,,,,,,,,,,,,,,,,,,,,,,,,,,,,,,,,,,,,,,,,,,,,,,,,
,,,,,,,,2023-08-16_21h49.56.740,HF_wild_card,2022.2.4,MacIntel,58.82352941,5b9f707da0e8f30001a17cba,64d2fd46c836a06233681665,64dd36535f22f1658c5fd71c,,,,,,,,,,,,,,,,,,,,,,,,,,,,,,,,,,,,,,,,,,,,,,,,,,,,,,,,,,,,,,,,
,,,,,,,,2023-08-16_21h49.56.740,HF_wild_card,2022.2.4,MacIntel,58.82352941,5b9f707da0e8f30001a17cba,64d2fd46c836a06233681665,64dd36535f22f1658c5fd71c,,,,,,,decisionTrl,resources/DB.BMP,resources/DP.BMP,Door4,0.397777778,-0.015555556,1,0,0,5.103,optionRight,60,60,1,0,0,0,0,1,,,,,,,,,,,,,,,,,,,,,,,,,,,,,,,,,,,,,,,
,,,,,,,,2023-08-16_21h49.56.740,HF_wild_card,2022.2.4,MacIntel,58.82352941,5b9f707da0e8f30001a17cba,64d2fd46c836a06233681665,64dd36535f22f1658c5fd71c,,,,,,,ctch,resources/DBN.BMP,resources/DB.BMP,Door3,0.382222222,-0.036666667,1,0,0,2.542,optionRight,70,130,1,1,0,1,0,1,,,,,,,,,,,,,,,,,,,,,,,,,,,,,,,,,,,,,,,
,,,,,,,,2023-08-16_21h49.56.740,HF_wild_card,2022.2.4,MacIntel,58.82352941,5b9f707da0e8f30001a17cba,64d2fd46c836a06233681665,64dd36535f22f1658c5fd71c,,,,,,,sngl,resources/Empty.png,resources/DY.BMP,WildCard_Ex,0.343333333,-0.04,1,0,0,2.012,optionRight,5,135,1,2,0,2,0,1,,,,,,,,,,,,,,,,,,,,,,,,,,,,,,,,,,,,,,,
,,,,,,,,2023-08-16_21h49.56.740,HF_wild_card,2022.2.4,MacIntel,58.82352941,5b9f707da0e8f30001a17cba,64d2fd46c836a06233681665,64dd36535f22f1658c5fd71c,,,,,,,decisionTrl,resources/DP.BMP,resources/DB.BMP,Door3,0.444444444,0.001111111,1,0,0,1.777,optionRight,70,205,1,3,0,3,0,1,,,,,,,,,,,,,,,,,,,,,,,,,,,,,,,,,,,,,,,
,,,,,,,,2023-08-16_21h49.56.740,HF_wild_card,2022.2.4,MacIntel,58.82352941,5b9f707da0e8f30001a17cba,64d2fd46c836a06233681665,64dd36535f22f1658c5fd71c,,,,,,,ctch,resources/DBN.BMP,resources/DB.BMP,Door2,-0.354444444,0.012222222,1,0,0,0.995,optionLeft,20,225,1,4,0,4,0,1,,,,,,,,,,,,,,,,,,,,,,,,,,,,,,,,,,,,,,,
,,,,,,,,2023-08-16_21h49.56.740,HF_wild_card,2022.2.4,MacIntel,58.82352941,5b9f707da0e8f30001a17cba,64d2fd46c836a06233681665,64dd36535f22f1658c5fd71c,,,,,,,ctch,resources/DB.BMP,resources/DBN.BMP,Door3,-0.358888889,0.028888889,1,0,0,0.963,optionLeft,70,295,1,5,0,5,0,1,,,,,,,,,,,,,,,,,,,,,,,,,,,,,,,,,,,,,,,
,,,,,,,,2023-08-16_21h49.56.740,HF_wild_card,2022.2.4,MacIntel,58.82352941,5b9f707da0e8f30001a17cba,64d2fd46c836a06233681665,64dd36535f22f1658c5fd71c,,,,,,,sngl,resources/Empty.png,resources/DG.BMP,Door1,0.352222222,-0.063333333,1,0,0,0.929,optionRight,30,325,1,6,0,6,0,1,,,,,,,,,,,,,,,,,,,,,,,,,,,,,,,,,,,,,,,
,,,,,,,,2023-08-16_21h49.56.740,HF_wild_card,2022.2.4,MacIntel,58.82352941,5b9f707da0e8f30001a17cba,64d2fd46c836a06233681665,64dd36535f22f1658c5fd71c,,,,,,,decisionTrl,resources/DG.BMP,resources/DBN.BMP,Door1,-0.367777778,0.005555556,1,0,0,0.979,optionLeft,30,355,1,7,0,7,0,1,,,,,,,,,,,,,,,,,,,,,,,,,,,,,,,,,,,,,,,
,,,,,,,,2023-08-16_21h49.56.740,HF_wild_card,2022.2.4,MacIntel,58.82352941,5b9f707da0e8f30001a17cba,64d2fd46c836a06233681665,64dd36535f22f1658c5fd71c,,,,,,,decisionTrl,resources/DP.BMP,resources/DB.BMP,Door3,0.367777778,-0.044444444,1,0,0,0.86,optionRight,70,425,1,8,0,8,0,1,,,,,,,,,,,,,,,,,,,,,,,,,,,,,,,,,,,,,,,
,,,,,,,,2023-08-16_21h49.56.740,HF_wild_card,2022.2.4,MacIntel,58.82352941,5b9f707da0e8f30001a17cba,64d2fd46c836a06233681665,64dd36535f22f1658c5fd71c,,,,,,,decisionTrl,resources/DB.BMP,resources/DP.BMP,Door3,-0.381111111,0.004444444,1,0,0,0.73,optionLeft,70,495,1,9,0,9,0,1,,,,,,,,,,,,,,,,,,,,,,,,,,,,,,,,,,,,,,,
,,,,,,,,2023-08-16_21h49.56.740,HF_wild_card,2022.2.4,MacIntel,58.82352941,5b9f707da0e8f30001a17cba,64d2fd46c836a06233681665,64dd36535f22f1658c5fd71c,,,,,,,decisionTrl,resources/DP.BMP,resources/DB.BMP,Door3,0.38,0.006666667,1,0,0,0.729,optionRight,70,565,1,10,0,10,0,1,,,,,,,,,,,,,,,,,,,,,,,,,,,,,,,,,,,,,,,
,,,,,,,,2023-08-16_21h49.56.740,HF_wild_card,2022.2.4,MacIntel,58.82352941,5b9f707da0e8f30001a17cba,64d2fd46c836a06233681665,64dd36535f22f1658c5fd71c,,,,,,,decisionTrl,resources/DBN.BMP,resources/DG.BMP,Door1,0.342222222,-0.021111111,1,0,0,2.795,optionRight,30,595,1,11,0,11,0,1,,,,,,,,,,,,,,,,,,,,,,,,,,,,,,,,,,,,,,,
,,,,,,,,2023-08-16_21h49.56.740,HF_wild_card,2022.2.4,MacIntel,58.82352941,5b9f707da0e8f30001a17cba,64d2fd46c836a06233681665,64dd36535f22f1658c5fd71c,,,,,,,decisionTrl,resources/DP.BMP,resources/DY.BMP,Door4,-0.254444444,-0.013333333,1,0,0,1.68,optionLeft,80,675,1,12,0,12,0,1,,,,,,,,,,,,,,,,,,,,,,,,,,,,,,,,,,,,,,,
,,,,,,,,2023-08-16_21h49.56.740,HF_wild_card,2022.2.4,MacIntel,58.82352941,5b9f707da0e8f30001a17cba,64d2fd46c836a06233681665,64dd36535f22f1658c5fd71c,,,,,,,decisionTrl,resources/DBN.BMP,resources/DG.BMP,Door1,0.436666667,-0.038888889,1,0,0,1.978,optionRight,30,705,1,13,0,13,0,1,,,,,,,,,,,,,,,,,,,,,,,,,,,,,,,,,,,,,,,
,,,,,,,,2023-08-16_21h49.56.740,HF_wild_card,2022.2.4,MacIntel,58.82352941,5b9f707da0e8f30001a17cba,64d2fd46c836a06233681665,64dd36535f22f1658c5fd71c,,,,,,,ctch,resources/DP.BMP,resources/DG.BMP,Door4,-0.363333333,-0.033333333,1,0,0,0.795,optionLeft,60,765,1,14,0,14,0,1,,,,,,,,,,,,,,,,,,,,,,,,,,,,,,,,,,,,,,,
,,,,,,,,2023-08-16_21h49.56.740,HF_wild_card,2022.2.4,MacIntel,58.82352941,5b9f707da0e8f30001a17cba,64d2fd46c836a06233681665,64dd36535f22f1658c5fd71c,,,,,,,sngl,resources/DBN.BMP,resources/Empty.png,Door2,-0.236666667,-0.023333333,1,0,0,0.928,optionLeft,40,805,1,15,0,15,0,1,,,,,,,,,,,,,,,,,,,,,,,,,,,,,,,,,,,,,,,
,,,,,,,,2023-08-16_21h49.56.740,HF_wild_card,2022.2.4,MacIntel,58.82352941,5b9f707da0e8f30001a17cba,64d2fd46c836a06233681665,64dd36535f22f1658c5fd71c,,,,,,,decisionTrl,resources/DY.BMP,resources/DB.BMP,WildCard_Ex,-0.341111111,-0.07,1,0,0,1.379,optionLeft,95,900,1,16,0,16,0,1,,,,,,,,,,,,,,,,,,,,,,,,,,,,,,,,,,,,,,,
,,,,,,,,2023-08-16_21h49.56.740,HF_wild_card,2022.2.4,MacIntel,58.82352941,5b9f707da0e8f30001a17cba,64d2fd46c836a06233681665,64dd36535f22f1658c5fd71c,,,,,,,decisionTrl,resources/DY.BMP,resources/DP.BMP,WildCard_Ex,-0.485555556,-0.045555556,1,0,0,1.514,optionLeft,95,995,1,17,0,17,0,1,,,,,,,,,,,,,,,,,,,,,,,,,,,,,,,,,,,,,,,
,,,,,,,,2023-08-16_21h49.56.740,HF_wild_card,2022.2.4,MacIntel,58.82352941,5b9f707da0e8f30001a17cba,64d2fd46c836a06233681665,64dd36535f22f1658c5fd71c,,,,,,,decisionTrl,resources/DBN.BMP,resources/DG.BMP,Door1,0.215555556,-0.031111111,1,0,0,2.013,optionRight,30,1025,1,18,0,18,0,1,,,,,,,,,,,,,,,,,,,,,,,,,,,,,,,,,,,,,,,
,,,,,,,,2023-08-16_21h49.56.740,HF_wild_card,2022.2.4,MacIntel,58.82352941,5b9f707da0e8f30001a17cba,64d2fd46c836a06233681665,64dd36535f22f1658c5fd71c,,,,,,,ctch,resources/DP.BMP,resources/DG.BMP,Door4,-0.372222222,-0.053333333,1,0,0,0.977,optionLeft,80,1105,1,19,0,19,0,1,,,,,,,,,,,,,,,,,,,,,,,,,,,,,,,,,,,,,,,
,,,,,,,,2023-08-16_21h49.56.740,HF_wild_card,2022.2.4,MacIntel,58.82352941,5b9f707da0e8f30001a17cba,64d2fd46c836a06233681665,64dd36535f22f1658c5fd71c,,,,,,,decisionTrl,resources/DBN.BMP,resources/DG.BMP,Door2,-0.317777778,0,1,0,0,1.029,optionLeft,40,1145,1,20,0,20,0,1,,,,,,,,,,,,,,,,,,,,,,,,,,,,,,,,,,,,,,,
,,,,,,,,2023-08-16_21h49.56.740,HF_wild_card,2022.2.4,MacIntel,58.82352941,5b9f707da0e8f30001a17cba,64d2fd46c836a06233681665,64dd36535f22f1658c5fd71c,,,,,,,decisionTrl,resources/DB.BMP,resources/DP.BMP,Door4,0.326666667,-0.072222222,1,0,0,2.362,optionRight,60,1205,1,21,0,21,0,1,,,,,,,,,,,,,,,,,,,,,,,,,,,,,,,,,,,,,,,
,,,,,,,,2023-08-16_21h49.56.740,HF_wild_card,2022.2.4,MacIntel,58.82352941,5b9f707da0e8f30001a17cba,64d2fd46c836a06233681665,64dd36535f22f1658c5fd71c,,,,,,,sngl,resources/DP.BMP,resources/Empty.png,Door4,-0.322222222,-0.041111111,1,0,0,1.03,optionLeft,80,1285,1,22,0,22,0,1,,,,,,,,,,,,,,,,,,,,,,,,,,,,,,,,,,,,,,,
,,,,,,,,2023-08-16_21h49.56.740,HF_wild_card,2022.2.4,MacIntel,58.82352941,5b9f707da0e8f30001a17cba,64d2fd46c836a06233681665,64dd36535f22f1658c5fd71c,,,,,,,sngl,resources/Empty.png,resources/DB.BMP,Door3,0.242222222,-0.031111111,1,0,0,0.663,optionRight,70,1355,1,23,0,23,0,1,,,,,,,,,,,,,,,,,,,,,,,,,,,,,,,,,,,,,,,
,,,,,,,,2023-08-16_21h49.56.740,HF_wild_card,2022.2.4,MacIntel,58.82352941,5b9f707da0e8f30001a17cba,64d2fd46c836a06233681665,64dd36535f22f1658c5fd71c,,,,,,,sngl,resources/DG.BMP,resources/Empty.png,Door1,-0.224444444,-0.04,1,0,0,0.711,optionLeft,30,1385,1,24,0,24,0,1,,,,,,,,,,,,,,,,,,,,,,,,,,,,,,,,,,,,,,,
,,,,,,,,2023-08-16_21h49.56.740,HF_wild_card,2022.2.4,MacIntel,58.82352941,5b9f707da0e8f30001a17cba,64d2fd46c836a06233681665,64dd36535f22f1658c5fd71c,,,,,,,ctch,resources/DB.BMP,resources/DBN.BMP,Door3,-0.243333333,-0.061111111,1,0,0,1.329,optionLeft,70,1455,1,25,0,25,0,1,,,,,,,,,,,,,,,,,,,,,,,,,,,,,,,,,,,,,,,
,,,,,,,,2023-08-16_21h49.56.740,HF_wild_card,2022.2.4,MacIntel,58.82352941,5b9f707da0e8f30001a17cba,64d2fd46c836a06233681665,64dd36535f22f1658c5fd71c,,,,,,,sngl,resources/DY.BMP,resources/Empty.png,WildCard_Ex,-0.214444444,-0.046666667,1,0,0,0.779,optionLeft,95,1550,1,26,0,26,0,1,,,,,,,,,,,,,,,,,,,,,,,,,,,,,,,,,,,,,,,
,,,,,,,,2023-08-16_21h49.56.740,HF_wild_card,2022.2.4,MacIntel,58.82352941,5b9f707da0e8f30001a17cba,64d2fd46c836a06233681665,64dd36535f22f1658c5fd71c,,,,,,,decisionTrl,resources/DBN.BMP,resources/DY.BMP,WildCard_Ex,0.291111111,-0.014444444,1,0,0,0.812,optionRight,5,1555,1,27,0,27,0,1,,,,,,,,,,,,,,,,,,,,,,,,,,,,,,,,,,,,,,,
,,,,,,,,2023-08-16_21h49.56.740,HF_wild_card,2022.2.4,MacIntel,58.82352941,5b9f707da0e8f30001a17cba,64d2fd46c836a06233681665,64dd36535f22f1658c5fd71c,,,,,,,sngl,resources/DY.BMP,resources/Empty.png,WildCard_Ex,-0.265555556,-0.034444444,1,0,0,0.714,optionLeft,5,1560,1,28,0,28,0,1,,,,,,,,,,,,,,,,,,,,,,,,,,,,,,,,,,,,,,,
,,,,,,,,2023-08-16_21h49.56.740,HF_wild_card,2022.2.4,MacIntel,58.82352941,5b9f707da0e8f30001a17cba,64d2fd46c836a06233681665,64dd36535f22f1658c5fd71c,,,,,,,sngl,resources/Empty.png,resources/DY.BMP,WildCard_Ex,0.353333333,-0.015555556,1,0,0,0.797,optionRight,95,1655,1,29,0,29,0,1,,,,,,,,,,,,,,,,,,,,,,,,,,,,,,,,,,,,,,,
,,,,,,,,2023-08-16_21h49.56.740,HF_wild_card,2022.2.4,MacIntel,58.82352941,5b9f707da0e8f30001a17cba,64d2fd46c836a06233681665,64dd36535f22f1658c5fd71c,,,,,,,decisionTrl,resources/DG.BMP,resources/DBN.BMP,Door1,-0.426666667,-0.002222222,1,0,0,2.196,optionLeft,30,1685,1,30,0,30,0,1,,,,,,,,,,,,,,,,,,,,,,,,,,,,,,,,,,,,,,,
,,,,,,,,2023-08-16_21h49.56.740,HF_wild_card,2022.2.4,MacIntel,58.82352941,5b9f707da0e8f30001a17cba,64d2fd46c836a06233681665,64dd36535f22f1658c5fd71c,,,,,,,decisionTrl,resources/DB.BMP,resources/DP.BMP,Door4,0.465555556,-0.085555556,1,0,0,1.163,optionRight,80,1765,1,31,0,31,0,1,,,,,,,,,,,,,,,,,,,,,,,,,,,,,,,,,,,,,,,
,,,,,,,,2023-08-16_21h49.56.740,HF_wild_card,2022.2.4,MacIntel,58.82352941,5b9f707da0e8f30001a17cba,64d2fd46c836a06233681665,64dd36535f22f1658c5fd71c,,,,,,,sngl,resources/Empty.png,resources/DP.BMP,Door4,0.381111111,0.02,1,0,0,0.646,optionRight,60,1825,1,32,0,32,0,1,,,,,,,,,,,,,,,,,,,,,,,,,,,,,,,,,,,,,,,
,,,,,,,,2023-08-16_21h49.56.740,HF_wild_card,2022.2.4,MacIntel,58.82352941,5b9f707da0e8f30001a17cba,64d2fd46c836a06233681665,64dd36535f22f1658c5fd71c,,,,,,,sngl,resources/DB.BMP,resources/Empty.png,Door3,-0.354444444,-0.022222222,1,0,0,0.746,optionLeft,70,1895,1,33,0,33,0,1,,,,,,,,,,,,,,,,,,,,,,,,,,,,,,,,,,,,,,,
,,,,,,,,2023-08-16_21h49.56.740,HF_wild_card,2022.2.4,MacIntel,58.82352941,5b9f707da0e8f30001a17cba,64d2fd46c836a06233681665,64dd36535f22f1658c5fd71c,,,,,,,sngl,resources/Empty.png,resources/DBN.BMP,Door2,0.348888889,-0.004444444,1,0,0,0.696,optionRight,20,1915,1,34,0,34,0,1,,,,,,,,,,,,,,,,,,,,,,,,,,,,,,,,,,,,,,,
,,,,,,,,2023-08-16_21h49.56.740,HF_wild_card,2022.2.4,MacIntel,58.82352941,5b9f707da0e8f30001a17cba,64d2fd46c836a06233681665,64dd36535f22f1658c5fd71c,,,,,,,decisionTrl,resources/DY.BMP,resources/DG.BMP,WildCard_Ex,-0.312222222,-0.048888889,1,0,0,1.463,optionLeft,5,1920,1,35,0,35,0,1,,,,,,,,,,,,,,,,,,,,,,,,,,,,,,,,,,,,,,,
,,,,,,,,2023-08-16_21h49.56.740,HF_wild_card,2022.2.4,MacIntel,58.82352941,5b9f707da0e8f30001a17cba,64d2fd46c836a06233681665,64dd36535f22f1658c5fd71c,,,,,,,ctch,resources/DG.BMP,resources/DP.BMP,Door4,0.444444444,-0.016666667,1,0,0,1.613,optionRight,60,1980,1,36,0,36,0,1,,,,,,,,,,,,,,,,,,,,,,,,,,,,,,,,,,,,,,,
,,,,,,,,2023-08-16_21h49.56.740,HF_wild_card,2022.2.4,MacIntel,58.82352941,5b9f707da0e8f30001a17cba,64d2fd46c836a06233681665,64dd36535f22f1658c5fd71c,,,,,,,decisionTrl,resources/DG.BMP,resources/DBN.BMP,Door2,0.368888889,-0.017777778,1,0,0,0.913,optionRight,40,2020,1,37,0,37,0,1,,,,,,,,,,,,,,,,,,,,,,,,,,,,,,,,,,,,,,,
,,,,,,,,2023-08-16_21h49.56.740,HF_wild_card,2022.2.4,MacIntel,58.82352941,5b9f707da0e8f30001a17cba,64d2fd46c836a06233681665,64dd36535f22f1658c5fd71c,,,,,,,decisionTrl,resources/DG.BMP,resources/DBN.BMP,Door1,-0.23,-0.018888889,1,0,0,1.13,optionLeft,30,2050,1,38,0,38,0,1,,,,,,,,,,,,,,,,,,,,,,,,,,,,,,,,,,,,,,,
,,,,,,,,2023-08-16_21h49.56.740,HF_wild_card,2022.2.4,MacIntel,58.82352941,5b9f707da0e8f30001a17cba,64d2fd46c836a06233681665,64dd36535f22f1658c5fd71c,,,,,,,decisionTrl,resources/DY.BMP,resources/DBN.BMP,WildCard_Ex,-0.225555556,-0.1,1,0,0,1.262,optionLeft,5,2055,1,39,0,39,0,1,,,,,,,,,,,,,,,,,,,,,,,,,,,,,,,,,,,,,,,
,,,,,,,,2023-08-16_21h49.56.740,HF_wild_card,2022.2.4,MacIntel,58.82352941,5b9f707da0e8f30001a17cba,64d2fd46c836a06233681665,64dd36535f22f1658c5fd71c,,,,,,,decisionTrl,resources/DG.BMP,resources/DY.BMP,WildCard_Ex,0.346666667,-0.063333333,1,0,0,1.262,optionRight,5,2060,1,40,0,40,0,1,,,,,,,,,,,,,,,,,,,,,,,,,,,,,,,,,,,,,,,
,,,,,,,,2023-08-16_21h49.56.740,HF_wild_card,2022.2.4,MacIntel,58.82352941,5b9f707da0e8f30001a17cba,64d2fd46c836a06233681665,64dd36535f22f1658c5fd71c,,,,,,,decisionTrl,resources/DB.BMP,resources/DY.BMP,Door3,-0.221111111,-0.054444444,1,0,0,0.83,optionLeft,70,2130,1,41,0,41,0,1,,,,,,,,,,,,,,,,,,,,,,,,,,,,,,,,,,,,,,,
,,,,,,,,2023-08-16_21h49.56.740,HF_wild_card,2022.2.4,MacIntel,58.82352941,5b9f707da0e8f30001a17cba,64d2fd46c836a06233681665,64dd36535f22f1658c5fd71c,,,,,,,decisionTrl,resources/DP.BMP,resources/DB.BMP,Door4,-0.28,-0.066666667,1,0,0,1.63,optionLeft,80,2210,1,42,0,42,0,1,,,,,,,,,,,,,,,,,,,,,,,,,,,,,,,,,,,,,,,
,,,,,,,,2023-08-16_21h49.56.740,HF_wild_card,2022.2.4,MacIntel,58.82352941,5b9f707da0e8f30001a17cba,64d2fd46c836a06233681665,64dd36535f22f1658c5fd71c,,,,,,,ctch,resources/DG.BMP,resources/DP.BMP,Door4,0.37,-0.013333333,1,0,0,0.811,optionRight,80,2290,1,43,0,43,0,1,,,,,,,,,,,,,,,,,,,,,,,,,,,,,,,,,,,,,,,
,,,,,,,,2023-08-16_21h49.56.740,HF_wild_card,2022.2.4,MacIntel,58.82352941,5b9f707da0e8f30001a17cba,64d2fd46c836a06233681665,64dd36535f22f1658c5fd71c,,,,,,,,,,,,,,,,,,,,,,,,,,0,0,0,0,1,,,,,,,,,,,,,,,,,,,,,,,,,,,,,,,,,,
,,,,,,,,2023-08-16_21h49.56.740,HF_wild_card,2022.2.4,MacIntel,58.82352941,5b9f707da0e8f30001a17cba,64d2fd46c836a06233681665,64dd36535f22f1658c5fd71c,,,,,,,ctch,resources/DBN.BMP,resources/DB.BMP,Door3,0.327777778,-0.027777778,1,0,0,1.458,optionRight,70,2360,2,0,0,0,0,1,,,,,,,,,,,,,,,,,,,,,,,,,,,,,,,,,,,,,,,
,,,,,,,,2023-08-16_21h49.56.740,HF_wild_card,2022.2.4,MacIntel,58.82352941,5b9f707da0e8f30001a17cba,64d2fd46c836a06233681665,64dd36535f22f1658c5fd71c,,,,,,,decisionTrl,resources/DBN.BMP,resources/DY.BMP,Door2,-0.217777778,-0.017777778,1,0,0,0.761,optionLeft,40,2400,2,1,0,1,0,1,,,,,,,,,,,,,,,,,,,,,,,,,,,,,,,,,,,,,,,
,,,,,,,,2023-08-16_21h49.56.740,HF_wild_card,2022.2.4,MacIntel,58.82352941,5b9f707da0e8f30001a17cba,64d2fd46c836a06233681665,64dd36535f22f1658c5fd71c,,,,,,,sngl,resources/DB.BMP,resources/Empty.png,Door3,-0.266666667,-0.04,1,0,0,0.662,optionLeft,70,2470,2,2,0,2,0,1,,,,,,,,,,,,,,,,,,,,,,,,,,,,,,,,,,,,,,,
,,,,,,,,2023-08-16_21h49.56.740,HF_wild_card,2022.2.4,MacIntel,58.82352941,5b9f707da0e8f30001a17cba,64d2fd46c836a06233681665,64dd36535f22f1658c5fd71c,,,,,,,decisionTrl,resources/DB.BMP,resources/DP.BMP,Door3,-0.336666667,-0.052222222,1,0,0,0.764,optionLeft,70,2540,2,3,0,3,0,1,,,,,,,,,,,,,,,,,,,,,,,,,,,,,,,,,,,,,,,
,,,,,,,,2023-08-16_21h49.56.740,HF_wild_card,2022.2.4,MacIntel,58.82352941,5b9f707da0e8f30001a17cba,64d2fd46c836a06233681665,64dd36535f22f1658c5fd71c,,,,,,,decisionTrl,resources/DP.BMP,resources/DB.BMP,Door3,0.408888889,0.015555556,1,0,0,0.68,optionRight,70,2610,2,4,0,4,0,1,,,,,,,,,,,,,,,,,,,,,,,,,,,,,,,,,,,,,,,
,,,,,,,,2023-08-16_21h49.56.740,HF_wild_card,2022.2.4,MacIntel,58.82352941,5b9f707da0e8f30001a17cba,64d2fd46c836a06233681665,64dd36535f22f1658c5fd71c,,,,,,,decisionTrl,resources/DP.BMP,resources/DY.BMP,Door4,-0.307777778,-0.024444444,1,0,0,0.728,optionLeft,80,2690,2,5,0,5,0,1,,,,,,,,,,,,,,,,,,,,,,,,,,,,,,,,,,,,,,,
,,,,,,,,2023-08-16_21h49.56.740,HF_wild_card,2022.2.4,MacIntel,58.82352941,5b9f707da0e8f30001a17cba,64d2fd46c836a06233681665,64dd36535f22f1658c5fd71c,,,,,,,ctch,resources/DBN.BMP,resources/DB.BMP,Door3,0.313333333,-0.022222222,1,0,0,0.713,optionRight,70,2760,2,6,0,6,0,1,,,,,,,,,,,,,,,,,,,,,,,,,,,,,,,,,,,,,,,
,,,,,,,,2023-08-16_21h49.56.740,HF_wild_card,2022.2.4,MacIntel,58.82352941,5b9f707da0e8f30001a17cba,64d2fd46c836a06233681665,64dd36535f22f1658c5fd71c,,,,,,,sngl,resources/Empty.png,resources/DBN.BMP,Door2,0.298888889,0.01,1,0,0,0.614,optionRight,40,2800,2,7,0,7,0,1,,,,,,,,,,,,,,,,,,,,,,,,,,,,,,,,,,,,,,,
,,,,,,,,2023-08-16_21h49.56.740,HF_wild_card,2022.2.4,MacIntel,58.82352941,5b9f707da0e8f30001a17cba,64d2fd46c836a06233681665,64dd36535f22f1658c5fd71c,,,,,,,decisionTrl,resources/DY.BMP,resources/DBN.BMP,Door2,0.263333333,-0.014444444,1,0,0,1.164,optionRight,40,2840,2,8,0,8,0,1,,,,,,,,,,,,,,,,,,,,,,,,,,,,,,,,,,,,,,,
,,,,,,,,2023-08-16_21h49.56.740,HF_wild_card,2022.2.4,MacIntel,58.82352941,5b9f707da0e8f30001a17cba,64d2fd46c836a06233681665,64dd36535f22f1658c5fd71c,,,,,,,decisionTrl,resources/DG.BMP,resources/DBN.BMP,Door1,-0.216666667,0.007777778,1,0,0,1.247,optionLeft,30,2870,2,9,0,9,0,1,,,,,,,,,,,,,,,,,,,,,,,,,,,,,,,,,,,,,,,
,,,,,,,,2023-08-16_21h49.56.740,HF_wild_card,2022.2.4,MacIntel,58.82352941,5b9f707da0e8f30001a17cba,64d2fd46c836a06233681665,64dd36535f22f1658c5fd71c,,,,,,,sngl,resources/DY.BMP,resources/Empty.png,WildCard_Ex,-0.196666667,-0.023333333,1,0,0,0.662,optionLeft,5,2875,2,10,0,10,0,1,,,,,,,,,,,,,,,,,,,,,,,,,,,,,,,,,,,,,,,
,,,,,,,,2023-08-16_21h49.56.740,HF_wild_card,2022.2.4,MacIntel,58.82352941,5b9f707da0e8f30001a17cba,64d2fd46c836a06233681665,64dd36535f22f1658c5fd71c,,,,,,,sngl,resources/Empty.png,resources/DP.BMP,Door4,0.415555556,-0.027777778,1,0,0,0.613,optionRight,80,2955,2,11,0,11,0,1,,,,,,,,,,,,,,,,,,,,,,,,,,,,,,,,,,,,,,,
,,,,,,,,2023-08-16_21h49.56.740,HF_wild_card,2022.2.4,MacIntel,58.82352941,5b9f707da0e8f30001a17cba,64d2fd46c836a06233681665,64dd36535f22f1658c5fd71c,,,,,,,decisionTrl,resources/DBN.BMP,resources/DG.BMP,Door2,-0.288888889,-0.046666667,1,0,0,2.647,optionLeft,20,2975,2,12,0,12,0,1,,,,,,,,,,,,,,,,,,,,,,,,,,,,,,,,,,,,,,,
,,,,,,,,2023-08-16_21h49.56.740,HF_wild_card,2022.2.4,MacIntel,58.82352941,5b9f707da0e8f30001a17cba,64d2fd46c836a06233681665,64dd36535f22f1658c5fd71c,,,,,,,decisionTrl,resources/DBN.BMP,resources/DG.BMP,Door1,0.396666667,-0.02,1,0,0,0.714,optionRight,30,3005,2,13,0,13,0,1,,,,,,,,,,,,,,,,,,,,,,,,,,,,,,,,,,,,,,,
,,,,,,,,2023-08-16_21h49.56.740,HF_wild_card,2022.2.4,MacIntel,58.82352941,5b9f707da0e8f30001a17cba,64d2fd46c836a06233681665,64dd36535f22f1658c5fd71c,,,,,,,decisionTrl,resources/DY.BMP,resources/DP.BMP,Door4,0.553333333,0.048888889,1,0,0,0.864,optionRight,80,3085,2,14,0,14,0,1,,,,,,,,,,,,,,,,,,,,,,,,,,,,,,,,,,,,,,,
,,,,,,,,2023-08-16_21h49.56.740,HF_wild_card,2022.2.4,MacIntel,58.82352941,5b9f707da0e8f30001a17cba,64d2fd46c836a06233681665,64dd36535f22f1658c5fd71c,,,,,,,decisionTrl,resources/DG.BMP,resources/DBN.BMP,Door1,-0.185555556,0.001111111,1,0,0,1.729,optionLeft,30,3115,2,15,0,15,0,1,,,,,,,,,,,,,,,,,,,,,,,,,,,,,,,,,,,,,,,
,,,,,,,,2023-08-16_21h49.56.740,HF_wild_card,2022.2.4,MacIntel,58.82352941,5b9f707da0e8f30001a17cba,64d2fd46c836a06233681665,64dd36535f22f1658c5fd71c,,,,,,,sngl,resources/DY.BMP,resources/Empty.png,WildCard_Ex,-0.308888889,-0.061111111,1,0,0,0.582,optionLeft,95,3210,2,16,0,16,0,1,,,,,,,,,,,,,,,,,,,,,,,,,,,,,,,,,,,,,,,
,,,,,,,,2023-08-16_21h49.56.740,HF_wild_card,2022.2.4,MacIntel,58.82352941,5b9f707da0e8f30001a17cba,64d2fd46c836a06233681665,64dd36535f22f1658c5fd71c,,,,,,,decisionTrl,resources/DBN.BMP,resources/DG.BMP,Door1,0.265555556,0.062222222,1,0,0,3.114,optionRight,30,3240,2,17,0,17,0,1,,,,,,,,,,,,,,,,,,,,,,,,,,,,,,,,,,,,,,,
,,,,,,,,2023-08-16_21h49.56.740,HF_wild_card,2022.2.4,MacIntel,58.82352941,5b9f707da0e8f30001a17cba,64d2fd46c836a06233681665,64dd36535f22f1658c5fd71c,,,,,,,decisionTrl,resources/DG.BMP,resources/DY.BMP,Door1,-0.354444444,0.01,1,0,0,1.51,optionLeft,30,3270,2,18,0,18,0,1,,,,,,,,,,,,,,,,,,,,,,,,,,,,,,,,,,,,,,,
,,,,,,,,2023-08-16_21h49.56.740,HF_wild_card,2022.2.4,MacIntel,58.82352941,5b9f707da0e8f30001a17cba,64d2fd46c836a06233681665,64dd36535f22f1658c5fd71c,,,,,,,decisionTrl,resources/DY.BMP,resources/DG.BMP,WildCard_Ex,-0.32,-0.12,1,0,0,1.545,optionLeft,95,3365,2,19,0,19,0,1,,,,,,,,,,,,,,,,,,,,,,,,,,,,,,,,,,,,,,,
,,,,,,,,2023-08-16_21h49.56.740,HF_wild_card,2022.2.4,MacIntel,58.82352941,5b9f707da0e8f30001a17cba,64d2fd46c836a06233681665,64dd36535f22f1658c5fd71c,,,,,,,sngl,resources/DG.BMP,resources/Empty.png,Door1,-0.26,-0.016666667,1,0,0,0.563,optionLeft,30,3395,2,20,0,20,0,1,,,,,,,,,,,,,,,,,,,,,,,,,,,,,,,,,,,,,,,
,,,,,,,,2023-08-16_21h49.56.740,HF_wild_card,2022.2.4,MacIntel,58.82352941,5b9f707da0e8f30001a17cba,64d2fd46c836a06233681665,64dd36535f22f1658c5fd71c,,,,,,,decisionTrl,resources/DY.BMP,resources/DB.BMP,WildCard_Ex,-0.28,-0.067777778,1,0,0,0.579,optionLeft,95,3490,2,21,0,21,0,1,,,,,,,,,,,,,,,,,,,,,,,,,,,,,,,,,,,,,,,
,,,,,,,,2023-08-16_21h49.56.740,HF_wild_card,2022.2.4,MacIntel,58.82352941,5b9f707da0e8f30001a17cba,64d2fd46c836a06233681665,64dd36535f22f1658c5fd71c,,,,,,,decisionTrl,resources/DBN.BMP,resources/DG.BMP,Door2,-0.253333333,-0.068888889,1,0,0,1.028,optionLeft,20,3510,2,22,0,22,0,1,,,,,,,,,,,,,,,,,,,,,,,,,,,,,,,,,,,,,,,
,,,,,,,,2023-08-16_21h49.56.740,HF_wild_card,2022.2.4,MacIntel,58.82352941,5b9f707da0e8f30001a17cba,64d2fd46c836a06233681665,64dd36535f22f1658c5fd71c,,,,,,,sngl,resources/Empty.png,resources/DB.BMP,Door3,0.376666667,-0.023333333,1,0,0,0.544,optionRight,70,3580,2,23,0,23,0,1,,,,,,,,,,,,,,,,,,,,,,,,,,,,,,,,,,,,,,,
,,,,,,,,2023-08-16_21h49.56.740,HF_wild_card,2022.2.4,MacIntel,58.82352941,5b9f707da0e8f30001a17cba,64d2fd46c836a06233681665,64dd36535f22f1658c5fd71c,,,,,,,decisionTrl,resources/DP.BMP,resources/DB.BMP,Door4,-0.362222222,-0.042222222,1,0,0,0.531,optionLeft,60,3640,2,24,0,24,0,1,,,,,,,,,,,,,,,,,,,,,,,,,,,,,,,,,,,,,,,
,,,,,,,,2023-08-16_21h49.56.740,HF_wild_card,2022.2.4,MacIntel,58.82352941,5b9f707da0e8f30001a17cba,64d2fd46c836a06233681665,64dd36535f22f1658c5fd71c,,,,,,,decisionTrl,resources/DP.BMP,resources/DB.BMP,Door4,-0.321111111,-0.04,1,0,0,0.762,optionLeft,60,3700,2,25,0,25,0,1,,,,,,,,,,,,,,,,,,,,,,,,,,,,,,,,,,,,,,,
,,,,,,,,2023-08-16_21h49.56.740,HF_wild_card,2022.2.4,MacIntel,58.82352941,5b9f707da0e8f30001a17cba,64d2fd46c836a06233681665,64dd36535f22f1658c5fd71c,,,,,,,decisionTrl,resources/DB.BMP,resources/DY.BMP,Door3,-0.248888889,-0.08,1,0,0,0.729,optionLeft,70,3770,2,26,0,26,0,1,,,,,,,,,,,,,,,,,,,,,,,,,,,,,,,,,,,,,,,
,,,,,,,,2023-08-16_21h49.56.740,HF_wild_card,2022.2.4,MacIntel,58.82352941,5b9f707da0e8f30001a17cba,64d2fd46c836a06233681665,64dd36535f22f1658c5fd71c,,,,,,,ctch,resources/DG.BMP,resources/DP.BMP,Door4,0.29,-0.014444444,1,0,0,0.696,optionRight,60,3830,2,27,0,27,0,1,,,,,,,,,,,,,,,,,,,,,,,,,,,,,,,,,,,,,,,
,,,,,,,,2023-08-16_21h49.56.740,HF_wild_card,2022.2.4,MacIntel,58.82352941,5b9f707da0e8f30001a17cba,64d2fd46c836a06233681665,64dd36535f22f1658c5fd71c,,,,,,,decisionTrl,resources/DB.BMP,resources/DP.BMP,Door3,-0.385555556,-0.008888889,1,0,0,0.529,optionLeft,70,3900,2,28,0,28,0,1,,,,,,,,,,,,,,,,,,,,,,,,,,,,,,,,,,,,,,,
,,,,,,,,2023-08-16_21h49.56.740,HF_wild_card,2022.2.4,MacIntel,58.82352941,5b9f707da0e8f30001a17cba,64d2fd46c836a06233681665,64dd36535f22f1658c5fd71c,,,,,,,decisionTrl,resources/DG.BMP,resources/DBN.BMP,Door1,-0.235555556,-0.072222222,1,0,0,1.097,optionLeft,30,3930,2,29,0,29,0,1,,,,,,,,,,,,,,,,,,,,,,,,,,,,,,,,,,,,,,,
,,,,,,,,2023-08-16_21h49.56.740,HF_wild_card,2022.2.4,MacIntel,58.82352941,5b9f707da0e8f30001a17cba,64d2fd46c836a06233681665,64dd36535f22f1658c5fd71c,,,,,,,decisionTrl,resources/DP.BMP,resources/DB.BMP,Door4,-0.212222222,-0.072222222,1,0,0,0.613,optionLeft,80,4010,2,30,0,30,0,1,,,,,,,,,,,,,,,,,,,,,,,,,,,,,,,,,,,,,,,
,,,,,,,,2023-08-16_21h49.56.740,HF_wild_card,2022.2.4,MacIntel,58.82352941,5b9f707da0e8f30001a17cba,64d2fd46c836a06233681665,64dd36535f22f1658c5fd71c,,,,,,,decisionTrl,resources/DB.BMP,resources/DP.BMP,Door4,0.317777778,0.022222222,1,0,0,0.83,optionRight,80,4090,2,31,0,31,0,1,,,,,,,,,,,,,,,,,,,,,,,,,,,,,,,,,,,,,,,
,,,,,,,,2023-08-16_21h49.56.740,HF_wild_card,2022.2.4,MacIntel,58.82352941,5b9f707da0e8f30001a17cba,64d2fd46c836a06233681665,64dd36535f22f1658c5fd71c,,,,,,,sngl,resources/DP.BMP,resources/Empty.png,Door4,-0.248888889,-0.053333333,1,0,0,0.513,optionLeft,60,4150,2,32,0,32,0,1,,,,,,,,,,,,,,,,,,,,,,,,,,,,,,,,,,,,,,,
,,,,,,,,2023-08-16_21h49.56.740,HF_wild_card,2022.2.4,MacIntel,58.82352941,5b9f707da0e8f30001a17cba,64d2fd46c836a06233681665,64dd36535f22f1658c5fd71c,,,,,,,ctch,resources/DP.BMP,resources/DG.BMP,Door4,-0.322222222,-0.058888889,1,0,0,0.613,optionLeft,80,4230,2,33,0,33,0,1,,,,,,,,,,,,,,,,,,,,,,,,,,,,,,,,,,,,,,,
,,,,,,,,2023-08-16_21h49.56.740,HF_wild_card,2022.2.4,MacIntel,58.82352941,5b9f707da0e8f30001a17cba,64d2fd46c836a06233681665,64dd36535f22f1658c5fd71c,,,,,,,sngl,resources/Empty.png,resources/DY.BMP,WildCard_Ex,0.402222222,-0.052222222,1,0,0,0.631,optionRight,95,4325,2,34,0,34,0,1,,,,,,,,,,,,,,,,,,,,,,,,,,,,,,,,,,,,,,,
,,,,,,,,2023-08-16_21h49.56.740,HF_wild_card,2022.2.4,MacIntel,58.82352941,5b9f707da0e8f30001a17cba,64d2fd46c836a06233681665,64dd36535f22f1658c5fd71c,,,,,,,sngl,resources/Empty.png,resources/DY.BMP,WildCard_Ex,0.381111111,-0.03,1,0,0,0.547,optionRight,5,4330,2,35,0,35,0,1,,,,,,,,,,,,,,,,,,,,,,,,,,,,,,,,,,,,,,,
,,,,,,,,2023-08-16_21h49.56.740,HF_wild_card,2022.2.4,MacIntel,58.82352941,5b9f707da0e8f30001a17cba,64d2fd46c836a06233681665,64dd36535f22f1658c5fd71c,,,,,,,sngl,resources/DBN.BMP,resources/Empty.png,Door2,-0.338888889,-0.066666667,1,0,0,0.497,optionLeft,20,4350,2,36,0,36,0,1,,,,,,,,,,,,,,,,,,,,,,,,,,,,,,,,,,,,,,,
,,,,,,,,2023-08-16_21h49.56.740,HF_wild_card,2022.2.4,MacIntel,58.82352941,5b9f707da0e8f30001a17cba,64d2fd46c836a06233681665,64dd36535f22f1658c5fd71c,,,,,,,ctch,resources/DB.BMP,resources/DBN.BMP,Door3,-0.288888889,-0.11,1,0,0,0.681,optionLeft,70,4420,2,37,0,37,0,1,,,,,,,,,,,,,,,,,,,,,,,,,,,,,,,,,,,,,,,
,,,,,,,,2023-08-16_21h49.56.740,HF_wild_card,2022.2.4,MacIntel,58.82352941,5b9f707da0e8f30001a17cba,64d2fd46c836a06233681665,64dd36535f22f1658c5fd71c,,,,,,,ctch,resources/DG.BMP,resources/DP.BMP,Door1,-0.228888889,-0.072222222,1,0,0,0.662,optionLeft,30,4450,2,38,0,38,0,1,,,,,,,,,,,,,,,,,,,,,,,,,,,,,,,,,,,,,,,
,,,,,,,,2023-08-16_21h49.56.740,HF_wild_card,2022.2.4,MacIntel,58.82352941,5b9f707da0e8f30001a17cba,64d2fd46c836a06233681665,64dd36535f22f1658c5fd71c,,,,,,,ctch,resources/DP.BMP,resources/DG.BMP,Door4,-0.267777778,-0.081111111,1,0,0,0.63,optionLeft,60,4510,2,39,0,39,0,1,,,,,,,,,,,,,,,,,,,,,,,,,,,,,,,,,,,,,,,
,,,,,,,,2023-08-16_21h49.56.740,HF_wild_card,2022.2.4,MacIntel,58.82352941,5b9f707da0e8f30001a17cba,64d2fd46c836a06233681665,64dd36535f22f1658c5fd71c,,,,,,,decisionTrl,resources/DG.BMP,resources/DBN.BMP,Door2,0.47,0.013333333,1,0,0,1.613,optionRight,40,4550,2,40,0,40,0,1,,,,,,,,,,,,,,,,,,,,,,,,,,,,,,,,,,,,,,,
,,,,,,,,2023-08-16_21h49.56.740,HF_wild_card,2022.2.4,MacIntel,58.82352941,5b9f707da0e8f30001a17cba,64d2fd46c836a06233681665,64dd36535f22f1658c5fd71c,,,,,,,sngl,resources/Empty.png,resources/DG.BMP,Door1,0.443333333,-0.003333333,1,0,0,0.545,optionRight,30,4580,2,41,0,41,0,1,,,,,,,,,,,,,,,,,,,,,,,,,,,,,,,,,,,,,,,
,,,,,,,,2023-08-16_21h49.56.740,HF_wild_card,2022.2.4,MacIntel,58.82352941,5b9f707da0e8f30001a17cba,64d2fd46c836a06233681665,64dd36535f22f1658c5fd71c,,,,,,,ctch,resources/DB.BMP,resources/DBN.BMP,Door3,-0.313333333,-0.07,1,0,0,0.646,optionLeft,70,4650,2,42,0,42,0,1,,,,,,,,,,,,,,,,,,,,,,,,,,,,,,,,,,,,,,,
,,,,,,,,2023-08-16_21h49.56.740,HF_wild_card,2022.2.4,MacIntel,58.82352941,5b9f707da0e8f30001a17cba,64d2fd46c836a06233681665,64dd36535f22f1658c5fd71c,,,,,,,decisionTrl,resources/DB.BMP,resources/DP.BMP,Door4,0.342222222,-0.006666667,1,0,0,0.731,optionRight,60,4710,2,43,0,43,0,1,,,,,,,,,,,,,,,,,,,,,,,,,,,,,,,,,,,,,,,
,,,,,,,,2023-08-16_21h49.56.740,HF_wild_card,2022.2.4,MacIntel,58.82352941,5b9f707da0e8f30001a17cba,64d2fd46c836a06233681665,64dd36535f22f1658c5fd71c,,,,,,,,,,,,,,,,,,,,,,,,,,1,0,1,0,1,,,,,,,,,,,,,,,,,,,,,,,,,,,,,,,,,,
,,,,,,,,2023-08-16_21h49.56.740,HF_wild_card,2022.2.4,MacIntel,58.82352941,5b9f707da0e8f30001a17cba,64d2fd46c836a06233681665,64dd36535f22f1658c5fd71c,,,,,,,decisionTrl,resources/DBN.BMP,resources/DG.BMP,Door1,0.298888889,-0.16,1,0,0,2.911,optionRight,30,4740,3,0,0,0,0,1,,,,,,,,,,,,,,,,,,,,,,,,,,,,,,,,,,,,,,,
,,,,,,,,2023-08-16_21h49.56.740,HF_wild_card,2022.2.4,MacIntel,58.82352941,5b9f707da0e8f30001a17cba,64d2fd46c836a06233681665,64dd36535f22f1658c5fd71c,,,,,,,decisionTrl,resources/DG.BMP,resources/DBN.BMP,Door1,-0.262222222,-0.077777778,1,0,0,1.164,optionLeft,30,4770,3,1,0,1,0,1,,,,,,,,,,,,,,,,,,,,,,,,,,,,,,,,,,,,,,,
,,,,,,,,2023-08-16_21h49.56.740,HF_wild_card,2022.2.4,MacIntel,58.82352941,5b9f707da0e8f30001a17cba,64d2fd46c836a06233681665,64dd36535f22f1658c5fd71c,,,,,,,decisionTrl,resources/DP.BMP,resources/DB.BMP,Door4,-0.275555556,-0.08,1,0,0,0.648,optionLeft,80,4850,3,2,0,2,0,1,,,,,,,,,,,,,,,,,,,,,,,,,,,,,,,,,,,,,,,
,,,,,,,,2023-08-16_21h49.56.740,HF_wild_card,2022.2.4,MacIntel,58.82352941,5b9f707da0e8f30001a17cba,64d2fd46c836a06233681665,64dd36535f22f1658c5fd71c,,,,,,,sngl,resources/DBN.BMP,resources/Empty.png,Door2,-0.271111111,-0.063333333,1,0,0,0.529,optionLeft,40,4890,3,3,0,3,0,1,,,,,,,,,,,,,,,,,,,,,,,,,,,,,,,,,,,,,,,
,,,,,,,,2023-08-16_21h49.56.740,HF_wild_card,2022.2.4,MacIntel,58.82352941,5b9f707da0e8f30001a17cba,64d2fd46c836a06233681665,64dd36535f22f1658c5fd71c,,,,,,,decisionTrl,resources/DB.BMP,resources/DP.BMP,Door4,0.346666667,-0.015555556,1,0,0,0.913,optionRight,60,4950,3,4,0,4,0,1,,,,,,,,,,,,,,,,,,,,,,,,,,,,,,,,,,,,,,,
,,,,,,,,2023-08-16_21h49.56.740,HF_wild_card,2022.2.4,MacIntel,58.82352941,5b9f707da0e8f30001a17cba,64d2fd46c836a06233681665,64dd36535f22f1658c5fd71c,,,,,,,ctch,resources/DBN.BMP,resources/DB.BMP,Door3,0.462222222,-0.035555556,1,0,0,1.146,optionRight,70,5020,3,5,0,5,0,1,,,,,,,,,,,,,,,,,,,,,,,,,,,,,,,,,,,,,,,
,,,,,,,,2023-08-16_21h49.56.740,HF_wild_card,2022.2.4,MacIntel,58.82352941,5b9f707da0e8f30001a17cba,64d2fd46c836a06233681665,64dd36535f22f1658c5fd71c,,,,,,,decisionTrl,resources/DY.BMP,resources/DB.BMP,WildCard_Ex,-0.213333333,0.001111111,1,0,0,0.744,optionLeft,95,5115,3,6,0,6,0,1,,,,,,,,,,,,,,,,,,,,,,,,,,,,,,,,,,,,,,,
,,,,,,,,2023-08-16_21h49.56.740,HF_wild_card,2022.2.4,MacIntel,58.82352941,5b9f707da0e8f30001a17cba,64d2fd46c836a06233681665,64dd36535f22f1658c5fd71c,,,,,,,ctch,resources/DB.BMP,resources/DBN.BMP,Door2,0.362222222,-0.023333333,1,0,0,0.73,optionRight,40,5155,3,7,0,7,0,1,,,,,,,,,,,,,,,,,,,,,,,,,,,,,,,,,,,,,,,
,,,,,,,,2023-08-16_21h49.56.740,HF_wild_card,2022.2.4,MacIntel,58.82352941,5b9f707da0e8f30001a17cba,64d2fd46c836a06233681665,64dd36535f22f1658c5fd71c,,,,,,,decisionTrl,resources/DB.BMP,resources/DP.BMP,Door4,0.415555556,-0.058888889,1,0,0,0.814,optionRight,80,5235,3,8,0,8,0,1,,,,,,,,,,,,,,,,,,,,,,,,,,,,,,,,,,,,,,,
,,,,,,,,2023-08-16_21h49.56.740,HF_wild_card,2022.2.4,MacIntel,58.82352941,5b9f707da0e8f30001a17cba,64d2fd46c836a06233681665,64dd36535f22f1658c5fd71c,,,,,,,ctch,resources/DG.BMP,resources/DP.BMP,Door4,0.41,0.002222222,1,0,0,0.748,optionRight,80,5315,3,9,0,9,0,1,,,,,,,,,,,,,,,,,,,,,,,,,,,,,,,,,,,,,,,
,,,,,,,,2023-08-16_21h49.56.740,HF_wild_card,2022.2.4,MacIntel,58.82352941,5b9f707da0e8f30001a17cba,64d2fd46c836a06233681665,64dd36535f22f1658c5fd71c,,,,,,,sngl,resources/DG.BMP,resources/Empty.png,Door1,-0.308888889,-0.068888889,1,0,0,0.546,optionLeft,30,5345,3,10,0,10,0,1,,,,,,,,,,,,,,,,,,,,,,,,,,,,,,,,,,,,,,,
,,,,,,,,2023-08-16_21h49.56.740,HF_wild_card,2022.2.4,MacIntel,58.82352941,5b9f707da0e8f30001a17cba,64d2fd46c836a06233681665,64dd36535f22f1658c5fd71c,,,,,,,decisionTrl,resources/DG.BMP,resources/DY.BMP,WildCard_Ex,0.412222222,-0.021111111,1,0,0,0.646,optionRight,95,5440,3,11,0,11,0,1,,,,,,,,,,,,,,,,,,,,,,,,,,,,,,,,,,,,,,,
,,,,,,,,2023-08-16_21h49.56.740,HF_wild_card,2022.2.4,MacIntel,58.82352941,5b9f707da0e8f30001a17cba,64d2fd46c836a06233681665,64dd36535f22f1658c5fd71c,,,,,,,decisionTrl,resources/DP.BMP,resources/DY.BMP,WildCard_Ex,0.431111111,-0.027777778,1,0,0,0.563,optionRight,5,5445,3,12,0,12,0,1,,,,,,,,,,,,,,,,,,,,,,,,,,,,,,,,,,,,,,,
,,,,,,,,2023-08-16_21h49.56.740,HF_wild_card,2022.2.4,MacIntel,58.82352941,5b9f707da0e8f30001a17cba,64d2fd46c836a06233681665,64dd36535f22f1658c5fd71c,,,,,,,sngl,resources/Empty.png,resources/DP.BMP,Door4,0.384444444,-0.018888889,1,0,0,0.629,optionRight,60,5505,3,13,0,13,0,1,,,,,,,,,,,,,,,,,,,,,,,,,,,,,,,,,,,,,,,
,,,,,,,,2023-08-16_21h49.56.740,HF_wild_card,2022.2.4,MacIntel,58.82352941,5b9f707da0e8f30001a17cba,64d2fd46c836a06233681665,64dd36535f22f1658c5fd71c,,,,,,,decisionTrl,resources/DP.BMP,resources/DB.BMP,Door4,-0.222222222,-0.036666667,1,0,0,0.796,optionLeft,60,5565,3,14,0,14,0,1,,,,,,,,,,,,,,,,,,,,,,,,,,,,,,,,,,,,,,,
,,,,,,,,2023-08-16_21h49.56.740,HF_wild_card,2022.2.4,MacIntel,58.82352941,5b9f707da0e8f30001a17cba,64d2fd46c836a06233681665,64dd36535f22f1658c5fd71c,,,,,,,decisionTrl,resources/DBN.BMP,resources/DG.BMP,Door1,0.434444444,0.012222222,1,0,0,0.863,optionRight,30,5595,3,15,0,15,0,1,,,,,,,,,,,,,,,,,,,,,,,,,,,,,,,,,,,,,,,
,,,,,,,,2023-08-16_21h49.56.740,HF_wild_card,2022.2.4,MacIntel,58.82352941,5b9f707da0e8f30001a17cba,64d2fd46c836a06233681665,64dd36535f22f1658c5fd71c,,,,,,,ctch,resources/DBN.BMP,resources/DB.BMP,Door3,0.31,0.013333333,1,0,0,1.08,optionRight,70,5665,3,16,0,16,0,1,,,,,,,,,,,,,,,,,,,,,,,,,,,,,,,,,,,,,,,
,,,,,,,,2023-08-16_21h49.56.740,HF_wild_card,2022.2.4,MacIntel,58.82352941,5b9f707da0e8f30001a17cba,64d2fd46c836a06233681665,64dd36535f22f1658c5fd71c,,,,,,,sngl,resources/DY.BMP,resources/Empty.png,WildCard_Ex,-0.298888889,-0.058888889,1,0,0,0.529,optionLeft,5,5670,3,17,0,17,0,1,,,,,,,,,,,,,,,,,,,,,,,,,,,,,,,,,,,,,,,
,,,,,,,,2023-08-16_21h49.56.740,HF_wild_card,2022.2.4,MacIntel,58.82352941,5b9f707da0e8f30001a17cba,64d2fd46c836a06233681665,64dd36535f22f1658c5fd71c,,,,,,,ctch,resources/DG.BMP,resources/DP.BMP,Door4,0.262222222,0.014444444,1,0,0,2.314,optionRight,60,5730,3,18,0,18,0,1,,,,,,,,,,,,,,,,,,,,,,,,,,,,,,,,,,,,,,,
,,,,,,,,2023-08-16_21h49.56.740,HF_wild_card,2022.2.4,MacIntel,58.82352941,5b9f707da0e8f30001a17cba,64d2fd46c836a06233681665,64dd36535f22f1658c5fd71c,,,,,,,sngl,resources/DB.BMP,resources/Empty.png,Door3,-0.328888889,-0.057777778,1,0,0,0.461,optionLeft,70,5800,3,19,0,19,0,1,,,,,,,,,,,,,,,,,,,,,,,,,,,,,,,,,,,,,,,
,,,,,,,,2023-08-16_21h49.56.740,HF_wild_card,2022.2.4,MacIntel,58.82352941,5b9f707da0e8f30001a17cba,64d2fd46c836a06233681665,64dd36535f22f1658c5fd71c,,,,,,,decisionTrl,resources/DP.BMP,resources/DB.BMP,Door4,-0.288888889,-0.018888889,1,0,0,0.679,optionLeft,60,5860,3,20,0,20,0,1,,,,,,,,,,,,,,,,,,,,,,,,,,,,,,,,,,,,,,,
,,,,,,,,2023-08-16_21h49.56.740,HF_wild_card,2022.2.4,MacIntel,58.82352941,5b9f707da0e8f30001a17cba,64d2fd46c836a06233681665,64dd36535f22f1658c5fd71c,,,,,,,decisionTrl,resources/DY.BMP,resources/DBN.BMP,WildCard_Ex,-0.318888889,-0.023333333,1,0,0,0.696,optionLeft,95,5955,3,21,0,21,0,1,,,,,,,,,,,,,,,,,,,,,,,,,,,,,,,,,,,,,,,
,,,,,,,,2023-08-16_21h49.56.740,HF_wild_card,2022.2.4,MacIntel,58.82352941,5b9f707da0e8f30001a17cba,64d2fd46c836a06233681665,64dd36535f22f1658c5fd71c,,,,,,,sngl,resources/Empty.png,resources/DG.BMP,Door1,0.503333333,0.003333333,1,0,0,0.53,optionRight,30,5985,3,22,0,22,0,1,,,,,,,,,,,,,,,,,,,,,,,,,,,,,,,,,,,,,,,
,,,,,,,,2023-08-16_21h49.56.740,HF_wild_card,2022.2.4,MacIntel,58.82352941,5b9f707da0e8f30001a17cba,64d2fd46c836a06233681665,64dd36535f22f1658c5fd71c,,,,,,,decisionTrl,resources/DB.BMP,resources/DY.BMP,WildCard_Ex,0.397777778,-0.018888889,1,0,0,0.646,optionRight,95,6080,3,23,0,23,0,1,,,,,,,,,,,,,,,,,,,,,,,,,,,,,,,,,,,,,,,
,,,,,,,,2023-08-16_21h49.56.740,HF_wild_card,2022.2.4,MacIntel,58.82352941,5b9f707da0e8f30001a17cba,64d2fd46c836a06233681665,64dd36535f22f1658c5fd71c,,,,,,,sngl,resources/Empty.png,resources/DY.BMP,WildCard_Ex,0.447777778,0.055555556,1,0,0,0.613,optionRight,95,6175,3,24,0,24,0,1,,,,,,,,,,,,,,,,,,,,,,,,,,,,,,,,,,,,,,,
,,,,,,,,2023-08-16_21h49.56.740,HF_wild_card,2022.2.4,MacIntel,58.82352941,5b9f707da0e8f30001a17cba,64d2fd46c836a06233681665,64dd36535f22f1658c5fd71c,,,,,,,decisionTrl,resources/DG.BMP,resources/DBN.BMP,Door2,0.304444444,0.003333333,1,0,0,1.113,optionRight,40,6215,3,25,0,25,0,1,,,,,,,,,,,,,,,,,,,,,,,,,,,,,,,,,,,,,,,
,,,,,,,,2023-08-16_21h49.56.740,HF_wild_card,2022.2.4,MacIntel,58.82352941,5b9f707da0e8f30001a17cba,64d2fd46c836a06233681665,64dd36535f22f1658c5fd71c,,,,,,,ctch,resources/DP.BMP,resources/DG.BMP,Door4,-0.396666667,-0.035555556,1,0,0,0.663,optionLeft,60,6275,3,26,0,26,0,1,,,,,,,,,,,,,,,,,,,,,,,,,,,,,,,,,,,,,,,
,,,,,,,,2023-08-16_21h49.56.740,HF_wild_card,2022.2.4,MacIntel,58.82352941,5b9f707da0e8f30001a17cba,64d2fd46c836a06233681665,64dd36535f22f1658c5fd71c,,,,,,,sngl,resources/DY.BMP,resources/Empty.png,WildCard_Ex,-0.287777778,-0.011111111,1,0,0,0.579,optionLeft,95,6370,3,27,0,27,0,1,,,,,,,,,,,,,,,,,,,,,,,,,,,,,,,,,,,,,,,
,,,,,,,,2023-08-16_21h49.56.740,HF_wild_card,2022.2.4,MacIntel,58.82352941,5b9f707da0e8f30001a17cba,64d2fd46c836a06233681665,64dd36535f22f1658c5fd71c,,,,,,,ctch,resources/DP.BMP,resources/DG.BMP,Door4,-0.301111111,-0.064444444,1,0,0,0.764,optionLeft,80,6450,3,28,0,28,0,1,,,,,,,,,,,,,,,,,,,,,,,,,,,,,,,,,,,,,,,
,,,,,,,,2023-08-16_21h49.56.740,HF_wild_card,2022.2.4,MacIntel,58.82352941,5b9f707da0e8f30001a17cba,64d2fd46c836a06233681665,64dd36535f22f1658c5fd71c,,,,,,,sngl,resources/Empty.png,resources/DB.BMP,Door3,0.465555556,-0.021111111,1,0,0,0.58,optionRight,70,6520,3,29,0,29,0,1,,,,,,,,,,,,,,,,,,,,,,,,,,,,,,,,,,,,,,,
,,,,,,,,2023-08-16_21h49.56.740,HF_wild_card,2022.2.4,MacIntel,58.82352941,5b9f707da0e8f30001a17cba,64d2fd46c836a06233681665,64dd36535f22f1658c5fd71c,,,,,,,decisionTrl,resources/DBN.BMP,resources/DG.BMP,Door2,-0.26,-0.126666667,1,0,0,1.047,optionLeft,40,6560,3,30,0,30,0,1,,,,,,,,,,,,,,,,,,,,,,,,,,,,,,,,,,,,,,,
,,,,,,,,2023-08-16_21h49.56.740,HF_wild_card,2022.2.4,MacIntel,58.82352941,5b9f707da0e8f30001a17cba,64d2fd46c836a06233681665,64dd36535f22f1658c5fd71c,,,,,,,decisionTrl,resources/DG.BMP,resources/DBN.BMP,Door2,0.447777778,0.051111111,1,0,0,0.662,optionRight,20,6580,3,31,0,31,0,1,,,,,,,,,,,,,,,,,,,,,,,,,,,,,,,,,,,,,,,
,,,,,,,,2023-08-16_21h49.56.740,HF_wild_card,2022.2.4,MacIntel,58.82352941,5b9f707da0e8f30001a17cba,64d2fd46c836a06233681665,64dd36535f22f1658c5fd71c,,,,,,,decisionTrl,resources/DY.BMP,resources/DG.BMP,WildCard_Ex,-0.388888889,-0.04,1,0,0,0.713,optionLeft,5,6585,3,32,0,32,0,1,,,,,,,,,,,,,,,,,,,,,,,,,,,,,,,,,,,,,,,
,,,,,,,,2023-08-16_21h49.56.740,HF_wild_card,2022.2.4,MacIntel,58.82352941,5b9f707da0e8f30001a17cba,64d2fd46c836a06233681665,64dd36535f22f1658c5fd71c,,,,,,,decisionTrl,resources/DG.BMP,resources/DBN.BMP,Door1,-0.285555556,-0.064444444,1,0,0,0.729,optionLeft,30,6615,3,33,0,33,0,1,,,,,,,,,,,,,,,,,,,,,,,,,,,,,,,,,,,,,,,
,,,,,,,,2023-08-16_21h49.56.740,HF_wild_card,2022.2.4,MacIntel,58.82352941,5b9f707da0e8f30001a17cba,64d2fd46c836a06233681665,64dd36535f22f1658c5fd71c,,,,,,,decisionTrl,resources/DBN.BMP,resources/DG.BMP,Door2,-0.312222222,-0.013333333,1,0,0,0.562,optionLeft,40,6655,3,34,0,34,0,1,,,,,,,,,,,,,,,,,,,,,,,,,,,,,,,,,,,,,,,
,,,,,,,,2023-08-16_21h49.56.740,HF_wild_card,2022.2.4,MacIntel,58.82352941,5b9f707da0e8f30001a17cba,64d2fd46c836a06233681665,64dd36535f22f1658c5fd71c,,,,,,,decisionTrl,resources/DY.BMP,resources/DP.BMP,WildCard_Ex,-0.267777778,-0.054444444,1,0,0,0.647,optionLeft,5,6660,3,35,0,35,0,1,,,,,,,,,,,,,,,,,,,,,,,,,,,,,,,,,,,,,,,
,,,,,,,,2023-08-16_21h49.56.740,HF_wild_card,2022.2.4,MacIntel,58.82352941,5b9f707da0e8f30001a17cba,64d2fd46c836a06233681665,64dd36535f22f1658c5fd71c,,,,,,,sngl,resources/DP.BMP,resources/Empty.png,Door4,-0.274444444,-0.067777778,1,0,0,0.529,optionLeft,80,6740,3,36,0,36,0,1,,,,,,,,,,,,,,,,,,,,,,,,,,,,,,,,,,,,,,,
,,,,,,,,2023-08-16_21h49.56.740,HF_wild_card,2022.2.4,MacIntel,58.82352941,5b9f707da0e8f30001a17cba,64d2fd46c836a06233681665,64dd36535f22f1658c5fd71c,,,,,,,sngl,resources/Empty.png,resources/DY.BMP,WildCard_Ex,0.53,0.017777778,1,0,0,0.53,optionRight,5,6745,3,37,0,37,0,1,,,,,,,,,,,,,,,,,,,,,,,,,,,,,,,,,,,,,,,
,,,,,,,,2023-08-16_21h49.56.740,HF_wild_card,2022.2.4,MacIntel,58.82352941,5b9f707da0e8f30001a17cba,64d2fd46c836a06233681665,64dd36535f22f1658c5fd71c,,,,,,,ctch,resources/DB.BMP,resources/DBN.BMP,Door3,-0.211111111,-0.041111111,1,0,0,0.782,optionLeft,70,6815,3,38,0,38,0,1,,,,,,,,,,,,,,,,,,,,,,,,,,,,,,,,,,,,,,,
,,,,,,,,2023-08-16_21h49.56.740,HF_wild_card,2022.2.4,MacIntel,58.82352941,5b9f707da0e8f30001a17cba,64d2fd46c836a06233681665,64dd36535f22f1658c5fd71c,,,,,,,sngl,resources/Empty.png,resources/DBN.BMP,Door2,0.354444444,0.028888889,1,0,0,0.747,optionRight,20,6835,3,39,0,39,0,1,,,,,,,,,,,,,,,,,,,,,,,,,,,,,,,,,,,,,,,
,,,,,,,,2023-08-16_21h49.56.740,HF_wild_card,2022.2.4,MacIntel,58.82352941,5b9f707da0e8f30001a17cba,64d2fd46c836a06233681665,64dd36535f22f1658c5fd71c,,,,,,,decisionTrl,resources/DB.BMP,resources/DP.BMP,Door3,-0.305555556,-0.066666667,1,0,0,0.547,optionLeft,70,6905,3,40,0,40,0,1,,,,,,,,,,,,,,,,,,,,,,,,,,,,,,,,,,,,,,,
,,,,,,,,2023-08-16_21h49.56.740,HF_wild_card,2022.2.4,MacIntel,58.82352941,5b9f707da0e8f30001a17cba,64d2fd46c836a06233681665,64dd36535f22f1658c5fd71c,,,,,,,decisionTrl,resources/DBN.BMP,resources/DY.BMP,WildCard_Ex,0.315555556,0.028888889,1,0,0,1.195,optionRight,5,6910,3,41,0,41,0,1,,,,,,,,,,,,,,,,,,,,,,,,,,,,,,,,,,,,,,,
,,,,,,,,2023-08-16_21h49.56.740,HF_wild_card,2022.2.4,MacIntel,58.82352941,5b9f707da0e8f30001a17cba,64d2fd46c836a06233681665,64dd36535f22f1658c5fd71c,,,,,,,decisionTrl,resources/DP.BMP,resources/DB.BMP,Door4,-0.27,-0.004444444,1,0,0,0.58,optionLeft,80,6990,3,42,0,42,0,1,,,,,,,,,,,,,,,,,,,,,,,,,,,,,,,,,,,,,,,
,,,,,,,,2023-08-16_21h49.56.740,HF_wild_card,2022.2.4,MacIntel,58.82352941,5b9f707da0e8f30001a17cba,64d2fd46c836a06233681665,64dd36535f22f1658c5fd71c,,,,,,,decisionTrl,resources/DB.BMP,resources/DP.BMP,Door4,0.134444444,0.026666667,1,0,0,1.097,optionRight,80,7070,3,43,0,43,0,1,,,,,,,,,,,,,,,,,,,,,,,,,,,,,,,,,,,,,,,
,,,,,,,,2023-08-16_21h49.56.740,HF_wild_card,2022.2.4,MacIntel,58.82352941,5b9f707da0e8f30001a17cba,64d2fd46c836a06233681665,64dd36535f22f1658c5fd71c,,,,,,,,,,,,,,,,,,,,,,,,,,2,0,2,0,1,,,,,,,,,,,,,,,,,,,,,,,,,,,,,,,,,,
,,,,,,,,2023-08-16_21h49.56.740,HF_wild_card,2022.2.4,MacIntel,58.82352941,5b9f707da0e8f30001a17cba,64d2fd46c836a06233681665,64dd36535f22f1658c5fd71c,,,,,,,decisionTrl,resources/DBN.BMP,resources/DG.BMP,Door2,-0.327777778,-0.117777778,1,0,0,1.392,optionLeft,20,7090,4,0,0,0,0,1,,,,,,,,,,,,,,,,,,,,,,,,,,,,,,,,,,,,,,,
,,,,,,,,2023-08-16_21h49.56.740,HF_wild_card,2022.2.4,MacIntel,58.82352941,5b9f707da0e8f30001a17cba,64d2fd46c836a06233681665,64dd36535f22f1658c5fd71c,,,,,,,decisionTrl,resources/DBN.BMP,resources/DG.BMP,Door1,0.406666667,0,1,0,0,0.779,optionRight,30,7120,4,1,0,1,0,1,,,,,,,,,,,,,,,,,,,,,,,,,,,,,,,,,,,,,,,
,,,,,,,,2023-08-16_21h49.56.740,HF_wild_card,2022.2.4,MacIntel,58.82352941,5b9f707da0e8f30001a17cba,64d2fd46c836a06233681665,64dd36535f22f1658c5fd71c,,,,,,,decisionTrl,resources/DBN.BMP,resources/DG.BMP,Door1,0.376666667,-0.102222222,1,0,0,1.013,optionRight,30,7150,4,2,0,2,0,1,,,,,,,,,,,,,,,,,,,,,,,,,,,,,,,,,,,,,,,
,,,,,,,,2023-08-16_21h49.56.740,HF_wild_card,2022.2.4,MacIntel,58.82352941,5b9f707da0e8f30001a17cba,64d2fd46c836a06233681665,64dd36535f22f1658c5fd71c,,,,,,,sngl,resources/DB.BMP,resources/Empty.png,Door3,-0.318888889,-0.005555556,1,0,0,0.529,optionLeft,70,7220,4,3,0,3,0,1,,,,,,,,,,,,,,,,,,,,,,,,,,,,,,,,,,,,,,,
,,,,,,,,2023-08-16_21h49.56.740,HF_wild_card,2022.2.4,MacIntel,58.82352941,5b9f707da0e8f30001a17cba,64d2fd46c836a06233681665,64dd36535f22f1658c5fd71c,,,,,,,sngl,resources/DR.BMP,resources/Empty.png,WildCard_NonEx,-0.305555556,-0.001111111,1,0,0,1.413,optionLeft,45,7265,4,4,0,4,0,1,,,,,,,,,,,,,,,,,,,,,,,,,,,,,,,,,,,,,,,
,,,,,,,,2023-08-16_21h49.56.740,HF_wild_card,2022.2.4,MacIntel,58.82352941,5b9f707da0e8f30001a17cba,64d2fd46c836a06233681665,64dd36535f22f1658c5fd71c,,,,,,,decisionTrl,resources/DR.BMP,resources/DG.BMP,WildCard_NonEx,-0.224444444,-0.03,1,0,0,0.929,optionLeft,55,7320,4,5,0,5,0,1,,,,,,,,,,,,,,,,,,,,,,,,,,,,,,,,,,,,,,,
,,,,,,,,2023-08-16_21h49.56.740,HF_wild_card,2022.2.4,MacIntel,58.82352941,5b9f707da0e8f30001a17cba,64d2fd46c836a06233681665,64dd36535f22f1658c5fd71c,,,,,,,ctch,resources/DB.BMP,resources/DBN.BMP,Door3,-0.238888889,0.001111111,1,0,0,0.929,optionLeft,70,7390,4,6,0,6,0,1,,,,,,,,,,,,,,,,,,,,,,,,,,,,,,,,,,,,,,,
,,,,,,,,2023-08-16_21h49.56.740,HF_wild_card,2022.2.4,MacIntel,58.82352941,5b9f707da0e8f30001a17cba,64d2fd46c836a06233681665,64dd36535f22f1658c5fd71c,,,,,,,ctch,resources/DB.BMP,resources/DBN.BMP,Door3,-0.358888889,-0.108888889,1,0,0,0.513,optionLeft,70,7460,4,7,0,7,0,1,,,,,,,,,,,,,,,,,,,,,,,,,,,,,,,,,,,,,,,
,,,,,,,,2023-08-16_21h49.56.740,HF_wild_card,2022.2.4,MacIntel,58.82352941,5b9f707da0e8f30001a17cba,64d2fd46c836a06233681665,64dd36535f22f1658c5fd71c,,,,,,,decisionTrl,resources/DBN.BMP,resources/DR.BMP,WildCard_NonEx,0.265555556,0.01,1,0,0,1.096,optionRight,55,7515,4,8,0,8,0,1,,,,,,,,,,,,,,,,,,,,,,,,,,,,,,,,,,,,,,,
,,,,,,,,2023-08-16_21h49.56.740,HF_wild_card,2022.2.4,MacIntel,58.82352941,5b9f707da0e8f30001a17cba,64d2fd46c836a06233681665,64dd36535f22f1658c5fd71c,,,,,,,sngl,resources/DP.BMP,resources/Empty.png,Door4,-0.261111111,-0.091111111,1,0,0,0.547,optionLeft,60,7575,4,9,0,9,0,1,,,,,,,,,,,,,,,,,,,,,,,,,,,,,,,,,,,,,,,
,,,,,,,,2023-08-16_21h49.56.740,HF_wild_card,2022.2.4,MacIntel,58.82352941,5b9f707da0e8f30001a17cba,64d2fd46c836a06233681665,64dd36535f22f1658c5fd71c,,,,,,,decisionTrl,resources/DB.BMP,resources/DP.BMP,Door4,0.303333333,0.006666667,1,0,0,0.68,optionRight,60,7635,4,10,0,10,0,1,,,,,,,,,,,,,,,,,,,,,,,,,,,,,,,,,,,,,,,
,,,,,,,,2023-08-16_21h49.56.740,HF_wild_card,2022.2.4,MacIntel,58.82352941,5b9f707da0e8f30001a17cba,64d2fd46c836a06233681665,64dd36535f22f1658c5fd71c,,,,,,,decisionTrl,resources/DR.BMP,resources/DBN.BMP,WildCard_NonEx,-0.245555556,-0.035555556,1,0,0,0.713,optionLeft,55,7690,4,11,0,11,0,1,,,,,,,,,,,,,,,,,,,,,,,,,,,,,,,,,,,,,,,
,,,,,,,,2023-08-16_21h49.56.740,HF_wild_card,2022.2.4,MacIntel,58.82352941,5b9f707da0e8f30001a17cba,64d2fd46c836a06233681665,64dd36535f22f1658c5fd71c,,,,,,,decisionTrl,resources/DB.BMP,resources/DP.BMP,Door3,-0.224444444,-0.03,1,0,0,0.648,optionLeft,70,7760,4,12,0,12,0,1,,,,,,,,,,,,,,,,,,,,,,,,,,,,,,,,,,,,,,,
,,,,,,,,2023-08-16_21h49.56.740,HF_wild_card,2022.2.4,MacIntel,58.82352941,5b9f707da0e8f30001a17cba,64d2fd46c836a06233681665,64dd36535f22f1658c5fd71c,,,,,,,decisionTrl,resources/DG.BMP,resources/DR.BMP,WildCard_NonEx,0.268888889,0.011111111,1,0,0,0.948,optionRight,45,7805,4,13,0,13,0,1,,,,,,,,,,,,,,,,,,,,,,,,,,,,,,,,,,,,,,,
,,,,,,,,2023-08-16_21h49.56.740,HF_wild_card,2022.2.4,MacIntel,58.82352941,5b9f707da0e8f30001a17cba,64d2fd46c836a06233681665,64dd36535f22f1658c5fd71c,,,,,,,sngl,resources/DG.BMP,resources/Empty.png,Door1,-0.287777778,0.014444444,1,0,0,0.497,optionLeft,30,7835,4,14,0,14,0,1,,,,,,,,,,,,,,,,,,,,,,,,,,,,,,,,,,,,,,,
,,,,,,,,2023-08-16_21h49.56.740,HF_wild_card,2022.2.4,MacIntel,58.82352941,5b9f707da0e8f30001a17cba,64d2fd46c836a06233681665,64dd36535f22f1658c5fd71c,,,,,,,ctch,resources/DP.BMP,resources/DG.BMP,Door4,-0.228888889,-0.05,1,0,0,0.779,optionLeft,80,7915,4,15,0,15,0,1,,,,,,,,,,,,,,,,,,,,,,,,,,,,,,,,,,,,,,,
,,,,,,,,2023-08-16_21h49.56.740,HF_wild_card,2022.2.4,MacIntel,58.82352941,5b9f707da0e8f30001a17cba,64d2fd46c836a06233681665,64dd36535f22f1658c5fd71c,,,,,,,sngl,resources/Empty.png,resources/DR.BMP,WildCard_NonEx,0.456666667,0.012222222,1,0,0,0.611,optionRight,55,7970,4,16,0,16,0,1,,,,,,,,,,,,,,,,,,,,,,,,,,,,,,,,,,,,,,,
,,,,,,,,2023-08-16_21h49.56.740,HF_wild_card,2022.2.4,MacIntel,58.82352941,5b9f707da0e8f30001a17cba,64d2fd46c836a06233681665,64dd36535f22f1658c5fd71c,,,,,,,decisionTrl,resources/DG.BMP,resources/DBN.BMP,Door1,-0.266666667,-0.026666667,1,0,0,1.079,optionLeft,30,8000,4,17,0,17,0,1,,,,,,,,,,,,,,,,,,,,,,,,,,,,,,,,,,,,,,,
,,,,,,,,2023-08-16_21h49.56.740,HF_wild_card,2022.2.4,MacIntel,58.82352941,5b9f707da0e8f30001a17cba,64d2fd46c836a06233681665,64dd36535f22f1658c5fd71c,,,,,,,sngl,resources/Empty.png,resources/DP.BMP,Door4,0.48,-0.021111111,1,0,0,0.513,optionRight,80,8080,4,18,0,18,0,1,,,,,,,,,,,,,,,,,,,,,,,,,,,,,,,,,,,,,,,
,,,,,,,,2023-08-16_21h49.56.740,HF_wild_card,2022.2.4,MacIntel,58.82352941,5b9f707da0e8f30001a17cba,64d2fd46c836a06233681665,64dd36535f22f1658c5fd71c,,,,,,,decisionTrl,resources/DP.BMP,resources/DB.BMP,Door4,-0.316666667,-0.052222222,1,0,0,0.63,optionLeft,60,8140,4,19,0,19,0,1,,,,,,,,,,,,,,,,,,,,,,,,,,,,,,,,,,,,,,,
,,,,,,,,2023-08-16_21h49.56.740,HF_wild_card,2022.2.4,MacIntel,58.82352941,5b9f707da0e8f30001a17cba,64d2fd46c836a06233681665,64dd36535f22f1658c5fd71c,,,,,,,decisionTrl,resources/DP.BMP,resources/DB.BMP,Door4,-0.254444444,-0.047777778,1,0,0,0.713,optionLeft,80,8220,4,20,0,20,0,1,,,,,,,,,,,,,,,,,,,,,,,,,,,,,,,,,,,,,,,
,,,,,,,,2023-08-16_21h49.56.740,HF_wild_card,2022.2.4,MacIntel,58.82352941,5b9f707da0e8f30001a17cba,64d2fd46c836a06233681665,64dd36535f22f1658c5fd71c,,,,,,,decisionTrl,resources/DBN.BMP,resources/DG.BMP,Door1,0.316666667,0.026666667,1,0,0,1.514,optionRight,30,8250,4,21,0,21,0,1,,,,,,,,,,,,,,,,,,,,,,,,,,,,,,,,,,,,,,,
,,,,,,,,2023-08-16_21h49.56.740,HF_wild_card,2022.2.4,MacIntel,58.82352941,5b9f707da0e8f30001a17cba,64d2fd46c836a06233681665,64dd36535f22f1658c5fd71c,,,,,,,decisionTrl,resources/DR.BMP,resources/DP.BMP,Door4,0.41,0.046666667,1,0,0,1.081,optionRight,80,8330,4,22,0,22,0,1,,,,,,,,,,,,,,,,,,,,,,,,,,,,,,,,,,,,,,,
,,,,,,,,2023-08-16_21h49.56.740,HF_wild_card,2022.2.4,MacIntel,58.82352941,5b9f707da0e8f30001a17cba,64d2fd46c836a06233681665,64dd36535f22f1658c5fd71c,,,,,,,decisionTrl,resources/DB.BMP,resources/DR.BMP,Door3,-0.246666667,-0.048888889,1,0,0,0.847,optionLeft,70,8400,4,23,0,23,0,1,,,,,,,,,,,,,,,,,,,,,,,,,,,,,,,,,,,,,,,
,,,,,,,,2023-08-16_21h49.56.740,HF_wild_card,2022.2.4,MacIntel,58.82352941,5b9f707da0e8f30001a17cba,64d2fd46c836a06233681665,64dd36535f22f1658c5fd71c,,,,,,,decisionTrl,resources/DP.BMP,resources/DR.BMP,Door4,-0.282222222,-0.04,1,0,0,0.931,optionLeft,60,8460,4,24,0,24,0,1,,,,,,,,,,,,,,,,,,,,,,,,,,,,,,,,,,,,,,,
,,,,,,,,2023-08-16_21h49.56.740,HF_wild_card,2022.2.4,MacIntel,58.82352941,5b9f707da0e8f30001a17cba,64d2fd46c836a06233681665,64dd36535f22f1658c5fd71c,,,,,,,decisionTrl,resources/DG.BMP,resources/DBN.BMP,Door1,-0.323333333,-0.053333333,1,0,0,1.312,optionLeft,30,8490,4,25,0,25,0,1,,,,,,,,,,,,,,,,,,,,,,,,,,,,,,,,,,,,,,,
,,,,,,,,2023-08-16_21h49.56.740,HF_wild_card,2022.2.4,MacIntel,58.82352941,5b9f707da0e8f30001a17cba,64d2fd46c836a06233681665,64dd36535f22f1658c5fd71c,,,,,,,ctch,resources/DG.BMP,resources/DP.BMP,Door4,0.465555556,-0.018888889,1,0,0,0.947,optionRight,80,8570,4,26,0,26,0,1,,,,,,,,,,,,,,,,,,,,,,,,,,,,,,,,,,,,,,,
,,,,,,,,2023-08-16_21h49.56.740,HF_wild_card,2022.2.4,MacIntel,58.82352941,5b9f707da0e8f30001a17cba,64d2fd46c836a06233681665,64dd36535f22f1658c5fd71c,,,,,,,decisionTrl,resources/DP.BMP,resources/DB.BMP,Door4,-0.401111111,-0.146666667,1,0,0,0.631,optionLeft,80,8650,4,27,0,27,0,1,,,,,,,,,,,,,,,,,,,,,,,,,,,,,,,,,,,,,,,
,,,,,,,,2023-08-16_21h49.56.740,HF_wild_card,2022.2.4,MacIntel,58.82352941,5b9f707da0e8f30001a17cba,64d2fd46c836a06233681665,64dd36535f22f1658c5fd71c,,,,,,,sngl,resources/DBN.BMP,resources/Empty.png,Door2,-0.272222222,-0.037777778,1,0,0,0.546,optionLeft,20,8670,4,28,0,28,0,1,,,,,,,,,,,,,,,,,,,,,,,,,,,,,,,,,,,,,,,
,,,,,,,,2023-08-16_21h49.56.740,HF_wild_card,2022.2.4,MacIntel,58.82352941,5b9f707da0e8f30001a17cba,64d2fd46c836a06233681665,64dd36535f22f1658c5fd71c,,,,,,,ctch,resources/DP.BMP,resources/DG.BMP,Door4,-0.396666667,-0.074444444,1,0,0,0.847,optionLeft,60,8730,4,29,0,29,0,1,,,,,,,,,,,,,,,,,,,,,,,,,,,,,,,,,,,,,,,
,,,,,,,,2023-08-16_21h49.56.740,HF_wild_card,2022.2.4,MacIntel,58.82352941,5b9f707da0e8f30001a17cba,64d2fd46c836a06233681665,64dd36535f22f1658c5fd71c,,,,,,,ctch,resources/DBN.BMP,resources/DB.BMP,Door3,0.582222222,0.002222222,1,0,0,2.163,optionRight,70,8800,4,30,0,30,0,1,,,,,,,,,,,,,,,,,,,,,,,,,,,,,,,,,,,,,,,
,,,,,,,,2023-08-16_21h49.56.740,HF_wild_card,2022.2.4,MacIntel,58.82352941,5b9f707da0e8f30001a17cba,64d2fd46c836a06233681665,64dd36535f22f1658c5fd71c,,,,,,,decisionTrl,resources/DG.BMP,resources/DBN.BMP,Door1,-0.214444444,-0.06,1,0,0,1.329,optionLeft,30,8830,4,31,0,31,0,1,,,,,,,,,,,,,,,,,,,,,,,,,,,,,,,,,,,,,,,
,,,,,,,,2023-08-16_21h49.56.740,HF_wild_card,2022.2.4,MacIntel,58.82352941,5b9f707da0e8f30001a17cba,64d2fd46c836a06233681665,64dd36535f22f1658c5fd71c,,,,,,,decisionTrl,resources/DB.BMP,resources/DP.BMP,Door4,0.395555556,0.005555556,1,0,0,0.729,optionRight,60,8890,4,32,0,32,0,1,,,,,,,,,,,,,,,,,,,,,,,,,,,,,,,,,,,,,,,
,,,,,,,,2023-08-16_21h49.56.740,HF_wild_card,2022.2.4,MacIntel,58.82352941,5b9f707da0e8f30001a17cba,64d2fd46c836a06233681665,64dd36535f22f1658c5fd71c,,,,,,,sngl,resources/Empty.png,resources/DG.BMP,Door1,0.32,0.011111111,1,0,0,0.564,optionRight,30,8920,4,33,0,33,0,1,,,,,,,,,,,,,,,,,,,,,,,,,,,,,,,,,,,,,,,
,,,,,,,,2023-08-16_21h49.56.740,HF_wild_card,2022.2.4,MacIntel,58.82352941,5b9f707da0e8f30001a17cba,64d2fd46c836a06233681665,64dd36535f22f1658c5fd71c,,,,,,,sngl,resources/Empty.png,resources/DBN.BMP,Door2,0.312222222,0.012222222,1,0,0,0.563,optionRight,40,8960,4,34,0,34,0,1,,,,,,,,,,,,,,,,,,,,,,,,,,,,,,,,,,,,,,,
,,,,,,,,2023-08-16_21h49.56.740,HF_wild_card,2022.2.4,MacIntel,58.82352941,5b9f707da0e8f30001a17cba,64d2fd46c836a06233681665,64dd36535f22f1658c5fd71c,,,,,,,decisionTrl,resources/DP.BMP,resources/DB.BMP,Door4,-0.198888889,-0.088888889,1,0,0,0.731,optionLeft,60,9020,4,35,0,35,0,1,,,,,,,,,,,,,,,,,,,,,,,,,,,,,,,,,,,,,,,
,,,,,,,,2023-08-16_21h49.56.740,HF_wild_card,2022.2.4,MacIntel,58.82352941,5b9f707da0e8f30001a17cba,64d2fd46c836a06233681665,64dd36535f22f1658c5fd71c,,,,,,,ctch,resources/DBN.BMP,resources/DB.BMP,Door3,0.228888889,-0.005555556,1,0,0,1.012,optionRight,70,9090,4,36,0,36,0,1,,,,,,,,,,,,,,,,,,,,,,,,,,,,,,,,,,,,,,,
,,,,,,,,2023-08-16_21h49.56.740,HF_wild_card,2022.2.4,MacIntel,58.82352941,5b9f707da0e8f30001a17cba,64d2fd46c836a06233681665,64dd36535f22f1658c5fd71c,,,,,,,sngl,resources/DR.BMP,resources/Empty.png,WildCard_NonEx,-0.28,0.017777778,1,0,0,0.531,optionLeft,55,9145,4,37,0,37,0,1,,,,,,,,,,,,,,,,,,,,,,,,,,,,,,,,,,,,,,,
,,,,,,,,2023-08-16_21h49.56.740,HF_wild_card,2022.2.4,MacIntel,58.82352941,5b9f707da0e8f30001a17cba,64d2fd46c836a06233681665,64dd36535f22f1658c5fd71c,,,,,,,ctch,resources/DG.BMP,resources/DP.BMP,Door4,0.207777778,-0.026666667,1,0,0,0.596,optionRight,80,9225,4,38,0,38,0,1,,,,,,,,,,,,,,,,,,,,,,,,,,,,,,,,,,,,,,,
,,,,,,,,2023-08-16_21h49.56.740,HF_wild_card,2022.2.4,MacIntel,58.82352941,5b9f707da0e8f30001a17cba,64d2fd46c836a06233681665,64dd36535f22f1658c5fd71c,,,,,,,decisionTrl,resources/DG.BMP,resources/DBN.BMP,Door1,-0.376666667,-0.001111111,1,0,0,2.013,optionLeft,30,9255,4,39,0,39,0,1,,,,,,,,,,,,,,,,,,,,,,,,,,,,,,,,,,,,,,,
,,,,,,,,2023-08-16_21h49.56.740,HF_wild_card,2022.2.4,MacIntel,58.82352941,5b9f707da0e8f30001a17cba,64d2fd46c836a06233681665,64dd36535f22f1658c5fd71c,,,,,,,decisionTrl,resources/DB.BMP,resources/DP.BMP,Door4,0.295555556,-0.012222222,1,0,0,0.746,optionRight,60,9315,4,40,0,40,0,1,,,,,,,,,,,,,,,,,,,,,,,,,,,,,,,,,,,,,,,
,,,,,,,,2023-08-16_21h49.56.740,HF_wild_card,2022.2.4,MacIntel,58.82352941,5b9f707da0e8f30001a17cba,64d2fd46c836a06233681665,64dd36535f22f1658c5fd71c,,,,,,,sngl,resources/Empty.png,resources/DR.BMP,WildCard_NonEx,0.325555556,0.001111111,1,0,0,0.597,optionRight,45,9360,4,41,0,41,0,1,,,,,,,,,,,,,,,,,,,,,,,,,,,,,,,,,,,,,,,
,,,,,,,,2023-08-16_21h49.56.740,HF_wild_card,2022.2.4,MacIntel,58.82352941,5b9f707da0e8f30001a17cba,64d2fd46c836a06233681665,64dd36535f22f1658c5fd71c,,,,,,,decisionTrl,resources/DR.BMP,resources/DB.BMP,Door3,0.344444444,0.013333333,1,0,0,0.979,optionRight,70,9430,4,42,0,42,0,1,,,,,,,,,,,,,,,,,,,,,,,,,,,,,,,,,,,,,,,
,,,,,,,,2023-08-16_21h49.56.740,HF_wild_card,2022.2.4,MacIntel,58.82352941,5b9f707da0e8f30001a17cba,64d2fd46c836a06233681665,64dd36535f22f1658c5fd71c,,,,,,,sngl,resources/Empty.png,resources/DB.BMP,Door3,0.462222222,0.03,1,0,0,0.581,optionRight,70,9500,4,43,0,43,0,1,,,,,,,,,,,,,,,,,,,,,,,,,,,,,,,,,,,,,,,
,,,,,,,,2023-08-16_21h49.56.740,HF_wild_card,2022.2.4,MacIntel,58.82352941,5b9f707da0e8f30001a17cba,64d2fd46c836a06233681665,64dd36535f22f1658c5fd71c,,,,,,,,,,,,,,,,,,,,,,,,,,3,0,3,0,1,,,,,,,,,,,,,,,,,,,,,,,,,,,,,,,,,,
,,,,,,,,2023-08-16_21h49.56.740,HF_wild_card,2022.2.4,MacIntel,58.82352941,5b9f707da0e8f30001a17cba,64d2fd46c836a06233681665,64dd36535f22f1658c5fd71c,,,,,,,sngl,resources/DP.BMP,resources/Empty.png,Door4,-0.224444444,-0.226666667,1,0,0,1.143,optionLeft,80,9580,5,0,0,0,0,1,,,,,,,,,,,,,,,,,,,,,,,,,,,,,,,,,,,,,,,
,,,,,,,,2023-08-16_21h49.56.740,HF_wild_card,2022.2.4,MacIntel,58.82352941,5b9f707da0e8f30001a17cba,64d2fd46c836a06233681665,64dd36535f22f1658c5fd71c,,,,,,,ctch,resources/DB.BMP,resources/DBN.BMP,Door3,-0.266666667,-0.066666667,1,0,0,0.812,optionLeft,70,9650,5,1,0,1,0,1,,,,,,,,,,,,,,,,,,,,,,,,,,,,,,,,,,,,,,,
,,,,,,,,2023-08-16_21h49.56.740,HF_wild_card,2022.2.4,MacIntel,58.82352941,5b9f707da0e8f30001a17cba,64d2fd46c836a06233681665,64dd36535f22f1658c5fd71c,,,,,,,decisionTrl,resources/DBN.BMP,resources/DR.BMP,WildCard_NonEx,0.258888889,0.063333333,1,0,0,1.179,optionRight,55,9705,5,2,0,2,0,1,,,,,,,,,,,,,,,,,,,,,,,,,,,,,,,,,,,,,,,
,,,,,,,,2023-08-16_21h49.56.740,HF_wild_card,2022.2.4,MacIntel,58.82352941,5b9f707da0e8f30001a17cba,64d2fd46c836a06233681665,64dd36535f22f1658c5fd71c,,,,,,,decisionTrl,resources/DR.BMP,resources/DP.BMP,WildCard_NonEx,-0.344444444,-0.094444444,1,0,0,0.647,optionLeft,45,9750,5,3,0,3,0,1,,,,,,,,,,,,,,,,,,,,,,,,,,,,,,,,,,,,,,,
,,,,,,,,2023-08-16_21h49.56.740,HF_wild_card,2022.2.4,MacIntel,58.82352941,5b9f707da0e8f30001a17cba,64d2fd46c836a06233681665,64dd36535f22f1658c5fd71c,,,,,,,ctch,resources/DG.BMP,resources/DP.BMP,Door4,0.373333333,-0.012222222,1,0,0,0.614,optionRight,80,9830,5,4,0,4,0,1,,,,,,,,,,,,,,,,,,,,,,,,,,,,,,,,,,,,,,,
,,,,,,,,2023-08-16_21h49.56.740,HF_wild_card,2022.2.4,MacIntel,58.82352941,5b9f707da0e8f30001a17cba,64d2fd46c836a06233681665,64dd36535f22f1658c5fd71c,,,,,,,ctch,resources/DP.BMP,resources/DG.BMP,Door4,-0.216666667,0.02,1,0,0,0.563,optionLeft,60,9890,5,5,0,5,0,1,,,,,,,,,,,,,,,,,,,,,,,,,,,,,,,,,,,,,,,
,,,,,,,,2023-08-16_21h49.56.740,HF_wild_card,2022.2.4,MacIntel,58.82352941,5b9f707da0e8f30001a17cba,64d2fd46c836a06233681665,64dd36535f22f1658c5fd71c,,,,,,,sngl,resources/Empty.png,resources/DG.BMP,Door1,0.324444444,0.071111111,1,0,0,0.598,optionRight,30,9920,5,6,0,6,0,1,,,,,,,,,,,,,,,,,,,,,,,,,,,,,,,,,,,,,,,
,,,,,,,,2023-08-16_21h49.56.740,HF_wild_card,2022.2.4,MacIntel,58.82352941,5b9f707da0e8f30001a17cba,64d2fd46c836a06233681665,64dd36535f22f1658c5fd71c,,,,,,,ctch,resources/DBN.BMP,resources/DB.BMP,Door3,0.411111111,0.081111111,1,0,0,0.896,optionRight,70,9990,5,7,0,7,0,1,,,,,,,,,,,,,,,,,,,,,,,,,,,,,,,,,,,,,,,
,,,,,,,,2023-08-16_21h49.56.740,HF_wild_card,2022.2.4,MacIntel,58.82352941,5b9f707da0e8f30001a17cba,64d2fd46c836a06233681665,64dd36535f22f1658c5fd71c,,,,,,,decisionTrl,resources/DG.BMP,resources/DBN.BMP,Door1,-0.255555556,-0.052222222,1,0,0,1.03,optionLeft,30,10020,5,8,0,8,0,1,,,,,,,,,,,,,,,,,,,,,,,,,,,,,,,,,,,,,,,
,,,,,,,,2023-08-16_21h49.56.740,HF_wild_card,2022.2.4,MacIntel,58.82352941,5b9f707da0e8f30001a17cba,64d2fd46c836a06233681665,64dd36535f22f1658c5fd71c,,,,,,,decisionTrl,resources/DB.BMP,resources/DR.BMP,Door3,-0.22,-0.03,1,0,0,0.847,optionLeft,70,10090,5,9,0,9,0,1,,,,,,,,,,,,,,,,,,,,,,,,,,,,,,,,,,,,,,,
,,,,,,,,2023-08-16_21h49.56.740,HF_wild_card,2022.2.4,MacIntel,58.82352941,5b9f707da0e8f30001a17cba,64d2fd46c836a06233681665,64dd36535f22f1658c5fd71c,,,,,,,sngl,resources/DBN.BMP,resources/Empty.png,Door2,-0.163333333,-0.021111111,1,0,0,1.264,optionLeft,40,10130,5,10,0,10,0,1,,,,,,,,,,,,,,,,,,,,,,,,,,,,,,,,,,,,,,,
,,,,,,,,2023-08-16_21h49.56.740,HF_wild_card,2022.2.4,MacIntel,58.82352941,5b9f707da0e8f30001a17cba,64d2fd46c836a06233681665,64dd36535f22f1658c5fd71c,,,,,,,decisionTrl,resources/DP.BMP,resources/DB.BMP,Door4,-0.445555556,-0.091111111,1,0,0,1.029,optionLeft,60,10190,5,11,0,11,0,1,,,,,,,,,,,,,,,,,,,,,,,,,,,,,,,,,,,,,,,
,,,,,,,,2023-08-16_21h49.56.740,HF_wild_card,2022.2.4,MacIntel,58.82352941,5b9f707da0e8f30001a17cba,64d2fd46c836a06233681665,64dd36535f22f1658c5fd71c,,,,,,,decisionTrl,resources/DBN.BMP,resources/DG.BMP,Door2,-0.353333333,-0.064444444,1,0,0,0.979,optionLeft,40,10230,5,12,0,12,0,1,,,,,,,,,,,,,,,,,,,,,,,,,,,,,,,,,,,,,,,
,,,,,,,,2023-08-16_21h49.56.740,HF_wild_card,2022.2.4,MacIntel,58.82352941,5b9f707da0e8f30001a17cba,64d2fd46c836a06233681665,64dd36535f22f1658c5fd71c,,,,,,,decisionTrl,resources/DG.BMP,resources/DBN.BMP,Door1,-0.282222222,-0.038888889,1,0,0,0.764,optionLeft,30,10260,5,13,0,13,0,1,,,,,,,,,,,,,,,,,,,,,,,,,,,,,,,,,,,,,,,
,,,,,,,,2023-08-16_21h49.56.740,HF_wild_card,2022.2.4,MacIntel,58.82352941,5b9f707da0e8f30001a17cba,64d2fd46c836a06233681665,64dd36535f22f1658c5fd71c,,,,,,,decisionTrl,resources/DG.BMP,resources/DBN.BMP,Door1,-0.273333333,-0.056666667,1,0,0,0.647,optionLeft,30,10290,5,14,0,14,0,1,,,,,,,,,,,,,,,,,,,,,,,,,,,,,,,,,,,,,,,
,,,,,,,,2023-08-16_21h49.56.740,HF_wild_card,2022.2.4,MacIntel,58.82352941,5b9f707da0e8f30001a17cba,64d2fd46c836a06233681665,64dd36535f22f1658c5fd71c,,,,,,,decisionTrl,resources/DR.BMP,resources/DB.BMP,Door3,0.342222222,0.032222222,1,0,0,0.779,optionRight,70,10360,5,15,0,15,0,1,,,,,,,,,,,,,,,,,,,,,,,,,,,,,,,,,,,,,,,
,,,,,,,,2023-08-16_21h49.56.740,HF_wild_card,2022.2.4,MacIntel,58.82352941,5b9f707da0e8f30001a17cba,64d2fd46c836a06233681665,64dd36535f22f1658c5fd71c,,,,,,,ctch,resources/DP.BMP,resources/DG.BMP,Door4,-0.326666667,-0.067777778,1,0,0,0.696,optionLeft,60,10420,5,16,0,16,0,1,,,,,,,,,,,,,,,,,,,,,,,,,,,,,,,,,,,,,,,
,,,,,,,,2023-08-16_21h49.56.740,HF_wild_card,2022.2.4,MacIntel,58.82352941,5b9f707da0e8f30001a17cba,64d2fd46c836a06233681665,64dd36535f22f1658c5fd71c,,,,,,,decisionTrl,resources/DBN.BMP,resources/DG.BMP,Door1,0.205555556,0.035555556,1,0,0,1.047,optionRight,30,10450,5,17,0,17,0,1,,,,,,,,,,,,,,,,,,,,,,,,,,,,,,,,,,,,,,,
,,,,,,,,2023-08-16_21h49.56.740,HF_wild_card,2022.2.4,MacIntel,58.82352941,5b9f707da0e8f30001a17cba,64d2fd46c836a06233681665,64dd36535f22f1658c5fd71c,,,,,,,decisionTrl,resources/DP.BMP,resources/DB.BMP,Door4,-0.272222222,-0.05,1,0,0,0.647,optionLeft,80,10530,5,18,0,18,0,1,,,,,,,,,,,,,,,,,,,,,,,,,,,,,,,,,,,,,,,
,,,,,,,,2023-08-16_21h49.56.740,HF_wild_card,2022.2.4,MacIntel,58.82352941,5b9f707da0e8f30001a17cba,64d2fd46c836a06233681665,64dd36535f22f1658c5fd71c,,,,,,,decisionTrl,resources/DR.BMP,resources/DG.BMP,Door1,0.301111111,0.027777778,1,0,0,0.93,optionRight,30,10560,5,19,0,19,0,1,,,,,,,,,,,,,,,,,,,,,,,,,,,,,,,,,,,,,,,
,,,,,,,,2023-08-16_21h49.56.740,HF_wild_card,2022.2.4,MacIntel,58.82352941,5b9f707da0e8f30001a17cba,64d2fd46c836a06233681665,64dd36535f22f1658c5fd71c,,,,,,,decisionTrl,resources/DR.BMP,resources/DBN.BMP,WildCard_NonEx,-0.383333333,-0.088888889,1,0,0,1.012,optionLeft,55,10615,5,20,0,20,0,1,,,,,,,,,,,,,,,,,,,,,,,,,,,,,,,,,,,,,,,
,,,,,,,,2023-08-16_21h49.56.740,HF_wild_card,2022.2.4,MacIntel,58.82352941,5b9f707da0e8f30001a17cba,64d2fd46c836a06233681665,64dd36535f22f1658c5fd71c,,,,,,,sngl,resources/DR.BMP,resources/Empty.png,WildCard_NonEx,-0.251111111,-0.103333333,1,0,0,0.631,optionLeft,45,10660,5,21,0,21,0,1,,,,,,,,,,,,,,,,,,,,,,,,,,,,,,,,,,,,,,,
,,,,,,,,2023-08-16_21h49.56.740,HF_wild_card,2022.2.4,MacIntel,58.82352941,5b9f707da0e8f30001a17cba,64d2fd46c836a06233681665,64dd36535f22f1658c5fd71c,,,,,,,decisionTrl,resources/DBN.BMP,resources/DG.BMP,Door1,0.426666667,0.087777778,1,0,0,1.381,optionRight,30,10690,5,22,0,22,0,1,,,,,,,,,,,,,,,,,,,,,,,,,,,,,,,,,,,,,,,
,,,,,,,,2023-08-16_21h49.56.740,HF_wild_card,2022.2.4,MacIntel,58.82352941,5b9f707da0e8f30001a17cba,64d2fd46c836a06233681665,64dd36535f22f1658c5fd71c,,,,,,,sngl,resources/Empty.png,resources/DBN.BMP,Door2,0.421111111,-0.014444444,1,0,0,0.577,optionRight,20,10710,5,23,0,23,0,1,,,,,,,,,,,,,,,,,,,,,,,,,,,,,,,,,,,,,,,
,,,,,,,,2023-08-16_21h49.56.740,HF_wild_card,2022.2.4,MacIntel,58.82352941,5b9f707da0e8f30001a17cba,64d2fd46c836a06233681665,64dd36535f22f1658c5fd71c,,,,,,,decisionTrl,resources/DP.BMP,resources/DB.BMP,Door4,-0.327777778,-0.068888889,1,0,0,0.814,optionLeft,80,10790,5,24,0,24,0,1,,,,,,,,,,,,,,,,,,,,,,,,,,,,,,,,,,,,,,,
,,,,,,,,2023-08-16_21h49.56.740,HF_wild_card,2022.2.4,MacIntel,58.82352941,5b9f707da0e8f30001a17cba,64d2fd46c836a06233681665,64dd36535f22f1658c5fd71c,,,,,,,sngl,resources/Empty.png,resources/DB.BMP,Door3,0.333333333,0.031111111,1,0,0,0.812,optionRight,70,10860,5,25,0,25,0,1,,,,,,,,,,,,,,,,,,,,,,,,,,,,,,,,,,,,,,,
,,,,,,,,2023-08-16_21h49.56.740,HF_wild_card,2022.2.4,MacIntel,58.82352941,5b9f707da0e8f30001a17cba,64d2fd46c836a06233681665,64dd36535f22f1658c5fd71c,,,,,,,decisionTrl,resources/DB.BMP,resources/DP.BMP,Door4,0.338888889,0.013333333,1,0,0,1.331,optionRight,80,10940,5,26,0,26,0,1,,,,,,,,,,,,,,,,,,,,,,,,,,,,,,,,,,,,,,,
,,,,,,,,2023-08-16_21h49.56.740,HF_wild_card,2022.2.4,MacIntel,58.82352941,5b9f707da0e8f30001a17cba,64d2fd46c836a06233681665,64dd36535f22f1658c5fd71c,,,,,,,decisionTrl,resources/DB.BMP,resources/DP.BMP,Door4,0.344444444,0.031111111,1,0,0,0.696,optionRight,80,11020,5,27,0,27,0,1,,,,,,,,,,,,,,,,,,,,,,,,,,,,,,,,,,,,,,,
,,,,,,,,2023-08-16_21h49.56.740,HF_wild_card,2022.2.4,MacIntel,58.82352941,5b9f707da0e8f30001a17cba,64d2fd46c836a06233681665,64dd36535f22f1658c5fd71c,,,,,,,ctch,resources/DBN.BMP,resources/DB.BMP,Door3,0.302222222,-0.011111111,1,0,0,0.878,optionRight,70,11090,5,28,0,28,0,1,,,,,,,,,,,,,,,,,,,,,,,,,,,,,,,,,,,,,,,
,,,,,,,,2023-08-16_21h49.56.740,HF_wild_card,2022.2.4,MacIntel,58.82352941,5b9f707da0e8f30001a17cba,64d2fd46c836a06233681665,64dd36535f22f1658c5fd71c,,,,,,,decisionTrl,resources/DP.BMP,resources/DB.BMP,Door4,-0.22,-0.067777778,1,0,0,0.813,optionLeft,60,11150,5,29,0,29,0,1,,,,,,,,,,,,,,,,,,,,,,,,,,,,,,,,,,,,,,,
,,,,,,,,2023-08-16_21h49.56.740,HF_wild_card,2022.2.4,MacIntel,58.82352941,5b9f707da0e8f30001a17cba,64d2fd46c836a06233681665,64dd36535f22f1658c5fd71c,,,,,,,sngl,resources/Empty.png,resources/DR.BMP,WildCard_NonEx,0.424444444,-0.05,1,0,0,0.597,optionRight,45,11195,5,30,0,30,0,1,,,,,,,,,,,,,,,,,,,,,,,,,,,,,,,,,,,,,,,
,,,,,,,,2023-08-16_21h49.56.740,HF_wild_card,2022.2.4,MacIntel,58.82352941,5b9f707da0e8f30001a17cba,64d2fd46c836a06233681665,64dd36535f22f1658c5fd71c,,,,,,,ctch,resources/DB.BMP,resources/DBN.BMP,Door3,-0.272222222,-0.07,1,0,0,0.696,optionLeft,70,11265,5,31,0,31,0,1,,,,,,,,,,,,,,,,,,,,,,,,,,,,,,,,,,,,,,,
,,,,,,,,2023-08-16_21h49.56.740,HF_wild_card,2022.2.4,MacIntel,58.82352941,5b9f707da0e8f30001a17cba,64d2fd46c836a06233681665,64dd36535f22f1658c5fd71c,,,,,,,sngl,resources/Empty.png,resources/DR.BMP,WildCard_NonEx,0.324444444,0.005555556,1,0,0,0.613,optionRight,55,11320,5,32,0,32,0,1,,,,,,,,,,,,,,,,,,,,,,,,,,,,,,,,,,,,,,,
,,,,,,,,2023-08-16_21h49.56.740,HF_wild_card,2022.2.4,MacIntel,58.82352941,5b9f707da0e8f30001a17cba,64d2fd46c836a06233681665,64dd36535f22f1658c5fd71c,,,,,,,decisionTrl,resources/DP.BMP,resources/DR.BMP,Door4,-0.163333333,-0.025555556,1,0,0,1.047,optionLeft,60,11380,5,33,0,33,0,1,,,,,,,,,,,,,,,,,,,,,,,,,,,,,,,,,,,,,,,
,,,,,,,,2023-08-16_21h49.56.740,HF_wild_card,2022.2.4,MacIntel,58.82352941,5b9f707da0e8f30001a17cba,64d2fd46c836a06233681665,64dd36535f22f1658c5fd71c,,,,,,,sngl,resources/DG.BMP,resources/Empty.png,Door1,-0.278888889,-0.046666667,1,0,0,0.78,optionLeft,30,11410,5,34,0,34,0,1,,,,,,,,,,,,,,,,,,,,,,,,,,,,,,,,,,,,,,,
,,,,,,,,2023-08-16_21h49.56.740,HF_wild_card,2022.2.4,MacIntel,58.82352941,5b9f707da0e8f30001a17cba,64d2fd46c836a06233681665,64dd36535f22f1658c5fd71c,,,,,,,sngl,resources/DB.BMP,resources/Empty.png,Door3,-0.243333333,-0.065555556,1,0,0,0.579,optionLeft,70,11480,5,35,0,35,0,1,,,,,,,,,,,,,,,,,,,,,,,,,,,,,,,,,,,,,,,
,,,,,,,,2023-08-16_21h49.56.740,HF_wild_card,2022.2.4,MacIntel,58.82352941,5b9f707da0e8f30001a17cba,64d2fd46c836a06233681665,64dd36535f22f1658c5fd71c,,,,,,,decisionTrl,resources/DB.BMP,resources/DP.BMP,Door4,0.348888889,0.044444444,1,0,0,1.147,optionRight,80,11560,5,36,0,36,0,1,,,,,,,,,,,,,,,,,,,,,,,,,,,,,,,,,,,,,,,
,,,,,,,,2023-08-16_21h49.56.740,HF_wild_card,2022.2.4,MacIntel,58.82352941,5b9f707da0e8f30001a17cba,64d2fd46c836a06233681665,64dd36535f22f1658c5fd71c,,,,,,,ctch,resources/DG.BMP,resources/DP.BMP,Door4,0.324444444,0.006666667,1,0,0,1.447,optionRight,60,11620,5,37,0,37,0,1,,,,,,,,,,,,,,,,,,,,,,,,,,,,,,,,,,,,,,,
,,,,,,,,2023-08-16_21h49.56.740,HF_wild_card,2022.2.4,MacIntel,58.82352941,5b9f707da0e8f30001a17cba,64d2fd46c836a06233681665,64dd36535f22f1658c5fd71c,,,,,,,decisionTrl,resources/DG.BMP,resources/DR.BMP,WildCard_NonEx,0.33,0.004444444,1,0,0,0.746,optionRight,45,11665,5,38,0,38,0,1,,,,,,,,,,,,,,,,,,,,,,,,,,,,,,,,,,,,,,,
,,,,,,,,2023-08-16_21h49.56.740,HF_wild_card,2022.2.4,MacIntel,58.82352941,5b9f707da0e8f30001a17cba,64d2fd46c836a06233681665,64dd36535f22f1658c5fd71c,,,,,,,sngl,resources/DR.BMP,resources/Empty.png,WildCard_NonEx,-0.258888889,-0.068888889,1,0,0,0.663,optionLeft,55,11720,5,39,0,39,0,1,,,,,,,,,,,,,,,,,,,,,,,,,,,,,,,,,,,,,,,
,,,,,,,,2023-08-16_21h49.56.740,HF_wild_card,2022.2.4,MacIntel,58.82352941,5b9f707da0e8f30001a17cba,64d2fd46c836a06233681665,64dd36535f22f1658c5fd71c,,,,,,,sngl,resources/Empty.png,resources/DP.BMP,Door4,0.314444444,-0.036666667,1,0,0,0.596,optionRight,60,11780,5,40,0,40,0,1,,,,,,,,,,,,,,,,,,,,,,,,,,,,,,,,,,,,,,,
,,,,,,,,2023-08-16_21h49.56.740,HF_wild_card,2022.2.4,MacIntel,58.82352941,5b9f707da0e8f30001a17cba,64d2fd46c836a06233681665,64dd36535f22f1658c5fd71c,,,,,,,decisionTrl,resources/DB.BMP,resources/DP.BMP,Door4,0.221111111,0.026666667,1,0,0,4.866,optionRight,60,11840,5,41,0,41,0,1,,,,,,,,,,,,,,,,,,,,,,,,,,,,,,,,,,,,,,,
,,,,,,,,2023-08-16_21h49.56.740,HF_wild_card,2022.2.4,MacIntel,58.82352941,5b9f707da0e8f30001a17cba,64d2fd46c836a06233681665,64dd36535f22f1658c5fd71c,,,,,,,decisionTrl,resources/DG.BMP,resources/DBN.BMP,Door2,0.327777778,0.033333333,1,0,0,1.58,optionRight,20,11860,5,42,0,42,0,1,,,,,,,,,,,,,,,,,,,,,,,,,,,,,,,,,,,,,,,
,,,,,,,,2023-08-16_21h49.56.740,HF_wild_card,2022.2.4,MacIntel,58.82352941,5b9f707da0e8f30001a17cba,64d2fd46c836a06233681665,64dd36535f22f1658c5fd71c,,,,,,,decisionTrl,resources/DBN.BMP,resources/DG.BMP,Door1,0.41,0.067777778,1,0,0,0.729,optionRight,30,11890,5,43,0,43,0,1,,,,,,,,,,,,,,,,,,,,,,,,,,,,,,,,,,,,,,,
,,,,,,,,2023-08-16_21h49.56.740,HF_wild_card,2022.2.4,MacIntel,58.82352941,5b9f707da0e8f30001a17cba,64d2fd46c836a06233681665,64dd36535f22f1658c5fd71c,,,,,,,,,,,,,,,,,,,,,,,,,,4,0,4,0,1,,,,,,,,,,,,,,,,,,,,,,,,,,,,,,,,,,
,,,,,,,,2023-08-16_21h49.56.740,HF_wild_card,2022.2.4,MacIntel,58.82352941,5b9f707da0e8f30001a17cba,64d2fd46c836a06233681665,64dd36535f22f1658c5fd71c,,,,,,,decisionTrl,resources/DR.BMP,resources/DP.BMP,Door4,0.323333333,-0.122222222,1,0,0,1.96,optionRight,80,11970,6,0,0,0,0,1,,,,,,,,,,,,,,,,,,,,,,,,,,,,,,,,,,,,,,,
,,,,,,,,2023-08-16_21h49.56.740,HF_wild_card,2022.2.4,MacIntel,58.82352941,5b9f707da0e8f30001a17cba,64d2fd46c836a06233681665,64dd36535f22f1658c5fd71c,,,,,,,ctch,resources/DBN.BMP,resources/DB.BMP,Door3,0.314444444,0.013333333,1,0,0,1.046,optionRight,70,12040,6,1,0,1,0,1,,,,,,,,,,,,,,,,,,,,,,,,,,,,,,,,,,,,,,,
,,,,,,,,2023-08-16_21h49.56.740,HF_wild_card,2022.2.4,MacIntel,58.82352941,5b9f707da0e8f30001a17cba,64d2fd46c836a06233681665,64dd36535f22f1658c5fd71c,,,,,,,sngl,resources/Empty.png,resources/DP.BMP,Door4,0.35,-0.06,1,0,0,0.763,optionRight,80,12120,6,2,0,2,0,1,,,,,,,,,,,,,,,,,,,,,,,,,,,,,,,,,,,,,,,
,,,,,,,,2023-08-16_21h49.56.740,HF_wild_card,2022.2.4,MacIntel,58.82352941,5b9f707da0e8f30001a17cba,64d2fd46c836a06233681665,64dd36535f22f1658c5fd71c,,,,,,,decisionTrl,resources/DG.BMP,resources/DR.BMP,WildCard_NonEx,0.381111111,0.068888889,1,0,0,1.164,optionRight,55,12175,6,3,0,3,0,1,,,,,,,,,,,,,,,,,,,,,,,,,,,,,,,,,,,,,,,
,,,,,,,,2023-08-16_21h49.56.740,HF_wild_card,2022.2.4,MacIntel,58.82352941,5b9f707da0e8f30001a17cba,64d2fd46c836a06233681665,64dd36535f22f1658c5fd71c,,,,,,,decisionTrl,resources/DBN.BMP,resources/DG.BMP,Door1,0.123333333,-0.005555556,1,0,0,1.246,optionRight,30,12205,6,4,0,4,0,1,,,,,,,,,,,,,,,,,,,,,,,,,,,,,,,,,,,,,,,
,,,,,,,,2023-08-16_21h49.56.740,HF_wild_card,2022.2.4,MacIntel,58.82352941,5b9f707da0e8f30001a17cba,64d2fd46c836a06233681665,64dd36535f22f1658c5fd71c,,,,,,,sngl,resources/DP.BMP,resources/Empty.png,Door4,-0.268888889,-0.042222222,1,0,0,0.63,optionLeft,60,12265,6,5,0,5,0,1,,,,,,,,,,,,,,,,,,,,,,,,,,,,,,,,,,,,,,,
,,,,,,,,2023-08-16_21h49.56.740,HF_wild_card,2022.2.4,MacIntel,58.82352941,5b9f707da0e8f30001a17cba,64d2fd46c836a06233681665,64dd36535f22f1658c5fd71c,,,,,,,decisionTrl,resources/DB.BMP,resources/DP.BMP,Door4,0.341111111,-0.011111111,1,0,0,0.613,optionRight,60,12325,6,6,0,6,0,1,,,,,,,,,,,,,,,,,,,,,,,,,,,,,,,,,,,,,,,
,,,,,,,,2023-08-16_21h49.56.740,HF_wild_card,2022.2.4,MacIntel,58.82352941,5b9f707da0e8f30001a17cba,64d2fd46c836a06233681665,64dd36535f22f1658c5fd71c,,,,,,,sngl,resources/DG.BMP,resources/Empty.png,Door1,-0.294444444,-0.007777778,1,0,0,0.531,optionLeft,30,12355,6,7,0,7,0,1,,,,,,,,,,,,,,,,,,,,,,,,,,,,,,,,,,,,,,,
,,,,,,,,2023-08-16_21h49.56.740,HF_wild_card,2022.2.4,MacIntel,58.82352941,5b9f707da0e8f30001a17cba,64d2fd46c836a06233681665,64dd36535f22f1658c5fd71c,,,,,,,decisionTrl,resources/DBN.BMP,resources/DG.BMP,Door1,0.324444444,0.015555556,1,0,0,1.796,optionRight,30,12385,6,8,0,8,0,1,,,,,,,,,,,,,,,,,,,,,,,,,,,,,,,,,,,,,,,
,,,,,,,,2023-08-16_21h49.56.740,HF_wild_card,2022.2.4,MacIntel,58.82352941,5b9f707da0e8f30001a17cba,64d2fd46c836a06233681665,64dd36535f22f1658c5fd71c,,,,,,,decisionTrl,resources/DB.BMP,resources/DP.BMP,Door4,0.316666667,0.027777778,1,0,0,0.679,optionRight,80,12465,6,9,0,9,0,1,,,,,,,,,,,,,,,,,,,,,,,,,,,,,,,,,,,,,,,
,,,,,,,,2023-08-16_21h49.56.740,HF_wild_card,2022.2.4,MacIntel,58.82352941,5b9f707da0e8f30001a17cba,64d2fd46c836a06233681665,64dd36535f22f1658c5fd71c,,,,,,,ctch,resources/DP.BMP,resources/DG.BMP,Door4,-0.238888889,-0.034444444,1,0,0,1.131,optionLeft,60,12525,6,10,0,10,0,1,,,,,,,,,,,,,,,,,,,,,,,,,,,,,,,,,,,,,,,
,,,,,,,,2023-08-16_21h49.56.740,HF_wild_card,2022.2.4,MacIntel,58.82352941,5b9f707da0e8f30001a17cba,64d2fd46c836a06233681665,64dd36535f22f1658c5fd71c,,,,,,,ctch,resources/DBN.BMP,resources/DB.BMP,Door3,0.302222222,-0.007777778,1,0,0,1.176,optionRight,70,12595,6,11,0,11,0,1,,,,,,,,,,,,,,,,,,,,,,,,,,,,,,,,,,,,,,,
,,,,,,,,2023-08-16_21h49.56.740,HF_wild_card,2022.2.4,MacIntel,58.82352941,5b9f707da0e8f30001a17cba,64d2fd46c836a06233681665,64dd36535f22f1658c5fd71c,,,,,,,decisionTrl,resources/DP.BMP,resources/DR.BMP,Door4,-0.218888889,-0.026666667,1,0,0,1.096,optionLeft,60,12655,6,12,0,12,0,1,,,,,,,,,,,,,,,,,,,,,,,,,,,,,,,,,,,,,,,
,,,,,,,,2023-08-16_21h49.56.740,HF_wild_card,2022.2.4,MacIntel,58.82352941,5b9f707da0e8f30001a17cba,64d2fd46c836a06233681665,64dd36535f22f1658c5fd71c,,,,,,,sngl,resources/Empty.png,resources/DR.BMP,WildCard_NonEx,0.327777778,0.006666667,1,0,0,0.58,optionRight,45,12700,6,13,0,13,0,1,,,,,,,,,,,,,,,,,,,,,,,,,,,,,,,,,,,,,,,
,,,,,,,,2023-08-16_21h49.56.740,HF_wild_card,2022.2.4,MacIntel,58.82352941,5b9f707da0e8f30001a17cba,64d2fd46c836a06233681665,64dd36535f22f1658c5fd71c,,,,,,,decisionTrl,resources/DG.BMP,resources/DBN.BMP,Door1,-0.222222222,-0.042222222,1,0,0,1.481,optionLeft,30,12730,6,14,0,14,0,1,,,,,,,,,,,,,,,,,,,,,,,,,,,,,,,,,,,,,,,
,,,,,,,,2023-08-16_21h49.56.740,HF_wild_card,2022.2.4,MacIntel,58.82352941,5b9f707da0e8f30001a17cba,64d2fd46c836a06233681665,64dd36535f22f1658c5fd71c,,,,,,,sngl,resources/DR.BMP,resources/Empty.png,WildCard_NonEx,-0.351111111,-0.008888889,1,0,0,0.546,optionLeft,55,12785,6,15,0,15,0,1,,,,,,,,,,,,,,,,,,,,,,,,,,,,,,,,,,,,,,,
,,,,,,,,2023-08-16_21h49.56.740,HF_wild_card,2022.2.4,MacIntel,58.82352941,5b9f707da0e8f30001a17cba,64d2fd46c836a06233681665,64dd36535f22f1658c5fd71c,,,,,,,decisionTrl,resources/DP.BMP,resources/DB.BMP,Door4,-0.358888889,-0.033333333,1,0,0,0.781,optionLeft,60,12845,6,16,0,16,0,1,,,,,,,,,,,,,,,,,,,,,,,,,,,,,,,,,,,,,,,
,,,,,,,,2023-08-16_21h49.56.740,HF_wild_card,2022.2.4,MacIntel,58.82352941,5b9f707da0e8f30001a17cba,64d2fd46c836a06233681665,64dd36535f22f1658c5fd71c,,,,,,,ctch,resources/DB.BMP,resources/DBN.BMP,Door3,-0.32,-0.04,1,0,0,0.947,optionLeft,70,12915,6,17,0,17,0,1,,,,,,,,,,,,,,,,,,,,,,,,,,,,,,,,,,,,,,,
,,,,,,,,2023-08-16_21h49.56.740,HF_wild_card,2022.2.4,MacIntel,58.82352941,5b9f707da0e8f30001a17cba,64d2fd46c836a06233681665,64dd36535f22f1658c5fd71c,,,,,,,sngl,resources/Empty.png,resources/DBN.BMP,Door2,0.37,0.035555556,1,0,0,0.93,optionRight,40,12955,6,18,0,18,0,1,,,,,,,,,,,,,,,,,,,,,,,,,,,,,,,,,,,,,,,
,,,,,,,,2023-08-16_21h49.56.740,HF_wild_card,2022.2.4,MacIntel,58.82352941,5b9f707da0e8f30001a17cba,64d2fd46c836a06233681665,64dd36535f22f1658c5fd71c,,,,,,,decisionTrl,resources/DG.BMP,resources/DBN.BMP,Door1,-0.315555556,-0.025555556,1,0,0,0.779,optionLeft,30,12985,6,19,0,19,0,1,,,,,,,,,,,,,,,,,,,,,,,,,,,,,,,,,,,,,,,
,,,,,,,,2023-08-16_21h49.56.740,HF_wild_card,2022.2.4,MacIntel,58.82352941,5b9f707da0e8f30001a17cba,64d2fd46c836a06233681665,64dd36535f22f1658c5fd71c,,,,,,,decisionTrl,resources/DG.BMP,resources/DBN.BMP,Door2,0.325555556,-0.011111111,1,0,0,0.748,optionRight,20,13005,6,20,0,20,0,1,,,,,,,,,,,,,,,,,,,,,,,,,,,,,,,,,,,,,,,
,,,,,,,,2023-08-16_21h49.56.740,HF_wild_card,2022.2.4,MacIntel,58.82352941,5b9f707da0e8f30001a17cba,64d2fd46c836a06233681665,64dd36535f22f1658c5fd71c,,,,,,,decisionTrl,resources/DB.BMP,resources/DP.BMP,Door3,-0.242222222,-0.038888889,1,0,0,0.645,optionLeft,70,13075,6,21,0,21,0,1,,,,,,,,,,,,,,,,,,,,,,,,,,,,,,,,,,,,,,,
,,,,,,,,2023-08-16_21h49.56.740,HF_wild_card,2022.2.4,MacIntel,58.82352941,5b9f707da0e8f30001a17cba,64d2fd46c836a06233681665,64dd36535f22f1658c5fd71c,,,,,,,decisionTrl,resources/DG.BMP,resources/DBN.BMP,Door1,-0.217777778,-0.007777778,1,0,0,0.994,optionLeft,30,13105,6,22,0,22,0,1,,,,,,,,,,,,,,,,,,,,,,,,,,,,,,,,,,,,,,,
,,,,,,,,2023-08-16_21h49.56.740,HF_wild_card,2022.2.4,MacIntel,58.82352941,5b9f707da0e8f30001a17cba,64d2fd46c836a06233681665,64dd36535f22f1658c5fd71c,,,,,,,ctch,resources/DB.BMP,resources/DBN.BMP,Door3,-0.237777778,-0.034444444,1,0,0,1.03,optionLeft,70,13175,6,23,0,23,0,1,,,,,,,,,,,,,,,,,,,,,,,,,,,,,,,,,,,,,,,
,,,,,,,,2023-08-16_21h49.56.740,HF_wild_card,2022.2.4,MacIntel,58.82352941,5b9f707da0e8f30001a17cba,64d2fd46c836a06233681665,64dd36535f22f1658c5fd71c,,,,,,,decisionTrl,resources/DP.BMP,resources/DB.BMP,Door4,-0.24,-0.051111111,1,0,0,0.663,optionLeft,60,13235,6,24,0,24,0,1,,,,,,,,,,,,,,,,,,,,,,,,,,,,,,,,,,,,,,,
,,,,,,,,2023-08-16_21h49.56.740,HF_wild_card,2022.2.4,MacIntel,58.82352941,5b9f707da0e8f30001a17cba,64d2fd46c836a06233681665,64dd36535f22f1658c5fd71c,,,,,,,decisionTrl,resources/DR.BMP,resources/DG.BMP,Door1,0.444444444,0.001111111,1,0,0,0.879,optionRight,30,13265,6,25,0,25,0,1,,,,,,,,,,,,,,,,,,,,,,,,,,,,,,,,,,,,,,,
,,,,,,,,2023-08-16_21h49.56.740,HF_wild_card,2022.2.4,MacIntel,58.82352941,5b9f707da0e8f30001a17cba,64d2fd46c836a06233681665,64dd36535f22f1658c5fd71c,,,,,,,decisionTrl,resources/DR.BMP,resources/DBN.BMP,WildCard_NonEx,-0.3,-0.035555556,1,0,0,1.08,optionLeft,55,13320,6,26,0,26,0,1,,,,,,,,,,,,,,,,,,,,,,,,,,,,,,,,,,,,,,,
,,,,,,,,2023-08-16_21h49.56.740,HF_wild_card,2022.2.4,MacIntel,58.82352941,5b9f707da0e8f30001a17cba,64d2fd46c836a06233681665,64dd36535f22f1658c5fd71c,,,,,,,decisionTrl,resources/DBN.BMP,resources/DG.BMP,Door1,0.458888889,-0.001111111,1,0,0,1.263,optionRight,30,13350,6,27,0,27,0,1,,,,,,,,,,,,,,,,,,,,,,,,,,,,,,,,,,,,,,,
,,,,,,,,2023-08-16_21h49.56.740,HF_wild_card,2022.2.4,MacIntel,58.82352941,5b9f707da0e8f30001a17cba,64d2fd46c836a06233681665,64dd36535f22f1658c5fd71c,,,,,,,sngl,resources/Empty.png,resources/DG.BMP,Door1,0.354444444,0.012222222,1,0,0,0.644,optionRight,30,13380,6,28,0,28,0,1,,,,,,,,,,,,,,,,,,,,,,,,,,,,,,,,,,,,,,,
,,,,,,,,2023-08-16_21h49.56.740,HF_wild_card,2022.2.4,MacIntel,58.82352941,5b9f707da0e8f30001a17cba,64d2fd46c836a06233681665,64dd36535f22f1658c5fd71c,,,,,,,ctch,resources/DG.BMP,resources/DP.BMP,Door4,0.242222222,-0.002222222,1,0,0,1.179,optionRight,60,13440,6,29,0,29,0,1,,,,,,,,,,,,,,,,,,,,,,,,,,,,,,,,,,,,,,,
,,,,,,,,2023-08-16_21h49.56.740,HF_wild_card,2022.2.4,MacIntel,58.82352941,5b9f707da0e8f30001a17cba,64d2fd46c836a06233681665,64dd36535f22f1658c5fd71c,,,,,,,decisionTrl,resources/DB.BMP,resources/DR.BMP,Door3,-0.288888889,-0.053333333,1,0,0,1.846,optionLeft,70,13510,6,30,0,30,0,1,,,,,,,,,,,,,,,,,,,,,,,,,,,,,,,,,,,,,,,
,,,,,,,,2023-08-16_21h49.56.740,HF_wild_card,2022.2.4,MacIntel,58.82352941,5b9f707da0e8f30001a17cba,64d2fd46c836a06233681665,64dd36535f22f1658c5fd71c,,,,,,,sngl,resources/DB.BMP,resources/Empty.png,Door3,-0.356666667,-0.041111111,1,0,0,0.713,optionLeft,70,13580,6,31,0,31,0,1,,,,,,,,,,,,,,,,,,,,,,,,,,,,,,,,,,,,,,,
,,,,,,,,2023-08-16_21h49.56.740,HF_wild_card,2022.2.4,MacIntel,58.82352941,5b9f707da0e8f30001a17cba,64d2fd46c836a06233681665,64dd36535f22f1658c5fd71c,,,,,,,ctch,resources/DG.BMP,resources/DP.BMP,Door4,0.291111111,-0.013333333,1,0,0,2.296,optionRight,80,13660,6,32,0,32,0,1,,,,,,,,,,,,,,,,,,,,,,,,,,,,,,,,,,,,,,,
,,,,,,,,2023-08-16_21h49.56.740,HF_wild_card,2022.2.4,MacIntel,58.82352941,5b9f707da0e8f30001a17cba,64d2fd46c836a06233681665,64dd36535f22f1658c5fd71c,,,,,,,decisionTrl,resources/DBN.BMP,resources/DR.BMP,WildCard_NonEx,0.367777778,-0.028888889,1,0,0,2.13,optionRight,45,13705,6,33,0,33,0,1,,,,,,,,,,,,,,,,,,,,,,,,,,,,,,,,,,,,,,,
,,,,,,,,2023-08-16_21h49.56.740,HF_wild_card,2022.2.4,MacIntel,58.82352941,5b9f707da0e8f30001a17cba,64d2fd46c836a06233681665,64dd36535f22f1658c5fd71c,,,,,,,decisionTrl,resources/DBN.BMP,resources/DG.BMP,Door1,0.274444444,0.041111111,1,0,0,1.63,optionRight,30,13735,6,34,0,34,0,1,,,,,,,,,,,,,,,,,,,,,,,,,,,,,,,,,,,,,,,
,,,,,,,,2023-08-16_21h49.56.740,HF_wild_card,2022.2.4,MacIntel,58.82352941,5b9f707da0e8f30001a17cba,64d2fd46c836a06233681665,64dd36535f22f1658c5fd71c,,,,,,,sngl,resources/Empty.png,resources/DB.BMP,Door3,0.278888889,0.052222222,1,0,0,0.664,optionRight,70,13805,6,35,0,35,0,1,,,,,,,,,,,,,,,,,,,,,,,,,,,,,,,,,,,,,,,
,,,,,,,,2023-08-16_21h49.56.740,HF_wild_card,2022.2.4,MacIntel,58.82352941,5b9f707da0e8f30001a17cba,64d2fd46c836a06233681665,64dd36535f22f1658c5fd71c,,,,,,,decisionTrl,resources/DP.BMP,resources/DB.BMP,Door4,-0.314444444,-0.095555556,1,0,0,0.73,optionLeft,80,13885,6,36,0,36,0,1,,,,,,,,,,,,,,,,,,,,,,,,,,,,,,,,,,,,,,,
,,,,,,,,2023-08-16_21h49.56.740,HF_wild_card,2022.2.4,MacIntel,58.82352941,5b9f707da0e8f30001a17cba,64d2fd46c836a06233681665,64dd36535f22f1658c5fd71c,,,,,,,sngl,resources/DBN.BMP,resources/Empty.png,Door2,-0.31,-0.044444444,1,0,0,0.597,optionLeft,20,13905,6,37,0,37,0,1,,,,,,,,,,,,,,,,,,,,,,,,,,,,,,,,,,,,,,,
,,,,,,,,2023-08-16_21h49.56.740,HF_wild_card,2022.2.4,MacIntel,58.82352941,5b9f707da0e8f30001a17cba,64d2fd46c836a06233681665,64dd36535f22f1658c5fd71c,,,,,,,sngl,resources/Empty.png,resources/DR.BMP,WildCard_NonEx,0.437777778,0.023333333,1,0,0,0.563,optionRight,55,13960,6,38,0,38,0,1,,,,,,,,,,,,,,,,,,,,,,,,,,,,,,,,,,,,,,,
,,,,,,,,2023-08-16_21h49.56.740,HF_wild_card,2022.2.4,MacIntel,58.82352941,5b9f707da0e8f30001a17cba,64d2fd46c836a06233681665,64dd36535f22f1658c5fd71c,,,,,,,decisionTrl,resources/DB.BMP,resources/DP.BMP,Door4,0.44,0.06,1,0,0,0.861,optionRight,60,14020,6,39,0,39,0,1,,,,,,,,,,,,,,,,,,,,,,,,,,,,,,,,,,,,,,,
,,,,,,,,2023-08-16_21h49.56.740,HF_wild_card,2022.2.4,MacIntel,58.82352941,5b9f707da0e8f30001a17cba,64d2fd46c836a06233681665,64dd36535f22f1658c5fd71c,,,,,,,decisionTrl,resources/DP.BMP,resources/DB.BMP,Door4,-0.282222222,-0.025555556,1,0,0,0.647,optionLeft,80,14100,6,40,0,40,0,1,,,,,,,,,,,,,,,,,,,,,,,,,,,,,,,,,,,,,,,
,,,,,,,,2023-08-16_21h49.56.740,HF_wild_card,2022.2.4,MacIntel,58.82352941,5b9f707da0e8f30001a17cba,64d2fd46c836a06233681665,64dd36535f22f1658c5fd71c,,,,,,,sngl,resources/DR.BMP,resources/Empty.png,WildCard_NonEx,-0.325555556,-0.033333333,1,0,0,0.58,optionLeft,45,14145,6,41,0,41,0,1,,,,,,,,,,,,,,,,,,,,,,,,,,,,,,,,,,,,,,,
,,,,,,,,2023-08-16_21h49.56.740,HF_wild_card,2022.2.4,MacIntel,58.82352941,5b9f707da0e8f30001a17cba,64d2fd46c836a06233681665,64dd36535f22f1658c5fd71c,,,,,,,decisionTrl,resources/DR.BMP,resources/DB.BMP,Door3,0.322222222,0.018888889,1,0,0,1.031,optionRight,70,14215,6,42,0,42,0,1,,,,,,,,,,,,,,,,,,,,,,,,,,,,,,,,,,,,,,,
,,,,,,,,2023-08-16_21h49.56.740,HF_wild_card,2022.2.4,MacIntel,58.82352941,5b9f707da0e8f30001a17cba,64d2fd46c836a06233681665,64dd36535f22f1658c5fd71c,,,,,,,ctch,resources/DP.BMP,resources/DG.BMP,Door4,-0.367777778,-0.034444444,1,0,0,0.913,optionLeft,60,14275,6,43,0,43,0,1,,,,,,,,,,,,,,,,,,,,,,,,,,,,,,,,,,,,,,,
,,,,,,,,2023-08-16_21h49.56.740,HF_wild_card,2022.2.4,MacIntel,58.82352941,5b9f707da0e8f30001a17cba,64d2fd46c836a06233681665,64dd36535f22f1658c5fd71c,,,,,,,,,,,,,,,,,,,,,,,,,,5,0,5,0,1,,,,,,,,,,,,,,,,,,,,,,,,,,,,,,,,,,
,,,,,,,,2023-08-16_21h49.56.740,HF_wild_card,2022.2.4,MacIntel,58.82352941,5b9f707da0e8f30001a17cba,64d2fd46c836a06233681665,64dd36535f22f1658c5fd71c,,,,,,,ctch,resources/DB.BMP,resources/DBN.BMP,Door3,-0.314444444,-0.218888889,1,0,0,2.359,optionLeft,70,14345,7,0,0,0,0,1,,,,,,,,,,,,,,,,,,,,,,,,,,,,,,,,,,,,,,,
,,,,,,,,2023-08-16_21h49.56.740,HF_wild_card,2022.2.4,MacIntel,58.82352941,5b9f707da0e8f30001a17cba,64d2fd46c836a06233681665,64dd36535f22f1658c5fd71c,,,,,,,decisionTrl,resources/DP.BMP,resources/DB.BMP,Door4,-0.306666667,-0.044444444,1,0,0,2.015,optionLeft,60,14405,7,1,0,1,0,1,,,,,,,,,,,,,,,,,,,,,,,,,,,,,,,,,,,,,,,
,,,,,,,,2023-08-16_21h49.56.740,HF_wild_card,2022.2.4,MacIntel,58.82352941,5b9f707da0e8f30001a17cba,64d2fd46c836a06233681665,64dd36535f22f1658c5fd71c,,,,,,,decisionTrl,resources/DG.BMP,resources/DBN.BMP,Door1,-0.284444444,-0.025555556,1,0,0,1.131,optionLeft,30,14435,7,2,0,2,0,1,,,,,,,,,,,,,,,,,,,,,,,,,,,,,,,,,,,,,,,
,,,,,,,,2023-08-16_21h49.56.740,HF_wild_card,2022.2.4,MacIntel,58.82352941,5b9f707da0e8f30001a17cba,64d2fd46c836a06233681665,64dd36535f22f1658c5fd71c,,,,,,,ctch,resources/DB.BMP,resources/DBN.BMP,Door3,-0.33,-0.051111111,1,0,0,1.399,optionLeft,70,14505,7,3,0,3,0,1,,,,,,,,,,,,,,,,,,,,,,,,,,,,,,,,,,,,,,,
,,,,,,,,2023-08-16_21h49.56.740,HF_wild_card,2022.2.4,MacIntel,58.82352941,5b9f707da0e8f30001a17cba,64d2fd46c836a06233681665,64dd36535f22f1658c5fd71c,,,,,,,decisionTrl,resources/DB.BMP,resources/DP.BMP,Door4,0.353333333,0.064444444,1,0,0,0.817,optionRight,80,14585,7,4,0,4,0,1,,,,,,,,,,,,,,,,,,,,,,,,,,,,,,,,,,,,,,,
,,,,,,,,2023-08-16_21h49.56.740,HF_wild_card,2022.2.4,MacIntel,58.82352941,5b9f707da0e8f30001a17cba,64d2fd46c836a06233681665,64dd36535f22f1658c5fd71c,,,,,,,decisionTrl,resources/DBN.BMP,resources/DG.BMP,Door1,0.441111111,-0.002222222,1,0,0,0.864,optionRight,30,14615,7,5,0,5,0,1,,,,,,,,,,,,,,,,,,,,,,,,,,,,,,,,,,,,,,,
,,,,,,,,2023-08-16_21h49.56.740,HF_wild_card,2022.2.4,MacIntel,58.82352941,5b9f707da0e8f30001a17cba,64d2fd46c836a06233681665,64dd36535f22f1658c5fd71c,,,,,,,ctch,resources/DG.BMP,resources/DP.BMP,Door4,0.358888889,0.018888889,1,0,0,1.049,optionRight,60,14675,7,6,0,6,0,1,,,,,,,,,,,,,,,,,,,,,,,,,,,,,,,,,,,,,,,
,,,,,,,,2023-08-16_21h49.56.740,HF_wild_card,2022.2.4,MacIntel,58.82352941,5b9f707da0e8f30001a17cba,64d2fd46c836a06233681665,64dd36535f22f1658c5fd71c,,,,,,,decisionTrl,resources/DB.BMP,resources/DP.BMP,Door4,0.482222222,0.013333333,1,0,0,0.766,optionRight,60,14735,7,7,0,7,0,1,,,,,,,,,,,,,,,,,,,,,,,,,,,,,,,,,,,,,,,
,,,,,,,,2023-08-16_21h49.56.740,HF_wild_card,2022.2.4,MacIntel,58.82352941,5b9f707da0e8f30001a17cba,64d2fd46c836a06233681665,64dd36535f22f1658c5fd71c,,,,,,,decisionTrl,resources/DG.BMP,resources/DBN.BMP,Door1,-0.284444444,-0.033333333,1,0,0,1.429,optionLeft,30,14765,7,8,0,8,0,1,,,,,,,,,,,,,,,,,,,,,,,,,,,,,,,,,,,,,,,
,,,,,,,,2023-08-16_21h49.56.740,HF_wild_card,2022.2.4,MacIntel,58.82352941,5b9f707da0e8f30001a17cba,64d2fd46c836a06233681665,64dd36535f22f1658c5fd71c,,,,,,,decisionTrl,resources/DP.BMP,resources/DB.BMP,Door4,-0.313333333,-0.04,1,0,0,0.781,optionLeft,80,14845,7,9,0,9,0,1,,,,,,,,,,,,,,,,,,,,,,,,,,,,,,,,,,,,,,,
,,,,,,,,2023-08-16_21h49.56.740,HF_wild_card,2022.2.4,MacIntel,58.82352941,5b9f707da0e8f30001a17cba,64d2fd46c836a06233681665,64dd36535f22f1658c5fd71c,,,,,,,ctch,resources/DBN.BMP,resources/DB.BMP,Door3,0.356666667,-0.012222222,1,0,0,0.983,optionRight,70,14915,7,10,0,10,0,1,,,,,,,,,,,,,,,,,,,,,,,,,,,,,,,,,,,,,,,
,,,,,,,,2023-08-16_21h49.56.740,HF_wild_card,2022.2.4,MacIntel,58.82352941,5b9f707da0e8f30001a17cba,64d2fd46c836a06233681665,64dd36535f22f1658c5fd71c,,,,,,,decisionTrl,resources/DBN.BMP,resources/DG.BMP,Door1,0.315555556,0.004444444,1,0,0,0.782,optionRight,30,14945,7,11,0,11,0,1,,,,,,,,,,,,,,,,,,,,,,,,,,,,,,,,,,,,,,,
,,,,,,,,2023-08-16_21h49.56.740,HF_wild_card,2022.2.4,MacIntel,58.82352941,5b9f707da0e8f30001a17cba,64d2fd46c836a06233681665,64dd36535f22f1658c5fd71c,,,,,,,decisionTrl,resources/DG.BMP,resources/DBN.BMP,Door1,-0.292222222,-0.046666667,1,0,0,1.017,optionLeft,30,14975,7,12,0,12,0,1,,,,,,,,,,,,,,,,,,,,,,,,,,,,,,,,,,,,,,,
,,,,,,,,2023-08-16_21h49.56.740,HF_wild_card,2022.2.4,MacIntel,58.82352941,5b9f707da0e8f30001a17cba,64d2fd46c836a06233681665,64dd36535f22f1658c5fd71c,,,,,,,decisionTrl,resources/DB.BMP,resources/DP.BMP,Door4,0.197777778,-0.018888889,1,0,0,0.899,optionRight,80,15055,7,13,0,13,0,1,,,,,,,,,,,,,,,,,,,,,,,,,,,,,,,,,,,,,,,
,,,,,,,,2023-08-16_21h49.56.740,HF_wild_card,2022.2.4,MacIntel,58.82352941,5b9f707da0e8f30001a17cba,64d2fd46c836a06233681665,64dd36535f22f1658c5fd71c,,,,,,,decisionTrl,resources/DB.BMP,resources/DP.BMP,Door4,0.396666667,0,1,0,0,0.716,optionRight,80,15135,7,14,0,14,0,1,,,,,,,,,,,,,,,,,,,,,,,,,,,,,,,,,,,,,,,
,,,,,,,,2023-08-16_21h49.56.740,HF_wild_card,2022.2.4,MacIntel,58.82352941,5b9f707da0e8f30001a17cba,64d2fd46c836a06233681665,64dd36535f22f1658c5fd71c,,,,,,,decisionTrl,resources/DG.BMP,resources/DBN.BMP,Door1,-0.272222222,-0.016666667,1,0,0,0.815,optionLeft,30,15165,7,15,0,15,0,1,,,,,,,,,,,,,,,,,,,,,,,,,,,,,,,,,,,,,,,
,,,,,,,,2023-08-16_21h49.56.740,HF_wild_card,2022.2.4,MacIntel,58.82352941,5b9f707da0e8f30001a17cba,64d2fd46c836a06233681665,64dd36535f22f1658c5fd71c,,,,,,,decisionTrl,resources/DP.BMP,resources/DB.BMP,Door4,-0.327777778,-0.018888889,1,0,0,0.715,optionLeft,60,15225,7,16,0,16,0,1,,,,,,,,,,,,,,,,,,,,,,,,,,,,,,,,,,,,,,,
,,,,,,,,2023-08-16_21h49.56.740,HF_wild_card,2022.2.4,MacIntel,58.82352941,5b9f707da0e8f30001a17cba,64d2fd46c836a06233681665,64dd36535f22f1658c5fd71c,,,,,,,ctch,resources/DP.BMP,resources/DG.BMP,Door4,-0.387777778,-0.008888889,1,0,0,0.683,optionLeft,60,15285,7,17,0,17,0,1,,,,,,,,,,,,,,,,,,,,,,,,,,,,,,,,,,,,,,,
,,,,,,,,2023-08-16_21h49.56.740,HF_wild_card,2022.2.4,MacIntel,58.82352941,5b9f707da0e8f30001a17cba,64d2fd46c836a06233681665,64dd36535f22f1658c5fd71c,,,,,,,decisionTrl,resources/DB.BMP,resources/DP.BMP,Door4,0.352222222,-0.028888889,1,0,0,0.749,optionRight,60,15345,7,18,0,18,0,1,,,,,,,,,,,,,,,,,,,,,,,,,,,,,,,,,,,,,,,
,,,,,,,,2023-08-16_21h49.56.740,HF_wild_card,2022.2.4,MacIntel,58.82352941,5b9f707da0e8f30001a17cba,64d2fd46c836a06233681665,64dd36535f22f1658c5fd71c,,,,,,,decisionTrl,resources/DB.BMP,resources/DP.BMP,Door4,0.336666667,0.011111111,1,0,0,0.667,optionRight,80,15425,7,19,0,19,0,1,,,,,,,,,,,,,,,,,,,,,,,,,,,,,,,,,,,,,,,
,,,,,,,,2023-08-16_21h49.56.740,HF_wild_card,2022.2.4,MacIntel,58.82352941,5b9f707da0e8f30001a17cba,64d2fd46c836a06233681665,64dd36535f22f1658c5fd71c,,,,,,,decisionTrl,resources/DP.BMP,resources/DB.BMP,Door4,-0.33,-0.007777778,1,0,0,0.565,optionLeft,60,15485,7,20,0,20,0,1,,,,,,,,,,,,,,,,,,,,,,,,,,,,,,,,,,,,,,,
,,,,,,,,2023-08-16_21h49.56.740,HF_wild_card,2022.2.4,MacIntel,58.82352941,5b9f707da0e8f30001a17cba,64d2fd46c836a06233681665,64dd36535f22f1658c5fd71c,,,,,,,ctch,resources/DG.BMP,resources/DP.BMP,Door4,0.385555556,0.004444444,1,0,0,0.682,optionRight,80,15565,7,21,0,21,0,1,,,,,,,,,,,,,,,,,,,,,,,,,,,,,,,,,,,,,,,
,,,,,,,,2023-08-16_21h49.56.740,HF_wild_card,2022.2.4,MacIntel,58.82352941,5b9f707da0e8f30001a17cba,64d2fd46c836a06233681665,64dd36535f22f1658c5fd71c,,,,,,,ctch,resources/DP.BMP,resources/DG.BMP,Door4,-0.361111111,-0.028888889,1,0,0,0.566,optionLeft,80,15645,7,22,0,22,0,1,,,,,,,,,,,,,,,,,,,,,,,,,,,,,,,,,,,,,,,
,,,,,,,,2023-08-16_21h49.56.740,HF_wild_card,2022.2.4,MacIntel,58.82352941,5b9f707da0e8f30001a17cba,64d2fd46c836a06233681665,64dd36535f22f1658c5fd71c,,,,,,,decisionTrl,resources/DG.BMP,resources/DBN.BMP,Door1,-0.362222222,-0.063333333,1,0,0,0.932,optionLeft,30,15675,7,23,0,23,0,1,,,,,,,,,,,,,,,,,,,,,,,,,,,,,,,,,,,,,,,
,,,,,,,,2023-08-16_21h49.56.740,HF_wild_card,2022.2.4,MacIntel,58.82352941,5b9f707da0e8f30001a17cba,64d2fd46c836a06233681665,64dd36535f22f1658c5fd71c,,,,,,,ctch,resources/DP.BMP,resources/DG.BMP,Door4,-0.325555556,-0.032222222,1,0,0,0.682,optionLeft,80,15755,7,24,0,24,0,1,,,,,,,,,,,,,,,,,,,,,,,,,,,,,,,,,,,,,,,
,,,,,,,,2023-08-16_21h49.56.740,HF_wild_card,2022.2.4,MacIntel,58.82352941,5b9f707da0e8f30001a17cba,64d2fd46c836a06233681665,64dd36535f22f1658c5fd71c,,,,,,,ctch,resources/DBN.BMP,resources/DB.BMP,Door3,0.372222222,-0.063333333,1,0,0,1.417,optionRight,70,15825,7,25,0,25,0,1,,,,,,,,,,,,,,,,,,,,,,,,,,,,,,,,,,,,,,,
,,,,,,,,2023-08-16_21h49.56.740,HF_wild_card,2022.2.4,MacIntel,58.82352941,5b9f707da0e8f30001a17cba,64d2fd46c836a06233681665,64dd36535f22f1658c5fd71c,,,,,,,decisionTrl,resources/DBN.BMP,resources/DG.BMP,Door1,0.343333333,0.047777778,1,0,0,1.049,optionRight,30,15855,7,26,0,26,0,1,,,,,,,,,,,,,,,,,,,,,,,,,,,,,,,,,,,,,,,
,,,,,,,,2023-08-16_21h49.56.740,HF_wild_card,2022.2.4,MacIntel,58.82352941,5b9f707da0e8f30001a17cba,64d2fd46c836a06233681665,64dd36535f22f1658c5fd71c,,,,,,,ctch,resources/DBN.BMP,resources/DB.BMP,Door3,0.302222222,-0.056666667,1,0,0,0.649,optionRight,70,15925,7,27,0,27,0,1,,,,,,,,,,,,,,,,,,,,,,,,,,,,,,,,,,,,,,,
,,,,,,,,2023-08-16_21h49.56.740,HF_wild_card,2022.2.4,MacIntel,58.82352941,5b9f707da0e8f30001a17cba,64d2fd46c836a06233681665,64dd36535f22f1658c5fd71c,,,,,,,ctch,resources/DG.BMP,resources/DP.BMP,Door4,0.351111111,-0.017777778,1,0,0,0.632,optionRight,80,16005,7,28,0,28,0,1,,,,,,,,,,,,,,,,,,,,,,,,,,,,,,,,,,,,,,,
,,,,,,,,2023-08-16_21h49.56.740,HF_wild_card,2022.2.4,MacIntel,58.82352941,5b9f707da0e8f30001a17cba,64d2fd46c836a06233681665,64dd36535f22f1658c5fd71c,,,,,,,decisionTrl,resources/DG.BMP,resources/DBN.BMP,Door1,-0.442222222,-0.047777778,1,0,0,1.216,optionLeft,30,16035,7,29,0,29,0,1,,,,,,,,,,,,,,,,,,,,,,,,,,,,,,,,,,,,,,,
,,,,,,,,2023-08-16_21h49.56.740,HF_wild_card,2022.2.4,MacIntel,58.82352941,5b9f707da0e8f30001a17cba,64d2fd46c836a06233681665,64dd36535f22f1658c5fd71c,,,,,,,decisionTrl,resources/DP.BMP,resources/DB.BMP,Door4,-0.253333333,-0.046666667,1,0,0,0.733,optionLeft,60,16095,7,30,0,30,0,1,,,,,,,,,,,,,,,,,,,,,,,,,,,,,,,,,,,,,,,
,,,,,,,,2023-08-16_21h49.56.740,HF_wild_card,2022.2.4,MacIntel,58.82352941,5b9f707da0e8f30001a17cba,64d2fd46c836a06233681665,64dd36535f22f1658c5fd71c,,,,,,,decisionTrl,resources/DBN.BMP,resources/DG.BMP,Door1,0.271111111,0.018888889,1,0,0,1.215,optionRight,30,16125,7,31,0,31,0,1,,,,,,,,,,,,,,,,,,,,,,,,,,,,,,,,,,,,,,,
,,,,,,,,2023-08-16_21h49.56.740,HF_wild_card,2022.2.4,MacIntel,58.82352941,5b9f707da0e8f30001a17cba,64d2fd46c836a06233681665,64dd36535f22f1658c5fd71c,,,,,,,decisionTrl,resources/DBN.BMP,resources/DG.BMP,Door1,0.426666667,-0.017777778,1,0,0,0.633,optionRight,30,16155,7,32,0,32,0,1,,,,,,,,,,,,,,,,,,,,,,,,,,,,,,,,,,,,,,,
,,,,,,,,2023-08-16_21h49.56.740,HF_wild_card,2022.2.4,MacIntel,58.82352941,5b9f707da0e8f30001a17cba,64d2fd46c836a06233681665,64dd36535f22f1658c5fd71c,,,,,,,ctch,resources/DB.BMP,resources/DBN.BMP,Door3,-0.352222222,0.001111111,1,0,0,0.632,optionLeft,70,16225,7,33,0,33,0,1,,,,,,,,,,,,,,,,,,,,,,,,,,,,,,,,,,,,,,,
,,,,,,,,2023-08-16_21h49.56.740,HF_wild_card,2022.2.4,MacIntel,58.82352941,5b9f707da0e8f30001a17cba,64d2fd46c836a06233681665,64dd36535f22f1658c5fd71c,,,,,,,decisionTrl,resources/DBN.BMP,resources/DG.BMP,Door1,0.343333333,0.003333333,1,0,0,1.132,optionRight,30,16255,7,34,0,34,0,1,,,,,,,,,,,,,,,,,,,,,,,,,,,,,,,,,,,,,,,
,,,,,,,,2023-08-16_21h49.56.740,HF_wild_card,2022.2.4,MacIntel,58.82352941,5b9f707da0e8f30001a17cba,64d2fd46c836a06233681665,64dd36535f22f1658c5fd71c,,,,,,,decisionTrl,resources/DP.BMP,resources/DB.BMP,Door4,-0.305555556,-0.053333333,1,0,0,0.582,optionLeft,80,16335,7,35,0,35,0,1,,,,,,,,,,,,,,,,,,,,,,,,,,,,,,,,,,,,,,,
,,,,,,,,2023-08-16_21h49.56.740,HF_wild_card,2022.2.4,MacIntel,58.82352941,5b9f707da0e8f30001a17cba,64d2fd46c836a06233681665,64dd36535f22f1658c5fd71c,,,,,,,,,,,,,,,,,,,,,,,,,,6,0,6,0,1,,,,,,,,,,,,,,,,,,,,,,,,,,,,,,,,,,
,,,,,,,,2023-08-16_21h49.56.740,HF_wild_card,2022.2.4,MacIntel,58.82352941,5b9f707da0e8f30001a17cba,64d2fd46c836a06233681665,64dd36535f22f1658c5fd71c,,,,,,,,,,,,,,,,,,,,,,,,,,,,,,,4,,,,,,,,,,,,,,,,,,,,,,,,,,,,,,,,,
,,,,,,,,2023-08-16_21h49.56.740,HF_wild_card,2022.2.4,MacIntel,58.82352941,5b9f707da0e8f30001a17cba,64d2fd46c836a06233681665,64dd36535f22f1658c5fd71c,,,,,,,,,,,,,,,,,,,,,,,,,,,,,,,,,,,,,,,,,,,,,,,,,,,,,,,,,,,,,,,,
,,,,,,,,2023-08-16_21h49.56.740,HF_wild_card,2022.2.4,MacIntel,58.82352941,5b9f707da0e8f30001a17cba,64d2fd46c836a06233681665,64dd36535f22f1658c5fd71c,,,,,,,,,,,,,,,,,,,,,,,,,,,,,,,,70,Door3,resources/DB.BMP,0,0,0,0,1,,,,,,,,,,,,,,,,,,,,,,,,,
,,,,,,,,2023-08-16_21h49.56.740,HF_wild_card,2022.2.4,MacIntel,58.82352941,5b9f707da0e8f30001a17cba,64d2fd46c836a06233681665,64dd36535f22f1658c5fd71c,,,,,,,,,,,,,,,,,,,,,,,,,,,,,,,,55,WC_nonExtreme,resources/DR.BMP,1,0,1,0,1,,,,,,,,,,,,,,,,,,,,,,,,,
,,,,,,,,2023-08-16_21h49.56.740,HF_wild_card,2022.2.4,MacIntel,58.82352941,5b9f707da0e8f30001a17cba,64d2fd46c836a06233681665,64dd36535f22f1658c5fd71c,,,,,,,,,,,,,,,,,,,,,,,,,,,,,,,,5,WC_extreme,resources/DY.BMP,2,0,2,0,1,,,,,,,,,,,,,,,,,,,,,,,,,
,,,,,,,,2023-08-16_21h49.56.740,HF_wild_card,2022.2.4,MacIntel,58.82352941,5b9f707da0e8f30001a17cba,64d2fd46c836a06233681665,64dd36535f22f1658c5fd71c,,,,,,,,,,,,,,,,,,,,,,,,,,,,,,,,80,Door4,resources/DP.BMP,3,0,3,0,1,,,,,,,,,,,,,,,,,,,,,,,,,
,,,,,,,,2023-08-16_21h49.56.740,HF_wild_card,2022.2.4,MacIntel,58.82352941,5b9f707da0e8f30001a17cba,64d2fd46c836a06233681665,64dd36535f22f1658c5fd71c,,,,,,,,,,,,,,,,,,,,,,,,,,,,,,,,20,Door2,resources/DBN.BMP,4,0,4,0,1,,,,,,,,,,,,,,,,,,,,,,,,,
,,,,,,,,2023-08-16_21h49.56.740,HF_wild_card,2022.2.4,MacIntel,58.82352941,5b9f707da0e8f30001a17cba,64d2fd46c836a06233681665,64dd36535f22f1658c5fd71c,,,,,,,,,,,,,,,,,,,,,,,,,,,,,,,,30,Door1,resources/DG.BMP,5,0,5,0,1,,,,,,,,,,,,,,,,,,,,,,,,,
