Condition,Low fixed image (Door1),Low risky image (Door2),High fixed image (Door3),High risky image (Door4),Extreme Wild Card,NonExtreme Wild Card,,date,expName,psychopyVersion,OS,frameRate,PROLIFIC_PID,STUDY_ID,SESSION_ID,mouse_2.x,mouse_2.y,mouse_2.leftButton,mouse_2.midButton,mouse_2.rightButton,mouse_2.clicked_name,Trial Type,Left Option Image,Right Option Image,Chosen Door,mouse.x,mouse.y,mouse.leftButton,mouse.midButton,mouse.rightButton,mouse.time,mouse.clicked_name,Feedback,Cumulative Reward,Block,trial.thisRepN,trial.thisTrialN,trial.thisN,trial.thisIndex,trial.ran,blocks.thisRepN,blocks.thisTrialN,blocks.thisN,blocks.thisIndex,blocks.ran,Money conversion,First Outcome Reported,Shown Door (First Outcome),Displayed Image (First Outcome),outcomes.thisRepN,outcomes.thisTrialN,outcomes.thisN,outcomes.thisIndex,outcomes.ran,judgments.thisRepN,judgments.thisTrialN,judgments.thisN,judgments.thisIndex,judgments.ran,freqMouse.x,freqMouse.y,freqMouse.leftButton,freqMouse.midButton,freqMouse.rightButton,freqMouse.clicked_name,FQJ for first outcome,FQJ for second outcome,Shown Door,Displayed Image,trials.thisRepN,trials.thisTrialN,trials.thisN,trials.thisIndex,trials.ran,judgBlock.thisRepN,judgBlock.thisTrialN,judgBlock.thisN,judgBlock.thisIndex,judgBlock.ran
0,resources/DR.BMP,resources/DG.BMP,resources/DB.BMP,resources/DP.BMP,resources/DBN.BMP,resources/DY.BMP,,2023-08-16_08h47.03.642,HF_wild_card,2022.2.4,Win32,60.0132029,61502dee7a3a5468adbb2222,64d2fd46c836a06233681665,64dc7eeadaf0b543d8b5d47a,,,,,,,,,,,,,,,,,,,,,,,,,,,,,,,,,,,,,,,,,,,,,,,,,,,,,,,,,,,,,,,,
,,,,,,,,2023-08-16_08h47.03.642,HF_wild_card,2022.2.4,Win32,60.0132029,61502dee7a3a5468adbb2222,64d2fd46c836a06233681665,64dc7eeadaf0b543d8b5d47a,-0.001388889,-0.422222222,1,0,0,agree,,,,,,,,,,,,,,,,,,,,,,,,,,,,,,,,,,,,,,,,,,,,,,,,,,,,,,,,,,
,,,,,,,,2023-08-16_08h47.03.642,HF_wild_card,2022.2.4,Win32,60.0132029,61502dee7a3a5468adbb2222,64d2fd46c836a06233681665,64dc7eeadaf0b543d8b5d47a,,,,,,,,,,,,,,,,,,,,,,,,,,,,,,,,,,,,,,,,,,,,,,,,,,,,,,,,,,,,,,,,
,,,,,,,,2023-08-16_08h47.03.642,HF_wild_card,2022.2.4,Win32,60.0132029,61502dee7a3a5468adbb2222,64d2fd46c836a06233681665,64dc7eeadaf0b543d8b5d47a,,,,,,,sngl,resources/Empty.png,resources/DR.BMP,Door1,0.3875,-0.083333333,1,0,0,1.8136,optionRight,30,30,1,0,0,0,0,1,,,,,,,,,,,,,,,,,,,,,,,,,,,,,,,,,,,,,,,
,,,,,,,,2023-08-16_08h47.03.642,HF_wild_card,2022.2.4,Win32,60.0132029,61502dee7a3a5468adbb2222,64d2fd46c836a06233681665,64dc7eeadaf0b543d8b5d47a,,,,,,,decisionTrl,resources/DB.BMP,resources/DP.BMP,Door3,-0.253472222,-0.075694444,1,0,0,2.3283,optionLeft,70,100,1,1,0,1,0,1,,,,,,,,,,,,,,,,,,,,,,,,,,,,,,,,,,,,,,,
,,,,,,,,2023-08-16_08h47.03.642,HF_wild_card,2022.2.4,Win32,60.0132029,61502dee7a3a5468adbb2222,64d2fd46c836a06233681665,64dc7eeadaf0b543d8b5d47a,,,,,,,decisionTrl,resources/DP.BMP,resources/DB.BMP,Door4,-0.311111111,-0.054861111,1,0,0,2.7462,optionLeft,60,160,1,2,0,2,0,1,,,,,,,,,,,,,,,,,,,,,,,,,,,,,,,,,,,,,,,
,,,,,,,,2023-08-16_08h47.03.642,HF_wild_card,2022.2.4,Win32,60.0132029,61502dee7a3a5468adbb2222,64d2fd46c836a06233681665,64dc7eeadaf0b543d8b5d47a,,,,,,,sngl,resources/DG.BMP,resources/Empty.png,Door2,-0.315277778,-0.009722222,1,0,0,0.9199,optionLeft,40,200,1,3,0,3,0,1,,,,,,,,,,,,,,,,,,,,,,,,,,,,,,,,,,,,,,,
,,,,,,,,2023-08-16_08h47.03.642,HF_wild_card,2022.2.4,Win32,60.0132029,61502dee7a3a5468adbb2222,64d2fd46c836a06233681665,64dc7eeadaf0b543d8b5d47a,,,,,,,ctch,resources/DG.BMP,resources/DB.BMP,Door3,0.338194444,-0.047222222,1,0,0,1.7037,optionRight,70,270,1,4,0,4,0,1,,,,,,,,,,,,,,,,,,,,,,,,,,,,,,,,,,,,,,,
,,,,,,,,2023-08-16_08h47.03.642,HF_wild_card,2022.2.4,Win32,60.0132029,61502dee7a3a5468adbb2222,64d2fd46c836a06233681665,64dc7eeadaf0b543d8b5d47a,,,,,,,decisionTrl,resources/DR.BMP,resources/DG.BMP,Door1,-0.303472222,-0.009722222,1,0,0,1.7867,optionLeft,30,300,1,5,0,5,0,1,,,,,,,,,,,,,,,,,,,,,,,,,,,,,,,,,,,,,,,
,,,,,,,,2023-08-16_08h47.03.642,HF_wild_card,2022.2.4,Win32,60.0132029,61502dee7a3a5468adbb2222,64d2fd46c836a06233681665,64dc7eeadaf0b543d8b5d47a,,,,,,,ctch,resources/DB.BMP,resources/DG.BMP,Door3,-0.33125,-0.013194444,1,0,0,1.0869,optionLeft,70,370,1,6,0,6,0,1,,,,,,,,,,,,,,,,,,,,,,,,,,,,,,,,,,,,,,,
,,,,,,,,2023-08-16_08h47.03.642,HF_wild_card,2022.2.4,Win32,60.0132029,61502dee7a3a5468adbb2222,64d2fd46c836a06233681665,64dc7eeadaf0b543d8b5d47a,,,,,,,decisionTrl,resources/DBN.BMP,resources/DG.BMP,WildCard_Ex,-0.294444444,-0.011805556,1,0,0,1.2383,optionLeft,5,375,1,7,0,7,0,1,,,,,,,,,,,,,,,,,,,,,,,,,,,,,,,,,,,,,,,
,,,,,,,,2023-08-16_08h47.03.642,HF_wild_card,2022.2.4,Win32,60.0132029,61502dee7a3a5468adbb2222,64d2fd46c836a06233681665,64dc7eeadaf0b543d8b5d47a,,,,,,,decisionTrl,resources/DR.BMP,resources/DBN.BMP,Door1,-0.25625,-0.015277778,1,0,0,0.9932,optionLeft,30,405,1,8,0,8,0,1,,,,,,,,,,,,,,,,,,,,,,,,,,,,,,,,,,,,,,,
,,,,,,,,2023-08-16_08h47.03.642,HF_wild_card,2022.2.4,Win32,60.0132029,61502dee7a3a5468adbb2222,64d2fd46c836a06233681665,64dc7eeadaf0b543d8b5d47a,,,,,,,decisionTrl,resources/DG.BMP,resources/DR.BMP,Door2,-0.280555556,-0.003472222,1,0,0,0.8877,optionLeft,20,425,1,9,0,9,0,1,,,,,,,,,,,,,,,,,,,,,,,,,,,,,,,,,,,,,,,
,,,,,,,,2023-08-16_08h47.03.642,HF_wild_card,2022.2.4,Win32,60.0132029,61502dee7a3a5468adbb2222,64d2fd46c836a06233681665,64dc7eeadaf0b543d8b5d47a,,,,,,,ctch,resources/DG.BMP,resources/DB.BMP,Door3,0.257638889,-0.026388889,1,0,0,0.938,optionRight,70,495,1,10,0,10,0,1,,,,,,,,,,,,,,,,,,,,,,,,,,,,,,,,,,,,,,,
,,,,,,,,2023-08-16_08h47.03.642,HF_wild_card,2022.2.4,Win32,60.0132029,61502dee7a3a5468adbb2222,64d2fd46c836a06233681665,64dc7eeadaf0b543d8b5d47a,,,,,,,decisionTrl,resources/DR.BMP,resources/DG.BMP,Door2,0.352083333,-0.032638889,1,0,0,0.9412,optionRight,40,535,1,11,0,11,0,1,,,,,,,,,,,,,,,,,,,,,,,,,,,,,,,,,,,,,,,
,,,,,,,,2023-08-16_08h47.03.642,HF_wild_card,2022.2.4,Win32,60.0132029,61502dee7a3a5468adbb2222,64d2fd46c836a06233681665,64dc7eeadaf0b543d8b5d47a,,,,,,,sngl,resources/DBN.BMP,resources/Empty.png,WildCard_Ex,-0.392361111,0,1,0,0,1.2852,optionLeft,95,630,1,12,0,12,0,1,,,,,,,,,,,,,,,,,,,,,,,,,,,,,,,,,,,,,,,
,,,,,,,,2023-08-16_08h47.03.642,HF_wild_card,2022.2.4,Win32,60.0132029,61502dee7a3a5468adbb2222,64d2fd46c836a06233681665,64dc7eeadaf0b543d8b5d47a,,,,,,,ctch,resources/DR.BMP,resources/DP.BMP,Door4,0.215277778,-0.018055556,1,0,0,1.1394,optionRight,60,690,1,13,0,13,0,1,,,,,,,,,,,,,,,,,,,,,,,,,,,,,,,,,,,,,,,
,,,,,,,,2023-08-16_08h47.03.642,HF_wild_card,2022.2.4,Win32,60.0132029,61502dee7a3a5468adbb2222,64d2fd46c836a06233681665,64dc7eeadaf0b543d8b5d47a,,,,,,,decisionTrl,resources/DB.BMP,resources/DP.BMP,Door3,-0.255555556,-0.040972222,1,0,0,0.9087,optionLeft,70,760,1,14,0,14,0,1,,,,,,,,,,,,,,,,,,,,,,,,,,,,,,,,,,,,,,,
,,,,,,,,2023-08-16_08h47.03.642,HF_wild_card,2022.2.4,Win32,60.0132029,61502dee7a3a5468adbb2222,64d2fd46c836a06233681665,64dc7eeadaf0b543d8b5d47a,,,,,,,ctch,resources/DR.BMP,resources/DP.BMP,Door4,0.322916667,-0.04375,1,0,0,1.2137,optionRight,80,840,1,15,0,15,0,1,,,,,,,,,,,,,,,,,,,,,,,,,,,,,,,,,,,,,,,
,,,,,,,,2023-08-16_08h47.03.642,HF_wild_card,2022.2.4,Win32,60.0132029,61502dee7a3a5468adbb2222,64d2fd46c836a06233681665,64dc7eeadaf0b543d8b5d47a,,,,,,,decisionTrl,resources/DP.BMP,resources/DB.BMP,Door4,-0.291666667,-0.022222222,1,0,0,0.7826,optionLeft,80,920,1,16,0,16,0,1,,,,,,,,,,,,,,,,,,,,,,,,,,,,,,,,,,,,,,,
,,,,,,,,2023-08-16_08h47.03.642,HF_wild_card,2022.2.4,Win32,60.0132029,61502dee7a3a5468adbb2222,64d2fd46c836a06233681665,64dc7eeadaf0b543d8b5d47a,,,,,,,decisionTrl,resources/DB.BMP,resources/DP.BMP,Door3,-0.309027778,-0.028472222,1,0,0,1.3146,optionLeft,70,990,1,17,0,17,0,1,,,,,,,,,,,,,,,,,,,,,,,,,,,,,,,,,,,,,,,
,,,,,,,,2023-08-16_08h47.03.642,HF_wild_card,2022.2.4,Win32,60.0132029,61502dee7a3a5468adbb2222,64d2fd46c836a06233681665,64dc7eeadaf0b543d8b5d47a,,,,,,,sngl,resources/DP.BMP,resources/Empty.png,Door4,-0.2375,-0.020138889,1,0,0,0.6705,optionLeft,80,1070,1,18,0,18,0,1,,,,,,,,,,,,,,,,,,,,,,,,,,,,,,,,,,,,,,,
,,,,,,,,2023-08-16_08h47.03.642,HF_wild_card,2022.2.4,Win32,60.0132029,61502dee7a3a5468adbb2222,64d2fd46c836a06233681665,64dc7eeadaf0b543d8b5d47a,,,,,,,ctch,resources/DB.BMP,resources/DG.BMP,Door2,0.3,-0.039583333,1,0,0,1.1052,optionRight,20,1090,1,19,0,19,0,1,,,,,,,,,,,,,,,,,,,,,,,,,,,,,,,,,,,,,,,
,,,,,,,,2023-08-16_08h47.03.642,HF_wild_card,2022.2.4,Win32,60.0132029,61502dee7a3a5468adbb2222,64d2fd46c836a06233681665,64dc7eeadaf0b543d8b5d47a,,,,,,,decisionTrl,resources/DP.BMP,resources/DB.BMP,Door3,0.313194444,-0.063194444,1,0,0,0.948,optionRight,70,1160,1,20,0,20,0,1,,,,,,,,,,,,,,,,,,,,,,,,,,,,,,,,,,,,,,,
,,,,,,,,2023-08-16_08h47.03.642,HF_wild_card,2022.2.4,Win32,60.0132029,61502dee7a3a5468adbb2222,64d2fd46c836a06233681665,64dc7eeadaf0b543d8b5d47a,,,,,,,decisionTrl,resources/DB.BMP,resources/DP.BMP,Door3,-0.258333333,-0.027777778,1,0,0,0.6581,optionLeft,70,1230,1,21,0,21,0,1,,,,,,,,,,,,,,,,,,,,,,,,,,,,,,,,,,,,,,,
,,,,,,,,2023-08-16_08h47.03.642,HF_wild_card,2022.2.4,Win32,60.0132029,61502dee7a3a5468adbb2222,64d2fd46c836a06233681665,64dc7eeadaf0b543d8b5d47a,,,,,,,sngl,resources/Empty.png,resources/DBN.BMP,WildCard_Ex,0.205555556,-0.022222222,1,0,0,0.8958,optionRight,95,1325,1,22,0,22,0,1,,,,,,,,,,,,,,,,,,,,,,,,,,,,,,,,,,,,,,,
,,,,,,,,2023-08-16_08h47.03.642,HF_wild_card,2022.2.4,Win32,60.0132029,61502dee7a3a5468adbb2222,64d2fd46c836a06233681665,64dc7eeadaf0b543d8b5d47a,,,,,,,sngl,resources/Empty.png,resources/DB.BMP,Door3,0.247222222,-0.018055556,1,0,0,0.7971,optionRight,70,1395,1,23,0,23,0,1,,,,,,,,,,,,,,,,,,,,,,,,,,,,,,,,,,,,,,,
,,,,,,,,2023-08-16_08h47.03.642,HF_wild_card,2022.2.4,Win32,60.0132029,61502dee7a3a5468adbb2222,64d2fd46c836a06233681665,64dc7eeadaf0b543d8b5d47a,,,,,,,sngl,resources/DBN.BMP,resources/Empty.png,WildCard_Ex,-0.26875,-0.010416667,1,0,0,0.8473,optionLeft,5,1400,1,24,0,24,0,1,,,,,,,,,,,,,,,,,,,,,,,,,,,,,,,,,,,,,,,
,,,,,,,,2023-08-16_08h47.03.642,HF_wild_card,2022.2.4,Win32,60.0132029,61502dee7a3a5468adbb2222,64d2fd46c836a06233681665,64dc7eeadaf0b543d8b5d47a,,,,,,,decisionTrl,resources/DG.BMP,resources/DR.BMP,Door2,-0.285416667,-0.009027778,1,0,0,1.7218,optionLeft,20,1420,1,25,0,25,0,1,,,,,,,,,,,,,,,,,,,,,,,,,,,,,,,,,,,,,,,
,,,,,,,,2023-08-16_08h47.03.642,HF_wild_card,2022.2.4,Win32,60.0132029,61502dee7a3a5468adbb2222,64d2fd46c836a06233681665,64dc7eeadaf0b543d8b5d47a,,,,,,,sngl,resources/Empty.png,resources/DG.BMP,Door2,0.236111111,-0.022916667,1,0,0,0.8799,optionRight,20,1440,1,26,0,26,0,1,,,,,,,,,,,,,,,,,,,,,,,,,,,,,,,,,,,,,,,
,,,,,,,,2023-08-16_08h47.03.642,HF_wild_card,2022.2.4,Win32,60.0132029,61502dee7a3a5468adbb2222,64d2fd46c836a06233681665,64dc7eeadaf0b543d8b5d47a,,,,,,,sngl,resources/DR.BMP,resources/Empty.png,Door1,-0.269444444,-0.025,1,0,0,0.7051,optionLeft,30,1470,1,27,0,27,0,1,,,,,,,,,,,,,,,,,,,,,,,,,,,,,,,,,,,,,,,
,,,,,,,,2023-08-16_08h47.03.642,HF_wild_card,2022.2.4,Win32,60.0132029,61502dee7a3a5468adbb2222,64d2fd46c836a06233681665,64dc7eeadaf0b543d8b5d47a,,,,,,,decisionTrl,resources/DG.BMP,resources/DR.BMP,Door1,0.272222222,-0.025,1,0,0,1.8555,optionRight,30,1500,1,28,0,28,0,1,,,,,,,,,,,,,,,,,,,,,,,,,,,,,,,,,,,,,,,
,,,,,,,,2023-08-16_08h47.03.642,HF_wild_card,2022.2.4,Win32,60.0132029,61502dee7a3a5468adbb2222,64d2fd46c836a06233681665,64dc7eeadaf0b543d8b5d47a,,,,,,,decisionTrl,resources/DR.BMP,resources/DG.BMP,Door1,-0.259027778,-0.019444444,1,0,0,0.8978,optionLeft,30,1530,1,29,0,29,0,1,,,,,,,,,,,,,,,,,,,,,,,,,,,,,,,,,,,,,,,
,,,,,,,,2023-08-16_08h47.03.642,HF_wild_card,2022.2.4,Win32,60.0132029,61502dee7a3a5468adbb2222,64d2fd46c836a06233681665,64dc7eeadaf0b543d8b5d47a,,,,,,,decisionTrl,resources/DBN.BMP,resources/DB.BMP,Door3,0.31875,-0.023611111,1,0,0,1.8549,optionRight,70,1600,1,30,0,30,0,1,,,,,,,,,,,,,,,,,,,,,,,,,,,,,,,,,,,,,,,
,,,,,,,,2023-08-16_08h47.03.642,HF_wild_card,2022.2.4,Win32,60.0132029,61502dee7a3a5468adbb2222,64d2fd46c836a06233681665,64dc7eeadaf0b543d8b5d47a,,,,,,,decisionTrl,resources/DR.BMP,resources/DG.BMP,Door1,-0.261805556,-0.01875,1,0,0,1.7013,optionLeft,30,1630,1,31,0,31,0,1,,,,,,,,,,,,,,,,,,,,,,,,,,,,,,,,,,,,,,,
,,,,,,,,2023-08-16_08h47.03.642,HF_wild_card,2022.2.4,Win32,60.0132029,61502dee7a3a5468adbb2222,64d2fd46c836a06233681665,64dc7eeadaf0b543d8b5d47a,,,,,,,sngl,resources/Empty.png,resources/DP.BMP,Door4,0.272222222,-0.028472222,1,0,0,0.7478,optionRight,60,1690,1,32,0,32,0,1,,,,,,,,,,,,,,,,,,,,,,,,,,,,,,,,,,,,,,,
,,,,,,,,2023-08-16_08h47.03.642,HF_wild_card,2022.2.4,Win32,60.0132029,61502dee7a3a5468adbb2222,64d2fd46c836a06233681665,64dc7eeadaf0b543d8b5d47a,,,,,,,decisionTrl,resources/DG.BMP,resources/DBN.BMP,WildCard_Ex,0.206944444,0.008333333,1,0,0,1.0196,optionRight,95,1785,1,33,0,33,0,1,,,,,,,,,,,,,,,,,,,,,,,,,,,,,,,,,,,,,,,
,,,,,,,,2023-08-16_08h47.03.642,HF_wild_card,2022.2.4,Win32,60.0132029,61502dee7a3a5468adbb2222,64d2fd46c836a06233681665,64dc7eeadaf0b543d8b5d47a,,,,,,,decisionTrl,resources/DB.BMP,resources/DBN.BMP,WildCard_Ex,0.202777778,0.014583333,1,0,0,0.7269,optionRight,5,1790,1,34,0,34,0,1,,,,,,,,,,,,,,,,,,,,,,,,,,,,,,,,,,,,,,,
,,,,,,,,2023-08-16_08h47.03.642,HF_wild_card,2022.2.4,Win32,60.0132029,61502dee7a3a5468adbb2222,64d2fd46c836a06233681665,64dc7eeadaf0b543d8b5d47a,,,,,,,decisionTrl,resources/DP.BMP,resources/DBN.BMP,Door4,-0.23125,-0.023611111,1,0,0,0.7939,optionLeft,80,1870,1,35,0,35,0,1,,,,,,,,,,,,,,,,,,,,,,,,,,,,,,,,,,,,,,,
,,,,,,,,2023-08-16_08h47.03.642,HF_wild_card,2022.2.4,Win32,60.0132029,61502dee7a3a5468adbb2222,64d2fd46c836a06233681665,64dc7eeadaf0b543d8b5d47a,,,,,,,decisionTrl,resources/DBN.BMP,resources/DP.BMP,Door4,0.214583333,0.002777778,1,0,0,0.8542,optionRight,80,1950,1,36,0,36,0,1,,,,,,,,,,,,,,,,,,,,,,,,,,,,,,,,,,,,,,,
,,,,,,,,2023-08-16_08h47.03.642,HF_wild_card,2022.2.4,Win32,60.0132029,61502dee7a3a5468adbb2222,64d2fd46c836a06233681665,64dc7eeadaf0b543d8b5d47a,,,,,,,decisionTrl,resources/DP.BMP,resources/DB.BMP,Door4,-0.261805556,-0.005555556,1,0,0,0.6326,optionLeft,60,2010,1,37,0,37,0,1,,,,,,,,,,,,,,,,,,,,,,,,,,,,,,,,,,,,,,,
,,,,,,,,2023-08-16_08h47.03.642,HF_wild_card,2022.2.4,Win32,60.0132029,61502dee7a3a5468adbb2222,64d2fd46c836a06233681665,64dc7eeadaf0b543d8b5d47a,,,,,,,ctch,resources/DP.BMP,resources/DR.BMP,Door4,-0.322222222,-0.001388889,1,0,0,1.3085,optionLeft,80,2090,1,38,0,38,0,1,,,,,,,,,,,,,,,,,,,,,,,,,,,,,,,,,,,,,,,
,,,,,,,,2023-08-16_08h47.03.642,HF_wild_card,2022.2.4,Win32,60.0132029,61502dee7a3a5468adbb2222,64d2fd46c836a06233681665,64dc7eeadaf0b543d8b5d47a,,,,,,,ctch,resources/DP.BMP,resources/DR.BMP,Door4,-0.240277778,0.00625,1,0,0,1.0395,optionLeft,60,2150,1,39,0,39,0,1,,,,,,,,,,,,,,,,,,,,,,,,,,,,,,,,,,,,,,,
,,,,,,,,2023-08-16_08h47.03.642,HF_wild_card,2022.2.4,Win32,60.0132029,61502dee7a3a5468adbb2222,64d2fd46c836a06233681665,64dc7eeadaf0b543d8b5d47a,,,,,,,decisionTrl,resources/DG.BMP,resources/DR.BMP,Door1,0.2625,0.000694444,1,0,0,1.5366,optionRight,30,2180,1,40,0,40,0,1,,,,,,,,,,,,,,,,,,,,,,,,,,,,,,,,,,,,,,,
,,,,,,,,2023-08-16_08h47.03.642,HF_wild_card,2022.2.4,Win32,60.0132029,61502dee7a3a5468adbb2222,64d2fd46c836a06233681665,64dc7eeadaf0b543d8b5d47a,,,,,,,sngl,resources/DB.BMP,resources/Empty.png,Door3,-0.296527778,-0.004166667,1,0,0,0.6149,optionLeft,70,2250,1,41,0,41,0,1,,,,,,,,,,,,,,,,,,,,,,,,,,,,,,,,,,,,,,,
,,,,,,,,2023-08-16_08h47.03.642,HF_wild_card,2022.2.4,Win32,60.0132029,61502dee7a3a5468adbb2222,64d2fd46c836a06233681665,64dc7eeadaf0b543d8b5d47a,,,,,,,sngl,resources/Empty.png,resources/DBN.BMP,WildCard_Ex,0.248611111,-0.002083333,1,0,0,0.681,optionRight,5,2255,1,42,0,42,0,1,,,,,,,,,,,,,,,,,,,,,,,,,,,,,,,,,,,,,,,
,,,,,,,,2023-08-16_08h47.03.642,HF_wild_card,2022.2.4,Win32,60.0132029,61502dee7a3a5468adbb2222,64d2fd46c836a06233681665,64dc7eeadaf0b543d8b5d47a,,,,,,,decisionTrl,resources/DBN.BMP,resources/DR.BMP,WildCard_Ex,-0.166666667,0,1,0,0,0.6843,optionLeft,95,2350,1,43,0,43,0,1,,,,,,,,,,,,,,,,,,,,,,,,,,,,,,,,,,,,,,,
,,,,,,,,2023-08-16_08h47.03.642,HF_wild_card,2022.2.4,Win32,60.0132029,61502dee7a3a5468adbb2222,64d2fd46c836a06233681665,64dc7eeadaf0b543d8b5d47a,,,,,,,,,,,,,,,,,,,,,,,,,,0,0,0,0,1,,,,,,,,,,,,,,,,,,,,,,,,,,,,,,,,,,
,,,,,,,,2023-08-16_08h47.03.642,HF_wild_card,2022.2.4,Win32,60.0132029,61502dee7a3a5468adbb2222,64d2fd46c836a06233681665,64dc7eeadaf0b543d8b5d47a,,,,,,,ctch,resources/DG.BMP,resources/DB.BMP,Door3,0.383333333,-0.027777778,1,0,0,0.8638,optionRight,70,2420,2,0,0,0,0,1,,,,,,,,,,,,,,,,,,,,,,,,,,,,,,,,,,,,,,,
,,,,,,,,2023-08-16_08h47.03.642,HF_wild_card,2022.2.4,Win32,60.0132029,61502dee7a3a5468adbb2222,64d2fd46c836a06233681665,64dc7eeadaf0b543d8b5d47a,,,,,,,sngl,resources/Empty.png,resources/DR.BMP,Door1,0.214583333,-0.002777778,1,0,0,0.6705,optionRight,30,2450,2,1,0,1,0,1,,,,,,,,,,,,,,,,,,,,,,,,,,,,,,,,,,,,,,,
,,,,,,,,2023-08-16_08h47.03.642,HF_wild_card,2022.2.4,Win32,60.0132029,61502dee7a3a5468adbb2222,64d2fd46c836a06233681665,64dc7eeadaf0b543d8b5d47a,,,,,,,sngl,resources/Empty.png,resources/DB.BMP,Door3,0.164583333,-0.018055556,1,0,0,0.6152,optionRight,70,2520,2,2,0,2,0,1,,,,,,,,,,,,,,,,,,,,,,,,,,,,,,,,,,,,,,,
,,,,,,,,2023-08-16_08h47.03.642,HF_wild_card,2022.2.4,Win32,60.0132029,61502dee7a3a5468adbb2222,64d2fd46c836a06233681665,64dc7eeadaf0b543d8b5d47a,,,,,,,sngl,resources/Empty.png,resources/DBN.BMP,WildCard_Ex,0.196527778,0.011805556,1,0,0,0.5364,optionRight,5,2525,2,3,0,3,0,1,,,,,,,,,,,,,,,,,,,,,,,,,,,,,,,,,,,,,,,
,,,,,,,,2023-08-16_08h47.03.642,HF_wild_card,2022.2.4,Win32,60.0132029,61502dee7a3a5468adbb2222,64d2fd46c836a06233681665,64dc7eeadaf0b543d8b5d47a,,,,,,,decisionTrl,resources/DR.BMP,resources/DG.BMP,Door1,-0.227083333,-0.003472222,1,0,0,0.5611,optionLeft,30,2555,2,4,0,4,0,1,,,,,,,,,,,,,,,,,,,,,,,,,,,,,,,,,,,,,,,
,,,,,,,,2023-08-16_08h47.03.642,HF_wild_card,2022.2.4,Win32,60.0132029,61502dee7a3a5468adbb2222,64d2fd46c836a06233681665,64dc7eeadaf0b543d8b5d47a,,,,,,,ctch,resources/DB.BMP,resources/DG.BMP,Door3,-0.239583333,-0.004861111,1,0,0,0.5045,optionLeft,70,2625,2,5,0,5,0,1,,,,,,,,,,,,,,,,,,,,,,,,,,,,,,,,,,,,,,,
,,,,,,,,2023-08-16_08h47.03.642,HF_wild_card,2022.2.4,Win32,60.0132029,61502dee7a3a5468adbb2222,64d2fd46c836a06233681665,64dc7eeadaf0b543d8b5d47a,,,,,,,decisionTrl,resources/DP.BMP,resources/DB.BMP,Door3,0.227083333,0.001388889,1,0,0,0.5354,optionRight,70,2695,2,6,0,6,0,1,,,,,,,,,,,,,,,,,,,,,,,,,,,,,,,,,,,,,,,
,,,,,,,,2023-08-16_08h47.03.642,HF_wild_card,2022.2.4,Win32,60.0132029,61502dee7a3a5468adbb2222,64d2fd46c836a06233681665,64dc7eeadaf0b543d8b5d47a,,,,,,,decisionTrl,resources/DR.BMP,resources/DG.BMP,Door1,-0.170138889,-0.029861111,1,0,0,0.4823,optionLeft,30,2725,2,7,0,7,0,1,,,,,,,,,,,,,,,,,,,,,,,,,,,,,,,,,,,,,,,
,,,,,,,,2023-08-16_08h47.03.642,HF_wild_card,2022.2.4,Win32,60.0132029,61502dee7a3a5468adbb2222,64d2fd46c836a06233681665,64dc7eeadaf0b543d8b5d47a,,,,,,,decisionTrl,resources/DP.BMP,resources/DB.BMP,Door4,-0.302777778,-0.01875,1,0,0,0.5231,optionLeft,60,2785,2,8,0,8,0,1,,,,,,,,,,,,,,,,,,,,,,,,,,,,,,,,,,,,,,,
,,,,,,,,2023-08-16_08h47.03.642,HF_wild_card,2022.2.4,Win32,60.0132029,61502dee7a3a5468adbb2222,64d2fd46c836a06233681665,64dc7eeadaf0b543d8b5d47a,,,,,,,decisionTrl,resources/DB.BMP,resources/DBN.BMP,Door3,-0.181944444,-0.004861111,1,0,0,0.5481,optionLeft,70,2855,2,9,0,9,0,1,,,,,,,,,,,,,,,,,,,,,,,,,,,,,,,,,,,,,,,
,,,,,,,,2023-08-16_08h47.03.642,HF_wild_card,2022.2.4,Win32,60.0132029,61502dee7a3a5468adbb2222,64d2fd46c836a06233681665,64dc7eeadaf0b543d8b5d47a,,,,,,,ctch,resources/DP.BMP,resources/DR.BMP,Door4,-0.419444444,0,1,0,0,1.0826,optionLeft,60,2915,2,10,0,10,0,1,,,,,,,,,,,,,,,,,,,,,,,,,,,,,,,,,,,,,,,
,,,,,,,,2023-08-16_08h47.03.642,HF_wild_card,2022.2.4,Win32,60.0132029,61502dee7a3a5468adbb2222,64d2fd46c836a06233681665,64dc7eeadaf0b543d8b5d47a,,,,,,,decisionTrl,resources/DG.BMP,resources/DR.BMP,Door2,-0.277083333,0.003472222,1,0,0,1.1647,optionLeft,20,2935,2,11,0,11,0,1,,,,,,,,,,,,,,,,,,,,,,,,,,,,,,,,,,,,,,,
,,,,,,,,2023-08-16_08h47.03.642,HF_wild_card,2022.2.4,Win32,60.0132029,61502dee7a3a5468adbb2222,64d2fd46c836a06233681665,64dc7eeadaf0b543d8b5d47a,,,,,,,sngl,resources/Empty.png,resources/DBN.BMP,WildCard_Ex,0.205555556,-0.003472222,1,0,0,0.6561,optionRight,95,3030,2,12,0,12,0,1,,,,,,,,,,,,,,,,,,,,,,,,,,,,,,,,,,,,,,,
,,,,,,,,2023-08-16_08h47.03.642,HF_wild_card,2022.2.4,Win32,60.0132029,61502dee7a3a5468adbb2222,64d2fd46c836a06233681665,64dc7eeadaf0b543d8b5d47a,,,,,,,decisionTrl,resources/DR.BMP,resources/DG.BMP,Door1,-0.284722222,0,1,0,0,1.6868,optionLeft,30,3060,2,13,0,13,0,1,,,,,,,,,,,,,,,,,,,,,,,,,,,,,,,,,,,,,,,
,,,,,,,,2023-08-16_08h47.03.642,HF_wild_card,2022.2.4,Win32,60.0132029,61502dee7a3a5468adbb2222,64d2fd46c836a06233681665,64dc7eeadaf0b543d8b5d47a,,,,,,,sngl,resources/DBN.BMP,resources/Empty.png,WildCard_Ex,-0.217361111,-0.000694444,1,0,0,0.6989,optionLeft,95,3155,2,14,0,14,0,1,,,,,,,,,,,,,,,,,,,,,,,,,,,,,,,,,,,,,,,
,,,,,,,,2023-08-16_08h47.03.642,HF_wild_card,2022.2.4,Win32,60.0132029,61502dee7a3a5468adbb2222,64d2fd46c836a06233681665,64dc7eeadaf0b543d8b5d47a,,,,,,,ctch,resources/DR.BMP,resources/DP.BMP,Door4,0.328472222,0.003472222,1,0,0,0.977,optionRight,60,3215,2,15,0,15,0,1,,,,,,,,,,,,,,,,,,,,,,,,,,,,,,,,,,,,,,,
,,,,,,,,2023-08-16_08h47.03.642,HF_wild_card,2022.2.4,Win32,60.0132029,61502dee7a3a5468adbb2222,64d2fd46c836a06233681665,64dc7eeadaf0b543d8b5d47a,,,,,,,sngl,resources/DBN.BMP,resources/Empty.png,WildCard_Ex,-0.225,-0.000694444,1,0,0,0.6262,optionLeft,5,3220,2,16,0,16,0,1,,,,,,,,,,,,,,,,,,,,,,,,,,,,,,,,,,,,,,,
,,,,,,,,2023-08-16_08h47.03.642,HF_wild_card,2022.2.4,Win32,60.0132029,61502dee7a3a5468adbb2222,64d2fd46c836a06233681665,64dc7eeadaf0b543d8b5d47a,,,,,,,decisionTrl,resources/DBN.BMP,resources/DB.BMP,Door3,0.313888889,-0.015277778,1,0,0,1.2538,optionRight,70,3290,2,17,0,17,0,1,,,,,,,,,,,,,,,,,,,,,,,,,,,,,,,,,,,,,,,
,,,,,,,,2023-08-16_08h47.03.642,HF_wild_card,2022.2.4,Win32,60.0132029,61502dee7a3a5468adbb2222,64d2fd46c836a06233681665,64dc7eeadaf0b543d8b5d47a,,,,,,,decisionTrl,resources/DB.BMP,resources/DP.BMP,Door3,-0.208333333,-0.017361111,1,0,0,0.6658,optionLeft,70,3360,2,18,0,18,0,1,,,,,,,,,,,,,,,,,,,,,,,,,,,,,,,,,,,,,,,
,,,,,,,,2023-08-16_08h47.03.642,HF_wild_card,2022.2.4,Win32,60.0132029,61502dee7a3a5468adbb2222,64d2fd46c836a06233681665,64dc7eeadaf0b543d8b5d47a,,,,,,,decisionTrl,resources/DBN.BMP,resources/DR.BMP,WildCard_Ex,-0.184027778,0,1,0,0,1.0128,optionLeft,95,3455,2,19,0,19,0,1,,,,,,,,,,,,,,,,,,,,,,,,,,,,,,,,,,,,,,,
,,,,,,,,2023-08-16_08h47.03.642,HF_wild_card,2022.2.4,Win32,60.0132029,61502dee7a3a5468adbb2222,64d2fd46c836a06233681665,64dc7eeadaf0b543d8b5d47a,,,,,,,decisionTrl,resources/DP.BMP,resources/DB.BMP,Door3,0.258333333,-0.004861111,1,0,0,0.8546,optionRight,70,3525,2,20,0,20,0,1,,,,,,,,,,,,,,,,,,,,,,,,,,,,,,,,,,,,,,,
,,,,,,,,2023-08-16_08h47.03.642,HF_wild_card,2022.2.4,Win32,60.0132029,61502dee7a3a5468adbb2222,64d2fd46c836a06233681665,64dc7eeadaf0b543d8b5d47a,,,,,,,sngl,resources/DR.BMP,resources/Empty.png,Door1,-0.255555556,-0.004861111,1,0,0,0.6618,optionLeft,30,3555,2,21,0,21,0,1,,,,,,,,,,,,,,,,,,,,,,,,,,,,,,,,,,,,,,,
,,,,,,,,2023-08-16_08h47.03.642,HF_wild_card,2022.2.4,Win32,60.0132029,61502dee7a3a5468adbb2222,64d2fd46c836a06233681665,64dc7eeadaf0b543d8b5d47a,,,,,,,ctch,resources/DP.BMP,resources/DR.BMP,Door4,-0.25625,0.000694444,1,0,0,0.8917,optionLeft,80,3635,2,22,0,22,0,1,,,,,,,,,,,,,,,,,,,,,,,,,,,,,,,,,,,,,,,
,,,,,,,,2023-08-16_08h47.03.642,HF_wild_card,2022.2.4,Win32,60.0132029,61502dee7a3a5468adbb2222,64d2fd46c836a06233681665,64dc7eeadaf0b543d8b5d47a,,,,,,,decisionTrl,resources/DB.BMP,resources/DP.BMP,Door4,0.213888889,-0.016666667,1,0,0,1.6473,optionRight,80,3715,2,23,0,23,0,1,,,,,,,,,,,,,,,,,,,,,,,,,,,,,,,,,,,,,,,
,,,,,,,,2023-08-16_08h47.03.642,HF_wild_card,2022.2.4,Win32,60.0132029,61502dee7a3a5468adbb2222,64d2fd46c836a06233681665,64dc7eeadaf0b543d8b5d47a,,,,,,,sngl,resources/DB.BMP,resources/Empty.png,Door3,-0.198611111,-0.017361111,1,0,0,0.6094,optionLeft,70,3785,2,24,0,24,0,1,,,,,,,,,,,,,,,,,,,,,,,,,,,,,,,,,,,,,,,
,,,,,,,,2023-08-16_08h47.03.642,HF_wild_card,2022.2.4,Win32,60.0132029,61502dee7a3a5468adbb2222,64d2fd46c836a06233681665,64dc7eeadaf0b543d8b5d47a,,,,,,,ctch,resources/DR.BMP,resources/DP.BMP,Door4,0.204166667,-0.01875,1,0,0,1.1953,optionRight,60,3845,2,25,0,25,0,1,,,,,,,,,,,,,,,,,,,,,,,,,,,,,,,,,,,,,,,
,,,,,,,,2023-08-16_08h47.03.642,HF_wild_card,2022.2.4,Win32,60.0132029,61502dee7a3a5468adbb2222,64d2fd46c836a06233681665,64dc7eeadaf0b543d8b5d47a,,,,,,,ctch,resources/DG.BMP,resources/DB.BMP,Door3,0.256944444,0.020833333,1,0,0,0.9921,optionRight,70,3915,2,26,0,26,0,1,,,,,,,,,,,,,,,,,,,,,,,,,,,,,,,,,,,,,,,
,,,,,,,,2023-08-16_08h47.03.642,HF_wild_card,2022.2.4,Win32,60.0132029,61502dee7a3a5468adbb2222,64d2fd46c836a06233681665,64dc7eeadaf0b543d8b5d47a,,,,,,,sngl,resources/Empty.png,resources/DG.BMP,Door2,0.151388889,0.004166667,1,0,0,0.7569,optionRight,40,3955,2,27,0,27,0,1,,,,,,,,,,,,,,,,,,,,,,,,,,,,,,,,,,,,,,,
,,,,,,,,2023-08-16_08h47.03.642,HF_wild_card,2022.2.4,Win32,60.0132029,61502dee7a3a5468adbb2222,64d2fd46c836a06233681665,64dc7eeadaf0b543d8b5d47a,,,,,,,decisionTrl,resources/DG.BMP,resources/DR.BMP,Door2,-0.207638889,-0.002083333,1,0,0,1.2396,optionLeft,40,3995,2,28,0,28,0,1,,,,,,,,,,,,,,,,,,,,,,,,,,,,,,,,,,,,,,,
,,,,,,,,2023-08-16_08h47.03.642,HF_wild_card,2022.2.4,Win32,60.0132029,61502dee7a3a5468adbb2222,64d2fd46c836a06233681665,64dc7eeadaf0b543d8b5d47a,,,,,,,decisionTrl,resources/DB.BMP,resources/DP.BMP,Door4,0.216666667,0.004166667,1,0,0,1.7542,optionRight,80,4075,2,29,0,29,0,1,,,,,,,,,,,,,,,,,,,,,,,,,,,,,,,,,,,,,,,
,,,,,,,,2023-08-16_08h47.03.642,HF_wild_card,2022.2.4,Win32,60.0132029,61502dee7a3a5468adbb2222,64d2fd46c836a06233681665,64dc7eeadaf0b543d8b5d47a,,,,,,,sngl,resources/DG.BMP,resources/Empty.png,Door2,-0.248611111,-0.011805556,1,0,0,0.6442,optionLeft,20,4095,2,30,0,30,0,1,,,,,,,,,,,,,,,,,,,,,,,,,,,,,,,,,,,,,,,
,,,,,,,,2023-08-16_08h47.03.642,HF_wild_card,2022.2.4,Win32,60.0132029,61502dee7a3a5468adbb2222,64d2fd46c836a06233681665,64dc7eeadaf0b543d8b5d47a,,,,,,,decisionTrl,resources/DP.BMP,resources/DBN.BMP,Door4,-0.331944444,-0.022222222,1,0,0,1.5038,optionLeft,60,4155,2,31,0,31,0,1,,,,,,,,,,,,,,,,,,,,,,,,,,,,,,,,,,,,,,,
,,,,,,,,2023-08-16_08h47.03.642,HF_wild_card,2022.2.4,Win32,60.0132029,61502dee7a3a5468adbb2222,64d2fd46c836a06233681665,64dc7eeadaf0b543d8b5d47a,,,,,,,sngl,resources/DP.BMP,resources/Empty.png,Door4,-0.305555556,-0.024305556,1,0,0,0.6162,optionLeft,60,4215,2,32,0,32,0,1,,,,,,,,,,,,,,,,,,,,,,,,,,,,,,,,,,,,,,,
,,,,,,,,2023-08-16_08h47.03.642,HF_wild_card,2022.2.4,Win32,60.0132029,61502dee7a3a5468adbb2222,64d2fd46c836a06233681665,64dc7eeadaf0b543d8b5d47a,,,,,,,decisionTrl,resources/DP.BMP,resources/DB.BMP,Door3,0.2,-0.0125,1,0,0,0.8872,optionRight,70,4285,2,33,0,33,0,1,,,,,,,,,,,,,,,,,,,,,,,,,,,,,,,,,,,,,,,
,,,,,,,,2023-08-16_08h47.03.642,HF_wild_card,2022.2.4,Win32,60.0132029,61502dee7a3a5468adbb2222,64d2fd46c836a06233681665,64dc7eeadaf0b543d8b5d47a,,,,,,,ctch,resources/DB.BMP,resources/DG.BMP,Door3,-0.171527778,0.000694444,1,0,0,0.8919,optionLeft,70,4355,2,34,0,34,0,1,,,,,,,,,,,,,,,,,,,,,,,,,,,,,,,,,,,,,,,
,,,,,,,,2023-08-16_08h47.03.642,HF_wild_card,2022.2.4,Win32,60.0132029,61502dee7a3a5468adbb2222,64d2fd46c836a06233681665,64dc7eeadaf0b543d8b5d47a,,,,,,,decisionTrl,resources/DG.BMP,resources/DBN.BMP,WildCard_Ex,0.236805556,-0.002083333,1,0,0,1.0308,optionRight,5,4360,2,35,0,35,0,1,,,,,,,,,,,,,,,,,,,,,,,,,,,,,,,,,,,,,,,
,,,,,,,,2023-08-16_08h47.03.642,HF_wild_card,2022.2.4,Win32,60.0132029,61502dee7a3a5468adbb2222,64d2fd46c836a06233681665,64dc7eeadaf0b543d8b5d47a,,,,,,,decisionTrl,resources/DG.BMP,resources/DR.BMP,Door2,-0.290277778,-0.031944444,1,0,0,2.6752,optionLeft,20,4380,2,36,0,36,0,1,,,,,,,,,,,,,,,,,,,,,,,,,,,,,,,,,,,,,,,
,,,,,,,,2023-08-16_08h47.03.642,HF_wild_card,2022.2.4,Win32,60.0132029,61502dee7a3a5468adbb2222,64d2fd46c836a06233681665,64dc7eeadaf0b543d8b5d47a,,,,,,,decisionTrl,resources/DBN.BMP,resources/DP.BMP,WildCard_Ex,-0.3375,-0.0125,1,0,0,0.8831,optionLeft,95,4475,2,37,0,37,0,1,,,,,,,,,,,,,,,,,,,,,,,,,,,,,,,,,,,,,,,
,,,,,,,,2023-08-16_08h47.03.642,HF_wild_card,2022.2.4,Win32,60.0132029,61502dee7a3a5468adbb2222,64d2fd46c836a06233681665,64dc7eeadaf0b543d8b5d47a,,,,,,,sngl,resources/Empty.png,resources/DP.BMP,Door4,0.2875,-0.015972222,1,0,0,0.6634,optionRight,80,4555,2,38,0,38,0,1,,,,,,,,,,,,,,,,,,,,,,,,,,,,,,,,,,,,,,,
,,,,,,,,2023-08-16_08h47.03.642,HF_wild_card,2022.2.4,Win32,60.0132029,61502dee7a3a5468adbb2222,64d2fd46c836a06233681665,64dc7eeadaf0b543d8b5d47a,,,,,,,decisionTrl,resources/DG.BMP,resources/DR.BMP,Door1,0.252777778,-0.003472222,1,0,0,1.0998,optionRight,30,4585,2,39,0,39,0,1,,,,,,,,,,,,,,,,,,,,,,,,,,,,,,,,,,,,,,,
,,,,,,,,2023-08-16_08h47.03.642,HF_wild_card,2022.2.4,Win32,60.0132029,61502dee7a3a5468adbb2222,64d2fd46c836a06233681665,64dc7eeadaf0b543d8b5d47a,,,,,,,decisionTrl,resources/DR.BMP,resources/DBN.BMP,WildCard_Ex,0.196527778,0.011805556,1,0,0,1.3283,optionRight,5,4590,2,40,0,40,0,1,,,,,,,,,,,,,,,,,,,,,,,,,,,,,,,,,,,,,,,
,,,,,,,,2023-08-16_08h47.03.642,HF_wild_card,2022.2.4,Win32,60.0132029,61502dee7a3a5468adbb2222,64d2fd46c836a06233681665,64dc7eeadaf0b543d8b5d47a,,,,,,,decisionTrl,resources/DR.BMP,resources/DG.BMP,Door1,-0.2375,-0.032638889,1,0,0,1.6867,optionLeft,30,4620,2,41,0,41,0,1,,,,,,,,,,,,,,,,,,,,,,,,,,,,,,,,,,,,,,,
,,,,,,,,2023-08-16_08h47.03.642,HF_wild_card,2022.2.4,Win32,60.0132029,61502dee7a3a5468adbb2222,64d2fd46c836a06233681665,64dc7eeadaf0b543d8b5d47a,,,,,,,decisionTrl,resources/DBN.BMP,resources/DG.BMP,WildCard_Ex,-0.18125,-0.004166667,1,0,0,0.6747,optionLeft,5,4625,2,42,0,42,0,1,,,,,,,,,,,,,,,,,,,,,,,,,,,,,,,,,,,,,,,
,,,,,,,,2023-08-16_08h47.03.642,HF_wild_card,2022.2.4,Win32,60.0132029,61502dee7a3a5468adbb2222,64d2fd46c836a06233681665,64dc7eeadaf0b543d8b5d47a,,,,,,,decisionTrl,resources/DB.BMP,resources/DP.BMP,Door3,-0.213194444,-0.03125,1,0,0,1.2008,optionLeft,70,4695,2,43,0,43,0,1,,,,,,,,,,,,,,,,,,,,,,,,,,,,,,,,,,,,,,,
,,,,,,,,2023-08-16_08h47.03.642,HF_wild_card,2022.2.4,Win32,60.0132029,61502dee7a3a5468adbb2222,64d2fd46c836a06233681665,64dc7eeadaf0b543d8b5d47a,,,,,,,,,,,,,,,,,,,,,,,,,,1,0,1,0,1,,,,,,,,,,,,,,,,,,,,,,,,,,,,,,,,,,
,,,,,,,,2023-08-16_08h47.03.642,HF_wild_card,2022.2.4,Win32,60.0132029,61502dee7a3a5468adbb2222,64d2fd46c836a06233681665,64dc7eeadaf0b543d8b5d47a,,,,,,,decisionTrl,resources/DP.BMP,resources/DB.BMP,Door3,0.242361111,0.024305556,1,0,0,0.9257,optionRight,70,4765,3,0,0,0,0,1,,,,,,,,,,,,,,,,,,,,,,,,,,,,,,,,,,,,,,,
,,,,,,,,2023-08-16_08h47.03.642,HF_wild_card,2022.2.4,Win32,60.0132029,61502dee7a3a5468adbb2222,64d2fd46c836a06233681665,64dc7eeadaf0b543d8b5d47a,,,,,,,sngl,resources/Empty.png,resources/DR.BMP,Door1,0.159027778,0,1,0,0,0.6819,optionRight,30,4795,3,1,0,1,0,1,,,,,,,,,,,,,,,,,,,,,,,,,,,,,,,,,,,,,,,
,,,,,,,,2023-08-16_08h47.03.642,HF_wild_card,2022.2.4,Win32,60.0132029,61502dee7a3a5468adbb2222,64d2fd46c836a06233681665,64dc7eeadaf0b543d8b5d47a,,,,,,,decisionTrl,resources/DB.BMP,resources/DBN.BMP,WildCard_Ex,0.18125,0.004861111,1,0,0,1.3639,optionRight,5,4800,3,2,0,2,0,1,,,,,,,,,,,,,,,,,,,,,,,,,,,,,,,,,,,,,,,
,,,,,,,,2023-08-16_08h47.03.642,HF_wild_card,2022.2.4,Win32,60.0132029,61502dee7a3a5468adbb2222,64d2fd46c836a06233681665,64dc7eeadaf0b543d8b5d47a,,,,,,,sngl,resources/DP.BMP,resources/Empty.png,Door4,-0.238194444,-0.022222222,1,0,0,0.6574,optionLeft,80,4880,3,3,0,3,0,1,,,,,,,,,,,,,,,,,,,,,,,,,,,,,,,,,,,,,,,
,,,,,,,,2023-08-16_08h47.03.642,HF_wild_card,2022.2.4,Win32,60.0132029,61502dee7a3a5468adbb2222,64d2fd46c836a06233681665,64dc7eeadaf0b543d8b5d47a,,,,,,,decisionTrl,resources/DP.BMP,resources/DB.BMP,Door4,-0.227083333,-0.01875,1,0,0,1.2363,optionLeft,60,4940,3,4,0,4,0,1,,,,,,,,,,,,,,,,,,,,,,,,,,,,,,,,,,,,,,,
,,,,,,,,2023-08-16_08h47.03.642,HF_wild_card,2022.2.4,Win32,60.0132029,61502dee7a3a5468adbb2222,64d2fd46c836a06233681665,64dc7eeadaf0b543d8b5d47a,,,,,,,decisionTrl,resources/DB.BMP,resources/DP.BMP,Door3,-0.300694444,0.004861111,1,0,0,0.9149,optionLeft,70,5010,3,5,0,5,0,1,,,,,,,,,,,,,,,,,,,,,,,,,,,,,,,,,,,,,,,
,,,,,,,,2023-08-16_08h47.03.642,HF_wild_card,2022.2.4,Win32,60.0132029,61502dee7a3a5468adbb2222,64d2fd46c836a06233681665,64dc7eeadaf0b543d8b5d47a,,,,,,,decisionTrl,resources/DP.BMP,resources/DBN.BMP,WildCard_Ex,0.2625,0.000694444,1,0,0,1.0598,optionRight,5,5015,3,6,0,6,0,1,,,,,,,,,,,,,,,,,,,,,,,,,,,,,,,,,,,,,,,
,,,,,,,,2023-08-16_08h47.03.642,HF_wild_card,2022.2.4,Win32,60.0132029,61502dee7a3a5468adbb2222,64d2fd46c836a06233681665,64dc7eeadaf0b543d8b5d47a,,,,,,,decisionTrl,resources/DR.BMP,resources/DG.BMP,Door1,-0.258333333,-0.042361111,1,0,0,1.5595,optionLeft,30,5045,3,7,0,7,0,1,,,,,,,,,,,,,,,,,,,,,,,,,,,,,,,,,,,,,,,
,,,,,,,,2023-08-16_08h47.03.642,HF_wild_card,2022.2.4,Win32,60.0132029,61502dee7a3a5468adbb2222,64d2fd46c836a06233681665,64dc7eeadaf0b543d8b5d47a,,,,,,,sngl,resources/Empty.png,resources/DB.BMP,Door3,0.203472222,-0.001388889,1,0,0,0.6732,optionRight,70,5115,3,8,0,8,0,1,,,,,,,,,,,,,,,,,,,,,,,,,,,,,,,,,,,,,,,
,,,,,,,,2023-08-16_08h47.03.642,HF_wild_card,2022.2.4,Win32,60.0132029,61502dee7a3a5468adbb2222,64d2fd46c836a06233681665,64dc7eeadaf0b543d8b5d47a,,,,,,,decisionTrl,resources/DBN.BMP,resources/DR.BMP,WildCard_Ex,-0.19375,-0.029861111,1,0,0,0.7101,optionLeft,5,5120,3,9,0,9,0,1,,,,,,,,,,,,,,,,,,,,,,,,,,,,,,,,,,,,,,,
,,,,,,,,2023-08-16_08h47.03.642,HF_wild_card,2022.2.4,Win32,60.0132029,61502dee7a3a5468adbb2222,64d2fd46c836a06233681665,64dc7eeadaf0b543d8b5d47a,,,,,,,decisionTrl,resources/DB.BMP,resources/DP.BMP,Door3,-0.238888889,-0.018055556,1,0,0,0.9126,optionLeft,70,5190,3,10,0,10,0,1,,,,,,,,,,,,,,,,,,,,,,,,,,,,,,,,,,,,,,,
,,,,,,,,2023-08-16_08h47.03.642,HF_wild_card,2022.2.4,Win32,60.0132029,61502dee7a3a5468adbb2222,64d2fd46c836a06233681665,64dc7eeadaf0b543d8b5d47a,,,,,,,ctch,resources/DP.BMP,resources/DR.BMP,Door4,-0.258333333,-0.029166667,1,0,0,1.1523,optionLeft,80,5270,3,11,0,11,0,1,,,,,,,,,,,,,,,,,,,,,,,,,,,,,,,,,,,,,,,
,,,,,,,,2023-08-16_08h47.03.642,HF_wild_card,2022.2.4,Win32,60.0132029,61502dee7a3a5468adbb2222,64d2fd46c836a06233681665,64dc7eeadaf0b543d8b5d47a,,,,,,,sngl,resources/DG.BMP,resources/Empty.png,Door2,-0.251388889,-0.00625,1,0,0,0.7532,optionLeft,40,5310,3,12,0,12,0,1,,,,,,,,,,,,,,,,,,,,,,,,,,,,,,,,,,,,,,,
,,,,,,,,2023-08-16_08h47.03.642,HF_wild_card,2022.2.4,Win32,60.0132029,61502dee7a3a5468adbb2222,64d2fd46c836a06233681665,64dc7eeadaf0b543d8b5d47a,,,,,,,sngl,resources/Empty.png,resources/DBN.BMP,WildCard_Ex,0.271527778,0.011111111,1,0,0,0.7612,optionRight,5,5315,3,13,0,13,0,1,,,,,,,,,,,,,,,,,,,,,,,,,,,,,,,,,,,,,,,
,,,,,,,,2023-08-16_08h47.03.642,HF_wild_card,2022.2.4,Win32,60.0132029,61502dee7a3a5468adbb2222,64d2fd46c836a06233681665,64dc7eeadaf0b543d8b5d47a,,,,,,,decisionTrl,resources/DBN.BMP,resources/DB.BMP,Door3,0.217361111,-0.024305556,1,0,0,1.048,optionRight,70,5385,3,14,0,14,0,1,,,,,,,,,,,,,,,,,,,,,,,,,,,,,,,,,,,,,,,
,,,,,,,,2023-08-16_08h47.03.642,HF_wild_card,2022.2.4,Win32,60.0132029,61502dee7a3a5468adbb2222,64d2fd46c836a06233681665,64dc7eeadaf0b543d8b5d47a,,,,,,,sngl,resources/Empty.png,resources/DP.BMP,Door4,0.221527778,-0.002777778,1,0,0,0.6709,optionRight,60,5445,3,15,0,15,0,1,,,,,,,,,,,,,,,,,,,,,,,,,,,,,,,,,,,,,,,
,,,,,,,,2023-08-16_08h47.03.642,HF_wild_card,2022.2.4,Win32,60.0132029,61502dee7a3a5468adbb2222,64d2fd46c836a06233681665,64dc7eeadaf0b543d8b5d47a,,,,,,,sngl,resources/DB.BMP,resources/Empty.png,Door3,-0.215972222,-0.018055556,1,0,0,0.5788,optionLeft,70,5515,3,16,0,16,0,1,,,,,,,,,,,,,,,,,,,,,,,,,,,,,,,,,,,,,,,
,,,,,,,,2023-08-16_08h47.03.642,HF_wild_card,2022.2.4,Win32,60.0132029,61502dee7a3a5468adbb2222,64d2fd46c836a06233681665,64dc7eeadaf0b543d8b5d47a,,,,,,,ctch,resources/DG.BMP,resources/DB.BMP,Door3,0.211111111,-0.018055556,1,0,0,0.7638,optionRight,70,5585,3,17,0,17,0,1,,,,,,,,,,,,,,,,,,,,,,,,,,,,,,,,,,,,,,,
,,,,,,,,2023-08-16_08h47.03.642,HF_wild_card,2022.2.4,Win32,60.0132029,61502dee7a3a5468adbb2222,64d2fd46c836a06233681665,64dc7eeadaf0b543d8b5d47a,,,,,,,decisionTrl,resources/DR.BMP,resources/DG.BMP,Door1,-0.2375,-0.011805556,1,0,0,1.3039,optionLeft,30,5615,3,18,0,18,0,1,,,,,,,,,,,,,,,,,,,,,,,,,,,,,,,,,,,,,,,
,,,,,,,,2023-08-16_08h47.03.642,HF_wild_card,2022.2.4,Win32,60.0132029,61502dee7a3a5468adbb2222,64d2fd46c836a06233681665,64dc7eeadaf0b543d8b5d47a,,,,,,,decisionTrl,resources/DG.BMP,resources/DR.BMP,Door1,0.2,-0.015277778,1,0,0,1.3217,optionRight,30,5645,3,19,0,19,0,1,,,,,,,,,,,,,,,,,,,,,,,,,,,,,,,,,,,,,,,
,,,,,,,,2023-08-16_08h47.03.642,HF_wild_card,2022.2.4,Win32,60.0132029,61502dee7a3a5468adbb2222,64d2fd46c836a06233681665,64dc7eeadaf0b543d8b5d47a,,,,,,,decisionTrl,resources/DP.BMP,resources/DB.BMP,Door3,0.277777778,-0.007638889,1,0,0,1.5442,optionRight,70,5715,3,20,0,20,0,1,,,,,,,,,,,,,,,,,,,,,,,,,,,,,,,,,,,,,,,
,,,,,,,,2023-08-16_08h47.03.642,HF_wild_card,2022.2.4,Win32,60.0132029,61502dee7a3a5468adbb2222,64d2fd46c836a06233681665,64dc7eeadaf0b543d8b5d47a,,,,,,,decisionTrl,resources/DG.BMP,resources/DR.BMP,Door1,0.207638889,0.004861111,1,0,0,1.4729,optionRight,30,5745,3,21,0,21,0,1,,,,,,,,,,,,,,,,,,,,,,,,,,,,,,,,,,,,,,,
,,,,,,,,2023-08-16_08h47.03.642,HF_wild_card,2022.2.4,Win32,60.0132029,61502dee7a3a5468adbb2222,64d2fd46c836a06233681665,64dc7eeadaf0b543d8b5d47a,,,,,,,decisionTrl,resources/DG.BMP,resources/DR.BMP,Door1,0.147916667,0.011111111,1,0,0,0.9772,optionRight,30,5775,3,22,0,22,0,1,,,,,,,,,,,,,,,,,,,,,,,,,,,,,,,,,,,,,,,
,,,,,,,,2023-08-16_08h47.03.642,HF_wild_card,2022.2.4,Win32,60.0132029,61502dee7a3a5468adbb2222,64d2fd46c836a06233681665,64dc7eeadaf0b543d8b5d47a,,,,,,,ctch,resources/DG.BMP,resources/DB.BMP,Door3,0.229166667,0.013888889,1,0,0,1.0253,optionRight,70,5845,3,23,0,23,0,1,,,,,,,,,,,,,,,,,,,,,,,,,,,,,,,,,,,,,,,
,,,,,,,,2023-08-16_08h47.03.642,HF_wild_card,2022.2.4,Win32,60.0132029,61502dee7a3a5468adbb2222,64d2fd46c836a06233681665,64dc7eeadaf0b543d8b5d47a,,,,,,,decisionTrl,resources/DR.BMP,resources/DBN.BMP,Door1,-0.26875,-0.013888889,1,0,0,1.2195,optionLeft,30,5875,3,24,0,24,0,1,,,,,,,,,,,,,,,,,,,,,,,,,,,,,,,,,,,,,,,
,,,,,,,,2023-08-16_08h47.03.642,HF_wild_card,2022.2.4,Win32,60.0132029,61502dee7a3a5468adbb2222,64d2fd46c836a06233681665,64dc7eeadaf0b543d8b5d47a,,,,,,,ctch,resources/DB.BMP,resources/DG.BMP,Door3,-0.254861111,-0.022222222,1,0,0,0.9962,optionLeft,70,5945,3,25,0,25,0,1,,,,,,,,,,,,,,,,,,,,,,,,,,,,,,,,,,,,,,,
,,,,,,,,2023-08-16_08h47.03.642,HF_wild_card,2022.2.4,Win32,60.0132029,61502dee7a3a5468adbb2222,64d2fd46c836a06233681665,64dc7eeadaf0b543d8b5d47a,,,,,,,ctch,resources/DR.BMP,resources/DP.BMP,Door4,0.213194444,-0.004861111,1,0,0,0.9966,optionRight,60,6005,3,26,0,26,0,1,,,,,,,,,,,,,,,,,,,,,,,,,,,,,,,,,,,,,,,
,,,,,,,,2023-08-16_08h47.03.642,HF_wild_card,2022.2.4,Win32,60.0132029,61502dee7a3a5468adbb2222,64d2fd46c836a06233681665,64dc7eeadaf0b543d8b5d47a,,,,,,,decisionTrl,resources/DBN.BMP,resources/DG.BMP,WildCard_Ex,-0.156944444,-0.036111111,1,0,0,0.9089,optionLeft,5,6010,3,27,0,27,0,1,,,,,,,,,,,,,,,,,,,,,,,,,,,,,,,,,,,,,,,
,,,,,,,,2023-08-16_08h47.03.642,HF_wild_card,2022.2.4,Win32,60.0132029,61502dee7a3a5468adbb2222,64d2fd46c836a06233681665,64dc7eeadaf0b543d8b5d47a,,,,,,,decisionTrl,resources/DG.BMP,resources/DBN.BMP,WildCard_Ex,0.228472222,0.009027778,1,0,0,0.7424,optionRight,95,6105,3,28,0,28,0,1,,,,,,,,,,,,,,,,,,,,,,,,,,,,,,,,,,,,,,,
,,,,,,,,2023-08-16_08h47.03.642,HF_wild_card,2022.2.4,Win32,60.0132029,61502dee7a3a5468adbb2222,64d2fd46c836a06233681665,64dc7eeadaf0b543d8b5d47a,,,,,,,ctch,resources/DP.BMP,resources/DR.BMP,Door4,-0.184722222,-0.047222222,1,0,0,1.3372,optionLeft,60,6165,3,29,0,29,0,1,,,,,,,,,,,,,,,,,,,,,,,,,,,,,,,,,,,,,,,
,,,,,,,,2023-08-16_08h47.03.642,HF_wild_card,2022.2.4,Win32,60.0132029,61502dee7a3a5468adbb2222,64d2fd46c836a06233681665,64dc7eeadaf0b543d8b5d47a,,,,,,,sngl,resources/DBN.BMP,resources/Empty.png,WildCard_Ex,-0.136111111,-0.016666667,1,0,0,0.7712,optionLeft,5,6170,3,30,0,30,0,1,,,,,,,,,,,,,,,,,,,,,,,,,,,,,,,,,,,,,,,
,,,,,,,,2023-08-16_08h47.03.642,HF_wild_card,2022.2.4,Win32,60.0132029,61502dee7a3a5468adbb2222,64d2fd46c836a06233681665,64dc7eeadaf0b543d8b5d47a,,,,,,,decisionTrl,resources/DR.BMP,resources/DG.BMP,Door1,-0.288888889,-0.036111111,1,0,0,1.6729,optionLeft,30,6200,3,31,0,31,0,1,,,,,,,,,,,,,,,,,,,,,,,,,,,,,,,,,,,,,,,
,,,,,,,,2023-08-16_08h47.03.642,HF_wild_card,2022.2.4,Win32,60.0132029,61502dee7a3a5468adbb2222,64d2fd46c836a06233681665,64dc7eeadaf0b543d8b5d47a,,,,,,,ctch,resources/DB.BMP,resources/DG.BMP,Door3,-0.205555556,-0.018055556,1,0,0,0.7937,optionLeft,70,6270,3,32,0,32,0,1,,,,,,,,,,,,,,,,,,,,,,,,,,,,,,,,,,,,,,,
,,,,,,,,2023-08-16_08h47.03.642,HF_wild_card,2022.2.4,Win32,60.0132029,61502dee7a3a5468adbb2222,64d2fd46c836a06233681665,64dc7eeadaf0b543d8b5d47a,,,,,,,ctch,resources/DR.BMP,resources/DP.BMP,Door4,0.224305556,-0.013194444,1,0,0,0.9699,optionRight,80,6350,3,33,0,33,0,1,,,,,,,,,,,,,,,,,,,,,,,,,,,,,,,,,,,,,,,
,,,,,,,,2023-08-16_08h47.03.642,HF_wild_card,2022.2.4,Win32,60.0132029,61502dee7a3a5468adbb2222,64d2fd46c836a06233681665,64dc7eeadaf0b543d8b5d47a,,,,,,,decisionTrl,resources/DP.BMP,resources/DB.BMP,Door3,0.152777778,-0.019444444,1,0,0,0.9099,optionRight,70,6420,3,34,0,34,0,1,,,,,,,,,,,,,,,,,,,,,,,,,,,,,,,,,,,,,,,
,,,,,,,,2023-08-16_08h47.03.642,HF_wild_card,2022.2.4,Win32,60.0132029,61502dee7a3a5468adbb2222,64d2fd46c836a06233681665,64dc7eeadaf0b543d8b5d47a,,,,,,,decisionTrl,resources/DBN.BMP,resources/DP.BMP,Door4,0.191666667,-0.029166667,1,0,0,1.1039,optionRight,60,6480,3,35,0,35,0,1,,,,,,,,,,,,,,,,,,,,,,,,,,,,,,,,,,,,,,,
,,,,,,,,2023-08-16_08h47.03.642,HF_wild_card,2022.2.4,Win32,60.0132029,61502dee7a3a5468adbb2222,64d2fd46c836a06233681665,64dc7eeadaf0b543d8b5d47a,,,,,,,decisionTrl,resources/DG.BMP,resources/DR.BMP,Door2,-0.176388889,-0.044444444,1,0,0,1.3388,optionLeft,40,6520,3,36,0,36,0,1,,,,,,,,,,,,,,,,,,,,,,,,,,,,,,,,,,,,,,,
,,,,,,,,2023-08-16_08h47.03.642,HF_wild_card,2022.2.4,Win32,60.0132029,61502dee7a3a5468adbb2222,64d2fd46c836a06233681665,64dc7eeadaf0b543d8b5d47a,,,,,,,decisionTrl,resources/DB.BMP,resources/DP.BMP,Door4,0.291666667,-0.013194444,1,0,0,1.9835,optionRight,60,6580,3,37,0,37,0,1,,,,,,,,,,,,,,,,,,,,,,,,,,,,,,,,,,,,,,,
,,,,,,,,2023-08-16_08h47.03.642,HF_wild_card,2022.2.4,Win32,60.0132029,61502dee7a3a5468adbb2222,64d2fd46c836a06233681665,64dc7eeadaf0b543d8b5d47a,,,,,,,sngl,resources/Empty.png,resources/DBN.BMP,WildCard_Ex,0.231944444,-0.001388889,1,0,0,0.6706,optionRight,95,6675,3,38,0,38,0,1,,,,,,,,,,,,,,,,,,,,,,,,,,,,,,,,,,,,,,,
,,,,,,,,2023-08-16_08h47.03.642,HF_wild_card,2022.2.4,Win32,60.0132029,61502dee7a3a5468adbb2222,64d2fd46c836a06233681665,64dc7eeadaf0b543d8b5d47a,,,,,,,sngl,resources/Empty.png,resources/DG.BMP,Door2,0.163888889,-0.011805556,1,0,0,0.6373,optionRight,20,6695,3,39,0,39,0,1,,,,,,,,,,,,,,,,,,,,,,,,,,,,,,,,,,,,,,,
,,,,,,,,2023-08-16_08h47.03.642,HF_wild_card,2022.2.4,Win32,60.0132029,61502dee7a3a5468adbb2222,64d2fd46c836a06233681665,64dc7eeadaf0b543d8b5d47a,,,,,,,sngl,resources/DR.BMP,resources/Empty.png,Door1,-0.222222222,-0.023611111,1,0,0,0.6132,optionLeft,30,6725,3,40,0,40,0,1,,,,,,,,,,,,,,,,,,,,,,,,,,,,,,,,,,,,,,,
,,,,,,,,2023-08-16_08h47.03.642,HF_wild_card,2022.2.4,Win32,60.0132029,61502dee7a3a5468adbb2222,64d2fd46c836a06233681665,64dc7eeadaf0b543d8b5d47a,,,,,,,decisionTrl,resources/DR.BMP,resources/DG.BMP,Door2,0.177777778,-0.00625,1,0,0,1.928,optionRight,40,6765,3,41,0,41,0,1,,,,,,,,,,,,,,,,,,,,,,,,,,,,,,,,,,,,,,,
,,,,,,,,2023-08-16_08h47.03.642,HF_wild_card,2022.2.4,Win32,60.0132029,61502dee7a3a5468adbb2222,64d2fd46c836a06233681665,64dc7eeadaf0b543d8b5d47a,,,,,,,sngl,resources/DBN.BMP,resources/Empty.png,WildCard_Ex,-0.229861111,-0.024305556,1,0,0,0.6783,optionLeft,95,6860,3,42,0,42,0,1,,,,,,,,,,,,,,,,,,,,,,,,,,,,,,,,,,,,,,,
,,,,,,,,2023-08-16_08h47.03.642,HF_wild_card,2022.2.4,Win32,60.0132029,61502dee7a3a5468adbb2222,64d2fd46c836a06233681665,64dc7eeadaf0b543d8b5d47a,,,,,,,decisionTrl,resources/DB.BMP,resources/DP.BMP,Door4,0.186805556,-0.009722222,1,0,0,1.2561,optionRight,80,6940,3,43,0,43,0,1,,,,,,,,,,,,,,,,,,,,,,,,,,,,,,,,,,,,,,,
,,,,,,,,2023-08-16_08h47.03.642,HF_wild_card,2022.2.4,Win32,60.0132029,61502dee7a3a5468adbb2222,64d2fd46c836a06233681665,64dc7eeadaf0b543d8b5d47a,,,,,,,,,,,,,,,,,,,,,,,,,,2,0,2,0,1,,,,,,,,,,,,,,,,,,,,,,,,,,,,,,,,,,
,,,,,,,,2023-08-16_08h47.03.642,HF_wild_card,2022.2.4,Win32,60.0132029,61502dee7a3a5468adbb2222,64d2fd46c836a06233681665,64dc7eeadaf0b543d8b5d47a,,,,,,,decisionTrl,resources/DB.BMP,resources/DP.BMP,Door4,0.177777778,-0.003472222,1,0,0,0.8533,optionRight,80,7020,4,0,0,0,0,1,,,,,,,,,,,,,,,,,,,,,,,,,,,,,,,,,,,,,,,
,,,,,,,,2023-08-16_08h47.03.642,HF_wild_card,2022.2.4,Win32,60.0132029,61502dee7a3a5468adbb2222,64d2fd46c836a06233681665,64dc7eeadaf0b543d8b5d47a,,,,,,,sngl,resources/Empty.png,resources/DY.BMP,WildCard_NonEx,0.177083333,-0.020833333,1,0,0,0.7513,optionRight,45,7065,4,1,0,1,0,1,,,,,,,,,,,,,,,,,,,,,,,,,,,,,,,,,,,,,,,
,,,,,,,,2023-08-16_08h47.03.642,HF_wild_card,2022.2.4,Win32,60.0132029,61502dee7a3a5468adbb2222,64d2fd46c836a06233681665,64dc7eeadaf0b543d8b5d47a,,,,,,,sngl,resources/Empty.png,resources/DG.BMP,Door2,0.228472222,-0.028472222,1,0,0,0.6482,optionRight,40,7105,4,2,0,2,0,1,,,,,,,,,,,,,,,,,,,,,,,,,,,,,,,,,,,,,,,
,,,,,,,,2023-08-16_08h47.03.642,HF_wild_card,2022.2.4,Win32,60.0132029,61502dee7a3a5468adbb2222,64d2fd46c836a06233681665,64dc7eeadaf0b543d8b5d47a,,,,,,,decisionTrl,resources/DG.BMP,resources/DR.BMP,Door2,-0.125694444,-0.031944444,1,0,0,1.1835,optionLeft,40,7145,4,3,0,3,0,1,,,,,,,,,,,,,,,,,,,,,,,,,,,,,,,,,,,,,,,
,,,,,,,,2023-08-16_08h47.03.642,HF_wild_card,2022.2.4,Win32,60.0132029,61502dee7a3a5468adbb2222,64d2fd46c836a06233681665,64dc7eeadaf0b543d8b5d47a,,,,,,,sngl,resources/Empty.png,resources/DB.BMP,Door3,0.186111111,-0.015277778,1,0,0,0.637,optionRight,70,7215,4,4,0,4,0,1,,,,,,,,,,,,,,,,,,,,,,,,,,,,,,,,,,,,,,,
,,,,,,,,2023-08-16_08h47.03.642,HF_wild_card,2022.2.4,Win32,60.0132029,61502dee7a3a5468adbb2222,64d2fd46c836a06233681665,64dc7eeadaf0b543d8b5d47a,,,,,,,decisionTrl,resources/DP.BMP,resources/DB.BMP,Door4,-0.136111111,-0.024305556,1,0,0,1.1945,optionLeft,60,7275,4,5,0,5,0,1,,,,,,,,,,,,,,,,,,,,,,,,,,,,,,,,,,,,,,,
,,,,,,,,2023-08-16_08h47.03.642,HF_wild_card,2022.2.4,Win32,60.0132029,61502dee7a3a5468adbb2222,64d2fd46c836a06233681665,64dc7eeadaf0b543d8b5d47a,,,,,,,ctch,resources/DP.BMP,resources/DR.BMP,Door4,-0.193055556,-0.023611111,1,0,0,0.9024,optionLeft,80,7355,4,6,0,6,0,1,,,,,,,,,,,,,,,,,,,,,,,,,,,,,,,,,,,,,,,
,,,,,,,,2023-08-16_08h47.03.642,HF_wild_card,2022.2.4,Win32,60.0132029,61502dee7a3a5468adbb2222,64d2fd46c836a06233681665,64dc7eeadaf0b543d8b5d47a,,,,,,,decisionTrl,resources/DB.BMP,resources/DP.BMP,Door4,0.197916667,-0.024305556,1,0,0,0.6032,optionRight,80,7435,4,7,0,7,0,1,,,,,,,,,,,,,,,,,,,,,,,,,,,,,,,,,,,,,,,
,,,,,,,,2023-08-16_08h47.03.642,HF_wild_card,2022.2.4,Win32,60.0132029,61502dee7a3a5468adbb2222,64d2fd46c836a06233681665,64dc7eeadaf0b543d8b5d47a,,,,,,,sngl,resources/DY.BMP,resources/Empty.png,WildCard_NonEx,-0.284027778,0.004166667,1,0,0,0.5559,optionLeft,45,7480,4,8,0,8,0,1,,,,,,,,,,,,,,,,,,,,,,,,,,,,,,,,,,,,,,,
,,,,,,,,2023-08-16_08h47.03.642,HF_wild_card,2022.2.4,Win32,60.0132029,61502dee7a3a5468adbb2222,64d2fd46c836a06233681665,64dc7eeadaf0b543d8b5d47a,,,,,,,decisionTrl,resources/DR.BMP,resources/DG.BMP,Door1,-0.152083333,-0.013888889,1,0,0,1.8444,optionLeft,30,7510,4,9,0,9,0,1,,,,,,,,,,,,,,,,,,,,,,,,,,,,,,,,,,,,,,,
,,,,,,,,2023-08-16_08h47.03.642,HF_wild_card,2022.2.4,Win32,60.0132029,61502dee7a3a5468adbb2222,64d2fd46c836a06233681665,64dc7eeadaf0b543d8b5d47a,,,,,,,decisionTrl,resources/DY.BMP,resources/DG.BMP,WildCard_NonEx,-0.222222222,0.001388889,1,0,0,0.6738,optionLeft,45,7555,4,10,0,10,0,1,,,,,,,,,,,,,,,,,,,,,,,,,,,,,,,,,,,,,,,
,,,,,,,,2023-08-16_08h47.03.642,HF_wild_card,2022.2.4,Win32,60.0132029,61502dee7a3a5468adbb2222,64d2fd46c836a06233681665,64dc7eeadaf0b543d8b5d47a,,,,,,,ctch,resources/DB.BMP,resources/DG.BMP,Door3,-0.1875,-0.015277778,1,0,0,1.0611,optionLeft,70,7625,4,11,0,11,0,1,,,,,,,,,,,,,,,,,,,,,,,,,,,,,,,,,,,,,,,
,,,,,,,,2023-08-16_08h47.03.642,HF_wild_card,2022.2.4,Win32,60.0132029,61502dee7a3a5468adbb2222,64d2fd46c836a06233681665,64dc7eeadaf0b543d8b5d47a,,,,,,,decisionTrl,resources/DB.BMP,resources/DY.BMP,Door3,-0.153472222,-0.013194444,1,0,0,1.1662,optionLeft,70,7695,4,12,0,12,0,1,,,,,,,,,,,,,,,,,,,,,,,,,,,,,,,,,,,,,,,
,,,,,,,,2023-08-16_08h47.03.642,HF_wild_card,2022.2.4,Win32,60.0132029,61502dee7a3a5468adbb2222,64d2fd46c836a06233681665,64dc7eeadaf0b543d8b5d47a,,,,,,,sngl,resources/Empty.png,resources/DR.BMP,Door1,0.215277778,-0.011805556,1,0,0,2.4987,optionRight,30,7725,4,13,0,13,0,1,,,,,,,,,,,,,,,,,,,,,,,,,,,,,,,,,,,,,,,
,,,,,,,,2023-08-16_08h47.03.642,HF_wild_card,2022.2.4,Win32,60.0132029,61502dee7a3a5468adbb2222,64d2fd46c836a06233681665,64dc7eeadaf0b543d8b5d47a,,,,,,,decisionTrl,resources/DP.BMP,resources/DB.BMP,Door4,-0.271527778,0.00625,1,0,0,1.9338,optionLeft,60,7785,4,14,0,14,0,1,,,,,,,,,,,,,,,,,,,,,,,,,,,,,,,,,,,,,,,
,,,,,,,,2023-08-16_08h47.03.642,HF_wild_card,2022.2.4,Win32,60.0132029,61502dee7a3a5468adbb2222,64d2fd46c836a06233681665,64dc7eeadaf0b543d8b5d47a,,,,,,,sngl,resources/DG.BMP,resources/Empty.png,Door2,-0.179861111,-0.013888889,1,0,0,0.5852,optionLeft,20,7805,4,15,0,15,0,1,,,,,,,,,,,,,,,,,,,,,,,,,,,,,,,,,,,,,,,
,,,,,,,,2023-08-16_08h47.03.642,HF_wild_card,2022.2.4,Win32,60.0132029,61502dee7a3a5468adbb2222,64d2fd46c836a06233681665,64dc7eeadaf0b543d8b5d47a,,,,,,,ctch,resources/DR.BMP,resources/DP.BMP,Door4,0.161805556,-0.029166667,1,0,0,0.6476,optionRight,80,7885,4,16,0,16,0,1,,,,,,,,,,,,,,,,,,,,,,,,,,,,,,,,,,,,,,,
,,,,,,,,2023-08-16_08h47.03.642,HF_wild_card,2022.2.4,Win32,60.0132029,61502dee7a3a5468adbb2222,64d2fd46c836a06233681665,64dc7eeadaf0b543d8b5d47a,,,,,,,decisionTrl,resources/DG.BMP,resources/DR.BMP,Door2,-0.203472222,-0.018055556,1,0,0,0.7868,optionLeft,20,7905,4,17,0,17,0,1,,,,,,,,,,,,,,,,,,,,,,,,,,,,,,,,,,,,,,,
,,,,,,,,2023-08-16_08h47.03.642,HF_wild_card,2022.2.4,Win32,60.0132029,61502dee7a3a5468adbb2222,64d2fd46c836a06233681665,64dc7eeadaf0b543d8b5d47a,,,,,,,ctch,resources/DG.BMP,resources/DB.BMP,Door3,0.220833333,-0.015972222,1,0,0,0.6868,optionRight,70,7975,4,18,0,18,0,1,,,,,,,,,,,,,,,,,,,,,,,,,,,,,,,,,,,,,,,
,,,,,,,,2023-08-16_08h47.03.642,HF_wild_card,2022.2.4,Win32,60.0132029,61502dee7a3a5468adbb2222,64d2fd46c836a06233681665,64dc7eeadaf0b543d8b5d47a,,,,,,,decisionTrl,resources/DY.BMP,resources/DB.BMP,WildCard_NonEx,-0.136805556,-0.017361111,1,0,0,0.9702,optionLeft,55,8030,4,19,0,19,0,1,,,,,,,,,,,,,,,,,,,,,,,,,,,,,,,,,,,,,,,
,,,,,,,,2023-08-16_08h47.03.642,HF_wild_card,2022.2.4,Win32,60.0132029,61502dee7a3a5468adbb2222,64d2fd46c836a06233681665,64dc7eeadaf0b543d8b5d47a,,,,,,,decisionTrl,resources/DR.BMP,resources/DG.BMP,Door2,0.301388889,-0.029166667,1,0,0,2.1987,optionRight,20,8050,4,20,0,20,0,1,,,,,,,,,,,,,,,,,,,,,,,,,,,,,,,,,,,,,,,
,,,,,,,,2023-08-16_08h47.03.642,HF_wild_card,2022.2.4,Win32,60.0132029,61502dee7a3a5468adbb2222,64d2fd46c836a06233681665,64dc7eeadaf0b543d8b5d47a,,,,,,,decisionTrl,resources/DG.BMP,resources/DY.BMP,WildCard_NonEx,0.203472222,-0.011111111,1,0,0,1.631,optionRight,45,8095,4,21,0,21,0,1,,,,,,,,,,,,,,,,,,,,,,,,,,,,,,,,,,,,,,,
,,,,,,,,2023-08-16_08h47.03.642,HF_wild_card,2022.2.4,Win32,60.0132029,61502dee7a3a5468adbb2222,64d2fd46c836a06233681665,64dc7eeadaf0b543d8b5d47a,,,,,,,decisionTrl,resources/DR.BMP,resources/DY.BMP,WildCard_NonEx,0.170138889,-0.011805556,1,0,0,1.4115,optionRight,45,8140,4,22,0,22,0,1,,,,,,,,,,,,,,,,,,,,,,,,,,,,,,,,,,,,,,,
,,,,,,,,2023-08-16_08h47.03.642,HF_wild_card,2022.2.4,Win32,60.0132029,61502dee7a3a5468adbb2222,64d2fd46c836a06233681665,64dc7eeadaf0b543d8b5d47a,,,,,,,sngl,resources/DB.BMP,resources/Empty.png,Door3,-0.217361111,-0.023611111,1,0,0,0.6714,optionLeft,70,8210,4,23,0,23,0,1,,,,,,,,,,,,,,,,,,,,,,,,,,,,,,,,,,,,,,,
,,,,,,,,2023-08-16_08h47.03.642,HF_wild_card,2022.2.4,Win32,60.0132029,61502dee7a3a5468adbb2222,64d2fd46c836a06233681665,64dc7eeadaf0b543d8b5d47a,,,,,,,sngl,resources/DR.BMP,resources/Empty.png,Door1,-0.196527778,-0.027777778,1,0,0,0.563,optionLeft,30,8240,4,24,0,24,0,1,,,,,,,,,,,,,,,,,,,,,,,,,,,,,,,,,,,,,,,
,,,,,,,,2023-08-16_08h47.03.642,HF_wild_card,2022.2.4,Win32,60.0132029,61502dee7a3a5468adbb2222,64d2fd46c836a06233681665,64dc7eeadaf0b543d8b5d47a,,,,,,,decisionTrl,resources/DR.BMP,resources/DG.BMP,Door2,0.152777778,0,1,0,0,1.9556,optionRight,40,8280,4,25,0,25,0,1,,,,,,,,,,,,,,,,,,,,,,,,,,,,,,,,,,,,,,,
,,,,,,,,2023-08-16_08h47.03.642,HF_wild_card,2022.2.4,Win32,60.0132029,61502dee7a3a5468adbb2222,64d2fd46c836a06233681665,64dc7eeadaf0b543d8b5d47a,,,,,,,decisionTrl,resources/DR.BMP,resources/DG.BMP,Door2,0.192361111,-0.010416667,1,0,0,1.167,optionRight,20,8300,4,26,0,26,0,1,,,,,,,,,,,,,,,,,,,,,,,,,,,,,,,,,,,,,,,
,,,,,,,,2023-08-16_08h47.03.642,HF_wild_card,2022.2.4,Win32,60.0132029,61502dee7a3a5468adbb2222,64d2fd46c836a06233681665,64dc7eeadaf0b543d8b5d47a,,,,,,,decisionTrl,resources/DY.BMP,resources/DP.BMP,Door4,0.129861111,-0.014583333,1,0,0,1.3283,optionRight,60,8360,4,27,0,27,0,1,,,,,,,,,,,,,,,,,,,,,,,,,,,,,,,,,,,,,,,
,,,,,,,,2023-08-16_08h47.03.642,HF_wild_card,2022.2.4,Win32,60.0132029,61502dee7a3a5468adbb2222,64d2fd46c836a06233681665,64dc7eeadaf0b543d8b5d47a,,,,,,,decisionTrl,resources/DG.BMP,resources/DR.BMP,Door2,-0.264583333,-0.029166667,1,0,0,1.1069,optionLeft,40,8400,4,28,0,28,0,1,,,,,,,,,,,,,,,,,,,,,,,,,,,,,,,,,,,,,,,
,,,,,,,,2023-08-16_08h47.03.642,HF_wild_card,2022.2.4,Win32,60.0132029,61502dee7a3a5468adbb2222,64d2fd46c836a06233681665,64dc7eeadaf0b543d8b5d47a,,,,,,,sngl,resources/DY.BMP,resources/Empty.png,WildCard_NonEx,-0.204861111,-0.0375,1,0,0,0.6372,optionLeft,55,8455,4,29,0,29,0,1,,,,,,,,,,,,,,,,,,,,,,,,,,,,,,,,,,,,,,,
,,,,,,,,2023-08-16_08h47.03.642,HF_wild_card,2022.2.4,Win32,60.0132029,61502dee7a3a5468adbb2222,64d2fd46c836a06233681665,64dc7eeadaf0b543d8b5d47a,,,,,,,ctch,resources/DP.BMP,resources/DR.BMP,Door4,-0.161111111,-0.028472222,1,0,0,0.9477,optionLeft,60,8515,4,30,0,30,0,1,,,,,,,,,,,,,,,,,,,,,,,,,,,,,,,,,,,,,,,
,,,,,,,,2023-08-16_08h47.03.642,HF_wild_card,2022.2.4,Win32,60.0132029,61502dee7a3a5468adbb2222,64d2fd46c836a06233681665,64dc7eeadaf0b543d8b5d47a,,,,,,,decisionTrl,resources/DP.BMP,resources/DB.BMP,Door4,-0.293055556,-0.013888889,1,0,0,1.2086,optionLeft,80,8595,4,31,0,31,0,1,,,,,,,,,,,,,,,,,,,,,,,,,,,,,,,,,,,,,,,
,,,,,,,,2023-08-16_08h47.03.642,HF_wild_card,2022.2.4,Win32,60.0132029,61502dee7a3a5468adbb2222,64d2fd46c836a06233681665,64dc7eeadaf0b543d8b5d47a,,,,,,,sngl,resources/Empty.png,resources/DY.BMP,WildCard_NonEx,0.177083333,-0.009027778,1,0,0,0.7518,optionRight,55,8650,4,32,0,32,0,1,,,,,,,,,,,,,,,,,,,,,,,,,,,,,,,,,,,,,,,
,,,,,,,,2023-08-16_08h47.03.642,HF_wild_card,2022.2.4,Win32,60.0132029,61502dee7a3a5468adbb2222,64d2fd46c836a06233681665,64dc7eeadaf0b543d8b5d47a,,,,,,,decisionTrl,resources/DB.BMP,resources/DP.BMP,Door4,0.159722222,-0.018055556,1,0,0,1.8735,optionRight,80,8730,4,33,0,33,0,1,,,,,,,,,,,,,,,,,,,,,,,,,,,,,,,,,,,,,,,
,,,,,,,,2023-08-16_08h47.03.642,HF_wild_card,2022.2.4,Win32,60.0132029,61502dee7a3a5468adbb2222,64d2fd46c836a06233681665,64dc7eeadaf0b543d8b5d47a,,,,,,,ctch,resources/DR.BMP,resources/DP.BMP,Door4,0.183333333,-0.004166667,1,0,0,1.944,optionRight,60,8790,4,34,0,34,0,1,,,,,,,,,,,,,,,,,,,,,,,,,,,,,,,,,,,,,,,
,,,,,,,,2023-08-16_08h47.03.642,HF_wild_card,2022.2.4,Win32,60.0132029,61502dee7a3a5468adbb2222,64d2fd46c836a06233681665,64dc7eeadaf0b543d8b5d47a,,,,,,,decisionTrl,resources/DP.BMP,resources/DB.BMP,Door3,0.125694444,-0.004861111,1,0,0,1.3954,optionRight,70,8860,4,35,0,35,0,1,,,,,,,,,,,,,,,,,,,,,,,,,,,,,,,,,,,,,,,
,,,,,,,,2023-08-16_08h47.03.642,HF_wild_card,2022.2.4,Win32,60.0132029,61502dee7a3a5468adbb2222,64d2fd46c836a06233681665,64dc7eeadaf0b543d8b5d47a,,,,,,,ctch,resources/DG.BMP,resources/DB.BMP,Door3,0.161805556,-0.002083333,1,0,0,0.9632,optionRight,70,8930,4,36,0,36,0,1,,,,,,,,,,,,,,,,,,,,,,,,,,,,,,,,,,,,,,,
,,,,,,,,2023-08-16_08h47.03.642,HF_wild_card,2022.2.4,Win32,60.0132029,61502dee7a3a5468adbb2222,64d2fd46c836a06233681665,64dc7eeadaf0b543d8b5d47a,,,,,,,decisionTrl,resources/DB.BMP,resources/DP.BMP,Door3,-0.145833333,-0.040972222,1,0,0,0.7984,optionLeft,70,9000,4,37,0,37,0,1,,,,,,,,,,,,,,,,,,,,,,,,,,,,,,,,,,,,,,,
,,,,,,,,2023-08-16_08h47.03.642,HF_wild_card,2022.2.4,Win32,60.0132029,61502dee7a3a5468adbb2222,64d2fd46c836a06233681665,64dc7eeadaf0b543d8b5d47a,,,,,,,decisionTrl,resources/DP.BMP,resources/DY.BMP,Door4,-0.171527778,-0.011111111,1,0,0,1.2476,optionLeft,80,9080,4,38,0,38,0,1,,,,,,,,,,,,,,,,,,,,,,,,,,,,,,,,,,,,,,,
,,,,,,,,2023-08-16_08h47.03.642,HF_wild_card,2022.2.4,Win32,60.0132029,61502dee7a3a5468adbb2222,64d2fd46c836a06233681665,64dc7eeadaf0b543d8b5d47a,,,,,,,sngl,resources/DP.BMP,resources/Empty.png,Door4,-0.174305556,-0.009722222,1,0,0,1.108,optionLeft,60,9140,4,39,0,39,0,1,,,,,,,,,,,,,,,,,,,,,,,,,,,,,,,,,,,,,,,
,,,,,,,,2023-08-16_08h47.03.642,HF_wild_card,2022.2.4,Win32,60.0132029,61502dee7a3a5468adbb2222,64d2fd46c836a06233681665,64dc7eeadaf0b543d8b5d47a,,,,,,,decisionTrl,resources/DG.BMP,resources/DR.BMP,Door1,0.216666667,-0.009722222,1,0,0,1.2662,optionRight,30,9170,4,40,0,40,0,1,,,,,,,,,,,,,,,,,,,,,,,,,,,,,,,,,,,,,,,
,,,,,,,,2023-08-16_08h47.03.642,HF_wild_card,2022.2.4,Win32,60.0132029,61502dee7a3a5468adbb2222,64d2fd46c836a06233681665,64dc7eeadaf0b543d8b5d47a,,,,,,,sngl,resources/Empty.png,resources/DP.BMP,Door4,0.186111111,-0.022916667,1,0,0,0.6137,optionRight,80,9250,4,41,0,41,0,1,,,,,,,,,,,,,,,,,,,,,,,,,,,,,,,,,,,,,,,
,,,,,,,,2023-08-16_08h47.03.642,HF_wild_card,2022.2.4,Win32,60.0132029,61502dee7a3a5468adbb2222,64d2fd46c836a06233681665,64dc7eeadaf0b543d8b5d47a,,,,,,,ctch,resources/DB.BMP,resources/DG.BMP,Door3,-0.150694444,-0.009027778,1,0,0,0.6626,optionLeft,70,9320,4,42,0,42,0,1,,,,,,,,,,,,,,,,,,,,,,,,,,,,,,,,,,,,,,,
,,,,,,,,2023-08-16_08h47.03.642,HF_wild_card,2022.2.4,Win32,60.0132029,61502dee7a3a5468adbb2222,64d2fd46c836a06233681665,64dc7eeadaf0b543d8b5d47a,,,,,,,decisionTrl,resources/DY.BMP,resources/DR.BMP,WildCard_NonEx,-0.18125,-0.002777778,1,0,0,1.2478,optionLeft,45,9365,4,43,0,43,0,1,,,,,,,,,,,,,,,,,,,,,,,,,,,,,,,,,,,,,,,
,,,,,,,,2023-08-16_08h47.03.642,HF_wild_card,2022.2.4,Win32,60.0132029,61502dee7a3a5468adbb2222,64d2fd46c836a06233681665,64dc7eeadaf0b543d8b5d47a,,,,,,,,,,,,,,,,,,,,,,,,,,3,0,3,0,1,,,,,,,,,,,,,,,,,,,,,,,,,,,,,,,,,,
,,,,,,,,2023-08-16_08h47.03.642,HF_wild_card,2022.2.4,Win32,60.0132029,61502dee7a3a5468adbb2222,64d2fd46c836a06233681665,64dc7eeadaf0b543d8b5d47a,,,,,,,sngl,resources/DR.BMP,resources/Empty.png,Door1,-0.278472222,-0.064583333,1,0,0,0.5807,optionLeft,30,9395,5,0,0,0,0,1,,,,,,,,,,,,,,,,,,,,,,,,,,,,,,,,,,,,,,,
,,,,,,,,2023-08-16_08h47.03.642,HF_wild_card,2022.2.4,Win32,60.0132029,61502dee7a3a5468adbb2222,64d2fd46c836a06233681665,64dc7eeadaf0b543d8b5d47a,,,,,,,decisionTrl,resources/DB.BMP,resources/DP.BMP,Door4,0.161111111,-0.005555556,1,0,0,1.2317,optionRight,80,9475,5,1,0,1,0,1,,,,,,,,,,,,,,,,,,,,,,,,,,,,,,,,,,,,,,,
,,,,,,,,2023-08-16_08h47.03.642,HF_wild_card,2022.2.4,Win32,60.0132029,61502dee7a3a5468adbb2222,64d2fd46c836a06233681665,64dc7eeadaf0b543d8b5d47a,,,,,,,decisionTrl,resources/DG.BMP,resources/DR.BMP,Door1,0.255555556,-0.000694444,1,0,0,1.3734,optionRight,30,9505,5,2,0,2,0,1,,,,,,,,,,,,,,,,,,,,,,,,,,,,,,,,,,,,,,,
,,,,,,,,2023-08-16_08h47.03.642,HF_wild_card,2022.2.4,Win32,60.0132029,61502dee7a3a5468adbb2222,64d2fd46c836a06233681665,64dc7eeadaf0b543d8b5d47a,,,,,,,ctch,resources/DG.BMP,resources/DB.BMP,Door3,0.226388889,-0.022916667,1,0,0,0.8023,optionRight,70,9575,5,3,0,3,0,1,,,,,,,,,,,,,,,,,,,,,,,,,,,,,,,,,,,,,,,
,,,,,,,,2023-08-16_08h47.03.642,HF_wild_card,2022.2.4,Win32,60.0132029,61502dee7a3a5468adbb2222,64d2fd46c836a06233681665,64dc7eeadaf0b543d8b5d47a,,,,,,,decisionTrl,resources/DP.BMP,resources/DB.BMP,Door3,0.277083333,-0.016666667,1,0,0,1.2781,optionRight,70,9645,5,4,0,4,0,1,,,,,,,,,,,,,,,,,,,,,,,,,,,,,,,,,,,,,,,
,,,,,,,,2023-08-16_08h47.03.642,HF_wild_card,2022.2.4,Win32,60.0132029,61502dee7a3a5468adbb2222,64d2fd46c836a06233681665,64dc7eeadaf0b543d8b5d47a,,,,,,,decisionTrl,resources/DP.BMP,resources/DB.BMP,Door3,0.163888889,-0.011111111,1,0,0,1.0071,optionRight,70,9715,5,5,0,5,0,1,,,,,,,,,,,,,,,,,,,,,,,,,,,,,,,,,,,,,,,
,,,,,,,,2023-08-16_08h47.03.642,HF_wild_card,2022.2.4,Win32,60.0132029,61502dee7a3a5468adbb2222,64d2fd46c836a06233681665,64dc7eeadaf0b543d8b5d47a,,,,,,,decisionTrl,resources/DR.BMP,resources/DG.BMP,Door2,0.179861111,-0.006944444,1,0,0,1.82,optionRight,20,9735,5,6,0,6,0,1,,,,,,,,,,,,,,,,,,,,,,,,,,,,,,,,,,,,,,,
,,,,,,,,2023-08-16_08h47.03.642,HF_wild_card,2022.2.4,Win32,60.0132029,61502dee7a3a5468adbb2222,64d2fd46c836a06233681665,64dc7eeadaf0b543d8b5d47a,,,,,,,decisionTrl,resources/DP.BMP,resources/DY.BMP,Door4,-0.190277778,-0.008333333,1,0,0,1.3194,optionLeft,60,9795,5,7,0,7,0,1,,,,,,,,,,,,,,,,,,,,,,,,,,,,,,,,,,,,,,,
,,,,,,,,2023-08-16_08h47.03.642,HF_wild_card,2022.2.4,Win32,60.0132029,61502dee7a3a5468adbb2222,64d2fd46c836a06233681665,64dc7eeadaf0b543d8b5d47a,,,,,,,decisionTrl,resources/DG.BMP,resources/DR.BMP,Door1,0.227083333,0.001388889,1,0,0,1.5315,optionRight,30,9825,5,8,0,8,0,1,,,,,,,,,,,,,,,,,,,,,,,,,,,,,,,,,,,,,,,
,,,,,,,,2023-08-16_08h47.03.642,HF_wild_card,2022.2.4,Win32,60.0132029,61502dee7a3a5468adbb2222,64d2fd46c836a06233681665,64dc7eeadaf0b543d8b5d47a,,,,,,,ctch,resources/DP.BMP,resources/DR.BMP,Door4,-0.134027778,-0.028472222,1,0,0,0.7042,optionLeft,80,9905,5,9,0,9,0,1,,,,,,,,,,,,,,,,,,,,,,,,,,,,,,,,,,,,,,,
,,,,,,,,2023-08-16_08h47.03.642,HF_wild_card,2022.2.4,Win32,60.0132029,61502dee7a3a5468adbb2222,64d2fd46c836a06233681665,64dc7eeadaf0b543d8b5d47a,,,,,,,sngl,resources/Empty.png,resources/DP.BMP,Door4,0.211111111,-0.004861111,1,0,0,0.6097,optionRight,60,9965,5,10,0,10,0,1,,,,,,,,,,,,,,,,,,,,,,,,,,,,,,,,,,,,,,,
,,,,,,,,2023-08-16_08h47.03.642,HF_wild_card,2022.2.4,Win32,60.0132029,61502dee7a3a5468adbb2222,64d2fd46c836a06233681665,64dc7eeadaf0b543d8b5d47a,,,,,,,sngl,resources/DY.BMP,resources/Empty.png,WildCard_NonEx,-0.255555556,-0.020833333,1,0,0,0.6145,optionLeft,45,10010,5,11,0,11,0,1,,,,,,,,,,,,,,,,,,,,,,,,,,,,,,,,,,,,,,,
,,,,,,,,2023-08-16_08h47.03.642,HF_wild_card,2022.2.4,Win32,60.0132029,61502dee7a3a5468adbb2222,64d2fd46c836a06233681665,64dc7eeadaf0b543d8b5d47a,,,,,,,decisionTrl,resources/DP.BMP,resources/DB.BMP,Door3,0.229861111,-0.000694444,1,0,0,1.6086,optionRight,70,10080,5,12,0,12,0,1,,,,,,,,,,,,,,,,,,,,,,,,,,,,,,,,,,,,,,,
,,,,,,,,2023-08-16_08h47.03.642,HF_wild_card,2022.2.4,Win32,60.0132029,61502dee7a3a5468adbb2222,64d2fd46c836a06233681665,64dc7eeadaf0b543d8b5d47a,,,,,,,decisionTrl,resources/DP.BMP,resources/DB.BMP,Door3,0.204166667,-0.000694444,1,0,0,0.6641,optionRight,70,10150,5,13,0,13,0,1,,,,,,,,,,,,,,,,,,,,,,,,,,,,,,,,,,,,,,,
,,,,,,,,2023-08-16_08h47.03.642,HF_wild_card,2022.2.4,Win32,60.0132029,61502dee7a3a5468adbb2222,64d2fd46c836a06233681665,64dc7eeadaf0b543d8b5d47a,,,,,,,sngl,resources/Empty.png,resources/DY.BMP,WildCard_NonEx,0.170833333,-0.023611111,1,0,0,0.7132,optionRight,55,10205,5,14,0,14,0,1,,,,,,,,,,,,,,,,,,,,,,,,,,,,,,,,,,,,,,,
,,,,,,,,2023-08-16_08h47.03.642,HF_wild_card,2022.2.4,Win32,60.0132029,61502dee7a3a5468adbb2222,64d2fd46c836a06233681665,64dc7eeadaf0b543d8b5d47a,,,,,,,decisionTrl,resources/DG.BMP,resources/DR.BMP,Door2,-0.13125,-0.023611111,1,0,0,1.1008,optionLeft,20,10225,5,15,0,15,0,1,,,,,,,,,,,,,,,,,,,,,,,,,,,,,,,,,,,,,,,
,,,,,,,,2023-08-16_08h47.03.642,HF_wild_card,2022.2.4,Win32,60.0132029,61502dee7a3a5468adbb2222,64d2fd46c836a06233681665,64dc7eeadaf0b543d8b5d47a,,,,,,,sngl,resources/DP.BMP,resources/Empty.png,Door4,-0.206944444,-0.032638889,1,0,0,0.6076,optionLeft,80,10305,5,16,0,16,0,1,,,,,,,,,,,,,,,,,,,,,,,,,,,,,,,,,,,,,,,
,,,,,,,,2023-08-16_08h47.03.642,HF_wild_card,2022.2.4,Win32,60.0132029,61502dee7a3a5468adbb2222,64d2fd46c836a06233681665,64dc7eeadaf0b543d8b5d47a,,,,,,,ctch,resources/DR.BMP,resources/DP.BMP,Door4,0.138888889,-0.009027778,1,0,0,0.7552,optionRight,60,10365,5,17,0,17,0,1,,,,,,,,,,,,,,,,,,,,,,,,,,,,,,,,,,,,,,,
,,,,,,,,2023-08-16_08h47.03.642,HF_wild_card,2022.2.4,Win32,60.0132029,61502dee7a3a5468adbb2222,64d2fd46c836a06233681665,64dc7eeadaf0b543d8b5d47a,,,,,,,sngl,resources/Empty.png,resources/DY.BMP,WildCard_NonEx,0.170138889,-0.008333333,1,0,0,0.5896,optionRight,45,10410,5,18,0,18,0,1,,,,,,,,,,,,,,,,,,,,,,,,,,,,,,,,,,,,,,,
,,,,,,,,2023-08-16_08h47.03.642,HF_wild_card,2022.2.4,Win32,60.0132029,61502dee7a3a5468adbb2222,64d2fd46c836a06233681665,64dc7eeadaf0b543d8b5d47a,,,,,,,sngl,resources/Empty.png,resources/DG.BMP,Door2,0.2,-0.01875,1,0,0,0.5636,optionRight,20,10430,5,19,0,19,0,1,,,,,,,,,,,,,,,,,,,,,,,,,,,,,,,,,,,,,,,
,,,,,,,,2023-08-16_08h47.03.642,HF_wild_card,2022.2.4,Win32,60.0132029,61502dee7a3a5468adbb2222,64d2fd46c836a06233681665,64dc7eeadaf0b543d8b5d47a,,,,,,,ctch,resources/DP.BMP,resources/DR.BMP,Door4,-0.192361111,-0.018055556,1,0,0,0.5045,optionLeft,60,10490,5,20,0,20,0,1,,,,,,,,,,,,,,,,,,,,,,,,,,,,,,,,,,,,,,,
,,,,,,,,2023-08-16_08h47.03.642,HF_wild_card,2022.2.4,Win32,60.0132029,61502dee7a3a5468adbb2222,64d2fd46c836a06233681665,64dc7eeadaf0b543d8b5d47a,,,,,,,ctch,resources/DR.BMP,resources/DP.BMP,Door4,0.138888889,-0.017361111,1,0,0,0.6887,optionRight,80,10570,5,21,0,21,0,1,,,,,,,,,,,,,,,,,,,,,,,,,,,,,,,,,,,,,,,
,,,,,,,,2023-08-16_08h47.03.642,HF_wild_card,2022.2.4,Win32,60.0132029,61502dee7a3a5468adbb2222,64d2fd46c836a06233681665,64dc7eeadaf0b543d8b5d47a,,,,,,,ctch,resources/DG.BMP,resources/DB.BMP,Door3,0.161805556,-0.022916667,1,0,0,0.7225,optionRight,70,10640,5,22,0,22,0,1,,,,,,,,,,,,,,,,,,,,,,,,,,,,,,,,,,,,,,,
,,,,,,,,2023-08-16_08h47.03.642,HF_wild_card,2022.2.4,Win32,60.0132029,61502dee7a3a5468adbb2222,64d2fd46c836a06233681665,64dc7eeadaf0b543d8b5d47a,,,,,,,sngl,resources/DB.BMP,resources/Empty.png,Door3,-0.151388889,-0.021527778,1,0,0,0.5821,optionLeft,70,10710,5,23,0,23,0,1,,,,,,,,,,,,,,,,,,,,,,,,,,,,,,,,,,,,,,,
,,,,,,,,2023-08-16_08h47.03.642,HF_wild_card,2022.2.4,Win32,60.0132029,61502dee7a3a5468adbb2222,64d2fd46c836a06233681665,64dc7eeadaf0b543d8b5d47a,,,,,,,sngl,resources/Empty.png,resources/DB.BMP,Door3,0.179861111,-0.01875,1,0,0,0.6143,optionRight,70,10780,5,24,0,24,0,1,,,,,,,,,,,,,,,,,,,,,,,,,,,,,,,,,,,,,,,
,,,,,,,,2023-08-16_08h47.03.642,HF_wild_card,2022.2.4,Win32,60.0132029,61502dee7a3a5468adbb2222,64d2fd46c836a06233681665,64dc7eeadaf0b543d8b5d47a,,,,,,,sngl,resources/DG.BMP,resources/Empty.png,Door2,-0.208333333,-0.004166667,1,0,0,0.5355,optionLeft,40,10820,5,25,0,25,0,1,,,,,,,,,,,,,,,,,,,,,,,,,,,,,,,,,,,,,,,
,,,,,,,,2023-08-16_08h47.03.642,HF_wild_card,2022.2.4,Win32,60.0132029,61502dee7a3a5468adbb2222,64d2fd46c836a06233681665,64dc7eeadaf0b543d8b5d47a,,,,,,,decisionTrl,resources/DR.BMP,resources/DG.BMP,Door1,-0.139583333,0.000694444,1,0,0,1.5602,optionLeft,30,10850,5,26,0,26,0,1,,,,,,,,,,,,,,,,,,,,,,,,,,,,,,,,,,,,,,,
,,,,,,,,2023-08-16_08h47.03.642,HF_wild_card,2022.2.4,Win32,60.0132029,61502dee7a3a5468adbb2222,64d2fd46c836a06233681665,64dc7eeadaf0b543d8b5d47a,,,,,,,decisionTrl,resources/DB.BMP,resources/DP.BMP,Door4,0.197916667,-0.00625,1,0,0,0.6527,optionRight,80,10930,5,27,0,27,0,1,,,,,,,,,,,,,,,,,,,,,,,,,,,,,,,,,,,,,,,
,,,,,,,,2023-08-16_08h47.03.642,HF_wild_card,2022.2.4,Win32,60.0132029,61502dee7a3a5468adbb2222,64d2fd46c836a06233681665,64dc7eeadaf0b543d8b5d47a,,,,,,,decisionTrl,resources/DB.BMP,resources/DY.BMP,Door3,-0.109722222,-0.034722222,1,0,0,0.7198,optionLeft,70,11000,5,28,0,28,0,1,,,,,,,,,,,,,,,,,,,,,,,,,,,,,,,,,,,,,,,
,,,,,,,,2023-08-16_08h47.03.642,HF_wild_card,2022.2.4,Win32,60.0132029,61502dee7a3a5468adbb2222,64d2fd46c836a06233681665,64dc7eeadaf0b543d8b5d47a,,,,,,,decisionTrl,resources/DB.BMP,resources/DP.BMP,Door3,-0.193055556,-0.027083333,1,0,0,1.1363,optionLeft,70,11070,5,29,0,29,0,1,,,,,,,,,,,,,,,,,,,,,,,,,,,,,,,,,,,,,,,
,,,,,,,,2023-08-16_08h47.03.642,HF_wild_card,2022.2.4,Win32,60.0132029,61502dee7a3a5468adbb2222,64d2fd46c836a06233681665,64dc7eeadaf0b543d8b5d47a,,,,,,,decisionTrl,resources/DB.BMP,resources/DP.BMP,Door4,0.133333333,-0.018055556,1,0,0,1.3412,optionRight,80,11150,5,30,0,30,0,1,,,,,,,,,,,,,,,,,,,,,,,,,,,,,,,,,,,,,,,
,,,,,,,,2023-08-16_08h47.03.642,HF_wild_card,2022.2.4,Win32,60.0132029,61502dee7a3a5468adbb2222,64d2fd46c836a06233681665,64dc7eeadaf0b543d8b5d47a,,,,,,,decisionTrl,resources/DG.BMP,resources/DR.BMP,Door1,0.147916667,-0.015972222,1,0,0,1.4237,optionRight,30,11180,5,31,0,31,0,1,,,,,,,,,,,,,,,,,,,,,,,,,,,,,,,,,,,,,,,
,,,,,,,,2023-08-16_08h47.03.642,HF_wild_card,2022.2.4,Win32,60.0132029,61502dee7a3a5468adbb2222,64d2fd46c836a06233681665,64dc7eeadaf0b543d8b5d47a,,,,,,,decisionTrl,resources/DY.BMP,resources/DP.BMP,Door4,0.23125,-0.011805556,1,0,0,0.9776,optionRight,60,11240,5,32,0,32,0,1,,,,,,,,,,,,,,,,,,,,,,,,,,,,,,,,,,,,,,,
,,,,,,,,2023-08-16_08h47.03.642,HF_wild_card,2022.2.4,Win32,60.0132029,61502dee7a3a5468adbb2222,64d2fd46c836a06233681665,64dc7eeadaf0b543d8b5d47a,,,,,,,decisionTrl,resources/DY.BMP,resources/DB.BMP,Door3,0.184722222,-0.004861111,1,0,0,1.1199,optionRight,70,11310,5,33,0,33,0,1,,,,,,,,,,,,,,,,,,,,,,,,,,,,,,,,,,,,,,,
,,,,,,,,2023-08-16_08h47.03.642,HF_wild_card,2022.2.4,Win32,60.0132029,61502dee7a3a5468adbb2222,64d2fd46c836a06233681665,64dc7eeadaf0b543d8b5d47a,,,,,,,sngl,resources/DY.BMP,resources/Empty.png,WildCard_NonEx,-0.157638889,-0.019444444,1,0,0,0.7155,optionLeft,55,11365,5,34,0,34,0,1,,,,,,,,,,,,,,,,,,,,,,,,,,,,,,,,,,,,,,,
,,,,,,,,2023-08-16_08h47.03.642,HF_wild_card,2022.2.4,Win32,60.0132029,61502dee7a3a5468adbb2222,64d2fd46c836a06233681665,64dc7eeadaf0b543d8b5d47a,,,,,,,decisionTrl,resources/DR.BMP,resources/DG.BMP,Door2,0.185416667,0.003472222,1,0,0,1.0562,optionRight,20,11385,5,35,0,35,0,1,,,,,,,,,,,,,,,,,,,,,,,,,,,,,,,,,,,,,,,
,,,,,,,,2023-08-16_08h47.03.642,HF_wild_card,2022.2.4,Win32,60.0132029,61502dee7a3a5468adbb2222,64d2fd46c836a06233681665,64dc7eeadaf0b543d8b5d47a,,,,,,,decisionTrl,resources/DG.BMP,resources/DY.BMP,Door2,-0.125,-0.034027778,1,0,0,0.6511,optionLeft,40,11425,5,36,0,36,0,1,,,,,,,,,,,,,,,,,,,,,,,,,,,,,,,,,,,,,,,
,,,,,,,,2023-08-16_08h47.03.642,HF_wild_card,2022.2.4,Win32,60.0132029,61502dee7a3a5468adbb2222,64d2fd46c836a06233681665,64dc7eeadaf0b543d8b5d47a,,,,,,,decisionTrl,resources/DR.BMP,resources/DY.BMP,WildCard_NonEx,0.158333333,-0.000694444,1,0,0,1.0941,optionRight,45,11470,5,37,0,37,0,1,,,,,,,,,,,,,,,,,,,,,,,,,,,,,,,,,,,,,,,
,,,,,,,,2023-08-16_08h47.03.642,HF_wild_card,2022.2.4,Win32,60.0132029,61502dee7a3a5468adbb2222,64d2fd46c836a06233681665,64dc7eeadaf0b543d8b5d47a,,,,,,,decisionTrl,resources/DY.BMP,resources/DG.BMP,WildCard_NonEx,-0.105555556,-0.009722222,1,0,0,1.0805,optionLeft,55,11525,5,38,0,38,0,1,,,,,,,,,,,,,,,,,,,,,,,,,,,,,,,,,,,,,,,
,,,,,,,,2023-08-16_08h47.03.642,HF_wild_card,2022.2.4,Win32,60.0132029,61502dee7a3a5468adbb2222,64d2fd46c836a06233681665,64dc7eeadaf0b543d8b5d47a,,,,,,,ctch,resources/DB.BMP,resources/DG.BMP,Door3,-0.152777778,-0.020138889,1,0,0,0.7498,optionLeft,70,11595,5,39,0,39,0,1,,,,,,,,,,,,,,,,,,,,,,,,,,,,,,,,,,,,,,,
,,,,,,,,2023-08-16_08h47.03.642,HF_wild_card,2022.2.4,Win32,60.0132029,61502dee7a3a5468adbb2222,64d2fd46c836a06233681665,64dc7eeadaf0b543d8b5d47a,,,,,,,decisionTrl,resources/DR.BMP,resources/DG.BMP,Door1,-0.107638889,-0.005555556,1,0,0,1.7963,optionLeft,30,11625,5,40,0,40,0,1,,,,,,,,,,,,,,,,,,,,,,,,,,,,,,,,,,,,,,,
,,,,,,,,2023-08-16_08h47.03.642,HF_wild_card,2022.2.4,Win32,60.0132029,61502dee7a3a5468adbb2222,64d2fd46c836a06233681665,64dc7eeadaf0b543d8b5d47a,,,,,,,decisionTrl,resources/DY.BMP,resources/DR.BMP,WildCard_NonEx,-0.245833333,0.002777778,1,0,0,1.1182,optionLeft,45,11670,5,41,0,41,0,1,,,,,,,,,,,,,,,,,,,,,,,,,,,,,,,,,,,,,,,
,,,,,,,,2023-08-16_08h47.03.642,HF_wild_card,2022.2.4,Win32,60.0132029,61502dee7a3a5468adbb2222,64d2fd46c836a06233681665,64dc7eeadaf0b543d8b5d47a,,,,,,,ctch,resources/DB.BMP,resources/DG.BMP,Door3,-0.141666667,-0.020833333,1,0,0,0.7082,optionLeft,70,11740,5,42,0,42,0,1,,,,,,,,,,,,,,,,,,,,,,,,,,,,,,,,,,,,,,,
,,,,,,,,2023-08-16_08h47.03.642,HF_wild_card,2022.2.4,Win32,60.0132029,61502dee7a3a5468adbb2222,64d2fd46c836a06233681665,64dc7eeadaf0b543d8b5d47a,,,,,,,sngl,resources/Empty.png,resources/DR.BMP,Door1,0.14375,-0.016666667,1,0,0,0.7468,optionRight,30,11770,5,43,0,43,0,1,,,,,,,,,,,,,,,,,,,,,,,,,,,,,,,,,,,,,,,
,,,,,,,,2023-08-16_08h47.03.642,HF_wild_card,2022.2.4,Win32,60.0132029,61502dee7a3a5468adbb2222,64d2fd46c836a06233681665,64dc7eeadaf0b543d8b5d47a,,,,,,,,,,,,,,,,,,,,,,,,,,4,0,4,0,1,,,,,,,,,,,,,,,,,,,,,,,,,,,,,,,,,,
,,,,,,,,2023-08-16_08h47.03.642,HF_wild_card,2022.2.4,Win32,60.0132029,61502dee7a3a5468adbb2222,64d2fd46c836a06233681665,64dc7eeadaf0b543d8b5d47a,,,,,,,decisionTrl,resources/DR.BMP,resources/DG.BMP,Door2,0.20625,0.002083333,1,0,0,1.813,optionRight,20,11790,6,0,0,0,0,1,,,,,,,,,,,,,,,,,,,,,,,,,,,,,,,,,,,,,,,
,,,,,,,,2023-08-16_08h47.03.642,HF_wild_card,2022.2.4,Win32,60.0132029,61502dee7a3a5468adbb2222,64d2fd46c836a06233681665,64dc7eeadaf0b543d8b5d47a,,,,,,,decisionTrl,resources/DY.BMP,resources/DP.BMP,Door4,0.191666667,0.004861111,1,0,0,0.997,optionRight,80,11870,6,1,0,1,0,1,,,,,,,,,,,,,,,,,,,,,,,,,,,,,,,,,,,,,,,
,,,,,,,,2023-08-16_08h47.03.642,HF_wild_card,2022.2.4,Win32,60.0132029,61502dee7a3a5468adbb2222,64d2fd46c836a06233681665,64dc7eeadaf0b543d8b5d47a,,,,,,,decisionTrl,resources/DB.BMP,resources/DY.BMP,Door3,-0.152083333,-0.004861111,1,0,0,0.7649,optionLeft,70,11940,6,2,0,2,0,1,,,,,,,,,,,,,,,,,,,,,,,,,,,,,,,,,,,,,,,
,,,,,,,,2023-08-16_08h47.03.642,HF_wild_card,2022.2.4,Win32,60.0132029,61502dee7a3a5468adbb2222,64d2fd46c836a06233681665,64dc7eeadaf0b543d8b5d47a,,,,,,,sngl,resources/DR.BMP,resources/Empty.png,Door1,-0.119444444,-0.016666667,1,0,0,0.6638,optionLeft,30,11970,6,3,0,3,0,1,,,,,,,,,,,,,,,,,,,,,,,,,,,,,,,,,,,,,,,
,,,,,,,,2023-08-16_08h47.03.642,HF_wild_card,2022.2.4,Win32,60.0132029,61502dee7a3a5468adbb2222,64d2fd46c836a06233681665,64dc7eeadaf0b543d8b5d47a,,,,,,,decisionTrl,resources/DR.BMP,resources/DY.BMP,WildCard_NonEx,0.147916667,-0.0125,1,0,0,0.787,optionRight,45,12015,6,4,0,4,0,1,,,,,,,,,,,,,,,,,,,,,,,,,,,,,,,,,,,,,,,
,,,,,,,,2023-08-16_08h47.03.642,HF_wild_card,2022.2.4,Win32,60.0132029,61502dee7a3a5468adbb2222,64d2fd46c836a06233681665,64dc7eeadaf0b543d8b5d47a,,,,,,,ctch,resources/DB.BMP,resources/DG.BMP,Door3,-0.158333333,-0.007638889,1,0,0,0.8422,optionLeft,70,12085,6,5,0,5,0,1,,,,,,,,,,,,,,,,,,,,,,,,,,,,,,,,,,,,,,,
,,,,,,,,2023-08-16_08h47.03.642,HF_wild_card,2022.2.4,Win32,60.0132029,61502dee7a3a5468adbb2222,64d2fd46c836a06233681665,64dc7eeadaf0b543d8b5d47a,,,,,,,ctch,resources/DB.BMP,resources/DG.BMP,Door3,-0.151388889,-0.013194444,1,0,0,0.7416,optionLeft,70,12155,6,6,0,6,0,1,,,,,,,,,,,,,,,,,,,,,,,,,,,,,,,,,,,,,,,
,,,,,,,,2023-08-16_08h47.03.642,HF_wild_card,2022.2.4,Win32,60.0132029,61502dee7a3a5468adbb2222,64d2fd46c836a06233681665,64dc7eeadaf0b543d8b5d47a,,,,,,,ctch,resources/DR.BMP,resources/DP.BMP,Door4,0.184027778,0.007638889,1,0,0,1.0556,optionRight,80,12235,6,7,0,7,0,1,,,,,,,,,,,,,,,,,,,,,,,,,,,,,,,,,,,,,,,
,,,,,,,,2023-08-16_08h47.03.642,HF_wild_card,2022.2.4,Win32,60.0132029,61502dee7a3a5468adbb2222,64d2fd46c836a06233681665,64dc7eeadaf0b543d8b5d47a,,,,,,,ctch,resources/DG.BMP,resources/DB.BMP,Door3,0.1875,-0.003472222,1,0,0,0.6993,optionRight,70,12305,6,8,0,8,0,1,,,,,,,,,,,,,,,,,,,,,,,,,,,,,,,,,,,,,,,
,,,,,,,,2023-08-16_08h47.03.642,HF_wild_card,2022.2.4,Win32,60.0132029,61502dee7a3a5468adbb2222,64d2fd46c836a06233681665,64dc7eeadaf0b543d8b5d47a,,,,,,,sngl,resources/Empty.png,resources/DY.BMP,WildCard_NonEx,0.118055556,-0.00625,1,0,0,0.651,optionRight,45,12350,6,9,0,9,0,1,,,,,,,,,,,,,,,,,,,,,,,,,,,,,,,,,,,,,,,
,,,,,,,,2023-08-16_08h47.03.642,HF_wild_card,2022.2.4,Win32,60.0132029,61502dee7a3a5468adbb2222,64d2fd46c836a06233681665,64dc7eeadaf0b543d8b5d47a,,,,,,,decisionTrl,resources/DR.BMP,resources/DG.BMP,Door2,0.122222222,0.002083333,1,0,0,1.1743,optionRight,40,12390,6,10,0,10,0,1,,,,,,,,,,,,,,,,,,,,,,,,,,,,,,,,,,,,,,,
,,,,,,,,2023-08-16_08h47.03.642,HF_wild_card,2022.2.4,Win32,60.0132029,61502dee7a3a5468adbb2222,64d2fd46c836a06233681665,64dc7eeadaf0b543d8b5d47a,,,,,,,ctch,resources/DG.BMP,resources/DB.BMP,Door3,0.135416667,-0.007638889,1,0,0,0.7589,optionRight,70,12460,6,11,0,11,0,1,,,,,,,,,,,,,,,,,,,,,,,,,,,,,,,,,,,,,,,
,,,,,,,,2023-08-16_08h47.03.642,HF_wild_card,2022.2.4,Win32,60.0132029,61502dee7a3a5468adbb2222,64d2fd46c836a06233681665,64dc7eeadaf0b543d8b5d47a,,,,,,,decisionTrl,resources/DB.BMP,resources/DP.BMP,Door3,-0.124305556,-0.015972222,1,0,0,0.646,optionLeft,70,12530,6,12,0,12,0,1,,,,,,,,,,,,,,,,,,,,,,,,,,,,,,,,,,,,,,,
,,,,,,,,2023-08-16_08h47.03.642,HF_wild_card,2022.2.4,Win32,60.0132029,61502dee7a3a5468adbb2222,64d2fd46c836a06233681665,64dc7eeadaf0b543d8b5d47a,,,,,,,decisionTrl,resources/DG.BMP,resources/DY.BMP,WildCard_NonEx,0.144444444,-0.013888889,1,0,0,0.8965,optionRight,45,12575,6,13,0,13,0,1,,,,,,,,,,,,,,,,,,,,,,,,,,,,,,,,,,,,,,,
,,,,,,,,2023-08-16_08h47.03.642,HF_wild_card,2022.2.4,Win32,60.0132029,61502dee7a3a5468adbb2222,64d2fd46c836a06233681665,64dc7eeadaf0b543d8b5d47a,,,,,,,sngl,resources/Empty.png,resources/DB.BMP,Door3,0.154166667,-0.003472222,1,0,0,0.5703,optionRight,70,12645,6,14,0,14,0,1,,,,,,,,,,,,,,,,,,,,,,,,,,,,,,,,,,,,,,,
,,,,,,,,2023-08-16_08h47.03.642,HF_wild_card,2022.2.4,Win32,60.0132029,61502dee7a3a5468adbb2222,64d2fd46c836a06233681665,64dc7eeadaf0b543d8b5d47a,,,,,,,decisionTrl,resources/DG.BMP,resources/DR.BMP,Door2,-0.128472222,0.004166667,1,0,0,1.1813,optionLeft,40,12685,6,15,0,15,0,1,,,,,,,,,,,,,,,,,,,,,,,,,,,,,,,,,,,,,,,
,,,,,,,,2023-08-16_08h47.03.642,HF_wild_card,2022.2.4,Win32,60.0132029,61502dee7a3a5468adbb2222,64d2fd46c836a06233681665,64dc7eeadaf0b543d8b5d47a,,,,,,,decisionTrl,resources/DB.BMP,resources/DP.BMP,Door4,0.130555556,0.00625,1,0,0,1.2802,optionRight,80,12765,6,16,0,16,0,1,,,,,,,,,,,,,,,,,,,,,,,,,,,,,,,,,,,,,,,
,,,,,,,,2023-08-16_08h47.03.642,HF_wild_card,2022.2.4,Win32,60.0132029,61502dee7a3a5468adbb2222,64d2fd46c836a06233681665,64dc7eeadaf0b543d8b5d47a,,,,,,,ctch,resources/DR.BMP,resources/DP.BMP,Door4,0.120833333,-0.006944444,1,0,0,0.7106,optionRight,60,12825,6,17,0,17,0,1,,,,,,,,,,,,,,,,,,,,,,,,,,,,,,,,,,,,,,,
,,,,,,,,2023-08-16_08h47.03.642,HF_wild_card,2022.2.4,Win32,60.0132029,61502dee7a3a5468adbb2222,64d2fd46c836a06233681665,64dc7eeadaf0b543d8b5d47a,,,,,,,sngl,resources/Empty.png,resources/DP.BMP,Door4,0.127777778,-0.005555556,1,0,0,0.5682,optionRight,80,12905,6,18,0,18,0,1,,,,,,,,,,,,,,,,,,,,,,,,,,,,,,,,,,,,,,,
,,,,,,,,2023-08-16_08h47.03.642,HF_wild_card,2022.2.4,Win32,60.0132029,61502dee7a3a5468adbb2222,64d2fd46c836a06233681665,64dc7eeadaf0b543d8b5d47a,,,,,,,ctch,resources/DP.BMP,resources/DR.BMP,Door4,-0.188888889,-0.000694444,1,0,0,0.6102,optionLeft,60,12965,6,19,0,19,0,1,,,,,,,,,,,,,,,,,,,,,,,,,,,,,,,,,,,,,,,
,,,,,,,,2023-08-16_08h47.03.642,HF_wild_card,2022.2.4,Win32,60.0132029,61502dee7a3a5468adbb2222,64d2fd46c836a06233681665,64dc7eeadaf0b543d8b5d47a,,,,,,,decisionTrl,resources/DR.BMP,resources/DG.BMP,Door2,0.161805556,0.00625,1,0,0,1.0965,optionRight,20,12985,6,20,0,20,0,1,,,,,,,,,,,,,,,,,,,,,,,,,,,,,,,,,,,,,,,
,,,,,,,,2023-08-16_08h47.03.642,HF_wild_card,2022.2.4,Win32,60.0132029,61502dee7a3a5468adbb2222,64d2fd46c836a06233681665,64dc7eeadaf0b543d8b5d47a,,,,,,,sngl,resources/Empty.png,resources/DG.BMP,Door2,0.127083333,-0.015972222,1,0,0,0.5678,optionRight,40,13025,6,21,0,21,0,1,,,,,,,,,,,,,,,,,,,,,,,,,,,,,,,,,,,,,,,
,,,,,,,,2023-08-16_08h47.03.642,HF_wild_card,2022.2.4,Win32,60.0132029,61502dee7a3a5468adbb2222,64d2fd46c836a06233681665,64dc7eeadaf0b543d8b5d47a,,,,,,,ctch,resources/DP.BMP,resources/DR.BMP,Door4,-0.149305556,-0.014583333,1,0,0,0.5726,optionLeft,60,13085,6,22,0,22,0,1,,,,,,,,,,,,,,,,,,,,,,,,,,,,,,,,,,,,,,,
,,,,,,,,2023-08-16_08h47.03.642,HF_wild_card,2022.2.4,Win32,60.0132029,61502dee7a3a5468adbb2222,64d2fd46c836a06233681665,64dc7eeadaf0b543d8b5d47a,,,,,,,decisionTrl,resources/DG.BMP,resources/DR.BMP,Door2,-0.136111111,0.000694444,1,0,0,1.0802,optionLeft,40,13125,6,23,0,23,0,1,,,,,,,,,,,,,,,,,,,,,,,,,,,,,,,,,,,,,,,
,,,,,,,,2023-08-16_08h47.03.642,HF_wild_card,2022.2.4,Win32,60.0132029,61502dee7a3a5468adbb2222,64d2fd46c836a06233681665,64dc7eeadaf0b543d8b5d47a,,,,,,,decisionTrl,resources/DB.BMP,resources/DP.BMP,Door3,-0.096527778,-0.005555556,1,0,0,1.0257,optionLeft,70,13195,6,24,0,24,0,1,,,,,,,,,,,,,,,,,,,,,,,,,,,,,,,,,,,,,,,
,,,,,,,,2023-08-16_08h47.03.642,HF_wild_card,2022.2.4,Win32,60.0132029,61502dee7a3a5468adbb2222,64d2fd46c836a06233681665,64dc7eeadaf0b543d8b5d47a,,,,,,,decisionTrl,resources/DG.BMP,resources/DR.BMP,Door1,0.186805556,0.010416667,1,0,0,1.3278,optionRight,30,13225,6,25,0,25,0,1,,,,,,,,,,,,,,,,,,,,,,,,,,,,,,,,,,,,,,,
,,,,,,,,2023-08-16_08h47.03.642,HF_wild_card,2022.2.4,Win32,60.0132029,61502dee7a3a5468adbb2222,64d2fd46c836a06233681665,64dc7eeadaf0b543d8b5d47a,,,,,,,decisionTrl,resources/DR.BMP,resources/DG.BMP,Door1,-0.121527778,-0.0125,1,0,0,0.5982,optionLeft,30,13255,6,26,0,26,0,1,,,,,,,,,,,,,,,,,,,,,,,,,,,,,,,,,,,,,,,
,,,,,,,,2023-08-16_08h47.03.642,HF_wild_card,2022.2.4,Win32,60.0132029,61502dee7a3a5468adbb2222,64d2fd46c836a06233681665,64dc7eeadaf0b543d8b5d47a,,,,,,,decisionTrl,resources/DP.BMP,resources/DB.BMP,Door3,0.145138889,0.008333333,1,0,0,0.7571,optionRight,70,13325,6,27,0,27,0,1,,,,,,,,,,,,,,,,,,,,,,,,,,,,,,,,,,,,,,,
,,,,,,,,2023-08-16_08h47.03.642,HF_wild_card,2022.2.4,Win32,60.0132029,61502dee7a3a5468adbb2222,64d2fd46c836a06233681665,64dc7eeadaf0b543d8b5d47a,,,,,,,sngl,resources/DB.BMP,resources/Empty.png,Door3,-0.164583333,0.004166667,1,0,0,0.6142,optionLeft,70,13395,6,28,0,28,0,1,,,,,,,,,,,,,,,,,,,,,,,,,,,,,,,,,,,,,,,
,,,,,,,,2023-08-16_08h47.03.642,HF_wild_card,2022.2.4,Win32,60.0132029,61502dee7a3a5468adbb2222,64d2fd46c836a06233681665,64dc7eeadaf0b543d8b5d47a,,,,,,,decisionTrl,resources/DG.BMP,resources/DR.BMP,Door2,-0.110416667,0.007638889,1,0,0,1.0794,optionLeft,40,13435,6,29,0,29,0,1,,,,,,,,,,,,,,,,,,,,,,,,,,,,,,,,,,,,,,,
,,,,,,,,2023-08-16_08h47.03.642,HF_wild_card,2022.2.4,Win32,60.0132029,61502dee7a3a5468adbb2222,64d2fd46c836a06233681665,64dc7eeadaf0b543d8b5d47a,,,,,,,sngl,resources/DY.BMP,resources/Empty.png,WildCard_NonEx,-0.15,0.005555556,1,0,0,0.642,optionLeft,55,13490,6,30,0,30,0,1,,,,,,,,,,,,,,,,,,,,,,,,,,,,,,,,,,,,,,,
,,,,,,,,2023-08-16_08h47.03.642,HF_wild_card,2022.2.4,Win32,60.0132029,61502dee7a3a5468adbb2222,64d2fd46c836a06233681665,64dc7eeadaf0b543d8b5d47a,,,,,,,decisionTrl,resources/DY.BMP,resources/DR.BMP,WildCard_NonEx,-0.186805556,0.001388889,1,0,0,0.7584,optionLeft,45,13535,6,31,0,31,0,1,,,,,,,,,,,,,,,,,,,,,,,,,,,,,,,,,,,,,,,
,,,,,,,,2023-08-16_08h47.03.642,HF_wild_card,2022.2.4,Win32,60.0132029,61502dee7a3a5468adbb2222,64d2fd46c836a06233681665,64dc7eeadaf0b543d8b5d47a,,,,,,,decisionTrl,resources/DY.BMP,resources/DG.BMP,WildCard_NonEx,-0.134722222,0.002777778,1,0,0,1.0288,optionLeft,45,13580,6,32,0,32,0,1,,,,,,,,,,,,,,,,,,,,,,,,,,,,,,,,,,,,,,,
,,,,,,,,2023-08-16_08h47.03.642,HF_wild_card,2022.2.4,Win32,60.0132029,61502dee7a3a5468adbb2222,64d2fd46c836a06233681665,64dc7eeadaf0b543d8b5d47a,,,,,,,sngl,resources/Empty.png,resources/DY.BMP,WildCard_NonEx,0.124305556,-0.004166667,1,0,0,0.6166,optionRight,55,13635,6,33,0,33,0,1,,,,,,,,,,,,,,,,,,,,,,,,,,,,,,,,,,,,,,,
,,,,,,,,2023-08-16_08h47.03.642,HF_wild_card,2022.2.4,Win32,60.0132029,61502dee7a3a5468adbb2222,64d2fd46c836a06233681665,64dc7eeadaf0b543d8b5d47a,,,,,,,decisionTrl,resources/DP.BMP,resources/DB.BMP,Door4,-0.144444444,-0.005555556,1,0,0,1.03,optionLeft,60,13695,6,34,0,34,0,1,,,,,,,,,,,,,,,,,,,,,,,,,,,,,,,,,,,,,,,
,,,,,,,,2023-08-16_08h47.03.642,HF_wild_card,2022.2.4,Win32,60.0132029,61502dee7a3a5468adbb2222,64d2fd46c836a06233681665,64dc7eeadaf0b543d8b5d47a,,,,,,,sngl,resources/Empty.png,resources/DR.BMP,Door1,0.106944444,-0.002083333,1,0,0,0.631,optionRight,30,13725,6,35,0,35,0,1,,,,,,,,,,,,,,,,,,,,,,,,,,,,,,,,,,,,,,,
,,,,,,,,2023-08-16_08h47.03.642,HF_wild_card,2022.2.4,Win32,60.0132029,61502dee7a3a5468adbb2222,64d2fd46c836a06233681665,64dc7eeadaf0b543d8b5d47a,,,,,,,sngl,resources/DP.BMP,resources/Empty.png,Door4,-0.219444444,-0.002777778,1,0,0,0.522,optionLeft,60,13785,6,36,0,36,0,1,,,,,,,,,,,,,,,,,,,,,,,,,,,,,,,,,,,,,,,
,,,,,,,,2023-08-16_08h47.03.642,HF_wild_card,2022.2.4,Win32,60.0132029,61502dee7a3a5468adbb2222,64d2fd46c836a06233681665,64dc7eeadaf0b543d8b5d47a,,,,,,,sngl,resources/DG.BMP,resources/Empty.png,Door2,-0.132638889,-0.013888889,1,0,0,0.7103,optionLeft,20,13805,6,37,0,37,0,1,,,,,,,,,,,,,,,,,,,,,,,,,,,,,,,,,,,,,,,
,,,,,,,,2023-08-16_08h47.03.642,HF_wild_card,2022.2.4,Win32,60.0132029,61502dee7a3a5468adbb2222,64d2fd46c836a06233681665,64dc7eeadaf0b543d8b5d47a,,,,,,,decisionTrl,resources/DP.BMP,resources/DB.BMP,Door3,0.142361111,-0.007638889,1,0,0,0.6073,optionRight,70,13875,6,38,0,38,0,1,,,,,,,,,,,,,,,,,,,,,,,,,,,,,,,,,,,,,,,
,,,,,,,,2023-08-16_08h47.03.642,HF_wild_card,2022.2.4,Win32,60.0132029,61502dee7a3a5468adbb2222,64d2fd46c836a06233681665,64dc7eeadaf0b543d8b5d47a,,,,,,,decisionTrl,resources/DB.BMP,resources/DP.BMP,Door4,0.121527778,0.007638889,1,0,0,1.1669,optionRight,80,13955,6,39,0,39,0,1,,,,,,,,,,,,,,,,,,,,,,,,,,,,,,,,,,,,,,,
,,,,,,,,2023-08-16_08h47.03.642,HF_wild_card,2022.2.4,Win32,60.0132029,61502dee7a3a5468adbb2222,64d2fd46c836a06233681665,64dc7eeadaf0b543d8b5d47a,,,,,,,decisionTrl,resources/DP.BMP,resources/DY.BMP,Door4,-0.194444444,-0.00625,1,0,0,0.549,optionLeft,60,14015,6,40,0,40,0,1,,,,,,,,,,,,,,,,,,,,,,,,,,,,,,,,,,,,,,,
,,,,,,,,2023-08-16_08h47.03.642,HF_wild_card,2022.2.4,Win32,60.0132029,61502dee7a3a5468adbb2222,64d2fd46c836a06233681665,64dc7eeadaf0b543d8b5d47a,,,,,,,sngl,resources/DY.BMP,resources/Empty.png,WildCard_NonEx,-0.204166667,-0.005555556,1,0,0,0.5057,optionLeft,45,14060,6,41,0,41,0,1,,,,,,,,,,,,,,,,,,,,,,,,,,,,,,,,,,,,,,,
,,,,,,,,2023-08-16_08h47.03.642,HF_wild_card,2022.2.4,Win32,60.0132029,61502dee7a3a5468adbb2222,64d2fd46c836a06233681665,64dc7eeadaf0b543d8b5d47a,,,,,,,decisionTrl,resources/DP.BMP,resources/DB.BMP,Door3,0.130555556,0.002777778,1,0,0,0.6801,optionRight,70,14130,6,42,0,42,0,1,,,,,,,,,,,,,,,,,,,,,,,,,,,,,,,,,,,,,,,
,,,,,,,,2023-08-16_08h47.03.642,HF_wild_card,2022.2.4,Win32,60.0132029,61502dee7a3a5468adbb2222,64d2fd46c836a06233681665,64dc7eeadaf0b543d8b5d47a,,,,,,,decisionTrl,resources/DY.BMP,resources/DB.BMP,Door3,0.178472222,0.010416667,1,0,0,0.9046,optionRight,70,14200,6,43,0,43,0,1,,,,,,,,,,,,,,,,,,,,,,,,,,,,,,,,,,,,,,,
,,,,,,,,2023-08-16_08h47.03.642,HF_wild_card,2022.2.4,Win32,60.0132029,61502dee7a3a5468adbb2222,64d2fd46c836a06233681665,64dc7eeadaf0b543d8b5d47a,,,,,,,,,,,,,,,,,,,,,,,,,,5,0,5,0,1,,,,,,,,,,,,,,,,,,,,,,,,,,,,,,,,,,
,,,,,,,,2023-08-16_08h47.03.642,HF_wild_card,2022.2.4,Win32,60.0132029,61502dee7a3a5468adbb2222,64d2fd46c836a06233681665,64dc7eeadaf0b543d8b5d47a,,,,,,,ctch,resources/DR.BMP,resources/DP.BMP,Door4,0.167361111,-0.027083333,1,0,0,0.7841,optionRight,60,14260,7,0,0,0,0,1,,,,,,,,,,,,,,,,,,,,,,,,,,,,,,,,,,,,,,,
,,,,,,,,2023-08-16_08h47.03.642,HF_wild_card,2022.2.4,Win32,60.0132029,61502dee7a3a5468adbb2222,64d2fd46c836a06233681665,64dc7eeadaf0b543d8b5d47a,,,,,,,decisionTrl,resources/DG.BMP,resources/DR.BMP,Door1,0.147222222,-0.002083333,1,0,0,1.4164,optionRight,30,14290,7,1,0,1,0,1,,,,,,,,,,,,,,,,,,,,,,,,,,,,,,,,,,,,,,,
,,,,,,,,2023-08-16_08h47.03.642,HF_wild_card,2022.2.4,Win32,60.0132029,61502dee7a3a5468adbb2222,64d2fd46c836a06233681665,64dc7eeadaf0b543d8b5d47a,,,,,,,decisionTrl,resources/DR.BMP,resources/DG.BMP,Door1,-0.141666667,-0.001388889,1,0,0,1.2979,optionLeft,30,14320,7,2,0,2,0,1,,,,,,,,,,,,,,,,,,,,,,,,,,,,,,,,,,,,,,,
,,,,,,,,2023-08-16_08h47.03.642,HF_wild_card,2022.2.4,Win32,60.0132029,61502dee7a3a5468adbb2222,64d2fd46c836a06233681665,64dc7eeadaf0b543d8b5d47a,,,,,,,ctch,resources/DR.BMP,resources/DP.BMP,Door4,0.1625,0.002777778,1,0,0,0.7408,optionRight,60,14380,7,3,0,3,0,1,,,,,,,,,,,,,,,,,,,,,,,,,,,,,,,,,,,,,,,
,,,,,,,,2023-08-16_08h47.03.642,HF_wild_card,2022.2.4,Win32,60.0132029,61502dee7a3a5468adbb2222,64d2fd46c836a06233681665,64dc7eeadaf0b543d8b5d47a,,,,,,,decisionTrl,resources/DP.BMP,resources/DB.BMP,Door3,0.163194444,0.004166667,1,0,0,1.4694,optionRight,70,14450,7,4,0,4,0,1,,,,,,,,,,,,,,,,,,,,,,,,,,,,,,,,,,,,,,,
,,,,,,,,2023-08-16_08h47.03.642,HF_wild_card,2022.2.4,Win32,60.0132029,61502dee7a3a5468adbb2222,64d2fd46c836a06233681665,64dc7eeadaf0b543d8b5d47a,,,,,,,ctch,resources/DP.BMP,resources/DR.BMP,Door4,-0.147916667,-0.011111111,1,0,0,0.7492,optionLeft,80,14530,7,5,0,5,0,1,,,,,,,,,,,,,,,,,,,,,,,,,,,,,,,,,,,,,,,
,,,,,,,,2023-08-16_08h47.03.642,HF_wild_card,2022.2.4,Win32,60.0132029,61502dee7a3a5468adbb2222,64d2fd46c836a06233681665,64dc7eeadaf0b543d8b5d47a,,,,,,,decisionTrl,resources/DP.BMP,resources/DB.BMP,Door3,0.115277778,0.004861111,1,0,0,1.1149,optionRight,70,14600,7,6,0,6,0,1,,,,,,,,,,,,,,,,,,,,,,,,,,,,,,,,,,,,,,,
,,,,,,,,2023-08-16_08h47.03.642,HF_wild_card,2022.2.4,Win32,60.0132029,61502dee7a3a5468adbb2222,64d2fd46c836a06233681665,64dc7eeadaf0b543d8b5d47a,,,,,,,ctch,resources/DB.BMP,resources/DG.BMP,Door3,-0.128472222,0.002083333,1,0,0,0.9098,optionLeft,70,14670,7,7,0,7,0,1,,,,,,,,,,,,,,,,,,,,,,,,,,,,,,,,,,,,,,,
,,,,,,,,2023-08-16_08h47.03.642,HF_wild_card,2022.2.4,Win32,60.0132029,61502dee7a3a5468adbb2222,64d2fd46c836a06233681665,64dc7eeadaf0b543d8b5d47a,,,,,,,decisionTrl,resources/DR.BMP,resources/DG.BMP,Door1,-0.161805556,-0.002083333,1,0,0,2.4093,optionLeft,30,14700,7,8,0,8,0,1,,,,,,,,,,,,,,,,,,,,,,,,,,,,,,,,,,,,,,,
,,,,,,,,2023-08-16_08h47.03.642,HF_wild_card,2022.2.4,Win32,60.0132029,61502dee7a3a5468adbb2222,64d2fd46c836a06233681665,64dc7eeadaf0b543d8b5d47a,,,,,,,ctch,resources/DG.BMP,resources/DB.BMP,Door3,0.186805556,0.003472222,1,0,0,0.7754,optionRight,70,14770,7,9,0,9,0,1,,,,,,,,,,,,,,,,,,,,,,,,,,,,,,,,,,,,,,,
,,,,,,,,2023-08-16_08h47.03.642,HF_wild_card,2022.2.4,Win32,60.0132029,61502dee7a3a5468adbb2222,64d2fd46c836a06233681665,64dc7eeadaf0b543d8b5d47a,,,,,,,decisionTrl,resources/DR.BMP,resources/DG.BMP,Door1,-0.151388889,0,1,0,0,1.8625,optionLeft,30,14800,7,10,0,10,0,1,,,,,,,,,,,,,,,,,,,,,,,,,,,,,,,,,,,,,,,
,,,,,,,,2023-08-16_08h47.03.642,HF_wild_card,2022.2.4,Win32,60.0132029,61502dee7a3a5468adbb2222,64d2fd46c836a06233681665,64dc7eeadaf0b543d8b5d47a,,,,,,,ctch,resources/DP.BMP,resources/DR.BMP,Door4,-0.200694444,0,1,0,0,0.7726,optionLeft,60,14860,7,11,0,11,0,1,,,,,,,,,,,,,,,,,,,,,,,,,,,,,,,,,,,,,,,
,,,,,,,,2023-08-16_08h47.03.642,HF_wild_card,2022.2.4,Win32,60.0132029,61502dee7a3a5468adbb2222,64d2fd46c836a06233681665,64dc7eeadaf0b543d8b5d47a,,,,,,,decisionTrl,resources/DG.BMP,resources/DR.BMP,Door1,0.142361111,0,1,0,0,1.0341,optionRight,30,14890,7,12,0,12,0,1,,,,,,,,,,,,,,,,,,,,,,,,,,,,,,,,,,,,,,,
,,,,,,,,2023-08-16_08h47.03.642,HF_wild_card,2022.2.4,Win32,60.0132029,61502dee7a3a5468adbb2222,64d2fd46c836a06233681665,64dc7eeadaf0b543d8b5d47a,,,,,,,decisionTrl,resources/DB.BMP,resources/DP.BMP,Door3,-0.116666667,-0.002083333,1,0,0,1.5917,optionLeft,70,14960,7,13,0,13,0,1,,,,,,,,,,,,,,,,,,,,,,,,,,,,,,,,,,,,,,,
,,,,,,,,2023-08-16_08h47.03.642,HF_wild_card,2022.2.4,Win32,60.0132029,61502dee7a3a5468adbb2222,64d2fd46c836a06233681665,64dc7eeadaf0b543d8b5d47a,,,,,,,ctch,resources/DP.BMP,resources/DR.BMP,Door4,-0.148611111,0.004861111,1,0,0,0.7238,optionLeft,60,15020,7,14,0,14,0,1,,,,,,,,,,,,,,,,,,,,,,,,,,,,,,,,,,,,,,,
,,,,,,,,2023-08-16_08h47.03.642,HF_wild_card,2022.2.4,Win32,60.0132029,61502dee7a3a5468adbb2222,64d2fd46c836a06233681665,64dc7eeadaf0b543d8b5d47a,,,,,,,decisionTrl,resources/DP.BMP,resources/DB.BMP,Door3,0.165277778,0.002083333,1,0,0,1.0526,optionRight,70,15090,7,15,0,15,0,1,,,,,,,,,,,,,,,,,,,,,,,,,,,,,,,,,,,,,,,
,,,,,,,,2023-08-16_08h47.03.642,HF_wild_card,2022.2.4,Win32,60.0132029,61502dee7a3a5468adbb2222,64d2fd46c836a06233681665,64dc7eeadaf0b543d8b5d47a,,,,,,,decisionTrl,resources/DP.BMP,resources/DB.BMP,Door3,0.147222222,-0.006944444,1,0,0,0.8966,optionRight,70,15160,7,16,0,16,0,1,,,,,,,,,,,,,,,,,,,,,,,,,,,,,,,,,,,,,,,
,,,,,,,,2023-08-16_08h47.03.642,HF_wild_card,2022.2.4,Win32,60.0132029,61502dee7a3a5468adbb2222,64d2fd46c836a06233681665,64dc7eeadaf0b543d8b5d47a,,,,,,,ctch,resources/DB.BMP,resources/DG.BMP,Door3,-0.173611111,-0.003472222,1,0,0,0.6825,optionLeft,70,15230,7,17,0,17,0,1,,,,,,,,,,,,,,,,,,,,,,,,,,,,,,,,,,,,,,,
,,,,,,,,2023-08-16_08h47.03.642,HF_wild_card,2022.2.4,Win32,60.0132029,61502dee7a3a5468adbb2222,64d2fd46c836a06233681665,64dc7eeadaf0b543d8b5d47a,,,,,,,ctch,resources/DG.BMP,resources/DB.BMP,Door3,0.156944444,0.001388889,1,0,0,0.7062,optionRight,70,15300,7,18,0,18,0,1,,,,,,,,,,,,,,,,,,,,,,,,,,,,,,,,,,,,,,,
,,,,,,,,2023-08-16_08h47.03.642,HF_wild_card,2022.2.4,Win32,60.0132029,61502dee7a3a5468adbb2222,64d2fd46c836a06233681665,64dc7eeadaf0b543d8b5d47a,,,,,,,decisionTrl,resources/DR.BMP,resources/DG.BMP,Door1,-0.134027778,-0.013888889,1,0,0,1.2677,optionLeft,30,15330,7,19,0,19,0,1,,,,,,,,,,,,,,,,,,,,,,,,,,,,,,,,,,,,,,,
,,,,,,,,2023-08-16_08h47.03.642,HF_wild_card,2022.2.4,Win32,60.0132029,61502dee7a3a5468adbb2222,64d2fd46c836a06233681665,64dc7eeadaf0b543d8b5d47a,,,,,,,decisionTrl,resources/DG.BMP,resources/DR.BMP,Door1,0.11875,0.000694444,1,0,0,1.0805,optionRight,30,15360,7,20,0,20,0,1,,,,,,,,,,,,,,,,,,,,,,,,,,,,,,,,,,,,,,,
,,,,,,,,2023-08-16_08h47.03.642,HF_wild_card,2022.2.4,Win32,60.0132029,61502dee7a3a5468adbb2222,64d2fd46c836a06233681665,64dc7eeadaf0b543d8b5d47a,,,,,,,decisionTrl,resources/DR.BMP,resources/DG.BMP,Door1,-0.144444444,0.011111111,1,0,0,1.884,optionLeft,30,15390,7,21,0,21,0,1,,,,,,,,,,,,,,,,,,,,,,,,,,,,,,,,,,,,,,,
,,,,,,,,2023-08-16_08h47.03.642,HF_wild_card,2022.2.4,Win32,60.0132029,61502dee7a3a5468adbb2222,64d2fd46c836a06233681665,64dc7eeadaf0b543d8b5d47a,,,,,,,decisionTrl,resources/DR.BMP,resources/DG.BMP,Door1,-0.172222222,0.004861111,1,0,0,0.7627,optionLeft,30,15420,7,22,0,22,0,1,,,,,,,,,,,,,,,,,,,,,,,,,,,,,,,,,,,,,,,
,,,,,,,,2023-08-16_08h47.03.642,HF_wild_card,2022.2.4,Win32,60.0132029,61502dee7a3a5468adbb2222,64d2fd46c836a06233681665,64dc7eeadaf0b543d8b5d47a,,,,,,,decisionTrl,resources/DP.BMP,resources/DB.BMP,Door3,0.105555556,0.001388889,1,0,0,1.2702,optionRight,70,15490,7,23,0,23,0,1,,,,,,,,,,,,,,,,,,,,,,,,,,,,,,,,,,,,,,,
,,,,,,,,2023-08-16_08h47.03.642,HF_wild_card,2022.2.4,Win32,60.0132029,61502dee7a3a5468adbb2222,64d2fd46c836a06233681665,64dc7eeadaf0b543d8b5d47a,,,,,,,decisionTrl,resources/DP.BMP,resources/DB.BMP,Door3,0.135416667,0.005555556,1,0,0,0.9936,optionRight,70,15560,7,24,0,24,0,1,,,,,,,,,,,,,,,,,,,,,,,,,,,,,,,,,,,,,,,
,,,,,,,,2023-08-16_08h47.03.642,HF_wild_card,2022.2.4,Win32,60.0132029,61502dee7a3a5468adbb2222,64d2fd46c836a06233681665,64dc7eeadaf0b543d8b5d47a,,,,,,,decisionTrl,resources/DG.BMP,resources/DR.BMP,Door1,0.11875,0.011111111,1,0,0,1.446,optionRight,30,15590,7,25,0,25,0,1,,,,,,,,,,,,,,,,,,,,,,,,,,,,,,,,,,,,,,,
,,,,,,,,2023-08-16_08h47.03.642,HF_wild_card,2022.2.4,Win32,60.0132029,61502dee7a3a5468adbb2222,64d2fd46c836a06233681665,64dc7eeadaf0b543d8b5d47a,,,,,,,ctch,resources/DR.BMP,resources/DP.BMP,Door4,0.121527778,0.008333333,1,0,0,0.892,optionRight,80,15670,7,26,0,26,0,1,,,,,,,,,,,,,,,,,,,,,,,,,,,,,,,,,,,,,,,
,,,,,,,,2023-08-16_08h47.03.642,HF_wild_card,2022.2.4,Win32,60.0132029,61502dee7a3a5468adbb2222,64d2fd46c836a06233681665,64dc7eeadaf0b543d8b5d47a,,,,,,,decisionTrl,resources/DG.BMP,resources/DR.BMP,Door1,0.181944444,-0.002777778,1,0,0,1.8226,optionRight,30,15700,7,27,0,27,0,1,,,,,,,,,,,,,,,,,,,,,,,,,,,,,,,,,,,,,,,
,,,,,,,,2023-08-16_08h47.03.642,HF_wild_card,2022.2.4,Win32,60.0132029,61502dee7a3a5468adbb2222,64d2fd46c836a06233681665,64dc7eeadaf0b543d8b5d47a,,,,,,,decisionTrl,resources/DB.BMP,resources/DP.BMP,Door3,-0.163888889,-0.009722222,1,0,0,1.7668,optionLeft,70,15770,7,28,0,28,0,1,,,,,,,,,,,,,,,,,,,,,,,,,,,,,,,,,,,,,,,
,,,,,,,,2023-08-16_08h47.03.642,HF_wild_card,2022.2.4,Win32,60.0132029,61502dee7a3a5468adbb2222,64d2fd46c836a06233681665,64dc7eeadaf0b543d8b5d47a,,,,,,,decisionTrl,resources/DB.BMP,resources/DP.BMP,Door3,-0.120138889,0,1,0,0,1.1487,optionLeft,70,15840,7,29,0,29,0,1,,,,,,,,,,,,,,,,,,,,,,,,,,,,,,,,,,,,,,,
,,,,,,,,2023-08-16_08h47.03.642,HF_wild_card,2022.2.4,Win32,60.0132029,61502dee7a3a5468adbb2222,64d2fd46c836a06233681665,64dc7eeadaf0b543d8b5d47a,,,,,,,decisionTrl,resources/DB.BMP,resources/DP.BMP,Door3,-0.134722222,0.006944444,1,0,0,0.7937,optionLeft,70,15910,7,30,0,30,0,1,,,,,,,,,,,,,,,,,,,,,,,,,,,,,,,,,,,,,,,
,,,,,,,,2023-08-16_08h47.03.642,HF_wild_card,2022.2.4,Win32,60.0132029,61502dee7a3a5468adbb2222,64d2fd46c836a06233681665,64dc7eeadaf0b543d8b5d47a,,,,,,,ctch,resources/DG.BMP,resources/DB.BMP,Door3,0.161805556,0,1,0,0,0.7964,optionRight,70,15980,7,31,0,31,0,1,,,,,,,,,,,,,,,,,,,,,,,,,,,,,,,,,,,,,,,
,,,,,,,,2023-08-16_08h47.03.642,HF_wild_card,2022.2.4,Win32,60.0132029,61502dee7a3a5468adbb2222,64d2fd46c836a06233681665,64dc7eeadaf0b543d8b5d47a,,,,,,,decisionTrl,resources/DB.BMP,resources/DP.BMP,Door3,-0.157638889,0.007638889,1,0,0,0.8622,optionLeft,70,16050,7,32,0,32,0,1,,,,,,,,,,,,,,,,,,,,,,,,,,,,,,,,,,,,,,,
,,,,,,,,2023-08-16_08h47.03.642,HF_wild_card,2022.2.4,Win32,60.0132029,61502dee7a3a5468adbb2222,64d2fd46c836a06233681665,64dc7eeadaf0b543d8b5d47a,,,,,,,decisionTrl,resources/DB.BMP,resources/DP.BMP,Door3,-0.125694444,0.011805556,1,0,0,0.7362,optionLeft,70,16120,7,33,0,33,0,1,,,,,,,,,,,,,,,,,,,,,,,,,,,,,,,,,,,,,,,
,,,,,,,,2023-08-16_08h47.03.642,HF_wild_card,2022.2.4,Win32,60.0132029,61502dee7a3a5468adbb2222,64d2fd46c836a06233681665,64dc7eeadaf0b543d8b5d47a,,,,,,,ctch,resources/DB.BMP,resources/DG.BMP,Door3,-0.111805556,0.006944444,1,0,0,0.6333,optionLeft,70,16190,7,34,0,34,0,1,,,,,,,,,,,,,,,,,,,,,,,,,,,,,,,,,,,,,,,
,,,,,,,,2023-08-16_08h47.03.642,HF_wild_card,2022.2.4,Win32,60.0132029,61502dee7a3a5468adbb2222,64d2fd46c836a06233681665,64dc7eeadaf0b543d8b5d47a,,,,,,,decisionTrl,resources/DG.BMP,resources/DR.BMP,Door1,0.115277778,0.011805556,1,0,0,1.0487,optionRight,30,16220,7,35,0,35,0,1,,,,,,,,,,,,,,,,,,,,,,,,,,,,,,,,,,,,,,,
,,,,,,,,2023-08-16_08h47.03.642,HF_wild_card,2022.2.4,Win32,60.0132029,61502dee7a3a5468adbb2222,64d2fd46c836a06233681665,64dc7eeadaf0b543d8b5d47a,,,,,,,,,,,,,,,,,,,,,,,,,,6,0,6,0,1,,,,,,,,,,,,,,,,,,,,,,,,,,,,,,,,,,
,,,,,,,,2023-08-16_08h47.03.642,HF_wild_card,2022.2.4,Win32,60.0132029,61502dee7a3a5468adbb2222,64d2fd46c836a06233681665,64dc7eeadaf0b543d8b5d47a,,,,,,,,,,,,,,,,,,,,,,,,,,,,,,,4,,,,,,,,,,,,,,,,,,,,,,,,,,,,,,,,,
,,,,,,,,2023-08-16_08h47.03.642,HF_wild_card,2022.2.4,Win32,60.0132029,61502dee7a3a5468adbb2222,64d2fd46c836a06233681665,64dc7eeadaf0b543d8b5d47a,,,,,,,,,,,,,,,,,,,,,,,,,,,,,,,,,,,,,,,,,,,,,,,,,,,,,,,,,,,,,,,,
,,,,,,,,2023-08-16_08h47.03.642,HF_wild_card,2022.2.4,Win32,60.0132029,61502dee7a3a5468adbb2222,64d2fd46c836a06233681665,64dc7eeadaf0b543d8b5d47a,,,,,,,,,,,,,,,,,,,,,,,,,,,,,,,,70,Door3,resources/DB.BMP,0,0,0,0,1,,,,,,,,,,,,,,,,,,,,,,,,,
,,,,,,,,2023-08-16_08h47.03.642,HF_wild_card,2022.2.4,Win32,60.0132029,61502dee7a3a5468adbb2222,64d2fd46c836a06233681665,64dc7eeadaf0b543d8b5d47a,,,,,,,,,,,,,,,,,,,,,,,,,,,,,,,,40,Door2,resources/DG.BMP,1,0,1,0,1,,,,,,,,,,,,,,,,,,,,,,,,,
,,,,,,,,2023-08-16_08h47.03.642,HF_wild_card,2022.2.4,Win32,60.0132029,61502dee7a3a5468adbb2222,64d2fd46c836a06233681665,64dc7eeadaf0b543d8b5d47a,,,,,,,,,,,,,,,,,,,,,,,,,,,,,,,,80,Door4,resources/DP.BMP,2,0,2,0,1,,,,,,,,,,,,,,,,,,,,,,,,,
,,,,,,,,2023-08-16_08h47.03.642,HF_wild_card,2022.2.4,Win32,60.0132029,61502dee7a3a5468adbb2222,64d2fd46c836a06233681665,64dc7eeadaf0b543d8b5d47a,,,,,,,,,,,,,,,,,,,,,,,,,,,,,,,,95,WC_extreme,resources/DBN.BMP,3,0,3,0,1,,,,,,,,,,,,,,,,,,,,,,,,,
,,,,,,,,2023-08-16_08h47.03.642,HF_wild_card,2022.2.4,Win32,60.0132029,61502dee7a3a5468adbb2222,64d2fd46c836a06233681665,64dc7eeadaf0b543d8b5d47a,,,,,,,,,,,,,,,,,,,,,,,,,,,,,,,,30,Door1,resources/DR.BMP,4,0,4,0,1,,,,,,,,,,,,,,,,,,,,,,,,,
,,,,,,,,2023-08-16_08h47.03.642,HF_wild_card,2022.2.4,Win32,60.0132029,61502dee7a3a5468adbb2222,64d2fd46c836a06233681665,64dc7eeadaf0b543d8b5d47a,,,,,,,,,,,,,,,,,,,,,,,,,,,,,,,,45,WC_nonExtreme,resources/DY.BMP,5,0,5,0,1,,,,,,,,,,,,,,,,,,,,,,,,,
,,,,,,,,2023-08-16_08h47.03.642,HF_wild_card,2022.2.4,Win32,60.0132029,61502dee7a3a5468adbb2222,64d2fd46c836a06233681665,64dc7eeadaf0b543d8b5d47a,,,,,,,,,,,,,,,,,,,,,,,,,,,,,,,,,,,,,,,,,,,,,,,,,,,,,,,,,,,,,,,,
,,,,,,,,2023-08-16_08h47.03.642,HF_wild_card,2022.2.4,Win32,60.0132029,61502dee7a3a5468adbb2222,64d2fd46c836a06233681665,64dc7eeadaf0b543d8b5d47a,,,,,,,,,,,,,,,,,,,,,,,,,,,,,,,,,,,,,,,,0,0,0,0,1,,,,,,,,,,,,,,,,,,,,
,,,,,,,,2023-08-16_08h47.03.642,HF_wild_card,2022.2.4,Win32,60.0132029,61502dee7a3a5468adbb2222,64d2fd46c836a06233681665,64dc7eeadaf0b543d8b5d47a,,,,,,,,,,,,,,,,,,,,,,,,,,,,,,,,,,,,,,,,1,0,1,0,1,,,,,,,,,,,,,,,,,,,,
,,,,,,,,2023-08-16_08h47.03.642,HF_wild_card,2022.2.4,Win32,60.0132029,61502dee7a3a5468adbb2222,64d2fd46c836a06233681665,64dc7eeadaf0b543d8b5d47a,,,,,,,,,,,,,,,,,,,,,,,,,,,,,,,,,,,,,,,,,,,,,-0.283333333,-0.402777778,1,0,0,yes,50%,50%,WC_nonExtreme,resources/DY.BMP,0,0,0,0,1,,,,,
