Condition,Low fixed image (Door1),Low risky image (Door2),High fixed image (Door3),High risky image (Door4),NonExtreme Wild Card 1,NonExtreme Wild Card 2,,date,expName,psychopyVersion,OS,frameRate,PROLIFIC_PID,STUDY_ID,SESSION_ID,mouse_2.x,mouse_2.y,mouse_2.leftButton,mouse_2.midButton,mouse_2.rightButton,mouse_2.clicked_name,Trial Type,Left Option Image,Right Option Image,Chosen Door,mouse.x,mouse.y,mouse.leftButton,mouse.midButton,mouse.rightButton,mouse.time,mouse.clicked_name,Feedback,Cumulative Reward,Block,trial.thisRepN,trial.thisTrialN,trial.thisN,trial.thisIndex,trial.ran,blocks.thisRepN,blocks.thisTrialN,blocks.thisN,blocks.thisIndex,blocks.ran,Money conversion,First Outcome Reported,Shown Door (First Outcome),Displayed Image (First Outcome),outcomes.thisRepN,outcomes.thisTrialN,outcomes.thisN,outcomes.thisIndex,outcomes.ran,judgments.thisRepN,judgments.thisTrialN,judgments.thisN,judgments.thisIndex,judgments.ran,freqMouse.x,freqMouse.y,freqMouse.leftButton,freqMouse.midButton,freqMouse.rightButton,freqMouse.clicked_name,FQJ for first outcome,FQJ for second outcome,Shown Door,Displayed Image,trials.thisRepN,trials.thisTrialN,trials.thisN,trials.thisIndex,trials.ran,judgBlock.thisRepN,judgBlock.thisTrialN,judgBlock.thisN,judgBlock.thisIndex,judgBlock.ran
2,resources/DP.BMP,resources/DG.BMP,resources/DBN.BMP,resources/DR.BMP,resources/DY.BMP,resources/DB.BMP,,2023-08-16_08h44.16.702,HF_wild_card,2022.2.4,Linux x86_64,60.0276127,5b2a2d855b5c0900018b0bf5,64d2fd46c836a06233681665,64dc7e2e77a80cefdd86de8e,,,,,,,,,,,,,,,,,,,,,,,,,,,,,,,,,,,,,,,,,,,,,,,,,,,,,,,,,,,,,,,,
,,,,,,,,2023-08-16_08h44.16.702,HF_wild_card,2022.2.4,Linux x86_64,60.0276127,5b2a2d855b5c0900018b0bf5,64d2fd46c836a06233681665,64dc7e2e77a80cefdd86de8e,-6.84261E-05,-0.419486443,1,0,0,agree,,,,,,,,,,,,,,,,,,,,,,,,,,,,,,,,,,,,,,,,,,,,,,,,,,,,,,,,,,
,,,,,,,,2023-08-16_08h44.16.702,HF_wild_card,2022.2.4,Linux x86_64,60.0276127,5b2a2d855b5c0900018b0bf5,64d2fd46c836a06233681665,64dc7e2e77a80cefdd86de8e,,,,,,,,,,,,,,,,,,,,,,,,,,,,,,,,,,,,,,,,,,,,,,,,,,,,,,,,,,,,,,,,
,,,,,,,,2023-08-16_08h44.16.702,HF_wild_card,2022.2.4,Linux x86_64,60.0276127,5b2a2d855b5c0900018b0bf5,64d2fd46c836a06233681665,64dc7e2e77a80cefdd86de8e,,,,,,,sngl,resources/Empty.png,resources/DB.BMP,WildCard_NonEx,0.387527148,-0.03480192,1,0,0,4.2434,optionRight,55,55,1,0,0,0,0,1,,,,,,,,,,,,,,,,,,,,,,,,,,,,,,,,,,,,,,,
,,,,,,,,2023-08-16_08h44.16.702,HF_wild_card,2022.2.4,Linux x86_64,60.0276127,5b2a2d855b5c0900018b0bf5,64d2fd46c836a06233681665,64dc7e2e77a80cefdd86de8e,,,,,,,decisionTrl,resources/DG.BMP,resources/DP.BMP,Door1,0.345325549,0.04208835,1,0,0,2.9804,optionRight,30,85,1,1,0,1,0,1,,,,,,,,,,,,,,,,,,,,,,,,,,,,,,,,,,,,,,,
,,,,,,,,2023-08-16_08h44.16.702,HF_wild_card,2022.2.4,Linux x86_64,60.0276127,5b2a2d855b5c0900018b0bf5,64d2fd46c836a06233681665,64dc7e2e77a80cefdd86de8e,,,,,,,decisionTrl,resources/DR.BMP,resources/DBN.BMP,Door4,-0.406862934,-0.088308692,1,0,0,2.5409,optionLeft,60,145,1,2,0,2,0,1,,,,,,,,,,,,,,,,,,,,,,,,,,,,,,,,,,,,,,,
,,,,,,,,2023-08-16_08h44.16.702,HF_wild_card,2022.2.4,Linux x86_64,60.0276127,5b2a2d855b5c0900018b0bf5,64d2fd46c836a06233681665,64dc7e2e77a80cefdd86de8e,,,,,,,decisionTrl,resources/DBN.BMP,resources/DR.BMP,Door3,-0.410910686,-0.03638351,1,0,0,1.7595,optionLeft,70,215,1,3,0,3,0,1,,,,,,,,,,,,,,,,,,,,,,,,,,,,,,,,,,,,,,,
,,,,,,,,2023-08-16_08h44.16.702,HF_wild_card,2022.2.4,Linux x86_64,60.0276127,5b2a2d855b5c0900018b0bf5,64d2fd46c836a06233681665,64dc7e2e77a80cefdd86de8e,,,,,,,sngl,resources/DB.BMP,resources/Empty.png,WildCard_NonEx,-0.38377734,-0.011074583,1,0,0,1.7418,optionLeft,55,270,1,4,0,4,0,1,,,,,,,,,,,,,,,,,,,,,,,,,,,,,,,,,,,,,,,
,,,,,,,,2023-08-16_08h44.16.702,HF_wild_card,2022.2.4,Linux x86_64,60.0276127,5b2a2d855b5c0900018b0bf5,64d2fd46c836a06233681665,64dc7e2e77a80cefdd86de8e,,,,,,,ctch,resources/DP.BMP,resources/DR.BMP,Door4,0.297381401,-0.055029949,1,0,0,3.0914,optionRight,80,350,1,5,0,5,0,1,,,,,,,,,,,,,,,,,,,,,,,,,,,,,,,,,,,,,,,
,,,,,,,,2023-08-16_08h44.16.702,HF_wild_card,2022.2.4,Linux x86_64,60.0276127,5b2a2d855b5c0900018b0bf5,64d2fd46c836a06233681665,64dc7e2e77a80cefdd86de8e,,,,,,,ctch,resources/DG.BMP,resources/DBN.BMP,Door3,0.342738152,0.002147754,1,0,0,1.5597,optionRight,70,420,1,6,0,6,0,1,,,,,,,,,,,,,,,,,,,,,,,,,,,,,,,,,,,,,,,
,,,,,,,,2023-08-16_08h44.16.702,HF_wild_card,2022.2.4,Linux x86_64,60.0276127,5b2a2d855b5c0900018b0bf5,64d2fd46c836a06233681665,64dc7e2e77a80cefdd86de8e,,,,,,,decisionTrl,resources/DR.BMP,resources/DBN.BMP,Door3,0.312686841,0.012453596,1,0,0,1.8089,optionRight,70,490,1,7,0,7,0,1,,,,,,,,,,,,,,,,,,,,,,,,,,,,,,,,,,,,,,,
,,,,,,,,2023-08-16_08h44.16.702,HF_wild_card,2022.2.4,Linux x86_64,60.0276127,5b2a2d855b5c0900018b0bf5,64d2fd46c836a06233681665,64dc7e2e77a80cefdd86de8e,,,,,,,decisionTrl,resources/DP.BMP,resources/DG.BMP,Door2,0.342368364,0.008882284,1,0,0,1.8561,optionRight,40,530,1,8,0,8,0,1,,,,,,,,,,,,,,,,,,,,,,,,,,,,,,,,,,,,,,,
,,,,,,,,2023-08-16_08h44.16.702,HF_wild_card,2022.2.4,Linux x86_64,60.0276127,5b2a2d855b5c0900018b0bf5,64d2fd46c836a06233681665,64dc7e2e77a80cefdd86de8e,,,,,,,sngl,resources/Empty.png,resources/DB.BMP,WildCard_NonEx,0.290217082,-0.009133498,1,0,0,1.2291,optionRight,45,575,1,9,0,9,0,1,,,,,,,,,,,,,,,,,,,,,,,,,,,,,,,,,,,,,,,
,,,,,,,,2023-08-16_08h44.16.702,HF_wild_card,2022.2.4,Linux x86_64,60.0276127,5b2a2d855b5c0900018b0bf5,64d2fd46c836a06233681665,64dc7e2e77a80cefdd86de8e,,,,,,,decisionTrl,resources/DR.BMP,resources/DB.BMP,Door4,-0.393735568,-0.015296539,1,0,0,1.7097,optionLeft,60,635,1,10,0,10,0,1,,,,,,,,,,,,,,,,,,,,,,,,,,,,,,,,,,,,,,,
,,,,,,,,2023-08-16_08h44.16.702,HF_wild_card,2022.2.4,Linux x86_64,60.0276127,5b2a2d855b5c0900018b0bf5,64d2fd46c836a06233681665,64dc7e2e77a80cefdd86de8e,,,,,,,decisionTrl,resources/DG.BMP,resources/DP.BMP,Door1,0.242684285,-0.020879745,1,0,0,2.2257,optionRight,30,665,1,11,0,11,0,1,,,,,,,,,,,,,,,,,,,,,,,,,,,,,,,,,,,,,,,
,,,,,,,,2023-08-16_08h44.16.702,HF_wild_card,2022.2.4,Linux x86_64,60.0276127,5b2a2d855b5c0900018b0bf5,64d2fd46c836a06233681665,64dc7e2e77a80cefdd86de8e,,,,,,,decisionTrl,resources/DP.BMP,resources/DG.BMP,Door2,0.300951163,0.017567237,1,0,0,1.6088,optionRight,20,685,1,12,0,12,0,1,,,,,,,,,,,,,,,,,,,,,,,,,,,,,,,,,,,,,,,
,,,,,,,,2023-08-16_08h44.16.702,HF_wild_card,2022.2.4,Linux x86_64,60.0276127,5b2a2d855b5c0900018b0bf5,64d2fd46c836a06233681665,64dc7e2e77a80cefdd86de8e,,,,,,,decisionTrl,resources/DP.BMP,resources/DG.BMP,Door1,-0.337386489,-0.047536174,1,0,0,1.2924,optionLeft,30,715,1,13,0,13,0,1,,,,,,,,,,,,,,,,,,,,,,,,,,,,,,,,,,,,,,,
,,,,,,,,2023-08-16_08h44.16.702,HF_wild_card,2022.2.4,Linux x86_64,60.0276127,5b2a2d855b5c0900018b0bf5,64d2fd46c836a06233681665,64dc7e2e77a80cefdd86de8e,,,,,,,ctch,resources/DBN.BMP,resources/DG.BMP,Door3,-0.325637738,-0.039566398,1,0,0,1.6424,optionLeft,70,785,1,14,0,14,0,1,,,,,,,,,,,,,,,,,,,,,,,,,,,,,,,,,,,,,,,
,,,,,,,,2023-08-16_08h44.16.702,HF_wild_card,2022.2.4,Linux x86_64,60.0276127,5b2a2d855b5c0900018b0bf5,64d2fd46c836a06233681665,64dc7e2e77a80cefdd86de8e,,,,,,,decisionTrl,resources/DB.BMP,resources/DP.BMP,WildCard_NonEx,-0.228755752,-0.006866972,1,0,0,1.6271,optionLeft,55,840,1,15,0,15,0,1,,,,,,,,,,,,,,,,,,,,,,,,,,,,,,,,,,,,,,,
,,,,,,,,2023-08-16_08h44.16.702,HF_wild_card,2022.2.4,Linux x86_64,60.0276127,5b2a2d855b5c0900018b0bf5,64d2fd46c836a06233681665,64dc7e2e77a80cefdd86de8e,,,,,,,ctch,resources/DBN.BMP,resources/DG.BMP,Door3,-0.308775266,-0.014112353,1,0,0,1.4595,optionLeft,70,910,1,16,0,16,0,1,,,,,,,,,,,,,,,,,,,,,,,,,,,,,,,,,,,,,,,
,,,,,,,,2023-08-16_08h44.16.702,HF_wild_card,2022.2.4,Linux x86_64,60.0276127,5b2a2d855b5c0900018b0bf5,64d2fd46c836a06233681665,64dc7e2e77a80cefdd86de8e,,,,,,,decisionTrl,resources/DB.BMP,resources/DR.BMP,Door4,0.499649843,0.03372554,1,0,0,1.1598,optionRight,60,970,1,17,0,17,0,1,,,,,,,,,,,,,,,,,,,,,,,,,,,,,,,,,,,,,,,
,,,,,,,,2023-08-16_08h44.16.702,HF_wild_card,2022.2.4,Linux x86_64,60.0276127,5b2a2d855b5c0900018b0bf5,64d2fd46c836a06233681665,64dc7e2e77a80cefdd86de8e,,,,,,,decisionTrl,resources/DB.BMP,resources/DBN.BMP,Door3,0.271501859,-0.007901629,1,0,0,1.8256,optionRight,70,1040,1,18,0,18,0,1,,,,,,,,,,,,,,,,,,,,,,,,,,,,,,,,,,,,,,,
,,,,,,,,2023-08-16_08h44.16.702,HF_wild_card,2022.2.4,Linux x86_64,60.0276127,5b2a2d855b5c0900018b0bf5,64d2fd46c836a06233681665,64dc7e2e77a80cefdd86de8e,,,,,,,ctch,resources/DG.BMP,resources/DBN.BMP,Door3,0.219467004,0.021689534,1,0,0,1.6077,optionRight,70,1110,1,19,0,19,0,1,,,,,,,,,,,,,,,,,,,,,,,,,,,,,,,,,,,,,,,
,,,,,,,,2023-08-16_08h44.16.702,HF_wild_card,2022.2.4,Linux x86_64,60.0276127,5b2a2d855b5c0900018b0bf5,64d2fd46c836a06233681665,64dc7e2e77a80cefdd86de8e,,,,,,,decisionTrl,resources/DG.BMP,resources/DP.BMP,Door2,-0.161936919,-0.006255269,1,0,0,3.2758,optionLeft,40,1150,1,20,0,20,0,1,,,,,,,,,,,,,,,,,,,,,,,,,,,,,,,,,,,,,,,
,,,,,,,,2023-08-16_08h44.16.702,HF_wild_card,2022.2.4,Linux x86_64,60.0276127,5b2a2d855b5c0900018b0bf5,64d2fd46c836a06233681665,64dc7e2e77a80cefdd86de8e,,,,,,,sngl,resources/DB.BMP,resources/Empty.png,WildCard_NonEx,-0.311652462,-0.011011918,1,0,0,1.3765,optionLeft,45,1195,1,21,0,21,0,1,,,,,,,,,,,,,,,,,,,,,,,,,,,,,,,,,,,,,,,
,,,,,,,,2023-08-16_08h44.16.702,HF_wild_card,2022.2.4,Linux x86_64,60.0276127,5b2a2d855b5c0900018b0bf5,64d2fd46c836a06233681665,64dc7e2e77a80cefdd86de8e,,,,,,,sngl,resources/DG.BMP,resources/Empty.png,Door2,-0.272530516,-0.046823104,1,0,0,1.3084,optionLeft,40,1235,1,22,0,22,0,1,,,,,,,,,,,,,,,,,,,,,,,,,,,,,,,,,,,,,,,
,,,,,,,,2023-08-16_08h44.16.702,HF_wild_card,2022.2.4,Linux x86_64,60.0276127,5b2a2d855b5c0900018b0bf5,64d2fd46c836a06233681665,64dc7e2e77a80cefdd86de8e,,,,,,,sngl,resources/DR.BMP,resources/Empty.png,Door4,-0.284666022,-0.02872018,1,0,0,1.1596,optionLeft,80,1315,1,23,0,23,0,1,,,,,,,,,,,,,,,,,,,,,,,,,,,,,,,,,,,,,,,
,,,,,,,,2023-08-16_08h44.16.702,HF_wild_card,2022.2.4,Linux x86_64,60.0276127,5b2a2d855b5c0900018b0bf5,64d2fd46c836a06233681665,64dc7e2e77a80cefdd86de8e,,,,,,,sngl,resources/DBN.BMP,resources/Empty.png,Door3,-0.418669105,-0.025831381,1,0,0,1.1235,optionLeft,70,1385,1,24,0,24,0,1,,,,,,,,,,,,,,,,,,,,,,,,,,,,,,,,,,,,,,,
,,,,,,,,2023-08-16_08h44.16.702,HF_wild_card,2022.2.4,Linux x86_64,60.0276127,5b2a2d855b5c0900018b0bf5,64d2fd46c836a06233681665,64dc7e2e77a80cefdd86de8e,,,,,,,decisionTrl,resources/DR.BMP,resources/DBN.BMP,Door4,-0.319636663,-0.053884308,1,0,0,2.2764,optionLeft,60,1445,1,25,0,25,0,1,,,,,,,,,,,,,,,,,,,,,,,,,,,,,,,,,,,,,,,
,,,,,,,,2023-08-16_08h44.16.702,HF_wild_card,2022.2.4,Linux x86_64,60.0276127,5b2a2d855b5c0900018b0bf5,64d2fd46c836a06233681665,64dc7e2e77a80cefdd86de8e,,,,,,,decisionTrl,resources/DR.BMP,resources/DBN.BMP,Door3,0.419990937,-0.00979503,1,0,0,1.2757,optionRight,70,1515,1,26,0,26,0,1,,,,,,,,,,,,,,,,,,,,,,,,,,,,,,,,,,,,,,,
,,,,,,,,2023-08-16_08h44.16.702,HF_wild_card,2022.2.4,Linux x86_64,60.0276127,5b2a2d855b5c0900018b0bf5,64d2fd46c836a06233681665,64dc7e2e77a80cefdd86de8e,,,,,,,decisionTrl,resources/DG.BMP,resources/DP.BMP,Door2,-0.260891477,-0.048403184,1,0,0,2.4681,optionLeft,20,1535,1,27,0,27,0,1,,,,,,,,,,,,,,,,,,,,,,,,,,,,,,,,,,,,,,,
,,,,,,,,2023-08-16_08h44.16.702,HF_wild_card,2022.2.4,Linux x86_64,60.0276127,5b2a2d855b5c0900018b0bf5,64d2fd46c836a06233681665,64dc7e2e77a80cefdd86de8e,,,,,,,decisionTrl,resources/DBN.BMP,resources/DR.BMP,Door3,-0.31952699,0.035663843,1,0,0,1.7943,optionLeft,70,1605,1,28,0,28,0,1,,,,,,,,,,,,,,,,,,,,,,,,,,,,,,,,,,,,,,,
,,,,,,,,2023-08-16_08h44.16.702,HF_wild_card,2022.2.4,Linux x86_64,60.0276127,5b2a2d855b5c0900018b0bf5,64d2fd46c836a06233681665,64dc7e2e77a80cefdd86de8e,,,,,,,decisionTrl,resources/DG.BMP,resources/DB.BMP,WildCard_NonEx,0.240573963,0.016021927,1,0,0,2.0081,optionRight,55,1660,1,29,0,29,0,1,,,,,,,,,,,,,,,,,,,,,,,,,,,,,,,,,,,,,,,
,,,,,,,,2023-08-16_08h44.16.702,HF_wild_card,2022.2.4,Linux x86_64,60.0276127,5b2a2d855b5c0900018b0bf5,64d2fd46c836a06233681665,64dc7e2e77a80cefdd86de8e,,,,,,,decisionTrl,resources/DP.BMP,resources/DG.BMP,Door1,-0.239032944,-0.067445636,1,0,0,2.4426,optionLeft,30,1690,1,30,0,30,0,1,,,,,,,,,,,,,,,,,,,,,,,,,,,,,,,,,,,,,,,
,,,,,,,,2023-08-16_08h44.16.702,HF_wild_card,2022.2.4,Linux x86_64,60.0276127,5b2a2d855b5c0900018b0bf5,64d2fd46c836a06233681665,64dc7e2e77a80cefdd86de8e,,,,,,,sngl,resources/Empty.png,resources/DG.BMP,Door2,0.260683219,0.01180915,1,0,0,1.1591,optionRight,20,1710,1,31,0,31,0,1,,,,,,,,,,,,,,,,,,,,,,,,,,,,,,,,,,,,,,,
,,,,,,,,2023-08-16_08h44.16.702,HF_wild_card,2022.2.4,Linux x86_64,60.0276127,5b2a2d855b5c0900018b0bf5,64d2fd46c836a06233681665,64dc7e2e77a80cefdd86de8e,,,,,,,decisionTrl,resources/DBN.BMP,resources/DR.BMP,Door4,0.317831993,0.035031796,1,0,0,1.7425,optionRight,80,1790,1,32,0,32,0,1,,,,,,,,,,,,,,,,,,,,,,,,,,,,,,,,,,,,,,,
,,,,,,,,2023-08-16_08h44.16.702,HF_wild_card,2022.2.4,Linux x86_64,60.0276127,5b2a2d855b5c0900018b0bf5,64d2fd46c836a06233681665,64dc7e2e77a80cefdd86de8e,,,,,,,sngl,resources/Empty.png,resources/DR.BMP,Door4,0.303178708,0.036934614,1,0,0,1.3264,optionRight,60,1850,1,33,0,33,0,1,,,,,,,,,,,,,,,,,,,,,,,,,,,,,,,,,,,,,,,
,,,,,,,,2023-08-16_08h44.16.702,HF_wild_card,2022.2.4,Linux x86_64,60.0276127,5b2a2d855b5c0900018b0bf5,64d2fd46c836a06233681665,64dc7e2e77a80cefdd86de8e,,,,,,,sngl,resources/Empty.png,resources/DP.BMP,Door1,0.318620125,0.015821775,1,0,0,1.1596,optionRight,30,1880,1,34,0,34,0,1,,,,,,,,,,,,,,,,,,,,,,,,,,,,,,,,,,,,,,,
,,,,,,,,2023-08-16_08h44.16.702,HF_wild_card,2022.2.4,Linux x86_64,60.0276127,5b2a2d855b5c0900018b0bf5,64d2fd46c836a06233681665,64dc7e2e77a80cefdd86de8e,,,,,,,decisionTrl,resources/DP.BMP,resources/DB.BMP,WildCard_NonEx,0.287938674,0.014853398,1,0,0,1.4574,optionRight,45,1925,1,35,0,35,0,1,,,,,,,,,,,,,,,,,,,,,,,,,,,,,,,,,,,,,,,
,,,,,,,,2023-08-16_08h44.16.702,HF_wild_card,2022.2.4,Linux x86_64,60.0276127,5b2a2d855b5c0900018b0bf5,64d2fd46c836a06233681665,64dc7e2e77a80cefdd86de8e,,,,,,,ctch,resources/DP.BMP,resources/DR.BMP,Door1,-0.332904061,-0.015832186,1,0,0,1.6588,optionLeft,30,1955,1,36,0,36,0,1,,,,,,,,,,,,,,,,,,,,,,,,,,,,,,,,,,,,,,,
,,,,,,,,2023-08-16_08h44.16.702,HF_wild_card,2022.2.4,Linux x86_64,60.0276127,5b2a2d855b5c0900018b0bf5,64d2fd46c836a06233681665,64dc7e2e77a80cefdd86de8e,,,,,,,decisionTrl,resources/DBN.BMP,resources/DR.BMP,Door3,-0.230241815,-0.00218761,1,0,0,1.3261,optionLeft,70,2025,1,37,0,37,0,1,,,,,,,,,,,,,,,,,,,,,,,,,,,,,,,,,,,,,,,
,,,,,,,,2023-08-16_08h44.16.702,HF_wild_card,2022.2.4,Linux x86_64,60.0276127,5b2a2d855b5c0900018b0bf5,64d2fd46c836a06233681665,64dc7e2e77a80cefdd86de8e,,,,,,,sngl,resources/Empty.png,resources/DBN.BMP,Door3,0.292271932,0.038006981,1,0,0,1.2434,optionRight,70,2095,1,38,0,38,0,1,,,,,,,,,,,,,,,,,,,,,,,,,,,,,,,,,,,,,,,
,,,,,,,,2023-08-16_08h44.16.702,HF_wild_card,2022.2.4,Linux x86_64,60.0276127,5b2a2d855b5c0900018b0bf5,64d2fd46c836a06233681665,64dc7e2e77a80cefdd86de8e,,,,,,,ctch,resources/DR.BMP,resources/DP.BMP,Door4,-0.228771607,0.010446469,1,0,0,2.4577,optionLeft,60,2155,1,39,0,39,0,1,,,,,,,,,,,,,,,,,,,,,,,,,,,,,,,,,,,,,,,
,,,,,,,,2023-08-16_08h44.16.702,HF_wild_card,2022.2.4,Linux x86_64,60.0276127,5b2a2d855b5c0900018b0bf5,64d2fd46c836a06233681665,64dc7e2e77a80cefdd86de8e,,,,,,,decisionTrl,resources/DB.BMP,resources/DG.BMP,WildCard_NonEx,-0.231515249,0.007766803,1,0,0,1.9104,optionLeft,45,2200,1,40,0,40,0,1,,,,,,,,,,,,,,,,,,,,,,,,,,,,,,,,,,,,,,,
,,,,,,,,2023-08-16_08h44.16.702,HF_wild_card,2022.2.4,Linux x86_64,60.0276127,5b2a2d855b5c0900018b0bf5,64d2fd46c836a06233681665,64dc7e2e77a80cefdd86de8e,,,,,,,ctch,resources/DR.BMP,resources/DP.BMP,Door4,-0.303481579,-0.002329826,1,0,0,1.9139,optionLeft,80,2280,1,41,0,41,0,1,,,,,,,,,,,,,,,,,,,,,,,,,,,,,,,,,,,,,,,
,,,,,,,,2023-08-16_08h44.16.702,HF_wild_card,2022.2.4,Linux x86_64,60.0276127,5b2a2d855b5c0900018b0bf5,64d2fd46c836a06233681665,64dc7e2e77a80cefdd86de8e,,,,,,,sngl,resources/DP.BMP,resources/Empty.png,Door1,-0.308486223,0.006280462,1,0,0,1.2592,optionLeft,30,2310,1,42,0,42,0,1,,,,,,,,,,,,,,,,,,,,,,,,,,,,,,,,,,,,,,,
,,,,,,,,2023-08-16_08h44.16.702,HF_wild_card,2022.2.4,Linux x86_64,60.0276127,5b2a2d855b5c0900018b0bf5,64d2fd46c836a06233681665,64dc7e2e77a80cefdd86de8e,,,,,,,decisionTrl,resources/DBN.BMP,resources/DB.BMP,Door3,-0.338658849,0.042323828,1,0,0,1.5744,optionLeft,70,2380,1,43,0,43,0,1,,,,,,,,,,,,,,,,,,,,,,,,,,,,,,,,,,,,,,,
,,,,,,,,2023-08-16_08h44.16.702,HF_wild_card,2022.2.4,Linux x86_64,60.0276127,5b2a2d855b5c0900018b0bf5,64d2fd46c836a06233681665,64dc7e2e77a80cefdd86de8e,,,,,,,,,,,,,,,,,,,,,,,,,,0,0,0,0,1,,,,,,,,,,,,,,,,,,,,,,,,,,,,,,,,,,
,,,,,,,,2023-08-16_08h44.16.702,HF_wild_card,2022.2.4,Linux x86_64,60.0276127,5b2a2d855b5c0900018b0bf5,64d2fd46c836a06233681665,64dc7e2e77a80cefdd86de8e,,,,,,,decisionTrl,resources/DR.BMP,resources/DBN.BMP,Door3,0.25276343,-0.025169889,1,0,0,1.5256,optionRight,70,2450,2,0,0,0,0,1,,,,,,,,,,,,,,,,,,,,,,,,,,,,,,,,,,,,,,,
,,,,,,,,2023-08-16_08h44.16.702,HF_wild_card,2022.2.4,Linux x86_64,60.0276127,5b2a2d855b5c0900018b0bf5,64d2fd46c836a06233681665,64dc7e2e77a80cefdd86de8e,,,,,,,ctch,resources/DR.BMP,resources/DP.BMP,Door4,-0.288910707,-0.04066213,1,0,0,1.0762,optionLeft,80,2530,2,1,0,1,0,1,,,,,,,,,,,,,,,,,,,,,,,,,,,,,,,,,,,,,,,
,,,,,,,,2023-08-16_08h44.16.702,HF_wild_card,2022.2.4,Linux x86_64,60.0276127,5b2a2d855b5c0900018b0bf5,64d2fd46c836a06233681665,64dc7e2e77a80cefdd86de8e,,,,,,,decisionTrl,resources/DBN.BMP,resources/DR.BMP,Door4,0.35325408,0.029319207,1,0,0,1.7597,optionRight,60,2590,2,2,0,2,0,1,,,,,,,,,,,,,,,,,,,,,,,,,,,,,,,,,,,,,,,
,,,,,,,,2023-08-16_08h44.16.702,HF_wild_card,2022.2.4,Linux x86_64,60.0276127,5b2a2d855b5c0900018b0bf5,64d2fd46c836a06233681665,64dc7e2e77a80cefdd86de8e,,,,,,,ctch,resources/DP.BMP,resources/DR.BMP,Door4,0.281456391,0.008034627,1,0,0,1.7091,optionRight,60,2650,2,3,0,3,0,1,,,,,,,,,,,,,,,,,,,,,,,,,,,,,,,,,,,,,,,
,,,,,,,,2023-08-16_08h44.16.702,HF_wild_card,2022.2.4,Linux x86_64,60.0276127,5b2a2d855b5c0900018b0bf5,64d2fd46c836a06233681665,64dc7e2e77a80cefdd86de8e,,,,,,,decisionTrl,resources/DBN.BMP,resources/DB.BMP,Door3,-0.363503973,-0.017418186,1,0,0,1.409,optionLeft,70,2720,2,4,0,4,0,1,,,,,,,,,,,,,,,,,,,,,,,,,,,,,,,,,,,,,,,
,,,,,,,,2023-08-16_08h44.16.702,HF_wild_card,2022.2.4,Linux x86_64,60.0276127,5b2a2d855b5c0900018b0bf5,64d2fd46c836a06233681665,64dc7e2e77a80cefdd86de8e,,,,,,,decisionTrl,resources/DG.BMP,resources/DP.BMP,Door2,-0.23281455,-0.039444606,1,0,0,2.8078,optionLeft,40,2760,2,5,0,5,0,1,,,,,,,,,,,,,,,,,,,,,,,,,,,,,,,,,,,,,,,
,,,,,,,,2023-08-16_08h44.16.702,HF_wild_card,2022.2.4,Linux x86_64,60.0276127,5b2a2d855b5c0900018b0bf5,64d2fd46c836a06233681665,64dc7e2e77a80cefdd86de8e,,,,,,,decisionTrl,resources/DBN.BMP,resources/DR.BMP,Door3,-0.417107542,0.000861486,1,0,0,2.9421,optionLeft,70,2830,2,6,0,6,0,1,,,,,,,,,,,,,,,,,,,,,,,,,,,,,,,,,,,,,,,
,,,,,,,,2023-08-16_08h44.16.702,HF_wild_card,2022.2.4,Linux x86_64,60.0276127,5b2a2d855b5c0900018b0bf5,64d2fd46c836a06233681665,64dc7e2e77a80cefdd86de8e,,,,,,,decisionTrl,resources/DB.BMP,resources/DR.BMP,Door4,0.259407361,0.055004478,1,0,0,1.41,optionRight,80,2910,2,7,0,7,0,1,,,,,,,,,,,,,,,,,,,,,,,,,,,,,,,,,,,,,,,
,,,,,,,,2023-08-16_08h44.16.702,HF_wild_card,2022.2.4,Linux x86_64,60.0276127,5b2a2d855b5c0900018b0bf5,64d2fd46c836a06233681665,64dc7e2e77a80cefdd86de8e,,,,,,,sngl,resources/DB.BMP,resources/Empty.png,WildCard_NonEx,-0.299937725,-0.032924374,1,0,0,1.2769,optionLeft,55,2965,2,8,0,8,0,1,,,,,,,,,,,,,,,,,,,,,,,,,,,,,,,,,,,,,,,
,,,,,,,,2023-08-16_08h44.16.702,HF_wild_card,2022.2.4,Linux x86_64,60.0276127,5b2a2d855b5c0900018b0bf5,64d2fd46c836a06233681665,64dc7e2e77a80cefdd86de8e,,,,,,,ctch,resources/DP.BMP,resources/DR.BMP,Door4,0.301980178,0.078435024,1,0,0,1.9435,optionRight,60,3025,2,9,0,9,0,1,,,,,,,,,,,,,,,,,,,,,,,,,,,,,,,,,,,,,,,
,,,,,,,,2023-08-16_08h44.16.702,HF_wild_card,2022.2.4,Linux x86_64,60.0276127,5b2a2d855b5c0900018b0bf5,64d2fd46c836a06233681665,64dc7e2e77a80cefdd86de8e,,,,,,,ctch,resources/DG.BMP,resources/DBN.BMP,Door3,0.340527534,0.087088664,1,0,0,1.4097,optionRight,70,3095,2,10,0,10,0,1,,,,,,,,,,,,,,,,,,,,,,,,,,,,,,,,,,,,,,,
,,,,,,,,2023-08-16_08h44.16.702,HF_wild_card,2022.2.4,Linux x86_64,60.0276127,5b2a2d855b5c0900018b0bf5,64d2fd46c836a06233681665,64dc7e2e77a80cefdd86de8e,,,,,,,sngl,resources/Empty.png,resources/DBN.BMP,Door3,0.301197449,0.05279994,1,0,0,1.3261,optionRight,70,3165,2,11,0,11,0,1,,,,,,,,,,,,,,,,,,,,,,,,,,,,,,,,,,,,,,,
,,,,,,,,2023-08-16_08h44.16.702,HF_wild_card,2022.2.4,Linux x86_64,60.0276127,5b2a2d855b5c0900018b0bf5,64d2fd46c836a06233681665,64dc7e2e77a80cefdd86de8e,,,,,,,sngl,resources/DR.BMP,resources/Empty.png,Door4,-0.338990728,-0.047259291,1,0,0,1.1589,optionLeft,60,3225,2,12,0,12,0,1,,,,,,,,,,,,,,,,,,,,,,,,,,,,,,,,,,,,,,,
,,,,,,,,2023-08-16_08h44.16.702,HF_wild_card,2022.2.4,Linux x86_64,60.0276127,5b2a2d855b5c0900018b0bf5,64d2fd46c836a06233681665,64dc7e2e77a80cefdd86de8e,,,,,,,decisionTrl,resources/DG.BMP,resources/DP.BMP,Door2,-0.31438601,-9.02812E-05,1,0,0,2.3578,optionLeft,20,3245,2,13,0,13,0,1,,,,,,,,,,,,,,,,,,,,,,,,,,,,,,,,,,,,,,,
,,,,,,,,2023-08-16_08h44.16.702,HF_wild_card,2022.2.4,Linux x86_64,60.0276127,5b2a2d855b5c0900018b0bf5,64d2fd46c836a06233681665,64dc7e2e77a80cefdd86de8e,,,,,,,decisionTrl,resources/DB.BMP,resources/DG.BMP,WildCard_NonEx,-0.340831876,-0.002113461,1,0,0,1.426,optionLeft,55,3300,2,14,0,14,0,1,,,,,,,,,,,,,,,,,,,,,,,,,,,,,,,,,,,,,,,
,,,,,,,,2023-08-16_08h44.16.702,HF_wild_card,2022.2.4,Linux x86_64,60.0276127,5b2a2d855b5c0900018b0bf5,64d2fd46c836a06233681665,64dc7e2e77a80cefdd86de8e,,,,,,,decisionTrl,resources/DP.BMP,resources/DB.BMP,WildCard_NonEx,0.26353391,0.019587954,1,0,0,2.5759,optionRight,55,3355,2,15,0,15,0,1,,,,,,,,,,,,,,,,,,,,,,,,,,,,,,,,,,,,,,,
,,,,,,,,2023-08-16_08h44.16.702,HF_wild_card,2022.2.4,Linux x86_64,60.0276127,5b2a2d855b5c0900018b0bf5,64d2fd46c836a06233681665,64dc7e2e77a80cefdd86de8e,,,,,,,sngl,resources/DP.BMP,resources/Empty.png,Door1,-0.319865902,-0.021131635,1,0,0,1.3094,optionLeft,30,3385,2,16,0,16,0,1,,,,,,,,,,,,,,,,,,,,,,,,,,,,,,,,,,,,,,,
,,,,,,,,2023-08-16_08h44.16.702,HF_wild_card,2022.2.4,Linux x86_64,60.0276127,5b2a2d855b5c0900018b0bf5,64d2fd46c836a06233681665,64dc7e2e77a80cefdd86de8e,,,,,,,ctch,resources/DBN.BMP,resources/DG.BMP,Door3,-0.47772491,0.008826931,1,0,0,1.3416,optionLeft,70,3455,2,17,0,17,0,1,,,,,,,,,,,,,,,,,,,,,,,,,,,,,,,,,,,,,,,
,,,,,,,,2023-08-16_08h44.16.702,HF_wild_card,2022.2.4,Linux x86_64,60.0276127,5b2a2d855b5c0900018b0bf5,64d2fd46c836a06233681665,64dc7e2e77a80cefdd86de8e,,,,,,,sngl,resources/DBN.BMP,resources/Empty.png,Door3,-0.339726726,0.028107166,1,0,0,1.3255,optionLeft,70,3525,2,18,0,18,0,1,,,,,,,,,,,,,,,,,,,,,,,,,,,,,,,,,,,,,,,
,,,,,,,,2023-08-16_08h44.16.702,HF_wild_card,2022.2.4,Linux x86_64,60.0276127,5b2a2d855b5c0900018b0bf5,64d2fd46c836a06233681665,64dc7e2e77a80cefdd86de8e,,,,,,,decisionTrl,resources/DG.BMP,resources/DP.BMP,Door1,0.376946052,0.029601018,1,0,0,1.8929,optionRight,30,3555,2,19,0,19,0,1,,,,,,,,,,,,,,,,,,,,,,,,,,,,,,,,,,,,,,,
,,,,,,,,2023-08-16_08h44.16.702,HF_wild_card,2022.2.4,Linux x86_64,60.0276127,5b2a2d855b5c0900018b0bf5,64d2fd46c836a06233681665,64dc7e2e77a80cefdd86de8e,,,,,,,decisionTrl,resources/DR.BMP,resources/DB.BMP,Door4,-0.366591652,0.029259006,1,0,0,1.9099,optionLeft,80,3635,2,20,0,20,0,1,,,,,,,,,,,,,,,,,,,,,,,,,,,,,,,,,,,,,,,
,,,,,,,,2023-08-16_08h44.16.702,HF_wild_card,2022.2.4,Linux x86_64,60.0276127,5b2a2d855b5c0900018b0bf5,64d2fd46c836a06233681665,64dc7e2e77a80cefdd86de8e,,,,,,,decisionTrl,resources/DG.BMP,resources/DP.BMP,Door1,0.27085638,-0.0028313,1,0,0,2.8101,optionRight,30,3665,2,21,0,21,0,1,,,,,,,,,,,,,,,,,,,,,,,,,,,,,,,,,,,,,,,
,,,,,,,,2023-08-16_08h44.16.702,HF_wild_card,2022.2.4,Linux x86_64,60.0276127,5b2a2d855b5c0900018b0bf5,64d2fd46c836a06233681665,64dc7e2e77a80cefdd86de8e,,,,,,,sngl,resources/Empty.png,resources/DB.BMP,WildCard_NonEx,0.410435756,-0.023579001,1,0,0,2.7747,optionRight,45,3710,2,22,0,22,0,1,,,,,,,,,,,,,,,,,,,,,,,,,,,,,,,,,,,,,,,
,,,,,,,,2023-08-16_08h44.16.702,HF_wild_card,2022.2.4,Linux x86_64,60.0276127,5b2a2d855b5c0900018b0bf5,64d2fd46c836a06233681665,64dc7e2e77a80cefdd86de8e,,,,,,,decisionTrl,resources/DR.BMP,resources/DBN.BMP,Door3,0.33075285,-0.009760777,1,0,0,2.0936,optionRight,70,3780,2,23,0,23,0,1,,,,,,,,,,,,,,,,,,,,,,,,,,,,,,,,,,,,,,,
,,,,,,,,2023-08-16_08h44.16.702,HF_wild_card,2022.2.4,Linux x86_64,60.0276127,5b2a2d855b5c0900018b0bf5,64d2fd46c836a06233681665,64dc7e2e77a80cefdd86de8e,,,,,,,decisionTrl,resources/DP.BMP,resources/DG.BMP,Door1,-0.3194501,-0.032414357,1,0,0,1.3638,optionLeft,30,3810,2,24,0,24,0,1,,,,,,,,,,,,,,,,,,,,,,,,,,,,,,,,,,,,,,,
,,,,,,,,2023-08-16_08h44.16.702,HF_wild_card,2022.2.4,Linux x86_64,60.0276127,5b2a2d855b5c0900018b0bf5,64d2fd46c836a06233681665,64dc7e2e77a80cefdd86de8e,,,,,,,decisionTrl,resources/DP.BMP,resources/DG.BMP,Door1,-0.243635297,-0.041267236,1,0,0,1.0937,optionLeft,30,3840,2,25,0,25,0,1,,,,,,,,,,,,,,,,,,,,,,,,,,,,,,,,,,,,,,,
,,,,,,,,2023-08-16_08h44.16.702,HF_wild_card,2022.2.4,Linux x86_64,60.0276127,5b2a2d855b5c0900018b0bf5,64d2fd46c836a06233681665,64dc7e2e77a80cefdd86de8e,,,,,,,decisionTrl,resources/DP.BMP,resources/DG.BMP,Door1,-0.293861349,-0.063794931,1,0,0,1.2902,optionLeft,30,3870,2,26,0,26,0,1,,,,,,,,,,,,,,,,,,,,,,,,,,,,,,,,,,,,,,,
,,,,,,,,2023-08-16_08h44.16.702,HF_wild_card,2022.2.4,Linux x86_64,60.0276127,5b2a2d855b5c0900018b0bf5,64d2fd46c836a06233681665,64dc7e2e77a80cefdd86de8e,,,,,,,decisionTrl,resources/DR.BMP,resources/DBN.BMP,Door3,0.231392384,0.003010909,1,0,0,2.1254,optionRight,70,3940,2,27,0,27,0,1,,,,,,,,,,,,,,,,,,,,,,,,,,,,,,,,,,,,,,,
,,,,,,,,2023-08-16_08h44.16.702,HF_wild_card,2022.2.4,Linux x86_64,60.0276127,5b2a2d855b5c0900018b0bf5,64d2fd46c836a06233681665,64dc7e2e77a80cefdd86de8e,,,,,,,ctch,resources/DR.BMP,resources/DP.BMP,Door4,-0.348733783,-0.036332051,1,0,0,1.8766,optionLeft,60,4000,2,28,0,28,0,1,,,,,,,,,,,,,,,,,,,,,,,,,,,,,,,,,,,,,,,
,,,,,,,,2023-08-16_08h44.16.702,HF_wild_card,2022.2.4,Linux x86_64,60.0276127,5b2a2d855b5c0900018b0bf5,64d2fd46c836a06233681665,64dc7e2e77a80cefdd86de8e,,,,,,,sngl,resources/Empty.png,resources/DB.BMP,WildCard_NonEx,0.36789759,5.91675E-05,1,0,0,1.1475,optionRight,55,4055,2,29,0,29,0,1,,,,,,,,,,,,,,,,,,,,,,,,,,,,,,,,,,,,,,,
,,,,,,,,2023-08-16_08h44.16.702,HF_wild_card,2022.2.4,Linux x86_64,60.0276127,5b2a2d855b5c0900018b0bf5,64d2fd46c836a06233681665,64dc7e2e77a80cefdd86de8e,,,,,,,decisionTrl,resources/DB.BMP,resources/DP.BMP,WildCard_NonEx,-0.316048026,-0.058484515,1,0,0,1.6762,optionLeft,55,4110,2,30,0,30,0,1,,,,,,,,,,,,,,,,,,,,,,,,,,,,,,,,,,,,,,,
,,,,,,,,2023-08-16_08h44.16.702,HF_wild_card,2022.2.4,Linux x86_64,60.0276127,5b2a2d855b5c0900018b0bf5,64d2fd46c836a06233681665,64dc7e2e77a80cefdd86de8e,,,,,,,ctch,resources/DG.BMP,resources/DBN.BMP,Door3,0.391486883,-0.010410865,1,0,0,1.1922,optionRight,70,4180,2,31,0,31,0,1,,,,,,,,,,,,,,,,,,,,,,,,,,,,,,,,,,,,,,,
,,,,,,,,2023-08-16_08h44.16.702,HF_wild_card,2022.2.4,Linux x86_64,60.0276127,5b2a2d855b5c0900018b0bf5,64d2fd46c836a06233681665,64dc7e2e77a80cefdd86de8e,,,,,,,decisionTrl,resources/DBN.BMP,resources/DR.BMP,Door3,-0.309329311,-0.04738005,1,0,0,2.0253,optionLeft,70,4250,2,32,0,32,0,1,,,,,,,,,,,,,,,,,,,,,,,,,,,,,,,,,,,,,,,
,,,,,,,,2023-08-16_08h44.16.702,HF_wild_card,2022.2.4,Linux x86_64,60.0276127,5b2a2d855b5c0900018b0bf5,64d2fd46c836a06233681665,64dc7e2e77a80cefdd86de8e,,,,,,,decisionTrl,resources/DBN.BMP,resources/DR.BMP,Door3,-0.265013417,-0.031914632,1,0,0,1.327,optionLeft,70,4320,2,33,0,33,0,1,,,,,,,,,,,,,,,,,,,,,,,,,,,,,,,,,,,,,,,
,,,,,,,,2023-08-16_08h44.16.702,HF_wild_card,2022.2.4,Linux x86_64,60.0276127,5b2a2d855b5c0900018b0bf5,64d2fd46c836a06233681665,64dc7e2e77a80cefdd86de8e,,,,,,,sngl,resources/Empty.png,resources/DG.BMP,Door2,0.400812546,-0.006317377,1,0,0,1.2751,optionRight,40,4360,2,34,0,34,0,1,,,,,,,,,,,,,,,,,,,,,,,,,,,,,,,,,,,,,,,
,,,,,,,,2023-08-16_08h44.16.702,HF_wild_card,2022.2.4,Linux x86_64,60.0276127,5b2a2d855b5c0900018b0bf5,64d2fd46c836a06233681665,64dc7e2e77a80cefdd86de8e,,,,,,,decisionTrl,resources/DP.BMP,resources/DG.BMP,Door1,-0.319842219,-0.039149841,1,0,0,2.061,optionLeft,30,4390,2,35,0,35,0,1,,,,,,,,,,,,,,,,,,,,,,,,,,,,,,,,,,,,,,,
,,,,,,,,2023-08-16_08h44.16.702,HF_wild_card,2022.2.4,Linux x86_64,60.0276127,5b2a2d855b5c0900018b0bf5,64d2fd46c836a06233681665,64dc7e2e77a80cefdd86de8e,,,,,,,ctch,resources/DBN.BMP,resources/DG.BMP,Door3,-0.307107766,-0.058105866,1,0,0,1.4764,optionLeft,70,4460,2,36,0,36,0,1,,,,,,,,,,,,,,,,,,,,,,,,,,,,,,,,,,,,,,,
,,,,,,,,2023-08-16_08h44.16.702,HF_wild_card,2022.2.4,Linux x86_64,60.0276127,5b2a2d855b5c0900018b0bf5,64d2fd46c836a06233681665,64dc7e2e77a80cefdd86de8e,,,,,,,sngl,resources/DG.BMP,resources/Empty.png,Door2,-0.286669016,-0.043602188,1,0,0,1.0433,optionLeft,20,4480,2,37,0,37,0,1,,,,,,,,,,,,,,,,,,,,,,,,,,,,,,,,,,,,,,,
,,,,,,,,2023-08-16_08h44.16.702,HF_wild_card,2022.2.4,Linux x86_64,60.0276127,5b2a2d855b5c0900018b0bf5,64d2fd46c836a06233681665,64dc7e2e77a80cefdd86de8e,,,,,,,decisionTrl,resources/DB.BMP,resources/DBN.BMP,Door3,0.353517214,0.019143701,1,0,0,1.944,optionRight,70,4550,2,38,0,38,0,1,,,,,,,,,,,,,,,,,,,,,,,,,,,,,,,,,,,,,,,
,,,,,,,,2023-08-16_08h44.16.702,HF_wild_card,2022.2.4,Linux x86_64,60.0276127,5b2a2d855b5c0900018b0bf5,64d2fd46c836a06233681665,64dc7e2e77a80cefdd86de8e,,,,,,,sngl,resources/Empty.png,resources/DR.BMP,Door4,0.270956516,0.01192232,1,0,0,1.2915,optionRight,80,4630,2,39,0,39,0,1,,,,,,,,,,,,,,,,,,,,,,,,,,,,,,,,,,,,,,,
,,,,,,,,2023-08-16_08h44.16.702,HF_wild_card,2022.2.4,Linux x86_64,60.0276127,5b2a2d855b5c0900018b0bf5,64d2fd46c836a06233681665,64dc7e2e77a80cefdd86de8e,,,,,,,sngl,resources/Empty.png,resources/DP.BMP,Door1,0.252374808,-0.024909973,1,0,0,1.0414,optionRight,30,4660,2,40,0,40,0,1,,,,,,,,,,,,,,,,,,,,,,,,,,,,,,,,,,,,,,,
,,,,,,,,2023-08-16_08h44.16.702,HF_wild_card,2022.2.4,Linux x86_64,60.0276127,5b2a2d855b5c0900018b0bf5,64d2fd46c836a06233681665,64dc7e2e77a80cefdd86de8e,,,,,,,decisionTrl,resources/DR.BMP,resources/DBN.BMP,Door3,0.185124795,0.007140517,1,0,0,1.9258,optionRight,70,4730,2,41,0,41,0,1,,,,,,,,,,,,,,,,,,,,,,,,,,,,,,,,,,,,,,,
,,,,,,,,2023-08-16_08h44.16.702,HF_wild_card,2022.2.4,Linux x86_64,60.0276127,5b2a2d855b5c0900018b0bf5,64d2fd46c836a06233681665,64dc7e2e77a80cefdd86de8e,,,,,,,sngl,resources/DB.BMP,resources/Empty.png,WildCard_NonEx,-0.323537548,-0.05112052,1,0,0,1.3141,optionLeft,45,4775,2,42,0,42,0,1,,,,,,,,,,,,,,,,,,,,,,,,,,,,,,,,,,,,,,,
,,,,,,,,2023-08-16_08h44.16.702,HF_wild_card,2022.2.4,Linux x86_64,60.0276127,5b2a2d855b5c0900018b0bf5,64d2fd46c836a06233681665,64dc7e2e77a80cefdd86de8e,,,,,,,decisionTrl,resources/DG.BMP,resources/DB.BMP,WildCard_NonEx,0.238087495,0.015921553,1,0,0,3.4314,optionRight,45,4820,2,43,0,43,0,1,,,,,,,,,,,,,,,,,,,,,,,,,,,,,,,,,,,,,,,
,,,,,,,,2023-08-16_08h44.16.702,HF_wild_card,2022.2.4,Linux x86_64,60.0276127,5b2a2d855b5c0900018b0bf5,64d2fd46c836a06233681665,64dc7e2e77a80cefdd86de8e,,,,,,,,,,,,,,,,,,,,,,,,,,1,0,1,0,1,,,,,,,,,,,,,,,,,,,,,,,,,,,,,,,,,,
,,,,,,,,2023-08-16_08h44.16.702,HF_wild_card,2022.2.4,Linux x86_64,60.0276127,5b2a2d855b5c0900018b0bf5,64d2fd46c836a06233681665,64dc7e2e77a80cefdd86de8e,,,,,,,decisionTrl,resources/DG.BMP,resources/DP.BMP,Door1,0.09681344,-0.167016427,1,0,0,2.1613,optionRight,30,4850,3,0,0,0,0,1,,,,,,,,,,,,,,,,,,,,,,,,,,,,,,,,,,,,,,,
,,,,,,,,2023-08-16_08h44.16.702,HF_wild_card,2022.2.4,Linux x86_64,60.0276127,5b2a2d855b5c0900018b0bf5,64d2fd46c836a06233681665,64dc7e2e77a80cefdd86de8e,,,,,,,decisionTrl,resources/DR.BMP,resources/DBN.BMP,Door3,0.318877856,0.083163063,1,0,0,1.7999,optionRight,70,4920,3,1,0,1,0,1,,,,,,,,,,,,,,,,,,,,,,,,,,,,,,,,,,,,,,,
,,,,,,,,2023-08-16_08h44.16.702,HF_wild_card,2022.2.4,Linux x86_64,60.0276127,5b2a2d855b5c0900018b0bf5,64d2fd46c836a06233681665,64dc7e2e77a80cefdd86de8e,,,,,,,decisionTrl,resources/DB.BMP,resources/DP.BMP,WildCard_NonEx,-0.24049139,-0.042823315,1,0,0,1.98,optionLeft,55,4975,3,2,0,2,0,1,,,,,,,,,,,,,,,,,,,,,,,,,,,,,,,,,,,,,,,
,,,,,,,,2023-08-16_08h44.16.702,HF_wild_card,2022.2.4,Linux x86_64,60.0276127,5b2a2d855b5c0900018b0bf5,64d2fd46c836a06233681665,64dc7e2e77a80cefdd86de8e,,,,,,,ctch,resources/DP.BMP,resources/DR.BMP,Door4,0.31181709,-0.00845027,1,0,0,1.2774,optionRight,60,5035,3,3,0,3,0,1,,,,,,,,,,,,,,,,,,,,,,,,,,,,,,,,,,,,,,,
,,,,,,,,2023-08-16_08h44.16.702,HF_wild_card,2022.2.4,Linux x86_64,60.0276127,5b2a2d855b5c0900018b0bf5,64d2fd46c836a06233681665,64dc7e2e77a80cefdd86de8e,,,,,,,ctch,resources/DG.BMP,resources/DBN.BMP,Door3,0.269734224,-0.007032951,1,0,0,1.3108,optionRight,70,5105,3,4,0,4,0,1,,,,,,,,,,,,,,,,,,,,,,,,,,,,,,,,,,,,,,,
,,,,,,,,2023-08-16_08h44.16.702,HF_wild_card,2022.2.4,Linux x86_64,60.0276127,5b2a2d855b5c0900018b0bf5,64d2fd46c836a06233681665,64dc7e2e77a80cefdd86de8e,,,,,,,decisionTrl,resources/DB.BMP,resources/DG.BMP,WildCard_NonEx,-0.20146505,-0.030734936,1,0,0,1.7927,optionLeft,45,5150,3,5,0,5,0,1,,,,,,,,,,,,,,,,,,,,,,,,,,,,,,,,,,,,,,,
,,,,,,,,2023-08-16_08h44.16.702,HF_wild_card,2022.2.4,Linux x86_64,60.0276127,5b2a2d855b5c0900018b0bf5,64d2fd46c836a06233681665,64dc7e2e77a80cefdd86de8e,,,,,,,decisionTrl,resources/DG.BMP,resources/DP.BMP,Door1,0.32643342,0.015236855,1,0,0,2.5251,optionRight,30,5180,3,6,0,6,0,1,,,,,,,,,,,,,,,,,,,,,,,,,,,,,,,,,,,,,,,
,,,,,,,,2023-08-16_08h44.16.702,HF_wild_card,2022.2.4,Linux x86_64,60.0276127,5b2a2d855b5c0900018b0bf5,64d2fd46c836a06233681665,64dc7e2e77a80cefdd86de8e,,,,,,,sngl,resources/Empty.png,resources/DB.BMP,WildCard_NonEx,0.315585693,-0.056025982,1,0,0,1.1049,optionRight,55,5235,3,7,0,7,0,1,,,,,,,,,,,,,,,,,,,,,,,,,,,,,,,,,,,,,,,
,,,,,,,,2023-08-16_08h44.16.702,HF_wild_card,2022.2.4,Linux x86_64,60.0276127,5b2a2d855b5c0900018b0bf5,64d2fd46c836a06233681665,64dc7e2e77a80cefdd86de8e,,,,,,,decisionTrl,resources/DBN.BMP,resources/DB.BMP,Door3,-0.381857395,-0.065190434,1,0,0,1.4431,optionLeft,70,5305,3,8,0,8,0,1,,,,,,,,,,,,,,,,,,,,,,,,,,,,,,,,,,,,,,,
,,,,,,,,2023-08-16_08h44.16.702,HF_wild_card,2022.2.4,Linux x86_64,60.0276127,5b2a2d855b5c0900018b0bf5,64d2fd46c836a06233681665,64dc7e2e77a80cefdd86de8e,,,,,,,sngl,resources/DBN.BMP,resources/Empty.png,Door3,-0.335982323,0.005191286,1,0,0,1.1567,optionLeft,70,5375,3,9,0,9,0,1,,,,,,,,,,,,,,,,,,,,,,,,,,,,,,,,,,,,,,,
,,,,,,,,2023-08-16_08h44.16.702,HF_wild_card,2022.2.4,Linux x86_64,60.0276127,5b2a2d855b5c0900018b0bf5,64d2fd46c836a06233681665,64dc7e2e77a80cefdd86de8e,,,,,,,sngl,resources/Empty.png,resources/DP.BMP,Door1,0.206105232,0.029586633,1,0,0,1.5758,optionRight,30,5405,3,10,0,10,0,1,,,,,,,,,,,,,,,,,,,,,,,,,,,,,,,,,,,,,,,
,,,,,,,,2023-08-16_08h44.16.702,HF_wild_card,2022.2.4,Linux x86_64,60.0276127,5b2a2d855b5c0900018b0bf5,64d2fd46c836a06233681665,64dc7e2e77a80cefdd86de8e,,,,,,,decisionTrl,resources/DR.BMP,resources/DBN.BMP,Door3,0.278260152,-0.027455091,1,0,0,1.6418,optionRight,70,5475,3,11,0,11,0,1,,,,,,,,,,,,,,,,,,,,,,,,,,,,,,,,,,,,,,,
,,,,,,,,2023-08-16_08h44.16.702,HF_wild_card,2022.2.4,Linux x86_64,60.0276127,5b2a2d855b5c0900018b0bf5,64d2fd46c836a06233681665,64dc7e2e77a80cefdd86de8e,,,,,,,ctch,resources/DR.BMP,resources/DP.BMP,Door4,-0.230184555,-0.065253774,1,0,0,2.299,optionLeft,80,5555,3,12,0,12,0,1,,,,,,,,,,,,,,,,,,,,,,,,,,,,,,,,,,,,,,,
,,,,,,,,2023-08-16_08h44.16.702,HF_wild_card,2022.2.4,Linux x86_64,60.0276127,5b2a2d855b5c0900018b0bf5,64d2fd46c836a06233681665,64dc7e2e77a80cefdd86de8e,,,,,,,sngl,resources/Empty.png,resources/DBN.BMP,Door3,0.390120983,0.018759648,1,0,0,1.1932,optionRight,70,5625,3,13,0,13,0,1,,,,,,,,,,,,,,,,,,,,,,,,,,,,,,,,,,,,,,,
,,,,,,,,2023-08-16_08h44.16.702,HF_wild_card,2022.2.4,Linux x86_64,60.0276127,5b2a2d855b5c0900018b0bf5,64d2fd46c836a06233681665,64dc7e2e77a80cefdd86de8e,,,,,,,decisionTrl,resources/DP.BMP,resources/DB.BMP,WildCard_NonEx,0.327225526,0.006208777,1,0,0,2.6595,optionRight,55,5680,3,14,0,14,0,1,,,,,,,,,,,,,,,,,,,,,,,,,,,,,,,,,,,,,,,
,,,,,,,,2023-08-16_08h44.16.702,HF_wild_card,2022.2.4,Linux x86_64,60.0276127,5b2a2d855b5c0900018b0bf5,64d2fd46c836a06233681665,64dc7e2e77a80cefdd86de8e,,,,,,,sngl,resources/DR.BMP,resources/Empty.png,Door4,-0.35577476,-0.020916422,1,0,0,1.0943,optionLeft,80,5760,3,15,0,15,0,1,,,,,,,,,,,,,,,,,,,,,,,,,,,,,,,,,,,,,,,
,,,,,,,,2023-08-16_08h44.16.702,HF_wild_card,2022.2.4,Linux x86_64,60.0276127,5b2a2d855b5c0900018b0bf5,64d2fd46c836a06233681665,64dc7e2e77a80cefdd86de8e,,,,,,,decisionTrl,resources/DBN.BMP,resources/DR.BMP,Door3,-0.24584504,-0.055091619,1,0,0,1.6593,optionLeft,70,5830,3,16,0,16,0,1,,,,,,,,,,,,,,,,,,,,,,,,,,,,,,,,,,,,,,,
,,,,,,,,2023-08-16_08h44.16.702,HF_wild_card,2022.2.4,Linux x86_64,60.0276127,5b2a2d855b5c0900018b0bf5,64d2fd46c836a06233681665,64dc7e2e77a80cefdd86de8e,,,,,,,decisionTrl,resources/DB.BMP,resources/DR.BMP,Door4,0.33920749,-0.001450817,1,0,0,1.3313,optionRight,60,5890,3,17,0,17,0,1,,,,,,,,,,,,,,,,,,,,,,,,,,,,,,,,,,,,,,,
,,,,,,,,2023-08-16_08h44.16.702,HF_wild_card,2022.2.4,Linux x86_64,60.0276127,5b2a2d855b5c0900018b0bf5,64d2fd46c836a06233681665,64dc7e2e77a80cefdd86de8e,,,,,,,sngl,resources/Empty.png,resources/DG.BMP,Door2,0.297556718,-0.035725196,1,0,0,1.1762,optionRight,20,5910,3,18,0,18,0,1,,,,,,,,,,,,,,,,,,,,,,,,,,,,,,,,,,,,,,,
,,,,,,,,2023-08-16_08h44.16.702,HF_wild_card,2022.2.4,Linux x86_64,60.0276127,5b2a2d855b5c0900018b0bf5,64d2fd46c836a06233681665,64dc7e2e77a80cefdd86de8e,,,,,,,decisionTrl,resources/DG.BMP,resources/DP.BMP,Door1,0.273602645,-0.015564362,1,0,0,1.2433,optionRight,30,5940,3,19,0,19,0,1,,,,,,,,,,,,,,,,,,,,,,,,,,,,,,,,,,,,,,,
,,,,,,,,2023-08-16_08h44.16.702,HF_wild_card,2022.2.4,Linux x86_64,60.0276127,5b2a2d855b5c0900018b0bf5,64d2fd46c836a06233681665,64dc7e2e77a80cefdd86de8e,,,,,,,decisionTrl,resources/DP.BMP,resources/DG.BMP,Door1,-0.210638444,-0.026460846,1,0,0,2.3266,optionLeft,30,5970,3,20,0,20,0,1,,,,,,,,,,,,,,,,,,,,,,,,,,,,,,,,,,,,,,,
,,,,,,,,2023-08-16_08h44.16.702,HF_wild_card,2022.2.4,Linux x86_64,60.0276127,5b2a2d855b5c0900018b0bf5,64d2fd46c836a06233681665,64dc7e2e77a80cefdd86de8e,,,,,,,decisionTrl,resources/DR.BMP,resources/DB.BMP,Door4,-0.35064288,-0.079178294,1,0,0,1.691,optionLeft,60,6030,3,21,0,21,0,1,,,,,,,,,,,,,,,,,,,,,,,,,,,,,,,,,,,,,,,
,,,,,,,,2023-08-16_08h44.16.702,HF_wild_card,2022.2.4,Linux x86_64,60.0276127,5b2a2d855b5c0900018b0bf5,64d2fd46c836a06233681665,64dc7e2e77a80cefdd86de8e,,,,,,,ctch,resources/DBN.BMP,resources/DG.BMP,Door3,-0.331817269,-0.081193606,1,0,0,1.0101,optionLeft,70,6100,3,22,0,22,0,1,,,,,,,,,,,,,,,,,,,,,,,,,,,,,,,,,,,,,,,
,,,,,,,,2023-08-16_08h44.16.702,HF_wild_card,2022.2.4,Linux x86_64,60.0276127,5b2a2d855b5c0900018b0bf5,64d2fd46c836a06233681665,64dc7e2e77a80cefdd86de8e,,,,,,,ctch,resources/DR.BMP,resources/DP.BMP,Door4,-0.295421759,-0.0661002,1,0,0,1.1435,optionLeft,60,6160,3,23,0,23,0,1,,,,,,,,,,,,,,,,,,,,,,,,,,,,,,,,,,,,,,,
,,,,,,,,2023-08-16_08h44.16.702,HF_wild_card,2022.2.4,Linux x86_64,60.0276127,5b2a2d855b5c0900018b0bf5,64d2fd46c836a06233681665,64dc7e2e77a80cefdd86de8e,,,,,,,sngl,resources/DB.BMP,resources/Empty.png,WildCard_NonEx,-0.332285603,-0.070159793,1,0,0,0.9751,optionLeft,45,6205,3,24,0,24,0,1,,,,,,,,,,,,,,,,,,,,,,,,,,,,,,,,,,,,,,,
,,,,,,,,2023-08-16_08h44.16.702,HF_wild_card,2022.2.4,Linux x86_64,60.0276127,5b2a2d855b5c0900018b0bf5,64d2fd46c836a06233681665,64dc7e2e77a80cefdd86de8e,,,,,,,decisionTrl,resources/DBN.BMP,resources/DR.BMP,Door3,-0.296692729,-0.026018023,1,0,0,1.5262,optionLeft,70,6275,3,25,0,25,0,1,,,,,,,,,,,,,,,,,,,,,,,,,,,,,,,,,,,,,,,
,,,,,,,,2023-08-16_08h44.16.702,HF_wild_card,2022.2.4,Linux x86_64,60.0276127,5b2a2d855b5c0900018b0bf5,64d2fd46c836a06233681665,64dc7e2e77a80cefdd86de8e,,,,,,,ctch,resources/DG.BMP,resources/DBN.BMP,Door3,0.320639928,-0.055739085,1,0,0,1.4261,optionRight,70,6345,3,26,0,26,0,1,,,,,,,,,,,,,,,,,,,,,,,,,,,,,,,,,,,,,,,
,,,,,,,,2023-08-16_08h44.16.702,HF_wild_card,2022.2.4,Linux x86_64,60.0276127,5b2a2d855b5c0900018b0bf5,64d2fd46c836a06233681665,64dc7e2e77a80cefdd86de8e,,,,,,,sngl,resources/DG.BMP,resources/Empty.png,Door2,-0.292593956,-0.060990334,1,0,0,1.0757,optionLeft,40,6385,3,27,0,27,0,1,,,,,,,,,,,,,,,,,,,,,,,,,,,,,,,,,,,,,,,
,,,,,,,,2023-08-16_08h44.16.702,HF_wild_card,2022.2.4,Linux x86_64,60.0276127,5b2a2d855b5c0900018b0bf5,64d2fd46c836a06233681665,64dc7e2e77a80cefdd86de8e,,,,,,,ctch,resources/DBN.BMP,resources/DG.BMP,Door3,-0.273011764,-0.05385371,1,0,0,1.2096,optionLeft,70,6455,3,28,0,28,0,1,,,,,,,,,,,,,,,,,,,,,,,,,,,,,,,,,,,,,,,
,,,,,,,,2023-08-16_08h44.16.702,HF_wild_card,2022.2.4,Linux x86_64,60.0276127,5b2a2d855b5c0900018b0bf5,64d2fd46c836a06233681665,64dc7e2e77a80cefdd86de8e,,,,,,,decisionTrl,resources/DG.BMP,resources/DB.BMP,WildCard_NonEx,0.195376396,-0.042539597,1,0,0,1.2589,optionRight,45,6500,3,29,0,29,0,1,,,,,,,,,,,,,,,,,,,,,,,,,,,,,,,,,,,,,,,
,,,,,,,,2023-08-16_08h44.16.702,HF_wild_card,2022.2.4,Linux x86_64,60.0276127,5b2a2d855b5c0900018b0bf5,64d2fd46c836a06233681665,64dc7e2e77a80cefdd86de8e,,,,,,,decisionTrl,resources/DP.BMP,resources/DG.BMP,Door2,0.399599314,-0.00325942,1,0,0,1.7755,optionRight,40,6540,3,30,0,30,0,1,,,,,,,,,,,,,,,,,,,,,,,,,,,,,,,,,,,,,,,
,,,,,,,,2023-08-16_08h44.16.702,HF_wild_card,2022.2.4,Linux x86_64,60.0276127,5b2a2d855b5c0900018b0bf5,64d2fd46c836a06233681665,64dc7e2e77a80cefdd86de8e,,,,,,,decisionTrl,resources/DR.BMP,resources/DBN.BMP,Door3,0.335453431,-0.02312096,1,0,0,1.2595,optionRight,70,6610,3,31,0,31,0,1,,,,,,,,,,,,,,,,,,,,,,,,,,,,,,,,,,,,,,,
,,,,,,,,2023-08-16_08h44.16.702,HF_wild_card,2022.2.4,Linux x86_64,60.0276127,5b2a2d855b5c0900018b0bf5,64d2fd46c836a06233681665,64dc7e2e77a80cefdd86de8e,,,,,,,decisionTrl,resources/DBN.BMP,resources/DR.BMP,Door3,-0.290480137,-0.014037808,1,0,0,1.5758,optionLeft,70,6680,3,32,0,32,0,1,,,,,,,,,,,,,,,,,,,,,,,,,,,,,,,,,,,,,,,
,,,,,,,,2023-08-16_08h44.16.702,HF_wild_card,2022.2.4,Linux x86_64,60.0276127,5b2a2d855b5c0900018b0bf5,64d2fd46c836a06233681665,64dc7e2e77a80cefdd86de8e,,,,,,,decisionTrl,resources/DG.BMP,resources/DP.BMP,Door1,0.311536868,-0.045229713,1,0,0,1.7933,optionRight,30,6710,3,33,0,33,0,1,,,,,,,,,,,,,,,,,,,,,,,,,,,,,,,,,,,,,,,
,,,,,,,,2023-08-16_08h44.16.702,HF_wild_card,2022.2.4,Linux x86_64,60.0276127,5b2a2d855b5c0900018b0bf5,64d2fd46c836a06233681665,64dc7e2e77a80cefdd86de8e,,,,,,,decisionTrl,resources/DP.BMP,resources/DG.BMP,Door1,-0.335598787,-0.086965124,1,0,0,1.7058,optionLeft,30,6740,3,34,0,34,0,1,,,,,,,,,,,,,,,,,,,,,,,,,,,,,,,,,,,,,,,
,,,,,,,,2023-08-16_08h44.16.702,HF_wild_card,2022.2.4,Linux x86_64,60.0276127,5b2a2d855b5c0900018b0bf5,64d2fd46c836a06233681665,64dc7e2e77a80cefdd86de8e,,,,,,,decisionTrl,resources/DB.BMP,resources/DBN.BMP,Door3,0.328131517,-0.017603874,1,0,0,1.926,optionRight,70,6810,3,35,0,35,0,1,,,,,,,,,,,,,,,,,,,,,,,,,,,,,,,,,,,,,,,
,,,,,,,,2023-08-16_08h44.16.702,HF_wild_card,2022.2.4,Linux x86_64,60.0276127,5b2a2d855b5c0900018b0bf5,64d2fd46c836a06233681665,64dc7e2e77a80cefdd86de8e,,,,,,,sngl,resources/DB.BMP,resources/Empty.png,WildCard_NonEx,-0.296436628,-0.023381035,1,0,0,1.3428,optionLeft,55,6865,3,36,0,36,0,1,,,,,,,,,,,,,,,,,,,,,,,,,,,,,,,,,,,,,,,
,,,,,,,,2023-08-16_08h44.16.702,HF_wild_card,2022.2.4,Linux x86_64,60.0276127,5b2a2d855b5c0900018b0bf5,64d2fd46c836a06233681665,64dc7e2e77a80cefdd86de8e,,,,,,,sngl,resources/DP.BMP,resources/Empty.png,Door1,-0.253826896,-0.073183537,1,0,0,1.076,optionLeft,30,6895,3,37,0,37,0,1,,,,,,,,,,,,,,,,,,,,,,,,,,,,,,,,,,,,,,,
,,,,,,,,2023-08-16_08h44.16.702,HF_wild_card,2022.2.4,Linux x86_64,60.0276127,5b2a2d855b5c0900018b0bf5,64d2fd46c836a06233681665,64dc7e2e77a80cefdd86de8e,,,,,,,decisionTrl,resources/DR.BMP,resources/DBN.BMP,Door3,0.394574086,-0.012001475,1,0,0,1.3602,optionRight,70,6965,3,38,0,38,0,1,,,,,,,,,,,,,,,,,,,,,,,,,,,,,,,,,,,,,,,
,,,,,,,,2023-08-16_08h44.16.702,HF_wild_card,2022.2.4,Linux x86_64,60.0276127,5b2a2d855b5c0900018b0bf5,64d2fd46c836a06233681665,64dc7e2e77a80cefdd86de8e,,,,,,,sngl,resources/Empty.png,resources/DB.BMP,WildCard_NonEx,0.31652236,-0.025390585,1,0,0,1.0266,optionRight,45,7010,3,39,0,39,0,1,,,,,,,,,,,,,,,,,,,,,,,,,,,,,,,,,,,,,,,
,,,,,,,,2023-08-16_08h44.16.702,HF_wild_card,2022.2.4,Linux x86_64,60.0276127,5b2a2d855b5c0900018b0bf5,64d2fd46c836a06233681665,64dc7e2e77a80cefdd86de8e,,,,,,,ctch,resources/DP.BMP,resources/DR.BMP,Door4,0.197566271,-0.027374943,1,0,0,2.777,optionRight,80,7090,3,40,0,40,0,1,,,,,,,,,,,,,,,,,,,,,,,,,,,,,,,,,,,,,,,
,,,,,,,,2023-08-16_08h44.16.702,HF_wild_card,2022.2.4,Linux x86_64,60.0276127,5b2a2d855b5c0900018b0bf5,64d2fd46c836a06233681665,64dc7e2e77a80cefdd86de8e,,,,,,,sngl,resources/Empty.png,resources/DR.BMP,Door4,0.306673924,-0.031916459,1,0,0,0.9768,optionRight,60,7150,3,41,0,41,0,1,,,,,,,,,,,,,,,,,,,,,,,,,,,,,,,,,,,,,,,
,,,,,,,,2023-08-16_08h44.16.702,HF_wild_card,2022.2.4,Linux x86_64,60.0276127,5b2a2d855b5c0900018b0bf5,64d2fd46c836a06233681665,64dc7e2e77a80cefdd86de8e,,,,,,,decisionTrl,resources/DP.BMP,resources/DG.BMP,Door2,0.452435493,-0.034222404,1,0,0,2.3601,optionRight,40,7190,3,42,0,42,0,1,,,,,,,,,,,,,,,,,,,,,,,,,,,,,,,,,,,,,,,
,,,,,,,,2023-08-16_08h44.16.702,HF_wild_card,2022.2.4,Linux x86_64,60.0276127,5b2a2d855b5c0900018b0bf5,64d2fd46c836a06233681665,64dc7e2e77a80cefdd86de8e,,,,,,,decisionTrl,resources/DBN.BMP,resources/DR.BMP,Door3,-0.282370289,-0.069323659,1,0,0,1.3936,optionLeft,70,7260,3,43,0,43,0,1,,,,,,,,,,,,,,,,,,,,,,,,,,,,,,,,,,,,,,,
,,,,,,,,2023-08-16_08h44.16.702,HF_wild_card,2022.2.4,Linux x86_64,60.0276127,5b2a2d855b5c0900018b0bf5,64d2fd46c836a06233681665,64dc7e2e77a80cefdd86de8e,,,,,,,,,,,,,,,,,,,,,,,,,,2,0,2,0,1,,,,,,,,,,,,,,,,,,,,,,,,,,,,,,,,,,
,,,,,,,,2023-08-16_08h44.16.702,HF_wild_card,2022.2.4,Linux x86_64,60.0276127,5b2a2d855b5c0900018b0bf5,64d2fd46c836a06233681665,64dc7e2e77a80cefdd86de8e,,,,,,,sngl,resources/Empty.png,resources/DY.BMP,WildCard_Ex,0.244746844,-0.06370906,1,0,0,1.6121,optionRight,45,7305,4,0,0,0,0,1,,,,,,,,,,,,,,,,,,,,,,,,,,,,,,,,,,,,,,,
,,,,,,,,2023-08-16_08h44.16.702,HF_wild_card,2022.2.4,Linux x86_64,60.0276127,5b2a2d855b5c0900018b0bf5,64d2fd46c836a06233681665,64dc7e2e77a80cefdd86de8e,,,,,,,sngl,resources/DY.BMP,resources/Empty.png,WildCard_Ex,-0.286058386,-0.047768672,1,0,0,0.9758,optionLeft,55,7360,4,1,0,1,0,1,,,,,,,,,,,,,,,,,,,,,,,,,,,,,,,,,,,,,,,
,,,,,,,,2023-08-16_08h44.16.702,HF_wild_card,2022.2.4,Linux x86_64,60.0276127,5b2a2d855b5c0900018b0bf5,64d2fd46c836a06233681665,64dc7e2e77a80cefdd86de8e,,,,,,,decisionTrl,resources/DBN.BMP,resources/DR.BMP,Door3,-0.283902725,-0.025860389,1,0,0,1.9082,optionLeft,70,7430,4,2,0,2,0,1,,,,,,,,,,,,,,,,,,,,,,,,,,,,,,,,,,,,,,,
,,,,,,,,2023-08-16_08h44.16.702,HF_wild_card,2022.2.4,Linux x86_64,60.0276127,5b2a2d855b5c0900018b0bf5,64d2fd46c836a06233681665,64dc7e2e77a80cefdd86de8e,,,,,,,decisionTrl,resources/DBN.BMP,resources/DY.BMP,Door3,-0.220433076,-0.027872364,1,0,0,1.6399,optionLeft,70,7500,4,3,0,3,0,1,,,,,,,,,,,,,,,,,,,,,,,,,,,,,,,,,,,,,,,
,,,,,,,,2023-08-16_08h44.16.702,HF_wild_card,2022.2.4,Linux x86_64,60.0276127,5b2a2d855b5c0900018b0bf5,64d2fd46c836a06233681665,64dc7e2e77a80cefdd86de8e,,,,,,,sngl,resources/DY.BMP,resources/Empty.png,WildCard_Ex,-0.314691464,-0.034638445,1,0,0,0.9605,optionLeft,45,7545,4,4,0,4,0,1,,,,,,,,,,,,,,,,,,,,,,,,,,,,,,,,,,,,,,,
,,,,,,,,2023-08-16_08h44.16.702,HF_wild_card,2022.2.4,Linux x86_64,60.0276127,5b2a2d855b5c0900018b0bf5,64d2fd46c836a06233681665,64dc7e2e77a80cefdd86de8e,,,,,,,decisionTrl,resources/DY.BMP,resources/DBN.BMP,Door3,0.344434818,0.008697987,1,0,0,1.3427,optionRight,70,7615,4,5,0,5,0,1,,,,,,,,,,,,,,,,,,,,,,,,,,,,,,,,,,,,,,,
,,,,,,,,2023-08-16_08h44.16.702,HF_wild_card,2022.2.4,Linux x86_64,60.0276127,5b2a2d855b5c0900018b0bf5,64d2fd46c836a06233681665,64dc7e2e77a80cefdd86de8e,,,,,,,decisionTrl,resources/DG.BMP,resources/DP.BMP,Door1,0.282849789,-0.048601111,1,0,0,1.7929,optionRight,30,7645,4,6,0,6,0,1,,,,,,,,,,,,,,,,,,,,,,,,,,,,,,,,,,,,,,,
,,,,,,,,2023-08-16_08h44.16.702,HF_wild_card,2022.2.4,Linux x86_64,60.0276127,5b2a2d855b5c0900018b0bf5,64d2fd46c836a06233681665,64dc7e2e77a80cefdd86de8e,,,,,,,ctch,resources/DR.BMP,resources/DP.BMP,Door4,-0.283306003,-0.050656796,1,0,0,1.5927,optionLeft,60,7705,4,7,0,7,0,1,,,,,,,,,,,,,,,,,,,,,,,,,,,,,,,,,,,,,,,
,,,,,,,,2023-08-16_08h44.16.702,HF_wild_card,2022.2.4,Linux x86_64,60.0276127,5b2a2d855b5c0900018b0bf5,64d2fd46c836a06233681665,64dc7e2e77a80cefdd86de8e,,,,,,,sngl,resources/Empty.png,resources/DBN.BMP,Door3,0.337485393,-0.027228594,1,0,0,1.1079,optionRight,70,7775,4,8,0,8,0,1,,,,,,,,,,,,,,,,,,,,,,,,,,,,,,,,,,,,,,,
,,,,,,,,2023-08-16_08h44.16.702,HF_wild_card,2022.2.4,Linux x86_64,60.0276127,5b2a2d855b5c0900018b0bf5,64d2fd46c836a06233681665,64dc7e2e77a80cefdd86de8e,,,,,,,decisionTrl,resources/DBN.BMP,resources/DR.BMP,Door3,-0.234756271,-0.007692337,1,0,0,1.8265,optionLeft,70,7845,4,9,0,9,0,1,,,,,,,,,,,,,,,,,,,,,,,,,,,,,,,,,,,,,,,
,,,,,,,,2023-08-16_08h44.16.702,HF_wild_card,2022.2.4,Linux x86_64,60.0276127,5b2a2d855b5c0900018b0bf5,64d2fd46c836a06233681665,64dc7e2e77a80cefdd86de8e,,,,,,,decisionTrl,resources/DBN.BMP,resources/DR.BMP,Door3,-0.30079035,-0.029142698,1,0,0,1.209,optionLeft,70,7915,4,10,0,10,0,1,,,,,,,,,,,,,,,,,,,,,,,,,,,,,,,,,,,,,,,
,,,,,,,,2023-08-16_08h44.16.702,HF_wild_card,2022.2.4,Linux x86_64,60.0276127,5b2a2d855b5c0900018b0bf5,64d2fd46c836a06233681665,64dc7e2e77a80cefdd86de8e,,,,,,,sngl,resources/Empty.png,resources/DP.BMP,Door1,0.287651539,-0.021202286,1,0,0,1.0598,optionRight,30,7945,4,11,0,11,0,1,,,,,,,,,,,,,,,,,,,,,,,,,,,,,,,,,,,,,,,
,,,,,,,,2023-08-16_08h44.16.702,HF_wild_card,2022.2.4,Linux x86_64,60.0276127,5b2a2d855b5c0900018b0bf5,64d2fd46c836a06233681665,64dc7e2e77a80cefdd86de8e,,,,,,,ctch,resources/DBN.BMP,resources/DG.BMP,Door3,-0.379558444,-0.054534276,1,0,0,1.4091,optionLeft,70,8015,4,12,0,12,0,1,,,,,,,,,,,,,,,,,,,,,,,,,,,,,,,,,,,,,,,
,,,,,,,,2023-08-16_08h44.16.702,HF_wild_card,2022.2.4,Linux x86_64,60.0276127,5b2a2d855b5c0900018b0bf5,64d2fd46c836a06233681665,64dc7e2e77a80cefdd86de8e,,,,,,,decisionTrl,resources/DY.BMP,resources/DP.BMP,WildCard_Ex,-0.352564851,-0.023809473,1,0,0,1.9095,optionLeft,55,8070,4,13,0,13,0,1,,,,,,,,,,,,,,,,,,,,,,,,,,,,,,,,,,,,,,,
,,,,,,,,2023-08-16_08h44.16.702,HF_wild_card,2022.2.4,Linux x86_64,60.0276127,5b2a2d855b5c0900018b0bf5,64d2fd46c836a06233681665,64dc7e2e77a80cefdd86de8e,,,,,,,decisionTrl,resources/DG.BMP,resources/DY.BMP,WildCard_Ex,0.368888299,-0.042184909,1,0,0,1.2761,optionRight,45,8115,4,14,0,14,0,1,,,,,,,,,,,,,,,,,,,,,,,,,,,,,,,,,,,,,,,
,,,,,,,,2023-08-16_08h44.16.702,HF_wild_card,2022.2.4,Linux x86_64,60.0276127,5b2a2d855b5c0900018b0bf5,64d2fd46c836a06233681665,64dc7e2e77a80cefdd86de8e,,,,,,,decisionTrl,resources/DR.BMP,resources/DBN.BMP,Door3,0.227215211,-0.020868659,1,0,0,1.9933,optionRight,70,8185,4,15,0,15,0,1,,,,,,,,,,,,,,,,,,,,,,,,,,,,,,,,,,,,,,,
,,,,,,,,2023-08-16_08h44.16.702,HF_wild_card,2022.2.4,Linux x86_64,60.0276127,5b2a2d855b5c0900018b0bf5,64d2fd46c836a06233681665,64dc7e2e77a80cefdd86de8e,,,,,,,decisionTrl,resources/DY.BMP,resources/DG.BMP,WildCard_Ex,-0.155786037,0.010701219,1,0,0,1.4608,optionLeft,45,8230,4,16,0,16,0,1,,,,,,,,,,,,,,,,,,,,,,,,,,,,,,,,,,,,,,,
,,,,,,,,2023-08-16_08h44.16.702,HF_wild_card,2022.2.4,Linux x86_64,60.0276127,5b2a2d855b5c0900018b0bf5,64d2fd46c836a06233681665,64dc7e2e77a80cefdd86de8e,,,,,,,sngl,resources/Empty.png,resources/DR.BMP,Door4,0.331195434,-0.029682557,1,0,0,1.176,optionRight,80,8310,4,17,0,17,0,1,,,,,,,,,,,,,,,,,,,,,,,,,,,,,,,,,,,,,,,
,,,,,,,,2023-08-16_08h44.16.702,HF_wild_card,2022.2.4,Linux x86_64,60.0276127,5b2a2d855b5c0900018b0bf5,64d2fd46c836a06233681665,64dc7e2e77a80cefdd86de8e,,,,,,,ctch,resources/DP.BMP,resources/DR.BMP,Door4,0.363580783,-0.016476512,1,0,0,1.0769,optionRight,60,8370,4,18,0,18,0,1,,,,,,,,,,,,,,,,,,,,,,,,,,,,,,,,,,,,,,,
,,,,,,,,2023-08-16_08h44.16.702,HF_wild_card,2022.2.4,Linux x86_64,60.0276127,5b2a2d855b5c0900018b0bf5,64d2fd46c836a06233681665,64dc7e2e77a80cefdd86de8e,,,,,,,decisionTrl,resources/DP.BMP,resources/DY.BMP,WildCard_Ex,0.385224581,0.002148151,1,0,0,1.8928,optionRight,45,8415,4,19,0,19,0,1,,,,,,,,,,,,,,,,,,,,,,,,,,,,,,,,,,,,,,,
,,,,,,,,2023-08-16_08h44.16.702,HF_wild_card,2022.2.4,Linux x86_64,60.0276127,5b2a2d855b5c0900018b0bf5,64d2fd46c836a06233681665,64dc7e2e77a80cefdd86de8e,,,,,,,sngl,resources/Empty.png,resources/DY.BMP,WildCard_Ex,0.236632188,0.010476867,1,0,0,1.2601,optionRight,55,8470,4,20,0,20,0,1,,,,,,,,,,,,,,,,,,,,,,,,,,,,,,,,,,,,,,,
,,,,,,,,2023-08-16_08h44.16.702,HF_wild_card,2022.2.4,Linux x86_64,60.0276127,5b2a2d855b5c0900018b0bf5,64d2fd46c836a06233681665,64dc7e2e77a80cefdd86de8e,,,,,,,ctch,resources/DG.BMP,resources/DBN.BMP,Door3,0.337487936,0.000228365,1,0,0,1.4437,optionRight,70,8540,4,21,0,21,0,1,,,,,,,,,,,,,,,,,,,,,,,,,,,,,,,,,,,,,,,
,,,,,,,,2023-08-16_08h44.16.702,HF_wild_card,2022.2.4,Linux x86_64,60.0276127,5b2a2d855b5c0900018b0bf5,64d2fd46c836a06233681665,64dc7e2e77a80cefdd86de8e,,,,,,,ctch,resources/DR.BMP,resources/DP.BMP,Door4,-0.261051099,-0.019036929,1,0,0,1.4588,optionLeft,80,8620,4,22,0,22,0,1,,,,,,,,,,,,,,,,,,,,,,,,,,,,,,,,,,,,,,,
,,,,,,,,2023-08-16_08h44.16.702,HF_wild_card,2022.2.4,Linux x86_64,60.0276127,5b2a2d855b5c0900018b0bf5,64d2fd46c836a06233681665,64dc7e2e77a80cefdd86de8e,,,,,,,decisionTrl,resources/DR.BMP,resources/DBN.BMP,Door4,-0.326996605,-0.038448453,1,0,0,1.4106,optionLeft,80,8700,4,23,0,23,0,1,,,,,,,,,,,,,,,,,,,,,,,,,,,,,,,,,,,,,,,
,,,,,,,,2023-08-16_08h44.16.702,HF_wild_card,2022.2.4,Linux x86_64,60.0276127,5b2a2d855b5c0900018b0bf5,64d2fd46c836a06233681665,64dc7e2e77a80cefdd86de8e,,,,,,,sngl,resources/DBN.BMP,resources/Empty.png,Door3,-0.327114741,0.010554314,1,0,0,1.1769,optionLeft,70,8770,4,24,0,24,0,1,,,,,,,,,,,,,,,,,,,,,,,,,,,,,,,,,,,,,,,
,,,,,,,,2023-08-16_08h44.16.702,HF_wild_card,2022.2.4,Linux x86_64,60.0276127,5b2a2d855b5c0900018b0bf5,64d2fd46c836a06233681665,64dc7e2e77a80cefdd86de8e,,,,,,,sngl,resources/Empty.png,resources/DG.BMP,Door2,0.408361991,-0.003272891,1,0,0,1.0766,optionRight,40,8810,4,25,0,25,0,1,,,,,,,,,,,,,,,,,,,,,,,,,,,,,,,,,,,,,,,
,,,,,,,,2023-08-16_08h44.16.702,HF_wild_card,2022.2.4,Linux x86_64,60.0276127,5b2a2d855b5c0900018b0bf5,64d2fd46c836a06233681665,64dc7e2e77a80cefdd86de8e,,,,,,,sngl,resources/DP.BMP,resources/Empty.png,Door1,-0.253814936,-0.003840009,1,0,0,1.293,optionLeft,30,8840,4,26,0,26,0,1,,,,,,,,,,,,,,,,,,,,,,,,,,,,,,,,,,,,,,,
,,,,,,,,2023-08-16_08h44.16.702,HF_wild_card,2022.2.4,Linux x86_64,60.0276127,5b2a2d855b5c0900018b0bf5,64d2fd46c836a06233681665,64dc7e2e77a80cefdd86de8e,,,,,,,ctch,resources/DBN.BMP,resources/DG.BMP,Door3,-0.351545811,-0.007843773,1,0,0,1.2983,optionLeft,70,8910,4,27,0,27,0,1,,,,,,,,,,,,,,,,,,,,,,,,,,,,,,,,,,,,,,,
,,,,,,,,2023-08-16_08h44.16.702,HF_wild_card,2022.2.4,Linux x86_64,60.0276127,5b2a2d855b5c0900018b0bf5,64d2fd46c836a06233681665,64dc7e2e77a80cefdd86de8e,,,,,,,decisionTrl,resources/DY.BMP,resources/DR.BMP,Door4,0.271854798,-0.020700415,1,0,0,2.1588,optionRight,60,8970,4,28,0,28,0,1,,,,,,,,,,,,,,,,,,,,,,,,,,,,,,,,,,,,,,,
,,,,,,,,2023-08-16_08h44.16.702,HF_wild_card,2022.2.4,Linux x86_64,60.0276127,5b2a2d855b5c0900018b0bf5,64d2fd46c836a06233681665,64dc7e2e77a80cefdd86de8e,,,,,,,decisionTrl,resources/DG.BMP,resources/DP.BMP,Door1,0.200578054,0.008081079,1,0,0,1.6241,optionRight,30,9000,4,29,0,29,0,1,,,,,,,,,,,,,,,,,,,,,,,,,,,,,,,,,,,,,,,
,,,,,,,,2023-08-16_08h44.16.702,HF_wild_card,2022.2.4,Linux x86_64,60.0276127,5b2a2d855b5c0900018b0bf5,64d2fd46c836a06233681665,64dc7e2e77a80cefdd86de8e,,,,,,,ctch,resources/DP.BMP,resources/DR.BMP,Door4,0.426402569,0.004074216,1,0,0,1.9081,optionRight,80,9080,4,30,0,30,0,1,,,,,,,,,,,,,,,,,,,,,,,,,,,,,,,,,,,,,,,
,,,,,,,,2023-08-16_08h44.16.702,HF_wild_card,2022.2.4,Linux x86_64,60.0276127,5b2a2d855b5c0900018b0bf5,64d2fd46c836a06233681665,64dc7e2e77a80cefdd86de8e,,,,,,,decisionTrl,resources/DP.BMP,resources/DG.BMP,Door1,-0.236645778,-0.043441614,1,0,0,3.4405,optionLeft,30,9110,4,31,0,31,0,1,,,,,,,,,,,,,,,,,,,,,,,,,,,,,,,,,,,,,,,
,,,,,,,,2023-08-16_08h44.16.702,HF_wild_card,2022.2.4,Linux x86_64,60.0276127,5b2a2d855b5c0900018b0bf5,64d2fd46c836a06233681665,64dc7e2e77a80cefdd86de8e,,,,,,,decisionTrl,resources/DG.BMP,resources/DP.BMP,Door1,0.322534402,-0.042090058,1,0,0,1.6597,optionRight,30,9140,4,32,0,32,0,1,,,,,,,,,,,,,,,,,,,,,,,,,,,,,,,,,,,,,,,
,,,,,,,,2023-08-16_08h44.16.702,HF_wild_card,2022.2.4,Linux x86_64,60.0276127,5b2a2d855b5c0900018b0bf5,64d2fd46c836a06233681665,64dc7e2e77a80cefdd86de8e,,,,,,,decisionTrl,resources/DR.BMP,resources/DY.BMP,Door4,-0.293663661,-0.075382233,1,0,0,1.5935,optionLeft,60,9200,4,33,0,33,0,1,,,,,,,,,,,,,,,,,,,,,,,,,,,,,,,,,,,,,,,
,,,,,,,,2023-08-16_08h44.16.702,HF_wild_card,2022.2.4,Linux x86_64,60.0276127,5b2a2d855b5c0900018b0bf5,64d2fd46c836a06233681665,64dc7e2e77a80cefdd86de8e,,,,,,,decisionTrl,resources/DBN.BMP,resources/DR.BMP,Door3,-0.223878821,-0.045074383,1,0,0,2.5257,optionLeft,70,9270,4,34,0,34,0,1,,,,,,,,,,,,,,,,,,,,,,,,,,,,,,,,,,,,,,,
,,,,,,,,2023-08-16_08h44.16.702,HF_wild_card,2022.2.4,Linux x86_64,60.0276127,5b2a2d855b5c0900018b0bf5,64d2fd46c836a06233681665,64dc7e2e77a80cefdd86de8e,,,,,,,sngl,resources/DR.BMP,resources/Empty.png,Door4,-0.331630468,-0.04218173,1,0,0,1.2113,optionLeft,60,9330,4,35,0,35,0,1,,,,,,,,,,,,,,,,,,,,,,,,,,,,,,,,,,,,,,,
,,,,,,,,2023-08-16_08h44.16.702,HF_wild_card,2022.2.4,Linux x86_64,60.0276127,5b2a2d855b5c0900018b0bf5,64d2fd46c836a06233681665,64dc7e2e77a80cefdd86de8e,,,,,,,decisionTrl,resources/DP.BMP,resources/DG.BMP,Door2,0.233060837,-0.004010081,1,0,0,3.9742,optionRight,20,9350,4,36,0,36,0,1,,,,,,,,,,,,,,,,,,,,,,,,,,,,,,,,,,,,,,,
,,,,,,,,2023-08-16_08h44.16.702,HF_wild_card,2022.2.4,Linux x86_64,60.0276127,5b2a2d855b5c0900018b0bf5,64d2fd46c836a06233681665,64dc7e2e77a80cefdd86de8e,,,,,,,decisionTrl,resources/DP.BMP,resources/DG.BMP,Door1,-0.215764284,-0.021829049,1,0,0,0.9602,optionLeft,30,9380,4,37,0,37,0,1,,,,,,,,,,,,,,,,,,,,,,,,,,,,,,,,,,,,,,,
,,,,,,,,2023-08-16_08h44.16.702,HF_wild_card,2022.2.4,Linux x86_64,60.0276127,5b2a2d855b5c0900018b0bf5,64d2fd46c836a06233681665,64dc7e2e77a80cefdd86de8e,,,,,,,decisionTrl,resources/DR.BMP,resources/DBN.BMP,Door3,0.386710882,0.022419016,1,0,0,1.6438,optionRight,70,9450,4,38,0,38,0,1,,,,,,,,,,,,,,,,,,,,,,,,,,,,,,,,,,,,,,,
,,,,,,,,2023-08-16_08h44.16.702,HF_wild_card,2022.2.4,Linux x86_64,60.0276127,5b2a2d855b5c0900018b0bf5,64d2fd46c836a06233681665,64dc7e2e77a80cefdd86de8e,,,,,,,decisionTrl,resources/DG.BMP,resources/DP.BMP,Door1,0.226676226,-0.022267699,1,0,0,2.5586,optionRight,30,9480,4,39,0,39,0,1,,,,,,,,,,,,,,,,,,,,,,,,,,,,,,,,,,,,,,,
,,,,,,,,2023-08-16_08h44.16.702,HF_wild_card,2022.2.4,Linux x86_64,60.0276127,5b2a2d855b5c0900018b0bf5,64d2fd46c836a06233681665,64dc7e2e77a80cefdd86de8e,,,,,,,sngl,resources/DG.BMP,resources/Empty.png,Door2,-0.189112902,-0.022075574,1,0,0,1.1745,optionLeft,20,9500,4,40,0,40,0,1,,,,,,,,,,,,,,,,,,,,,,,,,,,,,,,,,,,,,,,
,,,,,,,,2023-08-16_08h44.16.702,HF_wild_card,2022.2.4,Linux x86_64,60.0276127,5b2a2d855b5c0900018b0bf5,64d2fd46c836a06233681665,64dc7e2e77a80cefdd86de8e,,,,,,,decisionTrl,resources/DR.BMP,resources/DBN.BMP,Door3,0.341344436,-0.008244038,1,0,0,1.5932,optionRight,70,9570,4,41,0,41,0,1,,,,,,,,,,,,,,,,,,,,,,,,,,,,,,,,,,,,,,,
,,,,,,,,2023-08-16_08h44.16.702,HF_wild_card,2022.2.4,Linux x86_64,60.0276127,5b2a2d855b5c0900018b0bf5,64d2fd46c836a06233681665,64dc7e2e77a80cefdd86de8e,,,,,,,decisionTrl,resources/DP.BMP,resources/DG.BMP,Door1,-0.242632866,-0.041471561,1,0,0,2.3592,optionLeft,30,9600,4,42,0,42,0,1,,,,,,,,,,,,,,,,,,,,,,,,,,,,,,,,,,,,,,,
,,,,,,,,2023-08-16_08h44.16.702,HF_wild_card,2022.2.4,Linux x86_64,60.0276127,5b2a2d855b5c0900018b0bf5,64d2fd46c836a06233681665,64dc7e2e77a80cefdd86de8e,,,,,,,ctch,resources/DG.BMP,resources/DBN.BMP,Door3,0.424601714,0.032456319,1,0,0,1.3564,optionRight,70,9670,4,43,0,43,0,1,,,,,,,,,,,,,,,,,,,,,,,,,,,,,,,,,,,,,,,
,,,,,,,,2023-08-16_08h44.16.702,HF_wild_card,2022.2.4,Linux x86_64,60.0276127,5b2a2d855b5c0900018b0bf5,64d2fd46c836a06233681665,64dc7e2e77a80cefdd86de8e,,,,,,,,,,,,,,,,,,,,,,,,,,3,0,3,0,1,,,,,,,,,,,,,,,,,,,,,,,,,,,,,,,,,,
,,,,,,,,2023-08-16_08h44.16.702,HF_wild_card,2022.2.4,Linux x86_64,60.0276127,5b2a2d855b5c0900018b0bf5,64d2fd46c836a06233681665,64dc7e2e77a80cefdd86de8e,,,,,,,ctch,resources/DG.BMP,resources/DBN.BMP,Door3,0.405184587,-0.074709217,1,0,0,1.5292,optionRight,70,9740,5,0,0,0,0,1,,,,,,,,,,,,,,,,,,,,,,,,,,,,,,,,,,,,,,,
,,,,,,,,2023-08-16_08h44.16.702,HF_wild_card,2022.2.4,Linux x86_64,60.0276127,5b2a2d855b5c0900018b0bf5,64d2fd46c836a06233681665,64dc7e2e77a80cefdd86de8e,,,,,,,sngl,resources/DY.BMP,resources/Empty.png,WildCard_Ex,-0.236545682,-0.056246479,1,0,0,1.0321,optionLeft,55,9795,5,1,0,1,0,1,,,,,,,,,,,,,,,,,,,,,,,,,,,,,,,,,,,,,,,
,,,,,,,,2023-08-16_08h44.16.702,HF_wild_card,2022.2.4,Linux x86_64,60.0276127,5b2a2d855b5c0900018b0bf5,64d2fd46c836a06233681665,64dc7e2e77a80cefdd86de8e,,,,,,,decisionTrl,resources/DY.BMP,resources/DG.BMP,WildCard_Ex,-0.233045499,-0.049050927,1,0,0,1.5762,optionLeft,45,9840,5,2,0,2,0,1,,,,,,,,,,,,,,,,,,,,,,,,,,,,,,,,,,,,,,,
,,,,,,,,2023-08-16_08h44.16.702,HF_wild_card,2022.2.4,Linux x86_64,60.0276127,5b2a2d855b5c0900018b0bf5,64d2fd46c836a06233681665,64dc7e2e77a80cefdd86de8e,,,,,,,sngl,resources/DBN.BMP,resources/Empty.png,Door3,-0.292862654,-0.039152106,1,0,0,1.06,optionLeft,70,9910,5,3,0,3,0,1,,,,,,,,,,,,,,,,,,,,,,,,,,,,,,,,,,,,,,,
,,,,,,,,2023-08-16_08h44.16.702,HF_wild_card,2022.2.4,Linux x86_64,60.0276127,5b2a2d855b5c0900018b0bf5,64d2fd46c836a06233681665,64dc7e2e77a80cefdd86de8e,,,,,,,ctch,resources/DR.BMP,resources/DP.BMP,Door4,-0.289192677,-0.10183986,1,0,0,1.422,optionLeft,80,9990,5,4,0,4,0,1,,,,,,,,,,,,,,,,,,,,,,,,,,,,,,,,,,,,,,,
,,,,,,,,2023-08-16_08h44.16.702,HF_wild_card,2022.2.4,Linux x86_64,60.0276127,5b2a2d855b5c0900018b0bf5,64d2fd46c836a06233681665,64dc7e2e77a80cefdd86de8e,,,,,,,sngl,resources/Empty.png,resources/DY.BMP,WildCard_Ex,0.341424863,-0.025717219,1,0,0,1.709,optionRight,45,10035,5,5,0,5,0,1,,,,,,,,,,,,,,,,,,,,,,,,,,,,,,,,,,,,,,,
,,,,,,,,2023-08-16_08h44.16.702,HF_wild_card,2022.2.4,Linux x86_64,60.0276127,5b2a2d855b5c0900018b0bf5,64d2fd46c836a06233681665,64dc7e2e77a80cefdd86de8e,,,,,,,decisionTrl,resources/DY.BMP,resources/DR.BMP,Door4,0.27152578,0.007876436,1,0,0,1.4925,optionRight,60,10095,5,6,0,6,0,1,,,,,,,,,,,,,,,,,,,,,,,,,,,,,,,,,,,,,,,
,,,,,,,,2023-08-16_08h44.16.702,HF_wild_card,2022.2.4,Linux x86_64,60.0276127,5b2a2d855b5c0900018b0bf5,64d2fd46c836a06233681665,64dc7e2e77a80cefdd86de8e,,,,,,,decisionTrl,resources/DR.BMP,resources/DY.BMP,Door4,-0.357140064,-0.0630428,1,0,0,1.4092,optionLeft,80,10175,5,7,0,7,0,1,,,,,,,,,,,,,,,,,,,,,,,,,,,,,,,,,,,,,,,
,,,,,,,,2023-08-16_08h44.16.702,HF_wild_card,2022.2.4,Linux x86_64,60.0276127,5b2a2d855b5c0900018b0bf5,64d2fd46c836a06233681665,64dc7e2e77a80cefdd86de8e,,,,,,,decisionTrl,resources/DY.BMP,resources/DP.BMP,WildCard_Ex,-0.272327026,-0.063714147,1,0,0,1.6755,optionLeft,55,10230,5,8,0,8,0,1,,,,,,,,,,,,,,,,,,,,,,,,,,,,,,,,,,,,,,,
,,,,,,,,2023-08-16_08h44.16.702,HF_wild_card,2022.2.4,Linux x86_64,60.0276127,5b2a2d855b5c0900018b0bf5,64d2fd46c836a06233681665,64dc7e2e77a80cefdd86de8e,,,,,,,decisionTrl,resources/DP.BMP,resources/DG.BMP,Door2,0.389909585,-0.081790725,1,0,0,3.3257,optionRight,40,10270,5,9,0,9,0,1,,,,,,,,,,,,,,,,,,,,,,,,,,,,,,,,,,,,,,,
,,,,,,,,2023-08-16_08h44.16.702,HF_wild_card,2022.2.4,Linux x86_64,60.0276127,5b2a2d855b5c0900018b0bf5,64d2fd46c836a06233681665,64dc7e2e77a80cefdd86de8e,,,,,,,ctch,resources/DG.BMP,resources/DBN.BMP,Door3,0.354336818,0.054751555,1,0,0,1.1755,optionRight,70,10340,5,10,0,10,0,1,,,,,,,,,,,,,,,,,,,,,,,,,,,,,,,,,,,,,,,
,,,,,,,,2023-08-16_08h44.16.702,HF_wild_card,2022.2.4,Linux x86_64,60.0276127,5b2a2d855b5c0900018b0bf5,64d2fd46c836a06233681665,64dc7e2e77a80cefdd86de8e,,,,,,,decisionTrl,resources/DG.BMP,resources/DP.BMP,Door2,-0.313879093,-0.068642656,1,0,0,3.74,optionLeft,20,10360,5,11,0,11,0,1,,,,,,,,,,,,,,,,,,,,,,,,,,,,,,,,,,,,,,,
,,,,,,,,2023-08-16_08h44.16.702,HF_wild_card,2022.2.4,Linux x86_64,60.0276127,5b2a2d855b5c0900018b0bf5,64d2fd46c836a06233681665,64dc7e2e77a80cefdd86de8e,,,,,,,sngl,resources/Empty.png,resources/DG.BMP,Door2,0.302985032,-0.005636255,1,0,0,0.9431,optionRight,20,10380,5,12,0,12,0,1,,,,,,,,,,,,,,,,,,,,,,,,,,,,,,,,,,,,,,,
,,,,,,,,2023-08-16_08h44.16.702,HF_wild_card,2022.2.4,Linux x86_64,60.0276127,5b2a2d855b5c0900018b0bf5,64d2fd46c836a06233681665,64dc7e2e77a80cefdd86de8e,,,,,,,decisionTrl,resources/DG.BMP,resources/DP.BMP,Door1,0.376543601,0.003046632,1,0,0,1.0083,optionRight,30,10410,5,13,0,13,0,1,,,,,,,,,,,,,,,,,,,,,,,,,,,,,,,,,,,,,,,
,,,,,,,,2023-08-16_08h44.16.702,HF_wild_card,2022.2.4,Linux x86_64,60.0276127,5b2a2d855b5c0900018b0bf5,64d2fd46c836a06233681665,64dc7e2e77a80cefdd86de8e,,,,,,,ctch,resources/DP.BMP,resources/DR.BMP,Door4,0.298875809,-0.007154663,1,0,0,1.3437,optionRight,80,10490,5,14,0,14,0,1,,,,,,,,,,,,,,,,,,,,,,,,,,,,,,,,,,,,,,,
,,,,,,,,2023-08-16_08h44.16.702,HF_wild_card,2022.2.4,Linux x86_64,60.0276127,5b2a2d855b5c0900018b0bf5,64d2fd46c836a06233681665,64dc7e2e77a80cefdd86de8e,,,,,,,sngl,resources/DY.BMP,resources/Empty.png,WildCard_Ex,-0.447730104,-0.045334379,1,0,0,1.376,optionLeft,45,10535,5,15,0,15,0,1,,,,,,,,,,,,,,,,,,,,,,,,,,,,,,,,,,,,,,,
,,,,,,,,2023-08-16_08h44.16.702,HF_wild_card,2022.2.4,Linux x86_64,60.0276127,5b2a2d855b5c0900018b0bf5,64d2fd46c836a06233681665,64dc7e2e77a80cefdd86de8e,,,,,,,decisionTrl,resources/DBN.BMP,resources/DR.BMP,Door3,-0.306065122,-0.054808378,1,0,0,1.5119,optionLeft,70,10605,5,16,0,16,0,1,,,,,,,,,,,,,,,,,,,,,,,,,,,,,,,,,,,,,,,
,,,,,,,,2023-08-16_08h44.16.702,HF_wild_card,2022.2.4,Linux x86_64,60.0276127,5b2a2d855b5c0900018b0bf5,64d2fd46c836a06233681665,64dc7e2e77a80cefdd86de8e,,,,,,,decisionTrl,resources/DR.BMP,resources/DBN.BMP,Door3,0.309547822,0.019896587,1,0,0,2.0763,optionRight,70,10675,5,17,0,17,0,1,,,,,,,,,,,,,,,,,,,,,,,,,,,,,,,,,,,,,,,
,,,,,,,,2023-08-16_08h44.16.702,HF_wild_card,2022.2.4,Linux x86_64,60.0276127,5b2a2d855b5c0900018b0bf5,64d2fd46c836a06233681665,64dc7e2e77a80cefdd86de8e,,,,,,,decisionTrl,resources/DG.BMP,resources/DP.BMP,Door1,0.205668767,-0.01584669,1,0,0,3.0757,optionRight,30,10705,5,18,0,18,0,1,,,,,,,,,,,,,,,,,,,,,,,,,,,,,,,,,,,,,,,
,,,,,,,,2023-08-16_08h44.16.702,HF_wild_card,2022.2.4,Linux x86_64,60.0276127,5b2a2d855b5c0900018b0bf5,64d2fd46c836a06233681665,64dc7e2e77a80cefdd86de8e,,,,,,,ctch,resources/DBN.BMP,resources/DG.BMP,Door3,-0.308770339,-0.02414306,1,0,0,1.0773,optionLeft,70,10775,5,19,0,19,0,1,,,,,,,,,,,,,,,,,,,,,,,,,,,,,,,,,,,,,,,
,,,,,,,,2023-08-16_08h44.16.702,HF_wild_card,2022.2.4,Linux x86_64,60.0276127,5b2a2d855b5c0900018b0bf5,64d2fd46c836a06233681665,64dc7e2e77a80cefdd86de8e,,,,,,,decisionTrl,resources/DR.BMP,resources/DBN.BMP,Door3,0.254411538,-0.02453204,1,0,0,2.1925,optionRight,70,10845,5,20,0,20,0,1,,,,,,,,,,,,,,,,,,,,,,,,,,,,,,,,,,,,,,,
,,,,,,,,2023-08-16_08h44.16.702,HF_wild_card,2022.2.4,Linux x86_64,60.0276127,5b2a2d855b5c0900018b0bf5,64d2fd46c836a06233681665,64dc7e2e77a80cefdd86de8e,,,,,,,decisionTrl,resources/DP.BMP,resources/DG.BMP,Door1,-0.277014454,-0.122897188,1,0,0,2.16,optionLeft,30,10875,5,21,0,21,0,1,,,,,,,,,,,,,,,,,,,,,,,,,,,,,,,,,,,,,,,
,,,,,,,,2023-08-16_08h44.16.702,HF_wild_card,2022.2.4,Linux x86_64,60.0276127,5b2a2d855b5c0900018b0bf5,64d2fd46c836a06233681665,64dc7e2e77a80cefdd86de8e,,,,,,,decisionTrl,resources/DR.BMP,resources/DBN.BMP,Door3,0.286987861,0.020740469,1,0,0,1.5687,optionRight,70,10945,5,22,0,22,0,1,,,,,,,,,,,,,,,,,,,,,,,,,,,,,,,,,,,,,,,
,,,,,,,,2023-08-16_08h44.16.702,HF_wild_card,2022.2.4,Linux x86_64,60.0276127,5b2a2d855b5c0900018b0bf5,64d2fd46c836a06233681665,64dc7e2e77a80cefdd86de8e,,,,,,,sngl,resources/Empty.png,resources/DP.BMP,Door1,0.343631426,-0.019806147,1,0,0,1.1592,optionRight,30,10975,5,23,0,23,0,1,,,,,,,,,,,,,,,,,,,,,,,,,,,,,,,,,,,,,,,
,,,,,,,,2023-08-16_08h44.16.702,HF_wild_card,2022.2.4,Linux x86_64,60.0276127,5b2a2d855b5c0900018b0bf5,64d2fd46c836a06233681665,64dc7e2e77a80cefdd86de8e,,,,,,,decisionTrl,resources/DY.BMP,resources/DBN.BMP,Door3,0.286346118,-0.02066497,1,0,0,1.3591,optionRight,70,11045,5,24,0,24,0,1,,,,,,,,,,,,,,,,,,,,,,,,,,,,,,,,,,,,,,,
,,,,,,,,2023-08-16_08h44.16.702,HF_wild_card,2022.2.4,Linux x86_64,60.0276127,5b2a2d855b5c0900018b0bf5,64d2fd46c836a06233681665,64dc7e2e77a80cefdd86de8e,,,,,,,decisionTrl,resources/DP.BMP,resources/DG.BMP,Door1,-0.307165583,-0.076769233,1,0,0,1.6793,optionLeft,30,11075,5,25,0,25,0,1,,,,,,,,,,,,,,,,,,,,,,,,,,,,,,,,,,,,,,,
,,,,,,,,2023-08-16_08h44.16.702,HF_wild_card,2022.2.4,Linux x86_64,60.0276127,5b2a2d855b5c0900018b0bf5,64d2fd46c836a06233681665,64dc7e2e77a80cefdd86de8e,,,,,,,decisionTrl,resources/DBN.BMP,resources/DR.BMP,Door3,-0.254746636,-0.048051357,1,0,0,1.643,optionLeft,70,11145,5,26,0,26,0,1,,,,,,,,,,,,,,,,,,,,,,,,,,,,,,,,,,,,,,,
,,,,,,,,2023-08-16_08h44.16.702,HF_wild_card,2022.2.4,Linux x86_64,60.0276127,5b2a2d855b5c0900018b0bf5,64d2fd46c836a06233681665,64dc7e2e77a80cefdd86de8e,,,,,,,sngl,resources/Empty.png,resources/DR.BMP,Door4,0.358354092,-0.008784533,1,0,0,1.3266,optionRight,60,11205,5,27,0,27,0,1,,,,,,,,,,,,,,,,,,,,,,,,,,,,,,,,,,,,,,,
,,,,,,,,2023-08-16_08h44.16.702,HF_wild_card,2022.2.4,Linux x86_64,60.0276127,5b2a2d855b5c0900018b0bf5,64d2fd46c836a06233681665,64dc7e2e77a80cefdd86de8e,,,,,,,decisionTrl,resources/DG.BMP,resources/DP.BMP,Door1,0.358400981,-0.004863342,1,0,0,1.5813,optionRight,30,11235,5,28,0,28,0,1,,,,,,,,,,,,,,,,,,,,,,,,,,,,,,,,,,,,,,,
,,,,,,,,2023-08-16_08h44.16.702,HF_wild_card,2022.2.4,Linux x86_64,60.0276127,5b2a2d855b5c0900018b0bf5,64d2fd46c836a06233681665,64dc7e2e77a80cefdd86de8e,,,,,,,ctch,resources/DBN.BMP,resources/DG.BMP,Door3,-0.310614308,-0.059755882,1,0,0,1.4767,optionLeft,70,11305,5,29,0,29,0,1,,,,,,,,,,,,,,,,,,,,,,,,,,,,,,,,,,,,,,,
,,,,,,,,2023-08-16_08h44.16.702,HF_wild_card,2022.2.4,Linux x86_64,60.0276127,5b2a2d855b5c0900018b0bf5,64d2fd46c836a06233681665,64dc7e2e77a80cefdd86de8e,,,,,,,decisionTrl,resources/DBN.BMP,resources/DR.BMP,Door3,-0.355818828,-0.079737981,1,0,0,2.0266,optionLeft,70,11375,5,30,0,30,0,1,,,,,,,,,,,,,,,,,,,,,,,,,,,,,,,,,,,,,,,
,,,,,,,,2023-08-16_08h44.16.702,HF_wild_card,2022.2.4,Linux x86_64,60.0276127,5b2a2d855b5c0900018b0bf5,64d2fd46c836a06233681665,64dc7e2e77a80cefdd86de8e,,,,,,,decisionTrl,resources/DBN.BMP,resources/DR.BMP,Door3,-0.211274306,-0.062176347,1,0,0,3.3099,optionLeft,70,11445,5,31,0,31,0,1,,,,,,,,,,,,,,,,,,,,,,,,,,,,,,,,,,,,,,,
,,,,,,,,2023-08-16_08h44.16.702,HF_wild_card,2022.2.4,Linux x86_64,60.0276127,5b2a2d855b5c0900018b0bf5,64d2fd46c836a06233681665,64dc7e2e77a80cefdd86de8e,,,,,,,decisionTrl,resources/DP.BMP,resources/DY.BMP,WildCard_Ex,0.374467691,0.003533204,1,0,0,1.3608,optionRight,45,11490,5,32,0,32,0,1,,,,,,,,,,,,,,,,,,,,,,,,,,,,,,,,,,,,,,,
,,,,,,,,2023-08-16_08h44.16.702,HF_wild_card,2022.2.4,Linux x86_64,60.0276127,5b2a2d855b5c0900018b0bf5,64d2fd46c836a06233681665,64dc7e2e77a80cefdd86de8e,,,,,,,ctch,resources/DR.BMP,resources/DP.BMP,Door4,-0.367843628,-0.08678635,1,0,0,1.3431,optionLeft,80,11570,5,33,0,33,0,1,,,,,,,,,,,,,,,,,,,,,,,,,,,,,,,,,,,,,,,
,,,,,,,,2023-08-16_08h44.16.702,HF_wild_card,2022.2.4,Linux x86_64,60.0276127,5b2a2d855b5c0900018b0bf5,64d2fd46c836a06233681665,64dc7e2e77a80cefdd86de8e,,,,,,,sngl,resources/DG.BMP,resources/Empty.png,Door2,-0.319277604,-0.052789529,1,0,0,1.3089,optionLeft,40,11610,5,34,0,34,0,1,,,,,,,,,,,,,,,,,,,,,,,,,,,,,,,,,,,,,,,
,,,,,,,,2023-08-16_08h44.16.702,HF_wild_card,2022.2.4,Linux x86_64,60.0276127,5b2a2d855b5c0900018b0bf5,64d2fd46c836a06233681665,64dc7e2e77a80cefdd86de8e,,,,,,,sngl,resources/DR.BMP,resources/Empty.png,Door4,-0.352501591,-0.09240818,1,0,0,1.0264,optionLeft,80,11690,5,35,0,35,0,1,,,,,,,,,,,,,,,,,,,,,,,,,,,,,,,,,,,,,,,
,,,,,,,,2023-08-16_08h44.16.702,HF_wild_card,2022.2.4,Linux x86_64,60.0276127,5b2a2d855b5c0900018b0bf5,64d2fd46c836a06233681665,64dc7e2e77a80cefdd86de8e,,,,,,,sngl,resources/DP.BMP,resources/Empty.png,Door1,-0.327627381,-0.034595132,1,0,0,1.1097,optionLeft,30,11720,5,36,0,36,0,1,,,,,,,,,,,,,,,,,,,,,,,,,,,,,,,,,,,,,,,
,,,,,,,,2023-08-16_08h44.16.702,HF_wild_card,2022.2.4,Linux x86_64,60.0276127,5b2a2d855b5c0900018b0bf5,64d2fd46c836a06233681665,64dc7e2e77a80cefdd86de8e,,,,,,,decisionTrl,resources/DG.BMP,resources/DY.BMP,WildCard_Ex,0.432090362,0.016513666,1,0,0,1.5769,optionRight,45,11765,5,37,0,37,0,1,,,,,,,,,,,,,,,,,,,,,,,,,,,,,,,,,,,,,,,
,,,,,,,,2023-08-16_08h44.16.702,HF_wild_card,2022.2.4,Linux x86_64,60.0276127,5b2a2d855b5c0900018b0bf5,64d2fd46c836a06233681665,64dc7e2e77a80cefdd86de8e,,,,,,,decisionTrl,resources/DP.BMP,resources/DG.BMP,Door1,-0.315893332,-0.075428089,1,0,0,1.809,optionLeft,30,11795,5,38,0,38,0,1,,,,,,,,,,,,,,,,,,,,,,,,,,,,,,,,,,,,,,,
,,,,,,,,2023-08-16_08h44.16.702,HF_wild_card,2022.2.4,Linux x86_64,60.0276127,5b2a2d855b5c0900018b0bf5,64d2fd46c836a06233681665,64dc7e2e77a80cefdd86de8e,,,,,,,sngl,resources/Empty.png,resources/DBN.BMP,Door3,0.272725503,0.02991271,1,0,0,1.2265,optionRight,70,11865,5,39,0,39,0,1,,,,,,,,,,,,,,,,,,,,,,,,,,,,,,,,,,,,,,,
,,,,,,,,2023-08-16_08h44.16.702,HF_wild_card,2022.2.4,Linux x86_64,60.0276127,5b2a2d855b5c0900018b0bf5,64d2fd46c836a06233681665,64dc7e2e77a80cefdd86de8e,,,,,,,decisionTrl,resources/DBN.BMP,resources/DY.BMP,Door3,-0.337034186,-0.07640334,1,0,0,1.5756,optionLeft,70,11935,5,40,0,40,0,1,,,,,,,,,,,,,,,,,,,,,,,,,,,,,,,,,,,,,,,
,,,,,,,,2023-08-16_08h44.16.702,HF_wild_card,2022.2.4,Linux x86_64,60.0276127,5b2a2d855b5c0900018b0bf5,64d2fd46c836a06233681665,64dc7e2e77a80cefdd86de8e,,,,,,,decisionTrl,resources/DR.BMP,resources/DBN.BMP,Door3,0.341816266,-0.004077276,1,0,0,1.4442,optionRight,70,12005,5,41,0,41,0,1,,,,,,,,,,,,,,,,,,,,,,,,,,,,,,,,,,,,,,,
,,,,,,,,2023-08-16_08h44.16.702,HF_wild_card,2022.2.4,Linux x86_64,60.0276127,5b2a2d855b5c0900018b0bf5,64d2fd46c836a06233681665,64dc7e2e77a80cefdd86de8e,,,,,,,sngl,resources/Empty.png,resources/DY.BMP,WildCard_Ex,0.324334065,-0.001901507,1,0,0,1.509,optionRight,55,12060,5,42,0,42,0,1,,,,,,,,,,,,,,,,,,,,,,,,,,,,,,,,,,,,,,,
,,,,,,,,2023-08-16_08h44.16.702,HF_wild_card,2022.2.4,Linux x86_64,60.0276127,5b2a2d855b5c0900018b0bf5,64d2fd46c836a06233681665,64dc7e2e77a80cefdd86de8e,,,,,,,ctch,resources/DP.BMP,resources/DR.BMP,Door4,0.322958787,-0.017124931,1,0,0,3.7421,optionRight,80,12140,5,43,0,43,0,1,,,,,,,,,,,,,,,,,,,,,,,,,,,,,,,,,,,,,,,
,,,,,,,,2023-08-16_08h44.16.702,HF_wild_card,2022.2.4,Linux x86_64,60.0276127,5b2a2d855b5c0900018b0bf5,64d2fd46c836a06233681665,64dc7e2e77a80cefdd86de8e,,,,,,,,,,,,,,,,,,,,,,,,,,4,0,4,0,1,,,,,,,,,,,,,,,,,,,,,,,,,,,,,,,,,,
,,,,,,,,2023-08-16_08h44.16.702,HF_wild_card,2022.2.4,Linux x86_64,60.0276127,5b2a2d855b5c0900018b0bf5,64d2fd46c836a06233681665,64dc7e2e77a80cefdd86de8e,,,,,,,decisionTrl,resources/DY.BMP,resources/DBN.BMP,Door3,0.3583347,0.027941545,1,0,0,1.7617,optionRight,70,12210,6,0,0,0,0,1,,,,,,,,,,,,,,,,,,,,,,,,,,,,,,,,,,,,,,,
,,,,,,,,2023-08-16_08h44.16.702,HF_wild_card,2022.2.4,Linux x86_64,60.0276127,5b2a2d855b5c0900018b0bf5,64d2fd46c836a06233681665,64dc7e2e77a80cefdd86de8e,,,,,,,decisionTrl,resources/DP.BMP,resources/DG.BMP,Door1,-0.324137886,-0.075478554,1,0,0,1.616,optionLeft,30,12240,6,1,0,1,0,1,,,,,,,,,,,,,,,,,,,,,,,,,,,,,,,,,,,,,,,
,,,,,,,,2023-08-16_08h44.16.702,HF_wild_card,2022.2.4,Linux x86_64,60.0276127,5b2a2d855b5c0900018b0bf5,64d2fd46c836a06233681665,64dc7e2e77a80cefdd86de8e,,,,,,,decisionTrl,resources/DR.BMP,resources/DBN.BMP,Door3,0.36547788,0.022485892,1,0,0,1.3936,optionRight,70,12310,6,2,0,2,0,1,,,,,,,,,,,,,,,,,,,,,,,,,,,,,,,,,,,,,,,
,,,,,,,,2023-08-16_08h44.16.702,HF_wild_card,2022.2.4,Linux x86_64,60.0276127,5b2a2d855b5c0900018b0bf5,64d2fd46c836a06233681665,64dc7e2e77a80cefdd86de8e,,,,,,,decisionTrl,resources/DP.BMP,resources/DG.BMP,Door1,-0.276315848,-0.077975313,1,0,0,1.4122,optionLeft,30,12340,6,3,0,3,0,1,,,,,,,,,,,,,,,,,,,,,,,,,,,,,,,,,,,,,,,
,,,,,,,,2023-08-16_08h44.16.702,HF_wild_card,2022.2.4,Linux x86_64,60.0276127,5b2a2d855b5c0900018b0bf5,64d2fd46c836a06233681665,64dc7e2e77a80cefdd86de8e,,,,,,,ctch,resources/DG.BMP,resources/DBN.BMP,Door3,0.320224285,0.015309294,1,0,0,1.4583,optionRight,70,12410,6,4,0,4,0,1,,,,,,,,,,,,,,,,,,,,,,,,,,,,,,,,,,,,,,,
,,,,,,,,2023-08-16_08h44.16.702,HF_wild_card,2022.2.4,Linux x86_64,60.0276127,5b2a2d855b5c0900018b0bf5,64d2fd46c836a06233681665,64dc7e2e77a80cefdd86de8e,,,,,,,sngl,resources/DY.BMP,resources/Empty.png,WildCard_Ex,-0.274505575,-0.041700522,1,0,0,1.3983,optionLeft,55,12465,6,5,0,5,0,1,,,,,,,,,,,,,,,,,,,,,,,,,,,,,,,,,,,,,,,
,,,,,,,,2023-08-16_08h44.16.702,HF_wild_card,2022.2.4,Linux x86_64,60.0276127,5b2a2d855b5c0900018b0bf5,64d2fd46c836a06233681665,64dc7e2e77a80cefdd86de8e,,,,,,,decisionTrl,resources/DBN.BMP,resources/DY.BMP,Door3,-0.263858914,-0.119162679,1,0,0,1.56,optionLeft,70,12535,6,6,0,6,0,1,,,,,,,,,,,,,,,,,,,,,,,,,,,,,,,,,,,,,,,
,,,,,,,,2023-08-16_08h44.16.702,HF_wild_card,2022.2.4,Linux x86_64,60.0276127,5b2a2d855b5c0900018b0bf5,64d2fd46c836a06233681665,64dc7e2e77a80cefdd86de8e,,,,,,,sngl,resources/Empty.png,resources/DG.BMP,Door2,0.426265558,-0.031176329,1,0,0,1.3588,optionRight,40,12575,6,7,0,7,0,1,,,,,,,,,,,,,,,,,,,,,,,,,,,,,,,,,,,,,,,
,,,,,,,,2023-08-16_08h44.16.702,HF_wild_card,2022.2.4,Linux x86_64,60.0276127,5b2a2d855b5c0900018b0bf5,64d2fd46c836a06233681665,64dc7e2e77a80cefdd86de8e,,,,,,,sngl,resources/Empty.png,resources/DY.BMP,WildCard_Ex,0.373013337,0.023376266,1,0,0,1.3436,optionRight,55,12630,6,8,0,8,0,1,,,,,,,,,,,,,,,,,,,,,,,,,,,,,,,,,,,,,,,
,,,,,,,,2023-08-16_08h44.16.702,HF_wild_card,2022.2.4,Linux x86_64,60.0276127,5b2a2d855b5c0900018b0bf5,64d2fd46c836a06233681665,64dc7e2e77a80cefdd86de8e,,,,,,,ctch,resources/DG.BMP,resources/DBN.BMP,Door3,0.306366126,0.011013746,1,0,0,1.4736,optionRight,70,12700,6,9,0,9,0,1,,,,,,,,,,,,,,,,,,,,,,,,,,,,,,,,,,,,,,,
,,,,,,,,2023-08-16_08h44.16.702,HF_wild_card,2022.2.4,Linux x86_64,60.0276127,5b2a2d855b5c0900018b0bf5,64d2fd46c836a06233681665,64dc7e2e77a80cefdd86de8e,,,,,,,decisionTrl,resources/DBN.BMP,resources/DR.BMP,Door3,-0.240291198,-0.056262453,1,0,0,9.3962,optionLeft,70,12770,6,10,0,10,0,1,,,,,,,,,,,,,,,,,,,,,,,,,,,,,,,,,,,,,,,
,,,,,,,,2023-08-16_08h44.16.702,HF_wild_card,2022.2.4,Linux x86_64,60.0276127,5b2a2d855b5c0900018b0bf5,64d2fd46c836a06233681665,64dc7e2e77a80cefdd86de8e,,,,,,,decisionTrl,resources/DG.BMP,resources/DP.BMP,Door1,0.328689893,-0.030171434,1,0,0,14.4043,optionRight,30,12800,6,11,0,11,0,1,,,,,,,,,,,,,,,,,,,,,,,,,,,,,,,,,,,,,,,
,,,,,,,,2023-08-16_08h44.16.702,HF_wild_card,2022.2.4,Linux x86_64,60.0276127,5b2a2d855b5c0900018b0bf5,64d2fd46c836a06233681665,64dc7e2e77a80cefdd86de8e,,,,,,,ctch,resources/DP.BMP,resources/DR.BMP,Door4,0.280336698,0.005397201,1,0,0,2.8252,optionRight,60,12860,6,12,0,12,0,1,,,,,,,,,,,,,,,,,,,,,,,,,,,,,,,,,,,,,,,
,,,,,,,,2023-08-16_08h44.16.702,HF_wild_card,2022.2.4,Linux x86_64,60.0276127,5b2a2d855b5c0900018b0bf5,64d2fd46c836a06233681665,64dc7e2e77a80cefdd86de8e,,,,,,,decisionTrl,resources/DY.BMP,resources/DR.BMP,Door4,0.332243601,-0.016078075,1,0,0,5.2258,optionRight,80,12940,6,13,0,13,0,1,,,,,,,,,,,,,,,,,,,,,,,,,,,,,,,,,,,,,,,
,,,,,,,,2023-08-16_08h44.16.702,HF_wild_card,2022.2.4,Linux x86_64,60.0276127,5b2a2d855b5c0900018b0bf5,64d2fd46c836a06233681665,64dc7e2e77a80cefdd86de8e,,,,,,,decisionTrl,resources/DBN.BMP,resources/DR.BMP,Door3,-0.334468603,-0.095057011,1,0,0,2.7099,optionLeft,70,13010,6,14,0,14,0,1,,,,,,,,,,,,,,,,,,,,,,,,,,,,,,,,,,,,,,,
,,,,,,,,2023-08-16_08h44.16.702,HF_wild_card,2022.2.4,Linux x86_64,60.0276127,5b2a2d855b5c0900018b0bf5,64d2fd46c836a06233681665,64dc7e2e77a80cefdd86de8e,,,,,,,ctch,resources/DR.BMP,resources/DP.BMP,Door4,-0.220509609,-0.062128623,1,0,0,2.0265,optionLeft,80,13090,6,15,0,15,0,1,,,,,,,,,,,,,,,,,,,,,,,,,,,,,,,,,,,,,,,
,,,,,,,,2023-08-16_08h44.16.702,HF_wild_card,2022.2.4,Linux x86_64,60.0276127,5b2a2d855b5c0900018b0bf5,64d2fd46c836a06233681665,64dc7e2e77a80cefdd86de8e,,,,,,,decisionTrl,resources/DBN.BMP,resources/DR.BMP,Door3,-0.322381258,-0.021585266,1,0,0,1.7758,optionLeft,70,13160,6,16,0,16,0,1,,,,,,,,,,,,,,,,,,,,,,,,,,,,,,,,,,,,,,,
,,,,,,,,2023-08-16_08h44.16.702,HF_wild_card,2022.2.4,Linux x86_64,60.0276127,5b2a2d855b5c0900018b0bf5,64d2fd46c836a06233681665,64dc7e2e77a80cefdd86de8e,,,,,,,decisionTrl,resources/DR.BMP,resources/DBN.BMP,Door3,0.475297292,-0.038216949,1,0,0,1.6424,optionRight,70,13230,6,17,0,17,0,1,,,,,,,,,,,,,,,,,,,,,,,,,,,,,,,,,,,,,,,
,,,,,,,,2023-08-16_08h44.16.702,HF_wild_card,2022.2.4,Linux x86_64,60.0276127,5b2a2d855b5c0900018b0bf5,64d2fd46c836a06233681665,64dc7e2e77a80cefdd86de8e,,,,,,,decisionTrl,resources/DP.BMP,resources/DG.BMP,Door1,-0.269890269,-0.044317762,1,0,0,6.0129,optionLeft,30,13260,6,18,0,18,0,1,,,,,,,,,,,,,,,,,,,,,,,,,,,,,,,,,,,,,,,
,,,,,,,,2023-08-16_08h44.16.702,HF_wild_card,2022.2.4,Linux x86_64,60.0276127,5b2a2d855b5c0900018b0bf5,64d2fd46c836a06233681665,64dc7e2e77a80cefdd86de8e,,,,,,,decisionTrl,resources/DP.BMP,resources/DY.BMP,WildCard_Ex,0.355086883,-0.029346387,1,0,0,2.8591,optionRight,45,13305,6,19,0,19,0,1,,,,,,,,,,,,,,,,,,,,,,,,,,,,,,,,,,,,,,,
,,,,,,,,2023-08-16_08h44.16.702,HF_wild_card,2022.2.4,Linux x86_64,60.0276127,5b2a2d855b5c0900018b0bf5,64d2fd46c836a06233681665,64dc7e2e77a80cefdd86de8e,,,,,,,sngl,resources/Empty.png,resources/DBN.BMP,Door3,0.334310691,0.001248678,1,0,0,5.8557,optionRight,70,13375,6,20,0,20,0,1,,,,,,,,,,,,,,,,,,,,,,,,,,,,,,,,,,,,,,,
,,,,,,,,2023-08-16_08h44.16.702,HF_wild_card,2022.2.4,Linux x86_64,60.0276127,5b2a2d855b5c0900018b0bf5,64d2fd46c836a06233681665,64dc7e2e77a80cefdd86de8e,,,,,,,ctch,resources/DR.BMP,resources/DP.BMP,Door4,-0.306922118,-0.109911283,1,0,0,1.8804,optionLeft,60,13435,6,21,0,21,0,1,,,,,,,,,,,,,,,,,,,,,,,,,,,,,,,,,,,,,,,
,,,,,,,,2023-08-16_08h44.16.702,HF_wild_card,2022.2.4,Linux x86_64,60.0276127,5b2a2d855b5c0900018b0bf5,64d2fd46c836a06233681665,64dc7e2e77a80cefdd86de8e,,,,,,,sngl,resources/Empty.png,resources/DR.BMP,Door4,0.475415866,0.010140856,1,0,0,1.0651,optionRight,80,13515,6,22,0,22,0,1,,,,,,,,,,,,,,,,,,,,,,,,,,,,,,,,,,,,,,,
,,,,,,,,2023-08-16_08h44.16.702,HF_wild_card,2022.2.4,Linux x86_64,60.0276127,5b2a2d855b5c0900018b0bf5,64d2fd46c836a06233681665,64dc7e2e77a80cefdd86de8e,,,,,,,decisionTrl,resources/DG.BMP,resources/DP.BMP,Door1,0.297206084,-0.039776683,1,0,0,1.5328,optionRight,30,13545,6,23,0,23,0,1,,,,,,,,,,,,,,,,,,,,,,,,,,,,,,,,,,,,,,,
,,,,,,,,2023-08-16_08h44.16.702,HF_wild_card,2022.2.4,Linux x86_64,60.0276127,5b2a2d855b5c0900018b0bf5,64d2fd46c836a06233681665,64dc7e2e77a80cefdd86de8e,,,,,,,ctch,resources/DP.BMP,resources/DR.BMP,Door4,0.299984296,-0.0004433,1,0,0,5.5762,optionRight,80,13625,6,24,0,24,0,1,,,,,,,,,,,,,,,,,,,,,,,,,,,,,,,,,,,,,,,
,,,,,,,,2023-08-16_08h44.16.702,HF_wild_card,2022.2.4,Linux x86_64,60.0276127,5b2a2d855b5c0900018b0bf5,64d2fd46c836a06233681665,64dc7e2e77a80cefdd86de8e,,,,,,,decisionTrl,resources/DG.BMP,resources/DP.BMP,Door1,0.355085611,-0.098403096,1,0,0,1.2973,optionRight,30,13655,6,25,0,25,0,1,,,,,,,,,,,,,,,,,,,,,,,,,,,,,,,,,,,,,,,
,,,,,,,,2023-08-16_08h44.16.702,HF_wild_card,2022.2.4,Linux x86_64,60.0276127,5b2a2d855b5c0900018b0bf5,64d2fd46c836a06233681665,64dc7e2e77a80cefdd86de8e,,,,,,,decisionTrl,resources/DBN.BMP,resources/DR.BMP,Door3,-0.301083366,-0.007344365,1,0,0,1.5824,optionLeft,70,13725,6,26,0,26,0,1,,,,,,,,,,,,,,,,,,,,,,,,,,,,,,,,,,,,,,,
,,,,,,,,2023-08-16_08h44.16.702,HF_wild_card,2022.2.4,Linux x86_64,60.0276127,5b2a2d855b5c0900018b0bf5,64d2fd46c836a06233681665,64dc7e2e77a80cefdd86de8e,,,,,,,sngl,resources/Empty.png,resources/DY.BMP,WildCard_Ex,0.271792014,-0.016782562,1,0,0,1.2776,optionRight,45,13770,6,27,0,27,0,1,,,,,,,,,,,,,,,,,,,,,,,,,,,,,,,,,,,,,,,
,,,,,,,,2023-08-16_08h44.16.702,HF_wild_card,2022.2.4,Linux x86_64,60.0276127,5b2a2d855b5c0900018b0bf5,64d2fd46c836a06233681665,64dc7e2e77a80cefdd86de8e,,,,,,,decisionTrl,resources/DG.BMP,resources/DY.BMP,WildCard_Ex,0.39846913,-0.06958278,1,0,0,1.7427,optionRight,55,13825,6,28,0,28,0,1,,,,,,,,,,,,,,,,,,,,,,,,,,,,,,,,,,,,,,,
,,,,,,,,2023-08-16_08h44.16.702,HF_wild_card,2022.2.4,Linux x86_64,60.0276127,5b2a2d855b5c0900018b0bf5,64d2fd46c836a06233681665,64dc7e2e77a80cefdd86de8e,,,,,,,decisionTrl,resources/DR.BMP,resources/DBN.BMP,Door4,-0.218241692,-0.038587093,1,0,0,3.4279,optionLeft,60,13885,6,29,0,29,0,1,,,,,,,,,,,,,,,,,,,,,,,,,,,,,,,,,,,,,,,
,,,,,,,,2023-08-16_08h44.16.702,HF_wild_card,2022.2.4,Linux x86_64,60.0276127,5b2a2d855b5c0900018b0bf5,64d2fd46c836a06233681665,64dc7e2e77a80cefdd86de8e,,,,,,,sngl,resources/DP.BMP,resources/Empty.png,Door1,-0.34185195,-0.049064517,1,0,0,1.1086,optionLeft,30,13915,6,30,0,30,0,1,,,,,,,,,,,,,,,,,,,,,,,,,,,,,,,,,,,,,,,
,,,,,,,,2023-08-16_08h44.16.702,HF_wild_card,2022.2.4,Linux x86_64,60.0276127,5b2a2d855b5c0900018b0bf5,64d2fd46c836a06233681665,64dc7e2e77a80cefdd86de8e,,,,,,,ctch,resources/DBN.BMP,resources/DG.BMP,Door3,-0.377233505,-0.0556434,1,0,0,1.6262,optionLeft,70,13985,6,31,0,31,0,1,,,,,,,,,,,,,,,,,,,,,,,,,,,,,,,,,,,,,,,
,,,,,,,,2023-08-16_08h44.16.702,HF_wild_card,2022.2.4,Linux x86_64,60.0276127,5b2a2d855b5c0900018b0bf5,64d2fd46c836a06233681665,64dc7e2e77a80cefdd86de8e,,,,,,,decisionTrl,resources/DR.BMP,resources/DBN.BMP,Door3,0.386674802,0.024273912,1,0,0,1.1764,optionRight,70,14055,6,32,0,32,0,1,,,,,,,,,,,,,,,,,,,,,,,,,,,,,,,,,,,,,,,
,,,,,,,,2023-08-16_08h44.16.702,HF_wild_card,2022.2.4,Linux x86_64,60.0276127,5b2a2d855b5c0900018b0bf5,64d2fd46c836a06233681665,64dc7e2e77a80cefdd86de8e,,,,,,,decisionTrl,resources/DG.BMP,resources/DP.BMP,Door1,0.394410213,-0.070054094,1,0,0,2.4583,optionRight,30,14085,6,33,0,33,0,1,,,,,,,,,,,,,,,,,,,,,,,,,,,,,,,,,,,,,,,
,,,,,,,,2023-08-16_08h44.16.702,HF_wild_card,2022.2.4,Linux x86_64,60.0276127,5b2a2d855b5c0900018b0bf5,64d2fd46c836a06233681665,64dc7e2e77a80cefdd86de8e,,,,,,,decisionTrl,resources/DR.BMP,resources/DY.BMP,Door4,-0.35817349,-0.062071284,1,0,0,2.0262,optionLeft,80,14165,6,34,0,34,0,1,,,,,,,,,,,,,,,,,,,,,,,,,,,,,,,,,,,,,,,
,,,,,,,,2023-08-16_08h44.16.702,HF_wild_card,2022.2.4,Linux x86_64,60.0276127,5b2a2d855b5c0900018b0bf5,64d2fd46c836a06233681665,64dc7e2e77a80cefdd86de8e,,,,,,,decisionTrl,resources/DY.BMP,resources/DP.BMP,WildCard_Ex,-0.183345238,-0.026911139,1,0,0,2.2405,optionLeft,45,14210,6,35,0,35,0,1,,,,,,,,,,,,,,,,,,,,,,,,,,,,,,,,,,,,,,,
,,,,,,,,2023-08-16_08h44.16.702,HF_wild_card,2022.2.4,Linux x86_64,60.0276127,5b2a2d855b5c0900018b0bf5,64d2fd46c836a06233681665,64dc7e2e77a80cefdd86de8e,,,,,,,sngl,resources/DR.BMP,resources/Empty.png,Door4,-0.340324918,-0.053255955,1,0,0,0.9255,optionLeft,60,14270,6,36,0,36,0,1,,,,,,,,,,,,,,,,,,,,,,,,,,,,,,,,,,,,,,,
,,,,,,,,2023-08-16_08h44.16.702,HF_wild_card,2022.2.4,Linux x86_64,60.0276127,5b2a2d855b5c0900018b0bf5,64d2fd46c836a06233681665,64dc7e2e77a80cefdd86de8e,,,,,,,sngl,resources/DG.BMP,resources/Empty.png,Door2,-0.366079132,-0.05733029,1,0,0,1.0609,optionLeft,20,14290,6,37,0,37,0,1,,,,,,,,,,,,,,,,,,,,,,,,,,,,,,,,,,,,,,,
,,,,,,,,2023-08-16_08h44.16.702,HF_wild_card,2022.2.4,Linux x86_64,60.0276127,5b2a2d855b5c0900018b0bf5,64d2fd46c836a06233681665,64dc7e2e77a80cefdd86de8e,,,,,,,sngl,resources/DY.BMP,resources/Empty.png,WildCard_Ex,-0.328228871,-0.048971613,1,0,0,0.9109,optionLeft,45,14335,6,38,0,38,0,1,,,,,,,,,,,,,,,,,,,,,,,,,,,,,,,,,,,,,,,
,,,,,,,,2023-08-16_08h44.16.702,HF_wild_card,2022.2.4,Linux x86_64,60.0276127,5b2a2d855b5c0900018b0bf5,64d2fd46c836a06233681665,64dc7e2e77a80cefdd86de8e,,,,,,,decisionTrl,resources/DP.BMP,resources/DG.BMP,Door1,-0.22566692,-0.072811325,1,0,0,2.0583,optionLeft,30,14365,6,39,0,39,0,1,,,,,,,,,,,,,,,,,,,,,,,,,,,,,,,,,,,,,,,
,,,,,,,,2023-08-16_08h44.16.702,HF_wild_card,2022.2.4,Linux x86_64,60.0276127,5b2a2d855b5c0900018b0bf5,64d2fd46c836a06233681665,64dc7e2e77a80cefdd86de8e,,,,,,,sngl,resources/DBN.BMP,resources/Empty.png,Door3,-0.396043698,-0.027888974,1,0,0,1.1425,optionLeft,70,14435,6,40,0,40,0,1,,,,,,,,,,,,,,,,,,,,,,,,,,,,,,,,,,,,,,,
,,,,,,,,2023-08-16_08h44.16.702,HF_wild_card,2022.2.4,Linux x86_64,60.0276127,5b2a2d855b5c0900018b0bf5,64d2fd46c836a06233681665,64dc7e2e77a80cefdd86de8e,,,,,,,ctch,resources/DBN.BMP,resources/DG.BMP,Door3,-0.34378171,-0.092054605,1,0,0,1.3095,optionLeft,70,14505,6,41,0,41,0,1,,,,,,,,,,,,,,,,,,,,,,,,,,,,,,,,,,,,,,,
,,,,,,,,2023-08-16_08h44.16.702,HF_wild_card,2022.2.4,Linux x86_64,60.0276127,5b2a2d855b5c0900018b0bf5,64d2fd46c836a06233681665,64dc7e2e77a80cefdd86de8e,,,,,,,decisionTrl,resources/DY.BMP,resources/DG.BMP,WildCard_Ex,-0.220255534,-0.056102673,1,0,0,1.2762,optionLeft,55,14560,6,42,0,42,0,1,,,,,,,,,,,,,,,,,,,,,,,,,,,,,,,,,,,,,,,
,,,,,,,,2023-08-16_08h44.16.702,HF_wild_card,2022.2.4,Linux x86_64,60.0276127,5b2a2d855b5c0900018b0bf5,64d2fd46c836a06233681665,64dc7e2e77a80cefdd86de8e,,,,,,,sngl,resources/Empty.png,resources/DP.BMP,Door1,0.427503506,-0.04371806,1,0,0,1.2262,optionRight,30,14590,6,43,0,43,0,1,,,,,,,,,,,,,,,,,,,,,,,,,,,,,,,,,,,,,,,
,,,,,,,,2023-08-16_08h44.16.702,HF_wild_card,2022.2.4,Linux x86_64,60.0276127,5b2a2d855b5c0900018b0bf5,64d2fd46c836a06233681665,64dc7e2e77a80cefdd86de8e,,,,,,,,,,,,,,,,,,,,,,,,,,5,0,5,0,1,,,,,,,,,,,,,,,,,,,,,,,,,,,,,,,,,,
,,,,,,,,2023-08-16_08h44.16.702,HF_wild_card,2022.2.4,Linux x86_64,60.0276127,5b2a2d855b5c0900018b0bf5,64d2fd46c836a06233681665,64dc7e2e77a80cefdd86de8e,,,,,,,decisionTrl,resources/DG.BMP,resources/DP.BMP,Door1,0.235611677,-0.131320715,1,0,0,2.0282,optionRight,30,14620,7,0,0,0,0,1,,,,,,,,,,,,,,,,,,,,,,,,,,,,,,,,,,,,,,,
,,,,,,,,2023-08-16_08h44.16.702,HF_wild_card,2022.2.4,Linux x86_64,60.0276127,5b2a2d855b5c0900018b0bf5,64d2fd46c836a06233681665,64dc7e2e77a80cefdd86de8e,,,,,,,decisionTrl,resources/DG.BMP,resources/DP.BMP,Door1,0.380453904,-0.009099682,1,0,0,1.1455,optionRight,30,14650,7,1,0,1,0,1,,,,,,,,,,,,,,,,,,,,,,,,,,,,,,,,,,,,,,,
,,,,,,,,2023-08-16_08h44.16.702,HF_wild_card,2022.2.4,Linux x86_64,60.0276127,5b2a2d855b5c0900018b0bf5,64d2fd46c836a06233681665,64dc7e2e77a80cefdd86de8e,,,,,,,decisionTrl,resources/DG.BMP,resources/DP.BMP,Door1,0.412516117,0.023645322,1,0,0,1.0146,optionRight,30,14680,7,2,0,2,0,1,,,,,,,,,,,,,,,,,,,,,,,,,,,,,,,,,,,,,,,
,,,,,,,,2023-08-16_08h44.16.702,HF_wild_card,2022.2.4,Linux x86_64,60.0276127,5b2a2d855b5c0900018b0bf5,64d2fd46c836a06233681665,64dc7e2e77a80cefdd86de8e,,,,,,,ctch,resources/DP.BMP,resources/DR.BMP,Door4,0.377291123,0.00751694,1,0,0,1.2784,optionRight,60,14740,7,3,0,3,0,1,,,,,,,,,,,,,,,,,,,,,,,,,,,,,,,,,,,,,,,
,,,,,,,,2023-08-16_08h44.16.702,HF_wild_card,2022.2.4,Linux x86_64,60.0276127,5b2a2d855b5c0900018b0bf5,64d2fd46c836a06233681665,64dc7e2e77a80cefdd86de8e,,,,,,,decisionTrl,resources/DBN.BMP,resources/DR.BMP,Door3,-0.231571714,-0.004302939,1,0,0,1.0302,optionLeft,70,14810,7,4,0,4,0,1,,,,,,,,,,,,,,,,,,,,,,,,,,,,,,,,,,,,,,,
,,,,,,,,2023-08-16_08h44.16.702,HF_wild_card,2022.2.4,Linux x86_64,60.0276127,5b2a2d855b5c0900018b0bf5,64d2fd46c836a06233681665,64dc7e2e77a80cefdd86de8e,,,,,,,decisionTrl,resources/DR.BMP,resources/DBN.BMP,Door3,0.489623229,0.00273037,1,0,0,1.1766,optionRight,70,14880,7,5,0,5,0,1,,,,,,,,,,,,,,,,,,,,,,,,,,,,,,,,,,,,,,,
,,,,,,,,2023-08-16_08h44.16.702,HF_wild_card,2022.2.4,Linux x86_64,60.0276127,5b2a2d855b5c0900018b0bf5,64d2fd46c836a06233681665,64dc7e2e77a80cefdd86de8e,,,,,,,ctch,resources/DP.BMP,resources/DR.BMP,Door4,0.223740339,-0.020021955,1,0,0,1.6442,optionRight,60,14940,7,6,0,6,0,1,,,,,,,,,,,,,,,,,,,,,,,,,,,,,,,,,,,,,,,
,,,,,,,,2023-08-16_08h44.16.702,HF_wild_card,2022.2.4,Linux x86_64,60.0276127,5b2a2d855b5c0900018b0bf5,64d2fd46c836a06233681665,64dc7e2e77a80cefdd86de8e,,,,,,,decisionTrl,resources/DG.BMP,resources/DP.BMP,Door1,0.305994829,-0.023632765,1,0,0,1.6951,optionRight,30,14970,7,7,0,7,0,1,,,,,,,,,,,,,,,,,,,,,,,,,,,,,,,,,,,,,,,
,,,,,,,,2023-08-16_08h44.16.702,HF_wild_card,2022.2.4,Linux x86_64,60.0276127,5b2a2d855b5c0900018b0bf5,64d2fd46c836a06233681665,64dc7e2e77a80cefdd86de8e,,,,,,,decisionTrl,resources/DBN.BMP,resources/DR.BMP,Door3,-0.302687009,0.001076063,1,0,0,1.4794,optionLeft,70,15040,7,8,0,8,0,1,,,,,,,,,,,,,,,,,,,,,,,,,,,,,,,,,,,,,,,
,,,,,,,,2023-08-16_08h44.16.702,HF_wild_card,2022.2.4,Linux x86_64,60.0276127,5b2a2d855b5c0900018b0bf5,64d2fd46c836a06233681665,64dc7e2e77a80cefdd86de8e,,,,,,,decisionTrl,resources/DR.BMP,resources/DBN.BMP,Door3,0.40772748,-0.01612095,1,0,0,1.6619,optionRight,70,15110,7,9,0,9,0,1,,,,,,,,,,,,,,,,,,,,,,,,,,,,,,,,,,,,,,,
,,,,,,,,2023-08-16_08h44.16.702,HF_wild_card,2022.2.4,Linux x86_64,60.0276127,5b2a2d855b5c0900018b0bf5,64d2fd46c836a06233681665,64dc7e2e77a80cefdd86de8e,,,,,,,ctch,resources/DBN.BMP,resources/DG.BMP,Door3,-0.302632928,-0.005265276,1,0,0,1.1952,optionLeft,70,15180,7,10,0,10,0,1,,,,,,,,,,,,,,,,,,,,,,,,,,,,,,,,,,,,,,,
,,,,,,,,2023-08-16_08h44.16.702,HF_wild_card,2022.2.4,Linux x86_64,60.0276127,5b2a2d855b5c0900018b0bf5,64d2fd46c836a06233681665,64dc7e2e77a80cefdd86de8e,,,,,,,ctch,resources/DG.BMP,resources/DBN.BMP,Door3,0.292951504,-0.026137948,1,0,0,1.0618,optionRight,70,15250,7,11,0,11,0,1,,,,,,,,,,,,,,,,,,,,,,,,,,,,,,,,,,,,,,,
,,,,,,,,2023-08-16_08h44.16.702,HF_wild_card,2022.2.4,Linux x86_64,60.0276127,5b2a2d855b5c0900018b0bf5,64d2fd46c836a06233681665,64dc7e2e77a80cefdd86de8e,,,,,,,ctch,resources/DR.BMP,resources/DP.BMP,Door4,-0.338564555,-0.049971263,1,0,0,1.3288,optionLeft,80,15330,7,12,0,12,0,1,,,,,,,,,,,,,,,,,,,,,,,,,,,,,,,,,,,,,,,
,,,,,,,,2023-08-16_08h44.16.702,HF_wild_card,2022.2.4,Linux x86_64,60.0276127,5b2a2d855b5c0900018b0bf5,64d2fd46c836a06233681665,64dc7e2e77a80cefdd86de8e,,,,,,,decisionTrl,resources/DP.BMP,resources/DG.BMP,Door1,-0.354898612,-0.086997151,1,0,0,1.4466,optionLeft,30,15360,7,13,0,13,0,1,,,,,,,,,,,,,,,,,,,,,,,,,,,,,,,,,,,,,,,
,,,,,,,,2023-08-16_08h44.16.702,HF_wild_card,2022.2.4,Linux x86_64,60.0276127,5b2a2d855b5c0900018b0bf5,64d2fd46c836a06233681665,64dc7e2e77a80cefdd86de8e,,,,,,,decisionTrl,resources/DBN.BMP,resources/DR.BMP,Door3,-0.290572445,-0.056820273,1,0,0,1.4803,optionLeft,70,15430,7,14,0,14,0,1,,,,,,,,,,,,,,,,,,,,,,,,,,,,,,,,,,,,,,,
,,,,,,,,2023-08-16_08h44.16.702,HF_wild_card,2022.2.4,Linux x86_64,60.0276127,5b2a2d855b5c0900018b0bf5,64d2fd46c836a06233681665,64dc7e2e77a80cefdd86de8e,,,,,,,decisionTrl,resources/DBN.BMP,resources/DR.BMP,Door3,-0.36007913,-0.017006516,1,0,0,1.0589,optionLeft,70,15500,7,15,0,15,0,1,,,,,,,,,,,,,,,,,,,,,,,,,,,,,,,,,,,,,,,
,,,,,,,,2023-08-16_08h44.16.702,HF_wild_card,2022.2.4,Linux x86_64,60.0276127,5b2a2d855b5c0900018b0bf5,64d2fd46c836a06233681665,64dc7e2e77a80cefdd86de8e,,,,,,,ctch,resources/DBN.BMP,resources/DG.BMP,Door3,-0.399352908,-0.021201134,1,0,0,1.0119,optionLeft,70,15570,7,16,0,16,0,1,,,,,,,,,,,,,,,,,,,,,,,,,,,,,,,,,,,,,,,
,,,,,,,,2023-08-16_08h44.16.702,HF_wild_card,2022.2.4,Linux x86_64,60.0276127,5b2a2d855b5c0900018b0bf5,64d2fd46c836a06233681665,64dc7e2e77a80cefdd86de8e,,,,,,,decisionTrl,resources/DP.BMP,resources/DG.BMP,Door1,-0.299940546,-0.088059505,1,0,0,1.3,optionLeft,30,15600,7,17,0,17,0,1,,,,,,,,,,,,,,,,,,,,,,,,,,,,,,,,,,,,,,,
,,,,,,,,2023-08-16_08h44.16.702,HF_wild_card,2022.2.4,Linux x86_64,60.0276127,5b2a2d855b5c0900018b0bf5,64d2fd46c836a06233681665,64dc7e2e77a80cefdd86de8e,,,,,,,decisionTrl,resources/DBN.BMP,resources/DR.BMP,Door3,-0.342108289,-0.044182102,1,0,0,1.1118,optionLeft,70,15670,7,18,0,18,0,1,,,,,,,,,,,,,,,,,,,,,,,,,,,,,,,,,,,,,,,
,,,,,,,,2023-08-16_08h44.16.702,HF_wild_card,2022.2.4,Linux x86_64,60.0276127,5b2a2d855b5c0900018b0bf5,64d2fd46c836a06233681665,64dc7e2e77a80cefdd86de8e,,,,,,,decisionTrl,resources/DP.BMP,resources/DG.BMP,Door1,-0.379452785,-0.082206051,1,0,0,1.661,optionLeft,30,15700,7,19,0,19,0,1,,,,,,,,,,,,,,,,,,,,,,,,,,,,,,,,,,,,,,,
,,,,,,,,2023-08-16_08h44.16.702,HF_wild_card,2022.2.4,Linux x86_64,60.0276127,5b2a2d855b5c0900018b0bf5,64d2fd46c836a06233681665,64dc7e2e77a80cefdd86de8e,,,,,,,ctch,resources/DBN.BMP,resources/DG.BMP,Door3,-0.284632961,-0.044656912,1,0,0,0.9139,optionLeft,70,15770,7,20,0,20,0,1,,,,,,,,,,,,,,,,,,,,,,,,,,,,,,,,,,,,,,,
,,,,,,,,2023-08-16_08h44.16.702,HF_wild_card,2022.2.4,Linux x86_64,60.0276127,5b2a2d855b5c0900018b0bf5,64d2fd46c836a06233681665,64dc7e2e77a80cefdd86de8e,,,,,,,decisionTrl,resources/DP.BMP,resources/DG.BMP,Door1,-0.361439466,-0.085356236,1,0,0,0.9453,optionLeft,30,15800,7,21,0,21,0,1,,,,,,,,,,,,,,,,,,,,,,,,,,,,,,,,,,,,,,,
,,,,,,,,2023-08-16_08h44.16.702,HF_wild_card,2022.2.4,Linux x86_64,60.0276127,5b2a2d855b5c0900018b0bf5,64d2fd46c836a06233681665,64dc7e2e77a80cefdd86de8e,,,,,,,ctch,resources/DG.BMP,resources/DBN.BMP,Door3,0.372192542,0.036474427,1,0,0,1.2472,optionRight,70,15870,7,22,0,22,0,1,,,,,,,,,,,,,,,,,,,,,,,,,,,,,,,,,,,,,,,
,,,,,,,,2023-08-16_08h44.16.702,HF_wild_card,2022.2.4,Linux x86_64,60.0276127,5b2a2d855b5c0900018b0bf5,64d2fd46c836a06233681665,64dc7e2e77a80cefdd86de8e,,,,,,,ctch,resources/DG.BMP,resources/DBN.BMP,Door3,0.336158196,0.028022647,1,0,0,1.0299,optionRight,70,15940,7,23,0,23,0,1,,,,,,,,,,,,,,,,,,,,,,,,,,,,,,,,,,,,,,,
,,,,,,,,2023-08-16_08h44.16.702,HF_wild_card,2022.2.4,Linux x86_64,60.0276127,5b2a2d855b5c0900018b0bf5,64d2fd46c836a06233681665,64dc7e2e77a80cefdd86de8e,,,,,,,decisionTrl,resources/DBN.BMP,resources/DR.BMP,Door3,-0.346458832,-0.046284755,1,0,0,1.1297,optionLeft,70,16010,7,24,0,24,0,1,,,,,,,,,,,,,,,,,,,,,,,,,,,,,,,,,,,,,,,
,,,,,,,,2023-08-16_08h44.16.702,HF_wild_card,2022.2.4,Linux x86_64,60.0276127,5b2a2d855b5c0900018b0bf5,64d2fd46c836a06233681665,64dc7e2e77a80cefdd86de8e,,,,,,,ctch,resources/DP.BMP,resources/DR.BMP,Door4,0.424093008,-0.021829526,1,0,0,1.3131,optionRight,80,16090,7,25,0,25,0,1,,,,,,,,,,,,,,,,,,,,,,,,,,,,,,,,,,,,,,,
,,,,,,,,2023-08-16_08h44.16.702,HF_wild_card,2022.2.4,Linux x86_64,60.0276127,5b2a2d855b5c0900018b0bf5,64d2fd46c836a06233681665,64dc7e2e77a80cefdd86de8e,,,,,,,decisionTrl,resources/DP.BMP,resources/DG.BMP,Door1,-0.387108326,-0.090131958,1,0,0,2.6268,optionLeft,30,16120,7,26,0,26,0,1,,,,,,,,,,,,,,,,,,,,,,,,,,,,,,,,,,,,,,,
,,,,,,,,2023-08-16_08h44.16.702,HF_wild_card,2022.2.4,Linux x86_64,60.0276127,5b2a2d855b5c0900018b0bf5,64d2fd46c836a06233681665,64dc7e2e77a80cefdd86de8e,,,,,,,decisionTrl,resources/DR.BMP,resources/DBN.BMP,Door3,0.440908829,0.013711532,1,0,0,2.0785,optionRight,70,16190,7,27,0,27,0,1,,,,,,,,,,,,,,,,,,,,,,,,,,,,,,,,,,,,,,,
,,,,,,,,2023-08-16_08h44.16.702,HF_wild_card,2022.2.4,Linux x86_64,60.0276127,5b2a2d855b5c0900018b0bf5,64d2fd46c836a06233681665,64dc7e2e77a80cefdd86de8e,,,,,,,ctch,resources/DR.BMP,resources/DP.BMP,Door4,-0.297605793,-0.02036798,1,0,0,0.9468,optionLeft,80,16270,7,28,0,28,0,1,,,,,,,,,,,,,,,,,,,,,,,,,,,,,,,,,,,,,,,
,,,,,,,,2023-08-16_08h44.16.702,HF_wild_card,2022.2.4,Linux x86_64,60.0276127,5b2a2d855b5c0900018b0bf5,64d2fd46c836a06233681665,64dc7e2e77a80cefdd86de8e,,,,,,,decisionTrl,resources/DG.BMP,resources/DP.BMP,Door1,0.377407789,-0.029481371,1,0,0,1.1792,optionRight,30,16300,7,29,0,29,0,1,,,,,,,,,,,,,,,,,,,,,,,,,,,,,,,,,,,,,,,
,,,,,,,,2023-08-16_08h44.16.702,HF_wild_card,2022.2.4,Linux x86_64,60.0276127,5b2a2d855b5c0900018b0bf5,64d2fd46c836a06233681665,64dc7e2e77a80cefdd86de8e,,,,,,,decisionTrl,resources/DG.BMP,resources/DP.BMP,Door1,0.29777662,-0.027365247,1,0,0,1.0971,optionRight,30,16330,7,30,0,30,0,1,,,,,,,,,,,,,,,,,,,,,,,,,,,,,,,,,,,,,,,
,,,,,,,,2023-08-16_08h44.16.702,HF_wild_card,2022.2.4,Linux x86_64,60.0276127,5b2a2d855b5c0900018b0bf5,64d2fd46c836a06233681665,64dc7e2e77a80cefdd86de8e,,,,,,,decisionTrl,resources/DR.BMP,resources/DBN.BMP,Door3,0.33845377,-0.009365519,1,0,0,1.5443,optionRight,70,16400,7,31,0,31,0,1,,,,,,,,,,,,,,,,,,,,,,,,,,,,,,,,,,,,,,,
,,,,,,,,2023-08-16_08h44.16.702,HF_wild_card,2022.2.4,Linux x86_64,60.0276127,5b2a2d855b5c0900018b0bf5,64d2fd46c836a06233681665,64dc7e2e77a80cefdd86de8e,,,,,,,decisionTrl,resources/DR.BMP,resources/DBN.BMP,Door3,0.40732042,-0.028035204,1,0,0,1.1517,optionRight,70,16470,7,32,0,32,0,1,,,,,,,,,,,,,,,,,,,,,,,,,,,,,,,,,,,,,,,
,,,,,,,,2023-08-16_08h44.16.702,HF_wild_card,2022.2.4,Linux x86_64,60.0276127,5b2a2d855b5c0900018b0bf5,64d2fd46c836a06233681665,64dc7e2e77a80cefdd86de8e,,,,,,,decisionTrl,resources/DP.BMP,resources/DG.BMP,Door1,-0.391087294,-0.082502206,1,0,0,1.3495,optionLeft,30,16500,7,33,0,33,0,1,,,,,,,,,,,,,,,,,,,,,,,,,,,,,,,,,,,,,,,
,,,,,,,,2023-08-16_08h44.16.702,HF_wild_card,2022.2.4,Linux x86_64,60.0276127,5b2a2d855b5c0900018b0bf5,64d2fd46c836a06233681665,64dc7e2e77a80cefdd86de8e,,,,,,,ctch,resources/DR.BMP,resources/DP.BMP,Door4,-0.344135205,-0.106693864,1,0,0,1.5629,optionLeft,80,16580,7,34,0,34,0,1,,,,,,,,,,,,,,,,,,,,,,,,,,,,,,,,,,,,,,,
,,,,,,,,2023-08-16_08h44.16.702,HF_wild_card,2022.2.4,Linux x86_64,60.0276127,5b2a2d855b5c0900018b0bf5,64d2fd46c836a06233681665,64dc7e2e77a80cefdd86de8e,,,,,,,decisionTrl,resources/DR.BMP,resources/DBN.BMP,Door3,0.455822309,-0.016213616,1,0,0,1.3314,optionRight,70,16650,7,35,0,35,0,1,,,,,,,,,,,,,,,,,,,,,,,,,,,,,,,,,,,,,,,
,,,,,,,,2023-08-16_08h44.16.702,HF_wild_card,2022.2.4,Linux x86_64,60.0276127,5b2a2d855b5c0900018b0bf5,64d2fd46c836a06233681665,64dc7e2e77a80cefdd86de8e,,,,,,,,,,,,,,,,,,,,,,,,,,6,0,6,0,1,,,,,,,,,,,,,,,,,,,,,,,,,,,,,,,,,,
,,,,,,,,2023-08-16_08h44.16.702,HF_wild_card,2022.2.4,Linux x86_64,60.0276127,5b2a2d855b5c0900018b0bf5,64d2fd46c836a06233681665,64dc7e2e77a80cefdd86de8e,,,,,,,,,,,,,,,,,,,,,,,,,,,,,,,4,,,,,,,,,,,,,,,,,,,,,,,,,,,,,,,,,
