Condition,Low fixed image (Door1),Low risky image (Door2),High fixed image (Door3),High risky image (Door4),Extreme Wild Card,NonExtreme Wild Card,,date,expName,psychopyVersion,OS,frameRate,PROLIFIC_PID,STUDY_ID,SESSION_ID,mouse_2.x,mouse_2.y,mouse_2.leftButton,mouse_2.midButton,mouse_2.rightButton,mouse_2.clicked_name,Trial Type,Left Option Image,Right Option Image,Chosen Door,mouse.x,mouse.y,mouse.leftButton,mouse.midButton,mouse.rightButton,mouse.time,mouse.clicked_name,Feedback,Cumulative Reward,Block,trial.thisRepN,trial.thisTrialN,trial.thisN,trial.thisIndex,trial.ran,blocks.thisRepN,blocks.thisTrialN,blocks.thisN,blocks.thisIndex,blocks.ran,Money conversion,First Outcome Reported,Shown Door (First Outcome),Displayed Image (First Outcome),outcomes.thisRepN,outcomes.thisTrialN,outcomes.thisN,outcomes.thisIndex,outcomes.ran,judgments.thisRepN,judgments.thisTrialN,judgments.thisN,judgments.thisIndex,judgments.ran,freqMouse.x,freqMouse.y,freqMouse.leftButton,freqMouse.midButton,freqMouse.rightButton,freqMouse.clicked_name,FQJ for first outcome,FQJ for second outcome,Shown Door,Displayed Image,trials.thisRepN,trials.thisTrialN,trials.thisN,trials.thisIndex,trials.ran,judgBlock.thisRepN,judgBlock.thisTrialN,judgBlock.thisN,judgBlock.thisIndex,judgBlock.ran
0,resources/DR.BMP,resources/DP.BMP,resources/DBN.BMP,resources/DB.BMP,resources/DG.BMP,resources/DY.BMP,,2023-08-16_08h40.19.813,HF_wild_card,2022.2.4,Win32,59.96641881,5ac0eabce1546900019bd744,64d2fd46c836a06233681665,64dc7d507a5e5ac3952eb0f0,,,,,,,,,,,,,,,,,,,,,,,,,,,,,,,,,,,,,,,,,,,,,,,,,,,,,,,,,,,,,,,,
,,,,,,,,2023-08-16_08h40.19.813,HF_wild_card,2022.2.4,Win32,59.96641881,5ac0eabce1546900019bd744,64d2fd46c836a06233681665,64dc7d507a5e5ac3952eb0f0,0.012962963,-0.415740741,1,0,0,agree,,,,,,,,,,,,,,,,,,,,,,,,,,,,,,,,,,,,,,,,,,,,,,,,,,,,,,,,,,
,,,,,,,,2023-08-16_08h40.19.813,HF_wild_card,2022.2.4,Win32,59.96641881,5ac0eabce1546900019bd744,64d2fd46c836a06233681665,64dc7d507a5e5ac3952eb0f0,,,,,,,,,,,,,,,,,,,,,,,,,,,,,,,,,,,,,,,,,,,,,,,,,,,,,,,,,,,,,,,,
,,,,,,,,2023-08-16_08h40.19.813,HF_wild_card,2022.2.4,Win32,59.96641881,5ac0eabce1546900019bd744,64d2fd46c836a06233681665,64dc7d507a5e5ac3952eb0f0,,,,,,,sngl,resources/Empty.png,resources/DB.BMP,Door4,0.467592593,-0.17962963,1,0,0,3.6292,optionRight,60,60,1,0,0,0,0,1,,,,,,,,,,,,,,,,,,,,,,,,,,,,,,,,,,,,,,,
,,,,,,,,2023-08-16_08h40.19.813,HF_wild_card,2022.2.4,Win32,59.96641881,5ac0eabce1546900019bd744,64d2fd46c836a06233681665,64dc7d507a5e5ac3952eb0f0,,,,,,,decisionTrl,resources/DR.BMP,resources/DP.BMP,Door1,-0.316666667,-0.10462963,1,0,0,5.1229,optionLeft,30,90,1,1,0,1,0,1,,,,,,,,,,,,,,,,,,,,,,,,,,,,,,,,,,,,,,,
,,,,,,,,2023-08-16_08h40.19.813,HF_wild_card,2022.2.4,Win32,59.96641881,5ac0eabce1546900019bd744,64d2fd46c836a06233681665,64dc7d507a5e5ac3952eb0f0,,,,,,,decisionTrl,resources/DBN.BMP,resources/DB.BMP,Door3,-0.271296296,-0.109259259,1,0,0,3.4783,optionLeft,70,160,1,2,0,2,0,1,,,,,,,,,,,,,,,,,,,,,,,,,,,,,,,,,,,,,,,
,,,,,,,,2023-08-16_08h40.19.813,HF_wild_card,2022.2.4,Win32,59.96641881,5ac0eabce1546900019bd744,64d2fd46c836a06233681665,64dc7d507a5e5ac3952eb0f0,,,,,,,decisionTrl,resources/DBN.BMP,resources/DB.BMP,Door3,-0.32962963,-0.114814815,1,0,0,3.4982,optionLeft,70,230,1,3,0,3,0,1,,,,,,,,,,,,,,,,,,,,,,,,,,,,,,,,,,,,,,,
,,,,,,,,2023-08-16_08h40.19.813,HF_wild_card,2022.2.4,Win32,59.96641881,5ac0eabce1546900019bd744,64d2fd46c836a06233681665,64dc7d507a5e5ac3952eb0f0,,,,,,,sngl,resources/DR.BMP,resources/Empty.png,Door1,-0.35462963,-0.1,1,0,0,2.0725,optionLeft,30,260,1,4,0,4,0,1,,,,,,,,,,,,,,,,,,,,,,,,,,,,,,,,,,,,,,,
,,,,,,,,2023-08-16_08h40.19.813,HF_wild_card,2022.2.4,Win32,59.96641881,5ac0eabce1546900019bd744,64d2fd46c836a06233681665,64dc7d507a5e5ac3952eb0f0,,,,,,,decisionTrl,resources/DB.BMP,resources/DG.BMP,Door4,-0.314814815,-0.102777778,1,0,0,2.8895,optionLeft,60,320,1,5,0,5,0,1,,,,,,,,,,,,,,,,,,,,,,,,,,,,,,,,,,,,,,,
,,,,,,,,2023-08-16_08h40.19.813,HF_wild_card,2022.2.4,Win32,59.96641881,5ac0eabce1546900019bd744,64d2fd46c836a06233681665,64dc7d507a5e5ac3952eb0f0,,,,,,,sngl,resources/Empty.png,resources/DBN.BMP,Door3,0.357407407,0.091666667,1,0,0,1.4302,optionRight,70,390,1,6,0,6,0,1,,,,,,,,,,,,,,,,,,,,,,,,,,,,,,,,,,,,,,,
,,,,,,,,2023-08-16_08h40.19.813,HF_wild_card,2022.2.4,Win32,59.96641881,5ac0eabce1546900019bd744,64d2fd46c836a06233681665,64dc7d507a5e5ac3952eb0f0,,,,,,,sngl,resources/Empty.png,resources/DP.BMP,Door2,0.255555556,-0.003703704,1,0,0,2.0008,optionRight,20,410,1,7,0,7,0,1,,,,,,,,,,,,,,,,,,,,,,,,,,,,,,,,,,,,,,,
,,,,,,,,2023-08-16_08h40.19.813,HF_wild_card,2022.2.4,Win32,59.96641881,5ac0eabce1546900019bd744,64d2fd46c836a06233681665,64dc7d507a5e5ac3952eb0f0,,,,,,,sngl,resources/Empty.png,resources/DG.BMP,WildCard_Ex,0.292592593,0.009259259,1,0,0,1.6128,optionRight,95,505,1,8,0,8,0,1,,,,,,,,,,,,,,,,,,,,,,,,,,,,,,,,,,,,,,,
,,,,,,,,2023-08-16_08h40.19.813,HF_wild_card,2022.2.4,Win32,59.96641881,5ac0eabce1546900019bd744,64d2fd46c836a06233681665,64dc7d507a5e5ac3952eb0f0,,,,,,,decisionTrl,resources/DP.BMP,resources/DR.BMP,Door1,0.32962963,-0.037962963,1,0,0,10.6058,optionRight,30,535,1,9,0,9,0,1,,,,,,,,,,,,,,,,,,,,,,,,,,,,,,,,,,,,,,,
,,,,,,,,2023-08-16_08h40.19.813,HF_wild_card,2022.2.4,Win32,59.96641881,5ac0eabce1546900019bd744,64d2fd46c836a06233681665,64dc7d507a5e5ac3952eb0f0,,,,,,,decisionTrl,resources/DG.BMP,resources/DP.BMP,Door2,0.366666667,0.037037037,1,0,0,1.8204,optionRight,20,555,1,10,0,10,0,1,,,,,,,,,,,,,,,,,,,,,,,,,,,,,,,,,,,,,,,
,,,,,,,,2023-08-16_08h40.19.813,HF_wild_card,2022.2.4,Win32,59.96641881,5ac0eabce1546900019bd744,64d2fd46c836a06233681665,64dc7d507a5e5ac3952eb0f0,,,,,,,decisionTrl,resources/DBN.BMP,resources/DG.BMP,Door3,-0.338888889,-0.110185185,1,0,0,1.8745,optionLeft,70,625,1,11,0,11,0,1,,,,,,,,,,,,,,,,,,,,,,,,,,,,,,,,,,,,,,,
,,,,,,,,2023-08-16_08h40.19.813,HF_wild_card,2022.2.4,Win32,59.96641881,5ac0eabce1546900019bd744,64d2fd46c836a06233681665,64dc7d507a5e5ac3952eb0f0,,,,,,,ctch,resources/DR.BMP,resources/DB.BMP,Door1,-0.352777778,-0.112037037,1,0,0,1.8946,optionLeft,30,655,1,12,0,12,0,1,,,,,,,,,,,,,,,,,,,,,,,,,,,,,,,,,,,,,,,
,,,,,,,,2023-08-16_08h40.19.813,HF_wild_card,2022.2.4,Win32,59.96641881,5ac0eabce1546900019bd744,64d2fd46c836a06233681665,64dc7d507a5e5ac3952eb0f0,,,,,,,decisionTrl,resources/DB.BMP,resources/DBN.BMP,Door3,0.442592593,0.025,1,0,0,2.5969,optionRight,70,725,1,13,0,13,0,1,,,,,,,,,,,,,,,,,,,,,,,,,,,,,,,,,,,,,,,
,,,,,,,,2023-08-16_08h40.19.813,HF_wild_card,2022.2.4,Win32,59.96641881,5ac0eabce1546900019bd744,64d2fd46c836a06233681665,64dc7d507a5e5ac3952eb0f0,,,,,,,ctch,resources/DB.BMP,resources/DR.BMP,Door1,0.412962963,0.023148148,1,0,0,2.4016,optionRight,30,755,1,14,0,14,0,1,,,,,,,,,,,,,,,,,,,,,,,,,,,,,,,,,,,,,,,
,,,,,,,,2023-08-16_08h40.19.813,HF_wild_card,2022.2.4,Win32,59.96641881,5ac0eabce1546900019bd744,64d2fd46c836a06233681665,64dc7d507a5e5ac3952eb0f0,,,,,,,sngl,resources/DG.BMP,resources/Empty.png,WildCard_Ex,-0.262962963,-0.098148148,1,0,0,1.4999,optionLeft,95,850,1,15,0,15,0,1,,,,,,,,,,,,,,,,,,,,,,,,,,,,,,,,,,,,,,,
,,,,,,,,2023-08-16_08h40.19.813,HF_wild_card,2022.2.4,Win32,59.96641881,5ac0eabce1546900019bd744,64d2fd46c836a06233681665,64dc7d507a5e5ac3952eb0f0,,,,,,,decisionTrl,resources/DP.BMP,resources/DR.BMP,Door2,-0.40462963,-0.137037037,1,0,0,3.5647,optionLeft,40,890,1,16,0,16,0,1,,,,,,,,,,,,,,,,,,,,,,,,,,,,,,,,,,,,,,,
,,,,,,,,2023-08-16_08h40.19.813,HF_wild_card,2022.2.4,Win32,59.96641881,5ac0eabce1546900019bd744,64d2fd46c836a06233681665,64dc7d507a5e5ac3952eb0f0,,,,,,,decisionTrl,resources/DBN.BMP,resources/DB.BMP,Door3,-0.301851852,-0.083333333,1,0,0,1.4263,optionLeft,70,960,1,17,0,17,0,1,,,,,,,,,,,,,,,,,,,,,,,,,,,,,,,,,,,,,,,
,,,,,,,,2023-08-16_08h40.19.813,HF_wild_card,2022.2.4,Win32,59.96641881,5ac0eabce1546900019bd744,64d2fd46c836a06233681665,64dc7d507a5e5ac3952eb0f0,,,,,,,decisionTrl,resources/DBN.BMP,resources/DB.BMP,Door3,-0.288888889,-0.043518519,1,0,0,1.856,optionLeft,70,1030,1,18,0,18,0,1,,,,,,,,,,,,,,,,,,,,,,,,,,,,,,,,,,,,,,,
,,,,,,,,2023-08-16_08h40.19.813,HF_wild_card,2022.2.4,Win32,59.96641881,5ac0eabce1546900019bd744,64d2fd46c836a06233681665,64dc7d507a5e5ac3952eb0f0,,,,,,,decisionTrl,resources/DB.BMP,resources/DBN.BMP,Door3,0.291666667,0.049074074,1,0,0,1.963,optionRight,70,1100,1,19,0,19,0,1,,,,,,,,,,,,,,,,,,,,,,,,,,,,,,,,,,,,,,,
,,,,,,,,2023-08-16_08h40.19.813,HF_wild_card,2022.2.4,Win32,59.96641881,5ac0eabce1546900019bd744,64d2fd46c836a06233681665,64dc7d507a5e5ac3952eb0f0,,,,,,,decisionTrl,resources/DB.BMP,resources/DBN.BMP,Door3,0.259259259,0.011111111,1,0,0,1.7469,optionRight,70,1170,1,20,0,20,0,1,,,,,,,,,,,,,,,,,,,,,,,,,,,,,,,,,,,,,,,
,,,,,,,,2023-08-16_08h40.19.813,HF_wild_card,2022.2.4,Win32,59.96641881,5ac0eabce1546900019bd744,64d2fd46c836a06233681665,64dc7d507a5e5ac3952eb0f0,,,,,,,ctch,resources/DBN.BMP,resources/DP.BMP,Door2,0.339814815,0.006481481,1,0,0,8.5119,optionRight,20,1190,1,21,0,21,0,1,,,,,,,,,,,,,,,,,,,,,,,,,,,,,,,,,,,,,,,
,,,,,,,,2023-08-16_08h40.19.813,HF_wild_card,2022.2.4,Win32,59.96641881,5ac0eabce1546900019bd744,64d2fd46c836a06233681665,64dc7d507a5e5ac3952eb0f0,,,,,,,decisionTrl,resources/DR.BMP,resources/DP.BMP,Door2,0.350925926,-0.026851852,1,0,0,4.3775,optionRight,40,1230,1,22,0,22,0,1,,,,,,,,,,,,,,,,,,,,,,,,,,,,,,,,,,,,,,,
,,,,,,,,2023-08-16_08h40.19.813,HF_wild_card,2022.2.4,Win32,59.96641881,5ac0eabce1546900019bd744,64d2fd46c836a06233681665,64dc7d507a5e5ac3952eb0f0,,,,,,,sngl,resources/DB.BMP,resources/Empty.png,Door4,-0.265740741,-0.091666667,1,0,0,1.484,optionLeft,80,1310,1,23,0,23,0,1,,,,,,,,,,,,,,,,,,,,,,,,,,,,,,,,,,,,,,,
,,,,,,,,2023-08-16_08h40.19.813,HF_wild_card,2022.2.4,Win32,59.96641881,5ac0eabce1546900019bd744,64d2fd46c836a06233681665,64dc7d507a5e5ac3952eb0f0,,,,,,,decisionTrl,resources/DG.BMP,resources/DR.BMP,Door1,0.352777778,0.024074074,1,0,0,2.6275,optionRight,30,1340,1,24,0,24,0,1,,,,,,,,,,,,,,,,,,,,,,,,,,,,,,,,,,,,,,,
,,,,,,,,2023-08-16_08h40.19.813,HF_wild_card,2022.2.4,Win32,59.96641881,5ac0eabce1546900019bd744,64d2fd46c836a06233681665,64dc7d507a5e5ac3952eb0f0,,,,,,,sngl,resources/DP.BMP,resources/Empty.png,Door2,-0.255555556,-0.092592593,1,0,0,1.1272,optionLeft,40,1380,1,25,0,25,0,1,,,,,,,,,,,,,,,,,,,,,,,,,,,,,,,,,,,,,,,
,,,,,,,,2023-08-16_08h40.19.813,HF_wild_card,2022.2.4,Win32,59.96641881,5ac0eabce1546900019bd744,64d2fd46c836a06233681665,64dc7d507a5e5ac3952eb0f0,,,,,,,sngl,resources/Empty.png,resources/DR.BMP,Door1,0.242592593,0.00462963,1,0,0,1.1437,optionRight,30,1410,1,26,0,26,0,1,,,,,,,,,,,,,,,,,,,,,,,,,,,,,,,,,,,,,,,
,,,,,,,,2023-08-16_08h40.19.813,HF_wild_card,2022.2.4,Win32,59.96641881,5ac0eabce1546900019bd744,64d2fd46c836a06233681665,64dc7d507a5e5ac3952eb0f0,,,,,,,decisionTrl,resources/DR.BMP,resources/DP.BMP,Door1,-0.328703704,-0.123148148,1,0,0,4.0464,optionLeft,30,1440,1,27,0,27,0,1,,,,,,,,,,,,,,,,,,,,,,,,,,,,,,,,,,,,,,,
,,,,,,,,2023-08-16_08h40.19.813,HF_wild_card,2022.2.4,Win32,59.96641881,5ac0eabce1546900019bd744,64d2fd46c836a06233681665,64dc7d507a5e5ac3952eb0f0,,,,,,,sngl,resources/DBN.BMP,resources/Empty.png,Door3,-0.24537037,-0.061111111,1,0,0,1.0669,optionLeft,70,1510,1,28,0,28,0,1,,,,,,,,,,,,,,,,,,,,,,,,,,,,,,,,,,,,,,,
,,,,,,,,2023-08-16_08h40.19.813,HF_wild_card,2022.2.4,Win32,59.96641881,5ac0eabce1546900019bd744,64d2fd46c836a06233681665,64dc7d507a5e5ac3952eb0f0,,,,,,,sngl,resources/DG.BMP,resources/Empty.png,WildCard_Ex,-0.227777778,-0.047222222,1,0,0,1.4466,optionLeft,5,1515,1,29,0,29,0,1,,,,,,,,,,,,,,,,,,,,,,,,,,,,,,,,,,,,,,,
,,,,,,,,2023-08-16_08h40.19.813,HF_wild_card,2022.2.4,Win32,59.96641881,5ac0eabce1546900019bd744,64d2fd46c836a06233681665,64dc7d507a5e5ac3952eb0f0,,,,,,,ctch,resources/DP.BMP,resources/DBN.BMP,Door3,0.4,0.060185185,1,0,0,2.998,optionRight,70,1585,1,30,0,30,0,1,,,,,,,,,,,,,,,,,,,,,,,,,,,,,,,,,,,,,,,
,,,,,,,,2023-08-16_08h40.19.813,HF_wild_card,2022.2.4,Win32,59.96641881,5ac0eabce1546900019bd744,64d2fd46c836a06233681665,64dc7d507a5e5ac3952eb0f0,,,,,,,decisionTrl,resources/DG.BMP,resources/DBN.BMP,Door3,0.213888889,0.022222222,1,0,0,1.5016,optionRight,70,1655,1,31,0,31,0,1,,,,,,,,,,,,,,,,,,,,,,,,,,,,,,,,,,,,,,,
,,,,,,,,2023-08-16_08h40.19.813,HF_wild_card,2022.2.4,Win32,59.96641881,5ac0eabce1546900019bd744,64d2fd46c836a06233681665,64dc7d507a5e5ac3952eb0f0,,,,,,,ctch,resources/DBN.BMP,resources/DP.BMP,Door2,0.340740741,-0.005555556,1,0,0,2.2949,optionRight,40,1695,1,32,0,32,0,1,,,,,,,,,,,,,,,,,,,,,,,,,,,,,,,,,,,,,,,
,,,,,,,,2023-08-16_08h40.19.813,HF_wild_card,2022.2.4,Win32,59.96641881,5ac0eabce1546900019bd744,64d2fd46c836a06233681665,64dc7d507a5e5ac3952eb0f0,,,,,,,decisionTrl,resources/DP.BMP,resources/DR.BMP,Door2,-0.272222222,-0.10462963,1,0,0,6.7055,optionLeft,40,1735,1,33,0,33,0,1,,,,,,,,,,,,,,,,,,,,,,,,,,,,,,,,,,,,,,,
,,,,,,,,2023-08-16_08h40.19.813,HF_wild_card,2022.2.4,Win32,59.96641881,5ac0eabce1546900019bd744,64d2fd46c836a06233681665,64dc7d507a5e5ac3952eb0f0,,,,,,,sngl,resources/Empty.png,resources/DG.BMP,WildCard_Ex,0.353703704,0.031481481,1,0,0,2.5679,optionRight,5,1740,1,34,0,34,0,1,,,,,,,,,,,,,,,,,,,,,,,,,,,,,,,,,,,,,,,
,,,,,,,,2023-08-16_08h40.19.813,HF_wild_card,2022.2.4,Win32,59.96641881,5ac0eabce1546900019bd744,64d2fd46c836a06233681665,64dc7d507a5e5ac3952eb0f0,,,,,,,ctch,resources/DP.BMP,resources/DBN.BMP,Door3,0.348148148,-0.014814815,1,0,0,4.1798,optionRight,70,1810,1,35,0,35,0,1,,,,,,,,,,,,,,,,,,,,,,,,,,,,,,,,,,,,,,,
,,,,,,,,2023-08-16_08h40.19.813,HF_wild_card,2022.2.4,Win32,59.96641881,5ac0eabce1546900019bd744,64d2fd46c836a06233681665,64dc7d507a5e5ac3952eb0f0,,,,,,,decisionTrl,resources/DR.BMP,resources/DG.BMP,Door1,-0.332407407,-0.071296296,1,0,0,1.4164,optionLeft,30,1840,1,36,0,36,0,1,,,,,,,,,,,,,,,,,,,,,,,,,,,,,,,,,,,,,,,
,,,,,,,,2023-08-16_08h40.19.813,HF_wild_card,2022.2.4,Win32,59.96641881,5ac0eabce1546900019bd744,64d2fd46c836a06233681665,64dc7d507a5e5ac3952eb0f0,,,,,,,decisionTrl,resources/DB.BMP,resources/DBN.BMP,Door3,0.37037037,0.027777778,1,0,0,1.5209,optionRight,70,1910,1,37,0,37,0,1,,,,,,,,,,,,,,,,,,,,,,,,,,,,,,,,,,,,,,,
,,,,,,,,2023-08-16_08h40.19.813,HF_wild_card,2022.2.4,Win32,59.96641881,5ac0eabce1546900019bd744,64d2fd46c836a06233681665,64dc7d507a5e5ac3952eb0f0,,,,,,,ctch,resources/DB.BMP,resources/DR.BMP,Door1,0.339814815,0.022222222,1,0,0,1.3445,optionRight,30,1940,1,38,0,38,0,1,,,,,,,,,,,,,,,,,,,,,,,,,,,,,,,,,,,,,,,
,,,,,,,,2023-08-16_08h40.19.813,HF_wild_card,2022.2.4,Win32,59.96641881,5ac0eabce1546900019bd744,64d2fd46c836a06233681665,64dc7d507a5e5ac3952eb0f0,,,,,,,decisionTrl,resources/DR.BMP,resources/DP.BMP,Door2,0.301851852,0.000925926,1,0,0,2.5283,optionRight,20,1960,1,39,0,39,0,1,,,,,,,,,,,,,,,,,,,,,,,,,,,,,,,,,,,,,,,
,,,,,,,,2023-08-16_08h40.19.813,HF_wild_card,2022.2.4,Win32,59.96641881,5ac0eabce1546900019bd744,64d2fd46c836a06233681665,64dc7d507a5e5ac3952eb0f0,,,,,,,decisionTrl,resources/DG.BMP,resources/DB.BMP,WildCard_Ex,-0.289814815,-0.101851852,1,0,0,8.0665,optionLeft,95,2055,1,40,0,40,0,1,,,,,,,,,,,,,,,,,,,,,,,,,,,,,,,,,,,,,,,
,,,,,,,,2023-08-16_08h40.19.813,HF_wild_card,2022.2.4,Win32,59.96641881,5ac0eabce1546900019bd744,64d2fd46c836a06233681665,64dc7d507a5e5ac3952eb0f0,,,,,,,decisionTrl,resources/DP.BMP,resources/DR.BMP,Door1,0.349074074,0.007407407,1,0,0,2.649,optionRight,30,2085,1,41,0,41,0,1,,,,,,,,,,,,,,,,,,,,,,,,,,,,,,,,,,,,,,,
,,,,,,,,2023-08-16_08h40.19.813,HF_wild_card,2022.2.4,Win32,59.96641881,5ac0eabce1546900019bd744,64d2fd46c836a06233681665,64dc7d507a5e5ac3952eb0f0,,,,,,,decisionTrl,resources/DP.BMP,resources/DG.BMP,Door2,-0.364814815,-0.127777778,1,0,0,1.5165,optionLeft,20,2105,1,42,0,42,0,1,,,,,,,,,,,,,,,,,,,,,,,,,,,,,,,,,,,,,,,
,,,,,,,,2023-08-16_08h40.19.813,HF_wild_card,2022.2.4,Win32,59.96641881,5ac0eabce1546900019bd744,64d2fd46c836a06233681665,64dc7d507a5e5ac3952eb0f0,,,,,,,ctch,resources/DR.BMP,resources/DB.BMP,Door1,-0.274074074,-0.071296296,1,0,0,1.492,optionLeft,30,2135,1,43,0,43,0,1,,,,,,,,,,,,,,,,,,,,,,,,,,,,,,,,,,,,,,,
,,,,,,,,2023-08-16_08h40.19.813,HF_wild_card,2022.2.4,Win32,59.96641881,5ac0eabce1546900019bd744,64d2fd46c836a06233681665,64dc7d507a5e5ac3952eb0f0,,,,,,,,,,,,,,,,,,,,,,,,,,0,0,0,0,1,,,,,,,,,,,,,,,,,,,,,,,,,,,,,,,,,,
,,,,,,,,2023-08-16_08h40.19.813,HF_wild_card,2022.2.4,Win32,59.96641881,5ac0eabce1546900019bd744,64d2fd46c836a06233681665,64dc7d507a5e5ac3952eb0f0,,,,,,,sngl,resources/DR.BMP,resources/Empty.png,Door1,-0.342592593,0.016666667,1,0,0,1.3247,optionLeft,30,2165,2,0,0,0,0,1,,,,,,,,,,,,,,,,,,,,,,,,,,,,,,,,,,,,,,,
,,,,,,,,2023-08-16_08h40.19.813,HF_wild_card,2022.2.4,Win32,59.96641881,5ac0eabce1546900019bd744,64d2fd46c836a06233681665,64dc7d507a5e5ac3952eb0f0,,,,,,,decisionTrl,resources/DG.BMP,resources/DP.BMP,Door2,0.4,-0.046296296,1,0,0,1.2781,optionRight,20,2185,2,1,0,1,0,1,,,,,,,,,,,,,,,,,,,,,,,,,,,,,,,,,,,,,,,
,,,,,,,,2023-08-16_08h40.19.813,HF_wild_card,2022.2.4,Win32,59.96641881,5ac0eabce1546900019bd744,64d2fd46c836a06233681665,64dc7d507a5e5ac3952eb0f0,,,,,,,decisionTrl,resources/DBN.BMP,resources/DG.BMP,Door3,-0.323148148,-0.002777778,1,0,0,1.6407,optionLeft,70,2255,2,2,0,2,0,1,,,,,,,,,,,,,,,,,,,,,,,,,,,,,,,,,,,,,,,
,,,,,,,,2023-08-16_08h40.19.813,HF_wild_card,2022.2.4,Win32,59.96641881,5ac0eabce1546900019bd744,64d2fd46c836a06233681665,64dc7d507a5e5ac3952eb0f0,,,,,,,ctch,resources/DR.BMP,resources/DB.BMP,Door1,-0.373148148,-0.075925926,1,0,0,1.4938,optionLeft,30,2285,2,3,0,3,0,1,,,,,,,,,,,,,,,,,,,,,,,,,,,,,,,,,,,,,,,
,,,,,,,,2023-08-16_08h40.19.813,HF_wild_card,2022.2.4,Win32,59.96641881,5ac0eabce1546900019bd744,64d2fd46c836a06233681665,64dc7d507a5e5ac3952eb0f0,,,,,,,sngl,resources/Empty.png,resources/DG.BMP,WildCard_Ex,0.419444444,-0.02037037,1,0,0,1.3322,optionRight,5,2290,2,4,0,4,0,1,,,,,,,,,,,,,,,,,,,,,,,,,,,,,,,,,,,,,,,
,,,,,,,,2023-08-16_08h40.19.813,HF_wild_card,2022.2.4,Win32,59.96641881,5ac0eabce1546900019bd744,64d2fd46c836a06233681665,64dc7d507a5e5ac3952eb0f0,,,,,,,decisionTrl,resources/DR.BMP,resources/DP.BMP,Door2,0.45462963,0.002777778,1,0,0,3.8879,optionRight,20,2310,2,5,0,5,0,1,,,,,,,,,,,,,,,,,,,,,,,,,,,,,,,,,,,,,,,
,,,,,,,,2023-08-16_08h40.19.813,HF_wild_card,2022.2.4,Win32,59.96641881,5ac0eabce1546900019bd744,64d2fd46c836a06233681665,64dc7d507a5e5ac3952eb0f0,,,,,,,decisionTrl,resources/DR.BMP,resources/DP.BMP,Door1,-0.261111111,-0.032407407,1,0,0,1.4629,optionLeft,30,2340,2,6,0,6,0,1,,,,,,,,,,,,,,,,,,,,,,,,,,,,,,,,,,,,,,,
,,,,,,,,2023-08-16_08h40.19.813,HF_wild_card,2022.2.4,Win32,59.96641881,5ac0eabce1546900019bd744,64d2fd46c836a06233681665,64dc7d507a5e5ac3952eb0f0,,,,,,,decisionTrl,resources/DP.BMP,resources/DR.BMP,Door1,0.340740741,0.010185185,1,0,0,2.0138,optionRight,30,2370,2,7,0,7,0,1,,,,,,,,,,,,,,,,,,,,,,,,,,,,,,,,,,,,,,,
,,,,,,,,2023-08-16_08h40.19.813,HF_wild_card,2022.2.4,Win32,59.96641881,5ac0eabce1546900019bd744,64d2fd46c836a06233681665,64dc7d507a5e5ac3952eb0f0,,,,,,,decisionTrl,resources/DP.BMP,resources/DG.BMP,Door2,-0.306481481,-0.068518519,1,0,0,1.2344,optionLeft,20,2390,2,8,0,8,0,1,,,,,,,,,,,,,,,,,,,,,,,,,,,,,,,,,,,,,,,
,,,,,,,,2023-08-16_08h40.19.813,HF_wild_card,2022.2.4,Win32,59.96641881,5ac0eabce1546900019bd744,64d2fd46c836a06233681665,64dc7d507a5e5ac3952eb0f0,,,,,,,decisionTrl,resources/DBN.BMP,resources/DB.BMP,Door3,-0.224074074,-0.061111111,1,0,0,1.6833,optionLeft,70,2460,2,9,0,9,0,1,,,,,,,,,,,,,,,,,,,,,,,,,,,,,,,,,,,,,,,
,,,,,,,,2023-08-16_08h40.19.813,HF_wild_card,2022.2.4,Win32,59.96641881,5ac0eabce1546900019bd744,64d2fd46c836a06233681665,64dc7d507a5e5ac3952eb0f0,,,,,,,ctch,resources/DBN.BMP,resources/DP.BMP,Door3,-0.301851852,-0.025925926,1,0,0,1.9118,optionLeft,70,2530,2,10,0,10,0,1,,,,,,,,,,,,,,,,,,,,,,,,,,,,,,,,,,,,,,,
,,,,,,,,2023-08-16_08h40.19.813,HF_wild_card,2022.2.4,Win32,59.96641881,5ac0eabce1546900019bd744,64d2fd46c836a06233681665,64dc7d507a5e5ac3952eb0f0,,,,,,,decisionTrl,resources/DBN.BMP,resources/DB.BMP,Door3,-0.267592593,-0.055555556,1,0,0,1.3779,optionLeft,70,2600,2,11,0,11,0,1,,,,,,,,,,,,,,,,,,,,,,,,,,,,,,,,,,,,,,,
,,,,,,,,2023-08-16_08h40.19.813,HF_wild_card,2022.2.4,Win32,59.96641881,5ac0eabce1546900019bd744,64d2fd46c836a06233681665,64dc7d507a5e5ac3952eb0f0,,,,,,,decisionTrl,resources/DB.BMP,resources/DG.BMP,WildCard_Ex,0.383333333,0.052777778,1,0,0,2.0659,optionRight,95,2695,2,12,0,12,0,1,,,,,,,,,,,,,,,,,,,,,,,,,,,,,,,,,,,,,,,
,,,,,,,,2023-08-16_08h40.19.813,HF_wild_card,2022.2.4,Win32,59.96641881,5ac0eabce1546900019bd744,64d2fd46c836a06233681665,64dc7d507a5e5ac3952eb0f0,,,,,,,decisionTrl,resources/DB.BMP,resources/DBN.BMP,Door3,0.281481481,0.025,1,0,0,1.5882,optionRight,70,2765,2,13,0,13,0,1,,,,,,,,,,,,,,,,,,,,,,,,,,,,,,,,,,,,,,,
,,,,,,,,2023-08-16_08h40.19.813,HF_wild_card,2022.2.4,Win32,59.96641881,5ac0eabce1546900019bd744,64d2fd46c836a06233681665,64dc7d507a5e5ac3952eb0f0,,,,,,,decisionTrl,resources/DP.BMP,resources/DR.BMP,Door2,-0.244444444,-0.036111111,1,0,0,3.238,optionLeft,40,2805,2,14,0,14,0,1,,,,,,,,,,,,,,,,,,,,,,,,,,,,,,,,,,,,,,,
,,,,,,,,2023-08-16_08h40.19.813,HF_wild_card,2022.2.4,Win32,59.96641881,5ac0eabce1546900019bd744,64d2fd46c836a06233681665,64dc7d507a5e5ac3952eb0f0,,,,,,,decisionTrl,resources/DP.BMP,resources/DR.BMP,Door2,-0.247222222,-0.068518519,1,0,0,2.6303,optionLeft,40,2845,2,15,0,15,0,1,,,,,,,,,,,,,,,,,,,,,,,,,,,,,,,,,,,,,,,
,,,,,,,,2023-08-16_08h40.19.813,HF_wild_card,2022.2.4,Win32,59.96641881,5ac0eabce1546900019bd744,64d2fd46c836a06233681665,64dc7d507a5e5ac3952eb0f0,,,,,,,ctch,resources/DP.BMP,resources/DBN.BMP,Door2,-0.3,-0.099074074,1,0,0,2.6188,optionLeft,20,2865,2,16,0,16,0,1,,,,,,,,,,,,,,,,,,,,,,,,,,,,,,,,,,,,,,,
,,,,,,,,2023-08-16_08h40.19.813,HF_wild_card,2022.2.4,Win32,59.96641881,5ac0eabce1546900019bd744,64d2fd46c836a06233681665,64dc7d507a5e5ac3952eb0f0,,,,,,,sngl,resources/Empty.png,resources/DP.BMP,Door2,0.250925926,-0.010185185,1,0,0,0.9613,optionRight,40,2905,2,17,0,17,0,1,,,,,,,,,,,,,,,,,,,,,,,,,,,,,,,,,,,,,,,
,,,,,,,,2023-08-16_08h40.19.813,HF_wild_card,2022.2.4,Win32,59.96641881,5ac0eabce1546900019bd744,64d2fd46c836a06233681665,64dc7d507a5e5ac3952eb0f0,,,,,,,ctch,resources/DR.BMP,resources/DB.BMP,Door1,-0.236111111,-0.061111111,1,0,0,1.2707,optionLeft,30,2935,2,18,0,18,0,1,,,,,,,,,,,,,,,,,,,,,,,,,,,,,,,,,,,,,,,
,,,,,,,,2023-08-16_08h40.19.813,HF_wild_card,2022.2.4,Win32,59.96641881,5ac0eabce1546900019bd744,64d2fd46c836a06233681665,64dc7d507a5e5ac3952eb0f0,,,,,,,decisionTrl,resources/DG.BMP,resources/DR.BMP,Door1,0.326851852,0.005555556,1,0,0,2.1682,optionRight,30,2965,2,19,0,19,0,1,,,,,,,,,,,,,,,,,,,,,,,,,,,,,,,,,,,,,,,
,,,,,,,,2023-08-16_08h40.19.813,HF_wild_card,2022.2.4,Win32,59.96641881,5ac0eabce1546900019bd744,64d2fd46c836a06233681665,64dc7d507a5e5ac3952eb0f0,,,,,,,sngl,resources/DBN.BMP,resources/Empty.png,Door3,-0.300925926,-0.092592593,1,0,0,1.027,optionLeft,70,3035,2,20,0,20,0,1,,,,,,,,,,,,,,,,,,,,,,,,,,,,,,,,,,,,,,,
,,,,,,,,2023-08-16_08h40.19.813,HF_wild_card,2022.2.4,Win32,59.96641881,5ac0eabce1546900019bd744,64d2fd46c836a06233681665,64dc7d507a5e5ac3952eb0f0,,,,,,,decisionTrl,resources/DG.BMP,resources/DB.BMP,WildCard_Ex,-0.200925926,-0.039814815,1,0,0,1.2099,optionLeft,5,3040,2,21,0,21,0,1,,,,,,,,,,,,,,,,,,,,,,,,,,,,,,,,,,,,,,,
,,,,,,,,2023-08-16_08h40.19.813,HF_wild_card,2022.2.4,Win32,59.96641881,5ac0eabce1546900019bd744,64d2fd46c836a06233681665,64dc7d507a5e5ac3952eb0f0,,,,,,,decisionTrl,resources/DG.BMP,resources/DBN.BMP,Door3,0.336111111,-0.02962963,1,0,0,2.4618,optionRight,70,3110,2,22,0,22,0,1,,,,,,,,,,,,,,,,,,,,,,,,,,,,,,,,,,,,,,,
,,,,,,,,2023-08-16_08h40.19.813,HF_wild_card,2022.2.4,Win32,59.96641881,5ac0eabce1546900019bd744,64d2fd46c836a06233681665,64dc7d507a5e5ac3952eb0f0,,,,,,,decisionTrl,resources/DB.BMP,resources/DBN.BMP,Door3,0.361111111,0.040740741,1,0,0,1.1653,optionRight,70,3180,2,23,0,23,0,1,,,,,,,,,,,,,,,,,,,,,,,,,,,,,,,,,,,,,,,
,,,,,,,,2023-08-16_08h40.19.813,HF_wild_card,2022.2.4,Win32,59.96641881,5ac0eabce1546900019bd744,64d2fd46c836a06233681665,64dc7d507a5e5ac3952eb0f0,,,,,,,sngl,resources/DG.BMP,resources/Empty.png,WildCard_Ex,-0.275,-0.067592593,1,0,0,1.392,optionLeft,95,3275,2,24,0,24,0,1,,,,,,,,,,,,,,,,,,,,,,,,,,,,,,,,,,,,,,,
,,,,,,,,2023-08-16_08h40.19.813,HF_wild_card,2022.2.4,Win32,59.96641881,5ac0eabce1546900019bd744,64d2fd46c836a06233681665,64dc7d507a5e5ac3952eb0f0,,,,,,,ctch,resources/DBN.BMP,resources/DP.BMP,Door2,0.336111111,-0.023148148,1,0,0,3.0006,optionRight,20,3295,2,25,0,25,0,1,,,,,,,,,,,,,,,,,,,,,,,,,,,,,,,,,,,,,,,
,,,,,,,,2023-08-16_08h40.19.813,HF_wild_card,2022.2.4,Win32,59.96641881,5ac0eabce1546900019bd744,64d2fd46c836a06233681665,64dc7d507a5e5ac3952eb0f0,,,,,,,sngl,resources/DB.BMP,resources/Empty.png,Door4,-0.202777778,-0.030555556,1,0,0,1.0717,optionLeft,60,3355,2,26,0,26,0,1,,,,,,,,,,,,,,,,,,,,,,,,,,,,,,,,,,,,,,,
,,,,,,,,2023-08-16_08h40.19.813,HF_wild_card,2022.2.4,Win32,59.96641881,5ac0eabce1546900019bd744,64d2fd46c836a06233681665,64dc7d507a5e5ac3952eb0f0,,,,,,,decisionTrl,resources/DP.BMP,resources/DR.BMP,Door2,-0.237037037,-0.040740741,1,0,0,1.4163,optionLeft,20,3375,2,27,0,27,0,1,,,,,,,,,,,,,,,,,,,,,,,,,,,,,,,,,,,,,,,
,,,,,,,,2023-08-16_08h40.19.813,HF_wild_card,2022.2.4,Win32,59.96641881,5ac0eabce1546900019bd744,64d2fd46c836a06233681665,64dc7d507a5e5ac3952eb0f0,,,,,,,sngl,resources/DG.BMP,resources/Empty.png,WildCard_Ex,-0.288888889,-0.049074074,1,0,0,0.9355,optionLeft,5,3380,2,28,0,28,0,1,,,,,,,,,,,,,,,,,,,,,,,,,,,,,,,,,,,,,,,
,,,,,,,,2023-08-16_08h40.19.813,HF_wild_card,2022.2.4,Win32,59.96641881,5ac0eabce1546900019bd744,64d2fd46c836a06233681665,64dc7d507a5e5ac3952eb0f0,,,,,,,sngl,resources/Empty.png,resources/DR.BMP,Door1,0.331481481,0.032407407,1,0,0,0.8846,optionRight,30,3410,2,29,0,29,0,1,,,,,,,,,,,,,,,,,,,,,,,,,,,,,,,,,,,,,,,
,,,,,,,,2023-08-16_08h40.19.813,HF_wild_card,2022.2.4,Win32,59.96641881,5ac0eabce1546900019bd744,64d2fd46c836a06233681665,64dc7d507a5e5ac3952eb0f0,,,,,,,decisionTrl,resources/DB.BMP,resources/DBN.BMP,Door3,0.334259259,0.018518519,1,0,0,1.6024,optionRight,70,3480,2,30,0,30,0,1,,,,,,,,,,,,,,,,,,,,,,,,,,,,,,,,,,,,,,,
,,,,,,,,2023-08-16_08h40.19.813,HF_wild_card,2022.2.4,Win32,59.96641881,5ac0eabce1546900019bd744,64d2fd46c836a06233681665,64dc7d507a5e5ac3952eb0f0,,,,,,,ctch,resources/DB.BMP,resources/DR.BMP,Door1,0.338888889,-0.022222222,1,0,0,1.2131,optionRight,30,3510,2,31,0,31,0,1,,,,,,,,,,,,,,,,,,,,,,,,,,,,,,,,,,,,,,,
,,,,,,,,2023-08-16_08h40.19.813,HF_wild_card,2022.2.4,Win32,59.96641881,5ac0eabce1546900019bd744,64d2fd46c836a06233681665,64dc7d507a5e5ac3952eb0f0,,,,,,,ctch,resources/DB.BMP,resources/DR.BMP,Door1,0.319444444,-0.006481481,1,0,0,1.3629,optionRight,30,3540,2,32,0,32,0,1,,,,,,,,,,,,,,,,,,,,,,,,,,,,,,,,,,,,,,,
,,,,,,,,2023-08-16_08h40.19.813,HF_wild_card,2022.2.4,Win32,59.96641881,5ac0eabce1546900019bd744,64d2fd46c836a06233681665,64dc7d507a5e5ac3952eb0f0,,,,,,,decisionTrl,resources/DR.BMP,resources/DP.BMP,Door1,-0.29537037,-0.062962963,1,0,0,1.5506,optionLeft,30,3570,2,33,0,33,0,1,,,,,,,,,,,,,,,,,,,,,,,,,,,,,,,,,,,,,,,
,,,,,,,,2023-08-16_08h40.19.813,HF_wild_card,2022.2.4,Win32,59.96641881,5ac0eabce1546900019bd744,64d2fd46c836a06233681665,64dc7d507a5e5ac3952eb0f0,,,,,,,sngl,resources/Empty.png,resources/DBN.BMP,Door3,0.209259259,0.025925926,1,0,0,0.8969,optionRight,70,3640,2,34,0,34,0,1,,,,,,,,,,,,,,,,,,,,,,,,,,,,,,,,,,,,,,,
,,,,,,,,2023-08-16_08h40.19.813,HF_wild_card,2022.2.4,Win32,59.96641881,5ac0eabce1546900019bd744,64d2fd46c836a06233681665,64dc7d507a5e5ac3952eb0f0,,,,,,,decisionTrl,resources/DBN.BMP,resources/DB.BMP,Door3,-0.30462963,-0.066666667,1,0,0,1.4114,optionLeft,70,3710,2,35,0,35,0,1,,,,,,,,,,,,,,,,,,,,,,,,,,,,,,,,,,,,,,,
,,,,,,,,2023-08-16_08h40.19.813,HF_wild_card,2022.2.4,Win32,59.96641881,5ac0eabce1546900019bd744,64d2fd46c836a06233681665,64dc7d507a5e5ac3952eb0f0,,,,,,,decisionTrl,resources/DB.BMP,resources/DBN.BMP,Door3,0.360185185,0.012962963,1,0,0,1.4825,optionRight,70,3780,2,36,0,36,0,1,,,,,,,,,,,,,,,,,,,,,,,,,,,,,,,,,,,,,,,
,,,,,,,,2023-08-16_08h40.19.813,HF_wild_card,2022.2.4,Win32,59.96641881,5ac0eabce1546900019bd744,64d2fd46c836a06233681665,64dc7d507a5e5ac3952eb0f0,,,,,,,decisionTrl,resources/DBN.BMP,resources/DB.BMP,Door3,-0.390740741,-0.07962963,1,0,0,1.2883,optionLeft,70,3850,2,37,0,37,0,1,,,,,,,,,,,,,,,,,,,,,,,,,,,,,,,,,,,,,,,
,,,,,,,,2023-08-16_08h40.19.813,HF_wild_card,2022.2.4,Win32,59.96641881,5ac0eabce1546900019bd744,64d2fd46c836a06233681665,64dc7d507a5e5ac3952eb0f0,,,,,,,sngl,resources/Empty.png,resources/DG.BMP,WildCard_Ex,0.275,-0.013888889,1,0,0,1.0529,optionRight,95,3945,2,38,0,38,0,1,,,,,,,,,,,,,,,,,,,,,,,,,,,,,,,,,,,,,,,
,,,,,,,,2023-08-16_08h40.19.813,HF_wild_card,2022.2.4,Win32,59.96641881,5ac0eabce1546900019bd744,64d2fd46c836a06233681665,64dc7d507a5e5ac3952eb0f0,,,,,,,sngl,resources/Empty.png,resources/DB.BMP,Door4,0.332407407,0.02037037,1,0,0,1.1118,optionRight,80,4025,2,39,0,39,0,1,,,,,,,,,,,,,,,,,,,,,,,,,,,,,,,,,,,,,,,
,,,,,,,,2023-08-16_08h40.19.813,HF_wild_card,2022.2.4,Win32,59.96641881,5ac0eabce1546900019bd744,64d2fd46c836a06233681665,64dc7d507a5e5ac3952eb0f0,,,,,,,sngl,resources/DP.BMP,resources/Empty.png,Door2,-0.259259259,-0.062037037,1,0,0,0.8939,optionLeft,20,4045,2,40,0,40,0,1,,,,,,,,,,,,,,,,,,,,,,,,,,,,,,,,,,,,,,,
,,,,,,,,2023-08-16_08h40.19.813,HF_wild_card,2022.2.4,Win32,59.96641881,5ac0eabce1546900019bd744,64d2fd46c836a06233681665,64dc7d507a5e5ac3952eb0f0,,,,,,,ctch,resources/DP.BMP,resources/DBN.BMP,Door2,-0.357407407,-0.118518519,1,0,0,2.6126,optionLeft,20,4065,2,41,0,41,0,1,,,,,,,,,,,,,,,,,,,,,,,,,,,,,,,,,,,,,,,
,,,,,,,,2023-08-16_08h40.19.813,HF_wild_card,2022.2.4,Win32,59.96641881,5ac0eabce1546900019bd744,64d2fd46c836a06233681665,64dc7d507a5e5ac3952eb0f0,,,,,,,decisionTrl,resources/DR.BMP,resources/DG.BMP,Door1,-0.314814815,-0.072222222,1,0,0,1.8754,optionLeft,30,4095,2,42,0,42,0,1,,,,,,,,,,,,,,,,,,,,,,,,,,,,,,,,,,,,,,,
,,,,,,,,2023-08-16_08h40.19.813,HF_wild_card,2022.2.4,Win32,59.96641881,5ac0eabce1546900019bd744,64d2fd46c836a06233681665,64dc7d507a5e5ac3952eb0f0,,,,,,,decisionTrl,resources/DR.BMP,resources/DP.BMP,Door2,0.343518519,0.02037037,1,0,0,1.3108,optionRight,20,4115,2,43,0,43,0,1,,,,,,,,,,,,,,,,,,,,,,,,,,,,,,,,,,,,,,,
,,,,,,,,2023-08-16_08h40.19.813,HF_wild_card,2022.2.4,Win32,59.96641881,5ac0eabce1546900019bd744,64d2fd46c836a06233681665,64dc7d507a5e5ac3952eb0f0,,,,,,,,,,,,,,,,,,,,,,,,,,1,0,1,0,1,,,,,,,,,,,,,,,,,,,,,,,,,,,,,,,,,,
,,,,,,,,2023-08-16_08h40.19.813,HF_wild_card,2022.2.4,Win32,59.96641881,5ac0eabce1546900019bd744,64d2fd46c836a06233681665,64dc7d507a5e5ac3952eb0f0,,,,,,,decisionTrl,resources/DBN.BMP,resources/DB.BMP,Door3,-0.286111111,0.017592593,1,0,0,2.1458,optionLeft,70,4185,3,0,0,0,0,1,,,,,,,,,,,,,,,,,,,,,,,,,,,,,,,,,,,,,,,
,,,,,,,,2023-08-16_08h40.19.813,HF_wild_card,2022.2.4,Win32,59.96641881,5ac0eabce1546900019bd744,64d2fd46c836a06233681665,64dc7d507a5e5ac3952eb0f0,,,,,,,decisionTrl,resources/DB.BMP,resources/DBN.BMP,Door3,0.303703704,-0.001851852,1,0,0,1.2814,optionRight,70,4255,3,1,0,1,0,1,,,,,,,,,,,,,,,,,,,,,,,,,,,,,,,,,,,,,,,
,,,,,,,,2023-08-16_08h40.19.813,HF_wild_card,2022.2.4,Win32,59.96641881,5ac0eabce1546900019bd744,64d2fd46c836a06233681665,64dc7d507a5e5ac3952eb0f0,,,,,,,decisionTrl,resources/DR.BMP,resources/DP.BMP,Door2,0.42037037,-0.02037037,1,0,0,1.621,optionRight,40,4295,3,2,0,2,0,1,,,,,,,,,,,,,,,,,,,,,,,,,,,,,,,,,,,,,,,
,,,,,,,,2023-08-16_08h40.19.813,HF_wild_card,2022.2.4,Win32,59.96641881,5ac0eabce1546900019bd744,64d2fd46c836a06233681665,64dc7d507a5e5ac3952eb0f0,,,,,,,decisionTrl,resources/DG.BMP,resources/DBN.BMP,Door3,0.344444444,0.053703704,1,0,0,1.6975,optionRight,70,4365,3,3,0,3,0,1,,,,,,,,,,,,,,,,,,,,,,,,,,,,,,,,,,,,,,,
,,,,,,,,2023-08-16_08h40.19.813,HF_wild_card,2022.2.4,Win32,59.96641881,5ac0eabce1546900019bd744,64d2fd46c836a06233681665,64dc7d507a5e5ac3952eb0f0,,,,,,,decisionTrl,resources/DB.BMP,resources/DBN.BMP,Door3,0.358333333,0.082407407,1,0,0,1.1309,optionRight,70,4435,3,4,0,4,0,1,,,,,,,,,,,,,,,,,,,,,,,,,,,,,,,,,,,,,,,
,,,,,,,,2023-08-16_08h40.19.813,HF_wild_card,2022.2.4,Win32,59.96641881,5ac0eabce1546900019bd744,64d2fd46c836a06233681665,64dc7d507a5e5ac3952eb0f0,,,,,,,decisionTrl,resources/DBN.BMP,resources/DG.BMP,Door3,-0.293518519,-0.023148148,1,0,0,1.7117,optionLeft,70,4505,3,5,0,5,0,1,,,,,,,,,,,,,,,,,,,,,,,,,,,,,,,,,,,,,,,
,,,,,,,,2023-08-16_08h40.19.813,HF_wild_card,2022.2.4,Win32,59.96641881,5ac0eabce1546900019bd744,64d2fd46c836a06233681665,64dc7d507a5e5ac3952eb0f0,,,,,,,decisionTrl,resources/DG.BMP,resources/DR.BMP,Door1,0.346296296,-0.000925926,1,0,0,1.3666,optionRight,30,4535,3,6,0,6,0,1,,,,,,,,,,,,,,,,,,,,,,,,,,,,,,,,,,,,,,,
,,,,,,,,2023-08-16_08h40.19.813,HF_wild_card,2022.2.4,Win32,59.96641881,5ac0eabce1546900019bd744,64d2fd46c836a06233681665,64dc7d507a5e5ac3952eb0f0,,,,,,,ctch,resources/DR.BMP,resources/DB.BMP,Door1,-0.335185185,-0.075925926,1,0,0,1.2017,optionLeft,30,4565,3,7,0,7,0,1,,,,,,,,,,,,,,,,,,,,,,,,,,,,,,,,,,,,,,,
,,,,,,,,2023-08-16_08h40.19.813,HF_wild_card,2022.2.4,Win32,59.96641881,5ac0eabce1546900019bd744,64d2fd46c836a06233681665,64dc7d507a5e5ac3952eb0f0,,,,,,,decisionTrl,resources/DR.BMP,resources/DG.BMP,Door1,-0.308333333,-0.087037037,1,0,0,2.1127,optionLeft,30,4595,3,8,0,8,0,1,,,,,,,,,,,,,,,,,,,,,,,,,,,,,,,,,,,,,,,
,,,,,,,,2023-08-16_08h40.19.813,HF_wild_card,2022.2.4,Win32,59.96641881,5ac0eabce1546900019bd744,64d2fd46c836a06233681665,64dc7d507a5e5ac3952eb0f0,,,,,,,sngl,resources/Empty.png,resources/DBN.BMP,Door3,0.325925926,0.015740741,1,0,0,1.0605,optionRight,70,4665,3,9,0,9,0,1,,,,,,,,,,,,,,,,,,,,,,,,,,,,,,,,,,,,,,,
,,,,,,,,2023-08-16_08h40.19.813,HF_wild_card,2022.2.4,Win32,59.96641881,5ac0eabce1546900019bd744,64d2fd46c836a06233681665,64dc7d507a5e5ac3952eb0f0,,,,,,,decisionTrl,resources/DR.BMP,resources/DP.BMP,Door2,0.360185185,0.027777778,1,0,0,1.2441,optionRight,40,4705,3,10,0,10,0,1,,,,,,,,,,,,,,,,,,,,,,,,,,,,,,,,,,,,,,,
,,,,,,,,2023-08-16_08h40.19.813,HF_wild_card,2022.2.4,Win32,59.96641881,5ac0eabce1546900019bd744,64d2fd46c836a06233681665,64dc7d507a5e5ac3952eb0f0,,,,,,,decisionTrl,resources/DB.BMP,resources/DG.BMP,WildCard_Ex,0.396296296,0.039814815,1,0,0,1.159,optionRight,5,4710,3,11,0,11,0,1,,,,,,,,,,,,,,,,,,,,,,,,,,,,,,,,,,,,,,,
,,,,,,,,2023-08-16_08h40.19.813,HF_wild_card,2022.2.4,Win32,59.96641881,5ac0eabce1546900019bd744,64d2fd46c836a06233681665,64dc7d507a5e5ac3952eb0f0,,,,,,,decisionTrl,resources/DBN.BMP,resources/DB.BMP,Door3,-0.259259259,-0.060185185,1,0,0,1.4937,optionLeft,70,4780,3,12,0,12,0,1,,,,,,,,,,,,,,,,,,,,,,,,,,,,,,,,,,,,,,,
,,,,,,,,2023-08-16_08h40.19.813,HF_wild_card,2022.2.4,Win32,59.96641881,5ac0eabce1546900019bd744,64d2fd46c836a06233681665,64dc7d507a5e5ac3952eb0f0,,,,,,,ctch,resources/DP.BMP,resources/DBN.BMP,Door3,0.426851852,0.108333333,1,0,0,3.3975,optionRight,70,4850,3,13,0,13,0,1,,,,,,,,,,,,,,,,,,,,,,,,,,,,,,,,,,,,,,,
,,,,,,,,2023-08-16_08h40.19.813,HF_wild_card,2022.2.4,Win32,59.96641881,5ac0eabce1546900019bd744,64d2fd46c836a06233681665,64dc7d507a5e5ac3952eb0f0,,,,,,,sngl,resources/DR.BMP,resources/Empty.png,Door1,-0.27037037,-0.107407407,1,0,0,0.9243,optionLeft,30,4880,3,14,0,14,0,1,,,,,,,,,,,,,,,,,,,,,,,,,,,,,,,,,,,,,,,
,,,,,,,,2023-08-16_08h40.19.813,HF_wild_card,2022.2.4,Win32,59.96641881,5ac0eabce1546900019bd744,64d2fd46c836a06233681665,64dc7d507a5e5ac3952eb0f0,,,,,,,decisionTrl,resources/DR.BMP,resources/DP.BMP,Door1,-0.274074074,-0.076851852,1,0,0,1.9832,optionLeft,30,4910,3,15,0,15,0,1,,,,,,,,,,,,,,,,,,,,,,,,,,,,,,,,,,,,,,,
,,,,,,,,2023-08-16_08h40.19.813,HF_wild_card,2022.2.4,Win32,59.96641881,5ac0eabce1546900019bd744,64d2fd46c836a06233681665,64dc7d507a5e5ac3952eb0f0,,,,,,,decisionTrl,resources/DG.BMP,resources/DB.BMP,WildCard_Ex,-0.27037037,-0.061111111,1,0,0,1.2731,optionLeft,5,4915,3,16,0,16,0,1,,,,,,,,,,,,,,,,,,,,,,,,,,,,,,,,,,,,,,,
,,,,,,,,2023-08-16_08h40.19.813,HF_wild_card,2022.2.4,Win32,59.96641881,5ac0eabce1546900019bd744,64d2fd46c836a06233681665,64dc7d507a5e5ac3952eb0f0,,,,,,,decisionTrl,resources/DP.BMP,resources/DR.BMP,Door1,0.315740741,0.007407407,1,0,0,1.1836,optionRight,30,4945,3,17,0,17,0,1,,,,,,,,,,,,,,,,,,,,,,,,,,,,,,,,,,,,,,,
,,,,,,,,2023-08-16_08h40.19.813,HF_wild_card,2022.2.4,Win32,59.96641881,5ac0eabce1546900019bd744,64d2fd46c836a06233681665,64dc7d507a5e5ac3952eb0f0,,,,,,,ctch,resources/DB.BMP,resources/DR.BMP,Door1,0.29537037,0.013888889,1,0,0,1.7173,optionRight,30,4975,3,18,0,18,0,1,,,,,,,,,,,,,,,,,,,,,,,,,,,,,,,,,,,,,,,
,,,,,,,,2023-08-16_08h40.19.813,HF_wild_card,2022.2.4,Win32,59.96641881,5ac0eabce1546900019bd744,64d2fd46c836a06233681665,64dc7d507a5e5ac3952eb0f0,,,,,,,decisionTrl,resources/DP.BMP,resources/DR.BMP,Door2,-0.364814815,-0.100925926,1,0,0,1.5451,optionLeft,20,4995,3,19,0,19,0,1,,,,,,,,,,,,,,,,,,,,,,,,,,,,,,,,,,,,,,,
,,,,,,,,2023-08-16_08h40.19.813,HF_wild_card,2022.2.4,Win32,59.96641881,5ac0eabce1546900019bd744,64d2fd46c836a06233681665,64dc7d507a5e5ac3952eb0f0,,,,,,,sngl,resources/DP.BMP,resources/Empty.png,Door2,-0.251851852,-0.061111111,1,0,0,1.0302,optionLeft,40,5035,3,20,0,20,0,1,,,,,,,,,,,,,,,,,,,,,,,,,,,,,,,,,,,,,,,
,,,,,,,,2023-08-16_08h40.19.813,HF_wild_card,2022.2.4,Win32,59.96641881,5ac0eabce1546900019bd744,64d2fd46c836a06233681665,64dc7d507a5e5ac3952eb0f0,,,,,,,sngl,resources/Empty.png,resources/DG.BMP,WildCard_Ex,0.372222222,-0.041666667,1,0,0,1.9289,optionRight,5,5040,3,21,0,21,0,1,,,,,,,,,,,,,,,,,,,,,,,,,,,,,,,,,,,,,,,
,,,,,,,,2023-08-16_08h40.19.813,HF_wild_card,2022.2.4,Win32,59.96641881,5ac0eabce1546900019bd744,64d2fd46c836a06233681665,64dc7d507a5e5ac3952eb0f0,,,,,,,decisionTrl,resources/DP.BMP,resources/DR.BMP,Door1,0.314814815,-0.000925926,1,0,0,2.2613,optionRight,30,5070,3,22,0,22,0,1,,,,,,,,,,,,,,,,,,,,,,,,,,,,,,,,,,,,,,,
,,,,,,,,2023-08-16_08h40.19.813,HF_wild_card,2022.2.4,Win32,59.96641881,5ac0eabce1546900019bd744,64d2fd46c836a06233681665,64dc7d507a5e5ac3952eb0f0,,,,,,,decisionTrl,resources/DB.BMP,resources/DBN.BMP,Door3,0.264814815,0.013888889,1,0,0,0.9759,optionRight,70,5140,3,23,0,23,0,1,,,,,,,,,,,,,,,,,,,,,,,,,,,,,,,,,,,,,,,
,,,,,,,,2023-08-16_08h40.19.813,HF_wild_card,2022.2.4,Win32,59.96641881,5ac0eabce1546900019bd744,64d2fd46c836a06233681665,64dc7d507a5e5ac3952eb0f0,,,,,,,sngl,resources/DG.BMP,resources/Empty.png,WildCard_Ex,-0.285185185,-0.072222222,1,0,0,0.8941,optionLeft,95,5235,3,24,0,24,0,1,,,,,,,,,,,,,,,,,,,,,,,,,,,,,,,,,,,,,,,
,,,,,,,,2023-08-16_08h40.19.813,HF_wild_card,2022.2.4,Win32,59.96641881,5ac0eabce1546900019bd744,64d2fd46c836a06233681665,64dc7d507a5e5ac3952eb0f0,,,,,,,sngl,resources/DBN.BMP,resources/Empty.png,Door3,-0.209259259,-0.026851852,1,0,0,0.8947,optionLeft,70,5305,3,25,0,25,0,1,,,,,,,,,,,,,,,,,,,,,,,,,,,,,,,,,,,,,,,
,,,,,,,,2023-08-16_08h40.19.813,HF_wild_card,2022.2.4,Win32,59.96641881,5ac0eabce1546900019bd744,64d2fd46c836a06233681665,64dc7d507a5e5ac3952eb0f0,,,,,,,decisionTrl,resources/DR.BMP,resources/DP.BMP,Door2,0.313888889,0.017592593,1,0,0,1.7113,optionRight,40,5345,3,26,0,26,0,1,,,,,,,,,,,,,,,,,,,,,,,,,,,,,,,,,,,,,,,
,,,,,,,,2023-08-16_08h40.19.813,HF_wild_card,2022.2.4,Win32,59.96641881,5ac0eabce1546900019bd744,64d2fd46c836a06233681665,64dc7d507a5e5ac3952eb0f0,,,,,,,ctch,resources/DR.BMP,resources/DB.BMP,Door1,-0.293518519,-0.075,1,0,0,1.4608,optionLeft,30,5375,3,27,0,27,0,1,,,,,,,,,,,,,,,,,,,,,,,,,,,,,,,,,,,,,,,
,,,,,,,,2023-08-16_08h40.19.813,HF_wild_card,2022.2.4,Win32,59.96641881,5ac0eabce1546900019bd744,64d2fd46c836a06233681665,64dc7d507a5e5ac3952eb0f0,,,,,,,sngl,resources/Empty.png,resources/DG.BMP,WildCard_Ex,0.302777778,-0.017592593,1,0,0,0.825,optionRight,95,5470,3,28,0,28,0,1,,,,,,,,,,,,,,,,,,,,,,,,,,,,,,,,,,,,,,,
,,,,,,,,2023-08-16_08h40.19.813,HF_wild_card,2022.2.4,Win32,59.96641881,5ac0eabce1546900019bd744,64d2fd46c836a06233681665,64dc7d507a5e5ac3952eb0f0,,,,,,,decisionTrl,resources/DP.BMP,resources/DR.BMP,Door2,-0.402777778,-0.156481481,1,0,0,2.1808,optionLeft,40,5510,3,29,0,29,0,1,,,,,,,,,,,,,,,,,,,,,,,,,,,,,,,,,,,,,,,
,,,,,,,,2023-08-16_08h40.19.813,HF_wild_card,2022.2.4,Win32,59.96641881,5ac0eabce1546900019bd744,64d2fd46c836a06233681665,64dc7d507a5e5ac3952eb0f0,,,,,,,ctch,resources/DBN.BMP,resources/DP.BMP,Door2,0.375,0.02962963,1,0,0,1.5473,optionRight,20,5530,3,30,0,30,0,1,,,,,,,,,,,,,,,,,,,,,,,,,,,,,,,,,,,,,,,
,,,,,,,,2023-08-16_08h40.19.813,HF_wild_card,2022.2.4,Win32,59.96641881,5ac0eabce1546900019bd744,64d2fd46c836a06233681665,64dc7d507a5e5ac3952eb0f0,,,,,,,ctch,resources/DP.BMP,resources/DBN.BMP,Door2,-0.215740741,-0.110185185,1,0,0,1.4632,optionLeft,20,5550,3,31,0,31,0,1,,,,,,,,,,,,,,,,,,,,,,,,,,,,,,,,,,,,,,,
,,,,,,,,2023-08-16_08h40.19.813,HF_wild_card,2022.2.4,Win32,59.96641881,5ac0eabce1546900019bd744,64d2fd46c836a06233681665,64dc7d507a5e5ac3952eb0f0,,,,,,,ctch,resources/DB.BMP,resources/DR.BMP,Door1,0.258333333,-0.005555556,1,0,0,1.094,optionRight,30,5580,3,32,0,32,0,1,,,,,,,,,,,,,,,,,,,,,,,,,,,,,,,,,,,,,,,
,,,,,,,,2023-08-16_08h40.19.813,HF_wild_card,2022.2.4,Win32,59.96641881,5ac0eabce1546900019bd744,64d2fd46c836a06233681665,64dc7d507a5e5ac3952eb0f0,,,,,,,decisionTrl,resources/DG.BMP,resources/DP.BMP,WildCard_Ex,-0.310185185,-0.068518519,1,0,0,1.6633,optionLeft,5,5585,3,33,0,33,0,1,,,,,,,,,,,,,,,,,,,,,,,,,,,,,,,,,,,,,,,
,,,,,,,,2023-08-16_08h40.19.813,HF_wild_card,2022.2.4,Win32,59.96641881,5ac0eabce1546900019bd744,64d2fd46c836a06233681665,64dc7d507a5e5ac3952eb0f0,,,,,,,sngl,resources/Empty.png,resources/DR.BMP,Door1,0.32037037,-0.025925926,1,0,0,0.7463,optionRight,30,5615,3,34,0,34,0,1,,,,,,,,,,,,,,,,,,,,,,,,,,,,,,,,,,,,,,,
,,,,,,,,2023-08-16_08h40.19.813,HF_wild_card,2022.2.4,Win32,59.96641881,5ac0eabce1546900019bd744,64d2fd46c836a06233681665,64dc7d507a5e5ac3952eb0f0,,,,,,,decisionTrl,resources/DBN.BMP,resources/DB.BMP,Door3,-0.233333333,-0.087037037,1,0,0,1.4135,optionLeft,70,5685,3,35,0,35,0,1,,,,,,,,,,,,,,,,,,,,,,,,,,,,,,,,,,,,,,,
,,,,,,,,2023-08-16_08h40.19.813,HF_wild_card,2022.2.4,Win32,59.96641881,5ac0eabce1546900019bd744,64d2fd46c836a06233681665,64dc7d507a5e5ac3952eb0f0,,,,,,,decisionTrl,resources/DBN.BMP,resources/DB.BMP,Door4,0.312037037,0.018518519,1,0,0,1.7255,optionRight,80,5765,3,36,0,36,0,1,,,,,,,,,,,,,,,,,,,,,,,,,,,,,,,,,,,,,,,
,,,,,,,,2023-08-16_08h40.19.813,HF_wild_card,2022.2.4,Win32,59.96641881,5ac0eabce1546900019bd744,64d2fd46c836a06233681665,64dc7d507a5e5ac3952eb0f0,,,,,,,sngl,resources/DG.BMP,resources/Empty.png,WildCard_Ex,-0.234259259,-0.069444444,1,0,0,0.9679,optionLeft,5,5770,3,37,0,37,0,1,,,,,,,,,,,,,,,,,,,,,,,,,,,,,,,,,,,,,,,
,,,,,,,,2023-08-16_08h40.19.813,HF_wild_card,2022.2.4,Win32,59.96641881,5ac0eabce1546900019bd744,64d2fd46c836a06233681665,64dc7d507a5e5ac3952eb0f0,,,,,,,decisionTrl,resources/DP.BMP,resources/DG.BMP,WildCard_Ex,0.259259259,-0.040740741,1,0,0,1.8985,optionRight,95,5865,3,38,0,38,0,1,,,,,,,,,,,,,,,,,,,,,,,,,,,,,,,,,,,,,,,
,,,,,,,,2023-08-16_08h40.19.813,HF_wild_card,2022.2.4,Win32,59.96641881,5ac0eabce1546900019bd744,64d2fd46c836a06233681665,64dc7d507a5e5ac3952eb0f0,,,,,,,ctch,resources/DBN.BMP,resources/DP.BMP,Door3,-0.289814815,-0.121296296,1,0,0,1.8784,optionLeft,70,5935,3,39,0,39,0,1,,,,,,,,,,,,,,,,,,,,,,,,,,,,,,,,,,,,,,,
,,,,,,,,2023-08-16_08h40.19.813,HF_wild_card,2022.2.4,Win32,59.96641881,5ac0eabce1546900019bd744,64d2fd46c836a06233681665,64dc7d507a5e5ac3952eb0f0,,,,,,,sngl,resources/Empty.png,resources/DB.BMP,Door4,0.45,0.018518519,1,0,0,1.0928,optionRight,60,5995,3,40,0,40,0,1,,,,,,,,,,,,,,,,,,,,,,,,,,,,,,,,,,,,,,,
,,,,,,,,2023-08-16_08h40.19.813,HF_wild_card,2022.2.4,Win32,59.96641881,5ac0eabce1546900019bd744,64d2fd46c836a06233681665,64dc7d507a5e5ac3952eb0f0,,,,,,,sngl,resources/Empty.png,resources/DP.BMP,Door2,0.301851852,-0.066666667,1,0,0,1.3143,optionRight,20,6015,3,41,0,41,0,1,,,,,,,,,,,,,,,,,,,,,,,,,,,,,,,,,,,,,,,
,,,,,,,,2023-08-16_08h40.19.813,HF_wild_card,2022.2.4,Win32,59.96641881,5ac0eabce1546900019bd744,64d2fd46c836a06233681665,64dc7d507a5e5ac3952eb0f0,,,,,,,sngl,resources/DB.BMP,resources/Empty.png,Door4,-0.237037037,-0.086111111,1,0,0,1.1273,optionLeft,80,6095,3,42,0,42,0,1,,,,,,,,,,,,,,,,,,,,,,,,,,,,,,,,,,,,,,,
,,,,,,,,2023-08-16_08h40.19.813,HF_wild_card,2022.2.4,Win32,59.96641881,5ac0eabce1546900019bd744,64d2fd46c836a06233681665,64dc7d507a5e5ac3952eb0f0,,,,,,,decisionTrl,resources/DB.BMP,resources/DBN.BMP,Door4,-0.333333333,-0.137037037,1,0,0,1.5611,optionLeft,60,6155,3,43,0,43,0,1,,,,,,,,,,,,,,,,,,,,,,,,,,,,,,,,,,,,,,,
,,,,,,,,2023-08-16_08h40.19.813,HF_wild_card,2022.2.4,Win32,59.96641881,5ac0eabce1546900019bd744,64d2fd46c836a06233681665,64dc7d507a5e5ac3952eb0f0,,,,,,,,,,,,,,,,,,,,,,,,,,2,0,2,0,1,,,,,,,,,,,,,,,,,,,,,,,,,,,,,,,,,,
,,,,,,,,2023-08-16_08h40.19.813,HF_wild_card,2022.2.4,Win32,59.96641881,5ac0eabce1546900019bd744,64d2fd46c836a06233681665,64dc7d507a5e5ac3952eb0f0,,,,,,,sngl,resources/DB.BMP,resources/Empty.png,Door4,-0.290740741,-0.066666667,1,0,0,1.1036,optionLeft,60,6215,4,0,0,0,0,1,,,,,,,,,,,,,,,,,,,,,,,,,,,,,,,,,,,,,,,
,,,,,,,,2023-08-16_08h40.19.813,HF_wild_card,2022.2.4,Win32,59.96641881,5ac0eabce1546900019bd744,64d2fd46c836a06233681665,64dc7d507a5e5ac3952eb0f0,,,,,,,ctch,resources/DB.BMP,resources/DR.BMP,Door4,-0.218518519,-0.049074074,1,0,0,1.2941,optionLeft,60,6275,4,1,0,1,0,1,,,,,,,,,,,,,,,,,,,,,,,,,,,,,,,,,,,,,,,
,,,,,,,,2023-08-16_08h40.19.813,HF_wild_card,2022.2.4,Win32,59.96641881,5ac0eabce1546900019bd744,64d2fd46c836a06233681665,64dc7d507a5e5ac3952eb0f0,,,,,,,decisionTrl,resources/DR.BMP,resources/DY.BMP,WildCard_NonEx,0.351851852,-0.014814815,1,0,0,1.2437,optionRight,55,6330,4,2,0,2,0,1,,,,,,,,,,,,,,,,,,,,,,,,,,,,,,,,,,,,,,,
,,,,,,,,2023-08-16_08h40.19.813,HF_wild_card,2022.2.4,Win32,59.96641881,5ac0eabce1546900019bd744,64d2fd46c836a06233681665,64dc7d507a5e5ac3952eb0f0,,,,,,,sngl,resources/Empty.png,resources/DP.BMP,Door2,0.292592593,0.017592593,1,0,0,0.7668,optionRight,40,6370,4,3,0,3,0,1,,,,,,,,,,,,,,,,,,,,,,,,,,,,,,,,,,,,,,,
,,,,,,,,2023-08-16_08h40.19.813,HF_wild_card,2022.2.4,Win32,59.96641881,5ac0eabce1546900019bd744,64d2fd46c836a06233681665,64dc7d507a5e5ac3952eb0f0,,,,,,,decisionTrl,resources/DBN.BMP,resources/DB.BMP,Door4,0.263888889,0.038888889,1,0,0,1.5149,optionRight,60,6430,4,4,0,4,0,1,,,,,,,,,,,,,,,,,,,,,,,,,,,,,,,,,,,,,,,
,,,,,,,,2023-08-16_08h40.19.813,HF_wild_card,2022.2.4,Win32,59.96641881,5ac0eabce1546900019bd744,64d2fd46c836a06233681665,64dc7d507a5e5ac3952eb0f0,,,,,,,ctch,resources/DR.BMP,resources/DB.BMP,Door4,0.357407407,0.032407407,1,0,0,1.5291,optionRight,60,6490,4,5,0,5,0,1,,,,,,,,,,,,,,,,,,,,,,,,,,,,,,,,,,,,,,,
,,,,,,,,2023-08-16_08h40.19.813,HF_wild_card,2022.2.4,Win32,59.96641881,5ac0eabce1546900019bd744,64d2fd46c836a06233681665,64dc7d507a5e5ac3952eb0f0,,,,,,,decisionTrl,resources/DY.BMP,resources/DR.BMP,WildCard_NonEx,-0.288888889,-0.034259259,1,0,0,1.1112,optionLeft,55,6545,4,6,0,6,0,1,,,,,,,,,,,,,,,,,,,,,,,,,,,,,,,,,,,,,,,
,,,,,,,,2023-08-16_08h40.19.813,HF_wild_card,2022.2.4,Win32,59.96641881,5ac0eabce1546900019bd744,64d2fd46c836a06233681665,64dc7d507a5e5ac3952eb0f0,,,,,,,sngl,resources/DP.BMP,resources/Empty.png,Door2,-0.232407407,-0.031481481,1,0,0,0.82,optionLeft,20,6565,4,7,0,7,0,1,,,,,,,,,,,,,,,,,,,,,,,,,,,,,,,,,,,,,,,
,,,,,,,,2023-08-16_08h40.19.813,HF_wild_card,2022.2.4,Win32,59.96641881,5ac0eabce1546900019bd744,64d2fd46c836a06233681665,64dc7d507a5e5ac3952eb0f0,,,,,,,decisionTrl,resources/DY.BMP,resources/DBN.BMP,WildCard_NonEx,-0.323148148,-0.05,1,0,0,1.6757,optionLeft,55,6620,4,8,0,8,0,1,,,,,,,,,,,,,,,,,,,,,,,,,,,,,,,,,,,,,,,
,,,,,,,,2023-08-16_08h40.19.813,HF_wild_card,2022.2.4,Win32,59.96641881,5ac0eabce1546900019bd744,64d2fd46c836a06233681665,64dc7d507a5e5ac3952eb0f0,,,,,,,sngl,resources/DBN.BMP,resources/Empty.png,Door3,-0.214814815,-0.025925926,1,0,0,0.804,optionLeft,70,6690,4,9,0,9,0,1,,,,,,,,,,,,,,,,,,,,,,,,,,,,,,,,,,,,,,,
,,,,,,,,2023-08-16_08h40.19.813,HF_wild_card,2022.2.4,Win32,59.96641881,5ac0eabce1546900019bd744,64d2fd46c836a06233681665,64dc7d507a5e5ac3952eb0f0,,,,,,,decisionTrl,resources/DBN.BMP,resources/DY.BMP,Door3,-0.246296296,-0.034259259,1,0,0,1.7178,optionLeft,70,6760,4,10,0,10,0,1,,,,,,,,,,,,,,,,,,,,,,,,,,,,,,,,,,,,,,,
,,,,,,,,2023-08-16_08h40.19.813,HF_wild_card,2022.2.4,Win32,59.96641881,5ac0eabce1546900019bd744,64d2fd46c836a06233681665,64dc7d507a5e5ac3952eb0f0,,,,,,,decisionTrl,resources/DBN.BMP,resources/DB.BMP,Door4,0.336111111,0.027777778,1,0,0,1.4442,optionRight,60,6820,4,11,0,11,0,1,,,,,,,,,,,,,,,,,,,,,,,,,,,,,,,,,,,,,,,
,,,,,,,,2023-08-16_08h40.19.813,HF_wild_card,2022.2.4,Win32,59.96641881,5ac0eabce1546900019bd744,64d2fd46c836a06233681665,64dc7d507a5e5ac3952eb0f0,,,,,,,sngl,resources/Empty.png,resources/DBN.BMP,Door3,0.249074074,0.037962963,1,0,0,0.7715,optionRight,70,6890,4,12,0,12,0,1,,,,,,,,,,,,,,,,,,,,,,,,,,,,,,,,,,,,,,,
,,,,,,,,2023-08-16_08h40.19.813,HF_wild_card,2022.2.4,Win32,59.96641881,5ac0eabce1546900019bd744,64d2fd46c836a06233681665,64dc7d507a5e5ac3952eb0f0,,,,,,,decisionTrl,resources/DBN.BMP,resources/DB.BMP,Door3,-0.287962963,-0.052777778,1,0,0,1.5836,optionLeft,70,6960,4,13,0,13,0,1,,,,,,,,,,,,,,,,,,,,,,,,,,,,,,,,,,,,,,,
,,,,,,,,2023-08-16_08h40.19.813,HF_wild_card,2022.2.4,Win32,59.96641881,5ac0eabce1546900019bd744,64d2fd46c836a06233681665,64dc7d507a5e5ac3952eb0f0,,,,,,,sngl,resources/DR.BMP,resources/Empty.png,Door1,-0.255555556,-0.068518519,1,0,0,0.7471,optionLeft,30,6990,4,14,0,14,0,1,,,,,,,,,,,,,,,,,,,,,,,,,,,,,,,,,,,,,,,
,,,,,,,,2023-08-16_08h40.19.813,HF_wild_card,2022.2.4,Win32,59.96641881,5ac0eabce1546900019bd744,64d2fd46c836a06233681665,64dc7d507a5e5ac3952eb0f0,,,,,,,decisionTrl,resources/DB.BMP,resources/DBN.BMP,Door4,-0.22037037,-0.034259259,1,0,0,1.1833,optionLeft,80,7070,4,15,0,15,0,1,,,,,,,,,,,,,,,,,,,,,,,,,,,,,,,,,,,,,,,
,,,,,,,,2023-08-16_08h40.19.813,HF_wild_card,2022.2.4,Win32,59.96641881,5ac0eabce1546900019bd744,64d2fd46c836a06233681665,64dc7d507a5e5ac3952eb0f0,,,,,,,decisionTrl,resources/DBN.BMP,resources/DB.BMP,Door3,-0.246296296,-0.05462963,1,0,0,1.4809,optionLeft,70,7140,4,16,0,16,0,1,,,,,,,,,,,,,,,,,,,,,,,,,,,,,,,,,,,,,,,
,,,,,,,,2023-08-16_08h40.19.813,HF_wild_card,2022.2.4,Win32,59.96641881,5ac0eabce1546900019bd744,64d2fd46c836a06233681665,64dc7d507a5e5ac3952eb0f0,,,,,,,sngl,resources/Empty.png,resources/DY.BMP,WildCard_NonEx,0.247222222,0.034259259,1,0,0,0.784,optionRight,55,7195,4,17,0,17,0,1,,,,,,,,,,,,,,,,,,,,,,,,,,,,,,,,,,,,,,,
,,,,,,,,2023-08-16_08h40.19.813,HF_wild_card,2022.2.4,Win32,59.96641881,5ac0eabce1546900019bd744,64d2fd46c836a06233681665,64dc7d507a5e5ac3952eb0f0,,,,,,,ctch,resources/DBN.BMP,resources/DP.BMP,Door3,-0.239814815,-0.044444444,1,0,0,1.9346,optionLeft,70,7265,4,18,0,18,0,1,,,,,,,,,,,,,,,,,,,,,,,,,,,,,,,,,,,,,,,
,,,,,,,,2023-08-16_08h40.19.813,HF_wild_card,2022.2.4,Win32,59.96641881,5ac0eabce1546900019bd744,64d2fd46c836a06233681665,64dc7d507a5e5ac3952eb0f0,,,,,,,decisionTrl,resources/DR.BMP,resources/DP.BMP,Door2,0.296296296,0.02037037,1,0,0,1.716,optionRight,20,7285,4,19,0,19,0,1,,,,,,,,,,,,,,,,,,,,,,,,,,,,,,,,,,,,,,,
,,,,,,,,2023-08-16_08h40.19.813,HF_wild_card,2022.2.4,Win32,59.96641881,5ac0eabce1546900019bd744,64d2fd46c836a06233681665,64dc7d507a5e5ac3952eb0f0,,,,,,,sngl,resources/Empty.png,resources/DB.BMP,Door4,0.263888889,0.057407407,1,0,0,0.8503,optionRight,80,7365,4,20,0,20,0,1,,,,,,,,,,,,,,,,,,,,,,,,,,,,,,,,,,,,,,,
,,,,,,,,2023-08-16_08h40.19.813,HF_wild_card,2022.2.4,Win32,59.96641881,5ac0eabce1546900019bd744,64d2fd46c836a06233681665,64dc7d507a5e5ac3952eb0f0,,,,,,,sngl,resources/Empty.png,resources/DR.BMP,Door1,0.249074074,0.018518519,1,0,0,0.7438,optionRight,30,7395,4,21,0,21,0,1,,,,,,,,,,,,,,,,,,,,,,,,,,,,,,,,,,,,,,,
,,,,,,,,2023-08-16_08h40.19.813,HF_wild_card,2022.2.4,Win32,59.96641881,5ac0eabce1546900019bd744,64d2fd46c836a06233681665,64dc7d507a5e5ac3952eb0f0,,,,,,,decisionTrl,resources/DR.BMP,resources/DP.BMP,Door1,-0.273148148,-0.05462963,1,0,0,1.0945,optionLeft,30,7425,4,22,0,22,0,1,,,,,,,,,,,,,,,,,,,,,,,,,,,,,,,,,,,,,,,
,,,,,,,,2023-08-16_08h40.19.813,HF_wild_card,2022.2.4,Win32,59.96641881,5ac0eabce1546900019bd744,64d2fd46c836a06233681665,64dc7d507a5e5ac3952eb0f0,,,,,,,ctch,resources/DP.BMP,resources/DBN.BMP,Door2,-0.275925926,-0.057407407,1,0,0,1.5051,optionLeft,40,7465,4,23,0,23,0,1,,,,,,,,,,,,,,,,,,,,,,,,,,,,,,,,,,,,,,,
,,,,,,,,2023-08-16_08h40.19.813,HF_wild_card,2022.2.4,Win32,59.96641881,5ac0eabce1546900019bd744,64d2fd46c836a06233681665,64dc7d507a5e5ac3952eb0f0,,,,,,,ctch,resources/DB.BMP,resources/DR.BMP,Door4,-0.281481481,-0.048148148,1,0,0,1.3194,optionLeft,80,7545,4,24,0,24,0,1,,,,,,,,,,,,,,,,,,,,,,,,,,,,,,,,,,,,,,,
,,,,,,,,2023-08-16_08h40.19.813,HF_wild_card,2022.2.4,Win32,59.96641881,5ac0eabce1546900019bd744,64d2fd46c836a06233681665,64dc7d507a5e5ac3952eb0f0,,,,,,,sngl,resources/Empty.png,resources/DY.BMP,WildCard_NonEx,0.285185185,0.034259259,1,0,0,0.8457,optionRight,45,7590,4,25,0,25,0,1,,,,,,,,,,,,,,,,,,,,,,,,,,,,,,,,,,,,,,,
,,,,,,,,2023-08-16_08h40.19.813,HF_wild_card,2022.2.4,Win32,59.96641881,5ac0eabce1546900019bd744,64d2fd46c836a06233681665,64dc7d507a5e5ac3952eb0f0,,,,,,,decisionTrl,resources/DP.BMP,resources/DR.BMP,Door1,0.251851852,0.025,1,0,0,2.165,optionRight,30,7620,4,26,0,26,0,1,,,,,,,,,,,,,,,,,,,,,,,,,,,,,,,,,,,,,,,
,,,,,,,,2023-08-16_08h40.19.813,HF_wild_card,2022.2.4,Win32,59.96641881,5ac0eabce1546900019bd744,64d2fd46c836a06233681665,64dc7d507a5e5ac3952eb0f0,,,,,,,ctch,resources/DR.BMP,resources/DB.BMP,Door4,0.321296296,0.032407407,1,0,0,1.386,optionRight,80,7700,4,27,0,27,0,1,,,,,,,,,,,,,,,,,,,,,,,,,,,,,,,,,,,,,,,
,,,,,,,,2023-08-16_08h40.19.813,HF_wild_card,2022.2.4,Win32,59.96641881,5ac0eabce1546900019bd744,64d2fd46c836a06233681665,64dc7d507a5e5ac3952eb0f0,,,,,,,decisionTrl,resources/DB.BMP,resources/DBN.BMP,Door4,-0.248148148,-0.078703704,1,0,0,1.3845,optionLeft,80,7780,4,28,0,28,0,1,,,,,,,,,,,,,,,,,,,,,,,,,,,,,,,,,,,,,,,
,,,,,,,,2023-08-16_08h40.19.813,HF_wild_card,2022.2.4,Win32,59.96641881,5ac0eabce1546900019bd744,64d2fd46c836a06233681665,64dc7d507a5e5ac3952eb0f0,,,,,,,decisionTrl,resources/DB.BMP,resources/DY.BMP,WildCard_NonEx,0.277777778,0.049074074,1,0,0,1.1087,optionRight,55,7835,4,29,0,29,0,1,,,,,,,,,,,,,,,,,,,,,,,,,,,,,,,,,,,,,,,
,,,,,,,,2023-08-16_08h40.19.813,HF_wild_card,2022.2.4,Win32,59.96641881,5ac0eabce1546900019bd744,64d2fd46c836a06233681665,64dc7d507a5e5ac3952eb0f0,,,,,,,sngl,resources/DY.BMP,resources/Empty.png,WildCard_NonEx,-0.134259259,-0.040740741,1,0,0,0.7601,optionLeft,55,7890,4,30,0,30,0,1,,,,,,,,,,,,,,,,,,,,,,,,,,,,,,,,,,,,,,,
,,,,,,,,2023-08-16_08h40.19.813,HF_wild_card,2022.2.4,Win32,59.96641881,5ac0eabce1546900019bd744,64d2fd46c836a06233681665,64dc7d507a5e5ac3952eb0f0,,,,,,,decisionTrl,resources/DR.BMP,resources/DP.BMP,Door1,-0.216666667,-0.071296296,1,0,0,1.3523,optionLeft,30,7920,4,31,0,31,0,1,,,,,,,,,,,,,,,,,,,,,,,,,,,,,,,,,,,,,,,
,,,,,,,,2023-08-16_08h40.19.813,HF_wild_card,2022.2.4,Win32,59.96641881,5ac0eabce1546900019bd744,64d2fd46c836a06233681665,64dc7d507a5e5ac3952eb0f0,,,,,,,decisionTrl,resources/DY.BMP,resources/DP.BMP,WildCard_NonEx,-0.263888889,-0.083333333,1,0,0,1.0445,optionLeft,55,7975,4,32,0,32,0,1,,,,,,,,,,,,,,,,,,,,,,,,,,,,,,,,,,,,,,,
,,,,,,,,2023-08-16_08h40.19.813,HF_wild_card,2022.2.4,Win32,59.96641881,5ac0eabce1546900019bd744,64d2fd46c836a06233681665,64dc7d507a5e5ac3952eb0f0,,,,,,,sngl,resources/DY.BMP,resources/Empty.png,WildCard_NonEx,-0.196296296,-0.047222222,1,0,0,1.0279,optionLeft,45,8020,4,33,0,33,0,1,,,,,,,,,,,,,,,,,,,,,,,,,,,,,,,,,,,,,,,
,,,,,,,,2023-08-16_08h40.19.813,HF_wild_card,2022.2.4,Win32,59.96641881,5ac0eabce1546900019bd744,64d2fd46c836a06233681665,64dc7d507a5e5ac3952eb0f0,,,,,,,ctch,resources/DBN.BMP,resources/DP.BMP,Door2,0.306481481,0.041666667,1,0,0,1.5441,optionRight,20,8040,4,34,0,34,0,1,,,,,,,,,,,,,,,,,,,,,,,,,,,,,,,,,,,,,,,
,,,,,,,,2023-08-16_08h40.19.813,HF_wild_card,2022.2.4,Win32,59.96641881,5ac0eabce1546900019bd744,64d2fd46c836a06233681665,64dc7d507a5e5ac3952eb0f0,,,,,,,decisionTrl,resources/DP.BMP,resources/DR.BMP,Door2,-0.230555556,-0.038888889,1,0,0,1.4775,optionLeft,40,8080,4,35,0,35,0,1,,,,,,,,,,,,,,,,,,,,,,,,,,,,,,,,,,,,,,,
,,,,,,,,2023-08-16_08h40.19.813,HF_wild_card,2022.2.4,Win32,59.96641881,5ac0eabce1546900019bd744,64d2fd46c836a06233681665,64dc7d507a5e5ac3952eb0f0,,,,,,,decisionTrl,resources/DB.BMP,resources/DBN.BMP,Door4,-0.284259259,-0.071296296,1,0,0,1.226,optionLeft,60,8140,4,36,0,36,0,1,,,,,,,,,,,,,,,,,,,,,,,,,,,,,,,,,,,,,,,
,,,,,,,,2023-08-16_08h40.19.813,HF_wild_card,2022.2.4,Win32,59.96641881,5ac0eabce1546900019bd744,64d2fd46c836a06233681665,64dc7d507a5e5ac3952eb0f0,,,,,,,decisionTrl,resources/DR.BMP,resources/DP.BMP,Door2,0.303703704,0.030555556,1,0,0,1.6972,optionRight,40,8180,4,37,0,37,0,1,,,,,,,,,,,,,,,,,,,,,,,,,,,,,,,,,,,,,,,
,,,,,,,,2023-08-16_08h40.19.813,HF_wild_card,2022.2.4,Win32,59.96641881,5ac0eabce1546900019bd744,64d2fd46c836a06233681665,64dc7d507a5e5ac3952eb0f0,,,,,,,decisionTrl,resources/DP.BMP,resources/DR.BMP,Door2,-0.301851852,-0.103703704,1,0,0,1.6948,optionLeft,20,8200,4,38,0,38,0,1,,,,,,,,,,,,,,,,,,,,,,,,,,,,,,,,,,,,,,,
,,,,,,,,2023-08-16_08h40.19.813,HF_wild_card,2022.2.4,Win32,59.96641881,5ac0eabce1546900019bd744,64d2fd46c836a06233681665,64dc7d507a5e5ac3952eb0f0,,,,,,,decisionTrl,resources/DP.BMP,resources/DY.BMP,WildCard_NonEx,0.260185185,0.040740741,1,0,0,1.1489,optionRight,45,8245,4,39,0,39,0,1,,,,,,,,,,,,,,,,,,,,,,,,,,,,,,,,,,,,,,,
,,,,,,,,2023-08-16_08h40.19.813,HF_wild_card,2022.2.4,Win32,59.96641881,5ac0eabce1546900019bd744,64d2fd46c836a06233681665,64dc7d507a5e5ac3952eb0f0,,,,,,,ctch,resources/DP.BMP,resources/DBN.BMP,Door3,0.287037037,0.050925926,1,0,0,1.4961,optionRight,70,8315,4,40,0,40,0,1,,,,,,,,,,,,,,,,,,,,,,,,,,,,,,,,,,,,,,,
,,,,,,,,2023-08-16_08h40.19.813,HF_wild_card,2022.2.4,Win32,59.96641881,5ac0eabce1546900019bd744,64d2fd46c836a06233681665,64dc7d507a5e5ac3952eb0f0,,,,,,,decisionTrl,resources/DB.BMP,resources/DBN.BMP,Door4,-0.299074074,-0.07962963,1,0,0,1.3289,optionLeft,60,8375,4,41,0,41,0,1,,,,,,,,,,,,,,,,,,,,,,,,,,,,,,,,,,,,,,,
,,,,,,,,2023-08-16_08h40.19.813,HF_wild_card,2022.2.4,Win32,59.96641881,5ac0eabce1546900019bd744,64d2fd46c836a06233681665,64dc7d507a5e5ac3952eb0f0,,,,,,,decisionTrl,resources/DP.BMP,resources/DR.BMP,Door2,-0.280555556,-0.053703704,1,0,0,1.864,optionLeft,20,8395,4,42,0,42,0,1,,,,,,,,,,,,,,,,,,,,,,,,,,,,,,,,,,,,,,,
,,,,,,,,2023-08-16_08h40.19.813,HF_wild_card,2022.2.4,Win32,59.96641881,5ac0eabce1546900019bd744,64d2fd46c836a06233681665,64dc7d507a5e5ac3952eb0f0,,,,,,,decisionTrl,resources/DY.BMP,resources/DB.BMP,WildCard_NonEx,-0.264814815,-0.044444444,1,0,0,1.1121,optionLeft,55,8450,4,43,0,43,0,1,,,,,,,,,,,,,,,,,,,,,,,,,,,,,,,,,,,,,,,
,,,,,,,,2023-08-16_08h40.19.813,HF_wild_card,2022.2.4,Win32,59.96641881,5ac0eabce1546900019bd744,64d2fd46c836a06233681665,64dc7d507a5e5ac3952eb0f0,,,,,,,,,,,,,,,,,,,,,,,,,,3,0,3,0,1,,,,,,,,,,,,,,,,,,,,,,,,,,,,,,,,,,
,,,,,,,,2023-08-16_08h40.19.813,HF_wild_card,2022.2.4,Win32,59.96641881,5ac0eabce1546900019bd744,64d2fd46c836a06233681665,64dc7d507a5e5ac3952eb0f0,,,,,,,ctch,resources/DB.BMP,resources/DR.BMP,Door1,0.391666667,0.037962963,1,0,0,1.9576,optionRight,30,8480,5,0,0,0,0,1,,,,,,,,,,,,,,,,,,,,,,,,,,,,,,,,,,,,,,,
,,,,,,,,2023-08-16_08h40.19.813,HF_wild_card,2022.2.4,Win32,59.96641881,5ac0eabce1546900019bd744,64d2fd46c836a06233681665,64dc7d507a5e5ac3952eb0f0,,,,,,,ctch,resources/DR.BMP,resources/DB.BMP,Door1,-0.260185185,-0.016666667,1,0,0,0.9676,optionLeft,30,8510,5,1,0,1,0,1,,,,,,,,,,,,,,,,,,,,,,,,,,,,,,,,,,,,,,,
,,,,,,,,2023-08-16_08h40.19.813,HF_wild_card,2022.2.4,Win32,59.96641881,5ac0eabce1546900019bd744,64d2fd46c836a06233681665,64dc7d507a5e5ac3952eb0f0,,,,,,,sngl,resources/DY.BMP,resources/Empty.png,WildCard_NonEx,-0.196296296,-0.04537037,1,0,0,0.9214,optionLeft,55,8565,5,2,0,2,0,1,,,,,,,,,,,,,,,,,,,,,,,,,,,,,,,,,,,,,,,
,,,,,,,,2023-08-16_08h40.19.813,HF_wild_card,2022.2.4,Win32,59.96641881,5ac0eabce1546900019bd744,64d2fd46c836a06233681665,64dc7d507a5e5ac3952eb0f0,,,,,,,decisionTrl,resources/DBN.BMP,resources/DB.BMP,Door4,0.32037037,0.068518519,1,0,0,1.3179,optionRight,80,8645,5,3,0,3,0,1,,,,,,,,,,,,,,,,,,,,,,,,,,,,,,,,,,,,,,,
,,,,,,,,2023-08-16_08h40.19.813,HF_wild_card,2022.2.4,Win32,59.96641881,5ac0eabce1546900019bd744,64d2fd46c836a06233681665,64dc7d507a5e5ac3952eb0f0,,,,,,,sngl,resources/Empty.png,resources/DR.BMP,Door1,0.24537037,0.05462963,1,0,0,0.7945,optionRight,30,8675,5,4,0,4,0,1,,,,,,,,,,,,,,,,,,,,,,,,,,,,,,,,,,,,,,,
,,,,,,,,2023-08-16_08h40.19.813,HF_wild_card,2022.2.4,Win32,59.96641881,5ac0eabce1546900019bd744,64d2fd46c836a06233681665,64dc7d507a5e5ac3952eb0f0,,,,,,,ctch,resources/DP.BMP,resources/DBN.BMP,Door2,-0.335185185,-0.099074074,1,0,0,1.0611,optionLeft,40,8715,5,5,0,5,0,1,,,,,,,,,,,,,,,,,,,,,,,,,,,,,,,,,,,,,,,
,,,,,,,,2023-08-16_08h40.19.813,HF_wild_card,2022.2.4,Win32,59.96641881,5ac0eabce1546900019bd744,64d2fd46c836a06233681665,64dc7d507a5e5ac3952eb0f0,,,,,,,decisionTrl,resources/DR.BMP,resources/DP.BMP,Door2,0.259259259,0.000925926,1,0,0,1.1619,optionRight,20,8735,5,6,0,6,0,1,,,,,,,,,,,,,,,,,,,,,,,,,,,,,,,,,,,,,,,
,,,,,,,,2023-08-16_08h40.19.813,HF_wild_card,2022.2.4,Win32,59.96641881,5ac0eabce1546900019bd744,64d2fd46c836a06233681665,64dc7d507a5e5ac3952eb0f0,,,,,,,ctch,resources/DBN.BMP,resources/DP.BMP,Door2,0.237037037,0.032407407,1,0,0,1.0326,optionRight,20,8755,5,7,0,7,0,1,,,,,,,,,,,,,,,,,,,,,,,,,,,,,,,,,,,,,,,
,,,,,,,,2023-08-16_08h40.19.813,HF_wild_card,2022.2.4,Win32,59.96641881,5ac0eabce1546900019bd744,64d2fd46c836a06233681665,64dc7d507a5e5ac3952eb0f0,,,,,,,sngl,resources/Empty.png,resources/DB.BMP,Door4,0.300925926,0.04537037,1,0,0,1.11,optionRight,60,8815,5,8,0,8,0,1,,,,,,,,,,,,,,,,,,,,,,,,,,,,,,,,,,,,,,,
,,,,,,,,2023-08-16_08h40.19.813,HF_wild_card,2022.2.4,Win32,59.96641881,5ac0eabce1546900019bd744,64d2fd46c836a06233681665,64dc7d507a5e5ac3952eb0f0,,,,,,,sngl,resources/DR.BMP,resources/Empty.png,Door1,-0.200925926,-0.037037037,1,0,0,0.752,optionLeft,30,8845,5,9,0,9,0,1,,,,,,,,,,,,,,,,,,,,,,,,,,,,,,,,,,,,,,,
,,,,,,,,2023-08-16_08h40.19.813,HF_wild_card,2022.2.4,Win32,59.96641881,5ac0eabce1546900019bd744,64d2fd46c836a06233681665,64dc7d507a5e5ac3952eb0f0,,,,,,,decisionTrl,resources/DBN.BMP,resources/DB.BMP,Door4,0.334259259,0.003703704,1,0,0,1.5129,optionRight,80,8925,5,10,0,10,0,1,,,,,,,,,,,,,,,,,,,,,,,,,,,,,,,,,,,,,,,
,,,,,,,,2023-08-16_08h40.19.813,HF_wild_card,2022.2.4,Win32,59.96641881,5ac0eabce1546900019bd744,64d2fd46c836a06233681665,64dc7d507a5e5ac3952eb0f0,,,,,,,ctch,resources/DP.BMP,resources/DBN.BMP,Door3,0.316666667,0.049074074,1,0,0,1.8826,optionRight,70,8995,5,11,0,11,0,1,,,,,,,,,,,,,,,,,,,,,,,,,,,,,,,,,,,,,,,
,,,,,,,,2023-08-16_08h40.19.813,HF_wild_card,2022.2.4,Win32,59.96641881,5ac0eabce1546900019bd744,64d2fd46c836a06233681665,64dc7d507a5e5ac3952eb0f0,,,,,,,sngl,resources/DBN.BMP,resources/Empty.png,Door3,-0.202777778,-0.090740741,1,0,0,0.8421,optionLeft,70,9065,5,12,0,12,0,1,,,,,,,,,,,,,,,,,,,,,,,,,,,,,,,,,,,,,,,
,,,,,,,,2023-08-16_08h40.19.813,HF_wild_card,2022.2.4,Win32,59.96641881,5ac0eabce1546900019bd744,64d2fd46c836a06233681665,64dc7d507a5e5ac3952eb0f0,,,,,,,sngl,resources/Empty.png,resources/DY.BMP,WildCard_NonEx,0.218518519,-0.033333333,1,0,0,0.7935,optionRight,45,9110,5,13,0,13,0,1,,,,,,,,,,,,,,,,,,,,,,,,,,,,,,,,,,,,,,,
,,,,,,,,2023-08-16_08h40.19.813,HF_wild_card,2022.2.4,Win32,59.96641881,5ac0eabce1546900019bd744,64d2fd46c836a06233681665,64dc7d507a5e5ac3952eb0f0,,,,,,,decisionTrl,resources/DP.BMP,resources/DR.BMP,Door2,-0.263888889,-0.076851852,1,0,0,1.5147,optionLeft,20,9130,5,14,0,14,0,1,,,,,,,,,,,,,,,,,,,,,,,,,,,,,,,,,,,,,,,
,,,,,,,,2023-08-16_08h40.19.813,HF_wild_card,2022.2.4,Win32,59.96641881,5ac0eabce1546900019bd744,64d2fd46c836a06233681665,64dc7d507a5e5ac3952eb0f0,,,,,,,decisionTrl,resources/DY.BMP,resources/DBN.BMP,WildCard_NonEx,-0.269444444,-0.042592593,1,0,0,1.0718,optionLeft,45,9175,5,15,0,15,0,1,,,,,,,,,,,,,,,,,,,,,,,,,,,,,,,,,,,,,,,
,,,,,,,,2023-08-16_08h40.19.813,HF_wild_card,2022.2.4,Win32,59.96641881,5ac0eabce1546900019bd744,64d2fd46c836a06233681665,64dc7d507a5e5ac3952eb0f0,,,,,,,ctch,resources/DBN.BMP,resources/DP.BMP,Door2,0.305555556,0.019444444,1,0,0,0.9346,optionRight,20,9195,5,16,0,16,0,1,,,,,,,,,,,,,,,,,,,,,,,,,,,,,,,,,,,,,,,
,,,,,,,,2023-08-16_08h40.19.813,HF_wild_card,2022.2.4,Win32,59.96641881,5ac0eabce1546900019bd744,64d2fd46c836a06233681665,64dc7d507a5e5ac3952eb0f0,,,,,,,sngl,resources/Empty.png,resources/DBN.BMP,Door3,0.181481481,0.018518519,1,0,0,0.9332,optionRight,70,9265,5,17,0,17,0,1,,,,,,,,,,,,,,,,,,,,,,,,,,,,,,,,,,,,,,,
,,,,,,,,2023-08-16_08h40.19.813,HF_wild_card,2022.2.4,Win32,59.96641881,5ac0eabce1546900019bd744,64d2fd46c836a06233681665,64dc7d507a5e5ac3952eb0f0,,,,,,,decisionTrl,resources/DBN.BMP,resources/DY.BMP,Door3,-0.250925926,-0.038888889,1,0,0,0.9549,optionLeft,70,9335,5,18,0,18,0,1,,,,,,,,,,,,,,,,,,,,,,,,,,,,,,,,,,,,,,,
,,,,,,,,2023-08-16_08h40.19.813,HF_wild_card,2022.2.4,Win32,59.96641881,5ac0eabce1546900019bd744,64d2fd46c836a06233681665,64dc7d507a5e5ac3952eb0f0,,,,,,,decisionTrl,resources/DR.BMP,resources/DP.BMP,Door2,0.361111111,0.027777778,1,0,0,1.1987,optionRight,20,9355,5,19,0,19,0,1,,,,,,,,,,,,,,,,,,,,,,,,,,,,,,,,,,,,,,,
,,,,,,,,2023-08-16_08h40.19.813,HF_wild_card,2022.2.4,Win32,59.96641881,5ac0eabce1546900019bd744,64d2fd46c836a06233681665,64dc7d507a5e5ac3952eb0f0,,,,,,,sngl,resources/DP.BMP,resources/Empty.png,Door2,-0.322222222,-0.066666667,1,0,0,0.9329,optionLeft,40,9395,5,20,0,20,0,1,,,,,,,,,,,,,,,,,,,,,,,,,,,,,,,,,,,,,,,
,,,,,,,,2023-08-16_08h40.19.813,HF_wild_card,2022.2.4,Win32,59.96641881,5ac0eabce1546900019bd744,64d2fd46c836a06233681665,64dc7d507a5e5ac3952eb0f0,,,,,,,decisionTrl,resources/DY.BMP,resources/DB.BMP,WildCard_NonEx,-0.260185185,-0.067592593,1,0,0,0.9179,optionLeft,45,9440,5,21,0,21,0,1,,,,,,,,,,,,,,,,,,,,,,,,,,,,,,,,,,,,,,,
,,,,,,,,2023-08-16_08h40.19.813,HF_wild_card,2022.2.4,Win32,59.96641881,5ac0eabce1546900019bd744,64d2fd46c836a06233681665,64dc7d507a5e5ac3952eb0f0,,,,,,,decisionTrl,resources/DP.BMP,resources/DR.BMP,Door1,0.298148148,0.021296296,1,0,0,1.1945,optionRight,30,9470,5,22,0,22,0,1,,,,,,,,,,,,,,,,,,,,,,,,,,,,,,,,,,,,,,,
,,,,,,,,2023-08-16_08h40.19.813,HF_wild_card,2022.2.4,Win32,59.96641881,5ac0eabce1546900019bd744,64d2fd46c836a06233681665,64dc7d507a5e5ac3952eb0f0,,,,,,,sngl,resources/DY.BMP,resources/Empty.png,WildCard_NonEx,-0.244444444,-0.040740741,1,0,0,0.7603,optionLeft,45,9515,5,23,0,23,0,1,,,,,,,,,,,,,,,,,,,,,,,,,,,,,,,,,,,,,,,
,,,,,,,,2023-08-16_08h40.19.813,HF_wild_card,2022.2.4,Win32,59.96641881,5ac0eabce1546900019bd744,64d2fd46c836a06233681665,64dc7d507a5e5ac3952eb0f0,,,,,,,decisionTrl,resources/DY.BMP,resources/DR.BMP,WildCard_NonEx,-0.235185185,-0.027777778,1,0,0,1.2115,optionLeft,45,9560,5,24,0,24,0,1,,,,,,,,,,,,,,,,,,,,,,,,,,,,,,,,,,,,,,,
,,,,,,,,2023-08-16_08h40.19.813,HF_wild_card,2022.2.4,Win32,59.96641881,5ac0eabce1546900019bd744,64d2fd46c836a06233681665,64dc7d507a5e5ac3952eb0f0,,,,,,,decisionTrl,resources/DY.BMP,resources/DP.BMP,WildCard_NonEx,-0.125,-0.025,1,0,0,1.0802,optionLeft,45,9605,5,25,0,25,0,1,,,,,,,,,,,,,,,,,,,,,,,,,,,,,,,,,,,,,,,
,,,,,,,,2023-08-16_08h40.19.813,HF_wild_card,2022.2.4,Win32,59.96641881,5ac0eabce1546900019bd744,64d2fd46c836a06233681665,64dc7d507a5e5ac3952eb0f0,,,,,,,decisionTrl,resources/DR.BMP,resources/DP.BMP,Door2,0.286111111,-0.001851852,1,0,0,0.9427,optionRight,20,9625,5,26,0,26,0,1,,,,,,,,,,,,,,,,,,,,,,,,,,,,,,,,,,,,,,,
,,,,,,,,2023-08-16_08h40.19.813,HF_wild_card,2022.2.4,Win32,59.96641881,5ac0eabce1546900019bd744,64d2fd46c836a06233681665,64dc7d507a5e5ac3952eb0f0,,,,,,,decisionTrl,resources/DBN.BMP,resources/DB.BMP,Door3,-0.259259259,-0.07962963,1,0,0,0.8435,optionLeft,70,9695,5,27,0,27,0,1,,,,,,,,,,,,,,,,,,,,,,,,,,,,,,,,,,,,,,,
,,,,,,,,2023-08-16_08h40.19.813,HF_wild_card,2022.2.4,Win32,59.96641881,5ac0eabce1546900019bd744,64d2fd46c836a06233681665,64dc7d507a5e5ac3952eb0f0,,,,,,,decisionTrl,resources/DB.BMP,resources/DY.BMP,WildCard_NonEx,0.292592593,-0.017592593,1,0,0,1.0631,optionRight,55,9750,5,28,0,28,0,1,,,,,,,,,,,,,,,,,,,,,,,,,,,,,,,,,,,,,,,
,,,,,,,,2023-08-16_08h40.19.813,HF_wild_card,2022.2.4,Win32,59.96641881,5ac0eabce1546900019bd744,64d2fd46c836a06233681665,64dc7d507a5e5ac3952eb0f0,,,,,,,sngl,resources/DB.BMP,resources/Empty.png,Door4,-0.22037037,-0.099074074,1,0,0,0.91,optionLeft,80,9830,5,29,0,29,0,1,,,,,,,,,,,,,,,,,,,,,,,,,,,,,,,,,,,,,,,
,,,,,,,,2023-08-16_08h40.19.813,HF_wild_card,2022.2.4,Win32,59.96641881,5ac0eabce1546900019bd744,64d2fd46c836a06233681665,64dc7d507a5e5ac3952eb0f0,,,,,,,decisionTrl,resources/DP.BMP,resources/DR.BMP,Door2,-0.151851852,-0.021296296,1,0,0,1.3483,optionLeft,40,9870,5,30,0,30,0,1,,,,,,,,,,,,,,,,,,,,,,,,,,,,,,,,,,,,,,,
,,,,,,,,2023-08-16_08h40.19.813,HF_wild_card,2022.2.4,Win32,59.96641881,5ac0eabce1546900019bd744,64d2fd46c836a06233681665,64dc7d507a5e5ac3952eb0f0,,,,,,,sngl,resources/Empty.png,resources/DP.BMP,Door2,0.313888889,0.048148148,1,0,0,0.9162,optionRight,20,9890,5,31,0,31,0,1,,,,,,,,,,,,,,,,,,,,,,,,,,,,,,,,,,,,,,,
,,,,,,,,2023-08-16_08h40.19.813,HF_wild_card,2022.2.4,Win32,59.96641881,5ac0eabce1546900019bd744,64d2fd46c836a06233681665,64dc7d507a5e5ac3952eb0f0,,,,,,,decisionTrl,resources/DB.BMP,resources/DBN.BMP,Door4,-0.187037037,-0.031481481,1,0,0,1.2681,optionLeft,80,9970,5,32,0,32,0,1,,,,,,,,,,,,,,,,,,,,,,,,,,,,,,,,,,,,,,,
,,,,,,,,2023-08-16_08h40.19.813,HF_wild_card,2022.2.4,Win32,59.96641881,5ac0eabce1546900019bd744,64d2fd46c836a06233681665,64dc7d507a5e5ac3952eb0f0,,,,,,,decisionTrl,resources/DBN.BMP,resources/DB.BMP,Door3,-0.226851852,-0.067592593,1,0,0,1.5258,optionLeft,70,10040,5,33,0,33,0,1,,,,,,,,,,,,,,,,,,,,,,,,,,,,,,,,,,,,,,,
,,,,,,,,2023-08-16_08h40.19.813,HF_wild_card,2022.2.4,Win32,59.96641881,5ac0eabce1546900019bd744,64d2fd46c836a06233681665,64dc7d507a5e5ac3952eb0f0,,,,,,,decisionTrl,resources/DR.BMP,resources/DP.BMP,Door2,0.321296296,-0.012037037,1,0,0,1.9009,optionRight,20,10060,5,34,0,34,0,1,,,,,,,,,,,,,,,,,,,,,,,,,,,,,,,,,,,,,,,
,,,,,,,,2023-08-16_08h40.19.813,HF_wild_card,2022.2.4,Win32,59.96641881,5ac0eabce1546900019bd744,64d2fd46c836a06233681665,64dc7d507a5e5ac3952eb0f0,,,,,,,ctch,resources/DB.BMP,resources/DR.BMP,Door4,-0.224074074,-0.064814815,1,0,0,0.919,optionLeft,80,10140,5,35,0,35,0,1,,,,,,,,,,,,,,,,,,,,,,,,,,,,,,,,,,,,,,,
,,,,,,,,2023-08-16_08h40.19.813,HF_wild_card,2022.2.4,Win32,59.96641881,5ac0eabce1546900019bd744,64d2fd46c836a06233681665,64dc7d507a5e5ac3952eb0f0,,,,,,,decisionTrl,resources/DR.BMP,resources/DY.BMP,WildCard_NonEx,0.384259259,0.018518519,1,0,0,1.3295,optionRight,55,10195,5,36,0,36,0,1,,,,,,,,,,,,,,,,,,,,,,,,,,,,,,,,,,,,,,,
,,,,,,,,2023-08-16_08h40.19.813,HF_wild_card,2022.2.4,Win32,59.96641881,5ac0eabce1546900019bd744,64d2fd46c836a06233681665,64dc7d507a5e5ac3952eb0f0,,,,,,,ctch,resources/DR.BMP,resources/DB.BMP,Door1,-0.310185185,-0.108333333,1,0,0,2.1818,optionLeft,30,10225,5,37,0,37,0,1,,,,,,,,,,,,,,,,,,,,,,,,,,,,,,,,,,,,,,,
,,,,,,,,2023-08-16_08h40.19.813,HF_wild_card,2022.2.4,Win32,59.96641881,5ac0eabce1546900019bd744,64d2fd46c836a06233681665,64dc7d507a5e5ac3952eb0f0,,,,,,,decisionTrl,resources/DB.BMP,resources/DBN.BMP,Door4,-0.27037037,-0.076851852,1,0,0,1.3298,optionLeft,60,10285,5,38,0,38,0,1,,,,,,,,,,,,,,,,,,,,,,,,,,,,,,,,,,,,,,,
,,,,,,,,2023-08-16_08h40.19.813,HF_wild_card,2022.2.4,Win32,59.96641881,5ac0eabce1546900019bd744,64d2fd46c836a06233681665,64dc7d507a5e5ac3952eb0f0,,,,,,,decisionTrl,resources/DP.BMP,resources/DR.BMP,Door1,0.294444444,0.023148148,1,0,0,1.2959,optionRight,30,10315,5,39,0,39,0,1,,,,,,,,,,,,,,,,,,,,,,,,,,,,,,,,,,,,,,,
,,,,,,,,2023-08-16_08h40.19.813,HF_wild_card,2022.2.4,Win32,59.96641881,5ac0eabce1546900019bd744,64d2fd46c836a06233681665,64dc7d507a5e5ac3952eb0f0,,,,,,,decisionTrl,resources/DB.BMP,resources/DBN.BMP,Door4,-0.281481481,-0.062962963,1,0,0,1.6404,optionLeft,60,10375,5,40,0,40,0,1,,,,,,,,,,,,,,,,,,,,,,,,,,,,,,,,,,,,,,,
,,,,,,,,2023-08-16_08h40.19.813,HF_wild_card,2022.2.4,Win32,59.96641881,5ac0eabce1546900019bd744,64d2fd46c836a06233681665,64dc7d507a5e5ac3952eb0f0,,,,,,,decisionTrl,resources/DB.BMP,resources/DBN.BMP,Door3,0.323148148,0.05462963,1,0,0,1.0459,optionRight,70,10445,5,41,0,41,0,1,,,,,,,,,,,,,,,,,,,,,,,,,,,,,,,,,,,,,,,
,,,,,,,,2023-08-16_08h40.19.813,HF_wild_card,2022.2.4,Win32,59.96641881,5ac0eabce1546900019bd744,64d2fd46c836a06233681665,64dc7d507a5e5ac3952eb0f0,,,,,,,decisionTrl,resources/DP.BMP,resources/DY.BMP,WildCard_NonEx,0.407407407,0.037037037,1,0,0,1.4553,optionRight,55,10500,5,42,0,42,0,1,,,,,,,,,,,,,,,,,,,,,,,,,,,,,,,,,,,,,,,
,,,,,,,,2023-08-16_08h40.19.813,HF_wild_card,2022.2.4,Win32,59.96641881,5ac0eabce1546900019bd744,64d2fd46c836a06233681665,64dc7d507a5e5ac3952eb0f0,,,,,,,sngl,resources/Empty.png,resources/DY.BMP,WildCard_NonEx,0.271296296,0.023148148,1,0,0,0.8002,optionRight,55,10555,5,43,0,43,0,1,,,,,,,,,,,,,,,,,,,,,,,,,,,,,,,,,,,,,,,
,,,,,,,,2023-08-16_08h40.19.813,HF_wild_card,2022.2.4,Win32,59.96641881,5ac0eabce1546900019bd744,64d2fd46c836a06233681665,64dc7d507a5e5ac3952eb0f0,,,,,,,,,,,,,,,,,,,,,,,,,,4,0,4,0,1,,,,,,,,,,,,,,,,,,,,,,,,,,,,,,,,,,
,,,,,,,,2023-08-16_08h40.19.813,HF_wild_card,2022.2.4,Win32,59.96641881,5ac0eabce1546900019bd744,64d2fd46c836a06233681665,64dc7d507a5e5ac3952eb0f0,,,,,,,decisionTrl,resources/DP.BMP,resources/DY.BMP,Door2,-0.276851852,-0.090740741,1,0,0,1.0786,optionLeft,20,10575,6,0,0,0,0,1,,,,,,,,,,,,,,,,,,,,,,,,,,,,,,,,,,,,,,,
,,,,,,,,2023-08-16_08h40.19.813,HF_wild_card,2022.2.4,Win32,59.96641881,5ac0eabce1546900019bd744,64d2fd46c836a06233681665,64dc7d507a5e5ac3952eb0f0,,,,,,,decisionTrl,resources/DBN.BMP,resources/DB.BMP,Door4,0.291666667,0.032407407,1,0,0,1.2045,optionRight,80,10655,6,1,0,1,0,1,,,,,,,,,,,,,,,,,,,,,,,,,,,,,,,,,,,,,,,
,,,,,,,,2023-08-16_08h40.19.813,HF_wild_card,2022.2.4,Win32,59.96641881,5ac0eabce1546900019bd744,64d2fd46c836a06233681665,64dc7d507a5e5ac3952eb0f0,,,,,,,ctch,resources/DR.BMP,resources/DB.BMP,Door4,0.290740741,0.033333333,1,0,0,1.6299,optionRight,60,10715,6,2,0,2,0,1,,,,,,,,,,,,,,,,,,,,,,,,,,,,,,,,,,,,,,,
,,,,,,,,2023-08-16_08h40.19.813,HF_wild_card,2022.2.4,Win32,59.96641881,5ac0eabce1546900019bd744,64d2fd46c836a06233681665,64dc7d507a5e5ac3952eb0f0,,,,,,,sngl,resources/Empty.png,resources/DB.BMP,Door4,0.30462963,0.013888889,1,0,0,0.8946,optionRight,80,10795,6,3,0,3,0,1,,,,,,,,,,,,,,,,,,,,,,,,,,,,,,,,,,,,,,,
,,,,,,,,2023-08-16_08h40.19.813,HF_wild_card,2022.2.4,Win32,59.96641881,5ac0eabce1546900019bd744,64d2fd46c836a06233681665,64dc7d507a5e5ac3952eb0f0,,,,,,,decisionTrl,resources/DR.BMP,resources/DP.BMP,Door1,-0.268518519,-0.092592593,1,0,0,1.714,optionLeft,30,10825,6,4,0,4,0,1,,,,,,,,,,,,,,,,,,,,,,,,,,,,,,,,,,,,,,,
,,,,,,,,2023-08-16_08h40.19.813,HF_wild_card,2022.2.4,Win32,59.96641881,5ac0eabce1546900019bd744,64d2fd46c836a06233681665,64dc7d507a5e5ac3952eb0f0,,,,,,,sngl,resources/DP.BMP,resources/Empty.png,Door2,-0.178703704,-0.07037037,1,0,0,0.7584,optionLeft,20,10845,6,5,0,5,0,1,,,,,,,,,,,,,,,,,,,,,,,,,,,,,,,,,,,,,,,
,,,,,,,,2023-08-16_08h40.19.813,HF_wild_card,2022.2.4,Win32,59.96641881,5ac0eabce1546900019bd744,64d2fd46c836a06233681665,64dc7d507a5e5ac3952eb0f0,,,,,,,decisionTrl,resources/DB.BMP,resources/DBN.BMP,Door3,0.22037037,0.005555556,1,0,0,1.6163,optionRight,70,10915,6,6,0,6,0,1,,,,,,,,,,,,,,,,,,,,,,,,,,,,,,,,,,,,,,,
,,,,,,,,2023-08-16_08h40.19.813,HF_wild_card,2022.2.4,Win32,59.96641881,5ac0eabce1546900019bd744,64d2fd46c836a06233681665,64dc7d507a5e5ac3952eb0f0,,,,,,,ctch,resources/DP.BMP,resources/DBN.BMP,Door3,0.312037037,0.037037037,1,0,0,1.5781,optionRight,70,10985,6,7,0,7,0,1,,,,,,,,,,,,,,,,,,,,,,,,,,,,,,,,,,,,,,,
,,,,,,,,2023-08-16_08h40.19.813,HF_wild_card,2022.2.4,Win32,59.96641881,5ac0eabce1546900019bd744,64d2fd46c836a06233681665,64dc7d507a5e5ac3952eb0f0,,,,,,,ctch,resources/DB.BMP,resources/DR.BMP,Door4,-0.230555556,-0.076851852,1,0,0,1.267,optionLeft,80,11065,6,8,0,8,0,1,,,,,,,,,,,,,,,,,,,,,,,,,,,,,,,,,,,,,,,
,,,,,,,,2023-08-16_08h40.19.813,HF_wild_card,2022.2.4,Win32,59.96641881,5ac0eabce1546900019bd744,64d2fd46c836a06233681665,64dc7d507a5e5ac3952eb0f0,,,,,,,decisionTrl,resources/DP.BMP,resources/DR.BMP,Door2,-0.225,-0.084259259,1,0,0,1.6345,optionLeft,40,11105,6,9,0,9,0,1,,,,,,,,,,,,,,,,,,,,,,,,,,,,,,,,,,,,,,,
,,,,,,,,2023-08-16_08h40.19.813,HF_wild_card,2022.2.4,Win32,59.96641881,5ac0eabce1546900019bd744,64d2fd46c836a06233681665,64dc7d507a5e5ac3952eb0f0,,,,,,,decisionTrl,resources/DP.BMP,resources/DR.BMP,Door1,0.263888889,0.010185185,1,0,0,1.0954,optionRight,30,11135,6,10,0,10,0,1,,,,,,,,,,,,,,,,,,,,,,,,,,,,,,,,,,,,,,,
,,,,,,,,2023-08-16_08h40.19.813,HF_wild_card,2022.2.4,Win32,59.96641881,5ac0eabce1546900019bd744,64d2fd46c836a06233681665,64dc7d507a5e5ac3952eb0f0,,,,,,,ctch,resources/DBN.BMP,resources/DP.BMP,Door2,0.287962963,-0.006481481,1,0,0,1.6777,optionRight,40,11175,6,11,0,11,0,1,,,,,,,,,,,,,,,,,,,,,,,,,,,,,,,,,,,,,,,
,,,,,,,,2023-08-16_08h40.19.813,HF_wild_card,2022.2.4,Win32,59.96641881,5ac0eabce1546900019bd744,64d2fd46c836a06233681665,64dc7d507a5e5ac3952eb0f0,,,,,,,decisionTrl,resources/DP.BMP,resources/DR.BMP,Door2,-0.22962963,-0.062037037,1,0,0,1.0632,optionLeft,40,11215,6,12,0,12,0,1,,,,,,,,,,,,,,,,,,,,,,,,,,,,,,,,,,,,,,,
,,,,,,,,2023-08-16_08h40.19.813,HF_wild_card,2022.2.4,Win32,59.96641881,5ac0eabce1546900019bd744,64d2fd46c836a06233681665,64dc7d507a5e5ac3952eb0f0,,,,,,,ctch,resources/DB.BMP,resources/DR.BMP,Door1,0.283333333,-0.017592593,1,0,0,0.7702,optionRight,30,11245,6,13,0,13,0,1,,,,,,,,,,,,,,,,,,,,,,,,,,,,,,,,,,,,,,,
,,,,,,,,2023-08-16_08h40.19.813,HF_wild_card,2022.2.4,Win32,59.96641881,5ac0eabce1546900019bd744,64d2fd46c836a06233681665,64dc7d507a5e5ac3952eb0f0,,,,,,,decisionTrl,resources/DB.BMP,resources/DBN.BMP,Door4,-0.269444444,-0.022222222,1,0,0,1.2279,optionLeft,60,11305,6,14,0,14,0,1,,,,,,,,,,,,,,,,,,,,,,,,,,,,,,,,,,,,,,,
,,,,,,,,2023-08-16_08h40.19.813,HF_wild_card,2022.2.4,Win32,59.96641881,5ac0eabce1546900019bd744,64d2fd46c836a06233681665,64dc7d507a5e5ac3952eb0f0,,,,,,,decisionTrl,resources/DY.BMP,resources/DP.BMP,WildCard_NonEx,-0.287037037,-0.023148148,1,0,0,1.1296,optionLeft,45,11350,6,15,0,15,0,1,,,,,,,,,,,,,,,,,,,,,,,,,,,,,,,,,,,,,,,
,,,,,,,,2023-08-16_08h40.19.813,HF_wild_card,2022.2.4,Win32,59.96641881,5ac0eabce1546900019bd744,64d2fd46c836a06233681665,64dc7d507a5e5ac3952eb0f0,,,,,,,decisionTrl,resources/DR.BMP,resources/DP.BMP,Door2,0.271296296,0.028703704,1,0,0,1.1484,optionRight,20,11370,6,16,0,16,0,1,,,,,,,,,,,,,,,,,,,,,,,,,,,,,,,,,,,,,,,
,,,,,,,,2023-08-16_08h40.19.813,HF_wild_card,2022.2.4,Win32,59.96641881,5ac0eabce1546900019bd744,64d2fd46c836a06233681665,64dc7d507a5e5ac3952eb0f0,,,,,,,decisionTrl,resources/DBN.BMP,resources/DB.BMP,Door4,0.283333333,0.024074074,1,0,0,1.3513,optionRight,80,11450,6,17,0,17,0,1,,,,,,,,,,,,,,,,,,,,,,,,,,,,,,,,,,,,,,,
,,,,,,,,2023-08-16_08h40.19.813,HF_wild_card,2022.2.4,Win32,59.96641881,5ac0eabce1546900019bd744,64d2fd46c836a06233681665,64dc7d507a5e5ac3952eb0f0,,,,,,,decisionTrl,resources/DBN.BMP,resources/DY.BMP,WildCard_NonEx,0.308333333,0.025,1,0,0,1.1106,optionRight,55,11505,6,18,0,18,0,1,,,,,,,,,,,,,,,,,,,,,,,,,,,,,,,,,,,,,,,
,,,,,,,,2023-08-16_08h40.19.813,HF_wild_card,2022.2.4,Win32,59.96641881,5ac0eabce1546900019bd744,64d2fd46c836a06233681665,64dc7d507a5e5ac3952eb0f0,,,,,,,sngl,resources/Empty.png,resources/DBN.BMP,Door3,0.296296296,0.053703704,1,0,0,0.8453,optionRight,70,11575,6,19,0,19,0,1,,,,,,,,,,,,,,,,,,,,,,,,,,,,,,,,,,,,,,,
,,,,,,,,2023-08-16_08h40.19.813,HF_wild_card,2022.2.4,Win32,59.96641881,5ac0eabce1546900019bd744,64d2fd46c836a06233681665,64dc7d507a5e5ac3952eb0f0,,,,,,,sngl,resources/DB.BMP,resources/Empty.png,Door4,-0.224074074,-0.05462963,1,0,0,1.0113,optionLeft,60,11635,6,20,0,20,0,1,,,,,,,,,,,,,,,,,,,,,,,,,,,,,,,,,,,,,,,
,,,,,,,,2023-08-16_08h40.19.813,HF_wild_card,2022.2.4,Win32,59.96641881,5ac0eabce1546900019bd744,64d2fd46c836a06233681665,64dc7d507a5e5ac3952eb0f0,,,,,,,ctch,resources/DR.BMP,resources/DB.BMP,Door1,-0.233333333,-0.073148148,1,0,0,1.6655,optionLeft,30,11665,6,21,0,21,0,1,,,,,,,,,,,,,,,,,,,,,,,,,,,,,,,,,,,,,,,
,,,,,,,,2023-08-16_08h40.19.813,HF_wild_card,2022.2.4,Win32,59.96641881,5ac0eabce1546900019bd744,64d2fd46c836a06233681665,64dc7d507a5e5ac3952eb0f0,,,,,,,sngl,resources/DBN.BMP,resources/Empty.png,Door3,-0.2,-0.072222222,1,0,0,0.7694,optionLeft,70,11735,6,22,0,22,0,1,,,,,,,,,,,,,,,,,,,,,,,,,,,,,,,,,,,,,,,
,,,,,,,,2023-08-16_08h40.19.813,HF_wild_card,2022.2.4,Win32,59.96641881,5ac0eabce1546900019bd744,64d2fd46c836a06233681665,64dc7d507a5e5ac3952eb0f0,,,,,,,decisionTrl,resources/DB.BMP,resources/DBN.BMP,Door4,-0.215740741,-0.031481481,1,0,0,1.4855,optionLeft,80,11815,6,23,0,23,0,1,,,,,,,,,,,,,,,,,,,,,,,,,,,,,,,,,,,,,,,
,,,,,,,,2023-08-16_08h40.19.813,HF_wild_card,2022.2.4,Win32,59.96641881,5ac0eabce1546900019bd744,64d2fd46c836a06233681665,64dc7d507a5e5ac3952eb0f0,,,,,,,decisionTrl,resources/DY.BMP,resources/DB.BMP,WildCard_NonEx,-0.314814815,-0.093518519,1,0,0,1.0765,optionLeft,55,11870,6,24,0,24,0,1,,,,,,,,,,,,,,,,,,,,,,,,,,,,,,,,,,,,,,,
,,,,,,,,2023-08-16_08h40.19.813,HF_wild_card,2022.2.4,Win32,59.96641881,5ac0eabce1546900019bd744,64d2fd46c836a06233681665,64dc7d507a5e5ac3952eb0f0,,,,,,,sngl,resources/DR.BMP,resources/Empty.png,Door1,-0.178703704,-0.041666667,1,0,0,0.7605,optionLeft,30,11900,6,25,0,25,0,1,,,,,,,,,,,,,,,,,,,,,,,,,,,,,,,,,,,,,,,
,,,,,,,,2023-08-16_08h40.19.813,HF_wild_card,2022.2.4,Win32,59.96641881,5ac0eabce1546900019bd744,64d2fd46c836a06233681665,64dc7d507a5e5ac3952eb0f0,,,,,,,decisionTrl,resources/DBN.BMP,resources/DB.BMP,Door4,0.272222222,-0.000925926,1,0,0,0.9264,optionRight,60,11960,6,26,0,26,0,1,,,,,,,,,,,,,,,,,,,,,,,,,,,,,,,,,,,,,,,
,,,,,,,,2023-08-16_08h40.19.813,HF_wild_card,2022.2.4,Win32,59.96641881,5ac0eabce1546900019bd744,64d2fd46c836a06233681665,64dc7d507a5e5ac3952eb0f0,,,,,,,decisionTrl,resources/DP.BMP,resources/DR.BMP,Door2,-0.212037037,-0.047222222,1,0,0,1.0311,optionLeft,20,11980,6,27,0,27,0,1,,,,,,,,,,,,,,,,,,,,,,,,,,,,,,,,,,,,,,,
,,,,,,,,2023-08-16_08h40.19.813,HF_wild_card,2022.2.4,Win32,59.96641881,5ac0eabce1546900019bd744,64d2fd46c836a06233681665,64dc7d507a5e5ac3952eb0f0,,,,,,,decisionTrl,resources/DB.BMP,resources/DBN.BMP,Door3,0.237037037,0.038888889,1,0,0,1.1801,optionRight,70,12050,6,28,0,28,0,1,,,,,,,,,,,,,,,,,,,,,,,,,,,,,,,,,,,,,,,
,,,,,,,,2023-08-16_08h40.19.813,HF_wild_card,2022.2.4,Win32,59.96641881,5ac0eabce1546900019bd744,64d2fd46c836a06233681665,64dc7d507a5e5ac3952eb0f0,,,,,,,ctch,resources/DBN.BMP,resources/DP.BMP,Door2,0.276851852,-0.009259259,1,0,0,1.194,optionRight,40,12090,6,29,0,29,0,1,,,,,,,,,,,,,,,,,,,,,,,,,,,,,,,,,,,,,,,
,,,,,,,,2023-08-16_08h40.19.813,HF_wild_card,2022.2.4,Win32,59.96641881,5ac0eabce1546900019bd744,64d2fd46c836a06233681665,64dc7d507a5e5ac3952eb0f0,,,,,,,decisionTrl,resources/DR.BMP,resources/DY.BMP,WildCard_NonEx,0.311111111,-0.00462963,1,0,0,0.8805,optionRight,45,12135,6,30,0,30,0,1,,,,,,,,,,,,,,,,,,,,,,,,,,,,,,,,,,,,,,,
,,,,,,,,2023-08-16_08h40.19.813,HF_wild_card,2022.2.4,Win32,59.96641881,5ac0eabce1546900019bd744,64d2fd46c836a06233681665,64dc7d507a5e5ac3952eb0f0,,,,,,,decisionTrl,resources/DB.BMP,resources/DY.BMP,WildCard_NonEx,0.27962963,0.007407407,1,0,0,0.8947,optionRight,55,12190,6,31,0,31,0,1,,,,,,,,,,,,,,,,,,,,,,,,,,,,,,,,,,,,,,,
,,,,,,,,2023-08-16_08h40.19.813,HF_wild_card,2022.2.4,Win32,59.96641881,5ac0eabce1546900019bd744,64d2fd46c836a06233681665,64dc7d507a5e5ac3952eb0f0,,,,,,,decisionTrl,resources/DY.BMP,resources/DR.BMP,WildCard_NonEx,-0.263888889,-0.109259259,1,0,0,0.9282,optionLeft,55,12245,6,32,0,32,0,1,,,,,,,,,,,,,,,,,,,,,,,,,,,,,,,,,,,,,,,
,,,,,,,,2023-08-16_08h40.19.813,HF_wild_card,2022.2.4,Win32,59.96641881,5ac0eabce1546900019bd744,64d2fd46c836a06233681665,64dc7d507a5e5ac3952eb0f0,,,,,,,ctch,resources/DP.BMP,resources/DBN.BMP,Door2,-0.237962963,-0.072222222,1,0,0,0.9936,optionLeft,40,12285,6,33,0,33,0,1,,,,,,,,,,,,,,,,,,,,,,,,,,,,,,,,,,,,,,,
,,,,,,,,2023-08-16_08h40.19.813,HF_wild_card,2022.2.4,Win32,59.96641881,5ac0eabce1546900019bd744,64d2fd46c836a06233681665,64dc7d507a5e5ac3952eb0f0,,,,,,,sngl,resources/Empty.png,resources/DP.BMP,Door2,0.271296296,0.000925926,1,0,0,0.7781,optionRight,40,12325,6,34,0,34,0,1,,,,,,,,,,,,,,,,,,,,,,,,,,,,,,,,,,,,,,,
,,,,,,,,2023-08-16_08h40.19.813,HF_wild_card,2022.2.4,Win32,59.96641881,5ac0eabce1546900019bd744,64d2fd46c836a06233681665,64dc7d507a5e5ac3952eb0f0,,,,,,,sngl,resources/DY.BMP,resources/Empty.png,WildCard_NonEx,-0.22037037,-0.169444444,1,0,0,0.7136,optionLeft,45,12370,6,35,0,35,0,1,,,,,,,,,,,,,,,,,,,,,,,,,,,,,,,,,,,,,,,
,,,,,,,,2023-08-16_08h40.19.813,HF_wild_card,2022.2.4,Win32,59.96641881,5ac0eabce1546900019bd744,64d2fd46c836a06233681665,64dc7d507a5e5ac3952eb0f0,,,,,,,decisionTrl,resources/DBN.BMP,resources/DB.BMP,Door3,-0.178703704,-0.035185185,1,0,0,1.1956,optionLeft,70,12440,6,36,0,36,0,1,,,,,,,,,,,,,,,,,,,,,,,,,,,,,,,,,,,,,,,
,,,,,,,,2023-08-16_08h40.19.813,HF_wild_card,2022.2.4,Win32,59.96641881,5ac0eabce1546900019bd744,64d2fd46c836a06233681665,64dc7d507a5e5ac3952eb0f0,,,,,,,decisionTrl,resources/DR.BMP,resources/DP.BMP,Door2,0.303703704,-0.011111111,1,0,0,1.0605,optionRight,40,12480,6,37,0,37,0,1,,,,,,,,,,,,,,,,,,,,,,,,,,,,,,,,,,,,,,,
,,,,,,,,2023-08-16_08h40.19.813,HF_wild_card,2022.2.4,Win32,59.96641881,5ac0eabce1546900019bd744,64d2fd46c836a06233681665,64dc7d507a5e5ac3952eb0f0,,,,,,,sngl,resources/Empty.png,resources/DR.BMP,Door1,0.291666667,-0.022222222,1,0,0,1.1258,optionRight,30,12510,6,38,0,38,0,1,,,,,,,,,,,,,,,,,,,,,,,,,,,,,,,,,,,,,,,
,,,,,,,,2023-08-16_08h40.19.813,HF_wild_card,2022.2.4,Win32,59.96641881,5ac0eabce1546900019bd744,64d2fd46c836a06233681665,64dc7d507a5e5ac3952eb0f0,,,,,,,sngl,resources/Empty.png,resources/DY.BMP,WildCard_NonEx,0.228703704,-0.007407407,1,0,0,0.7712,optionRight,45,12555,6,39,0,39,0,1,,,,,,,,,,,,,,,,,,,,,,,,,,,,,,,,,,,,,,,
,,,,,,,,2023-08-16_08h40.19.813,HF_wild_card,2022.2.4,Win32,59.96641881,5ac0eabce1546900019bd744,64d2fd46c836a06233681665,64dc7d507a5e5ac3952eb0f0,,,,,,,decisionTrl,resources/DY.BMP,resources/DBN.BMP,WildCard_NonEx,-0.208333333,-0.116666667,1,0,0,0.6691,optionLeft,55,12610,6,40,0,40,0,1,,,,,,,,,,,,,,,,,,,,,,,,,,,,,,,,,,,,,,,
,,,,,,,,2023-08-16_08h40.19.813,HF_wild_card,2022.2.4,Win32,59.96641881,5ac0eabce1546900019bd744,64d2fd46c836a06233681665,64dc7d507a5e5ac3952eb0f0,,,,,,,sngl,resources/DY.BMP,resources/Empty.png,WildCard_NonEx,-0.141666667,-0.043518519,1,0,0,0.7505,optionLeft,55,12665,6,41,0,41,0,1,,,,,,,,,,,,,,,,,,,,,,,,,,,,,,,,,,,,,,,
,,,,,,,,2023-08-16_08h40.19.813,HF_wild_card,2022.2.4,Win32,59.96641881,5ac0eabce1546900019bd744,64d2fd46c836a06233681665,64dc7d507a5e5ac3952eb0f0,,,,,,,decisionTrl,resources/DR.BMP,resources/DP.BMP,Door2,0.292592593,0,1,0,0,0.8792,optionRight,40,12705,6,42,0,42,0,1,,,,,,,,,,,,,,,,,,,,,,,,,,,,,,,,,,,,,,,
,,,,,,,,2023-08-16_08h40.19.813,HF_wild_card,2022.2.4,Win32,59.96641881,5ac0eabce1546900019bd744,64d2fd46c836a06233681665,64dc7d507a5e5ac3952eb0f0,,,,,,,sngl,resources/Empty.png,resources/DY.BMP,WildCard_NonEx,0.349074074,0.032407407,1,0,0,0.827,optionRight,55,12760,6,43,0,43,0,1,,,,,,,,,,,,,,,,,,,,,,,,,,,,,,,,,,,,,,,
,,,,,,,,2023-08-16_08h40.19.813,HF_wild_card,2022.2.4,Win32,59.96641881,5ac0eabce1546900019bd744,64d2fd46c836a06233681665,64dc7d507a5e5ac3952eb0f0,,,,,,,,,,,,,,,,,,,,,,,,,,5,0,5,0,1,,,,,,,,,,,,,,,,,,,,,,,,,,,,,,,,,,
,,,,,,,,2023-08-16_08h40.19.813,HF_wild_card,2022.2.4,Win32,59.96641881,5ac0eabce1546900019bd744,64d2fd46c836a06233681665,64dc7d507a5e5ac3952eb0f0,,,,,,,ctch,resources/DBN.BMP,resources/DP.BMP,Door2,0.301851852,-0.037962963,1,0,0,1.3301,optionRight,40,12800,7,0,0,0,0,1,,,,,,,,,,,,,,,,,,,,,,,,,,,,,,,,,,,,,,,
,,,,,,,,2023-08-16_08h40.19.813,HF_wild_card,2022.2.4,Win32,59.96641881,5ac0eabce1546900019bd744,64d2fd46c836a06233681665,64dc7d507a5e5ac3952eb0f0,,,,,,,decisionTrl,resources/DBN.BMP,resources/DB.BMP,Door4,0.238888889,0.023148148,1,0,0,0.8967,optionRight,80,12880,7,1,0,1,0,1,,,,,,,,,,,,,,,,,,,,,,,,,,,,,,,,,,,,,,,
,,,,,,,,2023-08-16_08h40.19.813,HF_wild_card,2022.2.4,Win32,59.96641881,5ac0eabce1546900019bd744,64d2fd46c836a06233681665,64dc7d507a5e5ac3952eb0f0,,,,,,,ctch,resources/DBN.BMP,resources/DP.BMP,Door2,0.287037037,-0.037037037,1,0,0,1.1643,optionRight,20,12900,7,2,0,2,0,1,,,,,,,,,,,,,,,,,,,,,,,,,,,,,,,,,,,,,,,
,,,,,,,,2023-08-16_08h40.19.813,HF_wild_card,2022.2.4,Win32,59.96641881,5ac0eabce1546900019bd744,64d2fd46c836a06233681665,64dc7d507a5e5ac3952eb0f0,,,,,,,decisionTrl,resources/DR.BMP,resources/DP.BMP,Door1,-0.194444444,-0.111111111,1,0,0,0.7653,optionLeft,30,12930,7,3,0,3,0,1,,,,,,,,,,,,,,,,,,,,,,,,,,,,,,,,,,,,,,,
,,,,,,,,2023-08-16_08h40.19.813,HF_wild_card,2022.2.4,Win32,59.96641881,5ac0eabce1546900019bd744,64d2fd46c836a06233681665,64dc7d507a5e5ac3952eb0f0,,,,,,,decisionTrl,resources/DB.BMP,resources/DBN.BMP,Door4,-0.183333333,-0.076851852,1,0,0,1.4119,optionLeft,60,12990,7,4,0,4,0,1,,,,,,,,,,,,,,,,,,,,,,,,,,,,,,,,,,,,,,,
,,,,,,,,2023-08-16_08h40.19.813,HF_wild_card,2022.2.4,Win32,59.96641881,5ac0eabce1546900019bd744,64d2fd46c836a06233681665,64dc7d507a5e5ac3952eb0f0,,,,,,,decisionTrl,resources/DBN.BMP,resources/DB.BMP,Door4,0.292592593,0.02037037,1,0,0,1.3639,optionRight,60,13050,7,5,0,5,0,1,,,,,,,,,,,,,,,,,,,,,,,,,,,,,,,,,,,,,,,
,,,,,,,,2023-08-16_08h40.19.813,HF_wild_card,2022.2.4,Win32,59.96641881,5ac0eabce1546900019bd744,64d2fd46c836a06233681665,64dc7d507a5e5ac3952eb0f0,,,,,,,decisionTrl,resources/DP.BMP,resources/DR.BMP,Door2,-0.171296296,-0.039814815,1,0,0,1.5478,optionLeft,20,13070,7,6,0,6,0,1,,,,,,,,,,,,,,,,,,,,,,,,,,,,,,,,,,,,,,,
,,,,,,,,2023-08-16_08h40.19.813,HF_wild_card,2022.2.4,Win32,59.96641881,5ac0eabce1546900019bd744,64d2fd46c836a06233681665,64dc7d507a5e5ac3952eb0f0,,,,,,,ctch,resources/DR.BMP,resources/DB.BMP,Door1,-0.237962963,-0.068518519,1,0,0,1.3133,optionLeft,30,13100,7,7,0,7,0,1,,,,,,,,,,,,,,,,,,,,,,,,,,,,,,,,,,,,,,,
,,,,,,,,2023-08-16_08h40.19.813,HF_wild_card,2022.2.4,Win32,59.96641881,5ac0eabce1546900019bd744,64d2fd46c836a06233681665,64dc7d507a5e5ac3952eb0f0,,,,,,,decisionTrl,resources/DP.BMP,resources/DR.BMP,Door1,0.253703704,0.021296296,1,0,0,1.6308,optionRight,30,13130,7,8,0,8,0,1,,,,,,,,,,,,,,,,,,,,,,,,,,,,,,,,,,,,,,,
,,,,,,,,2023-08-16_08h40.19.813,HF_wild_card,2022.2.4,Win32,59.96641881,5ac0eabce1546900019bd744,64d2fd46c836a06233681665,64dc7d507a5e5ac3952eb0f0,,,,,,,ctch,resources/DR.BMP,resources/DB.BMP,Door4,0.261111111,-0.019444444,1,0,0,1.3322,optionRight,60,13190,7,9,0,9,0,1,,,,,,,,,,,,,,,,,,,,,,,,,,,,,,,,,,,,,,,
,,,,,,,,2023-08-16_08h40.19.813,HF_wild_card,2022.2.4,Win32,59.96641881,5ac0eabce1546900019bd744,64d2fd46c836a06233681665,64dc7d507a5e5ac3952eb0f0,,,,,,,ctch,resources/DP.BMP,resources/DBN.BMP,Door2,-0.249074074,-0.109259259,1,0,0,1.0983,optionLeft,40,13230,7,10,0,10,0,1,,,,,,,,,,,,,,,,,,,,,,,,,,,,,,,,,,,,,,,
,,,,,,,,2023-08-16_08h40.19.813,HF_wild_card,2022.2.4,Win32,59.96641881,5ac0eabce1546900019bd744,64d2fd46c836a06233681665,64dc7d507a5e5ac3952eb0f0,,,,,,,decisionTrl,resources/DBN.BMP,resources/DB.BMP,Door4,0.256481481,0.026851852,1,0,0,1.4477,optionRight,60,13290,7,11,0,11,0,1,,,,,,,,,,,,,,,,,,,,,,,,,,,,,,,,,,,,,,,
,,,,,,,,2023-08-16_08h40.19.813,HF_wild_card,2022.2.4,Win32,59.96641881,5ac0eabce1546900019bd744,64d2fd46c836a06233681665,64dc7d507a5e5ac3952eb0f0,,,,,,,decisionTrl,resources/DR.BMP,resources/DP.BMP,Door1,-0.22962963,-0.076851852,1,0,0,1.2808,optionLeft,30,13320,7,12,0,12,0,1,,,,,,,,,,,,,,,,,,,,,,,,,,,,,,,,,,,,,,,
,,,,,,,,2023-08-16_08h40.19.813,HF_wild_card,2022.2.4,Win32,59.96641881,5ac0eabce1546900019bd744,64d2fd46c836a06233681665,64dc7d507a5e5ac3952eb0f0,,,,,,,decisionTrl,resources/DBN.BMP,resources/DB.BMP,Door3,-0.258333333,-0.082407407,1,0,0,1.4135,optionLeft,70,13390,7,13,0,13,0,1,,,,,,,,,,,,,,,,,,,,,,,,,,,,,,,,,,,,,,,
,,,,,,,,2023-08-16_08h40.19.813,HF_wild_card,2022.2.4,Win32,59.96641881,5ac0eabce1546900019bd744,64d2fd46c836a06233681665,64dc7d507a5e5ac3952eb0f0,,,,,,,decisionTrl,resources/DBN.BMP,resources/DB.BMP,Door4,0.287037037,0.021296296,1,0,0,0.7652,optionRight,80,13470,7,14,0,14,0,1,,,,,,,,,,,,,,,,,,,,,,,,,,,,,,,,,,,,,,,
,,,,,,,,2023-08-16_08h40.19.813,HF_wild_card,2022.2.4,Win32,59.96641881,5ac0eabce1546900019bd744,64d2fd46c836a06233681665,64dc7d507a5e5ac3952eb0f0,,,,,,,ctch,resources/DB.BMP,resources/DR.BMP,Door1,0.301851852,0.036111111,1,0,0,1.1138,optionRight,30,13500,7,15,0,15,0,1,,,,,,,,,,,,,,,,,,,,,,,,,,,,,,,,,,,,,,,
,,,,,,,,2023-08-16_08h40.19.813,HF_wild_card,2022.2.4,Win32,59.96641881,5ac0eabce1546900019bd744,64d2fd46c836a06233681665,64dc7d507a5e5ac3952eb0f0,,,,,,,decisionTrl,resources/DBN.BMP,resources/DB.BMP,Door3,-0.192592593,-0.055555556,1,0,0,1.2308,optionLeft,70,13570,7,16,0,16,0,1,,,,,,,,,,,,,,,,,,,,,,,,,,,,,,,,,,,,,,,
,,,,,,,,2023-08-16_08h40.19.813,HF_wild_card,2022.2.4,Win32,59.96641881,5ac0eabce1546900019bd744,64d2fd46c836a06233681665,64dc7d507a5e5ac3952eb0f0,,,,,,,decisionTrl,resources/DP.BMP,resources/DR.BMP,Door1,0.291666667,0.030555556,1,0,0,1.2797,optionRight,30,13600,7,17,0,17,0,1,,,,,,,,,,,,,,,,,,,,,,,,,,,,,,,,,,,,,,,
,,,,,,,,2023-08-16_08h40.19.813,HF_wild_card,2022.2.4,Win32,59.96641881,5ac0eabce1546900019bd744,64d2fd46c836a06233681665,64dc7d507a5e5ac3952eb0f0,,,,,,,decisionTrl,resources/DB.BMP,resources/DBN.BMP,Door4,-0.249074074,-0.068518519,1,0,0,1.2663,optionLeft,60,13660,7,18,0,18,0,1,,,,,,,,,,,,,,,,,,,,,,,,,,,,,,,,,,,,,,,
,,,,,,,,2023-08-16_08h40.19.813,HF_wild_card,2022.2.4,Win32,59.96641881,5ac0eabce1546900019bd744,64d2fd46c836a06233681665,64dc7d507a5e5ac3952eb0f0,,,,,,,decisionTrl,resources/DB.BMP,resources/DBN.BMP,Door4,-0.19537037,-0.085185185,1,0,0,0.9162,optionLeft,80,13740,7,19,0,19,0,1,,,,,,,,,,,,,,,,,,,,,,,,,,,,,,,,,,,,,,,
,,,,,,,,2023-08-16_08h40.19.813,HF_wild_card,2022.2.4,Win32,59.96641881,5ac0eabce1546900019bd744,64d2fd46c836a06233681665,64dc7d507a5e5ac3952eb0f0,,,,,,,decisionTrl,resources/DP.BMP,resources/DR.BMP,Door1,0.343518519,0.034259259,1,0,0,0.7633,optionRight,30,13770,7,20,0,20,0,1,,,,,,,,,,,,,,,,,,,,,,,,,,,,,,,,,,,,,,,
,,,,,,,,2023-08-16_08h40.19.813,HF_wild_card,2022.2.4,Win32,59.96641881,5ac0eabce1546900019bd744,64d2fd46c836a06233681665,64dc7d507a5e5ac3952eb0f0,,,,,,,ctch,resources/DP.BMP,resources/DBN.BMP,Door2,-0.227777778,-0.058333333,1,0,0,1.0817,optionLeft,20,13790,7,21,0,21,0,1,,,,,,,,,,,,,,,,,,,,,,,,,,,,,,,,,,,,,,,
,,,,,,,,2023-08-16_08h40.19.813,HF_wild_card,2022.2.4,Win32,59.96641881,5ac0eabce1546900019bd744,64d2fd46c836a06233681665,64dc7d507a5e5ac3952eb0f0,,,,,,,decisionTrl,resources/DB.BMP,resources/DBN.BMP,Door3,0.306481481,0.073148148,1,0,0,1.0387,optionRight,70,13860,7,22,0,22,0,1,,,,,,,,,,,,,,,,,,,,,,,,,,,,,,,,,,,,,,,
,,,,,,,,2023-08-16_08h40.19.813,HF_wild_card,2022.2.4,Win32,59.96641881,5ac0eabce1546900019bd744,64d2fd46c836a06233681665,64dc7d507a5e5ac3952eb0f0,,,,,,,decisionTrl,resources/DR.BMP,resources/DP.BMP,Door1,-0.281481481,-0.112962963,1,0,0,1.1759,optionLeft,30,13890,7,23,0,23,0,1,,,,,,,,,,,,,,,,,,,,,,,,,,,,,,,,,,,,,,,
,,,,,,,,2023-08-16_08h40.19.813,HF_wild_card,2022.2.4,Win32,59.96641881,5ac0eabce1546900019bd744,64d2fd46c836a06233681665,64dc7d507a5e5ac3952eb0f0,,,,,,,decisionTrl,resources/DB.BMP,resources/DBN.BMP,Door4,-0.278703704,-0.048148148,1,0,0,1.2937,optionLeft,80,13970,7,24,0,24,0,1,,,,,,,,,,,,,,,,,,,,,,,,,,,,,,,,,,,,,,,
,,,,,,,,2023-08-16_08h40.19.813,HF_wild_card,2022.2.4,Win32,59.96641881,5ac0eabce1546900019bd744,64d2fd46c836a06233681665,64dc7d507a5e5ac3952eb0f0,,,,,,,decisionTrl,resources/DR.BMP,resources/DP.BMP,Door2,0.296296296,0.016666667,1,0,0,1.3658,optionRight,40,14010,7,25,0,25,0,1,,,,,,,,,,,,,,,,,,,,,,,,,,,,,,,,,,,,,,,
,,,,,,,,2023-08-16_08h40.19.813,HF_wild_card,2022.2.4,Win32,59.96641881,5ac0eabce1546900019bd744,64d2fd46c836a06233681665,64dc7d507a5e5ac3952eb0f0,,,,,,,decisionTrl,resources/DR.BMP,resources/DP.BMP,Door2,0.427777778,0.025925926,1,0,0,0.9395,optionRight,20,14030,7,26,0,26,0,1,,,,,,,,,,,,,,,,,,,,,,,,,,,,,,,,,,,,,,,
,,,,,,,,2023-08-16_08h40.19.813,HF_wild_card,2022.2.4,Win32,59.96641881,5ac0eabce1546900019bd744,64d2fd46c836a06233681665,64dc7d507a5e5ac3952eb0f0,,,,,,,ctch,resources/DP.BMP,resources/DBN.BMP,Door2,-0.200925926,-0.062962963,1,0,0,0.9144,optionLeft,20,14050,7,27,0,27,0,1,,,,,,,,,,,,,,,,,,,,,,,,,,,,,,,,,,,,,,,
,,,,,,,,2023-08-16_08h40.19.813,HF_wild_card,2022.2.4,Win32,59.96641881,5ac0eabce1546900019bd744,64d2fd46c836a06233681665,64dc7d507a5e5ac3952eb0f0,,,,,,,decisionTrl,resources/DP.BMP,resources/DR.BMP,Door2,-0.187962963,-0.030555556,1,0,0,0.7829,optionLeft,40,14090,7,28,0,28,0,1,,,,,,,,,,,,,,,,,,,,,,,,,,,,,,,,,,,,,,,
,,,,,,,,2023-08-16_08h40.19.813,HF_wild_card,2022.2.4,Win32,59.96641881,5ac0eabce1546900019bd744,64d2fd46c836a06233681665,64dc7d507a5e5ac3952eb0f0,,,,,,,decisionTrl,resources/DP.BMP,resources/DR.BMP,Door1,0.269444444,-0.000925926,1,0,0,0.8325,optionRight,30,14120,7,29,0,29,0,1,,,,,,,,,,,,,,,,,,,,,,,,,,,,,,,,,,,,,,,
,,,,,,,,2023-08-16_08h40.19.813,HF_wild_card,2022.2.4,Win32,59.96641881,5ac0eabce1546900019bd744,64d2fd46c836a06233681665,64dc7d507a5e5ac3952eb0f0,,,,,,,decisionTrl,resources/DB.BMP,resources/DBN.BMP,Door3,0.258333333,-0.031481481,1,0,0,0.9143,optionRight,70,14190,7,30,0,30,0,1,,,,,,,,,,,,,,,,,,,,,,,,,,,,,,,,,,,,,,,
,,,,,,,,2023-08-16_08h40.19.813,HF_wild_card,2022.2.4,Win32,59.96641881,5ac0eabce1546900019bd744,64d2fd46c836a06233681665,64dc7d507a5e5ac3952eb0f0,,,,,,,ctch,resources/DBN.BMP,resources/DP.BMP,Door3,-0.252777778,-0.067592593,1,0,0,2.6132,optionLeft,70,14260,7,31,0,31,0,1,,,,,,,,,,,,,,,,,,,,,,,,,,,,,,,,,,,,,,,
,,,,,,,,2023-08-16_08h40.19.813,HF_wild_card,2022.2.4,Win32,59.96641881,5ac0eabce1546900019bd744,64d2fd46c836a06233681665,64dc7d507a5e5ac3952eb0f0,,,,,,,ctch,resources/DR.BMP,resources/DB.BMP,Door4,0.305555556,-0.012037037,1,0,0,1.3488,optionRight,80,14340,7,32,0,32,0,1,,,,,,,,,,,,,,,,,,,,,,,,,,,,,,,,,,,,,,,
,,,,,,,,2023-08-16_08h40.19.813,HF_wild_card,2022.2.4,Win32,59.96641881,5ac0eabce1546900019bd744,64d2fd46c836a06233681665,64dc7d507a5e5ac3952eb0f0,,,,,,,ctch,resources/DB.BMP,resources/DR.BMP,Door1,0.278703704,-0.008333333,1,0,0,1.2488,optionRight,30,14370,7,33,0,33,0,1,,,,,,,,,,,,,,,,,,,,,,,,,,,,,,,,,,,,,,,
,,,,,,,,2023-08-16_08h40.19.813,HF_wild_card,2022.2.4,Win32,59.96641881,5ac0eabce1546900019bd744,64d2fd46c836a06233681665,64dc7d507a5e5ac3952eb0f0,,,,,,,ctch,resources/DB.BMP,resources/DR.BMP,Door4,-0.25,-0.111111111,1,0,0,0.7305,optionLeft,80,14450,7,34,0,34,0,1,,,,,,,,,,,,,,,,,,,,,,,,,,,,,,,,,,,,,,,
,,,,,,,,2023-08-16_08h40.19.813,HF_wild_card,2022.2.4,Win32,59.96641881,5ac0eabce1546900019bd744,64d2fd46c836a06233681665,64dc7d507a5e5ac3952eb0f0,,,,,,,decisionTrl,resources/DR.BMP,resources/DP.BMP,Door2,0.374074074,-0.000925926,1,0,0,1.7486,optionRight,40,14490,7,35,0,35,0,1,,,,,,,,,,,,,,,,,,,,,,,,,,,,,,,,,,,,,,,
,,,,,,,,2023-08-16_08h40.19.813,HF_wild_card,2022.2.4,Win32,59.96641881,5ac0eabce1546900019bd744,64d2fd46c836a06233681665,64dc7d507a5e5ac3952eb0f0,,,,,,,,,,,,,,,,,,,,,,,,,,6,0,6,0,1,,,,,,,,,,,,,,,,,,,,,,,,,,,,,,,,,,
,,,,,,,,2023-08-16_08h40.19.813,HF_wild_card,2022.2.4,Win32,59.96641881,5ac0eabce1546900019bd744,64d2fd46c836a06233681665,64dc7d507a5e5ac3952eb0f0,,,,,,,,,,,,,,,,,,,,,,,,,,,,,,,3,,,,,,,,,,,,,,,,,,,,,,,,,,,,,,,,,
,,,,,,,,2023-08-16_08h40.19.813,HF_wild_card,2022.2.4,Win32,59.96641881,5ac0eabce1546900019bd744,64d2fd46c836a06233681665,64dc7d507a5e5ac3952eb0f0,,,,,,,,,,,,,,,,,,,,,,,,,,,,,,,,,,,,,,,,,,,,,,,,,,,,,,,,,,,,,,,,
,,,,,,,,2023-08-16_08h40.19.813,HF_wild_card,2022.2.4,Win32,59.96641881,5ac0eabce1546900019bd744,64d2fd46c836a06233681665,64dc7d507a5e5ac3952eb0f0,,,,,,,,,,,,,,,,,,,,,,,,,,,,,,,,60,Door4,resources/DB.BMP,0,0,0,0,1,,,,,,,,,,,,,,,,,,,,,,,,,
,,,,,,,,2023-08-16_08h40.19.813,HF_wild_card,2022.2.4,Win32,59.96641881,5ac0eabce1546900019bd744,64d2fd46c836a06233681665,64dc7d507a5e5ac3952eb0f0,,,,,,,,,,,,,,,,,,,,,,,,,,,,,,,,60,Door1,resources/DR.BMP,1,0,1,0,1,,,,,,,,,,,,,,,,,,,,,,,,,
,,,,,,,,2023-08-16_08h40.19.813,HF_wild_card,2022.2.4,Win32,59.96641881,5ac0eabce1546900019bd744,64d2fd46c836a06233681665,64dc7d507a5e5ac3952eb0f0,,,,,,,,,,,,,,,,,,,,,,,,,,,,,,,,60,Door3,resources/DBN.BMP,2,0,2,0,1,,,,,,,,,,,,,,,,,,,,,,,,,
,,,,,,,,2023-08-16_08h40.19.813,HF_wild_card,2022.2.4,Win32,59.96641881,5ac0eabce1546900019bd744,64d2fd46c836a06233681665,64dc7d507a5e5ac3952eb0f0,,,,,,,,,,,,,,,,,,,,,,,,,,,,,,,,55,Door2,resources/DP.BMP,3,0,3,0,1,,,,,,,,,,,,,,,,,,,,,,,,,
,,,,,,,,2023-08-16_08h40.19.813,HF_wild_card,2022.2.4,Win32,59.96641881,5ac0eabce1546900019bd744,64d2fd46c836a06233681665,64dc7d507a5e5ac3952eb0f0,,,,,,,,,,,,,,,,,,,,,,,,,,,,,,,,60,WC_nonExtreme,resources/DY.BMP,4,0,4,0,1,,,,,,,,,,,,,,,,,,,,,,,,,
,,,,,,,,2023-08-16_08h40.19.813,HF_wild_card,2022.2.4,Win32,59.96641881,5ac0eabce1546900019bd744,64d2fd46c836a06233681665,64dc7d507a5e5ac3952eb0f0,,,,,,,,,,,,,,,,,,,,,,,,,,,,,,,,80,WC_extreme,resources/DG.BMP,5,0,5,0,1,,,,,,,,,,,,,,,,,,,,,,,,,
,,,,,,,,2023-08-16_08h40.19.813,HF_wild_card,2022.2.4,Win32,59.96641881,5ac0eabce1546900019bd744,64d2fd46c836a06233681665,64dc7d507a5e5ac3952eb0f0,,,,,,,,,,,,,,,,,,,,,,,,,,,,,,,,,,,,,,,,,,,,,,,,,,,,,,,,,,,,,,,,
