Condition,Low fixed image (Door1),Low risky image (Door2),High fixed image (Door3),High risky image (Door4),Extreme Wild Card,NonExtreme Wild Card,,date,expName,psychopyVersion,OS,frameRate,PROLIFIC_PID,STUDY_ID,SESSION_ID,mouse_2.x,mouse_2.y,mouse_2.leftButton,mouse_2.midButton,mouse_2.rightButton,mouse_2.clicked_name,Trial Type,Left Option Image,Right Option Image,Chosen Door,mouse.x,mouse.y,mouse.leftButton,mouse.midButton,mouse.rightButton,mouse.time,mouse.clicked_name,Feedback,Cumulative Reward,Block,trial.thisRepN,trial.thisTrialN,trial.thisN,trial.thisIndex,trial.ran,blocks.thisRepN,blocks.thisTrialN,blocks.thisN,blocks.thisIndex,blocks.ran,Money conversion,First Outcome Reported,Shown Door (First Outcome),Displayed Image (First Outcome),outcomes.thisRepN,outcomes.thisTrialN,outcomes.thisN,outcomes.thisIndex,outcomes.ran,judgments.thisRepN,judgments.thisTrialN,judgments.thisN,judgments.thisIndex,judgments.ran,freqMouse.x,freqMouse.y,freqMouse.leftButton,freqMouse.midButton,freqMouse.rightButton,freqMouse.clicked_name,FQJ for first outcome,FQJ for second outcome,Shown Door,Displayed Image,trials.thisRepN,trials.thisTrialN,trials.thisN,trials.thisIndex,trials.ran,judgBlock.thisRepN,judgBlock.thisTrialN,judgBlock.thisN,judgBlock.thisIndex,judgBlock.ran
1,resources/DY.BMP,resources/DB.BMP,resources/DG.BMP,resources/DBN.BMP,resources/DP.BMP,resources/DR.BMP,,2023-08-16_08h33.38.276,HF_wild_card,2022.2.4,Win32,60.8383525,60e55bb59cfd0aa9803b4470,64d2fd46c836a06233681665,64dc78e08b20b677772ae9f5,,,,,,,,,,,,,,,,,,,,,,,,,,,,,,,,,,,,,,,,,,,,,,,,,,,,,,,,,,,,,,,,
,,,,,,,,2023-08-16_08h33.38.276,HF_wild_card,2022.2.4,Win32,60.8383525,60e55bb59cfd0aa9803b4470,64d2fd46c836a06233681665,64dc78e08b20b677772ae9f5,-0.026851852,-0.409259259,1,0,0,agree,,,,,,,,,,,,,,,,,,,,,,,,,,,,,,,,,,,,,,,,,,,,,,,,,,,,,,,,,,
,,,,,,,,2023-08-16_08h33.38.276,HF_wild_card,2022.2.4,Win32,60.8383525,60e55bb59cfd0aa9803b4470,64d2fd46c836a06233681665,64dc78e08b20b677772ae9f5,,,,,,,,,,,,,,,,,,,,,,,,,,,,,,,,,,,,,,,,,,,,,,,,,,,,,,,,,,,,,,,,
,,,,,,,,2023-08-16_08h33.38.276,HF_wild_card,2022.2.4,Win32,60.8383525,60e55bb59cfd0aa9803b4470,64d2fd46c836a06233681665,64dc78e08b20b677772ae9f5,,,,,,,decisionTrl,resources/DG.BMP,resources/DBN.BMP,Door3,-0.311111111,-0.055555556,1,0,0,2.2003,optionLeft,70,70,1,0,0,0,0,1,,,,,,,,,,,,,,,,,,,,,,,,,,,,,,,,,,,,,,,
,,,,,,,,2023-08-16_08h33.38.276,HF_wild_card,2022.2.4,Win32,60.8383525,60e55bb59cfd0aa9803b4470,64d2fd46c836a06233681665,64dc78e08b20b677772ae9f5,,,,,,,decisionTrl,resources/DBN.BMP,resources/DG.BMP,Door4,-0.194444444,0,1,0,0,1.2464,optionLeft,80,150,1,1,0,1,0,1,,,,,,,,,,,,,,,,,,,,,,,,,,,,,,,,,,,,,,,
,,,,,,,,2023-08-16_08h33.38.276,HF_wild_card,2022.2.4,Win32,60.8383525,60e55bb59cfd0aa9803b4470,64d2fd46c836a06233681665,64dc78e08b20b677772ae9f5,,,,,,,ctch,resources/DY.BMP,resources/DBN.BMP,Door4,0.262037037,0.021296296,1,0,0,0.8847,optionRight,60,210,1,2,0,2,0,1,,,,,,,,,,,,,,,,,,,,,,,,,,,,,,,,,,,,,,,
,,,,,,,,2023-08-16_08h33.38.276,HF_wild_card,2022.2.4,Win32,60.8383525,60e55bb59cfd0aa9803b4470,64d2fd46c836a06233681665,64dc78e08b20b677772ae9f5,,,,,,,ctch,resources/DY.BMP,resources/DBN.BMP,Door1,-0.214814815,-0.016666667,1,0,0,1.7126,optionLeft,30,240,1,3,0,3,0,1,,,,,,,,,,,,,,,,,,,,,,,,,,,,,,,,,,,,,,,
,,,,,,,,2023-08-16_08h33.38.276,HF_wild_card,2022.2.4,Win32,60.8383525,60e55bb59cfd0aa9803b4470,64d2fd46c836a06233681665,64dc78e08b20b677772ae9f5,,,,,,,ctch,resources/DBN.BMP,resources/DY.BMP,Door4,-0.201851852,-0.007407407,1,0,0,0.7635,optionLeft,80,320,1,4,0,4,0,1,,,,,,,,,,,,,,,,,,,,,,,,,,,,,,,,,,,,,,,
,,,,,,,,2023-08-16_08h33.38.276,HF_wild_card,2022.2.4,Win32,60.8383525,60e55bb59cfd0aa9803b4470,64d2fd46c836a06233681665,64dc78e08b20b677772ae9f5,,,,,,,decisionTrl,resources/DY.BMP,resources/DB.BMP,Door2,0.416666667,0.00462963,1,0,0,2.9451,optionRight,20,340,1,5,0,5,0,1,,,,,,,,,,,,,,,,,,,,,,,,,,,,,,,,,,,,,,,
,,,,,,,,2023-08-16_08h33.38.276,HF_wild_card,2022.2.4,Win32,60.8383525,60e55bb59cfd0aa9803b4470,64d2fd46c836a06233681665,64dc78e08b20b677772ae9f5,,,,,,,ctch,resources/DBN.BMP,resources/DY.BMP,Door4,-0.371296296,0.027777778,1,0,0,1.5795,optionLeft,80,420,1,6,0,6,0,1,,,,,,,,,,,,,,,,,,,,,,,,,,,,,,,,,,,,,,,
,,,,,,,,2023-08-16_08h33.38.276,HF_wild_card,2022.2.4,Win32,60.8383525,60e55bb59cfd0aa9803b4470,64d2fd46c836a06233681665,64dc78e08b20b677772ae9f5,,,,,,,decisionTrl,resources/DBN.BMP,resources/DG.BMP,Door3,0.276851852,-0.005555556,1,0,0,1.2627,optionRight,70,490,1,7,0,7,0,1,,,,,,,,,,,,,,,,,,,,,,,,,,,,,,,,,,,,,,,
,,,,,,,,2023-08-16_08h33.38.276,HF_wild_card,2022.2.4,Win32,60.8383525,60e55bb59cfd0aa9803b4470,64d2fd46c836a06233681665,64dc78e08b20b677772ae9f5,,,,,,,sngl,resources/DG.BMP,resources/Empty.png,Door3,-0.40462963,0.02037037,1,0,0,1.6437,optionLeft,70,560,1,8,0,8,0,1,,,,,,,,,,,,,,,,,,,,,,,,,,,,,,,,,,,,,,,
,,,,,,,,2023-08-16_08h33.38.276,HF_wild_card,2022.2.4,Win32,60.8383525,60e55bb59cfd0aa9803b4470,64d2fd46c836a06233681665,64dc78e08b20b677772ae9f5,,,,,,,sngl,resources/Empty.png,resources/DY.BMP,Door1,0.372222222,0.023148148,1,0,0,1.4288,optionRight,30,590,1,9,0,9,0,1,,,,,,,,,,,,,,,,,,,,,,,,,,,,,,,,,,,,,,,
,,,,,,,,2023-08-16_08h33.38.276,HF_wild_card,2022.2.4,Win32,60.8383525,60e55bb59cfd0aa9803b4470,64d2fd46c836a06233681665,64dc78e08b20b677772ae9f5,,,,,,,decisionTrl,resources/DR.BMP,resources/DBN.BMP,WildCard_NonEx,-0.388888889,0.001851852,1,0,0,1.2141,optionLeft,45,635,1,10,0,10,0,1,,,,,,,,,,,,,,,,,,,,,,,,,,,,,,,,,,,,,,,
,,,,,,,,2023-08-16_08h33.38.276,HF_wild_card,2022.2.4,Win32,60.8383525,60e55bb59cfd0aa9803b4470,64d2fd46c836a06233681665,64dc78e08b20b677772ae9f5,,,,,,,decisionTrl,resources/DBN.BMP,resources/DR.BMP,Door4,-0.287962963,0.035185185,1,0,0,0.8307,optionLeft,60,695,1,11,0,11,0,1,,,,,,,,,,,,,,,,,,,,,,,,,,,,,,,,,,,,,,,
,,,,,,,,2023-08-16_08h33.38.276,HF_wild_card,2022.2.4,Win32,60.8383525,60e55bb59cfd0aa9803b4470,64d2fd46c836a06233681665,64dc78e08b20b677772ae9f5,,,,,,,decisionTrl,resources/DY.BMP,resources/DR.BMP,WildCard_NonEx,0.297222222,0.00462963,1,0,0,1.7633,optionRight,55,750,1,12,0,12,0,1,,,,,,,,,,,,,,,,,,,,,,,,,,,,,,,,,,,,,,,
,,,,,,,,2023-08-16_08h33.38.276,HF_wild_card,2022.2.4,Win32,60.8383525,60e55bb59cfd0aa9803b4470,64d2fd46c836a06233681665,64dc78e08b20b677772ae9f5,,,,,,,sngl,resources/DB.BMP,resources/Empty.png,Door2,-0.316666667,0.001851852,1,0,0,0.9754,optionLeft,40,790,1,13,0,13,0,1,,,,,,,,,,,,,,,,,,,,,,,,,,,,,,,,,,,,,,,
,,,,,,,,2023-08-16_08h33.38.276,HF_wild_card,2022.2.4,Win32,60.8383525,60e55bb59cfd0aa9803b4470,64d2fd46c836a06233681665,64dc78e08b20b677772ae9f5,,,,,,,ctch,resources/DB.BMP,resources/DG.BMP,Door3,0.391666667,0.013888889,1,0,0,1.7137,optionRight,70,860,1,14,0,14,0,1,,,,,,,,,,,,,,,,,,,,,,,,,,,,,,,,,,,,,,,
,,,,,,,,2023-08-16_08h33.38.276,HF_wild_card,2022.2.4,Win32,60.8383525,60e55bb59cfd0aa9803b4470,64d2fd46c836a06233681665,64dc78e08b20b677772ae9f5,,,,,,,sngl,resources/Empty.png,resources/DB.BMP,Door2,0.389814815,0.008333333,1,0,0,0.9138,optionRight,20,880,1,15,0,15,0,1,,,,,,,,,,,,,,,,,,,,,,,,,,,,,,,,,,,,,,,
,,,,,,,,2023-08-16_08h33.38.276,HF_wild_card,2022.2.4,Win32,60.8383525,60e55bb59cfd0aa9803b4470,64d2fd46c836a06233681665,64dc78e08b20b677772ae9f5,,,,,,,ctch,resources/DG.BMP,resources/DB.BMP,Door3,-0.402777778,0.012962963,1,0,0,1.0471,optionLeft,70,950,1,16,0,16,0,1,,,,,,,,,,,,,,,,,,,,,,,,,,,,,,,,,,,,,,,
,,,,,,,,2023-08-16_08h33.38.276,HF_wild_card,2022.2.4,Win32,60.8383525,60e55bb59cfd0aa9803b4470,64d2fd46c836a06233681665,64dc78e08b20b677772ae9f5,,,,,,,decisionTrl,resources/DG.BMP,resources/DBN.BMP,Door4,0.413888889,0.031481481,1,0,0,1.5294,optionRight,60,1010,1,17,0,17,0,1,,,,,,,,,,,,,,,,,,,,,,,,,,,,,,,,,,,,,,,
,,,,,,,,2023-08-16_08h33.38.276,HF_wild_card,2022.2.4,Win32,60.8383525,60e55bb59cfd0aa9803b4470,64d2fd46c836a06233681665,64dc78e08b20b677772ae9f5,,,,,,,decisionTrl,resources/DY.BMP,resources/DB.BMP,Door1,-0.287037037,0.017592593,1,0,0,2.3461,optionLeft,30,1040,1,18,0,18,0,1,,,,,,,,,,,,,,,,,,,,,,,,,,,,,,,,,,,,,,,
,,,,,,,,2023-08-16_08h33.38.276,HF_wild_card,2022.2.4,Win32,60.8383525,60e55bb59cfd0aa9803b4470,64d2fd46c836a06233681665,64dc78e08b20b677772ae9f5,,,,,,,decisionTrl,resources/DB.BMP,resources/DY.BMP,Door2,-0.310185185,0.021296296,1,0,0,1.4468,optionLeft,20,1060,1,19,0,19,0,1,,,,,,,,,,,,,,,,,,,,,,,,,,,,,,,,,,,,,,,
,,,,,,,,2023-08-16_08h33.38.276,HF_wild_card,2022.2.4,Win32,60.8383525,60e55bb59cfd0aa9803b4470,64d2fd46c836a06233681665,64dc78e08b20b677772ae9f5,,,,,,,sngl,resources/DR.BMP,resources/Empty.png,WildCard_NonEx,-0.406481481,0.039814815,1,0,0,0.9628,optionLeft,55,1115,1,20,0,20,0,1,,,,,,,,,,,,,,,,,,,,,,,,,,,,,,,,,,,,,,,
,,,,,,,,2023-08-16_08h33.38.276,HF_wild_card,2022.2.4,Win32,60.8383525,60e55bb59cfd0aa9803b4470,64d2fd46c836a06233681665,64dc78e08b20b677772ae9f5,,,,,,,sngl,resources/Empty.png,resources/DR.BMP,WildCard_NonEx,0.309259259,0.032407407,1,0,0,0.5803,optionRight,55,1170,1,21,0,21,0,1,,,,,,,,,,,,,,,,,,,,,,,,,,,,,,,,,,,,,,,
,,,,,,,,2023-08-16_08h33.38.276,HF_wild_card,2022.2.4,Win32,60.8383525,60e55bb59cfd0aa9803b4470,64d2fd46c836a06233681665,64dc78e08b20b677772ae9f5,,,,,,,sngl,resources/Empty.png,resources/DR.BMP,WildCard_NonEx,0.358333333,0.012037037,1,0,0,0.8303,optionRight,45,1215,1,22,0,22,0,1,,,,,,,,,,,,,,,,,,,,,,,,,,,,,,,,,,,,,,,
,,,,,,,,2023-08-16_08h33.38.276,HF_wild_card,2022.2.4,Win32,60.8383525,60e55bb59cfd0aa9803b4470,64d2fd46c836a06233681665,64dc78e08b20b677772ae9f5,,,,,,,decisionTrl,resources/DB.BMP,resources/DR.BMP,WildCard_NonEx,0.387037037,0.012962963,1,0,0,2.2631,optionRight,45,1260,1,23,0,23,0,1,,,,,,,,,,,,,,,,,,,,,,,,,,,,,,,,,,,,,,,
,,,,,,,,2023-08-16_08h33.38.276,HF_wild_card,2022.2.4,Win32,60.8383525,60e55bb59cfd0aa9803b4470,64d2fd46c836a06233681665,64dc78e08b20b677772ae9f5,,,,,,,decisionTrl,resources/DG.BMP,resources/DR.BMP,Door3,-0.312962963,0.026851852,1,0,0,1.0808,optionLeft,70,1330,1,24,0,24,0,1,,,,,,,,,,,,,,,,,,,,,,,,,,,,,,,,,,,,,,,
,,,,,,,,2023-08-16_08h33.38.276,HF_wild_card,2022.2.4,Win32,60.8383525,60e55bb59cfd0aa9803b4470,64d2fd46c836a06233681665,64dc78e08b20b677772ae9f5,,,,,,,ctch,resources/DB.BMP,resources/DG.BMP,Door3,0.391666667,0.062037037,1,0,0,0.6306,optionRight,70,1400,1,25,0,25,0,1,,,,,,,,,,,,,,,,,,,,,,,,,,,,,,,,,,,,,,,
,,,,,,,,2023-08-16_08h33.38.276,HF_wild_card,2022.2.4,Win32,60.8383525,60e55bb59cfd0aa9803b4470,64d2fd46c836a06233681665,64dc78e08b20b677772ae9f5,,,,,,,decisionTrl,resources/DY.BMP,resources/DB.BMP,Door2,0.313888889,0.002777778,1,0,0,1.1981,optionRight,40,1440,1,26,0,26,0,1,,,,,,,,,,,,,,,,,,,,,,,,,,,,,,,,,,,,,,,
,,,,,,,,2023-08-16_08h33.38.276,HF_wild_card,2022.2.4,Win32,60.8383525,60e55bb59cfd0aa9803b4470,64d2fd46c836a06233681665,64dc78e08b20b677772ae9f5,,,,,,,sngl,resources/Empty.png,resources/DBN.BMP,Door4,0.386111111,0.040740741,1,0,0,0.6299,optionRight,60,1500,1,27,0,27,0,1,,,,,,,,,,,,,,,,,,,,,,,,,,,,,,,,,,,,,,,
,,,,,,,,2023-08-16_08h33.38.276,HF_wild_card,2022.2.4,Win32,60.8383525,60e55bb59cfd0aa9803b4470,64d2fd46c836a06233681665,64dc78e08b20b677772ae9f5,,,,,,,decisionTrl,resources/DBN.BMP,resources/DG.BMP,Door4,-0.288888889,0.02037037,1,0,0,0.9967,optionLeft,60,1560,1,28,0,28,0,1,,,,,,,,,,,,,,,,,,,,,,,,,,,,,,,,,,,,,,,
,,,,,,,,2023-08-16_08h33.38.276,HF_wild_card,2022.2.4,Win32,60.8383525,60e55bb59cfd0aa9803b4470,64d2fd46c836a06233681665,64dc78e08b20b677772ae9f5,,,,,,,decisionTrl,resources/DB.BMP,resources/DY.BMP,Door2,-0.328703704,0.025925926,1,0,0,2.196,optionLeft,40,1600,1,29,0,29,0,1,,,,,,,,,,,,,,,,,,,,,,,,,,,,,,,,,,,,,,,
,,,,,,,,2023-08-16_08h33.38.276,HF_wild_card,2022.2.4,Win32,60.8383525,60e55bb59cfd0aa9803b4470,64d2fd46c836a06233681665,64dc78e08b20b677772ae9f5,,,,,,,decisionTrl,resources/DB.BMP,resources/DY.BMP,Door2,-0.368518519,0.033333333,1,0,0,1.8967,optionLeft,40,1640,1,30,0,30,0,1,,,,,,,,,,,,,,,,,,,,,,,,,,,,,,,,,,,,,,,
,,,,,,,,2023-08-16_08h33.38.276,HF_wild_card,2022.2.4,Win32,60.8383525,60e55bb59cfd0aa9803b4470,64d2fd46c836a06233681665,64dc78e08b20b677772ae9f5,,,,,,,decisionTrl,resources/DB.BMP,resources/DY.BMP,Door2,-0.283333333,0,1,0,0,1.0876,optionLeft,40,1680,1,31,0,31,0,1,,,,,,,,,,,,,,,,,,,,,,,,,,,,,,,,,,,,,,,
,,,,,,,,2023-08-16_08h33.38.276,HF_wild_card,2022.2.4,Win32,60.8383525,60e55bb59cfd0aa9803b4470,64d2fd46c836a06233681665,64dc78e08b20b677772ae9f5,,,,,,,decisionTrl,resources/DR.BMP,resources/DB.BMP,Door2,0.475925926,-0.018518519,1,0,0,1.2636,optionRight,20,1700,1,32,0,32,0,1,,,,,,,,,,,,,,,,,,,,,,,,,,,,,,,,,,,,,,,
,,,,,,,,2023-08-16_08h33.38.276,HF_wild_card,2022.2.4,Win32,60.8383525,60e55bb59cfd0aa9803b4470,64d2fd46c836a06233681665,64dc78e08b20b677772ae9f5,,,,,,,sngl,resources/DR.BMP,resources/Empty.png,WildCard_NonEx,-0.406481481,0.017592593,1,0,0,0.5302,optionLeft,45,1745,1,33,0,33,0,1,,,,,,,,,,,,,,,,,,,,,,,,,,,,,,,,,,,,,,,
,,,,,,,,2023-08-16_08h33.38.276,HF_wild_card,2022.2.4,Win32,60.8383525,60e55bb59cfd0aa9803b4470,64d2fd46c836a06233681665,64dc78e08b20b677772ae9f5,,,,,,,decisionTrl,resources/DG.BMP,resources/DBN.BMP,Door4,0.343518519,0.039814815,1,0,0,0.8809,optionRight,60,1805,1,34,0,34,0,1,,,,,,,,,,,,,,,,,,,,,,,,,,,,,,,,,,,,,,,
,,,,,,,,2023-08-16_08h33.38.276,HF_wild_card,2022.2.4,Win32,60.8383525,60e55bb59cfd0aa9803b4470,64d2fd46c836a06233681665,64dc78e08b20b677772ae9f5,,,,,,,decisionTrl,resources/DY.BMP,resources/DB.BMP,Door1,-0.367592593,0.019444444,1,0,0,1.497,optionLeft,30,1835,1,35,0,35,0,1,,,,,,,,,,,,,,,,,,,,,,,,,,,,,,,,,,,,,,,
,,,,,,,,2023-08-16_08h33.38.276,HF_wild_card,2022.2.4,Win32,60.8383525,60e55bb59cfd0aa9803b4470,64d2fd46c836a06233681665,64dc78e08b20b677772ae9f5,,,,,,,sngl,resources/DBN.BMP,resources/Empty.png,Door4,-0.27962963,0.021296296,1,0,0,0.696,optionLeft,80,1915,1,36,0,36,0,1,,,,,,,,,,,,,,,,,,,,,,,,,,,,,,,,,,,,,,,
,,,,,,,,2023-08-16_08h33.38.276,HF_wild_card,2022.2.4,Win32,60.8383525,60e55bb59cfd0aa9803b4470,64d2fd46c836a06233681665,64dc78e08b20b677772ae9f5,,,,,,,decisionTrl,resources/DR.BMP,resources/DY.BMP,WildCard_NonEx,-0.432407407,0.005555556,1,0,0,1.796,optionLeft,45,1960,1,37,0,37,0,1,,,,,,,,,,,,,,,,,,,,,,,,,,,,,,,,,,,,,,,
,,,,,,,,2023-08-16_08h33.38.276,HF_wild_card,2022.2.4,Win32,60.8383525,60e55bb59cfd0aa9803b4470,64d2fd46c836a06233681665,64dc78e08b20b677772ae9f5,,,,,,,sngl,resources/DY.BMP,resources/Empty.png,Door1,-0.303703704,0.039814815,1,0,0,0.5977,optionLeft,30,1990,1,38,0,38,0,1,,,,,,,,,,,,,,,,,,,,,,,,,,,,,,,,,,,,,,,
,,,,,,,,2023-08-16_08h33.38.276,HF_wild_card,2022.2.4,Win32,60.8383525,60e55bb59cfd0aa9803b4470,64d2fd46c836a06233681665,64dc78e08b20b677772ae9f5,,,,,,,decisionTrl,resources/DR.BMP,resources/DG.BMP,Door3,0.391666667,0.000925926,1,0,0,1.0138,optionRight,70,2060,1,39,0,39,0,1,,,,,,,,,,,,,,,,,,,,,,,,,,,,,,,,,,,,,,,
,,,,,,,,2023-08-16_08h33.38.276,HF_wild_card,2022.2.4,Win32,60.8383525,60e55bb59cfd0aa9803b4470,64d2fd46c836a06233681665,64dc78e08b20b677772ae9f5,,,,,,,sngl,resources/Empty.png,resources/DG.BMP,Door3,0.388888889,0.032407407,1,0,0,0.614,optionRight,70,2130,1,40,0,40,0,1,,,,,,,,,,,,,,,,,,,,,,,,,,,,,,,,,,,,,,,
,,,,,,,,2023-08-16_08h33.38.276,HF_wild_card,2022.2.4,Win32,60.8383525,60e55bb59cfd0aa9803b4470,64d2fd46c836a06233681665,64dc78e08b20b677772ae9f5,,,,,,,ctch,resources/DG.BMP,resources/DB.BMP,Door3,-0.311111111,0.02037037,1,0,0,0.6131,optionLeft,70,2200,1,41,0,41,0,1,,,,,,,,,,,,,,,,,,,,,,,,,,,,,,,,,,,,,,,
,,,,,,,,2023-08-16_08h33.38.276,HF_wild_card,2022.2.4,Win32,60.8383525,60e55bb59cfd0aa9803b4470,64d2fd46c836a06233681665,64dc78e08b20b677772ae9f5,,,,,,,decisionTrl,resources/DG.BMP,resources/DBN.BMP,Door3,-0.377777778,0.035185185,1,0,0,0.5652,optionLeft,70,2270,1,42,0,42,0,1,,,,,,,,,,,,,,,,,,,,,,,,,,,,,,,,,,,,,,,
,,,,,,,,2023-08-16_08h33.38.276,HF_wild_card,2022.2.4,Win32,60.8383525,60e55bb59cfd0aa9803b4470,64d2fd46c836a06233681665,64dc78e08b20b677772ae9f5,,,,,,,decisionTrl,resources/DBN.BMP,resources/DG.BMP,Door4,-0.275925926,0.041666667,1,0,0,1.0466,optionLeft,60,2330,1,43,0,43,0,1,,,,,,,,,,,,,,,,,,,,,,,,,,,,,,,,,,,,,,,
,,,,,,,,2023-08-16_08h33.38.276,HF_wild_card,2022.2.4,Win32,60.8383525,60e55bb59cfd0aa9803b4470,64d2fd46c836a06233681665,64dc78e08b20b677772ae9f5,,,,,,,,,,,,,,,,,,,,,,,,,,0,0,0,0,1,,,,,,,,,,,,,,,,,,,,,,,,,,,,,,,,,,
,,,,,,,,2023-08-16_08h33.38.276,HF_wild_card,2022.2.4,Win32,60.8383525,60e55bb59cfd0aa9803b4470,64d2fd46c836a06233681665,64dc78e08b20b677772ae9f5,,,,,,,sngl,resources/DB.BMP,resources/Empty.png,Door2,-0.384259259,0.060185185,1,0,0,0.674,optionLeft,20,2350,2,0,0,0,0,1,,,,,,,,,,,,,,,,,,,,,,,,,,,,,,,,,,,,,,,
,,,,,,,,2023-08-16_08h33.38.276,HF_wild_card,2022.2.4,Win32,60.8383525,60e55bb59cfd0aa9803b4470,64d2fd46c836a06233681665,64dc78e08b20b677772ae9f5,,,,,,,sngl,resources/DG.BMP,resources/Empty.png,Door3,-0.323148148,0.013888889,1,0,0,0.697,optionLeft,70,2420,2,1,0,1,0,1,,,,,,,,,,,,,,,,,,,,,,,,,,,,,,,,,,,,,,,
,,,,,,,,2023-08-16_08h33.38.276,HF_wild_card,2022.2.4,Win32,60.8383525,60e55bb59cfd0aa9803b4470,64d2fd46c836a06233681665,64dc78e08b20b677772ae9f5,,,,,,,decisionTrl,resources/DB.BMP,resources/DY.BMP,Door2,-0.436111111,0.013888889,1,0,0,1.7967,optionLeft,40,2460,2,2,0,2,0,1,,,,,,,,,,,,,,,,,,,,,,,,,,,,,,,,,,,,,,,
,,,,,,,,2023-08-16_08h33.38.276,HF_wild_card,2022.2.4,Win32,60.8383525,60e55bb59cfd0aa9803b4470,64d2fd46c836a06233681665,64dc78e08b20b677772ae9f5,,,,,,,sngl,resources/Empty.png,resources/DG.BMP,Door3,0.437962963,0.003703704,1,0,0,0.5977,optionRight,70,2530,2,3,0,3,0,1,,,,,,,,,,,,,,,,,,,,,,,,,,,,,,,,,,,,,,,
,,,,,,,,2023-08-16_08h33.38.276,HF_wild_card,2022.2.4,Win32,60.8383525,60e55bb59cfd0aa9803b4470,64d2fd46c836a06233681665,64dc78e08b20b677772ae9f5,,,,,,,decisionTrl,resources/DB.BMP,resources/DR.BMP,Door2,-0.275925926,0.011111111,1,0,0,1.2968,optionLeft,20,2550,2,4,0,4,0,1,,,,,,,,,,,,,,,,,,,,,,,,,,,,,,,,,,,,,,,
,,,,,,,,2023-08-16_08h33.38.276,HF_wild_card,2022.2.4,Win32,60.8383525,60e55bb59cfd0aa9803b4470,64d2fd46c836a06233681665,64dc78e08b20b677772ae9f5,,,,,,,ctch,resources/DG.BMP,resources/DB.BMP,Door3,-0.363888889,0.014814815,1,0,0,1.4965,optionLeft,70,2620,2,5,0,5,0,1,,,,,,,,,,,,,,,,,,,,,,,,,,,,,,,,,,,,,,,
,,,,,,,,2023-08-16_08h33.38.276,HF_wild_card,2022.2.4,Win32,60.8383525,60e55bb59cfd0aa9803b4470,64d2fd46c836a06233681665,64dc78e08b20b677772ae9f5,,,,,,,decisionTrl,resources/DBN.BMP,resources/DG.BMP,Door3,0.281481481,0.022222222,1,0,0,1.0971,optionRight,70,2690,2,6,0,6,0,1,,,,,,,,,,,,,,,,,,,,,,,,,,,,,,,,,,,,,,,
,,,,,,,,2023-08-16_08h33.38.276,HF_wild_card,2022.2.4,Win32,60.8383525,60e55bb59cfd0aa9803b4470,64d2fd46c836a06233681665,64dc78e08b20b677772ae9f5,,,,,,,decisionTrl,resources/DB.BMP,resources/DY.BMP,Door1,0.30462963,0.011111111,1,0,0,1.6296,optionRight,30,2720,2,7,0,7,0,1,,,,,,,,,,,,,,,,,,,,,,,,,,,,,,,,,,,,,,,
,,,,,,,,2023-08-16_08h33.38.276,HF_wild_card,2022.2.4,Win32,60.8383525,60e55bb59cfd0aa9803b4470,64d2fd46c836a06233681665,64dc78e08b20b677772ae9f5,,,,,,,sngl,resources/DR.BMP,resources/Empty.png,WildCard_NonEx,-0.330555556,0,1,0,0,0.5314,optionLeft,55,2775,2,8,0,8,0,1,,,,,,,,,,,,,,,,,,,,,,,,,,,,,,,,,,,,,,,
,,,,,,,,2023-08-16_08h33.38.276,HF_wild_card,2022.2.4,Win32,60.8383525,60e55bb59cfd0aa9803b4470,64d2fd46c836a06233681665,64dc78e08b20b677772ae9f5,,,,,,,decisionTrl,resources/DY.BMP,resources/DB.BMP,Door1,-0.344444444,0.036111111,1,0,0,1.0302,optionLeft,30,2805,2,9,0,9,0,1,,,,,,,,,,,,,,,,,,,,,,,,,,,,,,,,,,,,,,,
,,,,,,,,2023-08-16_08h33.38.276,HF_wild_card,2022.2.4,Win32,60.8383525,60e55bb59cfd0aa9803b4470,64d2fd46c836a06233681665,64dc78e08b20b677772ae9f5,,,,,,,decisionTrl,resources/DBN.BMP,resources/DG.BMP,Door3,0.175,0.001851852,1,0,0,0.7976,optionRight,70,2875,2,10,0,10,0,1,,,,,,,,,,,,,,,,,,,,,,,,,,,,,,,,,,,,,,,
,,,,,,,,2023-08-16_08h33.38.276,HF_wild_card,2022.2.4,Win32,60.8383525,60e55bb59cfd0aa9803b4470,64d2fd46c836a06233681665,64dc78e08b20b677772ae9f5,,,,,,,decisionTrl,resources/DBN.BMP,resources/DR.BMP,Door4,-0.3,0.036111111,1,0,0,1.5462,optionLeft,60,2935,2,11,0,11,0,1,,,,,,,,,,,,,,,,,,,,,,,,,,,,,,,,,,,,,,,
,,,,,,,,2023-08-16_08h33.38.276,HF_wild_card,2022.2.4,Win32,60.8383525,60e55bb59cfd0aa9803b4470,64d2fd46c836a06233681665,64dc78e08b20b677772ae9f5,,,,,,,decisionTrl,resources/DG.BMP,resources/DBN.BMP,Door3,-0.398148148,0.027777778,1,0,0,1.0138,optionLeft,70,3005,2,12,0,12,0,1,,,,,,,,,,,,,,,,,,,,,,,,,,,,,,,,,,,,,,,
,,,,,,,,2023-08-16_08h33.38.276,HF_wild_card,2022.2.4,Win32,60.8383525,60e55bb59cfd0aa9803b4470,64d2fd46c836a06233681665,64dc78e08b20b677772ae9f5,,,,,,,sngl,resources/Empty.png,resources/DR.BMP,WildCard_NonEx,0.289814815,0.027777778,1,0,0,0.581,optionRight,45,3050,2,13,0,13,0,1,,,,,,,,,,,,,,,,,,,,,,,,,,,,,,,,,,,,,,,
,,,,,,,,2023-08-16_08h33.38.276,HF_wild_card,2022.2.4,Win32,60.8383525,60e55bb59cfd0aa9803b4470,64d2fd46c836a06233681665,64dc78e08b20b677772ae9f5,,,,,,,ctch,resources/DBN.BMP,resources/DY.BMP,Door4,-0.239814815,0.041666667,1,0,0,1.1305,optionLeft,80,3130,2,14,0,14,0,1,,,,,,,,,,,,,,,,,,,,,,,,,,,,,,,,,,,,,,,
,,,,,,,,2023-08-16_08h33.38.276,HF_wild_card,2022.2.4,Win32,60.8383525,60e55bb59cfd0aa9803b4470,64d2fd46c836a06233681665,64dc78e08b20b677772ae9f5,,,,,,,decisionTrl,resources/DY.BMP,resources/DB.BMP,Door2,0.259259259,-0.00462963,1,0,0,1.2136,optionRight,40,3170,2,15,0,15,0,1,,,,,,,,,,,,,,,,,,,,,,,,,,,,,,,,,,,,,,,
,,,,,,,,2023-08-16_08h33.38.276,HF_wild_card,2022.2.4,Win32,60.8383525,60e55bb59cfd0aa9803b4470,64d2fd46c836a06233681665,64dc78e08b20b677772ae9f5,,,,,,,ctch,resources/DBN.BMP,resources/DY.BMP,Door4,-0.350925926,0.030555556,1,0,0,0.7304,optionLeft,80,3250,2,16,0,16,0,1,,,,,,,,,,,,,,,,,,,,,,,,,,,,,,,,,,,,,,,
,,,,,,,,2023-08-16_08h33.38.276,HF_wild_card,2022.2.4,Win32,60.8383525,60e55bb59cfd0aa9803b4470,64d2fd46c836a06233681665,64dc78e08b20b677772ae9f5,,,,,,,decisionTrl,resources/DY.BMP,resources/DB.BMP,Door2,0.240740741,0.013888889,1,0,0,1.0805,optionRight,20,3270,2,17,0,17,0,1,,,,,,,,,,,,,,,,,,,,,,,,,,,,,,,,,,,,,,,
,,,,,,,,2023-08-16_08h33.38.276,HF_wild_card,2022.2.4,Win32,60.8383525,60e55bb59cfd0aa9803b4470,64d2fd46c836a06233681665,64dc78e08b20b677772ae9f5,,,,,,,sngl,resources/DBN.BMP,resources/Empty.png,Door4,-0.351851852,0.031481481,1,0,0,0.4984,optionLeft,60,3330,2,18,0,18,0,1,,,,,,,,,,,,,,,,,,,,,,,,,,,,,,,,,,,,,,,
,,,,,,,,2023-08-16_08h33.38.276,HF_wild_card,2022.2.4,Win32,60.8383525,60e55bb59cfd0aa9803b4470,64d2fd46c836a06233681665,64dc78e08b20b677772ae9f5,,,,,,,decisionTrl,resources/DB.BMP,resources/DY.BMP,Door2,-0.208333333,0.02037037,1,0,0,0.9142,optionLeft,20,3350,2,19,0,19,0,1,,,,,,,,,,,,,,,,,,,,,,,,,,,,,,,,,,,,,,,
,,,,,,,,2023-08-16_08h33.38.276,HF_wild_card,2022.2.4,Win32,60.8383525,60e55bb59cfd0aa9803b4470,64d2fd46c836a06233681665,64dc78e08b20b677772ae9f5,,,,,,,decisionTrl,resources/DR.BMP,resources/DY.BMP,WildCard_NonEx,-0.349074074,0.048148148,1,0,0,1.3137,optionLeft,55,3405,2,20,0,20,0,1,,,,,,,,,,,,,,,,,,,,,,,,,,,,,,,,,,,,,,,
,,,,,,,,2023-08-16_08h33.38.276,HF_wild_card,2022.2.4,Win32,60.8383525,60e55bb59cfd0aa9803b4470,64d2fd46c836a06233681665,64dc78e08b20b677772ae9f5,,,,,,,decisionTrl,resources/DG.BMP,resources/DR.BMP,Door3,-0.390740741,0.04537037,1,0,0,0.9303,optionLeft,70,3475,2,21,0,21,0,1,,,,,,,,,,,,,,,,,,,,,,,,,,,,,,,,,,,,,,,
,,,,,,,,2023-08-16_08h33.38.276,HF_wild_card,2022.2.4,Win32,60.8383525,60e55bb59cfd0aa9803b4470,64d2fd46c836a06233681665,64dc78e08b20b677772ae9f5,,,,,,,ctch,resources/DB.BMP,resources/DG.BMP,Door3,0.259259259,0.011111111,1,0,0,0.6807,optionRight,70,3545,2,22,0,22,0,1,,,,,,,,,,,,,,,,,,,,,,,,,,,,,,,,,,,,,,,
,,,,,,,,2023-08-16_08h33.38.276,HF_wild_card,2022.2.4,Win32,60.8383525,60e55bb59cfd0aa9803b4470,64d2fd46c836a06233681665,64dc78e08b20b677772ae9f5,,,,,,,decisionTrl,resources/DG.BMP,resources/DBN.BMP,Door3,-0.248148148,0.018518519,1,0,0,0.5808,optionLeft,70,3615,2,23,0,23,0,1,,,,,,,,,,,,,,,,,,,,,,,,,,,,,,,,,,,,,,,
,,,,,,,,2023-08-16_08h33.38.276,HF_wild_card,2022.2.4,Win32,60.8383525,60e55bb59cfd0aa9803b4470,64d2fd46c836a06233681665,64dc78e08b20b677772ae9f5,,,,,,,ctch,resources/DB.BMP,resources/DG.BMP,Door3,0.203703704,-0.019444444,1,0,0,0.8643,optionRight,70,3685,2,24,0,24,0,1,,,,,,,,,,,,,,,,,,,,,,,,,,,,,,,,,,,,,,,
,,,,,,,,2023-08-16_08h33.38.276,HF_wild_card,2022.2.4,Win32,60.8383525,60e55bb59cfd0aa9803b4470,64d2fd46c836a06233681665,64dc78e08b20b677772ae9f5,,,,,,,sngl,resources/Empty.png,resources/DY.BMP,Door1,0.274074074,-0.012962963,1,0,0,0.7141,optionRight,30,3715,2,25,0,25,0,1,,,,,,,,,,,,,,,,,,,,,,,,,,,,,,,,,,,,,,,
,,,,,,,,2023-08-16_08h33.38.276,HF_wild_card,2022.2.4,Win32,60.8383525,60e55bb59cfd0aa9803b4470,64d2fd46c836a06233681665,64dc78e08b20b677772ae9f5,,,,,,,ctch,resources/DY.BMP,resources/DBN.BMP,Door4,0.310185185,0.018518519,1,0,0,0.5977,optionRight,60,3775,2,26,0,26,0,1,,,,,,,,,,,,,,,,,,,,,,,,,,,,,,,,,,,,,,,
,,,,,,,,2023-08-16_08h33.38.276,HF_wild_card,2022.2.4,Win32,60.8383525,60e55bb59cfd0aa9803b4470,64d2fd46c836a06233681665,64dc78e08b20b677772ae9f5,,,,,,,decisionTrl,resources/DG.BMP,resources/DBN.BMP,Door3,-0.282407407,0.023148148,1,0,0,0.7802,optionLeft,70,3845,2,27,0,27,0,1,,,,,,,,,,,,,,,,,,,,,,,,,,,,,,,,,,,,,,,
,,,,,,,,2023-08-16_08h33.38.276,HF_wild_card,2022.2.4,Win32,60.8383525,60e55bb59cfd0aa9803b4470,64d2fd46c836a06233681665,64dc78e08b20b677772ae9f5,,,,,,,decisionTrl,resources/DB.BMP,resources/DY.BMP,Door1,0.337037037,0.013888889,1,0,0,1.8289,optionRight,30,3875,2,28,0,28,0,1,,,,,,,,,,,,,,,,,,,,,,,,,,,,,,,,,,,,,,,
,,,,,,,,2023-08-16_08h33.38.276,HF_wild_card,2022.2.4,Win32,60.8383525,60e55bb59cfd0aa9803b4470,64d2fd46c836a06233681665,64dc78e08b20b677772ae9f5,,,,,,,sngl,resources/Empty.png,resources/DB.BMP,Door2,0.269444444,0.010185185,1,0,0,0.5474,optionRight,40,3915,2,29,0,29,0,1,,,,,,,,,,,,,,,,,,,,,,,,,,,,,,,,,,,,,,,
,,,,,,,,2023-08-16_08h33.38.276,HF_wild_card,2022.2.4,Win32,60.8383525,60e55bb59cfd0aa9803b4470,64d2fd46c836a06233681665,64dc78e08b20b677772ae9f5,,,,,,,sngl,resources/DR.BMP,resources/Empty.png,WildCard_NonEx,-0.251851852,0.012962963,1,0,0,0.5639,optionLeft,45,3960,2,30,0,30,0,1,,,,,,,,,,,,,,,,,,,,,,,,,,,,,,,,,,,,,,,
,,,,,,,,2023-08-16_08h33.38.276,HF_wild_card,2022.2.4,Win32,60.8383525,60e55bb59cfd0aa9803b4470,64d2fd46c836a06233681665,64dc78e08b20b677772ae9f5,,,,,,,ctch,resources/DY.BMP,resources/DBN.BMP,Door4,0.290740741,0.019444444,1,0,0,0.8467,optionRight,60,4020,2,31,0,31,0,1,,,,,,,,,,,,,,,,,,,,,,,,,,,,,,,,,,,,,,,
,,,,,,,,2023-08-16_08h33.38.276,HF_wild_card,2022.2.4,Win32,60.8383525,60e55bb59cfd0aa9803b4470,64d2fd46c836a06233681665,64dc78e08b20b677772ae9f5,,,,,,,ctch,resources/DG.BMP,resources/DB.BMP,Door3,-0.250925926,0.002777778,1,0,0,1.0139,optionLeft,70,4090,2,32,0,32,0,1,,,,,,,,,,,,,,,,,,,,,,,,,,,,,,,,,,,,,,,
,,,,,,,,2023-08-16_08h33.38.276,HF_wild_card,2022.2.4,Win32,60.8383525,60e55bb59cfd0aa9803b4470,64d2fd46c836a06233681665,64dc78e08b20b677772ae9f5,,,,,,,decisionTrl,resources/DBN.BMP,resources/DG.BMP,Door3,0.237962963,0.001851852,1,0,0,0.8972,optionRight,70,4160,2,33,0,33,0,1,,,,,,,,,,,,,,,,,,,,,,,,,,,,,,,,,,,,,,,
,,,,,,,,2023-08-16_08h33.38.276,HF_wild_card,2022.2.4,Win32,60.8383525,60e55bb59cfd0aa9803b4470,64d2fd46c836a06233681665,64dc78e08b20b677772ae9f5,,,,,,,decisionTrl,resources/DR.BMP,resources/DG.BMP,Door3,0.211111111,0.001851852,1,0,0,0.9471,optionRight,70,4230,2,34,0,34,0,1,,,,,,,,,,,,,,,,,,,,,,,,,,,,,,,,,,,,,,,
,,,,,,,,2023-08-16_08h33.38.276,HF_wild_card,2022.2.4,Win32,60.8383525,60e55bb59cfd0aa9803b4470,64d2fd46c836a06233681665,64dc78e08b20b677772ae9f5,,,,,,,decisionTrl,resources/DR.BMP,resources/DB.BMP,WildCard_NonEx,-0.287037037,-0.009259259,1,0,0,1.5965,optionLeft,45,4275,2,35,0,35,0,1,,,,,,,,,,,,,,,,,,,,,,,,,,,,,,,,,,,,,,,
,,,,,,,,2023-08-16_08h33.38.276,HF_wild_card,2022.2.4,Win32,60.8383525,60e55bb59cfd0aa9803b4470,64d2fd46c836a06233681665,64dc78e08b20b677772ae9f5,,,,,,,sngl,resources/Empty.png,resources/DR.BMP,WildCard_NonEx,0.324074074,0.002777778,1,0,0,0.5137,optionRight,55,4330,2,36,0,36,0,1,,,,,,,,,,,,,,,,,,,,,,,,,,,,,,,,,,,,,,,
,,,,,,,,2023-08-16_08h33.38.276,HF_wild_card,2022.2.4,Win32,60.8383525,60e55bb59cfd0aa9803b4470,64d2fd46c836a06233681665,64dc78e08b20b677772ae9f5,,,,,,,decisionTrl,resources/DG.BMP,resources/DBN.BMP,Door3,-0.209259259,0.003703704,1,0,0,0.7139,optionLeft,70,4400,2,37,0,37,0,1,,,,,,,,,,,,,,,,,,,,,,,,,,,,,,,,,,,,,,,
,,,,,,,,2023-08-16_08h33.38.276,HF_wild_card,2022.2.4,Win32,60.8383525,60e55bb59cfd0aa9803b4470,64d2fd46c836a06233681665,64dc78e08b20b677772ae9f5,,,,,,,sngl,resources/Empty.png,resources/DBN.BMP,Door4,-0.182407407,-0.006481481,1,0,0,0.8145,optionRight,80,4480,2,38,0,38,0,1,,,,,,,,,,,,,,,,,,,,,,,,,,,,,,,,,,,,,,,
,,,,,,,,2023-08-16_08h33.38.276,HF_wild_card,2022.2.4,Win32,60.8383525,60e55bb59cfd0aa9803b4470,64d2fd46c836a06233681665,64dc78e08b20b677772ae9f5,,,,,,,decisionTrl,resources/DY.BMP,resources/DR.BMP,WildCard_NonEx,0.287962963,-0.000925926,1,0,0,1.9628,optionRight,45,4525,2,39,0,39,0,1,,,,,,,,,,,,,,,,,,,,,,,,,,,,,,,,,,,,,,,
,,,,,,,,2023-08-16_08h33.38.276,HF_wild_card,2022.2.4,Win32,60.8383525,60e55bb59cfd0aa9803b4470,64d2fd46c836a06233681665,64dc78e08b20b677772ae9f5,,,,,,,decisionTrl,resources/DY.BMP,resources/DB.BMP,Door2,0.240740741,-0.007407407,1,0,0,0.6979,optionRight,20,4545,2,40,0,40,0,1,,,,,,,,,,,,,,,,,,,,,,,,,,,,,,,,,,,,,,,
,,,,,,,,2023-08-16_08h33.38.276,HF_wild_card,2022.2.4,Win32,60.8383525,60e55bb59cfd0aa9803b4470,64d2fd46c836a06233681665,64dc78e08b20b677772ae9f5,,,,,,,decisionTrl,resources/DR.BMP,resources/DBN.BMP,Door4,0.262037037,0.003703704,1,0,0,0.9967,optionRight,80,4625,2,41,0,41,0,1,,,,,,,,,,,,,,,,,,,,,,,,,,,,,,,,,,,,,,,
,,,,,,,,2023-08-16_08h33.38.276,HF_wild_card,2022.2.4,Win32,60.8383525,60e55bb59cfd0aa9803b4470,64d2fd46c836a06233681665,64dc78e08b20b677772ae9f5,,,,,,,sngl,resources/DY.BMP,resources/Empty.png,Door1,-0.251851852,-0.000925926,1,0,0,0.5305,optionLeft,30,4655,2,42,0,42,0,1,,,,,,,,,,,,,,,,,,,,,,,,,,,,,,,,,,,,,,,
,,,,,,,,2023-08-16_08h33.38.276,HF_wild_card,2022.2.4,Win32,60.8383525,60e55bb59cfd0aa9803b4470,64d2fd46c836a06233681665,64dc78e08b20b677772ae9f5,,,,,,,decisionTrl,resources/DBN.BMP,resources/DG.BMP,Door3,0.249074074,0.018518519,1,0,0,1.13,optionRight,70,4725,2,43,0,43,0,1,,,,,,,,,,,,,,,,,,,,,,,,,,,,,,,,,,,,,,,
,,,,,,,,2023-08-16_08h33.38.276,HF_wild_card,2022.2.4,Win32,60.8383525,60e55bb59cfd0aa9803b4470,64d2fd46c836a06233681665,64dc78e08b20b677772ae9f5,,,,,,,,,,,,,,,,,,,,,,,,,,1,0,1,0,1,,,,,,,,,,,,,,,,,,,,,,,,,,,,,,,,,,
,,,,,,,,2023-08-16_08h33.38.276,HF_wild_card,2022.2.4,Win32,60.8383525,60e55bb59cfd0aa9803b4470,64d2fd46c836a06233681665,64dc78e08b20b677772ae9f5,,,,,,,ctch,resources/DB.BMP,resources/DG.BMP,Door3,0.265740741,0.012962963,1,0,0,1.1967,optionRight,70,4795,3,0,0,0,0,1,,,,,,,,,,,,,,,,,,,,,,,,,,,,,,,,,,,,,,,
,,,,,,,,2023-08-16_08h33.38.276,HF_wild_card,2022.2.4,Win32,60.8383525,60e55bb59cfd0aa9803b4470,64d2fd46c836a06233681665,64dc78e08b20b677772ae9f5,,,,,,,decisionTrl,resources/DB.BMP,resources/DR.BMP,WildCard_NonEx,0.246296296,0.02037037,1,0,0,1.114,optionRight,55,4850,3,1,0,1,0,1,,,,,,,,,,,,,,,,,,,,,,,,,,,,,,,,,,,,,,,
,,,,,,,,2023-08-16_08h33.38.276,HF_wild_card,2022.2.4,Win32,60.8383525,60e55bb59cfd0aa9803b4470,64d2fd46c836a06233681665,64dc78e08b20b677772ae9f5,,,,,,,ctch,resources/DBN.BMP,resources/DY.BMP,Door4,-0.289814815,0.059259259,1,0,0,0.98,optionLeft,80,4930,3,2,0,2,0,1,,,,,,,,,,,,,,,,,,,,,,,,,,,,,,,,,,,,,,,
,,,,,,,,2023-08-16_08h33.38.276,HF_wild_card,2022.2.4,Win32,60.8383525,60e55bb59cfd0aa9803b4470,64d2fd46c836a06233681665,64dc78e08b20b677772ae9f5,,,,,,,decisionTrl,resources/DG.BMP,resources/DR.BMP,Door3,-0.300925926,0.014814815,1,0,0,0.7293,optionLeft,70,5000,3,3,0,3,0,1,,,,,,,,,,,,,,,,,,,,,,,,,,,,,,,,,,,,,,,
,,,,,,,,2023-08-16_08h33.38.276,HF_wild_card,2022.2.4,Win32,60.8383525,60e55bb59cfd0aa9803b4470,64d2fd46c836a06233681665,64dc78e08b20b677772ae9f5,,,,,,,decisionTrl,resources/DY.BMP,resources/DB.BMP,Door1,-0.364814815,0.012037037,1,0,0,1.8634,optionLeft,30,5030,3,4,0,4,0,1,,,,,,,,,,,,,,,,,,,,,,,,,,,,,,,,,,,,,,,
,,,,,,,,2023-08-16_08h33.38.276,HF_wild_card,2022.2.4,Win32,60.8383525,60e55bb59cfd0aa9803b4470,64d2fd46c836a06233681665,64dc78e08b20b677772ae9f5,,,,,,,decisionTrl,resources/DB.BMP,resources/DY.BMP,Door1,0.330555556,0.010185185,1,0,0,0.8966,optionRight,30,5060,3,5,0,5,0,1,,,,,,,,,,,,,,,,,,,,,,,,,,,,,,,,,,,,,,,
,,,,,,,,2023-08-16_08h33.38.276,HF_wild_card,2022.2.4,Win32,60.8383525,60e55bb59cfd0aa9803b4470,64d2fd46c836a06233681665,64dc78e08b20b677772ae9f5,,,,,,,ctch,resources/DG.BMP,resources/DB.BMP,Door3,-0.291666667,-0.003703704,1,0,0,0.6647,optionLeft,70,5130,3,6,0,6,0,1,,,,,,,,,,,,,,,,,,,,,,,,,,,,,,,,,,,,,,,
,,,,,,,,2023-08-16_08h33.38.276,HF_wild_card,2022.2.4,Win32,60.8383525,60e55bb59cfd0aa9803b4470,64d2fd46c836a06233681665,64dc78e08b20b677772ae9f5,,,,,,,sngl,resources/DY.BMP,resources/Empty.png,Door1,-0.227777778,0.026851852,1,0,0,0.6151,optionLeft,30,5160,3,7,0,7,0,1,,,,,,,,,,,,,,,,,,,,,,,,,,,,,,,,,,,,,,,
,,,,,,,,2023-08-16_08h33.38.276,HF_wild_card,2022.2.4,Win32,60.8383525,60e55bb59cfd0aa9803b4470,64d2fd46c836a06233681665,64dc78e08b20b677772ae9f5,,,,,,,decisionTrl,resources/DB.BMP,resources/DY.BMP,Door2,-0.171296296,-0.008333333,1,0,0,1.1634,optionLeft,20,5180,3,8,0,8,0,1,,,,,,,,,,,,,,,,,,,,,,,,,,,,,,,,,,,,,,,
,,,,,,,,2023-08-16_08h33.38.276,HF_wild_card,2022.2.4,Win32,60.8383525,60e55bb59cfd0aa9803b4470,64d2fd46c836a06233681665,64dc78e08b20b677772ae9f5,,,,,,,ctch,resources/DBN.BMP,resources/DY.BMP,Door4,-0.366666667,0.02962963,1,0,0,0.847,optionLeft,80,5260,3,9,0,9,0,1,,,,,,,,,,,,,,,,,,,,,,,,,,,,,,,,,,,,,,,
,,,,,,,,2023-08-16_08h33.38.276,HF_wild_card,2022.2.4,Win32,60.8383525,60e55bb59cfd0aa9803b4470,64d2fd46c836a06233681665,64dc78e08b20b677772ae9f5,,,,,,,sngl,resources/DR.BMP,resources/Empty.png,WildCard_NonEx,-0.32037037,0.019444444,1,0,0,0.5141,optionLeft,55,5315,3,10,0,10,0,1,,,,,,,,,,,,,,,,,,,,,,,,,,,,,,,,,,,,,,,
,,,,,,,,2023-08-16_08h33.38.276,HF_wild_card,2022.2.4,Win32,60.8383525,60e55bb59cfd0aa9803b4470,64d2fd46c836a06233681665,64dc78e08b20b677772ae9f5,,,,,,,decisionTrl,resources/DBN.BMP,resources/DG.BMP,Door4,-0.24537037,0.048148148,1,0,0,0.6476,optionLeft,60,5375,3,11,0,11,0,1,,,,,,,,,,,,,,,,,,,,,,,,,,,,,,,,,,,,,,,
,,,,,,,,2023-08-16_08h33.38.276,HF_wild_card,2022.2.4,Win32,60.8383525,60e55bb59cfd0aa9803b4470,64d2fd46c836a06233681665,64dc78e08b20b677772ae9f5,,,,,,,decisionTrl,resources/DBN.BMP,resources/DR.BMP,Door4,-0.236111111,0.025925926,1,0,0,0.6804,optionLeft,60,5435,3,12,0,12,0,1,,,,,,,,,,,,,,,,,,,,,,,,,,,,,,,,,,,,,,,
,,,,,,,,2023-08-16_08h33.38.276,HF_wild_card,2022.2.4,Win32,60.8383525,60e55bb59cfd0aa9803b4470,64d2fd46c836a06233681665,64dc78e08b20b677772ae9f5,,,,,,,decisionTrl,resources/DG.BMP,resources/DBN.BMP,Door3,-0.240740741,0.009259259,1,0,0,0.6977,optionLeft,70,5505,3,13,0,13,0,1,,,,,,,,,,,,,,,,,,,,,,,,,,,,,,,,,,,,,,,
,,,,,,,,2023-08-16_08h33.38.276,HF_wild_card,2022.2.4,Win32,60.8383525,60e55bb59cfd0aa9803b4470,64d2fd46c836a06233681665,64dc78e08b20b677772ae9f5,,,,,,,decisionTrl,resources/DY.BMP,resources/DB.BMP,Door1,-0.32962963,0.057407407,1,0,0,1.5471,optionLeft,30,5535,3,14,0,14,0,1,,,,,,,,,,,,,,,,,,,,,,,,,,,,,,,,,,,,,,,
,,,,,,,,2023-08-16_08h33.38.276,HF_wild_card,2022.2.4,Win32,60.8383525,60e55bb59cfd0aa9803b4470,64d2fd46c836a06233681665,64dc78e08b20b677772ae9f5,,,,,,,decisionTrl,resources/DR.BMP,resources/DB.BMP,WildCard_NonEx,-0.242592593,0.036111111,1,0,0,1.3796,optionLeft,55,5590,3,15,0,15,0,1,,,,,,,,,,,,,,,,,,,,,,,,,,,,,,,,,,,,,,,
,,,,,,,,2023-08-16_08h33.38.276,HF_wild_card,2022.2.4,Win32,60.8383525,60e55bb59cfd0aa9803b4470,64d2fd46c836a06233681665,64dc78e08b20b677772ae9f5,,,,,,,decisionTrl,resources/DBN.BMP,resources/DG.BMP,Door4,-0.315740741,0.042592593,1,0,0,0.9632,optionLeft,60,5650,3,16,0,16,0,1,,,,,,,,,,,,,,,,,,,,,,,,,,,,,,,,,,,,,,,
,,,,,,,,2023-08-16_08h33.38.276,HF_wild_card,2022.2.4,Win32,60.8383525,60e55bb59cfd0aa9803b4470,64d2fd46c836a06233681665,64dc78e08b20b677772ae9f5,,,,,,,ctch,resources/DY.BMP,resources/DBN.BMP,Door4,0.181481481,0.012962963,1,0,0,0.8311,optionRight,80,5730,3,17,0,17,0,1,,,,,,,,,,,,,,,,,,,,,,,,,,,,,,,,,,,,,,,
,,,,,,,,2023-08-16_08h33.38.276,HF_wild_card,2022.2.4,Win32,60.8383525,60e55bb59cfd0aa9803b4470,64d2fd46c836a06233681665,64dc78e08b20b677772ae9f5,,,,,,,decisionTrl,resources/DBN.BMP,resources/DG.BMP,Door3,0.166666667,0.009259259,1,0,0,0.7975,optionRight,70,5800,3,18,0,18,0,1,,,,,,,,,,,,,,,,,,,,,,,,,,,,,,,,,,,,,,,
,,,,,,,,2023-08-16_08h33.38.276,HF_wild_card,2022.2.4,Win32,60.8383525,60e55bb59cfd0aa9803b4470,64d2fd46c836a06233681665,64dc78e08b20b677772ae9f5,,,,,,,decisionTrl,resources/DR.BMP,resources/DBN.BMP,Door4,0.217592593,0.000925926,1,0,0,0.7474,optionRight,80,5880,3,19,0,19,0,1,,,,,,,,,,,,,,,,,,,,,,,,,,,,,,,,,,,,,,,
,,,,,,,,2023-08-16_08h33.38.276,HF_wild_card,2022.2.4,Win32,60.8383525,60e55bb59cfd0aa9803b4470,64d2fd46c836a06233681665,64dc78e08b20b677772ae9f5,,,,,,,sngl,resources/Empty.png,resources/DR.BMP,WildCard_NonEx,0.236111111,0.005555556,1,0,0,0.6298,optionRight,45,5925,3,20,0,20,0,1,,,,,,,,,,,,,,,,,,,,,,,,,,,,,,,,,,,,,,,
,,,,,,,,2023-08-16_08h33.38.276,HF_wild_card,2022.2.4,Win32,60.8383525,60e55bb59cfd0aa9803b4470,64d2fd46c836a06233681665,64dc78e08b20b677772ae9f5,,,,,,,decisionTrl,resources/DB.BMP,resources/DY.BMP,Door2,-0.239814815,0.028703704,1,0,0,2.2798,optionLeft,20,5945,3,21,0,21,0,1,,,,,,,,,,,,,,,,,,,,,,,,,,,,,,,,,,,,,,,
,,,,,,,,2023-08-16_08h33.38.276,HF_wild_card,2022.2.4,Win32,60.8383525,60e55bb59cfd0aa9803b4470,64d2fd46c836a06233681665,64dc78e08b20b677772ae9f5,,,,,,,decisionTrl,resources/DG.BMP,resources/DBN.BMP,Door4,0.238888889,0.028703704,1,0,0,0.8304,optionRight,60,6005,3,22,0,22,0,1,,,,,,,,,,,,,,,,,,,,,,,,,,,,,,,,,,,,,,,
,,,,,,,,2023-08-16_08h33.38.276,HF_wild_card,2022.2.4,Win32,60.8383525,60e55bb59cfd0aa9803b4470,64d2fd46c836a06233681665,64dc78e08b20b677772ae9f5,,,,,,,decisionTrl,resources/DG.BMP,resources/DBN.BMP,Door3,-0.276851852,0.025,1,0,0,0.9975,optionLeft,70,6075,3,23,0,23,0,1,,,,,,,,,,,,,,,,,,,,,,,,,,,,,,,,,,,,,,,
,,,,,,,,2023-08-16_08h33.38.276,HF_wild_card,2022.2.4,Win32,60.8383525,60e55bb59cfd0aa9803b4470,64d2fd46c836a06233681665,64dc78e08b20b677772ae9f5,,,,,,,decisionTrl,resources/DB.BMP,resources/DY.BMP,Door2,-0.197222222,0.021296296,1,0,0,1.6467,optionLeft,40,6115,3,24,0,24,0,1,,,,,,,,,,,,,,,,,,,,,,,,,,,,,,,,,,,,,,,
,,,,,,,,2023-08-16_08h33.38.276,HF_wild_card,2022.2.4,Win32,60.8383525,60e55bb59cfd0aa9803b4470,64d2fd46c836a06233681665,64dc78e08b20b677772ae9f5,,,,,,,decisionTrl,resources/DR.BMP,resources/DY.BMP,WildCard_NonEx,-0.264814815,0.012962963,1,0,0,1.3799,optionLeft,45,6160,3,25,0,25,0,1,,,,,,,,,,,,,,,,,,,,,,,,,,,,,,,,,,,,,,,
,,,,,,,,2023-08-16_08h33.38.276,HF_wild_card,2022.2.4,Win32,60.8383525,60e55bb59cfd0aa9803b4470,64d2fd46c836a06233681665,64dc78e08b20b677772ae9f5,,,,,,,ctch,resources/DY.BMP,resources/DBN.BMP,Door4,0.202777778,0.010185185,1,0,0,0.8135,optionRight,60,6220,3,26,0,26,0,1,,,,,,,,,,,,,,,,,,,,,,,,,,,,,,,,,,,,,,,
,,,,,,,,2023-08-16_08h33.38.276,HF_wild_card,2022.2.4,Win32,60.8383525,60e55bb59cfd0aa9803b4470,64d2fd46c836a06233681665,64dc78e08b20b677772ae9f5,,,,,,,sngl,resources/DBN.BMP,resources/Empty.png,Door4,-0.339814815,0.044444444,1,0,0,0.5304,optionLeft,80,6300,3,27,0,27,0,1,,,,,,,,,,,,,,,,,,,,,,,,,,,,,,,,,,,,,,,
,,,,,,,,2023-08-16_08h33.38.276,HF_wild_card,2022.2.4,Win32,60.8383525,60e55bb59cfd0aa9803b4470,64d2fd46c836a06233681665,64dc78e08b20b677772ae9f5,,,,,,,sngl,resources/DB.BMP,resources/Empty.png,Door2,-0.223148148,0.026851852,1,0,0,0.6478,optionLeft,40,6340,3,28,0,28,0,1,,,,,,,,,,,,,,,,,,,,,,,,,,,,,,,,,,,,,,,
,,,,,,,,2023-08-16_08h33.38.276,HF_wild_card,2022.2.4,Win32,60.8383525,60e55bb59cfd0aa9803b4470,64d2fd46c836a06233681665,64dc78e08b20b677772ae9f5,,,,,,,sngl,resources/Empty.png,resources/DY.BMP,Door1,0.192592593,0.024074074,1,0,0,0.8802,optionRight,30,6370,3,29,0,29,0,1,,,,,,,,,,,,,,,,,,,,,,,,,,,,,,,,,,,,,,,
,,,,,,,,2023-08-16_08h33.38.276,HF_wild_card,2022.2.4,Win32,60.8383525,60e55bb59cfd0aa9803b4470,64d2fd46c836a06233681665,64dc78e08b20b677772ae9f5,,,,,,,sngl,resources/DG.BMP,resources/Empty.png,Door3,-0.242592593,0.025925926,1,0,0,0.5468,optionLeft,70,6440,3,30,0,30,0,1,,,,,,,,,,,,,,,,,,,,,,,,,,,,,,,,,,,,,,,
,,,,,,,,2023-08-16_08h33.38.276,HF_wild_card,2022.2.4,Win32,60.8383525,60e55bb59cfd0aa9803b4470,64d2fd46c836a06233681665,64dc78e08b20b677772ae9f5,,,,,,,sngl,resources/Empty.png,resources/DBN.BMP,Door4,0.266666667,0.003703704,1,0,0,0.4806,optionRight,60,6500,3,31,0,31,0,1,,,,,,,,,,,,,,,,,,,,,,,,,,,,,,,,,,,,,,,
,,,,,,,,2023-08-16_08h33.38.276,HF_wild_card,2022.2.4,Win32,60.8383525,60e55bb59cfd0aa9803b4470,64d2fd46c836a06233681665,64dc78e08b20b677772ae9f5,,,,,,,decisionTrl,resources/DG.BMP,resources/DBN.BMP,Door3,-0.237037037,0.026851852,1,0,0,1.4635,optionLeft,70,6570,3,32,0,32,0,1,,,,,,,,,,,,,,,,,,,,,,,,,,,,,,,,,,,,,,,
,,,,,,,,2023-08-16_08h33.38.276,HF_wild_card,2022.2.4,Win32,60.8383525,60e55bb59cfd0aa9803b4470,64d2fd46c836a06233681665,64dc78e08b20b677772ae9f5,,,,,,,decisionTrl,resources/DR.BMP,resources/DG.BMP,Door3,0.208333333,-0.001851852,1,0,0,1.0811,optionRight,70,6640,3,33,0,33,0,1,,,,,,,,,,,,,,,,,,,,,,,,,,,,,,,,,,,,,,,
,,,,,,,,2023-08-16_08h33.38.276,HF_wild_card,2022.2.4,Win32,60.8383525,60e55bb59cfd0aa9803b4470,64d2fd46c836a06233681665,64dc78e08b20b677772ae9f5,,,,,,,ctch,resources/DB.BMP,resources/DG.BMP,Door3,0.213888889,0.013888889,1,0,0,1.1303,optionRight,70,6710,3,34,0,34,0,1,,,,,,,,,,,,,,,,,,,,,,,,,,,,,,,,,,,,,,,
,,,,,,,,2023-08-16_08h33.38.276,HF_wild_card,2022.2.4,Win32,60.8383525,60e55bb59cfd0aa9803b4470,64d2fd46c836a06233681665,64dc78e08b20b677772ae9f5,,,,,,,decisionTrl,resources/DY.BMP,resources/DB.BMP,Door2,0.223148148,0.006481481,1,0,0,1.7301,optionRight,40,6750,3,35,0,35,0,1,,,,,,,,,,,,,,,,,,,,,,,,,,,,,,,,,,,,,,,
,,,,,,,,2023-08-16_08h33.38.276,HF_wild_card,2022.2.4,Win32,60.8383525,60e55bb59cfd0aa9803b4470,64d2fd46c836a06233681665,64dc78e08b20b677772ae9f5,,,,,,,decisionTrl,resources/DY.BMP,resources/DB.BMP,Door2,0.20462963,0.003703704,1,0,0,0.6478,optionRight,40,6790,3,36,0,36,0,1,,,,,,,,,,,,,,,,,,,,,,,,,,,,,,,,,,,,,,,
,,,,,,,,2023-08-16_08h33.38.276,HF_wild_card,2022.2.4,Win32,60.8383525,60e55bb59cfd0aa9803b4470,64d2fd46c836a06233681665,64dc78e08b20b677772ae9f5,,,,,,,sngl,resources/Empty.png,resources/DB.BMP,Door2,0.218518519,0.005555556,1,0,0,0.5311,optionRight,20,6810,3,37,0,37,0,1,,,,,,,,,,,,,,,,,,,,,,,,,,,,,,,,,,,,,,,
,,,,,,,,2023-08-16_08h33.38.276,HF_wild_card,2022.2.4,Win32,60.8383525,60e55bb59cfd0aa9803b4470,64d2fd46c836a06233681665,64dc78e08b20b677772ae9f5,,,,,,,sngl,resources/Empty.png,resources/DG.BMP,Door3,0.269444444,0.012037037,1,0,0,0.5308,optionRight,70,6880,3,38,0,38,0,1,,,,,,,,,,,,,,,,,,,,,,,,,,,,,,,,,,,,,,,
,,,,,,,,2023-08-16_08h33.38.276,HF_wild_card,2022.2.4,Win32,60.8383525,60e55bb59cfd0aa9803b4470,64d2fd46c836a06233681665,64dc78e08b20b677772ae9f5,,,,,,,decisionTrl,resources/DY.BMP,resources/DR.BMP,WildCard_NonEx,0.226851852,0.019444444,1,0,0,0.9979,optionRight,55,6935,3,39,0,39,0,1,,,,,,,,,,,,,,,,,,,,,,,,,,,,,,,,,,,,,,,
,,,,,,,,2023-08-16_08h33.38.276,HF_wild_card,2022.2.4,Win32,60.8383525,60e55bb59cfd0aa9803b4470,64d2fd46c836a06233681665,64dc78e08b20b677772ae9f5,,,,,,,sngl,resources/DR.BMP,resources/Empty.png,WildCard_NonEx,-0.262962963,-0.007407407,1,0,0,0.4637,optionLeft,45,6980,3,40,0,40,0,1,,,,,,,,,,,,,,,,,,,,,,,,,,,,,,,,,,,,,,,
,,,,,,,,2023-08-16_08h33.38.276,HF_wild_card,2022.2.4,Win32,60.8383525,60e55bb59cfd0aa9803b4470,64d2fd46c836a06233681665,64dc78e08b20b677772ae9f5,,,,,,,ctch,resources/DG.BMP,resources/DB.BMP,Door3,-0.27037037,-0.000925926,1,0,0,0.9305,optionLeft,70,7050,3,41,0,41,0,1,,,,,,,,,,,,,,,,,,,,,,,,,,,,,,,,,,,,,,,
,,,,,,,,2023-08-16_08h33.38.276,HF_wild_card,2022.2.4,Win32,60.8383525,60e55bb59cfd0aa9803b4470,64d2fd46c836a06233681665,64dc78e08b20b677772ae9f5,,,,,,,decisionTrl,resources/DBN.BMP,resources/DG.BMP,Door3,0.209259259,-0.005555556,1,0,0,0.5981,optionRight,70,7120,3,42,0,42,0,1,,,,,,,,,,,,,,,,,,,,,,,,,,,,,,,,,,,,,,,
,,,,,,,,2023-08-16_08h33.38.276,HF_wild_card,2022.2.4,Win32,60.8383525,60e55bb59cfd0aa9803b4470,64d2fd46c836a06233681665,64dc78e08b20b677772ae9f5,,,,,,,sngl,resources/Empty.png,resources/DR.BMP,WildCard_NonEx,0.207407407,0.012037037,1,0,0,0.5312,optionRight,55,7175,3,43,0,43,0,1,,,,,,,,,,,,,,,,,,,,,,,,,,,,,,,,,,,,,,,
,,,,,,,,2023-08-16_08h33.38.276,HF_wild_card,2022.2.4,Win32,60.8383525,60e55bb59cfd0aa9803b4470,64d2fd46c836a06233681665,64dc78e08b20b677772ae9f5,,,,,,,,,,,,,,,,,,,,,,,,,,2,0,2,0,1,,,,,,,,,,,,,,,,,,,,,,,,,,,,,,,,,,
,,,,,,,,2023-08-16_08h33.38.276,HF_wild_card,2022.2.4,Win32,60.8383525,60e55bb59cfd0aa9803b4470,64d2fd46c836a06233681665,64dc78e08b20b677772ae9f5,,,,,,,sngl,resources/Empty.png,resources/DBN.BMP,Door4,0.209259259,-0.033333333,1,0,0,0.6244,optionRight,80,7255,4,0,0,0,0,1,,,,,,,,,,,,,,,,,,,,,,,,,,,,,,,,,,,,,,,
,,,,,,,,2023-08-16_08h33.38.276,HF_wild_card,2022.2.4,Win32,60.8383525,60e55bb59cfd0aa9803b4470,64d2fd46c836a06233681665,64dc78e08b20b677772ae9f5,,,,,,,decisionTrl,resources/DB.BMP,resources/DY.BMP,Door2,-0.173148148,0.005555556,1,0,0,1.6469,optionLeft,20,7275,4,1,0,1,0,1,,,,,,,,,,,,,,,,,,,,,,,,,,,,,,,,,,,,,,,
,,,,,,,,2023-08-16_08h33.38.276,HF_wild_card,2022.2.4,Win32,60.8383525,60e55bb59cfd0aa9803b4470,64d2fd46c836a06233681665,64dc78e08b20b677772ae9f5,,,,,,,sngl,resources/Empty.png,resources/DY.BMP,Door1,0.159259259,-0.018518519,1,0,0,0.5808,optionRight,30,7305,4,2,0,2,0,1,,,,,,,,,,,,,,,,,,,,,,,,,,,,,,,,,,,,,,,
,,,,,,,,2023-08-16_08h33.38.276,HF_wild_card,2022.2.4,Win32,60.8383525,60e55bb59cfd0aa9803b4470,64d2fd46c836a06233681665,64dc78e08b20b677772ae9f5,,,,,,,decisionTrl,resources/DG.BMP,resources/DBN.BMP,Door3,-0.246296296,0.017592593,1,0,0,1.1309,optionLeft,70,7375,4,3,0,3,0,1,,,,,,,,,,,,,,,,,,,,,,,,,,,,,,,,,,,,,,,
,,,,,,,,2023-08-16_08h33.38.276,HF_wild_card,2022.2.4,Win32,60.8383525,60e55bb59cfd0aa9803b4470,64d2fd46c836a06233681665,64dc78e08b20b677772ae9f5,,,,,,,sngl,resources/Empty.png,resources/DP.BMP,WildCard_Ex,0.258333333,0.012037037,1,0,0,0.9639,optionRight,5,7380,4,4,0,4,0,1,,,,,,,,,,,,,,,,,,,,,,,,,,,,,,,,,,,,,,,
,,,,,,,,2023-08-16_08h33.38.276,HF_wild_card,2022.2.4,Win32,60.8383525,60e55bb59cfd0aa9803b4470,64d2fd46c836a06233681665,64dc78e08b20b677772ae9f5,,,,,,,sngl,resources/DBN.BMP,resources/Empty.png,Door4,-0.162962963,-0.007407407,1,0,0,0.6806,optionLeft,60,7440,4,5,0,5,0,1,,,,,,,,,,,,,,,,,,,,,,,,,,,,,,,,,,,,,,,
,,,,,,,,2023-08-16_08h33.38.276,HF_wild_card,2022.2.4,Win32,60.8383525,60e55bb59cfd0aa9803b4470,64d2fd46c836a06233681665,64dc78e08b20b677772ae9f5,,,,,,,decisionTrl,resources/DG.BMP,resources/DP.BMP,Door3,-0.216666667,0.009259259,1,0,0,1.18,optionLeft,70,7510,4,6,0,6,0,1,,,,,,,,,,,,,,,,,,,,,,,,,,,,,,,,,,,,,,,
,,,,,,,,2023-08-16_08h33.38.276,HF_wild_card,2022.2.4,Win32,60.8383525,60e55bb59cfd0aa9803b4470,64d2fd46c836a06233681665,64dc78e08b20b677772ae9f5,,,,,,,decisionTrl,resources/DB.BMP,resources/DY.BMP,Door1,0.22037037,0.036111111,1,0,0,1.8798,optionRight,30,7540,4,7,0,7,0,1,,,,,,,,,,,,,,,,,,,,,,,,,,,,,,,,,,,,,,,
,,,,,,,,2023-08-16_08h33.38.276,HF_wild_card,2022.2.4,Win32,60.8383525,60e55bb59cfd0aa9803b4470,64d2fd46c836a06233681665,64dc78e08b20b677772ae9f5,,,,,,,decisionTrl,resources/DG.BMP,resources/DBN.BMP,Door3,-0.222222222,0.005555556,1,0,0,0.8644,optionLeft,70,7610,4,8,0,8,0,1,,,,,,,,,,,,,,,,,,,,,,,,,,,,,,,,,,,,,,,
,,,,,,,,2023-08-16_08h33.38.276,HF_wild_card,2022.2.4,Win32,60.8383525,60e55bb59cfd0aa9803b4470,64d2fd46c836a06233681665,64dc78e08b20b677772ae9f5,,,,,,,decisionTrl,resources/DBN.BMP,resources/DG.BMP,Door3,0.251851852,0.023148148,1,0,0,1.28,optionRight,70,7680,4,9,0,9,0,1,,,,,,,,,,,,,,,,,,,,,,,,,,,,,,,,,,,,,,,
,,,,,,,,2023-08-16_08h33.38.276,HF_wild_card,2022.2.4,Win32,60.8383525,60e55bb59cfd0aa9803b4470,64d2fd46c836a06233681665,64dc78e08b20b677772ae9f5,,,,,,,decisionTrl,resources/DBN.BMP,resources/DG.BMP,Door3,0.197222222,0.021296296,1,0,0,0.7806,optionRight,70,7750,4,10,0,10,0,1,,,,,,,,,,,,,,,,,,,,,,,,,,,,,,,,,,,,,,,
,,,,,,,,2023-08-16_08h33.38.276,HF_wild_card,2022.2.4,Win32,60.8383525,60e55bb59cfd0aa9803b4470,64d2fd46c836a06233681665,64dc78e08b20b677772ae9f5,,,,,,,ctch,resources/DB.BMP,resources/DG.BMP,Door3,0.175,0.015740741,1,0,0,0.8308,optionRight,70,7820,4,11,0,11,0,1,,,,,,,,,,,,,,,,,,,,,,,,,,,,,,,,,,,,,,,
,,,,,,,,2023-08-16_08h33.38.276,HF_wild_card,2022.2.4,Win32,60.8383525,60e55bb59cfd0aa9803b4470,64d2fd46c836a06233681665,64dc78e08b20b677772ae9f5,,,,,,,sngl,resources/DY.BMP,resources/Empty.png,Door1,-0.218518519,0.010185185,1,0,0,0.6478,optionLeft,30,7850,4,12,0,12,0,1,,,,,,,,,,,,,,,,,,,,,,,,,,,,,,,,,,,,,,,
,,,,,,,,2023-08-16_08h33.38.276,HF_wild_card,2022.2.4,Win32,60.8383525,60e55bb59cfd0aa9803b4470,64d2fd46c836a06233681665,64dc78e08b20b677772ae9f5,,,,,,,decisionTrl,resources/DP.BMP,resources/DB.BMP,Door2,0.214814815,0.025,1,0,0,0.98,optionRight,20,7870,4,13,0,13,0,1,,,,,,,,,,,,,,,,,,,,,,,,,,,,,,,,,,,,,,,
,,,,,,,,2023-08-16_08h33.38.276,HF_wild_card,2022.2.4,Win32,60.8383525,60e55bb59cfd0aa9803b4470,64d2fd46c836a06233681665,64dc78e08b20b677772ae9f5,,,,,,,ctch,resources/DY.BMP,resources/DBN.BMP,Door4,0.216666667,0.042592593,1,0,0,1.379,optionRight,80,7950,4,14,0,14,0,1,,,,,,,,,,,,,,,,,,,,,,,,,,,,,,,,,,,,,,,
,,,,,,,,2023-08-16_08h33.38.276,HF_wild_card,2022.2.4,Win32,60.8383525,60e55bb59cfd0aa9803b4470,64d2fd46c836a06233681665,64dc78e08b20b677772ae9f5,,,,,,,sngl,resources/DP.BMP,resources/Empty.png,WildCard_Ex,-0.142592593,0.007407407,1,0,0,0.9471,optionLeft,5,7955,4,15,0,15,0,1,,,,,,,,,,,,,,,,,,,,,,,,,,,,,,,,,,,,,,,
,,,,,,,,2023-08-16_08h33.38.276,HF_wild_card,2022.2.4,Win32,60.8383525,60e55bb59cfd0aa9803b4470,64d2fd46c836a06233681665,64dc78e08b20b677772ae9f5,,,,,,,decisionTrl,resources/DY.BMP,resources/DB.BMP,Door2,0.188888889,0.035185185,1,0,0,1.9276,optionRight,20,7975,4,16,0,16,0,1,,,,,,,,,,,,,,,,,,,,,,,,,,,,,,,,,,,,,,,
,,,,,,,,2023-08-16_08h33.38.276,HF_wild_card,2022.2.4,Win32,60.8383525,60e55bb59cfd0aa9803b4470,64d2fd46c836a06233681665,64dc78e08b20b677772ae9f5,,,,,,,sngl,resources/Empty.png,resources/DG.BMP,Door3,0.22037037,-0.017592593,1,0,0,0.5811,optionRight,70,8045,4,17,0,17,0,1,,,,,,,,,,,,,,,,,,,,,,,,,,,,,,,,,,,,,,,
,,,,,,,,2023-08-16_08h33.38.276,HF_wild_card,2022.2.4,Win32,60.8383525,60e55bb59cfd0aa9803b4470,64d2fd46c836a06233681665,64dc78e08b20b677772ae9f5,,,,,,,sngl,resources/Empty.png,resources/DP.BMP,WildCard_Ex,0.135185185,-0.000925926,1,0,0,0.9642,optionRight,95,8140,4,18,0,18,0,1,,,,,,,,,,,,,,,,,,,,,,,,,,,,,,,,,,,,,,,
,,,,,,,,2023-08-16_08h33.38.276,HF_wild_card,2022.2.4,Win32,60.8383525,60e55bb59cfd0aa9803b4470,64d2fd46c836a06233681665,64dc78e08b20b677772ae9f5,,,,,,,decisionTrl,resources/DBN.BMP,resources/DG.BMP,Door4,-0.194444444,0.027777778,1,0,0,1.0301,optionLeft,60,8200,4,19,0,19,0,1,,,,,,,,,,,,,,,,,,,,,,,,,,,,,,,,,,,,,,,
,,,,,,,,2023-08-16_08h33.38.276,HF_wild_card,2022.2.4,Win32,60.8383525,60e55bb59cfd0aa9803b4470,64d2fd46c836a06233681665,64dc78e08b20b677772ae9f5,,,,,,,ctch,resources/DG.BMP,resources/DB.BMP,Door3,-0.228703704,0.016666667,1,0,0,1.131,optionLeft,70,8270,4,20,0,20,0,1,,,,,,,,,,,,,,,,,,,,,,,,,,,,,,,,,,,,,,,
,,,,,,,,2023-08-16_08h33.38.276,HF_wild_card,2022.2.4,Win32,60.8383525,60e55bb59cfd0aa9803b4470,64d2fd46c836a06233681665,64dc78e08b20b677772ae9f5,,,,,,,decisionTrl,resources/DBN.BMP,resources/DP.BMP,WildCard_Ex,0.287037037,0.031481481,1,0,0,0.798,optionRight,95,8365,4,21,0,21,0,1,,,,,,,,,,,,,,,,,,,,,,,,,,,,,,,,,,,,,,,
,,,,,,,,2023-08-16_08h33.38.276,HF_wild_card,2022.2.4,Win32,60.8383525,60e55bb59cfd0aa9803b4470,64d2fd46c836a06233681665,64dc78e08b20b677772ae9f5,,,,,,,sngl,resources/DP.BMP,resources/Empty.png,WildCard_Ex,-0.246296296,0.021296296,1,0,0,0.5303,optionLeft,95,8460,4,22,0,22,0,1,,,,,,,,,,,,,,,,,,,,,,,,,,,,,,,,,,,,,,,
,,,,,,,,2023-08-16_08h33.38.276,HF_wild_card,2022.2.4,Win32,60.8383525,60e55bb59cfd0aa9803b4470,64d2fd46c836a06233681665,64dc78e08b20b677772ae9f5,,,,,,,decisionTrl,resources/DY.BMP,resources/DP.BMP,WildCard_Ex,0.230555556,0.026851852,1,0,0,0.4977,optionRight,95,8555,4,23,0,23,0,1,,,,,,,,,,,,,,,,,,,,,,,,,,,,,,,,,,,,,,,
,,,,,,,,2023-08-16_08h33.38.276,HF_wild_card,2022.2.4,Win32,60.8383525,60e55bb59cfd0aa9803b4470,64d2fd46c836a06233681665,64dc78e08b20b677772ae9f5,,,,,,,sngl,resources/DB.BMP,resources/Empty.png,Door2,-0.202777778,0.025925926,1,0,0,0.5805,optionLeft,20,8575,4,24,0,24,0,1,,,,,,,,,,,,,,,,,,,,,,,,,,,,,,,,,,,,,,,
,,,,,,,,2023-08-16_08h33.38.276,HF_wild_card,2022.2.4,Win32,60.8383525,60e55bb59cfd0aa9803b4470,64d2fd46c836a06233681665,64dc78e08b20b677772ae9f5,,,,,,,decisionTrl,resources/DY.BMP,resources/DB.BMP,Door1,-0.249074074,0.031481481,1,0,0,1.3635,optionLeft,30,8605,4,25,0,25,0,1,,,,,,,,,,,,,,,,,,,,,,,,,,,,,,,,,,,,,,,
,,,,,,,,2023-08-16_08h33.38.276,HF_wild_card,2022.2.4,Win32,60.8383525,60e55bb59cfd0aa9803b4470,64d2fd46c836a06233681665,64dc78e08b20b677772ae9f5,,,,,,,ctch,resources/DY.BMP,resources/DBN.BMP,Door4,0.186111111,0.044444444,1,0,0,1.18,optionRight,80,8685,4,26,0,26,0,1,,,,,,,,,,,,,,,,,,,,,,,,,,,,,,,,,,,,,,,
,,,,,,,,2023-08-16_08h33.38.276,HF_wild_card,2022.2.4,Win32,60.8383525,60e55bb59cfd0aa9803b4470,64d2fd46c836a06233681665,64dc78e08b20b677772ae9f5,,,,,,,ctch,resources/DB.BMP,resources/DG.BMP,Door3,0.17962963,0.010185185,1,0,0,0.9142,optionRight,70,8755,4,27,0,27,0,1,,,,,,,,,,,,,,,,,,,,,,,,,,,,,,,,,,,,,,,
,,,,,,,,2023-08-16_08h33.38.276,HF_wild_card,2022.2.4,Win32,60.8383525,60e55bb59cfd0aa9803b4470,64d2fd46c836a06233681665,64dc78e08b20b677772ae9f5,,,,,,,decisionTrl,resources/DBN.BMP,resources/DG.BMP,Door3,0.275925926,0.061111111,1,0,0,1.1638,optionRight,70,8825,4,28,0,28,0,1,,,,,,,,,,,,,,,,,,,,,,,,,,,,,,,,,,,,,,,
,,,,,,,,2023-08-16_08h33.38.276,HF_wild_card,2022.2.4,Win32,60.8383525,60e55bb59cfd0aa9803b4470,64d2fd46c836a06233681665,64dc78e08b20b677772ae9f5,,,,,,,sngl,resources/Empty.png,resources/DB.BMP,Door2,0.180555556,0.018518519,1,0,0,0.6635,optionRight,40,8865,4,29,0,29,0,1,,,,,,,,,,,,,,,,,,,,,,,,,,,,,,,,,,,,,,,
,,,,,,,,2023-08-16_08h33.38.276,HF_wild_card,2022.2.4,Win32,60.8383525,60e55bb59cfd0aa9803b4470,64d2fd46c836a06233681665,64dc78e08b20b677772ae9f5,,,,,,,decisionTrl,resources/DB.BMP,resources/DY.BMP,Door1,0.188888889,0.030555556,1,0,0,2.4794,optionRight,30,8895,4,30,0,30,0,1,,,,,,,,,,,,,,,,,,,,,,,,,,,,,,,,,,,,,,,
,,,,,,,,2023-08-16_08h33.38.276,HF_wild_card,2022.2.4,Win32,60.8383525,60e55bb59cfd0aa9803b4470,64d2fd46c836a06233681665,64dc78e08b20b677772ae9f5,,,,,,,decisionTrl,resources/DG.BMP,resources/DBN.BMP,Door3,-0.300925926,0.013888889,1,0,0,1.0468,optionLeft,70,8965,4,31,0,31,0,1,,,,,,,,,,,,,,,,,,,,,,,,,,,,,,,,,,,,,,,
,,,,,,,,2023-08-16_08h33.38.276,HF_wild_card,2022.2.4,Win32,60.8383525,60e55bb59cfd0aa9803b4470,64d2fd46c836a06233681665,64dc78e08b20b677772ae9f5,,,,,,,decisionTrl,resources/DP.BMP,resources/DBN.BMP,WildCard_Ex,-0.223148148,0.012037037,1,0,0,0.7138,optionLeft,95,9060,4,32,0,32,0,1,,,,,,,,,,,,,,,,,,,,,,,,,,,,,,,,,,,,,,,
,,,,,,,,2023-08-16_08h33.38.276,HF_wild_card,2022.2.4,Win32,60.8383525,60e55bb59cfd0aa9803b4470,64d2fd46c836a06233681665,64dc78e08b20b677772ae9f5,,,,,,,decisionTrl,resources/DB.BMP,resources/DP.BMP,WildCard_Ex,0.191666667,0.021296296,1,0,0,0.5976,optionRight,5,9065,4,33,0,33,0,1,,,,,,,,,,,,,,,,,,,,,,,,,,,,,,,,,,,,,,,
,,,,,,,,2023-08-16_08h33.38.276,HF_wild_card,2022.2.4,Win32,60.8383525,60e55bb59cfd0aa9803b4470,64d2fd46c836a06233681665,64dc78e08b20b677772ae9f5,,,,,,,decisionTrl,resources/DP.BMP,resources/DY.BMP,WildCard_Ex,-0.187037037,0.001851852,1,0,0,0.598,optionLeft,95,9160,4,34,0,34,0,1,,,,,,,,,,,,,,,,,,,,,,,,,,,,,,,,,,,,,,,
,,,,,,,,2023-08-16_08h33.38.276,HF_wild_card,2022.2.4,Win32,60.8383525,60e55bb59cfd0aa9803b4470,64d2fd46c836a06233681665,64dc78e08b20b677772ae9f5,,,,,,,decisionTrl,resources/DG.BMP,resources/DBN.BMP,Door3,-0.209259259,0.019444444,1,0,0,1.063,optionLeft,70,9230,4,35,0,35,0,1,,,,,,,,,,,,,,,,,,,,,,,,,,,,,,,,,,,,,,,
,,,,,,,,2023-08-16_08h33.38.276,HF_wild_card,2022.2.4,Win32,60.8383525,60e55bb59cfd0aa9803b4470,64d2fd46c836a06233681665,64dc78e08b20b677772ae9f5,,,,,,,decisionTrl,resources/DB.BMP,resources/DY.BMP,Door1,0.159259259,0.008333333,1,0,0,1.7967,optionRight,30,9260,4,36,0,36,0,1,,,,,,,,,,,,,,,,,,,,,,,,,,,,,,,,,,,,,,,
,,,,,,,,2023-08-16_08h33.38.276,HF_wild_card,2022.2.4,Win32,60.8383525,60e55bb59cfd0aa9803b4470,64d2fd46c836a06233681665,64dc78e08b20b677772ae9f5,,,,,,,decisionTrl,resources/DP.BMP,resources/DG.BMP,Door3,0.221296296,0.025,1,0,0,2.4127,optionRight,70,9330,4,37,0,37,0,1,,,,,,,,,,,,,,,,,,,,,,,,,,,,,,,,,,,,,,,
,,,,,,,,2023-08-16_08h33.38.276,HF_wild_card,2022.2.4,Win32,60.8383525,60e55bb59cfd0aa9803b4470,64d2fd46c836a06233681665,64dc78e08b20b677772ae9f5,,,,,,,ctch,resources/DG.BMP,resources/DB.BMP,Door3,-0.206481481,0.008333333,1,0,0,0.8471,optionLeft,70,9400,4,38,0,38,0,1,,,,,,,,,,,,,,,,,,,,,,,,,,,,,,,,,,,,,,,
,,,,,,,,2023-08-16_08h33.38.276,HF_wild_card,2022.2.4,Win32,60.8383525,60e55bb59cfd0aa9803b4470,64d2fd46c836a06233681665,64dc78e08b20b677772ae9f5,,,,,,,sngl,resources/DG.BMP,resources/Empty.png,Door3,-0.139814815,0,1,0,0,0.5976,optionLeft,70,9470,4,39,0,39,0,1,,,,,,,,,,,,,,,,,,,,,,,,,,,,,,,,,,,,,,,
,,,,,,,,2023-08-16_08h33.38.276,HF_wild_card,2022.2.4,Win32,60.8383525,60e55bb59cfd0aa9803b4470,64d2fd46c836a06233681665,64dc78e08b20b677772ae9f5,,,,,,,decisionTrl,resources/DY.BMP,resources/DB.BMP,Door1,-0.221296296,0.009259259,1,0,0,1.4134,optionLeft,30,9500,4,40,0,40,0,1,,,,,,,,,,,,,,,,,,,,,,,,,,,,,,,,,,,,,,,
,,,,,,,,2023-08-16_08h33.38.276,HF_wild_card,2022.2.4,Win32,60.8383525,60e55bb59cfd0aa9803b4470,64d2fd46c836a06233681665,64dc78e08b20b677772ae9f5,,,,,,,ctch,resources/DBN.BMP,resources/DY.BMP,Door4,-0.312037037,0.030555556,1,0,0,1.131,optionLeft,60,9560,4,41,0,41,0,1,,,,,,,,,,,,,,,,,,,,,,,,,,,,,,,,,,,,,,,
,,,,,,,,2023-08-16_08h33.38.276,HF_wild_card,2022.2.4,Win32,60.8383525,60e55bb59cfd0aa9803b4470,64d2fd46c836a06233681665,64dc78e08b20b677772ae9f5,,,,,,,ctch,resources/DBN.BMP,resources/DY.BMP,Door4,-0.141666667,-0.008333333,1,0,0,1.1304,optionLeft,60,9620,4,42,0,42,0,1,,,,,,,,,,,,,,,,,,,,,,,,,,,,,,,,,,,,,,,
,,,,,,,,2023-08-16_08h33.38.276,HF_wild_card,2022.2.4,Win32,60.8383525,60e55bb59cfd0aa9803b4470,64d2fd46c836a06233681665,64dc78e08b20b677772ae9f5,,,,,,,decisionTrl,resources/DY.BMP,resources/DB.BMP,Door1,-0.275,0.015740741,1,0,0,1.0965,optionLeft,30,9650,4,43,0,43,0,1,,,,,,,,,,,,,,,,,,,,,,,,,,,,,,,,,,,,,,,
,,,,,,,,2023-08-16_08h33.38.276,HF_wild_card,2022.2.4,Win32,60.8383525,60e55bb59cfd0aa9803b4470,64d2fd46c836a06233681665,64dc78e08b20b677772ae9f5,,,,,,,,,,,,,,,,,,,,,,,,,,3,0,3,0,1,,,,,,,,,,,,,,,,,,,,,,,,,,,,,,,,,,
,,,,,,,,2023-08-16_08h33.38.276,HF_wild_card,2022.2.4,Win32,60.8383525,60e55bb59cfd0aa9803b4470,64d2fd46c836a06233681665,64dc78e08b20b677772ae9f5,,,,,,,decisionTrl,resources/DB.BMP,resources/DY.BMP,Door1,0.211111111,-0.017592593,1,0,0,1.5798,optionRight,30,9680,5,0,0,0,0,1,,,,,,,,,,,,,,,,,,,,,,,,,,,,,,,,,,,,,,,
,,,,,,,,2023-08-16_08h33.38.276,HF_wild_card,2022.2.4,Win32,60.8383525,60e55bb59cfd0aa9803b4470,64d2fd46c836a06233681665,64dc78e08b20b677772ae9f5,,,,,,,decisionTrl,resources/DBN.BMP,resources/DG.BMP,Door3,0.240740741,0.023148148,1,0,0,0.8814,optionRight,70,9750,5,1,0,1,0,1,,,,,,,,,,,,,,,,,,,,,,,,,,,,,,,,,,,,,,,
,,,,,,,,2023-08-16_08h33.38.276,HF_wild_card,2022.2.4,Win32,60.8383525,60e55bb59cfd0aa9803b4470,64d2fd46c836a06233681665,64dc78e08b20b677772ae9f5,,,,,,,decisionTrl,resources/DP.BMP,resources/DY.BMP,WildCard_Ex,-0.248148148,0.023148148,1,0,0,1.0966,optionLeft,95,9845,5,2,0,2,0,1,,,,,,,,,,,,,,,,,,,,,,,,,,,,,,,,,,,,,,,
,,,,,,,,2023-08-16_08h33.38.276,HF_wild_card,2022.2.4,Win32,60.8383525,60e55bb59cfd0aa9803b4470,64d2fd46c836a06233681665,64dc78e08b20b677772ae9f5,,,,,,,sngl,resources/DP.BMP,resources/Empty.png,WildCard_Ex,-0.238888889,0.00462963,1,0,0,0.6138,optionLeft,5,9850,5,3,0,3,0,1,,,,,,,,,,,,,,,,,,,,,,,,,,,,,,,,,,,,,,,
,,,,,,,,2023-08-16_08h33.38.276,HF_wild_card,2022.2.4,Win32,60.8383525,60e55bb59cfd0aa9803b4470,64d2fd46c836a06233681665,64dc78e08b20b677772ae9f5,,,,,,,decisionTrl,resources/DB.BMP,resources/DP.BMP,WildCard_Ex,0.203703704,0.012962963,1,0,0,0.9809,optionRight,95,9945,5,4,0,4,0,1,,,,,,,,,,,,,,,,,,,,,,,,,,,,,,,,,,,,,,,
,,,,,,,,2023-08-16_08h33.38.276,HF_wild_card,2022.2.4,Win32,60.8383525,60e55bb59cfd0aa9803b4470,64d2fd46c836a06233681665,64dc78e08b20b677772ae9f5,,,,,,,decisionTrl,resources/DG.BMP,resources/DP.BMP,WildCard_Ex,0.221296296,0.032407407,1,0,0,0.6139,optionRight,95,10040,5,5,0,5,0,1,,,,,,,,,,,,,,,,,,,,,,,,,,,,,,,,,,,,,,,
,,,,,,,,2023-08-16_08h33.38.276,HF_wild_card,2022.2.4,Win32,60.8383525,60e55bb59cfd0aa9803b4470,64d2fd46c836a06233681665,64dc78e08b20b677772ae9f5,,,,,,,decisionTrl,resources/DP.BMP,resources/DB.BMP,WildCard_Ex,-0.253703704,0.021296296,1,0,0,0.6478,optionLeft,95,10135,5,6,0,6,0,1,,,,,,,,,,,,,,,,,,,,,,,,,,,,,,,,,,,,,,,
,,,,,,,,2023-08-16_08h33.38.276,HF_wild_card,2022.2.4,Win32,60.8383525,60e55bb59cfd0aa9803b4470,64d2fd46c836a06233681665,64dc78e08b20b677772ae9f5,,,,,,,decisionTrl,resources/DBN.BMP,resources/DG.BMP,Door3,0.174074074,0.012962963,1,0,0,0.9971,optionRight,70,10205,5,7,0,7,0,1,,,,,,,,,,,,,,,,,,,,,,,,,,,,,,,,,,,,,,,
,,,,,,,,2023-08-16_08h33.38.276,HF_wild_card,2022.2.4,Win32,60.8383525,60e55bb59cfd0aa9803b4470,64d2fd46c836a06233681665,64dc78e08b20b677772ae9f5,,,,,,,decisionTrl,resources/DY.BMP,resources/DB.BMP,Door1,-0.241666667,0.018518519,1,0,0,1.3472,optionLeft,30,10235,5,8,0,8,0,1,,,,,,,,,,,,,,,,,,,,,,,,,,,,,,,,,,,,,,,
,,,,,,,,2023-08-16_08h33.38.276,HF_wild_card,2022.2.4,Win32,60.8383525,60e55bb59cfd0aa9803b4470,64d2fd46c836a06233681665,64dc78e08b20b677772ae9f5,,,,,,,decisionTrl,resources/DBN.BMP,resources/DG.BMP,Door3,0.15462963,0.006481481,1,0,0,0.8311,optionRight,70,10305,5,9,0,9,0,1,,,,,,,,,,,,,,,,,,,,,,,,,,,,,,,,,,,,,,,
,,,,,,,,2023-08-16_08h33.38.276,HF_wild_card,2022.2.4,Win32,60.8383525,60e55bb59cfd0aa9803b4470,64d2fd46c836a06233681665,64dc78e08b20b677772ae9f5,,,,,,,ctch,resources/DBN.BMP,resources/DY.BMP,Door4,-0.141666667,0.017592593,1,0,0,1.3302,optionLeft,60,10365,5,10,0,10,0,1,,,,,,,,,,,,,,,,,,,,,,,,,,,,,,,,,,,,,,,
,,,,,,,,2023-08-16_08h33.38.276,HF_wild_card,2022.2.4,Win32,60.8383525,60e55bb59cfd0aa9803b4470,64d2fd46c836a06233681665,64dc78e08b20b677772ae9f5,,,,,,,decisionTrl,resources/DY.BMP,resources/DB.BMP,Door1,-0.230555556,0.026851852,1,0,0,1.7635,optionLeft,30,10395,5,11,0,11,0,1,,,,,,,,,,,,,,,,,,,,,,,,,,,,,,,,,,,,,,,
,,,,,,,,2023-08-16_08h33.38.276,HF_wild_card,2022.2.4,Win32,60.8383525,60e55bb59cfd0aa9803b4470,64d2fd46c836a06233681665,64dc78e08b20b677772ae9f5,,,,,,,decisionTrl,resources/DG.BMP,resources/DBN.BMP,Door3,-0.249074074,0.019444444,1,0,0,0.8803,optionLeft,70,10465,5,12,0,12,0,1,,,,,,,,,,,,,,,,,,,,,,,,,,,,,,,,,,,,,,,
,,,,,,,,2023-08-16_08h33.38.276,HF_wild_card,2022.2.4,Win32,60.8383525,60e55bb59cfd0aa9803b4470,64d2fd46c836a06233681665,64dc78e08b20b677772ae9f5,,,,,,,decisionTrl,resources/DP.BMP,resources/DG.BMP,WildCard_Ex,-0.242592593,0.025925926,1,0,0,0.7141,optionLeft,5,10470,5,13,0,13,0,1,,,,,,,,,,,,,,,,,,,,,,,,,,,,,,,,,,,,,,,
,,,,,,,,2023-08-16_08h33.38.276,HF_wild_card,2022.2.4,Win32,60.8383525,60e55bb59cfd0aa9803b4470,64d2fd46c836a06233681665,64dc78e08b20b677772ae9f5,,,,,,,ctch,resources/DY.BMP,resources/DBN.BMP,Door4,0.166666667,0.019444444,1,0,0,1.2805,optionRight,60,10530,5,14,0,14,0,1,,,,,,,,,,,,,,,,,,,,,,,,,,,,,,,,,,,,,,,
,,,,,,,,2023-08-16_08h33.38.276,HF_wild_card,2022.2.4,Win32,60.8383525,60e55bb59cfd0aa9803b4470,64d2fd46c836a06233681665,64dc78e08b20b677772ae9f5,,,,,,,decisionTrl,resources/DBN.BMP,resources/DG.BMP,Door3,0.166666667,0.016666667,1,0,0,0.9145,optionRight,70,10600,5,15,0,15,0,1,,,,,,,,,,,,,,,,,,,,,,,,,,,,,,,,,,,,,,,
,,,,,,,,2023-08-16_08h33.38.276,HF_wild_card,2022.2.4,Win32,60.8383525,60e55bb59cfd0aa9803b4470,64d2fd46c836a06233681665,64dc78e08b20b677772ae9f5,,,,,,,sngl,resources/Empty.png,resources/DB.BMP,Door2,0.191666667,0.012962963,1,0,0,0.6463,optionRight,20,10620,5,16,0,16,0,1,,,,,,,,,,,,,,,,,,,,,,,,,,,,,,,,,,,,,,,
,,,,,,,,2023-08-16_08h33.38.276,HF_wild_card,2022.2.4,Win32,60.8383525,60e55bb59cfd0aa9803b4470,64d2fd46c836a06233681665,64dc78e08b20b677772ae9f5,,,,,,,sngl,resources/Empty.png,resources/DP.BMP,WildCard_Ex,0.216666667,0.019444444,1,0,0,0.6141,optionRight,5,10625,5,17,0,17,0,1,,,,,,,,,,,,,,,,,,,,,,,,,,,,,,,,,,,,,,,
,,,,,,,,2023-08-16_08h33.38.276,HF_wild_card,2022.2.4,Win32,60.8383525,60e55bb59cfd0aa9803b4470,64d2fd46c836a06233681665,64dc78e08b20b677772ae9f5,,,,,,,sngl,resources/Empty.png,resources/DP.BMP,WildCard_Ex,0.216666667,0.016666667,1,0,0,0.5303,optionRight,95,10720,5,18,0,18,0,1,,,,,,,,,,,,,,,,,,,,,,,,,,,,,,,,,,,,,,,
,,,,,,,,2023-08-16_08h33.38.276,HF_wild_card,2022.2.4,Win32,60.8383525,60e55bb59cfd0aa9803b4470,64d2fd46c836a06233681665,64dc78e08b20b677772ae9f5,,,,,,,decisionTrl,resources/DY.BMP,resources/DP.BMP,WildCard_Ex,0.225925926,0.009259259,1,0,0,0.8145,optionRight,5,10725,5,19,0,19,0,1,,,,,,,,,,,,,,,,,,,,,,,,,,,,,,,,,,,,,,,
,,,,,,,,2023-08-16_08h33.38.276,HF_wild_card,2022.2.4,Win32,60.8383525,60e55bb59cfd0aa9803b4470,64d2fd46c836a06233681665,64dc78e08b20b677772ae9f5,,,,,,,sngl,resources/DB.BMP,resources/Empty.png,Door2,-0.169444444,0.018518519,1,0,0,0.6809,optionLeft,40,10765,5,20,0,20,0,1,,,,,,,,,,,,,,,,,,,,,,,,,,,,,,,,,,,,,,,
,,,,,,,,2023-08-16_08h33.38.276,HF_wild_card,2022.2.4,Win32,60.8383525,60e55bb59cfd0aa9803b4470,64d2fd46c836a06233681665,64dc78e08b20b677772ae9f5,,,,,,,sngl,resources/DP.BMP,resources/Empty.png,WildCard_Ex,-0.172222222,0.013888889,1,0,0,0.5808,optionLeft,95,10860,5,21,0,21,0,1,,,,,,,,,,,,,,,,,,,,,,,,,,,,,,,,,,,,,,,
,,,,,,,,2023-08-16_08h33.38.276,HF_wild_card,2022.2.4,Win32,60.8383525,60e55bb59cfd0aa9803b4470,64d2fd46c836a06233681665,64dc78e08b20b677772ae9f5,,,,,,,ctch,resources/DB.BMP,resources/DG.BMP,Door3,0.186111111,0.011111111,1,0,0,1.1294,optionRight,70,10930,5,22,0,22,0,1,,,,,,,,,,,,,,,,,,,,,,,,,,,,,,,,,,,,,,,
,,,,,,,,2023-08-16_08h33.38.276,HF_wild_card,2022.2.4,Win32,60.8383525,60e55bb59cfd0aa9803b4470,64d2fd46c836a06233681665,64dc78e08b20b677772ae9f5,,,,,,,decisionTrl,resources/DB.BMP,resources/DY.BMP,Door1,0.163888889,0.012037037,1,0,0,1.9299,optionRight,30,10960,5,23,0,23,0,1,,,,,,,,,,,,,,,,,,,,,,,,,,,,,,,,,,,,,,,
,,,,,,,,2023-08-16_08h33.38.276,HF_wild_card,2022.2.4,Win32,60.8383525,60e55bb59cfd0aa9803b4470,64d2fd46c836a06233681665,64dc78e08b20b677772ae9f5,,,,,,,decisionTrl,resources/DG.BMP,resources/DBN.BMP,Door3,-0.148148148,0.009259259,1,0,0,1.1465,optionLeft,70,11030,5,24,0,24,0,1,,,,,,,,,,,,,,,,,,,,,,,,,,,,,,,,,,,,,,,
,,,,,,,,2023-08-16_08h33.38.276,HF_wild_card,2022.2.4,Win32,60.8383525,60e55bb59cfd0aa9803b4470,64d2fd46c836a06233681665,64dc78e08b20b677772ae9f5,,,,,,,decisionTrl,resources/DB.BMP,resources/DY.BMP,Door1,0.212037037,0.015740741,1,0,0,1.3306,optionRight,30,11060,5,25,0,25,0,1,,,,,,,,,,,,,,,,,,,,,,,,,,,,,,,,,,,,,,,
,,,,,,,,2023-08-16_08h33.38.276,HF_wild_card,2022.2.4,Win32,60.8383525,60e55bb59cfd0aa9803b4470,64d2fd46c836a06233681665,64dc78e08b20b677772ae9f5,,,,,,,decisionTrl,resources/DG.BMP,resources/DBN.BMP,Door3,-0.112962963,0.003703704,1,0,0,0.8471,optionLeft,70,11130,5,26,0,26,0,1,,,,,,,,,,,,,,,,,,,,,,,,,,,,,,,,,,,,,,,
,,,,,,,,2023-08-16_08h33.38.276,HF_wild_card,2022.2.4,Win32,60.8383525,60e55bb59cfd0aa9803b4470,64d2fd46c836a06233681665,64dc78e08b20b677772ae9f5,,,,,,,decisionTrl,resources/DB.BMP,resources/DY.BMP,Door2,-0.192592593,0.012962963,1,0,0,1.3798,optionLeft,20,11150,5,27,0,27,0,1,,,,,,,,,,,,,,,,,,,,,,,,,,,,,,,,,,,,,,,
,,,,,,,,2023-08-16_08h33.38.276,HF_wild_card,2022.2.4,Win32,60.8383525,60e55bb59cfd0aa9803b4470,64d2fd46c836a06233681665,64dc78e08b20b677772ae9f5,,,,,,,decisionTrl,resources/DP.BMP,resources/DBN.BMP,WildCard_Ex,-0.157407407,0.025925926,1,0,0,2.3461,optionLeft,5,11155,5,28,0,28,0,1,,,,,,,,,,,,,,,,,,,,,,,,,,,,,,,,,,,,,,,
,,,,,,,,2023-08-16_08h33.38.276,HF_wild_card,2022.2.4,Win32,60.8383525,60e55bb59cfd0aa9803b4470,64d2fd46c836a06233681665,64dc78e08b20b677772ae9f5,,,,,,,decisionTrl,resources/DBN.BMP,resources/DP.BMP,WildCard_Ex,0.212962963,0.019444444,1,0,0,1.8131,optionRight,95,11250,5,29,0,29,0,1,,,,,,,,,,,,,,,,,,,,,,,,,,,,,,,,,,,,,,,
,,,,,,,,2023-08-16_08h33.38.276,HF_wild_card,2022.2.4,Win32,60.8383525,60e55bb59cfd0aa9803b4470,64d2fd46c836a06233681665,64dc78e08b20b677772ae9f5,,,,,,,ctch,resources/DG.BMP,resources/DB.BMP,Door3,-0.163888889,-0.001851852,1,0,0,0.9134,optionLeft,70,11320,5,30,0,30,0,1,,,,,,,,,,,,,,,,,,,,,,,,,,,,,,,,,,,,,,,
,,,,,,,,2023-08-16_08h33.38.276,HF_wild_card,2022.2.4,Win32,60.8383525,60e55bb59cfd0aa9803b4470,64d2fd46c836a06233681665,64dc78e08b20b677772ae9f5,,,,,,,decisionTrl,resources/DY.BMP,resources/DB.BMP,Door1,-0.213888889,0.008333333,1,0,0,1.1799,optionLeft,30,11350,5,31,0,31,0,1,,,,,,,,,,,,,,,,,,,,,,,,,,,,,,,,,,,,,,,
,,,,,,,,2023-08-16_08h33.38.276,HF_wild_card,2022.2.4,Win32,60.8383525,60e55bb59cfd0aa9803b4470,64d2fd46c836a06233681665,64dc78e08b20b677772ae9f5,,,,,,,decisionTrl,resources/DY.BMP,resources/DB.BMP,Door1,-0.284259259,0.011111111,1,0,0,1.0642,optionLeft,30,11380,5,32,0,32,0,1,,,,,,,,,,,,,,,,,,,,,,,,,,,,,,,,,,,,,,,
,,,,,,,,2023-08-16_08h33.38.276,HF_wild_card,2022.2.4,Win32,60.8383525,60e55bb59cfd0aa9803b4470,64d2fd46c836a06233681665,64dc78e08b20b677772ae9f5,,,,,,,ctch,resources/DB.BMP,resources/DG.BMP,Door3,0.213888889,0.018518519,1,0,0,0.8296,optionRight,70,11450,5,33,0,33,0,1,,,,,,,,,,,,,,,,,,,,,,,,,,,,,,,,,,,,,,,
,,,,,,,,2023-08-16_08h33.38.276,HF_wild_card,2022.2.4,Win32,60.8383525,60e55bb59cfd0aa9803b4470,64d2fd46c836a06233681665,64dc78e08b20b677772ae9f5,,,,,,,sngl,resources/DBN.BMP,resources/Empty.png,Door4,-0.201851852,0.02037037,1,0,0,0.581,optionLeft,80,11530,5,34,0,34,0,1,,,,,,,,,,,,,,,,,,,,,,,,,,,,,,,,,,,,,,,
,,,,,,,,2023-08-16_08h33.38.276,HF_wild_card,2022.2.4,Win32,60.8383525,60e55bb59cfd0aa9803b4470,64d2fd46c836a06233681665,64dc78e08b20b677772ae9f5,,,,,,,ctch,resources/DBN.BMP,resources/DY.BMP,Door4,-0.189814815,0.042592593,1,0,0,1.3637,optionLeft,60,11590,5,35,0,35,0,1,,,,,,,,,,,,,,,,,,,,,,,,,,,,,,,,,,,,,,,
,,,,,,,,2023-08-16_08h33.38.276,HF_wild_card,2022.2.4,Win32,60.8383525,60e55bb59cfd0aa9803b4470,64d2fd46c836a06233681665,64dc78e08b20b677772ae9f5,,,,,,,decisionTrl,resources/DG.BMP,resources/DBN.BMP,Door3,-0.212037037,0.034259259,1,0,0,0.8806,optionLeft,70,11660,5,36,0,36,0,1,,,,,,,,,,,,,,,,,,,,,,,,,,,,,,,,,,,,,,,
,,,,,,,,2023-08-16_08h33.38.276,HF_wild_card,2022.2.4,Win32,60.8383525,60e55bb59cfd0aa9803b4470,64d2fd46c836a06233681665,64dc78e08b20b677772ae9f5,,,,,,,sngl,resources/DY.BMP,resources/Empty.png,Door1,-0.139814815,0.025925926,1,0,0,0.7472,optionLeft,30,11690,5,37,0,37,0,1,,,,,,,,,,,,,,,,,,,,,,,,,,,,,,,,,,,,,,,
,,,,,,,,2023-08-16_08h33.38.276,HF_wild_card,2022.2.4,Win32,60.8383525,60e55bb59cfd0aa9803b4470,64d2fd46c836a06233681665,64dc78e08b20b677772ae9f5,,,,,,,sngl,resources/Empty.png,resources/DG.BMP,Door3,0.135185185,0.012962963,1,0,0,0.5975,optionRight,70,11760,5,38,0,38,0,1,,,,,,,,,,,,,,,,,,,,,,,,,,,,,,,,,,,,,,,
,,,,,,,,2023-08-16_08h33.38.276,HF_wild_card,2022.2.4,Win32,60.8383525,60e55bb59cfd0aa9803b4470,64d2fd46c836a06233681665,64dc78e08b20b677772ae9f5,,,,,,,sngl,resources/Empty.png,resources/DBN.BMP,Door4,0.141666667,0.011111111,1,0,0,0.6475,optionRight,60,11820,5,39,0,39,0,1,,,,,,,,,,,,,,,,,,,,,,,,,,,,,,,,,,,,,,,
,,,,,,,,2023-08-16_08h33.38.276,HF_wild_card,2022.2.4,Win32,60.8383525,60e55bb59cfd0aa9803b4470,64d2fd46c836a06233681665,64dc78e08b20b677772ae9f5,,,,,,,sngl,resources/DG.BMP,resources/Empty.png,Door3,-0.187962963,0.012962963,1,0,0,0.5973,optionLeft,70,11890,5,40,0,40,0,1,,,,,,,,,,,,,,,,,,,,,,,,,,,,,,,,,,,,,,,
,,,,,,,,2023-08-16_08h33.38.276,HF_wild_card,2022.2.4,Win32,60.8383525,60e55bb59cfd0aa9803b4470,64d2fd46c836a06233681665,64dc78e08b20b677772ae9f5,,,,,,,sngl,resources/Empty.png,resources/DY.BMP,Door1,0.142592593,0.012037037,1,0,0,0.6145,optionRight,30,11920,5,41,0,41,0,1,,,,,,,,,,,,,,,,,,,,,,,,,,,,,,,,,,,,,,,
,,,,,,,,2023-08-16_08h33.38.276,HF_wild_card,2022.2.4,Win32,60.8383525,60e55bb59cfd0aa9803b4470,64d2fd46c836a06233681665,64dc78e08b20b677772ae9f5,,,,,,,ctch,resources/DY.BMP,resources/DBN.BMP,Door4,0.178703704,0.026851852,1,0,0,0.9804,optionRight,60,11980,5,42,0,42,0,1,,,,,,,,,,,,,,,,,,,,,,,,,,,,,,,,,,,,,,,
,,,,,,,,2023-08-16_08h33.38.276,HF_wild_card,2022.2.4,Win32,60.8383525,60e55bb59cfd0aa9803b4470,64d2fd46c836a06233681665,64dc78e08b20b677772ae9f5,,,,,,,ctch,resources/DG.BMP,resources/DB.BMP,Door3,-0.099074074,0.010185185,1,0,0,1.4303,optionLeft,70,12050,5,43,0,43,0,1,,,,,,,,,,,,,,,,,,,,,,,,,,,,,,,,,,,,,,,
,,,,,,,,2023-08-16_08h33.38.276,HF_wild_card,2022.2.4,Win32,60.8383525,60e55bb59cfd0aa9803b4470,64d2fd46c836a06233681665,64dc78e08b20b677772ae9f5,,,,,,,,,,,,,,,,,,,,,,,,,,4,0,4,0,1,,,,,,,,,,,,,,,,,,,,,,,,,,,,,,,,,,
,,,,,,,,2023-08-16_08h33.38.276,HF_wild_card,2022.2.4,Win32,60.8383525,60e55bb59cfd0aa9803b4470,64d2fd46c836a06233681665,64dc78e08b20b677772ae9f5,,,,,,,sngl,resources/Empty.png,resources/DP.BMP,WildCard_Ex,0.277777778,-0.037037037,1,0,0,1.2792,optionRight,95,12145,6,0,0,0,0,1,,,,,,,,,,,,,,,,,,,,,,,,,,,,,,,,,,,,,,,
,,,,,,,,2023-08-16_08h33.38.276,HF_wild_card,2022.2.4,Win32,60.8383525,60e55bb59cfd0aa9803b4470,64d2fd46c836a06233681665,64dc78e08b20b677772ae9f5,,,,,,,decisionTrl,resources/DP.BMP,resources/DY.BMP,WildCard_Ex,-0.149074074,0.000925926,1,0,0,0.8137,optionLeft,95,12240,6,1,0,1,0,1,,,,,,,,,,,,,,,,,,,,,,,,,,,,,,,,,,,,,,,
,,,,,,,,2023-08-16_08h33.38.276,HF_wild_card,2022.2.4,Win32,60.8383525,60e55bb59cfd0aa9803b4470,64d2fd46c836a06233681665,64dc78e08b20b677772ae9f5,,,,,,,sngl,resources/Empty.png,resources/DBN.BMP,Door4,0.256481481,0.008333333,1,0,0,0.58,optionRight,80,12320,6,2,0,2,0,1,,,,,,,,,,,,,,,,,,,,,,,,,,,,,,,,,,,,,,,
,,,,,,,,2023-08-16_08h33.38.276,HF_wild_card,2022.2.4,Win32,60.8383525,60e55bb59cfd0aa9803b4470,64d2fd46c836a06233681665,64dc78e08b20b677772ae9f5,,,,,,,sngl,resources/DG.BMP,resources/Empty.png,Door3,-0.138888889,0.008333333,1,0,0,0.615,optionLeft,70,12390,6,3,0,3,0,1,,,,,,,,,,,,,,,,,,,,,,,,,,,,,,,,,,,,,,,
,,,,,,,,2023-08-16_08h33.38.276,HF_wild_card,2022.2.4,Win32,60.8383525,60e55bb59cfd0aa9803b4470,64d2fd46c836a06233681665,64dc78e08b20b677772ae9f5,,,,,,,ctch,resources/DG.BMP,resources/DB.BMP,Door3,-0.172222222,0.005555556,1,0,0,0.9642,optionLeft,70,12460,6,4,0,4,0,1,,,,,,,,,,,,,,,,,,,,,,,,,,,,,,,,,,,,,,,
,,,,,,,,2023-08-16_08h33.38.276,HF_wild_card,2022.2.4,Win32,60.8383525,60e55bb59cfd0aa9803b4470,64d2fd46c836a06233681665,64dc78e08b20b677772ae9f5,,,,,,,sngl,resources/DY.BMP,resources/Empty.png,Door1,-0.136111111,0.010185185,1,0,0,0.7143,optionLeft,30,12490,6,5,0,5,0,1,,,,,,,,,,,,,,,,,,,,,,,,,,,,,,,,,,,,,,,
,,,,,,,,2023-08-16_08h33.38.276,HF_wild_card,2022.2.4,Win32,60.8383525,60e55bb59cfd0aa9803b4470,64d2fd46c836a06233681665,64dc78e08b20b677772ae9f5,,,,,,,decisionTrl,resources/DG.BMP,resources/DBN.BMP,Door3,-0.117592593,0.006481481,1,0,0,0.9478,optionLeft,70,12560,6,6,0,6,0,1,,,,,,,,,,,,,,,,,,,,,,,,,,,,,,,,,,,,,,,
,,,,,,,,2023-08-16_08h33.38.276,HF_wild_card,2022.2.4,Win32,60.8383525,60e55bb59cfd0aa9803b4470,64d2fd46c836a06233681665,64dc78e08b20b677772ae9f5,,,,,,,decisionTrl,resources/DG.BMP,resources/DBN.BMP,Door3,-0.153703704,0.009259259,1,0,0,0.6317,optionLeft,70,12630,6,7,0,7,0,1,,,,,,,,,,,,,,,,,,,,,,,,,,,,,,,,,,,,,,,
,,,,,,,,2023-08-16_08h33.38.276,HF_wild_card,2022.2.4,Win32,60.8383525,60e55bb59cfd0aa9803b4470,64d2fd46c836a06233681665,64dc78e08b20b677772ae9f5,,,,,,,sngl,resources/DBN.BMP,resources/Empty.png,Door4,-0.218518519,0.038888889,1,0,0,0.5953,optionLeft,60,12690,6,8,0,8,0,1,,,,,,,,,,,,,,,,,,,,,,,,,,,,,,,,,,,,,,,
,,,,,,,,2023-08-16_08h33.38.276,HF_wild_card,2022.2.4,Win32,60.8383525,60e55bb59cfd0aa9803b4470,64d2fd46c836a06233681665,64dc78e08b20b677772ae9f5,,,,,,,decisionTrl,resources/DY.BMP,resources/DB.BMP,Door1,-0.240740741,0.05462963,1,0,0,4.5282,optionLeft,30,12720,6,9,0,9,0,1,,,,,,,,,,,,,,,,,,,,,,,,,,,,,,,,,,,,,,,
,,,,,,,,2023-08-16_08h33.38.276,HF_wild_card,2022.2.4,Win32,60.8383525,60e55bb59cfd0aa9803b4470,64d2fd46c836a06233681665,64dc78e08b20b677772ae9f5,,,,,,,ctch,resources/DBN.BMP,resources/DY.BMP,Door4,-0.178703704,0.017592593,1,0,0,1.3129,optionLeft,80,12800,6,10,0,10,0,1,,,,,,,,,,,,,,,,,,,,,,,,,,,,,,,,,,,,,,,
,,,,,,,,2023-08-16_08h33.38.276,HF_wild_card,2022.2.4,Win32,60.8383525,60e55bb59cfd0aa9803b4470,64d2fd46c836a06233681665,64dc78e08b20b677772ae9f5,,,,,,,decisionTrl,resources/DG.BMP,resources/DBN.BMP,Door3,-0.241666667,0.008333333,1,0,0,0.7141,optionLeft,70,12870,6,11,0,11,0,1,,,,,,,,,,,,,,,,,,,,,,,,,,,,,,,,,,,,,,,
,,,,,,,,2023-08-16_08h33.38.276,HF_wild_card,2022.2.4,Win32,60.8383525,60e55bb59cfd0aa9803b4470,64d2fd46c836a06233681665,64dc78e08b20b677772ae9f5,,,,,,,decisionTrl,resources/DG.BMP,resources/DP.BMP,Door3,-0.263888889,0.014814815,1,0,0,1.3131,optionLeft,70,12940,6,12,0,12,0,1,,,,,,,,,,,,,,,,,,,,,,,,,,,,,,,,,,,,,,,
,,,,,,,,2023-08-16_08h33.38.276,HF_wild_card,2022.2.4,Win32,60.8383525,60e55bb59cfd0aa9803b4470,64d2fd46c836a06233681665,64dc78e08b20b677772ae9f5,,,,,,,ctch,resources/DBN.BMP,resources/DY.BMP,Door4,-0.227777778,0.019444444,1,0,0,1.0472,optionLeft,80,13020,6,13,0,13,0,1,,,,,,,,,,,,,,,,,,,,,,,,,,,,,,,,,,,,,,,
,,,,,,,,2023-08-16_08h33.38.276,HF_wild_card,2022.2.4,Win32,60.8383525,60e55bb59cfd0aa9803b4470,64d2fd46c836a06233681665,64dc78e08b20b677772ae9f5,,,,,,,ctch,resources/DG.BMP,resources/DB.BMP,Door3,-0.215740741,0.012962963,1,0,0,0.881,optionLeft,70,13090,6,14,0,14,0,1,,,,,,,,,,,,,,,,,,,,,,,,,,,,,,,,,,,,,,,
,,,,,,,,2023-08-16_08h33.38.276,HF_wild_card,2022.2.4,Win32,60.8383525,60e55bb59cfd0aa9803b4470,64d2fd46c836a06233681665,64dc78e08b20b677772ae9f5,,,,,,,decisionTrl,resources/DP.BMP,resources/DG.BMP,Door3,0.298148148,-0.008333333,1,0,0,1.2133,optionRight,70,13160,6,15,0,15,0,1,,,,,,,,,,,,,,,,,,,,,,,,,,,,,,,,,,,,,,,
,,,,,,,,2023-08-16_08h33.38.276,HF_wild_card,2022.2.4,Win32,60.8383525,60e55bb59cfd0aa9803b4470,64d2fd46c836a06233681665,64dc78e08b20b677772ae9f5,,,,,,,sngl,resources/DP.BMP,resources/Empty.png,WildCard_Ex,-0.163888889,-0.003703704,1,0,0,0.6314,optionLeft,95,13255,6,16,0,16,0,1,,,,,,,,,,,,,,,,,,,,,,,,,,,,,,,,,,,,,,,
,,,,,,,,2023-08-16_08h33.38.276,HF_wild_card,2022.2.4,Win32,60.8383525,60e55bb59cfd0aa9803b4470,64d2fd46c836a06233681665,64dc78e08b20b677772ae9f5,,,,,,,decisionTrl,resources/DBN.BMP,resources/DP.BMP,Door4,-0.217592593,0.014814815,1,0,0,1.1139,optionLeft,60,13315,6,17,0,17,0,1,,,,,,,,,,,,,,,,,,,,,,,,,,,,,,,,,,,,,,,
,,,,,,,,2023-08-16_08h33.38.276,HF_wild_card,2022.2.4,Win32,60.8383525,60e55bb59cfd0aa9803b4470,64d2fd46c836a06233681665,64dc78e08b20b677772ae9f5,,,,,,,decisionTrl,resources/DB.BMP,resources/DY.BMP,Door1,0.259259259,0.011111111,1,0,0,1.3306,optionRight,30,13345,6,18,0,18,0,1,,,,,,,,,,,,,,,,,,,,,,,,,,,,,,,,,,,,,,,
,,,,,,,,2023-08-16_08h33.38.276,HF_wild_card,2022.2.4,Win32,60.8383525,60e55bb59cfd0aa9803b4470,64d2fd46c836a06233681665,64dc78e08b20b677772ae9f5,,,,,,,decisionTrl,resources/DBN.BMP,resources/DG.BMP,Door3,0.14537037,-0.00462963,1,0,0,1.397,optionRight,70,13415,6,19,0,19,0,1,,,,,,,,,,,,,,,,,,,,,,,,,,,,,,,,,,,,,,,
,,,,,,,,2023-08-16_08h33.38.276,HF_wild_card,2022.2.4,Win32,60.8383525,60e55bb59cfd0aa9803b4470,64d2fd46c836a06233681665,64dc78e08b20b677772ae9f5,,,,,,,sngl,resources/Empty.png,resources/DP.BMP,WildCard_Ex,0.169444444,-0.019444444,1,0,0,0.631,optionRight,5,13420,6,20,0,20,0,1,,,,,,,,,,,,,,,,,,,,,,,,,,,,,,,,,,,,,,,
,,,,,,,,2023-08-16_08h33.38.276,HF_wild_card,2022.2.4,Win32,60.8383525,60e55bb59cfd0aa9803b4470,64d2fd46c836a06233681665,64dc78e08b20b677772ae9f5,,,,,,,decisionTrl,resources/DP.BMP,resources/DB.BMP,WildCard_Ex,-0.187962963,-0.008333333,1,0,0,1.3138,optionLeft,5,13425,6,21,0,21,0,1,,,,,,,,,,,,,,,,,,,,,,,,,,,,,,,,,,,,,,,
,,,,,,,,2023-08-16_08h33.38.276,HF_wild_card,2022.2.4,Win32,60.8383525,60e55bb59cfd0aa9803b4470,64d2fd46c836a06233681665,64dc78e08b20b677772ae9f5,,,,,,,decisionTrl,resources/DB.BMP,resources/DY.BMP,Door1,0.173148148,-0.000925926,1,0,0,1.2975,optionRight,30,13455,6,22,0,22,0,1,,,,,,,,,,,,,,,,,,,,,,,,,,,,,,,,,,,,,,,
,,,,,,,,2023-08-16_08h33.38.276,HF_wild_card,2022.2.4,Win32,60.8383525,60e55bb59cfd0aa9803b4470,64d2fd46c836a06233681665,64dc78e08b20b677772ae9f5,,,,,,,sngl,resources/DP.BMP,resources/Empty.png,WildCard_Ex,-0.15,0.000925926,1,0,0,0.6974,optionLeft,5,13460,6,23,0,23,0,1,,,,,,,,,,,,,,,,,,,,,,,,,,,,,,,,,,,,,,,
,,,,,,,,2023-08-16_08h33.38.276,HF_wild_card,2022.2.4,Win32,60.8383525,60e55bb59cfd0aa9803b4470,64d2fd46c836a06233681665,64dc78e08b20b677772ae9f5,,,,,,,sngl,resources/DB.BMP,resources/Empty.png,Door2,-0.186111111,0.010185185,1,0,0,0.7809,optionLeft,20,13480,6,24,0,24,0,1,,,,,,,,,,,,,,,,,,,,,,,,,,,,,,,,,,,,,,,
,,,,,,,,2023-08-16_08h33.38.276,HF_wild_card,2022.2.4,Win32,60.8383525,60e55bb59cfd0aa9803b4470,64d2fd46c836a06233681665,64dc78e08b20b677772ae9f5,,,,,,,decisionTrl,resources/DB.BMP,resources/DY.BMP,Door1,0.171296296,0.006481481,1,0,0,1.3962,optionRight,30,13510,6,25,0,25,0,1,,,,,,,,,,,,,,,,,,,,,,,,,,,,,,,,,,,,,,,
,,,,,,,,2023-08-16_08h33.38.276,HF_wild_card,2022.2.4,Win32,60.8383525,60e55bb59cfd0aa9803b4470,64d2fd46c836a06233681665,64dc78e08b20b677772ae9f5,,,,,,,decisionTrl,resources/DY.BMP,resources/DB.BMP,Door1,-0.27962963,-0.002777778,1,0,0,1.6802,optionLeft,30,13540,6,26,0,26,0,1,,,,,,,,,,,,,,,,,,,,,,,,,,,,,,,,,,,,,,,
,,,,,,,,2023-08-16_08h33.38.276,HF_wild_card,2022.2.4,Win32,60.8383525,60e55bb59cfd0aa9803b4470,64d2fd46c836a06233681665,64dc78e08b20b677772ae9f5,,,,,,,sngl,resources/Empty.png,resources/DB.BMP,Door2,0.175,0.003703704,1,0,0,0.6475,optionRight,40,13580,6,27,0,27,0,1,,,,,,,,,,,,,,,,,,,,,,,,,,,,,,,,,,,,,,,
,,,,,,,,2023-08-16_08h33.38.276,HF_wild_card,2022.2.4,Win32,60.8383525,60e55bb59cfd0aa9803b4470,64d2fd46c836a06233681665,64dc78e08b20b677772ae9f5,,,,,,,decisionTrl,resources/DG.BMP,resources/DBN.BMP,Door3,-0.133333333,0.003703704,1,0,0,1.163,optionLeft,70,13650,6,28,0,28,0,1,,,,,,,,,,,,,,,,,,,,,,,,,,,,,,,,,,,,,,,
,,,,,,,,2023-08-16_08h33.38.276,HF_wild_card,2022.2.4,Win32,60.8383525,60e55bb59cfd0aa9803b4470,64d2fd46c836a06233681665,64dc78e08b20b677772ae9f5,,,,,,,ctch,resources/DB.BMP,resources/DG.BMP,Door3,0.143518519,-0.012962963,1,0,0,1.3295,optionRight,70,13720,6,29,0,29,0,1,,,,,,,,,,,,,,,,,,,,,,,,,,,,,,,,,,,,,,,
,,,,,,,,2023-08-16_08h33.38.276,HF_wild_card,2022.2.4,Win32,60.8383525,60e55bb59cfd0aa9803b4470,64d2fd46c836a06233681665,64dc78e08b20b677772ae9f5,,,,,,,decisionTrl,resources/DBN.BMP,resources/DG.BMP,Door3,0.183333333,-0.013888889,1,0,0,0.8637,optionRight,70,13790,6,30,0,30,0,1,,,,,,,,,,,,,,,,,,,,,,,,,,,,,,,,,,,,,,,
,,,,,,,,2023-08-16_08h33.38.276,HF_wild_card,2022.2.4,Win32,60.8383525,60e55bb59cfd0aa9803b4470,64d2fd46c836a06233681665,64dc78e08b20b677772ae9f5,,,,,,,decisionTrl,resources/DBN.BMP,resources/DG.BMP,Door3,0.171296296,0.005555556,1,0,0,1.78,optionRight,70,13860,6,31,0,31,0,1,,,,,,,,,,,,,,,,,,,,,,,,,,,,,,,,,,,,,,,
,,,,,,,,2023-08-16_08h33.38.276,HF_wild_card,2022.2.4,Win32,60.8383525,60e55bb59cfd0aa9803b4470,64d2fd46c836a06233681665,64dc78e08b20b677772ae9f5,,,,,,,decisionTrl,resources/DP.BMP,resources/DBN.BMP,Door4,0.172222222,-0.009259259,1,0,0,1.9128,optionRight,60,13920,6,32,0,32,0,1,,,,,,,,,,,,,,,,,,,,,,,,,,,,,,,,,,,,,,,
,,,,,,,,2023-08-16_08h33.38.276,HF_wild_card,2022.2.4,Win32,60.8383525,60e55bb59cfd0aa9803b4470,64d2fd46c836a06233681665,64dc78e08b20b677772ae9f5,,,,,,,sngl,resources/Empty.png,resources/DY.BMP,Door1,0.265740741,-0.007407407,1,0,0,0.5814,optionRight,30,13950,6,33,0,33,0,1,,,,,,,,,,,,,,,,,,,,,,,,,,,,,,,,,,,,,,,
,,,,,,,,2023-08-16_08h33.38.276,HF_wild_card,2022.2.4,Win32,60.8383525,60e55bb59cfd0aa9803b4470,64d2fd46c836a06233681665,64dc78e08b20b677772ae9f5,,,,,,,ctch,resources/DB.BMP,resources/DG.BMP,Door3,0.167592593,-0.000925926,1,0,0,0.8471,optionRight,70,14020,6,34,0,34,0,1,,,,,,,,,,,,,,,,,,,,,,,,,,,,,,,,,,,,,,,
,,,,,,,,2023-08-16_08h33.38.276,HF_wild_card,2022.2.4,Win32,60.8383525,60e55bb59cfd0aa9803b4470,64d2fd46c836a06233681665,64dc78e08b20b677772ae9f5,,,,,,,decisionTrl,resources/DBN.BMP,resources/DG.BMP,Door3,0.165740741,-0.006481481,1,0,0,1.4804,optionRight,70,14090,6,35,0,35,0,1,,,,,,,,,,,,,,,,,,,,,,,,,,,,,,,,,,,,,,,
,,,,,,,,2023-08-16_08h33.38.276,HF_wild_card,2022.2.4,Win32,60.8383525,60e55bb59cfd0aa9803b4470,64d2fd46c836a06233681665,64dc78e08b20b677772ae9f5,,,,,,,ctch,resources/DY.BMP,resources/DBN.BMP,Door4,0.182407407,0.009259259,1,0,0,1.1129,optionRight,60,14150,6,36,0,36,0,1,,,,,,,,,,,,,,,,,,,,,,,,,,,,,,,,,,,,,,,
,,,,,,,,2023-08-16_08h33.38.276,HF_wild_card,2022.2.4,Win32,60.8383525,60e55bb59cfd0aa9803b4470,64d2fd46c836a06233681665,64dc78e08b20b677772ae9f5,,,,,,,decisionTrl,resources/DY.BMP,resources/DB.BMP,Door1,-0.063888889,-0.005555556,1,0,0,1.5471,optionLeft,30,14180,6,37,0,37,0,1,,,,,,,,,,,,,,,,,,,,,,,,,,,,,,,,,,,,,,,
,,,,,,,,2023-08-16_08h33.38.276,HF_wild_card,2022.2.4,Win32,60.8383525,60e55bb59cfd0aa9803b4470,64d2fd46c836a06233681665,64dc78e08b20b677772ae9f5,,,,,,,decisionTrl,resources/DY.BMP,resources/DB.BMP,Door1,-0.15462963,-0.010185185,1,0,0,0.7147,optionLeft,30,14210,6,38,0,38,0,1,,,,,,,,,,,,,,,,,,,,,,,,,,,,,,,,,,,,,,,
,,,,,,,,2023-08-16_08h33.38.276,HF_wild_card,2022.2.4,Win32,60.8383525,60e55bb59cfd0aa9803b4470,64d2fd46c836a06233681665,64dc78e08b20b677772ae9f5,,,,,,,ctch,resources/DY.BMP,resources/DBN.BMP,Door4,0.294444444,-0.001851852,1,0,0,1.2974,optionRight,80,14290,6,39,0,39,0,1,,,,,,,,,,,,,,,,,,,,,,,,,,,,,,,,,,,,,,,
,,,,,,,,2023-08-16_08h33.38.276,HF_wild_card,2022.2.4,Win32,60.8383525,60e55bb59cfd0aa9803b4470,64d2fd46c836a06233681665,64dc78e08b20b677772ae9f5,,,,,,,decisionTrl,resources/DB.BMP,resources/DY.BMP,Door1,0.261111111,-0.007407407,1,0,0,1.7624,optionRight,30,14320,6,40,0,40,0,1,,,,,,,,,,,,,,,,,,,,,,,,,,,,,,,,,,,,,,,
,,,,,,,,2023-08-16_08h33.38.276,HF_wild_card,2022.2.4,Win32,60.8383525,60e55bb59cfd0aa9803b4470,64d2fd46c836a06233681665,64dc78e08b20b677772ae9f5,,,,,,,sngl,resources/Empty.png,resources/DG.BMP,Door3,0.2,-0.035185185,1,0,0,0.5634,optionRight,70,14390,6,41,0,41,0,1,,,,,,,,,,,,,,,,,,,,,,,,,,,,,,,,,,,,,,,
,,,,,,,,2023-08-16_08h33.38.276,HF_wild_card,2022.2.4,Win32,60.8383525,60e55bb59cfd0aa9803b4470,64d2fd46c836a06233681665,64dc78e08b20b677772ae9f5,,,,,,,decisionTrl,resources/DB.BMP,resources/DP.BMP,WildCard_Ex,0.198148148,-0.015740741,1,0,0,1.6134,optionRight,95,14485,6,42,0,42,0,1,,,,,,,,,,,,,,,,,,,,,,,,,,,,,,,,,,,,,,,
,,,,,,,,2023-08-16_08h33.38.276,HF_wild_card,2022.2.4,Win32,60.8383525,60e55bb59cfd0aa9803b4470,64d2fd46c836a06233681665,64dc78e08b20b677772ae9f5,,,,,,,decisionTrl,resources/DY.BMP,resources/DP.BMP,WildCard_Ex,0.175925926,-0.02037037,1,0,0,1.0143,optionRight,95,14580,6,43,0,43,0,1,,,,,,,,,,,,,,,,,,,,,,,,,,,,,,,,,,,,,,,
,,,,,,,,2023-08-16_08h33.38.276,HF_wild_card,2022.2.4,Win32,60.8383525,60e55bb59cfd0aa9803b4470,64d2fd46c836a06233681665,64dc78e08b20b677772ae9f5,,,,,,,,,,,,,,,,,,,,,,,,,,5,0,5,0,1,,,,,,,,,,,,,,,,,,,,,,,,,,,,,,,,,,
,,,,,,,,2023-08-16_08h33.38.276,HF_wild_card,2022.2.4,Win32,60.8383525,60e55bb59cfd0aa9803b4470,64d2fd46c836a06233681665,64dc78e08b20b677772ae9f5,,,,,,,ctch,resources/DBN.BMP,resources/DY.BMP,Door4,-0.238888889,0.005555556,1,0,0,0.9736,optionLeft,60,14640,7,0,0,0,0,1,,,,,,,,,,,,,,,,,,,,,,,,,,,,,,,,,,,,,,,
,,,,,,,,2023-08-16_08h33.38.276,HF_wild_card,2022.2.4,Win32,60.8383525,60e55bb59cfd0aa9803b4470,64d2fd46c836a06233681665,64dc78e08b20b677772ae9f5,,,,,,,decisionTrl,resources/DG.BMP,resources/DBN.BMP,Door3,-0.206481481,0.008333333,1,0,0,1.0325,optionLeft,70,14710,7,1,0,1,0,1,,,,,,,,,,,,,,,,,,,,,,,,,,,,,,,,,,,,,,,
,,,,,,,,2023-08-16_08h33.38.276,HF_wild_card,2022.2.4,Win32,60.8383525,60e55bb59cfd0aa9803b4470,64d2fd46c836a06233681665,64dc78e08b20b677772ae9f5,,,,,,,ctch,resources/DB.BMP,resources/DG.BMP,Door3,0.159259259,0.009259259,1,0,0,0.7973,optionRight,70,14780,7,2,0,2,0,1,,,,,,,,,,,,,,,,,,,,,,,,,,,,,,,,,,,,,,,
,,,,,,,,2023-08-16_08h33.38.276,HF_wild_card,2022.2.4,Win32,60.8383525,60e55bb59cfd0aa9803b4470,64d2fd46c836a06233681665,64dc78e08b20b677772ae9f5,,,,,,,decisionTrl,resources/DB.BMP,resources/DY.BMP,Door1,0.212037037,-0.007407407,1,0,0,1.2979,optionRight,30,14810,7,3,0,3,0,1,,,,,,,,,,,,,,,,,,,,,,,,,,,,,,,,,,,,,,,
,,,,,,,,2023-08-16_08h33.38.276,HF_wild_card,2022.2.4,Win32,60.8383525,60e55bb59cfd0aa9803b4470,64d2fd46c836a06233681665,64dc78e08b20b677772ae9f5,,,,,,,ctch,resources/DG.BMP,resources/DB.BMP,Door3,-0.173148148,-0.003703704,1,0,0,0.8989,optionLeft,70,14880,7,4,0,4,0,1,,,,,,,,,,,,,,,,,,,,,,,,,,,,,,,,,,,,,,,
,,,,,,,,2023-08-16_08h33.38.276,HF_wild_card,2022.2.4,Win32,60.8383525,60e55bb59cfd0aa9803b4470,64d2fd46c836a06233681665,64dc78e08b20b677772ae9f5,,,,,,,decisionTrl,resources/DB.BMP,resources/DY.BMP,Door1,0.175,0.009259259,1,0,0,1.2972,optionRight,30,14910,7,5,0,5,0,1,,,,,,,,,,,,,,,,,,,,,,,,,,,,,,,,,,,,,,,
,,,,,,,,2023-08-16_08h33.38.276,HF_wild_card,2022.2.4,Win32,60.8383525,60e55bb59cfd0aa9803b4470,64d2fd46c836a06233681665,64dc78e08b20b677772ae9f5,,,,,,,ctch,resources/DB.BMP,resources/DG.BMP,Door3,0.122222222,0.001851852,1,0,0,0.9475,optionRight,70,14980,7,6,0,6,0,1,,,,,,,,,,,,,,,,,,,,,,,,,,,,,,,,,,,,,,,
,,,,,,,,2023-08-16_08h33.38.276,HF_wild_card,2022.2.4,Win32,60.8383525,60e55bb59cfd0aa9803b4470,64d2fd46c836a06233681665,64dc78e08b20b677772ae9f5,,,,,,,ctch,resources/DG.BMP,resources/DB.BMP,Door3,-0.113888889,-0.007407407,1,0,0,0.9317,optionLeft,70,15050,7,7,0,7,0,1,,,,,,,,,,,,,,,,,,,,,,,,,,,,,,,,,,,,,,,
,,,,,,,,2023-08-16_08h33.38.276,HF_wild_card,2022.2.4,Win32,60.8383525,60e55bb59cfd0aa9803b4470,64d2fd46c836a06233681665,64dc78e08b20b677772ae9f5,,,,,,,ctch,resources/DBN.BMP,resources/DY.BMP,Door4,-0.182407407,-0.003703704,1,0,0,1.0308,optionLeft,80,15130,7,8,0,8,0,1,,,,,,,,,,,,,,,,,,,,,,,,,,,,,,,,,,,,,,,
,,,,,,,,2023-08-16_08h33.38.276,HF_wild_card,2022.2.4,Win32,60.8383525,60e55bb59cfd0aa9803b4470,64d2fd46c836a06233681665,64dc78e08b20b677772ae9f5,,,,,,,decisionTrl,resources/DBN.BMP,resources/DG.BMP,Door3,0.123148148,-0.011111111,1,0,0,1.1149,optionRight,70,15200,7,9,0,9,0,1,,,,,,,,,,,,,,,,,,,,,,,,,,,,,,,,,,,,,,,
,,,,,,,,2023-08-16_08h33.38.276,HF_wild_card,2022.2.4,Win32,60.8383525,60e55bb59cfd0aa9803b4470,64d2fd46c836a06233681665,64dc78e08b20b677772ae9f5,,,,,,,decisionTrl,resources/DB.BMP,resources/DY.BMP,Door1,0.156481481,-0.008333333,1,0,0,1.2476,optionRight,30,15230,7,10,0,10,0,1,,,,,,,,,,,,,,,,,,,,,,,,,,,,,,,,,,,,,,,
,,,,,,,,2023-08-16_08h33.38.276,HF_wild_card,2022.2.4,Win32,60.8383525,60e55bb59cfd0aa9803b4470,64d2fd46c836a06233681665,64dc78e08b20b677772ae9f5,,,,,,,decisionTrl,resources/DG.BMP,resources/DBN.BMP,Door3,-0.130555556,-0.015740741,1,0,0,0.8987,optionLeft,70,15300,7,11,0,11,0,1,,,,,,,,,,,,,,,,,,,,,,,,,,,,,,,,,,,,,,,
,,,,,,,,2023-08-16_08h33.38.276,HF_wild_card,2022.2.4,Win32,60.8383525,60e55bb59cfd0aa9803b4470,64d2fd46c836a06233681665,64dc78e08b20b677772ae9f5,,,,,,,decisionTrl,resources/DY.BMP,resources/DB.BMP,Door1,-0.162962963,-0.011111111,1,0,0,1.0976,optionLeft,30,15330,7,12,0,12,0,1,,,,,,,,,,,,,,,,,,,,,,,,,,,,,,,,,,,,,,,
,,,,,,,,2023-08-16_08h33.38.276,HF_wild_card,2022.2.4,Win32,60.8383525,60e55bb59cfd0aa9803b4470,64d2fd46c836a06233681665,64dc78e08b20b677772ae9f5,,,,,,,decisionTrl,resources/DBN.BMP,resources/DG.BMP,Door3,0.112037037,-0.009259259,1,0,0,0.8482,optionRight,70,15400,7,13,0,13,0,1,,,,,,,,,,,,,,,,,,,,,,,,,,,,,,,,,,,,,,,
,,,,,,,,2023-08-16_08h33.38.276,HF_wild_card,2022.2.4,Win32,60.8383525,60e55bb59cfd0aa9803b4470,64d2fd46c836a06233681665,64dc78e08b20b677772ae9f5,,,,,,,ctch,resources/DY.BMP,resources/DBN.BMP,Door4,0.163888889,-0.010185185,1,0,0,1.0649,optionRight,80,15480,7,14,0,14,0,1,,,,,,,,,,,,,,,,,,,,,,,,,,,,,,,,,,,,,,,
,,,,,,,,2023-08-16_08h33.38.276,HF_wild_card,2022.2.4,Win32,60.8383525,60e55bb59cfd0aa9803b4470,64d2fd46c836a06233681665,64dc78e08b20b677772ae9f5,,,,,,,decisionTrl,resources/DBN.BMP,resources/DG.BMP,Door3,0.125,-0.014814815,1,0,0,1.0314,optionRight,70,15550,7,15,0,15,0,1,,,,,,,,,,,,,,,,,,,,,,,,,,,,,,,,,,,,,,,
,,,,,,,,2023-08-16_08h33.38.276,HF_wild_card,2022.2.4,Win32,60.8383525,60e55bb59cfd0aa9803b4470,64d2fd46c836a06233681665,64dc78e08b20b677772ae9f5,,,,,,,ctch,resources/DB.BMP,resources/DG.BMP,Door3,0.123148148,-0.016666667,1,0,0,1.2147,optionRight,70,15620,7,16,0,16,0,1,,,,,,,,,,,,,,,,,,,,,,,,,,,,,,,,,,,,,,,
,,,,,,,,2023-08-16_08h33.38.276,HF_wild_card,2022.2.4,Win32,60.8383525,60e55bb59cfd0aa9803b4470,64d2fd46c836a06233681665,64dc78e08b20b677772ae9f5,,,,,,,decisionTrl,resources/DY.BMP,resources/DB.BMP,Door1,-0.149074074,-0.02037037,1,0,0,1.1482,optionLeft,30,15650,7,17,0,17,0,1,,,,,,,,,,,,,,,,,,,,,,,,,,,,,,,,,,,,,,,
,,,,,,,,2023-08-16_08h33.38.276,HF_wild_card,2022.2.4,Win32,60.8383525,60e55bb59cfd0aa9803b4470,64d2fd46c836a06233681665,64dc78e08b20b677772ae9f5,,,,,,,decisionTrl,resources/DG.BMP,resources/DBN.BMP,Door3,-0.162962963,-0.012037037,1,0,0,0.8642,optionLeft,70,15720,7,18,0,18,0,1,,,,,,,,,,,,,,,,,,,,,,,,,,,,,,,,,,,,,,,
,,,,,,,,2023-08-16_08h33.38.276,HF_wild_card,2022.2.4,Win32,60.8383525,60e55bb59cfd0aa9803b4470,64d2fd46c836a06233681665,64dc78e08b20b677772ae9f5,,,,,,,decisionTrl,resources/DBN.BMP,resources/DG.BMP,Door3,0.187037037,-0.005555556,1,0,0,0.781,optionRight,70,15790,7,19,0,19,0,1,,,,,,,,,,,,,,,,,,,,,,,,,,,,,,,,,,,,,,,
,,,,,,,,2023-08-16_08h33.38.276,HF_wild_card,2022.2.4,Win32,60.8383525,60e55bb59cfd0aa9803b4470,64d2fd46c836a06233681665,64dc78e08b20b677772ae9f5,,,,,,,ctch,resources/DG.BMP,resources/DB.BMP,Door3,-0.134259259,-0.02962963,1,0,0,0.8302,optionLeft,70,15860,7,20,0,20,0,1,,,,,,,,,,,,,,,,,,,,,,,,,,,,,,,,,,,,,,,
,,,,,,,,2023-08-16_08h33.38.276,HF_wild_card,2022.2.4,Win32,60.8383525,60e55bb59cfd0aa9803b4470,64d2fd46c836a06233681665,64dc78e08b20b677772ae9f5,,,,,,,decisionTrl,resources/DY.BMP,resources/DB.BMP,Door1,-0.139814815,-0.022222222,1,0,0,1.2478,optionLeft,30,15890,7,21,0,21,0,1,,,,,,,,,,,,,,,,,,,,,,,,,,,,,,,,,,,,,,,
,,,,,,,,2023-08-16_08h33.38.276,HF_wild_card,2022.2.4,Win32,60.8383525,60e55bb59cfd0aa9803b4470,64d2fd46c836a06233681665,64dc78e08b20b677772ae9f5,,,,,,,ctch,resources/DY.BMP,resources/DBN.BMP,Door4,0.325,-0.010185185,1,0,0,1.1479,optionRight,60,15950,7,22,0,22,0,1,,,,,,,,,,,,,,,,,,,,,,,,,,,,,,,,,,,,,,,
,,,,,,,,2023-08-16_08h33.38.276,HF_wild_card,2022.2.4,Win32,60.8383525,60e55bb59cfd0aa9803b4470,64d2fd46c836a06233681665,64dc78e08b20b677772ae9f5,,,,,,,decisionTrl,resources/DB.BMP,resources/DY.BMP,Door1,0.280555556,-0.009259259,1,0,0,1.4639,optionRight,30,15980,7,23,0,23,0,1,,,,,,,,,,,,,,,,,,,,,,,,,,,,,,,,,,,,,,,
,,,,,,,,2023-08-16_08h33.38.276,HF_wild_card,2022.2.4,Win32,60.8383525,60e55bb59cfd0aa9803b4470,64d2fd46c836a06233681665,64dc78e08b20b677772ae9f5,,,,,,,decisionTrl,resources/DBN.BMP,resources/DG.BMP,Door3,0.161111111,-0.025,1,0,0,0.8324,optionRight,70,16050,7,24,0,24,0,1,,,,,,,,,,,,,,,,,,,,,,,,,,,,,,,,,,,,,,,
,,,,,,,,2023-08-16_08h33.38.276,HF_wild_card,2022.2.4,Win32,60.8383525,60e55bb59cfd0aa9803b4470,64d2fd46c836a06233681665,64dc78e08b20b677772ae9f5,,,,,,,decisionTrl,resources/DY.BMP,resources/DB.BMP,Door1,-0.183333333,-0.021296296,1,0,0,0.9986,optionLeft,30,16080,7,25,0,25,0,1,,,,,,,,,,,,,,,,,,,,,,,,,,,,,,,,,,,,,,,
,,,,,,,,2023-08-16_08h33.38.276,HF_wild_card,2022.2.4,Win32,60.8383525,60e55bb59cfd0aa9803b4470,64d2fd46c836a06233681665,64dc78e08b20b677772ae9f5,,,,,,,ctch,resources/DBN.BMP,resources/DY.BMP,Door4,-0.136111111,-0.02962963,1,0,0,1.3314,optionLeft,60,16140,7,26,0,26,0,1,,,,,,,,,,,,,,,,,,,,,,,,,,,,,,,,,,,,,,,
,,,,,,,,2023-08-16_08h33.38.276,HF_wild_card,2022.2.4,Win32,60.8383525,60e55bb59cfd0aa9803b4470,64d2fd46c836a06233681665,64dc78e08b20b677772ae9f5,,,,,,,decisionTrl,resources/DY.BMP,resources/DB.BMP,Door1,-0.155555556,-0.034259259,1,0,0,1.0316,optionLeft,30,16170,7,27,0,27,0,1,,,,,,,,,,,,,,,,,,,,,,,,,,,,,,,,,,,,,,,
,,,,,,,,2023-08-16_08h33.38.276,HF_wild_card,2022.2.4,Win32,60.8383525,60e55bb59cfd0aa9803b4470,64d2fd46c836a06233681665,64dc78e08b20b677772ae9f5,,,,,,,decisionTrl,resources/DG.BMP,resources/DBN.BMP,Door3,-0.159259259,-0.030555556,1,0,0,0.7817,optionLeft,70,16240,7,28,0,28,0,1,,,,,,,,,,,,,,,,,,,,,,,,,,,,,,,,,,,,,,,
,,,,,,,,2023-08-16_08h33.38.276,HF_wild_card,2022.2.4,Win32,60.8383525,60e55bb59cfd0aa9803b4470,64d2fd46c836a06233681665,64dc78e08b20b677772ae9f5,,,,,,,decisionTrl,resources/DB.BMP,resources/DY.BMP,Door1,0.15,-0.025925926,1,0,0,0.8652,optionRight,30,16270,7,29,0,29,0,1,,,,,,,,,,,,,,,,,,,,,,,,,,,,,,,,,,,,,,,
,,,,,,,,2023-08-16_08h33.38.276,HF_wild_card,2022.2.4,Win32,60.8383525,60e55bb59cfd0aa9803b4470,64d2fd46c836a06233681665,64dc78e08b20b677772ae9f5,,,,,,,decisionTrl,resources/DBN.BMP,resources/DG.BMP,Door3,0.244444444,-0.033333333,1,0,0,0.7977,optionRight,70,16340,7,30,0,30,0,1,,,,,,,,,,,,,,,,,,,,,,,,,,,,,,,,,,,,,,,
,,,,,,,,2023-08-16_08h33.38.276,HF_wild_card,2022.2.4,Win32,60.8383525,60e55bb59cfd0aa9803b4470,64d2fd46c836a06233681665,64dc78e08b20b677772ae9f5,,,,,,,decisionTrl,resources/DG.BMP,resources/DBN.BMP,Door3,-0.134259259,-0.037037037,1,0,0,0.9321,optionLeft,70,16410,7,31,0,31,0,1,,,,,,,,,,,,,,,,,,,,,,,,,,,,,,,,,,,,,,,
,,,,,,,,2023-08-16_08h33.38.276,HF_wild_card,2022.2.4,Win32,60.8383525,60e55bb59cfd0aa9803b4470,64d2fd46c836a06233681665,64dc78e08b20b677772ae9f5,,,,,,,decisionTrl,resources/DY.BMP,resources/DB.BMP,Door1,-0.140740741,-0.032407407,1,0,0,1.0484,optionLeft,30,16440,7,32,0,32,0,1,,,,,,,,,,,,,,,,,,,,,,,,,,,,,,,,,,,,,,,
,,,,,,,,2023-08-16_08h33.38.276,HF_wild_card,2022.2.4,Win32,60.8383525,60e55bb59cfd0aa9803b4470,64d2fd46c836a06233681665,64dc78e08b20b677772ae9f5,,,,,,,decisionTrl,resources/DB.BMP,resources/DY.BMP,Door1,0.2,-0.018518519,1,0,0,0.8983,optionRight,30,16470,7,33,0,33,0,1,,,,,,,,,,,,,,,,,,,,,,,,,,,,,,,,,,,,,,,
,,,,,,,,2023-08-16_08h33.38.276,HF_wild_card,2022.2.4,Win32,60.8383525,60e55bb59cfd0aa9803b4470,64d2fd46c836a06233681665,64dc78e08b20b677772ae9f5,,,,,,,ctch,resources/DY.BMP,resources/DBN.BMP,Door4,0.230555556,-0.022222222,1,0,0,1.1322,optionRight,80,16550,7,34,0,34,0,1,,,,,,,,,,,,,,,,,,,,,,,,,,,,,,,,,,,,,,,
,,,,,,,,2023-08-16_08h33.38.276,HF_wild_card,2022.2.4,Win32,60.8383525,60e55bb59cfd0aa9803b4470,64d2fd46c836a06233681665,64dc78e08b20b677772ae9f5,,,,,,,decisionTrl,resources/DG.BMP,resources/DBN.BMP,Door3,-0.151851852,-0.050925926,1,0,0,0.7985,optionLeft,70,16620,7,35,0,35,0,1,,,,,,,,,,,,,,,,,,,,,,,,,,,,,,,,,,,,,,,
,,,,,,,,2023-08-16_08h33.38.276,HF_wild_card,2022.2.4,Win32,60.8383525,60e55bb59cfd0aa9803b4470,64d2fd46c836a06233681665,64dc78e08b20b677772ae9f5,,,,,,,,,,,,,,,,,,,,,,,,,,6,0,6,0,1,,,,,,,,,,,,,,,,,,,,,,,,,,,,,,,,,,
,,,,,,,,2023-08-16_08h33.38.276,HF_wild_card,2022.2.4,Win32,60.8383525,60e55bb59cfd0aa9803b4470,64d2fd46c836a06233681665,64dc78e08b20b677772ae9f5,,,,,,,,,,,,,,,,,,,,,,,,,,,,,,,4,,,,,,,,,,,,,,,,,,,,,,,,,,,,,,,,,
,,,,,,,,2023-08-16_08h33.38.276,HF_wild_card,2022.2.4,Win32,60.8383525,60e55bb59cfd0aa9803b4470,64d2fd46c836a06233681665,64dc78e08b20b677772ae9f5,,,,,,,,,,,,,,,,,,,,,,,,,,,,,,,,,,,,,,,,,,,,,,,,,,,,,,,,,,,,,,,,
,,,,,,,,2023-08-16_08h33.38.276,HF_wild_card,2022.2.4,Win32,60.8383525,60e55bb59cfd0aa9803b4470,64d2fd46c836a06233681665,64dc78e08b20b677772ae9f5,,,,,,,,,,,,,,,,,,,,,,,,,,,,,,,,60,Door4,resources/DBN.BMP,0,0,0,0,1,,,,,,,,,,,,,,,,,,,,,,,,,
,,,,,,,,2023-08-16_08h33.38.276,HF_wild_card,2022.2.4,Win32,60.8383525,60e55bb59cfd0aa9803b4470,64d2fd46c836a06233681665,64dc78e08b20b677772ae9f5,,,,,,,,,,,,,,,,,,,,,,,,,,,,,,,,30,Door1,resources/DY.BMP,1,0,1,0,1,,,,,,,,,,,,,,,,,,,,,,,,,
,,,,,,,,2023-08-16_08h33.38.276,HF_wild_card,2022.2.4,Win32,60.8383525,60e55bb59cfd0aa9803b4470,64d2fd46c836a06233681665,64dc78e08b20b677772ae9f5,,,,,,,,,,,,,,,,,,,,,,,,,,,,,,,,45,WC_nonExtreme,resources/DR.BMP,2,0,2,0,1,,,,,,,,,,,,,,,,,,,,,,,,,
,,,,,,,,2023-08-16_08h33.38.276,HF_wild_card,2022.2.4,Win32,60.8383525,60e55bb59cfd0aa9803b4470,64d2fd46c836a06233681665,64dc78e08b20b677772ae9f5,,,,,,,,,,,,,,,,,,,,,,,,,,,,,,,,95,WC_extreme,resources/DP.BMP,3,0,3,0,1,,,,,,,,,,,,,,,,,,,,,,,,,
,,,,,,,,2023-08-16_08h33.38.276,HF_wild_card,2022.2.4,Win32,60.8383525,60e55bb59cfd0aa9803b4470,64d2fd46c836a06233681665,64dc78e08b20b677772ae9f5,,,,,,,,,,,,,,,,,,,,,,,,,,,,,,,,20,Door2,resources/DB.BMP,4,0,4,0,1,,,,,,,,,,,,,,,,,,,,,,,,,
,,,,,,,,2023-08-16_08h33.38.276,HF_wild_card,2022.2.4,Win32,60.8383525,60e55bb59cfd0aa9803b4470,64d2fd46c836a06233681665,64dc78e08b20b677772ae9f5,,,,,,,,,,,,,,,,,,,,,,,,,,,,,,,,70,Door3,resources/DG.BMP,5,0,5,0,1,,,,,,,,,,,,,,,,,,,,,,,,,
,,,,,,,,2023-08-16_08h33.38.276,HF_wild_card,2022.2.4,Win32,60.8383525,60e55bb59cfd0aa9803b4470,64d2fd46c836a06233681665,64dc78e08b20b677772ae9f5,,,,,,,,,,,,,,,,,,,,,,,,,,,,,,,,,,,,,,,,,,,,,,,,,,,,,,,,,,,,,,,,
,,,,,,,,2023-08-16_08h33.38.276,HF_wild_card,2022.2.4,Win32,60.8383525,60e55bb59cfd0aa9803b4470,64d2fd46c836a06233681665,64dc78e08b20b677772ae9f5,,,,,,,,,,,,,,,,,,,,,,,,,,,,,,,,,,,,,,,,0,0,0,0,1,,,,,,,,,,,,,,,,,,,,
,,,,,,,,2023-08-16_08h33.38.276,HF_wild_card,2022.2.4,Win32,60.8383525,60e55bb59cfd0aa9803b4470,64d2fd46c836a06233681665,64dc78e08b20b677772ae9f5,,,,,,,,,,,,,,,,,,,,,,,,,,,,,,,,,,,,,,,,1,0,1,0,1,,,,,,,,,,,,,,,,,,,,
