Condition,Low fixed image (Door1),Low risky image (Door2),High fixed image (Door3),High risky image (Door4),Extreme Wild Card,NonExtreme Wild Card,,date,expName,psychopyVersion,OS,frameRate,PROLIFIC_PID,STUDY_ID,SESSION_ID,mouse_2.x,mouse_2.y,mouse_2.leftButton,mouse_2.midButton,mouse_2.rightButton,mouse_2.clicked_name,Trial Type,Left Option Image,Right Option Image,Chosen Door,mouse.x,mouse.y,mouse.leftButton,mouse.midButton,mouse.rightButton,mouse.time,mouse.clicked_name,Feedback,Cumulative Reward,Block,trial.thisRepN,trial.thisTrialN,trial.thisN,trial.thisIndex,trial.ran,blocks.thisRepN,blocks.thisTrialN,blocks.thisN,blocks.thisIndex,blocks.ran,Money conversion,First Outcome Reported,Shown Door (First Outcome),Displayed Image (First Outcome),outcomes.thisRepN,outcomes.thisTrialN,outcomes.thisN,outcomes.thisIndex,outcomes.ran,judgments.thisRepN,judgments.thisTrialN,judgments.thisN,judgments.thisIndex,judgments.ran,freqMouse.x,freqMouse.y,freqMouse.leftButton,freqMouse.midButton,freqMouse.rightButton,freqMouse.clicked_name,FQJ for first outcome,FQJ for second outcome,Shown Door,Displayed Image,trials.thisRepN,trials.thisTrialN,trials.thisN,trials.thisIndex,trials.ran,judgBlock.thisRepN,judgBlock.thisTrialN,judgBlock.thisN,judgBlock.thisIndex,judgBlock.ran
1,resources/DR.BMP,resources/DP.BMP,resources/DY.BMP,resources/DBN.BMP,resources/DG.BMP,resources/DB.BMP,,2023-08-06_08h21.03.074,HF_wild_card,2022.2.4,Win32,60.20469597,5dccf99db9d9049777368b3b,64ce5acb97489d65b14ecc7a,64cf49cf8ec1c8c7684fce6b,,,,,,,,,,,,,,,,,,,,,,,,,,,,,,,,,,,,,,,,,,,,,,,,,,,,,,,,,,,,,,,,
,,,,,,,,2023-08-06_08h21.03.074,HF_wild_card,2022.2.4,Win32,60.20469597,5dccf99db9d9049777368b3b,64ce5acb97489d65b14ecc7a,64cf49cf8ec1c8c7684fce6b,-0.014861069,-0.421111145,1,0,0,agree,,,,,,,,,,,,,,,,,,,,,,,,,,,,,,,,,,,,,,,,,,,,,,,,,,,,,,,,,,
,,,,,,,,2023-08-06_08h21.03.074,HF_wild_card,2022.2.4,Win32,60.20469597,5dccf99db9d9049777368b3b,64ce5acb97489d65b14ecc7a,64cf49cf8ec1c8c7684fce6b,,,,,,,,,,,,,,,,,,,,,,,,,,,,,,,,,,,,,,,,,,,,,,,,,,,,,,,,,,,,,,,,
,,,,,,,,2023-08-06_08h21.03.074,HF_wild_card,2022.2.4,Win32,60.20469597,5dccf99db9d9049777368b3b,64ce5acb97489d65b14ecc7a,64cf49cf8ec1c8c7684fce6b,,,,,,,decisionTrl,resources/DY.BMP,resources/DB.BMP,Door3,-0.259305534,-0.206666641,1,0,0,2.3516,optionLeft,70,70,1,0,0,0,0,1,,,,,,,,,,,,,,,,,,,,,,,,,,,,,,,,,,,,,,,
,,,,,,,,2023-08-06_08h21.03.074,HF_wild_card,2022.2.4,Win32,60.20469597,5dccf99db9d9049777368b3b,64ce5acb97489d65b14ecc7a,64cf49cf8ec1c8c7684fce6b,,,,,,,decisionTrl,resources/DY.BMP,resources/DBN.BMP,Door4,0.285694427,0.061111107,1,0,0,1.7799,optionRight,80,150,1,1,0,1,0,1,,,,,,,,,,,,,,,,,,,,,,,,,,,,,,,,,,,,,,,
,,,,,,,,2023-08-06_08h21.03.074,HF_wild_card,2022.2.4,Win32,60.20469597,5dccf99db9d9049777368b3b,64ce5acb97489d65b14ecc7a,64cf49cf8ec1c8c7684fce6b,,,,,,,sngl,resources/DBN.BMP,resources/Empty.png,Door4,-0.24875,-0.069444466,1,0,0,1.5299,optionLeft,80,230,1,2,0,2,0,1,,,,,,,,,,,,,,,,,,,,,,,,,,,,,,,,,,,,,,,
,,,,,,,,2023-08-06_08h21.03.074,HF_wild_card,2022.2.4,Win32,60.20469597,5dccf99db9d9049777368b3b,64ce5acb97489d65b14ecc7a,64cf49cf8ec1c8c7684fce6b,,,,,,,sngl,resources/Empty.png,resources/DP.BMP,Door2,0.380694427,-0.063333321,1,0,0,1.7446,optionRight,20,250,1,3,0,3,0,1,,,,,,,,,,,,,,,,,,,,,,,,,,,,,,,,,,,,,,,
,,,,,,,,2023-08-06_08h21.03.074,HF_wild_card,2022.2.4,Win32,60.20469597,5dccf99db9d9049777368b3b,64ce5acb97489d65b14ecc7a,64cf49cf8ec1c8c7684fce6b,,,,,,,decisionTrl,resources/DBN.BMP,resources/DY.BMP,Door3,0.365694427,-0.085555573,1,0,0,1.1536,optionRight,70,320,1,4,0,4,0,1,,,,,,,,,,,,,,,,,,,,,,,,,,,,,,,,,,,,,,,
,,,,,,,,2023-08-06_08h21.03.074,HF_wild_card,2022.2.4,Win32,60.20469597,5dccf99db9d9049777368b3b,64ce5acb97489d65b14ecc7a,64cf49cf8ec1c8c7684fce6b,,,,,,,decisionTrl,resources/DY.BMP,resources/DBN.BMP,Door4,0.380694427,0.003333321,1,0,0,1.4032,optionRight,60,380,1,5,0,5,0,1,,,,,,,,,,,,,,,,,,,,,,,,,,,,,,,,,,,,,,,
,,,,,,,,2023-08-06_08h21.03.074,HF_wild_card,2022.2.4,Win32,60.20469597,5dccf99db9d9049777368b3b,64ce5acb97489d65b14ecc7a,64cf49cf8ec1c8c7684fce6b,,,,,,,decisionTrl,resources/DBN.BMP,resources/DY.BMP,Door4,-0.236527786,-0.088888893,1,0,0,1.5475,optionLeft,60,440,1,6,0,6,0,1,,,,,,,,,,,,,,,,,,,,,,,,,,,,,,,,,,,,,,,
,,,,,,,,2023-08-06_08h21.03.074,HF_wild_card,2022.2.4,Win32,60.20469597,5dccf99db9d9049777368b3b,64ce5acb97489d65b14ecc7a,64cf49cf8ec1c8c7684fce6b,,,,,,,decisionTrl,resources/DBN.BMP,resources/DY.BMP,Door3,0.324027786,-0.02,1,0,0,1.2433,optionRight,70,510,1,7,0,7,0,1,,,,,,,,,,,,,,,,,,,,,,,,,,,,,,,,,,,,,,,
,,,,,,,,2023-08-06_08h21.03.074,HF_wild_card,2022.2.4,Win32,60.20469597,5dccf99db9d9049777368b3b,64ce5acb97489d65b14ecc7a,64cf49cf8ec1c8c7684fce6b,,,,,,,decisionTrl,resources/DB.BMP,resources/DY.BMP,Door3,0.338472214,0,1,0,0,1.1642,optionRight,70,580,1,8,0,8,0,1,,,,,,,,,,,,,,,,,,,,,,,,,,,,,,,,,,,,,,,
,,,,,,,,2023-08-06_08h21.03.074,HF_wild_card,2022.2.4,Win32,60.20469597,5dccf99db9d9049777368b3b,64ce5acb97489d65b14ecc7a,64cf49cf8ec1c8c7684fce6b,,,,,,,ctch,resources/DR.BMP,resources/DBN.BMP,Door4,0.33625,0.004444389,1,0,0,1.0532,optionRight,60,640,1,9,0,9,0,1,,,,,,,,,,,,,,,,,,,,,,,,,,,,,,,,,,,,,,,
,,,,,,,,2023-08-06_08h21.03.074,HF_wild_card,2022.2.4,Win32,60.20469597,5dccf99db9d9049777368b3b,64ce5acb97489d65b14ecc7a,64cf49cf8ec1c8c7684fce6b,,,,,,,ctch,resources/DR.BMP,resources/DBN.BMP,Door1,-0.259861107,-0.059444466,1,0,0,0.8031,optionLeft,30,670,1,10,0,10,0,1,,,,,,,,,,,,,,,,,,,,,,,,,,,,,,,,,,,,,,,
,,,,,,,,2023-08-06_08h21.03.074,HF_wild_card,2022.2.4,Win32,60.20469597,5dccf99db9d9049777368b3b,64ce5acb97489d65b14ecc7a,64cf49cf8ec1c8c7684fce6b,,,,,,,sngl,resources/DP.BMP,resources/Empty.png,Door2,-0.242638855,-0.112777786,1,0,0,0.9027,optionLeft,40,710,1,11,0,11,0,1,,,,,,,,,,,,,,,,,,,,,,,,,,,,,,,,,,,,,,,
,,,,,,,,2023-08-06_08h21.03.074,HF_wild_card,2022.2.4,Win32,60.20469597,5dccf99db9d9049777368b3b,64ce5acb97489d65b14ecc7a,64cf49cf8ec1c8c7684fce6b,,,,,,,decisionTrl,resources/DP.BMP,resources/DR.BMP,Door1,0.365694427,0.001666641,1,0,0,1.6365,optionRight,30,740,1,12,0,12,0,1,,,,,,,,,,,,,,,,,,,,,,,,,,,,,,,,,,,,,,,
,,,,,,,,2023-08-06_08h21.03.074,HF_wild_card,2022.2.4,Win32,60.20469597,5dccf99db9d9049777368b3b,64ce5acb97489d65b14ecc7a,64cf49cf8ec1c8c7684fce6b,,,,,,,decisionTrl,resources/DP.BMP,resources/DR.BMP,Door2,-0.20375,-0.040000038,1,0,0,0.8604,optionLeft,40,780,1,13,0,13,0,1,,,,,,,,,,,,,,,,,,,,,,,,,,,,,,,,,,,,,,,
,,,,,,,,2023-08-06_08h21.03.074,HF_wild_card,2022.2.4,Win32,60.20469597,5dccf99db9d9049777368b3b,64ce5acb97489d65b14ecc7a,64cf49cf8ec1c8c7684fce6b,,,,,,,decisionTrl,resources/DR.BMP,resources/DB.BMP,WildCard_NonEx,0.399027863,-0.033888893,1,0,0,1.9937,optionRight,45,825,1,14,0,14,0,1,,,,,,,,,,,,,,,,,,,,,,,,,,,,,,,,,,,,,,,
,,,,,,,,2023-08-06_08h21.03.074,HF_wild_card,2022.2.4,Win32,60.20469597,5dccf99db9d9049777368b3b,64ce5acb97489d65b14ecc7a,64cf49cf8ec1c8c7684fce6b,,,,,,,sngl,resources/DR.BMP,resources/Empty.png,Door1,-0.275972214,-0.082222214,1,0,0,0.7465,optionLeft,30,855,1,15,0,15,0,1,,,,,,,,,,,,,,,,,,,,,,,,,,,,,,,,,,,,,,,
,,,,,,,,2023-08-06_08h21.03.074,HF_wild_card,2022.2.4,Win32,60.20469597,5dccf99db9d9049777368b3b,64ce5acb97489d65b14ecc7a,64cf49cf8ec1c8c7684fce6b,,,,,,,decisionTrl,resources/DP.BMP,resources/DB.BMP,Door2,-0.277638893,-0.060555573,1,0,0,2.0242,optionLeft,40,895,1,16,0,16,0,1,,,,,,,,,,,,,,,,,,,,,,,,,,,,,,,,,,,,,,,
,,,,,,,,2023-08-06_08h21.03.074,HF_wild_card,2022.2.4,Win32,60.20469597,5dccf99db9d9049777368b3b,64ce5acb97489d65b14ecc7a,64cf49cf8ec1c8c7684fce6b,,,,,,,decisionTrl,resources/DP.BMP,resources/DR.BMP,Door2,-0.23875,-0.071666679,1,0,0,1.1359,optionLeft,40,935,1,17,0,17,0,1,,,,,,,,,,,,,,,,,,,,,,,,,,,,,,,,,,,,,,,
,,,,,,,,2023-08-06_08h21.03.074,HF_wild_card,2022.2.4,Win32,60.20469597,5dccf99db9d9049777368b3b,64ce5acb97489d65b14ecc7a,64cf49cf8ec1c8c7684fce6b,,,,,,,decisionTrl,resources/DP.BMP,resources/DR.BMP,Door2,-0.234861069,-0.036666679,1,0,0,0.8108,optionLeft,20,955,1,18,0,18,0,1,,,,,,,,,,,,,,,,,,,,,,,,,,,,,,,,,,,,,,,
,,,,,,,,2023-08-06_08h21.03.074,HF_wild_card,2022.2.4,Win32,60.20469597,5dccf99db9d9049777368b3b,64ce5acb97489d65b14ecc7a,64cf49cf8ec1c8c7684fce6b,,,,,,,decisionTrl,resources/DBN.BMP,resources/DY.BMP,Door3,0.39847229,-0.041111107,1,0,0,0.7535,optionRight,70,1025,1,19,0,19,0,1,,,,,,,,,,,,,,,,,,,,,,,,,,,,,,,,,,,,,,,
,,,,,,,,2023-08-06_08h21.03.074,HF_wild_card,2022.2.4,Win32,60.20469597,5dccf99db9d9049777368b3b,64ce5acb97489d65b14ecc7a,64cf49cf8ec1c8c7684fce6b,,,,,,,ctch,resources/DY.BMP,resources/DP.BMP,Door3,-0.295416679,-0.073888893,1,0,0,0.9935,optionLeft,70,1095,1,20,0,20,0,1,,,,,,,,,,,,,,,,,,,,,,,,,,,,,,,,,,,,,,,
,,,,,,,,2023-08-06_08h21.03.074,HF_wild_card,2022.2.4,Win32,60.20469597,5dccf99db9d9049777368b3b,64ce5acb97489d65b14ecc7a,64cf49cf8ec1c8c7684fce6b,,,,,,,ctch,resources/DBN.BMP,resources/DR.BMP,Door4,-0.252638893,-0.024444466,1,0,0,1.5309,optionLeft,60,1155,1,21,0,21,0,1,,,,,,,,,,,,,,,,,,,,,,,,,,,,,,,,,,,,,,,
,,,,,,,,2023-08-06_08h21.03.074,HF_wild_card,2022.2.4,Win32,60.20469597,5dccf99db9d9049777368b3b,64ce5acb97489d65b14ecc7a,64cf49cf8ec1c8c7684fce6b,,,,,,,decisionTrl,resources/DBN.BMP,resources/DB.BMP,Door4,-0.270416679,-0.001666679,1,0,0,0.9313,optionLeft,80,1235,1,22,0,22,0,1,,,,,,,,,,,,,,,,,,,,,,,,,,,,,,,,,,,,,,,
,,,,,,,,2023-08-06_08h21.03.074,HF_wild_card,2022.2.4,Win32,60.20469597,5dccf99db9d9049777368b3b,64ce5acb97489d65b14ecc7a,64cf49cf8ec1c8c7684fce6b,,,,,,,decisionTrl,resources/DR.BMP,resources/DP.BMP,Door2,0.37625,-0.022777786,1,0,0,1.7562,optionRight,40,1275,1,23,0,23,0,1,,,,,,,,,,,,,,,,,,,,,,,,,,,,,,,,,,,,,,,
,,,,,,,,2023-08-06_08h21.03.074,HF_wild_card,2022.2.4,Win32,60.20469597,5dccf99db9d9049777368b3b,64ce5acb97489d65b14ecc7a,64cf49cf8ec1c8c7684fce6b,,,,,,,decisionTrl,resources/DB.BMP,resources/DBN.BMP,Door4,0.339583359,-0.002222214,1,0,0,1.5159,optionRight,60,1335,1,24,0,24,0,1,,,,,,,,,,,,,,,,,,,,,,,,,,,,,,,,,,,,,,,
,,,,,,,,2023-08-06_08h21.03.074,HF_wild_card,2022.2.4,Win32,60.20469597,5dccf99db9d9049777368b3b,64ce5acb97489d65b14ecc7a,64cf49cf8ec1c8c7684fce6b,,,,,,,ctch,resources/DY.BMP,resources/DP.BMP,Door3,-0.290972214,-0.064444466,1,0,0,0.9158,optionLeft,70,1405,1,25,0,25,0,1,,,,,,,,,,,,,,,,,,,,,,,,,,,,,,,,,,,,,,,
,,,,,,,,2023-08-06_08h21.03.074,HF_wild_card,2022.2.4,Win32,60.20469597,5dccf99db9d9049777368b3b,64ce5acb97489d65b14ecc7a,64cf49cf8ec1c8c7684fce6b,,,,,,,decisionTrl,resources/DB.BMP,resources/DR.BMP,WildCard_NonEx,-0.248194427,-0.035,1,0,0,3.2375,optionLeft,45,1450,1,26,0,26,0,1,,,,,,,,,,,,,,,,,,,,,,,,,,,,,,,,,,,,,,,
,,,,,,,,2023-08-06_08h21.03.074,HF_wild_card,2022.2.4,Win32,60.20469597,5dccf99db9d9049777368b3b,64ce5acb97489d65b14ecc7a,64cf49cf8ec1c8c7684fce6b,,,,,,,decisionTrl,resources/DR.BMP,resources/DP.BMP,Door2,0.342916641,-0.038333321,1,0,0,1.5118,optionRight,20,1470,1,27,0,27,0,1,,,,,,,,,,,,,,,,,,,,,,,,,,,,,,,,,,,,,,,
,,,,,,,,2023-08-06_08h21.03.074,HF_wild_card,2022.2.4,Win32,60.20469597,5dccf99db9d9049777368b3b,64ce5acb97489d65b14ecc7a,64cf49cf8ec1c8c7684fce6b,,,,,,,sngl,resources/Empty.png,resources/DR.BMP,Door1,0.377361145,-0.040000038,1,0,0,0.7445,optionRight,30,1500,1,28,0,28,0,1,,,,,,,,,,,,,,,,,,,,,,,,,,,,,,,,,,,,,,,
,,,,,,,,2023-08-06_08h21.03.074,HF_wild_card,2022.2.4,Win32,60.20469597,5dccf99db9d9049777368b3b,64ce5acb97489d65b14ecc7a,64cf49cf8ec1c8c7684fce6b,,,,,,,decisionTrl,resources/DY.BMP,resources/DBN.BMP,Door3,-0.239861069,-0.088333321,1,0,0,0.9142,optionLeft,70,1570,1,29,0,29,0,1,,,,,,,,,,,,,,,,,,,,,,,,,,,,,,,,,,,,,,,
,,,,,,,,2023-08-06_08h21.03.074,HF_wild_card,2022.2.4,Win32,60.20469597,5dccf99db9d9049777368b3b,64ce5acb97489d65b14ecc7a,64cf49cf8ec1c8c7684fce6b,,,,,,,sngl,resources/Empty.png,resources/DY.BMP,Door3,0.397361145,-0.034444466,1,0,0,0.6606,optionRight,70,1640,1,30,0,30,0,1,,,,,,,,,,,,,,,,,,,,,,,,,,,,,,,,,,,,,,,
,,,,,,,,2023-08-06_08h21.03.074,HF_wild_card,2022.2.4,Win32,60.20469597,5dccf99db9d9049777368b3b,64ce5acb97489d65b14ecc7a,64cf49cf8ec1c8c7684fce6b,,,,,,,decisionTrl,resources/DR.BMP,resources/DP.BMP,Door1,-0.315416679,-0.117777786,1,0,0,1.304,optionLeft,30,1670,1,31,0,31,0,1,,,,,,,,,,,,,,,,,,,,,,,,,,,,,,,,,,,,,,,
,,,,,,,,2023-08-06_08h21.03.074,HF_wild_card,2022.2.4,Win32,60.20469597,5dccf99db9d9049777368b3b,64ce5acb97489d65b14ecc7a,64cf49cf8ec1c8c7684fce6b,,,,,,,ctch,resources/DP.BMP,resources/DY.BMP,Door3,0.409583282,-0.045555611,1,0,0,0.9535,optionRight,70,1740,1,32,0,32,0,1,,,,,,,,,,,,,,,,,,,,,,,,,,,,,,,,,,,,,,,
,,,,,,,,2023-08-06_08h21.03.074,HF_wild_card,2022.2.4,Win32,60.20469597,5dccf99db9d9049777368b3b,64ce5acb97489d65b14ecc7a,64cf49cf8ec1c8c7684fce6b,,,,,,,ctch,resources/DP.BMP,resources/DY.BMP,Door3,0.406805573,-0.033333321,1,0,0,0.732,optionRight,70,1810,1,33,0,33,0,1,,,,,,,,,,,,,,,,,,,,,,,,,,,,,,,,,,,,,,,
,,,,,,,,2023-08-06_08h21.03.074,HF_wild_card,2022.2.4,Win32,60.20469597,5dccf99db9d9049777368b3b,64ce5acb97489d65b14ecc7a,64cf49cf8ec1c8c7684fce6b,,,,,,,sngl,resources/Empty.png,resources/DBN.BMP,Door4,0.354027786,-0.03,1,0,0,0.8258,optionRight,60,1870,1,34,0,34,0,1,,,,,,,,,,,,,,,,,,,,,,,,,,,,,,,,,,,,,,,
,,,,,,,,2023-08-06_08h21.03.074,HF_wild_card,2022.2.4,Win32,60.20469597,5dccf99db9d9049777368b3b,64ce5acb97489d65b14ecc7a,64cf49cf8ec1c8c7684fce6b,,,,,,,ctch,resources/DBN.BMP,resources/DR.BMP,Door4,-0.278194427,-0.075555573,1,0,0,0.7141,optionLeft,80,1950,1,35,0,35,0,1,,,,,,,,,,,,,,,,,,,,,,,,,,,,,,,,,,,,,,,
,,,,,,,,2023-08-06_08h21.03.074,HF_wild_card,2022.2.4,Win32,60.20469597,5dccf99db9d9049777368b3b,64ce5acb97489d65b14ecc7a,64cf49cf8ec1c8c7684fce6b,,,,,,,decisionTrl,resources/DY.BMP,resources/DBN.BMP,Door3,-0.260972214,-0.077777786,1,0,0,0.9696,optionLeft,70,2020,1,36,0,36,0,1,,,,,,,,,,,,,,,,,,,,,,,,,,,,,,,,,,,,,,,
,,,,,,,,2023-08-06_08h21.03.074,HF_wild_card,2022.2.4,Win32,60.20469597,5dccf99db9d9049777368b3b,64ce5acb97489d65b14ecc7a,64cf49cf8ec1c8c7684fce6b,,,,,,,decisionTrl,resources/DR.BMP,resources/DP.BMP,Door1,-0.272083321,-0.058333321,1,0,0,2.737,optionLeft,30,2050,1,37,0,37,0,1,,,,,,,,,,,,,,,,,,,,,,,,,,,,,,,,,,,,,,,
,,,,,,,,2023-08-06_08h21.03.074,HF_wild_card,2022.2.4,Win32,60.20469597,5dccf99db9d9049777368b3b,64ce5acb97489d65b14ecc7a,64cf49cf8ec1c8c7684fce6b,,,,,,,sngl,resources/Empty.png,resources/DB.BMP,WildCard_NonEx,0.410138855,-0.046111107,1,0,0,0.7652,optionRight,55,2105,1,38,0,38,0,1,,,,,,,,,,,,,,,,,,,,,,,,,,,,,,,,,,,,,,,
,,,,,,,,2023-08-06_08h21.03.074,HF_wild_card,2022.2.4,Win32,60.20469597,5dccf99db9d9049777368b3b,64ce5acb97489d65b14ecc7a,64cf49cf8ec1c8c7684fce6b,,,,,,,sngl,resources/DB.BMP,resources/Empty.png,WildCard_NonEx,-0.269305534,-0.091666679,1,0,0,0.6698,optionLeft,55,2160,1,39,0,39,0,1,,,,,,,,,,,,,,,,,,,,,,,,,,,,,,,,,,,,,,,
,,,,,,,,2023-08-06_08h21.03.074,HF_wild_card,2022.2.4,Win32,60.20469597,5dccf99db9d9049777368b3b,64ce5acb97489d65b14ecc7a,64cf49cf8ec1c8c7684fce6b,,,,,,,sngl,resources/DY.BMP,resources/Empty.png,Door3,-0.240972214,-0.122777786,1,0,0,0.6367,optionLeft,70,2230,1,40,0,40,0,1,,,,,,,,,,,,,,,,,,,,,,,,,,,,,,,,,,,,,,,
,,,,,,,,2023-08-06_08h21.03.074,HF_wild_card,2022.2.4,Win32,60.20469597,5dccf99db9d9049777368b3b,64ce5acb97489d65b14ecc7a,64cf49cf8ec1c8c7684fce6b,,,,,,,decisionTrl,resources/DB.BMP,resources/DP.BMP,WildCard_NonEx,-0.196527786,-0.101111107,1,0,0,1.6764,optionLeft,45,2275,1,41,0,41,0,1,,,,,,,,,,,,,,,,,,,,,,,,,,,,,,,,,,,,,,,
,,,,,,,,2023-08-06_08h21.03.074,HF_wild_card,2022.2.4,Win32,60.20469597,5dccf99db9d9049777368b3b,64ce5acb97489d65b14ecc7a,64cf49cf8ec1c8c7684fce6b,,,,,,,sngl,resources/Empty.png,resources/DB.BMP,WildCard_NonEx,0.386805573,-0.054444466,1,0,0,0.609,optionRight,45,2320,1,42,0,42,0,1,,,,,,,,,,,,,,,,,,,,,,,,,,,,,,,,,,,,,,,
,,,,,,,,2023-08-06_08h21.03.074,HF_wild_card,2022.2.4,Win32,60.20469597,5dccf99db9d9049777368b3b,64ce5acb97489d65b14ecc7a,64cf49cf8ec1c8c7684fce6b,,,,,,,sngl,resources/DB.BMP,resources/Empty.png,WildCard_NonEx,-0.214305573,-0.118888893,1,0,0,0.548,optionLeft,45,2365,1,43,0,43,0,1,,,,,,,,,,,,,,,,,,,,,,,,,,,,,,,,,,,,,,,
,,,,,,,,2023-08-06_08h21.03.074,HF_wild_card,2022.2.4,Win32,60.20469597,5dccf99db9d9049777368b3b,64ce5acb97489d65b14ecc7a,64cf49cf8ec1c8c7684fce6b,,,,,,,,,,,,,,,,,,,,,,,,,,0,0,0,0,1,,,,,,,,,,,,,,,,,,,,,,,,,,,,,,,,,,
,,,,,,,,2023-08-06_08h21.03.074,HF_wild_card,2022.2.4,Win32,60.20469597,5dccf99db9d9049777368b3b,64ce5acb97489d65b14ecc7a,64cf49cf8ec1c8c7684fce6b,,,,,,,sngl,resources/Empty.png,resources/DY.BMP,Door3,-0.422083321,-0.243333359,1,0,0,1.0859,optionRight,70,2435,2,0,0,0,0,1,,,,,,,,,,,,,,,,,,,,,,,,,,,,,,,,,,,,,,,
,,,,,,,,2023-08-06_08h21.03.074,HF_wild_card,2022.2.4,Win32,60.20469597,5dccf99db9d9049777368b3b,64ce5acb97489d65b14ecc7a,64cf49cf8ec1c8c7684fce6b,,,,,,,sngl,resources/Empty.png,resources/DBN.BMP,Door4,0.377916641,0,1,0,0,0.5836,optionRight,80,2515,2,1,0,1,0,1,,,,,,,,,,,,,,,,,,,,,,,,,,,,,,,,,,,,,,,
,,,,,,,,2023-08-06_08h21.03.074,HF_wild_card,2022.2.4,Win32,60.20469597,5dccf99db9d9049777368b3b,64ce5acb97489d65b14ecc7a,64cf49cf8ec1c8c7684fce6b,,,,,,,sngl,resources/Empty.png,resources/DR.BMP,Door1,0.391805573,-0.009444466,1,0,0,0.8263,optionRight,30,2545,2,2,0,2,0,1,,,,,,,,,,,,,,,,,,,,,,,,,,,,,,,,,,,,,,,
,,,,,,,,2023-08-06_08h21.03.074,HF_wild_card,2022.2.4,Win32,60.20469597,5dccf99db9d9049777368b3b,64ce5acb97489d65b14ecc7a,64cf49cf8ec1c8c7684fce6b,,,,,,,decisionTrl,resources/DR.BMP,resources/DB.BMP,WildCard_NonEx,0.372916641,-0.005,1,0,0,1.158,optionRight,55,2600,2,3,0,3,0,1,,,,,,,,,,,,,,,,,,,,,,,,,,,,,,,,,,,,,,,
,,,,,,,,2023-08-06_08h21.03.074,HF_wild_card,2022.2.4,Win32,60.20469597,5dccf99db9d9049777368b3b,64ce5acb97489d65b14ecc7a,64cf49cf8ec1c8c7684fce6b,,,,,,,ctch,resources/DR.BMP,resources/DBN.BMP,Door4,0.355694427,-0.011111107,1,0,0,0.6979,optionRight,80,2680,2,4,0,4,0,1,,,,,,,,,,,,,,,,,,,,,,,,,,,,,,,,,,,,,,,
,,,,,,,,2023-08-06_08h21.03.074,HF_wild_card,2022.2.4,Win32,60.20469597,5dccf99db9d9049777368b3b,64ce5acb97489d65b14ecc7a,64cf49cf8ec1c8c7684fce6b,,,,,,,sngl,resources/Empty.png,resources/DP.BMP,Door2,0.392916718,-0.024444466,1,0,0,0.702,optionRight,40,2720,2,5,0,5,0,1,,,,,,,,,,,,,,,,,,,,,,,,,,,,,,,,,,,,,,,
,,,,,,,,2023-08-06_08h21.03.074,HF_wild_card,2022.2.4,Win32,60.20469597,5dccf99db9d9049777368b3b,64ce5acb97489d65b14ecc7a,64cf49cf8ec1c8c7684fce6b,,,,,,,decisionTrl,resources/DBN.BMP,resources/DY.BMP,Door3,0.357361145,0.005555534,1,0,0,1.0268,optionRight,70,2790,2,6,0,6,0,1,,,,,,,,,,,,,,,,,,,,,,,,,,,,,,,,,,,,,,,
,,,,,,,,2023-08-06_08h21.03.074,HF_wild_card,2022.2.4,Win32,60.20469597,5dccf99db9d9049777368b3b,64ce5acb97489d65b14ecc7a,64cf49cf8ec1c8c7684fce6b,,,,,,,decisionTrl,resources/DP.BMP,resources/DR.BMP,Door2,-0.207083359,-0.115555573,1,0,0,1.5269,optionLeft,20,2810,2,7,0,7,0,1,,,,,,,,,,,,,,,,,,,,,,,,,,,,,,,,,,,,,,,
,,,,,,,,2023-08-06_08h21.03.074,HF_wild_card,2022.2.4,Win32,60.20469597,5dccf99db9d9049777368b3b,64ce5acb97489d65b14ecc7a,64cf49cf8ec1c8c7684fce6b,,,,,,,ctch,resources/DP.BMP,resources/DY.BMP,Door3,0.378472214,-0.022222214,1,0,0,0.8099,optionRight,70,2880,2,8,0,8,0,1,,,,,,,,,,,,,,,,,,,,,,,,,,,,,,,,,,,,,,,
,,,,,,,,2023-08-06_08h21.03.074,HF_wild_card,2022.2.4,Win32,60.20469597,5dccf99db9d9049777368b3b,64ce5acb97489d65b14ecc7a,64cf49cf8ec1c8c7684fce6b,,,,,,,ctch,resources/DP.BMP,resources/DY.BMP,Door3,0.361805573,-0.009444466,1,0,0,0.9107,optionRight,70,2950,2,9,0,9,0,1,,,,,,,,,,,,,,,,,,,,,,,,,,,,,,,,,,,,,,,
,,,,,,,,2023-08-06_08h21.03.074,HF_wild_card,2022.2.4,Win32,60.20469597,5dccf99db9d9049777368b3b,64ce5acb97489d65b14ecc7a,64cf49cf8ec1c8c7684fce6b,,,,,,,decisionTrl,resources/DB.BMP,resources/DR.BMP,WildCard_NonEx,-0.220972214,-0.068333321,1,0,0,2.8872,optionLeft,45,2995,2,10,0,10,0,1,,,,,,,,,,,,,,,,,,,,,,,,,,,,,,,,,,,,,,,
,,,,,,,,2023-08-06_08h21.03.074,HF_wild_card,2022.2.4,Win32,60.20469597,5dccf99db9d9049777368b3b,64ce5acb97489d65b14ecc7a,64cf49cf8ec1c8c7684fce6b,,,,,,,decisionTrl,resources/DBN.BMP,resources/DY.BMP,Door3,0.363472214,-0.012222252,1,0,0,0.9367,optionRight,70,3065,2,11,0,11,0,1,,,,,,,,,,,,,,,,,,,,,,,,,,,,,,,,,,,,,,,
,,,,,,,,2023-08-06_08h21.03.074,HF_wild_card,2022.2.4,Win32,60.20469597,5dccf99db9d9049777368b3b,64ce5acb97489d65b14ecc7a,64cf49cf8ec1c8c7684fce6b,,,,,,,decisionTrl,resources/DBN.BMP,resources/DY.BMP,Door3,0.353472214,-0.010555573,1,0,0,0.715,optionRight,70,3135,2,12,0,12,0,1,,,,,,,,,,,,,,,,,,,,,,,,,,,,,,,,,,,,,,,
,,,,,,,,2023-08-06_08h21.03.074,HF_wild_card,2022.2.4,Win32,60.20469597,5dccf99db9d9049777368b3b,64ce5acb97489d65b14ecc7a,64cf49cf8ec1c8c7684fce6b,,,,,,,decisionTrl,resources/DY.BMP,resources/DB.BMP,Door3,-0.242638855,-0.131111107,1,0,0,0.7866,optionLeft,70,3205,2,13,0,13,0,1,,,,,,,,,,,,,,,,,,,,,,,,,,,,,,,,,,,,,,,
,,,,,,,,2023-08-06_08h21.03.074,HF_wild_card,2022.2.4,Win32,60.20469597,5dccf99db9d9049777368b3b,64ce5acb97489d65b14ecc7a,64cf49cf8ec1c8c7684fce6b,,,,,,,sngl,resources/DB.BMP,resources/Empty.png,WildCard_NonEx,-0.220416641,-0.128888893,1,0,0,0.6865,optionLeft,55,3260,2,14,0,14,0,1,,,,,,,,,,,,,,,,,,,,,,,,,,,,,,,,,,,,,,,
,,,,,,,,2023-08-06_08h21.03.074,HF_wild_card,2022.2.4,Win32,60.20469597,5dccf99db9d9049777368b3b,64ce5acb97489d65b14ecc7a,64cf49cf8ec1c8c7684fce6b,,,,,,,sngl,resources/DP.BMP,resources/Empty.png,Door2,-0.190416641,-0.133888893,1,0,0,0.8601,optionLeft,20,3280,2,15,0,15,0,1,,,,,,,,,,,,,,,,,,,,,,,,,,,,,,,,,,,,,,,
,,,,,,,,2023-08-06_08h21.03.074,HF_wild_card,2022.2.4,Win32,60.20469597,5dccf99db9d9049777368b3b,64ce5acb97489d65b14ecc7a,64cf49cf8ec1c8c7684fce6b,,,,,,,ctch,resources/DBN.BMP,resources/DR.BMP,Door4,-0.190416641,-0.112777786,1,0,0,0.7767,optionLeft,80,3360,2,16,0,16,0,1,,,,,,,,,,,,,,,,,,,,,,,,,,,,,,,,,,,,,,,
,,,,,,,,2023-08-06_08h21.03.074,HF_wild_card,2022.2.4,Win32,60.20469597,5dccf99db9d9049777368b3b,64ce5acb97489d65b14ecc7a,64cf49cf8ec1c8c7684fce6b,,,,,,,ctch,resources/DY.BMP,resources/DP.BMP,Door3,-0.190972214,-0.127222214,1,0,0,0.7313,optionLeft,70,3430,2,17,0,17,0,1,,,,,,,,,,,,,,,,,,,,,,,,,,,,,,,,,,,,,,,
,,,,,,,,2023-08-06_08h21.03.074,HF_wild_card,2022.2.4,Win32,60.20469597,5dccf99db9d9049777368b3b,64ce5acb97489d65b14ecc7a,64cf49cf8ec1c8c7684fce6b,,,,,,,sngl,resources/Empty.png,resources/DB.BMP,WildCard_NonEx,0.38125,-0.031666718,1,0,0,0.637,optionRight,45,3475,2,18,0,18,0,1,,,,,,,,,,,,,,,,,,,,,,,,,,,,,,,,,,,,,,,
,,,,,,,,2023-08-06_08h21.03.074,HF_wild_card,2022.2.4,Win32,60.20469597,5dccf99db9d9049777368b3b,64ce5acb97489d65b14ecc7a,64cf49cf8ec1c8c7684fce6b,,,,,,,decisionTrl,resources/DY.BMP,resources/DBN.BMP,Door4,0.337361145,-0.020555611,1,0,0,0.7031,optionRight,60,3535,2,19,0,19,0,1,,,,,,,,,,,,,,,,,,,,,,,,,,,,,,,,,,,,,,,
,,,,,,,,2023-08-06_08h21.03.074,HF_wild_card,2022.2.4,Win32,60.20469597,5dccf99db9d9049777368b3b,64ce5acb97489d65b14ecc7a,64cf49cf8ec1c8c7684fce6b,,,,,,,decisionTrl,resources/DB.BMP,resources/DY.BMP,Door3,0.370138931,-0.028333321,1,0,0,0.7031,optionRight,70,3605,2,20,0,20,0,1,,,,,,,,,,,,,,,,,,,,,,,,,,,,,,,,,,,,,,,
,,,,,,,,2023-08-06_08h21.03.074,HF_wild_card,2022.2.4,Win32,60.20469597,5dccf99db9d9049777368b3b,64ce5acb97489d65b14ecc7a,64cf49cf8ec1c8c7684fce6b,,,,,,,decisionTrl,resources/DBN.BMP,resources/DB.BMP,Door4,-0.207638855,-0.13,1,0,0,0.6641,optionLeft,80,3685,2,21,0,21,0,1,,,,,,,,,,,,,,,,,,,,,,,,,,,,,,,,,,,,,,,
,,,,,,,,2023-08-06_08h21.03.074,HF_wild_card,2022.2.4,Win32,60.20469597,5dccf99db9d9049777368b3b,64ce5acb97489d65b14ecc7a,64cf49cf8ec1c8c7684fce6b,,,,,,,decisionTrl,resources/DY.BMP,resources/DBN.BMP,Door4,0.31625,-0.021111107,1,0,0,1.7036,optionRight,60,3745,2,22,0,22,0,1,,,,,,,,,,,,,,,,,,,,,,,,,,,,,,,,,,,,,,,
,,,,,,,,2023-08-06_08h21.03.074,HF_wild_card,2022.2.4,Win32,60.20469597,5dccf99db9d9049777368b3b,64ce5acb97489d65b14ecc7a,64cf49cf8ec1c8c7684fce6b,,,,,,,decisionTrl,resources/DY.BMP,resources/DBN.BMP,Door4,0.310138931,-0.021111107,1,0,0,0.6036,optionRight,60,3805,2,23,0,23,0,1,,,,,,,,,,,,,,,,,,,,,,,,,,,,,,,,,,,,,,,
,,,,,,,,2023-08-06_08h21.03.074,HF_wild_card,2022.2.4,Win32,60.20469597,5dccf99db9d9049777368b3b,64ce5acb97489d65b14ecc7a,64cf49cf8ec1c8c7684fce6b,,,,,,,sngl,resources/DBN.BMP,resources/Empty.png,Door4,-0.185972214,-0.15,1,0,0,0.5697,optionLeft,60,3865,2,24,0,24,0,1,,,,,,,,,,,,,,,,,,,,,,,,,,,,,,,,,,,,,,,
,,,,,,,,2023-08-06_08h21.03.074,HF_wild_card,2022.2.4,Win32,60.20469597,5dccf99db9d9049777368b3b,64ce5acb97489d65b14ecc7a,64cf49cf8ec1c8c7684fce6b,,,,,,,decisionTrl,resources/DP.BMP,resources/DB.BMP,WildCard_NonEx,0.334027786,-0.023888893,1,0,0,1.0367,optionRight,55,3920,2,25,0,25,0,1,,,,,,,,,,,,,,,,,,,,,,,,,,,,,,,,,,,,,,,
,,,,,,,,2023-08-06_08h21.03.074,HF_wild_card,2022.2.4,Win32,60.20469597,5dccf99db9d9049777368b3b,64ce5acb97489d65b14ecc7a,64cf49cf8ec1c8c7684fce6b,,,,,,,sngl,resources/DR.BMP,resources/Empty.png,Door1,-0.212083359,-0.151666641,1,0,0,0.5931,optionLeft,30,3950,2,26,0,26,0,1,,,,,,,,,,,,,,,,,,,,,,,,,,,,,,,,,,,,,,,
,,,,,,,,2023-08-06_08h21.03.074,HF_wild_card,2022.2.4,Win32,60.20469597,5dccf99db9d9049777368b3b,64ce5acb97489d65b14ecc7a,64cf49cf8ec1c8c7684fce6b,,,,,,,decisionTrl,resources/DR.BMP,resources/DP.BMP,Door2,0.281805573,-0.022222214,1,0,0,0.9601,optionRight,20,3970,2,27,0,27,0,1,,,,,,,,,,,,,,,,,,,,,,,,,,,,,,,,,,,,,,,
,,,,,,,,2023-08-06_08h21.03.074,HF_wild_card,2022.2.4,Win32,60.20469597,5dccf99db9d9049777368b3b,64ce5acb97489d65b14ecc7a,64cf49cf8ec1c8c7684fce6b,,,,,,,decisionTrl,resources/DR.BMP,resources/DP.BMP,Door1,-0.181527786,-0.135,1,0,0,0.5648,optionLeft,30,4000,2,28,0,28,0,1,,,,,,,,,,,,,,,,,,,,,,,,,,,,,,,,,,,,,,,
,,,,,,,,2023-08-06_08h21.03.074,HF_wild_card,2022.2.4,Win32,60.20469597,5dccf99db9d9049777368b3b,64ce5acb97489d65b14ecc7a,64cf49cf8ec1c8c7684fce6b,,,,,,,decisionTrl,resources/DP.BMP,resources/DR.BMP,Door1,0.30625,-0.022777786,1,0,0,1.8487,optionRight,30,4030,2,29,0,29,0,1,,,,,,,,,,,,,,,,,,,,,,,,,,,,,,,,,,,,,,,
,,,,,,,,2023-08-06_08h21.03.074,HF_wild_card,2022.2.4,Win32,60.20469597,5dccf99db9d9049777368b3b,64ce5acb97489d65b14ecc7a,64cf49cf8ec1c8c7684fce6b,,,,,,,sngl,resources/DB.BMP,resources/Empty.png,WildCard_NonEx,-0.189305573,-0.153333359,1,0,0,0.6404,optionLeft,45,4075,2,30,0,30,0,1,,,,,,,,,,,,,,,,,,,,,,,,,,,,,,,,,,,,,,,
,,,,,,,,2023-08-06_08h21.03.074,HF_wild_card,2022.2.4,Win32,60.20469597,5dccf99db9d9049777368b3b,64ce5acb97489d65b14ecc7a,64cf49cf8ec1c8c7684fce6b,,,,,,,sngl,resources/DY.BMP,resources/Empty.png,Door3,-0.173194427,-0.14,1,0,0,0.6746,optionLeft,70,4145,2,31,0,31,0,1,,,,,,,,,,,,,,,,,,,,,,,,,,,,,,,,,,,,,,,
,,,,,,,,2023-08-06_08h21.03.074,HF_wild_card,2022.2.4,Win32,60.20469597,5dccf99db9d9049777368b3b,64ce5acb97489d65b14ecc7a,64cf49cf8ec1c8c7684fce6b,,,,,,,ctch,resources/DBN.BMP,resources/DR.BMP,Door4,-0.177083359,-0.134444466,1,0,0,1.3925,optionLeft,60,4205,2,32,0,32,0,1,,,,,,,,,,,,,,,,,,,,,,,,,,,,,,,,,,,,,,,
,,,,,,,,2023-08-06_08h21.03.074,HF_wild_card,2022.2.4,Win32,60.20469597,5dccf99db9d9049777368b3b,64ce5acb97489d65b14ecc7a,64cf49cf8ec1c8c7684fce6b,,,,,,,ctch,resources/DR.BMP,resources/DBN.BMP,Door4,0.316805573,-0.025,1,0,0,0.6313,optionRight,60,4265,2,33,0,33,0,1,,,,,,,,,,,,,,,,,,,,,,,,,,,,,,,,,,,,,,,
,,,,,,,,2023-08-06_08h21.03.074,HF_wild_card,2022.2.4,Win32,60.20469597,5dccf99db9d9049777368b3b,64ce5acb97489d65b14ecc7a,64cf49cf8ec1c8c7684fce6b,,,,,,,decisionTrl,resources/DB.BMP,resources/DBN.BMP,Door4,0.31625,-0.021111107,1,0,0,0.6609,optionRight,60,4325,2,34,0,34,0,1,,,,,,,,,,,,,,,,,,,,,,,,,,,,,,,,,,,,,,,
,,,,,,,,2023-08-06_08h21.03.074,HF_wild_card,2022.2.4,Win32,60.20469597,5dccf99db9d9049777368b3b,64ce5acb97489d65b14ecc7a,64cf49cf8ec1c8c7684fce6b,,,,,,,ctch,resources/DY.BMP,resources/DP.BMP,Door3,-0.183194427,-0.155,1,0,0,0.4944,optionLeft,70,4395,2,35,0,35,0,1,,,,,,,,,,,,,,,,,,,,,,,,,,,,,,,,,,,,,,,
,,,,,,,,2023-08-06_08h21.03.074,HF_wild_card,2022.2.4,Win32,60.20469597,5dccf99db9d9049777368b3b,64ce5acb97489d65b14ecc7a,64cf49cf8ec1c8c7684fce6b,,,,,,,decisionTrl,resources/DR.BMP,resources/DP.BMP,Door2,0.260694427,-0.027777786,1,0,0,0.6774,optionRight,40,4435,2,36,0,36,0,1,,,,,,,,,,,,,,,,,,,,,,,,,,,,,,,,,,,,,,,
,,,,,,,,2023-08-06_08h21.03.074,HF_wild_card,2022.2.4,Win32,60.20469597,5dccf99db9d9049777368b3b,64ce5acb97489d65b14ecc7a,64cf49cf8ec1c8c7684fce6b,,,,,,,decisionTrl,resources/DP.BMP,resources/DR.BMP,Door1,0.377916641,-0.177222214,1,0,0,1.5821,optionRight,30,4465,2,37,0,37,0,1,,,,,,,,,,,,,,,,,,,,,,,,,,,,,,,,,,,,,,,
,,,,,,,,2023-08-06_08h21.03.074,HF_wild_card,2022.2.4,Win32,60.20469597,5dccf99db9d9049777368b3b,64ce5acb97489d65b14ecc7a,64cf49cf8ec1c8c7684fce6b,,,,,,,decisionTrl,resources/DB.BMP,resources/DP.BMP,WildCard_NonEx,-0.175416565,-0.137777786,1,0,0,1.403,optionLeft,45,4510,2,38,0,38,0,1,,,,,,,,,,,,,,,,,,,,,,,,,,,,,,,,,,,,,,,
,,,,,,,,2023-08-06_08h21.03.074,HF_wild_card,2022.2.4,Win32,60.20469597,5dccf99db9d9049777368b3b,64ce5acb97489d65b14ecc7a,64cf49cf8ec1c8c7684fce6b,,,,,,,decisionTrl,resources/DY.BMP,resources/DBN.BMP,Door3,-0.181527786,-0.145555573,1,0,0,0.8646,optionLeft,70,4580,2,39,0,39,0,1,,,,,,,,,,,,,,,,,,,,,,,,,,,,,,,,,,,,,,,
,,,,,,,,2023-08-06_08h21.03.074,HF_wild_card,2022.2.4,Win32,60.20469597,5dccf99db9d9049777368b3b,64ce5acb97489d65b14ecc7a,64cf49cf8ec1c8c7684fce6b,,,,,,,sngl,resources/Empty.png,resources/DB.BMP,WildCard_NonEx,0.299027786,-0.025,1,0,0,0.5811,optionRight,55,4635,2,40,0,40,0,1,,,,,,,,,,,,,,,,,,,,,,,,,,,,,,,,,,,,,,,
,,,,,,,,2023-08-06_08h21.03.074,HF_wild_card,2022.2.4,Win32,60.20469597,5dccf99db9d9049777368b3b,64ce5acb97489d65b14ecc7a,64cf49cf8ec1c8c7684fce6b,,,,,,,decisionTrl,resources/DR.BMP,resources/DP.BMP,Door2,0.289027786,-0.023888893,1,0,0,0.8981,optionRight,40,4675,2,41,0,41,0,1,,,,,,,,,,,,,,,,,,,,,,,,,,,,,,,,,,,,,,,
,,,,,,,,2023-08-06_08h21.03.074,HF_wild_card,2022.2.4,Win32,60.20469597,5dccf99db9d9049777368b3b,64ce5acb97489d65b14ecc7a,64cf49cf8ec1c8c7684fce6b,,,,,,,decisionTrl,resources/DP.BMP,resources/DR.BMP,Door2,-0.185416641,-0.147777786,1,0,0,0.6787,optionLeft,20,4695,2,42,0,42,0,1,,,,,,,,,,,,,,,,,,,,,,,,,,,,,,,,,,,,,,,
,,,,,,,,2023-08-06_08h21.03.074,HF_wild_card,2022.2.4,Win32,60.20469597,5dccf99db9d9049777368b3b,64ce5acb97489d65b14ecc7a,64cf49cf8ec1c8c7684fce6b,,,,,,,decisionTrl,resources/DBN.BMP,resources/DY.BMP,Door3,0.270694427,-0.023333359,1,0,0,1.1132,optionRight,70,4765,2,43,0,43,0,1,,,,,,,,,,,,,,,,,,,,,,,,,,,,,,,,,,,,,,,
,,,,,,,,2023-08-06_08h21.03.074,HF_wild_card,2022.2.4,Win32,60.20469597,5dccf99db9d9049777368b3b,64ce5acb97489d65b14ecc7a,64cf49cf8ec1c8c7684fce6b,,,,,,,,,,,,,,,,,,,,,,,,,,1,0,1,0,1,,,,,,,,,,,,,,,,,,,,,,,,,,,,,,,,,,
,,,,,,,,2023-08-06_08h21.03.074,HF_wild_card,2022.2.4,Win32,60.20469597,5dccf99db9d9049777368b3b,64ce5acb97489d65b14ecc7a,64cf49cf8ec1c8c7684fce6b,,,,,,,decisionTrl,resources/DBN.BMP,resources/DY.BMP,Door3,0.421805573,-0.044444466,1,0,0,1.7548,optionRight,70,4835,3,0,0,0,0,1,,,,,,,,,,,,,,,,,,,,,,,,,,,,,,,,,,,,,,,
,,,,,,,,2023-08-06_08h21.03.074,HF_wild_card,2022.2.4,Win32,60.20469597,5dccf99db9d9049777368b3b,64ce5acb97489d65b14ecc7a,64cf49cf8ec1c8c7684fce6b,,,,,,,decisionTrl,resources/DBN.BMP,resources/DY.BMP,Door3,0.390694427,-0.005555573,1,0,0,0.748,optionRight,70,4905,3,1,0,1,0,1,,,,,,,,,,,,,,,,,,,,,,,,,,,,,,,,,,,,,,,
,,,,,,,,2023-08-06_08h21.03.074,HF_wild_card,2022.2.4,Win32,60.20469597,5dccf99db9d9049777368b3b,64ce5acb97489d65b14ecc7a,64cf49cf8ec1c8c7684fce6b,,,,,,,sngl,resources/DB.BMP,resources/Empty.png,WildCard_NonEx,-0.237083359,-0.083888893,1,0,0,0.6644,optionLeft,45,4950,3,2,0,2,0,1,,,,,,,,,,,,,,,,,,,,,,,,,,,,,,,,,,,,,,,
,,,,,,,,2023-08-06_08h21.03.074,HF_wild_card,2022.2.4,Win32,60.20469597,5dccf99db9d9049777368b3b,64ce5acb97489d65b14ecc7a,64cf49cf8ec1c8c7684fce6b,,,,,,,decisionTrl,resources/DY.BMP,resources/DBN.BMP,Door3,-0.21875,-0.059444466,1,0,0,0.8806,optionLeft,70,5020,3,3,0,3,0,1,,,,,,,,,,,,,,,,,,,,,,,,,,,,,,,,,,,,,,,
,,,,,,,,2023-08-06_08h21.03.074,HF_wild_card,2022.2.4,Win32,60.20469597,5dccf99db9d9049777368b3b,64ce5acb97489d65b14ecc7a,64cf49cf8ec1c8c7684fce6b,,,,,,,decisionTrl,resources/DY.BMP,resources/DBN.BMP,Door3,-0.175972214,-0.032222214,1,0,0,0.6477,optionLeft,70,5090,3,4,0,4,0,1,,,,,,,,,,,,,,,,,,,,,,,,,,,,,,,,,,,,,,,
,,,,,,,,2023-08-06_08h21.03.074,HF_wild_card,2022.2.4,Win32,60.20469597,5dccf99db9d9049777368b3b,64ce5acb97489d65b14ecc7a,64cf49cf8ec1c8c7684fce6b,,,,,,,decisionTrl,resources/DY.BMP,resources/DBN.BMP,Door3,-0.197638855,-0.009444466,1,0,0,0.6151,optionLeft,70,5160,3,5,0,5,0,1,,,,,,,,,,,,,,,,,,,,,,,,,,,,,,,,,,,,,,,
,,,,,,,,2023-08-06_08h21.03.074,HF_wild_card,2022.2.4,Win32,60.20469597,5dccf99db9d9049777368b3b,64ce5acb97489d65b14ecc7a,64cf49cf8ec1c8c7684fce6b,,,,,,,sngl,resources/Empty.png,resources/DB.BMP,WildCard_NonEx,0.389583359,0.014444427,1,0,0,0.5804,optionRight,45,5205,3,6,0,6,0,1,,,,,,,,,,,,,,,,,,,,,,,,,,,,,,,,,,,,,,,
,,,,,,,,2023-08-06_08h21.03.074,HF_wild_card,2022.2.4,Win32,60.20469597,5dccf99db9d9049777368b3b,64ce5acb97489d65b14ecc7a,64cf49cf8ec1c8c7684fce6b,,,,,,,sngl,resources/Empty.png,resources/DP.BMP,Door2,0.364027786,-0.011666679,1,0,0,0.5814,optionRight,20,5225,3,7,0,7,0,1,,,,,,,,,,,,,,,,,,,,,,,,,,,,,,,,,,,,,,,
,,,,,,,,2023-08-06_08h21.03.074,HF_wild_card,2022.2.4,Win32,60.20469597,5dccf99db9d9049777368b3b,64ce5acb97489d65b14ecc7a,64cf49cf8ec1c8c7684fce6b,,,,,,,decisionTrl,resources/DB.BMP,resources/DR.BMP,WildCard_NonEx,-0.222083359,-0.054444466,1,0,0,0.8311,optionLeft,45,5270,3,8,0,8,0,1,,,,,,,,,,,,,,,,,,,,,,,,,,,,,,,,,,,,,,,
,,,,,,,,2023-08-06_08h21.03.074,HF_wild_card,2022.2.4,Win32,60.20469597,5dccf99db9d9049777368b3b,64ce5acb97489d65b14ecc7a,64cf49cf8ec1c8c7684fce6b,,,,,,,ctch,resources/DBN.BMP,resources/DR.BMP,Door4,-0.141527786,-0.014444466,1,0,0,0.9814,optionLeft,80,5350,3,9,0,9,0,1,,,,,,,,,,,,,,,,,,,,,,,,,,,,,,,,,,,,,,,
,,,,,,,,2023-08-06_08h21.03.074,HF_wild_card,2022.2.4,Win32,60.20469597,5dccf99db9d9049777368b3b,64ce5acb97489d65b14ecc7a,64cf49cf8ec1c8c7684fce6b,,,,,,,ctch,resources/DR.BMP,resources/DBN.BMP,Door4,0.363472214,-0.005555573,1,0,0,0.6972,optionRight,80,5430,3,10,0,10,0,1,,,,,,,,,,,,,,,,,,,,,,,,,,,,,,,,,,,,,,,
,,,,,,,,2023-08-06_08h21.03.074,HF_wild_card,2022.2.4,Win32,60.20469597,5dccf99db9d9049777368b3b,64ce5acb97489d65b14ecc7a,64cf49cf8ec1c8c7684fce6b,,,,,,,ctch,resources/DBN.BMP,resources/DR.BMP,Door4,-0.195972214,-0.043888893,1,0,0,0.6137,optionLeft,80,5510,3,11,0,11,0,1,,,,,,,,,,,,,,,,,,,,,,,,,,,,,,,,,,,,,,,
,,,,,,,,2023-08-06_08h21.03.074,HF_wild_card,2022.2.4,Win32,60.20469597,5dccf99db9d9049777368b3b,64ce5acb97489d65b14ecc7a,64cf49cf8ec1c8c7684fce6b,,,,,,,decisionTrl,resources/DR.BMP,resources/DP.BMP,Door1,-0.170416641,-0.031111107,1,0,0,2.3632,optionLeft,30,5540,3,12,0,12,0,1,,,,,,,,,,,,,,,,,,,,,,,,,,,,,,,,,,,,,,,
,,,,,,,,2023-08-06_08h21.03.074,HF_wild_card,2022.2.4,Win32,60.20469597,5dccf99db9d9049777368b3b,64ce5acb97489d65b14ecc7a,64cf49cf8ec1c8c7684fce6b,,,,,,,ctch,resources/DR.BMP,resources/DBN.BMP,Door4,0.354027786,-0.002777786,1,0,0,0.698,optionRight,60,5600,3,13,0,13,0,1,,,,,,,,,,,,,,,,,,,,,,,,,,,,,,,,,,,,,,,
,,,,,,,,2023-08-06_08h21.03.074,HF_wild_card,2022.2.4,Win32,60.20469597,5dccf99db9d9049777368b3b,64ce5acb97489d65b14ecc7a,64cf49cf8ec1c8c7684fce6b,,,,,,,ctch,resources/DP.BMP,resources/DY.BMP,Door3,0.341805573,0.005,1,0,0,0.8153,optionRight,70,5670,3,14,0,14,0,1,,,,,,,,,,,,,,,,,,,,,,,,,,,,,,,,,,,,,,,
,,,,,,,,2023-08-06_08h21.03.074,HF_wild_card,2022.2.4,Win32,60.20469597,5dccf99db9d9049777368b3b,64ce5acb97489d65b14ecc7a,64cf49cf8ec1c8c7684fce6b,,,,,,,decisionTrl,resources/DBN.BMP,resources/DB.BMP,Door4,-0.182083359,-0.048333359,1,0,0,0.5976,optionLeft,60,5730,3,15,0,15,0,1,,,,,,,,,,,,,,,,,,,,,,,,,,,,,,,,,,,,,,,
,,,,,,,,2023-08-06_08h21.03.074,HF_wild_card,2022.2.4,Win32,60.20469597,5dccf99db9d9049777368b3b,64ce5acb97489d65b14ecc7a,64cf49cf8ec1c8c7684fce6b,,,,,,,decisionTrl,resources/DR.BMP,resources/DB.BMP,WildCard_NonEx,0.334583359,-0.016111107,1,0,0,0.7306,optionRight,55,5785,3,16,0,16,0,1,,,,,,,,,,,,,,,,,,,,,,,,,,,,,,,,,,,,,,,
,,,,,,,,2023-08-06_08h21.03.074,HF_wild_card,2022.2.4,Win32,60.20469597,5dccf99db9d9049777368b3b,64ce5acb97489d65b14ecc7a,64cf49cf8ec1c8c7684fce6b,,,,,,,ctch,resources/DP.BMP,resources/DY.BMP,Door3,0.313472214,0,1,0,0,0.8317,optionRight,70,5855,3,17,0,17,0,1,,,,,,,,,,,,,,,,,,,,,,,,,,,,,,,,,,,,,,,
,,,,,,,,2023-08-06_08h21.03.074,HF_wild_card,2022.2.4,Win32,60.20469597,5dccf99db9d9049777368b3b,64ce5acb97489d65b14ecc7a,64cf49cf8ec1c8c7684fce6b,,,,,,,ctch,resources/DY.BMP,resources/DP.BMP,Door3,-0.193194427,-0.050555573,1,0,0,0.7308,optionLeft,70,5925,3,18,0,18,0,1,,,,,,,,,,,,,,,,,,,,,,,,,,,,,,,,,,,,,,,
,,,,,,,,2023-08-06_08h21.03.074,HF_wild_card,2022.2.4,Win32,60.20469597,5dccf99db9d9049777368b3b,64ce5acb97489d65b14ecc7a,64cf49cf8ec1c8c7684fce6b,,,,,,,ctch,resources/DY.BMP,resources/DP.BMP,Door3,-0.199305573,-0.052777786,1,0,0,0.7475,optionLeft,70,5995,3,19,0,19,0,1,,,,,,,,,,,,,,,,,,,,,,,,,,,,,,,,,,,,,,,
,,,,,,,,2023-08-06_08h21.03.074,HF_wild_card,2022.2.4,Win32,60.20469597,5dccf99db9d9049777368b3b,64ce5acb97489d65b14ecc7a,64cf49cf8ec1c8c7684fce6b,,,,,,,decisionTrl,resources/DR.BMP,resources/DP.BMP,Door1,-0.190972214,-0.061666679,1,0,0,1.1963,optionLeft,30,6025,3,20,0,20,0,1,,,,,,,,,,,,,,,,,,,,,,,,,,,,,,,,,,,,,,,
,,,,,,,,2023-08-06_08h21.03.074,HF_wild_card,2022.2.4,Win32,60.20469597,5dccf99db9d9049777368b3b,64ce5acb97489d65b14ecc7a,64cf49cf8ec1c8c7684fce6b,,,,,,,decisionTrl,resources/DP.BMP,resources/DR.BMP,Door1,0.340138931,-0.021111107,1,0,0,0.6984,optionRight,30,6055,3,21,0,21,0,1,,,,,,,,,,,,,,,,,,,,,,,,,,,,,,,,,,,,,,,
,,,,,,,,2023-08-06_08h21.03.074,HF_wild_card,2022.2.4,Win32,60.20469597,5dccf99db9d9049777368b3b,64ce5acb97489d65b14ecc7a,64cf49cf8ec1c8c7684fce6b,,,,,,,decisionTrl,resources/DY.BMP,resources/DB.BMP,Door3,-0.152638855,-0.026666679,1,0,0,0.6996,optionLeft,70,6125,3,22,0,22,0,1,,,,,,,,,,,,,,,,,,,,,,,,,,,,,,,,,,,,,,,
,,,,,,,,2023-08-06_08h21.03.074,HF_wild_card,2022.2.4,Win32,60.20469597,5dccf99db9d9049777368b3b,64ce5acb97489d65b14ecc7a,64cf49cf8ec1c8c7684fce6b,,,,,,,decisionTrl,resources/DY.BMP,resources/DBN.BMP,Door3,-0.134861069,-0.017777824,1,0,0,1.3632,optionLeft,70,6195,3,23,0,23,0,1,,,,,,,,,,,,,,,,,,,,,,,,,,,,,,,,,,,,,,,
,,,,,,,,2023-08-06_08h21.03.074,HF_wild_card,2022.2.4,Win32,60.20469597,5dccf99db9d9049777368b3b,64ce5acb97489d65b14ecc7a,64cf49cf8ec1c8c7684fce6b,,,,,,,decisionTrl,resources/DP.BMP,resources/DR.BMP,Door2,-0.185972214,-0.050555573,1,0,0,1.5119,optionLeft,20,6215,3,24,0,24,0,1,,,,,,,,,,,,,,,,,,,,,,,,,,,,,,,,,,,,,,,
,,,,,,,,2023-08-06_08h21.03.074,HF_wild_card,2022.2.4,Win32,60.20469597,5dccf99db9d9049777368b3b,64ce5acb97489d65b14ecc7a,64cf49cf8ec1c8c7684fce6b,,,,,,,sngl,resources/Empty.png,resources/DR.BMP,Door1,0.341805573,-0.022777786,1,0,0,0.5316,optionRight,30,6245,3,25,0,25,0,1,,,,,,,,,,,,,,,,,,,,,,,,,,,,,,,,,,,,,,,
,,,,,,,,2023-08-06_08h21.03.074,HF_wild_card,2022.2.4,Win32,60.20469597,5dccf99db9d9049777368b3b,64ce5acb97489d65b14ecc7a,64cf49cf8ec1c8c7684fce6b,,,,,,,sngl,resources/DR.BMP,resources/Empty.png,Door1,-0.208194427,-0.063333321,1,0,0,0.5804,optionLeft,30,6275,3,26,0,26,0,1,,,,,,,,,,,,,,,,,,,,,,,,,,,,,,,,,,,,,,,
,,,,,,,,2023-08-06_08h21.03.074,HF_wild_card,2022.2.4,Win32,60.20469597,5dccf99db9d9049777368b3b,64ce5acb97489d65b14ecc7a,64cf49cf8ec1c8c7684fce6b,,,,,,,decisionTrl,resources/DP.BMP,resources/DR.BMP,Door1,0.311805573,-0.045555611,1,0,0,0.6644,optionRight,30,6305,3,27,0,27,0,1,,,,,,,,,,,,,,,,,,,,,,,,,,,,,,,,,,,,,,,
,,,,,,,,2023-08-06_08h21.03.074,HF_wild_card,2022.2.4,Win32,60.20469597,5dccf99db9d9049777368b3b,64ce5acb97489d65b14ecc7a,64cf49cf8ec1c8c7684fce6b,,,,,,,sngl,resources/DY.BMP,resources/Empty.png,Door3,-0.187083359,-0.060555573,1,0,0,0.5978,optionLeft,70,6375,3,28,0,28,0,1,,,,,,,,,,,,,,,,,,,,,,,,,,,,,,,,,,,,,,,
,,,,,,,,2023-08-06_08h21.03.074,HF_wild_card,2022.2.4,Win32,60.20469597,5dccf99db9d9049777368b3b,64ce5acb97489d65b14ecc7a,64cf49cf8ec1c8c7684fce6b,,,,,,,decisionTrl,resources/DB.BMP,resources/DY.BMP,Door3,0.33125,-0.023333359,1,0,0,0.5979,optionRight,70,6445,3,29,0,29,0,1,,,,,,,,,,,,,,,,,,,,,,,,,,,,,,,,,,,,,,,
,,,,,,,,2023-08-06_08h21.03.074,HF_wild_card,2022.2.4,Win32,60.20469597,5dccf99db9d9049777368b3b,64ce5acb97489d65b14ecc7a,64cf49cf8ec1c8c7684fce6b,,,,,,,decisionTrl,resources/DR.BMP,resources/DP.BMP,Door1,-0.148194427,-0.046666679,1,0,0,1.0316,optionLeft,30,6475,3,30,0,30,0,1,,,,,,,,,,,,,,,,,,,,,,,,,,,,,,,,,,,,,,,
,,,,,,,,2023-08-06_08h21.03.074,HF_wild_card,2022.2.4,Win32,60.20469597,5dccf99db9d9049777368b3b,64ce5acb97489d65b14ecc7a,64cf49cf8ec1c8c7684fce6b,,,,,,,sngl,resources/DB.BMP,resources/Empty.png,WildCard_NonEx,-0.160416641,-0.050555573,1,0,0,0.5815,optionLeft,55,6530,3,31,0,31,0,1,,,,,,,,,,,,,,,,,,,,,,,,,,,,,,,,,,,,,,,
,,,,,,,,2023-08-06_08h21.03.074,HF_wild_card,2022.2.4,Win32,60.20469597,5dccf99db9d9049777368b3b,64ce5acb97489d65b14ecc7a,64cf49cf8ec1c8c7684fce6b,,,,,,,sngl,resources/DP.BMP,resources/Empty.png,Door2,-0.167638855,-0.052222214,1,0,0,2.7323,optionLeft,40,6570,3,32,0,32,0,1,,,,,,,,,,,,,,,,,,,,,,,,,,,,,,,,,,,,,,,
,,,,,,,,2023-08-06_08h21.03.074,HF_wild_card,2022.2.4,Win32,60.20469597,5dccf99db9d9049777368b3b,64ce5acb97489d65b14ecc7a,64cf49cf8ec1c8c7684fce6b,,,,,,,decisionTrl,resources/DP.BMP,resources/DR.BMP,Door1,0.282916641,0,1,0,0,1.6987,optionRight,30,6600,3,33,0,33,0,1,,,,,,,,,,,,,,,,,,,,,,,,,,,,,,,,,,,,,,,
,,,,,,,,2023-08-06_08h21.03.074,HF_wild_card,2022.2.4,Win32,60.20469597,5dccf99db9d9049777368b3b,64ce5acb97489d65b14ecc7a,64cf49cf8ec1c8c7684fce6b,,,,,,,sngl,resources/Empty.png,resources/DBN.BMP,Door4,0.312361145,-0.022222214,1,0,0,0.7147,optionRight,60,6660,3,34,0,34,0,1,,,,,,,,,,,,,,,,,,,,,,,,,,,,,,,,,,,,,,,
,,,,,,,,2023-08-06_08h21.03.074,HF_wild_card,2022.2.4,Win32,60.20469597,5dccf99db9d9049777368b3b,64ce5acb97489d65b14ecc7a,64cf49cf8ec1c8c7684fce6b,,,,,,,decisionTrl,resources/DB.BMP,resources/DP.BMP,WildCard_NonEx,-0.143194427,-0.049444466,1,0,0,1.0649,optionLeft,55,6715,3,35,0,35,0,1,,,,,,,,,,,,,,,,,,,,,,,,,,,,,,,,,,,,,,,
,,,,,,,,2023-08-06_08h21.03.074,HF_wild_card,2022.2.4,Win32,60.20469597,5dccf99db9d9049777368b3b,64ce5acb97489d65b14ecc7a,64cf49cf8ec1c8c7684fce6b,,,,,,,decisionTrl,resources/DR.BMP,resources/DP.BMP,Door1,-0.132083359,-0.042222214,1,0,0,1.5314,optionLeft,30,6745,3,36,0,36,0,1,,,,,,,,,,,,,,,,,,,,,,,,,,,,,,,,,,,,,,,
,,,,,,,,2023-08-06_08h21.03.074,HF_wild_card,2022.2.4,Win32,60.20469597,5dccf99db9d9049777368b3b,64ce5acb97489d65b14ecc7a,64cf49cf8ec1c8c7684fce6b,,,,,,,decisionTrl,resources/DBN.BMP,resources/DY.BMP,Door3,0.31625,-0.023333359,1,0,0,0.848,optionRight,70,6815,3,37,0,37,0,1,,,,,,,,,,,,,,,,,,,,,,,,,,,,,,,,,,,,,,,
,,,,,,,,2023-08-06_08h21.03.074,HF_wild_card,2022.2.4,Win32,60.20469597,5dccf99db9d9049777368b3b,64ce5acb97489d65b14ecc7a,64cf49cf8ec1c8c7684fce6b,,,,,,,decisionTrl,resources/DBN.BMP,resources/DY.BMP,Door3,0.317361145,-0.025,1,0,0,0.5969,optionRight,70,6885,3,38,0,38,0,1,,,,,,,,,,,,,,,,,,,,,,,,,,,,,,,,,,,,,,,
,,,,,,,,2023-08-06_08h21.03.074,HF_wild_card,2022.2.4,Win32,60.20469597,5dccf99db9d9049777368b3b,64ce5acb97489d65b14ecc7a,64cf49cf8ec1c8c7684fce6b,,,,,,,decisionTrl,resources/DB.BMP,resources/DBN.BMP,Door4,0.317916641,-0.024444466,1,0,0,0.7982,optionRight,60,6945,3,39,0,39,0,1,,,,,,,,,,,,,,,,,,,,,,,,,,,,,,,,,,,,,,,
,,,,,,,,2023-08-06_08h21.03.074,HF_wild_card,2022.2.4,Win32,60.20469597,5dccf99db9d9049777368b3b,64ce5acb97489d65b14ecc7a,64cf49cf8ec1c8c7684fce6b,,,,,,,sngl,resources/Empty.png,resources/DB.BMP,WildCard_NonEx,0.285138931,-0.025555573,1,0,0,0.5292,optionRight,55,7000,3,40,0,40,0,1,,,,,,,,,,,,,,,,,,,,,,,,,,,,,,,,,,,,,,,
,,,,,,,,2023-08-06_08h21.03.074,HF_wild_card,2022.2.4,Win32,60.20469597,5dccf99db9d9049777368b3b,64ce5acb97489d65b14ecc7a,64cf49cf8ec1c8c7684fce6b,,,,,,,sngl,resources/DBN.BMP,resources/Empty.png,Door4,-0.204861069,-0.078888893,1,0,0,0.5812,optionLeft,80,7080,3,41,0,41,0,1,,,,,,,,,,,,,,,,,,,,,,,,,,,,,,,,,,,,,,,
,,,,,,,,2023-08-06_08h21.03.074,HF_wild_card,2022.2.4,Win32,60.20469597,5dccf99db9d9049777368b3b,64ce5acb97489d65b14ecc7a,64cf49cf8ec1c8c7684fce6b,,,,,,,decisionTrl,resources/DP.BMP,resources/DB.BMP,WildCard_NonEx,0.325694427,-0.028888931,1,0,0,1.3988,optionRight,55,7135,3,42,0,42,0,1,,,,,,,,,,,,,,,,,,,,,,,,,,,,,,,,,,,,,,,
,,,,,,,,2023-08-06_08h21.03.074,HF_wild_card,2022.2.4,Win32,60.20469597,5dccf99db9d9049777368b3b,64ce5acb97489d65b14ecc7a,64cf49cf8ec1c8c7684fce6b,,,,,,,sngl,resources/Empty.png,resources/DY.BMP,Door3,0.342361145,-0.028888931,1,0,0,0.6978,optionRight,70,7205,3,43,0,43,0,1,,,,,,,,,,,,,,,,,,,,,,,,,,,,,,,,,,,,,,,
,,,,,,,,2023-08-06_08h21.03.074,HF_wild_card,2022.2.4,Win32,60.20469597,5dccf99db9d9049777368b3b,64ce5acb97489d65b14ecc7a,64cf49cf8ec1c8c7684fce6b,,,,,,,,,,,,,,,,,,,,,,,,,,2,0,2,0,1,,,,,,,,,,,,,,,,,,,,,,,,,,,,,,,,,,
,,,,,,,,2023-08-06_08h21.03.074,HF_wild_card,2022.2.4,Win32,60.20469597,5dccf99db9d9049777368b3b,64ce5acb97489d65b14ecc7a,64cf49cf8ec1c8c7684fce6b,,,,,,,decisionTrl,resources/DG.BMP,resources/DBN.BMP,WildCard_Ex,-0.255416679,-0.060555573,1,0,0,1.9717,optionLeft,95,7300,4,0,0,0,0,1,,,,,,,,,,,,,,,,,,,,,,,,,,,,,,,,,,,,,,,
,,,,,,,,2023-08-06_08h21.03.074,HF_wild_card,2022.2.4,Win32,60.20469597,5dccf99db9d9049777368b3b,64ce5acb97489d65b14ecc7a,64cf49cf8ec1c8c7684fce6b,,,,,,,decisionTrl,resources/DY.BMP,resources/DG.BMP,WildCard_Ex,0.354583359,-0.039444466,1,0,0,0.7451,optionRight,95,7395,4,1,0,1,0,1,,,,,,,,,,,,,,,,,,,,,,,,,,,,,,,,,,,,,,,
,,,,,,,,2023-08-06_08h21.03.074,HF_wild_card,2022.2.4,Win32,60.20469597,5dccf99db9d9049777368b3b,64ce5acb97489d65b14ecc7a,64cf49cf8ec1c8c7684fce6b,,,,,,,decisionTrl,resources/DY.BMP,resources/DBN.BMP,Door3,-0.207083359,-0.091111107,1,0,0,0.931,optionLeft,70,7465,4,2,0,2,0,1,,,,,,,,,,,,,,,,,,,,,,,,,,,,,,,,,,,,,,,
,,,,,,,,2023-08-06_08h21.03.074,HF_wild_card,2022.2.4,Win32,60.20469597,5dccf99db9d9049777368b3b,64ce5acb97489d65b14ecc7a,64cf49cf8ec1c8c7684fce6b,,,,,,,decisionTrl,resources/DG.BMP,resources/DR.BMP,WildCard_Ex,-0.18875,-0.142222214,1,0,0,0.743,optionLeft,95,7560,4,3,0,3,0,1,,,,,,,,,,,,,,,,,,,,,,,,,,,,,,,,,,,,,,,
,,,,,,,,2023-08-06_08h21.03.074,HF_wild_card,2022.2.4,Win32,60.20469597,5dccf99db9d9049777368b3b,64ce5acb97489d65b14ecc7a,64cf49cf8ec1c8c7684fce6b,,,,,,,sngl,resources/Empty.png,resources/DG.BMP,WildCard_Ex,0.368472214,-0.046111107,1,0,0,0.5603,optionRight,5,7565,4,4,0,4,0,1,,,,,,,,,,,,,,,,,,,,,,,,,,,,,,,,,,,,,,,
,,,,,,,,2023-08-06_08h21.03.074,HF_wild_card,2022.2.4,Win32,60.20469597,5dccf99db9d9049777368b3b,64ce5acb97489d65b14ecc7a,64cf49cf8ec1c8c7684fce6b,,,,,,,decisionTrl,resources/DY.BMP,resources/DBN.BMP,Door4,0.335138931,-0.037222252,1,0,0,0.9261,optionRight,80,7645,4,5,0,5,0,1,,,,,,,,,,,,,,,,,,,,,,,,,,,,,,,,,,,,,,,
,,,,,,,,2023-08-06_08h21.03.074,HF_wild_card,2022.2.4,Win32,60.20469597,5dccf99db9d9049777368b3b,64ce5acb97489d65b14ecc7a,64cf49cf8ec1c8c7684fce6b,,,,,,,ctch,resources/DR.BMP,resources/DBN.BMP,Door4,0.342916641,-0.029444466,1,0,0,0.8265,optionRight,80,7725,4,6,0,6,0,1,,,,,,,,,,,,,,,,,,,,,,,,,,,,,,,,,,,,,,,
,,,,,,,,2023-08-06_08h21.03.074,HF_wild_card,2022.2.4,Win32,60.20469597,5dccf99db9d9049777368b3b,64ce5acb97489d65b14ecc7a,64cf49cf8ec1c8c7684fce6b,,,,,,,decisionTrl,resources/DR.BMP,resources/DP.BMP,Door2,0.319027786,-0.028888931,1,0,0,2.1028,optionRight,20,7745,4,7,0,7,0,1,,,,,,,,,,,,,,,,,,,,,,,,,,,,,,,,,,,,,,,
,,,,,,,,2023-08-06_08h21.03.074,HF_wild_card,2022.2.4,Win32,60.20469597,5dccf99db9d9049777368b3b,64ce5acb97489d65b14ecc7a,64cf49cf8ec1c8c7684fce6b,,,,,,,decisionTrl,resources/DBN.BMP,resources/DG.BMP,Door4,-0.212638855,-0.161111145,1,0,0,0.6135,optionLeft,80,7825,4,8,0,8,0,1,,,,,,,,,,,,,,,,,,,,,,,,,,,,,,,,,,,,,,,
,,,,,,,,2023-08-06_08h21.03.074,HF_wild_card,2022.2.4,Win32,60.20469597,5dccf99db9d9049777368b3b,64ce5acb97489d65b14ecc7a,64cf49cf8ec1c8c7684fce6b,,,,,,,decisionTrl,resources/DR.BMP,resources/DG.BMP,WildCard_Ex,0.351805573,-0.045,1,0,0,0.6362,optionRight,5,7830,4,9,0,9,0,1,,,,,,,,,,,,,,,,,,,,,,,,,,,,,,,,,,,,,,,
,,,,,,,,2023-08-06_08h21.03.074,HF_wild_card,2022.2.4,Win32,60.20469597,5dccf99db9d9049777368b3b,64ce5acb97489d65b14ecc7a,64cf49cf8ec1c8c7684fce6b,,,,,,,sngl,resources/Empty.png,resources/DR.BMP,Door1,0.347916641,-0.054444466,1,0,0,0.6151,optionRight,30,7860,4,10,0,10,0,1,,,,,,,,,,,,,,,,,,,,,,,,,,,,,,,,,,,,,,,
,,,,,,,,2023-08-06_08h21.03.074,HF_wild_card,2022.2.4,Win32,60.20469597,5dccf99db9d9049777368b3b,64ce5acb97489d65b14ecc7a,64cf49cf8ec1c8c7684fce6b,,,,,,,sngl,resources/DR.BMP,resources/Empty.png,Door1,-0.191527786,-0.171666641,1,0,0,0.5855,optionLeft,30,7890,4,11,0,11,0,1,,,,,,,,,,,,,,,,,,,,,,,,,,,,,,,,,,,,,,,
,,,,,,,,2023-08-06_08h21.03.074,HF_wild_card,2022.2.4,Win32,60.20469597,5dccf99db9d9049777368b3b,64ce5acb97489d65b14ecc7a,64cf49cf8ec1c8c7684fce6b,,,,,,,decisionTrl,resources/DY.BMP,resources/DBN.BMP,Door4,0.391805573,-0.008888893,1,0,0,1.7809,optionRight,60,7950,4,12,0,12,0,1,,,,,,,,,,,,,,,,,,,,,,,,,,,,,,,,,,,,,,,
,,,,,,,,2023-08-06_08h21.03.074,HF_wild_card,2022.2.4,Win32,60.20469597,5dccf99db9d9049777368b3b,64ce5acb97489d65b14ecc7a,64cf49cf8ec1c8c7684fce6b,,,,,,,decisionTrl,resources/DBN.BMP,resources/DY.BMP,Door3,0.388472214,-0.008333321,1,0,0,0.7859,optionRight,70,8020,4,13,0,13,0,1,,,,,,,,,,,,,,,,,,,,,,,,,,,,,,,,,,,,,,,
,,,,,,,,2023-08-06_08h21.03.074,HF_wild_card,2022.2.4,Win32,60.20469597,5dccf99db9d9049777368b3b,64ce5acb97489d65b14ecc7a,64cf49cf8ec1c8c7684fce6b,,,,,,,sngl,resources/DG.BMP,resources/Empty.png,WildCard_Ex,-0.198194427,-0.141666641,1,0,0,0.6264,optionLeft,95,8115,4,14,0,14,0,1,,,,,,,,,,,,,,,,,,,,,,,,,,,,,,,,,,,,,,,
,,,,,,,,2023-08-06_08h21.03.074,HF_wild_card,2022.2.4,Win32,60.20469597,5dccf99db9d9049777368b3b,64ce5acb97489d65b14ecc7a,64cf49cf8ec1c8c7684fce6b,,,,,,,ctch,resources/DBN.BMP,resources/DR.BMP,Door4,-0.187638855,-0.134444466,1,0,0,0.7606,optionLeft,60,8175,4,15,0,15,0,1,,,,,,,,,,,,,,,,,,,,,,,,,,,,,,,,,,,,,,,
,,,,,,,,2023-08-06_08h21.03.074,HF_wild_card,2022.2.4,Win32,60.20469597,5dccf99db9d9049777368b3b,64ce5acb97489d65b14ecc7a,64cf49cf8ec1c8c7684fce6b,,,,,,,sngl,resources/Empty.png,resources/DBN.BMP,Door4,0.341805573,-0.030555573,1,0,0,0.5478,optionRight,80,8255,4,16,0,16,0,1,,,,,,,,,,,,,,,,,,,,,,,,,,,,,,,,,,,,,,,
,,,,,,,,2023-08-06_08h21.03.074,HF_wild_card,2022.2.4,Win32,60.20469597,5dccf99db9d9049777368b3b,64ce5acb97489d65b14ecc7a,64cf49cf8ec1c8c7684fce6b,,,,,,,sngl,resources/DP.BMP,resources/Empty.png,Door2,-0.167083282,-0.15,1,0,0,0.7529,optionLeft,20,8275,4,17,0,17,0,1,,,,,,,,,,,,,,,,,,,,,,,,,,,,,,,,,,,,,,,
,,,,,,,,2023-08-06_08h21.03.074,HF_wild_card,2022.2.4,Win32,60.20469597,5dccf99db9d9049777368b3b,64ce5acb97489d65b14ecc7a,64cf49cf8ec1c8c7684fce6b,,,,,,,ctch,resources/DR.BMP,resources/DBN.BMP,Door4,0.333472214,-0.027777786,1,0,0,0.6099,optionRight,60,8335,4,18,0,18,0,1,,,,,,,,,,,,,,,,,,,,,,,,,,,,,,,,,,,,,,,
,,,,,,,,2023-08-06_08h21.03.074,HF_wild_card,2022.2.4,Win32,60.20469597,5dccf99db9d9049777368b3b,64ce5acb97489d65b14ecc7a,64cf49cf8ec1c8c7684fce6b,,,,,,,ctch,resources/DBN.BMP,resources/DR.BMP,Door4,-0.224861069,-0.150555573,1,0,0,0.6478,optionLeft,60,8395,4,19,0,19,0,1,,,,,,,,,,,,,,,,,,,,,,,,,,,,,,,,,,,,,,,
,,,,,,,,2023-08-06_08h21.03.074,HF_wild_card,2022.2.4,Win32,60.20469597,5dccf99db9d9049777368b3b,64ce5acb97489d65b14ecc7a,64cf49cf8ec1c8c7684fce6b,,,,,,,ctch,resources/DY.BMP,resources/DP.BMP,Door3,-0.184305573,-0.127777786,1,0,0,0.6656,optionLeft,70,8465,4,20,0,20,0,1,,,,,,,,,,,,,,,,,,,,,,,,,,,,,,,,,,,,,,,
,,,,,,,,2023-08-06_08h21.03.074,HF_wild_card,2022.2.4,Win32,60.20469597,5dccf99db9d9049777368b3b,64ce5acb97489d65b14ecc7a,64cf49cf8ec1c8c7684fce6b,,,,,,,decisionTrl,resources/DR.BMP,resources/DP.BMP,Door1,-0.191527786,-0.137222214,1,0,0,1.9772,optionLeft,30,8495,4,21,0,21,0,1,,,,,,,,,,,,,,,,,,,,,,,,,,,,,,,,,,,,,,,
,,,,,,,,2023-08-06_08h21.03.074,HF_wild_card,2022.2.4,Win32,60.20469597,5dccf99db9d9049777368b3b,64ce5acb97489d65b14ecc7a,64cf49cf8ec1c8c7684fce6b,,,,,,,decisionTrl,resources/DG.BMP,resources/DP.BMP,WildCard_Ex,-0.182083359,-0.132777786,1,0,0,0.6602,optionLeft,5,8500,4,22,0,22,0,1,,,,,,,,,,,,,,,,,,,,,,,,,,,,,,,,,,,,,,,
,,,,,,,,2023-08-06_08h21.03.074,HF_wild_card,2022.2.4,Win32,60.20469597,5dccf99db9d9049777368b3b,64ce5acb97489d65b14ecc7a,64cf49cf8ec1c8c7684fce6b,,,,,,,decisionTrl,resources/DP.BMP,resources/DG.BMP,WildCard_Ex,0.375138931,-0.053333321,1,0,0,0.6942,optionRight,95,8595,4,23,0,23,0,1,,,,,,,,,,,,,,,,,,,,,,,,,,,,,,,,,,,,,,,
,,,,,,,,2023-08-06_08h21.03.074,HF_wild_card,2022.2.4,Win32,60.20469597,5dccf99db9d9049777368b3b,64ce5acb97489d65b14ecc7a,64cf49cf8ec1c8c7684fce6b,,,,,,,decisionTrl,resources/DG.BMP,resources/DY.BMP,Door3,0.343472214,-0.031666718,1,0,0,1.7437,optionRight,70,8665,4,24,0,24,0,1,,,,,,,,,,,,,,,,,,,,,,,,,,,,,,,,,,,,,,,
,,,,,,,,2023-08-06_08h21.03.074,HF_wild_card,2022.2.4,Win32,60.20469597,5dccf99db9d9049777368b3b,64ce5acb97489d65b14ecc7a,64cf49cf8ec1c8c7684fce6b,,,,,,,sngl,resources/Empty.png,resources/DG.BMP,WildCard_Ex,0.365138931,-0.027222214,1,0,0,0.5638,optionRight,95,8760,4,25,0,25,0,1,,,,,,,,,,,,,,,,,,,,,,,,,,,,,,,,,,,,,,,
,,,,,,,,2023-08-06_08h21.03.074,HF_wild_card,2022.2.4,Win32,60.20469597,5dccf99db9d9049777368b3b,64ce5acb97489d65b14ecc7a,64cf49cf8ec1c8c7684fce6b,,,,,,,sngl,resources/Empty.png,resources/DP.BMP,Door2,0.347361145,-0.040000038,1,0,0,0.8153,optionRight,40,8800,4,26,0,26,0,1,,,,,,,,,,,,,,,,,,,,,,,,,,,,,,,,,,,,,,,
,,,,,,,,2023-08-06_08h21.03.074,HF_wild_card,2022.2.4,Win32,60.20469597,5dccf99db9d9049777368b3b,64ce5acb97489d65b14ecc7a,64cf49cf8ec1c8c7684fce6b,,,,,,,ctch,resources/DP.BMP,resources/DY.BMP,Door3,0.374027786,-0.041111107,1,0,0,0.9143,optionRight,70,8870,4,27,0,27,0,1,,,,,,,,,,,,,,,,,,,,,,,,,,,,,,,,,,,,,,,
,,,,,,,,2023-08-06_08h21.03.074,HF_wild_card,2022.2.4,Win32,60.20469597,5dccf99db9d9049777368b3b,64ce5acb97489d65b14ecc7a,64cf49cf8ec1c8c7684fce6b,,,,,,,decisionTrl,resources/DP.BMP,resources/DR.BMP,Door2,-0.169861069,-0.147222214,1,0,0,1.1473,optionLeft,40,8910,4,28,0,28,0,1,,,,,,,,,,,,,,,,,,,,,,,,,,,,,,,,,,,,,,,
,,,,,,,,2023-08-06_08h21.03.074,HF_wild_card,2022.2.4,Win32,60.20469597,5dccf99db9d9049777368b3b,64ce5acb97489d65b14ecc7a,64cf49cf8ec1c8c7684fce6b,,,,,,,decisionTrl,resources/DP.BMP,resources/DR.BMP,Door2,-0.158749924,-0.139444466,1,0,0,1.2488,optionLeft,40,8950,4,29,0,29,0,1,,,,,,,,,,,,,,,,,,,,,,,,,,,,,,,,,,,,,,,
,,,,,,,,2023-08-06_08h21.03.074,HF_wild_card,2022.2.4,Win32,60.20469597,5dccf99db9d9049777368b3b,64ce5acb97489d65b14ecc7a,64cf49cf8ec1c8c7684fce6b,,,,,,,decisionTrl,resources/DP.BMP,resources/DR.BMP,Door2,-0.152638855,-0.139444466,1,0,0,0.632,optionLeft,20,8970,4,30,0,30,0,1,,,,,,,,,,,,,,,,,,,,,,,,,,,,,,,,,,,,,,,
,,,,,,,,2023-08-06_08h21.03.074,HF_wild_card,2022.2.4,Win32,60.20469597,5dccf99db9d9049777368b3b,64ce5acb97489d65b14ecc7a,64cf49cf8ec1c8c7684fce6b,,,,,,,sngl,resources/Empty.png,resources/DY.BMP,Door3,0.293472214,-0.028333321,1,0,0,0.5632,optionRight,70,9040,4,31,0,31,0,1,,,,,,,,,,,,,,,,,,,,,,,,,,,,,,,,,,,,,,,
,,,,,,,,2023-08-06_08h21.03.074,HF_wild_card,2022.2.4,Win32,60.20469597,5dccf99db9d9049777368b3b,64ce5acb97489d65b14ecc7a,64cf49cf8ec1c8c7684fce6b,,,,,,,sngl,resources/DY.BMP,resources/Empty.png,Door3,-0.190416641,-0.165,1,0,0,0.5655,optionLeft,70,9110,4,32,0,32,0,1,,,,,,,,,,,,,,,,,,,,,,,,,,,,,,,,,,,,,,,
,,,,,,,,2023-08-06_08h21.03.074,HF_wild_card,2022.2.4,Win32,60.20469597,5dccf99db9d9049777368b3b,64ce5acb97489d65b14ecc7a,64cf49cf8ec1c8c7684fce6b,,,,,,,decisionTrl,resources/DR.BMP,resources/DP.BMP,Door2,0.266805573,-0.031666718,1,0,0,1.2492,optionRight,40,9150,4,33,0,33,0,1,,,,,,,,,,,,,,,,,,,,,,,,,,,,,,,,,,,,,,,
,,,,,,,,2023-08-06_08h21.03.074,HF_wild_card,2022.2.4,Win32,60.20469597,5dccf99db9d9049777368b3b,64ce5acb97489d65b14ecc7a,64cf49cf8ec1c8c7684fce6b,,,,,,,sngl,resources/DG.BMP,resources/Empty.png,WildCard_Ex,-0.166527786,-0.148888931,1,0,0,0.732,optionLeft,5,9155,4,34,0,34,0,1,,,,,,,,,,,,,,,,,,,,,,,,,,,,,,,,,,,,,,,
,,,,,,,,2023-08-06_08h21.03.074,HF_wild_card,2022.2.4,Win32,60.20469597,5dccf99db9d9049777368b3b,64ce5acb97489d65b14ecc7a,64cf49cf8ec1c8c7684fce6b,,,,,,,decisionTrl,resources/DP.BMP,resources/DR.BMP,Door1,0.308472214,-0.032222214,1,0,0,1.9325,optionRight,30,9185,4,35,0,35,0,1,,,,,,,,,,,,,,,,,,,,,,,,,,,,,,,,,,,,,,,
,,,,,,,,2023-08-06_08h21.03.074,HF_wild_card,2022.2.4,Win32,60.20469597,5dccf99db9d9049777368b3b,64ce5acb97489d65b14ecc7a,64cf49cf8ec1c8c7684fce6b,,,,,,,decisionTrl,resources/DBN.BMP,resources/DY.BMP,Door3,0.320138931,-0.037777786,1,0,0,0.8963,optionRight,70,9255,4,36,0,36,0,1,,,,,,,,,,,,,,,,,,,,,,,,,,,,,,,,,,,,,,,
,,,,,,,,2023-08-06_08h21.03.074,HF_wild_card,2022.2.4,Win32,60.20469597,5dccf99db9d9049777368b3b,64ce5acb97489d65b14ecc7a,64cf49cf8ec1c8c7684fce6b,,,,,,,decisionTrl,resources/DY.BMP,resources/DBN.BMP,Door3,-0.164861069,-0.137777786,1,0,0,0.8453,optionLeft,70,9325,4,37,0,37,0,1,,,,,,,,,,,,,,,,,,,,,,,,,,,,,,,,,,,,,,,
,,,,,,,,2023-08-06_08h21.03.074,HF_wild_card,2022.2.4,Win32,60.20469597,5dccf99db9d9049777368b3b,64ce5acb97489d65b14ecc7a,64cf49cf8ec1c8c7684fce6b,,,,,,,ctch,resources/DY.BMP,resources/DP.BMP,Door3,-0.160972214,-0.138333321,1,0,0,0.7308,optionLeft,70,9395,4,38,0,38,0,1,,,,,,,,,,,,,,,,,,,,,,,,,,,,,,,,,,,,,,,
,,,,,,,,2023-08-06_08h21.03.074,HF_wild_card,2022.2.4,Win32,60.20469597,5dccf99db9d9049777368b3b,64ce5acb97489d65b14ecc7a,64cf49cf8ec1c8c7684fce6b,,,,,,,decisionTrl,resources/DBN.BMP,resources/DY.BMP,Door3,0.285694427,-0.029444466,1,0,0,0.6642,optionRight,70,9465,4,39,0,39,0,1,,,,,,,,,,,,,,,,,,,,,,,,,,,,,,,,,,,,,,,
,,,,,,,,2023-08-06_08h21.03.074,HF_wild_card,2022.2.4,Win32,60.20469597,5dccf99db9d9049777368b3b,64ce5acb97489d65b14ecc7a,64cf49cf8ec1c8c7684fce6b,,,,,,,decisionTrl,resources/DBN.BMP,resources/DY.BMP,Door3,0.316805573,-0.031666718,1,0,0,0.5643,optionRight,70,9535,4,40,0,40,0,1,,,,,,,,,,,,,,,,,,,,,,,,,,,,,,,,,,,,,,,
,,,,,,,,2023-08-06_08h21.03.074,HF_wild_card,2022.2.4,Win32,60.20469597,5dccf99db9d9049777368b3b,64ce5acb97489d65b14ecc7a,64cf49cf8ec1c8c7684fce6b,,,,,,,ctch,resources/DP.BMP,resources/DY.BMP,Door3,0.291805573,-0.031666718,1,0,0,0.4797,optionRight,70,9605,4,41,0,41,0,1,,,,,,,,,,,,,,,,,,,,,,,,,,,,,,,,,,,,,,,
,,,,,,,,2023-08-06_08h21.03.074,HF_wild_card,2022.2.4,Win32,60.20469597,5dccf99db9d9049777368b3b,64ce5acb97489d65b14ecc7a,64cf49cf8ec1c8c7684fce6b,,,,,,,decisionTrl,resources/DR.BMP,resources/DP.BMP,Door2,0.386805573,-0.122777786,1,0,0,1.3982,optionRight,20,9625,4,42,0,42,0,1,,,,,,,,,,,,,,,,,,,,,,,,,,,,,,,,,,,,,,,
,,,,,,,,2023-08-06_08h21.03.074,HF_wild_card,2022.2.4,Win32,60.20469597,5dccf99db9d9049777368b3b,64ce5acb97489d65b14ecc7a,64cf49cf8ec1c8c7684fce6b,,,,,,,sngl,resources/DBN.BMP,resources/Empty.png,Door4,-0.195416641,-0.1,1,0,0,0.5149,optionLeft,60,9685,4,43,0,43,0,1,,,,,,,,,,,,,,,,,,,,,,,,,,,,,,,,,,,,,,,
,,,,,,,,2023-08-06_08h21.03.074,HF_wild_card,2022.2.4,Win32,60.20469597,5dccf99db9d9049777368b3b,64ce5acb97489d65b14ecc7a,64cf49cf8ec1c8c7684fce6b,,,,,,,,,,,,,,,,,,,,,,,,,,3,0,3,0,1,,,,,,,,,,,,,,,,,,,,,,,,,,,,,,,,,,
,,,,,,,,2023-08-06_08h21.03.074,HF_wild_card,2022.2.4,Win32,60.20469597,5dccf99db9d9049777368b3b,64ce5acb97489d65b14ecc7a,64cf49cf8ec1c8c7684fce6b,,,,,,,decisionTrl,resources/DP.BMP,resources/DG.BMP,WildCard_Ex,0.287361145,0,1,0,0,0.9369,optionRight,5,9690,5,0,0,0,0,1,,,,,,,,,,,,,,,,,,,,,,,,,,,,,,,,,,,,,,,
,,,,,,,,2023-08-06_08h21.03.074,HF_wild_card,2022.2.4,Win32,60.20469597,5dccf99db9d9049777368b3b,64ce5acb97489d65b14ecc7a,64cf49cf8ec1c8c7684fce6b,,,,,,,decisionTrl,resources/DY.BMP,resources/DBN.BMP,Door3,-0.210416641,-0.1,1,0,0,3.3076,optionLeft,70,9760,5,1,0,1,0,1,,,,,,,,,,,,,,,,,,,,,,,,,,,,,,,,,,,,,,,
,,,,,,,,2023-08-06_08h21.03.074,HF_wild_card,2022.2.4,Win32,60.20469597,5dccf99db9d9049777368b3b,64ce5acb97489d65b14ecc7a,64cf49cf8ec1c8c7684fce6b,,,,,,,decisionTrl,resources/DY.BMP,resources/DBN.BMP,Door3,-0.108749924,-0.111666679,1,0,0,0.9139,optionLeft,70,9830,5,2,0,2,0,1,,,,,,,,,,,,,,,,,,,,,,,,,,,,,,,,,,,,,,,
,,,,,,,,2023-08-06_08h21.03.074,HF_wild_card,2022.2.4,Win32,60.20469597,5dccf99db9d9049777368b3b,64ce5acb97489d65b14ecc7a,64cf49cf8ec1c8c7684fce6b,,,,,,,decisionTrl,resources/DP.BMP,resources/DR.BMP,Door1,0.370138931,-0.042777824,1,0,0,1.2981,optionRight,30,9860,5,3,0,3,0,1,,,,,,,,,,,,,,,,,,,,,,,,,,,,,,,,,,,,,,,
,,,,,,,,2023-08-06_08h21.03.074,HF_wild_card,2022.2.4,Win32,60.20469597,5dccf99db9d9049777368b3b,64ce5acb97489d65b14ecc7a,64cf49cf8ec1c8c7684fce6b,,,,,,,sngl,resources/DG.BMP,resources/Empty.png,WildCard_Ex,-0.194861069,-0.166111145,1,0,0,0.5792,optionLeft,5,9865,5,4,0,4,0,1,,,,,,,,,,,,,,,,,,,,,,,,,,,,,,,,,,,,,,,
,,,,,,,,2023-08-06_08h21.03.074,HF_wild_card,2022.2.4,Win32,60.20469597,5dccf99db9d9049777368b3b,64ce5acb97489d65b14ecc7a,64cf49cf8ec1c8c7684fce6b,,,,,,,decisionTrl,resources/DR.BMP,resources/DP.BMP,Door1,-0.177638855,-0.154444427,1,0,0,0.8649,optionLeft,30,9895,5,5,0,5,0,1,,,,,,,,,,,,,,,,,,,,,,,,,,,,,,,,,,,,,,,
,,,,,,,,2023-08-06_08h21.03.074,HF_wild_card,2022.2.4,Win32,60.20469597,5dccf99db9d9049777368b3b,64ce5acb97489d65b14ecc7a,64cf49cf8ec1c8c7684fce6b,,,,,,,ctch,resources/DY.BMP,resources/DP.BMP,Door2,0.354027786,-0.051666679,1,0,0,0.53,optionRight,40,9935,5,6,0,6,0,1,,,,,,,,,,,,,,,,,,,,,,,,,,,,,,,,,,,,,,,
,,,,,,,,2023-08-06_08h21.03.074,HF_wild_card,2022.2.4,Win32,60.20469597,5dccf99db9d9049777368b3b,64ce5acb97489d65b14ecc7a,64cf49cf8ec1c8c7684fce6b,,,,,,,sngl,resources/Empty.png,resources/DR.BMP,Door1,0.339583359,-0.048333359,1,0,0,0.5984,optionRight,30,9965,5,7,0,7,0,1,,,,,,,,,,,,,,,,,,,,,,,,,,,,,,,,,,,,,,,
,,,,,,,,2023-08-06_08h21.03.074,HF_wild_card,2022.2.4,Win32,60.20469597,5dccf99db9d9049777368b3b,64ce5acb97489d65b14ecc7a,64cf49cf8ec1c8c7684fce6b,,,,,,,ctch,resources/DR.BMP,resources/DBN.BMP,Door4,0.316805573,-0.046111107,1,0,0,0.6648,optionRight,60,10025,5,8,0,8,0,1,,,,,,,,,,,,,,,,,,,,,,,,,,,,,,,,,,,,,,,
,,,,,,,,2023-08-06_08h21.03.074,HF_wild_card,2022.2.4,Win32,60.20469597,5dccf99db9d9049777368b3b,64ce5acb97489d65b14ecc7a,64cf49cf8ec1c8c7684fce6b,,,,,,,decisionTrl,resources/DP.BMP,resources/DR.BMP,Door2,-0.222638855,-0.177777786,1,0,0,0.6309,optionLeft,20,10045,5,9,0,9,0,1,,,,,,,,,,,,,,,,,,,,,,,,,,,,,,,,,,,,,,,
,,,,,,,,2023-08-06_08h21.03.074,HF_wild_card,2022.2.4,Win32,60.20469597,5dccf99db9d9049777368b3b,64ce5acb97489d65b14ecc7a,64cf49cf8ec1c8c7684fce6b,,,,,,,ctch,resources/DP.BMP,resources/DY.BMP,Door3,0.323472214,-0.056111107,1,0,0,0.6975,optionRight,70,10115,5,10,0,10,0,1,,,,,,,,,,,,,,,,,,,,,,,,,,,,,,,,,,,,,,,
,,,,,,,,2023-08-06_08h21.03.074,HF_wild_card,2022.2.4,Win32,60.20469597,5dccf99db9d9049777368b3b,64ce5acb97489d65b14ecc7a,64cf49cf8ec1c8c7684fce6b,,,,,,,sngl,resources/DR.BMP,resources/Empty.png,Door1,-0.19375,-0.180555573,1,0,0,0.7633,optionLeft,30,10145,5,11,0,11,0,1,,,,,,,,,,,,,,,,,,,,,,,,,,,,,,,,,,,,,,,
,,,,,,,,2023-08-06_08h21.03.074,HF_wild_card,2022.2.4,Win32,60.20469597,5dccf99db9d9049777368b3b,64ce5acb97489d65b14ecc7a,64cf49cf8ec1c8c7684fce6b,,,,,,,decisionTrl,resources/DBN.BMP,resources/DY.BMP,Door3,0.342361145,-0.058888893,1,0,0,0.5979,optionRight,70,10215,5,12,0,12,0,1,,,,,,,,,,,,,,,,,,,,,,,,,,,,,,,,,,,,,,,
,,,,,,,,2023-08-06_08h21.03.074,HF_wild_card,2022.2.4,Win32,60.20469597,5dccf99db9d9049777368b3b,64ce5acb97489d65b14ecc7a,64cf49cf8ec1c8c7684fce6b,,,,,,,ctch,resources/DR.BMP,resources/DBN.BMP,Door4,0.33125,-0.049444466,1,0,0,0.748,optionRight,80,10295,5,13,0,13,0,1,,,,,,,,,,,,,,,,,,,,,,,,,,,,,,,,,,,,,,,
,,,,,,,,2023-08-06_08h21.03.074,HF_wild_card,2022.2.4,Win32,60.20469597,5dccf99db9d9049777368b3b,64ce5acb97489d65b14ecc7a,64cf49cf8ec1c8c7684fce6b,,,,,,,decisionTrl,resources/DP.BMP,resources/DR.BMP,Door2,-0.14875,-0.083333321,1,0,0,1.3322,optionLeft,40,10335,5,14,0,14,0,1,,,,,,,,,,,,,,,,,,,,,,,,,,,,,,,,,,,,,,,
,,,,,,,,2023-08-06_08h21.03.074,HF_wild_card,2022.2.4,Win32,60.20469597,5dccf99db9d9049777368b3b,64ce5acb97489d65b14ecc7a,64cf49cf8ec1c8c7684fce6b,,,,,,,decisionTrl,resources/DBN.BMP,resources/DY.BMP,Door3,0.31125,-0.052222214,1,0,0,0.9145,optionRight,70,10405,5,15,0,15,0,1,,,,,,,,,,,,,,,,,,,,,,,,,,,,,,,,,,,,,,,
,,,,,,,,2023-08-06_08h21.03.074,HF_wild_card,2022.2.4,Win32,60.20469597,5dccf99db9d9049777368b3b,64ce5acb97489d65b14ecc7a,64cf49cf8ec1c8c7684fce6b,,,,,,,sngl,resources/Empty.png,resources/DP.BMP,Door2,0.294027786,-0.058888893,1,0,0,0.7816,optionRight,20,10425,5,16,0,16,0,1,,,,,,,,,,,,,,,,,,,,,,,,,,,,,,,,,,,,,,,
,,,,,,,,2023-08-06_08h21.03.074,HF_wild_card,2022.2.4,Win32,60.20469597,5dccf99db9d9049777368b3b,64ce5acb97489d65b14ecc7a,64cf49cf8ec1c8c7684fce6b,,,,,,,decisionTrl,resources/DR.BMP,resources/DP.BMP,Door1,-0.018194427,-0.012222252,1,0,0,2.0149,optionLeft,30,10455,5,17,0,17,0,1,,,,,,,,,,,,,,,,,,,,,,,,,,,,,,,,,,,,,,,
,,,,,,,,2023-08-06_08h21.03.074,HF_wild_card,2022.2.4,Win32,60.20469597,5dccf99db9d9049777368b3b,64ce5acb97489d65b14ecc7a,64cf49cf8ec1c8c7684fce6b,,,,,,,sngl,resources/DP.BMP,resources/Empty.png,Door2,-0.214861069,-0.171666641,1,0,0,0.5472,optionLeft,40,10495,5,18,0,18,0,1,,,,,,,,,,,,,,,,,,,,,,,,,,,,,,,,,,,,,,,
,,,,,,,,2023-08-06_08h21.03.074,HF_wild_card,2022.2.4,Win32,60.20469597,5dccf99db9d9049777368b3b,64ce5acb97489d65b14ecc7a,64cf49cf8ec1c8c7684fce6b,,,,,,,ctch,resources/DP.BMP,resources/DY.BMP,Door3,0.343472214,-0.053333321,1,0,0,0.4978,optionRight,70,10565,5,19,0,19,0,1,,,,,,,,,,,,,,,,,,,,,,,,,,,,,,,,,,,,,,,
,,,,,,,,2023-08-06_08h21.03.074,HF_wild_card,2022.2.4,Win32,60.20469597,5dccf99db9d9049777368b3b,64ce5acb97489d65b14ecc7a,64cf49cf8ec1c8c7684fce6b,,,,,,,sngl,resources/DY.BMP,resources/Empty.png,Door3,-0.165416641,-0.095555573,1,0,0,0.5139,optionLeft,70,10635,5,20,0,20,0,1,,,,,,,,,,,,,,,,,,,,,,,,,,,,,,,,,,,,,,,
,,,,,,,,2023-08-06_08h21.03.074,HF_wild_card,2022.2.4,Win32,60.20469597,5dccf99db9d9049777368b3b,64ce5acb97489d65b14ecc7a,64cf49cf8ec1c8c7684fce6b,,,,,,,sngl,resources/Empty.png,resources/DY.BMP,Door3,0.335138931,-0.055,1,0,0,0.4945,optionRight,70,10705,5,21,0,21,0,1,,,,,,,,,,,,,,,,,,,,,,,,,,,,,,,,,,,,,,,
,,,,,,,,2023-08-06_08h21.03.074,HF_wild_card,2022.2.4,Win32,60.20469597,5dccf99db9d9049777368b3b,64ce5acb97489d65b14ecc7a,64cf49cf8ec1c8c7684fce6b,,,,,,,decisionTrl,resources/DY.BMP,resources/DBN.BMP,Door3,-0.237083359,-0.197777786,1,0,0,0.5457,optionLeft,70,10775,5,22,0,22,0,1,,,,,,,,,,,,,,,,,,,,,,,,,,,,,,,,,,,,,,,
,,,,,,,,2023-08-06_08h21.03.074,HF_wild_card,2022.2.4,Win32,60.20469597,5dccf99db9d9049777368b3b,64ce5acb97489d65b14ecc7a,64cf49cf8ec1c8c7684fce6b,,,,,,,decisionTrl,resources/DG.BMP,resources/DY.BMP,Door3,0.315138931,-0.056111107,1,0,0,0.5125,optionRight,70,10845,5,23,0,23,0,1,,,,,,,,,,,,,,,,,,,,,,,,,,,,,,,,,,,,,,,
,,,,,,,,2023-08-06_08h21.03.074,HF_wild_card,2022.2.4,Win32,60.20469597,5dccf99db9d9049777368b3b,64ce5acb97489d65b14ecc7a,64cf49cf8ec1c8c7684fce6b,,,,,,,decisionTrl,resources/DR.BMP,resources/DP.BMP,Door1,-0.236527786,-0.187777786,1,0,0,1.6315,optionLeft,30,10875,5,24,0,24,0,1,,,,,,,,,,,,,,,,,,,,,,,,,,,,,,,,,,,,,,,
,,,,,,,,2023-08-06_08h21.03.074,HF_wild_card,2022.2.4,Win32,60.20469597,5dccf99db9d9049777368b3b,64ce5acb97489d65b14ecc7a,64cf49cf8ec1c8c7684fce6b,,,,,,,ctch,resources/DY.BMP,resources/DP.BMP,Door3,-0.21375,-0.167222214,1,0,0,0.6641,optionLeft,70,10945,5,25,0,25,0,1,,,,,,,,,,,,,,,,,,,,,,,,,,,,,,,,,,,,,,,
,,,,,,,,2023-08-06_08h21.03.074,HF_wild_card,2022.2.4,Win32,60.20469597,5dccf99db9d9049777368b3b,64ce5acb97489d65b14ecc7a,64cf49cf8ec1c8c7684fce6b,,,,,,,decisionTrl,resources/DBN.BMP,resources/DY.BMP,Door3,0.362361145,-0.052222214,1,0,0,0.5305,optionRight,70,11015,5,26,0,26,0,1,,,,,,,,,,,,,,,,,,,,,,,,,,,,,,,,,,,,,,,
,,,,,,,,2023-08-06_08h21.03.074,HF_wild_card,2022.2.4,Win32,60.20469597,5dccf99db9d9049777368b3b,64ce5acb97489d65b14ecc7a,64cf49cf8ec1c8c7684fce6b,,,,,,,decisionTrl,resources/DR.BMP,resources/DP.BMP,Door2,0.352916641,-0.045,1,0,0,1.879,optionRight,40,11055,5,27,0,27,0,1,,,,,,,,,,,,,,,,,,,,,,,,,,,,,,,,,,,,,,,
,,,,,,,,2023-08-06_08h21.03.074,HF_wild_card,2022.2.4,Win32,60.20469597,5dccf99db9d9049777368b3b,64ce5acb97489d65b14ecc7a,64cf49cf8ec1c8c7684fce6b,,,,,,,ctch,resources/DBN.BMP,resources/DR.BMP,Door4,-0.20875,-0.121111107,1,0,0,0.9646,optionLeft,60,11115,5,28,0,28,0,1,,,,,,,,,,,,,,,,,,,,,,,,,,,,,,,,,,,,,,,
,,,,,,,,2023-08-06_08h21.03.074,HF_wild_card,2022.2.4,Win32,60.20469597,5dccf99db9d9049777368b3b,64ce5acb97489d65b14ecc7a,64cf49cf8ec1c8c7684fce6b,,,,,,,decisionTrl,resources/DY.BMP,resources/DG.BMP,Door3,-0.18875,-0.157777786,1,0,0,0.6811,optionLeft,70,11185,5,29,0,29,0,1,,,,,,,,,,,,,,,,,,,,,,,,,,,,,,,,,,,,,,,
,,,,,,,,2023-08-06_08h21.03.074,HF_wild_card,2022.2.4,Win32,60.20469597,5dccf99db9d9049777368b3b,64ce5acb97489d65b14ecc7a,64cf49cf8ec1c8c7684fce6b,,,,,,,sngl,resources/Empty.png,resources/DG.BMP,WildCard_Ex,0.341805573,-0.059444466,1,0,0,0.5484,optionRight,5,11190,5,30,0,30,0,1,,,,,,,,,,,,,,,,,,,,,,,,,,,,,,,,,,,,,,,
,,,,,,,,2023-08-06_08h21.03.074,HF_wild_card,2022.2.4,Win32,60.20469597,5dccf99db9d9049777368b3b,64ce5acb97489d65b14ecc7a,64cf49cf8ec1c8c7684fce6b,,,,,,,decisionTrl,resources/DBN.BMP,resources/DG.BMP,Door4,-0.189861069,-0.146666641,1,0,0,0.8487,optionLeft,60,11250,5,31,0,31,0,1,,,,,,,,,,,,,,,,,,,,,,,,,,,,,,,,,,,,,,,
,,,,,,,,2023-08-06_08h21.03.074,HF_wild_card,2022.2.4,Win32,60.20469597,5dccf99db9d9049777368b3b,64ce5acb97489d65b14ecc7a,64cf49cf8ec1c8c7684fce6b,,,,,,,sngl,resources/Empty.png,resources/DBN.BMP,Door4,0.335694427,-0.061111107,1,0,0,0.6146,optionRight,60,11310,5,32,0,32,0,1,,,,,,,,,,,,,,,,,,,,,,,,,,,,,,,,,,,,,,,
,,,,,,,,2023-08-06_08h21.03.074,HF_wild_card,2022.2.4,Win32,60.20469597,5dccf99db9d9049777368b3b,64ce5acb97489d65b14ecc7a,64cf49cf8ec1c8c7684fce6b,,,,,,,decisionTrl,resources/DR.BMP,resources/DG.BMP,WildCard_Ex,0.315138931,-0.052777786,1,0,0,1.1637,optionRight,5,11315,5,33,0,33,0,1,,,,,,,,,,,,,,,,,,,,,,,,,,,,,,,,,,,,,,,
,,,,,,,,2023-08-06_08h21.03.074,HF_wild_card,2022.2.4,Win32,60.20469597,5dccf99db9d9049777368b3b,64ce5acb97489d65b14ecc7a,64cf49cf8ec1c8c7684fce6b,,,,,,,sngl,resources/DG.BMP,resources/Empty.png,WildCard_Ex,-0.209305573,-0.162222214,1,0,0,0.5469,optionLeft,95,11410,5,34,0,34,0,1,,,,,,,,,,,,,,,,,,,,,,,,,,,,,,,,,,,,,,,
,,,,,,,,2023-08-06_08h21.03.074,HF_wild_card,2022.2.4,Win32,60.20469597,5dccf99db9d9049777368b3b,64ce5acb97489d65b14ecc7a,64cf49cf8ec1c8c7684fce6b,,,,,,,sngl,resources/DBN.BMP,resources/Empty.png,Door4,-0.184861069,-0.157222214,1,0,0,0.5813,optionLeft,80,11490,5,35,0,35,0,1,,,,,,,,,,,,,,,,,,,,,,,,,,,,,,,,,,,,,,,
,,,,,,,,2023-08-06_08h21.03.074,HF_wild_card,2022.2.4,Win32,60.20469597,5dccf99db9d9049777368b3b,64ce5acb97489d65b14ecc7a,64cf49cf8ec1c8c7684fce6b,,,,,,,decisionTrl,resources/DBN.BMP,resources/DY.BMP,Door3,0.375694427,-0.056666718,1,0,0,0.9144,optionRight,70,11560,5,36,0,36,0,1,,,,,,,,,,,,,,,,,,,,,,,,,,,,,,,,,,,,,,,
,,,,,,,,2023-08-06_08h21.03.074,HF_wild_card,2022.2.4,Win32,60.20469597,5dccf99db9d9049777368b3b,64ce5acb97489d65b14ecc7a,64cf49cf8ec1c8c7684fce6b,,,,,,,decisionTrl,resources/DG.BMP,resources/DR.BMP,Door1,0.342916641,-0.049444466,1,0,0,0.9979,optionRight,30,11590,5,37,0,37,0,1,,,,,,,,,,,,,,,,,,,,,,,,,,,,,,,,,,,,,,,
,,,,,,,,2023-08-06_08h21.03.074,HF_wild_card,2022.2.4,Win32,60.20469597,5dccf99db9d9049777368b3b,64ce5acb97489d65b14ecc7a,64cf49cf8ec1c8c7684fce6b,,,,,,,decisionTrl,resources/DG.BMP,resources/DP.BMP,WildCard_Ex,-0.198194427,-0.166111145,1,0,0,1.5651,optionLeft,5,11595,5,38,0,38,0,1,,,,,,,,,,,,,,,,,,,,,,,,,,,,,,,,,,,,,,,
,,,,,,,,2023-08-06_08h21.03.074,HF_wild_card,2022.2.4,Win32,60.20469597,5dccf99db9d9049777368b3b,64ce5acb97489d65b14ecc7a,64cf49cf8ec1c8c7684fce6b,,,,,,,decisionTrl,resources/DG.BMP,resources/DBN.BMP,Door4,0.311805573,-0.043333321,1,0,0,0.6809,optionRight,80,11675,5,39,0,39,0,1,,,,,,,,,,,,,,,,,,,,,,,,,,,,,,,,,,,,,,,
,,,,,,,,2023-08-06_08h21.03.074,HF_wild_card,2022.2.4,Win32,60.20469597,5dccf99db9d9049777368b3b,64ce5acb97489d65b14ecc7a,64cf49cf8ec1c8c7684fce6b,,,,,,,ctch,resources/DBN.BMP,resources/DR.BMP,Door4,-0.182638855,-0.148888931,1,0,0,0.8645,optionLeft,80,11755,5,40,0,40,0,1,,,,,,,,,,,,,,,,,,,,,,,,,,,,,,,,,,,,,,,
,,,,,,,,2023-08-06_08h21.03.074,HF_wild_card,2022.2.4,Win32,60.20469597,5dccf99db9d9049777368b3b,64ce5acb97489d65b14ecc7a,64cf49cf8ec1c8c7684fce6b,,,,,,,sngl,resources/Empty.png,resources/DG.BMP,WildCard_Ex,0.330138931,-0.051111145,1,0,0,0.6471,optionRight,95,11850,5,41,0,41,0,1,,,,,,,,,,,,,,,,,,,,,,,,,,,,,,,,,,,,,,,
,,,,,,,,2023-08-06_08h21.03.074,HF_wild_card,2022.2.4,Win32,60.20469597,5dccf99db9d9049777368b3b,64ce5acb97489d65b14ecc7a,64cf49cf8ec1c8c7684fce6b,,,,,,,decisionTrl,resources/DP.BMP,resources/DR.BMP,Door1,0.316805573,-0.051666679,1,0,0,1.2318,optionRight,30,11880,5,42,0,42,0,1,,,,,,,,,,,,,,,,,,,,,,,,,,,,,,,,,,,,,,,
,,,,,,,,2023-08-06_08h21.03.074,HF_wild_card,2022.2.4,Win32,60.20469597,5dccf99db9d9049777368b3b,64ce5acb97489d65b14ecc7a,64cf49cf8ec1c8c7684fce6b,,,,,,,decisionTrl,resources/DY.BMP,resources/DBN.BMP,Door3,-0.188194427,-0.155555573,1,0,0,0.6651,optionLeft,70,11950,5,43,0,43,0,1,,,,,,,,,,,,,,,,,,,,,,,,,,,,,,,,,,,,,,,
,,,,,,,,2023-08-06_08h21.03.074,HF_wild_card,2022.2.4,Win32,60.20469597,5dccf99db9d9049777368b3b,64ce5acb97489d65b14ecc7a,64cf49cf8ec1c8c7684fce6b,,,,,,,,,,,,,,,,,,,,,,,,,,4,0,4,0,1,,,,,,,,,,,,,,,,,,,,,,,,,,,,,,,,,,
,,,,,,,,2023-08-06_08h21.03.074,HF_wild_card,2022.2.4,Win32,60.20469597,5dccf99db9d9049777368b3b,64ce5acb97489d65b14ecc7a,64cf49cf8ec1c8c7684fce6b,,,,,,,sngl,resources/DG.BMP,resources/Empty.png,WildCard_Ex,-0.244861069,-0.136111107,1,0,0,0.7203,optionLeft,95,12045,6,0,0,0,0,1,,,,,,,,,,,,,,,,,,,,,,,,,,,,,,,,,,,,,,,
,,,,,,,,2023-08-06_08h21.03.074,HF_wild_card,2022.2.4,Win32,60.20469597,5dccf99db9d9049777368b3b,64ce5acb97489d65b14ecc7a,64cf49cf8ec1c8c7684fce6b,,,,,,,decisionTrl,resources/DR.BMP,resources/DP.BMP,Door2,0.439027863,0,1,0,0,1.1822,optionRight,40,12085,6,1,0,1,0,1,,,,,,,,,,,,,,,,,,,,,,,,,,,,,,,,,,,,,,,
,,,,,,,,2023-08-06_08h21.03.074,HF_wild_card,2022.2.4,Win32,60.20469597,5dccf99db9d9049777368b3b,64ce5acb97489d65b14ecc7a,64cf49cf8ec1c8c7684fce6b,,,,,,,sngl,resources/DP.BMP,resources/Empty.png,Door2,-0.177638855,-0.115555573,1,0,0,0.6145,optionLeft,20,12105,6,2,0,2,0,1,,,,,,,,,,,,,,,,,,,,,,,,,,,,,,,,,,,,,,,
,,,,,,,,2023-08-06_08h21.03.074,HF_wild_card,2022.2.4,Win32,60.20469597,5dccf99db9d9049777368b3b,64ce5acb97489d65b14ecc7a,64cf49cf8ec1c8c7684fce6b,,,,,,,decisionTrl,resources/DP.BMP,resources/DR.BMP,Door1,0.367361145,0,1,0,0,1.0133,optionRight,30,12135,6,3,0,3,0,1,,,,,,,,,,,,,,,,,,,,,,,,,,,,,,,,,,,,,,,
,,,,,,,,2023-08-06_08h21.03.074,HF_wild_card,2022.2.4,Win32,60.20469597,5dccf99db9d9049777368b3b,64ce5acb97489d65b14ecc7a,64cf49cf8ec1c8c7684fce6b,,,,,,,decisionTrl,resources/DP.BMP,resources/DR.BMP,Door1,0.367361145,-0.012222252,1,0,0,0.863,optionRight,30,12165,6,4,0,4,0,1,,,,,,,,,,,,,,,,,,,,,,,,,,,,,,,,,,,,,,,
,,,,,,,,2023-08-06_08h21.03.074,HF_wild_card,2022.2.4,Win32,60.20469597,5dccf99db9d9049777368b3b,64ce5acb97489d65b14ecc7a,64cf49cf8ec1c8c7684fce6b,,,,,,,ctch,resources/DR.BMP,resources/DBN.BMP,Door4,0.345138931,-0.031666718,1,0,0,0.682,optionRight,80,12245,6,5,0,5,0,1,,,,,,,,,,,,,,,,,,,,,,,,,,,,,,,,,,,,,,,
,,,,,,,,2023-08-06_08h21.03.074,HF_wild_card,2022.2.4,Win32,60.20469597,5dccf99db9d9049777368b3b,64ce5acb97489d65b14ecc7a,64cf49cf8ec1c8c7684fce6b,,,,,,,decisionTrl,resources/DG.BMP,resources/DR.BMP,Door1,0.330694427,-0.025,1,0,0,0.9809,optionRight,30,12275,6,6,0,6,0,1,,,,,,,,,,,,,,,,,,,,,,,,,,,,,,,,,,,,,,,
,,,,,,,,2023-08-06_08h21.03.074,HF_wild_card,2022.2.4,Win32,60.20469597,5dccf99db9d9049777368b3b,64ce5acb97489d65b14ecc7a,64cf49cf8ec1c8c7684fce6b,,,,,,,sngl,resources/DG.BMP,resources/Empty.png,WildCard_Ex,-0.204861069,-0.113888893,1,0,0,0.532,optionLeft,5,12280,6,7,0,7,0,1,,,,,,,,,,,,,,,,,,,,,,,,,,,,,,,,,,,,,,,
,,,,,,,,2023-08-06_08h21.03.074,HF_wild_card,2022.2.4,Win32,60.20469597,5dccf99db9d9049777368b3b,64ce5acb97489d65b14ecc7a,64cf49cf8ec1c8c7684fce6b,,,,,,,ctch,resources/DR.BMP,resources/DBN.BMP,Door4,0.360694427,0.076111107,1,0,0,0.9144,optionRight,80,12360,6,8,0,8,0,1,,,,,,,,,,,,,,,,,,,,,,,,,,,,,,,,,,,,,,,
,,,,,,,,2023-08-06_08h21.03.074,HF_wild_card,2022.2.4,Win32,60.20469597,5dccf99db9d9049777368b3b,64ce5acb97489d65b14ecc7a,64cf49cf8ec1c8c7684fce6b,,,,,,,ctch,resources/DP.BMP,resources/DY.BMP,Door3,0.410694427,-0.061666679,1,0,0,0.7651,optionRight,70,12430,6,9,0,9,0,1,,,,,,,,,,,,,,,,,,,,,,,,,,,,,,,,,,,,,,,
,,,,,,,,2023-08-06_08h21.03.074,HF_wild_card,2022.2.4,Win32,60.20469597,5dccf99db9d9049777368b3b,64ce5acb97489d65b14ecc7a,64cf49cf8ec1c8c7684fce6b,,,,,,,sngl,resources/Empty.png,resources/DG.BMP,WildCard_Ex,0.313472214,0.068333282,1,0,0,0.7483,optionRight,95,12525,6,10,0,10,0,1,,,,,,,,,,,,,,,,,,,,,,,,,,,,,,,,,,,,,,,
,,,,,,,,2023-08-06_08h21.03.074,HF_wild_card,2022.2.4,Win32,60.20469597,5dccf99db9d9049777368b3b,64ce5acb97489d65b14ecc7a,64cf49cf8ec1c8c7684fce6b,,,,,,,decisionTrl,resources/DR.BMP,resources/DP.BMP,Door2,0.277361145,0.060555534,1,0,0,0.8147,optionRight,40,12565,6,11,0,11,0,1,,,,,,,,,,,,,,,,,,,,,,,,,,,,,,,,,,,,,,,
,,,,,,,,2023-08-06_08h21.03.074,HF_wild_card,2022.2.4,Win32,60.20469597,5dccf99db9d9049777368b3b,64ce5acb97489d65b14ecc7a,64cf49cf8ec1c8c7684fce6b,,,,,,,decisionTrl,resources/DR.BMP,resources/DG.BMP,WildCard_Ex,0.316805573,0.046666679,1,0,0,0.7982,optionRight,95,12660,6,12,0,12,0,1,,,,,,,,,,,,,,,,,,,,,,,,,,,,,,,,,,,,,,,
,,,,,,,,2023-08-06_08h21.03.074,HF_wild_card,2022.2.4,Win32,60.20469597,5dccf99db9d9049777368b3b,64ce5acb97489d65b14ecc7a,64cf49cf8ec1c8c7684fce6b,,,,,,,decisionTrl,resources/DBN.BMP,resources/DG.BMP,Door4,-0.235972214,-0.061666679,1,0,0,0.8815,optionLeft,60,12720,6,13,0,13,0,1,,,,,,,,,,,,,,,,,,,,,,,,,,,,,,,,,,,,,,,
,,,,,,,,2023-08-06_08h21.03.074,HF_wild_card,2022.2.4,Win32,60.20469597,5dccf99db9d9049777368b3b,64ce5acb97489d65b14ecc7a,64cf49cf8ec1c8c7684fce6b,,,,,,,decisionTrl,resources/DP.BMP,resources/DG.BMP,WildCard_Ex,0.314583359,0.038888893,1,0,0,1.1145,optionRight,5,12725,6,14,0,14,0,1,,,,,,,,,,,,,,,,,,,,,,,,,,,,,,,,,,,,,,,
,,,,,,,,2023-08-06_08h21.03.074,HF_wild_card,2022.2.4,Win32,60.20469597,5dccf99db9d9049777368b3b,64ce5acb97489d65b14ecc7a,64cf49cf8ec1c8c7684fce6b,,,,,,,decisionTrl,resources/DR.BMP,resources/DP.BMP,Door2,0.331805573,-0.077777786,1,0,0,1.0651,optionRight,20,12745,6,15,0,15,0,1,,,,,,,,,,,,,,,,,,,,,,,,,,,,,,,,,,,,,,,
,,,,,,,,2023-08-06_08h21.03.074,HF_wild_card,2022.2.4,Win32,60.20469597,5dccf99db9d9049777368b3b,64ce5acb97489d65b14ecc7a,64cf49cf8ec1c8c7684fce6b,,,,,,,sngl,resources/Empty.png,resources/DG.BMP,WildCard_Ex,0.335138931,0.046666679,1,0,0,0.6652,optionRight,5,12750,6,16,0,16,0,1,,,,,,,,,,,,,,,,,,,,,,,,,,,,,,,,,,,,,,,
,,,,,,,,2023-08-06_08h21.03.074,HF_wild_card,2022.2.4,Win32,60.20469597,5dccf99db9d9049777368b3b,64ce5acb97489d65b14ecc7a,64cf49cf8ec1c8c7684fce6b,,,,,,,sngl,resources/Empty.png,resources/DBN.BMP,Door4,0.309583359,0.028888893,1,0,0,0.581,optionRight,80,12830,6,17,0,17,0,1,,,,,,,,,,,,,,,,,,,,,,,,,,,,,,,,,,,,,,,
,,,,,,,,2023-08-06_08h21.03.074,HF_wild_card,2022.2.4,Win32,60.20469597,5dccf99db9d9049777368b3b,64ce5acb97489d65b14ecc7a,64cf49cf8ec1c8c7684fce6b,,,,,,,decisionTrl,resources/DY.BMP,resources/DG.BMP,Door3,-0.209305573,-0.078333321,1,0,0,0.8981,optionLeft,70,12900,6,18,0,18,0,1,,,,,,,,,,,,,,,,,,,,,,,,,,,,,,,,,,,,,,,
,,,,,,,,2023-08-06_08h21.03.074,HF_wild_card,2022.2.4,Win32,60.20469597,5dccf99db9d9049777368b3b,64ce5acb97489d65b14ecc7a,64cf49cf8ec1c8c7684fce6b,,,,,,,decisionTrl,resources/DY.BMP,resources/DBN.BMP,Door3,-0.215416641,-0.069444466,1,0,0,0.7312,optionLeft,70,12970,6,19,0,19,0,1,,,,,,,,,,,,,,,,,,,,,,,,,,,,,,,,,,,,,,,
,,,,,,,,2023-08-06_08h21.03.074,HF_wild_card,2022.2.4,Win32,60.20469597,5dccf99db9d9049777368b3b,64ce5acb97489d65b14ecc7a,64cf49cf8ec1c8c7684fce6b,,,,,,,sngl,resources/Empty.png,resources/DR.BMP,Door1,0.422361145,-0.095555573,1,0,0,0.6812,optionRight,30,13000,6,20,0,20,0,1,,,,,,,,,,,,,,,,,,,,,,,,,,,,,,,,,,,,,,,
,,,,,,,,2023-08-06_08h21.03.074,HF_wild_card,2022.2.4,Win32,60.20469597,5dccf99db9d9049777368b3b,64ce5acb97489d65b14ecc7a,64cf49cf8ec1c8c7684fce6b,,,,,,,sngl,resources/DY.BMP,resources/Empty.png,Door3,-0.197083359,-0.087222214,1,0,0,0.564,optionLeft,70,13070,6,21,0,21,0,1,,,,,,,,,,,,,,,,,,,,,,,,,,,,,,,,,,,,,,,
,,,,,,,,2023-08-06_08h21.03.074,HF_wild_card,2022.2.4,Win32,60.20469597,5dccf99db9d9049777368b3b,64ce5acb97489d65b14ecc7a,64cf49cf8ec1c8c7684fce6b,,,,,,,decisionTrl,resources/DG.BMP,resources/DP.BMP,Door2,0.389027786,-0.091666679,1,0,0,1.5975,optionRight,40,13110,6,22,0,22,0,1,,,,,,,,,,,,,,,,,,,,,,,,,,,,,,,,,,,,,,,
,,,,,,,,2023-08-06_08h21.03.074,HF_wild_card,2022.2.4,Win32,60.20469597,5dccf99db9d9049777368b3b,64ce5acb97489d65b14ecc7a,64cf49cf8ec1c8c7684fce6b,,,,,,,decisionTrl,resources/DBN.BMP,resources/DY.BMP,Door3,0.414027863,-0.095555573,1,0,0,0.8487,optionRight,70,13180,6,23,0,23,0,1,,,,,,,,,,,,,,,,,,,,,,,,,,,,,,,,,,,,,,,
,,,,,,,,2023-08-06_08h21.03.074,HF_wild_card,2022.2.4,Win32,60.20469597,5dccf99db9d9049777368b3b,64ce5acb97489d65b14ecc7a,64cf49cf8ec1c8c7684fce6b,,,,,,,sngl,resources/DR.BMP,resources/Empty.png,Door1,-0.197638855,-0.078333321,1,0,0,0.6137,optionLeft,30,13210,6,24,0,24,0,1,,,,,,,,,,,,,,,,,,,,,,,,,,,,,,,,,,,,,,,
,,,,,,,,2023-08-06_08h21.03.074,HF_wild_card,2022.2.4,Win32,60.20469597,5dccf99db9d9049777368b3b,64ce5acb97489d65b14ecc7a,64cf49cf8ec1c8c7684fce6b,,,,,,,ctch,resources/DY.BMP,resources/DP.BMP,Door3,-0.19875,-0.073333321,1,0,0,0.765,optionLeft,70,13280,6,25,0,25,0,1,,,,,,,,,,,,,,,,,,,,,,,,,,,,,,,,,,,,,,,
,,,,,,,,2023-08-06_08h21.03.074,HF_wild_card,2022.2.4,Win32,60.20469597,5dccf99db9d9049777368b3b,64ce5acb97489d65b14ecc7a,64cf49cf8ec1c8c7684fce6b,,,,,,,decisionTrl,resources/DP.BMP,resources/DR.BMP,Door2,-0.217083359,-0.1,1,0,0,1.5815,optionLeft,20,13300,6,26,0,26,0,1,,,,,,,,,,,,,,,,,,,,,,,,,,,,,,,,,,,,,,,
,,,,,,,,2023-08-06_08h21.03.074,HF_wild_card,2022.2.4,Win32,60.20469597,5dccf99db9d9049777368b3b,64ce5acb97489d65b14ecc7a,64cf49cf8ec1c8c7684fce6b,,,,,,,sngl,resources/Empty.png,resources/DY.BMP,Door3,0.31625,-0.008333321,1,0,0,0.5141,optionRight,70,13370,6,27,0,27,0,1,,,,,,,,,,,,,,,,,,,,,,,,,,,,,,,,,,,,,,,
,,,,,,,,2023-08-06_08h21.03.074,HF_wild_card,2022.2.4,Win32,60.20469597,5dccf99db9d9049777368b3b,64ce5acb97489d65b14ecc7a,64cf49cf8ec1c8c7684fce6b,,,,,,,ctch,resources/DBN.BMP,resources/DR.BMP,Door4,-0.230416641,-0.035,1,0,0,0.9979,optionLeft,60,13430,6,28,0,28,0,1,,,,,,,,,,,,,,,,,,,,,,,,,,,,,,,,,,,,,,,
,,,,,,,,2023-08-06_08h21.03.074,HF_wild_card,2022.2.4,Win32,60.20469597,5dccf99db9d9049777368b3b,64ce5acb97489d65b14ecc7a,64cf49cf8ec1c8c7684fce6b,,,,,,,decisionTrl,resources/DY.BMP,resources/DBN.BMP,Door3,-0.192083359,-0.11,1,0,0,0.8456,optionLeft,70,13500,6,29,0,29,0,1,,,,,,,,,,,,,,,,,,,,,,,,,,,,,,,,,,,,,,,
,,,,,,,,2023-08-06_08h21.03.074,HF_wild_card,2022.2.4,Win32,60.20469597,5dccf99db9d9049777368b3b,64ce5acb97489d65b14ecc7a,64cf49cf8ec1c8c7684fce6b,,,,,,,decisionTrl,resources/DY.BMP,resources/DBN.BMP,Door3,-0.178194427,-0.115555573,1,0,0,0.7811,optionLeft,70,13570,6,30,0,30,0,1,,,,,,,,,,,,,,,,,,,,,,,,,,,,,,,,,,,,,,,
,,,,,,,,2023-08-06_08h21.03.074,HF_wild_card,2022.2.4,Win32,60.20469597,5dccf99db9d9049777368b3b,64ce5acb97489d65b14ecc7a,64cf49cf8ec1c8c7684fce6b,,,,,,,sngl,resources/DBN.BMP,resources/Empty.png,Door4,-0.187083359,-0.123888893,1,0,0,0.6298,optionLeft,60,13630,6,31,0,31,0,1,,,,,,,,,,,,,,,,,,,,,,,,,,,,,,,,,,,,,,,
,,,,,,,,2023-08-06_08h21.03.074,HF_wild_card,2022.2.4,Win32,60.20469597,5dccf99db9d9049777368b3b,64ce5acb97489d65b14ecc7a,64cf49cf8ec1c8c7684fce6b,,,,,,,decisionTrl,resources/DBN.BMP,resources/DY.BMP,Door3,0.332916641,-0.032777786,1,0,0,0.7449,optionRight,70,13700,6,32,0,32,0,1,,,,,,,,,,,,,,,,,,,,,,,,,,,,,,,,,,,,,,,
,,,,,,,,2023-08-06_08h21.03.074,HF_wild_card,2022.2.4,Win32,60.20469597,5dccf99db9d9049777368b3b,64ce5acb97489d65b14ecc7a,64cf49cf8ec1c8c7684fce6b,,,,,,,decisionTrl,resources/DY.BMP,resources/DBN.BMP,Door3,-0.209861069,-0.136666679,1,0,0,0.6973,optionLeft,70,13770,6,33,0,33,0,1,,,,,,,,,,,,,,,,,,,,,,,,,,,,,,,,,,,,,,,
,,,,,,,,2023-08-06_08h21.03.074,HF_wild_card,2022.2.4,Win32,60.20469597,5dccf99db9d9049777368b3b,64ce5acb97489d65b14ecc7a,64cf49cf8ec1c8c7684fce6b,,,,,,,decisionTrl,resources/DR.BMP,resources/DP.BMP,Door1,-0.186527786,-0.120555573,1,0,0,1.1487,optionLeft,30,13800,6,34,0,34,0,1,,,,,,,,,,,,,,,,,,,,,,,,,,,,,,,,,,,,,,,
,,,,,,,,2023-08-06_08h21.03.074,HF_wild_card,2022.2.4,Win32,60.20469597,5dccf99db9d9049777368b3b,64ce5acb97489d65b14ecc7a,64cf49cf8ec1c8c7684fce6b,,,,,,,sngl,resources/Empty.png,resources/DP.BMP,Door2,0.305694427,-0.039444466,1,0,0,0.6646,optionRight,40,13840,6,35,0,35,0,1,,,,,,,,,,,,,,,,,,,,,,,,,,,,,,,,,,,,,,,
,,,,,,,,2023-08-06_08h21.03.074,HF_wild_card,2022.2.4,Win32,60.20469597,5dccf99db9d9049777368b3b,64ce5acb97489d65b14ecc7a,64cf49cf8ec1c8c7684fce6b,,,,,,,decisionTrl,resources/DP.BMP,resources/DR.BMP,Door2,-0.166527786,-0.112222214,1,0,0,0.848,optionLeft,20,13860,6,36,0,36,0,1,,,,,,,,,,,,,,,,,,,,,,,,,,,,,,,,,,,,,,,
,,,,,,,,2023-08-06_08h21.03.074,HF_wild_card,2022.2.4,Win32,60.20469597,5dccf99db9d9049777368b3b,64ce5acb97489d65b14ecc7a,64cf49cf8ec1c8c7684fce6b,,,,,,,decisionTrl,resources/DG.BMP,resources/DY.BMP,Door3,0.332916641,-0.048888893,1,0,0,0.5983,optionRight,70,13930,6,37,0,37,0,1,,,,,,,,,,,,,,,,,,,,,,,,,,,,,,,,,,,,,,,
,,,,,,,,2023-08-06_08h21.03.074,HF_wild_card,2022.2.4,Win32,60.20469597,5dccf99db9d9049777368b3b,64ce5acb97489d65b14ecc7a,64cf49cf8ec1c8c7684fce6b,,,,,,,decisionTrl,resources/DBN.BMP,resources/DY.BMP,Door3,0.309027786,-0.046111107,1,0,0,0.5478,optionRight,70,14000,6,38,0,38,0,1,,,,,,,,,,,,,,,,,,,,,,,,,,,,,,,,,,,,,,,
,,,,,,,,2023-08-06_08h21.03.074,HF_wild_card,2022.2.4,Win32,60.20469597,5dccf99db9d9049777368b3b,64ce5acb97489d65b14ecc7a,64cf49cf8ec1c8c7684fce6b,,,,,,,decisionTrl,resources/DBN.BMP,resources/DY.BMP,Door3,0.312916641,-0.05,1,0,0,0.4975,optionRight,70,14070,6,39,0,39,0,1,,,,,,,,,,,,,,,,,,,,,,,,,,,,,,,,,,,,,,,
,,,,,,,,2023-08-06_08h21.03.074,HF_wild_card,2022.2.4,Win32,60.20469597,5dccf99db9d9049777368b3b,64ce5acb97489d65b14ecc7a,64cf49cf8ec1c8c7684fce6b,,,,,,,ctch,resources/DBN.BMP,resources/DR.BMP,Door4,-0.18375,-0.125555573,1,0,0,0.7479,optionLeft,80,14150,6,40,0,40,0,1,,,,,,,,,,,,,,,,,,,,,,,,,,,,,,,,,,,,,,,
,,,,,,,,2023-08-06_08h21.03.074,HF_wild_card,2022.2.4,Win32,60.20469597,5dccf99db9d9049777368b3b,64ce5acb97489d65b14ecc7a,64cf49cf8ec1c8c7684fce6b,,,,,,,decisionTrl,resources/DG.BMP,resources/DBN.BMP,Door4,0.260694427,-0.042222214,1,0,0,0.7655,optionRight,80,14230,6,41,0,41,0,1,,,,,,,,,,,,,,,,,,,,,,,,,,,,,,,,,,,,,,,
,,,,,,,,2023-08-06_08h21.03.074,HF_wild_card,2022.2.4,Win32,60.20469597,5dccf99db9d9049777368b3b,64ce5acb97489d65b14ecc7a,64cf49cf8ec1c8c7684fce6b,,,,,,,ctch,resources/DY.BMP,resources/DP.BMP,Door3,-0.196527786,-0.135555573,1,0,0,0.8149,optionLeft,70,14300,6,42,0,42,0,1,,,,,,,,,,,,,,,,,,,,,,,,,,,,,,,,,,,,,,,
,,,,,,,,2023-08-06_08h21.03.074,HF_wild_card,2022.2.4,Win32,60.20469597,5dccf99db9d9049777368b3b,64ce5acb97489d65b14ecc7a,64cf49cf8ec1c8c7684fce6b,,,,,,,ctch,resources/DP.BMP,resources/DY.BMP,Door3,0.282361145,-0.046111107,1,0,0,0.5975,optionRight,70,14370,6,43,0,43,0,1,,,,,,,,,,,,,,,,,,,,,,,,,,,,,,,,,,,,,,,
,,,,,,,,2023-08-06_08h21.03.074,HF_wild_card,2022.2.4,Win32,60.20469597,5dccf99db9d9049777368b3b,64ce5acb97489d65b14ecc7a,64cf49cf8ec1c8c7684fce6b,,,,,,,,,,,,,,,,,,,,,,,,,,5,0,5,0,1,,,,,,,,,,,,,,,,,,,,,,,,,,,,,,,,,,
,,,,,,,,2023-08-06_08h21.03.074,HF_wild_card,2022.2.4,Win32,60.20469597,5dccf99db9d9049777368b3b,64ce5acb97489d65b14ecc7a,64cf49cf8ec1c8c7684fce6b,,,,,,,ctch,resources/DY.BMP,resources/DP.BMP,Door3,-0.342083321,-0.024444466,1,0,0,0.9728,optionLeft,70,14440,7,0,0,0,0,1,,,,,,,,,,,,,,,,,,,,,,,,,,,,,,,,,,,,,,,
,,,,,,,,2023-08-06_08h21.03.074,HF_wild_card,2022.2.4,Win32,60.20469597,5dccf99db9d9049777368b3b,64ce5acb97489d65b14ecc7a,64cf49cf8ec1c8c7684fce6b,,,,,,,decisionTrl,resources/DY.BMP,resources/DBN.BMP,Door3,-0.266527786,-0.053888931,1,0,0,1.344,optionLeft,70,14510,7,1,0,1,0,1,,,,,,,,,,,,,,,,,,,,,,,,,,,,,,,,,,,,,,,
,,,,,,,,2023-08-06_08h21.03.074,HF_wild_card,2022.2.4,Win32,60.20469597,5dccf99db9d9049777368b3b,64ce5acb97489d65b14ecc7a,64cf49cf8ec1c8c7684fce6b,,,,,,,decisionTrl,resources/DR.BMP,resources/DP.BMP,Door2,0.318472214,-0.026111145,1,0,0,0.7506,optionRight,40,14550,7,2,0,2,0,1,,,,,,,,,,,,,,,,,,,,,,,,,,,,,,,,,,,,,,,
,,,,,,,,2023-08-06_08h21.03.074,HF_wild_card,2022.2.4,Win32,60.20469597,5dccf99db9d9049777368b3b,64ce5acb97489d65b14ecc7a,64cf49cf8ec1c8c7684fce6b,,,,,,,ctch,resources/DBN.BMP,resources/DR.BMP,Door4,-0.225972214,-0.091666679,1,0,0,0.8276,optionLeft,60,14610,7,3,0,3,0,1,,,,,,,,,,,,,,,,,,,,,,,,,,,,,,,,,,,,,,,
,,,,,,,,2023-08-06_08h21.03.074,HF_wild_card,2022.2.4,Win32,60.20469597,5dccf99db9d9049777368b3b,64ce5acb97489d65b14ecc7a,64cf49cf8ec1c8c7684fce6b,,,,,,,ctch,resources/DP.BMP,resources/DY.BMP,Door3,0.318472214,-0.026666679,1,0,0,0.8442,optionRight,70,14680,7,4,0,4,0,1,,,,,,,,,,,,,,,,,,,,,,,,,,,,,,,,,,,,,,,
,,,,,,,,2023-08-06_08h21.03.074,HF_wild_card,2022.2.4,Win32,60.20469597,5dccf99db9d9049777368b3b,64ce5acb97489d65b14ecc7a,64cf49cf8ec1c8c7684fce6b,,,,,,,decisionTrl,resources/DBN.BMP,resources/DY.BMP,Door3,0.334583359,-0.004444466,1,0,0,0.8996,optionRight,70,14750,7,5,0,5,0,1,,,,,,,,,,,,,,,,,,,,,,,,,,,,,,,,,,,,,,,
,,,,,,,,2023-08-06_08h21.03.074,HF_wild_card,2022.2.4,Win32,60.20469597,5dccf99db9d9049777368b3b,64ce5acb97489d65b14ecc7a,64cf49cf8ec1c8c7684fce6b,,,,,,,decisionTrl,resources/DP.BMP,resources/DR.BMP,Door1,0.330138931,-0.014444466,1,0,0,1.0997,optionRight,30,14780,7,6,0,6,0,1,,,,,,,,,,,,,,,,,,,,,,,,,,,,,,,,,,,,,,,
,,,,,,,,2023-08-06_08h21.03.074,HF_wild_card,2022.2.4,Win32,60.20469597,5dccf99db9d9049777368b3b,64ce5acb97489d65b14ecc7a,64cf49cf8ec1c8c7684fce6b,,,,,,,ctch,resources/DR.BMP,resources/DBN.BMP,Door4,0.315694427,-0.024444466,1,0,0,0.653,optionRight,60,14840,7,7,0,7,0,1,,,,,,,,,,,,,,,,,,,,,,,,,,,,,,,,,,,,,,,
,,,,,,,,2023-08-06_08h21.03.074,HF_wild_card,2022.2.4,Win32,60.20469597,5dccf99db9d9049777368b3b,64ce5acb97489d65b14ecc7a,64cf49cf8ec1c8c7684fce6b,,,,,,,ctch,resources/DR.BMP,resources/DBN.BMP,Door4,0.312361145,-0.033888893,1,0,0,0.7657,optionRight,60,14900,7,8,0,8,0,1,,,,,,,,,,,,,,,,,,,,,,,,,,,,,,,,,,,,,,,
,,,,,,,,2023-08-06_08h21.03.074,HF_wild_card,2022.2.4,Win32,60.20469597,5dccf99db9d9049777368b3b,64ce5acb97489d65b14ecc7a,64cf49cf8ec1c8c7684fce6b,,,,,,,decisionTrl,resources/DBN.BMP,resources/DY.BMP,Door3,0.294583359,-0.034444466,1,0,0,0.7444,optionRight,70,14970,7,9,0,9,0,1,,,,,,,,,,,,,,,,,,,,,,,,,,,,,,,,,,,,,,,
,,,,,,,,2023-08-06_08h21.03.074,HF_wild_card,2022.2.4,Win32,60.20469597,5dccf99db9d9049777368b3b,64ce5acb97489d65b14ecc7a,64cf49cf8ec1c8c7684fce6b,,,,,,,decisionTrl,resources/DR.BMP,resources/DP.BMP,Door1,-0.177638855,-0.076666679,1,0,0,1.1114,optionLeft,30,15000,7,10,0,10,0,1,,,,,,,,,,,,,,,,,,,,,,,,,,,,,,,,,,,,,,,
,,,,,,,,2023-08-06_08h21.03.074,HF_wild_card,2022.2.4,Win32,60.20469597,5dccf99db9d9049777368b3b,64ce5acb97489d65b14ecc7a,64cf49cf8ec1c8c7684fce6b,,,,,,,ctch,resources/DP.BMP,resources/DY.BMP,Door3,0.330138931,-0.045,1,0,0,0.7362,optionRight,70,15070,7,11,0,11,0,1,,,,,,,,,,,,,,,,,,,,,,,,,,,,,,,,,,,,,,,
,,,,,,,,2023-08-06_08h21.03.074,HF_wild_card,2022.2.4,Win32,60.20469597,5dccf99db9d9049777368b3b,64ce5acb97489d65b14ecc7a,64cf49cf8ec1c8c7684fce6b,,,,,,,decisionTrl,resources/DBN.BMP,resources/DY.BMP,Door3,0.325138931,-0.027222214,1,0,0,0.7778,optionRight,70,15140,7,12,0,12,0,1,,,,,,,,,,,,,,,,,,,,,,,,,,,,,,,,,,,,,,,
,,,,,,,,2023-08-06_08h21.03.074,HF_wild_card,2022.2.4,Win32,60.20469597,5dccf99db9d9049777368b3b,64ce5acb97489d65b14ecc7a,64cf49cf8ec1c8c7684fce6b,,,,,,,decisionTrl,resources/DP.BMP,resources/DR.BMP,Door1,0.30125,-0.025555573,1,0,0,1.387,optionRight,30,15170,7,13,0,13,0,1,,,,,,,,,,,,,,,,,,,,,,,,,,,,,,,,,,,,,,,
,,,,,,,,2023-08-06_08h21.03.074,HF_wild_card,2022.2.4,Win32,60.20469597,5dccf99db9d9049777368b3b,64ce5acb97489d65b14ecc7a,64cf49cf8ec1c8c7684fce6b,,,,,,,ctch,resources/DY.BMP,resources/DP.BMP,Door3,-0.196527786,-0.100555573,1,0,0,0.6707,optionLeft,70,15240,7,14,0,14,0,1,,,,,,,,,,,,,,,,,,,,,,,,,,,,,,,,,,,,,,,
,,,,,,,,2023-08-06_08h21.03.074,HF_wild_card,2022.2.4,Win32,60.20469597,5dccf99db9d9049777368b3b,64ce5acb97489d65b14ecc7a,64cf49cf8ec1c8c7684fce6b,,,,,,,ctch,resources/DBN.BMP,resources/DR.BMP,Door4,-0.189305573,-0.091111107,1,0,0,0.9376,optionLeft,80,15320,7,15,0,15,0,1,,,,,,,,,,,,,,,,,,,,,,,,,,,,,,,,,,,,,,,
,,,,,,,,2023-08-06_08h21.03.074,HF_wild_card,2022.2.4,Win32,60.20469597,5dccf99db9d9049777368b3b,64ce5acb97489d65b14ecc7a,64cf49cf8ec1c8c7684fce6b,,,,,,,decisionTrl,resources/DBN.BMP,resources/DY.BMP,Door3,0.311805573,-0.031666718,1,0,0,0.8371,optionRight,70,15390,7,16,0,16,0,1,,,,,,,,,,,,,,,,,,,,,,,,,,,,,,,,,,,,,,,
,,,,,,,,2023-08-06_08h21.03.074,HF_wild_card,2022.2.4,Win32,60.20469597,5dccf99db9d9049777368b3b,64ce5acb97489d65b14ecc7a,64cf49cf8ec1c8c7684fce6b,,,,,,,decisionTrl,resources/DY.BMP,resources/DBN.BMP,Door3,-0.195972214,-0.100555573,1,0,0,0.6659,optionLeft,70,15460,7,17,0,17,0,1,,,,,,,,,,,,,,,,,,,,,,,,,,,,,,,,,,,,,,,
,,,,,,,,2023-08-06_08h21.03.074,HF_wild_card,2022.2.4,Win32,60.20469597,5dccf99db9d9049777368b3b,64ce5acb97489d65b14ecc7a,64cf49cf8ec1c8c7684fce6b,,,,,,,decisionTrl,resources/DR.BMP,resources/DP.BMP,Door1,-0.204861069,-0.086111107,1,0,0,1.8825,optionLeft,30,15490,7,18,0,18,0,1,,,,,,,,,,,,,,,,,,,,,,,,,,,,,,,,,,,,,,,
,,,,,,,,2023-08-06_08h21.03.074,HF_wild_card,2022.2.4,Win32,60.20469597,5dccf99db9d9049777368b3b,64ce5acb97489d65b14ecc7a,64cf49cf8ec1c8c7684fce6b,,,,,,,decisionTrl,resources/DY.BMP,resources/DBN.BMP,Door3,-0.226527786,-0.116666679,1,0,0,0.8787,optionLeft,70,15560,7,19,0,19,0,1,,,,,,,,,,,,,,,,,,,,,,,,,,,,,,,,,,,,,,,
,,,,,,,,2023-08-06_08h21.03.074,HF_wild_card,2022.2.4,Win32,60.20469597,5dccf99db9d9049777368b3b,64ce5acb97489d65b14ecc7a,64cf49cf8ec1c8c7684fce6b,,,,,,,ctch,resources/DY.BMP,resources/DP.BMP,Door3,-0.192638855,-0.097222214,1,0,0,0.6274,optionLeft,70,15630,7,20,0,20,0,1,,,,,,,,,,,,,,,,,,,,,,,,,,,,,,,,,,,,,,,
,,,,,,,,2023-08-06_08h21.03.074,HF_wild_card,2022.2.4,Win32,60.20469597,5dccf99db9d9049777368b3b,64ce5acb97489d65b14ecc7a,64cf49cf8ec1c8c7684fce6b,,,,,,,decisionTrl,resources/DR.BMP,resources/DP.BMP,Door1,-0.198194427,-0.107222214,1,0,0,1.1822,optionLeft,30,15660,7,21,0,21,0,1,,,,,,,,,,,,,,,,,,,,,,,,,,,,,,,,,,,,,,,
,,,,,,,,2023-08-06_08h21.03.074,HF_wild_card,2022.2.4,Win32,60.20469597,5dccf99db9d9049777368b3b,64ce5acb97489d65b14ecc7a,64cf49cf8ec1c8c7684fce6b,,,,,,,decisionTrl,resources/DP.BMP,resources/DR.BMP,Door1,0.270694427,-0.05,1,0,0,1.2944,optionRight,30,15690,7,22,0,22,0,1,,,,,,,,,,,,,,,,,,,,,,,,,,,,,,,,,,,,,,,
,,,,,,,,2023-08-06_08h21.03.074,HF_wild_card,2022.2.4,Win32,60.20469597,5dccf99db9d9049777368b3b,64ce5acb97489d65b14ecc7a,64cf49cf8ec1c8c7684fce6b,,,,,,,decisionTrl,resources/DBN.BMP,resources/DY.BMP,Door3,0.339583359,-0.064444466,1,0,0,0.5993,optionRight,70,15760,7,23,0,23,0,1,,,,,,,,,,,,,,,,,,,,,,,,,,,,,,,,,,,,,,,
,,,,,,,,2023-08-06_08h21.03.074,HF_wild_card,2022.2.4,Win32,60.20469597,5dccf99db9d9049777368b3b,64ce5acb97489d65b14ecc7a,64cf49cf8ec1c8c7684fce6b,,,,,,,decisionTrl,resources/DR.BMP,resources/DP.BMP,Door1,-0.194861069,-0.103333321,1,0,0,1.0876,optionLeft,30,15790,7,24,0,24,0,1,,,,,,,,,,,,,,,,,,,,,,,,,,,,,,,,,,,,,,,
,,,,,,,,2023-08-06_08h21.03.074,HF_wild_card,2022.2.4,Win32,60.20469597,5dccf99db9d9049777368b3b,64ce5acb97489d65b14ecc7a,64cf49cf8ec1c8c7684fce6b,,,,,,,decisionTrl,resources/DBN.BMP,resources/DY.BMP,Door3,0.299027786,-0.055,1,0,0,0.5156,optionRight,70,15860,7,25,0,25,0,1,,,,,,,,,,,,,,,,,,,,,,,,,,,,,,,,,,,,,,,
,,,,,,,,2023-08-06_08h21.03.074,HF_wild_card,2022.2.4,Win32,60.20469597,5dccf99db9d9049777368b3b,64ce5acb97489d65b14ecc7a,64cf49cf8ec1c8c7684fce6b,,,,,,,decisionTrl,resources/DP.BMP,resources/DR.BMP,Door1,0.307361145,-0.032222214,1,0,0,1.1159,optionRight,30,15890,7,26,0,26,0,1,,,,,,,,,,,,,,,,,,,,,,,,,,,,,,,,,,,,,,,
,,,,,,,,2023-08-06_08h21.03.074,HF_wild_card,2022.2.4,Win32,60.20469597,5dccf99db9d9049777368b3b,64ce5acb97489d65b14ecc7a,64cf49cf8ec1c8c7684fce6b,,,,,,,decisionTrl,resources/DY.BMP,resources/DBN.BMP,Door3,-0.209861069,-0.115,1,0,0,0.7029,optionLeft,70,15960,7,27,0,27,0,1,,,,,,,,,,,,,,,,,,,,,,,,,,,,,,,,,,,,,,,
,,,,,,,,2023-08-06_08h21.03.074,HF_wild_card,2022.2.4,Win32,60.20469597,5dccf99db9d9049777368b3b,64ce5acb97489d65b14ecc7a,64cf49cf8ec1c8c7684fce6b,,,,,,,decisionTrl,resources/DP.BMP,resources/DR.BMP,Door1,0.32625,-0.003333321,1,0,0,1.3144,optionRight,30,15990,7,28,0,28,0,1,,,,,,,,,,,,,,,,,,,,,,,,,,,,,,,,,,,,,,,
,,,,,,,,2023-08-06_08h21.03.074,HF_wild_card,2022.2.4,Win32,60.20469597,5dccf99db9d9049777368b3b,64ce5acb97489d65b14ecc7a,64cf49cf8ec1c8c7684fce6b,,,,,,,decisionTrl,resources/DY.BMP,resources/DBN.BMP,Door3,-0.218194427,-0.083888893,1,0,0,0.6812,optionLeft,70,16060,7,29,0,29,0,1,,,,,,,,,,,,,,,,,,,,,,,,,,,,,,,,,,,,,,,
,,,,,,,,2023-08-06_08h21.03.074,HF_wild_card,2022.2.4,Win32,60.20469597,5dccf99db9d9049777368b3b,64ce5acb97489d65b14ecc7a,64cf49cf8ec1c8c7684fce6b,,,,,,,ctch,resources/DR.BMP,resources/DBN.BMP,Door4,0.358472214,0.005555534,1,0,0,0.7151,optionRight,80,16140,7,30,0,30,0,1,,,,,,,,,,,,,,,,,,,,,,,,,,,,,,,,,,,,,,,
,,,,,,,,2023-08-06_08h21.03.074,HF_wild_card,2022.2.4,Win32,60.20469597,5dccf99db9d9049777368b3b,64ce5acb97489d65b14ecc7a,64cf49cf8ec1c8c7684fce6b,,,,,,,decisionTrl,resources/DP.BMP,resources/DR.BMP,Door1,0.294027786,0.02,1,0,0,1.378,optionRight,30,16170,7,31,0,31,0,1,,,,,,,,,,,,,,,,,,,,,,,,,,,,,,,,,,,,,,,
,,,,,,,,2023-08-06_08h21.03.074,HF_wild_card,2022.2.4,Win32,60.20469597,5dccf99db9d9049777368b3b,64ce5acb97489d65b14ecc7a,64cf49cf8ec1c8c7684fce6b,,,,,,,decisionTrl,resources/DY.BMP,resources/DBN.BMP,Door3,-0.23875,-0.1,1,0,0,0.6877,optionLeft,70,16240,7,32,0,32,0,1,,,,,,,,,,,,,,,,,,,,,,,,,,,,,,,,,,,,,,,
,,,,,,,,2023-08-06_08h21.03.074,HF_wild_card,2022.2.4,Win32,60.20469597,5dccf99db9d9049777368b3b,64ce5acb97489d65b14ecc7a,64cf49cf8ec1c8c7684fce6b,,,,,,,ctch,resources/DBN.BMP,resources/DR.BMP,Door4,-0.200972214,-0.072777786,1,0,0,1.2112,optionLeft,60,16300,7,33,0,33,0,1,,,,,,,,,,,,,,,,,,,,,,,,,,,,,,,,,,,,,,,
,,,,,,,,2023-08-06_08h21.03.074,HF_wild_card,2022.2.4,Win32,60.20469597,5dccf99db9d9049777368b3b,64ce5acb97489d65b14ecc7a,64cf49cf8ec1c8c7684fce6b,,,,,,,ctch,resources/DP.BMP,resources/DY.BMP,Door3,0.368472214,0.001666641,1,0,0,1.0404,optionRight,70,16370,7,34,0,34,0,1,,,,,,,,,,,,,,,,,,,,,,,,,,,,,,,,,,,,,,,
,,,,,,,,2023-08-06_08h21.03.074,HF_wild_card,2022.2.4,Win32,60.20469597,5dccf99db9d9049777368b3b,64ce5acb97489d65b14ecc7a,64cf49cf8ec1c8c7684fce6b,,,,,,,decisionTrl,resources/DR.BMP,resources/DP.BMP,Door1,-0.179861069,-0.048888893,1,0,0,1.1155,optionLeft,30,16400,7,35,0,35,0,1,,,,,,,,,,,,,,,,,,,,,,,,,,,,,,,,,,,,,,,
,,,,,,,,2023-08-06_08h21.03.074,HF_wild_card,2022.2.4,Win32,60.20469597,5dccf99db9d9049777368b3b,64ce5acb97489d65b14ecc7a,64cf49cf8ec1c8c7684fce6b,,,,,,,,,,,,,,,,,,,,,,,,,,6,0,6,0,1,,,,,,,,,,,,,,,,,,,,,,,,,,,,,,,,,,
,,,,,,,,2023-08-06_08h21.03.074,HF_wild_card,2022.2.4,Win32,60.20469597,5dccf99db9d9049777368b3b,64ce5acb97489d65b14ecc7a,64cf49cf8ec1c8c7684fce6b,,,,,,,,,,,,,,,,,,,,,,,,,,,,,,,4,,,,,,,,,,,,,,,,,,,,,,,,,,,,,,,,,
,,,,,,,,2023-08-06_08h21.03.074,HF_wild_card,2022.2.4,Win32,60.20469597,5dccf99db9d9049777368b3b,64ce5acb97489d65b14ecc7a,64cf49cf8ec1c8c7684fce6b,,,,,,,,,,,,,,,,,,,,,,,,,,,,,,,,,,,,,,,,,,,,,,,,,,,,,,,,,,,,,,,,
,,,,,,,,2023-08-06_08h21.03.074,HF_wild_card,2022.2.4,Win32,60.20469597,5dccf99db9d9049777368b3b,64ce5acb97489d65b14ecc7a,64cf49cf8ec1c8c7684fce6b,,,,,,,,,,,,,,,,,,,,,,,,,,,,,,,,60,Door4,resources/DBN.BMP,0,0,0,0,1,,,,,,,,,,,,,,,,,,,,,,,,,
,,,,,,,,2023-08-06_08h21.03.074,HF_wild_card,2022.2.4,Win32,60.20469597,5dccf99db9d9049777368b3b,64ce5acb97489d65b14ecc7a,64cf49cf8ec1c8c7684fce6b,,,,,,,,,,,,,,,,,,,,,,,,,,,,,,,,45,WC_nonExtreme,resources/DB.BMP,1,0,1,0,1,,,,,,,,,,,,,,,,,,,,,,,,,
,,,,,,,,2023-08-06_08h21.03.074,HF_wild_card,2022.2.4,Win32,60.20469597,5dccf99db9d9049777368b3b,64ce5acb97489d65b14ecc7a,64cf49cf8ec1c8c7684fce6b,,,,,,,,,,,,,,,,,,,,,,,,,,,,,,,,5,WC_extreme,resources/DG.BMP,2,0,2,0,1,,,,,,,,,,,,,,,,,,,,,,,,,
,,,,,,,,2023-08-06_08h21.03.074,HF_wild_card,2022.2.4,Win32,60.20469597,5dccf99db9d9049777368b3b,64ce5acb97489d65b14ecc7a,64cf49cf8ec1c8c7684fce6b,,,,,,,,,,,,,,,,,,,,,,,,,,,,,,,,20,Door2,resources/DP.BMP,3,0,3,0,1,,,,,,,,,,,,,,,,,,,,,,,,,
,,,,,,,,2023-08-06_08h21.03.074,HF_wild_card,2022.2.4,Win32,60.20469597,5dccf99db9d9049777368b3b,64ce5acb97489d65b14ecc7a,64cf49cf8ec1c8c7684fce6b,,,,,,,,,,,,,,,,,,,,,,,,,,,,,,,,30,Door1,resources/DR.BMP,4,0,4,0,1,,,,,,,,,,,,,,,,,,,,,,,,,
,,,,,,,,2023-08-06_08h21.03.074,HF_wild_card,2022.2.4,Win32,60.20469597,5dccf99db9d9049777368b3b,64ce5acb97489d65b14ecc7a,64cf49cf8ec1c8c7684fce6b,,,,,,,,,,,,,,,,,,,,,,,,,,,,,,,,70,Door3,resources/DY.BMP,5,0,5,0,1,,,,,,,,,,,,,,,,,,,,,,,,,
,,,,,,,,2023-08-06_08h21.03.074,HF_wild_card,2022.2.4,Win32,60.20469597,5dccf99db9d9049777368b3b,64ce5acb97489d65b14ecc7a,64cf49cf8ec1c8c7684fce6b,,,,,,,,,,,,,,,,,,,,,,,,,,,,,,,,,,,,,,,,,,,,,,,,,,,,,,,,,,,,,,,,
,,,,,,,,2023-08-06_08h21.03.074,HF_wild_card,2022.2.4,Win32,60.20469597,5dccf99db9d9049777368b3b,64ce5acb97489d65b14ecc7a,64cf49cf8ec1c8c7684fce6b,,,,,,,,,,,,,,,,,,,,,,,,,,,,,,,,,,,,,,,,0,0,0,0,1,,,,,,,,,,,,,,,,,,,,
