Condition,Low fixed image (Door1),Low risky image (Door2),High fixed image (Door3),High risky image (Door4),Extreme Wild Card,NonExtreme Wild Card,,date,expName,psychopyVersion,OS,frameRate,PROLIFIC_PID,STUDY_ID,SESSION_ID,mouse_2.x,mouse_2.y,mouse_2.leftButton,mouse_2.midButton,mouse_2.rightButton,mouse_2.clicked_name,Trial Type,Left Option Image,Right Option Image,Chosen Door,mouse.x,mouse.y,mouse.leftButton,mouse.midButton,mouse.rightButton,mouse.time,mouse.clicked_name,Feedback,Cumulative Reward,Block,trial.thisRepN,trial.thisTrialN,trial.thisN,trial.thisIndex,trial.ran,blocks.thisRepN,blocks.thisTrialN,blocks.thisN,blocks.thisIndex,blocks.ran,Money conversion,First Outcome Reported,Shown Door (First Outcome),Displayed Image (First Outcome),outcomes.thisRepN,outcomes.thisTrialN,outcomes.thisN,outcomes.thisIndex,outcomes.ran,judgments.thisRepN,judgments.thisTrialN,judgments.thisN,judgments.thisIndex,judgments.ran,freqMouse.x,freqMouse.y,freqMouse.leftButton,freqMouse.midButton,freqMouse.rightButton,freqMouse.clicked_name,trials.thisRepN,trials.thisTrialN,trials.thisN,trials.thisIndex,trials.ran,FQJ for first outcome,FQJ for second outcome,Shown Door,Displayed Image,judgBlock.thisRepN,judgBlock.thisTrialN,judgBlock.thisN,judgBlock.thisIndex,judgBlock.ran
0,resources/DR.BMP,resources/DY.BMP,resources/DG.BMP,resources/DP.BMP,resources/DB.BMP,resources/DBN.BMP,,2023-08-16_08h43.23.726,HF_wild_card,2022.2.4,Win32,61.06870229,64834d96c668b041fea4e9cf,64d2fd46c836a06233681665,64dc7d89fcd9bc44da8a3d48,,,,,,,,,,,,,,,,,,,,,,,,,,,,,,,,,,,,,,,,,,,,,,,,,,,,,,,,,,,,,,,,
,,,,,,,,2023-08-16_08h43.23.726,HF_wild_card,2022.2.4,Win32,61.06870229,64834d96c668b041fea4e9cf,64d2fd46c836a06233681665,64dc7d89fcd9bc44da8a3d48,0.004581408,-0.410865345,1,0,0,agree,,,,,,,,,,,,,,,,,,,,,,,,,,,,,,,,,,,,,,,,,,,,,,,,,,,,,,,,,,
,,,,,,,,2023-08-16_08h43.23.726,HF_wild_card,2022.2.4,Win32,61.06870229,64834d96c668b041fea4e9cf,64d2fd46c836a06233681665,64dc7d89fcd9bc44da8a3d48,,,,,,,,,,,,,,,,,,,,,,,,,,,,,,,,,,,,,,,,,,,,,,,,,,,,,,,,,,,,,,,,
,,,,,,,,2023-08-16_08h43.23.726,HF_wild_card,2022.2.4,Win32,61.06870229,64834d96c668b041fea4e9cf,64d2fd46c836a06233681665,64dc7d89fcd9bc44da8a3d48,,,,,,,sngl,resources/Empty.png,resources/DY.BMP,Door2,0.39495227,-0.050422932,1,0,0,5.7671,optionRight,20,20,1,0,0,0,0,1,,,,,,,,,,,,,,,,,,,,,,,,,,,,,,,,,,,,,,,
,,,,,,,,2023-08-16_08h43.23.726,HF_wild_card,2022.2.4,Win32,61.06870229,64834d96c668b041fea4e9cf,64d2fd46c836a06233681665,64dc7d89fcd9bc44da8a3d48,,,,,,,decisionTrl,resources/DB.BMP,resources/DP.BMP,Door4,0.379337355,-0.081652586,1,0,0,1.9761,optionRight,60,80,1,1,0,1,0,1,,,,,,,,,,,,,,,,,,,,,,,,,,,,,,,,,,,,,,,
,,,,,,,,2023-08-16_08h43.23.726,HF_wild_card,2022.2.4,Win32,61.06870229,64834d96c668b041fea4e9cf,64d2fd46c836a06233681665,64dc7d89fcd9bc44da8a3d48,,,,,,,ctch,resources/DG.BMP,resources/DY.BMP,Door3,-0.379283247,-0.016590776,1,0,0,3.0862,optionLeft,70,150,1,2,0,2,0,1,,,,,,,,,,,,,,,,,,,,,,,,,,,,,,,,,,,,,,,
,,,,,,,,2023-08-16_08h43.23.726,HF_wild_card,2022.2.4,Win32,61.06870229,64834d96c668b041fea4e9cf,64d2fd46c836a06233681665,64dc7d89fcd9bc44da8a3d48,,,,,,,sngl,resources/DP.BMP,resources/Empty.png,Door4,-0.351957255,-0.047820431,1,0,0,1.5568,optionLeft,80,230,1,3,0,3,0,1,,,,,,,,,,,,,,,,,,,,,,,,,,,,,,,,,,,,,,,
,,,,,,,,2023-08-16_08h43.23.726,HF_wild_card,2022.2.4,Win32,61.06870229,64834d96c668b041fea4e9cf,64d2fd46c836a06233681665,64dc7d89fcd9bc44da8a3d48,,,,,,,decisionTrl,resources/DY.BMP,resources/DR.BMP,Door1,0.309070719,-0.14281069,1,0,0,2.0121,optionRight,30,260,1,4,0,4,0,1,,,,,,,,,,,,,,,,,,,,,,,,,,,,,,,,,,,,,,,
,,,,,,,,2023-08-16_08h43.23.726,HF_wild_card,2022.2.4,Win32,61.06870229,64834d96c668b041fea4e9cf,64d2fd46c836a06233681665,64dc7d89fcd9bc44da8a3d48,,,,,,,decisionTrl,resources/DY.BMP,resources/DR.BMP,Door2,-0.294702859,-0.007482112,1,0,0,1.5963,optionLeft,40,300,1,5,0,5,0,1,,,,,,,,,,,,,,,,,,,,,,,,,,,,,,,,,,,,,,,
,,,,,,,,2023-08-16_08h43.23.726,HF_wild_card,2022.2.4,Win32,61.06870229,64834d96c668b041fea4e9cf,64d2fd46c836a06233681665,64dc7d89fcd9bc44da8a3d48,,,,,,,decisionTrl,resources/DB.BMP,resources/DY.BMP,WildCard_Ex,-0.345451092,-0.062134052,1,0,0,1.3728,optionLeft,95,395,1,6,0,6,0,1,,,,,,,,,,,,,,,,,,,,,,,,,,,,,,,,,,,,,,,
,,,,,,,,2023-08-16_08h43.23.726,HF_wild_card,2022.2.4,Win32,61.06870229,64834d96c668b041fea4e9cf,64d2fd46c836a06233681665,64dc7d89fcd9bc44da8a3d48,,,,,,,decisionTrl,resources/DR.BMP,resources/DB.BMP,WildCard_Ex,0.275238563,-0.075146379,1,0,0,1.2192,optionRight,95,490,1,7,0,7,0,1,,,,,,,,,,,,,,,,,,,,,,,,,,,,,,,,,,,,,,,
,,,,,,,,2023-08-16_08h43.23.726,HF_wild_card,2022.2.4,Win32,61.06870229,64834d96c668b041fea4e9cf,64d2fd46c836a06233681665,64dc7d89fcd9bc44da8a3d48,,,,,,,ctch,resources/DR.BMP,resources/DP.BMP,Door4,0.363722439,-0.138906983,1,0,0,1.4641,optionRight,60,550,1,8,0,8,0,1,,,,,,,,,,,,,,,,,,,,,,,,,,,,,,,,,,,,,,,
,,,,,,,,2023-08-16_08h43.23.726,HF_wild_card,2022.2.4,Win32,61.06870229,64834d96c668b041fea4e9cf,64d2fd46c836a06233681665,64dc7d89fcd9bc44da8a3d48,,,,,,,ctch,resources/DG.BMP,resources/DY.BMP,Door3,-0.364969626,-0.007482112,1,0,0,1.3805,optionLeft,70,620,1,9,0,9,0,1,,,,,,,,,,,,,,,,,,,,,,,,,,,,,,,,,,,,,,,
,,,,,,,,2023-08-16_08h43.23.726,HF_wild_card,2022.2.4,Win32,61.06870229,64834d96c668b041fea4e9cf,64d2fd46c836a06233681665,64dc7d89fcd9bc44da8a3d48,,,,,,,decisionTrl,resources/DG.BMP,resources/DP.BMP,Door4,0.368927616,-0.125894612,1,0,0,1.1691,optionRight,80,700,1,10,0,10,0,1,,,,,,,,,,,,,,,,,,,,,,,,,,,,,,,,,,,,,,,
,,,,,,,,2023-08-16_08h43.23.726,HF_wild_card,2022.2.4,Win32,61.06870229,64834d96c668b041fea4e9cf,64d2fd46c836a06233681665,64dc7d89fcd9bc44da8a3d48,,,,,,,sngl,resources/Empty.png,resources/DR.BMP,Door1,0.245310027,0.000325302,1,0,0,2.1955,optionRight,30,730,1,11,0,11,0,1,,,,,,,,,,,,,,,,,,,,,,,,,,,,,,,,,,,,,,,
,,,,,,,,2023-08-16_08h43.23.726,HF_wild_card,2022.2.4,Win32,61.06870229,64834d96c668b041fea4e9cf,64d2fd46c836a06233681665,64dc7d89fcd9bc44da8a3d48,,,,,,,sngl,resources/Empty.png,resources/DG.BMP,Door3,0.324685546,-0.03090431,1,0,0,1.0492,optionRight,70,800,1,12,0,12,0,1,,,,,,,,,,,,,,,,,,,,,,,,,,,,,,,,,,,,,,,
,,,,,,,,2023-08-16_08h43.23.726,HF_wild_card,2022.2.4,Win32,61.06870229,64834d96c668b041fea4e9cf,64d2fd46c836a06233681665,64dc7d89fcd9bc44da8a3d48,,,,,,,decisionTrl,resources/DG.BMP,resources/DP.BMP,Door4,0.38844615,-0.058230345,1,0,0,1.3483,optionRight,80,880,1,13,0,13,0,1,,,,,,,,,,,,,,,,,,,,,,,,,,,,,,,,,,,,,,,
,,,,,,,,2023-08-16_08h43.23.726,HF_wild_card,2022.2.4,Win32,61.06870229,64834d96c668b041fea4e9cf,64d2fd46c836a06233681665,64dc7d89fcd9bc44da8a3d48,,,,,,,ctch,resources/DR.BMP,resources/DP.BMP,Door4,0.346806581,-0.080351336,1,0,0,1.6478,optionRight,60,940,1,14,0,14,0,1,,,,,,,,,,,,,,,,,,,,,,,,,,,,,,,,,,,,,,,
,,,,,,,,2023-08-16_08h43.23.726,HF_wild_card,2022.2.4,Win32,61.06870229,64834d96c668b041fea4e9cf,64d2fd46c836a06233681665,64dc7d89fcd9bc44da8a3d48,,,,,,,decisionTrl,resources/DP.BMP,resources/DG.BMP,Door4,-0.344149842,-0.056929095,1,0,0,1.0815,optionLeft,80,1020,1,15,0,15,0,1,,,,,,,,,,,,,,,,,,,,,,,,,,,,,,,,,,,,,,,
,,,,,,,,2023-08-16_08h43.23.726,HF_wild_card,2022.2.4,Win32,61.06870229,64834d96c668b041fea4e9cf,64d2fd46c836a06233681665,64dc7d89fcd9bc44da8a3d48,,,,,,,decisionTrl,resources/DP.BMP,resources/DG.BMP,Door4,-0.301209154,-0.002277111,1,0,0,1.2162,optionLeft,80,1100,1,16,0,16,0,1,,,,,,,,,,,,,,,,,,,,,,,,,,,,,,,,,,,,,,,
,,,,,,,,2023-08-16_08h43.23.726,HF_wild_card,2022.2.4,Win32,61.06870229,64834d96c668b041fea4e9cf,64d2fd46c836a06233681665,64dc7d89fcd9bc44da8a3d48,,,,,,,ctch,resources/DP.BMP,resources/DR.BMP,Door4,-0.333740059,-0.053025388,1,0,0,1.3639,optionLeft,80,1180,1,17,0,17,0,1,,,,,,,,,,,,,,,,,,,,,,,,,,,,,,,,,,,,,,,
,,,,,,,,2023-08-16_08h43.23.726,HF_wild_card,2022.2.4,Win32,61.06870229,64834d96c668b041fea4e9cf,64d2fd46c836a06233681665,64dc7d89fcd9bc44da8a3d48,,,,,,,sngl,resources/Empty.png,resources/DB.BMP,WildCard_Ex,0.312974426,-0.045217974,1,0,0,1.1138,optionRight,5,1185,1,18,0,18,0,1,,,,,,,,,,,,,,,,,,,,,,,,,,,,,,,,,,,,,,,
,,,,,,,,2023-08-16_08h43.23.726,HF_wild_card,2022.2.4,Win32,61.06870229,64834d96c668b041fea4e9cf,64d2fd46c836a06233681665,64dc7d89fcd9bc44da8a3d48,,,,,,,decisionTrl,resources/DY.BMP,resources/DR.BMP,Door1,0.400157271,-0.059531464,1,0,0,2.607,optionRight,30,1215,1,19,0,19,0,1,,,,,,,,,,,,,,,,,,,,,,,,,,,,,,,,,,,,,,,
,,,,,,,,2023-08-16_08h43.23.726,HF_wild_card,2022.2.4,Win32,61.06870229,64834d96c668b041fea4e9cf,64d2fd46c836a06233681665,64dc7d89fcd9bc44da8a3d48,,,,,,,ctch,resources/DY.BMP,resources/DG.BMP,Door2,-0.285594282,-0.033506854,1,0,0,0.9836,optionLeft,40,1255,1,20,0,20,0,1,,,,,,,,,,,,,,,,,,,,,,,,,,,,,,,,,,,,,,,
,,,,,,,,2023-08-16_08h43.23.726,HF_wild_card,2022.2.4,Win32,61.06870229,64834d96c668b041fea4e9cf,64d2fd46c836a06233681665,64dc7d89fcd9bc44da8a3d48,,,,,,,decisionTrl,resources/DR.BMP,resources/DY.BMP,Door2,0.32338434,-0.064736509,1,0,0,1.8067,optionRight,40,1295,1,21,0,21,0,1,,,,,,,,,,,,,,,,,,,,,,,,,,,,,,,,,,,,,,,
,,,,,,,,2023-08-16_08h43.23.726,HF_wild_card,2022.2.4,Win32,61.06870229,64834d96c668b041fea4e9cf,64d2fd46c836a06233681665,64dc7d89fcd9bc44da8a3d48,,,,,,,decisionTrl,resources/DB.BMP,resources/DG.BMP,WildCard_Ex,-0.370174583,-0.029603147,1,0,0,1.258,optionLeft,5,1300,1,22,0,22,0,1,,,,,,,,,,,,,,,,,,,,,,,,,,,,,,,,,,,,,,,
,,,,,,,,2023-08-16_08h43.23.726,HF_wild_card,2022.2.4,Win32,61.06870229,64834d96c668b041fea4e9cf,64d2fd46c836a06233681665,64dc7d89fcd9bc44da8a3d48,,,,,,,decisionTrl,resources/DY.BMP,resources/DB.BMP,WildCard_Ex,0.305167012,-0.042615474,1,0,0,1.7568,optionRight,5,1305,1,23,0,23,0,1,,,,,,,,,,,,,,,,,,,,,,,,,,,,,,,,,,,,,,,
,,,,,,,,2023-08-16_08h43.23.726,HF_wild_card,2022.2.4,Win32,61.06870229,64834d96c668b041fea4e9cf,64d2fd46c836a06233681665,64dc7d89fcd9bc44da8a3d48,,,,,,,decisionTrl,resources/DG.BMP,resources/DB.BMP,Door3,-0.296004109,-0.008783362,1,0,0,1.3468,optionLeft,70,1375,1,24,0,24,0,1,,,,,,,,,,,,,,,,,,,,,,,,,,,,,,,,,,,,,,,
,,,,,,,,2023-08-16_08h43.23.726,HF_wild_card,2022.2.4,Win32,61.06870229,64834d96c668b041fea4e9cf,64d2fd46c836a06233681665,64dc7d89fcd9bc44da8a3d48,,,,,,,decisionTrl,resources/DP.BMP,resources/DG.BMP,Door4,-0.333740059,-0.063435171,1,0,0,1.897,optionLeft,60,1435,1,25,0,25,0,1,,,,,,,,,,,,,,,,,,,,,,,,,,,,,,,,,,,,,,,
,,,,,,,,2023-08-16_08h43.23.726,HF_wild_card,2022.2.4,Win32,61.06870229,64834d96c668b041fea4e9cf,64d2fd46c836a06233681665,64dc7d89fcd9bc44da8a3d48,,,,,,,ctch,resources/DY.BMP,resources/DG.BMP,Door3,0.363722439,-0.080351336,1,0,0,1.5117,optionRight,70,1505,1,26,0,26,0,1,,,,,,,,,,,,,,,,,,,,,,,,,,,,,,,,,,,,,,,
,,,,,,,,2023-08-16_08h43.23.726,HF_wild_card,2022.2.4,Win32,61.06870229,64834d96c668b041fea4e9cf,64d2fd46c836a06233681665,64dc7d89fcd9bc44da8a3d48,,,,,,,decisionTrl,resources/DR.BMP,resources/DY.BMP,Door2,0.306468131,-0.063435171,1,0,0,1.3693,optionRight,20,1525,1,27,0,27,0,1,,,,,,,,,,,,,,,,,,,,,,,,,,,,,,,,,,,,,,,
,,,,,,,,2023-08-16_08h43.23.726,HF_wild_card,2022.2.4,Win32,61.06870229,64834d96c668b041fea4e9cf,64d2fd46c836a06233681665,64dc7d89fcd9bc44da8a3d48,,,,,,,decisionTrl,resources/DY.BMP,resources/DR.BMP,Door1,0.253117441,-0.02439819,1,0,0,1.6829,optionRight,30,1555,1,28,0,28,0,1,,,,,,,,,,,,,,,,,,,,,,,,,,,,,,,,,,,,,,,
,,,,,,,,2023-08-16_08h43.23.726,HF_wild_card,2022.2.4,Win32,61.06870229,64834d96c668b041fea4e9cf,64d2fd46c836a06233681665,64dc7d89fcd9bc44da8a3d48,,,,,,,decisionTrl,resources/DP.BMP,resources/DG.BMP,Door4,-0.351957255,-0.019193233,1,0,0,1.3425,optionLeft,60,1615,1,29,0,29,0,1,,,,,,,,,,,,,,,,,,,,,,,,,,,,,,,,,,,,,,,
,,,,,,,,2023-08-16_08h43.23.726,HF_wild_card,2022.2.4,Win32,61.06870229,64834d96c668b041fea4e9cf,64d2fd46c836a06233681665,64dc7d89fcd9bc44da8a3d48,,,,,,,decisionTrl,resources/DB.BMP,resources/DR.BMP,WildCard_Ex,-0.394898162,-0.040013017,1,0,0,1.3041,optionLeft,5,1620,1,30,0,30,0,1,,,,,,,,,,,,,,,,,,,,,,,,,,,,,,,,,,,,,,,
,,,,,,,,2023-08-16_08h43.23.726,HF_wild_card,2022.2.4,Win32,61.06870229,64834d96c668b041fea4e9cf,64d2fd46c836a06233681665,64dc7d89fcd9bc44da8a3d48,,,,,,,decisionTrl,resources/DG.BMP,resources/DP.BMP,Door4,0.37673503,0.022446336,1,0,0,1.4116,optionRight,80,1700,1,31,0,31,0,1,,,,,,,,,,,,,,,,,,,,,,,,,,,,,,,,,,,,,,,
,,,,,,,,2023-08-16_08h43.23.726,HF_wild_card,2022.2.4,Win32,61.06870229,64834d96c668b041fea4e9cf,64d2fd46c836a06233681665,64dc7d89fcd9bc44da8a3d48,,,,,,,sngl,resources/DG.BMP,resources/Empty.png,Door3,-0.322028895,-0.03090431,1,0,0,1.3647,optionLeft,70,1770,1,32,0,32,0,1,,,,,,,,,,,,,,,,,,,,,,,,,,,,,,,,,,,,,,,
,,,,,,,,2023-08-16_08h43.23.726,HF_wild_card,2022.2.4,Win32,61.06870229,64834d96c668b041fea4e9cf,64d2fd46c836a06233681665,64dc7d89fcd9bc44da8a3d48,,,,,,,ctch,resources/DP.BMP,resources/DR.BMP,Door4,-0.327233764,-0.033506854,1,0,0,1.4307,optionLeft,60,1830,1,33,0,33,0,1,,,,,,,,,,,,,,,,,,,,,,,,,,,,,,,,,,,,,,,
,,,,,,,,2023-08-16_08h43.23.726,HF_wild_card,2022.2.4,Win32,61.06870229,64834d96c668b041fea4e9cf,64d2fd46c836a06233681665,64dc7d89fcd9bc44da8a3d48,,,,,,,decisionTrl,resources/DP.BMP,resources/DB.BMP,WildCard_Ex,0.314275544,-0.045217974,1,0,0,1.0786,optionRight,5,1835,1,34,0,34,0,1,,,,,,,,,,,,,,,,,,,,,,,,,,,,,,,,,,,,,,,
,,,,,,,,2023-08-16_08h43.23.726,HF_wild_card,2022.2.4,Win32,61.06870229,64834d96c668b041fea4e9cf,64d2fd46c836a06233681665,64dc7d89fcd9bc44da8a3d48,,,,,,,sngl,resources/DY.BMP,resources/Empty.png,Door2,-0.267376911,0.030253794,1,0,0,1.4212,optionLeft,40,1875,1,35,0,35,0,1,,,,,,,,,,,,,,,,,,,,,,,,,,,,,,,,,,,,,,,
,,,,,,,,2023-08-16_08h43.23.726,HF_wild_card,2022.2.4,Win32,61.06870229,64834d96c668b041fea4e9cf,64d2fd46c836a06233681665,64dc7d89fcd9bc44da8a3d48,,,,,,,sngl,resources/Empty.png,resources/DP.BMP,Door4,0.352011319,-0.000975949,1,0,0,1.0261,optionRight,60,1935,1,36,0,36,0,1,,,,,,,,,,,,,,,,,,,,,,,,,,,,,,,,,,,,,,,
,,,,,,,,2023-08-16_08h43.23.726,HF_wild_card,2022.2.4,Win32,61.06870229,64834d96c668b041fea4e9cf,64d2fd46c836a06233681665,64dc7d89fcd9bc44da8a3d48,,,,,,,decisionTrl,resources/DR.BMP,resources/DY.BMP,Door1,-0.328535014,-0.019193233,1,0,0,1.3217,optionLeft,30,1965,1,37,0,37,0,1,,,,,,,,,,,,,,,,,,,,,,,,,,,,,,,,,,,,,,,
,,,,,,,,2023-08-16_08h43.23.726,HF_wild_card,2022.2.4,Win32,61.06870229,64834d96c668b041fea4e9cf,64d2fd46c836a06233681665,64dc7d89fcd9bc44da8a3d48,,,,,,,sngl,resources/DB.BMP,resources/Empty.png,WildCard_Ex,-0.31942635,-0.011385819,1,0,0,1.1203,optionLeft,5,1970,1,38,0,38,0,1,,,,,,,,,,,,,,,,,,,,,,,,,,,,,,,,,,,,,,,
,,,,,,,,2023-08-16_08h43.23.726,HF_wild_card,2022.2.4,Win32,61.06870229,64834d96c668b041fea4e9cf,64d2fd46c836a06233681665,64dc7d89fcd9bc44da8a3d48,,,,,,,sngl,resources/Empty.png,resources/DB.BMP,WildCard_Ex,0.285648477,-0.011385819,1,0,0,1.3419,optionRight,95,2065,1,39,0,39,0,1,,,,,,,,,,,,,,,,,,,,,,,,,,,,,,,,,,,,,,,
,,,,,,,,2023-08-16_08h43.23.726,HF_wild_card,2022.2.4,Win32,61.06870229,64834d96c668b041fea4e9cf,64d2fd46c836a06233681665,64dc7d89fcd9bc44da8a3d48,,,,,,,sngl,resources/DB.BMP,resources/Empty.png,WildCard_Ex,-0.306414023,-0.023096852,1,0,0,1.0386,optionLeft,95,2160,1,40,0,40,0,1,,,,,,,,,,,,,,,,,,,,,,,,,,,,,,,,,,,,,,,
,,,,,,,,2023-08-16_08h43.23.726,HF_wild_card,2022.2.4,Win32,61.06870229,64834d96c668b041fea4e9cf,64d2fd46c836a06233681665,64dc7d89fcd9bc44da8a3d48,,,,,,,decisionTrl,resources/DG.BMP,resources/DP.BMP,Door3,-0.315522643,-0.015289526,1,0,0,2.0709,optionLeft,70,2230,1,41,0,41,0,1,,,,,,,,,,,,,,,,,,,,,,,,,,,,,,,,,,,,,,,
,,,,,,,,2023-08-16_08h43.23.726,HF_wild_card,2022.2.4,Win32,61.06870229,64834d96c668b041fea4e9cf,64d2fd46c836a06233681665,64dc7d89fcd9bc44da8a3d48,,,,,,,decisionTrl,resources/DR.BMP,resources/DY.BMP,Door2,0.453507961,0.087508147,1,0,0,2.3665,optionRight,20,2250,1,42,0,42,0,1,,,,,,,,,,,,,,,,,,,,,,,,,,,,,,,,,,,,,,,
,,,,,,,,2023-08-16_08h43.23.726,HF_wild_card,2022.2.4,Win32,61.06870229,64834d96c668b041fea4e9cf,64d2fd46c836a06233681665,64dc7d89fcd9bc44da8a3d48,,,,,,,sngl,resources/DR.BMP,resources/Empty.png,Door1,-0.335041178,-0.010084569,1,0,0,0.9361,optionLeft,30,2280,1,43,0,43,0,1,,,,,,,,,,,,,,,,,,,,,,,,,,,,,,,,,,,,,,,
,,,,,,,,2023-08-16_08h43.23.726,HF_wild_card,2022.2.4,Win32,61.06870229,64834d96c668b041fea4e9cf,64d2fd46c836a06233681665,64dc7d89fcd9bc44da8a3d48,,,,,,,,,,,,,,,,,,,,,,,,,,0,0,0,0,1,,,,,,,,,,,,,,,,,,,,,,,,,,,,,,,,,,
,,,,,,,,2023-08-16_08h43.23.726,HF_wild_card,2022.2.4,Win32,61.06870229,64834d96c668b041fea4e9cf,64d2fd46c836a06233681665,64dc7d89fcd9bc44da8a3d48,,,,,,,decisionTrl,resources/DP.BMP,resources/DG.BMP,Door3,0.32338434,-0.017892026,1,0,0,2.4259,optionRight,70,2350,2,0,0,0,0,1,,,,,,,,,,,,,,,,,,,,,,,,,,,,,,,,,,,,,,,
,,,,,,,,2023-08-16_08h43.23.726,HF_wild_card,2022.2.4,Win32,61.06870229,64834d96c668b041fea4e9cf,64d2fd46c836a06233681665,64dc7d89fcd9bc44da8a3d48,,,,,,,sngl,resources/Empty.png,resources/DR.BMP,Door1,0.38844615,-0.03610931,1,0,0,1.1587,optionRight,30,2380,2,1,0,1,0,1,,,,,,,,,,,,,,,,,,,,,,,,,,,,,,,,,,,,,,,
,,,,,,,,2023-08-16_08h43.23.726,HF_wild_card,2022.2.4,Win32,61.06870229,64834d96c668b041fea4e9cf,64d2fd46c836a06233681665,64dc7d89fcd9bc44da8a3d48,,,,,,,sngl,resources/DP.BMP,resources/Empty.png,Door4,-0.322028895,-0.045217974,1,0,0,0.8065,optionLeft,60,2440,2,2,0,2,0,1,,,,,,,,,,,,,,,,,,,,,,,,,,,,,,,,,,,,,,,
,,,,,,,,2023-08-16_08h43.23.726,HF_wild_card,2022.2.4,Win32,61.06870229,64834d96c668b041fea4e9cf,64d2fd46c836a06233681665,64dc7d89fcd9bc44da8a3d48,,,,,,,sngl,resources/Empty.png,resources/DP.BMP,Door4,0.305167012,-0.034808016,1,0,0,0.9479,optionRight,80,2520,2,3,0,3,0,1,,,,,,,,,,,,,,,,,,,,,,,,,,,,,,,,,,,,,,,
,,,,,,,,2023-08-16_08h43.23.726,HF_wild_card,2022.2.4,Win32,61.06870229,64834d96c668b041fea4e9cf,64d2fd46c836a06233681665,64dc7d89fcd9bc44da8a3d48,,,,,,,decisionTrl,resources/DG.BMP,resources/DB.BMP,Door3,-0.280389282,-0.02569944,1,0,0,1.5555,optionLeft,70,2590,2,4,0,4,0,1,,,,,,,,,,,,,,,,,,,,,,,,,,,,,,,,,,,,,,,
,,,,,,,,2023-08-16_08h43.23.726,HF_wild_card,2022.2.4,Win32,61.06870229,64834d96c668b041fea4e9cf,64d2fd46c836a06233681665,64dc7d89fcd9bc44da8a3d48,,,,,,,ctch,resources/DP.BMP,resources/DR.BMP,Door4,-0.323330057,-0.058230345,1,0,0,1.3092,optionLeft,60,2650,2,5,0,5,0,1,,,,,,,,,,,,,,,,,,,,,,,,,,,,,,,,,,,,,,,
,,,,,,,,2023-08-16_08h43.23.726,HF_wild_card,2022.2.4,Win32,61.06870229,64834d96c668b041fea4e9cf,64d2fd46c836a06233681665,64dc7d89fcd9bc44da8a3d48,,,,,,,decisionTrl,resources/DR.BMP,resources/DY.BMP,Door2,0.316878132,-0.049121681,1,0,0,2.3982,optionRight,40,2690,2,6,0,6,0,1,,,,,,,,,,,,,,,,,,,,,,,,,,,,,,,,,,,,,,,
,,,,,,,,2023-08-16_08h43.23.726,HF_wild_card,2022.2.4,Win32,61.06870229,64834d96c668b041fea4e9cf,64d2fd46c836a06233681665,64dc7d89fcd9bc44da8a3d48,,,,,,,decisionTrl,resources/DR.BMP,resources/DY.BMP,Door1,-0.312920187,-0.042615474,1,0,0,0.8122,optionLeft,30,2720,2,7,0,7,0,1,,,,,,,,,,,,,,,,,,,,,,,,,,,,,,,,,,,,,,,
,,,,,,,,2023-08-16_08h43.23.726,HF_wild_card,2022.2.4,Win32,61.06870229,64834d96c668b041fea4e9cf,64d2fd46c836a06233681665,64dc7d89fcd9bc44da8a3d48,,,,,,,ctch,resources/DY.BMP,resources/DG.BMP,Door3,0.280443564,-0.063435171,1,0,0,0.9136,optionRight,70,2790,2,8,0,8,0,1,,,,,,,,,,,,,,,,,,,,,,,,,,,,,,,,,,,,,,,
,,,,,,,,2023-08-16_08h43.23.726,HF_wild_card,2022.2.4,Win32,61.06870229,64834d96c668b041fea4e9cf,64d2fd46c836a06233681665,64dc7d89fcd9bc44da8a3d48,,,,,,,sngl,resources/DB.BMP,resources/Empty.png,WildCard_Ex,-0.223134885,-0.041314268,1,0,0,0.9216,optionLeft,95,2885,2,9,0,9,0,1,,,,,,,,,,,,,,,,,,,,,,,,,,,,,,,,,,,,,,,
,,,,,,,,2023-08-16_08h43.23.726,HF_wild_card,2022.2.4,Win32,61.06870229,64834d96c668b041fea4e9cf,64d2fd46c836a06233681665,64dc7d89fcd9bc44da8a3d48,,,,,,,decisionTrl,resources/DG.BMP,resources/DP.BMP,Door4,0.380638736,-0.047820431,1,0,0,1.6561,optionRight,60,2945,2,10,0,10,0,1,,,,,,,,,,,,,,,,,,,,,,,,,,,,,,,,,,,,,,,
,,,,,,,,2023-08-16_08h43.23.726,HF_wild_card,2022.2.4,Win32,61.06870229,64834d96c668b041fea4e9cf,64d2fd46c836a06233681665,64dc7d89fcd9bc44da8a3d48,,,,,,,decisionTrl,resources/DR.BMP,resources/DB.BMP,WildCard_Ex,0.211478047,-0.054326638,1,0,0,1.3961,optionRight,95,3040,2,11,0,11,0,1,,,,,,,,,,,,,,,,,,,,,,,,,,,,,,,,,,,,,,,
,,,,,,,,2023-08-16_08h43.23.726,HF_wild_card,2022.2.4,Win32,61.06870229,64834d96c668b041fea4e9cf,64d2fd46c836a06233681665,64dc7d89fcd9bc44da8a3d48,,,,,,,ctch,resources/DP.BMP,resources/DR.BMP,Door4,-0.288196695,-0.028301897,1,0,0,1.6299,optionLeft,60,3100,2,12,0,12,0,1,,,,,,,,,,,,,,,,,,,,,,,,,,,,,,,,,,,,,,,
,,,,,,,,2023-08-16_08h43.23.726,HF_wild_card,2022.2.4,Win32,61.06870229,64834d96c668b041fea4e9cf,64d2fd46c836a06233681665,64dc7d89fcd9bc44da8a3d48,,,,,,,decisionTrl,resources/DG.BMP,resources/DP.BMP,Door4,0.297359598,-0.033506854,1,0,0,0.8992,optionRight,80,3180,2,13,0,13,0,1,,,,,,,,,,,,,,,,,,,,,,,,,,,,,,,,,,,,,,,
,,,,,,,,2023-08-16_08h43.23.726,HF_wild_card,2022.2.4,Win32,61.06870229,64834d96c668b041fea4e9cf,64d2fd46c836a06233681665,64dc7d89fcd9bc44da8a3d48,,,,,,,ctch,resources/DR.BMP,resources/DP.BMP,Door4,0.324685546,-0.076447629,1,0,0,1.3135,optionRight,60,3240,2,14,0,14,0,1,,,,,,,,,,,,,,,,,,,,,,,,,,,,,,,,,,,,,,,
,,,,,,,,2023-08-16_08h43.23.726,HF_wild_card,2022.2.4,Win32,61.06870229,64834d96c668b041fea4e9cf,64d2fd46c836a06233681665,64dc7d89fcd9bc44da8a3d48,,,,,,,decisionTrl,resources/DP.BMP,resources/DG.BMP,Door4,-0.263473204,-0.016590776,1,0,0,1.3644,optionLeft,60,3300,2,15,0,15,0,1,,,,,,,,,,,,,,,,,,,,,,,,,,,,,,,,,,,,,,,
,,,,,,,,2023-08-16_08h43.23.726,HF_wild_card,2022.2.4,Win32,61.06870229,64834d96c668b041fea4e9cf,64d2fd46c836a06233681665,64dc7d89fcd9bc44da8a3d48,,,,,,,ctch,resources/DG.BMP,resources/DY.BMP,Door3,-0.323330057,-0.034808016,1,0,0,1.0635,optionLeft,70,3370,2,16,0,16,0,1,,,,,,,,,,,,,,,,,,,,,,,,,,,,,,,,,,,,,,,
,,,,,,,,2023-08-16_08h43.23.726,HF_wild_card,2022.2.4,Win32,61.06870229,64834d96c668b041fea4e9cf,64d2fd46c836a06233681665,64dc7d89fcd9bc44da8a3d48,,,,,,,decisionTrl,resources/DB.BMP,resources/DR.BMP,WildCard_Ex,-0.337643678,-0.049121681,1,0,0,1.2026,optionLeft,5,3375,2,17,0,17,0,1,,,,,,,,,,,,,,,,,,,,,,,,,,,,,,,,,,,,,,,
,,,,,,,,2023-08-16_08h43.23.726,HF_wild_card,2022.2.4,Win32,61.06870229,64834d96c668b041fea4e9cf,64d2fd46c836a06233681665,64dc7d89fcd9bc44da8a3d48,,,,,,,ctch,resources/DG.BMP,resources/DY.BMP,Door3,-0.233544755,-0.010084569,1,0,0,1.3292,optionLeft,70,3445,2,18,0,18,0,1,,,,,,,,,,,,,,,,,,,,,,,,,,,,,,,,,,,,,,,
,,,,,,,,2023-08-16_08h43.23.726,HF_wild_card,2022.2.4,Win32,61.06870229,64834d96c668b041fea4e9cf,64d2fd46c836a06233681665,64dc7d89fcd9bc44da8a3d48,,,,,,,decisionTrl,resources/DP.BMP,resources/DB.BMP,WildCard_Ex,0.305167012,-0.015289526,1,0,0,0.9663,optionRight,5,3450,2,19,0,19,0,1,,,,,,,,,,,,,,,,,,,,,,,,,,,,,,,,,,,,,,,
,,,,,,,,2023-08-16_08h43.23.726,HF_wild_card,2022.2.4,Win32,61.06870229,64834d96c668b041fea4e9cf,64d2fd46c836a06233681665,64dc7d89fcd9bc44da8a3d48,,,,,,,ctch,resources/DR.BMP,resources/DP.BMP,Door4,0.358517702,-0.029603147,1,0,0,1.0402,optionRight,60,3510,2,20,0,20,0,1,,,,,,,,,,,,,,,,,,,,,,,,,,,,,,,,,,,,,,,
,,,,,,,,2023-08-16_08h43.23.726,HF_wild_card,2022.2.4,Win32,61.06870229,64834d96c668b041fea4e9cf,64d2fd46c836a06233681665,64dc7d89fcd9bc44da8a3d48,,,,,,,sngl,resources/DG.BMP,resources/Empty.png,Door3,-0.282991738,0.000325302,1,0,0,1.1171,optionLeft,70,3580,2,21,0,21,0,1,,,,,,,,,,,,,,,,,,,,,,,,,,,,,,,,,,,,,,,
,,,,,,,,2023-08-16_08h43.23.726,HF_wild_card,2022.2.4,Win32,61.06870229,64834d96c668b041fea4e9cf,64d2fd46c836a06233681665,64dc7d89fcd9bc44da8a3d48,,,,,,,decisionTrl,resources/DP.BMP,resources/DG.BMP,Door4,-0.368873333,-0.032205604,1,0,0,1.4298,optionLeft,60,3640,2,22,0,22,0,1,,,,,,,,,,,,,,,,,,,,,,,,,,,,,,,,,,,,,,,
,,,,,,,,2023-08-16_08h43.23.726,HF_wild_card,2022.2.4,Win32,61.06870229,64834d96c668b041fea4e9cf,64d2fd46c836a06233681665,64dc7d89fcd9bc44da8a3d48,,,,,,,decisionTrl,resources/DG.BMP,resources/DP.BMP,Door4,0.182850805,-0.011385819,1,0,0,2.2705,optionRight,80,3720,2,23,0,23,0,1,,,,,,,,,,,,,,,,,,,,,,,,,,,,,,,,,,,,,,,
,,,,,,,,2023-08-16_08h43.23.726,HF_wild_card,2022.2.4,Win32,61.06870229,64834d96c668b041fea4e9cf,64d2fd46c836a06233681665,64dc7d89fcd9bc44da8a3d48,,,,,,,decisionTrl,resources/DY.BMP,resources/DR.BMP,Door1,0.27653977,-0.020494483,1,0,0,1.3506,optionRight,30,3750,2,24,0,24,0,1,,,,,,,,,,,,,,,,,,,,,,,,,,,,,,,,,,,,,,,
,,,,,,,,2023-08-16_08h43.23.726,HF_wild_card,2022.2.4,Win32,61.06870229,64834d96c668b041fea4e9cf,64d2fd46c836a06233681665,64dc7d89fcd9bc44da8a3d48,,,,,,,sngl,resources/Empty.png,resources/DB.BMP,WildCard_Ex,0.358517702,-0.040013017,1,0,0,0.9757,optionRight,5,3755,2,25,0,25,0,1,,,,,,,,,,,,,,,,,,,,,,,,,,,,,,,,,,,,,,,
,,,,,,,,2023-08-16_08h43.23.726,HF_wild_card,2022.2.4,Win32,61.06870229,64834d96c668b041fea4e9cf,64d2fd46c836a06233681665,64dc7d89fcd9bc44da8a3d48,,,,,,,sngl,resources/Empty.png,resources/DY.BMP,Door2,0.212779253,-0.02569944,1,0,0,0.9498,optionRight,40,3795,2,26,0,26,0,1,,,,,,,,,,,,,,,,,,,,,,,,,,,,,,,,,,,,,,,
,,,,,,,,2023-08-16_08h43.23.726,HF_wild_card,2022.2.4,Win32,61.06870229,64834d96c668b041fea4e9cf,64d2fd46c836a06233681665,64dc7d89fcd9bc44da8a3d48,,,,,,,sngl,resources/DY.BMP,resources/Empty.png,Door2,-0.289497989,-0.029603147,1,0,0,0.7144,optionLeft,20,3815,2,27,0,27,0,1,,,,,,,,,,,,,,,,,,,,,,,,,,,,,,,,,,,,,,,
,,,,,,,,2023-08-16_08h43.23.726,HF_wild_card,2022.2.4,Win32,61.06870229,64834d96c668b041fea4e9cf,64d2fd46c836a06233681665,64dc7d89fcd9bc44da8a3d48,,,,,,,sngl,resources/Empty.png,resources/DG.BMP,Door3,0.234900288,-0.020494483,1,0,0,0.9638,optionRight,70,3885,2,28,0,28,0,1,,,,,,,,,,,,,,,,,,,,,,,,,,,,,,,,,,,,,,,
,,,,,,,,2023-08-16_08h43.23.726,HF_wild_card,2022.2.4,Win32,61.06870229,64834d96c668b041fea4e9cf,64d2fd46c836a06233681665,64dc7d89fcd9bc44da8a3d48,,,,,,,decisionTrl,resources/DR.BMP,resources/DY.BMP,Door1,-0.312920187,0.000325302,1,0,0,1.1639,optionLeft,30,3915,2,29,0,29,0,1,,,,,,,,,,,,,,,,,,,,,,,,,,,,,,,,,,,,,,,
,,,,,,,,2023-08-16_08h43.23.726,HF_wild_card,2022.2.4,Win32,61.06870229,64834d96c668b041fea4e9cf,64d2fd46c836a06233681665,64dc7d89fcd9bc44da8a3d48,,,,,,,decisionTrl,resources/DY.BMP,resources/DR.BMP,Door2,-0.194507687,-0.067338922,1,0,0,1.547,optionLeft,40,3955,2,30,0,30,0,1,,,,,,,,,,,,,,,,,,,,,,,,,,,,,,,,,,,,,,,
,,,,,,,,2023-08-16_08h43.23.726,HF_wild_card,2022.2.4,Win32,61.06870229,64834d96c668b041fea4e9cf,64d2fd46c836a06233681665,64dc7d89fcd9bc44da8a3d48,,,,,,,decisionTrl,resources/DB.BMP,resources/DP.BMP,Door4,0.284347271,-0.063435171,1,0,0,1.9279,optionRight,80,4035,2,31,0,31,0,1,,,,,,,,,,,,,,,,,,,,,,,,,,,,,,,,,,,,,,,
,,,,,,,,2023-08-16_08h43.23.726,HF_wild_card,2022.2.4,Win32,61.06870229,64834d96c668b041fea4e9cf,64d2fd46c836a06233681665,64dc7d89fcd9bc44da8a3d48,,,,,,,sngl,resources/Empty.png,resources/DB.BMP,WildCard_Ex,0.327288047,0.001626596,1,0,0,1.1527,optionRight,95,4130,2,32,0,32,0,1,,,,,,,,,,,,,,,,,,,,,,,,,,,,,,,,,,,,,,,
,,,,,,,,2023-08-16_08h43.23.726,HF_wild_card,2022.2.4,Win32,61.06870229,64834d96c668b041fea4e9cf,64d2fd46c836a06233681665,64dc7d89fcd9bc44da8a3d48,,,,,,,ctch,resources/DY.BMP,resources/DG.BMP,Door2,-0.194507687,-0.038711723,1,0,0,1.2473,optionLeft,40,4170,2,33,0,33,0,1,,,,,,,,,,,,,,,,,,,,,,,,,,,,,,,,,,,,,,,
,,,,,,,,2023-08-16_08h43.23.726,HF_wild_card,2022.2.4,Win32,61.06870229,64834d96c668b041fea4e9cf,64d2fd46c836a06233681665,64dc7d89fcd9bc44da8a3d48,,,,,,,decisionTrl,resources/DB.BMP,resources/DY.BMP,WildCard_Ex,-0.224436179,-0.081652586,1,0,0,1.1968,optionLeft,5,4175,2,34,0,34,0,1,,,,,,,,,,,,,,,,,,,,,,,,,,,,,,,,,,,,,,,
,,,,,,,,2023-08-16_08h43.23.726,HF_wild_card,2022.2.4,Win32,61.06870229,64834d96c668b041fea4e9cf,64d2fd46c836a06233681665,64dc7d89fcd9bc44da8a3d48,,,,,,,sngl,resources/DB.BMP,resources/Empty.png,WildCard_Ex,-0.267376911,-0.033506854,1,0,0,4.8809,optionLeft,5,4180,2,35,0,35,0,1,,,,,,,,,,,,,,,,,,,,,,,,,,,,,,,,,,,,,,,
,,,,,,,,2023-08-16_08h43.23.726,HF_wild_card,2022.2.4,Win32,61.06870229,64834d96c668b041fea4e9cf,64d2fd46c836a06233681665,64dc7d89fcd9bc44da8a3d48,,,,,,,decisionTrl,resources/DB.BMP,resources/DG.BMP,Door3,0.273937357,-0.021795733,1,0,0,0.9817,optionRight,70,4250,2,36,0,36,0,1,,,,,,,,,,,,,,,,,,,,,,,,,,,,,,,,,,,,,,,
,,,,,,,,2023-08-16_08h43.23.726,HF_wild_card,2022.2.4,Win32,61.06870229,64834d96c668b041fea4e9cf,64d2fd46c836a06233681665,64dc7d89fcd9bc44da8a3d48,,,,,,,decisionTrl,resources/DY.BMP,resources/DB.BMP,WildCard_Ex,0.345505375,-0.006180818,1,0,0,1.504,optionRight,5,4255,2,37,0,37,0,1,,,,,,,,,,,,,,,,,,,,,,,,,,,,,,,,,,,,,,,
,,,,,,,,2023-08-16_08h43.23.726,HF_wild_card,2022.2.4,Win32,61.06870229,64834d96c668b041fea4e9cf,64d2fd46c836a06233681665,64dc7d89fcd9bc44da8a3d48,,,,,,,decisionTrl,resources/DR.BMP,resources/DY.BMP,Door1,-0.260870835,-0.012687069,1,0,0,0.9636,optionLeft,30,4285,2,38,0,38,0,1,,,,,,,,,,,,,,,,,,,,,,,,,,,,,,,,,,,,,,,
,,,,,,,,2023-08-16_08h43.23.726,HF_wild_card,2022.2.4,Win32,61.06870229,64834d96c668b041fea4e9cf,64d2fd46c836a06233681665,64dc7d89fcd9bc44da8a3d48,,,,,,,sngl,resources/DR.BMP,resources/Empty.png,Door1,-0.328535014,-0.03090431,1,0,0,2.0805,optionLeft,30,4315,2,39,0,39,0,1,,,,,,,,,,,,,,,,,,,,,,,,,,,,,,,,,,,,,,,
,,,,,,,,2023-08-16_08h43.23.726,HF_wild_card,2022.2.4,Win32,61.06870229,64834d96c668b041fea4e9cf,64d2fd46c836a06233681665,64dc7d89fcd9bc44da8a3d48,,,,,,,decisionTrl,resources/DP.BMP,resources/DG.BMP,Door4,-0.306414023,-0.047820431,1,0,0,2.7804,optionLeft,60,4375,2,40,0,40,0,1,,,,,,,,,,,,,,,,,,,,,,,,,,,,,,,,,,,,,,,
,,,,,,,,2023-08-16_08h43.23.726,HF_wild_card,2022.2.4,Win32,61.06870229,64834d96c668b041fea4e9cf,64d2fd46c836a06233681665,64dc7d89fcd9bc44da8a3d48,,,,,,,decisionTrl,resources/DY.BMP,resources/DR.BMP,Door2,-0.189302729,0.030253794,1,0,0,1.18,optionLeft,40,4415,2,41,0,41,0,1,,,,,,,,,,,,,,,,,,,,,,,,,,,,,,,,,,,,,,,
,,,,,,,,2023-08-16_08h43.23.726,HF_wild_card,2022.2.4,Win32,61.06870229,64834d96c668b041fea4e9cf,64d2fd46c836a06233681665,64dc7d89fcd9bc44da8a3d48,,,,,,,decisionTrl,resources/DG.BMP,resources/DP.BMP,Door4,0.32338434,-0.019193233,1,0,0,0.9469,optionRight,60,4475,2,42,0,42,0,1,,,,,,,,,,,,,,,,,,,,,,,,,,,,,,,,,,,,,,,
,,,,,,,,2023-08-16_08h43.23.726,HF_wild_card,2022.2.4,Win32,61.06870229,64834d96c668b041fea4e9cf,64d2fd46c836a06233681665,64dc7d89fcd9bc44da8a3d48,,,,,,,decisionTrl,resources/DY.BMP,resources/DR.BMP,Door1,0.277841064,-0.02569944,1,0,0,1.2142,optionRight,30,4505,2,43,0,43,0,1,,,,,,,,,,,,,,,,,,,,,,,,,,,,,,,,,,,,,,,
,,,,,,,,2023-08-16_08h43.23.726,HF_wild_card,2022.2.4,Win32,61.06870229,64834d96c668b041fea4e9cf,64d2fd46c836a06233681665,64dc7d89fcd9bc44da8a3d48,,,,,,,,,,,,,,,,,,,,,,,,,,1,0,1,0,1,,,,,,,,,,,,,,,,,,,,,,,,,,,,,,,,,,
,,,,,,,,2023-08-16_08h43.23.726,HF_wild_card,2022.2.4,Win32,61.06870229,64834d96c668b041fea4e9cf,64d2fd46c836a06233681665,64dc7d89fcd9bc44da8a3d48,,,,,,,decisionTrl,resources/DG.BMP,resources/DB.BMP,Door3,-0.286895445,-0.056929095,1,0,0,1.1607,optionLeft,70,4575,3,0,0,0,0,1,,,,,,,,,,,,,,,,,,,,,,,,,,,,,,,,,,,,,,,
,,,,,,,,2023-08-16_08h43.23.726,HF_wild_card,2022.2.4,Win32,61.06870229,64834d96c668b041fea4e9cf,64d2fd46c836a06233681665,64dc7d89fcd9bc44da8a3d48,,,,,,,sngl,resources/Empty.png,resources/DB.BMP,WildCard_Ex,0.275238563,-0.010084569,1,0,0,0.9651,optionRight,5,4580,3,1,0,1,0,1,,,,,,,,,,,,,,,,,,,,,,,,,,,,,,,,,,,,,,,
,,,,,,,,2023-08-16_08h43.23.726,HF_wild_card,2022.2.4,Win32,61.06870229,64834d96c668b041fea4e9cf,64d2fd46c836a06233681665,64dc7d89fcd9bc44da8a3d48,,,,,,,decisionTrl,resources/DG.BMP,resources/DP.BMP,Door3,-0.285594282,-0.060832802,1,0,0,2.4473,optionLeft,70,4650,3,2,0,2,0,1,,,,,,,,,,,,,,,,,,,,,,,,,,,,,,,,,,,,,,,
,,,,,,,,2023-08-16_08h43.23.726,HF_wild_card,2022.2.4,Win32,61.06870229,64834d96c668b041fea4e9cf,64d2fd46c836a06233681665,64dc7d89fcd9bc44da8a3d48,,,,,,,decisionTrl,resources/DP.BMP,resources/DG.BMP,Door4,-0.296004109,-0.080351336,1,0,0,1.1172,optionLeft,60,4710,3,3,0,3,0,1,,,,,,,,,,,,,,,,,,,,,,,,,,,,,,,,,,,,,,,
,,,,,,,,2023-08-16_08h43.23.726,HF_wild_card,2022.2.4,Win32,61.06870229,64834d96c668b041fea4e9cf,64d2fd46c836a06233681665,64dc7d89fcd9bc44da8a3d48,,,,,,,ctch,resources/DR.BMP,resources/DP.BMP,Door4,0.325986753,-0.028301897,1,0,0,1.1006,optionRight,60,4770,3,4,0,4,0,1,,,,,,,,,,,,,,,,,,,,,,,,,,,,,,,,,,,,,,,
,,,,,,,,2023-08-16_08h43.23.726,HF_wild_card,2022.2.4,Win32,61.06870229,64834d96c668b041fea4e9cf,64d2fd46c836a06233681665,64dc7d89fcd9bc44da8a3d48,,,,,,,ctch,resources/DG.BMP,resources/DY.BMP,Door3,-0.296004109,0.03936237,1,0,0,1.9303,optionLeft,70,4840,3,5,0,5,0,1,,,,,,,,,,,,,,,,,,,,,,,,,,,,,,,,,,,,,,,
,,,,,,,,2023-08-16_08h43.23.726,HF_wild_card,2022.2.4,Win32,61.06870229,64834d96c668b041fea4e9cf,64d2fd46c836a06233681665,64dc7d89fcd9bc44da8a3d48,,,,,,,decisionTrl,resources/DY.BMP,resources/DB.BMP,WildCard_Ex,0.336396667,-0.045217974,1,0,0,1.1058,optionRight,5,4845,3,6,0,6,0,1,,,,,,,,,,,,,,,,,,,,,,,,,,,,,,,,,,,,,,,
,,,,,,,,2023-08-16_08h43.23.726,HF_wild_card,2022.2.4,Win32,61.06870229,64834d96c668b041fea4e9cf,64d2fd46c836a06233681665,64dc7d89fcd9bc44da8a3d48,,,,,,,sngl,resources/DB.BMP,resources/Empty.png,WildCard_Ex,-0.195808937,0.008132715,1,0,0,1.3209,optionLeft,95,4940,3,7,0,7,0,1,,,,,,,,,,,,,,,,,,,,,,,,,,,,,,,,,,,,,,,
,,,,,,,,2023-08-16_08h43.23.726,HF_wild_card,2022.2.4,Win32,61.06870229,64834d96c668b041fea4e9cf,64d2fd46c836a06233681665,64dc7d89fcd9bc44da8a3d48,,,,,,,sngl,resources/DY.BMP,resources/Empty.png,Door2,-0.292100402,-0.016590776,1,0,0,0.9599,optionLeft,40,4980,3,8,0,8,0,1,,,,,,,,,,,,,,,,,,,,,,,,,,,,,,,,,,,,,,,
,,,,,,,,2023-08-16_08h43.23.726,HF_wild_card,2022.2.4,Win32,61.06870229,64834d96c668b041fea4e9cf,64d2fd46c836a06233681665,64dc7d89fcd9bc44da8a3d48,,,,,,,decisionTrl,resources/DP.BMP,resources/DG.BMP,Door3,0.346806581,-0.037410561,1,0,0,1.3028,optionRight,70,5050,3,9,0,9,0,1,,,,,,,,,,,,,,,,,,,,,,,,,,,,,,,,,,,,,,,
,,,,,,,,2023-08-16_08h43.23.726,HF_wild_card,2022.2.4,Win32,61.06870229,64834d96c668b041fea4e9cf,64d2fd46c836a06233681665,64dc7d89fcd9bc44da8a3d48,,,,,,,decisionTrl,resources/DY.BMP,resources/DR.BMP,Door2,-0.262171954,-0.004879656,1,0,0,1.1111,optionLeft,40,5090,3,10,0,10,0,1,,,,,,,,,,,,,,,,,,,,,,,,,,,,,,,,,,,,,,,
,,,,,,,,2023-08-16_08h43.23.726,HF_wild_card,2022.2.4,Win32,61.06870229,64834d96c668b041fea4e9cf,64d2fd46c836a06233681665,64dc7d89fcd9bc44da8a3d48,,,,,,,sngl,resources/DR.BMP,resources/Empty.png,Door1,-0.208821308,0.001626596,1,0,0,0.8149,optionLeft,30,5120,3,11,0,11,0,1,,,,,,,,,,,,,,,,,,,,,,,,,,,,,,,,,,,,,,,
,,,,,,,,2023-08-16_08h43.23.726,HF_wild_card,2022.2.4,Win32,61.06870229,64834d96c668b041fea4e9cf,64d2fd46c836a06233681665,64dc7d89fcd9bc44da8a3d48,,,,,,,decisionTrl,resources/DR.BMP,resources/DB.BMP,WildCard_Ex,0.316878132,-0.043916724,1,0,0,1.0383,optionRight,5,5125,3,12,0,12,0,1,,,,,,,,,,,,,,,,,,,,,,,,,,,,,,,,,,,,,,,
,,,,,,,,2023-08-16_08h43.23.726,HF_wild_card,2022.2.4,Win32,61.06870229,64834d96c668b041fea4e9cf,64d2fd46c836a06233681665,64dc7d89fcd9bc44da8a3d48,,,,,,,ctch,resources/DG.BMP,resources/DY.BMP,Door3,-0.302510272,0.026350043,1,0,0,0.9873,optionLeft,70,5195,3,13,0,13,0,1,,,,,,,,,,,,,,,,,,,,,,,,,,,,,,,,,,,,,,,
,,,,,,,,2023-08-16_08h43.23.726,HF_wild_card,2022.2.4,Win32,61.06870229,64834d96c668b041fea4e9cf,64d2fd46c836a06233681665,64dc7d89fcd9bc44da8a3d48,,,,,,,decisionTrl,resources/DB.BMP,resources/DP.BMP,Door4,0.309070719,-0.082953793,1,0,0,1.5643,optionRight,60,5255,3,14,0,14,0,1,,,,,,,,,,,,,,,,,,,,,,,,,,,,,,,,,,,,,,,
,,,,,,,,2023-08-16_08h43.23.726,HF_wild_card,2022.2.4,Win32,61.06870229,64834d96c668b041fea4e9cf,64d2fd46c836a06233681665,64dc7d89fcd9bc44da8a3d48,,,,,,,decisionTrl,resources/DR.BMP,resources/DY.BMP,Door2,0.254418823,-0.015289526,1,0,0,1.6578,optionRight,40,5295,3,15,0,15,0,1,,,,,,,,,,,,,,,,,,,,,,,,,,,,,,,,,,,,,,,
,,,,,,,,2023-08-16_08h43.23.726,HF_wild_card,2022.2.4,Win32,61.06870229,64834d96c668b041fea4e9cf,64d2fd46c836a06233681665,64dc7d89fcd9bc44da8a3d48,,,,,,,decisionTrl,resources/DP.BMP,resources/DG.BMP,Door3,0.314275544,-0.007482112,1,0,0,1.4166,optionRight,70,5365,3,16,0,16,0,1,,,,,,,,,,,,,,,,,,,,,,,,,,,,,,,,,,,,,,,
,,,,,,,,2023-08-16_08h43.23.726,HF_wild_card,2022.2.4,Win32,61.06870229,64834d96c668b041fea4e9cf,64d2fd46c836a06233681665,64dc7d89fcd9bc44da8a3d48,,,,,,,decisionTrl,resources/DG.BMP,resources/DP.BMP,Door4,0.336396667,-0.046519181,1,0,0,1.5554,optionRight,60,5425,3,17,0,17,0,1,,,,,,,,,,,,,,,,,,,,,,,,,,,,,,,,,,,,,,,
,,,,,,,,2023-08-16_08h43.23.726,HF_wild_card,2022.2.4,Win32,61.06870229,64834d96c668b041fea4e9cf,64d2fd46c836a06233681665,64dc7d89fcd9bc44da8a3d48,,,,,,,sngl,resources/Empty.png,resources/DG.BMP,Door3,0.244008908,0.001626596,1,0,0,1.4217,optionRight,70,5495,3,18,0,18,0,1,,,,,,,,,,,,,,,,,,,,,,,,,,,,,,,,,,,,,,,
,,,,,,,,2023-08-16_08h43.23.726,HF_wild_card,2022.2.4,Win32,61.06870229,64834d96c668b041fea4e9cf,64d2fd46c836a06233681665,64dc7d89fcd9bc44da8a3d48,,,,,,,sngl,resources/Empty.png,resources/DR.BMP,Door1,0.224490374,-0.029603147,1,0,0,1.4945,optionRight,30,5525,3,19,0,19,0,1,,,,,,,,,,,,,,,,,,,,,,,,,,,,,,,,,,,,,,,
,,,,,,,,2023-08-16_08h43.23.726,HF_wild_card,2022.2.4,Win32,61.06870229,64834d96c668b041fea4e9cf,64d2fd46c836a06233681665,64dc7d89fcd9bc44da8a3d48,,,,,,,decisionTrl,resources/DG.BMP,resources/DP.BMP,Door3,-0.243954669,-0.042615474,1,0,0,1.2614,optionLeft,70,5595,3,20,0,20,0,1,,,,,,,,,,,,,,,,,,,,,,,,,,,,,,,,,,,,,,,
,,,,,,,,2023-08-16_08h43.23.726,HF_wild_card,2022.2.4,Win32,61.06870229,64834d96c668b041fea4e9cf,64d2fd46c836a06233681665,64dc7d89fcd9bc44da8a3d48,,,,,,,decisionTrl,resources/DY.BMP,resources/DR.BMP,Door1,-0.003226006,-0.006180818,1,0,0,0.5774,optionRight,30,5625,3,21,0,21,0,1,,,,,,,,,,,,,,,,,,,,,,,,,,,,,,,,,,,,,,,
,,,,,,,,2023-08-16_08h43.23.726,HF_wild_card,2022.2.4,Win32,61.06870229,64834d96c668b041fea4e9cf,64d2fd46c836a06233681665,64dc7d89fcd9bc44da8a3d48,,,,,,,decisionTrl,resources/DB.BMP,resources/DG.BMP,WildCard_Ex,-0.325932645,-0.055627757,1,0,0,3.8454,optionLeft,5,5630,3,22,0,22,0,1,,,,,,,,,,,,,,,,,,,,,,,,,,,,,,,,,,,,,,,
,,,,,,,,2023-08-16_08h43.23.726,HF_wild_card,2022.2.4,Win32,61.06870229,64834d96c668b041fea4e9cf,64d2fd46c836a06233681665,64dc7d89fcd9bc44da8a3d48,,,,,,,ctch,resources/DY.BMP,resources/DG.BMP,Door2,-0.298606566,-0.013988276,1,0,0,3.3333,optionLeft,40,5670,3,23,0,23,0,1,,,,,,,,,,,,,,,,,,,,,,,,,,,,,,,,,,,,,,,
,,,,,,,,2023-08-16_08h43.23.726,HF_wild_card,2022.2.4,Win32,61.06870229,64834d96c668b041fea4e9cf,64d2fd46c836a06233681665,64dc7d89fcd9bc44da8a3d48,,,,,,,sngl,resources/DP.BMP,resources/Empty.png,Door4,-0.351957255,-0.093363707,1,0,0,2.3181,optionLeft,80,5750,3,24,0,24,0,1,,,,,,,,,,,,,,,,,,,,,,,,,,,,,,,,,,,,,,,
,,,,,,,,2023-08-16_08h43.23.726,HF_wild_card,2022.2.4,Win32,61.06870229,64834d96c668b041fea4e9cf,64d2fd46c836a06233681665,64dc7d89fcd9bc44da8a3d48,,,,,,,decisionTrl,resources/DR.BMP,resources/DY.BMP,Door1,-0.277786825,-0.073845173,1,0,0,1.0566,optionLeft,30,5780,3,25,0,25,0,1,,,,,,,,,,,,,,,,,,,,,,,,,,,,,,,,,,,,,,,
,,,,,,,,2023-08-16_08h43.23.726,HF_wild_card,2022.2.4,Win32,61.06870229,64834d96c668b041fea4e9cf,64d2fd46c836a06233681665,64dc7d89fcd9bc44da8a3d48,,,,,,,ctch,resources/DP.BMP,resources/DR.BMP,Door4,-0.279088031,-0.043916724,1,0,0,1.0113,optionLeft,60,5840,3,26,0,26,0,1,,,,,,,,,,,,,,,,,,,,,,,,,,,,,,,,,,,,,,,
,,,,,,,,2023-08-16_08h43.23.726,HF_wild_card,2022.2.4,Win32,61.06870229,64834d96c668b041fea4e9cf,64d2fd46c836a06233681665,64dc7d89fcd9bc44da8a3d48,,,,,,,decisionTrl,resources/DR.BMP,resources/DY.BMP,Door1,-0.225737342,0.058880948,1,0,0,2.2205,optionLeft,30,5870,3,27,0,27,0,1,,,,,,,,,,,,,,,,,,,,,,,,,,,,,,,,,,,,,,,
,,,,,,,,2023-08-16_08h43.23.726,HF_wild_card,2022.2.4,Win32,61.06870229,64834d96c668b041fea4e9cf,64d2fd46c836a06233681665,64dc7d89fcd9bc44da8a3d48,,,,,,,ctch,resources/DP.BMP,resources/DR.BMP,Door4,-0.301209154,-0.010084569,1,0,0,0.9896,optionLeft,60,5930,3,28,0,28,0,1,,,,,,,,,,,,,,,,,,,,,,,,,,,,,,,,,,,,,,,
,,,,,,,,2023-08-16_08h43.23.726,HF_wild_card,2022.2.4,Win32,61.06870229,64834d96c668b041fea4e9cf,64d2fd46c836a06233681665,64dc7d89fcd9bc44da8a3d48,,,,,,,decisionTrl,resources/DG.BMP,resources/DP.BMP,Door3,-0.368873333,-0.023096852,1,0,0,1.3132,optionLeft,70,6000,3,29,0,29,0,1,,,,,,,,,,,,,,,,,,,,,,,,,,,,,,,,,,,,,,,
,,,,,,,,2023-08-16_08h43.23.726,HF_wild_card,2022.2.4,Win32,61.06870229,64834d96c668b041fea4e9cf,64d2fd46c836a06233681665,64dc7d89fcd9bc44da8a3d48,,,,,,,sngl,resources/DG.BMP,resources/Empty.png,Door3,-0.353258506,0.045868578,1,0,0,1.1942,optionLeft,70,6070,3,30,0,30,0,1,,,,,,,,,,,,,,,,,,,,,,,,,,,,,,,,,,,,,,,
,,,,,,,,2023-08-16_08h43.23.726,HF_wild_card,2022.2.4,Win32,61.06870229,64834d96c668b041fea4e9cf,64d2fd46c836a06233681665,64dc7d89fcd9bc44da8a3d48,,,,,,,decisionTrl,resources/DY.BMP,resources/DR.BMP,Door1,0.328589253,-0.012687069,1,0,0,1.3945,optionRight,30,6100,3,31,0,31,0,1,,,,,,,,,,,,,,,,,,,,,,,,,,,,,,,,,,,,,,,
,,,,,,,,2023-08-16_08h43.23.726,HF_wild_card,2022.2.4,Win32,61.06870229,64834d96c668b041fea4e9cf,64d2fd46c836a06233681665,64dc7d89fcd9bc44da8a3d48,,,,,,,sngl,resources/Empty.png,resources/DB.BMP,WildCard_Ex,0.393651063,-0.029603147,1,0,0,1.0324,optionRight,95,6195,3,32,0,32,0,1,,,,,,,,,,,,,,,,,,,,,,,,,,,,,,,,,,,,,,,
,,,,,,,,2023-08-16_08h43.23.726,HF_wild_card,2022.2.4,Win32,61.06870229,64834d96c668b041fea4e9cf,64d2fd46c836a06233681665,64dc7d89fcd9bc44da8a3d48,,,,,,,decisionTrl,resources/DR.BMP,resources/DY.BMP,Door1,-0.30771523,-0.02569944,1,0,0,1.521,optionLeft,30,6225,3,33,0,33,0,1,,,,,,,,,,,,,,,,,,,,,,,,,,,,,,,,,,,,,,,
,,,,,,,,2023-08-16_08h43.23.726,HF_wild_card,2022.2.4,Win32,61.06870229,64834d96c668b041fea4e9cf,64d2fd46c836a06233681665,64dc7d89fcd9bc44da8a3d48,,,,,,,decisionTrl,resources/DB.BMP,resources/DR.BMP,Door1,0.27003365,-0.02569944,1,0,0,3.0811,optionRight,30,6255,3,34,0,34,0,1,,,,,,,,,,,,,,,,,,,,,,,,,,,,,,,,,,,,,,,
,,,,,,,,2023-08-16_08h43.23.726,HF_wild_card,2022.2.4,Win32,61.06870229,64834d96c668b041fea4e9cf,64d2fd46c836a06233681665,64dc7d89fcd9bc44da8a3d48,,,,,,,decisionTrl,resources/DB.BMP,resources/DY.BMP,WildCard_Ex,-0.328535014,-0.094664957,1,0,0,1.6542,optionLeft,95,6350,3,35,0,35,0,1,,,,,,,,,,,,,,,,,,,,,,,,,,,,,,,,,,,,,,,
,,,,,,,,2023-08-16_08h43.23.726,HF_wild_card,2022.2.4,Win32,61.06870229,64834d96c668b041fea4e9cf,64d2fd46c836a06233681665,64dc7d89fcd9bc44da8a3d48,,,,,,,decisionTrl,resources/DP.BMP,resources/DG.BMP,Door4,-0.323330057,0.000325302,1,0,0,2.5658,optionLeft,80,6430,3,36,0,36,0,1,,,,,,,,,,,,,,,,,,,,,,,,,,,,,,,,,,,,,,,
,,,,,,,,2023-08-16_08h43.23.726,HF_wild_card,2022.2.4,Win32,61.06870229,64834d96c668b041fea4e9cf,64d2fd46c836a06233681665,64dc7d89fcd9bc44da8a3d48,,,,,,,ctch,resources/DR.BMP,resources/DP.BMP,Door4,0.426182012,0.065387112,1,0,0,1.5193,optionRight,80,6510,3,37,0,37,0,1,,,,,,,,,,,,,,,,,,,,,,,,,,,,,,,,,,,,,,,
,,,,,,,,2023-08-16_08h43.23.726,HF_wild_card,2022.2.4,Win32,61.06870229,64834d96c668b041fea4e9cf,64d2fd46c836a06233681665,64dc7d89fcd9bc44da8a3d48,,,,,,,sngl,resources/DB.BMP,resources/Empty.png,WildCard_Ex,-0.246557126,0.015940129,1,0,0,0.9139,optionLeft,5,6515,3,38,0,38,0,1,,,,,,,,,,,,,,,,,,,,,,,,,,,,,,,,,,,,,,,
,,,,,,,,2023-08-16_08h43.23.726,HF_wild_card,2022.2.4,Win32,61.06870229,64834d96c668b041fea4e9cf,64d2fd46c836a06233681665,64dc7d89fcd9bc44da8a3d48,,,,,,,decisionTrl,resources/DY.BMP,resources/DR.BMP,Door2,-0.322028895,-0.02569944,1,0,0,0.9037,optionLeft,20,6535,3,39,0,39,0,1,,,,,,,,,,,,,,,,,,,,,,,,,,,,,,,,,,,,,,,
,,,,,,,,2023-08-16_08h43.23.726,HF_wild_card,2022.2.4,Win32,61.06870229,64834d96c668b041fea4e9cf,64d2fd46c836a06233681665,64dc7d89fcd9bc44da8a3d48,,,,,,,decisionTrl,resources/DP.BMP,resources/DB.BMP,WildCard_Ex,0.288250978,-0.012687069,1,0,0,1.3347,optionRight,5,6540,3,40,0,40,0,1,,,,,,,,,,,,,,,,,,,,,,,,,,,,,,,,,,,,,,,
,,,,,,,,2023-08-16_08h43.23.726,HF_wild_card,2022.2.4,Win32,61.06870229,64834d96c668b041fea4e9cf,64d2fd46c836a06233681665,64dc7d89fcd9bc44da8a3d48,,,,,,,sngl,resources/Empty.png,resources/DY.BMP,Door2,0.32338434,0.0289525,1,0,0,0.9589,optionRight,20,6560,3,41,0,41,0,1,,,,,,,,,,,,,,,,,,,,,,,,,,,,,,,,,,,,,,,
,,,,,,,,2023-08-16_08h43.23.726,HF_wild_card,2022.2.4,Win32,61.06870229,64834d96c668b041fea4e9cf,64d2fd46c836a06233681665,64dc7d89fcd9bc44da8a3d48,,,,,,,ctch,resources/DY.BMP,resources/DG.BMP,Door3,0.298660629,-0.063435171,1,0,0,1.0809,optionRight,70,6630,3,42,0,42,0,1,,,,,,,,,,,,,,,,,,,,,,,,,,,,,,,,,,,,,,,
,,,,,,,,2023-08-16_08h43.23.726,HF_wild_card,2022.2.4,Win32,61.06870229,64834d96c668b041fea4e9cf,64d2fd46c836a06233681665,64dc7d89fcd9bc44da8a3d48,,,,,,,sngl,resources/Empty.png,resources/DP.BMP,Door4,0.432687957,-0.068640216,1,0,0,0.9143,optionRight,60,6690,3,43,0,43,0,1,,,,,,,,,,,,,,,,,,,,,,,,,,,,,,,,,,,,,,,
,,,,,,,,2023-08-16_08h43.23.726,HF_wild_card,2022.2.4,Win32,61.06870229,64834d96c668b041fea4e9cf,64d2fd46c836a06233681665,64dc7d89fcd9bc44da8a3d48,,,,,,,,,,,,,,,,,,,,,,,,,,2,0,2,0,1,,,,,,,,,,,,,,,,,,,,,,,,,,,,,,,,,,
,,,,,,,,2023-08-16_08h43.23.726,HF_wild_card,2022.2.4,Win32,61.06870229,64834d96c668b041fea4e9cf,64d2fd46c836a06233681665,64dc7d89fcd9bc44da8a3d48,,,,,,,decisionTrl,resources/DBN.BMP,resources/DP.BMP,WildCard_NonEx,-0.43783885,-0.056929095,1,0,0,3.6426,optionLeft,55,6745,4,0,0,0,0,1,,,,,,,,,,,,,,,,,,,,,,,,,,,,,,,,,,,,,,,
,,,,,,,,2023-08-16_08h43.23.726,HF_wild_card,2022.2.4,Win32,61.06870229,64834d96c668b041fea4e9cf,64d2fd46c836a06233681665,64dc7d89fcd9bc44da8a3d48,,,,,,,sngl,resources/Empty.png,resources/DBN.BMP,WildCard_NonEx,0.374132529,-0.034808016,1,0,0,1.2554,optionRight,45,6790,4,1,0,1,0,1,,,,,,,,,,,,,,,,,,,,,,,,,,,,,,,,,,,,,,,
,,,,,,,,2023-08-16_08h43.23.726,HF_wild_card,2022.2.4,Win32,61.06870229,64834d96c668b041fea4e9cf,64d2fd46c836a06233681665,64dc7d89fcd9bc44da8a3d48,,,,,,,ctch,resources/DG.BMP,resources/DY.BMP,Door3,-0.285594282,-0.003578405,1,0,0,1.3653,optionLeft,70,6860,4,2,0,2,0,1,,,,,,,,,,,,,,,,,,,,,,,,,,,,,,,,,,,,,,,
,,,,,,,,2023-08-16_08h43.23.726,HF_wild_card,2022.2.4,Win32,61.06870229,64834d96c668b041fea4e9cf,64d2fd46c836a06233681665,64dc7d89fcd9bc44da8a3d48,,,,,,,sngl,resources/DY.BMP,resources/Empty.png,Door2,-0.305112861,-0.020494483,1,0,0,1.0824,optionLeft,20,6880,4,3,0,3,0,1,,,,,,,,,,,,,,,,,,,,,,,,,,,,,,,,,,,,,,,
,,,,,,,,2023-08-16_08h43.23.726,HF_wild_card,2022.2.4,Win32,61.06870229,64834d96c668b041fea4e9cf,64d2fd46c836a06233681665,64dc7d89fcd9bc44da8a3d48,,,,,,,sngl,resources/Empty.png,resources/DBN.BMP,WildCard_NonEx,0.430085719,-0.016590776,1,0,0,1.0001,optionRight,55,6935,4,4,0,4,0,1,,,,,,,,,,,,,,,,,,,,,,,,,,,,,,,,,,,,,,,
,,,,,,,,2023-08-16_08h43.23.726,HF_wild_card,2022.2.4,Win32,61.06870229,64834d96c668b041fea4e9cf,64d2fd46c836a06233681665,64dc7d89fcd9bc44da8a3d48,,,,,,,decisionTrl,resources/DR.BMP,resources/DY.BMP,Door1,-0.379283247,-0.076447629,1,0,0,1.3777,optionLeft,30,6965,4,5,0,5,0,1,,,,,,,,,,,,,,,,,,,,,,,,,,,,,,,,,,,,,,,
,,,,,,,,2023-08-16_08h43.23.726,HF_wild_card,2022.2.4,Win32,61.06870229,64834d96c668b041fea4e9cf,64d2fd46c836a06233681665,64dc7d89fcd9bc44da8a3d48,,,,,,,ctch,resources/DY.BMP,resources/DG.BMP,Door3,-0.001924712,-0.008783362,1,0,0,0.6681,optionRight,70,7035,4,6,0,6,0,1,,,,,,,,,,,,,,,,,,,,,,,,,,,,,,,,,,,,,,,
,,,,,,,,2023-08-16_08h43.23.726,HF_wild_card,2022.2.4,Win32,61.06870229,64834d96c668b041fea4e9cf,64d2fd46c836a06233681665,64dc7d89fcd9bc44da8a3d48,,,,,,,decisionTrl,resources/DY.BMP,resources/DR.BMP,Door2,-0.216628721,-0.038711723,1,0,0,2.8603,optionLeft,20,7055,4,7,0,7,0,1,,,,,,,,,,,,,,,,,,,,,,,,,,,,,,,,,,,,,,,
,,,,,,,,2023-08-16_08h43.23.726,HF_wild_card,2022.2.4,Win32,61.06870229,64834d96c668b041fea4e9cf,64d2fd46c836a06233681665,64dc7d89fcd9bc44da8a3d48,,,,,,,ctch,resources/DR.BMP,resources/DP.BMP,Door4,0.303865805,-0.043916724,1,0,0,1.0703,optionRight,60,7115,4,8,0,8,0,1,,,,,,,,,,,,,,,,,,,,,,,,,,,,,,,,,,,,,,,
,,,,,,,,2023-08-16_08h43.23.726,HF_wild_card,2022.2.4,Win32,61.06870229,64834d96c668b041fea4e9cf,64d2fd46c836a06233681665,64dc7d89fcd9bc44da8a3d48,,,,,,,decisionTrl,resources/DBN.BMP,resources/DY.BMP,WildCard_NonEx,-0.345451092,0.010735172,1,0,0,2.3089,optionLeft,55,7170,4,9,0,9,0,1,,,,,,,,,,,,,,,,,,,,,,,,,,,,,,,,,,,,,,,
,,,,,,,,2023-08-16_08h43.23.726,HF_wild_card,2022.2.4,Win32,61.06870229,64834d96c668b041fea4e9cf,64d2fd46c836a06233681665,64dc7d89fcd9bc44da8a3d48,,,,,,,sngl,resources/Empty.png,resources/DG.BMP,Door3,0.273937357,-0.013988276,1,0,0,1.0822,optionRight,70,7240,4,10,0,10,0,1,,,,,,,,,,,,,,,,,,,,,,,,,,,,,,,,,,,,,,,
,,,,,,,,2023-08-16_08h43.23.726,HF_wild_card,2022.2.4,Win32,61.06870229,64834d96c668b041fea4e9cf,64d2fd46c836a06233681665,64dc7d89fcd9bc44da8a3d48,,,,,,,decisionTrl,resources/DG.BMP,resources/DP.BMP,Door4,0.32338434,-0.006180818,1,0,0,1.3487,optionRight,60,7300,4,11,0,11,0,1,,,,,,,,,,,,,,,,,,,,,,,,,,,,,,,,,,,,,,,
,,,,,,,,2023-08-16_08h43.23.726,HF_wild_card,2022.2.4,Win32,61.06870229,64834d96c668b041fea4e9cf,64d2fd46c836a06233681665,64dc7d89fcd9bc44da8a3d48,,,,,,,ctch,resources/DG.BMP,resources/DY.BMP,Door3,-0.362367257,-0.046519181,1,0,0,1.2616,optionLeft,70,7370,4,12,0,12,0,1,,,,,,,,,,,,,,,,,,,,,,,,,,,,,,,,,,,,,,,
,,,,,,,,2023-08-16_08h43.23.726,HF_wild_card,2022.2.4,Win32,61.06870229,64834d96c668b041fea4e9cf,64d2fd46c836a06233681665,64dc7d89fcd9bc44da8a3d48,,,,,,,decisionTrl,resources/DR.BMP,resources/DBN.BMP,WildCard_NonEx,0.319480633,0.035458663,1,0,0,1.5149,optionRight,55,7425,4,13,0,13,0,1,,,,,,,,,,,,,,,,,,,,,,,,,,,,,,,,,,,,,,,
,,,,,,,,2023-08-16_08h43.23.726,HF_wild_card,2022.2.4,Win32,61.06870229,64834d96c668b041fea4e9cf,64d2fd46c836a06233681665,64dc7d89fcd9bc44da8a3d48,,,,,,,decisionTrl,resources/DBN.BMP,resources/DG.BMP,Door3,0.312974426,-0.019193233,1,0,0,1.9357,optionRight,70,7495,4,14,0,14,0,1,,,,,,,,,,,,,,,,,,,,,,,,,,,,,,,,,,,,,,,
,,,,,,,,2023-08-16_08h43.23.726,HF_wild_card,2022.2.4,Win32,61.06870229,64834d96c668b041fea4e9cf,64d2fd46c836a06233681665,64dc7d89fcd9bc44da8a3d48,,,,,,,ctch,resources/DP.BMP,resources/DR.BMP,Door4,-0.288196695,-0.013988276,1,0,0,1.4967,optionLeft,60,7555,4,15,0,15,0,1,,,,,,,,,,,,,,,,,,,,,,,,,,,,,,,,,,,,,,,
,,,,,,,,2023-08-16_08h43.23.726,HF_wild_card,2022.2.4,Win32,61.06870229,64834d96c668b041fea4e9cf,64d2fd46c836a06233681665,64dc7d89fcd9bc44da8a3d48,,,,,,,decisionTrl,resources/DP.BMP,resources/DG.BMP,Door3,0.266129943,-0.003578405,1,0,0,0.9428,optionRight,70,7625,4,16,0,16,0,1,,,,,,,,,,,,,,,,,,,,,,,,,,,,,,,,,,,,,,,
,,,,,,,,2023-08-16_08h43.23.726,HF_wild_card,2022.2.4,Win32,61.06870229,64834d96c668b041fea4e9cf,64d2fd46c836a06233681665,64dc7d89fcd9bc44da8a3d48,,,,,,,ctch,resources/DP.BMP,resources/DR.BMP,Door4,-0.30901648,-0.008783362,1,0,0,1.7828,optionLeft,60,7685,4,17,0,17,0,1,,,,,,,,,,,,,,,,,,,,,,,,,,,,,,,,,,,,,,,
,,,,,,,,2023-08-16_08h43.23.726,HF_wild_card,2022.2.4,Win32,61.06870229,64834d96c668b041fea4e9cf,64d2fd46c836a06233681665,64dc7d89fcd9bc44da8a3d48,,,,,,,decisionTrl,resources/DR.BMP,resources/DY.BMP,Door2,0.296058392,0.01854263,1,0,0,1.7225,optionRight,20,7705,4,18,0,18,0,1,,,,,,,,,,,,,,,,,,,,,,,,,,,,,,,,,,,,,,,
,,,,,,,,2023-08-16_08h43.23.726,HF_wild_card,2022.2.4,Win32,61.06870229,64834d96c668b041fea4e9cf,64d2fd46c836a06233681665,64dc7d89fcd9bc44da8a3d48,,,,,,,decisionTrl,resources/DY.BMP,resources/DR.BMP,Door2,-0.176290402,-0.011385819,1,0,0,1.1412,optionLeft,20,7725,4,19,0,19,0,1,,,,,,,,,,,,,,,,,,,,,,,,,,,,,,,,,,,,,,,
,,,,,,,,2023-08-16_08h43.23.726,HF_wild_card,2022.2.4,Win32,61.06870229,64834d96c668b041fea4e9cf,64d2fd46c836a06233681665,64dc7d89fcd9bc44da8a3d48,,,,,,,decisionTrl,resources/DY.BMP,resources/DR.BMP,Door1,0.306468131,0.030253794,1,0,0,0.88,optionRight,30,7755,4,20,0,20,0,1,,,,,,,,,,,,,,,,,,,,,,,,,,,,,,,,,,,,,,,
,,,,,,,,2023-08-16_08h43.23.726,HF_wild_card,2022.2.4,Win32,61.06870229,64834d96c668b041fea4e9cf,64d2fd46c836a06233681665,64dc7d89fcd9bc44da8a3d48,,,,,,,sngl,resources/Empty.png,resources/DY.BMP,Door2,0.292154685,0.002927758,1,0,0,1.3958,optionRight,40,7795,4,21,0,21,0,1,,,,,,,,,,,,,,,,,,,,,,,,,,,,,,,,,,,,,,,
,,,,,,,,2023-08-16_08h43.23.726,HF_wild_card,2022.2.4,Win32,61.06870229,64834d96c668b041fea4e9cf,64d2fd46c836a06233681665,64dc7d89fcd9bc44da8a3d48,,,,,,,ctch,resources/DR.BMP,resources/DP.BMP,Door4,0.258322529,-0.013988276,1,0,0,1.4361,optionRight,80,7875,4,22,0,22,0,1,,,,,,,,,,,,,,,,,,,,,,,,,,,,,,,,,,,,,,,
,,,,,,,,2023-08-16_08h43.23.726,HF_wild_card,2022.2.4,Win32,61.06870229,64834d96c668b041fea4e9cf,64d2fd46c836a06233681665,64dc7d89fcd9bc44da8a3d48,,,,,,,decisionTrl,resources/DG.BMP,resources/DP.BMP,Door4,0.342902874,-0.017892026,1,0,0,1.4603,optionRight,80,7955,4,23,0,23,0,1,,,,,,,,,,,,,,,,,,,,,,,,,,,,,,,,,,,,,,,
,,,,,,,,2023-08-16_08h43.23.726,HF_wild_card,2022.2.4,Win32,61.06870229,64834d96c668b041fea4e9cf,64d2fd46c836a06233681665,64dc7d89fcd9bc44da8a3d48,,,,,,,decisionTrl,resources/DG.BMP,resources/DBN.BMP,WildCard_NonEx,0.342902874,0.005530346,1,0,0,1.1713,optionRight,45,8000,4,24,0,24,0,1,,,,,,,,,,,,,,,,,,,,,,,,,,,,,,,,,,,,,,,
,,,,,,,,2023-08-16_08h43.23.726,HF_wild_card,2022.2.4,Win32,61.06870229,64834d96c668b041fea4e9cf,64d2fd46c836a06233681665,64dc7d89fcd9bc44da8a3d48,,,,,,,decisionTrl,resources/DBN.BMP,resources/DR.BMP,WildCard_NonEx,-0.264774542,-0.047820431,1,0,0,1.0569,optionLeft,55,8055,4,25,0,25,0,1,,,,,,,,,,,,,,,,,,,,,,,,,,,,,,,,,,,,,,,
,,,,,,,,2023-08-16_08h43.23.726,HF_wild_card,2022.2.4,Win32,61.06870229,64834d96c668b041fea4e9cf,64d2fd46c836a06233681665,64dc7d89fcd9bc44da8a3d48,,,,,,,decisionTrl,resources/DR.BMP,resources/DY.BMP,Door1,-0.243954669,-0.042615474,1,0,0,1.2636,optionLeft,30,8085,4,26,0,26,0,1,,,,,,,,,,,,,,,,,,,,,,,,,,,,,,,,,,,,,,,
,,,,,,,,2023-08-16_08h43.23.726,HF_wild_card,2022.2.4,Win32,61.06870229,64834d96c668b041fea4e9cf,64d2fd46c836a06233681665,64dc7d89fcd9bc44da8a3d48,,,,,,,sngl,resources/Empty.png,resources/DP.BMP,Door4,0.273937357,-0.063435171,1,0,0,1.0871,optionRight,80,8165,4,27,0,27,0,1,,,,,,,,,,,,,,,,,,,,,,,,,,,,,,,,,,,,,,,
,,,,,,,,2023-08-16_08h43.23.726,HF_wild_card,2022.2.4,Win32,61.06870229,64834d96c668b041fea4e9cf,64d2fd46c836a06233681665,64dc7d89fcd9bc44da8a3d48,,,,,,,decisionTrl,resources/DG.BMP,resources/DP.BMP,Door4,0.283045802,-0.082953793,1,0,0,1.93,optionRight,60,8225,4,28,0,28,0,1,,,,,,,,,,,,,,,,,,,,,,,,,,,,,,,,,,,,,,,
,,,,,,,,2023-08-16_08h43.23.726,HF_wild_card,2022.2.4,Win32,61.06870229,64834d96c668b041fea4e9cf,64d2fd46c836a06233681665,64dc7d89fcd9bc44da8a3d48,,,,,,,sngl,resources/DBN.BMP,resources/Empty.png,WildCard_NonEx,-0.338944885,-0.08946,1,0,0,0.8939,optionLeft,55,8280,4,29,0,29,0,1,,,,,,,,,,,,,,,,,,,,,,,,,,,,,,,,,,,,,,,
,,,,,,,,2023-08-16_08h43.23.726,HF_wild_card,2022.2.4,Win32,61.06870229,64834d96c668b041fea4e9cf,64d2fd46c836a06233681665,64dc7d89fcd9bc44da8a3d48,,,,,,,sngl,resources/Empty.png,resources/DR.BMP,Door1,0.299962099,-0.053025388,1,0,0,0.8082,optionRight,30,8310,4,30,0,30,0,1,,,,,,,,,,,,,,,,,,,,,,,,,,,,,,,,,,,,,,,
,,,,,,,,2023-08-16_08h43.23.726,HF_wild_card,2022.2.4,Win32,61.06870229,64834d96c668b041fea4e9cf,64d2fd46c836a06233681665,64dc7d89fcd9bc44da8a3d48,,,,,,,decisionTrl,resources/DR.BMP,resources/DY.BMP,Door1,-0.289497989,-0.071242628,1,0,0,0.7782,optionLeft,30,8340,4,31,0,31,0,1,,,,,,,,,,,,,,,,,,,,,,,,,,,,,,,,,,,,,,,
,,,,,,,,2023-08-16_08h43.23.726,HF_wild_card,2022.2.4,Win32,61.06870229,64834d96c668b041fea4e9cf,64d2fd46c836a06233681665,64dc7d89fcd9bc44da8a3d48,,,,,,,sngl,resources/DR.BMP,resources/Empty.png,Door1,-0.24005105,-0.050422932,1,0,0,0.8595,optionLeft,30,8370,4,32,0,32,0,1,,,,,,,,,,,,,,,,,,,,,,,,,,,,,,,,,,,,,,,
,,,,,,,,2023-08-16_08h43.23.726,HF_wild_card,2022.2.4,Win32,61.06870229,64834d96c668b041fea4e9cf,64d2fd46c836a06233681665,64dc7d89fcd9bc44da8a3d48,,,,,,,ctch,resources/DY.BMP,resources/DG.BMP,Door3,0.310371837,-0.060832802,1,0,0,0.939,optionRight,70,8440,4,33,0,33,0,1,,,,,,,,,,,,,,,,,,,,,,,,,,,,,,,,,,,,,,,
,,,,,,,,2023-08-16_08h43.23.726,HF_wild_card,2022.2.4,Win32,61.06870229,64834d96c668b041fea4e9cf,64d2fd46c836a06233681665,64dc7d89fcd9bc44da8a3d48,,,,,,,decisionTrl,resources/DP.BMP,resources/DG.BMP,Door4,-0.194507687,-0.027000559,1,0,0,1.5397,optionLeft,80,8520,4,34,0,34,0,1,,,,,,,,,,,,,,,,,,,,,,,,,,,,,,,,,,,,,,,
,,,,,,,,2023-08-16_08h43.23.726,HF_wild_card,2022.2.4,Win32,61.06870229,64834d96c668b041fea4e9cf,64d2fd46c836a06233681665,64dc7d89fcd9bc44da8a3d48,,,,,,,decisionTrl,resources/DG.BMP,resources/DP.BMP,Door4,0.277841064,-0.02569944,1,0,0,0.9416,optionRight,60,8580,4,35,0,35,0,1,,,,,,,,,,,,,,,,,,,,,,,,,,,,,,,,,,,,,,,
,,,,,,,,2023-08-16_08h43.23.726,HF_wild_card,2022.2.4,Win32,61.06870229,64834d96c668b041fea4e9cf,64d2fd46c836a06233681665,64dc7d89fcd9bc44da8a3d48,,,,,,,decisionTrl,resources/DY.BMP,resources/DBN.BMP,WildCard_NonEx,0.259623736,-0.020494483,1,0,0,1.3088,optionRight,55,8635,4,36,0,36,0,1,,,,,,,,,,,,,,,,,,,,,,,,,,,,,,,,,,,,,,,
,,,,,,,,2023-08-16_08h43.23.726,HF_wild_card,2022.2.4,Win32,61.06870229,64834d96c668b041fea4e9cf,64d2fd46c836a06233681665,64dc7d89fcd9bc44da8a3d48,,,,,,,sngl,resources/DG.BMP,resources/Empty.png,Door3,-0.215327471,-0.010084569,1,0,0,1.676,optionLeft,70,8705,4,37,0,37,0,1,,,,,,,,,,,,,,,,,,,,,,,,,,,,,,,,,,,,,,,
,,,,,,,,2023-08-16_08h43.23.726,HF_wild_card,2022.2.4,Win32,61.06870229,64834d96c668b041fea4e9cf,64d2fd46c836a06233681665,64dc7d89fcd9bc44da8a3d48,,,,,,,decisionTrl,resources/DP.BMP,resources/DG.BMP,Door4,-0.311618936,-0.032205604,1,0,0,0.9363,optionLeft,60,8765,4,38,0,38,0,1,,,,,,,,,,,,,,,,,,,,,,,,,,,,,,,,,,,,,,,
,,,,,,,,2023-08-16_08h43.23.726,HF_wild_card,2022.2.4,Win32,61.06870229,64834d96c668b041fea4e9cf,64d2fd46c836a06233681665,64dc7d89fcd9bc44da8a3d48,,,,,,,decisionTrl,resources/DP.BMP,resources/DG.BMP,Door3,0.263527443,0.013337672,1,0,0,1.2184,optionRight,70,8835,4,39,0,39,0,1,,,,,,,,,,,,,,,,,,,,,,,,,,,,,,,,,,,,,,,
,,,,,,,,2023-08-16_08h43.23.726,HF_wild_card,2022.2.4,Win32,61.06870229,64834d96c668b041fea4e9cf,64d2fd46c836a06233681665,64dc7d89fcd9bc44da8a3d48,,,,,,,sngl,resources/DP.BMP,resources/Empty.png,Door4,-0.227038592,-0.03090431,1,0,0,0.8311,optionLeft,60,8895,4,40,0,40,0,1,,,,,,,,,,,,,,,,,,,,,,,,,,,,,,,,,,,,,,,
,,,,,,,,2023-08-16_08h43.23.726,HF_wild_card,2022.2.4,Win32,61.06870229,64834d96c668b041fea4e9cf,64d2fd46c836a06233681665,64dc7d89fcd9bc44da8a3d48,,,,,,,decisionTrl,resources/DP.BMP,resources/DBN.BMP,Door4,-0.217929928,-0.055627757,1,0,0,1.2048,optionLeft,60,8955,4,41,0,41,0,1,,,,,,,,,,,,,,,,,,,,,,,,,,,,,,,,,,,,,,,
,,,,,,,,2023-08-16_08h43.23.726,HF_wild_card,2022.2.4,Win32,61.06870229,64834d96c668b041fea4e9cf,64d2fd46c836a06233681665,64dc7d89fcd9bc44da8a3d48,,,,,,,sngl,resources/DBN.BMP,resources/Empty.png,WildCard_NonEx,-0.180194109,-0.008783362,1,0,0,1.0894,optionLeft,45,9000,4,42,0,42,0,1,,,,,,,,,,,,,,,,,,,,,,,,,,,,,,,,,,,,,,,
,,,,,,,,2023-08-16_08h43.23.726,HF_wild_card,2022.2.4,Win32,61.06870229,64834d96c668b041fea4e9cf,64d2fd46c836a06233681665,64dc7d89fcd9bc44da8a3d48,,,,,,,decisionTrl,resources/DY.BMP,resources/DR.BMP,Door1,0.236201495,-0.064736509,1,0,0,1.1928,optionRight,30,9030,4,43,0,43,0,1,,,,,,,,,,,,,,,,,,,,,,,,,,,,,,,,,,,,,,,
,,,,,,,,2023-08-16_08h43.23.726,HF_wild_card,2022.2.4,Win32,61.06870229,64834d96c668b041fea4e9cf,64d2fd46c836a06233681665,64dc7d89fcd9bc44da8a3d48,,,,,,,,,,,,,,,,,,,,,,,,,,3,0,3,0,1,,,,,,,,,,,,,,,,,,,,,,,,,,,,,,,,,,
,,,,,,,,2023-08-16_08h43.23.726,HF_wild_card,2022.2.4,Win32,61.06870229,64834d96c668b041fea4e9cf,64d2fd46c836a06233681665,64dc7d89fcd9bc44da8a3d48,,,,,,,decisionTrl,resources/DBN.BMP,resources/DP.BMP,Door4,0.305167012,-0.023096852,1,0,0,2.8917,optionRight,80,9110,5,0,0,0,0,1,,,,,,,,,,,,,,,,,,,,,,,,,,,,,,,,,,,,,,,
,,,,,,,,2023-08-16_08h43.23.726,HF_wild_card,2022.2.4,Win32,61.06870229,64834d96c668b041fea4e9cf,64d2fd46c836a06233681665,64dc7d89fcd9bc44da8a3d48,,,,,,,ctch,resources/DY.BMP,resources/DG.BMP,Door2,-0.221833635,-0.004879656,1,0,0,1.2069,optionLeft,20,9130,5,1,0,1,0,1,,,,,,,,,,,,,,,,,,,,,,,,,,,,,,,,,,,,,,,
,,,,,,,,2023-08-16_08h43.23.726,HF_wild_card,2022.2.4,Win32,61.06870229,64834d96c668b041fea4e9cf,64d2fd46c836a06233681665,64dc7d89fcd9bc44da8a3d48,,,,,,,sngl,resources/DP.BMP,resources/Empty.png,Door4,-0.001924712,-0.010084569,1,0,0,0.9182,optionLeft,80,9210,5,2,0,2,0,1,,,,,,,,,,,,,,,,,,,,,,,,,,,,,,,,,,,,,,,
,,,,,,,,2023-08-16_08h43.23.726,HF_wild_card,2022.2.4,Win32,61.06870229,64834d96c668b041fea4e9cf,64d2fd46c836a06233681665,64dc7d89fcd9bc44da8a3d48,,,,,,,decisionTrl,resources/DP.BMP,resources/DG.BMP,Door4,-0.198411393,-0.007482112,1,0,0,1.6995,optionLeft,80,9290,5,3,0,3,0,1,,,,,,,,,,,,,,,,,,,,,,,,,,,,,,,,,,,,,,,
,,,,,,,,2023-08-16_08h43.23.726,HF_wild_card,2022.2.4,Win32,61.06870229,64834d96c668b041fea4e9cf,64d2fd46c836a06233681665,64dc7d89fcd9bc44da8a3d48,,,,,,,ctch,resources/DP.BMP,resources/DR.BMP,Door4,-0.238749712,-0.017892026,1,0,0,1.2963,optionLeft,80,9370,5,4,0,4,0,1,,,,,,,,,,,,,,,,,,,,,,,,,,,,,,,,,,,,,,,
,,,,,,,,2023-08-16_08h43.23.726,HF_wild_card,2022.2.4,Win32,61.06870229,64834d96c668b041fea4e9cf,64d2fd46c836a06233681665,64dc7d89fcd9bc44da8a3d48,,,,,,,decisionTrl,resources/DG.BMP,resources/DP.BMP,Door4,0.280443564,-0.008783362,1,0,0,1.2068,optionRight,80,9450,5,5,0,5,0,1,,,,,,,,,,,,,,,,,,,,,,,,,,,,,,,,,,,,,,,
,,,,,,,,2023-08-16_08h43.23.726,HF_wild_card,2022.2.4,Win32,61.06870229,64834d96c668b041fea4e9cf,64d2fd46c836a06233681665,64dc7d89fcd9bc44da8a3d48,,,,,,,sngl,resources/DBN.BMP,resources/Empty.png,WildCard_NonEx,-0.163278032,-0.002277111,1,0,0,0.9148,optionLeft,45,9495,5,6,0,6,0,1,,,,,,,,,,,,,,,,,,,,,,,,,,,,,,,,,,,,,,,
,,,,,,,,2023-08-16_08h43.23.726,HF_wild_card,2022.2.4,Win32,61.06870229,64834d96c668b041fea4e9cf,64d2fd46c836a06233681665,64dc7d89fcd9bc44da8a3d48,,,,,,,decisionTrl,resources/DR.BMP,resources/DY.BMP,Door2,0.281744771,0.005530346,1,0,0,1.0643,optionRight,20,9515,5,7,0,7,0,1,,,,,,,,,,,,,,,,,,,,,,,,,,,,,,,,,,,,,,,
,,,,,,,,2023-08-16_08h43.23.726,HF_wild_card,2022.2.4,Win32,61.06870229,64834d96c668b041fea4e9cf,64d2fd46c836a06233681665,64dc7d89fcd9bc44da8a3d48,,,,,,,decisionTrl,resources/DY.BMP,resources/DR.BMP,Door1,0.193260719,-0.006180818,1,0,0,1.2957,optionRight,30,9545,5,8,0,8,0,1,,,,,,,,,,,,,,,,,,,,,,,,,,,,,,,,,,,,,,,
,,,,,,,,2023-08-16_08h43.23.726,HF_wild_card,2022.2.4,Win32,61.06870229,64834d96c668b041fea4e9cf,64d2fd46c836a06233681665,64dc7d89fcd9bc44da8a3d48,,,,,,,ctch,resources/DR.BMP,resources/DP.BMP,Door4,0.262226236,-0.007482112,1,0,0,1.2333,optionRight,80,9625,5,9,0,9,0,1,,,,,,,,,,,,,,,,,,,,,,,,,,,,,,,,,,,,,,,
,,,,,,,,2023-08-16_08h43.23.726,HF_wild_card,2022.2.4,Win32,61.06870229,64834d96c668b041fea4e9cf,64d2fd46c836a06233681665,64dc7d89fcd9bc44da8a3d48,,,,,,,sngl,resources/Empty.png,resources/DR.BMP,Door1,0.238803995,0.021145086,1,0,0,1.3826,optionRight,30,9655,5,10,0,10,0,1,,,,,,,,,,,,,,,,,,,,,,,,,,,,,,,,,,,,,,,
,,,,,,,,2023-08-16_08h43.23.726,HF_wild_card,2022.2.4,Win32,61.06870229,64834d96c668b041fea4e9cf,64d2fd46c836a06233681665,64dc7d89fcd9bc44da8a3d48,,,,,,,ctch,resources/DY.BMP,resources/DG.BMP,Door3,0.310371837,0.056278448,1,0,0,1.6347,optionRight,70,9725,5,11,0,11,0,1,,,,,,,,,,,,,,,,,,,,,,,,,,,,,,,,,,,,,,,
,,,,,,,,2023-08-16_08h43.23.726,HF_wild_card,2022.2.4,Win32,61.06870229,64834d96c668b041fea4e9cf,64d2fd46c836a06233681665,64dc7d89fcd9bc44da8a3d48,,,,,,,decisionTrl,resources/DR.BMP,resources/DY.BMP,Door1,-0.150265661,0.036759914,1,0,0,1.4309,optionLeft,30,9755,5,12,0,12,0,1,,,,,,,,,,,,,,,,,,,,,,,,,,,,,,,,,,,,,,,
,,,,,,,,2023-08-16_08h43.23.726,HF_wild_card,2022.2.4,Win32,61.06870229,64834d96c668b041fea4e9cf,64d2fd46c836a06233681665,64dc7d89fcd9bc44da8a3d48,,,,,,,sngl,resources/DG.BMP,resources/Empty.png,Door3,-0.160675531,0.006831465,1,0,0,1.1056,optionLeft,70,9825,5,13,0,13,0,1,,,,,,,,,,,,,,,,,,,,,,,,,,,,,,,,,,,,,,,
,,,,,,,,2023-08-16_08h43.23.726,HF_wild_card,2022.2.4,Win32,61.06870229,64834d96c668b041fea4e9cf,64d2fd46c836a06233681665,64dc7d89fcd9bc44da8a3d48,,,,,,,decisionTrl,resources/DG.BMP,resources/DBN.BMP,WildCard_NonEx,0.21668296,0.057579698,1,0,0,2.4039,optionRight,45,9870,5,14,0,14,0,1,,,,,,,,,,,,,,,,,,,,,,,,,,,,,,,,,,,,,,,
,,,,,,,,2023-08-16_08h43.23.726,HF_wild_card,2022.2.4,Win32,61.06870229,64834d96c668b041fea4e9cf,64d2fd46c836a06233681665,64dc7d89fcd9bc44da8a3d48,,,,,,,decisionTrl,resources/DG.BMP,resources/DP.BMP,Door4,0.277841064,-0.013988276,1,0,0,1.2793,optionRight,80,9950,5,15,0,15,0,1,,,,,,,,,,,,,,,,,,,,,,,,,,,,,,,,,,,,,,,
,,,,,,,,2023-08-16_08h43.23.726,HF_wild_card,2022.2.4,Win32,61.06870229,64834d96c668b041fea4e9cf,64d2fd46c836a06233681665,64dc7d89fcd9bc44da8a3d48,,,,,,,sngl,resources/DBN.BMP,resources/Empty.png,WildCard_NonEx,-0.331137471,0.021145086,1,0,0,5.6999,optionLeft,55,10005,5,16,0,16,0,1,,,,,,,,,,,,,,,,,,,,,,,,,,,,,,,,,,,,,,,
,,,,,,,,2023-08-16_08h43.23.726,HF_wild_card,2022.2.4,Win32,61.06870229,64834d96c668b041fea4e9cf,64d2fd46c836a06233681665,64dc7d89fcd9bc44da8a3d48,,,,,,,decisionTrl,resources/DY.BMP,resources/DBN.BMP,WildCard_NonEx,0.264828649,0.040663621,1,0,0,1.07,optionRight,45,10050,5,17,0,17,0,1,,,,,,,,,,,,,,,,,,,,,,,,,,,,,,,,,,,,,,,
,,,,,,,,2023-08-16_08h43.23.726,HF_wild_card,2022.2.4,Win32,61.06870229,64834d96c668b041fea4e9cf,64d2fd46c836a06233681665,64dc7d89fcd9bc44da8a3d48,,,,,,,sngl,resources/DY.BMP,resources/Empty.png,Door2,-0.154169368,0.015940129,1,0,0,1.0316,optionLeft,40,10090,5,18,0,18,0,1,,,,,,,,,,,,,,,,,,,,,,,,,,,,,,,,,,,,,,,
,,,,,,,,2023-08-16_08h43.23.726,HF_wild_card,2022.2.4,Win32,61.06870229,64834d96c668b041fea4e9cf,64d2fd46c836a06233681665,64dc7d89fcd9bc44da8a3d48,,,,,,,ctch,resources/DP.BMP,resources/DR.BMP,Door4,-0.299907816,-0.02569944,1,0,0,1.3643,optionLeft,80,10170,5,19,0,19,0,1,,,,,,,,,,,,,,,,,,,,,,,,,,,,,,,,,,,,,,,
,,,,,,,,2023-08-16_08h43.23.726,HF_wild_card,2022.2.4,Win32,61.06870229,64834d96c668b041fea4e9cf,64d2fd46c836a06233681665,64dc7d89fcd9bc44da8a3d48,,,,,,,sngl,resources/Empty.png,resources/DBN.BMP,WildCard_NonEx,0.266129943,0.047169784,1,0,0,0.998,optionRight,55,10225,5,20,0,20,0,1,,,,,,,,,,,,,,,,,,,,,,,,,,,,,,,,,,,,,,,
,,,,,,,,2023-08-16_08h43.23.726,HF_wild_card,2022.2.4,Win32,61.06870229,64834d96c668b041fea4e9cf,64d2fd46c836a06233681665,64dc7d89fcd9bc44da8a3d48,,,,,,,ctch,resources/DR.BMP,resources/DP.BMP,Door4,0.342902874,-0.010084569,1,0,0,1.1482,optionRight,80,10305,5,21,0,21,0,1,,,,,,,,,,,,,,,,,,,,,,,,,,,,,,,,,,,,,,,
,,,,,,,,2023-08-16_08h43.23.726,HF_wild_card,2022.2.4,Win32,61.06870229,64834d96c668b041fea4e9cf,64d2fd46c836a06233681665,64dc7d89fcd9bc44da8a3d48,,,,,,,decisionTrl,resources/DP.BMP,resources/DG.BMP,Door4,-0.253063377,0.045868578,1,0,0,2.3898,optionLeft,80,10385,5,22,0,22,0,1,,,,,,,,,,,,,,,,,,,,,,,,,,,,,,,,,,,,,,,
,,,,,,,,2023-08-16_08h43.23.726,HF_wild_card,2022.2.4,Win32,61.06870229,64834d96c668b041fea4e9cf,64d2fd46c836a06233681665,64dc7d89fcd9bc44da8a3d48,,,,,,,decisionTrl,resources/DG.BMP,resources/DP.BMP,Door4,0.21408046,-0.017892026,1,0,0,1.3673,optionRight,60,10445,5,23,0,23,0,1,,,,,,,,,,,,,,,,,,,,,,,,,,,,,,,,,,,,,,,
,,,,,,,,2023-08-16_08h43.23.726,HF_wild_card,2022.2.4,Win32,61.06870229,64834d96c668b041fea4e9cf,64d2fd46c836a06233681665,64dc7d89fcd9bc44da8a3d48,,,,,,,decisionTrl,resources/DBN.BMP,resources/DR.BMP,Door1,0.281744771,0.035458663,1,0,0,1.096,optionRight,30,10475,5,24,0,24,0,1,,,,,,,,,,,,,,,,,,,,,,,,,,,,,,,,,,,,,,,
,,,,,,,,2023-08-16_08h43.23.726,HF_wild_card,2022.2.4,Win32,61.06870229,64834d96c668b041fea4e9cf,64d2fd46c836a06233681665,64dc7d89fcd9bc44da8a3d48,,,,,,,decisionTrl,resources/DY.BMP,resources/DR.BMP,Door1,0.165934771,0.066688406,1,0,0,3.0105,optionRight,30,10505,5,25,0,25,0,1,,,,,,,,,,,,,,,,,,,,,,,,,,,,,,,,,,,,,,,
,,,,,,,,2023-08-16_08h43.23.726,HF_wild_card,2022.2.4,Win32,61.06870229,64834d96c668b041fea4e9cf,64d2fd46c836a06233681665,64dc7d89fcd9bc44da8a3d48,,,,,,,ctch,resources/DG.BMP,resources/DY.BMP,Door3,-0.243954669,0.013337672,1,0,0,1.4292,optionLeft,70,10575,5,26,0,26,0,1,,,,,,,,,,,,,,,,,,,,,,,,,,,,,,,,,,,,,,,
,,,,,,,,2023-08-16_08h43.23.726,HF_wild_card,2022.2.4,Win32,61.06870229,64834d96c668b041fea4e9cf,64d2fd46c836a06233681665,64dc7d89fcd9bc44da8a3d48,,,,,,,decisionTrl,resources/DBN.BMP,resources/DG.BMP,Door3,0.229695112,0.045868578,1,0,0,1.7184,optionRight,70,10645,5,27,0,27,0,1,,,,,,,,,,,,,,,,,,,,,,,,,,,,,,,,,,,,,,,
,,,,,,,,2023-08-16_08h43.23.726,HF_wild_card,2022.2.4,Win32,61.06870229,64834d96c668b041fea4e9cf,64d2fd46c836a06233681665,64dc7d89fcd9bc44da8a3d48,,,,,,,ctch,resources/DG.BMP,resources/DY.BMP,Door3,-0.260870835,0.030253794,1,0,0,4.8791,optionLeft,70,10715,5,28,0,28,0,1,,,,,,,,,,,,,,,,,,,,,,,,,,,,,,,,,,,,,,,
,,,,,,,,2023-08-16_08h43.23.726,HF_wild_card,2022.2.4,Win32,61.06870229,64834d96c668b041fea4e9cf,64d2fd46c836a06233681665,64dc7d89fcd9bc44da8a3d48,,,,,,,decisionTrl,resources/DP.BMP,resources/DG.BMP,Door4,-0.19190523,0.010735172,1,0,0,0.9217,optionLeft,60,10775,5,29,0,29,0,1,,,,,,,,,,,,,,,,,,,,,,,,,,,,,,,,,,,,,,,
,,,,,,,,2023-08-16_08h43.23.726,HF_wild_card,2022.2.4,Win32,61.06870229,64834d96c668b041fea4e9cf,64d2fd46c836a06233681665,64dc7d89fcd9bc44da8a3d48,,,,,,,decisionTrl,resources/DR.BMP,resources/DBN.BMP,Door1,-0.251762083,0.004229008,1,0,0,0.9115,optionLeft,30,10805,5,30,0,30,0,1,,,,,,,,,,,,,,,,,,,,,,,,,,,,,,,,,,,,,,,
,,,,,,,,2023-08-16_08h43.23.726,HF_wild_card,2022.2.4,Win32,61.06870229,64834d96c668b041fea4e9cf,64d2fd46c836a06233681665,64dc7d89fcd9bc44da8a3d48,,,,,,,decisionTrl,resources/DY.BMP,resources/DR.BMP,Door2,-0.172386652,-0.027000559,1,0,0,0.8559,optionLeft,20,10825,5,31,0,31,0,1,,,,,,,,,,,,,,,,,,,,,,,,,,,,,,,,,,,,,,,
,,,,,,,,2023-08-16_08h43.23.726,HF_wild_card,2022.2.4,Win32,61.06870229,64834d96c668b041fea4e9cf,64d2fd46c836a06233681665,64dc7d89fcd9bc44da8a3d48,,,,,,,decisionTrl,resources/DR.BMP,resources/DY.BMP,Door1,-0.220532428,-0.051724138,1,0,0,1.1711,optionLeft,30,10855,5,32,0,32,0,1,,,,,,,,,,,,,,,,,,,,,,,,,,,,,,,,,,,,,,,
,,,,,,,,2023-08-16_08h43.23.726,HF_wild_card,2022.2.4,Win32,61.06870229,64834d96c668b041fea4e9cf,64d2fd46c836a06233681665,64dc7d89fcd9bc44da8a3d48,,,,,,,decisionTrl,resources/DG.BMP,resources/DP.BMP,Door4,0.21668296,-0.003578405,1,0,0,0.9502,optionRight,60,10915,5,33,0,33,0,1,,,,,,,,,,,,,,,,,,,,,,,,,,,,,,,,,,,,,,,
,,,,,,,,2023-08-16_08h43.23.726,HF_wild_card,2022.2.4,Win32,61.06870229,64834d96c668b041fea4e9cf,64d2fd46c836a06233681665,64dc7d89fcd9bc44da8a3d48,,,,,,,decisionTrl,resources/DY.BMP,resources/DR.BMP,Door1,0.210176753,0.000325302,1,0,0,1.0931,optionRight,30,10945,5,34,0,34,0,1,,,,,,,,,,,,,,,,,,,,,,,,,,,,,,,,,,,,,,,
,,,,,,,,2023-08-16_08h43.23.726,HF_wild_card,2022.2.4,Win32,61.06870229,64834d96c668b041fea4e9cf,64d2fd46c836a06233681665,64dc7d89fcd9bc44da8a3d48,,,,,,,decisionTrl,resources/DR.BMP,resources/DY.BMP,Door1,-0.277786825,-0.062134052,1,0,0,3.1286,optionLeft,30,10975,5,35,0,35,0,1,,,,,,,,,,,,,,,,,,,,,,,,,,,,,,,,,,,,,,,
,,,,,,,,2023-08-16_08h43.23.726,HF_wild_card,2022.2.4,Win32,61.06870229,64834d96c668b041fea4e9cf,64d2fd46c836a06233681665,64dc7d89fcd9bc44da8a3d48,,,,,,,sngl,resources/Empty.png,resources/DY.BMP,Door2,0.189357012,-0.02439819,1,0,0,0.8093,optionRight,20,10995,5,36,0,36,0,1,,,,,,,,,,,,,,,,,,,,,,,,,,,,,,,,,,,,,,,
,,,,,,,,2023-08-16_08h43.23.726,HF_wild_card,2022.2.4,Win32,61.06870229,64834d96c668b041fea4e9cf,64d2fd46c836a06233681665,64dc7d89fcd9bc44da8a3d48,,,,,,,sngl,resources/Empty.png,resources/DBN.BMP,WildCard_NonEx,0.228394081,0.012036422,1,0,0,0.9652,optionRight,45,11040,5,37,0,37,0,1,,,,,,,,,,,,,,,,,,,,,,,,,,,,,,,,,,,,,,,
,,,,,,,,2023-08-16_08h43.23.726,HF_wild_card,2022.2.4,Win32,61.06870229,64834d96c668b041fea4e9cf,64d2fd46c836a06233681665,64dc7d89fcd9bc44da8a3d48,,,,,,,sngl,resources/Empty.png,resources/DP.BMP,Door4,0.309070719,0.002927758,1,0,0,1.0904,optionRight,60,11100,5,38,0,38,0,1,,,,,,,,,,,,,,,,,,,,,,,,,,,,,,,,,,,,,,,
,,,,,,,,2023-08-16_08h43.23.726,HF_wild_card,2022.2.4,Win32,61.06870229,64834d96c668b041fea4e9cf,64d2fd46c836a06233681665,64dc7d89fcd9bc44da8a3d48,,,,,,,decisionTrl,resources/DBN.BMP,resources/DY.BMP,WildCard_NonEx,-0.290799152,-0.059531464,1,0,0,0.9843,optionLeft,55,11155,5,39,0,39,0,1,,,,,,,,,,,,,,,,,,,,,,,,,,,,,,,,,,,,,,,
,,,,,,,,2023-08-16_08h43.23.726,HF_wild_card,2022.2.4,Win32,61.06870229,64834d96c668b041fea4e9cf,64d2fd46c836a06233681665,64dc7d89fcd9bc44da8a3d48,,,,,,,sngl,resources/Empty.png,resources/DG.BMP,Door3,0.273937357,0.006831465,1,0,0,0.9473,optionRight,70,11225,5,40,0,40,0,1,,,,,,,,,,,,,,,,,,,,,,,,,,,,,,,,,,,,,,,
,,,,,,,,2023-08-16_08h43.23.726,HF_wild_card,2022.2.4,Win32,61.06870229,64834d96c668b041fea4e9cf,64d2fd46c836a06233681665,64dc7d89fcd9bc44da8a3d48,,,,,,,sngl,resources/DR.BMP,resources/Empty.png,Door1,-0.322028895,0.005530346,1,0,0,3.8637,optionLeft,30,11255,5,41,0,41,0,1,,,,,,,,,,,,,,,,,,,,,,,,,,,,,,,,,,,,,,,
,,,,,,,,2023-08-16_08h43.23.726,HF_wild_card,2022.2.4,Win32,61.06870229,64834d96c668b041fea4e9cf,64d2fd46c836a06233681665,64dc7d89fcd9bc44da8a3d48,,,,,,,decisionTrl,resources/DP.BMP,resources/DG.BMP,Door4,-0.288196695,-0.058230345,1,0,0,1.272,optionLeft,80,11335,5,42,0,42,0,1,,,,,,,,,,,,,,,,,,,,,,,,,,,,,,,,,,,,,,,
,,,,,,,,2023-08-16_08h43.23.726,HF_wild_card,2022.2.4,Win32,61.06870229,64834d96c668b041fea4e9cf,64d2fd46c836a06233681665,64dc7d89fcd9bc44da8a3d48,,,,,,,decisionTrl,resources/DP.BMP,resources/DBN.BMP,Door4,-0.292100402,-0.049121681,1,0,0,1.9095,optionLeft,80,11415,5,43,0,43,0,1,,,,,,,,,,,,,,,,,,,,,,,,,,,,,,,,,,,,,,,
,,,,,,,,2023-08-16_08h43.23.726,HF_wild_card,2022.2.4,Win32,61.06870229,64834d96c668b041fea4e9cf,64d2fd46c836a06233681665,64dc7d89fcd9bc44da8a3d48,,,,,,,,,,,,,,,,,,,,,,,,,,4,0,4,0,1,,,,,,,,,,,,,,,,,,,,,,,,,,,,,,,,,,
,,,,,,,,2023-08-16_08h43.23.726,HF_wild_card,2022.2.4,Win32,61.06870229,64834d96c668b041fea4e9cf,64d2fd46c836a06233681665,64dc7d89fcd9bc44da8a3d48,,,,,,,ctch,resources/DR.BMP,resources/DP.BMP,Door4,0.400157271,-0.020494483,1,0,0,0.9721,optionRight,60,11475,6,0,0,0,0,1,,,,,,,,,,,,,,,,,,,,,,,,,,,,,,,,,,,,,,,
,,,,,,,,2023-08-16_08h43.23.726,HF_wild_card,2022.2.4,Win32,61.06870229,64834d96c668b041fea4e9cf,64d2fd46c836a06233681665,64dc7d89fcd9bc44da8a3d48,,,,,,,decisionTrl,resources/DY.BMP,resources/DR.BMP,Door1,0.391048563,0.017241379,1,0,0,0.9981,optionRight,30,11505,6,1,0,1,0,1,,,,,,,,,,,,,,,,,,,,,,,,,,,,,,,,,,,,,,,
,,,,,,,,2023-08-16_08h43.23.726,HF_wild_card,2022.2.4,Win32,61.06870229,64834d96c668b041fea4e9cf,64d2fd46c836a06233681665,64dc7d89fcd9bc44da8a3d48,,,,,,,decisionTrl,resources/DP.BMP,resources/DG.BMP,Door4,-0.256967084,-0.019193233,1,0,0,0.8644,optionLeft,60,11565,6,2,0,2,0,1,,,,,,,,,,,,,,,,,,,,,,,,,,,,,,,,,,,,,,,
,,,,,,,,2023-08-16_08h43.23.726,HF_wild_card,2022.2.4,Win32,61.06870229,64834d96c668b041fea4e9cf,64d2fd46c836a06233681665,64dc7d89fcd9bc44da8a3d48,,,,,,,decisionTrl,resources/DY.BMP,resources/DR.BMP,Door1,0.344203905,0.015940129,1,0,0,1.1123,optionRight,30,11595,6,3,0,3,0,1,,,,,,,,,,,,,,,,,,,,,,,,,,,,,,,,,,,,,,,
,,,,,,,,2023-08-16_08h43.23.726,HF_wild_card,2022.2.4,Win32,61.06870229,64834d96c668b041fea4e9cf,64d2fd46c836a06233681665,64dc7d89fcd9bc44da8a3d48,,,,,,,sngl,resources/Empty.png,resources/DBN.BMP,WildCard_NonEx,0.322082958,0.0289525,1,0,0,1.1563,optionRight,55,11650,6,4,0,4,0,1,,,,,,,,,,,,,,,,,,,,,,,,,,,,,,,,,,,,,,,
,,,,,,,,2023-08-16_08h43.23.726,HF_wild_card,2022.2.4,Win32,61.06870229,64834d96c668b041fea4e9cf,64d2fd46c836a06233681665,64dc7d89fcd9bc44da8a3d48,,,,,,,sngl,resources/DP.BMP,resources/Empty.png,Door4,-0.232243637,-0.037410561,1,0,0,0.7543,optionLeft,60,11710,6,5,0,5,0,1,,,,,,,,,,,,,,,,,,,,,,,,,,,,,,,,,,,,,,,
,,,,,,,,2023-08-16_08h43.23.726,HF_wild_card,2022.2.4,Win32,61.06870229,64834d96c668b041fea4e9cf,64d2fd46c836a06233681665,64dc7d89fcd9bc44da8a3d48,,,,,,,decisionTrl,resources/DR.BMP,resources/DY.BMP,Door1,-0.174989152,-0.03610931,1,0,0,2.0824,optionLeft,30,11740,6,6,0,6,0,1,,,,,,,,,,,,,,,,,,,,,,,,,,,,,,,,,,,,,,,
,,,,,,,,2023-08-16_08h43.23.726,HF_wild_card,2022.2.4,Win32,61.06870229,64834d96c668b041fea4e9cf,64d2fd46c836a06233681665,64dc7d89fcd9bc44da8a3d48,,,,,,,decisionTrl,resources/DG.BMP,resources/DP.BMP,Door4,0.333794166,0.001626596,1,0,0,0.9825,optionRight,60,11800,6,7,0,7,0,1,,,,,,,,,,,,,,,,,,,,,,,,,,,,,,,,,,,,,,,
,,,,,,,,2023-08-16_08h43.23.726,HF_wild_card,2022.2.4,Win32,61.06870229,64834d96c668b041fea4e9cf,64d2fd46c836a06233681665,64dc7d89fcd9bc44da8a3d48,,,,,,,ctch,resources/DY.BMP,resources/DG.BMP,Door2,-0.186700273,-0.020494483,1,0,0,0.7974,optionLeft,40,11840,6,8,0,8,0,1,,,,,,,,,,,,,,,,,,,,,,,,,,,,,,,,,,,,,,,
,,,,,,,,2023-08-16_08h43.23.726,HF_wild_card,2022.2.4,Win32,61.06870229,64834d96c668b041fea4e9cf,64d2fd46c836a06233681665,64dc7d89fcd9bc44da8a3d48,,,,,,,decisionTrl,resources/DP.BMP,resources/DG.BMP,Door3,0.27653977,0.022446336,1,0,0,1.6072,optionRight,70,11910,6,9,0,9,0,1,,,,,,,,,,,,,,,,,,,,,,,,,,,,,,,,,,,,,,,
,,,,,,,,2023-08-16_08h43.23.726,HF_wild_card,2022.2.4,Win32,61.06870229,64834d96c668b041fea4e9cf,64d2fd46c836a06233681665,64dc7d89fcd9bc44da8a3d48,,,,,,,ctch,resources/DR.BMP,resources/DP.BMP,Door4,0.258322529,0.010735172,1,0,0,2.6307,optionRight,80,11990,6,10,0,10,0,1,,,,,,,,,,,,,,,,,,,,,,,,,,,,,,,,,,,,,,,
,,,,,,,,2023-08-16_08h43.23.726,HF_wild_card,2022.2.4,Win32,61.06870229,64834d96c668b041fea4e9cf,64d2fd46c836a06233681665,64dc7d89fcd9bc44da8a3d48,,,,,,,decisionTrl,resources/DG.BMP,resources/DP.BMP,Door4,0.262226236,-0.003578405,1,0,0,1.0541,optionRight,60,12050,6,11,0,11,0,1,,,,,,,,,,,,,,,,,,,,,,,,,,,,,,,,,,,,,,,
,,,,,,,,2023-08-16_08h43.23.726,HF_wild_card,2022.2.4,Win32,61.06870229,64834d96c668b041fea4e9cf,64d2fd46c836a06233681665,64dc7d89fcd9bc44da8a3d48,,,,,,,decisionTrl,resources/DP.BMP,resources/DBN.BMP,Door4,-0.19190523,-0.010084569,1,0,0,0.9997,optionLeft,80,12130,6,12,0,12,0,1,,,,,,,,,,,,,,,,,,,,,,,,,,,,,,,,,,,,,,,
,,,,,,,,2023-08-16_08h43.23.726,HF_wild_card,2022.2.4,Win32,61.06870229,64834d96c668b041fea4e9cf,64d2fd46c836a06233681665,64dc7d89fcd9bc44da8a3d48,,,,,,,ctch,resources/DG.BMP,resources/DY.BMP,Door2,0.258322529,0.032856207,1,0,0,1.1339,optionRight,20,12150,6,13,0,13,0,1,,,,,,,,,,,,,,,,,,,,,,,,,,,,,,,,,,,,,,,
,,,,,,,,2023-08-16_08h43.23.726,HF_wild_card,2022.2.4,Win32,61.06870229,64834d96c668b041fea4e9cf,64d2fd46c836a06233681665,64dc7d89fcd9bc44da8a3d48,,,,,,,decisionTrl,resources/DR.BMP,resources/DY.BMP,Door1,-0.2023151,0.022446336,1,0,0,0.845,optionLeft,30,12180,6,14,0,14,0,1,,,,,,,,,,,,,,,,,,,,,,,,,,,,,,,,,,,,,,,
,,,,,,,,2023-08-16_08h43.23.726,HF_wild_card,2022.2.4,Win32,61.06870229,64834d96c668b041fea4e9cf,64d2fd46c836a06233681665,64dc7d89fcd9bc44da8a3d48,,,,,,,sngl,resources/Empty.png,resources/DP.BMP,Door4,0.259623736,-0.015289526,1,0,0,1.0307,optionRight,80,12260,6,15,0,15,0,1,,,,,,,,,,,,,,,,,,,,,,,,,,,,,,,,,,,,,,,
,,,,,,,,2023-08-16_08h43.23.726,HF_wild_card,2022.2.4,Win32,61.06870229,64834d96c668b041fea4e9cf,64d2fd46c836a06233681665,64dc7d89fcd9bc44da8a3d48,,,,,,,sngl,resources/DR.BMP,resources/Empty.png,Door1,-0.234846005,0.009434053,1,0,0,1.5337,optionLeft,30,12290,6,16,0,16,0,1,,,,,,,,,,,,,,,,,,,,,,,,,,,,,,,,,,,,,,,
,,,,,,,,2023-08-16_08h43.23.726,HF_wild_card,2022.2.4,Win32,61.06870229,64834d96c668b041fea4e9cf,64d2fd46c836a06233681665,64dc7d89fcd9bc44da8a3d48,,,,,,,decisionTrl,resources/DG.BMP,resources/DP.BMP,Door4,0.193260719,0.001626596,1,0,0,0.8807,optionRight,80,12370,6,17,0,17,0,1,,,,,,,,,,,,,,,,,,,,,,,,,,,,,,,,,,,,,,,
,,,,,,,,2023-08-16_08h43.23.726,HF_wild_card,2022.2.4,Win32,61.06870229,64834d96c668b041fea4e9cf,64d2fd46c836a06233681665,64dc7d89fcd9bc44da8a3d48,,,,,,,decisionTrl,resources/DR.BMP,resources/DBN.BMP,WildCard_NonEx,0.311673219,0.091411854,1,0,0,1.4812,optionRight,55,12425,6,18,0,18,0,1,,,,,,,,,,,,,,,,,,,,,,,,,,,,,,,,,,,,,,,
,,,,,,,,2023-08-16_08h43.23.726,HF_wild_card,2022.2.4,Win32,61.06870229,64834d96c668b041fea4e9cf,64d2fd46c836a06233681665,64dc7d89fcd9bc44da8a3d48,,,,,,,sngl,resources/Empty.png,resources/DY.BMP,Door2,0.283045802,0.030253794,1,0,0,1.1088,optionRight,40,12465,6,19,0,19,0,1,,,,,,,,,,,,,,,,,,,,,,,,,,,,,,,,,,,,,,,
,,,,,,,,2023-08-16_08h43.23.726,HF_wild_card,2022.2.4,Win32,61.06870229,64834d96c668b041fea4e9cf,64d2fd46c836a06233681665,64dc7d89fcd9bc44da8a3d48,,,,,,,decisionTrl,resources/DBN.BMP,resources/DG.BMP,WildCard_NonEx,-0.230942299,-0.000975949,1,0,0,1.0647,optionLeft,45,12510,6,20,0,20,0,1,,,,,,,,,,,,,,,,,,,,,,,,,,,,,,,,,,,,,,,
,,,,,,,,2023-08-16_08h43.23.726,HF_wild_card,2022.2.4,Win32,61.06870229,64834d96c668b041fea4e9cf,64d2fd46c836a06233681665,64dc7d89fcd9bc44da8a3d48,,,,,,,decisionTrl,resources/DY.BMP,resources/DBN.BMP,WildCard_NonEx,0.325986753,0.034157501,1,0,0,7.5604,optionRight,55,12565,6,21,0,21,0,1,,,,,,,,,,,,,,,,,,,,,,,,,,,,,,,,,,,,,,,
,,,,,,,,2023-08-16_08h43.23.726,HF_wild_card,2022.2.4,Win32,61.06870229,64834d96c668b041fea4e9cf,64d2fd46c836a06233681665,64dc7d89fcd9bc44da8a3d48,,,,,,,sngl,resources/DG.BMP,resources/Empty.png,Door3,-0.301209154,0.049772284,1,0,0,5.1804,optionLeft,70,12635,6,22,0,22,0,1,,,,,,,,,,,,,,,,,,,,,,,,,,,,,,,,,,,,,,,
,,,,,,,,2023-08-16_08h43.23.726,HF_wild_card,2022.2.4,Win32,61.06870229,64834d96c668b041fea4e9cf,64d2fd46c836a06233681665,64dc7d89fcd9bc44da8a3d48,,,,,,,decisionTrl,resources/DR.BMP,resources/DY.BMP,Door1,-0.237448462,0.053675991,1,0,0,1.5353,optionLeft,30,12665,6,23,0,23,0,1,,,,,,,,,,,,,,,,,,,,,,,,,,,,,,,,,,,,,,,
,,,,,,,,2023-08-16_08h43.23.726,HF_wild_card,2022.2.4,Win32,61.06870229,64834d96c668b041fea4e9cf,64d2fd46c836a06233681665,64dc7d89fcd9bc44da8a3d48,,,,,,,decisionTrl,resources/DBN.BMP,resources/DP.BMP,Door4,0.368927616,-0.003578405,1,0,0,0.9733,optionRight,60,12725,6,24,0,24,0,1,,,,,,,,,,,,,,,,,,,,,,,,,,,,,,,,,,,,,,,
,,,,,,,,2023-08-16_08h43.23.726,HF_wild_card,2022.2.4,Win32,61.06870229,64834d96c668b041fea4e9cf,64d2fd46c836a06233681665,64dc7d89fcd9bc44da8a3d48,,,,,,,decisionTrl,resources/DBN.BMP,resources/DY.BMP,WildCard_NonEx,-0.289497989,0.058880948,1,0,0,1.014,optionLeft,55,12780,6,25,0,25,0,1,,,,,,,,,,,,,,,,,,,,,,,,,,,,,,,,,,,,,,,
,,,,,,,,2023-08-16_08h43.23.726,HF_wild_card,2022.2.4,Win32,61.06870229,64834d96c668b041fea4e9cf,64d2fd46c836a06233681665,64dc7d89fcd9bc44da8a3d48,,,,,,,sngl,resources/DY.BMP,resources/Empty.png,Door2,-0.207520057,-0.003578405,1,0,0,0.9114,optionLeft,20,12800,6,26,0,26,0,1,,,,,,,,,,,,,,,,,,,,,,,,,,,,,,,,,,,,,,,
,,,,,,,,2023-08-16_08h43.23.726,HF_wild_card,2022.2.4,Win32,61.06870229,64834d96c668b041fea4e9cf,64d2fd46c836a06233681665,64dc7d89fcd9bc44da8a3d48,,,,,,,ctch,resources/DP.BMP,resources/DR.BMP,Door4,-0.294702859,-0.051724138,1,0,0,1.2964,optionLeft,60,12860,6,27,0,27,0,1,,,,,,,,,,,,,,,,,,,,,,,,,,,,,,,,,,,,,,,
,,,,,,,,2023-08-16_08h43.23.726,HF_wild_card,2022.2.4,Win32,61.06870229,64834d96c668b041fea4e9cf,64d2fd46c836a06233681665,64dc7d89fcd9bc44da8a3d48,,,,,,,sngl,resources/Empty.png,resources/DR.BMP,Door1,0.233598819,-0.016590776,1,0,0,0.8347,optionRight,30,12890,6,28,0,28,0,1,,,,,,,,,,,,,,,,,,,,,,,,,,,,,,,,,,,,,,,
,,,,,,,,2023-08-16_08h43.23.726,HF_wild_card,2022.2.4,Win32,61.06870229,64834d96c668b041fea4e9cf,64d2fd46c836a06233681665,64dc7d89fcd9bc44da8a3d48,,,,,,,decisionTrl,resources/DY.BMP,resources/DR.BMP,Door1,0.202369339,-0.016590776,1,0,0,1.198,optionRight,30,12920,6,29,0,29,0,1,,,,,,,,,,,,,,,,,,,,,,,,,,,,,,,,,,,,,,,
,,,,,,,,2023-08-16_08h43.23.726,HF_wild_card,2022.2.4,Win32,61.06870229,64834d96c668b041fea4e9cf,64d2fd46c836a06233681665,64dc7d89fcd9bc44da8a3d48,,,,,,,ctch,resources/DP.BMP,resources/DR.BMP,Door4,-0.276485575,-0.020494483,1,0,0,0.7984,optionLeft,60,12980,6,30,0,30,0,1,,,,,,,,,,,,,,,,,,,,,,,,,,,,,,,,,,,,,,,
,,,,,,,,2023-08-16_08h43.23.726,HF_wild_card,2022.2.4,Win32,61.06870229,64834d96c668b041fea4e9cf,64d2fd46c836a06233681665,64dc7d89fcd9bc44da8a3d48,,,,,,,sngl,resources/Empty.png,resources/DG.BMP,Door3,0.288250978,-0.041314268,1,0,0,3.6974,optionRight,70,13050,6,31,0,31,0,1,,,,,,,,,,,,,,,,,,,,,,,,,,,,,,,,,,,,,,,
,,,,,,,,2023-08-16_08h43.23.726,HF_wild_card,2022.2.4,Win32,61.06870229,64834d96c668b041fea4e9cf,64d2fd46c836a06233681665,64dc7d89fcd9bc44da8a3d48,,,,,,,decisionTrl,resources/DBN.BMP,resources/DR.BMP,WildCard_NonEx,-0.298606566,0.036759914,1,0,0,1.3725,optionLeft,55,13105,6,32,0,32,0,1,,,,,,,,,,,,,,,,,,,,,,,,,,,,,,,,,,,,,,,
,,,,,,,,2023-08-16_08h43.23.726,HF_wild_card,2022.2.4,Win32,61.06870229,64834d96c668b041fea4e9cf,64d2fd46c836a06233681665,64dc7d89fcd9bc44da8a3d48,,,,,,,sngl,resources/DBN.BMP,resources/Empty.png,WildCard_NonEx,-0.335041178,-0.020494483,1,0,0,0.9755,optionLeft,55,13160,6,33,0,33,0,1,,,,,,,,,,,,,,,,,,,,,,,,,,,,,,,,,,,,,,,
,,,,,,,,2023-08-16_08h43.23.726,HF_wild_card,2022.2.4,Win32,61.06870229,64834d96c668b041fea4e9cf,64d2fd46c836a06233681665,64dc7d89fcd9bc44da8a3d48,,,,,,,decisionTrl,resources/DP.BMP,resources/DG.BMP,Door4,-0.25566579,-0.02439819,1,0,0,1.1204,optionLeft,60,13220,6,34,0,34,0,1,,,,,,,,,,,,,,,,,,,,,,,,,,,,,,,,,,,,,,,
,,,,,,,,2023-08-16_08h43.23.726,HF_wild_card,2022.2.4,Win32,61.06870229,64834d96c668b041fea4e9cf,64d2fd46c836a06233681665,64dc7d89fcd9bc44da8a3d48,,,,,,,decisionTrl,resources/DR.BMP,resources/DY.BMP,Door1,-0.280389282,0.043266077,1,0,0,1.1921,optionLeft,30,13250,6,35,0,35,0,1,,,,,,,,,,,,,,,,,,,,,,,,,,,,,,,,,,,,,,,
,,,,,,,,2023-08-16_08h43.23.726,HF_wild_card,2022.2.4,Win32,61.06870229,64834d96c668b041fea4e9cf,64d2fd46c836a06233681665,64dc7d89fcd9bc44da8a3d48,,,,,,,sngl,resources/DBN.BMP,resources/Empty.png,WildCard_NonEx,-0.198411393,0.014638879,1,0,0,1.0718,optionLeft,45,13295,6,36,0,36,0,1,,,,,,,,,,,,,,,,,,,,,,,,,,,,,,,,,,,,,,,
,,,,,,,,2023-08-16_08h43.23.726,HF_wild_card,2022.2.4,Win32,61.06870229,64834d96c668b041fea4e9cf,64d2fd46c836a06233681665,64dc7d89fcd9bc44da8a3d48,,,,,,,ctch,resources/DG.BMP,resources/DY.BMP,Door3,-0.154169368,0.008132715,1,0,0,1.2812,optionLeft,70,13365,6,37,0,37,0,1,,,,,,,,,,,,,,,,,,,,,,,,,,,,,,,,,,,,,,,
,,,,,,,,2023-08-16_08h43.23.726,HF_wild_card,2022.2.4,Win32,61.06870229,64834d96c668b041fea4e9cf,64d2fd46c836a06233681665,64dc7d89fcd9bc44da8a3d48,,,,,,,decisionTrl,resources/DP.BMP,resources/DG.BMP,Door4,-0.198411393,0.005530346,1,0,0,1.2264,optionLeft,80,13445,6,38,0,38,0,1,,,,,,,,,,,,,,,,,,,,,,,,,,,,,,,,,,,,,,,
,,,,,,,,2023-08-16_08h43.23.726,HF_wild_card,2022.2.4,Win32,61.06870229,64834d96c668b041fea4e9cf,64d2fd46c836a06233681665,64dc7d89fcd9bc44da8a3d48,,,,,,,sngl,resources/Empty.png,resources/DBN.BMP,WildCard_NonEx,0.367626146,0.014638879,1,0,0,4.0545,optionRight,45,13490,6,39,0,39,0,1,,,,,,,,,,,,,,,,,,,,,,,,,,,,,,,,,,,,,,,
,,,,,,,,2023-08-16_08h43.23.726,HF_wild_card,2022.2.4,Win32,61.06870229,64834d96c668b041fea4e9cf,64d2fd46c836a06233681665,64dc7d89fcd9bc44da8a3d48,,,,,,,decisionTrl,resources/DG.BMP,resources/DP.BMP,Door4,0.327288047,0.017241379,1,0,0,1.1875,optionRight,60,13550,6,40,0,40,0,1,,,,,,,,,,,,,,,,,,,,,,,,,,,,,,,,,,,,,,,
,,,,,,,,2023-08-16_08h43.23.726,HF_wild_card,2022.2.4,Win32,61.06870229,64834d96c668b041fea4e9cf,64d2fd46c836a06233681665,64dc7d89fcd9bc44da8a3d48,,,,,,,ctch,resources/DY.BMP,resources/DG.BMP,Door3,0.255720029,0.023747543,1,0,0,2.6402,optionRight,70,13620,6,41,0,41,0,1,,,,,,,,,,,,,,,,,,,,,,,,,,,,,,,,,,,,,,,
,,,,,,,,2023-08-16_08h43.23.726,HF_wild_card,2022.2.4,Win32,61.06870229,64834d96c668b041fea4e9cf,64d2fd46c836a06233681665,64dc7d89fcd9bc44da8a3d48,,,,,,,decisionTrl,resources/DG.BMP,resources/DBN.BMP,WildCard_NonEx,0.33249296,0.034157501,1,0,0,1.2893,optionRight,55,13675,6,42,0,42,0,1,,,,,,,,,,,,,,,,,,,,,,,,,,,,,,,,,,,,,,,
,,,,,,,,2023-08-16_08h43.23.726,HF_wild_card,2022.2.4,Win32,61.06870229,64834d96c668b041fea4e9cf,64d2fd46c836a06233681665,64dc7d89fcd9bc44da8a3d48,,,,,,,decisionTrl,resources/DY.BMP,resources/DR.BMP,Door1,0.279142095,0.001626596,1,0,0,1.4381,optionRight,30,13705,6,43,0,43,0,1,,,,,,,,,,,,,,,,,,,,,,,,,,,,,,,,,,,,,,,
,,,,,,,,2023-08-16_08h43.23.726,HF_wild_card,2022.2.4,Win32,61.06870229,64834d96c668b041fea4e9cf,64d2fd46c836a06233681665,64dc7d89fcd9bc44da8a3d48,,,,,,,,,,,,,,,,,,,,,,,,,,5,0,5,0,1,,,,,,,,,,,,,,,,,,,,,,,,,,,,,,,,,,
,,,,,,,,2023-08-16_08h43.23.726,HF_wild_card,2022.2.4,Win32,61.06870229,64834d96c668b041fea4e9cf,64d2fd46c836a06233681665,64dc7d89fcd9bc44da8a3d48,,,,,,,decisionTrl,resources/DP.BMP,resources/DG.BMP,Door4,-0.431332775,-0.064736509,1,0,0,1.0937,optionLeft,80,13785,7,0,0,0,0,1,,,,,,,,,,,,,,,,,,,,,,,,,,,,,,,,,,,,,,,
,,,,,,,,2023-08-16_08h43.23.726,HF_wild_card,2022.2.4,Win32,61.06870229,64834d96c668b041fea4e9cf,64d2fd46c836a06233681665,64dc7d89fcd9bc44da8a3d48,,,,,,,decisionTrl,resources/DY.BMP,resources/DR.BMP,Door1,0.266129943,-0.008783362,1,0,0,1.1636,optionRight,30,13815,7,1,0,1,0,1,,,,,,,,,,,,,,,,,,,,,,,,,,,,,,,,,,,,,,,
,,,,,,,,2023-08-16_08h43.23.726,HF_wild_card,2022.2.4,Win32,61.06870229,64834d96c668b041fea4e9cf,64d2fd46c836a06233681665,64dc7d89fcd9bc44da8a3d48,,,,,,,decisionTrl,resources/DY.BMP,resources/DR.BMP,Door1,0.298660629,0.021145086,1,0,0,1.3664,optionRight,30,13845,7,2,0,2,0,1,,,,,,,,,,,,,,,,,,,,,,,,,,,,,,,,,,,,,,,
,,,,,,,,2023-08-16_08h43.23.726,HF_wild_card,2022.2.4,Win32,61.06870229,64834d96c668b041fea4e9cf,64d2fd46c836a06233681665,64dc7d89fcd9bc44da8a3d48,,,,,,,ctch,resources/DG.BMP,resources/DY.BMP,Door3,-0.219231178,-0.021795733,1,0,0,0.9609,optionLeft,70,13915,7,3,0,3,0,1,,,,,,,,,,,,,,,,,,,,,,,,,,,,,,,,,,,,,,,
,,,,,,,,2023-08-16_08h43.23.726,HF_wild_card,2022.2.4,Win32,61.06870229,64834d96c668b041fea4e9cf,64d2fd46c836a06233681665,64dc7d89fcd9bc44da8a3d48,,,,,,,ctch,resources/DG.BMP,resources/DY.BMP,Door3,-0.277786825,-0.038711723,1,0,0,0.8279,optionLeft,70,13985,7,4,0,4,0,1,,,,,,,,,,,,,,,,,,,,,,,,,,,,,,,,,,,,,,,
,,,,,,,,2023-08-16_08h43.23.726,HF_wild_card,2022.2.4,Win32,61.06870229,64834d96c668b041fea4e9cf,64d2fd46c836a06233681665,64dc7d89fcd9bc44da8a3d48,,,,,,,decisionTrl,resources/DG.BMP,resources/DP.BMP,Door4,0.290853215,-0.003578405,1,0,0,0.8444,optionRight,80,14065,7,5,0,5,0,1,,,,,,,,,,,,,,,,,,,,,,,,,,,,,,,,,,,,,,,
,,,,,,,,2023-08-16_08h43.23.726,HF_wild_card,2022.2.4,Win32,61.06870229,64834d96c668b041fea4e9cf,64d2fd46c836a06233681665,64dc7d89fcd9bc44da8a3d48,,,,,,,decisionTrl,resources/DR.BMP,resources/DY.BMP,Door1,-0.25566579,-0.032205604,1,0,0,1.832,optionLeft,30,14095,7,6,0,6,0,1,,,,,,,,,,,,,,,,,,,,,,,,,,,,,,,,,,,,,,,
,,,,,,,,2023-08-16_08h43.23.726,HF_wild_card,2022.2.4,Win32,61.06870229,64834d96c668b041fea4e9cf,64d2fd46c836a06233681665,64dc7d89fcd9bc44da8a3d48,,,,,,,ctch,resources/DY.BMP,resources/DG.BMP,Door3,0.279142095,-0.010084569,1,0,0,1.2819,optionRight,70,14165,7,7,0,7,0,1,,,,,,,,,,,,,,,,,,,,,,,,,,,,,,,,,,,,,,,
,,,,,,,,2023-08-16_08h43.23.726,HF_wild_card,2022.2.4,Win32,61.06870229,64834d96c668b041fea4e9cf,64d2fd46c836a06233681665,64dc7d89fcd9bc44da8a3d48,,,,,,,decisionTrl,resources/DR.BMP,resources/DY.BMP,Door1,-0.19190523,0.015940129,1,0,0,0.9839,optionLeft,30,14195,7,8,0,8,0,1,,,,,,,,,,,,,,,,,,,,,,,,,,,,,,,,,,,,,,,
,,,,,,,,2023-08-16_08h43.23.726,HF_wild_card,2022.2.4,Win32,61.06870229,64834d96c668b041fea4e9cf,64d2fd46c836a06233681665,64dc7d89fcd9bc44da8a3d48,,,,,,,decisionTrl,resources/DP.BMP,resources/DG.BMP,Door4,-0.294702859,-0.047820431,1,0,0,1.0659,optionLeft,60,14255,7,9,0,9,0,1,,,,,,,,,,,,,,,,,,,,,,,,,,,,,,,,,,,,,,,
,,,,,,,,2023-08-16_08h43.23.726,HF_wild_card,2022.2.4,Win32,61.06870229,64834d96c668b041fea4e9cf,64d2fd46c836a06233681665,64dc7d89fcd9bc44da8a3d48,,,,,,,ctch,resources/DR.BMP,resources/DP.BMP,Door4,0.262226236,-0.03610931,1,0,0,1.2455,optionRight,60,14315,7,10,0,10,0,1,,,,,,,,,,,,,,,,,,,,,,,,,,,,,,,,,,,,,,,
,,,,,,,,2023-08-16_08h43.23.726,HF_wild_card,2022.2.4,Win32,61.06870229,64834d96c668b041fea4e9cf,64d2fd46c836a06233681665,64dc7d89fcd9bc44da8a3d48,,,,,,,ctch,resources/DG.BMP,resources/DY.BMP,Door2,0.264828649,-0.003578405,1,0,0,1.229,optionRight,40,14355,7,11,0,11,0,1,,,,,,,,,,,,,,,,,,,,,,,,,,,,,,,,,,,,,,,
,,,,,,,,2023-08-16_08h43.23.726,HF_wild_card,2022.2.4,Win32,61.06870229,64834d96c668b041fea4e9cf,64d2fd46c836a06233681665,64dc7d89fcd9bc44da8a3d48,,,,,,,decisionTrl,resources/DY.BMP,resources/DR.BMP,Door2,-0.208821308,-0.021795733,1,0,0,1.0463,optionLeft,40,14395,7,12,0,12,0,1,,,,,,,,,,,,,,,,,,,,,,,,,,,,,,,,,,,,,,,
,,,,,,,,2023-08-16_08h43.23.726,HF_wild_card,2022.2.4,Win32,61.06870229,64834d96c668b041fea4e9cf,64d2fd46c836a06233681665,64dc7d89fcd9bc44da8a3d48,,,,,,,decisionTrl,resources/DG.BMP,resources/DP.BMP,Door4,0.26743115,-0.011385819,1,0,0,1.1619,optionRight,60,14455,7,13,0,13,0,1,,,,,,,,,,,,,,,,,,,,,,,,,,,,,,,,,,,,,,,
,,,,,,,,2023-08-16_08h43.23.726,HF_wild_card,2022.2.4,Win32,61.06870229,64834d96c668b041fea4e9cf,64d2fd46c836a06233681665,64dc7d89fcd9bc44da8a3d48,,,,,,,decisionTrl,resources/DP.BMP,resources/DG.BMP,Door4,-0.279088031,-0.07774888,1,0,0,0.8361,optionLeft,80,14535,7,14,0,14,0,1,,,,,,,,,,,,,,,,,,,,,,,,,,,,,,,,,,,,,,,
,,,,,,,,2023-08-16_08h43.23.726,HF_wild_card,2022.2.4,Win32,61.06870229,64834d96c668b041fea4e9cf,64d2fd46c836a06233681665,64dc7d89fcd9bc44da8a3d48,,,,,,,decisionTrl,resources/DY.BMP,resources/DR.BMP,Door2,-0.211423764,-0.032205604,1,0,0,0.9503,optionLeft,20,14555,7,15,0,15,0,1,,,,,,,,,,,,,,,,,,,,,,,,,,,,,,,,,,,,,,,
,,,,,,,,2023-08-16_08h43.23.726,HF_wild_card,2022.2.4,Win32,61.06870229,64834d96c668b041fea4e9cf,64d2fd46c836a06233681665,64dc7d89fcd9bc44da8a3d48,,,,,,,ctch,resources/DP.BMP,resources/DR.BMP,Door4,-0.217929928,-0.02569944,1,0,0,1.1466,optionLeft,80,14635,7,16,0,16,0,1,,,,,,,,,,,,,,,,,,,,,,,,,,,,,,,,,,,,,,,
,,,,,,,,2023-08-16_08h43.23.726,HF_wild_card,2022.2.4,Win32,61.06870229,64834d96c668b041fea4e9cf,64d2fd46c836a06233681665,64dc7d89fcd9bc44da8a3d48,,,,,,,decisionTrl,resources/DG.BMP,resources/DP.BMP,Door4,0.220586667,-0.02439819,1,0,0,1.0612,optionRight,80,14715,7,17,0,17,0,1,,,,,,,,,,,,,,,,,,,,,,,,,,,,,,,,,,,,,,,
,,,,,,,,2023-08-16_08h43.23.726,HF_wild_card,2022.2.4,Win32,61.06870229,64834d96c668b041fea4e9cf,64d2fd46c836a06233681665,64dc7d89fcd9bc44da8a3d48,,,,,,,decisionTrl,resources/DY.BMP,resources/DR.BMP,Door2,-0.168482945,-0.002277111,1,0,0,1.4168,optionLeft,20,14735,7,18,0,18,0,1,,,,,,,,,,,,,,,,,,,,,,,,,,,,,,,,,,,,,,,
,,,,,,,,2023-08-16_08h43.23.726,HF_wild_card,2022.2.4,Win32,61.06870229,64834d96c668b041fea4e9cf,64d2fd46c836a06233681665,64dc7d89fcd9bc44da8a3d48,,,,,,,decisionTrl,resources/DG.BMP,resources/DP.BMP,Door4,0.260924942,-0.02569944,1,0,0,1.662,optionRight,80,14815,7,19,0,19,0,1,,,,,,,,,,,,,,,,,,,,,,,,,,,,,,,,,,,,,,,
,,,,,,,,2023-08-16_08h43.23.726,HF_wild_card,2022.2.4,Win32,61.06870229,64834d96c668b041fea4e9cf,64d2fd46c836a06233681665,64dc7d89fcd9bc44da8a3d48,,,,,,,decisionTrl,resources/DG.BMP,resources/DP.BMP,Door4,0.229695112,-0.021795733,1,0,0,1.5461,optionRight,80,14895,7,20,0,20,0,1,,,,,,,,,,,,,,,,,,,,,,,,,,,,,,,,,,,,,,,
,,,,,,,,2023-08-16_08h43.23.726,HF_wild_card,2022.2.4,Win32,61.06870229,64834d96c668b041fea4e9cf,64d2fd46c836a06233681665,64dc7d89fcd9bc44da8a3d48,,,,,,,ctch,resources/DY.BMP,resources/DG.BMP,Door3,0.281744771,-0.002277111,1,0,0,1.1444,optionRight,70,14965,7,21,0,21,0,1,,,,,,,,,,,,,,,,,,,,,,,,,,,,,,,,,,,,,,,
,,,,,,,,2023-08-16_08h43.23.726,HF_wild_card,2022.2.4,Win32,61.06870229,64834d96c668b041fea4e9cf,64d2fd46c836a06233681665,64dc7d89fcd9bc44da8a3d48,,,,,,,decisionTrl,resources/DP.BMP,resources/DG.BMP,Door3,0.286949508,0.013337672,1,0,0,1.1954,optionRight,70,15035,7,22,0,22,0,1,,,,,,,,,,,,,,,,,,,,,,,,,,,,,,,,,,,,,,,
,,,,,,,,2023-08-16_08h43.23.726,HF_wild_card,2022.2.4,Win32,61.06870229,64834d96c668b041fea4e9cf,64d2fd46c836a06233681665,64dc7d89fcd9bc44da8a3d48,,,,,,,decisionTrl,resources/DR.BMP,resources/DY.BMP,Door1,-0.093011264,0.010735172,1,0,0,1.18,optionLeft,30,15065,7,23,0,23,0,1,,,,,,,,,,,,,,,,,,,,,,,,,,,,,,,,,,,,,,,
,,,,,,,,2023-08-16_08h43.23.726,HF_wild_card,2022.2.4,Win32,61.06870229,64834d96c668b041fea4e9cf,64d2fd46c836a06233681665,64dc7d89fcd9bc44da8a3d48,,,,,,,ctch,resources/DY.BMP,resources/DG.BMP,Door3,0.34160158,0.002927758,1,0,0,1.4627,optionRight,70,15135,7,24,0,24,0,1,,,,,,,,,,,,,,,,,,,,,,,,,,,,,,,,,,,,,,,
,,,,,,,,2023-08-16_08h43.23.726,HF_wild_card,2022.2.4,Win32,61.06870229,64834d96c668b041fea4e9cf,64d2fd46c836a06233681665,64dc7d89fcd9bc44da8a3d48,,,,,,,decisionTrl,resources/DP.BMP,resources/DG.BMP,Door4,-0.229641048,-0.029603147,1,0,0,1.1817,optionLeft,80,15215,7,25,0,25,0,1,,,,,,,,,,,,,,,,,,,,,,,,,,,,,,,,,,,,,,,
,,,,,,,,2023-08-16_08h43.23.726,HF_wild_card,2022.2.4,Win32,61.06870229,64834d96c668b041fea4e9cf,64d2fd46c836a06233681665,64dc7d89fcd9bc44da8a3d48,,,,,,,decisionTrl,resources/DR.BMP,resources/DY.BMP,Door1,-0.253063377,0.001626596,1,0,0,1.0323,optionLeft,30,15245,7,26,0,26,0,1,,,,,,,,,,,,,,,,,,,,,,,,,,,,,,,,,,,,,,,
,,,,,,,,2023-08-16_08h43.23.726,HF_wild_card,2022.2.4,Win32,61.06870229,64834d96c668b041fea4e9cf,64d2fd46c836a06233681665,64dc7d89fcd9bc44da8a3d48,,,,,,,ctch,resources/DR.BMP,resources/DP.BMP,Door4,0.348107612,-0.020494483,1,0,0,1.3804,optionRight,60,15305,7,27,0,27,0,1,,,,,,,,,,,,,,,,,,,,,,,,,,,,,,,,,,,,,,,
,,,,,,,,2023-08-16_08h43.23.726,HF_wild_card,2022.2.4,Win32,61.06870229,64834d96c668b041fea4e9cf,64d2fd46c836a06233681665,64dc7d89fcd9bc44da8a3d48,,,,,,,ctch,resources/DR.BMP,resources/DP.BMP,Door4,0.299962099,0.005530346,1,0,0,0.9304,optionRight,60,15365,7,28,0,28,0,1,,,,,,,,,,,,,,,,,,,,,,,,,,,,,,,,,,,,,,,
,,,,,,,,2023-08-16_08h43.23.726,HF_wild_card,2022.2.4,Win32,61.06870229,64834d96c668b041fea4e9cf,64d2fd46c836a06233681665,64dc7d89fcd9bc44da8a3d48,,,,,,,decisionTrl,resources/DY.BMP,resources/DR.BMP,Door1,0.285648477,0.054977242,1,0,0,1.364,optionRight,30,15395,7,29,0,29,0,1,,,,,,,,,,,,,,,,,,,,,,,,,,,,,,,,,,,,,,,
,,,,,,,,2023-08-16_08h43.23.726,HF_wild_card,2022.2.4,Win32,61.06870229,64834d96c668b041fea4e9cf,64d2fd46c836a06233681665,64dc7d89fcd9bc44da8a3d48,,,,,,,ctch,resources/DP.BMP,resources/DR.BMP,Door4,-0.206218807,-0.058230345,1,0,0,0.8157,optionLeft,60,15455,7,30,0,30,0,1,,,,,,,,,,,,,,,,,,,,,,,,,,,,,,,,,,,,,,,
,,,,,,,,2023-08-16_08h43.23.726,HF_wild_card,2022.2.4,Win32,61.06870229,64834d96c668b041fea4e9cf,64d2fd46c836a06233681665,64dc7d89fcd9bc44da8a3d48,,,,,,,ctch,resources/DP.BMP,resources/DR.BMP,Door4,-0.181495316,-0.066037759,1,0,0,0.9797,optionLeft,80,15535,7,31,0,31,0,1,,,,,,,,,,,,,,,,,,,,,,,,,,,,,,,,,,,,,,,
,,,,,,,,2023-08-16_08h43.23.726,HF_wild_card,2022.2.4,Win32,61.06870229,64834d96c668b041fea4e9cf,64d2fd46c836a06233681665,64dc7d89fcd9bc44da8a3d48,,,,,,,decisionTrl,resources/DG.BMP,resources/DP.BMP,Door4,0.293455891,-0.012687069,1,0,0,0.864,optionRight,80,15615,7,32,0,32,0,1,,,,,,,,,,,,,,,,,,,,,,,,,,,,,,,,,,,,,,,
,,,,,,,,2023-08-16_08h43.23.726,HF_wild_card,2022.2.4,Win32,61.06870229,64834d96c668b041fea4e9cf,64d2fd46c836a06233681665,64dc7d89fcd9bc44da8a3d48,,,,,,,decisionTrl,resources/DR.BMP,resources/DY.BMP,Door1,-0.169784195,0.000325302,1,0,0,1.1603,optionLeft,30,15645,7,33,0,33,0,1,,,,,,,,,,,,,,,,,,,,,,,,,,,,,,,,,,,,,,,
,,,,,,,,2023-08-16_08h43.23.726,HF_wild_card,2022.2.4,Win32,61.06870229,64834d96c668b041fea4e9cf,64d2fd46c836a06233681665,64dc7d89fcd9bc44da8a3d48,,,,,,,decisionTrl,resources/DR.BMP,resources/DY.BMP,Door2,0.217983991,0.025048793,1,0,0,0.8661,optionRight,40,15685,7,34,0,34,0,1,,,,,,,,,,,,,,,,,,,,,,,,,,,,,,,,,,,,,,,
,,,,,,,,2023-08-16_08h43.23.726,HF_wild_card,2022.2.4,Win32,61.06870229,64834d96c668b041fea4e9cf,64d2fd46c836a06233681665,64dc7d89fcd9bc44da8a3d48,,,,,,,decisionTrl,resources/DP.BMP,resources/DG.BMP,Door4,-0.14766316,-0.000975949,1,0,0,0.879,optionLeft,80,15765,7,35,0,35,0,1,,,,,,,,,,,,,,,,,,,,,,,,,,,,,,,,,,,,,,,
,,,,,,,,2023-08-16_08h43.23.726,HF_wild_card,2022.2.4,Win32,61.06870229,64834d96c668b041fea4e9cf,64d2fd46c836a06233681665,64dc7d89fcd9bc44da8a3d48,,,,,,,,,,,,,,,,,,,,,,,,,,6,0,6,0,1,,,,,,,,,,,,,,,,,,,,,,,,,,,,,,,,,,
,,,,,,,,2023-08-16_08h43.23.726,HF_wild_card,2022.2.4,Win32,61.06870229,64834d96c668b041fea4e9cf,64d2fd46c836a06233681665,64dc7d89fcd9bc44da8a3d48,,,,,,,,,,,,,,,,,,,,,,,,,,,,,,,3,,,,,,,,,,,,,,,,,,,,,,,,,,,,,,,,,
,,,,,,,,2023-08-16_08h43.23.726,HF_wild_card,2022.2.4,Win32,61.06870229,64834d96c668b041fea4e9cf,64d2fd46c836a06233681665,64dc7d89fcd9bc44da8a3d48,,,,,,,,,,,,,,,,,,,,,,,,,,,,,,,,,,,,,,,,,,,,,,,,,,,,,,,,,,,,,,,,
,,,,,,,,2023-08-16_08h43.23.726,HF_wild_card,2022.2.4,Win32,61.06870229,64834d96c668b041fea4e9cf,64d2fd46c836a06233681665,64dc7d89fcd9bc44da8a3d48,,,,,,,,,,,,,,,,,,,,,,,,,,,,,,,,20,Door2,resources/DY.BMP,0,0,0,0,1,,,,,,,,,,,,,,,,,,,,,,,,,
,,,,,,,,2023-08-16_08h43.23.726,HF_wild_card,2022.2.4,Win32,61.06870229,64834d96c668b041fea4e9cf,64d2fd46c836a06233681665,64dc7d89fcd9bc44da8a3d48,,,,,,,,,,,,,,,,,,,,,,,,,,,,,,,,5,WC_extreme,resources/DB.BMP,1,0,1,0,1,,,,,,,,,,,,,,,,,,,,,,,,,
,,,,,,,,2023-08-16_08h43.23.726,HF_wild_card,2022.2.4,Win32,61.06870229,64834d96c668b041fea4e9cf,64d2fd46c836a06233681665,64dc7d89fcd9bc44da8a3d48,,,,,,,,,,,,,,,,,,,,,,,,,,,,,,,,30,WC_nonExtreme,resources/DBN.BMP,2,0,2,0,1,,,,,,,,,,,,,,,,,,,,,,,,,
,,,,,,,,2023-08-16_08h43.23.726,HF_wild_card,2022.2.4,Win32,61.06870229,64834d96c668b041fea4e9cf,64d2fd46c836a06233681665,64dc7d89fcd9bc44da8a3d48,,,,,,,,,,,,,,,,,,,,,,,,,,,,,,,,30,Door1,resources/DR.BMP,3,0,3,0,1,,,,,,,,,,,,,,,,,,,,,,,,,
,,,,,,,,2023-08-16_08h43.23.726,HF_wild_card,2022.2.4,Win32,61.06870229,64834d96c668b041fea4e9cf,64d2fd46c836a06233681665,64dc7d89fcd9bc44da8a3d48,,,,,,,,,,,,,,,,,,,,,,,,,,,,,,,,60,Door4,resources/DP.BMP,4,0,4,0,1,,,,,,,,,,,,,,,,,,,,,,,,,
,,,,,,,,2023-08-16_08h43.23.726,HF_wild_card,2022.2.4,Win32,61.06870229,64834d96c668b041fea4e9cf,64d2fd46c836a06233681665,64dc7d89fcd9bc44da8a3d48,,,,,,,,,,,,,,,,,,,,,,,,,,,,,,,,20,Door3,resources/DG.BMP,5,0,5,0,1,,,,,,,,,,,,,,,,,,,,,,,,,
,,,,,,,,2023-08-16_08h43.23.726,HF_wild_card,2022.2.4,Win32,61.06870229,64834d96c668b041fea4e9cf,64d2fd46c836a06233681665,64dc7d89fcd9bc44da8a3d48,,,,,,,,,,,,,,,,,,,,,,,,,,,,,,,,,,,,,,,,,,,,,,,,,,,,,,,,,,,,,,,,
