Condition,Low fixed image (Door1),Low risky image (Door2),High fixed image (Door3),High risky image (Door4),NonExtreme Wild Card 1,NonExtreme Wild Card 2,,date,expName,psychopyVersion,OS,frameRate,PROLIFIC_PID,STUDY_ID,SESSION_ID,mouse_2.x,mouse_2.y,mouse_2.leftButton,mouse_2.midButton,mouse_2.rightButton,mouse_2.clicked_name,Trial Type,Left Option Image,Right Option Image,Chosen Door,mouse.x,mouse.y,mouse.leftButton,mouse.midButton,mouse.rightButton,mouse.time,mouse.clicked_name,Feedback,Cumulative Reward,Block,trial.thisRepN,trial.thisTrialN,trial.thisN,trial.thisIndex,trial.ran,blocks.thisRepN,blocks.thisTrialN,blocks.thisN,blocks.thisIndex,blocks.ran,Money conversion,First Outcome Reported,Shown Door (First Outcome),Displayed Image (First Outcome),outcomes.thisRepN,outcomes.thisTrialN,outcomes.thisN,outcomes.thisIndex,outcomes.ran,judgments.thisRepN,judgments.thisTrialN,judgments.thisN,judgments.thisIndex,judgments.ran,freqMouse.x,freqMouse.y,freqMouse.leftButton,freqMouse.midButton,freqMouse.rightButton,freqMouse.clicked_name,FQJ for first outcome,FQJ for second outcome,Shown Door,Displayed Image,trials.thisRepN,trials.thisTrialN,trials.thisN,trials.thisIndex,trials.ran,judgBlock.thisRepN,judgBlock.thisTrialN,judgBlock.thisN,judgBlock.thisIndex,judgBlock.ran
2,resources/DBN.BMP,resources/DY.BMP,resources/DR.BMP,resources/DP.BMP,resources/DG.BMP,resources/DB.BMP,,2023-08-16_08h43.08.144,HF_wild_card,2022.2.4,MacIntel,59.99520038,5eadabbb7f633d08f25db536,64d2fd46c836a06233681665,64dc7df14ff8778d6642da32,,,,,,,,,,,,,,,,,,,,,,,,,,,,,,,,,,,,,,,,,,,,,,,,,,,,,,,,,,,,,,,,
,,,,,,,,2023-08-16_08h43.08.144,HF_wild_card,2022.2.4,MacIntel,59.99520038,5eadabbb7f633d08f25db536,64d2fd46c836a06233681665,64dc7df14ff8778d6642da32,0.015964593,-0.424634382,1,0,0,agree,,,,,,,,,,,,,,,,,,,,,,,,,,,,,,,,,,,,,,,,,,,,,,,,,,,,,,,,,,
,,,,,,,,2023-08-16_08h43.08.144,HF_wild_card,2022.2.4,MacIntel,59.99520038,5eadabbb7f633d08f25db536,64d2fd46c836a06233681665,64dc7df14ff8778d6642da32,,,,,,,,,,,,,,,,,,,,,,,,,,,,,,,,,,,,,,,,,,,,,,,,,,,,,,,,,,,,,,,,
,,,,,,,,2023-08-16_08h43.08.144,HF_wild_card,2022.2.4,MacIntel,59.99520038,5eadabbb7f633d08f25db536,64d2fd46c836a06233681665,64dc7df14ff8778d6642da32,,,,,,,decisionTrl,resources/DR.BMP,resources/DP.BMP,Door3,-0.399879032,-0.00820321,1,0,0,3.255,optionLeft,70,70,1,0,0,0,0,1,,,,,,,,,,,,,,,,,,,,,,,,,,,,,,,,,,,,,,,
,,,,,,,,2023-08-16_08h43.08.144,HF_wild_card,2022.2.4,MacIntel,59.99520038,5eadabbb7f633d08f25db536,64d2fd46c836a06233681665,64dc7df14ff8778d6642da32,,,,,,,decisionTrl,resources/DY.BMP,resources/DBN.BMP,Door2,-0.319959047,0.010838911,1,0,0,1.7492,optionLeft,40,110,1,1,0,1,0,1,,,,,,,,,,,,,,,,,,,,,,,,,,,,,,,,,,,,,,,
,,,,,,,,2023-08-16_08h43.08.144,HF_wild_card,2022.2.4,MacIntel,59.99520038,5eadabbb7f633d08f25db536,64d2fd46c836a06233681665,64dc7df14ff8778d6642da32,,,,,,,decisionTrl,resources/DBN.BMP,resources/DY.BMP,Door2,0.415828281,0.014031643,1,0,0,1.5487,optionRight,20,130,1,2,0,2,0,1,,,,,,,,,,,,,,,,,,,,,,,,,,,,,,,,,,,,,,,
,,,,,,,,2023-08-16_08h43.08.144,HF_wild_card,2022.2.4,MacIntel,59.99520038,5eadabbb7f633d08f25db536,64d2fd46c836a06233681665,64dc7df14ff8778d6642da32,,,,,,,ctch,resources/DP.BMP,resources/DBN.BMP,Door1,0.372882673,0.006161626,1,0,0,0.9626,optionRight,30,160,1,3,0,3,0,1,,,,,,,,,,,,,,,,,,,,,,,,,,,,,,,,,,,,,,,
,,,,,,,,2023-08-16_08h43.08.144,HF_wild_card,2022.2.4,MacIntel,59.99520038,5eadabbb7f633d08f25db536,64d2fd46c836a06233681665,64dc7df14ff8778d6642da32,,,,,,,decisionTrl,resources/DB.BMP,resources/DBN.BMP,WildCard_NonEx,-0.371370697,-0.028293228,1,0,0,1.8659,optionLeft,45,205,1,4,0,4,0,1,,,,,,,,,,,,,,,,,,,,,,,,,,,,,,,,,,,,,,,
,,,,,,,,2023-08-16_08h43.08.144,HF_wild_card,2022.2.4,MacIntel,59.99520038,5eadabbb7f633d08f25db536,64d2fd46c836a06233681665,64dc7df14ff8778d6642da32,,,,,,,decisionTrl,resources/DB.BMP,resources/DY.BMP,WildCard_NonEx,-0.374714237,-0.026895311,1,0,0,1.9151,optionLeft,45,250,1,5,0,5,0,1,,,,,,,,,,,,,,,,,,,,,,,,,,,,,,,,,,,,,,,
,,,,,,,,2023-08-16_08h43.08.144,HF_wild_card,2022.2.4,MacIntel,59.99520038,5eadabbb7f633d08f25db536,64d2fd46c836a06233681665,64dc7df14ff8778d6642da32,,,,,,,decisionTrl,resources/DP.BMP,resources/DR.BMP,Door4,-0.385323419,-0.010167101,1,0,0,1.7839,optionLeft,60,310,1,6,0,6,0,1,,,,,,,,,,,,,,,,,,,,,,,,,,,,,,,,,,,,,,,
,,,,,,,,2023-08-16_08h43.08.144,HF_wild_card,2022.2.4,MacIntel,59.99520038,5eadabbb7f633d08f25db536,64d2fd46c836a06233681665,64dc7df14ff8778d6642da32,,,,,,,decisionTrl,resources/DR.BMP,resources/DP.BMP,Door3,-0.390959718,-0.001581616,1,0,0,1.5657,optionLeft,70,380,1,7,0,7,0,1,,,,,,,,,,,,,,,,,,,,,,,,,,,,,,,,,,,,,,,
,,,,,,,,2023-08-16_08h43.08.144,HF_wild_card,2022.2.4,MacIntel,59.99520038,5eadabbb7f633d08f25db536,64d2fd46c836a06233681665,64dc7df14ff8778d6642da32,,,,,,,sngl,resources/Empty.png,resources/DB.BMP,WildCard_NonEx,0.391905806,0.018044959,1,0,0,1.4491,optionRight,45,425,1,8,0,8,0,1,,,,,,,,,,,,,,,,,,,,,,,,,,,,,,,,,,,,,,,
,,,,,,,,2023-08-16_08h43.08.144,HF_wild_card,2022.2.4,MacIntel,59.99520038,5eadabbb7f633d08f25db536,64d2fd46c836a06233681665,64dc7df14ff8778d6642da32,,,,,,,sngl,resources/DBN.BMP,resources/Empty.png,Door1,-0.400631756,0.045708932,1,0,0,1.3831,optionLeft,30,455,1,9,0,9,0,1,,,,,,,,,,,,,,,,,,,,,,,,,,,,,,,,,,,,,,,
,,,,,,,,2023-08-16_08h43.08.144,HF_wild_card,2022.2.4,MacIntel,59.99520038,5eadabbb7f633d08f25db536,64d2fd46c836a06233681665,64dc7df14ff8778d6642da32,,,,,,,decisionTrl,resources/DB.BMP,resources/DP.BMP,WildCard_NonEx,-0.407258648,0.008823225,1,0,0,2.4659,optionLeft,45,500,1,10,0,10,0,1,,,,,,,,,,,,,,,,,,,,,,,,,,,,,,,,,,,,,,,
,,,,,,,,2023-08-16_08h43.08.144,HF_wild_card,2022.2.4,MacIntel,59.99520038,5eadabbb7f633d08f25db536,64d2fd46c836a06233681665,64dc7df14ff8778d6642da32,,,,,,,sngl,resources/DP.BMP,resources/Empty.png,Door4,-0.402819231,-0.007103136,1,0,0,1.0981,optionLeft,80,580,1,11,0,11,0,1,,,,,,,,,,,,,,,,,,,,,,,,,,,,,,,,,,,,,,,
,,,,,,,,2023-08-16_08h43.08.144,HF_wild_card,2022.2.4,MacIntel,59.99520038,5eadabbb7f633d08f25db536,64d2fd46c836a06233681665,64dc7df14ff8778d6642da32,,,,,,,decisionTrl,resources/DP.BMP,resources/DR.BMP,Door4,-0.395345306,-0.011371062,1,0,0,0.8988,optionLeft,60,640,1,12,0,12,0,1,,,,,,,,,,,,,,,,,,,,,,,,,,,,,,,,,,,,,,,
,,,,,,,,2023-08-16_08h43.08.144,HF_wild_card,2022.2.4,MacIntel,59.99520038,5eadabbb7f633d08f25db536,64d2fd46c836a06233681665,64dc7df14ff8778d6642da32,,,,,,,decisionTrl,resources/DY.BMP,resources/DB.BMP,WildCard_NonEx,0.385864003,-0.0257331,1,0,0,3.4147,optionRight,45,685,1,13,0,13,0,1,,,,,,,,,,,,,,,,,,,,,,,,,,,,,,,,,,,,,,,
,,,,,,,,2023-08-16_08h43.08.144,HF_wild_card,2022.2.4,MacIntel,59.99520038,5eadabbb7f633d08f25db536,64d2fd46c836a06233681665,64dc7df14ff8778d6642da32,,,,,,,decisionTrl,resources/DB.BMP,resources/DR.BMP,Door3,0.372843679,-0.028543472,1,0,0,1.565,optionRight,70,755,1,14,0,14,0,1,,,,,,,,,,,,,,,,,,,,,,,,,,,,,,,,,,,,,,,
,,,,,,,,2023-08-16_08h43.08.144,HF_wild_card,2022.2.4,MacIntel,59.99520038,5eadabbb7f633d08f25db536,64d2fd46c836a06233681665,64dc7df14ff8778d6642da32,,,,,,,ctch,resources/DY.BMP,resources/DR.BMP,Door3,0.350576274,0.021424654,1,0,0,1.9651,optionRight,70,825,1,15,0,15,0,1,,,,,,,,,,,,,,,,,,,,,,,,,,,,,,,,,,,,,,,
,,,,,,,,2023-08-16_08h43.08.144,HF_wild_card,2022.2.4,MacIntel,59.99520038,5eadabbb7f633d08f25db536,64d2fd46c836a06233681665,64dc7df14ff8778d6642da32,,,,,,,ctch,resources/DBN.BMP,resources/DP.BMP,Door4,0.377782779,0.03658176,1,0,0,1.4826,optionRight,60,885,1,16,0,16,0,1,,,,,,,,,,,,,,,,,,,,,,,,,,,,,,,,,,,,,,,
,,,,,,,,2023-08-16_08h43.08.144,HF_wild_card,2022.2.4,MacIntel,59.99520038,5eadabbb7f633d08f25db536,64d2fd46c836a06233681665,64dc7df14ff8778d6642da32,,,,,,,decisionTrl,resources/DP.BMP,resources/DR.BMP,Door4,-0.412639787,-0.036193636,1,0,0,2.1829,optionLeft,60,945,1,17,0,17,0,1,,,,,,,,,,,,,,,,,,,,,,,,,,,,,,,,,,,,,,,
,,,,,,,,2023-08-16_08h43.08.144,HF_wild_card,2022.2.4,MacIntel,59.99520038,5eadabbb7f633d08f25db536,64d2fd46c836a06233681665,64dc7df14ff8778d6642da32,,,,,,,sngl,resources/Empty.png,resources/DY.BMP,Door2,0.404811944,0.031447093,1,0,0,0.9657,optionRight,20,965,1,18,0,18,0,1,,,,,,,,,,,,,,,,,,,,,,,,,,,,,,,,,,,,,,,
,,,,,,,,2023-08-16_08h43.08.144,HF_wild_card,2022.2.4,MacIntel,59.99520038,5eadabbb7f633d08f25db536,64d2fd46c836a06233681665,64dc7df14ff8778d6642da32,,,,,,,decisionTrl,resources/DBN.BMP,resources/DY.BMP,Door1,-0.449783071,-0.018335215,1,0,0,1.0818,optionLeft,30,995,1,19,0,19,0,1,,,,,,,,,,,,,,,,,,,,,,,,,,,,,,,,,,,,,,,
,,,,,,,,2023-08-16_08h43.08.144,HF_wild_card,2022.2.4,MacIntel,59.99520038,5eadabbb7f633d08f25db536,64d2fd46c836a06233681665,64dc7df14ff8778d6642da32,,,,,,,ctch,resources/DR.BMP,resources/DY.BMP,Door3,-0.39195883,-0.003776423,1,0,0,1.1135,optionLeft,70,1065,1,20,0,20,0,1,,,,,,,,,,,,,,,,,,,,,,,,,,,,,,,,,,,,,,,
,,,,,,,,2023-08-16_08h43.08.144,HF_wild_card,2022.2.4,MacIntel,59.99520038,5eadabbb7f633d08f25db536,64d2fd46c836a06233681665,64dc7df14ff8778d6642da32,,,,,,,decisionTrl,resources/DY.BMP,resources/DBN.BMP,Door1,0.409958818,0.009396829,1,0,0,1.7498,optionRight,30,1095,1,21,0,21,0,1,,,,,,,,,,,,,,,,,,,,,,,,,,,,,,,,,,,,,,,
,,,,,,,,2023-08-16_08h43.08.144,HF_wild_card,2022.2.4,MacIntel,59.99520038,5eadabbb7f633d08f25db536,64d2fd46c836a06233681665,64dc7df14ff8778d6642da32,,,,,,,decisionTrl,resources/DBN.BMP,resources/DY.BMP,Door1,-0.380089866,0.020516968,1,0,0,1.2317,optionLeft,30,1125,1,22,0,22,0,1,,,,,,,,,,,,,,,,,,,,,,,,,,,,,,,,,,,,,,,
,,,,,,,,2023-08-16_08h43.08.144,HF_wild_card,2022.2.4,MacIntel,59.99520038,5eadabbb7f633d08f25db536,64d2fd46c836a06233681665,64dc7df14ff8778d6642da32,,,,,,,sngl,resources/DB.BMP,resources/Empty.png,WildCard_NonEx,-0.368660567,0.005447896,1,0,0,0.8324,optionLeft,45,1170,1,23,0,23,0,1,,,,,,,,,,,,,,,,,,,,,,,,,,,,,,,,,,,,,,,
,,,,,,,,2023-08-16_08h43.08.144,HF_wild_card,2022.2.4,MacIntel,59.99520038,5eadabbb7f633d08f25db536,64d2fd46c836a06233681665,64dc7df14ff8778d6642da32,,,,,,,decisionTrl,resources/DR.BMP,resources/DB.BMP,Door3,-0.360946994,-0.000569577,1,0,0,1.0321,optionLeft,70,1240,1,24,0,24,0,1,,,,,,,,,,,,,,,,,,,,,,,,,,,,,,,,,,,,,,,
,,,,,,,,2023-08-16_08h43.08.144,HF_wild_card,2022.2.4,MacIntel,59.99520038,5eadabbb7f633d08f25db536,64d2fd46c836a06233681665,64dc7df14ff8778d6642da32,,,,,,,decisionTrl,resources/DBN.BMP,resources/DB.BMP,WildCard_NonEx,0.331513045,-0.017749193,1,0,0,3.1663,optionRight,55,1295,1,25,0,25,0,1,,,,,,,,,,,,,,,,,,,,,,,,,,,,,,,,,,,,,,,
,,,,,,,,2023-08-16_08h43.08.144,HF_wild_card,2022.2.4,MacIntel,59.99520038,5eadabbb7f633d08f25db536,64d2fd46c836a06233681665,64dc7df14ff8778d6642da32,,,,,,,sngl,resources/DR.BMP,resources/Empty.png,Door3,-0.458278529,-0.000209808,1,0,0,1.2836,optionLeft,70,1365,1,26,0,26,0,1,,,,,,,,,,,,,,,,,,,,,,,,,,,,,,,,,,,,,,,
,,,,,,,,2023-08-16_08h43.08.144,HF_wild_card,2022.2.4,MacIntel,59.99520038,5eadabbb7f633d08f25db536,64d2fd46c836a06233681665,64dc7df14ff8778d6642da32,,,,,,,decisionTrl,resources/DR.BMP,resources/DP.BMP,Door4,0.266277483,0.010918427,1,0,0,1.1824,optionRight,60,1425,1,27,0,27,0,1,,,,,,,,,,,,,,,,,,,,,,,,,,,,,,,,,,,,,,,
,,,,,,,,2023-08-16_08h43.08.144,HF_wild_card,2022.2.4,MacIntel,59.99520038,5eadabbb7f633d08f25db536,64d2fd46c836a06233681665,64dc7df14ff8778d6642da32,,,,,,,decisionTrl,resources/DP.BMP,resources/DB.BMP,Door4,-0.371196832,0.004070155,1,0,0,1.5176,optionLeft,60,1485,1,28,0,28,0,1,,,,,,,,,,,,,,,,,,,,,,,,,,,,,,,,,,,,,,,
,,,,,,,,2023-08-16_08h43.08.144,HF_wild_card,2022.2.4,MacIntel,59.99520038,5eadabbb7f633d08f25db536,64d2fd46c836a06233681665,64dc7df14ff8778d6642da32,,,,,,,ctch,resources/DBN.BMP,resources/DP.BMP,Door4,0.369976976,0.005912526,1,0,0,1.1466,optionRight,60,1545,1,29,0,29,0,1,,,,,,,,,,,,,,,,,,,,,,,,,,,,,,,,,,,,,,,
,,,,,,,,2023-08-16_08h43.08.144,HF_wild_card,2022.2.4,MacIntel,59.99520038,5eadabbb7f633d08f25db536,64d2fd46c836a06233681665,64dc7df14ff8778d6642da32,,,,,,,decisionTrl,resources/DY.BMP,resources/DBN.BMP,Door1,0.434641181,0.044816759,1,0,0,1.2489,optionRight,30,1575,1,30,0,30,0,1,,,,,,,,,,,,,,,,,,,,,,,,,,,,,,,,,,,,,,,
,,,,,,,,2023-08-16_08h43.08.144,HF_wild_card,2022.2.4,MacIntel,59.99520038,5eadabbb7f633d08f25db536,64d2fd46c836a06233681665,64dc7df14ff8778d6642da32,,,,,,,sngl,resources/DY.BMP,resources/Empty.png,Door2,-0.374190564,0.055553903,1,0,0,0.6842,optionLeft,40,1615,1,31,0,31,0,1,,,,,,,,,,,,,,,,,,,,,,,,,,,,,,,,,,,,,,,
,,,,,,,,2023-08-16_08h43.08.144,HF_wild_card,2022.2.4,MacIntel,59.99520038,5eadabbb7f633d08f25db536,64d2fd46c836a06233681665,64dc7df14ff8778d6642da32,,,,,,,decisionTrl,resources/DR.BMP,resources/DP.BMP,Door4,0.319190216,0.03896976,1,0,0,1.7326,optionRight,60,1675,1,32,0,32,0,1,,,,,,,,,,,,,,,,,,,,,,,,,,,,,,,,,,,,,,,
,,,,,,,,2023-08-16_08h43.08.144,HF_wild_card,2022.2.4,MacIntel,59.99520038,5eadabbb7f633d08f25db536,64d2fd46c836a06233681665,64dc7df14ff8778d6642da32,,,,,,,decisionTrl,resources/DY.BMP,resources/DBN.BMP,Door2,-0.364592912,0.014751985,1,0,0,1.3821,optionLeft,40,1715,1,33,0,33,0,1,,,,,,,,,,,,,,,,,,,,,,,,,,,,,,,,,,,,,,,
,,,,,,,,2023-08-16_08h43.08.144,HF_wild_card,2022.2.4,MacIntel,59.99520038,5eadabbb7f633d08f25db536,64d2fd46c836a06233681665,64dc7df14ff8778d6642da32,,,,,,,sngl,resources/DB.BMP,resources/Empty.png,WildCard_NonEx,-0.314519586,0.045783742,1,0,0,0.8668,optionLeft,55,1770,1,34,0,34,0,1,,,,,,,,,,,,,,,,,,,,,,,,,,,,,,,,,,,,,,,
,,,,,,,,2023-08-16_08h43.08.144,HF_wild_card,2022.2.4,MacIntel,59.99520038,5eadabbb7f633d08f25db536,64d2fd46c836a06233681665,64dc7df14ff8778d6642da32,,,,,,,sngl,resources/Empty.png,resources/DP.BMP,Door4,0.414685059,0.059547636,1,0,0,0.7645,optionRight,60,1830,1,35,0,35,0,1,,,,,,,,,,,,,,,,,,,,,,,,,,,,,,,,,,,,,,,
,,,,,,,,2023-08-16_08h43.08.144,HF_wild_card,2022.2.4,MacIntel,59.99520038,5eadabbb7f633d08f25db536,64d2fd46c836a06233681665,64dc7df14ff8778d6642da32,,,,,,,sngl,resources/Empty.png,resources/DBN.BMP,Door1,0.403255208,0.076220661,1,0,0,0.9665,optionRight,30,1860,1,36,0,36,0,1,,,,,,,,,,,,,,,,,,,,,,,,,,,,,,,,,,,,,,,
,,,,,,,,2023-08-16_08h43.08.144,HF_wild_card,2022.2.4,MacIntel,59.99520038,5eadabbb7f633d08f25db536,64d2fd46c836a06233681665,64dc7df14ff8778d6642da32,,,,,,,sngl,resources/Empty.png,resources/DB.BMP,WildCard_NonEx,0.385324521,0.01726532,1,0,0,0.9987,optionRight,55,1915,1,37,0,37,0,1,,,,,,,,,,,,,,,,,,,,,,,,,,,,,,,,,,,,,,,
,,,,,,,,2023-08-16_08h43.08.144,HF_wild_card,2022.2.4,MacIntel,59.99520038,5eadabbb7f633d08f25db536,64d2fd46c836a06233681665,64dc7df14ff8778d6642da32,,,,,,,decisionTrl,resources/DP.BMP,resources/DR.BMP,Door3,0.45289561,0.025145679,1,0,0,2.134,optionRight,70,1985,1,38,0,38,0,1,,,,,,,,,,,,,,,,,,,,,,,,,,,,,,,,,,,,,,,
,,,,,,,,2023-08-16_08h43.08.144,HF_wild_card,2022.2.4,MacIntel,59.99520038,5eadabbb7f633d08f25db536,64d2fd46c836a06233681665,64dc7df14ff8778d6642da32,,,,,,,sngl,resources/Empty.png,resources/DR.BMP,Door3,0.439834256,0.066686588,1,0,0,0.6658,optionRight,70,2055,1,39,0,39,0,1,,,,,,,,,,,,,,,,,,,,,,,,,,,,,,,,,,,,,,,
,,,,,,,,2023-08-16_08h43.08.144,HF_wild_card,2022.2.4,MacIntel,59.99520038,5eadabbb7f633d08f25db536,64d2fd46c836a06233681665,64dc7df14ff8778d6642da32,,,,,,,ctch,resources/DP.BMP,resources/DBN.BMP,Door4,-0.330981572,0.050466622,1,0,0,1.401,optionLeft,60,2115,1,40,0,40,0,1,,,,,,,,,,,,,,,,,,,,,,,,,,,,,,,,,,,,,,,
,,,,,,,,2023-08-16_08h43.08.144,HF_wild_card,2022.2.4,MacIntel,59.99520038,5eadabbb7f633d08f25db536,64d2fd46c836a06233681665,64dc7df14ff8778d6642da32,,,,,,,ctch,resources/DY.BMP,resources/DR.BMP,Door3,0.538399082,-0.030452898,1,0,0,1.0982,optionRight,70,2185,1,41,0,41,0,1,,,,,,,,,,,,,,,,,,,,,,,,,,,,,,,,,,,,,,,
,,,,,,,,2023-08-16_08h43.08.144,HF_wild_card,2022.2.4,MacIntel,59.99520038,5eadabbb7f633d08f25db536,64d2fd46c836a06233681665,64dc7df14ff8778d6642da32,,,,,,,decisionTrl,resources/DBN.BMP,resources/DY.BMP,Door2,0.293358527,0.014630339,1,0,0,1.0518,optionRight,40,2225,1,42,0,42,0,1,,,,,,,,,,,,,,,,,,,,,,,,,,,,,,,,,,,,,,,
,,,,,,,,2023-08-16_08h43.08.144,HF_wild_card,2022.2.4,MacIntel,59.99520038,5eadabbb7f633d08f25db536,64d2fd46c836a06233681665,64dc7df14ff8778d6642da32,,,,,,,ctch,resources/DR.BMP,resources/DY.BMP,Door3,-0.412796317,-0.01272388,1,0,0,1.0491,optionLeft,70,2295,1,43,0,43,0,1,,,,,,,,,,,,,,,,,,,,,,,,,,,,,,,,,,,,,,,
,,,,,,,,2023-08-16_08h43.08.144,HF_wild_card,2022.2.4,MacIntel,59.99520038,5eadabbb7f633d08f25db536,64d2fd46c836a06233681665,64dc7df14ff8778d6642da32,,,,,,,,,,,,,,,,,,,,,,,,,,0,0,0,0,1,,,,,,,,,,,,,,,,,,,,,,,,,,,,,,,,,,
,,,,,,,,2023-08-16_08h43.08.144,HF_wild_card,2022.2.4,MacIntel,59.99520038,5eadabbb7f633d08f25db536,64d2fd46c836a06233681665,64dc7df14ff8778d6642da32,,,,,,,ctch,resources/DBN.BMP,resources/DP.BMP,Door4,0.360412852,-0.008267042,1,0,0,1.2419,optionRight,60,2355,2,0,0,0,0,1,,,,,,,,,,,,,,,,,,,,,,,,,,,,,,,,,,,,,,,
,,,,,,,,2023-08-16_08h43.08.144,HF_wild_card,2022.2.4,MacIntel,59.99520038,5eadabbb7f633d08f25db536,64d2fd46c836a06233681665,64dc7df14ff8778d6642da32,,,,,,,sngl,resources/DBN.BMP,resources/Empty.png,Door1,-0.403341336,0.016171434,1,0,0,3.1326,optionLeft,30,2385,2,1,0,1,0,1,,,,,,,,,,,,,,,,,,,,,,,,,,,,,,,,,,,,,,,
,,,,,,,,2023-08-16_08h43.08.144,HF_wild_card,2022.2.4,MacIntel,59.99520038,5eadabbb7f633d08f25db536,64d2fd46c836a06233681665,64dc7df14ff8778d6642da32,,,,,,,decisionTrl,resources/DR.BMP,resources/DP.BMP,Door3,-0.448778831,-0.011372969,1,0,0,1.4974,optionLeft,70,2455,2,2,0,2,0,1,,,,,,,,,,,,,,,,,,,,,,,,,,,,,,,,,,,,,,,
,,,,,,,,2023-08-16_08h43.08.144,HF_wild_card,2022.2.4,MacIntel,59.99520038,5eadabbb7f633d08f25db536,64d2fd46c836a06233681665,64dc7df14ff8778d6642da32,,,,,,,ctch,resources/DP.BMP,resources/DBN.BMP,Door4,-0.313192156,-0.015964508,1,0,0,1.1154,optionLeft,60,2515,2,3,0,3,0,1,,,,,,,,,,,,,,,,,,,,,,,,,,,,,,,,,,,,,,,
,,,,,,,,2023-08-16_08h43.08.144,HF_wild_card,2022.2.4,MacIntel,59.99520038,5eadabbb7f633d08f25db536,64d2fd46c836a06233681665,64dc7df14ff8778d6642da32,,,,,,,decisionTrl,resources/DBN.BMP,resources/DY.BMP,Door2,0.313905504,-0.023900519,1,0,0,1.0671,optionRight,40,2555,2,4,0,4,0,1,,,,,,,,,,,,,,,,,,,,,,,,,,,,,,,,,,,,,,,
,,,,,,,,2023-08-16_08h43.08.144,HF_wild_card,2022.2.4,MacIntel,59.99520038,5eadabbb7f633d08f25db536,64d2fd46c836a06233681665,64dc7df14ff8778d6642da32,,,,,,,decisionTrl,resources/DY.BMP,resources/DBN.BMP,Door2,-0.42854788,-0.031267717,1,0,0,1.0315,optionLeft,40,2595,2,5,0,5,0,1,,,,,,,,,,,,,,,,,,,,,,,,,,,,,,,,,,,,,,,
,,,,,,,,2023-08-16_08h43.08.144,HF_wild_card,2022.2.4,MacIntel,59.99520038,5eadabbb7f633d08f25db536,64d2fd46c836a06233681665,64dc7df14ff8778d6642da32,,,,,,,decisionTrl,resources/DP.BMP,resources/DR.BMP,Door3,0.323913659,-0.0377029,1,0,0,1.7008,optionRight,70,2665,2,6,0,6,0,1,,,,,,,,,,,,,,,,,,,,,,,,,,,,,,,,,,,,,,,
,,,,,,,,2023-08-16_08h43.08.144,HF_wild_card,2022.2.4,MacIntel,59.99520038,5eadabbb7f633d08f25db536,64d2fd46c836a06233681665,64dc7df14ff8778d6642da32,,,,,,,decisionTrl,resources/DR.BMP,resources/DP.BMP,Door3,-0.436794154,-0.037303628,1,0,0,0.8344,optionLeft,70,2735,2,7,0,7,0,1,,,,,,,,,,,,,,,,,,,,,,,,,,,,,,,,,,,,,,,
,,,,,,,,2023-08-16_08h43.08.144,HF_wild_card,2022.2.4,MacIntel,59.99520038,5eadabbb7f633d08f25db536,64d2fd46c836a06233681665,64dc7df14ff8778d6642da32,,,,,,,sngl,resources/Empty.png,resources/DP.BMP,Door4,0.400720384,-0.023188867,1,0,0,0.6818,optionRight,80,2815,2,8,0,8,0,1,,,,,,,,,,,,,,,,,,,,,,,,,,,,,,,,,,,,,,,
,,,,,,,,2023-08-16_08h43.08.144,HF_wild_card,2022.2.4,MacIntel,59.99520038,5eadabbb7f633d08f25db536,64d2fd46c836a06233681665,64dc7df14ff8778d6642da32,,,,,,,decisionTrl,resources/DP.BMP,resources/DR.BMP,Door4,-0.288732571,-0.03353352,1,0,0,0.5985,optionLeft,60,2875,2,9,0,9,0,1,,,,,,,,,,,,,,,,,,,,,,,,,,,,,,,,,,,,,,,
,,,,,,,,2023-08-16_08h43.08.144,HF_wild_card,2022.2.4,MacIntel,59.99520038,5eadabbb7f633d08f25db536,64d2fd46c836a06233681665,64dc7df14ff8778d6642da32,,,,,,,ctch,resources/DBN.BMP,resources/DP.BMP,Door4,0.365530735,0.020226924,1,0,0,0.8981,optionRight,80,2955,2,10,0,10,0,1,,,,,,,,,,,,,,,,,,,,,,,,,,,,,,,,,,,,,,,
,,,,,,,,2023-08-16_08h43.08.144,HF_wild_card,2022.2.4,MacIntel,59.99520038,5eadabbb7f633d08f25db536,64d2fd46c836a06233681665,64dc7df14ff8778d6642da32,,,,,,,decisionTrl,resources/DR.BMP,resources/DB.BMP,Door3,-0.364415105,-0.030549452,1,0,0,1.0987,optionLeft,70,3025,2,11,0,11,0,1,,,,,,,,,,,,,,,,,,,,,,,,,,,,,,,,,,,,,,,
,,,,,,,,2023-08-16_08h43.08.144,HF_wild_card,2022.2.4,MacIntel,59.99520038,5eadabbb7f633d08f25db536,64d2fd46c836a06233681665,64dc7df14ff8778d6642da32,,,,,,,ctch,resources/DP.BMP,resources/DBN.BMP,Door4,-0.408558061,-0.033783383,1,0,0,0.8169,optionLeft,60,3085,2,12,0,12,0,1,,,,,,,,,,,,,,,,,,,,,,,,,,,,,,,,,,,,,,,
,,,,,,,,2023-08-16_08h43.08.144,HF_wild_card,2022.2.4,MacIntel,59.99520038,5eadabbb7f633d08f25db536,64d2fd46c836a06233681665,64dc7df14ff8778d6642da32,,,,,,,ctch,resources/DY.BMP,resources/DR.BMP,Door3,0.41435513,-0.000367567,1,0,0,1.1148,optionRight,70,3155,2,13,0,13,0,1,,,,,,,,,,,,,,,,,,,,,,,,,,,,,,,,,,,,,,,
,,,,,,,,2023-08-16_08h43.08.144,HF_wild_card,2022.2.4,MacIntel,59.99520038,5eadabbb7f633d08f25db536,64d2fd46c836a06233681665,64dc7df14ff8778d6642da32,,,,,,,decisionTrl,resources/DY.BMP,resources/DBN.BMP,Door2,-0.320489163,-0.017774497,1,0,0,0.9492,optionLeft,40,3195,2,14,0,14,0,1,,,,,,,,,,,,,,,,,,,,,,,,,,,,,,,,,,,,,,,
,,,,,,,,2023-08-16_08h43.08.144,HF_wild_card,2022.2.4,MacIntel,59.99520038,5eadabbb7f633d08f25db536,64d2fd46c836a06233681665,64dc7df14ff8778d6642da32,,,,,,,ctch,resources/DR.BMP,resources/DY.BMP,Door3,-0.380421914,-0.011342282,1,0,0,0.9487,optionLeft,70,3265,2,15,0,15,0,1,,,,,,,,,,,,,,,,,,,,,,,,,,,,,,,,,,,,,,,
,,,,,,,,2023-08-16_08h43.08.144,HF_wild_card,2022.2.4,MacIntel,59.99520038,5eadabbb7f633d08f25db536,64d2fd46c836a06233681665,64dc7df14ff8778d6642da32,,,,,,,decisionTrl,resources/DP.BMP,resources/DR.BMP,Door3,0.42395952,0.004876879,1,0,0,0.9981,optionRight,70,3335,2,16,0,16,0,1,,,,,,,,,,,,,,,,,,,,,,,,,,,,,,,,,,,,,,,
,,,,,,,,2023-08-16_08h43.08.144,HF_wild_card,2022.2.4,MacIntel,59.99520038,5eadabbb7f633d08f25db536,64d2fd46c836a06233681665,64dc7df14ff8778d6642da32,,,,,,,sngl,resources/DB.BMP,resources/Empty.png,WildCard_NonEx,-0.393935564,-0.026735094,1,0,0,0.814,optionLeft,55,3390,2,17,0,17,0,1,,,,,,,,,,,,,,,,,,,,,,,,,,,,,,,,,,,,,,,
,,,,,,,,2023-08-16_08h43.08.144,HF_wild_card,2022.2.4,MacIntel,59.99520038,5eadabbb7f633d08f25db536,64d2fd46c836a06233681665,64dc7df14ff8778d6642da32,,,,,,,decisionTrl,resources/DBN.BMP,resources/DY.BMP,Door2,0.405686442,0.004732047,1,0,0,0.782,optionRight,40,3430,2,18,0,18,0,1,,,,,,,,,,,,,,,,,,,,,,,,,,,,,,,,,,,,,,,
,,,,,,,,2023-08-16_08h43.08.144,HF_wild_card,2022.2.4,MacIntel,59.99520038,5eadabbb7f633d08f25db536,64d2fd46c836a06233681665,64dc7df14ff8778d6642da32,,,,,,,decisionTrl,resources/DBN.BMP,resources/DY.BMP,Door2,0.421954176,-0.004044596,1,0,0,0.568,optionRight,40,3470,2,19,0,19,0,1,,,,,,,,,,,,,,,,,,,,,,,,,,,,,,,,,,,,,,,
,,,,,,,,2023-08-16_08h43.08.144,HF_wild_card,2022.2.4,MacIntel,59.99520038,5eadabbb7f633d08f25db536,64d2fd46c836a06233681665,64dc7df14ff8778d6642da32,,,,,,,sngl,resources/Empty.png,resources/DB.BMP,WildCard_NonEx,0.383333249,-0.011145189,1,0,0,0.6147,optionRight,55,3525,2,20,0,20,0,1,,,,,,,,,,,,,,,,,,,,,,,,,,,,,,,,,,,,,,,
,,,,,,,,2023-08-16_08h43.08.144,HF_wild_card,2022.2.4,MacIntel,59.99520038,5eadabbb7f633d08f25db536,64d2fd46c836a06233681665,64dc7df14ff8778d6642da32,,,,,,,decisionTrl,resources/DR.BMP,resources/DP.BMP,Door3,-0.347664854,-0.029566023,1,0,0,1.5804,optionLeft,70,3595,2,21,0,21,0,1,,,,,,,,,,,,,,,,,,,,,,,,,,,,,,,,,,,,,,,
,,,,,,,,2023-08-16_08h43.08.144,HF_wild_card,2022.2.4,MacIntel,59.99520038,5eadabbb7f633d08f25db536,64d2fd46c836a06233681665,64dc7df14ff8778d6642da32,,,,,,,decisionTrl,resources/DB.BMP,resources/DR.BMP,Door3,0.356811439,-0.010285017,1,0,0,0.799,optionRight,70,3665,2,22,0,22,0,1,,,,,,,,,,,,,,,,,,,,,,,,,,,,,,,,,,,,,,,
,,,,,,,,2023-08-16_08h43.08.144,HF_wild_card,2022.2.4,MacIntel,59.99520038,5eadabbb7f633d08f25db536,64d2fd46c836a06233681665,64dc7df14ff8778d6642da32,,,,,,,decisionTrl,resources/DB.BMP,resources/DY.BMP,WildCard_NonEx,-0.408651182,-0.001694065,1,0,0,2.6647,optionLeft,45,3710,2,23,0,23,0,1,,,,,,,,,,,,,,,,,,,,,,,,,,,,,,,,,,,,,,,
,,,,,,,,2023-08-16_08h43.08.144,HF_wild_card,2022.2.4,MacIntel,59.99520038,5eadabbb7f633d08f25db536,64d2fd46c836a06233681665,64dc7df14ff8778d6642da32,,,,,,,sngl,resources/DP.BMP,resources/Empty.png,Door4,-0.314036687,0.002246602,1,0,0,0.5647,optionLeft,60,3770,2,24,0,24,0,1,,,,,,,,,,,,,,,,,,,,,,,,,,,,,,,,,,,,,,,
,,,,,,,,2023-08-16_08h43.08.144,HF_wild_card,2022.2.4,MacIntel,59.99520038,5eadabbb7f633d08f25db536,64d2fd46c836a06233681665,64dc7df14ff8778d6642da32,,,,,,,decisionTrl,resources/DR.BMP,resources/DP.BMP,Door3,-0.360096105,0.003202947,1,0,0,0.7154,optionLeft,70,3840,2,25,0,25,0,1,,,,,,,,,,,,,,,,,,,,,,,,,,,,,,,,,,,,,,,
,,,,,,,,2023-08-16_08h43.08.144,HF_wild_card,2022.2.4,MacIntel,59.99520038,5eadabbb7f633d08f25db536,64d2fd46c836a06233681665,64dc7df14ff8778d6642da32,,,,,,,decisionTrl,resources/DP.BMP,resources/DR.BMP,Door3,0.297834778,0.000849575,1,0,0,0.9494,optionRight,70,3910,2,26,0,26,0,1,,,,,,,,,,,,,,,,,,,,,,,,,,,,,,,,,,,,,,,
,,,,,,,,2023-08-16_08h43.08.144,HF_wild_card,2022.2.4,MacIntel,59.99520038,5eadabbb7f633d08f25db536,64d2fd46c836a06233681665,64dc7df14ff8778d6642da32,,,,,,,sngl,resources/Empty.png,resources/DBN.BMP,Door1,0.211280992,0.026897812,1,0,0,0.9306,optionRight,30,3940,2,27,0,27,0,1,,,,,,,,,,,,,,,,,,,,,,,,,,,,,,,,,,,,,,,
,,,,,,,,2023-08-16_08h43.08.144,HF_wild_card,2022.2.4,MacIntel,59.99520038,5eadabbb7f633d08f25db536,64d2fd46c836a06233681665,64dc7df14ff8778d6642da32,,,,,,,decisionTrl,resources/DY.BMP,resources/DB.BMP,WildCard_NonEx,0.323717075,0.025337262,1,0,0,1.3818,optionRight,55,3995,2,28,0,28,0,1,,,,,,,,,,,,,,,,,,,,,,,,,,,,,,,,,,,,,,,
,,,,,,,,2023-08-16_08h43.08.144,HF_wild_card,2022.2.4,MacIntel,59.99520038,5eadabbb7f633d08f25db536,64d2fd46c836a06233681665,64dc7df14ff8778d6642da32,,,,,,,sngl,resources/Empty.png,resources/DY.BMP,Door2,0.288775465,0.035218938,1,0,0,0.6146,optionRight,40,4035,2,29,0,29,0,1,,,,,,,,,,,,,,,,,,,,,,,,,,,,,,,,,,,,,,,
,,,,,,,,2023-08-16_08h43.08.144,HF_wild_card,2022.2.4,MacIntel,59.99520038,5eadabbb7f633d08f25db536,64d2fd46c836a06233681665,64dc7df14ff8778d6642da32,,,,,,,decisionTrl,resources/DY.BMP,resources/DBN.BMP,Door2,-0.302784687,0.010916646,1,0,0,0.7831,optionLeft,40,4075,2,30,0,30,0,1,,,,,,,,,,,,,,,,,,,,,,,,,,,,,,,,,,,,,,,
,,,,,,,,2023-08-16_08h43.08.144,HF_wild_card,2022.2.4,MacIntel,59.99520038,5eadabbb7f633d08f25db536,64d2fd46c836a06233681665,64dc7df14ff8778d6642da32,,,,,,,sngl,resources/DB.BMP,resources/Empty.png,WildCard_NonEx,-0.353302044,0.025326157,1,0,0,0.5837,optionLeft,45,4120,2,31,0,31,0,1,,,,,,,,,,,,,,,,,,,,,,,,,,,,,,,,,,,,,,,
,,,,,,,,2023-08-16_08h43.08.144,HF_wild_card,2022.2.4,MacIntel,59.99520038,5eadabbb7f633d08f25db536,64d2fd46c836a06233681665,64dc7df14ff8778d6642da32,,,,,,,decisionTrl,resources/DBN.BMP,resources/DY.BMP,Door2,0.454737176,0.020155419,1,0,0,0.6654,optionRight,20,4140,2,32,0,32,0,1,,,,,,,,,,,,,,,,,,,,,,,,,,,,,,,,,,,,,,,
,,,,,,,,2023-08-16_08h43.08.144,HF_wild_card,2022.2.4,MacIntel,59.99520038,5eadabbb7f633d08f25db536,64d2fd46c836a06233681665,64dc7df14ff8778d6642da32,,,,,,,sngl,resources/DR.BMP,resources/Empty.png,Door3,-0.298343955,0.013104036,1,0,0,0.582,optionLeft,70,4210,2,33,0,33,0,1,,,,,,,,,,,,,,,,,,,,,,,,,,,,,,,,,,,,,,,
,,,,,,,,2023-08-16_08h43.08.144,HF_wild_card,2022.2.4,MacIntel,59.99520038,5eadabbb7f633d08f25db536,64d2fd46c836a06233681665,64dc7df14ff8778d6642da32,,,,,,,decisionTrl,resources/DBN.BMP,resources/DB.BMP,WildCard_NonEx,0.424119737,0.027510071,1,0,0,0.715,optionRight,45,4255,2,34,0,34,0,1,,,,,,,,,,,,,,,,,,,,,,,,,,,,,,,,,,,,,,,
,,,,,,,,2023-08-16_08h43.08.144,HF_wild_card,2022.2.4,MacIntel,59.99520038,5eadabbb7f633d08f25db536,64d2fd46c836a06233681665,64dc7df14ff8778d6642da32,,,,,,,sngl,resources/Empty.png,resources/DR.BMP,Door3,0.406939189,0.021691216,1,0,0,0.5488,optionRight,70,4325,2,35,0,35,0,1,,,,,,,,,,,,,,,,,,,,,,,,,,,,,,,,,,,,,,,
,,,,,,,,2023-08-16_08h43.08.144,HF_wild_card,2022.2.4,MacIntel,59.99520038,5eadabbb7f633d08f25db536,64d2fd46c836a06233681665,64dc7df14ff8778d6642da32,,,,,,,ctch,resources/DR.BMP,resources/DY.BMP,Door3,-0.251398849,0.00702006,1,0,0,0.8156,optionLeft,70,4395,2,36,0,36,0,1,,,,,,,,,,,,,,,,,,,,,,,,,,,,,,,,,,,,,,,
,,,,,,,,2023-08-16_08h43.08.144,HF_wild_card,2022.2.4,MacIntel,59.99520038,5eadabbb7f633d08f25db536,64d2fd46c836a06233681665,64dc7df14ff8778d6642da32,,,,,,,decisionTrl,resources/DB.BMP,resources/DP.BMP,Door4,0.431965383,0.015224965,1,0,0,1.4326,optionRight,60,4455,2,37,0,37,0,1,,,,,,,,,,,,,,,,,,,,,,,,,,,,,,,,,,,,,,,
,,,,,,,,2023-08-16_08h43.08.144,HF_wild_card,2022.2.4,MacIntel,59.99520038,5eadabbb7f633d08f25db536,64d2fd46c836a06233681665,64dc7df14ff8778d6642da32,,,,,,,decisionTrl,resources/DB.BMP,resources/DBN.BMP,WildCard_NonEx,-0.34621137,0.002777269,1,0,0,0.8817,optionLeft,45,4500,2,38,0,38,0,1,,,,,,,,,,,,,,,,,,,,,,,,,,,,,,,,,,,,,,,
,,,,,,,,2023-08-16_08h43.08.144,HF_wild_card,2022.2.4,MacIntel,59.99520038,5eadabbb7f633d08f25db536,64d2fd46c836a06233681665,64dc7df14ff8778d6642da32,,,,,,,sngl,resources/DY.BMP,resources/Empty.png,Door2,-0.279365328,0.008467738,1,0,0,0.8003,optionLeft,20,4520,2,39,0,39,0,1,,,,,,,,,,,,,,,,,,,,,,,,,,,,,,,,,,,,,,,
,,,,,,,,2023-08-16_08h43.08.144,HF_wild_card,2022.2.4,MacIntel,59.99520038,5eadabbb7f633d08f25db536,64d2fd46c836a06233681665,64dc7df14ff8778d6642da32,,,,,,,decisionTrl,resources/DY.BMP,resources/DBN.BMP,Door1,0.425164371,0.013621987,1,0,0,0.5506,optionRight,30,4550,2,40,0,40,0,1,,,,,,,,,,,,,,,,,,,,,,,,,,,,,,,,,,,,,,,
,,,,,,,,2023-08-16_08h43.08.144,HF_wild_card,2022.2.4,MacIntel,59.99520038,5eadabbb7f633d08f25db536,64d2fd46c836a06233681665,64dc7df14ff8778d6642da32,,,,,,,ctch,resources/DY.BMP,resources/DR.BMP,Door3,0.404068756,0.001682578,1,0,0,0.8531,optionRight,70,4620,2,41,0,41,0,1,,,,,,,,,,,,,,,,,,,,,,,,,,,,,,,,,,,,,,,
,,,,,,,,2023-08-16_08h43.08.144,HF_wild_card,2022.2.4,MacIntel,59.99520038,5eadabbb7f633d08f25db536,64d2fd46c836a06233681665,64dc7df14ff8778d6642da32,,,,,,,decisionTrl,resources/DP.BMP,resources/DB.BMP,Door4,-0.300043191,0.014226829,1,0,0,0.6839,optionLeft,60,4680,2,42,0,42,0,1,,,,,,,,,,,,,,,,,,,,,,,,,,,,,,,,,,,,,,,
,,,,,,,,2023-08-16_08h43.08.144,HF_wild_card,2022.2.4,MacIntel,59.99520038,5eadabbb7f633d08f25db536,64d2fd46c836a06233681665,64dc7df14ff8778d6642da32,,,,,,,sngl,resources/Empty.png,resources/DB.BMP,WildCard_NonEx,0.382789781,0.014916144,1,0,0,0.4836,optionRight,45,4725,2,43,0,43,0,1,,,,,,,,,,,,,,,,,,,,,,,,,,,,,,,,,,,,,,,
,,,,,,,,2023-08-16_08h43.08.144,HF_wild_card,2022.2.4,MacIntel,59.99520038,5eadabbb7f633d08f25db536,64d2fd46c836a06233681665,64dc7df14ff8778d6642da32,,,,,,,,,,,,,,,,,,,,,,,,,,1,0,1,0,1,,,,,,,,,,,,,,,,,,,,,,,,,,,,,,,,,,
,,,,,,,,2023-08-16_08h43.08.144,HF_wild_card,2022.2.4,MacIntel,59.99520038,5eadabbb7f633d08f25db536,64d2fd46c836a06233681665,64dc7df14ff8778d6642da32,,,,,,,ctch,resources/DR.BMP,resources/DY.BMP,Door3,-0.336996375,-0.077845891,1,0,0,1.2781,optionLeft,70,4795,3,0,0,0,0,1,,,,,,,,,,,,,,,,,,,,,,,,,,,,,,,,,,,,,,,
,,,,,,,,2023-08-16_08h43.08.144,HF_wild_card,2022.2.4,MacIntel,59.99520038,5eadabbb7f633d08f25db536,64d2fd46c836a06233681665,64dc7df14ff8778d6642da32,,,,,,,sngl,resources/Empty.png,resources/DB.BMP,WildCard_NonEx,0.354230414,0.014064577,1,0,0,0.8315,optionRight,55,4850,3,1,0,1,0,1,,,,,,,,,,,,,,,,,,,,,,,,,,,,,,,,,,,,,,,
,,,,,,,,2023-08-16_08h43.08.144,HF_wild_card,2022.2.4,MacIntel,59.99520038,5eadabbb7f633d08f25db536,64d2fd46c836a06233681665,64dc7df14ff8778d6642da32,,,,,,,decisionTrl,resources/DY.BMP,resources/DBN.BMP,Door2,-0.394123077,-0.030715519,1,0,0,1.566,optionLeft,20,4870,3,2,0,2,0,1,,,,,,,,,,,,,,,,,,,,,,,,,,,,,,,,,,,,,,,
,,,,,,,,2023-08-16_08h43.08.144,HF_wild_card,2022.2.4,MacIntel,59.99520038,5eadabbb7f633d08f25db536,64d2fd46c836a06233681665,64dc7df14ff8778d6642da32,,,,,,,sngl,resources/Empty.png,resources/DY.BMP,Door2,0.305517663,-0.019241672,1,0,0,0.7006,optionRight,20,4890,3,3,0,3,0,1,,,,,,,,,,,,,,,,,,,,,,,,,,,,,,,,,,,,,,,
,,,,,,,,2023-08-16_08h43.08.144,HF_wild_card,2022.2.4,MacIntel,59.99520038,5eadabbb7f633d08f25db536,64d2fd46c836a06233681665,64dc7df14ff8778d6642da32,,,,,,,ctch,resources/DR.BMP,resources/DY.BMP,Door3,-0.422444534,-0.044677226,1,0,0,0.6669,optionLeft,70,4960,3,4,0,4,0,1,,,,,,,,,,,,,,,,,,,,,,,,,,,,,,,,,,,,,,,
,,,,,,,,2023-08-16_08h43.08.144,HF_wild_card,2022.2.4,MacIntel,59.99520038,5eadabbb7f633d08f25db536,64d2fd46c836a06233681665,64dc7df14ff8778d6642da32,,,,,,,decisionTrl,resources/DP.BMP,resources/DR.BMP,Door4,-0.372329203,-0.028127543,1,0,0,0.9499,optionLeft,80,5040,3,5,0,5,0,1,,,,,,,,,,,,,,,,,,,,,,,,,,,,,,,,,,,,,,,
,,,,,,,,2023-08-16_08h43.08.144,HF_wild_card,2022.2.4,MacIntel,59.99520038,5eadabbb7f633d08f25db536,64d2fd46c836a06233681665,64dc7df14ff8778d6642da32,,,,,,,decisionTrl,resources/DBN.BMP,resources/DY.BMP,Door1,-0.413692474,0.000313356,1,0,0,1.2647,optionLeft,30,5070,3,6,0,6,0,1,,,,,,,,,,,,,,,,,,,,,,,,,,,,,,,,,,,,,,,
,,,,,,,,2023-08-16_08h43.08.144,HF_wild_card,2022.2.4,MacIntel,59.99520038,5eadabbb7f633d08f25db536,64d2fd46c836a06233681665,64dc7df14ff8778d6642da32,,,,,,,decisionTrl,resources/DP.BMP,resources/DB.BMP,Door4,-0.367725881,-0.020026991,1,0,0,1.0341,optionLeft,60,5130,3,7,0,7,0,1,,,,,,,,,,,,,,,,,,,,,,,,,,,,,,,,,,,,,,,
,,,,,,,,2023-08-16_08h43.08.144,HF_wild_card,2022.2.4,MacIntel,59.99520038,5eadabbb7f633d08f25db536,64d2fd46c836a06233681665,64dc7df14ff8778d6642da32,,,,,,,sngl,resources/Empty.png,resources/DBN.BMP,Door1,0.43627243,0.003187773,1,0,0,0.6647,optionRight,30,5160,3,8,0,8,0,1,,,,,,,,,,,,,,,,,,,,,,,,,,,,,,,,,,,,,,,
,,,,,,,,2023-08-16_08h43.08.144,HF_wild_card,2022.2.4,MacIntel,59.99520038,5eadabbb7f633d08f25db536,64d2fd46c836a06233681665,64dc7df14ff8778d6642da32,,,,,,,decisionTrl,resources/DY.BMP,resources/DBN.BMP,Door1,0.375719876,-0.000221252,1,0,0,1.0827,optionRight,30,5190,3,9,0,9,0,1,,,,,,,,,,,,,,,,,,,,,,,,,,,,,,,,,,,,,,,
,,,,,,,,2023-08-16_08h43.08.144,HF_wild_card,2022.2.4,MacIntel,59.99520038,5eadabbb7f633d08f25db536,64d2fd46c836a06233681665,64dc7df14ff8778d6642da32,,,,,,,ctch,resources/DY.BMP,resources/DR.BMP,Door3,0.410664537,-0.031499863,1,0,0,0.6662,optionRight,70,5260,3,10,0,10,0,1,,,,,,,,,,,,,,,,,,,,,,,,,,,,,,,,,,,,,,,
,,,,,,,,2023-08-16_08h43.08.144,HF_wild_card,2022.2.4,MacIntel,59.99520038,5eadabbb7f633d08f25db536,64d2fd46c836a06233681665,64dc7df14ff8778d6642da32,,,,,,,decisionTrl,resources/DY.BMP,resources/DB.BMP,WildCard_NonEx,0.346439446,-0.018709437,1,0,0,1.0169,optionRight,55,5315,3,11,0,11,0,1,,,,,,,,,,,,,,,,,,,,,,,,,,,,,,,,,,,,,,,
,,,,,,,,2023-08-16_08h43.08.144,HF_wild_card,2022.2.4,MacIntel,59.99520038,5eadabbb7f633d08f25db536,64d2fd46c836a06233681665,64dc7df14ff8778d6642da32,,,,,,,decisionTrl,resources/DB.BMP,resources/DBN.BMP,WildCard_NonEx,-0.366910553,-0.00425415,1,0,0,1.7355,optionLeft,55,5370,3,12,0,12,0,1,,,,,,,,,,,,,,,,,,,,,,,,,,,,,,,,,,,,,,,
,,,,,,,,2023-08-16_08h43.08.144,HF_wild_card,2022.2.4,MacIntel,59.99520038,5eadabbb7f633d08f25db536,64d2fd46c836a06233681665,64dc7df14ff8778d6642da32,,,,,,,decisionTrl,resources/DY.BMP,resources/DBN.BMP,Door1,0.345744069,0.011098395,1,0,0,1.0997,optionRight,30,5400,3,13,0,13,0,1,,,,,,,,,,,,,,,,,,,,,,,,,,,,,,,,,,,,,,,
,,,,,,,,2023-08-16_08h43.08.144,HF_wild_card,2022.2.4,MacIntel,59.99520038,5eadabbb7f633d08f25db536,64d2fd46c836a06233681665,64dc7df14ff8778d6642da32,,,,,,,decisionTrl,resources/DBN.BMP,resources/DY.BMP,Door1,-0.392824385,-0.000327852,1,0,0,0.6825,optionLeft,30,5430,3,14,0,14,0,1,,,,,,,,,,,,,,,,,,,,,,,,,,,,,,,,,,,,,,,
,,,,,,,,2023-08-16_08h43.08.144,HF_wild_card,2022.2.4,MacIntel,59.99520038,5eadabbb7f633d08f25db536,64d2fd46c836a06233681665,64dc7df14ff8778d6642da32,,,,,,,sngl,resources/DY.BMP,resources/Empty.png,Door2,-0.288054403,-0.010428196,1,0,0,0.7158,optionLeft,40,5470,3,15,0,15,0,1,,,,,,,,,,,,,,,,,,,,,,,,,,,,,,,,,,,,,,,
,,,,,,,,2023-08-16_08h43.08.144,HF_wild_card,2022.2.4,MacIntel,59.99520038,5eadabbb7f633d08f25db536,64d2fd46c836a06233681665,64dc7df14ff8778d6642da32,,,,,,,decisionTrl,resources/DB.BMP,resources/DP.BMP,Door4,0.388402727,-0.014705616,1,0,0,1.1649,optionRight,80,5550,3,16,0,16,0,1,,,,,,,,,,,,,,,,,,,,,,,,,,,,,,,,,,,,,,,
,,,,,,,,2023-08-16_08h43.08.144,HF_wild_card,2022.2.4,MacIntel,59.99520038,5eadabbb7f633d08f25db536,64d2fd46c836a06233681665,64dc7df14ff8778d6642da32,,,,,,,decisionTrl,resources/DY.BMP,resources/DBN.BMP,Door2,-0.312358602,-0.010023244,1,0,0,2.3163,optionLeft,40,5590,3,17,0,17,0,1,,,,,,,,,,,,,,,,,,,,,,,,,,,,,,,,,,,,,,,
,,,,,,,,2023-08-16_08h43.08.144,HF_wild_card,2022.2.4,MacIntel,59.99520038,5eadabbb7f633d08f25db536,64d2fd46c836a06233681665,64dc7df14ff8778d6642da32,,,,,,,decisionTrl,resources/DB.BMP,resources/DY.BMP,WildCard_NonEx,-0.489945984,0.004945585,1,0,0,0.9656,optionLeft,55,5645,3,18,0,18,0,1,,,,,,,,,,,,,,,,,,,,,,,,,,,,,,,,,,,,,,,
,,,,,,,,2023-08-16_08h43.08.144,HF_wild_card,2022.2.4,MacIntel,59.99520038,5eadabbb7f633d08f25db536,64d2fd46c836a06233681665,64dc7df14ff8778d6642da32,,,,,,,decisionTrl,resources/DP.BMP,resources/DR.BMP,Door3,0.359798516,0.009556071,1,0,0,1.5811,optionRight,70,5715,3,19,0,19,0,1,,,,,,,,,,,,,,,,,,,,,,,,,,,,,,,,,,,,,,,
,,,,,,,,2023-08-16_08h43.08.144,HF_wild_card,2022.2.4,MacIntel,59.99520038,5eadabbb7f633d08f25db536,64d2fd46c836a06233681665,64dc7df14ff8778d6642da32,,,,,,,sngl,resources/DBN.BMP,resources/Empty.png,Door1,-0.406311374,0.007355457,1,0,0,0.9666,optionLeft,30,5745,3,20,0,20,0,1,,,,,,,,,,,,,,,,,,,,,,,,,,,,,,,,,,,,,,,
,,,,,,,,2023-08-16_08h43.08.144,HF_wild_card,2022.2.4,MacIntel,59.99520038,5eadabbb7f633d08f25db536,64d2fd46c836a06233681665,64dc7df14ff8778d6642da32,,,,,,,decisionTrl,resources/DB.BMP,resources/DR.BMP,Door3,0.338831668,-0.001272413,1,0,0,0.9149,optionRight,70,5815,3,21,0,21,0,1,,,,,,,,,,,,,,,,,,,,,,,,,,,,,,,,,,,,,,,
,,,,,,,,2023-08-16_08h43.08.144,HF_wild_card,2022.2.4,MacIntel,59.99520038,5eadabbb7f633d08f25db536,64d2fd46c836a06233681665,64dc7df14ff8778d6642da32,,,,,,,decisionTrl,resources/DR.BMP,resources/DP.BMP,Door3,-0.517382092,-0.004174338,1,0,0,0.8494,optionLeft,70,5885,3,22,0,22,0,1,,,,,,,,,,,,,,,,,,,,,,,,,,,,,,,,,,,,,,,
,,,,,,,,2023-08-16_08h43.08.144,HF_wild_card,2022.2.4,MacIntel,59.99520038,5eadabbb7f633d08f25db536,64d2fd46c836a06233681665,64dc7df14ff8778d6642da32,,,,,,,sngl,resources/DB.BMP,resources/Empty.png,WildCard_NonEx,-0.364818658,0.012060971,1,0,0,0.7016,optionLeft,55,5940,3,23,0,23,0,1,,,,,,,,,,,,,,,,,,,,,,,,,,,,,,,,,,,,,,,
,,,,,,,,2023-08-16_08h43.08.144,HF_wild_card,2022.2.4,MacIntel,59.99520038,5eadabbb7f633d08f25db536,64d2fd46c836a06233681665,64dc7df14ff8778d6642da32,,,,,,,decisionTrl,resources/DP.BMP,resources/DR.BMP,Door3,0.251840464,-0.015194024,1,0,0,0.9666,optionRight,70,6010,3,24,0,24,0,1,,,,,,,,,,,,,,,,,,,,,,,,,,,,,,,,,,,,,,,
,,,,,,,,2023-08-16_08h43.08.144,HF_wild_card,2022.2.4,MacIntel,59.99520038,5eadabbb7f633d08f25db536,64d2fd46c836a06233681665,64dc7df14ff8778d6642da32,,,,,,,ctch,resources/DBN.BMP,resources/DP.BMP,Door4,0.325257619,0.029469469,1,0,0,1.6655,optionRight,80,6090,3,25,0,25,0,1,,,,,,,,,,,,,,,,,,,,,,,,,,,,,,,,,,,,,,,
,,,,,,,,2023-08-16_08h43.08.144,HF_wild_card,2022.2.4,MacIntel,59.99520038,5eadabbb7f633d08f25db536,64d2fd46c836a06233681665,64dc7df14ff8778d6642da32,,,,,,,sngl,resources/Empty.png,resources/DR.BMP,Door3,0.369849396,0.033570438,1,0,0,0.8659,optionRight,70,6160,3,26,0,26,0,1,,,,,,,,,,,,,,,,,,,,,,,,,,,,,,,,,,,,,,,
,,,,,,,,2023-08-16_08h43.08.144,HF_wild_card,2022.2.4,MacIntel,59.99520038,5eadabbb7f633d08f25db536,64d2fd46c836a06233681665,64dc7df14ff8778d6642da32,,,,,,,sngl,resources/Empty.png,resources/DB.BMP,WildCard_NonEx,0.244119771,-0.006892141,1,0,0,0.6661,optionRight,45,6205,3,27,0,27,0,1,,,,,,,,,,,,,,,,,,,,,,,,,,,,,,,,,,,,,,,
,,,,,,,,2023-08-16_08h43.08.144,HF_wild_card,2022.2.4,MacIntel,59.99520038,5eadabbb7f633d08f25db536,64d2fd46c836a06233681665,64dc7df14ff8778d6642da32,,,,,,,decisionTrl,resources/DR.BMP,resources/DP.BMP,Door3,-0.473466153,-0.020420032,1,0,0,1.6327,optionLeft,70,6275,3,28,0,28,0,1,,,,,,,,,,,,,,,,,,,,,,,,,,,,,,,,,,,,,,,
,,,,,,,,2023-08-16_08h43.08.144,HF_wild_card,2022.2.4,MacIntel,59.99520038,5eadabbb7f633d08f25db536,64d2fd46c836a06233681665,64dc7df14ff8778d6642da32,,,,,,,sngl,resources/DR.BMP,resources/Empty.png,Door3,-0.421274609,-0.009650421,1,0,0,1.1167,optionLeft,70,6345,3,29,0,29,0,1,,,,,,,,,,,,,,,,,,,,,,,,,,,,,,,,,,,,,,,
,,,,,,,,2023-08-16_08h43.08.144,HF_wild_card,2022.2.4,MacIntel,59.99520038,5eadabbb7f633d08f25db536,64d2fd46c836a06233681665,64dc7df14ff8778d6642da32,,,,,,,ctch,resources/DBN.BMP,resources/DP.BMP,Door4,0.409259372,-0.010159556,1,0,0,1.1845,optionRight,80,6425,3,30,0,30,0,1,,,,,,,,,,,,,,,,,,,,,,,,,,,,,,,,,,,,,,,
,,,,,,,,2023-08-16_08h43.08.144,HF_wild_card,2022.2.4,MacIntel,59.99520038,5eadabbb7f633d08f25db536,64d2fd46c836a06233681665,64dc7df14ff8778d6642da32,,,,,,,decisionTrl,resources/DBN.BMP,resources/DY.BMP,Door2,0.3766087,0.039858585,1,0,0,1.3825,optionRight,20,6445,3,31,0,31,0,1,,,,,,,,,,,,,,,,,,,,,,,,,,,,,,,,,,,,,,,
,,,,,,,,2023-08-16_08h43.08.144,HF_wild_card,2022.2.4,MacIntel,59.99520038,5eadabbb7f633d08f25db536,64d2fd46c836a06233681665,64dc7df14ff8778d6642da32,,,,,,,decisionTrl,resources/DP.BMP,resources/DR.BMP,Door4,-0.307856496,-0.002243974,1,0,0,0.982,optionLeft,60,6505,3,32,0,32,0,1,,,,,,,,,,,,,,,,,,,,,,,,,,,,,,,,,,,,,,,
,,,,,,,,2023-08-16_08h43.08.144,HF_wild_card,2022.2.4,MacIntel,59.99520038,5eadabbb7f633d08f25db536,64d2fd46c836a06233681665,64dc7df14ff8778d6642da32,,,,,,,decisionTrl,resources/DBN.BMP,resources/DY.BMP,Door2,0.369572449,-0.00620452,1,0,0,1.2147,optionRight,20,6525,3,33,0,33,0,1,,,,,,,,,,,,,,,,,,,,,,,,,,,,,,,,,,,,,,,
,,,,,,,,2023-08-16_08h43.08.144,HF_wild_card,2022.2.4,MacIntel,59.99520038,5eadabbb7f633d08f25db536,64d2fd46c836a06233681665,64dc7df14ff8778d6642da32,,,,,,,sngl,resources/Empty.png,resources/DP.BMP,Door4,0.390076701,0.009866842,1,0,0,0.581,optionRight,60,6585,3,34,0,34,0,1,,,,,,,,,,,,,,,,,,,,,,,,,,,,,,,,,,,,,,,
,,,,,,,,2023-08-16_08h43.08.144,HF_wild_card,2022.2.4,MacIntel,59.99520038,5eadabbb7f633d08f25db536,64d2fd46c836a06233681665,64dc7df14ff8778d6642da32,,,,,,,decisionTrl,resources/DR.BMP,resources/DP.BMP,Door3,-0.364484533,-0.010163116,1,0,0,0.597,optionLeft,70,6655,3,35,0,35,0,1,,,,,,,,,,,,,,,,,,,,,,,,,,,,,,,,,,,,,,,
,,,,,,,,2023-08-16_08h43.08.144,HF_wild_card,2022.2.4,MacIntel,59.99520038,5eadabbb7f633d08f25db536,64d2fd46c836a06233681665,64dc7df14ff8778d6642da32,,,,,,,sngl,resources/DP.BMP,resources/Empty.png,Door4,-0.348614205,-0.011910417,1,0,0,0.6652,optionLeft,80,6735,3,36,0,36,0,1,,,,,,,,,,,,,,,,,,,,,,,,,,,,,,,,,,,,,,,
,,,,,,,,2023-08-16_08h43.08.144,HF_wild_card,2022.2.4,MacIntel,59.99520038,5eadabbb7f633d08f25db536,64d2fd46c836a06233681665,64dc7df14ff8778d6642da32,,,,,,,sngl,resources/DB.BMP,resources/Empty.png,WildCard_NonEx,-0.473844359,0.006658596,1,0,0,0.565,optionLeft,45,6780,3,37,0,37,0,1,,,,,,,,,,,,,,,,,,,,,,,,,,,,,,,,,,,,,,,
,,,,,,,,2023-08-16_08h43.08.144,HF_wild_card,2022.2.4,MacIntel,59.99520038,5eadabbb7f633d08f25db536,64d2fd46c836a06233681665,64dc7df14ff8778d6642da32,,,,,,,ctch,resources/DP.BMP,resources/DBN.BMP,Door4,-0.277526559,0.018274689,1,0,0,0.9995,optionLeft,80,6860,3,38,0,38,0,1,,,,,,,,,,,,,,,,,,,,,,,,,,,,,,,,,,,,,,,
,,,,,,,,2023-08-16_08h43.08.144,HF_wild_card,2022.2.4,MacIntel,59.99520038,5eadabbb7f633d08f25db536,64d2fd46c836a06233681665,64dc7df14ff8778d6642da32,,,,,,,ctch,resources/DP.BMP,resources/DBN.BMP,Door4,-0.318152915,0.025473785,1,0,0,0.6683,optionLeft,60,6920,3,39,0,39,0,1,,,,,,,,,,,,,,,,,,,,,,,,,,,,,,,,,,,,,,,
,,,,,,,,2023-08-16_08h43.08.144,HF_wild_card,2022.2.4,MacIntel,59.99520038,5eadabbb7f633d08f25db536,64d2fd46c836a06233681665,64dc7df14ff8778d6642da32,,,,,,,decisionTrl,resources/DR.BMP,resources/DB.BMP,Door3,-0.247002029,0.033843528,1,0,0,0.6672,optionLeft,70,6990,3,40,0,40,0,1,,,,,,,,,,,,,,,,,,,,,,,,,,,,,,,,,,,,,,,
,,,,,,,,2023-08-16_08h43.08.144,HF_wild_card,2022.2.4,MacIntel,59.99520038,5eadabbb7f633d08f25db536,64d2fd46c836a06233681665,64dc7df14ff8778d6642da32,,,,,,,decisionTrl,resources/DBN.BMP,resources/DB.BMP,WildCard_NonEx,0.37979677,0.016471015,1,0,0,1.1815,optionRight,45,7035,3,41,0,41,0,1,,,,,,,,,,,,,,,,,,,,,,,,,,,,,,,,,,,,,,,
,,,,,,,,2023-08-16_08h43.08.144,HF_wild_card,2022.2.4,MacIntel,59.99520038,5eadabbb7f633d08f25db536,64d2fd46c836a06233681665,64dc7df14ff8778d6642da32,,,,,,,ctch,resources/DY.BMP,resources/DR.BMP,Door3,0.343900808,0.005946859,1,0,0,0.6683,optionRight,70,7105,3,42,0,42,0,1,,,,,,,,,,,,,,,,,,,,,,,,,,,,,,,,,,,,,,,
,,,,,,,,2023-08-16_08h43.08.144,HF_wild_card,2022.2.4,MacIntel,59.99520038,5eadabbb7f633d08f25db536,64d2fd46c836a06233681665,64dc7df14ff8778d6642da32,,,,,,,decisionTrl,resources/DR.BMP,resources/DP.BMP,Door3,-0.263032108,0.009504276,1,0,0,0.6639,optionLeft,70,7175,3,43,0,43,0,1,,,,,,,,,,,,,,,,,,,,,,,,,,,,,,,,,,,,,,,
,,,,,,,,2023-08-16_08h43.08.144,HF_wild_card,2022.2.4,MacIntel,59.99520038,5eadabbb7f633d08f25db536,64d2fd46c836a06233681665,64dc7df14ff8778d6642da32,,,,,,,,,,,,,,,,,,,,,,,,,,2,0,2,0,1,,,,,,,,,,,,,,,,,,,,,,,,,,,,,,,,,,
,,,,,,,,2023-08-16_08h43.08.144,HF_wild_card,2022.2.4,MacIntel,59.99520038,5eadabbb7f633d08f25db536,64d2fd46c836a06233681665,64dc7df14ff8778d6642da32,,,,,,,decisionTrl,resources/DG.BMP,resources/DBN.BMP,WildCard_Ex,-0.311736806,-0.079193412,1,0,0,1.7251,optionLeft,55,7230,4,0,0,0,0,1,,,,,,,,,,,,,,,,,,,,,,,,,,,,,,,,,,,,,,,
,,,,,,,,2023-08-16_08h43.08.144,HF_wild_card,2022.2.4,MacIntel,59.99520038,5eadabbb7f633d08f25db536,64d2fd46c836a06233681665,64dc7df14ff8778d6642da32,,,,,,,sngl,resources/DY.BMP,resources/Empty.png,Door2,-0.386643049,-0.03162757,1,0,0,0.6026,optionLeft,20,7250,4,1,0,1,0,1,,,,,,,,,,,,,,,,,,,,,,,,,,,,,,,,,,,,,,,
,,,,,,,,2023-08-16_08h43.08.144,HF_wild_card,2022.2.4,MacIntel,59.99520038,5eadabbb7f633d08f25db536,64d2fd46c836a06233681665,64dc7df14ff8778d6642da32,,,,,,,sngl,resources/Empty.png,resources/DG.BMP,WildCard_Ex,0.448704953,0.024602381,1,0,0,0.6313,optionRight,55,7305,4,2,0,2,0,1,,,,,,,,,,,,,,,,,,,,,,,,,,,,,,,,,,,,,,,
,,,,,,,,2023-08-16_08h43.08.144,HF_wild_card,2022.2.4,MacIntel,59.99520038,5eadabbb7f633d08f25db536,64d2fd46c836a06233681665,64dc7df14ff8778d6642da32,,,,,,,decisionTrl,resources/DY.BMP,resources/DBN.BMP,Door1,0.563205634,0.105157471,1,0,0,1.1821,optionRight,30,7335,4,3,0,3,0,1,,,,,,,,,,,,,,,,,,,,,,,,,,,,,,,,,,,,,,,
,,,,,,,,2023-08-16_08h43.08.144,HF_wild_card,2022.2.4,MacIntel,59.99520038,5eadabbb7f633d08f25db536,64d2fd46c836a06233681665,64dc7df14ff8778d6642da32,,,,,,,decisionTrl,resources/DP.BMP,resources/DR.BMP,Door3,0.415921783,0.026209768,1,0,0,1.3325,optionRight,70,7405,4,4,0,4,0,1,,,,,,,,,,,,,,,,,,,,,,,,,,,,,,,,,,,,,,,
,,,,,,,,2023-08-16_08h43.08.144,HF_wild_card,2022.2.4,MacIntel,59.99520038,5eadabbb7f633d08f25db536,64d2fd46c836a06233681665,64dc7df14ff8778d6642da32,,,,,,,decisionTrl,resources/DP.BMP,resources/DR.BMP,Door3,0.41815211,0.030548604,1,0,0,1.2153,optionRight,70,7475,4,5,0,5,0,1,,,,,,,,,,,,,,,,,,,,,,,,,,,,,,,,,,,,,,,
,,,,,,,,2023-08-16_08h43.08.144,HF_wild_card,2022.2.4,MacIntel,59.99520038,5eadabbb7f633d08f25db536,64d2fd46c836a06233681665,64dc7df14ff8778d6642da32,,,,,,,ctch,resources/DY.BMP,resources/DR.BMP,Door3,0.296083577,0.003543981,1,0,0,0.8187,optionRight,70,7545,4,6,0,6,0,1,,,,,,,,,,,,,,,,,,,,,,,,,,,,,,,,,,,,,,,
,,,,,,,,2023-08-16_08h43.08.144,HF_wild_card,2022.2.4,MacIntel,59.99520038,5eadabbb7f633d08f25db536,64d2fd46c836a06233681665,64dc7df14ff8778d6642da32,,,,,,,decisionTrl,resources/DY.BMP,resources/DBN.BMP,Door1,0.343647257,0.028250207,1,0,0,1.016,optionRight,30,7575,4,7,0,7,0,1,,,,,,,,,,,,,,,,,,,,,,,,,,,,,,,,,,,,,,,
,,,,,,,,2023-08-16_08h43.08.144,HF_wild_card,2022.2.4,MacIntel,59.99520038,5eadabbb7f633d08f25db536,64d2fd46c836a06233681665,64dc7df14ff8778d6642da32,,,,,,,sngl,resources/Empty.png,resources/DR.BMP,Door3,0.408776855,0.03830257,1,0,0,0.5996,optionRight,70,7645,4,8,0,8,0,1,,,,,,,,,,,,,,,,,,,,,,,,,,,,,,,,,,,,,,,
,,,,,,,,2023-08-16_08h43.08.144,HF_wild_card,2022.2.4,MacIntel,59.99520038,5eadabbb7f633d08f25db536,64d2fd46c836a06233681665,64dc7df14ff8778d6642da32,,,,,,,decisionTrl,resources/DY.BMP,resources/DBN.BMP,Door1,0.362521193,0.051466539,1,0,0,0.9832,optionRight,30,7675,4,9,0,9,0,1,,,,,,,,,,,,,,,,,,,,,,,,,,,,,,,,,,,,,,,
,,,,,,,,2023-08-16_08h43.08.144,HF_wild_card,2022.2.4,MacIntel,59.99520038,5eadabbb7f633d08f25db536,64d2fd46c836a06233681665,64dc7df14ff8778d6642da32,,,,,,,decisionTrl,resources/DBN.BMP,resources/DY.BMP,Door1,-0.211633725,0.033900494,1,0,0,1.5981,optionLeft,30,7705,4,10,0,10,0,1,,,,,,,,,,,,,,,,,,,,,,,,,,,,,,,,,,,,,,,
,,,,,,,,2023-08-16_08h43.08.144,HF_wild_card,2022.2.4,MacIntel,59.99520038,5eadabbb7f633d08f25db536,64d2fd46c836a06233681665,64dc7df14ff8778d6642da32,,,,,,,sngl,resources/DG.BMP,resources/Empty.png,WildCard_Ex,-0.357998827,0.016617754,1,0,0,0.9345,optionLeft,55,7760,4,11,0,11,0,1,,,,,,,,,,,,,,,,,,,,,,,,,,,,,,,,,,,,,,,
,,,,,,,,2023-08-16_08h43.08.144,HF_wild_card,2022.2.4,MacIntel,59.99520038,5eadabbb7f633d08f25db536,64d2fd46c836a06233681665,64dc7df14ff8778d6642da32,,,,,,,sngl,resources/Empty.png,resources/DG.BMP,WildCard_Ex,0.380389489,0.007509189,1,0,0,0.5495,optionRight,45,7805,4,12,0,12,0,1,,,,,,,,,,,,,,,,,,,,,,,,,,,,,,,,,,,,,,,
,,,,,,,,2023-08-16_08h43.08.144,HF_wild_card,2022.2.4,MacIntel,59.99520038,5eadabbb7f633d08f25db536,64d2fd46c836a06233681665,64dc7df14ff8778d6642da32,,,,,,,decisionTrl,resources/DR.BMP,resources/DG.BMP,Door3,-0.550830205,-0.023015934,1,0,0,0.8188,optionLeft,70,7875,4,13,0,13,0,1,,,,,,,,,,,,,,,,,,,,,,,,,,,,,,,,,,,,,,,
,,,,,,,,2023-08-16_08h43.08.144,HF_wild_card,2022.2.4,MacIntel,59.99520038,5eadabbb7f633d08f25db536,64d2fd46c836a06233681665,64dc7df14ff8778d6642da32,,,,,,,decisionTrl,resources/DY.BMP,resources/DBN.BMP,Door1,0.293620978,0.027664396,1,0,0,1.1974,optionRight,30,7905,4,14,0,14,0,1,,,,,,,,,,,,,,,,,,,,,,,,,,,,,,,,,,,,,,,
,,,,,,,,2023-08-16_08h43.08.144,HF_wild_card,2022.2.4,MacIntel,59.99520038,5eadabbb7f633d08f25db536,64d2fd46c836a06233681665,64dc7df14ff8778d6642da32,,,,,,,decisionTrl,resources/DP.BMP,resources/DR.BMP,Door3,0.297765605,0.038758172,1,0,0,0.8493,optionRight,70,7975,4,15,0,15,0,1,,,,,,,,,,,,,,,,,,,,,,,,,,,,,,,,,,,,,,,
,,,,,,,,2023-08-16_08h43.08.144,HF_wild_card,2022.2.4,MacIntel,59.99520038,5eadabbb7f633d08f25db536,64d2fd46c836a06233681665,64dc7df14ff8778d6642da32,,,,,,,ctch,resources/DBN.BMP,resources/DP.BMP,Door4,0.273178609,0.032844543,1,0,0,0.6666,optionRight,80,8055,4,16,0,16,0,1,,,,,,,,,,,,,,,,,,,,,,,,,,,,,,,,,,,,,,,
,,,,,,,,2023-08-16_08h43.08.144,HF_wild_card,2022.2.4,MacIntel,59.99520038,5eadabbb7f633d08f25db536,64d2fd46c836a06233681665,64dc7df14ff8778d6642da32,,,,,,,decisionTrl,resources/DY.BMP,resources/DG.BMP,WildCard_Ex,0.308420054,0.048347261,1,0,0,1.0844,optionRight,45,8100,4,17,0,17,0,1,,,,,,,,,,,,,,,,,,,,,,,,,,,,,,,,,,,,,,,
,,,,,,,,2023-08-16_08h43.08.144,HF_wild_card,2022.2.4,MacIntel,59.99520038,5eadabbb7f633d08f25db536,64d2fd46c836a06233681665,64dc7df14ff8778d6642da32,,,,,,,decisionTrl,resources/DBN.BMP,resources/DY.BMP,Door1,-0.315808487,0.049962277,1,0,0,1.0325,optionLeft,30,8130,4,18,0,18,0,1,,,,,,,,,,,,,,,,,,,,,,,,,,,,,,,,,,,,,,,
,,,,,,,,2023-08-16_08h43.08.144,HF_wild_card,2022.2.4,MacIntel,59.99520038,5eadabbb7f633d08f25db536,64d2fd46c836a06233681665,64dc7df14ff8778d6642da32,,,,,,,sngl,resources/Empty.png,resources/DP.BMP,Door4,0.315950182,0.058194012,1,0,0,0.5312,optionRight,80,8210,4,19,0,19,0,1,,,,,,,,,,,,,,,,,,,,,,,,,,,,,,,,,,,,,,,
,,,,,,,,2023-08-16_08h43.08.144,HF_wild_card,2022.2.4,MacIntel,59.99520038,5eadabbb7f633d08f25db536,64d2fd46c836a06233681665,64dc7df14ff8778d6642da32,,,,,,,ctch,resources/DP.BMP,resources/DBN.BMP,Door4,-0.267569648,0.036447822,1,0,0,0.7651,optionLeft,80,8290,4,20,0,20,0,1,,,,,,,,,,,,,,,,,,,,,,,,,,,,,,,,,,,,,,,
,,,,,,,,2023-08-16_08h43.08.144,HF_wild_card,2022.2.4,MacIntel,59.99520038,5eadabbb7f633d08f25db536,64d2fd46c836a06233681665,64dc7df14ff8778d6642da32,,,,,,,ctch,resources/DP.BMP,resources/DBN.BMP,Door4,-0.325748359,0.035393016,1,0,0,0.6007,optionLeft,60,8350,4,21,0,21,0,1,,,,,,,,,,,,,,,,,,,,,,,,,,,,,,,,,,,,,,,
,,,,,,,,2023-08-16_08h43.08.144,HF_wild_card,2022.2.4,MacIntel,59.99520038,5eadabbb7f633d08f25db536,64d2fd46c836a06233681665,64dc7df14ff8778d6642da32,,,,,,,sngl,resources/DR.BMP,resources/Empty.png,Door3,-0.228688897,-0.00541598,1,0,0,0.6158,optionLeft,70,8420,4,22,0,22,0,1,,,,,,,,,,,,,,,,,,,,,,,,,,,,,,,,,,,,,,,
,,,,,,,,2023-08-16_08h43.08.144,HF_wild_card,2022.2.4,MacIntel,59.99520038,5eadabbb7f633d08f25db536,64d2fd46c836a06233681665,64dc7df14ff8778d6642da32,,,,,,,decisionTrl,resources/DBN.BMP,resources/DY.BMP,Door1,-0.286086019,-0.008376227,1,0,0,0.966,optionLeft,30,8450,4,23,0,23,0,1,,,,,,,,,,,,,,,,,,,,,,,,,,,,,,,,,,,,,,,
,,,,,,,,2023-08-16_08h43.08.144,HF_wild_card,2022.2.4,MacIntel,59.99520038,5eadabbb7f633d08f25db536,64d2fd46c836a06233681665,64dc7df14ff8778d6642da32,,,,,,,decisionTrl,resources/DG.BMP,resources/DR.BMP,Door3,0.329343245,-0.026067903,1,0,0,1.0831,optionRight,70,8520,4,24,0,24,0,1,,,,,,,,,,,,,,,,,,,,,,,,,,,,,,,,,,,,,,,
,,,,,,,,2023-08-16_08h43.08.144,HF_wild_card,2022.2.4,MacIntel,59.99520038,5eadabbb7f633d08f25db536,64d2fd46c836a06233681665,64dc7df14ff8778d6642da32,,,,,,,sngl,resources/DBN.BMP,resources/Empty.png,Door1,-0.230138228,-0.008561283,1,0,0,0.5993,optionLeft,30,8550,4,25,0,25,0,1,,,,,,,,,,,,,,,,,,,,,,,,,,,,,,,,,,,,,,,
,,,,,,,,2023-08-16_08h43.08.144,HF_wild_card,2022.2.4,MacIntel,59.99520038,5eadabbb7f633d08f25db536,64d2fd46c836a06233681665,64dc7df14ff8778d6642da32,,,,,,,decisionTrl,resources/DBN.BMP,resources/DG.BMP,WildCard_Ex,0.31606759,-0.010432731,1,0,0,0.7844,optionRight,45,8595,4,26,0,26,0,1,,,,,,,,,,,,,,,,,,,,,,,,,,,,,,,,,,,,,,,
,,,,,,,,2023-08-16_08h43.08.144,HF_wild_card,2022.2.4,MacIntel,59.99520038,5eadabbb7f633d08f25db536,64d2fd46c836a06233681665,64dc7df14ff8778d6642da32,,,,,,,decisionTrl,resources/DR.BMP,resources/DP.BMP,Door3,-0.428943295,-0.00927124,1,0,0,1.1491,optionLeft,70,8665,4,27,0,27,0,1,,,,,,,,,,,,,,,,,,,,,,,,,,,,,,,,,,,,,,,
,,,,,,,,2023-08-16_08h43.08.144,HF_wild_card,2022.2.4,MacIntel,59.99520038,5eadabbb7f633d08f25db536,64d2fd46c836a06233681665,64dc7df14ff8778d6642da32,,,,,,,decisionTrl,resources/DR.BMP,resources/DP.BMP,Door3,-0.320518027,-0.009446928,1,0,0,1.0991,optionLeft,70,8735,4,28,0,28,0,1,,,,,,,,,,,,,,,,,,,,,,,,,,,,,,,,,,,,,,,
,,,,,,,,2023-08-16_08h43.08.144,HF_wild_card,2022.2.4,MacIntel,59.99520038,5eadabbb7f633d08f25db536,64d2fd46c836a06233681665,64dc7df14ff8778d6642da32,,,,,,,decisionTrl,resources/DR.BMP,resources/DP.BMP,Door3,-0.539478429,-0.127879673,1,0,0,2.4996,optionLeft,70,8805,4,29,0,29,0,1,,,,,,,,,,,,,,,,,,,,,,,,,,,,,,,,,,,,,,,
,,,,,,,,2023-08-16_08h43.08.144,HF_wild_card,2022.2.4,MacIntel,59.99520038,5eadabbb7f633d08f25db536,64d2fd46c836a06233681665,64dc7df14ff8778d6642da32,,,,,,,decisionTrl,resources/DP.BMP,resources/DR.BMP,Door3,0.291471015,0.002746158,1,0,0,0.7305,optionRight,70,8875,4,30,0,30,0,1,,,,,,,,,,,,,,,,,,,,,,,,,,,,,,,,,,,,,,,
,,,,,,,,2023-08-16_08h43.08.144,HF_wild_card,2022.2.4,MacIntel,59.99520038,5eadabbb7f633d08f25db536,64d2fd46c836a06233681665,64dc7df14ff8778d6642da32,,,,,,,sngl,resources/DP.BMP,resources/Empty.png,Door4,-0.380454551,-0.024790827,1,0,0,0.8001,optionLeft,60,8935,4,31,0,31,0,1,,,,,,,,,,,,,,,,,,,,,,,,,,,,,,,,,,,,,,,
,,,,,,,,2023-08-16_08h43.08.144,HF_wild_card,2022.2.4,MacIntel,59.99520038,5eadabbb7f633d08f25db536,64d2fd46c836a06233681665,64dc7df14ff8778d6642da32,,,,,,,sngl,resources/DG.BMP,resources/Empty.png,WildCard_Ex,-0.320837614,-0.015208732,1,0,0,0.649,optionLeft,45,8980,4,32,0,32,0,1,,,,,,,,,,,,,,,,,,,,,,,,,,,,,,,,,,,,,,,
,,,,,,,,2023-08-16_08h43.08.144,HF_wild_card,2022.2.4,MacIntel,59.99520038,5eadabbb7f633d08f25db536,64d2fd46c836a06233681665,64dc7df14ff8778d6642da32,,,,,,,decisionTrl,resources/DBN.BMP,resources/DY.BMP,Door1,-0.261038335,0.026270421,1,0,0,1.3162,optionLeft,30,9010,4,33,0,33,0,1,,,,,,,,,,,,,,,,,,,,,,,,,,,,,,,,,,,,,,,
,,,,,,,,2023-08-16_08h43.08.144,HF_wild_card,2022.2.4,MacIntel,59.99520038,5eadabbb7f633d08f25db536,64d2fd46c836a06233681665,64dc7df14ff8778d6642da32,,,,,,,sngl,resources/Empty.png,resources/DBN.BMP,Door1,0.293447876,-0.006302049,1,0,0,0.8158,optionRight,30,9040,4,34,0,34,0,1,,,,,,,,,,,,,,,,,,,,,,,,,,,,,,,,,,,,,,,
,,,,,,,,2023-08-16_08h43.08.144,HF_wild_card,2022.2.4,MacIntel,59.99520038,5eadabbb7f633d08f25db536,64d2fd46c836a06233681665,64dc7df14ff8778d6642da32,,,,,,,ctch,resources/DR.BMP,resources/DY.BMP,Door3,-0.34424252,-0.007011074,1,0,0,1.049,optionLeft,70,9110,4,35,0,35,0,1,,,,,,,,,,,,,,,,,,,,,,,,,,,,,,,,,,,,,,,
,,,,,,,,2023-08-16_08h43.08.144,HF_wild_card,2022.2.4,MacIntel,59.99520038,5eadabbb7f633d08f25db536,64d2fd46c836a06233681665,64dc7df14ff8778d6642da32,,,,,,,decisionTrl,resources/DP.BMP,resources/DG.BMP,Door4,-0.445419269,-0.006425222,1,0,0,1.0653,optionLeft,60,9170,4,36,0,36,0,1,,,,,,,,,,,,,,,,,,,,,,,,,,,,,,,,,,,,,,,
,,,,,,,,2023-08-16_08h43.08.144,HF_wild_card,2022.2.4,MacIntel,59.99520038,5eadabbb7f633d08f25db536,64d2fd46c836a06233681665,64dc7df14ff8778d6642da32,,,,,,,decisionTrl,resources/DR.BMP,resources/DP.BMP,Door3,-0.40494851,-0.011429342,1,0,0,0.9499,optionLeft,70,9240,4,37,0,37,0,1,,,,,,,,,,,,,,,,,,,,,,,,,,,,,,,,,,,,,,,
,,,,,,,,2023-08-16_08h43.08.144,HF_wild_card,2022.2.4,MacIntel,59.99520038,5eadabbb7f633d08f25db536,64d2fd46c836a06233681665,64dc7df14ff8778d6642da32,,,,,,,ctch,resources/DR.BMP,resources/DY.BMP,Door3,-0.33773613,0.013489109,1,0,0,0.6493,optionLeft,70,9310,4,38,0,38,0,1,,,,,,,,,,,,,,,,,,,,,,,,,,,,,,,,,,,,,,,
,,,,,,,,2023-08-16_08h43.08.144,HF_wild_card,2022.2.4,MacIntel,59.99520038,5eadabbb7f633d08f25db536,64d2fd46c836a06233681665,64dc7df14ff8778d6642da32,,,,,,,ctch,resources/DBN.BMP,resources/DP.BMP,Door4,0.28132392,-0.020151689,1,0,0,0.8167,optionRight,80,9390,4,39,0,39,0,1,,,,,,,,,,,,,,,,,,,,,,,,,,,,,,,,,,,,,,,
,,,,,,,,2023-08-16_08h43.08.144,HF_wild_card,2022.2.4,MacIntel,59.99520038,5eadabbb7f633d08f25db536,64d2fd46c836a06233681665,64dc7df14ff8778d6642da32,,,,,,,decisionTrl,resources/DG.BMP,resources/DP.BMP,Door4,0.403157043,0.001328701,1,0,0,1.0501,optionRight,80,9470,4,40,0,40,0,1,,,,,,,,,,,,,,,,,,,,,,,,,,,,,,,,,,,,,,,
,,,,,,,,2023-08-16_08h43.08.144,HF_wild_card,2022.2.4,MacIntel,59.99520038,5eadabbb7f633d08f25db536,64d2fd46c836a06233681665,64dc7df14ff8778d6642da32,,,,,,,ctch,resources/DY.BMP,resources/DR.BMP,Door3,0.334834374,0.012646823,1,0,0,0.949,optionRight,70,9540,4,41,0,41,0,1,,,,,,,,,,,,,,,,,,,,,,,,,,,,,,,,,,,,,,,
,,,,,,,,2023-08-16_08h43.08.144,HF_wild_card,2022.2.4,MacIntel,59.99520038,5eadabbb7f633d08f25db536,64d2fd46c836a06233681665,64dc7df14ff8778d6642da32,,,,,,,sngl,resources/Empty.png,resources/DY.BMP,Door2,0.396074931,-0.001315477,1,0,0,0.5655,optionRight,40,9580,4,42,0,42,0,1,,,,,,,,,,,,,,,,,,,,,,,,,,,,,,,,,,,,,,,
,,,,,,,,2023-08-16_08h43.08.144,HF_wild_card,2022.2.4,MacIntel,59.99520038,5eadabbb7f633d08f25db536,64d2fd46c836a06233681665,64dc7df14ff8778d6642da32,,,,,,,decisionTrl,resources/DG.BMP,resources/DY.BMP,WildCard_Ex,-0.245298428,0.02275522,1,0,0,0.8165,optionLeft,55,9635,4,43,0,43,0,1,,,,,,,,,,,,,,,,,,,,,,,,,,,,,,,,,,,,,,,
,,,,,,,,2023-08-16_08h43.08.144,HF_wild_card,2022.2.4,MacIntel,59.99520038,5eadabbb7f633d08f25db536,64d2fd46c836a06233681665,64dc7df14ff8778d6642da32,,,,,,,,,,,,,,,,,,,,,,,,,,3,0,3,0,1,,,,,,,,,,,,,,,,,,,,,,,,,,,,,,,,,,
,,,,,,,,2023-08-16_08h43.08.144,HF_wild_card,2022.2.4,MacIntel,59.99520038,5eadabbb7f633d08f25db536,64d2fd46c836a06233681665,64dc7df14ff8778d6642da32,,,,,,,decisionTrl,resources/DY.BMP,resources/DBN.BMP,Door1,0.30681822,-0.022238413,1,0,0,1.8577,optionRight,30,9665,5,0,0,0,0,1,,,,,,,,,,,,,,,,,,,,,,,,,,,,,,,,,,,,,,,
,,,,,,,,2023-08-16_08h43.08.144,HF_wild_card,2022.2.4,MacIntel,59.99520038,5eadabbb7f633d08f25db536,64d2fd46c836a06233681665,64dc7df14ff8778d6642da32,,,,,,,decisionTrl,resources/DBN.BMP,resources/DY.BMP,Door1,-0.337842051,-0.007588704,1,0,0,1.4611,optionLeft,30,9695,5,1,0,1,0,1,,,,,,,,,,,,,,,,,,,,,,,,,,,,,,,,,,,,,,,
,,,,,,,,2023-08-16_08h43.08.144,HF_wild_card,2022.2.4,MacIntel,59.99520038,5eadabbb7f633d08f25db536,64d2fd46c836a06233681665,64dc7df14ff8778d6642da32,,,,,,,ctch,resources/DR.BMP,resources/DY.BMP,Door3,-0.29293179,0.001860725,1,0,0,0.7502,optionLeft,70,9765,5,2,0,2,0,1,,,,,,,,,,,,,,,,,,,,,,,,,,,,,,,,,,,,,,,
,,,,,,,,2023-08-16_08h43.08.144,HF_wild_card,2022.2.4,MacIntel,59.99520038,5eadabbb7f633d08f25db536,64d2fd46c836a06233681665,64dc7df14ff8778d6642da32,,,,,,,sngl,resources/Empty.png,resources/DR.BMP,Door3,0.356323581,-0.000590769,1,0,0,0.6164,optionRight,70,9835,5,3,0,3,0,1,,,,,,,,,,,,,,,,,,,,,,,,,,,,,,,,,,,,,,,
,,,,,,,,2023-08-16_08h43.08.144,HF_wild_card,2022.2.4,MacIntel,59.99520038,5eadabbb7f633d08f25db536,64d2fd46c836a06233681665,64dc7df14ff8778d6642da32,,,,,,,decisionTrl,resources/DR.BMP,resources/DP.BMP,Door3,-0.357320277,0.001613151,1,0,0,1.0498,optionLeft,70,9905,5,4,0,4,0,1,,,,,,,,,,,,,,,,,,,,,,,,,,,,,,,,,,,,,,,
,,,,,,,,2023-08-16_08h43.08.144,HF_wild_card,2022.2.4,MacIntel,59.99520038,5eadabbb7f633d08f25db536,64d2fd46c836a06233681665,64dc7df14ff8778d6642da32,,,,,,,decisionTrl,resources/DG.BMP,resources/DP.BMP,Door4,0.331169637,-0.020491536,1,0,0,0.7994,optionRight,80,9985,5,5,0,5,0,1,,,,,,,,,,,,,,,,,,,,,,,,,,,,,,,,,,,,,,,
,,,,,,,,2023-08-16_08h43.08.144,HF_wild_card,2022.2.4,MacIntel,59.99520038,5eadabbb7f633d08f25db536,64d2fd46c836a06233681665,64dc7df14ff8778d6642da32,,,,,,,decisionTrl,resources/DBN.BMP,resources/DY.BMP,Door1,-0.376034037,0.010648643,1,0,0,1.0156,optionLeft,30,10015,5,6,0,6,0,1,,,,,,,,,,,,,,,,,,,,,,,,,,,,,,,,,,,,,,,
,,,,,,,,2023-08-16_08h43.08.144,HF_wild_card,2022.2.4,MacIntel,59.99520038,5eadabbb7f633d08f25db536,64d2fd46c836a06233681665,64dc7df14ff8778d6642da32,,,,,,,decisionTrl,resources/DP.BMP,resources/DG.BMP,Door4,-0.382711453,0.019656838,1,0,0,1.3977,optionLeft,80,10095,5,7,0,7,0,1,,,,,,,,,,,,,,,,,,,,,,,,,,,,,,,,,,,,,,,
,,,,,,,,2023-08-16_08h43.08.144,HF_wild_card,2022.2.4,MacIntel,59.99520038,5eadabbb7f633d08f25db536,64d2fd46c836a06233681665,64dc7df14ff8778d6642da32,,,,,,,sngl,resources/DR.BMP,resources/Empty.png,Door3,-0.223609034,0.018829303,1,0,0,0.6297,optionLeft,70,10165,5,8,0,8,0,1,,,,,,,,,,,,,,,,,,,,,,,,,,,,,,,,,,,,,,,
,,,,,,,,2023-08-16_08h43.08.144,HF_wild_card,2022.2.4,MacIntel,59.99520038,5eadabbb7f633d08f25db536,64d2fd46c836a06233681665,64dc7df14ff8778d6642da32,,,,,,,sngl,resources/DG.BMP,resources/Empty.png,WildCard_Ex,-0.301876322,0.014593803,1,0,0,0.5863,optionLeft,45,10210,5,9,0,9,0,1,,,,,,,,,,,,,,,,,,,,,,,,,,,,,,,,,,,,,,,
,,,,,,,,2023-08-16_08h43.08.144,HF_wild_card,2022.2.4,MacIntel,59.99520038,5eadabbb7f633d08f25db536,64d2fd46c836a06233681665,64dc7df14ff8778d6642da32,,,,,,,decisionTrl,resources/DY.BMP,resources/DBN.BMP,Door2,-0.279645199,0.018606398,1,0,0,0.9498,optionLeft,20,10230,5,10,0,10,0,1,,,,,,,,,,,,,,,,,,,,,,,,,,,,,,,,,,,,,,,
,,,,,,,,2023-08-16_08h43.08.144,HF_wild_card,2022.2.4,MacIntel,59.99520038,5eadabbb7f633d08f25db536,64d2fd46c836a06233681665,64dc7df14ff8778d6642da32,,,,,,,ctch,resources/DP.BMP,resources/DBN.BMP,Door4,-0.275468614,0.017402861,1,0,0,1.149,optionLeft,80,10310,5,11,0,11,0,1,,,,,,,,,,,,,,,,,,,,,,,,,,,,,,,,,,,,,,,
,,,,,,,,2023-08-16_08h43.08.144,HF_wild_card,2022.2.4,MacIntel,59.99520038,5eadabbb7f633d08f25db536,64d2fd46c836a06233681665,64dc7df14ff8778d6642da32,,,,,,,ctch,resources/DP.BMP,resources/DBN.BMP,Door4,-0.297776201,0.017923482,1,0,0,0.6979,optionLeft,60,10370,5,12,0,12,0,1,,,,,,,,,,,,,,,,,,,,,,,,,,,,,,,,,,,,,,,
,,,,,,,,2023-08-16_08h43.08.144,HF_wild_card,2022.2.4,MacIntel,59.99520038,5eadabbb7f633d08f25db536,64d2fd46c836a06233681665,64dc7df14ff8778d6642da32,,,,,,,sngl,resources/DG.BMP,resources/Empty.png,WildCard_Ex,-0.334830983,0.041636488,1,0,0,0.6002,optionLeft,55,10425,5,13,0,13,0,1,,,,,,,,,,,,,,,,,,,,,,,,,,,,,,,,,,,,,,,
,,,,,,,,2023-08-16_08h43.08.144,HF_wild_card,2022.2.4,MacIntel,59.99520038,5eadabbb7f633d08f25db536,64d2fd46c836a06233681665,64dc7df14ff8778d6642da32,,,,,,,sngl,resources/Empty.png,resources/DG.BMP,WildCard_Ex,0.423160638,0.033835008,1,0,0,0.6822,optionRight,55,10480,5,14,0,14,0,1,,,,,,,,,,,,,,,,,,,,,,,,,,,,,,,,,,,,,,,
,,,,,,,,2023-08-16_08h43.08.144,HF_wild_card,2022.2.4,MacIntel,59.99520038,5eadabbb7f633d08f25db536,64d2fd46c836a06233681665,64dc7df14ff8778d6642da32,,,,,,,decisionTrl,resources/DG.BMP,resources/DY.BMP,WildCard_Ex,-0.325460985,0.039175288,1,0,0,1.2675,optionLeft,55,10535,5,15,0,15,0,1,,,,,,,,,,,,,,,,,,,,,,,,,,,,,,,,,,,,,,,
,,,,,,,,2023-08-16_08h43.08.144,HF_wild_card,2022.2.4,MacIntel,59.99520038,5eadabbb7f633d08f25db536,64d2fd46c836a06233681665,64dc7df14ff8778d6642da32,,,,,,,decisionTrl,resources/DY.BMP,resources/DBN.BMP,Door1,0.260029009,-0.004695299,1,0,0,0.9192,optionRight,30,10565,5,16,0,16,0,1,,,,,,,,,,,,,,,,,,,,,,,,,,,,,,,,,,,,,,,
,,,,,,,,2023-08-16_08h43.08.144,HF_wild_card,2022.2.4,MacIntel,59.99520038,5eadabbb7f633d08f25db536,64d2fd46c836a06233681665,64dc7df14ff8778d6642da32,,,,,,,decisionTrl,resources/DBN.BMP,resources/DY.BMP,Door1,-0.152165731,-0.004474004,1,0,0,0.6955,optionLeft,30,10595,5,17,0,17,0,1,,,,,,,,,,,,,,,,,,,,,,,,,,,,,,,,,,,,,,,
,,,,,,,,2023-08-16_08h43.08.144,HF_wild_card,2022.2.4,MacIntel,59.99520038,5eadabbb7f633d08f25db536,64d2fd46c836a06233681665,64dc7df14ff8778d6642da32,,,,,,,ctch,resources/DBN.BMP,resources/DP.BMP,Door4,0.297492388,-0.015687434,1,0,0,0.8004,optionRight,60,10655,5,18,0,18,0,1,,,,,,,,,,,,,,,,,,,,,,,,,,,,,,,,,,,,,,,
,,,,,,,,2023-08-16_08h43.08.144,HF_wild_card,2022.2.4,MacIntel,59.99520038,5eadabbb7f633d08f25db536,64d2fd46c836a06233681665,64dc7df14ff8778d6642da32,,,,,,,sngl,resources/Empty.png,resources/DG.BMP,WildCard_Ex,0.383430396,-0.02584131,1,0,0,0.565,optionRight,45,10700,5,19,0,19,0,1,,,,,,,,,,,,,,,,,,,,,,,,,,,,,,,,,,,,,,,
,,,,,,,,2023-08-16_08h43.08.144,HF_wild_card,2022.2.4,MacIntel,59.99520038,5eadabbb7f633d08f25db536,64d2fd46c836a06233681665,64dc7df14ff8778d6642da32,,,,,,,decisionTrl,resources/DP.BMP,resources/DR.BMP,Door3,0.437848494,-0.017791833,1,0,0,0.9322,optionRight,70,10770,5,20,0,20,0,1,,,,,,,,,,,,,,,,,,,,,,,,,,,,,,,,,,,,,,,
,,,,,,,,2023-08-16_08h43.08.144,HF_wild_card,2022.2.4,MacIntel,59.99520038,5eadabbb7f633d08f25db536,64d2fd46c836a06233681665,64dc7df14ff8778d6642da32,,,,,,,decisionTrl,resources/DR.BMP,resources/DP.BMP,Door3,-0.37781762,-0.030646939,1,0,0,0.7827,optionLeft,70,10840,5,21,0,21,0,1,,,,,,,,,,,,,,,,,,,,,,,,,,,,,,,,,,,,,,,
,,,,,,,,2023-08-16_08h43.08.144,HF_wild_card,2022.2.4,MacIntel,59.99520038,5eadabbb7f633d08f25db536,64d2fd46c836a06233681665,64dc7df14ff8778d6642da32,,,,,,,sngl,resources/DY.BMP,resources/Empty.png,Door2,-0.151501889,2.04298E-05,1,0,0,0.6844,optionLeft,40,10880,5,22,0,22,0,1,,,,,,,,,,,,,,,,,,,,,,,,,,,,,,,,,,,,,,,
,,,,,,,,2023-08-16_08h43.08.144,HF_wild_card,2022.2.4,MacIntel,59.99520038,5eadabbb7f633d08f25db536,64d2fd46c836a06233681665,64dc7df14ff8778d6642da32,,,,,,,ctch,resources/DY.BMP,resources/DR.BMP,Door3,0.350139448,-0.014095137,1,0,0,1.0854,optionRight,70,10950,5,23,0,23,0,1,,,,,,,,,,,,,,,,,,,,,,,,,,,,,,,,,,,,,,,
,,,,,,,,2023-08-16_08h43.08.144,HF_wild_card,2022.2.4,MacIntel,59.99520038,5eadabbb7f633d08f25db536,64d2fd46c836a06233681665,64dc7df14ff8778d6642da32,,,,,,,decisionTrl,resources/DY.BMP,resources/DBN.BMP,Door2,-0.311602656,-0.036159515,1,0,0,0.6156,optionLeft,40,10990,5,24,0,24,0,1,,,,,,,,,,,,,,,,,,,,,,,,,,,,,,,,,,,,,,,
,,,,,,,,2023-08-16_08h43.08.144,HF_wild_card,2022.2.4,MacIntel,59.99520038,5eadabbb7f633d08f25db536,64d2fd46c836a06233681665,64dc7df14ff8778d6642da32,,,,,,,decisionTrl,resources/DBN.BMP,resources/DY.BMP,Door2,0.440972137,-0.014280489,1,0,0,0.7661,optionRight,40,11030,5,25,0,25,0,1,,,,,,,,,,,,,,,,,,,,,,,,,,,,,,,,,,,,,,,
,,,,,,,,2023-08-16_08h43.08.144,HF_wild_card,2022.2.4,MacIntel,59.99520038,5eadabbb7f633d08f25db536,64d2fd46c836a06233681665,64dc7df14ff8778d6642da32,,,,,,,ctch,resources/DR.BMP,resources/DY.BMP,Door3,-0.321382395,-0.020845286,1,0,0,0.9158,optionLeft,70,11100,5,26,0,26,0,1,,,,,,,,,,,,,,,,,,,,,,,,,,,,,,,,,,,,,,,
,,,,,,,,2023-08-16_08h43.08.144,HF_wild_card,2022.2.4,MacIntel,59.99520038,5eadabbb7f633d08f25db536,64d2fd46c836a06233681665,64dc7df14ff8778d6642da32,,,,,,,ctch,resources/DBN.BMP,resources/DP.BMP,Door4,0.306306458,-0.019793955,1,0,0,1.0835,optionRight,60,11160,5,27,0,27,0,1,,,,,,,,,,,,,,,,,,,,,,,,,,,,,,,,,,,,,,,
,,,,,,,,2023-08-16_08h43.08.144,HF_wild_card,2022.2.4,MacIntel,59.99520038,5eadabbb7f633d08f25db536,64d2fd46c836a06233681665,64dc7df14ff8778d6642da32,,,,,,,decisionTrl,resources/DY.BMP,resources/DG.BMP,WildCard_Ex,0.417565918,-0.049021191,1,0,0,0.9312,optionRight,55,11215,5,28,0,28,0,1,,,,,,,,,,,,,,,,,,,,,,,,,,,,,,,,,,,,,,,
,,,,,,,,2023-08-16_08h43.08.144,HF_wild_card,2022.2.4,MacIntel,59.99520038,5eadabbb7f633d08f25db536,64d2fd46c836a06233681665,64dc7df14ff8778d6642da32,,,,,,,sngl,resources/Empty.png,resources/DBN.BMP,Door1,0.300578139,-0.037186559,1,0,0,0.7166,optionRight,30,11245,5,29,0,29,0,1,,,,,,,,,,,,,,,,,,,,,,,,,,,,,,,,,,,,,,,
,,,,,,,,2023-08-16_08h43.08.144,HF_wild_card,2022.2.4,MacIntel,59.99520038,5eadabbb7f633d08f25db536,64d2fd46c836a06233681665,64dc7df14ff8778d6642da32,,,,,,,decisionTrl,resources/DP.BMP,resources/DR.BMP,Door3,0.2760515,0.005826696,1,0,0,1.1652,optionRight,70,11315,5,30,0,30,0,1,,,,,,,,,,,,,,,,,,,,,,,,,,,,,,,,,,,,,,,
,,,,,,,,2023-08-16_08h43.08.144,HF_wild_card,2022.2.4,MacIntel,59.99520038,5eadabbb7f633d08f25db536,64d2fd46c836a06233681665,64dc7df14ff8778d6642da32,,,,,,,decisionTrl,resources/DBN.BMP,resources/DG.BMP,WildCard_Ex,0.23850903,-0.018388706,1,0,0,1.1482,optionRight,55,11370,5,31,0,31,0,1,,,,,,,,,,,,,,,,,,,,,,,,,,,,,,,,,,,,,,,
,,,,,,,,2023-08-16_08h43.08.144,HF_wild_card,2022.2.4,MacIntel,59.99520038,5eadabbb7f633d08f25db536,64d2fd46c836a06233681665,64dc7df14ff8778d6642da32,,,,,,,decisionTrl,resources/DP.BMP,resources/DR.BMP,Door3,0.243205516,-0.006071557,1,0,0,0.7665,optionRight,70,11440,5,32,0,32,0,1,,,,,,,,,,,,,,,,,,,,,,,,,,,,,,,,,,,,,,,
,,,,,,,,2023-08-16_08h43.08.144,HF_wild_card,2022.2.4,MacIntel,59.99520038,5eadabbb7f633d08f25db536,64d2fd46c836a06233681665,64dc7df14ff8778d6642da32,,,,,,,decisionTrl,resources/DR.BMP,resources/DG.BMP,Door3,-0.234441037,-0.006799995,1,0,0,0.8667,optionLeft,70,11510,5,33,0,33,0,1,,,,,,,,,,,,,,,,,,,,,,,,,,,,,,,,,,,,,,,
,,,,,,,,2023-08-16_08h43.08.144,HF_wild_card,2022.2.4,MacIntel,59.99520038,5eadabbb7f633d08f25db536,64d2fd46c836a06233681665,64dc7df14ff8778d6642da32,,,,,,,ctch,resources/DY.BMP,resources/DR.BMP,Door3,0.188328976,-0.008744685,1,0,0,0.6327,optionRight,70,11580,5,34,0,34,0,1,,,,,,,,,,,,,,,,,,,,,,,,,,,,,,,,,,,,,,,
,,,,,,,,2023-08-16_08h43.08.144,HF_wild_card,2022.2.4,MacIntel,59.99520038,5eadabbb7f633d08f25db536,64d2fd46c836a06233681665,64dc7df14ff8778d6642da32,,,,,,,decisionTrl,resources/DR.BMP,resources/DP.BMP,Door3,-0.375649092,-0.029890272,1,0,0,1.2137,optionLeft,70,11650,5,35,0,35,0,1,,,,,,,,,,,,,,,,,,,,,,,,,,,,,,,,,,,,,,,
,,,,,,,,2023-08-16_08h43.08.144,HF_wild_card,2022.2.4,MacIntel,59.99520038,5eadabbb7f633d08f25db536,64d2fd46c836a06233681665,64dc7df14ff8778d6642da32,,,,,,,decisionTrl,resources/DR.BMP,resources/DP.BMP,Door3,-0.349988259,0.000566779,1,0,0,0.731,optionLeft,70,11720,5,36,0,36,0,1,,,,,,,,,,,,,,,,,,,,,,,,,,,,,,,,,,,,,,,
,,,,,,,,2023-08-16_08h43.08.144,HF_wild_card,2022.2.4,MacIntel,59.99520038,5eadabbb7f633d08f25db536,64d2fd46c836a06233681665,64dc7df14ff8778d6642da32,,,,,,,sngl,resources/DP.BMP,resources/Empty.png,Door4,-0.386655172,-0.00520223,1,0,0,0.7157,optionLeft,80,11800,5,37,0,37,0,1,,,,,,,,,,,,,,,,,,,,,,,,,,,,,,,,,,,,,,,
,,,,,,,,2023-08-16_08h43.08.144,HF_wild_card,2022.2.4,MacIntel,59.99520038,5eadabbb7f633d08f25db536,64d2fd46c836a06233681665,64dc7df14ff8778d6642da32,,,,,,,sngl,resources/DBN.BMP,resources/Empty.png,Door1,-0.215837521,0.004902013,1,0,0,0.6833,optionLeft,30,11830,5,38,0,38,0,1,,,,,,,,,,,,,,,,,,,,,,,,,,,,,,,,,,,,,,,
,,,,,,,,2023-08-16_08h43.08.144,HF_wild_card,2022.2.4,MacIntel,59.99520038,5eadabbb7f633d08f25db536,64d2fd46c836a06233681665,64dc7df14ff8778d6642da32,,,,,,,decisionTrl,resources/DG.BMP,resources/DR.BMP,Door3,0.278470527,-0.022228199,1,0,0,1.099,optionRight,70,11900,5,39,0,39,0,1,,,,,,,,,,,,,,,,,,,,,,,,,,,,,,,,,,,,,,,
,,,,,,,,2023-08-16_08h43.08.144,HF_wild_card,2022.2.4,MacIntel,59.99520038,5eadabbb7f633d08f25db536,64d2fd46c836a06233681665,64dc7df14ff8778d6642da32,,,,,,,sngl,resources/Empty.png,resources/DY.BMP,Door2,0.317124006,-0.025522105,1,0,0,0.7159,optionRight,20,11920,5,40,0,40,0,1,,,,,,,,,,,,,,,,,,,,,,,,,,,,,,,,,,,,,,,
,,,,,,,,2023-08-16_08h43.08.144,HF_wild_card,2022.2.4,MacIntel,59.99520038,5eadabbb7f633d08f25db536,64d2fd46c836a06233681665,64dc7df14ff8778d6642da32,,,,,,,decisionTrl,resources/DP.BMP,resources/DR.BMP,Door3,0.314372932,-0.030180317,1,0,0,1.149,optionRight,70,11990,5,41,0,41,0,1,,,,,,,,,,,,,,,,,,,,,,,,,,,,,,,,,,,,,,,
,,,,,,,,2023-08-16_08h43.08.144,HF_wild_card,2022.2.4,MacIntel,59.99520038,5eadabbb7f633d08f25db536,64d2fd46c836a06233681665,64dc7df14ff8778d6642da32,,,,,,,sngl,resources/Empty.png,resources/DP.BMP,Door4,0.272500441,-0.029469384,1,0,0,1.449,optionRight,60,12050,5,42,0,42,0,1,,,,,,,,,,,,,,,,,,,,,,,,,,,,,,,,,,,,,,,
,,,,,,,,2023-08-16_08h43.08.144,HF_wild_card,2022.2.4,MacIntel,59.99520038,5eadabbb7f633d08f25db536,64d2fd46c836a06233681665,64dc7df14ff8778d6642da32,,,,,,,decisionTrl,resources/DG.BMP,resources/DBN.BMP,WildCard_Ex,-0.276615948,-0.017584313,1,0,0,0.9661,optionLeft,55,12105,5,43,0,43,0,1,,,,,,,,,,,,,,,,,,,,,,,,,,,,,,,,,,,,,,,
,,,,,,,,2023-08-16_08h43.08.144,HF_wild_card,2022.2.4,MacIntel,59.99520038,5eadabbb7f633d08f25db536,64d2fd46c836a06233681665,64dc7df14ff8778d6642da32,,,,,,,,,,,,,,,,,,,,,,,,,,4,0,4,0,1,,,,,,,,,,,,,,,,,,,,,,,,,,,,,,,,,,
,,,,,,,,2023-08-16_08h43.08.144,HF_wild_card,2022.2.4,MacIntel,59.99520038,5eadabbb7f633d08f25db536,64d2fd46c836a06233681665,64dc7df14ff8778d6642da32,,,,,,,decisionTrl,resources/DY.BMP,resources/DBN.BMP,Door1,0.299585978,-0.017605379,1,0,0,1.179,optionRight,30,12135,6,0,0,0,0,1,,,,,,,,,,,,,,,,,,,,,,,,,,,,,,,,,,,,,,,
,,,,,,,,2023-08-16_08h43.08.144,HF_wild_card,2022.2.4,MacIntel,59.99520038,5eadabbb7f633d08f25db536,64d2fd46c836a06233681665,64dc7df14ff8778d6642da32,,,,,,,decisionTrl,resources/DP.BMP,resources/DG.BMP,Door4,-0.200800323,-0.005263816,1,0,0,1.3159,optionLeft,60,12195,6,1,0,1,0,1,,,,,,,,,,,,,,,,,,,,,,,,,,,,,,,,,,,,,,,
,,,,,,,,2023-08-16_08h43.08.144,HF_wild_card,2022.2.4,MacIntel,59.99520038,5eadabbb7f633d08f25db536,64d2fd46c836a06233681665,64dc7df14ff8778d6642da32,,,,,,,decisionTrl,resources/DY.BMP,resources/DBN.BMP,Door1,0.306212446,-0.0033677,1,0,0,3.6652,optionRight,30,12225,6,2,0,2,0,1,,,,,,,,,,,,,,,,,,,,,,,,,,,,,,,,,,,,,,,
,,,,,,,,2023-08-16_08h43.08.144,HF_wild_card,2022.2.4,MacIntel,59.99520038,5eadabbb7f633d08f25db536,64d2fd46c836a06233681665,64dc7df14ff8778d6642da32,,,,,,,sngl,resources/Empty.png,resources/DY.BMP,Door2,0.206032393,-0.015648482,1,0,0,0.5985,optionRight,40,12265,6,3,0,3,0,1,,,,,,,,,,,,,,,,,,,,,,,,,,,,,,,,,,,,,,,
,,,,,,,,2023-08-16_08h43.08.144,HF_wild_card,2022.2.4,MacIntel,59.99520038,5eadabbb7f633d08f25db536,64d2fd46c836a06233681665,64dc7df14ff8778d6642da32,,,,,,,decisionTrl,resources/DP.BMP,resources/DR.BMP,Door3,0.206880273,-0.022677104,1,0,0,0.9839,optionRight,70,12335,6,4,0,4,0,1,,,,,,,,,,,,,,,,,,,,,,,,,,,,,,,,,,,,,,,
,,,,,,,,2023-08-16_08h43.08.144,HF_wild_card,2022.2.4,MacIntel,59.99520038,5eadabbb7f633d08f25db536,64d2fd46c836a06233681665,64dc7df14ff8778d6642da32,,,,,,,sngl,resources/Empty.png,resources/DR.BMP,Door3,0.376707628,-0.009675768,1,0,0,0.5011,optionRight,70,12405,6,5,0,5,0,1,,,,,,,,,,,,,,,,,,,,,,,,,,,,,,,,,,,,,,,
,,,,,,,,2023-08-16_08h43.08.144,HF_wild_card,2022.2.4,MacIntel,59.99520038,5eadabbb7f633d08f25db536,64d2fd46c836a06233681665,64dc7df14ff8778d6642da32,,,,,,,decisionTrl,resources/DG.BMP,resources/DR.BMP,Door3,0.200881534,-0.010995356,1,0,0,1.0824,optionRight,70,12475,6,6,0,6,0,1,,,,,,,,,,,,,,,,,,,,,,,,,,,,,,,,,,,,,,,
,,,,,,,,2023-08-16_08h43.08.144,HF_wild_card,2022.2.4,MacIntel,59.99520038,5eadabbb7f633d08f25db536,64d2fd46c836a06233681665,64dc7df14ff8778d6642da32,,,,,,,decisionTrl,resources/DBN.BMP,resources/DY.BMP,Door1,-0.181832971,0.004418606,1,0,0,1.0472,optionLeft,30,12505,6,7,0,7,0,1,,,,,,,,,,,,,,,,,,,,,,,,,,,,,,,,,,,,,,,
,,,,,,,,2023-08-16_08h43.08.144,HF_wild_card,2022.2.4,MacIntel,59.99520038,5eadabbb7f633d08f25db536,64d2fd46c836a06233681665,64dc7df14ff8778d6642da32,,,,,,,sngl,resources/DY.BMP,resources/Empty.png,Door2,-0.206513723,-0.018377897,1,0,0,0.535,optionLeft,20,12525,6,8,0,8,0,1,,,,,,,,,,,,,,,,,,,,,,,,,,,,,,,,,,,,,,,
,,,,,,,,2023-08-16_08h43.08.144,HF_wild_card,2022.2.4,MacIntel,59.99520038,5eadabbb7f633d08f25db536,64d2fd46c836a06233681665,64dc7df14ff8778d6642da32,,,,,,,decisionTrl,resources/DR.BMP,resources/DP.BMP,Door3,-0.225100411,-0.019083447,1,0,0,0.9993,optionLeft,70,12595,6,9,0,9,0,1,,,,,,,,,,,,,,,,,,,,,,,,,,,,,,,,,,,,,,,
,,,,,,,,2023-08-16_08h43.08.144,HF_wild_card,2022.2.4,MacIntel,59.99520038,5eadabbb7f633d08f25db536,64d2fd46c836a06233681665,64dc7df14ff8778d6642da32,,,,,,,ctch,resources/DBN.BMP,resources/DP.BMP,Door4,0.1939092,-0.003238085,1,0,0,1.0516,optionRight,80,12675,6,10,0,10,0,1,,,,,,,,,,,,,,,,,,,,,,,,,,,,,,,,,,,,,,,
,,,,,,,,2023-08-16_08h43.08.144,HF_wild_card,2022.2.4,MacIntel,59.99520038,5eadabbb7f633d08f25db536,64d2fd46c836a06233681665,64dc7df14ff8778d6642da32,,,,,,,decisionTrl,resources/DBN.BMP,resources/DY.BMP,Door1,-0.194071706,0.016017405,1,0,0,1.4657,optionLeft,30,12705,6,11,0,11,0,1,,,,,,,,,,,,,,,,,,,,,,,,,,,,,,,,,,,,,,,
,,,,,,,,2023-08-16_08h43.08.144,HF_wild_card,2022.2.4,MacIntel,59.99520038,5eadabbb7f633d08f25db536,64d2fd46c836a06233681665,64dc7df14ff8778d6642da32,,,,,,,decisionTrl,resources/DP.BMP,resources/DR.BMP,Door3,0.296430969,0.003749424,1,0,0,0.6827,optionRight,70,12775,6,12,0,12,0,1,,,,,,,,,,,,,,,,,,,,,,,,,,,,,,,,,,,,,,,
,,,,,,,,2023-08-16_08h43.08.144,HF_wild_card,2022.2.4,MacIntel,59.99520038,5eadabbb7f633d08f25db536,64d2fd46c836a06233681665,64dc7df14ff8778d6642da32,,,,,,,ctch,resources/DP.BMP,resources/DBN.BMP,Door4,-0.142617798,0.003713353,1,0,0,0.9159,optionLeft,80,12855,6,13,0,13,0,1,,,,,,,,,,,,,,,,,,,,,,,,,,,,,,,,,,,,,,,
,,,,,,,,2023-08-16_08h43.08.144,HF_wild_card,2022.2.4,MacIntel,59.99520038,5eadabbb7f633d08f25db536,64d2fd46c836a06233681665,64dc7df14ff8778d6642da32,,,,,,,decisionTrl,resources/DP.BMP,resources/DR.BMP,Door4,-0.270333099,0.009490755,1,0,0,0.7493,optionLeft,80,12935,6,14,0,14,0,1,,,,,,,,,,,,,,,,,,,,,,,,,,,,,,,,,,,,,,,
,,,,,,,,2023-08-16_08h43.08.144,HF_wild_card,2022.2.4,MacIntel,59.99520038,5eadabbb7f633d08f25db536,64d2fd46c836a06233681665,64dc7df14ff8778d6642da32,,,,,,,sngl,resources/DG.BMP,resources/Empty.png,WildCard_Ex,-0.170733303,-0.004677031,1,0,0,0.6824,optionLeft,45,12980,6,15,0,15,0,1,,,,,,,,,,,,,,,,,,,,,,,,,,,,,,,,,,,,,,,
,,,,,,,,2023-08-16_08h43.08.144,HF_wild_card,2022.2.4,MacIntel,59.99520038,5eadabbb7f633d08f25db536,64d2fd46c836a06233681665,64dc7df14ff8778d6642da32,,,,,,,decisionTrl,resources/DR.BMP,resources/DG.BMP,Door3,-0.215394338,-0.005688816,1,0,0,1.7189,optionLeft,70,13050,6,16,0,16,0,1,,,,,,,,,,,,,,,,,,,,,,,,,,,,,,,,,,,,,,,
,,,,,,,,2023-08-16_08h43.08.144,HF_wild_card,2022.2.4,MacIntel,59.99520038,5eadabbb7f633d08f25db536,64d2fd46c836a06233681665,64dc7df14ff8778d6642da32,,,,,,,sngl,resources/Empty.png,resources/DP.BMP,Door4,0.258943515,-0.032187525,1,0,0,1.6654,optionRight,80,13130,6,17,0,17,0,1,,,,,,,,,,,,,,,,,,,,,,,,,,,,,,,,,,,,,,,
,,,,,,,,2023-08-16_08h43.08.144,HF_wild_card,2022.2.4,MacIntel,59.99520038,5eadabbb7f633d08f25db536,64d2fd46c836a06233681665,64dc7df14ff8778d6642da32,,,,,,,decisionTrl,resources/DG.BMP,resources/DBN.BMP,WildCard_Ex,-0.333403015,0.006065157,1,0,0,1.25,optionLeft,45,13175,6,18,0,18,0,1,,,,,,,,,,,,,,,,,,,,,,,,,,,,,,,,,,,,,,,
,,,,,,,,2023-08-16_08h43.08.144,HF_wild_card,2022.2.4,MacIntel,59.99520038,5eadabbb7f633d08f25db536,64d2fd46c836a06233681665,64dc7df14ff8778d6642da32,,,,,,,sngl,resources/DG.BMP,resources/Empty.png,WildCard_Ex,-0.196623315,0.013806152,1,0,0,1.7652,optionLeft,55,13230,6,19,0,19,0,1,,,,,,,,,,,,,,,,,,,,,,,,,,,,,,,,,,,,,,,
,,,,,,,,2023-08-16_08h43.08.144,HF_wild_card,2022.2.4,MacIntel,59.99520038,5eadabbb7f633d08f25db536,64d2fd46c836a06233681665,64dc7df14ff8778d6642da32,,,,,,,sngl,resources/Empty.png,resources/DBN.BMP,Door1,0.276938036,-0.011947166,1,0,0,0.7645,optionRight,30,13260,6,20,0,20,0,1,,,,,,,,,,,,,,,,,,,,,,,,,,,,,,,,,,,,,,,
,,,,,,,,2023-08-16_08h43.08.144,HF_wild_card,2022.2.4,MacIntel,59.99520038,5eadabbb7f633d08f25db536,64d2fd46c836a06233681665,64dc7df14ff8778d6642da32,,,,,,,ctch,resources/DP.BMP,resources/DBN.BMP,Door4,-0.189742957,0.01469184,1,0,0,0.6483,optionLeft,80,13340,6,21,0,21,0,1,,,,,,,,,,,,,,,,,,,,,,,,,,,,,,,,,,,,,,,
,,,,,,,,2023-08-16_08h43.08.144,HF_wild_card,2022.2.4,MacIntel,59.99520038,5eadabbb7f633d08f25db536,64d2fd46c836a06233681665,64dc7df14ff8778d6642da32,,,,,,,decisionTrl,resources/DR.BMP,resources/DP.BMP,Door3,-0.312713708,0.01688669,1,0,0,0.9826,optionLeft,70,13410,6,22,0,22,0,1,,,,,,,,,,,,,,,,,,,,,,,,,,,,,,,,,,,,,,,
,,,,,,,,2023-08-16_08h43.08.144,HF_wild_card,2022.2.4,MacIntel,59.99520038,5eadabbb7f633d08f25db536,64d2fd46c836a06233681665,64dc7df14ff8778d6642da32,,,,,,,decisionTrl,resources/DR.BMP,resources/DP.BMP,Door3,-0.317504077,0.04238205,1,0,0,0.6157,optionLeft,70,13480,6,23,0,23,0,1,,,,,,,,,,,,,,,,,,,,,,,,,,,,,,,,,,,,,,,
,,,,,,,,2023-08-16_08h43.08.144,HF_wild_card,2022.2.4,MacIntel,59.99520038,5eadabbb7f633d08f25db536,64d2fd46c836a06233681665,64dc7df14ff8778d6642da32,,,,,,,ctch,resources/DR.BMP,resources/DY.BMP,Door3,-0.243772422,0.041385651,1,0,0,0.5145,optionLeft,70,13550,6,24,0,24,0,1,,,,,,,,,,,,,,,,,,,,,,,,,,,,,,,,,,,,,,,
,,,,,,,,2023-08-16_08h43.08.144,HF_wild_card,2022.2.4,MacIntel,59.99520038,5eadabbb7f633d08f25db536,64d2fd46c836a06233681665,64dc7df14ff8778d6642da32,,,,,,,sngl,resources/DBN.BMP,resources/Empty.png,Door1,-0.286722861,0.04744907,1,0,0,0.5323,optionLeft,30,13580,6,25,0,25,0,1,,,,,,,,,,,,,,,,,,,,,,,,,,,,,,,,,,,,,,,
,,,,,,,,2023-08-16_08h43.08.144,HF_wild_card,2022.2.4,MacIntel,59.99520038,5eadabbb7f633d08f25db536,64d2fd46c836a06233681665,64dc7df14ff8778d6642da32,,,,,,,decisionTrl,resources/DP.BMP,resources/DR.BMP,Door3,0.327302975,0.045071454,1,0,0,0.9667,optionRight,70,13650,6,26,0,26,0,1,,,,,,,,,,,,,,,,,,,,,,,,,,,,,,,,,,,,,,,
,,,,,,,,2023-08-16_08h43.08.144,HF_wild_card,2022.2.4,MacIntel,59.99520038,5eadabbb7f633d08f25db536,64d2fd46c836a06233681665,64dc7df14ff8778d6642da32,,,,,,,decisionTrl,resources/DBN.BMP,resources/DY.BMP,Door1,-0.132664998,0.038453674,1,0,0,1.3692,optionLeft,30,13680,6,27,0,27,0,1,,,,,,,,,,,,,,,,,,,,,,,,,,,,,,,,,,,,,,,
,,,,,,,,2023-08-16_08h43.08.144,HF_wild_card,2022.2.4,MacIntel,59.99520038,5eadabbb7f633d08f25db536,64d2fd46c836a06233681665,64dc7df14ff8778d6642da32,,,,,,,decisionTrl,resources/DG.BMP,resources/DY.BMP,WildCard_Ex,-0.25340839,0.061015913,1,0,0,2.5188,optionLeft,45,13725,6,28,0,28,0,1,,,,,,,,,,,,,,,,,,,,,,,,,,,,,,,,,,,,,,,
,,,,,,,,2023-08-16_08h43.08.144,HF_wild_card,2022.2.4,MacIntel,59.99520038,5eadabbb7f633d08f25db536,64d2fd46c836a06233681665,64dc7df14ff8778d6642da32,,,,,,,sngl,resources/Empty.png,resources/DG.BMP,WildCard_Ex,0.176733568,0.027589417,1,0,0,0.5147,optionRight,45,13770,6,29,0,29,0,1,,,,,,,,,,,,,,,,,,,,,,,,,,,,,,,,,,,,,,,
,,,,,,,,2023-08-16_08h43.08.144,HF_wild_card,2022.2.4,MacIntel,59.99520038,5eadabbb7f633d08f25db536,64d2fd46c836a06233681665,64dc7df14ff8778d6642da32,,,,,,,ctch,resources/DY.BMP,resources/DR.BMP,Door3,0.233968523,-0.015883425,1,0,0,1.0827,optionRight,70,13840,6,30,0,30,0,1,,,,,,,,,,,,,,,,,,,,,,,,,,,,,,,,,,,,,,,
,,,,,,,,2023-08-16_08h43.08.144,HF_wild_card,2022.2.4,MacIntel,59.99520038,5eadabbb7f633d08f25db536,64d2fd46c836a06233681665,64dc7df14ff8778d6642da32,,,,,,,decisionTrl,resources/DY.BMP,resources/DBN.BMP,Door1,0.322226461,-0.01039327,1,0,0,4.8834,optionRight,30,13870,6,31,0,31,0,1,,,,,,,,,,,,,,,,,,,,,,,,,,,,,,,,,,,,,,,
,,,,,,,,2023-08-16_08h43.08.144,HF_wild_card,2022.2.4,MacIntel,59.99520038,5eadabbb7f633d08f25db536,64d2fd46c836a06233681665,64dc7df14ff8778d6642da32,,,,,,,decisionTrl,resources/DBN.BMP,resources/DG.BMP,WildCard_Ex,0.238893467,-0.045337592,1,0,0,0.8662,optionRight,45,13915,6,32,0,32,0,1,,,,,,,,,,,,,,,,,,,,,,,,,,,,,,,,,,,,,,,
,,,,,,,,2023-08-16_08h43.08.144,HF_wild_card,2022.2.4,MacIntel,59.99520038,5eadabbb7f633d08f25db536,64d2fd46c836a06233681665,64dc7df14ff8778d6642da32,,,,,,,sngl,resources/DP.BMP,resources/Empty.png,Door4,-0.205596754,-0.05895,1,0,0,0.6316,optionLeft,60,13975,6,33,0,33,0,1,,,,,,,,,,,,,,,,,,,,,,,,,,,,,,,,,,,,,,,
,,,,,,,,2023-08-16_08h43.08.144,HF_wild_card,2022.2.4,MacIntel,59.99520038,5eadabbb7f633d08f25db536,64d2fd46c836a06233681665,64dc7df14ff8778d6642da32,,,,,,,sngl,resources/DR.BMP,resources/Empty.png,Door3,-0.199757089,-0.050345018,1,0,0,0.6309,optionLeft,70,14045,6,34,0,34,0,1,,,,,,,,,,,,,,,,,,,,,,,,,,,,,,,,,,,,,,,
,,,,,,,,2023-08-16_08h43.08.144,HF_wild_card,2022.2.4,MacIntel,59.99520038,5eadabbb7f633d08f25db536,64d2fd46c836a06233681665,64dc7df14ff8778d6642da32,,,,,,,decisionTrl,resources/DG.BMP,resources/DP.BMP,Door4,0.347179328,-0.073755815,1,0,0,0.7172,optionRight,60,14105,6,35,0,35,0,1,,,,,,,,,,,,,,,,,,,,,,,,,,,,,,,,,,,,,,,
,,,,,,,,2023-08-16_08h43.08.144,HF_wild_card,2022.2.4,MacIntel,59.99520038,5eadabbb7f633d08f25db536,64d2fd46c836a06233681665,64dc7df14ff8778d6642da32,,,,,,,decisionTrl,resources/DY.BMP,resources/DBN.BMP,Door1,0.377051883,-0.053991954,1,0,0,0.916,optionRight,30,14135,6,36,0,36,0,1,,,,,,,,,,,,,,,,,,,,,,,,,,,,,,,,,,,,,,,
,,,,,,,,2023-08-16_08h43.08.144,HF_wild_card,2022.2.4,MacIntel,59.99520038,5eadabbb7f633d08f25db536,64d2fd46c836a06233681665,64dc7df14ff8778d6642da32,,,,,,,decisionTrl,resources/DY.BMP,resources/DG.BMP,WildCard_Ex,0.340539805,-0.027736198,1,0,0,0.8991,optionRight,55,14190,6,37,0,37,0,1,,,,,,,,,,,,,,,,,,,,,,,,,,,,,,,,,,,,,,,
,,,,,,,,2023-08-16_08h43.08.144,HF_wild_card,2022.2.4,MacIntel,59.99520038,5eadabbb7f633d08f25db536,64d2fd46c836a06233681665,64dc7df14ff8778d6642da32,,,,,,,ctch,resources/DBN.BMP,resources/DP.BMP,Door4,0.402711656,-0.0447116,1,0,0,0.5839,optionRight,80,14270,6,38,0,38,0,1,,,,,,,,,,,,,,,,,,,,,,,,,,,,,,,,,,,,,,,
,,,,,,,,2023-08-16_08h43.08.144,HF_wild_card,2022.2.4,MacIntel,59.99520038,5eadabbb7f633d08f25db536,64d2fd46c836a06233681665,64dc7df14ff8778d6642da32,,,,,,,decisionTrl,resources/DR.BMP,resources/DP.BMP,Door3,-0.223801719,-0.012604438,1,0,0,0.7471,optionLeft,70,14340,6,39,0,39,0,1,,,,,,,,,,,,,,,,,,,,,,,,,,,,,,,,,,,,,,,
,,,,,,,,2023-08-16_08h43.08.144,HF_wild_card,2022.2.4,MacIntel,59.99520038,5eadabbb7f633d08f25db536,64d2fd46c836a06233681665,64dc7df14ff8778d6642da32,,,,,,,decisionTrl,resources/DBN.BMP,resources/DY.BMP,Door1,-0.216859309,-0.006981744,1,0,0,0.9331,optionLeft,30,14370,6,40,0,40,0,1,,,,,,,,,,,,,,,,,,,,,,,,,,,,,,,,,,,,,,,
,,,,,,,,2023-08-16_08h43.08.144,HF_wild_card,2022.2.4,MacIntel,59.99520038,5eadabbb7f633d08f25db536,64d2fd46c836a06233681665,64dc7df14ff8778d6642da32,,,,,,,ctch,resources/DY.BMP,resources/DR.BMP,Door3,0.249285973,-0.010320833,1,0,0,0.6656,optionRight,70,14440,6,41,0,41,0,1,,,,,,,,,,,,,,,,,,,,,,,,,,,,,,,,,,,,,,,
,,,,,,,,2023-08-16_08h43.08.144,HF_wild_card,2022.2.4,MacIntel,59.99520038,5eadabbb7f633d08f25db536,64d2fd46c836a06233681665,64dc7df14ff8778d6642da32,,,,,,,sngl,resources/Empty.png,resources/DG.BMP,WildCard_Ex,0.15739958,-0.020777427,1,0,0,0.582,optionRight,55,14495,6,42,0,42,0,1,,,,,,,,,,,,,,,,,,,,,,,,,,,,,,,,,,,,,,,
,,,,,,,,2023-08-16_08h43.08.144,HF_wild_card,2022.2.4,MacIntel,59.99520038,5eadabbb7f633d08f25db536,64d2fd46c836a06233681665,64dc7df14ff8778d6642da32,,,,,,,ctch,resources/DR.BMP,resources/DY.BMP,Door3,-0.26874076,-0.005637699,1,0,0,0.711,optionLeft,70,14565,6,43,0,43,0,1,,,,,,,,,,,,,,,,,,,,,,,,,,,,,,,,,,,,,,,
,,,,,,,,2023-08-16_08h43.08.144,HF_wild_card,2022.2.4,MacIntel,59.99520038,5eadabbb7f633d08f25db536,64d2fd46c836a06233681665,64dc7df14ff8778d6642da32,,,,,,,,,,,,,,,,,,,,,,,,,,5,0,5,0,1,,,,,,,,,,,,,,,,,,,,,,,,,,,,,,,,,,
,,,,,,,,2023-08-16_08h43.08.144,HF_wild_card,2022.2.4,MacIntel,59.99520038,5eadabbb7f633d08f25db536,64d2fd46c836a06233681665,64dc7df14ff8778d6642da32,,,,,,,decisionTrl,resources/DY.BMP,resources/DBN.BMP,Door1,0.294276513,-0.027372106,1,0,0,1.5425,optionRight,30,14595,7,0,0,0,0,1,,,,,,,,,,,,,,,,,,,,,,,,,,,,,,,,,,,,,,,
,,,,,,,,2023-08-16_08h43.08.144,HF_wild_card,2022.2.4,MacIntel,59.99520038,5eadabbb7f633d08f25db536,64d2fd46c836a06233681665,64dc7df14ff8778d6642da32,,,,,,,decisionTrl,resources/DR.BMP,resources/DP.BMP,Door3,-0.275011868,-0.009542677,1,0,0,1.1332,optionLeft,70,14665,7,1,0,1,0,1,,,,,,,,,,,,,,,,,,,,,,,,,,,,,,,,,,,,,,,
,,,,,,,,2023-08-16_08h43.08.144,HF_wild_card,2022.2.4,MacIntel,59.99520038,5eadabbb7f633d08f25db536,64d2fd46c836a06233681665,64dc7df14ff8778d6642da32,,,,,,,ctch,resources/DBN.BMP,resources/DP.BMP,Door4,0.313141717,0.007516183,1,0,0,0.9501,optionRight,80,14745,7,2,0,2,0,1,,,,,,,,,,,,,,,,,,,,,,,,,,,,,,,,,,,,,,,
,,,,,,,,2023-08-16_08h43.08.144,HF_wild_card,2022.2.4,MacIntel,59.99520038,5eadabbb7f633d08f25db536,64d2fd46c836a06233681665,64dc7df14ff8778d6642da32,,,,,,,decisionTrl,resources/DY.BMP,resources/DBN.BMP,Door1,0.32629047,0.00241144,1,0,0,1.1338,optionRight,30,14775,7,3,0,3,0,1,,,,,,,,,,,,,,,,,,,,,,,,,,,,,,,,,,,,,,,
,,,,,,,,2023-08-16_08h43.08.144,HF_wild_card,2022.2.4,MacIntel,59.99520038,5eadabbb7f633d08f25db536,64d2fd46c836a06233681665,64dc7df14ff8778d6642da32,,,,,,,ctch,resources/DP.BMP,resources/DBN.BMP,Door4,-0.349943924,0.016115824,1,0,0,1.1006,optionLeft,80,14855,7,4,0,4,0,1,,,,,,,,,,,,,,,,,,,,,,,,,,,,,,,,,,,,,,,
,,,,,,,,2023-08-16_08h43.08.144,HF_wild_card,2022.2.4,MacIntel,59.99520038,5eadabbb7f633d08f25db536,64d2fd46c836a06233681665,64dc7df14ff8778d6642da32,,,,,,,decisionTrl,resources/DBN.BMP,resources/DY.BMP,Door1,-0.451492818,0.016928228,1,0,0,1.3174,optionLeft,30,14885,7,5,0,5,0,1,,,,,,,,,,,,,,,,,,,,,,,,,,,,,,,,,,,,,,,
,,,,,,,,2023-08-16_08h43.08.144,HF_wild_card,2022.2.4,MacIntel,59.99520038,5eadabbb7f633d08f25db536,64d2fd46c836a06233681665,64dc7df14ff8778d6642da32,,,,,,,ctch,resources/DP.BMP,resources/DBN.BMP,Door4,-0.36813435,-0.007933765,1,0,0,1.9815,optionLeft,60,14945,7,6,0,6,0,1,,,,,,,,,,,,,,,,,,,,,,,,,,,,,,,,,,,,,,,
,,,,,,,,2023-08-16_08h43.08.144,HF_wild_card,2022.2.4,MacIntel,59.99520038,5eadabbb7f633d08f25db536,64d2fd46c836a06233681665,64dc7df14ff8778d6642da32,,,,,,,decisionTrl,resources/DR.BMP,resources/DP.BMP,Door3,-0.452977286,0.00494211,1,0,0,1.3192,optionLeft,70,15015,7,7,0,7,0,1,,,,,,,,,,,,,,,,,,,,,,,,,,,,,,,,,,,,,,,
,,,,,,,,2023-08-16_08h43.08.144,HF_wild_card,2022.2.4,MacIntel,59.99520038,5eadabbb7f633d08f25db536,64d2fd46c836a06233681665,64dc7df14ff8778d6642da32,,,,,,,ctch,resources/DR.BMP,resources/DY.BMP,Door3,-0.299878523,-0.011842177,1,0,0,0.8849,optionLeft,70,15085,7,8,0,8,0,1,,,,,,,,,,,,,,,,,,,,,,,,,,,,,,,,,,,,,,,
,,,,,,,,2023-08-16_08h43.08.144,HF_wild_card,2022.2.4,MacIntel,59.99520038,5eadabbb7f633d08f25db536,64d2fd46c836a06233681665,64dc7df14ff8778d6642da32,,,,,,,decisionTrl,resources/DY.BMP,resources/DBN.BMP,Door1,0.393219079,-0.015274472,1,0,0,0.9681,optionRight,30,15115,7,9,0,9,0,1,,,,,,,,,,,,,,,,,,,,,,,,,,,,,,,,,,,,,,,
,,,,,,,,2023-08-16_08h43.08.144,HF_wild_card,2022.2.4,MacIntel,59.99520038,5eadabbb7f633d08f25db536,64d2fd46c836a06233681665,64dc7df14ff8778d6642da32,,,,,,,decisionTrl,resources/DY.BMP,resources/DBN.BMP,Door1,0.403881412,-0.01517156,1,0,0,0.7654,optionRight,30,15145,7,10,0,10,0,1,,,,,,,,,,,,,,,,,,,,,,,,,,,,,,,,,,,,,,,
,,,,,,,,2023-08-16_08h43.08.144,HF_wild_card,2022.2.4,MacIntel,59.99520038,5eadabbb7f633d08f25db536,64d2fd46c836a06233681665,64dc7df14ff8778d6642da32,,,,,,,decisionTrl,resources/DR.BMP,resources/DP.BMP,Door3,-0.351840803,-0.015420193,1,0,0,1.2828,optionLeft,70,15215,7,11,0,11,0,1,,,,,,,,,,,,,,,,,,,,,,,,,,,,,,,,,,,,,,,
,,,,,,,,2023-08-16_08h43.08.144,HF_wild_card,2022.2.4,MacIntel,59.99520038,5eadabbb7f633d08f25db536,64d2fd46c836a06233681665,64dc7df14ff8778d6642da32,,,,,,,decisionTrl,resources/DP.BMP,resources/DR.BMP,Door3,0.373022122,-0.025766246,1,0,0,0.8838,optionRight,70,15285,7,12,0,12,0,1,,,,,,,,,,,,,,,,,,,,,,,,,,,,,,,,,,,,,,,
,,,,,,,,2023-08-16_08h43.08.144,HF_wild_card,2022.2.4,MacIntel,59.99520038,5eadabbb7f633d08f25db536,64d2fd46c836a06233681665,64dc7df14ff8778d6642da32,,,,,,,ctch,resources/DY.BMP,resources/DR.BMP,Door3,0.347287665,-0.035259077,1,0,0,0.7493,optionRight,70,15355,7,13,0,13,0,1,,,,,,,,,,,,,,,,,,,,,,,,,,,,,,,,,,,,,,,
,,,,,,,,2023-08-16_08h43.08.144,HF_wild_card,2022.2.4,MacIntel,59.99520038,5eadabbb7f633d08f25db536,64d2fd46c836a06233681665,64dc7df14ff8778d6642da32,,,,,,,decisionTrl,resources/DR.BMP,resources/DP.BMP,Door3,-0.357536909,-0.009253269,1,0,0,1.1826,optionLeft,70,15425,7,14,0,14,0,1,,,,,,,,,,,,,,,,,,,,,,,,,,,,,,,,,,,,,,,
,,,,,,,,2023-08-16_08h43.08.144,HF_wild_card,2022.2.4,MacIntel,59.99520038,5eadabbb7f633d08f25db536,64d2fd46c836a06233681665,64dc7df14ff8778d6642da32,,,,,,,decisionTrl,resources/DP.BMP,resources/DR.BMP,Door3,0.361605072,-0.026481289,1,0,0,0.8044,optionRight,70,15495,7,15,0,15,0,1,,,,,,,,,,,,,,,,,,,,,,,,,,,,,,,,,,,,,,,
,,,,,,,,2023-08-16_08h43.08.144,HF_wild_card,2022.2.4,MacIntel,59.99520038,5eadabbb7f633d08f25db536,64d2fd46c836a06233681665,64dc7df14ff8778d6642da32,,,,,,,decisionTrl,resources/DBN.BMP,resources/DY.BMP,Door1,-0.293545108,-0.001455519,1,0,0,1.1168,optionLeft,30,15525,7,16,0,16,0,1,,,,,,,,,,,,,,,,,,,,,,,,,,,,,,,,,,,,,,,
,,,,,,,,2023-08-16_08h43.08.144,HF_wild_card,2022.2.4,MacIntel,59.99520038,5eadabbb7f633d08f25db536,64d2fd46c836a06233681665,64dc7df14ff8778d6642da32,,,,,,,decisionTrl,resources/DP.BMP,resources/DR.BMP,Door3,0.450293054,-0.027961731,1,0,0,1.015,optionRight,70,15595,7,17,0,17,0,1,,,,,,,,,,,,,,,,,,,,,,,,,,,,,,,,,,,,,,,
,,,,,,,,2023-08-16_08h43.08.144,HF_wild_card,2022.2.4,MacIntel,59.99520038,5eadabbb7f633d08f25db536,64d2fd46c836a06233681665,64dc7df14ff8778d6642da32,,,,,,,ctch,resources/DR.BMP,resources/DY.BMP,Door3,-0.416946877,-0.006296582,1,0,0,0.8164,optionLeft,70,15665,7,18,0,18,0,1,,,,,,,,,,,,,,,,,,,,,,,,,,,,,,,,,,,,,,,
,,,,,,,,2023-08-16_08h43.08.144,HF_wild_card,2022.2.4,MacIntel,59.99520038,5eadabbb7f633d08f25db536,64d2fd46c836a06233681665,64dc7df14ff8778d6642da32,,,,,,,ctch,resources/DY.BMP,resources/DR.BMP,Door3,0.350766161,-0.022115665,1,0,0,0.7035,optionRight,70,15735,7,19,0,19,0,1,,,,,,,,,,,,,,,,,,,,,,,,,,,,,,,,,,,,,,,
,,,,,,,,2023-08-16_08h43.08.144,HF_wild_card,2022.2.4,MacIntel,59.99520038,5eadabbb7f633d08f25db536,64d2fd46c836a06233681665,64dc7df14ff8778d6642da32,,,,,,,decisionTrl,resources/DR.BMP,resources/DP.BMP,Door3,-0.270293511,-0.007575819,1,0,0,1.4823,optionLeft,70,15805,7,20,0,20,0,1,,,,,,,,,,,,,,,,,,,,,,,,,,,,,,,,,,,,,,,
,,,,,,,,2023-08-16_08h43.08.144,HF_wild_card,2022.2.4,MacIntel,59.99520038,5eadabbb7f633d08f25db536,64d2fd46c836a06233681665,64dc7df14ff8778d6642da32,,,,,,,decisionTrl,resources/DY.BMP,resources/DBN.BMP,Door1,0.378022766,-0.016792933,1,0,0,2.3474,optionRight,30,15835,7,21,0,21,0,1,,,,,,,,,,,,,,,,,,,,,,,,,,,,,,,,,,,,,,,
,,,,,,,,2023-08-16_08h43.08.144,HF_wild_card,2022.2.4,MacIntel,59.99520038,5eadabbb7f633d08f25db536,64d2fd46c836a06233681665,64dc7df14ff8778d6642da32,,,,,,,decisionTrl,resources/DP.BMP,resources/DR.BMP,Door3,0.311665768,-0.032317268,1,0,0,1.8989,optionRight,70,15905,7,22,0,22,0,1,,,,,,,,,,,,,,,,,,,,,,,,,,,,,,,,,,,,,,,
,,,,,,,,2023-08-16_08h43.08.144,HF_wild_card,2022.2.4,MacIntel,59.99520038,5eadabbb7f633d08f25db536,64d2fd46c836a06233681665,64dc7df14ff8778d6642da32,,,,,,,ctch,resources/DBN.BMP,resources/DP.BMP,Door4,0.375553046,-0.034877862,1,0,0,1.1824,optionRight,60,15965,7,23,0,23,0,1,,,,,,,,,,,,,,,,,,,,,,,,,,,,,,,,,,,,,,,
,,,,,,,,2023-08-16_08h43.08.144,HF_wild_card,2022.2.4,MacIntel,59.99520038,5eadabbb7f633d08f25db536,64d2fd46c836a06233681665,64dc7df14ff8778d6642da32,,,,,,,decisionTrl,resources/DP.BMP,resources/DR.BMP,Door4,-0.31895006,-0.033371904,1,0,0,0.7484,optionLeft,60,16025,7,24,0,24,0,1,,,,,,,,,,,,,,,,,,,,,,,,,,,,,,,,,,,,,,,
,,,,,,,,2023-08-16_08h43.08.144,HF_wild_card,2022.2.4,MacIntel,59.99520038,5eadabbb7f633d08f25db536,64d2fd46c836a06233681665,64dc7df14ff8778d6642da32,,,,,,,decisionTrl,resources/DR.BMP,resources/DP.BMP,Door3,-0.346955151,0.003021071,1,0,0,1.0999,optionLeft,70,16095,7,25,0,25,0,1,,,,,,,,,,,,,,,,,,,,,,,,,,,,,,,,,,,,,,,
,,,,,,,,2023-08-16_08h43.08.144,HF_wild_card,2022.2.4,MacIntel,59.99520038,5eadabbb7f633d08f25db536,64d2fd46c836a06233681665,64dc7df14ff8778d6642da32,,,,,,,decisionTrl,resources/DBN.BMP,resources/DY.BMP,Door1,-0.365135193,0.012983958,1,0,0,1.3657,optionLeft,30,16125,7,26,0,26,0,1,,,,,,,,,,,,,,,,,,,,,,,,,,,,,,,,,,,,,,,
,,,,,,,,2023-08-16_08h43.08.144,HF_wild_card,2022.2.4,MacIntel,59.99520038,5eadabbb7f633d08f25db536,64d2fd46c836a06233681665,64dc7df14ff8778d6642da32,,,,,,,decisionTrl,resources/DP.BMP,resources/DR.BMP,Door3,0.393666416,-0.007165358,1,0,0,0.8319,optionRight,70,16195,7,27,0,27,0,1,,,,,,,,,,,,,,,,,,,,,,,,,,,,,,,,,,,,,,,
,,,,,,,,2023-08-16_08h43.08.144,HF_wild_card,2022.2.4,MacIntel,59.99520038,5eadabbb7f633d08f25db536,64d2fd46c836a06233681665,64dc7df14ff8778d6642da32,,,,,,,decisionTrl,resources/DBN.BMP,resources/DY.BMP,Door1,-0.31423946,-0.006518979,1,0,0,1.7333,optionLeft,30,16225,7,28,0,28,0,1,,,,,,,,,,,,,,,,,,,,,,,,,,,,,,,,,,,,,,,
,,,,,,,,2023-08-16_08h43.08.144,HF_wild_card,2022.2.4,MacIntel,59.99520038,5eadabbb7f633d08f25db536,64d2fd46c836a06233681665,64dc7df14ff8778d6642da32,,,,,,,decisionTrl,resources/DBN.BMP,resources/DY.BMP,Door1,-0.236264335,0.002286402,1,0,0,0.9009,optionLeft,30,16255,7,29,0,29,0,1,,,,,,,,,,,,,,,,,,,,,,,,,,,,,,,,,,,,,,,
,,,,,,,,2023-08-16_08h43.08.144,HF_wild_card,2022.2.4,MacIntel,59.99520038,5eadabbb7f633d08f25db536,64d2fd46c836a06233681665,64dc7df14ff8778d6642da32,,,,,,,ctch,resources/DR.BMP,resources/DY.BMP,Door3,-0.4009257,-0.005140601,1,0,0,1.7987,optionLeft,70,16325,7,30,0,30,0,1,,,,,,,,,,,,,,,,,,,,,,,,,,,,,,,,,,,,,,,
,,,,,,,,2023-08-16_08h43.08.144,HF_wild_card,2022.2.4,MacIntel,59.99520038,5eadabbb7f633d08f25db536,64d2fd46c836a06233681665,64dc7df14ff8778d6642da32,,,,,,,ctch,resources/DP.BMP,resources/DBN.BMP,Door4,-0.348340776,0.000948673,1,0,0,1.5154,optionLeft,80,16405,7,31,0,31,0,1,,,,,,,,,,,,,,,,,,,,,,,,,,,,,,,,,,,,,,,
,,,,,,,,2023-08-16_08h43.08.144,HF_wild_card,2022.2.4,MacIntel,59.99520038,5eadabbb7f633d08f25db536,64d2fd46c836a06233681665,64dc7df14ff8778d6642da32,,,,,,,decisionTrl,resources/DBN.BMP,resources/DY.BMP,Door1,-0.417294142,0.023730554,1,0,0,1.6327,optionLeft,30,16435,7,32,0,32,0,1,,,,,,,,,,,,,,,,,,,,,,,,,,,,,,,,,,,,,,,
,,,,,,,,2023-08-16_08h43.08.144,HF_wild_card,2022.2.4,MacIntel,59.99520038,5eadabbb7f633d08f25db536,64d2fd46c836a06233681665,64dc7df14ff8778d6642da32,,,,,,,ctch,resources/DY.BMP,resources/DR.BMP,Door3,0.296708086,-0.00760337,1,0,0,0.9328,optionRight,70,16505,7,33,0,33,0,1,,,,,,,,,,,,,,,,,,,,,,,,,,,,,,,,,,,,,,,
,,,,,,,,2023-08-16_08h43.08.144,HF_wild_card,2022.2.4,MacIntel,59.99520038,5eadabbb7f633d08f25db536,64d2fd46c836a06233681665,64dc7df14ff8778d6642da32,,,,,,,ctch,resources/DBN.BMP,resources/DP.BMP,Door1,-0.391331991,0.020681296,1,0,0,1.1835,optionLeft,30,16535,7,34,0,34,0,1,,,,,,,,,,,,,,,,,,,,,,,,,,,,,,,,,,,,,,,
,,,,,,,,2023-08-16_08h43.08.144,HF_wild_card,2022.2.4,MacIntel,59.99520038,5eadabbb7f633d08f25db536,64d2fd46c836a06233681665,64dc7df14ff8778d6642da32,,,,,,,decisionTrl,resources/DY.BMP,resources/DBN.BMP,Door1,0.280034214,0.008576372,1,0,0,1.1988,optionRight,30,16565,7,35,0,35,0,1,,,,,,,,,,,,,,,,,,,,,,,,,,,,,,,,,,,,,,,
,,,,,,,,2023-08-16_08h43.08.144,HF_wild_card,2022.2.4,MacIntel,59.99520038,5eadabbb7f633d08f25db536,64d2fd46c836a06233681665,64dc7df14ff8778d6642da32,,,,,,,,,,,,,,,,,,,,,,,,,,6,0,6,0,1,,,,,,,,,,,,,,,,,,,,,,,,,,,,,,,,,,
,,,,,,,,2023-08-16_08h43.08.144,HF_wild_card,2022.2.4,MacIntel,59.99520038,5eadabbb7f633d08f25db536,64d2fd46c836a06233681665,64dc7df14ff8778d6642da32,,,,,,,,,,,,,,,,,,,,,,,,,,,,,,,4,,,,,,,,,,,,,,,,,,,,,,,,,,,,,,,,,
,,,,,,,,2023-08-16_08h43.08.144,HF_wild_card,2022.2.4,MacIntel,59.99520038,5eadabbb7f633d08f25db536,64d2fd46c836a06233681665,64dc7df14ff8778d6642da32,,,,,,,,,,,,,,,,,,,,,,,,,,,,,,,,,,,,,,,,,,,,,,,,,,,,,,,,,,,,,,,,
,,,,,,,,2023-08-16_08h43.08.144,HF_wild_card,2022.2.4,MacIntel,59.99520038,5eadabbb7f633d08f25db536,64d2fd46c836a06233681665,64dc7df14ff8778d6642da32,,,,,,,,,,,,,,,,,,,,,,,,,,,,,,,,60,Door4,resources/DP.BMP,0,0,0,0,1,,,,,,,,,,,,,,,,,,,,,,,,,
,,,,,,,,2023-08-16_08h43.08.144,HF_wild_card,2022.2.4,MacIntel,59.99520038,5eadabbb7f633d08f25db536,64d2fd46c836a06233681665,64dc7df14ff8778d6642da32,,,,,,,,,,,,,,,,,,,,,,,,,,,,,,,,55,WC_extreme,resources/DG.BMP,1,0,1,0,1,,,,,,,,,,,,,,,,,,,,,,,,,
,,,,,,,,2023-08-16_08h43.08.144,HF_wild_card,2022.2.4,MacIntel,59.99520038,5eadabbb7f633d08f25db536,64d2fd46c836a06233681665,64dc7df14ff8778d6642da32,,,,,,,,,,,,,,,,,,,,,,,,,,,,,,,,70,Door3,resources/DR.BMP,2,0,2,0,1,,,,,,,,,,,,,,,,,,,,,,,,,
