Condition,Low fixed image (Door1),Low risky image (Door2),High fixed image (Door3),High risky image (Door4),Extreme Wild Card,NonExtreme Wild Card,,date,expName,psychopyVersion,OS,frameRate,PROLIFIC_PID,STUDY_ID,SESSION_ID,mouse_2.x,mouse_2.y,mouse_2.leftButton,mouse_2.midButton,mouse_2.rightButton,mouse_2.clicked_name,Trial Type,Left Option Image,Right Option Image,Chosen Door,mouse.x,mouse.y,mouse.leftButton,mouse.midButton,mouse.rightButton,mouse.time,mouse.clicked_name,Feedback,Cumulative Reward,Block,trial.thisRepN,trial.thisTrialN,trial.thisN,trial.thisIndex,trial.ran,blocks.thisRepN,blocks.thisTrialN,blocks.thisN,blocks.thisIndex,blocks.ran,Money conversion,First Outcome Reported,Shown Door (First Outcome),Displayed Image (First Outcome),outcomes.thisRepN,outcomes.thisTrialN,outcomes.thisN,outcomes.thisIndex,outcomes.ran,judgments.thisRepN,judgments.thisTrialN,judgments.thisN,judgments.thisIndex,judgments.ran,freqMouse.x,freqMouse.y,freqMouse.leftButton,freqMouse.midButton,freqMouse.rightButton,freqMouse.clicked_name,FQJ for first outcome,FQJ for second outcome,Shown Door,Displayed Image,trials.thisRepN,trials.thisTrialN,trials.thisN,trials.thisIndex,trials.ran,judgBlock.thisRepN,judgBlock.thisTrialN,judgBlock.thisN,judgBlock.thisIndex,judgBlock.ran
0,resources/DBN.BMP,resources/DY.BMP,resources/DG.BMP,resources/DB.BMP,resources/DR.BMP,resources/DP.BMP,,2023-08-16_08h52.59.962,HF_wild_card,2022.2.4,Win32,59.89817311,5713cc324cfd6f0009aa7329,64d2fd46c836a06233681665,64dc7ee3219a5a5f237f3755,,,,,,,,,,,,,,,,,,,,,,,,,,,,,,,,,,,,,,,,,,,,,,,,,,,,,,,,,,,,,,,,
,,,,,,,,2023-08-16_08h52.59.962,HF_wild_card,2022.2.4,Win32,59.89817311,5713cc324cfd6f0009aa7329,64d2fd46c836a06233681665,64dc7ee3219a5a5f237f3755,0.029629672,-0.415740755,1,0,0,agree,,,,,,,,,,,,,,,,,,,,,,,,,,,,,,,,,,,,,,,,,,,,,,,,,,,,,,,,,,
,,,,,,,,2023-08-16_08h52.59.962,HF_wild_card,2022.2.4,Win32,59.89817311,5713cc324cfd6f0009aa7329,64d2fd46c836a06233681665,64dc7ee3219a5a5f237f3755,,,,,,,,,,,,,,,,,,,,,,,,,,,,,,,,,,,,,,,,,,,,,,,,,,,,,,,,,,,,,,,,
,,,,,,,,2023-08-16_08h52.59.962,HF_wild_card,2022.2.4,Win32,59.89817311,5713cc324cfd6f0009aa7329,64d2fd46c836a06233681665,64dc7ee3219a5a5f237f3755,,,,,,,decisionTrl,resources/DBN.BMP,resources/DY.BMP,Door1,-0.454629616,-0.15370369,1,0,0,9.7404,optionLeft,30,30,1,0,0,0,0,1,,,,,,,,,,,,,,,,,,,,,,,,,,,,,,,,,,,,,,,
,,,,,,,,2023-08-16_08h52.59.962,HF_wild_card,2022.2.4,Win32,59.89817311,5713cc324cfd6f0009aa7329,64d2fd46c836a06233681665,64dc7ee3219a5a5f237f3755,,,,,,,decisionTrl,resources/DB.BMP,resources/DG.BMP,Door4,-0.400000007,-0.041666667,1,0,0,1.9672,optionLeft,80,110,1,1,0,1,0,1,,,,,,,,,,,,,,,,,,,,,,,,,,,,,,,,,,,,,,,
,,,,,,,,2023-08-16_08h52.59.962,HF_wild_card,2022.2.4,Win32,59.89817311,5713cc324cfd6f0009aa7329,64d2fd46c836a06233681665,64dc7ee3219a5a5f237f3755,,,,,,,decisionTrl,resources/DY.BMP,resources/DBN.BMP,Door1,0.319444444,-0.014814836,1,0,0,3.8421,optionRight,30,140,1,2,0,2,0,1,,,,,,,,,,,,,,,,,,,,,,,,,,,,,,,,,,,,,,,
,,,,,,,,2023-08-16_08h52.59.962,HF_wild_card,2022.2.4,Win32,59.89817311,5713cc324cfd6f0009aa7329,64d2fd46c836a06233681665,64dc7ee3219a5a5f237f3755,,,,,,,sngl,resources/Empty.png,resources/DR.BMP,WildCard_Ex,0.345370399,-0.108333376,1,0,0,1.4463,optionRight,5,145,1,3,0,3,0,1,,,,,,,,,,,,,,,,,,,,,,,,,,,,,,,,,,,,,,,
,,,,,,,,2023-08-16_08h52.59.962,HF_wild_card,2022.2.4,Win32,59.89817311,5713cc324cfd6f0009aa7329,64d2fd46c836a06233681665,64dc7ee3219a5a5f237f3755,,,,,,,sngl,resources/Empty.png,resources/DBN.BMP,Door1,0.350000028,-0.139814801,1,0,0,1.4137,optionRight,30,175,1,4,0,4,0,1,,,,,,,,,,,,,,,,,,,,,,,,,,,,,,,,,,,,,,,
,,,,,,,,2023-08-16_08h52.59.962,HF_wild_card,2022.2.4,Win32,59.89817311,5713cc324cfd6f0009aa7329,64d2fd46c836a06233681665,64dc7ee3219a5a5f237f3755,,,,,,,sngl,resources/DY.BMP,resources/Empty.png,Door2,-0.283333319,-0.039814808,1,0,0,1.4351,optionLeft,40,215,1,5,0,5,0,1,,,,,,,,,,,,,,,,,,,,,,,,,,,,,,,,,,,,,,,
,,,,,,,,2023-08-16_08h52.59.962,HF_wild_card,2022.2.4,Win32,59.89817311,5713cc324cfd6f0009aa7329,64d2fd46c836a06233681665,64dc7ee3219a5a5f237f3755,,,,,,,decisionTrl,resources/DY.BMP,resources/DBN.BMP,Door2,-0.333333333,-0.10555557,1,0,0,2.198,optionLeft,20,235,1,6,0,6,0,1,,,,,,,,,,,,,,,,,,,,,,,,,,,,,,,,,,,,,,,
,,,,,,,,2023-08-16_08h52.59.962,HF_wild_card,2022.2.4,Win32,59.89817311,5713cc324cfd6f0009aa7329,64d2fd46c836a06233681665,64dc7ee3219a5a5f237f3755,,,,,,,decisionTrl,resources/DBN.BMP,resources/DY.BMP,Door1,-0.380555541,-0.094444487,1,0,0,1.047,optionLeft,30,265,1,7,0,7,0,1,,,,,,,,,,,,,,,,,,,,,,,,,,,,,,,,,,,,,,,
,,,,,,,,2023-08-16_08h52.59.962,HF_wild_card,2022.2.4,Win32,59.89817311,5713cc324cfd6f0009aa7329,64d2fd46c836a06233681665,64dc7ee3219a5a5f237f3755,,,,,,,ctch,resources/DB.BMP,resources/DBN.BMP,Door4,-0.343518504,-0.114814829,1,0,0,2.0773,optionLeft,60,325,1,8,0,8,0,1,,,,,,,,,,,,,,,,,,,,,,,,,,,,,,,,,,,,,,,
,,,,,,,,2023-08-16_08h52.59.962,HF_wild_card,2022.2.4,Win32,59.89817311,5713cc324cfd6f0009aa7329,64d2fd46c836a06233681665,64dc7ee3219a5a5f237f3755,,,,,,,decisionTrl,resources/DG.BMP,resources/DB.BMP,Door4,0.359259288,-0.048148155,1,0,0,1.3907,optionRight,60,385,1,9,0,9,0,1,,,,,,,,,,,,,,,,,,,,,,,,,,,,,,,,,,,,,,,
,,,,,,,,2023-08-16_08h52.59.962,HF_wild_card,2022.2.4,Win32,59.89817311,5713cc324cfd6f0009aa7329,64d2fd46c836a06233681665,64dc7ee3219a5a5f237f3755,,,,,,,sngl,resources/Empty.png,resources/DG.BMP,Door3,0.341666751,-0.019444466,1,0,0,1.1928,optionRight,70,455,1,10,0,10,0,1,,,,,,,,,,,,,,,,,,,,,,,,,,,,,,,,,,,,,,,
,,,,,,,,2023-08-16_08h52.59.962,HF_wild_card,2022.2.4,Win32,59.89817311,5713cc324cfd6f0009aa7329,64d2fd46c836a06233681665,64dc7ee3219a5a5f237f3755,,,,,,,decisionTrl,resources/DB.BMP,resources/DG.BMP,Door3,0.399074131,-0.040740755,1,0,0,1.2944,optionRight,70,525,1,11,0,11,0,1,,,,,,,,,,,,,,,,,,,,,,,,,,,,,,,,,,,,,,,
,,,,,,,,2023-08-16_08h52.59.962,HF_wild_card,2022.2.4,Win32,59.89817311,5713cc324cfd6f0009aa7329,64d2fd46c836a06233681665,64dc7ee3219a5a5f237f3755,,,,,,,decisionTrl,resources/DR.BMP,resources/DB.BMP,WildCard_Ex,-0.372222229,-0.110185199,1,0,0,2.3299,optionLeft,5,530,1,12,0,12,0,1,,,,,,,,,,,,,,,,,,,,,,,,,,,,,,,,,,,,,,,
,,,,,,,,2023-08-16_08h52.59.962,HF_wild_card,2022.2.4,Win32,59.89817311,5713cc324cfd6f0009aa7329,64d2fd46c836a06233681665,64dc7ee3219a5a5f237f3755,,,,,,,decisionTrl,resources/DB.BMP,resources/DG.BMP,Door3,0.371296353,-0.071296303,1,0,0,1.7298,optionRight,70,600,1,13,0,13,0,1,,,,,,,,,,,,,,,,,,,,,,,,,,,,,,,,,,,,,,,
,,,,,,,,2023-08-16_08h52.59.962,HF_wild_card,2022.2.4,Win32,59.89817311,5713cc324cfd6f0009aa7329,64d2fd46c836a06233681665,64dc7ee3219a5a5f237f3755,,,,,,,decisionTrl,resources/DY.BMP,resources/DBN.BMP,Door2,-0.398148148,-0.095370399,1,0,0,2.0785,optionLeft,40,640,1,14,0,14,0,1,,,,,,,,,,,,,,,,,,,,,,,,,,,,,,,,,,,,,,,
,,,,,,,,2023-08-16_08h52.59.962,HF_wild_card,2022.2.4,Win32,59.89817311,5713cc324cfd6f0009aa7329,64d2fd46c836a06233681665,64dc7ee3219a5a5f237f3755,,,,,,,decisionTrl,resources/DBN.BMP,resources/DR.BMP,Door1,-0.389814801,-0.135185171,1,0,0,2.6469,optionLeft,30,670,1,15,0,15,0,1,,,,,,,,,,,,,,,,,,,,,,,,,,,,,,,,,,,,,,,
,,,,,,,,2023-08-16_08h52.59.962,HF_wild_card,2022.2.4,Win32,59.89817311,5713cc324cfd6f0009aa7329,64d2fd46c836a06233681665,64dc7ee3219a5a5f237f3755,,,,,,,decisionTrl,resources/DR.BMP,resources/DY.BMP,Door2,0.371296353,-0.081481474,1,0,0,1.7975,optionRight,20,690,1,16,0,16,0,1,,,,,,,,,,,,,,,,,,,,,,,,,,,,,,,,,,,,,,,
,,,,,,,,2023-08-16_08h52.59.962,HF_wild_card,2022.2.4,Win32,59.89817311,5713cc324cfd6f0009aa7329,64d2fd46c836a06233681665,64dc7ee3219a5a5f237f3755,,,,,,,ctch,resources/DG.BMP,resources/DY.BMP,Door3,-0.337037016,-0.075925933,1,0,0,1.1138,optionLeft,70,760,1,17,0,17,0,1,,,,,,,,,,,,,,,,,,,,,,,,,,,,,,,,,,,,,,,
,,,,,,,,2023-08-16_08h52.59.962,HF_wild_card,2022.2.4,Win32,59.89817311,5713cc324cfd6f0009aa7329,64d2fd46c836a06233681665,64dc7ee3219a5a5f237f3755,,,,,,,ctch,resources/DY.BMP,resources/DG.BMP,Door3,0.351851852,-0.085185192,1,0,0,1.3267,optionRight,70,830,1,18,0,18,0,1,,,,,,,,,,,,,,,,,,,,,,,,,,,,,,,,,,,,,,,
,,,,,,,,2023-08-16_08h52.59.962,HF_wild_card,2022.2.4,Win32,59.89817311,5713cc324cfd6f0009aa7329,64d2fd46c836a06233681665,64dc7ee3219a5a5f237f3755,,,,,,,ctch,resources/DB.BMP,resources/DBN.BMP,Door4,-0.309259238,-0.101851852,1,0,0,1.7267,optionLeft,60,890,1,19,0,19,0,1,,,,,,,,,,,,,,,,,,,,,,,,,,,,,,,,,,,,,,,
,,,,,,,,2023-08-16_08h52.59.962,HF_wild_card,2022.2.4,Win32,59.89817311,5713cc324cfd6f0009aa7329,64d2fd46c836a06233681665,64dc7ee3219a5a5f237f3755,,,,,,,decisionTrl,resources/DG.BMP,resources/DR.BMP,Door3,-0.310185185,-0.087962963,1,0,0,0.9479,optionLeft,70,960,1,20,0,20,0,1,,,,,,,,,,,,,,,,,,,,,,,,,,,,,,,,,,,,,,,
,,,,,,,,2023-08-16_08h52.59.962,HF_wild_card,2022.2.4,Win32,59.89817311,5713cc324cfd6f0009aa7329,64d2fd46c836a06233681665,64dc7ee3219a5a5f237f3755,,,,,,,decisionTrl,resources/DBN.BMP,resources/DY.BMP,Door1,-0.332407386,-0.051851873,1,0,0,2.1312,optionLeft,30,990,1,21,0,21,0,1,,,,,,,,,,,,,,,,,,,,,,,,,,,,,,,,,,,,,,,
,,,,,,,,2023-08-16_08h52.59.962,HF_wild_card,2022.2.4,Win32,59.89817311,5713cc324cfd6f0009aa7329,64d2fd46c836a06233681665,64dc7ee3219a5a5f237f3755,,,,,,,decisionTrl,resources/DB.BMP,resources/DR.BMP,Door4,-0.375925912,-0.110185199,1,0,0,1.7933,optionLeft,60,1050,1,22,0,22,0,1,,,,,,,,,,,,,,,,,,,,,,,,,,,,,,,,,,,,,,,
,,,,,,,,2023-08-16_08h52.59.962,HF_wild_card,2022.2.4,Win32,59.89817311,5713cc324cfd6f0009aa7329,64d2fd46c836a06233681665,64dc7ee3219a5a5f237f3755,,,,,,,decisionTrl,resources/DG.BMP,resources/DB.BMP,Door3,-0.377777771,-0.025925919,1,0,0,1.5361,optionLeft,70,1120,1,23,0,23,0,1,,,,,,,,,,,,,,,,,,,,,,,,,,,,,,,,,,,,,,,
,,,,,,,,2023-08-16_08h52.59.962,HF_wild_card,2022.2.4,Win32,59.89817311,5713cc324cfd6f0009aa7329,64d2fd46c836a06233681665,64dc7ee3219a5a5f237f3755,,,,,,,sngl,resources/Empty.png,resources/DR.BMP,WildCard_Ex,0.297222279,-0.055555556,1,0,0,1.3717,optionRight,95,1215,1,24,0,24,0,1,,,,,,,,,,,,,,,,,,,,,,,,,,,,,,,,,,,,,,,
,,,,,,,,2023-08-16_08h52.59.962,HF_wild_card,2022.2.4,Win32,59.89817311,5713cc324cfd6f0009aa7329,64d2fd46c836a06233681665,64dc7ee3219a5a5f237f3755,,,,,,,ctch,resources/DBN.BMP,resources/DB.BMP,Door4,0.359259288,-0.108333376,1,0,0,1.5311,optionRight,60,1275,1,25,0,25,0,1,,,,,,,,,,,,,,,,,,,,,,,,,,,,,,,,,,,,,,,
,,,,,,,,2023-08-16_08h52.59.962,HF_wild_card,2022.2.4,Win32,59.89817311,5713cc324cfd6f0009aa7329,64d2fd46c836a06233681665,64dc7ee3219a5a5f237f3755,,,,,,,sngl,resources/DB.BMP,resources/Empty.png,Door4,-0.347222222,-0.045370384,1,0,0,1.8129,optionLeft,80,1355,1,26,0,26,0,1,,,,,,,,,,,,,,,,,,,,,,,,,,,,,,,,,,,,,,,
,,,,,,,,2023-08-16_08h52.59.962,HF_wild_card,2022.2.4,Win32,59.89817311,5713cc324cfd6f0009aa7329,64d2fd46c836a06233681665,64dc7ee3219a5a5f237f3755,,,,,,,ctch,resources/DBN.BMP,resources/DB.BMP,Door4,0.44722225,-0.056481503,1,0,0,1.364,optionRight,80,1435,1,27,0,27,0,1,,,,,,,,,,,,,,,,,,,,,,,,,,,,,,,,,,,,,,,
,,,,,,,,2023-08-16_08h52.59.962,HF_wild_card,2022.2.4,Win32,59.89817311,5713cc324cfd6f0009aa7329,64d2fd46c836a06233681665,64dc7ee3219a5a5f237f3755,,,,,,,decisionTrl,resources/DR.BMP,resources/DBN.BMP,WildCard_Ex,-0.373148141,-0.064814815,1,0,0,1.585,optionLeft,5,1440,1,28,0,28,0,1,,,,,,,,,,,,,,,,,,,,,,,,,,,,,,,,,,,,,,,
,,,,,,,,2023-08-16_08h52.59.962,HF_wild_card,2022.2.4,Win32,59.89817311,5713cc324cfd6f0009aa7329,64d2fd46c836a06233681665,64dc7ee3219a5a5f237f3755,,,,,,,sngl,resources/Empty.png,resources/DY.BMP,Door2,0.325925898,-0.062037044,1,0,0,1.2108,optionRight,20,1460,1,29,0,29,0,1,,,,,,,,,,,,,,,,,,,,,,,,,,,,,,,,,,,,,,,
,,,,,,,,2023-08-16_08h52.59.962,HF_wild_card,2022.2.4,Win32,59.89817311,5713cc324cfd6f0009aa7329,64d2fd46c836a06233681665,64dc7ee3219a5a5f237f3755,,,,,,,sngl,resources/Empty.png,resources/DB.BMP,Door4,0.294444473,-0.025000007,1,0,0,1.0281,optionRight,60,1520,1,30,0,30,0,1,,,,,,,,,,,,,,,,,,,,,,,,,,,,,,,,,,,,,,,
,,,,,,,,2023-08-16_08h52.59.962,HF_wild_card,2022.2.4,Win32,59.89817311,5713cc324cfd6f0009aa7329,64d2fd46c836a06233681665,64dc7ee3219a5a5f237f3755,,,,,,,decisionTrl,resources/DBN.BMP,resources/DY.BMP,Door1,0.006481524,0.003703683,1,0,0,0.491,optionLeft,30,1550,1,31,0,31,0,1,,,,,,,,,,,,,,,,,,,,,,,,,,,,,,,,,,,,,,,
,,,,,,,,2023-08-16_08h52.59.962,HF_wild_card,2022.2.4,Win32,59.89817311,5713cc324cfd6f0009aa7329,64d2fd46c836a06233681665,64dc7ee3219a5a5f237f3755,,,,,,,decisionTrl,resources/DG.BMP,resources/DB.BMP,Door3,-0.303703697,-0.050000014,1,0,0,1.4801,optionLeft,70,1620,1,32,0,32,0,1,,,,,,,,,,,,,,,,,,,,,,,,,,,,,,,,,,,,,,,
,,,,,,,,2023-08-16_08h52.59.962,HF_wild_card,2022.2.4,Win32,59.89817311,5713cc324cfd6f0009aa7329,64d2fd46c836a06233681665,64dc7ee3219a5a5f237f3755,,,,,,,decisionTrl,resources/DR.BMP,resources/DG.BMP,Door3,0.428703732,-0.028703725,1,0,0,0.8145,optionRight,70,1690,1,33,0,33,0,1,,,,,,,,,,,,,,,,,,,,,,,,,,,,,,,,,,,,,,,
,,,,,,,,2023-08-16_08h52.59.962,HF_wild_card,2022.2.4,Win32,59.89817311,5713cc324cfd6f0009aa7329,64d2fd46c836a06233681665,64dc7ee3219a5a5f237f3755,,,,,,,sngl,resources/DG.BMP,resources/Empty.png,Door3,-0.318518497,-0.091666681,1,0,0,0.7469,optionLeft,70,1760,1,34,0,34,0,1,,,,,,,,,,,,,,,,,,,,,,,,,,,,,,,,,,,,,,,
,,,,,,,,2023-08-16_08h52.59.962,HF_wild_card,2022.2.4,Win32,59.89817311,5713cc324cfd6f0009aa7329,64d2fd46c836a06233681665,64dc7ee3219a5a5f237f3755,,,,,,,sngl,resources/DR.BMP,resources/Empty.png,WildCard_Ex,-0.335185192,-0.077777792,1,0,0,1.1135,optionLeft,95,1855,1,35,0,35,0,1,,,,,,,,,,,,,,,,,,,,,,,,,,,,,,,,,,,,,,,
,,,,,,,,2023-08-16_08h52.59.962,HF_wild_card,2022.2.4,Win32,59.89817311,5713cc324cfd6f0009aa7329,64d2fd46c836a06233681665,64dc7ee3219a5a5f237f3755,,,,,,,decisionTrl,resources/DY.BMP,resources/DBN.BMP,Door1,0.325000057,-0.037037037,1,0,0,1.9536,optionRight,30,1885,1,36,0,36,0,1,,,,,,,,,,,,,,,,,,,,,,,,,,,,,,,,,,,,,,,
,,,,,,,,2023-08-16_08h52.59.962,HF_wild_card,2022.2.4,Win32,59.89817311,5713cc324cfd6f0009aa7329,64d2fd46c836a06233681665,64dc7ee3219a5a5f237f3755,,,,,,,decisionTrl,resources/DY.BMP,resources/DR.BMP,WildCard_Ex,0.286111125,-0.082407422,1,0,0,1.2802,optionRight,95,1980,1,37,0,37,0,1,,,,,,,,,,,,,,,,,,,,,,,,,,,,,,,,,,,,,,,
,,,,,,,,2023-08-16_08h52.59.962,HF_wild_card,2022.2.4,Win32,59.89817311,5713cc324cfd6f0009aa7329,64d2fd46c836a06233681665,64dc7ee3219a5a5f237f3755,,,,,,,decisionTrl,resources/DG.BMP,resources/DB.BMP,Door3,-0.377777771,-0.034259266,1,0,0,1.4629,optionLeft,70,2050,1,38,0,38,0,1,,,,,,,,,,,,,,,,,,,,,,,,,,,,,,,,,,,,,,,
,,,,,,,,2023-08-16_08h52.59.962,HF_wild_card,2022.2.4,Win32,59.89817311,5713cc324cfd6f0009aa7329,64d2fd46c836a06233681665,64dc7ee3219a5a5f237f3755,,,,,,,ctch,resources/DY.BMP,resources/DG.BMP,Door3,0.346296381,-0.070370392,1,0,0,1.3807,optionRight,70,2120,1,39,0,39,0,1,,,,,,,,,,,,,,,,,,,,,,,,,,,,,,,,,,,,,,,
,,,,,,,,2023-08-16_08h52.59.962,HF_wild_card,2022.2.4,Win32,59.89817311,5713cc324cfd6f0009aa7329,64d2fd46c836a06233681665,64dc7ee3219a5a5f237f3755,,,,,,,sngl,resources/DR.BMP,resources/Empty.png,WildCard_Ex,-0.284259231,-0.079629651,1,0,0,1.8299,optionLeft,5,2125,1,40,0,40,0,1,,,,,,,,,,,,,,,,,,,,,,,,,,,,,,,,,,,,,,,
,,,,,,,,2023-08-16_08h52.59.962,HF_wild_card,2022.2.4,Win32,59.89817311,5713cc324cfd6f0009aa7329,64d2fd46c836a06233681665,64dc7ee3219a5a5f237f3755,,,,,,,sngl,resources/DBN.BMP,resources/Empty.png,Door1,-0.328703704,-0.069444444,1,0,0,1.5281,optionLeft,30,2155,1,41,0,41,0,1,,,,,,,,,,,,,,,,,,,,,,,,,,,,,,,,,,,,,,,
,,,,,,,,2023-08-16_08h52.59.962,HF_wild_card,2022.2.4,Win32,59.89817311,5713cc324cfd6f0009aa7329,64d2fd46c836a06233681665,64dc7ee3219a5a5f237f3755,,,,,,,ctch,resources/DG.BMP,resources/DY.BMP,Door3,-0.357407393,-0.041666667,1,0,0,1.5954,optionLeft,70,2225,1,42,0,42,0,1,,,,,,,,,,,,,,,,,,,,,,,,,,,,,,,,,,,,,,,
,,,,,,,,2023-08-16_08h52.59.962,HF_wild_card,2022.2.4,Win32,59.89817311,5713cc324cfd6f0009aa7329,64d2fd46c836a06233681665,64dc7ee3219a5a5f237f3755,,,,,,,decisionTrl,resources/DB.BMP,resources/DG.BMP,Door3,0.354629658,-0.093518504,1,0,0,1.5937,optionRight,70,2295,1,43,0,43,0,1,,,,,,,,,,,,,,,,,,,,,,,,,,,,,,,,,,,,,,,
,,,,,,,,2023-08-16_08h52.59.962,HF_wild_card,2022.2.4,Win32,59.89817311,5713cc324cfd6f0009aa7329,64d2fd46c836a06233681665,64dc7ee3219a5a5f237f3755,,,,,,,,,,,,,,,,,,,,,,,,,,0,0,0,0,1,,,,,,,,,,,,,,,,,,,,,,,,,,,,,,,,,,
,,,,,,,,2023-08-16_08h52.59.962,HF_wild_card,2022.2.4,Win32,59.89817311,5713cc324cfd6f0009aa7329,64d2fd46c836a06233681665,64dc7ee3219a5a5f237f3755,,,,,,,sngl,resources/DBN.BMP,resources/Empty.png,Door1,-0.427777785,-0.037037037,1,0,0,1.5371,optionLeft,30,2325,2,0,0,0,0,1,,,,,,,,,,,,,,,,,,,,,,,,,,,,,,,,,,,,,,,
,,,,,,,,2023-08-16_08h52.59.962,HF_wild_card,2022.2.4,Win32,59.89817311,5713cc324cfd6f0009aa7329,64d2fd46c836a06233681665,64dc7ee3219a5a5f237f3755,,,,,,,decisionTrl,resources/DY.BMP,resources/DBN.BMP,Door1,0.297222279,-0.010185206,1,0,0,1.8448,optionRight,30,2355,2,1,0,1,0,1,,,,,,,,,,,,,,,,,,,,,,,,,,,,,,,,,,,,,,,
,,,,,,,,2023-08-16_08h52.59.962,HF_wild_card,2022.2.4,Win32,59.89817311,5713cc324cfd6f0009aa7329,64d2fd46c836a06233681665,64dc7ee3219a5a5f237f3755,,,,,,,ctch,resources/DG.BMP,resources/DY.BMP,Door3,-0.434259238,-0.125,1,0,0,1.1291,optionLeft,70,2425,2,2,0,2,0,1,,,,,,,,,,,,,,,,,,,,,,,,,,,,,,,,,,,,,,,
,,,,,,,,2023-08-16_08h52.59.962,HF_wild_card,2022.2.4,Win32,59.89817311,5713cc324cfd6f0009aa7329,64d2fd46c836a06233681665,64dc7ee3219a5a5f237f3755,,,,,,,decisionTrl,resources/DB.BMP,resources/DG.BMP,Door3,0.325925898,-0.002777771,1,0,0,0.994,optionRight,70,2495,2,3,0,3,0,1,,,,,,,,,,,,,,,,,,,,,,,,,,,,,,,,,,,,,,,
,,,,,,,,2023-08-16_08h52.59.962,HF_wild_card,2022.2.4,Win32,59.89817311,5713cc324cfd6f0009aa7329,64d2fd46c836a06233681665,64dc7ee3219a5a5f237f3755,,,,,,,sngl,resources/DY.BMP,resources/Empty.png,Door2,-0.279629601,-0.052777785,1,0,0,0.9773,optionLeft,20,2515,2,4,0,4,0,1,,,,,,,,,,,,,,,,,,,,,,,,,,,,,,,,,,,,,,,
,,,,,,,,2023-08-16_08h52.59.962,HF_wild_card,2022.2.4,Win32,59.89817311,5713cc324cfd6f0009aa7329,64d2fd46c836a06233681665,64dc7ee3219a5a5f237f3755,,,,,,,ctch,resources/DB.BMP,resources/DBN.BMP,Door4,-0.386111118,-0.089814822,1,0,0,2.0818,optionLeft,60,2575,2,5,0,5,0,1,,,,,,,,,,,,,,,,,,,,,,,,,,,,,,,,,,,,,,,
,,,,,,,,2023-08-16_08h52.59.962,HF_wild_card,2022.2.4,Win32,59.89817311,5713cc324cfd6f0009aa7329,64d2fd46c836a06233681665,64dc7ee3219a5a5f237f3755,,,,,,,decisionTrl,resources/DY.BMP,resources/DR.BMP,WildCard_Ex,0.368518547,-0.006481489,1,0,0,3.4449,optionRight,95,2670,2,6,0,6,0,1,,,,,,,,,,,,,,,,,,,,,,,,,,,,,,,,,,,,,,,
,,,,,,,,2023-08-16_08h52.59.962,HF_wild_card,2022.2.4,Win32,59.89817311,5713cc324cfd6f0009aa7329,64d2fd46c836a06233681665,64dc7ee3219a5a5f237f3755,,,,,,,ctch,resources/DY.BMP,resources/DG.BMP,Door3,0.336111139,-0.062037044,1,0,0,1.562,optionRight,70,2740,2,7,0,7,0,1,,,,,,,,,,,,,,,,,,,,,,,,,,,,,,,,,,,,,,,
,,,,,,,,2023-08-16_08h52.59.962,HF_wild_card,2022.2.4,Win32,59.89817311,5713cc324cfd6f0009aa7329,64d2fd46c836a06233681665,64dc7ee3219a5a5f237f3755,,,,,,,decisionTrl,resources/DBN.BMP,resources/DY.BMP,Door1,-0.342592593,-0.087962963,1,0,0,1.9434,optionLeft,30,2770,2,8,0,8,0,1,,,,,,,,,,,,,,,,,,,,,,,,,,,,,,,,,,,,,,,
,,,,,,,,2023-08-16_08h52.59.962,HF_wild_card,2022.2.4,Win32,59.89817311,5713cc324cfd6f0009aa7329,64d2fd46c836a06233681665,64dc7ee3219a5a5f237f3755,,,,,,,decisionTrl,resources/DB.BMP,resources/DG.BMP,Door3,0.460185157,-0.058333326,1,0,0,1.3482,optionRight,70,2840,2,9,0,9,0,1,,,,,,,,,,,,,,,,,,,,,,,,,,,,,,,,,,,,,,,
,,,,,,,,2023-08-16_08h52.59.962,HF_wild_card,2022.2.4,Win32,59.89817311,5713cc324cfd6f0009aa7329,64d2fd46c836a06233681665,64dc7ee3219a5a5f237f3755,,,,,,,decisionTrl,resources/DG.BMP,resources/DB.BMP,Door3,-0.345370363,-0.027777778,1,0,0,0.8284,optionLeft,70,2910,2,10,0,10,0,1,,,,,,,,,,,,,,,,,,,,,,,,,,,,,,,,,,,,,,,
,,,,,,,,2023-08-16_08h52.59.962,HF_wild_card,2022.2.4,Win32,59.89817311,5713cc324cfd6f0009aa7329,64d2fd46c836a06233681665,64dc7ee3219a5a5f237f3755,,,,,,,ctch,resources/DBN.BMP,resources/DB.BMP,Door4,0.308333362,0.000925912,1,0,0,1.8613,optionRight,60,2970,2,11,0,11,0,1,,,,,,,,,,,,,,,,,,,,,,,,,,,,,,,,,,,,,,,
,,,,,,,,2023-08-16_08h52.59.962,HF_wild_card,2022.2.4,Win32,59.89817311,5713cc324cfd6f0009aa7329,64d2fd46c836a06233681665,64dc7ee3219a5a5f237f3755,,,,,,,decisionTrl,resources/DBN.BMP,resources/DY.BMP,Door1,-0.412962949,-0.037037037,1,0,0,1.8101,optionLeft,30,3000,2,12,0,12,0,1,,,,,,,,,,,,,,,,,,,,,,,,,,,,,,,,,,,,,,,
,,,,,,,,2023-08-16_08h52.59.962,HF_wild_card,2022.2.4,Win32,59.89817311,5713cc324cfd6f0009aa7329,64d2fd46c836a06233681665,64dc7ee3219a5a5f237f3755,,,,,,,decisionTrl,resources/DG.BMP,resources/DB.BMP,Door3,-0.316666674,-0.063888903,1,0,0,1.3109,optionLeft,70,3070,2,13,0,13,0,1,,,,,,,,,,,,,,,,,,,,,,,,,,,,,,,,,,,,,,,
,,,,,,,,2023-08-16_08h52.59.962,HF_wild_card,2022.2.4,Win32,59.89817311,5713cc324cfd6f0009aa7329,64d2fd46c836a06233681665,64dc7ee3219a5a5f237f3755,,,,,,,sngl,resources/DB.BMP,resources/Empty.png,Door4,-0.271296254,-0.040740755,1,0,0,1.0805,optionLeft,60,3130,2,14,0,14,0,1,,,,,,,,,,,,,,,,,,,,,,,,,,,,,,,,,,,,,,,
,,,,,,,,2023-08-16_08h52.59.962,HF_wild_card,2022.2.4,Win32,59.89817311,5713cc324cfd6f0009aa7329,64d2fd46c836a06233681665,64dc7ee3219a5a5f237f3755,,,,,,,sngl,resources/Empty.png,resources/DBN.BMP,Door1,0.287962949,-0.008333347,1,0,0,0.9277,optionRight,30,3160,2,15,0,15,0,1,,,,,,,,,,,,,,,,,,,,,,,,,,,,,,,,,,,,,,,
,,,,,,,,2023-08-16_08h52.59.962,HF_wild_card,2022.2.4,Win32,59.89817311,5713cc324cfd6f0009aa7329,64d2fd46c836a06233681665,64dc7ee3219a5a5f237f3755,,,,,,,decisionTrl,resources/DR.BMP,resources/DBN.BMP,WildCard_Ex,-0.448148127,-0.090740734,1,0,0,1.7138,optionLeft,95,3255,2,16,0,16,0,1,,,,,,,,,,,,,,,,,,,,,,,,,,,,,,,,,,,,,,,
,,,,,,,,2023-08-16_08h52.59.962,HF_wild_card,2022.2.4,Win32,59.89817311,5713cc324cfd6f0009aa7329,64d2fd46c836a06233681665,64dc7ee3219a5a5f237f3755,,,,,,,decisionTrl,resources/DB.BMP,resources/DR.BMP,WildCard_Ex,0.312037009,-0.085185192,1,0,0,1.0474,optionRight,95,3350,2,17,0,17,0,1,,,,,,,,,,,,,,,,,,,,,,,,,,,,,,,,,,,,,,,
,,,,,,,,2023-08-16_08h52.59.962,HF_wild_card,2022.2.4,Win32,59.89817311,5713cc324cfd6f0009aa7329,64d2fd46c836a06233681665,64dc7ee3219a5a5f237f3755,,,,,,,decisionTrl,resources/DB.BMP,resources/DG.BMP,Door3,0.386111083,-0.053703697,1,0,0,1.4817,optionRight,70,3420,2,18,0,18,0,1,,,,,,,,,,,,,,,,,,,,,,,,,,,,,,,,,,,,,,,
,,,,,,,,2023-08-16_08h52.59.962,HF_wild_card,2022.2.4,Win32,59.89817311,5713cc324cfd6f0009aa7329,64d2fd46c836a06233681665,64dc7ee3219a5a5f237f3755,,,,,,,decisionTrl,resources/DY.BMP,resources/DBN.BMP,Door1,0.315740797,0.012962942,1,0,0,2.0317,optionRight,30,3450,2,19,0,19,0,1,,,,,,,,,,,,,,,,,,,,,,,,,,,,,,,,,,,,,,,
,,,,,,,,2023-08-16_08h52.59.962,HF_wild_card,2022.2.4,Win32,59.89817311,5713cc324cfd6f0009aa7329,64d2fd46c836a06233681665,64dc7ee3219a5a5f237f3755,,,,,,,ctch,resources/DY.BMP,resources/DG.BMP,Door3,0.348148205,-0.017592607,1,0,0,1.0308,optionRight,70,3520,2,20,0,20,0,1,,,,,,,,,,,,,,,,,,,,,,,,,,,,,,,,,,,,,,,
,,,,,,,,2023-08-16_08h52.59.962,HF_wild_card,2022.2.4,Win32,59.89817311,5713cc324cfd6f0009aa7329,64d2fd46c836a06233681665,64dc7ee3219a5a5f237f3755,,,,,,,sngl,resources/Empty.png,resources/DB.BMP,Door4,0.314814815,-0.024074095,1,0,0,0.8817,optionRight,80,3600,2,21,0,21,0,1,,,,,,,,,,,,,,,,,,,,,,,,,,,,,,,,,,,,,,,
,,,,,,,,2023-08-16_08h52.59.962,HF_wild_card,2022.2.4,Win32,59.89817311,5713cc324cfd6f0009aa7329,64d2fd46c836a06233681665,64dc7ee3219a5a5f237f3755,,,,,,,sngl,resources/Empty.png,resources/DR.BMP,WildCard_Ex,0.292592578,-0.019444466,1,0,0,0.8984,optionRight,95,3695,2,22,0,22,0,1,,,,,,,,,,,,,,,,,,,,,,,,,,,,,,,,,,,,,,,
,,,,,,,,2023-08-16_08h52.59.962,HF_wild_card,2022.2.4,Win32,59.89817311,5713cc324cfd6f0009aa7329,64d2fd46c836a06233681665,64dc7ee3219a5a5f237f3755,,,,,,,sngl,resources/Empty.png,resources/DG.BMP,Door3,0.346296381,-0.024074095,1,0,0,0.8812,optionRight,70,3765,2,23,0,23,0,1,,,,,,,,,,,,,,,,,,,,,,,,,,,,,,,,,,,,,,,
,,,,,,,,2023-08-16_08h52.59.962,HF_wild_card,2022.2.4,Win32,59.89817311,5713cc324cfd6f0009aa7329,64d2fd46c836a06233681665,64dc7ee3219a5a5f237f3755,,,,,,,decisionTrl,resources/DY.BMP,resources/DBN.BMP,Door1,0.310185185,0.043518526,1,0,0,2.1817,optionRight,30,3795,2,24,0,24,0,1,,,,,,,,,,,,,,,,,,,,,,,,,,,,,,,,,,,,,,,
,,,,,,,,2023-08-16_08h52.59.962,HF_wild_card,2022.2.4,Win32,59.89817311,5713cc324cfd6f0009aa7329,64d2fd46c836a06233681665,64dc7ee3219a5a5f237f3755,,,,,,,sngl,resources/Empty.png,resources/DY.BMP,Door2,0.299074102,-0.012962977,1,0,0,0.9142,optionRight,40,3835,2,25,0,25,0,1,,,,,,,,,,,,,,,,,,,,,,,,,,,,,,,,,,,,,,,
,,,,,,,,2023-08-16_08h52.59.962,HF_wild_card,2022.2.4,Win32,59.89817311,5713cc324cfd6f0009aa7329,64d2fd46c836a06233681665,64dc7ee3219a5a5f237f3755,,,,,,,sngl,resources/DR.BMP,resources/Empty.png,WildCard_Ex,-0.353703711,-0.078703704,1,0,0,1.1487,optionLeft,95,3930,2,26,0,26,0,1,,,,,,,,,,,,,,,,,,,,,,,,,,,,,,,,,,,,,,,
,,,,,,,,2023-08-16_08h52.59.962,HF_wild_card,2022.2.4,Win32,59.89817311,5713cc324cfd6f0009aa7329,64d2fd46c836a06233681665,64dc7ee3219a5a5f237f3755,,,,,,,sngl,resources/DG.BMP,resources/Empty.png,Door3,-0.281481496,-0.110185199,1,0,0,0.8484,optionLeft,70,4000,2,27,0,27,0,1,,,,,,,,,,,,,,,,,,,,,,,,,,,,,,,,,,,,,,,
,,,,,,,,2023-08-16_08h52.59.962,HF_wild_card,2022.2.4,Win32,59.89817311,5713cc324cfd6f0009aa7329,64d2fd46c836a06233681665,64dc7ee3219a5a5f237f3755,,,,,,,decisionTrl,resources/DBN.BMP,resources/DY.BMP,Door2,0.294444473,-0.066666674,1,0,0,1.165,optionRight,20,4020,2,28,0,28,0,1,,,,,,,,,,,,,,,,,,,,,,,,,,,,,,,,,,,,,,,
,,,,,,,,2023-08-16_08h52.59.962,HF_wild_card,2022.2.4,Win32,59.89817311,5713cc324cfd6f0009aa7329,64d2fd46c836a06233681665,64dc7ee3219a5a5f237f3755,,,,,,,decisionTrl,resources/DG.BMP,resources/DB.BMP,Door3,-0.383333312,-0.079629651,1,0,0,2.5316,optionLeft,70,4090,2,29,0,29,0,1,,,,,,,,,,,,,,,,,,,,,,,,,,,,,,,,,,,,,,,
,,,,,,,,2023-08-16_08h52.59.962,HF_wild_card,2022.2.4,Win32,59.89817311,5713cc324cfd6f0009aa7329,64d2fd46c836a06233681665,64dc7ee3219a5a5f237f3755,,,,,,,decisionTrl,resources/DG.BMP,resources/DR.BMP,Door3,-0.397222201,-0.062037044,1,0,0,1.1986,optionLeft,70,4160,2,30,0,30,0,1,,,,,,,,,,,,,,,,,,,,,,,,,,,,,,,,,,,,,,,
,,,,,,,,2023-08-16_08h52.59.962,HF_wild_card,2022.2.4,Win32,59.89817311,5713cc324cfd6f0009aa7329,64d2fd46c836a06233681665,64dc7ee3219a5a5f237f3755,,,,,,,sngl,resources/DR.BMP,resources/Empty.png,WildCard_Ex,-0.349074081,-0.087037051,1,0,0,1.0816,optionLeft,5,4165,2,31,0,31,0,1,,,,,,,,,,,,,,,,,,,,,,,,,,,,,,,,,,,,,,,
,,,,,,,,2023-08-16_08h52.59.962,HF_wild_card,2022.2.4,Win32,59.89817311,5713cc324cfd6f0009aa7329,64d2fd46c836a06233681665,64dc7ee3219a5a5f237f3755,,,,,,,decisionTrl,resources/DR.BMP,resources/DB.BMP,Door4,0.400925954,-0.040740755,1,0,0,2.0981,optionRight,80,4245,2,32,0,32,0,1,,,,,,,,,,,,,,,,,,,,,,,,,,,,,,,,,,,,,,,
,,,,,,,,2023-08-16_08h52.59.962,HF_wild_card,2022.2.4,Win32,59.89817311,5713cc324cfd6f0009aa7329,64d2fd46c836a06233681665,64dc7ee3219a5a5f237f3755,,,,,,,decisionTrl,resources/DBN.BMP,resources/DR.BMP,Door1,-0.336111104,0.008333312,1,0,0,2.4636,optionLeft,30,4275,2,33,0,33,0,1,,,,,,,,,,,,,,,,,,,,,,,,,,,,,,,,,,,,,,,
,,,,,,,,2023-08-16_08h52.59.962,HF_wild_card,2022.2.4,Win32,59.89817311,5713cc324cfd6f0009aa7329,64d2fd46c836a06233681665,64dc7ee3219a5a5f237f3755,,,,,,,ctch,resources/DB.BMP,resources/DBN.BMP,Door4,-0.390740748,-0.060185185,1,0,0,1.4564,optionLeft,80,4355,2,34,0,34,0,1,,,,,,,,,,,,,,,,,,,,,,,,,,,,,,,,,,,,,,,
,,,,,,,,2023-08-16_08h52.59.962,HF_wild_card,2022.2.4,Win32,59.89817311,5713cc324cfd6f0009aa7329,64d2fd46c836a06233681665,64dc7ee3219a5a5f237f3755,,,,,,,ctch,resources/DG.BMP,resources/DY.BMP,Door3,-0.309259238,-0.042592614,1,0,0,1.0979,optionLeft,70,4425,2,35,0,35,0,1,,,,,,,,,,,,,,,,,,,,,,,,,,,,,,,,,,,,,,,
,,,,,,,,2023-08-16_08h52.59.962,HF_wild_card,2022.2.4,Win32,59.89817311,5713cc324cfd6f0009aa7329,64d2fd46c836a06233681665,64dc7ee3219a5a5f237f3755,,,,,,,decisionTrl,resources/DB.BMP,resources/DG.BMP,Door4,-0.35833334,-0.061111132,1,0,0,1.0642,optionLeft,60,4485,2,36,0,36,0,1,,,,,,,,,,,,,,,,,,,,,,,,,,,,,,,,,,,,,,,
,,,,,,,,2023-08-16_08h52.59.962,HF_wild_card,2022.2.4,Win32,59.89817311,5713cc324cfd6f0009aa7329,64d2fd46c836a06233681665,64dc7ee3219a5a5f237f3755,,,,,,,sngl,resources/Empty.png,resources/DR.BMP,WildCard_Ex,0.354629658,-0.009259259,1,0,0,1.8982,optionRight,5,4490,2,37,0,37,0,1,,,,,,,,,,,,,,,,,,,,,,,,,,,,,,,,,,,,,,,
,,,,,,,,2023-08-16_08h52.59.962,HF_wild_card,2022.2.4,Win32,59.89817311,5713cc324cfd6f0009aa7329,64d2fd46c836a06233681665,64dc7ee3219a5a5f237f3755,,,,,,,decisionTrl,resources/DR.BMP,resources/DG.BMP,Door3,0.398148148,-0.030555548,1,0,0,1.2979,optionRight,70,4560,2,38,0,38,0,1,,,,,,,,,,,,,,,,,,,,,,,,,,,,,,,,,,,,,,,
,,,,,,,,2023-08-16_08h52.59.962,HF_wild_card,2022.2.4,Win32,59.89817311,5713cc324cfd6f0009aa7329,64d2fd46c836a06233681665,64dc7ee3219a5a5f237f3755,,,,,,,ctch,resources/DBN.BMP,resources/DB.BMP,Door4,0.310185185,0.02407406,1,0,0,3.1471,optionRight,80,4640,2,39,0,39,0,1,,,,,,,,,,,,,,,,,,,,,,,,,,,,,,,,,,,,,,,
,,,,,,,,2023-08-16_08h52.59.962,HF_wild_card,2022.2.4,Win32,59.89817311,5713cc324cfd6f0009aa7329,64d2fd46c836a06233681665,64dc7ee3219a5a5f237f3755,,,,,,,decisionTrl,resources/DR.BMP,resources/DY.BMP,WildCard_Ex,-0.400925919,-0.08425928,1,0,0,5.4483,optionLeft,95,4735,2,40,0,40,0,1,,,,,,,,,,,,,,,,,,,,,,,,,,,,,,,,,,,,,,,
,,,,,,,,2023-08-16_08h52.59.962,HF_wild_card,2022.2.4,Win32,59.89817311,5713cc324cfd6f0009aa7329,64d2fd46c836a06233681665,64dc7ee3219a5a5f237f3755,,,,,,,decisionTrl,resources/DG.BMP,resources/DB.BMP,Door3,-0.381481489,-0.082407422,1,0,0,1.3649,optionLeft,70,4805,2,41,0,41,0,1,,,,,,,,,,,,,,,,,,,,,,,,,,,,,,,,,,,,,,,
,,,,,,,,2023-08-16_08h52.59.962,HF_wild_card,2022.2.4,Win32,59.89817311,5713cc324cfd6f0009aa7329,64d2fd46c836a06233681665,64dc7ee3219a5a5f237f3755,,,,,,,decisionTrl,resources/DY.BMP,resources/DBN.BMP,Door1,0.365740741,-0.003703718,1,0,0,1.9316,optionRight,30,4835,2,42,0,42,0,1,,,,,,,,,,,,,,,,,,,,,,,,,,,,,,,,,,,,,,,
,,,,,,,,2023-08-16_08h52.59.962,HF_wild_card,2022.2.4,Win32,59.89817311,5713cc324cfd6f0009aa7329,64d2fd46c836a06233681665,64dc7ee3219a5a5f237f3755,,,,,,,decisionTrl,resources/DBN.BMP,resources/DY.BMP,Door1,-0.355555534,-0.081481474,1,0,0,1.4483,optionLeft,30,4865,2,43,0,43,0,1,,,,,,,,,,,,,,,,,,,,,,,,,,,,,,,,,,,,,,,
,,,,,,,,2023-08-16_08h52.59.962,HF_wild_card,2022.2.4,Win32,59.89817311,5713cc324cfd6f0009aa7329,64d2fd46c836a06233681665,64dc7ee3219a5a5f237f3755,,,,,,,,,,,,,,,,,,,,,,,,,,1,0,1,0,1,,,,,,,,,,,,,,,,,,,,,,,,,,,,,,,,,,
,,,,,,,,2023-08-16_08h52.59.962,HF_wild_card,2022.2.4,Win32,59.89817311,5713cc324cfd6f0009aa7329,64d2fd46c836a06233681665,64dc7ee3219a5a5f237f3755,,,,,,,decisionTrl,resources/DR.BMP,resources/DG.BMP,Door3,0.45185188,-0.076851845,1,0,0,1.4065,optionRight,70,4935,3,0,0,0,0,1,,,,,,,,,,,,,,,,,,,,,,,,,,,,,,,,,,,,,,,
,,,,,,,,2023-08-16_08h52.59.962,HF_wild_card,2022.2.4,Win32,59.89817311,5713cc324cfd6f0009aa7329,64d2fd46c836a06233681665,64dc7ee3219a5a5f237f3755,,,,,,,ctch,resources/DB.BMP,resources/DBN.BMP,Door4,-0.352777764,-0.072222215,1,0,0,2.3154,optionLeft,60,4995,3,1,0,1,0,1,,,,,,,,,,,,,,,,,,,,,,,,,,,,,,,,,,,,,,,
,,,,,,,,2023-08-16_08h52.59.962,HF_wild_card,2022.2.4,Win32,59.89817311,5713cc324cfd6f0009aa7329,64d2fd46c836a06233681665,64dc7ee3219a5a5f237f3755,,,,,,,decisionTrl,resources/DY.BMP,resources/DBN.BMP,Door1,0.386111083,-0.018518519,1,0,0,2.3467,optionRight,30,5025,3,2,0,2,0,1,,,,,,,,,,,,,,,,,,,,,,,,,,,,,,,,,,,,,,,
,,,,,,,,2023-08-16_08h52.59.962,HF_wild_card,2022.2.4,Win32,59.89817311,5713cc324cfd6f0009aa7329,64d2fd46c836a06233681665,64dc7ee3219a5a5f237f3755,,,,,,,decisionTrl,resources/DG.BMP,resources/DB.BMP,Door3,-0.374074053,-0.062962956,1,0,0,1.3441,optionLeft,70,5095,3,3,0,3,0,1,,,,,,,,,,,,,,,,,,,,,,,,,,,,,,,,,,,,,,,
,,,,,,,,2023-08-16_08h52.59.962,HF_wild_card,2022.2.4,Win32,59.89817311,5713cc324cfd6f0009aa7329,64d2fd46c836a06233681665,64dc7ee3219a5a5f237f3755,,,,,,,decisionTrl,resources/DB.BMP,resources/DG.BMP,Door3,0.315740797,-0.038888896,1,0,0,1.4228,optionRight,70,5165,3,4,0,4,0,1,,,,,,,,,,,,,,,,,,,,,,,,,,,,,,,,,,,,,,,
,,,,,,,,2023-08-16_08h52.59.962,HF_wild_card,2022.2.4,Win32,59.89817311,5713cc324cfd6f0009aa7329,64d2fd46c836a06233681665,64dc7ee3219a5a5f237f3755,,,,,,,decisionTrl,resources/DG.BMP,resources/DB.BMP,Door3,-0.336111104,-0.057407414,1,0,0,2.6122,optionLeft,70,5235,3,5,0,5,0,1,,,,,,,,,,,,,,,,,,,,,,,,,,,,,,,,,,,,,,,
,,,,,,,,2023-08-16_08h52.59.962,HF_wild_card,2022.2.4,Win32,59.89817311,5713cc324cfd6f0009aa7329,64d2fd46c836a06233681665,64dc7ee3219a5a5f237f3755,,,,,,,decisionTrl,resources/DG.BMP,resources/DB.BMP,Door3,-0.287962949,-0.017592607,1,0,0,1.5149,optionLeft,70,5305,3,6,0,6,0,1,,,,,,,,,,,,,,,,,,,,,,,,,,,,,,,,,,,,,,,
,,,,,,,,2023-08-16_08h52.59.962,HF_wild_card,2022.2.4,Win32,59.89817311,5713cc324cfd6f0009aa7329,64d2fd46c836a06233681665,64dc7ee3219a5a5f237f3755,,,,,,,sngl,resources/DR.BMP,resources/Empty.png,WildCard_Ex,-0.287962949,-0.033333355,1,0,0,1.5317,optionLeft,5,5310,3,7,0,7,0,1,,,,,,,,,,,,,,,,,,,,,,,,,,,,,,,,,,,,,,,
,,,,,,,,2023-08-16_08h52.59.962,HF_wild_card,2022.2.4,Win32,59.89817311,5713cc324cfd6f0009aa7329,64d2fd46c836a06233681665,64dc7ee3219a5a5f237f3755,,,,,,,ctch,resources/DBN.BMP,resources/DB.BMP,Door4,0.312037009,-0.039814808,1,0,0,1.8583,optionRight,60,5370,3,8,0,8,0,1,,,,,,,,,,,,,,,,,,,,,,,,,,,,,,,,,,,,,,,
,,,,,,,,2023-08-16_08h52.59.962,HF_wild_card,2022.2.4,Win32,59.89817311,5713cc324cfd6f0009aa7329,64d2fd46c836a06233681665,64dc7ee3219a5a5f237f3755,,,,,,,sngl,resources/DG.BMP,resources/Empty.png,Door3,-0.347222222,-0.066666674,1,0,0,0.9921,optionLeft,70,5440,3,9,0,9,0,1,,,,,,,,,,,,,,,,,,,,,,,,,,,,,,,,,,,,,,,
,,,,,,,,2023-08-16_08h52.59.962,HF_wild_card,2022.2.4,Win32,59.89817311,5713cc324cfd6f0009aa7329,64d2fd46c836a06233681665,64dc7ee3219a5a5f237f3755,,,,,,,sngl,resources/Empty.png,resources/DB.BMP,Door4,0.300000085,0.008333312,1,0,0,2.1778,optionRight,60,5500,3,10,0,10,0,1,,,,,,,,,,,,,,,,,,,,,,,,,,,,,,,,,,,,,,,
,,,,,,,,2023-08-16_08h52.59.962,HF_wild_card,2022.2.4,Win32,59.89817311,5713cc324cfd6f0009aa7329,64d2fd46c836a06233681665,64dc7ee3219a5a5f237f3755,,,,,,,decisionTrl,resources/DY.BMP,resources/DBN.BMP,Door1,0.333333333,-0.038888896,1,0,0,1.6288,optionRight,30,5530,3,11,0,11,0,1,,,,,,,,,,,,,,,,,,,,,,,,,,,,,,,,,,,,,,,
,,,,,,,,2023-08-16_08h52.59.962,HF_wild_card,2022.2.4,Win32,59.89817311,5713cc324cfd6f0009aa7329,64d2fd46c836a06233681665,64dc7ee3219a5a5f237f3755,,,,,,,decisionTrl,resources/DR.BMP,resources/DY.BMP,WildCard_Ex,-0.361111111,-0.099074116,1,0,0,2.0449,optionLeft,5,5535,3,12,0,12,0,1,,,,,,,,,,,,,,,,,,,,,,,,,,,,,,,,,,,,,,,
,,,,,,,,2023-08-16_08h52.59.962,HF_wild_card,2022.2.4,Win32,59.89817311,5713cc324cfd6f0009aa7329,64d2fd46c836a06233681665,64dc7ee3219a5a5f237f3755,,,,,,,decisionTrl,resources/DBN.BMP,resources/DY.BMP,Door1,-0.295370384,-0.067592586,1,0,0,4.1147,optionLeft,30,5565,3,13,0,13,0,1,,,,,,,,,,,,,,,,,,,,,,,,,,,,,,,,,,,,,,,
,,,,,,,,2023-08-16_08h52.59.962,HF_wild_card,2022.2.4,Win32,59.89817311,5713cc324cfd6f0009aa7329,64d2fd46c836a06233681665,64dc7ee3219a5a5f237f3755,,,,,,,decisionTrl,resources/DG.BMP,resources/DR.BMP,Door3,-0.326851845,-0.061111132,1,0,0,1.4454,optionLeft,70,5635,3,14,0,14,0,1,,,,,,,,,,,,,,,,,,,,,,,,,,,,,,,,,,,,,,,
,,,,,,,,2023-08-16_08h52.59.962,HF_wild_card,2022.2.4,Win32,59.89817311,5713cc324cfd6f0009aa7329,64d2fd46c836a06233681665,64dc7ee3219a5a5f237f3755,,,,,,,decisionTrl,resources/DY.BMP,resources/DBN.BMP,Door1,0.314814815,0.029629637,1,0,0,1.828,optionRight,30,5665,3,15,0,15,0,1,,,,,,,,,,,,,,,,,,,,,,,,,,,,,,,,,,,,,,,
,,,,,,,,2023-08-16_08h52.59.962,HF_wild_card,2022.2.4,Win32,59.89817311,5713cc324cfd6f0009aa7329,64d2fd46c836a06233681665,64dc7ee3219a5a5f237f3755,,,,,,,ctch,resources/DG.BMP,resources/DY.BMP,Door3,-0.397222201,-0.10555557,1,0,0,1.1304,optionLeft,70,5735,3,16,0,16,0,1,,,,,,,,,,,,,,,,,,,,,,,,,,,,,,,,,,,,,,,
,,,,,,,,2023-08-16_08h52.59.962,HF_wild_card,2022.2.4,Win32,59.89817311,5713cc324cfd6f0009aa7329,64d2fd46c836a06233681665,64dc7ee3219a5a5f237f3755,,,,,,,decisionTrl,resources/DBN.BMP,resources/DY.BMP,Door1,-0.37962963,-0.073148162,1,0,0,1.3275,optionLeft,30,5765,3,17,0,17,0,1,,,,,,,,,,,,,,,,,,,,,,,,,,,,,,,,,,,,,,,
,,,,,,,,2023-08-16_08h52.59.962,HF_wild_card,2022.2.4,Win32,59.89817311,5713cc324cfd6f0009aa7329,64d2fd46c836a06233681665,64dc7ee3219a5a5f237f3755,,,,,,,decisionTrl,resources/DBN.BMP,resources/DR.BMP,Door1,-0.317592586,-0.086111104,1,0,0,2.1447,optionLeft,30,5795,3,18,0,18,0,1,,,,,,,,,,,,,,,,,,,,,,,,,,,,,,,,,,,,,,,
,,,,,,,,2023-08-16_08h52.59.962,HF_wild_card,2022.2.4,Win32,59.89817311,5713cc324cfd6f0009aa7329,64d2fd46c836a06233681665,64dc7ee3219a5a5f237f3755,,,,,,,decisionTrl,resources/DR.BMP,resources/DB.BMP,Door4,0.399074131,-0.010185206,1,0,0,1.0786,optionRight,60,5855,3,19,0,19,0,1,,,,,,,,,,,,,,,,,,,,,,,,,,,,,,,,,,,,,,,
,,,,,,,,2023-08-16_08h52.59.962,HF_wild_card,2022.2.4,Win32,59.89817311,5713cc324cfd6f0009aa7329,64d2fd46c836a06233681665,64dc7ee3219a5a5f237f3755,,,,,,,sngl,resources/Empty.png,resources/DBN.BMP,Door1,0.369444529,-0.067592586,1,0,0,1.113,optionRight,30,5885,3,20,0,20,0,1,,,,,,,,,,,,,,,,,,,,,,,,,,,,,,,,,,,,,,,
,,,,,,,,2023-08-16_08h52.59.962,HF_wild_card,2022.2.4,Win32,59.89817311,5713cc324cfd6f0009aa7329,64d2fd46c836a06233681665,64dc7ee3219a5a5f237f3755,,,,,,,decisionTrl,resources/DB.BMP,resources/DG.BMP,Door3,0.362037094,-0.054629644,1,0,0,1.542,optionRight,70,5955,3,21,0,21,0,1,,,,,,,,,,,,,,,,,,,,,,,,,,,,,,,,,,,,,,,
,,,,,,,,2023-08-16_08h52.59.962,HF_wild_card,2022.2.4,Win32,59.89817311,5713cc324cfd6f0009aa7329,64d2fd46c836a06233681665,64dc7ee3219a5a5f237f3755,,,,,,,sngl,resources/DB.BMP,resources/Empty.png,Door4,-0.368518511,-0.136111153,1,0,0,0.9114,optionLeft,80,6035,3,22,0,22,0,1,,,,,,,,,,,,,,,,,,,,,,,,,,,,,,,,,,,,,,,
,,,,,,,,2023-08-16_08h52.59.962,HF_wild_card,2022.2.4,Win32,59.89817311,5713cc324cfd6f0009aa7329,64d2fd46c836a06233681665,64dc7ee3219a5a5f237f3755,,,,,,,sngl,resources/Empty.png,resources/DG.BMP,Door3,0.35555564,-0.030555548,1,0,0,1.1613,optionRight,70,6105,3,23,0,23,0,1,,,,,,,,,,,,,,,,,,,,,,,,,,,,,,,,,,,,,,,
,,,,,,,,2023-08-16_08h52.59.962,HF_wild_card,2022.2.4,Win32,59.89817311,5713cc324cfd6f0009aa7329,64d2fd46c836a06233681665,64dc7ee3219a5a5f237f3755,,,,,,,sngl,resources/DR.BMP,resources/Empty.png,WildCard_Ex,-0.307407414,-0.111111111,1,0,0,1.1298,optionLeft,95,6200,3,24,0,24,0,1,,,,,,,,,,,,,,,,,,,,,,,,,,,,,,,,,,,,,,,
,,,,,,,,2023-08-16_08h52.59.962,HF_wild_card,2022.2.4,Win32,59.89817311,5713cc324cfd6f0009aa7329,64d2fd46c836a06233681665,64dc7ee3219a5a5f237f3755,,,,,,,ctch,resources/DY.BMP,resources/DG.BMP,Door3,0.412963019,0.018518519,1,0,0,3.5478,optionRight,70,6270,3,25,0,25,0,1,,,,,,,,,,,,,,,,,,,,,,,,,,,,,,,,,,,,,,,
,,,,,,,,2023-08-16_08h52.59.962,HF_wild_card,2022.2.4,Win32,59.89817311,5713cc324cfd6f0009aa7329,64d2fd46c836a06233681665,64dc7ee3219a5a5f237f3755,,,,,,,ctch,resources/DY.BMP,resources/DG.BMP,Door3,0.301851908,-0.033333355,1,0,0,1.0153,optionRight,70,6340,3,26,0,26,0,1,,,,,,,,,,,,,,,,,,,,,,,,,,,,,,,,,,,,,,,
,,,,,,,,2023-08-16_08h52.59.962,HF_wild_card,2022.2.4,Win32,59.89817311,5713cc324cfd6f0009aa7329,64d2fd46c836a06233681665,64dc7ee3219a5a5f237f3755,,,,,,,decisionTrl,resources/DB.BMP,resources/DG.BMP,Door3,0.375925982,-0.041666667,1,0,0,2.6307,optionRight,70,6410,3,27,0,27,0,1,,,,,,,,,,,,,,,,,,,,,,,,,,,,,,,,,,,,,,,
,,,,,,,,2023-08-16_08h52.59.962,HF_wild_card,2022.2.4,Win32,59.89817311,5713cc324cfd6f0009aa7329,64d2fd46c836a06233681665,64dc7ee3219a5a5f237f3755,,,,,,,decisionTrl,resources/DG.BMP,resources/DB.BMP,Door3,-0.330555563,-0.063888903,1,0,0,1.3623,optionLeft,70,6480,3,28,0,28,0,1,,,,,,,,,,,,,,,,,,,,,,,,,,,,,,,,,,,,,,,
,,,,,,,,2023-08-16_08h52.59.962,HF_wild_card,2022.2.4,Win32,59.89817311,5713cc324cfd6f0009aa7329,64d2fd46c836a06233681665,64dc7ee3219a5a5f237f3755,,,,,,,decisionTrl,resources/DY.BMP,resources/DR.BMP,Door2,-0.308333326,-0.176851838,1,0,0,4.3681,optionLeft,40,6520,3,29,0,29,0,1,,,,,,,,,,,,,,,,,,,,,,,,,,,,,,,,,,,,,,,
,,,,,,,,2023-08-16_08h52.59.962,HF_wild_card,2022.2.4,Win32,59.89817311,5713cc324cfd6f0009aa7329,64d2fd46c836a06233681665,64dc7ee3219a5a5f237f3755,,,,,,,decisionTrl,resources/DR.BMP,resources/DBN.BMP,Door1,0.36018527,-0.024074095,1,0,0,1.7119,optionRight,30,6550,3,30,0,30,0,1,,,,,,,,,,,,,,,,,,,,,,,,,,,,,,,,,,,,,,,
,,,,,,,,2023-08-16_08h52.59.962,HF_wild_card,2022.2.4,Win32,59.89817311,5713cc324cfd6f0009aa7329,64d2fd46c836a06233681665,64dc7ee3219a5a5f237f3755,,,,,,,decisionTrl,resources/DBN.BMP,resources/DY.BMP,Door1,-0.310185185,-0.092592593,1,0,0,4.1116,optionLeft,30,6580,3,31,0,31,0,1,,,,,,,,,,,,,,,,,,,,,,,,,,,,,,,,,,,,,,,
,,,,,,,,2023-08-16_08h52.59.962,HF_wild_card,2022.2.4,Win32,59.89817311,5713cc324cfd6f0009aa7329,64d2fd46c836a06233681665,64dc7ee3219a5a5f237f3755,,,,,,,ctch,resources/DB.BMP,resources/DBN.BMP,Door4,-0.324074074,-0.076851845,1,0,0,1.5947,optionLeft,80,6660,3,32,0,32,0,1,,,,,,,,,,,,,,,,,,,,,,,,,,,,,,,,,,,,,,,
,,,,,,,,2023-08-16_08h52.59.962,HF_wild_card,2022.2.4,Win32,59.89817311,5713cc324cfd6f0009aa7329,64d2fd46c836a06233681665,64dc7ee3219a5a5f237f3755,,,,,,,sngl,resources/DY.BMP,resources/Empty.png,Door2,-0.291666667,-0.071296303,1,0,0,1.672,optionLeft,40,6700,3,33,0,33,0,1,,,,,,,,,,,,,,,,,,,,,,,,,,,,,,,,,,,,,,,
,,,,,,,,2023-08-16_08h52.59.962,HF_wild_card,2022.2.4,Win32,59.89817311,5713cc324cfd6f0009aa7329,64d2fd46c836a06233681665,64dc7ee3219a5a5f237f3755,,,,,,,decisionTrl,resources/DY.BMP,resources/DBN.BMP,Door2,-0.371296282,-0.09629631,1,0,0,1.8131,optionLeft,40,6740,3,34,0,34,0,1,,,,,,,,,,,,,,,,,,,,,,,,,,,,,,,,,,,,,,,
,,,,,,,,2023-08-16_08h52.59.962,HF_wild_card,2022.2.4,Win32,59.89817311,5713cc324cfd6f0009aa7329,64d2fd46c836a06233681665,64dc7ee3219a5a5f237f3755,,,,,,,decisionTrl,resources/DBN.BMP,resources/DY.BMP,Door2,0.325000057,-0.076851845,1,0,0,1.4946,optionRight,40,6780,3,35,0,35,0,1,,,,,,,,,,,,,,,,,,,,,,,,,,,,,,,,,,,,,,,
,,,,,,,,2023-08-16_08h52.59.962,HF_wild_card,2022.2.4,Win32,59.89817311,5713cc324cfd6f0009aa7329,64d2fd46c836a06233681665,64dc7ee3219a5a5f237f3755,,,,,,,decisionTrl,resources/DB.BMP,resources/DG.BMP,Door3,0.281481496,-0.099074116,1,0,0,2.0133,optionRight,70,6850,3,36,0,36,0,1,,,,,,,,,,,,,,,,,,,,,,,,,,,,,,,,,,,,,,,
,,,,,,,,2023-08-16_08h52.59.962,HF_wild_card,2022.2.4,Win32,59.89817311,5713cc324cfd6f0009aa7329,64d2fd46c836a06233681665,64dc7ee3219a5a5f237f3755,,,,,,,decisionTrl,resources/DB.BMP,resources/DR.BMP,Door4,-0.322222215,-0.095370399,1,0,0,1.6614,optionLeft,80,6930,3,37,0,37,0,1,,,,,,,,,,,,,,,,,,,,,,,,,,,,,,,,,,,,,,,
,,,,,,,,2023-08-16_08h52.59.962,HF_wild_card,2022.2.4,Win32,59.89817311,5713cc324cfd6f0009aa7329,64d2fd46c836a06233681665,64dc7ee3219a5a5f237f3755,,,,,,,ctch,resources/DG.BMP,resources/DY.BMP,Door3,-0.308333326,-0.101851852,1,0,0,1.8409,optionLeft,70,7000,3,38,0,38,0,1,,,,,,,,,,,,,,,,,,,,,,,,,,,,,,,,,,,,,,,
,,,,,,,,2023-08-16_08h52.59.962,HF_wild_card,2022.2.4,Win32,59.89817311,5713cc324cfd6f0009aa7329,64d2fd46c836a06233681665,64dc7ee3219a5a5f237f3755,,,,,,,sngl,resources/Empty.png,resources/DR.BMP,WildCard_Ex,0.306481538,-0.090740734,1,0,0,1.3296,optionRight,5,7005,3,39,0,39,0,1,,,,,,,,,,,,,,,,,,,,,,,,,,,,,,,,,,,,,,,
,,,,,,,,2023-08-16_08h52.59.962,HF_wild_card,2022.2.4,Win32,59.89817311,5713cc324cfd6f0009aa7329,64d2fd46c836a06233681665,64dc7ee3219a5a5f237f3755,,,,,,,ctch,resources/DBN.BMP,resources/DB.BMP,Door4,0.378703788,-0.055555556,1,0,0,2.2314,optionRight,60,7065,3,40,0,40,0,1,,,,,,,,,,,,,,,,,,,,,,,,,,,,,,,,,,,,,,,
,,,,,,,,2023-08-16_08h52.59.962,HF_wild_card,2022.2.4,Win32,59.89817311,5713cc324cfd6f0009aa7329,64d2fd46c836a06233681665,64dc7ee3219a5a5f237f3755,,,,,,,sngl,resources/Empty.png,resources/DR.BMP,WildCard_Ex,0.354629658,-0.069444444,1,0,0,1.6123,optionRight,95,7160,3,41,0,41,0,1,,,,,,,,,,,,,,,,,,,,,,,,,,,,,,,,,,,,,,,
,,,,,,,,2023-08-16_08h52.59.962,HF_wild_card,2022.2.4,Win32,59.89817311,5713cc324cfd6f0009aa7329,64d2fd46c836a06233681665,64dc7ee3219a5a5f237f3755,,,,,,,sngl,resources/DBN.BMP,resources/Empty.png,Door1,-0.287037037,-0.072222215,1,0,0,1.1317,optionLeft,30,7190,3,42,0,42,0,1,,,,,,,,,,,,,,,,,,,,,,,,,,,,,,,,,,,,,,,
,,,,,,,,2023-08-16_08h52.59.962,HF_wild_card,2022.2.4,Win32,59.89817311,5713cc324cfd6f0009aa7329,64d2fd46c836a06233681665,64dc7ee3219a5a5f237f3755,,,,,,,sngl,resources/Empty.png,resources/DY.BMP,Door2,0.352777834,-0.019444466,1,0,0,0.8476,optionRight,20,7210,3,43,0,43,0,1,,,,,,,,,,,,,,,,,,,,,,,,,,,,,,,,,,,,,,,
,,,,,,,,2023-08-16_08h52.59.962,HF_wild_card,2022.2.4,Win32,59.89817311,5713cc324cfd6f0009aa7329,64d2fd46c836a06233681665,64dc7ee3219a5a5f237f3755,,,,,,,,,,,,,,,,,,,,,,,,,,2,0,2,0,1,,,,,,,,,,,,,,,,,,,,,,,,,,,,,,,,,,
,,,,,,,,2023-08-16_08h52.59.962,HF_wild_card,2022.2.4,Win32,59.89817311,5713cc324cfd6f0009aa7329,64d2fd46c836a06233681665,64dc7ee3219a5a5f237f3755,,,,,,,ctch,resources/DG.BMP,resources/DY.BMP,Door3,-0.316666674,-0.100000028,1,0,0,1.2902,optionLeft,70,7280,4,0,0,0,0,1,,,,,,,,,,,,,,,,,,,,,,,,,,,,,,,,,,,,,,,
,,,,,,,,2023-08-16_08h52.59.962,HF_wild_card,2022.2.4,Win32,59.89817311,5713cc324cfd6f0009aa7329,64d2fd46c836a06233681665,64dc7ee3219a5a5f237f3755,,,,,,,ctch,resources/DBN.BMP,resources/DB.BMP,Door4,0.455555527,0.021296289,1,0,0,1.7142,optionRight,60,7340,4,1,0,1,0,1,,,,,,,,,,,,,,,,,,,,,,,,,,,,,,,,,,,,,,,
,,,,,,,,2023-08-16_08h52.59.962,HF_wild_card,2022.2.4,Win32,59.89817311,5713cc324cfd6f0009aa7329,64d2fd46c836a06233681665,64dc7ee3219a5a5f237f3755,,,,,,,decisionTrl,resources/DBN.BMP,resources/DY.BMP,Door2,0.292592578,-0.008333347,1,0,0,1.8648,optionRight,20,7360,4,2,0,2,0,1,,,,,,,,,,,,,,,,,,,,,,,,,,,,,,,,,,,,,,,
,,,,,,,,2023-08-16_08h52.59.962,HF_wild_card,2022.2.4,Win32,59.89817311,5713cc324cfd6f0009aa7329,64d2fd46c836a06233681665,64dc7ee3219a5a5f237f3755,,,,,,,decisionTrl,resources/DBN.BMP,resources/DY.BMP,Door1,-0.332407386,-0.023148148,1,0,0,1.2311,optionLeft,30,7390,4,3,0,3,0,1,,,,,,,,,,,,,,,,,,,,,,,,,,,,,,,,,,,,,,,
,,,,,,,,2023-08-16_08h52.59.962,HF_wild_card,2022.2.4,Win32,59.89817311,5713cc324cfd6f0009aa7329,64d2fd46c836a06233681665,64dc7ee3219a5a5f237f3755,,,,,,,decisionTrl,resources/DY.BMP,resources/DBN.BMP,Door1,0.398148148,0.02407406,1,0,0,1.4313,optionRight,30,7420,4,4,0,4,0,1,,,,,,,,,,,,,,,,,,,,,,,,,,,,,,,,,,,,,,,
,,,,,,,,2023-08-16_08h52.59.962,HF_wild_card,2022.2.4,Win32,59.89817311,5713cc324cfd6f0009aa7329,64d2fd46c836a06233681665,64dc7ee3219a5a5f237f3755,,,,,,,sngl,resources/Empty.png,resources/DP.BMP,WildCard_NonEx,0.347222222,-0.030555548,1,0,0,1.481,optionRight,45,7465,4,5,0,5,0,1,,,,,,,,,,,,,,,,,,,,,,,,,,,,,,,,,,,,,,,
,,,,,,,,2023-08-16_08h52.59.962,HF_wild_card,2022.2.4,Win32,59.89817311,5713cc324cfd6f0009aa7329,64d2fd46c836a06233681665,64dc7ee3219a5a5f237f3755,,,,,,,decisionTrl,resources/DY.BMP,resources/DP.BMP,WildCard_NonEx,0.344444416,-0.046296296,1,0,0,2.0431,optionRight,45,7510,4,6,0,6,0,1,,,,,,,,,,,,,,,,,,,,,,,,,,,,,,,,,,,,,,,
,,,,,,,,2023-08-16_08h52.59.962,HF_wild_card,2022.2.4,Win32,59.89817311,5713cc324cfd6f0009aa7329,64d2fd46c836a06233681665,64dc7ee3219a5a5f237f3755,,,,,,,ctch,resources/DB.BMP,resources/DBN.BMP,Door4,-0.302777785,-0.048148155,1,0,0,1.6314,optionLeft,60,7570,4,7,0,7,0,1,,,,,,,,,,,,,,,,,,,,,,,,,,,,,,,,,,,,,,,
,,,,,,,,2023-08-16_08h52.59.962,HF_wild_card,2022.2.4,Win32,59.89817311,5713cc324cfd6f0009aa7329,64d2fd46c836a06233681665,64dc7ee3219a5a5f237f3755,,,,,,,decisionTrl,resources/DY.BMP,resources/DBN.BMP,Door2,-0.302777785,-0.079629651,1,0,0,5.0964,optionLeft,20,7590,4,8,0,8,0,1,,,,,,,,,,,,,,,,,,,,,,,,,,,,,,,,,,,,,,,
,,,,,,,,2023-08-16_08h52.59.962,HF_wild_card,2022.2.4,Win32,59.89817311,5713cc324cfd6f0009aa7329,64d2fd46c836a06233681665,64dc7ee3219a5a5f237f3755,,,,,,,sngl,resources/DY.BMP,resources/Empty.png,Door2,-0.261111083,-0.075000021,1,0,0,1.2447,optionLeft,20,7610,4,9,0,9,0,1,,,,,,,,,,,,,,,,,,,,,,,,,,,,,,,,,,,,,,,
,,,,,,,,2023-08-16_08h52.59.962,HF_wild_card,2022.2.4,Win32,59.89817311,5713cc324cfd6f0009aa7329,64d2fd46c836a06233681665,64dc7ee3219a5a5f237f3755,,,,,,,decisionTrl,resources/DP.BMP,resources/DG.BMP,Door3,0.327777863,-0.0074074,1,0,0,2.1138,optionRight,70,7680,4,10,0,10,0,1,,,,,,,,,,,,,,,,,,,,,,,,,,,,,,,,,,,,,,,
,,,,,,,,2023-08-16_08h52.59.962,HF_wild_card,2022.2.4,Win32,59.89817311,5713cc324cfd6f0009aa7329,64d2fd46c836a06233681665,64dc7ee3219a5a5f237f3755,,,,,,,decisionTrl,resources/DG.BMP,resources/DP.BMP,Door3,-0.354629623,-0.091666681,1,0,0,0.9807,optionLeft,70,7750,4,11,0,11,0,1,,,,,,,,,,,,,,,,,,,,,,,,,,,,,,,,,,,,,,,
,,,,,,,,2023-08-16_08h52.59.962,HF_wild_card,2022.2.4,Win32,59.89817311,5713cc324cfd6f0009aa7329,64d2fd46c836a06233681665,64dc7ee3219a5a5f237f3755,,,,,,,sngl,resources/Empty.png,resources/DP.BMP,WildCard_NonEx,0.282407407,-0.012962977,1,0,0,1.0604,optionRight,55,7805,4,12,0,12,0,1,,,,,,,,,,,,,,,,,,,,,,,,,,,,,,,,,,,,,,,
,,,,,,,,2023-08-16_08h52.59.962,HF_wild_card,2022.2.4,Win32,59.89817311,5713cc324cfd6f0009aa7329,64d2fd46c836a06233681665,64dc7ee3219a5a5f237f3755,,,,,,,decisionTrl,resources/DP.BMP,resources/DB.BMP,Door4,0.358333305,-0.042592614,1,0,0,1.3525,optionRight,60,7865,4,13,0,13,0,1,,,,,,,,,,,,,,,,,,,,,,,,,,,,,,,,,,,,,,,
,,,,,,,,2023-08-16_08h52.59.962,HF_wild_card,2022.2.4,Win32,59.89817311,5713cc324cfd6f0009aa7329,64d2fd46c836a06233681665,64dc7ee3219a5a5f237f3755,,,,,,,decisionTrl,resources/DB.BMP,resources/DP.BMP,Door4,-0.315740727,-0.145370413,1,0,0,1.146,optionLeft,60,7925,4,14,0,14,0,1,,,,,,,,,,,,,,,,,,,,,,,,,,,,,,,,,,,,,,,
,,,,,,,,2023-08-16_08h52.59.962,HF_wild_card,2022.2.4,Win32,59.89817311,5713cc324cfd6f0009aa7329,64d2fd46c836a06233681665,64dc7ee3219a5a5f237f3755,,,,,,,ctch,resources/DBN.BMP,resources/DB.BMP,Door4,0.320370427,-0.043518526,1,0,0,1.0806,optionRight,60,7985,4,15,0,15,0,1,,,,,,,,,,,,,,,,,,,,,,,,,,,,,,,,,,,,,,,
,,,,,,,,2023-08-16_08h52.59.962,HF_wild_card,2022.2.4,Win32,59.89817311,5713cc324cfd6f0009aa7329,64d2fd46c836a06233681665,64dc7ee3219a5a5f237f3755,,,,,,,sngl,resources/DB.BMP,resources/Empty.png,Door4,-0.252777735,-0.038888896,1,0,0,0.7786,optionLeft,60,8045,4,16,0,16,0,1,,,,,,,,,,,,,,,,,,,,,,,,,,,,,,,,,,,,,,,
,,,,,,,,2023-08-16_08h52.59.962,HF_wild_card,2022.2.4,Win32,59.89817311,5713cc324cfd6f0009aa7329,64d2fd46c836a06233681665,64dc7ee3219a5a5f237f3755,,,,,,,decisionTrl,resources/DG.BMP,resources/DB.BMP,Door3,-0.22592594,-0.055555556,0,0,1,2.1673,optionLeft,70,8115,4,17,0,17,0,1,,,,,,,,,,,,,,,,,,,,,,,,,,,,,,,,,,,,,,,
,,,,,,,,2023-08-16_08h52.59.962,HF_wild_card,2022.2.4,Win32,59.89817311,5713cc324cfd6f0009aa7329,64d2fd46c836a06233681665,64dc7ee3219a5a5f237f3755,,,,,,,decisionTrl,resources/DG.BMP,resources/DB.BMP,Door3,-0.312962956,-0.031481496,1,0,0,1.4139,optionLeft,70,8185,4,18,0,18,0,1,,,,,,,,,,,,,,,,,,,,,,,,,,,,,,,,,,,,,,,
,,,,,,,,2023-08-16_08h52.59.962,HF_wild_card,2022.2.4,Win32,59.89817311,5713cc324cfd6f0009aa7329,64d2fd46c836a06233681665,64dc7ee3219a5a5f237f3755,,,,,,,decisionTrl,resources/DB.BMP,resources/DG.BMP,Door3,0.327777863,-0.01666666,1,0,0,1.263,optionRight,70,8255,4,19,0,19,0,1,,,,,,,,,,,,,,,,,,,,,,,,,,,,,,,,,,,,,,,
,,,,,,,,2023-08-16_08h52.59.962,HF_wild_card,2022.2.4,Win32,59.89817311,5713cc324cfd6f0009aa7329,64d2fd46c836a06233681665,64dc7ee3219a5a5f237f3755,,,,,,,decisionTrl,resources/DG.BMP,resources/DB.BMP,Door3,-0.290740755,-0.037037037,1,0,0,0.8672,optionLeft,70,8325,4,20,0,20,0,1,,,,,,,,,,,,,,,,,,,,,,,,,,,,,,,,,,,,,,,
,,,,,,,,2023-08-16_08h52.59.962,HF_wild_card,2022.2.4,Win32,59.89817311,5713cc324cfd6f0009aa7329,64d2fd46c836a06233681665,64dc7ee3219a5a5f237f3755,,,,,,,decisionTrl,resources/DBN.BMP,resources/DY.BMP,Door2,-0.011111083,0.000925912,1,0,0,0.4315,optionRight,40,8365,4,21,0,21,0,1,,,,,,,,,,,,,,,,,,,,,,,,,,,,,,,,,,,,,,,
,,,,,,,,2023-08-16_08h52.59.962,HF_wild_card,2022.2.4,Win32,59.89817311,5713cc324cfd6f0009aa7329,64d2fd46c836a06233681665,64dc7ee3219a5a5f237f3755,,,,,,,sngl,resources/DBN.BMP,resources/Empty.png,Door1,-0.220370328,-0.030555548,1,0,0,0.8286,optionLeft,30,8395,4,22,0,22,0,1,,,,,,,,,,,,,,,,,,,,,,,,,,,,,,,,,,,,,,,
,,,,,,,,2023-08-16_08h52.59.962,HF_wild_card,2022.2.4,Win32,59.89817311,5713cc324cfd6f0009aa7329,64d2fd46c836a06233681665,64dc7ee3219a5a5f237f3755,,,,,,,decisionTrl,resources/DG.BMP,resources/DB.BMP,Door3,-0.208333333,-0.0074074,1,0,0,1.9304,optionLeft,70,8465,4,23,0,23,0,1,,,,,,,,,,,,,,,,,,,,,,,,,,,,,,,,,,,,,,,
,,,,,,,,2023-08-16_08h52.59.962,HF_wild_card,2022.2.4,Win32,59.89817311,5713cc324cfd6f0009aa7329,64d2fd46c836a06233681665,64dc7ee3219a5a5f237f3755,,,,,,,sngl,resources/Empty.png,resources/DY.BMP,Door2,0.329629686,-0.020370377,1,0,0,1.0481,optionRight,40,8505,4,24,0,24,0,1,,,,,,,,,,,,,,,,,,,,,,,,,,,,,,,,,,,,,,,
,,,,,,,,2023-08-16_08h52.59.962,HF_wild_card,2022.2.4,Win32,59.89817311,5713cc324cfd6f0009aa7329,64d2fd46c836a06233681665,64dc7ee3219a5a5f237f3755,,,,,,,ctch,resources/DY.BMP,resources/DG.BMP,Door3,0.338888945,-0.040740755,1,0,0,1.5148,optionRight,70,8575,4,25,0,25,0,1,,,,,,,,,,,,,,,,,,,,,,,,,,,,,,,,,,,,,,,
,,,,,,,,2023-08-16_08h52.59.962,HF_wild_card,2022.2.4,Win32,59.89817311,5713cc324cfd6f0009aa7329,64d2fd46c836a06233681665,64dc7ee3219a5a5f237f3755,,,,,,,decisionTrl,resources/DY.BMP,resources/DBN.BMP,Door2,-0.310185185,-0.036111125,1,0,0,1.5143,optionLeft,20,8595,4,26,0,26,0,1,,,,,,,,,,,,,,,,,,,,,,,,,,,,,,,,,,,,,,,
,,,,,,,,2023-08-16_08h52.59.962,HF_wild_card,2022.2.4,Win32,59.89817311,5713cc324cfd6f0009aa7329,64d2fd46c836a06233681665,64dc7ee3219a5a5f237f3755,,,,,,,decisionTrl,resources/DP.BMP,resources/DY.BMP,WildCard_NonEx,-0.3675926,-0.059259273,1,0,0,1.261,optionLeft,55,8650,4,27,0,27,0,1,,,,,,,,,,,,,,,,,,,,,,,,,,,,,,,,,,,,,,,
,,,,,,,,2023-08-16_08h52.59.962,HF_wild_card,2022.2.4,Win32,59.89817311,5713cc324cfd6f0009aa7329,64d2fd46c836a06233681665,64dc7ee3219a5a5f237f3755,,,,,,,sngl,resources/Empty.png,resources/DB.BMP,Door4,0.361111111,-0.017592607,1,0,0,0.8465,optionRight,80,8730,4,28,0,28,0,1,,,,,,,,,,,,,,,,,,,,,,,,,,,,,,,,,,,,,,,
,,,,,,,,2023-08-16_08h52.59.962,HF_wild_card,2022.2.4,Win32,59.89817311,5713cc324cfd6f0009aa7329,64d2fd46c836a06233681665,64dc7ee3219a5a5f237f3755,,,,,,,sngl,resources/Empty.png,resources/DBN.BMP,Door1,0.353703675,0.001851859,1,0,0,0.9817,optionRight,30,8760,4,29,0,29,0,1,,,,,,,,,,,,,,,,,,,,,,,,,,,,,,,,,,,,,,,
,,,,,,,,2023-08-16_08h52.59.962,HF_wild_card,2022.2.4,Win32,59.89817311,5713cc324cfd6f0009aa7329,64d2fd46c836a06233681665,64dc7ee3219a5a5f237f3755,,,,,,,ctch,resources/DG.BMP,resources/DY.BMP,Door3,-0.256481453,-0.039814808,1,0,0,1.0789,optionLeft,70,8830,4,30,0,30,0,1,,,,,,,,,,,,,,,,,,,,,,,,,,,,,,,,,,,,,,,
,,,,,,,,2023-08-16_08h52.59.962,HF_wild_card,2022.2.4,Win32,59.89817311,5713cc324cfd6f0009aa7329,64d2fd46c836a06233681665,64dc7ee3219a5a5f237f3755,,,,,,,ctch,resources/DB.BMP,resources/DBN.BMP,Door4,-0.309259238,-0.041666667,1,0,0,1.4485,optionLeft,80,8910,4,31,0,31,0,1,,,,,,,,,,,,,,,,,,,,,,,,,,,,,,,,,,,,,,,
,,,,,,,,2023-08-16_08h52.59.962,HF_wild_card,2022.2.4,Win32,59.89817311,5713cc324cfd6f0009aa7329,64d2fd46c836a06233681665,64dc7ee3219a5a5f237f3755,,,,,,,decisionTrl,resources/DB.BMP,resources/DG.BMP,Door3,0.348148205,0.000925912,1,0,0,1.9793,optionRight,70,8980,4,32,0,32,0,1,,,,,,,,,,,,,,,,,,,,,,,,,,,,,,,,,,,,,,,
,,,,,,,,2023-08-16_08h52.59.962,HF_wild_card,2022.2.4,Win32,59.89817311,5713cc324cfd6f0009aa7329,64d2fd46c836a06233681665,64dc7ee3219a5a5f237f3755,,,,,,,sngl,resources/DG.BMP,resources/Empty.png,Door3,-0.260185171,-0.08888891,1,0,0,0.7798,optionLeft,70,9050,4,33,0,33,0,1,,,,,,,,,,,,,,,,,,,,,,,,,,,,,,,,,,,,,,,
,,,,,,,,2023-08-16_08h52.59.962,HF_wild_card,2022.2.4,Win32,59.89817311,5713cc324cfd6f0009aa7329,64d2fd46c836a06233681665,64dc7ee3219a5a5f237f3755,,,,,,,sngl,resources/Empty.png,resources/DG.BMP,Door3,0.410185213,0.001851859,1,0,0,0.8279,optionRight,70,9120,4,34,0,34,0,1,,,,,,,,,,,,,,,,,,,,,,,,,,,,,,,,,,,,,,,
,,,,,,,,2023-08-16_08h52.59.962,HF_wild_card,2022.2.4,Win32,59.89817311,5713cc324cfd6f0009aa7329,64d2fd46c836a06233681665,64dc7ee3219a5a5f237f3755,,,,,,,sngl,resources/DP.BMP,resources/Empty.png,WildCard_NonEx,-0.260185171,-0.087037051,1,0,0,0.8238,optionLeft,45,9165,4,35,0,35,0,1,,,,,,,,,,,,,,,,,,,,,,,,,,,,,,,,,,,,,,,
,,,,,,,,2023-08-16_08h52.59.962,HF_wild_card,2022.2.4,Win32,59.89817311,5713cc324cfd6f0009aa7329,64d2fd46c836a06233681665,64dc7ee3219a5a5f237f3755,,,,,,,decisionTrl,resources/DB.BMP,resources/DG.BMP,Door3,0.419444473,-0.031481496,1,0,0,1.4473,optionRight,70,9235,4,36,0,36,0,1,,,,,,,,,,,,,,,,,,,,,,,,,,,,,,,,,,,,,,,
,,,,,,,,2023-08-16_08h52.59.962,HF_wild_card,2022.2.4,Win32,59.89817311,5713cc324cfd6f0009aa7329,64d2fd46c836a06233681665,64dc7ee3219a5a5f237f3755,,,,,,,decisionTrl,resources/DY.BMP,resources/DBN.BMP,Door1,0.357407464,0.067592586,1,0,0,3.1924,optionRight,30,9265,4,37,0,37,0,1,,,,,,,,,,,,,,,,,,,,,,,,,,,,,,,,,,,,,,,
,,,,,,,,2023-08-16_08h52.59.962,HF_wild_card,2022.2.4,Win32,59.89817311,5713cc324cfd6f0009aa7329,64d2fd46c836a06233681665,64dc7ee3219a5a5f237f3755,,,,,,,decisionTrl,resources/DBN.BMP,resources/DP.BMP,WildCard_NonEx,0.349074046,-0.022222236,1,0,0,1.4293,optionRight,55,9320,4,38,0,38,0,1,,,,,,,,,,,,,,,,,,,,,,,,,,,,,,,,,,,,,,,
,,,,,,,,2023-08-16_08h52.59.962,HF_wild_card,2022.2.4,Win32,59.89817311,5713cc324cfd6f0009aa7329,64d2fd46c836a06233681665,64dc7ee3219a5a5f237f3755,,,,,,,decisionTrl,resources/DP.BMP,resources/DBN.BMP,WildCard_NonEx,-0.281481496,-0.052777785,1,0,0,1.241,optionLeft,55,9375,4,39,0,39,0,1,,,,,,,,,,,,,,,,,,,,,,,,,,,,,,,,,,,,,,,
,,,,,,,,2023-08-16_08h52.59.962,HF_wild_card,2022.2.4,Win32,59.89817311,5713cc324cfd6f0009aa7329,64d2fd46c836a06233681665,64dc7ee3219a5a5f237f3755,,,,,,,sngl,resources/DP.BMP,resources/Empty.png,WildCard_NonEx,-0.309259238,-0.08888891,1,0,0,0.9459,optionLeft,55,9430,4,40,0,40,0,1,,,,,,,,,,,,,,,,,,,,,,,,,,,,,,,,,,,,,,,
,,,,,,,,2023-08-16_08h52.59.962,HF_wild_card,2022.2.4,Win32,59.89817311,5713cc324cfd6f0009aa7329,64d2fd46c836a06233681665,64dc7ee3219a5a5f237f3755,,,,,,,ctch,resources/DY.BMP,resources/DG.BMP,Door3,0.407407407,0.009259259,1,0,0,1.4276,optionRight,70,9500,4,41,0,41,0,1,,,,,,,,,,,,,,,,,,,,,,,,,,,,,,,,,,,,,,,
,,,,,,,,2023-08-16_08h52.59.962,HF_wild_card,2022.2.4,Win32,59.89817311,5713cc324cfd6f0009aa7329,64d2fd46c836a06233681665,64dc7ee3219a5a5f237f3755,,,,,,,decisionTrl,resources/DBN.BMP,resources/DY.BMP,Door2,0.393518519,0.003703683,1,0,0,3.2611,optionRight,20,9520,4,42,0,42,0,1,,,,,,,,,,,,,,,,,,,,,,,,,,,,,,,,,,,,,,,
,,,,,,,,2023-08-16_08h52.59.962,HF_wild_card,2022.2.4,Win32,59.89817311,5713cc324cfd6f0009aa7329,64d2fd46c836a06233681665,64dc7ee3219a5a5f237f3755,,,,,,,decisionTrl,resources/DB.BMP,resources/DG.BMP,Door3,0.351851852,-0.005555577,1,0,0,1.6737,optionRight,70,9590,4,43,0,43,0,1,,,,,,,,,,,,,,,,,,,,,,,,,,,,,,,,,,,,,,,
,,,,,,,,2023-08-16_08h52.59.962,HF_wild_card,2022.2.4,Win32,59.89817311,5713cc324cfd6f0009aa7329,64d2fd46c836a06233681665,64dc7ee3219a5a5f237f3755,,,,,,,,,,,,,,,,,,,,,,,,,,3,0,3,0,1,,,,,,,,,,,,,,,,,,,,,,,,,,,,,,,,,,
,,,,,,,,2023-08-16_08h52.59.962,HF_wild_card,2022.2.4,Win32,59.89817311,5713cc324cfd6f0009aa7329,64d2fd46c836a06233681665,64dc7ee3219a5a5f237f3755,,,,,,,decisionTrl,resources/DBN.BMP,resources/DY.BMP,Door1,-0.345370363,-0.028703725,1,0,0,1.8584,optionLeft,30,9620,5,0,0,0,0,1,,,,,,,,,,,,,,,,,,,,,,,,,,,,,,,,,,,,,,,
,,,,,,,,2023-08-16_08h52.59.962,HF_wild_card,2022.2.4,Win32,59.89817311,5713cc324cfd6f0009aa7329,64d2fd46c836a06233681665,64dc7ee3219a5a5f237f3755,,,,,,,decisionTrl,resources/DY.BMP,resources/DP.BMP,WildCard_NonEx,0.361111111,-0.021296289,1,0,0,1.2256,optionRight,55,9675,5,1,0,1,0,1,,,,,,,,,,,,,,,,,,,,,,,,,,,,,,,,,,,,,,,
,,,,,,,,2023-08-16_08h52.59.962,HF_wild_card,2022.2.4,Win32,59.89817311,5713cc324cfd6f0009aa7329,64d2fd46c836a06233681665,64dc7ee3219a5a5f237f3755,,,,,,,decisionTrl,resources/DBN.BMP,resources/DY.BMP,Door1,-0.316666674,-0.039814808,1,0,0,1.7276,optionLeft,30,9705,5,2,0,2,0,1,,,,,,,,,,,,,,,,,,,,,,,,,,,,,,,,,,,,,,,
,,,,,,,,2023-08-16_08h52.59.962,HF_wild_card,2022.2.4,Win32,59.89817311,5713cc324cfd6f0009aa7329,64d2fd46c836a06233681665,64dc7ee3219a5a5f237f3755,,,,,,,decisionTrl,resources/DB.BMP,resources/DG.BMP,Door3,0.392592677,-0.012962977,1,0,0,1.2126,optionRight,70,9775,5,3,0,3,0,1,,,,,,,,,,,,,,,,,,,,,,,,,,,,,,,,,,,,,,,
,,,,,,,,2023-08-16_08h52.59.962,HF_wild_card,2022.2.4,Win32,59.89817311,5713cc324cfd6f0009aa7329,64d2fd46c836a06233681665,64dc7ee3219a5a5f237f3755,,,,,,,ctch,resources/DBN.BMP,resources/DB.BMP,Door4,0.303703732,-0.018518519,1,0,0,1.395,optionRight,80,9855,5,4,0,4,0,1,,,,,,,,,,,,,,,,,,,,,,,,,,,,,,,,,,,,,,,
,,,,,,,,2023-08-16_08h52.59.962,HF_wild_card,2022.2.4,Win32,59.89817311,5713cc324cfd6f0009aa7329,64d2fd46c836a06233681665,64dc7ee3219a5a5f237f3755,,,,,,,decisionTrl,resources/DG.BMP,resources/DB.BMP,Door4,0.324074074,-0.011111118,1,0,0,1.6282,optionRight,60,9915,5,5,0,5,0,1,,,,,,,,,,,,,,,,,,,,,,,,,,,,,,,,,,,,,,,
,,,,,,,,2023-08-16_08h52.59.962,HF_wild_card,2022.2.4,Win32,59.89817311,5713cc324cfd6f0009aa7329,64d2fd46c836a06233681665,64dc7ee3219a5a5f237f3755,,,,,,,sngl,resources/DG.BMP,resources/Empty.png,Door3,-0.263888889,-0.094444487,1,0,0,0.9491,optionLeft,70,9985,5,6,0,6,0,1,,,,,,,,,,,,,,,,,,,,,,,,,,,,,,,,,,,,,,,
,,,,,,,,2023-08-16_08h52.59.962,HF_wild_card,2022.2.4,Win32,59.89817311,5713cc324cfd6f0009aa7329,64d2fd46c836a06233681665,64dc7ee3219a5a5f237f3755,,,,,,,sngl,resources/DP.BMP,resources/Empty.png,WildCard_NonEx,-0.266666624,-0.100000028,1,0,0,1.0811,optionLeft,45,10030,5,7,0,7,0,1,,,,,,,,,,,,,,,,,,,,,,,,,,,,,,,,,,,,,,,
,,,,,,,,2023-08-16_08h52.59.962,HF_wild_card,2022.2.4,Win32,59.89817311,5713cc324cfd6f0009aa7329,64d2fd46c836a06233681665,64dc7ee3219a5a5f237f3755,,,,,,,sngl,resources/Empty.png,resources/DG.BMP,Door3,0.356481481,-0.008333347,1,0,0,1.1295,optionRight,70,10100,5,8,0,8,0,1,,,,,,,,,,,,,,,,,,,,,,,,,,,,,,,,,,,,,,,
,,,,,,,,2023-08-16_08h52.59.962,HF_wild_card,2022.2.4,Win32,59.89817311,5713cc324cfd6f0009aa7329,64d2fd46c836a06233681665,64dc7ee3219a5a5f237f3755,,,,,,,decisionTrl,resources/DB.BMP,resources/DP.BMP,Door4,-0.288888861,-0.070370392,1,0,0,2.3501,optionLeft,60,10160,5,9,0,9,0,1,,,,,,,,,,,,,,,,,,,,,,,,,,,,,,,,,,,,,,,
,,,,,,,,2023-08-16_08h52.59.962,HF_wild_card,2022.2.4,Win32,59.89817311,5713cc324cfd6f0009aa7329,64d2fd46c836a06233681665,64dc7ee3219a5a5f237f3755,,,,,,,decisionTrl,resources/DBN.BMP,resources/DP.BMP,WildCard_NonEx,0.336111139,-0.031481496,1,0,0,1.2651,optionRight,45,10205,5,10,0,10,0,1,,,,,,,,,,,,,,,,,,,,,,,,,,,,,,,,,,,,,,,
,,,,,,,,2023-08-16_08h52.59.962,HF_wild_card,2022.2.4,Win32,59.89817311,5713cc324cfd6f0009aa7329,64d2fd46c836a06233681665,64dc7ee3219a5a5f237f3755,,,,,,,ctch,resources/DY.BMP,resources/DG.BMP,Door3,0.335185157,-0.045370384,1,0,0,1.5981,optionRight,70,10275,5,11,0,11,0,1,,,,,,,,,,,,,,,,,,,,,,,,,,,,,,,,,,,,,,,
,,,,,,,,2023-08-16_08h52.59.962,HF_wild_card,2022.2.4,Win32,59.89817311,5713cc324cfd6f0009aa7329,64d2fd46c836a06233681665,64dc7ee3219a5a5f237f3755,,,,,,,ctch,resources/DBN.BMP,resources/DB.BMP,Door4,0.357407464,-0.057407414,1,0,0,1.3489,optionRight,80,10355,5,12,0,12,0,1,,,,,,,,,,,,,,,,,,,,,,,,,,,,,,,,,,,,,,,
,,,,,,,,2023-08-16_08h52.59.962,HF_wild_card,2022.2.4,Win32,59.89817311,5713cc324cfd6f0009aa7329,64d2fd46c836a06233681665,64dc7ee3219a5a5f237f3755,,,,,,,decisionTrl,resources/DY.BMP,resources/DBN.BMP,Door1,0.286111125,0.0074074,1,0,0,2.8994,optionRight,30,10385,5,13,0,13,0,1,,,,,,,,,,,,,,,,,,,,,,,,,,,,,,,,,,,,,,,
,,,,,,,,2023-08-16_08h52.59.962,HF_wild_card,2022.2.4,Win32,59.89817311,5713cc324cfd6f0009aa7329,64d2fd46c836a06233681665,64dc7ee3219a5a5f237f3755,,,,,,,sngl,resources/Empty.png,resources/DBN.BMP,Door1,0.328703704,0.01666666,1,0,0,0.8592,optionRight,30,10415,5,14,0,14,0,1,,,,,,,,,,,,,,,,,,,,,,,,,,,,,,,,,,,,,,,
,,,,,,,,2023-08-16_08h52.59.962,HF_wild_card,2022.2.4,Win32,59.89817311,5713cc324cfd6f0009aa7329,64d2fd46c836a06233681665,64dc7ee3219a5a5f237f3755,,,,,,,ctch,resources/DB.BMP,resources/DBN.BMP,Door4,-0.265740712,-0.051851873,1,0,0,1.9803,optionLeft,80,10495,5,15,0,15,0,1,,,,,,,,,,,,,,,,,,,,,,,,,,,,,,,,,,,,,,,
,,,,,,,,2023-08-16_08h52.59.962,HF_wild_card,2022.2.4,Win32,59.89817311,5713cc324cfd6f0009aa7329,64d2fd46c836a06233681665,64dc7ee3219a5a5f237f3755,,,,,,,decisionTrl,resources/DB.BMP,resources/DG.BMP,Door3,0.381481453,0.00462963,1,0,0,1.8592,optionRight,70,10565,5,16,0,16,0,1,,,,,,,,,,,,,,,,,,,,,,,,,,,,,,,,,,,,,,,
,,,,,,,,2023-08-16_08h52.59.962,HF_wild_card,2022.2.4,Win32,59.89817311,5713cc324cfd6f0009aa7329,64d2fd46c836a06233681665,64dc7ee3219a5a5f237f3755,,,,,,,decisionTrl,resources/DP.BMP,resources/DY.BMP,WildCard_NonEx,-0.328703704,-0.060185185,1,0,0,1.4143,optionLeft,45,10610,5,17,0,17,0,1,,,,,,,,,,,,,,,,,,,,,,,,,,,,,,,,,,,,,,,
,,,,,,,,2023-08-16_08h52.59.962,HF_wild_card,2022.2.4,Win32,59.89817311,5713cc324cfd6f0009aa7329,64d2fd46c836a06233681665,64dc7ee3219a5a5f237f3755,,,,,,,decisionTrl,resources/DB.BMP,resources/DG.BMP,Door3,0.361111111,-0.019444466,1,0,0,1.5169,optionRight,70,10680,5,18,0,18,0,1,,,,,,,,,,,,,,,,,,,,,,,,,,,,,,,,,,,,,,,
,,,,,,,,2023-08-16_08h52.59.962,HF_wild_card,2022.2.4,Win32,59.89817311,5713cc324cfd6f0009aa7329,64d2fd46c836a06233681665,64dc7ee3219a5a5f237f3755,,,,,,,ctch,resources/DG.BMP,resources/DY.BMP,Door3,-0.405555548,-0.051851873,1,0,0,1.0457,optionLeft,70,10750,5,19,0,19,0,1,,,,,,,,,,,,,,,,,,,,,,,,,,,,,,,,,,,,,,,
,,,,,,,,2023-08-16_08h52.59.962,HF_wild_card,2022.2.4,Win32,59.89817311,5713cc324cfd6f0009aa7329,64d2fd46c836a06233681665,64dc7ee3219a5a5f237f3755,,,,,,,decisionTrl,resources/DBN.BMP,resources/DY.BMP,Door1,-0.345370363,-0.019444466,1,0,0,4.0616,optionLeft,30,10780,5,20,0,20,0,1,,,,,,,,,,,,,,,,,,,,,,,,,,,,,,,,,,,,,,,
,,,,,,,,2023-08-16_08h52.59.962,HF_wild_card,2022.2.4,Win32,59.89817311,5713cc324cfd6f0009aa7329,64d2fd46c836a06233681665,64dc7ee3219a5a5f237f3755,,,,,,,decisionTrl,resources/DG.BMP,resources/DB.BMP,Door3,-0.227777764,-0.046296296,1,0,0,1.5474,optionLeft,70,10850,5,21,0,21,0,1,,,,,,,,,,,,,,,,,,,,,,,,,,,,,,,,,,,,,,,
,,,,,,,,2023-08-16_08h52.59.962,HF_wild_card,2022.2.4,Win32,59.89817311,5713cc324cfd6f0009aa7329,64d2fd46c836a06233681665,64dc7ee3219a5a5f237f3755,,,,,,,sngl,resources/DP.BMP,resources/Empty.png,WildCard_NonEx,-0.292592578,-0.053703697,1,0,0,1.0967,optionLeft,55,10905,5,22,0,22,0,1,,,,,,,,,,,,,,,,,,,,,,,,,,,,,,,,,,,,,,,
,,,,,,,,2023-08-16_08h52.59.962,HF_wild_card,2022.2.4,Win32,59.89817311,5713cc324cfd6f0009aa7329,64d2fd46c836a06233681665,64dc7ee3219a5a5f237f3755,,,,,,,sngl,resources/DB.BMP,resources/Empty.png,Door4,-0.314814815,-0.061111132,1,0,0,0.7817,optionLeft,80,10985,5,23,0,23,0,1,,,,,,,,,,,,,,,,,,,,,,,,,,,,,,,,,,,,,,,
,,,,,,,,2023-08-16_08h52.59.962,HF_wild_card,2022.2.4,Win32,59.89817311,5713cc324cfd6f0009aa7329,64d2fd46c836a06233681665,64dc7ee3219a5a5f237f3755,,,,,,,decisionTrl,resources/DY.BMP,resources/DBN.BMP,Door1,0.311111168,0.014814801,1,0,0,1.3616,optionRight,30,11015,5,24,0,24,0,1,,,,,,,,,,,,,,,,,,,,,,,,,,,,,,,,,,,,,,,
,,,,,,,,2023-08-16_08h52.59.962,HF_wild_card,2022.2.4,Win32,59.89817311,5713cc324cfd6f0009aa7329,64d2fd46c836a06233681665,64dc7ee3219a5a5f237f3755,,,,,,,ctch,resources/DG.BMP,resources/DY.BMP,Door3,-0.311111097,-0.046296296,1,0,0,1.1276,optionLeft,70,11085,5,25,0,25,0,1,,,,,,,,,,,,,,,,,,,,,,,,,,,,,,,,,,,,,,,
,,,,,,,,2023-08-16_08h52.59.962,HF_wild_card,2022.2.4,Win32,59.89817311,5713cc324cfd6f0009aa7329,64d2fd46c836a06233681665,64dc7ee3219a5a5f237f3755,,,,,,,sngl,resources/Empty.png,resources/DP.BMP,WildCard_NonEx,0.352777834,-0.037037037,1,0,0,0.894,optionRight,45,11130,5,26,0,26,0,1,,,,,,,,,,,,,,,,,,,,,,,,,,,,,,,,,,,,,,,
,,,,,,,,2023-08-16_08h52.59.962,HF_wild_card,2022.2.4,Win32,59.89817311,5713cc324cfd6f0009aa7329,64d2fd46c836a06233681665,64dc7ee3219a5a5f237f3755,,,,,,,decisionTrl,resources/DG.BMP,resources/DP.BMP,Door3,-0.252777735,-0.083333333,1,0,0,1.6266,optionLeft,70,11200,5,27,0,27,0,1,,,,,,,,,,,,,,,,,,,,,,,,,,,,,,,,,,,,,,,
,,,,,,,,2023-08-16_08h52.59.962,HF_wild_card,2022.2.4,Win32,59.89817311,5713cc324cfd6f0009aa7329,64d2fd46c836a06233681665,64dc7ee3219a5a5f237f3755,,,,,,,sngl,resources/Empty.png,resources/DP.BMP,WildCard_NonEx,0.357407464,-0.065740762,1,0,0,0.7778,optionRight,55,11255,5,28,0,28,0,1,,,,,,,,,,,,,,,,,,,,,,,,,,,,,,,,,,,,,,,
,,,,,,,,2023-08-16_08h52.59.962,HF_wild_card,2022.2.4,Win32,59.89817311,5713cc324cfd6f0009aa7329,64d2fd46c836a06233681665,64dc7ee3219a5a5f237f3755,,,,,,,decisionTrl,resources/DY.BMP,resources/DBN.BMP,Door1,0.338888945,-0.048148155,1,0,0,1.5815,optionRight,30,11285,5,29,0,29,0,1,,,,,,,,,,,,,,,,,,,,,,,,,,,,,,,,,,,,,,,
,,,,,,,,2023-08-16_08h52.59.962,HF_wild_card,2022.2.4,Win32,59.89817311,5713cc324cfd6f0009aa7329,64d2fd46c836a06233681665,64dc7ee3219a5a5f237f3755,,,,,,,ctch,resources/DY.BMP,resources/DG.BMP,Door3,0.366666723,-0.054629644,1,0,0,1.3117,optionRight,70,11355,5,30,0,30,0,1,,,,,,,,,,,,,,,,,,,,,,,,,,,,,,,,,,,,,,,
,,,,,,,,2023-08-16_08h52.59.962,HF_wild_card,2022.2.4,Win32,59.89817311,5713cc324cfd6f0009aa7329,64d2fd46c836a06233681665,64dc7ee3219a5a5f237f3755,,,,,,,decisionTrl,resources/DY.BMP,resources/DBN.BMP,Door1,0.324074074,-0.009259259,1,0,0,1.7487,optionRight,30,11385,5,31,0,31,0,1,,,,,,,,,,,,,,,,,,,,,,,,,,,,,,,,,,,,,,,
,,,,,,,,2023-08-16_08h52.59.962,HF_wild_card,2022.2.4,Win32,59.89817311,5713cc324cfd6f0009aa7329,64d2fd46c836a06233681665,64dc7ee3219a5a5f237f3755,,,,,,,decisionTrl,resources/DP.BMP,resources/DB.BMP,Door4,0.309259344,-0.044444437,1,0,0,1.8651,optionRight,80,11465,5,32,0,32,0,1,,,,,,,,,,,,,,,,,,,,,,,,,,,,,,,,,,,,,,,
,,,,,,,,2023-08-16_08h52.59.962,HF_wild_card,2022.2.4,Win32,59.89817311,5713cc324cfd6f0009aa7329,64d2fd46c836a06233681665,64dc7ee3219a5a5f237f3755,,,,,,,decisionTrl,resources/DG.BMP,resources/DB.BMP,Door3,-0.252777735,-0.017592607,1,0,0,1.5785,optionLeft,70,11535,5,33,0,33,0,1,,,,,,,,,,,,,,,,,,,,,,,,,,,,,,,,,,,,,,,
,,,,,,,,2023-08-16_08h52.59.962,HF_wild_card,2022.2.4,Win32,59.89817311,5713cc324cfd6f0009aa7329,64d2fd46c836a06233681665,64dc7ee3219a5a5f237f3755,,,,,,,sngl,resources/Empty.png,resources/DB.BMP,Door4,0.319444444,-0.059259273,1,0,0,0.8259,optionRight,60,11595,5,34,0,34,0,1,,,,,,,,,,,,,,,,,,,,,,,,,,,,,,,,,,,,,,,
,,,,,,,,2023-08-16_08h52.59.962,HF_wild_card,2022.2.4,Win32,59.89817311,5713cc324cfd6f0009aa7329,64d2fd46c836a06233681665,64dc7ee3219a5a5f237f3755,,,,,,,decisionTrl,resources/DP.BMP,resources/DBN.BMP,WildCard_NonEx,-0.290740755,-0.078703704,1,0,0,1.5619,optionLeft,55,11650,5,35,0,35,0,1,,,,,,,,,,,,,,,,,,,,,,,,,,,,,,,,,,,,,,,
,,,,,,,,2023-08-16_08h52.59.962,HF_wild_card,2022.2.4,Win32,59.89817311,5713cc324cfd6f0009aa7329,64d2fd46c836a06233681665,64dc7ee3219a5a5f237f3755,,,,,,,sngl,resources/DY.BMP,resources/Empty.png,Door2,-0.265740712,-0.056481503,1,0,0,0.7973,optionLeft,40,11690,5,36,0,36,0,1,,,,,,,,,,,,,,,,,,,,,,,,,,,,,,,,,,,,,,,
,,,,,,,,2023-08-16_08h52.59.962,HF_wild_card,2022.2.4,Win32,59.89817311,5713cc324cfd6f0009aa7329,64d2fd46c836a06233681665,64dc7ee3219a5a5f237f3755,,,,,,,decisionTrl,resources/DG.BMP,resources/DB.BMP,Door3,-0.313888868,-0.039814808,1,0,0,2.2639,optionLeft,70,11760,5,37,0,37,0,1,,,,,,,,,,,,,,,,,,,,,,,,,,,,,,,,,,,,,,,
,,,,,,,,2023-08-16_08h52.59.962,HF_wild_card,2022.2.4,Win32,59.89817311,5713cc324cfd6f0009aa7329,64d2fd46c836a06233681665,64dc7ee3219a5a5f237f3755,,,,,,,sngl,resources/DBN.BMP,resources/Empty.png,Door1,-0.249074088,-0.115740741,1,0,0,0.9618,optionLeft,30,11790,5,38,0,38,0,1,,,,,,,,,,,,,,,,,,,,,,,,,,,,,,,,,,,,,,,
,,,,,,,,2023-08-16_08h52.59.962,HF_wild_card,2022.2.4,Win32,59.89817311,5713cc324cfd6f0009aa7329,64d2fd46c836a06233681665,64dc7ee3219a5a5f237f3755,,,,,,,decisionTrl,resources/DBN.BMP,resources/DY.BMP,Door2,0.305555556,-0.024074095,1,0,0,2.1478,optionRight,40,11830,5,39,0,39,0,1,,,,,,,,,,,,,,,,,,,,,,,,,,,,,,,,,,,,,,,
,,,,,,,,2023-08-16_08h52.59.962,HF_wild_card,2022.2.4,Win32,59.89817311,5713cc324cfd6f0009aa7329,64d2fd46c836a06233681665,64dc7ee3219a5a5f237f3755,,,,,,,ctch,resources/DB.BMP,resources/DBN.BMP,Door4,-0.337962963,-0.087962963,1,0,0,1.9297,optionLeft,80,11910,5,40,0,40,0,1,,,,,,,,,,,,,,,,,,,,,,,,,,,,,,,,,,,,,,,
,,,,,,,,2023-08-16_08h52.59.962,HF_wild_card,2022.2.4,Win32,59.89817311,5713cc324cfd6f0009aa7329,64d2fd46c836a06233681665,64dc7ee3219a5a5f237f3755,,,,,,,decisionTrl,resources/DB.BMP,resources/DG.BMP,Door3,0.33148151,-0.029629637,0,0,1,1.4133,optionRight,70,11980,5,41,0,41,0,1,,,,,,,,,,,,,,,,,,,,,,,,,,,,,,,,,,,,,,,
,,,,,,,,2023-08-16_08h52.59.962,HF_wild_card,2022.2.4,Win32,59.89817311,5713cc324cfd6f0009aa7329,64d2fd46c836a06233681665,64dc7ee3219a5a5f237f3755,,,,,,,decisionTrl,resources/DP.BMP,resources/DG.BMP,Door3,0.367592564,-0.002777771,1,0,0,1.6158,optionRight,70,12050,5,42,0,42,0,1,,,,,,,,,,,,,,,,,,,,,,,,,,,,,,,,,,,,,,,
,,,,,,,,2023-08-16_08h52.59.962,HF_wild_card,2022.2.4,Win32,59.89817311,5713cc324cfd6f0009aa7329,64d2fd46c836a06233681665,64dc7ee3219a5a5f237f3755,,,,,,,sngl,resources/Empty.png,resources/DY.BMP,Door2,0.32222225,-0.065740762,1,0,0,0.978,optionRight,20,12070,5,43,0,43,0,1,,,,,,,,,,,,,,,,,,,,,,,,,,,,,,,,,,,,,,,
,,,,,,,,2023-08-16_08h52.59.962,HF_wild_card,2022.2.4,Win32,59.89817311,5713cc324cfd6f0009aa7329,64d2fd46c836a06233681665,64dc7ee3219a5a5f237f3755,,,,,,,,,,,,,,,,,,,,,,,,,,4,0,4,0,1,,,,,,,,,,,,,,,,,,,,,,,,,,,,,,,,,,
,,,,,,,,2023-08-16_08h52.59.962,HF_wild_card,2022.2.4,Win32,59.89817311,5713cc324cfd6f0009aa7329,64d2fd46c836a06233681665,64dc7ee3219a5a5f237f3755,,,,,,,sngl,resources/DY.BMP,resources/Empty.png,Door2,-0.23055557,-0.136111153,1,0,0,2.494,optionLeft,20,12090,6,0,0,0,0,1,,,,,,,,,,,,,,,,,,,,,,,,,,,,,,,,,,,,,,,
,,,,,,,,2023-08-16_08h52.59.962,HF_wild_card,2022.2.4,Win32,59.89817311,5713cc324cfd6f0009aa7329,64d2fd46c836a06233681665,64dc7ee3219a5a5f237f3755,,,,,,,decisionTrl,resources/DBN.BMP,resources/DY.BMP,Door1,-0.387962942,-0.001851859,1,0,0,1.665,optionLeft,30,12120,6,1,0,1,0,1,,,,,,,,,,,,,,,,,,,,,,,,,,,,,,,,,,,,,,,
,,,,,,,,2023-08-16_08h52.59.962,HF_wild_card,2022.2.4,Win32,59.89817311,5713cc324cfd6f0009aa7329,64d2fd46c836a06233681665,64dc7ee3219a5a5f237f3755,,,,,,,decisionTrl,resources/DB.BMP,resources/DG.BMP,Door3,0.334259316,-0.017592607,1,0,0,1.58,optionRight,70,12190,6,2,0,2,0,1,,,,,,,,,,,,,,,,,,,,,,,,,,,,,,,,,,,,,,,
,,,,,,,,2023-08-16_08h52.59.962,HF_wild_card,2022.2.4,Win32,59.89817311,5713cc324cfd6f0009aa7329,64d2fd46c836a06233681665,64dc7ee3219a5a5f237f3755,,,,,,,ctch,resources/DBN.BMP,resources/DB.BMP,Door4,0.242592635,-0.021296289,1,0,0,1.1307,optionRight,80,12270,6,3,0,3,0,1,,,,,,,,,,,,,,,,,,,,,,,,,,,,,,,,,,,,,,,
,,,,,,,,2023-08-16_08h52.59.962,HF_wild_card,2022.2.4,Win32,59.89817311,5713cc324cfd6f0009aa7329,64d2fd46c836a06233681665,64dc7ee3219a5a5f237f3755,,,,,,,sngl,resources/Empty.png,resources/DY.BMP,Door2,0.262962977,0.005555541,1,0,0,0.913,optionRight,40,12310,6,4,0,4,0,1,,,,,,,,,,,,,,,,,,,,,,,,,,,,,,,,,,,,,,,
,,,,,,,,2023-08-16_08h52.59.962,HF_wild_card,2022.2.4,Win32,59.89817311,5713cc324cfd6f0009aa7329,64d2fd46c836a06233681665,64dc7ee3219a5a5f237f3755,,,,,,,decisionTrl,resources/DY.BMP,resources/DBN.BMP,Door1,0.299074102,0.011111118,1,0,0,2.061,optionRight,30,12340,6,5,0,5,0,1,,,,,,,,,,,,,,,,,,,,,,,,,,,,,,,,,,,,,,,
,,,,,,,,2023-08-16_08h52.59.962,HF_wild_card,2022.2.4,Win32,59.89817311,5713cc324cfd6f0009aa7329,64d2fd46c836a06233681665,64dc7ee3219a5a5f237f3755,,,,,,,decisionTrl,resources/DBN.BMP,resources/DY.BMP,Door2,0.333333333,-0.023148148,1,0,0,1.1793,optionRight,40,12380,6,6,0,6,0,1,,,,,,,,,,,,,,,,,,,,,,,,,,,,,,,,,,,,,,,
,,,,,,,,2023-08-16_08h52.59.962,HF_wild_card,2022.2.4,Win32,59.89817311,5713cc324cfd6f0009aa7329,64d2fd46c836a06233681665,64dc7ee3219a5a5f237f3755,,,,,,,decisionTrl,resources/DG.BMP,resources/DB.BMP,Door3,-0.279629601,-0.030555548,1,0,0,1.6114,optionLeft,70,12450,6,7,0,7,0,1,,,,,,,,,,,,,,,,,,,,,,,,,,,,,,,,,,,,,,,
,,,,,,,,2023-08-16_08h52.59.962,HF_wild_card,2022.2.4,Win32,59.89817311,5713cc324cfd6f0009aa7329,64d2fd46c836a06233681665,64dc7ee3219a5a5f237f3755,,,,,,,ctch,resources/DG.BMP,resources/DY.BMP,Door3,-0.26944443,-0.037962984,1,0,0,1.6151,optionLeft,70,12520,6,8,0,8,0,1,,,,,,,,,,,,,,,,,,,,,,,,,,,,,,,,,,,,,,,
,,,,,,,,2023-08-16_08h52.59.962,HF_wild_card,2022.2.4,Win32,59.89817311,5713cc324cfd6f0009aa7329,64d2fd46c836a06233681665,64dc7ee3219a5a5f237f3755,,,,,,,decisionTrl,resources/DBN.BMP,resources/DY.BMP,Door2,0.243518547,-0.030555548,1,0,0,1.1145,optionRight,20,12540,6,9,0,9,0,1,,,,,,,,,,,,,,,,,,,,,,,,,,,,,,,,,,,,,,,
,,,,,,,,2023-08-16_08h52.59.962,HF_wild_card,2022.2.4,Win32,59.89817311,5713cc324cfd6f0009aa7329,64d2fd46c836a06233681665,64dc7ee3219a5a5f237f3755,,,,,,,decisionTrl,resources/DB.BMP,resources/DG.BMP,Door3,0.350926011,0.0074074,1,0,0,2.3449,optionRight,70,12610,6,10,0,10,0,1,,,,,,,,,,,,,,,,,,,,,,,,,,,,,,,,,,,,,,,
,,,,,,,,2023-08-16_08h52.59.962,HF_wild_card,2022.2.4,Win32,59.89817311,5713cc324cfd6f0009aa7329,64d2fd46c836a06233681665,64dc7ee3219a5a5f237f3755,,,,,,,decisionTrl,resources/DP.BMP,resources/DB.BMP,Door4,0.280555584,0.017592571,1,0,0,1.7107,optionRight,60,12670,6,11,0,11,0,1,,,,,,,,,,,,,,,,,,,,,,,,,,,,,,,,,,,,,,,
,,,,,,,,2023-08-16_08h52.59.962,HF_wild_card,2022.2.4,Win32,59.89817311,5713cc324cfd6f0009aa7329,64d2fd46c836a06233681665,64dc7ee3219a5a5f237f3755,,,,,,,decisionTrl,resources/DBN.BMP,resources/DY.BMP,Door1,-0.308333326,-0.042592614,1,0,0,1.5448,optionLeft,30,12700,6,12,0,12,0,1,,,,,,,,,,,,,,,,,,,,,,,,,,,,,,,,,,,,,,,
,,,,,,,,2023-08-16_08h52.59.962,HF_wild_card,2022.2.4,Win32,59.89817311,5713cc324cfd6f0009aa7329,64d2fd46c836a06233681665,64dc7ee3219a5a5f237f3755,,,,,,,ctch,resources/DB.BMP,resources/DBN.BMP,Door4,-0.299074067,-0.049074067,1,0,0,1.3314,optionLeft,60,12760,6,13,0,13,0,1,,,,,,,,,,,,,,,,,,,,,,,,,,,,,,,,,,,,,,,
,,,,,,,,2023-08-16_08h52.59.962,HF_wild_card,2022.2.4,Win32,59.89817311,5713cc324cfd6f0009aa7329,64d2fd46c836a06233681665,64dc7ee3219a5a5f237f3755,,,,,,,decisionTrl,resources/DY.BMP,resources/DBN.BMP,Door1,0.287037037,-0.010185206,1,0,0,1.7149,optionRight,30,12790,6,14,0,14,0,1,,,,,,,,,,,,,,,,,,,,,,,,,,,,,,,,,,,,,,,
,,,,,,,,2023-08-16_08h52.59.962,HF_wild_card,2022.2.4,Win32,59.89817311,5713cc324cfd6f0009aa7329,64d2fd46c836a06233681665,64dc7ee3219a5a5f237f3755,,,,,,,decisionTrl,resources/DG.BMP,resources/DP.BMP,Door3,-0.327777757,-0.037962984,1,0,0,2.6772,optionLeft,70,12860,6,15,0,15,0,1,,,,,,,,,,,,,,,,,,,,,,,,,,,,,,,,,,,,,,,
,,,,,,,,2023-08-16_08h52.59.962,HF_wild_card,2022.2.4,Win32,59.89817311,5713cc324cfd6f0009aa7329,64d2fd46c836a06233681665,64dc7ee3219a5a5f237f3755,,,,,,,ctch,resources/DG.BMP,resources/DY.BMP,Door3,-0.349999993,-0.064814815,1,0,0,1.333,optionLeft,70,12930,6,16,0,16,0,1,,,,,,,,,,,,,,,,,,,,,,,,,,,,,,,,,,,,,,,
,,,,,,,,2023-08-16_08h52.59.962,HF_wild_card,2022.2.4,Win32,59.89817311,5713cc324cfd6f0009aa7329,64d2fd46c836a06233681665,64dc7ee3219a5a5f237f3755,,,,,,,sngl,resources/Empty.png,resources/DB.BMP,Door4,0.26944443,-0.034259266,1,0,0,0.9452,optionRight,80,13010,6,17,0,17,0,1,,,,,,,,,,,,,,,,,,,,,,,,,,,,,,,,,,,,,,,
,,,,,,,,2023-08-16_08h52.59.962,HF_wild_card,2022.2.4,Win32,59.89817311,5713cc324cfd6f0009aa7329,64d2fd46c836a06233681665,64dc7ee3219a5a5f237f3755,,,,,,,decisionTrl,resources/DY.BMP,resources/DP.BMP,WildCard_NonEx,0.30277775,-0.015740748,1,0,0,1.2776,optionRight,45,13055,6,18,0,18,0,1,,,,,,,,,,,,,,,,,,,,,,,,,,,,,,,,,,,,,,,
,,,,,,,,2023-08-16_08h52.59.962,HF_wild_card,2022.2.4,Win32,59.89817311,5713cc324cfd6f0009aa7329,64d2fd46c836a06233681665,64dc7ee3219a5a5f237f3755,,,,,,,decisionTrl,resources/DG.BMP,resources/DB.BMP,Door3,-0.259259259,-0.023148148,1,0,0,1.7017,optionLeft,70,13125,6,19,0,19,0,1,,,,,,,,,,,,,,,,,,,,,,,,,,,,,,,,,,,,,,,
,,,,,,,,2023-08-16_08h52.59.962,HF_wild_card,2022.2.4,Win32,59.89817311,5713cc324cfd6f0009aa7329,64d2fd46c836a06233681665,64dc7ee3219a5a5f237f3755,,,,,,,decisionTrl,resources/DBN.BMP,resources/DP.BMP,WildCard_NonEx,0.301851908,-0.025925919,1,0,0,1.5809,optionRight,55,13180,6,20,0,20,0,1,,,,,,,,,,,,,,,,,,,,,,,,,,,,,,,,,,,,,,,
,,,,,,,,2023-08-16_08h52.59.962,HF_wild_card,2022.2.4,Win32,59.89817311,5713cc324cfd6f0009aa7329,64d2fd46c836a06233681665,64dc7ee3219a5a5f237f3755,,,,,,,decisionTrl,resources/DP.BMP,resources/DY.BMP,WildCard_NonEx,-0.250925912,-0.039814808,1,0,0,1.2853,optionLeft,45,13225,6,21,0,21,0,1,,,,,,,,,,,,,,,,,,,,,,,,,,,,,,,,,,,,,,,
,,,,,,,,2023-08-16_08h52.59.962,HF_wild_card,2022.2.4,Win32,59.89817311,5713cc324cfd6f0009aa7329,64d2fd46c836a06233681665,64dc7ee3219a5a5f237f3755,,,,,,,sngl,resources/Empty.png,resources/DP.BMP,WildCard_NonEx,0.33148151,-0.033333355,1,0,0,1.0283,optionRight,55,13280,6,22,0,22,0,1,,,,,,,,,,,,,,,,,,,,,,,,,,,,,,,,,,,,,,,
,,,,,,,,2023-08-16_08h52.59.962,HF_wild_card,2022.2.4,Win32,59.89817311,5713cc324cfd6f0009aa7329,64d2fd46c836a06233681665,64dc7ee3219a5a5f237f3755,,,,,,,sngl,resources/Empty.png,resources/DG.BMP,Door3,0.301851908,-0.038888896,1,0,0,0.949,optionRight,70,13350,6,23,0,23,0,1,,,,,,,,,,,,,,,,,,,,,,,,,,,,,,,,,,,,,,,
,,,,,,,,2023-08-16_08h52.59.962,HF_wild_card,2022.2.4,Win32,59.89817311,5713cc324cfd6f0009aa7329,64d2fd46c836a06233681665,64dc7ee3219a5a5f237f3755,,,,,,,decisionTrl,resources/DY.BMP,resources/DBN.BMP,Door2,-0.299074067,-0.051851873,1,0,0,4.0424,optionLeft,40,13390,6,24,0,24,0,1,,,,,,,,,,,,,,,,,,,,,,,,,,,,,,,,,,,,,,,
,,,,,,,,2023-08-16_08h52.59.962,HF_wild_card,2022.2.4,Win32,59.89817311,5713cc324cfd6f0009aa7329,64d2fd46c836a06233681665,64dc7ee3219a5a5f237f3755,,,,,,,sngl,resources/Empty.png,resources/DP.BMP,WildCard_NonEx,0.347222222,-0.028703725,1,0,0,0.8136,optionRight,45,13435,6,25,0,25,0,1,,,,,,,,,,,,,,,,,,,,,,,,,,,,,,,,,,,,,,,
,,,,,,,,2023-08-16_08h52.59.962,HF_wild_card,2022.2.4,Win32,59.89817311,5713cc324cfd6f0009aa7329,64d2fd46c836a06233681665,64dc7ee3219a5a5f237f3755,,,,,,,decisionTrl,resources/DB.BMP,resources/DG.BMP,Door3,0.32222225,-0.044444437,1,0,0,1.5449,optionRight,70,13505,6,26,0,26,0,1,,,,,,,,,,,,,,,,,,,,,,,,,,,,,,,,,,,,,,,
,,,,,,,,2023-08-16_08h52.59.962,HF_wild_card,2022.2.4,Win32,59.89817311,5713cc324cfd6f0009aa7329,64d2fd46c836a06233681665,64dc7ee3219a5a5f237f3755,,,,,,,decisionTrl,resources/DB.BMP,resources/DG.BMP,Door3,0.321296268,-0.065740762,1,0,0,2.2126,optionRight,70,13575,6,27,0,27,0,1,,,,,,,,,,,,,,,,,,,,,,,,,,,,,,,,,,,,,,,
,,,,,,,,2023-08-16_08h52.59.962,HF_wild_card,2022.2.4,Win32,59.89817311,5713cc324cfd6f0009aa7329,64d2fd46c836a06233681665,64dc7ee3219a5a5f237f3755,,,,,,,ctch,resources/DB.BMP,resources/DBN.BMP,Door4,-0.273148148,-0.059259273,1,0,0,1.1757,optionLeft,60,13635,6,28,0,28,0,1,,,,,,,,,,,,,,,,,,,,,,,,,,,,,,,,,,,,,,,
,,,,,,,,2023-08-16_08h52.59.962,HF_wild_card,2022.2.4,Win32,59.89817311,5713cc324cfd6f0009aa7329,64d2fd46c836a06233681665,64dc7ee3219a5a5f237f3755,,,,,,,decisionTrl,resources/DB.BMP,resources/DP.BMP,Door4,-0.25462963,-0.076851845,1,0,0,1.4979,optionLeft,80,13715,6,29,0,29,0,1,,,,,,,,,,,,,,,,,,,,,,,,,,,,,,,,,,,,,,,
,,,,,,,,2023-08-16_08h52.59.962,HF_wild_card,2022.2.4,Win32,59.89817311,5713cc324cfd6f0009aa7329,64d2fd46c836a06233681665,64dc7ee3219a5a5f237f3755,,,,,,,decisionTrl,resources/DG.BMP,resources/DB.BMP,Door3,-0.25,-0.057407414,1,0,0,1.9968,optionLeft,70,13785,6,30,0,30,0,1,,,,,,,,,,,,,,,,,,,,,,,,,,,,,,,,,,,,,,,
,,,,,,,,2023-08-16_08h52.59.962,HF_wild_card,2022.2.4,Win32,59.89817311,5713cc324cfd6f0009aa7329,64d2fd46c836a06233681665,64dc7ee3219a5a5f237f3755,,,,,,,ctch,resources/DY.BMP,resources/DG.BMP,Door3,0.369444529,-0.033333355,1,0,0,1.3606,optionRight,70,13855,6,31,0,31,0,1,,,,,,,,,,,,,,,,,,,,,,,,,,,,,,,,,,,,,,,
,,,,,,,,2023-08-16_08h52.59.962,HF_wild_card,2022.2.4,Win32,59.89817311,5713cc324cfd6f0009aa7329,64d2fd46c836a06233681665,64dc7ee3219a5a5f237f3755,,,,,,,sngl,resources/Empty.png,resources/DBN.BMP,Door1,0.313888974,-0.015740748,1,0,0,0.998,optionRight,30,13885,6,32,0,32,0,1,,,,,,,,,,,,,,,,,,,,,,,,,,,,,,,,,,,,,,,
,,,,,,,,2023-08-16_08h52.59.962,HF_wild_card,2022.2.4,Win32,59.89817311,5713cc324cfd6f0009aa7329,64d2fd46c836a06233681665,64dc7ee3219a5a5f237f3755,,,,,,,sngl,resources/DG.BMP,resources/Empty.png,Door3,-0.270370342,-0.025000007,1,0,0,0.7963,optionLeft,70,13955,6,33,0,33,0,1,,,,,,,,,,,,,,,,,,,,,,,,,,,,,,,,,,,,,,,
,,,,,,,,2023-08-16_08h52.59.962,HF_wild_card,2022.2.4,Win32,59.89817311,5713cc324cfd6f0009aa7329,64d2fd46c836a06233681665,64dc7ee3219a5a5f237f3755,,,,,,,sngl,resources/DP.BMP,resources/Empty.png,WildCard_NonEx,-0.24537037,-0.071296303,1,0,0,0.815,optionLeft,55,14010,6,34,0,34,0,1,,,,,,,,,,,,,,,,,,,,,,,,,,,,,,,,,,,,,,,
,,,,,,,,2023-08-16_08h52.59.962,HF_wild_card,2022.2.4,Win32,59.89817311,5713cc324cfd6f0009aa7329,64d2fd46c836a06233681665,64dc7ee3219a5a5f237f3755,,,,,,,sngl,resources/DB.BMP,resources/Empty.png,Door4,-0.235185199,-0.080555563,1,0,0,0.7778,optionLeft,60,14070,6,35,0,35,0,1,,,,,,,,,,,,,,,,,,,,,,,,,,,,,,,,,,,,,,,
,,,,,,,,2023-08-16_08h52.59.962,HF_wild_card,2022.2.4,Win32,59.89817311,5713cc324cfd6f0009aa7329,64d2fd46c836a06233681665,64dc7ee3219a5a5f237f3755,,,,,,,sngl,resources/DBN.BMP,resources/Empty.png,Door1,-0.262962977,-0.047222243,1,0,0,0.7969,optionLeft,30,14100,6,36,0,36,0,1,,,,,,,,,,,,,,,,,,,,,,,,,,,,,,,,,,,,,,,
,,,,,,,,2023-08-16_08h52.59.962,HF_wild_card,2022.2.4,Win32,59.89817311,5713cc324cfd6f0009aa7329,64d2fd46c836a06233681665,64dc7ee3219a5a5f237f3755,,,,,,,ctch,resources/DY.BMP,resources/DG.BMP,Door3,0.318518603,-0.027777778,1,0,0,1.3438,optionRight,70,14170,6,37,0,37,0,1,,,,,,,,,,,,,,,,,,,,,,,,,,,,,,,,,,,,,,,
,,,,,,,,2023-08-16_08h52.59.962,HF_wild_card,2022.2.4,Win32,59.89817311,5713cc324cfd6f0009aa7329,64d2fd46c836a06233681665,64dc7ee3219a5a5f237f3755,,,,,,,decisionTrl,resources/DG.BMP,resources/DB.BMP,Door3,-0.252777735,-0.049074067,1,0,0,1.1283,optionLeft,70,14240,6,38,0,38,0,1,,,,,,,,,,,,,,,,,,,,,,,,,,,,,,,,,,,,,,,
,,,,,,,,2023-08-16_08h52.59.962,HF_wild_card,2022.2.4,Win32,59.89817311,5713cc324cfd6f0009aa7329,64d2fd46c836a06233681665,64dc7ee3219a5a5f237f3755,,,,,,,decisionTrl,resources/DP.BMP,resources/DBN.BMP,WildCard_NonEx,-0.222222222,-0.059259273,1,0,0,1.0142,optionLeft,55,14295,6,39,0,39,0,1,,,,,,,,,,,,,,,,,,,,,,,,,,,,,,,,,,,,,,,
,,,,,,,,2023-08-16_08h52.59.962,HF_wild_card,2022.2.4,Win32,59.89817311,5713cc324cfd6f0009aa7329,64d2fd46c836a06233681665,64dc7ee3219a5a5f237f3755,,,,,,,decisionTrl,resources/DY.BMP,resources/DBN.BMP,Door2,-0.314814815,-0.058333326,1,0,0,3.3384,optionLeft,20,14315,6,40,0,40,0,1,,,,,,,,,,,,,,,,,,,,,,,,,,,,,,,,,,,,,,,
,,,,,,,,2023-08-16_08h52.59.962,HF_wild_card,2022.2.4,Win32,59.89817311,5713cc324cfd6f0009aa7329,64d2fd46c836a06233681665,64dc7ee3219a5a5f237f3755,,,,,,,ctch,resources/DBN.BMP,resources/DB.BMP,Door4,0.372222194,-0.037962984,1,0,0,1.0121,optionRight,80,14395,6,41,0,41,0,1,,,,,,,,,,,,,,,,,,,,,,,,,,,,,,,,,,,,,,,
,,,,,,,,2023-08-16_08h52.59.962,HF_wild_card,2022.2.4,Win32,59.89817311,5713cc324cfd6f0009aa7329,64d2fd46c836a06233681665,64dc7ee3219a5a5f237f3755,,,,,,,decisionTrl,resources/DP.BMP,resources/DG.BMP,Door3,0.236111111,-0.022222236,1,0,0,1.9886,optionRight,70,14465,6,42,0,42,0,1,,,,,,,,,,,,,,,,,,,,,,,,,,,,,,,,,,,,,,,
,,,,,,,,2023-08-16_08h52.59.962,HF_wild_card,2022.2.4,Win32,59.89817311,5713cc324cfd6f0009aa7329,64d2fd46c836a06233681665,64dc7ee3219a5a5f237f3755,,,,,,,sngl,resources/DP.BMP,resources/Empty.png,WildCard_NonEx,-0.231481481,-0.040740755,1,0,0,0.7757,optionLeft,45,14510,6,43,0,43,0,1,,,,,,,,,,,,,,,,,,,,,,,,,,,,,,,,,,,,,,,
,,,,,,,,2023-08-16_08h52.59.962,HF_wild_card,2022.2.4,Win32,59.89817311,5713cc324cfd6f0009aa7329,64d2fd46c836a06233681665,64dc7ee3219a5a5f237f3755,,,,,,,,,,,,,,,,,,,,,,,,,,5,0,5,0,1,,,,,,,,,,,,,,,,,,,,,,,,,,,,,,,,,,
,,,,,,,,2023-08-16_08h52.59.962,HF_wild_card,2022.2.4,Win32,59.89817311,5713cc324cfd6f0009aa7329,64d2fd46c836a06233681665,64dc7ee3219a5a5f237f3755,,,,,,,decisionTrl,resources/DY.BMP,resources/DBN.BMP,Door1,0.351851852,-0.022222236,1,0,0,1.7542,optionRight,30,14540,7,0,0,0,0,1,,,,,,,,,,,,,,,,,,,,,,,,,,,,,,,,,,,,,,,
,,,,,,,,2023-08-16_08h52.59.962,HF_wild_card,2022.2.4,Win32,59.89817311,5713cc324cfd6f0009aa7329,64d2fd46c836a06233681665,64dc7ee3219a5a5f237f3755,,,,,,,decisionTrl,resources/DG.BMP,resources/DB.BMP,Door3,-0.270370342,-0.026851866,1,0,0,1.6571,optionLeft,70,14610,7,1,0,1,0,1,,,,,,,,,,,,,,,,,,,,,,,,,,,,,,,,,,,,,,,
,,,,,,,,2023-08-16_08h52.59.962,HF_wild_card,2022.2.4,Win32,59.89817311,5713cc324cfd6f0009aa7329,64d2fd46c836a06233681665,64dc7ee3219a5a5f237f3755,,,,,,,decisionTrl,resources/DB.BMP,resources/DG.BMP,Door3,0.37962963,-0.061111132,1,0,0,1.0462,optionRight,70,14680,7,2,0,2,0,1,,,,,,,,,,,,,,,,,,,,,,,,,,,,,,,,,,,,,,,
,,,,,,,,2023-08-16_08h52.59.962,HF_wild_card,2022.2.4,Win32,59.89817311,5713cc324cfd6f0009aa7329,64d2fd46c836a06233681665,64dc7ee3219a5a5f237f3755,,,,,,,decisionTrl,resources/DY.BMP,resources/DBN.BMP,Door1,0.339814787,-0.024074095,1,0,0,1.4491,optionRight,30,14710,7,3,0,3,0,1,,,,,,,,,,,,,,,,,,,,,,,,,,,,,,,,,,,,,,,
,,,,,,,,2023-08-16_08h52.59.962,HF_wild_card,2022.2.4,Win32,59.89817311,5713cc324cfd6f0009aa7329,64d2fd46c836a06233681665,64dc7ee3219a5a5f237f3755,,,,,,,ctch,resources/DY.BMP,resources/DG.BMP,Door3,0.325925898,-0.027777778,1,0,0,1.0791,optionRight,70,14780,7,4,0,4,0,1,,,,,,,,,,,,,,,,,,,,,,,,,,,,,,,,,,,,,,,
,,,,,,,,2023-08-16_08h52.59.962,HF_wild_card,2022.2.4,Win32,59.89817311,5713cc324cfd6f0009aa7329,64d2fd46c836a06233681665,64dc7ee3219a5a5f237f3755,,,,,,,decisionTrl,resources/DBN.BMP,resources/DY.BMP,Door1,-0.25462963,-0.070370392,1,0,0,1.482,optionLeft,30,14810,7,5,0,5,0,1,,,,,,,,,,,,,,,,,,,,,,,,,,,,,,,,,,,,,,,
,,,,,,,,2023-08-16_08h52.59.962,HF_wild_card,2022.2.4,Win32,59.89817311,5713cc324cfd6f0009aa7329,64d2fd46c836a06233681665,64dc7ee3219a5a5f237f3755,,,,,,,decisionTrl,resources/DY.BMP,resources/DBN.BMP,Door1,0.284259302,0.00462963,1,0,0,1.3652,optionRight,30,14840,7,6,0,6,0,1,,,,,,,,,,,,,,,,,,,,,,,,,,,,,,,,,,,,,,,
,,,,,,,,2023-08-16_08h52.59.962,HF_wild_card,2022.2.4,Win32,59.89817311,5713cc324cfd6f0009aa7329,64d2fd46c836a06233681665,64dc7ee3219a5a5f237f3755,,,,,,,ctch,resources/DY.BMP,resources/DG.BMP,Door3,0.32222225,-0.041666667,1,0,0,1.3493,optionRight,70,14910,7,7,0,7,0,1,,,,,,,,,,,,,,,,,,,,,,,,,,,,,,,,,,,,,,,
,,,,,,,,2023-08-16_08h52.59.962,HF_wild_card,2022.2.4,Win32,59.89817311,5713cc324cfd6f0009aa7329,64d2fd46c836a06233681665,64dc7ee3219a5a5f237f3755,,,,,,,ctch,resources/DY.BMP,resources/DG.BMP,Door3,0.290740755,-0.060185185,1,0,0,0.9814,optionRight,70,14980,7,8,0,8,0,1,,,,,,,,,,,,,,,,,,,,,,,,,,,,,,,,,,,,,,,
,,,,,,,,2023-08-16_08h52.59.962,HF_wild_card,2022.2.4,Win32,59.89817311,5713cc324cfd6f0009aa7329,64d2fd46c836a06233681665,64dc7ee3219a5a5f237f3755,,,,,,,decisionTrl,resources/DG.BMP,resources/DB.BMP,Door3,-0.322222215,-0.021296289,1,0,0,1.4137,optionLeft,70,15050,7,9,0,9,0,1,,,,,,,,,,,,,,,,,,,,,,,,,,,,,,,,,,,,,,,
,,,,,,,,2023-08-16_08h52.59.962,HF_wild_card,2022.2.4,Win32,59.89817311,5713cc324cfd6f0009aa7329,64d2fd46c836a06233681665,64dc7ee3219a5a5f237f3755,,,,,,,decisionTrl,resources/DBN.BMP,resources/DY.BMP,Door1,-0.336111104,-0.080555563,1,0,0,1.6465,optionLeft,30,15080,7,10,0,10,0,1,,,,,,,,,,,,,,,,,,,,,,,,,,,,,,,,,,,,,,,
,,,,,,,,2023-08-16_08h52.59.962,HF_wild_card,2022.2.4,Win32,59.89817311,5713cc324cfd6f0009aa7329,64d2fd46c836a06233681665,64dc7ee3219a5a5f237f3755,,,,,,,decisionTrl,resources/DY.BMP,resources/DBN.BMP,Door1,0.37962963,-0.01666666,1,0,0,1.2984,optionRight,30,15110,7,11,0,11,0,1,,,,,,,,,,,,,,,,,,,,,,,,,,,,,,,,,,,,,,,
,,,,,,,,2023-08-16_08h52.59.962,HF_wild_card,2022.2.4,Win32,59.89817311,5713cc324cfd6f0009aa7329,64d2fd46c836a06233681665,64dc7ee3219a5a5f237f3755,,,,,,,ctch,resources/DBN.BMP,resources/DB.BMP,Door4,0.318518603,-0.022222236,1,0,0,1.2658,optionRight,60,15170,7,12,0,12,0,1,,,,,,,,,,,,,,,,,,,,,,,,,,,,,,,,,,,,,,,
,,,,,,,,2023-08-16_08h52.59.962,HF_wild_card,2022.2.4,Win32,59.89817311,5713cc324cfd6f0009aa7329,64d2fd46c836a06233681665,64dc7ee3219a5a5f237f3755,,,,,,,decisionTrl,resources/DG.BMP,resources/DB.BMP,Door3,-0.331481474,-0.050925926,1,0,0,1.1996,optionLeft,70,15240,7,13,0,13,0,1,,,,,,,,,,,,,,,,,,,,,,,,,,,,,,,,,,,,,,,
,,,,,,,,2023-08-16_08h52.59.962,HF_wild_card,2022.2.4,Win32,59.89817311,5713cc324cfd6f0009aa7329,64d2fd46c836a06233681665,64dc7ee3219a5a5f237f3755,,,,,,,ctch,resources/DG.BMP,resources/DY.BMP,Door3,-0.342592593,-0.086111104,1,0,0,1.215,optionLeft,70,15310,7,14,0,14,0,1,,,,,,,,,,,,,,,,,,,,,,,,,,,,,,,,,,,,,,,
,,,,,,,,2023-08-16_08h52.59.962,HF_wild_card,2022.2.4,Win32,59.89817311,5713cc324cfd6f0009aa7329,64d2fd46c836a06233681665,64dc7ee3219a5a5f237f3755,,,,,,,ctch,resources/DB.BMP,resources/DBN.BMP,Door4,-0.324074074,-0.086111104,1,0,0,1.2309,optionLeft,60,15370,7,15,0,15,0,1,,,,,,,,,,,,,,,,,,,,,,,,,,,,,,,,,,,,,,,
,,,,,,,,2023-08-16_08h52.59.962,HF_wild_card,2022.2.4,Win32,59.89817311,5713cc324cfd6f0009aa7329,64d2fd46c836a06233681665,64dc7ee3219a5a5f237f3755,,,,,,,ctch,resources/DB.BMP,resources/DBN.BMP,Door4,-0.306481467,-0.150000042,1,0,0,0.8491,optionLeft,60,15430,7,16,0,16,0,1,,,,,,,,,,,,,,,,,,,,,,,,,,,,,,,,,,,,,,,
,,,,,,,,2023-08-16_08h52.59.962,HF_wild_card,2022.2.4,Win32,59.89817311,5713cc324cfd6f0009aa7329,64d2fd46c836a06233681665,64dc7ee3219a5a5f237f3755,,,,,,,decisionTrl,resources/DB.BMP,resources/DG.BMP,Door3,0.380555612,-0.074074074,1,0,0,1.1161,optionRight,70,15500,7,17,0,17,0,1,,,,,,,,,,,,,,,,,,,,,,,,,,,,,,,,,,,,,,,
,,,,,,,,2023-08-16_08h52.59.962,HF_wild_card,2022.2.4,Win32,59.89817311,5713cc324cfd6f0009aa7329,64d2fd46c836a06233681665,64dc7ee3219a5a5f237f3755,,,,,,,decisionTrl,resources/DB.BMP,resources/DG.BMP,Door3,0.338888945,-0.098148134,1,0,0,1.3137,optionRight,70,15570,7,18,0,18,0,1,,,,,,,,,,,,,,,,,,,,,,,,,,,,,,,,,,,,,,,
,,,,,,,,2023-08-16_08h52.59.962,HF_wild_card,2022.2.4,Win32,59.89817311,5713cc324cfd6f0009aa7329,64d2fd46c836a06233681665,64dc7ee3219a5a5f237f3755,,,,,,,ctch,resources/DBN.BMP,resources/DB.BMP,Door4,0.299074102,-0.052777785,1,0,0,1.0982,optionRight,80,15650,7,19,0,19,0,1,,,,,,,,,,,,,,,,,,,,,,,,,,,,,,,,,,,,,,,
,,,,,,,,2023-08-16_08h52.59.962,HF_wild_card,2022.2.4,Win32,59.89817311,5713cc324cfd6f0009aa7329,64d2fd46c836a06233681665,64dc7ee3219a5a5f237f3755,,,,,,,decisionTrl,resources/DY.BMP,resources/DBN.BMP,Door1,0.323148233,0.002777771,1,0,0,1.0811,optionRight,30,15680,7,20,0,20,0,1,,,,,,,,,,,,,,,,,,,,,,,,,,,,,,,,,,,,,,,
,,,,,,,,2023-08-16_08h52.59.962,HF_wild_card,2022.2.4,Win32,59.89817311,5713cc324cfd6f0009aa7329,64d2fd46c836a06233681665,64dc7ee3219a5a5f237f3755,,,,,,,ctch,resources/DG.BMP,resources/DY.BMP,Door3,-0.256481453,-0.073148162,1,0,0,1.7157,optionLeft,70,15750,7,21,0,21,0,1,,,,,,,,,,,,,,,,,,,,,,,,,,,,,,,,,,,,,,,
,,,,,,,,2023-08-16_08h52.59.962,HF_wild_card,2022.2.4,Win32,59.89817311,5713cc324cfd6f0009aa7329,64d2fd46c836a06233681665,64dc7ee3219a5a5f237f3755,,,,,,,decisionTrl,resources/DBN.BMP,resources/DY.BMP,Door1,-0.262962977,-0.025925919,1,0,0,1.9328,optionLeft,30,15780,7,22,0,22,0,1,,,,,,,,,,,,,,,,,,,,,,,,,,,,,,,,,,,,,,,
,,,,,,,,2023-08-16_08h52.59.962,HF_wild_card,2022.2.4,Win32,59.89817311,5713cc324cfd6f0009aa7329,64d2fd46c836a06233681665,64dc7ee3219a5a5f237f3755,,,,,,,ctch,resources/DB.BMP,resources/DBN.BMP,Door4,-0.324999986,-0.017592607,1,0,0,1.1972,optionLeft,60,15840,7,23,0,23,0,1,,,,,,,,,,,,,,,,,,,,,,,,,,,,,,,,,,,,,,,
,,,,,,,,2023-08-16_08h52.59.962,HF_wild_card,2022.2.4,Win32,59.89817311,5713cc324cfd6f0009aa7329,64d2fd46c836a06233681665,64dc7ee3219a5a5f237f3755,,,,,,,decisionTrl,resources/DBN.BMP,resources/DY.BMP,Door1,-0.338888875,-0.047222243,1,0,0,1.864,optionLeft,30,15870,7,24,0,24,0,1,,,,,,,,,,,,,,,,,,,,,,,,,,,,,,,,,,,,,,,
,,,,,,,,2023-08-16_08h52.59.962,HF_wild_card,2022.2.4,Win32,59.89817311,5713cc324cfd6f0009aa7329,64d2fd46c836a06233681665,64dc7ee3219a5a5f237f3755,,,,,,,decisionTrl,resources/DG.BMP,resources/DB.BMP,Door3,-0.286111125,-0.008333347,1,0,0,1.73,optionLeft,70,15940,7,25,0,25,0,1,,,,,,,,,,,,,,,,,,,,,,,,,,,,,,,,,,,,,,,
,,,,,,,,2023-08-16_08h52.59.962,HF_wild_card,2022.2.4,Win32,59.89817311,5713cc324cfd6f0009aa7329,64d2fd46c836a06233681665,64dc7ee3219a5a5f237f3755,,,,,,,decisionTrl,resources/DB.BMP,resources/DG.BMP,Door3,0.334259316,-0.043518526,1,0,0,1.4299,optionRight,70,16010,7,26,0,26,0,1,,,,,,,,,,,,,,,,,,,,,,,,,,,,,,,,,,,,,,,
,,,,,,,,2023-08-16_08h52.59.962,HF_wild_card,2022.2.4,Win32,59.89817311,5713cc324cfd6f0009aa7329,64d2fd46c836a06233681665,64dc7ee3219a5a5f237f3755,,,,,,,decisionTrl,resources/DY.BMP,resources/DBN.BMP,Door1,0.305555556,-0.010185206,1,0,0,1.5489,optionRight,30,16040,7,27,0,27,0,1,,,,,,,,,,,,,,,,,,,,,,,,,,,,,,,,,,,,,,,
,,,,,,,,2023-08-16_08h52.59.962,HF_wild_card,2022.2.4,Win32,59.89817311,5713cc324cfd6f0009aa7329,64d2fd46c836a06233681665,64dc7ee3219a5a5f237f3755,,,,,,,decisionTrl,resources/DBN.BMP,resources/DY.BMP,Door1,-0.331481474,-0.014814836,1,0,0,1.0473,optionLeft,30,16070,7,28,0,28,0,1,,,,,,,,,,,,,,,,,,,,,,,,,,,,,,,,,,,,,,,
,,,,,,,,2023-08-16_08h52.59.962,HF_wild_card,2022.2.4,Win32,59.89817311,5713cc324cfd6f0009aa7329,64d2fd46c836a06233681665,64dc7ee3219a5a5f237f3755,,,,,,,ctch,resources/DG.BMP,resources/DY.BMP,Door3,-0.315740727,-0.008333347,1,0,0,1.2638,optionLeft,70,16140,7,29,0,29,0,1,,,,,,,,,,,,,,,,,,,,,,,,,,,,,,,,,,,,,,,
,,,,,,,,2023-08-16_08h52.59.962,HF_wild_card,2022.2.4,Win32,59.89817311,5713cc324cfd6f0009aa7329,64d2fd46c836a06233681665,64dc7ee3219a5a5f237f3755,,,,,,,decisionTrl,resources/DG.BMP,resources/DB.BMP,Door3,-0.297222208,-0.021296289,1,0,0,1.5664,optionLeft,70,16210,7,30,0,30,0,1,,,,,,,,,,,,,,,,,,,,,,,,,,,,,,,,,,,,,,,
,,,,,,,,2023-08-16_08h52.59.962,HF_wild_card,2022.2.4,Win32,59.89817311,5713cc324cfd6f0009aa7329,64d2fd46c836a06233681665,64dc7ee3219a5a5f237f3755,,,,,,,decisionTrl,resources/DB.BMP,resources/DG.BMP,Door3,0.354629658,-0.055555556,1,0,0,1.3993,optionRight,70,16280,7,31,0,31,0,1,,,,,,,,,,,,,,,,,,,,,,,,,,,,,,,,,,,,,,,
,,,,,,,,2023-08-16_08h52.59.962,HF_wild_card,2022.2.4,Win32,59.89817311,5713cc324cfd6f0009aa7329,64d2fd46c836a06233681665,64dc7ee3219a5a5f237f3755,,,,,,,decisionTrl,resources/DB.BMP,resources/DG.BMP,Door3,0.313888974,-0.055555556,1,0,0,1.0979,optionRight,70,16350,7,32,0,32,0,1,,,,,,,,,,,,,,,,,,,,,,,,,,,,,,,,,,,,,,,
,,,,,,,,2023-08-16_08h52.59.962,HF_wild_card,2022.2.4,Win32,59.89817311,5713cc324cfd6f0009aa7329,64d2fd46c836a06233681665,64dc7ee3219a5a5f237f3755,,,,,,,ctch,resources/DBN.BMP,resources/DB.BMP,Door4,0.282407407,-0.043518526,1,0,0,1.0157,optionRight,60,16410,7,33,0,33,0,1,,,,,,,,,,,,,,,,,,,,,,,,,,,,,,,,,,,,,,,
,,,,,,,,2023-08-16_08h52.59.962,HF_wild_card,2022.2.4,Win32,59.89817311,5713cc324cfd6f0009aa7329,64d2fd46c836a06233681665,64dc7ee3219a5a5f237f3755,,,,,,,decisionTrl,resources/DG.BMP,resources/DB.BMP,Door3,-0.331481474,-0.063888903,1,0,0,1.0654,optionLeft,70,16480,7,34,0,34,0,1,,,,,,,,,,,,,,,,,,,,,,,,,,,,,,,,,,,,,,,
,,,,,,,,2023-08-16_08h52.59.962,HF_wild_card,2022.2.4,Win32,59.89817311,5713cc324cfd6f0009aa7329,64d2fd46c836a06233681665,64dc7ee3219a5a5f237f3755,,,,,,,decisionTrl,resources/DBN.BMP,resources/DY.BMP,Door1,-0.299074067,-0.056481503,1,0,0,3.6822,optionLeft,30,16510,7,35,0,35,0,1,,,,,,,,,,,,,,,,,,,,,,,,,,,,,,,,,,,,,,,
,,,,,,,,2023-08-16_08h52.59.962,HF_wild_card,2022.2.4,Win32,59.89817311,5713cc324cfd6f0009aa7329,64d2fd46c836a06233681665,64dc7ee3219a5a5f237f3755,,,,,,,,,,,,,,,,,,,,,,,,,,6,0,6,0,1,,,,,,,,,,,,,,,,,,,,,,,,,,,,,,,,,,
,,,,,,,,2023-08-16_08h52.59.962,HF_wild_card,2022.2.4,Win32,59.89817311,5713cc324cfd6f0009aa7329,64d2fd46c836a06233681665,64dc7ee3219a5a5f237f3755,,,,,,,,,,,,,,,,,,,,,,,,,,,,,,,4,,,,,,,,,,,,,,,,,,,,,,,,,,,,,,,,,
,,,,,,,,2023-08-16_08h52.59.962,HF_wild_card,2022.2.4,Win32,59.89817311,5713cc324cfd6f0009aa7329,64d2fd46c836a06233681665,64dc7ee3219a5a5f237f3755,,,,,,,,,,,,,,,,,,,,,,,,,,,,,,,,,,,,,,,,,,,,,,,,,,,,,,,,,,,,,,,,
,,,,,,,,2023-08-16_08h52.59.962,HF_wild_card,2022.2.4,Win32,59.89817311,5713cc324cfd6f0009aa7329,64d2fd46c836a06233681665,64dc7ee3219a5a5f237f3755,,,,,,,,,,,,,,,,,,,,,,,,,,,,,,,,70,Door3,resources/DG.BMP,0,0,0,0,1,,,,,,,,,,,,,,,,,,,,,,,,,
,,,,,,,,2023-08-16_08h52.59.962,HF_wild_card,2022.2.4,Win32,59.89817311,5713cc324cfd6f0009aa7329,64d2fd46c836a06233681665,64dc7ee3219a5a5f237f3755,,,,,,,,,,,,,,,,,,,,,,,,,,,,,,,,20,Door2,resources/DY.BMP,1,0,1,0,1,,,,,,,,,,,,,,,,,,,,,,,,,
,,,,,,,,2023-08-16_08h52.59.962,HF_wild_card,2022.2.4,Win32,59.89817311,5713cc324cfd6f0009aa7329,64d2fd46c836a06233681665,64dc7ee3219a5a5f237f3755,,,,,,,,,,,,,,,,,,,,,,,,,,,,,,,,30,WC_extreme,resources/DR.BMP,2,0,2,0,1,,,,,,,,,,,,,,,,,,,,,,,,,
,,,,,,,,2023-08-16_08h52.59.962,HF_wild_card,2022.2.4,Win32,59.89817311,5713cc324cfd6f0009aa7329,64d2fd46c836a06233681665,64dc7ee3219a5a5f237f3755,,,,,,,,,,,,,,,,,,,,,,,,,,,,,,,,55,WC_nonExtreme,resources/DP.BMP,3,0,3,0,1,,,,,,,,,,,,,,,,,,,,,,,,,
,,,,,,,,2023-08-16_08h52.59.962,HF_wild_card,2022.2.4,Win32,59.89817311,5713cc324cfd6f0009aa7329,64d2fd46c836a06233681665,64dc7ee3219a5a5f237f3755,,,,,,,,,,,,,,,,,,,,,,,,,,,,,,,,60,Door4,resources/DB.BMP,4,0,4,0,1,,,,,,,,,,,,,,,,,,,,,,,,,
,,,,,,,,2023-08-16_08h52.59.962,HF_wild_card,2022.2.4,Win32,59.89817311,5713cc324cfd6f0009aa7329,64d2fd46c836a06233681665,64dc7ee3219a5a5f237f3755,,,,,,,,,,,,,,,,,,,,,,,,,,,,,,,,30,Door1,resources/DBN.BMP,5,0,5,0,1,,,,,,,,,,,,,,,,,,,,,,,,,
,,,,,,,,2023-08-16_08h52.59.962,HF_wild_card,2022.2.4,Win32,59.89817311,5713cc324cfd6f0009aa7329,64d2fd46c836a06233681665,64dc7ee3219a5a5f237f3755,,,,,,,,,,,,,,,,,,,,,,,,,,,,,,,,,,,,,,,,,,,,,,,,,,,,,,,,,,,,,,,,
