Condition,Low fixed image (Door1),Low risky image (Door2),High fixed image (Door3),High risky image (Door4),NonExtreme Wild Card 1,NonExtreme Wild Card 2,,date,expName,psychopyVersion,OS,frameRate,PROLIFIC_PID,STUDY_ID,SESSION_ID,mouse_2.x,mouse_2.y,mouse_2.leftButton,mouse_2.midButton,mouse_2.rightButton,mouse_2.clicked_name,Trial Type,Left Option Image,Right Option Image,Chosen Door,mouse.x,mouse.y,mouse.leftButton,mouse.midButton,mouse.rightButton,mouse.time,mouse.clicked_name,Feedback,Cumulative Reward,Block,trial.thisRepN,trial.thisTrialN,trial.thisN,trial.thisIndex,trial.ran,blocks.thisRepN,blocks.thisTrialN,blocks.thisN,blocks.thisIndex,blocks.ran,Money conversion,First Outcome Reported,Shown Door (First Outcome),Displayed Image (First Outcome),outcomes.thisRepN,outcomes.thisTrialN,outcomes.thisN,outcomes.thisIndex,outcomes.ran,judgments.thisRepN,judgments.thisTrialN,judgments.thisN,judgments.thisIndex,judgments.ran,freqMouse.x,freqMouse.y,freqMouse.leftButton,freqMouse.midButton,freqMouse.rightButton,freqMouse.clicked_name,FQJ for first outcome,FQJ for second outcome,Shown Door,Displayed Image,trials.thisRepN,trials.thisTrialN,trials.thisN,trials.thisIndex,trials.ran,judgBlock.thisRepN,judgBlock.thisTrialN,judgBlock.thisN,judgBlock.thisIndex,judgBlock.ran
2,resources/DB.BMP,resources/DP.BMP,resources/DG.BMP,resources/DBN.BMP,resources/DR.BMP,resources/DY.BMP,,2023-08-06_08h24.55.851,HF_wild_card,2022.2.4,Win32,60.02040694,614a102028af248a4b2d041f,64ce5acb97489d65b14ecc7a,64cf4a3747447ed36c81d9ec,,,,,,,,,,,,,,,,,,,,,,,,,,,,,,,,,,,,,,,,,,,,,,,,,,,,,,,,,,,,,,,,
,,,,,,,,2023-08-06_08h24.55.851,HF_wild_card,2022.2.4,Win32,60.02040694,614a102028af248a4b2d041f,64ce5acb97489d65b14ecc7a,64cf4a3747447ed36c81d9ec,0.004363692,-0.409209382,1,0,0,agree,,,,,,,,,,,,,,,,,,,,,,,,,,,,,,,,,,,,,,,,,,,,,,,,,,,,,,,,,,
,,,,,,,,2023-08-06_08h24.55.851,HF_wild_card,2022.2.4,Win32,60.02040694,614a102028af248a4b2d041f,64ce5acb97489d65b14ecc7a,64cf4a3747447ed36c81d9ec,,,,,,,,,,,,,,,,,,,,,,,,,,,,,,,,,,,,,,,,,,,,,,,,,,,,,,,,,,,,,,,,
,,,,,,,,2023-08-06_08h24.55.851,HF_wild_card,2022.2.4,Win32,60.02040694,614a102028af248a4b2d041f,64ce5acb97489d65b14ecc7a,64cf4a3747447ed36c81d9ec,,,,,,,decisionTrl,resources/DY.BMP,resources/DP.BMP,WildCard_NonEx,-0.369480254,-0.130454668,1,0,0,3.8987,optionLeft,55,55,1,0,0,0,0,1,,,,,,,,,,,,,,,,,,,,,,,,,,,,,,,,,,,,,,,
,,,,,,,,2023-08-06_08h24.55.851,HF_wild_card,2022.2.4,Win32,60.02040694,614a102028af248a4b2d041f,64ce5acb97489d65b14ecc7a,64cf4a3747447ed36c81d9ec,,,,,,,ctch,resources/DG.BMP,resources/DP.BMP,Door2,0.227107094,-0.099192468,1,0,0,2.9064,optionRight,40,95,1,1,0,1,0,1,,,,,,,,,,,,,,,,,,,,,,,,,,,,,,,,,,,,,,,
,,,,,,,,2023-08-06_08h24.55.851,HF_wild_card,2022.2.4,Win32,60.02040694,614a102028af248a4b2d041f,64ce5acb97489d65b14ecc7a,64cf4a3747447ed36c81d9ec,,,,,,,decisionTrl,resources/DP.BMP,resources/DY.BMP,WildCard_NonEx,0.376905041,-0.103100185,1,0,0,1.4959,optionRight,55,150,1,2,0,2,0,1,,,,,,,,,,,,,,,,,,,,,,,,,,,,,,,,,,,,,,,
,,,,,,,,2023-08-06_08h24.55.851,HF_wild_card,2022.2.4,Win32,60.02040694,614a102028af248a4b2d041f,64ce5acb97489d65b14ecc7a,64cf4a3747447ed36c81d9ec,,,,,,,decisionTrl,resources/DB.BMP,resources/DP.BMP,Door1,-0.282206528,-0.013221338,1,0,0,1.7182,optionLeft,30,180,1,3,0,3,0,1,,,,,,,,,,,,,,,,,,,,,,,,,,,,,,,,,,,,,,,
,,,,,,,,2023-08-06_08h24.55.851,HF_wild_card,2022.2.4,Win32,60.02040694,614a102028af248a4b2d041f,64ce5acb97489d65b14ecc7a,64cf4a3747447ed36c81d9ec,,,,,,,decisionTrl,resources/DB.BMP,resources/DP.BMP,Door1,-0.275693583,-0.09658724,1,0,0,1.7914,optionLeft,30,210,1,4,0,4,0,1,,,,,,,,,,,,,,,,,,,,,,,,,,,,,,,,,,,,,,,
,,,,,,,,2023-08-06_08h24.55.851,HF_wild_card,2022.2.4,Win32,60.02040694,614a102028af248a4b2d041f,64ce5acb97489d65b14ecc7a,64cf4a3747447ed36c81d9ec,,,,,,,sngl,resources/Empty.png,resources/DP.BMP,Door2,0.288328933,-0.140875366,1,0,0,2.5549,optionRight,20,230,1,5,0,5,0,1,,,,,,,,,,,,,,,,,,,,,,,,,,,,,,,,,,,,,,,
,,,,,,,,2023-08-06_08h24.55.851,HF_wild_card,2022.2.4,Win32,60.02040694,614a102028af248a4b2d041f,64ce5acb97489d65b14ecc7a,64cf4a3747447ed36c81d9ec,,,,,,,sngl,resources/Empty.png,resources/DB.BMP,Door1,-0.314771324,-0.095284644,1,0,0,2.11,optionRight,30,260,1,6,0,6,0,1,,,,,,,,,,,,,,,,,,,,,,,,,,,,,,,,,,,,,,,
,,,,,,,,2023-08-06_08h24.55.851,HF_wild_card,2022.2.4,Win32,60.02040694,614a102028af248a4b2d041f,64ce5acb97489d65b14ecc7a,64cf4a3747447ed36c81d9ec,,,,,,,decisionTrl,resources/DP.BMP,resources/DB.BMP,Door2,-0.314771324,-0.092679452,1,0,0,2.3958,optionLeft,40,300,1,7,0,7,0,1,,,,,,,,,,,,,,,,,,,,,,,,,,,,,,,,,,,,,,,
,,,,,,,,2023-08-06_08h24.55.851,HF_wild_card,2022.2.4,Win32,60.02040694,614a102028af248a4b2d041f,64ce5acb97489d65b14ecc7a,64cf4a3747447ed36c81d9ec,,,,,,,ctch,resources/DG.BMP,resources/DP.BMP,Door3,-0.326494653,-0.065325076,1,0,0,1.6856,optionLeft,70,370,1,8,0,8,0,1,,,,,,,,,,,,,,,,,,,,,,,,,,,,,,,,,,,,,,,
,,,,,,,,2023-08-06_08h24.55.851,HF_wild_card,2022.2.4,Win32,60.02040694,614a102028af248a4b2d041f,64ce5acb97489d65b14ecc7a,64cf4a3747447ed36c81d9ec,,,,,,,ctch,resources/DBN.BMP,resources/DB.BMP,Door4,-0.362967273,-0.134362421,1,0,0,1.348,optionLeft,80,450,1,9,0,9,0,1,,,,,,,,,,,,,,,,,,,,,,,,,,,,,,,,,,,,,,,
,,,,,,,,2023-08-06_08h24.55.851,HF_wild_card,2022.2.4,Win32,60.02040694,614a102028af248a4b2d041f,64ce5acb97489d65b14ecc7a,64cf4a3747447ed36c81d9ec,,,,,,,decisionTrl,resources/DG.BMP,resources/DBN.BMP,Door4,0.429008743,-0.087469139,1,0,0,1.421,optionRight,80,530,1,10,0,10,0,1,,,,,,,,,,,,,,,,,,,,,,,,,,,,,,,,,,,,,,,
,,,,,,,,2023-08-06_08h24.55.851,HF_wild_card,2022.2.4,Win32,60.02040694,614a102028af248a4b2d041f,64ce5acb97489d65b14ecc7a,64cf4a3747447ed36c81d9ec,,,,,,,decisionTrl,resources/DB.BMP,resources/DP.BMP,Door2,0.451152842,-0.09007426,1,0,0,2.3483,optionRight,40,570,1,11,0,11,0,1,,,,,,,,,,,,,,,,,,,,,,,,,,,,,,,,,,,,,,,
,,,,,,,,2023-08-06_08h24.55.851,HF_wild_card,2022.2.4,Win32,60.02040694,614a102028af248a4b2d041f,64ce5acb97489d65b14ecc7a,64cf4a3747447ed36c81d9ec,,,,,,,decisionTrl,resources/DBN.BMP,resources/DY.BMP,Door4,-0.39683463,-0.052299151,1,0,0,1.1721,optionLeft,60,630,1,12,0,12,0,1,,,,,,,,,,,,,,,,,,,,,,,,,,,,,,,,,,,,,,,
,,,,,,,,2023-08-06_08h24.55.851,HF_wild_card,2022.2.4,Win32,60.02040694,614a102028af248a4b2d041f,64ce5acb97489d65b14ecc7a,64cf4a3747447ed36c81d9ec,,,,,,,decisionTrl,resources/DG.BMP,resources/DBN.BMP,Door3,-0.196235469,-0.031457613,1,0,0,2.1021,optionLeft,70,700,1,13,0,13,0,1,,,,,,,,,,,,,,,,,,,,,,,,,,,,,,,,,,,,,,,
,,,,,,,,2023-08-06_08h24.55.851,HF_wild_card,2022.2.4,Win32,60.02040694,614a102028af248a4b2d041f,64ce5acb97489d65b14ecc7a,64cf4a3747447ed36c81d9ec,,,,,,,decisionTrl,resources/DBN.BMP,resources/DG.BMP,Door4,-0.355151732,-0.12133646,1,0,0,1.3672,optionLeft,80,780,1,14,0,14,0,1,,,,,,,,,,,,,,,,,,,,,,,,,,,,,,,,,,,,,,,
,,,,,,,,2023-08-06_08h24.55.851,HF_wild_card,2022.2.4,Win32,60.02040694,614a102028af248a4b2d041f,64ce5acb97489d65b14ecc7a,64cf4a3747447ed36c81d9ec,,,,,,,sngl,resources/DB.BMP,resources/Empty.png,Door1,-0.303047994,-0.077048406,1,0,0,1.3067,optionLeft,30,810,1,15,0,15,0,1,,,,,,,,,,,,,,,,,,,,,,,,,,,,,,,,,,,,,,,
,,,,,,,,2023-08-06_08h24.55.851,HF_wild_card,2022.2.4,Win32,60.02040694,614a102028af248a4b2d041f,64ce5acb97489d65b14ecc7a,64cf4a3747447ed36c81d9ec,,,,,,,sngl,resources/DY.BMP,resources/Empty.png,WildCard_NonEx,-0.316073955,-0.080956123,1,0,0,1.0156,optionLeft,55,865,1,16,0,16,0,1,,,,,,,,,,,,,,,,,,,,,,,,,,,,,,,,,,,,,,,
,,,,,,,,2023-08-06_08h24.55.851,HF_wild_card,2022.2.4,Win32,60.02040694,614a102028af248a4b2d041f,64ce5acb97489d65b14ecc7a,64cf4a3747447ed36c81d9ec,,,,,,,decisionTrl,resources/DY.BMP,resources/DB.BMP,Door1,0.3716948,-0.080956123,1,0,0,1.7622,optionRight,30,895,1,17,0,17,0,1,,,,,,,,,,,,,,,,,,,,,,,,,,,,,,,,,,,,,,,
,,,,,,,,2023-08-06_08h24.55.851,HF_wild_card,2022.2.4,Win32,60.02040694,614a102028af248a4b2d041f,64ce5acb97489d65b14ecc7a,64cf4a3747447ed36c81d9ec,,,,,,,sngl,resources/Empty.png,resources/DBN.BMP,Door4,0.427706183,-0.041878346,1,0,0,1.1161,optionRight,60,955,1,18,0,18,0,1,,,,,,,,,,,,,,,,,,,,,,,,,,,,,,,,,,,,,,,
,,,,,,,,2023-08-06_08h24.55.851,HF_wild_card,2022.2.4,Win32,60.02040694,614a102028af248a4b2d041f,64ce5acb97489d65b14ecc7a,64cf4a3747447ed36c81d9ec,,,,,,,sngl,resources/Empty.png,resources/DY.BMP,WildCard_NonEx,0.405562084,-0.057509464,1,0,0,1.0116,optionRight,55,1010,1,19,0,19,0,1,,,,,,,,,,,,,,,,,,,,,,,,,,,,,,,,,,,,,,,
,,,,,,,,2023-08-06_08h24.55.851,HF_wild_card,2022.2.4,Win32,60.02040694,614a102028af248a4b2d041f,64ce5acb97489d65b14ecc7a,64cf4a3747447ed36c81d9ec,,,,,,,decisionTrl,resources/DB.BMP,resources/DP.BMP,Door2,0.290933982,-0.004103237,1,0,0,1.2668,optionRight,20,1030,1,20,0,20,0,1,,,,,,,,,,,,,,,,,,,,,,,,,,,,,,,,,,,,,,,
,,,,,,,,2023-08-06_08h24.55.851,HF_wild_card,2022.2.4,Win32,60.02040694,614a102028af248a4b2d041f,64ce5acb97489d65b14ecc7a,64cf4a3747447ed36c81d9ec,,,,,,,ctch,resources/DB.BMP,resources/DBN.BMP,Door4,0.414680293,0.028461631,1,0,0,1.1102,optionRight,80,1110,1,21,0,21,0,1,,,,,,,,,,,,,,,,,,,,,,,,,,,,,,,,,,,,,,,
,,,,,,,,2023-08-06_08h24.55.851,HF_wild_card,2022.2.4,Win32,60.02040694,614a102028af248a4b2d041f,64ce5acb97489d65b14ecc7a,64cf4a3747447ed36c81d9ec,,,,,,,decisionTrl,resources/DBN.BMP,resources/DG.BMP,Door4,-0.347336191,-0.037970593,1,0,0,1.2393,optionLeft,60,1170,1,22,0,22,0,1,,,,,,,,,,,,,,,,,,,,,,,,,,,,,,,,,,,,,,,
,,,,,,,,2023-08-06_08h24.55.851,HF_wild_card,2022.2.4,Win32,60.02040694,614a102028af248a4b2d041f,64ce5acb97489d65b14ecc7a,64cf4a3747447ed36c81d9ec,,,,,,,sngl,resources/Empty.png,resources/DG.BMP,Door3,0.492835775,0.00240978,1,0,0,0.9629,optionRight,70,1240,1,23,0,23,0,1,,,,,,,,,,,,,,,,,,,,,,,,,,,,,,,,,,,,,,,
,,,,,,,,2023-08-06_08h24.55.851,HF_wild_card,2022.2.4,Win32,60.02040694,614a102028af248a4b2d041f,64ce5acb97489d65b14ecc7a,64cf4a3747447ed36c81d9ec,,,,,,,decisionTrl,resources/DP.BMP,resources/DB.BMP,Door2,-0.375993199,-0.099192468,1,0,0,2.2187,optionLeft,40,1280,1,24,0,24,0,1,,,,,,,,,,,,,,,,,,,,,,,,,,,,,,,,,,,,,,,
,,,,,,,,2023-08-06_08h24.55.851,HF_wild_card,2022.2.4,Win32,60.02040694,614a102028af248a4b2d041f,64ce5acb97489d65b14ecc7a,64cf4a3747447ed36c81d9ec,,,,,,,sngl,resources/DY.BMP,resources/Empty.png,WildCard_NonEx,-0.248339171,-0.032760209,1,0,0,0.9897,optionLeft,45,1325,1,25,0,25,0,1,,,,,,,,,,,,,,,,,,,,,,,,,,,,,,,,,,,,,,,
,,,,,,,,2023-08-06_08h24.55.851,HF_wild_card,2022.2.4,Win32,60.02040694,614a102028af248a4b2d041f,64ce5acb97489d65b14ecc7a,64cf4a3747447ed36c81d9ec,,,,,,,decisionTrl,resources/DBN.BMP,resources/DG.BMP,Door4,-0.356454328,-0.054904271,1,0,0,1.6548,optionLeft,80,1405,1,26,0,26,0,1,,,,,,,,,,,,,,,,,,,,,,,,,,,,,,,,,,,,,,,
,,,,,,,,2023-08-06_08h24.55.851,HF_wild_card,2022.2.4,Win32,60.02040694,614a102028af248a4b2d041f,64ce5acb97489d65b14ecc7a,64cf4a3747447ed36c81d9ec,,,,,,,decisionTrl,resources/DBN.BMP,resources/DG.BMP,Door4,-0.280903967,0.036277172,1,0,0,1.1914,optionLeft,80,1485,1,27,0,27,0,1,,,,,,,,,,,,,,,,,,,,,,,,,,,,,,,,,,,,,,,
,,,,,,,,2023-08-06_08h24.55.851,HF_wild_card,2022.2.4,Win32,60.02040694,614a102028af248a4b2d041f,64ce5acb97489d65b14ecc7a,64cf4a3747447ed36c81d9ec,,,,,,,decisionTrl,resources/DG.BMP,resources/DBN.BMP,Door4,0.447245018,-0.035365401,1,0,0,1.5711,optionRight,60,1545,1,28,0,28,0,1,,,,,,,,,,,,,,,,,,,,,,,,,,,,,,,,,,,,,,,
,,,,,,,,2023-08-06_08h24.55.851,HF_wild_card,2022.2.4,Win32,60.02040694,614a102028af248a4b2d041f,64ce5acb97489d65b14ecc7a,64cf4a3747447ed36c81d9ec,,,,,,,ctch,resources/DP.BMP,resources/DG.BMP,Door3,0.310472889,0.010225321,1,0,0,1.7527,optionRight,70,1615,1,29,0,29,0,1,,,,,,,,,,,,,,,,,,,,,,,,,,,,,,,,,,,,,,,
,,,,,,,,2023-08-06_08h24.55.851,HF_wild_card,2022.2.4,Win32,60.02040694,614a102028af248a4b2d041f,64ce5acb97489d65b14ecc7a,64cf4a3747447ed36c81d9ec,,,,,,,decisionTrl,resources/DP.BMP,resources/DB.BMP,Door2,-0.32128434,-0.056206868,1,0,0,1.9463,optionLeft,20,1635,1,30,0,30,0,1,,,,,,,,,,,,,,,,,,,,,,,,,,,,,,,,,,,,,,,
,,,,,,,,2023-08-06_08h24.55.851,HF_wild_card,2022.2.4,Win32,60.02040694,614a102028af248a4b2d041f,64ce5acb97489d65b14ecc7a,64cf4a3747447ed36c81d9ec,,,,,,,sngl,resources/Empty.png,resources/DY.BMP,WildCard_NonEx,0.3716948,0.011527917,1,0,0,1.1708,optionRight,45,1680,1,31,0,31,0,1,,,,,,,,,,,,,,,,,,,,,,,,,,,,,,,,,,,,,,,
,,,,,,,,2023-08-06_08h24.55.851,HF_wild_card,2022.2.4,Win32,60.02040694,614a102028af248a4b2d041f,64ce5acb97489d65b14ecc7a,64cf4a3747447ed36c81d9ec,,,,,,,decisionTrl,resources/DY.BMP,resources/DBN.BMP,Door4,0.431614007,0.019343422,1,0,0,1.2338,optionRight,60,1740,1,32,0,32,0,1,,,,,,,,,,,,,,,,,,,,,,,,,,,,,,,,,,,,,,,
,,,,,,,,2023-08-06_08h24.55.851,HF_wild_card,2022.2.4,Win32,60.02040694,614a102028af248a4b2d041f,64ce5acb97489d65b14ecc7a,64cf4a3747447ed36c81d9ec,,,,,,,decisionTrl,resources/DB.BMP,resources/DY.BMP,WildCard_NonEx,0.35997147,-0.084863911,1,0,0,2.8471,optionRight,45,1785,1,33,0,33,0,1,,,,,,,,,,,,,,,,,,,,,,,,,,,,,,,,,,,,,,,
,,,,,,,,2023-08-06_08h24.55.851,HF_wild_card,2022.2.4,Win32,60.02040694,614a102028af248a4b2d041f,64ce5acb97489d65b14ecc7a,64cf4a3747447ed36c81d9ec,,,,,,,decisionTrl,resources/DG.BMP,resources/DBN.BMP,Door4,0.348248141,-0.006708358,1,0,0,1.2297,optionRight,80,1865,1,34,0,34,0,1,,,,,,,,,,,,,,,,,,,,,,,,,,,,,,,,,,,,,,,
,,,,,,,,2023-08-06_08h24.55.851,HF_wild_card,2022.2.4,Win32,60.02040694,614a102028af248a4b2d041f,64ce5acb97489d65b14ecc7a,64cf4a3747447ed36c81d9ec,,,,,,,decisionTrl,resources/DP.BMP,resources/DB.BMP,Door2,-0.330402477,-0.044483538,1,0,0,3.2548,optionLeft,20,1885,1,35,0,35,0,1,,,,,,,,,,,,,,,,,,,,,,,,,,,,,,,,,,,,,,,
,,,,,,,,2023-08-06_08h24.55.851,HF_wild_card,2022.2.4,Win32,60.02040694,614a102028af248a4b2d041f,64ce5acb97489d65b14ecc7a,64cf4a3747447ed36c81d9ec,,,,,,,ctch,resources/DB.BMP,resources/DBN.BMP,Door4,0.367786975,-0.021036879,1,0,0,1.1688,optionRight,60,1945,1,36,0,36,0,1,,,,,,,,,,,,,,,,,,,,,,,,,,,,,,,,,,,,,,,
,,,,,,,,2023-08-06_08h24.55.851,HF_wild_card,2022.2.4,Win32,60.02040694,614a102028af248a4b2d041f,64ce5acb97489d65b14ecc7a,64cf4a3747447ed36c81d9ec,,,,,,,sngl,resources/DP.BMP,resources/Empty.png,Door2,-0.257457308,-0.041878346,1,0,0,1.2631,optionLeft,40,1985,1,37,0,37,0,1,,,,,,,,,,,,,,,,,,,,,,,,,,,,,,,,,,,,,,,
,,,,,,,,2023-08-06_08h24.55.851,HF_wild_card,2022.2.4,Win32,60.02040694,614a102028af248a4b2d041f,64ce5acb97489d65b14ecc7a,64cf4a3747447ed36c81d9ec,,,,,,,ctch,resources/DBN.BMP,resources/DB.BMP,Door4,-0.331705073,-0.010616146,1,0,0,1.3527,optionLeft,60,2045,1,38,0,38,0,1,,,,,,,,,,,,,,,,,,,,,,,,,,,,,,,,,,,,,,,
,,,,,,,,2023-08-06_08h24.55.851,HF_wild_card,2022.2.4,Win32,60.02040694,614a102028af248a4b2d041f,64ce5acb97489d65b14ecc7a,64cf4a3747447ed36c81d9ec,,,,,,,decisionTrl,resources/DY.BMP,resources/DG.BMP,Door3,0.379510305,-0.00931355,1,0,0,3.1043,optionRight,70,2115,1,39,0,39,0,1,,,,,,,,,,,,,,,,,,,,,,,,,,,,,,,,,,,,,,,
,,,,,,,,2023-08-06_08h24.55.851,HF_wild_card,2022.2.4,Win32,60.02040694,614a102028af248a4b2d041f,64ce5acb97489d65b14ecc7a,64cf4a3747447ed36c81d9ec,,,,,,,ctch,resources/DP.BMP,resources/DG.BMP,Door3,0.3091704,0.016738301,1,0,0,1.083,optionRight,70,2185,1,40,0,40,0,1,,,,,,,,,,,,,,,,,,,,,,,,,,,,,,,,,,,,,,,
,,,,,,,,2023-08-06_08h24.55.851,HF_wild_card,2022.2.4,Win32,60.02040694,614a102028af248a4b2d041f,64ce5acb97489d65b14ecc7a,64cf4a3747447ed36c81d9ec,,,,,,,decisionTrl,resources/DG.BMP,resources/DY.BMP,Door3,-0.331705073,-0.002800605,1,0,0,4.1818,optionLeft,70,2255,1,41,0,41,0,1,,,,,,,,,,,,,,,,,,,,,,,,,,,,,,,,,,,,,,,
,,,,,,,,2023-08-06_08h24.55.851,HF_wild_card,2022.2.4,Win32,60.02040694,614a102028af248a4b2d041f,64ce5acb97489d65b14ecc7a,64cf4a3747447ed36c81d9ec,,,,,,,sngl,resources/DG.BMP,resources/Empty.png,Door3,-0.288719544,-0.001498009,1,0,0,1.1095,optionLeft,70,2325,1,42,0,42,0,1,,,,,,,,,,,,,,,,,,,,,,,,,,,,,,,,,,,,,,,
,,,,,,,,2023-08-06_08h24.55.851,HF_wild_card,2022.2.4,Win32,60.02040694,614a102028af248a4b2d041f,64ce5acb97489d65b14ecc7a,64cf4a3747447ed36c81d9ec,,,,,,,sngl,resources/DBN.BMP,resources/Empty.png,Door4,-0.387716528,0.016738301,1,0,0,2.0563,optionLeft,80,2405,1,43,0,43,0,1,,,,,,,,,,,,,,,,,,,,,,,,,,,,,,,,,,,,,,,
,,,,,,,,2023-08-06_08h24.55.851,HF_wild_card,2022.2.4,Win32,60.02040694,614a102028af248a4b2d041f,64ce5acb97489d65b14ecc7a,64cf4a3747447ed36c81d9ec,,,,,,,,,,,,,,,,,,,,,,,,,,0,0,0,0,1,,,,,,,,,,,,,,,,,,,,,,,,,,,,,,,,,,
,,,,,,,,2023-08-06_08h24.55.851,HF_wild_card,2022.2.4,Win32,60.02040694,614a102028af248a4b2d041f,64ce5acb97489d65b14ecc7a,64cf4a3747447ed36c81d9ec,,,,,,,sngl,resources/DY.BMP,resources/Empty.png,WildCard_NonEx,-0.478897935,0.093591223,1,0,0,1.8018,optionLeft,55,2460,2,0,0,0,0,1,,,,,,,,,,,,,,,,,,,,,,,,,,,,,,,,,,,,,,,
,,,,,,,,2023-08-06_08h24.55.851,HF_wild_card,2022.2.4,Win32,60.02040694,614a102028af248a4b2d041f,64ce5acb97489d65b14ecc7a,64cf4a3747447ed36c81d9ec,,,,,,,decisionTrl,resources/DG.BMP,resources/DBN.BMP,Door4,0.421193238,-0.043180942,1,0,0,1.4406,optionRight,80,2540,2,1,0,1,0,1,,,,,,,,,,,,,,,,,,,,,,,,,,,,,,,,,,,,,,,
,,,,,,,,2023-08-06_08h24.55.851,HF_wild_card,2022.2.4,Win32,60.02040694,614a102028af248a4b2d041f,64ce5acb97489d65b14ecc7a,64cf4a3747447ed36c81d9ec,,,,,,,sngl,resources/Empty.png,resources/DB.BMP,Door1,0.293539175,-0.000195413,1,0,0,1.2248,optionRight,30,2570,2,2,0,2,0,1,,,,,,,,,,,,,,,,,,,,,,,,,,,,,,,,,,,,,,,
,,,,,,,,2023-08-06_08h24.55.851,HF_wild_card,2022.2.4,Win32,60.02040694,614a102028af248a4b2d041f,64ce5acb97489d65b14ecc7a,64cf4a3747447ed36c81d9ec,,,,,,,ctch,resources/DP.BMP,resources/DG.BMP,Door3,0.233619967,-0.037970593,1,0,0,2.579,optionRight,70,2640,2,3,0,3,0,1,,,,,,,,,,,,,,,,,,,,,,,,,,,,,,,,,,,,,,,
,,,,,,,,2023-08-06_08h24.55.851,HF_wild_card,2022.2.4,Win32,60.02040694,614a102028af248a4b2d041f,64ce5acb97489d65b14ecc7a,64cf4a3747447ed36c81d9ec,,,,,,,decisionTrl,resources/DB.BMP,resources/DP.BMP,Door2,0.412075029,-0.065325076,1,0,0,3.3622,optionRight,40,2680,2,4,0,4,0,1,,,,,,,,,,,,,,,,,,,,,,,,,,,,,,,,,,,,,,,
,,,,,,,,2023-08-06_08h24.55.851,HF_wild_card,2022.2.4,Win32,60.02040694,614a102028af248a4b2d041f,64ce5acb97489d65b14ecc7a,64cf4a3747447ed36c81d9ec,,,,,,,ctch,resources/DB.BMP,resources/DBN.BMP,Door4,0.344340317,-0.001498009,1,0,0,1.1023,optionRight,60,2740,2,5,0,5,0,1,,,,,,,,,,,,,,,,,,,,,,,,,,,,,,,,,,,,,,,
,,,,,,,,2023-08-06_08h24.55.851,HF_wild_card,2022.2.4,Win32,60.02040694,614a102028af248a4b2d041f,64ce5acb97489d65b14ecc7a,64cf4a3747447ed36c81d9ec,,,,,,,decisionTrl,resources/DG.BMP,resources/DBN.BMP,Door4,0.438126952,-0.015826566,1,0,0,1.2844,optionRight,60,2800,2,6,0,6,0,1,,,,,,,,,,,,,,,,,,,,,,,,,,,,,,,,,,,,,,,
,,,,,,,,2023-08-06_08h24.55.851,HF_wild_card,2022.2.4,Win32,60.02040694,614a102028af248a4b2d041f,64ce5acb97489d65b14ecc7a,64cf4a3747447ed36c81d9ec,,,,,,,decisionTrl,resources/DY.BMP,resources/DBN.BMP,Door4,0.332616987,-0.024944668,1,0,0,1.1813,optionRight,60,2860,2,7,0,7,0,1,,,,,,,,,,,,,,,,,,,,,,,,,,,,,,,,,,,,,,,
,,,,,,,,2023-08-06_08h24.55.851,HF_wild_card,2022.2.4,Win32,60.02040694,614a102028af248a4b2d041f,64ce5acb97489d65b14ecc7a,64cf4a3747447ed36c81d9ec,,,,,,,sngl,resources/DY.BMP,resources/Empty.png,WildCard_NonEx,-0.331705073,-0.052299151,1,0,0,1.0507,optionLeft,45,2905,2,8,0,8,0,1,,,,,,,,,,,,,,,,,,,,,,,,,,,,,,,,,,,,,,,
,,,,,,,,2023-08-06_08h24.55.851,HF_wild_card,2022.2.4,Win32,60.02040694,614a102028af248a4b2d041f,64ce5acb97489d65b14ecc7a,64cf4a3747447ed36c81d9ec,,,,,,,decisionTrl,resources/DG.BMP,resources/DY.BMP,Door3,-0.322586936,-0.070535389,1,0,0,2.7148,optionLeft,70,2975,2,9,0,9,0,1,,,,,,,,,,,,,,,,,,,,,,,,,,,,,,,,,,,,,,,
,,,,,,,,2023-08-06_08h24.55.851,HF_wild_card,2022.2.4,Win32,60.02040694,614a102028af248a4b2d041f,64ce5acb97489d65b14ecc7a,64cf4a3747447ed36c81d9ec,,,,,,,ctch,resources/DG.BMP,resources/DP.BMP,Door3,-0.319981744,-0.043180942,1,0,0,1.2509,optionLeft,70,3045,2,10,0,10,0,1,,,,,,,,,,,,,,,,,,,,,,,,,,,,,,,,,,,,,,,
,,,,,,,,2023-08-06_08h24.55.851,HF_wild_card,2022.2.4,Win32,60.02040694,614a102028af248a4b2d041f,64ce5acb97489d65b14ecc7a,64cf4a3747447ed36c81d9ec,,,,,,,decisionTrl,resources/DBN.BMP,resources/DG.BMP,Door4,-0.348638716,0.005014972,1,0,0,1.2336,optionLeft,80,3125,2,11,0,11,0,1,,,,,,,,,,,,,,,,,,,,,,,,,,,,,,,,,,,,,,,
,,,,,,,,2023-08-06_08h24.55.851,HF_wild_card,2022.2.4,Win32,60.02040694,614a102028af248a4b2d041f,64ce5acb97489d65b14ecc7a,64cf4a3747447ed36c81d9ec,,,,,,,sngl,resources/Empty.png,resources/DG.BMP,Door3,0.339129932,-0.036667997,1,0,0,1.1233,optionRight,70,3195,2,12,0,12,0,1,,,,,,,,,,,,,,,,,,,,,,,,,,,,,,,,,,,,,,,
,,,,,,,,2023-08-06_08h24.55.851,HF_wild_card,2022.2.4,Win32,60.02040694,614a102028af248a4b2d041f,64ce5acb97489d65b14ecc7a,64cf4a3747447ed36c81d9ec,,,,,,,ctch,resources/DBN.BMP,resources/DB.BMP,Door4,-0.303047994,-0.050996555,1,0,0,1.3445,optionLeft,60,3255,2,13,0,13,0,1,,,,,,,,,,,,,,,,,,,,,,,,,,,,,,,,,,,,,,,
,,,,,,,,2023-08-06_08h24.55.851,HF_wild_card,2022.2.4,Win32,60.02040694,614a102028af248a4b2d041f,64ce5acb97489d65b14ecc7a,64cf4a3747447ed36c81d9ec,,,,,,,sngl,resources/DBN.BMP,resources/Empty.png,Door4,-0.258759869,0.003712376,1,0,0,1.0484,optionLeft,60,3315,2,14,0,14,0,1,,,,,,,,,,,,,,,,,,,,,,,,,,,,,,,,,,,,,,,
,,,,,,,,2023-08-06_08h24.55.851,HF_wild_card,2022.2.4,Win32,60.02040694,614a102028af248a4b2d041f,64ce5acb97489d65b14ecc7a,64cf4a3747447ed36c81d9ec,,,,,,,sngl,resources/DB.BMP,resources/Empty.png,Door1,-0.286114352,-0.001498009,1,0,0,1.0243,optionLeft,30,3345,2,15,0,15,0,1,,,,,,,,,,,,,,,,,,,,,,,,,,,,,,,,,,,,,,,
,,,,,,,,2023-08-06_08h24.55.851,HF_wild_card,2022.2.4,Win32,60.02040694,614a102028af248a4b2d041f,64ce5acb97489d65b14ecc7a,64cf4a3747447ed36c81d9ec,,,,,,,sngl,resources/Empty.png,resources/DY.BMP,WildCard_NonEx,0.251856242,-0.013221338,1,0,0,1.1351,optionRight,55,3400,2,16,0,16,0,1,,,,,,,,,,,,,,,,,,,,,,,,,,,,,,,,,,,,,,,
,,,,,,,,2023-08-06_08h24.55.851,HF_wild_card,2022.2.4,Win32,60.02040694,614a102028af248a4b2d041f,64ce5acb97489d65b14ecc7a,64cf4a3747447ed36c81d9ec,,,,,,,ctch,resources/DB.BMP,resources/DBN.BMP,Door4,0.251856242,0.016738301,1,0,0,1.3346,optionRight,60,3460,2,17,0,17,0,1,,,,,,,,,,,,,,,,,,,,,,,,,,,,,,,,,,,,,,,
,,,,,,,,2023-08-06_08h24.55.851,HF_wild_card,2022.2.4,Win32,60.02040694,614a102028af248a4b2d041f,64ce5acb97489d65b14ecc7a,64cf4a3747447ed36c81d9ec,,,,,,,decisionTrl,resources/DBN.BMP,resources/DG.BMP,Door4,-0.344730999,-0.065325076,1,0,0,1.286,optionLeft,80,3540,2,18,0,18,0,1,,,,,,,,,,,,,,,,,,,,,,,,,,,,,,,,,,,,,,,
,,,,,,,,2023-08-06_08h24.55.851,HF_wild_card,2022.2.4,Win32,60.02040694,614a102028af248a4b2d041f,64ce5acb97489d65b14ecc7a,64cf4a3747447ed36c81d9ec,,,,,,,decisionTrl,resources/DB.BMP,resources/DP.BMP,Door2,0.289631422,-0.05881206,1,0,0,1.8675,optionRight,20,3560,2,19,0,19,0,1,,,,,,,,,,,,,,,,,,,,,,,,,,,,,,,,,,,,,,,
,,,,,,,,2023-08-06_08h24.55.851,HF_wild_card,2022.2.4,Win32,60.02040694,614a102028af248a4b2d041f,64ce5acb97489d65b14ecc7a,64cf4a3747447ed36c81d9ec,,,,,,,decisionTrl,resources/DG.BMP,resources/DBN.BMP,Door4,0.37299736,0.020646054,1,0,0,1.1702,optionRight,60,3620,2,20,0,20,0,1,,,,,,,,,,,,,,,,,,,,,,,,,,,,,,,,,,,,,,,
,,,,,,,,2023-08-06_08h24.55.851,HF_wild_card,2022.2.4,Win32,60.02040694,614a102028af248a4b2d041f,64ce5acb97489d65b14ecc7a,64cf4a3747447ed36c81d9ec,,,,,,,ctch,resources/DG.BMP,resources/DP.BMP,Door3,-0.326494653,0.00240978,1,0,0,2.9017,optionLeft,70,3690,2,21,0,21,0,1,,,,,,,,,,,,,,,,,,,,,,,,,,,,,,,,,,,,,,,
,,,,,,,,2023-08-06_08h24.55.851,HF_wild_card,2022.2.4,Win32,60.02040694,614a102028af248a4b2d041f,64ce5acb97489d65b14ecc7a,64cf4a3747447ed36c81d9ec,,,,,,,decisionTrl,resources/DP.BMP,resources/DB.BMP,Door2,-0.269180638,-0.054904271,1,0,0,2.0344,optionLeft,20,3710,2,22,0,22,0,1,,,,,,,,,,,,,,,,,,,,,,,,,,,,,,,,,,,,,,,
,,,,,,,,2023-08-06_08h24.55.851,HF_wild_card,2022.2.4,Win32,60.02040694,614a102028af248a4b2d041f,64ce5acb97489d65b14ecc7a,64cf4a3747447ed36c81d9ec,,,,,,,sngl,resources/Empty.png,resources/DY.BMP,WildCard_NonEx,0.298749559,-0.014523934,1,0,0,1.0084,optionRight,45,3755,2,23,0,23,0,1,,,,,,,,,,,,,,,,,,,,,,,,,,,,,,,,,,,,,,,
,,,,,,,,2023-08-06_08h24.55.851,HF_wild_card,2022.2.4,Win32,60.02040694,614a102028af248a4b2d041f,64ce5acb97489d65b14ecc7a,64cf4a3747447ed36c81d9ec,,,,,,,decisionTrl,resources/DB.BMP,resources/DP.BMP,Door2,0.324801482,-0.034062805,1,0,0,3.8089,optionRight,20,3775,2,24,0,24,0,1,,,,,,,,,,,,,,,,,,,,,,,,,,,,,,,,,,,,,,,
,,,,,,,,2023-08-06_08h24.55.851,HF_wild_card,2022.2.4,Win32,60.02040694,614a102028af248a4b2d041f,64ce5acb97489d65b14ecc7a,64cf4a3747447ed36c81d9ec,,,,,,,decisionTrl,resources/DB.BMP,resources/DP.BMP,Door1,-0.333007669,-0.023642072,1,0,0,1.0618,optionLeft,30,3805,2,25,0,25,0,1,,,,,,,,,,,,,,,,,,,,,,,,,,,,,,,,,,,,,,,
,,,,,,,,2023-08-06_08h24.55.851,HF_wild_card,2022.2.4,Win32,60.02040694,614a102028af248a4b2d041f,64ce5acb97489d65b14ecc7a,64cf4a3747447ed36c81d9ec,,,,,,,ctch,resources/DBN.BMP,resources/DB.BMP,Door4,-0.372085375,0.001107183,1,0,0,1.1151,optionLeft,80,3885,2,26,0,26,0,1,,,,,,,,,,,,,,,,,,,,,,,,,,,,,,,,,,,,,,,
,,,,,,,,2023-08-06_08h24.55.851,HF_wild_card,2022.2.4,Win32,60.02040694,614a102028af248a4b2d041f,64ce5acb97489d65b14ecc7a,64cf4a3747447ed36c81d9ec,,,,,,,decisionTrl,resources/DBN.BMP,resources/DG.BMP,Door4,-0.296535085,0.006317496,1,0,0,1.099,optionLeft,60,3945,2,27,0,27,0,1,,,,,,,,,,,,,,,,,,,,,,,,,,,,,,,,,,,,,,,
,,,,,,,,2023-08-06_08h24.55.851,HF_wild_card,2022.2.4,Win32,60.02040694,614a102028af248a4b2d041f,64ce5acb97489d65b14ecc7a,64cf4a3747447ed36c81d9ec,,,,,,,decisionTrl,resources/DP.BMP,resources/DY.BMP,WildCard_NonEx,0.164582551,0.011527917,1,0,0,1.4655,optionRight,45,3990,2,28,0,28,0,1,,,,,,,,,,,,,,,,,,,,,,,,,,,,,,,,,,,,,,,
,,,,,,,,2023-08-06_08h24.55.851,HF_wild_card,2022.2.4,Win32,60.02040694,614a102028af248a4b2d041f,64ce5acb97489d65b14ecc7a,64cf4a3747447ed36c81d9ec,,,,,,,decisionTrl,resources/DBN.BMP,resources/DY.BMP,Door4,-0.366875062,-0.011918742,1,0,0,1.0118,optionLeft,60,4050,2,29,0,29,0,1,,,,,,,,,,,,,,,,,,,,,,,,,,,,,,,,,,,,,,,
,,,,,,,,2023-08-06_08h24.55.851,HF_wild_card,2022.2.4,Win32,60.02040694,614a102028af248a4b2d041f,64ce5acb97489d65b14ecc7a,64cf4a3747447ed36c81d9ec,,,,,,,sngl,resources/DG.BMP,resources/Empty.png,Door3,-0.325192057,-0.039273225,1,0,0,0.922,optionLeft,70,4120,2,30,0,30,0,1,,,,,,,,,,,,,,,,,,,,,,,,,,,,,,,,,,,,,,,
,,,,,,,,2023-08-06_08h24.55.851,HF_wild_card,2022.2.4,Win32,60.02040694,614a102028af248a4b2d041f,64ce5acb97489d65b14ecc7a,64cf4a3747447ed36c81d9ec,,,,,,,sngl,resources/Empty.png,resources/DBN.BMP,Door4,0.382115426,0.034974576,1,0,0,1.0462,optionRight,80,4200,2,31,0,31,0,1,,,,,,,,,,,,,,,,,,,,,,,,,,,,,,,,,,,,,,,
,,,,,,,,2023-08-06_08h24.55.851,HF_wild_card,2022.2.4,Win32,60.02040694,614a102028af248a4b2d041f,64ce5acb97489d65b14ecc7a,64cf4a3747447ed36c81d9ec,,,,,,,sngl,resources/DP.BMP,resources/Empty.png,Door2,-0.240523594,-0.032760209,1,0,0,1.0779,optionLeft,20,4220,2,32,0,32,0,1,,,,,,,,,,,,,,,,,,,,,,,,,,,,,,,,,,,,,,,
,,,,,,,,2023-08-06_08h24.55.851,HF_wild_card,2022.2.4,Win32,60.02040694,614a102028af248a4b2d041f,64ce5acb97489d65b14ecc7a,64cf4a3747447ed36c81d9ec,,,,,,,decisionTrl,resources/DBN.BMP,resources/DG.BMP,Door4,-0.267878077,0.027159035,1,0,0,9.4321,optionLeft,60,4280,2,33,0,33,0,1,,,,,,,,,,,,,,,,,,,,,,,,,,,,,,,,,,,,,,,
,,,,,,,,2023-08-06_08h24.55.851,HF_wild_card,2022.2.4,Win32,60.02040694,614a102028af248a4b2d041f,64ce5acb97489d65b14ecc7a,64cf4a3747447ed36c81d9ec,,,,,,,decisionTrl,resources/DP.BMP,resources/DB.BMP,Door1,0.474599501,-0.138270174,1,0,0,3.3443,optionRight,30,4310,2,34,0,34,0,1,,,,,,,,,,,,,,,,,,,,,,,,,,,,,,,,,,,,,,,
,,,,,,,,2023-08-06_08h24.55.851,HF_wild_card,2022.2.4,Win32,60.02040694,614a102028af248a4b2d041f,64ce5acb97489d65b14ecc7a,64cf4a3747447ed36c81d9ec,,,,,,,decisionTrl,resources/DP.BMP,resources/DB.BMP,Door2,-0.283509159,-0.04708873,1,0,0,1.0627,optionLeft,20,4330,2,35,0,35,0,1,,,,,,,,,,,,,,,,,,,,,,,,,,,,,,,,,,,,,,,
,,,,,,,,2023-08-06_08h24.55.851,HF_wild_card,2022.2.4,Win32,60.02040694,614a102028af248a4b2d041f,64ce5acb97489d65b14ecc7a,64cf4a3747447ed36c81d9ec,,,,,,,decisionTrl,resources/DG.BMP,resources/DBN.BMP,Door4,0.358668767,0.006317496,1,0,0,1.1452,optionRight,60,4390,2,36,0,36,0,1,,,,,,,,,,,,,,,,,,,,,,,,,,,,,,,,,,,,,,,
,,,,,,,,2023-08-06_08h24.55.851,HF_wild_card,2022.2.4,Win32,60.02040694,614a102028af248a4b2d041f,64ce5acb97489d65b14ecc7a,64cf4a3747447ed36c81d9ec,,,,,,,ctch,resources/DP.BMP,resources/DG.BMP,Door2,-0.28481172,-0.054904271,1,0,0,1.9034,optionLeft,20,4410,2,37,0,37,0,1,,,,,,,,,,,,,,,,,,,,,,,,,,,,,,,,,,,,,,,
,,,,,,,,2023-08-06_08h24.55.851,HF_wild_card,2022.2.4,Win32,60.02040694,614a102028af248a4b2d041f,64ce5acb97489d65b14ecc7a,64cf4a3747447ed36c81d9ec,,,,,,,decisionTrl,resources/DY.BMP,resources/DG.BMP,Door3,0.432916567,-0.018431687,1,0,0,1.0951,optionRight,70,4480,2,38,0,38,0,1,,,,,,,,,,,,,,,,,,,,,,,,,,,,,,,,,,,,,,,
,,,,,,,,2023-08-06_08h24.55.851,HF_wild_card,2022.2.4,Win32,60.02040694,614a102028af248a4b2d041f,64ce5acb97489d65b14ecc7a,64cf4a3747447ed36c81d9ec,,,,,,,decisionTrl,resources/DY.BMP,resources/DP.BMP,WildCard_NonEx,-0.261365061,-0.010616146,1,0,0,3.3978,optionLeft,55,4535,2,39,0,39,0,1,,,,,,,,,,,,,,,,,,,,,,,,,,,,,,,,,,,,,,,
,,,,,,,,2023-08-06_08h24.55.851,HF_wild_card,2022.2.4,Win32,60.02040694,614a102028af248a4b2d041f,64ce5acb97489d65b14ecc7a,64cf4a3747447ed36c81d9ec,,,,,,,decisionTrl,resources/DB.BMP,resources/DY.BMP,Door1,-0.149342151,-0.07835093,1,0,0,2.7912,optionLeft,30,4565,2,40,0,40,0,1,,,,,,,,,,,,,,,,,,,,,,,,,,,,,,,,,,,,,,,
,,,,,,,,2023-08-06_08h24.55.851,HF_wild_card,2022.2.4,Win32,60.02040694,614a102028af248a4b2d041f,64ce5acb97489d65b14ecc7a,64cf4a3747447ed36c81d9ec,,,,,,,decisionTrl,resources/DP.BMP,resources/DB.BMP,Door1,0.274000412,-0.034062805,1,0,0,3.3826,optionRight,30,4595,2,41,0,41,0,1,,,,,,,,,,,,,,,,,,,,,,,,,,,,,,,,,,,,,,,
,,,,,,,,2023-08-06_08h24.55.851,HF_wild_card,2022.2.4,Win32,60.02040694,614a102028af248a4b2d041f,64ce5acb97489d65b14ecc7a,64cf4a3747447ed36c81d9ec,,,,,,,sngl,resources/Empty.png,resources/DP.BMP,Door2,0.354761086,0.007620093,1,0,0,0.979,optionRight,40,4635,2,42,0,42,0,1,,,,,,,,,,,,,,,,,,,,,,,,,,,,,,,,,,,,,,,
,,,,,,,,2023-08-06_08h24.55.851,HF_wild_card,2022.2.4,Win32,60.02040694,614a102028af248a4b2d041f,64ce5acb97489d65b14ecc7a,64cf4a3747447ed36c81d9ec,,,,,,,decisionTrl,resources/DY.BMP,resources/DB.BMP,WildCard_NonEx,-0.366875062,-0.023642072,1,0,0,2.9699,optionLeft,55,4690,2,43,0,43,0,1,,,,,,,,,,,,,,,,,,,,,,,,,,,,,,,,,,,,,,,
,,,,,,,,2023-08-06_08h24.55.851,HF_wild_card,2022.2.4,Win32,60.02040694,614a102028af248a4b2d041f,64ce5acb97489d65b14ecc7a,64cf4a3747447ed36c81d9ec,,,,,,,,,,,,,,,,,,,,,,,,,,1,0,1,0,1,,,,,,,,,,,,,,,,,,,,,,,,,,,,,,,,,,
,,,,,,,,2023-08-06_08h24.55.851,HF_wild_card,2022.2.4,Win32,60.02040694,614a102028af248a4b2d041f,64ce5acb97489d65b14ecc7a,64cf4a3747447ed36c81d9ec,,,,,,,sngl,resources/DY.BMP,resources/Empty.png,WildCard_NonEx,-0.248339171,-0.112218322,1,0,0,1.3744,optionLeft,45,4735,3,0,0,0,0,1,,,,,,,,,,,,,,,,,,,,,,,,,,,,,,,,,,,,,,,
,,,,,,,,2023-08-06_08h24.55.851,HF_wild_card,2022.2.4,Win32,60.02040694,614a102028af248a4b2d041f,64ce5acb97489d65b14ecc7a,64cf4a3747447ed36c81d9ec,,,,,,,decisionTrl,resources/DY.BMP,resources/DBN.BMP,Door4,0.518887698,-0.088771735,1,0,0,1.1049,optionRight,60,4795,3,1,0,1,0,1,,,,,,,,,,,,,,,,,,,,,,,,,,,,,,,,,,,,,,,
,,,,,,,,2023-08-06_08h24.55.851,HF_wild_card,2022.2.4,Win32,60.02040694,614a102028af248a4b2d041f,64ce5acb97489d65b14ecc7a,64cf4a3747447ed36c81d9ec,,,,,,,sngl,resources/Empty.png,resources/DBN.BMP,Door4,0.402956964,-0.00931355,1,0,0,0.9361,optionRight,60,4855,3,2,0,2,0,1,,,,,,,,,,,,,,,,,,,,,,,,,,,,,,,,,,,,,,,
,,,,,,,,2023-08-06_08h24.55.851,HF_wild_card,2022.2.4,Win32,60.02040694,614a102028af248a4b2d041f,64ce5acb97489d65b14ecc7a,64cf4a3747447ed36c81d9ec,,,,,,,ctch,resources/DG.BMP,resources/DP.BMP,Door2,0.313078152,-0.017129162,1,0,0,2.616,optionRight,40,4895,3,3,0,3,0,1,,,,,,,,,,,,,,,,,,,,,,,,,,,,,,,,,,,,,,,
,,,,,,,,2023-08-06_08h24.55.851,HF_wild_card,2022.2.4,Win32,60.02040694,614a102028af248a4b2d041f,64ce5acb97489d65b14ecc7a,64cf4a3747447ed36c81d9ec,,,,,,,decisionTrl,resources/DG.BMP,resources/DBN.BMP,Door3,-0.303047994,-0.05881206,1,0,0,1.3035,optionLeft,70,4965,3,4,0,4,0,1,,,,,,,,,,,,,,,,,,,,,,,,,,,,,,,,,,,,,,,
,,,,,,,,2023-08-06_08h24.55.851,HF_wild_card,2022.2.4,Win32,60.02040694,614a102028af248a4b2d041f,64ce5acb97489d65b14ecc7a,64cf4a3747447ed36c81d9ec,,,,,,,decisionTrl,resources/DP.BMP,resources/DB.BMP,Door2,-0.494529089,-0.133059789,1,0,0,2.0283,optionLeft,20,4985,3,5,0,5,0,1,,,,,,,,,,,,,,,,,,,,,,,,,,,,,,,,,,,,,,,
,,,,,,,,2023-08-06_08h24.55.851,HF_wild_card,2022.2.4,Win32,60.02040694,614a102028af248a4b2d041f,64ce5acb97489d65b14ecc7a,64cf4a3747447ed36c81d9ec,,,,,,,decisionTrl,resources/DG.BMP,resources/DBN.BMP,Door3,-0.300442802,0.007620093,1,0,0,1.0049,optionLeft,70,5055,3,6,0,6,0,1,,,,,,,,,,,,,,,,,,,,,,,,,,,,,,,,,,,,,,,
,,,,,,,,2023-08-06_08h24.55.851,HF_wild_card,2022.2.4,Win32,60.02040694,614a102028af248a4b2d041f,64ce5acb97489d65b14ecc7a,64cf4a3747447ed36c81d9ec,,,,,,,decisionTrl,resources/DBN.BMP,resources/DG.BMP,Door4,-0.301745398,0.038882364,1,0,0,1.5026,optionLeft,80,5135,3,7,0,7,0,1,,,,,,,,,,,,,,,,,,,,,,,,,,,,,,,,,,,,,,,
,,,,,,,,2023-08-06_08h24.55.851,HF_wild_card,2022.2.4,Win32,60.02040694,614a102028af248a4b2d041f,64ce5acb97489d65b14ecc7a,64cf4a3747447ed36c81d9ec,,,,,,,sngl,resources/Empty.png,resources/DG.BMP,Door3,0.570991543,-0.039273225,1,0,0,1.0422,optionRight,70,5205,3,8,0,8,0,1,,,,,,,,,,,,,,,,,,,,,,,,,,,,,,,,,,,,,,,
,,,,,,,,2023-08-06_08h24.55.851,HF_wild_card,2022.2.4,Win32,60.02040694,614a102028af248a4b2d041f,64ce5acb97489d65b14ecc7a,64cf4a3747447ed36c81d9ec,,,,,,,ctch,resources/DG.BMP,resources/DP.BMP,Door3,-0.295232489,0.015435705,1,0,0,1.8666,optionLeft,70,5275,3,9,0,9,0,1,,,,,,,,,,,,,,,,,,,,,,,,,,,,,,,,,,,,,,,
,,,,,,,,2023-08-06_08h24.55.851,HF_wild_card,2022.2.4,Win32,60.02040694,614a102028af248a4b2d041f,64ce5acb97489d65b14ecc7a,64cf4a3747447ed36c81d9ec,,,,,,,sngl,resources/DY.BMP,resources/Empty.png,WildCard_NonEx,-0.205353606,-0.002800605,1,0,0,1.2958,optionLeft,55,5330,3,10,0,10,0,1,,,,,,,,,,,,,,,,,,,,,,,,,,,,,,,,,,,,,,,
,,,,,,,,2023-08-06_08h24.55.851,HF_wild_card,2022.2.4,Win32,60.02040694,614a102028af248a4b2d041f,64ce5acb97489d65b14ecc7a,64cf4a3747447ed36c81d9ec,,,,,,,decisionTrl,resources/DP.BMP,resources/DB.BMP,Door2,-0.219682128,-0.114823515,1,0,0,3.4162,optionLeft,40,5370,3,11,0,11,0,1,,,,,,,,,,,,,,,,,,,,,,,,,,,,,,,,,,,,,,,
,,,,,,,,2023-08-06_08h24.55.851,HF_wild_card,2022.2.4,Win32,60.02040694,614a102028af248a4b2d041f,64ce5acb97489d65b14ecc7a,64cf4a3747447ed36c81d9ec,,,,,,,sngl,resources/Empty.png,resources/DB.BMP,Door1,0.358668767,-0.037970593,1,0,0,1.0184,optionRight,30,5400,3,12,0,12,0,1,,,,,,,,,,,,,,,,,,,,,,,,,,,,,,,,,,,,,,,
,,,,,,,,2023-08-06_08h24.55.851,HF_wild_card,2022.2.4,Win32,60.02040694,614a102028af248a4b2d041f,64ce5acb97489d65b14ecc7a,64cf4a3747447ed36c81d9ec,,,,,,,decisionTrl,resources/DB.BMP,resources/DP.BMP,Door2,0.462876171,-0.010616146,1,0,0,1.5352,optionRight,20,5420,3,13,0,13,0,1,,,,,,,,,,,,,,,,,,,,,,,,,,,,,,,,,,,,,,,
,,,,,,,,2023-08-06_08h24.55.851,HF_wild_card,2022.2.4,Win32,60.02040694,614a102028af248a4b2d041f,64ce5acb97489d65b14ecc7a,64cf4a3747447ed36c81d9ec,,,,,,,sngl,resources/DB.BMP,resources/Empty.png,Door1,-0.304350626,-0.035365401,1,0,0,1.0362,optionLeft,30,5450,3,14,0,14,0,1,,,,,,,,,,,,,,,,,,,,,,,,,,,,,,,,,,,,,,,
,,,,,,,,2023-08-06_08h24.55.851,HF_wild_card,2022.2.4,Win32,60.02040694,614a102028af248a4b2d041f,64ce5acb97489d65b14ecc7a,64cf4a3747447ed36c81d9ec,,,,,,,decisionTrl,resources/DBN.BMP,resources/DG.BMP,Door4,-0.339520614,-0.001498009,1,0,0,3.3751,optionLeft,80,5530,3,15,0,15,0,1,,,,,,,,,,,,,,,,,,,,,,,,,,,,,,,,,,,,,,,
,,,,,,,,2023-08-06_08h24.55.851,HF_wild_card,2022.2.4,Win32,60.02040694,614a102028af248a4b2d041f,64ce5acb97489d65b14ecc7a,64cf4a3747447ed36c81d9ec,,,,,,,sngl,resources/Empty.png,resources/DP.BMP,Door2,0.340432492,-0.018431687,1,0,0,1.114,optionRight,20,5550,3,16,0,16,0,1,,,,,,,,,,,,,,,,,,,,,,,,,,,,,,,,,,,,,,,
,,,,,,,,2023-08-06_08h24.55.851,HF_wild_card,2022.2.4,Win32,60.02040694,614a102028af248a4b2d041f,64ce5acb97489d65b14ecc7a,64cf4a3747447ed36c81d9ec,,,,,,,sngl,resources/DG.BMP,resources/Empty.png,Door3,-0.327797285,-0.008010954,1,0,0,0.9506,optionLeft,70,5620,3,17,0,17,0,1,,,,,,,,,,,,,,,,,,,,,,,,,,,,,,,,,,,,,,,
,,,,,,,,2023-08-06_08h24.55.851,HF_wild_card,2022.2.4,Win32,60.02040694,614a102028af248a4b2d041f,64ce5acb97489d65b14ecc7a,64cf4a3747447ed36c81d9ec,,,,,,,decisionTrl,resources/DY.BMP,resources/DG.BMP,Door3,0.466783995,-0.019734283,1,0,0,1.6952,optionRight,70,5690,3,18,0,18,0,1,,,,,,,,,,,,,,,,,,,,,,,,,,,,,,,,,,,,,,,
,,,,,,,,2023-08-06_08h24.55.851,HF_wild_card,2022.2.4,Win32,60.02040694,614a102028af248a4b2d041f,64ce5acb97489d65b14ecc7a,64cf4a3747447ed36c81d9ec,,,,,,,decisionTrl,resources/DB.BMP,resources/DP.BMP,Door2,0.17500332,-0.043180942,1,0,0,3.1149,optionRight,40,5730,3,19,0,19,0,1,,,,,,,,,,,,,,,,,,,,,,,,,,,,,,,,,,,,,,,
,,,,,,,,2023-08-06_08h24.55.851,HF_wild_card,2022.2.4,Win32,60.02040694,614a102028af248a4b2d041f,64ce5acb97489d65b14ecc7a,64cf4a3747447ed36c81d9ec,,,,,,,sngl,resources/Empty.png,resources/DY.BMP,WildCard_NonEx,0.267487324,0.044092713,1,0,0,1.0206,optionRight,55,5785,3,20,0,20,0,1,,,,,,,,,,,,,,,,,,,,,,,,,,,,,,,,,,,,,,,
,,,,,,,,2023-08-06_08h24.55.851,HF_wild_card,2022.2.4,Win32,60.02040694,614a102028af248a4b2d041f,64ce5acb97489d65b14ecc7a,64cf4a3747447ed36c81d9ec,,,,,,,ctch,resources/DB.BMP,resources/DBN.BMP,Door4,0.392536195,-0.065325076,1,0,0,1.0172,optionRight,80,5865,3,21,0,21,0,1,,,,,,,,,,,,,,,,,,,,,,,,,,,,,,,,,,,,,,,
,,,,,,,,2023-08-06_08h24.55.851,HF_wild_card,2022.2.4,Win32,60.02040694,614a102028af248a4b2d041f,64ce5acb97489d65b14ecc7a,64cf4a3747447ed36c81d9ec,,,,,,,decisionTrl,resources/DB.BMP,resources/DP.BMP,Door1,-0.326494653,-0.00931355,1,0,0,1.7352,optionLeft,30,5895,3,22,0,22,0,1,,,,,,,,,,,,,,,,,,,,,,,,,,,,,,,,,,,,,,,
,,,,,,,,2023-08-06_08h24.55.851,HF_wild_card,2022.2.4,Win32,60.02040694,614a102028af248a4b2d041f,64ce5acb97489d65b14ecc7a,64cf4a3747447ed36c81d9ec,,,,,,,ctch,resources/DBN.BMP,resources/DB.BMP,Door4,-0.280903967,0.018040826,1,0,0,1.0553,optionLeft,80,5975,3,23,0,23,0,1,,,,,,,,,,,,,,,,,,,,,,,,,,,,,,,,,,,,,,,
,,,,,,,,2023-08-06_08h24.55.851,HF_wild_card,2022.2.4,Win32,60.02040694,614a102028af248a4b2d041f,64ce5acb97489d65b14ecc7a,64cf4a3747447ed36c81d9ec,,,,,,,decisionTrl,resources/DP.BMP,resources/DY.BMP,WildCard_NonEx,0.346945437,-0.035365401,1,0,0,2.4614,optionRight,55,6030,3,24,0,24,0,1,,,,,,,,,,,,,,,,,,,,,,,,,,,,,,,,,,,,,,,
,,,,,,,,2023-08-06_08h24.55.851,HF_wild_card,2022.2.4,Win32,60.02040694,614a102028af248a4b2d041f,64ce5acb97489d65b14ecc7a,64cf4a3747447ed36c81d9ec,,,,,,,decisionTrl,resources/DY.BMP,resources/DB.BMP,WildCard_NonEx,-0.404650242,-0.022339475,1,0,0,1.8276,optionLeft,55,6085,3,25,0,25,0,1,,,,,,,,,,,,,,,,,,,,,,,,,,,,,,,,,,,,,,,
,,,,,,,,2023-08-06_08h24.55.851,HF_wild_card,2022.2.4,Win32,60.02040694,614a102028af248a4b2d041f,64ce5acb97489d65b14ecc7a,64cf4a3747447ed36c81d9ec,,,,,,,decisionTrl,resources/DP.BMP,resources/DB.BMP,Door2,-0.360362045,-0.000195413,1,0,0,1.7289,optionLeft,40,6125,3,26,0,26,0,1,,,,,,,,,,,,,,,,,,,,,,,,,,,,,,,,,,,,,,,
,,,,,,,,2023-08-06_08h24.55.851,HF_wild_card,2022.2.4,Win32,60.02040694,614a102028af248a4b2d041f,64ce5acb97489d65b14ecc7a,64cf4a3747447ed36c81d9ec,,,,,,,sngl,resources/DBN.BMP,resources/Empty.png,Door4,-0.313468727,0.003712376,1,0,0,1.6408,optionLeft,80,6205,3,27,0,27,0,1,,,,,,,,,,,,,,,,,,,,,,,,,,,,,,,,,,,,,,,
,,,,,,,,2023-08-06_08h24.55.851,HF_wild_card,2022.2.4,Win32,60.02040694,614a102028af248a4b2d041f,64ce5acb97489d65b14ecc7a,64cf4a3747447ed36c81d9ec,,,,,,,decisionTrl,resources/DP.BMP,resources/DB.BMP,Door2,-0.256154748,0.003712376,1,0,0,3.0362,optionLeft,40,6245,3,28,0,28,0,1,,,,,,,,,,,,,,,,,,,,,,,,,,,,,,,,,,,,,,,
,,,,,,,,2023-08-06_08h24.55.851,HF_wild_card,2022.2.4,Win32,60.02040694,614a102028af248a4b2d041f,64ce5acb97489d65b14ecc7a,64cf4a3747447ed36c81d9ec,,,,,,,sngl,resources/Empty.png,resources/DY.BMP,WildCard_NonEx,0.2753029,0.015435705,1,0,0,1.0688,optionRight,45,6290,3,29,0,29,0,1,,,,,,,,,,,,,,,,,,,,,,,,,,,,,,,,,,,,,,,
,,,,,,,,2023-08-06_08h24.55.851,HF_wild_card,2022.2.4,Win32,60.02040694,614a102028af248a4b2d041f,64ce5acb97489d65b14ecc7a,64cf4a3747447ed36c81d9ec,,,,,,,decisionTrl,resources/DG.BMP,resources/DBN.BMP,Door4,0.427706183,-0.043180942,1,0,0,1.0657,optionRight,80,6370,3,30,0,30,0,1,,,,,,,,,,,,,,,,,,,,,,,,,,,,,,,,,,,,,,,
,,,,,,,,2023-08-06_08h24.55.851,HF_wild_card,2022.2.4,Win32,60.02040694,614a102028af248a4b2d041f,64ce5acb97489d65b14ecc7a,64cf4a3747447ed36c81d9ec,,,,,,,ctch,resources/DP.BMP,resources/DG.BMP,Door3,0.221896638,-0.000195413,1,0,0,1.2389,optionRight,70,6440,3,31,0,31,0,1,,,,,,,,,,,,,,,,,,,,,,,,,,,,,,,,,,,,,,,
,,,,,,,,2023-08-06_08h24.55.851,HF_wild_card,2022.2.4,Win32,60.02040694,614a102028af248a4b2d041f,64ce5acb97489d65b14ecc7a,64cf4a3747447ed36c81d9ec,,,,,,,decisionTrl,resources/DG.BMP,resources/DY.BMP,Door3,-0.484108356,-0.045786134,1,0,0,1.1209,optionLeft,70,6510,3,32,0,32,0,1,,,,,,,,,,,,,,,,,,,,,,,,,,,,,,,,,,,,,,,
,,,,,,,,2023-08-06_08h24.55.851,HF_wild_card,2022.2.4,Win32,60.02040694,614a102028af248a4b2d041f,64ce5acb97489d65b14ecc7a,64cf4a3747447ed36c81d9ec,,,,,,,sngl,resources/DP.BMP,resources/Empty.png,Door2,-0.196235469,-0.022339475,1,0,0,1.1903,optionLeft,40,6550,3,33,0,33,0,1,,,,,,,,,,,,,,,,,,,,,,,,,,,,,,,,,,,,,,,
,,,,,,,,2023-08-06_08h24.55.851,HF_wild_card,2022.2.4,Win32,60.02040694,614a102028af248a4b2d041f,64ce5acb97489d65b14ecc7a,64cf4a3747447ed36c81d9ec,,,,,,,decisionTrl,resources/DB.BMP,resources/DP.BMP,Door2,0.470691676,-0.09658724,1,0,0,1.4018,optionRight,40,6590,3,34,0,34,0,1,,,,,,,,,,,,,,,,,,,,,,,,,,,,,,,,,,,,,,,
,,,,,,,,2023-08-06_08h24.55.851,HF_wild_card,2022.2.4,Win32,60.02040694,614a102028af248a4b2d041f,64ce5acb97489d65b14ecc7a,64cf4a3747447ed36c81d9ec,,,,,,,decisionTrl,resources/DBN.BMP,resources/DG.BMP,Door4,-0.322586936,-0.027549896,1,0,0,1.1106,optionLeft,80,6670,3,35,0,35,0,1,,,,,,,,,,,,,,,,,,,,,,,,,,,,,,,,,,,,,,,
,,,,,,,,2023-08-06_08h24.55.851,HF_wild_card,2022.2.4,Win32,60.02040694,614a102028af248a4b2d041f,64ce5acb97489d65b14ecc7a,64cf4a3747447ed36c81d9ec,,,,,,,decisionTrl,resources/DBN.BMP,resources/DG.BMP,Door4,-0.349941312,-0.069232793,1,0,0,1.0261,optionLeft,80,6750,3,36,0,36,0,1,,,,,,,,,,,,,,,,,,,,,,,,,,,,,,,,,,,,,,,
,,,,,,,,2023-08-06_08h24.55.851,HF_wild_card,2022.2.4,Win32,60.02040694,614a102028af248a4b2d041f,64ce5acb97489d65b14ecc7a,64cf4a3747447ed36c81d9ec,,,,,,,decisionTrl,resources/DBN.BMP,resources/DY.BMP,Door4,-0.42158392,-0.030155016,1,0,0,1.1407,optionLeft,60,6810,3,37,0,37,0,1,,,,,,,,,,,,,,,,,,,,,,,,,,,,,,,,,,,,,,,
,,,,,,,,2023-08-06_08h24.55.851,HF_wild_card,2022.2.4,Win32,60.02040694,614a102028af248a4b2d041f,64ce5acb97489d65b14ecc7a,64cf4a3747447ed36c81d9ec,,,,,,,decisionTrl,resources/DY.BMP,resources/DP.BMP,WildCard_NonEx,-0.310863607,-0.017129162,1,0,0,3.49,optionLeft,45,6855,3,38,0,38,0,1,,,,,,,,,,,,,,,,,,,,,,,,,,,,,,,,,,,,,,,
,,,,,,,,2023-08-06_08h24.55.851,HF_wild_card,2022.2.4,Win32,60.02040694,614a102028af248a4b2d041f,64ce5acb97489d65b14ecc7a,64cf4a3747447ed36c81d9ec,,,,,,,decisionTrl,resources/DG.BMP,resources/DBN.BMP,Door4,0.410772469,-0.043180942,1,0,0,1.4608,optionRight,60,6915,3,39,0,39,0,1,,,,,,,,,,,,,,,,,,,,,,,,,,,,,,,,,,,,,,,
,,,,,,,,2023-08-06_08h24.55.851,HF_wild_card,2022.2.4,Win32,60.02040694,614a102028af248a4b2d041f,64ce5acb97489d65b14ecc7a,64cf4a3747447ed36c81d9ec,,,,,,,ctch,resources/DB.BMP,resources/DBN.BMP,Door4,0.38732581,0.001107183,1,0,0,1.6218,optionRight,60,6975,3,40,0,40,0,1,,,,,,,,,,,,,,,,,,,,,,,,,,,,,,,,,,,,,,,
,,,,,,,,2023-08-06_08h24.55.851,HF_wild_card,2022.2.4,Win32,60.02040694,614a102028af248a4b2d041f,64ce5acb97489d65b14ecc7a,64cf4a3747447ed36c81d9ec,,,,,,,ctch,resources/DBN.BMP,resources/DB.BMP,Door4,-0.292627297,-0.036667997,1,0,0,1.2465,optionLeft,60,7035,3,41,0,41,0,1,,,,,,,,,,,,,,,,,,,,,,,,,,,,,,,,,,,,,,,
,,,,,,,,2023-08-06_08h24.55.851,HF_wild_card,2022.2.4,Win32,60.02040694,614a102028af248a4b2d041f,64ce5acb97489d65b14ecc7a,64cf4a3747447ed36c81d9ec,,,,,,,decisionTrl,resources/DB.BMP,resources/DY.BMP,Door1,-0.359059521,-0.080956123,1,0,0,1.4994,optionLeft,30,7065,3,42,0,42,0,1,,,,,,,,,,,,,,,,,,,,,,,,,,,,,,,,,,,,,,,
,,,,,,,,2023-08-06_08h24.55.851,HF_wild_card,2022.2.4,Win32,60.02040694,614a102028af248a4b2d041f,64ce5acb97489d65b14ecc7a,64cf4a3747447ed36c81d9ec,,,,,,,ctch,resources/DP.BMP,resources/DG.BMP,Door3,0.577504345,-0.014523934,1,0,0,1.0842,optionRight,70,7135,3,43,0,43,0,1,,,,,,,,,,,,,,,,,,,,,,,,,,,,,,,,,,,,,,,
,,,,,,,,2023-08-06_08h24.55.851,HF_wild_card,2022.2.4,Win32,60.02040694,614a102028af248a4b2d041f,64ce5acb97489d65b14ecc7a,64cf4a3747447ed36c81d9ec,,,,,,,,,,,,,,,,,,,,,,,,,,2,0,2,0,1,,,,,,,,,,,,,,,,,,,,,,,,,,,,,,,,,,
,,,,,,,,2023-08-06_08h24.55.851,HF_wild_card,2022.2.4,Win32,60.02040694,614a102028af248a4b2d041f,64ce5acb97489d65b14ecc7a,64cf4a3747447ed36c81d9ec,,,,,,,decisionTrl,resources/DP.BMP,resources/DB.BMP,Door2,-0.267878077,-0.144783118,1,0,0,1.7881,optionLeft,20,7155,4,0,0,0,0,1,,,,,,,,,,,,,,,,,,,,,,,,,,,,,,,,,,,,,,,
,,,,,,,,2023-08-06_08h24.55.851,HF_wild_card,2022.2.4,Win32,60.02040694,614a102028af248a4b2d041f,64ce5acb97489d65b14ecc7a,64cf4a3747447ed36c81d9ec,,,,,,,decisionTrl,resources/DBN.BMP,resources/DG.BMP,Door4,-0.313468727,-0.099192468,1,0,0,1.2878,optionLeft,60,7215,4,1,0,1,0,1,,,,,,,,,,,,,,,,,,,,,,,,,,,,,,,,,,,,,,,
,,,,,,,,2023-08-06_08h24.55.851,HF_wild_card,2022.2.4,Win32,60.02040694,614a102028af248a4b2d041f,64ce5acb97489d65b14ecc7a,64cf4a3747447ed36c81d9ec,,,,,,,decisionTrl,resources/DP.BMP,resources/DB.BMP,Door2,-0.336915386,-0.07835093,1,0,0,2.5808,optionLeft,40,7255,4,2,0,2,0,1,,,,,,,,,,,,,,,,,,,,,,,,,,,,,,,,,,,,,,,
,,,,,,,,2023-08-06_08h24.55.851,HF_wild_card,2022.2.4,Win32,60.02040694,614a102028af248a4b2d041f,64ce5acb97489d65b14ecc7a,64cf4a3747447ed36c81d9ec,,,,,,,sngl,resources/DP.BMP,resources/Empty.png,Door2,-0.265272885,-0.017129162,1,0,0,1.0133,optionLeft,20,7275,4,3,0,3,0,1,,,,,,,,,,,,,,,,,,,,,,,,,,,,,,,,,,,,,,,
,,,,,,,,2023-08-06_08h24.55.851,HF_wild_card,2022.2.4,Win32,60.02040694,614a102028af248a4b2d041f,64ce5acb97489d65b14ecc7a,64cf4a3747447ed36c81d9ec,,,,,,,sngl,resources/DBN.BMP,resources/Empty.png,Door4,-0.313468727,0.014133109,1,0,0,1.0733,optionLeft,60,7335,4,4,0,4,0,1,,,,,,,,,,,,,,,,,,,,,,,,,,,,,,,,,,,,,,,
,,,,,,,,2023-08-06_08h24.55.851,HF_wild_card,2022.2.4,Win32,60.02040694,614a102028af248a4b2d041f,64ce5acb97489d65b14ecc7a,64cf4a3747447ed36c81d9ec,,,,,,,sngl,resources/Empty.png,resources/DP.BMP,Door2,0.367786975,0.006317496,1,0,0,1.0582,optionRight,40,7375,4,5,0,5,0,1,,,,,,,,,,,,,,,,,,,,,,,,,,,,,,,,,,,,,,,
,,,,,,,,2023-08-06_08h24.55.851,HF_wild_card,2022.2.4,Win32,60.02040694,614a102028af248a4b2d041f,64ce5acb97489d65b14ecc7a,64cf4a3747447ed36c81d9ec,,,,,,,decisionTrl,resources/DG.BMP,resources/DBN.BMP,Door3,-0.32128434,-0.026247264,1,0,0,1.3595,optionLeft,70,7445,4,6,0,6,0,1,,,,,,,,,,,,,,,,,,,,,,,,,,,,,,,,,,,,,,,
,,,,,,,,2023-08-06_08h24.55.851,HF_wild_card,2022.2.4,Win32,60.02040694,614a102028af248a4b2d041f,64ce5acb97489d65b14ecc7a,64cf4a3747447ed36c81d9ec,,,,,,,decisionTrl,resources/DP.BMP,resources/DB.BMP,Door2,-0.303047994,-0.031457613,1,0,0,1.4905,optionLeft,40,7485,4,7,0,7,0,1,,,,,,,,,,,,,,,,,,,,,,,,,,,,,,,,,,,,,,,
,,,,,,,,2023-08-06_08h24.55.851,HF_wild_card,2022.2.4,Win32,60.02040694,614a102028af248a4b2d041f,64ce5acb97489d65b14ecc7a,64cf4a3747447ed36c81d9ec,,,,,,,sngl,resources/Empty.png,resources/DB.BMP,Door1,0.339129932,0.062329023,1,0,0,0.9903,optionRight,30,7515,4,8,0,8,0,1,,,,,,,,,,,,,,,,,,,,,,,,,,,,,,,,,,,,,,,
,,,,,,,,2023-08-06_08h24.55.851,HF_wild_card,2022.2.4,Win32,60.02040694,614a102028af248a4b2d041f,64ce5acb97489d65b14ecc7a,64cf4a3747447ed36c81d9ec,,,,,,,decisionTrl,resources/DG.BMP,resources/DBN.BMP,Door4,0.305262504,0.033671979,1,0,0,1.3363,optionRight,60,7575,4,9,0,9,0,1,,,,,,,,,,,,,,,,,,,,,,,,,,,,,,,,,,,,,,,
,,,,,,,,2023-08-06_08h24.55.851,HF_wild_card,2022.2.4,Win32,60.02040694,614a102028af248a4b2d041f,64ce5acb97489d65b14ecc7a,64cf4a3747447ed36c81d9ec,,,,,,,decisionTrl,resources/DR.BMP,resources/DB.BMP,WildCard_Ex,-0.330402477,-0.027549896,1,0,0,1.293,optionLeft,55,7630,4,10,0,10,0,1,,,,,,,,,,,,,,,,,,,,,,,,,,,,,,,,,,,,,,,
,,,,,,,,2023-08-06_08h24.55.851,HF_wild_card,2022.2.4,Win32,60.02040694,614a102028af248a4b2d041f,64ce5acb97489d65b14ecc7a,64cf4a3747447ed36c81d9ec,,,,,,,ctch,resources/DP.BMP,resources/DG.BMP,Door3,0.3091704,0.05190829,1,0,0,1.2297,optionRight,70,7700,4,11,0,11,0,1,,,,,,,,,,,,,,,,,,,,,,,,,,,,,,,,,,,,,,,
,,,,,,,,2023-08-06_08h24.55.851,HF_wild_card,2022.2.4,Win32,60.02040694,614a102028af248a4b2d041f,64ce5acb97489d65b14ecc7a,64cf4a3747447ed36c81d9ec,,,,,,,sngl,resources/DB.BMP,resources/Empty.png,Door1,-0.205353606,-0.030155016,1,0,0,0.9609,optionLeft,30,7730,4,12,0,12,0,1,,,,,,,,,,,,,,,,,,,,,,,,,,,,,,,,,,,,,,,
,,,,,,,,2023-08-06_08h24.55.851,HF_wild_card,2022.2.4,Win32,60.02040694,614a102028af248a4b2d041f,64ce5acb97489d65b14ecc7a,64cf4a3747447ed36c81d9ec,,,,,,,ctch,resources/DBN.BMP,resources/DB.BMP,Door4,-0.28481172,-0.035365401,1,0,0,1.2909,optionLeft,80,7810,4,13,0,13,0,1,,,,,,,,,,,,,,,,,,,,,,,,,,,,,,,,,,,,,,,
,,,,,,,,2023-08-06_08h24.55.851,HF_wild_card,2022.2.4,Win32,60.02040694,614a102028af248a4b2d041f,64ce5acb97489d65b14ecc7a,64cf4a3747447ed36c81d9ec,,,,,,,decisionTrl,resources/DG.BMP,resources/DBN.BMP,Door4,0.300052263,0.031066751,1,0,0,1.4528,optionRight,80,7890,4,14,0,14,0,1,,,,,,,,,,,,,,,,,,,,,,,,,,,,,,,,,,,,,,,
,,,,,,,,2023-08-06_08h24.55.851,HF_wild_card,2022.2.4,Win32,60.02040694,614a102028af248a4b2d041f,64ce5acb97489d65b14ecc7a,64cf4a3747447ed36c81d9ec,,,,,,,ctch,resources/DG.BMP,resources/DP.BMP,Door3,-0.291324665,-0.024944668,1,0,0,1.0836,optionLeft,70,7960,4,15,0,15,0,1,,,,,,,,,,,,,,,,,,,,,,,,,,,,,,,,,,,,,,,
,,,,,,,,2023-08-06_08h24.55.851,HF_wild_card,2022.2.4,Win32,60.02040694,614a102028af248a4b2d041f,64ce5acb97489d65b14ecc7a,64cf4a3747447ed36c81d9ec,,,,,,,decisionTrl,resources/DB.BMP,resources/DP.BMP,Door2,0.422495798,0.003712376,1,0,0,2.4734,optionRight,40,8000,4,16,0,16,0,1,,,,,,,,,,,,,,,,,,,,,,,,,,,,,,,,,,,,,,,
,,,,,,,,2023-08-06_08h24.55.851,HF_wild_card,2022.2.4,Win32,60.02040694,614a102028af248a4b2d041f,64ce5acb97489d65b14ecc7a,64cf4a3747447ed36c81d9ec,,,,,,,decisionTrl,resources/DG.BMP,resources/DBN.BMP,Door4,0.455060666,0.048000501,1,0,0,2.1269,optionRight,80,8080,4,17,0,17,0,1,,,,,,,,,,,,,,,,,,,,,,,,,,,,,,,,,,,,,,,
,,,,,,,,2023-08-06_08h24.55.851,HF_wild_card,2022.2.4,Win32,60.02040694,614a102028af248a4b2d041f,64ce5acb97489d65b14ecc7a,64cf4a3747447ed36c81d9ec,,,,,,,sngl,resources/DR.BMP,resources/Empty.png,WildCard_Ex,-0.270483198,-0.034062805,1,0,0,1.3798,optionLeft,55,8135,4,18,0,18,0,1,,,,,,,,,,,,,,,,,,,,,,,,,,,,,,,,,,,,,,,
,,,,,,,,2023-08-06_08h24.55.851,HF_wild_card,2022.2.4,Win32,60.02040694,614a102028af248a4b2d041f,64ce5acb97489d65b14ecc7a,64cf4a3747447ed36c81d9ec,,,,,,,sngl,resources/Empty.png,resources/DG.BMP,Door3,0.367786975,-0.019734283,1,0,0,1.035,optionRight,70,8205,4,19,0,19,0,1,,,,,,,,,,,,,,,,,,,,,,,,,,,,,,,,,,,,,,,
,,,,,,,,2023-08-06_08h24.55.851,HF_wild_card,2022.2.4,Win32,60.02040694,614a102028af248a4b2d041f,64ce5acb97489d65b14ecc7a,64cf4a3747447ed36c81d9ec,,,,,,,ctch,resources/DB.BMP,resources/DBN.BMP,Door4,0.436824392,-0.041878346,1,0,0,1.4006,optionRight,60,8265,4,20,0,20,0,1,,,,,,,,,,,,,,,,,,,,,,,,,,,,,,,,,,,,,,,
,,,,,,,,2023-08-06_08h24.55.851,HF_wild_card,2022.2.4,Win32,60.02040694,614a102028af248a4b2d041f,64ce5acb97489d65b14ecc7a,64cf4a3747447ed36c81d9ec,,,,,,,ctch,resources/DG.BMP,resources/DP.BMP,Door3,-0.409860591,0.076657545,1,0,0,2.7875,optionLeft,70,8335,4,21,0,21,0,1,,,,,,,,,,,,,,,,,,,,,,,,,,,,,,,,,,,,,,,
,,,,,,,,2023-08-06_08h24.55.851,HF_wild_card,2022.2.4,Win32,60.02040694,614a102028af248a4b2d041f,64ce5acb97489d65b14ecc7a,64cf4a3747447ed36c81d9ec,,,,,,,sngl,resources/DR.BMP,resources/Empty.png,WildCard_Ex,-0.377295795,-0.001498009,1,0,0,1.2367,optionLeft,45,8380,4,22,0,22,0,1,,,,,,,,,,,,,,,,,,,,,,,,,,,,,,,,,,,,,,,
,,,,,,,,2023-08-06_08h24.55.851,HF_wild_card,2022.2.4,Win32,60.02040694,614a102028af248a4b2d041f,64ce5acb97489d65b14ecc7a,64cf4a3747447ed36c81d9ec,,,,,,,decisionTrl,resources/DB.BMP,resources/DP.BMP,Door1,-0.485410952,-0.031457613,1,0,0,1.8167,optionLeft,30,8410,4,23,0,23,0,1,,,,,,,,,,,,,,,,,,,,,,,,,,,,,,,,,,,,,,,
,,,,,,,,2023-08-06_08h24.55.851,HF_wild_card,2022.2.4,Win32,60.02040694,614a102028af248a4b2d041f,64ce5acb97489d65b14ecc7a,64cf4a3747447ed36c81d9ec,,,,,,,sngl,resources/Empty.png,resources/DR.BMP,WildCard_Ex,0.415982853,-0.131757229,1,0,0,1.1909,optionRight,55,8465,4,24,0,24,0,1,,,,,,,,,,,,,,,,,,,,,,,,,,,,,,,,,,,,,,,
,,,,,,,,2023-08-06_08h24.55.851,HF_wild_card,2022.2.4,Win32,60.02040694,614a102028af248a4b2d041f,64ce5acb97489d65b14ecc7a,64cf4a3747447ed36c81d9ec,,,,,,,sngl,resources/Empty.png,resources/DR.BMP,WildCard_Ex,0.280513285,-0.040575821,1,0,0,1.0562,optionRight,45,8510,4,25,0,25,0,1,,,,,,,,,,,,,,,,,,,,,,,,,,,,,,,,,,,,,,,
,,,,,,,,2023-08-06_08h24.55.851,HF_wild_card,2022.2.4,Win32,60.02040694,614a102028af248a4b2d041f,64ce5acb97489d65b14ecc7a,64cf4a3747447ed36c81d9ec,,,,,,,decisionTrl,resources/DR.BMP,resources/DBN.BMP,Door4,0.306565208,-0.040575821,1,0,0,3.2646,optionRight,80,8590,4,26,0,26,0,1,,,,,,,,,,,,,,,,,,,,,,,,,,,,,,,,,,,,,,,
,,,,,,,,2023-08-06_08h24.55.851,HF_wild_card,2022.2.4,Win32,60.02040694,614a102028af248a4b2d041f,64ce5acb97489d65b14ecc7a,64cf4a3747447ed36c81d9ec,,,,,,,decisionTrl,resources/DBN.BMP,resources/DR.BMP,Door4,-0.45154356,-0.005405833,1,0,0,1.6544,optionLeft,60,8650,4,27,0,27,0,1,,,,,,,,,,,,,,,,,,,,,,,,,,,,,,,,,,,,,,,
,,,,,,,,2023-08-06_08h24.55.851,HF_wild_card,2022.2.4,Win32,60.02040694,614a102028af248a4b2d041f,64ce5acb97489d65b14ecc7a,64cf4a3747447ed36c81d9ec,,,,,,,decisionTrl,resources/DBN.BMP,resources/DG.BMP,Door3,0.354761086,-0.067930197,1,0,0,2.3434,optionRight,70,8720,4,28,0,28,0,1,,,,,,,,,,,,,,,,,,,,,,,,,,,,,,,,,,,,,,,
,,,,,,,,2023-08-06_08h24.55.851,HF_wild_card,2022.2.4,Win32,60.02040694,614a102028af248a4b2d041f,64ce5acb97489d65b14ecc7a,64cf4a3747447ed36c81d9ec,,,,,,,decisionTrl,resources/DB.BMP,resources/DR.BMP,WildCard_Ex,0.245343297,-0.011918742,1,0,0,1.5667,optionRight,55,8775,4,29,0,29,0,1,,,,,,,,,,,,,,,,,,,,,,,,,,,,,,,,,,,,,,,
,,,,,,,,2023-08-06_08h24.55.851,HF_wild_card,2022.2.4,Win32,60.02040694,614a102028af248a4b2d041f,64ce5acb97489d65b14ecc7a,64cf4a3747447ed36c81d9ec,,,,,,,decisionTrl,resources/DP.BMP,resources/DB.BMP,Door1,0.198449979,-0.037970593,1,0,0,2.2606,optionRight,30,8805,4,30,0,30,0,1,,,,,,,,,,,,,,,,,,,,,,,,,,,,,,,,,,,,,,,
,,,,,,,,2023-08-06_08h24.55.851,HF_wild_card,2022.2.4,Win32,60.02040694,614a102028af248a4b2d041f,64ce5acb97489d65b14ecc7a,64cf4a3747447ed36c81d9ec,,,,,,,sngl,resources/Empty.png,resources/DBN.BMP,Door4,0.401654403,-0.116126147,1,0,0,4.3478,optionRight,80,8885,4,31,0,31,0,1,,,,,,,,,,,,,,,,,,,,,,,,,,,,,,,,,,,,,,,
,,,,,,,,2023-08-06_08h24.55.851,HF_wild_card,2022.2.4,Win32,60.02040694,614a102028af248a4b2d041f,64ce5acb97489d65b14ecc7a,64cf4a3747447ed36c81d9ec,,,,,,,decisionTrl,resources/DP.BMP,resources/DR.BMP,WildCard_Ex,0.238830423,0.008922724,1,0,0,2.8556,optionRight,45,8930,4,32,0,32,0,1,,,,,,,,,,,,,,,,,,,,,,,,,,,,,,,,,,,,,,,
,,,,,,,,2023-08-06_08h24.55.851,HF_wild_card,2022.2.4,Win32,60.02040694,614a102028af248a4b2d041f,64ce5acb97489d65b14ecc7a,64cf4a3747447ed36c81d9ec,,,,,,,decisionTrl,resources/DR.BMP,resources/DG.BMP,Door3,0.267487324,-0.034062805,1,0,0,1.4323,optionRight,70,9000,4,33,0,33,0,1,,,,,,,,,,,,,,,,,,,,,,,,,,,,,,,,,,,,,,,
,,,,,,,,2023-08-06_08h24.55.851,HF_wild_card,2022.2.4,Win32,60.02040694,614a102028af248a4b2d041f,64ce5acb97489d65b14ecc7a,64cf4a3747447ed36c81d9ec,,,,,,,ctch,resources/DBN.BMP,resources/DB.BMP,Door4,-0.387716528,-0.087469139,1,0,0,1.1779,optionLeft,60,9060,4,34,0,34,0,1,,,,,,,,,,,,,,,,,,,,,,,,,,,,,,,,,,,,,,,
,,,,,,,,2023-08-06_08h24.55.851,HF_wild_card,2022.2.4,Win32,60.02040694,614a102028af248a4b2d041f,64ce5acb97489d65b14ecc7a,64cf4a3747447ed36c81d9ec,,,,,,,decisionTrl,resources/DB.BMP,resources/DP.BMP,Door1,-0.34082321,-0.084863911,1,0,0,1.7796,optionLeft,30,9090,4,35,0,35,0,1,,,,,,,,,,,,,,,,,,,,,,,,,,,,,,,,,,,,,,,
,,,,,,,,2023-08-06_08h24.55.851,HF_wild_card,2022.2.4,Win32,60.02040694,614a102028af248a4b2d041f,64ce5acb97489d65b14ecc7a,64cf4a3747447ed36c81d9ec,,,,,,,ctch,resources/DP.BMP,resources/DG.BMP,Door3,0.352155822,-0.006708358,1,0,0,1.0873,optionRight,70,9160,4,36,0,36,0,1,,,,,,,,,,,,,,,,,,,,,,,,,,,,,,,,,,,,,,,
,,,,,,,,2023-08-06_08h24.55.851,HF_wild_card,2022.2.4,Win32,60.02040694,614a102028af248a4b2d041f,64ce5acb97489d65b14ecc7a,64cf4a3747447ed36c81d9ec,,,,,,,ctch,resources/DB.BMP,resources/DBN.BMP,Door4,0.356063646,-0.006708358,1,0,0,1.1508,optionRight,60,9220,4,37,0,37,0,1,,,,,,,,,,,,,,,,,,,,,,,,,,,,,,,,,,,,,,,
,,,,,,,,2023-08-06_08h24.55.851,HF_wild_card,2022.2.4,Win32,60.02040694,614a102028af248a4b2d041f,64ce5acb97489d65b14ecc7a,64cf4a3747447ed36c81d9ec,,,,,,,decisionTrl,resources/DBN.BMP,resources/DG.BMP,Door3,0.378207744,-0.014523934,1,0,0,1.4555,optionRight,70,9290,4,38,0,38,0,1,,,,,,,,,,,,,,,,,,,,,,,,,,,,,,,,,,,,,,,
,,,,,,,,2023-08-06_08h24.55.851,HF_wild_card,2022.2.4,Win32,60.02040694,614a102028af248a4b2d041f,64ce5acb97489d65b14ecc7a,64cf4a3747447ed36c81d9ec,,,,,,,decisionTrl,resources/DBN.BMP,resources/DG.BMP,Door3,0.267487324,-0.031457613,1,0,0,2.3091,optionRight,70,9360,4,39,0,39,0,1,,,,,,,,,,,,,,,,,,,,,,,,,,,,,,,,,,,,,,,
,,,,,,,,2023-08-06_08h24.55.851,HF_wild_card,2022.2.4,Win32,60.02040694,614a102028af248a4b2d041f,64ce5acb97489d65b14ecc7a,64cf4a3747447ed36c81d9ec,,,,,,,decisionTrl,resources/DB.BMP,resources/DP.BMP,Door2,0.337827372,-0.030155016,1,0,0,2.5857,optionRight,20,9380,4,40,0,40,0,1,,,,,,,,,,,,,,,,,,,,,,,,,,,,,,,,,,,,,,,
,,,,,,,,2023-08-06_08h24.55.851,HF_wild_card,2022.2.4,Win32,60.02040694,614a102028af248a4b2d041f,64ce5acb97489d65b14ecc7a,64cf4a3747447ed36c81d9ec,,,,,,,decisionTrl,resources/DG.BMP,resources/DR.BMP,Door3,-0.379900987,-0.023642072,1,0,0,1.512,optionLeft,70,9450,4,41,0,41,0,1,,,,,,,,,,,,,,,,,,,,,,,,,,,,,,,,,,,,,,,
,,,,,,,,2023-08-06_08h24.55.851,HF_wild_card,2022.2.4,Win32,60.02040694,614a102028af248a4b2d041f,64ce5acb97489d65b14ecc7a,64cf4a3747447ed36c81d9ec,,,,,,,sngl,resources/DG.BMP,resources/Empty.png,Door3,-0.204051046,-0.031457613,1,0,0,1.0883,optionLeft,70,9520,4,42,0,42,0,1,,,,,,,,,,,,,,,,,,,,,,,,,,,,,,,,,,,,,,,
,,,,,,,,2023-08-06_08h24.55.851,HF_wild_card,2022.2.4,Win32,60.02040694,614a102028af248a4b2d041f,64ce5acb97489d65b14ecc7a,64cf4a3747447ed36c81d9ec,,,,,,,decisionTrl,resources/DR.BMP,resources/DP.BMP,WildCard_Ex,-0.27308839,-0.018431687,1,0,0,2.2181,optionLeft,45,9565,4,43,0,43,0,1,,,,,,,,,,,,,,,,,,,,,,,,,,,,,,,,,,,,,,,
,,,,,,,,2023-08-06_08h24.55.851,HF_wild_card,2022.2.4,Win32,60.02040694,614a102028af248a4b2d041f,64ce5acb97489d65b14ecc7a,64cf4a3747447ed36c81d9ec,,,,,,,,,,,,,,,,,,,,,,,,,,3,0,3,0,1,,,,,,,,,,,,,,,,,,,,,,,,,,,,,,,,,,
,,,,,,,,2023-08-06_08h24.55.851,HF_wild_card,2022.2.4,Win32,60.02040694,614a102028af248a4b2d041f,64ce5acb97489d65b14ecc7a,64cf4a3747447ed36c81d9ec,,,,,,,decisionTrl,resources/DP.BMP,resources/DB.BMP,Door1,0.430311447,-0.06402248,1,0,0,2.1207,optionRight,30,9595,5,0,0,0,0,1,,,,,,,,,,,,,,,,,,,,,,,,,,,,,,,,,,,,,,,
,,,,,,,,2023-08-06_08h24.55.851,HF_wild_card,2022.2.4,Win32,60.02040694,614a102028af248a4b2d041f,64ce5acb97489d65b14ecc7a,64cf4a3747447ed36c81d9ec,,,,,,,decisionTrl,resources/DBN.BMP,resources/DG.BMP,Door4,-0.256154748,-0.113520954,1,0,0,1.6092,optionLeft,80,9675,5,1,0,1,0,1,,,,,,,,,,,,,,,,,,,,,,,,,,,,,,,,,,,,,,,
,,,,,,,,2023-08-06_08h24.55.851,HF_wild_card,2022.2.4,Win32,60.02040694,614a102028af248a4b2d041f,64ce5acb97489d65b14ecc7a,64cf4a3747447ed36c81d9ec,,,,,,,ctch,resources/DP.BMP,resources/DG.BMP,Door3,0.465481578,0.042790081,1,0,0,1.0445,optionRight,70,9745,5,2,0,2,0,1,,,,,,,,,,,,,,,,,,,,,,,,,,,,,,,,,,,,,,,
,,,,,,,,2023-08-06_08h24.55.851,HF_wild_card,2022.2.4,Win32,60.02040694,614a102028af248a4b2d041f,64ce5acb97489d65b14ecc7a,64cf4a3747447ed36c81d9ec,,,,,,,ctch,resources/DBN.BMP,resources/DB.BMP,Door4,-0.291324665,0.003712376,1,0,0,0.9172,optionLeft,60,9805,5,3,0,3,0,1,,,,,,,,,,,,,,,,,,,,,,,,,,,,,,,,,,,,,,,
,,,,,,,,2023-08-06_08h24.55.851,HF_wild_card,2022.2.4,Win32,60.02040694,614a102028af248a4b2d041f,64ce5acb97489d65b14ecc7a,64cf4a3747447ed36c81d9ec,,,,,,,sngl,resources/DBN.BMP,resources/Empty.png,Door4,-0.228800265,0.001107183,1,0,0,1.041,optionLeft,80,9885,5,4,0,4,0,1,,,,,,,,,,,,,,,,,,,,,,,,,,,,,,,,,,,,,,,
,,,,,,,,2023-08-06_08h24.55.851,HF_wild_card,2022.2.4,Win32,60.02040694,614a102028af248a4b2d041f,64ce5acb97489d65b14ecc7a,64cf4a3747447ed36c81d9ec,,,,,,,decisionTrl,resources/DR.BMP,resources/DBN.BMP,Door4,0.375602481,0.07144716,1,0,0,1.0692,optionRight,80,9965,5,5,0,5,0,1,,,,,,,,,,,,,,,,,,,,,,,,,,,,,,,,,,,,,,,
,,,,,,,,2023-08-06_08h24.55.851,HF_wild_card,2022.2.4,Win32,60.02040694,614a102028af248a4b2d041f,64ce5acb97489d65b14ecc7a,64cf4a3747447ed36c81d9ec,,,,,,,ctch,resources/DP.BMP,resources/DG.BMP,Door3,0.28702623,0.059723831,1,0,0,1.0962,optionRight,70,10035,5,6,0,6,0,1,,,,,,,,,,,,,,,,,,,,,,,,,,,,,,,,,,,,,,,
,,,,,,,,2023-08-06_08h24.55.851,HF_wild_card,2022.2.4,Win32,60.02040694,614a102028af248a4b2d041f,64ce5acb97489d65b14ecc7a,64cf4a3747447ed36c81d9ec,,,,,,,sngl,resources/DP.BMP,resources/Empty.png,Door2,-0.133711069,-0.008010954,1,0,0,1.2652,optionLeft,40,10075,5,7,0,7,0,1,,,,,,,,,,,,,,,,,,,,,,,,,,,,,,,,,,,,,,,
,,,,,,,,2023-08-06_08h24.55.851,HF_wild_card,2022.2.4,Win32,60.02040694,614a102028af248a4b2d041f,64ce5acb97489d65b14ecc7a,64cf4a3747447ed36c81d9ec,,,,,,,decisionTrl,resources/DB.BMP,resources/DP.BMP,Door2,-0.003451814,0.008922724,1,0,0,0.632,optionRight,20,10095,5,8,0,8,0,1,,,,,,,,,,,,,,,,,,,,,,,,,,,,,,,,,,,,,,,
,,,,,,,,2023-08-06_08h24.55.851,HF_wild_card,2022.2.4,Win32,60.02040694,614a102028af248a4b2d041f,64ce5acb97489d65b14ecc7a,64cf4a3747447ed36c81d9ec,,,,,,,decisionTrl,resources/DBN.BMP,resources/DR.BMP,Door4,-0.253549556,-0.04708873,1,0,0,1.344,optionLeft,80,10175,5,9,0,9,0,1,,,,,,,,,,,,,,,,,,,,,,,,,,,,,,,,,,,,,,,
,,,,,,,,2023-08-06_08h24.55.851,HF_wild_card,2022.2.4,Win32,60.02040694,614a102028af248a4b2d041f,64ce5acb97489d65b14ecc7a,64cf4a3747447ed36c81d9ec,,,,,,,sngl,resources/Empty.png,resources/DG.BMP,Door3,0.413377733,0.05451341,1,0,0,1.0605,optionRight,70,10245,5,10,0,10,0,1,,,,,,,,,,,,,,,,,,,,,,,,,,,,,,,,,,,,,,,
,,,,,,,,2023-08-06_08h24.55.851,HF_wild_card,2022.2.4,Win32,60.02040694,614a102028af248a4b2d041f,64ce5acb97489d65b14ecc7a,64cf4a3747447ed36c81d9ec,,,,,,,decisionTrl,resources/DG.BMP,resources/DBN.BMP,Door3,-0.202748414,-0.013221338,1,0,0,2.993,optionLeft,70,10315,5,11,0,11,0,1,,,,,,,,,,,,,,,,,,,,,,,,,,,,,,,,,,,,,,,
,,,,,,,,2023-08-06_08h24.55.851,HF_wild_card,2022.2.4,Win32,60.02040694,614a102028af248a4b2d041f,64ce5acb97489d65b14ecc7a,64cf4a3747447ed36c81d9ec,,,,,,,sngl,resources/DB.BMP,resources/Empty.png,Door1,-0.217076935,-0.062719884,1,0,0,1.0829,optionLeft,30,10345,5,12,0,12,0,1,,,,,,,,,,,,,,,,,,,,,,,,,,,,,,,,,,,,,,,
,,,,,,,,2023-08-06_08h24.55.851,HF_wild_card,2022.2.4,Win32,60.02040694,614a102028af248a4b2d041f,64ce5acb97489d65b14ecc7a,64cf4a3747447ed36c81d9ec,,,,,,,sngl,resources/DR.BMP,resources/Empty.png,WildCard_Ex,-0.17148625,-0.008010954,1,0,0,1.0272,optionLeft,55,10400,5,13,0,13,0,1,,,,,,,,,,,,,,,,,,,,,,,,,,,,,,,,,,,,,,,
,,,,,,,,2023-08-06_08h24.55.851,HF_wild_card,2022.2.4,Win32,60.02040694,614a102028af248a4b2d041f,64ce5acb97489d65b14ecc7a,64cf4a3747447ed36c81d9ec,,,,,,,sngl,resources/DG.BMP,resources/Empty.png,Door3,-0.248339171,-0.091376856,1,0,0,1.1053,optionLeft,70,10470,5,14,0,14,0,1,,,,,,,,,,,,,,,,,,,,,,,,,,,,,,,,,,,,,,,
,,,,,,,,2023-08-06_08h24.55.851,HF_wild_card,2022.2.4,Win32,60.02040694,614a102028af248a4b2d041f,64ce5acb97489d65b14ecc7a,64cf4a3747447ed36c81d9ec,,,,,,,decisionTrl,resources/DG.BMP,resources/DBN.BMP,Door4,0.316985834,-0.062719884,1,0,0,1.2855,optionRight,60,10530,5,15,0,15,0,1,,,,,,,,,,,,,,,,,,,,,,,,,,,,,,,,,,,,,,,
,,,,,,,,2023-08-06_08h24.55.851,HF_wild_card,2022.2.4,Win32,60.02040694,614a102028af248a4b2d041f,64ce5acb97489d65b14ecc7a,64cf4a3747447ed36c81d9ec,,,,,,,sngl,resources/Empty.png,resources/DBN.BMP,Door4,0.250553753,-0.001498009,1,0,0,0.966,optionRight,60,10590,5,16,0,16,0,1,,,,,,,,,,,,,,,,,,,,,,,,,,,,,,,,,,,,,,,
,,,,,,,,2023-08-06_08h24.55.851,HF_wild_card,2022.2.4,Win32,60.02040694,614a102028af248a4b2d041f,64ce5acb97489d65b14ecc7a,64cf4a3747447ed36c81d9ec,,,,,,,ctch,resources/DB.BMP,resources/DBN.BMP,Door4,0.258369186,0.037579768,1,0,0,1.1363,optionRight,80,10670,5,17,0,17,0,1,,,,,,,,,,,,,,,,,,,,,,,,,,,,,,,,,,,,,,,
,,,,,,,,2023-08-06_08h24.55.851,HF_wild_card,2022.2.4,Win32,60.02040694,614a102028af248a4b2d041f,64ce5acb97489d65b14ecc7a,64cf4a3747447ed36c81d9ec,,,,,,,ctch,resources/DB.BMP,resources/DBN.BMP,Door4,0.311775449,0.015435705,1,0,0,0.9349,optionRight,80,10750,5,18,0,18,0,1,,,,,,,,,,,,,,,,,,,,,,,,,,,,,,,,,,,,,,,
,,,,,,,,2023-08-06_08h24.55.851,HF_wild_card,2022.2.4,Win32,60.02040694,614a102028af248a4b2d041f,64ce5acb97489d65b14ecc7a,64cf4a3747447ed36c81d9ec,,,,,,,sngl,resources/DR.BMP,resources/Empty.png,WildCard_Ex,-0.258759869,-0.067930197,1,0,0,1.1718,optionLeft,45,10795,5,19,0,19,0,1,,,,,,,,,,,,,,,,,,,,,,,,,,,,,,,,,,,,,,,
,,,,,,,,2023-08-06_08h24.55.851,HF_wild_card,2022.2.4,Win32,60.02040694,614a102028af248a4b2d041f,64ce5acb97489d65b14ecc7a,64cf4a3747447ed36c81d9ec,,,,,,,decisionTrl,resources/DB.BMP,resources/DR.BMP,WildCard_Ex,0.434219128,-0.073140581,1,0,0,2.3222,optionRight,55,10850,5,20,0,20,0,1,,,,,,,,,,,,,,,,,,,,,,,,,,,,,,,,,,,,,,,
,,,,,,,,2023-08-06_08h24.55.851,HF_wild_card,2022.2.4,Win32,60.02040694,614a102028af248a4b2d041f,64ce5acb97489d65b14ecc7a,64cf4a3747447ed36c81d9ec,,,,,,,decisionTrl,resources/DP.BMP,resources/DB.BMP,Door1,0.39904914,-0.039273225,1,0,0,1.6697,optionRight,30,10880,5,21,0,21,0,1,,,,,,,,,,,,,,,,,,,,,,,,,,,,,,,,,,,,,,,
,,,,,,,,2023-08-06_08h24.55.851,HF_wild_card,2022.2.4,Win32,60.02040694,614a102028af248a4b2d041f,64ce5acb97489d65b14ecc7a,64cf4a3747447ed36c81d9ec,,,,,,,ctch,resources/DG.BMP,resources/DP.BMP,Door3,-0.262667693,-0.066627601,1,0,0,1.1686,optionLeft,70,10950,5,22,0,22,0,1,,,,,,,,,,,,,,,,,,,,,,,,,,,,,,,,,,,,,,,
,,,,,,,,2023-08-06_08h24.55.851,HF_wild_card,2022.2.4,Win32,60.02040694,614a102028af248a4b2d041f,64ce5acb97489d65b14ecc7a,64cf4a3747447ed36c81d9ec,,,,,,,decisionTrl,resources/DP.BMP,resources/DB.BMP,Door1,0.366484415,-0.015826566,1,0,0,3.1936,optionRight,30,10980,5,23,0,23,0,1,,,,,,,,,,,,,,,,,,,,,,,,,,,,,,,,,,,,,,,
,,,,,,,,2023-08-06_08h24.55.851,HF_wild_card,2022.2.4,Win32,60.02040694,614a102028af248a4b2d041f,64ce5acb97489d65b14ecc7a,64cf4a3747447ed36c81d9ec,,,,,,,decisionTrl,resources/DB.BMP,resources/DP.BMP,Door1,0.005666324,0.012830513,1,0,0,0.4952,optionLeft,30,11010,5,24,0,24,0,1,,,,,,,,,,,,,,,,,,,,,,,,,,,,,,,,,,,,,,,
,,,,,,,,2023-08-06_08h24.55.851,HF_wild_card,2022.2.4,Win32,60.02040694,614a102028af248a4b2d041f,64ce5acb97489d65b14ecc7a,64cf4a3747447ed36c81d9ec,,,,,,,sngl,resources/Empty.png,resources/DP.BMP,Door2,0.249251049,0.023251246,1,0,0,0.9727,optionRight,20,11030,5,25,0,25,0,1,,,,,,,,,,,,,,,,,,,,,,,,,,,,,,,,,,,,,,,
,,,,,,,,2023-08-06_08h24.55.851,HF_wild_card,2022.2.4,Win32,60.02040694,614a102028af248a4b2d041f,64ce5acb97489d65b14ecc7a,64cf4a3747447ed36c81d9ec,,,,,,,decisionTrl,resources/DP.BMP,resources/DR.BMP,WildCard_Ex,0.320893658,0.050605693,1,0,0,1.5626,optionRight,45,11075,5,26,0,26,0,1,,,,,,,,,,,,,,,,,,,,,,,,,,,,,,,,,,,,,,,
,,,,,,,,2023-08-06_08h24.55.851,HF_wild_card,2022.2.4,Win32,60.02040694,614a102028af248a4b2d041f,64ce5acb97489d65b14ecc7a,64cf4a3747447ed36c81d9ec,,,,,,,decisionTrl,resources/DB.BMP,resources/DP.BMP,Door1,-0.266575445,-0.080956123,1,0,0,1.9023,optionLeft,30,11105,5,27,0,27,0,1,,,,,,,,,,,,,,,,,,,,,,,,,,,,,,,,,,,,,,,
,,,,,,,,2023-08-06_08h24.55.851,HF_wild_card,2022.2.4,Win32,60.02040694,614a102028af248a4b2d041f,64ce5acb97489d65b14ecc7a,64cf4a3747447ed36c81d9ec,,,,,,,decisionTrl,resources/DG.BMP,resources/DR.BMP,Door3,-0.261365061,-0.054904271,1,0,0,2.1014,optionLeft,70,11175,5,28,0,28,0,1,,,,,,,,,,,,,,,,,,,,,,,,,,,,,,,,,,,,,,,
,,,,,,,,2023-08-06_08h24.55.851,HF_wild_card,2022.2.4,Win32,60.02040694,614a102028af248a4b2d041f,64ce5acb97489d65b14ecc7a,64cf4a3747447ed36c81d9ec,,,,,,,decisionTrl,resources/DP.BMP,resources/DB.BMP,Door1,0.477204908,-0.09007426,1,0,0,1.2143,optionRight,30,11205,5,29,0,29,0,1,,,,,,,,,,,,,,,,,,,,,,,,,,,,,,,,,,,,,,,
,,,,,,,,2023-08-06_08h24.55.851,HF_wild_card,2022.2.4,Win32,60.02040694,614a102028af248a4b2d041f,64ce5acb97489d65b14ecc7a,64cf4a3747447ed36c81d9ec,,,,,,,decisionTrl,resources/DBN.BMP,resources/DG.BMP,Door3,0.255763994,0.007620093,1,0,0,1.7928,optionRight,70,11275,5,30,0,30,0,1,,,,,,,,,,,,,,,,,,,,,,,,,,,,,,,,,,,,,,,
,,,,,,,,2023-08-06_08h24.55.851,HF_wild_card,2022.2.4,Win32,60.02040694,614a102028af248a4b2d041f,64ce5acb97489d65b14ecc7a,64cf4a3747447ed36c81d9ec,,,,,,,decisionTrl,resources/DR.BMP,resources/DP.BMP,WildCard_Ex,-0.267878077,0.003712376,1,0,0,3.1072,optionLeft,45,11320,5,31,0,31,0,1,,,,,,,,,,,,,,,,,,,,,,,,,,,,,,,,,,,,,,,
,,,,,,,,2023-08-06_08h24.55.851,HF_wild_card,2022.2.4,Win32,60.02040694,614a102028af248a4b2d041f,64ce5acb97489d65b14ecc7a,64cf4a3747447ed36c81d9ec,,,,,,,sngl,resources/Empty.png,resources/DR.BMP,WildCard_Ex,0.202357732,-0.026247264,1,0,0,1.8,optionRight,55,11375,5,32,0,32,0,1,,,,,,,,,,,,,,,,,,,,,,,,,,,,,,,,,,,,,,,
,,,,,,,,2023-08-06_08h24.55.851,HF_wild_card,2022.2.4,Win32,60.02040694,614a102028af248a4b2d041f,64ce5acb97489d65b14ecc7a,64cf4a3747447ed36c81d9ec,,,,,,,decisionTrl,resources/DG.BMP,resources/DBN.BMP,Door4,0.333919548,-0.011918742,1,0,0,1.3841,optionRight,60,11435,5,33,0,33,0,1,,,,,,,,,,,,,,,,,,,,,,,,,,,,,,,,,,,,,,,
,,,,,,,,2023-08-06_08h24.55.851,HF_wild_card,2022.2.4,Win32,60.02040694,614a102028af248a4b2d041f,64ce5acb97489d65b14ecc7a,64cf4a3747447ed36c81d9ec,,,,,,,ctch,resources/DBN.BMP,resources/DB.BMP,Door4,-0.290022069,-0.083561315,1,0,0,1.0818,optionLeft,60,11495,5,34,0,34,0,1,,,,,,,,,,,,,,,,,,,,,,,,,,,,,,,,,,,,,,,
,,,,,,,,2023-08-06_08h24.55.851,HF_wild_card,2022.2.4,Win32,60.02040694,614a102028af248a4b2d041f,64ce5acb97489d65b14ecc7a,64cf4a3747447ed36c81d9ec,,,,,,,decisionTrl,resources/DB.BMP,resources/DP.BMP,Door1,-0.357756924,0.010225321,1,0,0,1.5643,optionLeft,30,11525,5,35,0,35,0,1,,,,,,,,,,,,,,,,,,,,,,,,,,,,,,,,,,,,,,,
,,,,,,,,2023-08-06_08h24.55.851,HF_wild_card,2022.2.4,Win32,60.02040694,614a102028af248a4b2d041f,64ce5acb97489d65b14ecc7a,64cf4a3747447ed36c81d9ec,,,,,,,decisionTrl,resources/DR.BMP,resources/DG.BMP,Door3,0.298749559,-0.022339475,1,0,0,1.6966,optionRight,70,11595,5,36,0,36,0,1,,,,,,,,,,,,,,,,,,,,,,,,,,,,,,,,,,,,,,,
,,,,,,,,2023-08-06_08h24.55.851,HF_wild_card,2022.2.4,Win32,60.02040694,614a102028af248a4b2d041f,64ce5acb97489d65b14ecc7a,64cf4a3747447ed36c81d9ec,,,,,,,sngl,resources/Empty.png,resources/DB.BMP,Door1,0.234922528,0.042790081,1,0,0,0.9427,optionRight,30,11625,5,37,0,37,0,1,,,,,,,,,,,,,,,,,,,,,,,,,,,,,,,,,,,,,,,
,,,,,,,,2023-08-06_08h24.55.851,HF_wild_card,2022.2.4,Win32,60.02040694,614a102028af248a4b2d041f,64ce5acb97489d65b14ecc7a,64cf4a3747447ed36c81d9ec,,,,,,,decisionTrl,resources/DG.BMP,resources/DBN.BMP,Door3,-0.280903967,-0.026247264,1,0,0,2.5141,optionLeft,70,11695,5,38,0,38,0,1,,,,,,,,,,,,,,,,,,,,,,,,,,,,,,,,,,,,,,,
,,,,,,,,2023-08-06_08h24.55.851,HF_wild_card,2022.2.4,Win32,60.02040694,614a102028af248a4b2d041f,64ce5acb97489d65b14ecc7a,64cf4a3747447ed36c81d9ec,,,,,,,decisionTrl,resources/DBN.BMP,resources/DG.BMP,Door4,-0.243128787,-0.04708873,1,0,0,1.3128,optionLeft,80,11775,5,39,0,39,0,1,,,,,,,,,,,,,,,,,,,,,,,,,,,,,,,,,,,,,,,
,,,,,,,,2023-08-06_08h24.55.851,HF_wild_card,2022.2.4,Win32,60.02040694,614a102028af248a4b2d041f,64ce5acb97489d65b14ecc7a,64cf4a3747447ed36c81d9ec,,,,,,,decisionTrl,resources/DR.BMP,resources/DB.BMP,WildCard_Ex,-0.224892512,-0.087469139,1,0,0,1.279,optionLeft,55,11830,5,40,0,40,0,1,,,,,,,,,,,,,,,,,,,,,,,,,,,,,,,,,,,,,,,
,,,,,,,,2023-08-06_08h24.55.851,HF_wild_card,2022.2.4,Win32,60.02040694,614a102028af248a4b2d041f,64ce5acb97489d65b14ecc7a,64cf4a3747447ed36c81d9ec,,,,,,,decisionTrl,resources/DBN.BMP,resources/DG.BMP,Door4,-0.304350626,-0.070535389,1,0,0,1.1544,optionLeft,60,11890,5,41,0,41,0,1,,,,,,,,,,,,,,,,,,,,,,,,,,,,,,,,,,,,,,,
,,,,,,,,2023-08-06_08h24.55.851,HF_wild_card,2022.2.4,Win32,60.02040694,614a102028af248a4b2d041f,64ce5acb97489d65b14ecc7a,64cf4a3747447ed36c81d9ec,,,,,,,ctch,resources/DG.BMP,resources/DP.BMP,Door3,-0.283509159,-0.041878346,1,0,0,0.9987,optionLeft,70,11960,5,42,0,42,0,1,,,,,,,,,,,,,,,,,,,,,,,,,,,,,,,,,,,,,,,
,,,,,,,,2023-08-06_08h24.55.851,HF_wild_card,2022.2.4,Win32,60.02040694,614a102028af248a4b2d041f,64ce5acb97489d65b14ecc7a,64cf4a3747447ed36c81d9ec,,,,,,,sngl,resources/Empty.png,resources/DR.BMP,WildCard_Ex,0.224501902,0.014133109,1,0,0,0.9125,optionRight,45,12005,5,43,0,43,0,1,,,,,,,,,,,,,,,,,,,,,,,,,,,,,,,,,,,,,,,
,,,,,,,,2023-08-06_08h24.55.851,HF_wild_card,2022.2.4,Win32,60.02040694,614a102028af248a4b2d041f,64ce5acb97489d65b14ecc7a,64cf4a3747447ed36c81d9ec,,,,,,,,,,,,,,,,,,,,,,,,,,4,0,4,0,1,,,,,,,,,,,,,,,,,,,,,,,,,,,,,,,,,,
,,,,,,,,2023-08-06_08h24.55.851,HF_wild_card,2022.2.4,Win32,60.02040694,614a102028af248a4b2d041f,64ce5acb97489d65b14ecc7a,64cf4a3747447ed36c81d9ec,,,,,,,decisionTrl,resources/DG.BMP,resources/DBN.BMP,Door4,0.236225231,-0.054904271,1,0,0,1.2861,optionRight,80,12085,6,0,0,0,0,1,,,,,,,,,,,,,,,,,,,,,,,,,,,,,,,,,,,,,,,
,,,,,,,,2023-08-06_08h24.55.851,HF_wild_card,2022.2.4,Win32,60.02040694,614a102028af248a4b2d041f,64ce5acb97489d65b14ecc7a,64cf4a3747447ed36c81d9ec,,,,,,,decisionTrl,resources/DB.BMP,resources/DP.BMP,Door1,-0.210563991,-0.086166543,1,0,0,5.7223,optionLeft,30,12115,6,1,0,1,0,1,,,,,,,,,,,,,,,,,,,,,,,,,,,,,,,,,,,,,,,
,,,,,,,,2023-08-06_08h24.55.851,HF_wild_card,2022.2.4,Win32,60.02040694,614a102028af248a4b2d041f,64ce5acb97489d65b14ecc7a,64cf4a3747447ed36c81d9ec,,,,,,,sngl,resources/Empty.png,resources/DR.BMP,WildCard_Ex,0.449850281,-0.086166543,1,0,0,0.9029,optionRight,45,12160,6,2,0,2,0,1,,,,,,,,,,,,,,,,,,,,,,,,,,,,,,,,,,,,,,,
,,,,,,,,2023-08-06_08h24.55.851,HF_wild_card,2022.2.4,Win32,60.02040694,614a102028af248a4b2d041f,64ce5acb97489d65b14ecc7a,64cf4a3747447ed36c81d9ec,,,,,,,decisionTrl,resources/DP.BMP,resources/DB.BMP,Door1,0.46027105,0.006317496,1,0,0,3.6596,optionRight,30,12190,6,3,0,3,0,1,,,,,,,,,,,,,,,,,,,,,,,,,,,,,,,,,,,,,,,
,,,,,,,,2023-08-06_08h24.55.851,HF_wild_card,2022.2.4,Win32,60.02040694,614a102028af248a4b2d041f,64ce5acb97489d65b14ecc7a,64cf4a3747447ed36c81d9ec,,,,,,,decisionTrl,resources/DR.BMP,resources/DP.BMP,WildCard_Ex,-0.290022069,-0.113520954,1,0,0,1.4156,optionLeft,55,12245,6,4,0,4,0,1,,,,,,,,,,,,,,,,,,,,,,,,,,,,,,,,,,,,,,,
,,,,,,,,2023-08-06_08h24.55.851,HF_wild_card,2022.2.4,Win32,60.02040694,614a102028af248a4b2d041f,64ce5acb97489d65b14ecc7a,64cf4a3747447ed36c81d9ec,,,,,,,decisionTrl,resources/DBN.BMP,resources/DG.BMP,Door3,0.274000412,-0.049693923,1,0,0,1.5971,optionRight,70,12315,6,5,0,5,0,1,,,,,,,,,,,,,,,,,,,,,,,,,,,,,,,,,,,,,,,
,,,,,,,,2023-08-06_08h24.55.851,HF_wild_card,2022.2.4,Win32,60.02040694,614a102028af248a4b2d041f,64ce5acb97489d65b14ecc7a,64cf4a3747447ed36c81d9ec,,,,,,,sngl,resources/DR.BMP,resources/Empty.png,WildCard_Ex,-0.214471743,-0.044483538,1,0,0,1.0654,optionLeft,45,12360,6,6,0,6,0,1,,,,,,,,,,,,,,,,,,,,,,,,,,,,,,,,,,,,,,,
,,,,,,,,2023-08-06_08h24.55.851,HF_wild_card,2022.2.4,Win32,60.02040694,614a102028af248a4b2d041f,64ce5acb97489d65b14ecc7a,64cf4a3747447ed36c81d9ec,,,,,,,decisionTrl,resources/DR.BMP,resources/DG.BMP,Door3,0.276605604,-0.013221338,1,0,0,1.8316,optionRight,70,12430,6,7,0,7,0,1,,,,,,,,,,,,,,,,,,,,,,,,,,,,,,,,,,,,,,,
,,,,,,,,2023-08-06_08h24.55.851,HF_wild_card,2022.2.4,Win32,60.02040694,614a102028af248a4b2d041f,64ce5acb97489d65b14ecc7a,64cf4a3747447ed36c81d9ec,,,,,,,decisionTrl,resources/DB.BMP,resources/DP.BMP,Door1,-0.27308839,-0.165624657,1,0,0,2.0435,optionLeft,30,12460,6,8,0,8,0,1,,,,,,,,,,,,,,,,,,,,,,,,,,,,,,,,,,,,,,,
,,,,,,,,2023-08-06_08h24.55.851,HF_wild_card,2022.2.4,Win32,60.02040694,614a102028af248a4b2d041f,64ce5acb97489d65b14ecc7a,64cf4a3747447ed36c81d9ec,,,,,,,decisionTrl,resources/DP.BMP,resources/DR.BMP,WildCard_Ex,0.276605604,-0.103100185,1,0,0,2.7033,optionRight,55,12515,6,9,0,9,0,1,,,,,,,,,,,,,,,,,,,,,,,,,,,,,,,,,,,,,,,
,,,,,,,,2023-08-06_08h24.55.851,HF_wild_card,2022.2.4,Win32,60.02040694,614a102028af248a4b2d041f,64ce5acb97489d65b14ecc7a,64cf4a3747447ed36c81d9ec,,,,,,,decisionTrl,resources/DBN.BMP,resources/DG.BMP,Door4,-0.346033595,-0.10961313,1,0,0,1.7825,optionLeft,60,12575,6,10,0,10,0,1,,,,,,,,,,,,,,,,,,,,,,,,,,,,,,,,,,,,,,,
,,,,,,,,2023-08-06_08h24.55.851,HF_wild_card,2022.2.4,Win32,60.02040694,614a102028af248a4b2d041f,64ce5acb97489d65b14ecc7a,64cf4a3747447ed36c81d9ec,,,,,,,sngl,resources/Empty.png,resources/DR.BMP,WildCard_Ex,0.270092516,0.058421234,1,0,0,1.0427,optionRight,55,12630,6,11,0,11,0,1,,,,,,,,,,,,,,,,,,,,,,,,,,,,,,,,,,,,,,,
,,,,,,,,2023-08-06_08h24.55.851,HF_wild_card,2022.2.4,Win32,60.02040694,614a102028af248a4b2d041f,64ce5acb97489d65b14ecc7a,64cf4a3747447ed36c81d9ec,,,,,,,decisionTrl,resources/DG.BMP,resources/DBN.BMP,Door3,-0.231405457,-0.031457613,1,0,0,1.2869,optionLeft,70,12700,6,12,0,12,0,1,,,,,,,,,,,,,,,,,,,,,,,,,,,,,,,,,,,,,,,
,,,,,,,,2023-08-06_08h24.55.851,HF_wild_card,2022.2.4,Win32,60.02040694,614a102028af248a4b2d041f,64ce5acb97489d65b14ecc7a,64cf4a3747447ed36c81d9ec,,,,,,,decisionTrl,resources/DR.BMP,resources/DBN.BMP,Door4,0.29744707,0.020646054,1,0,0,1.2392,optionRight,60,12760,6,13,0,13,0,1,,,,,,,,,,,,,,,,,,,,,,,,,,,,,,,,,,,,,,,
,,,,,,,,2023-08-06_08h24.55.851,HF_wild_card,2022.2.4,Win32,60.02040694,614a102028af248a4b2d041f,64ce5acb97489d65b14ecc7a,64cf4a3747447ed36c81d9ec,,,,,,,ctch,resources/DG.BMP,resources/DP.BMP,Door3,-0.383808704,-0.034062805,1,0,0,1.1504,optionLeft,70,12830,6,14,0,14,0,1,,,,,,,,,,,,,,,,,,,,,,,,,,,,,,,,,,,,,,,
,,,,,,,,2023-08-06_08h24.55.851,HF_wild_card,2022.2.4,Win32,60.02040694,614a102028af248a4b2d041f,64ce5acb97489d65b14ecc7a,64cf4a3747447ed36c81d9ec,,,,,,,ctch,resources/DP.BMP,resources/DG.BMP,Door3,0.395141458,-0.050996555,1,0,0,1.2436,optionRight,70,12900,6,15,0,15,0,1,,,,,,,,,,,,,,,,,,,,,,,,,,,,,,,,,,,,,,,
,,,,,,,,2023-08-06_08h24.55.851,HF_wild_card,2022.2.4,Win32,60.02040694,614a102028af248a4b2d041f,64ce5acb97489d65b14ecc7a,64cf4a3747447ed36c81d9ec,,,,,,,sngl,resources/DBN.BMP,resources/Empty.png,Door4,-0.282206528,-0.071837985,1,0,0,1.0108,optionLeft,60,12960,6,16,0,16,0,1,,,,,,,,,,,,,,,,,,,,,,,,,,,,,,,,,,,,,,,
,,,,,,,,2023-08-06_08h24.55.851,HF_wild_card,2022.2.4,Win32,60.02040694,614a102028af248a4b2d041f,64ce5acb97489d65b14ecc7a,64cf4a3747447ed36c81d9ec,,,,,,,sngl,resources/DR.BMP,resources/Empty.png,WildCard_Ex,-0.237918402,-0.067930197,1,0,0,0.9748,optionLeft,55,13015,6,17,0,17,0,1,,,,,,,,,,,,,,,,,,,,,,,,,,,,,,,,,,,,,,,
,,,,,,,,2023-08-06_08h24.55.851,HF_wild_card,2022.2.4,Win32,60.02040694,614a102028af248a4b2d041f,64ce5acb97489d65b14ecc7a,64cf4a3747447ed36c81d9ec,,,,,,,sngl,resources/Empty.png,resources/DB.BMP,Door1,0.258369186,-0.062719884,1,0,0,1.267,optionRight,30,13045,6,18,0,18,0,1,,,,,,,,,,,,,,,,,,,,,,,,,,,,,,,,,,,,,,,
,,,,,,,,2023-08-06_08h24.55.851,HF_wild_card,2022.2.4,Win32,60.02040694,614a102028af248a4b2d041f,64ce5acb97489d65b14ecc7a,64cf4a3747447ed36c81d9ec,,,,,,,decisionTrl,resources/DBN.BMP,resources/DG.BMP,Door3,0.346945437,0.006317496,1,0,0,1.3357,optionRight,70,13115,6,19,0,19,0,1,,,,,,,,,,,,,,,,,,,,,,,,,,,,,,,,,,,,,,,
,,,,,,,,2023-08-06_08h24.55.851,HF_wild_card,2022.2.4,Win32,60.02040694,614a102028af248a4b2d041f,64ce5acb97489d65b14ecc7a,64cf4a3747447ed36c81d9ec,,,,,,,decisionTrl,resources/DBN.BMP,resources/DR.BMP,Door4,-0.357756924,-0.074443213,1,0,0,1.326,optionLeft,60,13175,6,20,0,20,0,1,,,,,,,,,,,,,,,,,,,,,,,,,,,,,,,,,,,,,,,
,,,,,,,,2023-08-06_08h24.55.851,HF_wild_card,2022.2.4,Win32,60.02040694,614a102028af248a4b2d041f,64ce5acb97489d65b14ecc7a,64cf4a3747447ed36c81d9ec,,,,,,,ctch,resources/DB.BMP,resources/DBN.BMP,Door4,0.310472889,0.010225321,1,0,0,1.787,optionRight,60,13235,6,21,0,21,0,1,,,,,,,,,,,,,,,,,,,,,,,,,,,,,,,,,,,,,,,
,,,,,,,,2023-08-06_08h24.55.851,HF_wild_card,2022.2.4,Win32,60.02040694,614a102028af248a4b2d041f,64ce5acb97489d65b14ecc7a,64cf4a3747447ed36c81d9ec,,,,,,,sngl,resources/DG.BMP,resources/Empty.png,Door3,-0.261365061,-0.067930197,1,0,0,0.9385,optionLeft,70,13305,6,22,0,22,0,1,,,,,,,,,,,,,,,,,,,,,,,,,,,,,,,,,,,,,,,
,,,,,,,,2023-08-06_08h24.55.851,HF_wild_card,2022.2.4,Win32,60.02040694,614a102028af248a4b2d041f,64ce5acb97489d65b14ecc7a,64cf4a3747447ed36c81d9ec,,,,,,,ctch,resources/DBN.BMP,resources/DB.BMP,Door4,-0.296535085,-0.048391327,1,0,0,1.2537,optionLeft,80,13385,6,23,0,23,0,1,,,,,,,,,,,,,,,,,,,,,,,,,,,,,,,,,,,,,,,
,,,,,,,,2023-08-06_08h24.55.851,HF_wild_card,2022.2.4,Win32,60.02040694,614a102028af248a4b2d041f,64ce5acb97489d65b14ecc7a,64cf4a3747447ed36c81d9ec,,,,,,,sngl,resources/Empty.png,resources/DBN.BMP,Door4,0.37299736,-0.062719884,1,0,0,0.9512,optionRight,80,13465,6,24,0,24,0,1,,,,,,,,,,,,,,,,,,,,,,,,,,,,,,,,,,,,,,,
,,,,,,,,2023-08-06_08h24.55.851,HF_wild_card,2022.2.4,Win32,60.02040694,614a102028af248a4b2d041f,64ce5acb97489d65b14ecc7a,64cf4a3747447ed36c81d9ec,,,,,,,decisionTrl,resources/DP.BMP,resources/DB.BMP,Door1,0.375602481,0.00240978,1,0,0,4.2006,optionRight,30,13495,6,25,0,25,0,1,,,,,,,,,,,,,,,,,,,,,,,,,,,,,,,,,,,,,,,
,,,,,,,,2023-08-06_08h24.55.851,HF_wild_card,2022.2.4,Win32,60.02040694,614a102028af248a4b2d041f,64ce5acb97489d65b14ecc7a,64cf4a3747447ed36c81d9ec,,,,,,,decisionTrl,resources/DB.BMP,resources/DP.BMP,Door1,-0.260062501,-0.088771735,1,0,0,1.6871,optionLeft,30,13525,6,26,0,26,0,1,,,,,,,,,,,,,,,,,,,,,,,,,,,,,,,,,,,,,,,
,,,,,,,,2023-08-06_08h24.55.851,HF_wild_card,2022.2.4,Win32,60.02040694,614a102028af248a4b2d041f,64ce5acb97489d65b14ecc7a,64cf4a3747447ed36c81d9ec,,,,,,,decisionTrl,resources/DP.BMP,resources/DB.BMP,Door1,0.356063646,-0.036667997,1,0,0,1.286,optionRight,30,13555,6,27,0,27,0,1,,,,,,,,,,,,,,,,,,,,,,,,,,,,,,,,,,,,,,,
,,,,,,,,2023-08-06_08h24.55.851,HF_wild_card,2022.2.4,Win32,60.02040694,614a102028af248a4b2d041f,64ce5acb97489d65b14ecc7a,64cf4a3747447ed36c81d9ec,,,,,,,decisionTrl,resources/DG.BMP,resources/DBN.BMP,Door3,-0.278298775,-0.071837985,1,0,0,1.7863,optionLeft,70,13625,6,28,0,28,0,1,,,,,,,,,,,,,,,,,,,,,,,,,,,,,,,,,,,,,,,
,,,,,,,,2023-08-06_08h24.55.851,HF_wild_card,2022.2.4,Win32,60.02040694,614a102028af248a4b2d041f,64ce5acb97489d65b14ecc7a,64cf4a3747447ed36c81d9ec,,,,,,,decisionTrl,resources/DG.BMP,resources/DR.BMP,Door3,-0.288719544,-0.079653526,1,0,0,3.3194,optionLeft,70,13695,6,29,0,29,0,1,,,,,,,,,,,,,,,,,,,,,,,,,,,,,,,,,,,,,,,
,,,,,,,,2023-08-06_08h24.55.851,HF_wild_card,2022.2.4,Win32,60.02040694,614a102028af248a4b2d041f,64ce5acb97489d65b14ecc7a,64cf4a3747447ed36c81d9ec,,,,,,,ctch,resources/DB.BMP,resources/DBN.BMP,Door4,0.263579571,-0.018431687,1,0,0,1.1584,optionRight,80,13775,6,30,0,30,0,1,,,,,,,,,,,,,,,,,,,,,,,,,,,,,,,,,,,,,,,
,,,,,,,,2023-08-06_08h24.55.851,HF_wild_card,2022.2.4,Win32,60.02040694,614a102028af248a4b2d041f,64ce5acb97489d65b14ecc7a,64cf4a3747447ed36c81d9ec,,,,,,,decisionTrl,resources/DB.BMP,resources/DP.BMP,Door1,-0.327797285,-0.083561315,1,0,0,1.6314,optionLeft,30,13805,6,31,0,31,0,1,,,,,,,,,,,,,,,,,,,,,,,,,,,,,,,,,,,,,,,
,,,,,,,,2023-08-06_08h24.55.851,HF_wild_card,2022.2.4,Win32,60.02040694,614a102028af248a4b2d041f,64ce5acb97489d65b14ecc7a,64cf4a3747447ed36c81d9ec,,,,,,,sngl,resources/DB.BMP,resources/Empty.png,Door1,-0.263970253,-0.069232793,1,0,0,0.9101,optionLeft,30,13835,6,32,0,32,0,1,,,,,,,,,,,,,,,,,,,,,,,,,,,,,,,,,,,,,,,
,,,,,,,,2023-08-06_08h24.55.851,HF_wild_card,2022.2.4,Win32,60.02040694,614a102028af248a4b2d041f,64ce5acb97489d65b14ecc7a,64cf4a3747447ed36c81d9ec,,,,,,,decisionTrl,resources/DBN.BMP,resources/DG.BMP,Door4,-0.257457308,-0.054904271,1,0,0,1.3479,optionLeft,80,13915,6,33,0,33,0,1,,,,,,,,,,,,,,,,,,,,,,,,,,,,,,,,,,,,,,,
,,,,,,,,2023-08-06_08h24.55.851,HF_wild_card,2022.2.4,Win32,60.02040694,614a102028af248a4b2d041f,64ce5acb97489d65b14ecc7a,64cf4a3747447ed36c81d9ec,,,,,,,ctch,resources/DP.BMP,resources/DG.BMP,Door3,0.358668767,-0.017129162,1,0,0,1.6397,optionRight,70,13985,6,34,0,34,0,1,,,,,,,,,,,,,,,,,,,,,,,,,,,,,,,,,,,,,,,
,,,,,,,,2023-08-06_08h24.55.851,HF_wild_card,2022.2.4,Win32,60.02040694,614a102028af248a4b2d041f,64ce5acb97489d65b14ecc7a,64cf4a3747447ed36c81d9ec,,,,,,,decisionTrl,resources/DG.BMP,resources/DBN.BMP,Door4,0.277908093,0.020646054,1,0,0,1.4408,optionRight,80,14065,6,35,0,35,0,1,,,,,,,,,,,,,,,,,,,,,,,,,,,,,,,,,,,,,,,
,,,,,,,,2023-08-06_08h24.55.851,HF_wild_card,2022.2.4,Win32,60.02040694,614a102028af248a4b2d041f,64ce5acb97489d65b14ecc7a,64cf4a3747447ed36c81d9ec,,,,,,,decisionTrl,resources/DP.BMP,resources/DB.BMP,Door1,0.327406603,-0.001498009,1,0,0,1.1821,optionRight,30,14095,6,36,0,36,0,1,,,,,,,,,,,,,,,,,,,,,,,,,,,,,,,,,,,,,,,
,,,,,,,,2023-08-06_08h24.55.851,HF_wild_card,2022.2.4,Win32,60.02040694,614a102028af248a4b2d041f,64ce5acb97489d65b14ecc7a,64cf4a3747447ed36c81d9ec,,,,,,,sngl,resources/DP.BMP,resources/Empty.png,Door2,-0.197538101,-0.00931355,1,0,0,1.0166,optionLeft,20,14115,6,37,0,37,0,1,,,,,,,,,,,,,,,,,,,,,,,,,,,,,,,,,,,,,,,
,,,,,,,,2023-08-06_08h24.55.851,HF_wild_card,2022.2.4,Win32,60.02040694,614a102028af248a4b2d041f,64ce5acb97489d65b14ecc7a,64cf4a3747447ed36c81d9ec,,,,,,,ctch,resources/DG.BMP,resources/DP.BMP,Door3,-0.157157728,-0.041878346,1,0,0,2.092,optionLeft,70,14185,6,38,0,38,0,1,,,,,,,,,,,,,,,,,,,,,,,,,,,,,,,,,,,,,,,
,,,,,,,,2023-08-06_08h24.55.851,HF_wild_card,2022.2.4,Win32,60.02040694,614a102028af248a4b2d041f,64ce5acb97489d65b14ecc7a,64cf4a3747447ed36c81d9ec,,,,,,,decisionTrl,resources/DR.BMP,resources/DB.BMP,WildCard_Ex,-0.262667693,-0.043180942,1,0,0,2.4379,optionLeft,45,14230,6,39,0,39,0,1,,,,,,,,,,,,,,,,,,,,,,,,,,,,,,,,,,,,,,,
,,,,,,,,2023-08-06_08h24.55.851,HF_wild_card,2022.2.4,Win32,60.02040694,614a102028af248a4b2d041f,64ce5acb97489d65b14ecc7a,64cf4a3747447ed36c81d9ec,,,,,,,ctch,resources/DBN.BMP,resources/DB.BMP,Door1,0.302657312,0.018040826,1,0,0,1.3653,optionRight,30,14260,6,40,0,40,0,1,,,,,,,,,,,,,,,,,,,,,,,,,,,,,,,,,,,,,,,
,,,,,,,,2023-08-06_08h24.55.851,HF_wild_card,2022.2.4,Win32,60.02040694,614a102028af248a4b2d041f,64ce5acb97489d65b14ecc7a,64cf4a3747447ed36c81d9ec,,,,,,,sngl,resources/Empty.png,resources/DP.BMP,Door2,0.37429992,-0.093982048,1,0,0,0.9052,optionRight,40,14300,6,41,0,41,0,1,,,,,,,,,,,,,,,,,,,,,,,,,,,,,,,,,,,,,,,
,,,,,,,,2023-08-06_08h24.55.851,HF_wild_card,2022.2.4,Win32,60.02040694,614a102028af248a4b2d041f,64ce5acb97489d65b14ecc7a,64cf4a3747447ed36c81d9ec,,,,,,,sngl,resources/Empty.png,resources/DG.BMP,Door3,0.319591097,-0.069232793,1,0,0,0.9889,optionRight,70,14370,6,42,0,42,0,1,,,,,,,,,,,,,,,,,,,,,,,,,,,,,,,,,,,,,,,
,,,,,,,,2023-08-06_08h24.55.851,HF_wild_card,2022.2.4,Win32,60.02040694,614a102028af248a4b2d041f,64ce5acb97489d65b14ecc7a,64cf4a3747447ed36c81d9ec,,,,,,,decisionTrl,resources/DB.BMP,resources/DR.BMP,WildCard_Ex,0.469389116,-0.056206868,1,0,0,1.4674,optionRight,55,14425,6,43,0,43,0,1,,,,,,,,,,,,,,,,,,,,,,,,,,,,,,,,,,,,,,,
,,,,,,,,2023-08-06_08h24.55.851,HF_wild_card,2022.2.4,Win32,60.02040694,614a102028af248a4b2d041f,64ce5acb97489d65b14ecc7a,64cf4a3747447ed36c81d9ec,,,,,,,,,,,,,,,,,,,,,,,,,,5,0,5,0,1,,,,,,,,,,,,,,,,,,,,,,,,,,,,,,,,,,
,,,,,,,,2023-08-06_08h24.55.851,HF_wild_card,2022.2.4,Win32,60.02040694,614a102028af248a4b2d041f,64ce5acb97489d65b14ecc7a,64cf4a3747447ed36c81d9ec,,,,,,,decisionTrl,resources/DP.BMP,resources/DB.BMP,Door1,0.274000412,-0.125244284,1,0,0,1.2106,optionRight,30,14455,7,0,0,0,0,1,,,,,,,,,,,,,,,,,,,,,,,,,,,,,,,,,,,,,,,
,,,,,,,,2023-08-06_08h24.55.851,HF_wild_card,2022.2.4,Win32,60.02040694,614a102028af248a4b2d041f,64ce5acb97489d65b14ecc7a,64cf4a3747447ed36c81d9ec,,,,,,,decisionTrl,resources/DG.BMP,resources/DBN.BMP,Door4,0.223199198,-0.011918742,1,0,0,1.424,optionRight,60,14515,7,1,0,1,0,1,,,,,,,,,,,,,,,,,,,,,,,,,,,,,,,,,,,,,,,
,,,,,,,,2023-08-06_08h24.55.851,HF_wild_card,2022.2.4,Win32,60.02040694,614a102028af248a4b2d041f,64ce5acb97489d65b14ecc7a,64cf4a3747447ed36c81d9ec,,,,,,,decisionTrl,resources/DP.BMP,resources/DB.BMP,Door1,0.310472889,-0.014523934,1,0,0,1.2642,optionRight,30,14545,7,2,0,2,0,1,,,,,,,,,,,,,,,,,,,,,,,,,,,,,,,,,,,,,,,
,,,,,,,,2023-08-06_08h24.55.851,HF_wild_card,2022.2.4,Win32,60.02040694,614a102028af248a4b2d041f,64ce5acb97489d65b14ecc7a,64cf4a3747447ed36c81d9ec,,,,,,,decisionTrl,resources/DBN.BMP,resources/DG.BMP,Door3,0.284421038,-0.07574581,1,0,0,1.4736,optionRight,70,14615,7,3,0,3,0,1,,,,,,,,,,,,,,,,,,,,,,,,,,,,,,,,,,,,,,,
,,,,,,,,2023-08-06_08h24.55.851,HF_wild_card,2022.2.4,Win32,60.02040694,614a102028af248a4b2d041f,64ce5acb97489d65b14ecc7a,64cf4a3747447ed36c81d9ec,,,,,,,ctch,resources/DB.BMP,resources/DBN.BMP,Door4,0.343037756,-0.014523934,1,0,0,1.1127,optionRight,60,14675,7,4,0,4,0,1,,,,,,,,,,,,,,,,,,,,,,,,,,,,,,,,,,,,,,,
,,,,,,,,2023-08-06_08h24.55.851,HF_wild_card,2022.2.4,Win32,60.02040694,614a102028af248a4b2d041f,64ce5acb97489d65b14ecc7a,64cf4a3747447ed36c81d9ec,,,,,,,decisionTrl,resources/DB.BMP,resources/DP.BMP,Door1,-0.299140277,-0.092679452,1,0,0,1.424,optionLeft,30,14705,7,5,0,5,0,1,,,,,,,,,,,,,,,,,,,,,,,,,,,,,,,,,,,,,,,
,,,,,,,,2023-08-06_08h24.55.851,HF_wild_card,2022.2.4,Win32,60.02040694,614a102028af248a4b2d041f,64ce5acb97489d65b14ecc7a,64cf4a3747447ed36c81d9ec,,,,,,,ctch,resources/DG.BMP,resources/DP.BMP,Door3,-0.275693583,-0.052299151,1,0,0,1.2382,optionLeft,70,14775,7,6,0,6,0,1,,,,,,,,,,,,,,,,,,,,,,,,,,,,,,,,,,,,,,,
,,,,,,,,2023-08-06_08h24.55.851,HF_wild_card,2022.2.4,Win32,60.02040694,614a102028af248a4b2d041f,64ce5acb97489d65b14ecc7a,64cf4a3747447ed36c81d9ec,,,,,,,ctch,resources/DB.BMP,resources/DBN.BMP,Door4,0.249251049,-0.050996555,1,0,0,1.1278,optionRight,80,14855,7,7,0,7,0,1,,,,,,,,,,,,,,,,,,,,,,,,,,,,,,,,,,,,,,,
,,,,,,,,2023-08-06_08h24.55.851,HF_wild_card,2022.2.4,Win32,60.02040694,614a102028af248a4b2d041f,64ce5acb97489d65b14ecc7a,64cf4a3747447ed36c81d9ec,,,,,,,ctch,resources/DBN.BMP,resources/DB.BMP,Door4,-0.278298775,-0.023642072,1,0,0,1.1024,optionLeft,80,14935,7,8,0,8,0,1,,,,,,,,,,,,,,,,,,,,,,,,,,,,,,,,,,,,,,,
,,,,,,,,2023-08-06_08h24.55.851,HF_wild_card,2022.2.4,Win32,60.02040694,614a102028af248a4b2d041f,64ce5acb97489d65b14ecc7a,64cf4a3747447ed36c81d9ec,,,,,,,decisionTrl,resources/DB.BMP,resources/DP.BMP,Door1,-0.275693583,-0.048391327,1,0,0,2.1139,optionLeft,30,14965,7,9,0,9,0,1,,,,,,,,,,,,,,,,,,,,,,,,,,,,,,,,,,,,,,,
,,,,,,,,2023-08-06_08h24.55.851,HF_wild_card,2022.2.4,Win32,60.02040694,614a102028af248a4b2d041f,64ce5acb97489d65b14ecc7a,64cf4a3747447ed36c81d9ec,,,,,,,decisionTrl,resources/DG.BMP,resources/DBN.BMP,Door4,0.319591097,0.018040826,1,0,0,2.3972,optionRight,60,15025,7,10,0,10,0,1,,,,,,,,,,,,,,,,,,,,,,,,,,,,,,,,,,,,,,,
,,,,,,,,2023-08-06_08h24.55.851,HF_wild_card,2022.2.4,Win32,60.02040694,614a102028af248a4b2d041f,64ce5acb97489d65b14ecc7a,64cf4a3747447ed36c81d9ec,,,,,,,decisionTrl,resources/DBN.BMP,resources/DG.BMP,Door4,-0.355151732,-0.07574581,1,0,0,1.8065,optionLeft,60,15085,7,11,0,11,0,1,,,,,,,,,,,,,,,,,,,,,,,,,,,,,,,,,,,,,,,
,,,,,,,,2023-08-06_08h24.55.851,HF_wild_card,2022.2.4,Win32,60.02040694,614a102028af248a4b2d041f,64ce5acb97489d65b14ecc7a,64cf4a3747447ed36c81d9ec,,,,,,,decisionTrl,resources/DG.BMP,resources/DBN.BMP,Door3,-0.241826226,-0.032760209,1,0,0,1.48,optionLeft,70,15155,7,12,0,12,0,1,,,,,,,,,,,,,,,,,,,,,,,,,,,,,,,,,,,,,,,
,,,,,,,,2023-08-06_08h24.55.851,HF_wild_card,2022.2.4,Win32,60.02040694,614a102028af248a4b2d041f,64ce5acb97489d65b14ecc7a,64cf4a3747447ed36c81d9ec,,,,,,,ctch,resources/DBN.BMP,resources/DB.BMP,Door4,-0.267878077,-0.021036879,1,0,0,1.0621,optionLeft,60,15215,7,13,0,13,0,1,,,,,,,,,,,,,,,,,,,,,,,,,,,,,,,,,,,,,,,
,,,,,,,,2023-08-06_08h24.55.851,HF_wild_card,2022.2.4,Win32,60.02040694,614a102028af248a4b2d041f,64ce5acb97489d65b14ecc7a,64cf4a3747447ed36c81d9ec,,,,,,,decisionTrl,resources/DBN.BMP,resources/DG.BMP,Door4,-0.249641732,-0.031457613,1,0,0,0.9043,optionLeft,80,15295,7,14,0,14,0,1,,,,,,,,,,,,,,,,,,,,,,,,,,,,,,,,,,,,,,,
,,,,,,,,2023-08-06_08h24.55.851,HF_wild_card,2022.2.4,Win32,60.02040694,614a102028af248a4b2d041f,64ce5acb97489d65b14ecc7a,64cf4a3747447ed36c81d9ec,,,,,,,decisionTrl,resources/DB.BMP,resources/DP.BMP,Door1,-0.306955818,-0.061417252,1,0,0,0.9625,optionLeft,30,15325,7,15,0,15,0,1,,,,,,,,,,,,,,,,,,,,,,,,,,,,,,,,,,,,,,,
,,,,,,,,2023-08-06_08h24.55.851,HF_wild_card,2022.2.4,Win32,60.02040694,614a102028af248a4b2d041f,64ce5acb97489d65b14ecc7a,64cf4a3747447ed36c81d9ec,,,,,,,ctch,resources/DP.BMP,resources/DG.BMP,Door3,0.228409583,-0.026247264,1,0,0,1.0631,optionRight,70,15395,7,16,0,16,0,1,,,,,,,,,,,,,,,,,,,,,,,,,,,,,,,,,,,,,,,
,,,,,,,,2023-08-06_08h24.55.851,HF_wild_card,2022.2.4,Win32,60.02040694,614a102028af248a4b2d041f,64ce5acb97489d65b14ecc7a,64cf4a3747447ed36c81d9ec,,,,,,,ctch,resources/DG.BMP,resources/DP.BMP,Door3,-0.244431419,-0.06402248,1,0,0,1.078,optionLeft,70,15465,7,17,0,17,0,1,,,,,,,,,,,,,,,,,,,,,,,,,,,,,,,,,,,,,,,
,,,,,,,,2023-08-06_08h24.55.851,HF_wild_card,2022.2.4,Win32,60.02040694,614a102028af248a4b2d041f,64ce5acb97489d65b14ecc7a,64cf4a3747447ed36c81d9ec,,,,,,,ctch,resources/DP.BMP,resources/DG.BMP,Door3,0.568386136,-0.194281628,1,0,0,1.0198,optionRight,70,15535,7,18,0,18,0,1,,,,,,,,,,,,,,,,,,,,,,,,,,,,,,,,,,,,,,,
,,,,,,,,2023-08-06_08h24.55.851,HF_wild_card,2022.2.4,Win32,60.02040694,614a102028af248a4b2d041f,64ce5acb97489d65b14ecc7a,64cf4a3747447ed36c81d9ec,,,,,,,decisionTrl,resources/DB.BMP,resources/DP.BMP,Door1,-0.278298775,-0.09658724,1,0,0,1.3113,optionLeft,30,15565,7,19,0,19,0,1,,,,,,,,,,,,,,,,,,,,,,,,,,,,,,,,,,,,,,,
,,,,,,,,2023-08-06_08h24.55.851,HF_wild_card,2022.2.4,Win32,60.02040694,614a102028af248a4b2d041f,64ce5acb97489d65b14ecc7a,64cf4a3747447ed36c81d9ec,,,,,,,ctch,resources/DP.BMP,resources/DG.BMP,Door3,0.543636917,-0.097889872,1,0,0,1.0614,optionRight,70,15635,7,20,0,20,0,1,,,,,,,,,,,,,,,,,,,,,,,,,,,,,,,,,,,,,,,
,,,,,,,,2023-08-06_08h24.55.851,HF_wild_card,2022.2.4,Win32,60.02040694,614a102028af248a4b2d041f,64ce5acb97489d65b14ecc7a,64cf4a3747447ed36c81d9ec,,,,,,,decisionTrl,resources/DBN.BMP,resources/DG.BMP,Door3,0.395141458,-0.053601747,1,0,0,1.6862,optionRight,70,15705,7,21,0,21,0,1,,,,,,,,,,,,,,,,,,,,,,,,,,,,,,,,,,,,,,,
,,,,,,,,2023-08-06_08h24.55.851,HF_wild_card,2022.2.4,Win32,60.02040694,614a102028af248a4b2d041f,64ce5acb97489d65b14ecc7a,64cf4a3747447ed36c81d9ec,,,,,,,decisionTrl,resources/DG.BMP,resources/DBN.BMP,Door4,0.211475869,-0.030155016,1,0,0,1.3655,optionRight,80,15785,7,22,0,22,0,1,,,,,,,,,,,,,,,,,,,,,,,,,,,,,,,,,,,,,,,
,,,,,,,,2023-08-06_08h24.55.851,HF_wild_card,2022.2.4,Win32,60.02040694,614a102028af248a4b2d041f,64ce5acb97489d65b14ecc7a,64cf4a3747447ed36c81d9ec,,,,,,,decisionTrl,resources/DP.BMP,resources/DB.BMP,Door1,0.228409583,-0.024944668,1,0,0,1.2335,optionRight,30,15815,7,23,0,23,0,1,,,,,,,,,,,,,,,,,,,,,,,,,,,,,,,,,,,,,,,
,,,,,,,,2023-08-06_08h24.55.851,HF_wild_card,2022.2.4,Win32,60.02040694,614a102028af248a4b2d041f,64ce5acb97489d65b14ecc7a,64cf4a3747447ed36c81d9ec,,,,,,,ctch,resources/DG.BMP,resources/DP.BMP,Door3,-0.270483198,-0.031457613,1,0,0,1.1289,optionLeft,70,15885,7,24,0,24,0,1,,,,,,,,,,,,,,,,,,,,,,,,,,,,,,,,,,,,,,,
,,,,,,,,2023-08-06_08h24.55.851,HF_wild_card,2022.2.4,Win32,60.02040694,614a102028af248a4b2d041f,64ce5acb97489d65b14ecc7a,64cf4a3747447ed36c81d9ec,,,,,,,decisionTrl,resources/DP.BMP,resources/DB.BMP,Door1,0.214081061,-0.011918742,1,0,0,1.5078,optionRight,30,15915,7,25,0,25,0,1,,,,,,,,,,,,,,,,,,,,,,,,,,,,,,,,,,,,,,,
,,,,,,,,2023-08-06_08h24.55.851,HF_wild_card,2022.2.4,Win32,60.02040694,614a102028af248a4b2d041f,64ce5acb97489d65b14ecc7a,64cf4a3747447ed36c81d9ec,,,,,,,ctch,resources/DBN.BMP,resources/DB.BMP,Door4,-0.262667693,-0.092679452,1,0,0,1.1455,optionLeft,80,15995,7,26,0,26,0,1,,,,,,,,,,,,,,,,,,,,,,,,,,,,,,,,,,,,,,,
,,,,,,,,2023-08-06_08h24.55.851,HF_wild_card,2022.2.4,Win32,60.02040694,614a102028af248a4b2d041f,64ce5acb97489d65b14ecc7a,64cf4a3747447ed36c81d9ec,,,,,,,decisionTrl,resources/DG.BMP,resources/DBN.BMP,Door4,0.199752539,-0.022339475,1,0,0,1.3515,optionRight,60,16055,7,27,0,27,0,1,,,,,,,,,,,,,,,,,,,,,,,,,,,,,,,,,,,,,,,
,,,,,,,,2023-08-06_08h24.55.851,HF_wild_card,2022.2.4,Win32,60.02040694,614a102028af248a4b2d041f,64ce5acb97489d65b14ecc7a,64cf4a3747447ed36c81d9ec,,,,,,,decisionTrl,resources/DP.BMP,resources/DB.BMP,Door1,0.288328933,-0.022339475,1,0,0,1.0809,optionRight,30,16085,7,28,0,28,0,1,,,,,,,,,,,,,,,,,,,,,,,,,,,,,,,,,,,,,,,
,,,,,,,,2023-08-06_08h24.55.851,HF_wild_card,2022.2.4,Win32,60.02040694,614a102028af248a4b2d041f,64ce5acb97489d65b14ecc7a,64cf4a3747447ed36c81d9ec,,,,,,,decisionTrl,resources/DP.BMP,resources/DB.BMP,Door1,0.241435616,-0.010616146,1,0,0,1.1974,optionRight,30,16115,7,29,0,29,0,1,,,,,,,,,,,,,,,,,,,,,,,,,,,,,,,,,,,,,,,
,,,,,,,,2023-08-06_08h24.55.851,HF_wild_card,2022.2.4,Win32,60.02040694,614a102028af248a4b2d041f,64ce5acb97489d65b14ecc7a,64cf4a3747447ed36c81d9ec,,,,,,,decisionTrl,resources/DG.BMP,resources/DBN.BMP,Door4,0.254461434,-0.023642072,1,0,0,1.0336,optionRight,80,16195,7,30,0,30,0,1,,,,,,,,,,,,,,,,,,,,,,,,,,,,,,,,,,,,,,,
,,,,,,,,2023-08-06_08h24.55.851,HF_wild_card,2022.2.4,Win32,60.02040694,614a102028af248a4b2d041f,64ce5acb97489d65b14ecc7a,64cf4a3747447ed36c81d9ec,,,,,,,ctch,resources/DB.BMP,resources/DBN.BMP,Door4,0.285723741,0.007620093,1,0,0,0.9457,optionRight,60,16255,7,31,0,31,0,1,,,,,,,,,,,,,,,,,,,,,,,,,,,,,,,,,,,,,,,
,,,,,,,,2023-08-06_08h24.55.851,HF_wild_card,2022.2.4,Win32,60.02040694,614a102028af248a4b2d041f,64ce5acb97489d65b14ecc7a,64cf4a3747447ed36c81d9ec,,,,,,,decisionTrl,resources/DB.BMP,resources/DP.BMP,Door1,-0.215774375,-0.04708873,1,0,0,1.7964,optionLeft,30,16285,7,32,0,32,0,1,,,,,,,,,,,,,,,,,,,,,,,,,,,,,,,,,,,,,,,
,,,,,,,,2023-08-06_08h24.55.851,HF_wild_card,2022.2.4,Win32,60.02040694,614a102028af248a4b2d041f,64ce5acb97489d65b14ecc7a,64cf4a3747447ed36c81d9ec,,,,,,,decisionTrl,resources/DBN.BMP,resources/DG.BMP,Door3,0.257066626,-0.014523934,1,0,0,1.1371,optionRight,70,16355,7,33,0,33,0,1,,,,,,,,,,,,,,,,,,,,,,,,,,,,,,,,,,,,,,,
,,,,,,,,2023-08-06_08h24.55.851,HF_wild_card,2022.2.4,Win32,60.02040694,614a102028af248a4b2d041f,64ce5acb97489d65b14ecc7a,64cf4a3747447ed36c81d9ec,,,,,,,decisionTrl,resources/DBN.BMP,resources/DG.BMP,Door4,-0.20926143,-0.024944668,1,0,0,1.1856,optionLeft,80,16435,7,34,0,34,0,1,,,,,,,,,,,,,,,,,,,,,,,,,,,,,,,,,,,,,,,
,,,,,,,,2023-08-06_08h24.55.851,HF_wild_card,2022.2.4,Win32,60.02040694,614a102028af248a4b2d041f,64ce5acb97489d65b14ecc7a,64cf4a3747447ed36c81d9ec,,,,,,,decisionTrl,resources/DB.BMP,resources/DP.BMP,Door1,-0.247036539,-0.09658724,1,0,0,1.2077,optionLeft,30,16465,7,35,0,35,0,1,,,,,,,,,,,,,,,,,,,,,,,,,,,,,,,,,,,,,,,
,,,,,,,,2023-08-06_08h24.55.851,HF_wild_card,2022.2.4,Win32,60.02040694,614a102028af248a4b2d041f,64ce5acb97489d65b14ecc7a,64cf4a3747447ed36c81d9ec,,,,,,,,,,,,,,,,,,,,,,,,,,6,0,6,0,1,,,,,,,,,,,,,,,,,,,,,,,,,,,,,,,,,,
,,,,,,,,2023-08-06_08h24.55.851,HF_wild_card,2022.2.4,Win32,60.02040694,614a102028af248a4b2d041f,64ce5acb97489d65b14ecc7a,64cf4a3747447ed36c81d9ec,,,,,,,,,,,,,,,,,,,,,,,,,,,,,,,4,,,,,,,,,,,,,,,,,,,,,,,,,,,,,,,,,
,,,,,,,,2023-08-06_08h24.55.851,HF_wild_card,2022.2.4,Win32,60.02040694,614a102028af248a4b2d041f,64ce5acb97489d65b14ecc7a,64cf4a3747447ed36c81d9ec,,,,,,,,,,,,,,,,,,,,,,,,,,,,,,,,,,,,,,,,,,,,,,,,,,,,,,,,,,,,,,,,
,,,,,,,,2023-08-06_08h24.55.851,HF_wild_card,2022.2.4,Win32,60.02040694,614a102028af248a4b2d041f,64ce5acb97489d65b14ecc7a,64cf4a3747447ed36c81d9ec,,,,,,,,,,,,,,,,,,,,,,,,,,,,,,,,70,Door3,resources/DG.BMP,0,0,0,0,1,,,,,,,,,,,,,,,,,,,,,,,,,
,,,,,,,,2023-08-06_08h24.55.851,HF_wild_card,2022.2.4,Win32,60.02040694,614a102028af248a4b2d041f,64ce5acb97489d65b14ecc7a,64cf4a3747447ed36c81d9ec,,,,,,,,,,,,,,,,,,,,,,,,,,,,,,,,20,Door2,resources/DP.BMP,1,0,1,0,1,,,,,,,,,,,,,,,,,,,,,,,,,
,,,,,,,,2023-08-06_08h24.55.851,HF_wild_card,2022.2.4,Win32,60.02040694,614a102028af248a4b2d041f,64ce5acb97489d65b14ecc7a,64cf4a3747447ed36c81d9ec,,,,,,,,,,,,,,,,,,,,,,,,,,,,,,,,45,WC_extreme,resources/DR.BMP,2,0,2,0,1,,,,,,,,,,,,,,,,,,,,,,,,,
,,,,,,,,2023-08-06_08h24.55.851,HF_wild_card,2022.2.4,Win32,60.02040694,614a102028af248a4b2d041f,64ce5acb97489d65b14ecc7a,64cf4a3747447ed36c81d9ec,,,,,,,,,,,,,,,,,,,,,,,,,,,,,,,,80,Door4,resources/DBN.BMP,3,0,3,0,1,,,,,,,,,,,,,,,,,,,,,,,,,
,,,,,,,,2023-08-06_08h24.55.851,HF_wild_card,2022.2.4,Win32,60.02040694,614a102028af248a4b2d041f,64ce5acb97489d65b14ecc7a,64cf4a3747447ed36c81d9ec,,,,,,,,,,,,,,,,,,,,,,,,,,,,,,,,30,Door1,resources/DB.BMP,4,0,4,0,1,,,,,,,,,,,,,,,,,,,,,,,,,
,,,,,,,,2023-08-06_08h24.55.851,HF_wild_card,2022.2.4,Win32,60.02040694,614a102028af248a4b2d041f,64ce5acb97489d65b14ecc7a,64cf4a3747447ed36c81d9ec,,,,,,,,,,,,,,,,,,,,,,,,,,,,,,,,40,WC_nonExtreme,resources/DY.BMP,5,0,5,0,1,,,,,,,,,,,,,,,,,,,,,,,,,
,,,,,,,,2023-08-06_08h24.55.851,HF_wild_card,2022.2.4,Win32,60.02040694,614a102028af248a4b2d041f,64ce5acb97489d65b14ecc7a,64cf4a3747447ed36c81d9ec,,,,,,,,,,,,,,,,,,,,,,,,,,,,,,,,,,,,,,,,,,,,,,,,,,,,,,,,,,,,,,,,
