Condition,Low fixed image (Door1),Low risky image (Door2),High fixed image (Door3),High risky image (Door4),NonExtreme Wild Card 1,NonExtreme Wild Card 2,,date,expName,psychopyVersion,OS,frameRate,PROLIFIC_PID,STUDY_ID,SESSION_ID,mouse_2.x,mouse_2.y,mouse_2.leftButton,mouse_2.midButton,mouse_2.rightButton,mouse_2.clicked_name,Trial Type,Left Option Image,Right Option Image,Chosen Door,mouse.x,mouse.y,mouse.leftButton,mouse.midButton,mouse.rightButton,mouse.time,mouse.clicked_name,Feedback,Cumulative Reward,Block,trial.thisRepN,trial.thisTrialN,trial.thisN,trial.thisIndex,trial.ran,blocks.thisRepN,blocks.thisTrialN,blocks.thisN,blocks.thisIndex,blocks.ran,Money conversion,First Outcome Reported,Shown Door (First Outcome),Displayed Image (First Outcome),outcomes.thisRepN,outcomes.thisTrialN,outcomes.thisN,outcomes.thisIndex,outcomes.ran,judgments.thisRepN,judgments.thisTrialN,judgments.thisN,judgments.thisIndex,judgments.ran,freqMouse.x,freqMouse.y,freqMouse.leftButton,freqMouse.midButton,freqMouse.rightButton,freqMouse.clicked_name,FQJ for first outcome,FQJ for second outcome,Shown Door,Displayed Image,trials.thisRepN,trials.thisTrialN,trials.thisN,trials.thisIndex,trials.ran,judgBlock.thisRepN,judgBlock.thisTrialN,judgBlock.thisN,judgBlock.thisIndex,judgBlock.ran
2,resources/DY.BMP,resources/DP.BMP,resources/DB.BMP,resources/DG.BMP,resources/DR.BMP,resources/DBN.BMP,,2023-08-16_08h44.19.261,HF_wild_card,2022.2.4,Win32,60.0240096,627e7e91d0e389328983e765,64d2fd46c836a06233681665,64dc7e2c11ceb89b77a08da1,,,,,,,,,,,,,,,,,,,,,,,,,,,,,,,,,,,,,,,,,,,,,,,,,,,,,,,,,,,,,,,,
,,,,,,,,2023-08-16_08h44.19.261,HF_wild_card,2022.2.4,Win32,60.0240096,627e7e91d0e389328983e765,64d2fd46c836a06233681665,64dc7e2c11ceb89b77a08da1,-0.002777778,-0.42037037,1,0,0,agree,,,,,,,,,,,,,,,,,,,,,,,,,,,,,,,,,,,,,,,,,,,,,,,,,,,,,,,,,,
,,,,,,,,2023-08-16_08h44.19.261,HF_wild_card,2022.2.4,Win32,60.0240096,627e7e91d0e389328983e765,64d2fd46c836a06233681665,64dc7e2c11ceb89b77a08da1,,,,,,,,,,,,,,,,,,,,,,,,,,,,,,,,,,,,,,,,,,,,,,,,,,,,,,,,,,,,,,,,
,,,,,,,,2023-08-16_08h44.19.261,HF_wild_card,2022.2.4,Win32,60.0240096,627e7e91d0e389328983e765,64d2fd46c836a06233681665,64dc7e2c11ceb89b77a08da1,,,,,,,sngl,resources/DBN.BMP,resources/Empty.png,WildCard_NonEx,-0.424074074,0.011111111,1,0,0,2.626,optionLeft,45,45,1,0,0,0,0,1,,,,,,,,,,,,,,,,,,,,,,,,,,,,,,,,,,,,,,,
,,,,,,,,2023-08-16_08h44.19.261,HF_wild_card,2022.2.4,Win32,60.0240096,627e7e91d0e389328983e765,64d2fd46c836a06233681665,64dc7e2c11ceb89b77a08da1,,,,,,,decisionTrl,resources/DG.BMP,resources/DB.BMP,Door3,0.362037037,-0.030555556,1,0,0,2.564,optionRight,70,115,1,1,0,1,0,1,,,,,,,,,,,,,,,,,,,,,,,,,,,,,,,,,,,,,,,
,,,,,,,,2023-08-16_08h44.19.261,HF_wild_card,2022.2.4,Win32,60.0240096,627e7e91d0e389328983e765,64d2fd46c836a06233681665,64dc7e2c11ceb89b77a08da1,,,,,,,sngl,resources/Empty.png,resources/DG.BMP,Door4,0.419444444,-0.02962963,1,0,0,1.38,optionRight,60,175,1,2,0,2,0,1,,,,,,,,,,,,,,,,,,,,,,,,,,,,,,,,,,,,,,,
,,,,,,,,2023-08-16_08h44.19.261,HF_wild_card,2022.2.4,Win32,60.0240096,627e7e91d0e389328983e765,64d2fd46c836a06233681665,64dc7e2c11ceb89b77a08da1,,,,,,,sngl,resources/DG.BMP,resources/Empty.png,Door4,-0.387962963,-0.012962963,1,0,0,1.198,optionLeft,80,255,1,3,0,3,0,1,,,,,,,,,,,,,,,,,,,,,,,,,,,,,,,,,,,,,,,
,,,,,,,,2023-08-16_08h44.19.261,HF_wild_card,2022.2.4,Win32,60.0240096,627e7e91d0e389328983e765,64d2fd46c836a06233681665,64dc7e2c11ceb89b77a08da1,,,,,,,sngl,resources/DB.BMP,resources/Empty.png,Door3,-0.411111111,-0.024074074,1,0,0,1.13,optionLeft,70,325,1,4,0,4,0,1,,,,,,,,,,,,,,,,,,,,,,,,,,,,,,,,,,,,,,,
,,,,,,,,2023-08-16_08h44.19.261,HF_wild_card,2022.2.4,Win32,60.0240096,627e7e91d0e389328983e765,64d2fd46c836a06233681665,64dc7e2c11ceb89b77a08da1,,,,,,,decisionTrl,resources/DP.BMP,resources/DY.BMP,Door1,0.401851852,-0.061111111,1,0,0,1.981,optionRight,30,355,1,5,0,5,0,1,,,,,,,,,,,,,,,,,,,,,,,,,,,,,,,,,,,,,,,
,,,,,,,,2023-08-16_08h44.19.261,HF_wild_card,2022.2.4,Win32,60.0240096,627e7e91d0e389328983e765,64d2fd46c836a06233681665,64dc7e2c11ceb89b77a08da1,,,,,,,ctch,resources/DB.BMP,resources/DP.BMP,Door3,-0.37962963,-0.037037037,1,0,0,1.414,optionLeft,70,425,1,6,0,6,0,1,,,,,,,,,,,,,,,,,,,,,,,,,,,,,,,,,,,,,,,
,,,,,,,,2023-08-16_08h44.19.261,HF_wild_card,2022.2.4,Win32,60.0240096,627e7e91d0e389328983e765,64d2fd46c836a06233681665,64dc7e2c11ceb89b77a08da1,,,,,,,decisionTrl,resources/DBN.BMP,resources/DB.BMP,Door3,0.409259259,-0.027777778,1,0,0,1.781,optionRight,70,495,1,7,0,7,0,1,,,,,,,,,,,,,,,,,,,,,,,,,,,,,,,,,,,,,,,
,,,,,,,,2023-08-16_08h44.19.261,HF_wild_card,2022.2.4,Win32,60.0240096,627e7e91d0e389328983e765,64d2fd46c836a06233681665,64dc7e2c11ceb89b77a08da1,,,,,,,ctch,resources/DG.BMP,resources/DY.BMP,Door4,-0.400925926,-0.015740741,1,0,0,1.494,optionLeft,80,575,1,8,0,8,0,1,,,,,,,,,,,,,,,,,,,,,,,,,,,,,,,,,,,,,,,
,,,,,,,,2023-08-16_08h44.19.261,HF_wild_card,2022.2.4,Win32,60.0240096,627e7e91d0e389328983e765,64d2fd46c836a06233681665,64dc7e2c11ceb89b77a08da1,,,,,,,decisionTrl,resources/DBN.BMP,resources/DG.BMP,WildCard_NonEx,-0.348148148,-0.025,1,0,0,2.081,optionLeft,55,630,1,9,0,9,0,1,,,,,,,,,,,,,,,,,,,,,,,,,,,,,,,,,,,,,,,
,,,,,,,,2023-08-16_08h44.19.261,HF_wild_card,2022.2.4,Win32,60.0240096,627e7e91d0e389328983e765,64d2fd46c836a06233681665,64dc7e2c11ceb89b77a08da1,,,,,,,decisionTrl,resources/DY.BMP,resources/DBN.BMP,WildCard_NonEx,0.39537037,-0.011111111,1,0,0,1.482,optionRight,45,675,1,10,0,10,0,1,,,,,,,,,,,,,,,,,,,,,,,,,,,,,,,,,,,,,,,
,,,,,,,,2023-08-16_08h44.19.261,HF_wild_card,2022.2.4,Win32,60.0240096,627e7e91d0e389328983e765,64d2fd46c836a06233681665,64dc7e2c11ceb89b77a08da1,,,,,,,ctch,resources/DY.BMP,resources/DG.BMP,Door1,-0.289814815,-0.042592593,1,0,0,2.078,optionLeft,30,705,1,11,0,11,0,1,,,,,,,,,,,,,,,,,,,,,,,,,,,,,,,,,,,,,,,
,,,,,,,,2023-08-16_08h44.19.261,HF_wild_card,2022.2.4,Win32,60.0240096,627e7e91d0e389328983e765,64d2fd46c836a06233681665,64dc7e2c11ceb89b77a08da1,,,,,,,decisionTrl,resources/DB.BMP,resources/DG.BMP,Door3,-0.426851852,-0.042592593,1,0,0,2.062,optionLeft,70,775,1,12,0,12,0,1,,,,,,,,,,,,,,,,,,,,,,,,,,,,,,,,,,,,,,,
,,,,,,,,2023-08-16_08h44.19.261,HF_wild_card,2022.2.4,Win32,60.0240096,627e7e91d0e389328983e765,64d2fd46c836a06233681665,64dc7e2c11ceb89b77a08da1,,,,,,,decisionTrl,resources/DG.BMP,resources/DB.BMP,Door3,0.37037037,-0.037962963,1,0,0,4.029,optionRight,70,845,1,13,0,13,0,1,,,,,,,,,,,,,,,,,,,,,,,,,,,,,,,,,,,,,,,
,,,,,,,,2023-08-16_08h44.19.261,HF_wild_card,2022.2.4,Win32,60.0240096,627e7e91d0e389328983e765,64d2fd46c836a06233681665,64dc7e2c11ceb89b77a08da1,,,,,,,decisionTrl,resources/DBN.BMP,resources/DY.BMP,WildCard_NonEx,-0.350925926,-0.027777778,1,0,0,1.548,optionLeft,55,900,1,14,0,14,0,1,,,,,,,,,,,,,,,,,,,,,,,,,,,,,,,,,,,,,,,
,,,,,,,,2023-08-16_08h44.19.261,HF_wild_card,2022.2.4,Win32,60.0240096,627e7e91d0e389328983e765,64d2fd46c836a06233681665,64dc7e2c11ceb89b77a08da1,,,,,,,decisionTrl,resources/DG.BMP,resources/DB.BMP,Door3,0.416666667,-0.042592593,1,0,0,1.399,optionRight,70,970,1,15,0,15,0,1,,,,,,,,,,,,,,,,,,,,,,,,,,,,,,,,,,,,,,,
,,,,,,,,2023-08-16_08h44.19.261,HF_wild_card,2022.2.4,Win32,60.0240096,627e7e91d0e389328983e765,64d2fd46c836a06233681665,64dc7e2c11ceb89b77a08da1,,,,,,,decisionTrl,resources/DY.BMP,resources/DP.BMP,Door2,0.421296296,-0.062037037,1,0,0,1.681,optionRight,20,990,1,16,0,16,0,1,,,,,,,,,,,,,,,,,,,,,,,,,,,,,,,,,,,,,,,
,,,,,,,,2023-08-16_08h44.19.261,HF_wild_card,2022.2.4,Win32,60.0240096,627e7e91d0e389328983e765,64d2fd46c836a06233681665,64dc7e2c11ceb89b77a08da1,,,,,,,decisionTrl,resources/DP.BMP,resources/DBN.BMP,WildCard_NonEx,0.333333333,-0.032407407,1,0,0,2.248,optionRight,55,1045,1,17,0,17,0,1,,,,,,,,,,,,,,,,,,,,,,,,,,,,,,,,,,,,,,,
,,,,,,,,2023-08-16_08h44.19.261,HF_wild_card,2022.2.4,Win32,60.0240096,627e7e91d0e389328983e765,64d2fd46c836a06233681665,64dc7e2c11ceb89b77a08da1,,,,,,,decisionTrl,resources/DBN.BMP,resources/DP.BMP,WildCard_NonEx,-0.318518519,0.007407407,1,0,0,3.065,optionLeft,55,1100,1,18,0,18,0,1,,,,,,,,,,,,,,,,,,,,,,,,,,,,,,,,,,,,,,,
,,,,,,,,2023-08-16_08h44.19.261,HF_wild_card,2022.2.4,Win32,60.0240096,627e7e91d0e389328983e765,64d2fd46c836a06233681665,64dc7e2c11ceb89b77a08da1,,,,,,,decisionTrl,resources/DP.BMP,resources/DY.BMP,Door1,0.385185185,-0.053703704,1,0,0,2.659,optionRight,30,1130,1,19,0,19,0,1,,,,,,,,,,,,,,,,,,,,,,,,,,,,,,,,,,,,,,,
,,,,,,,,2023-08-16_08h44.19.261,HF_wild_card,2022.2.4,Win32,60.0240096,627e7e91d0e389328983e765,64d2fd46c836a06233681665,64dc7e2c11ceb89b77a08da1,,,,,,,decisionTrl,resources/DB.BMP,resources/DG.BMP,Door3,-0.373148148,-0.028703704,1,0,0,1.664,optionLeft,70,1200,1,20,0,20,0,1,,,,,,,,,,,,,,,,,,,,,,,,,,,,,,,,,,,,,,,
,,,,,,,,2023-08-16_08h44.19.261,HF_wild_card,2022.2.4,Win32,60.0240096,627e7e91d0e389328983e765,64d2fd46c836a06233681665,64dc7e2c11ceb89b77a08da1,,,,,,,decisionTrl,resources/DY.BMP,resources/DP.BMP,Door1,-0.348148148,-0.018518519,1,0,0,2.397,optionLeft,30,1230,1,21,0,21,0,1,,,,,,,,,,,,,,,,,,,,,,,,,,,,,,,,,,,,,,,
,,,,,,,,2023-08-16_08h44.19.261,HF_wild_card,2022.2.4,Win32,60.0240096,627e7e91d0e389328983e765,64d2fd46c836a06233681665,64dc7e2c11ceb89b77a08da1,,,,,,,decisionTrl,resources/DB.BMP,resources/DG.BMP,Door3,-0.430555556,-0.031481481,1,0,0,1.298,optionLeft,70,1300,1,22,0,22,0,1,,,,,,,,,,,,,,,,,,,,,,,,,,,,,,,,,,,,,,,
,,,,,,,,2023-08-16_08h44.19.261,HF_wild_card,2022.2.4,Win32,60.0240096,627e7e91d0e389328983e765,64d2fd46c836a06233681665,64dc7e2c11ceb89b77a08da1,,,,,,,sngl,resources/Empty.png,resources/DBN.BMP,WildCard_NonEx,0.382407407,-0.002777778,1,0,0,1.181,optionRight,45,1345,1,23,0,23,0,1,,,,,,,,,,,,,,,,,,,,,,,,,,,,,,,,,,,,,,,
,,,,,,,,2023-08-16_08h44.19.261,HF_wild_card,2022.2.4,Win32,60.0240096,627e7e91d0e389328983e765,64d2fd46c836a06233681665,64dc7e2c11ceb89b77a08da1,,,,,,,sngl,resources/Empty.png,resources/DP.BMP,Door2,0.399074074,-0.028703704,1,0,0,2.032,optionRight,20,1365,1,24,0,24,0,1,,,,,,,,,,,,,,,,,,,,,,,,,,,,,,,,,,,,,,,
,,,,,,,,2023-08-16_08h44.19.261,HF_wild_card,2022.2.4,Win32,60.0240096,627e7e91d0e389328983e765,64d2fd46c836a06233681665,64dc7e2c11ceb89b77a08da1,,,,,,,sngl,resources/DY.BMP,resources/Empty.png,Door1,-0.388888889,-0.035185185,1,0,0,0.982,optionLeft,30,1395,1,25,0,25,0,1,,,,,,,,,,,,,,,,,,,,,,,,,,,,,,,,,,,,,,,
,,,,,,,,2023-08-16_08h44.19.261,HF_wild_card,2022.2.4,Win32,60.0240096,627e7e91d0e389328983e765,64d2fd46c836a06233681665,64dc7e2c11ceb89b77a08da1,,,,,,,decisionTrl,resources/DG.BMP,resources/DB.BMP,Door3,0.391666667,-0.037962963,1,0,0,1.464,optionRight,70,1465,1,26,0,26,0,1,,,,,,,,,,,,,,,,,,,,,,,,,,,,,,,,,,,,,,,
,,,,,,,,2023-08-16_08h44.19.261,HF_wild_card,2022.2.4,Win32,60.0240096,627e7e91d0e389328983e765,64d2fd46c836a06233681665,64dc7e2c11ceb89b77a08da1,,,,,,,sngl,resources/Empty.png,resources/DY.BMP,Door1,0.376851852,-0.051851852,1,0,0,1.348,optionRight,30,1495,1,27,0,27,0,1,,,,,,,,,,,,,,,,,,,,,,,,,,,,,,,,,,,,,,,
,,,,,,,,2023-08-16_08h44.19.261,HF_wild_card,2022.2.4,Win32,60.0240096,627e7e91d0e389328983e765,64d2fd46c836a06233681665,64dc7e2c11ceb89b77a08da1,,,,,,,decisionTrl,resources/DB.BMP,resources/DG.BMP,Door3,-0.42962963,-0.017592593,1,0,0,1.199,optionLeft,70,1565,1,28,0,28,0,1,,,,,,,,,,,,,,,,,,,,,,,,,,,,,,,,,,,,,,,
,,,,,,,,2023-08-16_08h44.19.261,HF_wild_card,2022.2.4,Win32,60.0240096,627e7e91d0e389328983e765,64d2fd46c836a06233681665,64dc7e2c11ceb89b77a08da1,,,,,,,ctch,resources/DB.BMP,resources/DP.BMP,Door3,-0.392592593,-0.02962963,1,0,0,1.895,optionLeft,70,1635,1,29,0,29,0,1,,,,,,,,,,,,,,,,,,,,,,,,,,,,,,,,,,,,,,,
,,,,,,,,2023-08-16_08h44.19.261,HF_wild_card,2022.2.4,Win32,60.0240096,627e7e91d0e389328983e765,64d2fd46c836a06233681665,64dc7e2c11ceb89b77a08da1,,,,,,,decisionTrl,resources/DP.BMP,resources/DY.BMP,Door2,-0.425925926,-0.00462963,1,0,0,5.345,optionLeft,20,1655,1,30,0,30,0,1,,,,,,,,,,,,,,,,,,,,,,,,,,,,,,,,,,,,,,,
,,,,,,,,2023-08-16_08h44.19.261,HF_wild_card,2022.2.4,Win32,60.0240096,627e7e91d0e389328983e765,64d2fd46c836a06233681665,64dc7e2c11ceb89b77a08da1,,,,,,,sngl,resources/DBN.BMP,resources/Empty.png,WildCard_NonEx,-0.398148148,0.027777778,1,0,0,0.911,optionLeft,55,1710,1,31,0,31,0,1,,,,,,,,,,,,,,,,,,,,,,,,,,,,,,,,,,,,,,,
,,,,,,,,2023-08-16_08h44.19.261,HF_wild_card,2022.2.4,Win32,60.0240096,627e7e91d0e389328983e765,64d2fd46c836a06233681665,64dc7e2c11ceb89b77a08da1,,,,,,,decisionTrl,resources/DG.BMP,resources/DBN.BMP,WildCard_NonEx,0.369444444,-0.024074074,1,0,0,2.38,optionRight,45,1755,1,32,0,32,0,1,,,,,,,,,,,,,,,,,,,,,,,,,,,,,,,,,,,,,,,
,,,,,,,,2023-08-16_08h44.19.261,HF_wild_card,2022.2.4,Win32,60.0240096,627e7e91d0e389328983e765,64d2fd46c836a06233681665,64dc7e2c11ceb89b77a08da1,,,,,,,ctch,resources/DP.BMP,resources/DB.BMP,Door3,0.411111111,-0.038888889,1,0,0,1.264,optionRight,70,1825,1,33,0,33,0,1,,,,,,,,,,,,,,,,,,,,,,,,,,,,,,,,,,,,,,,
,,,,,,,,2023-08-16_08h44.19.261,HF_wild_card,2022.2.4,Win32,60.0240096,627e7e91d0e389328983e765,64d2fd46c836a06233681665,64dc7e2c11ceb89b77a08da1,,,,,,,decisionTrl,resources/DY.BMP,resources/DP.BMP,Door2,0.363888889,-0.034259259,1,0,0,1.465,optionRight,20,1845,1,34,0,34,0,1,,,,,,,,,,,,,,,,,,,,,,,,,,,,,,,,,,,,,,,
,,,,,,,,2023-08-16_08h44.19.261,HF_wild_card,2022.2.4,Win32,60.0240096,627e7e91d0e389328983e765,64d2fd46c836a06233681665,64dc7e2c11ceb89b77a08da1,,,,,,,decisionTrl,resources/DY.BMP,resources/DP.BMP,Door1,-0.364814815,-0.026851852,1,0,0,1.78,optionLeft,30,1875,1,35,0,35,0,1,,,,,,,,,,,,,,,,,,,,,,,,,,,,,,,,,,,,,,,
,,,,,,,,2023-08-16_08h44.19.261,HF_wild_card,2022.2.4,Win32,60.0240096,627e7e91d0e389328983e765,64d2fd46c836a06233681665,64dc7e2c11ceb89b77a08da1,,,,,,,decisionTrl,resources/DP.BMP,resources/DY.BMP,Door1,0.40462963,-0.040740741,1,0,0,1.582,optionRight,30,1905,1,36,0,36,0,1,,,,,,,,,,,,,,,,,,,,,,,,,,,,,,,,,,,,,,,
,,,,,,,,2023-08-16_08h44.19.261,HF_wild_card,2022.2.4,Win32,60.0240096,627e7e91d0e389328983e765,64d2fd46c836a06233681665,64dc7e2c11ceb89b77a08da1,,,,,,,sngl,resources/DP.BMP,resources/Empty.png,Door2,-0.4,-0.016666667,1,0,0,0.982,optionLeft,40,1945,1,37,0,37,0,1,,,,,,,,,,,,,,,,,,,,,,,,,,,,,,,,,,,,,,,
,,,,,,,,2023-08-16_08h44.19.261,HF_wild_card,2022.2.4,Win32,60.0240096,627e7e91d0e389328983e765,64d2fd46c836a06233681665,64dc7e2c11ceb89b77a08da1,,,,,,,sngl,resources/Empty.png,resources/DBN.BMP,WildCard_NonEx,0.387037037,-0.049074074,1,0,0,0.947,optionRight,55,2000,1,38,0,38,0,1,,,,,,,,,,,,,,,,,,,,,,,,,,,,,,,,,,,,,,,
,,,,,,,,2023-08-16_08h44.19.261,HF_wild_card,2022.2.4,Win32,60.0240096,627e7e91d0e389328983e765,64d2fd46c836a06233681665,64dc7e2c11ceb89b77a08da1,,,,,,,ctch,resources/DP.BMP,resources/DB.BMP,Door3,0.465740741,-0.04537037,1,0,0,2.031,optionRight,70,2070,1,39,0,39,0,1,,,,,,,,,,,,,,,,,,,,,,,,,,,,,,,,,,,,,,,
,,,,,,,,2023-08-16_08h44.19.261,HF_wild_card,2022.2.4,Win32,60.0240096,627e7e91d0e389328983e765,64d2fd46c836a06233681665,64dc7e2c11ceb89b77a08da1,,,,,,,sngl,resources/Empty.png,resources/DB.BMP,Door3,0.396296296,-0.047222222,1,0,0,0.799,optionRight,70,2140,1,40,0,40,0,1,,,,,,,,,,,,,,,,,,,,,,,,,,,,,,,,,,,,,,,
,,,,,,,,2023-08-16_08h44.19.261,HF_wild_card,2022.2.4,Win32,60.0240096,627e7e91d0e389328983e765,64d2fd46c836a06233681665,64dc7e2c11ceb89b77a08da1,,,,,,,decisionTrl,resources/DB.BMP,resources/DBN.BMP,Door3,-0.366666667,-0.009259259,1,0,0,1.165,optionLeft,70,2210,1,41,0,41,0,1,,,,,,,,,,,,,,,,,,,,,,,,,,,,,,,,,,,,,,,
,,,,,,,,2023-08-16_08h44.19.261,HF_wild_card,2022.2.4,Win32,60.0240096,627e7e91d0e389328983e765,64d2fd46c836a06233681665,64dc7e2c11ceb89b77a08da1,,,,,,,ctch,resources/DG.BMP,resources/DY.BMP,Door4,-0.348148148,-0.035185185,1,0,0,2.447,optionLeft,80,2290,1,42,0,42,0,1,,,,,,,,,,,,,,,,,,,,,,,,,,,,,,,,,,,,,,,
,,,,,,,,2023-08-16_08h44.19.261,HF_wild_card,2022.2.4,Win32,60.0240096,627e7e91d0e389328983e765,64d2fd46c836a06233681665,64dc7e2c11ceb89b77a08da1,,,,,,,ctch,resources/DY.BMP,resources/DG.BMP,Door4,0.378703704,-0.025,1,0,0,1.081,optionRight,80,2370,1,43,0,43,0,1,,,,,,,,,,,,,,,,,,,,,,,,,,,,,,,,,,,,,,,
,,,,,,,,2023-08-16_08h44.19.261,HF_wild_card,2022.2.4,Win32,60.0240096,627e7e91d0e389328983e765,64d2fd46c836a06233681665,64dc7e2c11ceb89b77a08da1,,,,,,,,,,,,,,,,,,,,,,,,,,0,0,0,0,1,,,,,,,,,,,,,,,,,,,,,,,,,,,,,,,,,,
,,,,,,,,2023-08-16_08h44.19.261,HF_wild_card,2022.2.4,Win32,60.0240096,627e7e91d0e389328983e765,64d2fd46c836a06233681665,64dc7e2c11ceb89b77a08da1,,,,,,,decisionTrl,resources/DP.BMP,resources/DY.BMP,Door2,-0.389814815,-0.013888889,1,0,0,2.701,optionLeft,40,2410,2,0,0,0,0,1,,,,,,,,,,,,,,,,,,,,,,,,,,,,,,,,,,,,,,,
,,,,,,,,2023-08-16_08h44.19.261,HF_wild_card,2022.2.4,Win32,60.0240096,627e7e91d0e389328983e765,64d2fd46c836a06233681665,64dc7e2c11ceb89b77a08da1,,,,,,,sngl,resources/Empty.png,resources/DG.BMP,Door4,0.469444444,-0.063888889,1,0,0,0.73,optionRight,80,2490,2,1,0,1,0,1,,,,,,,,,,,,,,,,,,,,,,,,,,,,,,,,,,,,,,,
,,,,,,,,2023-08-16_08h44.19.261,HF_wild_card,2022.2.4,Win32,60.0240096,627e7e91d0e389328983e765,64d2fd46c836a06233681665,64dc7e2c11ceb89b77a08da1,,,,,,,ctch,resources/DP.BMP,resources/DB.BMP,Door3,0.364814815,-0.019444444,1,0,0,1.048,optionRight,70,2560,2,2,0,2,0,1,,,,,,,,,,,,,,,,,,,,,,,,,,,,,,,,,,,,,,,
,,,,,,,,2023-08-16_08h44.19.261,HF_wild_card,2022.2.4,Win32,60.0240096,627e7e91d0e389328983e765,64d2fd46c836a06233681665,64dc7e2c11ceb89b77a08da1,,,,,,,decisionTrl,resources/DB.BMP,resources/DG.BMP,Door4,0.367592593,-0.025925926,1,0,0,3.215,optionRight,80,2640,2,3,0,3,0,1,,,,,,,,,,,,,,,,,,,,,,,,,,,,,,,,,,,,,,,
,,,,,,,,2023-08-16_08h44.19.261,HF_wild_card,2022.2.4,Win32,60.0240096,627e7e91d0e389328983e765,64d2fd46c836a06233681665,64dc7e2c11ceb89b77a08da1,,,,,,,decisionTrl,resources/DG.BMP,resources/DBN.BMP,Door4,-0.372222222,0.001851852,1,0,0,1.331,optionLeft,60,2700,2,4,0,4,0,1,,,,,,,,,,,,,,,,,,,,,,,,,,,,,,,,,,,,,,,
,,,,,,,,2023-08-16_08h44.19.261,HF_wild_card,2022.2.4,Win32,60.0240096,627e7e91d0e389328983e765,64d2fd46c836a06233681665,64dc7e2c11ceb89b77a08da1,,,,,,,sngl,resources/DP.BMP,resources/Empty.png,Door2,-0.340740741,-0.037037037,1,0,0,1.014,optionLeft,20,2720,2,5,0,5,0,1,,,,,,,,,,,,,,,,,,,,,,,,,,,,,,,,,,,,,,,
,,,,,,,,2023-08-16_08h44.19.261,HF_wild_card,2022.2.4,Win32,60.0240096,627e7e91d0e389328983e765,64d2fd46c836a06233681665,64dc7e2c11ceb89b77a08da1,,,,,,,sngl,resources/Empty.png,resources/DBN.BMP,WildCard_NonEx,0.364814815,0.010185185,1,0,0,1.047,optionRight,45,2765,2,6,0,6,0,1,,,,,,,,,,,,,,,,,,,,,,,,,,,,,,,,,,,,,,,
,,,,,,,,2023-08-16_08h44.19.261,HF_wild_card,2022.2.4,Win32,60.0240096,627e7e91d0e389328983e765,64d2fd46c836a06233681665,64dc7e2c11ceb89b77a08da1,,,,,,,ctch,resources/DY.BMP,resources/DG.BMP,Door4,0.411111111,-0.00462963,1,0,0,1.566,optionRight,60,2825,2,7,0,7,0,1,,,,,,,,,,,,,,,,,,,,,,,,,,,,,,,,,,,,,,,
,,,,,,,,2023-08-16_08h44.19.261,HF_wild_card,2022.2.4,Win32,60.0240096,627e7e91d0e389328983e765,64d2fd46c836a06233681665,64dc7e2c11ceb89b77a08da1,,,,,,,decisionTrl,resources/DB.BMP,resources/DBN.BMP,Door3,-0.322222222,-0.018518519,1,0,0,1.281,optionLeft,70,2895,2,8,0,8,0,1,,,,,,,,,,,,,,,,,,,,,,,,,,,,,,,,,,,,,,,
,,,,,,,,2023-08-16_08h44.19.261,HF_wild_card,2022.2.4,Win32,60.0240096,627e7e91d0e389328983e765,64d2fd46c836a06233681665,64dc7e2c11ceb89b77a08da1,,,,,,,decisionTrl,resources/DY.BMP,resources/DBN.BMP,WildCard_NonEx,0.362962963,0.012037037,1,0,0,1.445,optionRight,45,2940,2,9,0,9,0,1,,,,,,,,,,,,,,,,,,,,,,,,,,,,,,,,,,,,,,,
,,,,,,,,2023-08-16_08h44.19.261,HF_wild_card,2022.2.4,Win32,60.0240096,627e7e91d0e389328983e765,64d2fd46c836a06233681665,64dc7e2c11ceb89b77a08da1,,,,,,,decisionTrl,resources/DY.BMP,resources/DP.BMP,Door2,0.406481481,-0.037037037,1,0,0,1.214,optionRight,40,2980,2,10,0,10,0,1,,,,,,,,,,,,,,,,,,,,,,,,,,,,,,,,,,,,,,,
,,,,,,,,2023-08-16_08h44.19.261,HF_wild_card,2022.2.4,Win32,60.0240096,627e7e91d0e389328983e765,64d2fd46c836a06233681665,64dc7e2c11ceb89b77a08da1,,,,,,,decisionTrl,resources/DY.BMP,resources/DP.BMP,Door2,0.364814815,-0.02962963,1,0,0,1.448,optionRight,40,3020,2,11,0,11,0,1,,,,,,,,,,,,,,,,,,,,,,,,,,,,,,,,,,,,,,,
,,,,,,,,2023-08-16_08h44.19.261,HF_wild_card,2022.2.4,Win32,60.0240096,627e7e91d0e389328983e765,64d2fd46c836a06233681665,64dc7e2c11ceb89b77a08da1,,,,,,,decisionTrl,resources/DG.BMP,resources/DB.BMP,Door4,-0.337962963,-0.026851852,1,0,0,1.964,optionLeft,80,3100,2,12,0,12,0,1,,,,,,,,,,,,,,,,,,,,,,,,,,,,,,,,,,,,,,,
,,,,,,,,2023-08-16_08h44.19.261,HF_wild_card,2022.2.4,Win32,60.0240096,627e7e91d0e389328983e765,64d2fd46c836a06233681665,64dc7e2c11ceb89b77a08da1,,,,,,,decisionTrl,resources/DB.BMP,resources/DG.BMP,Door4,0.37962963,-0.049074074,1,0,0,0.93,optionRight,60,3160,2,13,0,13,0,1,,,,,,,,,,,,,,,,,,,,,,,,,,,,,,,,,,,,,,,
,,,,,,,,2023-08-16_08h44.19.261,HF_wild_card,2022.2.4,Win32,60.0240096,627e7e91d0e389328983e765,64d2fd46c836a06233681665,64dc7e2c11ceb89b77a08da1,,,,,,,sngl,resources/DBN.BMP,resources/Empty.png,WildCard_NonEx,-0.34537037,0.011111111,1,0,0,1.514,optionLeft,45,3205,2,14,0,14,0,1,,,,,,,,,,,,,,,,,,,,,,,,,,,,,,,,,,,,,,,
,,,,,,,,2023-08-16_08h44.19.261,HF_wild_card,2022.2.4,Win32,60.0240096,627e7e91d0e389328983e765,64d2fd46c836a06233681665,64dc7e2c11ceb89b77a08da1,,,,,,,ctch,resources/DY.BMP,resources/DG.BMP,Door4,0.415740741,-0.02037037,1,0,0,1.248,optionRight,80,3285,2,15,0,15,0,1,,,,,,,,,,,,,,,,,,,,,,,,,,,,,,,,,,,,,,,
,,,,,,,,2023-08-16_08h44.19.261,HF_wild_card,2022.2.4,Win32,60.0240096,627e7e91d0e389328983e765,64d2fd46c836a06233681665,64dc7e2c11ceb89b77a08da1,,,,,,,sngl,resources/Empty.png,resources/DBN.BMP,WildCard_NonEx,0.441666667,0.002777778,1,0,0,0.898,optionRight,55,3340,2,16,0,16,0,1,,,,,,,,,,,,,,,,,,,,,,,,,,,,,,,,,,,,,,,
,,,,,,,,2023-08-16_08h44.19.261,HF_wild_card,2022.2.4,Win32,60.0240096,627e7e91d0e389328983e765,64d2fd46c836a06233681665,64dc7e2c11ceb89b77a08da1,,,,,,,sngl,resources/DB.BMP,resources/Empty.png,Door3,-0.37037037,0.015740741,1,0,0,0.815,optionLeft,70,3410,2,17,0,17,0,1,,,,,,,,,,,,,,,,,,,,,,,,,,,,,,,,,,,,,,,
,,,,,,,,2023-08-16_08h44.19.261,HF_wild_card,2022.2.4,Win32,60.0240096,627e7e91d0e389328983e765,64d2fd46c836a06233681665,64dc7e2c11ceb89b77a08da1,,,,,,,decisionTrl,resources/DB.BMP,resources/DG.BMP,Door4,0.423148148,-0.036111111,1,0,0,0.832,optionRight,60,3470,2,18,0,18,0,1,,,,,,,,,,,,,,,,,,,,,,,,,,,,,,,,,,,,,,,
,,,,,,,,2023-08-16_08h44.19.261,HF_wild_card,2022.2.4,Win32,60.0240096,627e7e91d0e389328983e765,64d2fd46c836a06233681665,64dc7e2c11ceb89b77a08da1,,,,,,,decisionTrl,resources/DG.BMP,resources/DB.BMP,Door4,-0.387962963,-0.010185185,1,0,0,0.982,optionLeft,60,3530,2,19,0,19,0,1,,,,,,,,,,,,,,,,,,,,,,,,,,,,,,,,,,,,,,,
,,,,,,,,2023-08-16_08h44.19.261,HF_wild_card,2022.2.4,Win32,60.0240096,627e7e91d0e389328983e765,64d2fd46c836a06233681665,64dc7e2c11ceb89b77a08da1,,,,,,,ctch,resources/DG.BMP,resources/DY.BMP,Door4,-0.350925926,-0.013888889,1,0,0,0.998,optionLeft,80,3610,2,20,0,20,0,1,,,,,,,,,,,,,,,,,,,,,,,,,,,,,,,,,,,,,,,
,,,,,,,,2023-08-16_08h44.19.261,HF_wild_card,2022.2.4,Win32,60.0240096,627e7e91d0e389328983e765,64d2fd46c836a06233681665,64dc7e2c11ceb89b77a08da1,,,,,,,ctch,resources/DB.BMP,resources/DP.BMP,Door2,0.363888889,-0.034259259,1,0,0,2.41,optionRight,20,3630,2,21,0,21,0,1,,,,,,,,,,,,,,,,,,,,,,,,,,,,,,,,,,,,,,,
,,,,,,,,2023-08-16_08h44.19.261,HF_wild_card,2022.2.4,Win32,60.0240096,627e7e91d0e389328983e765,64d2fd46c836a06233681665,64dc7e2c11ceb89b77a08da1,,,,,,,sngl,resources/Empty.png,resources/DB.BMP,Door3,0.347222222,-0.041666667,1,0,0,0.764,optionRight,70,3700,2,22,0,22,0,1,,,,,,,,,,,,,,,,,,,,,,,,,,,,,,,,,,,,,,,
,,,,,,,,2023-08-16_08h44.19.261,HF_wild_card,2022.2.4,Win32,60.0240096,627e7e91d0e389328983e765,64d2fd46c836a06233681665,64dc7e2c11ceb89b77a08da1,,,,,,,decisionTrl,resources/DBN.BMP,resources/DP.BMP,WildCard_NonEx,-0.335185185,-0.016666667,1,0,0,3.516,optionLeft,55,3755,2,23,0,23,0,1,,,,,,,,,,,,,,,,,,,,,,,,,,,,,,,,,,,,,,,
,,,,,,,,2023-08-16_08h44.19.261,HF_wild_card,2022.2.4,Win32,60.0240096,627e7e91d0e389328983e765,64d2fd46c836a06233681665,64dc7e2c11ceb89b77a08da1,,,,,,,decisionTrl,resources/DBN.BMP,resources/DB.BMP,Door3,0.332407407,-0.010185185,1,0,0,1.463,optionRight,70,3825,2,24,0,24,0,1,,,,,,,,,,,,,,,,,,,,,,,,,,,,,,,,,,,,,,,
,,,,,,,,2023-08-16_08h44.19.261,HF_wild_card,2022.2.4,Win32,60.0240096,627e7e91d0e389328983e765,64d2fd46c836a06233681665,64dc7e2c11ceb89b77a08da1,,,,,,,decisionTrl,resources/DP.BMP,resources/DY.BMP,Door2,-0.357407407,-0.023148148,1,0,0,1.78,optionLeft,20,3845,2,25,0,25,0,1,,,,,,,,,,,,,,,,,,,,,,,,,,,,,,,,,,,,,,,
,,,,,,,,2023-08-16_08h44.19.261,HF_wild_card,2022.2.4,Win32,60.0240096,627e7e91d0e389328983e765,64d2fd46c836a06233681665,64dc7e2c11ceb89b77a08da1,,,,,,,decisionTrl,resources/DG.BMP,resources/DB.BMP,Door4,-0.367592593,-0.021296296,1,0,0,1.23,optionLeft,80,3925,2,26,0,26,0,1,,,,,,,,,,,,,,,,,,,,,,,,,,,,,,,,,,,,,,,
,,,,,,,,2023-08-16_08h44.19.261,HF_wild_card,2022.2.4,Win32,60.0240096,627e7e91d0e389328983e765,64d2fd46c836a06233681665,64dc7e2c11ceb89b77a08da1,,,,,,,decisionTrl,resources/DBN.BMP,resources/DY.BMP,WildCard_NonEx,-0.427777778,-0.036111111,1,0,0,1.448,optionLeft,45,3970,2,27,0,27,0,1,,,,,,,,,,,,,,,,,,,,,,,,,,,,,,,,,,,,,,,
,,,,,,,,2023-08-16_08h44.19.261,HF_wild_card,2022.2.4,Win32,60.0240096,627e7e91d0e389328983e765,64d2fd46c836a06233681665,64dc7e2c11ceb89b77a08da1,,,,,,,decisionTrl,resources/DP.BMP,resources/DBN.BMP,WildCard_NonEx,0.342592593,-0.024074074,1,0,0,2.282,optionRight,55,4025,2,28,0,28,0,1,,,,,,,,,,,,,,,,,,,,,,,,,,,,,,,,,,,,,,,
,,,,,,,,2023-08-16_08h44.19.261,HF_wild_card,2022.2.4,Win32,60.0240096,627e7e91d0e389328983e765,64d2fd46c836a06233681665,64dc7e2c11ceb89b77a08da1,,,,,,,ctch,resources/DB.BMP,resources/DP.BMP,Door2,0.428703704,-0.025,1,0,0,2.18,optionRight,40,4065,2,29,0,29,0,1,,,,,,,,,,,,,,,,,,,,,,,,,,,,,,,,,,,,,,,
,,,,,,,,2023-08-16_08h44.19.261,HF_wild_card,2022.2.4,Win32,60.0240096,627e7e91d0e389328983e765,64d2fd46c836a06233681665,64dc7e2c11ceb89b77a08da1,,,,,,,sngl,resources/DG.BMP,resources/Empty.png,Door4,-0.365740741,-0.001851852,1,0,0,0.764,optionLeft,60,4125,2,30,0,30,0,1,,,,,,,,,,,,,,,,,,,,,,,,,,,,,,,,,,,,,,,
,,,,,,,,2023-08-16_08h44.19.261,HF_wild_card,2022.2.4,Win32,60.0240096,627e7e91d0e389328983e765,64d2fd46c836a06233681665,64dc7e2c11ceb89b77a08da1,,,,,,,decisionTrl,resources/DY.BMP,resources/DP.BMP,Door2,0.312037037,-0.040740741,1,0,0,1.429,optionRight,40,4165,2,31,0,31,0,1,,,,,,,,,,,,,,,,,,,,,,,,,,,,,,,,,,,,,,,
,,,,,,,,2023-08-16_08h44.19.261,HF_wild_card,2022.2.4,Win32,60.0240096,627e7e91d0e389328983e765,64d2fd46c836a06233681665,64dc7e2c11ceb89b77a08da1,,,,,,,decisionTrl,resources/DBN.BMP,resources/DG.BMP,Door4,0.382407407,-0.023148148,1,0,0,0.997,optionRight,60,4225,2,32,0,32,0,1,,,,,,,,,,,,,,,,,,,,,,,,,,,,,,,,,,,,,,,
,,,,,,,,2023-08-16_08h44.19.261,HF_wild_card,2022.2.4,Win32,60.0240096,627e7e91d0e389328983e765,64d2fd46c836a06233681665,64dc7e2c11ceb89b77a08da1,,,,,,,sngl,resources/Empty.png,resources/DY.BMP,Door1,0.39537037,-0.015740741,1,0,0,0.865,optionRight,30,4255,2,33,0,33,0,1,,,,,,,,,,,,,,,,,,,,,,,,,,,,,,,,,,,,,,,
,,,,,,,,2023-08-16_08h44.19.261,HF_wild_card,2022.2.4,Win32,60.0240096,627e7e91d0e389328983e765,64d2fd46c836a06233681665,64dc7e2c11ceb89b77a08da1,,,,,,,sngl,resources/Empty.png,resources/DP.BMP,Door2,0.410185185,-0.025,1,0,0,0.931,optionRight,40,4295,2,34,0,34,0,1,,,,,,,,,,,,,,,,,,,,,,,,,,,,,,,,,,,,,,,
,,,,,,,,2023-08-16_08h44.19.261,HF_wild_card,2022.2.4,Win32,60.0240096,627e7e91d0e389328983e765,64d2fd46c836a06233681665,64dc7e2c11ceb89b77a08da1,,,,,,,decisionTrl,resources/DG.BMP,resources/DB.BMP,Door4,-0.365740741,0.00462963,1,0,0,1.012,optionLeft,60,4355,2,35,0,35,0,1,,,,,,,,,,,,,,,,,,,,,,,,,,,,,,,,,,,,,,,
,,,,,,,,2023-08-16_08h44.19.261,HF_wild_card,2022.2.4,Win32,60.0240096,627e7e91d0e389328983e765,64d2fd46c836a06233681665,64dc7e2c11ceb89b77a08da1,,,,,,,decisionTrl,resources/DP.BMP,resources/DY.BMP,Door2,-0.364814815,-0.016666667,1,0,0,1.948,optionLeft,20,4375,2,36,0,36,0,1,,,,,,,,,,,,,,,,,,,,,,,,,,,,,,,,,,,,,,,
,,,,,,,,2023-08-16_08h44.19.261,HF_wild_card,2022.2.4,Win32,60.0240096,627e7e91d0e389328983e765,64d2fd46c836a06233681665,64dc7e2c11ceb89b77a08da1,,,,,,,decisionTrl,resources/DP.BMP,resources/DY.BMP,Door1,0.482407407,-0.014814815,1,0,0,1.248,optionRight,30,4405,2,37,0,37,0,1,,,,,,,,,,,,,,,,,,,,,,,,,,,,,,,,,,,,,,,
,,,,,,,,2023-08-16_08h44.19.261,HF_wild_card,2022.2.4,Win32,60.0240096,627e7e91d0e389328983e765,64d2fd46c836a06233681665,64dc7e2c11ceb89b77a08da1,,,,,,,decisionTrl,resources/DB.BMP,resources/DG.BMP,Door4,0.391666667,-0.001851852,1,0,0,0.948,optionRight,60,4465,2,38,0,38,0,1,,,,,,,,,,,,,,,,,,,,,,,,,,,,,,,,,,,,,,,
,,,,,,,,2023-08-16_08h44.19.261,HF_wild_card,2022.2.4,Win32,60.0240096,627e7e91d0e389328983e765,64d2fd46c836a06233681665,64dc7e2c11ceb89b77a08da1,,,,,,,ctch,resources/DP.BMP,resources/DB.BMP,Door3,0.376851852,-0.013888889,1,0,0,1.165,optionRight,70,4535,2,39,0,39,0,1,,,,,,,,,,,,,,,,,,,,,,,,,,,,,,,,,,,,,,,
,,,,,,,,2023-08-16_08h44.19.261,HF_wild_card,2022.2.4,Win32,60.0240096,627e7e91d0e389328983e765,64d2fd46c836a06233681665,64dc7e2c11ceb89b77a08da1,,,,,,,sngl,resources/DY.BMP,resources/Empty.png,Door1,-0.367592593,-0.010185185,1,0,0,0.93,optionLeft,30,4565,2,40,0,40,0,1,,,,,,,,,,,,,,,,,,,,,,,,,,,,,,,,,,,,,,,
,,,,,,,,2023-08-16_08h44.19.261,HF_wild_card,2022.2.4,Win32,60.0240096,627e7e91d0e389328983e765,64d2fd46c836a06233681665,64dc7e2c11ceb89b77a08da1,,,,,,,decisionTrl,resources/DY.BMP,resources/DP.BMP,Door1,-0.368518519,-0.031481481,1,0,0,1.647,optionLeft,30,4595,2,41,0,41,0,1,,,,,,,,,,,,,,,,,,,,,,,,,,,,,,,,,,,,,,,
,,,,,,,,2023-08-16_08h44.19.261,HF_wild_card,2022.2.4,Win32,60.0240096,627e7e91d0e389328983e765,64d2fd46c836a06233681665,64dc7e2c11ceb89b77a08da1,,,,,,,sngl,resources/DBN.BMP,resources/Empty.png,WildCard_NonEx,-0.375,-0.013888889,1,0,0,0.798,optionLeft,55,4650,2,42,0,42,0,1,,,,,,,,,,,,,,,,,,,,,,,,,,,,,,,,,,,,,,,
,,,,,,,,2023-08-16_08h44.19.261,HF_wild_card,2022.2.4,Win32,60.0240096,627e7e91d0e389328983e765,64d2fd46c836a06233681665,64dc7e2c11ceb89b77a08da1,,,,,,,ctch,resources/DG.BMP,resources/DY.BMP,Door4,-0.355555556,-0.016666667,1,0,0,1.08,optionLeft,60,4710,2,43,0,43,0,1,,,,,,,,,,,,,,,,,,,,,,,,,,,,,,,,,,,,,,,
,,,,,,,,2023-08-16_08h44.19.261,HF_wild_card,2022.2.4,Win32,60.0240096,627e7e91d0e389328983e765,64d2fd46c836a06233681665,64dc7e2c11ceb89b77a08da1,,,,,,,,,,,,,,,,,,,,,,,,,,1,0,1,0,1,,,,,,,,,,,,,,,,,,,,,,,,,,,,,,,,,,
,,,,,,,,2023-08-16_08h44.19.261,HF_wild_card,2022.2.4,Win32,60.0240096,627e7e91d0e389328983e765,64d2fd46c836a06233681665,64dc7e2c11ceb89b77a08da1,,,,,,,decisionTrl,resources/DP.BMP,resources/DBN.BMP,WildCard_NonEx,0.35462963,-0.041666667,1,0,0,1.922,optionRight,45,4755,3,0,0,0,0,1,,,,,,,,,,,,,,,,,,,,,,,,,,,,,,,,,,,,,,,
,,,,,,,,2023-08-16_08h44.19.261,HF_wild_card,2022.2.4,Win32,60.0240096,627e7e91d0e389328983e765,64d2fd46c836a06233681665,64dc7e2c11ceb89b77a08da1,,,,,,,ctch,resources/DP.BMP,resources/DB.BMP,Door3,0.365740741,-0.046296296,1,0,0,1.681,optionRight,70,4825,3,1,0,1,0,1,,,,,,,,,,,,,,,,,,,,,,,,,,,,,,,,,,,,,,,
,,,,,,,,2023-08-16_08h44.19.261,HF_wild_card,2022.2.4,Win32,60.0240096,627e7e91d0e389328983e765,64d2fd46c836a06233681665,64dc7e2c11ceb89b77a08da1,,,,,,,sngl,resources/DG.BMP,resources/Empty.png,Door4,-0.318518519,-0.008333333,1,0,0,0.714,optionLeft,80,4905,3,2,0,2,0,1,,,,,,,,,,,,,,,,,,,,,,,,,,,,,,,,,,,,,,,
,,,,,,,,2023-08-16_08h44.19.261,HF_wild_card,2022.2.4,Win32,60.0240096,627e7e91d0e389328983e765,64d2fd46c836a06233681665,64dc7e2c11ceb89b77a08da1,,,,,,,sngl,resources/DP.BMP,resources/Empty.png,Door2,-0.385185185,-0.016666667,1,0,0,0.764,optionLeft,40,4945,3,3,0,3,0,1,,,,,,,,,,,,,,,,,,,,,,,,,,,,,,,,,,,,,,,
,,,,,,,,2023-08-16_08h44.19.261,HF_wild_card,2022.2.4,Win32,60.0240096,627e7e91d0e389328983e765,64d2fd46c836a06233681665,64dc7e2c11ceb89b77a08da1,,,,,,,sngl,resources/DB.BMP,resources/Empty.png,Door3,-0.367592593,-0.003703704,1,0,0,0.748,optionLeft,70,5015,3,4,0,4,0,1,,,,,,,,,,,,,,,,,,,,,,,,,,,,,,,,,,,,,,,
,,,,,,,,2023-08-16_08h44.19.261,HF_wild_card,2022.2.4,Win32,60.0240096,627e7e91d0e389328983e765,64d2fd46c836a06233681665,64dc7e2c11ceb89b77a08da1,,,,,,,decisionTrl,resources/DBN.BMP,resources/DP.BMP,Door2,0.356481481,-0.024074074,1,0,0,1.831,optionRight,20,5035,3,5,0,5,0,1,,,,,,,,,,,,,,,,,,,,,,,,,,,,,,,,,,,,,,,
,,,,,,,,2023-08-16_08h44.19.261,HF_wild_card,2022.2.4,Win32,60.0240096,627e7e91d0e389328983e765,64d2fd46c836a06233681665,64dc7e2c11ceb89b77a08da1,,,,,,,ctch,resources/DG.BMP,resources/DY.BMP,Door4,-0.366666667,-0.019444444,1,0,0,0.899,optionLeft,80,5115,3,6,0,6,0,1,,,,,,,,,,,,,,,,,,,,,,,,,,,,,,,,,,,,,,,
,,,,,,,,2023-08-16_08h44.19.261,HF_wild_card,2022.2.4,Win32,60.0240096,627e7e91d0e389328983e765,64d2fd46c836a06233681665,64dc7e2c11ceb89b77a08da1,,,,,,,ctch,resources/DP.BMP,resources/DB.BMP,Door3,0.385185185,-0.026851852,1,0,0,1.232,optionRight,70,5185,3,7,0,7,0,1,,,,,,,,,,,,,,,,,,,,,,,,,,,,,,,,,,,,,,,
,,,,,,,,2023-08-16_08h44.19.261,HF_wild_card,2022.2.4,Win32,60.0240096,627e7e91d0e389328983e765,64d2fd46c836a06233681665,64dc7e2c11ceb89b77a08da1,,,,,,,sngl,resources/Empty.png,resources/DY.BMP,Door1,0.408333333,-0.046296296,1,0,0,0.798,optionRight,30,5215,3,8,0,8,0,1,,,,,,,,,,,,,,,,,,,,,,,,,,,,,,,,,,,,,,,
,,,,,,,,2023-08-16_08h44.19.261,HF_wild_card,2022.2.4,Win32,60.0240096,627e7e91d0e389328983e765,64d2fd46c836a06233681665,64dc7e2c11ceb89b77a08da1,,,,,,,sngl,resources/Empty.png,resources/DB.BMP,Door3,0.332407407,-0.015740741,1,0,0,0.895,optionRight,70,5285,3,9,0,9,0,1,,,,,,,,,,,,,,,,,,,,,,,,,,,,,,,,,,,,,,,
,,,,,,,,2023-08-16_08h44.19.261,HF_wild_card,2022.2.4,Win32,60.0240096,627e7e91d0e389328983e765,64d2fd46c836a06233681665,64dc7e2c11ceb89b77a08da1,,,,,,,sngl,resources/DY.BMP,resources/Empty.png,Door1,-0.344444444,0.006481481,1,0,0,0.782,optionLeft,30,5315,3,10,0,10,0,1,,,,,,,,,,,,,,,,,,,,,,,,,,,,,,,,,,,,,,,
,,,,,,,,2023-08-16_08h44.19.261,HF_wild_card,2022.2.4,Win32,60.0240096,627e7e91d0e389328983e765,64d2fd46c836a06233681665,64dc7e2c11ceb89b77a08da1,,,,,,,ctch,resources/DY.BMP,resources/DG.BMP,Door4,0.380555556,-0.035185185,1,0,0,0.947,optionRight,80,5395,3,11,0,11,0,1,,,,,,,,,,,,,,,,,,,,,,,,,,,,,,,,,,,,,,,
,,,,,,,,2023-08-16_08h44.19.261,HF_wild_card,2022.2.4,Win32,60.0240096,627e7e91d0e389328983e765,64d2fd46c836a06233681665,64dc7e2c11ceb89b77a08da1,,,,,,,decisionTrl,resources/DP.BMP,resources/DY.BMP,Door2,-0.403703704,-0.026851852,1,0,0,1.616,optionLeft,20,5415,3,12,0,12,0,1,,,,,,,,,,,,,,,,,,,,,,,,,,,,,,,,,,,,,,,
,,,,,,,,2023-08-16_08h44.19.261,HF_wild_card,2022.2.4,Win32,60.0240096,627e7e91d0e389328983e765,64d2fd46c836a06233681665,64dc7e2c11ceb89b77a08da1,,,,,,,decisionTrl,resources/DY.BMP,resources/DBN.BMP,WildCard_NonEx,0.332407407,-0.012962963,1,0,0,1.132,optionRight,55,5470,3,13,0,13,0,1,,,,,,,,,,,,,,,,,,,,,,,,,,,,,,,,,,,,,,,
,,,,,,,,2023-08-16_08h44.19.261,HF_wild_card,2022.2.4,Win32,60.0240096,627e7e91d0e389328983e765,64d2fd46c836a06233681665,64dc7e2c11ceb89b77a08da1,,,,,,,decisionTrl,resources/DG.BMP,resources/DB.BMP,Door4,-0.347222222,-0.019444444,1,0,0,1.115,optionLeft,60,5530,3,14,0,14,0,1,,,,,,,,,,,,,,,,,,,,,,,,,,,,,,,,,,,,,,,
,,,,,,,,2023-08-16_08h44.19.261,HF_wild_card,2022.2.4,Win32,60.0240096,627e7e91d0e389328983e765,64d2fd46c836a06233681665,64dc7e2c11ceb89b77a08da1,,,,,,,decisionTrl,resources/DBN.BMP,resources/DG.BMP,Door4,0.402777778,-0.012037037,1,0,0,0.966,optionRight,80,5610,3,15,0,15,0,1,,,,,,,,,,,,,,,,,,,,,,,,,,,,,,,,,,,,,,,
,,,,,,,,2023-08-16_08h44.19.261,HF_wild_card,2022.2.4,Win32,60.0240096,627e7e91d0e389328983e765,64d2fd46c836a06233681665,64dc7e2c11ceb89b77a08da1,,,,,,,decisionTrl,resources/DB.BMP,resources/DBN.BMP,WildCard_NonEx,0.309259259,-0.025925926,1,0,0,2.248,optionRight,45,5655,3,16,0,16,0,1,,,,,,,,,,,,,,,,,,,,,,,,,,,,,,,,,,,,,,,
,,,,,,,,2023-08-16_08h44.19.261,HF_wild_card,2022.2.4,Win32,60.0240096,627e7e91d0e389328983e765,64d2fd46c836a06233681665,64dc7e2c11ceb89b77a08da1,,,,,,,decisionTrl,resources/DB.BMP,resources/DG.BMP,Door4,0.408333333,-0.025925926,1,0,0,0.915,optionRight,80,5735,3,17,0,17,0,1,,,,,,,,,,,,,,,,,,,,,,,,,,,,,,,,,,,,,,,
,,,,,,,,2023-08-16_08h44.19.261,HF_wild_card,2022.2.4,Win32,60.0240096,627e7e91d0e389328983e765,64d2fd46c836a06233681665,64dc7e2c11ceb89b77a08da1,,,,,,,ctch,resources/DY.BMP,resources/DG.BMP,Door4,0.485185185,-0.015740741,1,0,0,0.713,optionRight,80,5815,3,18,0,18,0,1,,,,,,,,,,,,,,,,,,,,,,,,,,,,,,,,,,,,,,,
,,,,,,,,2023-08-16_08h44.19.261,HF_wild_card,2022.2.4,Win32,60.0240096,627e7e91d0e389328983e765,64d2fd46c836a06233681665,64dc7e2c11ceb89b77a08da1,,,,,,,decisionTrl,resources/DBN.BMP,resources/DY.BMP,WildCard_NonEx,-0.380555556,-0.006481481,1,0,0,2.981,optionLeft,45,5860,3,19,0,19,0,1,,,,,,,,,,,,,,,,,,,,,,,,,,,,,,,,,,,,,,,
,,,,,,,,2023-08-16_08h44.19.261,HF_wild_card,2022.2.4,Win32,60.0240096,627e7e91d0e389328983e765,64d2fd46c836a06233681665,64dc7e2c11ceb89b77a08da1,,,,,,,decisionTrl,resources/DP.BMP,resources/DY.BMP,Door2,-0.294444444,-0.035185185,1,0,0,1.329,optionLeft,40,5900,3,20,0,20,0,1,,,,,,,,,,,,,,,,,,,,,,,,,,,,,,,,,,,,,,,
,,,,,,,,2023-08-16_08h44.19.261,HF_wild_card,2022.2.4,Win32,60.0240096,627e7e91d0e389328983e765,64d2fd46c836a06233681665,64dc7e2c11ceb89b77a08da1,,,,,,,sngl,resources/Empty.png,resources/DBN.BMP,WildCard_NonEx,0.390740741,-0.02037037,1,0,0,0.715,optionRight,45,5945,3,21,0,21,0,1,,,,,,,,,,,,,,,,,,,,,,,,,,,,,,,,,,,,,,,
,,,,,,,,2023-08-16_08h44.19.261,HF_wild_card,2022.2.4,Win32,60.0240096,627e7e91d0e389328983e765,64d2fd46c836a06233681665,64dc7e2c11ceb89b77a08da1,,,,,,,ctch,resources/DB.BMP,resources/DP.BMP,Door2,0.372222222,-0.02037037,1,0,0,2.087,optionRight,20,5965,3,22,0,22,0,1,,,,,,,,,,,,,,,,,,,,,,,,,,,,,,,,,,,,,,,
,,,,,,,,2023-08-16_08h44.19.261,HF_wild_card,2022.2.4,Win32,60.0240096,627e7e91d0e389328983e765,64d2fd46c836a06233681665,64dc7e2c11ceb89b77a08da1,,,,,,,decisionTrl,resources/DY.BMP,resources/DP.BMP,Door1,-0.378703704,-0.018518519,1,0,0,1.565,optionLeft,30,5995,3,23,0,23,0,1,,,,,,,,,,,,,,,,,,,,,,,,,,,,,,,,,,,,,,,
,,,,,,,,2023-08-16_08h44.19.261,HF_wild_card,2022.2.4,Win32,60.0240096,627e7e91d0e389328983e765,64d2fd46c836a06233681665,64dc7e2c11ceb89b77a08da1,,,,,,,decisionTrl,resources/DG.BMP,resources/DB.BMP,Door4,-0.372222222,-0.030555556,1,0,0,0.98,optionLeft,60,6055,3,24,0,24,0,1,,,,,,,,,,,,,,,,,,,,,,,,,,,,,,,,,,,,,,,
,,,,,,,,2023-08-16_08h44.19.261,HF_wild_card,2022.2.4,Win32,60.0240096,627e7e91d0e389328983e765,64d2fd46c836a06233681665,64dc7e2c11ceb89b77a08da1,,,,,,,sngl,resources/Empty.png,resources/DP.BMP,Door2,0.410185185,-0.008333333,1,0,0,0.781,optionRight,20,6075,3,25,0,25,0,1,,,,,,,,,,,,,,,,,,,,,,,,,,,,,,,,,,,,,,,
,,,,,,,,2023-08-16_08h44.19.261,HF_wild_card,2022.2.4,Win32,60.0240096,627e7e91d0e389328983e765,64d2fd46c836a06233681665,64dc7e2c11ceb89b77a08da1,,,,,,,decisionTrl,resources/DY.BMP,resources/DP.BMP,Door2,0.506481481,-0.027777778,1,0,0,2.331,optionRight,40,6115,3,26,0,26,0,1,,,,,,,,,,,,,,,,,,,,,,,,,,,,,,,,,,,,,,,
,,,,,,,,2023-08-16_08h44.19.261,HF_wild_card,2022.2.4,Win32,60.0240096,627e7e91d0e389328983e765,64d2fd46c836a06233681665,64dc7e2c11ceb89b77a08da1,,,,,,,ctch,resources/DG.BMP,resources/DY.BMP,Door4,-0.383333333,0.034259259,1,0,0,1.127,optionLeft,60,6175,3,27,0,27,0,1,,,,,,,,,,,,,,,,,,,,,,,,,,,,,,,,,,,,,,,
,,,,,,,,2023-08-16_08h44.19.261,HF_wild_card,2022.2.4,Win32,60.0240096,627e7e91d0e389328983e765,64d2fd46c836a06233681665,64dc7e2c11ceb89b77a08da1,,,,,,,sngl,resources/Empty.png,resources/DBN.BMP,WildCard_NonEx,0.299074074,-0.003703704,1,0,0,0.73,optionRight,55,6230,3,28,0,28,0,1,,,,,,,,,,,,,,,,,,,,,,,,,,,,,,,,,,,,,,,
,,,,,,,,2023-08-16_08h44.19.261,HF_wild_card,2022.2.4,Win32,60.0240096,627e7e91d0e389328983e765,64d2fd46c836a06233681665,64dc7e2c11ceb89b77a08da1,,,,,,,sngl,resources/Empty.png,resources/DG.BMP,Door4,0.369444444,-0.011111111,1,0,0,0.831,optionRight,60,6290,3,29,0,29,0,1,,,,,,,,,,,,,,,,,,,,,,,,,,,,,,,,,,,,,,,
,,,,,,,,2023-08-16_08h44.19.261,HF_wild_card,2022.2.4,Win32,60.0240096,627e7e91d0e389328983e765,64d2fd46c836a06233681665,64dc7e2c11ceb89b77a08da1,,,,,,,decisionTrl,resources/DB.BMP,resources/DG.BMP,Door4,0.387962963,-0.012962963,1,0,0,0.812,optionRight,80,6370,3,30,0,30,0,1,,,,,,,,,,,,,,,,,,,,,,,,,,,,,,,,,,,,,,,
,,,,,,,,2023-08-16_08h44.19.261,HF_wild_card,2022.2.4,Win32,60.0240096,627e7e91d0e389328983e765,64d2fd46c836a06233681665,64dc7e2c11ceb89b77a08da1,,,,,,,decisionTrl,resources/DB.BMP,resources/DG.BMP,Door4,0.411111111,-0.043518519,1,0,0,0.747,optionRight,60,6430,3,31,0,31,0,1,,,,,,,,,,,,,,,,,,,,,,,,,,,,,,,,,,,,,,,
,,,,,,,,2023-08-16_08h44.19.261,HF_wild_card,2022.2.4,Win32,60.0240096,627e7e91d0e389328983e765,64d2fd46c836a06233681665,64dc7e2c11ceb89b77a08da1,,,,,,,sngl,resources/DBN.BMP,resources/Empty.png,WildCard_NonEx,-0.39537037,0.019444444,1,0,0,0.681,optionLeft,45,6475,3,32,0,32,0,1,,,,,,,,,,,,,,,,,,,,,,,,,,,,,,,,,,,,,,,
,,,,,,,,2023-08-16_08h44.19.261,HF_wild_card,2022.2.4,Win32,60.0240096,627e7e91d0e389328983e765,64d2fd46c836a06233681665,64dc7e2c11ceb89b77a08da1,,,,,,,decisionTrl,resources/DG.BMP,resources/DB.BMP,Door4,-0.32037037,-0.009259259,1,0,0,0.848,optionLeft,80,6555,3,33,0,33,0,1,,,,,,,,,,,,,,,,,,,,,,,,,,,,,,,,,,,,,,,
,,,,,,,,2023-08-16_08h44.19.261,HF_wild_card,2022.2.4,Win32,60.0240096,627e7e91d0e389328983e765,64d2fd46c836a06233681665,64dc7e2c11ceb89b77a08da1,,,,,,,ctch,resources/DB.BMP,resources/DP.BMP,Door3,-0.32962963,-0.011111111,1,0,0,1.164,optionLeft,70,6625,3,34,0,34,0,1,,,,,,,,,,,,,,,,,,,,,,,,,,,,,,,,,,,,,,,
,,,,,,,,2023-08-16_08h44.19.261,HF_wild_card,2022.2.4,Win32,60.0240096,627e7e91d0e389328983e765,64d2fd46c836a06233681665,64dc7e2c11ceb89b77a08da1,,,,,,,decisionTrl,resources/DBN.BMP,resources/DB.BMP,Door3,0.336111111,-0.049074074,1,0,0,0.964,optionRight,70,6695,3,35,0,35,0,1,,,,,,,,,,,,,,,,,,,,,,,,,,,,,,,,,,,,,,,
,,,,,,,,2023-08-16_08h44.19.261,HF_wild_card,2022.2.4,Win32,60.0240096,627e7e91d0e389328983e765,64d2fd46c836a06233681665,64dc7e2c11ceb89b77a08da1,,,,,,,decisionTrl,resources/DP.BMP,resources/DY.BMP,Door2,-0.351851852,-0.005555556,1,0,0,0.932,optionLeft,40,6735,3,36,0,36,0,1,,,,,,,,,,,,,,,,,,,,,,,,,,,,,,,,,,,,,,,
,,,,,,,,2023-08-16_08h44.19.261,HF_wild_card,2022.2.4,Win32,60.0240096,627e7e91d0e389328983e765,64d2fd46c836a06233681665,64dc7e2c11ceb89b77a08da1,,,,,,,decisionTrl,resources/DB.BMP,resources/DG.BMP,Door4,0.353703704,-0.025,1,0,0,1.011,optionRight,80,6815,3,37,0,37,0,1,,,,,,,,,,,,,,,,,,,,,,,,,,,,,,,,,,,,,,,
,,,,,,,,2023-08-16_08h44.19.261,HF_wild_card,2022.2.4,Win32,60.0240096,627e7e91d0e389328983e765,64d2fd46c836a06233681665,64dc7e2c11ceb89b77a08da1,,,,,,,decisionTrl,resources/DY.BMP,resources/DP.BMP,Door1,-0.296296296,-0.016666667,1,0,0,2.098,optionLeft,30,6845,3,38,0,38,0,1,,,,,,,,,,,,,,,,,,,,,,,,,,,,,,,,,,,,,,,
,,,,,,,,2023-08-16_08h44.19.261,HF_wild_card,2022.2.4,Win32,60.0240096,627e7e91d0e389328983e765,64d2fd46c836a06233681665,64dc7e2c11ceb89b77a08da1,,,,,,,decisionTrl,resources/DY.BMP,resources/DP.BMP,Door1,-0.298148148,-0.009259259,1,0,0,1.531,optionLeft,30,6875,3,39,0,39,0,1,,,,,,,,,,,,,,,,,,,,,,,,,,,,,,,,,,,,,,,
,,,,,,,,2023-08-16_08h44.19.261,HF_wild_card,2022.2.4,Win32,60.0240096,627e7e91d0e389328983e765,64d2fd46c836a06233681665,64dc7e2c11ceb89b77a08da1,,,,,,,decisionTrl,resources/DG.BMP,resources/DBN.BMP,Door4,-0.378703704,0.00462963,1,0,0,1.014,optionLeft,80,6955,3,40,0,40,0,1,,,,,,,,,,,,,,,,,,,,,,,,,,,,,,,,,,,,,,,
,,,,,,,,2023-08-16_08h44.19.261,HF_wild_card,2022.2.4,Win32,60.0240096,627e7e91d0e389328983e765,64d2fd46c836a06233681665,64dc7e2c11ceb89b77a08da1,,,,,,,decisionTrl,resources/DP.BMP,resources/DY.BMP,Door1,0.309259259,-0.044444444,1,0,0,1.331,optionRight,30,6985,3,41,0,41,0,1,,,,,,,,,,,,,,,,,,,,,,,,,,,,,,,,,,,,,,,
,,,,,,,,2023-08-16_08h44.19.261,HF_wild_card,2022.2.4,Win32,60.0240096,627e7e91d0e389328983e765,64d2fd46c836a06233681665,64dc7e2c11ceb89b77a08da1,,,,,,,decisionTrl,resources/DG.BMP,resources/DB.BMP,Door4,-0.412037037,-0.008333333,1,0,0,0.816,optionLeft,80,7065,3,42,0,42,0,1,,,,,,,,,,,,,,,,,,,,,,,,,,,,,,,,,,,,,,,
,,,,,,,,2023-08-16_08h44.19.261,HF_wild_card,2022.2.4,Win32,60.0240096,627e7e91d0e389328983e765,64d2fd46c836a06233681665,64dc7e2c11ceb89b77a08da1,,,,,,,sngl,resources/DBN.BMP,resources/Empty.png,WildCard_NonEx,-0.252777778,-0.009259259,1,0,0,0.848,optionLeft,55,7120,3,43,0,43,0,1,,,,,,,,,,,,,,,,,,,,,,,,,,,,,,,,,,,,,,,
,,,,,,,,2023-08-16_08h44.19.261,HF_wild_card,2022.2.4,Win32,60.0240096,627e7e91d0e389328983e765,64d2fd46c836a06233681665,64dc7e2c11ceb89b77a08da1,,,,,,,,,,,,,,,,,,,,,,,,,,2,0,2,0,1,,,,,,,,,,,,,,,,,,,,,,,,,,,,,,,,,,
,,,,,,,,2023-08-16_08h44.19.261,HF_wild_card,2022.2.4,Win32,60.0240096,627e7e91d0e389328983e765,64d2fd46c836a06233681665,64dc7e2c11ceb89b77a08da1,,,,,,,sngl,resources/Empty.png,resources/DR.BMP,WildCard_Ex,0.419444444,-0.039814815,1,0,0,2.163,optionRight,55,7175,4,0,0,0,0,1,,,,,,,,,,,,,,,,,,,,,,,,,,,,,,,,,,,,,,,
,,,,,,,,2023-08-16_08h44.19.261,HF_wild_card,2022.2.4,Win32,60.0240096,627e7e91d0e389328983e765,64d2fd46c836a06233681665,64dc7e2c11ceb89b77a08da1,,,,,,,ctch,resources/DY.BMP,resources/DG.BMP,Door4,0.440740741,-0.00462963,1,0,0,1.346,optionRight,60,7235,4,1,0,1,0,1,,,,,,,,,,,,,,,,,,,,,,,,,,,,,,,,,,,,,,,
,,,,,,,,2023-08-16_08h44.19.261,HF_wild_card,2022.2.4,Win32,60.0240096,627e7e91d0e389328983e765,64d2fd46c836a06233681665,64dc7e2c11ceb89b77a08da1,,,,,,,decisionTrl,resources/DB.BMP,resources/DG.BMP,Door4,0.415740741,-0.025,1,0,0,0.814,optionRight,60,7295,4,2,0,2,0,1,,,,,,,,,,,,,,,,,,,,,,,,,,,,,,,,,,,,,,,
,,,,,,,,2023-08-16_08h44.19.261,HF_wild_card,2022.2.4,Win32,60.0240096,627e7e91d0e389328983e765,64d2fd46c836a06233681665,64dc7e2c11ceb89b77a08da1,,,,,,,ctch,resources/DG.BMP,resources/DY.BMP,Door4,-0.396296296,0.005555556,1,0,0,0.931,optionLeft,60,7355,4,3,0,3,0,1,,,,,,,,,,,,,,,,,,,,,,,,,,,,,,,,,,,,,,,
,,,,,,,,2023-08-16_08h44.19.261,HF_wild_card,2022.2.4,Win32,60.0240096,627e7e91d0e389328983e765,64d2fd46c836a06233681665,64dc7e2c11ceb89b77a08da1,,,,,,,ctch,resources/DP.BMP,resources/DB.BMP,Door3,0.433333333,-0.019444444,1,0,0,1.898,optionRight,70,7425,4,4,0,4,0,1,,,,,,,,,,,,,,,,,,,,,,,,,,,,,,,,,,,,,,,
,,,,,,,,2023-08-16_08h44.19.261,HF_wild_card,2022.2.4,Win32,60.0240096,627e7e91d0e389328983e765,64d2fd46c836a06233681665,64dc7e2c11ceb89b77a08da1,,,,,,,sngl,resources/Empty.png,resources/DB.BMP,Door3,0.418518519,-0.032407407,1,0,0,0.73,optionRight,70,7495,4,5,0,5,0,1,,,,,,,,,,,,,,,,,,,,,,,,,,,,,,,,,,,,,,,
,,,,,,,,2023-08-16_08h44.19.261,HF_wild_card,2022.2.4,Win32,60.0240096,627e7e91d0e389328983e765,64d2fd46c836a06233681665,64dc7e2c11ceb89b77a08da1,,,,,,,sngl,resources/DP.BMP,resources/Empty.png,Door2,-0.356481481,-0.000925926,1,0,0,1.063,optionLeft,20,7515,4,6,0,6,0,1,,,,,,,,,,,,,,,,,,,,,,,,,,,,,,,,,,,,,,,
,,,,,,,,2023-08-16_08h44.19.261,HF_wild_card,2022.2.4,Win32,60.0240096,627e7e91d0e389328983e765,64d2fd46c836a06233681665,64dc7e2c11ceb89b77a08da1,,,,,,,ctch,resources/DY.BMP,resources/DG.BMP,Door4,0.396296296,-0.015740741,1,0,0,0.931,optionRight,80,7595,4,7,0,7,0,1,,,,,,,,,,,,,,,,,,,,,,,,,,,,,,,,,,,,,,,
,,,,,,,,2023-08-16_08h44.19.261,HF_wild_card,2022.2.4,Win32,60.0240096,627e7e91d0e389328983e765,64d2fd46c836a06233681665,64dc7e2c11ceb89b77a08da1,,,,,,,decisionTrl,resources/DP.BMP,resources/DY.BMP,Door2,-0.326851852,-0.022222222,1,0,0,2.364,optionLeft,20,7615,4,8,0,8,0,1,,,,,,,,,,,,,,,,,,,,,,,,,,,,,,,,,,,,,,,
,,,,,,,,2023-08-16_08h44.19.261,HF_wild_card,2022.2.4,Win32,60.0240096,627e7e91d0e389328983e765,64d2fd46c836a06233681665,64dc7e2c11ceb89b77a08da1,,,,,,,sngl,resources/Empty.png,resources/DR.BMP,WildCard_Ex,0.385185185,-0.011111111,1,0,0,0.829,optionRight,45,7660,4,9,0,9,0,1,,,,,,,,,,,,,,,,,,,,,,,,,,,,,,,,,,,,,,,
,,,,,,,,2023-08-16_08h44.19.261,HF_wild_card,2022.2.4,Win32,60.0240096,627e7e91d0e389328983e765,64d2fd46c836a06233681665,64dc7e2c11ceb89b77a08da1,,,,,,,decisionTrl,resources/DY.BMP,resources/DP.BMP,Door1,-0.317592593,-0.038888889,1,0,0,1.931,optionLeft,30,7690,4,10,0,10,0,1,,,,,,,,,,,,,,,,,,,,,,,,,,,,,,,,,,,,,,,
,,,,,,,,2023-08-16_08h44.19.261,HF_wild_card,2022.2.4,Win32,60.0240096,627e7e91d0e389328983e765,64d2fd46c836a06233681665,64dc7e2c11ceb89b77a08da1,,,,,,,decisionTrl,resources/DB.BMP,resources/DR.BMP,Door3,-0.314814815,-0.037962963,1,0,0,2.365,optionLeft,70,7760,4,11,0,11,0,1,,,,,,,,,,,,,,,,,,,,,,,,,,,,,,,,,,,,,,,
,,,,,,,,2023-08-16_08h44.19.261,HF_wild_card,2022.2.4,Win32,60.0240096,627e7e91d0e389328983e765,64d2fd46c836a06233681665,64dc7e2c11ceb89b77a08da1,,,,,,,ctch,resources/DB.BMP,resources/DP.BMP,Door3,-0.35462963,-0.023148148,1,0,0,1.197,optionLeft,70,7830,4,12,0,12,0,1,,,,,,,,,,,,,,,,,,,,,,,,,,,,,,,,,,,,,,,
,,,,,,,,2023-08-16_08h44.19.261,HF_wild_card,2022.2.4,Win32,60.0240096,627e7e91d0e389328983e765,64d2fd46c836a06233681665,64dc7e2c11ceb89b77a08da1,,,,,,,decisionTrl,resources/DP.BMP,resources/DY.BMP,Door1,0.392592593,-0.024074074,1,0,0,3.193,optionRight,30,7860,4,13,0,13,0,1,,,,,,,,,,,,,,,,,,,,,,,,,,,,,,,,,,,,,,,
,,,,,,,,2023-08-16_08h44.19.261,HF_wild_card,2022.2.4,Win32,60.0240096,627e7e91d0e389328983e765,64d2fd46c836a06233681665,64dc7e2c11ceb89b77a08da1,,,,,,,decisionTrl,resources/DG.BMP,resources/DB.BMP,Door4,-0.365740741,-0.009259259,1,0,0,0.982,optionLeft,60,7920,4,14,0,14,0,1,,,,,,,,,,,,,,,,,,,,,,,,,,,,,,,,,,,,,,,
,,,,,,,,2023-08-16_08h44.19.261,HF_wild_card,2022.2.4,Win32,60.0240096,627e7e91d0e389328983e765,64d2fd46c836a06233681665,64dc7e2c11ceb89b77a08da1,,,,,,,decisionTrl,resources/DY.BMP,resources/DR.BMP,Door1,-0.34537037,-0.023148148,1,0,0,1.265,optionLeft,30,7950,4,15,0,15,0,1,,,,,,,,,,,,,,,,,,,,,,,,,,,,,,,,,,,,,,,
,,,,,,,,2023-08-16_08h44.19.261,HF_wild_card,2022.2.4,Win32,60.0240096,627e7e91d0e389328983e765,64d2fd46c836a06233681665,64dc7e2c11ceb89b77a08da1,,,,,,,sngl,resources/Empty.png,resources/DG.BMP,Door4,0.376851852,-0.023148148,1,0,0,0.913,optionRight,80,8030,4,16,0,16,0,1,,,,,,,,,,,,,,,,,,,,,,,,,,,,,,,,,,,,,,,
,,,,,,,,2023-08-16_08h44.19.261,HF_wild_card,2022.2.4,Win32,60.0240096,627e7e91d0e389328983e765,64d2fd46c836a06233681665,64dc7e2c11ceb89b77a08da1,,,,,,,decisionTrl,resources/DB.BMP,resources/DG.BMP,Door4,0.405555556,-0.017592593,1,0,0,0.964,optionRight,60,8090,4,17,0,17,0,1,,,,,,,,,,,,,,,,,,,,,,,,,,,,,,,,,,,,,,,
,,,,,,,,2023-08-16_08h44.19.261,HF_wild_card,2022.2.4,Win32,60.0240096,627e7e91d0e389328983e765,64d2fd46c836a06233681665,64dc7e2c11ceb89b77a08da1,,,,,,,sngl,resources/Empty.png,resources/DP.BMP,Door2,0.305555556,-0.024074074,1,0,0,1.049,optionRight,40,8130,4,18,0,18,0,1,,,,,,,,,,,,,,,,,,,,,,,,,,,,,,,,,,,,,,,
,,,,,,,,2023-08-16_08h44.19.261,HF_wild_card,2022.2.4,Win32,60.0240096,627e7e91d0e389328983e765,64d2fd46c836a06233681665,64dc7e2c11ceb89b77a08da1,,,,,,,sngl,resources/DR.BMP,resources/Empty.png,WildCard_Ex,-0.287962963,-0.006481481,1,0,0,0.963,optionLeft,45,8175,4,19,0,19,0,1,,,,,,,,,,,,,,,,,,,,,,,,,,,,,,,,,,,,,,,
,,,,,,,,2023-08-16_08h44.19.261,HF_wild_card,2022.2.4,Win32,60.0240096,627e7e91d0e389328983e765,64d2fd46c836a06233681665,64dc7e2c11ceb89b77a08da1,,,,,,,decisionTrl,resources/DG.BMP,resources/DB.BMP,Door4,-0.387962963,0.001851852,1,0,0,1.246,optionLeft,80,8255,4,20,0,20,0,1,,,,,,,,,,,,,,,,,,,,,,,,,,,,,,,,,,,,,,,
,,,,,,,,2023-08-16_08h44.19.261,HF_wild_card,2022.2.4,Win32,60.0240096,627e7e91d0e389328983e765,64d2fd46c836a06233681665,64dc7e2c11ceb89b77a08da1,,,,,,,decisionTrl,resources/DR.BMP,resources/DG.BMP,Door4,0.375925926,-0.003703704,1,0,0,2.132,optionRight,80,8335,4,21,0,21,0,1,,,,,,,,,,,,,,,,,,,,,,,,,,,,,,,,,,,,,,,
,,,,,,,,2023-08-16_08h44.19.261,HF_wild_card,2022.2.4,Win32,60.0240096,627e7e91d0e389328983e765,64d2fd46c836a06233681665,64dc7e2c11ceb89b77a08da1,,,,,,,sngl,resources/DB.BMP,resources/Empty.png,Door3,-0.348148148,0.001851852,1,0,0,1.163,optionLeft,70,8405,4,22,0,22,0,1,,,,,,,,,,,,,,,,,,,,,,,,,,,,,,,,,,,,,,,
,,,,,,,,2023-08-16_08h44.19.261,HF_wild_card,2022.2.4,Win32,60.0240096,627e7e91d0e389328983e765,64d2fd46c836a06233681665,64dc7e2c11ceb89b77a08da1,,,,,,,ctch,resources/DB.BMP,resources/DP.BMP,Door3,-0.335185185,-0.009259259,1,0,0,1.298,optionLeft,70,8475,4,23,0,23,0,1,,,,,,,,,,,,,,,,,,,,,,,,,,,,,,,,,,,,,,,
,,,,,,,,2023-08-16_08h44.19.261,HF_wild_card,2022.2.4,Win32,60.0240096,627e7e91d0e389328983e765,64d2fd46c836a06233681665,64dc7e2c11ceb89b77a08da1,,,,,,,sngl,resources/DG.BMP,resources/Empty.png,Door4,-0.351851852,-0.011111111,1,0,0,0.832,optionLeft,60,8535,4,24,0,24,0,1,,,,,,,,,,,,,,,,,,,,,,,,,,,,,,,,,,,,,,,
,,,,,,,,2023-08-16_08h44.19.261,HF_wild_card,2022.2.4,Win32,60.0240096,627e7e91d0e389328983e765,64d2fd46c836a06233681665,64dc7e2c11ceb89b77a08da1,,,,,,,decisionTrl,resources/DR.BMP,resources/DB.BMP,Door3,0.27037037,-0.012037037,1,0,0,1.616,optionRight,70,8605,4,25,0,25,0,1,,,,,,,,,,,,,,,,,,,,,,,,,,,,,,,,,,,,,,,
,,,,,,,,2023-08-16_08h44.19.261,HF_wild_card,2022.2.4,Win32,60.0240096,627e7e91d0e389328983e765,64d2fd46c836a06233681665,64dc7e2c11ceb89b77a08da1,,,,,,,sngl,resources/Empty.png,resources/DY.BMP,Door1,0.387037037,-0.006481481,1,0,0,0.715,optionRight,30,8635,4,26,0,26,0,1,,,,,,,,,,,,,,,,,,,,,,,,,,,,,,,,,,,,,,,
,,,,,,,,2023-08-16_08h44.19.261,HF_wild_card,2022.2.4,Win32,60.0240096,627e7e91d0e389328983e765,64d2fd46c836a06233681665,64dc7e2c11ceb89b77a08da1,,,,,,,decisionTrl,resources/DB.BMP,resources/DG.BMP,Door4,0.366666667,-0.007407407,1,0,0,1.499,optionRight,80,8715,4,27,0,27,0,1,,,,,,,,,,,,,,,,,,,,,,,,,,,,,,,,,,,,,,,
,,,,,,,,2023-08-16_08h44.19.261,HF_wild_card,2022.2.4,Win32,60.0240096,627e7e91d0e389328983e765,64d2fd46c836a06233681665,64dc7e2c11ceb89b77a08da1,,,,,,,decisionTrl,resources/DR.BMP,resources/DY.BMP,WildCard_Ex,-0.332407407,-0.034259259,1,0,0,1.779,optionLeft,55,8770,4,28,0,28,0,1,,,,,,,,,,,,,,,,,,,,,,,,,,,,,,,,,,,,,,,
,,,,,,,,2023-08-16_08h44.19.261,HF_wild_card,2022.2.4,Win32,60.0240096,627e7e91d0e389328983e765,64d2fd46c836a06233681665,64dc7e2c11ceb89b77a08da1,,,,,,,ctch,resources/DG.BMP,resources/DY.BMP,Door4,-0.414814815,-0.013888889,1,0,0,0.797,optionLeft,80,8850,4,29,0,29,0,1,,,,,,,,,,,,,,,,,,,,,,,,,,,,,,,,,,,,,,,
,,,,,,,,2023-08-16_08h44.19.261,HF_wild_card,2022.2.4,Win32,60.0240096,627e7e91d0e389328983e765,64d2fd46c836a06233681665,64dc7e2c11ceb89b77a08da1,,,,,,,sngl,resources/DR.BMP,resources/Empty.png,WildCard_Ex,-0.387962963,-0.00462963,1,0,0,0.748,optionLeft,55,8905,4,30,0,30,0,1,,,,,,,,,,,,,,,,,,,,,,,,,,,,,,,,,,,,,,,
,,,,,,,,2023-08-16_08h44.19.261,HF_wild_card,2022.2.4,Win32,60.0240096,627e7e91d0e389328983e765,64d2fd46c836a06233681665,64dc7e2c11ceb89b77a08da1,,,,,,,decisionTrl,resources/DY.BMP,resources/DP.BMP,Door1,-0.350925926,0.018518519,1,0,0,1.816,optionLeft,30,8935,4,31,0,31,0,1,,,,,,,,,,,,,,,,,,,,,,,,,,,,,,,,,,,,,,,
,,,,,,,,2023-08-16_08h44.19.261,HF_wild_card,2022.2.4,Win32,60.0240096,627e7e91d0e389328983e765,64d2fd46c836a06233681665,64dc7e2c11ceb89b77a08da1,,,,,,,decisionTrl,resources/DP.BMP,resources/DY.BMP,Door1,0.339814815,-0.025925926,1,0,0,1.197,optionRight,30,8965,4,32,0,32,0,1,,,,,,,,,,,,,,,,,,,,,,,,,,,,,,,,,,,,,,,
,,,,,,,,2023-08-16_08h44.19.261,HF_wild_card,2022.2.4,Win32,60.0240096,627e7e91d0e389328983e765,64d2fd46c836a06233681665,64dc7e2c11ceb89b77a08da1,,,,,,,decisionTrl,resources/DR.BMP,resources/DP.BMP,WildCard_Ex,-0.401851852,-0.000925926,1,0,0,1.33,optionLeft,45,9010,4,33,0,33,0,1,,,,,,,,,,,,,,,,,,,,,,,,,,,,,,,,,,,,,,,
,,,,,,,,2023-08-16_08h44.19.261,HF_wild_card,2022.2.4,Win32,60.0240096,627e7e91d0e389328983e765,64d2fd46c836a06233681665,64dc7e2c11ceb89b77a08da1,,,,,,,decisionTrl,resources/DG.BMP,resources/DR.BMP,Door4,-0.326851852,-0.003703704,1,0,0,1.064,optionLeft,60,9070,4,34,0,34,0,1,,,,,,,,,,,,,,,,,,,,,,,,,,,,,,,,,,,,,,,
,,,,,,,,2023-08-16_08h44.19.261,HF_wild_card,2022.2.4,Win32,60.0240096,627e7e91d0e389328983e765,64d2fd46c836a06233681665,64dc7e2c11ceb89b77a08da1,,,,,,,decisionTrl,resources/DB.BMP,resources/DG.BMP,Door4,0.333333333,-0.006481481,1,0,0,1.36,optionRight,80,9150,4,35,0,35,0,1,,,,,,,,,,,,,,,,,,,,,,,,,,,,,,,,,,,,,,,
,,,,,,,,2023-08-16_08h44.19.261,HF_wild_card,2022.2.4,Win32,60.0240096,627e7e91d0e389328983e765,64d2fd46c836a06233681665,64dc7e2c11ceb89b77a08da1,,,,,,,decisionTrl,resources/DY.BMP,resources/DP.BMP,Door1,-0.375,-0.010185185,1,0,0,1.648,optionLeft,30,9180,4,36,0,36,0,1,,,,,,,,,,,,,,,,,,,,,,,,,,,,,,,,,,,,,,,
,,,,,,,,2023-08-16_08h44.19.261,HF_wild_card,2022.2.4,Win32,60.0240096,627e7e91d0e389328983e765,64d2fd46c836a06233681665,64dc7e2c11ceb89b77a08da1,,,,,,,ctch,resources/DP.BMP,resources/DB.BMP,Door3,0.363888889,-0.026851852,1,0,0,1.631,optionRight,70,9250,4,37,0,37,0,1,,,,,,,,,,,,,,,,,,,,,,,,,,,,,,,,,,,,,,,
,,,,,,,,2023-08-16_08h44.19.261,HF_wild_card,2022.2.4,Win32,60.0240096,627e7e91d0e389328983e765,64d2fd46c836a06233681665,64dc7e2c11ceb89b77a08da1,,,,,,,decisionTrl,resources/DG.BMP,resources/DB.BMP,Door4,-0.331481481,-0.019444444,1,0,0,1.498,optionLeft,60,9310,4,38,0,38,0,1,,,,,,,,,,,,,,,,,,,,,,,,,,,,,,,,,,,,,,,
,,,,,,,,2023-08-16_08h44.19.261,HF_wild_card,2022.2.4,Win32,60.0240096,627e7e91d0e389328983e765,64d2fd46c836a06233681665,64dc7e2c11ceb89b77a08da1,,,,,,,sngl,resources/DY.BMP,resources/Empty.png,Door1,-0.375,0.02037037,1,0,0,1.115,optionLeft,30,9340,4,39,0,39,0,1,,,,,,,,,,,,,,,,,,,,,,,,,,,,,,,,,,,,,,,
,,,,,,,,2023-08-16_08h44.19.261,HF_wild_card,2022.2.4,Win32,60.0240096,627e7e91d0e389328983e765,64d2fd46c836a06233681665,64dc7e2c11ceb89b77a08da1,,,,,,,decisionTrl,resources/DP.BMP,resources/DY.BMP,Door1,0.34537037,-0.028703704,1,0,0,2.048,optionRight,30,9370,4,40,0,40,0,1,,,,,,,,,,,,,,,,,,,,,,,,,,,,,,,,,,,,,,,
,,,,,,,,2023-08-16_08h44.19.261,HF_wild_card,2022.2.4,Win32,60.0240096,627e7e91d0e389328983e765,64d2fd46c836a06233681665,64dc7e2c11ceb89b77a08da1,,,,,,,decisionTrl,resources/DG.BMP,resources/DB.BMP,Door4,-0.366666667,-0.00462963,1,0,0,1.396,optionLeft,60,9430,4,41,0,41,0,1,,,,,,,,,,,,,,,,,,,,,,,,,,,,,,,,,,,,,,,
,,,,,,,,2023-08-16_08h44.19.261,HF_wild_card,2022.2.4,Win32,60.0240096,627e7e91d0e389328983e765,64d2fd46c836a06233681665,64dc7e2c11ceb89b77a08da1,,,,,,,decisionTrl,resources/DY.BMP,resources/DP.BMP,Door2,0.362962963,-0.014814815,1,0,0,1.459,optionRight,40,9470,4,42,0,42,0,1,,,,,,,,,,,,,,,,,,,,,,,,,,,,,,,,,,,,,,,
,,,,,,,,2023-08-16_08h44.19.261,HF_wild_card,2022.2.4,Win32,60.0240096,627e7e91d0e389328983e765,64d2fd46c836a06233681665,64dc7e2c11ceb89b77a08da1,,,,,,,decisionTrl,resources/DP.BMP,resources/DR.BMP,WildCard_Ex,0.356481481,0.003703704,1,0,0,1.997,optionRight,55,9525,4,43,0,43,0,1,,,,,,,,,,,,,,,,,,,,,,,,,,,,,,,,,,,,,,,
,,,,,,,,2023-08-16_08h44.19.261,HF_wild_card,2022.2.4,Win32,60.0240096,627e7e91d0e389328983e765,64d2fd46c836a06233681665,64dc7e2c11ceb89b77a08da1,,,,,,,,,,,,,,,,,,,,,,,,,,3,0,3,0,1,,,,,,,,,,,,,,,,,,,,,,,,,,,,,,,,,,
,,,,,,,,2023-08-16_08h44.19.261,HF_wild_card,2022.2.4,Win32,60.0240096,627e7e91d0e389328983e765,64d2fd46c836a06233681665,64dc7e2c11ceb89b77a08da1,,,,,,,decisionTrl,resources/DY.BMP,resources/DP.BMP,Door1,-0.357407407,-0.031481481,1,0,0,1.945,optionLeft,30,9555,5,0,0,0,0,1,,,,,,,,,,,,,,,,,,,,,,,,,,,,,,,,,,,,,,,
,,,,,,,,2023-08-16_08h44.19.261,HF_wild_card,2022.2.4,Win32,60.0240096,627e7e91d0e389328983e765,64d2fd46c836a06233681665,64dc7e2c11ceb89b77a08da1,,,,,,,ctch,resources/DY.BMP,resources/DG.BMP,Door4,0.353703704,-0.037962963,1,0,0,0.998,optionRight,80,9635,5,1,0,1,0,1,,,,,,,,,,,,,,,,,,,,,,,,,,,,,,,,,,,,,,,
,,,,,,,,2023-08-16_08h44.19.261,HF_wild_card,2022.2.4,Win32,60.0240096,627e7e91d0e389328983e765,64d2fd46c836a06233681665,64dc7e2c11ceb89b77a08da1,,,,,,,ctch,resources/DP.BMP,resources/DB.BMP,Door3,0.362962963,-0.017592593,1,0,0,1.697,optionRight,70,9705,5,2,0,2,0,1,,,,,,,,,,,,,,,,,,,,,,,,,,,,,,,,,,,,,,,
,,,,,,,,2023-08-16_08h44.19.261,HF_wild_card,2022.2.4,Win32,60.0240096,627e7e91d0e389328983e765,64d2fd46c836a06233681665,64dc7e2c11ceb89b77a08da1,,,,,,,sngl,resources/Empty.png,resources/DG.BMP,Door4,0.477777778,-0.006481481,1,0,0,0.714,optionRight,60,9765,5,3,0,3,0,1,,,,,,,,,,,,,,,,,,,,,,,,,,,,,,,,,,,,,,,
,,,,,,,,2023-08-16_08h44.19.261,HF_wild_card,2022.2.4,Win32,60.0240096,627e7e91d0e389328983e765,64d2fd46c836a06233681665,64dc7e2c11ceb89b77a08da1,,,,,,,decisionTrl,resources/DP.BMP,resources/DY.BMP,Door1,0.507407407,-0.007407407,1,0,0,1.265,optionRight,30,9795,5,4,0,4,0,1,,,,,,,,,,,,,,,,,,,,,,,,,,,,,,,,,,,,,,,
,,,,,,,,2023-08-16_08h44.19.261,HF_wild_card,2022.2.4,Win32,60.0240096,627e7e91d0e389328983e765,64d2fd46c836a06233681665,64dc7e2c11ceb89b77a08da1,,,,,,,ctch,resources/DB.BMP,resources/DP.BMP,Door3,-0.284259259,0.002777778,1,0,0,1.432,optionLeft,70,9865,5,5,0,5,0,1,,,,,,,,,,,,,,,,,,,,,,,,,,,,,,,,,,,,,,,
,,,,,,,,2023-08-16_08h44.19.261,HF_wild_card,2022.2.4,Win32,60.0240096,627e7e91d0e389328983e765,64d2fd46c836a06233681665,64dc7e2c11ceb89b77a08da1,,,,,,,decisionTrl,resources/DP.BMP,resources/DY.BMP,Door1,0.386111111,-0.007407407,1,0,0,1.229,optionRight,30,9895,5,6,0,6,0,1,,,,,,,,,,,,,,,,,,,,,,,,,,,,,,,,,,,,,,,
,,,,,,,,2023-08-16_08h44.19.261,HF_wild_card,2022.2.4,Win32,60.0240096,627e7e91d0e389328983e765,64d2fd46c836a06233681665,64dc7e2c11ceb89b77a08da1,,,,,,,ctch,resources/DY.BMP,resources/DG.BMP,Door4,0.463888889,-0.000925926,1,0,0,0.882,optionRight,80,9975,5,7,0,7,0,1,,,,,,,,,,,,,,,,,,,,,,,,,,,,,,,,,,,,,,,
,,,,,,,,2023-08-16_08h44.19.261,HF_wild_card,2022.2.4,Win32,60.0240096,627e7e91d0e389328983e765,64d2fd46c836a06233681665,64dc7e2c11ceb89b77a08da1,,,,,,,ctch,resources/DG.BMP,resources/DY.BMP,Door4,-0.318518519,0.023148148,1,0,0,0.943,optionLeft,60,10035,5,8,0,8,0,1,,,,,,,,,,,,,,,,,,,,,,,,,,,,,,,,,,,,,,,
,,,,,,,,2023-08-16_08h44.19.261,HF_wild_card,2022.2.4,Win32,60.0240096,627e7e91d0e389328983e765,64d2fd46c836a06233681665,64dc7e2c11ceb89b77a08da1,,,,,,,decisionTrl,resources/DR.BMP,resources/DP.BMP,WildCard_Ex,-0.324074074,-0.019444444,1,0,0,1.831,optionLeft,45,10080,5,9,0,9,0,1,,,,,,,,,,,,,,,,,,,,,,,,,,,,,,,,,,,,,,,
,,,,,,,,2023-08-16_08h44.19.261,HF_wild_card,2022.2.4,Win32,60.0240096,627e7e91d0e389328983e765,64d2fd46c836a06233681665,64dc7e2c11ceb89b77a08da1,,,,,,,sngl,resources/Empty.png,resources/DR.BMP,WildCard_Ex,0.339814815,-0.018518519,1,0,0,0.798,optionRight,55,10135,5,10,0,10,0,1,,,,,,,,,,,,,,,,,,,,,,,,,,,,,,,,,,,,,,,
,,,,,,,,2023-08-16_08h44.19.261,HF_wild_card,2022.2.4,Win32,60.0240096,627e7e91d0e389328983e765,64d2fd46c836a06233681665,64dc7e2c11ceb89b77a08da1,,,,,,,sngl,resources/Empty.png,resources/DR.BMP,WildCard_Ex,0.40462963,-0.009259259,1,0,0,0.615,optionRight,45,10180,5,11,0,11,0,1,,,,,,,,,,,,,,,,,,,,,,,,,,,,,,,,,,,,,,,
,,,,,,,,2023-08-16_08h44.19.261,HF_wild_card,2022.2.4,Win32,60.0240096,627e7e91d0e389328983e765,64d2fd46c836a06233681665,64dc7e2c11ceb89b77a08da1,,,,,,,decisionTrl,resources/DB.BMP,resources/DG.BMP,Door4,0.418518519,-0.018518519,1,0,0,1.096,optionRight,60,10240,5,12,0,12,0,1,,,,,,,,,,,,,,,,,,,,,,,,,,,,,,,,,,,,,,,
,,,,,,,,2023-08-16_08h44.19.261,HF_wild_card,2022.2.4,Win32,60.0240096,627e7e91d0e389328983e765,64d2fd46c836a06233681665,64dc7e2c11ceb89b77a08da1,,,,,,,sngl,resources/DR.BMP,resources/Empty.png,WildCard_Ex,-0.353703704,-0.011111111,1,0,0,0.814,optionLeft,55,10295,5,13,0,13,0,1,,,,,,,,,,,,,,,,,,,,,,,,,,,,,,,,,,,,,,,
,,,,,,,,2023-08-16_08h44.19.261,HF_wild_card,2022.2.4,Win32,60.0240096,627e7e91d0e389328983e765,64d2fd46c836a06233681665,64dc7e2c11ceb89b77a08da1,,,,,,,decisionTrl,resources/DP.BMP,resources/DY.BMP,Door1,0.346296296,-0.00462963,1,0,0,1.198,optionRight,30,10325,5,14,0,14,0,1,,,,,,,,,,,,,,,,,,,,,,,,,,,,,,,,,,,,,,,
,,,,,,,,2023-08-16_08h44.19.261,HF_wild_card,2022.2.4,Win32,60.0240096,627e7e91d0e389328983e765,64d2fd46c836a06233681665,64dc7e2c11ceb89b77a08da1,,,,,,,sngl,resources/DR.BMP,resources/Empty.png,WildCard_Ex,-0.326851852,0.012962963,1,0,0,1.549,optionLeft,45,10370,5,15,0,15,0,1,,,,,,,,,,,,,,,,,,,,,,,,,,,,,,,,,,,,,,,
,,,,,,,,2023-08-16_08h44.19.261,HF_wild_card,2022.2.4,Win32,60.0240096,627e7e91d0e389328983e765,64d2fd46c836a06233681665,64dc7e2c11ceb89b77a08da1,,,,,,,decisionTrl,resources/DR.BMP,resources/DG.BMP,Door4,0.303703704,0.005555556,1,0,0,0.931,optionRight,80,10450,5,16,0,16,0,1,,,,,,,,,,,,,,,,,,,,,,,,,,,,,,,,,,,,,,,
,,,,,,,,2023-08-16_08h44.19.261,HF_wild_card,2022.2.4,Win32,60.0240096,627e7e91d0e389328983e765,64d2fd46c836a06233681665,64dc7e2c11ceb89b77a08da1,,,,,,,decisionTrl,resources/DY.BMP,resources/DP.BMP,Door1,-0.4,-0.021296296,1,0,0,1.213,optionLeft,30,10480,5,17,0,17,0,1,,,,,,,,,,,,,,,,,,,,,,,,,,,,,,,,,,,,,,,
,,,,,,,,2023-08-16_08h44.19.261,HF_wild_card,2022.2.4,Win32,60.0240096,627e7e91d0e389328983e765,64d2fd46c836a06233681665,64dc7e2c11ceb89b77a08da1,,,,,,,decisionTrl,resources/DY.BMP,resources/DP.BMP,Door1,-0.355555556,-0.000925926,1,0,0,3.398,optionLeft,30,10510,5,18,0,18,0,1,,,,,,,,,,,,,,,,,,,,,,,,,,,,,,,,,,,,,,,
,,,,,,,,2023-08-16_08h44.19.261,HF_wild_card,2022.2.4,Win32,60.0240096,627e7e91d0e389328983e765,64d2fd46c836a06233681665,64dc7e2c11ceb89b77a08da1,,,,,,,sngl,resources/DP.BMP,resources/Empty.png,Door2,-0.32037037,-0.000925926,1,0,0,0.728,optionLeft,40,10550,5,19,0,19,0,1,,,,,,,,,,,,,,,,,,,,,,,,,,,,,,,,,,,,,,,
,,,,,,,,2023-08-16_08h44.19.261,HF_wild_card,2022.2.4,Win32,60.0240096,627e7e91d0e389328983e765,64d2fd46c836a06233681665,64dc7e2c11ceb89b77a08da1,,,,,,,decisionTrl,resources/DP.BMP,resources/DR.BMP,WildCard_Ex,0.27962963,-0.007407407,1,0,0,1.798,optionRight,45,10595,5,20,0,20,0,1,,,,,,,,,,,,,,,,,,,,,,,,,,,,,,,,,,,,,,,
,,,,,,,,2023-08-16_08h44.19.261,HF_wild_card,2022.2.4,Win32,60.0240096,627e7e91d0e389328983e765,64d2fd46c836a06233681665,64dc7e2c11ceb89b77a08da1,,,,,,,sngl,resources/DB.BMP,resources/Empty.png,Door3,-0.415740741,-0.002777778,1,0,0,0.732,optionLeft,70,10665,5,21,0,21,0,1,,,,,,,,,,,,,,,,,,,,,,,,,,,,,,,,,,,,,,,
,,,,,,,,2023-08-16_08h44.19.261,HF_wild_card,2022.2.4,Win32,60.0240096,627e7e91d0e389328983e765,64d2fd46c836a06233681665,64dc7e2c11ceb89b77a08da1,,,,,,,decisionTrl,resources/DG.BMP,resources/DB.BMP,Door3,0.378703704,-0.019444444,1,0,0,0.914,optionRight,70,10735,5,22,0,22,0,1,,,,,,,,,,,,,,,,,,,,,,,,,,,,,,,,,,,,,,,
,,,,,,,,2023-08-16_08h44.19.261,HF_wild_card,2022.2.4,Win32,60.0240096,627e7e91d0e389328983e765,64d2fd46c836a06233681665,64dc7e2c11ceb89b77a08da1,,,,,,,sngl,resources/DG.BMP,resources/Empty.png,Door4,-0.437037037,-0.007407407,1,0,0,0.697,optionLeft,80,10815,5,23,0,23,0,1,,,,,,,,,,,,,,,,,,,,,,,,,,,,,,,,,,,,,,,
,,,,,,,,2023-08-16_08h44.19.261,HF_wild_card,2022.2.4,Win32,60.0240096,627e7e91d0e389328983e765,64d2fd46c836a06233681665,64dc7e2c11ceb89b77a08da1,,,,,,,sngl,resources/Empty.png,resources/DB.BMP,Door3,0.324074074,-0.016666667,1,0,0,0.732,optionRight,70,10885,5,24,0,24,0,1,,,,,,,,,,,,,,,,,,,,,,,,,,,,,,,,,,,,,,,
,,,,,,,,2023-08-16_08h44.19.261,HF_wild_card,2022.2.4,Win32,60.0240096,627e7e91d0e389328983e765,64d2fd46c836a06233681665,64dc7e2c11ceb89b77a08da1,,,,,,,decisionTrl,resources/DB.BMP,resources/DG.BMP,Door4,0.316666667,-0.012037037,1,0,0,1.181,optionRight,60,10945,5,25,0,25,0,1,,,,,,,,,,,,,,,,,,,,,,,,,,,,,,,,,,,,,,,
,,,,,,,,2023-08-16_08h44.19.261,HF_wild_card,2022.2.4,Win32,60.0240096,627e7e91d0e389328983e765,64d2fd46c836a06233681665,64dc7e2c11ceb89b77a08da1,,,,,,,decisionTrl,resources/DG.BMP,resources/DR.BMP,Door4,-0.286111111,0.006481481,1,0,0,1.399,optionLeft,60,11005,5,26,0,26,0,1,,,,,,,,,,,,,,,,,,,,,,,,,,,,,,,,,,,,,,,
,,,,,,,,2023-08-16_08h44.19.261,HF_wild_card,2022.2.4,Win32,60.0240096,627e7e91d0e389328983e765,64d2fd46c836a06233681665,64dc7e2c11ceb89b77a08da1,,,,,,,sngl,resources/DY.BMP,resources/Empty.png,Door1,-0.291666667,0,1,0,0,0.88,optionLeft,30,11035,5,27,0,27,0,1,,,,,,,,,,,,,,,,,,,,,,,,,,,,,,,,,,,,,,,
,,,,,,,,2023-08-16_08h44.19.261,HF_wild_card,2022.2.4,Win32,60.0240096,627e7e91d0e389328983e765,64d2fd46c836a06233681665,64dc7e2c11ceb89b77a08da1,,,,,,,decisionTrl,resources/DB.BMP,resources/DG.BMP,Door4,0.389814815,-0.008333333,1,0,0,0.931,optionRight,60,11095,5,28,0,28,0,1,,,,,,,,,,,,,,,,,,,,,,,,,,,,,,,,,,,,,,,
,,,,,,,,2023-08-16_08h44.19.261,HF_wild_card,2022.2.4,Win32,60.0240096,627e7e91d0e389328983e765,64d2fd46c836a06233681665,64dc7e2c11ceb89b77a08da1,,,,,,,decisionTrl,resources/DB.BMP,resources/DG.BMP,Door4,0.337962963,-0.016666667,1,0,0,0.997,optionRight,60,11155,5,29,0,29,0,1,,,,,,,,,,,,,,,,,,,,,,,,,,,,,,,,,,,,,,,
,,,,,,,,2023-08-16_08h44.19.261,HF_wild_card,2022.2.4,Win32,60.0240096,627e7e91d0e389328983e765,64d2fd46c836a06233681665,64dc7e2c11ceb89b77a08da1,,,,,,,sngl,resources/Empty.png,resources/DP.BMP,Door2,0.396296296,-0.023148148,1,0,0,0.814,optionRight,20,11175,5,30,0,30,0,1,,,,,,,,,,,,,,,,,,,,,,,,,,,,,,,,,,,,,,,
,,,,,,,,2023-08-16_08h44.19.261,HF_wild_card,2022.2.4,Win32,60.0240096,627e7e91d0e389328983e765,64d2fd46c836a06233681665,64dc7e2c11ceb89b77a08da1,,,,,,,sngl,resources/Empty.png,resources/DY.BMP,Door1,0.356481481,-0.013888889,1,0,0,0.815,optionRight,30,11205,5,31,0,31,0,1,,,,,,,,,,,,,,,,,,,,,,,,,,,,,,,,,,,,,,,
,,,,,,,,2023-08-16_08h44.19.261,HF_wild_card,2022.2.4,Win32,60.0240096,627e7e91d0e389328983e765,64d2fd46c836a06233681665,64dc7e2c11ceb89b77a08da1,,,,,,,decisionTrl,resources/DG.BMP,resources/DB.BMP,Door4,-0.369444444,-0.006481481,1,0,0,0.798,optionLeft,60,11265,5,32,0,32,0,1,,,,,,,,,,,,,,,,,,,,,,,,,,,,,,,,,,,,,,,
,,,,,,,,2023-08-16_08h44.19.261,HF_wild_card,2022.2.4,Win32,60.0240096,627e7e91d0e389328983e765,64d2fd46c836a06233681665,64dc7e2c11ceb89b77a08da1,,,,,,,ctch,resources/DG.BMP,resources/DY.BMP,Door4,-0.369444444,0.000925926,1,0,0,0.928,optionLeft,60,11325,5,33,0,33,0,1,,,,,,,,,,,,,,,,,,,,,,,,,,,,,,,,,,,,,,,
,,,,,,,,2023-08-16_08h44.19.261,HF_wild_card,2022.2.4,Win32,60.0240096,627e7e91d0e389328983e765,64d2fd46c836a06233681665,64dc7e2c11ceb89b77a08da1,,,,,,,decisionTrl,resources/DP.BMP,resources/DY.BMP,Door1,0.458333333,-0.007407407,1,0,0,1.158,optionRight,30,11355,5,34,0,34,0,1,,,,,,,,,,,,,,,,,,,,,,,,,,,,,,,,,,,,,,,
,,,,,,,,2023-08-16_08h44.19.261,HF_wild_card,2022.2.4,Win32,60.0240096,627e7e91d0e389328983e765,64d2fd46c836a06233681665,64dc7e2c11ceb89b77a08da1,,,,,,,decisionTrl,resources/DB.BMP,resources/DR.BMP,Door3,-0.342592593,-0.021296296,1,0,0,1.647,optionLeft,70,11425,5,35,0,35,0,1,,,,,,,,,,,,,,,,,,,,,,,,,,,,,,,,,,,,,,,
,,,,,,,,2023-08-16_08h44.19.261,HF_wild_card,2022.2.4,Win32,60.0240096,627e7e91d0e389328983e765,64d2fd46c836a06233681665,64dc7e2c11ceb89b77a08da1,,,,,,,decisionTrl,resources/DG.BMP,resources/DB.BMP,Door4,-0.412962963,-0.007407407,1,0,0,1.397,optionLeft,80,11505,5,36,0,36,0,1,,,,,,,,,,,,,,,,,,,,,,,,,,,,,,,,,,,,,,,
,,,,,,,,2023-08-16_08h44.19.261,HF_wild_card,2022.2.4,Win32,60.0240096,627e7e91d0e389328983e765,64d2fd46c836a06233681665,64dc7e2c11ceb89b77a08da1,,,,,,,decisionTrl,resources/DY.BMP,resources/DP.BMP,Door1,-0.340740741,-0.014814815,1,0,0,2.814,optionLeft,30,11535,5,37,0,37,0,1,,,,,,,,,,,,,,,,,,,,,,,,,,,,,,,,,,,,,,,
,,,,,,,,2023-08-16_08h44.19.261,HF_wild_card,2022.2.4,Win32,60.0240096,627e7e91d0e389328983e765,64d2fd46c836a06233681665,64dc7e2c11ceb89b77a08da1,,,,,,,decisionTrl,resources/DR.BMP,resources/DB.BMP,Door3,0.35462963,-0.012037037,1,0,0,1.398,optionRight,70,11605,5,38,0,38,0,1,,,,,,,,,,,,,,,,,,,,,,,,,,,,,,,,,,,,,,,
,,,,,,,,2023-08-16_08h44.19.261,HF_wild_card,2022.2.4,Win32,60.0240096,627e7e91d0e389328983e765,64d2fd46c836a06233681665,64dc7e2c11ceb89b77a08da1,,,,,,,decisionTrl,resources/DR.BMP,resources/DY.BMP,WildCard_Ex,-0.361111111,-0.019444444,1,0,0,1.665,optionLeft,55,11660,5,39,0,39,0,1,,,,,,,,,,,,,,,,,,,,,,,,,,,,,,,,,,,,,,,
,,,,,,,,2023-08-16_08h44.19.261,HF_wild_card,2022.2.4,Win32,60.0240096,627e7e91d0e389328983e765,64d2fd46c836a06233681665,64dc7e2c11ceb89b77a08da1,,,,,,,ctch,resources/DP.BMP,resources/DB.BMP,Door3,0.322222222,-0.009259259,1,0,0,1.596,optionRight,70,11730,5,40,0,40,0,1,,,,,,,,,,,,,,,,,,,,,,,,,,,,,,,,,,,,,,,
,,,,,,,,2023-08-16_08h44.19.261,HF_wild_card,2022.2.4,Win32,60.0240096,627e7e91d0e389328983e765,64d2fd46c836a06233681665,64dc7e2c11ceb89b77a08da1,,,,,,,decisionTrl,resources/DY.BMP,resources/DR.BMP,WildCard_Ex,0.347222222,-0.014814815,1,0,0,1.831,optionRight,45,11775,5,41,0,41,0,1,,,,,,,,,,,,,,,,,,,,,,,,,,,,,,,,,,,,,,,
,,,,,,,,2023-08-16_08h44.19.261,HF_wild_card,2022.2.4,Win32,60.0240096,627e7e91d0e389328983e765,64d2fd46c836a06233681665,64dc7e2c11ceb89b77a08da1,,,,,,,ctch,resources/DB.BMP,resources/DP.BMP,Door3,-0.328703704,-0.026851852,1,0,0,1.443,optionLeft,70,11845,5,42,0,42,0,1,,,,,,,,,,,,,,,,,,,,,,,,,,,,,,,,,,,,,,,
,,,,,,,,2023-08-16_08h44.19.261,HF_wild_card,2022.2.4,Win32,60.0240096,627e7e91d0e389328983e765,64d2fd46c836a06233681665,64dc7e2c11ceb89b77a08da1,,,,,,,decisionTrl,resources/DG.BMP,resources/DB.BMP,Door4,-0.341666667,-0.008333333,1,0,0,1.565,optionLeft,60,11905,5,43,0,43,0,1,,,,,,,,,,,,,,,,,,,,,,,,,,,,,,,,,,,,,,,
,,,,,,,,2023-08-16_08h44.19.261,HF_wild_card,2022.2.4,Win32,60.0240096,627e7e91d0e389328983e765,64d2fd46c836a06233681665,64dc7e2c11ceb89b77a08da1,,,,,,,,,,,,,,,,,,,,,,,,,,4,0,4,0,1,,,,,,,,,,,,,,,,,,,,,,,,,,,,,,,,,,
,,,,,,,,2023-08-16_08h44.19.261,HF_wild_card,2022.2.4,Win32,60.0240096,627e7e91d0e389328983e765,64d2fd46c836a06233681665,64dc7e2c11ceb89b77a08da1,,,,,,,decisionTrl,resources/DP.BMP,resources/DY.BMP,Door1,0.314814815,0.00462963,1,0,0,3.095,optionRight,30,11935,6,0,0,0,0,1,,,,,,,,,,,,,,,,,,,,,,,,,,,,,,,,,,,,,,,
,,,,,,,,2023-08-16_08h44.19.261,HF_wild_card,2022.2.4,Win32,60.0240096,627e7e91d0e389328983e765,64d2fd46c836a06233681665,64dc7e2c11ceb89b77a08da1,,,,,,,decisionTrl,resources/DP.BMP,resources/DR.BMP,WildCard_Ex,0.331481481,-0.017592593,1,0,0,1.696,optionRight,55,11990,6,1,0,1,0,1,,,,,,,,,,,,,,,,,,,,,,,,,,,,,,,,,,,,,,,
,,,,,,,,2023-08-16_08h44.19.261,HF_wild_card,2022.2.4,Win32,60.0240096,627e7e91d0e389328983e765,64d2fd46c836a06233681665,64dc7e2c11ceb89b77a08da1,,,,,,,ctch,resources/DP.BMP,resources/DB.BMP,Door3,0.358333333,-0.019444444,1,0,0,1.031,optionRight,70,12060,6,2,0,2,0,1,,,,,,,,,,,,,,,,,,,,,,,,,,,,,,,,,,,,,,,
,,,,,,,,2023-08-16_08h44.19.261,HF_wild_card,2022.2.4,Win32,60.0240096,627e7e91d0e389328983e765,64d2fd46c836a06233681665,64dc7e2c11ceb89b77a08da1,,,,,,,decisionTrl,resources/DR.BMP,resources/DY.BMP,WildCard_Ex,-0.359259259,-0.010185185,1,0,0,1.445,optionLeft,55,12115,6,3,0,3,0,1,,,,,,,,,,,,,,,,,,,,,,,,,,,,,,,,,,,,,,,
,,,,,,,,2023-08-16_08h44.19.261,HF_wild_card,2022.2.4,Win32,60.0240096,627e7e91d0e389328983e765,64d2fd46c836a06233681665,64dc7e2c11ceb89b77a08da1,,,,,,,sngl,resources/DY.BMP,resources/Empty.png,Door1,-0.343518519,0.025,1,0,0,0.864,optionLeft,30,12145,6,4,0,4,0,1,,,,,,,,,,,,,,,,,,,,,,,,,,,,,,,,,,,,,,,
,,,,,,,,2023-08-16_08h44.19.261,HF_wild_card,2022.2.4,Win32,60.0240096,627e7e91d0e389328983e765,64d2fd46c836a06233681665,64dc7e2c11ceb89b77a08da1,,,,,,,decisionTrl,resources/DY.BMP,resources/DR.BMP,WildCard_Ex,0.267592593,-0.038888889,1,0,0,1.099,optionRight,55,12200,6,5,0,5,0,1,,,,,,,,,,,,,,,,,,,,,,,,,,,,,,,,,,,,,,,
,,,,,,,,2023-08-16_08h44.19.261,HF_wild_card,2022.2.4,Win32,60.0240096,627e7e91d0e389328983e765,64d2fd46c836a06233681665,64dc7e2c11ceb89b77a08da1,,,,,,,decisionTrl,resources/DP.BMP,resources/DY.BMP,Door1,0.309259259,0.006481481,1,0,0,2.281,optionRight,30,12230,6,6,0,6,0,1,,,,,,,,,,,,,,,,,,,,,,,,,,,,,,,,,,,,,,,
,,,,,,,,2023-08-16_08h44.19.261,HF_wild_card,2022.2.4,Win32,60.0240096,627e7e91d0e389328983e765,64d2fd46c836a06233681665,64dc7e2c11ceb89b77a08da1,,,,,,,sngl,resources/Empty.png,resources/DY.BMP,Door1,0.366666667,-0.013888889,1,0,0,0.794,optionRight,30,12260,6,7,0,7,0,1,,,,,,,,,,,,,,,,,,,,,,,,,,,,,,,,,,,,,,,
,,,,,,,,2023-08-16_08h44.19.261,HF_wild_card,2022.2.4,Win32,60.0240096,627e7e91d0e389328983e765,64d2fd46c836a06233681665,64dc7e2c11ceb89b77a08da1,,,,,,,decisionTrl,resources/DR.BMP,resources/DB.BMP,Door3,0.343518519,-0.010185185,1,0,0,1.349,optionRight,70,12330,6,8,0,8,0,1,,,,,,,,,,,,,,,,,,,,,,,,,,,,,,,,,,,,,,,
,,,,,,,,2023-08-16_08h44.19.261,HF_wild_card,2022.2.4,Win32,60.0240096,627e7e91d0e389328983e765,64d2fd46c836a06233681665,64dc7e2c11ceb89b77a08da1,,,,,,,decisionTrl,resources/DG.BMP,resources/DB.BMP,Door3,0.425,-0.017592593,1,0,0,0.648,optionRight,70,12400,6,9,0,9,0,1,,,,,,,,,,,,,,,,,,,,,,,,,,,,,,,,,,,,,,,
,,,,,,,,2023-08-16_08h44.19.261,HF_wild_card,2022.2.4,Win32,60.0240096,627e7e91d0e389328983e765,64d2fd46c836a06233681665,64dc7e2c11ceb89b77a08da1,,,,,,,decisionTrl,resources/DB.BMP,resources/DG.BMP,Door3,-0.437037037,-0.012962963,1,0,0,1.963,optionLeft,70,12470,6,10,0,10,0,1,,,,,,,,,,,,,,,,,,,,,,,,,,,,,,,,,,,,,,,
,,,,,,,,2023-08-16_08h44.19.261,HF_wild_card,2022.2.4,Win32,60.0240096,627e7e91d0e389328983e765,64d2fd46c836a06233681665,64dc7e2c11ceb89b77a08da1,,,,,,,decisionTrl,resources/DY.BMP,resources/DP.BMP,Door1,-0.353703704,0.001851852,1,0,0,2.149,optionLeft,30,12500,6,11,0,11,0,1,,,,,,,,,,,,,,,,,,,,,,,,,,,,,,,,,,,,,,,
,,,,,,,,2023-08-16_08h44.19.261,HF_wild_card,2022.2.4,Win32,60.0240096,627e7e91d0e389328983e765,64d2fd46c836a06233681665,64dc7e2c11ceb89b77a08da1,,,,,,,ctch,resources/DG.BMP,resources/DY.BMP,Door4,-0.322222222,-0.00462963,1,0,0,1.248,optionLeft,80,12580,6,12,0,12,0,1,,,,,,,,,,,,,,,,,,,,,,,,,,,,,,,,,,,,,,,
,,,,,,,,2023-08-16_08h44.19.261,HF_wild_card,2022.2.4,Win32,60.0240096,627e7e91d0e389328983e765,64d2fd46c836a06233681665,64dc7e2c11ceb89b77a08da1,,,,,,,ctch,resources/DG.BMP,resources/DY.BMP,Door4,-0.355555556,-0.001851852,1,0,0,0.881,optionLeft,80,12660,6,13,0,13,0,1,,,,,,,,,,,,,,,,,,,,,,,,,,,,,,,,,,,,,,,
,,,,,,,,2023-08-16_08h44.19.261,HF_wild_card,2022.2.4,Win32,60.0240096,627e7e91d0e389328983e765,64d2fd46c836a06233681665,64dc7e2c11ceb89b77a08da1,,,,,,,sngl,resources/Empty.png,resources/DR.BMP,WildCard_Ex,0.29537037,-0.000925926,1,0,0,0.897,optionRight,55,12715,6,14,0,14,0,1,,,,,,,,,,,,,,,,,,,,,,,,,,,,,,,,,,,,,,,
,,,,,,,,2023-08-16_08h44.19.261,HF_wild_card,2022.2.4,Win32,60.0240096,627e7e91d0e389328983e765,64d2fd46c836a06233681665,64dc7e2c11ceb89b77a08da1,,,,,,,sngl,resources/DG.BMP,resources/Empty.png,Door4,-0.372222222,-0.001851852,1,0,0,0.765,optionLeft,60,12775,6,15,0,15,0,1,,,,,,,,,,,,,,,,,,,,,,,,,,,,,,,,,,,,,,,
,,,,,,,,2023-08-16_08h44.19.261,HF_wild_card,2022.2.4,Win32,60.0240096,627e7e91d0e389328983e765,64d2fd46c836a06233681665,64dc7e2c11ceb89b77a08da1,,,,,,,decisionTrl,resources/DB.BMP,resources/DR.BMP,Door3,-0.303703704,-0.019444444,1,0,0,1.898,optionLeft,70,12845,6,16,0,16,0,1,,,,,,,,,,,,,,,,,,,,,,,,,,,,,,,,,,,,,,,
,,,,,,,,2023-08-16_08h44.19.261,HF_wild_card,2022.2.4,Win32,60.0240096,627e7e91d0e389328983e765,64d2fd46c836a06233681665,64dc7e2c11ceb89b77a08da1,,,,,,,decisionTrl,resources/DR.BMP,resources/DG.BMP,Door4,0.451851852,-0.007407407,1,0,0,1.064,optionRight,60,12905,6,17,0,17,0,1,,,,,,,,,,,,,,,,,,,,,,,,,,,,,,,,,,,,,,,
,,,,,,,,2023-08-16_08h44.19.261,HF_wild_card,2022.2.4,Win32,60.0240096,627e7e91d0e389328983e765,64d2fd46c836a06233681665,64dc7e2c11ceb89b77a08da1,,,,,,,sngl,resources/Empty.png,resources/DB.BMP,Door3,0.350925926,-0.007407407,1,0,0,0.798,optionRight,70,12975,6,18,0,18,0,1,,,,,,,,,,,,,,,,,,,,,,,,,,,,,,,,,,,,,,,
,,,,,,,,2023-08-16_08h44.19.261,HF_wild_card,2022.2.4,Win32,60.0240096,627e7e91d0e389328983e765,64d2fd46c836a06233681665,64dc7e2c11ceb89b77a08da1,,,,,,,ctch,resources/DP.BMP,resources/DB.BMP,Door3,0.380555556,-0.014814815,1,0,0,0.994,optionRight,70,13045,6,19,0,19,0,1,,,,,,,,,,,,,,,,,,,,,,,,,,,,,,,,,,,,,,,
,,,,,,,,2023-08-16_08h44.19.261,HF_wild_card,2022.2.4,Win32,60.0240096,627e7e91d0e389328983e765,64d2fd46c836a06233681665,64dc7e2c11ceb89b77a08da1,,,,,,,decisionTrl,resources/DY.BMP,resources/DP.BMP,Door1,-0.351851852,-0.016666667,1,0,0,1.632,optionLeft,30,13075,6,20,0,20,0,1,,,,,,,,,,,,,,,,,,,,,,,,,,,,,,,,,,,,,,,
,,,,,,,,2023-08-16_08h44.19.261,HF_wild_card,2022.2.4,Win32,60.0240096,627e7e91d0e389328983e765,64d2fd46c836a06233681665,64dc7e2c11ceb89b77a08da1,,,,,,,decisionTrl,resources/DY.BMP,resources/DP.BMP,Door1,-0.296296296,0.025,1,0,0,1.032,optionLeft,30,13105,6,21,0,21,0,1,,,,,,,,,,,,,,,,,,,,,,,,,,,,,,,,,,,,,,,
,,,,,,,,2023-08-16_08h44.19.261,HF_wild_card,2022.2.4,Win32,60.0240096,627e7e91d0e389328983e765,64d2fd46c836a06233681665,64dc7e2c11ceb89b77a08da1,,,,,,,decisionTrl,resources/DP.BMP,resources/DY.BMP,Door1,0.351851852,-0.022222222,1,0,0,1.38,optionRight,30,13135,6,22,0,22,0,1,,,,,,,,,,,,,,,,,,,,,,,,,,,,,,,,,,,,,,,
,,,,,,,,2023-08-16_08h44.19.261,HF_wild_card,2022.2.4,Win32,60.0240096,627e7e91d0e389328983e765,64d2fd46c836a06233681665,64dc7e2c11ceb89b77a08da1,,,,,,,decisionTrl,resources/DB.BMP,resources/DG.BMP,Door4,0.294444444,-0.02962963,1,0,0,1.514,optionRight,60,13195,6,23,0,23,0,1,,,,,,,,,,,,,,,,,,,,,,,,,,,,,,,,,,,,,,,
,,,,,,,,2023-08-16_08h44.19.261,HF_wild_card,2022.2.4,Win32,60.0240096,627e7e91d0e389328983e765,64d2fd46c836a06233681665,64dc7e2c11ceb89b77a08da1,,,,,,,decisionTrl,resources/DG.BMP,resources/DR.BMP,Door4,-0.322222222,-0.000925926,1,0,0,1.865,optionLeft,60,13255,6,24,0,24,0,1,,,,,,,,,,,,,,,,,,,,,,,,,,,,,,,,,,,,,,,
,,,,,,,,2023-08-16_08h44.19.261,HF_wild_card,2022.2.4,Win32,60.0240096,627e7e91d0e389328983e765,64d2fd46c836a06233681665,64dc7e2c11ceb89b77a08da1,,,,,,,ctch,resources/DB.BMP,resources/DP.BMP,Door3,-0.442592593,0.007407407,1,0,0,1.382,optionLeft,70,13325,6,25,0,25,0,1,,,,,,,,,,,,,,,,,,,,,,,,,,,,,,,,,,,,,,,
,,,,,,,,2023-08-16_08h44.19.261,HF_wild_card,2022.2.4,Win32,60.0240096,627e7e91d0e389328983e765,64d2fd46c836a06233681665,64dc7e2c11ceb89b77a08da1,,,,,,,decisionTrl,resources/DY.BMP,resources/DP.BMP,Door1,-0.339814815,0.009259259,1,0,0,1.949,optionLeft,30,13355,6,26,0,26,0,1,,,,,,,,,,,,,,,,,,,,,,,,,,,,,,,,,,,,,,,
,,,,,,,,2023-08-16_08h44.19.261,HF_wild_card,2022.2.4,Win32,60.0240096,627e7e91d0e389328983e765,64d2fd46c836a06233681665,64dc7e2c11ceb89b77a08da1,,,,,,,decisionTrl,resources/DB.BMP,resources/DG.BMP,Door4,0.407407407,-0.005555556,1,0,0,1.832,optionRight,60,13415,6,27,0,27,0,1,,,,,,,,,,,,,,,,,,,,,,,,,,,,,,,,,,,,,,,
,,,,,,,,2023-08-16_08h44.19.261,HF_wild_card,2022.2.4,Win32,60.0240096,627e7e91d0e389328983e765,64d2fd46c836a06233681665,64dc7e2c11ceb89b77a08da1,,,,,,,decisionTrl,resources/DG.BMP,resources/DB.BMP,Door3,0.310185185,-0.011111111,1,0,0,1.048,optionRight,70,13485,6,28,0,28,0,1,,,,,,,,,,,,,,,,,,,,,,,,,,,,,,,,,,,,,,,
,,,,,,,,2023-08-16_08h44.19.261,HF_wild_card,2022.2.4,Win32,60.0240096,627e7e91d0e389328983e765,64d2fd46c836a06233681665,64dc7e2c11ceb89b77a08da1,,,,,,,sngl,resources/DR.BMP,resources/Empty.png,WildCard_Ex,-0.374074074,0.005555556,1,0,0,0.794,optionLeft,55,13540,6,29,0,29,0,1,,,,,,,,,,,,,,,,,,,,,,,,,,,,,,,,,,,,,,,
,,,,,,,,2023-08-16_08h44.19.261,HF_wild_card,2022.2.4,Win32,60.0240096,627e7e91d0e389328983e765,64d2fd46c836a06233681665,64dc7e2c11ceb89b77a08da1,,,,,,,decisionTrl,resources/DG.BMP,resources/DB.BMP,Door3,0.363888889,-0.056481481,1,0,0,0.812,optionRight,70,13610,6,30,0,30,0,1,,,,,,,,,,,,,,,,,,,,,,,,,,,,,,,,,,,,,,,
,,,,,,,,2023-08-16_08h44.19.261,HF_wild_card,2022.2.4,Win32,60.0240096,627e7e91d0e389328983e765,64d2fd46c836a06233681665,64dc7e2c11ceb89b77a08da1,,,,,,,sngl,resources/DR.BMP,resources/Empty.png,WildCard_Ex,-0.414814815,0.00462963,1,0,0,0.747,optionLeft,45,13655,6,31,0,31,0,1,,,,,,,,,,,,,,,,,,,,,,,,,,,,,,,,,,,,,,,
,,,,,,,,2023-08-16_08h44.19.261,HF_wild_card,2022.2.4,Win32,60.0240096,627e7e91d0e389328983e765,64d2fd46c836a06233681665,64dc7e2c11ceb89b77a08da1,,,,,,,sngl,resources/DP.BMP,resources/Empty.png,Door2,-0.307407407,0.003703704,1,0,0,0.728,optionLeft,20,13675,6,32,0,32,0,1,,,,,,,,,,,,,,,,,,,,,,,,,,,,,,,,,,,,,,,
,,,,,,,,2023-08-16_08h44.19.261,HF_wild_card,2022.2.4,Win32,60.0240096,627e7e91d0e389328983e765,64d2fd46c836a06233681665,64dc7e2c11ceb89b77a08da1,,,,,,,sngl,resources/Empty.png,resources/DG.BMP,Door4,0.407407407,-0.011111111,1,0,0,0.731,optionRight,80,13755,6,33,0,33,0,1,,,,,,,,,,,,,,,,,,,,,,,,,,,,,,,,,,,,,,,
,,,,,,,,2023-08-16_08h44.19.261,HF_wild_card,2022.2.4,Win32,60.0240096,627e7e91d0e389328983e765,64d2fd46c836a06233681665,64dc7e2c11ceb89b77a08da1,,,,,,,sngl,resources/DB.BMP,resources/Empty.png,Door3,-0.426851852,0.031481481,1,0,0,0.648,optionLeft,70,13825,6,34,0,34,0,1,,,,,,,,,,,,,,,,,,,,,,,,,,,,,,,,,,,,,,,
,,,,,,,,2023-08-16_08h44.19.261,HF_wild_card,2022.2.4,Win32,60.0240096,627e7e91d0e389328983e765,64d2fd46c836a06233681665,64dc7e2c11ceb89b77a08da1,,,,,,,ctch,resources/DY.BMP,resources/DG.BMP,Door4,0.389814815,-0.021296296,1,0,0,0.882,optionRight,80,13905,6,35,0,35,0,1,,,,,,,,,,,,,,,,,,,,,,,,,,,,,,,,,,,,,,,
,,,,,,,,2023-08-16_08h44.19.261,HF_wild_card,2022.2.4,Win32,60.0240096,627e7e91d0e389328983e765,64d2fd46c836a06233681665,64dc7e2c11ceb89b77a08da1,,,,,,,sngl,resources/Empty.png,resources/DR.BMP,WildCard_Ex,0.426851852,-0.026851852,1,0,0,0.714,optionRight,45,13950,6,36,0,36,0,1,,,,,,,,,,,,,,,,,,,,,,,,,,,,,,,,,,,,,,,
,,,,,,,,2023-08-16_08h44.19.261,HF_wild_card,2022.2.4,Win32,60.0240096,627e7e91d0e389328983e765,64d2fd46c836a06233681665,64dc7e2c11ceb89b77a08da1,,,,,,,decisionTrl,resources/DB.BMP,resources/DG.BMP,Door4,0.363888889,0.000925926,1,0,0,0.832,optionRight,80,14030,6,37,0,37,0,1,,,,,,,,,,,,,,,,,,,,,,,,,,,,,,,,,,,,,,,
,,,,,,,,2023-08-16_08h44.19.261,HF_wild_card,2022.2.4,Win32,60.0240096,627e7e91d0e389328983e765,64d2fd46c836a06233681665,64dc7e2c11ceb89b77a08da1,,,,,,,ctch,resources/DB.BMP,resources/DP.BMP,Door3,-0.390740741,0.001851852,1,0,0,0.997,optionLeft,70,14100,6,38,0,38,0,1,,,,,,,,,,,,,,,,,,,,,,,,,,,,,,,,,,,,,,,
,,,,,,,,2023-08-16_08h44.19.261,HF_wild_card,2022.2.4,Win32,60.0240096,627e7e91d0e389328983e765,64d2fd46c836a06233681665,64dc7e2c11ceb89b77a08da1,,,,,,,decisionTrl,resources/DG.BMP,resources/DB.BMP,Door4,-0.402777778,-0.015740741,1,0,0,1.496,optionLeft,80,14180,6,39,0,39,0,1,,,,,,,,,,,,,,,,,,,,,,,,,,,,,,,,,,,,,,,
,,,,,,,,2023-08-16_08h44.19.261,HF_wild_card,2022.2.4,Win32,60.0240096,627e7e91d0e389328983e765,64d2fd46c836a06233681665,64dc7e2c11ceb89b77a08da1,,,,,,,ctch,resources/DY.BMP,resources/DG.BMP,Door4,0.371296296,-0.026851852,1,0,0,0.931,optionRight,80,14260,6,40,0,40,0,1,,,,,,,,,,,,,,,,,,,,,,,,,,,,,,,,,,,,,,,
,,,,,,,,2023-08-16_08h44.19.261,HF_wild_card,2022.2.4,Win32,60.0240096,627e7e91d0e389328983e765,64d2fd46c836a06233681665,64dc7e2c11ceb89b77a08da1,,,,,,,decisionTrl,resources/DP.BMP,resources/DY.BMP,Door1,0.380555556,-0.017592593,1,0,0,1.365,optionRight,30,14290,6,41,0,41,0,1,,,,,,,,,,,,,,,,,,,,,,,,,,,,,,,,,,,,,,,
,,,,,,,,2023-08-16_08h44.19.261,HF_wild_card,2022.2.4,Win32,60.0240096,627e7e91d0e389328983e765,64d2fd46c836a06233681665,64dc7e2c11ceb89b77a08da1,,,,,,,decisionTrl,resources/DR.BMP,resources/DP.BMP,WildCard_Ex,-0.412037037,0.012962963,1,0,0,2.046,optionLeft,55,14345,6,42,0,42,0,1,,,,,,,,,,,,,,,,,,,,,,,,,,,,,,,,,,,,,,,
,,,,,,,,2023-08-16_08h44.19.261,HF_wild_card,2022.2.4,Win32,60.0240096,627e7e91d0e389328983e765,64d2fd46c836a06233681665,64dc7e2c11ceb89b77a08da1,,,,,,,sngl,resources/Empty.png,resources/DP.BMP,Door2,0.355555556,-0.033333333,1,0,0,0.818,optionRight,40,14385,6,43,0,43,0,1,,,,,,,,,,,,,,,,,,,,,,,,,,,,,,,,,,,,,,,
,,,,,,,,2023-08-16_08h44.19.261,HF_wild_card,2022.2.4,Win32,60.0240096,627e7e91d0e389328983e765,64d2fd46c836a06233681665,64dc7e2c11ceb89b77a08da1,,,,,,,,,,,,,,,,,,,,,,,,,,5,0,5,0,1,,,,,,,,,,,,,,,,,,,,,,,,,,,,,,,,,,
,,,,,,,,2023-08-16_08h44.19.261,HF_wild_card,2022.2.4,Win32,60.0240096,627e7e91d0e389328983e765,64d2fd46c836a06233681665,64dc7e2c11ceb89b77a08da1,,,,,,,decisionTrl,resources/DY.BMP,resources/DP.BMP,Door1,-0.334259259,-0.046296296,1,0,0,1.977,optionLeft,30,14415,7,0,0,0,0,1,,,,,,,,,,,,,,,,,,,,,,,,,,,,,,,,,,,,,,,
,,,,,,,,2023-08-16_08h44.19.261,HF_wild_card,2022.2.4,Win32,60.0240096,627e7e91d0e389328983e765,64d2fd46c836a06233681665,64dc7e2c11ceb89b77a08da1,,,,,,,ctch,resources/DG.BMP,resources/DY.BMP,Door4,-0.435185185,-0.016666667,1,0,0,1.099,optionLeft,80,14495,7,1,0,1,0,1,,,,,,,,,,,,,,,,,,,,,,,,,,,,,,,,,,,,,,,
,,,,,,,,2023-08-16_08h44.19.261,HF_wild_card,2022.2.4,Win32,60.0240096,627e7e91d0e389328983e765,64d2fd46c836a06233681665,64dc7e2c11ceb89b77a08da1,,,,,,,ctch,resources/DG.BMP,resources/DY.BMP,Door4,-0.373148148,-0.013888889,1,0,0,1.166,optionLeft,60,14555,7,2,0,2,0,1,,,,,,,,,,,,,,,,,,,,,,,,,,,,,,,,,,,,,,,
,,,,,,,,2023-08-16_08h44.19.261,HF_wild_card,2022.2.4,Win32,60.0240096,627e7e91d0e389328983e765,64d2fd46c836a06233681665,64dc7e2c11ceb89b77a08da1,,,,,,,ctch,resources/DY.BMP,resources/DG.BMP,Door4,0.400925926,-0.015740741,1,0,0,1.331,optionRight,60,14615,7,3,0,3,0,1,,,,,,,,,,,,,,,,,,,,,,,,,,,,,,,,,,,,,,,
,,,,,,,,2023-08-16_08h44.19.261,HF_wild_card,2022.2.4,Win32,60.0240096,627e7e91d0e389328983e765,64d2fd46c836a06233681665,64dc7e2c11ceb89b77a08da1,,,,,,,decisionTrl,resources/DB.BMP,resources/DG.BMP,Door4,0.424074074,-0.018518519,1,0,0,1.465,optionRight,60,14675,7,4,0,4,0,1,,,,,,,,,,,,,,,,,,,,,,,,,,,,,,,,,,,,,,,
,,,,,,,,2023-08-16_08h44.19.261,HF_wild_card,2022.2.4,Win32,60.0240096,627e7e91d0e389328983e765,64d2fd46c836a06233681665,64dc7e2c11ceb89b77a08da1,,,,,,,decisionTrl,resources/DB.BMP,resources/DG.BMP,Door3,-0.351851852,-0.002777778,1,0,0,4.418,optionLeft,70,14745,7,5,0,5,0,1,,,,,,,,,,,,,,,,,,,,,,,,,,,,,,,,,,,,,,,
,,,,,,,,2023-08-16_08h44.19.261,HF_wild_card,2022.2.4,Win32,60.0240096,627e7e91d0e389328983e765,64d2fd46c836a06233681665,64dc7e2c11ceb89b77a08da1,,,,,,,decisionTrl,resources/DG.BMP,resources/DB.BMP,Door3,0.357407407,-0.037037037,1,0,0,1.396,optionRight,70,14815,7,6,0,6,0,1,,,,,,,,,,,,,,,,,,,,,,,,,,,,,,,,,,,,,,,
,,,,,,,,2023-08-16_08h44.19.261,HF_wild_card,2022.2.4,Win32,60.0240096,627e7e91d0e389328983e765,64d2fd46c836a06233681665,64dc7e2c11ceb89b77a08da1,,,,,,,decisionTrl,resources/DP.BMP,resources/DY.BMP,Door1,0.372222222,-0.028703704,1,0,0,1.682,optionRight,30,14845,7,7,0,7,0,1,,,,,,,,,,,,,,,,,,,,,,,,,,,,,,,,,,,,,,,
,,,,,,,,2023-08-16_08h44.19.261,HF_wild_card,2022.2.4,Win32,60.0240096,627e7e91d0e389328983e765,64d2fd46c836a06233681665,64dc7e2c11ceb89b77a08da1,,,,,,,ctch,resources/DP.BMP,resources/DB.BMP,Door3,0.390740741,-0.028703704,1,0,0,1.247,optionRight,70,14915,7,8,0,8,0,1,,,,,,,,,,,,,,,,,,,,,,,,,,,,,,,,,,,,,,,
,,,,,,,,2023-08-16_08h44.19.261,HF_wild_card,2022.2.4,Win32,60.0240096,627e7e91d0e389328983e765,64d2fd46c836a06233681665,64dc7e2c11ceb89b77a08da1,,,,,,,ctch,resources/DY.BMP,resources/DG.BMP,Door4,0.443518519,-0.042592593,1,0,0,1.215,optionRight,60,14975,7,9,0,9,0,1,,,,,,,,,,,,,,,,,,,,,,,,,,,,,,,,,,,,,,,
,,,,,,,,2023-08-16_08h44.19.261,HF_wild_card,2022.2.4,Win32,60.0240096,627e7e91d0e389328983e765,64d2fd46c836a06233681665,64dc7e2c11ceb89b77a08da1,,,,,,,decisionTrl,resources/DY.BMP,resources/DP.BMP,Door1,-0.331481481,-0.010185185,1,0,0,1.082,optionLeft,30,15005,7,10,0,10,0,1,,,,,,,,,,,,,,,,,,,,,,,,,,,,,,,,,,,,,,,
,,,,,,,,2023-08-16_08h44.19.261,HF_wild_card,2022.2.4,Win32,60.0240096,627e7e91d0e389328983e765,64d2fd46c836a06233681665,64dc7e2c11ceb89b77a08da1,,,,,,,decisionTrl,resources/DB.BMP,resources/DG.BMP,Door4,0.390740741,-0.034259259,1,0,0,1.164,optionRight,80,15085,7,11,0,11,0,1,,,,,,,,,,,,,,,,,,,,,,,,,,,,,,,,,,,,,,,
,,,,,,,,2023-08-16_08h44.19.261,HF_wild_card,2022.2.4,Win32,60.0240096,627e7e91d0e389328983e765,64d2fd46c836a06233681665,64dc7e2c11ceb89b77a08da1,,,,,,,decisionTrl,resources/DG.BMP,resources/DB.BMP,Door3,0.377777778,-0.005555556,1,0,0,1.765,optionRight,70,15155,7,12,0,12,0,1,,,,,,,,,,,,,,,,,,,,,,,,,,,,,,,,,,,,,,,
,,,,,,,,2023-08-16_08h44.19.261,HF_wild_card,2022.2.4,Win32,60.0240096,627e7e91d0e389328983e765,64d2fd46c836a06233681665,64dc7e2c11ceb89b77a08da1,,,,,,,decisionTrl,resources/DY.BMP,resources/DP.BMP,Door1,-0.357407407,0.003703704,1,0,0,1.266,optionLeft,30,15185,7,13,0,13,0,1,,,,,,,,,,,,,,,,,,,,,,,,,,,,,,,,,,,,,,,
,,,,,,,,2023-08-16_08h44.19.261,HF_wild_card,2022.2.4,Win32,60.0240096,627e7e91d0e389328983e765,64d2fd46c836a06233681665,64dc7e2c11ceb89b77a08da1,,,,,,,ctch,resources/DP.BMP,resources/DB.BMP,Door3,0.387962963,-0.007407407,1,0,0,2.133,optionRight,70,15255,7,14,0,14,0,1,,,,,,,,,,,,,,,,,,,,,,,,,,,,,,,,,,,,,,,
,,,,,,,,2023-08-16_08h44.19.261,HF_wild_card,2022.2.4,Win32,60.0240096,627e7e91d0e389328983e765,64d2fd46c836a06233681665,64dc7e2c11ceb89b77a08da1,,,,,,,decisionTrl,resources/DB.BMP,resources/DG.BMP,Door4,0.392592593,-0.017592593,1,0,0,1.382,optionRight,80,15335,7,15,0,15,0,1,,,,,,,,,,,,,,,,,,,,,,,,,,,,,,,,,,,,,,,
,,,,,,,,2023-08-16_08h44.19.261,HF_wild_card,2022.2.4,Win32,60.0240096,627e7e91d0e389328983e765,64d2fd46c836a06233681665,64dc7e2c11ceb89b77a08da1,,,,,,,decisionTrl,resources/DP.BMP,resources/DY.BMP,Door1,0.403703704,-0.02037037,1,0,0,1.346,optionRight,30,15365,7,16,0,16,0,1,,,,,,,,,,,,,,,,,,,,,,,,,,,,,,,,,,,,,,,
,,,,,,,,2023-08-16_08h44.19.261,HF_wild_card,2022.2.4,Win32,60.0240096,627e7e91d0e389328983e765,64d2fd46c836a06233681665,64dc7e2c11ceb89b77a08da1,,,,,,,ctch,resources/DB.BMP,resources/DP.BMP,Door3,-0.351851852,-0.02037037,1,0,0,1.197,optionLeft,70,15435,7,17,0,17,0,1,,,,,,,,,,,,,,,,,,,,,,,,,,,,,,,,,,,,,,,
,,,,,,,,2023-08-16_08h44.19.261,HF_wild_card,2022.2.4,Win32,60.0240096,627e7e91d0e389328983e765,64d2fd46c836a06233681665,64dc7e2c11ceb89b77a08da1,,,,,,,ctch,resources/DY.BMP,resources/DG.BMP,Door4,0.394444444,-0.013888889,1,0,0,0.949,optionRight,80,15515,7,18,0,18,0,1,,,,,,,,,,,,,,,,,,,,,,,,,,,,,,,,,,,,,,,
,,,,,,,,2023-08-16_08h44.19.261,HF_wild_card,2022.2.4,Win32,60.0240096,627e7e91d0e389328983e765,64d2fd46c836a06233681665,64dc7e2c11ceb89b77a08da1,,,,,,,decisionTrl,resources/DB.BMP,resources/DG.BMP,Door4,0.405555556,-0.02037037,1,0,0,1.082,optionRight,80,15595,7,19,0,19,0,1,,,,,,,,,,,,,,,,,,,,,,,,,,,,,,,,,,,,,,,
,,,,,,,,2023-08-16_08h44.19.261,HF_wild_card,2022.2.4,Win32,60.0240096,627e7e91d0e389328983e765,64d2fd46c836a06233681665,64dc7e2c11ceb89b77a08da1,,,,,,,decisionTrl,resources/DY.BMP,resources/DP.BMP,Door1,-0.34537037,-0.006481481,1,0,0,1.23,optionLeft,30,15625,7,20,0,20,0,1,,,,,,,,,,,,,,,,,,,,,,,,,,,,,,,,,,,,,,,
,,,,,,,,2023-08-16_08h44.19.261,HF_wild_card,2022.2.4,Win32,60.0240096,627e7e91d0e389328983e765,64d2fd46c836a06233681665,64dc7e2c11ceb89b77a08da1,,,,,,,ctch,resources/DP.BMP,resources/DB.BMP,Door3,0.377777778,-0.012037037,1,0,0,1.081,optionRight,70,15695,7,21,0,21,0,1,,,,,,,,,,,,,,,,,,,,,,,,,,,,,,,,,,,,,,,
,,,,,,,,2023-08-16_08h44.19.261,HF_wild_card,2022.2.4,Win32,60.0240096,627e7e91d0e389328983e765,64d2fd46c836a06233681665,64dc7e2c11ceb89b77a08da1,,,,,,,decisionTrl,resources/DY.BMP,resources/DP.BMP,Door1,-0.365740741,-0.014814815,1,0,0,1.748,optionLeft,30,15725,7,22,0,22,0,1,,,,,,,,,,,,,,,,,,,,,,,,,,,,,,,,,,,,,,,
,,,,,,,,2023-08-16_08h44.19.261,HF_wild_card,2022.2.4,Win32,60.0240096,627e7e91d0e389328983e765,64d2fd46c836a06233681665,64dc7e2c11ceb89b77a08da1,,,,,,,ctch,resources/DB.BMP,resources/DP.BMP,Door3,-0.366666667,-0.018518519,1,0,0,1.048,optionLeft,70,15795,7,23,0,23,0,1,,,,,,,,,,,,,,,,,,,,,,,,,,,,,,,,,,,,,,,
,,,,,,,,2023-08-16_08h44.19.261,HF_wild_card,2022.2.4,Win32,60.0240096,627e7e91d0e389328983e765,64d2fd46c836a06233681665,64dc7e2c11ceb89b77a08da1,,,,,,,decisionTrl,resources/DP.BMP,resources/DY.BMP,Door1,0.336111111,-0.007407407,1,0,0,1.482,optionRight,30,15825,7,24,0,24,0,1,,,,,,,,,,,,,,,,,,,,,,,,,,,,,,,,,,,,,,,
,,,,,,,,2023-08-16_08h44.19.261,HF_wild_card,2022.2.4,Win32,60.0240096,627e7e91d0e389328983e765,64d2fd46c836a06233681665,64dc7e2c11ceb89b77a08da1,,,,,,,decisionTrl,resources/DG.BMP,resources/DB.BMP,Door4,-0.343518519,-0.013888889,1,0,0,1.231,optionLeft,60,15885,7,25,0,25,0,1,,,,,,,,,,,,,,,,,,,,,,,,,,,,,,,,,,,,,,,
,,,,,,,,2023-08-16_08h44.19.261,HF_wild_card,2022.2.4,Win32,60.0240096,627e7e91d0e389328983e765,64d2fd46c836a06233681665,64dc7e2c11ceb89b77a08da1,,,,,,,decisionTrl,resources/DY.BMP,resources/DP.BMP,Door1,-0.353703704,-0.015740741,1,0,0,1.299,optionLeft,30,15915,7,26,0,26,0,1,,,,,,,,,,,,,,,,,,,,,,,,,,,,,,,,,,,,,,,
,,,,,,,,2023-08-16_08h44.19.261,HF_wild_card,2022.2.4,Win32,60.0240096,627e7e91d0e389328983e765,64d2fd46c836a06233681665,64dc7e2c11ceb89b77a08da1,,,,,,,ctch,resources/DB.BMP,resources/DP.BMP,Door3,-0.335185185,-0.007407407,1,0,0,0.866,optionLeft,70,15985,7,27,0,27,0,1,,,,,,,,,,,,,,,,,,,,,,,,,,,,,,,,,,,,,,,
,,,,,,,,2023-08-16_08h44.19.261,HF_wild_card,2022.2.4,Win32,60.0240096,627e7e91d0e389328983e765,64d2fd46c836a06233681665,64dc7e2c11ceb89b77a08da1,,,,,,,decisionTrl,resources/DG.BMP,resources/DB.BMP,Door3,0.361111111,-0.039814815,1,0,0,0.946,optionRight,70,16055,7,28,0,28,0,1,,,,,,,,,,,,,,,,,,,,,,,,,,,,,,,,,,,,,,,
,,,,,,,,2023-08-16_08h44.19.261,HF_wild_card,2022.2.4,Win32,60.0240096,627e7e91d0e389328983e765,64d2fd46c836a06233681665,64dc7e2c11ceb89b77a08da1,,,,,,,decisionTrl,resources/DP.BMP,resources/DY.BMP,Door1,0.375,-0.009259259,1,0,0,1.697,optionRight,30,16085,7,29,0,29,0,1,,,,,,,,,,,,,,,,,,,,,,,,,,,,,,,,,,,,,,,
,,,,,,,,2023-08-16_08h44.19.261,HF_wild_card,2022.2.4,Win32,60.0240096,627e7e91d0e389328983e765,64d2fd46c836a06233681665,64dc7e2c11ceb89b77a08da1,,,,,,,decisionTrl,resources/DP.BMP,resources/DY.BMP,Door1,0.389814815,-0.012962963,1,0,0,1.083,optionRight,30,16115,7,30,0,30,0,1,,,,,,,,,,,,,,,,,,,,,,,,,,,,,,,,,,,,,,,
,,,,,,,,2023-08-16_08h44.19.261,HF_wild_card,2022.2.4,Win32,60.0240096,627e7e91d0e389328983e765,64d2fd46c836a06233681665,64dc7e2c11ceb89b77a08da1,,,,,,,ctch,resources/DG.BMP,resources/DY.BMP,Door4,-0.378703704,-0.012962963,1,0,0,1.3,optionLeft,80,16195,7,31,0,31,0,1,,,,,,,,,,,,,,,,,,,,,,,,,,,,,,,,,,,,,,,
,,,,,,,,2023-08-16_08h44.19.261,HF_wild_card,2022.2.4,Win32,60.0240096,627e7e91d0e389328983e765,64d2fd46c836a06233681665,64dc7e2c11ceb89b77a08da1,,,,,,,decisionTrl,resources/DB.BMP,resources/DG.BMP,Door4,0.413888889,-0.017592593,1,0,0,3.716,optionRight,60,16255,7,32,0,32,0,1,,,,,,,,,,,,,,,,,,,,,,,,,,,,,,,,,,,,,,,
,,,,,,,,2023-08-16_08h44.19.261,HF_wild_card,2022.2.4,Win32,60.0240096,627e7e91d0e389328983e765,64d2fd46c836a06233681665,64dc7e2c11ceb89b77a08da1,,,,,,,decisionTrl,resources/DG.BMP,resources/DB.BMP,Door4,-0.401851852,-0.015740741,1,0,0,1.549,optionLeft,60,16315,7,33,0,33,0,1,,,,,,,,,,,,,,,,,,,,,,,,,,,,,,,,,,,,,,,
,,,,,,,,2023-08-16_08h44.19.261,HF_wild_card,2022.2.4,Win32,60.0240096,627e7e91d0e389328983e765,64d2fd46c836a06233681665,64dc7e2c11ceb89b77a08da1,,,,,,,decisionTrl,resources/DG.BMP,resources/DB.BMP,Door3,0.363888889,-0.027777778,1,0,0,0.999,optionRight,70,16385,7,34,0,34,0,1,,,,,,,,,,,,,,,,,,,,,,,,,,,,,,,,,,,,,,,
,,,,,,,,2023-08-16_08h44.19.261,HF_wild_card,2022.2.4,Win32,60.0240096,627e7e91d0e389328983e765,64d2fd46c836a06233681665,64dc7e2c11ceb89b77a08da1,,,,,,,decisionTrl,resources/DP.BMP,resources/DY.BMP,Door1,0.403703704,-0.012037037,1,0,0,1.164,optionRight,30,16415,7,35,0,35,0,1,,,,,,,,,,,,,,,,,,,,,,,,,,,,,,,,,,,,,,,
,,,,,,,,2023-08-16_08h44.19.261,HF_wild_card,2022.2.4,Win32,60.0240096,627e7e91d0e389328983e765,64d2fd46c836a06233681665,64dc7e2c11ceb89b77a08da1,,,,,,,,,,,,,,,,,,,,,,,,,,6,0,6,0,1,,,,,,,,,,,,,,,,,,,,,,,,,,,,,,,,,,
,,,,,,,,2023-08-16_08h44.19.261,HF_wild_card,2022.2.4,Win32,60.0240096,627e7e91d0e389328983e765,64d2fd46c836a06233681665,64dc7e2c11ceb89b77a08da1,,,,,,,,,,,,,,,,,,,,,,,,,,,,,,,4,,,,,,,,,,,,,,,,,,,,,,,,,,,,,,,,,
,,,,,,,,2023-08-16_08h44.19.261,HF_wild_card,2022.2.4,Win32,60.0240096,627e7e91d0e389328983e765,64d2fd46c836a06233681665,64dc7e2c11ceb89b77a08da1,,,,,,,,,,,,,,,,,,,,,,,,,,,,,,,,,,,,,,,,,,,,,,,,,,,,,,,,,,,,,,,,
,,,,,,,,2023-08-16_08h44.19.261,HF_wild_card,2022.2.4,Win32,60.0240096,627e7e91d0e389328983e765,64d2fd46c836a06233681665,64dc7e2c11ceb89b77a08da1,,,,,,,,,,,,,,,,,,,,,,,,,,,,,,,,50,Door3,resources/DB.BMP,0,0,0,0,1,,,,,,,,,,,,,,,,,,,,,,,,,
,,,,,,,,2023-08-16_08h44.19.261,HF_wild_card,2022.2.4,Win32,60.0240096,627e7e91d0e389328983e765,64d2fd46c836a06233681665,64dc7e2c11ceb89b77a08da1,,,,,,,,,,,,,,,,,,,,,,,,,,,,,,,,25,Door2,resources/DP.BMP,1,0,1,0,1,,,,,,,,,,,,,,,,,,,,,,,,,
,,,,,,,,2023-08-16_08h44.19.261,HF_wild_card,2022.2.4,Win32,60.0240096,627e7e91d0e389328983e765,64d2fd46c836a06233681665,64dc7e2c11ceb89b77a08da1,,,,,,,,,,,,,,,,,,,,,,,,,,,,,,,,80,Door4,resources/DG.BMP,2,0,2,0,1,,,,,,,,,,,,,,,,,,,,,,,,,
,,,,,,,,2023-08-16_08h44.19.261,HF_wild_card,2022.2.4,Win32,60.0240096,627e7e91d0e389328983e765,64d2fd46c836a06233681665,64dc7e2c11ceb89b77a08da1,,,,,,,,,,,,,,,,,,,,,,,,,,,,,,,,40,WC_nonExtreme,resources/DBN.BMP,3,0,3,0,1,,,,,,,,,,,,,,,,,,,,,,,,,
,,,,,,,,2023-08-16_08h44.19.261,HF_wild_card,2022.2.4,Win32,60.0240096,627e7e91d0e389328983e765,64d2fd46c836a06233681665,64dc7e2c11ceb89b77a08da1,,,,,,,,,,,,,,,,,,,,,,,,,,,,,,,,30,Door1,resources/DY.BMP,4,0,4,0,1,,,,,,,,,,,,,,,,,,,,,,,,,
,,,,,,,,2023-08-16_08h44.19.261,HF_wild_card,2022.2.4,Win32,60.0240096,627e7e91d0e389328983e765,64d2fd46c836a06233681665,64dc7e2c11ceb89b77a08da1,,,,,,,,,,,,,,,,,,,,,,,,,,,,,,,,45,WC_extreme,resources/DR.BMP,5,0,5,0,1,,,,,,,,,,,,,,,,,,,,,,,,,
,,,,,,,,2023-08-16_08h44.19.261,HF_wild_card,2022.2.4,Win32,60.0240096,627e7e91d0e389328983e765,64d2fd46c836a06233681665,64dc7e2c11ceb89b77a08da1,,,,,,,,,,,,,,,,,,,,,,,,,,,,,,,,,,,,,,,,,,,,,,,,,,,,,,,,,,,,,,,,
,,,,,,,,2023-08-16_08h44.19.261,HF_wild_card,2022.2.4,Win32,60.0240096,627e7e91d0e389328983e765,64d2fd46c836a06233681665,64dc7e2c11ceb89b77a08da1,,,,,,,,,,,,,,,,,,,,,,,,,,,,,,,,,,,,,,,,0,0,0,0,1,,,,,,,,,,,,,,,,,,,,
,,,,,,,,2023-08-16_08h44.19.261,HF_wild_card,2022.2.4,Win32,60.0240096,627e7e91d0e389328983e765,64d2fd46c836a06233681665,64dc7e2c11ceb89b77a08da1,,,,,,,,,,,,,,,,,,,,,,,,,,,,,,,,,,,,,,,,1,0,1,0,1,,,,,,,,,,,,,,,,,,,,
,,,,,,,,2023-08-16_08h44.19.261,HF_wild_card,2022.2.4,Win32,60.0240096,627e7e91d0e389328983e765,64d2fd46c836a06233681665,64dc7e2c11ceb89b77a08da1,,,,,,,,,,,,,,,,,,,,,,,,,,,,,,,,,,,,,,,,,,,,,-0.310185185,-0.388888889,1,0,0,yes,50%,50%,WC_extreme,resources/DR.BMP,0,0,0,0,1,,,,,
