Condition,Low fixed image (Door1),Low risky image (Door2),High fixed image (Door3),High risky image (Door4),NonExtreme Wild Card 1,NonExtreme Wild Card 2,,date,expName,psychopyVersion,OS,frameRate,PROLIFIC_PID,STUDY_ID,SESSION_ID,mouse_2.x,mouse_2.y,mouse_2.leftButton,mouse_2.midButton,mouse_2.rightButton,mouse_2.clicked_name,Trial Type,Left Option Image,Right Option Image,Chosen Door,mouse.x,mouse.y,mouse.leftButton,mouse.midButton,mouse.rightButton,mouse.time,mouse.clicked_name,Feedback,Cumulative Reward,Block,trial.thisRepN,trial.thisTrialN,trial.thisN,trial.thisIndex,trial.ran,blocks.thisRepN,blocks.thisTrialN,blocks.thisN,blocks.thisIndex,blocks.ran,Money conversion,First Outcome Reported,Shown Door (First Outcome),Displayed Image (First Outcome),outcomes.thisRepN,outcomes.thisTrialN,outcomes.thisN,outcomes.thisIndex,outcomes.ran,judgments.thisRepN,judgments.thisTrialN,judgments.thisN,judgments.thisIndex,judgments.ran,freqMouse.x,freqMouse.y,freqMouse.leftButton,freqMouse.midButton,freqMouse.rightButton,freqMouse.clicked_name,FQJ for first outcome,FQJ for second outcome,Shown Door,Displayed Image,trials.thisRepN,trials.thisTrialN,trials.thisN,trials.thisIndex,trials.ran,judgBlock.thisRepN,judgBlock.thisTrialN,judgBlock.thisN,judgBlock.thisIndex,judgBlock.ran
2,resources/DBN.BMP,resources/DR.BMP,resources/DY.BMP,resources/DG.BMP,resources/DB.BMP,resources/DP.BMP,6346d43493a4f14e735bc630,2023-08-16_09h12.01.823,HF_wild_card,2022.2.4,Win32,60.40106306,6346d43493a4f14e735bc630,64d2fd46c836a06233681665,64dc84701cd8412efe8a3d65,,,,,,,,,,,,,,,,,,,,,,,,,,,,,,,,,,,,,,,,,,,,,,,,,,,,,,,,,,,,,,,,
,,,,,,,6346d43493a4f14e735bc630,2023-08-16_09h12.01.823,HF_wild_card,2022.2.4,Win32,60.40106306,6346d43493a4f14e735bc630,64d2fd46c836a06233681665,64dc84701cd8412efe8a3d65,0.015567207,-0.424074109,1,0,0,agree,,,,,,,,,,,,,,,,,,,,,,,,,,,,,,,,,,,,,,,,,,,,,,,,,,,,,,,,,,
,,,,,,,6346d43493a4f14e735bc630,2023-08-16_09h12.01.823,HF_wild_card,2022.2.4,Win32,60.40106306,6346d43493a4f14e735bc630,64d2fd46c836a06233681665,64dc84701cd8412efe8a3d65,,,,,,,,,,,,,,,,,,,,,,,,,,,,,,,,,,,,,,,,,,,,,,,,,,,,,,,,,,,,,,,,
,,,,,,,6346d43493a4f14e735bc630,2023-08-16_09h12.01.823,HF_wild_card,2022.2.4,Win32,60.40106306,6346d43493a4f14e735bc630,64d2fd46c836a06233681665,64dc84701cd8412efe8a3d65,,,,,,,decisionTrl,resources/DBN.BMP,resources/DR.BMP,Door2,0.324826431,-0.099074109,1,0,0,1.6661,optionRight,40,40,1,0,0,0,0,1,,,,,,,,,,,,,,,,,,,,,,,,,,,,,,,,,,,,,,,
,,,,,,,6346d43493a4f14e735bc630,2023-08-16_09h12.01.823,HF_wild_card,2022.2.4,Win32,60.40106306,6346d43493a4f14e735bc630,64d2fd46c836a06233681665,64dc84701cd8412efe8a3d65,,,,,,,sngl,resources/DG.BMP,resources/Empty.png,Door4,-0.340914345,-0.038888868,1,0,0,1.1466,optionLeft,80,120,1,1,0,1,0,1,,,,,,,,,,,,,,,,,,,,,,,,,,,,,,,,,,,,,,,
,,,,,,,6346d43493a4f14e735bc630,2023-08-16_09h12.01.823,HF_wild_card,2022.2.4,Win32,60.40106306,6346d43493a4f14e735bc630,64d2fd46c836a06233681665,64dc84701cd8412efe8a3d65,,,,,,,ctch,resources/DG.BMP,resources/DBN.BMP,Door4,-0.298321724,-0.105555534,1,0,0,1.0783,optionLeft,80,200,1,2,0,2,0,1,,,,,,,,,,,,,,,,,,,,,,,,,,,,,,,,,,,,,,,
,,,,,,,6346d43493a4f14e735bc630,2023-08-16_09h12.01.823,HF_wild_card,2022.2.4,Win32,60.40106306,6346d43493a4f14e735bc630,64d2fd46c836a06233681665,64dc84701cd8412efe8a3d65,,,,,,,decisionTrl,resources/DR.BMP,resources/DBN.BMP,Door2,-0.301099523,-0.083333333,1,0,0,0.7633,optionLeft,40,240,1,3,0,3,0,1,,,,,,,,,,,,,,,,,,,,,,,,,,,,,,,,,,,,,,,
,,,,,,,6346d43493a4f14e735bc630,2023-08-16_09h12.01.823,HF_wild_card,2022.2.4,Win32,60.40106306,6346d43493a4f14e735bc630,64d2fd46c836a06233681665,64dc84701cd8412efe8a3d65,,,,,,,sngl,resources/DR.BMP,resources/Empty.png,Door2,-0.308506966,-0.136111132,1,0,0,1.1902,optionLeft,40,280,1,4,0,4,0,1,,,,,,,,,,,,,,,,,,,,,,,,,,,,,,,,,,,,,,,
,,,,,,,6346d43493a4f14e735bc630,2023-08-16_09h12.01.823,HF_wild_card,2022.2.4,Win32,60.40106306,6346d43493a4f14e735bc630,64d2fd46c836a06233681665,64dc84701cd8412efe8a3d65,,,,,,,sngl,resources/Empty.png,resources/DY.BMP,Door3,0.372974523,-0.045370356,1,0,0,0.8685,optionRight,70,350,1,5,0,5,0,1,,,,,,,,,,,,,,,,,,,,,,,,,,,,,,,,,,,,,,,
,,,,,,,6346d43493a4f14e735bc630,2023-08-16_09h12.01.823,HF_wild_card,2022.2.4,Win32,60.40106306,6346d43493a4f14e735bc630,64d2fd46c836a06233681665,64dc84701cd8412efe8a3d65,,,,,,,ctch,resources/DR.BMP,resources/DY.BMP,Door3,0.362789408,-0.045370356,1,0,0,0.8619,optionRight,70,420,1,6,0,6,0,1,,,,,,,,,,,,,,,,,,,,,,,,,,,,,,,,,,,,,,,
,,,,,,,6346d43493a4f14e735bc630,2023-08-16_09h12.01.823,HF_wild_card,2022.2.4,Win32,60.40106306,6346d43493a4f14e735bc630,64d2fd46c836a06233681665,64dc84701cd8412efe8a3d65,,,,,,,decisionTrl,resources/DG.BMP,resources/DY.BMP,Door4,-0.337210655,-0.091666667,1,0,0,0.9572,optionLeft,80,500,1,7,0,7,0,1,,,,,,,,,,,,,,,,,,,,,,,,,,,,,,,,,,,,,,,
,,,,,,,6346d43493a4f14e735bc630,2023-08-16_09h12.01.823,HF_wild_card,2022.2.4,Win32,60.40106306,6346d43493a4f14e735bc630,64d2fd46c836a06233681665,64dc84701cd8412efe8a3d65,,,,,,,decisionTrl,resources/DBN.BMP,resources/DR.BMP,Door1,-0.349247678,-0.089814822,1,0,0,1.1121,optionLeft,30,530,1,8,0,8,0,1,,,,,,,,,,,,,,,,,,,,,,,,,,,,,,,,,,,,,,,
,,,,,,,6346d43493a4f14e735bc630,2023-08-16_09h12.01.823,HF_wild_card,2022.2.4,Win32,60.40106306,6346d43493a4f14e735bc630,64d2fd46c836a06233681665,64dc84701cd8412efe8a3d65,,,,,,,sngl,resources/DP.BMP,resources/Empty.png,WildCard_NonEx,-0.375173601,-0.112037023,1,0,0,0.913,optionLeft,45,575,1,9,0,9,0,1,,,,,,,,,,,,,,,,,,,,,,,,,,,,,,,,,,,,,,,
,,,,,,,6346d43493a4f14e735bc630,2023-08-16_09h12.01.823,HF_wild_card,2022.2.4,Win32,60.40106306,6346d43493a4f14e735bc630,64d2fd46c836a06233681665,64dc84701cd8412efe8a3d65,,,,,,,decisionTrl,resources/DBN.BMP,resources/DP.BMP,WildCard_NonEx,0.419270833,-0.075925954,1,0,0,1.2794,optionRight,45,620,1,10,0,10,0,1,,,,,,,,,,,,,,,,,,,,,,,,,,,,,,,,,,,,,,,
,,,,,,,6346d43493a4f14e735bc630,2023-08-16_09h12.01.823,HF_wild_card,2022.2.4,Win32,60.40106306,6346d43493a4f14e735bc630,64d2fd46c836a06233681665,64dc84701cd8412efe8a3d65,,,,,,,decisionTrl,resources/DG.BMP,resources/DY.BMP,Door4,-0.355729167,-0.092592621,1,0,0,1.191,optionLeft,60,680,1,11,0,11,0,1,,,,,,,,,,,,,,,,,,,,,,,,,,,,,,,,,,,,,,,
,,,,,,,6346d43493a4f14e735bc630,2023-08-16_09h12.01.823,HF_wild_card,2022.2.4,Win32,60.40106306,6346d43493a4f14e735bc630,64d2fd46c836a06233681665,64dc84701cd8412efe8a3d65,,,,,,,decisionTrl,resources/DG.BMP,resources/DY.BMP,Door3,0.3609375,-0.064814822,1,0,0,0.8801,optionRight,70,750,1,12,0,12,0,1,,,,,,,,,,,,,,,,,,,,,,,,,,,,,,,,,,,,,,,
,,,,,,,6346d43493a4f14e735bc630,2023-08-16_09h12.01.823,HF_wild_card,2022.2.4,Win32,60.40106306,6346d43493a4f14e735bc630,64d2fd46c836a06233681665,64dc84701cd8412efe8a3d65,,,,,,,ctch,resources/DG.BMP,resources/DBN.BMP,Door4,-0.380729167,-0.148148155,1,0,0,1.042,optionLeft,60,810,1,13,0,13,0,1,,,,,,,,,,,,,,,,,,,,,,,,,,,,,,,,,,,,,,,
,,,,,,,6346d43493a4f14e735bc630,2023-08-16_09h12.01.823,HF_wild_card,2022.2.4,Win32,60.40106306,6346d43493a4f14e735bc630,64d2fd46c836a06233681665,64dc84701cd8412efe8a3d65,,,,,,,sngl,resources/Empty.png,resources/DP.BMP,WildCard_NonEx,0.361863454,-0.062962977,1,0,0,0.8464,optionRight,55,865,1,14,0,14,0,1,,,,,,,,,,,,,,,,,,,,,,,,,,,,,,,,,,,,,,,
,,,,,,,6346d43493a4f14e735bc630,2023-08-16_09h12.01.823,HF_wild_card,2022.2.4,Win32,60.40106306,6346d43493a4f14e735bc630,64d2fd46c836a06233681665,64dc84701cd8412efe8a3d65,,,,,,,decisionTrl,resources/DP.BMP,resources/DY.BMP,Door3,0.355381902,-0.072222201,1,0,0,1.4411,optionRight,70,935,1,15,0,15,0,1,,,,,,,,,,,,,,,,,,,,,,,,,,,,,,,,,,,,,,,
,,,,,,,6346d43493a4f14e735bc630,2023-08-16_09h12.01.823,HF_wild_card,2022.2.4,Win32,60.40106306,6346d43493a4f14e735bc630,64d2fd46c836a06233681665,64dc84701cd8412efe8a3d65,,,,,,,ctch,resources/DY.BMP,resources/DR.BMP,Door3,-0.380729167,-0.197222201,1,0,0,1.1119,optionLeft,70,1005,1,16,0,16,0,1,,,,,,,,,,,,,,,,,,,,,,,,,,,,,,,,,,,,,,,
,,,,,,,6346d43493a4f14e735bc630,2023-08-16_09h12.01.823,HF_wild_card,2022.2.4,Win32,60.40106306,6346d43493a4f14e735bc630,64d2fd46c836a06233681665,64dc84701cd8412efe8a3d65,,,,,,,decisionTrl,resources/DP.BMP,resources/DBN.BMP,WildCard_NonEx,-0.326099523,-0.126851845,1,0,0,1.5633,optionLeft,55,1060,1,17,0,17,0,1,,,,,,,,,,,,,,,,,,,,,,,,,,,,,,,,,,,,,,,
,,,,,,,6346d43493a4f14e735bc630,2023-08-16_09h12.01.823,HF_wild_card,2022.2.4,Win32,60.40106306,6346d43493a4f14e735bc630,64d2fd46c836a06233681665,64dc84701cd8412efe8a3d65,,,,,,,decisionTrl,resources/DY.BMP,resources/DG.BMP,Door4,0.340567144,-0.025925922,1,0,0,0.8511,optionRight,80,1140,1,18,0,18,0,1,,,,,,,,,,,,,,,,,,,,,,,,,,,,,,,,,,,,,,,
,,,,,,,6346d43493a4f14e735bc630,2023-08-16_09h12.01.823,HF_wild_card,2022.2.4,Win32,60.40106306,6346d43493a4f14e735bc630,64d2fd46c836a06233681665,64dc84701cd8412efe8a3d65,,,,,,,sngl,resources/Empty.png,resources/DBN.BMP,Door1,0.366493098,-0.019444434,1,0,0,1.3412,optionRight,30,1170,1,19,0,19,0,1,,,,,,,,,,,,,,,,,,,,,,,,,,,,,,,,,,,,,,,
,,,,,,,6346d43493a4f14e735bc630,2023-08-16_09h12.01.823,HF_wild_card,2022.2.4,Win32,60.40106306,6346d43493a4f14e735bc630,64d2fd46c836a06233681665,64dc84701cd8412efe8a3d65,,,,,,,sngl,resources/Empty.png,resources/DR.BMP,Door2,0.280381902,-0.070370356,1,0,0,0.9463,optionRight,20,1190,1,20,0,20,0,1,,,,,,,,,,,,,,,,,,,,,,,,,,,,,,,,,,,,,,,
,,,,,,,6346d43493a4f14e735bc630,2023-08-16_09h12.01.823,HF_wild_card,2022.2.4,Win32,60.40106306,6346d43493a4f14e735bc630,64d2fd46c836a06233681665,64dc84701cd8412efe8a3d65,,,,,,,decisionTrl,resources/DY.BMP,resources/DG.BMP,Door3,-0.234432856,-0.059259288,1,0,0,1.7291,optionLeft,70,1260,1,21,0,21,0,1,,,,,,,,,,,,,,,,,,,,,,,,,,,,,,,,,,,,,,,
,,,,,,,6346d43493a4f14e735bc630,2023-08-16_09h12.01.823,HF_wild_card,2022.2.4,Win32,60.40106306,6346d43493a4f14e735bc630,64d2fd46c836a06233681665,64dc84701cd8412efe8a3d65,,,,,,,sngl,resources/DBN.BMP,resources/Empty.png,Door1,-0.322395833,-0.12870369,1,0,0,1.2292,optionLeft,30,1290,1,22,0,22,0,1,,,,,,,,,,,,,,,,,,,,,,,,,,,,,,,,,,,,,,,
,,,,,,,6346d43493a4f14e735bc630,2023-08-16_09h12.01.823,HF_wild_card,2022.2.4,Win32,60.40106306,6346d43493a4f14e735bc630,64d2fd46c836a06233681665,64dc84701cd8412efe8a3d65,,,,,,,ctch,resources/DBN.BMP,resources/DG.BMP,Door4,0.336863454,-0.032407411,1,0,0,0.9394,optionRight,60,1350,1,23,0,23,0,1,,,,,,,,,,,,,,,,,,,,,,,,,,,,,,,,,,,,,,,
,,,,,,,6346d43493a4f14e735bc630,2023-08-16_09h12.01.823,HF_wild_card,2022.2.4,Win32,60.40106306,6346d43493a4f14e735bc630,64d2fd46c836a06233681665,64dc84701cd8412efe8a3d65,,,,,,,decisionTrl,resources/DY.BMP,resources/DP.BMP,Door3,-0.322395833,-0.108333333,1,0,0,1.0899,optionLeft,70,1420,1,24,0,24,0,1,,,,,,,,,,,,,,,,,,,,,,,,,,,,,,,,,,,,,,,
,,,,,,,6346d43493a4f14e735bc630,2023-08-16_09h12.01.823,HF_wild_card,2022.2.4,Win32,60.40106306,6346d43493a4f14e735bc630,64d2fd46c836a06233681665,64dc84701cd8412efe8a3d65,,,,,,,decisionTrl,resources/DR.BMP,resources/DBN.BMP,Door2,-0.3390625,-0.122222201,1,0,0,1.5456,optionLeft,20,1440,1,25,0,25,0,1,,,,,,,,,,,,,,,,,,,,,,,,,,,,,,,,,,,,,,,
,,,,,,,6346d43493a4f14e735bc630,2023-08-16_09h12.01.823,HF_wild_card,2022.2.4,Win32,60.40106306,6346d43493a4f14e735bc630,64d2fd46c836a06233681665,64dc84701cd8412efe8a3d65,,,,,,,sngl,resources/DY.BMP,resources/Empty.png,Door3,-0.284432856,-0.092592621,1,0,0,0.7797,optionLeft,70,1510,1,26,0,26,0,1,,,,,,,,,,,,,,,,,,,,,,,,,,,,,,,,,,,,,,,
,,,,,,,6346d43493a4f14e735bc630,2023-08-16_09h12.01.823,HF_wild_card,2022.2.4,Win32,60.40106306,6346d43493a4f14e735bc630,64d2fd46c836a06233681665,64dc84701cd8412efe8a3d65,,,,,,,decisionTrl,resources/DR.BMP,resources/DBN.BMP,Door1,0.4609375,0.006481489,1,0,0,1.7624,optionRight,30,1540,1,27,0,27,0,1,,,,,,,,,,,,,,,,,,,,,,,,,,,,,,,,,,,,,,,
,,,,,,,6346d43493a4f14e735bc630,2023-08-16_09h12.01.823,HF_wild_card,2022.2.4,Win32,60.40106306,6346d43493a4f14e735bc630,64d2fd46c836a06233681665,64dc84701cd8412efe8a3d65,,,,,,,decisionTrl,resources/DR.BMP,resources/DP.BMP,WildCard_NonEx,0.347974523,-0.027777767,1,0,0,1.1296,optionRight,45,1585,1,28,0,28,0,1,,,,,,,,,,,,,,,,,,,,,,,,,,,,,,,,,,,,,,,
,,,,,,,6346d43493a4f14e735bc630,2023-08-16_09h12.01.823,HF_wild_card,2022.2.4,Win32,60.40106306,6346d43493a4f14e735bc630,64d2fd46c836a06233681665,64dc84701cd8412efe8a3d65,,,,,,,decisionTrl,resources/DP.BMP,resources/DG.BMP,Door4,0.409085719,0.019444434,1,0,0,1.5128,optionRight,80,1665,1,29,0,29,0,1,,,,,,,,,,,,,,,,,,,,,,,,,,,,,,,,,,,,,,,
,,,,,,,6346d43493a4f14e735bc630,2023-08-16_09h12.01.823,HF_wild_card,2022.2.4,Win32,60.40106306,6346d43493a4f14e735bc630,64d2fd46c836a06233681665,64dc84701cd8412efe8a3d65,,,,,,,sngl,resources/Empty.png,resources/DP.BMP,WildCard_NonEx,0.335011546,-0.038888868,1,0,0,1.0302,optionRight,45,1710,1,30,0,30,0,1,,,,,,,,,,,,,,,,,,,,,,,,,,,,,,,,,,,,,,,
,,,,,,,6346d43493a4f14e735bc630,2023-08-16_09h12.01.823,HF_wild_card,2022.2.4,Win32,60.40106306,6346d43493a4f14e735bc630,64d2fd46c836a06233681665,64dc84701cd8412efe8a3d65,,,,,,,decisionTrl,resources/DY.BMP,resources/DG.BMP,Door4,0.372974523,0,1,0,0,1.129,optionRight,80,1790,1,31,0,31,0,1,,,,,,,,,,,,,,,,,,,,,,,,,,,,,,,,,,,,,,,
,,,,,,,6346d43493a4f14e735bc630,2023-08-16_09h12.01.823,HF_wild_card,2022.2.4,Win32,60.40106306,6346d43493a4f14e735bc630,64d2fd46c836a06233681665,64dc84701cd8412efe8a3d65,,,,,,,decisionTrl,resources/DG.BMP,resources/DY.BMP,Door4,-0.31776619,-0.031481489,1,0,0,1.095,optionLeft,80,1870,1,32,0,32,0,1,,,,,,,,,,,,,,,,,,,,,,,,,,,,,,,,,,,,,,,
,,,,,,,6346d43493a4f14e735bc630,2023-08-16_09h12.01.823,HF_wild_card,2022.2.4,Win32,60.40106306,6346d43493a4f14e735bc630,64d2fd46c836a06233681665,64dc84701cd8412efe8a3d65,,,,,,,decisionTrl,resources/DBN.BMP,resources/DR.BMP,Door1,-0.239988391,-0.026851845,1,0,0,1.2968,optionLeft,30,1900,1,33,0,33,0,1,,,,,,,,,,,,,,,,,,,,,,,,,,,,,,,,,,,,,,,
,,,,,,,6346d43493a4f14e735bc630,2023-08-16_09h12.01.823,HF_wild_card,2022.2.4,Win32,60.40106306,6346d43493a4f14e735bc630,64d2fd46c836a06233681665,64dc84701cd8412efe8a3d65,,,,,,,ctch,resources/DY.BMP,resources/DR.BMP,Door3,-0.261284701,-0.043518511,1,0,0,1.4278,optionLeft,70,1970,1,34,0,34,0,1,,,,,,,,,,,,,,,,,,,,,,,,,,,,,,,,,,,,,,,
,,,,,,,6346d43493a4f14e735bc630,2023-08-16_09h12.01.823,HF_wild_card,2022.2.4,Win32,60.40106306,6346d43493a4f14e735bc630,64d2fd46c836a06233681665,64dc84701cd8412efe8a3d65,,,,,,,decisionTrl,resources/DG.BMP,resources/DP.BMP,Door4,-0.350173632,-0.037037023,1,0,0,0.8077,optionLeft,80,2050,1,35,0,35,0,1,,,,,,,,,,,,,,,,,,,,,,,,,,,,,,,,,,,,,,,
,,,,,,,6346d43493a4f14e735bc630,2023-08-16_09h12.01.823,HF_wild_card,2022.2.4,Win32,60.40106306,6346d43493a4f14e735bc630,64d2fd46c836a06233681665,64dc84701cd8412efe8a3d65,,,,,,,ctch,resources/DR.BMP,resources/DY.BMP,Door3,0.362789408,-0.009259256,1,0,0,1.1411,optionRight,70,2120,1,36,0,36,0,1,,,,,,,,,,,,,,,,,,,,,,,,,,,,,,,,,,,,,,,
,,,,,,,6346d43493a4f14e735bc630,2023-08-16_09h12.01.823,HF_wild_card,2022.2.4,Win32,60.40106306,6346d43493a4f14e735bc630,64d2fd46c836a06233681665,64dc84701cd8412efe8a3d65,,,,,,,decisionTrl,resources/DR.BMP,resources/DBN.BMP,Door1,0.343344879,0,1,0,0,1.0961,optionRight,30,2150,1,37,0,37,0,1,,,,,,,,,,,,,,,,,,,,,,,,,,,,,,,,,,,,,,,
,,,,,,,6346d43493a4f14e735bc630,2023-08-16_09h12.01.823,HF_wild_card,2022.2.4,Win32,60.40106306,6346d43493a4f14e735bc630,64d2fd46c836a06233681665,64dc84701cd8412efe8a3d65,,,,,,,decisionTrl,resources/DY.BMP,resources/DG.BMP,Door3,-0.258506966,0.00370369,1,0,0,1.609,optionLeft,70,2220,1,38,0,38,0,1,,,,,,,,,,,,,,,,,,,,,,,,,,,,,,,,,,,,,,,
,,,,,,,6346d43493a4f14e735bc630,2023-08-16_09h12.01.823,HF_wild_card,2022.2.4,Win32,60.40106306,6346d43493a4f14e735bc630,64d2fd46c836a06233681665,64dc84701cd8412efe8a3d65,,,,,,,decisionTrl,resources/DBN.BMP,resources/DR.BMP,Door1,-0.288136546,-0.075925954,1,0,0,1.1964,optionLeft,30,2250,1,39,0,39,0,1,,,,,,,,,,,,,,,,,,,,,,,,,,,,,,,,,,,,,,,
,,,,,,,6346d43493a4f14e735bc630,2023-08-16_09h12.01.823,HF_wild_card,2022.2.4,Win32,60.40106306,6346d43493a4f14e735bc630,64d2fd46c836a06233681665,64dc84701cd8412efe8a3d65,,,,,,,ctch,resources/DBN.BMP,resources/DG.BMP,Door4,0.347048569,0.02870369,1,0,0,0.8905,optionRight,80,2330,1,40,0,40,0,1,,,,,,,,,,,,,,,,,,,,,,,,,,,,,,,,,,,,,,,
,,,,,,,6346d43493a4f14e735bc630,2023-08-16_09h12.01.823,HF_wild_card,2022.2.4,Win32,60.40106306,6346d43493a4f14e735bc630,64d2fd46c836a06233681665,64dc84701cd8412efe8a3d65,,,,,,,sngl,resources/Empty.png,resources/DG.BMP,Door4,0.331307856,0.019444434,1,0,0,0.6969,optionRight,60,2390,1,41,0,41,0,1,,,,,,,,,,,,,,,,,,,,,,,,,,,,,,,,,,,,,,,
,,,,,,,6346d43493a4f14e735bc630,2023-08-16_09h12.01.823,HF_wild_card,2022.2.4,Win32,60.40106306,6346d43493a4f14e735bc630,64d2fd46c836a06233681665,64dc84701cd8412efe8a3d65,,,,,,,decisionTrl,resources/DP.BMP,resources/DR.BMP,WildCard_NonEx,-0.270543989,0.021296279,1,0,0,2.7789,optionLeft,45,2435,1,42,0,42,0,1,,,,,,,,,,,,,,,,,,,,,,,,,,,,,,,,,,,,,,,
,,,,,,,6346d43493a4f14e735bc630,2023-08-16_09h12.01.823,HF_wild_card,2022.2.4,Win32,60.40106306,6346d43493a4f14e735bc630,64d2fd46c836a06233681665,64dc84701cd8412efe8a3d65,,,,,,,sngl,resources/DP.BMP,resources/Empty.png,WildCard_NonEx,-0.295543989,-0.083333333,1,0,0,0.8132,optionLeft,55,2490,1,43,0,43,0,1,,,,,,,,,,,,,,,,,,,,,,,,,,,,,,,,,,,,,,,
,,,,,,,6346d43493a4f14e735bc630,2023-08-16_09h12.01.823,HF_wild_card,2022.2.4,Win32,60.40106306,6346d43493a4f14e735bc630,64d2fd46c836a06233681665,64dc84701cd8412efe8a3d65,,,,,,,,,,,,,,,,,,,,,,,,,,0,0,0,0,1,,,,,,,,,,,,,,,,,,,,,,,,,,,,,,,,,,
,,,,,,,6346d43493a4f14e735bc630,2023-08-16_09h12.01.823,HF_wild_card,2022.2.4,Win32,60.40106306,6346d43493a4f14e735bc630,64d2fd46c836a06233681665,64dc84701cd8412efe8a3d65,,,,,,,decisionTrl,resources/DBN.BMP,resources/DR.BMP,Door1,-0.298321724,-0.030555566,1,0,0,1.4131,optionLeft,30,2520,2,0,0,0,0,1,,,,,,,,,,,,,,,,,,,,,,,,,,,,,,,,,,,,,,,
,,,,,,,6346d43493a4f14e735bc630,2023-08-16_09h12.01.823,HF_wild_card,2022.2.4,Win32,60.40106306,6346d43493a4f14e735bc630,64d2fd46c836a06233681665,64dc84701cd8412efe8a3d65,,,,,,,sngl,resources/Empty.png,resources/DP.BMP,WildCard_NonEx,0.329456075,-0.043518511,1,0,0,0.7746,optionRight,55,2575,2,1,0,1,0,1,,,,,,,,,,,,,,,,,,,,,,,,,,,,,,,,,,,,,,,
,,,,,,,6346d43493a4f14e735bc630,2023-08-16_09h12.01.823,HF_wild_card,2022.2.4,Win32,60.40106306,6346d43493a4f14e735bc630,64d2fd46c836a06233681665,64dc84701cd8412efe8a3d65,,,,,,,decisionTrl,resources/DP.BMP,resources/DBN.BMP,WildCard_NonEx,-0.2640625,-0.112962977,1,0,0,0.7468,optionLeft,55,2630,2,2,0,2,0,1,,,,,,,,,,,,,,,,,,,,,,,,,,,,,,,,,,,,,,,
,,,,,,,6346d43493a4f14e735bc630,2023-08-16_09h12.01.823,HF_wild_card,2022.2.4,Win32,60.40106306,6346d43493a4f14e735bc630,64d2fd46c836a06233681665,64dc84701cd8412efe8a3d65,,,,,,,ctch,resources/DG.BMP,resources/DBN.BMP,Door4,-0.330729167,-0.109259288,1,0,0,0.8247,optionLeft,60,2690,2,3,0,3,0,1,,,,,,,,,,,,,,,,,,,,,,,,,,,,,,,,,,,,,,,
,,,,,,,6346d43493a4f14e735bc630,2023-08-16_09h12.01.823,HF_wild_card,2022.2.4,Win32,60.40106306,6346d43493a4f14e735bc630,64d2fd46c836a06233681665,64dc84701cd8412efe8a3d65,,,,,,,sngl,resources/DP.BMP,resources/Empty.png,WildCard_NonEx,-0.300173632,-0.093518511,1,0,0,0.6914,optionLeft,45,2735,2,4,0,4,0,1,,,,,,,,,,,,,,,,,,,,,,,,,,,,,,,,,,,,,,,
,,,,,,,6346d43493a4f14e735bc630,2023-08-16_09h12.01.823,HF_wild_card,2022.2.4,Win32,60.40106306,6346d43493a4f14e735bc630,64d2fd46c836a06233681665,64dc84701cd8412efe8a3d65,,,,,,,decisionTrl,resources/DY.BMP,resources/DG.BMP,Door4,0.399826431,0.001851845,1,0,0,1.3079,optionRight,60,2795,2,5,0,5,0,1,,,,,,,,,,,,,,,,,,,,,,,,,,,,,,,,,,,,,,,
,,,,,,,6346d43493a4f14e735bc630,2023-08-16_09h12.01.823,HF_wild_card,2022.2.4,Win32,60.40106306,6346d43493a4f14e735bc630,64d2fd46c836a06233681665,64dc84701cd8412efe8a3d65,,,,,,,decisionTrl,resources/DG.BMP,resources/DY.BMP,Door4,-0.262210655,-0.069444466,1,0,0,1.0413,optionLeft,80,2875,2,6,0,6,0,1,,,,,,,,,,,,,,,,,,,,,,,,,,,,,,,,,,,,,,,
,,,,,,,6346d43493a4f14e735bc630,2023-08-16_09h12.01.823,HF_wild_card,2022.2.4,Win32,60.40106306,6346d43493a4f14e735bc630,64d2fd46c836a06233681665,64dc84701cd8412efe8a3d65,,,,,,,sngl,resources/Empty.png,resources/DY.BMP,Door3,0.3359375,-0.028703721,1,0,0,0.663,optionRight,70,2945,2,7,0,7,0,1,,,,,,,,,,,,,,,,,,,,,,,,,,,,,,,,,,,,,,,
,,,,,,,6346d43493a4f14e735bc630,2023-08-16_09h12.01.823,HF_wild_card,2022.2.4,Win32,60.40106306,6346d43493a4f14e735bc630,64d2fd46c836a06233681665,64dc84701cd8412efe8a3d65,,,,,,,ctch,resources/DR.BMP,resources/DY.BMP,Door3,0.324826431,-0.048148155,1,0,0,1.4311,optionRight,70,3015,2,8,0,8,0,1,,,,,,,,,,,,,,,,,,,,,,,,,,,,,,,,,,,,,,,
,,,,,,,6346d43493a4f14e735bc630,2023-08-16_09h12.01.823,HF_wild_card,2022.2.4,Win32,60.40106306,6346d43493a4f14e735bc630,64d2fd46c836a06233681665,64dc84701cd8412efe8a3d65,,,,,,,decisionTrl,resources/DR.BMP,resources/DP.BMP,WildCard_NonEx,0.425752385,-0.002777767,1,0,0,1.4634,optionRight,55,3070,2,9,0,9,0,1,,,,,,,,,,,,,,,,,,,,,,,,,,,,,,,,,,,,,,,
,,,,,,,6346d43493a4f14e735bc630,2023-08-16_09h12.01.823,HF_wild_card,2022.2.4,Win32,60.40106306,6346d43493a4f14e735bc630,64d2fd46c836a06233681665,64dc84701cd8412efe8a3d65,,,,,,,sngl,resources/Empty.png,resources/DR.BMP,Door2,0.329456075,-0.050925954,1,0,0,0.8959,optionRight,40,3110,2,10,0,10,0,1,,,,,,,,,,,,,,,,,,,,,,,,,,,,,,,,,,,,,,,
,,,,,,,6346d43493a4f14e735bc630,2023-08-16_09h12.01.823,HF_wild_card,2022.2.4,Win32,60.40106306,6346d43493a4f14e735bc630,64d2fd46c836a06233681665,64dc84701cd8412efe8a3d65,,,,,,,decisionTrl,resources/DY.BMP,resources/DG.BMP,Door4,0.355381902,-0.041666667,1,0,0,1.0964,optionRight,60,3170,2,11,0,11,0,1,,,,,,,,,,,,,,,,,,,,,,,,,,,,,,,,,,,,,,,
,,,,,,,6346d43493a4f14e735bc630,2023-08-16_09h12.01.823,HF_wild_card,2022.2.4,Win32,60.40106306,6346d43493a4f14e735bc630,64d2fd46c836a06233681665,64dc84701cd8412efe8a3d65,,,,,,,decisionTrl,resources/DR.BMP,resources/DBN.BMP,Door1,0.302604167,-0.032407411,1,0,0,1.0861,optionRight,30,3200,2,12,0,12,0,1,,,,,,,,,,,,,,,,,,,,,,,,,,,,,,,,,,,,,,,
,,,,,,,6346d43493a4f14e735bc630,2023-08-16_09h12.01.823,HF_wild_card,2022.2.4,Win32,60.40106306,6346d43493a4f14e735bc630,64d2fd46c836a06233681665,64dc84701cd8412efe8a3d65,,,,,,,decisionTrl,resources/DG.BMP,resources/DY.BMP,Door4,-0.289988391,-0.082407443,1,0,0,1.2459,optionLeft,80,3280,2,13,0,13,0,1,,,,,,,,,,,,,,,,,,,,,,,,,,,,,,,,,,,,,,,
,,,,,,,6346d43493a4f14e735bc630,2023-08-16_09h12.01.823,HF_wild_card,2022.2.4,Win32,60.40106306,6346d43493a4f14e735bc630,64d2fd46c836a06233681665,64dc84701cd8412efe8a3d65,,,,,,,decisionTrl,resources/DP.BMP,resources/DY.BMP,Door3,0.320196788,-0.023148155,1,0,0,0.8964,optionRight,70,3350,2,14,0,14,0,1,,,,,,,,,,,,,,,,,,,,,,,,,,,,,,,,,,,,,,,
,,,,,,,6346d43493a4f14e735bc630,2023-08-16_09h12.01.823,HF_wild_card,2022.2.4,Win32,60.40106306,6346d43493a4f14e735bc630,64d2fd46c836a06233681665,64dc84701cd8412efe8a3d65,,,,,,,decisionTrl,resources/DP.BMP,resources/DG.BMP,Door4,0.322048569,-0.015740744,1,0,0,0.699,optionRight,60,3410,2,15,0,15,0,1,,,,,,,,,,,,,,,,,,,,,,,,,,,,,,,,,,,,,,,
,,,,,,,6346d43493a4f14e735bc630,2023-08-16_09h12.01.823,HF_wild_card,2022.2.4,Win32,60.40106306,6346d43493a4f14e735bc630,64d2fd46c836a06233681665,64dc84701cd8412efe8a3d65,,,,,,,decisionTrl,resources/DG.BMP,resources/DY.BMP,Door4,-0.304803212,-0.101851845,1,0,0,1.2459,optionLeft,80,3490,2,16,0,16,0,1,,,,,,,,,,,,,,,,,,,,,,,,,,,,,,,,,,,,,,,
,,,,,,,6346d43493a4f14e735bc630,2023-08-16_09h12.01.823,HF_wild_card,2022.2.4,Win32,60.40106306,6346d43493a4f14e735bc630,64d2fd46c836a06233681665,64dc84701cd8412efe8a3d65,,,,,,,decisionTrl,resources/DR.BMP,resources/DBN.BMP,Door1,0.33964119,0.018518511,1,0,0,0.7971,optionRight,30,3520,2,17,0,17,0,1,,,,,,,,,,,,,,,,,,,,,,,,,,,,,,,,,,,,,,,
,,,,,,,6346d43493a4f14e735bc630,2023-08-16_09h12.01.823,HF_wild_card,2022.2.4,Win32,60.40106306,6346d43493a4f14e735bc630,64d2fd46c836a06233681665,64dc84701cd8412efe8a3d65,,,,,,,ctch,resources/DY.BMP,resources/DR.BMP,Door3,-0.29276619,-0.067592621,1,0,0,0.9123,optionLeft,70,3590,2,18,0,18,0,1,,,,,,,,,,,,,,,,,,,,,,,,,,,,,,,,,,,,,,,
,,,,,,,6346d43493a4f14e735bc630,2023-08-16_09h12.01.823,HF_wild_card,2022.2.4,Win32,60.40106306,6346d43493a4f14e735bc630,64d2fd46c836a06233681665,64dc84701cd8412efe8a3d65,,,,,,,sngl,resources/DP.BMP,resources/Empty.png,WildCard_NonEx,-0.261284701,-0.057407443,1,0,0,1.2797,optionLeft,55,3645,2,19,0,19,0,1,,,,,,,,,,,,,,,,,,,,,,,,,,,,,,,,,,,,,,,
,,,,,,,6346d43493a4f14e735bc630,2023-08-16_09h12.01.823,HF_wild_card,2022.2.4,Win32,60.40106306,6346d43493a4f14e735bc630,64d2fd46c836a06233681665,64dc84701cd8412efe8a3d65,,,,,,,decisionTrl,resources/DY.BMP,resources/DG.BMP,Door4,0.283159765,0.027777767,1,0,0,0.6798,optionRight,80,3725,2,20,0,20,0,1,,,,,,,,,,,,,,,,,,,,,,,,,,,,,,,,,,,,,,,
,,,,,,,6346d43493a4f14e735bc630,2023-08-16_09h12.01.823,HF_wild_card,2022.2.4,Win32,60.40106306,6346d43493a4f14e735bc630,64d2fd46c836a06233681665,64dc84701cd8412efe8a3d65,,,,,,,decisionTrl,resources/DP.BMP,resources/DR.BMP,WildCard_NonEx,-0.272395833,-0.034259288,1,0,0,1.8568,optionLeft,45,3770,2,21,0,21,0,1,,,,,,,,,,,,,,,,,,,,,,,,,,,,,,,,,,,,,,,
,,,,,,,6346d43493a4f14e735bc630,2023-08-16_09h12.01.823,HF_wild_card,2022.2.4,Win32,60.40106306,6346d43493a4f14e735bc630,64d2fd46c836a06233681665,64dc84701cd8412efe8a3d65,,,,,,,decisionTrl,resources/DG.BMP,resources/DY.BMP,Door4,-0.311284701,-0.033333333,1,0,0,1.1015,optionLeft,80,3850,2,22,0,22,0,1,,,,,,,,,,,,,,,,,,,,,,,,,,,,,,,,,,,,,,,
,,,,,,,6346d43493a4f14e735bc630,2023-08-16_09h12.01.823,HF_wild_card,2022.2.4,Win32,60.40106306,6346d43493a4f14e735bc630,64d2fd46c836a06233681665,64dc84701cd8412efe8a3d65,,,,,,,ctch,resources/DR.BMP,resources/DY.BMP,Door3,0.335011546,-0.016666667,1,0,0,1.2632,optionRight,70,3920,2,23,0,23,0,1,,,,,,,,,,,,,,,,,,,,,,,,,,,,,,,,,,,,,,,
,,,,,,,6346d43493a4f14e735bc630,2023-08-16_09h12.01.823,HF_wild_card,2022.2.4,Win32,60.40106306,6346d43493a4f14e735bc630,64d2fd46c836a06233681665,64dc84701cd8412efe8a3d65,,,,,,,sngl,resources/Empty.png,resources/DBN.BMP,Door1,0.325752385,0.000925922,1,0,0,0.7739,optionRight,30,3950,2,24,0,24,0,1,,,,,,,,,,,,,,,,,,,,,,,,,,,,,,,,,,,,,,,
,,,,,,,6346d43493a4f14e735bc630,2023-08-16_09h12.01.823,HF_wild_card,2022.2.4,Win32,60.40106306,6346d43493a4f14e735bc630,64d2fd46c836a06233681665,64dc84701cd8412efe8a3d65,,,,,,,decisionTrl,resources/DBN.BMP,resources/DR.BMP,Door1,-0.281655057,-0.079629644,1,0,0,1.2798,optionLeft,30,3980,2,25,0,25,0,1,,,,,,,,,,,,,,,,,,,,,,,,,,,,,,,,,,,,,,,
,,,,,,,6346d43493a4f14e735bc630,2023-08-16_09h12.01.823,HF_wild_card,2022.2.4,Win32,60.40106306,6346d43493a4f14e735bc630,64d2fd46c836a06233681665,64dc84701cd8412efe8a3d65,,,,,,,decisionTrl,resources/DBN.BMP,resources/DR.BMP,Door1,-0.253877322,-0.037037023,1,0,0,1.2297,optionLeft,30,4010,2,26,0,26,0,1,,,,,,,,,,,,,,,,,,,,,,,,,,,,,,,,,,,,,,,
,,,,,,,6346d43493a4f14e735bc630,2023-08-16_09h12.01.823,HF_wild_card,2022.2.4,Win32,60.40106306,6346d43493a4f14e735bc630,64d2fd46c836a06233681665,64dc84701cd8412efe8a3d65,,,,,,,sngl,resources/Empty.png,resources/DP.BMP,WildCard_NonEx,0.290567144,-0.013888899,1,0,0,0.7463,optionRight,45,4055,2,27,0,27,0,1,,,,,,,,,,,,,,,,,,,,,,,,,,,,,,,,,,,,,,,
,,,,,,,6346d43493a4f14e735bc630,2023-08-16_09h12.01.823,HF_wild_card,2022.2.4,Win32,60.40106306,6346d43493a4f14e735bc630,64d2fd46c836a06233681665,64dc84701cd8412efe8a3d65,,,,,,,decisionTrl,resources/DBN.BMP,resources/DP.BMP,WildCard_NonEx,0.377604167,-0.036111132,1,0,0,1.1462,optionRight,45,4100,2,28,0,28,0,1,,,,,,,,,,,,,,,,,,,,,,,,,,,,,,,,,,,,,,,
,,,,,,,6346d43493a4f14e735bc630,2023-08-16_09h12.01.823,HF_wild_card,2022.2.4,Win32,60.40106306,6346d43493a4f14e735bc630,64d2fd46c836a06233681665,64dc84701cd8412efe8a3d65,,,,,,,decisionTrl,resources/DBN.BMP,resources/DR.BMP,Door1,-0.318692144,-0.087037023,1,0,0,1.0561,optionLeft,30,4130,2,29,0,29,0,1,,,,,,,,,,,,,,,,,,,,,,,,,,,,,,,,,,,,,,,
,,,,,,,6346d43493a4f14e735bc630,2023-08-16_09h12.01.823,HF_wild_card,2022.2.4,Win32,60.40106306,6346d43493a4f14e735bc630,64d2fd46c836a06233681665,64dc84701cd8412efe8a3d65,,,,,,,sngl,resources/Empty.png,resources/DG.BMP,Door4,0.3359375,0.012962945,1,0,0,0.6349,optionRight,80,4210,2,30,0,30,0,1,,,,,,,,,,,,,,,,,,,,,,,,,,,,,,,,,,,,,,,
,,,,,,,6346d43493a4f14e735bc630,2023-08-16_09h12.01.823,HF_wild_card,2022.2.4,Win32,60.40106306,6346d43493a4f14e735bc630,64d2fd46c836a06233681665,64dc84701cd8412efe8a3d65,,,,,,,ctch,resources/DBN.BMP,resources/DG.BMP,Door4,0.365567144,0.002777767,1,0,0,0.8085,optionRight,80,4290,2,31,0,31,0,1,,,,,,,,,,,,,,,,,,,,,,,,,,,,,,,,,,,,,,,
,,,,,,,6346d43493a4f14e735bc630,2023-08-16_09h12.01.823,HF_wild_card,2022.2.4,Win32,60.40106306,6346d43493a4f14e735bc630,64d2fd46c836a06233681665,64dc84701cd8412efe8a3d65,,,,,,,decisionTrl,resources/DY.BMP,resources/DP.BMP,Door3,-0.276099523,-0.065740776,1,0,0,1.3629,optionLeft,70,4360,2,32,0,32,0,1,,,,,,,,,,,,,,,,,,,,,,,,,,,,,,,,,,,,,,,
,,,,,,,6346d43493a4f14e735bc630,2023-08-16_09h12.01.823,HF_wild_card,2022.2.4,Win32,60.40106306,6346d43493a4f14e735bc630,64d2fd46c836a06233681665,64dc84701cd8412efe8a3d65,,,,,,,decisionTrl,resources/DR.BMP,resources/DBN.BMP,Door1,0.358159765,-0.010185178,1,0,0,0.9694,optionRight,30,4390,2,33,0,33,0,1,,,,,,,,,,,,,,,,,,,,,,,,,,,,,,,,,,,,,,,
,,,,,,,6346d43493a4f14e735bc630,2023-08-16_09h12.01.823,HF_wild_card,2022.2.4,Win32,60.40106306,6346d43493a4f14e735bc630,64d2fd46c836a06233681665,64dc84701cd8412efe8a3d65,,,,,,,decisionTrl,resources/DG.BMP,resources/DP.BMP,Door4,-0.271469879,-0.052777799,1,0,0,1.9457,optionLeft,80,4470,2,34,0,34,0,1,,,,,,,,,,,,,,,,,,,,,,,,,,,,,,,,,,,,,,,
,,,,,,,6346d43493a4f14e735bc630,2023-08-16_09h12.01.823,HF_wild_card,2022.2.4,Win32,60.40106306,6346d43493a4f14e735bc630,64d2fd46c836a06233681665,64dc84701cd8412efe8a3d65,,,,,,,decisionTrl,resources/DY.BMP,resources/DG.BMP,Door4,0.304456075,-0.011111101,1,0,0,0.8467,optionRight,60,4530,2,35,0,35,0,1,,,,,,,,,,,,,,,,,,,,,,,,,,,,,,,,,,,,,,,
,,,,,,,6346d43493a4f14e735bc630,2023-08-16_09h12.01.823,HF_wild_card,2022.2.4,Win32,60.40106306,6346d43493a4f14e735bc630,64d2fd46c836a06233681665,64dc84701cd8412efe8a3d65,,,,,,,sngl,resources/DG.BMP,resources/Empty.png,Door4,-0.301099523,-0.054629644,1,0,0,0.6606,optionLeft,60,4590,2,36,0,36,0,1,,,,,,,,,,,,,,,,,,,,,,,,,,,,,,,,,,,,,,,
,,,,,,,6346d43493a4f14e735bc630,2023-08-16_09h12.01.823,HF_wild_card,2022.2.4,Win32,60.40106306,6346d43493a4f14e735bc630,64d2fd46c836a06233681665,64dc84701cd8412efe8a3d65,,,,,,,sngl,resources/DBN.BMP,resources/Empty.png,Door1,-0.248321724,-0.062962977,1,0,0,0.7866,optionLeft,30,4620,2,37,0,37,0,1,,,,,,,,,,,,,,,,,,,,,,,,,,,,,,,,,,,,,,,
,,,,,,,6346d43493a4f14e735bc630,2023-08-16_09h12.01.823,HF_wild_card,2022.2.4,Win32,60.40106306,6346d43493a4f14e735bc630,64d2fd46c836a06233681665,64dc84701cd8412efe8a3d65,,,,,,,sngl,resources/DR.BMP,resources/Empty.png,Door2,-0.274247678,-0.090740776,1,0,0,0.786,optionLeft,20,4640,2,38,0,38,0,1,,,,,,,,,,,,,,,,,,,,,,,,,,,,,,,,,,,,,,,
,,,,,,,6346d43493a4f14e735bc630,2023-08-16_09h12.01.823,HF_wild_card,2022.2.4,Win32,60.40106306,6346d43493a4f14e735bc630,64d2fd46c836a06233681665,64dc84701cd8412efe8a3d65,,,,,,,sngl,resources/DY.BMP,resources/Empty.png,Door3,-0.281655057,-0.040740776,1,0,0,0.7248,optionLeft,70,4710,2,39,0,39,0,1,,,,,,,,,,,,,,,,,,,,,,,,,,,,,,,,,,,,,,,
,,,,,,,6346d43493a4f14e735bc630,2023-08-16_09h12.01.823,HF_wild_card,2022.2.4,Win32,60.40106306,6346d43493a4f14e735bc630,64d2fd46c836a06233681665,64dc84701cd8412efe8a3d65,,,,,,,decisionTrl,resources/DR.BMP,resources/DBN.BMP,Door1,0.372048569,-0.010185178,1,0,0,1.1129,optionRight,30,4740,2,40,0,40,0,1,,,,,,,,,,,,,,,,,,,,,,,,,,,,,,,,,,,,,,,
,,,,,,,6346d43493a4f14e735bc630,2023-08-16_09h12.01.823,HF_wild_card,2022.2.4,Win32,60.40106306,6346d43493a4f14e735bc630,64d2fd46c836a06233681665,64dc84701cd8412efe8a3d65,,,,,,,ctch,resources/DY.BMP,resources/DR.BMP,Door3,-0.234432856,-0.1,1,0,0,1.4468,optionLeft,70,4810,2,41,0,41,0,1,,,,,,,,,,,,,,,,,,,,,,,,,,,,,,,,,,,,,,,
,,,,,,,6346d43493a4f14e735bc630,2023-08-16_09h12.01.823,HF_wild_card,2022.2.4,Win32,60.40106306,6346d43493a4f14e735bc630,64d2fd46c836a06233681665,64dc84701cd8412efe8a3d65,,,,,,,ctch,resources/DBN.BMP,resources/DG.BMP,Door4,0.368344879,-0.005555566,1,0,0,0.7302,optionRight,60,4870,2,42,0,42,0,1,,,,,,,,,,,,,,,,,,,,,,,,,,,,,,,,,,,,,,,
,,,,,,,6346d43493a4f14e735bc630,2023-08-16_09h12.01.823,HF_wild_card,2022.2.4,Win32,60.40106306,6346d43493a4f14e735bc630,64d2fd46c836a06233681665,64dc84701cd8412efe8a3d65,,,,,,,ctch,resources/DG.BMP,resources/DBN.BMP,Door4,-0.255729167,-0.087037023,1,0,0,0.7359,optionLeft,60,4930,2,43,0,43,0,1,,,,,,,,,,,,,,,,,,,,,,,,,,,,,,,,,,,,,,,
,,,,,,,6346d43493a4f14e735bc630,2023-08-16_09h12.01.823,HF_wild_card,2022.2.4,Win32,60.40106306,6346d43493a4f14e735bc630,64d2fd46c836a06233681665,64dc84701cd8412efe8a3d65,,,,,,,,,,,,,,,,,,,,,,,,,,1,0,1,0,1,,,,,,,,,,,,,,,,,,,,,,,,,,,,,,,,,,
,,,,,,,6346d43493a4f14e735bc630,2023-08-16_09h12.01.823,HF_wild_card,2022.2.4,Win32,60.40106306,6346d43493a4f14e735bc630,64d2fd46c836a06233681665,64dc84701cd8412efe8a3d65,,,,,,,decisionTrl,resources/DG.BMP,resources/DY.BMP,Door4,-0.447395833,-0.089814822,1,0,0,1.3297,optionLeft,60,4990,3,0,0,0,0,1,,,,,,,,,,,,,,,,,,,,,,,,,,,,,,,,,,,,,,,
,,,,,,,6346d43493a4f14e735bc630,2023-08-16_09h12.01.823,HF_wild_card,2022.2.4,Win32,60.40106306,6346d43493a4f14e735bc630,64d2fd46c836a06233681665,64dc84701cd8412efe8a3d65,,,,,,,sngl,resources/DP.BMP,resources/Empty.png,WildCard_NonEx,-0.415914313,-0.004629644,1,0,0,0.796,optionLeft,45,5035,3,1,0,1,0,1,,,,,,,,,,,,,,,,,,,,,,,,,,,,,,,,,,,,,,,
,,,,,,,6346d43493a4f14e735bc630,2023-08-16_09h12.01.823,HF_wild_card,2022.2.4,Win32,60.40106306,6346d43493a4f14e735bc630,64d2fd46c836a06233681665,64dc84701cd8412efe8a3d65,,,,,,,decisionTrl,resources/DP.BMP,resources/DG.BMP,Door4,0.3859375,-0.020370388,1,0,0,0.9457,optionRight,80,5115,3,2,0,2,0,1,,,,,,,,,,,,,,,,,,,,,,,,,,,,,,,,,,,,,,,
,,,,,,,6346d43493a4f14e735bc630,2023-08-16_09h12.01.823,HF_wild_card,2022.2.4,Win32,60.40106306,6346d43493a4f14e735bc630,64d2fd46c836a06233681665,64dc84701cd8412efe8a3d65,,,,,,,sngl,resources/DP.BMP,resources/Empty.png,WildCard_NonEx,-0.218692144,-0.160185178,1,0,0,0.7795,optionLeft,55,5170,3,3,0,3,0,1,,,,,,,,,,,,,,,,,,,,,,,,,,,,,,,,,,,,,,,
,,,,,,,6346d43493a4f14e735bc630,2023-08-16_09h12.01.823,HF_wild_card,2022.2.4,Win32,60.40106306,6346d43493a4f14e735bc630,64d2fd46c836a06233681665,64dc84701cd8412efe8a3d65,,,,,,,decisionTrl,resources/DBN.BMP,resources/DR.BMP,Door1,-0.227951368,-0.155555534,1,0,0,2.363,optionLeft,30,5200,3,4,0,4,0,1,,,,,,,,,,,,,,,,,,,,,,,,,,,,,,,,,,,,,,,
,,,,,,,6346d43493a4f14e735bc630,2023-08-16_09h12.01.823,HF_wild_card,2022.2.4,Win32,60.40106306,6346d43493a4f14e735bc630,64d2fd46c836a06233681665,64dc84701cd8412efe8a3d65,,,,,,,decisionTrl,resources/DG.BMP,resources/DY.BMP,Door4,-0.489988422,-0.005555566,1,0,0,1.1021,optionLeft,60,5260,3,5,0,5,0,1,,,,,,,,,,,,,,,,,,,,,,,,,,,,,,,,,,,,,,,
,,,,,,,6346d43493a4f14e735bc630,2023-08-16_09h12.01.823,HF_wild_card,2022.2.4,Win32,60.40106306,6346d43493a4f14e735bc630,64d2fd46c836a06233681665,64dc84701cd8412efe8a3d65,,,,,,,ctch,resources/DBN.BMP,resources/DG.BMP,Door4,0.345196788,-0.080555534,1,0,0,0.9958,optionRight,60,5320,3,6,0,6,0,1,,,,,,,,,,,,,,,,,,,,,,,,,,,,,,,,,,,,,,,
,,,,,,,6346d43493a4f14e735bc630,2023-08-16_09h12.01.823,HF_wild_card,2022.2.4,Win32,60.40106306,6346d43493a4f14e735bc630,64d2fd46c836a06233681665,64dc84701cd8412efe8a3d65,,,,,,,decisionTrl,resources/DR.BMP,resources/DBN.BMP,Door1,0.3859375,-0.001851845,1,0,0,1.013,optionRight,30,5350,3,7,0,7,0,1,,,,,,,,,,,,,,,,,,,,,,,,,,,,,,,,,,,,,,,
,,,,,,,6346d43493a4f14e735bc630,2023-08-16_09h12.01.823,HF_wild_card,2022.2.4,Win32,60.40106306,6346d43493a4f14e735bc630,64d2fd46c836a06233681665,64dc84701cd8412efe8a3d65,,,,,,,sngl,resources/Empty.png,resources/DBN.BMP,Door1,0.355381902,0.04351848,1,0,0,0.7795,optionRight,30,5380,3,8,0,8,0,1,,,,,,,,,,,,,,,,,,,,,,,,,,,,,,,,,,,,,,,
,,,,,,,6346d43493a4f14e735bc630,2023-08-16_09h12.01.823,HF_wild_card,2022.2.4,Win32,60.40106306,6346d43493a4f14e735bc630,64d2fd46c836a06233681665,64dc84701cd8412efe8a3d65,,,,,,,ctch,resources/DY.BMP,resources/DR.BMP,Door3,-0.487210655,0.009259256,1,0,0,2.6931,optionLeft,70,5450,3,9,0,9,0,1,,,,,,,,,,,,,,,,,,,,,,,,,,,,,,,,,,,,,,,
,,,,,,,6346d43493a4f14e735bc630,2023-08-16_09h12.01.823,HF_wild_card,2022.2.4,Win32,60.40106306,6346d43493a4f14e735bc630,64d2fd46c836a06233681665,64dc84701cd8412efe8a3d65,,,,,,,decisionTrl,resources/DR.BMP,resources/DBN.BMP,Door1,0.38964119,0.05,1,0,0,3.5907,optionRight,30,5480,3,10,0,10,0,1,,,,,,,,,,,,,,,,,,,,,,,,,,,,,,,,,,,,,,,
,,,,,,,6346d43493a4f14e735bc630,2023-08-16_09h12.01.823,HF_wild_card,2022.2.4,Win32,60.40106306,6346d43493a4f14e735bc630,64d2fd46c836a06233681665,64dc84701cd8412efe8a3d65,,,,,,,decisionTrl,resources/DR.BMP,resources/DBN.BMP,Door1,0.380381902,0.009259256,1,0,0,0.8633,optionRight,30,5510,3,11,0,11,0,1,,,,,,,,,,,,,,,,,,,,,,,,,,,,,,,,,,,,,,,
,,,,,,,6346d43493a4f14e735bc630,2023-08-16_09h12.01.823,HF_wild_card,2022.2.4,Win32,60.40106306,6346d43493a4f14e735bc630,64d2fd46c836a06233681665,64dc84701cd8412efe8a3d65,,,,,,,sngl,resources/Empty.png,resources/DY.BMP,Door3,0.383159765,0.021296279,1,0,0,0.7463,optionRight,70,5580,3,12,0,12,0,1,,,,,,,,,,,,,,,,,,,,,,,,,,,,,,,,,,,,,,,
,,,,,,,6346d43493a4f14e735bc630,2023-08-16_09h12.01.823,HF_wild_card,2022.2.4,Win32,60.40106306,6346d43493a4f14e735bc630,64d2fd46c836a06233681665,64dc84701cd8412efe8a3d65,,,,,,,ctch,resources/DG.BMP,resources/DBN.BMP,Door4,-0.502951399,0.013888899,1,0,0,0.7078,optionLeft,80,5660,3,13,0,13,0,1,,,,,,,,,,,,,,,,,,,,,,,,,,,,,,,,,,,,,,,
,,,,,,,6346d43493a4f14e735bc630,2023-08-16_09h12.01.823,HF_wild_card,2022.2.4,Win32,60.40106306,6346d43493a4f14e735bc630,64d2fd46c836a06233681665,64dc84701cd8412efe8a3d65,,,,,,,sngl,resources/DG.BMP,resources/Empty.png,Door4,-0.514988422,0.016666667,1,0,0,0.6129,optionLeft,80,5740,3,14,0,14,0,1,,,,,,,,,,,,,,,,,,,,,,,,,,,,,,,,,,,,,,,
,,,,,,,6346d43493a4f14e735bc630,2023-08-16_09h12.01.823,HF_wild_card,2022.2.4,Win32,60.40106306,6346d43493a4f14e735bc630,64d2fd46c836a06233681665,64dc84701cd8412efe8a3d65,,,,,,,sngl,resources/DY.BMP,resources/Empty.png,Door3,-0.486284733,0.025925922,1,0,0,1.4291,optionLeft,70,5810,3,15,0,15,0,1,,,,,,,,,,,,,,,,,,,,,,,,,,,,,,,,,,,,,,,
,,,,,,,6346d43493a4f14e735bc630,2023-08-16_09h12.01.823,HF_wild_card,2022.2.4,Win32,60.40106306,6346d43493a4f14e735bc630,64d2fd46c836a06233681665,64dc84701cd8412efe8a3d65,,,,,,,sngl,resources/DBN.BMP,resources/Empty.png,Door1,-0.487210655,0.022222233,1,0,0,0.8618,optionLeft,30,5840,3,16,0,16,0,1,,,,,,,,,,,,,,,,,,,,,,,,,,,,,,,,,,,,,,,
,,,,,,,6346d43493a4f14e735bc630,2023-08-16_09h12.01.823,HF_wild_card,2022.2.4,Win32,60.40106306,6346d43493a4f14e735bc630,64d2fd46c836a06233681665,64dc84701cd8412efe8a3d65,,,,,,,decisionTrl,resources/DBN.BMP,resources/DR.BMP,Door1,-0.503877322,0.040740712,1,0,0,0.7695,optionLeft,30,5870,3,17,0,17,0,1,,,,,,,,,,,,,,,,,,,,,,,,,,,,,,,,,,,,,,,
,,,,,,,6346d43493a4f14e735bc630,2023-08-16_09h12.01.823,HF_wild_card,2022.2.4,Win32,60.40106306,6346d43493a4f14e735bc630,64d2fd46c836a06233681665,64dc84701cd8412efe8a3d65,,,,,,,decisionTrl,resources/DY.BMP,resources/DG.BMP,Door4,0.40723381,0.050925922,1,0,0,1.1334,optionRight,60,5930,3,18,0,18,0,1,,,,,,,,,,,,,,,,,,,,,,,,,,,,,,,,,,,,,,,
,,,,,,,6346d43493a4f14e735bc630,2023-08-16_09h12.01.823,HF_wild_card,2022.2.4,Win32,60.40106306,6346d43493a4f14e735bc630,64d2fd46c836a06233681665,64dc84701cd8412efe8a3d65,,,,,,,decisionTrl,resources/DP.BMP,resources/DBN.BMP,Door1,0.426678212,0.091666667,1,0,0,0.8465,optionRight,30,5960,3,19,0,19,0,1,,,,,,,,,,,,,,,,,,,,,,,,,,,,,,,,,,,,,,,
,,,,,,,6346d43493a4f14e735bc630,2023-08-16_09h12.01.823,HF_wild_card,2022.2.4,Win32,60.40106306,6346d43493a4f14e735bc630,64d2fd46c836a06233681665,64dc84701cd8412efe8a3d65,,,,,,,decisionTrl,resources/DG.BMP,resources/DP.BMP,Door4,-0.478877322,0.034259256,1,0,0,1.0289,optionLeft,80,6040,3,20,0,20,0,1,,,,,,,,,,,,,,,,,,,,,,,,,,,,,,,,,,,,,,,
,,,,,,,6346d43493a4f14e735bc630,2023-08-16_09h12.01.823,HF_wild_card,2022.2.4,Win32,60.40106306,6346d43493a4f14e735bc630,64d2fd46c836a06233681665,64dc84701cd8412efe8a3d65,,,,,,,ctch,resources/DY.BMP,resources/DR.BMP,Door3,-0.481655089,0.035185146,1,0,0,1.0897,optionLeft,70,6110,3,21,0,21,0,1,,,,,,,,,,,,,,,,,,,,,,,,,,,,,,,,,,,,,,,
,,,,,,,6346d43493a4f14e735bc630,2023-08-16_09h12.01.823,HF_wild_card,2022.2.4,Win32,60.40106306,6346d43493a4f14e735bc630,64d2fd46c836a06233681665,64dc84701cd8412efe8a3d65,,,,,,,decisionTrl,resources/DY.BMP,resources/DG.BMP,Door3,-0.493692112,0.046296279,1,0,0,1.2791,optionLeft,70,6180,3,22,0,22,0,1,,,,,,,,,,,,,,,,,,,,,,,,,,,,,,,,,,,,,,,
,,,,,,,6346d43493a4f14e735bc630,2023-08-16_09h12.01.823,HF_wild_card,2022.2.4,Win32,60.40106306,6346d43493a4f14e735bc630,64d2fd46c836a06233681665,64dc84701cd8412efe8a3d65,,,,,,,sngl,resources/Empty.png,resources/DG.BMP,Door4,0.322048569,0.050925922,1,0,0,0.6455,optionRight,60,6240,3,23,0,23,0,1,,,,,,,,,,,,,,,,,,,,,,,,,,,,,,,,,,,,,,,
,,,,,,,6346d43493a4f14e735bc630,2023-08-16_09h12.01.823,HF_wild_card,2022.2.4,Win32,60.40106306,6346d43493a4f14e735bc630,64d2fd46c836a06233681665,64dc84701cd8412efe8a3d65,,,,,,,decisionTrl,resources/DP.BMP,resources/DY.BMP,Door3,0.445196788,0.082407379,1,0,0,2.0126,optionRight,70,6310,3,24,0,24,0,1,,,,,,,,,,,,,,,,,,,,,,,,,,,,,,,,,,,,,,,
,,,,,,,6346d43493a4f14e735bc630,2023-08-16_09h12.01.823,HF_wild_card,2022.2.4,Win32,60.40106306,6346d43493a4f14e735bc630,64d2fd46c836a06233681665,64dc84701cd8412efe8a3d65,,,,,,,sngl,resources/Empty.png,resources/DP.BMP,WildCard_NonEx,0.391493098,0.024074078,1,0,0,0.7807,optionRight,45,6355,3,25,0,25,0,1,,,,,,,,,,,,,,,,,,,,,,,,,,,,,,,,,,,,,,,
,,,,,,,6346d43493a4f14e735bc630,2023-08-16_09h12.01.823,HF_wild_card,2022.2.4,Win32,60.40106306,6346d43493a4f14e735bc630,64d2fd46c836a06233681665,64dc84701cd8412efe8a3d65,,,,,,,ctch,resources/DR.BMP,resources/DY.BMP,Door3,0.418344879,0.045370356,1,0,0,2.2955,optionRight,70,6425,3,26,0,26,0,1,,,,,,,,,,,,,,,,,,,,,,,,,,,,,,,,,,,,,,,
,,,,,,,6346d43493a4f14e735bc630,2023-08-16_09h12.01.823,HF_wild_card,2022.2.4,Win32,60.40106306,6346d43493a4f14e735bc630,64d2fd46c836a06233681665,64dc84701cd8412efe8a3d65,,,,,,,decisionTrl,resources/DY.BMP,resources/DP.BMP,Door3,-0.481655089,0.037037023,1,0,0,0.8412,optionLeft,70,6495,3,27,0,27,0,1,,,,,,,,,,,,,,,,,,,,,,,,,,,,,,,,,,,,,,,
,,,,,,,6346d43493a4f14e735bc630,2023-08-16_09h12.01.823,HF_wild_card,2022.2.4,Win32,60.40106306,6346d43493a4f14e735bc630,64d2fd46c836a06233681665,64dc84701cd8412efe8a3d65,,,,,,,decisionTrl,resources/DY.BMP,resources/DG.BMP,Door3,-0.473321756,0.035185146,1,0,0,1.1797,optionLeft,70,6565,3,28,0,28,0,1,,,,,,,,,,,,,,,,,,,,,,,,,,,,,,,,,,,,,,,
,,,,,,,6346d43493a4f14e735bc630,2023-08-16_09h12.01.823,HF_wild_card,2022.2.4,Win32,60.40106306,6346d43493a4f14e735bc630,64d2fd46c836a06233681665,64dc84701cd8412efe8a3d65,,,,,,,sngl,resources/DR.BMP,resources/Empty.png,Door2,-0.490914313,0.021296279,1,0,0,0.6632,optionLeft,40,6605,3,29,0,29,0,1,,,,,,,,,,,,,,,,,,,,,,,,,,,,,,,,,,,,,,,
,,,,,,,6346d43493a4f14e735bc630,2023-08-16_09h12.01.823,HF_wild_card,2022.2.4,Win32,60.40106306,6346d43493a4f14e735bc630,64d2fd46c836a06233681665,64dc84701cd8412efe8a3d65,,,,,,,decisionTrl,resources/DBN.BMP,resources/DP.BMP,WildCard_NonEx,0.395196788,0.017592589,1,0,0,1.5301,optionRight,45,6650,3,30,0,30,0,1,,,,,,,,,,,,,,,,,,,,,,,,,,,,,,,,,,,,,,,
,,,,,,,6346d43493a4f14e735bc630,2023-08-16_09h12.01.823,HF_wild_card,2022.2.4,Win32,60.40106306,6346d43493a4f14e735bc630,64d2fd46c836a06233681665,64dc84701cd8412efe8a3d65,,,,,,,decisionTrl,resources/DG.BMP,resources/DY.BMP,Door3,0.426678212,0.044444434,1,0,0,1.23,optionRight,70,6720,3,31,0,31,0,1,,,,,,,,,,,,,,,,,,,,,,,,,,,,,,,,,,,,,,,
,,,,,,,6346d43493a4f14e735bc630,2023-08-16_09h12.01.823,HF_wild_card,2022.2.4,Win32,60.40106306,6346d43493a4f14e735bc630,64d2fd46c836a06233681665,64dc84701cd8412efe8a3d65,,,,,,,decisionTrl,resources/DR.BMP,resources/DBN.BMP,Door2,-0.469618066,0.067592589,1,0,0,1.2909,optionLeft,20,6740,3,32,0,32,0,1,,,,,,,,,,,,,,,,,,,,,,,,,,,,,,,,,,,,,,,
,,,,,,,6346d43493a4f14e735bc630,2023-08-16_09h12.01.823,HF_wild_card,2022.2.4,Win32,60.40106306,6346d43493a4f14e735bc630,64d2fd46c836a06233681665,64dc84701cd8412efe8a3d65,,,,,,,decisionTrl,resources/DG.BMP,resources/DY.BMP,Door4,-0.46776619,0.037037023,1,0,0,1.4634,optionLeft,80,6820,3,33,0,33,0,1,,,,,,,,,,,,,,,,,,,,,,,,,,,,,,,,,,,,,,,
,,,,,,,6346d43493a4f14e735bc630,2023-08-16_09h12.01.823,HF_wild_card,2022.2.4,Win32,60.40106306,6346d43493a4f14e735bc630,64d2fd46c836a06233681665,64dc84701cd8412efe8a3d65,,,,,,,ctch,resources/DBN.BMP,resources/DG.BMP,Door4,0.386863454,0.035185146,1,0,0,0.8126,optionRight,80,6900,3,34,0,34,0,1,,,,,,,,,,,,,,,,,,,,,,,,,,,,,,,,,,,,,,,
,,,,,,,6346d43493a4f14e735bc630,2023-08-16_09h12.01.823,HF_wild_card,2022.2.4,Win32,60.40106306,6346d43493a4f14e735bc630,64d2fd46c836a06233681665,64dc84701cd8412efe8a3d65,,,,,,,decisionTrl,resources/DR.BMP,resources/DP.BMP,WildCard_NonEx,0.426678212,-0.002777767,1,0,0,1.3078,optionRight,45,6945,3,35,0,35,0,1,,,,,,,,,,,,,,,,,,,,,,,,,,,,,,,,,,,,,,,
,,,,,,,6346d43493a4f14e735bc630,2023-08-16_09h12.01.823,HF_wild_card,2022.2.4,Win32,60.40106306,6346d43493a4f14e735bc630,64d2fd46c836a06233681665,64dc84701cd8412efe8a3d65,,,,,,,sngl,resources/Empty.png,resources/DP.BMP,WildCard_NonEx,0.413715235,-0.003703721,1,0,0,0.68,optionRight,55,7000,3,36,0,36,0,1,,,,,,,,,,,,,,,,,,,,,,,,,,,,,,,,,,,,,,,
,,,,,,,6346d43493a4f14e735bc630,2023-08-16_09h12.01.823,HF_wild_card,2022.2.4,Win32,60.40106306,6346d43493a4f14e735bc630,64d2fd46c836a06233681665,64dc84701cd8412efe8a3d65,,,,,,,sngl,resources/Empty.png,resources/DR.BMP,Door2,0.356307856,0.02870369,1,0,0,0.6794,optionRight,20,7020,3,37,0,37,0,1,,,,,,,,,,,,,,,,,,,,,,,,,,,,,,,,,,,,,,,
,,,,,,,6346d43493a4f14e735bc630,2023-08-16_09h12.01.823,HF_wild_card,2022.2.4,Win32,60.40106306,6346d43493a4f14e735bc630,64d2fd46c836a06233681665,64dc84701cd8412efe8a3d65,,,,,,,decisionTrl,resources/DBN.BMP,resources/DR.BMP,Door2,0.337789408,0.014814822,1,0,0,1.6111,optionRight,20,7040,3,38,0,38,0,1,,,,,,,,,,,,,,,,,,,,,,,,,,,,,,,,,,,,,,,
,,,,,,,6346d43493a4f14e735bc630,2023-08-16_09h12.01.823,HF_wild_card,2022.2.4,Win32,60.40106306,6346d43493a4f14e735bc630,64d2fd46c836a06233681665,64dc84701cd8412efe8a3d65,,,,,,,ctch,resources/DG.BMP,resources/DBN.BMP,Door4,-0.4140625,-0.05370369,1,0,0,1.0623,optionLeft,80,7120,3,39,0,39,0,1,,,,,,,,,,,,,,,,,,,,,,,,,,,,,,,,,,,,,,,
,,,,,,,6346d43493a4f14e735bc630,2023-08-16_09h12.01.823,HF_wild_card,2022.2.4,Win32,60.40106306,6346d43493a4f14e735bc630,64d2fd46c836a06233681665,64dc84701cd8412efe8a3d65,,,,,,,decisionTrl,resources/DBN.BMP,resources/DR.BMP,Door1,-0.427025445,-0.067592621,1,0,0,1.2248,optionLeft,30,7150,3,40,0,40,0,1,,,,,,,,,,,,,,,,,,,,,,,,,,,,,,,,,,,,,,,
,,,,,,,6346d43493a4f14e735bc630,2023-08-16_09h12.01.823,HF_wild_card,2022.2.4,Win32,60.40106306,6346d43493a4f14e735bc630,64d2fd46c836a06233681665,64dc84701cd8412efe8a3d65,,,,,,,decisionTrl,resources/DY.BMP,resources/DG.BMP,Door4,0.379456075,0.002777767,1,0,0,1.43,optionRight,80,7230,3,41,0,41,0,1,,,,,,,,,,,,,,,,,,,,,,,,,,,,,,,,,,,,,,,
,,,,,,,6346d43493a4f14e735bc630,2023-08-16_09h12.01.823,HF_wild_card,2022.2.4,Win32,60.40106306,6346d43493a4f14e735bc630,64d2fd46c836a06233681665,64dc84701cd8412efe8a3d65,,,,,,,ctch,resources/DR.BMP,resources/DY.BMP,Door3,0.428530121,0.022222233,1,0,0,1.4665,optionRight,70,7300,3,42,0,42,0,1,,,,,,,,,,,,,,,,,,,,,,,,,,,,,,,,,,,,,,,
,,,,,,,6346d43493a4f14e735bc630,2023-08-16_09h12.01.823,HF_wild_card,2022.2.4,Win32,60.40106306,6346d43493a4f14e735bc630,64d2fd46c836a06233681665,64dc84701cd8412efe8a3d65,,,,,,,decisionTrl,resources/DP.BMP,resources/DR.BMP,WildCard_NonEx,-0.388136578,-0.069444466,1,0,0,1.7294,optionLeft,45,7345,3,43,0,43,0,1,,,,,,,,,,,,,,,,,,,,,,,,,,,,,,,,,,,,,,,
,,,,,,,6346d43493a4f14e735bc630,2023-08-16_09h12.01.823,HF_wild_card,2022.2.4,Win32,60.40106306,6346d43493a4f14e735bc630,64d2fd46c836a06233681665,64dc84701cd8412efe8a3d65,,,,,,,,,,,,,,,,,,,,,,,,,,2,0,2,0,1,,,,,,,,,,,,,,,,,,,,,,,,,,,,,,,,,,
,,,,,,,6346d43493a4f14e735bc630,2023-08-16_09h12.01.823,HF_wild_card,2022.2.4,Win32,60.40106306,6346d43493a4f14e735bc630,64d2fd46c836a06233681665,64dc84701cd8412efe8a3d65,,,,,,,decisionTrl,resources/DG.BMP,resources/DY.BMP,Door4,-0.436284733,-0.028703721,1,0,0,1.4647,optionLeft,80,7425,4,0,0,0,0,1,,,,,,,,,,,,,,,,,,,,,,,,,,,,,,,,,,,,,,,
,,,,,,,6346d43493a4f14e735bc630,2023-08-16_09h12.01.823,HF_wild_card,2022.2.4,Win32,60.40106306,6346d43493a4f14e735bc630,64d2fd46c836a06233681665,64dc84701cd8412efe8a3d65,,,,,,,ctch,resources/DR.BMP,resources/DY.BMP,Door3,0.4109375,-0.025925922,1,0,0,1.7798,optionRight,70,7495,4,1,0,1,0,1,,,,,,,,,,,,,,,,,,,,,,,,,,,,,,,,,,,,,,,
,,,,,,,6346d43493a4f14e735bc630,2023-08-16_09h12.01.823,HF_wild_card,2022.2.4,Win32,60.40106306,6346d43493a4f14e735bc630,64d2fd46c836a06233681665,64dc84701cd8412efe8a3d65,,,,,,,sngl,resources/DBN.BMP,resources/Empty.png,Door1,-0.490914313,-0.001851845,1,0,0,0.6966,optionLeft,30,7525,4,2,0,2,0,1,,,,,,,,,,,,,,,,,,,,,,,,,,,,,,,,,,,,,,,
,,,,,,,6346d43493a4f14e735bc630,2023-08-16_09h12.01.823,HF_wild_card,2022.2.4,Win32,60.40106306,6346d43493a4f14e735bc630,64d2fd46c836a06233681665,64dc84701cd8412efe8a3d65,,,,,,,decisionTrl,resources/DG.BMP,resources/DY.BMP,Door4,-0.441840267,0.015740744,1,0,0,1.0467,optionLeft,60,7585,4,3,0,3,0,1,,,,,,,,,,,,,,,,,,,,,,,,,,,,,,,,,,,,,,,
,,,,,,,6346d43493a4f14e735bc630,2023-08-16_09h12.01.823,HF_wild_card,2022.2.4,Win32,60.40106306,6346d43493a4f14e735bc630,64d2fd46c836a06233681665,64dc84701cd8412efe8a3d65,,,,,,,ctch,resources/DY.BMP,resources/DR.BMP,Door3,-0.437210655,-0.024074078,1,0,0,0.7953,optionLeft,70,7655,4,4,0,4,0,1,,,,,,,,,,,,,,,,,,,,,,,,,,,,,,,,,,,,,,,
,,,,,,,6346d43493a4f14e735bc630,2023-08-16_09h12.01.823,HF_wild_card,2022.2.4,Win32,60.40106306,6346d43493a4f14e735bc630,64d2fd46c836a06233681665,64dc84701cd8412efe8a3d65,,,,,,,ctch,resources/DR.BMP,resources/DY.BMP,Door3,0.388715235,-0.040740776,1,0,0,0.8793,optionRight,70,7725,4,5,0,5,0,1,,,,,,,,,,,,,,,,,,,,,,,,,,,,,,,,,,,,,,,
,,,,,,,6346d43493a4f14e735bc630,2023-08-16_09h12.01.823,HF_wild_card,2022.2.4,Win32,60.40106306,6346d43493a4f14e735bc630,64d2fd46c836a06233681665,64dc84701cd8412efe8a3d65,,,,,,,decisionTrl,resources/DY.BMP,resources/DG.BMP,Door4,0.404456075,-0.031481489,1,0,0,1.4952,optionRight,60,7785,4,6,0,6,0,1,,,,,,,,,,,,,,,,,,,,,,,,,,,,,,,,,,,,,,,
,,,,,,,6346d43493a4f14e735bc630,2023-08-16_09h12.01.823,HF_wild_card,2022.2.4,Win32,60.40106306,6346d43493a4f14e735bc630,64d2fd46c836a06233681665,64dc84701cd8412efe8a3d65,,,,,,,decisionTrl,resources/DR.BMP,resources/DB.BMP,WildCard_Ex,0.397048569,-0.035185178,1,0,0,1.2798,optionRight,55,7840,4,7,0,7,0,1,,,,,,,,,,,,,,,,,,,,,,,,,,,,,,,,,,,,,,,
,,,,,,,6346d43493a4f14e735bc630,2023-08-16_09h12.01.823,HF_wild_card,2022.2.4,Win32,60.40106306,6346d43493a4f14e735bc630,64d2fd46c836a06233681665,64dc84701cd8412efe8a3d65,,,,,,,ctch,resources/DG.BMP,resources/DBN.BMP,Door4,-0.509432856,0.008333333,1,0,0,0.9297,optionLeft,80,7920,4,8,0,8,0,1,,,,,,,,,,,,,,,,,,,,,,,,,,,,,,,,,,,,,,,
,,,,,,,6346d43493a4f14e735bc630,2023-08-16_09h12.01.823,HF_wild_card,2022.2.4,Win32,60.40106306,6346d43493a4f14e735bc630,64d2fd46c836a06233681665,64dc84701cd8412efe8a3d65,,,,,,,decisionTrl,resources/DBN.BMP,resources/DR.BMP,Door1,-0.473321756,0.025,1,0,0,1.5457,optionLeft,30,7950,4,9,0,9,0,1,,,,,,,,,,,,,,,,,,,,,,,,,,,,,,,,,,,,,,,
,,,,,,,6346d43493a4f14e735bc630,2023-08-16_09h12.01.823,HF_wild_card,2022.2.4,Win32,60.40106306,6346d43493a4f14e735bc630,64d2fd46c836a06233681665,64dc84701cd8412efe8a3d65,,,,,,,ctch,resources/DBN.BMP,resources/DG.BMP,Door4,0.406307856,-0.011111101,1,0,0,1.4634,optionRight,60,8010,4,10,0,10,0,1,,,,,,,,,,,,,,,,,,,,,,,,,,,,,,,,,,,,,,,
,,,,,,,6346d43493a4f14e735bc630,2023-08-16_09h12.01.823,HF_wild_card,2022.2.4,Win32,60.40106306,6346d43493a4f14e735bc630,64d2fd46c836a06233681665,64dc84701cd8412efe8a3d65,,,,,,,decisionTrl,resources/DB.BMP,resources/DBN.BMP,WildCard_Ex,-0.480729167,-0.017592589,1,0,0,1.3462,optionLeft,45,8055,4,11,0,11,0,1,,,,,,,,,,,,,,,,,,,,,,,,,,,,,,,,,,,,,,,
,,,,,,,6346d43493a4f14e735bc630,2023-08-16_09h12.01.823,HF_wild_card,2022.2.4,Win32,60.40106306,6346d43493a4f14e735bc630,64d2fd46c836a06233681665,64dc84701cd8412efe8a3d65,,,,,,,ctch,resources/DG.BMP,resources/DBN.BMP,Door4,-0.443692112,0.036111101,1,0,0,0.8955,optionLeft,60,8115,4,12,0,12,0,1,,,,,,,,,,,,,,,,,,,,,,,,,,,,,,,,,,,,,,,
,,,,,,,6346d43493a4f14e735bc630,2023-08-16_09h12.01.823,HF_wild_card,2022.2.4,Win32,60.40106306,6346d43493a4f14e735bc630,64d2fd46c836a06233681665,64dc84701cd8412efe8a3d65,,,,,,,decisionTrl,resources/DR.BMP,resources/DBN.BMP,Door2,-0.435358779,-0.001851845,1,0,0,1.1579,optionLeft,20,8135,4,13,0,13,0,1,,,,,,,,,,,,,,,,,,,,,,,,,,,,,,,,,,,,,,,
,,,,,,,6346d43493a4f14e735bc630,2023-08-16_09h12.01.823,HF_wild_card,2022.2.4,Win32,60.40106306,6346d43493a4f14e735bc630,64d2fd46c836a06233681665,64dc84701cd8412efe8a3d65,,,,,,,decisionTrl,resources/DY.BMP,resources/DG.BMP,Door3,-0.446469879,-0.038888868,1,0,0,1.1637,optionLeft,70,8205,4,14,0,14,0,1,,,,,,,,,,,,,,,,,,,,,,,,,,,,,,,,,,,,,,,
,,,,,,,6346d43493a4f14e735bc630,2023-08-16_09h12.01.823,HF_wild_card,2022.2.4,Win32,60.40106306,6346d43493a4f14e735bc630,64d2fd46c836a06233681665,64dc84701cd8412efe8a3d65,,,,,,,sngl,resources/Empty.png,resources/DB.BMP,WildCard_Ex,0.366493098,-0.013888899,1,0,0,0.7465,optionRight,45,8250,4,15,0,15,0,1,,,,,,,,,,,,,,,,,,,,,,,,,,,,,,,,,,,,,,,
,,,,,,,6346d43493a4f14e735bc630,2023-08-16_09h12.01.823,HF_wild_card,2022.2.4,Win32,60.40106306,6346d43493a4f14e735bc630,64d2fd46c836a06233681665,64dc84701cd8412efe8a3d65,,,,,,,sngl,resources/Empty.png,resources/DG.BMP,Door4,0.410011546,-0.006481489,1,0,0,0.6466,optionRight,80,8330,4,16,0,16,0,1,,,,,,,,,,,,,,,,,,,,,,,,,,,,,,,,,,,,,,,
,,,,,,,6346d43493a4f14e735bc630,2023-08-16_09h12.01.823,HF_wild_card,2022.2.4,Win32,60.40106306,6346d43493a4f14e735bc630,64d2fd46c836a06233681665,64dc84701cd8412efe8a3d65,,,,,,,decisionTrl,resources/DBN.BMP,resources/DR.BMP,Door1,-0.500173601,-0.010185178,1,0,0,0.9966,optionLeft,30,8360,4,17,0,17,0,1,,,,,,,,,,,,,,,,,,,,,,,,,,,,,,,,,,,,,,,
,,,,,,,6346d43493a4f14e735bc630,2023-08-16_09h12.01.823,HF_wild_card,2022.2.4,Win32,60.40106306,6346d43493a4f14e735bc630,64d2fd46c836a06233681665,64dc84701cd8412efe8a3d65,,,,,,,decisionTrl,resources/DBN.BMP,resources/DB.BMP,WildCard_Ex,0.394270833,-0.060185178,1,0,0,1.1948,optionRight,45,8405,4,18,0,18,0,1,,,,,,,,,,,,,,,,,,,,,,,,,,,,,,,,,,,,,,,
,,,,,,,6346d43493a4f14e735bc630,2023-08-16_09h12.01.823,HF_wild_card,2022.2.4,Win32,60.40106306,6346d43493a4f14e735bc630,64d2fd46c836a06233681665,64dc84701cd8412efe8a3d65,,,,,,,sngl,resources/DR.BMP,resources/Empty.png,Door2,-0.478877322,-0.015740744,1,0,0,0.7081,optionLeft,20,8425,4,19,0,19,0,1,,,,,,,,,,,,,,,,,,,,,,,,,,,,,,,,,,,,,,,
,,,,,,,6346d43493a4f14e735bc630,2023-08-16_09h12.01.823,HF_wild_card,2022.2.4,Win32,60.40106306,6346d43493a4f14e735bc630,64d2fd46c836a06233681665,64dc84701cd8412efe8a3d65,,,,,,,decisionTrl,resources/DBN.BMP,resources/DR.BMP,Door1,-0.265914345,-0.117592621,1,0,0,1.046,optionLeft,30,8455,4,20,0,20,0,1,,,,,,,,,,,,,,,,,,,,,,,,,,,,,,,,,,,,,,,
,,,,,,,6346d43493a4f14e735bc630,2023-08-16_09h12.01.823,HF_wild_card,2022.2.4,Win32,60.40106306,6346d43493a4f14e735bc630,64d2fd46c836a06233681665,64dc84701cd8412efe8a3d65,,,,,,,decisionTrl,resources/DG.BMP,resources/DB.BMP,Door4,-0.455729167,-0.025,1,0,0,1.1131,optionLeft,60,8515,4,21,0,21,0,1,,,,,,,,,,,,,,,,,,,,,,,,,,,,,,,,,,,,,,,
,,,,,,,6346d43493a4f14e735bc630,2023-08-16_09h12.01.823,HF_wild_card,2022.2.4,Win32,60.40106306,6346d43493a4f14e735bc630,64d2fd46c836a06233681665,64dc84701cd8412efe8a3d65,,,,,,,sngl,resources/Empty.png,resources/DR.BMP,Door2,0.305381902,-0.032407411,1,0,0,0.8079,optionRight,40,8555,4,22,0,22,0,1,,,,,,,,,,,,,,,,,,,,,,,,,,,,,,,,,,,,,,,
,,,,,,,6346d43493a4f14e735bc630,2023-08-16_09h12.01.823,HF_wild_card,2022.2.4,Win32,60.40106306,6346d43493a4f14e735bc630,64d2fd46c836a06233681665,64dc84701cd8412efe8a3d65,,,,,,,decisionTrl,resources/DR.BMP,resources/DBN.BMP,Door1,0.38964119,0.019444434,1,0,0,2.363,optionRight,30,8585,4,23,0,23,0,1,,,,,,,,,,,,,,,,,,,,,,,,,,,,,,,,,,,,,,,
,,,,,,,6346d43493a4f14e735bc630,2023-08-16_09h12.01.823,HF_wild_card,2022.2.4,Win32,60.40106306,6346d43493a4f14e735bc630,64d2fd46c836a06233681665,64dc84701cd8412efe8a3d65,,,,,,,sngl,resources/DG.BMP,resources/Empty.png,Door4,-0.485358779,-0.032407411,1,0,0,0.8964,optionLeft,60,8645,4,24,0,24,0,1,,,,,,,,,,,,,,,,,,,,,,,,,,,,,,,,,,,,,,,
,,,,,,,6346d43493a4f14e735bc630,2023-08-16_09h12.01.823,HF_wild_card,2022.2.4,Win32,60.40106306,6346d43493a4f14e735bc630,64d2fd46c836a06233681665,64dc84701cd8412efe8a3d65,,,,,,,sngl,resources/Empty.png,resources/DY.BMP,Door3,0.375752385,-0.000925922,1,0,0,3.0909,optionRight,70,8715,4,25,0,25,0,1,,,,,,,,,,,,,,,,,,,,,,,,,,,,,,,,,,,,,,,
,,,,,,,6346d43493a4f14e735bc630,2023-08-16_09h12.01.823,HF_wild_card,2022.2.4,Win32,60.40106306,6346d43493a4f14e735bc630,64d2fd46c836a06233681665,64dc84701cd8412efe8a3d65,,,,,,,sngl,resources/DY.BMP,resources/Empty.png,Door3,-0.529803212,-0.077777799,1,0,0,0.6669,optionLeft,70,8785,4,26,0,26,0,1,,,,,,,,,,,,,,,,,,,,,,,,,,,,,,,,,,,,,,,
,,,,,,,6346d43493a4f14e735bc630,2023-08-16_09h12.01.823,HF_wild_card,2022.2.4,Win32,60.40106306,6346d43493a4f14e735bc630,64d2fd46c836a06233681665,64dc84701cd8412efe8a3d65,,,,,,,sngl,resources/DB.BMP,resources/Empty.png,WildCard_Ex,-0.50758098,-0.049074109,1,0,0,0.6912,optionLeft,45,8830,4,27,0,27,0,1,,,,,,,,,,,,,,,,,,,,,,,,,,,,,,,,,,,,,,,
,,,,,,,6346d43493a4f14e735bc630,2023-08-16_09h12.01.823,HF_wild_card,2022.2.4,Win32,60.40106306,6346d43493a4f14e735bc630,64d2fd46c836a06233681665,64dc84701cd8412efe8a3d65,,,,,,,decisionTrl,resources/DG.BMP,resources/DY.BMP,Door4,-0.496469879,-0.006481489,1,0,0,1.1753,optionLeft,80,8910,4,28,0,28,0,1,,,,,,,,,,,,,,,,,,,,,,,,,,,,,,,,,,,,,,,
,,,,,,,6346d43493a4f14e735bc630,2023-08-16_09h12.01.823,HF_wild_card,2022.2.4,Win32,60.40106306,6346d43493a4f14e735bc630,64d2fd46c836a06233681665,64dc84701cd8412efe8a3d65,,,,,,,decisionTrl,resources/DY.BMP,resources/DB.BMP,Door3,-0.505729167,-0.031481489,1,0,0,0.6458,optionLeft,70,8980,4,29,0,29,0,1,,,,,,,,,,,,,,,,,,,,,,,,,,,,,,,,,,,,,,,
,,,,,,,6346d43493a4f14e735bc630,2023-08-16_09h12.01.823,HF_wild_card,2022.2.4,Win32,60.40106306,6346d43493a4f14e735bc630,64d2fd46c836a06233681665,64dc84701cd8412efe8a3d65,,,,,,,decisionTrl,resources/DB.BMP,resources/DR.BMP,WildCard_Ex,-0.451099523,-0.062037023,1,0,0,1.0296,optionLeft,55,9035,4,30,0,30,0,1,,,,,,,,,,,,,,,,,,,,,,,,,,,,,,,,,,,,,,,
,,,,,,,6346d43493a4f14e735bc630,2023-08-16_09h12.01.823,HF_wild_card,2022.2.4,Win32,60.40106306,6346d43493a4f14e735bc630,64d2fd46c836a06233681665,64dc84701cd8412efe8a3d65,,,,,,,ctch,resources/DBN.BMP,resources/DG.BMP,Door4,0.352604167,0.015740744,1,0,0,0.7693,optionRight,80,9115,4,31,0,31,0,1,,,,,,,,,,,,,,,,,,,,,,,,,,,,,,,,,,,,,,,
,,,,,,,6346d43493a4f14e735bc630,2023-08-16_09h12.01.823,HF_wild_card,2022.2.4,Win32,60.40106306,6346d43493a4f14e735bc630,64d2fd46c836a06233681665,64dc84701cd8412efe8a3d65,,,,,,,decisionTrl,resources/DR.BMP,resources/DBN.BMP,Door1,0.378530121,0.077777767,1,0,0,1.6191,optionRight,30,9145,4,32,0,32,0,1,,,,,,,,,,,,,,,,,,,,,,,,,,,,,,,,,,,,,,,
,,,,,,,6346d43493a4f14e735bc630,2023-08-16_09h12.01.823,HF_wild_card,2022.2.4,Win32,60.40106306,6346d43493a4f14e735bc630,64d2fd46c836a06233681665,64dc84701cd8412efe8a3d65,,,,,,,sngl,resources/DB.BMP,resources/Empty.png,WildCard_Ex,-0.491840267,0.001851845,1,0,0,1.8889,optionLeft,55,9200,4,33,0,33,0,1,,,,,,,,,,,,,,,,,,,,,,,,,,,,,,,,,,,,,,,
,,,,,,,6346d43493a4f14e735bc630,2023-08-16_09h12.01.823,HF_wild_card,2022.2.4,Win32,60.40106306,6346d43493a4f14e735bc630,64d2fd46c836a06233681665,64dc84701cd8412efe8a3d65,,,,,,,decisionTrl,resources/DY.BMP,resources/DG.BMP,Door3,-0.493692112,0.005555566,1,0,0,1.6908,optionLeft,70,9270,4,34,0,34,0,1,,,,,,,,,,,,,,,,,,,,,,,,,,,,,,,,,,,,,,,
,,,,,,,6346d43493a4f14e735bc630,2023-08-16_09h12.01.823,HF_wild_card,2022.2.4,Win32,60.40106306,6346d43493a4f14e735bc630,64d2fd46c836a06233681665,64dc84701cd8412efe8a3d65,,,,,,,ctch,resources/DY.BMP,resources/DR.BMP,Door3,-0.503877322,-0.024074078,1,0,0,0.9131,optionLeft,70,9340,4,35,0,35,0,1,,,,,,,,,,,,,,,,,,,,,,,,,,,,,,,,,,,,,,,
,,,,,,,6346d43493a4f14e735bc630,2023-08-16_09h12.01.823,HF_wild_card,2022.2.4,Win32,60.40106306,6346d43493a4f14e735bc630,64d2fd46c836a06233681665,64dc84701cd8412efe8a3d65,,,,,,,decisionTrl,resources/DY.BMP,resources/DG.BMP,Door4,0.397048569,0.035185146,1,0,0,1.507,optionRight,60,9400,4,36,0,36,0,1,,,,,,,,,,,,,,,,,,,,,,,,,,,,,,,,,,,,,,,
,,,,,,,6346d43493a4f14e735bc630,2023-08-16_09h12.01.823,HF_wild_card,2022.2.4,Win32,60.40106306,6346d43493a4f14e735bc630,64d2fd46c836a06233681665,64dc84701cd8412efe8a3d65,,,,,,,sngl,resources/Empty.png,resources/DBN.BMP,Door1,0.352604167,0.039814822,1,0,0,0.6731,optionRight,30,9430,4,37,0,37,0,1,,,,,,,,,,,,,,,,,,,,,,,,,,,,,,,,,,,,,,,
,,,,,,,6346d43493a4f14e735bc630,2023-08-16_09h12.01.823,HF_wild_card,2022.2.4,Win32,60.40106306,6346d43493a4f14e735bc630,64d2fd46c836a06233681665,64dc84701cd8412efe8a3d65,,,,,,,sngl,resources/Empty.png,resources/DB.BMP,WildCard_Ex,0.342419052,0.017592589,1,0,0,0.6468,optionRight,55,9485,4,38,0,38,0,1,,,,,,,,,,,,,,,,,,,,,,,,,,,,,,,,,,,,,,,
,,,,,,,6346d43493a4f14e735bc630,2023-08-16_09h12.01.823,HF_wild_card,2022.2.4,Win32,60.40106306,6346d43493a4f14e735bc630,64d2fd46c836a06233681665,64dc84701cd8412efe8a3d65,,,,,,,decisionTrl,resources/DR.BMP,resources/DBN.BMP,Door1,0.378530121,0.030555566,1,0,0,1.7131,optionRight,30,9515,4,39,0,39,0,1,,,,,,,,,,,,,,,,,,,,,,,,,,,,,,,,,,,,,,,
,,,,,,,6346d43493a4f14e735bc630,2023-08-16_09h12.01.823,HF_wild_card,2022.2.4,Win32,60.40106306,6346d43493a4f14e735bc630,64d2fd46c836a06233681665,64dc84701cd8412efe8a3d65,,,,,,,decisionTrl,resources/DG.BMP,resources/DY.BMP,Door3,0.383159765,0.02870369,1,0,0,1.3294,optionRight,70,9585,4,40,0,40,0,1,,,,,,,,,,,,,,,,,,,,,,,,,,,,,,,,,,,,,,,
,,,,,,,6346d43493a4f14e735bc630,2023-08-16_09h12.01.823,HF_wild_card,2022.2.4,Win32,60.40106306,6346d43493a4f14e735bc630,64d2fd46c836a06233681665,64dc84701cd8412efe8a3d65,,,,,,,decisionTrl,resources/DBN.BMP,resources/DR.BMP,Door1,-0.453877322,-0.017592589,1,0,0,0.9621,optionLeft,30,9615,4,41,0,41,0,1,,,,,,,,,,,,,,,,,,,,,,,,,,,,,,,,,,,,,,,
,,,,,,,6346d43493a4f14e735bc630,2023-08-16_09h12.01.823,HF_wild_card,2022.2.4,Win32,60.40106306,6346d43493a4f14e735bc630,64d2fd46c836a06233681665,64dc84701cd8412efe8a3d65,,,,,,,decisionTrl,resources/DB.BMP,resources/DG.BMP,Door4,0.381307856,0.023148155,1,0,0,1.1107,optionRight,60,9675,4,42,0,42,0,1,,,,,,,,,,,,,,,,,,,,,,,,,,,,,,,,,,,,,,,
,,,,,,,6346d43493a4f14e735bc630,2023-08-16_09h12.01.823,HF_wild_card,2022.2.4,Win32,60.40106306,6346d43493a4f14e735bc630,64d2fd46c836a06233681665,64dc84701cd8412efe8a3d65,,,,,,,decisionTrl,resources/DB.BMP,resources/DY.BMP,Door3,0.372974523,-0.013888899,1,0,0,1.05,optionRight,70,9745,4,43,0,43,0,1,,,,,,,,,,,,,,,,,,,,,,,,,,,,,,,,,,,,,,,
,,,,,,,6346d43493a4f14e735bc630,2023-08-16_09h12.01.823,HF_wild_card,2022.2.4,Win32,60.40106306,6346d43493a4f14e735bc630,64d2fd46c836a06233681665,64dc84701cd8412efe8a3d65,,,,,,,,,,,,,,,,,,,,,,,,,,3,0,3,0,1,,,,,,,,,,,,,,,,,,,,,,,,,,,,,,,,,,
,,,,,,,6346d43493a4f14e735bc630,2023-08-16_09h12.01.823,HF_wild_card,2022.2.4,Win32,60.40106306,6346d43493a4f14e735bc630,64d2fd46c836a06233681665,64dc84701cd8412efe8a3d65,,,,,,,decisionTrl,resources/DBN.BMP,resources/DB.BMP,WildCard_Ex,0.4609375,-0.004629644,1,0,0,1.2288,optionRight,45,9790,5,0,0,0,0,1,,,,,,,,,,,,,,,,,,,,,,,,,,,,,,,,,,,,,,,
,,,,,,,6346d43493a4f14e735bc630,2023-08-16_09h12.01.823,HF_wild_card,2022.2.4,Win32,60.40106306,6346d43493a4f14e735bc630,64d2fd46c836a06233681665,64dc84701cd8412efe8a3d65,,,,,,,decisionTrl,resources/DY.BMP,resources/DG.BMP,Door3,-0.485358779,0.007407411,1,0,0,0.9579,optionLeft,70,9860,5,1,0,1,0,1,,,,,,,,,,,,,,,,,,,,,,,,,,,,,,,,,,,,,,,
,,,,,,,6346d43493a4f14e735bc630,2023-08-16_09h12.01.823,HF_wild_card,2022.2.4,Win32,60.40106306,6346d43493a4f14e735bc630,64d2fd46c836a06233681665,64dc84701cd8412efe8a3d65,,,,,,,decisionTrl,resources/DY.BMP,resources/DB.BMP,Door3,-0.508506934,0,1,0,0,0.6464,optionLeft,70,9930,5,2,0,2,0,1,,,,,,,,,,,,,,,,,,,,,,,,,,,,,,,,,,,,,,,
,,,,,,,6346d43493a4f14e735bc630,2023-08-16_09h12.01.823,HF_wild_card,2022.2.4,Win32,60.40106306,6346d43493a4f14e735bc630,64d2fd46c836a06233681665,64dc84701cd8412efe8a3d65,,,,,,,decisionTrl,resources/DBN.BMP,resources/DR.BMP,Door1,-0.484432856,-0.002777767,1,0,0,0.9297,optionLeft,30,9960,5,3,0,3,0,1,,,,,,,,,,,,,,,,,,,,,,,,,,,,,,,,,,,,,,,
,,,,,,,6346d43493a4f14e735bc630,2023-08-16_09h12.01.823,HF_wild_card,2022.2.4,Win32,60.40106306,6346d43493a4f14e735bc630,64d2fd46c836a06233681665,64dc84701cd8412efe8a3d65,,,,,,,ctch,resources/DY.BMP,resources/DR.BMP,Door3,-0.514988422,-0.007407411,1,0,0,1.0079,optionLeft,70,10030,5,4,0,4,0,1,,,,,,,,,,,,,,,,,,,,,,,,,,,,,,,,,,,,,,,
,,,,,,,6346d43493a4f14e735bc630,2023-08-16_09h12.01.823,HF_wild_card,2022.2.4,Win32,60.40106306,6346d43493a4f14e735bc630,64d2fd46c836a06233681665,64dc84701cd8412efe8a3d65,,,,,,,ctch,resources/DG.BMP,resources/DBN.BMP,Door4,-0.500173601,0.027777767,1,0,0,0.7967,optionLeft,60,10090,5,5,0,5,0,1,,,,,,,,,,,,,,,,,,,,,,,,,,,,,,,,,,,,,,,
,,,,,,,6346d43493a4f14e735bc630,2023-08-16_09h12.01.823,HF_wild_card,2022.2.4,Win32,60.40106306,6346d43493a4f14e735bc630,64d2fd46c836a06233681665,64dc84701cd8412efe8a3d65,,,,,,,decisionTrl,resources/DY.BMP,resources/DG.BMP,Door4,0.3859375,0.020370356,1,0,0,1.1957,optionRight,80,10170,5,6,0,6,0,1,,,,,,,,,,,,,,,,,,,,,,,,,,,,,,,,,,,,,,,
,,,,,,,6346d43493a4f14e735bc630,2023-08-16_09h12.01.823,HF_wild_card,2022.2.4,Win32,60.40106306,6346d43493a4f14e735bc630,64d2fd46c836a06233681665,64dc84701cd8412efe8a3d65,,,,,,,ctch,resources/DY.BMP,resources/DR.BMP,Door3,-0.464988422,-0.042592621,1,0,0,0.9129,optionLeft,70,10240,5,7,0,7,0,1,,,,,,,,,,,,,,,,,,,,,,,,,,,,,,,,,,,,,,,
,,,,,,,6346d43493a4f14e735bc630,2023-08-16_09h12.01.823,HF_wild_card,2022.2.4,Win32,60.40106306,6346d43493a4f14e735bc630,64d2fd46c836a06233681665,64dc84701cd8412efe8a3d65,,,,,,,sngl,resources/DY.BMP,resources/Empty.png,Door3,-0.486284733,-0.015740744,1,0,0,0.5293,optionLeft,70,10310,5,8,0,8,0,1,,,,,,,,,,,,,,,,,,,,,,,,,,,,,,,,,,,,,,,
,,,,,,,6346d43493a4f14e735bc630,2023-08-16_09h12.01.823,HF_wild_card,2022.2.4,Win32,60.40106306,6346d43493a4f14e735bc630,64d2fd46c836a06233681665,64dc84701cd8412efe8a3d65,,,,,,,sngl,resources/DB.BMP,resources/Empty.png,WildCard_Ex,-0.513136546,0.023148155,1,0,0,0.7084,optionLeft,45,10355,5,9,0,9,0,1,,,,,,,,,,,,,,,,,,,,,,,,,,,,,,,,,,,,,,,
,,,,,,,6346d43493a4f14e735bc630,2023-08-16_09h12.01.823,HF_wild_card,2022.2.4,Win32,60.40106306,6346d43493a4f14e735bc630,64d2fd46c836a06233681665,64dc84701cd8412efe8a3d65,,,,,,,decisionTrl,resources/DBN.BMP,resources/DR.BMP,Door1,-0.487210655,-0.014814822,1,0,0,1.6295,optionLeft,30,10385,5,10,0,10,0,1,,,,,,,,,,,,,,,,,,,,,,,,,,,,,,,,,,,,,,,
,,,,,,,6346d43493a4f14e735bc630,2023-08-16_09h12.01.823,HF_wild_card,2022.2.4,Win32,60.40106306,6346d43493a4f14e735bc630,64d2fd46c836a06233681665,64dc84701cd8412efe8a3d65,,,,,,,decisionTrl,resources/DG.BMP,resources/DY.BMP,Door4,-0.465914313,-0.010185178,1,0,0,1.4949,optionLeft,60,10445,5,11,0,11,0,1,,,,,,,,,,,,,,,,,,,,,,,,,,,,,,,,,,,,,,,
,,,,,,,6346d43493a4f14e735bc630,2023-08-16_09h12.01.823,HF_wild_card,2022.2.4,Win32,60.40106306,6346d43493a4f14e735bc630,64d2fd46c836a06233681665,64dc84701cd8412efe8a3d65,,,,,,,decisionTrl,resources/DG.BMP,resources/DY.BMP,Door3,0.409085719,0.016666667,1,0,0,0.9639,optionRight,70,10515,5,12,0,12,0,1,,,,,,,,,,,,,,,,,,,,,,,,,,,,,,,,,,,,,,,
,,,,,,,6346d43493a4f14e735bc630,2023-08-16_09h12.01.823,HF_wild_card,2022.2.4,Win32,60.40106306,6346d43493a4f14e735bc630,64d2fd46c836a06233681665,64dc84701cd8412efe8a3d65,,,,,,,decisionTrl,resources/DBN.BMP,resources/DR.BMP,Door1,-0.456655089,0.052777767,1,0,0,2.482,optionLeft,30,10545,5,13,0,13,0,1,,,,,,,,,,,,,,,,,,,,,,,,,,,,,,,,,,,,,,,
,,,,,,,6346d43493a4f14e735bc630,2023-08-16_09h12.01.823,HF_wild_card,2022.2.4,Win32,60.40106306,6346d43493a4f14e735bc630,64d2fd46c836a06233681665,64dc84701cd8412efe8a3d65,,,,,,,sngl,resources/DB.BMP,resources/Empty.png,WildCard_Ex,-0.485358779,-0.016666667,1,0,0,0.6465,optionLeft,55,10600,5,14,0,14,0,1,,,,,,,,,,,,,,,,,,,,,,,,,,,,,,,,,,,,,,,
,,,,,,,6346d43493a4f14e735bc630,2023-08-16_09h12.01.823,HF_wild_card,2022.2.4,Win32,60.40106306,6346d43493a4f14e735bc630,64d2fd46c836a06233681665,64dc84701cd8412efe8a3d65,,,,,,,decisionTrl,resources/DR.BMP,resources/DBN.BMP,Door1,0.372974523,0.044444434,1,0,0,1.2236,optionRight,30,10630,5,15,0,15,0,1,,,,,,,,,,,,,,,,,,,,,,,,,,,,,,,,,,,,,,,
,,,,,,,6346d43493a4f14e735bc630,2023-08-16_09h12.01.823,HF_wild_card,2022.2.4,Win32,60.40106306,6346d43493a4f14e735bc630,64d2fd46c836a06233681665,64dc84701cd8412efe8a3d65,,,,,,,ctch,resources/DG.BMP,resources/DBN.BMP,Door4,-0.430729167,-0.010185178,1,0,0,1.3129,optionLeft,60,10690,5,16,0,16,0,1,,,,,,,,,,,,,,,,,,,,,,,,,,,,,,,,,,,,,,,
,,,,,,,6346d43493a4f14e735bc630,2023-08-16_09h12.01.823,HF_wild_card,2022.2.4,Win32,60.40106306,6346d43493a4f14e735bc630,64d2fd46c836a06233681665,64dc84701cd8412efe8a3d65,,,,,,,decisionTrl,resources/DG.BMP,resources/DY.BMP,Door3,0.374826431,0.040740712,1,0,0,1.2641,optionRight,70,10760,5,17,0,17,0,1,,,,,,,,,,,,,,,,,,,,,,,,,,,,,,,,,,,,,,,
,,,,,,,6346d43493a4f14e735bc630,2023-08-16_09h12.01.823,HF_wild_card,2022.2.4,Win32,60.40106306,6346d43493a4f14e735bc630,64d2fd46c836a06233681665,64dc84701cd8412efe8a3d65,,,,,,,decisionTrl,resources/DG.BMP,resources/DY.BMP,Door4,-0.458506934,0.00370369,1,0,0,0.6474,optionLeft,80,10840,5,18,0,18,0,1,,,,,,,,,,,,,,,,,,,,,,,,,,,,,,,,,,,,,,,
,,,,,,,6346d43493a4f14e735bc630,2023-08-16_09h12.01.823,HF_wild_card,2022.2.4,Win32,60.40106306,6346d43493a4f14e735bc630,64d2fd46c836a06233681665,64dc84701cd8412efe8a3d65,,,,,,,sngl,resources/Empty.png,resources/DG.BMP,Door4,0.341493098,0.035185146,1,0,0,0.6404,optionRight,60,10900,5,19,0,19,0,1,,,,,,,,,,,,,,,,,,,,,,,,,,,,,,,,,,,,,,,
,,,,,,,6346d43493a4f14e735bc630,2023-08-16_09h12.01.823,HF_wild_card,2022.2.4,Win32,60.40106306,6346d43493a4f14e735bc630,64d2fd46c836a06233681665,64dc84701cd8412efe8a3d65,,,,,,,ctch,resources/DR.BMP,resources/DY.BMP,Door3,0.388715235,0.016666667,1,0,0,1.3134,optionRight,70,10970,5,20,0,20,0,1,,,,,,,,,,,,,,,,,,,,,,,,,,,,,,,,,,,,,,,
,,,,,,,6346d43493a4f14e735bc630,2023-08-16_09h12.01.823,HF_wild_card,2022.2.4,Win32,60.40106306,6346d43493a4f14e735bc630,64d2fd46c836a06233681665,64dc84701cd8412efe8a3d65,,,,,,,decisionTrl,resources/DG.BMP,resources/DB.BMP,Door4,-0.519618066,-0.014814822,1,0,0,0.7634,optionLeft,80,11050,5,21,0,21,0,1,,,,,,,,,,,,,,,,,,,,,,,,,,,,,,,,,,,,,,,
,,,,,,,6346d43493a4f14e735bc630,2023-08-16_09h12.01.823,HF_wild_card,2022.2.4,Win32,60.40106306,6346d43493a4f14e735bc630,64d2fd46c836a06233681665,64dc84701cd8412efe8a3d65,,,,,,,sngl,resources/DBN.BMP,resources/Empty.png,Door1,-0.476099523,-0.033333333,1,0,0,0.6965,optionLeft,30,11080,5,22,0,22,0,1,,,,,,,,,,,,,,,,,,,,,,,,,,,,,,,,,,,,,,,
,,,,,,,6346d43493a4f14e735bc630,2023-08-16_09h12.01.823,HF_wild_card,2022.2.4,Win32,60.40106306,6346d43493a4f14e735bc630,64d2fd46c836a06233681665,64dc84701cd8412efe8a3d65,,,,,,,decisionTrl,resources/DY.BMP,resources/DG.BMP,Door4,0.334085719,0.030555566,1,0,0,1.0128,optionRight,60,11140,5,23,0,23,0,1,,,,,,,,,,,,,,,,,,,,,,,,,,,,,,,,,,,,,,,
,,,,,,,6346d43493a4f14e735bc630,2023-08-16_09h12.01.823,HF_wild_card,2022.2.4,Win32,60.40106306,6346d43493a4f14e735bc630,64d2fd46c836a06233681665,64dc84701cd8412efe8a3d65,,,,,,,sngl,resources/DG.BMP,resources/Empty.png,Door4,-0.533506934,-0.023148155,1,0,0,0.5745,optionLeft,80,11220,5,24,0,24,0,1,,,,,,,,,,,,,,,,,,,,,,,,,,,,,,,,,,,,,,,
,,,,,,,6346d43493a4f14e735bc630,2023-08-16_09h12.01.823,HF_wild_card,2022.2.4,Win32,60.40106306,6346d43493a4f14e735bc630,64d2fd46c836a06233681665,64dc84701cd8412efe8a3d65,,,,,,,ctch,resources/DR.BMP,resources/DY.BMP,Door3,0.326678212,-0.008333333,1,0,0,1.1791,optionRight,70,11290,5,25,0,25,0,1,,,,,,,,,,,,,,,,,,,,,,,,,,,,,,,,,,,,,,,
,,,,,,,6346d43493a4f14e735bc630,2023-08-16_09h12.01.823,HF_wild_card,2022.2.4,Win32,60.40106306,6346d43493a4f14e735bc630,64d2fd46c836a06233681665,64dc84701cd8412efe8a3d65,,,,,,,sngl,resources/Empty.png,resources/DR.BMP,Door2,0.341493098,-0.007407411,1,0,0,0.7109,optionRight,20,11310,5,26,0,26,0,1,,,,,,,,,,,,,,,,,,,,,,,,,,,,,,,,,,,,,,,
,,,,,,,6346d43493a4f14e735bc630,2023-08-16_09h12.01.823,HF_wild_card,2022.2.4,Win32,60.40106306,6346d43493a4f14e735bc630,64d2fd46c836a06233681665,64dc84701cd8412efe8a3d65,,,,,,,sngl,resources/Empty.png,resources/DB.BMP,WildCard_Ex,0.329456075,0.036111101,1,0,0,0.6463,optionRight,45,11355,5,27,0,27,0,1,,,,,,,,,,,,,,,,,,,,,,,,,,,,,,,,,,,,,,,
,,,,,,,6346d43493a4f14e735bc630,2023-08-16_09h12.01.823,HF_wild_card,2022.2.4,Win32,60.40106306,6346d43493a4f14e735bc630,64d2fd46c836a06233681665,64dc84701cd8412efe8a3d65,,,,,,,decisionTrl,resources/DB.BMP,resources/DG.BMP,Door4,0.354456075,0.021296279,1,0,0,0.7916,optionRight,60,11415,5,28,0,28,0,1,,,,,,,,,,,,,,,,,,,,,,,,,,,,,,,,,,,,,,,
,,,,,,,6346d43493a4f14e735bc630,2023-08-16_09h12.01.823,HF_wild_card,2022.2.4,Win32,60.40106306,6346d43493a4f14e735bc630,64d2fd46c836a06233681665,64dc84701cd8412efe8a3d65,,,,,,,decisionTrl,resources/DR.BMP,resources/DBN.BMP,Door2,-0.461284733,0.004629612,1,0,0,2.7958,optionLeft,20,11435,5,29,0,29,0,1,,,,,,,,,,,,,,,,,,,,,,,,,,,,,,,,,,,,,,,
,,,,,,,6346d43493a4f14e735bc630,2023-08-16_09h12.01.823,HF_wild_card,2022.2.4,Win32,60.40106306,6346d43493a4f14e735bc630,64d2fd46c836a06233681665,64dc84701cd8412efe8a3d65,,,,,,,ctch,resources/DBN.BMP,resources/DG.BMP,Door4,0.360011546,0.027777767,1,0,0,0.8124,optionRight,80,11515,5,30,0,30,0,1,,,,,,,,,,,,,,,,,,,,,,,,,,,,,,,,,,,,,,,
,,,,,,,6346d43493a4f14e735bc630,2023-08-16_09h12.01.823,HF_wild_card,2022.2.4,Win32,60.40106306,6346d43493a4f14e735bc630,64d2fd46c836a06233681665,64dc84701cd8412efe8a3d65,,,,,,,sngl,resources/Empty.png,resources/DB.BMP,WildCard_Ex,0.3859375,0.039814822,1,0,0,4.3951,optionRight,55,11570,5,31,0,31,0,1,,,,,,,,,,,,,,,,,,,,,,,,,,,,,,,,,,,,,,,
,,,,,,,6346d43493a4f14e735bc630,2023-08-16_09h12.01.823,HF_wild_card,2022.2.4,Win32,60.40106306,6346d43493a4f14e735bc630,64d2fd46c836a06233681665,64dc84701cd8412efe8a3d65,,,,,,,decisionTrl,resources/DY.BMP,resources/DG.BMP,Door3,-0.509432856,0.00370369,1,0,0,1.2794,optionLeft,70,11640,5,32,0,32,0,1,,,,,,,,,,,,,,,,,,,,,,,,,,,,,,,,,,,,,,,
,,,,,,,6346d43493a4f14e735bc630,2023-08-16_09h12.01.823,HF_wild_card,2022.2.4,Win32,60.40106306,6346d43493a4f14e735bc630,64d2fd46c836a06233681665,64dc84701cd8412efe8a3d65,,,,,,,sngl,resources/DR.BMP,resources/Empty.png,Door2,-0.5140625,-0.005555566,1,0,0,0.6133,optionLeft,40,11680,5,33,0,33,0,1,,,,,,,,,,,,,,,,,,,,,,,,,,,,,,,,,,,,,,,
,,,,,,,6346d43493a4f14e735bc630,2023-08-16_09h12.01.823,HF_wild_card,2022.2.4,Win32,60.40106306,6346d43493a4f14e735bc630,64d2fd46c836a06233681665,64dc84701cd8412efe8a3d65,,,,,,,decisionTrl,resources/DR.BMP,resources/DBN.BMP,Door1,0.417419052,0.064814822,1,0,0,4.1405,optionRight,30,11710,5,34,0,34,0,1,,,,,,,,,,,,,,,,,,,,,,,,,,,,,,,,,,,,,,,
,,,,,,,6346d43493a4f14e735bc630,2023-08-16_09h12.01.823,HF_wild_card,2022.2.4,Win32,60.40106306,6346d43493a4f14e735bc630,64d2fd46c836a06233681665,64dc84701cd8412efe8a3d65,,,,,,,sngl,resources/Empty.png,resources/DY.BMP,Door3,0.375752385,0.038888899,1,0,0,0.6244,optionRight,70,11780,5,35,0,35,0,1,,,,,,,,,,,,,,,,,,,,,,,,,,,,,,,,,,,,,,,
,,,,,,,6346d43493a4f14e735bc630,2023-08-16_09h12.01.823,HF_wild_card,2022.2.4,Win32,60.40106306,6346d43493a4f14e735bc630,64d2fd46c836a06233681665,64dc84701cd8412efe8a3d65,,,,,,,decisionTrl,resources/DB.BMP,resources/DY.BMP,Door3,0.379456075,0.025925922,1,0,0,0.8954,optionRight,70,11850,5,36,0,36,0,1,,,,,,,,,,,,,,,,,,,,,,,,,,,,,,,,,,,,,,,
,,,,,,,6346d43493a4f14e735bc630,2023-08-16_09h12.01.823,HF_wild_card,2022.2.4,Win32,60.40106306,6346d43493a4f14e735bc630,64d2fd46c836a06233681665,64dc84701cd8412efe8a3d65,,,,,,,decisionTrl,resources/DR.BMP,resources/DBN.BMP,Door1,0.434085719,0.025925922,1,0,0,4.4621,optionRight,30,11880,5,37,0,37,0,1,,,,,,,,,,,,,,,,,,,,,,,,,,,,,,,,,,,,,,,
,,,,,,,6346d43493a4f14e735bc630,2023-08-16_09h12.01.823,HF_wild_card,2022.2.4,Win32,60.40106306,6346d43493a4f14e735bc630,64d2fd46c836a06233681665,64dc84701cd8412efe8a3d65,,,,,,,decisionTrl,resources/DB.BMP,resources/DR.BMP,WildCard_Ex,-0.459432856,0.005555566,1,0,0,1.779,optionLeft,55,11935,5,38,0,38,0,1,,,,,,,,,,,,,,,,,,,,,,,,,,,,,,,,,,,,,,,
,,,,,,,6346d43493a4f14e735bc630,2023-08-16_09h12.01.823,HF_wild_card,2022.2.4,Win32,60.40106306,6346d43493a4f14e735bc630,64d2fd46c836a06233681665,64dc84701cd8412efe8a3d65,,,,,,,decisionTrl,resources/DBN.BMP,resources/DR.BMP,Door1,-0.485358779,0.010185178,1,0,0,2.0298,optionLeft,30,11965,5,39,0,39,0,1,,,,,,,,,,,,,,,,,,,,,,,,,,,,,,,,,,,,,,,
,,,,,,,6346d43493a4f14e735bc630,2023-08-16_09h12.01.823,HF_wild_card,2022.2.4,Win32,60.40106306,6346d43493a4f14e735bc630,64d2fd46c836a06233681665,64dc84701cd8412efe8a3d65,,,,,,,ctch,resources/DBN.BMP,resources/DG.BMP,Door4,0.322974523,0.041666667,1,0,0,0.764,optionRight,80,12045,5,40,0,40,0,1,,,,,,,,,,,,,,,,,,,,,,,,,,,,,,,,,,,,,,,
,,,,,,,6346d43493a4f14e735bc630,2023-08-16_09h12.01.823,HF_wild_card,2022.2.4,Win32,60.40106306,6346d43493a4f14e735bc630,64d2fd46c836a06233681665,64dc84701cd8412efe8a3d65,,,,,,,decisionTrl,resources/DB.BMP,resources/DBN.BMP,WildCard_Ex,-0.481655089,-0.02129631,1,0,0,1.3797,optionLeft,45,12090,5,41,0,41,0,1,,,,,,,,,,,,,,,,,,,,,,,,,,,,,,,,,,,,,,,
,,,,,,,6346d43493a4f14e735bc630,2023-08-16_09h12.01.823,HF_wild_card,2022.2.4,Win32,60.40106306,6346d43493a4f14e735bc630,64d2fd46c836a06233681665,64dc84701cd8412efe8a3d65,,,,,,,sngl,resources/Empty.png,resources/DBN.BMP,Door1,0.334085719,0.055555566,1,0,0,0.6127,optionRight,30,12120,5,42,0,42,0,1,,,,,,,,,,,,,,,,,,,,,,,,,,,,,,,,,,,,,,,
,,,,,,,6346d43493a4f14e735bc630,2023-08-16_09h12.01.823,HF_wild_card,2022.2.4,Win32,60.40106306,6346d43493a4f14e735bc630,64d2fd46c836a06233681665,64dc84701cd8412efe8a3d65,,,,,,,decisionTrl,resources/DR.BMP,resources/DB.BMP,WildCard_Ex,0.379456075,0.006481489,1,0,0,3.5855,optionRight,55,12175,5,43,0,43,0,1,,,,,,,,,,,,,,,,,,,,,,,,,,,,,,,,,,,,,,,
,,,,,,,6346d43493a4f14e735bc630,2023-08-16_09h12.01.823,HF_wild_card,2022.2.4,Win32,60.40106306,6346d43493a4f14e735bc630,64d2fd46c836a06233681665,64dc84701cd8412efe8a3d65,,,,,,,,,,,,,,,,,,,,,,,,,,4,0,4,0,1,,,,,,,,,,,,,,,,,,,,,,,,,,,,,,,,,,
,,,,,,,6346d43493a4f14e735bc630,2023-08-16_09h12.01.823,HF_wild_card,2022.2.4,Win32,60.40106306,6346d43493a4f14e735bc630,64d2fd46c836a06233681665,64dc84701cd8412efe8a3d65,,,,,,,decisionTrl,resources/DG.BMP,resources/DY.BMP,Door3,0.383159765,0,1,0,0,0.9946,optionRight,70,12245,6,0,0,0,0,1,,,,,,,,,,,,,,,,,,,,,,,,,,,,,,,,,,,,,,,
,,,,,,,6346d43493a4f14e735bc630,2023-08-16_09h12.01.823,HF_wild_card,2022.2.4,Win32,60.40106306,6346d43493a4f14e735bc630,64d2fd46c836a06233681665,64dc84701cd8412efe8a3d65,,,,,,,sngl,resources/DG.BMP,resources/Empty.png,Door4,-0.448321756,0.012037023,1,0,0,0.5907,optionLeft,60,12305,6,1,0,1,0,1,,,,,,,,,,,,,,,,,,,,,,,,,,,,,,,,,,,,,,,
,,,,,,,6346d43493a4f14e735bc630,2023-08-16_09h12.01.823,HF_wild_card,2022.2.4,Win32,60.40106306,6346d43493a4f14e735bc630,64d2fd46c836a06233681665,64dc84701cd8412efe8a3d65,,,,,,,ctch,resources/DBN.BMP,resources/DG.BMP,Door4,0.340567144,0.042592589,1,0,0,0.6528,optionRight,60,12365,6,2,0,2,0,1,,,,,,,,,,,,,,,,,,,,,,,,,,,,,,,,,,,,,,,
,,,,,,,6346d43493a4f14e735bc630,2023-08-16_09h12.01.823,HF_wild_card,2022.2.4,Win32,60.40106306,6346d43493a4f14e735bc630,64d2fd46c836a06233681665,64dc84701cd8412efe8a3d65,,,,,,,decisionTrl,resources/DB.BMP,resources/DBN.BMP,WildCard_Ex,-0.469618066,0.029629612,1,0,0,0.8407,optionLeft,55,12420,6,3,0,3,0,1,,,,,,,,,,,,,,,,,,,,,,,,,,,,,,,,,,,,,,,
,,,,,,,6346d43493a4f14e735bc630,2023-08-16_09h12.01.823,HF_wild_card,2022.2.4,Win32,60.40106306,6346d43493a4f14e735bc630,64d2fd46c836a06233681665,64dc84701cd8412efe8a3d65,,,,,,,decisionTrl,resources/DY.BMP,resources/DG.BMP,Door3,-0.480729167,0.031481489,1,0,0,0.735,optionLeft,70,12490,6,4,0,4,0,1,,,,,,,,,,,,,,,,,,,,,,,,,,,,,,,,,,,,,,,
,,,,,,,6346d43493a4f14e735bc630,2023-08-16_09h12.01.823,HF_wild_card,2022.2.4,Win32,60.40106306,6346d43493a4f14e735bc630,64d2fd46c836a06233681665,64dc84701cd8412efe8a3d65,,,,,,,decisionTrl,resources/DY.BMP,resources/DG.BMP,Door4,0.350752385,0.060185146,1,0,0,0.5638,optionRight,60,12550,6,5,0,5,0,1,,,,,,,,,,,,,,,,,,,,,,,,,,,,,,,,,,,,,,,
,,,,,,,6346d43493a4f14e735bc630,2023-08-16_09h12.01.823,HF_wild_card,2022.2.4,Win32,60.40106306,6346d43493a4f14e735bc630,64d2fd46c836a06233681665,64dc84701cd8412efe8a3d65,,,,,,,sngl,resources/DB.BMP,resources/Empty.png,WildCard_Ex,-0.472395833,0.010185178,1,0,0,0.6132,optionLeft,55,12605,6,6,0,6,0,1,,,,,,,,,,,,,,,,,,,,,,,,,,,,,,,,,,,,,,,
,,,,,,,6346d43493a4f14e735bc630,2023-08-16_09h12.01.823,HF_wild_card,2022.2.4,Win32,60.40106306,6346d43493a4f14e735bc630,64d2fd46c836a06233681665,64dc84701cd8412efe8a3d65,,,,,,,decisionTrl,resources/DR.BMP,resources/DBN.BMP,Door1,0.401678212,0.069444434,1,0,0,1.3126,optionRight,30,12635,6,7,0,7,0,1,,,,,,,,,,,,,,,,,,,,,,,,,,,,,,,,,,,,,,,
,,,,,,,6346d43493a4f14e735bc630,2023-08-16_09h12.01.823,HF_wild_card,2022.2.4,Win32,60.40106306,6346d43493a4f14e735bc630,64d2fd46c836a06233681665,64dc84701cd8412efe8a3d65,,,,,,,sngl,resources/Empty.png,resources/DR.BMP,Door2,0.311863454,0.001851845,1,0,0,0.6365,optionRight,40,12675,6,8,0,8,0,1,,,,,,,,,,,,,,,,,,,,,,,,,,,,,,,,,,,,,,,
,,,,,,,6346d43493a4f14e735bc630,2023-08-16_09h12.01.823,HF_wild_card,2022.2.4,Win32,60.40106306,6346d43493a4f14e735bc630,64d2fd46c836a06233681665,64dc84701cd8412efe8a3d65,,,,,,,sngl,resources/Empty.png,resources/DBN.BMP,Door1,0.275752385,0.023148155,1,0,0,0.6304,optionRight,30,12705,6,9,0,9,0,1,,,,,,,,,,,,,,,,,,,,,,,,,,,,,,,,,,,,,,,
,,,,,,,6346d43493a4f14e735bc630,2023-08-16_09h12.01.823,HF_wild_card,2022.2.4,Win32,60.40106306,6346d43493a4f14e735bc630,64d2fd46c836a06233681665,64dc84701cd8412efe8a3d65,,,,,,,sngl,resources/Empty.png,resources/DB.BMP,WildCard_Ex,0.333159765,0.012962945,1,0,0,0.5801,optionRight,55,12760,6,10,0,10,0,1,,,,,,,,,,,,,,,,,,,,,,,,,,,,,,,,,,,,,,,
,,,,,,,6346d43493a4f14e735bc630,2023-08-16_09h12.01.823,HF_wild_card,2022.2.4,Win32,60.40106306,6346d43493a4f14e735bc630,64d2fd46c836a06233681665,64dc84701cd8412efe8a3d65,,,,,,,ctch,resources/DG.BMP,resources/DBN.BMP,Door4,-0.405729167,0.006481489,1,0,0,0.6966,optionLeft,80,12840,6,11,0,11,0,1,,,,,,,,,,,,,,,,,,,,,,,,,,,,,,,,,,,,,,,
,,,,,,,6346d43493a4f14e735bc630,2023-08-16_09h12.01.823,HF_wild_card,2022.2.4,Win32,60.40106306,6346d43493a4f14e735bc630,64d2fd46c836a06233681665,64dc84701cd8412efe8a3d65,,,,,,,decisionTrl,resources/DR.BMP,resources/DBN.BMP,Door1,0.391493098,0.037037023,1,0,0,1.1477,optionRight,30,12870,6,12,0,12,0,1,,,,,,,,,,,,,,,,,,,,,,,,,,,,,,,,,,,,,,,
,,,,,,,6346d43493a4f14e735bc630,2023-08-16_09h12.01.823,HF_wild_card,2022.2.4,Win32,60.40106306,6346d43493a4f14e735bc630,64d2fd46c836a06233681665,64dc84701cd8412efe8a3d65,,,,,,,decisionTrl,resources/DBN.BMP,resources/DR.BMP,Door1,-0.357581011,-0.018518511,1,0,0,1.163,optionLeft,30,12900,6,13,0,13,0,1,,,,,,,,,,,,,,,,,,,,,,,,,,,,,,,,,,,,,,,
,,,,,,,6346d43493a4f14e735bc630,2023-08-16_09h12.01.823,HF_wild_card,2022.2.4,Win32,60.40106306,6346d43493a4f14e735bc630,64d2fd46c836a06233681665,64dc84701cd8412efe8a3d65,,,,,,,ctch,resources/DY.BMP,resources/DR.BMP,Door3,-0.380729167,-0.004629644,1,0,0,1.0967,optionLeft,70,12970,6,14,0,14,0,1,,,,,,,,,,,,,,,,,,,,,,,,,,,,,,,,,,,,,,,
,,,,,,,6346d43493a4f14e735bc630,2023-08-16_09h12.01.823,HF_wild_card,2022.2.4,Win32,60.40106306,6346d43493a4f14e735bc630,64d2fd46c836a06233681665,64dc84701cd8412efe8a3d65,,,,,,,ctch,resources/DR.BMP,resources/DY.BMP,Door3,0.256307856,-0.117592621,1,0,0,1.1528,optionRight,70,13040,6,15,0,15,0,1,,,,,,,,,,,,,,,,,,,,,,,,,,,,,,,,,,,,,,,
,,,,,,,6346d43493a4f14e735bc630,2023-08-16_09h12.01.823,HF_wild_card,2022.2.4,Win32,60.40106306,6346d43493a4f14e735bc630,64d2fd46c836a06233681665,64dc84701cd8412efe8a3d65,,,,,,,sngl,resources/Empty.png,resources/DB.BMP,WildCard_Ex,0.258159765,-0.138888868,1,0,0,0.9996,optionRight,45,13085,6,16,0,16,0,1,,,,,,,,,,,,,,,,,,,,,,,,,,,,,,,,,,,,,,,
,,,,,,,6346d43493a4f14e735bc630,2023-08-16_09h12.01.823,HF_wild_card,2022.2.4,Win32,60.40106306,6346d43493a4f14e735bc630,64d2fd46c836a06233681665,64dc84701cd8412efe8a3d65,,,,,,,decisionTrl,resources/DG.BMP,resources/DB.BMP,Door4,-0.333506966,-0.013888899,1,0,0,1.3127,optionLeft,80,13165,6,17,0,17,0,1,,,,,,,,,,,,,,,,,,,,,,,,,,,,,,,,,,,,,,,
,,,,,,,6346d43493a4f14e735bc630,2023-08-16_09h12.01.823,HF_wild_card,2022.2.4,Win32,60.40106306,6346d43493a4f14e735bc630,64d2fd46c836a06233681665,64dc84701cd8412efe8a3d65,,,,,,,decisionTrl,resources/DY.BMP,resources/DG.BMP,Door3,-0.366840267,-0.028703721,1,0,0,1.8141,optionLeft,70,13235,6,18,0,18,0,1,,,,,,,,,,,,,,,,,,,,,,,,,,,,,,,,,,,,,,,
,,,,,,,6346d43493a4f14e735bc630,2023-08-16_09h12.01.823,HF_wild_card,2022.2.4,Win32,60.40106306,6346d43493a4f14e735bc630,64d2fd46c836a06233681665,64dc84701cd8412efe8a3d65,,,,,,,decisionTrl,resources/DBN.BMP,resources/DR.BMP,Door1,-0.496469879,-0.022222233,1,0,0,1.199,optionLeft,30,13265,6,19,0,19,0,1,,,,,,,,,,,,,,,,,,,,,,,,,,,,,,,,,,,,,,,
,,,,,,,6346d43493a4f14e735bc630,2023-08-16_09h12.01.823,HF_wild_card,2022.2.4,Win32,60.40106306,6346d43493a4f14e735bc630,64d2fd46c836a06233681665,64dc84701cd8412efe8a3d65,,,,,,,decisionTrl,resources/DBN.BMP,resources/DR.BMP,Door1,-0.429803212,-0.048148155,1,0,0,1.6794,optionLeft,30,13295,6,20,0,20,0,1,,,,,,,,,,,,,,,,,,,,,,,,,,,,,,,,,,,,,,,
,,,,,,,6346d43493a4f14e735bc630,2023-08-16_09h12.01.823,HF_wild_card,2022.2.4,Win32,60.40106306,6346d43493a4f14e735bc630,64d2fd46c836a06233681665,64dc84701cd8412efe8a3d65,,,,,,,decisionTrl,resources/DG.BMP,resources/DY.BMP,Door4,-0.411284733,-0.040740776,1,0,0,1.5576,optionLeft,60,13355,6,21,0,21,0,1,,,,,,,,,,,,,,,,,,,,,,,,,,,,,,,,,,,,,,,
,,,,,,,6346d43493a4f14e735bc630,2023-08-16_09h12.01.823,HF_wild_card,2022.2.4,Win32,60.40106306,6346d43493a4f14e735bc630,64d2fd46c836a06233681665,64dc84701cd8412efe8a3d65,,,,,,,sngl,resources/Empty.png,resources/DY.BMP,Door3,0.433159765,0.030555566,1,0,0,1.3236,optionRight,70,13425,6,22,0,22,0,1,,,,,,,,,,,,,,,,,,,,,,,,,,,,,,,,,,,,,,,
,,,,,,,6346d43493a4f14e735bc630,2023-08-16_09h12.01.823,HF_wild_card,2022.2.4,Win32,60.40106306,6346d43493a4f14e735bc630,64d2fd46c836a06233681665,64dc84701cd8412efe8a3d65,,,,,,,decisionTrl,resources/DG.BMP,resources/DY.BMP,Door3,0.386863454,0.004629612,1,0,0,1.2628,optionRight,70,13495,6,23,0,23,0,1,,,,,,,,,,,,,,,,,,,,,,,,,,,,,,,,,,,,,,,
,,,,,,,6346d43493a4f14e735bc630,2023-08-16_09h12.01.823,HF_wild_card,2022.2.4,Win32,60.40106306,6346d43493a4f14e735bc630,64d2fd46c836a06233681665,64dc84701cd8412efe8a3d65,,,,,,,ctch,resources/DR.BMP,resources/DY.BMP,Door3,0.423900477,-0.023148155,1,0,0,1.228,optionRight,70,13565,6,24,0,24,0,1,,,,,,,,,,,,,,,,,,,,,,,,,,,,,,,,,,,,,,,
,,,,,,,6346d43493a4f14e735bc630,2023-08-16_09h12.01.823,HF_wild_card,2022.2.4,Win32,60.40106306,6346d43493a4f14e735bc630,64d2fd46c836a06233681665,64dc84701cd8412efe8a3d65,,,,,,,ctch,resources/DBN.BMP,resources/DG.BMP,Door4,0.438715235,0.037962945,1,0,0,1.341,optionRight,80,13645,6,25,0,25,0,1,,,,,,,,,,,,,,,,,,,,,,,,,,,,,,,,,,,,,,,
,,,,,,,6346d43493a4f14e735bc630,2023-08-16_09h12.01.823,HF_wild_card,2022.2.4,Win32,60.40106306,6346d43493a4f14e735bc630,64d2fd46c836a06233681665,64dc84701cd8412efe8a3d65,,,,,,,decisionTrl,resources/DB.BMP,resources/DG.BMP,Door4,0.411863454,0.065740712,1,0,0,0.8664,optionRight,80,13725,6,26,0,26,0,1,,,,,,,,,,,,,,,,,,,,,,,,,,,,,,,,,,,,,,,
,,,,,,,6346d43493a4f14e735bc630,2023-08-16_09h12.01.823,HF_wild_card,2022.2.4,Win32,60.40106306,6346d43493a4f14e735bc630,64d2fd46c836a06233681665,64dc84701cd8412efe8a3d65,,,,,,,sngl,resources/Empty.png,resources/DG.BMP,Door4,0.363715235,-0.019444434,1,0,0,0.7359,optionRight,80,13805,6,27,0,27,0,1,,,,,,,,,,,,,,,,,,,,,,,,,,,,,,,,,,,,,,,
,,,,,,,6346d43493a4f14e735bc630,2023-08-16_09h12.01.823,HF_wild_card,2022.2.4,Win32,60.40106306,6346d43493a4f14e735bc630,64d2fd46c836a06233681665,64dc84701cd8412efe8a3d65,,,,,,,decisionTrl,resources/DG.BMP,resources/DY.BMP,Door3,0.377604167,-0.030555566,1,0,0,0.6795,optionRight,70,13875,6,28,0,28,0,1,,,,,,,,,,,,,,,,,,,,,,,,,,,,,,,,,,,,,,,
,,,,,,,6346d43493a4f14e735bc630,2023-08-16_09h12.01.823,HF_wild_card,2022.2.4,Win32,60.40106306,6346d43493a4f14e735bc630,64d2fd46c836a06233681665,64dc84701cd8412efe8a3d65,,,,,,,sngl,resources/DR.BMP,resources/Empty.png,Door2,-0.21035881,-0.075,1,0,0,2.5289,optionLeft,20,13895,6,29,0,29,0,1,,,,,,,,,,,,,,,,,,,,,,,,,,,,,,,,,,,,,,,
,,,,,,,6346d43493a4f14e735bc630,2023-08-16_09h12.01.823,HF_wild_card,2022.2.4,Win32,60.40106306,6346d43493a4f14e735bc630,64d2fd46c836a06233681665,64dc84701cd8412efe8a3d65,,,,,,,decisionTrl,resources/DB.BMP,resources/DR.BMP,Door2,0.346122742,0.048148155,1,0,0,0.7798,optionRight,20,13915,6,30,0,30,0,1,,,,,,,,,,,,,,,,,,,,,,,,,,,,,,,,,,,,,,,
,,,,,,,6346d43493a4f14e735bc630,2023-08-16_09h12.01.823,HF_wild_card,2022.2.4,Win32,60.40106306,6346d43493a4f14e735bc630,64d2fd46c836a06233681665,64dc84701cd8412efe8a3d65,,,,,,,decisionTrl,resources/DB.BMP,resources/DY.BMP,Door3,0.376678212,-0.002777767,1,0,0,1.0295,optionRight,70,13985,6,31,0,31,0,1,,,,,,,,,,,,,,,,,,,,,,,,,,,,,,,,,,,,,,,
,,,,,,,6346d43493a4f14e735bc630,2023-08-16_09h12.01.823,HF_wild_card,2022.2.4,Win32,60.40106306,6346d43493a4f14e735bc630,64d2fd46c836a06233681665,64dc84701cd8412efe8a3d65,,,,,,,sngl,resources/DY.BMP,resources/Empty.png,Door3,-0.477951399,0.026851813,1,0,0,0.9631,optionLeft,70,14055,6,32,0,32,0,1,,,,,,,,,,,,,,,,,,,,,,,,,,,,,,,,,,,,,,,
,,,,,,,6346d43493a4f14e735bc630,2023-08-16_09h12.01.823,HF_wild_card,2022.2.4,Win32,60.40106306,6346d43493a4f14e735bc630,64d2fd46c836a06233681665,64dc84701cd8412efe8a3d65,,,,,,,decisionTrl,resources/DY.BMP,resources/DB.BMP,Door3,-0.216840299,-0.076851845,1,0,0,1.08,optionLeft,70,14125,6,33,0,33,0,1,,,,,,,,,,,,,,,,,,,,,,,,,,,,,,,,,,,,,,,
,,,,,,,6346d43493a4f14e735bc630,2023-08-16_09h12.01.823,HF_wild_card,2022.2.4,Win32,60.40106306,6346d43493a4f14e735bc630,64d2fd46c836a06233681665,64dc84701cd8412efe8a3d65,,,,,,,decisionTrl,resources/DR.BMP,resources/DBN.BMP,Door1,0.434085719,0.077777767,1,0,0,3.2788,optionRight,30,14155,6,34,0,34,0,1,,,,,,,,,,,,,,,,,,,,,,,,,,,,,,,,,,,,,,,
,,,,,,,6346d43493a4f14e735bc630,2023-08-16_09h12.01.823,HF_wild_card,2022.2.4,Win32,60.40106306,6346d43493a4f14e735bc630,64d2fd46c836a06233681665,64dc84701cd8412efe8a3d65,,,,,,,decisionTrl,resources/DR.BMP,resources/DBN.BMP,Door1,0.430381902,0.031481489,1,0,0,3.2802,optionRight,30,14185,6,35,0,35,0,1,,,,,,,,,,,,,,,,,,,,,,,,,,,,,,,,,,,,,,,
,,,,,,,6346d43493a4f14e735bc630,2023-08-16_09h12.01.823,HF_wild_card,2022.2.4,Win32,60.40106306,6346d43493a4f14e735bc630,64d2fd46c836a06233681665,64dc84701cd8412efe8a3d65,,,,,,,ctch,resources/DG.BMP,resources/DBN.BMP,Door4,-0.231655057,-0.168518511,1,0,0,1.6911,optionLeft,60,14245,6,36,0,36,0,1,,,,,,,,,,,,,,,,,,,,,,,,,,,,,,,,,,,,,,,
,,,,,,,6346d43493a4f14e735bc630,2023-08-16_09h12.01.823,HF_wild_card,2022.2.4,Win32,60.40106306,6346d43493a4f14e735bc630,64d2fd46c836a06233681665,64dc84701cd8412efe8a3d65,,,,,,,decisionTrl,resources/DBN.BMP,resources/DB.BMP,WildCard_Ex,0.372048569,-0.048148155,1,0,0,1.8622,optionRight,45,14290,6,37,0,37,0,1,,,,,,,,,,,,,,,,,,,,,,,,,,,,,,,,,,,,,,,
,,,,,,,6346d43493a4f14e735bc630,2023-08-16_09h12.01.823,HF_wild_card,2022.2.4,Win32,60.40106306,6346d43493a4f14e735bc630,64d2fd46c836a06233681665,64dc84701cd8412efe8a3d65,,,,,,,sngl,resources/DBN.BMP,resources/Empty.png,Door1,-0.202951368,-0.184259288,1,0,0,1.0465,optionLeft,30,14320,6,38,0,38,0,1,,,,,,,,,,,,,,,,,,,,,,,,,,,,,,,,,,,,,,,
,,,,,,,6346d43493a4f14e735bc630,2023-08-16_09h12.01.823,HF_wild_card,2022.2.4,Win32,60.40106306,6346d43493a4f14e735bc630,64d2fd46c836a06233681665,64dc84701cd8412efe8a3d65,,,,,,,decisionTrl,resources/DBN.BMP,resources/DR.BMP,Door1,-0.219618034,-0.133333333,1,0,0,3.8022,optionLeft,30,14350,6,39,0,39,0,1,,,,,,,,,,,,,,,,,,,,,,,,,,,,,,,,,,,,,,,
,,,,,,,6346d43493a4f14e735bc630,2023-08-16_09h12.01.823,HF_wild_card,2022.2.4,Win32,60.40106306,6346d43493a4f14e735bc630,64d2fd46c836a06233681665,64dc84701cd8412efe8a3d65,,,,,,,ctch,resources/DY.BMP,resources/DR.BMP,Door3,-0.245543989,-0.185185178,1,0,0,1.1625,optionLeft,70,14420,6,40,0,40,0,1,,,,,,,,,,,,,,,,,,,,,,,,,,,,,,,,,,,,,,,
,,,,,,,6346d43493a4f14e735bc630,2023-08-16_09h12.01.823,HF_wild_card,2022.2.4,Win32,60.40106306,6346d43493a4f14e735bc630,64d2fd46c836a06233681665,64dc84701cd8412efe8a3d65,,,,,,,decisionTrl,resources/DR.BMP,resources/DB.BMP,WildCard_Ex,0.318344879,-0.012962977,1,0,0,1.5473,optionRight,45,14465,6,41,0,41,0,1,,,,,,,,,,,,,,,,,,,,,,,,,,,,,,,,,,,,,,,
,,,,,,,6346d43493a4f14e735bc630,2023-08-16_09h12.01.823,HF_wild_card,2022.2.4,Win32,60.40106306,6346d43493a4f14e735bc630,64d2fd46c836a06233681665,64dc84701cd8412efe8a3d65,,,,,,,sngl,resources/DB.BMP,resources/Empty.png,WildCard_Ex,-0.225173632,-0.112962977,1,0,0,0.7578,optionLeft,45,14510,6,42,0,42,0,1,,,,,,,,,,,,,,,,,,,,,,,,,,,,,,,,,,,,,,,
,,,,,,,6346d43493a4f14e735bc630,2023-08-16_09h12.01.823,HF_wild_card,2022.2.4,Win32,60.40106306,6346d43493a4f14e735bc630,64d2fd46c836a06233681665,64dc84701cd8412efe8a3d65,,,,,,,decisionTrl,resources/DY.BMP,resources/DG.BMP,Door3,-0.219618034,-0.105555534,1,0,0,3.6755,optionLeft,70,14580,6,43,0,43,0,1,,,,,,,,,,,,,,,,,,,,,,,,,,,,,,,,,,,,,,,
,,,,,,,6346d43493a4f14e735bc630,2023-08-16_09h12.01.823,HF_wild_card,2022.2.4,Win32,60.40106306,6346d43493a4f14e735bc630,64d2fd46c836a06233681665,64dc84701cd8412efe8a3d65,,,,,,,,,,,,,,,,,,,,,,,,,,5,0,5,0,1,,,,,,,,,,,,,,,,,,,,,,,,,,,,,,,,,,
,,,,,,,6346d43493a4f14e735bc630,2023-08-16_09h12.01.823,HF_wild_card,2022.2.4,Win32,60.40106306,6346d43493a4f14e735bc630,64d2fd46c836a06233681665,64dc84701cd8412efe8a3d65,,,,,,,decisionTrl,resources/DY.BMP,resources/DG.BMP,Door3,-0.225173632,-0.132407443,1,0,0,1.1732,optionLeft,70,14650,7,0,0,0,0,1,,,,,,,,,,,,,,,,,,,,,,,,,,,,,,,,,,,,,,,
,,,,,,,6346d43493a4f14e735bc630,2023-08-16_09h12.01.823,HF_wild_card,2022.2.4,Win32,60.40106306,6346d43493a4f14e735bc630,64d2fd46c836a06233681665,64dc84701cd8412efe8a3d65,,,,,,,decisionTrl,resources/DBN.BMP,resources/DR.BMP,Door1,-0.472395833,0.021296279,1,0,0,1.0641,optionLeft,30,14680,7,1,0,1,0,1,,,,,,,,,,,,,,,,,,,,,,,,,,,,,,,,,,,,,,,
,,,,,,,6346d43493a4f14e735bc630,2023-08-16_09h12.01.823,HF_wild_card,2022.2.4,Win32,60.40106306,6346d43493a4f14e735bc630,64d2fd46c836a06233681665,64dc84701cd8412efe8a3d65,,,,,,,decisionTrl,resources/DBN.BMP,resources/DR.BMP,Door1,-0.477025445,0.061111101,1,0,0,0.7755,optionLeft,30,14710,7,2,0,2,0,1,,,,,,,,,,,,,,,,,,,,,,,,,,,,,,,,,,,,,,,
,,,,,,,6346d43493a4f14e735bc630,2023-08-16_09h12.01.823,HF_wild_card,2022.2.4,Win32,60.40106306,6346d43493a4f14e735bc630,64d2fd46c836a06233681665,64dc84701cd8412efe8a3d65,,,,,,,decisionTrl,resources/DY.BMP,resources/DG.BMP,Door3,-0.483506934,0.041666667,1,0,0,1.1977,optionLeft,70,14780,7,3,0,3,0,1,,,,,,,,,,,,,,,,,,,,,,,,,,,,,,,,,,,,,,,
,,,,,,,6346d43493a4f14e735bc630,2023-08-16_09h12.01.823,HF_wild_card,2022.2.4,Win32,60.40106306,6346d43493a4f14e735bc630,64d2fd46c836a06233681665,64dc84701cd8412efe8a3d65,,,,,,,decisionTrl,resources/DG.BMP,resources/DY.BMP,Door4,-0.485358779,0.037962945,1,0,0,1.1591,optionLeft,80,14860,7,4,0,4,0,1,,,,,,,,,,,,,,,,,,,,,,,,,,,,,,,,,,,,,,,
,,,,,,,6346d43493a4f14e735bc630,2023-08-16_09h12.01.823,HF_wild_card,2022.2.4,Win32,60.40106306,6346d43493a4f14e735bc630,64d2fd46c836a06233681665,64dc84701cd8412efe8a3d65,,,,,,,ctch,resources/DR.BMP,resources/DY.BMP,Door3,0.415567144,-0.001851845,1,0,0,1.1539,optionRight,70,14930,7,5,0,5,0,1,,,,,,,,,,,,,,,,,,,,,,,,,,,,,,,,,,,,,,,
,,,,,,,6346d43493a4f14e735bc630,2023-08-16_09h12.01.823,HF_wild_card,2022.2.4,Win32,60.40106306,6346d43493a4f14e735bc630,64d2fd46c836a06233681665,64dc84701cd8412efe8a3d65,,,,,,,ctch,resources/DBN.BMP,resources/DG.BMP,Door4,0.386863454,0.037962945,1,0,0,1.0165,optionRight,60,14990,7,6,0,6,0,1,,,,,,,,,,,,,,,,,,,,,,,,,,,,,,,,,,,,,,,
,,,,,,,6346d43493a4f14e735bc630,2023-08-16_09h12.01.823,HF_wild_card,2022.2.4,Win32,60.40106306,6346d43493a4f14e735bc630,64d2fd46c836a06233681665,64dc84701cd8412efe8a3d65,,,,,,,decisionTrl,resources/DR.BMP,resources/DBN.BMP,Door1,0.396122742,0.032407379,1,0,0,0.9981,optionRight,30,15020,7,7,0,7,0,1,,,,,,,,,,,,,,,,,,,,,,,,,,,,,,,,,,,,,,,
,,,,,,,6346d43493a4f14e735bc630,2023-08-16_09h12.01.823,HF_wild_card,2022.2.4,Win32,60.40106306,6346d43493a4f14e735bc630,64d2fd46c836a06233681665,64dc84701cd8412efe8a3d65,,,,,,,decisionTrl,resources/DR.BMP,resources/DBN.BMP,Door1,0.358159765,0.072222233,1,0,0,0.8817,optionRight,30,15050,7,8,0,8,0,1,,,,,,,,,,,,,,,,,,,,,,,,,,,,,,,,,,,,,,,
,,,,,,,6346d43493a4f14e735bc630,2023-08-16_09h12.01.823,HF_wild_card,2022.2.4,Win32,60.40106306,6346d43493a4f14e735bc630,64d2fd46c836a06233681665,64dc84701cd8412efe8a3d65,,,,,,,decisionTrl,resources/DG.BMP,resources/DY.BMP,Door4,-0.468692112,0.046296279,1,0,0,1.897,optionLeft,80,15130,7,9,0,9,0,1,,,,,,,,,,,,,,,,,,,,,,,,,,,,,,,,,,,,,,,
,,,,,,,6346d43493a4f14e735bc630,2023-08-16_09h12.01.823,HF_wild_card,2022.2.4,Win32,60.40106306,6346d43493a4f14e735bc630,64d2fd46c836a06233681665,64dc84701cd8412efe8a3d65,,,,,,,decisionTrl,resources/DBN.BMP,resources/DR.BMP,Door1,-0.493692112,0.037962945,1,0,0,1.0644,optionLeft,30,15160,7,10,0,10,0,1,,,,,,,,,,,,,,,,,,,,,,,,,,,,,,,,,,,,,,,
,,,,,,,6346d43493a4f14e735bc630,2023-08-16_09h12.01.823,HF_wild_card,2022.2.4,Win32,60.40106306,6346d43493a4f14e735bc630,64d2fd46c836a06233681665,64dc84701cd8412efe8a3d65,,,,,,,decisionTrl,resources/DBN.BMP,resources/DR.BMP,Door1,-0.5140625,0.066666667,1,0,0,0.7312,optionLeft,30,15190,7,11,0,11,0,1,,,,,,,,,,,,,,,,,,,,,,,,,,,,,,,,,,,,,,,
,,,,,,,6346d43493a4f14e735bc630,2023-08-16_09h12.01.823,HF_wild_card,2022.2.4,Win32,60.40106306,6346d43493a4f14e735bc630,64d2fd46c836a06233681665,64dc84701cd8412efe8a3d65,,,,,,,decisionTrl,resources/DR.BMP,resources/DBN.BMP,Door1,0.365567144,0.071296279,1,0,0,1.3308,optionRight,30,15220,7,12,0,12,0,1,,,,,,,,,,,,,,,,,,,,,,,,,,,,,,,,,,,,,,,
,,,,,,,6346d43493a4f14e735bc630,2023-08-16_09h12.01.823,HF_wild_card,2022.2.4,Win32,60.40106306,6346d43493a4f14e735bc630,64d2fd46c836a06233681665,64dc84701cd8412efe8a3d65,,,,,,,ctch,resources/DY.BMP,resources/DR.BMP,Door3,-0.478877322,0.042592589,1,0,0,1.1463,optionLeft,70,15290,7,13,0,13,0,1,,,,,,,,,,,,,,,,,,,,,,,,,,,,,,,,,,,,,,,
,,,,,,,6346d43493a4f14e735bc630,2023-08-16_09h12.01.823,HF_wild_card,2022.2.4,Win32,60.40106306,6346d43493a4f14e735bc630,64d2fd46c836a06233681665,64dc84701cd8412efe8a3d65,,,,,,,decisionTrl,resources/DR.BMP,resources/DBN.BMP,Door1,0.394270833,0.071296279,1,0,0,0.8707,optionRight,30,15320,7,14,0,14,0,1,,,,,,,,,,,,,,,,,,,,,,,,,,,,,,,,,,,,,,,
,,,,,,,6346d43493a4f14e735bc630,2023-08-16_09h12.01.823,HF_wild_card,2022.2.4,Win32,60.40106306,6346d43493a4f14e735bc630,64d2fd46c836a06233681665,64dc84701cd8412efe8a3d65,,,,,,,ctch,resources/DBN.BMP,resources/DG.BMP,Door4,0.411863454,0.020370356,1,0,0,1.3642,optionRight,80,15400,7,15,0,15,0,1,,,,,,,,,,,,,,,,,,,,,,,,,,,,,,,,,,,,,,,
,,,,,,,6346d43493a4f14e735bc630,2023-08-16_09h12.01.823,HF_wild_card,2022.2.4,Win32,60.40106306,6346d43493a4f14e735bc630,64d2fd46c836a06233681665,64dc84701cd8412efe8a3d65,,,,,,,decisionTrl,resources/DY.BMP,resources/DG.BMP,Door4,0.342419052,-0.011111101,1,0,0,1.1643,optionRight,80,15480,7,16,0,16,0,1,,,,,,,,,,,,,,,,,,,,,,,,,,,,,,,,,,,,,,,
,,,,,,,6346d43493a4f14e735bc630,2023-08-16_09h12.01.823,HF_wild_card,2022.2.4,Win32,60.40106306,6346d43493a4f14e735bc630,64d2fd46c836a06233681665,64dc84701cd8412efe8a3d65,,,,,,,decisionTrl,resources/DG.BMP,resources/DY.BMP,Door3,0.387789408,0.00370369,1,0,0,1.081,optionRight,70,15550,7,17,0,17,0,1,,,,,,,,,,,,,,,,,,,,,,,,,,,,,,,,,,,,,,,
,,,,,,,6346d43493a4f14e735bc630,2023-08-16_09h12.01.823,HF_wild_card,2022.2.4,Win32,60.40106306,6346d43493a4f14e735bc630,64d2fd46c836a06233681665,64dc84701cd8412efe8a3d65,,,,,,,decisionTrl,resources/DBN.BMP,resources/DR.BMP,Door1,-0.211284701,-0.090740776,1,0,0,0.9143,optionLeft,30,15580,7,18,0,18,0,1,,,,,,,,,,,,,,,,,,,,,,,,,,,,,,,,,,,,,,,
,,,,,,,6346d43493a4f14e735bc630,2023-08-16_09h12.01.823,HF_wild_card,2022.2.4,Win32,60.40106306,6346d43493a4f14e735bc630,64d2fd46c836a06233681665,64dc84701cd8412efe8a3d65,,,,,,,ctch,resources/DBN.BMP,resources/DG.BMP,Door4,0.376678212,-0.003703721,1,0,0,0.8984,optionRight,80,15660,7,19,0,19,0,1,,,,,,,,,,,,,,,,,,,,,,,,,,,,,,,,,,,,,,,
,,,,,,,6346d43493a4f14e735bc630,2023-08-16_09h12.01.823,HF_wild_card,2022.2.4,Win32,60.40106306,6346d43493a4f14e735bc630,64d2fd46c836a06233681665,64dc84701cd8412efe8a3d65,,,,,,,ctch,resources/DR.BMP,resources/DY.BMP,Door3,0.405381902,0.02870369,1,0,0,1.0309,optionRight,70,15730,7,20,0,20,0,1,,,,,,,,,,,,,,,,,,,,,,,,,,,,,,,,,,,,,,,
