Condition,Low fixed image (Door1),Low risky image (Door2),High fixed image (Door3),High risky image (Door4),Extreme Wild Card,NonExtreme Wild Card,,date,expName,psychopyVersion,OS,frameRate,PROLIFIC_PID,STUDY_ID,SESSION_ID,mouse_2.x,mouse_2.y,mouse_2.leftButton,mouse_2.midButton,mouse_2.rightButton,mouse_2.clicked_name,Trial Type,Left Option Image,Right Option Image,Chosen Door,mouse.x,mouse.y,mouse.leftButton,mouse.midButton,mouse.rightButton,mouse.time,mouse.clicked_name,Feedback,Cumulative Reward,Block,trial.thisRepN,trial.thisTrialN,trial.thisN,trial.thisIndex,trial.ran,blocks.thisRepN,blocks.thisTrialN,blocks.thisN,blocks.thisIndex,blocks.ran,Money conversion,First Outcome Reported,Shown Door (First Outcome),Displayed Image (First Outcome),outcomes.thisRepN,outcomes.thisTrialN,outcomes.thisN,outcomes.thisIndex,outcomes.ran,judgments.thisRepN,judgments.thisTrialN,judgments.thisN,judgments.thisIndex,judgments.ran,freqMouse.x,freqMouse.y,freqMouse.leftButton,freqMouse.midButton,freqMouse.rightButton,freqMouse.clicked_name,FQJ for first outcome,FQJ for second outcome,Shown Door,Displayed Image,trials.thisRepN,trials.thisTrialN,trials.thisN,trials.thisIndex,trials.ran,judgBlock.thisRepN,judgBlock.thisTrialN,judgBlock.thisN,judgBlock.thisIndex,judgBlock.ran
0,resources/DY.BMP,resources/DP.BMP,resources/DB.BMP,resources/DBN.BMP,resources/DG.BMP,resources/DR.BMP,,2023-08-03_06h20.25.856,HF_wild_card,2022.2.4,Win32,60.15399423,5f8b4560fc6686262722efdb,64b543b0a84ad6ab4a25b86a,64cb390c813a2d78b4dd6557,,,,,,,,,,,,,,,,,,,,,,,,,,,,,,,,,,,,,,,,,,,,,,,,,,,,,,,,,,,,,,,,
,,,,,,,,2023-08-03_06h20.25.856,HF_wild_card,2022.2.4,Win32,60.15399423,5f8b4560fc6686262722efdb,64b543b0a84ad6ab4a25b86a,64cb390c813a2d78b4dd6557,-0.005555541,-0.411111125,1,0,0,agree,,,,,,,,,,,,,,,,,,,,,,,,,,,,,,,,,,,,,,,,,,,,,,,,,,,,,,,,,,
,,,,,,,,2023-08-03_06h20.25.856,HF_wild_card,2022.2.4,Win32,60.15399423,5f8b4560fc6686262722efdb,64b543b0a84ad6ab4a25b86a,64cb390c813a2d78b4dd6557,,,,,,,,,,,,,,,,,,,,,,,,,,,,,,,,,,,,,,,,,,,,,,,,,,,,,,,,,,,,,,,,
,,,,,,,,2023-08-03_06h20.25.856,HF_wild_card,2022.2.4,Win32,60.15399423,5f8b4560fc6686262722efdb,64b543b0a84ad6ab4a25b86a,64cb390c813a2d78b4dd6557,,,,,,,decisionTrl,resources/DBN.BMP,resources/DB.BMP,Door3,0.263888889,-0.157407407,1,0,0,2.0633,optionRight,70,70,1,0,0,0,0,1,,,,,,,,,,,,,,,,,,,,,,,,,,,,,,,,,,,,,,,
,,,,,,,,2023-08-03_06h20.25.856,HF_wild_card,2022.2.4,Win32,60.15399423,5f8b4560fc6686262722efdb,64b543b0a84ad6ab4a25b86a,64cb390c813a2d78b4dd6557,,,,,,,decisionTrl,resources/DB.BMP,resources/DBN.BMP,Door3,-0.140740712,-0.112963005,1,0,0,1.127,optionLeft,70,140,1,1,0,1,0,1,,,,,,,,,,,,,,,,,,,,,,,,,,,,,,,,,,,,,,,
,,,,,,,,2023-08-03_06h20.25.856,HF_wild_card,2022.2.4,Win32,60.15399423,5f8b4560fc6686262722efdb,64b543b0a84ad6ab4a25b86a,64cb390c813a2d78b4dd6557,,,,,,,decisionTrl,resources/DBN.BMP,resources/DB.BMP,Door4,-0.205555527,-0.033333355,1,0,0,0.8505,optionLeft,60,200,1,2,0,2,0,1,,,,,,,,,,,,,,,,,,,,,,,,,,,,,,,,,,,,,,,
,,,,,,,,2023-08-03_06h20.25.856,HF_wild_card,2022.2.4,Win32,60.15399423,5f8b4560fc6686262722efdb,64b543b0a84ad6ab4a25b86a,64cb390c813a2d78b4dd6557,,,,,,,ctch,resources/DB.BMP,resources/DP.BMP,Door3,-0.250925912,-0.056481503,1,0,0,0.8477,optionLeft,70,270,1,3,0,3,0,1,,,,,,,,,,,,,,,,,,,,,,,,,,,,,,,,,,,,,,,
,,,,,,,,2023-08-03_06h20.25.856,HF_wild_card,2022.2.4,Win32,60.15399423,5f8b4560fc6686262722efdb,64b543b0a84ad6ab4a25b86a,64cb390c813a2d78b4dd6557,,,,,,,sngl,resources/Empty.png,resources/DG.BMP,WildCard_Ex,0.174074102,-0.032407407,1,0,0,1.5473,optionRight,95,365,1,4,0,4,0,1,,,,,,,,,,,,,,,,,,,,,,,,,,,,,,,,,,,,,,,
,,,,,,,,2023-08-03_06h20.25.856,HF_wild_card,2022.2.4,Win32,60.15399423,5f8b4560fc6686262722efdb,64b543b0a84ad6ab4a25b86a,64cb390c813a2d78b4dd6557,,,,,,,decisionTrl,resources/DP.BMP,resources/DY.BMP,Door2,-0.205555527,-0.059259273,1,0,0,1.4947,optionLeft,20,385,1,5,0,5,0,1,,,,,,,,,,,,,,,,,,,,,,,,,,,,,,,,,,,,,,,
,,,,,,,,2023-08-03_06h20.25.856,HF_wild_card,2022.2.4,Win32,60.15399423,5f8b4560fc6686262722efdb,64b543b0a84ad6ab4a25b86a,64cb390c813a2d78b4dd6557,,,,,,,sngl,resources/DBN.BMP,resources/Empty.png,Door4,-0.324074074,0.014814801,1,0,0,0.7807,optionLeft,80,465,1,6,0,6,0,1,,,,,,,,,,,,,,,,,,,,,,,,,,,,,,,,,,,,,,,
,,,,,,,,2023-08-03_06h20.25.856,HF_wild_card,2022.2.4,Win32,60.15399423,5f8b4560fc6686262722efdb,64b543b0a84ad6ab4a25b86a,64cb390c813a2d78b4dd6557,,,,,,,sngl,resources/DG.BMP,resources/Empty.png,WildCard_Ex,-0.272222236,-0.020370377,1,0,0,1.0487,optionLeft,95,560,1,7,0,7,0,1,,,,,,,,,,,,,,,,,,,,,,,,,,,,,,,,,,,,,,,
,,,,,,,,2023-08-03_06h20.25.856,HF_wild_card,2022.2.4,Win32,60.15399423,5f8b4560fc6686262722efdb,64b543b0a84ad6ab4a25b86a,64cb390c813a2d78b4dd6557,,,,,,,ctch,resources/DP.BMP,resources/DB.BMP,Door2,-0.339814822,-0.005555577,1,0,0,1.2318,optionLeft,40,600,1,8,0,8,0,1,,,,,,,,,,,,,,,,,,,,,,,,,,,,,,,,,,,,,,,
,,,,,,,,2023-08-03_06h20.25.856,HF_wild_card,2022.2.4,Win32,60.15399423,5f8b4560fc6686262722efdb,64b543b0a84ad6ab4a25b86a,64cb390c813a2d78b4dd6557,,,,,,,decisionTrl,resources/DG.BMP,resources/DBN.BMP,WildCard_Ex,-0.349999993,0.01944443,1,0,0,1.3484,optionLeft,5,605,1,9,0,9,0,1,,,,,,,,,,,,,,,,,,,,,,,,,,,,,,,,,,,,,,,
,,,,,,,,2023-08-03_06h20.25.856,HF_wild_card,2022.2.4,Win32,60.15399423,5f8b4560fc6686262722efdb,64b543b0a84ad6ab4a25b86a,64cb390c813a2d78b4dd6557,,,,,,,ctch,resources/DBN.BMP,resources/DY.BMP,Door4,-0.266666624,0.043518526,1,0,0,0.9316,optionLeft,80,685,1,10,0,10,0,1,,,,,,,,,,,,,,,,,,,,,,,,,,,,,,,,,,,,,,,
,,,,,,,,2023-08-03_06h20.25.856,HF_wild_card,2022.2.4,Win32,60.15399423,5f8b4560fc6686262722efdb,64b543b0a84ad6ab4a25b86a,64cb390c813a2d78b4dd6557,,,,,,,decisionTrl,resources/DP.BMP,resources/DG.BMP,WildCard_Ex,0.174074102,0.011111118,1,0,0,1.8983,optionRight,95,780,1,11,0,11,0,1,,,,,,,,,,,,,,,,,,,,,,,,,,,,,,,,,,,,,,,
,,,,,,,,2023-08-03_06h20.25.856,HF_wild_card,2022.2.4,Win32,60.15399423,5f8b4560fc6686262722efdb,64b543b0a84ad6ab4a25b86a,64cb390c813a2d78b4dd6557,,,,,,,sngl,resources/DG.BMP,resources/Empty.png,WildCard_Ex,-0.348148134,0.02407406,1,0,0,0.715,optionLeft,5,785,1,12,0,12,0,1,,,,,,,,,,,,,,,,,,,,,,,,,,,,,,,,,,,,,,,
,,,,,,,,2023-08-03_06h20.25.856,HF_wild_card,2022.2.4,Win32,60.15399423,5f8b4560fc6686262722efdb,64b543b0a84ad6ab4a25b86a,64cb390c813a2d78b4dd6557,,,,,,,decisionTrl,resources/DG.BMP,resources/DB.BMP,WildCard_Ex,-0.22129631,-0.01203703,1,0,0,1.3121,optionLeft,95,880,1,13,0,13,0,1,,,,,,,,,,,,,,,,,,,,,,,,,,,,,,,,,,,,,,,
,,,,,,,,2023-08-03_06h20.25.856,HF_wild_card,2022.2.4,Win32,60.15399423,5f8b4560fc6686262722efdb,64b543b0a84ad6ab4a25b86a,64cb390c813a2d78b4dd6557,,,,,,,decisionTrl,resources/DG.BMP,resources/DP.BMP,Door2,0.137037065,0.064814815,1,0,0,1.5624,optionRight,20,900,1,14,0,14,0,1,,,,,,,,,,,,,,,,,,,,,,,,,,,,,,,,,,,,,,,
,,,,,,,,2023-08-03_06h20.25.856,HF_wild_card,2022.2.4,Win32,60.15399423,5f8b4560fc6686262722efdb,64b543b0a84ad6ab4a25b86a,64cb390c813a2d78b4dd6557,,,,,,,sngl,resources/DP.BMP,resources/Empty.png,Door2,-0.332407386,0.025000007,1,0,0,0.7986,optionLeft,40,940,1,15,0,15,0,1,,,,,,,,,,,,,,,,,,,,,,,,,,,,,,,,,,,,,,,
,,,,,,,,2023-08-03_06h20.25.856,HF_wild_card,2022.2.4,Win32,60.15399423,5f8b4560fc6686262722efdb,64b543b0a84ad6ab4a25b86a,64cb390c813a2d78b4dd6557,,,,,,,ctch,resources/DB.BMP,resources/DP.BMP,Door3,-0.307407414,0.029629637,1,0,0,0.8781,optionLeft,70,1010,1,16,0,16,0,1,,,,,,,,,,,,,,,,,,,,,,,,,,,,,,,,,,,,,,,
,,,,,,,,2023-08-03_06h20.25.856,HF_wild_card,2022.2.4,Win32,60.15399423,5f8b4560fc6686262722efdb,64b543b0a84ad6ab4a25b86a,64cb390c813a2d78b4dd6557,,,,,,,decisionTrl,resources/DP.BMP,resources/DY.BMP,Door1,0.222222222,0.038888896,1,0,0,1.1815,optionRight,30,1040,1,17,0,17,0,1,,,,,,,,,,,,,,,,,,,,,,,,,,,,,,,,,,,,,,,
,,,,,,,,2023-08-03_06h20.25.856,HF_wild_card,2022.2.4,Win32,60.15399423,5f8b4560fc6686262722efdb,64b543b0a84ad6ab4a25b86a,64cb390c813a2d78b4dd6557,,,,,,,decisionTrl,resources/DBN.BMP,resources/DB.BMP,Door4,-0.434259238,0.030555548,1,0,0,1.1679,optionLeft,80,1120,1,18,0,18,0,1,,,,,,,,,,,,,,,,,,,,,,,,,,,,,,,,,,,,,,,
,,,,,,,,2023-08-03_06h20.25.856,HF_wild_card,2022.2.4,Win32,60.15399423,5f8b4560fc6686262722efdb,64b543b0a84ad6ab4a25b86a,64cb390c813a2d78b4dd6557,,,,,,,decisionTrl,resources/DY.BMP,resources/DG.BMP,WildCard_Ex,0.171296296,0.045370349,1,0,0,0.9633,optionRight,5,1125,1,19,0,19,0,1,,,,,,,,,,,,,,,,,,,,,,,,,,,,,,,,,,,,,,,
,,,,,,,,2023-08-03_06h20.25.856,HF_wild_card,2022.2.4,Win32,60.15399423,5f8b4560fc6686262722efdb,64b543b0a84ad6ab4a25b86a,64cb390c813a2d78b4dd6557,,,,,,,sngl,resources/Empty.png,resources/DB.BMP,Door3,0.227777764,-0.032407407,1,0,0,0.9346,optionRight,70,1195,1,20,0,20,0,1,,,,,,,,,,,,,,,,,,,,,,,,,,,,,,,,,,,,,,,
,,,,,,,,2023-08-03_06h20.25.856,HF_wild_card,2022.2.4,Win32,60.15399423,5f8b4560fc6686262722efdb,64b543b0a84ad6ab4a25b86a,64cb390c813a2d78b4dd6557,,,,,,,decisionTrl,resources/DG.BMP,resources/DY.BMP,WildCard_Ex,-0.233333305,-0.011111118,1,0,0,0.8156,optionLeft,5,1200,1,21,0,21,0,1,,,,,,,,,,,,,,,,,,,,,,,,,,,,,,,,,,,,,,,
,,,,,,,,2023-08-03_06h20.25.856,HF_wild_card,2022.2.4,Win32,60.15399423,5f8b4560fc6686262722efdb,64b543b0a84ad6ab4a25b86a,64cb390c813a2d78b4dd6557,,,,,,,decisionTrl,resources/DB.BMP,resources/DBN.BMP,Door3,-0.274999972,0.025000007,1,0,0,0.8821,optionLeft,70,1270,1,22,0,22,0,1,,,,,,,,,,,,,,,,,,,,,,,,,,,,,,,,,,,,,,,
,,,,,,,,2023-08-03_06h20.25.856,HF_wild_card,2022.2.4,Win32,60.15399423,5f8b4560fc6686262722efdb,64b543b0a84ad6ab4a25b86a,64cb390c813a2d78b4dd6557,,,,,,,sngl,resources/Empty.png,resources/DBN.BMP,Door4,0.213888875,-0.009259259,1,0,0,0.7807,optionRight,60,1330,1,23,0,23,0,1,,,,,,,,,,,,,,,,,,,,,,,,,,,,,,,,,,,,,,,
,,,,,,,,2023-08-03_06h20.25.856,HF_wild_card,2022.2.4,Win32,60.15399423,5f8b4560fc6686262722efdb,64b543b0a84ad6ab4a25b86a,64cb390c813a2d78b4dd6557,,,,,,,sngl,resources/DY.BMP,resources/Empty.png,Door1,-0.329629616,0.052777785,1,0,0,0.782,optionLeft,30,1360,1,24,0,24,0,1,,,,,,,,,,,,,,,,,,,,,,,,,,,,,,,,,,,,,,,
,,,,,,,,2023-08-03_06h20.25.856,HF_wild_card,2022.2.4,Win32,60.15399423,5f8b4560fc6686262722efdb,64b543b0a84ad6ab4a25b86a,64cb390c813a2d78b4dd6557,,,,,,,decisionTrl,resources/DBN.BMP,resources/DG.BMP,Door4,-0.287037037,0.066666674,1,0,0,1.2984,optionLeft,60,1420,1,25,0,25,0,1,,,,,,,,,,,,,,,,,,,,,,,,,,,,,,,,,,,,,,,
,,,,,,,,2023-08-03_06h20.25.856,HF_wild_card,2022.2.4,Win32,60.15399423,5f8b4560fc6686262722efdb,64b543b0a84ad6ab4a25b86a,64cb390c813a2d78b4dd6557,,,,,,,sngl,resources/Empty.png,resources/DG.BMP,WildCard_Ex,0.196296339,-0.011111118,1,0,0,0.8157,optionRight,5,1425,1,26,0,26,0,1,,,,,,,,,,,,,,,,,,,,,,,,,,,,,,,,,,,,,,,
,,,,,,,,2023-08-03_06h20.25.856,HF_wild_card,2022.2.4,Win32,60.15399423,5f8b4560fc6686262722efdb,64b543b0a84ad6ab4a25b86a,64cb390c813a2d78b4dd6557,,,,,,,decisionTrl,resources/DY.BMP,resources/DP.BMP,Door2,0.170370384,0.033333319,1,0,0,1.3645,optionRight,20,1445,1,27,0,27,0,1,,,,,,,,,,,,,,,,,,,,,,,,,,,,,,,,,,,,,,,
,,,,,,,,2023-08-03_06h20.25.856,HF_wild_card,2022.2.4,Win32,60.15399423,5f8b4560fc6686262722efdb,64b543b0a84ad6ab4a25b86a,64cb390c813a2d78b4dd6557,,,,,,,decisionTrl,resources/DP.BMP,resources/DY.BMP,Door1,0.148148148,0.03611109,1,0,0,1.1979,optionRight,30,1475,1,28,0,28,0,1,,,,,,,,,,,,,,,,,,,,,,,,,,,,,,,,,,,,,,,
,,,,,,,,2023-08-03_06h20.25.856,HF_wild_card,2022.2.4,Win32,60.15399423,5f8b4560fc6686262722efdb,64b543b0a84ad6ab4a25b86a,64cb390c813a2d78b4dd6557,,,,,,,sngl,resources/DB.BMP,resources/Empty.png,Door3,-0.352777764,0.035185178,1,0,0,0.7122,optionLeft,70,1545,1,29,0,29,0,1,,,,,,,,,,,,,,,,,,,,,,,,,,,,,,,,,,,,,,,
,,,,,,,,2023-08-03_06h20.25.856,HF_wild_card,2022.2.4,Win32,60.15399423,5f8b4560fc6686262722efdb,64b543b0a84ad6ab4a25b86a,64cb390c813a2d78b4dd6557,,,,,,,ctch,resources/DP.BMP,resources/DB.BMP,Door3,0.143518519,-0.027777778,1,0,0,0.6839,optionRight,70,1615,1,30,0,30,0,1,,,,,,,,,,,,,,,,,,,,,,,,,,,,,,,,,,,,,,,
,,,,,,,,2023-08-03_06h20.25.856,HF_wild_card,2022.2.4,Win32,60.15399423,5f8b4560fc6686262722efdb,64b543b0a84ad6ab4a25b86a,64cb390c813a2d78b4dd6557,,,,,,,ctch,resources/DY.BMP,resources/DBN.BMP,Door4,0.224074116,0.068518497,1,0,0,1.1955,optionRight,80,1695,1,31,0,31,0,1,,,,,,,,,,,,,,,,,,,,,,,,,,,,,,,,,,,,,,,
,,,,,,,,2023-08-03_06h20.25.856,HF_wild_card,2022.2.4,Win32,60.15399423,5f8b4560fc6686262722efdb,64b543b0a84ad6ab4a25b86a,64cb390c813a2d78b4dd6557,,,,,,,sngl,resources/Empty.png,resources/DP.BMP,Door2,0.223148134,-0.015740748,1,0,0,0.7314,optionRight,20,1715,1,32,0,32,0,1,,,,,,,,,,,,,,,,,,,,,,,,,,,,,,,,,,,,,,,
,,,,,,,,2023-08-03_06h20.25.856,HF_wild_card,2022.2.4,Win32,60.15399423,5f8b4560fc6686262722efdb,64b543b0a84ad6ab4a25b86a,64cb390c813a2d78b4dd6557,,,,,,,decisionTrl,resources/DBN.BMP,resources/DB.BMP,Door4,-0.228703675,0,1,0,0,1.2644,optionLeft,60,1775,1,33,0,33,0,1,,,,,,,,,,,,,,,,,,,,,,,,,,,,,,,,,,,,,,,
,,,,,,,,2023-08-03_06h20.25.856,HF_wild_card,2022.2.4,Win32,60.15399423,5f8b4560fc6686262722efdb,64b543b0a84ad6ab4a25b86a,64cb390c813a2d78b4dd6557,,,,,,,decisionTrl,resources/DY.BMP,resources/DP.BMP,Door1,-0.209259245,0.061111097,1,0,0,1.7785,optionLeft,30,1805,1,34,0,34,0,1,,,,,,,,,,,,,,,,,,,,,,,,,,,,,,,,,,,,,,,
,,,,,,,,2023-08-03_06h20.25.856,HF_wild_card,2022.2.4,Win32,60.15399423,5f8b4560fc6686262722efdb,64b543b0a84ad6ab4a25b86a,64cb390c813a2d78b4dd6557,,,,,,,decisionTrl,resources/DY.BMP,resources/DP.BMP,Door1,-0.274999972,0.034259266,1,0,0,0.9617,optionLeft,30,1835,1,35,0,35,0,1,,,,,,,,,,,,,,,,,,,,,,,,,,,,,,,,,,,,,,,
,,,,,,,,2023-08-03_06h20.25.856,HF_wild_card,2022.2.4,Win32,60.15399423,5f8b4560fc6686262722efdb,64b543b0a84ad6ab4a25b86a,64cb390c813a2d78b4dd6557,,,,,,,ctch,resources/DBN.BMP,resources/DY.BMP,Door4,-0.257407365,0.045370349,1,0,0,0.8651,optionLeft,80,1915,1,36,0,36,0,1,,,,,,,,,,,,,,,,,,,,,,,,,,,,,,,,,,,,,,,
,,,,,,,,2023-08-03_06h20.25.856,HF_wild_card,2022.2.4,Win32,60.15399423,5f8b4560fc6686262722efdb,64b543b0a84ad6ab4a25b86a,64cb390c813a2d78b4dd6557,,,,,,,decisionTrl,resources/DY.BMP,resources/DP.BMP,Door2,0.085185228,0.014814801,1,0,0,2.1972,optionRight,20,1935,1,37,0,37,0,1,,,,,,,,,,,,,,,,,,,,,,,,,,,,,,,,,,,,,,,
,,,,,,,,2023-08-03_06h20.25.856,HF_wild_card,2022.2.4,Win32,60.15399423,5f8b4560fc6686262722efdb,64b543b0a84ad6ab4a25b86a,64cb390c813a2d78b4dd6557,,,,,,,sngl,resources/Empty.png,resources/DY.BMP,Door1,0.252777806,-0.034259266,1,0,0,0.8286,optionRight,30,1965,1,38,0,38,0,1,,,,,,,,,,,,,,,,,,,,,,,,,,,,,,,,,,,,,,,
,,,,,,,,2023-08-03_06h20.25.856,HF_wild_card,2022.2.4,Win32,60.15399423,5f8b4560fc6686262722efdb,64b543b0a84ad6ab4a25b86a,64cb390c813a2d78b4dd6557,,,,,,,decisionTrl,resources/DB.BMP,resources/DBN.BMP,Door4,0.248148176,0.062962956,1,0,0,1.3646,optionRight,60,2025,1,39,0,39,0,1,,,,,,,,,,,,,,,,,,,,,,,,,,,,,,,,,,,,,,,
,,,,,,,,2023-08-03_06h20.25.856,HF_wild_card,2022.2.4,Win32,60.15399423,5f8b4560fc6686262722efdb,64b543b0a84ad6ab4a25b86a,64cb390c813a2d78b4dd6557,,,,,,,decisionTrl,resources/DB.BMP,resources/DBN.BMP,Door3,-0.299074067,0.063888868,1,0,0,0.6471,optionLeft,70,2095,1,40,0,40,0,1,,,,,,,,,,,,,,,,,,,,,,,,,,,,,,,,,,,,,,,
,,,,,,,,2023-08-03_06h20.25.856,HF_wild_card,2022.2.4,Win32,60.15399423,5f8b4560fc6686262722efdb,64b543b0a84ad6ab4a25b86a,64cb390c813a2d78b4dd6557,,,,,,,decisionTrl,resources/DB.BMP,resources/DG.BMP,Door3,-0.251851824,0.015740748,1,0,0,1.0652,optionLeft,70,2165,1,41,0,41,0,1,,,,,,,,,,,,,,,,,,,,,,,,,,,,,,,,,,,,,,,
,,,,,,,,2023-08-03_06h20.25.856,HF_wild_card,2022.2.4,Win32,60.15399423,5f8b4560fc6686262722efdb,64b543b0a84ad6ab4a25b86a,64cb390c813a2d78b4dd6557,,,,,,,decisionTrl,resources/DP.BMP,resources/DY.BMP,Door2,-0.241666653,0.038888896,1,0,0,1.5174,optionLeft,40,2205,1,42,0,42,0,1,,,,,,,,,,,,,,,,,,,,,,,,,,,,,,,,,,,,,,,
,,,,,,,,2023-08-03_06h20.25.856,HF_wild_card,2022.2.4,Win32,60.15399423,5f8b4560fc6686262722efdb,64b543b0a84ad6ab4a25b86a,64cb390c813a2d78b4dd6557,,,,,,,ctch,resources/DY.BMP,resources/DBN.BMP,Door4,0.163888931,0.038888896,1,0,0,0.848,optionRight,60,2265,1,43,0,43,0,1,,,,,,,,,,,,,,,,,,,,,,,,,,,,,,,,,,,,,,,
,,,,,,,,2023-08-03_06h20.25.856,HF_wild_card,2022.2.4,Win32,60.15399423,5f8b4560fc6686262722efdb,64b543b0a84ad6ab4a25b86a,64cb390c813a2d78b4dd6557,,,,,,,,,,,,,,,,,,,,,,,,,,0,0,0,0,1,,,,,,,,,,,,,,,,,,,,,,,,,,,,,,,,,,
,,,,,,,,2023-08-03_06h20.25.856,HF_wild_card,2022.2.4,Win32,60.15399423,5f8b4560fc6686262722efdb,64b543b0a84ad6ab4a25b86a,64cb390c813a2d78b4dd6557,,,,,,,sngl,resources/Empty.png,resources/DY.BMP,Door1,0.40833339,0.0074074,1,0,0,0.723,optionRight,30,2295,2,0,0,0,0,1,,,,,,,,,,,,,,,,,,,,,,,,,,,,,,,,,,,,,,,
,,,,,,,,2023-08-03_06h20.25.856,HF_wild_card,2022.2.4,Win32,60.15399423,5f8b4560fc6686262722efdb,64b543b0a84ad6ab4a25b86a,64cb390c813a2d78b4dd6557,,,,,,,ctch,resources/DBN.BMP,resources/DY.BMP,Door4,-0.234259217,0.005555541,1,0,0,0.6813,optionLeft,60,2355,2,1,0,1,0,1,,,,,,,,,,,,,,,,,,,,,,,,,,,,,,,,,,,,,,,
,,,,,,,,2023-08-03_06h20.25.856,HF_wild_card,2022.2.4,Win32,60.15399423,5f8b4560fc6686262722efdb,64b543b0a84ad6ab4a25b86a,64cb390c813a2d78b4dd6557,,,,,,,decisionTrl,resources/DY.BMP,resources/DG.BMP,WildCard_Ex,0.167592578,0.034259266,1,0,0,0.6806,optionRight,95,2450,2,2,0,2,0,1,,,,,,,,,,,,,,,,,,,,,,,,,,,,,,,,,,,,,,,
,,,,,,,,2023-08-03_06h20.25.856,HF_wild_card,2022.2.4,Win32,60.15399423,5f8b4560fc6686262722efdb,64b543b0a84ad6ab4a25b86a,64cb390c813a2d78b4dd6557,,,,,,,decisionTrl,resources/DB.BMP,resources/DBN.BMP,Door3,-0.294444402,0.015740748,1,0,0,0.7977,optionLeft,70,2520,2,3,0,3,0,1,,,,,,,,,,,,,,,,,,,,,,,,,,,,,,,,,,,,,,,
,,,,,,,,2023-08-03_06h20.25.856,HF_wild_card,2022.2.4,Win32,60.15399423,5f8b4560fc6686262722efdb,64b543b0a84ad6ab4a25b86a,64cb390c813a2d78b4dd6557,,,,,,,decisionTrl,resources/DBN.BMP,resources/DB.BMP,Door4,-0.312037044,0.027777778,1,0,0,0.6313,optionLeft,80,2600,2,4,0,4,0,1,,,,,,,,,,,,,,,,,,,,,,,,,,,,,,,,,,,,,,,
,,,,,,,,2023-08-03_06h20.25.856,HF_wild_card,2022.2.4,Win32,60.15399423,5f8b4560fc6686262722efdb,64b543b0a84ad6ab4a25b86a,64cb390c813a2d78b4dd6557,,,,,,,sngl,resources/DG.BMP,resources/Empty.png,WildCard_Ex,-0.259259259,-0.001851859,1,0,0,0.6807,optionLeft,95,2695,2,5,0,5,0,1,,,,,,,,,,,,,,,,,,,,,,,,,,,,,,,,,,,,,,,
,,,,,,,,2023-08-03_06h20.25.856,HF_wild_card,2022.2.4,Win32,60.15399423,5f8b4560fc6686262722efdb,64b543b0a84ad6ab4a25b86a,64cb390c813a2d78b4dd6557,,,,,,,decisionTrl,resources/DB.BMP,resources/DBN.BMP,Door4,0.157407407,-0.027777778,1,0,0,0.6478,optionRight,60,2755,2,6,0,6,0,1,,,,,,,,,,,,,,,,,,,,,,,,,,,,,,,,,,,,,,,
,,,,,,,,2023-08-03_06h20.25.856,HF_wild_card,2022.2.4,Win32,60.15399423,5f8b4560fc6686262722efdb,64b543b0a84ad6ab4a25b86a,64cb390c813a2d78b4dd6557,,,,,,,sngl,resources/DB.BMP,resources/Empty.png,Door3,-0.27870369,-0.011111118,1,0,0,0.6312,optionLeft,70,2825,2,7,0,7,0,1,,,,,,,,,,,,,,,,,,,,,,,,,,,,,,,,,,,,,,,
,,,,,,,,2023-08-03_06h20.25.856,HF_wild_card,2022.2.4,Win32,60.15399423,5f8b4560fc6686262722efdb,64b543b0a84ad6ab4a25b86a,64cb390c813a2d78b4dd6557,,,,,,,ctch,resources/DP.BMP,resources/DB.BMP,Door3,0.150925954,0.005555541,1,0,0,0.9317,optionRight,70,2895,2,8,0,8,0,1,,,,,,,,,,,,,,,,,,,,,,,,,,,,,,,,,,,,,,,
,,,,,,,,2023-08-03_06h20.25.856,HF_wild_card,2022.2.4,Win32,60.15399423,5f8b4560fc6686262722efdb,64b543b0a84ad6ab4a25b86a,64cb390c813a2d78b4dd6557,,,,,,,decisionTrl,resources/DBN.BMP,resources/DB.BMP,Door4,-0.36296297,0.045370349,1,0,0,0.6318,optionLeft,60,2955,2,9,0,9,0,1,,,,,,,,,,,,,,,,,,,,,,,,,,,,,,,,,,,,,,,
,,,,,,,,2023-08-03_06h20.25.856,HF_wild_card,2022.2.4,Win32,60.15399423,5f8b4560fc6686262722efdb,64b543b0a84ad6ab4a25b86a,64cb390c813a2d78b4dd6557,,,,,,,decisionTrl,resources/DY.BMP,resources/DP.BMP,Door2,0.172222208,-0.002777771,1,0,0,0.8648,optionRight,20,2975,2,10,0,10,0,1,,,,,,,,,,,,,,,,,,,,,,,,,,,,,,,,,,,,,,,
,,,,,,,,2023-08-03_06h20.25.856,HF_wild_card,2022.2.4,Win32,60.15399423,5f8b4560fc6686262722efdb,64b543b0a84ad6ab4a25b86a,64cb390c813a2d78b4dd6557,,,,,,,ctch,resources/DBN.BMP,resources/DY.BMP,Door4,-0.234259217,0.032407407,1,0,0,0.6813,optionLeft,60,3035,2,11,0,11,0,1,,,,,,,,,,,,,,,,,,,,,,,,,,,,,,,,,,,,,,,
,,,,,,,,2023-08-03_06h20.25.856,HF_wild_card,2022.2.4,Win32,60.15399423,5f8b4560fc6686262722efdb,64b543b0a84ad6ab4a25b86a,64cb390c813a2d78b4dd6557,,,,,,,decisionTrl,resources/DB.BMP,resources/DBN.BMP,Door4,0.164814843,0.067592586,1,0,0,1.3293,optionRight,80,3115,2,12,0,12,0,1,,,,,,,,,,,,,,,,,,,,,,,,,,,,,,,,,,,,,,,
,,,,,,,,2023-08-03_06h20.25.856,HF_wild_card,2022.2.4,Win32,60.15399423,5f8b4560fc6686262722efdb,64b543b0a84ad6ab4a25b86a,64cb390c813a2d78b4dd6557,,,,,,,decisionTrl,resources/DP.BMP,resources/DY.BMP,Door1,0.150000042,-0.014814836,1,0,0,0.864,optionRight,30,3145,2,13,0,13,0,1,,,,,,,,,,,,,,,,,,,,,,,,,,,,,,,,,,,,,,,
,,,,,,,,2023-08-03_06h20.25.856,HF_wild_card,2022.2.4,Win32,60.15399423,5f8b4560fc6686262722efdb,64b543b0a84ad6ab4a25b86a,64cb390c813a2d78b4dd6557,,,,,,,decisionTrl,resources/DP.BMP,resources/DY.BMP,Door2,-0.141666624,-0.002777771,1,0,0,0.8814,optionLeft,20,3165,2,14,0,14,0,1,,,,,,,,,,,,,,,,,,,,,,,,,,,,,,,,,,,,,,,
,,,,,,,,2023-08-03_06h20.25.856,HF_wild_card,2022.2.4,Win32,60.15399423,5f8b4560fc6686262722efdb,64b543b0a84ad6ab4a25b86a,64cb390c813a2d78b4dd6557,,,,,,,decisionTrl,resources/DY.BMP,resources/DP.BMP,Door2,0.12037037,-0.030555548,1,0,0,0.7626,optionRight,20,3185,2,15,0,15,0,1,,,,,,,,,,,,,,,,,,,,,,,,,,,,,,,,,,,,,,,
,,,,,,,,2023-08-03_06h20.25.856,HF_wild_card,2022.2.4,Win32,60.15399423,5f8b4560fc6686262722efdb,64b543b0a84ad6ab4a25b86a,64cb390c813a2d78b4dd6557,,,,,,,decisionTrl,resources/DG.BMP,resources/DP.BMP,WildCard_Ex,-0.27870369,0.045370349,1,0,0,0.7509,optionLeft,95,3280,2,16,0,16,0,1,,,,,,,,,,,,,,,,,,,,,,,,,,,,,,,,,,,,,,,
,,,,,,,,2023-08-03_06h20.25.856,HF_wild_card,2022.2.4,Win32,60.15399423,5f8b4560fc6686262722efdb,64b543b0a84ad6ab4a25b86a,64cb390c813a2d78b4dd6557,,,,,,,ctch,resources/DY.BMP,resources/DBN.BMP,Door4,0.22592594,-0.026851866,1,0,0,0.7345,optionRight,60,3340,2,17,0,17,0,1,,,,,,,,,,,,,,,,,,,,,,,,,,,,,,,,,,,,,,,
,,,,,,,,2023-08-03_06h20.25.856,HF_wild_card,2022.2.4,Win32,60.15399423,5f8b4560fc6686262722efdb,64b543b0a84ad6ab4a25b86a,64cb390c813a2d78b4dd6557,,,,,,,decisionTrl,resources/DP.BMP,resources/DG.BMP,WildCard_Ex,0.085185228,-0.047222243,1,0,0,0.8148,optionRight,95,3435,2,18,0,18,0,1,,,,,,,,,,,,,,,,,,,,,,,,,,,,,,,,,,,,,,,
,,,,,,,,2023-08-03_06h20.25.856,HF_wild_card,2022.2.4,Win32,60.15399423,5f8b4560fc6686262722efdb,64b543b0a84ad6ab4a25b86a,64cb390c813a2d78b4dd6557,,,,,,,decisionTrl,resources/DB.BMP,resources/DG.BMP,WildCard_Ex,0.162962949,-0.017592607,1,0,0,0.6294,optionRight,95,3530,2,19,0,19,0,1,,,,,,,,,,,,,,,,,,,,,,,,,,,,,,,,,,,,,,,
,,,,,,,,2023-08-03_06h20.25.856,HF_wild_card,2022.2.4,Win32,60.15399423,5f8b4560fc6686262722efdb,64b543b0a84ad6ab4a25b86a,64cb390c813a2d78b4dd6557,,,,,,,decisionTrl,resources/DBN.BMP,resources/DB.BMP,Door4,-0.352777764,0.057407414,1,0,0,0.799,optionLeft,80,3610,2,20,0,20,0,1,,,,,,,,,,,,,,,,,,,,,,,,,,,,,,,,,,,,,,,
,,,,,,,,2023-08-03_06h20.25.856,HF_wild_card,2022.2.4,Win32,60.15399423,5f8b4560fc6686262722efdb,64b543b0a84ad6ab4a25b86a,64cb390c813a2d78b4dd6557,,,,,,,decisionTrl,resources/DY.BMP,resources/DP.BMP,Door2,0.187037079,-0.025925919,1,0,0,0.7822,optionRight,20,3630,2,21,0,21,0,1,,,,,,,,,,,,,,,,,,,,,,,,,,,,,,,,,,,,,,,
,,,,,,,,2023-08-03_06h20.25.856,HF_wild_card,2022.2.4,Win32,60.15399423,5f8b4560fc6686262722efdb,64b543b0a84ad6ab4a25b86a,64cb390c813a2d78b4dd6557,,,,,,,sngl,resources/DY.BMP,resources/Empty.png,Door1,-0.187037009,0.026851831,1,0,0,0.9808,optionLeft,30,3660,2,22,0,22,0,1,,,,,,,,,,,,,,,,,,,,,,,,,,,,,,,,,,,,,,,
,,,,,,,,2023-08-03_06h20.25.856,HF_wild_card,2022.2.4,Win32,60.15399423,5f8b4560fc6686262722efdb,64b543b0a84ad6ab4a25b86a,64cb390c813a2d78b4dd6557,,,,,,,decisionTrl,resources/DB.BMP,resources/DBN.BMP,Door4,0.212037051,-0.010185206,1,0,0,0.6643,optionRight,60,3720,2,23,0,23,0,1,,,,,,,,,,,,,,,,,,,,,,,,,,,,,,,,,,,,,,,
,,,,,,,,2023-08-03_06h20.25.856,HF_wild_card,2022.2.4,Win32,60.15399423,5f8b4560fc6686262722efdb,64b543b0a84ad6ab4a25b86a,64cb390c813a2d78b4dd6557,,,,,,,decisionTrl,resources/DP.BMP,resources/DY.BMP,Door1,0.220370399,-0.009259259,1,0,0,1.612,optionRight,30,3750,2,24,0,24,0,1,,,,,,,,,,,,,,,,,,,,,,,,,,,,,,,,,,,,,,,
,,,,,,,,2023-08-03_06h20.25.856,HF_wild_card,2022.2.4,Win32,60.15399423,5f8b4560fc6686262722efdb,64b543b0a84ad6ab4a25b86a,64cb390c813a2d78b4dd6557,,,,,,,sngl,resources/Empty.png,resources/DG.BMP,WildCard_Ex,0.208333333,0,1,0,0,0.7147,optionRight,95,3845,2,25,0,25,0,1,,,,,,,,,,,,,,,,,,,,,,,,,,,,,,,,,,,,,,,
,,,,,,,,2023-08-03_06h20.25.856,HF_wild_card,2022.2.4,Win32,60.15399423,5f8b4560fc6686262722efdb,64b543b0a84ad6ab4a25b86a,64cb390c813a2d78b4dd6557,,,,,,,sngl,resources/Empty.png,resources/DB.BMP,Door3,0.229629658,-0.022222236,1,0,0,0.6646,optionRight,70,3915,2,26,0,26,0,1,,,,,,,,,,,,,,,,,,,,,,,,,,,,,,,,,,,,,,,
,,,,,,,,2023-08-03_06h20.25.856,HF_wild_card,2022.2.4,Win32,60.15399423,5f8b4560fc6686262722efdb,64b543b0a84ad6ab4a25b86a,64cb390c813a2d78b4dd6557,,,,,,,sngl,resources/Empty.png,resources/DG.BMP,WildCard_Ex,0.184259273,-0.043518526,1,0,0,0.6306,optionRight,5,3920,2,27,0,27,0,1,,,,,,,,,,,,,,,,,,,,,,,,,,,,,,,,,,,,,,,
,,,,,,,,2023-08-03_06h20.25.856,HF_wild_card,2022.2.4,Win32,60.15399423,5f8b4560fc6686262722efdb,64b543b0a84ad6ab4a25b86a,64cb390c813a2d78b4dd6557,,,,,,,decisionTrl,resources/DBN.BMP,resources/DG.BMP,Door4,-0.290740755,0.027777778,1,0,0,0.798,optionLeft,60,3980,2,28,0,28,0,1,,,,,,,,,,,,,,,,,,,,,,,,,,,,,,,,,,,,,,,
,,,,,,,,2023-08-03_06h20.25.856,HF_wild_card,2022.2.4,Win32,60.15399423,5f8b4560fc6686262722efdb,64b543b0a84ad6ab4a25b86a,64cb390c813a2d78b4dd6557,,,,,,,decisionTrl,resources/DG.BMP,resources/DB.BMP,WildCard_Ex,-0.182407379,0.013888889,1,0,0,1.2653,optionLeft,95,4075,2,29,0,29,0,1,,,,,,,,,,,,,,,,,,,,,,,,,,,,,,,,,,,,,,,
,,,,,,,,2023-08-03_06h20.25.856,HF_wild_card,2022.2.4,Win32,60.15399423,5f8b4560fc6686262722efdb,64b543b0a84ad6ab4a25b86a,64cb390c813a2d78b4dd6557,,,,,,,decisionTrl,resources/DG.BMP,resources/DY.BMP,WildCard_Ex,-0.339814822,0.083333333,1,0,0,0.6514,optionLeft,5,4080,2,30,0,30,0,1,,,,,,,,,,,,,,,,,,,,,,,,,,,,,,,,,,,,,,,
,,,,,,,,2023-08-03_06h20.25.856,HF_wild_card,2022.2.4,Win32,60.15399423,5f8b4560fc6686262722efdb,64b543b0a84ad6ab4a25b86a,64cb390c813a2d78b4dd6557,,,,,,,sngl,resources/DG.BMP,resources/Empty.png,WildCard_Ex,-0.525925919,0.067592586,1,0,0,0.645,optionLeft,5,4085,2,31,0,31,0,1,,,,,,,,,,,,,,,,,,,,,,,,,,,,,,,,,,,,,,,
,,,,,,,,2023-08-03_06h20.25.856,HF_wild_card,2022.2.4,Win32,60.15399423,5f8b4560fc6686262722efdb,64b543b0a84ad6ab4a25b86a,64cb390c813a2d78b4dd6557,,,,,,,sngl,resources/DBN.BMP,resources/Empty.png,Door4,-0.324999986,0.041666667,1,0,0,0.6479,optionLeft,60,4145,2,32,0,32,0,1,,,,,,,,,,,,,,,,,,,,,,,,,,,,,,,,,,,,,,,
,,,,,,,,2023-08-03_06h20.25.856,HF_wild_card,2022.2.4,Win32,60.15399423,5f8b4560fc6686262722efdb,64b543b0a84ad6ab4a25b86a,64cb390c813a2d78b4dd6557,,,,,,,sngl,resources/Empty.png,resources/DBN.BMP,Door4,0.37037037,-0.034259266,1,0,0,0.5842,optionRight,80,4225,2,33,0,33,0,1,,,,,,,,,,,,,,,,,,,,,,,,,,,,,,,,,,,,,,,
,,,,,,,,2023-08-03_06h20.25.856,HF_wild_card,2022.2.4,Win32,60.15399423,5f8b4560fc6686262722efdb,64b543b0a84ad6ab4a25b86a,64cb390c813a2d78b4dd6557,,,,,,,ctch,resources/DB.BMP,resources/DP.BMP,Door3,-0.203703704,0.008333312,1,0,0,0.684,optionLeft,70,4295,2,34,0,34,0,1,,,,,,,,,,,,,,,,,,,,,,,,,,,,,,,,,,,,,,,
,,,,,,,,2023-08-03_06h20.25.856,HF_wild_card,2022.2.4,Win32,60.15399423,5f8b4560fc6686262722efdb,64b543b0a84ad6ab4a25b86a,64cb390c813a2d78b4dd6557,,,,,,,ctch,resources/DY.BMP,resources/DBN.BMP,Door4,0.150925954,-0.012962977,1,0,0,0.5971,optionRight,80,4375,2,35,0,35,0,1,,,,,,,,,,,,,,,,,,,,,,,,,,,,,,,,,,,,,,,
,,,,,,,,2023-08-03_06h20.25.856,HF_wild_card,2022.2.4,Win32,60.15399423,5f8b4560fc6686262722efdb,64b543b0a84ad6ab4a25b86a,64cb390c813a2d78b4dd6557,,,,,,,ctch,resources/DP.BMP,resources/DB.BMP,Door3,0.146296325,0.000925912,1,0,0,0.8638,optionRight,70,4445,2,36,0,36,0,1,,,,,,,,,,,,,,,,,,,,,,,,,,,,,,,,,,,,,,,
,,,,,,,,2023-08-03_06h20.25.856,HF_wild_card,2022.2.4,Win32,60.15399423,5f8b4560fc6686262722efdb,64b543b0a84ad6ab4a25b86a,64cb390c813a2d78b4dd6557,,,,,,,decisionTrl,resources/DG.BMP,resources/DBN.BMP,Door4,0.156481496,-0.012962977,1,0,0,0.7978,optionRight,60,4505,2,37,0,37,0,1,,,,,,,,,,,,,,,,,,,,,,,,,,,,,,,,,,,,,,,
,,,,,,,,2023-08-03_06h20.25.856,HF_wild_card,2022.2.4,Win32,60.15399423,5f8b4560fc6686262722efdb,64b543b0a84ad6ab4a25b86a,64cb390c813a2d78b4dd6557,,,,,,,sngl,resources/DP.BMP,resources/Empty.png,Door2,-0.274999972,0.018518519,1,0,0,0.7974,optionLeft,20,4525,2,38,0,38,0,1,,,,,,,,,,,,,,,,,,,,,,,,,,,,,,,,,,,,,,,
,,,,,,,,2023-08-03_06h20.25.856,HF_wild_card,2022.2.4,Win32,60.15399423,5f8b4560fc6686262722efdb,64b543b0a84ad6ab4a25b86a,64cb390c813a2d78b4dd6557,,,,,,,decisionTrl,resources/DP.BMP,resources/DY.BMP,Door2,-0.252777735,0.070370356,1,0,0,0.7679,optionLeft,20,4545,2,39,0,39,0,1,,,,,,,,,,,,,,,,,,,,,,,,,,,,,,,,,,,,,,,
,,,,,,,,2023-08-03_06h20.25.856,HF_wild_card,2022.2.4,Win32,60.15399423,5f8b4560fc6686262722efdb,64b543b0a84ad6ab4a25b86a,64cb390c813a2d78b4dd6557,,,,,,,sngl,resources/Empty.png,resources/DP.BMP,Door2,0.184259273,-0.002777771,1,0,0,0.8491,optionRight,40,4585,2,40,0,40,0,1,,,,,,,,,,,,,,,,,,,,,,,,,,,,,,,,,,,,,,,
,,,,,,,,2023-08-03_06h20.25.856,HF_wild_card,2022.2.4,Win32,60.15399423,5f8b4560fc6686262722efdb,64b543b0a84ad6ab4a25b86a,64cb390c813a2d78b4dd6557,,,,,,,ctch,resources/DB.BMP,resources/DP.BMP,Door3,-0.296296296,0.089814822,1,0,0,0.685,optionLeft,70,4655,2,41,0,41,0,1,,,,,,,,,,,,,,,,,,,,,,,,,,,,,,,,,,,,,,,
,,,,,,,,2023-08-03_06h20.25.856,HF_wild_card,2022.2.4,Win32,60.15399423,5f8b4560fc6686262722efdb,64b543b0a84ad6ab4a25b86a,64cb390c813a2d78b4dd6557,,,,,,,decisionTrl,resources/DY.BMP,resources/DP.BMP,Door1,-0.330555563,0.073148127,1,0,0,0.9446,optionLeft,30,4685,2,42,0,42,0,1,,,,,,,,,,,,,,,,,,,,,,,,,,,,,,,,,,,,,,,
,,,,,,,,2023-08-03_06h20.25.856,HF_wild_card,2022.2.4,Win32,60.15399423,5f8b4560fc6686262722efdb,64b543b0a84ad6ab4a25b86a,64cb390c813a2d78b4dd6557,,,,,,,decisionTrl,resources/DBN.BMP,resources/DB.BMP,Door4,-0.279629601,0.063888868,1,0,0,0.7135,optionLeft,80,4765,2,43,0,43,0,1,,,,,,,,,,,,,,,,,,,,,,,,,,,,,,,,,,,,,,,
,,,,,,,,2023-08-03_06h20.25.856,HF_wild_card,2022.2.4,Win32,60.15399423,5f8b4560fc6686262722efdb,64b543b0a84ad6ab4a25b86a,64cb390c813a2d78b4dd6557,,,,,,,,,,,,,,,,,,,,,,,,,,1,0,1,0,1,,,,,,,,,,,,,,,,,,,,,,,,,,,,,,,,,,
,,,,,,,,2023-08-03_06h20.25.856,HF_wild_card,2022.2.4,Win32,60.15399423,5f8b4560fc6686262722efdb,64b543b0a84ad6ab4a25b86a,64cb390c813a2d78b4dd6557,,,,,,,decisionTrl,resources/DG.BMP,resources/DP.BMP,WildCard_Ex,-0.295370384,-0.059259273,1,0,0,0.7447,optionLeft,5,4770,3,0,0,0,0,1,,,,,,,,,,,,,,,,,,,,,,,,,,,,,,,,,,,,,,,
,,,,,,,,2023-08-03_06h20.25.856,HF_wild_card,2022.2.4,Win32,60.15399423,5f8b4560fc6686262722efdb,64b543b0a84ad6ab4a25b86a,64cb390c813a2d78b4dd6557,,,,,,,sngl,resources/Empty.png,resources/DP.BMP,Door2,0.166666667,-0.006481489,1,0,0,0.7644,optionRight,20,4790,3,1,0,1,0,1,,,,,,,,,,,,,,,,,,,,,,,,,,,,,,,,,,,,,,,
,,,,,,,,2023-08-03_06h20.25.856,HF_wild_card,2022.2.4,Win32,60.15399423,5f8b4560fc6686262722efdb,64b543b0a84ad6ab4a25b86a,64cb390c813a2d78b4dd6557,,,,,,,decisionTrl,resources/DG.BMP,resources/DBN.BMP,Door4,0.026851866,-0.0074074,1,0,0,1.1923,optionRight,80,4870,3,2,0,2,0,1,,,,,,,,,,,,,,,,,,,,,,,,,,,,,,,,,,,,,,,
,,,,,,,,2023-08-03_06h20.25.856,HF_wild_card,2022.2.4,Win32,60.15399423,5f8b4560fc6686262722efdb,64b543b0a84ad6ab4a25b86a,64cb390c813a2d78b4dd6557,,,,,,,decisionTrl,resources/DB.BMP,resources/DBN.BMP,Door4,0.222222222,0.067592586,1,0,0,1.0649,optionRight,60,4930,3,3,0,3,0,1,,,,,,,,,,,,,,,,,,,,,,,,,,,,,,,,,,,,,,,
,,,,,,,,2023-08-03_06h20.25.856,HF_wild_card,2022.2.4,Win32,60.15399423,5f8b4560fc6686262722efdb,64b543b0a84ad6ab4a25b86a,64cb390c813a2d78b4dd6557,,,,,,,sngl,resources/Empty.png,resources/DB.BMP,Door3,0.336111139,-0.011111118,1,0,0,0.7295,optionRight,70,5000,3,4,0,4,0,1,,,,,,,,,,,,,,,,,,,,,,,,,,,,,,,,,,,,,,,
,,,,,,,,2023-08-03_06h20.25.856,HF_wild_card,2022.2.4,Win32,60.15399423,5f8b4560fc6686262722efdb,64b543b0a84ad6ab4a25b86a,64cb390c813a2d78b4dd6557,,,,,,,decisionTrl,resources/DY.BMP,resources/DP.BMP,Door1,-0.14444443,-0.015740748,1,0,0,1.2142,optionLeft,30,5030,3,5,0,5,0,1,,,,,,,,,,,,,,,,,,,,,,,,,,,,,,,,,,,,,,,
,,,,,,,,2023-08-03_06h20.25.856,HF_wild_card,2022.2.4,Win32,60.15399423,5f8b4560fc6686262722efdb,64b543b0a84ad6ab4a25b86a,64cb390c813a2d78b4dd6557,,,,,,,ctch,resources/DY.BMP,resources/DBN.BMP,Door4,0.176851838,0.02407406,1,0,0,0.6955,optionRight,80,5110,3,6,0,6,0,1,,,,,,,,,,,,,,,,,,,,,,,,,,,,,,,,,,,,,,,
,,,,,,,,2023-08-03_06h20.25.856,HF_wild_card,2022.2.4,Win32,60.15399423,5f8b4560fc6686262722efdb,64b543b0a84ad6ab4a25b86a,64cb390c813a2d78b4dd6557,,,,,,,decisionTrl,resources/DY.BMP,resources/DG.BMP,WildCard_Ex,0.198148162,-0.001851859,1,0,0,0.8145,optionRight,95,5205,3,7,0,7,0,1,,,,,,,,,,,,,,,,,,,,,,,,,,,,,,,,,,,,,,,
,,,,,,,,2023-08-03_06h20.25.856,HF_wild_card,2022.2.4,Win32,60.15399423,5f8b4560fc6686262722efdb,64b543b0a84ad6ab4a25b86a,64cb390c813a2d78b4dd6557,,,,,,,sngl,resources/DB.BMP,resources/Empty.png,Door3,-0.240740741,-0.011111118,1,0,0,0.6313,optionLeft,70,5275,3,8,0,8,0,1,,,,,,,,,,,,,,,,,,,,,,,,,,,,,,,,,,,,,,,
,,,,,,,,2023-08-03_06h20.25.856,HF_wild_card,2022.2.4,Win32,60.15399423,5f8b4560fc6686262722efdb,64b543b0a84ad6ab4a25b86a,64cb390c813a2d78b4dd6557,,,,,,,decisionTrl,resources/DB.BMP,resources/DBN.BMP,Door4,0.20185188,0.001851859,1,0,0,0.7485,optionRight,60,5335,3,9,0,9,0,1,,,,,,,,,,,,,,,,,,,,,,,,,,,,,,,,,,,,,,,
,,,,,,,,2023-08-03_06h20.25.856,HF_wild_card,2022.2.4,Win32,60.15399423,5f8b4560fc6686262722efdb,64b543b0a84ad6ab4a25b86a,64cb390c813a2d78b4dd6557,,,,,,,decisionTrl,resources/DB.BMP,resources/DBN.BMP,Door4,0.187962991,-0.020370377,1,0,0,0.7483,optionRight,60,5395,3,10,0,10,0,1,,,,,,,,,,,,,,,,,,,,,,,,,,,,,,,,,,,,,,,
,,,,,,,,2023-08-03_06h20.25.856,HF_wild_card,2022.2.4,Win32,60.15399423,5f8b4560fc6686262722efdb,64b543b0a84ad6ab4a25b86a,64cb390c813a2d78b4dd6557,,,,,,,decisionTrl,resources/DBN.BMP,resources/DG.BMP,Door4,-0.25462963,0.020370377,1,0,0,0.7152,optionLeft,80,5475,3,11,0,11,0,1,,,,,,,,,,,,,,,,,,,,,,,,,,,,,,,,,,,,,,,
,,,,,,,,2023-08-03_06h20.25.856,HF_wild_card,2022.2.4,Win32,60.15399423,5f8b4560fc6686262722efdb,64b543b0a84ad6ab4a25b86a,64cb390c813a2d78b4dd6557,,,,,,,decisionTrl,resources/DP.BMP,resources/DG.BMP,WildCard_Ex,0.17777782,0.000925912,1,0,0,0.7308,optionRight,5,5480,3,12,0,12,0,1,,,,,,,,,,,,,,,,,,,,,,,,,,,,,,,,,,,,,,,
,,,,,,,,2023-08-03_06h20.25.856,HF_wild_card,2022.2.4,Win32,60.15399423,5f8b4560fc6686262722efdb,64b543b0a84ad6ab4a25b86a,64cb390c813a2d78b4dd6557,,,,,,,decisionTrl,resources/DBN.BMP,resources/DB.BMP,Door4,-0.316666674,0.074074074,1,0,0,0.9647,optionLeft,60,5540,3,13,0,13,0,1,,,,,,,,,,,,,,,,,,,,,,,,,,,,,,,,,,,,,,,
,,,,,,,,2023-08-03_06h20.25.856,HF_wild_card,2022.2.4,Win32,60.15399423,5f8b4560fc6686262722efdb,64b543b0a84ad6ab4a25b86a,64cb390c813a2d78b4dd6557,,,,,,,sngl,resources/Empty.png,resources/DG.BMP,WildCard_Ex,0.175925926,-0.036111125,1,0,0,0.6821,optionRight,5,5545,3,14,0,14,0,1,,,,,,,,,,,,,,,,,,,,,,,,,,,,,,,,,,,,,,,
,,,,,,,,2023-08-03_06h20.25.856,HF_wild_card,2022.2.4,Win32,60.15399423,5f8b4560fc6686262722efdb,64b543b0a84ad6ab4a25b86a,64cb390c813a2d78b4dd6557,,,,,,,decisionTrl,resources/DG.BMP,resources/DY.BMP,WildCard_Ex,-0.152777778,0.025925919,1,0,0,0.9313,optionLeft,5,5550,3,15,0,15,0,1,,,,,,,,,,,,,,,,,,,,,,,,,,,,,,,,,,,,,,,
,,,,,,,,2023-08-03_06h20.25.856,HF_wild_card,2022.2.4,Win32,60.15399423,5f8b4560fc6686262722efdb,64b543b0a84ad6ab4a25b86a,64cb390c813a2d78b4dd6557,,,,,,,sngl,resources/DBN.BMP,resources/Empty.png,Door4,-0.338888875,0.060185185,1,0,0,0.7479,optionLeft,80,5630,3,16,0,16,0,1,,,,,,,,,,,,,,,,,,,,,,,,,,,,,,,,,,,,,,,
,,,,,,,,2023-08-03_06h20.25.856,HF_wild_card,2022.2.4,Win32,60.15399423,5f8b4560fc6686262722efdb,64b543b0a84ad6ab4a25b86a,64cb390c813a2d78b4dd6557,,,,,,,ctch,resources/DB.BMP,resources/DP.BMP,Door3,-0.148148148,0.00462963,1,0,0,0.9766,optionLeft,70,5700,3,17,0,17,0,1,,,,,,,,,,,,,,,,,,,,,,,,,,,,,,,,,,,,,,,
,,,,,,,,2023-08-03_06h20.25.856,HF_wild_card,2022.2.4,Win32,60.15399423,5f8b4560fc6686262722efdb,64b543b0a84ad6ab4a25b86a,64cb390c813a2d78b4dd6557,,,,,,,decisionTrl,resources/DY.BMP,resources/DP.BMP,Door1,-0.244444459,0.003703683,1,0,0,1.2476,optionLeft,30,5730,3,18,0,18,0,1,,,,,,,,,,,,,,,,,,,,,,,,,,,,,,,,,,,,,,,
,,,,,,,,2023-08-03_06h20.25.856,HF_wild_card,2022.2.4,Win32,60.15399423,5f8b4560fc6686262722efdb,64b543b0a84ad6ab4a25b86a,64cb390c813a2d78b4dd6557,,,,,,,ctch,resources/DP.BMP,resources/DB.BMP,Door3,0.151851866,0.011111118,1,0,0,0.7976,optionRight,70,5800,3,19,0,19,0,1,,,,,,,,,,,,,,,,,,,,,,,,,,,,,,,,,,,,,,,
,,,,,,,,2023-08-03_06h20.25.856,HF_wild_card,2022.2.4,Win32,60.15399423,5f8b4560fc6686262722efdb,64b543b0a84ad6ab4a25b86a,64cb390c813a2d78b4dd6557,,,,,,,decisionTrl,resources/DY.BMP,resources/DP.BMP,Door1,-0.231481481,0.029629637,1,0,0,0.8822,optionLeft,30,5830,3,20,0,20,0,1,,,,,,,,,,,,,,,,,,,,,,,,,,,,,,,,,,,,,,,
,,,,,,,,2023-08-03_06h20.25.856,HF_wild_card,2022.2.4,Win32,60.15399423,5f8b4560fc6686262722efdb,64b543b0a84ad6ab4a25b86a,64cb390c813a2d78b4dd6557,,,,,,,decisionTrl,resources/DG.BMP,resources/DB.BMP,Door3,0.116666653,0.029629637,1,0,0,1.4648,optionRight,70,5900,3,21,0,21,0,1,,,,,,,,,,,,,,,,,,,,,,,,,,,,,,,,,,,,,,,
,,,,,,,,2023-08-03_06h20.25.856,HF_wild_card,2022.2.4,Win32,60.15399423,5f8b4560fc6686262722efdb,64b543b0a84ad6ab4a25b86a,64cb390c813a2d78b4dd6557,,,,,,,sngl,resources/DG.BMP,resources/Empty.png,WildCard_Ex,-0.231481481,0.012962942,1,0,0,0.6154,optionLeft,95,5995,3,22,0,22,0,1,,,,,,,,,,,,,,,,,,,,,,,,,,,,,,,,,,,,,,,
,,,,,,,,2023-08-03_06h20.25.856,HF_wild_card,2022.2.4,Win32,60.15399423,5f8b4560fc6686262722efdb,64b543b0a84ad6ab4a25b86a,64cb390c813a2d78b4dd6557,,,,,,,decisionTrl,resources/DB.BMP,resources/DBN.BMP,Door4,0.198148162,0.042592578,1,0,0,0.9995,optionRight,60,6055,3,23,0,23,0,1,,,,,,,,,,,,,,,,,,,,,,,,,,,,,,,,,,,,,,,
,,,,,,,,2023-08-03_06h20.25.856,HF_wild_card,2022.2.4,Win32,60.15399423,5f8b4560fc6686262722efdb,64b543b0a84ad6ab4a25b86a,64cb390c813a2d78b4dd6557,,,,,,,sngl,resources/Empty.png,resources/DY.BMP,Door1,0.150000042,-0.001851859,1,0,0,0.7996,optionRight,30,6085,3,24,0,24,0,1,,,,,,,,,,,,,,,,,,,,,,,,,,,,,,,,,,,,,,,
,,,,,,,,2023-08-03_06h20.25.856,HF_wild_card,2022.2.4,Win32,60.15399423,5f8b4560fc6686262722efdb,64b543b0a84ad6ab4a25b86a,64cb390c813a2d78b4dd6557,,,,,,,sngl,resources/Empty.png,resources/DBN.BMP,Door4,0.211111139,0.0074074,1,0,0,0.7496,optionRight,60,6145,3,25,0,25,0,1,,,,,,,,,,,,,,,,,,,,,,,,,,,,,,,,,,,,,,,
,,,,,,,,2023-08-03_06h20.25.856,HF_wild_card,2022.2.4,Win32,60.15399423,5f8b4560fc6686262722efdb,64b543b0a84ad6ab4a25b86a,64cb390c813a2d78b4dd6557,,,,,,,ctch,resources/DBN.BMP,resources/DY.BMP,Door4,-0.235185199,0.034259266,1,0,0,0.7991,optionLeft,60,6205,3,26,0,26,0,1,,,,,,,,,,,,,,,,,,,,,,,,,,,,,,,,,,,,,,,
,,,,,,,,2023-08-03_06h20.25.856,HF_wild_card,2022.2.4,Win32,60.15399423,5f8b4560fc6686262722efdb,64b543b0a84ad6ab4a25b86a,64cb390c813a2d78b4dd6557,,,,,,,decisionTrl,resources/DP.BMP,resources/DY.BMP,Door1,0.193518533,0.009259259,1,0,0,0.8816,optionRight,30,6235,3,27,0,27,0,1,,,,,,,,,,,,,,,,,,,,,,,,,,,,,,,,,,,,,,,
,,,,,,,,2023-08-03_06h20.25.856,HF_wild_card,2022.2.4,Win32,60.15399423,5f8b4560fc6686262722efdb,64b543b0a84ad6ab4a25b86a,64cb390c813a2d78b4dd6557,,,,,,,decisionTrl,resources/DBN.BMP,resources/DB.BMP,Door3,0.216666681,0.067592586,1,0,0,1.8149,optionRight,70,6305,3,28,0,28,0,1,,,,,,,,,,,,,,,,,,,,,,,,,,,,,,,,,,,,,,,
,,,,,,,,2023-08-03_06h20.25.856,HF_wild_card,2022.2.4,Win32,60.15399423,5f8b4560fc6686262722efdb,64b543b0a84ad6ab4a25b86a,64cb390c813a2d78b4dd6557,,,,,,,ctch,resources/DP.BMP,resources/DB.BMP,Door3,0.219444487,0.01944443,1,0,0,0.8829,optionRight,70,6375,3,29,0,29,0,1,,,,,,,,,,,,,,,,,,,,,,,,,,,,,,,,,,,,,,,
,,,,,,,,2023-08-03_06h20.25.856,HF_wild_card,2022.2.4,Win32,60.15399423,5f8b4560fc6686262722efdb,64b543b0a84ad6ab4a25b86a,64cb390c813a2d78b4dd6557,,,,,,,ctch,resources/DY.BMP,resources/DBN.BMP,Door4,0.209259245,-0.024074095,1,0,0,0.7472,optionRight,60,6435,3,30,0,30,0,1,,,,,,,,,,,,,,,,,,,,,,,,,,,,,,,,,,,,,,,
,,,,,,,,2023-08-03_06h20.25.856,HF_wild_card,2022.2.4,Win32,60.15399423,5f8b4560fc6686262722efdb,64b543b0a84ad6ab4a25b86a,64cb390c813a2d78b4dd6557,,,,,,,sngl,resources/DP.BMP,resources/Empty.png,Door2,-0.262036995,0.053703697,1,0,0,0.7483,optionLeft,40,6475,3,31,0,31,0,1,,,,,,,,,,,,,,,,,,,,,,,,,,,,,,,,,,,,,,,
,,,,,,,,2023-08-03_06h20.25.856,HF_wild_card,2022.2.4,Win32,60.15399423,5f8b4560fc6686262722efdb,64b543b0a84ad6ab4a25b86a,64cb390c813a2d78b4dd6557,,,,,,,decisionTrl,resources/DY.BMP,resources/DP.BMP,Door1,-0.338888875,0.049074067,1,0,0,1.0652,optionLeft,30,6505,3,32,0,32,0,1,,,,,,,,,,,,,,,,,,,,,,,,,,,,,,,,,,,,,,,
,,,,,,,,2023-08-03_06h20.25.856,HF_wild_card,2022.2.4,Win32,60.15399423,5f8b4560fc6686262722efdb,64b543b0a84ad6ab4a25b86a,64cb390c813a2d78b4dd6557,,,,,,,ctch,resources/DBN.BMP,resources/DY.BMP,Door4,-0.397222201,0.058333326,1,0,0,0.898,optionLeft,60,6565,3,33,0,33,0,1,,,,,,,,,,,,,,,,,,,,,,,,,,,,,,,,,,,,,,,
,,,,,,,,2023-08-03_06h20.25.856,HF_wild_card,2022.2.4,Win32,60.15399423,5f8b4560fc6686262722efdb,64b543b0a84ad6ab4a25b86a,64cb390c813a2d78b4dd6557,,,,,,,decisionTrl,resources/DBN.BMP,resources/DB.BMP,Door3,0.102777764,0.013888889,1,0,0,1.5483,optionRight,70,6635,3,34,0,34,0,1,,,,,,,,,,,,,,,,,,,,,,,,,,,,,,,,,,,,,,,
,,,,,,,,2023-08-03_06h20.25.856,HF_wild_card,2022.2.4,Win32,60.15399423,5f8b4560fc6686262722efdb,64b543b0a84ad6ab4a25b86a,64cb390c813a2d78b4dd6557,,,,,,,decisionTrl,resources/DP.BMP,resources/DY.BMP,Door1,0.252777806,0.006481489,1,0,0,1.0649,optionRight,30,6665,3,35,0,35,0,1,,,,,,,,,,,,,,,,,,,,,,,,,,,,,,,,,,,,,,,
,,,,,,,,2023-08-03_06h20.25.856,HF_wild_card,2022.2.4,Win32,60.15399423,5f8b4560fc6686262722efdb,64b543b0a84ad6ab4a25b86a,64cb390c813a2d78b4dd6557,,,,,,,decisionTrl,resources/DB.BMP,resources/DG.BMP,Door3,-0.276851866,0.012962942,1,0,0,1.5314,optionLeft,70,6735,3,36,0,36,0,1,,,,,,,,,,,,,,,,,,,,,,,,,,,,,,,,,,,,,,,
,,,,,,,,2023-08-03_06h20.25.856,HF_wild_card,2022.2.4,Win32,60.15399423,5f8b4560fc6686262722efdb,64b543b0a84ad6ab4a25b86a,64cb390c813a2d78b4dd6557,,,,,,,decisionTrl,resources/DP.BMP,resources/DY.BMP,Door1,0.283333319,0.072222215,1,0,0,1.2155,optionRight,30,6765,3,37,0,37,0,1,,,,,,,,,,,,,,,,,,,,,,,,,,,,,,,,,,,,,,,
,,,,,,,,2023-08-03_06h20.25.856,HF_wild_card,2022.2.4,Win32,60.15399423,5f8b4560fc6686262722efdb,64b543b0a84ad6ab4a25b86a,64cb390c813a2d78b4dd6557,,,,,,,sngl,resources/Empty.png,resources/DG.BMP,WildCard_Ex,0.318518603,-0.041666667,1,0,0,0.6486,optionRight,95,6860,3,38,0,38,0,1,,,,,,,,,,,,,,,,,,,,,,,,,,,,,,,,,,,,,,,
,,,,,,,,2023-08-03_06h20.25.856,HF_wild_card,2022.2.4,Win32,60.15399423,5f8b4560fc6686262722efdb,64b543b0a84ad6ab4a25b86a,64cb390c813a2d78b4dd6557,,,,,,,sngl,resources/DG.BMP,resources/Empty.png,WildCard_Ex,-0.487037023,0.02870369,1,0,0,0.6343,optionLeft,5,6865,3,39,0,39,0,1,,,,,,,,,,,,,,,,,,,,,,,,,,,,,,,,,,,,,,,
,,,,,,,,2023-08-03_06h20.25.856,HF_wild_card,2022.2.4,Win32,60.15399423,5f8b4560fc6686262722efdb,64b543b0a84ad6ab4a25b86a,64cb390c813a2d78b4dd6557,,,,,,,sngl,resources/DY.BMP,resources/Empty.png,Door1,-0.217592593,0.020370377,1,0,0,0.6813,optionLeft,30,6895,3,40,0,40,0,1,,,,,,,,,,,,,,,,,,,,,,,,,,,,,,,,,,,,,,,
,,,,,,,,2023-08-03_06h20.25.856,HF_wild_card,2022.2.4,Win32,60.15399423,5f8b4560fc6686262722efdb,64b543b0a84ad6ab4a25b86a,64cb390c813a2d78b4dd6557,,,,,,,decisionTrl,resources/DP.BMP,resources/DY.BMP,Door1,0.203703704,0.006481489,1,0,0,0.851,optionRight,30,6925,3,41,0,41,0,1,,,,,,,,,,,,,,,,,,,,,,,,,,,,,,,,,,,,,,,
,,,,,,,,2023-08-03_06h20.25.856,HF_wild_card,2022.2.4,Win32,60.15399423,5f8b4560fc6686262722efdb,64b543b0a84ad6ab4a25b86a,64cb390c813a2d78b4dd6557,,,,,,,ctch,resources/DB.BMP,resources/DP.BMP,Door3,-0.155555513,0.020370377,1,0,0,0.752,optionLeft,70,6995,3,42,0,42,0,1,,,,,,,,,,,,,,,,,,,,,,,,,,,,,,,,,,,,,,,
,,,,,,,,2023-08-03_06h20.25.856,HF_wild_card,2022.2.4,Win32,60.15399423,5f8b4560fc6686262722efdb,64b543b0a84ad6ab4a25b86a,64cb390c813a2d78b4dd6557,,,,,,,decisionTrl,resources/DBN.BMP,resources/DB.BMP,Door3,0.359259288,0.009259259,1,0,0,1.3513,optionRight,70,7065,3,43,0,43,0,1,,,,,,,,,,,,,,,,,,,,,,,,,,,,,,,,,,,,,,,
,,,,,,,,2023-08-03_06h20.25.856,HF_wild_card,2022.2.4,Win32,60.15399423,5f8b4560fc6686262722efdb,64b543b0a84ad6ab4a25b86a,64cb390c813a2d78b4dd6557,,,,,,,,,,,,,,,,,,,,,,,,,,2,0,2,0,1,,,,,,,,,,,,,,,,,,,,,,,,,,,,,,,,,,
,,,,,,,,2023-08-03_06h20.25.856,HF_wild_card,2022.2.4,Win32,60.15399423,5f8b4560fc6686262722efdb,64b543b0a84ad6ab4a25b86a,64cb390c813a2d78b4dd6557,,,,,,,ctch,resources/DBN.BMP,resources/DY.BMP,Door4,-0.172222208,-0.038888896,1,0,0,0.8238,optionLeft,60,7125,4,0,0,0,0,1,,,,,,,,,,,,,,,,,,,,,,,,,,,,,,,,,,,,,,,
,,,,,,,,2023-08-03_06h20.25.856,HF_wild_card,2022.2.4,Win32,60.15399423,5f8b4560fc6686262722efdb,64b543b0a84ad6ab4a25b86a,64cb390c813a2d78b4dd6557,,,,,,,decisionTrl,resources/DP.BMP,resources/DR.BMP,WildCard_NonEx,0.358333305,0.061111097,1,0,0,1.0313,optionRight,55,7180,4,1,0,1,0,1,,,,,,,,,,,,,,,,,,,,,,,,,,,,,,,,,,,,,,,
,,,,,,,,2023-08-03_06h20.25.856,HF_wild_card,2022.2.4,Win32,60.15399423,5f8b4560fc6686262722efdb,64b543b0a84ad6ab4a25b86a,64cb390c813a2d78b4dd6557,,,,,,,decisionTrl,resources/DP.BMP,resources/DY.BMP,Door1,0.265740783,0.015740748,1,0,0,1.0154,optionRight,30,7210,4,2,0,2,0,1,,,,,,,,,,,,,,,,,,,,,,,,,,,,,,,,,,,,,,,
,,,,,,,,2023-08-03_06h20.25.856,HF_wild_card,2022.2.4,Win32,60.15399423,5f8b4560fc6686262722efdb,64b543b0a84ad6ab4a25b86a,64cb390c813a2d78b4dd6557,,,,,,,ctch,resources/DBN.BMP,resources/DY.BMP,Door4,-0.206481439,0.003703683,1,0,0,0.7452,optionLeft,80,7290,4,3,0,3,0,1,,,,,,,,,,,,,,,,,,,,,,,,,,,,,,,,,,,,,,,
,,,,,,,,2023-08-03_06h20.25.856,HF_wild_card,2022.2.4,Win32,60.15399423,5f8b4560fc6686262722efdb,64b543b0a84ad6ab4a25b86a,64cb390c813a2d78b4dd6557,,,,,,,decisionTrl,resources/DBN.BMP,resources/DB.BMP,Door4,-0.257407365,0.021296289,1,0,0,1.018,optionLeft,80,7370,4,4,0,4,0,1,,,,,,,,,,,,,,,,,,,,,,,,,,,,,,,,,,,,,,,
,,,,,,,,2023-08-03_06h20.25.856,HF_wild_card,2022.2.4,Win32,60.15399423,5f8b4560fc6686262722efdb,64b543b0a84ad6ab4a25b86a,64cb390c813a2d78b4dd6557,,,,,,,decisionTrl,resources/DY.BMP,resources/DP.BMP,Door2,0.178703732,0.0074074,1,0,0,0.8313,optionRight,40,7410,4,5,0,5,0,1,,,,,,,,,,,,,,,,,,,,,,,,,,,,,,,,,,,,,,,
,,,,,,,,2023-08-03_06h20.25.856,HF_wild_card,2022.2.4,Win32,60.15399423,5f8b4560fc6686262722efdb,64b543b0a84ad6ab4a25b86a,64cb390c813a2d78b4dd6557,,,,,,,ctch,resources/DP.BMP,resources/DB.BMP,Door3,0.218518504,0.03148146,1,0,0,0.8978,optionRight,70,7480,4,6,0,6,0,1,,,,,,,,,,,,,,,,,,,,,,,,,,,,,,,,,,,,,,,
,,,,,,,,2023-08-03_06h20.25.856,HF_wild_card,2022.2.4,Win32,60.15399423,5f8b4560fc6686262722efdb,64b543b0a84ad6ab4a25b86a,64cb390c813a2d78b4dd6557,,,,,,,decisionTrl,resources/DP.BMP,resources/DY.BMP,Door2,-0.251851824,0.001851859,1,0,0,0.9965,optionLeft,40,7520,4,7,0,7,0,1,,,,,,,,,,,,,,,,,,,,,,,,,,,,,,,,,,,,,,,
,,,,,,,,2023-08-03_06h20.25.856,HF_wild_card,2022.2.4,Win32,60.15399423,5f8b4560fc6686262722efdb,64b543b0a84ad6ab4a25b86a,64cb390c813a2d78b4dd6557,,,,,,,decisionTrl,resources/DY.BMP,resources/DP.BMP,Door2,0.275925954,0.0074074,1,0,0,1.2142,optionRight,40,7560,4,8,0,8,0,1,,,,,,,,,,,,,,,,,,,,,,,,,,,,,,,,,,,,,,,
,,,,,,,,2023-08-03_06h20.25.856,HF_wild_card,2022.2.4,Win32,60.15399423,5f8b4560fc6686262722efdb,64b543b0a84ad6ab4a25b86a,64cb390c813a2d78b4dd6557,,,,,,,sngl,resources/DBN.BMP,resources/Empty.png,Door4,-0.266666624,0.012962942,1,0,0,0.6643,optionLeft,60,7620,4,9,0,9,0,1,,,,,,,,,,,,,,,,,,,,,,,,,,,,,,,,,,,,,,,
,,,,,,,,2023-08-03_06h20.25.856,HF_wild_card,2022.2.4,Win32,60.15399423,5f8b4560fc6686262722efdb,64b543b0a84ad6ab4a25b86a,64cb390c813a2d78b4dd6557,,,,,,,decisionTrl,resources/DB.BMP,resources/DBN.BMP,Door3,-0.178703661,0.01203703,1,0,0,0.8646,optionLeft,70,7690,4,10,0,10,0,1,,,,,,,,,,,,,,,,,,,,,,,,,,,,,,,,,,,,,,,
,,,,,,,,2023-08-03_06h20.25.856,HF_wild_card,2022.2.4,Win32,60.15399423,5f8b4560fc6686262722efdb,64b543b0a84ad6ab4a25b86a,64cb390c813a2d78b4dd6557,,,,,,,decisionTrl,resources/DR.BMP,resources/DP.BMP,WildCard_NonEx,-0.355555534,-0.009259259,1,0,0,1.398,optionLeft,45,7735,4,11,0,11,0,1,,,,,,,,,,,,,,,,,,,,,,,,,,,,,,,,,,,,,,,
,,,,,,,,2023-08-03_06h20.25.856,HF_wild_card,2022.2.4,Win32,60.15399423,5f8b4560fc6686262722efdb,64b543b0a84ad6ab4a25b86a,64cb390c813a2d78b4dd6557,,,,,,,ctch,resources/DB.BMP,resources/DP.BMP,Door3,-0.331481474,0.009259259,1,0,0,0.8182,optionLeft,70,7805,4,12,0,12,0,1,,,,,,,,,,,,,,,,,,,,,,,,,,,,,,,,,,,,,,,
,,,,,,,,2023-08-03_06h20.25.856,HF_wild_card,2022.2.4,Win32,60.15399423,5f8b4560fc6686262722efdb,64b543b0a84ad6ab4a25b86a,64cb390c813a2d78b4dd6557,,,,,,,sngl,resources/Empty.png,resources/DR.BMP,WildCard_NonEx,0.416666667,-0.038888896,1,0,0,0.8141,optionRight,45,7850,4,13,0,13,0,1,,,,,,,,,,,,,,,,,,,,,,,,,,,,,,,,,,,,,,,
,,,,,,,,2023-08-03_06h20.25.856,HF_wild_card,2022.2.4,Win32,60.15399423,5f8b4560fc6686262722efdb,64b543b0a84ad6ab4a25b86a,64cb390c813a2d78b4dd6557,,,,,,,decisionTrl,resources/DBN.BMP,resources/DR.BMP,Door4,-0.178703661,-0.028703725,1,0,0,0.7246,optionLeft,60,7910,4,14,0,14,0,1,,,,,,,,,,,,,,,,,,,,,,,,,,,,,,,,,,,,,,,
,,,,,,,,2023-08-03_06h20.25.856,HF_wild_card,2022.2.4,Win32,60.15399423,5f8b4560fc6686262722efdb,64b543b0a84ad6ab4a25b86a,64cb390c813a2d78b4dd6557,,,,,,,decisionTrl,resources/DR.BMP,resources/DY.BMP,WildCard_NonEx,-0.172222208,-0.046296296,1,0,0,0.9116,optionLeft,45,7955,4,15,0,15,0,1,,,,,,,,,,,,,,,,,,,,,,,,,,,,,,,,,,,,,,,
,,,,,,,,2023-08-03_06h20.25.856,HF_wild_card,2022.2.4,Win32,60.15399423,5f8b4560fc6686262722efdb,64b543b0a84ad6ab4a25b86a,64cb390c813a2d78b4dd6557,,,,,,,decisionTrl,resources/DY.BMP,resources/DP.BMP,Door2,0.125925912,0.044444437,1,0,0,1.2942,optionRight,20,7975,4,16,0,16,0,1,,,,,,,,,,,,,,,,,,,,,,,,,,,,,,,,,,,,,,,
,,,,,,,,2023-08-03_06h20.25.856,HF_wild_card,2022.2.4,Win32,60.15399423,5f8b4560fc6686262722efdb,64b543b0a84ad6ab4a25b86a,64cb390c813a2d78b4dd6557,,,,,,,decisionTrl,resources/DBN.BMP,resources/DB.BMP,Door4,-0.228703675,0.037962949,1,0,0,0.9641,optionLeft,60,8035,4,17,0,17,0,1,,,,,,,,,,,,,,,,,,,,,,,,,,,,,,,,,,,,,,,
,,,,,,,,2023-08-03_06h20.25.856,HF_wild_card,2022.2.4,Win32,60.15399423,5f8b4560fc6686262722efdb,64b543b0a84ad6ab4a25b86a,64cb390c813a2d78b4dd6557,,,,,,,decisionTrl,resources/DBN.BMP,resources/DB.BMP,Door3,0.154629672,0,1,0,0,0.932,optionRight,70,8105,4,18,0,18,0,1,,,,,,,,,,,,,,,,,,,,,,,,,,,,,,,,,,,,,,,
,,,,,,,,2023-08-03_06h20.25.856,HF_wild_card,2022.2.4,Win32,60.15399423,5f8b4560fc6686262722efdb,64b543b0a84ad6ab4a25b86a,64cb390c813a2d78b4dd6557,,,,,,,decisionTrl,resources/DR.BMP,resources/DB.BMP,Door3,0.193518533,0.01944443,1,0,0,1.1621,optionRight,70,8175,4,19,0,19,0,1,,,,,,,,,,,,,,,,,,,,,,,,,,,,,,,,,,,,,,,
,,,,,,,,2023-08-03_06h20.25.856,HF_wild_card,2022.2.4,Win32,60.15399423,5f8b4560fc6686262722efdb,64b543b0a84ad6ab4a25b86a,64cb390c813a2d78b4dd6557,,,,,,,decisionTrl,resources/DP.BMP,resources/DY.BMP,Door1,0.132407436,0.049999979,1,0,0,1.2143,optionRight,30,8205,4,20,0,20,0,1,,,,,,,,,,,,,,,,,,,,,,,,,,,,,,,,,,,,,,,
,,,,,,,,2023-08-03_06h20.25.856,HF_wild_card,2022.2.4,Win32,60.15399423,5f8b4560fc6686262722efdb,64b543b0a84ad6ab4a25b86a,64cb390c813a2d78b4dd6557,,,,,,,decisionTrl,resources/DR.BMP,resources/DBN.BMP,Door4,0.185185185,0.099074081,1,0,0,1.2319,optionRight,60,8265,4,21,0,21,0,1,,,,,,,,,,,,,,,,,,,,,,,,,,,,,,,,,,,,,,,
,,,,,,,,2023-08-03_06h20.25.856,HF_wild_card,2022.2.4,Win32,60.15399423,5f8b4560fc6686262722efdb,64b543b0a84ad6ab4a25b86a,64cb390c813a2d78b4dd6557,,,,,,,ctch,resources/DY.BMP,resources/DBN.BMP,Door4,0.275000042,0.034259266,1,0,0,0.6648,optionRight,60,8325,4,22,0,22,0,1,,,,,,,,,,,,,,,,,,,,,,,,,,,,,,,,,,,,,,,
,,,,,,,,2023-08-03_06h20.25.856,HF_wild_card,2022.2.4,Win32,60.15399423,5f8b4560fc6686262722efdb,64b543b0a84ad6ab4a25b86a,64cb390c813a2d78b4dd6557,,,,,,,ctch,resources/DB.BMP,resources/DP.BMP,Door3,-0.274999972,0.018518519,1,0,0,0.8177,optionLeft,70,8395,4,23,0,23,0,1,,,,,,,,,,,,,,,,,,,,,,,,,,,,,,,,,,,,,,,
,,,,,,,,2023-08-03_06h20.25.856,HF_wild_card,2022.2.4,Win32,60.15399423,5f8b4560fc6686262722efdb,64b543b0a84ad6ab4a25b86a,64cb390c813a2d78b4dd6557,,,,,,,decisionTrl,resources/DB.BMP,resources/DBN.BMP,Door3,-0.337037016,0.026851831,1,0,0,1.4272,optionLeft,70,8465,4,24,0,24,0,1,,,,,,,,,,,,,,,,,,,,,,,,,,,,,,,,,,,,,,,
,,,,,,,,2023-08-03_06h20.25.856,HF_wild_card,2022.2.4,Win32,60.15399423,5f8b4560fc6686262722efdb,64b543b0a84ad6ab4a25b86a,64cb390c813a2d78b4dd6557,,,,,,,ctch,resources/DP.BMP,resources/DB.BMP,Door3,0.142592607,0.003703683,1,0,0,0.948,optionRight,70,8535,4,25,0,25,0,1,,,,,,,,,,,,,,,,,,,,,,,,,,,,,,,,,,,,,,,
,,,,,,,,2023-08-03_06h20.25.856,HF_wild_card,2022.2.4,Win32,60.15399423,5f8b4560fc6686262722efdb,64b543b0a84ad6ab4a25b86a,64cb390c813a2d78b4dd6557,,,,,,,sngl,resources/Empty.png,resources/DR.BMP,WildCard_NonEx,0.255555541,0.000925912,1,0,0,0.7812,optionRight,55,8590,4,26,0,26,0,1,,,,,,,,,,,,,,,,,,,,,,,,,,,,,,,,,,,,,,,
,,,,,,,,2023-08-03_06h20.25.856,HF_wild_card,2022.2.4,Win32,60.15399423,5f8b4560fc6686262722efdb,64b543b0a84ad6ab4a25b86a,64cb390c813a2d78b4dd6557,,,,,,,decisionTrl,resources/DY.BMP,resources/DP.BMP,Door1,-0.185185185,0.030555548,1,0,0,1.1642,optionLeft,30,8620,4,27,0,27,0,1,,,,,,,,,,,,,,,,,,,,,,,,,,,,,,,,,,,,,,,
,,,,,,,,2023-08-03_06h20.25.856,HF_wild_card,2022.2.4,Win32,60.15399423,5f8b4560fc6686262722efdb,64b543b0a84ad6ab4a25b86a,64cb390c813a2d78b4dd6557,,,,,,,decisionTrl,resources/DY.BMP,resources/DR.BMP,WildCard_NonEx,0.257407436,0.046296296,1,0,0,1.0983,optionRight,55,8675,4,28,0,28,0,1,,,,,,,,,,,,,,,,,,,,,,,,,,,,,,,,,,,,,,,
,,,,,,,,2023-08-03_06h20.25.856,HF_wild_card,2022.2.4,Win32,60.15399423,5f8b4560fc6686262722efdb,64b543b0a84ad6ab4a25b86a,64cb390c813a2d78b4dd6557,,,,,,,sngl,resources/DY.BMP,resources/Empty.png,Door1,-0.22592594,0.008333312,1,0,0,0.7977,optionLeft,30,8705,4,29,0,29,0,1,,,,,,,,,,,,,,,,,,,,,,,,,,,,,,,,,,,,,,,
,,,,,,,,2023-08-03_06h20.25.856,HF_wild_card,2022.2.4,Win32,60.15399423,5f8b4560fc6686262722efdb,64b543b0a84ad6ab4a25b86a,64cb390c813a2d78b4dd6557,,,,,,,decisionTrl,resources/DB.BMP,resources/DBN.BMP,Door4,0.166666667,-0.014814836,1,0,0,0.9485,optionRight,80,8785,4,30,0,30,0,1,,,,,,,,,,,,,,,,,,,,,,,,,,,,,,,,,,,,,,,
,,,,,,,,2023-08-03_06h20.25.856,HF_wild_card,2022.2.4,Win32,60.15399423,5f8b4560fc6686262722efdb,64b543b0a84ad6ab4a25b86a,64cb390c813a2d78b4dd6557,,,,,,,sngl,resources/DB.BMP,resources/Empty.png,Door3,-0.138888889,-0.033333355,1,0,0,0.6649,optionLeft,70,8855,4,31,0,31,0,1,,,,,,,,,,,,,,,,,,,,,,,,,,,,,,,,,,,,,,,
,,,,,,,,2023-08-03_06h20.25.856,HF_wild_card,2022.2.4,Win32,60.15399423,5f8b4560fc6686262722efdb,64b543b0a84ad6ab4a25b86a,64cb390c813a2d78b4dd6557,,,,,,,sngl,resources/DP.BMP,resources/Empty.png,Door2,-0.237962935,0.020370377,1,0,0,0.6487,optionLeft,20,8875,4,32,0,32,0,1,,,,,,,,,,,,,,,,,,,,,,,,,,,,,,,,,,,,,,,
,,,,,,,,2023-08-03_06h20.25.856,HF_wild_card,2022.2.4,Win32,60.15399423,5f8b4560fc6686262722efdb,64b543b0a84ad6ab4a25b86a,64cb390c813a2d78b4dd6557,,,,,,,decisionTrl,resources/DB.BMP,resources/DR.BMP,Door3,-0.199999986,0.008333312,1,0,0,1.1483,optionLeft,70,8945,4,33,0,33,0,1,,,,,,,,,,,,,,,,,,,,,,,,,,,,,,,,,,,,,,,
,,,,,,,,2023-08-03_06h20.25.856,HF_wild_card,2022.2.4,Win32,60.15399423,5f8b4560fc6686262722efdb,64b543b0a84ad6ab4a25b86a,64cb390c813a2d78b4dd6557,,,,,,,sngl,resources/Empty.png,resources/DY.BMP,Door1,0.268518519,-0.000925947,1,0,0,0.6971,optionRight,30,8975,4,34,0,34,0,1,,,,,,,,,,,,,,,,,,,,,,,,,,,,,,,,,,,,,,,
,,,,,,,,2023-08-03_06h20.25.856,HF_wild_card,2022.2.4,Win32,60.15399423,5f8b4560fc6686262722efdb,64b543b0a84ad6ab4a25b86a,64cb390c813a2d78b4dd6557,,,,,,,decisionTrl,resources/DBN.BMP,resources/DB.BMP,Door4,-0.209259245,-0.017592607,1,0,0,0.7314,optionLeft,60,9035,4,35,0,35,0,1,,,,,,,,,,,,,,,,,,,,,,,,,,,,,,,,,,,,,,,
,,,,,,,,2023-08-03_06h20.25.856,HF_wild_card,2022.2.4,Win32,60.15399423,5f8b4560fc6686262722efdb,64b543b0a84ad6ab4a25b86a,64cb390c813a2d78b4dd6557,,,,,,,decisionTrl,resources/DP.BMP,resources/DY.BMP,Door2,-0.240740741,0.01666666,1,0,0,1.998,optionLeft,40,9075,4,36,0,36,0,1,,,,,,,,,,,,,,,,,,,,,,,,,,,,,,,,,,,,,,,
,,,,,,,,2023-08-03_06h20.25.856,HF_wild_card,2022.2.4,Win32,60.15399423,5f8b4560fc6686262722efdb,64b543b0a84ad6ab4a25b86a,64cb390c813a2d78b4dd6557,,,,,,,sngl,resources/Empty.png,resources/DB.BMP,Door3,0.312962991,-0.034259266,1,0,0,0.88,optionRight,70,9145,4,37,0,37,0,1,,,,,,,,,,,,,,,,,,,,,,,,,,,,,,,,,,,,,,,
,,,,,,,,2023-08-03_06h20.25.856,HF_wild_card,2022.2.4,Win32,60.15399423,5f8b4560fc6686262722efdb,64b543b0a84ad6ab4a25b86a,64cb390c813a2d78b4dd6557,,,,,,,sngl,resources/DR.BMP,resources/Empty.png,WildCard_NonEx,-0.255555541,-0.026851866,1,0,0,0.6315,optionLeft,45,9190,4,38,0,38,0,1,,,,,,,,,,,,,,,,,,,,,,,,,,,,,,,,,,,,,,,
,,,,,,,,2023-08-03_06h20.25.856,HF_wild_card,2022.2.4,Win32,60.15399423,5f8b4560fc6686262722efdb,64b543b0a84ad6ab4a25b86a,64cb390c813a2d78b4dd6557,,,,,,,decisionTrl,resources/DB.BMP,resources/DBN.BMP,Door4,0.247222265,-0.005555577,1,0,0,1.7308,optionRight,80,9270,4,39,0,39,0,1,,,,,,,,,,,,,,,,,,,,,,,,,,,,,,,,,,,,,,,
,,,,,,,,2023-08-03_06h20.25.856,HF_wild_card,2022.2.4,Win32,60.15399423,5f8b4560fc6686262722efdb,64b543b0a84ad6ab4a25b86a,64cb390c813a2d78b4dd6557,,,,,,,ctch,resources/DY.BMP,resources/DBN.BMP,Door4,0.300000085,0.037037037,1,0,0,0.7319,optionRight,80,9350,4,40,0,40,0,1,,,,,,,,,,,,,,,,,,,,,,,,,,,,,,,,,,,,,,,
,,,,,,,,2023-08-03_06h20.25.856,HF_wild_card,2022.2.4,Win32,60.15399423,5f8b4560fc6686262722efdb,64b543b0a84ad6ab4a25b86a,64cb390c813a2d78b4dd6557,,,,,,,sngl,resources/DR.BMP,resources/Empty.png,WildCard_NonEx,-0.294444402,0.026851831,1,0,0,0.7029,optionLeft,55,9405,4,41,0,41,0,1,,,,,,,,,,,,,,,,,,,,,,,,,,,,,,,,,,,,,,,
,,,,,,,,2023-08-03_06h20.25.856,HF_wild_card,2022.2.4,Win32,60.15399423,5f8b4560fc6686262722efdb,64b543b0a84ad6ab4a25b86a,64cb390c813a2d78b4dd6557,,,,,,,sngl,resources/Empty.png,resources/DBN.BMP,Door4,0.279629672,0.003703683,1,0,0,0.614,optionRight,80,9485,4,42,0,42,0,1,,,,,,,,,,,,,,,,,,,,,,,,,,,,,,,,,,,,,,,
,,,,,,,,2023-08-03_06h20.25.856,HF_wild_card,2022.2.4,Win32,60.15399423,5f8b4560fc6686262722efdb,64b543b0a84ad6ab4a25b86a,64cb390c813a2d78b4dd6557,,,,,,,sngl,resources/Empty.png,resources/DP.BMP,Door2,0.351851852,0.054629608,1,0,0,0.6804,optionRight,40,9525,4,43,0,43,0,1,,,,,,,,,,,,,,,,,,,,,,,,,,,,,,,,,,,,,,,
,,,,,,,,2023-08-03_06h20.25.856,HF_wild_card,2022.2.4,Win32,60.15399423,5f8b4560fc6686262722efdb,64b543b0a84ad6ab4a25b86a,64cb390c813a2d78b4dd6557,,,,,,,,,,,,,,,,,,,,,,,,,,3,0,3,0,1,,,,,,,,,,,,,,,,,,,,,,,,,,,,,,,,,,
,,,,,,,,2023-08-03_06h20.25.856,HF_wild_card,2022.2.4,Win32,60.15399423,5f8b4560fc6686262722efdb,64b543b0a84ad6ab4a25b86a,64cb390c813a2d78b4dd6557,,,,,,,decisionTrl,resources/DB.BMP,resources/DBN.BMP,Door4,0.306481538,0.042592578,1,0,0,1.1611,optionRight,80,9605,5,0,0,0,0,1,,,,,,,,,,,,,,,,,,,,,,,,,,,,,,,,,,,,,,,
,,,,,,,,2023-08-03_06h20.25.856,HF_wild_card,2022.2.4,Win32,60.15399423,5f8b4560fc6686262722efdb,64b543b0a84ad6ab4a25b86a,64cb390c813a2d78b4dd6557,,,,,,,decisionTrl,resources/DB.BMP,resources/DBN.BMP,Door4,0.211111139,0.009259259,1,0,0,0.7317,optionRight,60,9665,5,1,0,1,0,1,,,,,,,,,,,,,,,,,,,,,,,,,,,,,,,,,,,,,,,
,,,,,,,,2023-08-03_06h20.25.856,HF_wild_card,2022.2.4,Win32,60.15399423,5f8b4560fc6686262722efdb,64b543b0a84ad6ab4a25b86a,64cb390c813a2d78b4dd6557,,,,,,,decisionTrl,resources/DBN.BMP,resources/DB.BMP,Door4,-0.135185171,-0.01666666,1,0,0,1.048,optionLeft,80,9745,5,2,0,2,0,1,,,,,,,,,,,,,,,,,,,,,,,,,,,,,,,,,,,,,,,
,,,,,,,,2023-08-03_06h20.25.856,HF_wild_card,2022.2.4,Win32,60.15399423,5f8b4560fc6686262722efdb,64b543b0a84ad6ab4a25b86a,64cb390c813a2d78b4dd6557,,,,,,,ctch,resources/DBN.BMP,resources/DY.BMP,Door4,-0.308333326,0.023148148,1,0,0,0.6481,optionLeft,80,9825,5,3,0,3,0,1,,,,,,,,,,,,,,,,,,,,,,,,,,,,,,,,,,,,,,,
,,,,,,,,2023-08-03_06h20.25.856,HF_wild_card,2022.2.4,Win32,60.15399423,5f8b4560fc6686262722efdb,64b543b0a84ad6ab4a25b86a,64cb390c813a2d78b4dd6557,,,,,,,sngl,resources/Empty.png,resources/DY.BMP,Door1,0.157407407,-0.039814808,1,0,0,0.6981,optionRight,30,9855,5,4,0,4,0,1,,,,,,,,,,,,,,,,,,,,,,,,,,,,,,,,,,,,,,,
,,,,,,,,2023-08-03_06h20.25.856,HF_wild_card,2022.2.4,Win32,60.15399423,5f8b4560fc6686262722efdb,64b543b0a84ad6ab4a25b86a,64cb390c813a2d78b4dd6557,,,,,,,ctch,resources/DY.BMP,resources/DBN.BMP,Door4,0.196296339,0.022222201,1,0,0,0.7458,optionRight,60,9915,5,5,0,5,0,1,,,,,,,,,,,,,,,,,,,,,,,,,,,,,,,,,,,,,,,
,,,,,,,,2023-08-03_06h20.25.856,HF_wild_card,2022.2.4,Win32,60.15399423,5f8b4560fc6686262722efdb,64b543b0a84ad6ab4a25b86a,64cb390c813a2d78b4dd6557,,,,,,,decisionTrl,resources/DP.BMP,resources/DY.BMP,Door2,-0.139814801,0.006481489,1,0,0,1.1974,optionLeft,40,9955,5,6,0,6,0,1,,,,,,,,,,,,,,,,,,,,,,,,,,,,,,,,,,,,,,,
,,,,,,,,2023-08-03_06h20.25.856,HF_wild_card,2022.2.4,Win32,60.15399423,5f8b4560fc6686262722efdb,64b543b0a84ad6ab4a25b86a,64cb390c813a2d78b4dd6557,,,,,,,ctch,resources/DY.BMP,resources/DBN.BMP,Door4,0.187037079,0,1,0,0,0.8288,optionRight,60,10015,5,7,0,7,0,1,,,,,,,,,,,,,,,,,,,,,,,,,,,,,,,,,,,,,,,
,,,,,,,,2023-08-03_06h20.25.856,HF_wild_card,2022.2.4,Win32,60.15399423,5f8b4560fc6686262722efdb,64b543b0a84ad6ab4a25b86a,64cb390c813a2d78b4dd6557,,,,,,,sngl,resources/Empty.png,resources/DBN.BMP,Door4,0.354629658,-0.005555577,1,0,0,0.6817,optionRight,60,10075,5,8,0,8,0,1,,,,,,,,,,,,,,,,,,,,,,,,,,,,,,,,,,,,,,,
,,,,,,,,2023-08-03_06h20.25.856,HF_wild_card,2022.2.4,Win32,60.15399423,5f8b4560fc6686262722efdb,64b543b0a84ad6ab4a25b86a,64cb390c813a2d78b4dd6557,,,,,,,decisionTrl,resources/DB.BMP,resources/DR.BMP,Door3,-0.485185164,0.003703683,1,0,0,1.1144,optionLeft,70,10145,5,9,0,9,0,1,,,,,,,,,,,,,,,,,,,,,,,,,,,,,,,,,,,,,,,
,,,,,,,,2023-08-03_06h20.25.856,HF_wild_card,2022.2.4,Win32,60.15399423,5f8b4560fc6686262722efdb,64b543b0a84ad6ab4a25b86a,64cb390c813a2d78b4dd6557,,,,,,,decisionTrl,resources/DR.BMP,resources/DBN.BMP,Door4,0.281481496,-0.034259266,1,0,0,0.9651,optionRight,60,10205,5,10,0,10,0,1,,,,,,,,,,,,,,,,,,,,,,,,,,,,,,,,,,,,,,,
,,,,,,,,2023-08-03_06h20.25.856,HF_wild_card,2022.2.4,Win32,60.15399423,5f8b4560fc6686262722efdb,64b543b0a84ad6ab4a25b86a,64cb390c813a2d78b4dd6557,,,,,,,sngl,resources/DP.BMP,resources/Empty.png,Door2,-0.210185157,-0.020370377,1,0,0,0.6986,optionLeft,40,10245,5,11,0,11,0,1,,,,,,,,,,,,,,,,,,,,,,,,,,,,,,,,,,,,,,,
,,,,,,,,2023-08-03_06h20.25.856,HF_wild_card,2022.2.4,Win32,60.15399423,5f8b4560fc6686262722efdb,64b543b0a84ad6ab4a25b86a,64cb390c813a2d78b4dd6557,,,,,,,decisionTrl,resources/DR.BMP,resources/DY.BMP,WildCard_NonEx,-0.243518476,0.000925912,1,0,0,1.1151,optionLeft,55,10300,5,12,0,12,0,1,,,,,,,,,,,,,,,,,,,,,,,,,,,,,,,,,,,,,,,
,,,,,,,,2023-08-03_06h20.25.856,HF_wild_card,2022.2.4,Win32,60.15399423,5f8b4560fc6686262722efdb,64b543b0a84ad6ab4a25b86a,64cb390c813a2d78b4dd6557,,,,,,,decisionTrl,resources/DB.BMP,resources/DBN.BMP,Door4,0.162962949,0.027777778,1,0,0,1.2486,optionRight,60,10360,5,13,0,13,0,1,,,,,,,,,,,,,,,,,,,,,,,,,,,,,,,,,,,,,,,
,,,,,,,,2023-08-03_06h20.25.856,HF_wild_card,2022.2.4,Win32,60.15399423,5f8b4560fc6686262722efdb,64b543b0a84ad6ab4a25b86a,64cb390c813a2d78b4dd6557,,,,,,,decisionTrl,resources/DY.BMP,resources/DP.BMP,Door2,0.207407422,0.025925919,1,0,0,1.3639,optionRight,20,10380,5,14,0,14,0,1,,,,,,,,,,,,,,,,,,,,,,,,,,,,,,,,,,,,,,,
,,,,,,,,2023-08-03_06h20.25.856,HF_wild_card,2022.2.4,Win32,60.15399423,5f8b4560fc6686262722efdb,64b543b0a84ad6ab4a25b86a,64cb390c813a2d78b4dd6557,,,,,,,decisionTrl,resources/DY.BMP,resources/DP.BMP,Door1,-0.23055557,0.015740748,1,0,0,1.2155,optionLeft,30,10410,5,15,0,15,0,1,,,,,,,,,,,,,,,,,,,,,,,,,,,,,,,,,,,,,,,
,,,,,,,,2023-08-03_06h20.25.856,HF_wild_card,2022.2.4,Win32,60.15399423,5f8b4560fc6686262722efdb,64b543b0a84ad6ab4a25b86a,64cb390c813a2d78b4dd6557,,,,,,,sngl,resources/Empty.png,resources/DB.BMP,Door3,0.181481467,-0.019444466,1,0,0,0.6641,optionRight,70,10480,5,16,0,16,0,1,,,,,,,,,,,,,,,,,,,,,,,,,,,,,,,,,,,,,,,
,,,,,,,,2023-08-03_06h20.25.856,HF_wild_card,2022.2.4,Win32,60.15399423,5f8b4560fc6686262722efdb,64b543b0a84ad6ab4a25b86a,64cb390c813a2d78b4dd6557,,,,,,,decisionTrl,resources/DBN.BMP,resources/DB.BMP,Door4,-0.143518519,-0.011111118,1,0,0,1.0649,optionLeft,60,10540,5,17,0,17,0,1,,,,,,,,,,,,,,,,,,,,,,,,,,,,,,,,,,,,,,,
,,,,,,,,2023-08-03_06h20.25.856,HF_wild_card,2022.2.4,Win32,60.15399423,5f8b4560fc6686262722efdb,64b543b0a84ad6ab4a25b86a,64cb390c813a2d78b4dd6557,,,,,,,sngl,resources/DY.BMP,resources/Empty.png,Door1,-0.199074074,-0.012962977,1,0,0,0.7309,optionLeft,30,10570,5,18,0,18,0,1,,,,,,,,,,,,,,,,,,,,,,,,,,,,,,,,,,,,,,,
,,,,,,,,2023-08-03_06h20.25.856,HF_wild_card,2022.2.4,Win32,60.15399423,5f8b4560fc6686262722efdb,64b543b0a84ad6ab4a25b86a,64cb390c813a2d78b4dd6557,,,,,,,ctch,resources/DP.BMP,resources/DB.BMP,Door3,0.234259288,0.037037037,1,0,0,0.8487,optionRight,70,10640,5,19,0,19,0,1,,,,,,,,,,,,,,,,,,,,,,,,,,,,,,,,,,,,,,,
,,,,,,,,2023-08-03_06h20.25.856,HF_wild_card,2022.2.4,Win32,60.15399423,5f8b4560fc6686262722efdb,64b543b0a84ad6ab4a25b86a,64cb390c813a2d78b4dd6557,,,,,,,decisionTrl,resources/DR.BMP,resources/DB.BMP,Door3,0.271296325,-0.024074095,1,0,0,0.5973,optionRight,70,10710,5,20,0,20,0,1,,,,,,,,,,,,,,,,,,,,,,,,,,,,,,,,,,,,,,,
,,,,,,,,2023-08-03_06h20.25.856,HF_wild_card,2022.2.4,Win32,60.15399423,5f8b4560fc6686262722efdb,64b543b0a84ad6ab4a25b86a,64cb390c813a2d78b4dd6557,,,,,,,decisionTrl,resources/DY.BMP,resources/DP.BMP,Door1,-0.17777775,-0.001851859,1,0,0,1.1145,optionLeft,30,10740,5,21,0,21,0,1,,,,,,,,,,,,,,,,,,,,,,,,,,,,,,,,,,,,,,,
,,,,,,,,2023-08-03_06h20.25.856,HF_wild_card,2022.2.4,Win32,60.15399423,5f8b4560fc6686262722efdb,64b543b0a84ad6ab4a25b86a,64cb390c813a2d78b4dd6557,,,,,,,decisionTrl,resources/DR.BMP,resources/DP.BMP,WildCard_NonEx,-0.262962977,-0.011111118,1,0,0,0.8144,optionLeft,45,10785,5,22,0,22,0,1,,,,,,,,,,,,,,,,,,,,,,,,,,,,,,,,,,,,,,,
,,,,,,,,2023-08-03_06h20.25.856,HF_wild_card,2022.2.4,Win32,60.15399423,5f8b4560fc6686262722efdb,64b543b0a84ad6ab4a25b86a,64cb390c813a2d78b4dd6557,,,,,,,decisionTrl,resources/DB.BMP,resources/DBN.BMP,Door4,0.212962963,0.01203703,1,0,0,1.1475,optionRight,60,10845,5,23,0,23,0,1,,,,,,,,,,,,,,,,,,,,,,,,,,,,,,,,,,,,,,,
,,,,,,,,2023-08-03_06h20.25.856,HF_wild_card,2022.2.4,Win32,60.15399423,5f8b4560fc6686262722efdb,64b543b0a84ad6ab4a25b86a,64cb390c813a2d78b4dd6557,,,,,,,ctch,resources/DB.BMP,resources/DP.BMP,Door3,-0.169444402,-0.0074074,1,0,0,0.7148,optionLeft,70,10915,5,24,0,24,0,1,,,,,,,,,,,,,,,,,,,,,,,,,,,,,,,,,,,,,,,
,,,,,,,,2023-08-03_06h20.25.856,HF_wild_card,2022.2.4,Win32,60.15399423,5f8b4560fc6686262722efdb,64b543b0a84ad6ab4a25b86a,64cb390c813a2d78b4dd6557,,,,,,,decisionTrl,resources/DBN.BMP,resources/DB.BMP,Door4,-0.231481481,0.01666666,1,0,0,0.8311,optionLeft,80,10995,5,25,0,25,0,1,,,,,,,,,,,,,,,,,,,,,,,,,,,,,,,,,,,,,,,
,,,,,,,,2023-08-03_06h20.25.856,HF_wild_card,2022.2.4,Win32,60.15399423,5f8b4560fc6686262722efdb,64b543b0a84ad6ab4a25b86a,64cb390c813a2d78b4dd6557,,,,,,,decisionTrl,resources/DP.BMP,resources/DY.BMP,Door2,-0.214814787,-0.005555577,1,0,0,1.1644,optionLeft,20,11015,5,26,0,26,0,1,,,,,,,,,,,,,,,,,,,,,,,,,,,,,,,,,,,,,,,
,,,,,,,,2023-08-03_06h20.25.856,HF_wild_card,2022.2.4,Win32,60.15399423,5f8b4560fc6686262722efdb,64b543b0a84ad6ab4a25b86a,64cb390c813a2d78b4dd6557,,,,,,,ctch,resources/DP.BMP,resources/DB.BMP,Door3,0.232407393,-0.025000007,1,0,0,0.7123,optionRight,70,11085,5,27,0,27,0,1,,,,,,,,,,,,,,,,,,,,,,,,,,,,,,,,,,,,,,,
,,,,,,,,2023-08-03_06h20.25.856,HF_wild_card,2022.2.4,Win32,60.15399423,5f8b4560fc6686262722efdb,64b543b0a84ad6ab4a25b86a,64cb390c813a2d78b4dd6557,,,,,,,ctch,resources/DB.BMP,resources/DP.BMP,Door3,-0.212037051,-0.022222236,1,0,0,0.662,optionLeft,70,11155,5,28,0,28,0,1,,,,,,,,,,,,,,,,,,,,,,,,,,,,,,,,,,,,,,,
,,,,,,,,2023-08-03_06h20.25.856,HF_wild_card,2022.2.4,Win32,60.15399423,5f8b4560fc6686262722efdb,64b543b0a84ad6ab4a25b86a,64cb390c813a2d78b4dd6557,,,,,,,sngl,resources/Empty.png,resources/DR.BMP,WildCard_NonEx,0.246296282,-0.037037037,1,0,0,0.664,optionRight,45,11200,5,29,0,29,0,1,,,,,,,,,,,,,,,,,,,,,,,,,,,,,,,,,,,,,,,
,,,,,,,,2023-08-03_06h20.25.856,HF_wild_card,2022.2.4,Win32,60.15399423,5f8b4560fc6686262722efdb,64b543b0a84ad6ab4a25b86a,64cb390c813a2d78b4dd6557,,,,,,,sngl,resources/DBN.BMP,resources/Empty.png,Door4,-0.477777764,0.02870369,1,0,0,0.6615,optionLeft,80,11280,5,30,0,30,0,1,,,,,,,,,,,,,,,,,,,,,,,,,,,,,,,,,,,,,,,
,,,,,,,,2023-08-03_06h20.25.856,HF_wild_card,2022.2.4,Win32,60.15399423,5f8b4560fc6686262722efdb,64b543b0a84ad6ab4a25b86a,64cb390c813a2d78b4dd6557,,,,,,,sngl,resources/Empty.png,resources/DP.BMP,Door2,0.164814843,-0.060185185,1,0,0,0.7154,optionRight,20,11300,5,31,0,31,0,1,,,,,,,,,,,,,,,,,,,,,,,,,,,,,,,,,,,,,,,
,,,,,,,,2023-08-03_06h20.25.856,HF_wild_card,2022.2.4,Win32,60.15399423,5f8b4560fc6686262722efdb,64b543b0a84ad6ab4a25b86a,64cb390c813a2d78b4dd6557,,,,,,,sngl,resources/DR.BMP,resources/Empty.png,WildCard_NonEx,-0.226851852,0.022222201,1,0,0,0.5836,optionLeft,45,11345,5,32,0,32,0,1,,,,,,,,,,,,,,,,,,,,,,,,,,,,,,,,,,,,,,,
,,,,,,,,2023-08-03_06h20.25.856,HF_wild_card,2022.2.4,Win32,60.15399423,5f8b4560fc6686262722efdb,64b543b0a84ad6ab4a25b86a,64cb390c813a2d78b4dd6557,,,,,,,decisionTrl,resources/DY.BMP,resources/DR.BMP,WildCard_NonEx,0.121296282,-0.002777771,1,0,0,0.9152,optionRight,55,11400,5,33,0,33,0,1,,,,,,,,,,,,,,,,,,,,,,,,,,,,,,,,,,,,,,,
,,,,,,,,2023-08-03_06h20.25.856,HF_wild_card,2022.2.4,Win32,60.15399423,5f8b4560fc6686262722efdb,64b543b0a84ad6ab4a25b86a,64cb390c813a2d78b4dd6557,,,,,,,decisionTrl,resources/DP.BMP,resources/DR.BMP,WildCard_NonEx,0.250925912,-0.018518519,1,0,0,1.1808,optionRight,55,11455,5,34,0,34,0,1,,,,,,,,,,,,,,,,,,,,,,,,,,,,,,,,,,,,,,,
,,,,,,,,2023-08-03_06h20.25.856,HF_wild_card,2022.2.4,Win32,60.15399423,5f8b4560fc6686262722efdb,64b543b0a84ad6ab4a25b86a,64cb390c813a2d78b4dd6557,,,,,,,sngl,resources/DB.BMP,resources/Empty.png,Door3,-0.203703704,0.003703683,1,0,0,0.6151,optionLeft,70,11525,5,35,0,35,0,1,,,,,,,,,,,,,,,,,,,,,,,,,,,,,,,,,,,,,,,
,,,,,,,,2023-08-03_06h20.25.856,HF_wild_card,2022.2.4,Win32,60.15399423,5f8b4560fc6686262722efdb,64b543b0a84ad6ab4a25b86a,64cb390c813a2d78b4dd6557,,,,,,,decisionTrl,resources/DBN.BMP,resources/DB.BMP,Door4,-0.172222208,-0.034259266,1,0,0,0.7986,optionLeft,80,11605,5,36,0,36,0,1,,,,,,,,,,,,,,,,,,,,,,,,,,,,,,,,,,,,,,,
,,,,,,,,2023-08-03_06h20.25.856,HF_wild_card,2022.2.4,Win32,60.15399423,5f8b4560fc6686262722efdb,64b543b0a84ad6ab4a25b86a,64cb390c813a2d78b4dd6557,,,,,,,sngl,resources/Empty.png,resources/DR.BMP,WildCard_NonEx,0.181481467,-0.0074074,1,0,0,0.6973,optionRight,55,11660,5,37,0,37,0,1,,,,,,,,,,,,,,,,,,,,,,,,,,,,,,,,,,,,,,,
,,,,,,,,2023-08-03_06h20.25.856,HF_wild_card,2022.2.4,Win32,60.15399423,5f8b4560fc6686262722efdb,64b543b0a84ad6ab4a25b86a,64cb390c813a2d78b4dd6557,,,,,,,decisionTrl,resources/DP.BMP,resources/DY.BMP,Door2,-0.178703661,-0.008333347,1,0,0,1.0478,optionLeft,20,11680,5,38,0,38,0,1,,,,,,,,,,,,,,,,,,,,,,,,,,,,,,,,,,,,,,,
,,,,,,,,2023-08-03_06h20.25.856,HF_wild_card,2022.2.4,Win32,60.15399423,5f8b4560fc6686262722efdb,64b543b0a84ad6ab4a25b86a,64cb390c813a2d78b4dd6557,,,,,,,decisionTrl,resources/DP.BMP,resources/DY.BMP,Door1,0.194444444,-0.031481496,1,0,0,0.9174,optionRight,30,11710,5,39,0,39,0,1,,,,,,,,,,,,,,,,,,,,,,,,,,,,,,,,,,,,,,,
,,,,,,,,2023-08-03_06h20.25.856,HF_wild_card,2022.2.4,Win32,60.15399423,5f8b4560fc6686262722efdb,64b543b0a84ad6ab4a25b86a,64cb390c813a2d78b4dd6557,,,,,,,ctch,resources/DBN.BMP,resources/DY.BMP,Door4,-0.385185171,-0.012962977,1,0,0,0.7143,optionLeft,80,11790,5,40,0,40,0,1,,,,,,,,,,,,,,,,,,,,,,,,,,,,,,,,,,,,,,,
,,,,,,,,2023-08-03_06h20.25.856,HF_wild_card,2022.2.4,Win32,60.15399423,5f8b4560fc6686262722efdb,64b543b0a84ad6ab4a25b86a,64cb390c813a2d78b4dd6557,,,,,,,decisionTrl,resources/DBN.BMP,resources/DR.BMP,Door4,-0.152777778,-0.019444466,1,0,0,0.7143,optionLeft,60,11850,5,41,0,41,0,1,,,,,,,,,,,,,,,,,,,,,,,,,,,,,,,,,,,,,,,
,,,,,,,,2023-08-03_06h20.25.856,HF_wild_card,2022.2.4,Win32,60.15399423,5f8b4560fc6686262722efdb,64b543b0a84ad6ab4a25b86a,64cb390c813a2d78b4dd6557,,,,,,,decisionTrl,resources/DY.BMP,resources/DP.BMP,Door1,-0.296296296,-0.011111118,1,0,0,1.7648,optionLeft,30,11880,5,42,0,42,0,1,,,,,,,,,,,,,,,,,,,,,,,,,,,,,,,,,,,,,,,
,,,,,,,,2023-08-03_06h20.25.856,HF_wild_card,2022.2.4,Win32,60.15399423,5f8b4560fc6686262722efdb,64b543b0a84ad6ab4a25b86a,64cb390c813a2d78b4dd6557,,,,,,,sngl,resources/DR.BMP,resources/Empty.png,WildCard_NonEx,-0.275925884,0.005555541,1,0,0,0.5958,optionLeft,55,11935,5,43,0,43,0,1,,,,,,,,,,,,,,,,,,,,,,,,,,,,,,,,,,,,,,,
,,,,,,,,2023-08-03_06h20.25.856,HF_wild_card,2022.2.4,Win32,60.15399423,5f8b4560fc6686262722efdb,64b543b0a84ad6ab4a25b86a,64cb390c813a2d78b4dd6557,,,,,,,,,,,,,,,,,,,,,,,,,,4,0,4,0,1,,,,,,,,,,,,,,,,,,,,,,,,,,,,,,,,,,
,,,,,,,,2023-08-03_06h20.25.856,HF_wild_card,2022.2.4,Win32,60.15399423,5f8b4560fc6686262722efdb,64b543b0a84ad6ab4a25b86a,64cb390c813a2d78b4dd6557,,,,,,,decisionTrl,resources/DP.BMP,resources/DY.BMP,Door2,-0.108333305,-0.023148148,1,0,0,1.1223,optionLeft,20,11955,6,0,0,0,0,1,,,,,,,,,,,,,,,,,,,,,,,,,,,,,,,,,,,,,,,
,,,,,,,,2023-08-03_06h20.25.856,HF_wild_card,2022.2.4,Win32,60.15399423,5f8b4560fc6686262722efdb,64b543b0a84ad6ab4a25b86a,64cb390c813a2d78b4dd6557,,,,,,,decisionTrl,resources/DB.BMP,resources/DBN.BMP,Door4,0.319444444,-0.021296289,1,0,0,0.6648,optionRight,80,12035,6,1,0,1,0,1,,,,,,,,,,,,,,,,,,,,,,,,,,,,,,,,,,,,,,,
,,,,,,,,2023-08-03_06h20.25.856,HF_wild_card,2022.2.4,Win32,60.15399423,5f8b4560fc6686262722efdb,64b543b0a84ad6ab4a25b86a,64cb390c813a2d78b4dd6557,,,,,,,decisionTrl,resources/DR.BMP,resources/DY.BMP,Door1,0.255555541,0.01203703,1,0,0,0.6477,optionRight,30,12065,6,2,0,2,0,1,,,,,,,,,,,,,,,,,,,,,,,,,,,,,,,,,,,,,,,
,,,,,,,,2023-08-03_06h20.25.856,HF_wild_card,2022.2.4,Win32,60.15399423,5f8b4560fc6686262722efdb,64b543b0a84ad6ab4a25b86a,64cb390c813a2d78b4dd6557,,,,,,,decisionTrl,resources/DP.BMP,resources/DY.BMP,Door1,0.199074074,0.015740748,1,0,0,0.8812,optionRight,30,12095,6,3,0,3,0,1,,,,,,,,,,,,,,,,,,,,,,,,,,,,,,,,,,,,,,,
,,,,,,,,2023-08-03_06h20.25.856,HF_wild_card,2022.2.4,Win32,60.15399423,5f8b4560fc6686262722efdb,64b543b0a84ad6ab4a25b86a,64cb390c813a2d78b4dd6557,,,,,,,decisionTrl,resources/DY.BMP,resources/DP.BMP,Door1,-0.412037037,0.037037037,1,0,0,0.9812,optionLeft,30,12125,6,4,0,4,0,1,,,,,,,,,,,,,,,,,,,,,,,,,,,,,,,,,,,,,,,
,,,,,,,,2023-08-03_06h20.25.856,HF_wild_card,2022.2.4,Win32,60.15399423,5f8b4560fc6686262722efdb,64b543b0a84ad6ab4a25b86a,64cb390c813a2d78b4dd6557,,,,,,,sngl,resources/DR.BMP,resources/Empty.png,WildCard_NonEx,-0.283333319,0.015740748,1,0,0,0.6654,optionLeft,45,12170,6,5,0,5,0,1,,,,,,,,,,,,,,,,,,,,,,,,,,,,,,,,,,,,,,,
,,,,,,,,2023-08-03_06h20.25.856,HF_wild_card,2022.2.4,Win32,60.15399423,5f8b4560fc6686262722efdb,64b543b0a84ad6ab4a25b86a,64cb390c813a2d78b4dd6557,,,,,,,decisionTrl,resources/DB.BMP,resources/DBN.BMP,Door4,0.176851838,0.053703697,1,0,0,0.8655,optionRight,60,12230,6,6,0,6,0,1,,,,,,,,,,,,,,,,,,,,,,,,,,,,,,,,,,,,,,,
,,,,,,,,2023-08-03_06h20.25.856,HF_wild_card,2022.2.4,Win32,60.15399423,5f8b4560fc6686262722efdb,64b543b0a84ad6ab4a25b86a,64cb390c813a2d78b4dd6557,,,,,,,decisionTrl,resources/DR.BMP,resources/DB.BMP,Door3,0.158333319,0.043518526,1,0,0,0.9148,optionRight,70,12300,6,7,0,7,0,1,,,,,,,,,,,,,,,,,,,,,,,,,,,,,,,,,,,,,,,
,,,,,,,,2023-08-03_06h20.25.856,HF_wild_card,2022.2.4,Win32,60.15399423,5f8b4560fc6686262722efdb,64b543b0a84ad6ab4a25b86a,64cb390c813a2d78b4dd6557,,,,,,,decisionTrl,resources/DP.BMP,resources/DR.BMP,WildCard_NonEx,0.227777764,0.079629616,1,0,0,0.9349,optionRight,45,12345,6,8,0,8,0,1,,,,,,,,,,,,,,,,,,,,,,,,,,,,,,,,,,,,,,,
,,,,,,,,2023-08-03_06h20.25.856,HF_wild_card,2022.2.4,Win32,60.15399423,5f8b4560fc6686262722efdb,64b543b0a84ad6ab4a25b86a,64cb390c813a2d78b4dd6557,,,,,,,ctch,resources/DB.BMP,resources/DP.BMP,Door3,-0.294444402,-0.006481489,1,0,0,0.8318,optionLeft,70,12415,6,9,0,9,0,1,,,,,,,,,,,,,,,,,,,,,,,,,,,,,,,,,,,,,,,
,,,,,,,,2023-08-03_06h20.25.856,HF_wild_card,2022.2.4,Win32,60.15399423,5f8b4560fc6686262722efdb,64b543b0a84ad6ab4a25b86a,64cb390c813a2d78b4dd6557,,,,,,,ctch,resources/DY.BMP,resources/DBN.BMP,Door4,0.337037122,0.00462963,1,0,0,0.6974,optionRight,60,12475,6,10,0,10,0,1,,,,,,,,,,,,,,,,,,,,,,,,,,,,,,,,,,,,,,,
,,,,,,,,2023-08-03_06h20.25.856,HF_wild_card,2022.2.4,Win32,60.15399423,5f8b4560fc6686262722efdb,64b543b0a84ad6ab4a25b86a,64cb390c813a2d78b4dd6557,,,,,,,decisionTrl,resources/DP.BMP,resources/DY.BMP,Door2,-0.212962963,-0.005555577,1,0,0,1.0309,optionLeft,20,12495,6,11,0,11,0,1,,,,,,,,,,,,,,,,,,,,,,,,,,,,,,,,,,,,,,,
,,,,,,,,2023-08-03_06h20.25.856,HF_wild_card,2022.2.4,Win32,60.15399423,5f8b4560fc6686262722efdb,64b543b0a84ad6ab4a25b86a,64cb390c813a2d78b4dd6557,,,,,,,decisionTrl,resources/DBN.BMP,resources/DB.BMP,Door4,-0.207407422,0.003703683,1,0,0,0.6311,optionLeft,80,12575,6,12,0,12,0,1,,,,,,,,,,,,,,,,,,,,,,,,,,,,,,,,,,,,,,,
,,,,,,,,2023-08-03_06h20.25.856,HF_wild_card,2022.2.4,Win32,60.15399423,5f8b4560fc6686262722efdb,64b543b0a84ad6ab4a25b86a,64cb390c813a2d78b4dd6557,,,,,,,sngl,resources/Empty.png,resources/DR.BMP,WildCard_NonEx,0.216666681,-0.011111118,1,0,0,0.631,optionRight,45,12620,6,13,0,13,0,1,,,,,,,,,,,,,,,,,,,,,,,,,,,,,,,,,,,,,,,
,,,,,,,,2023-08-03_06h20.25.856,HF_wild_card,2022.2.4,Win32,60.15399423,5f8b4560fc6686262722efdb,64b543b0a84ad6ab4a25b86a,64cb390c813a2d78b4dd6557,,,,,,,decisionTrl,resources/DY.BMP,resources/DP.BMP,Door2,0.251851894,0.009259259,1,0,0,0.8173,optionRight,20,12640,6,14,0,14,0,1,,,,,,,,,,,,,,,,,,,,,,,,,,,,,,,,,,,,,,,
,,,,,,,,2023-08-03_06h20.25.856,HF_wild_card,2022.2.4,Win32,60.15399423,5f8b4560fc6686262722efdb,64b543b0a84ad6ab4a25b86a,64cb390c813a2d78b4dd6557,,,,,,,sngl,resources/Empty.png,resources/DP.BMP,Door2,0.349074046,-0.021296289,1,0,0,0.6823,optionRight,40,12680,6,15,0,15,0,1,,,,,,,,,,,,,,,,,,,,,,,,,,,,,,,,,,,,,,,
,,,,,,,,2023-08-03_06h20.25.856,HF_wild_card,2022.2.4,Win32,60.15399423,5f8b4560fc6686262722efdb,64b543b0a84ad6ab4a25b86a,64cb390c813a2d78b4dd6557,,,,,,,decisionTrl,resources/DR.BMP,resources/DP.BMP,WildCard_NonEx,-0.12962963,0.003703683,1,0,0,0.7985,optionLeft,55,12735,6,16,0,16,0,1,,,,,,,,,,,,,,,,,,,,,,,,,,,,,,,,,,,,,,,
,,,,,,,,2023-08-03_06h20.25.856,HF_wild_card,2022.2.4,Win32,60.15399423,5f8b4560fc6686262722efdb,64b543b0a84ad6ab4a25b86a,64cb390c813a2d78b4dd6557,,,,,,,sngl,resources/Empty.png,resources/DY.BMP,Door1,0.196296339,0.037037037,1,0,0,0.6522,optionRight,30,12765,6,17,0,17,0,1,,,,,,,,,,,,,,,,,,,,,,,,,,,,,,,,,,,,,,,
,,,,,,,,2023-08-03_06h20.25.856,HF_wild_card,2022.2.4,Win32,60.15399423,5f8b4560fc6686262722efdb,64b543b0a84ad6ab4a25b86a,64cb390c813a2d78b4dd6557,,,,,,,decisionTrl,resources/DB.BMP,resources/DBN.BMP,Door4,0.27407406,0.005555541,1,0,0,0.899,optionRight,80,12845,6,18,0,18,0,1,,,,,,,,,,,,,,,,,,,,,,,,,,,,,,,,,,,,,,,
,,,,,,,,2023-08-03_06h20.25.856,HF_wild_card,2022.2.4,Win32,60.15399423,5f8b4560fc6686262722efdb,64b543b0a84ad6ab4a25b86a,64cb390c813a2d78b4dd6557,,,,,,,sngl,resources/DR.BMP,resources/Empty.png,WildCard_NonEx,-0.170370384,-0.017592607,1,0,0,0.7154,optionLeft,55,12900,6,19,0,19,0,1,,,,,,,,,,,,,,,,,,,,,,,,,,,,,,,,,,,,,,,
,,,,,,,,2023-08-03_06h20.25.856,HF_wild_card,2022.2.4,Win32,60.15399423,5f8b4560fc6686262722efdb,64b543b0a84ad6ab4a25b86a,64cb390c813a2d78b4dd6557,,,,,,,sngl,resources/DB.BMP,resources/Empty.png,Door3,-0.252777735,0.020370377,1,0,0,0.5951,optionLeft,70,12970,6,20,0,20,0,1,,,,,,,,,,,,,,,,,,,,,,,,,,,,,,,,,,,,,,,
,,,,,,,,2023-08-03_06h20.25.856,HF_wild_card,2022.2.4,Win32,60.15399423,5f8b4560fc6686262722efdb,64b543b0a84ad6ab4a25b86a,64cb390c813a2d78b4dd6557,,,,,,,decisionTrl,resources/DB.BMP,resources/DR.BMP,Door3,-0.119444459,-0.018518519,1,0,0,0.6818,optionLeft,70,13040,6,21,0,21,0,1,,,,,,,,,,,,,,,,,,,,,,,,,,,,,,,,,,,,,,,
,,,,,,,,2023-08-03_06h20.25.856,HF_wild_card,2022.2.4,Win32,60.15399423,5f8b4560fc6686262722efdb,64b543b0a84ad6ab4a25b86a,64cb390c813a2d78b4dd6557,,,,,,,decisionTrl,resources/DY.BMP,resources/DP.BMP,Door1,-0.203703704,-0.019444466,1,0,0,1.0147,optionLeft,30,13070,6,22,0,22,0,1,,,,,,,,,,,,,,,,,,,,,,,,,,,,,,,,,,,,,,,
,,,,,,,,2023-08-03_06h20.25.856,HF_wild_card,2022.2.4,Win32,60.15399423,5f8b4560fc6686262722efdb,64b543b0a84ad6ab4a25b86a,64cb390c813a2d78b4dd6557,,,,,,,decisionTrl,resources/DY.BMP,resources/DP.BMP,Door1,-0.240740741,-0.003703718,1,0,0,0.7149,optionLeft,30,13100,6,23,0,23,0,1,,,,,,,,,,,,,,,,,,,,,,,,,,,,,,,,,,,,,,,
,,,,,,,,2023-08-03_06h20.25.856,HF_wild_card,2022.2.4,Win32,60.15399423,5f8b4560fc6686262722efdb,64b543b0a84ad6ab4a25b86a,64cb390c813a2d78b4dd6557,,,,,,,sngl,resources/Empty.png,resources/DB.BMP,Door3,0.351851852,0.052777785,1,0,0,0.6679,optionRight,70,13170,6,24,0,24,0,1,,,,,,,,,,,,,,,,,,,,,,,,,,,,,,,,,,,,,,,
,,,,,,,,2023-08-03_06h20.25.856,HF_wild_card,2022.2.4,Win32,60.15399423,5f8b4560fc6686262722efdb,64b543b0a84ad6ab4a25b86a,64cb390c813a2d78b4dd6557,,,,,,,decisionTrl,resources/DBN.BMP,resources/DB.BMP,Door4,-0.196296268,-0.01203703,1,0,0,0.7649,optionLeft,80,13250,6,25,0,25,0,1,,,,,,,,,,,,,,,,,,,,,,,,,,,,,,,,,,,,,,,
,,,,,,,,2023-08-03_06h20.25.856,HF_wild_card,2022.2.4,Win32,60.15399423,5f8b4560fc6686262722efdb,64b543b0a84ad6ab4a25b86a,64cb390c813a2d78b4dd6557,,,,,,,sngl,resources/DBN.BMP,resources/Empty.png,Door4,-0.27407406,0.003703683,1,0,0,0.614,optionLeft,60,13310,6,26,0,26,0,1,,,,,,,,,,,,,,,,,,,,,,,,,,,,,,,,,,,,,,,
,,,,,,,,2023-08-03_06h20.25.856,HF_wild_card,2022.2.4,Win32,60.15399423,5f8b4560fc6686262722efdb,64b543b0a84ad6ab4a25b86a,64cb390c813a2d78b4dd6557,,,,,,,decisionTrl,resources/DP.BMP,resources/DY.BMP,Door1,0.108333376,0.014814801,1,0,0,1.0156,optionRight,30,13340,6,27,0,27,0,1,,,,,,,,,,,,,,,,,,,,,,,,,,,,,,,,,,,,,,,
,,,,,,,,2023-08-03_06h20.25.856,HF_wild_card,2022.2.4,Win32,60.15399423,5f8b4560fc6686262722efdb,64b543b0a84ad6ab4a25b86a,64cb390c813a2d78b4dd6557,,,,,,,ctch,resources/DBN.BMP,resources/DY.BMP,Door4,-0.226851852,-0.00462963,1,0,0,0.764,optionLeft,60,13400,6,28,0,28,0,1,,,,,,,,,,,,,,,,,,,,,,,,,,,,,,,,,,,,,,,
,,,,,,,,2023-08-03_06h20.25.856,HF_wild_card,2022.2.4,Win32,60.15399423,5f8b4560fc6686262722efdb,64b543b0a84ad6ab4a25b86a,64cb390c813a2d78b4dd6557,,,,,,,ctch,resources/DP.BMP,resources/DB.BMP,Door3,0.204629616,0.011111118,1,0,0,0.7807,optionRight,70,13470,6,29,0,29,0,1,,,,,,,,,,,,,,,,,,,,,,,,,,,,,,,,,,,,,,,
,,,,,,,,2023-08-03_06h20.25.856,HF_wild_card,2022.2.4,Win32,60.15399423,5f8b4560fc6686262722efdb,64b543b0a84ad6ab4a25b86a,64cb390c813a2d78b4dd6557,,,,,,,ctch,resources/DB.BMP,resources/DP.BMP,Door3,-0.209259245,0.01203703,1,0,0,0.631,optionLeft,70,13540,6,30,0,30,0,1,,,,,,,,,,,,,,,,,,,,,,,,,,,,,,,,,,,,,,,
,,,,,,,,2023-08-03_06h20.25.856,HF_wild_card,2022.2.4,Win32,60.15399423,5f8b4560fc6686262722efdb,64b543b0a84ad6ab4a25b86a,64cb390c813a2d78b4dd6557,,,,,,,ctch,resources/DBN.BMP,resources/DY.BMP,Door4,-0.23055557,0.01666666,1,0,0,0.6974,optionLeft,60,13600,6,31,0,31,0,1,,,,,,,,,,,,,,,,,,,,,,,,,,,,,,,,,,,,,,,
,,,,,,,,2023-08-03_06h20.25.856,HF_wild_card,2022.2.4,Win32,60.15399423,5f8b4560fc6686262722efdb,64b543b0a84ad6ab4a25b86a,64cb390c813a2d78b4dd6557,,,,,,,sngl,resources/DP.BMP,resources/Empty.png,Door2,-0.312962956,0.006481489,1,0,0,0.614,optionLeft,20,13620,6,32,0,32,0,1,,,,,,,,,,,,,,,,,,,,,,,,,,,,,,,,,,,,,,,
,,,,,,,,2023-08-03_06h20.25.856,HF_wild_card,2022.2.4,Win32,60.15399423,5f8b4560fc6686262722efdb,64b543b0a84ad6ab4a25b86a,64cb390c813a2d78b4dd6557,,,,,,,decisionTrl,resources/DR.BMP,resources/DBN.BMP,Door4,0.378703788,-0.062962956,1,0,0,0.6984,optionRight,80,13700,6,33,0,33,0,1,,,,,,,,,,,,,,,,,,,,,,,,,,,,,,,,,,,,,,,
,,,,,,,,2023-08-03_06h20.25.856,HF_wild_card,2022.2.4,Win32,60.15399423,5f8b4560fc6686262722efdb,64b543b0a84ad6ab4a25b86a,64cb390c813a2d78b4dd6557,,,,,,,decisionTrl,resources/DBN.BMP,resources/DB.BMP,Door4,-0.166666667,-0.012962977,1,0,0,0.5975,optionLeft,60,13760,6,34,0,34,0,1,,,,,,,,,,,,,,,,,,,,,,,,,,,,,,,,,,,,,,,
,,,,,,,,2023-08-03_06h20.25.856,HF_wild_card,2022.2.4,Win32,60.15399423,5f8b4560fc6686262722efdb,64b543b0a84ad6ab4a25b86a,64cb390c813a2d78b4dd6557,,,,,,,sngl,resources/Empty.png,resources/DR.BMP,WildCard_NonEx,0.411111196,-0.027777778,1,0,0,0.6476,optionRight,55,13815,6,35,0,35,0,1,,,,,,,,,,,,,,,,,,,,,,,,,,,,,,,,,,,,,,,
,,,,,,,,2023-08-03_06h20.25.856,HF_wild_card,2022.2.4,Win32,60.15399423,5f8b4560fc6686262722efdb,64b543b0a84ad6ab4a25b86a,64cb390c813a2d78b4dd6557,,,,,,,ctch,resources/DP.BMP,resources/DB.BMP,Door3,0.167592578,-0.012962977,1,0,0,0.7622,optionRight,70,13885,6,36,0,36,0,1,,,,,,,,,,,,,,,,,,,,,,,,,,,,,,,,,,,,,,,
,,,,,,,,2023-08-03_06h20.25.856,HF_wild_card,2022.2.4,Win32,60.15399423,5f8b4560fc6686262722efdb,64b543b0a84ad6ab4a25b86a,64cb390c813a2d78b4dd6557,,,,,,,decisionTrl,resources/DBN.BMP,resources/DR.BMP,Door4,-0.16851849,0.027777778,1,0,0,0.6513,optionLeft,80,13965,6,37,0,37,0,1,,,,,,,,,,,,,,,,,,,,,,,,,,,,,,,,,,,,,,,
,,,,,,,,2023-08-03_06h20.25.856,HF_wild_card,2022.2.4,Win32,60.15399423,5f8b4560fc6686262722efdb,64b543b0a84ad6ab4a25b86a,64cb390c813a2d78b4dd6557,,,,,,,decisionTrl,resources/DBN.BMP,resources/DB.BMP,Door4,-0.195370356,0.011111118,1,0,0,0.6649,optionLeft,80,14045,6,38,0,38,0,1,,,,,,,,,,,,,,,,,,,,,,,,,,,,,,,,,,,,,,,
,,,,,,,,2023-08-03_06h20.25.856,HF_wild_card,2022.2.4,Win32,60.15399423,5f8b4560fc6686262722efdb,64b543b0a84ad6ab4a25b86a,64cb390c813a2d78b4dd6557,,,,,,,sngl,resources/DY.BMP,resources/Empty.png,Door1,-0.206481439,-0.000925947,1,0,0,0.6319,optionLeft,30,14075,6,39,0,39,0,1,,,,,,,,,,,,,,,,,,,,,,,,,,,,,,,,,,,,,,,
,,,,,,,,2023-08-03_06h20.25.856,HF_wild_card,2022.2.4,Win32,60.15399423,5f8b4560fc6686262722efdb,64b543b0a84ad6ab4a25b86a,64cb390c813a2d78b4dd6557,,,,,,,sngl,resources/Empty.png,resources/DBN.BMP,Door4,0.25,0.008333312,1,0,0,0.6816,optionRight,80,14155,6,40,0,40,0,1,,,,,,,,,,,,,,,,,,,,,,,,,,,,,,,,,,,,,,,
,,,,,,,,2023-08-03_06h20.25.856,HF_wild_card,2022.2.4,Win32,60.15399423,5f8b4560fc6686262722efdb,64b543b0a84ad6ab4a25b86a,64cb390c813a2d78b4dd6557,,,,,,,decisionTrl,resources/DB.BMP,resources/DBN.BMP,Door4,0.199074074,-0.008333347,1,0,0,0.7474,optionRight,60,14215,6,41,0,41,0,1,,,,,,,,,,,,,,,,,,,,,,,,,,,,,,,,,,,,,,,
,,,,,,,,2023-08-03_06h20.25.856,HF_wild_card,2022.2.4,Win32,60.15399423,5f8b4560fc6686262722efdb,64b543b0a84ad6ab4a25b86a,64cb390c813a2d78b4dd6557,,,,,,,ctch,resources/DY.BMP,resources/DBN.BMP,Door4,0.515740712,-0.019444466,1,0,0,0.7483,optionRight,60,14275,6,42,0,42,0,1,,,,,,,,,,,,,,,,,,,,,,,,,,,,,,,,,,,,,,,
,,,,,,,,2023-08-03_06h20.25.856,HF_wild_card,2022.2.4,Win32,60.15399423,5f8b4560fc6686262722efdb,64b543b0a84ad6ab4a25b86a,64cb390c813a2d78b4dd6557,,,,,,,decisionTrl,resources/DY.BMP,resources/DR.BMP,WildCard_NonEx,0.329629686,-0.013888889,1,0,0,0.9147,optionRight,45,14320,6,43,0,43,0,1,,,,,,,,,,,,,,,,,,,,,,,,,,,,,,,,,,,,,,,
,,,,,,,,2023-08-03_06h20.25.856,HF_wild_card,2022.2.4,Win32,60.15399423,5f8b4560fc6686262722efdb,64b543b0a84ad6ab4a25b86a,64cb390c813a2d78b4dd6557,,,,,,,,,,,,,,,,,,,,,,,,,,5,0,5,0,1,,,,,,,,,,,,,,,,,,,,,,,,,,,,,,,,,,
,,,,,,,,2023-08-03_06h20.25.856,HF_wild_card,2022.2.4,Win32,60.15399423,5f8b4560fc6686262722efdb,64b543b0a84ad6ab4a25b86a,64cb390c813a2d78b4dd6557,,,,,,,ctch,resources/DB.BMP,resources/DP.BMP,Door3,-0.223148134,0.013888889,1,0,0,0.7547,optionLeft,70,14390,7,0,0,0,0,1,,,,,,,,,,,,,,,,,,,,,,,,,,,,,,,,,,,,,,,
,,,,,,,,2023-08-03_06h20.25.856,HF_wild_card,2022.2.4,Win32,60.15399423,5f8b4560fc6686262722efdb,64b543b0a84ad6ab4a25b86a,64cb390c813a2d78b4dd6557,,,,,,,decisionTrl,resources/DY.BMP,resources/DP.BMP,Door1,-0.130555541,-0.028703725,1,0,0,1.1328,optionLeft,30,14420,7,1,0,1,0,1,,,,,,,,,,,,,,,,,,,,,,,,,,,,,,,,,,,,,,,
,,,,,,,,2023-08-03_06h20.25.856,HF_wild_card,2022.2.4,Win32,60.15399423,5f8b4560fc6686262722efdb,64b543b0a84ad6ab4a25b86a,64cb390c813a2d78b4dd6557,,,,,,,ctch,resources/DP.BMP,resources/DB.BMP,Door3,0.240740741,0.02870369,1,0,0,0.6794,optionRight,70,14490,7,2,0,2,0,1,,,,,,,,,,,,,,,,,,,,,,,,,,,,,,,,,,,,,,,
,,,,,,,,2023-08-03_06h20.25.856,HF_wild_card,2022.2.4,Win32,60.15399423,5f8b4560fc6686262722efdb,64b543b0a84ad6ab4a25b86a,64cb390c813a2d78b4dd6557,,,,,,,decisionTrl,resources/DY.BMP,resources/DP.BMP,Door1,-0.187037009,0.00462963,1,0,0,0.9986,optionLeft,30,14520,7,3,0,3,0,1,,,,,,,,,,,,,,,,,,,,,,,,,,,,,,,,,,,,,,,
,,,,,,,,2023-08-03_06h20.25.856,HF_wild_card,2022.2.4,Win32,60.15399423,5f8b4560fc6686262722efdb,64b543b0a84ad6ab4a25b86a,64cb390c813a2d78b4dd6557,,,,,,,decisionTrl,resources/DP.BMP,resources/DY.BMP,Door1,0.199074074,-0.026851866,1,0,0,0.6987,optionRight,30,14550,7,4,0,4,0,1,,,,,,,,,,,,,,,,,,,,,,,,,,,,,,,,,,,,,,,
,,,,,,,,2023-08-03_06h20.25.856,HF_wild_card,2022.2.4,Win32,60.15399423,5f8b4560fc6686262722efdb,64b543b0a84ad6ab4a25b86a,64cb390c813a2d78b4dd6557,,,,,,,decisionTrl,resources/DY.BMP,resources/DP.BMP,Door1,-0.201851809,0.012962942,1,0,0,0.7319,optionLeft,30,14580,7,5,0,5,0,1,,,,,,,,,,,,,,,,,,,,,,,,,,,,,,,,,,,,,,,
,,,,,,,,2023-08-03_06h20.25.856,HF_wild_card,2022.2.4,Win32,60.15399423,5f8b4560fc6686262722efdb,64b543b0a84ad6ab4a25b86a,64cb390c813a2d78b4dd6557,,,,,,,decisionTrl,resources/DY.BMP,resources/DP.BMP,Door1,-0.374074053,0.042592578,1,0,0,0.6496,optionLeft,30,14610,7,6,0,6,0,1,,,,,,,,,,,,,,,,,,,,,,,,,,,,,,,,,,,,,,,
,,,,,,,,2023-08-03_06h20.25.856,HF_wild_card,2022.2.4,Win32,60.15399423,5f8b4560fc6686262722efdb,64b543b0a84ad6ab4a25b86a,64cb390c813a2d78b4dd6557,,,,,,,ctch,resources/DP.BMP,resources/DB.BMP,Door3,0.161111125,-0.01666666,1,0,0,0.7157,optionRight,70,14680,7,7,0,7,0,1,,,,,,,,,,,,,,,,,,,,,,,,,,,,,,,,,,,,,,,
,,,,,,,,2023-08-03_06h20.25.856,HF_wild_card,2022.2.4,Win32,60.15399423,5f8b4560fc6686262722efdb,64b543b0a84ad6ab4a25b86a,64cb390c813a2d78b4dd6557,,,,,,,decisionTrl,resources/DP.BMP,resources/DY.BMP,Door1,0.163888931,-0.029629637,1,0,0,0.8662,optionRight,30,14710,7,8,0,8,0,1,,,,,,,,,,,,,,,,,,,,,,,,,,,,,,,,,,,,,,,
,,,,,,,,2023-08-03_06h20.25.856,HF_wild_card,2022.2.4,Win32,60.15399423,5f8b4560fc6686262722efdb,64b543b0a84ad6ab4a25b86a,64cb390c813a2d78b4dd6557,,,,,,,ctch,resources/DY.BMP,resources/DBN.BMP,Door4,0.242592635,0.046296296,1,0,0,1.1152,optionRight,80,14790,7,9,0,9,0,1,,,,,,,,,,,,,,,,,,,,,,,,,,,,,,,,,,,,,,,
,,,,,,,,2023-08-03_06h20.25.856,HF_wild_card,2022.2.4,Win32,60.15399423,5f8b4560fc6686262722efdb,64b543b0a84ad6ab4a25b86a,64cb390c813a2d78b4dd6557,,,,,,,decisionTrl,resources/DP.BMP,resources/DY.BMP,Door1,0.173148191,0.049074067,1,0,0,0.9824,optionRight,30,14820,7,10,0,10,0,1,,,,,,,,,,,,,,,,,,,,,,,,,,,,,,,,,,,,,,,
,,,,,,,,2023-08-03_06h20.25.856,HF_wild_card,2022.2.4,Win32,60.15399423,5f8b4560fc6686262722efdb,64b543b0a84ad6ab4a25b86a,64cb390c813a2d78b4dd6557,,,,,,,decisionTrl,resources/DBN.BMP,resources/DB.BMP,Door4,-0.16851849,-0.009259259,1,0,0,0.6824,optionLeft,80,14900,7,11,0,11,0,1,,,,,,,,,,,,,,,,,,,,,,,,,,,,,,,,,,,,,,,
,,,,,,,,2023-08-03_06h20.25.856,HF_wild_card,2022.2.4,Win32,60.15399423,5f8b4560fc6686262722efdb,64b543b0a84ad6ab4a25b86a,64cb390c813a2d78b4dd6557,,,,,,,decisionTrl,resources/DY.BMP,resources/DP.BMP,Door1,-0.261111083,-0.006481489,1,0,0,0.7794,optionLeft,30,14930,7,12,0,12,0,1,,,,,,,,,,,,,,,,,,,,,,,,,,,,,,,,,,,,,,,
,,,,,,,,2023-08-03_06h20.25.856,HF_wild_card,2022.2.4,Win32,60.15399423,5f8b4560fc6686262722efdb,64b543b0a84ad6ab4a25b86a,64cb390c813a2d78b4dd6557,,,,,,,decisionTrl,resources/DBN.BMP,resources/DB.BMP,Door4,-0.231481481,-0.030555548,1,0,0,0.7153,optionLeft,60,14990,7,13,0,13,0,1,,,,,,,,,,,,,,,,,,,,,,,,,,,,,,,,,,,,,,,
,,,,,,,,2023-08-03_06h20.25.856,HF_wild_card,2022.2.4,Win32,60.15399423,5f8b4560fc6686262722efdb,64b543b0a84ad6ab4a25b86a,64cb390c813a2d78b4dd6557,,,,,,,decisionTrl,resources/DY.BMP,resources/DP.BMP,Door1,-0.195370356,-0.056481503,1,0,0,0.7352,optionLeft,30,15020,7,14,0,14,0,1,,,,,,,,,,,,,,,,,,,,,,,,,,,,,,,,,,,,,,,
,,,,,,,,2023-08-03_06h20.25.856,HF_wild_card,2022.2.4,Win32,60.15399423,5f8b4560fc6686262722efdb,64b543b0a84ad6ab4a25b86a,64cb390c813a2d78b4dd6557,,,,,,,decisionTrl,resources/DB.BMP,resources/DBN.BMP,Door4,0.207407422,-0.021296289,1,0,0,0.6819,optionRight,60,15080,7,15,0,15,0,1,,,,,,,,,,,,,,,,,,,,,,,,,,,,,,,,,,,,,,,
,,,,,,,,2023-08-03_06h20.25.856,HF_wild_card,2022.2.4,Win32,60.15399423,5f8b4560fc6686262722efdb,64b543b0a84ad6ab4a25b86a,64cb390c813a2d78b4dd6557,,,,,,,decisionTrl,resources/DB.BMP,resources/DBN.BMP,Door4,0.280555584,-0.020370377,1,0,0,0.6318,optionRight,60,15140,7,16,0,16,0,1,,,,,,,,,,,,,,,,,,,,,,,,,,,,,,,,,,,,,,,
,,,,,,,,2023-08-03_06h20.25.856,HF_wild_card,2022.2.4,Win32,60.15399423,5f8b4560fc6686262722efdb,64b543b0a84ad6ab4a25b86a,64cb390c813a2d78b4dd6557,,,,,,,ctch,resources/DY.BMP,resources/DBN.BMP,Door4,0.286111125,-0.031481496,1,0,0,0.8157,optionRight,80,15220,7,17,0,17,0,1,,,,,,,,,,,,,,,,,,,,,,,,,,,,,,,,,,,,,,,
,,,,,,,,2023-08-03_06h20.25.856,HF_wild_card,2022.2.4,Win32,60.15399423,5f8b4560fc6686262722efdb,64b543b0a84ad6ab4a25b86a,64cb390c813a2d78b4dd6557,,,,,,,decisionTrl,resources/DBN.BMP,resources/DB.BMP,Door4,-0.133333347,-0.002777771,1,0,0,0.6322,optionLeft,60,15280,7,18,0,18,0,1,,,,,,,,,,,,,,,,,,,,,,,,,,,,,,,,,,,,,,,
,,,,,,,,2023-08-03_06h20.25.856,HF_wild_card,2022.2.4,Win32,60.15399423,5f8b4560fc6686262722efdb,64b543b0a84ad6ab4a25b86a,64cb390c813a2d78b4dd6557,,,,,,,decisionTrl,resources/DP.BMP,resources/DY.BMP,Door1,0.113888917,-0.025925919,1,0,0,0.7017,optionRight,30,15310,7,19,0,19,0,1,,,,,,,,,,,,,,,,,,,,,,,,,,,,,,,,,,,,,,,
,,,,,,,,2023-08-03_06h20.25.856,HF_wild_card,2022.2.4,Win32,60.15399423,5f8b4560fc6686262722efdb,64b543b0a84ad6ab4a25b86a,64cb390c813a2d78b4dd6557,,,,,,,decisionTrl,resources/DP.BMP,resources/DY.BMP,Door1,0.207407422,-0.008333347,1,0,0,0.6523,optionRight,30,15340,7,20,0,20,0,1,,,,,,,,,,,,,,,,,,,,,,,,,,,,,,,,,,,,,,,
,,,,,,,,2023-08-03_06h20.25.856,HF_wild_card,2022.2.4,Win32,60.15399423,5f8b4560fc6686262722efdb,64b543b0a84ad6ab4a25b86a,64cb390c813a2d78b4dd6557,,,,,,,decisionTrl,resources/DB.BMP,resources/DBN.BMP,Door4,0.273148148,-0.054629644,1,0,0,0.7462,optionRight,60,15400,7,21,0,21,0,1,,,,,,,,,,,,,,,,,,,,,,,,,,,,,,,,,,,,,,,
,,,,,,,,2023-08-03_06h20.25.856,HF_wild_card,2022.2.4,Win32,60.15399423,5f8b4560fc6686262722efdb,64b543b0a84ad6ab4a25b86a,64cb390c813a2d78b4dd6557,,,,,,,decisionTrl,resources/DBN.BMP,resources/DB.BMP,Door4,-0.284259231,0.005555541,1,0,0,0.6824,optionLeft,60,15460,7,22,0,22,0,1,,,,,,,,,,,,,,,,,,,,,,,,,,,,,,,,,,,,,,,
,,,,,,,,2023-08-03_06h20.25.856,HF_wild_card,2022.2.4,Win32,60.15399423,5f8b4560fc6686262722efdb,64b543b0a84ad6ab4a25b86a,64cb390c813a2d78b4dd6557,,,,,,,decisionTrl,resources/DB.BMP,resources/DBN.BMP,Door4,0.215740769,-0.034259266,1,0,0,0.6483,optionRight,80,15540,7,23,0,23,0,1,,,,,,,,,,,,,,,,,,,,,,,,,,,,,,,,,,,,,,,
,,,,,,,,2023-08-03_06h20.25.856,HF_wild_card,2022.2.4,Win32,60.15399423,5f8b4560fc6686262722efdb,64b543b0a84ad6ab4a25b86a,64cb390c813a2d78b4dd6557,,,,,,,decisionTrl,resources/DBN.BMP,resources/DB.BMP,Door4,-0.187962921,0.000925912,1,0,0,0.6824,optionLeft,80,15620,7,24,0,24,0,1,,,,,,,,,,,,,,,,,,,,,,,,,,,,,,,,,,,,,,,
,,,,,,,,2023-08-03_06h20.25.856,HF_wild_card,2022.2.4,Win32,60.15399423,5f8b4560fc6686262722efdb,64b543b0a84ad6ab4a25b86a,64cb390c813a2d78b4dd6557,,,,,,,ctch,resources/DBN.BMP,resources/DY.BMP,Door4,-0.190740727,-0.025000007,1,0,0,0.6489,optionLeft,60,15680,7,25,0,25,0,1,,,,,,,,,,,,,,,,,,,,,,,,,,,,,,,,,,,,,,,
,,,,,,,,2023-08-03_06h20.25.856,HF_wild_card,2022.2.4,Win32,60.15399423,5f8b4560fc6686262722efdb,64b543b0a84ad6ab4a25b86a,64cb390c813a2d78b4dd6557,,,,,,,decisionTrl,resources/DBN.BMP,resources/DB.BMP,Door4,-0.219444416,0.01944443,1,0,0,0.7161,optionLeft,60,15740,7,26,0,26,0,1,,,,,,,,,,,,,,,,,,,,,,,,,,,,,,,,,,,,,,,
,,,,,,,,2023-08-03_06h20.25.856,HF_wild_card,2022.2.4,Win32,60.15399423,5f8b4560fc6686262722efdb,64b543b0a84ad6ab4a25b86a,64cb390c813a2d78b4dd6557,,,,,,,ctch,resources/DBN.BMP,resources/DY.BMP,Door4,-0.25,0.018518519,1,0,0,0.6147,optionLeft,60,15800,7,27,0,27,0,1,,,,,,,,,,,,,,,,,,,,,,,,,,,,,,,,,,,,,,,
,,,,,,,,2023-08-03_06h20.25.856,HF_wild_card,2022.2.4,Win32,60.15399423,5f8b4560fc6686262722efdb,64b543b0a84ad6ab4a25b86a,64cb390c813a2d78b4dd6557,,,,,,,decisionTrl,resources/DB.BMP,resources/DBN.BMP,Door4,0.202777792,0.005555541,1,0,0,0.6487,optionRight,80,15880,7,28,0,28,0,1,,,,,,,,,,,,,,,,,,,,,,,,,,,,,,,,,,,,,,,
,,,,,,,,2023-08-03_06h20.25.856,HF_wild_card,2022.2.4,Win32,60.15399423,5f8b4560fc6686262722efdb,64b543b0a84ad6ab4a25b86a,64cb390c813a2d78b4dd6557,,,,,,,ctch,resources/DB.BMP,resources/DP.BMP,Door3,-0.281481496,0.013888889,1,0,0,0.6149,optionLeft,70,15950,7,29,0,29,0,1,,,,,,,,,,,,,,,,,,,,,,,,,,,,,,,,,,,,,,,
,,,,,,,,2023-08-03_06h20.25.856,HF_wild_card,2022.2.4,Win32,60.15399423,5f8b4560fc6686262722efdb,64b543b0a84ad6ab4a25b86a,64cb390c813a2d78b4dd6557,,,,,,,ctch,resources/DP.BMP,resources/DB.BMP,Door3,0.187962991,0.009259259,1,0,0,0.6129,optionRight,70,16020,7,30,0,30,0,1,,,,,,,,,,,,,,,,,,,,,,,,,,,,,,,,,,,,,,,
,,,,,,,,2023-08-03_06h20.25.856,HF_wild_card,2022.2.4,Win32,60.15399423,5f8b4560fc6686262722efdb,64b543b0a84ad6ab4a25b86a,64cb390c813a2d78b4dd6557,,,,,,,decisionTrl,resources/DP.BMP,resources/DY.BMP,Door1,0.200925968,0.013888889,1,0,0,0.966,optionRight,30,16050,7,31,0,31,0,1,,,,,,,,,,,,,,,,,,,,,,,,,,,,,,,,,,,,,,,
,,,,,,,,2023-08-03_06h20.25.856,HF_wild_card,2022.2.4,Win32,60.15399423,5f8b4560fc6686262722efdb,64b543b0a84ad6ab4a25b86a,64cb390c813a2d78b4dd6557,,,,,,,ctch,resources/DY.BMP,resources/DBN.BMP,Door4,0.247222265,-0.018518519,1,0,0,0.7851,optionRight,80,16130,7,32,0,32,0,1,,,,,,,,,,,,,,,,,,,,,,,,,,,,,,,,,,,,,,,
,,,,,,,,2023-08-03_06h20.25.856,HF_wild_card,2022.2.4,Win32,60.15399423,5f8b4560fc6686262722efdb,64b543b0a84ad6ab4a25b86a,64cb390c813a2d78b4dd6557,,,,,,,ctch,resources/DB.BMP,resources/DP.BMP,Door3,-0.228703675,0.034259266,1,0,0,0.6465,optionLeft,70,16200,7,33,0,33,0,1,,,,,,,,,,,,,,,,,,,,,,,,,,,,,,,,,,,,,,,
,,,,,,,,2023-08-03_06h20.25.856,HF_wild_card,2022.2.4,Win32,60.15399423,5f8b4560fc6686262722efdb,64b543b0a84ad6ab4a25b86a,64cb390c813a2d78b4dd6557,,,,,,,ctch,resources/DBN.BMP,resources/DY.BMP,Door4,-0.302777785,0.01944443,1,0,0,0.6925,optionLeft,80,16280,7,34,0,34,0,1,,,,,,,,,,,,,,,,,,,,,,,,,,,,,,,,,,,,,,,
,,,,,,,,2023-08-03_06h20.25.856,HF_wild_card,2022.2.4,Win32,60.15399423,5f8b4560fc6686262722efdb,64b543b0a84ad6ab4a25b86a,64cb390c813a2d78b4dd6557,,,,,,,decisionTrl,resources/DB.BMP,resources/DBN.BMP,Door4,0.113888917,-0.037037037,1,0,0,0.8653,optionRight,60,16340,7,35,0,35,0,1,,,,,,,,,,,,,,,,,,,,,,,,,,,,,,,,,,,,,,,
,,,,,,,,2023-08-03_06h20.25.856,HF_wild_card,2022.2.4,Win32,60.15399423,5f8b4560fc6686262722efdb,64b543b0a84ad6ab4a25b86a,64cb390c813a2d78b4dd6557,,,,,,,,,,,,,,,,,,,,,,,,,,6,0,6,0,1,,,,,,,,,,,,,,,,,,,,,,,,,,,,,,,,,,
,,,,,,,,2023-08-03_06h20.25.856,HF_wild_card,2022.2.4,Win32,60.15399423,5f8b4560fc6686262722efdb,64b543b0a84ad6ab4a25b86a,64cb390c813a2d78b4dd6557,,,,,,,,,,,,,,,,,,,,,,,,,,,,,,,4,,,,,,,,,,,,,,,,,,,,,,,,,,,,,,,,,
,,,,,,,,2023-08-03_06h20.25.856,HF_wild_card,2022.2.4,Win32,60.15399423,5f8b4560fc6686262722efdb,64b543b0a84ad6ab4a25b86a,64cb390c813a2d78b4dd6557,,,,,,,,,,,,,,,,,,,,,,,,,,,,,,,,,,,,,,,,,,,,,,,,,,,,,,,,,,,,,,,,
,,,,,,,,2023-08-03_06h20.25.856,HF_wild_card,2022.2.4,Win32,60.15399423,5f8b4560fc6686262722efdb,64b543b0a84ad6ab4a25b86a,64cb390c813a2d78b4dd6557,,,,,,,,,,,,,,,,,,,,,,,,,,,,,,,,95,WC_extreme,resources/DG.BMP,0,0,0,0,1,,,,,,,,,,,,,,,,,,,,,,,,,
,,,,,,,,2023-08-03_06h20.25.856,HF_wild_card,2022.2.4,Win32,60.15399423,5f8b4560fc6686262722efdb,64b543b0a84ad6ab4a25b86a,64cb390c813a2d78b4dd6557,,,,,,,,,,,,,,,,,,,,,,,,,,,,,,,,45,WC_nonExtreme,resources/DR.BMP,1,0,1,0,1,,,,,,,,,,,,,,,,,,,,,,,,,
,,,,,,,,2023-08-03_06h20.25.856,HF_wild_card,2022.2.4,Win32,60.15399423,5f8b4560fc6686262722efdb,64b543b0a84ad6ab4a25b86a,64cb390c813a2d78b4dd6557,,,,,,,,,,,,,,,,,,,,,,,,,,,,,,,,30,Door2,resources/DP.BMP,2,0,2,0,1,,,,,,,,,,,,,,,,,,,,,,,,,
,,,,,,,,2023-08-03_06h20.25.856,HF_wild_card,2022.2.4,Win32,60.15399423,5f8b4560fc6686262722efdb,64b543b0a84ad6ab4a25b86a,64cb390c813a2d78b4dd6557,,,,,,,,,,,,,,,,,,,,,,,,,,,,,,,,80,Door4,resources/DBN.BMP,3,0,3,0,1,,,,,,,,,,,,,,,,,,,,,,,,,
,,,,,,,,2023-08-03_06h20.25.856,HF_wild_card,2022.2.4,Win32,60.15399423,5f8b4560fc6686262722efdb,64b543b0a84ad6ab4a25b86a,64cb390c813a2d78b4dd6557,,,,,,,,,,,,,,,,,,,,,,,,,,,,,,,,70,Door3,resources/DB.BMP,4,0,4,0,1,,,,,,,,,,,,,,,,,,,,,,,,,
,,,,,,,,2023-08-03_06h20.25.856,HF_wild_card,2022.2.4,Win32,60.15399423,5f8b4560fc6686262722efdb,64b543b0a84ad6ab4a25b86a,64cb390c813a2d78b4dd6557,,,,,,,,,,,,,,,,,,,,,,,,,,,,,,,,40,Door1,resources/DY.BMP,5,0,5,0,1,,,,,,,,,,,,,,,,,,,,,,,,,
,,,,,,,,2023-08-03_06h20.25.856,HF_wild_card,2022.2.4,Win32,60.15399423,5f8b4560fc6686262722efdb,64b543b0a84ad6ab4a25b86a,64cb390c813a2d78b4dd6557,,,,,,,,,,,,,,,,,,,,,,,,,,,,,,,,,,,,,,,,,,,,,,,,,,,,,,,,,,,,,,,,
