Condition,Low fixed image (Door1),Low risky image (Door2),High fixed image (Door3),High risky image (Door4),NonExtreme Wild Card 1,NonExtreme Wild Card 2,,date,expName,psychopyVersion,OS,frameRate,PROLIFIC_PID,STUDY_ID,SESSION_ID,mouse_2.x,mouse_2.y,mouse_2.leftButton,mouse_2.midButton,mouse_2.rightButton,mouse_2.clicked_name,Trial Type,Left Option Image,Right Option Image,Chosen Door,mouse.x,mouse.y,mouse.leftButton,mouse.midButton,mouse.rightButton,mouse.time,mouse.clicked_name,Feedback,Cumulative Reward,Block,trial.thisRepN,trial.thisTrialN,trial.thisN,trial.thisIndex,trial.ran,blocks.thisRepN,blocks.thisTrialN,blocks.thisN,blocks.thisIndex,blocks.ran,Money conversion,First Outcome Reported,Shown Door (First Outcome),Displayed Image (First Outcome),outcomes.thisRepN,outcomes.thisTrialN,outcomes.thisN,outcomes.thisIndex,outcomes.ran,judgments.thisRepN,judgments.thisTrialN,judgments.thisN,judgments.thisIndex,judgments.ran,freqMouse.x,freqMouse.y,freqMouse.leftButton,freqMouse.midButton,freqMouse.rightButton,freqMouse.clicked_name,trials.thisRepN,trials.thisTrialN,trials.thisN,trials.thisIndex,trials.ran,FQJ for first outcome,FQJ for second outcome,Shown Door,Displayed Image,judgBlock.thisRepN,judgBlock.thisTrialN,judgBlock.thisN,judgBlock.thisIndex,judgBlock.ran
2,resources/DBN.BMP,resources/DG.BMP,resources/DB.BMP,resources/DY.BMP,resources/DR.BMP,resources/DP.BMP,,2023-08-16_08h45.59.306,HF_wild_card,2022.2.4,Linux x86_64,60.0060006,62b33e90d4a7c3f314f45ba6,64d2fd46c836a06233681665,64dc7e9a62f3414613033471,,,,,,,,,,,,,,,,,,,,,,,,,,,,,,,,,,,,,,,,,,,,,,,,,,,,,,,,,,,,,,,,
,,,,,,,,2023-08-16_08h45.59.306,HF_wild_card,2022.2.4,Linux x86_64,60.0060006,62b33e90d4a7c3f314f45ba6,64d2fd46c836a06233681665,64dc7e9a62f3414613033471,-0.006574233,-0.424812635,1,0,0,agree,,,,,,,,,,,,,,,,,,,,,,,,,,,,,,,,,,,,,,,,,,,,,,,,,,,,,,,,,,
,,,,,,,,2023-08-16_08h45.59.306,HF_wild_card,2022.2.4,Linux x86_64,60.0060006,62b33e90d4a7c3f314f45ba6,64d2fd46c836a06233681665,64dc7e9a62f3414613033471,,,,,,,,,,,,,,,,,,,,,,,,,,,,,,,,,,,,,,,,,,,,,,,,,,,,,,,,,,,,,,,,
,,,,,,,,2023-08-16_08h45.59.306,HF_wild_card,2022.2.4,Linux x86_64,60.0060006,62b33e90d4a7c3f314f45ba6,64d2fd46c836a06233681665,64dc7e9a62f3414613033471,,,,,,,decisionTrl,resources/DY.BMP,resources/DB.BMP,Door4,0.278708458,-0.346641938,1,0,0,3.2532,optionLeft,60,60,1,0,0,0,0,1,,,,,,,,,,,,,,,,,,,,,,,,,,,,,,,,,,,,,,,
,,,,,,,,2023-08-16_08h45.59.306,HF_wild_card,2022.2.4,Linux x86_64,60.0060006,62b33e90d4a7c3f314f45ba6,64d2fd46c836a06233681665,64dc7e9a62f3414613033471,,,,,,,decisionTrl,resources/DG.BMP,resources/DBN.BMP,Door1,0.294552565,-0.112645149,1,0,0,6.181,optionRight,30,90,1,1,0,1,0,1,,,,,,,,,,,,,,,,,,,,,,,,,,,,,,,,,,,,,,,
,,,,,,,,2023-08-16_08h45.59.306,HF_wild_card,2022.2.4,Linux x86_64,60.0060006,62b33e90d4a7c3f314f45ba6,64d2fd46c836a06233681665,64dc7e9a62f3414613033471,,,,,,,sngl,resources/DG.BMP,resources/Empty.png,Door2,-0.298925161,-0.149767717,1,0,0,4.6017,optionLeft,40,130,1,2,0,2,0,1,,,,,,,,,,,,,,,,,,,,,,,,,,,,,,,,,,,,,,,
,,,,,,,,2023-08-16_08h45.59.306,HF_wild_card,2022.2.4,Linux x86_64,60.0060006,62b33e90d4a7c3f314f45ba6,64d2fd46c836a06233681665,64dc7e9a62f3414613033471,,,,,,,sngl,resources/Empty.png,resources/DY.BMP,Door4,0.427849213,-0.158644636,1,0,0,1.4288,optionRight,60,190,1,3,0,3,0,1,,,,,,,,,,,,,,,,,,,,,,,,,,,,,,,,,,,,,,,
,,,,,,,,2023-08-16_08h45.59.306,HF_wild_card,2022.2.4,Linux x86_64,60.0060006,62b33e90d4a7c3f314f45ba6,64d2fd46c836a06233681665,64dc7e9a62f3414613033471,,,,,,,decisionTrl,resources/DP.BMP,resources/DG.BMP,WildCard_NonEx,-0.329930902,-0.056244294,1,0,0,1.9807,optionLeft,55,245,1,4,0,4,0,1,,,,,,,,,,,,,,,,,,,,,,,,,,,,,,,,,,,,,,,
,,,,,,,,2023-08-16_08h45.59.306,HF_wild_card,2022.2.4,Linux x86_64,60.0060006,62b33e90d4a7c3f314f45ba6,64d2fd46c836a06233681665,64dc7e9a62f3414613033471,,,,,,,sngl,resources/Empty.png,resources/DP.BMP,WildCard_NonEx,0.328523795,0.005418897,1,0,0,1.4172,optionRight,45,290,1,5,0,5,0,1,,,,,,,,,,,,,,,,,,,,,,,,,,,,,,,,,,,,,,,
,,,,,,,,2023-08-16_08h45.59.306,HF_wild_card,2022.2.4,Linux x86_64,60.0060006,62b33e90d4a7c3f314f45ba6,64d2fd46c836a06233681665,64dc7e9a62f3414613033471,,,,,,,decisionTrl,resources/DY.BMP,resources/DB.BMP,Door4,-0.336274505,0.037509958,1,0,0,2.6371,optionLeft,80,370,1,6,0,6,0,1,,,,,,,,,,,,,,,,,,,,,,,,,,,,,,,,,,,,,,,
,,,,,,,,2023-08-16_08h45.59.306,HF_wild_card,2022.2.4,Linux x86_64,60.0060006,62b33e90d4a7c3f314f45ba6,64d2fd46c836a06233681665,64dc7e9a62f3414613033471,,,,,,,ctch,resources/DBN.BMP,resources/DY.BMP,Door4,0.505994479,-0.023080627,1,0,0,1.9632,optionRight,80,450,1,7,0,7,0,1,,,,,,,,,,,,,,,,,,,,,,,,,,,,,,,,,,,,,,,
,,,,,,,,2023-08-16_08h45.59.306,HF_wild_card,2022.2.4,Linux x86_64,60.0060006,62b33e90d4a7c3f314f45ba6,64d2fd46c836a06233681665,64dc7e9a62f3414613033471,,,,,,,sngl,resources/Empty.png,resources/DB.BMP,Door3,0.493038654,-0.036084453,1,0,0,1.5806,optionRight,70,520,1,8,0,8,0,1,,,,,,,,,,,,,,,,,,,,,,,,,,,,,,,,,,,,,,,
,,,,,,,,2023-08-16_08h45.59.306,HF_wild_card,2022.2.4,Linux x86_64,60.0060006,62b33e90d4a7c3f314f45ba6,64d2fd46c836a06233681665,64dc7e9a62f3414613033471,,,,,,,decisionTrl,resources/DBN.BMP,resources/DG.BMP,Door2,0.462824027,-0.0084126,1,0,0,1.5302,optionRight,20,540,1,9,0,9,0,1,,,,,,,,,,,,,,,,,,,,,,,,,,,,,,,,,,,,,,,
,,,,,,,,2023-08-16_08h45.59.306,HF_wild_card,2022.2.4,Linux x86_64,60.0060006,62b33e90d4a7c3f314f45ba6,64d2fd46c836a06233681665,64dc7e9a62f3414613033471,,,,,,,decisionTrl,resources/DP.BMP,resources/DY.BMP,WildCard_NonEx,-0.378943205,-0.024263978,1,0,0,4.3809,optionLeft,45,585,1,10,0,10,0,1,,,,,,,,,,,,,,,,,,,,,,,,,,,,,,,,,,,,,,,
,,,,,,,,2023-08-16_08h45.59.306,HF_wild_card,2022.2.4,Linux x86_64,60.0060006,62b33e90d4a7c3f314f45ba6,64d2fd46c836a06233681665,64dc7e9a62f3414613033471,,,,,,,decisionTrl,resources/DB.BMP,resources/DY.BMP,Door4,0.302781423,-0.016228596,1,0,0,3.3971,optionRight,80,665,1,11,0,11,0,1,,,,,,,,,,,,,,,,,,,,,,,,,,,,,,,,,,,,,,,
,,,,,,,,2023-08-16_08h45.59.306,HF_wild_card,2022.2.4,Linux x86_64,60.0060006,62b33e90d4a7c3f314f45ba6,64d2fd46c836a06233681665,64dc7e9a62f3414613033471,,,,,,,ctch,resources/DY.BMP,resources/DBN.BMP,Door4,-0.528453787,1.11262E-06,1,0,0,1.5129,optionLeft,60,725,1,12,0,12,0,1,,,,,,,,,,,,,,,,,,,,,,,,,,,,,,,,,,,,,,,
,,,,,,,,2023-08-16_08h45.59.306,HF_wild_card,2022.2.4,Linux x86_64,60.0060006,62b33e90d4a7c3f314f45ba6,64d2fd46c836a06233681665,64dc7e9a62f3414613033471,,,,,,,decisionTrl,resources/DY.BMP,resources/DB.BMP,Door3,0.346771797,-0.09118549,1,0,0,8.866,optionRight,70,795,1,13,0,13,0,1,,,,,,,,,,,,,,,,,,,,,,,,,,,,,,,,,,,,,,,
,,,,,,,,2023-08-16_08h45.59.306,HF_wild_card,2022.2.4,Linux x86_64,60.0060006,62b33e90d4a7c3f314f45ba6,64d2fd46c836a06233681665,64dc7e9a62f3414613033471,,,,,,,decisionTrl,resources/DY.BMP,resources/DB.BMP,Door3,0.417269071,0.048596462,1,0,0,1.8982,optionRight,70,865,1,14,0,14,0,1,,,,,,,,,,,,,,,,,,,,,,,,,,,,,,,,,,,,,,,
,,,,,,,,2023-08-16_08h45.59.306,HF_wild_card,2022.2.4,Linux x86_64,60.0060006,62b33e90d4a7c3f314f45ba6,64d2fd46c836a06233681665,64dc7e9a62f3414613033471,,,,,,,sngl,resources/Empty.png,resources/DG.BMP,Door2,0.281858206,-0.010939717,1,0,0,1.4653,optionRight,20,885,1,15,0,15,0,1,,,,,,,,,,,,,,,,,,,,,,,,,,,,,,,,,,,,,,,
,,,,,,,,2023-08-16_08h45.59.306,HF_wild_card,2022.2.4,Linux x86_64,60.0060006,62b33e90d4a7c3f314f45ba6,64d2fd46c836a06233681665,64dc7e9a62f3414613033471,,,,,,,sngl,resources/DY.BMP,resources/Empty.png,Door4,-0.277011474,-0.064198454,1,0,0,1.3968,optionLeft,80,965,1,16,0,16,0,1,,,,,,,,,,,,,,,,,,,,,,,,,,,,,,,,,,,,,,,
,,,,,,,,2023-08-16_08h45.59.306,HF_wild_card,2022.2.4,Linux x86_64,60.0060006,62b33e90d4a7c3f314f45ba6,64d2fd46c836a06233681665,64dc7e9a62f3414613033471,,,,,,,decisionTrl,resources/DG.BMP,resources/DBN.BMP,Door2,-0.355696797,0.049497167,1,0,0,1.7802,optionLeft,20,985,1,17,0,17,0,1,,,,,,,,,,,,,,,,,,,,,,,,,,,,,,,,,,,,,,,
,,,,,,,,2023-08-16_08h45.59.306,HF_wild_card,2022.2.4,Linux x86_64,60.0060006,62b33e90d4a7c3f314f45ba6,64d2fd46c836a06233681665,64dc7e9a62f3414613033471,,,,,,,decisionTrl,resources/DBN.BMP,resources/DG.BMP,Door2,0.328275522,-0.049088279,1,0,0,2.5173,optionRight,20,1005,1,18,0,18,0,1,,,,,,,,,,,,,,,,,,,,,,,,,,,,,,,,,,,,,,,
,,,,,,,,2023-08-16_08h45.59.306,HF_wild_card,2022.2.4,Linux x86_64,60.0060006,62b33e90d4a7c3f314f45ba6,64d2fd46c836a06233681665,64dc7e9a62f3414613033471,,,,,,,ctch,resources/DBN.BMP,resources/DY.BMP,Door1,-0.30843703,0.032072544,1,0,0,2.8482,optionLeft,30,1035,1,19,0,19,0,1,,,,,,,,,,,,,,,,,,,,,,,,,,,,,,,,,,,,,,,
,,,,,,,,2023-08-16_08h45.59.306,HF_wild_card,2022.2.4,Linux x86_64,60.0060006,62b33e90d4a7c3f314f45ba6,64d2fd46c836a06233681665,64dc7e9a62f3414613033471,,,,,,,ctch,resources/DG.BMP,resources/DB.BMP,Door3,0.334805171,-0.145086686,1,0,0,1.2638,optionRight,70,1105,1,20,0,20,0,1,,,,,,,,,,,,,,,,,,,,,,,,,,,,,,,,,,,,,,,
,,,,,,,,2023-08-16_08h45.59.306,HF_wild_card,2022.2.4,Linux x86_64,60.0060006,62b33e90d4a7c3f314f45ba6,64d2fd46c836a06233681665,64dc7e9a62f3414613033471,,,,,,,decisionTrl,resources/DP.BMP,resources/DB.BMP,WildCard_NonEx,-0.37384216,0.010775328,1,0,0,2.7626,optionLeft,45,1150,1,21,0,21,0,1,,,,,,,,,,,,,,,,,,,,,,,,,,,,,,,,,,,,,,,
,,,,,,,,2023-08-16_08h45.59.306,HF_wild_card,2022.2.4,Linux x86_64,60.0060006,62b33e90d4a7c3f314f45ba6,64d2fd46c836a06233681665,64dc7e9a62f3414613033471,,,,,,,ctch,resources/DB.BMP,resources/DG.BMP,Door2,0.332229376,-0.080029011,1,0,0,3.314,optionRight,40,1190,1,22,0,22,0,1,,,,,,,,,,,,,,,,,,,,,,,,,,,,,,,,,,,,,,,
,,,,,,,,2023-08-16_08h45.59.306,HF_wild_card,2022.2.4,Linux x86_64,60.0060006,62b33e90d4a7c3f314f45ba6,64d2fd46c836a06233681665,64dc7e9a62f3414613033471,,,,,,,decisionTrl,resources/DBN.BMP,resources/DG.BMP,Door2,0.350839933,-0.063373963,1,0,0,4.1148,optionRight,20,1210,1,23,0,23,0,1,,,,,,,,,,,,,,,,,,,,,,,,,,,,,,,,,,,,,,,
,,,,,,,,2023-08-16_08h45.59.306,HF_wild_card,2022.2.4,Linux x86_64,60.0060006,62b33e90d4a7c3f314f45ba6,64d2fd46c836a06233681665,64dc7e9a62f3414613033471,,,,,,,decisionTrl,resources/DP.BMP,resources/DBN.BMP,WildCard_NonEx,-0.287282586,-0.037297606,1,0,0,1.4612,optionLeft,45,1255,1,24,0,24,0,1,,,,,,,,,,,,,,,,,,,,,,,,,,,,,,,,,,,,,,,
,,,,,,,,2023-08-16_08h45.59.306,HF_wild_card,2022.2.4,Linux x86_64,60.0060006,62b33e90d4a7c3f314f45ba6,64d2fd46c836a06233681665,64dc7e9a62f3414613033471,,,,,,,sngl,resources/DP.BMP,resources/Empty.png,WildCard_NonEx,-0.272220969,-0.048126578,1,0,0,3.1143,optionLeft,45,1300,1,25,0,25,0,1,,,,,,,,,,,,,,,,,,,,,,,,,,,,,,,,,,,,,,,
,,,,,,,,2023-08-16_08h45.59.306,HF_wild_card,2022.2.4,Linux x86_64,60.0060006,62b33e90d4a7c3f314f45ba6,64d2fd46c836a06233681665,64dc7e9a62f3414613033471,,,,,,,sngl,resources/Empty.png,resources/DBN.BMP,Door1,0.411840836,-0.017422318,1,0,0,1.1791,optionRight,30,1330,1,26,0,26,0,1,,,,,,,,,,,,,,,,,,,,,,,,,,,,,,,,,,,,,,,
,,,,,,,,2023-08-16_08h45.59.306,HF_wild_card,2022.2.4,Linux x86_64,60.0060006,62b33e90d4a7c3f314f45ba6,64d2fd46c836a06233681665,64dc7e9a62f3414613033471,,,,,,,decisionTrl,resources/DB.BMP,resources/DP.BMP,WildCard_NonEx,0.444080035,-0.016456564,1,0,0,1.5817,optionRight,55,1385,1,27,0,27,0,1,,,,,,,,,,,,,,,,,,,,,,,,,,,,,,,,,,,,,,,
,,,,,,,,2023-08-16_08h45.59.306,HF_wild_card,2022.2.4,Linux x86_64,60.0060006,62b33e90d4a7c3f314f45ba6,64d2fd46c836a06233681665,64dc7e9a62f3414613033471,,,,,,,sngl,resources/DP.BMP,resources/Empty.png,WildCard_NonEx,-0.410056194,0.008296172,1,0,0,0.9457,optionLeft,55,1440,1,28,0,28,0,1,,,,,,,,,,,,,,,,,,,,,,,,,,,,,,,,,,,,,,,
,,,,,,,,2023-08-16_08h45.59.306,HF_wild_card,2022.2.4,Linux x86_64,60.0060006,62b33e90d4a7c3f314f45ba6,64d2fd46c836a06233681665,64dc7e9a62f3414613033471,,,,,,,decisionTrl,resources/DBN.BMP,resources/DP.BMP,WildCard_NonEx,0.351762851,-0.080658277,1,0,0,1.2297,optionRight,45,1485,1,29,0,29,0,1,,,,,,,,,,,,,,,,,,,,,,,,,,,,,,,,,,,,,,,
,,,,,,,,2023-08-16_08h45.59.306,HF_wild_card,2022.2.4,Linux x86_64,60.0060006,62b33e90d4a7c3f314f45ba6,64d2fd46c836a06233681665,64dc7e9a62f3414613033471,,,,,,,decisionTrl,resources/DBN.BMP,resources/DG.BMP,Door2,0.38690869,-0.08347702,1,0,0,1.2404,optionRight,20,1505,1,30,0,30,0,1,,,,,,,,,,,,,,,,,,,,,,,,,,,,,,,,,,,,,,,
,,,,,,,,2023-08-16_08h45.59.306,HF_wild_card,2022.2.4,Linux x86_64,60.0060006,62b33e90d4a7c3f314f45ba6,64d2fd46c836a06233681665,64dc7e9a62f3414613033471,,,,,,,decisionTrl,resources/DY.BMP,resources/DP.BMP,WildCard_NonEx,0.384218613,-0.112016956,1,0,0,2.2469,optionRight,45,1550,1,31,0,31,0,1,,,,,,,,,,,,,,,,,,,,,,,,,,,,,,,,,,,,,,,
,,,,,,,,2023-08-16_08h45.59.306,HF_wild_card,2022.2.4,Linux x86_64,60.0060006,62b33e90d4a7c3f314f45ba6,64d2fd46c836a06233681665,64dc7e9a62f3414613033471,,,,,,,ctch,resources/DG.BMP,resources/DB.BMP,Door3,0.417416016,0.011466861,1,0,0,1.9815,optionRight,70,1620,1,32,0,32,0,1,,,,,,,,,,,,,,,,,,,,,,,,,,,,,,,,,,,,,,,
,,,,,,,,2023-08-16_08h45.59.306,HF_wild_card,2022.2.4,Linux x86_64,60.0060006,62b33e90d4a7c3f314f45ba6,64d2fd46c836a06233681665,64dc7e9a62f3414613033471,,,,,,,decisionTrl,resources/DG.BMP,resources/DBN.BMP,Door1,0.325067759,-0.023440679,1,0,0,1.648,optionRight,30,1650,1,33,0,33,0,1,,,,,,,,,,,,,,,,,,,,,,,,,,,,,,,,,,,,,,,
,,,,,,,,2023-08-16_08h45.59.306,HF_wild_card,2022.2.4,Linux x86_64,60.0060006,62b33e90d4a7c3f314f45ba6,64d2fd46c836a06233681665,64dc7e9a62f3414613033471,,,,,,,sngl,resources/DB.BMP,resources/Empty.png,Door3,-0.314570069,-0.010620316,1,0,0,1.3295,optionLeft,70,1720,1,34,0,34,0,1,,,,,,,,,,,,,,,,,,,,,,,,,,,,,,,,,,,,,,,
,,,,,,,,2023-08-16_08h45.59.306,HF_wild_card,2022.2.4,Linux x86_64,60.0060006,62b33e90d4a7c3f314f45ba6,64d2fd46c836a06233681665,64dc7e9a62f3414613033471,,,,,,,sngl,resources/Empty.png,resources/DP.BMP,WildCard_NonEx,0.450681845,-0.084485332,1,0,0,0.9467,optionRight,55,1775,1,35,0,35,0,1,,,,,,,,,,,,,,,,,,,,,,,,,,,,,,,,,,,,,,,
,,,,,,,,2023-08-16_08h45.59.306,HF_wild_card,2022.2.4,Linux x86_64,60.0060006,62b33e90d4a7c3f314f45ba6,64d2fd46c836a06233681665,64dc7e9a62f3414613033471,,,,,,,decisionTrl,resources/DG.BMP,resources/DBN.BMP,Door1,0.462287744,-0.105317036,1,0,0,2.5648,optionRight,30,1805,1,36,0,36,0,1,,,,,,,,,,,,,,,,,,,,,,,,,,,,,,,,,,,,,,,
,,,,,,,,2023-08-16_08h45.59.306,HF_wild_card,2022.2.4,Linux x86_64,60.0060006,62b33e90d4a7c3f314f45ba6,64d2fd46c836a06233681665,64dc7e9a62f3414613033471,,,,,,,ctch,resources/DY.BMP,resources/DBN.BMP,Door4,-0.344176372,-0.024931908,1,0,0,1.4965,optionLeft,80,1885,1,37,0,37,0,1,,,,,,,,,,,,,,,,,,,,,,,,,,,,,,,,,,,,,,,
,,,,,,,,2023-08-16_08h45.59.306,HF_wild_card,2022.2.4,Linux x86_64,60.0060006,62b33e90d4a7c3f314f45ba6,64d2fd46c836a06233681665,64dc7e9a62f3414613033471,,,,,,,ctch,resources/DB.BMP,resources/DG.BMP,Door3,-0.342107574,-0.067150235,1,0,0,1.9807,optionLeft,70,1955,1,38,0,38,0,1,,,,,,,,,,,,,,,,,,,,,,,,,,,,,,,,,,,,,,,
,,,,,,,,2023-08-16_08h45.59.306,HF_wild_card,2022.2.4,Linux x86_64,60.0060006,62b33e90d4a7c3f314f45ba6,64d2fd46c836a06233681665,64dc7e9a62f3414613033471,,,,,,,decisionTrl,resources/DB.BMP,resources/DY.BMP,Door4,0.355589231,-0.008212487,1,0,0,1.467,optionRight,60,2015,1,39,0,39,0,1,,,,,,,,,,,,,,,,,,,,,,,,,,,,,,,,,,,,,,,
,,,,,,,,2023-08-16_08h45.59.306,HF_wild_card,2022.2.4,Linux x86_64,60.0060006,62b33e90d4a7c3f314f45ba6,64d2fd46c836a06233681665,64dc7e9a62f3414613033471,,,,,,,sngl,resources/DBN.BMP,resources/Empty.png,Door1,-0.448586027,-0.033164064,1,0,0,1.1948,optionLeft,30,2045,1,40,0,40,0,1,,,,,,,,,,,,,,,,,,,,,,,,,,,,,,,,,,,,,,,
,,,,,,,,2023-08-16_08h45.59.306,HF_wild_card,2022.2.4,Linux x86_64,60.0060006,62b33e90d4a7c3f314f45ba6,64d2fd46c836a06233681665,64dc7e9a62f3414613033471,,,,,,,decisionTrl,resources/DB.BMP,resources/DY.BMP,Door4,0.323686202,-0.035564303,1,0,0,1.0467,optionRight,80,2125,1,41,0,41,0,1,,,,,,,,,,,,,,,,,,,,,,,,,,,,,,,,,,,,,,,
,,,,,,,,2023-08-16_08h45.59.306,HF_wild_card,2022.2.4,Linux x86_64,60.0060006,62b33e90d4a7c3f314f45ba6,64d2fd46c836a06233681665,64dc7e9a62f3414613033471,,,,,,,decisionTrl,resources/DG.BMP,resources/DP.BMP,WildCard_NonEx,0.383415222,-0.058065653,1,0,0,1.9966,optionRight,55,2180,1,42,0,42,0,1,,,,,,,,,,,,,,,,,,,,,,,,,,,,,,,,,,,,,,,
,,,,,,,,2023-08-16_08h45.59.306,HF_wild_card,2022.2.4,Linux x86_64,60.0060006,62b33e90d4a7c3f314f45ba6,64d2fd46c836a06233681665,64dc7e9a62f3414613033471,,,,,,,decisionTrl,resources/DB.BMP,resources/DY.BMP,Door4,0.391527732,-0.045336445,1,0,0,1.231,optionRight,80,2260,1,43,0,43,0,1,,,,,,,,,,,,,,,,,,,,,,,,,,,,,,,,,,,,,,,
,,,,,,,,2023-08-16_08h45.59.306,HF_wild_card,2022.2.4,Linux x86_64,60.0060006,62b33e90d4a7c3f314f45ba6,64d2fd46c836a06233681665,64dc7e9a62f3414613033471,,,,,,,,,,,,,,,,,,,,,,,,,,0,0,0,0,1,,,,,,,,,,,,,,,,,,,,,,,,,,,,,,,,,,
,,,,,,,,2023-08-16_08h45.59.306,HF_wild_card,2022.2.4,Linux x86_64,60.0060006,62b33e90d4a7c3f314f45ba6,64d2fd46c836a06233681665,64dc7e9a62f3414613033471,,,,,,,sngl,resources/DP.BMP,resources/Empty.png,WildCard_NonEx,-0.388470888,-0.111895402,1,0,0,3.1975,optionLeft,45,2305,2,0,0,0,0,1,,,,,,,,,,,,,,,,,,,,,,,,,,,,,,,,,,,,,,,
,,,,,,,,2023-08-16_08h45.59.306,HF_wild_card,2022.2.4,Linux x86_64,60.0060006,62b33e90d4a7c3f314f45ba6,64d2fd46c836a06233681665,64dc7e9a62f3414613033471,,,,,,,decisionTrl,resources/DG.BMP,resources/DBN.BMP,Door2,-0.373566389,-0.081573685,1,0,0,2.3678,optionLeft,20,2325,2,1,0,1,0,1,,,,,,,,,,,,,,,,,,,,,,,,,,,,,,,,,,,,,,,
,,,,,,,,2023-08-16_08h45.59.306,HF_wild_card,2022.2.4,Linux x86_64,60.0060006,62b33e90d4a7c3f314f45ba6,64d2fd46c836a06233681665,64dc7e9a62f3414613033471,,,,,,,ctch,resources/DB.BMP,resources/DG.BMP,Door2,0.344937722,-0.026342591,1,0,0,1.9134,optionRight,40,2365,2,2,0,2,0,1,,,,,,,,,,,,,,,,,,,,,,,,,,,,,,,,,,,,,,,
,,,,,,,,2023-08-16_08h45.59.306,HF_wild_card,2022.2.4,Linux x86_64,60.0060006,62b33e90d4a7c3f314f45ba6,64d2fd46c836a06233681665,64dc7e9a62f3414613033471,,,,,,,decisionTrl,resources/DBN.BMP,resources/DG.BMP,Door2,0.327534835,-0.048966487,1,0,0,1.4621,optionRight,40,2405,2,3,0,3,0,1,,,,,,,,,,,,,,,,,,,,,,,,,,,,,,,,,,,,,,,
,,,,,,,,2023-08-16_08h45.59.306,HF_wild_card,2022.2.4,Linux x86_64,60.0060006,62b33e90d4a7c3f314f45ba6,64d2fd46c836a06233681665,64dc7e9a62f3414613033471,,,,,,,sngl,resources/Empty.png,resources/DBN.BMP,Door1,0.411583265,-0.017047127,1,0,0,1.0968,optionRight,30,2435,2,4,0,4,0,1,,,,,,,,,,,,,,,,,,,,,,,,,,,,,,,,,,,,,,,
,,,,,,,,2023-08-16_08h45.59.306,HF_wild_card,2022.2.4,Linux x86_64,60.0060006,62b33e90d4a7c3f314f45ba6,64d2fd46c836a06233681665,64dc7e9a62f3414613033471,,,,,,,sngl,resources/Empty.png,resources/DB.BMP,Door3,0.46197621,-0.090079625,1,0,0,1.4107,optionRight,70,2505,2,5,0,5,0,1,,,,,,,,,,,,,,,,,,,,,,,,,,,,,,,,,,,,,,,
,,,,,,,,2023-08-16_08h45.59.306,HF_wild_card,2022.2.4,Linux x86_64,60.0060006,62b33e90d4a7c3f314f45ba6,64d2fd46c836a06233681665,64dc7e9a62f3414613033471,,,,,,,decisionTrl,resources/DB.BMP,resources/DY.BMP,Door3,-0.333062927,-0.021000425,1,0,0,0.9429,optionLeft,70,2575,2,6,0,6,0,1,,,,,,,,,,,,,,,,,,,,,,,,,,,,,,,,,,,,,,,
,,,,,,,,2023-08-16_08h45.59.306,HF_wild_card,2022.2.4,Linux x86_64,60.0060006,62b33e90d4a7c3f314f45ba6,64d2fd46c836a06233681665,64dc7e9a62f3414613033471,,,,,,,decisionTrl,resources/DP.BMP,resources/DG.BMP,WildCard_NonEx,-0.434348861,0.046145757,1,0,0,1.1798,optionLeft,55,2630,2,7,0,7,0,1,,,,,,,,,,,,,,,,,,,,,,,,,,,,,,,,,,,,,,,
,,,,,,,,2023-08-16_08h45.59.306,HF_wild_card,2022.2.4,Linux x86_64,60.0060006,62b33e90d4a7c3f314f45ba6,64d2fd46c836a06233681665,64dc7e9a62f3414613033471,,,,,,,decisionTrl,resources/DB.BMP,resources/DY.BMP,Door4,0.301268101,-0.042650263,1,0,0,1.8634,optionRight,60,2690,2,8,0,8,0,1,,,,,,,,,,,,,,,,,,,,,,,,,,,,,,,,,,,,,,,
,,,,,,,,2023-08-16_08h45.59.306,HF_wild_card,2022.2.4,Linux x86_64,60.0060006,62b33e90d4a7c3f314f45ba6,64d2fd46c836a06233681665,64dc7e9a62f3414613033471,,,,,,,decisionTrl,resources/DP.BMP,resources/DY.BMP,Door4,0.367465576,-0.043990374,1,0,0,1.3129,optionRight,80,2770,2,9,0,9,0,1,,,,,,,,,,,,,,,,,,,,,,,,,,,,,,,,,,,,,,,
,,,,,,,,2023-08-16_08h45.59.306,HF_wild_card,2022.2.4,Linux x86_64,60.0060006,62b33e90d4a7c3f314f45ba6,64d2fd46c836a06233681665,64dc7e9a62f3414613033471,,,,,,,sngl,resources/Empty.png,resources/DP.BMP,WildCard_NonEx,0.42110006,-0.072602232,1,0,0,1.114,optionRight,45,2815,2,10,0,10,0,1,,,,,,,,,,,,,,,,,,,,,,,,,,,,,,,,,,,,,,,
,,,,,,,,2023-08-16_08h45.59.306,HF_wild_card,2022.2.4,Linux x86_64,60.0060006,62b33e90d4a7c3f314f45ba6,64d2fd46c836a06233681665,64dc7e9a62f3414613033471,,,,,,,decisionTrl,resources/DP.BMP,resources/DBN.BMP,WildCard_NonEx,-0.33974278,-0.00570631,1,0,0,2.4162,optionLeft,55,2870,2,11,0,11,0,1,,,,,,,,,,,,,,,,,,,,,,,,,,,,,,,,,,,,,,,
,,,,,,,,2023-08-16_08h45.59.306,HF_wild_card,2022.2.4,Linux x86_64,60.0060006,62b33e90d4a7c3f314f45ba6,64d2fd46c836a06233681665,64dc7e9a62f3414613033471,,,,,,,ctch,resources/DG.BMP,resources/DB.BMP,Door3,0.31966122,-0.014996489,1,0,0,1.6241,optionRight,70,2940,2,12,0,12,0,1,,,,,,,,,,,,,,,,,,,,,,,,,,,,,,,,,,,,,,,
,,,,,,,,2023-08-16_08h45.59.306,HF_wild_card,2022.2.4,Linux x86_64,60.0060006,62b33e90d4a7c3f314f45ba6,64d2fd46c836a06233681665,64dc7e9a62f3414613033471,,,,,,,sngl,resources/DG.BMP,resources/Empty.png,Door2,-0.367171923,0.04296569,1,0,0,1.0634,optionLeft,20,2960,2,13,0,13,0,1,,,,,,,,,,,,,,,,,,,,,,,,,,,,,,,,,,,,,,,
,,,,,,,,2023-08-16_08h45.59.306,HF_wild_card,2022.2.4,Linux x86_64,60.0060006,62b33e90d4a7c3f314f45ba6,64d2fd46c836a06233681665,64dc7e9a62f3414613033471,,,,,,,decisionTrl,resources/DG.BMP,resources/DBN.BMP,Door1,0.288260539,-0.09141914,1,0,0,0.9799,optionRight,30,2990,2,14,0,14,0,1,,,,,,,,,,,,,,,,,,,,,,,,,,,,,,,,,,,,,,,
,,,,,,,,2023-08-16_08h45.59.306,HF_wild_card,2022.2.4,Linux x86_64,60.0060006,62b33e90d4a7c3f314f45ba6,64d2fd46c836a06233681665,64dc7e9a62f3414613033471,,,,,,,ctch,resources/DY.BMP,resources/DBN.BMP,Door4,-0.328536987,-0.041021546,1,0,0,3.2133,optionLeft,60,3050,2,15,0,15,0,1,,,,,,,,,,,,,,,,,,,,,,,,,,,,,,,,,,,,,,,
,,,,,,,,2023-08-16_08h45.59.306,HF_wild_card,2022.2.4,Linux x86_64,60.0060006,62b33e90d4a7c3f314f45ba6,64d2fd46c836a06233681665,64dc7e9a62f3414613033471,,,,,,,sngl,resources/Empty.png,resources/DG.BMP,Door2,0.379824877,-0.045991421,1,0,0,1.1456,optionRight,40,3090,2,16,0,16,0,1,,,,,,,,,,,,,,,,,,,,,,,,,,,,,,,,,,,,,,,
,,,,,,,,2023-08-16_08h45.59.306,HF_wild_card,2022.2.4,Linux x86_64,60.0060006,62b33e90d4a7c3f314f45ba6,64d2fd46c836a06233681665,64dc7e9a62f3414613033471,,,,,,,decisionTrl,resources/DY.BMP,resources/DB.BMP,Door4,-0.367072701,-0.003855904,1,0,0,1.3295,optionLeft,60,3150,2,17,0,17,0,1,,,,,,,,,,,,,,,,,,,,,,,,,,,,,,,,,,,,,,,
,,,,,,,,2023-08-16_08h45.59.306,HF_wild_card,2022.2.4,Linux x86_64,60.0060006,62b33e90d4a7c3f314f45ba6,64d2fd46c836a06233681665,64dc7e9a62f3414613033471,,,,,,,decisionTrl,resources/DG.BMP,resources/DP.BMP,WildCard_NonEx,0.441563447,-0.135467132,1,0,0,2.4297,optionRight,55,3205,2,18,0,18,0,1,,,,,,,,,,,,,,,,,,,,,,,,,,,,,,,,,,,,,,,
,,,,,,,,2023-08-16_08h45.59.306,HF_wild_card,2022.2.4,Linux x86_64,60.0060006,62b33e90d4a7c3f314f45ba6,64d2fd46c836a06233681665,64dc7e9a62f3414613033471,,,,,,,decisionTrl,resources/DG.BMP,resources/DBN.BMP,Door2,-0.289468726,-0.015373468,1,0,0,1.2808,optionLeft,20,3225,2,19,0,19,0,1,,,,,,,,,,,,,,,,,,,,,,,,,,,,,,,,,,,,,,,
,,,,,,,,2023-08-16_08h45.59.306,HF_wild_card,2022.2.4,Linux x86_64,60.0060006,62b33e90d4a7c3f314f45ba6,64d2fd46c836a06233681665,64dc7e9a62f3414613033471,,,,,,,decisionTrl,resources/DY.BMP,resources/DB.BMP,Door4,-0.452257077,0.010468086,1,0,0,1.7131,optionLeft,60,3285,2,20,0,20,0,1,,,,,,,,,,,,,,,,,,,,,,,,,,,,,,,,,,,,,,,
,,,,,,,,2023-08-16_08h45.59.306,HF_wild_card,2022.2.4,Linux x86_64,60.0060006,62b33e90d4a7c3f314f45ba6,64d2fd46c836a06233681665,64dc7e9a62f3414613033471,,,,,,,sngl,resources/DP.BMP,resources/Empty.png,WildCard_NonEx,-0.386931698,-0.050897042,1,0,0,1.1461,optionLeft,55,3340,2,21,0,21,0,1,,,,,,,,,,,,,,,,,,,,,,,,,,,,,,,,,,,,,,,
,,,,,,,,2023-08-16_08h45.59.306,HF_wild_card,2022.2.4,Linux x86_64,60.0060006,62b33e90d4a7c3f314f45ba6,64d2fd46c836a06233681665,64dc7e9a62f3414613033471,,,,,,,decisionTrl,resources/DBN.BMP,resources/DP.BMP,WildCard_NonEx,0.273730914,-0.026136597,1,0,0,1.4801,optionRight,45,3385,2,22,0,22,0,1,,,,,,,,,,,,,,,,,,,,,,,,,,,,,,,,,,,,,,,
,,,,,,,,2023-08-16_08h45.59.306,HF_wild_card,2022.2.4,Linux x86_64,60.0060006,62b33e90d4a7c3f314f45ba6,64d2fd46c836a06233681665,64dc7e9a62f3414613033471,,,,,,,ctch,resources/DB.BMP,resources/DG.BMP,Door3,-0.419788798,0.009283503,1,0,0,3.1677,optionLeft,70,3455,2,23,0,23,0,1,,,,,,,,,,,,,,,,,,,,,,,,,,,,,,,,,,,,,,,
,,,,,,,,2023-08-16_08h45.59.306,HF_wild_card,2022.2.4,Linux x86_64,60.0060006,62b33e90d4a7c3f314f45ba6,64d2fd46c836a06233681665,64dc7e9a62f3414613033471,,,,,,,sngl,resources/Empty.png,resources/DY.BMP,Door4,0.371901274,-0.0989844,1,0,0,1.029,optionRight,80,3535,2,24,0,24,0,1,,,,,,,,,,,,,,,,,,,,,,,,,,,,,,,,,,,,,,,
,,,,,,,,2023-08-16_08h45.59.306,HF_wild_card,2022.2.4,Linux x86_64,60.0060006,62b33e90d4a7c3f314f45ba6,64d2fd46c836a06233681665,64dc7e9a62f3414613033471,,,,,,,sngl,resources/DY.BMP,resources/Empty.png,Door4,-0.426156004,0.033702493,1,0,0,1.3959,optionLeft,60,3595,2,25,0,25,0,1,,,,,,,,,,,,,,,,,,,,,,,,,,,,,,,,,,,,,,,
,,,,,,,,2023-08-16_08h45.59.306,HF_wild_card,2022.2.4,Linux x86_64,60.0060006,62b33e90d4a7c3f314f45ba6,64d2fd46c836a06233681665,64dc7e9a62f3414613033471,,,,,,,decisionTrl,resources/DBN.BMP,resources/DG.BMP,Door2,0.415682952,-0.063329061,1,0,0,1.4012,optionRight,40,3635,2,26,0,26,0,1,,,,,,,,,,,,,,,,,,,,,,,,,,,,,,,,,,,,,,,
,,,,,,,,2023-08-16_08h45.59.306,HF_wild_card,2022.2.4,Linux x86_64,60.0060006,62b33e90d4a7c3f314f45ba6,64d2fd46c836a06233681665,64dc7e9a62f3414613033471,,,,,,,decisionTrl,resources/DB.BMP,resources/DP.BMP,WildCard_NonEx,0.511936665,-0.063446959,1,0,0,1.6633,optionRight,45,3680,2,27,0,27,0,1,,,,,,,,,,,,,,,,,,,,,,,,,,,,,,,,,,,,,,,
,,,,,,,,2023-08-16_08h45.59.306,HF_wild_card,2022.2.4,Linux x86_64,60.0060006,62b33e90d4a7c3f314f45ba6,64d2fd46c836a06233681665,64dc7e9a62f3414613033471,,,,,,,decisionTrl,resources/DY.BMP,resources/DB.BMP,Door4,-0.369457126,0.010596474,1,0,0,3.061,optionLeft,60,3740,2,28,0,28,0,1,,,,,,,,,,,,,,,,,,,,,,,,,,,,,,,,,,,,,,,
,,,,,,,,2023-08-16_08h45.59.306,HF_wild_card,2022.2.4,Linux x86_64,60.0060006,62b33e90d4a7c3f314f45ba6,64d2fd46c836a06233681665,64dc7e9a62f3414613033471,,,,,,,ctch,resources/DBN.BMP,resources/DY.BMP,Door4,0.32585001,0.017703931,1,0,0,1.0473,optionRight,80,3820,2,29,0,29,0,1,,,,,,,,,,,,,,,,,,,,,,,,,,,,,,,,,,,,,,,
,,,,,,,,2023-08-16_08h45.59.306,HF_wild_card,2022.2.4,Linux x86_64,60.0060006,62b33e90d4a7c3f314f45ba6,64d2fd46c836a06233681665,64dc7e9a62f3414613033471,,,,,,,decisionTrl,resources/DB.BMP,resources/DY.BMP,Door4,0.328044573,-0.011409839,1,0,0,1.6148,optionRight,60,3880,2,30,0,30,0,1,,,,,,,,,,,,,,,,,,,,,,,,,,,,,,,,,,,,,,,
,,,,,,,,2023-08-16_08h45.59.306,HF_wild_card,2022.2.4,Linux x86_64,60.0060006,62b33e90d4a7c3f314f45ba6,64d2fd46c836a06233681665,64dc7e9a62f3414613033471,,,,,,,sngl,resources/DBN.BMP,resources/Empty.png,Door1,-0.400235335,0.065943638,1,0,0,1.3309,optionLeft,30,3910,2,31,0,31,0,1,,,,,,,,,,,,,,,,,,,,,,,,,,,,,,,,,,,,,,,
,,,,,,,,2023-08-16_08h45.59.306,HF_wild_card,2022.2.4,Linux x86_64,60.0060006,62b33e90d4a7c3f314f45ba6,64d2fd46c836a06233681665,64dc7e9a62f3414613033471,,,,,,,ctch,resources/DY.BMP,resources/DBN.BMP,Door4,-0.352481683,-0.033718785,1,0,0,2.9657,optionLeft,60,3970,2,32,0,32,0,1,,,,,,,,,,,,,,,,,,,,,,,,,,,,,,,,,,,,,,,
,,,,,,,,2023-08-16_08h45.59.306,HF_wild_card,2022.2.4,Linux x86_64,60.0060006,62b33e90d4a7c3f314f45ba6,64d2fd46c836a06233681665,64dc7e9a62f3414613033471,,,,,,,decisionTrl,resources/DBN.BMP,resources/DG.BMP,Door2,0.315713803,-0.048320929,1,0,0,1.1307,optionRight,40,4010,2,33,0,33,0,1,,,,,,,,,,,,,,,,,,,,,,,,,,,,,,,,,,,,,,,
,,,,,,,,2023-08-16_08h45.59.306,HF_wild_card,2022.2.4,Linux x86_64,60.0060006,62b33e90d4a7c3f314f45ba6,64d2fd46c836a06233681665,64dc7e9a62f3414613033471,,,,,,,decisionTrl,resources/DY.BMP,resources/DP.BMP,Door4,-0.399329066,0.026753426,1,0,0,2.1,optionLeft,60,4070,2,34,0,34,0,1,,,,,,,,,,,,,,,,,,,,,,,,,,,,,,,,,,,,,,,
,,,,,,,,2023-08-16_08h45.59.306,HF_wild_card,2022.2.4,Linux x86_64,60.0060006,62b33e90d4a7c3f314f45ba6,64d2fd46c836a06233681665,64dc7e9a62f3414613033471,,,,,,,ctch,resources/DG.BMP,resources/DB.BMP,Door3,0.328588724,-0.05239435,1,0,0,1.4509,optionRight,70,4140,2,35,0,35,0,1,,,,,,,,,,,,,,,,,,,,,,,,,,,,,,,,,,,,,,,
,,,,,,,,2023-08-16_08h45.59.306,HF_wild_card,2022.2.4,Linux x86_64,60.0060006,62b33e90d4a7c3f314f45ba6,64d2fd46c836a06233681665,64dc7e9a62f3414613033471,,,,,,,sngl,resources/DB.BMP,resources/Empty.png,Door3,-0.3167847,-0.076227824,1,0,0,0.9468,optionLeft,70,4210,2,36,0,36,0,1,,,,,,,,,,,,,,,,,,,,,,,,,,,,,,,,,,,,,,,
,,,,,,,,2023-08-16_08h45.59.306,HF_wild_card,2022.2.4,Linux x86_64,60.0060006,62b33e90d4a7c3f314f45ba6,64d2fd46c836a06233681665,64dc7e9a62f3414613033471,,,,,,,decisionTrl,resources/DB.BMP,resources/DY.BMP,Door3,-0.34556373,-0.005528291,1,0,0,1.3957,optionLeft,70,4280,2,37,0,37,0,1,,,,,,,,,,,,,,,,,,,,,,,,,,,,,,,,,,,,,,,
,,,,,,,,2023-08-16_08h45.59.306,HF_wild_card,2022.2.4,Linux x86_64,60.0060006,62b33e90d4a7c3f314f45ba6,64d2fd46c836a06233681665,64dc7e9a62f3414613033471,,,,,,,decisionTrl,resources/DG.BMP,resources/DBN.BMP,Door2,-0.308113297,0.004306952,1,0,0,1.6642,optionLeft,20,4300,2,38,0,38,0,1,,,,,,,,,,,,,,,,,,,,,,,,,,,,,,,,,,,,,,,
,,,,,,,,2023-08-16_08h45.59.306,HF_wild_card,2022.2.4,Linux x86_64,60.0060006,62b33e90d4a7c3f314f45ba6,64d2fd46c836a06233681665,64dc7e9a62f3414613033471,,,,,,,sngl,resources/Empty.png,resources/DP.BMP,WildCard_NonEx,0.352301518,-0.030690829,1,0,0,0.9461,optionRight,55,4355,2,39,0,39,0,1,,,,,,,,,,,,,,,,,,,,,,,,,,,,,,,,,,,,,,,
,,,,,,,,2023-08-16_08h45.59.306,HF_wild_card,2022.2.4,Linux x86_64,60.0060006,62b33e90d4a7c3f314f45ba6,64d2fd46c836a06233681665,64dc7e9a62f3414613033471,,,,,,,ctch,resources/DBN.BMP,resources/DY.BMP,Door4,0.441423496,-0.102732937,1,0,0,1.3969,optionRight,80,4435,2,40,0,40,0,1,,,,,,,,,,,,,,,,,,,,,,,,,,,,,,,,,,,,,,,
,,,,,,,,2023-08-16_08h45.59.306,HF_wild_card,2022.2.4,Linux x86_64,60.0060006,62b33e90d4a7c3f314f45ba6,64d2fd46c836a06233681665,64dc7e9a62f3414613033471,,,,,,,decisionTrl,resources/DP.BMP,resources/DB.BMP,WildCard_NonEx,-0.353375554,-0.060142318,1,0,0,4.0365,optionLeft,55,4490,2,41,0,41,0,1,,,,,,,,,,,,,,,,,,,,,,,,,,,,,,,,,,,,,,,
,,,,,,,,2023-08-16_08h45.59.306,HF_wild_card,2022.2.4,Linux x86_64,60.0060006,62b33e90d4a7c3f314f45ba6,64d2fd46c836a06233681665,64dc7e9a62f3414613033471,,,,,,,decisionTrl,resources/DY.BMP,resources/DB.BMP,Door3,0.29443717,-0.017581582,1,0,0,2.6956,optionRight,70,4560,2,42,0,42,0,1,,,,,,,,,,,,,,,,,,,,,,,,,,,,,,,,,,,,,,,
,,,,,,,,2023-08-16_08h45.59.306,HF_wild_card,2022.2.4,Linux x86_64,60.0060006,62b33e90d4a7c3f314f45ba6,64d2fd46c836a06233681665,64dc7e9a62f3414613033471,,,,,,,decisionTrl,resources/DBN.BMP,resources/DG.BMP,Door2,0.356313149,-0.026152134,1,0,0,1.5639,optionRight,20,4580,2,43,0,43,0,1,,,,,,,,,,,,,,,,,,,,,,,,,,,,,,,,,,,,,,,
,,,,,,,,2023-08-16_08h45.59.306,HF_wild_card,2022.2.4,Linux x86_64,60.0060006,62b33e90d4a7c3f314f45ba6,64d2fd46c836a06233681665,64dc7e9a62f3414613033471,,,,,,,,,,,,,,,,,,,,,,,,,,1,0,1,0,1,,,,,,,,,,,,,,,,,,,,,,,,,,,,,,,,,,
,,,,,,,,2023-08-16_08h45.59.306,HF_wild_card,2022.2.4,Linux x86_64,60.0060006,62b33e90d4a7c3f314f45ba6,64d2fd46c836a06233681665,64dc7e9a62f3414613033471,,,,,,,decisionTrl,resources/DB.BMP,resources/DY.BMP,Door4,0.337937117,-0.088437279,1,0,0,6.3972,optionRight,60,4640,3,0,0,0,0,1,,,,,,,,,,,,,,,,,,,,,,,,,,,,,,,,,,,,,,,
,,,,,,,,2023-08-16_08h45.59.306,HF_wild_card,2022.2.4,Linux x86_64,60.0060006,62b33e90d4a7c3f314f45ba6,64d2fd46c836a06233681665,64dc7e9a62f3414613033471,,,,,,,ctch,resources/DG.BMP,resources/DB.BMP,Door3,0.31947573,-0.058353384,1,0,0,1.5788,optionRight,70,4710,3,1,0,1,0,1,,,,,,,,,,,,,,,,,,,,,,,,,,,,,,,,,,,,,,,
,,,,,,,,2023-08-16_08h45.59.306,HF_wild_card,2022.2.4,Linux x86_64,60.0060006,62b33e90d4a7c3f314f45ba6,64d2fd46c836a06233681665,64dc7e9a62f3414613033471,,,,,,,sngl,resources/Empty.png,resources/DBN.BMP,Door1,0.396663427,-0.029938618,1,0,0,1.3608,optionRight,30,4740,3,2,0,2,0,1,,,,,,,,,,,,,,,,,,,,,,,,,,,,,,,,,,,,,,,
,,,,,,,,2023-08-16_08h45.59.306,HF_wild_card,2022.2.4,Linux x86_64,60.0060006,62b33e90d4a7c3f314f45ba6,64d2fd46c836a06233681665,64dc7e9a62f3414613033471,,,,,,,decisionTrl,resources/DBN.BMP,resources/DP.BMP,WildCard_NonEx,0.419978062,-0.017845631,1,0,0,1.2967,optionRight,55,4795,3,3,0,3,0,1,,,,,,,,,,,,,,,,,,,,,,,,,,,,,,,,,,,,,,,
,,,,,,,,2023-08-16_08h45.59.306,HF_wild_card,2022.2.4,Linux x86_64,60.0060006,62b33e90d4a7c3f314f45ba6,64d2fd46c836a06233681665,64dc7e9a62f3414613033471,,,,,,,decisionTrl,resources/DB.BMP,resources/DY.BMP,Door4,0.436715206,0.025289019,1,0,0,2.1706,optionRight,60,4855,3,4,0,4,0,1,,,,,,,,,,,,,,,,,,,,,,,,,,,,,,,,,,,,,,,
,,,,,,,,2023-08-16_08h45.59.306,HF_wild_card,2022.2.4,Linux x86_64,60.0060006,62b33e90d4a7c3f314f45ba6,64d2fd46c836a06233681665,64dc7e9a62f3414613033471,,,,,,,decisionTrl,resources/DG.BMP,resources/DBN.BMP,Door2,-0.299380422,-0.036441207,1,0,0,1.6796,optionLeft,20,4875,3,5,0,5,0,1,,,,,,,,,,,,,,,,,,,,,,,,,,,,,,,,,,,,,,,
,,,,,,,,2023-08-16_08h45.59.306,HF_wild_card,2022.2.4,Linux x86_64,60.0060006,62b33e90d4a7c3f314f45ba6,64d2fd46c836a06233681665,64dc7e9a62f3414613033471,,,,,,,decisionTrl,resources/DB.BMP,resources/DP.BMP,WildCard_NonEx,0.391370535,-0.040814161,1,0,0,1.6277,optionRight,45,4920,3,6,0,6,0,1,,,,,,,,,,,,,,,,,,,,,,,,,,,,,,,,,,,,,,,
,,,,,,,,2023-08-16_08h45.59.306,HF_wild_card,2022.2.4,Linux x86_64,60.0060006,62b33e90d4a7c3f314f45ba6,64d2fd46c836a06233681665,64dc7e9a62f3414613033471,,,,,,,sngl,resources/Empty.png,resources/DB.BMP,Door3,0.406974634,-0.028974454,1,0,0,1.4472,optionRight,70,4990,3,7,0,7,0,1,,,,,,,,,,,,,,,,,,,,,,,,,,,,,,,,,,,,,,,
,,,,,,,,2023-08-16_08h45.59.306,HF_wild_card,2022.2.4,Linux x86_64,60.0060006,62b33e90d4a7c3f314f45ba6,64d2fd46c836a06233681665,64dc7e9a62f3414613033471,,,,,,,decisionTrl,resources/DBN.BMP,resources/DG.BMP,Door2,0.386464675,-0.033943097,1,0,0,1.3629,optionRight,40,5030,3,8,0,8,0,1,,,,,,,,,,,,,,,,,,,,,,,,,,,,,,,,,,,,,,,
,,,,,,,,2023-08-16_08h45.59.306,HF_wild_card,2022.2.4,Linux x86_64,60.0060006,62b33e90d4a7c3f314f45ba6,64d2fd46c836a06233681665,64dc7e9a62f3414613033471,,,,,,,decisionTrl,resources/DG.BMP,resources/DBN.BMP,Door2,-0.261059721,-0.023895343,1,0,0,1.8302,optionLeft,20,5050,3,9,0,9,0,1,,,,,,,,,,,,,,,,,,,,,,,,,,,,,,,,,,,,,,,
,,,,,,,,2023-08-16_08h45.59.306,HF_wild_card,2022.2.4,Linux x86_64,60.0060006,62b33e90d4a7c3f314f45ba6,64d2fd46c836a06233681665,64dc7e9a62f3414613033471,,,,,,,sngl,resources/DP.BMP,resources/Empty.png,WildCard_NonEx,-0.358335336,-0.025531848,1,0,0,1.2839,optionLeft,55,5105,3,10,0,10,0,1,,,,,,,,,,,,,,,,,,,,,,,,,,,,,,,,,,,,,,,
,,,,,,,,2023-08-16_08h45.59.306,HF_wild_card,2022.2.4,Linux x86_64,60.0060006,62b33e90d4a7c3f314f45ba6,64d2fd46c836a06233681665,64dc7e9a62f3414613033471,,,,,,,ctch,resources/DB.BMP,resources/DG.BMP,Door3,-0.537144383,0.016277989,1,0,0,3.2891,optionLeft,70,5175,3,11,0,11,0,1,,,,,,,,,,,,,,,,,,,,,,,,,,,,,,,,,,,,,,,
,,,,,,,,2023-08-16_08h45.59.306,HF_wild_card,2022.2.4,Linux x86_64,60.0060006,62b33e90d4a7c3f314f45ba6,64d2fd46c836a06233681665,64dc7e9a62f3414613033471,,,,,,,sngl,resources/Empty.png,resources/DG.BMP,Door2,0.326806625,-0.033076286,1,0,0,1.1277,optionRight,20,5195,3,12,0,12,0,1,,,,,,,,,,,,,,,,,,,,,,,,,,,,,,,,,,,,,,,
,,,,,,,,2023-08-16_08h45.59.306,HF_wild_card,2022.2.4,Linux x86_64,60.0060006,62b33e90d4a7c3f314f45ba6,64d2fd46c836a06233681665,64dc7e9a62f3414613033471,,,,,,,decisionTrl,resources/DY.BMP,resources/DB.BMP,Door3,0.361227274,-0.000470718,1,0,0,1.6802,optionRight,70,5265,3,13,0,13,0,1,,,,,,,,,,,,,,,,,,,,,,,,,,,,,,,,,,,,,,,
,,,,,,,,2023-08-16_08h45.59.306,HF_wild_card,2022.2.4,Linux x86_64,60.0060006,62b33e90d4a7c3f314f45ba6,64d2fd46c836a06233681665,64dc7e9a62f3414613033471,,,,,,,sngl,resources/Empty.png,resources/DY.BMP,Door4,0.359504461,-0.046844443,1,0,0,1.1792,optionRight,60,5325,3,14,0,14,0,1,,,,,,,,,,,,,,,,,,,,,,,,,,,,,,,,,,,,,,,
,,,,,,,,2023-08-16_08h45.59.306,HF_wild_card,2022.2.4,Linux x86_64,60.0060006,62b33e90d4a7c3f314f45ba6,64d2fd46c836a06233681665,64dc7e9a62f3414613033471,,,,,,,decisionTrl,resources/DY.BMP,resources/DB.BMP,Door3,0.475849152,-0.063592076,1,0,0,1.2647,optionRight,70,5395,3,15,0,15,0,1,,,,,,,,,,,,,,,,,,,,,,,,,,,,,,,,,,,,,,,
,,,,,,,,2023-08-16_08h45.59.306,HF_wild_card,2022.2.4,Linux x86_64,60.0060006,62b33e90d4a7c3f314f45ba6,64d2fd46c836a06233681665,64dc7e9a62f3414613033471,,,,,,,ctch,resources/DBN.BMP,resources/DY.BMP,Door4,0.348428408,-0.052088737,1,0,0,1.1467,optionRight,80,5475,3,16,0,16,0,1,,,,,,,,,,,,,,,,,,,,,,,,,,,,,,,,,,,,,,,
,,,,,,,,2023-08-16_08h45.59.306,HF_wild_card,2022.2.4,Linux x86_64,60.0060006,62b33e90d4a7c3f314f45ba6,64d2fd46c836a06233681665,64dc7e9a62f3414613033471,,,,,,,decisionTrl,resources/DY.BMP,resources/DB.BMP,Door3,0.465084553,-0.078905106,1,0,0,3.0389,optionRight,70,5545,3,17,0,17,0,1,,,,,,,,,,,,,,,,,,,,,,,,,,,,,,,,,,,,,,,
,,,,,,,,2023-08-16_08h45.59.306,HF_wild_card,2022.2.4,Linux x86_64,60.0060006,62b33e90d4a7c3f314f45ba6,64d2fd46c836a06233681665,64dc7e9a62f3414613033471,,,,,,,ctch,resources/DBN.BMP,resources/DY.BMP,Door4,0.295474132,-0.007958531,1,0,0,1.1804,optionRight,60,5605,3,18,0,18,0,1,,,,,,,,,,,,,,,,,,,,,,,,,,,,,,,,,,,,,,,
,,,,,,,,2023-08-16_08h45.59.306,HF_wild_card,2022.2.4,Linux x86_64,60.0060006,62b33e90d4a7c3f314f45ba6,64d2fd46c836a06233681665,64dc7e9a62f3414613033471,,,,,,,decisionTrl,resources/DP.BMP,resources/DB.BMP,WildCard_NonEx,-0.317681988,0.014220476,1,0,0,3.214,optionLeft,45,5650,3,19,0,19,0,1,,,,,,,,,,,,,,,,,,,,,,,,,,,,,,,,,,,,,,,
,,,,,,,,2023-08-16_08h45.59.306,HF_wild_card,2022.2.4,Linux x86_64,60.0060006,62b33e90d4a7c3f314f45ba6,64d2fd46c836a06233681665,64dc7e9a62f3414613033471,,,,,,,sngl,resources/DG.BMP,resources/Empty.png,Door2,-0.357574781,0.052812338,1,0,0,1.4825,optionLeft,40,5690,3,20,0,20,0,1,,,,,,,,,,,,,,,,,,,,,,,,,,,,,,,,,,,,,,,
,,,,,,,,2023-08-16_08h45.59.306,HF_wild_card,2022.2.4,Linux x86_64,60.0060006,62b33e90d4a7c3f314f45ba6,64d2fd46c836a06233681665,64dc7e9a62f3414613033471,,,,,,,decisionTrl,resources/DG.BMP,resources/DBN.BMP,Door2,-0.352874955,0.015544852,1,0,0,5.035,optionLeft,40,5730,3,21,0,21,0,1,,,,,,,,,,,,,,,,,,,,,,,,,,,,,,,,,,,,,,,
,,,,,,,,2023-08-16_08h45.59.306,HF_wild_card,2022.2.4,Linux x86_64,60.0060006,62b33e90d4a7c3f314f45ba6,64d2fd46c836a06233681665,64dc7e9a62f3414613033471,,,,,,,decisionTrl,resources/DBN.BMP,resources/DG.BMP,Door2,0.314363956,0.026191791,1,0,0,1.0956,optionRight,40,5770,3,22,0,22,0,1,,,,,,,,,,,,,,,,,,,,,,,,,,,,,,,,,,,,,,,
,,,,,,,,2023-08-16_08h45.59.306,HF_wild_card,2022.2.4,Linux x86_64,60.0060006,62b33e90d4a7c3f314f45ba6,64d2fd46c836a06233681665,64dc7e9a62f3414613033471,,,,,,,ctch,resources/DB.BMP,resources/DG.BMP,Door3,-0.318132043,0.017784357,1,0,0,1.1967,optionLeft,70,5840,3,23,0,23,0,1,,,,,,,,,,,,,,,,,,,,,,,,,,,,,,,,,,,,,,,
,,,,,,,,2023-08-16_08h45.59.306,HF_wild_card,2022.2.4,Linux x86_64,60.0060006,62b33e90d4a7c3f314f45ba6,64d2fd46c836a06233681665,64dc7e9a62f3414613033471,,,,,,,sngl,resources/Empty.png,resources/DP.BMP,WildCard_NonEx,0.349325816,-0.058685342,1,0,0,1.0809,optionRight,55,5895,3,24,0,24,0,1,,,,,,,,,,,,,,,,,,,,,,,,,,,,,,,,,,,,,,,
,,,,,,,,2023-08-16_08h45.59.306,HF_wild_card,2022.2.4,Linux x86_64,60.0060006,62b33e90d4a7c3f314f45ba6,64d2fd46c836a06233681665,64dc7e9a62f3414613033471,,,,,,,decisionTrl,resources/DP.BMP,resources/DY.BMP,WildCard_NonEx,-0.35970974,-0.018515905,1,0,0,3.8648,optionLeft,45,5940,3,25,0,25,0,1,,,,,,,,,,,,,,,,,,,,,,,,,,,,,,,,,,,,,,,
,,,,,,,,2023-08-16_08h45.59.306,HF_wild_card,2022.2.4,Linux x86_64,60.0060006,62b33e90d4a7c3f314f45ba6,64d2fd46c836a06233681665,64dc7e9a62f3414613033471,,,,,,,decisionTrl,resources/DP.BMP,resources/DBN.BMP,WildCard_NonEx,-0.317032218,-0.018003186,1,0,0,1.8675,optionLeft,55,5995,3,26,0,26,0,1,,,,,,,,,,,,,,,,,,,,,,,,,,,,,,,,,,,,,,,
,,,,,,,,2023-08-16_08h45.59.306,HF_wild_card,2022.2.4,Linux x86_64,60.0060006,62b33e90d4a7c3f314f45ba6,64d2fd46c836a06233681665,64dc7e9a62f3414613033471,,,,,,,decisionTrl,resources/DY.BMP,resources/DB.BMP,Door4,-0.468918363,0.028710643,1,0,0,1.5121,optionLeft,60,6055,3,27,0,27,0,1,,,,,,,,,,,,,,,,,,,,,,,,,,,,,,,,,,,,,,,
,,,,,,,,2023-08-16_08h45.59.306,HF_wild_card,2022.2.4,Linux x86_64,60.0060006,62b33e90d4a7c3f314f45ba6,64d2fd46c836a06233681665,64dc7e9a62f3414613033471,,,,,,,sngl,resources/DY.BMP,resources/Empty.png,Door4,-0.383603096,0.038731933,1,0,0,0.8863,optionLeft,80,6135,3,28,0,28,0,1,,,,,,,,,,,,,,,,,,,,,,,,,,,,,,,,,,,,,,,
,,,,,,,,2023-08-16_08h45.59.306,HF_wild_card,2022.2.4,Linux x86_64,60.0060006,62b33e90d4a7c3f314f45ba6,64d2fd46c836a06233681665,64dc7e9a62f3414613033471,,,,,,,sngl,resources/Empty.png,resources/DP.BMP,WildCard_NonEx,0.34817338,0.029932022,1,0,0,1.3624,optionRight,45,6180,3,29,0,29,0,1,,,,,,,,,,,,,,,,,,,,,,,,,,,,,,,,,,,,,,,
,,,,,,,,2023-08-16_08h45.59.306,HF_wild_card,2022.2.4,Linux x86_64,60.0060006,62b33e90d4a7c3f314f45ba6,64d2fd46c836a06233681665,64dc7e9a62f3414613033471,,,,,,,ctch,resources/DY.BMP,resources/DBN.BMP,Door4,-0.375483354,0.002903819,1,0,0,1.2462,optionLeft,60,6240,3,30,0,30,0,1,,,,,,,,,,,,,,,,,,,,,,,,,,,,,,,,,,,,,,,
,,,,,,,,2023-08-16_08h45.59.306,HF_wild_card,2022.2.4,Linux x86_64,60.0060006,62b33e90d4a7c3f314f45ba6,64d2fd46c836a06233681665,64dc7e9a62f3414613033471,,,,,,,decisionTrl,resources/DBN.BMP,resources/DG.BMP,Door2,0.352677186,0.088713408,1,0,0,2.0289,optionRight,20,6260,3,31,0,31,0,1,,,,,,,,,,,,,,,,,,,,,,,,,,,,,,,,,,,,,,,
,,,,,,,,2023-08-16_08h45.59.306,HF_wild_card,2022.2.4,Linux x86_64,60.0060006,62b33e90d4a7c3f314f45ba6,64d2fd46c836a06233681665,64dc7e9a62f3414613033471,,,,,,,decisionTrl,resources/DP.BMP,resources/DG.BMP,WildCard_NonEx,-0.347126603,-0.069938342,1,0,0,1.3968,optionLeft,55,6315,3,32,0,32,0,1,,,,,,,,,,,,,,,,,,,,,,,,,,,,,,,,,,,,,,,
,,,,,,,,2023-08-16_08h45.59.306,HF_wild_card,2022.2.4,Linux x86_64,60.0060006,62b33e90d4a7c3f314f45ba6,64d2fd46c836a06233681665,64dc7e9a62f3414613033471,,,,,,,decisionTrl,resources/DB.BMP,resources/DY.BMP,Door4,0.365439097,-0.048959812,1,0,0,3.1343,optionRight,60,6375,3,33,0,33,0,1,,,,,,,,,,,,,,,,,,,,,,,,,,,,,,,,,,,,,,,
,,,,,,,,2023-08-16_08h45.59.306,HF_wild_card,2022.2.4,Linux x86_64,60.0060006,62b33e90d4a7c3f314f45ba6,64d2fd46c836a06233681665,64dc7e9a62f3414613033471,,,,,,,sngl,resources/DB.BMP,resources/Empty.png,Door3,-0.41133523,-0.064647834,1,0,0,0.9799,optionLeft,70,6445,3,34,0,34,0,1,,,,,,,,,,,,,,,,,,,,,,,,,,,,,,,,,,,,,,,
,,,,,,,,2023-08-16_08h45.59.306,HF_wild_card,2022.2.4,Linux x86_64,60.0060006,62b33e90d4a7c3f314f45ba6,64d2fd46c836a06233681665,64dc7e9a62f3414613033471,,,,,,,sngl,resources/DP.BMP,resources/Empty.png,WildCard_NonEx,-0.258633455,-0.044885834,1,0,0,1.3979,optionLeft,45,6490,3,35,0,35,0,1,,,,,,,,,,,,,,,,,,,,,,,,,,,,,,,,,,,,,,,
,,,,,,,,2023-08-16_08h45.59.306,HF_wild_card,2022.2.4,Linux x86_64,60.0060006,62b33e90d4a7c3f314f45ba6,64d2fd46c836a06233681665,64dc7e9a62f3414613033471,,,,,,,decisionTrl,resources/DBN.BMP,resources/DG.BMP,Door1,-0.4433918,-0.01620086,1,0,0,4.815,optionLeft,30,6520,3,36,0,36,0,1,,,,,,,,,,,,,,,,,,,,,,,,,,,,,,,,,,,,,,,
,,,,,,,,2023-08-16_08h45.59.306,HF_wild_card,2022.2.4,Linux x86_64,60.0060006,62b33e90d4a7c3f314f45ba6,64d2fd46c836a06233681665,64dc7e9a62f3414613033471,,,,,,,decisionTrl,resources/DB.BMP,resources/DY.BMP,Door4,0.341435115,0.007644892,1,0,0,1.7121,optionRight,80,6600,3,37,0,37,0,1,,,,,,,,,,,,,,,,,,,,,,,,,,,,,,,,,,,,,,,
,,,,,,,,2023-08-16_08h45.59.306,HF_wild_card,2022.2.4,Linux x86_64,60.0060006,62b33e90d4a7c3f314f45ba6,64d2fd46c836a06233681665,64dc7e9a62f3414613033471,,,,,,,decisionTrl,resources/DG.BMP,resources/DBN.BMP,Door1,0.404255946,0.007242878,1,0,0,2.3948,optionRight,30,6630,3,38,0,38,0,1,,,,,,,,,,,,,,,,,,,,,,,,,,,,,,,,,,,,,,,
,,,,,,,,2023-08-16_08h45.59.306,HF_wild_card,2022.2.4,Linux x86_64,60.0060006,62b33e90d4a7c3f314f45ba6,64d2fd46c836a06233681665,64dc7e9a62f3414613033471,,,,,,,decisionTrl,resources/DG.BMP,resources/DP.BMP,WildCard_NonEx,0.45766592,-0.09037141,1,0,0,1.6277,optionRight,45,6675,3,39,0,39,0,1,,,,,,,,,,,,,,,,,,,,,,,,,,,,,,,,,,,,,,,
,,,,,,,,2023-08-16_08h45.59.306,HF_wild_card,2022.2.4,Linux x86_64,60.0060006,62b33e90d4a7c3f314f45ba6,64d2fd46c836a06233681665,64dc7e9a62f3414613033471,,,,,,,decisionTrl,resources/DY.BMP,resources/DP.BMP,Door4,-0.417074084,0.036110202,1,0,0,2.614,optionLeft,60,6735,3,40,0,40,0,1,,,,,,,,,,,,,,,,,,,,,,,,,,,,,,,,,,,,,,,
,,,,,,,,2023-08-16_08h45.59.306,HF_wild_card,2022.2.4,Linux x86_64,60.0060006,62b33e90d4a7c3f314f45ba6,64d2fd46c836a06233681665,64dc7e9a62f3414613033471,,,,,,,ctch,resources/DY.BMP,resources/DBN.BMP,Door4,-0.453034163,-0.028350592,1,0,0,1.1965,optionLeft,80,6815,3,41,0,41,0,1,,,,,,,,,,,,,,,,,,,,,,,,,,,,,,,,,,,,,,,
,,,,,,,,2023-08-16_08h45.59.306,HF_wild_card,2022.2.4,Linux x86_64,60.0060006,62b33e90d4a7c3f314f45ba6,64d2fd46c836a06233681665,64dc7e9a62f3414613033471,,,,,,,sngl,resources/DBN.BMP,resources/Empty.png,Door1,-0.500958761,0.059559266,1,0,0,1.9482,optionLeft,30,6845,3,42,0,42,0,1,,,,,,,,,,,,,,,,,,,,,,,,,,,,,,,,,,,,,,,
,,,,,,,,2023-08-16_08h45.59.306,HF_wild_card,2022.2.4,Linux x86_64,60.0060006,62b33e90d4a7c3f314f45ba6,64d2fd46c836a06233681665,64dc7e9a62f3414613033471,,,,,,,ctch,resources/DG.BMP,resources/DB.BMP,Door3,0.332322677,0.038060943,1,0,0,1.8147,optionRight,70,6915,3,43,0,43,0,1,,,,,,,,,,,,,,,,,,,,,,,,,,,,,,,,,,,,,,,
,,,,,,,,2023-08-16_08h45.59.306,HF_wild_card,2022.2.4,Linux x86_64,60.0060006,62b33e90d4a7c3f314f45ba6,64d2fd46c836a06233681665,64dc7e9a62f3414613033471,,,,,,,,,,,,,,,,,,,,,,,,,,2,0,2,0,1,,,,,,,,,,,,,,,,,,,,,,,,,,,,,,,,,,
,,,,,,,,2023-08-16_08h45.59.306,HF_wild_card,2022.2.4,Linux x86_64,60.0060006,62b33e90d4a7c3f314f45ba6,64d2fd46c836a06233681665,64dc7e9a62f3414613033471,,,,,,,decisionTrl,resources/DB.BMP,resources/DY.BMP,Door4,0.398349285,-0.109333992,1,0,0,2.2667,optionRight,80,6995,4,0,0,0,0,1,,,,,,,,,,,,,,,,,,,,,,,,,,,,,,,,,,,,,,,
,,,,,,,,2023-08-16_08h45.59.306,HF_wild_card,2022.2.4,Linux x86_64,60.0060006,62b33e90d4a7c3f314f45ba6,64d2fd46c836a06233681665,64dc7e9a62f3414613033471,,,,,,,ctch,resources/DBN.BMP,resources/DY.BMP,Door4,0.270010551,-0.061698,1,0,0,0.8977,optionRight,60,7055,4,1,0,1,0,1,,,,,,,,,,,,,,,,,,,,,,,,,,,,,,,,,,,,,,,
,,,,,,,,2023-08-16_08h45.59.306,HF_wild_card,2022.2.4,Linux x86_64,60.0060006,62b33e90d4a7c3f314f45ba6,64d2fd46c836a06233681665,64dc7e9a62f3414613033471,,,,,,,decisionTrl,resources/DR.BMP,resources/DB.BMP,WildCard_Ex,-0.369393508,-0.040653547,1,0,0,2.95,optionLeft,45,7100,4,2,0,2,0,1,,,,,,,,,,,,,,,,,,,,,,,,,,,,,,,,,,,,,,,
,,,,,,,,2023-08-16_08h45.59.306,HF_wild_card,2022.2.4,Linux x86_64,60.0060006,62b33e90d4a7c3f314f45ba6,64d2fd46c836a06233681665,64dc7e9a62f3414613033471,,,,,,,decisionTrl,resources/DG.BMP,resources/DBN.BMP,Door2,-0.337491473,-0.01776878,1,0,0,3.5811,optionLeft,40,7140,4,3,0,3,0,1,,,,,,,,,,,,,,,,,,,,,,,,,,,,,,,,,,,,,,,
,,,,,,,,2023-08-16_08h45.59.306,HF_wild_card,2022.2.4,Linux x86_64,60.0060006,62b33e90d4a7c3f314f45ba6,64d2fd46c836a06233681665,64dc7e9a62f3414613033471,,,,,,,decisionTrl,resources/DB.BMP,resources/DY.BMP,Door4,0.313298146,0.012699604,1,0,0,1.799,optionRight,80,7220,4,4,0,4,0,1,,,,,,,,,,,,,,,,,,,,,,,,,,,,,,,,,,,,,,,
,,,,,,,,2023-08-16_08h45.59.306,HF_wild_card,2022.2.4,Linux x86_64,60.0060006,62b33e90d4a7c3f314f45ba6,64d2fd46c836a06233681665,64dc7e9a62f3414613033471,,,,,,,decisionTrl,resources/DB.BMP,resources/DR.BMP,Door3,-0.361080329,0.020350099,1,0,0,2.2116,optionLeft,70,7290,4,5,0,5,0,1,,,,,,,,,,,,,,,,,,,,,,,,,,,,,,,,,,,,,,,
,,,,,,,,2023-08-16_08h45.59.306,HF_wild_card,2022.2.4,Linux x86_64,60.0060006,62b33e90d4a7c3f314f45ba6,64d2fd46c836a06233681665,64dc7e9a62f3414613033471,,,,,,,decisionTrl,resources/DG.BMP,resources/DBN.BMP,Door2,-0.294277747,0.024002711,1,0,0,2.9979,optionLeft,20,7310,4,6,0,6,0,1,,,,,,,,,,,,,,,,,,,,,,,,,,,,,,,,,,,,,,,
,,,,,,,,2023-08-16_08h45.59.306,HF_wild_card,2022.2.4,Linux x86_64,60.0060006,62b33e90d4a7c3f314f45ba6,64d2fd46c836a06233681665,64dc7e9a62f3414613033471,,,,,,,sngl,resources/DY.BMP,resources/Empty.png,Door4,-0.331279318,-0.003311833,1,0,0,1.0632,optionLeft,60,7370,4,7,0,7,0,1,,,,,,,,,,,,,,,,,,,,,,,,,,,,,,,,,,,,,,,
,,,,,,,,2023-08-16_08h45.59.306,HF_wild_card,2022.2.4,Linux x86_64,60.0060006,62b33e90d4a7c3f314f45ba6,64d2fd46c836a06233681665,64dc7e9a62f3414613033471,,,,,,,decisionTrl,resources/DG.BMP,resources/DBN.BMP,Door1,0.41679883,0.022643169,1,0,0,2.2319,optionRight,30,7400,4,8,0,8,0,1,,,,,,,,,,,,,,,,,,,,,,,,,,,,,,,,,,,,,,,
,,,,,,,,2023-08-16_08h45.59.306,HF_wild_card,2022.2.4,Linux x86_64,60.0060006,62b33e90d4a7c3f314f45ba6,64d2fd46c836a06233681665,64dc7e9a62f3414613033471,,,,,,,decisionTrl,resources/DR.BMP,resources/DBN.BMP,WildCard_Ex,-0.323426406,0.033983668,1,0,0,4.1646,optionLeft,45,7445,4,9,0,9,0,1,,,,,,,,,,,,,,,,,,,,,,,,,,,,,,,,,,,,,,,
,,,,,,,,2023-08-16_08h45.59.306,HF_wild_card,2022.2.4,Linux x86_64,60.0060006,62b33e90d4a7c3f314f45ba6,64d2fd46c836a06233681665,64dc7e9a62f3414613033471,,,,,,,decisionTrl,resources/DY.BMP,resources/DB.BMP,Door4,-0.47081089,0.061062853,1,0,0,2.1301,optionLeft,60,7505,4,10,0,10,0,1,,,,,,,,,,,,,,,,,,,,,,,,,,,,,,,,,,,,,,,
,,,,,,,,2023-08-16_08h45.59.306,HF_wild_card,2022.2.4,Linux x86_64,60.0060006,62b33e90d4a7c3f314f45ba6,64d2fd46c836a06233681665,64dc7e9a62f3414613033471,,,,,,,ctch,resources/DG.BMP,resources/DB.BMP,Door3,0.312227805,-0.073087811,1,0,0,2.2617,optionRight,70,7575,4,11,0,11,0,1,,,,,,,,,,,,,,,,,,,,,,,,,,,,,,,,,,,,,,,
,,,,,,,,2023-08-16_08h45.59.306,HF_wild_card,2022.2.4,Linux x86_64,60.0060006,62b33e90d4a7c3f314f45ba6,64d2fd46c836a06233681665,64dc7e9a62f3414613033471,,,,,,,sngl,resources/DR.BMP,resources/Empty.png,WildCard_Ex,-0.336407582,0.00147144,1,0,0,1.8349,optionLeft,45,7620,4,12,0,12,0,1,,,,,,,,,,,,,,,,,,,,,,,,,,,,,,,,,,,,,,,
,,,,,,,,2023-08-16_08h45.59.306,HF_wild_card,2022.2.4,Linux x86_64,60.0060006,62b33e90d4a7c3f314f45ba6,64d2fd46c836a06233681665,64dc7e9a62f3414613033471,,,,,,,ctch,resources/DB.BMP,resources/DG.BMP,Door3,-0.323019822,0.00395751,1,0,0,2.5194,optionLeft,70,7690,4,13,0,13,0,1,,,,,,,,,,,,,,,,,,,,,,,,,,,,,,,,,,,,,,,
,,,,,,,,2023-08-16_08h45.59.306,HF_wild_card,2022.2.4,Linux x86_64,60.0060006,62b33e90d4a7c3f314f45ba6,64d2fd46c836a06233681665,64dc7e9a62f3414613033471,,,,,,,sngl,resources/Empty.png,resources/DB.BMP,Door3,0.289470355,0.001202106,1,0,0,1.3533,optionRight,70,7760,4,14,0,14,0,1,,,,,,,,,,,,,,,,,,,,,,,,,,,,,,,,,,,,,,,
,,,,,,,,2023-08-16_08h45.59.306,HF_wild_card,2022.2.4,Linux x86_64,60.0060006,62b33e90d4a7c3f314f45ba6,64d2fd46c836a06233681665,64dc7e9a62f3414613033471,,,,,,,decisionTrl,resources/DG.BMP,resources/DR.BMP,WildCard_Ex,0.368173599,-0.029331326,1,0,0,2.5313,optionRight,55,7815,4,15,0,15,0,1,,,,,,,,,,,,,,,,,,,,,,,,,,,,,,,,,,,,,,,
,,,,,,,,2023-08-16_08h45.59.306,HF_wild_card,2022.2.4,Linux x86_64,60.0060006,62b33e90d4a7c3f314f45ba6,64d2fd46c836a06233681665,64dc7e9a62f3414613033471,,,,,,,decisionTrl,resources/DBN.BMP,resources/DG.BMP,Door1,-0.3430475,0.006313562,1,0,0,2.8029,optionLeft,30,7845,4,16,0,16,0,1,,,,,,,,,,,,,,,,,,,,,,,,,,,,,,,,,,,,,,,
,,,,,,,,2023-08-16_08h45.59.306,HF_wild_card,2022.2.4,Linux x86_64,60.0060006,62b33e90d4a7c3f314f45ba6,64d2fd46c836a06233681665,64dc7e9a62f3414613033471,,,,,,,sngl,resources/DB.BMP,resources/Empty.png,Door3,-0.383363565,-0.078321258,1,0,0,1.6479,optionLeft,70,7915,4,17,0,17,0,1,,,,,,,,,,,,,,,,,,,,,,,,,,,,,,,,,,,,,,,
,,,,,,,,2023-08-16_08h45.59.306,HF_wild_card,2022.2.4,Linux x86_64,60.0060006,62b33e90d4a7c3f314f45ba6,64d2fd46c836a06233681665,64dc7e9a62f3414613033471,,,,,,,sngl,resources/Empty.png,resources/DY.BMP,Door4,0.336458127,0.006027381,1,0,0,1.9465,optionRight,80,7995,4,18,0,18,0,1,,,,,,,,,,,,,,,,,,,,,,,,,,,,,,,,,,,,,,,
,,,,,,,,2023-08-16_08h45.59.306,HF_wild_card,2022.2.4,Linux x86_64,60.0060006,62b33e90d4a7c3f314f45ba6,64d2fd46c836a06233681665,64dc7e9a62f3414613033471,,,,,,,ctch,resources/DG.BMP,resources/DB.BMP,Door3,0.300113678,-0.022568385,1,0,0,1.8631,optionRight,70,8065,4,19,0,19,0,1,,,,,,,,,,,,,,,,,,,,,,,,,,,,,,,,,,,,,,,
,,,,,,,,2023-08-16_08h45.59.306,HF_wild_card,2022.2.4,Linux x86_64,60.0060006,62b33e90d4a7c3f314f45ba6,64d2fd46c836a06233681665,64dc7e9a62f3414613033471,,,,,,,decisionTrl,resources/DY.BMP,resources/DR.BMP,Door4,-0.299535513,-0.035134474,1,0,0,1.268,optionLeft,80,8145,4,20,0,20,0,1,,,,,,,,,,,,,,,,,,,,,,,,,,,,,,,,,,,,,,,
,,,,,,,,2023-08-16_08h45.59.306,HF_wild_card,2022.2.4,Linux x86_64,60.0060006,62b33e90d4a7c3f314f45ba6,64d2fd46c836a06233681665,64dc7e9a62f3414613033471,,,,,,,sngl,resources/DR.BMP,resources/Empty.png,WildCard_Ex,-0.352037867,-0.097258409,1,0,0,1.5806,optionLeft,55,8200,4,21,0,21,0,1,,,,,,,,,,,,,,,,,,,,,,,,,,,,,,,,,,,,,,,
,,,,,,,,2023-08-16_08h45.59.306,HF_wild_card,2022.2.4,Linux x86_64,60.0060006,62b33e90d4a7c3f314f45ba6,64d2fd46c836a06233681665,64dc7e9a62f3414613033471,,,,,,,sngl,resources/Empty.png,resources/DR.BMP,WildCard_Ex,0.486573855,-0.071823557,1,0,0,0.9285,optionRight,55,8255,4,22,0,22,0,1,,,,,,,,,,,,,,,,,,,,,,,,,,,,,,,,,,,,,,,
,,,,,,,,2023-08-16_08h45.59.306,HF_wild_card,2022.2.4,Linux x86_64,60.0060006,62b33e90d4a7c3f314f45ba6,64d2fd46c836a06233681665,64dc7e9a62f3414613033471,,,,,,,decisionTrl,resources/DBN.BMP,resources/DG.BMP,Door2,0.347660383,-0.003952901,1,0,0,2.5351,optionRight,40,8295,4,23,0,23,0,1,,,,,,,,,,,,,,,,,,,,,,,,,,,,,,,,,,,,,,,
,,,,,,,,2023-08-16_08h45.59.306,HF_wild_card,2022.2.4,Linux x86_64,60.0060006,62b33e90d4a7c3f314f45ba6,64d2fd46c836a06233681665,64dc7e9a62f3414613033471,,,,,,,decisionTrl,resources/DB.BMP,resources/DY.BMP,Door4,0.43487827,-0.040222049,1,0,0,1.7649,optionRight,80,8375,4,24,0,24,0,1,,,,,,,,,,,,,,,,,,,,,,,,,,,,,,,,,,,,,,,
,,,,,,,,2023-08-16_08h45.59.306,HF_wild_card,2022.2.4,Linux x86_64,60.0060006,62b33e90d4a7c3f314f45ba6,64d2fd46c836a06233681665,64dc7e9a62f3414613033471,,,,,,,decisionTrl,resources/DR.BMP,resources/DG.BMP,WildCard_Ex,-0.450217168,-0.008919636,1,0,0,3.1974,optionLeft,45,8420,4,25,0,25,0,1,,,,,,,,,,,,,,,,,,,,,,,,,,,,,,,,,,,,,,,
,,,,,,,,2023-08-16_08h45.59.306,HF_wild_card,2022.2.4,Linux x86_64,60.0060006,62b33e90d4a7c3f314f45ba6,64d2fd46c836a06233681665,64dc7e9a62f3414613033471,,,,,,,ctch,resources/DY.BMP,resources/DBN.BMP,Door4,-0.433438897,-0.016342322,1,0,0,1.5642,optionLeft,80,8500,4,26,0,26,0,1,,,,,,,,,,,,,,,,,,,,,,,,,,,,,,,,,,,,,,,
,,,,,,,,2023-08-16_08h45.59.306,HF_wild_card,2022.2.4,Linux x86_64,60.0060006,62b33e90d4a7c3f314f45ba6,64d2fd46c836a06233681665,64dc7e9a62f3414613033471,,,,,,,ctch,resources/DY.BMP,resources/DBN.BMP,Door4,-0.26902012,-0.032318513,1,0,0,1.8141,optionLeft,80,8580,4,27,0,27,0,1,,,,,,,,,,,,,,,,,,,,,,,,,,,,,,,,,,,,,,,
,,,,,,,,2023-08-16_08h45.59.306,HF_wild_card,2022.2.4,Linux x86_64,60.0060006,62b33e90d4a7c3f314f45ba6,64d2fd46c836a06233681665,64dc7e9a62f3414613033471,,,,,,,decisionTrl,resources/DBN.BMP,resources/DG.BMP,Door2,0.362727642,-0.047959447,1,0,0,1.9643,optionRight,20,8600,4,28,0,28,0,1,,,,,,,,,,,,,,,,,,,,,,,,,,,,,,,,,,,,,,,
,,,,,,,,2023-08-16_08h45.59.306,HF_wild_card,2022.2.4,Linux x86_64,60.0060006,62b33e90d4a7c3f314f45ba6,64d2fd46c836a06233681665,64dc7e9a62f3414613033471,,,,,,,decisionTrl,resources/DY.BMP,resources/DB.BMP,Door4,-0.344719172,-0.005902608,1,0,0,1.7176,optionLeft,80,8680,4,29,0,29,0,1,,,,,,,,,,,,,,,,,,,,,,,,,,,,,,,,,,,,,,,
,,,,,,,,2023-08-16_08h45.59.306,HF_wild_card,2022.2.4,Linux x86_64,60.0060006,62b33e90d4a7c3f314f45ba6,64d2fd46c836a06233681665,64dc7e9a62f3414613033471,,,,,,,decisionTrl,resources/DBN.BMP,resources/DR.BMP,WildCard_Ex,0.283336004,0.000466545,1,0,0,2.1126,optionRight,45,8725,4,30,0,30,0,1,,,,,,,,,,,,,,,,,,,,,,,,,,,,,,,,,,,,,,,
,,,,,,,,2023-08-16_08h45.59.306,HF_wild_card,2022.2.4,Linux x86_64,60.0060006,62b33e90d4a7c3f314f45ba6,64d2fd46c836a06233681665,64dc7e9a62f3414613033471,,,,,,,decisionTrl,resources/DG.BMP,resources/DBN.BMP,Door1,0.515386422,-0.001722773,1,0,0,2.3623,optionRight,30,8755,4,31,0,31,0,1,,,,,,,,,,,,,,,,,,,,,,,,,,,,,,,,,,,,,,,
,,,,,,,,2023-08-16_08h45.59.306,HF_wild_card,2022.2.4,Linux x86_64,60.0060006,62b33e90d4a7c3f314f45ba6,64d2fd46c836a06233681665,64dc7e9a62f3414613033471,,,,,,,sngl,resources/Empty.png,resources/DR.BMP,WildCard_Ex,0.381651004,-0.040124138,1,0,0,1.027,optionRight,45,8800,4,32,0,32,0,1,,,,,,,,,,,,,,,,,,,,,,,,,,,,,,,,,,,,,,,
,,,,,,,,2023-08-16_08h45.59.306,HF_wild_card,2022.2.4,Linux x86_64,60.0060006,62b33e90d4a7c3f314f45ba6,64d2fd46c836a06233681665,64dc7e9a62f3414613033471,,,,,,,ctch,resources/DB.BMP,resources/DG.BMP,Door3,-0.451721231,0.007352948,1,0,0,2.097,optionLeft,70,8870,4,33,0,33,0,1,,,,,,,,,,,,,,,,,,,,,,,,,,,,,,,,,,,,,,,
,,,,,,,,2023-08-16_08h45.59.306,HF_wild_card,2022.2.4,Linux x86_64,60.0060006,62b33e90d4a7c3f314f45ba6,64d2fd46c836a06233681665,64dc7e9a62f3414613033471,,,,,,,sngl,resources/Empty.png,resources/DBN.BMP,Door1,0.356431007,0.012807846,1,0,0,1.6987,optionRight,30,8900,4,34,0,34,0,1,,,,,,,,,,,,,,,,,,,,,,,,,,,,,,,,,,,,,,,
,,,,,,,,2023-08-16_08h45.59.306,HF_wild_card,2022.2.4,Linux x86_64,60.0060006,62b33e90d4a7c3f314f45ba6,64d2fd46c836a06233681665,64dc7e9a62f3414613033471,,,,,,,decisionTrl,resources/DR.BMP,resources/DY.BMP,Door4,0.354653676,-0.062033296,1,0,0,1.3288,optionRight,80,8980,4,35,0,35,0,1,,,,,,,,,,,,,,,,,,,,,,,,,,,,,,,,,,,,,,,
,,,,,,,,2023-08-16_08h45.59.306,HF_wild_card,2022.2.4,Linux x86_64,60.0060006,62b33e90d4a7c3f314f45ba6,64d2fd46c836a06233681665,64dc7e9a62f3414613033471,,,,,,,ctch,resources/DBN.BMP,resources/DY.BMP,Door4,0.284216642,-0.087152203,1,0,0,1.131,optionRight,60,9040,4,36,0,36,0,1,,,,,,,,,,,,,,,,,,,,,,,,,,,,,,,,,,,,,,,
,,,,,,,,2023-08-16_08h45.59.306,HF_wild_card,2022.2.4,Linux x86_64,60.0060006,62b33e90d4a7c3f314f45ba6,64d2fd46c836a06233681665,64dc7e9a62f3414613033471,,,,,,,decisionTrl,resources/DB.BMP,resources/DY.BMP,Door4,0.347596089,-0.002430558,1,0,0,1.8631,optionRight,80,9120,4,37,0,37,0,1,,,,,,,,,,,,,,,,,,,,,,,,,,,,,,,,,,,,,,,
,,,,,,,,2023-08-16_08h45.59.306,HF_wild_card,2022.2.4,Linux x86_64,60.0060006,62b33e90d4a7c3f314f45ba6,64d2fd46c836a06233681665,64dc7e9a62f3414613033471,,,,,,,decisionTrl,resources/DY.BMP,resources/DB.BMP,Door4,-0.448418736,-0.084553321,1,0,0,2.4292,optionLeft,60,9180,4,38,0,38,0,1,,,,,,,,,,,,,,,,,,,,,,,,,,,,,,,,,,,,,,,
,,,,,,,,2023-08-16_08h45.59.306,HF_wild_card,2022.2.4,Linux x86_64,60.0060006,62b33e90d4a7c3f314f45ba6,64d2fd46c836a06233681665,64dc7e9a62f3414613033471,,,,,,,decisionTrl,resources/DBN.BMP,resources/DG.BMP,Door2,0.440860271,-0.137624621,1,0,0,4.0133,optionRight,20,9200,4,39,0,39,0,1,,,,,,,,,,,,,,,,,,,,,,,,,,,,,,,,,,,,,,,
,,,,,,,,2023-08-16_08h45.59.306,HF_wild_card,2022.2.4,Linux x86_64,60.0060006,62b33e90d4a7c3f314f45ba6,64d2fd46c836a06233681665,64dc7e9a62f3414613033471,,,,,,,decisionTrl,resources/DY.BMP,resources/DB.BMP,Door4,-0.330406149,-0.003790259,1,0,0,1.4349,optionLeft,80,9280,4,40,0,40,0,1,,,,,,,,,,,,,,,,,,,,,,,,,,,,,,,,,,,,,,,
,,,,,,,,2023-08-16_08h45.59.306,HF_wild_card,2022.2.4,Linux x86_64,60.0060006,62b33e90d4a7c3f314f45ba6,64d2fd46c836a06233681665,64dc7e9a62f3414613033471,,,,,,,sngl,resources/Empty.png,resources/DG.BMP,Door2,0.389046748,-0.042939146,1,0,0,1.4153,optionRight,40,9320,4,41,0,41,0,1,,,,,,,,,,,,,,,,,,,,,,,,,,,,,,,,,,,,,,,
,,,,,,,,2023-08-16_08h45.59.306,HF_wild_card,2022.2.4,Linux x86_64,60.0060006,62b33e90d4a7c3f314f45ba6,64d2fd46c836a06233681665,64dc7e9a62f3414613033471,,,,,,,sngl,resources/DBN.BMP,resources/Empty.png,Door1,-0.3598092,0.031744162,1,0,0,1.4631,optionLeft,30,9350,4,42,0,42,0,1,,,,,,,,,,,,,,,,,,,,,,,,,,,,,,,,,,,,,,,
,,,,,,,,2023-08-16_08h45.59.306,HF_wild_card,2022.2.4,Linux x86_64,60.0060006,62b33e90d4a7c3f314f45ba6,64d2fd46c836a06233681665,64dc7e9a62f3414613033471,,,,,,,sngl,resources/DG.BMP,resources/Empty.png,Door2,-0.297832211,-0.007278641,1,0,0,2.0629,optionLeft,20,9370,4,43,0,43,0,1,,,,,,,,,,,,,,,,,,,,,,,,,,,,,,,,,,,,,,,
,,,,,,,,2023-08-16_08h45.59.306,HF_wild_card,2022.2.4,Linux x86_64,60.0060006,62b33e90d4a7c3f314f45ba6,64d2fd46c836a06233681665,64dc7e9a62f3414613033471,,,,,,,,,,,,,,,,,,,,,,,,,,3,0,3,0,1,,,,,,,,,,,,,,,,,,,,,,,,,,,,,,,,,,
,,,,,,,,2023-08-16_08h45.59.306,HF_wild_card,2022.2.4,Linux x86_64,60.0060006,62b33e90d4a7c3f314f45ba6,64d2fd46c836a06233681665,64dc7e9a62f3414613033471,,,,,,,decisionTrl,resources/DR.BMP,resources/DG.BMP,WildCard_Ex,-0.467819452,-0.162986358,1,0,0,2.8966,optionLeft,55,9425,5,0,0,0,0,1,,,,,,,,,,,,,,,,,,,,,,,,,,,,,,,,,,,,,,,
,,,,,,,,2023-08-16_08h45.59.306,HF_wild_card,2022.2.4,Linux x86_64,60.0060006,62b33e90d4a7c3f314f45ba6,64d2fd46c836a06233681665,64dc7e9a62f3414613033471,,,,,,,sngl,resources/DR.BMP,resources/Empty.png,WildCard_Ex,-0.450481574,-0.022876859,1,0,0,1.2504,optionLeft,45,9470,5,1,0,1,0,1,,,,,,,,,,,,,,,,,,,,,,,,,,,,,,,,,,,,,,,
,,,,,,,,2023-08-16_08h45.59.306,HF_wild_card,2022.2.4,Linux x86_64,60.0060006,62b33e90d4a7c3f314f45ba6,64d2fd46c836a06233681665,64dc7e9a62f3414613033471,,,,,,,ctch,resources/DG.BMP,resources/DB.BMP,Door3,0.272941271,0.007022103,1,0,0,1.4457,optionRight,70,9540,5,2,0,2,0,1,,,,,,,,,,,,,,,,,,,,,,,,,,,,,,,,,,,,,,,
,,,,,,,,2023-08-16_08h45.59.306,HF_wild_card,2022.2.4,Linux x86_64,60.0060006,62b33e90d4a7c3f314f45ba6,64d2fd46c836a06233681665,64dc7e9a62f3414613033471,,,,,,,decisionTrl,resources/DB.BMP,resources/DY.BMP,Door4,0.428059816,-0.04758354,1,0,0,1.1109,optionRight,80,9620,5,3,0,3,0,1,,,,,,,,,,,,,,,,,,,,,,,,,,,,,,,,,,,,,,,
,,,,,,,,2023-08-16_08h45.59.306,HF_wild_card,2022.2.4,Linux x86_64,60.0060006,62b33e90d4a7c3f314f45ba6,64d2fd46c836a06233681665,64dc7e9a62f3414613033471,,,,,,,decisionTrl,resources/DBN.BMP,resources/DG.BMP,Door2,0.306867758,-0.0538915,1,0,0,1.7275,optionRight,20,9640,5,4,0,4,0,1,,,,,,,,,,,,,,,,,,,,,,,,,,,,,,,,,,,,,,,
,,,,,,,,2023-08-16_08h45.59.306,HF_wild_card,2022.2.4,Linux x86_64,60.0060006,62b33e90d4a7c3f314f45ba6,64d2fd46c836a06233681665,64dc7e9a62f3414613033471,,,,,,,sngl,resources/DY.BMP,resources/Empty.png,Door4,-0.392681042,0.024210731,1,0,0,1.2972,optionLeft,80,9720,5,5,0,5,0,1,,,,,,,,,,,,,,,,,,,,,,,,,,,,,,,,,,,,,,,
,,,,,,,,2023-08-16_08h45.59.306,HF_wild_card,2022.2.4,Linux x86_64,60.0060006,62b33e90d4a7c3f314f45ba6,64d2fd46c836a06233681665,64dc7e9a62f3414613033471,,,,,,,ctch,resources/DB.BMP,resources/DG.BMP,Door3,-0.38828059,0.035538991,1,0,0,1.848,optionLeft,70,9790,5,6,0,6,0,1,,,,,,,,,,,,,,,,,,,,,,,,,,,,,,,,,,,,,,,
,,,,,,,,2023-08-16_08h45.59.306,HF_wild_card,2022.2.4,Linux x86_64,60.0060006,62b33e90d4a7c3f314f45ba6,64d2fd46c836a06233681665,64dc7e9a62f3414613033471,,,,,,,decisionTrl,resources/DB.BMP,resources/DY.BMP,Door4,0.337393125,-0.031690756,1,0,0,1.2469,optionRight,80,9870,5,7,0,7,0,1,,,,,,,,,,,,,,,,,,,,,,,,,,,,,,,,,,,,,,,
,,,,,,,,2023-08-16_08h45.59.306,HF_wild_card,2022.2.4,Linux x86_64,60.0060006,62b33e90d4a7c3f314f45ba6,64d2fd46c836a06233681665,64dc7e9a62f3414613033471,,,,,,,decisionTrl,resources/DY.BMP,resources/DB.BMP,Door4,-0.345578313,-0.002788544,1,0,0,1.4959,optionLeft,60,9930,5,8,0,8,0,1,,,,,,,,,,,,,,,,,,,,,,,,,,,,,,,,,,,,,,,
,,,,,,,,2023-08-16_08h45.59.306,HF_wild_card,2022.2.4,Linux x86_64,60.0060006,62b33e90d4a7c3f314f45ba6,64d2fd46c836a06233681665,64dc7e9a62f3414613033471,,,,,,,sngl,resources/DG.BMP,resources/Empty.png,Door2,-0.420962532,0.021871765,1,0,0,1.2794,optionLeft,40,9970,5,9,0,9,0,1,,,,,,,,,,,,,,,,,,,,,,,,,,,,,,,,,,,,,,,
,,,,,,,,2023-08-16_08h45.59.306,HF_wild_card,2022.2.4,Linux x86_64,60.0060006,62b33e90d4a7c3f314f45ba6,64d2fd46c836a06233681665,64dc7e9a62f3414613033471,,,,,,,decisionTrl,resources/DR.BMP,resources/DBN.BMP,WildCard_Ex,-0.349065383,-0.025837262,1,0,0,1.4636,optionLeft,45,10015,5,10,0,10,0,1,,,,,,,,,,,,,,,,,,,,,,,,,,,,,,,,,,,,,,,
,,,,,,,,2023-08-16_08h45.59.306,HF_wild_card,2022.2.4,Linux x86_64,60.0060006,62b33e90d4a7c3f314f45ba6,64d2fd46c836a06233681665,64dc7e9a62f3414613033471,,,,,,,sngl,resources/DBN.BMP,resources/Empty.png,Door1,-0.377417405,0.068391919,1,0,0,1.6639,optionLeft,30,10045,5,11,0,11,0,1,,,,,,,,,,,,,,,,,,,,,,,,,,,,,,,,,,,,,,,
,,,,,,,,2023-08-16_08h45.59.306,HF_wild_card,2022.2.4,Linux x86_64,60.0060006,62b33e90d4a7c3f314f45ba6,64d2fd46c836a06233681665,64dc7e9a62f3414613033471,,,,,,,ctch,resources/DY.BMP,resources/DBN.BMP,Door4,-0.404200435,-0.069667498,1,0,0,1.2751,optionLeft,80,10125,5,12,0,12,0,1,,,,,,,,,,,,,,,,,,,,,,,,,,,,,,,,,,,,,,,
,,,,,,,,2023-08-16_08h45.59.306,HF_wild_card,2022.2.4,Linux x86_64,60.0060006,62b33e90d4a7c3f314f45ba6,64d2fd46c836a06233681665,64dc7e9a62f3414613033471,,,,,,,sngl,resources/Empty.png,resources/DB.BMP,Door3,0.413274447,-0.101009448,1,0,0,1.7623,optionRight,70,10195,5,13,0,13,0,1,,,,,,,,,,,,,,,,,,,,,,,,,,,,,,,,,,,,,,,
,,,,,,,,2023-08-16_08h45.59.306,HF_wild_card,2022.2.4,Linux x86_64,60.0060006,62b33e90d4a7c3f314f45ba6,64d2fd46c836a06233681665,64dc7e9a62f3414613033471,,,,,,,decisionTrl,resources/DY.BMP,resources/DB.BMP,Door4,-0.35665834,0.014698863,1,0,0,2.6975,optionLeft,60,10255,5,14,0,14,0,1,,,,,,,,,,,,,,,,,,,,,,,,,,,,,,,,,,,,,,,
,,,,,,,,2023-08-16_08h45.59.306,HF_wild_card,2022.2.4,Linux x86_64,60.0060006,62b33e90d4a7c3f314f45ba6,64d2fd46c836a06233681665,64dc7e9a62f3414613033471,,,,,,,decisionTrl,resources/DY.BMP,resources/DB.BMP,Door3,0.535796642,-0.109980663,1,0,0,0.8548,optionRight,70,10325,5,15,0,15,0,1,,,,,,,,,,,,,,,,,,,,,,,,,,,,,,,,,,,,,,,
,,,,,,,,2023-08-16_08h45.59.306,HF_wild_card,2022.2.4,Linux x86_64,60.0060006,62b33e90d4a7c3f314f45ba6,64d2fd46c836a06233681665,64dc7e9a62f3414613033471,,,,,,,decisionTrl,resources/DG.BMP,resources/DBN.BMP,Door1,0.505363941,0.011288921,1,0,0,5.3763,optionRight,30,10355,5,16,0,16,0,1,,,,,,,,,,,,,,,,,,,,,,,,,,,,,,,,,,,,,,,
,,,,,,,,2023-08-16_08h45.59.306,HF_wild_card,2022.2.4,Linux x86_64,60.0060006,62b33e90d4a7c3f314f45ba6,64d2fd46c836a06233681665,64dc7e9a62f3414613033471,,,,,,,sngl,resources/Empty.png,resources/DR.BMP,WildCard_Ex,0.33717831,0.003854553,1,0,0,1.0798,optionRight,45,10400,5,17,0,17,0,1,,,,,,,,,,,,,,,,,,,,,,,,,,,,,,,,,,,,,,,
,,,,,,,,2023-08-16_08h45.59.306,HF_wild_card,2022.2.4,Linux x86_64,60.0060006,62b33e90d4a7c3f314f45ba6,64d2fd46c836a06233681665,64dc7e9a62f3414613033471,,,,,,,decisionTrl,resources/DBN.BMP,resources/DG.BMP,Door1,-0.263549646,0.009892424,1,0,0,2.2296,optionLeft,30,10430,5,18,0,18,0,1,,,,,,,,,,,,,,,,,,,,,,,,,,,,,,,,,,,,,,,
,,,,,,,,2023-08-16_08h45.59.306,HF_wild_card,2022.2.4,Linux x86_64,60.0060006,62b33e90d4a7c3f314f45ba6,64d2fd46c836a06233681665,64dc7e9a62f3414613033471,,,,,,,decisionTrl,resources/DG.BMP,resources/DBN.BMP,Door2,-0.34085834,0.028663874,1,0,0,2.5976,optionLeft,20,10450,5,19,0,19,0,1,,,,,,,,,,,,,,,,,,,,,,,,,,,,,,,,,,,,,,,
,,,,,,,,2023-08-16_08h45.59.306,HF_wild_card,2022.2.4,Linux x86_64,60.0060006,62b33e90d4a7c3f314f45ba6,64d2fd46c836a06233681665,64dc7e9a62f3414613033471,,,,,,,decisionTrl,resources/DY.BMP,resources/DB.BMP,Door4,-0.331731002,0.03415823,1,0,0,1.8768,optionLeft,80,10530,5,20,0,20,0,1,,,,,,,,,,,,,,,,,,,,,,,,,,,,,,,,,,,,,,,
,,,,,,,,2023-08-16_08h45.59.306,HF_wild_card,2022.2.4,Linux x86_64,60.0060006,62b33e90d4a7c3f314f45ba6,64d2fd46c836a06233681665,64dc7e9a62f3414613033471,,,,,,,sngl,resources/DR.BMP,resources/Empty.png,WildCard_Ex,-0.487394253,0.082062682,1,0,0,1.269,optionLeft,55,10585,5,21,0,21,0,1,,,,,,,,,,,,,,,,,,,,,,,,,,,,,,,,,,,,,,,
,,,,,,,,2023-08-16_08h45.59.306,HF_wild_card,2022.2.4,Linux x86_64,60.0060006,62b33e90d4a7c3f314f45ba6,64d2fd46c836a06233681665,64dc7e9a62f3414613033471,,,,,,,sngl,resources/Empty.png,resources/DG.BMP,Door2,0.423011382,-0.063623627,1,0,0,1.5286,optionRight,20,10605,5,22,0,22,0,1,,,,,,,,,,,,,,,,,,,,,,,,,,,,,,,,,,,,,,,
,,,,,,,,2023-08-16_08h45.59.306,HF_wild_card,2022.2.4,Linux x86_64,60.0060006,62b33e90d4a7c3f314f45ba6,64d2fd46c836a06233681665,64dc7e9a62f3414613033471,,,,,,,sngl,resources/Empty.png,resources/DBN.BMP,Door1,0.302568913,0.003787955,1,0,0,1.1946,optionRight,30,10635,5,23,0,23,0,1,,,,,,,,,,,,,,,,,,,,,,,,,,,,,,,,,,,,,,,
,,,,,,,,2023-08-16_08h45.59.306,HF_wild_card,2022.2.4,Linux x86_64,60.0060006,62b33e90d4a7c3f314f45ba6,64d2fd46c836a06233681665,64dc7e9a62f3414613033471,,,,,,,decisionTrl,resources/DB.BMP,resources/DR.BMP,Door3,-0.408999523,-0.025374452,1,0,0,7.2623,optionLeft,70,10705,5,24,0,24,0,1,,,,,,,,,,,,,,,,,,,,,,,,,,,,,,,,,,,,,,,
,,,,,,,,2023-08-16_08h45.59.306,HF_wild_card,2022.2.4,Linux x86_64,60.0060006,62b33e90d4a7c3f314f45ba6,64d2fd46c836a06233681665,64dc7e9a62f3414613033471,,,,,,,ctch,resources/DB.BMP,resources/DG.BMP,Door3,-0.329084118,-0.011931101,1,0,0,2.2646,optionLeft,70,10775,5,25,0,25,0,1,,,,,,,,,,,,,,,,,,,,,,,,,,,,,,,,,,,,,,,
,,,,,,,,2023-08-16_08h45.59.306,HF_wild_card,2022.2.4,Linux x86_64,60.0060006,62b33e90d4a7c3f314f45ba6,64d2fd46c836a06233681665,64dc7e9a62f3414613033471,,,,,,,sngl,resources/Empty.png,resources/DY.BMP,Door4,0.419123252,-0.095506748,1,0,0,1.0123,optionRight,60,10835,5,26,0,26,0,1,,,,,,,,,,,,,,,,,,,,,,,,,,,,,,,,,,,,,,,
,,,,,,,,2023-08-16_08h45.59.306,HF_wild_card,2022.2.4,Linux x86_64,60.0060006,62b33e90d4a7c3f314f45ba6,64d2fd46c836a06233681665,64dc7e9a62f3414613033471,,,,,,,ctch,resources/DY.BMP,resources/DBN.BMP,Door4,-0.376877467,0.020981391,1,0,0,1.5835,optionLeft,60,10895,5,27,0,27,0,1,,,,,,,,,,,,,,,,,,,,,,,,,,,,,,,,,,,,,,,
,,,,,,,,2023-08-16_08h45.59.306,HF_wild_card,2022.2.4,Linux x86_64,60.0060006,62b33e90d4a7c3f314f45ba6,64d2fd46c836a06233681665,64dc7e9a62f3414613033471,,,,,,,ctch,resources/DBN.BMP,resources/DY.BMP,Door4,0.415456533,-0.052719593,1,0,0,1.0969,optionRight,60,10955,5,28,0,28,0,1,,,,,,,,,,,,,,,,,,,,,,,,,,,,,,,,,,,,,,,
,,,,,,,,2023-08-16_08h45.59.306,HF_wild_card,2022.2.4,Linux x86_64,60.0060006,62b33e90d4a7c3f314f45ba6,64d2fd46c836a06233681665,64dc7e9a62f3414613033471,,,,,,,decisionTrl,resources/DB.BMP,resources/DY.BMP,Door3,-0.336857875,-0.016394536,1,0,0,5.9343,optionLeft,70,11025,5,29,0,29,0,1,,,,,,,,,,,,,,,,,,,,,,,,,,,,,,,,,,,,,,,
,,,,,,,,2023-08-16_08h45.59.306,HF_wild_card,2022.2.4,Linux x86_64,60.0060006,62b33e90d4a7c3f314f45ba6,64d2fd46c836a06233681665,64dc7e9a62f3414613033471,,,,,,,decisionTrl,resources/DG.BMP,resources/DR.BMP,WildCard_Ex,0.308670918,-0.069087148,1,0,0,2.6307,optionRight,45,11070,5,30,0,30,0,1,,,,,,,,,,,,,,,,,,,,,,,,,,,,,,,,,,,,,,,
,,,,,,,,2023-08-16_08h45.59.306,HF_wild_card,2022.2.4,Linux x86_64,60.0060006,62b33e90d4a7c3f314f45ba6,64d2fd46c836a06233681665,64dc7e9a62f3414613033471,,,,,,,decisionTrl,resources/DBN.BMP,resources/DR.BMP,WildCard_Ex,0.4156727,-0.060959299,1,0,0,1.5499,optionRight,45,11115,5,31,0,31,0,1,,,,,,,,,,,,,,,,,,,,,,,,,,,,,,,,,,,,,,,
,,,,,,,,2023-08-16_08h45.59.306,HF_wild_card,2022.2.4,Linux x86_64,60.0060006,62b33e90d4a7c3f314f45ba6,64d2fd46c836a06233681665,64dc7e9a62f3414613033471,,,,,,,decisionTrl,resources/DR.BMP,resources/DB.BMP,Door3,0.465957324,0.010711153,1,0,0,1.2097,optionRight,70,11185,5,32,0,32,0,1,,,,,,,,,,,,,,,,,,,,,,,,,,,,,,,,,,,,,,,
,,,,,,,,2023-08-16_08h45.59.306,HF_wild_card,2022.2.4,Linux x86_64,60.0060006,62b33e90d4a7c3f314f45ba6,64d2fd46c836a06233681665,64dc7e9a62f3414613033471,,,,,,,ctch,resources/DBN.BMP,resources/DY.BMP,Door4,0.483819962,-0.092311978,1,0,0,1.3023,optionRight,60,11245,5,33,0,33,0,1,,,,,,,,,,,,,,,,,,,,,,,,,,,,,,,,,,,,,,,
,,,,,,,,2023-08-16_08h45.59.306,HF_wild_card,2022.2.4,Linux x86_64,60.0060006,62b33e90d4a7c3f314f45ba6,64d2fd46c836a06233681665,64dc7e9a62f3414613033471,,,,,,,decisionTrl,resources/DBN.BMP,resources/DG.BMP,Door2,0.476290067,0.009199699,1,0,0,2.3353,optionRight,40,11285,5,34,0,34,0,1,,,,,,,,,,,,,,,,,,,,,,,,,,,,,,,,,,,,,,,
,,,,,,,,2023-08-16_08h45.59.306,HF_wild_card,2022.2.4,Linux x86_64,60.0060006,62b33e90d4a7c3f314f45ba6,64d2fd46c836a06233681665,64dc7e9a62f3414613033471,,,,,,,decisionTrl,resources/DBN.BMP,resources/DG.BMP,Door2,0.435041348,-0.020840486,1,0,0,1.7001,optionRight,40,11325,5,35,0,35,0,1,,,,,,,,,,,,,,,,,,,,,,,,,,,,,,,,,,,,,,,
,,,,,,,,2023-08-16_08h45.59.306,HF_wild_card,2022.2.4,Linux x86_64,60.0060006,62b33e90d4a7c3f314f45ba6,64d2fd46c836a06233681665,64dc7e9a62f3414613033471,,,,,,,ctch,resources/DG.BMP,resources/DB.BMP,Door3,0.368060033,0.004690528,1,0,0,1.7358,optionRight,70,11395,5,36,0,36,0,1,,,,,,,,,,,,,,,,,,,,,,,,,,,,,,,,,,,,,,,
,,,,,,,,2023-08-16_08h45.59.306,HF_wild_card,2022.2.4,Linux x86_64,60.0060006,62b33e90d4a7c3f314f45ba6,64d2fd46c836a06233681665,64dc7e9a62f3414613033471,,,,,,,decisionTrl,resources/DY.BMP,resources/DR.BMP,Door4,-0.366880894,0.035015186,1,0,0,1.7024,optionLeft,80,11475,5,37,0,37,0,1,,,,,,,,,,,,,,,,,,,,,,,,,,,,,,,,,,,,,,,
,,,,,,,,2023-08-16_08h45.59.306,HF_wild_card,2022.2.4,Linux x86_64,60.0060006,62b33e90d4a7c3f314f45ba6,64d2fd46c836a06233681665,64dc7e9a62f3414613033471,,,,,,,decisionTrl,resources/DR.BMP,resources/DY.BMP,Door4,0.318474054,0.043215275,1,0,0,1.484,optionRight,60,11535,5,38,0,38,0,1,,,,,,,,,,,,,,,,,,,,,,,,,,,,,,,,,,,,,,,
,,,,,,,,2023-08-16_08h45.59.306,HF_wild_card,2022.2.4,Linux x86_64,60.0060006,62b33e90d4a7c3f314f45ba6,64d2fd46c836a06233681665,64dc7e9a62f3414613033471,,,,,,,sngl,resources/Empty.png,resources/DR.BMP,WildCard_Ex,0.374530156,-0.001511693,1,0,0,1.1247,optionRight,55,11590,5,39,0,39,0,1,,,,,,,,,,,,,,,,,,,,,,,,,,,,,,,,,,,,,,,
,,,,,,,,2023-08-16_08h45.59.306,HF_wild_card,2022.2.4,Linux x86_64,60.0060006,62b33e90d4a7c3f314f45ba6,64d2fd46c836a06233681665,64dc7e9a62f3414613033471,,,,,,,decisionTrl,resources/DG.BMP,resources/DBN.BMP,Door2,-0.280468702,0.051734686,1,0,0,2.2648,optionLeft,20,11610,5,40,0,40,0,1,,,,,,,,,,,,,,,,,,,,,,,,,,,,,,,,,,,,,,,
,,,,,,,,2023-08-16_08h45.59.306,HF_wild_card,2022.2.4,Linux x86_64,60.0060006,62b33e90d4a7c3f314f45ba6,64d2fd46c836a06233681665,64dc7e9a62f3414613033471,,,,,,,decisionTrl,resources/DG.BMP,resources/DBN.BMP,Door1,0.347739935,0.012871822,1,0,0,1.5472,optionRight,30,11640,5,41,0,41,0,1,,,,,,,,,,,,,,,,,,,,,,,,,,,,,,,,,,,,,,,
,,,,,,,,2023-08-16_08h45.59.306,HF_wild_card,2022.2.4,Linux x86_64,60.0060006,62b33e90d4a7c3f314f45ba6,64d2fd46c836a06233681665,64dc7e9a62f3414613033471,,,,,,,decisionTrl,resources/DB.BMP,resources/DY.BMP,Door4,0.429590066,0.004875382,1,0,0,1.8132,optionRight,60,11700,5,42,0,42,0,1,,,,,,,,,,,,,,,,,,,,,,,,,,,,,,,,,,,,,,,
,,,,,,,,2023-08-16_08h45.59.306,HF_wild_card,2022.2.4,Linux x86_64,60.0060006,62b33e90d4a7c3f314f45ba6,64d2fd46c836a06233681665,64dc7e9a62f3414613033471,,,,,,,sngl,resources/DB.BMP,resources/Empty.png,Door3,-0.35466512,-0.009679953,1,0,0,0.9653,optionLeft,70,11770,5,43,0,43,0,1,,,,,,,,,,,,,,,,,,,,,,,,,,,,,,,,,,,,,,,
,,,,,,,,2023-08-16_08h45.59.306,HF_wild_card,2022.2.4,Linux x86_64,60.0060006,62b33e90d4a7c3f314f45ba6,64d2fd46c836a06233681665,64dc7e9a62f3414613033471,,,,,,,,,,,,,,,,,,,,,,,,,,4,0,4,0,1,,,,,,,,,,,,,,,,,,,,,,,,,,,,,,,,,,
,,,,,,,,2023-08-16_08h45.59.306,HF_wild_card,2022.2.4,Linux x86_64,60.0060006,62b33e90d4a7c3f314f45ba6,64d2fd46c836a06233681665,64dc7e9a62f3414613033471,,,,,,,decisionTrl,resources/DG.BMP,resources/DBN.BMP,Door2,-0.32888178,0.074165622,1,0,0,1.665,optionLeft,20,11790,6,0,0,0,0,1,,,,,,,,,,,,,,,,,,,,,,,,,,,,,,,,,,,,,,,
,,,,,,,,2023-08-16_08h45.59.306,HF_wild_card,2022.2.4,Linux x86_64,60.0060006,62b33e90d4a7c3f314f45ba6,64d2fd46c836a06233681665,64dc7e9a62f3414613033471,,,,,,,decisionTrl,resources/DB.BMP,resources/DR.BMP,WildCard_Ex,0.380132357,-0.106832544,1,0,0,3.8651,optionRight,45,11835,6,1,0,1,0,1,,,,,,,,,,,,,,,,,,,,,,,,,,,,,,,,,,,,,,,
,,,,,,,,2023-08-16_08h45.59.306,HF_wild_card,2022.2.4,Linux x86_64,60.0060006,62b33e90d4a7c3f314f45ba6,64d2fd46c836a06233681665,64dc7e9a62f3414613033471,,,,,,,decisionTrl,resources/DBN.BMP,resources/DG.BMP,Door1,-0.433361133,0.146628976,1,0,0,2.9688,optionLeft,30,11865,6,2,0,2,0,1,,,,,,,,,,,,,,,,,,,,,,,,,,,,,,,,,,,,,,,
,,,,,,,,2023-08-16_08h45.59.306,HF_wild_card,2022.2.4,Linux x86_64,60.0060006,62b33e90d4a7c3f314f45ba6,64d2fd46c836a06233681665,64dc7e9a62f3414613033471,,,,,,,ctch,resources/DG.BMP,resources/DB.BMP,Door3,0.31873401,0.00029246,1,0,0,0.9802,optionRight,70,11935,6,3,0,3,0,1,,,,,,,,,,,,,,,,,,,,,,,,,,,,,,,,,,,,,,,
,,,,,,,,2023-08-16_08h45.59.306,HF_wild_card,2022.2.4,Linux x86_64,60.0060006,62b33e90d4a7c3f314f45ba6,64d2fd46c836a06233681665,64dc7e9a62f3414613033471,,,,,,,decisionTrl,resources/DY.BMP,resources/DR.BMP,Door4,-0.276679635,-0.025291403,1,0,0,1.9307,optionLeft,60,11995,6,4,0,4,0,1,,,,,,,,,,,,,,,,,,,,,,,,,,,,,,,,,,,,,,,
,,,,,,,,2023-08-16_08h45.59.306,HF_wild_card,2022.2.4,Linux x86_64,60.0060006,62b33e90d4a7c3f314f45ba6,64d2fd46c836a06233681665,64dc7e9a62f3414613033471,,,,,,,sngl,resources/Empty.png,resources/DB.BMP,Door3,0.319855452,-0.026952704,1,0,0,1.1669,optionRight,70,12065,6,5,0,5,0,1,,,,,,,,,,,,,,,,,,,,,,,,,,,,,,,,,,,,,,,
,,,,,,,,2023-08-16_08h45.59.306,HF_wild_card,2022.2.4,Linux x86_64,60.0060006,62b33e90d4a7c3f314f45ba6,64d2fd46c836a06233681665,64dc7e9a62f3414613033471,,,,,,,decisionTrl,resources/DR.BMP,resources/DBN.BMP,WildCard_Ex,-0.411680301,-0.01789697,1,0,0,2.3133,optionLeft,55,12120,6,6,0,6,0,1,,,,,,,,,,,,,,,,,,,,,,,,,,,,,,,,,,,,,,,
,,,,,,,,2023-08-16_08h45.59.306,HF_wild_card,2022.2.4,Linux x86_64,60.0060006,62b33e90d4a7c3f314f45ba6,64d2fd46c836a06233681665,64dc7e9a62f3414613033471,,,,,,,decisionTrl,resources/DG.BMP,resources/DBN.BMP,Door1,0.259036779,0.018945257,1,0,0,2.5277,optionRight,30,12150,6,7,0,7,0,1,,,,,,,,,,,,,,,,,,,,,,,,,,,,,,,,,,,,,,,
,,,,,,,,2023-08-16_08h45.59.306,HF_wild_card,2022.2.4,Linux x86_64,60.0060006,62b33e90d4a7c3f314f45ba6,64d2fd46c836a06233681665,64dc7e9a62f3414613033471,,,,,,,sngl,resources/Empty.png,resources/DR.BMP,WildCard_Ex,0.46346283,-0.03395164,1,0,0,1.1847,optionRight,55,12205,6,8,0,8,0,1,,,,,,,,,,,,,,,,,,,,,,,,,,,,,,,,,,,,,,,
,,,,,,,,2023-08-16_08h45.59.306,HF_wild_card,2022.2.4,Linux x86_64,60.0060006,62b33e90d4a7c3f314f45ba6,64d2fd46c836a06233681665,64dc7e9a62f3414613033471,,,,,,,decisionTrl,resources/DR.BMP,resources/DB.BMP,Door3,0.301413695,-0.032621622,1,0,0,1.9965,optionRight,70,12275,6,9,0,9,0,1,,,,,,,,,,,,,,,,,,,,,,,,,,,,,,,,,,,,,,,
,,,,,,,,2023-08-16_08h45.59.306,HF_wild_card,2022.2.4,Linux x86_64,60.0060006,62b33e90d4a7c3f314f45ba6,64d2fd46c836a06233681665,64dc7e9a62f3414613033471,,,,,,,sngl,resources/DY.BMP,resources/Empty.png,Door4,-0.427634041,0.022102356,1,0,0,1.4926,optionLeft,60,12335,6,10,0,10,0,1,,,,,,,,,,,,,,,,,,,,,,,,,,,,,,,,,,,,,,,
,,,,,,,,2023-08-16_08h45.59.306,HF_wild_card,2022.2.4,Linux x86_64,60.0060006,62b33e90d4a7c3f314f45ba6,64d2fd46c836a06233681665,64dc7e9a62f3414613033471,,,,,,,ctch,resources/DBN.BMP,resources/DY.BMP,Door4,0.353072643,-0.039226254,1,0,0,1.1944,optionRight,80,12415,6,11,0,11,0,1,,,,,,,,,,,,,,,,,,,,,,,,,,,,,,,,,,,,,,,
,,,,,,,,2023-08-16_08h45.59.306,HF_wild_card,2022.2.4,Linux x86_64,60.0060006,62b33e90d4a7c3f314f45ba6,64d2fd46c836a06233681665,64dc7e9a62f3414613033471,,,,,,,sngl,resources/Empty.png,resources/DG.BMP,Door2,0.347937822,-0.044055899,1,0,0,1.2445,optionRight,40,12455,6,12,0,12,0,1,,,,,,,,,,,,,,,,,,,,,,,,,,,,,,,,,,,,,,,
,,,,,,,,2023-08-16_08h45.59.306,HF_wild_card,2022.2.4,Linux x86_64,60.0060006,62b33e90d4a7c3f314f45ba6,64d2fd46c836a06233681665,64dc7e9a62f3414613033471,,,,,,,sngl,resources/DR.BMP,resources/Empty.png,WildCard_Ex,-0.321172635,-0.053113103,1,0,0,1.8632,optionLeft,45,12500,6,13,0,13,0,1,,,,,,,,,,,,,,,,,,,,,,,,,,,,,,,,,,,,,,,
,,,,,,,,2023-08-16_08h45.59.306,HF_wild_card,2022.2.4,Linux x86_64,60.0060006,62b33e90d4a7c3f314f45ba6,64d2fd46c836a06233681665,64dc7e9a62f3414613033471,,,,,,,ctch,resources/DG.BMP,resources/DB.BMP,Door3,0.319820245,0.003499508,1,0,0,2.6157,optionRight,70,12570,6,14,0,14,0,1,,,,,,,,,,,,,,,,,,,,,,,,,,,,,,,,,,,,,,,
,,,,,,,,2023-08-16_08h45.59.306,HF_wild_card,2022.2.4,Linux x86_64,60.0060006,62b33e90d4a7c3f314f45ba6,64d2fd46c836a06233681665,64dc7e9a62f3414613033471,,,,,,,ctch,resources/DY.BMP,resources/DBN.BMP,Door4,-0.388451298,0.022123615,1,0,0,1.3463,optionLeft,80,12650,6,15,0,15,0,1,,,,,,,,,,,,,,,,,,,,,,,,,,,,,,,,,,,,,,,
,,,,,,,,2023-08-16_08h45.59.306,HF_wild_card,2022.2.4,Linux x86_64,60.0060006,62b33e90d4a7c3f314f45ba6,64d2fd46c836a06233681665,64dc7e9a62f3414613033471,,,,,,,decisionTrl,resources/DY.BMP,resources/DB.BMP,Door4,-0.426030795,-0.010127107,1,0,0,1.5108,optionLeft,80,12730,6,16,0,16,0,1,,,,,,,,,,,,,,,,,,,,,,,,,,,,,,,,,,,,,,,
,,,,,,,,2023-08-16_08h45.59.306,HF_wild_card,2022.2.4,Linux x86_64,60.0060006,62b33e90d4a7c3f314f45ba6,64d2fd46c836a06233681665,64dc7e9a62f3414613033471,,,,,,,decisionTrl,resources/DY.BMP,resources/DB.BMP,Door4,-0.354640643,0.020344178,1,0,0,0.9467,optionLeft,60,12790,6,17,0,17,0,1,,,,,,,,,,,,,,,,,,,,,,,,,,,,,,,,,,,,,,,
,,,,,,,,2023-08-16_08h45.59.306,HF_wild_card,2022.2.4,Linux x86_64,60.0060006,62b33e90d4a7c3f314f45ba6,64d2fd46c836a06233681665,64dc7e9a62f3414613033471,,,,,,,decisionTrl,resources/DB.BMP,resources/DY.BMP,Door4,0.274202188,-0.096601486,1,0,0,3.5153,optionRight,80,12870,6,18,0,18,0,1,,,,,,,,,,,,,,,,,,,,,,,,,,,,,,,,,,,,,,,
,,,,,,,,2023-08-16_08h45.59.306,HF_wild_card,2022.2.4,Linux x86_64,60.0060006,62b33e90d4a7c3f314f45ba6,64d2fd46c836a06233681665,64dc7e9a62f3414613033471,,,,,,,sngl,resources/Empty.png,resources/DY.BMP,Door4,0.359980186,-0.031207323,1,0,0,1.387,optionRight,80,12950,6,19,0,19,0,1,,,,,,,,,,,,,,,,,,,,,,,,,,,,,,,,,,,,,,,
,,,,,,,,2023-08-16_08h45.59.306,HF_wild_card,2022.2.4,Linux x86_64,60.0060006,62b33e90d4a7c3f314f45ba6,64d2fd46c836a06233681665,64dc7e9a62f3414613033471,,,,,,,ctch,resources/DB.BMP,resources/DG.BMP,Door3,-0.366032918,-0.03702577,1,0,0,4.3463,optionLeft,70,13020,6,20,0,20,0,1,,,,,,,,,,,,,,,,,,,,,,,,,,,,,,,,,,,,,,,
,,,,,,,,2023-08-16_08h45.59.306,HF_wild_card,2022.2.4,Linux x86_64,60.0060006,62b33e90d4a7c3f314f45ba6,64d2fd46c836a06233681665,64dc7e9a62f3414613033471,,,,,,,decisionTrl,resources/DBN.BMP,resources/DG.BMP,Door1,-0.356683969,-0.08998541,1,0,0,3.8312,optionLeft,30,13050,6,21,0,21,0,1,,,,,,,,,,,,,,,,,,,,,,,,,,,,,,,,,,,,,,,
,,,,,,,,2023-08-16_08h45.59.306,HF_wild_card,2022.2.4,Linux x86_64,60.0060006,62b33e90d4a7c3f314f45ba6,64d2fd46c836a06233681665,64dc7e9a62f3414613033471,,,,,,,sngl,resources/Empty.png,resources/DBN.BMP,Door1,0.419768969,0.057053407,1,0,0,1.8024,optionRight,30,13080,6,22,0,22,0,1,,,,,,,,,,,,,,,,,,,,,,,,,,,,,,,,,,,,,,,
,,,,,,,,2023-08-16_08h45.59.306,HF_wild_card,2022.2.4,Linux x86_64,60.0060006,62b33e90d4a7c3f314f45ba6,64d2fd46c836a06233681665,64dc7e9a62f3414613033471,,,,,,,decisionTrl,resources/DR.BMP,resources/DG.BMP,WildCard_Ex,-0.408303499,-0.085926374,1,0,0,2.0634,optionLeft,55,13135,6,23,0,23,0,1,,,,,,,,,,,,,,,,,,,,,,,,,,,,,,,,,,,,,,,
,,,,,,,,2023-08-16_08h45.59.306,HF_wild_card,2022.2.4,Linux x86_64,60.0060006,62b33e90d4a7c3f314f45ba6,64d2fd46c836a06233681665,64dc7e9a62f3414613033471,,,,,,,decisionTrl,resources/DR.BMP,resources/DY.BMP,Door4,0.426735719,0.076380094,1,0,0,1.2619,optionRight,80,13215,6,24,0,24,0,1,,,,,,,,,,,,,,,,,,,,,,,,,,,,,,,,,,,,,,,
,,,,,,,,2023-08-16_08h45.59.306,HF_wild_card,2022.2.4,Linux x86_64,60.0060006,62b33e90d4a7c3f314f45ba6,64d2fd46c836a06233681665,64dc7e9a62f3414613033471,,,,,,,ctch,resources/DB.BMP,resources/DG.BMP,Door3,-0.402626117,0.030951699,1,0,0,2.2634,optionLeft,70,13285,6,25,0,25,0,1,,,,,,,,,,,,,,,,,,,,,,,,,,,,,,,,,,,,,,,
,,,,,,,,2023-08-16_08h45.59.306,HF_wild_card,2022.2.4,Linux x86_64,60.0060006,62b33e90d4a7c3f314f45ba6,64d2fd46c836a06233681665,64dc7e9a62f3414613033471,,,,,,,decisionTrl,resources/DB.BMP,resources/DY.BMP,Door4,0.416579803,0.020754735,1,0,0,1.282,optionRight,60,13345,6,26,0,26,0,1,,,,,,,,,,,,,,,,,,,,,,,,,,,,,,,,,,,,,,,
,,,,,,,,2023-08-16_08h45.59.306,HF_wild_card,2022.2.4,Linux x86_64,60.0060006,62b33e90d4a7c3f314f45ba6,64d2fd46c836a06233681665,64dc7e9a62f3414613033471,,,,,,,decisionTrl,resources/DBN.BMP,resources/DG.BMP,Door2,0.408165852,-0.016961416,1,0,0,6.0985,optionRight,40,13385,6,27,0,27,0,1,,,,,,,,,,,,,,,,,,,,,,,,,,,,,,,,,,,,,,,
,,,,,,,,2023-08-16_08h45.59.306,HF_wild_card,2022.2.4,Linux x86_64,60.0060006,62b33e90d4a7c3f314f45ba6,64d2fd46c836a06233681665,64dc7e9a62f3414613033471,,,,,,,decisionTrl,resources/DY.BMP,resources/DB.BMP,Door4,-0.312697728,-0.010577679,1,0,0,1.1863,optionLeft,80,13465,6,28,0,28,0,1,,,,,,,,,,,,,,,,,,,,,,,,,,,,,,,,,,,,,,,
,,,,,,,,2023-08-16_08h45.59.306,HF_wild_card,2022.2.4,Linux x86_64,60.0060006,62b33e90d4a7c3f314f45ba6,64d2fd46c836a06233681665,64dc7e9a62f3414613033471,,,,,,,sngl,resources/DB.BMP,resources/Empty.png,Door3,-0.498975952,-0.033800443,1,0,0,3.0134,optionLeft,70,13535,6,29,0,29,0,1,,,,,,,,,,,,,,,,,,,,,,,,,,,,,,,,,,,,,,,
,,,,,,,,2023-08-16_08h45.59.306,HF_wild_card,2022.2.4,Linux x86_64,60.0060006,62b33e90d4a7c3f314f45ba6,64d2fd46c836a06233681665,64dc7e9a62f3414613033471,,,,,,,decisionTrl,resources/DG.BMP,resources/DR.BMP,WildCard_Ex,0.39820234,0.004609187,1,0,0,2.8975,optionRight,55,13590,6,30,0,30,0,1,,,,,,,,,,,,,,,,,,,,,,,,,,,,,,,,,,,,,,,
,,,,,,,,2023-08-16_08h45.59.306,HF_wild_card,2022.2.4,Linux x86_64,60.0060006,62b33e90d4a7c3f314f45ba6,64d2fd46c836a06233681665,64dc7e9a62f3414613033471,,,,,,,decisionTrl,resources/DBN.BMP,resources/DG.BMP,Door1,-0.400946776,-0.086810033,1,0,0,3.3153,optionLeft,30,13620,6,31,0,31,0,1,,,,,,,,,,,,,,,,,,,,,,,,,,,,,,,,,,,,,,,
,,,,,,,,2023-08-16_08h45.59.306,HF_wild_card,2022.2.4,Linux x86_64,60.0060006,62b33e90d4a7c3f314f45ba6,64d2fd46c836a06233681665,64dc7e9a62f3414613033471,,,,,,,sngl,resources/DG.BMP,resources/Empty.png,Door2,-0.49099044,0.037666043,1,0,0,1.2127,optionLeft,20,13640,6,32,0,32,0,1,,,,,,,,,,,,,,,,,,,,,,,,,,,,,,,,,,,,,,,
,,,,,,,,2023-08-16_08h45.59.306,HF_wild_card,2022.2.4,Linux x86_64,60.0060006,62b33e90d4a7c3f314f45ba6,64d2fd46c836a06233681665,64dc7e9a62f3414613033471,,,,,,,sngl,resources/Empty.png,resources/DR.BMP,WildCard_Ex,0.434979677,-0.043552081,1,0,0,1.4296,optionRight,45,13685,6,33,0,33,0,1,,,,,,,,,,,,,,,,,,,,,,,,,,,,,,,,,,,,,,,
,,,,,,,,2023-08-16_08h45.59.306,HF_wild_card,2022.2.4,Linux x86_64,60.0060006,62b33e90d4a7c3f314f45ba6,64d2fd46c836a06233681665,64dc7e9a62f3414613033471,,,,,,,decisionTrl,resources/DB.BMP,resources/DY.BMP,Door4,0.317204475,-0.011678219,1,0,0,1.5812,optionRight,60,13745,6,34,0,34,0,1,,,,,,,,,,,,,,,,,,,,,,,,,,,,,,,,,,,,,,,
,,,,,,,,2023-08-16_08h45.59.306,HF_wild_card,2022.2.4,Linux x86_64,60.0060006,62b33e90d4a7c3f314f45ba6,64d2fd46c836a06233681665,64dc7e9a62f3414613033471,,,,,,,decisionTrl,resources/DG.BMP,resources/DBN.BMP,Door2,-0.344634692,0.0182151,1,0,0,1.1465,optionLeft,40,13785,6,35,0,35,0,1,,,,,,,,,,,,,,,,,,,,,,,,,,,,,,,,,,,,,,,
,,,,,,,,2023-08-16_08h45.59.306,HF_wild_card,2022.2.4,Linux x86_64,60.0060006,62b33e90d4a7c3f314f45ba6,64d2fd46c836a06233681665,64dc7e9a62f3414613033471,,,,,,,ctch,resources/DBN.BMP,resources/DY.BMP,Door4,0.320841153,-0.053642988,1,0,0,1.1976,optionRight,80,13865,6,36,0,36,0,1,,,,,,,,,,,,,,,,,,,,,,,,,,,,,,,,,,,,,,,
,,,,,,,,2023-08-16_08h45.59.306,HF_wild_card,2022.2.4,Linux x86_64,60.0060006,62b33e90d4a7c3f314f45ba6,64d2fd46c836a06233681665,64dc7e9a62f3414613033471,,,,,,,decisionTrl,resources/DB.BMP,resources/DY.BMP,Door4,0.333910386,-0.012769977,1,0,0,2.0798,optionRight,80,13945,6,37,0,37,0,1,,,,,,,,,,,,,,,,,,,,,,,,,,,,,,,,,,,,,,,
,,,,,,,,2023-08-16_08h45.59.306,HF_wild_card,2022.2.4,Linux x86_64,60.0060006,62b33e90d4a7c3f314f45ba6,64d2fd46c836a06233681665,64dc7e9a62f3414613033471,,,,,,,sngl,resources/DBN.BMP,resources/Empty.png,Door1,-0.33250765,0.032843908,1,0,0,3.3143,optionLeft,30,13975,6,38,0,38,0,1,,,,,,,,,,,,,,,,,,,,,,,,,,,,,,,,,,,,,,,
,,,,,,,,2023-08-16_08h45.59.306,HF_wild_card,2022.2.4,Linux x86_64,60.0060006,62b33e90d4a7c3f314f45ba6,64d2fd46c836a06233681665,64dc7e9a62f3414613033471,,,,,,,decisionTrl,resources/DBN.BMP,resources/DR.BMP,WildCard_Ex,0.332054536,-0.03694733,1,0,0,1.7039,optionRight,55,14030,6,39,0,39,0,1,,,,,,,,,,,,,,,,,,,,,,,,,,,,,,,,,,,,,,,
,,,,,,,,2023-08-16_08h45.59.306,HF_wild_card,2022.2.4,Linux x86_64,60.0060006,62b33e90d4a7c3f314f45ba6,64d2fd46c836a06233681665,64dc7e9a62f3414613033471,,,,,,,decisionTrl,resources/DG.BMP,resources/DBN.BMP,Door2,-0.404557943,-0.006669442,1,0,0,1.4324,optionLeft,20,14050,6,40,0,40,0,1,,,,,,,,,,,,,,,,,,,,,,,,,,,,,,,,,,,,,,,
,,,,,,,,2023-08-16_08h45.59.306,HF_wild_card,2022.2.4,Linux x86_64,60.0060006,62b33e90d4a7c3f314f45ba6,64d2fd46c836a06233681665,64dc7e9a62f3414613033471,,,,,,,decisionTrl,resources/DY.BMP,resources/DB.BMP,Door4,-0.422609289,0.022032619,1,0,0,1.2464,optionLeft,80,14130,6,41,0,41,0,1,,,,,,,,,,,,,,,,,,,,,,,,,,,,,,,,,,,,,,,
,,,,,,,,2023-08-16_08h45.59.306,HF_wild_card,2022.2.4,Linux x86_64,60.0060006,62b33e90d4a7c3f314f45ba6,64d2fd46c836a06233681665,64dc7e9a62f3414613033471,,,,,,,ctch,resources/DY.BMP,resources/DBN.BMP,Door4,-0.317057649,-0.02073586,1,0,0,1.2451,optionLeft,80,14210,6,42,0,42,0,1,,,,,,,,,,,,,,,,,,,,,,,,,,,,,,,,,,,,,,,
,,,,,,,,2023-08-16_08h45.59.306,HF_wild_card,2022.2.4,Linux x86_64,60.0060006,62b33e90d4a7c3f314f45ba6,64d2fd46c836a06233681665,64dc7e9a62f3414613033471,,,,,,,sngl,resources/DR.BMP,resources/Empty.png,WildCard_Ex,-0.359476248,-0.056488872,1,0,0,1.7523,optionLeft,55,14265,6,43,0,43,0,1,,,,,,,,,,,,,,,,,,,,,,,,,,,,,,,,,,,,,,,
,,,,,,,,2023-08-16_08h45.59.306,HF_wild_card,2022.2.4,Linux x86_64,60.0060006,62b33e90d4a7c3f314f45ba6,64d2fd46c836a06233681665,64dc7e9a62f3414613033471,,,,,,,,,,,,,,,,,,,,,,,,,,5,0,5,0,1,,,,,,,,,,,,,,,,,,,,,,,,,,,,,,,,,,
,,,,,,,,2023-08-16_08h45.59.306,HF_wild_card,2022.2.4,Linux x86_64,60.0060006,62b33e90d4a7c3f314f45ba6,64d2fd46c836a06233681665,64dc7e9a62f3414613033471,,,,,,,decisionTrl,resources/DG.BMP,resources/DBN.BMP,Door1,0.388916651,-0.048497836,1,0,0,3.1161,optionRight,30,14295,7,0,0,0,0,1,,,,,,,,,,,,,,,,,,,,,,,,,,,,,,,,,,,,,,,
,,,,,,,,2023-08-16_08h45.59.306,HF_wild_card,2022.2.4,Linux x86_64,60.0060006,62b33e90d4a7c3f314f45ba6,64d2fd46c836a06233681665,64dc7e9a62f3414613033471,,,,,,,decisionTrl,resources/DY.BMP,resources/DB.BMP,Door4,-0.328523636,-0.030719757,1,0,0,1.653,optionLeft,80,14375,7,1,0,1,0,1,,,,,,,,,,,,,,,,,,,,,,,,,,,,,,,,,,,,,,,
,,,,,,,,2023-08-16_08h45.59.306,HF_wild_card,2022.2.4,Linux x86_64,60.0060006,62b33e90d4a7c3f314f45ba6,64d2fd46c836a06233681665,64dc7e9a62f3414613033471,,,,,,,ctch,resources/DBN.BMP,resources/DY.BMP,Door4,0.371890465,-0.010945241,1,0,0,1.0942,optionRight,60,14435,7,2,0,2,0,1,,,,,,,,,,,,,,,,,,,,,,,,,,,,,,,,,,,,,,,
,,,,,,,,2023-08-16_08h45.59.306,HF_wild_card,2022.2.4,Linux x86_64,60.0060006,62b33e90d4a7c3f314f45ba6,64d2fd46c836a06233681665,64dc7e9a62f3414613033471,,,,,,,decisionTrl,resources/DG.BMP,resources/DBN.BMP,Door2,-0.317955414,0.038341959,1,0,0,3.5335,optionLeft,20,14455,7,3,0,3,0,1,,,,,,,,,,,,,,,,,,,,,,,,,,,,,,,,,,,,,,,
,,,,,,,,2023-08-16_08h45.59.306,HF_wild_card,2022.2.4,Linux x86_64,60.0060006,62b33e90d4a7c3f314f45ba6,64d2fd46c836a06233681665,64dc7e9a62f3414613033471,,,,,,,decisionTrl,resources/DB.BMP,resources/DY.BMP,Door4,0.398274342,-0.012173613,1,0,0,2.6501,optionRight,60,14515,7,4,0,4,0,1,,,,,,,,,,,,,,,,,,,,,,,,,,,,,,,,,,,,,,,
,,,,,,,,2023-08-16_08h45.59.306,HF_wild_card,2022.2.4,Linux x86_64,60.0060006,62b33e90d4a7c3f314f45ba6,64d2fd46c836a06233681665,64dc7e9a62f3414613033471,,,,,,,ctch,resources/DG.BMP,resources/DB.BMP,Door3,0.445587317,-0.090809186,1,0,0,2.4654,optionRight,70,14585,7,5,0,5,0,1,,,,,,,,,,,,,,,,,,,,,,,,,,,,,,,,,,,,,,,
,,,,,,,,2023-08-16_08h45.59.306,HF_wild_card,2022.2.4,Linux x86_64,60.0060006,62b33e90d4a7c3f314f45ba6,64d2fd46c836a06233681665,64dc7e9a62f3414613033471,,,,,,,decisionTrl,resources/DY.BMP,resources/DB.BMP,Door4,-0.28677992,0.000321309,1,0,0,2.1547,optionLeft,80,14665,7,6,0,6,0,1,,,,,,,,,,,,,,,,,,,,,,,,,,,,,,,,,,,,,,,
,,,,,,,,2023-08-16_08h45.59.306,HF_wild_card,2022.2.4,Linux x86_64,60.0060006,62b33e90d4a7c3f314f45ba6,64d2fd46c836a06233681665,64dc7e9a62f3414613033471,,,,,,,decisionTrl,resources/DBN.BMP,resources/DG.BMP,Door1,-0.32310617,0.114703496,1,0,0,2.6493,optionLeft,30,14695,7,7,0,7,0,1,,,,,,,,,,,,,,,,,,,,,,,,,,,,,,,,,,,,,,,
,,,,,,,,2023-08-16_08h45.59.306,HF_wild_card,2022.2.4,Linux x86_64,60.0060006,62b33e90d4a7c3f314f45ba6,64d2fd46c836a06233681665,64dc7e9a62f3414613033471,,,,,,,decisionTrl,resources/DG.BMP,resources/DBN.BMP,Door2,-0.428255081,0.008491874,1,0,0,1.6926,optionLeft,20,14715,7,8,0,8,0,1,,,,,,,,,,,,,,,,,,,,,,,,,,,,,,,,,,,,,,,
,,,,,,,,2023-08-16_08h45.59.306,HF_wild_card,2022.2.4,Linux x86_64,60.0060006,62b33e90d4a7c3f314f45ba6,64d2fd46c836a06233681665,64dc7e9a62f3414613033471,,,,,,,ctch,resources/DBN.BMP,resources/DY.BMP,Door4,0.421378295,0.037139535,1,0,0,1.0476,optionRight,60,14775,7,9,0,9,0,1,,,,,,,,,,,,,,,,,,,,,,,,,,,,,,,,,,,,,,,
,,,,,,,,2023-08-16_08h45.59.306,HF_wild_card,2022.2.4,Linux x86_64,60.0060006,62b33e90d4a7c3f314f45ba6,64d2fd46c836a06233681665,64dc7e9a62f3414613033471,,,,,,,decisionTrl,resources/DBN.BMP,resources/DG.BMP,Door1,-0.286322236,0.01949966,1,0,0,3.4162,optionLeft,30,14805,7,10,0,10,0,1,,,,,,,,,,,,,,,,,,,,,,,,,,,,,,,,,,,,,,,
,,,,,,,,2023-08-16_08h45.59.306,HF_wild_card,2022.2.4,Linux x86_64,60.0060006,62b33e90d4a7c3f314f45ba6,64d2fd46c836a06233681665,64dc7e9a62f3414613033471,,,,,,,decisionTrl,resources/DY.BMP,resources/DB.BMP,Door4,-0.367983063,0.003096461,1,0,0,2.6325,optionLeft,60,14865,7,11,0,11,0,1,,,,,,,,,,,,,,,,,,,,,,,,,,,,,,,,,,,,,,,
,,,,,,,,2023-08-16_08h45.59.306,HF_wild_card,2022.2.4,Linux x86_64,60.0060006,62b33e90d4a7c3f314f45ba6,64d2fd46c836a06233681665,64dc7e9a62f3414613033471,,,,,,,decisionTrl,resources/DBN.BMP,resources/DG.BMP,Door1,-0.386538903,0.083703955,1,0,0,2.683,optionLeft,30,14895,7,12,0,12,0,1,,,,,,,,,,,,,,,,,,,,,,,,,,,,,,,,,,,,,,,
,,,,,,,,2023-08-16_08h45.59.306,HF_wild_card,2022.2.4,Linux x86_64,60.0060006,62b33e90d4a7c3f314f45ba6,64d2fd46c836a06233681665,64dc7e9a62f3414613033471,,,,,,,ctch,resources/DB.BMP,resources/DG.BMP,Door3,-0.456985076,0.026962797,1,0,0,1.4327,optionLeft,70,14965,7,13,0,13,0,1,,,,,,,,,,,,,,,,,,,,,,,,,,,,,,,,,,,,,,,
,,,,,,,,2023-08-16_08h45.59.306,HF_wild_card,2022.2.4,Linux x86_64,60.0060006,62b33e90d4a7c3f314f45ba6,64d2fd46c836a06233681665,64dc7e9a62f3414613033471,,,,,,,ctch,resources/DY.BMP,resources/DBN.BMP,Door4,-0.373094678,-0.018119693,1,0,0,1.1301,optionLeft,60,15025,7,14,0,14,0,1,,,,,,,,,,,,,,,,,,,,,,,,,,,,,,,,,,,,,,,
,,,,,,,,2023-08-16_08h45.59.306,HF_wild_card,2022.2.4,Linux x86_64,60.0060006,62b33e90d4a7c3f314f45ba6,64d2fd46c836a06233681665,64dc7e9a62f3414613033471,,,,,,,ctch,resources/DG.BMP,resources/DB.BMP,Door3,0.281508605,0.018022935,1,0,0,2.6987,optionRight,70,15095,7,15,0,15,0,1,,,,,,,,,,,,,,,,,,,,,,,,,,,,,,,,,,,,,,,
,,,,,,,,2023-08-16_08h45.59.306,HF_wild_card,2022.2.4,Linux x86_64,60.0060006,62b33e90d4a7c3f314f45ba6,64d2fd46c836a06233681665,64dc7e9a62f3414613033471,,,,,,,ctch,resources/DB.BMP,resources/DG.BMP,Door3,-0.385884643,0.020215114,1,0,0,1.3985,optionLeft,70,15165,7,16,0,16,0,1,,,,,,,,,,,,,,,,,,,,,,,,,,,,,,,,,,,,,,,
,,,,,,,,2023-08-16_08h45.59.306,HF_wild_card,2022.2.4,Linux x86_64,60.0060006,62b33e90d4a7c3f314f45ba6,64d2fd46c836a06233681665,64dc7e9a62f3414613033471,,,,,,,ctch,resources/DY.BMP,resources/DBN.BMP,Door4,-0.360221624,0.00908045,1,0,0,1.2151,optionLeft,60,15225,7,17,0,17,0,1,,,,,,,,,,,,,,,,,,,,,,,,,,,,,,,,,,,,,,,
,,,,,,,,2023-08-16_08h45.59.306,HF_wild_card,2022.2.4,Linux x86_64,60.0060006,62b33e90d4a7c3f314f45ba6,64d2fd46c836a06233681665,64dc7e9a62f3414613033471,,,,,,,decisionTrl,resources/DBN.BMP,resources/DG.BMP,Door2,0.38291947,0.000623147,1,0,0,1.5794,optionRight,40,15265,7,18,0,18,0,1,,,,,,,,,,,,,,,,,,,,,,,,,,,,,,,,,,,,,,,
,,,,,,,,2023-08-16_08h45.59.306,HF_wild_card,2022.2.4,Linux x86_64,60.0060006,62b33e90d4a7c3f314f45ba6,64d2fd46c836a06233681665,64dc7e9a62f3414613033471,,,,,,,ctch,resources/DBN.BMP,resources/DY.BMP,Door4,0.435080449,0.017235875,1,0,0,2.1969,optionRight,80,15345,7,19,0,19,0,1,,,,,,,,,,,,,,,,,,,,,,,,,,,,,,,,,,,,,,,
,,,,,,,,2023-08-16_08h45.59.306,HF_wild_card,2022.2.4,Linux x86_64,60.0060006,62b33e90d4a7c3f314f45ba6,64d2fd46c836a06233681665,64dc7e9a62f3414613033471,,,,,,,decisionTrl,resources/DB.BMP,resources/DY.BMP,Door4,0.389696201,0.016946356,1,0,0,2.8039,optionRight,60,15405,7,20,0,20,0,1,,,,,,,,,,,,,,,,,,,,,,,,,,,,,,,,,,,,,,,
,,,,,,,,2023-08-16_08h45.59.306,HF_wild_card,2022.2.4,Linux x86_64,60.0060006,62b33e90d4a7c3f314f45ba6,64d2fd46c836a06233681665,64dc7e9a62f3414613033471,,,,,,,decisionTrl,resources/DB.BMP,resources/DY.BMP,Door4,0.306920369,0.053084731,1,0,0,1.3374,optionRight,80,15485,7,21,0,21,0,1,,,,,,,,,,,,,,,,,,,,,,,,,,,,,,,,,,,,,,,
,,,,,,,,2023-08-16_08h45.59.306,HF_wild_card,2022.2.4,Linux x86_64,60.0060006,62b33e90d4a7c3f314f45ba6,64d2fd46c836a06233681665,64dc7e9a62f3414613033471,,,,,,,decisionTrl,resources/DB.BMP,resources/DY.BMP,Door4,0.459897836,0.002617598,1,0,0,1.5162,optionRight,80,15565,7,22,0,22,0,1,,,,,,,,,,,,,,,,,,,,,,,,,,,,,,,,,,,,,,,
,,,,,,,,2023-08-16_08h45.59.306,HF_wild_card,2022.2.4,Linux x86_64,60.0060006,62b33e90d4a7c3f314f45ba6,64d2fd46c836a06233681665,64dc7e9a62f3414613033471,,,,,,,ctch,resources/DG.BMP,resources/DB.BMP,Door3,0.627487818,-0.027850668,1,0,0,2.149,optionRight,70,15635,7,23,0,23,0,1,,,,,,,,,,,,,,,,,,,,,,,,,,,,,,,,,,,,,,,
,,,,,,,,2023-08-16_08h45.59.306,HF_wild_card,2022.2.4,Linux x86_64,60.0060006,62b33e90d4a7c3f314f45ba6,64d2fd46c836a06233681665,64dc7e9a62f3414613033471,,,,,,,decisionTrl,resources/DG.BMP,resources/DBN.BMP,Door2,-0.328346411,0.01080064,1,0,0,1.0535,optionLeft,40,15675,7,24,0,24,0,1,,,,,,,,,,,,,,,,,,,,,,,,,,,,,,,,,,,,,,,
,,,,,,,,2023-08-16_08h45.59.306,HF_wild_card,2022.2.4,Linux x86_64,60.0060006,62b33e90d4a7c3f314f45ba6,64d2fd46c836a06233681665,64dc7e9a62f3414613033471,,,,,,,decisionTrl,resources/DY.BMP,resources/DB.BMP,Door4,-0.470021288,0.0419813,1,0,0,1.3675,optionLeft,80,15755,7,25,0,25,0,1,,,,,,,,,,,,,,,,,,,,,,,,,,,,,,,,,,,,,,,
,,,,,,,,2023-08-16_08h45.59.306,HF_wild_card,2022.2.4,Linux x86_64,60.0060006,62b33e90d4a7c3f314f45ba6,64d2fd46c836a06233681665,64dc7e9a62f3414613033471,,,,,,,decisionTrl,resources/DY.BMP,resources/DB.BMP,Door4,-0.395483732,-0.051668922,1,0,0,1.145,optionLeft,80,15835,7,26,0,26,0,1,,,,,,,,,,,,,,,,,,,,,,,,,,,,,,,,,,,,,,,
,,,,,,,,2023-08-16_08h45.59.306,HF_wild_card,2022.2.4,Linux x86_64,60.0060006,62b33e90d4a7c3f314f45ba6,64d2fd46c836a06233681665,64dc7e9a62f3414613033471,,,,,,,decisionTrl,resources/DB.BMP,resources/DY.BMP,Door4,0.373579899,-0.062866251,1,0,0,1.6181,optionRight,60,15895,7,27,0,27,0,1,,,,,,,,,,,,,,,,,,,,,,,,,,,,,,,,,,,,,,,
,,,,,,,,2023-08-16_08h45.59.306,HF_wild_card,2022.2.4,Linux x86_64,60.0060006,62b33e90d4a7c3f314f45ba6,64d2fd46c836a06233681665,64dc7e9a62f3414613033471,,,,,,,decisionTrl,resources/DB.BMP,resources/DY.BMP,Door4,0.479429404,-0.02088356,1,0,0,1.284,optionRight,60,15955,7,28,0,28,0,1,,,,,,,,,,,,,,,,,,,,,,,,,,,,,,,,,,,,,,,
,,,,,,,,2023-08-16_08h45.59.306,HF_wild_card,2022.2.4,Linux x86_64,60.0060006,62b33e90d4a7c3f314f45ba6,64d2fd46c836a06233681665,64dc7e9a62f3414613033471,,,,,,,decisionTrl,resources/DG.BMP,resources/DBN.BMP,Door1,0.401022434,-0.025013725,1,0,0,2.0485,optionRight,30,15985,7,29,0,29,0,1,,,,,,,,,,,,,,,,,,,,,,,,,,,,,,,,,,,,,,,
,,,,,,,,2023-08-16_08h45.59.306,HF_wild_card,2022.2.4,Linux x86_64,60.0060006,62b33e90d4a7c3f314f45ba6,64d2fd46c836a06233681665,64dc7e9a62f3414613033471,,,,,,,ctch,resources/DB.BMP,resources/DG.BMP,Door3,-0.29151996,-0.023447394,1,0,0,1.6496,optionLeft,70,16055,7,30,0,30,0,1,,,,,,,,,,,,,,,,,,,,,,,,,,,,,,,,,,,,,,,
,,,,,,,,2023-08-16_08h45.59.306,HF_wild_card,2022.2.4,Linux x86_64,60.0060006,62b33e90d4a7c3f314f45ba6,64d2fd46c836a06233681665,64dc7e9a62f3414613033471,,,,,,,ctch,resources/DY.BMP,resources/DBN.BMP,Door4,-0.458008369,-0.031230092,1,0,0,2.0329,optionLeft,60,16115,7,31,0,31,0,1,,,,,,,,,,,,,,,,,,,,,,,,,,,,,,,,,,,,,,,
,,,,,,,,2023-08-16_08h45.59.306,HF_wild_card,2022.2.4,Linux x86_64,60.0060006,62b33e90d4a7c3f314f45ba6,64d2fd46c836a06233681665,64dc7e9a62f3414613033471,,,,,,,decisionTrl,resources/DBN.BMP,resources/DG.BMP,Door1,-0.339768966,0.054610411,1,0,0,2.2489,optionLeft,30,16145,7,32,0,32,0,1,,,,,,,,,,,,,,,,,,,,,,,,,,,,,,,,,,,,,,,
,,,,,,,,2023-08-16_08h45.59.306,HF_wild_card,2022.2.4,Linux x86_64,60.0060006,62b33e90d4a7c3f314f45ba6,64d2fd46c836a06233681665,64dc7e9a62f3414613033471,,,,,,,decisionTrl,resources/DY.BMP,resources/DB.BMP,Door4,-0.304308931,0.009074966,1,0,0,1.3319,optionLeft,60,16205,7,33,0,33,0,1,,,,,,,,,,,,,,,,,,,,,,,,,,,,,,,,,,,,,,,
,,,,,,,,2023-08-16_08h45.59.306,HF_wild_card,2022.2.4,Linux x86_64,60.0060006,62b33e90d4a7c3f314f45ba6,64d2fd46c836a06233681665,64dc7e9a62f3414613033471,,,,,,,decisionTrl,resources/DG.BMP,resources/DBN.BMP,Door2,-0.351258278,-0.013349096,1,0,0,2.1667,optionLeft,40,16245,7,34,0,34,0,1,,,,,,,,,,,,,,,,,,,,,,,,,,,,,,,,,,,,,,,
,,,,,,,,2023-08-16_08h45.59.306,HF_wild_card,2022.2.4,Linux x86_64,60.0060006,62b33e90d4a7c3f314f45ba6,64d2fd46c836a06233681665,64dc7e9a62f3414613033471,,,,,,,decisionTrl,resources/DBN.BMP,resources/DG.BMP,Door1,-0.328558604,0.060394526,1,0,0,1.9231,optionLeft,30,16275,7,35,0,35,0,1,,,,,,,,,,,,,,,,,,,,,,,,,,,,,,,,,,,,,,,
,,,,,,,,2023-08-16_08h45.59.306,HF_wild_card,2022.2.4,Linux x86_64,60.0060006,62b33e90d4a7c3f314f45ba6,64d2fd46c836a06233681665,64dc7e9a62f3414613033471,,,,,,,,,,,,,,,,,,,,,,,,,,6,0,6,0,1,,,,,,,,,,,,,,,,,,,,,,,,,,,,,,,,,,
