Condition,Low fixed image (Door1),Low risky image (Door2),High fixed image (Door3),High risky image (Door4),Extreme Wild Card,NonExtreme Wild Card,,date,expName,psychopyVersion,OS,frameRate,PROLIFIC_PID,STUDY_ID,SESSION_ID,mouse_2.x,mouse_2.y,mouse_2.leftButton,mouse_2.midButton,mouse_2.rightButton,mouse_2.clicked_name,Trial Type,Left Option Image,Right Option Image,Chosen Door,mouse.x,mouse.y,mouse.leftButton,mouse.midButton,mouse.rightButton,mouse.time,mouse.clicked_name,Feedback,Cumulative Reward,Block,trial.thisRepN,trial.thisTrialN,trial.thisN,trial.thisIndex,trial.ran,blocks.thisRepN,blocks.thisTrialN,blocks.thisN,blocks.thisIndex,blocks.ran,Money conversion,First Outcome Reported,Shown Door (First Outcome),Displayed Image (First Outcome),outcomes.thisRepN,outcomes.thisTrialN,outcomes.thisN,outcomes.thisIndex,outcomes.ran,judgments.thisRepN,judgments.thisTrialN,judgments.thisN,judgments.thisIndex,judgments.ran,freqMouse.x,freqMouse.y,freqMouse.leftButton,freqMouse.midButton,freqMouse.rightButton,freqMouse.clicked_name,FQJ for first outcome,FQJ for second outcome,Shown Door,Displayed Image,trials.thisRepN,trials.thisTrialN,trials.thisN,trials.thisIndex,trials.ran,judgBlock.thisRepN,judgBlock.thisTrialN,judgBlock.thisN,judgBlock.thisIndex,judgBlock.ran
0,resources/DBN.BMP,resources/DP.BMP,resources/DG.BMP,resources/DR.BMP,resources/DB.BMP,resources/DY.BMP,,2023-08-16_08h49.36.051,HF_wild_card,2022.2.4,Win32,60.33546519,62c47e133958edd348b6b525,64d2fd46c836a06233681665,64dc7f779f216525d4696221,,,,,,,,,,,,,,,,,,,,,,,,,,,,,,,,,,,,,,,,,,,,,,,,,,,,,,,,,,,,,,,,
,,,,,,,,2023-08-16_08h49.36.051,HF_wild_card,2022.2.4,Win32,60.33546519,62c47e133958edd348b6b525,64d2fd46c836a06233681665,64dc7f779f216525d4696221,-0.002777735,-0.411111125,1,0,0,agree,,,,,,,,,,,,,,,,,,,,,,,,,,,,,,,,,,,,,,,,,,,,,,,,,,,,,,,,,,
,,,,,,,,2023-08-16_08h49.36.051,HF_wild_card,2022.2.4,Win32,60.33546519,62c47e133958edd348b6b525,64d2fd46c836a06233681665,64dc7f779f216525d4696221,,,,,,,,,,,,,,,,,,,,,,,,,,,,,,,,,,,,,,,,,,,,,,,,,,,,,,,,,,,,,,,,
,,,,,,,,2023-08-16_08h49.36.051,HF_wild_card,2022.2.4,Win32,60.33546519,62c47e133958edd348b6b525,64d2fd46c836a06233681665,64dc7f779f216525d4696221,,,,,,,decisionTrl,resources/DR.BMP,resources/DG.BMP,Door4,-0.444444444,-0.033333355,1,0,0,5.9509,optionLeft,60,60,1,0,0,0,0,1,,,,,,,,,,,,,,,,,,,,,,,,,,,,,,,,,,,,,,,
,,,,,,,,2023-08-16_08h49.36.051,HF_wild_card,2022.2.4,Win32,60.33546519,62c47e133958edd348b6b525,64d2fd46c836a06233681665,64dc7f779f216525d4696221,,,,,,,sngl,resources/Empty.png,resources/DG.BMP,Door3,0.429629714,-0.015740748,1,0,0,2.7279,optionRight,70,130,1,1,0,1,0,1,,,,,,,,,,,,,,,,,,,,,,,,,,,,,,,,,,,,,,,
,,,,,,,,2023-08-16_08h49.36.051,HF_wild_card,2022.2.4,Win32,60.33546519,62c47e133958edd348b6b525,64d2fd46c836a06233681665,64dc7f779f216525d4696221,,,,,,,decisionTrl,resources/DP.BMP,resources/DBN.BMP,Door2,-0.311111097,-0.050925926,1,0,0,1.3952,optionLeft,40,170,1,2,0,2,0,1,,,,,,,,,,,,,,,,,,,,,,,,,,,,,,,,,,,,,,,
,,,,,,,,2023-08-16_08h49.36.051,HF_wild_card,2022.2.4,Win32,60.33546519,62c47e133958edd348b6b525,64d2fd46c836a06233681665,64dc7f779f216525d4696221,,,,,,,ctch,resources/DP.BMP,resources/DG.BMP,Door2,-0.317592586,-0.056481503,1,0,0,1.2629,optionLeft,40,210,1,3,0,3,0,1,,,,,,,,,,,,,,,,,,,,,,,,,,,,,,,,,,,,,,,
,,,,,,,,2023-08-16_08h49.36.051,HF_wild_card,2022.2.4,Win32,60.33546519,62c47e133958edd348b6b525,64d2fd46c836a06233681665,64dc7f779f216525d4696221,,,,,,,decisionTrl,resources/DG.BMP,resources/DR.BMP,Door3,-0.475925905,-0.083333333,1,0,0,1.7289,optionLeft,70,280,1,4,0,4,0,1,,,,,,,,,,,,,,,,,,,,,,,,,,,,,,,,,,,,,,,
,,,,,,,,2023-08-16_08h49.36.051,HF_wild_card,2022.2.4,Win32,60.33546519,62c47e133958edd348b6b525,64d2fd46c836a06233681665,64dc7f779f216525d4696221,,,,,,,sngl,resources/Empty.png,resources/DBN.BMP,Door1,0.267592607,0.005555541,1,0,0,2.413,optionRight,30,310,1,5,0,5,0,1,,,,,,,,,,,,,,,,,,,,,,,,,,,,,,,,,,,,,,,
,,,,,,,,2023-08-16_08h49.36.051,HF_wild_card,2022.2.4,Win32,60.33546519,62c47e133958edd348b6b525,64d2fd46c836a06233681665,64dc7f779f216525d4696221,,,,,,,decisionTrl,resources/DP.BMP,resources/DBN.BMP,Door2,-0.291666667,-0.045370384,1,0,0,1.1787,optionLeft,20,330,1,6,0,6,0,1,,,,,,,,,,,,,,,,,,,,,,,,,,,,,,,,,,,,,,,
,,,,,,,,2023-08-16_08h49.36.051,HF_wild_card,2022.2.4,Win32,60.33546519,62c47e133958edd348b6b525,64d2fd46c836a06233681665,64dc7f779f216525d4696221,,,,,,,sngl,resources/Empty.png,resources/DP.BMP,Door2,0.239814829,-0.030555548,1,0,0,0.8132,optionRight,20,350,1,7,0,7,0,1,,,,,,,,,,,,,,,,,,,,,,,,,,,,,,,,,,,,,,,
,,,,,,,,2023-08-16_08h49.36.051,HF_wild_card,2022.2.4,Win32,60.33546519,62c47e133958edd348b6b525,64d2fd46c836a06233681665,64dc7f779f216525d4696221,,,,,,,ctch,resources/DBN.BMP,resources/DR.BMP,Door1,-0.473148134,-0.075000021,1,0,0,0.9132,optionLeft,30,380,1,8,0,8,0,1,,,,,,,,,,,,,,,,,,,,,,,,,,,,,,,,,,,,,,,
,,,,,,,,2023-08-16_08h49.36.051,HF_wild_card,2022.2.4,Win32,60.33546519,62c47e133958edd348b6b525,64d2fd46c836a06233681665,64dc7f779f216525d4696221,,,,,,,sngl,resources/DB.BMP,resources/Empty.png,WildCard_Ex,-0.3824074,-0.065740762,1,0,0,0.9199,optionLeft,95,475,1,9,0,9,0,1,,,,,,,,,,,,,,,,,,,,,,,,,,,,,,,,,,,,,,,
,,,,,,,,2023-08-16_08h49.36.051,HF_wild_card,2022.2.4,Win32,60.33546519,62c47e133958edd348b6b525,64d2fd46c836a06233681665,64dc7f779f216525d4696221,,,,,,,sngl,resources/DP.BMP,resources/Empty.png,Door2,-0.326851845,-0.093518504,1,0,0,1.2796,optionLeft,40,515,1,10,0,10,0,1,,,,,,,,,,,,,,,,,,,,,,,,,,,,,,,,,,,,,,,
,,,,,,,,2023-08-16_08h49.36.051,HF_wild_card,2022.2.4,Win32,60.33546519,62c47e133958edd348b6b525,64d2fd46c836a06233681665,64dc7f779f216525d4696221,,,,,,,sngl,resources/DG.BMP,resources/Empty.png,Door3,-0.27870369,-0.064814815,1,0,0,1.0463,optionLeft,70,585,1,11,0,11,0,1,,,,,,,,,,,,,,,,,,,,,,,,,,,,,,,,,,,,,,,
,,,,,,,,2023-08-16_08h49.36.051,HF_wild_card,2022.2.4,Win32,60.33546519,62c47e133958edd348b6b525,64d2fd46c836a06233681665,64dc7f779f216525d4696221,,,,,,,decisionTrl,resources/DG.BMP,resources/DB.BMP,Door3,-0.23055557,-0.045370384,1,0,0,1.2807,optionLeft,70,655,1,12,0,12,0,1,,,,,,,,,,,,,,,,,,,,,,,,,,,,,,,,,,,,,,,
,,,,,,,,2023-08-16_08h49.36.051,HF_wild_card,2022.2.4,Win32,60.33546519,62c47e133958edd348b6b525,64d2fd46c836a06233681665,64dc7f779f216525d4696221,,,,,,,sngl,resources/DBN.BMP,resources/Empty.png,Door1,-0.237037023,-0.035185178,1,0,0,0.9131,optionLeft,30,685,1,13,0,13,0,1,,,,,,,,,,,,,,,,,,,,,,,,,,,,,,,,,,,,,,,
,,,,,,,,2023-08-16_08h49.36.051,HF_wild_card,2022.2.4,Win32,60.33546519,62c47e133958edd348b6b525,64d2fd46c836a06233681665,64dc7f779f216525d4696221,,,,,,,ctch,resources/DBN.BMP,resources/DR.BMP,Door1,-0.27870369,-0.075925933,1,0,0,1.0806,optionLeft,30,715,1,14,0,14,0,1,,,,,,,,,,,,,,,,,,,,,,,,,,,,,,,,,,,,,,,
,,,,,,,,2023-08-16_08h49.36.051,HF_wild_card,2022.2.4,Win32,60.33546519,62c47e133958edd348b6b525,64d2fd46c836a06233681665,64dc7f779f216525d4696221,,,,,,,sngl,resources/Empty.png,resources/DR.BMP,Door4,0.237963005,-0.058333326,1,0,0,1.5301,optionRight,60,775,1,15,0,15,0,1,,,,,,,,,,,,,,,,,,,,,,,,,,,,,,,,,,,,,,,
,,,,,,,,2023-08-16_08h49.36.051,HF_wild_card,2022.2.4,Win32,60.33546519,62c47e133958edd348b6b525,64d2fd46c836a06233681665,64dc7f779f216525d4696221,,,,,,,sngl,resources/Empty.png,resources/DB.BMP,WildCard_Ex,0.351851852,0.006481489,1,0,0,1.0533,optionRight,95,870,1,16,0,16,0,1,,,,,,,,,,,,,,,,,,,,,,,,,,,,,,,,,,,,,,,
,,,,,,,,2023-08-16_08h49.36.051,HF_wild_card,2022.2.4,Win32,60.33546519,62c47e133958edd348b6b525,64d2fd46c836a06233681665,64dc7f779f216525d4696221,,,,,,,decisionTrl,resources/DG.BMP,resources/DR.BMP,Door3,-0.337037016,-0.131481524,1,0,0,0.8878,optionLeft,70,940,1,17,0,17,0,1,,,,,,,,,,,,,,,,,,,,,,,,,,,,,,,,,,,,,,,
,,,,,,,,2023-08-16_08h49.36.051,HF_wild_card,2022.2.4,Win32,60.33546519,62c47e133958edd348b6b525,64d2fd46c836a06233681665,64dc7f779f216525d4696221,,,,,,,decisionTrl,resources/DB.BMP,resources/DG.BMP,Door3,0.312037009,-0.037037037,1,0,0,1.1138,optionRight,70,1010,1,18,0,18,0,1,,,,,,,,,,,,,,,,,,,,,,,,,,,,,,,,,,,,,,,
,,,,,,,,2023-08-16_08h49.36.051,HF_wild_card,2022.2.4,Win32,60.33546519,62c47e133958edd348b6b525,64d2fd46c836a06233681665,64dc7f779f216525d4696221,,,,,,,decisionTrl,resources/DP.BMP,resources/DB.BMP,WildCard_Ex,0.213888875,-0.00462963,1,0,0,1.2629,optionRight,5,1015,1,19,0,19,0,1,,,,,,,,,,,,,,,,,,,,,,,,,,,,,,,,,,,,,,,
,,,,,,,,2023-08-16_08h49.36.051,HF_wild_card,2022.2.4,Win32,60.33546519,62c47e133958edd348b6b525,64d2fd46c836a06233681665,64dc7f779f216525d4696221,,,,,,,sngl,resources/DR.BMP,resources/Empty.png,Door4,-0.352777764,-0.075000021,1,0,0,0.7781,optionLeft,80,1095,1,20,0,20,0,1,,,,,,,,,,,,,,,,,,,,,,,,,,,,,,,,,,,,,,,
,,,,,,,,2023-08-16_08h49.36.051,HF_wild_card,2022.2.4,Win32,60.33546519,62c47e133958edd348b6b525,64d2fd46c836a06233681665,64dc7f779f216525d4696221,,,,,,,ctch,resources/DR.BMP,resources/DBN.BMP,Door4,-0.40648146,-0.117592635,1,0,0,0.7297,optionLeft,60,1155,1,21,0,21,0,1,,,,,,,,,,,,,,,,,,,,,,,,,,,,,,,,,,,,,,,
,,,,,,,,2023-08-16_08h49.36.051,HF_wild_card,2022.2.4,Win32,60.33546519,62c47e133958edd348b6b525,64d2fd46c836a06233681665,64dc7f779f216525d4696221,,,,,,,decisionTrl,resources/DP.BMP,resources/DBN.BMP,Door2,-0.339814822,-0.114814829,1,0,0,1.2637,optionLeft,20,1175,1,22,0,22,0,1,,,,,,,,,,,,,,,,,,,,,,,,,,,,,,,,,,,,,,,
,,,,,,,,2023-08-16_08h49.36.051,HF_wild_card,2022.2.4,Win32,60.33546519,62c47e133958edd348b6b525,64d2fd46c836a06233681665,64dc7f779f216525d4696221,,,,,,,sngl,resources/DB.BMP,resources/Empty.png,WildCard_Ex,-0.374074053,-0.081481474,1,0,0,0.8302,optionLeft,5,1180,1,23,0,23,0,1,,,,,,,,,,,,,,,,,,,,,,,,,,,,,,,,,,,,,,,
,,,,,,,,2023-08-16_08h49.36.051,HF_wild_card,2022.2.4,Win32,60.33546519,62c47e133958edd348b6b525,64d2fd46c836a06233681665,64dc7f779f216525d4696221,,,,,,,decisionTrl,resources/DBN.BMP,resources/DP.BMP,Door2,0.25462963,-0.014814836,1,0,0,1.6782,optionRight,40,1220,1,24,0,24,0,1,,,,,,,,,,,,,,,,,,,,,,,,,,,,,,,,,,,,,,,
,,,,,,,,2023-08-16_08h49.36.051,HF_wild_card,2022.2.4,Win32,60.33546519,62c47e133958edd348b6b525,64d2fd46c836a06233681665,64dc7f779f216525d4696221,,,,,,,decisionTrl,resources/DR.BMP,resources/DB.BMP,Door4,-0.330555563,-0.048148155,1,0,0,1.3129,optionLeft,80,1300,1,25,0,25,0,1,,,,,,,,,,,,,,,,,,,,,,,,,,,,,,,,,,,,,,,
,,,,,,,,2023-08-16_08h49.36.051,HF_wild_card,2022.2.4,Win32,60.33546519,62c47e133958edd348b6b525,64d2fd46c836a06233681665,64dc7f779f216525d4696221,,,,,,,decisionTrl,resources/DR.BMP,resources/DG.BMP,Door3,0.262037065,-0.042592614,0,0,1,1.2641,optionRight,70,1370,1,26,0,26,0,1,,,,,,,,,,,,,,,,,,,,,,,,,,,,,,,,,,,,,,,
,,,,,,,,2023-08-16_08h49.36.051,HF_wild_card,2022.2.4,Win32,60.33546519,62c47e133958edd348b6b525,64d2fd46c836a06233681665,64dc7f779f216525d4696221,,,,,,,decisionTrl,resources/DBN.BMP,resources/DP.BMP,Door2,0.301851908,0.041666667,1,0,0,1.3689,optionRight,20,1390,1,27,0,27,0,1,,,,,,,,,,,,,,,,,,,,,,,,,,,,,,,,,,,,,,,
,,,,,,,,2023-08-16_08h49.36.051,HF_wild_card,2022.2.4,Win32,60.33546519,62c47e133958edd348b6b525,64d2fd46c836a06233681665,64dc7f779f216525d4696221,,,,,,,decisionTrl,resources/DB.BMP,resources/DP.BMP,WildCard_Ex,-0.272222236,-0.059259273,1,0,0,0.879,optionLeft,95,1485,1,28,0,28,0,1,,,,,,,,,,,,,,,,,,,,,,,,,,,,,,,,,,,,,,,
,,,,,,,,2023-08-16_08h49.36.051,HF_wild_card,2022.2.4,Win32,60.33546519,62c47e133958edd348b6b525,64d2fd46c836a06233681665,64dc7f779f216525d4696221,,,,,,,decisionTrl,resources/DBN.BMP,resources/DB.BMP,Door1,-0.302777785,-0.070370392,1,0,0,0.7956,optionLeft,30,1515,1,29,0,29,0,1,,,,,,,,,,,,,,,,,,,,,,,,,,,,,,,,,,,,,,,
,,,,,,,,2023-08-16_08h49.36.051,HF_wild_card,2022.2.4,Win32,60.33546519,62c47e133958edd348b6b525,64d2fd46c836a06233681665,64dc7f779f216525d4696221,,,,,,,decisionTrl,resources/DR.BMP,resources/DG.BMP,Door4,-0.180555556,-0.058333326,1,0,0,0.8637,optionLeft,60,1575,1,30,0,30,0,1,,,,,,,,,,,,,,,,,,,,,,,,,,,,,,,,,,,,,,,
,,,,,,,,2023-08-16_08h49.36.051,HF_wild_card,2022.2.4,Win32,60.33546519,62c47e133958edd348b6b525,64d2fd46c836a06233681665,64dc7f779f216525d4696221,,,,,,,decisionTrl,resources/DG.BMP,resources/DR.BMP,Door3,-0.255555541,-0.087962963,1,0,0,0.9298,optionLeft,70,1645,1,31,0,31,0,1,,,,,,,,,,,,,,,,,,,,,,,,,,,,,,,,,,,,,,,
,,,,,,,,2023-08-16_08h49.36.051,HF_wild_card,2022.2.4,Win32,60.33546519,62c47e133958edd348b6b525,64d2fd46c836a06233681665,64dc7f779f216525d4696221,,,,,,,decisionTrl,resources/DB.BMP,resources/DBN.BMP,WildCard_Ex,-0.351851852,-0.108333376,1,0,0,0.8293,optionLeft,5,1650,1,32,0,32,0,1,,,,,,,,,,,,,,,,,,,,,,,,,,,,,,,,,,,,,,,
,,,,,,,,2023-08-16_08h49.36.051,HF_wild_card,2022.2.4,Win32,60.33546519,62c47e133958edd348b6b525,64d2fd46c836a06233681665,64dc7f779f216525d4696221,,,,,,,sngl,resources/Empty.png,resources/DB.BMP,WildCard_Ex,0.439814815,0.02870369,1,0,0,0.8448,optionRight,5,1655,1,33,0,33,0,1,,,,,,,,,,,,,,,,,,,,,,,,,,,,,,,,,,,,,,,
,,,,,,,,2023-08-16_08h49.36.051,HF_wild_card,2022.2.4,Win32,60.33546519,62c47e133958edd348b6b525,64d2fd46c836a06233681665,64dc7f779f216525d4696221,,,,,,,decisionTrl,resources/DG.BMP,resources/DR.BMP,Door3,-0.380555541,-0.114814829,1,0,0,0.7961,optionLeft,70,1725,1,34,0,34,0,1,,,,,,,,,,,,,,,,,,,,,,,,,,,,,,,,,,,,,,,
,,,,,,,,2023-08-16_08h49.36.051,HF_wild_card,2022.2.4,Win32,60.33546519,62c47e133958edd348b6b525,64d2fd46c836a06233681665,64dc7f779f216525d4696221,,,,,,,ctch,resources/DG.BMP,resources/DP.BMP,Door3,-0.40648146,-0.122222265,1,0,0,0.779,optionLeft,70,1795,1,35,0,35,0,1,,,,,,,,,,,,,,,,,,,,,,,,,,,,,,,,,,,,,,,
,,,,,,,,2023-08-16_08h49.36.051,HF_wild_card,2022.2.4,Win32,60.33546519,62c47e133958edd348b6b525,64d2fd46c836a06233681665,64dc7f779f216525d4696221,,,,,,,decisionTrl,resources/DBN.BMP,resources/DP.BMP,Door2,0.276851866,-0.077777792,1,0,0,1.6772,optionRight,40,1835,1,36,0,36,0,1,,,,,,,,,,,,,,,,,,,,,,,,,,,,,,,,,,,,,,,
,,,,,,,,2023-08-16_08h49.36.051,HF_wild_card,2022.2.4,Win32,60.33546519,62c47e133958edd348b6b525,64d2fd46c836a06233681665,64dc7f779f216525d4696221,,,,,,,decisionTrl,resources/DP.BMP,resources/DBN.BMP,Door2,-0.302777785,-0.057407414,1,0,0,0.7959,optionLeft,40,1875,1,37,0,37,0,1,,,,,,,,,,,,,,,,,,,,,,,,,,,,,,,,,,,,,,,
,,,,,,,,2023-08-16_08h49.36.051,HF_wild_card,2022.2.4,Win32,60.33546519,62c47e133958edd348b6b525,64d2fd46c836a06233681665,64dc7f779f216525d4696221,,,,,,,ctch,resources/DP.BMP,resources/DG.BMP,Door2,-0.377777771,-0.047222243,1,0,0,1.2799,optionLeft,20,1895,1,38,0,38,0,1,,,,,,,,,,,,,,,,,,,,,,,,,,,,,,,,,,,,,,,
,,,,,,,,2023-08-16_08h49.36.051,HF_wild_card,2022.2.4,Win32,60.33546519,62c47e133958edd348b6b525,64d2fd46c836a06233681665,64dc7f779f216525d4696221,,,,,,,ctch,resources/DG.BMP,resources/DP.BMP,Door3,-0.215740698,-0.059259273,1,0,0,0.8786,optionLeft,70,1965,1,39,0,39,0,1,,,,,,,,,,,,,,,,,,,,,,,,,,,,,,,,,,,,,,,
,,,,,,,,2023-08-16_08h49.36.051,HF_wild_card,2022.2.4,Win32,60.33546519,62c47e133958edd348b6b525,64d2fd46c836a06233681665,64dc7f779f216525d4696221,,,,,,,decisionTrl,resources/DBN.BMP,resources/DP.BMP,Door1,-0.273148148,-0.040740755,1,0,0,1.3957,optionLeft,30,1995,1,40,0,40,0,1,,,,,,,,,,,,,,,,,,,,,,,,,,,,,,,,,,,,,,,
,,,,,,,,2023-08-16_08h49.36.051,HF_wild_card,2022.2.4,Win32,60.33546519,62c47e133958edd348b6b525,64d2fd46c836a06233681665,64dc7f779f216525d4696221,,,,,,,decisionTrl,resources/DR.BMP,resources/DG.BMP,Door4,-0.268518519,-0.095370399,1,0,0,0.7798,optionLeft,60,2055,1,41,0,41,0,1,,,,,,,,,,,,,,,,,,,,,,,,,,,,,,,,,,,,,,,
,,,,,,,,2023-08-16_08h49.36.051,HF_wild_card,2022.2.4,Win32,60.33546519,62c47e133958edd348b6b525,64d2fd46c836a06233681665,64dc7f779f216525d4696221,,,,,,,ctch,resources/DR.BMP,resources/DBN.BMP,Door4,-0.341666645,-0.125,1,0,0,0.7974,optionLeft,60,2115,1,42,0,42,0,1,,,,,,,,,,,,,,,,,,,,,,,,,,,,,,,,,,,,,,,
,,,,,,,,2023-08-16_08h49.36.051,HF_wild_card,2022.2.4,Win32,60.33546519,62c47e133958edd348b6b525,64d2fd46c836a06233681665,64dc7f779f216525d4696221,,,,,,,decisionTrl,resources/DB.BMP,resources/DR.BMP,Door4,0.243518547,-0.020370377,1,0,0,1.297,optionRight,80,2195,1,43,0,43,0,1,,,,,,,,,,,,,,,,,,,,,,,,,,,,,,,,,,,,,,,
,,,,,,,,2023-08-16_08h49.36.051,HF_wild_card,2022.2.4,Win32,60.33546519,62c47e133958edd348b6b525,64d2fd46c836a06233681665,64dc7f779f216525d4696221,,,,,,,,,,,,,,,,,,,,,,,,,,0,0,0,0,1,,,,,,,,,,,,,,,,,,,,,,,,,,,,,,,,,,
,,,,,,,,2023-08-16_08h49.36.051,HF_wild_card,2022.2.4,Win32,60.33546519,62c47e133958edd348b6b525,64d2fd46c836a06233681665,64dc7f779f216525d4696221,,,,,,,ctch,resources/DBN.BMP,resources/DR.BMP,Door4,-0.030555513,-0.272222236,1,0,0,0.7334,optionRight,60,2255,2,0,0,0,0,1,,,,,,,,,,,,,,,,,,,,,,,,,,,,,,,,,,,,,,,
,,,,,,,,2023-08-16_08h49.36.051,HF_wild_card,2022.2.4,Win32,60.33546519,62c47e133958edd348b6b525,64d2fd46c836a06233681665,64dc7f779f216525d4696221,,,,,,,ctch,resources/DG.BMP,resources/DP.BMP,Door3,-0.280555513,-0.080555563,1,0,0,0.8285,optionLeft,70,2325,2,1,0,1,0,1,,,,,,,,,,,,,,,,,,,,,,,,,,,,,,,,,,,,,,,
,,,,,,,,2023-08-16_08h49.36.051,HF_wild_card,2022.2.4,Win32,60.33546519,62c47e133958edd348b6b525,64d2fd46c836a06233681665,64dc7f779f216525d4696221,,,,,,,decisionTrl,resources/DR.BMP,resources/DB.BMP,Door4,-0.341666645,-0.118518547,1,0,0,0.6262,optionLeft,80,2405,2,2,0,2,0,1,,,,,,,,,,,,,,,,,,,,,,,,,,,,,,,,,,,,,,,
,,,,,,,,2023-08-16_08h49.36.051,HF_wild_card,2022.2.4,Win32,60.33546519,62c47e133958edd348b6b525,64d2fd46c836a06233681665,64dc7f779f216525d4696221,,,,,,,sngl,resources/DR.BMP,resources/Empty.png,Door4,-0.350925905,-0.145370413,1,0,0,0.729,optionLeft,60,2465,2,3,0,3,0,1,,,,,,,,,,,,,,,,,,,,,,,,,,,,,,,,,,,,,,,
,,,,,,,,2023-08-16_08h49.36.051,HF_wild_card,2022.2.4,Win32,60.33546519,62c47e133958edd348b6b525,64d2fd46c836a06233681665,64dc7f779f216525d4696221,,,,,,,ctch,resources/DR.BMP,resources/DBN.BMP,Door4,-0.291666667,-0.091666681,1,0,0,0.7272,optionLeft,80,2545,2,4,0,4,0,1,,,,,,,,,,,,,,,,,,,,,,,,,,,,,,,,,,,,,,,
,,,,,,,,2023-08-16_08h49.36.051,HF_wild_card,2022.2.4,Win32,60.33546519,62c47e133958edd348b6b525,64d2fd46c836a06233681665,64dc7f779f216525d4696221,,,,,,,decisionTrl,resources/DG.BMP,resources/DR.BMP,Door3,-0.355555534,-0.151851866,1,0,0,0.8778,optionLeft,70,2615,2,5,0,5,0,1,,,,,,,,,,,,,,,,,,,,,,,,,,,,,,,,,,,,,,,
,,,,,,,,2023-08-16_08h49.36.051,HF_wild_card,2022.2.4,Win32,60.33546519,62c47e133958edd348b6b525,64d2fd46c836a06233681665,64dc7f779f216525d4696221,,,,,,,sngl,resources/Empty.png,resources/DR.BMP,Door4,0.246296282,-0.078703704,0,0,1,1.4303,optionRight,80,2695,2,6,0,6,0,1,,,,,,,,,,,,,,,,,,,,,,,,,,,,,,,,,,,,,,,
,,,,,,,,2023-08-16_08h49.36.051,HF_wild_card,2022.2.4,Win32,60.33546519,62c47e133958edd348b6b525,64d2fd46c836a06233681665,64dc7f779f216525d4696221,,,,,,,decisionTrl,resources/DR.BMP,resources/DG.BMP,Door4,-0.264814801,-0.061111132,1,0,0,0.7968,optionLeft,80,2775,2,7,0,7,0,1,,,,,,,,,,,,,,,,,,,,,,,,,,,,,,,,,,,,,,,
,,,,,,,,2023-08-16_08h49.36.051,HF_wild_card,2022.2.4,Win32,60.33546519,62c47e133958edd348b6b525,64d2fd46c836a06233681665,64dc7f779f216525d4696221,,,,,,,decisionTrl,resources/DBN.BMP,resources/DP.BMP,Door2,0.294444473,0.029629637,1,0,0,1.0634,optionRight,20,2795,2,8,0,8,0,1,,,,,,,,,,,,,,,,,,,,,,,,,,,,,,,,,,,,,,,
,,,,,,,,2023-08-16_08h49.36.051,HF_wild_card,2022.2.4,Win32,60.33546519,62c47e133958edd348b6b525,64d2fd46c836a06233681665,64dc7f779f216525d4696221,,,,,,,decisionTrl,resources/DP.BMP,resources/DBN.BMP,Door2,-0.307407414,-0.08888891,1,0,0,0.7628,optionLeft,20,2815,2,9,0,9,0,1,,,,,,,,,,,,,,,,,,,,,,,,,,,,,,,,,,,,,,,
,,,,,,,,2023-08-16_08h49.36.051,HF_wild_card,2022.2.4,Win32,60.33546519,62c47e133958edd348b6b525,64d2fd46c836a06233681665,64dc7f779f216525d4696221,,,,,,,decisionTrl,resources/DG.BMP,resources/DR.BMP,Door4,0.301851908,0.01666666,1,0,0,1.063,optionRight,80,2895,2,10,0,10,0,1,,,,,,,,,,,,,,,,,,,,,,,,,,,,,,,,,,,,,,,
,,,,,,,,2023-08-16_08h49.36.051,HF_wild_card,2022.2.4,Win32,60.33546519,62c47e133958edd348b6b525,64d2fd46c836a06233681665,64dc7f779f216525d4696221,,,,,,,decisionTrl,resources/DB.BMP,resources/DP.BMP,WildCard_Ex,-0.285185143,-0.092592593,1,0,0,1.1304,optionLeft,5,2900,2,11,0,11,0,1,,,,,,,,,,,,,,,,,,,,,,,,,,,,,,,,,,,,,,,
,,,,,,,,2023-08-16_08h49.36.051,HF_wild_card,2022.2.4,Win32,60.33546519,62c47e133958edd348b6b525,64d2fd46c836a06233681665,64dc7f779f216525d4696221,,,,,,,decisionTrl,resources/DP.BMP,resources/DBN.BMP,Door1,0.275000042,-0.000925947,1,0,0,0.6471,optionRight,30,2930,2,12,0,12,0,1,,,,,,,,,,,,,,,,,,,,,,,,,,,,,,,,,,,,,,,
,,,,,,,,2023-08-16_08h49.36.051,HF_wild_card,2022.2.4,Win32,60.33546519,62c47e133958edd348b6b525,64d2fd46c836a06233681665,64dc7f779f216525d4696221,,,,,,,ctch,resources/DR.BMP,resources/DBN.BMP,Door4,-0.213888875,-0.054629644,1,0,0,0.714,optionLeft,80,3010,2,13,0,13,0,1,,,,,,,,,,,,,,,,,,,,,,,,,,,,,,,,,,,,,,,
,,,,,,,,2023-08-16_08h49.36.051,HF_wild_card,2022.2.4,Win32,60.33546519,62c47e133958edd348b6b525,64d2fd46c836a06233681665,64dc7f779f216525d4696221,,,,,,,sngl,resources/DP.BMP,resources/Empty.png,Door2,-0.262962977,-0.098148134,1,0,0,0.9473,optionLeft,20,3030,2,14,0,14,0,1,,,,,,,,,,,,,,,,,,,,,,,,,,,,,,,,,,,,,,,
,,,,,,,,2023-08-16_08h49.36.051,HF_wild_card,2022.2.4,Win32,60.33546519,62c47e133958edd348b6b525,64d2fd46c836a06233681665,64dc7f779f216525d4696221,,,,,,,decisionTrl,resources/DB.BMP,resources/DR.BMP,Door4,0.148148148,-0.029629637,1,0,0,1.229,optionRight,80,3110,2,15,0,15,0,1,,,,,,,,,,,,,,,,,,,,,,,,,,,,,,,,,,,,,,,
,,,,,,,,2023-08-16_08h49.36.051,HF_wild_card,2022.2.4,Win32,60.33546519,62c47e133958edd348b6b525,64d2fd46c836a06233681665,64dc7f779f216525d4696221,,,,,,,decisionTrl,resources/DR.BMP,resources/DG.BMP,Door4,-0.311111097,-0.10555557,1,0,0,0.8796,optionLeft,80,3190,2,16,0,16,0,1,,,,,,,,,,,,,,,,,,,,,,,,,,,,,,,,,,,,,,,
,,,,,,,,2023-08-16_08h49.36.051,HF_wild_card,2022.2.4,Win32,60.33546519,62c47e133958edd348b6b525,64d2fd46c836a06233681665,64dc7f779f216525d4696221,,,,,,,sngl,resources/DBN.BMP,resources/Empty.png,Door1,-0.296296296,-0.100000028,1,0,0,0.8982,optionLeft,30,3220,2,17,0,17,0,1,,,,,,,,,,,,,,,,,,,,,,,,,,,,,,,,,,,,,,,
,,,,,,,,2023-08-16_08h49.36.051,HF_wild_card,2022.2.4,Win32,60.33546519,62c47e133958edd348b6b525,64d2fd46c836a06233681665,64dc7f779f216525d4696221,,,,,,,decisionTrl,resources/DB.BMP,resources/DG.BMP,Door3,0.29814812,0.01666666,1,0,0,1.53,optionRight,70,3290,2,18,0,18,0,1,,,,,,,,,,,,,,,,,,,,,,,,,,,,,,,,,,,,,,,
,,,,,,,,2023-08-16_08h49.36.051,HF_wild_card,2022.2.4,Win32,60.33546519,62c47e133958edd348b6b525,64d2fd46c836a06233681665,64dc7f779f216525d4696221,,,,,,,sngl,resources/Empty.png,resources/DP.BMP,Door2,0.252777806,-0.025925919,1,0,0,0.7629,optionRight,40,3330,2,19,0,19,0,1,,,,,,,,,,,,,,,,,,,,,,,,,,,,,,,,,,,,,,,
,,,,,,,,2023-08-16_08h49.36.051,HF_wild_card,2022.2.4,Win32,60.33546519,62c47e133958edd348b6b525,64d2fd46c836a06233681665,64dc7f779f216525d4696221,,,,,,,sngl,resources/DB.BMP,resources/Empty.png,WildCard_Ex,-0.315740727,-0.112037023,1,0,0,1.0979,optionLeft,5,3335,2,20,0,20,0,1,,,,,,,,,,,,,,,,,,,,,,,,,,,,,,,,,,,,,,,
,,,,,,,,2023-08-16_08h49.36.051,HF_wild_card,2022.2.4,Win32,60.33546519,62c47e133958edd348b6b525,64d2fd46c836a06233681665,64dc7f779f216525d4696221,,,,,,,ctch,resources/DG.BMP,resources/DP.BMP,Door2,0.32222225,0.00462963,1,0,0,1.4139,optionRight,20,3355,2,21,0,21,0,1,,,,,,,,,,,,,,,,,,,,,,,,,,,,,,,,,,,,,,,
,,,,,,,,2023-08-16_08h49.36.051,HF_wild_card,2022.2.4,Win32,60.33546519,62c47e133958edd348b6b525,64d2fd46c836a06233681665,64dc7f779f216525d4696221,,,,,,,ctch,resources/DP.BMP,resources/DG.BMP,Door3,-0.009259259,-0.012962977,1,0,0,0.4634,optionRight,70,3425,2,22,0,22,0,1,,,,,,,,,,,,,,,,,,,,,,,,,,,,,,,,,,,,,,,
,,,,,,,,2023-08-16_08h49.36.051,HF_wild_card,2022.2.4,Win32,60.33546519,62c47e133958edd348b6b525,64d2fd46c836a06233681665,64dc7f779f216525d4696221,,,,,,,sngl,resources/Empty.png,resources/DG.BMP,Door3,0.164814843,-0.023148148,1,0,0,0.7805,optionRight,70,3495,2,23,0,23,0,1,,,,,,,,,,,,,,,,,,,,,,,,,,,,,,,,,,,,,,,
,,,,,,,,2023-08-16_08h49.36.051,HF_wild_card,2022.2.4,Win32,60.33546519,62c47e133958edd348b6b525,64d2fd46c836a06233681665,64dc7f779f216525d4696221,,,,,,,decisionTrl,resources/DG.BMP,resources/DR.BMP,Door3,-0.290740755,-0.100000028,1,0,0,0.9955,optionLeft,70,3565,2,24,0,24,0,1,,,,,,,,,,,,,,,,,,,,,,,,,,,,,,,,,,,,,,,
,,,,,,,,2023-08-16_08h49.36.051,HF_wild_card,2022.2.4,Win32,60.33546519,62c47e133958edd348b6b525,64d2fd46c836a06233681665,64dc7f779f216525d4696221,,,,,,,decisionTrl,resources/DP.BMP,resources/DBN.BMP,Door2,-0.27870369,-0.121296282,1,0,0,1.3629,optionLeft,40,3605,2,25,0,25,0,1,,,,,,,,,,,,,,,,,,,,,,,,,,,,,,,,,,,,,,,
,,,,,,,,2023-08-16_08h49.36.051,HF_wild_card,2022.2.4,Win32,60.33546519,62c47e133958edd348b6b525,64d2fd46c836a06233681665,64dc7f779f216525d4696221,,,,,,,sngl,resources/Empty.png,resources/DBN.BMP,Door1,0.251851894,0.010185171,1,0,0,1.1643,optionRight,30,3635,2,26,0,26,0,1,,,,,,,,,,,,,,,,,,,,,,,,,,,,,,,,,,,,,,,
,,,,,,,,2023-08-16_08h49.36.051,HF_wild_card,2022.2.4,Win32,60.33546519,62c47e133958edd348b6b525,64d2fd46c836a06233681665,64dc7f779f216525d4696221,,,,,,,decisionTrl,resources/DBN.BMP,resources/DP.BMP,Door2,0.006481524,-0.010185206,1,0,0,0.5794,optionRight,40,3675,2,27,0,27,0,1,,,,,,,,,,,,,,,,,,,,,,,,,,,,,,,,,,,,,,,
,,,,,,,,2023-08-16_08h49.36.051,HF_wild_card,2022.2.4,Win32,60.33546519,62c47e133958edd348b6b525,64d2fd46c836a06233681665,64dc7f779f216525d4696221,,,,,,,sngl,resources/DB.BMP,resources/Empty.png,WildCard_Ex,-0.240740741,-0.069444444,1,0,0,0.903,optionLeft,95,3770,2,28,0,28,0,1,,,,,,,,,,,,,,,,,,,,,,,,,,,,,,,,,,,,,,,
,,,,,,,,2023-08-16_08h49.36.051,HF_wild_card,2022.2.4,Win32,60.33546519,62c47e133958edd348b6b525,64d2fd46c836a06233681665,64dc7f779f216525d4696221,,,,,,,decisionTrl,resources/DR.BMP,resources/DG.BMP,Door4,-0.37037037,-0.146296325,1,0,0,1.3413,optionLeft,80,3850,2,29,0,29,0,1,,,,,,,,,,,,,,,,,,,,,,,,,,,,,,,,,,,,,,,
,,,,,,,,2023-08-16_08h49.36.051,HF_wild_card,2022.2.4,Win32,60.33546519,62c47e133958edd348b6b525,64d2fd46c836a06233681665,64dc7f779f216525d4696221,,,,,,,decisionTrl,resources/DBN.BMP,resources/DP.BMP,Door1,-0.3675926,-0.100000028,1,0,0,1.3618,optionLeft,30,3880,2,30,0,30,0,1,,,,,,,,,,,,,,,,,,,,,,,,,,,,,,,,,,,,,,,
,,,,,,,,2023-08-16_08h49.36.051,HF_wild_card,2022.2.4,Win32,60.33546519,62c47e133958edd348b6b525,64d2fd46c836a06233681665,64dc7f779f216525d4696221,,,,,,,sngl,resources/Empty.png,resources/DB.BMP,WildCard_Ex,0.168518561,-0.045370384,1,0,0,0.7623,optionRight,5,3885,2,31,0,31,0,1,,,,,,,,,,,,,,,,,,,,,,,,,,,,,,,,,,,,,,,
,,,,,,,,2023-08-16_08h49.36.051,HF_wild_card,2022.2.4,Win32,60.33546519,62c47e133958edd348b6b525,64d2fd46c836a06233681665,64dc7f779f216525d4696221,,,,,,,decisionTrl,resources/DR.BMP,resources/DG.BMP,Door4,-0.311111097,-0.078703704,1,0,0,1.294,optionLeft,80,3965,2,32,0,32,0,1,,,,,,,,,,,,,,,,,,,,,,,,,,,,,,,,,,,,,,,
,,,,,,,,2023-08-16_08h49.36.051,HF_wild_card,2022.2.4,Win32,60.33546519,62c47e133958edd348b6b525,64d2fd46c836a06233681665,64dc7f779f216525d4696221,,,,,,,decisionTrl,resources/DG.BMP,resources/DR.BMP,Door4,0.162962949,-0.028703725,1,0,0,0.7276,optionRight,80,4045,2,33,0,33,0,1,,,,,,,,,,,,,,,,,,,,,,,,,,,,,,,,,,,,,,,
,,,,,,,,2023-08-16_08h49.36.051,HF_wild_card,2022.2.4,Win32,60.33546519,62c47e133958edd348b6b525,64d2fd46c836a06233681665,64dc7f779f216525d4696221,,,,,,,decisionTrl,resources/DG.BMP,resources/DB.BMP,Door3,-0.288888861,-0.081481474,1,0,0,1.3279,optionLeft,70,4115,2,34,0,34,0,1,,,,,,,,,,,,,,,,,,,,,,,,,,,,,,,,,,,,,,,
,,,,,,,,2023-08-16_08h49.36.051,HF_wild_card,2022.2.4,Win32,60.33546519,62c47e133958edd348b6b525,64d2fd46c836a06233681665,64dc7f779f216525d4696221,,,,,,,ctch,resources/DBN.BMP,resources/DR.BMP,Door1,-0.412037037,-0.114814829,1,0,0,1.395,optionLeft,30,4145,2,35,0,35,0,1,,,,,,,,,,,,,,,,,,,,,,,,,,,,,,,,,,,,,,,
,,,,,,,,2023-08-16_08h49.36.051,HF_wild_card,2022.2.4,Win32,60.33546519,62c47e133958edd348b6b525,64d2fd46c836a06233681665,64dc7f779f216525d4696221,,,,,,,decisionTrl,resources/DP.BMP,resources/DB.BMP,Door2,-0.290740755,-0.08425928,1,0,0,0.9372,optionLeft,20,4165,2,36,0,36,0,1,,,,,,,,,,,,,,,,,,,,,,,,,,,,,,,,,,,,,,,
,,,,,,,,2023-08-16_08h49.36.051,HF_wild_card,2022.2.4,Win32,60.33546519,62c47e133958edd348b6b525,64d2fd46c836a06233681665,64dc7f779f216525d4696221,,,,,,,decisionTrl,resources/DP.BMP,resources/DBN.BMP,Door2,-0.446296303,-0.126851894,1,0,0,0.9282,optionLeft,20,4185,2,37,0,37,0,1,,,,,,,,,,,,,,,,,,,,,,,,,,,,,,,,,,,,,,,
,,,,,,,,2023-08-16_08h49.36.051,HF_wild_card,2022.2.4,Win32,60.33546519,62c47e133958edd348b6b525,64d2fd46c836a06233681665,64dc7f779f216525d4696221,,,,,,,ctch,resources/DP.BMP,resources/DG.BMP,Door3,0.308333362,0.020370377,1,0,0,1.1623,optionRight,70,4255,2,38,0,38,0,1,,,,,,,,,,,,,,,,,,,,,,,,,,,,,,,,,,,,,,,
,,,,,,,,2023-08-16_08h49.36.051,HF_wild_card,2022.2.4,Win32,60.33546519,62c47e133958edd348b6b525,64d2fd46c836a06233681665,64dc7f779f216525d4696221,,,,,,,decisionTrl,resources/DBN.BMP,resources/DB.BMP,Door1,-0.288888861,-0.108333376,1,0,0,1.078,optionLeft,30,4285,2,39,0,39,0,1,,,,,,,,,,,,,,,,,,,,,,,,,,,,,,,,,,,,,,,
,,,,,,,,2023-08-16_08h49.36.051,HF_wild_card,2022.2.4,Win32,60.33546519,62c47e133958edd348b6b525,64d2fd46c836a06233681665,64dc7f779f216525d4696221,,,,,,,sngl,resources/DG.BMP,resources/Empty.png,Door3,-0.37962963,-0.061111132,1,0,0,0.8616,optionLeft,70,4355,2,40,0,40,0,1,,,,,,,,,,,,,,,,,,,,,,,,,,,,,,,,,,,,,,,
,,,,,,,,2023-08-16_08h49.36.051,HF_wild_card,2022.2.4,Win32,60.33546519,62c47e133958edd348b6b525,64d2fd46c836a06233681665,64dc7f779f216525d4696221,,,,,,,decisionTrl,resources/DBN.BMP,resources/DP.BMP,Door2,0.236111111,0.015740748,1,0,0,1.6117,optionRight,40,4395,2,41,0,41,0,1,,,,,,,,,,,,,,,,,,,,,,,,,,,,,,,,,,,,,,,
,,,,,,,,2023-08-16_08h49.36.051,HF_wild_card,2022.2.4,Win32,60.33546519,62c47e133958edd348b6b525,64d2fd46c836a06233681665,64dc7f779f216525d4696221,,,,,,,decisionTrl,resources/DB.BMP,resources/DBN.BMP,WildCard_Ex,-0.316666674,-0.12962963,1,0,0,0.8108,optionLeft,95,4490,2,42,0,42,0,1,,,,,,,,,,,,,,,,,,,,,,,,,,,,,,,,,,,,,,,
,,,,,,,,2023-08-16_08h49.36.051,HF_wild_card,2022.2.4,Win32,60.33546519,62c47e133958edd348b6b525,64d2fd46c836a06233681665,64dc7f779f216525d4696221,,,,,,,sngl,resources/Empty.png,resources/DB.BMP,WildCard_Ex,0.226851852,-0.01203703,1,0,0,0.7116,optionRight,95,4585,2,43,0,43,0,1,,,,,,,,,,,,,,,,,,,,,,,,,,,,,,,,,,,,,,,
,,,,,,,,2023-08-16_08h49.36.051,HF_wild_card,2022.2.4,Win32,60.33546519,62c47e133958edd348b6b525,64d2fd46c836a06233681665,64dc7f779f216525d4696221,,,,,,,,,,,,,,,,,,,,,,,,,,1,0,1,0,1,,,,,,,,,,,,,,,,,,,,,,,,,,,,,,,,,,
,,,,,,,,2023-08-16_08h49.36.051,HF_wild_card,2022.2.4,Win32,60.33546519,62c47e133958edd348b6b525,64d2fd46c836a06233681665,64dc7f779f216525d4696221,,,,,,,decisionTrl,resources/DB.BMP,resources/DBN.BMP,WildCard_Ex,-0.25462963,-0.12962963,1,0,0,1.3226,optionLeft,95,4680,3,0,0,0,0,1,,,,,,,,,,,,,,,,,,,,,,,,,,,,,,,,,,,,,,,
,,,,,,,,2023-08-16_08h49.36.051,HF_wild_card,2022.2.4,Win32,60.33546519,62c47e133958edd348b6b525,64d2fd46c836a06233681665,64dc7f779f216525d4696221,,,,,,,ctch,resources/DP.BMP,resources/DG.BMP,Door2,-0.249074088,-0.087962963,1,0,0,1.0961,optionLeft,20,4700,3,1,0,1,0,1,,,,,,,,,,,,,,,,,,,,,,,,,,,,,,,,,,,,,,,
,,,,,,,,2023-08-16_08h49.36.051,HF_wild_card,2022.2.4,Win32,60.33546519,62c47e133958edd348b6b525,64d2fd46c836a06233681665,64dc7f779f216525d4696221,,,,,,,sngl,resources/DP.BMP,resources/Empty.png,Door2,-0.333333333,-0.087037051,1,0,0,0.7929,optionLeft,40,4740,3,2,0,2,0,1,,,,,,,,,,,,,,,,,,,,,,,,,,,,,,,,,,,,,,,
,,,,,,,,2023-08-16_08h49.36.051,HF_wild_card,2022.2.4,Win32,60.33546519,62c47e133958edd348b6b525,64d2fd46c836a06233681665,64dc7f779f216525d4696221,,,,,,,decisionTrl,resources/DP.BMP,resources/DB.BMP,WildCard_Ex,0.232407393,0.048148155,1,0,0,0.8298,optionRight,5,4745,3,3,0,3,0,1,,,,,,,,,,,,,,,,,,,,,,,,,,,,,,,,,,,,,,,
,,,,,,,,2023-08-16_08h49.36.051,HF_wild_card,2022.2.4,Win32,60.33546519,62c47e133958edd348b6b525,64d2fd46c836a06233681665,64dc7f779f216525d4696221,,,,,,,decisionTrl,resources/DG.BMP,resources/DR.BMP,Door3,-0.298148155,-0.087962963,1,0,0,0.8291,optionLeft,70,4815,3,4,0,4,0,1,,,,,,,,,,,,,,,,,,,,,,,,,,,,,,,,,,,,,,,
,,,,,,,,2023-08-16_08h49.36.051,HF_wild_card,2022.2.4,Win32,60.33546519,62c47e133958edd348b6b525,64d2fd46c836a06233681665,64dc7f779f216525d4696221,,,,,,,sngl,resources/Empty.png,resources/DR.BMP,Door4,0.173148191,-0.037962984,1,0,0,0.7974,optionRight,60,4875,3,5,0,5,0,1,,,,,,,,,,,,,,,,,,,,,,,,,,,,,,,,,,,,,,,
,,,,,,,,2023-08-16_08h49.36.051,HF_wild_card,2022.2.4,Win32,60.33546519,62c47e133958edd348b6b525,64d2fd46c836a06233681665,64dc7f779f216525d4696221,,,,,,,decisionTrl,resources/DBN.BMP,resources/DP.BMP,Door2,0.083333333,-0.023148148,1,0,0,1.1789,optionRight,40,4915,3,6,0,6,0,1,,,,,,,,,,,,,,,,,,,,,,,,,,,,,,,,,,,,,,,
,,,,,,,,2023-08-16_08h49.36.051,HF_wild_card,2022.2.4,Win32,60.33546519,62c47e133958edd348b6b525,64d2fd46c836a06233681665,64dc7f779f216525d4696221,,,,,,,sngl,resources/DB.BMP,resources/Empty.png,WildCard_Ex,-0.306481467,-0.095370399,1,0,0,0.6964,optionLeft,95,5010,3,7,0,7,0,1,,,,,,,,,,,,,,,,,,,,,,,,,,,,,,,,,,,,,,,
,,,,,,,,2023-08-16_08h49.36.051,HF_wild_card,2022.2.4,Win32,60.33546519,62c47e133958edd348b6b525,64d2fd46c836a06233681665,64dc7f779f216525d4696221,,,,,,,ctch,resources/DG.BMP,resources/DP.BMP,Door2,0.27870369,0.006481489,1,0,0,1.5802,optionRight,40,5050,3,8,0,8,0,1,,,,,,,,,,,,,,,,,,,,,,,,,,,,,,,,,,,,,,,
,,,,,,,,2023-08-16_08h49.36.051,HF_wild_card,2022.2.4,Win32,60.33546519,62c47e133958edd348b6b525,64d2fd46c836a06233681665,64dc7f779f216525d4696221,,,,,,,ctch,resources/DBN.BMP,resources/DR.BMP,Door4,0.235185199,-0.041666667,0,0,1,1.3471,optionRight,60,5110,3,9,0,9,0,1,,,,,,,,,,,,,,,,,,,,,,,,,,,,,,,,,,,,,,,
,,,,,,,,2023-08-16_08h49.36.051,HF_wild_card,2022.2.4,Win32,60.33546519,62c47e133958edd348b6b525,64d2fd46c836a06233681665,64dc7f779f216525d4696221,,,,,,,decisionTrl,resources/DP.BMP,resources/DBN.BMP,Door2,-0.224074046,-0.061111132,1,0,0,0.882,optionLeft,20,5130,3,10,0,10,0,1,,,,,,,,,,,,,,,,,,,,,,,,,,,,,,,,,,,,,,,
,,,,,,,,2023-08-16_08h49.36.051,HF_wild_card,2022.2.4,Win32,60.33546519,62c47e133958edd348b6b525,64d2fd46c836a06233681665,64dc7f779f216525d4696221,,,,,,,decisionTrl,resources/DG.BMP,resources/DB.BMP,WildCard_Ex,0.225000028,0.017592571,1,0,0,0.7293,optionRight,5,5135,3,11,0,11,0,1,,,,,,,,,,,,,,,,,,,,,,,,,,,,,,,,,,,,,,,
,,,,,,,,2023-08-16_08h49.36.051,HF_wild_card,2022.2.4,Win32,60.33546519,62c47e133958edd348b6b525,64d2fd46c836a06233681665,64dc7f779f216525d4696221,,,,,,,decisionTrl,resources/DR.BMP,resources/DG.BMP,Door4,-0.216666681,-0.071296303,1,0,0,0.8132,optionLeft,80,5215,3,12,0,12,0,1,,,,,,,,,,,,,,,,,,,,,,,,,,,,,,,,,,,,,,,
,,,,,,,,2023-08-16_08h49.36.051,HF_wild_card,2022.2.4,Win32,60.33546519,62c47e133958edd348b6b525,64d2fd46c836a06233681665,64dc7f779f216525d4696221,,,,,,,decisionTrl,resources/DG.BMP,resources/DR.BMP,Door4,0.207407422,-0.044444437,0,0,1,1.0799,optionRight,80,5295,3,13,0,13,0,1,,,,,,,,,,,,,,,,,,,,,,,,,,,,,,,,,,,,,,,
,,,,,,,,2023-08-16_08h49.36.051,HF_wild_card,2022.2.4,Win32,60.33546519,62c47e133958edd348b6b525,64d2fd46c836a06233681665,64dc7f779f216525d4696221,,,,,,,ctch,resources/DG.BMP,resources/DP.BMP,Door3,-0.258333347,-0.082407422,1,0,0,1.1326,optionLeft,70,5365,3,14,0,14,0,1,,,,,,,,,,,,,,,,,,,,,,,,,,,,,,,,,,,,,,,
,,,,,,,,2023-08-16_08h49.36.051,HF_wild_card,2022.2.4,Win32,60.33546519,62c47e133958edd348b6b525,64d2fd46c836a06233681665,64dc7f779f216525d4696221,,,,,,,sngl,resources/DBN.BMP,resources/Empty.png,Door1,-0.234259217,-0.057407414,1,0,0,0.9455,optionLeft,30,5395,3,15,0,15,0,1,,,,,,,,,,,,,,,,,,,,,,,,,,,,,,,,,,,,,,,
,,,,,,,,2023-08-16_08h49.36.051,HF_wild_card,2022.2.4,Win32,60.33546519,62c47e133958edd348b6b525,64d2fd46c836a06233681665,64dc7f779f216525d4696221,,,,,,,decisionTrl,resources/DP.BMP,resources/DBN.BMP,Door2,-0.188888903,-0.012962977,1,0,0,1.0458,optionLeft,20,5415,3,16,0,16,0,1,,,,,,,,,,,,,,,,,,,,,,,,,,,,,,,,,,,,,,,
,,,,,,,,2023-08-16_08h49.36.051,HF_wild_card,2022.2.4,Win32,60.33546519,62c47e133958edd348b6b525,64d2fd46c836a06233681665,64dc7f779f216525d4696221,,,,,,,decisionTrl,resources/DR.BMP,resources/DG.BMP,Door3,0.240740741,-0.018518519,1,0,0,1.0138,optionRight,70,5485,3,17,0,17,0,1,,,,,,,,,,,,,,,,,,,,,,,,,,,,,,,,,,,,,,,
,,,,,,,,2023-08-16_08h49.36.051,HF_wild_card,2022.2.4,Win32,60.33546519,62c47e133958edd348b6b525,64d2fd46c836a06233681665,64dc7f779f216525d4696221,,,,,,,sngl,resources/DG.BMP,resources/Empty.png,Door3,-0.303703697,-0.101851852,1,0,0,0.7637,optionLeft,70,5555,3,18,0,18,0,1,,,,,,,,,,,,,,,,,,,,,,,,,,,,,,,,,,,,,,,
,,,,,,,,2023-08-16_08h49.36.051,HF_wild_card,2022.2.4,Win32,60.33546519,62c47e133958edd348b6b525,64d2fd46c836a06233681665,64dc7f779f216525d4696221,,,,,,,decisionTrl,resources/DR.BMP,resources/DB.BMP,WildCard_Ex,0.211111139,0.01944443,1,0,0,1.3643,optionRight,5,5560,3,19,0,19,0,1,,,,,,,,,,,,,,,,,,,,,,,,,,,,,,,,,,,,,,,
,,,,,,,,2023-08-16_08h49.36.051,HF_wild_card,2022.2.4,Win32,60.33546519,62c47e133958edd348b6b525,64d2fd46c836a06233681665,64dc7f779f216525d4696221,,,,,,,decisionTrl,resources/DG.BMP,resources/DR.BMP,Door3,-0.332407386,-0.08425928,1,0,0,0.7637,optionLeft,70,5630,3,20,0,20,0,1,,,,,,,,,,,,,,,,,,,,,,,,,,,,,,,,,,,,,,,
,,,,,,,,2023-08-16_08h49.36.051,HF_wild_card,2022.2.4,Win32,60.33546519,62c47e133958edd348b6b525,64d2fd46c836a06233681665,64dc7f779f216525d4696221,,,,,,,decisionTrl,resources/DR.BMP,resources/DG.BMP,Door3,0.184259273,-0.001851859,1,0,0,0.9976,optionRight,70,5700,3,21,0,21,0,1,,,,,,,,,,,,,,,,,,,,,,,,,,,,,,,,,,,,,,,
,,,,,,,,2023-08-16_08h49.36.051,HF_wild_card,2022.2.4,Win32,60.33546519,62c47e133958edd348b6b525,64d2fd46c836a06233681665,64dc7f779f216525d4696221,,,,,,,ctch,resources/DBN.BMP,resources/DR.BMP,Door4,0.238888917,-0.046296296,1,0,0,1.2146,optionRight,80,5780,3,22,0,22,0,1,,,,,,,,,,,,,,,,,,,,,,,,,,,,,,,,,,,,,,,
,,,,,,,,2023-08-16_08h49.36.051,HF_wild_card,2022.2.4,Win32,60.33546519,62c47e133958edd348b6b525,64d2fd46c836a06233681665,64dc7f779f216525d4696221,,,,,,,ctch,resources/DR.BMP,resources/DBN.BMP,Door4,-0.242592564,-0.060185185,1,0,0,0.6972,optionLeft,60,5840,3,23,0,23,0,1,,,,,,,,,,,,,,,,,,,,,,,,,,,,,,,,,,,,,,,
,,,,,,,,2023-08-16_08h49.36.051,HF_wild_card,2022.2.4,Win32,60.33546519,62c47e133958edd348b6b525,64d2fd46c836a06233681665,64dc7f779f216525d4696221,,,,,,,decisionTrl,resources/DR.BMP,resources/DG.BMP,Door4,-0.299074067,-0.079629651,1,0,0,0.647,optionLeft,60,5900,3,24,0,24,0,1,,,,,,,,,,,,,,,,,,,,,,,,,,,,,,,,,,,,,,,
,,,,,,,,2023-08-16_08h49.36.051,HF_wild_card,2022.2.4,Win32,60.33546519,62c47e133958edd348b6b525,64d2fd46c836a06233681665,64dc7f779f216525d4696221,,,,,,,decisionTrl,resources/DP.BMP,resources/DBN.BMP,Door2,-0.324074074,-0.100000028,1,0,0,0.7303,optionLeft,40,5940,3,25,0,25,0,1,,,,,,,,,,,,,,,,,,,,,,,,,,,,,,,,,,,,,,,
,,,,,,,,2023-08-16_08h49.36.051,HF_wild_card,2022.2.4,Win32,60.33546519,62c47e133958edd348b6b525,64d2fd46c836a06233681665,64dc7f779f216525d4696221,,,,,,,ctch,resources/DP.BMP,resources/DG.BMP,Door3,0.200925968,-0.001851859,1,0,0,1.4976,optionRight,70,6010,3,26,0,26,0,1,,,,,,,,,,,,,,,,,,,,,,,,,,,,,,,,,,,,,,,
,,,,,,,,2023-08-16_08h49.36.051,HF_wild_card,2022.2.4,Win32,60.33546519,62c47e133958edd348b6b525,64d2fd46c836a06233681665,64dc7f779f216525d4696221,,,,,,,decisionTrl,resources/DB.BMP,resources/DR.BMP,Door4,0.223148134,-0.01203703,1,0,0,0.9135,optionRight,60,6070,3,27,0,27,0,1,,,,,,,,,,,,,,,,,,,,,,,,,,,,,,,,,,,,,,,
,,,,,,,,2023-08-16_08h49.36.051,HF_wild_card,2022.2.4,Win32,60.33546519,62c47e133958edd348b6b525,64d2fd46c836a06233681665,64dc7f779f216525d4696221,,,,,,,sngl,resources/Empty.png,resources/DBN.BMP,Door1,0.307407379,-0.00462963,1,0,0,0.7464,optionRight,30,6100,3,28,0,28,0,1,,,,,,,,,,,,,,,,,,,,,,,,,,,,,,,,,,,,,,,
,,,,,,,,2023-08-16_08h49.36.051,HF_wild_card,2022.2.4,Win32,60.33546519,62c47e133958edd348b6b525,64d2fd46c836a06233681665,64dc7f779f216525d4696221,,,,,,,decisionTrl,resources/DB.BMP,resources/DP.BMP,Door2,0.255555541,0.027777778,1,0,0,0.9989,optionRight,40,6140,3,29,0,29,0,1,,,,,,,,,,,,,,,,,,,,,,,,,,,,,,,,,,,,,,,
,,,,,,,,2023-08-16_08h49.36.051,HF_wild_card,2022.2.4,Win32,60.33546519,62c47e133958edd348b6b525,64d2fd46c836a06233681665,64dc7f779f216525d4696221,,,,,,,sngl,resources/DR.BMP,resources/Empty.png,Door4,-0.340740734,-0.091666681,1,0,0,0.7309,optionLeft,80,6220,3,30,0,30,0,1,,,,,,,,,,,,,,,,,,,,,,,,,,,,,,,,,,,,,,,
,,,,,,,,2023-08-16_08h49.36.051,HF_wild_card,2022.2.4,Win32,60.33546519,62c47e133958edd348b6b525,64d2fd46c836a06233681665,64dc7f779f216525d4696221,,,,,,,decisionTrl,resources/DP.BMP,resources/DBN.BMP,Door2,-0.354629623,-0.128703718,1,0,0,0.7959,optionLeft,40,6260,3,31,0,31,0,1,,,,,,,,,,,,,,,,,,,,,,,,,,,,,,,,,,,,,,,
,,,,,,,,2023-08-16_08h49.36.051,HF_wild_card,2022.2.4,Win32,60.33546519,62c47e133958edd348b6b525,64d2fd46c836a06233681665,64dc7f779f216525d4696221,,,,,,,decisionTrl,resources/DBN.BMP,resources/DP.BMP,Door2,0.286111125,0.058333326,1,0,0,1.763,optionRight,40,6300,3,32,0,32,0,1,,,,,,,,,,,,,,,,,,,,,,,,,,,,,,,,,,,,,,,
,,,,,,,,2023-08-16_08h49.36.051,HF_wild_card,2022.2.4,Win32,60.33546519,62c47e133958edd348b6b525,64d2fd46c836a06233681665,64dc7f779f216525d4696221,,,,,,,ctch,resources/DR.BMP,resources/DBN.BMP,Door4,-0.474074081,-0.047222243,1,0,0,0.8984,optionLeft,60,6360,3,33,0,33,0,1,,,,,,,,,,,,,,,,,,,,,,,,,,,,,,,,,,,,,,,
,,,,,,,,2023-08-16_08h49.36.051,HF_wild_card,2022.2.4,Win32,60.33546519,62c47e133958edd348b6b525,64d2fd46c836a06233681665,64dc7f779f216525d4696221,,,,,,,sngl,resources/DB.BMP,resources/Empty.png,WildCard_Ex,-0.316666674,-0.049074067,1,0,0,0.6465,optionLeft,5,6365,3,34,0,34,0,1,,,,,,,,,,,,,,,,,,,,,,,,,,,,,,,,,,,,,,,
,,,,,,,,2023-08-16_08h49.36.051,HF_wild_card,2022.2.4,Win32,60.33546519,62c47e133958edd348b6b525,64d2fd46c836a06233681665,64dc7f779f216525d4696221,,,,,,,decisionTrl,resources/DG.BMP,resources/DR.BMP,Door4,0.303703732,0.03148146,1,0,0,1.0969,optionRight,60,6425,3,35,0,35,0,1,,,,,,,,,,,,,,,,,,,,,,,,,,,,,,,,,,,,,,,
,,,,,,,,2023-08-16_08h49.36.051,HF_wild_card,2022.2.4,Win32,60.33546519,62c47e133958edd348b6b525,64d2fd46c836a06233681665,64dc7f779f216525d4696221,,,,,,,sngl,resources/Empty.png,resources/DP.BMP,Door2,0.229629658,0.012962942,1,0,0,1.0544,optionRight,20,6445,3,36,0,36,0,1,,,,,,,,,,,,,,,,,,,,,,,,,,,,,,,,,,,,,,,
,,,,,,,,2023-08-16_08h49.36.051,HF_wild_card,2022.2.4,Win32,60.33546519,62c47e133958edd348b6b525,64d2fd46c836a06233681665,64dc7f779f216525d4696221,,,,,,,sngl,resources/Empty.png,resources/DB.BMP,WildCard_Ex,0.367592564,0.032407407,1,0,0,1.014,optionRight,5,6450,3,37,0,37,0,1,,,,,,,,,,,,,,,,,,,,,,,,,,,,,,,,,,,,,,,
,,,,,,,,2023-08-16_08h49.36.051,HF_wild_card,2022.2.4,Win32,60.33546519,62c47e133958edd348b6b525,64d2fd46c836a06233681665,64dc7f779f216525d4696221,,,,,,,decisionTrl,resources/DBN.BMP,resources/DP.BMP,Door2,0.294444473,0.111111111,1,0,0,1.5159,optionRight,40,6490,3,38,0,38,0,1,,,,,,,,,,,,,,,,,,,,,,,,,,,,,,,,,,,,,,,
,,,,,,,,2023-08-16_08h49.36.051,HF_wild_card,2022.2.4,Win32,60.33546519,62c47e133958edd348b6b525,64d2fd46c836a06233681665,64dc7f779f216525d4696221,,,,,,,decisionTrl,resources/DB.BMP,resources/DG.BMP,Door3,0.207407422,0.001851859,1,0,0,1.4631,optionRight,70,6560,3,39,0,39,0,1,,,,,,,,,,,,,,,,,,,,,,,,,,,,,,,,,,,,,,,
,,,,,,,,2023-08-16_08h49.36.051,HF_wild_card,2022.2.4,Win32,60.33546519,62c47e133958edd348b6b525,64d2fd46c836a06233681665,64dc7f779f216525d4696221,,,,,,,decisionTrl,resources/DBN.BMP,resources/DB.BMP,WildCard_Ex,0.180555556,-0.062962956,1,0,0,1.3639,optionRight,5,6565,3,40,0,40,0,1,,,,,,,,,,,,,,,,,,,,,,,,,,,,,,,,,,,,,,,
,,,,,,,,2023-08-16_08h49.36.051,HF_wild_card,2022.2.4,Win32,60.33546519,62c47e133958edd348b6b525,64d2fd46c836a06233681665,64dc7f779f216525d4696221,,,,,,,decisionTrl,resources/DBN.BMP,resources/DP.BMP,Door2,0.242592635,0.032407407,1,0,0,1.1819,optionRight,40,6605,3,41,0,41,0,1,,,,,,,,,,,,,,,,,,,,,,,,,,,,,,,,,,,,,,,
,,,,,,,,2023-08-16_08h49.36.051,HF_wild_card,2022.2.4,Win32,60.33546519,62c47e133958edd348b6b525,64d2fd46c836a06233681665,64dc7f779f216525d4696221,,,,,,,sngl,resources/Empty.png,resources/DG.BMP,Door3,0.228703746,-0.01666666,1,0,0,1.1297,optionRight,70,6675,3,42,0,42,0,1,,,,,,,,,,,,,,,,,,,,,,,,,,,,,,,,,,,,,,,
,,,,,,,,2023-08-16_08h49.36.051,HF_wild_card,2022.2.4,Win32,60.33546519,62c47e133958edd348b6b525,64d2fd46c836a06233681665,64dc7f779f216525d4696221,,,,,,,sngl,resources/Empty.png,resources/DB.BMP,WildCard_Ex,0.215740769,-0.020370377,0,0,1,1.6832,optionRight,95,6770,3,43,0,43,0,1,,,,,,,,,,,,,,,,,,,,,,,,,,,,,,,,,,,,,,,
,,,,,,,,2023-08-16_08h49.36.051,HF_wild_card,2022.2.4,Win32,60.33546519,62c47e133958edd348b6b525,64d2fd46c836a06233681665,64dc7f779f216525d4696221,,,,,,,,,,,,,,,,,,,,,,,,,,2,0,2,0,1,,,,,,,,,,,,,,,,,,,,,,,,,,,,,,,,,,
,,,,,,,,2023-08-16_08h49.36.051,HF_wild_card,2022.2.4,Win32,60.33546519,62c47e133958edd348b6b525,64d2fd46c836a06233681665,64dc7f779f216525d4696221,,,,,,,sngl,resources/Empty.png,resources/DY.BMP,WildCard_NonEx,0.243518547,-0.172222208,1,0,0,1.4006,optionRight,45,6815,4,0,0,0,0,1,,,,,,,,,,,,,,,,,,,,,,,,,,,,,,,,,,,,,,,
,,,,,,,,2023-08-16_08h49.36.051,HF_wild_card,2022.2.4,Win32,60.33546519,62c47e133958edd348b6b525,64d2fd46c836a06233681665,64dc7f779f216525d4696221,,,,,,,sngl,resources/DBN.BMP,resources/Empty.png,Door1,-0.284259231,0.000925912,1,0,0,0.9199,optionLeft,30,6845,4,1,0,1,0,1,,,,,,,,,,,,,,,,,,,,,,,,,,,,,,,,,,,,,,,
,,,,,,,,2023-08-16_08h49.36.051,HF_wild_card,2022.2.4,Win32,60.33546519,62c47e133958edd348b6b525,64d2fd46c836a06233681665,64dc7f779f216525d4696221,,,,,,,sngl,resources/Empty.png,resources/DR.BMP,Door4,0.244444459,-0.032407407,1,0,0,0.6804,optionRight,80,6925,4,2,0,2,0,1,,,,,,,,,,,,,,,,,,,,,,,,,,,,,,,,,,,,,,,
,,,,,,,,2023-08-16_08h49.36.051,HF_wild_card,2022.2.4,Win32,60.33546519,62c47e133958edd348b6b525,64d2fd46c836a06233681665,64dc7f779f216525d4696221,,,,,,,sngl,resources/DY.BMP,resources/Empty.png,WildCard_NonEx,-0.295370384,-0.097222222,1,0,0,0.7166,optionLeft,55,6980,4,3,0,3,0,1,,,,,,,,,,,,,,,,,,,,,,,,,,,,,,,,,,,,,,,
,,,,,,,,2023-08-16_08h49.36.051,HF_wild_card,2022.2.4,Win32,60.33546519,62c47e133958edd348b6b525,64d2fd46c836a06233681665,64dc7f779f216525d4696221,,,,,,,decisionTrl,resources/DP.BMP,resources/DBN.BMP,Door2,-0.3675926,-0.125,1,0,0,1.0636,optionLeft,40,7020,4,4,0,4,0,1,,,,,,,,,,,,,,,,,,,,,,,,,,,,,,,,,,,,,,,
,,,,,,,,2023-08-16_08h49.36.051,HF_wild_card,2022.2.4,Win32,60.33546519,62c47e133958edd348b6b525,64d2fd46c836a06233681665,64dc7f779f216525d4696221,,,,,,,ctch,resources/DBN.BMP,resources/DR.BMP,Door4,0.174074102,-0.001851859,1,0,0,0.642,optionRight,80,7100,4,5,0,5,0,1,,,,,,,,,,,,,,,,,,,,,,,,,,,,,,,,,,,,,,,
,,,,,,,,2023-08-16_08h49.36.051,HF_wild_card,2022.2.4,Win32,60.33546519,62c47e133958edd348b6b525,64d2fd46c836a06233681665,64dc7f779f216525d4696221,,,,,,,decisionTrl,resources/DG.BMP,resources/DY.BMP,WildCard_NonEx,0.25,-0.01666666,1,0,0,0.9482,optionRight,55,7155,4,6,0,6,0,1,,,,,,,,,,,,,,,,,,,,,,,,,,,,,,,,,,,,,,,
,,,,,,,,2023-08-16_08h49.36.051,HF_wild_card,2022.2.4,Win32,60.33546519,62c47e133958edd348b6b525,64d2fd46c836a06233681665,64dc7f779f216525d4696221,,,,,,,decisionTrl,resources/DG.BMP,resources/DR.BMP,Door4,0.252777806,0.027777778,1,0,0,0.7645,optionRight,60,7215,4,7,0,7,0,1,,,,,,,,,,,,,,,,,,,,,,,,,,,,,,,,,,,,,,,
,,,,,,,,2023-08-16_08h49.36.051,HF_wild_card,2022.2.4,Win32,60.33546519,62c47e133958edd348b6b525,64d2fd46c836a06233681665,64dc7f779f216525d4696221,,,,,,,ctch,resources/DR.BMP,resources/DBN.BMP,Door4,-0.26944443,-0.093518504,1,0,0,0.7325,optionLeft,60,7275,4,8,0,8,0,1,,,,,,,,,,,,,,,,,,,,,,,,,,,,,,,,,,,,,,,
,,,,,,,,2023-08-16_08h49.36.051,HF_wild_card,2022.2.4,Win32,60.33546519,62c47e133958edd348b6b525,64d2fd46c836a06233681665,64dc7f779f216525d4696221,,,,,,,ctch,resources/DR.BMP,resources/DBN.BMP,Door4,-0.270370342,-0.047222243,1,0,0,0.7167,optionLeft,80,7355,4,9,0,9,0,1,,,,,,,,,,,,,,,,,,,,,,,,,,,,,,,,,,,,,,,
,,,,,,,,2023-08-16_08h49.36.051,HF_wild_card,2022.2.4,Win32,60.33546519,62c47e133958edd348b6b525,64d2fd46c836a06233681665,64dc7f779f216525d4696221,,,,,,,decisionTrl,resources/DBN.BMP,resources/DY.BMP,WildCard_NonEx,0,-0.0074074,1,0,0,0.4807,optionRight,55,7410,4,10,0,10,0,1,,,,,,,,,,,,,,,,,,,,,,,,,,,,,,,,,,,,,,,
,,,,,,,,2023-08-16_08h49.36.051,HF_wild_card,2022.2.4,Win32,60.33546519,62c47e133958edd348b6b525,64d2fd46c836a06233681665,64dc7f779f216525d4696221,,,,,,,sngl,resources/DY.BMP,resources/Empty.png,WildCard_NonEx,-0.27870369,-0.048148155,1,0,0,0.7457,optionLeft,45,7455,4,11,0,11,0,1,,,,,,,,,,,,,,,,,,,,,,,,,,,,,,,,,,,,,,,
,,,,,,,,2023-08-16_08h49.36.051,HF_wild_card,2022.2.4,Win32,60.33546519,62c47e133958edd348b6b525,64d2fd46c836a06233681665,64dc7f779f216525d4696221,,,,,,,decisionTrl,resources/DBN.BMP,resources/DP.BMP,Door2,0.277777778,0.052777785,1,0,0,0.8465,optionRight,40,7495,4,12,0,12,0,1,,,,,,,,,,,,,,,,,,,,,,,,,,,,,,,,,,,,,,,
,,,,,,,,2023-08-16_08h49.36.051,HF_wild_card,2022.2.4,Win32,60.33546519,62c47e133958edd348b6b525,64d2fd46c836a06233681665,64dc7f779f216525d4696221,,,,,,,decisionTrl,resources/DR.BMP,resources/DG.BMP,Door4,-0.273148148,-0.061111132,1,0,0,0.78,optionLeft,60,7555,4,13,0,13,0,1,,,,,,,,,,,,,,,,,,,,,,,,,,,,,,,,,,,,,,,
,,,,,,,,2023-08-16_08h49.36.051,HF_wild_card,2022.2.4,Win32,60.33546519,62c47e133958edd348b6b525,64d2fd46c836a06233681665,64dc7f779f216525d4696221,,,,,,,sngl,resources/Empty.png,resources/DG.BMP,Door3,0.227777764,-0.011111118,1,0,0,0.9296,optionRight,70,7625,4,14,0,14,0,1,,,,,,,,,,,,,,,,,,,,,,,,,,,,,,,,,,,,,,,
,,,,,,,,2023-08-16_08h49.36.051,HF_wild_card,2022.2.4,Win32,60.33546519,62c47e133958edd348b6b525,64d2fd46c836a06233681665,64dc7f779f216525d4696221,,,,,,,decisionTrl,resources/DR.BMP,resources/DG.BMP,Door4,-0.308333326,-0.097222222,1,0,0,0.7633,optionLeft,60,7685,4,15,0,15,0,1,,,,,,,,,,,,,,,,,,,,,,,,,,,,,,,,,,,,,,,
,,,,,,,,2023-08-16_08h49.36.051,HF_wild_card,2022.2.4,Win32,60.33546519,62c47e133958edd348b6b525,64d2fd46c836a06233681665,64dc7f779f216525d4696221,,,,,,,decisionTrl,resources/DP.BMP,resources/DBN.BMP,Door2,-0.393518519,-0.099074116,1,0,0,0.8624,optionLeft,20,7705,4,16,0,16,0,1,,,,,,,,,,,,,,,,,,,,,,,,,,,,,,,,,,,,,,,
,,,,,,,,2023-08-16_08h49.36.051,HF_wild_card,2022.2.4,Win32,60.33546519,62c47e133958edd348b6b525,64d2fd46c836a06233681665,64dc7f779f216525d4696221,,,,,,,decisionTrl,resources/DG.BMP,resources/DR.BMP,Door4,0.18240745,-0.005555577,1,0,0,0.7137,optionRight,80,7785,4,17,0,17,0,1,,,,,,,,,,,,,,,,,,,,,,,,,,,,,,,,,,,,,,,
,,,,,,,,2023-08-16_08h49.36.051,HF_wild_card,2022.2.4,Win32,60.33546519,62c47e133958edd348b6b525,64d2fd46c836a06233681665,64dc7f779f216525d4696221,,,,,,,sngl,resources/Empty.png,resources/DP.BMP,Door2,0.203703704,-0.003703718,1,0,0,0.7803,optionRight,40,7825,4,18,0,18,0,1,,,,,,,,,,,,,,,,,,,,,,,,,,,,,,,,,,,,,,,
,,,,,,,,2023-08-16_08h49.36.051,HF_wild_card,2022.2.4,Win32,60.33546519,62c47e133958edd348b6b525,64d2fd46c836a06233681665,64dc7f779f216525d4696221,,,,,,,decisionTrl,resources/DBN.BMP,resources/DP.BMP,Door1,-0.223148134,-0.027777778,1,0,0,1.2161,optionLeft,30,7855,4,19,0,19,0,1,,,,,,,,,,,,,,,,,,,,,,,,,,,,,,,,,,,,,,,
,,,,,,,,2023-08-16_08h49.36.051,HF_wild_card,2022.2.4,Win32,60.33546519,62c47e133958edd348b6b525,64d2fd46c836a06233681665,64dc7f779f216525d4696221,,,,,,,decisionTrl,resources/DBN.BMP,resources/DP.BMP,Door2,0.220370399,0.009259259,1,0,0,0.5797,optionRight,40,7895,4,20,0,20,0,1,,,,,,,,,,,,,,,,,,,,,,,,,,,,,,,,,,,,,,,
,,,,,,,,2023-08-16_08h49.36.051,HF_wild_card,2022.2.4,Win32,60.33546519,62c47e133958edd348b6b525,64d2fd46c836a06233681665,64dc7f779f216525d4696221,,,,,,,decisionTrl,resources/DY.BMP,resources/DG.BMP,WildCard_NonEx,-0.25462963,-0.089814822,1,0,0,0.6794,optionLeft,45,7940,4,21,0,21,0,1,,,,,,,,,,,,,,,,,,,,,,,,,,,,,,,,,,,,,,,
,,,,,,,,2023-08-16_08h49.36.051,HF_wild_card,2022.2.4,Win32,60.33546519,62c47e133958edd348b6b525,64d2fd46c836a06233681665,64dc7f779f216525d4696221,,,,,,,ctch,resources/DG.BMP,resources/DP.BMP,Door2,0.247222265,-0.011111118,1,0,0,0.663,optionRight,40,7980,4,22,0,22,0,1,,,,,,,,,,,,,,,,,,,,,,,,,,,,,,,,,,,,,,,
,,,,,,,,2023-08-16_08h49.36.051,HF_wild_card,2022.2.4,Win32,60.33546519,62c47e133958edd348b6b525,64d2fd46c836a06233681665,64dc7f779f216525d4696221,,,,,,,decisionTrl,resources/DY.BMP,resources/DP.BMP,WildCard_NonEx,-0.223148134,-0.094444487,1,0,0,0.7304,optionLeft,45,8025,4,23,0,23,0,1,,,,,,,,,,,,,,,,,,,,,,,,,,,,,,,,,,,,,,,
,,,,,,,,2023-08-16_08h49.36.051,HF_wild_card,2022.2.4,Win32,60.33546519,62c47e133958edd348b6b525,64d2fd46c836a06233681665,64dc7f779f216525d4696221,,,,,,,decisionTrl,resources/DY.BMP,resources/DBN.BMP,WildCard_NonEx,-0.249074088,-0.087962963,1,0,0,0.7636,optionLeft,45,8070,4,24,0,24,0,1,,,,,,,,,,,,,,,,,,,,,,,,,,,,,,,,,,,,,,,
,,,,,,,,2023-08-16_08h49.36.051,HF_wild_card,2022.2.4,Win32,60.33546519,62c47e133958edd348b6b525,64d2fd46c836a06233681665,64dc7f779f216525d4696221,,,,,,,decisionTrl,resources/DP.BMP,resources/DBN.BMP,Door2,-0.286111125,-0.078703704,1,0,0,0.7481,optionLeft,20,8090,4,25,0,25,0,1,,,,,,,,,,,,,,,,,,,,,,,,,,,,,,,,,,,,,,,
,,,,,,,,2023-08-16_08h49.36.051,HF_wild_card,2022.2.4,Win32,60.33546519,62c47e133958edd348b6b525,64d2fd46c836a06233681665,64dc7f779f216525d4696221,,,,,,,decisionTrl,resources/DBN.BMP,resources/DP.BMP,Door2,0.231481481,0.02407406,1,0,0,0.7296,optionRight,40,8130,4,26,0,26,0,1,,,,,,,,,,,,,,,,,,,,,,,,,,,,,,,,,,,,,,,
,,,,,,,,2023-08-16_08h49.36.051,HF_wild_card,2022.2.4,Win32,60.33546519,62c47e133958edd348b6b525,64d2fd46c836a06233681665,64dc7f779f216525d4696221,,,,,,,sngl,resources/Empty.png,resources/DBN.BMP,Door1,0.220370399,0.010185171,1,0,0,0.7981,optionRight,30,8160,4,27,0,27,0,1,,,,,,,,,,,,,,,,,,,,,,,,,,,,,,,,,,,,,,,
,,,,,,,,2023-08-16_08h49.36.051,HF_wild_card,2022.2.4,Win32,60.33546519,62c47e133958edd348b6b525,64d2fd46c836a06233681665,64dc7f779f216525d4696221,,,,,,,decisionTrl,resources/DR.BMP,resources/DG.BMP,Door4,-0.210185157,-0.073148162,1,0,0,0.7629,optionLeft,60,8220,4,28,0,28,0,1,,,,,,,,,,,,,,,,,,,,,,,,,,,,,,,,,,,,,,,
,,,,,,,,2023-08-16_08h49.36.051,HF_wild_card,2022.2.4,Win32,60.33546519,62c47e133958edd348b6b525,64d2fd46c836a06233681665,64dc7f779f216525d4696221,,,,,,,decisionTrl,resources/DG.BMP,resources/DR.BMP,Door4,0.222222222,-0.011111118,1,0,0,0.6629,optionRight,80,8300,4,29,0,29,0,1,,,,,,,,,,,,,,,,,,,,,,,,,,,,,,,,,,,,,,,
,,,,,,,,2023-08-16_08h49.36.051,HF_wild_card,2022.2.4,Win32,60.33546519,62c47e133958edd348b6b525,64d2fd46c836a06233681665,64dc7f779f216525d4696221,,,,,,,sngl,resources/DG.BMP,resources/Empty.png,Door3,-0.273148148,-0.08425928,1,0,0,0.7144,optionLeft,70,8370,4,30,0,30,0,1,,,,,,,,,,,,,,,,,,,,,,,,,,,,,,,,,,,,,,,
,,,,,,,,2023-08-16_08h49.36.051,HF_wild_card,2022.2.4,Win32,60.33546519,62c47e133958edd348b6b525,64d2fd46c836a06233681665,64dc7f779f216525d4696221,,,,,,,ctch,resources/DG.BMP,resources/DP.BMP,Door3,-0.373148141,-0.077777792,1,0,0,0.8644,optionLeft,70,8440,4,31,0,31,0,1,,,,,,,,,,,,,,,,,,,,,,,,,,,,,,,,,,,,,,,
,,,,,,,,2023-08-16_08h49.36.051,HF_wild_card,2022.2.4,Win32,60.33546519,62c47e133958edd348b6b525,64d2fd46c836a06233681665,64dc7f779f216525d4696221,,,,,,,decisionTrl,resources/DP.BMP,resources/DY.BMP,Door2,-0.263888889,-0.083333333,1,0,0,0.9291,optionLeft,40,8480,4,32,0,32,0,1,,,,,,,,,,,,,,,,,,,,,,,,,,,,,,,,,,,,,,,
,,,,,,,,2023-08-16_08h49.36.051,HF_wild_card,2022.2.4,Win32,60.33546519,62c47e133958edd348b6b525,64d2fd46c836a06233681665,64dc7f779f216525d4696221,,,,,,,ctch,resources/DP.BMP,resources/DG.BMP,Door2,-0.292592578,-0.067592586,1,0,0,0.8628,optionLeft,40,8520,4,33,0,33,0,1,,,,,,,,,,,,,,,,,,,,,,,,,,,,,,,,,,,,,,,
,,,,,,,,2023-08-16_08h49.36.051,HF_wild_card,2022.2.4,Win32,60.33546519,62c47e133958edd348b6b525,64d2fd46c836a06233681665,64dc7f779f216525d4696221,,,,,,,decisionTrl,resources/DY.BMP,resources/DR.BMP,Door4,0.281481496,-0.009259259,1,0,0,0.9802,optionRight,80,8600,4,34,0,34,0,1,,,,,,,,,,,,,,,,,,,,,,,,,,,,,,,,,,,,,,,
,,,,,,,,2023-08-16_08h49.36.051,HF_wild_card,2022.2.4,Win32,60.33546519,62c47e133958edd348b6b525,64d2fd46c836a06233681665,64dc7f779f216525d4696221,,,,,,,decisionTrl,resources/DR.BMP,resources/DY.BMP,Door4,-0.285185143,-0.119444459,1,0,0,0.7982,optionLeft,60,8660,4,35,0,35,0,1,,,,,,,,,,,,,,,,,,,,,,,,,,,,,,,,,,,,,,,
,,,,,,,,2023-08-16_08h49.36.051,HF_wild_card,2022.2.4,Win32,60.33546519,62c47e133958edd348b6b525,64d2fd46c836a06233681665,64dc7f779f216525d4696221,,,,,,,sngl,resources/Empty.png,resources/DY.BMP,WildCard_NonEx,0.160185213,-0.039814808,1,0,0,0.7127,optionRight,55,8715,4,36,0,36,0,1,,,,,,,,,,,,,,,,,,,,,,,,,,,,,,,,,,,,,,,
,,,,,,,,2023-08-16_08h49.36.051,HF_wild_card,2022.2.4,Win32,60.33546519,62c47e133958edd348b6b525,64d2fd46c836a06233681665,64dc7f779f216525d4696221,,,,,,,decisionTrl,resources/DP.BMP,resources/DBN.BMP,Door2,-0.268518519,-0.104629658,1,0,0,0.7621,optionLeft,40,8755,4,37,0,37,0,1,,,,,,,,,,,,,,,,,,,,,,,,,,,,,,,,,,,,,,,
,,,,,,,,2023-08-16_08h49.36.051,HF_wild_card,2022.2.4,Win32,60.33546519,62c47e133958edd348b6b525,64d2fd46c836a06233681665,64dc7f779f216525d4696221,,,,,,,sngl,resources/DR.BMP,resources/Empty.png,Door4,-0.325925933,-0.068518533,1,0,0,0.6465,optionLeft,60,8815,4,38,0,38,0,1,,,,,,,,,,,,,,,,,,,,,,,,,,,,,,,,,,,,,,,
,,,,,,,,2023-08-16_08h49.36.051,HF_wild_card,2022.2.4,Win32,60.33546519,62c47e133958edd348b6b525,64d2fd46c836a06233681665,64dc7f779f216525d4696221,,,,,,,ctch,resources/DP.BMP,resources/DG.BMP,Door3,0.121296282,-0.041666667,1,0,0,1.2964,optionRight,70,8885,4,39,0,39,0,1,,,,,,,,,,,,,,,,,,,,,,,,,,,,,,,,,,,,,,,
,,,,,,,,2023-08-16_08h49.36.051,HF_wild_card,2022.2.4,Win32,60.33546519,62c47e133958edd348b6b525,64d2fd46c836a06233681665,64dc7f779f216525d4696221,,,,,,,decisionTrl,resources/DR.BMP,resources/DG.BMP,Door3,0.172222208,-0.005555577,1,0,0,0.8464,optionRight,70,8955,4,40,0,40,0,1,,,,,,,,,,,,,,,,,,,,,,,,,,,,,,,,,,,,,,,
,,,,,,,,2023-08-16_08h49.36.051,HF_wild_card,2022.2.4,Win32,60.33546519,62c47e133958edd348b6b525,64d2fd46c836a06233681665,64dc7f779f216525d4696221,,,,,,,decisionTrl,resources/DG.BMP,resources/DR.BMP,Door3,-0.248148106,-0.103703746,1,0,0,1.0798,optionLeft,70,9025,4,41,0,41,0,1,,,,,,,,,,,,,,,,,,,,,,,,,,,,,,,,,,,,,,,
,,,,,,,,2023-08-16_08h49.36.051,HF_wild_card,2022.2.4,Win32,60.33546519,62c47e133958edd348b6b525,64d2fd46c836a06233681665,64dc7f779f216525d4696221,,,,,,,sngl,resources/DP.BMP,resources/Empty.png,Door2,-0.276851866,-0.125,1,0,0,0.7964,optionLeft,20,9045,4,42,0,42,0,1,,,,,,,,,,,,,,,,,,,,,,,,,,,,,,,,,,,,,,,
,,,,,,,,2023-08-16_08h49.36.051,HF_wild_card,2022.2.4,Win32,60.33546519,62c47e133958edd348b6b525,64d2fd46c836a06233681665,64dc7f779f216525d4696221,,,,,,,ctch,resources/DBN.BMP,resources/DR.BMP,Door4,0.148148148,-0.026851866,1,0,0,0.814,optionRight,80,9125,4,43,0,43,0,1,,,,,,,,,,,,,,,,,,,,,,,,,,,,,,,,,,,,,,,
,,,,,,,,2023-08-16_08h49.36.051,HF_wild_card,2022.2.4,Win32,60.33546519,62c47e133958edd348b6b525,64d2fd46c836a06233681665,64dc7f779f216525d4696221,,,,,,,,,,,,,,,,,,,,,,,,,,3,0,3,0,1,,,,,,,,,,,,,,,,,,,,,,,,,,,,,,,,,,
,,,,,,,,2023-08-16_08h49.36.051,HF_wild_card,2022.2.4,Win32,60.33546519,62c47e133958edd348b6b525,64d2fd46c836a06233681665,64dc7f779f216525d4696221,,,,,,,decisionTrl,resources/DP.BMP,resources/DBN.BMP,Door2,-0.24537037,-0.164814843,1,0,0,0.9198,optionLeft,20,9145,5,0,0,0,0,1,,,,,,,,,,,,,,,,,,,,,,,,,,,,,,,,,,,,,,,
,,,,,,,,2023-08-16_08h49.36.051,HF_wild_card,2022.2.4,Win32,60.33546519,62c47e133958edd348b6b525,64d2fd46c836a06233681665,64dc7f779f216525d4696221,,,,,,,decisionTrl,resources/DY.BMP,resources/DBN.BMP,WildCard_NonEx,-0.427777785,-0.146296325,1,0,0,0.914,optionLeft,55,9200,5,1,0,1,0,1,,,,,,,,,,,,,,,,,,,,,,,,,,,,,,,,,,,,,,,
,,,,,,,,2023-08-16_08h49.36.051,HF_wild_card,2022.2.4,Win32,60.33546519,62c47e133958edd348b6b525,64d2fd46c836a06233681665,64dc7f779f216525d4696221,,,,,,,sngl,resources/DY.BMP,resources/Empty.png,WildCard_NonEx,-0.292592578,-0.032407407,1,0,0,0.6962,optionLeft,45,9245,5,2,0,2,0,1,,,,,,,,,,,,,,,,,,,,,,,,,,,,,,,,,,,,,,,
,,,,,,,,2023-08-16_08h49.36.051,HF_wild_card,2022.2.4,Win32,60.33546519,62c47e133958edd348b6b525,64d2fd46c836a06233681665,64dc7f779f216525d4696221,,,,,,,ctch,resources/DP.BMP,resources/DG.BMP,Door3,0.173148191,-0.0074074,1,0,0,1.2972,optionRight,70,9315,5,3,0,3,0,1,,,,,,,,,,,,,,,,,,,,,,,,,,,,,,,,,,,,,,,
,,,,,,,,2023-08-16_08h49.36.051,HF_wild_card,2022.2.4,Win32,60.33546519,62c47e133958edd348b6b525,64d2fd46c836a06233681665,64dc7f779f216525d4696221,,,,,,,decisionTrl,resources/DP.BMP,resources/DY.BMP,Door2,-0.331481474,-0.090740734,1,0,0,1.6134,optionLeft,40,9355,5,4,0,4,0,1,,,,,,,,,,,,,,,,,,,,,,,,,,,,,,,,,,,,,,,
,,,,,,,,2023-08-16_08h49.36.051,HF_wild_card,2022.2.4,Win32,60.33546519,62c47e133958edd348b6b525,64d2fd46c836a06233681665,64dc7f779f216525d4696221,,,,,,,decisionTrl,resources/DR.BMP,resources/DG.BMP,Door4,-0.208333333,-0.030555548,1,0,0,0.8954,optionLeft,60,9415,5,5,0,5,0,1,,,,,,,,,,,,,,,,,,,,,,,,,,,,,,,,,,,,,,,
,,,,,,,,2023-08-16_08h49.36.051,HF_wild_card,2022.2.4,Win32,60.33546519,62c47e133958edd348b6b525,64d2fd46c836a06233681665,64dc7f779f216525d4696221,,,,,,,decisionTrl,resources/DR.BMP,resources/DG.BMP,Door3,0.272222236,0.012962942,1,0,0,0.7471,optionRight,70,9485,5,6,0,6,0,1,,,,,,,,,,,,,,,,,,,,,,,,,,,,,,,,,,,,,,,
,,,,,,,,2023-08-16_08h49.36.051,HF_wild_card,2022.2.4,Win32,60.33546519,62c47e133958edd348b6b525,64d2fd46c836a06233681665,64dc7f779f216525d4696221,,,,,,,decisionTrl,resources/DR.BMP,resources/DY.BMP,Door4,-0.250925912,-0.069444444,1,0,0,1.0468,optionLeft,80,9565,5,7,0,7,0,1,,,,,,,,,,,,,,,,,,,,,,,,,,,,,,,,,,,,,,,
,,,,,,,,2023-08-16_08h49.36.051,HF_wild_card,2022.2.4,Win32,60.33546519,62c47e133958edd348b6b525,64d2fd46c836a06233681665,64dc7f779f216525d4696221,,,,,,,decisionTrl,resources/DBN.BMP,resources/DY.BMP,WildCard_NonEx,0.200925968,0.051851838,1,0,0,0.9307,optionRight,45,9610,5,8,0,8,0,1,,,,,,,,,,,,,,,,,,,,,,,,,,,,,,,,,,,,,,,
,,,,,,,,2023-08-16_08h49.36.051,HF_wild_card,2022.2.4,Win32,60.33546519,62c47e133958edd348b6b525,64d2fd46c836a06233681665,64dc7f779f216525d4696221,,,,,,,sngl,resources/Empty.png,resources/DBN.BMP,Door1,0.010185171,0.000925912,1,0,0,0.4632,optionRight,30,9640,5,9,0,9,0,1,,,,,,,,,,,,,,,,,,,,,,,,,,,,,,,,,,,,,,,
,,,,,,,,2023-08-16_08h49.36.051,HF_wild_card,2022.2.4,Win32,60.33546519,62c47e133958edd348b6b525,64d2fd46c836a06233681665,64dc7f779f216525d4696221,,,,,,,sngl,resources/Empty.png,resources/DG.BMP,Door3,0.212962963,0.013888889,1,0,0,0.7131,optionRight,70,9710,5,10,0,10,0,1,,,,,,,,,,,,,,,,,,,,,,,,,,,,,,,,,,,,,,,
,,,,,,,,2023-08-16_08h49.36.051,HF_wild_card,2022.2.4,Win32,60.33546519,62c47e133958edd348b6b525,64d2fd46c836a06233681665,64dc7f779f216525d4696221,,,,,,,sngl,resources/Empty.png,resources/DY.BMP,WildCard_NonEx,0.289814843,0.061111097,1,0,0,0.7641,optionRight,45,9755,5,11,0,11,0,1,,,,,,,,,,,,,,,,,,,,,,,,,,,,,,,,,,,,,,,
,,,,,,,,2023-08-16_08h49.36.051,HF_wild_card,2022.2.4,Win32,60.33546519,62c47e133958edd348b6b525,64d2fd46c836a06233681665,64dc7f779f216525d4696221,,,,,,,sngl,resources/DBN.BMP,resources/Empty.png,Door1,-0.265740712,-0.056481503,1,0,0,0.8802,optionLeft,30,9785,5,12,0,12,0,1,,,,,,,,,,,,,,,,,,,,,,,,,,,,,,,,,,,,,,,
,,,,,,,,2023-08-16_08h49.36.051,HF_wild_card,2022.2.4,Win32,60.33546519,62c47e133958edd348b6b525,64d2fd46c836a06233681665,64dc7f779f216525d4696221,,,,,,,decisionTrl,resources/DBN.BMP,resources/DP.BMP,Door2,0.157407407,0.001851859,1,0,0,1.2454,optionRight,40,9825,5,13,0,13,0,1,,,,,,,,,,,,,,,,,,,,,,,,,,,,,,,,,,,,,,,
,,,,,,,,2023-08-16_08h49.36.051,HF_wild_card,2022.2.4,Win32,60.33546519,62c47e133958edd348b6b525,64d2fd46c836a06233681665,64dc7f779f216525d4696221,,,,,,,decisionTrl,resources/DY.BMP,resources/DP.BMP,Door2,0.213888875,0.003703683,1,0,0,0.6799,optionRight,40,9865,5,14,0,14,0,1,,,,,,,,,,,,,,,,,,,,,,,,,,,,,,,,,,,,,,,
,,,,,,,,2023-08-16_08h49.36.051,HF_wild_card,2022.2.4,Win32,60.33546519,62c47e133958edd348b6b525,64d2fd46c836a06233681665,64dc7f779f216525d4696221,,,,,,,sngl,resources/Empty.png,resources/DY.BMP,WildCard_NonEx,0.275925954,0.03148146,1,0,0,0.665,optionRight,55,9920,5,15,0,15,0,1,,,,,,,,,,,,,,,,,,,,,,,,,,,,,,,,,,,,,,,
,,,,,,,,2023-08-16_08h49.36.051,HF_wild_card,2022.2.4,Win32,60.33546519,62c47e133958edd348b6b525,64d2fd46c836a06233681665,64dc7f779f216525d4696221,,,,,,,decisionTrl,resources/DP.BMP,resources/DBN.BMP,Door2,-0.258333347,-0.066666674,1,0,0,0.8976,optionLeft,20,9940,5,16,0,16,0,1,,,,,,,,,,,,,,,,,,,,,,,,,,,,,,,,,,,,,,,
,,,,,,,,2023-08-16_08h49.36.051,HF_wild_card,2022.2.4,Win32,60.33546519,62c47e133958edd348b6b525,64d2fd46c836a06233681665,64dc7f779f216525d4696221,,,,,,,sngl,resources/Empty.png,resources/DP.BMP,Door2,0.162037037,-0.009259259,1,0,0,0.6291,optionRight,20,9960,5,17,0,17,0,1,,,,,,,,,,,,,,,,,,,,,,,,,,,,,,,,,,,,,,,
,,,,,,,,2023-08-16_08h49.36.051,HF_wild_card,2022.2.4,Win32,60.33546519,62c47e133958edd348b6b525,64d2fd46c836a06233681665,64dc7f779f216525d4696221,,,,,,,decisionTrl,resources/DR.BMP,resources/DG.BMP,Door3,0.255555541,0.029629637,1,0,0,1.1628,optionRight,70,10030,5,18,0,18,0,1,,,,,,,,,,,,,,,,,,,,,,,,,,,,,,,,,,,,,,,
,,,,,,,,2023-08-16_08h49.36.051,HF_wild_card,2022.2.4,Win32,60.33546519,62c47e133958edd348b6b525,64d2fd46c836a06233681665,64dc7f779f216525d4696221,,,,,,,sngl,resources/DG.BMP,resources/Empty.png,Door3,-0.286111125,-0.069444444,1,0,0,0.6648,optionLeft,70,10100,5,19,0,19,0,1,,,,,,,,,,,,,,,,,,,,,,,,,,,,,,,,,,,,,,,
,,,,,,,,2023-08-16_08h49.36.051,HF_wild_card,2022.2.4,Win32,60.33546519,62c47e133958edd348b6b525,64d2fd46c836a06233681665,64dc7f779f216525d4696221,,,,,,,ctch,resources/DG.BMP,resources/DP.BMP,Door3,-0.329629616,-0.107407393,1,0,0,0.7797,optionLeft,70,10170,5,20,0,20,0,1,,,,,,,,,,,,,,,,,,,,,,,,,,,,,,,,,,,,,,,
,,,,,,,,2023-08-16_08h49.36.051,HF_wild_card,2022.2.4,Win32,60.33546519,62c47e133958edd348b6b525,64d2fd46c836a06233681665,64dc7f779f216525d4696221,,,,,,,ctch,resources/DG.BMP,resources/DP.BMP,Door3,-0.264814801,-0.070370392,1,0,0,0.647,optionLeft,70,10240,5,21,0,21,0,1,,,,,,,,,,,,,,,,,,,,,,,,,,,,,,,,,,,,,,,
,,,,,,,,2023-08-16_08h49.36.051,HF_wild_card,2022.2.4,Win32,60.33546519,62c47e133958edd348b6b525,64d2fd46c836a06233681665,64dc7f779f216525d4696221,,,,,,,decisionTrl,resources/DY.BMP,resources/DG.BMP,Door3,0.180555556,0.006481489,1,0,0,0.8306,optionRight,70,10310,5,22,0,22,0,1,,,,,,,,,,,,,,,,,,,,,,,,,,,,,,,,,,,,,,,
,,,,,,,,2023-08-16_08h49.36.051,HF_wild_card,2022.2.4,Win32,60.33546519,62c47e133958edd348b6b525,64d2fd46c836a06233681665,64dc7f779f216525d4696221,,,,,,,sngl,resources/DY.BMP,resources/Empty.png,WildCard_NonEx,-0.287962949,-0.059259273,1,0,0,0.83,optionLeft,55,10365,5,23,0,23,0,1,,,,,,,,,,,,,,,,,,,,,,,,,,,,,,,,,,,,,,,
,,,,,,,,2023-08-16_08h49.36.051,HF_wild_card,2022.2.4,Win32,60.33546519,62c47e133958edd348b6b525,64d2fd46c836a06233681665,64dc7f779f216525d4696221,,,,,,,ctch,resources/DP.BMP,resources/DG.BMP,Door3,0.185185185,0.003703683,1,0,0,0.8294,optionRight,70,10435,5,24,0,24,0,1,,,,,,,,,,,,,,,,,,,,,,,,,,,,,,,,,,,,,,,
,,,,,,,,2023-08-16_08h49.36.051,HF_wild_card,2022.2.4,Win32,60.33546519,62c47e133958edd348b6b525,64d2fd46c836a06233681665,64dc7f779f216525d4696221,,,,,,,sngl,resources/DP.BMP,resources/Empty.png,Door2,-0.210185157,-0.062962956,1,0,0,0.8981,optionLeft,40,10475,5,25,0,25,0,1,,,,,,,,,,,,,,,,,,,,,,,,,,,,,,,,,,,,,,,
,,,,,,,,2023-08-16_08h49.36.051,HF_wild_card,2022.2.4,Win32,60.33546519,62c47e133958edd348b6b525,64d2fd46c836a06233681665,64dc7f779f216525d4696221,,,,,,,decisionTrl,resources/DBN.BMP,resources/DP.BMP,Door1,-0.253703718,-0.046296296,1,0,0,1.7156,optionLeft,30,10505,5,26,0,26,0,1,,,,,,,,,,,,,,,,,,,,,,,,,,,,,,,,,,,,,,,
,,,,,,,,2023-08-16_08h49.36.051,HF_wild_card,2022.2.4,Win32,60.33546519,62c47e133958edd348b6b525,64d2fd46c836a06233681665,64dc7f779f216525d4696221,,,,,,,decisionTrl,resources/DG.BMP,resources/DR.BMP,Door3,-0.345370363,-0.048148155,1,0,0,1.2306,optionLeft,70,10575,5,27,0,27,0,1,,,,,,,,,,,,,,,,,,,,,,,,,,,,,,,,,,,,,,,
,,,,,,,,2023-08-16_08h49.36.051,HF_wild_card,2022.2.4,Win32,60.33546519,62c47e133958edd348b6b525,64d2fd46c836a06233681665,64dc7f779f216525d4696221,,,,,,,sngl,resources/Empty.png,resources/DR.BMP,Door4,0.225000028,0.000925912,1,0,0,1.5137,optionRight,60,10635,5,28,0,28,0,1,,,,,,,,,,,,,,,,,,,,,,,,,,,,,,,,,,,,,,,
,,,,,,,,2023-08-16_08h49.36.051,HF_wild_card,2022.2.4,Win32,60.33546519,62c47e133958edd348b6b525,64d2fd46c836a06233681665,64dc7f779f216525d4696221,,,,,,,ctch,resources/DR.BMP,resources/DBN.BMP,Door4,-0.312962956,-0.083333333,1,0,0,0.9643,optionLeft,80,10715,5,29,0,29,0,1,,,,,,,,,,,,,,,,,,,,,,,,,,,,,,,,,,,,,,,
,,,,,,,,2023-08-16_08h49.36.051,HF_wild_card,2022.2.4,Win32,60.33546519,62c47e133958edd348b6b525,64d2fd46c836a06233681665,64dc7f779f216525d4696221,,,,,,,decisionTrl,resources/DBN.BMP,resources/DP.BMP,Door2,0.288888931,-0.005555577,1,0,0,1.4447,optionRight,40,10755,5,30,0,30,0,1,,,,,,,,,,,,,,,,,,,,,,,,,,,,,,,,,,,,,,,
,,,,,,,,2023-08-16_08h49.36.051,HF_wild_card,2022.2.4,Win32,60.33546519,62c47e133958edd348b6b525,64d2fd46c836a06233681665,64dc7f779f216525d4696221,,,,,,,ctch,resources/DBN.BMP,resources/DR.BMP,Door4,0.24537037,0.082407386,1,0,0,1.4128,optionRight,60,10815,5,31,0,31,0,1,,,,,,,,,,,,,,,,,,,,,,,,,,,,,,,,,,,,,,,
,,,,,,,,2023-08-16_08h49.36.051,HF_wild_card,2022.2.4,Win32,60.33546519,62c47e133958edd348b6b525,64d2fd46c836a06233681665,64dc7f779f216525d4696221,,,,,,,decisionTrl,resources/DBN.BMP,resources/DP.BMP,Door2,0.228703746,0.010185171,1,0,0,1.0461,optionRight,40,10855,5,32,0,32,0,1,,,,,,,,,,,,,,,,,,,,,,,,,,,,,,,,,,,,,,,
,,,,,,,,2023-08-16_08h49.36.051,HF_wild_card,2022.2.4,Win32,60.33546519,62c47e133958edd348b6b525,64d2fd46c836a06233681665,64dc7f779f216525d4696221,,,,,,,decisionTrl,resources/DG.BMP,resources/DR.BMP,Door3,-0.311111097,-0.036111125,1,0,0,0.831,optionLeft,70,10925,5,33,0,33,0,1,,,,,,,,,,,,,,,,,,,,,,,,,,,,,,,,,,,,,,,
,,,,,,,,2023-08-16_08h49.36.051,HF_wild_card,2022.2.4,Win32,60.33546519,62c47e133958edd348b6b525,64d2fd46c836a06233681665,64dc7f779f216525d4696221,,,,,,,ctch,resources/DBN.BMP,resources/DR.BMP,Door4,0.235185199,0.021296289,0,0,1,2.2469,optionRight,80,11005,5,34,0,34,0,1,,,,,,,,,,,,,,,,,,,,,,,,,,,,,,,,,,,,,,,
,,,,,,,,2023-08-16_08h49.36.051,HF_wild_card,2022.2.4,Win32,60.33546519,62c47e133958edd348b6b525,64d2fd46c836a06233681665,64dc7f779f216525d4696221,,,,,,,decisionTrl,resources/DG.BMP,resources/DR.BMP,Door3,-0.325925933,-0.09629631,1,0,0,0.9321,optionLeft,70,11075,5,35,0,35,0,1,,,,,,,,,,,,,,,,,,,,,,,,,,,,,,,,,,,,,,,
,,,,,,,,2023-08-16_08h49.36.051,HF_wild_card,2022.2.4,Win32,60.33546519,62c47e133958edd348b6b525,64d2fd46c836a06233681665,64dc7f779f216525d4696221,,,,,,,decisionTrl,resources/DG.BMP,resources/DY.BMP,Door3,-0.268518519,-0.066666674,1,0,0,0.7306,optionLeft,70,11145,5,36,0,36,0,1,,,,,,,,,,,,,,,,,,,,,,,,,,,,,,,,,,,,,,,
,,,,,,,,2023-08-16_08h49.36.051,HF_wild_card,2022.2.4,Win32,60.33546519,62c47e133958edd348b6b525,64d2fd46c836a06233681665,64dc7f779f216525d4696221,,,,,,,decisionTrl,resources/DG.BMP,resources/DR.BMP,Door3,-0.228703675,-0.072222215,1,0,0,0.6798,optionLeft,70,11215,5,37,0,37,0,1,,,,,,,,,,,,,,,,,,,,,,,,,,,,,,,,,,,,,,,
,,,,,,,,2023-08-16_08h49.36.051,HF_wild_card,2022.2.4,Win32,60.33546519,62c47e133958edd348b6b525,64d2fd46c836a06233681665,64dc7f779f216525d4696221,,,,,,,decisionTrl,resources/DP.BMP,resources/DBN.BMP,Door2,-0.233333305,-0.090740734,1,0,0,0.8802,optionLeft,40,11255,5,38,0,38,0,1,,,,,,,,,,,,,,,,,,,,,,,,,,,,,,,,,,,,,,,
,,,,,,,,2023-08-16_08h49.36.051,HF_wild_card,2022.2.4,Win32,60.33546519,62c47e133958edd348b6b525,64d2fd46c836a06233681665,64dc7f779f216525d4696221,,,,,,,ctch,resources/DR.BMP,resources/DBN.BMP,Door4,-0.26944443,-0.086111104,1,0,0,0.9632,optionLeft,80,11335,5,39,0,39,0,1,,,,,,,,,,,,,,,,,,,,,,,,,,,,,,,,,,,,,,,
,,,,,,,,2023-08-16_08h49.36.051,HF_wild_card,2022.2.4,Win32,60.33546519,62c47e133958edd348b6b525,64d2fd46c836a06233681665,64dc7f779f216525d4696221,,,,,,,decisionTrl,resources/DP.BMP,resources/DBN.BMP,Door2,-0.287037037,-0.050000014,1,0,0,0.6468,optionLeft,20,11355,5,40,0,40,0,1,,,,,,,,,,,,,,,,,,,,,,,,,,,,,,,,,,,,,,,
,,,,,,,,2023-08-16_08h49.36.051,HF_wild_card,2022.2.4,Win32,60.33546519,62c47e133958edd348b6b525,64d2fd46c836a06233681665,64dc7f779f216525d4696221,,,,,,,decisionTrl,resources/DY.BMP,resources/DR.BMP,Door4,0.242592635,0.012962942,1,0,0,0.78,optionRight,60,11415,5,41,0,41,0,1,,,,,,,,,,,,,,,,,,,,,,,,,,,,,,,,,,,,,,,
,,,,,,,,2023-08-16_08h49.36.051,HF_wild_card,2022.2.4,Win32,60.33546519,62c47e133958edd348b6b525,64d2fd46c836a06233681665,64dc7f779f216525d4696221,,,,,,,sngl,resources/DR.BMP,resources/Empty.png,Door4,-0.248148106,-0.019444466,1,0,0,0.7153,optionLeft,80,11495,5,42,0,42,0,1,,,,,,,,,,,,,,,,,,,,,,,,,,,,,,,,,,,,,,,
,,,,,,,,2023-08-16_08h49.36.051,HF_wild_card,2022.2.4,Win32,60.33546519,62c47e133958edd348b6b525,64d2fd46c836a06233681665,64dc7f779f216525d4696221,,,,,,,decisionTrl,resources/DR.BMP,resources/DG.BMP,Door3,0.222222222,-0.010185206,0,0,1,1.298,optionRight,70,11565,5,43,0,43,0,1,,,,,,,,,,,,,,,,,,,,,,,,,,,,,,,,,,,,,,,
,,,,,,,,2023-08-16_08h49.36.051,HF_wild_card,2022.2.4,Win32,60.33546519,62c47e133958edd348b6b525,64d2fd46c836a06233681665,64dc7f779f216525d4696221,,,,,,,,,,,,,,,,,,,,,,,,,,4,0,4,0,1,,,,,,,,,,,,,,,,,,,,,,,,,,,,,,,,,,
,,,,,,,,2023-08-16_08h49.36.051,HF_wild_card,2022.2.4,Win32,60.33546519,62c47e133958edd348b6b525,64d2fd46c836a06233681665,64dc7f779f216525d4696221,,,,,,,sngl,resources/Empty.png,resources/DG.BMP,Door3,0.292592578,-0.045370384,1,0,0,1.0683,optionRight,70,11635,6,0,0,0,0,1,,,,,,,,,,,,,,,,,,,,,,,,,,,,,,,,,,,,,,,
,,,,,,,,2023-08-16_08h49.36.051,HF_wild_card,2022.2.4,Win32,60.33546519,62c47e133958edd348b6b525,64d2fd46c836a06233681665,64dc7f779f216525d4696221,,,,,,,decisionTrl,resources/DBN.BMP,resources/DP.BMP,Door2,0.194444444,-0.047222243,1,0,0,1.6109,optionRight,20,11655,6,1,0,1,0,1,,,,,,,,,,,,,,,,,,,,,,,,,,,,,,,,,,,,,,,
,,,,,,,,2023-08-16_08h49.36.051,HF_wild_card,2022.2.4,Win32,60.33546519,62c47e133958edd348b6b525,64d2fd46c836a06233681665,64dc7f779f216525d4696221,,,,,,,decisionTrl,resources/DR.BMP,resources/DG.BMP,Door3,0.180555556,0.003703683,1,0,0,0.7969,optionRight,70,11725,6,2,0,2,0,1,,,,,,,,,,,,,,,,,,,,,,,,,,,,,,,,,,,,,,,
,,,,,,,,2023-08-16_08h49.36.051,HF_wild_card,2022.2.4,Win32,60.33546519,62c47e133958edd348b6b525,64d2fd46c836a06233681665,64dc7f779f216525d4696221,,,,,,,decisionTrl,resources/DG.BMP,resources/DR.BMP,Door3,-0.156481496,-0.022222236,1,0,0,0.7477,optionLeft,70,11795,6,3,0,3,0,1,,,,,,,,,,,,,,,,,,,,,,,,,,,,,,,,,,,,,,,
,,,,,,,,2023-08-16_08h49.36.051,HF_wild_card,2022.2.4,Win32,60.33546519,62c47e133958edd348b6b525,64d2fd46c836a06233681665,64dc7f779f216525d4696221,,,,,,,decisionTrl,resources/DP.BMP,resources/DBN.BMP,Door2,-0.236111111,-0.068518533,1,0,0,0.8466,optionLeft,40,11835,6,4,0,4,0,1,,,,,,,,,,,,,,,,,,,,,,,,,,,,,,,,,,,,,,,
,,,,,,,,2023-08-16_08h49.36.051,HF_wild_card,2022.2.4,Win32,60.33546519,62c47e133958edd348b6b525,64d2fd46c836a06233681665,64dc7f779f216525d4696221,,,,,,,decisionTrl,resources/DP.BMP,resources/DBN.BMP,Door1,0.273148148,0.079629616,1,0,0,0.7305,optionRight,30,11865,6,5,0,5,0,1,,,,,,,,,,,,,,,,,,,,,,,,,,,,,,,,,,,,,,,
,,,,,,,,2023-08-16_08h49.36.051,HF_wild_card,2022.2.4,Win32,60.33546519,62c47e133958edd348b6b525,64d2fd46c836a06233681665,64dc7f779f216525d4696221,,,,,,,decisionTrl,resources/DY.BMP,resources/DP.BMP,Door2,0.246296282,0.02870369,1,0,0,1.3646,optionRight,20,11885,6,6,0,6,0,1,,,,,,,,,,,,,,,,,,,,,,,,,,,,,,,,,,,,,,,
,,,,,,,,2023-08-16_08h49.36.051,HF_wild_card,2022.2.4,Win32,60.33546519,62c47e133958edd348b6b525,64d2fd46c836a06233681665,64dc7f779f216525d4696221,,,,,,,ctch,resources/DR.BMP,resources/DBN.BMP,Door4,-0.262036995,-0.092592593,1,0,0,0.8967,optionLeft,80,11965,6,7,0,7,0,1,,,,,,,,,,,,,,,,,,,,,,,,,,,,,,,,,,,,,,,
,,,,,,,,2023-08-16_08h49.36.051,HF_wild_card,2022.2.4,Win32,60.33546519,62c47e133958edd348b6b525,64d2fd46c836a06233681665,64dc7f779f216525d4696221,,,,,,,sngl,resources/Empty.png,resources/DY.BMP,WildCard_NonEx,0.169444473,0.002777771,1,0,0,0.8133,optionRight,45,12010,6,8,0,8,0,1,,,,,,,,,,,,,,,,,,,,,,,,,,,,,,,,,,,,,,,
,,,,,,,,2023-08-16_08h49.36.051,HF_wild_card,2022.2.4,Win32,60.33546519,62c47e133958edd348b6b525,64d2fd46c836a06233681665,64dc7f779f216525d4696221,,,,,,,decisionTrl,resources/DBN.BMP,resources/DP.BMP,Door2,0.086111139,-0.033333355,1,0,0,1.0139,optionRight,20,12030,6,9,0,9,0,1,,,,,,,,,,,,,,,,,,,,,,,,,,,,,,,,,,,,,,,
,,,,,,,,2023-08-16_08h49.36.051,HF_wild_card,2022.2.4,Win32,60.33546519,62c47e133958edd348b6b525,64d2fd46c836a06233681665,64dc7f779f216525d4696221,,,,,,,ctch,resources/DP.BMP,resources/DG.BMP,Door3,0.273148148,0.002777771,1,0,0,0.9632,optionRight,70,12100,6,10,0,10,0,1,,,,,,,,,,,,,,,,,,,,,,,,,,,,,,,,,,,,,,,
,,,,,,,,2023-08-16_08h49.36.051,HF_wild_card,2022.2.4,Win32,60.33546519,62c47e133958edd348b6b525,64d2fd46c836a06233681665,64dc7f779f216525d4696221,,,,,,,decisionTrl,resources/DG.BMP,resources/DR.BMP,Door3,-0.182407379,-0.062962956,1,0,0,0.6475,optionLeft,70,12170,6,11,0,11,0,1,,,,,,,,,,,,,,,,,,,,,,,,,,,,,,,,,,,,,,,
,,,,,,,,2023-08-16_08h49.36.051,HF_wild_card,2022.2.4,Win32,60.33546519,62c47e133958edd348b6b525,64d2fd46c836a06233681665,64dc7f779f216525d4696221,,,,,,,sngl,resources/Empty.png,resources/DY.BMP,WildCard_NonEx,0.232407393,0.01944443,1,0,0,0.7957,optionRight,55,12225,6,12,0,12,0,1,,,,,,,,,,,,,,,,,,,,,,,,,,,,,,,,,,,,,,,
,,,,,,,,2023-08-16_08h49.36.051,HF_wild_card,2022.2.4,Win32,60.33546519,62c47e133958edd348b6b525,64d2fd46c836a06233681665,64dc7f779f216525d4696221,,,,,,,decisionTrl,resources/DR.BMP,resources/DG.BMP,Door3,0.307407379,0.02870369,1,0,0,1.1136,optionRight,70,12295,6,13,0,13,0,1,,,,,,,,,,,,,,,,,,,,,,,,,,,,,,,,,,,,,,,
,,,,,,,,2023-08-16_08h49.36.051,HF_wild_card,2022.2.4,Win32,60.33546519,62c47e133958edd348b6b525,64d2fd46c836a06233681665,64dc7f779f216525d4696221,,,,,,,decisionTrl,resources/DR.BMP,resources/DG.BMP,Door3,0.205555598,0.02870369,1,0,0,1.2462,optionRight,70,12365,6,14,0,14,0,1,,,,,,,,,,,,,,,,,,,,,,,,,,,,,,,,,,,,,,,
,,,,,,,,2023-08-16_08h49.36.051,HF_wild_card,2022.2.4,Win32,60.33546519,62c47e133958edd348b6b525,64d2fd46c836a06233681665,64dc7f779f216525d4696221,,,,,,,decisionTrl,resources/DG.BMP,resources/DR.BMP,Door3,-0.263888889,-0.061111132,1,0,0,1.1634,optionLeft,70,12435,6,15,0,15,0,1,,,,,,,,,,,,,,,,,,,,,,,,,,,,,,,,,,,,,,,
,,,,,,,,2023-08-16_08h49.36.051,HF_wild_card,2022.2.4,Win32,60.33546519,62c47e133958edd348b6b525,64d2fd46c836a06233681665,64dc7f779f216525d4696221,,,,,,,ctch,resources/DG.BMP,resources/DP.BMP,Door3,-0.276851866,-0.042592614,1,0,0,0.8462,optionLeft,70,12505,6,16,0,16,0,1,,,,,,,,,,,,,,,,,,,,,,,,,,,,,,,,,,,,,,,
,,,,,,,,2023-08-16_08h49.36.051,HF_wild_card,2022.2.4,Win32,60.33546519,62c47e133958edd348b6b525,64d2fd46c836a06233681665,64dc7f779f216525d4696221,,,,,,,decisionTrl,resources/DP.BMP,resources/DY.BMP,WildCard_NonEx,0.166666667,0.02870369,1,0,0,1.3639,optionRight,55,12560,6,17,0,17,0,1,,,,,,,,,,,,,,,,,,,,,,,,,,,,,,,,,,,,,,,
,,,,,,,,2023-08-16_08h49.36.051,HF_wild_card,2022.2.4,Win32,60.33546519,62c47e133958edd348b6b525,64d2fd46c836a06233681665,64dc7f779f216525d4696221,,,,,,,sngl,resources/DBN.BMP,resources/Empty.png,Door1,-0.243518476,-0.062037044,1,0,0,0.8633,optionLeft,30,12590,6,18,0,18,0,1,,,,,,,,,,,,,,,,,,,,,,,,,,,,,,,,,,,,,,,
,,,,,,,,2023-08-16_08h49.36.051,HF_wild_card,2022.2.4,Win32,60.33546519,62c47e133958edd348b6b525,64d2fd46c836a06233681665,64dc7f779f216525d4696221,,,,,,,decisionTrl,resources/DBN.BMP,resources/DP.BMP,Door2,0.289814843,0.053703697,1,0,0,0.8299,optionRight,20,12610,6,19,0,19,0,1,,,,,,,,,,,,,,,,,,,,,,,,,,,,,,,,,,,,,,,
,,,,,,,,2023-08-16_08h49.36.051,HF_wild_card,2022.2.4,Win32,60.33546519,62c47e133958edd348b6b525,64d2fd46c836a06233681665,64dc7f779f216525d4696221,,,,,,,decisionTrl,resources/DY.BMP,resources/DR.BMP,WildCard_NonEx,-0.325925933,-0.101851852,1,0,0,1.2992,optionLeft,55,12665,6,20,0,20,0,1,,,,,,,,,,,,,,,,,,,,,,,,,,,,,,,,,,,,,,,
,,,,,,,,2023-08-16_08h49.36.051,HF_wild_card,2022.2.4,Win32,60.33546519,62c47e133958edd348b6b525,64d2fd46c836a06233681665,64dc7f779f216525d4696221,,,,,,,sngl,resources/DP.BMP,resources/Empty.png,Door2,-0.199999986,-0.033333355,1,0,0,0.8474,optionLeft,20,12685,6,21,0,21,0,1,,,,,,,,,,,,,,,,,,,,,,,,,,,,,,,,,,,,,,,
,,,,,,,,2023-08-16_08h49.36.051,HF_wild_card,2022.2.4,Win32,60.33546519,62c47e133958edd348b6b525,64d2fd46c836a06233681665,64dc7f779f216525d4696221,,,,,,,ctch,resources/DP.BMP,resources/DG.BMP,Door3,0.183333362,0.001851859,1,0,0,1.0647,optionRight,70,12755,6,22,0,22,0,1,,,,,,,,,,,,,,,,,,,,,,,,,,,,,,,,,,,,,,,
,,,,,,,,2023-08-16_08h49.36.051,HF_wild_card,2022.2.4,Win32,60.33546519,62c47e133958edd348b6b525,64d2fd46c836a06233681665,64dc7f779f216525d4696221,,,,,,,decisionTrl,resources/DBN.BMP,resources/DP.BMP,Door1,-0.290740755,-0.055555556,1,0,0,1.4468,optionLeft,30,12785,6,23,0,23,0,1,,,,,,,,,,,,,,,,,,,,,,,,,,,,,,,,,,,,,,,
,,,,,,,,2023-08-16_08h49.36.051,HF_wild_card,2022.2.4,Win32,60.33546519,62c47e133958edd348b6b525,64d2fd46c836a06233681665,64dc7f779f216525d4696221,,,,,,,sngl,resources/DY.BMP,resources/Empty.png,WildCard_NonEx,-0.227777764,-0.025925919,1,0,0,0.7799,optionLeft,55,12840,6,24,0,24,0,1,,,,,,,,,,,,,,,,,,,,,,,,,,,,,,,,,,,,,,,
,,,,,,,,2023-08-16_08h49.36.051,HF_wild_card,2022.2.4,Win32,60.33546519,62c47e133958edd348b6b525,64d2fd46c836a06233681665,64dc7f779f216525d4696221,,,,,,,sngl,resources/Empty.png,resources/DBN.BMP,Door1,0.300925926,0.065740727,1,0,0,0.8127,optionRight,30,12870,6,25,0,25,0,1,,,,,,,,,,,,,,,,,,,,,,,,,,,,,,,,,,,,,,,
,,,,,,,,2023-08-16_08h49.36.051,HF_wild_card,2022.2.4,Win32,60.33546519,62c47e133958edd348b6b525,64d2fd46c836a06233681665,64dc7f779f216525d4696221,,,,,,,decisionTrl,resources/DR.BMP,resources/DG.BMP,Door3,0.239814829,0.017592571,1,0,0,1.2462,optionRight,70,12940,6,26,0,26,0,1,,,,,,,,,,,,,,,,,,,,,,,,,,,,,,,,,,,,,,,
,,,,,,,,2023-08-16_08h49.36.051,HF_wild_card,2022.2.4,Win32,60.33546519,62c47e133958edd348b6b525,64d2fd46c836a06233681665,64dc7f779f216525d4696221,,,,,,,decisionTrl,resources/DY.BMP,resources/DG.BMP,Door3,0.125,0.010185171,1,0,0,0.8127,optionRight,70,13010,6,27,0,27,0,1,,,,,,,,,,,,,,,,,,,,,,,,,,,,,,,,,,,,,,,
,,,,,,,,2023-08-16_08h49.36.051,HF_wild_card,2022.2.4,Win32,60.33546519,62c47e133958edd348b6b525,64d2fd46c836a06233681665,64dc7f779f216525d4696221,,,,,,,ctch,resources/DR.BMP,resources/DBN.BMP,Door4,-0.26944443,-0.087962963,1,0,0,0.9953,optionLeft,80,13090,6,28,0,28,0,1,,,,,,,,,,,,,,,,,,,,,,,,,,,,,,,,,,,,,,,
,,,,,,,,2023-08-16_08h49.36.051,HF_wild_card,2022.2.4,Win32,60.33546519,62c47e133958edd348b6b525,64d2fd46c836a06233681665,64dc7f779f216525d4696221,,,,,,,ctch,resources/DBN.BMP,resources/DR.BMP,Door4,0.168518561,0.01203703,1,0,0,0.7466,optionRight,80,13170,6,29,0,29,0,1,,,,,,,,,,,,,,,,,,,,,,,,,,,,,,,,,,,,,,,
,,,,,,,,2023-08-16_08h49.36.051,HF_wild_card,2022.2.4,Win32,60.33546519,62c47e133958edd348b6b525,64d2fd46c836a06233681665,64dc7f779f216525d4696221,,,,,,,ctch,resources/DG.BMP,resources/DP.BMP,Door3,-0.204629616,-0.011111118,1,0,0,1.3638,optionLeft,70,13240,6,30,0,30,0,1,,,,,,,,,,,,,,,,,,,,,,,,,,,,,,,,,,,,,,,
,,,,,,,,2023-08-16_08h49.36.051,HF_wild_card,2022.2.4,Win32,60.33546519,62c47e133958edd348b6b525,64d2fd46c836a06233681665,64dc7f779f216525d4696221,,,,,,,sngl,resources/DR.BMP,resources/Empty.png,Door4,-0.373148141,-0.095370399,1,0,0,0.7962,optionLeft,60,13300,6,31,0,31,0,1,,,,,,,,,,,,,,,,,,,,,,,,,,,,,,,,,,,,,,,
,,,,,,,,2023-08-16_08h49.36.051,HF_wild_card,2022.2.4,Win32,60.33546519,62c47e133958edd348b6b525,64d2fd46c836a06233681665,64dc7f779f216525d4696221,,,,,,,ctch,resources/DBN.BMP,resources/DR.BMP,Door4,0.14444443,-0.002777771,1,0,0,0.6805,optionRight,80,13380,6,32,0,32,0,1,,,,,,,,,,,,,,,,,,,,,,,,,,,,,,,,,,,,,,,
,,,,,,,,2023-08-16_08h49.36.051,HF_wild_card,2022.2.4,Win32,60.33546519,62c47e133958edd348b6b525,64d2fd46c836a06233681665,64dc7f779f216525d4696221,,,,,,,decisionTrl,resources/DP.BMP,resources/DBN.BMP,Door2,-0.241666653,-0.022222236,1,0,0,0.8298,optionLeft,40,13420,6,33,0,33,0,1,,,,,,,,,,,,,,,,,,,,,,,,,,,,,,,,,,,,,,,
,,,,,,,,2023-08-16_08h49.36.051,HF_wild_card,2022.2.4,Win32,60.33546519,62c47e133958edd348b6b525,64d2fd46c836a06233681665,64dc7f779f216525d4696221,,,,,,,sngl,resources/Empty.png,resources/DR.BMP,Door4,0.196296339,0.022222201,1,0,0,1.0978,optionRight,80,13500,6,34,0,34,0,1,,,,,,,,,,,,,,,,,,,,,,,,,,,,,,,,,,,,,,,
,,,,,,,,2023-08-16_08h49.36.051,HF_wild_card,2022.2.4,Win32,60.33546519,62c47e133958edd348b6b525,64d2fd46c836a06233681665,64dc7f779f216525d4696221,,,,,,,sngl,resources/DY.BMP,resources/Empty.png,WildCard_NonEx,-0.237962935,-0.025000007,1,0,0,0.7471,optionLeft,45,13545,6,35,0,35,0,1,,,,,,,,,,,,,,,,,,,,,,,,,,,,,,,,,,,,,,,
,,,,,,,,2023-08-16_08h49.36.051,HF_wild_card,2022.2.4,Win32,60.33546519,62c47e133958edd348b6b525,64d2fd46c836a06233681665,64dc7f779f216525d4696221,,,,,,,decisionTrl,resources/DBN.BMP,resources/DY.BMP,WildCard_NonEx,0.231481481,0.014814801,1,0,0,0.7297,optionRight,45,13590,6,36,0,36,0,1,,,,,,,,,,,,,,,,,,,,,,,,,,,,,,,,,,,,,,,
,,,,,,,,2023-08-16_08h49.36.051,HF_wild_card,2022.2.4,Win32,60.33546519,62c47e133958edd348b6b525,64d2fd46c836a06233681665,64dc7f779f216525d4696221,,,,,,,decisionTrl,resources/DR.BMP,resources/DY.BMP,Door4,-0.141666624,-0.00462963,1,0,0,0.8634,optionLeft,80,13670,6,37,0,37,0,1,,,,,,,,,,,,,,,,,,,,,,,,,,,,,,,,,,,,,,,
,,,,,,,,2023-08-16_08h49.36.051,HF_wild_card,2022.2.4,Win32,60.33546519,62c47e133958edd348b6b525,64d2fd46c836a06233681665,64dc7f779f216525d4696221,,,,,,,sngl,resources/DG.BMP,resources/Empty.png,Door3,-0.258333347,-0.116666653,1,0,0,0.8637,optionLeft,70,13740,6,38,0,38,0,1,,,,,,,,,,,,,,,,,,,,,,,,,,,,,,,,,,,,,,,
,,,,,,,,2023-08-16_08h49.36.051,HF_wild_card,2022.2.4,Win32,60.33546519,62c47e133958edd348b6b525,64d2fd46c836a06233681665,64dc7f779f216525d4696221,,,,,,,decisionTrl,resources/DG.BMP,resources/DR.BMP,Door3,-0.325925933,-0.091666681,1,0,0,1.3796,optionLeft,70,13810,6,39,0,39,0,1,,,,,,,,,,,,,,,,,,,,,,,,,,,,,,,,,,,,,,,
,,,,,,,,2023-08-16_08h49.36.051,HF_wild_card,2022.2.4,Win32,60.33546519,62c47e133958edd348b6b525,64d2fd46c836a06233681665,64dc7f779f216525d4696221,,,,,,,decisionTrl,resources/DP.BMP,resources/DBN.BMP,Door2,-0.303703697,-0.067592586,1,0,0,0.8136,optionLeft,20,13830,6,40,0,40,0,1,,,,,,,,,,,,,,,,,,,,,,,,,,,,,,,,,,,,,,,
,,,,,,,,2023-08-16_08h49.36.051,HF_wild_card,2022.2.4,Win32,60.33546519,62c47e133958edd348b6b525,64d2fd46c836a06233681665,64dc7f779f216525d4696221,,,,,,,sngl,resources/Empty.png,resources/DP.BMP,Door2,0.272222236,0.076851845,1,0,0,0.9309,optionRight,40,13870,6,41,0,41,0,1,,,,,,,,,,,,,,,,,,,,,,,,,,,,,,,,,,,,,,,
,,,,,,,,2023-08-16_08h49.36.051,HF_wild_card,2022.2.4,Win32,60.33546519,62c47e133958edd348b6b525,64d2fd46c836a06233681665,64dc7f779f216525d4696221,,,,,,,decisionTrl,resources/DG.BMP,resources/DY.BMP,Door3,-0.27407406,-0.041666667,1,0,0,0.9315,optionLeft,70,13940,6,42,0,42,0,1,,,,,,,,,,,,,,,,,,,,,,,,,,,,,,,,,,,,,,,
,,,,,,,,2023-08-16_08h49.36.051,HF_wild_card,2022.2.4,Win32,60.33546519,62c47e133958edd348b6b525,64d2fd46c836a06233681665,64dc7f779f216525d4696221,,,,,,,decisionTrl,resources/DY.BMP,resources/DBN.BMP,WildCard_NonEx,-0.231481481,-0.062962956,1,0,0,0.8653,optionLeft,45,13985,6,43,0,43,0,1,,,,,,,,,,,,,,,,,,,,,,,,,,,,,,,,,,,,,,,
,,,,,,,,2023-08-16_08h49.36.051,HF_wild_card,2022.2.4,Win32,60.33546519,62c47e133958edd348b6b525,64d2fd46c836a06233681665,64dc7f779f216525d4696221,,,,,,,,,,,,,,,,,,,,,,,,,,5,0,5,0,1,,,,,,,,,,,,,,,,,,,,,,,,,,,,,,,,,,
,,,,,,,,2023-08-16_08h49.36.051,HF_wild_card,2022.2.4,Win32,60.33546519,62c47e133958edd348b6b525,64d2fd46c836a06233681665,64dc7f779f216525d4696221,,,,,,,decisionTrl,resources/DBN.BMP,resources/DP.BMP,Door2,0.188888903,-0.107407393,1,0,0,0.7509,optionRight,40,14025,7,0,0,0,0,1,,,,,,,,,,,,,,,,,,,,,,,,,,,,,,,,,,,,,,,
,,,,,,,,2023-08-16_08h49.36.051,HF_wild_card,2022.2.4,Win32,60.33546519,62c47e133958edd348b6b525,64d2fd46c836a06233681665,64dc7f779f216525d4696221,,,,,,,decisionTrl,resources/DP.BMP,resources/DBN.BMP,Door2,-0.242592564,-0.040740755,1,0,0,0.7485,optionLeft,40,14065,7,1,0,1,0,1,,,,,,,,,,,,,,,,,,,,,,,,,,,,,,,,,,,,,,,
,,,,,,,,2023-08-16_08h49.36.051,HF_wild_card,2022.2.4,Win32,60.33546519,62c47e133958edd348b6b525,64d2fd46c836a06233681665,64dc7f779f216525d4696221,,,,,,,decisionTrl,resources/DBN.BMP,resources/DP.BMP,Door1,-0.260185171,-0.079629651,1,0,0,1.2145,optionLeft,30,14095,7,2,0,2,0,1,,,,,,,,,,,,,,,,,,,,,,,,,,,,,,,,,,,,,,,
,,,,,,,,2023-08-16_08h49.36.051,HF_wild_card,2022.2.4,Win32,60.33546519,62c47e133958edd348b6b525,64d2fd46c836a06233681665,64dc7f779f216525d4696221,,,,,,,ctch,resources/DBN.BMP,resources/DR.BMP,Door4,0.142592607,-0.015740748,1,0,0,0.6816,optionRight,80,14175,7,3,0,3,0,1,,,,,,,,,,,,,,,,,,,,,,,,,,,,,,,,,,,,,,,
,,,,,,,,2023-08-16_08h49.36.051,HF_wild_card,2022.2.4,Win32,60.33546519,62c47e133958edd348b6b525,64d2fd46c836a06233681665,64dc7f779f216525d4696221,,,,,,,decisionTrl,resources/DG.BMP,resources/DR.BMP,Door3,-0.310185185,-0.065740762,1,0,0,0.7652,optionLeft,70,14245,7,4,0,4,0,1,,,,,,,,,,,,,,,,,,,,,,,,,,,,,,,,,,,,,,,
,,,,,,,,2023-08-16_08h49.36.051,HF_wild_card,2022.2.4,Win32,60.33546519,62c47e133958edd348b6b525,64d2fd46c836a06233681665,64dc7f779f216525d4696221,,,,,,,ctch,resources/DP.BMP,resources/DG.BMP,Door3,0.265740783,0.00462963,1,0,0,1.2157,optionRight,70,14315,7,5,0,5,0,1,,,,,,,,,,,,,,,,,,,,,,,,,,,,,,,,,,,,,,,
,,,,,,,,2023-08-16_08h49.36.051,HF_wild_card,2022.2.4,Win32,60.33546519,62c47e133958edd348b6b525,64d2fd46c836a06233681665,64dc7f779f216525d4696221,,,,,,,decisionTrl,resources/DG.BMP,resources/DR.BMP,Door3,-0.289814772,-0.056481503,1,0,0,0.7997,optionLeft,70,14385,7,6,0,6,0,1,,,,,,,,,,,,,,,,,,,,,,,,,,,,,,,,,,,,,,,
,,,,,,,,2023-08-16_08h49.36.051,HF_wild_card,2022.2.4,Win32,60.33546519,62c47e133958edd348b6b525,64d2fd46c836a06233681665,64dc7f779f216525d4696221,,,,,,,ctch,resources/DBN.BMP,resources/DR.BMP,Door4,0.252777806,0.072222215,1,0,0,0.9646,optionRight,80,14465,7,7,0,7,0,1,,,,,,,,,,,,,,,,,,,,,,,,,,,,,,,,,,,,,,,
,,,,,,,,2023-08-16_08h49.36.051,HF_wild_card,2022.2.4,Win32,60.33546519,62c47e133958edd348b6b525,64d2fd46c836a06233681665,64dc7f779f216525d4696221,,,,,,,ctch,resources/DP.BMP,resources/DG.BMP,Door3,0.250925912,0.020370377,0,0,1,1.0976,optionRight,70,14535,7,8,0,8,0,1,,,,,,,,,,,,,,,,,,,,,,,,,,,,,,,,,,,,,,,
,,,,,,,,2023-08-16_08h49.36.051,HF_wild_card,2022.2.4,Win32,60.33546519,62c47e133958edd348b6b525,64d2fd46c836a06233681665,64dc7f779f216525d4696221,,,,,,,decisionTrl,resources/DR.BMP,resources/DG.BMP,Door3,0.214814857,0.025925919,1,0,0,1.1306,optionRight,70,14605,7,9,0,9,0,1,,,,,,,,,,,,,,,,,,,,,,,,,,,,,,,,,,,,,,,
,,,,,,,,2023-08-16_08h49.36.051,HF_wild_card,2022.2.4,Win32,60.33546519,62c47e133958edd348b6b525,64d2fd46c836a06233681665,64dc7f779f216525d4696221,,,,,,,decisionTrl,resources/DG.BMP,resources/DR.BMP,Door3,-0.272222236,0.014814801,1,0,0,1.1152,optionLeft,70,14675,7,10,0,10,0,1,,,,,,,,,,,,,,,,,,,,,,,,,,,,,,,,,,,,,,,
,,,,,,,,2023-08-16_08h49.36.051,HF_wild_card,2022.2.4,Win32,60.33546519,62c47e133958edd348b6b525,64d2fd46c836a06233681665,64dc7f779f216525d4696221,,,,,,,decisionTrl,resources/DG.BMP,resources/DR.BMP,Door3,-0.284259231,-0.01666666,1,0,0,0.8652,optionLeft,70,14745,7,11,0,11,0,1,,,,,,,,,,,,,,,,,,,,,,,,,,,,,,,,,,,,,,,
,,,,,,,,2023-08-16_08h49.36.051,HF_wild_card,2022.2.4,Win32,60.33546519,62c47e133958edd348b6b525,64d2fd46c836a06233681665,64dc7f779f216525d4696221,,,,,,,ctch,resources/DR.BMP,resources/DBN.BMP,Door4,-0.263888889,-0.062037044,1,0,0,1.0646,optionLeft,60,14805,7,12,0,12,0,1,,,,,,,,,,,,,,,,,,,,,,,,,,,,,,,,,,,,,,,
,,,,,,,,2023-08-16_08h49.36.051,HF_wild_card,2022.2.4,Win32,60.33546519,62c47e133958edd348b6b525,64d2fd46c836a06233681665,64dc7f779f216525d4696221,,,,,,,decisionTrl,resources/DP.BMP,resources/DBN.BMP,Door2,-0.24537037,-0.048148155,1,0,0,0.8484,optionLeft,40,14845,7,13,0,13,0,1,,,,,,,,,,,,,,,,,,,,,,,,,,,,,,,,,,,,,,,
,,,,,,,,2023-08-16_08h49.36.051,HF_wild_card,2022.2.4,Win32,60.33546519,62c47e133958edd348b6b525,64d2fd46c836a06233681665,64dc7f779f216525d4696221,,,,,,,decisionTrl,resources/DP.BMP,resources/DBN.BMP,Door1,0.3648149,0.136111118,1,0,0,1.2376,optionRight,30,14875,7,14,0,14,0,1,,,,,,,,,,,,,,,,,,,,,,,,,,,,,,,,,,,,,,,
,,,,,,,,2023-08-16_08h49.36.051,HF_wild_card,2022.2.4,Win32,60.33546519,62c47e133958edd348b6b525,64d2fd46c836a06233681665,64dc7f779f216525d4696221,,,,,,,ctch,resources/DG.BMP,resources/DP.BMP,Door3,-0.172222208,-0.040740755,1,0,0,0.7985,optionLeft,70,14945,7,15,0,15,0,1,,,,,,,,,,,,,,,,,,,,,,,,,,,,,,,,,,,,,,,
,,,,,,,,2023-08-16_08h49.36.051,HF_wild_card,2022.2.4,Win32,60.33546519,62c47e133958edd348b6b525,64d2fd46c836a06233681665,64dc7f779f216525d4696221,,,,,,,ctch,resources/DBN.BMP,resources/DR.BMP,Door4,0.305555556,0.029629637,1,0,0,0.914,optionRight,80,15025,7,16,0,16,0,1,,,,,,,,,,,,,,,,,,,,,,,,,,,,,,,,,,,,,,,
,,,,,,,,2023-08-16_08h49.36.051,HF_wild_card,2022.2.4,Win32,60.33546519,62c47e133958edd348b6b525,64d2fd46c836a06233681665,64dc7f779f216525d4696221,,,,,,,decisionTrl,resources/DP.BMP,resources/DBN.BMP,Door2,-0.240740741,-0.057407414,1,0,0,0.8977,optionLeft,20,15045,7,17,0,17,0,1,,,,,,,,,,,,,,,,,,,,,,,,,,,,,,,,,,,,,,,
,,,,,,,,2023-08-16_08h49.36.051,HF_wild_card,2022.2.4,Win32,60.33546519,62c47e133958edd348b6b525,64d2fd46c836a06233681665,64dc7f779f216525d4696221,,,,,,,decisionTrl,resources/DBN.BMP,resources/DP.BMP,Door2,0.202777792,0.038888896,1,0,0,0.7827,optionRight,40,15085,7,18,0,18,0,1,,,,,,,,,,,,,,,,,,,,,,,,,,,,,,,,,,,,,,,
,,,,,,,,2023-08-16_08h49.36.051,HF_wild_card,2022.2.4,Win32,60.33546519,62c47e133958edd348b6b525,64d2fd46c836a06233681665,64dc7f779f216525d4696221,,,,,,,decisionTrl,resources/DP.BMP,resources/DBN.BMP,Door2,-0.22592594,-0.043518526,1,0,0,0.8477,optionLeft,20,15105,7,19,0,19,0,1,,,,,,,,,,,,,,,,,,,,,,,,,,,,,,,,,,,,,,,
,,,,,,,,2023-08-16_08h49.36.051,HF_wild_card,2022.2.4,Win32,60.33546519,62c47e133958edd348b6b525,64d2fd46c836a06233681665,64dc7f779f216525d4696221,,,,,,,ctch,resources/DG.BMP,resources/DP.BMP,Door3,-0.283333319,-0.061111132,1,0,0,0.9311,optionLeft,70,15175,7,20,0,20,0,1,,,,,,,,,,,,,,,,,,,,,,,,,,,,,,,,,,,,,,,
,,,,,,,,2023-08-16_08h49.36.051,HF_wild_card,2022.2.4,Win32,60.33546519,62c47e133958edd348b6b525,64d2fd46c836a06233681665,64dc7f779f216525d4696221,,,,,,,decisionTrl,resources/DR.BMP,resources/DG.BMP,Door3,0.24537037,0.039814808,0,0,1,1.3062,optionRight,70,15245,7,21,0,21,0,1,,,,,,,,,,,,,,,,,,,,,,,,,,,,,,,,,,,,,,,
,,,,,,,,2023-08-16_08h49.36.051,HF_wild_card,2022.2.4,Win32,60.33546519,62c47e133958edd348b6b525,64d2fd46c836a06233681665,64dc7f779f216525d4696221,,,,,,,decisionTrl,resources/DR.BMP,resources/DG.BMP,Door4,-0.232407393,-0.044444437,1,0,0,1.1155,optionLeft,60,15305,7,22,0,22,0,1,,,,,,,,,,,,,,,,,,,,,,,,,,,,,,,,,,,,,,,
,,,,,,,,2023-08-16_08h49.36.051,HF_wild_card,2022.2.4,Win32,60.33546519,62c47e133958edd348b6b525,64d2fd46c836a06233681665,64dc7f779f216525d4696221,,,,,,,decisionTrl,resources/DBN.BMP,resources/DP.BMP,Door2,0.308333362,0.060185185,1,0,0,1.0641,optionRight,40,15345,7,23,0,23,0,1,,,,,,,,,,,,,,,,,,,,,,,,,,,,,,,,,,,,,,,
,,,,,,,,2023-08-16_08h49.36.051,HF_wild_card,2022.2.4,Win32,60.33546519,62c47e133958edd348b6b525,64d2fd46c836a06233681665,64dc7f779f216525d4696221,,,,,,,decisionTrl,resources/DG.BMP,resources/DR.BMP,Door3,-0.273148148,0.001851859,1,0,0,0.9652,optionLeft,70,15415,7,24,0,24,0,1,,,,,,,,,,,,,,,,,,,,,,,,,,,,,,,,,,,,,,,
,,,,,,,,2023-08-16_08h49.36.051,HF_wild_card,2022.2.4,Win32,60.33546519,62c47e133958edd348b6b525,64d2fd46c836a06233681665,64dc7f779f216525d4696221,,,,,,,ctch,resources/DG.BMP,resources/DP.BMP,Door3,-0.294444402,-0.072222215,1,0,0,0.898,optionLeft,70,15485,7,25,0,25,0,1,,,,,,,,,,,,,,,,,,,,,,,,,,,,,,,,,,,,,,,
,,,,,,,,2023-08-16_08h49.36.051,HF_wild_card,2022.2.4,Win32,60.33546519,62c47e133958edd348b6b525,64d2fd46c836a06233681665,64dc7f779f216525d4696221,,,,,,,decisionTrl,resources/DBN.BMP,resources/DP.BMP,Door2,0.33148151,0.01666666,1,0,0,1.1644,optionRight,40,15525,7,26,0,26,0,1,,,,,,,,,,,,,,,,,,,,,,,,,,,,,,,,,,,,,,,
,,,,,,,,2023-08-16_08h49.36.051,HF_wild_card,2022.2.4,Win32,60.33546519,62c47e133958edd348b6b525,64d2fd46c836a06233681665,64dc7f779f216525d4696221,,,,,,,decisionTrl,resources/DR.BMP,resources/DG.BMP,Door3,0.309259344,0.006481489,1,0,0,1.465,optionRight,70,15595,7,27,0,27,0,1,,,,,,,,,,,,,,,,,,,,,,,,,,,,,,,,,,,,,,,
,,,,,,,,2023-08-16_08h49.36.051,HF_wild_card,2022.2.4,Win32,60.33546519,62c47e133958edd348b6b525,64d2fd46c836a06233681665,64dc7f779f216525d4696221,,,,,,,ctch,resources/DR.BMP,resources/DBN.BMP,Door4,-0.299999979,-0.078703704,1,0,0,0.9511,optionLeft,80,15675,7,28,0,28,0,1,,,,,,,,,,,,,,,,,,,,,,,,,,,,,,,,,,,,,,,
,,,,,,,,2023-08-16_08h49.36.051,HF_wild_card,2022.2.4,Win32,60.33546519,62c47e133958edd348b6b525,64d2fd46c836a06233681665,64dc7f779f216525d4696221,,,,,,,ctch,resources/DR.BMP,resources/DBN.BMP,Door4,-0.261111083,-0.050000014,1,0,0,0.7813,optionLeft,80,15755,7,29,0,29,0,1,,,,,,,,,,,,,,,,,,,,,,,,,,,,,,,,,,,,,,,
,,,,,,,,2023-08-16_08h49.36.051,HF_wild_card,2022.2.4,Win32,60.33546519,62c47e133958edd348b6b525,64d2fd46c836a06233681665,64dc7f779f216525d4696221,,,,,,,decisionTrl,resources/DG.BMP,resources/DR.BMP,Door3,-0.286111125,-0.050925926,1,0,0,1.2486,optionLeft,70,15825,7,30,0,30,0,1,,,,,,,,,,,,,,,,,,,,,,,,,,,,,,,,,,,,,,,
,,,,,,,,2023-08-16_08h49.36.051,HF_wild_card,2022.2.4,Win32,60.33546519,62c47e133958edd348b6b525,64d2fd46c836a06233681665,64dc7f779f216525d4696221,,,,,,,decisionTrl,resources/DR.BMP,resources/DG.BMP,Door3,0.309259344,0.062962956,1,0,0,0.8976,optionRight,70,15895,7,31,0,31,0,1,,,,,,,,,,,,,,,,,,,,,,,,,,,,,,,,,,,,,,,
,,,,,,,,2023-08-16_08h49.36.051,HF_wild_card,2022.2.4,Win32,60.33546519,62c47e133958edd348b6b525,64d2fd46c836a06233681665,64dc7f779f216525d4696221,,,,,,,decisionTrl,resources/DBN.BMP,resources/DP.BMP,Door1,-0.216666681,-0.024074095,1,0,0,1.231,optionLeft,30,15925,7,32,0,32,0,1,,,,,,,,,,,,,,,,,,,,,,,,,,,,,,,,,,,,,,,
,,,,,,,,2023-08-16_08h49.36.051,HF_wild_card,2022.2.4,Win32,60.33546519,62c47e133958edd348b6b525,64d2fd46c836a06233681665,64dc7f779f216525d4696221,,,,,,,decisionTrl,resources/DP.BMP,resources/DBN.BMP,Door2,-0.331481474,-0.040740755,1,0,0,0.7814,optionLeft,20,15945,7,33,0,33,0,1,,,,,,,,,,,,,,,,,,,,,,,,,,,,,,,,,,,,,,,
,,,,,,,,2023-08-16_08h49.36.051,HF_wild_card,2022.2.4,Win32,60.33546519,62c47e133958edd348b6b525,64d2fd46c836a06233681665,64dc7f779f216525d4696221,,,,,,,ctch,resources/DP.BMP,resources/DG.BMP,Door3,0.213888875,0.044444437,1,0,0,0.8477,optionRight,70,16015,7,34,0,34,0,1,,,,,,,,,,,,,,,,,,,,,,,,,,,,,,,,,,,,,,,
,,,,,,,,2023-08-16_08h49.36.051,HF_wild_card,2022.2.4,Win32,60.33546519,62c47e133958edd348b6b525,64d2fd46c836a06233681665,64dc7f779f216525d4696221,,,,,,,decisionTrl,resources/DR.BMP,resources/DG.BMP,Door3,0.226851852,0.054629608,1,0,0,0.8487,optionRight,70,16085,7,35,0,35,0,1,,,,,,,,,,,,,,,,,,,,,,,,,,,,,,,,,,,,,,,
,,,,,,,,2023-08-16_08h49.36.051,HF_wild_card,2022.2.4,Win32,60.33546519,62c47e133958edd348b6b525,64d2fd46c836a06233681665,64dc7f779f216525d4696221,,,,,,,,,,,,,,,,,,,,,,,,,,6,0,6,0,1,,,,,,,,,,,,,,,,,,,,,,,,,,,,,,,,,,
,,,,,,,,2023-08-16_08h49.36.051,HF_wild_card,2022.2.4,Win32,60.33546519,62c47e133958edd348b6b525,64d2fd46c836a06233681665,64dc7f779f216525d4696221,,,,,,,,,,,,,,,,,,,,,,,,,,,,,,,4,,,,,,,,,,,,,,,,,,,,,,,,,,,,,,,,,
,,,,,,,,2023-08-16_08h49.36.051,HF_wild_card,2022.2.4,Win32,60.33546519,62c47e133958edd348b6b525,64d2fd46c836a06233681665,64dc7f779f216525d4696221,,,,,,,,,,,,,,,,,,,,,,,,,,,,,,,,,,,,,,,,,,,,,,,,,,,,,,,,,,,,,,,,
,,,,,,,,2023-08-16_08h49.36.051,HF_wild_card,2022.2.4,Win32,60.33546519,62c47e133958edd348b6b525,64d2fd46c836a06233681665,64dc7f779f216525d4696221,,,,,,,,,,,,,,,,,,,,,,,,,,,,,,,,70,Door4,resources/DR.BMP,0,0,0,0,1,,,,,,,,,,,,,,,,,,,,,,,,,
,,,,,,,,2023-08-16_08h49.36.051,HF_wild_card,2022.2.4,Win32,60.33546519,62c47e133958edd348b6b525,64d2fd46c836a06233681665,64dc7f779f216525d4696221,,,,,,,,,,,,,,,,,,,,,,,,,,,,,,,,30,Door1,resources/DBN.BMP,1,0,1,0,1,,,,,,,,,,,,,,,,,,,,,,,,,
,,,,,,,,2023-08-16_08h49.36.051,HF_wild_card,2022.2.4,Win32,60.33546519,62c47e133958edd348b6b525,64d2fd46c836a06233681665,64dc7f779f216525d4696221,,,,,,,,,,,,,,,,,,,,,,,,,,,,,,,,65,WC_nonExtreme,resources/DY.BMP,2,0,2,0,1,,,,,,,,,,,,,,,,,,,,,,,,,
,,,,,,,,2023-08-16_08h49.36.051,HF_wild_card,2022.2.4,Win32,60.33546519,62c47e133958edd348b6b525,64d2fd46c836a06233681665,64dc7f779f216525d4696221,,,,,,,,,,,,,,,,,,,,,,,,,,,,,,,,65,Door2,resources/DP.BMP,3,0,3,0,1,,,,,,,,,,,,,,,,,,,,,,,,,
,,,,,,,,2023-08-16_08h49.36.051,HF_wild_card,2022.2.4,Win32,60.33546519,62c47e133958edd348b6b525,64d2fd46c836a06233681665,64dc7f779f216525d4696221,,,,,,,,,,,,,,,,,,,,,,,,,,,,,,,,75,Door3,resources/DG.BMP,4,0,4,0,1,,,,,,,,,,,,,,,,,,,,,,,,,
,,,,,,,,2023-08-16_08h49.36.051,HF_wild_card,2022.2.4,Win32,60.33546519,62c47e133958edd348b6b525,64d2fd46c836a06233681665,64dc7f779f216525d4696221,,,,,,,,,,,,,,,,,,,,,,,,,,,,,,,,55,WC_extreme,resources/DB.BMP,5,0,5,0,1,,,,,,,,,,,,,,,,,,,,,,,,,
,,,,,,,,2023-08-16_08h49.36.051,HF_wild_card,2022.2.4,Win32,60.33546519,62c47e133958edd348b6b525,64d2fd46c836a06233681665,64dc7f779f216525d4696221,,,,,,,,,,,,,,,,,,,,,,,,,,,,,,,,,,,,,,,,,,,,,,,,,,,,,,,,,,,,,,,,
