Condition,Low fixed image (Door1),Low risky image (Door2),High fixed image (Door3),High risky image (Door4),Extreme Wild Card,NonExtreme Wild Card,,date,expName,psychopyVersion,OS,frameRate,PROLIFIC_PID,STUDY_ID,SESSION_ID,mouse_2.x,mouse_2.y,mouse_2.leftButton,mouse_2.midButton,mouse_2.rightButton,mouse_2.clicked_name,Trial Type,Left Option Image,Right Option Image,Chosen Door,mouse.x,mouse.y,mouse.leftButton,mouse.midButton,mouse.rightButton,mouse.time,mouse.clicked_name,Feedback,Cumulative Reward,Block,trial.thisRepN,trial.thisTrialN,trial.thisN,trial.thisIndex,trial.ran,blocks.thisRepN,blocks.thisTrialN,blocks.thisN,blocks.thisIndex,blocks.ran,Money conversion,First Outcome Reported,Shown Door (First Outcome),Displayed Image (First Outcome),outcomes.thisRepN,outcomes.thisTrialN,outcomes.thisN,outcomes.thisIndex,outcomes.ran,judgments.thisRepN,judgments.thisTrialN,judgments.thisN,judgments.thisIndex,judgments.ran,freqMouse.x,freqMouse.y,freqMouse.leftButton,freqMouse.midButton,freqMouse.rightButton,freqMouse.clicked_name,trials.thisRepN,trials.thisTrialN,trials.thisN,trials.thisIndex,trials.ran,FQJ for first outcome,FQJ for second outcome,Shown Door,Displayed Image,judgBlock.thisRepN,judgBlock.thisTrialN,judgBlock.thisN,judgBlock.thisIndex,judgBlock.ran
0,resources/DG.BMP,resources/DR.BMP,resources/DP.BMP,resources/DBN.BMP,resources/DB.BMP,resources/DY.BMP,64275d22f204d1161ad23e64,2023-08-16_08h52.10.450,HF_wild_card,2022.2.4,Win32,59.89817311,64275d22f204d1161ad23e64,64d2fd46c836a06233681665,64dc7f5370a266150a1270de,,,,,,,,,,,,,,,,,,,,,,,,,,,,,,,,,,,,,,,,,,,,,,,,,,,,,,,,,,,,,,,,
,,,,,,,64275d22f204d1161ad23e64,2023-08-16_08h52.10.450,HF_wild_card,2022.2.4,Win32,59.89817311,64275d22f204d1161ad23e64,64d2fd46c836a06233681665,64dc7f5370a266150a1270de,0.010517173,-0.416363134,1,0,0,agree,,,,,,,,,,,,,,,,,,,,,,,,,,,,,,,,,,,,,,,,,,,,,,,,,,,,,,,,,,
,,,,,,,64275d22f204d1161ad23e64,2023-08-16_08h52.10.450,HF_wild_card,2022.2.4,Win32,59.89817311,64275d22f204d1161ad23e64,64d2fd46c836a06233681665,64dc7f5370a266150a1270de,,,,,,,,,,,,,,,,,,,,,,,,,,,,,,,,,,,,,,,,,,,,,,,,,,,,,,,,,,,,,,,,
,,,,,,,64275d22f204d1161ad23e64,2023-08-16_08h52.10.450,HF_wild_card,2022.2.4,Win32,59.89817311,64275d22f204d1161ad23e64,64d2fd46c836a06233681665,64dc7f5370a266150a1270de,,,,,,,decisionTrl,resources/DR.BMP,resources/DG.BMP,Door1,0.406917391,-0.057817337,1,0,0,5.4285,optionRight,30,30,1,0,0,0,0,1,,,,,,,,,,,,,,,,,,,,,,,,,,,,,,,,,,,,,,,
,,,,,,,64275d22f204d1161ad23e64,2023-08-16_08h52.10.450,HF_wild_card,2022.2.4,Win32,59.89817311,64275d22f204d1161ad23e64,64d2fd46c836a06233681665,64dc7f5370a266150a1270de,,,,,,,decisionTrl,resources/DBN.BMP,resources/DP.BMP,Door3,0.355492637,-0.022819838,1,0,0,4.2799,optionRight,70,100,1,1,0,1,0,1,,,,,,,,,,,,,,,,,,,,,,,,,,,,,,,,,,,,,,,
,,,,,,,64275d22f204d1161ad23e64,2023-08-16_08h52.10.450,HF_wild_card,2022.2.4,Win32,59.89817311,64275d22f204d1161ad23e64,64d2fd46c836a06233681665,64dc7f5370a266150a1270de,,,,,,,decisionTrl,resources/DG.BMP,resources/DR.BMP,Door2,0.324066162,0.017891546,1,0,0,5.8126,optionRight,40,140,1,2,0,2,0,1,,,,,,,,,,,,,,,,,,,,,,,,,,,,,,,,,,,,,,,
,,,,,,,64275d22f204d1161ad23e64,2023-08-16_08h52.10.450,HF_wild_card,2022.2.4,Win32,59.89817311,64275d22f204d1161ad23e64,64d2fd46c836a06233681665,64dc7f5370a266150a1270de,,,,,,,decisionTrl,resources/DG.BMP,resources/DR.BMP,Door1,-0.360170667,-0.013534758,1,0,0,3.1757,optionLeft,30,170,1,3,0,3,0,1,,,,,,,,,,,,,,,,,,,,,,,,,,,,,,,,,,,,,,,
,,,,,,,64275d22f204d1161ad23e64,2023-08-16_08h52.10.450,HF_wild_card,2022.2.4,Win32,59.89817311,64275d22f204d1161ad23e64,64d2fd46c836a06233681665,64dc7f5370a266150a1270de,,,,,,,decisionTrl,resources/DP.BMP,resources/DBN.BMP,Door3,-0.332315514,-0.07567318,1,0,0,1.8647,optionLeft,70,240,1,4,0,4,0,1,,,,,,,,,,,,,,,,,,,,,,,,,,,,,,,,,,,,,,,
,,,,,,,64275d22f204d1161ad23e64,2023-08-16_08h52.10.450,HF_wild_card,2022.2.4,Win32,59.89817311,64275d22f204d1161ad23e64,64d2fd46c836a06233681665,64dc7f5370a266150a1270de,,,,,,,decisionTrl,resources/DR.BMP,resources/DG.BMP,Door1,0.429772932,0.005749461,1,0,0,3.3636,optionRight,30,270,1,5,0,5,0,1,,,,,,,,,,,,,,,,,,,,,,,,,,,,,,,,,,,,,,,
,,,,,,,64275d22f204d1161ad23e64,2023-08-16_08h52.10.450,HF_wild_card,2022.2.4,Win32,59.89817311,64275d22f204d1161ad23e64,64d2fd46c836a06233681665,64dc7f5370a266150a1270de,,,,,,,sngl,resources/Empty.png,resources/DG.BMP,Door1,0.238358011,-0.007821001,1,0,0,1.931,optionRight,30,300,1,6,0,6,0,1,,,,,,,,,,,,,,,,,,,,,,,,,,,,,,,,,,,,,,,
,,,,,,,64275d22f204d1161ad23e64,2023-08-16_08h52.10.450,HF_wild_card,2022.2.4,Win32,59.89817311,64275d22f204d1161ad23e64,64d2fd46c836a06233681665,64dc7f5370a266150a1270de,,,,,,,sngl,resources/DB.BMP,resources/Empty.png,WildCard_Ex,0.223359089,0.024319662,1,0,0,3.3264,optionLeft,5,305,1,7,0,7,0,1,,,,,,,,,,,,,,,,,,,,,,,,,,,,,,,,,,,,,,,
,,,,,,,64275d22f204d1161ad23e64,2023-08-16_08h52.10.450,HF_wild_card,2022.2.4,Win32,59.89817311,64275d22f204d1161ad23e64,64d2fd46c836a06233681665,64dc7f5370a266150a1270de,,,,,,,ctch,resources/DR.BMP,resources/DP.BMP,Door3,0.358349473,0.005749461,1,0,0,3.863,optionRight,70,375,1,8,0,8,0,1,,,,,,,,,,,,,,,,,,,,,,,,,,,,,,,,,,,,,,,
,,,,,,,64275d22f204d1161ad23e64,2023-08-16_08h52.10.450,HF_wild_card,2022.2.4,Win32,59.89817311,64275d22f204d1161ad23e64,64d2fd46c836a06233681665,64dc7f5370a266150a1270de,,,,,,,decisionTrl,resources/DB.BMP,resources/DBN.BMP,WildCard_Ex,-0.325173168,-0.024248298,1,0,0,2.1974,optionLeft,95,470,1,9,0,9,0,1,,,,,,,,,,,,,,,,,,,,,,,,,,,,,,,,,,,,,,,
,,,,,,,64275d22f204d1161ad23e64,2023-08-16_08h52.10.450,HF_wild_card,2022.2.4,Win32,59.89817311,64275d22f204d1161ad23e64,64d2fd46c836a06233681665,64dc7f5370a266150a1270de,,,,,,,sngl,resources/Empty.png,resources/DBN.BMP,Door4,0.276212474,0.013606164,1,0,0,1.4484,optionRight,60,530,1,10,0,10,0,1,,,,,,,,,,,,,,,,,,,,,,,,,,,,,,,,,,,,,,,
,,,,,,,64275d22f204d1161ad23e64,2023-08-16_08h52.10.450,HF_wild_card,2022.2.4,Win32,59.89817311,64275d22f204d1161ad23e64,64d2fd46c836a06233681665,64dc7f5370a266150a1270de,,,,,,,decisionTrl,resources/DG.BMP,resources/DB.BMP,WildCard_Ex,0.391918469,0.025033892,1,0,0,2.6085,optionRight,95,625,1,11,0,11,0,1,,,,,,,,,,,,,,,,,,,,,,,,,,,,,,,,,,,,,,,
,,,,,,,64275d22f204d1161ad23e64,2023-08-16_08h52.10.450,HF_wild_card,2022.2.4,Win32,59.89817311,64275d22f204d1161ad23e64,64d2fd46c836a06233681665,64dc7f5370a266150a1270de,,,,,,,ctch,resources/DBN.BMP,resources/DG.BMP,Door4,-0.275176747,-0.001392885,1,0,0,3.4138,optionLeft,60,685,1,12,0,12,0,1,,,,,,,,,,,,,,,,,,,,,,,,,,,,,,,,,,,,,,,
,,,,,,,64275d22f204d1161ad23e64,2023-08-16_08h52.10.450,HF_wild_card,2022.2.4,Win32,59.89817311,64275d22f204d1161ad23e64,64d2fd46c836a06233681665,64dc7f5370a266150a1270de,,,,,,,decisionTrl,resources/DB.BMP,resources/DG.BMP,WildCard_Ex,-0.279462171,-0.001392885,1,0,0,1.8805,optionLeft,5,690,1,13,0,13,0,1,,,,,,,,,,,,,,,,,,,,,,,,,,,,,,,,,,,,,,,
,,,,,,,64275d22f204d1161ad23e64,2023-08-16_08h52.10.450,HF_wild_card,2022.2.4,Win32,59.89817311,64275d22f204d1161ad23e64,64d2fd46c836a06233681665,64dc7f5370a266150a1270de,,,,,,,decisionTrl,resources/DG.BMP,resources/DR.BMP,Door2,0.369063183,0.015748855,1,0,0,2.0582,optionRight,40,730,1,14,0,14,0,1,,,,,,,,,,,,,,,,,,,,,,,,,,,,,,,,,,,,,,,
,,,,,,,64275d22f204d1161ad23e64,2023-08-16_08h52.10.450,HF_wild_card,2022.2.4,Win32,59.89817311,64275d22f204d1161ad23e64,64d2fd46c836a06233681665,64dc7f5370a266150a1270de,,,,,,,sngl,resources/Empty.png,resources/DB.BMP,WildCard_Ex,0.339065339,-0.001392885,1,0,0,1.2146,optionRight,95,825,1,15,0,15,0,1,,,,,,,,,,,,,,,,,,,,,,,,,,,,,,,,,,,,,,,
,,,,,,,64275d22f204d1161ad23e64,2023-08-16_08h52.10.450,HF_wild_card,2022.2.4,Win32,59.89817311,64275d22f204d1161ad23e64,64d2fd46c836a06233681665,64dc7f5370a266150a1270de,,,,,,,sngl,resources/Empty.png,resources/DB.BMP,WildCard_Ex,0.333351242,0.012177619,1,0,0,2.1145,optionRight,5,830,1,16,0,16,0,1,,,,,,,,,,,,,,,,,,,,,,,,,,,,,,,,,,,,,,,
,,,,,,,64275d22f204d1161ad23e64,2023-08-16_08h52.10.450,HF_wild_card,2022.2.4,Win32,59.89817311,64275d22f204d1161ad23e64,64d2fd46c836a06233681665,64dc7f5370a266150a1270de,,,,,,,sngl,resources/Empty.png,resources/DP.BMP,Door3,0.325494878,-0.009249376,1,0,0,1.6644,optionRight,70,900,1,17,0,17,0,1,,,,,,,,,,,,,,,,,,,,,,,,,,,,,,,,,,,,,,,
,,,,,,,64275d22f204d1161ad23e64,2023-08-16_08h52.10.450,HF_wild_card,2022.2.4,Win32,59.89817311,64275d22f204d1161ad23e64,64d2fd46c836a06233681665,64dc7f5370a266150a1270de,,,,,,,decisionTrl,resources/DP.BMP,resources/DB.BMP,Door3,-0.463020431,-0.007821001,1,0,0,3.1633,optionLeft,70,970,1,18,0,18,0,1,,,,,,,,,,,,,,,,,,,,,,,,,,,,,,,,,,,,,,,
,,,,,,,64275d22f204d1161ad23e64,2023-08-16_08h52.10.450,HF_wild_card,2022.2.4,Win32,59.89817311,64275d22f204d1161ad23e64,64d2fd46c836a06233681665,64dc7f5370a266150a1270de,,,,,,,decisionTrl,resources/DR.BMP,resources/DG.BMP,Door2,-0.346600206,-0.020677104,1,0,0,2.5314,optionLeft,40,1010,1,19,0,19,0,1,,,,,,,,,,,,,,,,,,,,,,,,,,,,,,,,,,,,,,,
,,,,,,,64275d22f204d1161ad23e64,2023-08-16_08h52.10.450,HF_wild_card,2022.2.4,Win32,59.89817311,64275d22f204d1161ad23e64,64d2fd46c836a06233681665,64dc7f5370a266150a1270de,,,,,,,decisionTrl,resources/DBN.BMP,resources/DP.BMP,Door3,0.384776166,-0.014963347,1,0,0,2.5643,optionRight,70,1080,1,20,0,20,0,1,,,,,,,,,,,,,,,,,,,,,,,,,,,,,,,,,,,,,,,
,,,,,,,64275d22f204d1161ad23e64,2023-08-16_08h52.10.450,HF_wild_card,2022.2.4,Win32,59.89817311,64275d22f204d1161ad23e64,64d2fd46c836a06233681665,64dc7f5370a266150a1270de,,,,,,,ctch,resources/DG.BMP,resources/DBN.BMP,Door1,-0.34945717,-0.024962529,1,0,0,2.3314,optionLeft,30,1110,1,21,0,21,0,1,,,,,,,,,,,,,,,,,,,,,,,,,,,,,,,,,,,,,,,
,,,,,,,64275d22f204d1161ad23e64,2023-08-16_08h52.10.450,HF_wild_card,2022.2.4,Win32,59.89817311,64275d22f204d1161ad23e64,64d2fd46c836a06233681665,64dc7f5370a266150a1270de,,,,,,,sngl,resources/DG.BMP,resources/Empty.png,Door1,-0.288747208,-0.003535491,1,0,0,1.1978,optionLeft,30,1140,1,22,0,22,0,1,,,,,,,,,,,,,,,,,,,,,,,,,,,,,,,,,,,,,,,
,,,,,,,64275d22f204d1161ad23e64,2023-08-16_08h52.10.450,HF_wild_card,2022.2.4,Win32,59.89817311,64275d22f204d1161ad23e64,64d2fd46c836a06233681665,64dc7f5370a266150a1270de,,,,,,,ctch,resources/DR.BMP,resources/DP.BMP,Door3,0.34120803,-0.012820528,1,0,0,3.8798,optionRight,70,1210,1,23,0,23,0,1,,,,,,,,,,,,,,,,,,,,,,,,,,,,,,,,,,,,,,,
,,,,,,,64275d22f204d1161ad23e64,2023-08-16_08h52.10.450,HF_wild_card,2022.2.4,Win32,59.89817311,64275d22f204d1161ad23e64,64d2fd46c836a06233681665,64dc7f5370a266150a1270de,,,,,,,sngl,resources/DB.BMP,resources/Empty.png,WildCard_Ex,-0.357313746,-0.057103149,1,0,0,1.2976,optionLeft,95,1305,1,24,0,24,0,1,,,,,,,,,,,,,,,,,,,,,,,,,,,,,,,,,,,,,,,
,,,,,,,64275d22f204d1161ad23e64,2023-08-16_08h52.10.450,HF_wild_card,2022.2.4,Win32,59.89817311,64275d22f204d1161ad23e64,64d2fd46c836a06233681665,64dc7f5370a266150a1270de,,,,,,,decisionTrl,resources/DP.BMP,resources/DBN.BMP,Door4,0.424773405,0.069316471,1,0,0,2.2812,optionRight,60,1365,1,25,0,25,0,1,,,,,,,,,,,,,,,,,,,,,,,,,,,,,,,,,,,,,,,
,,,,,,,64275d22f204d1161ad23e64,2023-08-16_08h52.10.450,HF_wild_card,2022.2.4,Win32,59.89817311,64275d22f204d1161ad23e64,64d2fd46c836a06233681665,64dc7f5370a266150a1270de,,,,,,,decisionTrl,resources/DBN.BMP,resources/DB.BMP,Door4,-0.288032978,-0.009249376,1,0,0,1.5625,optionLeft,60,1425,1,26,0,26,0,1,,,,,,,,,,,,,,,,,,,,,,,,,,,,,,,,,,,,,,,
,,,,,,,64275d22f204d1161ad23e64,2023-08-16_08h52.10.450,HF_wild_card,2022.2.4,Win32,59.89817311,64275d22f204d1161ad23e64,64d2fd46c836a06233681665,64dc7f5370a266150a1270de,,,,,,,ctch,resources/DP.BMP,resources/DR.BMP,Door3,-0.328030132,-0.024962529,1,0,0,1.9645,optionLeft,70,1495,1,27,0,27,0,1,,,,,,,,,,,,,,,,,,,,,,,,,,,,,,,,,,,,,,,
,,,,,,,64275d22f204d1161ad23e64,2023-08-16_08h52.10.450,HF_wild_card,2022.2.4,Win32,59.89817311,64275d22f204d1161ad23e64,64d2fd46c836a06233681665,64dc7f5370a266150a1270de,,,,,,,ctch,resources/DBN.BMP,resources/DG.BMP,Door1,0.301924937,0.030033547,1,0,0,3.7806,optionRight,30,1525,1,28,0,28,0,1,,,,,,,,,,,,,,,,,,,,,,,,,,,,,,,,,,,,,,,
,,,,,,,64275d22f204d1161ad23e64,2023-08-16_08h52.10.450,HF_wild_card,2022.2.4,Win32,59.89817311,64275d22f204d1161ad23e64,64d2fd46c836a06233681665,64dc7f5370a266150a1270de,,,,,,,decisionTrl,resources/DR.BMP,resources/DG.BMP,Door2,-0.308745785,-0.02639099,1,0,0,1.3145,optionLeft,40,1565,1,29,0,29,0,1,,,,,,,,,,,,,,,,,,,,,,,,,,,,,,,,,,,,,,,
,,,,,,,64275d22f204d1161ad23e64,2023-08-16_08h52.10.450,HF_wild_card,2022.2.4,Win32,59.89817311,64275d22f204d1161ad23e64,64d2fd46c836a06233681665,64dc7f5370a266150a1270de,,,,,,,decisionTrl,resources/DP.BMP,resources/DBN.BMP,Door3,-0.351599861,-0.036390299,1,0,0,1.5468,optionLeft,70,1635,1,30,0,30,0,1,,,,,,,,,,,,,,,,,,,,,,,,,,,,,,,,,,,,,,,
,,,,,,,64275d22f204d1161ad23e64,2023-08-16_08h52.10.450,HF_wild_card,2022.2.4,Win32,59.89817311,64275d22f204d1161ad23e64,64d2fd46c836a06233681665,64dc7f5370a266150a1270de,,,,,,,decisionTrl,resources/DBN.BMP,resources/DP.BMP,Door3,0.366920492,-0.015677492,1,0,0,1.4314,optionRight,70,1705,1,31,0,31,0,1,,,,,,,,,,,,,,,,,,,,,,,,,,,,,,,,,,,,,,,
,,,,,,,64275d22f204d1161ad23e64,2023-08-16_08h52.10.450,HF_wild_card,2022.2.4,Win32,59.89817311,64275d22f204d1161ad23e64,64d2fd46c836a06233681665,64dc7f5370a266150a1270de,,,,,,,decisionTrl,resources/DP.BMP,resources/DBN.BMP,Door3,-0.372312668,-0.030676414,1,0,0,1.3315,optionLeft,70,1775,1,32,0,32,0,1,,,,,,,,,,,,,,,,,,,,,,,,,,,,,,,,,,,,,,,
,,,,,,,64275d22f204d1161ad23e64,2023-08-16_08h52.10.450,HF_wild_card,2022.2.4,Win32,59.89817311,64275d22f204d1161ad23e64,64d2fd46c836a06233681665,64dc7f5370a266150a1270de,,,,,,,decisionTrl,resources/DB.BMP,resources/DR.BMP,WildCard_Ex,-0.396596669,0.005749461,1,0,0,1.7963,optionLeft,95,1870,1,33,0,33,0,1,,,,,,,,,,,,,,,,,,,,,,,,,,,,,,,,,,,,,,,
,,,,,,,64275d22f204d1161ad23e64,2023-08-16_08h52.10.450,HF_wild_card,2022.2.4,Win32,59.89817311,64275d22f204d1161ad23e64,64d2fd46c836a06233681665,64dc7f5370a266150a1270de,,,,,,,sngl,resources/DBN.BMP,resources/Empty.png,Door4,-0.290889899,-0.010677837,1,0,0,1.1816,optionLeft,80,1950,1,34,0,34,0,1,,,,,,,,,,,,,,,,,,,,,,,,,,,,,,,,,,,,,,,
,,,,,,,64275d22f204d1161ad23e64,2023-08-16_08h52.10.450,HF_wild_card,2022.2.4,Win32,59.89817311,64275d22f204d1161ad23e64,64d2fd46c836a06233681665,64dc7f5370a266150a1270de,,,,,,,ctch,resources/DG.BMP,resources/DBN.BMP,Door4,0.337636624,0.02074851,1,0,0,1.3156,optionRight,60,2010,1,35,0,35,0,1,,,,,,,,,,,,,,,,,,,,,,,,,,,,,,,,,,,,,,,
,,,,,,,64275d22f204d1161ad23e64,2023-08-16_08h52.10.450,HF_wild_card,2022.2.4,Win32,59.89817311,64275d22f204d1161ad23e64,64d2fd46c836a06233681665,64dc7f5370a266150a1270de,,,,,,,decisionTrl,resources/DB.BMP,resources/DP.BMP,WildCard_Ex,-0.453735437,-0.019248644,1,0,0,1.6626,optionLeft,5,2015,1,36,0,36,0,1,,,,,,,,,,,,,,,,,,,,,,,,,,,,,,,,,,,,,,,
,,,,,,,64275d22f204d1161ad23e64,2023-08-16_08h52.10.450,HF_wild_card,2022.2.4,Win32,59.89817311,64275d22f204d1161ad23e64,64d2fd46c836a06233681665,64dc7f5370a266150a1270de,,,,,,,decisionTrl,resources/DBN.BMP,resources/DP.BMP,Door3,0.388347318,-0.028533808,1,0,0,2.4142,optionRight,70,2085,1,37,0,37,0,1,,,,,,,,,,,,,,,,,,,,,,,,,,,,,,,,,,,,,,,
,,,,,,,64275d22f204d1161ad23e64,2023-08-16_08h52.10.450,HF_wild_card,2022.2.4,Win32,59.89817311,64275d22f204d1161ad23e64,64d2fd46c836a06233681665,64dc7f5370a266150a1270de,,,,,,,ctch,resources/DP.BMP,resources/DR.BMP,Door2,0.316209628,0.023605432,1,0,0,1.9981,optionRight,40,2125,1,38,0,38,0,1,,,,,,,,,,,,,,,,,,,,,,,,,,,,,,,,,,,,,,,
,,,,,,,64275d22f204d1161ad23e64,2023-08-16_08h52.10.450,HF_wild_card,2022.2.4,Win32,59.89817311,64275d22f204d1161ad23e64,64d2fd46c836a06233681665,64dc7f5370a266150a1270de,,,,,,,decisionTrl,resources/DR.BMP,resources/DB.BMP,WildCard_Ex,0.329065859,-0.007821001,1,0,0,1.9626,optionRight,5,2130,1,39,0,39,0,1,,,,,,,,,,,,,,,,,,,,,,,,,,,,,,,,,,,,,,,
,,,,,,,64275d22f204d1161ad23e64,2023-08-16_08h52.10.450,HF_wild_card,2022.2.4,Win32,59.89817311,64275d22f204d1161ad23e64,64d2fd46c836a06233681665,64dc7f5370a266150a1270de,,,,,,,decisionTrl,resources/DG.BMP,resources/DR.BMP,Door2,0.387633087,0.032176238,1,0,0,1.9477,optionRight,40,2170,1,40,0,40,0,1,,,,,,,,,,,,,,,,,,,,,,,,,,,,,,,,,,,,,,,
,,,,,,,64275d22f204d1161ad23e64,2023-08-16_08h52.10.450,HF_wild_card,2022.2.4,Win32,59.89817311,64275d22f204d1161ad23e64,64d2fd46c836a06233681665,64dc7f5370a266150a1270de,,,,,,,sngl,resources/DR.BMP,resources/Empty.png,Door2,-0.390168554,-0.036390299,1,0,0,1.0266,optionLeft,40,2210,1,41,0,41,0,1,,,,,,,,,,,,,,,,,,,,,,,,,,,,,,,,,,,,,,,
,,,,,,,64275d22f204d1161ad23e64,2023-08-16_08h52.10.450,HF_wild_card,2022.2.4,Win32,59.89817311,64275d22f204d1161ad23e64,64d2fd46c836a06233681665,64dc7f5370a266150a1270de,,,,,,,sngl,resources/Empty.png,resources/DR.BMP,Door2,0.264784704,0.020034152,1,0,0,1.2144,optionRight,20,2230,1,42,0,42,0,1,,,,,,,,,,,,,,,,,,,,,,,,,,,,,,,,,,,,,,,
,,,,,,,64275d22f204d1161ad23e64,2023-08-16_08h52.10.450,HF_wild_card,2022.2.4,Win32,59.89817311,64275d22f204d1161ad23e64,64d2fd46c836a06233681665,64dc7f5370a266150a1270de,,,,,,,sngl,resources/DP.BMP,resources/Empty.png,Door3,-0.38731159,-0.063531307,1,0,0,1.0816,optionLeft,70,2300,1,43,0,43,0,1,,,,,,,,,,,,,,,,,,,,,,,,,,,,,,,,,,,,,,,
,,,,,,,64275d22f204d1161ad23e64,2023-08-16_08h52.10.450,HF_wild_card,2022.2.4,Win32,59.89817311,64275d22f204d1161ad23e64,64d2fd46c836a06233681665,64dc7f5370a266150a1270de,,,,,,,,,,,,,,,,,,,,,,,,,,0,0,0,0,1,,,,,,,,,,,,,,,,,,,,,,,,,,,,,,,,,,
,,,,,,,64275d22f204d1161ad23e64,2023-08-16_08h52.10.450,HF_wild_card,2022.2.4,Win32,59.89817311,64275d22f204d1161ad23e64,64d2fd46c836a06233681665,64dc7f5370a266150a1270de,,,,,,,sngl,resources/Empty.png,resources/DR.BMP,Door2,0.338351109,-0.044961106,1,0,0,1.7417,optionRight,40,2340,2,0,0,0,0,1,,,,,,,,,,,,,,,,,,,,,,,,,,,,,,,,,,,,,,,
,,,,,,,64275d22f204d1161ad23e64,2023-08-16_08h52.10.450,HF_wild_card,2022.2.4,Win32,59.89817311,64275d22f204d1161ad23e64,64d2fd46c836a06233681665,64dc7f5370a266150a1270de,,,,,,,sngl,resources/DP.BMP,resources/Empty.png,Door3,-0.30231767,-0.017105953,1,0,0,1.8309,optionLeft,70,2410,2,1,0,1,0,1,,,,,,,,,,,,,,,,,,,,,,,,,,,,,,,,,,,,,,,
,,,,,,,64275d22f204d1161ad23e64,2023-08-16_08h52.10.450,HF_wild_card,2022.2.4,Win32,59.89817311,64275d22f204d1161ad23e64,64d2fd46c836a06233681665,64dc7f5370a266150a1270de,,,,,,,sngl,resources/Empty.png,resources/DB.BMP,WildCard_Ex,0.318352319,0.030747778,1,0,0,1.7479,optionRight,5,2415,2,2,0,2,0,1,,,,,,,,,,,,,,,,,,,,,,,,,,,,,,,,,,,,,,,
,,,,,,,64275d22f204d1161ad23e64,2023-08-16_08h52.10.450,HF_wild_card,2022.2.4,Win32,59.89817311,64275d22f204d1161ad23e64,64d2fd46c836a06233681665,64dc7f5370a266150a1270de,,,,,,,decisionTrl,resources/DP.BMP,resources/DBN.BMP,Door3,-0.288032978,-0.002821261,1,0,0,2.714,optionLeft,70,2485,2,3,0,3,0,1,,,,,,,,,,,,,,,,,,,,,,,,,,,,,,,,,,,,,,,
,,,,,,,64275d22f204d1161ad23e64,2023-08-16_08h52.10.450,HF_wild_card,2022.2.4,Win32,59.89817311,64275d22f204d1161ad23e64,64d2fd46c836a06233681665,64dc7f5370a266150a1270de,,,,,,,decisionTrl,resources/DBN.BMP,resources/DP.BMP,Door4,-0.393739706,0.026462268,1,0,0,2.2984,optionLeft,60,2545,2,4,0,4,0,1,,,,,,,,,,,,,,,,,,,,,,,,,,,,,,,,,,,,,,,
,,,,,,,64275d22f204d1161ad23e64,2023-08-16_08h52.10.450,HF_wild_card,2022.2.4,Win32,59.89817311,64275d22f204d1161ad23e64,64d2fd46c836a06233681665,64dc7f5370a266150a1270de,,,,,,,ctch,resources/DBN.BMP,resources/DG.BMP,Door1,0.321209241,-0.010677837,1,0,0,1.8256,optionRight,30,2575,2,5,0,5,0,1,,,,,,,,,,,,,,,,,,,,,,,,,,,,,,,,,,,,,,,
,,,,,,,64275d22f204d1161ad23e64,2023-08-16_08h52.10.450,HF_wild_card,2022.2.4,Win32,59.89817311,64275d22f204d1161ad23e64,64d2fd46c836a06233681665,64dc7f5370a266150a1270de,,,,,,,decisionTrl,resources/DP.BMP,resources/DBN.BMP,Door3,-0.494446757,-0.048532385,1,0,0,1.6479,optionLeft,70,2645,2,6,0,6,0,1,,,,,,,,,,,,,,,,,,,,,,,,,,,,,,,,,,,,,,,
,,,,,,,64275d22f204d1161ad23e64,2023-08-16_08h52.10.450,HF_wild_card,2022.2.4,Win32,59.89817311,64275d22f204d1161ad23e64,64d2fd46c836a06233681665,64dc7f5370a266150a1270de,,,,,,,sngl,resources/DR.BMP,resources/Empty.png,Door2,-0.295889554,-0.004963952,1,0,0,1.0808,optionLeft,20,2665,2,7,0,7,0,1,,,,,,,,,,,,,,,,,,,,,,,,,,,,,,,,,,,,,,,
,,,,,,,64275d22f204d1161ad23e64,2023-08-16_08h52.10.450,HF_wild_card,2022.2.4,Win32,59.89817311,64275d22f204d1161ad23e64,64d2fd46c836a06233681665,64dc7f5370a266150a1270de,,,,,,,sngl,resources/DG.BMP,resources/Empty.png,Door1,-0.257320776,-0.012106298,1,0,0,1.1815,optionLeft,30,2695,2,8,0,8,0,1,,,,,,,,,,,,,,,,,,,,,,,,,,,,,,,,,,,,,,,
,,,,,,,64275d22f204d1161ad23e64,2023-08-16_08h52.10.450,HF_wild_card,2022.2.4,Win32,59.89817311,64275d22f204d1161ad23e64,64d2fd46c836a06233681665,64dc7f5370a266150a1270de,,,,,,,decisionTrl,resources/DR.BMP,resources/DB.BMP,Door2,-0.333029702,-0.015677492,1,0,0,2.1309,optionLeft,20,2715,2,9,0,9,0,1,,,,,,,,,,,,,,,,,,,,,,,,,,,,,,,,,,,,,,,
,,,,,,,64275d22f204d1161ad23e64,2023-08-16_08h52.10.450,HF_wild_card,2022.2.4,Win32,59.89817311,64275d22f204d1161ad23e64,64d2fd46c836a06233681665,64dc7f5370a266150a1270de,,,,,,,decisionTrl,resources/DBN.BMP,resources/DB.BMP,Door4,-0.373026898,-0.005678182,1,0,0,1.4145,optionLeft,80,2795,2,10,0,10,0,1,,,,,,,,,,,,,,,,,,,,,,,,,,,,,,,,,,,,,,,
,,,,,,,64275d22f204d1161ad23e64,2023-08-16_08h52.10.450,HF_wild_card,2022.2.4,Win32,59.89817311,64275d22f204d1161ad23e64,64d2fd46c836a06233681665,64dc7f5370a266150a1270de,,,,,,,decisionTrl,resources/DG.BMP,resources/DR.BMP,Door1,-0.270891237,-0.004249722,1,0,0,2.3929,optionLeft,30,2825,2,11,0,11,0,1,,,,,,,,,,,,,,,,,,,,,,,,,,,,,,,,,,,,,,,
,,,,,,,64275d22f204d1161ad23e64,2023-08-16_08h52.10.450,HF_wild_card,2022.2.4,Win32,59.89817311,64275d22f204d1161ad23e64,64d2fd46c836a06233681665,64dc7f5370a266150a1270de,,,,,,,decisionTrl,resources/DG.BMP,resources/DB.BMP,WildCard_Ex,0.371919935,0.060031391,1,0,0,3.1642,optionRight,5,2830,2,12,0,12,0,1,,,,,,,,,,,,,,,,,,,,,,,,,,,,,,,,,,,,,,,
,,,,,,,64275d22f204d1161ad23e64,2023-08-16_08h52.10.450,HF_wild_card,2022.2.4,Win32,59.89817311,64275d22f204d1161ad23e64,64d2fd46c836a06233681665,64dc7f5370a266150a1270de,,,,,,,decisionTrl,resources/DB.BMP,resources/DG.BMP,Door1,0.43548703,0.096457394,1,0,0,1.2974,optionRight,30,2860,2,13,0,13,0,1,,,,,,,,,,,,,,,,,,,,,,,,,,,,,,,,,,,,,,,
,,,,,,,64275d22f204d1161ad23e64,2023-08-16_08h52.10.450,HF_wild_card,2022.2.4,Win32,59.89817311,64275d22f204d1161ad23e64,64d2fd46c836a06233681665,64dc7f5370a266150a1270de,,,,,,,sngl,resources/DBN.BMP,resources/Empty.png,Door4,-0.325887398,-0.024248298,1,0,0,0.8974,optionLeft,60,2920,2,14,0,14,0,1,,,,,,,,,,,,,,,,,,,,,,,,,,,,,,,,,,,,,,,
,,,,,,,64275d22f204d1161ad23e64,2023-08-16_08h52.10.450,HF_wild_card,2022.2.4,Win32,59.89817311,64275d22f204d1161ad23e64,64d2fd46c836a06233681665,64dc7f5370a266150a1270de,,,,,,,decisionTrl,resources/DR.BMP,resources/DG.BMP,Door2,-0.312316895,0.002178394,1,0,0,3.2805,optionLeft,40,2960,2,15,0,15,0,1,,,,,,,,,,,,,,,,,,,,,,,,,,,,,,,,,,,,,,,
,,,,,,,64275d22f204d1161ad23e64,2023-08-16_08h52.10.450,HF_wild_card,2022.2.4,Win32,59.89817311,64275d22f204d1161ad23e64,64d2fd46c836a06233681665,64dc7f5370a266150a1270de,,,,,,,ctch,resources/DP.BMP,resources/DR.BMP,Door2,0.419773622,0.025748123,1,0,0,3.9803,optionRight,40,3000,2,16,0,16,0,1,,,,,,,,,,,,,,,,,,,,,,,,,,,,,,,,,,,,,,,
,,,,,,,64275d22f204d1161ad23e64,2023-08-16_08h52.10.450,HF_wild_card,2022.2.4,Win32,59.89817311,64275d22f204d1161ad23e64,64d2fd46c836a06233681665,64dc7f5370a266150a1270de,,,,,,,ctch,resources/DG.BMP,resources/DBN.BMP,Door4,0.353350031,0.0578887,1,0,0,2.831,optionRight,60,3060,2,17,0,17,0,1,,,,,,,,,,,,,,,,,,,,,,,,,,,,,,,,,,,,,,,
,,,,,,,64275d22f204d1161ad23e64,2023-08-16_08h52.10.450,HF_wild_card,2022.2.4,Win32,59.89817311,64275d22f204d1161ad23e64,64d2fd46c836a06233681665,64dc7f5370a266150a1270de,,,,,,,decisionTrl,resources/DG.BMP,resources/DR.BMP,Door1,-0.298032245,-0.024248298,1,0,0,3.464,optionLeft,30,3090,2,18,0,18,0,1,,,,,,,,,,,,,,,,,,,,,,,,,,,,,,,,,,,,,,,
,,,,,,,64275d22f204d1161ad23e64,2023-08-16_08h52.10.450,HF_wild_card,2022.2.4,Win32,59.89817311,64275d22f204d1161ad23e64,64d2fd46c836a06233681665,64dc7f5370a266150a1270de,,,,,,,decisionTrl,resources/DG.BMP,resources/DR.BMP,Door2,0.306924549,0.021462741,1,0,0,1.0146,optionRight,40,3130,2,19,0,19,0,1,,,,,,,,,,,,,,,,,,,,,,,,,,,,,,,,,,,,,,,
,,,,,,,64275d22f204d1161ad23e64,2023-08-16_08h52.10.450,HF_wild_card,2022.2.4,Win32,59.89817311,64275d22f204d1161ad23e64,64d2fd46c836a06233681665,64dc7f5370a266150a1270de,,,,,,,decisionTrl,resources/DBN.BMP,resources/DP.BMP,Door4,-0.28589016,0.00932074,1,0,0,2.0807,optionLeft,80,3210,2,20,0,20,0,1,,,,,,,,,,,,,,,,,,,,,,,,,,,,,,,,,,,,,,,
,,,,,,,64275d22f204d1161ad23e64,2023-08-16_08h52.10.450,HF_wild_card,2022.2.4,Win32,59.89817311,64275d22f204d1161ad23e64,64d2fd46c836a06233681665,64dc7f5370a266150a1270de,,,,,,,decisionTrl,resources/DB.BMP,resources/DBN.BMP,Door4,0.233358399,0.024319662,1,0,0,1.131,optionRight,80,3290,2,21,0,21,0,1,,,,,,,,,,,,,,,,,,,,,,,,,,,,,,,,,,,,,,,
,,,,,,,64275d22f204d1161ad23e64,2023-08-16_08h52.10.450,HF_wild_card,2022.2.4,Win32,59.89817311,64275d22f204d1161ad23e64,64d2fd46c836a06233681665,64dc7f5370a266150a1270de,,,,,,,sngl,resources/Empty.png,resources/DBN.BMP,Door4,0.215502726,0.055031779,1,0,0,1.1145,optionRight,80,3370,2,22,0,22,0,1,,,,,,,,,,,,,,,,,,,,,,,,,,,,,,,,,,,,,,,
,,,,,,,64275d22f204d1161ad23e64,2023-08-16_08h52.10.450,HF_wild_card,2022.2.4,Win32,59.89817311,64275d22f204d1161ad23e64,64d2fd46c836a06233681665,64dc7f5370a266150a1270de,,,,,,,decisionTrl,resources/DR.BMP,resources/DG.BMP,Door2,-0.335886708,0.001464164,1,0,0,3.9967,optionLeft,20,3390,2,23,0,23,0,1,,,,,,,,,,,,,,,,,,,,,,,,,,,,,,,,,,,,,,,
,,,,,,,64275d22f204d1161ad23e64,2023-08-16_08h52.10.450,HF_wild_card,2022.2.4,Win32,59.89817311,64275d22f204d1161ad23e64,64d2fd46c836a06233681665,64dc7f5370a266150a1270de,,,,,,,decisionTrl,resources/DP.BMP,resources/DB.BMP,Door3,-0.356599516,-0.045675336,1,0,0,1.6311,optionLeft,70,3460,2,24,0,24,0,1,,,,,,,,,,,,,,,,,,,,,,,,,,,,,,,,,,,,,,,
,,,,,,,64275d22f204d1161ad23e64,2023-08-16_08h52.10.450,HF_wild_card,2022.2.4,Win32,59.89817311,64275d22f204d1161ad23e64,64d2fd46c836a06233681665,64dc7f5370a266150a1270de,,,,,,,decisionTrl,resources/DBN.BMP,resources/DP.BMP,Door4,-0.315888131,-0.009249376,1,0,0,1.6646,optionLeft,60,3520,2,25,0,25,0,1,,,,,,,,,,,,,,,,,,,,,,,,,,,,,,,,,,,,,,,
,,,,,,,64275d22f204d1161ad23e64,2023-08-16_08h52.10.450,HF_wild_card,2022.2.4,Win32,59.89817311,64275d22f204d1161ad23e64,64d2fd46c836a06233681665,64dc7f5370a266150a1270de,,,,,,,decisionTrl,resources/DP.BMP,resources/DBN.BMP,Door4,0.437629721,0.040032729,1,0,0,1.9807,optionRight,80,3600,2,26,0,26,0,1,,,,,,,,,,,,,,,,,,,,,,,,,,,,,,,,,,,,,,,
,,,,,,,64275d22f204d1161ad23e64,2023-08-16_08h52.10.450,HF_wild_card,2022.2.4,Win32,59.89817311,64275d22f204d1161ad23e64,64d2fd46c836a06233681665,64dc7f5370a266150a1270de,,,,,,,decisionTrl,resources/DB.BMP,resources/DR.BMP,Door2,0.249785782,0.001464164,1,0,0,2.9996,optionRight,40,3640,2,27,0,27,0,1,,,,,,,,,,,,,,,,,,,,,,,,,,,,,,,,,,,,,,,
,,,,,,,64275d22f204d1161ad23e64,2023-08-16_08h52.10.450,HF_wild_card,2022.2.4,Win32,59.89817311,64275d22f204d1161ad23e64,64d2fd46c836a06233681665,64dc7f5370a266150a1270de,,,,,,,decisionTrl,resources/DR.BMP,resources/DG.BMP,Door1,0.214788495,0.004321085,1,0,0,1.364,optionRight,30,3670,2,28,0,28,0,1,,,,,,,,,,,,,,,,,,,,,,,,,,,,,,,,,,,,,,,
,,,,,,,64275d22f204d1161ad23e64,2023-08-16_08h52.10.450,HF_wild_card,2022.2.4,Win32,59.89817311,64275d22f204d1161ad23e64,64d2fd46c836a06233681665,64dc7f5370a266150a1270de,,,,,,,decisionTrl,resources/DR.BMP,resources/DG.BMP,Door2,-0.332315514,-0.021391462,1,0,0,0.9312,optionLeft,40,3710,2,29,0,29,0,1,,,,,,,,,,,,,,,,,,,,,,,,,,,,,,,,,,,,,,,
,,,,,,,64275d22f204d1161ad23e64,2023-08-16_08h52.10.450,HF_wild_card,2022.2.4,Win32,59.89817311,64275d22f204d1161ad23e64,64d2fd46c836a06233681665,64dc7f5370a266150a1270de,,,,,,,ctch,resources/DR.BMP,resources/DP.BMP,Door3,0.296925494,0.017891546,1,0,0,2.4475,optionRight,70,3780,2,30,0,30,0,1,,,,,,,,,,,,,,,,,,,,,,,,,,,,,,,,,,,,,,,
,,,,,,,64275d22f204d1161ad23e64,2023-08-16_08h52.10.450,HF_wild_card,2022.2.4,Win32,59.89817311,64275d22f204d1161ad23e64,64d2fd46c836a06233681665,64dc7f5370a266150a1270de,,,,,,,ctch,resources/DR.BMP,resources/DP.BMP,Door3,0.31978078,0.004321085,1,0,0,1.0648,optionRight,70,3850,2,31,0,31,0,1,,,,,,,,,,,,,,,,,,,,,,,,,,,,,,,,,,,,,,,
,,,,,,,64275d22f204d1161ad23e64,2023-08-16_08h52.10.450,HF_wild_card,2022.2.4,Win32,59.89817311,64275d22f204d1161ad23e64,64d2fd46c836a06233681665,64dc7f5370a266150a1270de,,,,,,,decisionTrl,resources/DBN.BMP,resources/DP.BMP,Door4,-0.491589878,-0.017105953,1,0,0,1.8807,optionLeft,80,3930,2,32,0,32,0,1,,,,,,,,,,,,,,,,,,,,,,,,,,,,,,,,,,,,,,,
,,,,,,,64275d22f204d1161ad23e64,2023-08-16_08h52.10.450,HF_wild_card,2022.2.4,Win32,59.89817311,64275d22f204d1161ad23e64,64d2fd46c836a06233681665,64dc7f5370a266150a1270de,,,,,,,sngl,resources/DB.BMP,resources/Empty.png,WildCard_Ex,-0.253749709,-0.049246615,1,0,0,1.3316,optionLeft,95,4025,2,33,0,33,0,1,,,,,,,,,,,,,,,,,,,,,,,,,,,,,,,,,,,,,,,
,,,,,,,64275d22f204d1161ad23e64,2023-08-16_08h52.10.450,HF_wild_card,2022.2.4,Win32,59.89817311,64275d22f204d1161ad23e64,64d2fd46c836a06233681665,64dc7f5370a266150a1270de,,,,,,,ctch,resources/DP.BMP,resources/DR.BMP,Door3,-0.370884207,-0.033533335,1,0,0,1.6647,optionLeft,70,4095,2,34,0,34,0,1,,,,,,,,,,,,,,,,,,,,,,,,,,,,,,,,,,,,,,,
,,,,,,,64275d22f204d1161ad23e64,2023-08-16_08h52.10.450,HF_wild_card,2022.2.4,Win32,59.89817311,64275d22f204d1161ad23e64,64d2fd46c836a06233681665,64dc7f5370a266150a1270de,,,,,,,sngl,resources/Empty.png,resources/DG.BMP,Door1,0.282640547,0.007178049,1,0,0,2.1801,optionRight,30,4125,2,35,0,35,0,1,,,,,,,,,,,,,,,,,,,,,,,,,,,,,,,,,,,,,,,
,,,,,,,64275d22f204d1161ad23e64,2023-08-16_08h52.10.450,HF_wild_card,2022.2.4,Win32,59.89817311,64275d22f204d1161ad23e64,64d2fd46c836a06233681665,64dc7f5370a266150a1270de,,,,,,,decisionTrl,resources/DB.BMP,resources/DP.BMP,Door3,0.336208163,0.022176971,1,0,0,1.9474,optionRight,70,4195,2,36,0,36,0,1,,,,,,,,,,,,,,,,,,,,,,,,,,,,,,,,,,,,,,,
,,,,,,,64275d22f204d1161ad23e64,2023-08-16_08h52.10.450,HF_wild_card,2022.2.4,Win32,59.89817311,64275d22f204d1161ad23e64,64d2fd46c836a06233681665,64dc7f5370a266150a1270de,,,,,,,decisionTrl,resources/DG.BMP,resources/DR.BMP,Door2,0.355492637,0.032176238,1,0,0,2.4316,optionRight,40,4235,2,37,0,37,0,1,,,,,,,,,,,,,,,,,,,,,,,,,,,,,,,,,,,,,,,
,,,,,,,64275d22f204d1161ad23e64,2023-08-16_08h52.10.450,HF_wild_card,2022.2.4,Win32,59.89817311,64275d22f204d1161ad23e64,64d2fd46c836a06233681665,64dc7f5370a266150a1270de,,,,,,,sngl,resources/DB.BMP,resources/Empty.png,WildCard_Ex,-0.346600206,-0.041389912,1,0,0,1.0476,optionLeft,5,4240,2,38,0,38,0,1,,,,,,,,,,,,,,,,,,,,,,,,,,,,,,,,,,,,,,,
,,,,,,,64275d22f204d1161ad23e64,2023-08-16_08h52.10.450,HF_wild_card,2022.2.4,Win32,59.89817311,64275d22f204d1161ad23e64,64d2fd46c836a06233681665,64dc7f5370a266150a1270de,,,,,,,ctch,resources/DG.BMP,resources/DBN.BMP,Door4,0.331922781,0.036461663,1,0,0,1.3986,optionRight,60,4300,2,39,0,39,0,1,,,,,,,,,,,,,,,,,,,,,,,,,,,,,,,,,,,,,,,
,,,,,,,64275d22f204d1161ad23e64,2023-08-16_08h52.10.450,HF_wild_card,2022.2.4,Win32,59.89817311,64275d22f204d1161ad23e64,64d2fd46c836a06233681665,64dc7f5370a266150a1270de,,,,,,,decisionTrl,resources/DP.BMP,resources/DBN.BMP,Door4,0.49833947,0.082886932,1,0,0,2.9144,optionRight,60,4360,2,40,0,40,0,1,,,,,,,,,,,,,,,,,,,,,,,,,,,,,,,,,,,,,,,
,,,,,,,64275d22f204d1161ad23e64,2023-08-16_08h52.10.450,HF_wild_card,2022.2.4,Win32,59.89817311,64275d22f204d1161ad23e64,64d2fd46c836a06233681665,64dc7f5370a266150a1270de,,,,,,,sngl,resources/Empty.png,resources/DB.BMP,WildCard_Ex,0.337636624,0.024319662,1,0,0,1.0976,optionRight,95,4455,2,41,0,41,0,1,,,,,,,,,,,,,,,,,,,,,,,,,,,,,,,,,,,,,,,
,,,,,,,64275d22f204d1161ad23e64,2023-08-16_08h52.10.450,HF_wild_card,2022.2.4,Win32,59.89817311,64275d22f204d1161ad23e64,64d2fd46c836a06233681665,64dc7f5370a266150a1270de,,,,,,,ctch,resources/DBN.BMP,resources/DG.BMP,Door4,-0.272319826,0.002892624,1,0,0,1.2312,optionLeft,80,4535,2,42,0,42,0,1,,,,,,,,,,,,,,,,,,,,,,,,,,,,,,,,,,,,,,,
,,,,,,,64275d22f204d1161ad23e64,2023-08-16_08h52.10.450,HF_wild_card,2022.2.4,Win32,59.89817311,64275d22f204d1161ad23e64,64d2fd46c836a06233681665,64dc7f5370a266150a1270de,,,,,,,sngl,resources/Empty.png,resources/DP.BMP,Door3,0.306210319,0.042889778,1,0,0,1.0959,optionRight,70,4605,2,43,0,43,0,1,,,,,,,,,,,,,,,,,,,,,,,,,,,,,,,,,,,,,,,
,,,,,,,64275d22f204d1161ad23e64,2023-08-16_08h52.10.450,HF_wild_card,2022.2.4,Win32,59.89817311,64275d22f204d1161ad23e64,64d2fd46c836a06233681665,64dc7f5370a266150a1270de,,,,,,,,,,,,,,,,,,,,,,,,,,1,0,1,0,1,,,,,,,,,,,,,,,,,,,,,,,,,,,,,,,,,,
,,,,,,,64275d22f204d1161ad23e64,2023-08-16_08h52.10.450,HF_wild_card,2022.2.4,Win32,59.89817311,64275d22f204d1161ad23e64,64d2fd46c836a06233681665,64dc7f5370a266150a1270de,,,,,,,decisionTrl,resources/DP.BMP,resources/DBN.BMP,Door3,-0.310888476,-0.072102029,1,0,0,1.574,optionLeft,70,4675,3,0,0,0,0,1,,,,,,,,,,,,,,,,,,,,,,,,,,,,,,,,,,,,,,,
,,,,,,,64275d22f204d1161ad23e64,2023-08-16_08h52.10.450,HF_wild_card,2022.2.4,Win32,59.89817311,64275d22f204d1161ad23e64,64d2fd46c836a06233681665,64dc7f5370a266150a1270de,,,,,,,ctch,resources/DBN.BMP,resources/DG.BMP,Door4,-0.332315514,0.024319662,1,0,0,1.4588,optionLeft,80,4755,3,1,0,1,0,1,,,,,,,,,,,,,,,,,,,,,,,,,,,,,,,,,,,,,,,
,,,,,,,64275d22f204d1161ad23e64,2023-08-16_08h52.10.450,HF_wild_card,2022.2.4,Win32,59.89817311,64275d22f204d1161ad23e64,64d2fd46c836a06233681665,64dc7f5370a266150a1270de,,,,,,,decisionTrl,resources/DBN.BMP,resources/DP.BMP,Door4,0.004089015,0.003606855,1,0,0,0.665,optionLeft,80,4835,3,2,0,2,0,1,,,,,,,,,,,,,,,,,,,,,,,,,,,,,,,,,,,,,,,
,,,,,,,64275d22f204d1161ad23e64,2023-08-16_08h52.10.450,HF_wild_card,2022.2.4,Win32,59.89817311,64275d22f204d1161ad23e64,64d2fd46c836a06233681665,64dc7f5370a266150a1270de,,,,,,,decisionTrl,resources/DBN.BMP,resources/DB.BMP,Door4,-0.273748286,-0.018534413,1,0,0,1.0149,optionLeft,80,4915,3,3,0,3,0,1,,,,,,,,,,,,,,,,,,,,,,,,,,,,,,,,,,,,,,,
,,,,,,,64275d22f204d1161ad23e64,2023-08-16_08h52.10.450,HF_wild_card,2022.2.4,Win32,59.89817311,64275d22f204d1161ad23e64,64d2fd46c836a06233681665,64dc7f5370a266150a1270de,,,,,,,decisionTrl,resources/DBN.BMP,resources/DP.BMP,Door4,-0.300889209,0.004321085,1,0,0,1.9142,optionLeft,80,4995,3,4,0,4,0,1,,,,,,,,,,,,,,,,,,,,,,,,,,,,,,,,,,,,,,,
,,,,,,,64275d22f204d1161ad23e64,2023-08-16_08h52.10.450,HF_wild_card,2022.2.4,Win32,59.89817311,64275d22f204d1161ad23e64,64d2fd46c836a06233681665,64dc7f5370a266150a1270de,,,,,,,decisionTrl,resources/DG.BMP,resources/DR.BMP,Door2,0.222644859,0.012177619,1,0,0,2.2649,optionRight,40,5035,3,5,0,5,0,1,,,,,,,,,,,,,,,,,,,,,,,,,,,,,,,,,,,,,,,
,,,,,,,64275d22f204d1161ad23e64,2023-08-16_08h52.10.450,HF_wild_card,2022.2.4,Win32,59.89817311,64275d22f204d1161ad23e64,64d2fd46c836a06233681665,64dc7f5370a266150a1270de,,,,,,,ctch,resources/DR.BMP,resources/DP.BMP,Door3,0.301210706,0.000749933,1,0,0,1.4127,optionRight,70,5105,3,6,0,6,0,1,,,,,,,,,,,,,,,,,,,,,,,,,,,,,,,,,,,,,,,
,,,,,,,64275d22f204d1161ad23e64,2023-08-16_08h52.10.450,HF_wild_card,2022.2.4,Win32,59.89817311,64275d22f204d1161ad23e64,64d2fd46c836a06233681665,64dc7f5370a266150a1270de,,,,,,,decisionTrl,resources/DR.BMP,resources/DG.BMP,Door2,-0.338029399,0.006463691,1,0,0,1.3648,optionLeft,20,5125,3,7,0,7,0,1,,,,,,,,,,,,,,,,,,,,,,,,,,,,,,,,,,,,,,,
,,,,,,,64275d22f204d1161ad23e64,2023-08-16_08h52.10.450,HF_wild_card,2022.2.4,Win32,59.89817311,64275d22f204d1161ad23e64,64d2fd46c836a06233681665,64dc7f5370a266150a1270de,,,,,,,sngl,resources/Empty.png,resources/DBN.BMP,Door4,0.301210706,0.030747778,1,0,0,1.2481,optionRight,60,5185,3,8,0,8,0,1,,,,,,,,,,,,,,,,,,,,,,,,,,,,,,,,,,,,,,,
,,,,,,,64275d22f204d1161ad23e64,2023-08-16_08h52.10.450,HF_wild_card,2022.2.4,Win32,59.89817311,64275d22f204d1161ad23e64,64d2fd46c836a06233681665,64dc7f5370a266150a1270de,,,,,,,ctch,resources/DR.BMP,resources/DP.BMP,Door3,0.454771164,0.015034625,1,0,0,1.1802,optionRight,70,5255,3,9,0,9,0,1,,,,,,,,,,,,,,,,,,,,,,,,,,,,,,,,,,,,,,,
,,,,,,,64275d22f204d1161ad23e64,2023-08-16_08h52.10.450,HF_wild_card,2022.2.4,Win32,59.89817311,64275d22f204d1161ad23e64,64d2fd46c836a06233681665,64dc7f5370a266150a1270de,,,,,,,sngl,resources/DBN.BMP,resources/Empty.png,Door4,-0.310888476,-0.02781945,1,0,0,0.9314,optionLeft,80,5335,3,10,0,10,0,1,,,,,,,,,,,,,,,,,,,,,,,,,,,,,,,,,,,,,,,
,,,,,,,64275d22f204d1161ad23e64,2023-08-16_08h52.10.450,HF_wild_card,2022.2.4,Win32,59.89817311,64275d22f204d1161ad23e64,64d2fd46c836a06233681665,64dc7f5370a266150a1270de,,,,,,,decisionTrl,resources/DB.BMP,resources/DR.BMP,WildCard_Ex,-0.238036557,-0.017820183,1,0,0,2.3977,optionLeft,95,5430,3,11,0,11,0,1,,,,,,,,,,,,,,,,,,,,,,,,,,,,,,,,,,,,,,,
,,,,,,,64275d22f204d1161ad23e64,2023-08-16_08h52.10.450,HF_wild_card,2022.2.4,Win32,59.89817311,64275d22f204d1161ad23e64,64d2fd46c836a06233681665,64dc7f5370a266150a1270de,,,,,,,decisionTrl,resources/DP.BMP,resources/DB.BMP,WildCard_Ex,0.32049501,-0.022105692,1,0,0,1.3981,optionRight,5,5435,3,12,0,12,0,1,,,,,,,,,,,,,,,,,,,,,,,,,,,,,,,,,,,,,,,
,,,,,,,64275d22f204d1161ad23e64,2023-08-16_08h52.10.450,HF_wild_card,2022.2.4,Win32,59.89817311,64275d22f204d1161ad23e64,64d2fd46c836a06233681665,64dc7f5370a266150a1270de,,,,,,,decisionTrl,resources/DG.BMP,resources/DR.BMP,Door1,-0.348742939,-0.020677104,1,0,0,1.7622,optionLeft,30,5465,3,13,0,13,0,1,,,,,,,,,,,,,,,,,,,,,,,,,,,,,,,,,,,,,,,
,,,,,,,64275d22f204d1161ad23e64,2023-08-16_08h52.10.450,HF_wild_card,2022.2.4,Win32,59.89817311,64275d22f204d1161ad23e64,64d2fd46c836a06233681665,64dc7f5370a266150a1270de,,,,,,,decisionTrl,resources/DG.BMP,resources/DR.BMP,Door2,0.273355553,0.081458387,1,0,0,2.8972,optionRight,20,5485,3,14,0,14,0,1,,,,,,,,,,,,,,,,,,,,,,,,,,,,,,,,,,,,,,,
,,,,,,,64275d22f204d1161ad23e64,2023-08-16_08h52.10.450,HF_wild_card,2022.2.4,Win32,59.89817311,64275d22f204d1161ad23e64,64d2fd46c836a06233681665,64dc7f5370a266150a1270de,,,,,,,sngl,resources/DG.BMP,resources/Empty.png,Door1,-0.313031082,0.011463431,1,0,0,1.0917,optionLeft,30,5515,3,15,0,15,0,1,,,,,,,,,,,,,,,,,,,,,,,,,,,,,,,,,,,,,,,
,,,,,,,64275d22f204d1161ad23e64,2023-08-16_08h52.10.450,HF_wild_card,2022.2.4,Win32,59.89817311,64275d22f204d1161ad23e64,64d2fd46c836a06233681665,64dc7f5370a266150a1270de,,,,,,,decisionTrl,resources/DP.BMP,resources/DBN.BMP,Door4,0.328351629,0.027890856,1,0,0,2.2643,optionRight,80,5595,3,16,0,16,0,1,,,,,,,,,,,,,,,,,,,,,,,,,,,,,,,,,,,,,,,
,,,,,,,64275d22f204d1161ad23e64,2023-08-16_08h52.10.450,HF_wild_card,2022.2.4,Win32,59.89817311,64275d22f204d1161ad23e64,64d2fd46c836a06233681665,64dc7f5370a266150a1270de,,,,,,,sngl,resources/Empty.png,resources/DR.BMP,Door2,0.359777934,0.062174125,1,0,0,1.0592,optionRight,20,5615,3,17,0,17,0,1,,,,,,,,,,,,,,,,,,,,,,,,,,,,,,,,,,,,,,,
,,,,,,,64275d22f204d1161ad23e64,2023-08-16_08h52.10.450,HF_wild_card,2022.2.4,Win32,59.89817311,64275d22f204d1161ad23e64,64d2fd46c836a06233681665,64dc7f5370a266150a1270de,,,,,,,decisionTrl,resources/DB.BMP,resources/DG.BMP,Door1,0.389775778,0.007178049,1,0,0,2.3142,optionRight,30,5645,3,18,0,18,0,1,,,,,,,,,,,,,,,,,,,,,,,,,,,,,,,,,,,,,,,
,,,,,,,64275d22f204d1161ad23e64,2023-08-16_08h52.10.450,HF_wild_card,2022.2.4,Win32,59.89817311,64275d22f204d1161ad23e64,64d2fd46c836a06233681665,64dc7f5370a266150a1270de,,,,,,,sngl,resources/Empty.png,resources/DB.BMP,WildCard_Ex,0.276212474,-0.012106298,1,0,0,1.0815,optionRight,5,5650,3,19,0,19,0,1,,,,,,,,,,,,,,,,,,,,,,,,,,,,,,,,,,,,,,,
,,,,,,,64275d22f204d1161ad23e64,2023-08-16_08h52.10.450,HF_wild_card,2022.2.4,Win32,59.89817311,64275d22f204d1161ad23e64,64d2fd46c836a06233681665,64dc7f5370a266150a1270de,,,,,,,decisionTrl,resources/DB.BMP,resources/DP.BMP,WildCard_Ex,-0.469448589,-0.077101769,1,0,0,0.9147,optionLeft,95,5745,3,20,0,20,0,1,,,,,,,,,,,,,,,,,,,,,,,,,,,,,,,,,,,,,,,
,,,,,,,64275d22f204d1161ad23e64,2023-08-16_08h52.10.450,HF_wild_card,2022.2.4,Win32,59.89817311,64275d22f204d1161ad23e64,64d2fd46c836a06233681665,64dc7f5370a266150a1270de,,,,,,,sngl,resources/Empty.png,resources/DB.BMP,WildCard_Ex,0.34120803,0.0457467,1,0,0,1.4816,optionRight,95,5840,3,21,0,21,0,1,,,,,,,,,,,,,,,,,,,,,,,,,,,,,,,,,,,,,,,
,,,,,,,64275d22f204d1161ad23e64,2023-08-16_08h52.10.450,HF_wild_card,2022.2.4,Win32,59.89817311,64275d22f204d1161ad23e64,64d2fd46c836a06233681665,64dc7f5370a266150a1270de,,,,,,,ctch,resources/DG.BMP,resources/DBN.BMP,Door4,0.333351242,0.037175893,1,0,0,5.275,optionRight,60,5900,3,22,0,22,0,1,,,,,,,,,,,,,,,,,,,,,,,,,,,,,,,,,,,,,,,
,,,,,,,64275d22f204d1161ad23e64,2023-08-16_08h52.10.450,HF_wild_card,2022.2.4,Win32,59.89817311,64275d22f204d1161ad23e64,64d2fd46c836a06233681665,64dc7f5370a266150a1270de,,,,,,,sngl,resources/DB.BMP,resources/Empty.png,WildCard_Ex,-0.183040481,-0.019248644,1,0,0,1.0319,optionLeft,95,5995,3,23,0,23,0,1,,,,,,,,,,,,,,,,,,,,,,,,,,,,,,,,,,,,,,,
,,,,,,,64275d22f204d1161ad23e64,2023-08-16_08h52.10.450,HF_wild_card,2022.2.4,Win32,59.89817311,64275d22f204d1161ad23e64,64d2fd46c836a06233681665,64dc7f5370a266150a1270de,,,,,,,decisionTrl,resources/DR.BMP,resources/DG.BMP,Door2,-0.477305123,0.019319922,1,0,0,2.867,optionLeft,20,6015,3,24,0,24,0,1,,,,,,,,,,,,,,,,,,,,,,,,,,,,,,,,,,,,,,,
,,,,,,,64275d22f204d1161ad23e64,2023-08-16_08h52.10.450,HF_wild_card,2022.2.4,Win32,59.89817311,64275d22f204d1161ad23e64,64d2fd46c836a06233681665,64dc7f5370a266150a1270de,,,,,,,decisionTrl,resources/DG.BMP,resources/DR.BMP,Door1,-0.298032245,-0.083529884,1,0,0,2.9972,optionLeft,30,6045,3,25,0,25,0,1,,,,,,,,,,,,,,,,,,,,,,,,,,,,,,,,,,,,,,,
,,,,,,,64275d22f204d1161ad23e64,2023-08-16_08h52.10.450,HF_wild_card,2022.2.4,Win32,59.89817311,64275d22f204d1161ad23e64,64d2fd46c836a06233681665,64dc7f5370a266150a1270de,,,,,,,decisionTrl,resources/DBN.BMP,resources/DP.BMP,Door4,-0.28589016,-0.003535491,1,0,0,1.4481,optionLeft,80,6125,3,26,0,26,0,1,,,,,,,,,,,,,,,,,,,,,,,,,,,,,,,,,,,,,,,
,,,,,,,64275d22f204d1161ad23e64,2023-08-16_08h52.10.450,HF_wild_card,2022.2.4,Win32,59.89817311,64275d22f204d1161ad23e64,64d2fd46c836a06233681665,64dc7f5370a266150a1270de,,,,,,,decisionTrl,resources/DG.BMP,resources/DB.BMP,Door1,-0.337315169,3.5703E-05,1,0,0,1.5142,optionLeft,30,6155,3,27,0,27,0,1,,,,,,,,,,,,,,,,,,,,,,,,,,,,,,,,,,,,,,,
,,,,,,,64275d22f204d1161ad23e64,2023-08-16_08h52.10.450,HF_wild_card,2022.2.4,Win32,59.89817311,64275d22f204d1161ad23e64,64d2fd46c836a06233681665,64dc7f5370a266150a1270de,,,,,,,sngl,resources/DB.BMP,resources/Empty.png,WildCard_Ex,-0.31374544,-0.032819105,1,0,0,0.8979,optionLeft,5,6160,3,28,0,28,0,1,,,,,,,,,,,,,,,,,,,,,,,,,,,,,,,,,,,,,,,
,,,,,,,64275d22f204d1161ad23e64,2023-08-16_08h52.10.450,HF_wild_card,2022.2.4,Win32,59.89817311,64275d22f204d1161ad23e64,64d2fd46c836a06233681665,64dc7f5370a266150a1270de,,,,,,,sngl,resources/Empty.png,resources/DP.BMP,Door3,0.326923338,-0.024962529,1,0,0,2.8306,optionRight,70,6230,3,29,0,29,0,1,,,,,,,,,,,,,,,,,,,,,,,,,,,,,,,,,,,,,,,
,,,,,,,64275d22f204d1161ad23e64,2023-08-16_08h52.10.450,HF_wild_card,2022.2.4,Win32,59.89817311,64275d22f204d1161ad23e64,64d2fd46c836a06233681665,64dc7f5370a266150a1270de,,,,,,,ctch,resources/DBN.BMP,resources/DG.BMP,Door4,-0.369455747,-0.019962874,1,0,0,1.5432,optionLeft,60,6290,3,30,0,30,0,1,,,,,,,,,,,,,,,,,,,,,,,,,,,,,,,,,,,,,,,
,,,,,,,64275d22f204d1161ad23e64,2023-08-16_08h52.10.450,HF_wild_card,2022.2.4,Win32,59.89817311,64275d22f204d1161ad23e64,64d2fd46c836a06233681665,64dc7f5370a266150a1270de,,,,,,,ctch,resources/DP.BMP,resources/DR.BMP,Door3,-0.275890977,-0.013534758,1,0,0,1.2431,optionLeft,70,6360,3,31,0,31,0,1,,,,,,,,,,,,,,,,,,,,,,,,,,,,,,,,,,,,,,,
,,,,,,,64275d22f204d1161ad23e64,2023-08-16_08h52.10.450,HF_wild_card,2022.2.4,Win32,59.89817311,64275d22f204d1161ad23e64,64d2fd46c836a06233681665,64dc7f5370a266150a1270de,,,,,,,decisionTrl,resources/DB.BMP,resources/DBN.BMP,Door4,0.440486472,0.037890123,1,0,0,1.5483,optionRight,60,6420,3,32,0,32,0,1,,,,,,,,,,,,,,,,,,,,,,,,,,,,,,,,,,,,,,,
,,,,,,,64275d22f204d1161ad23e64,2023-08-16_08h52.10.450,HF_wild_card,2022.2.4,Win32,59.89817311,64275d22f204d1161ad23e64,64d2fd46c836a06233681665,64dc7f5370a266150a1270de,,,,,,,ctch,resources/DG.BMP,resources/DBN.BMP,Door4,0.329065859,0.035747432,1,0,0,1.6643,optionRight,60,6480,3,33,0,33,0,1,,,,,,,,,,,,,,,,,,,,,,,,,,,,,,,,,,,,,,,
,,,,,,,64275d22f204d1161ad23e64,2023-08-16_08h52.10.450,HF_wild_card,2022.2.4,Win32,59.89817311,64275d22f204d1161ad23e64,64d2fd46c836a06233681665,64dc7f5370a266150a1270de,,,,,,,sngl,resources/Empty.png,resources/DG.BMP,Door1,0.360492164,0.00860651,1,0,0,1.3315,optionRight,30,6510,3,34,0,34,0,1,,,,,,,,,,,,,,,,,,,,,,,,,,,,,,,,,,,,,,,
,,,,,,,64275d22f204d1161ad23e64,2023-08-16_08h52.10.450,HF_wild_card,2022.2.4,Win32,59.89817311,64275d22f204d1161ad23e64,64d2fd46c836a06233681665,64dc7f5370a266150a1270de,,,,,,,sngl,resources/DR.BMP,resources/Empty.png,Door2,-0.239465018,-0.007106643,1,0,0,1.2304,optionLeft,40,6550,3,35,0,35,0,1,,,,,,,,,,,,,,,,,,,,,,,,,,,,,,,,,,,,,,,
,,,,,,,64275d22f204d1161ad23e64,2023-08-16_08h52.10.450,HF_wild_card,2022.2.4,Win32,59.89817311,64275d22f204d1161ad23e64,64d2fd46c836a06233681665,64dc7f5370a266150a1270de,,,,,,,decisionTrl,resources/DBN.BMP,resources/DP.BMP,Door4,-0.355171055,0.027890856,1,0,0,1.9477,optionLeft,80,6630,3,36,0,36,0,1,,,,,,,,,,,,,,,,,,,,,,,,,,,,,,,,,,,,,,,
,,,,,,,64275d22f204d1161ad23e64,2023-08-16_08h52.10.450,HF_wild_card,2022.2.4,Win32,59.89817311,64275d22f204d1161ad23e64,64d2fd46c836a06233681665,64dc7f5370a266150a1270de,,,,,,,sngl,resources/DP.BMP,resources/Empty.png,Door3,-0.313031082,-0.007106643,1,0,0,2.2811,optionLeft,70,6700,3,37,0,37,0,1,,,,,,,,,,,,,,,,,,,,,,,,,,,,,,,,,,,,,,,
,,,,,,,64275d22f204d1161ad23e64,2023-08-16_08h52.10.450,HF_wild_card,2022.2.4,Win32,59.89817311,64275d22f204d1161ad23e64,64d2fd46c836a06233681665,64dc7f5370a266150a1270de,,,,,,,ctch,resources/DP.BMP,resources/DR.BMP,Door3,-0.277319438,-0.014963347,1,0,0,1.2315,optionLeft,70,6770,3,38,0,38,0,1,,,,,,,,,,,,,,,,,,,,,,,,,,,,,,,,,,,,,,,
,,,,,,,64275d22f204d1161ad23e64,2023-08-16_08h52.10.450,HF_wild_card,2022.2.4,Win32,59.89817311,64275d22f204d1161ad23e64,64d2fd46c836a06233681665,64dc7f5370a266150a1270de,,,,,,,decisionTrl,resources/DR.BMP,resources/DG.BMP,Door2,-0.294461094,-0.028533808,1,0,0,1.9475,optionLeft,40,6810,3,39,0,39,0,1,,,,,,,,,,,,,,,,,,,,,,,,,,,,,,,,,,,,,,,
,,,,,,,64275d22f204d1161ad23e64,2023-08-16_08h52.10.450,HF_wild_card,2022.2.4,Win32,59.89817311,64275d22f204d1161ad23e64,64d2fd46c836a06233681665,64dc7f5370a266150a1270de,,,,,,,decisionTrl,resources/DR.BMP,resources/DB.BMP,WildCard_Ex,0.417630931,0.04646093,1,0,0,2.5642,optionRight,95,6905,3,40,0,40,0,1,,,,,,,,,,,,,,,,,,,,,,,,,,,,,,,,,,,,,,,
,,,,,,,64275d22f204d1161ad23e64,2023-08-16_08h52.10.450,HF_wild_card,2022.2.4,Win32,59.89817311,64275d22f204d1161ad23e64,64d2fd46c836a06233681665,64dc7f5370a266150a1270de,,,,,,,decisionTrl,resources/DP.BMP,resources/DBN.BMP,Door4,0.355492637,0.000749933,1,0,0,2.3146,optionRight,60,6965,3,41,0,41,0,1,,,,,,,,,,,,,,,,,,,,,,,,,,,,,,,,,,,,,,,
,,,,,,,64275d22f204d1161ad23e64,2023-08-16_08h52.10.450,HF_wild_card,2022.2.4,Win32,59.89817311,64275d22f204d1161ad23e64,64d2fd46c836a06233681665,64dc7f5370a266150a1270de,,,,,,,decisionTrl,resources/DP.BMP,resources/DBN.BMP,Door4,0.33120855,0.022891201,1,0,0,1.2987,optionRight,80,7045,3,42,0,42,0,1,,,,,,,,,,,,,,,,,,,,,,,,,,,,,,,,,,,,,,,
,,,,,,,64275d22f204d1161ad23e64,2023-08-16_08h52.10.450,HF_wild_card,2022.2.4,Win32,59.89817311,64275d22f204d1161ad23e64,64d2fd46c836a06233681665,64dc7f5370a266150a1270de,,,,,,,decisionTrl,resources/DR.BMP,resources/DG.BMP,Door2,-0.326601544,-0.005678182,1,0,0,3.914,optionLeft,20,7065,3,43,0,43,0,1,,,,,,,,,,,,,,,,,,,,,,,,,,,,,,,,,,,,,,,
,,,,,,,64275d22f204d1161ad23e64,2023-08-16_08h52.10.450,HF_wild_card,2022.2.4,Win32,59.89817311,64275d22f204d1161ad23e64,64d2fd46c836a06233681665,64dc7f5370a266150a1270de,,,,,,,,,,,,,,,,,,,,,,,,,,2,0,2,0,1,,,,,,,,,,,,,,,,,,,,,,,,,,,,,,,,,,
,,,,,,,64275d22f204d1161ad23e64,2023-08-16_08h52.10.450,HF_wild_card,2022.2.4,Win32,59.89817311,64275d22f204d1161ad23e64,64d2fd46c836a06233681665,64dc7f5370a266150a1270de,,,,,,,decisionTrl,resources/DR.BMP,resources/DG.BMP,Door2,-0.393739706,-0.048532385,1,0,0,1.4913,optionLeft,20,7085,4,0,0,0,0,1,,,,,,,,,,,,,,,,,,,,,,,,,,,,,,,,,,,,,,,
,,,,,,,64275d22f204d1161ad23e64,2023-08-16_08h52.10.450,HF_wild_card,2022.2.4,Win32,59.89817311,64275d22f204d1161ad23e64,64d2fd46c836a06233681665,64dc7f5370a266150a1270de,,,,,,,decisionTrl,resources/DBN.BMP,resources/DP.BMP,Door4,-0.503017627,-0.012820528,1,0,0,1.6139,optionLeft,80,7165,4,1,0,1,0,1,,,,,,,,,,,,,,,,,,,,,,,,,,,,,,,,,,,,,,,
,,,,,,,64275d22f204d1161ad23e64,2023-08-16_08h52.10.450,HF_wild_card,2022.2.4,Win32,59.89817311,64275d22f204d1161ad23e64,64d2fd46c836a06233681665,64dc7f5370a266150a1270de,,,,,,,decisionTrl,resources/DG.BMP,resources/DY.BMP,WildCard_NonEx,0.354064261,-0.009963607,1,0,0,1.6812,optionRight,55,7220,4,2,0,2,0,1,,,,,,,,,,,,,,,,,,,,,,,,,,,,,,,,,,,,,,,
,,,,,,,64275d22f204d1161ad23e64,2023-08-16_08h52.10.450,HF_wild_card,2022.2.4,Win32,59.89817311,64275d22f204d1161ad23e64,64d2fd46c836a06233681665,64dc7f5370a266150a1270de,,,,,,,decisionTrl,resources/DY.BMP,resources/DG.BMP,WildCard_NonEx,-0.267320171,-0.007821001,1,0,0,1.3487,optionLeft,45,7265,4,3,0,3,0,1,,,,,,,,,,,,,,,,,,,,,,,,,,,,,,,,,,,,,,,
,,,,,,,64275d22f204d1161ad23e64,2023-08-16_08h52.10.450,HF_wild_card,2022.2.4,Win32,59.89817311,64275d22f204d1161ad23e64,64d2fd46c836a06233681665,64dc7f5370a266150a1270de,,,,,,,sngl,resources/DG.BMP,resources/Empty.png,Door1,-0.330887053,0.002892624,1,0,0,1.0988,optionLeft,30,7295,4,4,0,4,0,1,,,,,,,,,,,,,,,,,,,,,,,,,,,,,,,,,,,,,,,
,,,,,,,64275d22f204d1161ad23e64,2023-08-16_08h52.10.450,HF_wild_card,2022.2.4,Win32,59.89817311,64275d22f204d1161ad23e64,64d2fd46c836a06233681665,64dc7f5370a266150a1270de,,,,,,,decisionTrl,resources/DP.BMP,resources/DY.BMP,WildCard_NonEx,0.353350031,0.070030701,1,0,0,1.5469,optionRight,45,7340,4,5,0,5,0,1,,,,,,,,,,,,,,,,,,,,,,,,,,,,,,,,,,,,,,,
,,,,,,,64275d22f204d1161ad23e64,2023-08-16_08h52.10.450,HF_wild_card,2022.2.4,Win32,59.89817311,64275d22f204d1161ad23e64,64d2fd46c836a06233681665,64dc7f5370a266150a1270de,,,,,,,decisionTrl,resources/DBN.BMP,resources/DY.BMP,Door4,-0.274462517,0.006463691,1,0,0,0.9983,optionLeft,60,7400,4,6,0,6,0,1,,,,,,,,,,,,,,,,,,,,,,,,,,,,,,,,,,,,,,,
,,,,,,,64275d22f204d1161ad23e64,2023-08-16_08h52.10.450,HF_wild_card,2022.2.4,Win32,59.89817311,64275d22f204d1161ad23e64,64d2fd46c836a06233681665,64dc7f5370a266150a1270de,,,,,,,decisionTrl,resources/DG.BMP,resources/DR.BMP,Door1,-0.300174979,-0.03710453,1,0,0,2.5479,optionLeft,30,7430,4,7,0,7,0,1,,,,,,,,,,,,,,,,,,,,,,,,,,,,,,,,,,,,,,,
,,,,,,,64275d22f204d1161ad23e64,2023-08-16_08h52.10.450,HF_wild_card,2022.2.4,Win32,59.89817311,64275d22f204d1161ad23e64,64d2fd46c836a06233681665,64dc7f5370a266150a1270de,,,,,,,decisionTrl,resources/DR.BMP,resources/DG.BMP,Door2,-0.3501714,0.022891201,1,0,0,1.1816,optionLeft,20,7450,4,8,0,8,0,1,,,,,,,,,,,,,,,,,,,,,,,,,,,,,,,,,,,,,,,
,,,,,,,64275d22f204d1161ad23e64,2023-08-16_08h52.10.450,HF_wild_card,2022.2.4,Win32,59.89817311,64275d22f204d1161ad23e64,64d2fd46c836a06233681665,64dc7f5370a266150a1270de,,,,,,,decisionTrl,resources/DY.BMP,resources/DR.BMP,WildCard_NonEx,-0.321602016,0.000749933,1,0,0,1.5141,optionLeft,55,7505,4,9,0,9,0,1,,,,,,,,,,,,,,,,,,,,,,,,,,,,,,,,,,,,,,,
,,,,,,,64275d22f204d1161ad23e64,2023-08-16_08h52.10.450,HF_wild_card,2022.2.4,Win32,59.89817311,64275d22f204d1161ad23e64,64d2fd46c836a06233681665,64dc7f5370a266150a1270de,,,,,,,decisionTrl,resources/DP.BMP,resources/DBN.BMP,Door3,-0.440879205,-0.049960846,1,0,0,3.9469,optionLeft,70,7575,4,10,0,10,0,1,,,,,,,,,,,,,,,,,,,,,,,,,,,,,,,,,,,,,,,
,,,,,,,64275d22f204d1161ad23e64,2023-08-16_08h52.10.450,HF_wild_card,2022.2.4,Win32,59.89817311,64275d22f204d1161ad23e64,64d2fd46c836a06233681665,64dc7f5370a266150a1270de,,,,,,,ctch,resources/DBN.BMP,resources/DG.BMP,Door4,-0.35088563,0.005035315,1,0,0,0.8982,optionLeft,80,7655,4,11,0,11,0,1,,,,,,,,,,,,,,,,,,,,,,,,,,,,,,,,,,,,,,,
,,,,,,,64275d22f204d1161ad23e64,2023-08-16_08h52.10.450,HF_wild_card,2022.2.4,Win32,59.89817311,64275d22f204d1161ad23e64,64d2fd46c836a06233681665,64dc7f5370a266150a1270de,,,,,,,sngl,resources/DP.BMP,resources/Empty.png,Door3,-0.278033583,0.025033892,1,0,0,0.9975,optionLeft,70,7725,4,12,0,12,0,1,,,,,,,,,,,,,,,,,,,,,,,,,,,,,,,,,,,,,,,
,,,,,,,64275d22f204d1161ad23e64,2023-08-16_08h52.10.450,HF_wild_card,2022.2.4,Win32,59.89817311,64275d22f204d1161ad23e64,64d2fd46c836a06233681665,64dc7f5370a266150a1270de,,,,,,,sngl,resources/Empty.png,resources/DY.BMP,WildCard_NonEx,0.259785092,0.012177619,1,0,0,0.9313,optionRight,55,7780,4,13,0,13,0,1,,,,,,,,,,,,,,,,,,,,,,,,,,,,,,,,,,,,,,,
,,,,,,,64275d22f204d1161ad23e64,2023-08-16_08h52.10.450,HF_wild_card,2022.2.4,Win32,59.89817311,64275d22f204d1161ad23e64,64d2fd46c836a06233681665,64dc7f5370a266150a1270de,,,,,,,ctch,resources/DG.BMP,resources/DBN.BMP,Door4,0.237643781,0.027176498,1,0,0,1.1651,optionRight,80,7860,4,14,0,14,0,1,,,,,,,,,,,,,,,,,,,,,,,,,,,,,,,,,,,,,,,
,,,,,,,64275d22f204d1161ad23e64,2023-08-16_08h52.10.450,HF_wild_card,2022.2.4,Win32,59.89817311,64275d22f204d1161ad23e64,64d2fd46c836a06233681665,64dc7f5370a266150a1270de,,,,,,,ctch,resources/DR.BMP,resources/DP.BMP,Door3,0.357635243,-0.012106298,1,0,0,1.9616,optionRight,70,7930,4,15,0,15,0,1,,,,,,,,,,,,,,,,,,,,,,,,,,,,,,,,,,,,,,,
,,,,,,,64275d22f204d1161ad23e64,2023-08-16_08h52.10.450,HF_wild_card,2022.2.4,Win32,59.89817311,64275d22f204d1161ad23e64,64d2fd46c836a06233681665,64dc7f5370a266150a1270de,,,,,,,sngl,resources/Empty.png,resources/DY.BMP,WildCard_NonEx,0.311210186,0.011463431,1,0,0,1.0146,optionRight,45,7975,4,16,0,16,0,1,,,,,,,,,,,,,,,,,,,,,,,,,,,,,,,,,,,,,,,
,,,,,,,64275d22f204d1161ad23e64,2023-08-16_08h52.10.450,HF_wild_card,2022.2.4,Win32,59.89817311,64275d22f204d1161ad23e64,64d2fd46c836a06233681665,64dc7f5370a266150a1270de,,,,,,,decisionTrl,resources/DBN.BMP,resources/DP.BMP,Door4,-0.323030477,0.012891807,1,0,0,1.4477,optionLeft,80,8055,4,17,0,17,0,1,,,,,,,,,,,,,,,,,,,,,,,,,,,,,,,,,,,,,,,
,,,,,,,64275d22f204d1161ad23e64,2023-08-16_08h52.10.450,HF_wild_card,2022.2.4,Win32,59.89817311,64275d22f204d1161ad23e64,64d2fd46c836a06233681665,64dc7f5370a266150a1270de,,,,,,,ctch,resources/DR.BMP,resources/DP.BMP,Door3,0.3926327,0.050746355,1,0,0,5.5464,optionRight,70,8125,4,18,0,18,0,1,,,,,,,,,,,,,,,,,,,,,,,,,,,,,,,,,,,,,,,
,,,,,,,64275d22f204d1161ad23e64,2023-08-16_08h52.10.450,HF_wild_card,2022.2.4,Win32,59.89817311,64275d22f204d1161ad23e64,64d2fd46c836a06233681665,64dc7f5370a266150a1270de,,,,,,,decisionTrl,resources/DBN.BMP,resources/DP.BMP,Door4,-0.429451435,0.067887883,1,0,0,2.1975,optionLeft,60,8185,4,19,0,19,0,1,,,,,,,,,,,,,,,,,,,,,,,,,,,,,,,,,,,,,,,
,,,,,,,64275d22f204d1161ad23e64,2023-08-16_08h52.10.450,HF_wild_card,2022.2.4,Win32,59.89817311,64275d22f204d1161ad23e64,64d2fd46c836a06233681665,64dc7f5370a266150a1270de,,,,,,,decisionTrl,resources/DG.BMP,resources/DR.BMP,Door2,0.315495398,0.075744586,1,0,0,5.3802,optionRight,20,8205,4,20,0,20,0,1,,,,,,,,,,,,,,,,,,,,,,,,,,,,,,,,,,,,,,,
,,,,,,,64275d22f204d1161ad23e64,2023-08-16_08h52.10.450,HF_wild_card,2022.2.4,Win32,59.89817311,64275d22f204d1161ad23e64,64d2fd46c836a06233681665,64dc7f5370a266150a1270de,,,,,,,sngl,resources/DR.BMP,resources/Empty.png,Door2,-0.425166053,0.015034625,1,0,0,1.6792,optionLeft,20,8225,4,21,0,21,0,1,,,,,,,,,,,,,,,,,,,,,,,,,,,,,,,,,,,,,,,
,,,,,,,64275d22f204d1161ad23e64,2023-08-16_08h52.10.450,HF_wild_card,2022.2.4,Win32,59.89817311,64275d22f204d1161ad23e64,64d2fd46c836a06233681665,64dc7f5370a266150a1270de,,,,,,,decisionTrl,resources/DP.BMP,resources/DBN.BMP,Door4,0.181219244,0.053603276,1,0,0,1.8476,optionRight,60,8285,4,22,0,22,0,1,,,,,,,,,,,,,,,,,,,,,,,,,,,,,,,,,,,,,,,
,,,,,,,64275d22f204d1161ad23e64,2023-08-16_08h52.10.450,HF_wild_card,2022.2.4,Win32,59.89817311,64275d22f204d1161ad23e64,64d2fd46c836a06233681665,64dc7f5370a266150a1270de,,,,,,,ctch,resources/DG.BMP,resources/DBN.BMP,Door4,0.258356801,0.026462268,1,0,0,1.2796,optionRight,80,8365,4,23,0,23,0,1,,,,,,,,,,,,,,,,,,,,,,,,,,,,,,,,,,,,,,,
,,,,,,,64275d22f204d1161ad23e64,2023-08-16_08h52.10.450,HF_wild_card,2022.2.4,Win32,59.89817311,64275d22f204d1161ad23e64,64d2fd46c836a06233681665,64dc7f5370a266150a1270de,,,,,,,decisionTrl,resources/DBN.BMP,resources/DP.BMP,Door4,-0.403739015,0.003606855,1,0,0,1.0653,optionLeft,80,8445,4,24,0,24,0,1,,,,,,,,,,,,,,,,,,,,,,,,,,,,,,,,,,,,,,,
,,,,,,,64275d22f204d1161ad23e64,2023-08-16_08h52.10.450,HF_wild_card,2022.2.4,Win32,59.89817311,64275d22f204d1161ad23e64,64d2fd46c836a06233681665,64dc7f5370a266150a1270de,,,,,,,ctch,resources/DP.BMP,resources/DR.BMP,Door3,-0.325173168,0.036461663,1,0,0,2.4145,optionLeft,70,8515,4,25,0,25,0,1,,,,,,,,,,,,,,,,,,,,,,,,,,,,,,,,,,,,,,,
,,,,,,,64275d22f204d1161ad23e64,2023-08-16_08h52.10.450,HF_wild_card,2022.2.4,Win32,59.89817311,64275d22f204d1161ad23e64,64d2fd46c836a06233681665,64dc7f5370a266150a1270de,,,,,,,sngl,resources/DY.BMP,resources/Empty.png,WildCard_NonEx,-0.319459198,0.004321085,1,0,0,0.9464,optionLeft,45,8560,4,26,0,26,0,1,,,,,,,,,,,,,,,,,,,,,,,,,,,,,,,,,,,,,,,
,,,,,,,64275d22f204d1161ad23e64,2023-08-16_08h52.10.450,HF_wild_card,2022.2.4,Win32,59.89817311,64275d22f204d1161ad23e64,64d2fd46c836a06233681665,64dc7f5370a266150a1270de,,,,,,,decisionTrl,resources/DG.BMP,resources/DR.BMP,Door1,-0.331601284,0.022176971,1,0,0,1.6815,optionLeft,30,8590,4,27,0,27,0,1,,,,,,,,,,,,,,,,,,,,,,,,,,,,,,,,,,,,,,,
,,,,,,,64275d22f204d1161ad23e64,2023-08-16_08h52.10.450,HF_wild_card,2022.2.4,Win32,59.89817311,64275d22f204d1161ad23e64,64d2fd46c836a06233681665,64dc7f5370a266150a1270de,,,,,,,decisionTrl,resources/DP.BMP,resources/DBN.BMP,Door4,0.350492855,0.067887883,1,0,0,1.2174,optionRight,80,8670,4,28,0,28,0,1,,,,,,,,,,,,,,,,,,,,,,,,,,,,,,,,,,,,,,,
,,,,,,,64275d22f204d1161ad23e64,2023-08-16_08h52.10.450,HF_wild_card,2022.2.4,Win32,59.89817311,64275d22f204d1161ad23e64,64d2fd46c836a06233681665,64dc7f5370a266150a1270de,,,,,,,sngl,resources/Empty.png,resources/DR.BMP,Door2,0.311210186,0.018605777,1,0,0,1.1819,optionRight,40,8710,4,29,0,29,0,1,,,,,,,,,,,,,,,,,,,,,,,,,,,,,,,,,,,,,,,
,,,,,,,64275d22f204d1161ad23e64,2023-08-16_08h52.10.450,HF_wild_card,2022.2.4,Win32,59.89817311,64275d22f204d1161ad23e64,64d2fd46c836a06233681665,64dc7f5370a266150a1270de,,,,,,,sngl,resources/Empty.png,resources/DP.BMP,Door3,0.332637011,0.015748855,1,0,0,0.8803,optionRight,70,8780,4,30,0,30,0,1,,,,,,,,,,,,,,,,,,,,,,,,,,,,,,,,,,,,,,,
,,,,,,,64275d22f204d1161ad23e64,2023-08-16_08h52.10.450,HF_wild_card,2022.2.4,Win32,59.89817311,64275d22f204d1161ad23e64,64d2fd46c836a06233681665,64dc7f5370a266150a1270de,,,,,,,decisionTrl,resources/DY.BMP,resources/DP.BMP,Door3,0.375491086,0.041461318,1,0,0,1.998,optionRight,70,8850,4,31,0,31,0,1,,,,,,,,,,,,,,,,,,,,,,,,,,,,,,,,,,,,,,,
,,,,,,,64275d22f204d1161ad23e64,2023-08-16_08h52.10.450,HF_wild_card,2022.2.4,Win32,59.89817311,64275d22f204d1161ad23e64,64d2fd46c836a06233681665,64dc7f5370a266150a1270de,,,,,,,sngl,resources/Empty.png,resources/DG.BMP,Door1,0.341922091,-0.004249722,1,0,0,1.0811,optionRight,30,8880,4,32,0,32,0,1,,,,,,,,,,,,,,,,,,,,,,,,,,,,,,,,,,,,,,,
,,,,,,,64275d22f204d1161ad23e64,2023-08-16_08h52.10.450,HF_wild_card,2022.2.4,Win32,59.89817311,64275d22f204d1161ad23e64,64d2fd46c836a06233681665,64dc7f5370a266150a1270de,,,,,,,sngl,resources/DBN.BMP,resources/Empty.png,Door4,-0.364456092,0.001464164,1,0,0,0.848,optionLeft,60,8940,4,33,0,33,0,1,,,,,,,,,,,,,,,,,,,,,,,,,,,,,,,,,,,,,,,
,,,,,,,64275d22f204d1161ad23e64,2023-08-16_08h52.10.450,HF_wild_card,2022.2.4,Win32,59.89817311,64275d22f204d1161ad23e64,64d2fd46c836a06233681665,64dc7f5370a266150a1270de,,,,,,,ctch,resources/DBN.BMP,resources/DG.BMP,Door4,-0.291604087,-0.010677837,1,0,0,0.9482,optionLeft,80,9020,4,34,0,34,0,1,,,,,,,,,,,,,,,,,,,,,,,,,,,,,,,,,,,,,,,
,,,,,,,64275d22f204d1161ad23e64,2023-08-16_08h52.10.450,HF_wild_card,2022.2.4,Win32,59.89817311,64275d22f204d1161ad23e64,64d2fd46c836a06233681665,64dc7f5370a266150a1270de,,,,,,,decisionTrl,resources/DG.BMP,resources/DR.BMP,Door2,0.31906655,0.016463086,1,0,0,2.2148,optionRight,40,9060,4,35,0,35,0,1,,,,,,,,,,,,,,,,,,,,,,,,,,,,,,,,,,,,,,,
,,,,,,,64275d22f204d1161ad23e64,2023-08-16_08h52.10.450,HF_wild_card,2022.2.4,Win32,59.89817311,64275d22f204d1161ad23e64,64d2fd46c836a06233681665,64dc7f5370a266150a1270de,,,,,,,decisionTrl,resources/DR.BMP,resources/DG.BMP,Door2,-0.281604862,-0.029962184,1,0,0,0.9154,optionLeft,20,9080,4,36,0,36,0,1,,,,,,,,,,,,,,,,,,,,,,,,,,,,,,,,,,,,,,,
,,,,,,,64275d22f204d1161ad23e64,2023-08-16_08h52.10.450,HF_wild_card,2022.2.4,Win32,59.89817311,64275d22f204d1161ad23e64,64d2fd46c836a06233681665,64dc7f5370a266150a1270de,,,,,,,decisionTrl,resources/DR.BMP,resources/DY.BMP,WildCard_NonEx,0.292639857,0.012177619,1,0,0,1.8146,optionRight,55,9135,4,37,0,37,0,1,,,,,,,,,,,,,,,,,,,,,,,,,,,,,,,,,,,,,,,
,,,,,,,64275d22f204d1161ad23e64,2023-08-16_08h52.10.450,HF_wild_card,2022.2.4,Win32,59.89817311,64275d22f204d1161ad23e64,64d2fd46c836a06233681665,64dc7f5370a266150a1270de,,,,,,,decisionTrl,resources/DR.BMP,resources/DG.BMP,Door1,0.356921013,0.001464164,1,0,0,2.0478,optionRight,30,9165,4,38,0,38,0,1,,,,,,,,,,,,,,,,,,,,,,,,,,,,,,,,,,,,,,,
,,,,,,,64275d22f204d1161ad23e64,2023-08-16_08h52.10.450,HF_wild_card,2022.2.4,Win32,59.89817311,64275d22f204d1161ad23e64,64d2fd46c836a06233681665,64dc7f5370a266150a1270de,,,,,,,sngl,resources/DY.BMP,resources/Empty.png,WildCard_NonEx,-0.340886236,-0.007106643,1,0,0,0.9482,optionLeft,55,9220,4,39,0,39,0,1,,,,,,,,,,,,,,,,,,,,,,,,,,,,,,,,,,,,,,,
,,,,,,,64275d22f204d1161ad23e64,2023-08-16_08h52.10.450,HF_wild_card,2022.2.4,Win32,59.89817311,64275d22f204d1161ad23e64,64d2fd46c836a06233681665,64dc7f5370a266150a1270de,,,,,,,decisionTrl,resources/DY.BMP,resources/DBN.BMP,Door4,0.354778492,0.031462008,1,0,0,1.1802,optionRight,60,9280,4,40,0,40,0,1,,,,,,,,,,,,,,,,,,,,,,,,,,,,,,,,,,,,,,,
,,,,,,,64275d22f204d1161ad23e64,2023-08-16_08h52.10.450,HF_wild_card,2022.2.4,Win32,59.89817311,64275d22f204d1161ad23e64,64d2fd46c836a06233681665,64dc7f5370a266150a1270de,,,,,,,ctch,resources/DP.BMP,resources/DR.BMP,Door3,-0.380883475,-0.039961451,1,0,0,1.9144,optionLeft,70,9350,4,41,0,41,0,1,,,,,,,,,,,,,,,,,,,,,,,,,,,,,,,,,,,,,,,
,,,,,,,64275d22f204d1161ad23e64,2023-08-16_08h52.10.450,HF_wild_card,2022.2.4,Win32,59.89817311,64275d22f204d1161ad23e64,64d2fd46c836a06233681665,64dc7f5370a266150a1270de,,,,,,,decisionTrl,resources/DP.BMP,resources/DBN.BMP,Door4,0.382633645,0.033604614,1,0,0,1.9643,optionRight,80,9430,4,42,0,42,0,1,,,,,,,,,,,,,,,,,,,,,,,,,,,,,,,,,,,,,,,
,,,,,,,64275d22f204d1161ad23e64,2023-08-16_08h52.10.450,HF_wild_card,2022.2.4,Win32,59.89817311,64275d22f204d1161ad23e64,64d2fd46c836a06233681665,64dc7f5370a266150a1270de,,,,,,,sngl,resources/Empty.png,resources/DBN.BMP,Door4,0.261213552,3.5703E-05,1,0,0,0.8983,optionRight,80,9510,4,43,0,43,0,1,,,,,,,,,,,,,,,,,,,,,,,,,,,,,,,,,,,,,,,
,,,,,,,64275d22f204d1161ad23e64,2023-08-16_08h52.10.450,HF_wild_card,2022.2.4,Win32,59.89817311,64275d22f204d1161ad23e64,64d2fd46c836a06233681665,64dc7f5370a266150a1270de,,,,,,,,,,,,,,,,,,,,,,,,,,3,0,3,0,1,,,,,,,,,,,,,,,,,,,,,,,,,,,,,,,,,,
,,,,,,,64275d22f204d1161ad23e64,2023-08-16_08h52.10.450,HF_wild_card,2022.2.4,Win32,59.89817311,64275d22f204d1161ad23e64,64d2fd46c836a06233681665,64dc7f5370a266150a1270de,,,,,,,sngl,resources/DG.BMP,resources/Empty.png,Door1,-0.326601544,-0.055674731,1,0,0,1.1751,optionLeft,30,9540,5,0,0,0,0,1,,,,,,,,,,,,,,,,,,,,,,,,,,,,,,,,,,,,,,,
,,,,,,,64275d22f204d1161ad23e64,2023-08-16_08h52.10.450,HF_wild_card,2022.2.4,Win32,59.89817311,64275d22f204d1161ad23e64,64d2fd46c836a06233681665,64dc7f5370a266150a1270de,,,,,,,decisionTrl,resources/DG.BMP,resources/DR.BMP,Door2,0.294068318,0.020034152,1,0,0,2.7478,optionRight,40,9580,5,1,0,1,0,1,,,,,,,,,,,,,,,,,,,,,,,,,,,,,,,,,,,,,,,
,,,,,,,64275d22f204d1161ad23e64,2023-08-16_08h52.10.450,HF_wild_card,2022.2.4,Win32,59.89817311,64275d22f204d1161ad23e64,64d2fd46c836a06233681665,64dc7f5370a266150a1270de,,,,,,,sngl,resources/DBN.BMP,resources/Empty.png,Door4,-0.327315774,0.015748855,1,0,0,0.8069,optionLeft,80,9660,5,2,0,2,0,1,,,,,,,,,,,,,,,,,,,,,,,,,,,,,,,,,,,,,,,
,,,,,,,64275d22f204d1161ad23e64,2023-08-16_08h52.10.450,HF_wild_card,2022.2.4,Win32,59.89817311,64275d22f204d1161ad23e64,64d2fd46c836a06233681665,64dc7f5370a266150a1270de,,,,,,,decisionTrl,resources/DR.BMP,resources/DG.BMP,Door1,0.294782548,0.033604614,1,0,0,2.2234,optionRight,30,9690,5,3,0,3,0,1,,,,,,,,,,,,,,,,,,,,,,,,,,,,,,,,,,,,,,,
,,,,,,,64275d22f204d1161ad23e64,2023-08-16_08h52.10.450,HF_wild_card,2022.2.4,Win32,59.89817311,64275d22f204d1161ad23e64,64d2fd46c836a06233681665,64dc7f5370a266150a1270de,,,,,,,decisionTrl,resources/DBN.BMP,resources/DP.BMP,Door4,-0.388739966,0.005749461,1,0,0,1.2967,optionLeft,60,9750,5,4,0,4,0,1,,,,,,,,,,,,,,,,,,,,,,,,,,,,,,,,,,,,,,,
,,,,,,,64275d22f204d1161ad23e64,2023-08-16_08h52.10.450,HF_wild_card,2022.2.4,Win32,59.89817311,64275d22f204d1161ad23e64,64d2fd46c836a06233681665,64dc7f5370a266150a1270de,,,,,,,decisionTrl,resources/DR.BMP,resources/DG.BMP,Door2,-0.300889209,0.004321085,1,0,0,1.5809,optionLeft,40,9790,5,5,0,5,0,1,,,,,,,,,,,,,,,,,,,,,,,,,,,,,,,,,,,,,,,
,,,,,,,64275d22f204d1161ad23e64,2023-08-16_08h52.10.450,HF_wild_card,2022.2.4,Win32,59.89817311,64275d22f204d1161ad23e64,64d2fd46c836a06233681665,64dc7f5370a266150a1270de,,,,,,,ctch,resources/DG.BMP,resources/DBN.BMP,Door4,0.334779702,0.00932074,1,0,0,1.0142,optionRight,80,9870,5,6,0,6,0,1,,,,,,,,,,,,,,,,,,,,,,,,,,,,,,,,,,,,,,,
,,,,,,,64275d22f204d1161ad23e64,2023-08-16_08h52.10.450,HF_wild_card,2022.2.4,Win32,59.89817311,64275d22f204d1161ad23e64,64d2fd46c836a06233681665,64dc7f5370a266150a1270de,,,,,,,decisionTrl,resources/DP.BMP,resources/DBN.BMP,Door4,0.269784571,0.011463431,1,0,0,1.0818,optionRight,80,9950,5,7,0,7,0,1,,,,,,,,,,,,,,,,,,,,,,,,,,,,,,,,,,,,,,,
,,,,,,,64275d22f204d1161ad23e64,2023-08-16_08h52.10.450,HF_wild_card,2022.2.4,Win32,59.89817311,64275d22f204d1161ad23e64,64d2fd46c836a06233681665,64dc7f5370a266150a1270de,,,,,,,ctch,resources/DR.BMP,resources/DP.BMP,Door3,0.365491777,-0.001392885,1,0,0,1.1146,optionRight,70,10020,5,8,0,8,0,1,,,,,,,,,,,,,,,,,,,,,,,,,,,,,,,,,,,,,,,
,,,,,,,64275d22f204d1161ad23e64,2023-08-16_08h52.10.450,HF_wild_card,2022.2.4,Win32,59.89817311,64275d22f204d1161ad23e64,64d2fd46c836a06233681665,64dc7f5370a266150a1270de,,,,,,,sngl,resources/Empty.png,resources/DBN.BMP,Door4,0.284783494,0.017177316,1,0,0,0.7813,optionRight,60,10080,5,9,0,9,0,1,,,,,,,,,,,,,,,,,,,,,,,,,,,,,,,,,,,,,,,
,,,,,,,64275d22f204d1161ad23e64,2023-08-16_08h52.10.450,HF_wild_card,2022.2.4,Win32,59.89817311,64275d22f204d1161ad23e64,64d2fd46c836a06233681665,64dc7f5370a266150a1270de,,,,,,,decisionTrl,resources/DP.BMP,resources/DY.BMP,Door3,-0.309460016,-0.007821001,1,0,0,0.9983,optionLeft,70,10150,5,10,0,10,0,1,,,,,,,,,,,,,,,,,,,,,,,,,,,,,,,,,,,,,,,
,,,,,,,64275d22f204d1161ad23e64,2023-08-16_08h52.10.450,HF_wild_card,2022.2.4,Win32,59.89817311,64275d22f204d1161ad23e64,64d2fd46c836a06233681665,64dc7f5370a266150a1270de,,,,,,,decisionTrl,resources/DY.BMP,resources/DP.BMP,Door3,0.336208163,-0.002821261,1,0,0,1.7423,optionRight,70,10220,5,11,0,11,0,1,,,,,,,,,,,,,,,,,,,,,,,,,,,,,,,,,,,,,,,
,,,,,,,64275d22f204d1161ad23e64,2023-08-16_08h52.10.450,HF_wild_card,2022.2.4,Win32,59.89817311,64275d22f204d1161ad23e64,64d2fd46c836a06233681665,64dc7f5370a266150a1270de,,,,,,,ctch,resources/DP.BMP,resources/DR.BMP,Door3,-0.327315774,-0.020677104,1,0,0,1.6484,optionLeft,70,10290,5,12,0,12,0,1,,,,,,,,,,,,,,,,,,,,,,,,,,,,,,,,,,,,,,,
,,,,,,,64275d22f204d1161ad23e64,2023-08-16_08h52.10.450,HF_wild_card,2022.2.4,Win32,59.89817311,64275d22f204d1161ad23e64,64d2fd46c836a06233681665,64dc7f5370a266150a1270de,,,,,,,ctch,resources/DG.BMP,resources/DBN.BMP,Door4,0.294068318,0.047175075,1,0,0,1.5313,optionRight,80,10370,5,13,0,13,0,1,,,,,,,,,,,,,,,,,,,,,,,,,,,,,,,,,,,,,,,
,,,,,,,64275d22f204d1161ad23e64,2023-08-16_08h52.10.450,HF_wild_card,2022.2.4,Win32,59.89817311,64275d22f204d1161ad23e64,64d2fd46c836a06233681665,64dc7f5370a266150a1270de,,,,,,,sngl,resources/DR.BMP,resources/Empty.png,Door2,-0.30374613,0.004321085,1,0,0,1.3315,optionLeft,40,10410,5,14,0,14,0,1,,,,,,,,,,,,,,,,,,,,,,,,,,,,,,,,,,,,,,,
,,,,,,,64275d22f204d1161ad23e64,2023-08-16_08h52.10.450,HF_wild_card,2022.2.4,Win32,59.89817311,64275d22f204d1161ad23e64,64d2fd46c836a06233681665,64dc7f5370a266150a1270de,,,,,,,decisionTrl,resources/DBN.BMP,resources/DP.BMP,Door4,-0.443021896,0.010749201,1,0,0,1.3639,optionLeft,80,10490,5,15,0,15,0,1,,,,,,,,,,,,,,,,,,,,,,,,,,,,,,,,,,,,,,,
,,,,,,,64275d22f204d1161ad23e64,2023-08-16_08h52.10.450,HF_wild_card,2022.2.4,Win32,59.89817311,64275d22f204d1161ad23e64,64d2fd46c836a06233681665,64dc7f5370a266150a1270de,,,,,,,decisionTrl,resources/DG.BMP,resources/DR.BMP,Door2,0.277640935,0.022891201,1,0,0,1.9309,optionRight,40,10530,5,16,0,16,0,1,,,,,,,,,,,,,,,,,,,,,,,,,,,,,,,,,,,,,,,
,,,,,,,64275d22f204d1161ad23e64,2023-08-16_08h52.10.450,HF_wild_card,2022.2.4,Win32,59.89817311,64275d22f204d1161ad23e64,64d2fd46c836a06233681665,64dc7f5370a266150a1270de,,,,,,,sngl,resources/Empty.png,resources/DR.BMP,Door2,0.274069783,0.018605777,1,0,0,1.2982,optionRight,20,10550,5,17,0,17,0,1,,,,,,,,,,,,,,,,,,,,,,,,,,,,,,,,,,,,,,,
,,,,,,,64275d22f204d1161ad23e64,2023-08-16_08h52.10.450,HF_wild_card,2022.2.4,Win32,59.89817311,64275d22f204d1161ad23e64,64d2fd46c836a06233681665,64dc7f5370a266150a1270de,,,,,,,ctch,resources/DBN.BMP,resources/DG.BMP,Door4,-0.277319438,0.003606855,1,0,0,1.1977,optionLeft,60,10610,5,18,0,18,0,1,,,,,,,,,,,,,,,,,,,,,,,,,,,,,,,,,,,,,,,
,,,,,,,64275d22f204d1161ad23e64,2023-08-16_08h52.10.450,HF_wild_card,2022.2.4,Win32,59.89817311,64275d22f204d1161ad23e64,64d2fd46c836a06233681665,64dc7f5370a266150a1270de,,,,,,,decisionTrl,resources/DR.BMP,resources/DG.BMP,Door2,-0.33945786,0.015034625,1,0,0,1.9979,optionLeft,20,10630,5,19,0,19,0,1,,,,,,,,,,,,,,,,,,,,,,,,,,,,,,,,,,,,,,,
,,,,,,,64275d22f204d1161ad23e64,2023-08-16_08h52.10.450,HF_wild_card,2022.2.4,Win32,59.89817311,64275d22f204d1161ad23e64,64d2fd46c836a06233681665,64dc7f5370a266150a1270de,,,,,,,sngl,resources/Empty.png,resources/DP.BMP,Door3,0.326923338,-0.001392885,1,0,0,1.4624,optionRight,70,10700,5,20,0,20,0,1,,,,,,,,,,,,,,,,,,,,,,,,,,,,,,,,,,,,,,,
,,,,,,,64275d22f204d1161ad23e64,2023-08-16_08h52.10.450,HF_wild_card,2022.2.4,Win32,59.89817311,64275d22f204d1161ad23e64,64d2fd46c836a06233681665,64dc7f5370a266150a1270de,,,,,,,sngl,resources/Empty.png,resources/DG.BMP,Door1,0.291211397,0.003606855,1,0,0,1.2315,optionRight,30,10730,5,21,0,21,0,1,,,,,,,,,,,,,,,,,,,,,,,,,,,,,,,,,,,,,,,
,,,,,,,64275d22f204d1161ad23e64,2023-08-16_08h52.10.450,HF_wild_card,2022.2.4,Win32,59.89817311,64275d22f204d1161ad23e64,64d2fd46c836a06233681665,64dc7f5370a266150a1270de,,,,,,,decisionTrl,resources/DR.BMP,resources/DY.BMP,WildCard_NonEx,0.198360858,-0.011392067,1,0,0,1.4646,optionRight,45,10775,5,22,0,22,0,1,,,,,,,,,,,,,,,,,,,,,,,,,,,,,,,,,,,,,,,
,,,,,,,64275d22f204d1161ad23e64,2023-08-16_08h52.10.450,HF_wild_card,2022.2.4,Win32,59.89817311,64275d22f204d1161ad23e64,64d2fd46c836a06233681665,64dc7f5370a266150a1270de,,,,,,,decisionTrl,resources/DG.BMP,resources/DY.BMP,WildCard_NonEx,0.259785092,-0.014963347,1,0,0,1.4819,optionRight,45,10820,5,23,0,23,0,1,,,,,,,,,,,,,,,,,,,,,,,,,,,,,,,,,,,,,,,
,,,,,,,64275d22f204d1161ad23e64,2023-08-16_08h52.10.450,HF_wild_card,2022.2.4,Win32,59.89817311,64275d22f204d1161ad23e64,64d2fd46c836a06233681665,64dc7f5370a266150a1270de,,,,,,,decisionTrl,resources/DBN.BMP,resources/DP.BMP,Door4,-0.400882052,0.024319662,1,0,0,1.2313,optionLeft,60,10880,5,24,0,24,0,1,,,,,,,,,,,,,,,,,,,,,,,,,,,,,,,,,,,,,,,
,,,,,,,64275d22f204d1161ad23e64,2023-08-16_08h52.10.450,HF_wild_card,2022.2.4,Win32,59.89817311,64275d22f204d1161ad23e64,64d2fd46c836a06233681665,64dc7f5370a266150a1270de,,,,,,,decisionTrl,resources/DG.BMP,resources/DR.BMP,Door2,0.301924937,0.006463691,1,0,0,2.797,optionRight,40,10920,5,25,0,25,0,1,,,,,,,,,,,,,,,,,,,,,,,,,,,,,,,,,,,,,,,
,,,,,,,64275d22f204d1161ad23e64,2023-08-16_08h52.10.450,HF_wild_card,2022.2.4,Win32,59.89817311,64275d22f204d1161ad23e64,64d2fd46c836a06233681665,64dc7f5370a266150a1270de,,,,,,,sngl,resources/Empty.png,resources/DY.BMP,WildCard_NonEx,0.34120803,0.024319662,1,0,0,1.0137,optionRight,45,10965,5,26,0,26,0,1,,,,,,,,,,,,,,,,,,,,,,,,,,,,,,,,,,,,,,,
,,,,,,,64275d22f204d1161ad23e64,2023-08-16_08h52.10.450,HF_wild_card,2022.2.4,Win32,59.89817311,64275d22f204d1161ad23e64,64d2fd46c836a06233681665,64dc7f5370a266150a1270de,,,,,,,ctch,resources/DR.BMP,resources/DP.BMP,Door3,0.346921703,-0.004249722,1,0,0,1.0316,optionRight,70,11035,5,27,0,27,0,1,,,,,,,,,,,,,,,,,,,,,,,,,,,,,,,,,,,,,,,
,,,,,,,64275d22f204d1161ad23e64,2023-08-16_08h52.10.450,HF_wild_card,2022.2.4,Win32,59.89817311,64275d22f204d1161ad23e64,64d2fd46c836a06233681665,64dc7f5370a266150a1270de,,,,,,,sngl,resources/DY.BMP,resources/Empty.png,WildCard_NonEx,-0.245893133,-0.011392067,1,0,0,0.8814,optionLeft,55,11090,5,28,0,28,0,1,,,,,,,,,,,,,,,,,,,,,,,,,,,,,,,,,,,,,,,
,,,,,,,64275d22f204d1161ad23e64,2023-08-16_08h52.10.450,HF_wild_card,2022.2.4,Win32,59.89817311,64275d22f204d1161ad23e64,64d2fd46c836a06233681665,64dc7f5370a266150a1270de,,,,,,,decisionTrl,resources/DP.BMP,resources/DBN.BMP,Door4,0.374776856,0.041461318,1,0,0,0.9934,optionRight,60,11150,5,29,0,29,0,1,,,,,,,,,,,,,,,,,,,,,,,,,,,,,,,,,,,,,,,
,,,,,,,64275d22f204d1161ad23e64,2023-08-16_08h52.10.450,HF_wild_card,2022.2.4,Win32,59.89817311,64275d22f204d1161ad23e64,64d2fd46c836a06233681665,64dc7f5370a266150a1270de,,,,,,,sngl,resources/Empty.png,resources/DY.BMP,WildCard_NonEx,0.25692834,-0.015677492,1,0,0,1.0144,optionRight,55,11205,5,30,0,30,0,1,,,,,,,,,,,,,,,,,,,,,,,,,,,,,,,,,,,,,,,
,,,,,,,64275d22f204d1161ad23e64,2023-08-16_08h52.10.450,HF_wild_card,2022.2.4,Win32,59.89817311,64275d22f204d1161ad23e64,64d2fd46c836a06233681665,64dc7f5370a266150a1270de,,,,,,,decisionTrl,resources/DY.BMP,resources/DG.BMP,WildCard_NonEx,-0.280890632,0.006463691,1,0,0,1.0146,optionLeft,55,11260,5,31,0,31,0,1,,,,,,,,,,,,,,,,,,,,,,,,,,,,,,,,,,,,,,,
,,,,,,,64275d22f204d1161ad23e64,2023-08-16_08h52.10.450,HF_wild_card,2022.2.4,Win32,59.89817311,64275d22f204d1161ad23e64,64d2fd46c836a06233681665,64dc7f5370a266150a1270de,,,,,,,decisionTrl,resources/DP.BMP,resources/DBN.BMP,Door4,0.326923338,0.007892279,1,0,0,1.0315,optionRight,60,11320,5,32,0,32,0,1,,,,,,,,,,,,,,,,,,,,,,,,,,,,,,,,,,,,,,,
,,,,,,,64275d22f204d1161ad23e64,2023-08-16_08h52.10.450,HF_wild_card,2022.2.4,Win32,59.89817311,64275d22f204d1161ad23e64,64d2fd46c836a06233681665,64dc7f5370a266150a1270de,,,,,,,sngl,resources/DP.BMP,resources/Empty.png,Door3,-0.281604862,0.025033892,1,0,0,0.9085,optionLeft,70,11390,5,33,0,33,0,1,,,,,,,,,,,,,,,,,,,,,,,,,,,,,,,,,,,,,,,
,,,,,,,64275d22f204d1161ad23e64,2023-08-16_08h52.10.450,HF_wild_card,2022.2.4,Win32,59.89817311,64275d22f204d1161ad23e64,64d2fd46c836a06233681665,64dc7f5370a266150a1270de,,,,,,,decisionTrl,resources/DBN.BMP,resources/DY.BMP,Door4,-0.25517817,0.006463691,1,0,0,0.9309,optionLeft,80,11470,5,34,0,34,0,1,,,,,,,,,,,,,,,,,,,,,,,,,,,,,,,,,,,,,,,
,,,,,,,64275d22f204d1161ad23e64,2023-08-16_08h52.10.450,HF_wild_card,2022.2.4,Win32,59.89817311,64275d22f204d1161ad23e64,64d2fd46c836a06233681665,64dc7f5370a266150a1270de,,,,,,,ctch,resources/DP.BMP,resources/DR.BMP,Door3,-0.293032633,0.015034625,1,0,0,0.8809,optionLeft,70,11540,5,35,0,35,0,1,,,,,,,,,,,,,,,,,,,,,,,,,,,,,,,,,,,,,,,
,,,,,,,64275d22f204d1161ad23e64,2023-08-16_08h52.10.450,HF_wild_card,2022.2.4,Win32,59.89817311,64275d22f204d1161ad23e64,64d2fd46c836a06233681665,64dc7f5370a266150a1270de,,,,,,,ctch,resources/DBN.BMP,resources/DG.BMP,Door4,-0.335172478,-0.002107031,1,0,0,1.1149,optionLeft,60,11600,5,36,0,36,0,1,,,,,,,,,,,,,,,,,,,,,,,,,,,,,,,,,,,,,,,
,,,,,,,64275d22f204d1161ad23e64,2023-08-16_08h52.10.450,HF_wild_card,2022.2.4,Win32,59.89817311,64275d22f204d1161ad23e64,64d2fd46c836a06233681665,64dc7f5370a266150a1270de,,,,,,,decisionTrl,resources/DG.BMP,resources/DR.BMP,Door2,0.364063316,0.007178049,1,0,0,1.9312,optionRight,40,11640,5,37,0,37,0,1,,,,,,,,,,,,,,,,,,,,,,,,,,,,,,,,,,,,,,,
,,,,,,,64275d22f204d1161ad23e64,2023-08-16_08h52.10.450,HF_wild_card,2022.2.4,Win32,59.89817311,64275d22f204d1161ad23e64,64d2fd46c836a06233681665,64dc7f5370a266150a1270de,,,,,,,decisionTrl,resources/DY.BMP,resources/DBN.BMP,Door4,0.429772932,0.033604614,1,0,0,1.515,optionRight,80,11720,5,38,0,38,0,1,,,,,,,,,,,,,,,,,,,,,,,,,,,,,,,,,,,,,,,
,,,,,,,64275d22f204d1161ad23e64,2023-08-16_08h52.10.450,HF_wild_card,2022.2.4,Win32,59.89817311,64275d22f204d1161ad23e64,64d2fd46c836a06233681665,64dc7f5370a266150a1270de,,,,,,,sngl,resources/DY.BMP,resources/Empty.png,WildCard_NonEx,-0.229465623,0.002178394,1,0,0,0.8315,optionLeft,45,11765,5,39,0,39,0,1,,,,,,,,,,,,,,,,,,,,,,,,,,,,,,,,,,,,,,,
,,,,,,,64275d22f204d1161ad23e64,2023-08-16_08h52.10.450,HF_wild_card,2022.2.4,Win32,59.89817311,64275d22f204d1161ad23e64,64d2fd46c836a06233681665,64dc7f5370a266150a1270de,,,,,,,decisionTrl,resources/DP.BMP,resources/DBN.BMP,Door4,0.290497166,0.026462268,1,0,0,0.8986,optionRight,80,11845,5,40,0,40,0,1,,,,,,,,,,,,,,,,,,,,,,,,,,,,,,,,,,,,,,,
,,,,,,,64275d22f204d1161ad23e64,2023-08-16_08h52.10.450,HF_wild_card,2022.2.4,Win32,59.89817311,64275d22f204d1161ad23e64,64d2fd46c836a06233681665,64dc7f5370a266150a1270de,,,,,,,decisionTrl,resources/DR.BMP,resources/DG.BMP,Door2,-0.293746863,0.000749933,1,0,0,0.948,optionLeft,20,11865,5,41,0,41,0,1,,,,,,,,,,,,,,,,,,,,,,,,,,,,,,,,,,,,,,,
,,,,,,,64275d22f204d1161ad23e64,2023-08-16_08h52.10.450,HF_wild_card,2022.2.4,Win32,59.89817311,64275d22f204d1161ad23e64,64d2fd46c836a06233681665,64dc7f5370a266150a1270de,,,,,,,decisionTrl,resources/DY.BMP,resources/DR.BMP,WildCard_NonEx,-0.335172478,0.000749933,1,0,0,1.2804,optionLeft,45,11910,5,42,0,42,0,1,,,,,,,,,,,,,,,,,,,,,,,,,,,,,,,,,,,,,,,
,,,,,,,64275d22f204d1161ad23e64,2023-08-16_08h52.10.450,HF_wild_card,2022.2.4,Win32,59.89817311,64275d22f204d1161ad23e64,64d2fd46c836a06233681665,64dc7f5370a266150a1270de,,,,,,,decisionTrl,resources/DBN.BMP,resources/DP.BMP,Door4,-0.366598783,0.002892624,1,0,0,1.3474,optionLeft,60,11970,5,43,0,43,0,1,,,,,,,,,,,,,,,,,,,,,,,,,,,,,,,,,,,,,,,
,,,,,,,64275d22f204d1161ad23e64,2023-08-16_08h52.10.450,HF_wild_card,2022.2.4,Win32,59.89817311,64275d22f204d1161ad23e64,64d2fd46c836a06233681665,64dc7f5370a266150a1270de,,,,,,,,,,,,,,,,,,,,,,,,,,4,0,4,0,1,,,,,,,,,,,,,,,,,,,,,,,,,,,,,,,,,,
,,,,,,,64275d22f204d1161ad23e64,2023-08-16_08h52.10.450,HF_wild_card,2022.2.4,Win32,59.89817311,64275d22f204d1161ad23e64,64d2fd46c836a06233681665,64dc7f5370a266150a1270de,,,,,,,decisionTrl,resources/DY.BMP,resources/DBN.BMP,Door4,0.387633087,0.106456661,1,0,0,1.0423,optionRight,80,12050,6,0,0,0,0,1,,,,,,,,,,,,,,,,,,,,,,,,,,,,,,,,,,,,,,,
,,,,,,,64275d22f204d1161ad23e64,2023-08-16_08h52.10.450,HF_wild_card,2022.2.4,Win32,59.89817311,64275d22f204d1161ad23e64,64d2fd46c836a06233681665,64dc7f5370a266150a1270de,,,,,,,ctch,resources/DR.BMP,resources/DP.BMP,Door3,0.285497724,0.012177619,1,0,0,0.9316,optionRight,70,12120,6,1,0,1,0,1,,,,,,,,,,,,,,,,,,,,,,,,,,,,,,,,,,,,,,,
,,,,,,,64275d22f204d1161ad23e64,2023-08-16_08h52.10.450,HF_wild_card,2022.2.4,Win32,59.89817311,64275d22f204d1161ad23e64,64d2fd46c836a06233681665,64dc7f5370a266150a1270de,,,,,,,decisionTrl,resources/DG.BMP,resources/DR.BMP,Door2,0.363349086,0.023605432,1,0,0,2.1306,optionRight,20,12140,6,2,0,2,0,1,,,,,,,,,,,,,,,,,,,,,,,,,,,,,,,,,,,,,,,
,,,,,,,64275d22f204d1161ad23e64,2023-08-16_08h52.10.450,HF_wild_card,2022.2.4,Win32,59.89817311,64275d22f204d1161ad23e64,64d2fd46c836a06233681665,64dc7f5370a266150a1270de,,,,,,,decisionTrl,resources/DBN.BMP,resources/DP.BMP,Door4,-0.486590223,0.00860651,1,0,0,1.3153,optionLeft,80,12220,6,3,0,3,0,1,,,,,,,,,,,,,,,,,,,,,,,,,,,,,,,,,,,,,,,
,,,,,,,64275d22f204d1161ad23e64,2023-08-16_08h52.10.450,HF_wild_card,2022.2.4,Win32,59.89817311,64275d22f204d1161ad23e64,64d2fd46c836a06233681665,64dc7f5370a266150a1270de,,,,,,,decisionTrl,resources/DP.BMP,resources/DBN.BMP,Door4,0.244072109,0.001464164,1,0,0,0.9669,optionRight,80,12300,6,4,0,4,0,1,,,,,,,,,,,,,,,,,,,,,,,,,,,,,,,,,,,,,,,
,,,,,,,64275d22f204d1161ad23e64,2023-08-16_08h52.10.450,HF_wild_card,2022.2.4,Win32,59.89817311,64275d22f204d1161ad23e64,64d2fd46c836a06233681665,64dc7f5370a266150a1270de,,,,,,,decisionTrl,resources/DP.BMP,resources/DBN.BMP,Door4,0.266213165,-0.001392885,1,0,0,0.934,optionRight,80,12380,6,5,0,5,0,1,,,,,,,,,,,,,,,,,,,,,,,,,,,,,,,,,,,,,,,
,,,,,,,64275d22f204d1161ad23e64,2023-08-16_08h52.10.450,HF_wild_card,2022.2.4,Win32,59.89817311,64275d22f204d1161ad23e64,64d2fd46c836a06233681665,64dc7f5370a266150a1270de,,,,,,,decisionTrl,resources/DR.BMP,resources/DG.BMP,Door1,0.332637011,0.026462268,1,0,0,1.998,optionRight,30,12410,6,6,0,6,0,1,,,,,,,,,,,,,,,,,,,,,,,,,,,,,,,,,,,,,,,
,,,,,,,64275d22f204d1161ad23e64,2023-08-16_08h52.10.450,HF_wild_card,2022.2.4,Win32,59.89817311,64275d22f204d1161ad23e64,64d2fd46c836a06233681665,64dc7f5370a266150a1270de,,,,,,,decisionTrl,resources/DY.BMP,resources/DG.BMP,WildCard_NonEx,-0.356599516,-0.012820528,1,0,0,1.1975,optionLeft,55,12465,6,7,0,7,0,1,,,,,,,,,,,,,,,,,,,,,,,,,,,,,,,,,,,,,,,
,,,,,,,64275d22f204d1161ad23e64,2023-08-16_08h52.10.450,HF_wild_card,2022.2.4,Win32,59.89817311,64275d22f204d1161ad23e64,64d2fd46c836a06233681665,64dc7f5370a266150a1270de,,,,,,,sngl,resources/DBN.BMP,resources/Empty.png,Door4,-0.348028581,0.005749461,1,0,0,0.8651,optionLeft,60,12525,6,8,0,8,0,1,,,,,,,,,,,,,,,,,,,,,,,,,,,,,,,,,,,,,,,
,,,,,,,64275d22f204d1161ad23e64,2023-08-16_08h52.10.450,HF_wild_card,2022.2.4,Win32,59.89817311,64275d22f204d1161ad23e64,64d2fd46c836a06233681665,64dc7f5370a266150a1270de,,,,,,,decisionTrl,resources/DBN.BMP,resources/DP.BMP,Door4,-0.342314824,-0.004249722,1,0,0,0.8974,optionLeft,80,12605,6,9,0,9,0,1,,,,,,,,,,,,,,,,,,,,,,,,,,,,,,,,,,,,,,,
,,,,,,,64275d22f204d1161ad23e64,2023-08-16_08h52.10.450,HF_wild_card,2022.2.4,Win32,59.89817311,64275d22f204d1161ad23e64,64d2fd46c836a06233681665,64dc7f5370a266150a1270de,,,,,,,decisionTrl,resources/DBN.BMP,resources/DY.BMP,Door4,-0.301603439,-0.004249722,1,0,0,0.9483,optionLeft,60,12665,6,10,0,10,0,1,,,,,,,,,,,,,,,,,,,,,,,,,,,,,,,,,,,,,,,
,,,,,,,64275d22f204d1161ad23e64,2023-08-16_08h52.10.450,HF_wild_card,2022.2.4,Win32,59.89817311,64275d22f204d1161ad23e64,64d2fd46c836a06233681665,64dc7f5370a266150a1270de,,,,,,,decisionTrl,resources/DR.BMP,resources/DG.BMP,Door1,0.406203161,0.043604009,1,0,0,2.1312,optionRight,30,12695,6,11,0,11,0,1,,,,,,,,,,,,,,,,,,,,,,,,,,,,,,,,,,,,,,,
,,,,,,,64275d22f204d1161ad23e64,2023-08-16_08h52.10.450,HF_wild_card,2022.2.4,Win32,59.89817311,64275d22f204d1161ad23e64,64d2fd46c836a06233681665,64dc7f5370a266150a1270de,,,,,,,ctch,resources/DG.BMP,resources/DBN.BMP,Door4,0.362634855,0.003606855,1,0,0,0.998,optionRight,60,12755,6,12,0,12,0,1,,,,,,,,,,,,,,,,,,,,,,,,,,,,,,,,,,,,,,,
,,,,,,,64275d22f204d1161ad23e64,2023-08-16_08h52.10.450,HF_wild_card,2022.2.4,Win32,59.89817311,64275d22f204d1161ad23e64,64d2fd46c836a06233681665,64dc7f5370a266150a1270de,,,,,,,sngl,resources/DY.BMP,resources/Empty.png,WildCard_NonEx,-0.243750315,0.000749933,1,0,0,0.9146,optionLeft,45,12800,6,13,0,13,0,1,,,,,,,,,,,,,,,,,,,,,,,,,,,,,,,,,,,,,,,
,,,,,,,64275d22f204d1161ad23e64,2023-08-16_08h52.10.450,HF_wild_card,2022.2.4,Win32,59.89817311,64275d22f204d1161ad23e64,64d2fd46c836a06233681665,64dc7f5370a266150a1270de,,,,,,,decisionTrl,resources/DY.BMP,resources/DP.BMP,Door3,0.356206782,0.002892624,1,0,0,1.5647,optionRight,70,12870,6,14,0,14,0,1,,,,,,,,,,,,,,,,,,,,,,,,,,,,,,,,,,,,,,,
,,,,,,,64275d22f204d1161ad23e64,2023-08-16_08h52.10.450,HF_wild_card,2022.2.4,Win32,59.89817311,64275d22f204d1161ad23e64,64d2fd46c836a06233681665,64dc7f5370a266150a1270de,,,,,,,ctch,resources/DBN.BMP,resources/DG.BMP,Door4,-0.309460016,-0.013534758,1,0,0,0.9145,optionLeft,80,12950,6,15,0,15,0,1,,,,,,,,,,,,,,,,,,,,,,,,,,,,,,,,,,,,,,,
,,,,,,,64275d22f204d1161ad23e64,2023-08-16_08h52.10.450,HF_wild_card,2022.2.4,Win32,59.89817311,64275d22f204d1161ad23e64,64d2fd46c836a06233681665,64dc7f5370a266150a1270de,,,,,,,sngl,resources/Empty.png,resources/DY.BMP,WildCard_NonEx,0.33120855,0.010749201,1,0,0,0.8818,optionRight,45,12995,6,16,0,16,0,1,,,,,,,,,,,,,,,,,,,,,,,,,,,,,,,,,,,,,,,
,,,,,,,64275d22f204d1161ad23e64,2023-08-16_08h52.10.450,HF_wild_card,2022.2.4,Win32,59.89817311,64275d22f204d1161ad23e64,64d2fd46c836a06233681665,64dc7f5370a266150a1270de,,,,,,,sngl,resources/Empty.png,resources/DR.BMP,Door2,0.313352877,-0.009249376,1,0,0,0.998,optionRight,40,13035,6,17,0,17,0,1,,,,,,,,,,,,,,,,,,,,,,,,,,,,,,,,,,,,,,,
,,,,,,,64275d22f204d1161ad23e64,2023-08-16_08h52.10.450,HF_wild_card,2022.2.4,Win32,59.89817311,64275d22f204d1161ad23e64,64d2fd46c836a06233681665,64dc7f5370a266150a1270de,,,,,,,sngl,resources/Empty.png,resources/DP.BMP,Door3,0.3404938,3.5703E-05,1,0,0,0.8981,optionRight,70,13105,6,18,0,18,0,1,,,,,,,,,,,,,,,,,,,,,,,,,,,,,,,,,,,,,,,
,,,,,,,64275d22f204d1161ad23e64,2023-08-16_08h52.10.450,HF_wild_card,2022.2.4,Win32,59.89817311,64275d22f204d1161ad23e64,64d2fd46c836a06233681665,64dc7f5370a266150a1270de,,,,,,,decisionTrl,resources/DP.BMP,resources/DBN.BMP,Door4,0.336208163,0.026462268,1,0,0,1.0644,optionRight,60,13165,6,19,0,19,0,1,,,,,,,,,,,,,,,,,,,,,,,,,,,,,,,,,,,,,,,
,,,,,,,64275d22f204d1161ad23e64,2023-08-16_08h52.10.450,HF_wild_card,2022.2.4,Win32,59.89817311,64275d22f204d1161ad23e64,64d2fd46c836a06233681665,64dc7f5370a266150a1270de,,,,,,,decisionTrl,resources/DP.BMP,resources/DBN.BMP,Door4,0.34120803,0.002178394,1,0,0,0.9483,optionRight,80,13245,6,20,0,20,0,1,,,,,,,,,,,,,,,,,,,,,,,,,,,,,,,,,,,,,,,
,,,,,,,64275d22f204d1161ad23e64,2023-08-16_08h52.10.450,HF_wild_card,2022.2.4,Win32,59.89817311,64275d22f204d1161ad23e64,64d2fd46c836a06233681665,64dc7f5370a266150a1270de,,,,,,,decisionTrl,resources/DR.BMP,resources/DG.BMP,Door1,0.291211397,0.007892279,1,0,0,3.3806,optionRight,30,13275,6,21,0,21,0,1,,,,,,,,,,,,,,,,,,,,,,,,,,,,,,,,,,,,,,,
,,,,,,,64275d22f204d1161ad23e64,2023-08-16_08h52.10.450,HF_wild_card,2022.2.4,Win32,59.89817311,64275d22f204d1161ad23e64,64d2fd46c836a06233681665,64dc7f5370a266150a1270de,,,,,,,sngl,resources/DR.BMP,resources/Empty.png,Door2,-0.336600939,-0.007106643,1,0,0,0.9481,optionLeft,20,13295,6,22,0,22,0,1,,,,,,,,,,,,,,,,,,,,,,,,,,,,,,,,,,,,,,,
,,,,,,,64275d22f204d1161ad23e64,2023-08-16_08h52.10.450,HF_wild_card,2022.2.4,Win32,59.89817311,64275d22f204d1161ad23e64,64d2fd46c836a06233681665,64dc7f5370a266150a1270de,,,,,,,decisionTrl,resources/DG.BMP,resources/DR.BMP,Door1,-0.30231767,-0.004249722,1,0,0,1.1153,optionLeft,30,13325,6,23,0,23,0,1,,,,,,,,,,,,,,,,,,,,,,,,,,,,,,,,,,,,,,,
,,,,,,,64275d22f204d1161ad23e64,2023-08-16_08h52.10.450,HF_wild_card,2022.2.4,Win32,59.89817311,64275d22f204d1161ad23e64,64d2fd46c836a06233681665,64dc7f5370a266150a1270de,,,,,,,ctch,resources/DG.BMP,resources/DBN.BMP,Door4,0.380490954,0.00860651,1,0,0,1.3643,optionRight,80,13405,6,24,0,24,0,1,,,,,,,,,,,,,,,,,,,,,,,,,,,,,,,,,,,,,,,
,,,,,,,64275d22f204d1161ad23e64,2023-08-16_08h52.10.450,HF_wild_card,2022.2.4,Win32,59.89817311,64275d22f204d1161ad23e64,64d2fd46c836a06233681665,64dc7f5370a266150a1270de,,,,,,,decisionTrl,resources/DG.BMP,resources/DR.BMP,Door2,0.227644471,-0.000678655,1,0,0,1.9979,optionRight,20,13425,6,25,0,25,0,1,,,,,,,,,,,,,,,,,,,,,,,,,,,,,,,,,,,,,,,
,,,,,,,64275d22f204d1161ad23e64,2023-08-16_08h52.10.450,HF_wild_card,2022.2.4,Win32,59.89817311,64275d22f204d1161ad23e64,64d2fd46c836a06233681665,64dc7f5370a266150a1270de,,,,,,,decisionTrl,resources/DG.BMP,resources/DY.BMP,Door1,-0.269462862,-0.015677492,1,0,0,1.0145,optionLeft,30,13455,6,26,0,26,0,1,,,,,,,,,,,,,,,,,,,,,,,,,,,,,,,,,,,,,,,
,,,,,,,64275d22f204d1161ad23e64,2023-08-16_08h52.10.450,HF_wild_card,2022.2.4,Win32,59.89817311,64275d22f204d1161ad23e64,64d2fd46c836a06233681665,64dc7f5370a266150a1270de,,,,,,,decisionTrl,resources/DBN.BMP,resources/DP.BMP,Door4,-0.319459198,0.002178394,1,0,0,1.1979,optionLeft,60,13515,6,27,0,27,0,1,,,,,,,,,,,,,,,,,,,,,,,,,,,,,,,,,,,,,,,
,,,,,,,64275d22f204d1161ad23e64,2023-08-16_08h52.10.450,HF_wild_card,2022.2.4,Win32,59.89817311,64275d22f204d1161ad23e64,64d2fd46c836a06233681665,64dc7f5370a266150a1270de,,,,,,,sngl,resources/DG.BMP,resources/Empty.png,Door1,-0.149471442,-0.002821261,1,0,0,1.2312,optionLeft,30,13545,6,28,0,28,0,1,,,,,,,,,,,,,,,,,,,,,,,,,,,,,,,,,,,,,,,
,,,,,,,64275d22f204d1161ad23e64,2023-08-16_08h52.10.450,HF_wild_card,2022.2.4,Win32,59.89817311,64275d22f204d1161ad23e64,64d2fd46c836a06233681665,64dc7f5370a266150a1270de,,,,,,,sngl,resources/Empty.png,resources/DG.BMP,Door1,0.369063183,0.00932074,1,0,0,1.015,optionRight,30,13575,6,29,0,29,0,1,,,,,,,,,,,,,,,,,,,,,,,,,,,,,,,,,,,,,,,
,,,,,,,64275d22f204d1161ad23e64,2023-08-16_08h52.10.450,HF_wild_card,2022.2.4,Win32,59.89817311,64275d22f204d1161ad23e64,64d2fd46c836a06233681665,64dc7f5370a266150a1270de,,,,,,,sngl,resources/Empty.png,resources/DY.BMP,WildCard_NonEx,0.304781858,0.011463431,1,0,0,0.8979,optionRight,55,13630,6,30,0,30,0,1,,,,,,,,,,,,,,,,,,,,,,,,,,,,,,,,,,,,,,,
,,,,,,,64275d22f204d1161ad23e64,2023-08-16_08h52.10.450,HF_wild_card,2022.2.4,Win32,59.89817311,64275d22f204d1161ad23e64,64d2fd46c836a06233681665,64dc7f5370a266150a1270de,,,,,,,decisionTrl,resources/DG.BMP,resources/DR.BMP,Door1,-0.228751477,0.025748123,1,0,0,2.0646,optionLeft,30,13660,6,31,0,31,0,1,,,,,,,,,,,,,,,,,,,,,,,,,,,,,,,,,,,,,,,
,,,,,,,64275d22f204d1161ad23e64,2023-08-16_08h52.10.450,HF_wild_card,2022.2.4,Win32,59.89817311,64275d22f204d1161ad23e64,64d2fd46c836a06233681665,64dc7f5370a266150a1270de,,,,,,,sngl,resources/DP.BMP,resources/Empty.png,Door3,-0.258035006,-0.007106643,1,0,0,0.8808,optionLeft,70,13730,6,32,0,32,0,1,,,,,,,,,,,,,,,,,,,,,,,,,,,,,,,,,,,,,,,
,,,,,,,64275d22f204d1161ad23e64,2023-08-16_08h52.10.450,HF_wild_card,2022.2.4,Win32,59.89817311,64275d22f204d1161ad23e64,64d2fd46c836a06233681665,64dc7f5370a266150a1270de,,,,,,,sngl,resources/DY.BMP,resources/Empty.png,WildCard_NonEx,-0.240893478,0.006463691,1,0,0,0.8466,optionLeft,55,13785,6,33,0,33,0,1,,,,,,,,,,,,,,,,,,,,,,,,,,,,,,,,,,,,,,,
,,,,,,,64275d22f204d1161ad23e64,2023-08-16_08h52.10.450,HF_wild_card,2022.2.4,Win32,59.89817311,64275d22f204d1161ad23e64,64d2fd46c836a06233681665,64dc7f5370a266150a1270de,,,,,,,ctch,resources/DP.BMP,resources/DR.BMP,Door3,-0.26660594,-0.007106643,1,0,0,1.3144,optionLeft,70,13855,6,34,0,34,0,1,,,,,,,,,,,,,,,,,,,,,,,,,,,,,,,,,,,,,,,
,,,,,,,64275d22f204d1161ad23e64,2023-08-16_08h52.10.450,HF_wild_card,2022.2.4,Win32,59.89817311,64275d22f204d1161ad23e64,64d2fd46c836a06233681665,64dc7f5370a266150a1270de,,,,,,,sngl,resources/Empty.png,resources/DBN.BMP,Door4,0.30835301,0.030747778,1,0,0,0.8985,optionRight,80,13935,6,35,0,35,0,1,,,,,,,,,,,,,,,,,,,,,,,,,,,,,,,,,,,,,,,
,,,,,,,64275d22f204d1161ad23e64,2023-08-16_08h52.10.450,HF_wild_card,2022.2.4,Win32,59.89817311,64275d22f204d1161ad23e64,64d2fd46c836a06233681665,64dc7f5370a266150a1270de,,,,,,,decisionTrl,resources/DY.BMP,resources/DR.BMP,WildCard_NonEx,-0.288747208,0.001464164,1,0,0,1.0481,optionLeft,55,13990,6,36,0,36,0,1,,,,,,,,,,,,,,,,,,,,,,,,,,,,,,,,,,,,,,,
,,,,,,,64275d22f204d1161ad23e64,2023-08-16_08h52.10.450,HF_wild_card,2022.2.4,Win32,59.89817311,64275d22f204d1161ad23e64,64d2fd46c836a06233681665,64dc7f5370a266150a1270de,,,,,,,decisionTrl,resources/DBN.BMP,resources/DP.BMP,Door4,-0.500160685,-0.011392067,1,0,0,1.1645,optionLeft,80,14070,6,37,0,37,0,1,,,,,,,,,,,,,,,,,,,,,,,,,,,,,,,,,,,,,,,
,,,,,,,64275d22f204d1161ad23e64,2023-08-16_08h52.10.450,HF_wild_card,2022.2.4,Win32,59.89817311,64275d22f204d1161ad23e64,64d2fd46c836a06233681665,64dc7f5370a266150a1270de,,,,,,,ctch,resources/DR.BMP,resources/DP.BMP,Door3,0.382633645,0.018605777,1,0,0,1.0479,optionRight,70,14140,6,38,0,38,0,1,,,,,,,,,,,,,,,,,,,,,,,,,,,,,,,,,,,,,,,
,,,,,,,64275d22f204d1161ad23e64,2023-08-16_08h52.10.450,HF_wild_card,2022.2.4,Win32,59.89817311,64275d22f204d1161ad23e64,64d2fd46c836a06233681665,64dc7f5370a266150a1270de,,,,,,,decisionTrl,resources/DR.BMP,resources/DY.BMP,WildCard_NonEx,0.332637011,0.042889778,1,0,0,1.4652,optionRight,55,14195,6,39,0,39,0,1,,,,,,,,,,,,,,,,,,,,,,,,,,,,,,,,,,,,,,,
,,,,,,,64275d22f204d1161ad23e64,2023-08-16_08h52.10.450,HF_wild_card,2022.2.4,Win32,59.89817311,64275d22f204d1161ad23e64,64d2fd46c836a06233681665,64dc7f5370a266150a1270de,,,,,,,ctch,resources/DP.BMP,resources/DR.BMP,Door3,-0.284461784,-0.008535189,1,0,0,1.6315,optionLeft,70,14265,6,40,0,40,0,1,,,,,,,,,,,,,,,,,,,,,,,,,,,,,,,,,,,,,,,
,,,,,,,64275d22f204d1161ad23e64,2023-08-16_08h52.10.450,HF_wild_card,2022.2.4,Win32,59.89817311,64275d22f204d1161ad23e64,64d2fd46c836a06233681665,64dc7f5370a266150a1270de,,,,,,,decisionTrl,resources/DP.BMP,resources/DY.BMP,Door3,-0.294461094,-0.007821001,1,0,0,0.981,optionLeft,70,14335,6,41,0,41,0,1,,,,,,,,,,,,,,,,,,,,,,,,,,,,,,,,,,,,,,,
,,,,,,,64275d22f204d1161ad23e64,2023-08-16_08h52.10.450,HF_wild_card,2022.2.4,Win32,59.89817311,64275d22f204d1161ad23e64,64d2fd46c836a06233681665,64dc7f5370a266150a1270de,,,,,,,ctch,resources/DBN.BMP,resources/DG.BMP,Door4,-0.309460016,-0.005678182,1,0,0,0.8643,optionLeft,60,14395,6,42,0,42,0,1,,,,,,,,,,,,,,,,,,,,,,,,,,,,,,,,,,,,,,,
,,,,,,,64275d22f204d1161ad23e64,2023-08-16_08h52.10.450,HF_wild_card,2022.2.4,Win32,59.89817311,64275d22f204d1161ad23e64,64d2fd46c836a06233681665,64dc7f5370a266150a1270de,,,,,,,decisionTrl,resources/DR.BMP,resources/DG.BMP,Door1,0.328351629,0.022176971,1,0,0,2.0473,optionRight,30,14425,6,43,0,43,0,1,,,,,,,,,,,,,,,,,,,,,,,,,,,,,,,,,,,,,,,
,,,,,,,64275d22f204d1161ad23e64,2023-08-16_08h52.10.450,HF_wild_card,2022.2.4,Win32,59.89817311,64275d22f204d1161ad23e64,64d2fd46c836a06233681665,64dc7f5370a266150a1270de,,,,,,,,,,,,,,,,,,,,,,,,,,5,0,5,0,1,,,,,,,,,,,,,,,,,,,,,,,,,,,,,,,,,,
,,,,,,,64275d22f204d1161ad23e64,2023-08-16_08h52.10.450,HF_wild_card,2022.2.4,Win32,59.89817311,64275d22f204d1161ad23e64,64d2fd46c836a06233681665,64dc7f5370a266150a1270de,,,,,,,decisionTrl,resources/DBN.BMP,resources/DP.BMP,Door4,-0.216609392,0.060031391,1,0,0,1.34,optionLeft,60,14485,7,0,0,0,0,1,,,,,,,,,,,,,,,,,,,,,,,,,,,,,,,,,,,,,,,
,,,,,,,64275d22f204d1161ad23e64,2023-08-16_08h52.10.450,HF_wild_card,2022.2.4,Win32,59.89817311,64275d22f204d1161ad23e64,64d2fd46c836a06233681665,64dc7f5370a266150a1270de,,,,,,,decisionTrl,resources/DR.BMP,resources/DG.BMP,Door1,0.33977957,0.027890856,1,0,0,1.4979,optionRight,30,14515,7,1,0,1,0,1,,,,,,,,,,,,,,,,,,,,,,,,,,,,,,,,,,,,,,,
,,,,,,,64275d22f204d1161ad23e64,2023-08-16_08h52.10.450,HF_wild_card,2022.2.4,Win32,59.89817311,64275d22f204d1161ad23e64,64d2fd46c836a06233681665,64dc7f5370a266150a1270de,,,,,,,decisionTrl,resources/DBN.BMP,resources/DP.BMP,Door4,-0.262320516,0.02074851,1,0,0,0.8986,optionLeft,80,14595,7,2,0,2,0,1,,,,,,,,,,,,,,,,,,,,,,,,,,,,,,,,,,,,,,,
,,,,,,,64275d22f204d1161ad23e64,2023-08-16_08h52.10.450,HF_wild_card,2022.2.4,Win32,59.89817311,64275d22f204d1161ad23e64,64d2fd46c836a06233681665,64dc7f5370a266150a1270de,,,,,,,decisionTrl,resources/DBN.BMP,resources/DP.BMP,Door4,-0.225894556,0.00860651,1,0,0,0.8155,optionLeft,80,14675,7,3,0,3,0,1,,,,,,,,,,,,,,,,,,,,,,,,,,,,,,,,,,,,,,,
,,,,,,,64275d22f204d1161ad23e64,2023-08-16_08h52.10.450,HF_wild_card,2022.2.4,Win32,59.89817311,64275d22f204d1161ad23e64,64d2fd46c836a06233681665,64dc7f5370a266150a1270de,,,,,,,ctch,resources/DR.BMP,resources/DP.BMP,Door3,0.282640547,-0.020677104,1,0,0,0.9492,optionRight,70,14745,7,4,0,4,0,1,,,,,,,,,,,,,,,,,,,,,,,,,,,,,,,,,,,,,,,
,,,,,,,64275d22f204d1161ad23e64,2023-08-16_08h52.10.450,HF_wild_card,2022.2.4,Win32,59.89817311,64275d22f204d1161ad23e64,64d2fd46c836a06233681665,64dc7f5370a266150a1270de,,,,,,,decisionTrl,resources/DBN.BMP,resources/DP.BMP,Door4,-0.253035479,0.012891807,1,0,0,1.0151,optionLeft,80,14825,7,5,0,5,0,1,,,,,,,,,,,,,,,,,,,,,,,,,,,,,,,,,,,,,,,
,,,,,,,64275d22f204d1161ad23e64,2023-08-16_08h52.10.450,HF_wild_card,2022.2.4,Win32,59.89817311,64275d22f204d1161ad23e64,64d2fd46c836a06233681665,64dc7f5370a266150a1270de,,,,,,,decisionTrl,resources/DP.BMP,resources/DBN.BMP,Door4,0.30906724,0.024319662,1,0,0,0.9294,optionRight,60,14885,7,6,0,6,0,1,,,,,,,,,,,,,,,,,,,,,,,,,,,,,,,,,,,,,,,
,,,,,,,64275d22f204d1161ad23e64,2023-08-16_08h52.10.450,HF_wild_card,2022.2.4,Win32,59.89817311,64275d22f204d1161ad23e64,64d2fd46c836a06233681665,64dc7f5370a266150a1270de,,,,,,,ctch,resources/DG.BMP,resources/DBN.BMP,Door4,0.276212474,0.021462741,1,0,0,0.9155,optionRight,60,14945,7,7,0,7,0,1,,,,,,,,,,,,,,,,,,,,,,,,,,,,,,,,,,,,,,,
,,,,,,,64275d22f204d1161ad23e64,2023-08-16_08h52.10.450,HF_wild_card,2022.2.4,Win32,59.89817311,64275d22f204d1161ad23e64,64d2fd46c836a06233681665,64dc7f5370a266150a1270de,,,,,,,ctch,resources/DG.BMP,resources/DBN.BMP,Door4,0.268355856,0.005749461,1,0,0,1.0986,optionRight,80,15025,7,8,0,8,0,1,,,,,,,,,,,,,,,,,,,,,,,,,,,,,,,,,,,,,,,
,,,,,,,64275d22f204d1161ad23e64,2023-08-16_08h52.10.450,HF_wild_card,2022.2.4,Win32,59.89817311,64275d22f204d1161ad23e64,64d2fd46c836a06233681665,64dc7f5370a266150a1270de,,,,,,,decisionTrl,resources/DBN.BMP,resources/DP.BMP,Door4,-0.245178903,0.011463431,1,0,0,0.8482,optionLeft,60,15085,7,9,0,9,0,1,,,,,,,,,,,,,,,,,,,,,,,,,,,,,,,,,,,,,,,
,,,,,,,64275d22f204d1161ad23e64,2023-08-16_08h52.10.450,HF_wild_card,2022.2.4,Win32,59.89817311,64275d22f204d1161ad23e64,64d2fd46c836a06233681665,64dc7f5370a266150a1270de,,,,,,,ctch,resources/DR.BMP,resources/DP.BMP,Door3,0.286211869,-0.016391722,1,0,0,1.0488,optionRight,70,15155,7,10,0,10,0,1,,,,,,,,,,,,,,,,,,,,,,,,,,,,,,,,,,,,,,,
,,,,,,,64275d22f204d1161ad23e64,2023-08-16_08h52.10.450,HF_wild_card,2022.2.4,Win32,59.89817311,64275d22f204d1161ad23e64,64d2fd46c836a06233681665,64dc7f5370a266150a1270de,,,,,,,decisionTrl,resources/DR.BMP,resources/DG.BMP,Door1,0.342636321,0.030033547,1,0,0,2.2827,optionRight,30,15185,7,11,0,11,0,1,,,,,,,,,,,,,,,,,,,,,,,,,,,,,,,,,,,,,,,
,,,,,,,64275d22f204d1161ad23e64,2023-08-16_08h52.10.450,HF_wild_card,2022.2.4,Win32,59.89817311,64275d22f204d1161ad23e64,64d2fd46c836a06233681665,64dc7f5370a266150a1270de,,,,,,,decisionTrl,resources/DG.BMP,resources/DR.BMP,Door1,-0.271605468,-0.006392413,1,0,0,0.9649,optionLeft,30,15215,7,12,0,12,0,1,,,,,,,,,,,,,,,,,,,,,,,,,,,,,,,,,,,,,,,
,,,,,,,64275d22f204d1161ad23e64,2023-08-16_08h52.10.450,HF_wild_card,2022.2.4,Win32,59.89817311,64275d22f204d1161ad23e64,64d2fd46c836a06233681665,64dc7f5370a266150a1270de,,,,,,,ctch,resources/DR.BMP,resources/DP.BMP,Door3,0.335493933,3.5703E-05,1,0,0,1.0653,optionRight,70,15285,7,13,0,13,0,1,,,,,,,,,,,,,,,,,,,,,,,,,,,,,,,,,,,,,,,
,,,,,,,64275d22f204d1161ad23e64,2023-08-16_08h52.10.450,HF_wild_card,2022.2.4,Win32,59.89817311,64275d22f204d1161ad23e64,64d2fd46c836a06233681665,64dc7f5370a266150a1270de,,,,,,,decisionTrl,resources/DR.BMP,resources/DG.BMP,Door1,0.378348008,0.002892624,1,0,0,1.8022,optionRight,30,15315,7,14,0,14,0,1,,,,,,,,,,,,,,,,,,,,,,,,,,,,,,,,,,,,,,,
,,,,,,,64275d22f204d1161ad23e64,2023-08-16_08h52.10.450,HF_wild_card,2022.2.4,Win32,59.89817311,64275d22f204d1161ad23e64,64d2fd46c836a06233681665,64dc7f5370a266150a1270de,,,,,,,decisionTrl,resources/DG.BMP,resources/DR.BMP,Door1,-0.245893133,-0.009249376,1,0,0,0.932,optionLeft,30,15345,7,15,0,15,0,1,,,,,,,,,,,,,,,,,,,,,,,,,,,,,,,,,,,,,,,
,,,,,,,64275d22f204d1161ad23e64,2023-08-16_08h52.10.450,HF_wild_card,2022.2.4,Win32,59.89817311,64275d22f204d1161ad23e64,64d2fd46c836a06233681665,64dc7f5370a266150a1270de,,,,,,,ctch,resources/DG.BMP,resources/DBN.BMP,Door4,0.354778492,0.023605432,1,0,0,0.8989,optionRight,60,15405,7,16,0,16,0,1,,,,,,,,,,,,,,,,,,,,,,,,,,,,,,,,,,,,,,,
,,,,,,,64275d22f204d1161ad23e64,2023-08-16_08h52.10.450,HF_wild_card,2022.2.4,Win32,59.89817311,64275d22f204d1161ad23e64,64d2fd46c836a06233681665,64dc7f5370a266150a1270de,,,,,,,decisionTrl,resources/DP.BMP,resources/DBN.BMP,Door4,0.324066162,0.032890426,1,0,0,0.9485,optionRight,80,15485,7,17,0,17,0,1,,,,,,,,,,,,,,,,,,,,,,,,,,,,,,,,,,,,,,,
,,,,,,,64275d22f204d1161ad23e64,2023-08-16_08h52.10.450,HF_wild_card,2022.2.4,Win32,59.89817311,64275d22f204d1161ad23e64,64d2fd46c836a06233681665,64dc7f5370a266150a1270de,,,,,,,decisionTrl,resources/DP.BMP,resources/DBN.BMP,Door4,0.297639725,0.033604614,1,0,0,0.8298,optionRight,60,15545,7,18,0,18,0,1,,,,,,,,,,,,,,,,,,,,,,,,,,,,,,,,,,,,,,,
,,,,,,,64275d22f204d1161ad23e64,2023-08-16_08h52.10.450,HF_wild_card,2022.2.4,Win32,59.89817311,64275d22f204d1161ad23e64,64d2fd46c836a06233681665,64dc7f5370a266150a1270de,,,,,,,ctch,resources/DBN.BMP,resources/DG.BMP,Door4,-0.253749709,-0.005678182,1,0,0,0.9653,optionLeft,60,15605,7,19,0,19,0,1,,,,,,,,,,,,,,,,,,,,,,,,,,,,,,,,,,,,,,,
,,,,,,,64275d22f204d1161ad23e64,2023-08-16_08h52.10.450,HF_wild_card,2022.2.4,Win32,59.89817311,64275d22f204d1161ad23e64,64d2fd46c836a06233681665,64dc7f5370a266150a1270de,,,,,,,ctch,resources/DP.BMP,resources/DR.BMP,Door3,-0.259463594,-0.02639099,1,0,0,0.9316,optionLeft,70,15675,7,20,0,20,0,1,,,,,,,,,,,,,,,,,,,,,,,,,,,,,,,,,,,,,,,
