Condition,Low fixed image (Door1),Low risky image (Door2),High fixed image (Door3),High risky image (Door4),Extreme Wild Card,NonExtreme Wild Card,,date,expName,psychopyVersion,OS,frameRate,PROLIFIC_PID,STUDY_ID,SESSION_ID,mouse_2.x,mouse_2.y,mouse_2.leftButton,mouse_2.midButton,mouse_2.rightButton,mouse_2.clicked_name,Trial Type,Left Option Image,Right Option Image,Chosen Door,mouse.x,mouse.y,mouse.leftButton,mouse.midButton,mouse.rightButton,mouse.time,mouse.clicked_name,Feedback,Cumulative Reward,Block,trial.thisRepN,trial.thisTrialN,trial.thisN,trial.thisIndex,trial.ran,blocks.thisRepN,blocks.thisTrialN,blocks.thisN,blocks.thisIndex,blocks.ran,Money conversion,First Outcome Reported,Shown Door (First Outcome),Displayed Image (First Outcome),outcomes.thisRepN,outcomes.thisTrialN,outcomes.thisN,outcomes.thisIndex,outcomes.ran,judgments.thisRepN,judgments.thisTrialN,judgments.thisN,judgments.thisIndex,judgments.ran,freqMouse.x,freqMouse.y,freqMouse.leftButton,freqMouse.midButton,freqMouse.rightButton,freqMouse.clicked_name,FQJ for first outcome,FQJ for second outcome,Shown Door,Displayed Image,trials.thisRepN,trials.thisTrialN,trials.thisN,trials.thisIndex,trials.ran,judgBlock.thisRepN,judgBlock.thisTrialN,judgBlock.thisN,judgBlock.thisIndex,judgBlock.ran
0,resources/DR.BMP,resources/DP.BMP,resources/DG.BMP,resources/DB.BMP,resources/DBN.BMP,resources/DY.BMP,,2023-08-16_08h57.02.719,HF_wild_card,2022.2.4,MacIntel,59.99520038,644016f38da1a099aac38389,64d2fd46c836a06233681665,64dc814282870d3189c49354,,,,,,,,,,,,,,,,,,,,,,,,,,,,,,,,,,,,,,,,,,,,,,,,,,,,,,,,,,,,,,,,
,,,,,,,,2023-08-16_08h57.02.719,HF_wild_card,2022.2.4,MacIntel,59.99520038,644016f38da1a099aac38389,64d2fd46c836a06233681665,64dc814282870d3189c49354,-0.007539683,-0.416000124,1,0,0,agree,,,,,,,,,,,,,,,,,,,,,,,,,,,,,,,,,,,,,,,,,,,,,,,,,,,,,,,,,,
,,,,,,,,2023-08-16_08h57.02.719,HF_wild_card,2022.2.4,MacIntel,59.99520038,644016f38da1a099aac38389,64d2fd46c836a06233681665,64dc814282870d3189c49354,,,,,,,,,,,,,,,,,,,,,,,,,,,,,,,,,,,,,,,,,,,,,,,,,,,,,,,,,,,,,,,,
,,,,,,,,2023-08-16_08h57.02.719,HF_wild_card,2022.2.4,MacIntel,59.99520038,644016f38da1a099aac38389,64d2fd46c836a06233681665,64dc814282870d3189c49354,,,,,,,decisionTrl,resources/DG.BMP,resources/DB.BMP,Door3,-0.294168527,0.007992312,1,0,0,1.4079,optionLeft,70,70,1,0,0,0,0,1,,,,,,,,,,,,,,,,,,,,,,,,,,,,,,,,,,,,,,,
,,,,,,,,2023-08-16_08h57.02.719,HF_wild_card,2022.2.4,MacIntel,59.99520038,644016f38da1a099aac38389,64d2fd46c836a06233681665,64dc814282870d3189c49354,,,,,,,decisionTrl,resources/DBN.BMP,resources/DB.BMP,Door4,0.32516121,-0.016967386,1,0,0,1.2986,optionRight,60,130,1,1,0,1,0,1,,,,,,,,,,,,,,,,,,,,,,,,,,,,,,,,,,,,,,,
,,,,,,,,2023-08-16_08h57.02.719,HF_wild_card,2022.2.4,MacIntel,59.99520038,644016f38da1a099aac38389,64d2fd46c836a06233681665,64dc814282870d3189c49354,,,,,,,decisionTrl,resources/DG.BMP,resources/DB.BMP,Door3,-0.338702877,-0.013969494,1,0,0,0.5471,optionLeft,70,200,1,2,0,2,0,1,,,,,,,,,,,,,,,,,,,,,,,,,,,,,,,,,,,,,,,
,,,,,,,,2023-08-16_08h57.02.719,HF_wild_card,2022.2.4,MacIntel,59.99520038,644016f38da1a099aac38389,64d2fd46c836a06233681665,64dc814282870d3189c49354,,,,,,,decisionTrl,resources/DR.BMP,resources/DBN.BMP,Door1,-0.212382192,0.015882316,1,0,0,0.6951,optionLeft,30,230,1,3,0,3,0,1,,,,,,,,,,,,,,,,,,,,,,,,,,,,,,,,,,,,,,,
,,,,,,,,2023-08-16_08h57.02.719,HF_wild_card,2022.2.4,MacIntel,59.99520038,644016f38da1a099aac38389,64d2fd46c836a06233681665,64dc814282870d3189c49354,,,,,,,ctch,resources/DR.BMP,resources/DB.BMP,Door1,-0.221766493,0.032474578,1,0,0,0.6961,optionLeft,30,260,1,4,0,4,0,1,,,,,,,,,,,,,,,,,,,,,,,,,,,,,,,,,,,,,,,
,,,,,,,,2023-08-16_08h57.02.719,HF_wild_card,2022.2.4,MacIntel,59.99520038,644016f38da1a099aac38389,64d2fd46c836a06233681665,64dc814282870d3189c49354,,,,,,,decisionTrl,resources/DBN.BMP,resources/DG.BMP,Door3,0.344577753,-0.021109251,1,0,0,0.9145,optionRight,70,330,1,5,0,5,0,1,,,,,,,,,,,,,,,,,,,,,,,,,,,,,,,,,,,,,,,
,,,,,,,,2023-08-16_08h57.02.719,HF_wild_card,2022.2.4,MacIntel,59.99520038,644016f38da1a099aac38389,64d2fd46c836a06233681665,64dc814282870d3189c49354,,,,,,,sngl,resources/Empty.png,resources/DP.BMP,Door2,0.379749504,-0.034923735,1,0,0,0.6496,optionRight,20,350,1,6,0,6,0,1,,,,,,,,,,,,,,,,,,,,,,,,,,,,,,,,,,,,,,,
,,,,,,,,2023-08-16_08h57.02.719,HF_wild_card,2022.2.4,MacIntel,59.99520038,644016f38da1a099aac38389,64d2fd46c836a06233681665,64dc814282870d3189c49354,,,,,,,sngl,resources/DG.BMP,resources/Empty.png,Door3,-0.130558656,0.001667907,1,0,0,0.4623,optionLeft,70,420,1,7,0,7,0,1,,,,,,,,,,,,,,,,,,,,,,,,,,,,,,,,,,,,,,,
,,,,,,,,2023-08-16_08h57.02.719,HF_wild_card,2022.2.4,MacIntel,59.99520038,644016f38da1a099aac38389,64d2fd46c836a06233681665,64dc814282870d3189c49354,,,,,,,decisionTrl,resources/DBN.BMP,resources/DP.BMP,Door2,0.389710441,-0.033113219,1,0,0,0.4606,optionRight,20,440,1,8,0,8,0,1,,,,,,,,,,,,,,,,,,,,,,,,,,,,,,,,,,,,,,,
,,,,,,,,2023-08-16_08h57.02.719,HF_wild_card,2022.2.4,MacIntel,59.99520038,644016f38da1a099aac38389,64d2fd46c836a06233681665,64dc814282870d3189c49354,,,,,,,decisionTrl,resources/DBN.BMP,resources/DR.BMP,WildCard_Ex,-0.14499318,0.008696057,1,0,0,0.4802,optionLeft,5,445,1,9,0,9,0,1,,,,,,,,,,,,,,,,,,,,,,,,,,,,,,,,,,,,,,,
,,,,,,,,2023-08-16_08h57.02.719,HF_wild_card,2022.2.4,MacIntel,59.99520038,644016f38da1a099aac38389,64d2fd46c836a06233681665,64dc814282870d3189c49354,,,,,,,ctch,resources/DB.BMP,resources/DR.BMP,Door1,0.2921844,-0.016688368,1,0,0,0.6138,optionRight,30,475,1,10,0,10,0,1,,,,,,,,,,,,,,,,,,,,,,,,,,,,,,,,,,,,,,,
,,,,,,,,2023-08-16_08h57.02.719,HF_wild_card,2022.2.4,MacIntel,59.99520038,644016f38da1a099aac38389,64d2fd46c836a06233681665,64dc814282870d3189c49354,,,,,,,sngl,resources/DB.BMP,resources/Empty.png,Door4,-0.2203094,0.01687438,1,0,0,0.4798,optionLeft,80,555,1,11,0,11,0,1,,,,,,,,,,,,,,,,,,,,,,,,,,,,,,,,,,,,,,,
,,,,,,,,2023-08-16_08h57.02.719,HF_wild_card,2022.2.4,MacIntel,59.99520038,644016f38da1a099aac38389,64d2fd46c836a06233681665,64dc814282870d3189c49354,,,,,,,sngl,resources/Empty.png,resources/DR.BMP,Door1,0.241731771,-0.016037326,1,0,0,0.4464,optionRight,30,585,1,12,0,12,0,1,,,,,,,,,,,,,,,,,,,,,,,,,,,,,,,,,,,,,,,
,,,,,,,,2023-08-16_08h57.02.719,HF_wild_card,2022.2.4,MacIntel,59.99520038,644016f38da1a099aac38389,64d2fd46c836a06233681665,64dc814282870d3189c49354,,,,,,,decisionTrl,resources/DP.BMP,resources/DBN.BMP,Door2,-0.211914063,0.015907118,1,0,0,0.4639,optionLeft,40,625,1,13,0,13,0,1,,,,,,,,,,,,,,,,,,,,,,,,,,,,,,,,,,,,,,,
,,,,,,,,2023-08-16_08h57.02.719,HF_wild_card,2022.2.4,MacIntel,59.99520038,644016f38da1a099aac38389,64d2fd46c836a06233681665,64dc814282870d3189c49354,,,,,,,decisionTrl,resources/DB.BMP,resources/DG.BMP,Door3,0.215879216,-0.004650298,1,0,0,0.6442,optionRight,70,695,1,14,0,14,0,1,,,,,,,,,,,,,,,,,,,,,,,,,,,,,,,,,,,,,,,
,,,,,,,,2023-08-16_08h57.02.719,HF_wild_card,2022.2.4,MacIntel,59.99520038,644016f38da1a099aac38389,64d2fd46c836a06233681665,64dc814282870d3189c49354,,,,,,,sngl,resources/DBN.BMP,resources/Empty.png,WildCard_Ex,-0.201612103,-0.005040923,1,0,0,0.4982,optionLeft,5,700,1,15,0,15,0,1,,,,,,,,,,,,,,,,,,,,,,,,,,,,,,,,,,,,,,,
,,,,,,,,2023-08-16_08h57.02.719,HF_wild_card,2022.2.4,MacIntel,59.99520038,644016f38da1a099aac38389,64d2fd46c836a06233681665,64dc814282870d3189c49354,,,,,,,ctch,resources/DG.BMP,resources/DP.BMP,Door3,-0.152253844,0.010435268,1,0,0,1.2483,optionLeft,70,770,1,16,0,16,0,1,,,,,,,,,,,,,,,,,,,,,,,,,,,,,,,,,,,,,,,
,,,,,,,,2023-08-16_08h57.02.719,HF_wild_card,2022.2.4,MacIntel,59.99520038,644016f38da1a099aac38389,64d2fd46c836a06233681665,64dc814282870d3189c49354,,,,,,,decisionTrl,resources/DG.BMP,resources/DB.BMP,Door3,-0.178329613,0.02015439,1,0,0,0.5441,optionLeft,70,840,1,17,0,17,0,1,,,,,,,,,,,,,,,,,,,,,,,,,,,,,,,,,,,,,,,
,,,,,,,,2023-08-16_08h57.02.719,HF_wild_card,2022.2.4,MacIntel,59.99520038,644016f38da1a099aac38389,64d2fd46c836a06233681665,64dc814282870d3189c49354,,,,,,,decisionTrl,resources/DP.BMP,resources/DR.BMP,Door2,-0.145402406,0.015020461,1,0,0,0.949,optionLeft,40,880,1,18,0,18,0,1,,,,,,,,,,,,,,,,,,,,,,,,,,,,,,,,,,,,,,,
,,,,,,,,2023-08-16_08h57.02.719,HF_wild_card,2022.2.4,MacIntel,59.99520038,644016f38da1a099aac38389,64d2fd46c836a06233681665,64dc814282870d3189c49354,,,,,,,decisionTrl,resources/DB.BMP,resources/DG.BMP,Door3,0.198871528,-0.016933284,1,0,0,0.5643,optionRight,70,950,1,19,0,19,0,1,,,,,,,,,,,,,,,,,,,,,,,,,,,,,,,,,,,,,,,
,,,,,,,,2023-08-16_08h57.02.719,HF_wild_card,2022.2.4,MacIntel,59.99520038,644016f38da1a099aac38389,64d2fd46c836a06233681665,64dc814282870d3189c49354,,,,,,,decisionTrl,resources/DP.BMP,resources/DR.BMP,Door1,0.291511657,-0.005192832,1,0,0,0.75,optionRight,30,980,1,20,0,20,0,1,,,,,,,,,,,,,,,,,,,,,,,,,,,,,,,,,,,,,,,
,,,,,,,,2023-08-16_08h57.02.719,HF_wild_card,2022.2.4,MacIntel,59.99520038,644016f38da1a099aac38389,64d2fd46c836a06233681665,64dc814282870d3189c49354,,,,,,,decisionTrl,resources/DG.BMP,resources/DBN.BMP,Door3,-0.171983507,0.018294271,1,0,0,0.5465,optionLeft,70,1050,1,21,0,21,0,1,,,,,,,,,,,,,,,,,,,,,,,,,,,,,,,,,,,,,,,
,,,,,,,,2023-08-16_08h57.02.719,HF_wild_card,2022.2.4,MacIntel,59.99520038,644016f38da1a099aac38389,64d2fd46c836a06233681665,64dc814282870d3189c49354,,,,,,,ctch,resources/DG.BMP,resources/DP.BMP,Door3,-0.130388145,-0.015823413,1,0,0,2.0133,optionLeft,70,1120,1,22,0,22,0,1,,,,,,,,,,,,,,,,,,,,,,,,,,,,,,,,,,,,,,,
,,,,,,,,2023-08-16_08h57.02.719,HF_wild_card,2022.2.4,MacIntel,59.99520038,644016f38da1a099aac38389,64d2fd46c836a06233681665,64dc814282870d3189c49354,,,,,,,ctch,resources/DB.BMP,resources/DR.BMP,Door4,-0.271837798,-0.003624132,1,0,0,1.2478,optionLeft,60,1180,1,23,0,23,0,1,,,,,,,,,,,,,,,,,,,,,,,,,,,,,,,,,,,,,,,
,,,,,,,,2023-08-16_08h57.02.719,HF_wild_card,2022.2.4,MacIntel,59.99520038,644016f38da1a099aac38389,64d2fd46c836a06233681665,64dc814282870d3189c49354,,,,,,,sngl,resources/Empty.png,resources/DB.BMP,Door4,0.230440848,-0.016852679,1,0,0,0.579,optionRight,60,1240,1,24,0,24,0,1,,,,,,,,,,,,,,,,,,,,,,,,,,,,,,,,,,,,,,,
,,,,,,,,2023-08-16_08h57.02.719,HF_wild_card,2022.2.4,MacIntel,59.99520038,644016f38da1a099aac38389,64d2fd46c836a06233681665,64dc814282870d3189c49354,,,,,,,ctch,resources/DP.BMP,resources/DG.BMP,Door3,0.158469742,-0.009278894,1,0,0,1.5462,optionRight,70,1310,1,25,0,25,0,1,,,,,,,,,,,,,,,,,,,,,,,,,,,,,,,,,,,,,,,
,,,,,,,,2023-08-16_08h57.02.719,HF_wild_card,2022.2.4,MacIntel,59.99520038,644016f38da1a099aac38389,64d2fd46c836a06233681665,64dc814282870d3189c49354,,,,,,,decisionTrl,resources/DR.BMP,resources/DP.BMP,Door2,0.382455977,-0.015386285,1,0,0,1.2464,optionRight,40,1350,1,26,0,26,0,1,,,,,,,,,,,,,,,,,,,,,,,,,,,,,,,,,,,,,,,
,,,,,,,,2023-08-16_08h57.02.719,HF_wild_card,2022.2.4,MacIntel,59.99520038,644016f38da1a099aac38389,64d2fd46c836a06233681665,64dc814282870d3189c49354,,,,,,,ctch,resources/DR.BMP,resources/DB.BMP,Door1,-0.241372148,0.008739459,1,0,0,0.5785,optionLeft,30,1380,1,27,0,27,0,1,,,,,,,,,,,,,,,,,,,,,,,,,,,,,,,,,,,,,,,
,,,,,,,,2023-08-16_08h57.02.719,HF_wild_card,2022.2.4,MacIntel,59.99520038,644016f38da1a099aac38389,64d2fd46c836a06233681665,64dc814282870d3189c49354,,,,,,,sngl,resources/DP.BMP,resources/Empty.png,Door2,-0.139899554,0.009281994,1,0,0,0.6818,optionLeft,40,1420,1,28,0,28,0,1,,,,,,,,,,,,,,,,,,,,,,,,,,,,,,,,,,,,,,,
,,,,,,,,2023-08-16_08h57.02.719,HF_wild_card,2022.2.4,MacIntel,59.99520038,644016f38da1a099aac38389,64d2fd46c836a06233681665,64dc814282870d3189c49354,,,,,,,decisionTrl,resources/DR.BMP,resources/DP.BMP,Door2,0.323992436,-0.019924975,1,0,0,4.0956,optionRight,40,1460,1,29,0,29,0,1,,,,,,,,,,,,,,,,,,,,,,,,,,,,,,,,,,,,,,,
,,,,,,,,2023-08-16_08h57.02.719,HF_wild_card,2022.2.4,MacIntel,59.99520038,644016f38da1a099aac38389,64d2fd46c836a06233681665,64dc814282870d3189c49354,,,,,,,decisionTrl,resources/DG.BMP,resources/DB.BMP,Door3,-0.204774306,0.001922123,1,0,0,1.8489,optionLeft,70,1530,1,30,0,30,0,1,,,,,,,,,,,,,,,,,,,,,,,,,,,,,,,,,,,,,,,
,,,,,,,,2023-08-16_08h57.02.719,HF_wild_card,2022.2.4,MacIntel,59.99520038,644016f38da1a099aac38389,64d2fd46c836a06233681665,64dc814282870d3189c49354,,,,,,,decisionTrl,resources/DR.BMP,resources/DP.BMP,Door1,-0.182254464,0.017153398,1,0,0,2.263,optionLeft,30,1560,1,31,0,31,0,1,,,,,,,,,,,,,,,,,,,,,,,,,,,,,,,,,,,,,,,
,,,,,,,,2023-08-16_08h57.02.719,HF_wild_card,2022.2.4,MacIntel,59.99520038,644016f38da1a099aac38389,64d2fd46c836a06233681665,64dc814282870d3189c49354,,,,,,,sngl,resources/Empty.png,resources/DBN.BMP,WildCard_Ex,0.255955481,0.001351687,1,0,0,0.8617,optionRight,95,1655,1,32,0,32,0,1,,,,,,,,,,,,,,,,,,,,,,,,,,,,,,,,,,,,,,,
,,,,,,,,2023-08-16_08h57.02.719,HF_wild_card,2022.2.4,MacIntel,59.99520038,644016f38da1a099aac38389,64d2fd46c836a06233681665,64dc814282870d3189c49354,,,,,,,decisionTrl,resources/DB.BMP,resources/DBN.BMP,WildCard_Ex,0.332273065,0.001686508,1,0,0,0.6464,optionRight,95,1750,1,33,0,33,0,1,,,,,,,,,,,,,,,,,,,,,,,,,,,,,,,,,,,,,,,
,,,,,,,,2023-08-16_08h57.02.719,HF_wild_card,2022.2.4,MacIntel,59.99520038,644016f38da1a099aac38389,64d2fd46c836a06233681665,64dc814282870d3189c49354,,,,,,,sngl,resources/Empty.png,resources/DBN.BMP,WildCard_Ex,0.137171379,0.008314732,1,0,0,0.4645,optionRight,5,1755,1,34,0,34,0,1,,,,,,,,,,,,,,,,,,,,,,,,,,,,,,,,,,,,,,,
,,,,,,,,2023-08-16_08h57.02.719,HF_wild_card,2022.2.4,MacIntel,59.99520038,644016f38da1a099aac38389,64d2fd46c836a06233681665,64dc814282870d3189c49354,,,,,,,decisionTrl,resources/DR.BMP,resources/DP.BMP,Door2,0.210041543,-0.015522693,1,0,0,1.8342,optionRight,20,1775,1,35,0,35,0,1,,,,,,,,,,,,,,,,,,,,,,,,,,,,,,,,,,,,,,,
,,,,,,,,2023-08-16_08h57.02.719,HF_wild_card,2022.2.4,MacIntel,59.99520038,644016f38da1a099aac38389,64d2fd46c836a06233681665,64dc814282870d3189c49354,,,,,,,sngl,resources/DBN.BMP,resources/Empty.png,WildCard_Ex,-0.169512649,0.000387525,1,0,0,0.5317,optionLeft,95,1870,1,36,0,36,0,1,,,,,,,,,,,,,,,,,,,,,,,,,,,,,,,,,,,,,,,
,,,,,,,,2023-08-16_08h57.02.719,HF_wild_card,2022.2.4,MacIntel,59.99520038,644016f38da1a099aac38389,64d2fd46c836a06233681665,64dc814282870d3189c49354,,,,,,,decisionTrl,resources/DB.BMP,resources/DG.BMP,Door3,0.22218192,-0.00093626,1,0,0,0.7794,optionRight,70,1940,1,37,0,37,0,1,,,,,,,,,,,,,,,,,,,,,,,,,,,,,,,,,,,,,,,
,,,,,,,,2023-08-16_08h57.02.719,HF_wild_card,2022.2.4,MacIntel,59.99520038,644016f38da1a099aac38389,64d2fd46c836a06233681665,64dc814282870d3189c49354,,,,,,,sngl,resources/DR.BMP,resources/Empty.png,Door1,-0.166186136,0.006662326,1,0,0,0.647,optionLeft,30,1970,1,38,0,38,0,1,,,,,,,,,,,,,,,,,,,,,,,,,,,,,,,,,,,,,,,
,,,,,,,,2023-08-16_08h57.02.719,HF_wild_card,2022.2.4,MacIntel,59.99520038,644016f38da1a099aac38389,64d2fd46c836a06233681665,64dc814282870d3189c49354,,,,,,,decisionTrl,resources/DP.BMP,resources/DR.BMP,Door1,0.16109871,-0.004461186,1,0,0,0.4972,optionRight,30,2000,1,39,0,39,0,1,,,,,,,,,,,,,,,,,,,,,,,,,,,,,,,,,,,,,,,
,,,,,,,,2023-08-16_08h57.02.719,HF_wild_card,2022.2.4,MacIntel,59.99520038,644016f38da1a099aac38389,64d2fd46c836a06233681665,64dc814282870d3189c49354,,,,,,,decisionTrl,resources/DP.BMP,resources/DR.BMP,Door2,-0.137512401,0.000657242,1,0,0,0.6647,optionLeft,40,2040,1,40,0,40,0,1,,,,,,,,,,,,,,,,,,,,,,,,,,,,,,,,,,,,,,,
,,,,,,,,2023-08-16_08h57.02.719,HF_wild_card,2022.2.4,MacIntel,59.99520038,644016f38da1a099aac38389,64d2fd46c836a06233681665,64dc814282870d3189c49354,,,,,,,decisionTrl,resources/DB.BMP,resources/DG.BMP,Door3,0.213792783,-0.00890997,1,0,0,0.8466,optionRight,70,2110,1,41,0,41,0,1,,,,,,,,,,,,,,,,,,,,,,,,,,,,,,,,,,,,,,,
,,,,,,,,2023-08-16_08h57.02.719,HF_wild_card,2022.2.4,MacIntel,59.99520038,644016f38da1a099aac38389,64d2fd46c836a06233681665,64dc814282870d3189c49354,,,,,,,sngl,resources/Empty.png,resources/DG.BMP,Door3,0.177548363,-0.001698909,1,0,0,0.5982,optionRight,70,2180,1,42,0,42,0,1,,,,,,,,,,,,,,,,,,,,,,,,,,,,,,,,,,,,,,,
,,,,,,,,2023-08-16_08h57.02.719,HF_wild_card,2022.2.4,MacIntel,59.99520038,644016f38da1a099aac38389,64d2fd46c836a06233681665,64dc814282870d3189c49354,,,,,,,ctch,resources/DP.BMP,resources/DG.BMP,Door3,0.232217262,-0.002173239,1,0,0,0.9827,optionRight,70,2250,1,43,0,43,0,1,,,,,,,,,,,,,,,,,,,,,,,,,,,,,,,,,,,,,,,
,,,,,,,,2023-08-16_08h57.02.719,HF_wild_card,2022.2.4,MacIntel,59.99520038,644016f38da1a099aac38389,64d2fd46c836a06233681665,64dc814282870d3189c49354,,,,,,,,,,,,,,,,,,,,,,,,,,0,0,0,0,1,,,,,,,,,,,,,,,,,,,,,,,,,,,,,,,,,,
,,,,,,,,2023-08-16_08h57.02.719,HF_wild_card,2022.2.4,MacIntel,59.99520038,644016f38da1a099aac38389,64d2fd46c836a06233681665,64dc814282870d3189c49354,,,,,,,sngl,resources/DP.BMP,resources/Empty.png,Door2,-0.218610491,-0.084815228,1,0,0,0.881,optionLeft,20,2270,2,0,0,0,0,1,,,,,,,,,,,,,,,,,,,,,,,,,,,,,,,,,,,,,,,
,,,,,,,,2023-08-16_08h57.02.719,HF_wild_card,2022.2.4,MacIntel,59.99520038,644016f38da1a099aac38389,64d2fd46c836a06233681665,64dc814282870d3189c49354,,,,,,,sngl,resources/DR.BMP,resources/Empty.png,Door1,-0.214391121,-0.030270337,1,0,0,0.4953,optionLeft,30,2300,2,1,0,1,0,1,,,,,,,,,,,,,,,,,,,,,,,,,,,,,,,,,,,,,,,
,,,,,,,,2023-08-16_08h57.02.719,HF_wild_card,2022.2.4,MacIntel,59.99520038,644016f38da1a099aac38389,64d2fd46c836a06233681665,64dc814282870d3189c49354,,,,,,,decisionTrl,resources/DP.BMP,resources/DBN.BMP,WildCard_Ex,0.270541915,-0.011935764,1,0,0,0.8494,optionRight,5,2305,2,2,0,2,0,1,,,,,,,,,,,,,,,,,,,,,,,,,,,,,,,,,,,,,,,
,,,,,,,,2023-08-16_08h57.02.719,HF_wild_card,2022.2.4,MacIntel,59.99520038,644016f38da1a099aac38389,64d2fd46c836a06233681665,64dc814282870d3189c49354,,,,,,,ctch,resources/DR.BMP,resources/DB.BMP,Door1,-0.274296255,0.013526166,1,0,0,0.7283,optionLeft,30,2335,2,3,0,3,0,1,,,,,,,,,,,,,,,,,,,,,,,,,,,,,,,,,,,,,,,
,,,,,,,,2023-08-16_08h57.02.719,HF_wild_card,2022.2.4,MacIntel,59.99520038,644016f38da1a099aac38389,64d2fd46c836a06233681665,64dc814282870d3189c49354,,,,,,,decisionTrl,resources/DB.BMP,resources/DG.BMP,Door4,-0.186145213,0.000362723,1,0,0,0.4956,optionLeft,80,2415,2,4,0,4,0,1,,,,,,,,,,,,,,,,,,,,,,,,,,,,,,,,,,,,,,,
,,,,,,,,2023-08-16_08h57.02.719,HF_wild_card,2022.2.4,MacIntel,59.99520038,644016f38da1a099aac38389,64d2fd46c836a06233681665,64dc814282870d3189c49354,,,,,,,decisionTrl,resources/DBN.BMP,resources/DG.BMP,WildCard_Ex,-0.199714782,0.000263517,1,0,0,0.8789,optionLeft,95,2510,2,5,0,5,0,1,,,,,,,,,,,,,,,,,,,,,,,,,,,,,,,,,,,,,,,
,,,,,,,,2023-08-16_08h57.02.719,HF_wild_card,2022.2.4,MacIntel,59.99520038,644016f38da1a099aac38389,64d2fd46c836a06233681665,64dc814282870d3189c49354,,,,,,,decisionTrl,resources/DB.BMP,resources/DBN.BMP,WildCard_Ex,0.18484933,-0.006535218,1,0,0,0.5466,optionRight,5,2515,2,6,0,6,0,1,,,,,,,,,,,,,,,,,,,,,,,,,,,,,,,,,,,,,,,
,,,,,,,,2023-08-16_08h57.02.719,HF_wild_card,2022.2.4,MacIntel,59.99520038,644016f38da1a099aac38389,64d2fd46c836a06233681665,64dc814282870d3189c49354,,,,,,,decisionTrl,resources/DR.BMP,resources/DP.BMP,Door2,0.182325769,0.001702009,1,0,0,1.3476,optionRight,40,2555,2,7,0,7,0,1,,,,,,,,,,,,,,,,,,,,,,,,,,,,,,,,,,,,,,,
,,,,,,,,2023-08-16_08h57.02.719,HF_wild_card,2022.2.4,MacIntel,59.99520038,644016f38da1a099aac38389,64d2fd46c836a06233681665,64dc814282870d3189c49354,,,,,,,decisionTrl,resources/DB.BMP,resources/DG.BMP,Door3,0.28266059,-0.000716146,1,0,0,0.6641,optionRight,70,2625,2,8,0,8,0,1,,,,,,,,,,,,,,,,,,,,,,,,,,,,,,,,,,,,,,,
,,,,,,,,2023-08-16_08h57.02.719,HF_wild_card,2022.2.4,MacIntel,59.99520038,644016f38da1a099aac38389,64d2fd46c836a06233681665,64dc814282870d3189c49354,,,,,,,decisionTrl,resources/DP.BMP,resources/DR.BMP,Door1,0.25328621,0.011480035,1,0,0,0.9174,optionRight,30,2655,2,9,0,9,0,1,,,,,,,,,,,,,,,,,,,,,,,,,,,,,,,,,,,,,,,
,,,,,,,,2023-08-16_08h57.02.719,HF_wild_card,2022.2.4,MacIntel,59.99520038,644016f38da1a099aac38389,64d2fd46c836a06233681665,64dc814282870d3189c49354,,,,,,,sngl,resources/Empty.png,resources/DB.BMP,Door4,0.179399182,-0.010856895,1,0,0,0.5451,optionRight,80,2735,2,10,0,10,0,1,,,,,,,,,,,,,,,,,,,,,,,,,,,,,,,,,,,,,,,
,,,,,,,,2023-08-16_08h57.02.719,HF_wild_card,2022.2.4,MacIntel,59.99520038,644016f38da1a099aac38389,64d2fd46c836a06233681665,64dc814282870d3189c49354,,,,,,,sngl,resources/Empty.png,resources/DR.BMP,Door1,0.15749318,0.021688988,1,0,0,0.681,optionRight,30,2765,2,11,0,11,0,1,,,,,,,,,,,,,,,,,,,,,,,,,,,,,,,,,,,,,,,
,,,,,,,,2023-08-16_08h57.02.719,HF_wild_card,2022.2.4,MacIntel,59.99520038,644016f38da1a099aac38389,64d2fd46c836a06233681665,64dc814282870d3189c49354,,,,,,,decisionTrl,resources/DG.BMP,resources/DB.BMP,Door4,0.155518353,0.00063244,1,0,0,0.5825,optionRight,80,2845,2,12,0,12,0,1,,,,,,,,,,,,,,,,,,,,,,,,,,,,,,,,,,,,,,,
,,,,,,,,2023-08-16_08h57.02.719,HF_wild_card,2022.2.4,MacIntel,59.99520038,644016f38da1a099aac38389,64d2fd46c836a06233681665,64dc814282870d3189c49354,,,,,,,ctch,resources/DB.BMP,resources/DR.BMP,Door4,-0.21655816,0.005710565,1,0,0,0.4995,optionLeft,80,2925,2,13,0,13,0,1,,,,,,,,,,,,,,,,,,,,,,,,,,,,,,,,,,,,,,,
,,,,,,,,2023-08-16_08h57.02.719,HF_wild_card,2022.2.4,MacIntel,59.99520038,644016f38da1a099aac38389,64d2fd46c836a06233681665,64dc814282870d3189c49354,,,,,,,decisionTrl,resources/DG.BMP,resources/DBN.BMP,WildCard_Ex,0.21889881,-0.006206597,1,0,0,0.8653,optionRight,95,3020,2,14,0,14,0,1,,,,,,,,,,,,,,,,,,,,,,,,,,,,,,,,,,,,,,,
,,,,,,,,2023-08-16_08h57.02.719,HF_wild_card,2022.2.4,MacIntel,59.99520038,644016f38da1a099aac38389,64d2fd46c836a06233681665,64dc814282870d3189c49354,,,,,,,decisionTrl,resources/DR.BMP,resources/DP.BMP,Door1,-0.329234871,0.023403398,1,0,0,1.3636,optionLeft,30,3050,2,15,0,15,0,1,,,,,,,,,,,,,,,,,,,,,,,,,,,,,,,,,,,,,,,
,,,,,,,,2023-08-16_08h57.02.719,HF_wild_card,2022.2.4,MacIntel,59.99520038,644016f38da1a099aac38389,64d2fd46c836a06233681665,64dc814282870d3189c49354,,,,,,,ctch,resources/DG.BMP,resources/DP.BMP,Door2,0.182828001,-0.022891865,1,0,0,0.6113,optionRight,40,3090,2,16,0,16,0,1,,,,,,,,,,,,,,,,,,,,,,,,,,,,,,,,,,,,,,,
,,,,,,,,2023-08-16_08h57.02.719,HF_wild_card,2022.2.4,MacIntel,59.99520038,644016f38da1a099aac38389,64d2fd46c836a06233681665,64dc814282870d3189c49354,,,,,,,decisionTrl,resources/DG.BMP,resources/DB.BMP,Door3,-0.224562872,0.010704985,1,0,0,0.5149,optionLeft,70,3160,2,17,0,17,0,1,,,,,,,,,,,,,,,,,,,,,,,,,,,,,,,,,,,,,,,
,,,,,,,,2023-08-16_08h57.02.719,HF_wild_card,2022.2.4,MacIntel,59.99520038,644016f38da1a099aac38389,64d2fd46c836a06233681665,64dc814282870d3189c49354,,,,,,,decisionTrl,resources/DR.BMP,resources/DBN.BMP,WildCard_Ex,0.249575273,0.022098214,1,0,0,1.0619,optionRight,5,3165,2,18,0,18,0,1,,,,,,,,,,,,,,,,,,,,,,,,,,,,,,,,,,,,,,,
,,,,,,,,2023-08-16_08h57.02.719,HF_wild_card,2022.2.4,MacIntel,59.99520038,644016f38da1a099aac38389,64d2fd46c836a06233681665,64dc814282870d3189c49354,,,,,,,ctch,resources/DR.BMP,resources/DB.BMP,Door1,-0.23078807,0.003633433,1,0,0,0.5798,optionLeft,30,3195,2,19,0,19,0,1,,,,,,,,,,,,,,,,,,,,,,,,,,,,,,,,,,,,,,,
,,,,,,,,2023-08-16_08h57.02.719,HF_wild_card,2022.2.4,MacIntel,59.99520038,644016f38da1a099aac38389,64d2fd46c836a06233681665,64dc814282870d3189c49354,,,,,,,sngl,resources/Empty.png,resources/DG.BMP,Door3,0.15359623,0.006355407,1,0,0,0.5151,optionRight,70,3265,2,20,0,20,0,1,,,,,,,,,,,,,,,,,,,,,,,,,,,,,,,,,,,,,,,
,,,,,,,,2023-08-16_08h57.02.719,HF_wild_card,2022.2.4,MacIntel,59.99520038,644016f38da1a099aac38389,64d2fd46c836a06233681665,64dc814282870d3189c49354,,,,,,,sngl,resources/DBN.BMP,resources/Empty.png,WildCard_Ex,-0.229420883,0.019816468,1,0,0,0.7282,optionLeft,95,3360,2,21,0,21,0,1,,,,,,,,,,,,,,,,,,,,,,,,,,,,,,,,,,,,,,,
,,,,,,,,2023-08-16_08h57.02.719,HF_wild_card,2022.2.4,MacIntel,59.99520038,644016f38da1a099aac38389,64d2fd46c836a06233681665,64dc814282870d3189c49354,,,,,,,decisionTrl,resources/DBN.BMP,resources/DR.BMP,WildCard_Ex,-0.230744668,0.02547433,1,0,0,0.8334,optionLeft,95,3455,2,22,0,22,0,1,,,,,,,,,,,,,,,,,,,,,,,,,,,,,,,,,,,,,,,
,,,,,,,,2023-08-16_08h57.02.719,HF_wild_card,2022.2.4,MacIntel,59.99520038,644016f38da1a099aac38389,64d2fd46c836a06233681665,64dc814282870d3189c49354,,,,,,,ctch,resources/DP.BMP,resources/DG.BMP,Door3,0.296078249,0.006265501,1,0,0,0.7632,optionRight,70,3525,2,23,0,23,0,1,,,,,,,,,,,,,,,,,,,,,,,,,,,,,,,,,,,,,,,
,,,,,,,,2023-08-16_08h57.02.719,HF_wild_card,2022.2.4,MacIntel,59.99520038,644016f38da1a099aac38389,64d2fd46c836a06233681665,64dc814282870d3189c49354,,,,,,,sngl,resources/DG.BMP,resources/Empty.png,Door3,-0.135407366,-0.002260045,1,0,0,0.4625,optionLeft,70,3595,2,24,0,24,0,1,,,,,,,,,,,,,,,,,,,,,,,,,,,,,,,,,,,,,,,
,,,,,,,,2023-08-16_08h57.02.719,HF_wild_card,2022.2.4,MacIntel,59.99520038,644016f38da1a099aac38389,64d2fd46c836a06233681665,64dc814282870d3189c49354,,,,,,,decisionTrl,resources/DG.BMP,resources/DB.BMP,Door3,-0.166186136,0.005409846,1,0,0,0.6153,optionLeft,70,3665,2,25,0,25,0,1,,,,,,,,,,,,,,,,,,,,,,,,,,,,,,,,,,,,,,,
,,,,,,,,2023-08-16_08h57.02.719,HF_wild_card,2022.2.4,MacIntel,59.99520038,644016f38da1a099aac38389,64d2fd46c836a06233681665,64dc814282870d3189c49354,,,,,,,decisionTrl,resources/DP.BMP,resources/DR.BMP,Door1,0.332955109,-0.018092758,1,0,0,1.147,optionRight,30,3695,2,26,0,26,0,1,,,,,,,,,,,,,,,,,,,,,,,,,,,,,,,,,,,,,,,
,,,,,,,,2023-08-16_08h57.02.719,HF_wild_card,2022.2.4,MacIntel,59.99520038,644016f38da1a099aac38389,64d2fd46c836a06233681665,64dc814282870d3189c49354,,,,,,,sngl,resources/DBN.BMP,resources/Empty.png,WildCard_Ex,-0.203397817,0.025167411,1,0,0,0.5631,optionLeft,5,3700,2,27,0,27,0,1,,,,,,,,,,,,,,,,,,,,,,,,,,,,,,,,,,,,,,,
,,,,,,,,2023-08-16_08h57.02.719,HF_wild_card,2022.2.4,MacIntel,59.99520038,644016f38da1a099aac38389,64d2fd46c836a06233681665,64dc814282870d3189c49354,,,,,,,decisionTrl,resources/DB.BMP,resources/DG.BMP,Door3,0.207598586,-0.010140749,1,0,0,0.7642,optionRight,70,3770,2,28,0,28,0,1,,,,,,,,,,,,,,,,,,,,,,,,,,,,,,,,,,,,,,,
,,,,,,,,2023-08-16_08h57.02.719,HF_wild_card,2022.2.4,MacIntel,59.99520038,644016f38da1a099aac38389,64d2fd46c836a06233681665,64dc814282870d3189c49354,,,,,,,ctch,resources/DG.BMP,resources/DP.BMP,Door3,-0.215435888,0.011613343,1,0,0,0.5979,optionLeft,70,3840,2,29,0,29,0,1,,,,,,,,,,,,,,,,,,,,,,,,,,,,,,,,,,,,,,,
,,,,,,,,2023-08-16_08h57.02.719,HF_wild_card,2022.2.4,MacIntel,59.99520038,644016f38da1a099aac38389,64d2fd46c836a06233681665,64dc814282870d3189c49354,,,,,,,sngl,resources/Empty.png,resources/DBN.BMP,WildCard_Ex,0.259136285,0.008863467,1,0,0,0.6319,optionRight,5,3845,2,30,0,30,0,1,,,,,,,,,,,,,,,,,,,,,,,,,,,,,,,,,,,,,,,
,,,,,,,,2023-08-16_08h57.02.719,HF_wild_card,2022.2.4,MacIntel,59.99520038,644016f38da1a099aac38389,64d2fd46c836a06233681665,64dc814282870d3189c49354,,,,,,,decisionTrl,resources/DB.BMP,resources/DG.BMP,Door3,0.15953621,-0.018449281,1,0,0,0.7641,optionRight,70,3915,2,31,0,31,0,1,,,,,,,,,,,,,,,,,,,,,,,,,,,,,,,,,,,,,,,
,,,,,,,,2023-08-16_08h57.02.719,HF_wild_card,2022.2.4,MacIntel,59.99520038,644016f38da1a099aac38389,64d2fd46c836a06233681665,64dc814282870d3189c49354,,,,,,,decisionTrl,resources/DP.BMP,resources/DR.BMP,Door2,-0.189794147,0.039412822,1,0,0,1.4295,optionLeft,20,3935,2,32,0,32,0,1,,,,,,,,,,,,,,,,,,,,,,,,,,,,,,,,,,,,,,,
,,,,,,,,2023-08-16_08h57.02.719,HF_wild_card,2022.2.4,MacIntel,59.99520038,644016f38da1a099aac38389,64d2fd46c836a06233681665,64dc814282870d3189c49354,,,,,,,decisionTrl,resources/DR.BMP,resources/DP.BMP,Door2,0.297250124,0.003410218,1,0,0,0.9134,optionRight,40,3975,2,33,0,33,0,1,,,,,,,,,,,,,,,,,,,,,,,,,,,,,,,,,,,,,,,
,,,,,,,,2023-08-16_08h57.02.719,HF_wild_card,2022.2.4,MacIntel,59.99520038,644016f38da1a099aac38389,64d2fd46c836a06233681665,64dc814282870d3189c49354,,,,,,,decisionTrl,resources/DP.BMP,resources/DR.BMP,Door2,-0.351305184,0.022395833,1,0,0,0.8802,optionLeft,20,3995,2,34,0,34,0,1,,,,,,,,,,,,,,,,,,,,,,,,,,,,,,,,,,,,,,,
,,,,,,,,2023-08-16_08h57.02.719,HF_wild_card,2022.2.4,MacIntel,59.99520038,644016f38da1a099aac38389,64d2fd46c836a06233681665,64dc814282870d3189c49354,,,,,,,ctch,resources/DP.BMP,resources/DG.BMP,Door3,0.199348958,-0.003807044,1,0,0,0.5815,optionRight,70,4065,2,35,0,35,0,1,,,,,,,,,,,,,,,,,,,,,,,,,,,,,,,,,,,,,,,
,,,,,,,,2023-08-16_08h57.02.719,HF_wild_card,2022.2.4,MacIntel,59.99520038,644016f38da1a099aac38389,64d2fd46c836a06233681665,64dc814282870d3189c49354,,,,,,,sngl,resources/Empty.png,resources/DBN.BMP,WildCard_Ex,0.256367808,-0.010968502,1,0,0,0.6157,optionRight,95,4160,2,36,0,36,0,1,,,,,,,,,,,,,,,,,,,,,,,,,,,,,,,,,,,,,,,
,,,,,,,,2023-08-16_08h57.02.719,HF_wild_card,2022.2.4,MacIntel,59.99520038,644016f38da1a099aac38389,64d2fd46c836a06233681665,64dc814282870d3189c49354,,,,,,,sngl,resources/Empty.png,resources/DP.BMP,Door2,0.233993676,-0.019456845,1,0,0,0.4976,optionRight,40,4200,2,37,0,37,0,1,,,,,,,,,,,,,,,,,,,,,,,,,,,,,,,,,,,,,,,
,,,,,,,,2023-08-16_08h57.02.719,HF_wild_card,2022.2.4,MacIntel,59.99520038,644016f38da1a099aac38389,64d2fd46c836a06233681665,64dc814282870d3189c49354,,,,,,,decisionTrl,resources/DG.BMP,resources/DB.BMP,Door3,-0.197795759,0.028000992,1,0,0,0.6125,optionLeft,70,4270,2,38,0,38,0,1,,,,,,,,,,,,,,,,,,,,,,,,,,,,,,,,,,,,,,,
,,,,,,,,2023-08-16_08h57.02.719,HF_wild_card,2022.2.4,MacIntel,59.99520038,644016f38da1a099aac38389,64d2fd46c836a06233681665,64dc814282870d3189c49354,,,,,,,sngl,resources/DB.BMP,resources/Empty.png,Door4,-0.240116567,0.035664683,1,0,0,0.5105,optionLeft,60,4330,2,39,0,39,0,1,,,,,,,,,,,,,,,,,,,,,,,,,,,,,,,,,,,,,,,
,,,,,,,,2023-08-16_08h57.02.719,HF_wild_card,2022.2.4,MacIntel,59.99520038,644016f38da1a099aac38389,64d2fd46c836a06233681665,64dc814282870d3189c49354,,,,,,,decisionTrl,resources/DBN.BMP,resources/DB.BMP,WildCard_Ex,-0.17672371,0.030961682,1,0,0,0.6147,optionLeft,5,4335,2,40,0,40,0,1,,,,,,,,,,,,,,,,,,,,,,,,,,,,,,,,,,,,,,,
,,,,,,,,2023-08-16_08h57.02.719,HF_wild_card,2022.2.4,MacIntel,59.99520038,644016f38da1a099aac38389,64d2fd46c836a06233681665,64dc814282870d3189c49354,,,,,,,decisionTrl,resources/DBN.BMP,resources/DP.BMP,WildCard_Ex,-0.213101438,0.049748884,1,0,0,0.7158,optionLeft,95,4430,2,41,0,41,0,1,,,,,,,,,,,,,,,,,,,,,,,,,,,,,,,,,,,,,,,
,,,,,,,,2023-08-16_08h57.02.719,HF_wild_card,2022.2.4,MacIntel,59.99520038,644016f38da1a099aac38389,64d2fd46c836a06233681665,64dc814282870d3189c49354,,,,,,,decisionTrl,resources/DR.BMP,resources/DP.BMP,Door1,-0.255794271,0.024696181,1,0,0,0.9295,optionLeft,30,4460,2,42,0,42,0,1,,,,,,,,,,,,,,,,,,,,,,,,,,,,,,,,,,,,,,,
,,,,,,,,2023-08-16_08h57.02.719,HF_wild_card,2022.2.4,MacIntel,59.99520038,644016f38da1a099aac38389,64d2fd46c836a06233681665,64dc814282870d3189c49354,,,,,,,ctch,resources/DB.BMP,resources/DR.BMP,Door1,0.246447173,-0.030970982,1,0,0,0.7128,optionRight,30,4490,2,43,0,43,0,1,,,,,,,,,,,,,,,,,,,,,,,,,,,,,,,,,,,,,,,
,,,,,,,,2023-08-16_08h57.02.719,HF_wild_card,2022.2.4,MacIntel,59.99520038,644016f38da1a099aac38389,64d2fd46c836a06233681665,64dc814282870d3189c49354,,,,,,,,,,,,,,,,,,,,,,,,,,1,0,1,0,1,,,,,,,,,,,,,,,,,,,,,,,,,,,,,,,,,,
,,,,,,,,2023-08-16_08h57.02.719,HF_wild_card,2022.2.4,MacIntel,59.99520038,644016f38da1a099aac38389,64d2fd46c836a06233681665,64dc814282870d3189c49354,,,,,,,decisionTrl,resources/DG.BMP,resources/DBN.BMP,WildCard_Ex,0.252542163,-0.035807292,1,0,0,0.9166,optionRight,95,4585,3,0,0,0,0,1,,,,,,,,,,,,,,,,,,,,,,,,,,,,,,,,,,,,,,,
,,,,,,,,2023-08-16_08h57.02.719,HF_wild_card,2022.2.4,MacIntel,59.99520038,644016f38da1a099aac38389,64d2fd46c836a06233681665,64dc814282870d3189c49354,,,,,,,ctch,resources/DR.BMP,resources/DB.BMP,Door4,0.192475818,0.011139013,1,0,0,1.1951,optionRight,60,4645,3,1,0,1,0,1,,,,,,,,,,,,,,,,,,,,,,,,,,,,,,,,,,,,,,,
,,,,,,,,2023-08-16_08h57.02.719,HF_wild_card,2022.2.4,MacIntel,59.99520038,644016f38da1a099aac38389,64d2fd46c836a06233681665,64dc814282870d3189c49354,,,,,,,sngl,resources/DR.BMP,resources/Empty.png,Door1,-0.220349702,0.027114335,1,0,0,0.5655,optionLeft,30,4675,3,2,0,2,0,1,,,,,,,,,,,,,,,,,,,,,,,,,,,,,,,,,,,,,,,
,,,,,,,,2023-08-16_08h57.02.719,HF_wild_card,2022.2.4,MacIntel,59.99520038,644016f38da1a099aac38389,64d2fd46c836a06233681665,64dc814282870d3189c49354,,,,,,,decisionTrl,resources/DR.BMP,resources/DP.BMP,Door2,0.096459573,0.010137649,1,0,0,1.033,optionRight,40,4715,3,3,0,3,0,1,,,,,,,,,,,,,,,,,,,,,,,,,,,,,,,,,,,,,,,
,,,,,,,,2023-08-16_08h57.02.719,HF_wild_card,2022.2.4,MacIntel,59.99520038,644016f38da1a099aac38389,64d2fd46c836a06233681665,64dc814282870d3189c49354,,,,,,,sngl,resources/Empty.png,resources/DBN.BMP,WildCard_Ex,0.229811508,-0.008528646,1,0,0,0.5969,optionRight,5,4720,3,4,0,4,0,1,,,,,,,,,,,,,,,,,,,,,,,,,,,,,,,,,,,,,,,
,,,,,,,,2023-08-16_08h57.02.719,HF_wild_card,2022.2.4,MacIntel,59.99520038,644016f38da1a099aac38389,64d2fd46c836a06233681665,64dc814282870d3189c49354,,,,,,,decisionTrl,resources/DB.BMP,resources/DG.BMP,Door3,0.148195685,-0.002830481,1,0,0,0.6976,optionRight,70,4790,3,5,0,5,0,1,,,,,,,,,,,,,,,,,,,,,,,,,,,,,,,,,,,,,,,
,,,,,,,,2023-08-16_08h57.02.719,HF_wild_card,2022.2.4,MacIntel,59.99520038,644016f38da1a099aac38389,64d2fd46c836a06233681665,64dc814282870d3189c49354,,,,,,,decisionTrl,resources/DB.BMP,resources/DG.BMP,Door3,0.18203125,-0.005800471,1,0,0,0.4653,optionRight,70,4860,3,6,0,6,0,1,,,,,,,,,,,,,,,,,,,,,,,,,,,,,,,,,,,,,,,
,,,,,,,,2023-08-16_08h57.02.719,HF_wild_card,2022.2.4,MacIntel,59.99520038,644016f38da1a099aac38389,64d2fd46c836a06233681665,64dc814282870d3189c49354,,,,,,,sngl,resources/DBN.BMP,resources/Empty.png,WildCard_Ex,-0.203893849,0.028345114,1,0,0,0.5467,optionLeft,95,4955,3,7,0,7,0,1,,,,,,,,,,,,,,,,,,,,,,,,,,,,,,,,,,,,,,,
,,,,,,,,2023-08-16_08h57.02.719,HF_wild_card,2022.2.4,MacIntel,59.99520038,644016f38da1a099aac38389,64d2fd46c836a06233681665,64dc814282870d3189c49354,,,,,,,sngl,resources/DG.BMP,resources/Empty.png,Door3,-0.116827877,0.00702815,1,0,0,0.4792,optionLeft,70,5025,3,8,0,8,0,1,,,,,,,,,,,,,,,,,,,,,,,,,,,,,,,,,,,,,,,
,,,,,,,,2023-08-16_08h57.02.719,HF_wild_card,2022.2.4,MacIntel,59.99520038,644016f38da1a099aac38389,64d2fd46c836a06233681665,64dc814282870d3189c49354,,,,,,,sngl,resources/Empty.png,resources/DP.BMP,Door2,0.173220486,-0.003785342,1,0,0,0.5802,optionRight,20,5045,3,9,0,9,0,1,,,,,,,,,,,,,,,,,,,,,,,,,,,,,,,,,,,,,,,
,,,,,,,,2023-08-16_08h57.02.719,HF_wild_card,2022.2.4,MacIntel,59.99520038,644016f38da1a099aac38389,64d2fd46c836a06233681665,64dc814282870d3189c49354,,,,,,,ctch,resources/DP.BMP,resources/DG.BMP,Door3,0.207536582,-0.010320561,1,0,0,0.5981,optionRight,70,5115,3,10,0,10,0,1,,,,,,,,,,,,,,,,,,,,,,,,,,,,,,,,,,,,,,,
,,,,,,,,2023-08-16_08h57.02.719,HF_wild_card,2022.2.4,MacIntel,59.99520038,644016f38da1a099aac38389,64d2fd46c836a06233681665,64dc814282870d3189c49354,,,,,,,decisionTrl,resources/DG.BMP,resources/DB.BMP,Door3,-0.189725942,0.036033606,1,0,0,0.4627,optionLeft,70,5185,3,11,0,11,0,1,,,,,,,,,,,,,,,,,,,,,,,,,,,,,,,,,,,,,,,
,,,,,,,,2023-08-16_08h57.02.719,HF_wild_card,2022.2.4,MacIntel,59.99520038,644016f38da1a099aac38389,64d2fd46c836a06233681665,64dc814282870d3189c49354,,,,,,,decisionTrl,resources/DR.BMP,resources/DP.BMP,Door1,-0.330400546,0.034334697,1,0,0,1.28,optionLeft,30,5215,3,12,0,12,0,1,,,,,,,,,,,,,,,,,,,,,,,,,,,,,,,,,,,,,,,
,,,,,,,,2023-08-16_08h57.02.719,HF_wild_card,2022.2.4,MacIntel,59.99520038,644016f38da1a099aac38389,64d2fd46c836a06233681665,64dc814282870d3189c49354,,,,,,,decisionTrl,resources/DB.BMP,resources/DG.BMP,Door3,0.190804812,-0.008987475,1,0,0,0.5997,optionRight,70,5285,3,13,0,13,0,1,,,,,,,,,,,,,,,,,,,,,,,,,,,,,,,,,,,,,,,
,,,,,,,,2023-08-16_08h57.02.719,HF_wild_card,2022.2.4,MacIntel,59.99520038,644016f38da1a099aac38389,64d2fd46c836a06233681665,64dc814282870d3189c49354,,,,,,,decisionTrl,resources/DBN.BMP,resources/DG.BMP,Door3,0.248347594,-0.029476687,1,0,0,0.5811,optionRight,70,5355,3,14,0,14,0,1,,,,,,,,,,,,,,,,,,,,,,,,,,,,,,,,,,,,,,,
,,,,,,,,2023-08-16_08h57.02.719,HF_wild_card,2022.2.4,MacIntel,59.99520038,644016f38da1a099aac38389,64d2fd46c836a06233681665,64dc814282870d3189c49354,,,,,,,sngl,resources/DBN.BMP,resources/Empty.png,WildCard_Ex,-0.21046627,0.013727679,1,0,0,0.5626,optionLeft,5,5360,3,15,0,15,0,1,,,,,,,,,,,,,,,,,,,,,,,,,,,,,,,,,,,,,,,
,,,,,,,,2023-08-16_08h57.02.719,HF_wild_card,2022.2.4,MacIntel,59.99520038,644016f38da1a099aac38389,64d2fd46c836a06233681665,64dc814282870d3189c49354,,,,,,,ctch,resources/DG.BMP,resources/DP.BMP,Door3,-0.226838418,0.008736359,1,0,0,0.6476,optionLeft,70,5430,3,16,0,16,0,1,,,,,,,,,,,,,,,,,,,,,,,,,,,,,,,,,,,,,,,
,,,,,,,,2023-08-16_08h57.02.719,HF_wild_card,2022.2.4,MacIntel,59.99520038,644016f38da1a099aac38389,64d2fd46c836a06233681665,64dc814282870d3189c49354,,,,,,,decisionTrl,resources/DR.BMP,resources/DP.BMP,Door1,-0.405611359,0.032955109,1,0,0,1.7304,optionLeft,30,5460,3,17,0,17,0,1,,,,,,,,,,,,,,,,,,,,,,,,,,,,,,,,,,,,,,,
,,,,,,,,2023-08-16_08h57.02.719,HF_wild_card,2022.2.4,MacIntel,59.99520038,644016f38da1a099aac38389,64d2fd46c836a06233681665,64dc814282870d3189c49354,,,,,,,decisionTrl,resources/DP.BMP,resources/DR.BMP,Door1,0.198155382,-0.010128348,1,0,0,0.6327,optionRight,30,5490,3,18,0,18,0,1,,,,,,,,,,,,,,,,,,,,,,,,,,,,,,,,,,,,,,,
,,,,,,,,2023-08-16_08h57.02.719,HF_wild_card,2022.2.4,MacIntel,59.99520038,644016f38da1a099aac38389,64d2fd46c836a06233681665,64dc814282870d3189c49354,,,,,,,decisionTrl,resources/DR.BMP,resources/DP.BMP,Door2,0.128658234,-0.021081349,1,0,0,0.4671,optionRight,20,5510,3,19,0,19,0,1,,,,,,,,,,,,,,,,,,,,,,,,,,,,,,,,,,,,,,,
,,,,,,,,2023-08-16_08h57.02.719,HF_wild_card,2022.2.4,MacIntel,59.99520038,644016f38da1a099aac38389,64d2fd46c836a06233681665,64dc814282870d3189c49354,,,,,,,ctch,resources/DB.BMP,resources/DR.BMP,Door1,0.226609003,-0.038116939,1,0,0,0.5145,optionRight,30,5540,3,20,0,20,0,1,,,,,,,,,,,,,,,,,,,,,,,,,,,,,,,,,,,,,,,
,,,,,,,,2023-08-16_08h57.02.719,HF_wild_card,2022.2.4,MacIntel,59.99520038,644016f38da1a099aac38389,64d2fd46c836a06233681665,64dc814282870d3189c49354,,,,,,,decisionTrl,resources/DR.BMP,resources/DBN.BMP,WildCard_Ex,0.268176463,-0.014784846,1,0,0,0.6121,optionRight,5,5545,3,21,0,21,0,1,,,,,,,,,,,,,,,,,,,,,,,,,,,,,,,,,,,,,,,
,,,,,,,,2023-08-16_08h57.02.719,HF_wild_card,2022.2.4,MacIntel,59.99520038,644016f38da1a099aac38389,64d2fd46c836a06233681665,64dc814282870d3189c49354,,,,,,,ctch,resources/DG.BMP,resources/DP.BMP,Door3,-0.263922991,0.037140377,1,0,0,0.6491,optionLeft,70,5615,3,22,0,22,0,1,,,,,,,,,,,,,,,,,,,,,,,,,,,,,,,,,,,,,,,
,,,,,,,,2023-08-16_08h57.02.719,HF_wild_card,2022.2.4,MacIntel,59.99520038,644016f38da1a099aac38389,64d2fd46c836a06233681665,64dc814282870d3189c49354,,,,,,,decisionTrl,resources/DB.BMP,resources/DG.BMP,Door3,0.177362351,-0.015959821,1,0,0,0.5308,optionRight,70,5685,3,23,0,23,0,1,,,,,,,,,,,,,,,,,,,,,,,,,,,,,,,,,,,,,,,
,,,,,,,,2023-08-16_08h57.02.719,HF_wild_card,2022.2.4,MacIntel,59.99520038,644016f38da1a099aac38389,64d2fd46c836a06233681665,64dc814282870d3189c49354,,,,,,,decisionTrl,resources/DB.BMP,resources/DBN.BMP,WildCard_Ex,0.167283606,0.00093006,1,0,0,0.6457,optionRight,95,5780,3,24,0,24,0,1,,,,,,,,,,,,,,,,,,,,,,,,,,,,,,,,,,,,,,,
,,,,,,,,2023-08-16_08h57.02.719,HF_wild_card,2022.2.4,MacIntel,59.99520038,644016f38da1a099aac38389,64d2fd46c836a06233681665,64dc814282870d3189c49354,,,,,,,sngl,resources/Empty.png,resources/DBN.BMP,WildCard_Ex,0.14859871,-0.001807416,1,0,0,0.5279,optionRight,95,5875,3,25,0,25,0,1,,,,,,,,,,,,,,,,,,,,,,,,,,,,,,,,,,,,,,,
,,,,,,,,2023-08-16_08h57.02.719,HF_wild_card,2022.2.4,MacIntel,59.99520038,644016f38da1a099aac38389,64d2fd46c836a06233681665,64dc814282870d3189c49354,,,,,,,decisionTrl,resources/DBN.BMP,resources/DP.BMP,WildCard_Ex,-0.225260417,0.019134425,1,0,0,1.1301,optionLeft,95,5970,3,26,0,26,0,1,,,,,,,,,,,,,,,,,,,,,,,,,,,,,,,,,,,,,,,
,,,,,,,,2023-08-16_08h57.02.719,HF_wild_card,2022.2.4,MacIntel,59.99520038,644016f38da1a099aac38389,64d2fd46c836a06233681665,64dc814282870d3189c49354,,,,,,,decisionTrl,resources/DG.BMP,resources/DB.BMP,Door3,-0.244094122,0.017956349,1,0,0,0.682,optionLeft,70,6040,3,27,0,27,0,1,,,,,,,,,,,,,,,,,,,,,,,,,,,,,,,,,,,,,,,
,,,,,,,,2023-08-16_08h57.02.719,HF_wild_card,2022.2.4,MacIntel,59.99520038,644016f38da1a099aac38389,64d2fd46c836a06233681665,64dc814282870d3189c49354,,,,,,,decisionTrl,resources/DBN.BMP,resources/DB.BMP,WildCard_Ex,-0.193805804,0.014341518,1,0,0,0.5654,optionLeft,5,6045,3,28,0,28,0,1,,,,,,,,,,,,,,,,,,,,,,,,,,,,,,,,,,,,,,,
,,,,,,,,2023-08-16_08h57.02.719,HF_wild_card,2022.2.4,MacIntel,59.99520038,644016f38da1a099aac38389,64d2fd46c836a06233681665,64dc814282870d3189c49354,,,,,,,sngl,resources/Empty.png,resources/DR.BMP,Door1,0.210708085,-0.007536582,1,0,0,0.4658,optionRight,30,6075,3,29,0,29,0,1,,,,,,,,,,,,,,,,,,,,,,,,,,,,,,,,,,,,,,,
,,,,,,,,2023-08-16_08h57.02.719,HF_wild_card,2022.2.4,MacIntel,59.99520038,644016f38da1a099aac38389,64d2fd46c836a06233681665,64dc814282870d3189c49354,,,,,,,ctch,resources/DB.BMP,resources/DR.BMP,Door1,0.135177951,0.001574901,1,0,0,0.5669,optionRight,30,6105,3,30,0,30,0,1,,,,,,,,,,,,,,,,,,,,,,,,,,,,,,,,,,,,,,,
,,,,,,,,2023-08-16_08h57.02.719,HF_wild_card,2022.2.4,MacIntel,59.99520038,644016f38da1a099aac38389,64d2fd46c836a06233681665,64dc814282870d3189c49354,,,,,,,decisionTrl,resources/DP.BMP,resources/DBN.BMP,WildCard_Ex,0.209548611,-0.026016865,1,0,0,0.9855,optionRight,5,6110,3,31,0,31,0,1,,,,,,,,,,,,,,,,,,,,,,,,,,,,,,,,,,,,,,,
,,,,,,,,2023-08-16_08h57.02.719,HF_wild_card,2022.2.4,MacIntel,59.99520038,644016f38da1a099aac38389,64d2fd46c836a06233681665,64dc814282870d3189c49354,,,,,,,decisionTrl,resources/DG.BMP,resources/DB.BMP,Door3,-0.315302579,0.023778522,1,0,0,0.6296,optionLeft,70,6180,3,32,0,32,0,1,,,,,,,,,,,,,,,,,,,,,,,,,,,,,,,,,,,,,,,
,,,,,,,,2023-08-16_08h57.02.719,HF_wild_card,2022.2.4,MacIntel,59.99520038,644016f38da1a099aac38389,64d2fd46c836a06233681665,64dc814282870d3189c49354,,,,,,,sngl,resources/DP.BMP,resources/Empty.png,Door2,-0.203927951,0.02640439,1,0,0,0.6294,optionLeft,40,6220,3,33,0,33,0,1,,,,,,,,,,,,,,,,,,,,,,,,,,,,,,,,,,,,,,,
,,,,,,,,2023-08-16_08h57.02.719,HF_wild_card,2022.2.4,MacIntel,59.99520038,644016f38da1a099aac38389,64d2fd46c836a06233681665,64dc814282870d3189c49354,,,,,,,decisionTrl,resources/DP.BMP,resources/DR.BMP,Door2,-0.150257316,0.015184772,1,0,0,0.3955,optionLeft,20,6240,3,34,0,34,0,1,,,,,,,,,,,,,,,,,,,,,,,,,,,,,,,,,,,,,,,
,,,,,,,,2023-08-16_08h57.02.719,HF_wild_card,2022.2.4,MacIntel,59.99520038,644016f38da1a099aac38389,64d2fd46c836a06233681665,64dc814282870d3189c49354,,,,,,,ctch,resources/DP.BMP,resources/DG.BMP,Door3,0.145889137,-0.002594866,1,0,0,0.4477,optionRight,70,6310,3,35,0,35,0,1,,,,,,,,,,,,,,,,,,,,,,,,,,,,,,,,,,,,,,,
,,,,,,,,2023-08-16_08h57.02.719,HF_wild_card,2022.2.4,MacIntel,59.99520038,644016f38da1a099aac38389,64d2fd46c836a06233681665,64dc814282870d3189c49354,,,,,,,sngl,resources/Empty.png,resources/DB.BMP,Door4,0.21140253,-0.006615823,1,0,0,0.3648,optionRight,60,6370,3,36,0,36,0,1,,,,,,,,,,,,,,,,,,,,,,,,,,,,,,,,,,,,,,,
,,,,,,,,2023-08-16_08h57.02.719,HF_wild_card,2022.2.4,MacIntel,59.99520038,644016f38da1a099aac38389,64d2fd46c836a06233681665,64dc814282870d3189c49354,,,,,,,decisionTrl,resources/DG.BMP,resources/DB.BMP,Door4,0.159384301,-0.014397321,1,0,0,0.3138,optionRight,80,6450,3,37,0,37,0,1,,,,,,,,,,,,,,,,,,,,,,,,,,,,,,,,,,,,,,,
,,,,,,,,2023-08-16_08h57.02.719,HF_wild_card,2022.2.4,MacIntel,59.99520038,644016f38da1a099aac38389,64d2fd46c836a06233681665,64dc814282870d3189c49354,,,,,,,sngl,resources/Empty.png,resources/DG.BMP,Door3,0.336743552,-0.042804439,1,0,0,0.5118,optionRight,70,6520,3,38,0,38,0,1,,,,,,,,,,,,,,,,,,,,,,,,,,,,,,,,,,,,,,,
,,,,,,,,2023-08-16_08h57.02.719,HF_wild_card,2022.2.4,MacIntel,59.99520038,644016f38da1a099aac38389,64d2fd46c836a06233681665,64dc814282870d3189c49354,,,,,,,decisionTrl,resources/DBN.BMP,resources/DR.BMP,WildCard_Ex,-0.184576513,0.004439484,1,0,0,0.6983,optionLeft,5,6525,3,39,0,39,0,1,,,,,,,,,,,,,,,,,,,,,,,,,,,,,,,,,,,,,,,
,,,,,,,,2023-08-16_08h57.02.719,HF_wild_card,2022.2.4,MacIntel,59.99520038,644016f38da1a099aac38389,64d2fd46c836a06233681665,64dc814282870d3189c49354,,,,,,,ctch,resources/DR.BMP,resources/DB.BMP,Door1,-0.163898189,1.5501E-05,1,0,0,0.662,optionLeft,30,6555,3,40,0,40,0,1,,,,,,,,,,,,,,,,,,,,,,,,,,,,,,,,,,,,,,,
,,,,,,,,2023-08-16_08h57.02.719,HF_wild_card,2022.2.4,MacIntel,59.99520038,644016f38da1a099aac38389,64d2fd46c836a06233681665,64dc814282870d3189c49354,,,,,,,sngl,resources/DB.BMP,resources/Empty.png,Door4,-0.114570933,-0.007043651,1,0,0,0.5652,optionLeft,80,6635,3,41,0,41,0,1,,,,,,,,,,,,,,,,,,,,,,,,,,,,,,,,,,,,,,,
,,,,,,,,2023-08-16_08h57.02.719,HF_wild_card,2022.2.4,MacIntel,59.99520038,644016f38da1a099aac38389,64d2fd46c836a06233681665,64dc814282870d3189c49354,,,,,,,decisionTrl,resources/DP.BMP,resources/DR.BMP,Door1,0.138826885,-0.010754588,1,0,0,1.2001,optionRight,30,6665,3,42,0,42,0,1,,,,,,,,,,,,,,,,,,,,,,,,,,,,,,,,,,,,,,,
,,,,,,,,2023-08-16_08h57.02.719,HF_wild_card,2022.2.4,MacIntel,59.99520038,644016f38da1a099aac38389,64d2fd46c836a06233681665,64dc814282870d3189c49354,,,,,,,decisionTrl,resources/DP.BMP,resources/DR.BMP,Door2,-0.165355283,0.005660962,1,0,0,0.6813,optionLeft,20,6685,3,43,0,43,0,1,,,,,,,,,,,,,,,,,,,,,,,,,,,,,,,,,,,,,,,
,,,,,,,,2023-08-16_08h57.02.719,HF_wild_card,2022.2.4,MacIntel,59.99520038,644016f38da1a099aac38389,64d2fd46c836a06233681665,64dc814282870d3189c49354,,,,,,,,,,,,,,,,,,,,,,,,,,2,0,2,0,1,,,,,,,,,,,,,,,,,,,,,,,,,,,,,,,,,,
,,,,,,,,2023-08-16_08h57.02.719,HF_wild_card,2022.2.4,MacIntel,59.99520038,644016f38da1a099aac38389,64d2fd46c836a06233681665,64dc814282870d3189c49354,,,,,,,decisionTrl,resources/DR.BMP,resources/DP.BMP,Door1,-0.188330853,-0.053779142,1,0,0,0.6151,optionLeft,30,6715,4,0,0,0,0,1,,,,,,,,,,,,,,,,,,,,,,,,,,,,,,,,,,,,,,,
,,,,,,,,2023-08-16_08h57.02.719,HF_wild_card,2022.2.4,MacIntel,59.99520038,644016f38da1a099aac38389,64d2fd46c836a06233681665,64dc814282870d3189c49354,,,,,,,sngl,resources/Empty.png,resources/DG.BMP,Door3,0.197429936,-0.03781622,1,0,0,0.498,optionRight,70,6785,4,1,0,1,0,1,,,,,,,,,,,,,,,,,,,,,,,,,,,,,,,,,,,,,,,
,,,,,,,,2023-08-16_08h57.02.719,HF_wild_card,2022.2.4,MacIntel,59.99520038,644016f38da1a099aac38389,64d2fd46c836a06233681665,64dc814282870d3189c49354,,,,,,,decisionTrl,resources/DG.BMP,resources/DB.BMP,Door3,-0.144565352,0.013922991,1,0,0,0.5463,optionLeft,70,6855,4,2,0,2,0,1,,,,,,,,,,,,,,,,,,,,,,,,,,,,,,,,,,,,,,,
,,,,,,,,2023-08-16_08h57.02.719,HF_wild_card,2022.2.4,MacIntel,59.99520038,644016f38da1a099aac38389,64d2fd46c836a06233681665,64dc814282870d3189c49354,,,,,,,sngl,resources/DP.BMP,resources/Empty.png,Door2,-0.134709821,-0.008367436,1,0,0,0.5966,optionLeft,20,6875,4,3,0,3,0,1,,,,,,,,,,,,,,,,,,,,,,,,,,,,,,,,,,,,,,,
,,,,,,,,2023-08-16_08h57.02.719,HF_wild_card,2022.2.4,MacIntel,59.99520038,644016f38da1a099aac38389,64d2fd46c836a06233681665,64dc814282870d3189c49354,,,,,,,sngl,resources/DB.BMP,resources/Empty.png,Door4,-0.156330605,-0.000883557,1,0,0,0.5795,optionLeft,60,6935,4,4,0,4,0,1,,,,,,,,,,,,,,,,,,,,,,,,,,,,,,,,,,,,,,,
,,,,,,,,2023-08-16_08h57.02.719,HF_wild_card,2022.2.4,MacIntel,59.99520038,644016f38da1a099aac38389,64d2fd46c836a06233681665,64dc814282870d3189c49354,,,,,,,decisionTrl,resources/DB.BMP,resources/DG.BMP,Door3,0.16265191,-0.012841022,1,0,0,0.4956,optionRight,70,7005,4,5,0,5,0,1,,,,,,,,,,,,,,,,,,,,,,,,,,,,,,,,,,,,,,,
,,,,,,,,2023-08-16_08h57.02.719,HF_wild_card,2022.2.4,MacIntel,59.99520038,644016f38da1a099aac38389,64d2fd46c836a06233681665,64dc814282870d3189c49354,,,,,,,decisionTrl,resources/DB.BMP,resources/DG.BMP,Door3,0.162003968,-0.019906374,1,0,0,0.5471,optionRight,70,7075,4,6,0,6,0,1,,,,,,,,,,,,,,,,,,,,,,,,,,,,,,,,,,,,,,,
,,,,,,,,2023-08-16_08h57.02.719,HF_wild_card,2022.2.4,MacIntel,59.99520038,644016f38da1a099aac38389,64d2fd46c836a06233681665,64dc814282870d3189c49354,,,,,,,decisionTrl,resources/DP.BMP,resources/DR.BMP,Door1,0.157911706,-0.001646205,1,0,0,1.0626,optionRight,30,7105,4,7,0,7,0,1,,,,,,,,,,,,,,,,,,,,,,,,,,,,,,,,,,,,,,,
,,,,,,,,2023-08-16_08h57.02.719,HF_wild_card,2022.2.4,MacIntel,59.99520038,644016f38da1a099aac38389,64d2fd46c836a06233681665,64dc814282870d3189c49354,,,,,,,decisionTrl,resources/DY.BMP,resources/DB.BMP,WildCard_NonEx,-0.310401166,0.00546875,1,0,0,0.9676,optionLeft,45,7150,4,8,0,8,0,1,,,,,,,,,,,,,,,,,,,,,,,,,,,,,,,,,,,,,,,
,,,,,,,,2023-08-16_08h57.02.719,HF_wild_card,2022.2.4,MacIntel,59.99520038,644016f38da1a099aac38389,64d2fd46c836a06233681665,64dc814282870d3189c49354,,,,,,,decisionTrl,resources/DP.BMP,resources/DR.BMP,Door2,-0.223521205,-0.008289931,1,0,0,1.7792,optionLeft,20,7170,4,9,0,9,0,1,,,,,,,,,,,,,,,,,,,,,,,,,,,,,,,,,,,,,,,
,,,,,,,,2023-08-16_08h57.02.719,HF_wild_card,2022.2.4,MacIntel,59.99520038,644016f38da1a099aac38389,64d2fd46c836a06233681665,64dc814282870d3189c49354,,,,,,,decisionTrl,resources/DP.BMP,resources/DR.BMP,Door1,0.216214038,-0.006237599,1,0,0,0.5496,optionRight,30,7200,4,10,0,10,0,1,,,,,,,,,,,,,,,,,,,,,,,,,,,,,,,,,,,,,,,
,,,,,,,,2023-08-16_08h57.02.719,HF_wild_card,2022.2.4,MacIntel,59.99520038,644016f38da1a099aac38389,64d2fd46c836a06233681665,64dc814282870d3189c49354,,,,,,,decisionTrl,resources/DG.BMP,resources/DB.BMP,Door3,-0.165919519,-0.00077815,1,0,0,0.7638,optionLeft,70,7270,4,11,0,11,0,1,,,,,,,,,,,,,,,,,,,,,,,,,,,,,,,,,,,,,,,
,,,,,,,,2023-08-16_08h57.02.719,HF_wild_card,2022.2.4,MacIntel,59.99520038,644016f38da1a099aac38389,64d2fd46c836a06233681665,64dc814282870d3189c49354,,,,,,,decisionTrl,resources/DR.BMP,resources/DP.BMP,Door2,0.288237847,-0.023217386,1,0,0,1.1648,optionRight,40,7310,4,12,0,12,0,1,,,,,,,,,,,,,,,,,,,,,,,,,,,,,,,,,,,,,,,
,,,,,,,,2023-08-16_08h57.02.719,HF_wild_card,2022.2.4,MacIntel,59.99520038,644016f38da1a099aac38389,64d2fd46c836a06233681665,64dc814282870d3189c49354,,,,,,,decisionTrl,resources/DG.BMP,resources/DB.BMP,Door4,0.222225322,-0.030977183,1,0,0,1.0797,optionRight,60,7370,4,13,0,13,0,1,,,,,,,,,,,,,,,,,,,,,,,,,,,,,,,,,,,,,,,
,,,,,,,,2023-08-16_08h57.02.719,HF_wild_card,2022.2.4,MacIntel,59.99520038,644016f38da1a099aac38389,64d2fd46c836a06233681665,64dc814282870d3189c49354,,,,,,,ctch,resources/DR.BMP,resources/DB.BMP,Door4,0.222783358,-0.012177579,1,0,0,0.5151,optionRight,60,7430,4,14,0,14,0,1,,,,,,,,,,,,,,,,,,,,,,,,,,,,,,,,,,,,,,,
,,,,,,,,2023-08-16_08h57.02.719,HF_wild_card,2022.2.4,MacIntel,59.99520038,644016f38da1a099aac38389,64d2fd46c836a06233681665,64dc814282870d3189c49354,,,,,,,sngl,resources/Empty.png,resources/DP.BMP,Door2,0.172299727,-0.012546503,1,0,0,0.4977,optionRight,40,7470,4,15,0,15,0,1,,,,,,,,,,,,,,,,,,,,,,,,,,,,,,,,,,,,,,,
,,,,,,,,2023-08-16_08h57.02.719,HF_wild_card,2022.2.4,MacIntel,59.99520038,644016f38da1a099aac38389,64d2fd46c836a06233681665,64dc814282870d3189c49354,,,,,,,sngl,resources/Empty.png,resources/DR.BMP,Door1,0.198245288,-0.018012153,1,0,0,0.5146,optionRight,30,7500,4,16,0,16,0,1,,,,,,,,,,,,,,,,,,,,,,,,,,,,,,,,,,,,,,,
,,,,,,,,2023-08-16_08h57.02.719,HF_wild_card,2022.2.4,MacIntel,59.99520038,644016f38da1a099aac38389,64d2fd46c836a06233681665,64dc814282870d3189c49354,,,,,,,sngl,resources/DY.BMP,resources/Empty.png,WildCard_NonEx,-0.225164311,-0.002300347,1,0,0,1.1122,optionLeft,45,7545,4,17,0,17,0,1,,,,,,,,,,,,,,,,,,,,,,,,,,,,,,,,,,,,,,,
,,,,,,,,2023-08-16_08h57.02.719,HF_wild_card,2022.2.4,MacIntel,59.99520038,644016f38da1a099aac38389,64d2fd46c836a06233681665,64dc814282870d3189c49354,,,,,,,sngl,resources/DG.BMP,resources/Empty.png,Door3,-0.225926959,0.001333085,1,0,0,1.0106,optionLeft,70,7615,4,18,0,18,0,1,,,,,,,,,,,,,,,,,,,,,,,,,,,,,,,,,,,,,,,
,,,,,,,,2023-08-16_08h57.02.719,HF_wild_card,2022.2.4,MacIntel,59.99520038,644016f38da1a099aac38389,64d2fd46c836a06233681665,64dc814282870d3189c49354,,,,,,,sngl,resources/DY.BMP,resources/Empty.png,WildCard_NonEx,-0.18499504,0.001441592,1,0,0,0.4154,optionLeft,55,7670,4,19,0,19,0,1,,,,,,,,,,,,,,,,,,,,,,,,,,,,,,,,,,,,,,,
,,,,,,,,2023-08-16_08h57.02.719,HF_wild_card,2022.2.4,MacIntel,59.99520038,644016f38da1a099aac38389,64d2fd46c836a06233681665,64dc814282870d3189c49354,,,,,,,ctch,resources/DG.BMP,resources/DP.BMP,Door3,-0.137599206,-0.007052951,1,0,0,1.0163,optionLeft,70,7740,4,20,0,20,0,1,,,,,,,,,,,,,,,,,,,,,,,,,,,,,,,,,,,,,,,
,,,,,,,,2023-08-16_08h57.02.719,HF_wild_card,2022.2.4,MacIntel,59.99520038,644016f38da1a099aac38389,64d2fd46c836a06233681665,64dc814282870d3189c49354,,,,,,,decisionTrl,resources/DY.BMP,resources/DR.BMP,WildCard_NonEx,-0.156742932,0.005071925,1,0,0,0.6826,optionLeft,45,7785,4,21,0,21,0,1,,,,,,,,,,,,,,,,,,,,,,,,,,,,,,,,,,,,,,,
,,,,,,,,2023-08-16_08h57.02.719,HF_wild_card,2022.2.4,MacIntel,59.99520038,644016f38da1a099aac38389,64d2fd46c836a06233681665,64dc814282870d3189c49354,,,,,,,decisionTrl,resources/DB.BMP,resources/DG.BMP,Door3,0.22140067,-0.01187066,1,0,0,0.6805,optionRight,70,7855,4,22,0,22,0,1,,,,,,,,,,,,,,,,,,,,,,,,,,,,,,,,,,,,,,,
,,,,,,,,2023-08-16_08h57.02.719,HF_wild_card,2022.2.4,MacIntel,59.99520038,644016f38da1a099aac38389,64d2fd46c836a06233681665,64dc814282870d3189c49354,,,,,,,ctch,resources/DB.BMP,resources/DR.BMP,Door1,0.103376116,0.019779266,1,0,0,1.865,optionRight,30,7885,4,23,0,23,0,1,,,,,,,,,,,,,,,,,,,,,,,,,,,,,,,,,,,,,,,
,,,,,,,,2023-08-16_08h57.02.719,HF_wild_card,2022.2.4,MacIntel,59.99520038,644016f38da1a099aac38389,64d2fd46c836a06233681665,64dc814282870d3189c49354,,,,,,,decisionTrl,resources/DB.BMP,resources/DG.BMP,Door3,0.261008805,0.019363839,1,0,0,0.448,optionRight,70,7955,4,24,0,24,0,1,,,,,,,,,,,,,,,,,,,,,,,,,,,,,,,,,,,,,,,
,,,,,,,,2023-08-16_08h57.02.719,HF_wild_card,2022.2.4,MacIntel,59.99520038,644016f38da1a099aac38389,64d2fd46c836a06233681665,64dc814282870d3189c49354,,,,,,,ctch,resources/DR.BMP,resources/DB.BMP,Door1,-0.17796379,-0.002241443,1,0,0,1.0815,optionLeft,30,7985,4,25,0,25,0,1,,,,,,,,,,,,,,,,,,,,,,,,,,,,,,,,,,,,,,,
,,,,,,,,2023-08-16_08h57.02.719,HF_wild_card,2022.2.4,MacIntel,59.99520038,644016f38da1a099aac38389,64d2fd46c836a06233681665,64dc814282870d3189c49354,,,,,,,decisionTrl,resources/DY.BMP,resources/DP.BMP,WildCard_NonEx,-0.273583209,-0.00827753,1,0,0,0.696,optionLeft,45,8030,4,26,0,26,0,1,,,,,,,,,,,,,,,,,,,,,,,,,,,,,,,,,,,,,,,
,,,,,,,,2023-08-16_08h57.02.719,HF_wild_card,2022.2.4,MacIntel,59.99520038,644016f38da1a099aac38389,64d2fd46c836a06233681665,64dc814282870d3189c49354,,,,,,,sngl,resources/Empty.png,resources/DY.BMP,WildCard_NonEx,0.236848958,-0.02312128,1,0,0,0.6297,optionRight,55,8085,4,27,0,27,0,1,,,,,,,,,,,,,,,,,,,,,,,,,,,,,,,,,,,,,,,
,,,,,,,,2023-08-16_08h57.02.719,HF_wild_card,2022.2.4,MacIntel,59.99520038,644016f38da1a099aac38389,64d2fd46c836a06233681665,64dc814282870d3189c49354,,,,,,,ctch,resources/DP.BMP,resources/DG.BMP,Door3,0.274274554,-0.020362103,1,0,0,0.6839,optionRight,70,8155,4,28,0,28,0,1,,,,,,,,,,,,,,,,,,,,,,,,,,,,,,,,,,,,,,,
,,,,,,,,2023-08-16_08h57.02.719,HF_wild_card,2022.2.4,MacIntel,59.99520038,644016f38da1a099aac38389,64d2fd46c836a06233681665,64dc814282870d3189c49354,,,,,,,ctch,resources/DB.BMP,resources/DR.BMP,Door1,0.126054067,0.009312996,1,0,0,0.7134,optionRight,30,8185,4,29,0,29,0,1,,,,,,,,,,,,,,,,,,,,,,,,,,,,,,,,,,,,,,,
,,,,,,,,2023-08-16_08h57.02.719,HF_wild_card,2022.2.4,MacIntel,59.99520038,644016f38da1a099aac38389,64d2fd46c836a06233681665,64dc814282870d3189c49354,,,,,,,sngl,resources/DR.BMP,resources/Empty.png,Door1,-0.121478175,-0.000505332,1,0,0,0.4833,optionLeft,30,8215,4,30,0,30,0,1,,,,,,,,,,,,,,,,,,,,,,,,,,,,,,,,,,,,,,,
,,,,,,,,2023-08-16_08h57.02.719,HF_wild_card,2022.2.4,MacIntel,59.99520038,644016f38da1a099aac38389,64d2fd46c836a06233681665,64dc814282870d3189c49354,,,,,,,decisionTrl,resources/DY.BMP,resources/DG.BMP,Door3,0.18578559,-0.000716146,1,0,0,0.5153,optionRight,70,8285,4,31,0,31,0,1,,,,,,,,,,,,,,,,,,,,,,,,,,,,,,,,,,,,,,,
,,,,,,,,2023-08-16_08h57.02.719,HF_wild_card,2022.2.4,MacIntel,59.99520038,644016f38da1a099aac38389,64d2fd46c836a06233681665,64dc814282870d3189c49354,,,,,,,ctch,resources/DP.BMP,resources/DG.BMP,Door3,0.134505208,0.013216146,1,0,0,0.5947,optionRight,70,8355,4,32,0,32,0,1,,,,,,,,,,,,,,,,,,,,,,,,,,,,,,,,,,,,,,,
,,,,,,,,2023-08-16_08h57.02.719,HF_wild_card,2022.2.4,MacIntel,59.99520038,644016f38da1a099aac38389,64d2fd46c836a06233681665,64dc814282870d3189c49354,,,,,,,decisionTrl,resources/DP.BMP,resources/DR.BMP,Door2,-0.13202815,0.005248636,1,0,0,0.829,optionLeft,40,8395,4,33,0,33,0,1,,,,,,,,,,,,,,,,,,,,,,,,,,,,,,,,,,,,,,,
,,,,,,,,2023-08-16_08h57.02.719,HF_wild_card,2022.2.4,MacIntel,59.99520038,644016f38da1a099aac38389,64d2fd46c836a06233681665,64dc814282870d3189c49354,,,,,,,sngl,resources/Empty.png,resources/DY.BMP,WildCard_NonEx,0.199956597,-0.002573165,1,0,0,0.5434,optionRight,45,8440,4,34,0,34,0,1,,,,,,,,,,,,,,,,,,,,,,,,,,,,,,,,,,,,,,,
,,,,,,,,2023-08-16_08h57.02.719,HF_wild_card,2022.2.4,MacIntel,59.99520038,644016f38da1a099aac38389,64d2fd46c836a06233681665,64dc814282870d3189c49354,,,,,,,ctch,resources/DG.BMP,resources/DP.BMP,Door3,-0.189446925,0.014555432,1,0,0,1.0157,optionLeft,70,8510,4,35,0,35,0,1,,,,,,,,,,,,,,,,,,,,,,,,,,,,,,,,,,,,,,,
,,,,,,,,2023-08-16_08h57.02.719,HF_wild_card,2022.2.4,MacIntel,59.99520038,644016f38da1a099aac38389,64d2fd46c836a06233681665,64dc814282870d3189c49354,,,,,,,decisionTrl,resources/DP.BMP,resources/DY.BMP,WildCard_NonEx,0.177291047,0.012862723,1,0,0,1.249,optionRight,55,8565,4,36,0,36,0,1,,,,,,,,,,,,,,,,,,,,,,,,,,,,,,,,,,,,,,,
,,,,,,,,2023-08-16_08h57.02.719,HF_wild_card,2022.2.4,MacIntel,59.99520038,644016f38da1a099aac38389,64d2fd46c836a06233681665,64dc814282870d3189c49354,,,,,,,decisionTrl,resources/DR.BMP,resources/DY.BMP,WildCard_NonEx,0.176915923,0.010562376,1,0,0,0.5157,optionRight,55,8620,4,37,0,37,0,1,,,,,,,,,,,,,,,,,,,,,,,,,,,,,,,,,,,,,,,
,,,,,,,,2023-08-16_08h57.02.719,HF_wild_card,2022.2.4,MacIntel,59.99520038,644016f38da1a099aac38389,64d2fd46c836a06233681665,64dc814282870d3189c49354,,,,,,,decisionTrl,resources/DB.BMP,resources/DY.BMP,WildCard_NonEx,0.10422247,0.006079489,1,0,0,0.4107,optionRight,45,8665,4,38,0,38,0,1,,,,,,,,,,,,,,,,,,,,,,,,,,,,,,,,,,,,,,,
,,,,,,,,2023-08-16_08h57.02.719,HF_wild_card,2022.2.4,MacIntel,59.99520038,644016f38da1a099aac38389,64d2fd46c836a06233681665,64dc814282870d3189c49354,,,,,,,decisionTrl,resources/DG.BMP,resources/DB.BMP,Door3,-0.147439236,0.000102307,1,0,0,0.661,optionLeft,70,8735,4,39,0,39,0,1,,,,,,,,,,,,,,,,,,,,,,,,,,,,,,,,,,,,,,,
,,,,,,,,2023-08-16_08h57.02.719,HF_wild_card,2022.2.4,MacIntel,59.99520038,644016f38da1a099aac38389,64d2fd46c836a06233681665,64dc814282870d3189c49354,,,,,,,decisionTrl,resources/DR.BMP,resources/DP.BMP,Door2,0.123266989,-0.008032614,1,0,0,0.7796,optionRight,20,8755,4,40,0,40,0,1,,,,,,,,,,,,,,,,,,,,,,,,,,,,,,,,,,,,,,,
,,,,,,,,2023-08-16_08h57.02.719,HF_wild_card,2022.2.4,MacIntel,59.99520038,644016f38da1a099aac38389,64d2fd46c836a06233681665,64dc814282870d3189c49354,,,,,,,sngl,resources/Empty.png,resources/DB.BMP,Door4,0.146022445,-0.015488591,1,0,0,0.5505,optionRight,80,8835,4,41,0,41,0,1,,,,,,,,,,,,,,,,,,,,,,,,,,,,,,,,,,,,,,,
,,,,,,,,2023-08-16_08h57.02.719,HF_wild_card,2022.2.4,MacIntel,59.99520038,644016f38da1a099aac38389,64d2fd46c836a06233681665,64dc814282870d3189c49354,,,,,,,decisionTrl,resources/DR.BMP,resources/DP.BMP,Door2,0.197823661,-0.021072049,1,0,0,0.7967,optionRight,40,8875,4,42,0,42,0,1,,,,,,,,,,,,,,,,,,,,,,,,,,,,,,,,,,,,,,,
,,,,,,,,2023-08-16_08h57.02.719,HF_wild_card,2022.2.4,MacIntel,59.99520038,644016f38da1a099aac38389,64d2fd46c836a06233681665,64dc814282870d3189c49354,,,,,,,decisionTrl,resources/DG.BMP,resources/DY.BMP,WildCard_NonEx,0.105254836,-0.00969122,1,0,0,1.1934,optionRight,55,8930,4,43,0,43,0,1,,,,,,,,,,,,,,,,,,,,,,,,,,,,,,,,,,,,,,,
,,,,,,,,2023-08-16_08h57.02.719,HF_wild_card,2022.2.4,MacIntel,59.99520038,644016f38da1a099aac38389,64d2fd46c836a06233681665,64dc814282870d3189c49354,,,,,,,,,,,,,,,,,,,,,,,,,,3,0,3,0,1,,,,,,,,,,,,,,,,,,,,,,,,,,,,,,,,,,
,,,,,,,,2023-08-16_08h57.02.719,HF_wild_card,2022.2.4,MacIntel,59.99520038,644016f38da1a099aac38389,64d2fd46c836a06233681665,64dc814282870d3189c49354,,,,,,,ctch,resources/DB.BMP,resources/DR.BMP,Door4,-0.154985119,-0.046422371,1,0,0,0.8478,optionLeft,80,9010,5,0,0,0,0,1,,,,,,,,,,,,,,,,,,,,,,,,,,,,,,,,,,,,,,,
,,,,,,,,2023-08-16_08h57.02.719,HF_wild_card,2022.2.4,MacIntel,59.99520038,644016f38da1a099aac38389,64d2fd46c836a06233681665,64dc814282870d3189c49354,,,,,,,decisionTrl,resources/DR.BMP,resources/DP.BMP,Door2,0.015925719,-0.02311818,1,0,0,0.4484,optionRight,20,9030,5,1,0,1,0,1,,,,,,,,,,,,,,,,,,,,,,,,,,,,,,,,,,,,,,,
,,,,,,,,2023-08-16_08h57.02.719,HF_wild_card,2022.2.4,MacIntel,59.99520038,644016f38da1a099aac38389,64d2fd46c836a06233681665,64dc814282870d3189c49354,,,,,,,decisionTrl,resources/DG.BMP,resources/DB.BMP,Door4,0.167934648,-0.002331349,1,0,0,0.7148,optionRight,80,9110,5,2,0,2,0,1,,,,,,,,,,,,,,,,,,,,,,,,,,,,,,,,,,,,,,,
,,,,,,,,2023-08-16_08h57.02.719,HF_wild_card,2022.2.4,MacIntel,59.99520038,644016f38da1a099aac38389,64d2fd46c836a06233681665,64dc814282870d3189c49354,,,,,,,ctch,resources/DP.BMP,resources/DG.BMP,Door3,0.19625496,-0.00219184,1,0,0,0.6481,optionRight,70,9180,5,3,0,3,0,1,,,,,,,,,,,,,,,,,,,,,,,,,,,,,,,,,,,,,,,
,,,,,,,,2023-08-16_08h57.02.719,HF_wild_card,2022.2.4,MacIntel,59.99520038,644016f38da1a099aac38389,64d2fd46c836a06233681665,64dc814282870d3189c49354,,,,,,,decisionTrl,resources/DB.BMP,resources/DG.BMP,Door4,-0.128348214,0.00828373,1,0,0,0.7305,optionLeft,60,9240,5,4,0,4,0,1,,,,,,,,,,,,,,,,,,,,,,,,,,,,,,,,,,,,,,,
,,,,,,,,2023-08-16_08h57.02.719,HF_wild_card,2022.2.4,MacIntel,59.99520038,644016f38da1a099aac38389,64d2fd46c836a06233681665,64dc814282870d3189c49354,,,,,,,ctch,resources/DR.BMP,resources/DB.BMP,Door4,0.233562748,-0.005772569,1,0,0,0.5313,optionRight,80,9320,5,5,0,5,0,1,,,,,,,,,,,,,,,,,,,,,,,,,,,,,,,,,,,,,,,
,,,,,,,,2023-08-16_08h57.02.719,HF_wild_card,2022.2.4,MacIntel,59.99520038,644016f38da1a099aac38389,64d2fd46c836a06233681665,64dc814282870d3189c49354,,,,,,,decisionTrl,resources/DG.BMP,resources/DY.BMP,WildCard_NonEx,0.204005456,-0.019295635,1,0,0,0.6291,optionRight,55,9375,5,6,0,6,0,1,,,,,,,,,,,,,,,,,,,,,,,,,,,,,,,,,,,,,,,
,,,,,,,,2023-08-16_08h57.02.719,HF_wild_card,2022.2.4,MacIntel,59.99520038,644016f38da1a099aac38389,64d2fd46c836a06233681665,64dc814282870d3189c49354,,,,,,,decisionTrl,resources/DR.BMP,resources/DP.BMP,Door2,0.165739707,-0.010667783,1,0,0,1.0137,optionRight,20,9395,5,7,0,7,0,1,,,,,,,,,,,,,,,,,,,,,,,,,,,,,,,,,,,,,,,
,,,,,,,,2023-08-16_08h57.02.719,HF_wild_card,2022.2.4,MacIntel,59.99520038,644016f38da1a099aac38389,64d2fd46c836a06233681665,64dc814282870d3189c49354,,,,,,,decisionTrl,resources/DP.BMP,resources/DR.BMP,Door1,0.177681672,-0.007062252,1,0,0,0.7145,optionRight,30,9425,5,8,0,8,0,1,,,,,,,,,,,,,,,,,,,,,,,,,,,,,,,,,,,,,,,
,,,,,,,,2023-08-16_08h57.02.719,HF_wild_card,2022.2.4,MacIntel,59.99520038,644016f38da1a099aac38389,64d2fd46c836a06233681665,64dc814282870d3189c49354,,,,,,,ctch,resources/DG.BMP,resources/DP.BMP,Door3,-0.180248636,0.007149058,1,0,0,0.6793,optionLeft,70,9495,5,9,0,9,0,1,,,,,,,,,,,,,,,,,,,,,,,,,,,,,,,,,,,,,,,
,,,,,,,,2023-08-16_08h57.02.719,HF_wild_card,2022.2.4,MacIntel,59.99520038,644016f38da1a099aac38389,64d2fd46c836a06233681665,64dc814282870d3189c49354,,,,,,,decisionTrl,resources/DB.BMP,resources/DY.BMP,WildCard_NonEx,0.110605779,-0.005009921,1,0,0,0.5812,optionRight,45,9540,5,10,0,10,0,1,,,,,,,,,,,,,,,,,,,,,,,,,,,,,,,,,,,,,,,
,,,,,,,,2023-08-16_08h57.02.719,HF_wild_card,2022.2.4,MacIntel,59.99520038,644016f38da1a099aac38389,64d2fd46c836a06233681665,64dc814282870d3189c49354,,,,,,,decisionTrl,resources/DB.BMP,resources/DG.BMP,Door4,-0.149429563,0.008088418,1,0,0,0.5481,optionLeft,60,9600,5,11,0,11,0,1,,,,,,,,,,,,,,,,,,,,,,,,,,,,,,,,,,,,,,,
,,,,,,,,2023-08-16_08h57.02.719,HF_wild_card,2022.2.4,MacIntel,59.99520038,644016f38da1a099aac38389,64d2fd46c836a06233681665,64dc814282870d3189c49354,,,,,,,ctch,resources/DR.BMP,resources/DB.BMP,Door4,0.115187872,0.007452877,1,0,0,0.5641,optionRight,60,9660,5,12,0,12,0,1,,,,,,,,,,,,,,,,,,,,,,,,,,,,,,,,,,,,,,,
,,,,,,,,2023-08-16_08h57.02.719,HF_wild_card,2022.2.4,MacIntel,59.99520038,644016f38da1a099aac38389,64d2fd46c836a06233681665,64dc814282870d3189c49354,,,,,,,sngl,resources/DP.BMP,resources/Empty.png,Door2,-0.121971106,0.020216394,1,0,0,0.6318,optionLeft,40,9700,5,13,0,13,0,1,,,,,,,,,,,,,,,,,,,,,,,,,,,,,,,,,,,,,,,
,,,,,,,,2023-08-16_08h57.02.719,HF_wild_card,2022.2.4,MacIntel,59.99520038,644016f38da1a099aac38389,64d2fd46c836a06233681665,64dc814282870d3189c49354,,,,,,,decisionTrl,resources/DY.BMP,resources/DG.BMP,Door3,0.157049851,0.000424727,1,0,0,0.5309,optionRight,70,9770,5,14,0,14,0,1,,,,,,,,,,,,,,,,,,,,,,,,,,,,,,,,,,,,,,,
,,,,,,,,2023-08-16_08h57.02.719,HF_wild_card,2022.2.4,MacIntel,59.99520038,644016f38da1a099aac38389,64d2fd46c836a06233681665,64dc814282870d3189c49354,,,,,,,ctch,resources/DB.BMP,resources/DR.BMP,Door4,-0.356467014,0.046372768,1,0,0,0.8323,optionLeft,80,9850,5,15,0,15,0,1,,,,,,,,,,,,,,,,,,,,,,,,,,,,,,,,,,,,,,,
,,,,,,,,2023-08-16_08h57.02.719,HF_wild_card,2022.2.4,MacIntel,59.99520038,644016f38da1a099aac38389,64d2fd46c836a06233681665,64dc814282870d3189c49354,,,,,,,decisionTrl,resources/DB.BMP,resources/DG.BMP,Door4,-0.204051959,0.019884673,1,0,0,1.0988,optionLeft,80,9930,5,16,0,16,0,1,,,,,,,,,,,,,,,,,,,,,,,,,,,,,,,,,,,,,,,
,,,,,,,,2023-08-16_08h57.02.719,HF_wild_card,2022.2.4,MacIntel,59.99520038,644016f38da1a099aac38389,64d2fd46c836a06233681665,64dc814282870d3189c49354,,,,,,,sngl,resources/DG.BMP,resources/Empty.png,Door3,-0.10578497,0.009557912,1,0,0,0.4622,optionLeft,70,10000,5,17,0,17,0,1,,,,,,,,,,,,,,,,,,,,,,,,,,,,,,,,,,,,,,,
,,,,,,,,2023-08-16_08h57.02.719,HF_wild_card,2022.2.4,MacIntel,59.99520038,644016f38da1a099aac38389,64d2fd46c836a06233681665,64dc814282870d3189c49354,,,,,,,decisionTrl,resources/DR.BMP,resources/DY.BMP,WildCard_NonEx,0.217872644,-0.016303943,1,0,0,1.0304,optionRight,45,10045,5,18,0,18,0,1,,,,,,,,,,,,,,,,,,,,,,,,,,,,,,,,,,,,,,,
,,,,,,,,2023-08-16_08h57.02.719,HF_wild_card,2022.2.4,MacIntel,59.99520038,644016f38da1a099aac38389,64d2fd46c836a06233681665,64dc814282870d3189c49354,,,,,,,sngl,resources/DB.BMP,resources/Empty.png,Door4,-0.099866691,0.01062748,1,0,0,0.5807,optionLeft,80,10125,5,19,0,19,0,1,,,,,,,,,,,,,,,,,,,,,,,,,,,,,,,,,,,,,,,
,,,,,,,,2023-08-16_08h57.02.719,HF_wild_card,2022.2.4,MacIntel,59.99520038,644016f38da1a099aac38389,64d2fd46c836a06233681665,64dc814282870d3189c49354,,,,,,,sngl,resources/DY.BMP,resources/Empty.png,WildCard_NonEx,-0.136889261,0.01327505,1,0,0,0.4987,optionLeft,55,10180,5,20,0,20,0,1,,,,,,,,,,,,,,,,,,,,,,,,,,,,,,,,,,,,,,,
,,,,,,,,2023-08-16_08h57.02.719,HF_wild_card,2022.2.4,MacIntel,59.99520038,644016f38da1a099aac38389,64d2fd46c836a06233681665,64dc814282870d3189c49354,,,,,,,decisionTrl,resources/DR.BMP,resources/DP.BMP,Door1,-0.204439484,0.016657366,1,0,0,2.3664,optionLeft,30,10210,5,21,0,21,0,1,,,,,,,,,,,,,,,,,,,,,,,,,,,,,,,,,,,,,,,
,,,,,,,,2023-08-16_08h57.02.719,HF_wild_card,2022.2.4,MacIntel,59.99520038,644016f38da1a099aac38389,64d2fd46c836a06233681665,64dc814282870d3189c49354,,,,,,,sngl,resources/Empty.png,resources/DR.BMP,Door1,0.145855035,-0.016744172,1,0,0,0.547,optionRight,30,10240,5,22,0,22,0,1,,,,,,,,,,,,,,,,,,,,,,,,,,,,,,,,,,,,,,,
,,,,,,,,2023-08-16_08h57.02.719,HF_wild_card,2022.2.4,MacIntel,59.99520038,644016f38da1a099aac38389,64d2fd46c836a06233681665,64dc814282870d3189c49354,,,,,,,sngl,resources/Empty.png,resources/DB.BMP,Door4,0.192587426,-0.000325521,1,0,0,0.5468,optionRight,60,10300,5,23,0,23,0,1,,,,,,,,,,,,,,,,,,,,,,,,,,,,,,,,,,,,,,,
,,,,,,,,2023-08-16_08h57.02.719,HF_wild_card,2022.2.4,MacIntel,59.99520038,644016f38da1a099aac38389,64d2fd46c836a06233681665,64dc814282870d3189c49354,,,,,,,sngl,resources/Empty.png,resources/DY.BMP,WildCard_NonEx,0.111387029,0.004703001,1,0,0,0.4669,optionRight,45,10345,5,24,0,24,0,1,,,,,,,,,,,,,,,,,,,,,,,,,,,,,,,,,,,,,,,
,,,,,,,,2023-08-16_08h57.02.719,HF_wild_card,2022.2.4,MacIntel,59.99520038,644016f38da1a099aac38389,64d2fd46c836a06233681665,64dc814282870d3189c49354,,,,,,,decisionTrl,resources/DB.BMP,resources/DG.BMP,Door3,0.138321553,-0.000337922,1,0,0,0.7317,optionRight,70,10415,5,25,0,25,0,1,,,,,,,,,,,,,,,,,,,,,,,,,,,,,,,,,,,,,,,
,,,,,,,,2023-08-16_08h57.02.719,HF_wild_card,2022.2.4,MacIntel,59.99520038,644016f38da1a099aac38389,64d2fd46c836a06233681665,64dc814282870d3189c49354,,,,,,,sngl,resources/Empty.png,resources/DP.BMP,Door2,0.105605159,-0.004120164,1,0,0,0.4614,optionRight,20,10435,5,26,0,26,0,1,,,,,,,,,,,,,,,,,,,,,,,,,,,,,,,,,,,,,,,
,,,,,,,,2023-08-16_08h57.02.719,HF_wild_card,2022.2.4,MacIntel,59.99520038,644016f38da1a099aac38389,64d2fd46c836a06233681665,64dc814282870d3189c49354,,,,,,,sngl,resources/Empty.png,resources/DG.BMP,Door3,0.11187376,-0.005419147,1,0,0,0.5465,optionRight,70,10505,5,27,0,27,0,1,,,,,,,,,,,,,,,,,,,,,,,,,,,,,,,,,,,,,,,
,,,,,,,,2023-08-16_08h57.02.719,HF_wild_card,2022.2.4,MacIntel,59.99520038,644016f38da1a099aac38389,64d2fd46c836a06233681665,64dc814282870d3189c49354,,,,,,,decisionTrl,resources/DP.BMP,resources/DR.BMP,Door2,-0.100065104,-0.000840154,1,0,0,0.6613,optionLeft,20,10525,5,28,0,28,0,1,,,,,,,,,,,,,,,,,,,,,,,,,,,,,,,,,,,,,,,
,,,,,,,,2023-08-16_08h57.02.719,HF_wild_card,2022.2.4,MacIntel,59.99520038,644016f38da1a099aac38389,64d2fd46c836a06233681665,64dc814282870d3189c49354,,,,,,,decisionTrl,resources/DR.BMP,resources/DP.BMP,Door1,-0.176590402,0.00219184,1,0,0,0.6144,optionLeft,30,10555,5,29,0,29,0,1,,,,,,,,,,,,,,,,,,,,,,,,,,,,,,,,,,,,,,,
,,,,,,,,2023-08-16_08h57.02.719,HF_wild_card,2022.2.4,MacIntel,59.99520038,644016f38da1a099aac38389,64d2fd46c836a06233681665,64dc814282870d3189c49354,,,,,,,decisionTrl,resources/DG.BMP,resources/DB.BMP,Door3,-0.113051835,-0.013386657,1,0,0,0.8802,optionLeft,70,10625,5,30,0,30,0,1,,,,,,,,,,,,,,,,,,,,,,,,,,,,,,,,,,,,,,,
,,,,,,,,2023-08-16_08h57.02.719,HF_wild_card,2022.2.4,MacIntel,59.99520038,644016f38da1a099aac38389,64d2fd46c836a06233681665,64dc814282870d3189c49354,,,,,,,decisionTrl,resources/DP.BMP,resources/DY.BMP,WildCard_NonEx,0.115857515,-0.020839534,1,0,0,1.2673,optionRight,45,10670,5,31,0,31,0,1,,,,,,,,,,,,,,,,,,,,,,,,,,,,,,,,,,,,,,,
,,,,,,,,2023-08-16_08h57.02.719,HF_wild_card,2022.2.4,MacIntel,59.99520038,644016f38da1a099aac38389,64d2fd46c836a06233681665,64dc814282870d3189c49354,,,,,,,decisionTrl,resources/DY.BMP,resources/DR.BMP,WildCard_NonEx,-0.132995412,-0.005921379,1,0,0,0.7807,optionLeft,45,10715,5,32,0,32,0,1,,,,,,,,,,,,,,,,,,,,,,,,,,,,,,,,,,,,,,,
,,,,,,,,2023-08-16_08h57.02.719,HF_wild_card,2022.2.4,MacIntel,59.99520038,644016f38da1a099aac38389,64d2fd46c836a06233681665,64dc814282870d3189c49354,,,,,,,sngl,resources/DR.BMP,resources/Empty.png,Door1,-0.156026786,0.001640005,1,0,0,0.6285,optionLeft,30,10745,5,33,0,33,0,1,,,,,,,,,,,,,,,,,,,,,,,,,,,,,,,,,,,,,,,
,,,,,,,,2023-08-16_08h57.02.719,HF_wild_card,2022.2.4,MacIntel,59.99520038,644016f38da1a099aac38389,64d2fd46c836a06233681665,64dc814282870d3189c49354,,,,,,,decisionTrl,resources/DG.BMP,resources/DB.BMP,Door4,0.163309152,-0.014546131,1,0,0,0.9137,optionRight,60,10805,5,34,0,34,0,1,,,,,,,,,,,,,,,,,,,,,,,,,,,,,,,,,,,,,,,
,,,,,,,,2023-08-16_08h57.02.719,HF_wild_card,2022.2.4,MacIntel,59.99520038,644016f38da1a099aac38389,64d2fd46c836a06233681665,64dc814282870d3189c49354,,,,,,,decisionTrl,resources/DG.BMP,resources/DB.BMP,Door3,-0.160128348,0.007573785,1,0,0,0.5613,optionLeft,70,10875,5,35,0,35,0,1,,,,,,,,,,,,,,,,,,,,,,,,,,,,,,,,,,,,,,,
,,,,,,,,2023-08-16_08h57.02.719,HF_wild_card,2022.2.4,MacIntel,59.99520038,644016f38da1a099aac38389,64d2fd46c836a06233681665,64dc814282870d3189c49354,,,,,,,ctch,resources/DP.BMP,resources/DG.BMP,Door3,0.15656312,0.002672371,1,0,0,0.5771,optionRight,70,10945,5,36,0,36,0,1,,,,,,,,,,,,,,,,,,,,,,,,,,,,,,,,,,,,,,,
,,,,,,,,2023-08-16_08h57.02.719,HF_wild_card,2022.2.4,MacIntel,59.99520038,644016f38da1a099aac38389,64d2fd46c836a06233681665,64dc814282870d3189c49354,,,,,,,sngl,resources/DY.BMP,resources/Empty.png,WildCard_NonEx,-0.15125248,0.010894097,1,0,0,0.6285,optionLeft,45,10990,5,37,0,37,0,1,,,,,,,,,,,,,,,,,,,,,,,,,,,,,,,,,,,,,,,
,,,,,,,,2023-08-16_08h57.02.719,HF_wild_card,2022.2.4,MacIntel,59.99520038,644016f38da1a099aac38389,64d2fd46c836a06233681665,64dc814282870d3189c49354,,,,,,,decisionTrl,resources/DP.BMP,resources/DR.BMP,Door2,-0.137537202,0.005986483,1,0,0,0.613,optionLeft,40,11030,5,38,0,38,0,1,,,,,,,,,,,,,,,,,,,,,,,,,,,,,,,,,,,,,,,
,,,,,,,,2023-08-16_08h57.02.719,HF_wild_card,2022.2.4,MacIntel,59.99520038,644016f38da1a099aac38389,64d2fd46c836a06233681665,64dc814282870d3189c49354,,,,,,,ctch,resources/DG.BMP,resources/DP.BMP,Door3,-0.206994048,0.012726314,1,0,0,2.3149,optionLeft,70,11100,5,39,0,39,0,1,,,,,,,,,,,,,,,,,,,,,,,,,,,,,,,,,,,,,,,
,,,,,,,,2023-08-16_08h57.02.719,HF_wild_card,2022.2.4,MacIntel,59.99520038,644016f38da1a099aac38389,64d2fd46c836a06233681665,64dc814282870d3189c49354,,,,,,,decisionTrl,resources/DP.BMP,resources/DR.BMP,Door2,-0.14766245,0.022767857,1,0,0,0.7159,optionLeft,20,11120,5,40,0,40,0,1,,,,,,,,,,,,,,,,,,,,,,,,,,,,,,,,,,,,,,,
,,,,,,,,2023-08-16_08h57.02.719,HF_wild_card,2022.2.4,MacIntel,59.99520038,644016f38da1a099aac38389,64d2fd46c836a06233681665,64dc814282870d3189c49354,,,,,,,decisionTrl,resources/DY.BMP,resources/DP.BMP,WildCard_NonEx,-0.133770461,0.017463418,1,0,0,0.7293,optionLeft,45,11165,5,41,0,41,0,1,,,,,,,,,,,,,,,,,,,,,,,,,,,,,,,,,,,,,,,
,,,,,,,,2023-08-16_08h57.02.719,HF_wild_card,2022.2.4,MacIntel,59.99520038,644016f38da1a099aac38389,64d2fd46c836a06233681665,64dc814282870d3189c49354,,,,,,,decisionTrl,resources/DY.BMP,resources/DB.BMP,Door4,0.148350694,0.002145337,1,0,0,1.5476,optionRight,80,11245,5,42,0,42,0,1,,,,,,,,,,,,,,,,,,,,,,,,,,,,,,,,,,,,,,,
,,,,,,,,2023-08-16_08h57.02.719,HF_wild_card,2022.2.4,MacIntel,59.99520038,644016f38da1a099aac38389,64d2fd46c836a06233681665,64dc814282870d3189c49354,,,,,,,sngl,resources/Empty.png,resources/DY.BMP,WildCard_NonEx,0.214787946,-0.004703001,1,0,0,0.5146,optionRight,55,11300,5,43,0,43,0,1,,,,,,,,,,,,,,,,,,,,,,,,,,,,,,,,,,,,,,,
,,,,,,,,2023-08-16_08h57.02.719,HF_wild_card,2022.2.4,MacIntel,59.99520038,644016f38da1a099aac38389,64d2fd46c836a06233681665,64dc814282870d3189c49354,,,,,,,,,,,,,,,,,,,,,,,,,,4,0,4,0,1,,,,,,,,,,,,,,,,,,,,,,,,,,,,,,,,,,
,,,,,,,,2023-08-16_08h57.02.719,HF_wild_card,2022.2.4,MacIntel,59.99520038,644016f38da1a099aac38389,64d2fd46c836a06233681665,64dc814282870d3189c49354,,,,,,,decisionTrl,resources/DY.BMP,resources/DR.BMP,WildCard_NonEx,-0.171651786,-0.048530506,1,0,0,0.7951,optionLeft,55,11355,6,0,0,0,0,1,,,,,,,,,,,,,,,,,,,,,,,,,,,,,,,,,,,,,,,
,,,,,,,,2023-08-16_08h57.02.719,HF_wild_card,2022.2.4,MacIntel,59.99520038,644016f38da1a099aac38389,64d2fd46c836a06233681665,64dc814282870d3189c49354,,,,,,,decisionTrl,resources/DR.BMP,resources/DP.BMP,Door1,-0.236659846,-0.000257316,1,0,0,0.7332,optionLeft,30,11385,6,1,0,1,0,1,,,,,,,,,,,,,,,,,,,,,,,,,,,,,,,,,,,,,,,
,,,,,,,,2023-08-16_08h57.02.719,HF_wild_card,2022.2.4,MacIntel,59.99520038,644016f38da1a099aac38389,64d2fd46c836a06233681665,64dc814282870d3189c49354,,,,,,,ctch,resources/DR.BMP,resources/DB.BMP,Door4,0.077842882,0.005645461,1,0,0,0.4455,optionRight,60,11445,6,2,0,2,0,1,,,,,,,,,,,,,,,,,,,,,,,,,,,,,,,,,,,,,,,
,,,,,,,,2023-08-16_08h57.02.719,HF_wild_card,2022.2.4,MacIntel,59.99520038,644016f38da1a099aac38389,64d2fd46c836a06233681665,64dc814282870d3189c49354,,,,,,,sngl,resources/DY.BMP,resources/Empty.png,WildCard_NonEx,-0.122116815,0.007449777,1,0,0,0.5653,optionLeft,45,11490,6,3,0,3,0,1,,,,,,,,,,,,,,,,,,,,,,,,,,,,,,,,,,,,,,,
,,,,,,,,2023-08-16_08h57.02.719,HF_wild_card,2022.2.4,MacIntel,59.99520038,644016f38da1a099aac38389,64d2fd46c836a06233681665,64dc814282870d3189c49354,,,,,,,decisionTrl,resources/DP.BMP,resources/DY.BMP,Door2,-0.171819196,0.002442956,1,0,0,1.0481,optionLeft,20,11510,6,4,0,4,0,1,,,,,,,,,,,,,,,,,,,,,,,,,,,,,,,,,,,,,,,
,,,,,,,,2023-08-16_08h57.02.719,HF_wild_card,2022.2.4,MacIntel,59.99520038,644016f38da1a099aac38389,64d2fd46c836a06233681665,64dc814282870d3189c49354,,,,,,,sngl,resources/DR.BMP,resources/Empty.png,Door1,-0.152895585,0.006522817,1,0,0,0.8464,optionLeft,30,11540,6,5,0,5,0,1,,,,,,,,,,,,,,,,,,,,,,,,,,,,,,,,,,,,,,,
,,,,,,,,2023-08-16_08h57.02.719,HF_wild_card,2022.2.4,MacIntel,59.99520038,644016f38da1a099aac38389,64d2fd46c836a06233681665,64dc814282870d3189c49354,,,,,,,ctch,resources/DR.BMP,resources/DB.BMP,Door4,0.193523686,-0.002272445,1,0,0,0.8319,optionRight,60,11600,6,6,0,6,0,1,,,,,,,,,,,,,,,,,,,,,,,,,,,,,,,,,,,,,,,
,,,,,,,,2023-08-16_08h57.02.719,HF_wild_card,2022.2.4,MacIntel,59.99520038,644016f38da1a099aac38389,64d2fd46c836a06233681665,64dc814282870d3189c49354,,,,,,,decisionTrl,resources/DG.BMP,resources/DB.BMP,Door3,-0.216418651,0.028720238,1,0,0,0.7832,optionLeft,70,11670,6,7,0,7,0,1,,,,,,,,,,,,,,,,,,,,,,,,,,,,,,,,,,,,,,,
,,,,,,,,2023-08-16_08h57.02.719,HF_wild_card,2022.2.4,MacIntel,59.99520038,644016f38da1a099aac38389,64d2fd46c836a06233681665,64dc814282870d3189c49354,,,,,,,decisionTrl,resources/DP.BMP,resources/DR.BMP,Door1,0.132821801,0.006327505,1,0,0,0.7643,optionRight,30,11700,6,8,0,8,0,1,,,,,,,,,,,,,,,,,,,,,,,,,,,,,,,,,,,,,,,
,,,,,,,,2023-08-16_08h57.02.719,HF_wild_card,2022.2.4,MacIntel,59.99520038,644016f38da1a099aac38389,64d2fd46c836a06233681665,64dc814282870d3189c49354,,,,,,,sngl,resources/DP.BMP,resources/Empty.png,Door2,-0.145566716,0.015600198,1,0,0,0.614,optionLeft,20,11720,6,9,0,9,0,1,,,,,,,,,,,,,,,,,,,,,,,,,,,,,,,,,,,,,,,
,,,,,,,,2023-08-16_08h57.02.719,HF_wild_card,2022.2.4,MacIntel,59.99520038,644016f38da1a099aac38389,64d2fd46c836a06233681665,64dc814282870d3189c49354,,,,,,,sngl,resources/Empty.png,resources/DG.BMP,Door3,0.211418031,0.00499752,1,0,0,0.5807,optionRight,70,11790,6,10,0,10,0,1,,,,,,,,,,,,,,,,,,,,,,,,,,,,,,,,,,,,,,,
,,,,,,,,2023-08-16_08h57.02.719,HF_wild_card,2022.2.4,MacIntel,59.99520038,644016f38da1a099aac38389,64d2fd46c836a06233681665,64dc814282870d3189c49354,,,,,,,ctch,resources/DP.BMP,resources/DG.BMP,Door3,0.206110491,-0.016145833,1,0,0,1.8157,optionRight,70,11860,6,11,0,11,0,1,,,,,,,,,,,,,,,,,,,,,,,,,,,,,,,,,,,,,,,
,,,,,,,,2023-08-16_08h57.02.719,HF_wild_card,2022.2.4,MacIntel,59.99520038,644016f38da1a099aac38389,64d2fd46c836a06233681665,64dc814282870d3189c49354,,,,,,,decisionTrl,resources/DB.BMP,resources/DG.BMP,Door4,-0.389710441,-0.020213294,1,0,0,1.4479,optionLeft,80,11940,6,12,0,12,0,1,,,,,,,,,,,,,,,,,,,,,,,,,,,,,,,,,,,,,,,
,,,,,,,,2023-08-16_08h57.02.719,HF_wild_card,2022.2.4,MacIntel,59.99520038,644016f38da1a099aac38389,64d2fd46c836a06233681665,64dc814282870d3189c49354,,,,,,,sngl,resources/DG.BMP,resources/Empty.png,Door3,-0.18187624,-0.000923859,1,0,0,0.5458,optionLeft,70,12010,6,13,0,13,0,1,,,,,,,,,,,,,,,,,,,,,,,,,,,,,,,,,,,,,,,
,,,,,,,,2023-08-16_08h57.02.719,HF_wild_card,2022.2.4,MacIntel,59.99520038,644016f38da1a099aac38389,64d2fd46c836a06233681665,64dc814282870d3189c49354,,,,,,,ctch,resources/DB.BMP,resources/DR.BMP,Door4,-0.20405506,0.013048735,1,0,0,0.7973,optionLeft,80,12090,6,14,0,14,0,1,,,,,,,,,,,,,,,,,,,,,,,,,,,,,,,,,,,,,,,
,,,,,,,,2023-08-16_08h57.02.719,HF_wild_card,2022.2.4,MacIntel,59.99520038,644016f38da1a099aac38389,64d2fd46c836a06233681665,64dc814282870d3189c49354,,,,,,,decisionTrl,resources/DG.BMP,resources/DY.BMP,Door3,-0.188374256,0.01358817,1,0,0,0.7824,optionLeft,70,12160,6,15,0,15,0,1,,,,,,,,,,,,,,,,,,,,,,,,,,,,,,,,,,,,,,,
,,,,,,,,2023-08-16_08h57.02.719,HF_wild_card,2022.2.4,MacIntel,59.99520038,644016f38da1a099aac38389,64d2fd46c836a06233681665,64dc814282870d3189c49354,,,,,,,decisionTrl,resources/DB.BMP,resources/DY.BMP,Door4,-0.141747272,0.010562376,1,0,0,0.5811,optionLeft,80,12240,6,16,0,16,0,1,,,,,,,,,,,,,,,,,,,,,,,,,,,,,,,,,,,,,,,
,,,,,,,,2023-08-16_08h57.02.719,HF_wild_card,2022.2.4,MacIntel,59.99520038,644016f38da1a099aac38389,64d2fd46c836a06233681665,64dc814282870d3189c49354,,,,,,,sngl,resources/Empty.png,resources/DY.BMP,WildCard_NonEx,0.174612475,-0.012862723,1,0,0,0.5304,optionRight,45,12285,6,17,0,17,0,1,,,,,,,,,,,,,,,,,,,,,,,,,,,,,,,,,,,,,,,
,,,,,,,,2023-08-16_08h57.02.719,HF_wild_card,2022.2.4,MacIntel,59.99520038,644016f38da1a099aac38389,64d2fd46c836a06233681665,64dc814282870d3189c49354,,,,,,,ctch,resources/DG.BMP,resources/DP.BMP,Door3,-0.180360243,-4.96032E-05,1,0,0,0.5136,optionLeft,70,12355,6,18,0,18,0,1,,,,,,,,,,,,,,,,,,,,,,,,,,,,,,,,,,,,,,,
,,,,,,,,2023-08-16_08h57.02.719,HF_wild_card,2022.2.4,MacIntel,59.99520038,644016f38da1a099aac38389,64d2fd46c836a06233681665,64dc814282870d3189c49354,,,,,,,sngl,resources/Empty.png,resources/DB.BMP,Door4,0.104492188,-0.006680928,1,0,0,0.6314,optionRight,80,12435,6,19,0,19,0,1,,,,,,,,,,,,,,,,,,,,,,,,,,,,,,,,,,,,,,,
,,,,,,,,2023-08-16_08h57.02.719,HF_wild_card,2022.2.4,MacIntel,59.99520038,644016f38da1a099aac38389,64d2fd46c836a06233681665,64dc814282870d3189c49354,,,,,,,decisionTrl,resources/DP.BMP,resources/DR.BMP,Door1,0.124866691,-0.03171503,1,0,0,1.0491,optionRight,30,12465,6,20,0,20,0,1,,,,,,,,,,,,,,,,,,,,,,,,,,,,,,,,,,,,,,,
,,,,,,,,2023-08-16_08h57.02.719,HF_wild_card,2022.2.4,MacIntel,59.99520038,644016f38da1a099aac38389,64d2fd46c836a06233681665,64dc814282870d3189c49354,,,,,,,ctch,resources/DG.BMP,resources/DP.BMP,Door3,-0.192075893,-0.01202877,1,0,0,0.6812,optionLeft,70,12535,6,21,0,21,0,1,,,,,,,,,,,,,,,,,,,,,,,,,,,,,,,,,,,,,,,
,,,,,,,,2023-08-16_08h57.02.719,HF_wild_card,2022.2.4,MacIntel,59.99520038,644016f38da1a099aac38389,64d2fd46c836a06233681665,64dc814282870d3189c49354,,,,,,,decisionTrl,resources/DB.BMP,resources/DG.BMP,Door4,-0.226023065,-0.002461558,1,0,0,1.1803,optionLeft,80,12615,6,22,0,22,0,1,,,,,,,,,,,,,,,,,,,,,,,,,,,,,,,,,,,,,,,
,,,,,,,,2023-08-16_08h57.02.719,HF_wild_card,2022.2.4,MacIntel,59.99520038,644016f38da1a099aac38389,64d2fd46c836a06233681665,64dc814282870d3189c49354,,,,,,,sngl,resources/Empty.png,resources/DP.BMP,Door2,0.114555432,-0.014143105,1,0,0,0.9335,optionRight,40,12655,6,23,0,23,0,1,,,,,,,,,,,,,,,,,,,,,,,,,,,,,,,,,,,,,,,
,,,,,,,,2023-08-16_08h57.02.719,HF_wild_card,2022.2.4,MacIntel,59.99520038,644016f38da1a099aac38389,64d2fd46c836a06233681665,64dc814282870d3189c49354,,,,,,,decisionTrl,resources/DG.BMP,resources/DB.BMP,Door3,-0.185828993,0.00827443,1,0,0,1.2164,optionLeft,70,12725,6,24,0,24,0,1,,,,,,,,,,,,,,,,,,,,,,,,,,,,,,,,,,,,,,,
,,,,,,,,2023-08-16_08h57.02.719,HF_wild_card,2022.2.4,MacIntel,59.99520038,644016f38da1a099aac38389,64d2fd46c836a06233681665,64dc814282870d3189c49354,,,,,,,sngl,resources/Empty.png,resources/DY.BMP,WildCard_NonEx,0.140866815,-0.011932664,1,0,0,0.5333,optionRight,55,12780,6,25,0,25,0,1,,,,,,,,,,,,,,,,,,,,,,,,,,,,,,,,,,,,,,,
,,,,,,,,2023-08-16_08h57.02.719,HF_wild_card,2022.2.4,MacIntel,59.99520038,644016f38da1a099aac38389,64d2fd46c836a06233681665,64dc814282870d3189c49354,,,,,,,decisionTrl,resources/DR.BMP,resources/DP.BMP,Door1,-0.133004712,0.009942336,1,0,0,1.7132,optionLeft,30,12810,6,26,0,26,0,1,,,,,,,,,,,,,,,,,,,,,,,,,,,,,,,,,,,,,,,
,,,,,,,,2023-08-16_08h57.02.719,HF_wild_card,2022.2.4,MacIntel,59.99520038,644016f38da1a099aac38389,64d2fd46c836a06233681665,64dc814282870d3189c49354,,,,,,,decisionTrl,resources/DY.BMP,resources/DG.BMP,Door3,0.249618676,-0.006141493,1,0,0,1.0972,optionRight,70,12880,6,27,0,27,0,1,,,,,,,,,,,,,,,,,,,,,,,,,,,,,,,,,,,,,,,
,,,,,,,,2023-08-16_08h57.02.719,HF_wild_card,2022.2.4,MacIntel,59.99520038,644016f38da1a099aac38389,64d2fd46c836a06233681665,64dc814282870d3189c49354,,,,,,,ctch,resources/DP.BMP,resources/DG.BMP,Door3,0.199451265,-0.003869048,1,0,0,0.8295,optionRight,70,12950,6,28,0,28,0,1,,,,,,,,,,,,,,,,,,,,,,,,,,,,,,,,,,,,,,,
,,,,,,,,2023-08-16_08h57.02.719,HF_wild_card,2022.2.4,MacIntel,59.99520038,644016f38da1a099aac38389,64d2fd46c836a06233681665,64dc814282870d3189c49354,,,,,,,decisionTrl,resources/DG.BMP,resources/DB.BMP,Door4,0.146034846,-0.002613467,1,0,0,1.0813,optionRight,60,13010,6,29,0,29,0,1,,,,,,,,,,,,,,,,,,,,,,,,,,,,,,,,,,,,,,,
,,,,,,,,2023-08-16_08h57.02.719,HF_wild_card,2022.2.4,MacIntel,59.99520038,644016f38da1a099aac38389,64d2fd46c836a06233681665,64dc814282870d3189c49354,,,,,,,decisionTrl,resources/DP.BMP,resources/DR.BMP,Door2,-0.271031746,0.013420759,1,0,0,1.0677,optionLeft,20,13030,6,30,0,30,0,1,,,,,,,,,,,,,,,,,,,,,,,,,,,,,,,,,,,,,,,
,,,,,,,,2023-08-16_08h57.02.719,HF_wild_card,2022.2.4,MacIntel,59.99520038,644016f38da1a099aac38389,64d2fd46c836a06233681665,64dc814282870d3189c49354,,,,,,,decisionTrl,resources/DR.BMP,resources/DP.BMP,Door1,-0.173936632,0.008736359,1,0,0,0.83,optionLeft,30,13060,6,31,0,31,0,1,,,,,,,,,,,,,,,,,,,,,,,,,,,,,,,,,,,,,,,
,,,,,,,,2023-08-16_08h57.02.719,HF_wild_card,2022.2.4,MacIntel,59.99520038,644016f38da1a099aac38389,64d2fd46c836a06233681665,64dc814282870d3189c49354,,,,,,,decisionTrl,resources/DR.BMP,resources/DY.BMP,WildCard_NonEx,0.151010665,-0.005242436,1,0,0,0.7805,optionRight,45,13105,6,32,0,32,0,1,,,,,,,,,,,,,,,,,,,,,,,,,,,,,,,,,,,,,,,
,,,,,,,,2023-08-16_08h57.02.719,HF_wild_card,2022.2.4,MacIntel,59.99520038,644016f38da1a099aac38389,64d2fd46c836a06233681665,64dc814282870d3189c49354,,,,,,,sngl,resources/Empty.png,resources/DR.BMP,Door1,0.129129464,0.003624132,1,0,0,0.7278,optionRight,30,13135,6,33,0,33,0,1,,,,,,,,,,,,,,,,,,,,,,,,,,,,,,,,,,,,,,,
,,,,,,,,2023-08-16_08h57.02.719,HF_wild_card,2022.2.4,MacIntel,59.99520038,644016f38da1a099aac38389,64d2fd46c836a06233681665,64dc814282870d3189c49354,,,,,,,decisionTrl,resources/DY.BMP,resources/DB.BMP,Door4,0.141471354,0.010673983,1,0,0,0.931,optionRight,60,13195,6,34,0,34,0,1,,,,,,,,,,,,,,,,,,,,,,,,,,,,,,,,,,,,,,,
,,,,,,,,2023-08-16_08h57.02.719,HF_wild_card,2022.2.4,MacIntel,59.99520038,644016f38da1a099aac38389,64d2fd46c836a06233681665,64dc814282870d3189c49354,,,,,,,decisionTrl,resources/DG.BMP,resources/DB.BMP,Door3,-0.16297123,0.008423239,1,0,0,0.8956,optionLeft,70,13265,6,35,0,35,0,1,,,,,,,,,,,,,,,,,,,,,,,,,,,,,,,,,,,,,,,
,,,,,,,,2023-08-16_08h57.02.719,HF_wild_card,2022.2.4,MacIntel,59.99520038,644016f38da1a099aac38389,64d2fd46c836a06233681665,64dc814282870d3189c49354,,,,,,,decisionTrl,resources/DB.BMP,resources/DG.BMP,Door3,0.140876116,0.00796441,1,0,0,0.8325,optionRight,70,13335,6,36,0,36,0,1,,,,,,,,,,,,,,,,,,,,,,,,,,,,,,,,,,,,,,,
,,,,,,,,2023-08-16_08h57.02.719,HF_wild_card,2022.2.4,MacIntel,59.99520038,644016f38da1a099aac38389,64d2fd46c836a06233681665,64dc814282870d3189c49354,,,,,,,sngl,resources/DY.BMP,resources/Empty.png,WildCard_NonEx,-0.136883061,0.019394841,1,0,0,0.7293,optionLeft,55,13390,6,37,0,37,0,1,,,,,,,,,,,,,,,,,,,,,,,,,,,,,,,,,,,,,,,
,,,,,,,,2023-08-16_08h57.02.719,HF_wild_card,2022.2.4,MacIntel,59.99520038,644016f38da1a099aac38389,64d2fd46c836a06233681665,64dc814282870d3189c49354,,,,,,,sngl,resources/DB.BMP,resources/Empty.png,Door4,-0.117137897,0.020265997,1,0,0,0.6316,optionLeft,60,13450,6,38,0,38,0,1,,,,,,,,,,,,,,,,,,,,,,,,,,,,,,,,,,,,,,,
,,,,,,,,2023-08-16_08h57.02.719,HF_wild_card,2022.2.4,MacIntel,59.99520038,644016f38da1a099aac38389,64d2fd46c836a06233681665,64dc814282870d3189c49354,,,,,,,decisionTrl,resources/DP.BMP,resources/DR.BMP,Door1,0.140566096,-0.003264509,1,0,0,1.4802,optionRight,30,13480,6,39,0,39,0,1,,,,,,,,,,,,,,,,,,,,,,,,,,,,,,,,,,,,,,,
,,,,,,,,2023-08-16_08h57.02.719,HF_wild_card,2022.2.4,MacIntel,59.99520038,644016f38da1a099aac38389,64d2fd46c836a06233681665,64dc814282870d3189c49354,,,,,,,decisionTrl,resources/DB.BMP,resources/DG.BMP,Door3,0.209185888,-0.012022569,1,0,0,0.8988,optionRight,70,13550,6,40,0,40,0,1,,,,,,,,,,,,,,,,,,,,,,,,,,,,,,,,,,,,,,,
,,,,,,,,2023-08-16_08h57.02.719,HF_wild_card,2022.2.4,MacIntel,59.99520038,644016f38da1a099aac38389,64d2fd46c836a06233681665,64dc814282870d3189c49354,,,,,,,decisionTrl,resources/DY.BMP,resources/DP.BMP,WildCard_NonEx,-0.154033358,0.004513889,1,0,0,0.8981,optionLeft,45,13595,6,41,0,41,0,1,,,,,,,,,,,,,,,,,,,,,,,,,,,,,,,,,,,,,,,
,,,,,,,,2023-08-16_08h57.02.719,HF_wild_card,2022.2.4,MacIntel,59.99520038,644016f38da1a099aac38389,64d2fd46c836a06233681665,64dc814282870d3189c49354,,,,,,,decisionTrl,resources/DR.BMP,resources/DP.BMP,Door2,0.074355159,0.011755952,1,0,0,0.7983,optionRight,20,13615,6,42,0,42,0,1,,,,,,,,,,,,,,,,,,,,,,,,,,,,,,,,,,,,,,,
,,,,,,,,2023-08-16_08h57.02.719,HF_wild_card,2022.2.4,MacIntel,59.99520038,644016f38da1a099aac38389,64d2fd46c836a06233681665,64dc814282870d3189c49354,,,,,,,ctch,resources/DB.BMP,resources/DR.BMP,Door4,-0.177399554,0.023515005,1,0,0,0.7143,optionLeft,80,13695,6,43,0,43,0,1,,,,,,,,,,,,,,,,,,,,,,,,,,,,,,,,,,,,,,,
,,,,,,,,2023-08-16_08h57.02.719,HF_wild_card,2022.2.4,MacIntel,59.99520038,644016f38da1a099aac38389,64d2fd46c836a06233681665,64dc814282870d3189c49354,,,,,,,,,,,,,,,,,,,,,,,,,,5,0,5,0,1,,,,,,,,,,,,,,,,,,,,,,,,,,,,,,,,,,
,,,,,,,,2023-08-16_08h57.02.719,HF_wild_card,2022.2.4,MacIntel,59.99520038,644016f38da1a099aac38389,64d2fd46c836a06233681665,64dc814282870d3189c49354,,,,,,,ctch,resources/DG.BMP,resources/DP.BMP,Door3,-0.225877356,0.050604539,1,0,0,0.9158,optionLeft,70,13765,7,0,0,0,0,1,,,,,,,,,,,,,,,,,,,,,,,,,,,,,,,,,,,,,,,
,,,,,,,,2023-08-16_08h57.02.719,HF_wild_card,2022.2.4,MacIntel,59.99520038,644016f38da1a099aac38389,64d2fd46c836a06233681665,64dc814282870d3189c49354,,,,,,,ctch,resources/DB.BMP,resources/DR.BMP,Door4,-0.145824033,0.00186942,1,0,0,0.6485,optionLeft,60,13825,7,1,0,1,0,1,,,,,,,,,,,,,,,,,,,,,,,,,,,,,,,,,,,,,,,
,,,,,,,,2023-08-16_08h57.02.719,HF_wild_card,2022.2.4,MacIntel,59.99520038,644016f38da1a099aac38389,64d2fd46c836a06233681665,64dc814282870d3189c49354,,,,,,,ctch,resources/DG.BMP,resources/DP.BMP,Door3,-0.159126984,0.00827753,1,0,0,0.4986,optionLeft,70,13895,7,2,0,2,0,1,,,,,,,,,,,,,,,,,,,,,,,,,,,,,,,,,,,,,,,
,,,,,,,,2023-08-16_08h57.02.719,HF_wild_card,2022.2.4,MacIntel,59.99520038,644016f38da1a099aac38389,64d2fd46c836a06233681665,64dc814282870d3189c49354,,,,,,,decisionTrl,resources/DR.BMP,resources/DP.BMP,Door1,-0.191623264,0.000291419,1,0,0,2.1304,optionLeft,30,13925,7,3,0,3,0,1,,,,,,,,,,,,,,,,,,,,,,,,,,,,,,,,,,,,,,,
,,,,,,,,2023-08-16_08h57.02.719,HF_wild_card,2022.2.4,MacIntel,59.99520038,644016f38da1a099aac38389,64d2fd46c836a06233681665,64dc814282870d3189c49354,,,,,,,ctch,resources/DP.BMP,resources/DG.BMP,Door3,0.120380704,-0.00890687,1,0,0,0.7108,optionRight,70,13995,7,4,0,4,0,1,,,,,,,,,,,,,,,,,,,,,,,,,,,,,,,,,,,,,,,
,,,,,,,,2023-08-16_08h57.02.719,HF_wild_card,2022.2.4,MacIntel,59.99520038,644016f38da1a099aac38389,64d2fd46c836a06233681665,64dc814282870d3189c49354,,,,,,,ctch,resources/DG.BMP,resources/DP.BMP,Door3,-0.167798239,0.03874318,1,0,0,0.6478,optionLeft,70,14065,7,5,0,5,0,1,,,,,,,,,,,,,,,,,,,,,,,,,,,,,,,,,,,,,,,
,,,,,,,,2023-08-16_08h57.02.719,HF_wild_card,2022.2.4,MacIntel,59.99520038,644016f38da1a099aac38389,64d2fd46c836a06233681665,64dc814282870d3189c49354,,,,,,,decisionTrl,resources/DG.BMP,resources/DB.BMP,Door3,-0.255261037,0.047826761,1,0,0,1.4655,optionLeft,70,14135,7,6,0,6,0,1,,,,,,,,,,,,,,,,,,,,,,,,,,,,,,,,,,,,,,,
,,,,,,,,2023-08-16_08h57.02.719,HF_wild_card,2022.2.4,MacIntel,59.99520038,644016f38da1a099aac38389,64d2fd46c836a06233681665,64dc814282870d3189c49354,,,,,,,ctch,resources/DB.BMP,resources/DR.BMP,Door4,-0.164589534,0.01312314,1,0,0,0.6333,optionLeft,60,14195,7,7,0,7,0,1,,,,,,,,,,,,,,,,,,,,,,,,,,,,,,,,,,,,,,,
,,,,,,,,2023-08-16_08h57.02.719,HF_wild_card,2022.2.4,MacIntel,59.99520038,644016f38da1a099aac38389,64d2fd46c836a06233681665,64dc814282870d3189c49354,,,,,,,decisionTrl,resources/DB.BMP,resources/DG.BMP,Door4,-0.145098586,0.02484809,1,0,0,1.015,optionLeft,80,14275,7,8,0,8,0,1,,,,,,,,,,,,,,,,,,,,,,,,,,,,,,,,,,,,,,,
,,,,,,,,2023-08-16_08h57.02.719,HF_wild_card,2022.2.4,MacIntel,59.99520038,644016f38da1a099aac38389,64d2fd46c836a06233681665,64dc814282870d3189c49354,,,,,,,decisionTrl,resources/DR.BMP,resources/DP.BMP,Door2,0.396192956,-0.048648313,1,0,0,1.266,optionRight,40,14315,7,9,0,9,0,1,,,,,,,,,,,,,,,,,,,,,,,,,,,,,,,,,,,,,,,
,,,,,,,,2023-08-16_08h57.02.719,HF_wild_card,2022.2.4,MacIntel,59.99520038,644016f38da1a099aac38389,64d2fd46c836a06233681665,64dc814282870d3189c49354,,,,,,,decisionTrl,resources/DB.BMP,resources/DG.BMP,Door3,0.141682168,-0.020067584,1,0,0,1.1008,optionRight,70,14385,7,10,0,10,0,1,,,,,,,,,,,,,,,,,,,,,,,,,,,,,,,,,,,,,,,
,,,,,,,,2023-08-16_08h57.02.719,HF_wild_card,2022.2.4,MacIntel,59.99520038,644016f38da1a099aac38389,64d2fd46c836a06233681665,64dc814282870d3189c49354,,,,,,,decisionTrl,resources/DB.BMP,resources/DG.BMP,Door3,0.1781312,-0.030912078,1,0,0,0.5989,optionRight,70,14455,7,11,0,11,0,1,,,,,,,,,,,,,,,,,,,,,,,,,,,,,,,,,,,,,,,
,,,,,,,,2023-08-16_08h57.02.719,HF_wild_card,2022.2.4,MacIntel,59.99520038,644016f38da1a099aac38389,64d2fd46c836a06233681665,64dc814282870d3189c49354,,,,,,,ctch,resources/DR.BMP,resources/DB.BMP,Door4,0.127684772,-0.005605159,1,0,0,0.6285,optionRight,80,14535,7,12,0,12,0,1,,,,,,,,,,,,,,,,,,,,,,,,,,,,,,,,,,,,,,,
,,,,,,,,2023-08-16_08h57.02.719,HF_wild_card,2022.2.4,MacIntel,59.99520038,644016f38da1a099aac38389,64d2fd46c836a06233681665,64dc814282870d3189c49354,,,,,,,ctch,resources/DR.BMP,resources/DB.BMP,Door4,0.113023934,0.002291047,1,0,0,0.5493,optionRight,80,14615,7,13,0,13,0,1,,,,,,,,,,,,,,,,,,,,,,,,,,,,,,,,,,,,,,,
,,,,,,,,2023-08-16_08h57.02.719,HF_wild_card,2022.2.4,MacIntel,59.99520038,644016f38da1a099aac38389,64d2fd46c836a06233681665,64dc814282870d3189c49354,,,,,,,decisionTrl,resources/DP.BMP,resources/DR.BMP,Door2,-0.107006448,0.001816716,1,0,0,1.1158,optionLeft,20,14635,7,14,0,14,0,1,,,,,,,,,,,,,,,,,,,,,,,,,,,,,,,,,,,,,,,
,,,,,,,,2023-08-16_08h57.02.719,HF_wild_card,2022.2.4,MacIntel,59.99520038,644016f38da1a099aac38389,64d2fd46c836a06233681665,64dc814282870d3189c49354,,,,,,,ctch,resources/DR.BMP,resources/DB.BMP,Door4,0.119450645,-0.009275794,1,0,0,0.9997,optionRight,60,14695,7,15,0,15,0,1,,,,,,,,,,,,,,,,,,,,,,,,,,,,,,,,,,,,,,,
,,,,,,,,2023-08-16_08h57.02.719,HF_wild_card,2022.2.4,MacIntel,59.99520038,644016f38da1a099aac38389,64d2fd46c836a06233681665,64dc814282870d3189c49354,,,,,,,decisionTrl,resources/DG.BMP,resources/DB.BMP,Door3,-0.17109995,0.01297433,1,0,0,0.9804,optionLeft,70,14765,7,16,0,16,0,1,,,,,,,,,,,,,,,,,,,,,,,,,,,,,,,,,,,,,,,
,,,,,,,,2023-08-16_08h57.02.719,HF_wild_card,2022.2.4,MacIntel,59.99520038,644016f38da1a099aac38389,64d2fd46c836a06233681665,64dc814282870d3189c49354,,,,,,,decisionTrl,resources/DP.BMP,resources/DR.BMP,Door1,0.124410962,-0.002771577,1,0,0,1.0988,optionRight,30,14795,7,17,0,17,0,1,,,,,,,,,,,,,,,,,,,,,,,,,,,,,,,,,,,,,,,
,,,,,,,,2023-08-16_08h57.02.719,HF_wild_card,2022.2.4,MacIntel,59.99520038,644016f38da1a099aac38389,64d2fd46c836a06233681665,64dc814282870d3189c49354,,,,,,,decisionTrl,resources/DR.BMP,resources/DP.BMP,Door2,0.15125248,-0.001264881,1,0,0,0.7326,optionRight,20,14815,7,18,0,18,0,1,,,,,,,,,,,,,,,,,,,,,,,,,,,,,,,,,,,,,,,
,,,,,,,,2023-08-16_08h57.02.719,HF_wild_card,2022.2.4,MacIntel,59.99520038,644016f38da1a099aac38389,64d2fd46c836a06233681665,64dc814282870d3189c49354,,,,,,,ctch,resources/DB.BMP,resources/DR.BMP,Door4,-0.200657242,0.004247272,1,0,0,0.6805,optionLeft,80,14895,7,19,0,19,0,1,,,,,,,,,,,,,,,,,,,,,,,,,,,,,,,,,,,,,,,
,,,,,,,,2023-08-16_08h57.02.719,HF_wild_card,2022.2.4,MacIntel,59.99520038,644016f38da1a099aac38389,64d2fd46c836a06233681665,64dc814282870d3189c49354,,,,,,,ctch,resources/DP.BMP,resources/DG.BMP,Door3,0.131197297,-0.006079489,1,0,0,0.6156,optionRight,70,14965,7,20,0,20,0,1,,,,,,,,,,,,,,,,,,,,,,,,,,,,,,,,,,,,,,,
,,,,,,,,2023-08-16_08h57.02.719,HF_wild_card,2022.2.4,MacIntel,59.99520038,644016f38da1a099aac38389,64d2fd46c836a06233681665,64dc814282870d3189c49354,,,,,,,decisionTrl,resources/DB.BMP,resources/DG.BMP,Door3,0.143241567,-0.001230779,1,0,0,0.5493,optionRight,70,15035,7,21,0,21,0,1,,,,,,,,,,,,,,,,,,,,,,,,,,,,,,,,,,,,,,,
,,,,,,,,2023-08-16_08h57.02.719,HF_wild_card,2022.2.4,MacIntel,59.99520038,644016f38da1a099aac38389,64d2fd46c836a06233681665,64dc814282870d3189c49354,,,,,,,decisionTrl,resources/DR.BMP,resources/DP.BMP,Door1,-0.192888145,0.007936508,1,0,0,0.8319,optionLeft,30,15065,7,22,0,22,0,1,,,,,,,,,,,,,,,,,,,,,,,,,,,,,,,,,,,,,,,
,,,,,,,,2023-08-16_08h57.02.719,HF_wild_card,2022.2.4,MacIntel,59.99520038,644016f38da1a099aac38389,64d2fd46c836a06233681665,64dc814282870d3189c49354,,,,,,,ctch,resources/DP.BMP,resources/DG.BMP,Door3,0.194289435,-0.002039931,1,0,0,0.9169,optionRight,70,15135,7,23,0,23,0,1,,,,,,,,,,,,,,,,,,,,,,,,,,,,,,,,,,,,,,,
,,,,,,,,2023-08-16_08h57.02.719,HF_wild_card,2022.2.4,MacIntel,59.99520038,644016f38da1a099aac38389,64d2fd46c836a06233681665,64dc814282870d3189c49354,,,,,,,decisionTrl,resources/DG.BMP,resources/DB.BMP,Door4,0.28093068,-0.013349454,1,0,0,0.8976,optionRight,60,15195,7,24,0,24,0,1,,,,,,,,,,,,,,,,,,,,,,,,,,,,,,,,,,,,,,,
,,,,,,,,2023-08-16_08h57.02.719,HF_wild_card,2022.2.4,MacIntel,59.99520038,644016f38da1a099aac38389,64d2fd46c836a06233681665,64dc814282870d3189c49354,,,,,,,decisionTrl,resources/DR.BMP,resources/DP.BMP,Door2,0.126305184,-0.013470362,1,0,0,0.9852,optionRight,20,15215,7,25,0,25,0,1,,,,,,,,,,,,,,,,,,,,,,,,,,,,,,,,,,,,,,,
,,,,,,,,2023-08-16_08h57.02.719,HF_wild_card,2022.2.4,MacIntel,59.99520038,644016f38da1a099aac38389,64d2fd46c836a06233681665,64dc814282870d3189c49354,,,,,,,decisionTrl,resources/DB.BMP,resources/DG.BMP,Door4,-0.300855655,-0.002752976,1,0,0,0.7988,optionLeft,60,15275,7,26,0,26,0,1,,,,,,,,,,,,,,,,,,,,,,,,,,,,,,,,,,,,,,,
,,,,,,,,2023-08-16_08h57.02.719,HF_wild_card,2022.2.4,MacIntel,59.99520038,644016f38da1a099aac38389,64d2fd46c836a06233681665,64dc814282870d3189c49354,,,,,,,decisionTrl,resources/DG.BMP,resources/DB.BMP,Door4,0.165091766,-0.009678819,1,0,0,0.9172,optionRight,60,15335,7,27,0,27,0,1,,,,,,,,,,,,,,,,,,,,,,,,,,,,,,,,,,,,,,,
,,,,,,,,2023-08-16_08h57.02.719,HF_wild_card,2022.2.4,MacIntel,59.99520038,644016f38da1a099aac38389,64d2fd46c836a06233681665,64dc814282870d3189c49354,,,,,,,decisionTrl,resources/DG.BMP,resources/DB.BMP,Door4,0.154796007,-0.005955481,1,0,0,0.5649,optionRight,80,15415,7,28,0,28,0,1,,,,,,,,,,,,,,,,,,,,,,,,,,,,,,,,,,,,,,,
,,,,,,,,2023-08-16_08h57.02.719,HF_wild_card,2022.2.4,MacIntel,59.99520038,644016f38da1a099aac38389,64d2fd46c836a06233681665,64dc814282870d3189c49354,,,,,,,decisionTrl,resources/DG.BMP,resources/DB.BMP,Door4,0.185708085,-0.008314732,1,0,0,0.5499,optionRight,80,15495,7,29,0,29,0,1,,,,,,,,,,,,,,,,,,,,,,,,,,,,,,,,,,,,,,,
,,,,,,,,2023-08-16_08h57.02.719,HF_wild_card,2022.2.4,MacIntel,59.99520038,644016f38da1a099aac38389,64d2fd46c836a06233681665,64dc814282870d3189c49354,,,,,,,decisionTrl,resources/DP.BMP,resources/DR.BMP,Door2,-0.123945933,0.005800471,1,0,0,0.7955,optionLeft,40,15535,7,30,0,30,0,1,,,,,,,,,,,,,,,,,,,,,,,,,,,,,,,,,,,,,,,
,,,,,,,,2023-08-16_08h57.02.719,HF_wild_card,2022.2.4,MacIntel,59.99520038,644016f38da1a099aac38389,64d2fd46c836a06233681665,64dc814282870d3189c49354,,,,,,,decisionTrl,resources/DP.BMP,resources/DR.BMP,Door1,0.178583829,-0.00906188,1,0,0,0.8002,optionRight,30,15565,7,31,0,31,0,1,,,,,,,,,,,,,,,,,,,,,,,,,,,,,,,,,,,,,,,
,,,,,,,,2023-08-16_08h57.02.719,HF_wild_card,2022.2.4,MacIntel,59.99520038,644016f38da1a099aac38389,64d2fd46c836a06233681665,64dc814282870d3189c49354,,,,,,,decisionTrl,resources/DR.BMP,resources/DP.BMP,Door2,0.184483507,-0.009517609,1,0,0,0.932,optionRight,40,15605,7,32,0,32,0,1,,,,,,,,,,,,,,,,,,,,,,,,,,,,,,,,,,,,,,,
,,,,,,,,2023-08-16_08h57.02.719,HF_wild_card,2022.2.4,MacIntel,59.99520038,644016f38da1a099aac38389,64d2fd46c836a06233681665,64dc814282870d3189c49354,,,,,,,decisionTrl,resources/DP.BMP,resources/DR.BMP,Door1,0.201795015,-0.019267733,1,0,0,0.7864,optionRight,30,15635,7,33,0,33,0,1,,,,,,,,,,,,,,,,,,,,,,,,,,,,,,,,,,,,,,,
,,,,,,,,2023-08-16_08h57.02.719,HF_wild_card,2022.2.4,MacIntel,59.99520038,644016f38da1a099aac38389,64d2fd46c836a06233681665,64dc814282870d3189c49354,,,,,,,decisionTrl,resources/DP.BMP,resources/DR.BMP,Door1,0.123549107,-0.00796751,1,0,0,0.6988,optionRight,30,15665,7,34,0,34,0,1,,,,,,,,,,,,,,,,,,,,,,,,,,,,,,,,,,,,,,,
,,,,,,,,2023-08-16_08h57.02.719,HF_wild_card,2022.2.4,MacIntel,59.99520038,644016f38da1a099aac38389,64d2fd46c836a06233681665,64dc814282870d3189c49354,,,,,,,decisionTrl,resources/DB.BMP,resources/DG.BMP,Door4,-0.169754464,0.001940724,1,0,0,1.3643,optionLeft,80,15745,7,35,0,35,0,1,,,,,,,,,,,,,,,,,,,,,,,,,,,,,,,,,,,,,,,
,,,,,,,,2023-08-16_08h57.02.719,HF_wild_card,2022.2.4,MacIntel,59.99520038,644016f38da1a099aac38389,64d2fd46c836a06233681665,64dc814282870d3189c49354,,,,,,,,,,,,,,,,,,,,,,,,,,6,0,6,0,1,,,,,,,,,,,,,,,,,,,,,,,,,,,,,,,,,,
,,,,,,,,2023-08-16_08h57.02.719,HF_wild_card,2022.2.4,MacIntel,59.99520038,644016f38da1a099aac38389,64d2fd46c836a06233681665,64dc814282870d3189c49354,,,,,,,,,,,,,,,,,,,,,,,,,,,,,,,3,,,,,,,,,,,,,,,,,,,,,,,,,,,,,,,,,
,,,,,,,,2023-08-16_08h57.02.719,HF_wild_card,2022.2.4,MacIntel,59.99520038,644016f38da1a099aac38389,64d2fd46c836a06233681665,64dc814282870d3189c49354,,,,,,,,,,,,,,,,,,,,,,,,,,,,,,,,,,,,,,,,,,,,,,,,,,,,,,,,,,,,,,,,
,,,,,,,,2023-08-16_08h57.02.719,HF_wild_card,2022.2.4,MacIntel,59.99520038,644016f38da1a099aac38389,64d2fd46c836a06233681665,64dc814282870d3189c49354,,,,,,,,,,,,,,,,,,,,,,,,,,,,,,,,30,Door2,resources/DP.BMP,0,0,0,0,1,,,,,,,,,,,,,,,,,,,,,,,,,
,,,,,,,,2023-08-16_08h57.02.719,HF_wild_card,2022.2.4,MacIntel,59.99520038,644016f38da1a099aac38389,64d2fd46c836a06233681665,64dc814282870d3189c49354,,,,,,,,,,,,,,,,,,,,,,,,,,,,,,,,20,Door1,resources/DR.BMP,1,0,1,0,1,,,,,,,,,,,,,,,,,,,,,,,,,
,,,,,,,,2023-08-16_08h57.02.719,HF_wild_card,2022.2.4,MacIntel,59.99520038,644016f38da1a099aac38389,64d2fd46c836a06233681665,64dc814282870d3189c49354,,,,,,,,,,,,,,,,,,,,,,,,,,,,,,,,70,Door3,resources/DG.BMP,2,0,2,0,1,,,,,,,,,,,,,,,,,,,,,,,,,
