Condition,Low fixed image (Door1),Low risky image (Door2),High fixed image (Door3),High risky image (Door4),Extreme Wild Card,NonExtreme Wild Card,,date,expName,psychopyVersion,OS,frameRate,PROLIFIC_PID,STUDY_ID,SESSION_ID,mouse_2.x,mouse_2.y,mouse_2.leftButton,mouse_2.midButton,mouse_2.rightButton,mouse_2.clicked_name,Trial Type,Left Option Image,Right Option Image,Chosen Door,mouse.x,mouse.y,mouse.leftButton,mouse.midButton,mouse.rightButton,mouse.time,mouse.clicked_name,Feedback,Cumulative Reward,Block,trial.thisRepN,trial.thisTrialN,trial.thisN,trial.thisIndex,trial.ran,blocks.thisRepN,blocks.thisTrialN,blocks.thisN,blocks.thisIndex,blocks.ran,Money conversion,First Outcome Reported,Shown Door (First Outcome),Displayed Image (First Outcome),outcomes.thisRepN,outcomes.thisTrialN,outcomes.thisN,outcomes.thisIndex,outcomes.ran,judgments.thisRepN,judgments.thisTrialN,judgments.thisN,judgments.thisIndex,judgments.ran,freqMouse.x,freqMouse.y,freqMouse.leftButton,freqMouse.midButton,freqMouse.rightButton,freqMouse.clicked_name,FQJ for first outcome,FQJ for second outcome,Shown Door,Displayed Image,trials.thisRepN,trials.thisTrialN,trials.thisN,trials.thisIndex,trials.ran,judgBlock.thisRepN,judgBlock.thisTrialN,judgBlock.thisN,judgBlock.thisIndex,judgBlock.ran
1,resources/DR.BMP,resources/DB.BMP,resources/DG.BMP,resources/DY.BMP,resources/DP.BMP,resources/DBN.BMP,62d9be690206e1b4f007eacb,2023-08-16_08h49.11.850,HF_wild_card,2022.2.4,Win32,60.24822268,62d9be690206e1b4f007eacb,64d2fd46c836a06233681665,64dc7f46c030f419ae4411a5,,,,,,,,,,,,,,,,,,,,,,,,,,,,,,,,,,,,,,,,,,,,,,,,,,,,,,,,,,,,,,,,
,,,,,,,62d9be690206e1b4f007eacb,2023-08-16_08h49.11.850,HF_wild_card,2022.2.4,Win32,60.24822268,62d9be690206e1b4f007eacb,64d2fd46c836a06233681665,64dc7f46c030f419ae4411a5,0.010997643,-0.419874313,1,0,0,agree,,,,,,,,,,,,,,,,,,,,,,,,,,,,,,,,,,,,,,,,,,,,,,,,,,,,,,,,,,
,,,,,,,62d9be690206e1b4f007eacb,2023-08-16_08h49.11.850,HF_wild_card,2022.2.4,Win32,60.24822268,62d9be690206e1b4f007eacb,64d2fd46c836a06233681665,64dc7f46c030f419ae4411a5,,,,,,,,,,,,,,,,,,,,,,,,,,,,,,,,,,,,,,,,,,,,,,,,,,,,,,,,,,,,,,,,
,,,,,,,62d9be690206e1b4f007eacb,2023-08-16_08h49.11.850,HF_wild_card,2022.2.4,Win32,60.24822268,62d9be690206e1b4f007eacb,64d2fd46c836a06233681665,64dc7f46c030f419ae4411a5,,,,,,,sngl,resources/Empty.png,resources/DBN.BMP,WildCard_NonEx,0.373134328,-0.005106049,1,0,0,2.5018,optionRight,45,45,1,0,0,0,0,1,,,,,,,,,,,,,,,,,,,,,,,,,,,,,,,,,,,,,,,
,,,,,,,62d9be690206e1b4f007eacb,2023-08-16_08h49.11.850,HF_wild_card,2022.2.4,Win32,60.24822268,62d9be690206e1b4f007eacb,64d2fd46c836a06233681665,64dc7f46c030f419ae4411a5,,,,,,,ctch,resources/DY.BMP,resources/DR.BMP,Door1,0.450117832,0.001963865,1,0,0,2.5616,optionRight,30,75,1,1,0,1,0,1,,,,,,,,,,,,,,,,,,,,,,,,,,,,,,,,,,,,,,,
,,,,,,,62d9be690206e1b4f007eacb,2023-08-16_08h49.11.850,HF_wild_card,2022.2.4,Win32,60.24822268,62d9be690206e1b4f007eacb,64d2fd46c836a06233681665,64dc7f46c030f419ae4411a5,,,,,,,decisionTrl,resources/DG.BMP,resources/DBN.BMP,Door3,-0.263943441,0.011390416,1,0,0,0.7935,optionLeft,70,145,1,2,0,2,0,1,,,,,,,,,,,,,,,,,,,,,,,,,,,,,,,,,,,,,,,
,,,,,,,62d9be690206e1b4f007eacb,2023-08-16_08h49.11.850,HF_wild_card,2022.2.4,Win32,60.24822268,62d9be690206e1b4f007eacb,64d2fd46c836a06233681665,64dc7f46c030f419ae4411a5,,,,,,,sngl,resources/DG.BMP,resources/Empty.png,Door3,-0.253731343,0.026315789,1,0,0,0.6801,optionLeft,70,215,1,3,0,3,0,1,,,,,,,,,,,,,,,,,,,,,,,,,,,,,,,,,,,,,,,
,,,,,,,62d9be690206e1b4f007eacb,2023-08-16_08h49.11.850,HF_wild_card,2022.2.4,Win32,60.24822268,62d9be690206e1b4f007eacb,64d2fd46c836a06233681665,64dc7f46c030f419ae4411a5,,,,,,,decisionTrl,resources/DR.BMP,resources/DB.BMP,Door2,0.37863315,-0.001178319,1,0,0,1.1243,optionRight,20,235,1,4,0,4,0,1,,,,,,,,,,,,,,,,,,,,,,,,,,,,,,,,,,,,,,,
,,,,,,,62d9be690206e1b4f007eacb,2023-08-16_08h49.11.850,HF_wild_card,2022.2.4,Win32,60.24822268,62d9be690206e1b4f007eacb,64d2fd46c836a06233681665,64dc7f46c030f419ae4411a5,,,,,,,sngl,resources/Empty.png,resources/DBN.BMP,WildCard_NonEx,0.328358209,-0.009033778,1,0,0,0.784,optionRight,55,290,1,5,0,5,0,1,,,,,,,,,,,,,,,,,,,,,,,,,,,,,,,,,,,,,,,
,,,,,,,62d9be690206e1b4f007eacb,2023-08-16_08h49.11.850,HF_wild_card,2022.2.4,Win32,60.24822268,62d9be690206e1b4f007eacb,64d2fd46c836a06233681665,64dc7f46c030f419ae4411a5,,,,,,,decisionTrl,resources/DG.BMP,resources/DY.BMP,Door4,0.381775334,-0.009819324,1,0,0,0.8268,optionRight,60,350,1,6,0,6,0,1,,,,,,,,,,,,,,,,,,,,,,,,,,,,,,,,,,,,,,,
,,,,,,,62d9be690206e1b4f007eacb,2023-08-16_08h49.11.850,HF_wild_card,2022.2.4,Win32,60.24822268,62d9be690206e1b4f007eacb,64d2fd46c836a06233681665,64dc7f46c030f419ae4411a5,,,,,,,sngl,resources/DBN.BMP,resources/Empty.png,WildCard_NonEx,-0.300078555,0.005106049,1,0,0,0.8983,optionLeft,45,395,1,7,0,7,0,1,,,,,,,,,,,,,,,,,,,,,,,,,,,,,,,,,,,,,,,
,,,,,,,62d9be690206e1b4f007eacb,2023-08-16_08h49.11.850,HF_wild_card,2022.2.4,Win32,60.24822268,62d9be690206e1b4f007eacb,64d2fd46c836a06233681665,64dc7f46c030f419ae4411a5,,,,,,,ctch,resources/DB.BMP,resources/DG.BMP,Door3,0.38648861,-0.001963865,1,0,0,0.585,optionRight,70,465,1,8,0,8,0,1,,,,,,,,,,,,,,,,,,,,,,,,,,,,,,,,,,,,,,,
,,,,,,,62d9be690206e1b4f007eacb,2023-08-16_08h49.11.850,HF_wild_card,2022.2.4,Win32,60.24822268,62d9be690206e1b4f007eacb,64d2fd46c836a06233681665,64dc7f46c030f419ae4411a5,,,,,,,decisionTrl,resources/DB.BMP,resources/DR.BMP,Door1,0.311076198,-0.01060487,1,0,0,0.9976,optionRight,30,495,1,9,0,9,0,1,,,,,,,,,,,,,,,,,,,,,,,,,,,,,,,,,,,,,,,
,,,,,,,62d9be690206e1b4f007eacb,2023-08-16_08h49.11.850,HF_wild_card,2022.2.4,Win32,60.24822268,62d9be690206e1b4f007eacb,64d2fd46c836a06233681665,64dc7f46c030f419ae4411a5,,,,,,,sngl,resources/Empty.png,resources/DR.BMP,Door1,0.324430479,-0.005891595,1,0,0,0.6146,optionRight,30,525,1,10,0,10,0,1,,,,,,,,,,,,,,,,,,,,,,,,,,,,,,,,,,,,,,,
,,,,,,,62d9be690206e1b4f007eacb,2023-08-16_08h49.11.850,HF_wild_card,2022.2.4,Win32,60.24822268,62d9be690206e1b4f007eacb,64d2fd46c836a06233681665,64dc7f46c030f419ae4411a5,,,,,,,decisionTrl,resources/DG.BMP,resources/DY.BMP,Door3,-0.441476826,0.005106049,1,0,0,0.9168,optionLeft,70,595,1,11,0,11,0,1,,,,,,,,,,,,,,,,,,,,,,,,,,,,,,,,,,,,,,,
,,,,,,,62d9be690206e1b4f007eacb,2023-08-16_08h49.11.850,HF_wild_card,2022.2.4,Win32,60.24822268,62d9be690206e1b4f007eacb,64d2fd46c836a06233681665,64dc7f46c030f419ae4411a5,,,,,,,sngl,resources/Empty.png,resources/DG.BMP,Door3,0.266300079,-0.002749411,1,0,0,0.6106,optionRight,70,665,1,12,0,12,0,1,,,,,,,,,,,,,,,,,,,,,,,,,,,,,,,,,,,,,,,
,,,,,,,62d9be690206e1b4f007eacb,2023-08-16_08h49.11.850,HF_wild_card,2022.2.4,Win32,60.24822268,62d9be690206e1b4f007eacb,64d2fd46c836a06233681665,64dc7f46c030f419ae4411a5,,,,,,,sngl,resources/DB.BMP,resources/Empty.png,Door2,-0.269442262,-0.005891595,1,0,0,0.7486,optionLeft,40,705,1,13,0,13,0,1,,,,,,,,,,,,,,,,,,,,,,,,,,,,,,,,,,,,,,,
,,,,,,,62d9be690206e1b4f007eacb,2023-08-16_08h49.11.850,HF_wild_card,2022.2.4,Win32,60.24822268,62d9be690206e1b4f007eacb,64d2fd46c836a06233681665,64dc7f46c030f419ae4411a5,,,,,,,decisionTrl,resources/DB.BMP,resources/DR.BMP,Door2,-0.306362922,0.000392773,1,0,0,0.8678,optionLeft,40,745,1,14,0,14,0,1,,,,,,,,,,,,,,,,,,,,,,,,,,,,,,,,,,,,,,,
,,,,,,,62d9be690206e1b4f007eacb,2023-08-16_08h49.11.850,HF_wild_card,2022.2.4,Win32,60.24822268,62d9be690206e1b4f007eacb,64d2fd46c836a06233681665,64dc7f46c030f419ae4411a5,,,,,,,sngl,resources/DR.BMP,resources/Empty.png,Door1,-0.262372349,0.003534957,1,0,0,0.5979,optionLeft,30,775,1,15,0,15,0,1,,,,,,,,,,,,,,,,,,,,,,,,,,,,,,,,,,,,,,,
,,,,,,,62d9be690206e1b4f007eacb,2023-08-16_08h49.11.850,HF_wild_card,2022.2.4,Win32,60.24822268,62d9be690206e1b4f007eacb,64d2fd46c836a06233681665,64dc7f46c030f419ae4411a5,,,,,,,decisionTrl,resources/DY.BMP,resources/DBN.BMP,Door4,-0.252160251,-0.01060487,1,0,0,1.3831,optionLeft,60,835,1,16,0,16,0,1,,,,,,,,,,,,,,,,,,,,,,,,,,,,,,,,,,,,,,,
,,,,,,,62d9be690206e1b4f007eacb,2023-08-16_08h49.11.850,HF_wild_card,2022.2.4,Win32,60.24822268,62d9be690206e1b4f007eacb,64d2fd46c836a06233681665,64dc7f46c030f419ae4411a5,,,,,,,decisionTrl,resources/DG.BMP,resources/DY.BMP,Door3,-0.315789474,-0.005106049,1,0,0,0.4975,optionLeft,70,905,1,17,0,17,0,1,,,,,,,,,,,,,,,,,,,,,,,,,,,,,,,,,,,,,,,
,,,,,,,62d9be690206e1b4f007eacb,2023-08-16_08h49.11.850,HF_wild_card,2022.2.4,Win32,60.24822268,62d9be690206e1b4f007eacb,64d2fd46c836a06233681665,64dc7f46c030f419ae4411a5,,,,,,,ctch,resources/DY.BMP,resources/DR.BMP,Door4,-0.296150825,-0.003534957,1,0,0,0.6465,optionLeft,60,965,1,18,0,18,0,1,,,,,,,,,,,,,,,,,,,,,,,,,,,,,,,,,,,,,,,
,,,,,,,62d9be690206e1b4f007eacb,2023-08-16_08h49.11.850,HF_wild_card,2022.2.4,Win32,60.24822268,62d9be690206e1b4f007eacb,64d2fd46c836a06233681665,64dc7f46c030f419ae4411a5,,,,,,,decisionTrl,resources/DY.BMP,resources/DG.BMP,Door3,0.399842891,-0.01060487,1,0,0,0.6895,optionRight,70,1035,1,19,0,19,0,1,,,,,,,,,,,,,,,,,,,,,,,,,,,,,,,,,,,,,,,
,,,,,,,62d9be690206e1b4f007eacb,2023-08-16_08h49.11.850,HF_wild_card,2022.2.4,Win32,60.24822268,62d9be690206e1b4f007eacb,64d2fd46c836a06233681665,64dc7f46c030f419ae4411a5,,,,,,,ctch,resources/DR.BMP,resources/DY.BMP,Door4,0.395129615,-0.020031422,1,0,0,0.8815,optionRight,80,1115,1,20,0,20,0,1,,,,,,,,,,,,,,,,,,,,,,,,,,,,,,,,,,,,,,,
,,,,,,,62d9be690206e1b4f007eacb,2023-08-16_08h49.11.850,HF_wild_card,2022.2.4,Win32,60.24822268,62d9be690206e1b4f007eacb,64d2fd46c836a06233681665,64dc7f46c030f419ae4411a5,,,,,,,sngl,resources/DBN.BMP,resources/Empty.png,WildCard_NonEx,-0.23487824,0.012175962,1,0,0,0.6052,optionLeft,55,1170,1,21,0,21,0,1,,,,,,,,,,,,,,,,,,,,,,,,,,,,,,,,,,,,,,,
,,,,,,,62d9be690206e1b4f007eacb,2023-08-16_08h49.11.850,HF_wild_card,2022.2.4,Win32,60.24822268,62d9be690206e1b4f007eacb,64d2fd46c836a06233681665,64dc7f46c030f419ae4411a5,,,,,,,decisionTrl,resources/DG.BMP,resources/DY.BMP,Door4,0.314218382,-0.012175962,1,0,0,0.6228,optionRight,80,1250,1,22,0,22,0,1,,,,,,,,,,,,,,,,,,,,,,,,,,,,,,,,,,,,,,,
,,,,,,,62d9be690206e1b4f007eacb,2023-08-16_08h49.11.850,HF_wild_card,2022.2.4,Win32,60.24822268,62d9be690206e1b4f007eacb,64d2fd46c836a06233681665,64dc7f46c030f419ae4411a5,,,,,,,decisionTrl,resources/DY.BMP,resources/DG.BMP,Door4,-0.355852317,-0.008248233,1,0,0,0.6588,optionLeft,80,1330,1,23,0,23,0,1,,,,,,,,,,,,,,,,,,,,,,,,,,,,,,,,,,,,,,,
,,,,,,,62d9be690206e1b4f007eacb,2023-08-16_08h49.11.850,HF_wild_card,2022.2.4,Win32,60.24822268,62d9be690206e1b4f007eacb,64d2fd46c836a06233681665,64dc7f46c030f419ae4411a5,,,,,,,ctch,resources/DB.BMP,resources/DG.BMP,Door3,0.322073841,-0.023173606,1,0,0,0.5999,optionRight,70,1400,1,24,0,24,0,1,,,,,,,,,,,,,,,,,,,,,,,,,,,,,,,,,,,,,,,
,,,,,,,62d9be690206e1b4f007eacb,2023-08-16_08h49.11.850,HF_wild_card,2022.2.4,Win32,60.24822268,62d9be690206e1b4f007eacb,64d2fd46c836a06233681665,64dc7f46c030f419ae4411a5,,,,,,,decisionTrl,resources/DR.BMP,resources/DB.BMP,Door1,-0.286724273,-0.012175962,1,0,0,1.2351,optionLeft,30,1430,1,25,0,25,0,1,,,,,,,,,,,,,,,,,,,,,,,,,,,,,,,,,,,,,,,
,,,,,,,62d9be690206e1b4f007eacb,2023-08-16_08h49.11.850,HF_wild_card,2022.2.4,Win32,60.24822268,62d9be690206e1b4f007eacb,64d2fd46c836a06233681665,64dc7f46c030f419ae4411a5,,,,,,,decisionTrl,resources/DR.BMP,resources/DB.BMP,Door2,0.398271799,-0.05145326,1,0,0,0.5172,optionRight,40,1470,1,26,0,26,0,1,,,,,,,,,,,,,,,,,,,,,,,,,,,,,,,,,,,,,,,
,,,,,,,62d9be690206e1b4f007eacb,2023-08-16_08h49.11.850,HF_wild_card,2022.2.4,Win32,60.24822268,62d9be690206e1b4f007eacb,64d2fd46c836a06233681665,64dc7f46c030f419ae4411a5,,,,,,,decisionTrl,resources/DR.BMP,resources/DB.BMP,Door2,0.385703064,-0.006677141,1,0,0,0.5166,optionRight,40,1510,1,27,0,27,0,1,,,,,,,,,,,,,,,,,,,,,,,,,,,,,,,,,,,,,,,
,,,,,,,62d9be690206e1b4f007eacb,2023-08-16_08h49.11.850,HF_wild_card,2022.2.4,Win32,60.24822268,62d9be690206e1b4f007eacb,64d2fd46c836a06233681665,64dc7f46c030f419ae4411a5,,,,,,,ctch,resources/DG.BMP,resources/DB.BMP,Door2,0.364493323,-0.007462687,1,0,0,0.5337,optionRight,40,1550,1,28,0,28,0,1,,,,,,,,,,,,,,,,,,,,,,,,,,,,,,,,,,,,,,,
,,,,,,,62d9be690206e1b4f007eacb,2023-08-16_08h49.11.850,HF_wild_card,2022.2.4,Win32,60.24822268,62d9be690206e1b4f007eacb,64d2fd46c836a06233681665,64dc7f46c030f419ae4411a5,,,,,,,ctch,resources/DG.BMP,resources/DB.BMP,Door3,-0.295365279,0.009819324,1,0,0,0.6506,optionLeft,70,1620,1,29,0,29,0,1,,,,,,,,,,,,,,,,,,,,,,,,,,,,,,,,,,,,,,,
,,,,,,,62d9be690206e1b4f007eacb,2023-08-16_08h49.11.850,HF_wild_card,2022.2.4,Win32,60.24822268,62d9be690206e1b4f007eacb,64d2fd46c836a06233681665,64dc7f46c030f419ae4411a5,,,,,,,decisionTrl,resources/DY.BMP,resources/DG.BMP,Door4,-0.271013354,0.002749411,1,0,0,0.516,optionLeft,80,1700,1,30,0,30,0,1,,,,,,,,,,,,,,,,,,,,,,,,,,,,,,,,,,,,,,,
,,,,,,,62d9be690206e1b4f007eacb,2023-08-16_08h49.11.850,HF_wild_card,2022.2.4,Win32,60.24822268,62d9be690206e1b4f007eacb,64d2fd46c836a06233681665,64dc7f46c030f419ae4411a5,,,,,,,sngl,resources/DY.BMP,resources/Empty.png,Door4,-0.252945797,0.002749411,1,0,0,0.4665,optionLeft,80,1780,1,31,0,31,0,1,,,,,,,,,,,,,,,,,,,,,,,,,,,,,,,,,,,,,,,
,,,,,,,62d9be690206e1b4f007eacb,2023-08-16_08h49.11.850,HF_wild_card,2022.2.4,Win32,60.24822268,62d9be690206e1b4f007eacb,64d2fd46c836a06233681665,64dc7f46c030f419ae4411a5,,,,,,,decisionTrl,resources/DBN.BMP,resources/DG.BMP,Door3,0.233307148,-0.011390416,1,0,0,0.6837,optionRight,70,1850,1,32,0,32,0,1,,,,,,,,,,,,,,,,,,,,,,,,,,,,,,,,,,,,,,,
,,,,,,,62d9be690206e1b4f007eacb,2023-08-16_08h49.11.850,HF_wild_card,2022.2.4,Win32,60.24822268,62d9be690206e1b4f007eacb,64d2fd46c836a06233681665,64dc7f46c030f419ae4411a5,,,,,,,decisionTrl,resources/DB.BMP,resources/DBN.BMP,Door2,-0.227022781,-0.000392773,1,0,0,1.1185,optionLeft,40,1890,1,33,0,33,0,1,,,,,,,,,,,,,,,,,,,,,,,,,,,,,,,,,,,,,,,
,,,,,,,62d9be690206e1b4f007eacb,2023-08-16_08h49.11.850,HF_wild_card,2022.2.4,Win32,60.24822268,62d9be690206e1b4f007eacb,64d2fd46c836a06233681665,64dc7f46c030f419ae4411a5,,,,,,,decisionTrl,resources/DY.BMP,resources/DG.BMP,Door4,-0.190102121,-0.045954438,1,0,0,1.2249,optionLeft,80,1970,1,34,0,34,0,1,,,,,,,,,,,,,,,,,,,,,,,,,,,,,,,,,,,,,,,
,,,,,,,62d9be690206e1b4f007eacb,2023-08-16_08h49.11.850,HF_wild_card,2022.2.4,Win32,60.24822268,62d9be690206e1b4f007eacb,64d2fd46c836a06233681665,64dc7f46c030f419ae4411a5,,,,,,,decisionTrl,resources/DB.BMP,resources/DR.BMP,Door1,0.331500393,-0.020031422,1,0,0,0.5941,optionRight,30,2000,1,35,0,35,0,1,,,,,,,,,,,,,,,,,,,,,,,,,,,,,,,,,,,,,,,
,,,,,,,62d9be690206e1b4f007eacb,2023-08-16_08h49.11.850,HF_wild_card,2022.2.4,Win32,60.24822268,62d9be690206e1b4f007eacb,64d2fd46c836a06233681665,64dc7f46c030f419ae4411a5,,,,,,,decisionTrl,resources/DR.BMP,resources/DBN.BMP,WildCard_NonEx,0.305577376,-0.003534957,1,0,0,0.9484,optionRight,55,2055,1,36,0,36,0,1,,,,,,,,,,,,,,,,,,,,,,,,,,,,,,,,,,,,,,,
,,,,,,,62d9be690206e1b4f007eacb,2023-08-16_08h49.11.850,HF_wild_card,2022.2.4,Win32,60.24822268,62d9be690206e1b4f007eacb,64d2fd46c836a06233681665,64dc7f46c030f419ae4411a5,,,,,,,sngl,resources/Empty.png,resources/DY.BMP,Door4,0.406127258,-0.01060487,1,0,0,0.5301,optionRight,60,2115,1,37,0,37,0,1,,,,,,,,,,,,,,,,,,,,,,,,,,,,,,,,,,,,,,,
,,,,,,,62d9be690206e1b4f007eacb,2023-08-16_08h49.11.850,HF_wild_card,2022.2.4,Win32,60.24822268,62d9be690206e1b4f007eacb,64d2fd46c836a06233681665,64dc7f46c030f419ae4411a5,,,,,,,decisionTrl,resources/DBN.BMP,resources/DB.BMP,WildCard_NonEx,-0.260801257,0.016889238,1,0,0,2.0098,optionLeft,55,2170,1,38,0,38,0,1,,,,,,,,,,,,,,,,,,,,,,,,,,,,,,,,,,,,,,,
,,,,,,,62d9be690206e1b4f007eacb,2023-08-16_08h49.11.850,HF_wild_card,2022.2.4,Win32,60.24822268,62d9be690206e1b4f007eacb,64d2fd46c836a06233681665,64dc7f46c030f419ae4411a5,,,,,,,decisionTrl,resources/DBN.BMP,resources/DY.BMP,Door4,0.305577376,0.001963865,1,0,0,0.6139,optionRight,80,2250,1,39,0,39,0,1,,,,,,,,,,,,,,,,,,,,,,,,,,,,,,,,,,,,,,,
,,,,,,,62d9be690206e1b4f007eacb,2023-08-16_08h49.11.850,HF_wild_card,2022.2.4,Win32,60.24822268,62d9be690206e1b4f007eacb,64d2fd46c836a06233681665,64dc7f46c030f419ae4411a5,,,,,,,decisionTrl,resources/DBN.BMP,resources/DR.BMP,WildCard_NonEx,-0.215239592,-0.009033778,1,0,0,2.4461,optionLeft,45,2295,1,40,0,40,0,1,,,,,,,,,,,,,,,,,,,,,,,,,,,,,,,,,,,,,,,
,,,,,,,62d9be690206e1b4f007eacb,2023-08-16_08h49.11.850,HF_wild_card,2022.2.4,Win32,60.24822268,62d9be690206e1b4f007eacb,64d2fd46c836a06233681665,64dc7f46c030f419ae4411a5,,,,,,,sngl,resources/Empty.png,resources/DB.BMP,Door2,0.300078555,-0.001963865,1,0,0,0.5305,optionRight,20,2315,1,41,0,41,0,1,,,,,,,,,,,,,,,,,,,,,,,,,,,,,,,,,,,,,,,
,,,,,,,62d9be690206e1b4f007eacb,2023-08-16_08h49.11.850,HF_wild_card,2022.2.4,Win32,60.24822268,62d9be690206e1b4f007eacb,64d2fd46c836a06233681665,64dc7f46c030f419ae4411a5,,,,,,,decisionTrl,resources/DB.BMP,resources/DR.BMP,Door1,0.34171249,-0.013747054,1,0,0,0.7065,optionRight,30,2345,1,42,0,42,0,1,,,,,,,,,,,,,,,,,,,,,,,,,,,,,,,,,,,,,,,
,,,,,,,62d9be690206e1b4f007eacb,2023-08-16_08h49.11.850,HF_wild_card,2022.2.4,Win32,60.24822268,62d9be690206e1b4f007eacb,64d2fd46c836a06233681665,64dc7f46c030f419ae4411a5,,,,,,,ctch,resources/DR.BMP,resources/DY.BMP,Door4,0.350353496,0.000392773,1,0,0,0.9626,optionRight,80,2425,1,43,0,43,0,1,,,,,,,,,,,,,,,,,,,,,,,,,,,,,,,,,,,,,,,
,,,,,,,62d9be690206e1b4f007eacb,2023-08-16_08h49.11.850,HF_wild_card,2022.2.4,Win32,60.24822268,62d9be690206e1b4f007eacb,64d2fd46c836a06233681665,64dc7f46c030f419ae4411a5,,,,,,,,,,,,,,,,,,,,,,,,,,0,0,0,0,1,,,,,,,,,,,,,,,,,,,,,,,,,,,,,,,,,,
,,,,,,,62d9be690206e1b4f007eacb,2023-08-16_08h49.11.850,HF_wild_card,2022.2.4,Win32,60.24822268,62d9be690206e1b4f007eacb,64d2fd46c836a06233681665,64dc7f46c030f419ae4411a5,,,,,,,ctch,resources/DG.BMP,resources/DB.BMP,Door3,-0.257659073,0.006677141,1,0,0,2.2621,optionLeft,70,2495,2,0,0,0,0,1,,,,,,,,,,,,,,,,,,,,,,,,,,,,,,,,,,,,,,,
,,,,,,,62d9be690206e1b4f007eacb,2023-08-16_08h49.11.850,HF_wild_card,2022.2.4,Win32,60.24822268,62d9be690206e1b4f007eacb,64d2fd46c836a06233681665,64dc7f46c030f419ae4411a5,,,,,,,ctch,resources/DY.BMP,resources/DR.BMP,Door4,-0.150039277,0.006677141,1,0,0,0.6141,optionLeft,80,2575,2,1,0,1,0,1,,,,,,,,,,,,,,,,,,,,,,,,,,,,,,,,,,,,,,,
,,,,,,,62d9be690206e1b4f007eacb,2023-08-16_08h49.11.850,HF_wild_card,2022.2.4,Win32,60.24822268,62d9be690206e1b4f007eacb,64d2fd46c836a06233681665,64dc7f46c030f419ae4411a5,,,,,,,decisionTrl,resources/DG.BMP,resources/DY.BMP,Door4,0.256873527,-0.01060487,1,0,0,0.5631,optionRight,60,2635,2,2,0,2,0,1,,,,,,,,,,,,,,,,,,,,,,,,,,,,,,,,,,,,,,,
,,,,,,,62d9be690206e1b4f007eacb,2023-08-16_08h49.11.850,HF_wild_card,2022.2.4,Win32,60.24822268,62d9be690206e1b4f007eacb,64d2fd46c836a06233681665,64dc7f46c030f419ae4411a5,,,,,,,decisionTrl,resources/DR.BMP,resources/DB.BMP,Door2,0.203456402,-0.003534957,1,0,0,2.3017,optionRight,40,2675,2,3,0,3,0,1,,,,,,,,,,,,,,,,,,,,,,,,,,,,,,,,,,,,,,,
,,,,,,,62d9be690206e1b4f007eacb,2023-08-16_08h49.11.850,HF_wild_card,2022.2.4,Win32,60.24822268,62d9be690206e1b4f007eacb,64d2fd46c836a06233681665,64dc7f46c030f419ae4411a5,,,,,,,ctch,resources/DR.BMP,resources/DY.BMP,Door1,-0.148468185,-0.008248233,1,0,0,0.5133,optionLeft,30,2705,2,4,0,4,0,1,,,,,,,,,,,,,,,,,,,,,,,,,,,,,,,,,,,,,,,
,,,,,,,62d9be690206e1b4f007eacb,2023-08-16_08h49.11.850,HF_wild_card,2022.2.4,Win32,60.24822268,62d9be690206e1b4f007eacb,64d2fd46c836a06233681665,64dc7f46c030f419ae4411a5,,,,,,,decisionTrl,resources/DG.BMP,resources/DY.BMP,Door4,0.293794187,-0.009819324,1,0,0,0.4664,optionRight,80,2785,2,5,0,5,0,1,,,,,,,,,,,,,,,,,,,,,,,,,,,,,,,,,,,,,,,
,,,,,,,62d9be690206e1b4f007eacb,2023-08-16_08h49.11.850,HF_wild_card,2022.2.4,Win32,60.24822268,62d9be690206e1b4f007eacb,64d2fd46c836a06233681665,64dc7f46c030f419ae4411a5,,,,,,,decisionTrl,resources/DY.BMP,resources/DG.BMP,Door4,-0.121759623,0.001963865,1,0,0,0.58,optionLeft,80,2865,2,6,0,6,0,1,,,,,,,,,,,,,,,,,,,,,,,,,,,,,,,,,,,,,,,
,,,,,,,62d9be690206e1b4f007eacb,2023-08-16_08h49.11.850,HF_wild_card,2022.2.4,Win32,60.24822268,62d9be690206e1b4f007eacb,64d2fd46c836a06233681665,64dc7f46c030f419ae4411a5,,,,,,,ctch,resources/DY.BMP,resources/DR.BMP,Door4,-0.148468185,-0.007462687,1,0,0,0.5145,optionLeft,80,2945,2,7,0,7,0,1,,,,,,,,,,,,,,,,,,,,,,,,,,,,,,,,,,,,,,,
,,,,,,,62d9be690206e1b4f007eacb,2023-08-16_08h49.11.850,HF_wild_card,2022.2.4,Win32,60.24822268,62d9be690206e1b4f007eacb,64d2fd46c836a06233681665,64dc7f46c030f419ae4411a5,,,,,,,decisionTrl,resources/DY.BMP,resources/DG.BMP,Door4,-0.142969364,-0.005891595,1,0,0,0.6803,optionLeft,80,3025,2,8,0,8,0,1,,,,,,,,,,,,,,,,,,,,,,,,,,,,,,,,,,,,,,,
,,,,,,,62d9be690206e1b4f007eacb,2023-08-16_08h49.11.850,HF_wild_card,2022.2.4,Win32,60.24822268,62d9be690206e1b4f007eacb,64d2fd46c836a06233681665,64dc7f46c030f419ae4411a5,,,,,,,decisionTrl,resources/DY.BMP,resources/DG.BMP,Door4,-0.134328358,-0.004320503,1,0,0,0.5141,optionLeft,60,3085,2,9,0,9,0,1,,,,,,,,,,,,,,,,,,,,,,,,,,,,,,,,,,,,,,,
,,,,,,,62d9be690206e1b4f007eacb,2023-08-16_08h49.11.850,HF_wild_card,2022.2.4,Win32,60.24822268,62d9be690206e1b4f007eacb,64d2fd46c836a06233681665,64dc7f46c030f419ae4411a5,,,,,,,sngl,resources/DBN.BMP,resources/Empty.png,WildCard_NonEx,-0.134328358,0.002749411,1,0,0,0.7638,optionLeft,45,3130,2,10,0,10,0,1,,,,,,,,,,,,,,,,,,,,,,,,,,,,,,,,,,,,,,,
,,,,,,,62d9be690206e1b4f007eacb,2023-08-16_08h49.11.850,HF_wild_card,2022.2.4,Win32,60.24822268,62d9be690206e1b4f007eacb,64d2fd46c836a06233681665,64dc7f46c030f419ae4411a5,,,,,,,sngl,resources/DG.BMP,resources/Empty.png,Door3,-0.127258445,0.000392773,1,0,0,0.7639,optionLeft,70,3200,2,11,0,11,0,1,,,,,,,,,,,,,,,,,,,,,,,,,,,,,,,,,,,,,,,
,,,,,,,62d9be690206e1b4f007eacb,2023-08-16_08h49.11.850,HF_wild_card,2022.2.4,Win32,60.24822268,62d9be690206e1b4f007eacb,64d2fd46c836a06233681665,64dc7f46c030f419ae4411a5,,,,,,,decisionTrl,resources/DR.BMP,resources/DB.BMP,Door2,0.096622152,-0.009033778,1,0,0,1.4665,optionRight,40,3240,2,12,0,12,0,1,,,,,,,,,,,,,,,,,,,,,,,,,,,,,,,,,,,,,,,
,,,,,,,62d9be690206e1b4f007eacb,2023-08-16_08h49.11.850,HF_wild_card,2022.2.4,Win32,60.24822268,62d9be690206e1b4f007eacb,64d2fd46c836a06233681665,64dc7f46c030f419ae4411a5,,,,,,,sngl,resources/DR.BMP,resources/Empty.png,Door1,-0.104477612,-0.003534957,1,0,0,0.5464,optionLeft,30,3270,2,13,0,13,0,1,,,,,,,,,,,,,,,,,,,,,,,,,,,,,,,,,,,,,,,
,,,,,,,62d9be690206e1b4f007eacb,2023-08-16_08h49.11.850,HF_wild_card,2022.2.4,Win32,60.24822268,62d9be690206e1b4f007eacb,64d2fd46c836a06233681665,64dc7f46c030f419ae4411a5,,,,,,,sngl,resources/Empty.png,resources/DG.BMP,Door3,0.192458759,-0.012961508,1,0,0,0.514,optionRight,70,3340,2,14,0,14,0,1,,,,,,,,,,,,,,,,,,,,,,,,,,,,,,,,,,,,,,,
,,,,,,,62d9be690206e1b4f007eacb,2023-08-16_08h49.11.850,HF_wild_card,2022.2.4,Win32,60.24822268,62d9be690206e1b4f007eacb,64d2fd46c836a06233681665,64dc7f46c030f419ae4411a5,,,,,,,ctch,resources/DB.BMP,resources/DG.BMP,Door3,0.267085625,-0.013747054,1,0,0,0.5985,optionRight,70,3410,2,15,0,15,0,1,,,,,,,,,,,,,,,,,,,,,,,,,,,,,,,,,,,,,,,
,,,,,,,62d9be690206e1b4f007eacb,2023-08-16_08h49.11.850,HF_wild_card,2022.2.4,Win32,60.24822268,62d9be690206e1b4f007eacb,64d2fd46c836a06233681665,64dc7f46c030f419ae4411a5,,,,,,,sngl,resources/Empty.png,resources/DBN.BMP,WildCard_NonEx,0.186959937,-0.002749411,1,0,0,0.4795,optionRight,55,3465,2,16,0,16,0,1,,,,,,,,,,,,,,,,,,,,,,,,,,,,,,,,,,,,,,,
,,,,,,,62d9be690206e1b4f007eacb,2023-08-16_08h49.11.850,HF_wild_card,2022.2.4,Win32,60.24822268,62d9be690206e1b4f007eacb,64d2fd46c836a06233681665,64dc7f46c030f419ae4411a5,,,,,,,decisionTrl,resources/DBN.BMP,resources/DR.BMP,Door1,0.252160251,-0.019245876,1,0,0,0.7142,optionRight,30,3495,2,17,0,17,0,1,,,,,,,,,,,,,,,,,,,,,,,,,,,,,,,,,,,,,,,
,,,,,,,62d9be690206e1b4f007eacb,2023-08-16_08h49.11.850,HF_wild_card,2022.2.4,Win32,60.24822268,62d9be690206e1b4f007eacb,64d2fd46c836a06233681665,64dc7f46c030f419ae4411a5,,,,,,,decisionTrl,resources/DR.BMP,resources/DBN.BMP,WildCard_NonEx,0.200314218,-0.002749411,1,0,0,0.4637,optionRight,45,3540,2,18,0,18,0,1,,,,,,,,,,,,,,,,,,,,,,,,,,,,,,,,,,,,,,,
,,,,,,,62d9be690206e1b4f007eacb,2023-08-16_08h49.11.850,HF_wild_card,2022.2.4,Win32,60.24822268,62d9be690206e1b4f007eacb,64d2fd46c836a06233681665,64dc7f46c030f419ae4411a5,,,,,,,decisionTrl,resources/DBN.BMP,resources/DY.BMP,Door4,0.290652003,-0.01060487,1,0,0,0.8476,optionRight,60,3600,2,19,0,19,0,1,,,,,,,,,,,,,,,,,,,,,,,,,,,,,,,,,,,,,,,
,,,,,,,62d9be690206e1b4f007eacb,2023-08-16_08h49.11.850,HF_wild_card,2022.2.4,Win32,60.24822268,62d9be690206e1b4f007eacb,64d2fd46c836a06233681665,64dc7f46c030f419ae4411a5,,,,,,,decisionTrl,resources/DG.BMP,resources/DBN.BMP,WildCard_NonEx,0.260801257,0.001178319,1,0,0,0.898,optionRight,55,3655,2,20,0,20,0,1,,,,,,,,,,,,,,,,,,,,,,,,,,,,,,,,,,,,,,,
,,,,,,,62d9be690206e1b4f007eacb,2023-08-16_08h49.11.850,HF_wild_card,2022.2.4,Win32,60.24822268,62d9be690206e1b4f007eacb,64d2fd46c836a06233681665,64dc7f46c030f419ae4411a5,,,,,,,sngl,resources/DY.BMP,resources/Empty.png,Door4,-0.159465829,-0.004320503,1,0,0,0.7306,optionLeft,60,3715,2,21,0,21,0,1,,,,,,,,,,,,,,,,,,,,,,,,,,,,,,,,,,,,,,,
,,,,,,,62d9be690206e1b4f007eacb,2023-08-16_08h49.11.850,HF_wild_card,2022.2.4,Win32,60.24822268,62d9be690206e1b4f007eacb,64d2fd46c836a06233681665,64dc7f46c030f419ae4411a5,,,,,,,sngl,resources/DBN.BMP,resources/Empty.png,WildCard_NonEx,-0.10683425,-0.006677141,1,0,0,0.7301,optionLeft,55,3770,2,22,0,22,0,1,,,,,,,,,,,,,,,,,,,,,,,,,,,,,,,,,,,,,,,
,,,,,,,62d9be690206e1b4f007eacb,2023-08-16_08h49.11.850,HF_wild_card,2022.2.4,Win32,60.24822268,62d9be690206e1b4f007eacb,64d2fd46c836a06233681665,64dc7f46c030f419ae4411a5,,,,,,,decisionTrl,resources/DY.BMP,resources/DBN.BMP,Door4,-0.160251375,-0.011390416,1,0,0,1.5509,optionLeft,80,3850,2,23,0,23,0,1,,,,,,,,,,,,,,,,,,,,,,,,,,,,,,,,,,,,,,,
,,,,,,,62d9be690206e1b4f007eacb,2023-08-16_08h49.11.850,HF_wild_card,2022.2.4,Win32,60.24822268,62d9be690206e1b4f007eacb,64d2fd46c836a06233681665,64dc7f46c030f419ae4411a5,,,,,,,decisionTrl,resources/DG.BMP,resources/DY.BMP,Door4,0.206598586,-0.004320503,1,0,0,0.5654,optionRight,60,3910,2,24,0,24,0,1,,,,,,,,,,,,,,,,,,,,,,,,,,,,,,,,,,,,,,,
,,,,,,,62d9be690206e1b4f007eacb,2023-08-16_08h49.11.850,HF_wild_card,2022.2.4,Win32,60.24822268,62d9be690206e1b4f007eacb,64d2fd46c836a06233681665,64dc7f46c030f419ae4411a5,,,,,,,decisionTrl,resources/DB.BMP,resources/DR.BMP,Door1,0.191673213,0.000392773,1,0,0,1.8502,optionRight,30,3940,2,25,0,25,0,1,,,,,,,,,,,,,,,,,,,,,,,,,,,,,,,,,,,,,,,
,,,,,,,62d9be690206e1b4f007eacb,2023-08-16_08h49.11.850,HF_wild_card,2022.2.4,Win32,60.24822268,62d9be690206e1b4f007eacb,64d2fd46c836a06233681665,64dc7f46c030f419ae4411a5,,,,,,,sngl,resources/Empty.png,resources/DB.BMP,Door2,0.135113904,-0.005891595,1,0,0,0.5129,optionRight,40,3980,2,26,0,26,0,1,,,,,,,,,,,,,,,,,,,,,,,,,,,,,,,,,,,,,,,
,,,,,,,62d9be690206e1b4f007eacb,2023-08-16_08h49.11.850,HF_wild_card,2022.2.4,Win32,60.24822268,62d9be690206e1b4f007eacb,64d2fd46c836a06233681665,64dc7f46c030f419ae4411a5,,,,,,,decisionTrl,resources/DY.BMP,resources/DG.BMP,Door3,0.207384132,-0.0145326,1,0,0,1.2835,optionRight,70,4050,2,27,0,27,0,1,,,,,,,,,,,,,,,,,,,,,,,,,,,,,,,,,,,,,,,
,,,,,,,62d9be690206e1b4f007eacb,2023-08-16_08h49.11.850,HF_wild_card,2022.2.4,Win32,60.24822268,62d9be690206e1b4f007eacb,64d2fd46c836a06233681665,64dc7f46c030f419ae4411a5,,,,,,,decisionTrl,resources/DB.BMP,resources/DR.BMP,Door2,-0.14375491,-0.001963865,1,0,0,1.5701,optionLeft,20,4070,2,28,0,28,0,1,,,,,,,,,,,,,,,,,,,,,,,,,,,,,,,,,,,,,,,
,,,,,,,62d9be690206e1b4f007eacb,2023-08-16_08h49.11.850,HF_wild_card,2022.2.4,Win32,60.24822268,62d9be690206e1b4f007eacb,64d2fd46c836a06233681665,64dc7f46c030f419ae4411a5,,,,,,,decisionTrl,resources/DB.BMP,resources/DR.BMP,Door1,0.174391202,-0.005891595,1,0,0,0.8084,optionRight,30,4100,2,29,0,29,0,1,,,,,,,,,,,,,,,,,,,,,,,,,,,,,,,,,,,,,,,
,,,,,,,62d9be690206e1b4f007eacb,2023-08-16_08h49.11.850,HF_wild_card,2022.2.4,Win32,60.24822268,62d9be690206e1b4f007eacb,64d2fd46c836a06233681665,64dc7f46c030f419ae4411a5,,,,,,,sngl,resources/Empty.png,resources/DR.BMP,Door1,0.178318932,-0.009819324,1,0,0,0.5143,optionRight,30,4130,2,30,0,30,0,1,,,,,,,,,,,,,,,,,,,,,,,,,,,,,,,,,,,,,,,
,,,,,,,62d9be690206e1b4f007eacb,2023-08-16_08h49.11.850,HF_wild_card,2022.2.4,Win32,60.24822268,62d9be690206e1b4f007eacb,64d2fd46c836a06233681665,64dc7f46c030f419ae4411a5,,,,,,,ctch,resources/DR.BMP,resources/DY.BMP,Door4,0.142183818,-0.015318146,1,0,0,0.6648,optionRight,60,4190,2,31,0,31,0,1,,,,,,,,,,,,,,,,,,,,,,,,,,,,,,,,,,,,,,,
,,,,,,,62d9be690206e1b4f007eacb,2023-08-16_08h49.11.850,HF_wild_card,2022.2.4,Win32,60.24822268,62d9be690206e1b4f007eacb,64d2fd46c836a06233681665,64dc7f46c030f419ae4411a5,,,,,,,decisionTrl,resources/DR.BMP,resources/DB.BMP,Door1,-0.124116261,-0.011390416,1,0,0,1.6673,optionLeft,30,4220,2,32,0,32,0,1,,,,,,,,,,,,,,,,,,,,,,,,,,,,,,,,,,,,,,,
,,,,,,,62d9be690206e1b4f007eacb,2023-08-16_08h49.11.850,HF_wild_card,2022.2.4,Win32,60.24822268,62d9be690206e1b4f007eacb,64d2fd46c836a06233681665,64dc7f46c030f419ae4411a5,,,,,,,decisionTrl,resources/DB.BMP,resources/DBN.BMP,WildCard_NonEx,0.121759623,-0.005891595,1,0,0,1.7007,optionRight,55,4275,2,33,0,33,0,1,,,,,,,,,,,,,,,,,,,,,,,,,,,,,,,,,,,,,,,
,,,,,,,62d9be690206e1b4f007eacb,2023-08-16_08h49.11.850,HF_wild_card,2022.2.4,Win32,60.24822268,62d9be690206e1b4f007eacb,64d2fd46c836a06233681665,64dc7f46c030f419ae4411a5,,,,,,,decisionTrl,resources/DBN.BMP,resources/DB.BMP,WildCard_NonEx,-0.164179104,-0.005891595,1,0,0,0.9821,optionLeft,55,4330,2,34,0,34,0,1,,,,,,,,,,,,,,,,,,,,,,,,,,,,,,,,,,,,,,,
,,,,,,,62d9be690206e1b4f007eacb,2023-08-16_08h49.11.850,HF_wild_card,2022.2.4,Win32,60.24822268,62d9be690206e1b4f007eacb,64d2fd46c836a06233681665,64dc7f46c030f419ae4411a5,,,,,,,sngl,resources/DB.BMP,resources/Empty.png,Door2,-0.142969364,-0.004320503,1,0,0,0.8649,optionLeft,20,4350,2,35,0,35,0,1,,,,,,,,,,,,,,,,,,,,,,,,,,,,,,,,,,,,,,,
,,,,,,,62d9be690206e1b4f007eacb,2023-08-16_08h49.11.850,HF_wild_card,2022.2.4,Win32,60.24822268,62d9be690206e1b4f007eacb,64d2fd46c836a06233681665,64dc7f46c030f419ae4411a5,,,,,,,decisionTrl,resources/DB.BMP,resources/DR.BMP,Door2,-0.13982718,-0.007462687,1,0,0,0.7812,optionLeft,20,4370,2,36,0,36,0,1,,,,,,,,,,,,,,,,,,,,,,,,,,,,,,,,,,,,,,,
,,,,,,,62d9be690206e1b4f007eacb,2023-08-16_08h49.11.850,HF_wild_card,2022.2.4,Win32,60.24822268,62d9be690206e1b4f007eacb,64d2fd46c836a06233681665,64dc7f46c030f419ae4411a5,,,,,,,sngl,resources/Empty.png,resources/DBN.BMP,WildCard_NonEx,0.114689709,-0.013747054,1,0,0,0.5475,optionRight,45,4415,2,37,0,37,0,1,,,,,,,,,,,,,,,,,,,,,,,,,,,,,,,,,,,,,,,
,,,,,,,62d9be690206e1b4f007eacb,2023-08-16_08h49.11.850,HF_wild_card,2022.2.4,Win32,60.24822268,62d9be690206e1b4f007eacb,64d2fd46c836a06233681665,64dc7f46c030f419ae4411a5,,,,,,,decisionTrl,resources/DR.BMP,resources/DB.BMP,Door1,-0.125687353,-0.011390416,1,0,0,1.1795,optionLeft,30,4445,2,38,0,38,0,1,,,,,,,,,,,,,,,,,,,,,,,,,,,,,,,,,,,,,,,
,,,,,,,62d9be690206e1b4f007eacb,2023-08-16_08h49.11.850,HF_wild_card,2022.2.4,Win32,60.24822268,62d9be690206e1b4f007eacb,64d2fd46c836a06233681665,64dc7f46c030f419ae4411a5,,,,,,,decisionTrl,resources/DBN.BMP,resources/DG.BMP,Door3,0.117046347,-0.001963865,1,0,0,1.7843,optionRight,70,4515,2,39,0,39,0,1,,,,,,,,,,,,,,,,,,,,,,,,,,,,,,,,,,,,,,,
,,,,,,,62d9be690206e1b4f007eacb,2023-08-16_08h49.11.850,HF_wild_card,2022.2.4,Win32,60.24822268,62d9be690206e1b4f007eacb,64d2fd46c836a06233681665,64dc7f46c030f419ae4411a5,,,,,,,sngl,resources/Empty.png,resources/DY.BMP,Door4,0.17282011,-0.005891595,1,0,0,0.631,optionRight,80,4595,2,40,0,40,0,1,,,,,,,,,,,,,,,,,,,,,,,,,,,,,,,,,,,,,,,
,,,,,,,62d9be690206e1b4f007eacb,2023-08-16_08h49.11.850,HF_wild_card,2022.2.4,Win32,60.24822268,62d9be690206e1b4f007eacb,64d2fd46c836a06233681665,64dc7f46c030f419ae4411a5,,,,,,,decisionTrl,resources/DG.BMP,resources/DY.BMP,Door4,0.186959937,-0.007462687,1,0,0,0.7814,optionRight,60,4655,2,41,0,41,0,1,,,,,,,,,,,,,,,,,,,,,,,,,,,,,,,,,,,,,,,
,,,,,,,62d9be690206e1b4f007eacb,2023-08-16_08h49.11.850,HF_wild_card,2022.2.4,Win32,60.24822268,62d9be690206e1b4f007eacb,64d2fd46c836a06233681665,64dc7f46c030f419ae4411a5,,,,,,,ctch,resources/DG.BMP,resources/DB.BMP,Door3,-0.150824823,-0.008248233,1,0,0,0.5899,optionLeft,70,4725,2,42,0,42,0,1,,,,,,,,,,,,,,,,,,,,,,,,,,,,,,,,,,,,,,,
,,,,,,,62d9be690206e1b4f007eacb,2023-08-16_08h49.11.850,HF_wild_card,2022.2.4,Win32,60.24822268,62d9be690206e1b4f007eacb,64d2fd46c836a06233681665,64dc7f46c030f419ae4411a5,,,,,,,ctch,resources/DB.BMP,resources/DG.BMP,Door3,0.118617439,-0.007462687,1,0,0,0.798,optionRight,70,4795,2,43,0,43,0,1,,,,,,,,,,,,,,,,,,,,,,,,,,,,,,,,,,,,,,,
,,,,,,,62d9be690206e1b4f007eacb,2023-08-16_08h49.11.850,HF_wild_card,2022.2.4,Win32,60.24822268,62d9be690206e1b4f007eacb,64d2fd46c836a06233681665,64dc7f46c030f419ae4411a5,,,,,,,,,,,,,,,,,,,,,,,,,,1,0,1,0,1,,,,,,,,,,,,,,,,,,,,,,,,,,,,,,,,,,
,,,,,,,62d9be690206e1b4f007eacb,2023-08-16_08h49.11.850,HF_wild_card,2022.2.4,Win32,60.24822268,62d9be690206e1b4f007eacb,64d2fd46c836a06233681665,64dc7f46c030f419ae4411a5,,,,,,,sngl,resources/Empty.png,resources/DB.BMP,Door2,0.186174391,-0.126865672,1,0,0,0.9298,optionRight,20,4815,3,0,0,0,0,1,,,,,,,,,,,,,,,,,,,,,,,,,,,,,,,,,,,,,,,
,,,,,,,62d9be690206e1b4f007eacb,2023-08-16_08h49.11.850,HF_wild_card,2022.2.4,Win32,60.24822268,62d9be690206e1b4f007eacb,64d2fd46c836a06233681665,64dc7f46c030f419ae4411a5,,,,,,,decisionTrl,resources/DBN.BMP,resources/DG.BMP,Door3,0.212882954,-0.000392773,1,0,0,0.7306,optionRight,70,4885,3,1,0,1,0,1,,,,,,,,,,,,,,,,,,,,,,,,,,,,,,,,,,,,,,,
,,,,,,,62d9be690206e1b4f007eacb,2023-08-16_08h49.11.850,HF_wild_card,2022.2.4,Win32,60.24822268,62d9be690206e1b4f007eacb,64d2fd46c836a06233681665,64dc7f46c030f419ae4411a5,,,,,,,decisionTrl,resources/DB.BMP,resources/DBN.BMP,WildCard_NonEx,0.303220738,0.023173606,1,0,0,1.3341,optionRight,55,4940,3,2,0,2,0,1,,,,,,,,,,,,,,,,,,,,,,,,,,,,,,,,,,,,,,,
,,,,,,,62d9be690206e1b4f007eacb,2023-08-16_08h49.11.850,HF_wild_card,2022.2.4,Win32,60.24822268,62d9be690206e1b4f007eacb,64d2fd46c836a06233681665,64dc7f46c030f419ae4411a5,,,,,,,ctch,resources/DB.BMP,resources/DG.BMP,Door3,0.137470542,-0.000392773,1,0,0,1.6994,optionRight,70,5010,3,3,0,3,0,1,,,,,,,,,,,,,,,,,,,,,,,,,,,,,,,,,,,,,,,
,,,,,,,62d9be690206e1b4f007eacb,2023-08-16_08h49.11.850,HF_wild_card,2022.2.4,Win32,60.24822268,62d9be690206e1b4f007eacb,64d2fd46c836a06233681665,64dc7f46c030f419ae4411a5,,,,,,,decisionTrl,resources/DR.BMP,resources/DB.BMP,Door2,0.153181461,-0.009033778,1,0,0,1.2669,optionRight,40,5050,3,4,0,4,0,1,,,,,,,,,,,,,,,,,,,,,,,,,,,,,,,,,,,,,,,
,,,,,,,62d9be690206e1b4f007eacb,2023-08-16_08h49.11.850,HF_wild_card,2022.2.4,Win32,60.24822268,62d9be690206e1b4f007eacb,64d2fd46c836a06233681665,64dc7f46c030f419ae4411a5,,,,,,,decisionTrl,resources/DB.BMP,resources/DR.BMP,Door2,-0.183032207,-0.028672427,1,0,0,0.6633,optionLeft,20,5070,3,5,0,5,0,1,,,,,,,,,,,,,,,,,,,,,,,,,,,,,,,,,,,,,,,
,,,,,,,62d9be690206e1b4f007eacb,2023-08-16_08h49.11.850,HF_wild_card,2022.2.4,Win32,60.24822268,62d9be690206e1b4f007eacb,64d2fd46c836a06233681665,64dc7f46c030f419ae4411a5,,,,,,,sngl,resources/Empty.png,resources/DY.BMP,Door4,0.186174391,-0.008248233,1,0,0,0.5147,optionRight,60,5130,3,6,0,6,0,1,,,,,,,,,,,,,,,,,,,,,,,,,,,,,,,,,,,,,,,
,,,,,,,62d9be690206e1b4f007eacb,2023-08-16_08h49.11.850,HF_wild_card,2022.2.4,Win32,60.24822268,62d9be690206e1b4f007eacb,64d2fd46c836a06233681665,64dc7f46c030f419ae4411a5,,,,,,,sngl,resources/Empty.png,resources/DBN.BMP,WildCard_NonEx,0.156323645,-0.005891595,1,0,0,0.5486,optionRight,45,5175,3,7,0,7,0,1,,,,,,,,,,,,,,,,,,,,,,,,,,,,,,,,,,,,,,,
,,,,,,,62d9be690206e1b4f007eacb,2023-08-16_08h49.11.850,HF_wild_card,2022.2.4,Win32,60.24822268,62d9be690206e1b4f007eacb,64d2fd46c836a06233681665,64dc7f46c030f419ae4411a5,,,,,,,decisionTrl,resources/DG.BMP,resources/DY.BMP,Door4,0.244304792,0.001178319,1,0,0,0.4966,optionRight,60,5235,3,8,0,8,0,1,,,,,,,,,,,,,,,,,,,,,,,,,,,,,,,,,,,,,,,
,,,,,,,62d9be690206e1b4f007eacb,2023-08-16_08h49.11.850,HF_wild_card,2022.2.4,Win32,60.24822268,62d9be690206e1b4f007eacb,64d2fd46c836a06233681665,64dc7f46c030f419ae4411a5,,,,,,,sngl,resources/DBN.BMP,resources/Empty.png,WildCard_NonEx,-0.135113904,0.011390416,1,0,0,0.6476,optionLeft,45,5280,3,9,0,9,0,1,,,,,,,,,,,,,,,,,,,,,,,,,,,,,,,,,,,,,,,
,,,,,,,62d9be690206e1b4f007eacb,2023-08-16_08h49.11.850,HF_wild_card,2022.2.4,Win32,60.24822268,62d9be690206e1b4f007eacb,64d2fd46c836a06233681665,64dc7f46c030f419ae4411a5,,,,,,,decisionTrl,resources/DB.BMP,resources/DR.BMP,Door1,0.2136685,-0.008248233,1,0,0,0.7143,optionRight,30,5310,3,10,0,10,0,1,,,,,,,,,,,,,,,,,,,,,,,,,,,,,,,,,,,,,,,
,,,,,,,62d9be690206e1b4f007eacb,2023-08-16_08h49.11.850,HF_wild_card,2022.2.4,Win32,60.24822268,62d9be690206e1b4f007eacb,64d2fd46c836a06233681665,64dc7f46c030f419ae4411a5,,,,,,,decisionTrl,resources/DG.BMP,resources/DY.BMP,Door3,-0.121759623,0.003534957,1,0,0,0.9813,optionLeft,70,5380,3,11,0,11,0,1,,,,,,,,,,,,,,,,,,,,,,,,,,,,,,,,,,,,,,,
,,,,,,,62d9be690206e1b4f007eacb,2023-08-16_08h49.11.850,HF_wild_card,2022.2.4,Win32,60.24822268,62d9be690206e1b4f007eacb,64d2fd46c836a06233681665,64dc7f46c030f419ae4411a5,,,,,,,ctch,resources/DR.BMP,resources/DY.BMP,Door4,0.129615082,-0.005891595,1,0,0,0.6304,optionRight,60,5440,3,12,0,12,0,1,,,,,,,,,,,,,,,,,,,,,,,,,,,,,,,,,,,,,,,
,,,,,,,62d9be690206e1b4f007eacb,2023-08-16_08h49.11.850,HF_wild_card,2022.2.4,Win32,60.24822268,62d9be690206e1b4f007eacb,64d2fd46c836a06233681665,64dc7f46c030f419ae4411a5,,,,,,,decisionTrl,resources/DG.BMP,resources/DY.BMP,Door3,-0.17282011,0.003534957,1,0,0,0.9306,optionLeft,70,5510,3,13,0,13,0,1,,,,,,,,,,,,,,,,,,,,,,,,,,,,,,,,,,,,,,,
,,,,,,,62d9be690206e1b4f007eacb,2023-08-16_08h49.11.850,HF_wild_card,2022.2.4,Win32,60.24822268,62d9be690206e1b4f007eacb,64d2fd46c836a06233681665,64dc7f46c030f419ae4411a5,,,,,,,sngl,resources/DR.BMP,resources/Empty.png,Door1,-0.148468185,-0.011390416,1,0,0,0.6806,optionLeft,30,5540,3,14,0,14,0,1,,,,,,,,,,,,,,,,,,,,,,,,,,,,,,,,,,,,,,,
,,,,,,,62d9be690206e1b4f007eacb,2023-08-16_08h49.11.850,HF_wild_card,2022.2.4,Win32,60.24822268,62d9be690206e1b4f007eacb,64d2fd46c836a06233681665,64dc7f46c030f419ae4411a5,,,,,,,decisionTrl,resources/DR.BMP,resources/DB.BMP,Door1,-0.122545169,-0.013747054,1,0,0,1.2998,optionLeft,30,5570,3,15,0,15,0,1,,,,,,,,,,,,,,,,,,,,,,,,,,,,,,,,,,,,,,,
,,,,,,,62d9be690206e1b4f007eacb,2023-08-16_08h49.11.850,HF_wild_card,2022.2.4,Win32,60.24822268,62d9be690206e1b4f007eacb,64d2fd46c836a06233681665,64dc7f46c030f419ae4411a5,,,,,,,sngl,resources/Empty.png,resources/DR.BMP,Door1,0.155538099,-0.012175962,1,0,0,0.5301,optionRight,30,5600,3,16,0,16,0,1,,,,,,,,,,,,,,,,,,,,,,,,,,,,,,,,,,,,,,,
,,,,,,,62d9be690206e1b4f007eacb,2023-08-16_08h49.11.850,HF_wild_card,2022.2.4,Win32,60.24822268,62d9be690206e1b4f007eacb,64d2fd46c836a06233681665,64dc7f46c030f419ae4411a5,,,,,,,decisionTrl,resources/DR.BMP,resources/DB.BMP,Door1,-0.152395915,-0.015318146,1,0,0,0.8485,optionLeft,30,5630,3,17,0,17,0,1,,,,,,,,,,,,,,,,,,,,,,,,,,,,,,,,,,,,,,,
,,,,,,,62d9be690206e1b4f007eacb,2023-08-16_08h49.11.850,HF_wild_card,2022.2.4,Win32,60.24822268,62d9be690206e1b4f007eacb,64d2fd46c836a06233681665,64dc7f46c030f419ae4411a5,,,,,,,decisionTrl,resources/DY.BMP,resources/DG.BMP,Door3,0.146897093,-0.007462687,1,0,0,1.1821,optionRight,70,5700,3,18,0,18,0,1,,,,,,,,,,,,,,,,,,,,,,,,,,,,,,,,,,,,,,,
,,,,,,,62d9be690206e1b4f007eacb,2023-08-16_08h49.11.850,HF_wild_card,2022.2.4,Win32,60.24822268,62d9be690206e1b4f007eacb,64d2fd46c836a06233681665,64dc7f46c030f419ae4411a5,,,,,,,ctch,resources/DY.BMP,resources/DR.BMP,Door4,-0.131186174,-0.005891595,1,0,0,0.8468,optionLeft,80,5780,3,19,0,19,0,1,,,,,,,,,,,,,,,,,,,,,,,,,,,,,,,,,,,,,,,
,,,,,,,62d9be690206e1b4f007eacb,2023-08-16_08h49.11.850,HF_wild_card,2022.2.4,Win32,60.24822268,62d9be690206e1b4f007eacb,64d2fd46c836a06233681665,64dc7f46c030f419ae4411a5,,,,,,,sngl,resources/DB.BMP,resources/Empty.png,Door2,-0.156323645,-0.009033778,1,0,0,0.647,optionLeft,40,5820,3,20,0,20,0,1,,,,,,,,,,,,,,,,,,,,,,,,,,,,,,,,,,,,,,,
,,,,,,,62d9be690206e1b4f007eacb,2023-08-16_08h49.11.850,HF_wild_card,2022.2.4,Win32,60.24822268,62d9be690206e1b4f007eacb,64d2fd46c836a06233681665,64dc7f46c030f419ae4411a5,,,,,,,decisionTrl,resources/DB.BMP,resources/DR.BMP,Door2,-0.154752553,-0.023173606,1,0,0,0.597,optionLeft,20,5840,3,21,0,21,0,1,,,,,,,,,,,,,,,,,,,,,,,,,,,,,,,,,,,,,,,
,,,,,,,62d9be690206e1b4f007eacb,2023-08-16_08h49.11.850,HF_wild_card,2022.2.4,Win32,60.24822268,62d9be690206e1b4f007eacb,64d2fd46c836a06233681665,64dc7f46c030f419ae4411a5,,,,,,,sngl,resources/Empty.png,resources/DG.BMP,Door3,0.157109191,-0.013747054,1,0,0,0.5978,optionRight,70,5910,3,22,0,22,0,1,,,,,,,,,,,,,,,,,,,,,,,,,,,,,,,,,,,,,,,
,,,,,,,62d9be690206e1b4f007eacb,2023-08-16_08h49.11.850,HF_wild_card,2022.2.4,Win32,60.24822268,62d9be690206e1b4f007eacb,64d2fd46c836a06233681665,64dc7f46c030f419ae4411a5,,,,,,,sngl,resources/DBN.BMP,resources/Empty.png,WildCard_NonEx,-0.128829537,-0.009033778,1,0,0,0.6648,optionLeft,55,5965,3,23,0,23,0,1,,,,,,,,,,,,,,,,,,,,,,,,,,,,,,,,,,,,,,,
,,,,,,,62d9be690206e1b4f007eacb,2023-08-16_08h49.11.850,HF_wild_card,2022.2.4,Win32,60.24822268,62d9be690206e1b4f007eacb,64d2fd46c836a06233681665,64dc7f46c030f419ae4411a5,,,,,,,ctch,resources/DG.BMP,resources/DB.BMP,Door3,-0.138256088,-0.008248233,1,0,0,1.0808,optionLeft,70,6035,3,24,0,24,0,1,,,,,,,,,,,,,,,,,,,,,,,,,,,,,,,,,,,,,,,
,,,,,,,62d9be690206e1b4f007eacb,2023-08-16_08h49.11.850,HF_wild_card,2022.2.4,Win32,60.24822268,62d9be690206e1b4f007eacb,64d2fd46c836a06233681665,64dc7f46c030f419ae4411a5,,,,,,,decisionTrl,resources/DY.BMP,resources/DBN.BMP,Door4,-0.171249018,-0.006677141,1,0,0,0.6831,optionLeft,60,6095,3,25,0,25,0,1,,,,,,,,,,,,,,,,,,,,,,,,,,,,,,,,,,,,,,,
,,,,,,,62d9be690206e1b4f007eacb,2023-08-16_08h49.11.850,HF_wild_card,2022.2.4,Win32,60.24822268,62d9be690206e1b4f007eacb,64d2fd46c836a06233681665,64dc7f46c030f419ae4411a5,,,,,,,decisionTrl,resources/DB.BMP,resources/DR.BMP,Door1,0.152395915,0.001963865,1,0,0,1.4495,optionRight,30,6125,3,26,0,26,0,1,,,,,,,,,,,,,,,,,,,,,,,,,,,,,,,,,,,,,,,
,,,,,,,62d9be690206e1b4f007eacb,2023-08-16_08h49.11.850,HF_wild_card,2022.2.4,Win32,60.24822268,62d9be690206e1b4f007eacb,64d2fd46c836a06233681665,64dc7f46c030f419ae4411a5,,,,,,,decisionTrl,resources/DBN.BMP,resources/DB.BMP,WildCard_NonEx,-0.102120974,-0.002749411,1,0,0,0.7977,optionLeft,55,6180,3,27,0,27,0,1,,,,,,,,,,,,,,,,,,,,,,,,,,,,,,,,,,,,,,,
,,,,,,,62d9be690206e1b4f007eacb,2023-08-16_08h49.11.850,HF_wild_card,2022.2.4,Win32,60.24822268,62d9be690206e1b4f007eacb,64d2fd46c836a06233681665,64dc7f46c030f419ae4411a5,,,,,,,ctch,resources/DY.BMP,resources/DR.BMP,Door4,-0.106048704,-0.008248233,1,0,0,0.7809,optionLeft,60,6240,3,28,0,28,0,1,,,,,,,,,,,,,,,,,,,,,,,,,,,,,,,,,,,,,,,
,,,,,,,62d9be690206e1b4f007eacb,2023-08-16_08h49.11.850,HF_wild_card,2022.2.4,Win32,60.24822268,62d9be690206e1b4f007eacb,64d2fd46c836a06233681665,64dc7f46c030f419ae4411a5,,,,,,,decisionTrl,resources/DBN.BMP,resources/DR.BMP,WildCard_NonEx,-0.13197172,-0.004320503,1,0,0,0.8663,optionLeft,55,6295,3,29,0,29,0,1,,,,,,,,,,,,,,,,,,,,,,,,,,,,,,,,,,,,,,,
,,,,,,,62d9be690206e1b4f007eacb,2023-08-16_08h49.11.850,HF_wild_card,2022.2.4,Win32,60.24822268,62d9be690206e1b4f007eacb,64d2fd46c836a06233681665,64dc7f46c030f419ae4411a5,,,,,,,decisionTrl,resources/DR.BMP,resources/DB.BMP,Door1,-0.114689709,0.001178319,1,0,0,1.0652,optionLeft,30,6325,3,30,0,30,0,1,,,,,,,,,,,,,,,,,,,,,,,,,,,,,,,,,,,,,,,
,,,,,,,62d9be690206e1b4f007eacb,2023-08-16_08h49.11.850,HF_wild_card,2022.2.4,Win32,60.24822268,62d9be690206e1b4f007eacb,64d2fd46c836a06233681665,64dc7f46c030f419ae4411a5,,,,,,,decisionTrl,resources/DG.BMP,resources/DY.BMP,Door3,-0.113118617,-0.008248233,1,0,0,1.2835,optionLeft,70,6395,3,31,0,31,0,1,,,,,,,,,,,,,,,,,,,,,,,,,,,,,,,,,,,,,,,
,,,,,,,62d9be690206e1b4f007eacb,2023-08-16_08h49.11.850,HF_wild_card,2022.2.4,Win32,60.24822268,62d9be690206e1b4f007eacb,64d2fd46c836a06233681665,64dc7f46c030f419ae4411a5,,,,,,,decisionTrl,resources/DY.BMP,resources/DG.BMP,Door3,0.127258445,-0.001963865,1,0,0,0.8142,optionRight,70,6465,3,32,0,32,0,1,,,,,,,,,,,,,,,,,,,,,,,,,,,,,,,,,,,,,,,
,,,,,,,62d9be690206e1b4f007eacb,2023-08-16_08h49.11.850,HF_wild_card,2022.2.4,Win32,60.24822268,62d9be690206e1b4f007eacb,64d2fd46c836a06233681665,64dc7f46c030f419ae4411a5,,,,,,,ctch,resources/DB.BMP,resources/DG.BMP,Door3,0.109976434,-0.007462687,1,0,0,0.8645,optionRight,70,6535,3,33,0,33,0,1,,,,,,,,,,,,,,,,,,,,,,,,,,,,,,,,,,,,,,,
,,,,,,,62d9be690206e1b4f007eacb,2023-08-16_08h49.11.850,HF_wild_card,2022.2.4,Win32,60.24822268,62d9be690206e1b4f007eacb,64d2fd46c836a06233681665,64dc7f46c030f419ae4411a5,,,,,,,sngl,resources/DG.BMP,resources/Empty.png,Door3,-0.079340141,-0.005891595,1,0,0,0.5651,optionLeft,70,6605,3,34,0,34,0,1,,,,,,,,,,,,,,,,,,,,,,,,,,,,,,,,,,,,,,,
,,,,,,,62d9be690206e1b4f007eacb,2023-08-16_08h49.11.850,HF_wild_card,2022.2.4,Win32,60.24822268,62d9be690206e1b4f007eacb,64d2fd46c836a06233681665,64dc7f46c030f419ae4411a5,,,,,,,ctch,resources/DR.BMP,resources/DY.BMP,Door4,0.123330715,0.004320503,1,0,0,0.664,optionRight,60,6665,3,35,0,35,0,1,,,,,,,,,,,,,,,,,,,,,,,,,,,,,,,,,,,,,,,
,,,,,,,62d9be690206e1b4f007eacb,2023-08-16_08h49.11.850,HF_wild_card,2022.2.4,Win32,60.24822268,62d9be690206e1b4f007eacb,64d2fd46c836a06233681665,64dc7f46c030f419ae4411a5,,,,,,,decisionTrl,resources/DY.BMP,resources/DG.BMP,Door3,0.137470542,0.005106049,1,0,0,0.814,optionRight,70,6735,3,36,0,36,0,1,,,,,,,,,,,,,,,,,,,,,,,,,,,,,,,,,,,,,,,
,,,,,,,62d9be690206e1b4f007eacb,2023-08-16_08h49.11.850,HF_wild_card,2022.2.4,Win32,60.24822268,62d9be690206e1b4f007eacb,64d2fd46c836a06233681665,64dc7f46c030f419ae4411a5,,,,,,,ctch,resources/DG.BMP,resources/DB.BMP,Door3,-0.114689709,-0.007462687,1,0,0,0.7473,optionLeft,70,6805,3,37,0,37,0,1,,,,,,,,,,,,,,,,,,,,,,,,,,,,,,,,,,,,,,,
,,,,,,,62d9be690206e1b4f007eacb,2023-08-16_08h49.11.850,HF_wild_card,2022.2.4,Win32,60.24822268,62d9be690206e1b4f007eacb,64d2fd46c836a06233681665,64dc7f46c030f419ae4411a5,,,,,,,decisionTrl,resources/DBN.BMP,resources/DY.BMP,Door4,0.112333071,-0.008248233,1,0,0,0.6644,optionRight,60,6865,3,38,0,38,0,1,,,,,,,,,,,,,,,,,,,,,,,,,,,,,,,,,,,,,,,
,,,,,,,62d9be690206e1b4f007eacb,2023-08-16_08h49.11.850,HF_wild_card,2022.2.4,Win32,60.24822268,62d9be690206e1b4f007eacb,64d2fd46c836a06233681665,64dc7f46c030f419ae4411a5,,,,,,,sngl,resources/Empty.png,resources/DBN.BMP,WildCard_NonEx,0.167321288,-0.001178319,1,0,0,0.6814,optionRight,55,6920,3,39,0,39,0,1,,,,,,,,,,,,,,,,,,,,,,,,,,,,,,,,,,,,,,,
,,,,,,,62d9be690206e1b4f007eacb,2023-08-16_08h49.11.850,HF_wild_card,2022.2.4,Win32,60.24822268,62d9be690206e1b4f007eacb,64d2fd46c836a06233681665,64dc7f46c030f419ae4411a5,,,,,,,decisionTrl,resources/DY.BMP,resources/DG.BMP,Door4,-0.116260801,-0.005106049,1,0,0,0.7303,optionLeft,60,6980,3,40,0,40,0,1,,,,,,,,,,,,,,,,,,,,,,,,,,,,,,,,,,,,,,,
,,,,,,,62d9be690206e1b4f007eacb,2023-08-16_08h49.11.850,HF_wild_card,2022.2.4,Win32,60.24822268,62d9be690206e1b4f007eacb,64d2fd46c836a06233681665,64dc7f46c030f419ae4411a5,,,,,,,sngl,resources/DY.BMP,resources/Empty.png,Door4,-0.14375491,-0.005891595,1,0,0,0.7474,optionLeft,80,7060,3,41,0,41,0,1,,,,,,,,,,,,,,,,,,,,,,,,,,,,,,,,,,,,,,,
,,,,,,,62d9be690206e1b4f007eacb,2023-08-16_08h49.11.850,HF_wild_card,2022.2.4,Win32,60.24822268,62d9be690206e1b4f007eacb,64d2fd46c836a06233681665,64dc7f46c030f419ae4411a5,,,,,,,decisionTrl,resources/DR.BMP,resources/DBN.BMP,WildCard_NonEx,0.113118617,-0.009819324,1,0,0,1.166,optionRight,45,7105,3,42,0,42,0,1,,,,,,,,,,,,,,,,,,,,,,,,,,,,,,,,,,,,,,,
,,,,,,,62d9be690206e1b4f007eacb,2023-08-16_08h49.11.850,HF_wild_card,2022.2.4,Win32,60.24822268,62d9be690206e1b4f007eacb,64d2fd46c836a06233681665,64dc7f46c030f419ae4411a5,,,,,,,decisionTrl,resources/DG.BMP,resources/DBN.BMP,Door3,-0.123330715,-0.015318146,1,0,0,0.8145,optionLeft,70,7175,3,43,0,43,0,1,,,,,,,,,,,,,,,,,,,,,,,,,,,,,,,,,,,,,,,
,,,,,,,62d9be690206e1b4f007eacb,2023-08-16_08h49.11.850,HF_wild_card,2022.2.4,Win32,60.24822268,62d9be690206e1b4f007eacb,64d2fd46c836a06233681665,64dc7f46c030f419ae4411a5,,,,,,,,,,,,,,,,,,,,,,,,,,2,0,2,0,1,,,,,,,,,,,,,,,,,,,,,,,,,,,,,,,,,,
,,,,,,,62d9be690206e1b4f007eacb,2023-08-16_08h49.11.850,HF_wild_card,2022.2.4,Win32,60.24822268,62d9be690206e1b4f007eacb,64d2fd46c836a06233681665,64dc7f46c030f419ae4411a5,,,,,,,sngl,resources/DB.BMP,resources/Empty.png,Door2,-0.108405342,0.005106049,1,0,0,0.925,optionLeft,20,7195,4,0,0,0,0,1,,,,,,,,,,,,,,,,,,,,,,,,,,,,,,,,,,,,,,,
,,,,,,,62d9be690206e1b4f007eacb,2023-08-16_08h49.11.850,HF_wild_card,2022.2.4,Win32,60.24822268,62d9be690206e1b4f007eacb,64d2fd46c836a06233681665,64dc7f46c030f419ae4411a5,,,,,,,ctch,resources/DG.BMP,resources/DB.BMP,Door3,-0.113118617,-0.001963865,1,0,0,0.8498,optionLeft,70,7265,4,1,0,1,0,1,,,,,,,,,,,,,,,,,,,,,,,,,,,,,,,,,,,,,,,
,,,,,,,62d9be690206e1b4f007eacb,2023-08-16_08h49.11.850,HF_wild_card,2022.2.4,Win32,60.24822268,62d9be690206e1b4f007eacb,64d2fd46c836a06233681665,64dc7f46c030f419ae4411a5,,,,,,,ctch,resources/DR.BMP,resources/DY.BMP,Door4,0.116260801,-0.007462687,1,0,0,0.6981,optionRight,60,7325,4,2,0,2,0,1,,,,,,,,,,,,,,,,,,,,,,,,,,,,,,,,,,,,,,,
,,,,,,,62d9be690206e1b4f007eacb,2023-08-16_08h49.11.850,HF_wild_card,2022.2.4,Win32,60.24822268,62d9be690206e1b4f007eacb,64d2fd46c836a06233681665,64dc7f46c030f419ae4411a5,,,,,,,sngl,resources/Empty.png,resources/DG.BMP,Door3,0.121759623,-0.012961508,1,0,0,0.5127,optionRight,70,7395,4,3,0,3,0,1,,,,,,,,,,,,,,,,,,,,,,,,,,,,,,,,,,,,,,,
,,,,,,,62d9be690206e1b4f007eacb,2023-08-16_08h49.11.850,HF_wild_card,2022.2.4,Win32,60.24822268,62d9be690206e1b4f007eacb,64d2fd46c836a06233681665,64dc7f46c030f419ae4411a5,,,,,,,decisionTrl,resources/DR.BMP,resources/DB.BMP,Door1,-0.137470542,-0.009819324,1,0,0,2.1171,optionLeft,30,7425,4,4,0,4,0,1,,,,,,,,,,,,,,,,,,,,,,,,,,,,,,,,,,,,,,,
,,,,,,,62d9be690206e1b4f007eacb,2023-08-16_08h49.11.850,HF_wild_card,2022.2.4,Win32,60.24822268,62d9be690206e1b4f007eacb,64d2fd46c836a06233681665,64dc7f46c030f419ae4411a5,,,,,,,decisionTrl,resources/DY.BMP,resources/DG.BMP,Door3,0.10290652,-0.027101335,1,0,0,1.1821,optionRight,70,7495,4,5,0,5,0,1,,,,,,,,,,,,,,,,,,,,,,,,,,,,,,,,,,,,,,,
,,,,,,,62d9be690206e1b4f007eacb,2023-08-16_08h49.11.850,HF_wild_card,2022.2.4,Win32,60.24822268,62d9be690206e1b4f007eacb,64d2fd46c836a06233681665,64dc7f46c030f419ae4411a5,,,,,,,decisionTrl,resources/DP.BMP,resources/DB.BMP,WildCard_Ex,-0.120188531,-0.020816968,1,0,0,1.6188,optionLeft,95,7590,4,6,0,6,0,1,,,,,,,,,,,,,,,,,,,,,,,,,,,,,,,,,,,,,,,
,,,,,,,62d9be690206e1b4f007eacb,2023-08-16_08h49.11.850,HF_wild_card,2022.2.4,Win32,60.24822268,62d9be690206e1b4f007eacb,64d2fd46c836a06233681665,64dc7f46c030f419ae4411a5,,,,,,,ctch,resources/DG.BMP,resources/DB.BMP,Door3,-0.119402985,-0.025530244,1,0,0,1.149,optionLeft,70,7660,4,7,0,7,0,1,,,,,,,,,,,,,,,,,,,,,,,,,,,,,,,,,,,,,,,
,,,,,,,62d9be690206e1b4f007eacb,2023-08-16_08h49.11.850,HF_wild_card,2022.2.4,Win32,60.24822268,62d9be690206e1b4f007eacb,64d2fd46c836a06233681665,64dc7f46c030f419ae4411a5,,,,,,,ctch,resources/DB.BMP,resources/DG.BMP,Door3,0.139041634,-0.011390416,1,0,0,0.664,optionRight,70,7730,4,8,0,8,0,1,,,,,,,,,,,,,,,,,,,,,,,,,,,,,,,,,,,,,,,
,,,,,,,62d9be690206e1b4f007eacb,2023-08-16_08h49.11.850,HF_wild_card,2022.2.4,Win32,60.24822268,62d9be690206e1b4f007eacb,64d2fd46c836a06233681665,64dc7f46c030f419ae4411a5,,,,,,,sngl,resources/DY.BMP,resources/Empty.png,Door4,-0.109976434,-0.027886881,1,0,0,0.847,optionLeft,60,7790,4,9,0,9,0,1,,,,,,,,,,,,,,,,,,,,,,,,,,,,,,,,,,,,,,,
,,,,,,,62d9be690206e1b4f007eacb,2023-08-16_08h49.11.850,HF_wild_card,2022.2.4,Win32,60.24822268,62d9be690206e1b4f007eacb,64d2fd46c836a06233681665,64dc7f46c030f419ae4411a5,,,,,,,decisionTrl,resources/DP.BMP,resources/DR.BMP,WildCard_Ex,-0.123330715,-0.027886881,1,0,0,0.6804,optionLeft,5,7795,4,10,0,10,0,1,,,,,,,,,,,,,,,,,,,,,,,,,,,,,,,,,,,,,,,
,,,,,,,62d9be690206e1b4f007eacb,2023-08-16_08h49.11.850,HF_wild_card,2022.2.4,Win32,60.24822268,62d9be690206e1b4f007eacb,64d2fd46c836a06233681665,64dc7f46c030f419ae4411a5,,,,,,,sngl,resources/Empty.png,resources/DR.BMP,Door1,0.10683425,-0.013747054,1,0,0,0.9314,optionRight,30,7825,4,11,0,11,0,1,,,,,,,,,,,,,,,,,,,,,,,,,,,,,,,,,,,,,,,
,,,,,,,62d9be690206e1b4f007eacb,2023-08-16_08h49.11.850,HF_wild_card,2022.2.4,Win32,60.24822268,62d9be690206e1b4f007eacb,64d2fd46c836a06233681665,64dc7f46c030f419ae4411a5,,,,,,,sngl,resources/DP.BMP,resources/Empty.png,WildCard_Ex,-0.112333071,-0.008248233,1,0,0,0.7803,optionLeft,95,7920,4,12,0,12,0,1,,,,,,,,,,,,,,,,,,,,,,,,,,,,,,,,,,,,,,,
,,,,,,,62d9be690206e1b4f007eacb,2023-08-16_08h49.11.850,HF_wild_card,2022.2.4,Win32,60.24822268,62d9be690206e1b4f007eacb,64d2fd46c836a06233681665,64dc7f46c030f419ae4411a5,,,,,,,decisionTrl,resources/DY.BMP,resources/DP.BMP,Door4,-0.124116261,-0.006677141,1,0,0,0.8474,optionLeft,80,8000,4,13,0,13,0,1,,,,,,,,,,,,,,,,,,,,,,,,,,,,,,,,,,,,,,,
,,,,,,,62d9be690206e1b4f007eacb,2023-08-16_08h49.11.850,HF_wild_card,2022.2.4,Win32,60.24822268,62d9be690206e1b4f007eacb,64d2fd46c836a06233681665,64dc7f46c030f419ae4411a5,,,,,,,sngl,resources/DG.BMP,resources/Empty.png,Door3,-0.120974077,-0.008248233,1,0,0,0.6805,optionLeft,70,8070,4,14,0,14,0,1,,,,,,,,,,,,,,,,,,,,,,,,,,,,,,,,,,,,,,,
,,,,,,,62d9be690206e1b4f007eacb,2023-08-16_08h49.11.850,HF_wild_card,2022.2.4,Win32,60.24822268,62d9be690206e1b4f007eacb,64d2fd46c836a06233681665,64dc7f46c030f419ae4411a5,,,,,,,decisionTrl,resources/DY.BMP,resources/DG.BMP,Door3,0.113118617,-0.012175962,1,0,0,1.9521,optionRight,70,8140,4,15,0,15,0,1,,,,,,,,,,,,,,,,,,,,,,,,,,,,,,,,,,,,,,,
,,,,,,,62d9be690206e1b4f007eacb,2023-08-16_08h49.11.850,HF_wild_card,2022.2.4,Win32,60.24822268,62d9be690206e1b4f007eacb,64d2fd46c836a06233681665,64dc7f46c030f419ae4411a5,,,,,,,sngl,resources/Empty.png,resources/DY.BMP,Door4,0.13589945,-0.009819324,1,0,0,0.5648,optionRight,80,8220,4,16,0,16,0,1,,,,,,,,,,,,,,,,,,,,,,,,,,,,,,,,,,,,,,,
,,,,,,,62d9be690206e1b4f007eacb,2023-08-16_08h49.11.850,HF_wild_card,2022.2.4,Win32,60.24822268,62d9be690206e1b4f007eacb,64d2fd46c836a06233681665,64dc7f46c030f419ae4411a5,,,,,,,sngl,resources/DR.BMP,resources/Empty.png,Door1,-0.120188531,-0.009033778,1,0,0,0.7617,optionLeft,30,8250,4,17,0,17,0,1,,,,,,,,,,,,,,,,,,,,,,,,,,,,,,,,,,,,,,,
,,,,,,,62d9be690206e1b4f007eacb,2023-08-16_08h49.11.850,HF_wild_card,2022.2.4,Win32,60.24822268,62d9be690206e1b4f007eacb,64d2fd46c836a06233681665,64dc7f46c030f419ae4411a5,,,,,,,decisionTrl,resources/DP.BMP,resources/DY.BMP,Door4,0.145326002,-0.006677141,1,0,0,0.8644,optionRight,60,8310,4,18,0,18,0,1,,,,,,,,,,,,,,,,,,,,,,,,,,,,,,,,,,,,,,,
,,,,,,,62d9be690206e1b4f007eacb,2023-08-16_08h49.11.850,HF_wild_card,2022.2.4,Win32,60.24822268,62d9be690206e1b4f007eacb,64d2fd46c836a06233681665,64dc7f46c030f419ae4411a5,,,,,,,sngl,resources/Empty.png,resources/DB.BMP,Door2,0.123330715,-0.012175962,1,0,0,0.6307,optionRight,40,8350,4,19,0,19,0,1,,,,,,,,,,,,,,,,,,,,,,,,,,,,,,,,,,,,,,,
,,,,,,,62d9be690206e1b4f007eacb,2023-08-16_08h49.11.850,HF_wild_card,2022.2.4,Win32,60.24822268,62d9be690206e1b4f007eacb,64d2fd46c836a06233681665,64dc7f46c030f419ae4411a5,,,,,,,ctch,resources/DB.BMP,resources/DG.BMP,Door3,0.127258445,-0.028672427,1,0,0,1.2654,optionRight,70,8420,4,20,0,20,0,1,,,,,,,,,,,,,,,,,,,,,,,,,,,,,,,,,,,,,,,
,,,,,,,62d9be690206e1b4f007eacb,2023-08-16_08h49.11.850,HF_wild_card,2022.2.4,Win32,60.24822268,62d9be690206e1b4f007eacb,64d2fd46c836a06233681665,64dc7f46c030f419ae4411a5,,,,,,,ctch,resources/DY.BMP,resources/DR.BMP,Door4,-0.115475255,-0.009819324,1,0,0,0.8309,optionLeft,80,8500,4,21,0,21,0,1,,,,,,,,,,,,,,,,,,,,,,,,,,,,,,,,,,,,,,,
,,,,,,,62d9be690206e1b4f007eacb,2023-08-16_08h49.11.850,HF_wild_card,2022.2.4,Win32,60.24822268,62d9be690206e1b4f007eacb,64d2fd46c836a06233681665,64dc7f46c030f419ae4411a5,,,,,,,decisionTrl,resources/DY.BMP,resources/DG.BMP,Door3,0.122545169,-0.009033778,1,0,0,1.0646,optionRight,70,8570,4,22,0,22,0,1,,,,,,,,,,,,,,,,,,,,,,,,,,,,,,,,,,,,,,,
,,,,,,,62d9be690206e1b4f007eacb,2023-08-16_08h49.11.850,HF_wild_card,2022.2.4,Win32,60.24822268,62d9be690206e1b4f007eacb,64d2fd46c836a06233681665,64dc7f46c030f419ae4411a5,,,,,,,decisionTrl,resources/DB.BMP,resources/DR.BMP,Door1,0.146111548,-0.004320503,1,0,0,1.382,optionRight,30,8600,4,23,0,23,0,1,,,,,,,,,,,,,,,,,,,,,,,,,,,,,,,,,,,,,,,
,,,,,,,62d9be690206e1b4f007eacb,2023-08-16_08h49.11.850,HF_wild_card,2022.2.4,Win32,60.24822268,62d9be690206e1b4f007eacb,64d2fd46c836a06233681665,64dc7f46c030f419ae4411a5,,,,,,,decisionTrl,resources/DG.BMP,resources/DP.BMP,Door3,-0.169677926,-0.020816968,1,0,0,1.1316,optionLeft,70,8670,4,24,0,24,0,1,,,,,,,,,,,,,,,,,,,,,,,,,,,,,,,,,,,,,,,
,,,,,,,62d9be690206e1b4f007eacb,2023-08-16_08h49.11.850,HF_wild_card,2022.2.4,Win32,60.24822268,62d9be690206e1b4f007eacb,64d2fd46c836a06233681665,64dc7f46c030f419ae4411a5,,,,,,,decisionTrl,resources/DB.BMP,resources/DR.BMP,Door1,0.133542812,-0.015318146,1,0,0,1.717,optionRight,30,8700,4,25,0,25,0,1,,,,,,,,,,,,,,,,,,,,,,,,,,,,,,,,,,,,,,,
,,,,,,,62d9be690206e1b4f007eacb,2023-08-16_08h49.11.850,HF_wild_card,2022.2.4,Win32,60.24822268,62d9be690206e1b4f007eacb,64d2fd46c836a06233681665,64dc7f46c030f419ae4411a5,,,,,,,sngl,resources/Empty.png,resources/DP.BMP,WildCard_Ex,0.134328358,0.000392773,1,0,0,0.6972,optionRight,5,8705,4,26,0,26,0,1,,,,,,,,,,,,,,,,,,,,,,,,,,,,,,,,,,,,,,,
,,,,,,,62d9be690206e1b4f007eacb,2023-08-16_08h49.11.850,HF_wild_card,2022.2.4,Win32,60.24822268,62d9be690206e1b4f007eacb,64d2fd46c836a06233681665,64dc7f46c030f419ae4411a5,,,,,,,decisionTrl,resources/DR.BMP,resources/DB.BMP,Door1,-0.119402985,-0.019245876,1,0,0,2.1007,optionLeft,30,8735,4,27,0,27,0,1,,,,,,,,,,,,,,,,,,,,,,,,,,,,,,,,,,,,,,,
,,,,,,,62d9be690206e1b4f007eacb,2023-08-16_08h49.11.850,HF_wild_card,2022.2.4,Win32,60.24822268,62d9be690206e1b4f007eacb,64d2fd46c836a06233681665,64dc7f46c030f419ae4411a5,,,,,,,ctch,resources/DY.BMP,resources/DR.BMP,Door4,-0.093479969,-0.006677141,1,0,0,0.8479,optionLeft,80,8815,4,28,0,28,0,1,,,,,,,,,,,,,,,,,,,,,,,,,,,,,,,,,,,,,,,
,,,,,,,62d9be690206e1b4f007eacb,2023-08-16_08h49.11.850,HF_wild_card,2022.2.4,Win32,60.24822268,62d9be690206e1b4f007eacb,64d2fd46c836a06233681665,64dc7f46c030f419ae4411a5,,,,,,,sngl,resources/Empty.png,resources/DP.BMP,WildCard_Ex,0.107619796,-0.008248233,1,0,0,0.7807,optionRight,95,8910,4,29,0,29,0,1,,,,,,,,,,,,,,,,,,,,,,,,,,,,,,,,,,,,,,,
,,,,,,,62d9be690206e1b4f007eacb,2023-08-16_08h49.11.850,HF_wild_card,2022.2.4,Win32,60.24822268,62d9be690206e1b4f007eacb,64d2fd46c836a06233681665,64dc7f46c030f419ae4411a5,,,,,,,decisionTrl,resources/DY.BMP,resources/DG.BMP,Door3,0.154752553,-0.008248233,1,0,0,1.2839,optionRight,70,8980,4,30,0,30,0,1,,,,,,,,,,,,,,,,,,,,,,,,,,,,,,,,,,,,,,,
,,,,,,,62d9be690206e1b4f007eacb,2023-08-16_08h49.11.850,HF_wild_card,2022.2.4,Win32,60.24822268,62d9be690206e1b4f007eacb,64d2fd46c836a06233681665,64dc7f46c030f419ae4411a5,,,,,,,decisionTrl,resources/DG.BMP,resources/DY.BMP,Door3,-0.137470542,-0.019245876,1,0,0,0.6643,optionLeft,70,9050,4,31,0,31,0,1,,,,,,,,,,,,,,,,,,,,,,,,,,,,,,,,,,,,,,,
,,,,,,,62d9be690206e1b4f007eacb,2023-08-16_08h49.11.850,HF_wild_card,2022.2.4,Win32,60.24822268,62d9be690206e1b4f007eacb,64d2fd46c836a06233681665,64dc7f46c030f419ae4411a5,,,,,,,decisionTrl,resources/DP.BMP,resources/DG.BMP,Door3,0.121759623,-0.001963865,1,0,0,0.7303,optionRight,70,9120,4,32,0,32,0,1,,,,,,,,,,,,,,,,,,,,,,,,,,,,,,,,,,,,,,,
,,,,,,,62d9be690206e1b4f007eacb,2023-08-16_08h49.11.850,HF_wild_card,2022.2.4,Win32,60.24822268,62d9be690206e1b4f007eacb,64d2fd46c836a06233681665,64dc7f46c030f419ae4411a5,,,,,,,decisionTrl,resources/DG.BMP,resources/DY.BMP,Door3,-0.113904163,-0.009819324,1,0,0,0.8808,optionLeft,70,9190,4,33,0,33,0,1,,,,,,,,,,,,,,,,,,,,,,,,,,,,,,,,,,,,,,,
,,,,,,,62d9be690206e1b4f007eacb,2023-08-16_08h49.11.850,HF_wild_card,2022.2.4,Win32,60.24822268,62d9be690206e1b4f007eacb,64d2fd46c836a06233681665,64dc7f46c030f419ae4411a5,,,,,,,decisionTrl,resources/DR.BMP,resources/DB.BMP,Door1,-0.123330715,-0.0145326,1,0,0,1.835,optionLeft,30,9220,4,34,0,34,0,1,,,,,,,,,,,,,,,,,,,,,,,,,,,,,,,,,,,,,,,
,,,,,,,62d9be690206e1b4f007eacb,2023-08-16_08h49.11.850,HF_wild_card,2022.2.4,Win32,60.24822268,62d9be690206e1b4f007eacb,64d2fd46c836a06233681665,64dc7f46c030f419ae4411a5,,,,,,,decisionTrl,resources/DG.BMP,resources/DY.BMP,Door3,-0.118617439,-0.009819324,1,0,0,0.8811,optionLeft,70,9290,4,35,0,35,0,1,,,,,,,,,,,,,,,,,,,,,,,,,,,,,,,,,,,,,,,
,,,,,,,62d9be690206e1b4f007eacb,2023-08-16_08h49.11.850,HF_wild_card,2022.2.4,Win32,60.24822268,62d9be690206e1b4f007eacb,64d2fd46c836a06233681665,64dc7f46c030f419ae4411a5,,,,,,,decisionTrl,resources/DB.BMP,resources/DP.BMP,Door2,-0.117831893,-0.017674784,1,0,0,2.0846,optionLeft,20,9310,4,36,0,36,0,1,,,,,,,,,,,,,,,,,,,,,,,,,,,,,,,,,,,,,,,
,,,,,,,62d9be690206e1b4f007eacb,2023-08-16_08h49.11.850,HF_wild_card,2022.2.4,Win32,60.24822268,62d9be690206e1b4f007eacb,64d2fd46c836a06233681665,64dc7f46c030f419ae4411a5,,,,,,,sngl,resources/DP.BMP,resources/Empty.png,WildCard_Ex,-0.129615082,-0.017674784,1,0,0,0.6837,optionLeft,5,9315,4,37,0,37,0,1,,,,,,,,,,,,,,,,,,,,,,,,,,,,,,,,,,,,,,,
,,,,,,,62d9be690206e1b4f007eacb,2023-08-16_08h49.11.850,HF_wild_card,2022.2.4,Win32,60.24822268,62d9be690206e1b4f007eacb,64d2fd46c836a06233681665,64dc7f46c030f419ae4411a5,,,,,,,decisionTrl,resources/DB.BMP,resources/DR.BMP,Door2,-0.121759623,-0.025530244,1,0,0,1.0979,optionLeft,20,9335,4,38,0,38,0,1,,,,,,,,,,,,,,,,,,,,,,,,,,,,,,,,,,,,,,,
,,,,,,,62d9be690206e1b4f007eacb,2023-08-16_08h49.11.850,HF_wild_card,2022.2.4,Win32,60.24822268,62d9be690206e1b4f007eacb,64d2fd46c836a06233681665,64dc7f46c030f419ae4411a5,,,,,,,ctch,resources/DR.BMP,resources/DY.BMP,Door4,0.157894737,-0.020816968,1,0,0,1.2821,optionRight,80,9415,4,39,0,39,0,1,,,,,,,,,,,,,,,,,,,,,,,,,,,,,,,,,,,,,,,
,,,,,,,62d9be690206e1b4f007eacb,2023-08-16_08h49.11.850,HF_wild_card,2022.2.4,Win32,60.24822268,62d9be690206e1b4f007eacb,64d2fd46c836a06233681665,64dc7f46c030f419ae4411a5,,,,,,,decisionTrl,resources/DR.BMP,resources/DB.BMP,Door2,0.150824823,-0.004320503,1,0,0,1.8601,optionRight,40,9455,4,40,0,40,0,1,,,,,,,,,,,,,,,,,,,,,,,,,,,,,,,,,,,,,,,
,,,,,,,62d9be690206e1b4f007eacb,2023-08-16_08h49.11.850,HF_wild_card,2022.2.4,Win32,60.24822268,62d9be690206e1b4f007eacb,64d2fd46c836a06233681665,64dc7f46c030f419ae4411a5,,,,,,,decisionTrl,resources/DB.BMP,resources/DR.BMP,Door2,-0.133542812,-0.001178319,1,0,0,0.581,optionLeft,20,9475,4,41,0,41,0,1,,,,,,,,,,,,,,,,,,,,,,,,,,,,,,,,,,,,,,,
,,,,,,,62d9be690206e1b4f007eacb,2023-08-16_08h49.11.850,HF_wild_card,2022.2.4,Win32,60.24822268,62d9be690206e1b4f007eacb,64d2fd46c836a06233681665,64dc7f46c030f419ae4411a5,,,,,,,decisionTrl,resources/DG.BMP,resources/DY.BMP,Door3,-0.132757266,-0.009819324,1,0,0,1.0319,optionLeft,70,9545,4,42,0,42,0,1,,,,,,,,,,,,,,,,,,,,,,,,,,,,,,,,,,,,,,,
,,,,,,,62d9be690206e1b4f007eacb,2023-08-16_08h49.11.850,HF_wild_card,2022.2.4,Win32,60.24822268,62d9be690206e1b4f007eacb,64d2fd46c836a06233681665,64dc7f46c030f419ae4411a5,,,,,,,decisionTrl,resources/DR.BMP,resources/DP.BMP,WildCard_Ex,0.157894737,-0.001178319,1,0,0,2.7894,optionRight,5,9550,4,43,0,43,0,1,,,,,,,,,,,,,,,,,,,,,,,,,,,,,,,,,,,,,,,
,,,,,,,62d9be690206e1b4f007eacb,2023-08-16_08h49.11.850,HF_wild_card,2022.2.4,Win32,60.24822268,62d9be690206e1b4f007eacb,64d2fd46c836a06233681665,64dc7f46c030f419ae4411a5,,,,,,,,,,,,,,,,,,,,,,,,,,3,0,3,0,1,,,,,,,,,,,,,,,,,,,,,,,,,,,,,,,,,,
,,,,,,,62d9be690206e1b4f007eacb,2023-08-16_08h49.11.850,HF_wild_card,2022.2.4,Win32,60.24822268,62d9be690206e1b4f007eacb,64d2fd46c836a06233681665,64dc7f46c030f419ae4411a5,,,,,,,decisionTrl,resources/DY.BMP,resources/DG.BMP,Door3,0.17674784,-0.066378633,1,0,0,0.9433,optionRight,70,9620,5,0,0,0,0,1,,,,,,,,,,,,,,,,,,,,,,,,,,,,,,,,,,,,,,,
,,,,,,,62d9be690206e1b4f007eacb,2023-08-16_08h49.11.850,HF_wild_card,2022.2.4,Win32,60.24822268,62d9be690206e1b4f007eacb,64d2fd46c836a06233681665,64dc7f46c030f419ae4411a5,,,,,,,ctch,resources/DR.BMP,resources/DY.BMP,Door4,0.146111548,-0.005891595,1,0,0,0.7322,optionRight,60,9680,5,1,0,1,0,1,,,,,,,,,,,,,,,,,,,,,,,,,,,,,,,,,,,,,,,
,,,,,,,62d9be690206e1b4f007eacb,2023-08-16_08h49.11.850,HF_wild_card,2022.2.4,Win32,60.24822268,62d9be690206e1b4f007eacb,64d2fd46c836a06233681665,64dc7f46c030f419ae4411a5,,,,,,,sngl,resources/Empty.png,resources/DB.BMP,Door2,0.17282011,-0.020816968,1,0,0,0.5985,optionRight,20,9700,5,2,0,2,0,1,,,,,,,,,,,,,,,,,,,,,,,,,,,,,,,,,,,,,,,
,,,,,,,62d9be690206e1b4f007eacb,2023-08-16_08h49.11.850,HF_wild_card,2022.2.4,Win32,60.24822268,62d9be690206e1b4f007eacb,64d2fd46c836a06233681665,64dc7f46c030f419ae4411a5,,,,,,,decisionTrl,resources/DP.BMP,resources/DR.BMP,Door1,0.128043991,-0.007462687,1,0,0,1.1838,optionRight,30,9730,5,3,0,3,0,1,,,,,,,,,,,,,,,,,,,,,,,,,,,,,,,,,,,,,,,
,,,,,,,62d9be690206e1b4f007eacb,2023-08-16_08h49.11.850,HF_wild_card,2022.2.4,Win32,60.24822268,62d9be690206e1b4f007eacb,64d2fd46c836a06233681665,64dc7f46c030f419ae4411a5,,,,,,,decisionTrl,resources/DR.BMP,resources/DP.BMP,Door1,-0.139041634,-0.012175962,1,0,0,0.9638,optionLeft,30,9760,5,4,0,4,0,1,,,,,,,,,,,,,,,,,,,,,,,,,,,,,,,,,,,,,,,
,,,,,,,62d9be690206e1b4f007eacb,2023-08-16_08h49.11.850,HF_wild_card,2022.2.4,Win32,60.24822268,62d9be690206e1b4f007eacb,64d2fd46c836a06233681665,64dc7f46c030f419ae4411a5,,,,,,,ctch,resources/DY.BMP,resources/DR.BMP,Door4,-0.160251375,-0.01846033,1,0,0,1.2835,optionLeft,60,9820,5,5,0,5,0,1,,,,,,,,,,,,,,,,,,,,,,,,,,,,,,,,,,,,,,,
,,,,,,,62d9be690206e1b4f007eacb,2023-08-16_08h49.11.850,HF_wild_card,2022.2.4,Win32,60.24822268,62d9be690206e1b4f007eacb,64d2fd46c836a06233681665,64dc7f46c030f419ae4411a5,,,,,,,sngl,resources/Empty.png,resources/DR.BMP,Door1,0.156323645,-0.015318146,1,0,0,0.6986,optionRight,30,9850,5,6,0,6,0,1,,,,,,,,,,,,,,,,,,,,,,,,,,,,,,,,,,,,,,,
,,,,,,,62d9be690206e1b4f007eacb,2023-08-16_08h49.11.850,HF_wild_card,2022.2.4,Win32,60.24822268,62d9be690206e1b4f007eacb,64d2fd46c836a06233681665,64dc7f46c030f419ae4411a5,,,,,,,decisionTrl,resources/DB.BMP,resources/DR.BMP,Door1,0.120974077,-0.024744698,1,0,0,0.8657,optionRight,30,9880,5,7,0,7,0,1,,,,,,,,,,,,,,,,,,,,,,,,,,,,,,,,,,,,,,,
,,,,,,,62d9be690206e1b4f007eacb,2023-08-16_08h49.11.850,HF_wild_card,2022.2.4,Win32,60.24822268,62d9be690206e1b4f007eacb,64d2fd46c836a06233681665,64dc7f46c030f419ae4411a5,,,,,,,sngl,resources/Empty.png,resources/DP.BMP,WildCard_Ex,0.10683425,-0.002749411,1,0,0,0.6298,optionRight,5,9885,5,8,0,8,0,1,,,,,,,,,,,,,,,,,,,,,,,,,,,,,,,,,,,,,,,
,,,,,,,62d9be690206e1b4f007eacb,2023-08-16_08h49.11.850,HF_wild_card,2022.2.4,Win32,60.24822268,62d9be690206e1b4f007eacb,64d2fd46c836a06233681665,64dc7f46c030f419ae4411a5,,,,,,,sngl,resources/Empty.png,resources/DY.BMP,Door4,0.142969364,-0.009033778,1,0,0,0.4629,optionRight,60,9945,5,9,0,9,0,1,,,,,,,,,,,,,,,,,,,,,,,,,,,,,,,,,,,,,,,
,,,,,,,62d9be690206e1b4f007eacb,2023-08-16_08h49.11.850,HF_wild_card,2022.2.4,Win32,60.24822268,62d9be690206e1b4f007eacb,64d2fd46c836a06233681665,64dc7f46c030f419ae4411a5,,,,,,,decisionTrl,resources/DY.BMP,resources/DP.BMP,Door4,-0.113904163,-0.015318146,1,0,0,1.1808,optionLeft,80,10025,5,10,0,10,0,1,,,,,,,,,,,,,,,,,,,,,,,,,,,,,,,,,,,,,,,
,,,,,,,62d9be690206e1b4f007eacb,2023-08-16_08h49.11.850,HF_wild_card,2022.2.4,Win32,60.24822268,62d9be690206e1b4f007eacb,64d2fd46c836a06233681665,64dc7f46c030f419ae4411a5,,,,,,,decisionTrl,resources/DG.BMP,resources/DY.BMP,Door4,0.140612726,-0.007462687,1,0,0,0.5157,optionRight,60,10085,5,11,0,11,0,1,,,,,,,,,,,,,,,,,,,,,,,,,,,,,,,,,,,,,,,
,,,,,,,62d9be690206e1b4f007eacb,2023-08-16_08h49.11.850,HF_wild_card,2022.2.4,Win32,60.24822268,62d9be690206e1b4f007eacb,64d2fd46c836a06233681665,64dc7f46c030f419ae4411a5,,,,,,,decisionTrl,resources/DG.BMP,resources/DP.BMP,Door3,-0.121759623,-0.009033778,1,0,0,1.3002,optionLeft,70,10155,5,12,0,12,0,1,,,,,,,,,,,,,,,,,,,,,,,,,,,,,,,,,,,,,,,
,,,,,,,62d9be690206e1b4f007eacb,2023-08-16_08h49.11.850,HF_wild_card,2022.2.4,Win32,60.24822268,62d9be690206e1b4f007eacb,64d2fd46c836a06233681665,64dc7f46c030f419ae4411a5,,,,,,,ctch,resources/DB.BMP,resources/DG.BMP,Door3,0.149253731,-0.002749411,1,0,0,0.681,optionRight,70,10225,5,13,0,13,0,1,,,,,,,,,,,,,,,,,,,,,,,,,,,,,,,,,,,,,,,
,,,,,,,62d9be690206e1b4f007eacb,2023-08-16_08h49.11.850,HF_wild_card,2022.2.4,Win32,60.24822268,62d9be690206e1b4f007eacb,64d2fd46c836a06233681665,64dc7f46c030f419ae4411a5,,,,,,,sngl,resources/DY.BMP,resources/Empty.png,Door4,-0.09897879,-0.009819324,1,0,0,0.5982,optionLeft,80,10305,5,14,0,14,0,1,,,,,,,,,,,,,,,,,,,,,,,,,,,,,,,,,,,,,,,
,,,,,,,62d9be690206e1b4f007eacb,2023-08-16_08h49.11.850,HF_wild_card,2022.2.4,Win32,60.24822268,62d9be690206e1b4f007eacb,64d2fd46c836a06233681665,64dc7f46c030f419ae4411a5,,,,,,,decisionTrl,resources/DP.BMP,resources/DY.BMP,Door4,0.137470542,-0.002749411,1,0,0,0.7472,optionRight,80,10385,5,15,0,15,0,1,,,,,,,,,,,,,,,,,,,,,,,,,,,,,,,,,,,,,,,
,,,,,,,62d9be690206e1b4f007eacb,2023-08-16_08h49.11.850,HF_wild_card,2022.2.4,Win32,60.24822268,62d9be690206e1b4f007eacb,64d2fd46c836a06233681665,64dc7f46c030f419ae4411a5,,,,,,,decisionTrl,resources/DB.BMP,resources/DR.BMP,Door1,0.154752553,-0.012175962,1,0,0,1.4672,optionRight,30,10415,5,16,0,16,0,1,,,,,,,,,,,,,,,,,,,,,,,,,,,,,,,,,,,,,,,
,,,,,,,62d9be690206e1b4f007eacb,2023-08-16_08h49.11.850,HF_wild_card,2022.2.4,Win32,60.24822268,62d9be690206e1b4f007eacb,64d2fd46c836a06233681665,64dc7f46c030f419ae4411a5,,,,,,,sngl,resources/DR.BMP,resources/Empty.png,Door1,-0.120188531,-0.004320503,1,0,0,0.6147,optionLeft,30,10445,5,17,0,17,0,1,,,,,,,,,,,,,,,,,,,,,,,,,,,,,,,,,,,,,,,
,,,,,,,62d9be690206e1b4f007eacb,2023-08-16_08h49.11.850,HF_wild_card,2022.2.4,Win32,60.24822268,62d9be690206e1b4f007eacb,64d2fd46c836a06233681665,64dc7f46c030f419ae4411a5,,,,,,,decisionTrl,resources/DB.BMP,resources/DR.BMP,Door1,0.121759623,-0.001963865,1,0,0,0.75,optionRight,30,10475,5,18,0,18,0,1,,,,,,,,,,,,,,,,,,,,,,,,,,,,,,,,,,,,,,,
,,,,,,,62d9be690206e1b4f007eacb,2023-08-16_08h49.11.850,HF_wild_card,2022.2.4,Win32,60.24822268,62d9be690206e1b4f007eacb,64d2fd46c836a06233681665,64dc7f46c030f419ae4411a5,,,,,,,decisionTrl,resources/DG.BMP,resources/DY.BMP,Door3,-0.114689709,-0.009033778,1,0,0,1.5349,optionLeft,70,10545,5,19,0,19,0,1,,,,,,,,,,,,,,,,,,,,,,,,,,,,,,,,,,,,,,,
,,,,,,,62d9be690206e1b4f007eacb,2023-08-16_08h49.11.850,HF_wild_card,2022.2.4,Win32,60.24822268,62d9be690206e1b4f007eacb,64d2fd46c836a06233681665,64dc7f46c030f419ae4411a5,,,,,,,decisionTrl,resources/DY.BMP,resources/DG.BMP,Door3,0.092694423,-0.012175962,1,0,0,0.6495,optionRight,70,10615,5,20,0,20,0,1,,,,,,,,,,,,,,,,,,,,,,,,,,,,,,,,,,,,,,,
,,,,,,,62d9be690206e1b4f007eacb,2023-08-16_08h49.11.850,HF_wild_card,2022.2.4,Win32,60.24822268,62d9be690206e1b4f007eacb,64d2fd46c836a06233681665,64dc7f46c030f419ae4411a5,,,,,,,sngl,resources/DB.BMP,resources/Empty.png,Door2,-0.119402985,-0.005106049,1,0,0,0.6486,optionLeft,40,10655,5,21,0,21,0,1,,,,,,,,,,,,,,,,,,,,,,,,,,,,,,,,,,,,,,,
,,,,,,,62d9be690206e1b4f007eacb,2023-08-16_08h49.11.850,HF_wild_card,2022.2.4,Win32,60.24822268,62d9be690206e1b4f007eacb,64d2fd46c836a06233681665,64dc7f46c030f419ae4411a5,,,,,,,decisionTrl,resources/DP.BMP,resources/DG.BMP,Door3,0.10683425,-0.002749411,1,0,0,1.1847,optionRight,70,10725,5,22,0,22,0,1,,,,,,,,,,,,,,,,,,,,,,,,,,,,,,,,,,,,,,,
,,,,,,,62d9be690206e1b4f007eacb,2023-08-16_08h49.11.850,HF_wild_card,2022.2.4,Win32,60.24822268,62d9be690206e1b4f007eacb,64d2fd46c836a06233681665,64dc7f46c030f419ae4411a5,,,,,,,decisionTrl,resources/DR.BMP,resources/DB.BMP,Door1,-0.118617439,-0.012961508,1,0,0,0.8973,optionLeft,30,10755,5,23,0,23,0,1,,,,,,,,,,,,,,,,,,,,,,,,,,,,,,,,,,,,,,,
,,,,,,,62d9be690206e1b4f007eacb,2023-08-16_08h49.11.850,HF_wild_card,2022.2.4,Win32,60.24822268,62d9be690206e1b4f007eacb,64d2fd46c836a06233681665,64dc7f46c030f419ae4411a5,,,,,,,sngl,resources/Empty.png,resources/DG.BMP,Door3,0.109190888,0.001963865,1,0,0,1.0149,optionRight,70,10825,5,24,0,24,0,1,,,,,,,,,,,,,,,,,,,,,,,,,,,,,,,,,,,,,,,
,,,,,,,62d9be690206e1b4f007eacb,2023-08-16_08h49.11.850,HF_wild_card,2022.2.4,Win32,60.24822268,62d9be690206e1b4f007eacb,64d2fd46c836a06233681665,64dc7f46c030f419ae4411a5,,,,,,,ctch,resources/DR.BMP,resources/DY.BMP,Door4,0.125687353,-0.003534957,1,0,0,1.2323,optionRight,80,10905,5,25,0,25,0,1,,,,,,,,,,,,,,,,,,,,,,,,,,,,,,,,,,,,,,,
,,,,,,,62d9be690206e1b4f007eacb,2023-08-16_08h49.11.850,HF_wild_card,2022.2.4,Win32,60.24822268,62d9be690206e1b4f007eacb,64d2fd46c836a06233681665,64dc7f46c030f419ae4411a5,,,,,,,decisionTrl,resources/DG.BMP,resources/DY.BMP,Door4,0.160251375,-0.006677141,1,0,0,0.5136,optionRight,60,10965,5,26,0,26,0,1,,,,,,,,,,,,,,,,,,,,,,,,,,,,,,,,,,,,,,,
,,,,,,,62d9be690206e1b4f007eacb,2023-08-16_08h49.11.850,HF_wild_card,2022.2.4,Win32,60.24822268,62d9be690206e1b4f007eacb,64d2fd46c836a06233681665,64dc7f46c030f419ae4411a5,,,,,,,decisionTrl,resources/DP.BMP,resources/DB.BMP,Door2,0.161822467,-0.009033778,1,0,0,0.7639,optionRight,40,11005,5,27,0,27,0,1,,,,,,,,,,,,,,,,,,,,,,,,,,,,,,,,,,,,,,,
,,,,,,,62d9be690206e1b4f007eacb,2023-08-16_08h49.11.850,HF_wild_card,2022.2.4,Win32,60.24822268,62d9be690206e1b4f007eacb,64d2fd46c836a06233681665,64dc7f46c030f419ae4411a5,,,,,,,sngl,resources/DP.BMP,resources/Empty.png,WildCard_Ex,-0.161822467,-0.020031422,1,0,0,0.5491,optionLeft,5,11010,5,28,0,28,0,1,,,,,,,,,,,,,,,,,,,,,,,,,,,,,,,,,,,,,,,
,,,,,,,62d9be690206e1b4f007eacb,2023-08-16_08h49.11.850,HF_wild_card,2022.2.4,Win32,60.24822268,62d9be690206e1b4f007eacb,64d2fd46c836a06233681665,64dc7f46c030f419ae4411a5,,,,,,,ctch,resources/DY.BMP,resources/DR.BMP,Door4,-0.115475255,-0.012175962,1,0,0,0.914,optionLeft,60,11070,5,29,0,29,0,1,,,,,,,,,,,,,,,,,,,,,,,,,,,,,,,,,,,,,,,
,,,,,,,62d9be690206e1b4f007eacb,2023-08-16_08h49.11.850,HF_wild_card,2022.2.4,Win32,60.24822268,62d9be690206e1b4f007eacb,64d2fd46c836a06233681665,64dc7f46c030f419ae4411a5,,,,,,,decisionTrl,resources/DR.BMP,resources/DB.BMP,Door1,-0.117831893,-0.008248233,1,0,0,1.5157,optionLeft,30,11100,5,30,0,30,0,1,,,,,,,,,,,,,,,,,,,,,,,,,,,,,,,,,,,,,,,
,,,,,,,62d9be690206e1b4f007eacb,2023-08-16_08h49.11.850,HF_wild_card,2022.2.4,Win32,60.24822268,62d9be690206e1b4f007eacb,64d2fd46c836a06233681665,64dc7f46c030f419ae4411a5,,,,,,,ctch,resources/DB.BMP,resources/DG.BMP,Door3,0.128829537,-0.008248233,1,0,0,0.9155,optionRight,70,11170,5,31,0,31,0,1,,,,,,,,,,,,,,,,,,,,,,,,,,,,,,,,,,,,,,,
,,,,,,,62d9be690206e1b4f007eacb,2023-08-16_08h49.11.850,HF_wild_card,2022.2.4,Win32,60.24822268,62d9be690206e1b4f007eacb,64d2fd46c836a06233681665,64dc7f46c030f419ae4411a5,,,,,,,decisionTrl,resources/DG.BMP,resources/DY.BMP,Door3,-0.133542812,-0.009033778,1,0,0,0.6473,optionLeft,70,11240,5,32,0,32,0,1,,,,,,,,,,,,,,,,,,,,,,,,,,,,,,,,,,,,,,,
,,,,,,,62d9be690206e1b4f007eacb,2023-08-16_08h49.11.850,HF_wild_card,2022.2.4,Win32,60.24822268,62d9be690206e1b4f007eacb,64d2fd46c836a06233681665,64dc7f46c030f419ae4411a5,,,,,,,sngl,resources/DG.BMP,resources/Empty.png,Door3,-0.120188531,-0.016889238,1,0,0,0.6803,optionLeft,70,11310,5,33,0,33,0,1,,,,,,,,,,,,,,,,,,,,,,,,,,,,,,,,,,,,,,,
,,,,,,,62d9be690206e1b4f007eacb,2023-08-16_08h49.11.850,HF_wild_card,2022.2.4,Win32,60.24822268,62d9be690206e1b4f007eacb,64d2fd46c836a06233681665,64dc7f46c030f419ae4411a5,,,,,,,decisionTrl,resources/DY.BMP,resources/DG.BMP,Door3,0.159465829,0.003534957,1,0,0,1.1341,optionRight,70,11380,5,34,0,34,0,1,,,,,,,,,,,,,,,,,,,,,,,,,,,,,,,,,,,,,,,
,,,,,,,62d9be690206e1b4f007eacb,2023-08-16_08h49.11.850,HF_wild_card,2022.2.4,Win32,60.24822268,62d9be690206e1b4f007eacb,64d2fd46c836a06233681665,64dc7f46c030f419ae4411a5,,,,,,,sngl,resources/Empty.png,resources/DP.BMP,WildCard_Ex,0.119402985,-0.003534957,1,0,0,0.5955,optionRight,95,11475,5,35,0,35,0,1,,,,,,,,,,,,,,,,,,,,,,,,,,,,,,,,,,,,,,,
,,,,,,,62d9be690206e1b4f007eacb,2023-08-16_08h49.11.850,HF_wild_card,2022.2.4,Win32,60.24822268,62d9be690206e1b4f007eacb,64d2fd46c836a06233681665,64dc7f46c030f419ae4411a5,,,,,,,sngl,resources/DP.BMP,resources/Empty.png,WildCard_Ex,-0.13589945,-0.004320503,1,0,0,0.5474,optionLeft,95,11570,5,36,0,36,0,1,,,,,,,,,,,,,,,,,,,,,,,,,,,,,,,,,,,,,,,
,,,,,,,62d9be690206e1b4f007eacb,2023-08-16_08h49.11.850,HF_wild_card,2022.2.4,Win32,60.24822268,62d9be690206e1b4f007eacb,64d2fd46c836a06233681665,64dc7f46c030f419ae4411a5,,,,,,,decisionTrl,resources/DB.BMP,resources/DP.BMP,WildCard_Ex,0.120974077,0.000392773,1,0,0,1.2152,optionRight,95,11665,5,37,0,37,0,1,,,,,,,,,,,,,,,,,,,,,,,,,,,,,,,,,,,,,,,
,,,,,,,62d9be690206e1b4f007eacb,2023-08-16_08h49.11.850,HF_wild_card,2022.2.4,Win32,60.24822268,62d9be690206e1b4f007eacb,64d2fd46c836a06233681665,64dc7f46c030f419ae4411a5,,,,,,,decisionTrl,resources/DR.BMP,resources/DB.BMP,Door1,-0.120188531,-0.009819324,1,0,0,2.1177,optionLeft,30,11695,5,38,0,38,0,1,,,,,,,,,,,,,,,,,,,,,,,,,,,,,,,,,,,,,,,
,,,,,,,62d9be690206e1b4f007eacb,2023-08-16_08h49.11.850,HF_wild_card,2022.2.4,Win32,60.24822268,62d9be690206e1b4f007eacb,64d2fd46c836a06233681665,64dc7f46c030f419ae4411a5,,,,,,,decisionTrl,resources/DR.BMP,resources/DB.BMP,Door1,-0.104477612,-0.013747054,1,0,0,0.8315,optionLeft,30,11725,5,39,0,39,0,1,,,,,,,,,,,,,,,,,,,,,,,,,,,,,,,,,,,,,,,
,,,,,,,62d9be690206e1b4f007eacb,2023-08-16_08h49.11.850,HF_wild_card,2022.2.4,Win32,60.24822268,62d9be690206e1b4f007eacb,64d2fd46c836a06233681665,64dc7f46c030f419ae4411a5,,,,,,,ctch,resources/DG.BMP,resources/DB.BMP,Door3,-0.146111548,-0.021602514,1,0,0,1.0654,optionLeft,70,11795,5,40,0,40,0,1,,,,,,,,,,,,,,,,,,,,,,,,,,,,,,,,,,,,,,,
,,,,,,,62d9be690206e1b4f007eacb,2023-08-16_08h49.11.850,HF_wild_card,2022.2.4,Win32,60.24822268,62d9be690206e1b4f007eacb,64d2fd46c836a06233681665,64dc7f46c030f419ae4411a5,,,,,,,decisionTrl,resources/DY.BMP,resources/DG.BMP,Door3,0.214454046,-0.008248233,1,0,0,0.6152,optionRight,70,11865,5,41,0,41,0,1,,,,,,,,,,,,,,,,,,,,,,,,,,,,,,,,,,,,,,,
,,,,,,,62d9be690206e1b4f007eacb,2023-08-16_08h49.11.850,HF_wild_card,2022.2.4,Win32,60.24822268,62d9be690206e1b4f007eacb,64d2fd46c836a06233681665,64dc7f46c030f419ae4411a5,,,,,,,decisionTrl,resources/DB.BMP,resources/DR.BMP,Door1,0.123330715,-0.008248233,1,0,0,3.4887,optionRight,30,11895,5,42,0,42,0,1,,,,,,,,,,,,,,,,,,,,,,,,,,,,,,,,,,,,,,,
,,,,,,,62d9be690206e1b4f007eacb,2023-08-16_08h49.11.850,HF_wild_card,2022.2.4,Win32,60.24822268,62d9be690206e1b4f007eacb,64d2fd46c836a06233681665,64dc7f46c030f419ae4411a5,,,,,,,ctch,resources/DG.BMP,resources/DB.BMP,Door3,-0.132757266,-0.0145326,1,0,0,0.6303,optionLeft,70,11965,5,43,0,43,0,1,,,,,,,,,,,,,,,,,,,,,,,,,,,,,,,,,,,,,,,
,,,,,,,62d9be690206e1b4f007eacb,2023-08-16_08h49.11.850,HF_wild_card,2022.2.4,Win32,60.24822268,62d9be690206e1b4f007eacb,64d2fd46c836a06233681665,64dc7f46c030f419ae4411a5,,,,,,,,,,,,,,,,,,,,,,,,,,4,0,4,0,1,,,,,,,,,,,,,,,,,,,,,,,,,,,,,,,,,,
,,,,,,,62d9be690206e1b4f007eacb,2023-08-16_08h49.11.850,HF_wild_card,2022.2.4,Win32,60.24822268,62d9be690206e1b4f007eacb,64d2fd46c836a06233681665,64dc7f46c030f419ae4411a5,,,,,,,sngl,resources/DG.BMP,resources/Empty.png,Door3,-0.112333071,-0.023959152,1,0,0,0.6134,optionLeft,70,12035,6,0,0,0,0,1,,,,,,,,,,,,,,,,,,,,,,,,,,,,,,,,,,,,,,,
,,,,,,,62d9be690206e1b4f007eacb,2023-08-16_08h49.11.850,HF_wild_card,2022.2.4,Win32,60.24822268,62d9be690206e1b4f007eacb,64d2fd46c836a06233681665,64dc7f46c030f419ae4411a5,,,,,,,decisionTrl,resources/DR.BMP,resources/DB.BMP,Door1,-0.119402985,-0.01060487,1,0,0,1.2993,optionLeft,30,12065,6,1,0,1,0,1,,,,,,,,,,,,,,,,,,,,,,,,,,,,,,,,,,,,,,,
,,,,,,,62d9be690206e1b4f007eacb,2023-08-16_08h49.11.850,HF_wild_card,2022.2.4,Win32,60.24822268,62d9be690206e1b4f007eacb,64d2fd46c836a06233681665,64dc7f46c030f419ae4411a5,,,,,,,sngl,resources/DP.BMP,resources/Empty.png,WildCard_Ex,-0.135113904,-0.012961508,1,0,0,0.6141,optionLeft,5,12070,6,2,0,2,0,1,,,,,,,,,,,,,,,,,,,,,,,,,,,,,,,,,,,,,,,
,,,,,,,62d9be690206e1b4f007eacb,2023-08-16_08h49.11.850,HF_wild_card,2022.2.4,Win32,60.24822268,62d9be690206e1b4f007eacb,64d2fd46c836a06233681665,64dc7f46c030f419ae4411a5,,,,,,,sngl,resources/Empty.png,resources/DR.BMP,Door1,0.139041634,-0.024744698,1,0,0,0.5305,optionRight,30,12100,6,3,0,3,0,1,,,,,,,,,,,,,,,,,,,,,,,,,,,,,,,,,,,,,,,
,,,,,,,62d9be690206e1b4f007eacb,2023-08-16_08h49.11.850,HF_wild_card,2022.2.4,Win32,60.24822268,62d9be690206e1b4f007eacb,64d2fd46c836a06233681665,64dc7f46c030f419ae4411a5,,,,,,,decisionTrl,resources/DY.BMP,resources/DP.BMP,WildCard_Ex,0.139041634,-0.012175962,1,0,0,1.1148,optionRight,5,12105,6,4,0,4,0,1,,,,,,,,,,,,,,,,,,,,,,,,,,,,,,,,,,,,,,,
,,,,,,,62d9be690206e1b4f007eacb,2023-08-16_08h49.11.850,HF_wild_card,2022.2.4,Win32,60.24822268,62d9be690206e1b4f007eacb,64d2fd46c836a06233681665,64dc7f46c030f419ae4411a5,,,,,,,decisionTrl,resources/DP.BMP,resources/DB.BMP,WildCard_Ex,-0.106048704,-0.0145326,1,0,0,0.7308,optionLeft,95,12200,6,5,0,5,0,1,,,,,,,,,,,,,,,,,,,,,,,,,,,,,,,,,,,,,,,
,,,,,,,62d9be690206e1b4f007eacb,2023-08-16_08h49.11.850,HF_wild_card,2022.2.4,Win32,60.24822268,62d9be690206e1b4f007eacb,64d2fd46c836a06233681665,64dc7f46c030f419ae4411a5,,,,,,,ctch,resources/DY.BMP,resources/DR.BMP,Door4,-0.125687353,-0.017674784,1,0,0,0.9998,optionLeft,60,12260,6,6,0,6,0,1,,,,,,,,,,,,,,,,,,,,,,,,,,,,,,,,,,,,,,,
,,,,,,,62d9be690206e1b4f007eacb,2023-08-16_08h49.11.850,HF_wild_card,2022.2.4,Win32,60.24822268,62d9be690206e1b4f007eacb,64d2fd46c836a06233681665,64dc7f46c030f419ae4411a5,,,,,,,sngl,resources/Empty.png,resources/DP.BMP,WildCard_Ex,0.146897093,-0.005106049,1,0,0,0.5646,optionRight,5,12265,6,7,0,7,0,1,,,,,,,,,,,,,,,,,,,,,,,,,,,,,,,,,,,,,,,
,,,,,,,62d9be690206e1b4f007eacb,2023-08-16_08h49.11.850,HF_wild_card,2022.2.4,Win32,60.24822268,62d9be690206e1b4f007eacb,64d2fd46c836a06233681665,64dc7f46c030f419ae4411a5,,,,,,,decisionTrl,resources/DR.BMP,resources/DB.BMP,Door1,-0.135113904,-0.016889238,1,0,0,1.9514,optionLeft,30,12295,6,8,0,8,0,1,,,,,,,,,,,,,,,,,,,,,,,,,,,,,,,,,,,,,,,
,,,,,,,62d9be690206e1b4f007eacb,2023-08-16_08h49.11.850,HF_wild_card,2022.2.4,Win32,60.24822268,62d9be690206e1b4f007eacb,64d2fd46c836a06233681665,64dc7f46c030f419ae4411a5,,,,,,,sngl,resources/DY.BMP,resources/Empty.png,Door4,-0.120188531,-0.011390416,1,0,0,0.6657,optionLeft,60,12355,6,9,0,9,0,1,,,,,,,,,,,,,,,,,,,,,,,,,,,,,,,,,,,,,,,
,,,,,,,62d9be690206e1b4f007eacb,2023-08-16_08h49.11.850,HF_wild_card,2022.2.4,Win32,60.24822268,62d9be690206e1b4f007eacb,64d2fd46c836a06233681665,64dc7f46c030f419ae4411a5,,,,,,,decisionTrl,resources/DP.BMP,resources/DR.BMP,WildCard_Ex,-0.124901807,-0.016889238,1,0,0,3.3041,optionLeft,5,12360,6,10,0,10,0,1,,,,,,,,,,,,,,,,,,,,,,,,,,,,,,,,,,,,,,,
,,,,,,,62d9be690206e1b4f007eacb,2023-08-16_08h49.11.850,HF_wild_card,2022.2.4,Win32,60.24822268,62d9be690206e1b4f007eacb,64d2fd46c836a06233681665,64dc7f46c030f419ae4411a5,,,,,,,sngl,resources/Empty.png,resources/DG.BMP,Door3,0.152395915,-0.009819324,1,0,0,0.5969,optionRight,70,12430,6,11,0,11,0,1,,,,,,,,,,,,,,,,,,,,,,,,,,,,,,,,,,,,,,,
,,,,,,,62d9be690206e1b4f007eacb,2023-08-16_08h49.11.850,HF_wild_card,2022.2.4,Win32,60.24822268,62d9be690206e1b4f007eacb,64d2fd46c836a06233681665,64dc7f46c030f419ae4411a5,,,,,,,decisionTrl,resources/DB.BMP,resources/DR.BMP,Door1,0.14375491,-0.013747054,1,0,0,1.7504,optionRight,30,12460,6,12,0,12,0,1,,,,,,,,,,,,,,,,,,,,,,,,,,,,,,,,,,,,,,,
,,,,,,,62d9be690206e1b4f007eacb,2023-08-16_08h49.11.850,HF_wild_card,2022.2.4,Win32,60.24822268,62d9be690206e1b4f007eacb,64d2fd46c836a06233681665,64dc7f46c030f419ae4411a5,,,,,,,decisionTrl,resources/DG.BMP,resources/DY.BMP,Door3,-0.149253731,-0.01846033,1,0,0,0.8812,optionLeft,70,12530,6,13,0,13,0,1,,,,,,,,,,,,,,,,,,,,,,,,,,,,,,,,,,,,,,,
,,,,,,,62d9be690206e1b4f007eacb,2023-08-16_08h49.11.850,HF_wild_card,2022.2.4,Win32,60.24822268,62d9be690206e1b4f007eacb,64d2fd46c836a06233681665,64dc7f46c030f419ae4411a5,,,,,,,decisionTrl,resources/DG.BMP,resources/DY.BMP,Door3,-0.103692066,0.004320503,1,0,0,0.6804,optionLeft,70,12600,6,14,0,14,0,1,,,,,,,,,,,,,,,,,,,,,,,,,,,,,,,,,,,,,,,
,,,,,,,62d9be690206e1b4f007eacb,2023-08-16_08h49.11.850,HF_wild_card,2022.2.4,Win32,60.24822268,62d9be690206e1b4f007eacb,64d2fd46c836a06233681665,64dc7f46c030f419ae4411a5,,,,,,,decisionTrl,resources/DG.BMP,resources/DP.BMP,Door3,-0.113118617,-0.012175962,1,0,0,2.2355,optionLeft,70,12670,6,15,0,15,0,1,,,,,,,,,,,,,,,,,,,,,,,,,,,,,,,,,,,,,,,
,,,,,,,62d9be690206e1b4f007eacb,2023-08-16_08h49.11.850,HF_wild_card,2022.2.4,Win32,60.24822268,62d9be690206e1b4f007eacb,64d2fd46c836a06233681665,64dc7f46c030f419ae4411a5,,,,,,,decisionTrl,resources/DP.BMP,resources/DG.BMP,Door3,0.205027494,-0.013747054,1,0,0,1.0993,optionRight,70,12740,6,16,0,16,0,1,,,,,,,,,,,,,,,,,,,,,,,,,,,,,,,,,,,,,,,
,,,,,,,62d9be690206e1b4f007eacb,2023-08-16_08h49.11.850,HF_wild_card,2022.2.4,Win32,60.24822268,62d9be690206e1b4f007eacb,64d2fd46c836a06233681665,64dc7f46c030f419ae4411a5,,,,,,,ctch,resources/DB.BMP,resources/DG.BMP,Door3,0.17282011,-0.016103692,1,0,0,1.2341,optionRight,70,12810,6,17,0,17,0,1,,,,,,,,,,,,,,,,,,,,,,,,,,,,,,,,,,,,,,,
,,,,,,,62d9be690206e1b4f007eacb,2023-08-16_08h49.11.850,HF_wild_card,2022.2.4,Win32,60.24822268,62d9be690206e1b4f007eacb,64d2fd46c836a06233681665,64dc7f46c030f419ae4411a5,,,,,,,sngl,resources/Empty.png,resources/DY.BMP,Door4,0.125687353,-0.004320503,1,0,0,0.5635,optionRight,80,12890,6,18,0,18,0,1,,,,,,,,,,,,,,,,,,,,,,,,,,,,,,,,,,,,,,,
,,,,,,,62d9be690206e1b4f007eacb,2023-08-16_08h49.11.850,HF_wild_card,2022.2.4,Win32,60.24822268,62d9be690206e1b4f007eacb,64d2fd46c836a06233681665,64dc7f46c030f419ae4411a5,,,,,,,decisionTrl,resources/DB.BMP,resources/DR.BMP,Door1,0.127258445,-0.016103692,1,0,0,1.1,optionRight,30,12920,6,19,0,19,0,1,,,,,,,,,,,,,,,,,,,,,,,,,,,,,,,,,,,,,,,
,,,,,,,62d9be690206e1b4f007eacb,2023-08-16_08h49.11.850,HF_wild_card,2022.2.4,Win32,60.24822268,62d9be690206e1b4f007eacb,64d2fd46c836a06233681665,64dc7f46c030f419ae4411a5,,,,,,,decisionTrl,resources/DB.BMP,resources/DP.BMP,WildCard_Ex,0.119402985,-0.007462687,1,0,0,0.6977,optionRight,5,12925,6,20,0,20,0,1,,,,,,,,,,,,,,,,,,,,,,,,,,,,,,,,,,,,,,,
,,,,,,,62d9be690206e1b4f007eacb,2023-08-16_08h49.11.850,HF_wild_card,2022.2.4,Win32,60.24822268,62d9be690206e1b4f007eacb,64d2fd46c836a06233681665,64dc7f46c030f419ae4411a5,,,,,,,decisionTrl,resources/DG.BMP,resources/DY.BMP,Door3,-0.13589945,-0.008248233,1,0,0,0.8479,optionLeft,70,12995,6,21,0,21,0,1,,,,,,,,,,,,,,,,,,,,,,,,,,,,,,,,,,,,,,,
,,,,,,,62d9be690206e1b4f007eacb,2023-08-16_08h49.11.850,HF_wild_card,2022.2.4,Win32,60.24822268,62d9be690206e1b4f007eacb,64d2fd46c836a06233681665,64dc7f46c030f419ae4411a5,,,,,,,decisionTrl,resources/DG.BMP,resources/DY.BMP,Door3,-0.140612726,-0.000392773,1,0,0,0.6641,optionLeft,70,13065,6,22,0,22,0,1,,,,,,,,,,,,,,,,,,,,,,,,,,,,,,,,,,,,,,,
,,,,,,,62d9be690206e1b4f007eacb,2023-08-16_08h49.11.850,HF_wild_card,2022.2.4,Win32,60.24822268,62d9be690206e1b4f007eacb,64d2fd46c836a06233681665,64dc7f46c030f419ae4411a5,,,,,,,sngl,resources/Empty.png,resources/DP.BMP,WildCard_Ex,0.144540456,-0.005891595,1,0,0,0.7305,optionRight,95,13160,6,23,0,23,0,1,,,,,,,,,,,,,,,,,,,,,,,,,,,,,,,,,,,,,,,
,,,,,,,62d9be690206e1b4f007eacb,2023-08-16_08h49.11.850,HF_wild_card,2022.2.4,Win32,60.24822268,62d9be690206e1b4f007eacb,64d2fd46c836a06233681665,64dc7f46c030f419ae4411a5,,,,,,,decisionTrl,resources/DR.BMP,resources/DB.BMP,Door2,0.125687353,-0.005891595,1,0,0,0.8322,optionRight,40,13200,6,24,0,24,0,1,,,,,,,,,,,,,,,,,,,,,,,,,,,,,,,,,,,,,,,
,,,,,,,62d9be690206e1b4f007eacb,2023-08-16_08h49.11.850,HF_wild_card,2022.2.4,Win32,60.24822268,62d9be690206e1b4f007eacb,64d2fd46c836a06233681665,64dc7f46c030f419ae4411a5,,,,,,,sngl,resources/DP.BMP,resources/Empty.png,WildCard_Ex,-0.101335428,-0.005106049,1,0,0,0.6985,optionLeft,95,13295,6,25,0,25,0,1,,,,,,,,,,,,,,,,,,,,,,,,,,,,,,,,,,,,,,,
,,,,,,,62d9be690206e1b4f007eacb,2023-08-16_08h49.11.850,HF_wild_card,2022.2.4,Win32,60.24822268,62d9be690206e1b4f007eacb,64d2fd46c836a06233681665,64dc7f46c030f419ae4411a5,,,,,,,decisionTrl,resources/DP.BMP,resources/DY.BMP,Door4,0.128829537,-0.017674784,1,0,0,1.1653,optionRight,60,13355,6,26,0,26,0,1,,,,,,,,,,,,,,,,,,,,,,,,,,,,,,,,,,,,,,,
,,,,,,,62d9be690206e1b4f007eacb,2023-08-16_08h49.11.850,HF_wild_card,2022.2.4,Win32,60.24822268,62d9be690206e1b4f007eacb,64d2fd46c836a06233681665,64dc7f46c030f419ae4411a5,,,,,,,ctch,resources/DR.BMP,resources/DY.BMP,Door4,0.131186174,-0.001178319,1,0,0,1.0486,optionRight,80,13435,6,27,0,27,0,1,,,,,,,,,,,,,,,,,,,,,,,,,,,,,,,,,,,,,,,
,,,,,,,62d9be690206e1b4f007eacb,2023-08-16_08h49.11.850,HF_wild_card,2022.2.4,Win32,60.24822268,62d9be690206e1b4f007eacb,64d2fd46c836a06233681665,64dc7f46c030f419ae4411a5,,,,,,,decisionTrl,resources/DR.BMP,resources/DB.BMP,Door1,-0.120188531,-0.012175962,1,0,0,1.1328,optionLeft,30,13465,6,28,0,28,0,1,,,,,,,,,,,,,,,,,,,,,,,,,,,,,,,,,,,,,,,
,,,,,,,62d9be690206e1b4f007eacb,2023-08-16_08h49.11.850,HF_wild_card,2022.2.4,Win32,60.24822268,62d9be690206e1b4f007eacb,64d2fd46c836a06233681665,64dc7f46c030f419ae4411a5,,,,,,,ctch,resources/DG.BMP,resources/DB.BMP,Door3,-0.133542812,-0.005106049,1,0,0,0.9805,optionLeft,70,13535,6,29,0,29,0,1,,,,,,,,,,,,,,,,,,,,,,,,,,,,,,,,,,,,,,,
,,,,,,,62d9be690206e1b4f007eacb,2023-08-16_08h49.11.850,HF_wild_card,2022.2.4,Win32,60.24822268,62d9be690206e1b4f007eacb,64d2fd46c836a06233681665,64dc7f46c030f419ae4411a5,,,,,,,decisionTrl,resources/DB.BMP,resources/DR.BMP,Door2,-0.133542812,-0.001963865,1,0,0,0.9664,optionLeft,40,13575,6,30,0,30,0,1,,,,,,,,,,,,,,,,,,,,,,,,,,,,,,,,,,,,,,,
,,,,,,,62d9be690206e1b4f007eacb,2023-08-16_08h49.11.850,HF_wild_card,2022.2.4,Win32,60.24822268,62d9be690206e1b4f007eacb,64d2fd46c836a06233681665,64dc7f46c030f419ae4411a5,,,,,,,ctch,resources/DY.BMP,resources/DR.BMP,Door4,-0.104477612,0.001178319,1,0,0,1.4163,optionLeft,60,13635,6,31,0,31,0,1,,,,,,,,,,,,,,,,,,,,,,,,,,,,,,,,,,,,,,,
,,,,,,,62d9be690206e1b4f007eacb,2023-08-16_08h49.11.850,HF_wild_card,2022.2.4,Win32,60.24822268,62d9be690206e1b4f007eacb,64d2fd46c836a06233681665,64dc7f46c030f419ae4411a5,,,,,,,ctch,resources/DR.BMP,resources/DY.BMP,Door4,0.104477612,-0.012961508,1,0,0,1.7334,optionRight,60,13695,6,32,0,32,0,1,,,,,,,,,,,,,,,,,,,,,,,,,,,,,,,,,,,,,,,
,,,,,,,62d9be690206e1b4f007eacb,2023-08-16_08h49.11.850,HF_wild_card,2022.2.4,Win32,60.24822268,62d9be690206e1b4f007eacb,64d2fd46c836a06233681665,64dc7f46c030f419ae4411a5,,,,,,,sngl,resources/Empty.png,resources/DB.BMP,Door2,0.13197172,0.004320503,1,0,0,0.5305,optionRight,40,13735,6,33,0,33,0,1,,,,,,,,,,,,,,,,,,,,,,,,,,,,,,,,,,,,,,,
,,,,,,,62d9be690206e1b4f007eacb,2023-08-16_08h49.11.850,HF_wild_card,2022.2.4,Win32,60.24822268,62d9be690206e1b4f007eacb,64d2fd46c836a06233681665,64dc7f46c030f419ae4411a5,,,,,,,decisionTrl,resources/DY.BMP,resources/DG.BMP,Door3,0.158680283,0.003534957,1,0,0,1.1016,optionRight,70,13805,6,34,0,34,0,1,,,,,,,,,,,,,,,,,,,,,,,,,,,,,,,,,,,,,,,
,,,,,,,62d9be690206e1b4f007eacb,2023-08-16_08h49.11.850,HF_wild_card,2022.2.4,Win32,60.24822268,62d9be690206e1b4f007eacb,64d2fd46c836a06233681665,64dc7f46c030f419ae4411a5,,,,,,,ctch,resources/DB.BMP,resources/DG.BMP,Door3,0.140612726,-0.001178319,1,0,0,1.5332,optionRight,70,13875,6,35,0,35,0,1,,,,,,,,,,,,,,,,,,,,,,,,,,,,,,,,,,,,,,,
,,,,,,,62d9be690206e1b4f007eacb,2023-08-16_08h49.11.850,HF_wild_card,2022.2.4,Win32,60.24822268,62d9be690206e1b4f007eacb,64d2fd46c836a06233681665,64dc7f46c030f419ae4411a5,,,,,,,decisionTrl,resources/DY.BMP,resources/DG.BMP,Door4,-0.134328358,-0.020816968,1,0,0,2.252,optionLeft,60,13935,6,36,0,36,0,1,,,,,,,,,,,,,,,,,,,,,,,,,,,,,,,,,,,,,,,
,,,,,,,62d9be690206e1b4f007eacb,2023-08-16_08h49.11.850,HF_wild_card,2022.2.4,Win32,60.24822268,62d9be690206e1b4f007eacb,64d2fd46c836a06233681665,64dc7f46c030f419ae4411a5,,,,,,,ctch,resources/DG.BMP,resources/DB.BMP,Door3,-0.125687353,-0.017674784,1,0,0,0.6645,optionLeft,70,14005,6,37,0,37,0,1,,,,,,,,,,,,,,,,,,,,,,,,,,,,,,,,,,,,,,,
,,,,,,,62d9be690206e1b4f007eacb,2023-08-16_08h49.11.850,HF_wild_card,2022.2.4,Win32,60.24822268,62d9be690206e1b4f007eacb,64d2fd46c836a06233681665,64dc7f46c030f419ae4411a5,,,,,,,decisionTrl,resources/DY.BMP,resources/DG.BMP,Door3,0.161822467,-0.017674784,1,0,0,0.6143,optionRight,70,14075,6,38,0,38,0,1,,,,,,,,,,,,,,,,,,,,,,,,,,,,,,,,,,,,,,,
,,,,,,,62d9be690206e1b4f007eacb,2023-08-16_08h49.11.850,HF_wild_card,2022.2.4,Win32,60.24822268,62d9be690206e1b4f007eacb,64d2fd46c836a06233681665,64dc7f46c030f419ae4411a5,,,,,,,sngl,resources/DR.BMP,resources/Empty.png,Door1,-0.123330715,-0.01846033,1,0,0,0.6311,optionLeft,30,14105,6,39,0,39,0,1,,,,,,,,,,,,,,,,,,,,,,,,,,,,,,,,,,,,,,,
,,,,,,,62d9be690206e1b4f007eacb,2023-08-16_08h49.11.850,HF_wild_card,2022.2.4,Win32,60.24822268,62d9be690206e1b4f007eacb,64d2fd46c836a06233681665,64dc7f46c030f419ae4411a5,,,,,,,decisionTrl,resources/DB.BMP,resources/DR.BMP,Door1,0.136684996,-0.002749411,1,0,0,1.3493,optionRight,30,14135,6,40,0,40,0,1,,,,,,,,,,,,,,,,,,,,,,,,,,,,,,,,,,,,,,,
,,,,,,,62d9be690206e1b4f007eacb,2023-08-16_08h49.11.850,HF_wild_card,2022.2.4,Win32,60.24822268,62d9be690206e1b4f007eacb,64d2fd46c836a06233681665,64dc7f46c030f419ae4411a5,,,,,,,sngl,resources/DB.BMP,resources/Empty.png,Door2,-0.10683425,0.002749411,1,0,0,0.5478,optionLeft,20,14155,6,41,0,41,0,1,,,,,,,,,,,,,,,,,,,,,,,,,,,,,,,,,,,,,,,
,,,,,,,62d9be690206e1b4f007eacb,2023-08-16_08h49.11.850,HF_wild_card,2022.2.4,Win32,60.24822268,62d9be690206e1b4f007eacb,64d2fd46c836a06233681665,64dc7f46c030f419ae4411a5,,,,,,,decisionTrl,resources/DR.BMP,resources/DP.BMP,Door1,-0.129615082,-0.021602514,1,0,0,1.4998,optionLeft,30,14185,6,42,0,42,0,1,,,,,,,,,,,,,,,,,,,,,,,,,,,,,,,,,,,,,,,
,,,,,,,62d9be690206e1b4f007eacb,2023-08-16_08h49.11.850,HF_wild_card,2022.2.4,Win32,60.24822268,62d9be690206e1b4f007eacb,64d2fd46c836a06233681665,64dc7f46c030f419ae4411a5,,,,,,,decisionTrl,resources/DY.BMP,resources/DG.BMP,Door3,0.117831893,-0.023173606,1,0,0,1.7162,optionRight,70,14255,6,43,0,43,0,1,,,,,,,,,,,,,,,,,,,,,,,,,,,,,,,,,,,,,,,
,,,,,,,62d9be690206e1b4f007eacb,2023-08-16_08h49.11.850,HF_wild_card,2022.2.4,Win32,60.24822268,62d9be690206e1b4f007eacb,64d2fd46c836a06233681665,64dc7f46c030f419ae4411a5,,,,,,,,,,,,,,,,,,,,,,,,,,5,0,5,0,1,,,,,,,,,,,,,,,,,,,,,,,,,,,,,,,,,,
,,,,,,,62d9be690206e1b4f007eacb,2023-08-16_08h49.11.850,HF_wild_card,2022.2.4,Win32,60.24822268,62d9be690206e1b4f007eacb,64d2fd46c836a06233681665,64dc7f46c030f419ae4411a5,,,,,,,decisionTrl,resources/DG.BMP,resources/DY.BMP,Door3,-0.112333071,-0.02238806,1,0,0,1.2875,optionLeft,70,14325,7,0,0,0,0,1,,,,,,,,,,,,,,,,,,,,,,,,,,,,,,,,,,,,,,,
,,,,,,,62d9be690206e1b4f007eacb,2023-08-16_08h49.11.850,HF_wild_card,2022.2.4,Win32,60.24822268,62d9be690206e1b4f007eacb,64d2fd46c836a06233681665,64dc7f46c030f419ae4411a5,,,,,,,decisionTrl,resources/DR.BMP,resources/DB.BMP,Door2,0.154752553,0.000392773,1,0,0,1.8201,optionRight,20,14345,7,1,0,1,0,1,,,,,,,,,,,,,,,,,,,,,,,,,,,,,,,,,,,,,,,
,,,,,,,62d9be690206e1b4f007eacb,2023-08-16_08h49.11.850,HF_wild_card,2022.2.4,Win32,60.24822268,62d9be690206e1b4f007eacb,64d2fd46c836a06233681665,64dc7f46c030f419ae4411a5,,,,,,,decisionTrl,resources/DY.BMP,resources/DG.BMP,Door3,0.11076198,-0.019245876,1,0,0,1.2363,optionRight,70,14415,7,2,0,2,0,1,,,,,,,,,,,,,,,,,,,,,,,,,,,,,,,,,,,,,,,
,,,,,,,62d9be690206e1b4f007eacb,2023-08-16_08h49.11.850,HF_wild_card,2022.2.4,Win32,60.24822268,62d9be690206e1b4f007eacb,64d2fd46c836a06233681665,64dc7f46c030f419ae4411a5,,,,,,,ctch,resources/DG.BMP,resources/DB.BMP,Door3,-0.115475255,-0.009819324,1,0,0,0.7681,optionLeft,70,14485,7,3,0,3,0,1,,,,,,,,,,,,,,,,,,,,,,,,,,,,,,,,,,,,,,,
,,,,,,,62d9be690206e1b4f007eacb,2023-08-16_08h49.11.850,HF_wild_card,2022.2.4,Win32,60.24822268,62d9be690206e1b4f007eacb,64d2fd46c836a06233681665,64dc7f46c030f419ae4411a5,,,,,,,ctch,resources/DR.BMP,resources/DY.BMP,Door4,0.137470542,-0.009033778,1,0,0,1.3025,optionRight,80,14565,7,4,0,4,0,1,,,,,,,,,,,,,,,,,,,,,,,,,,,,,,,,,,,,,,,
,,,,,,,62d9be690206e1b4f007eacb,2023-08-16_08h49.11.850,HF_wild_card,2022.2.4,Win32,60.24822268,62d9be690206e1b4f007eacb,64d2fd46c836a06233681665,64dc7f46c030f419ae4411a5,,,,,,,ctch,resources/DY.BMP,resources/DR.BMP,Door4,-0.122545169,-0.001963865,1,0,0,0.6675,optionLeft,80,14645,7,5,0,5,0,1,,,,,,,,,,,,,,,,,,,,,,,,,,,,,,,,,,,,,,,
,,,,,,,62d9be690206e1b4f007eacb,2023-08-16_08h49.11.850,HF_wild_card,2022.2.4,Win32,60.24822268,62d9be690206e1b4f007eacb,64d2fd46c836a06233681665,64dc7f46c030f419ae4411a5,,,,,,,decisionTrl,resources/DY.BMP,resources/DG.BMP,Door4,-0.10683425,-0.009033778,1,0,0,0.6349,optionLeft,60,14705,7,6,0,6,0,1,,,,,,,,,,,,,,,,,,,,,,,,,,,,,,,,,,,,,,,
,,,,,,,62d9be690206e1b4f007eacb,2023-08-16_08h49.11.850,HF_wild_card,2022.2.4,Win32,60.24822268,62d9be690206e1b4f007eacb,64d2fd46c836a06233681665,64dc7f46c030f419ae4411a5,,,,,,,decisionTrl,resources/DR.BMP,resources/DB.BMP,Door2,0.175962294,-0.003534957,1,0,0,2.4722,optionRight,20,14725,7,7,0,7,0,1,,,,,,,,,,,,,,,,,,,,,,,,,,,,,,,,,,,,,,,
,,,,,,,62d9be690206e1b4f007eacb,2023-08-16_08h49.11.850,HF_wild_card,2022.2.4,Win32,60.24822268,62d9be690206e1b4f007eacb,64d2fd46c836a06233681665,64dc7f46c030f419ae4411a5,,,,,,,ctch,resources/DY.BMP,resources/DR.BMP,Door4,-0.112333071,-0.011390416,1,0,0,0.9344,optionLeft,60,14785,7,8,0,8,0,1,,,,,,,,,,,,,,,,,,,,,,,,,,,,,,,,,,,,,,,
,,,,,,,62d9be690206e1b4f007eacb,2023-08-16_08h49.11.850,HF_wild_card,2022.2.4,Win32,60.24822268,62d9be690206e1b4f007eacb,64d2fd46c836a06233681665,64dc7f46c030f419ae4411a5,,,,,,,ctch,resources/DG.BMP,resources/DB.BMP,Door3,-0.120974077,-0.012175962,1,0,0,0.9186,optionLeft,70,14855,7,9,0,9,0,1,,,,,,,,,,,,,,,,,,,,,,,,,,,,,,,,,,,,,,,
,,,,,,,62d9be690206e1b4f007eacb,2023-08-16_08h49.11.850,HF_wild_card,2022.2.4,Win32,60.24822268,62d9be690206e1b4f007eacb,64d2fd46c836a06233681665,64dc7f46c030f419ae4411a5,,,,,,,decisionTrl,resources/DG.BMP,resources/DY.BMP,Door4,0.168106834,-0.020031422,1,0,0,1.0521,optionRight,80,14935,7,10,0,10,0,1,,,,,,,,,,,,,,,,,,,,,,,,,,,,,,,,,,,,,,,
,,,,,,,62d9be690206e1b4f007eacb,2023-08-16_08h49.11.850,HF_wild_card,2022.2.4,Win32,60.24822268,62d9be690206e1b4f007eacb,64d2fd46c836a06233681665,64dc7f46c030f419ae4411a5,,,,,,,decisionTrl,resources/DB.BMP,resources/DR.BMP,Door1,0.13982718,-0.013747054,1,0,0,0.835,optionRight,30,14965,7,11,0,11,0,1,,,,,,,,,,,,,,,,,,,,,,,,,,,,,,,,,,,,,,,
,,,,,,,62d9be690206e1b4f007eacb,2023-08-16_08h49.11.850,HF_wild_card,2022.2.4,Win32,60.24822268,62d9be690206e1b4f007eacb,64d2fd46c836a06233681665,64dc7f46c030f419ae4411a5,,,,,,,decisionTrl,resources/DY.BMP,resources/DG.BMP,Door3,0.131186174,-0.009033778,1,0,0,1.5357,optionRight,70,15035,7,12,0,12,0,1,,,,,,,,,,,,,,,,,,,,,,,,,,,,,,,,,,,,,,,
,,,,,,,62d9be690206e1b4f007eacb,2023-08-16_08h49.11.850,HF_wild_card,2022.2.4,Win32,60.24822268,62d9be690206e1b4f007eacb,64d2fd46c836a06233681665,64dc7f46c030f419ae4411a5,,,,,,,decisionTrl,resources/DB.BMP,resources/DR.BMP,Door1,0.115475255,-0.0145326,1,0,0,1.0021,optionRight,30,15065,7,13,0,13,0,1,,,,,,,,,,,,,,,,,,,,,,,,,,,,,,,,,,,,,,,
,,,,,,,62d9be690206e1b4f007eacb,2023-08-16_08h49.11.850,HF_wild_card,2022.2.4,Win32,60.24822268,62d9be690206e1b4f007eacb,64d2fd46c836a06233681665,64dc7f46c030f419ae4411a5,,,,,,,ctch,resources/DB.BMP,resources/DG.BMP,Door3,0.115475255,-0.008248233,1,0,0,0.7015,optionRight,70,15135,7,14,0,14,0,1,,,,,,,,,,,,,,,,,,,,,,,,,,,,,,,,,,,,,,,
,,,,,,,62d9be690206e1b4f007eacb,2023-08-16_08h49.11.850,HF_wild_card,2022.2.4,Win32,60.24822268,62d9be690206e1b4f007eacb,64d2fd46c836a06233681665,64dc7f46c030f419ae4411a5,,,,,,,decisionTrl,resources/DR.BMP,resources/DB.BMP,Door2,0.112333071,-0.012175962,1,0,0,1.7208,optionRight,20,15155,7,15,0,15,0,1,,,,,,,,,,,,,,,,,,,,,,,,,,,,,,,,,,,,,,,
,,,,,,,62d9be690206e1b4f007eacb,2023-08-16_08h49.11.850,HF_wild_card,2022.2.4,Win32,60.24822268,62d9be690206e1b4f007eacb,64d2fd46c836a06233681665,64dc7f46c030f419ae4411a5,,,,,,,ctch,resources/DB.BMP,resources/DG.BMP,Door3,0.141398272,-0.008248233,1,0,0,0.6515,optionRight,70,15225,7,16,0,16,0,1,,,,,,,,,,,,,,,,,,,,,,,,,,,,,,,,,,,,,,,
,,,,,,,62d9be690206e1b4f007eacb,2023-08-16_08h49.11.850,HF_wild_card,2022.2.4,Win32,60.24822268,62d9be690206e1b4f007eacb,64d2fd46c836a06233681665,64dc7f46c030f419ae4411a5,,,,,,,ctch,resources/DR.BMP,resources/DY.BMP,Door4,0.133542812,-0.007462687,1,0,0,1.0853,optionRight,60,15285,7,17,0,17,0,1,,,,,,,,,,,,,,,,,,,,,,,,,,,,,,,,,,,,,,,
,,,,,,,62d9be690206e1b4f007eacb,2023-08-16_08h49.11.850,HF_wild_card,2022.2.4,Win32,60.24822268,62d9be690206e1b4f007eacb,64d2fd46c836a06233681665,64dc7f46c030f419ae4411a5,,,,,,,decisionTrl,resources/DR.BMP,resources/DB.BMP,Door2,0.140612726,-0.009819324,1,0,0,0.969,optionRight,40,15325,7,18,0,18,0,1,,,,,,,,,,,,,,,,,,,,,,,,,,,,,,,,,,,,,,,
,,,,,,,62d9be690206e1b4f007eacb,2023-08-16_08h49.11.850,HF_wild_card,2022.2.4,Win32,60.24822268,62d9be690206e1b4f007eacb,64d2fd46c836a06233681665,64dc7f46c030f419ae4411a5,,,,,,,decisionTrl,resources/DG.BMP,resources/DY.BMP,Door3,-0.132757266,-0.01060487,1,0,0,0.835,optionLeft,70,15395,7,19,0,19,0,1,,,,,,,,,,,,,,,,,,,,,,,,,,,,,,,,,,,,,,,
,,,,,,,62d9be690206e1b4f007eacb,2023-08-16_08h49.11.850,HF_wild_card,2022.2.4,Win32,60.24822268,62d9be690206e1b4f007eacb,64d2fd46c836a06233681665,64dc7f46c030f419ae4411a5,,,,,,,ctch,resources/DB.BMP,resources/DG.BMP,Door3,0.11076198,-0.005891595,1,0,0,0.6339,optionRight,70,15465,7,20,0,20,0,1,,,,,,,,,,,,,,,,,,,,,,,,,,,,,,,,,,,,,,,
