Condition,Low fixed image (Door1),Low risky image (Door2),High fixed image (Door3),High risky image (Door4),Extreme Wild Card,NonExtreme Wild Card,,date,expName,psychopyVersion,OS,frameRate,PROLIFIC_PID,STUDY_ID,SESSION_ID,mouse_2.x,mouse_2.y,mouse_2.leftButton,mouse_2.midButton,mouse_2.rightButton,mouse_2.clicked_name,Trial Type,Left Option Image,Right Option Image,Chosen Door,mouse.x,mouse.y,mouse.leftButton,mouse.midButton,mouse.rightButton,mouse.time,mouse.clicked_name,Feedback,Cumulative Reward,Block,trial.thisRepN,trial.thisTrialN,trial.thisN,trial.thisIndex,trial.ran,blocks.thisRepN,blocks.thisTrialN,blocks.thisN,blocks.thisIndex,blocks.ran,Money conversion,First Outcome Reported,Shown Door (First Outcome),Displayed Image (First Outcome),outcomes.thisRepN,outcomes.thisTrialN,outcomes.thisN,outcomes.thisIndex,outcomes.ran,judgments.thisRepN,judgments.thisTrialN,judgments.thisN,judgments.thisIndex,judgments.ran,freqMouse.x,freqMouse.y,freqMouse.leftButton,freqMouse.midButton,freqMouse.rightButton,freqMouse.clicked_name,trials.thisRepN,trials.thisTrialN,trials.thisN,trials.thisIndex,trials.ran,FQJ for first outcome,FQJ for second outcome,Shown Door,Displayed Image,judgBlock.thisRepN,judgBlock.thisTrialN,judgBlock.thisN,judgBlock.thisIndex,judgBlock.ran
0,resources/DR.BMP,resources/DG.BMP,resources/DBN.BMP,resources/DY.BMP,resources/DP.BMP,resources/DB.BMP,,2023-08-03_06h12.10.324,HF_wild_card,2022.2.4,Win32,28.20715333,6473924c2cae5ee4db5082d2,64b543b0a84ad6ab4a25b86a,64cb3716888eff33011781e3,,,,,,,,,,,,,,,,,,,,,,,,,,,,,,,,,,,,,,,,,,,,,,,,,,,,,,,,,,,,,,,,
,,,,,,,,2023-08-03_06h12.10.324,HF_wild_card,2022.2.4,Win32,28.20715333,6473924c2cae5ee4db5082d2,64b543b0a84ad6ab4a25b86a,64cb3716888eff33011781e3,0.015740783,-0.426388917,1,0,0,agree,,,,,,,,,,,,,,,,,,,,,,,,,,,,,,,,,,,,,,,,,,,,,,,,,,,,,,,,,,
,,,,,,,,2023-08-03_06h12.10.324,HF_wild_card,2022.2.4,Win32,28.20715333,6473924c2cae5ee4db5082d2,64b543b0a84ad6ab4a25b86a,64cb3716888eff33011781e3,,,,,,,,,,,,,,,,,,,,,,,,,,,,,,,,,,,,,,,,,,,,,,,,,,,,,,,,,,,,,,,,
,,,,,,,,2023-08-03_06h12.10.324,HF_wild_card,2022.2.4,Win32,28.20715333,6473924c2cae5ee4db5082d2,64b543b0a84ad6ab4a25b86a,64cb3716888eff33011781e3,,,,,,,sngl,resources/Empty.png,resources/DY.BMP,Door4,0.414814843,-0.019907422,1,0,0,2.69,optionRight,60,60,1,0,0,0,0,1,,,,,,,,,,,,,,,,,,,,,,,,,,,,,,,,,,,,,,,
,,,,,,,,2023-08-03_06h12.10.324,HF_wild_card,2022.2.4,Win32,28.20715333,6473924c2cae5ee4db5082d2,64b543b0a84ad6ab4a25b86a,64cb3716888eff33011781e3,,,,,,,sngl,resources/DP.BMP,resources/Empty.png,WildCard_Ex,-0.366666653,-0.075925933,1,0,0,2.3475,optionLeft,5,65,1,1,0,1,0,1,,,,,,,,,,,,,,,,,,,,,,,,,,,,,,,,,,,,,,,
,,,,,,,,2023-08-03_06h12.10.324,HF_wild_card,2022.2.4,Win32,28.20715333,6473924c2cae5ee4db5082d2,64b543b0a84ad6ab4a25b86a,64cb3716888eff33011781e3,,,,,,,decisionTrl,resources/DBN.BMP,resources/DY.BMP,Door3,-0.364814794,-0.038888896,1,0,0,2.8272,optionLeft,70,135,1,2,0,2,0,1,,,,,,,,,,,,,,,,,,,,,,,,,,,,,,,,,,,,,,,
,,,,,,,,2023-08-03_06h12.10.324,HF_wild_card,2022.2.4,Win32,28.20715333,6473924c2cae5ee4db5082d2,64b543b0a84ad6ab4a25b86a,64cb3716888eff33011781e3,,,,,,,sngl,resources/DR.BMP,resources/Empty.png,Door1,-0.367129608,-0.063888903,1,0,0,1.3079,optionLeft,30,165,1,3,0,3,0,1,,,,,,,,,,,,,,,,,,,,,,,,,,,,,,,,,,,,,,,
,,,,,,,,2023-08-03_06h12.10.324,HF_wild_card,2022.2.4,Win32,28.20715333,6473924c2cae5ee4db5082d2,64b543b0a84ad6ab4a25b86a,64cb3716888eff33011781e3,,,,,,,ctch,resources/DBN.BMP,resources/DG.BMP,Door3,-0.377777771,-0.024537051,1,0,0,2.3174,optionLeft,70,235,1,4,0,4,0,1,,,,,,,,,,,,,,,,,,,,,,,,,,,,,,,,,,,,,,,
,,,,,,,,2023-08-03_06h12.10.324,HF_wild_card,2022.2.4,Win32,28.20715333,6473924c2cae5ee4db5082d2,64b543b0a84ad6ab4a25b86a,64cb3716888eff33011781e3,,,,,,,sngl,resources/Empty.png,resources/DR.BMP,Door1,0.404629601,-0.018518519,1,0,0,1.3136,optionRight,30,265,1,5,0,5,0,1,,,,,,,,,,,,,,,,,,,,,,,,,,,,,,,,,,,,,,,
,,,,,,,,2023-08-03_06h12.10.324,HF_wild_card,2022.2.4,Win32,28.20715333,6473924c2cae5ee4db5082d2,64b543b0a84ad6ab4a25b86a,64cb3716888eff33011781e3,,,,,,,decisionTrl,resources/DR.BMP,resources/DG.BMP,Door2,0.420833305,0.006944444,1,0,0,3.3319,optionRight,40,305,1,6,0,6,0,1,,,,,,,,,,,,,,,,,,,,,,,,,,,,,,,,,,,,,,,
,,,,,,,,2023-08-03_06h12.10.324,HF_wild_card,2022.2.4,Win32,28.20715333,6473924c2cae5ee4db5082d2,64b543b0a84ad6ab4a25b86a,64cb3716888eff33011781e3,,,,,,,ctch,resources/DR.BMP,resources/DY.BMP,Door1,-0.369907414,-0.07916666,1,0,0,2.1755,optionLeft,30,335,1,7,0,7,0,1,,,,,,,,,,,,,,,,,,,,,,,,,,,,,,,,,,,,,,,
,,,,,,,,2023-08-03_06h12.10.324,HF_wild_card,2022.2.4,Win32,28.20715333,6473924c2cae5ee4db5082d2,64b543b0a84ad6ab4a25b86a,64cb3716888eff33011781e3,,,,,,,decisionTrl,resources/DR.BMP,resources/DG.BMP,Door2,0.387500057,0.025925919,1,0,0,2.1062,optionRight,40,375,1,8,0,8,0,1,,,,,,,,,,,,,,,,,,,,,,,,,,,,,,,,,,,,,,,
,,,,,,,,2023-08-03_06h12.10.324,HF_wild_card,2022.2.4,Win32,28.20715333,6473924c2cae5ee4db5082d2,64b543b0a84ad6ab4a25b86a,64cb3716888eff33011781e3,,,,,,,sngl,resources/DP.BMP,resources/Empty.png,WildCard_Ex,-0.408333319,-0.099537037,1,0,0,1.1919,optionLeft,95,470,1,9,0,9,0,1,,,,,,,,,,,,,,,,,,,,,,,,,,,,,,,,,,,,,,,
,,,,,,,,2023-08-03_06h12.10.324,HF_wild_card,2022.2.4,Win32,28.20715333,6473924c2cae5ee4db5082d2,64b543b0a84ad6ab4a25b86a,64cb3716888eff33011781e3,,,,,,,decisionTrl,resources/DR.BMP,resources/DP.BMP,WildCard_Ex,0.387963048,-0.006944444,1,0,0,1.2712,optionRight,95,565,1,10,0,10,0,1,,,,,,,,,,,,,,,,,,,,,,,,,,,,,,,,,,,,,,,
,,,,,,,,2023-08-03_06h12.10.324,HF_wild_card,2022.2.4,Win32,28.20715333,6473924c2cae5ee4db5082d2,64b543b0a84ad6ab4a25b86a,64cb3716888eff33011781e3,,,,,,,decisionTrl,resources/DP.BMP,resources/DG.BMP,WildCard_Ex,-0.3050926,-0.092592593,1,0,0,1.5215,optionLeft,95,660,1,11,0,11,0,1,,,,,,,,,,,,,,,,,,,,,,,,,,,,,,,,,,,,,,,
,,,,,,,,2023-08-03_06h12.10.324,HF_wild_card,2022.2.4,Win32,28.20715333,6473924c2cae5ee4db5082d2,64b543b0a84ad6ab4a25b86a,64cb3716888eff33011781e3,,,,,,,sngl,resources/DBN.BMP,resources/Empty.png,Door3,-0.325925933,-0.056018511,1,0,0,1.3216,optionLeft,70,730,1,12,0,12,0,1,,,,,,,,,,,,,,,,,,,,,,,,,,,,,,,,,,,,,,,
,,,,,,,,2023-08-03_06h12.10.324,HF_wild_card,2022.2.4,Win32,28.20715333,6473924c2cae5ee4db5082d2,64b543b0a84ad6ab4a25b86a,64cb3716888eff33011781e3,,,,,,,sngl,resources/DY.BMP,resources/Empty.png,Door4,-0.397222201,-0.061111132,1,0,0,1.1701,optionLeft,80,810,1,13,0,13,0,1,,,,,,,,,,,,,,,,,,,,,,,,,,,,,,,,,,,,,,,
,,,,,,,,2023-08-03_06h12.10.324,HF_wild_card,2022.2.4,Win32,28.20715333,6473924c2cae5ee4db5082d2,64b543b0a84ad6ab4a25b86a,64cb3716888eff33011781e3,,,,,,,decisionTrl,resources/DY.BMP,resources/DBN.BMP,Door4,-0.397222201,-0.051388882,1,0,0,2.1509,optionLeft,80,890,1,14,0,14,0,1,,,,,,,,,,,,,,,,,,,,,,,,,,,,,,,,,,,,,,,
,,,,,,,,2023-08-03_06h12.10.324,HF_wild_card,2022.2.4,Win32,28.20715333,6473924c2cae5ee4db5082d2,64b543b0a84ad6ab4a25b86a,64cb3716888eff33011781e3,,,,,,,ctch,resources/DY.BMP,resources/DR.BMP,Door4,-0.34398146,-0.050925926,1,0,0,2.3905,optionLeft,80,970,1,15,0,15,0,1,,,,,,,,,,,,,,,,,,,,,,,,,,,,,,,,,,,,,,,
,,,,,,,,2023-08-03_06h12.10.324,HF_wild_card,2022.2.4,Win32,28.20715333,6473924c2cae5ee4db5082d2,64b543b0a84ad6ab4a25b86a,64cb3716888eff33011781e3,,,,,,,decisionTrl,resources/DG.BMP,resources/DR.BMP,Door1,0.419907464,0.020833333,1,0,0,2.268,optionRight,30,1000,1,16,0,16,0,1,,,,,,,,,,,,,,,,,,,,,,,,,,,,,,,,,,,,,,,
,,,,,,,,2023-08-03_06h12.10.324,HF_wild_card,2022.2.4,Win32,28.20715333,6473924c2cae5ee4db5082d2,64b543b0a84ad6ab4a25b86a,64cb3716888eff33011781e3,,,,,,,sngl,resources/Empty.png,resources/DP.BMP,WildCard_Ex,0.344444416,0.009722215,1,0,0,1.1039,optionRight,5,1005,1,17,0,17,0,1,,,,,,,,,,,,,,,,,,,,,,,,,,,,,,,,,,,,,,,
,,,,,,,,2023-08-03_06h12.10.324,HF_wild_card,2022.2.4,Win32,28.20715333,6473924c2cae5ee4db5082d2,64b543b0a84ad6ab4a25b86a,64cb3716888eff33011781e3,,,,,,,sngl,resources/Empty.png,resources/DP.BMP,WildCard_Ex,0.432407379,0.006481489,1,0,0,1.3247,optionRight,95,1100,1,18,0,18,0,1,,,,,,,,,,,,,,,,,,,,,,,,,,,,,,,,,,,,,,,
,,,,,,,,2023-08-03_06h12.10.324,HF_wild_card,2022.2.4,Win32,28.20715333,6473924c2cae5ee4db5082d2,64b543b0a84ad6ab4a25b86a,64cb3716888eff33011781e3,,,,,,,decisionTrl,resources/DP.BMP,resources/DR.BMP,WildCard_Ex,-0.387962942,0.142592571,1,0,0,2.2996,optionLeft,5,1105,1,19,0,19,0,1,,,,,,,,,,,,,,,,,,,,,,,,,,,,,,,,,,,,,,,
,,,,,,,,2023-08-03_06h12.10.324,HF_wild_card,2022.2.4,Win32,28.20715333,6473924c2cae5ee4db5082d2,64b543b0a84ad6ab4a25b86a,64cb3716888eff33011781e3,,,,,,,decisionTrl,resources/DP.BMP,resources/DY.BMP,Door4,0.399537122,0.029629637,1,0,0,2.28,optionRight,60,1165,1,20,0,20,0,1,,,,,,,,,,,,,,,,,,,,,,,,,,,,,,,,,,,,,,,
,,,,,,,,2023-08-03_06h12.10.324,HF_wild_card,2022.2.4,Win32,28.20715333,6473924c2cae5ee4db5082d2,64b543b0a84ad6ab4a25b86a,64cb3716888eff33011781e3,,,,,,,decisionTrl,resources/DY.BMP,resources/DBN.BMP,Door4,-0.356481481,-0.020370377,1,0,0,1.3084,optionLeft,60,1225,1,21,0,21,0,1,,,,,,,,,,,,,,,,,,,,,,,,,,,,,,,,,,,,,,,
,,,,,,,,2023-08-03_06h12.10.324,HF_wild_card,2022.2.4,Win32,28.20715333,6473924c2cae5ee4db5082d2,64b543b0a84ad6ab4a25b86a,64cb3716888eff33011781e3,,,,,,,decisionTrl,resources/DY.BMP,resources/DBN.BMP,Door4,-0.385185171,-0.02638891,1,0,0,1.7274,optionLeft,80,1305,1,22,0,22,0,1,,,,,,,,,,,,,,,,,,,,,,,,,,,,,,,,,,,,,,,
,,,,,,,,2023-08-03_06h12.10.324,HF_wild_card,2022.2.4,Win32,28.20715333,6473924c2cae5ee4db5082d2,64b543b0a84ad6ab4a25b86a,64cb3716888eff33011781e3,,,,,,,decisionTrl,resources/DY.BMP,resources/DBN.BMP,Door4,-0.368981467,-0.034259266,1,0,0,1.1162,optionLeft,60,1365,1,23,0,23,0,1,,,,,,,,,,,,,,,,,,,,,,,,,,,,,,,,,,,,,,,
,,,,,,,,2023-08-03_06h12.10.324,HF_wild_card,2022.2.4,Win32,28.20715333,6473924c2cae5ee4db5082d2,64b543b0a84ad6ab4a25b86a,64cb3716888eff33011781e3,,,,,,,decisionTrl,resources/DG.BMP,resources/DP.BMP,WildCard_Ex,0.440277806,0.068518497,1,0,0,2.0095,optionRight,95,1460,1,24,0,24,0,1,,,,,,,,,,,,,,,,,,,,,,,,,,,,,,,,,,,,,,,
,,,,,,,,2023-08-03_06h12.10.324,HF_wild_card,2022.2.4,Win32,28.20715333,6473924c2cae5ee4db5082d2,64b543b0a84ad6ab4a25b86a,64cb3716888eff33011781e3,,,,,,,decisionTrl,resources/DBN.BMP,resources/DY.BMP,Door4,0.448611083,0.081481474,1,0,0,2.4226,optionRight,60,1520,1,25,0,25,0,1,,,,,,,,,,,,,,,,,,,,,,,,,,,,,,,,,,,,,,,
,,,,,,,,2023-08-03_06h12.10.324,HF_wild_card,2022.2.4,Win32,28.20715333,6473924c2cae5ee4db5082d2,64b543b0a84ad6ab4a25b86a,64cb3716888eff33011781e3,,,,,,,ctch,resources/DG.BMP,resources/DBN.BMP,Door2,-0.336111104,0.077777757,1,0,0,2.6276,optionLeft,20,1540,1,26,0,26,0,1,,,,,,,,,,,,,,,,,,,,,,,,,,,,,,,,,,,,,,,
,,,,,,,,2023-08-03_06h12.10.324,HF_wild_card,2022.2.4,Win32,28.20715333,6473924c2cae5ee4db5082d2,64b543b0a84ad6ab4a25b86a,64cb3716888eff33011781e3,,,,,,,decisionTrl,resources/DY.BMP,resources/DP.BMP,WildCard_Ex,0.428240741,0.121296282,1,0,0,1.6893,optionRight,95,1635,1,27,0,27,0,1,,,,,,,,,,,,,,,,,,,,,,,,,,,,,,,,,,,,,,,
,,,,,,,,2023-08-03_06h12.10.324,HF_wild_card,2022.2.4,Win32,28.20715333,6473924c2cae5ee4db5082d2,64b543b0a84ad6ab4a25b86a,64cb3716888eff33011781e3,,,,,,,decisionTrl,resources/DBN.BMP,resources/DY.BMP,Door4,0.466666751,0.162962949,1,0,0,1.5728,optionRight,60,1695,1,28,0,28,0,1,,,,,,,,,,,,,,,,,,,,,,,,,,,,,,,,,,,,,,,
,,,,,,,,2023-08-03_06h12.10.324,HF_wild_card,2022.2.4,Win32,28.20715333,6473924c2cae5ee4db5082d2,64b543b0a84ad6ab4a25b86a,64cb3716888eff33011781e3,,,,,,,decisionTrl,resources/DG.BMP,resources/DR.BMP,Door2,-0.386574074,0.080092571,1,0,0,3.0596,optionLeft,40,1735,1,29,0,29,0,1,,,,,,,,,,,,,,,,,,,,,,,,,,,,,,,,,,,,,,,
,,,,,,,,2023-08-03_06h12.10.324,HF_wild_card,2022.2.4,Win32,28.20715333,6473924c2cae5ee4db5082d2,64b543b0a84ad6ab4a25b86a,64cb3716888eff33011781e3,,,,,,,decisionTrl,resources/DP.BMP,resources/DBN.BMP,WildCard_Ex,-0.354629623,0.076851845,1,0,0,1.303,optionLeft,5,1740,1,30,0,30,0,1,,,,,,,,,,,,,,,,,,,,,,,,,,,,,,,,,,,,,,,
,,,,,,,,2023-08-03_06h12.10.324,HF_wild_card,2022.2.4,Win32,28.20715333,6473924c2cae5ee4db5082d2,64b543b0a84ad6ab4a25b86a,64cb3716888eff33011781e3,,,,,,,sngl,resources/Empty.png,resources/DBN.BMP,Door3,0.430555556,0.138888889,1,0,0,1.2009,optionRight,70,1810,1,31,0,31,0,1,,,,,,,,,,,,,,,,,,,,,,,,,,,,,,,,,,,,,,,
,,,,,,,,2023-08-03_06h12.10.324,HF_wild_card,2022.2.4,Win32,28.20715333,6473924c2cae5ee4db5082d2,64b543b0a84ad6ab4a25b86a,64cb3716888eff33011781e3,,,,,,,decisionTrl,resources/DBN.BMP,resources/DY.BMP,Door3,-0.368518511,0.122685185,1,0,0,1.1212,optionLeft,70,1880,1,32,0,32,0,1,,,,,,,,,,,,,,,,,,,,,,,,,,,,,,,,,,,,,,,
,,,,,,,,2023-08-03_06h12.10.324,HF_wild_card,2022.2.4,Win32,28.20715333,6473924c2cae5ee4db5082d2,64b543b0a84ad6ab4a25b86a,64cb3716888eff33011781e3,,,,,,,sngl,resources/DG.BMP,resources/Empty.png,Door2,-0.350925905,0.092592593,1,0,0,1.4144,optionLeft,40,1920,1,33,0,33,0,1,,,,,,,,,,,,,,,,,,,,,,,,,,,,,,,,,,,,,,,
,,,,,,,,2023-08-03_06h12.10.324,HF_wild_card,2022.2.4,Win32,28.20715333,6473924c2cae5ee4db5082d2,64b543b0a84ad6ab4a25b86a,64cb3716888eff33011781e3,,,,,,,ctch,resources/DBN.BMP,resources/DG.BMP,Door3,-0.378703683,0.126851859,1,0,0,1.1761,optionLeft,70,1990,1,34,0,34,0,1,,,,,,,,,,,,,,,,,,,,,,,,,,,,,,,,,,,,,,,
,,,,,,,,2023-08-03_06h12.10.324,HF_wild_card,2022.2.4,Win32,28.20715333,6473924c2cae5ee4db5082d2,64b543b0a84ad6ab4a25b86a,64cb3716888eff33011781e3,,,,,,,ctch,resources/DR.BMP,resources/DY.BMP,Door4,0.42314812,0.189351859,1,0,0,1.4468,optionRight,80,2070,1,35,0,35,0,1,,,,,,,,,,,,,,,,,,,,,,,,,,,,,,,,,,,,,,,
,,,,,,,,2023-08-03_06h12.10.324,HF_wild_card,2022.2.4,Win32,28.20715333,6473924c2cae5ee4db5082d2,64b543b0a84ad6ab4a25b86a,64cb3716888eff33011781e3,,,,,,,decisionTrl,resources/DR.BMP,resources/DG.BMP,Door2,0.397685157,0.192592586,1,0,0,1.8722,optionRight,20,2090,1,36,0,36,0,1,,,,,,,,,,,,,,,,,,,,,,,,,,,,,,,,,,,,,,,
,,,,,,,,2023-08-03_06h12.10.324,HF_wild_card,2022.2.4,Win32,28.20715333,6473924c2cae5ee4db5082d2,64b543b0a84ad6ab4a25b86a,64cb3716888eff33011781e3,,,,,,,sngl,resources/Empty.png,resources/DG.BMP,Door2,0.466666751,0.148611104,1,0,0,0.8661,optionRight,20,2110,1,37,0,37,0,1,,,,,,,,,,,,,,,,,,,,,,,,,,,,,,,,,,,,,,,
,,,,,,,,2023-08-03_06h12.10.324,HF_wild_card,2022.2.4,Win32,28.20715333,6473924c2cae5ee4db5082d2,64b543b0a84ad6ab4a25b86a,64cb3716888eff33011781e3,,,,,,,ctch,resources/DY.BMP,resources/DR.BMP,Door4,-0.347685178,0.087037016,1,0,0,2.006,optionLeft,80,2190,1,38,0,38,0,1,,,,,,,,,,,,,,,,,,,,,,,,,,,,,,,,,,,,,,,
,,,,,,,,2023-08-03_06h12.10.324,HF_wild_card,2022.2.4,Win32,28.20715333,6473924c2cae5ee4db5082d2,64b543b0a84ad6ab4a25b86a,64cb3716888eff33011781e3,,,,,,,decisionTrl,resources/DG.BMP,resources/DR.BMP,Door2,-0.339814822,0.106018526,1,0,0,1.7851,optionLeft,40,2230,1,39,0,39,0,1,,,,,,,,,,,,,,,,,,,,,,,,,,,,,,,,,,,,,,,
,,,,,,,,2023-08-03_06h12.10.324,HF_wild_card,2022.2.4,Win32,28.20715333,6473924c2cae5ee4db5082d2,64b543b0a84ad6ab4a25b86a,64cb3716888eff33011781e3,,,,,,,decisionTrl,resources/DBN.BMP,resources/DP.BMP,WildCard_Ex,0.420370455,0.1800926,1,0,0,3.0801,optionRight,5,2235,1,40,0,40,0,1,,,,,,,,,,,,,,,,,,,,,,,,,,,,,,,,,,,,,,,
,,,,,,,,2023-08-03_06h12.10.324,HF_wild_card,2022.2.4,Win32,28.20715333,6473924c2cae5ee4db5082d2,64b543b0a84ad6ab4a25b86a,64cb3716888eff33011781e3,,,,,,,ctch,resources/DG.BMP,resources/DBN.BMP,Door3,0.413888861,0.233333323,1,0,0,1.6261,optionRight,70,2305,1,41,0,41,0,1,,,,,,,,,,,,,,,,,,,,,,,,,,,,,,,,,,,,,,,
,,,,,,,,2023-08-03_06h12.10.324,HF_wild_card,2022.2.4,Win32,28.20715333,6473924c2cae5ee4db5082d2,64b543b0a84ad6ab4a25b86a,64cb3716888eff33011781e3,,,,,,,decisionTrl,resources/DG.BMP,resources/DR.BMP,Door2,-0.431018511,0.096296275,1,0,0,1.639,optionLeft,40,2345,1,42,0,42,0,1,,,,,,,,,,,,,,,,,,,,,,,,,,,,,,,,,,,,,,,
,,,,,,,,2023-08-03_06h12.10.324,HF_wild_card,2022.2.4,Win32,28.20715333,6473924c2cae5ee4db5082d2,64b543b0a84ad6ab4a25b86a,64cb3716888eff33011781e3,,,,,,,decisionTrl,resources/DR.BMP,resources/DG.BMP,Door2,0.381481453,0.144907386,1,0,0,1.4362,optionRight,20,2365,1,43,0,43,0,1,,,,,,,,,,,,,,,,,,,,,,,,,,,,,,,,,,,,,,,
,,,,,,,,2023-08-03_06h12.10.324,HF_wild_card,2022.2.4,Win32,28.20715333,6473924c2cae5ee4db5082d2,64b543b0a84ad6ab4a25b86a,64cb3716888eff33011781e3,,,,,,,,,,,,,,,,,,,,,,,,,,0,0,0,0,1,,,,,,,,,,,,,,,,,,,,,,,,,,,,,,,,,,
,,,,,,,,2023-08-03_06h12.10.324,HF_wild_card,2022.2.4,Win32,28.20715333,6473924c2cae5ee4db5082d2,64b543b0a84ad6ab4a25b86a,64cb3716888eff33011781e3,,,,,,,decisionTrl,resources/DG.BMP,resources/DR.BMP,Door2,-0.265277792,-0.026851866,1,0,0,1.6311,optionLeft,20,2385,2,0,0,0,0,1,,,,,,,,,,,,,,,,,,,,,,,,,,,,,,,,,,,,,,,
,,,,,,,,2023-08-03_06h12.10.324,HF_wild_card,2022.2.4,Win32,28.20715333,6473924c2cae5ee4db5082d2,64b543b0a84ad6ab4a25b86a,64cb3716888eff33011781e3,,,,,,,decisionTrl,resources/DP.BMP,resources/DG.BMP,WildCard_Ex,-0.34398146,0.001388868,1,0,0,1.0734,optionLeft,95,2480,2,1,0,1,0,1,,,,,,,,,,,,,,,,,,,,,,,,,,,,,,,,,,,,,,,
,,,,,,,,2023-08-03_06h12.10.324,HF_wild_card,2022.2.4,Win32,28.20715333,6473924c2cae5ee4db5082d2,64b543b0a84ad6ab4a25b86a,64cb3716888eff33011781e3,,,,,,,ctch,resources/DBN.BMP,resources/DG.BMP,Door3,-0.384722215,0.125462956,1,0,0,1.1208,optionLeft,70,2550,2,2,0,2,0,1,,,,,,,,,,,,,,,,,,,,,,,,,,,,,,,,,,,,,,,
,,,,,,,,2023-08-03_06h12.10.324,HF_wild_card,2022.2.4,Win32,28.20715333,6473924c2cae5ee4db5082d2,64b543b0a84ad6ab4a25b86a,64cb3716888eff33011781e3,,,,,,,decisionTrl,resources/DG.BMP,resources/DR.BMP,Door2,-0.384259259,0.150925919,1,0,0,1.6911,optionLeft,40,2590,2,3,0,3,0,1,,,,,,,,,,,,,,,,,,,,,,,,,,,,,,,,,,,,,,,
,,,,,,,,2023-08-03_06h12.10.324,HF_wild_card,2022.2.4,Win32,28.20715333,6473924c2cae5ee4db5082d2,64b543b0a84ad6ab4a25b86a,64cb3716888eff33011781e3,,,,,,,decisionTrl,resources/DP.BMP,resources/DY.BMP,WildCard_Ex,-0.388425933,0.107870349,1,0,0,1.1725,optionLeft,5,2595,2,4,0,4,0,1,,,,,,,,,,,,,,,,,,,,,,,,,,,,,,,,,,,,,,,
,,,,,,,,2023-08-03_06h12.10.324,HF_wild_card,2022.2.4,Win32,28.20715333,6473924c2cae5ee4db5082d2,64b543b0a84ad6ab4a25b86a,64cb3716888eff33011781e3,,,,,,,decisionTrl,resources/DY.BMP,resources/DBN.BMP,Door3,0.410185213,0.189351859,1,0,0,1.6242,optionRight,70,2665,2,5,0,5,0,1,,,,,,,,,,,,,,,,,,,,,,,,,,,,,,,,,,,,,,,
,,,,,,,,2023-08-03_06h12.10.324,HF_wild_card,2022.2.4,Win32,28.20715333,6473924c2cae5ee4db5082d2,64b543b0a84ad6ab4a25b86a,64cb3716888eff33011781e3,,,,,,,decisionTrl,resources/DY.BMP,resources/DBN.BMP,Door3,0.46620376,0.290277781,1,0,0,1.3609,optionRight,70,2735,2,6,0,6,0,1,,,,,,,,,,,,,,,,,,,,,,,,,,,,,,,,,,,,,,,
,,,,,,,,2023-08-03_06h12.10.324,HF_wild_card,2022.2.4,Win32,28.20715333,6473924c2cae5ee4db5082d2,64b543b0a84ad6ab4a25b86a,64cb3716888eff33011781e3,,,,,,,decisionTrl,resources/DBN.BMP,resources/DP.BMP,Door3,-0.380092586,0.233333323,1,0,0,1.4825,optionLeft,70,2805,2,7,0,7,0,1,,,,,,,,,,,,,,,,,,,,,,,,,,,,,,,,,,,,,,,
,,,,,,,,2023-08-03_06h12.10.324,HF_wild_card,2022.2.4,Win32,28.20715333,6473924c2cae5ee4db5082d2,64b543b0a84ad6ab4a25b86a,64cb3716888eff33011781e3,,,,,,,ctch,resources/DY.BMP,resources/DR.BMP,Door4,-0.395833333,0.155555548,1,0,0,1.9177,optionLeft,60,2865,2,8,0,8,0,1,,,,,,,,,,,,,,,,,,,,,,,,,,,,,,,,,,,,,,,
,,,,,,,,2023-08-03_06h12.10.324,HF_wild_card,2022.2.4,Win32,28.20715333,6473924c2cae5ee4db5082d2,64b543b0a84ad6ab4a25b86a,64cb3716888eff33011781e3,,,,,,,sngl,resources/DBN.BMP,resources/Empty.png,Door3,-0.399537016,0.179629608,1,0,0,1.2523,optionLeft,70,2935,2,9,0,9,0,1,,,,,,,,,,,,,,,,,,,,,,,,,,,,,,,,,,,,,,,
,,,,,,,,2023-08-03_06h12.10.324,HF_wild_card,2022.2.4,Win32,28.20715333,6473924c2cae5ee4db5082d2,64b543b0a84ad6ab4a25b86a,64cb3716888eff33011781e3,,,,,,,sngl,resources/DP.BMP,resources/Empty.png,WildCard_Ex,-0.401388875,0.11296297,1,0,0,1.2175,optionLeft,5,2940,2,10,0,10,0,1,,,,,,,,,,,,,,,,,,,,,,,,,,,,,,,,,,,,,,,
,,,,,,,,2023-08-03_06h12.10.324,HF_wild_card,2022.2.4,Win32,28.20715333,6473924c2cae5ee4db5082d2,64b543b0a84ad6ab4a25b86a,64cb3716888eff33011781e3,,,,,,,decisionTrl,resources/DY.BMP,resources/DP.BMP,Door4,-0.372222229,0.111111111,1,0,0,1.2375,optionLeft,80,3020,2,11,0,11,0,1,,,,,,,,,,,,,,,,,,,,,,,,,,,,,,,,,,,,,,,
,,,,,,,,2023-08-03_06h12.10.324,HF_wild_card,2022.2.4,Win32,28.20715333,6473924c2cae5ee4db5082d2,64b543b0a84ad6ab4a25b86a,64cb3716888eff33011781e3,,,,,,,ctch,resources/DG.BMP,resources/DBN.BMP,Door3,0.408796381,0.224074063,1,0,0,1.5197,optionRight,70,3090,2,12,0,12,0,1,,,,,,,,,,,,,,,,,,,,,,,,,,,,,,,,,,,,,,,
,,,,,,,,2023-08-03_06h12.10.324,HF_wild_card,2022.2.4,Win32,28.20715333,6473924c2cae5ee4db5082d2,64b543b0a84ad6ab4a25b86a,64cb3716888eff33011781e3,,,,,,,decisionTrl,resources/DBN.BMP,resources/DY.BMP,Door3,-0.386574074,0.162499993,1,0,0,1.2335,optionLeft,70,3160,2,13,0,13,0,1,,,,,,,,,,,,,,,,,,,,,,,,,,,,,,,,,,,,,,,
,,,,,,,,2023-08-03_06h12.10.324,HF_wild_card,2022.2.4,Win32,28.20715333,6473924c2cae5ee4db5082d2,64b543b0a84ad6ab4a25b86a,64cb3716888eff33011781e3,,,,,,,ctch,resources/DR.BMP,resources/DY.BMP,Door4,0.42314812,0.159722222,1,0,0,1.9354,optionRight,60,3220,2,14,0,14,0,1,,,,,,,,,,,,,,,,,,,,,,,,,,,,,,,,,,,,,,,
,,,,,,,,2023-08-03_06h12.10.324,HF_wild_card,2022.2.4,Win32,28.20715333,6473924c2cae5ee4db5082d2,64b543b0a84ad6ab4a25b86a,64cb3716888eff33011781e3,,,,,,,sngl,resources/Empty.png,resources/DG.BMP,Door2,0.398148148,0.131018497,1,0,0,1.0579,optionRight,40,3260,2,15,0,15,0,1,,,,,,,,,,,,,,,,,,,,,,,,,,,,,,,,,,,,,,,
,,,,,,,,2023-08-03_06h12.10.324,HF_wild_card,2022.2.4,Win32,28.20715333,6473924c2cae5ee4db5082d2,64b543b0a84ad6ab4a25b86a,64cb3716888eff33011781e3,,,,,,,ctch,resources/DY.BMP,resources/DR.BMP,Door4,-0.35324072,0.119444423,1,0,0,1.1431,optionLeft,60,3320,2,16,0,16,0,1,,,,,,,,,,,,,,,,,,,,,,,,,,,,,,,,,,,,,,,
,,,,,,,,2023-08-03_06h12.10.324,HF_wild_card,2022.2.4,Win32,28.20715333,6473924c2cae5ee4db5082d2,64b543b0a84ad6ab4a25b86a,64cb3716888eff33011781e3,,,,,,,decisionTrl,resources/DP.BMP,resources/DBN.BMP,Door3,0.42777775,0.243518511,1,0,0,1.4997,optionRight,70,3390,2,17,0,17,0,1,,,,,,,,,,,,,,,,,,,,,,,,,,,,,,,,,,,,,,,
,,,,,,,,2023-08-03_06h12.10.324,HF_wild_card,2022.2.4,Win32,28.20715333,6473924c2cae5ee4db5082d2,64b543b0a84ad6ab4a25b86a,64cb3716888eff33011781e3,,,,,,,ctch,resources/DR.BMP,resources/DY.BMP,Door4,0.479629658,0.165277764,1,0,0,2.2208,optionRight,80,3470,2,18,0,18,0,1,,,,,,,,,,,,,,,,,,,,,,,,,,,,,,,,,,,,,,,
,,,,,,,,2023-08-03_06h12.10.324,HF_wild_card,2022.2.4,Win32,28.20715333,6473924c2cae5ee4db5082d2,64b543b0a84ad6ab4a25b86a,64cb3716888eff33011781e3,,,,,,,decisionTrl,resources/DR.BMP,resources/DG.BMP,Door2,0.424074102,0.154629637,1,0,0,1.8541,optionRight,40,3510,2,19,0,19,0,1,,,,,,,,,,,,,,,,,,,,,,,,,,,,,,,,,,,,,,,
,,,,,,,,2023-08-03_06h12.10.324,HF_wild_card,2022.2.4,Win32,28.20715333,6473924c2cae5ee4db5082d2,64b543b0a84ad6ab4a25b86a,64cb3716888eff33011781e3,,,,,,,ctch,resources/DBN.BMP,resources/DG.BMP,Door3,-0.393981474,0.102314808,1,0,0,1.2872,optionLeft,70,3580,2,20,0,20,0,1,,,,,,,,,,,,,,,,,,,,,,,,,,,,,,,,,,,,,,,
,,,,,,,,2023-08-03_06h12.10.324,HF_wild_card,2022.2.4,Win32,28.20715333,6473924c2cae5ee4db5082d2,64b543b0a84ad6ab4a25b86a,64cb3716888eff33011781e3,,,,,,,decisionTrl,resources/DBN.BMP,resources/DY.BMP,Door3,-0.412962949,0.172222208,1,0,0,1.8424,optionLeft,70,3650,2,21,0,21,0,1,,,,,,,,,,,,,,,,,,,,,,,,,,,,,,,,,,,,,,,
,,,,,,,,2023-08-03_06h12.10.324,HF_wild_card,2022.2.4,Win32,28.20715333,6473924c2cae5ee4db5082d2,64b543b0a84ad6ab4a25b86a,64cb3716888eff33011781e3,,,,,,,sngl,resources/Empty.png,resources/DP.BMP,WildCard_Ex,0.416666667,0.168518526,1,0,0,1.1072,optionRight,5,3655,2,22,0,22,0,1,,,,,,,,,,,,,,,,,,,,,,,,,,,,,,,,,,,,,,,
,,,,,,,,2023-08-03_06h12.10.324,HF_wild_card,2022.2.4,Win32,28.20715333,6473924c2cae5ee4db5082d2,64b543b0a84ad6ab4a25b86a,64cb3716888eff33011781e3,,,,,,,decisionTrl,resources/DR.BMP,resources/DG.BMP,Door2,0.405092593,0.191666674,1,0,0,1.3694,optionRight,40,3695,2,23,0,23,0,1,,,,,,,,,,,,,,,,,,,,,,,,,,,,,,,,,,,,,,,
,,,,,,,,2023-08-03_06h12.10.324,HF_wild_card,2022.2.4,Win32,28.20715333,6473924c2cae5ee4db5082d2,64b543b0a84ad6ab4a25b86a,64cb3716888eff33011781e3,,,,,,,decisionTrl,resources/DR.BMP,resources/DG.BMP,Door2,0.48055564,0.1949074,1,0,0,1.2553,optionRight,20,3715,2,24,0,24,0,1,,,,,,,,,,,,,,,,,,,,,,,,,,,,,,,,,,,,,,,
,,,,,,,,2023-08-03_06h12.10.324,HF_wild_card,2022.2.4,Win32,28.20715333,6473924c2cae5ee4db5082d2,64b543b0a84ad6ab4a25b86a,64cb3716888eff33011781e3,,,,,,,decisionTrl,resources/DG.BMP,resources/DP.BMP,Door2,-0.318518497,0.126388868,1,0,0,2.1671,optionLeft,20,3735,2,25,0,25,0,1,,,,,,,,,,,,,,,,,,,,,,,,,,,,,,,,,,,,,,,
,,,,,,,,2023-08-03_06h12.10.324,HF_wild_card,2022.2.4,Win32,28.20715333,6473924c2cae5ee4db5082d2,64b543b0a84ad6ab4a25b86a,64cb3716888eff33011781e3,,,,,,,sngl,resources/Empty.png,resources/DP.BMP,WildCard_Ex,0.42314812,0.210185175,1,0,0,0.9392,optionRight,95,3830,2,26,0,26,0,1,,,,,,,,,,,,,,,,,,,,,,,,,,,,,,,,,,,,,,,
,,,,,,,,2023-08-03_06h12.10.324,HF_wild_card,2022.2.4,Win32,28.20715333,6473924c2cae5ee4db5082d2,64b543b0a84ad6ab4a25b86a,64cb3716888eff33011781e3,,,,,,,ctch,resources/DG.BMP,resources/DBN.BMP,Door3,0.37037037,0.186574053,1,0,0,1.4656,optionRight,70,3900,2,27,0,27,0,1,,,,,,,,,,,,,,,,,,,,,,,,,,,,,,,,,,,,,,,
,,,,,,,,2023-08-03_06h12.10.324,HF_wild_card,2022.2.4,Win32,28.20715333,6473924c2cae5ee4db5082d2,64b543b0a84ad6ab4a25b86a,64cb3716888eff33011781e3,,,,,,,decisionTrl,resources/DR.BMP,resources/DP.BMP,WildCard_Ex,0.38472225,0.1875,1,0,0,1.0107,optionRight,95,3995,2,28,0,28,0,1,,,,,,,,,,,,,,,,,,,,,,,,,,,,,,,,,,,,,,,
,,,,,,,,2023-08-03_06h12.10.324,HF_wild_card,2022.2.4,Win32,28.20715333,6473924c2cae5ee4db5082d2,64b543b0a84ad6ab4a25b86a,64cb3716888eff33011781e3,,,,,,,sngl,resources/DY.BMP,resources/Empty.png,Door4,-0.343518504,0.10324072,1,0,0,1.2525,optionLeft,60,4055,2,29,0,29,0,1,,,,,,,,,,,,,,,,,,,,,,,,,,,,,,,,,,,,,,,
,,,,,,,,2023-08-03_06h12.10.324,HF_wild_card,2022.2.4,Win32,28.20715333,6473924c2cae5ee4db5082d2,64b543b0a84ad6ab4a25b86a,64cb3716888eff33011781e3,,,,,,,sngl,resources/DR.BMP,resources/Empty.png,Door1,-0.370833326,0.108796296,1,0,0,1.2533,optionLeft,30,4085,2,30,0,30,0,1,,,,,,,,,,,,,,,,,,,,,,,,,,,,,,,,,,,,,,,
,,,,,,,,2023-08-03_06h12.10.324,HF_wild_card,2022.2.4,Win32,28.20715333,6473924c2cae5ee4db5082d2,64b543b0a84ad6ab4a25b86a,64cb3716888eff33011781e3,,,,,,,decisionTrl,resources/DP.BMP,resources/DR.BMP,Door1,0.374537009,0.168981481,1,0,0,1.9726,optionRight,30,4115,2,31,0,31,0,1,,,,,,,,,,,,,,,,,,,,,,,,,,,,,,,,,,,,,,,
,,,,,,,,2023-08-03_06h12.10.324,HF_wild_card,2022.2.4,Win32,28.20715333,6473924c2cae5ee4db5082d2,64b543b0a84ad6ab4a25b86a,64cb3716888eff33011781e3,,,,,,,sngl,resources/DG.BMP,resources/Empty.png,Door2,-0.341666645,0.106481481,1,0,0,1.1276,optionLeft,20,4135,2,32,0,32,0,1,,,,,,,,,,,,,,,,,,,,,,,,,,,,,,,,,,,,,,,
,,,,,,,,2023-08-03_06h12.10.324,HF_wild_card,2022.2.4,Win32,28.20715333,6473924c2cae5ee4db5082d2,64b543b0a84ad6ab4a25b86a,64cb3716888eff33011781e3,,,,,,,sngl,resources/Empty.png,resources/DBN.BMP,Door3,0.350463019,0.230092596,1,0,0,0.9701,optionRight,70,4205,2,33,0,33,0,1,,,,,,,,,,,,,,,,,,,,,,,,,,,,,,,,,,,,,,,
,,,,,,,,2023-08-03_06h12.10.324,HF_wild_card,2022.2.4,Win32,28.20715333,6473924c2cae5ee4db5082d2,64b543b0a84ad6ab4a25b86a,64cb3716888eff33011781e3,,,,,,,decisionTrl,resources/DY.BMP,resources/DBN.BMP,Door3,0.376388974,0.218055548,1,0,0,1.2107,optionRight,70,4275,2,34,0,34,0,1,,,,,,,,,,,,,,,,,,,,,,,,,,,,,,,,,,,,,,,
,,,,,,,,2023-08-03_06h12.10.324,HF_wild_card,2022.2.4,Win32,28.20715333,6473924c2cae5ee4db5082d2,64b543b0a84ad6ab4a25b86a,64cb3716888eff33011781e3,,,,,,,decisionTrl,resources/DR.BMP,resources/DG.BMP,Door1,-0.328240748,0.073611118,1,0,0,1.0542,optionLeft,30,4305,2,35,0,35,0,1,,,,,,,,,,,,,,,,,,,,,,,,,,,,,,,,,,,,,,,
,,,,,,,,2023-08-03_06h12.10.324,HF_wild_card,2022.2.4,Win32,28.20715333,6473924c2cae5ee4db5082d2,64b543b0a84ad6ab4a25b86a,64cb3716888eff33011781e3,,,,,,,decisionTrl,resources/DG.BMP,resources/DR.BMP,Door1,0.365740741,0.142129616,1,0,0,1.3847,optionRight,30,4335,2,36,0,36,0,1,,,,,,,,,,,,,,,,,,,,,,,,,,,,,,,,,,,,,,,
,,,,,,,,2023-08-03_06h12.10.324,HF_wild_card,2022.2.4,Win32,28.20715333,6473924c2cae5ee4db5082d2,64b543b0a84ad6ab4a25b86a,64cb3716888eff33011781e3,,,,,,,sngl,resources/Empty.png,resources/DY.BMP,Door4,0.435648176,0.174074067,1,0,0,0.9648,optionRight,80,4415,2,37,0,37,0,1,,,,,,,,,,,,,,,,,,,,,,,,,,,,,,,,,,,,,,,
,,,,,,,,2023-08-03_06h12.10.324,HF_wild_card,2022.2.4,Win32,28.20715333,6473924c2cae5ee4db5082d2,64b543b0a84ad6ab4a25b86a,64cb3716888eff33011781e3,,,,,,,decisionTrl,resources/DBN.BMP,resources/DY.BMP,Door4,0.424537094,0.142129616,1,0,0,1.2551,optionRight,60,4475,2,38,0,38,0,1,,,,,,,,,,,,,,,,,,,,,,,,,,,,,,,,,,,,,,,
,,,,,,,,2023-08-03_06h12.10.324,HF_wild_card,2022.2.4,Win32,28.20715333,6473924c2cae5ee4db5082d2,64b543b0a84ad6ab4a25b86a,64cb3716888eff33011781e3,,,,,,,decisionTrl,resources/DY.BMP,resources/DBN.BMP,Door3,0.413888861,0.210648148,1,0,0,1.9016,optionRight,70,4545,2,39,0,39,0,1,,,,,,,,,,,,,,,,,,,,,,,,,,,,,,,,,,,,,,,
,,,,,,,,2023-08-03_06h12.10.324,HF_wild_card,2022.2.4,Win32,28.20715333,6473924c2cae5ee4db5082d2,64b543b0a84ad6ab4a25b86a,64cb3716888eff33011781e3,,,,,,,decisionTrl,resources/DBN.BMP,resources/DY.BMP,Door3,-0.338888875,0.105555534,1,0,0,1.0097,optionLeft,70,4615,2,40,0,40,0,1,,,,,,,,,,,,,,,,,,,,,,,,,,,,,,,,,,,,,,,
,,,,,,,,2023-08-03_06h12.10.324,HF_wild_card,2022.2.4,Win32,28.20715333,6473924c2cae5ee4db5082d2,64b543b0a84ad6ab4a25b86a,64cb3716888eff33011781e3,,,,,,,decisionTrl,resources/DG.BMP,resources/DR.BMP,Door2,-0.38703703,0.125462956,1,0,0,1.4172,optionLeft,40,4655,2,41,0,41,0,1,,,,,,,,,,,,,,,,,,,,,,,,,,,,,,,,,,,,,,,
,,,,,,,,2023-08-03_06h12.10.324,HF_wild_card,2022.2.4,Win32,28.20715333,6473924c2cae5ee4db5082d2,64b543b0a84ad6ab4a25b86a,64cb3716888eff33011781e3,,,,,,,sngl,resources/Empty.png,resources/DR.BMP,Door1,0.36527775,0.12037037,1,0,0,0.9154,optionRight,30,4685,2,42,0,42,0,1,,,,,,,,,,,,,,,,,,,,,,,,,,,,,,,,,,,,,,,
,,,,,,,,2023-08-03_06h12.10.324,HF_wild_card,2022.2.4,Win32,28.20715333,6473924c2cae5ee4db5082d2,64b543b0a84ad6ab4a25b86a,64cb3716888eff33011781e3,,,,,,,sngl,resources/DP.BMP,resources/Empty.png,WildCard_Ex,-0.417129623,0.063888868,1,0,0,0.8479,optionLeft,95,4780,2,43,0,43,0,1,,,,,,,,,,,,,,,,,,,,,,,,,,,,,,,,,,,,,,,
,,,,,,,,2023-08-03_06h12.10.324,HF_wild_card,2022.2.4,Win32,28.20715333,6473924c2cae5ee4db5082d2,64b543b0a84ad6ab4a25b86a,64cb3716888eff33011781e3,,,,,,,,,,,,,,,,,,,,,,,,,,1,0,1,0,1,,,,,,,,,,,,,,,,,,,,,,,,,,,,,,,,,,
,,,,,,,,2023-08-03_06h12.10.324,HF_wild_card,2022.2.4,Win32,28.20715333,6473924c2cae5ee4db5082d2,64b543b0a84ad6ab4a25b86a,64cb3716888eff33011781e3,,,,,,,ctch,resources/DG.BMP,resources/DBN.BMP,Door3,0.419444473,0.0699074,1,0,0,1.3498,optionRight,70,4850,3,0,0,0,0,1,,,,,,,,,,,,,,,,,,,,,,,,,,,,,,,,,,,,,,,
,,,,,,,,2023-08-03_06h12.10.324,HF_wild_card,2022.2.4,Win32,28.20715333,6473924c2cae5ee4db5082d2,64b543b0a84ad6ab4a25b86a,64cb3716888eff33011781e3,,,,,,,sngl,resources/Empty.png,resources/DR.BMP,Door1,0.438425982,0.105555534,1,0,0,1.0037,optionRight,30,4880,3,1,0,1,0,1,,,,,,,,,,,,,,,,,,,,,,,,,,,,,,,,,,,,,,,
,,,,,,,,2023-08-03_06h12.10.324,HF_wild_card,2022.2.4,Win32,28.20715333,6473924c2cae5ee4db5082d2,64b543b0a84ad6ab4a25b86a,64cb3716888eff33011781e3,,,,,,,decisionTrl,resources/DY.BMP,resources/DBN.BMP,Door3,0.406481566,0.162499993,1,0,0,1.1972,optionRight,70,4950,3,2,0,2,0,1,,,,,,,,,,,,,,,,,,,,,,,,,,,,,,,,,,,,,,,
,,,,,,,,2023-08-03_06h12.10.324,HF_wild_card,2022.2.4,Win32,28.20715333,6473924c2cae5ee4db5082d2,64b543b0a84ad6ab4a25b86a,64cb3716888eff33011781e3,,,,,,,decisionTrl,resources/DG.BMP,resources/DR.BMP,Door2,-0.349999993,0.143981474,1,0,0,1.8547,optionLeft,40,4990,3,3,0,3,0,1,,,,,,,,,,,,,,,,,,,,,,,,,,,,,,,,,,,,,,,
,,,,,,,,2023-08-03_06h12.10.324,HF_wild_card,2022.2.4,Win32,28.20715333,6473924c2cae5ee4db5082d2,64b543b0a84ad6ab4a25b86a,64cb3716888eff33011781e3,,,,,,,sngl,resources/Empty.png,resources/DP.BMP,WildCard_Ex,0.394444501,0.14444443,1,0,0,1.0362,optionRight,95,5085,3,4,0,4,0,1,,,,,,,,,,,,,,,,,,,,,,,,,,,,,,,,,,,,,,,
,,,,,,,,2023-08-03_06h12.10.324,HF_wild_card,2022.2.4,Win32,28.20715333,6473924c2cae5ee4db5082d2,64b543b0a84ad6ab4a25b86a,64cb3716888eff33011781e3,,,,,,,decisionTrl,resources/DBN.BMP,resources/DY.BMP,Door3,-0.423611111,0.060185185,1,0,0,1.1372,optionLeft,70,5155,3,5,0,5,0,1,,,,,,,,,,,,,,,,,,,,,,,,,,,,,,,,,,,,,,,
,,,,,,,,2023-08-03_06h12.10.324,HF_wild_card,2022.2.4,Win32,28.20715333,6473924c2cae5ee4db5082d2,64b543b0a84ad6ab4a25b86a,64cb3716888eff33011781e3,,,,,,,decisionTrl,resources/DP.BMP,resources/DG.BMP,WildCard_Ex,-0.356481481,0.022685192,1,0,0,2.8379,optionLeft,5,5160,3,6,0,6,0,1,,,,,,,,,,,,,,,,,,,,,,,,,,,,,,,,,,,,,,,
,,,,,,,,2023-08-03_06h12.10.324,HF_wild_card,2022.2.4,Win32,28.20715333,6473924c2cae5ee4db5082d2,64b543b0a84ad6ab4a25b86a,64cb3716888eff33011781e3,,,,,,,decisionTrl,resources/DP.BMP,resources/DY.BMP,Door4,0.348611196,0.154629637,1,0,0,1.7681,optionRight,80,5240,3,7,0,7,0,1,,,,,,,,,,,,,,,,,,,,,,,,,,,,,,,,,,,,,,,
,,,,,,,,2023-08-03_06h12.10.324,HF_wild_card,2022.2.4,Win32,28.20715333,6473924c2cae5ee4db5082d2,64b543b0a84ad6ab4a25b86a,64cb3716888eff33011781e3,,,,,,,decisionTrl,resources/DY.BMP,resources/DBN.BMP,Door3,0.410185213,0.196759259,1,0,0,2.4509,optionRight,70,5310,3,8,0,8,0,1,,,,,,,,,,,,,,,,,,,,,,,,,,,,,,,,,,,,,,,
,,,,,,,,2023-08-03_06h12.10.324,HF_wild_card,2022.2.4,Win32,28.20715333,6473924c2cae5ee4db5082d2,64b543b0a84ad6ab4a25b86a,64cb3716888eff33011781e3,,,,,,,decisionTrl,resources/DG.BMP,resources/DR.BMP,Door1,0.429629714,0.138425933,1,0,0,1.6293,optionRight,30,5340,3,9,0,9,0,1,,,,,,,,,,,,,,,,,,,,,,,,,,,,,,,,,,,,,,,
,,,,,,,,2023-08-03_06h12.10.324,HF_wild_card,2022.2.4,Win32,28.20715333,6473924c2cae5ee4db5082d2,64b543b0a84ad6ab4a25b86a,64cb3716888eff33011781e3,,,,,,,ctch,resources/DR.BMP,resources/DY.BMP,Door1,-0.325462942,0.014351845,1,0,0,2.0923,optionLeft,30,5370,3,10,0,10,0,1,,,,,,,,,,,,,,,,,,,,,,,,,,,,,,,,,,,,,,,
,,,,,,,,2023-08-03_06h12.10.324,HF_wild_card,2022.2.4,Win32,28.20715333,6473924c2cae5ee4db5082d2,64b543b0a84ad6ab4a25b86a,64cb3716888eff33011781e3,,,,,,,decisionTrl,resources/DBN.BMP,resources/DP.BMP,Door3,-0.393981474,0.116203697,1,0,0,1.4904,optionLeft,70,5440,3,11,0,11,0,1,,,,,,,,,,,,,,,,,,,,,,,,,,,,,,,,,,,,,,,
,,,,,,,,2023-08-03_06h12.10.324,HF_wild_card,2022.2.4,Win32,28.20715333,6473924c2cae5ee4db5082d2,64b543b0a84ad6ab4a25b86a,64cb3716888eff33011781e3,,,,,,,decisionTrl,resources/DY.BMP,resources/DP.BMP,Door4,-0.416203711,0.157870363,1,0,0,2.6301,optionLeft,80,5520,3,12,0,12,0,1,,,,,,,,,,,,,,,,,,,,,,,,,,,,,,,,,,,,,,,
,,,,,,,,2023-08-03_06h12.10.324,HF_wild_card,2022.2.4,Win32,28.20715333,6473924c2cae5ee4db5082d2,64b543b0a84ad6ab4a25b86a,64cb3716888eff33011781e3,,,,,,,ctch,resources/DR.BMP,resources/DY.BMP,Door4,0.406944416,0.144907386,1,0,0,1.1887,optionRight,80,5600,3,13,0,13,0,1,,,,,,,,,,,,,,,,,,,,,,,,,,,,,,,,,,,,,,,
,,,,,,,,2023-08-03_06h12.10.324,HF_wild_card,2022.2.4,Win32,28.20715333,6473924c2cae5ee4db5082d2,64b543b0a84ad6ab4a25b86a,64cb3716888eff33011781e3,,,,,,,sngl,resources/DP.BMP,resources/Empty.png,WildCard_Ex,-0.418055534,0.134259259,1,0,0,0.935,optionLeft,5,5605,3,14,0,14,0,1,,,,,,,,,,,,,,,,,,,,,,,,,,,,,,,,,,,,,,,
,,,,,,,,2023-08-03_06h12.10.324,HF_wild_card,2022.2.4,Win32,28.20715333,6473924c2cae5ee4db5082d2,64b543b0a84ad6ab4a25b86a,64cb3716888eff33011781e3,,,,,,,sngl,resources/DR.BMP,resources/Empty.png,Door1,-0.458333333,0.083796289,1,0,0,0.9303,optionLeft,30,5635,3,15,0,15,0,1,,,,,,,,,,,,,,,,,,,,,,,,,,,,,,,,,,,,,,,
,,,,,,,,2023-08-03_06h12.10.324,HF_wild_card,2022.2.4,Win32,28.20715333,6473924c2cae5ee4db5082d2,64b543b0a84ad6ab4a25b86a,64cb3716888eff33011781e3,,,,,,,sngl,resources/Empty.png,resources/DY.BMP,Door4,0.430092564,0.106018526,1,0,0,1.0152,optionRight,60,5695,3,16,0,16,0,1,,,,,,,,,,,,,,,,,,,,,,,,,,,,,,,,,,,,,,,
,,,,,,,,2023-08-03_06h12.10.324,HF_wild_card,2022.2.4,Win32,28.20715333,6473924c2cae5ee4db5082d2,64b543b0a84ad6ab4a25b86a,64cb3716888eff33011781e3,,,,,,,sngl,resources/Empty.png,resources/DBN.BMP,Door3,0.434722194,0.169444437,1,0,0,0.8934,optionRight,70,5765,3,17,0,17,0,1,,,,,,,,,,,,,,,,,,,,,,,,,,,,,,,,,,,,,,,
,,,,,,,,2023-08-03_06h12.10.324,HF_wild_card,2022.2.4,Win32,28.20715333,6473924c2cae5ee4db5082d2,64b543b0a84ad6ab4a25b86a,64cb3716888eff33011781e3,,,,,,,decisionTrl,resources/DG.BMP,resources/DR.BMP,Door2,-0.311111097,0.085648148,1,0,0,2.1127,optionLeft,20,5785,3,18,0,18,0,1,,,,,,,,,,,,,,,,,,,,,,,,,,,,,,,,,,,,,,,
,,,,,,,,2023-08-03_06h12.10.324,HF_wild_card,2022.2.4,Win32,28.20715333,6473924c2cae5ee4db5082d2,64b543b0a84ad6ab4a25b86a,64cb3716888eff33011781e3,,,,,,,sngl,resources/DBN.BMP,resources/Empty.png,Door3,-0.335648148,0.052777785,1,0,0,0.8244,optionLeft,70,5855,3,19,0,19,0,1,,,,,,,,,,,,,,,,,,,,,,,,,,,,,,,,,,,,,,,
,,,,,,,,2023-08-03_06h12.10.324,HF_wild_card,2022.2.4,Win32,28.20715333,6473924c2cae5ee4db5082d2,64b543b0a84ad6ab4a25b86a,64cb3716888eff33011781e3,,,,,,,decisionTrl,resources/DP.BMP,resources/DR.BMP,Door1,0.375,0.131018497,1,0,0,3.1803,optionRight,30,5885,3,20,0,20,0,1,,,,,,,,,,,,,,,,,,,,,,,,,,,,,,,,,,,,,,,
,,,,,,,,2023-08-03_06h12.10.324,HF_wild_card,2022.2.4,Win32,28.20715333,6473924c2cae5ee4db5082d2,64b543b0a84ad6ab4a25b86a,64cb3716888eff33011781e3,,,,,,,ctch,resources/DY.BMP,resources/DR.BMP,Door4,-0.364351838,0.073148127,1,0,0,1.4192,optionLeft,60,5945,3,21,0,21,0,1,,,,,,,,,,,,,,,,,,,,,,,,,,,,,,,,,,,,,,,
,,,,,,,,2023-08-03_06h12.10.324,HF_wild_card,2022.2.4,Win32,28.20715333,6473924c2cae5ee4db5082d2,64b543b0a84ad6ab4a25b86a,64cb3716888eff33011781e3,,,,,,,sngl,resources/Empty.png,resources/DP.BMP,WildCard_Ex,0.378703788,0.136111118,1,0,0,1.6986,optionRight,5,5950,3,22,0,22,0,1,,,,,,,,,,,,,,,,,,,,,,,,,,,,,,,,,,,,,,,
,,,,,,,,2023-08-03_06h12.10.324,HF_wild_card,2022.2.4,Win32,28.20715333,6473924c2cae5ee4db5082d2,64b543b0a84ad6ab4a25b86a,64cb3716888eff33011781e3,,,,,,,decisionTrl,resources/DR.BMP,resources/DP.BMP,Door1,-0.355555534,0.003703683,1,0,0,1.0392,optionLeft,30,5980,3,23,0,23,0,1,,,,,,,,,,,,,,,,,,,,,,,,,,,,,,,,,,,,,,,
,,,,,,,,2023-08-03_06h12.10.324,HF_wild_card,2022.2.4,Win32,28.20715333,6473924c2cae5ee4db5082d2,64b543b0a84ad6ab4a25b86a,64cb3716888eff33011781e3,,,,,,,decisionTrl,resources/DR.BMP,resources/DG.BMP,Door1,-0.308796282,0.050925926,1,0,0,1.384,optionLeft,30,6010,3,24,0,24,0,1,,,,,,,,,,,,,,,,,,,,,,,,,,,,,,,,,,,,,,,
,,,,,,,,2023-08-03_06h12.10.324,HF_wild_card,2022.2.4,Win32,28.20715333,6473924c2cae5ee4db5082d2,64b543b0a84ad6ab4a25b86a,64cb3716888eff33011781e3,,,,,,,sngl,resources/Empty.png,resources/DG.BMP,Door2,0.453703704,0.139814801,1,0,0,0.8767,optionRight,20,6030,3,25,0,25,0,1,,,,,,,,,,,,,,,,,,,,,,,,,,,,,,,,,,,,,,,
,,,,,,,,2023-08-03_06h12.10.324,HF_wild_card,2022.2.4,Win32,28.20715333,6473924c2cae5ee4db5082d2,64b543b0a84ad6ab4a25b86a,64cb3716888eff33011781e3,,,,,,,decisionTrl,resources/DR.BMP,resources/DG.BMP,Door1,-0.356481481,0.045370349,1,0,0,0.9883,optionLeft,30,6060,3,26,0,26,0,1,,,,,,,,,,,,,,,,,,,,,,,,,,,,,,,,,,,,,,,
,,,,,,,,2023-08-03_06h12.10.324,HF_wild_card,2022.2.4,Win32,28.20715333,6473924c2cae5ee4db5082d2,64b543b0a84ad6ab4a25b86a,64cb3716888eff33011781e3,,,,,,,decisionTrl,resources/DR.BMP,resources/DG.BMP,Door1,-0.4300926,-0.013888889,1,0,0,0.9019,optionLeft,30,6090,3,27,0,27,0,1,,,,,,,,,,,,,,,,,,,,,,,,,,,,,,,,,,,,,,,
,,,,,,,,2023-08-03_06h12.10.324,HF_wild_card,2022.2.4,Win32,28.20715333,6473924c2cae5ee4db5082d2,64b543b0a84ad6ab4a25b86a,64cb3716888eff33011781e3,,,,,,,decisionTrl,resources/DBN.BMP,resources/DY.BMP,Door3,-0.398611104,0.067592586,1,0,0,0.9361,optionLeft,70,6160,3,28,0,28,0,1,,,,,,,,,,,,,,,,,,,,,,,,,,,,,,,,,,,,,,,
,,,,,,,,2023-08-03_06h12.10.324,HF_wild_card,2022.2.4,Win32,28.20715333,6473924c2cae5ee4db5082d2,64b543b0a84ad6ab4a25b86a,64cb3716888eff33011781e3,,,,,,,decisionTrl,resources/DG.BMP,resources/DP.BMP,Door2,-0.305555556,0.029166645,1,0,0,2.2866,optionLeft,40,6200,3,29,0,29,0,1,,,,,,,,,,,,,,,,,,,,,,,,,,,,,,,,,,,,,,,
,,,,,,,,2023-08-03_06h12.10.324,HF_wild_card,2022.2.4,Win32,28.20715333,6473924c2cae5ee4db5082d2,64b543b0a84ad6ab4a25b86a,64cb3716888eff33011781e3,,,,,,,ctch,resources/DBN.BMP,resources/DG.BMP,Door3,-0.384259259,0.113888882,1,0,0,1.5367,optionLeft,70,6270,3,30,0,30,0,1,,,,,,,,,,,,,,,,,,,,,,,,,,,,,,,,,,,,,,,
,,,,,,,,2023-08-03_06h12.10.324,HF_wild_card,2022.2.4,Win32,28.20715333,6473924c2cae5ee4db5082d2,64b543b0a84ad6ab4a25b86a,64cb3716888eff33011781e3,,,,,,,ctch,resources/DG.BMP,resources/DBN.BMP,Door3,0.347685213,0.099074081,1,0,0,1.2849,optionRight,70,6340,3,31,0,31,0,1,,,,,,,,,,,,,,,,,,,,,,,,,,,,,,,,,,,,,,,
,,,,,,,,2023-08-03_06h12.10.324,HF_wild_card,2022.2.4,Win32,28.20715333,6473924c2cae5ee4db5082d2,64b543b0a84ad6ab4a25b86a,64cb3716888eff33011781e3,,,,,,,decisionTrl,resources/DY.BMP,resources/DBN.BMP,Door3,0.473148205,0.095833319,1,0,0,0.8643,optionRight,70,6410,3,32,0,32,0,1,,,,,,,,,,,,,,,,,,,,,,,,,,,,,,,,,,,,,,,
,,,,,,,,2023-08-03_06h12.10.324,HF_wild_card,2022.2.4,Win32,28.20715333,6473924c2cae5ee4db5082d2,64b543b0a84ad6ab4a25b86a,64cb3716888eff33011781e3,,,,,,,ctch,resources/DBN.BMP,resources/DG.BMP,Door3,-0.328703704,0.005555541,1,0,0,0.863,optionLeft,70,6480,3,33,0,33,0,1,,,,,,,,,,,,,,,,,,,,,,,,,,,,,,,,,,,,,,,
,,,,,,,,2023-08-03_06h12.10.324,HF_wild_card,2022.2.4,Win32,28.20715333,6473924c2cae5ee4db5082d2,64b543b0a84ad6ab4a25b86a,64cb3716888eff33011781e3,,,,,,,decisionTrl,resources/DBN.BMP,resources/DY.BMP,Door3,-0.384722215,0,1,0,0,0.8269,optionLeft,70,6550,3,34,0,34,0,1,,,,,,,,,,,,,,,,,,,,,,,,,,,,,,,,,,,,,,,
,,,,,,,,2023-08-03_06h12.10.324,HF_wild_card,2022.2.4,Win32,28.20715333,6473924c2cae5ee4db5082d2,64b543b0a84ad6ab4a25b86a,64cb3716888eff33011781e3,,,,,,,decisionTrl,resources/DP.BMP,resources/DBN.BMP,Door3,0.36527775,0.056944423,1,0,0,0.7942,optionRight,70,6620,3,35,0,35,0,1,,,,,,,,,,,,,,,,,,,,,,,,,,,,,,,,,,,,,,,
,,,,,,,,2023-08-03_06h12.10.324,HF_wild_card,2022.2.4,Win32,28.20715333,6473924c2cae5ee4db5082d2,64b543b0a84ad6ab4a25b86a,64cb3716888eff33011781e3,,,,,,,decisionTrl,resources/DR.BMP,resources/DG.BMP,Door1,-0.311574053,-0.000925947,1,0,0,1.6332,optionLeft,30,6650,3,36,0,36,0,1,,,,,,,,,,,,,,,,,,,,,,,,,,,,,,,,,,,,,,,
,,,,,,,,2023-08-03_06h12.10.324,HF_wild_card,2022.2.4,Win32,28.20715333,6473924c2cae5ee4db5082d2,64b543b0a84ad6ab4a25b86a,64cb3716888eff33011781e3,,,,,,,sngl,resources/DP.BMP,resources/Empty.png,WildCard_Ex,-0.306944423,0.020833333,1,0,0,0.9311,optionLeft,95,6745,3,37,0,37,0,1,,,,,,,,,,,,,,,,,,,,,,,,,,,,,,,,,,,,,,,
,,,,,,,,2023-08-03_06h12.10.324,HF_wild_card,2022.2.4,Win32,28.20715333,6473924c2cae5ee4db5082d2,64b543b0a84ad6ab4a25b86a,64cb3716888eff33011781e3,,,,,,,sngl,resources/DY.BMP,resources/Empty.png,Door4,-0.330092571,0,1,0,0,0.9765,optionLeft,80,6825,3,38,0,38,0,1,,,,,,,,,,,,,,,,,,,,,,,,,,,,,,,,,,,,,,,
,,,,,,,,2023-08-03_06h12.10.324,HF_wild_card,2022.2.4,Win32,28.20715333,6473924c2cae5ee4db5082d2,64b543b0a84ad6ab4a25b86a,64cb3716888eff33011781e3,,,,,,,decisionTrl,resources/DG.BMP,resources/DR.BMP,Door1,0.498148176,0.159722222,1,0,0,2.1609,optionRight,30,6855,3,39,0,39,0,1,,,,,,,,,,,,,,,,,,,,,,,,,,,,,,,,,,,,,,,
,,,,,,,,2023-08-03_06h12.10.324,HF_wild_card,2022.2.4,Win32,28.20715333,6473924c2cae5ee4db5082d2,64b543b0a84ad6ab4a25b86a,64cb3716888eff33011781e3,,,,,,,sngl,resources/DG.BMP,resources/Empty.png,Door2,-0.350925905,0.029629637,1,0,0,0.7902,optionLeft,40,6895,3,40,0,40,0,1,,,,,,,,,,,,,,,,,,,,,,,,,,,,,,,,,,,,,,,
,,,,,,,,2023-08-03_06h12.10.324,HF_wild_card,2022.2.4,Win32,28.20715333,6473924c2cae5ee4db5082d2,64b543b0a84ad6ab4a25b86a,64cb3716888eff33011781e3,,,,,,,ctch,resources/DY.BMP,resources/DR.BMP,Door4,-0.360185164,0.040277764,1,0,0,1.0391,optionLeft,80,6975,3,41,0,41,0,1,,,,,,,,,,,,,,,,,,,,,,,,,,,,,,,,,,,,,,,
,,,,,,,,2023-08-03_06h12.10.324,HF_wild_card,2022.2.4,Win32,28.20715333,6473924c2cae5ee4db5082d2,64b543b0a84ad6ab4a25b86a,64cb3716888eff33011781e3,,,,,,,decisionTrl,resources/DBN.BMP,resources/DY.BMP,Door3,-0.336111104,0.077314801,1,0,0,1.9068,optionLeft,70,7045,3,42,0,42,0,1,,,,,,,,,,,,,,,,,,,,,,,,,,,,,,,,,,,,,,,
,,,,,,,,2023-08-03_06h12.10.324,HF_wild_card,2022.2.4,Win32,28.20715333,6473924c2cae5ee4db5082d2,64b543b0a84ad6ab4a25b86a,64cb3716888eff33011781e3,,,,,,,decisionTrl,resources/DY.BMP,resources/DBN.BMP,Door4,-0.34398146,0.08657406,1,0,0,1.5969,optionLeft,60,7105,3,43,0,43,0,1,,,,,,,,,,,,,,,,,,,,,,,,,,,,,,,,,,,,,,,
,,,,,,,,2023-08-03_06h12.10.324,HF_wild_card,2022.2.4,Win32,28.20715333,6473924c2cae5ee4db5082d2,64b543b0a84ad6ab4a25b86a,64cb3716888eff33011781e3,,,,,,,,,,,,,,,,,,,,,,,,,,2,0,2,0,1,,,,,,,,,,,,,,,,,,,,,,,,,,,,,,,,,,
,,,,,,,,2023-08-03_06h12.10.324,HF_wild_card,2022.2.4,Win32,28.20715333,6473924c2cae5ee4db5082d2,64b543b0a84ad6ab4a25b86a,64cb3716888eff33011781e3,,,,,,,decisionTrl,resources/DG.BMP,resources/DR.BMP,Door1,0.357870455,0.152314822,1,0,0,3.2763,optionRight,30,7135,4,0,0,0,0,1,,,,,,,,,,,,,,,,,,,,,,,,,,,,,,,,,,,,,,,
,,,,,,,,2023-08-03_06h12.10.324,HF_wild_card,2022.2.4,Win32,28.20715333,6473924c2cae5ee4db5082d2,64b543b0a84ad6ab4a25b86a,64cb3716888eff33011781e3,,,,,,,decisionTrl,resources/DR.BMP,resources/DG.BMP,Door1,-0.351851852,-0.032870363,1,0,0,1.1115,optionLeft,30,7165,4,1,0,1,0,1,,,,,,,,,,,,,,,,,,,,,,,,,,,,,,,,,,,,,,,
,,,,,,,,2023-08-03_06h12.10.324,HF_wild_card,2022.2.4,Win32,28.20715333,6473924c2cae5ee4db5082d2,64b543b0a84ad6ab4a25b86a,64cb3716888eff33011781e3,,,,,,,ctch,resources/DY.BMP,resources/DR.BMP,Door4,-0.300925926,0.022222201,1,0,0,1.5837,optionLeft,60,7225,4,2,0,2,0,1,,,,,,,,,,,,,,,,,,,,,,,,,,,,,,,,,,,,,,,
,,,,,,,,2023-08-03_06h12.10.324,HF_wild_card,2022.2.4,Win32,28.20715333,6473924c2cae5ee4db5082d2,64b543b0a84ad6ab4a25b86a,64cb3716888eff33011781e3,,,,,,,sngl,resources/Empty.png,resources/DG.BMP,Door2,0.47083339,0.099999993,1,0,0,0.8954,optionRight,40,7265,4,3,0,3,0,1,,,,,,,,,,,,,,,,,,,,,,,,,,,,,,,,,,,,,,,
,,,,,,,,2023-08-03_06h12.10.324,HF_wild_card,2022.2.4,Win32,28.20715333,6473924c2cae5ee4db5082d2,64b543b0a84ad6ab4a25b86a,64cb3716888eff33011781e3,,,,,,,sngl,resources/Empty.png,resources/DB.BMP,WildCard_NonEx,0.421296296,0.066203683,1,0,0,2.3499,optionRight,55,7320,4,4,0,4,0,1,,,,,,,,,,,,,,,,,,,,,,,,,,,,,,,,,,,,,,,
,,,,,,,,2023-08-03_06h12.10.324,HF_wild_card,2022.2.4,Win32,28.20715333,6473924c2cae5ee4db5082d2,64b543b0a84ad6ab4a25b86a,64cb3716888eff33011781e3,,,,,,,decisionTrl,resources/DB.BMP,resources/DBN.BMP,Door3,0.358333305,0.032407407,1,0,0,1.2042,optionRight,70,7390,4,5,0,5,0,1,,,,,,,,,,,,,,,,,,,,,,,,,,,,,,,,,,,,,,,
,,,,,,,,2023-08-03_06h12.10.324,HF_wild_card,2022.2.4,Win32,28.20715333,6473924c2cae5ee4db5082d2,64b543b0a84ad6ab4a25b86a,64cb3716888eff33011781e3,,,,,,,decisionTrl,resources/DBN.BMP,resources/DY.BMP,Door3,-0.353703711,-0.085185192,1,0,0,1.0362,optionLeft,70,7460,4,6,0,6,0,1,,,,,,,,,,,,,,,,,,,,,,,,,,,,,,,,,,,,,,,
,,,,,,,,2023-08-03_06h12.10.324,HF_wild_card,2022.2.4,Win32,28.20715333,6473924c2cae5ee4db5082d2,64b543b0a84ad6ab4a25b86a,64cb3716888eff33011781e3,,,,,,,ctch,resources/DR.BMP,resources/DY.BMP,Door4,0.412963019,0.122222229,1,0,0,1.589,optionRight,80,7540,4,7,0,7,0,1,,,,,,,,,,,,,,,,,,,,,,,,,,,,,,,,,,,,,,,
,,,,,,,,2023-08-03_06h12.10.324,HF_wild_card,2022.2.4,Win32,28.20715333,6473924c2cae5ee4db5082d2,64b543b0a84ad6ab4a25b86a,64cb3716888eff33011781e3,,,,,,,sngl,resources/DG.BMP,resources/Empty.png,Door2,-0.369907414,-0.043518526,1,0,0,0.9021,optionLeft,20,7560,4,8,0,8,0,1,,,,,,,,,,,,,,,,,,,,,,,,,,,,,,,,,,,,,,,
,,,,,,,,2023-08-03_06h12.10.324,HF_wild_card,2022.2.4,Win32,28.20715333,6473924c2cae5ee4db5082d2,64b543b0a84ad6ab4a25b86a,64cb3716888eff33011781e3,,,,,,,ctch,resources/DG.BMP,resources/DBN.BMP,Door3,0.438888974,0.117129608,1,0,0,1.0027,optionRight,70,7630,4,9,0,9,0,1,,,,,,,,,,,,,,,,,,,,,,,,,,,,,,,,,,,,,,,
,,,,,,,,2023-08-03_06h12.10.324,HF_wild_card,2022.2.4,Win32,28.20715333,6473924c2cae5ee4db5082d2,64b543b0a84ad6ab4a25b86a,64cb3716888eff33011781e3,,,,,,,decisionTrl,resources/DB.BMP,resources/DR.BMP,WildCard_NonEx,-0.374537044,-0.076388889,1,0,0,1.1997,optionLeft,55,7685,4,10,0,10,0,1,,,,,,,,,,,,,,,,,,,,,,,,,,,,,,,,,,,,,,,
,,,,,,,,2023-08-03_06h12.10.324,HF_wild_card,2022.2.4,Win32,28.20715333,6473924c2cae5ee4db5082d2,64b543b0a84ad6ab4a25b86a,64cb3716888eff33011781e3,,,,,,,sngl,resources/Empty.png,resources/DBN.BMP,Door3,0.416666667,0.091666645,1,0,0,0.7938,optionRight,70,7755,4,11,0,11,0,1,,,,,,,,,,,,,,,,,,,,,,,,,,,,,,,,,,,,,,,
,,,,,,,,2023-08-03_06h12.10.324,HF_wild_card,2022.2.4,Win32,28.20715333,6473924c2cae5ee4db5082d2,64b543b0a84ad6ab4a25b86a,64cb3716888eff33011781e3,,,,,,,ctch,resources/DR.BMP,resources/DY.BMP,Door4,0.41805564,0.090277778,1,0,0,1.9612,optionRight,60,7815,4,12,0,12,0,1,,,,,,,,,,,,,,,,,,,,,,,,,,,,,,,,,,,,,,,
,,,,,,,,2023-08-03_06h12.10.324,HF_wild_card,2022.2.4,Win32,28.20715333,6473924c2cae5ee4db5082d2,64b543b0a84ad6ab4a25b86a,64cb3716888eff33011781e3,,,,,,,decisionTrl,resources/DG.BMP,resources/DR.BMP,Door2,-0.374074053,-0.010648162,1,0,0,2.5278,optionLeft,20,7835,4,13,0,13,0,1,,,,,,,,,,,,,,,,,,,,,,,,,,,,,,,,,,,,,,,
,,,,,,,,2023-08-03_06h12.10.324,HF_wild_card,2022.2.4,Win32,28.20715333,6473924c2cae5ee4db5082d2,64b543b0a84ad6ab4a25b86a,64cb3716888eff33011781e3,,,,,,,sngl,resources/DBN.BMP,resources/Empty.png,Door3,-0.347685178,0.029629637,1,0,0,0.8111,optionLeft,70,7905,4,14,0,14,0,1,,,,,,,,,,,,,,,,,,,,,,,,,,,,,,,,,,,,,,,
,,,,,,,,2023-08-03_06h12.10.324,HF_wild_card,2022.2.4,Win32,28.20715333,6473924c2cae5ee4db5082d2,64b543b0a84ad6ab4a25b86a,64cb3716888eff33011781e3,,,,,,,decisionTrl,resources/DBN.BMP,resources/DB.BMP,Door3,-0.366203697,-0.000925947,1,0,0,0.8995,optionLeft,70,7975,4,15,0,15,0,1,,,,,,,,,,,,,,,,,,,,,,,,,,,,,,,,,,,,,,,
,,,,,,,,2023-08-03_06h12.10.324,HF_wild_card,2022.2.4,Win32,28.20715333,6473924c2cae5ee4db5082d2,64b543b0a84ad6ab4a25b86a,64cb3716888eff33011781e3,,,,,,,decisionTrl,resources/DR.BMP,resources/DG.BMP,Door2,0.396759316,0.076388889,1,0,0,1.7024,optionRight,40,8015,4,16,0,16,0,1,,,,,,,,,,,,,,,,,,,,,,,,,,,,,,,,,,,,,,,
,,,,,,,,2023-08-03_06h12.10.324,HF_wild_card,2022.2.4,Win32,28.20715333,6473924c2cae5ee4db5082d2,64b543b0a84ad6ab4a25b86a,64cb3716888eff33011781e3,,,,,,,decisionTrl,resources/DY.BMP,resources/DBN.BMP,Door3,0.330092677,0.060185185,1,0,0,1.0057,optionRight,70,8085,4,17,0,17,0,1,,,,,,,,,,,,,,,,,,,,,,,,,,,,,,,,,,,,,,,
,,,,,,,,2023-08-03_06h12.10.324,HF_wild_card,2022.2.4,Win32,28.20715333,6473924c2cae5ee4db5082d2,64b543b0a84ad6ab4a25b86a,64cb3716888eff33011781e3,,,,,,,ctch,resources/DG.BMP,resources/DBN.BMP,Door3,0.441203788,0.082870377,1,0,0,1.1404,optionRight,70,8155,4,18,0,18,0,1,,,,,,,,,,,,,,,,,,,,,,,,,,,,,,,,,,,,,,,
,,,,,,,,2023-08-03_06h12.10.324,HF_wild_card,2022.2.4,Win32,28.20715333,6473924c2cae5ee4db5082d2,64b543b0a84ad6ab4a25b86a,64cb3716888eff33011781e3,,,,,,,decisionTrl,resources/DG.BMP,resources/DR.BMP,Door1,0.359722279,0.084722201,1,0,0,2.3313,optionRight,30,8185,4,19,0,19,0,1,,,,,,,,,,,,,,,,,,,,,,,,,,,,,,,,,,,,,,,
,,,,,,,,2023-08-03_06h12.10.324,HF_wild_card,2022.2.4,Win32,28.20715333,6473924c2cae5ee4db5082d2,64b543b0a84ad6ab4a25b86a,64cb3716888eff33011781e3,,,,,,,ctch,resources/DBN.BMP,resources/DG.BMP,Door3,-0.349537037,-0.060185185,1,0,0,1.0012,optionLeft,70,8255,4,20,0,20,0,1,,,,,,,,,,,,,,,,,,,,,,,,,,,,,,,,,,,,,,,
,,,,,,,,2023-08-03_06h12.10.324,HF_wild_card,2022.2.4,Win32,28.20715333,6473924c2cae5ee4db5082d2,64b543b0a84ad6ab4a25b86a,64cb3716888eff33011781e3,,,,,,,decisionTrl,resources/DR.BMP,resources/DG.BMP,Door1,-0.335185192,-0.04305557,1,0,0,2.2203,optionLeft,30,8285,4,21,0,21,0,1,,,,,,,,,,,,,,,,,,,,,,,,,,,,,,,,,,,,,,,
,,,,,,,,2023-08-03_06h12.10.324,HF_wild_card,2022.2.4,Win32,28.20715333,6473924c2cae5ee4db5082d2,64b543b0a84ad6ab4a25b86a,64cb3716888eff33011781e3,,,,,,,decisionTrl,resources/DG.BMP,resources/DB.BMP,WildCard_NonEx,0.334722307,0.066666674,1,0,0,1.068,optionRight,55,8340,4,22,0,22,0,1,,,,,,,,,,,,,,,,,,,,,,,,,,,,,,,,,,,,,,,
,,,,,,,,2023-08-03_06h12.10.324,HF_wild_card,2022.2.4,Win32,28.20715333,6473924c2cae5ee4db5082d2,64b543b0a84ad6ab4a25b86a,64cb3716888eff33011781e3,,,,,,,sngl,resources/DY.BMP,resources/Empty.png,Door4,-0.280092593,-0.048611111,1,0,0,0.8963,optionLeft,60,8400,4,23,0,23,0,1,,,,,,,,,,,,,,,,,,,,,,,,,,,,,,,,,,,,,,,
,,,,,,,,2023-08-03_06h12.10.324,HF_wild_card,2022.2.4,Win32,28.20715333,6473924c2cae5ee4db5082d2,64b543b0a84ad6ab4a25b86a,64cb3716888eff33011781e3,,,,,,,decisionTrl,resources/DB.BMP,resources/DY.BMP,Door4,0.423611111,0.076851845,1,0,0,1.7319,optionRight,60,8460,4,24,0,24,0,1,,,,,,,,,,,,,,,,,,,,,,,,,,,,,,,,,,,,,,,
,,,,,,,,2023-08-03_06h12.10.324,HF_wild_card,2022.2.4,Win32,28.20715333,6473924c2cae5ee4db5082d2,64b543b0a84ad6ab4a25b86a,64cb3716888eff33011781e3,,,,,,,sngl,resources/Empty.png,resources/DR.BMP,Door1,0.342592593,0.051388882,1,0,0,0.9079,optionRight,30,8490,4,25,0,25,0,1,,,,,,,,,,,,,,,,,,,,,,,,,,,,,,,,,,,,,,,
,,,,,,,,2023-08-03_06h12.10.324,HF_wild_card,2022.2.4,Win32,28.20715333,6473924c2cae5ee4db5082d2,64b543b0a84ad6ab4a25b86a,64cb3716888eff33011781e3,,,,,,,decisionTrl,resources/DY.BMP,resources/DBN.BMP,Door3,0.328240712,0.072222215,1,0,0,1.0571,optionRight,70,8560,4,26,0,26,0,1,,,,,,,,,,,,,,,,,,,,,,,,,,,,,,,,,,,,,,,
,,,,,,,,2023-08-03_06h12.10.324,HF_wild_card,2022.2.4,Win32,28.20715333,6473924c2cae5ee4db5082d2,64b543b0a84ad6ab4a25b86a,64cb3716888eff33011781e3,,,,,,,sngl,resources/DR.BMP,resources/Empty.png,Door1,-0.307407414,-0.058333326,1,0,0,0.903,optionLeft,30,8590,4,27,0,27,0,1,,,,,,,,,,,,,,,,,,,,,,,,,,,,,,,,,,,,,,,
,,,,,,,,2023-08-03_06h12.10.324,HF_wild_card,2022.2.4,Win32,28.20715333,6473924c2cae5ee4db5082d2,64b543b0a84ad6ab4a25b86a,64cb3716888eff33011781e3,,,,,,,decisionTrl,resources/DBN.BMP,resources/DY.BMP,Door3,-0.446759259,0.025462963,1,0,0,1.5043,optionLeft,70,8660,4,28,0,28,0,1,,,,,,,,,,,,,,,,,,,,,,,,,,,,,,,,,,,,,,,
,,,,,,,,2023-08-03_06h12.10.324,HF_wild_card,2022.2.4,Win32,28.20715333,6473924c2cae5ee4db5082d2,64b543b0a84ad6ab4a25b86a,64cb3716888eff33011781e3,,,,,,,sngl,resources/DB.BMP,resources/Empty.png,WildCard_NonEx,-0.338888875,0.012962942,1,0,0,0.8614,optionLeft,45,8705,4,29,0,29,0,1,,,,,,,,,,,,,,,,,,,,,,,,,,,,,,,,,,,,,,,
,,,,,,,,2023-08-03_06h12.10.324,HF_wild_card,2022.2.4,Win32,28.20715333,6473924c2cae5ee4db5082d2,64b543b0a84ad6ab4a25b86a,64cb3716888eff33011781e3,,,,,,,decisionTrl,resources/DY.BMP,resources/DBN.BMP,Door3,0.3125,0.020370377,1,0,0,0.9137,optionRight,70,8775,4,30,0,30,0,1,,,,,,,,,,,,,,,,,,,,,,,,,,,,,,,,,,,,,,,
,,,,,,,,2023-08-03_06h12.10.324,HF_wild_card,2022.2.4,Win32,28.20715333,6473924c2cae5ee4db5082d2,64b543b0a84ad6ab4a25b86a,64cb3716888eff33011781e3,,,,,,,decisionTrl,resources/DR.BMP,resources/DB.BMP,WildCard_NonEx,0.347685213,0.02870369,1,0,0,2.3913,optionRight,45,8820,4,31,0,31,0,1,,,,,,,,,,,,,,,,,,,,,,,,,,,,,,,,,,,,,,,
,,,,,,,,2023-08-03_06h12.10.324,HF_wild_card,2022.2.4,Win32,28.20715333,6473924c2cae5ee4db5082d2,64b543b0a84ad6ab4a25b86a,64cb3716888eff33011781e3,,,,,,,sngl,resources/DB.BMP,resources/Empty.png,WildCard_NonEx,-0.32916666,-0.072222215,1,0,0,0.8315,optionLeft,55,8875,4,32,0,32,0,1,,,,,,,,,,,,,,,,,,,,,,,,,,,,,,,,,,,,,,,
,,,,,,,,2023-08-03_06h12.10.324,HF_wild_card,2022.2.4,Win32,28.20715333,6473924c2cae5ee4db5082d2,64b543b0a84ad6ab4a25b86a,64cb3716888eff33011781e3,,,,,,,decisionTrl,resources/DBN.BMP,resources/DY.BMP,Door3,-0.298148155,-0.046296296,1,0,0,0.9582,optionLeft,70,8945,4,33,0,33,0,1,,,,,,,,,,,,,,,,,,,,,,,,,,,,,,,,,,,,,,,
,,,,,,,,2023-08-03_06h12.10.324,HF_wild_card,2022.2.4,Win32,28.20715333,6473924c2cae5ee4db5082d2,64b543b0a84ad6ab4a25b86a,64cb3716888eff33011781e3,,,,,,,sngl,resources/Empty.png,resources/DB.BMP,WildCard_NonEx,0.423611111,0.035185178,1,0,0,0.794,optionRight,45,8990,4,34,0,34,0,1,,,,,,,,,,,,,,,,,,,,,,,,,,,,,,,,,,,,,,,
,,,,,,,,2023-08-03_06h12.10.324,HF_wild_card,2022.2.4,Win32,28.20715333,6473924c2cae5ee4db5082d2,64b543b0a84ad6ab4a25b86a,64cb3716888eff33011781e3,,,,,,,decisionTrl,resources/DB.BMP,resources/DG.BMP,WildCard_NonEx,-0.349074081,-0.080092607,1,0,0,1.835,optionLeft,45,9035,4,35,0,35,0,1,,,,,,,,,,,,,,,,,,,,,,,,,,,,,,,,,,,,,,,
,,,,,,,,2023-08-03_06h12.10.324,HF_wild_card,2022.2.4,Win32,28.20715333,6473924c2cae5ee4db5082d2,64b543b0a84ad6ab4a25b86a,64cb3716888eff33011781e3,,,,,,,decisionTrl,resources/DY.BMP,resources/DB.BMP,Door4,-0.33657406,-0.0550926,1,0,0,1.3147,optionLeft,60,9095,4,36,0,36,0,1,,,,,,,,,,,,,,,,,,,,,,,,,,,,,,,,,,,,,,,
,,,,,,,,2023-08-03_06h12.10.324,HF_wild_card,2022.2.4,Win32,28.20715333,6473924c2cae5ee4db5082d2,64b543b0a84ad6ab4a25b86a,64cb3716888eff33011781e3,,,,,,,sngl,resources/Empty.png,resources/DY.BMP,Door4,0.374074159,0.031018504,1,0,0,0.7928,optionRight,80,9175,4,37,0,37,0,1,,,,,,,,,,,,,,,,,,,,,,,,,,,,,,,,,,,,,,,
,,,,,,,,2023-08-03_06h12.10.324,HF_wild_card,2022.2.4,Win32,28.20715333,6473924c2cae5ee4db5082d2,64b543b0a84ad6ab4a25b86a,64cb3716888eff33011781e3,,,,,,,decisionTrl,resources/DBN.BMP,resources/DY.BMP,Door4,0.373148176,0.033796275,1,0,0,1.0061,optionRight,60,9235,4,38,0,38,0,1,,,,,,,,,,,,,,,,,,,,,,,,,,,,,,,,,,,,,,,
,,,,,,,,2023-08-03_06h12.10.324,HF_wild_card,2022.2.4,Win32,28.20715333,6473924c2cae5ee4db5082d2,64b543b0a84ad6ab4a25b86a,64cb3716888eff33011781e3,,,,,,,ctch,resources/DY.BMP,resources/DR.BMP,Door4,-0.334259245,-0.0699074,1,0,0,1.2436,optionLeft,80,9315,4,39,0,39,0,1,,,,,,,,,,,,,,,,,,,,,,,,,,,,,,,,,,,,,,,
,,,,,,,,2023-08-03_06h12.10.324,HF_wild_card,2022.2.4,Win32,28.20715333,6473924c2cae5ee4db5082d2,64b543b0a84ad6ab4a25b86a,64cb3716888eff33011781e3,,,,,,,decisionTrl,resources/DR.BMP,resources/DG.BMP,Door1,-0.34120369,-0.060648141,1,0,0,2.2658,optionLeft,30,9345,4,40,0,40,0,1,,,,,,,,,,,,,,,,,,,,,,,,,,,,,,,,,,,,,,,
,,,,,,,,2023-08-03_06h12.10.324,HF_wild_card,2022.2.4,Win32,28.20715333,6473924c2cae5ee4db5082d2,64b543b0a84ad6ab4a25b86a,64cb3716888eff33011781e3,,,,,,,decisionTrl,resources/DY.BMP,resources/DBN.BMP,Door3,0.396296325,0.047685164,1,0,0,1.0807,optionRight,70,9415,4,41,0,41,0,1,,,,,,,,,,,,,,,,,,,,,,,,,,,,,,,,,,,,,,,
,,,,,,,,2023-08-03_06h12.10.324,HF_wild_card,2022.2.4,Win32,28.20715333,6473924c2cae5ee4db5082d2,64b543b0a84ad6ab4a25b86a,64cb3716888eff33011781e3,,,,,,,ctch,resources/DBN.BMP,resources/DG.BMP,Door3,-0.308796282,-0.086574095,1,0,0,0.9685,optionLeft,70,9485,4,42,0,42,0,1,,,,,,,,,,,,,,,,,,,,,,,,,,,,,,,,,,,,,,,
,,,,,,,,2023-08-03_06h12.10.324,HF_wild_card,2022.2.4,Win32,28.20715333,6473924c2cae5ee4db5082d2,64b543b0a84ad6ab4a25b86a,64cb3716888eff33011781e3,,,,,,,decisionTrl,resources/DG.BMP,resources/DR.BMP,Door2,-0.301388882,-0.061111132,1,0,0,1.8437,optionLeft,40,9525,4,43,0,43,0,1,,,,,,,,,,,,,,,,,,,,,,,,,,,,,,,,,,,,,,,
,,,,,,,,2023-08-03_06h12.10.324,HF_wild_card,2022.2.4,Win32,28.20715333,6473924c2cae5ee4db5082d2,64b543b0a84ad6ab4a25b86a,64cb3716888eff33011781e3,,,,,,,,,,,,,,,,,,,,,,,,,,3,0,3,0,1,,,,,,,,,,,,,,,,,,,,,,,,,,,,,,,,,,
,,,,,,,,2023-08-03_06h12.10.324,HF_wild_card,2022.2.4,Win32,28.20715333,6473924c2cae5ee4db5082d2,64b543b0a84ad6ab4a25b86a,64cb3716888eff33011781e3,,,,,,,ctch,resources/DBN.BMP,resources/DG.BMP,Door3,-0.251851824,-0.090740734,1,0,0,0.9949,optionLeft,70,9595,5,0,0,0,0,1,,,,,,,,,,,,,,,,,,,,,,,,,,,,,,,,,,,,,,,
,,,,,,,,2023-08-03_06h12.10.324,HF_wild_card,2022.2.4,Win32,28.20715333,6473924c2cae5ee4db5082d2,64b543b0a84ad6ab4a25b86a,64cb3716888eff33011781e3,,,,,,,sngl,resources/Empty.png,resources/DBN.BMP,Door3,0.22592594,0.011111118,1,0,0,0.7979,optionRight,70,9665,5,1,0,1,0,1,,,,,,,,,,,,,,,,,,,,,,,,,,,,,,,,,,,,,,,
,,,,,,,,2023-08-03_06h12.10.324,HF_wild_card,2022.2.4,Win32,28.20715333,6473924c2cae5ee4db5082d2,64b543b0a84ad6ab4a25b86a,64cb3716888eff33011781e3,,,,,,,sngl,resources/DR.BMP,resources/Empty.png,Door1,-0.198148162,-0.045370384,1,0,0,0.7621,optionLeft,30,9695,5,2,0,2,0,1,,,,,,,,,,,,,,,,,,,,,,,,,,,,,,,,,,,,,,,
,,,,,,,,2023-08-03_06h12.10.324,HF_wild_card,2022.2.4,Win32,28.20715333,6473924c2cae5ee4db5082d2,64b543b0a84ad6ab4a25b86a,64cb3716888eff33011781e3,,,,,,,decisionTrl,resources/DY.BMP,resources/DB.BMP,Door4,-0.193518533,-0.035648169,1,0,0,2.087,optionLeft,60,9755,5,3,0,3,0,1,,,,,,,,,,,,,,,,,,,,,,,,,,,,,,,,,,,,,,,
,,,,,,,,2023-08-03_06h12.10.324,HF_wild_card,2022.2.4,Win32,28.20715333,6473924c2cae5ee4db5082d2,64b543b0a84ad6ab4a25b86a,64cb3716888eff33011781e3,,,,,,,sngl,resources/Empty.png,resources/DR.BMP,Door1,0.295370384,0.034259266,1,0,0,0.8626,optionRight,30,9785,5,4,0,4,0,1,,,,,,,,,,,,,,,,,,,,,,,,,,,,,,,,,,,,,,,
,,,,,,,,2023-08-03_06h12.10.324,HF_wild_card,2022.2.4,Win32,28.20715333,6473924c2cae5ee4db5082d2,64b543b0a84ad6ab4a25b86a,64cb3716888eff33011781e3,,,,,,,sngl,resources/Empty.png,resources/DY.BMP,Door4,0.327777863,0.035185178,1,0,0,0.7984,optionRight,60,9845,5,5,0,5,0,1,,,,,,,,,,,,,,,,,,,,,,,,,,,,,,,,,,,,,,,
,,,,,,,,2023-08-03_06h12.10.324,HF_wild_card,2022.2.4,Win32,28.20715333,6473924c2cae5ee4db5082d2,64b543b0a84ad6ab4a25b86a,64cb3716888eff33011781e3,,,,,,,decisionTrl,resources/DBN.BMP,resources/DY.BMP,Door3,-0.391203704,-0.11990745,1,0,0,0.9365,optionLeft,70,9915,5,6,0,6,0,1,,,,,,,,,,,,,,,,,,,,,,,,,,,,,,,,,,,,,,,
,,,,,,,,2023-08-03_06h12.10.324,HF_wild_card,2022.2.4,Win32,28.20715333,6473924c2cae5ee4db5082d2,64b543b0a84ad6ab4a25b86a,64cb3716888eff33011781e3,,,,,,,decisionTrl,resources/DY.BMP,resources/DBN.BMP,Door3,0.358333305,0.04074072,1,0,0,1.0374,optionRight,70,9985,5,7,0,7,0,1,,,,,,,,,,,,,,,,,,,,,,,,,,,,,,,,,,,,,,,
,,,,,,,,2023-08-03_06h12.10.324,HF_wild_card,2022.2.4,Win32,28.20715333,6473924c2cae5ee4db5082d2,64b543b0a84ad6ab4a25b86a,64cb3716888eff33011781e3,,,,,,,decisionTrl,resources/DG.BMP,resources/DB.BMP,WildCard_NonEx,0.356481481,0.042592578,1,0,0,1.4914,optionRight,45,10030,5,8,0,8,0,1,,,,,,,,,,,,,,,,,,,,,,,,,,,,,,,,,,,,,,,
,,,,,,,,2023-08-03_06h12.10.324,HF_wild_card,2022.2.4,Win32,28.20715333,6473924c2cae5ee4db5082d2,64b543b0a84ad6ab4a25b86a,64cb3716888eff33011781e3,,,,,,,decisionTrl,resources/DB.BMP,resources/DR.BMP,WildCard_NonEx,-0.342129637,-0.028703725,1,0,0,2.8109,optionLeft,55,10085,5,9,0,9,0,1,,,,,,,,,,,,,,,,,,,,,,,,,,,,,,,,,,,,,,,
,,,,,,,,2023-08-03_06h12.10.324,HF_wild_card,2022.2.4,Win32,28.20715333,6473924c2cae5ee4db5082d2,64b543b0a84ad6ab4a25b86a,64cb3716888eff33011781e3,,,,,,,sngl,resources/DB.BMP,resources/Empty.png,WildCard_NonEx,-0.401388875,-0.030092593,1,0,0,0.7971,optionLeft,55,10140,5,10,0,10,0,1,,,,,,,,,,,,,,,,,,,,,,,,,,,,,,,,,,,,,,,
,,,,,,,,2023-08-03_06h12.10.324,HF_wild_card,2022.2.4,Win32,28.20715333,6473924c2cae5ee4db5082d2,64b543b0a84ad6ab4a25b86a,64cb3716888eff33011781e3,,,,,,,decisionTrl,resources/DG.BMP,resources/DR.BMP,Door1,0.310648176,0.030092593,1,0,0,2.8697,optionRight,30,10170,5,11,0,11,0,1,,,,,,,,,,,,,,,,,,,,,,,,,,,,,,,,,,,,,,,
,,,,,,,,2023-08-03_06h12.10.324,HF_wild_card,2022.2.4,Win32,28.20715333,6473924c2cae5ee4db5082d2,64b543b0a84ad6ab4a25b86a,64cb3716888eff33011781e3,,,,,,,sngl,resources/DY.BMP,resources/Empty.png,Door4,-0.342592593,-0.03842594,1,0,0,0.8667,optionLeft,80,10250,5,12,0,12,0,1,,,,,,,,,,,,,,,,,,,,,,,,,,,,,,,,,,,,,,,
,,,,,,,,2023-08-03_06h12.10.324,HF_wild_card,2022.2.4,Win32,28.20715333,6473924c2cae5ee4db5082d2,64b543b0a84ad6ab4a25b86a,64cb3716888eff33011781e3,,,,,,,decisionTrl,resources/DG.BMP,resources/DR.BMP,Door2,-0.376851859,-0.036111125,1,0,0,1.4121,optionLeft,40,10290,5,13,0,13,0,1,,,,,,,,,,,,,,,,,,,,,,,,,,,,,,,,,,,,,,,
,,,,,,,,2023-08-03_06h12.10.324,HF_wild_card,2022.2.4,Win32,28.20715333,6473924c2cae5ee4db5082d2,64b543b0a84ad6ab4a25b86a,64cb3716888eff33011781e3,,,,,,,decisionTrl,resources/DR.BMP,resources/DB.BMP,WildCard_NonEx,0.333796325,0.011111118,1,0,0,1.2858,optionRight,45,10335,5,14,0,14,0,1,,,,,,,,,,,,,,,,,,,,,,,,,,,,,,,,,,,,,,,
,,,,,,,,2023-08-03_06h12.10.324,HF_wild_card,2022.2.4,Win32,28.20715333,6473924c2cae5ee4db5082d2,64b543b0a84ad6ab4a25b86a,64cb3716888eff33011781e3,,,,,,,ctch,resources/DR.BMP,resources/DY.BMP,Door4,0.338425954,0.029629637,1,0,0,1.9368,optionRight,60,10395,5,15,0,15,0,1,,,,,,,,,,,,,,,,,,,,,,,,,,,,,,,,,,,,,,,
,,,,,,,,2023-08-03_06h12.10.324,HF_wild_card,2022.2.4,Win32,28.20715333,6473924c2cae5ee4db5082d2,64b543b0a84ad6ab4a25b86a,64cb3716888eff33011781e3,,,,,,,decisionTrl,resources/DR.BMP,resources/DG.BMP,Door2,0.378240797,0.055555556,1,0,0,1.2232,optionRight,40,10435,5,16,0,16,0,1,,,,,,,,,,,,,,,,,,,,,,,,,,,,,,,,,,,,,,,
,,,,,,,,2023-08-03_06h12.10.324,HF_wild_card,2022.2.4,Win32,28.20715333,6473924c2cae5ee4db5082d2,64b543b0a84ad6ab4a25b86a,64cb3716888eff33011781e3,,,,,,,decisionTrl,resources/DBN.BMP,resources/DY.BMP,Door3,-0.330092571,-0.072222215,1,0,0,1.0694,optionLeft,70,10505,5,17,0,17,0,1,,,,,,,,,,,,,,,,,,,,,,,,,,,,,,,,,,,,,,,
,,,,,,,,2023-08-03_06h12.10.324,HF_wild_card,2022.2.4,Win32,28.20715333,6473924c2cae5ee4db5082d2,64b543b0a84ad6ab4a25b86a,64cb3716888eff33011781e3,,,,,,,sngl,resources/Empty.png,resources/DG.BMP,Door2,0.406018575,0.051851838,1,0,0,0.8322,optionRight,20,10525,5,18,0,18,0,1,,,,,,,,,,,,,,,,,,,,,,,,,,,,,,,,,,,,,,,
,,,,,,,,2023-08-03_06h12.10.324,HF_wild_card,2022.2.4,Win32,28.20715333,6473924c2cae5ee4db5082d2,64b543b0a84ad6ab4a25b86a,64cb3716888eff33011781e3,,,,,,,decisionTrl,resources/DBN.BMP,resources/DB.BMP,Door3,-0.29351849,-0.059259273,1,0,0,0.8534,optionLeft,70,10595,5,19,0,19,0,1,,,,,,,,,,,,,,,,,,,,,,,,,,,,,,,,,,,,,,,
,,,,,,,,2023-08-03_06h12.10.324,HF_wild_card,2022.2.4,Win32,28.20715333,6473924c2cae5ee4db5082d2,64b543b0a84ad6ab4a25b86a,64cb3716888eff33011781e3,,,,,,,decisionTrl,resources/DG.BMP,resources/DR.BMP,Door1,0.354629658,0.064351859,1,0,0,1.8971,optionRight,30,10625,5,20,0,20,0,1,,,,,,,,,,,,,,,,,,,,,,,,,,,,,,,,,,,,,,,
,,,,,,,,2023-08-03_06h12.10.324,HF_wild_card,2022.2.4,Win32,28.20715333,6473924c2cae5ee4db5082d2,64b543b0a84ad6ab4a25b86a,64cb3716888eff33011781e3,,,,,,,decisionTrl,resources/DR.BMP,resources/DG.BMP,Door1,-0.332407386,-0.079629651,1,0,0,1.037,optionLeft,30,10655,5,21,0,21,0,1,,,,,,,,,,,,,,,,,,,,,,,,,,,,,,,,,,,,,,,
,,,,,,,,2023-08-03_06h12.10.324,HF_wild_card,2022.2.4,Win32,28.20715333,6473924c2cae5ee4db5082d2,64b543b0a84ad6ab4a25b86a,64cb3716888eff33011781e3,,,,,,,decisionTrl,resources/DR.BMP,resources/DG.BMP,Door1,-0.296296296,-0.071296303,1,0,0,0.9566,optionLeft,30,10685,5,22,0,22,0,1,,,,,,,,,,,,,,,,,,,,,,,,,,,,,,,,,,,,,,,
,,,,,,,,2023-08-03_06h12.10.324,HF_wild_card,2022.2.4,Win32,28.20715333,6473924c2cae5ee4db5082d2,64b543b0a84ad6ab4a25b86a,64cb3716888eff33011781e3,,,,,,,sngl,resources/DB.BMP,resources/Empty.png,WildCard_NonEx,-0.291666667,-0.062037044,1,0,0,0.8302,optionLeft,45,10730,5,23,0,23,0,1,,,,,,,,,,,,,,,,,,,,,,,,,,,,,,,,,,,,,,,
,,,,,,,,2023-08-03_06h12.10.324,HF_wild_card,2022.2.4,Win32,28.20715333,6473924c2cae5ee4db5082d2,64b543b0a84ad6ab4a25b86a,64cb3716888eff33011781e3,,,,,,,decisionTrl,resources/DY.BMP,resources/DBN.BMP,Door3,0.362037094,0.023611104,1,0,0,0.8663,optionRight,70,10800,5,24,0,24,0,1,,,,,,,,,,,,,,,,,,,,,,,,,,,,,,,,,,,,,,,
,,,,,,,,2023-08-03_06h12.10.324,HF_wild_card,2022.2.4,Win32,28.20715333,6473924c2cae5ee4db5082d2,64b543b0a84ad6ab4a25b86a,64cb3716888eff33011781e3,,,,,,,decisionTrl,resources/DG.BMP,resources/DR.BMP,Door1,0.191666709,0.022685192,1,0,0,2.5446,optionRight,30,10830,5,25,0,25,0,1,,,,,,,,,,,,,,,,,,,,,,,,,,,,,,,,,,,,,,,
,,,,,,,,2023-08-03_06h12.10.324,HF_wild_card,2022.2.4,Win32,28.20715333,6473924c2cae5ee4db5082d2,64b543b0a84ad6ab4a25b86a,64cb3716888eff33011781e3,,,,,,,decisionTrl,resources/DBN.BMP,resources/DY.BMP,Door3,-0.276388875,-0.061574088,1,0,0,0.9295,optionLeft,70,10900,5,26,0,26,0,1,,,,,,,,,,,,,,,,,,,,,,,,,,,,,,,,,,,,,,,
,,,,,,,,2023-08-03_06h12.10.324,HF_wild_card,2022.2.4,Win32,28.20715333,6473924c2cae5ee4db5082d2,64b543b0a84ad6ab4a25b86a,64cb3716888eff33011781e3,,,,,,,sngl,resources/Empty.png,resources/DB.BMP,WildCard_NonEx,0.223148134,0.031944452,1,0,0,0.7847,optionRight,45,10945,5,27,0,27,0,1,,,,,,,,,,,,,,,,,,,,,,,,,,,,,,,,,,,,,,,
,,,,,,,,2023-08-03_06h12.10.324,HF_wild_card,2022.2.4,Win32,28.20715333,6473924c2cae5ee4db5082d2,64b543b0a84ad6ab4a25b86a,64cb3716888eff33011781e3,,,,,,,ctch,resources/DG.BMP,resources/DBN.BMP,Door3,0.343518575,0.04074072,1,0,0,0.7288,optionRight,70,11015,5,28,0,28,0,1,,,,,,,,,,,,,,,,,,,,,,,,,,,,,,,,,,,,,,,
,,,,,,,,2023-08-03_06h12.10.324,HF_wild_card,2022.2.4,Win32,28.20715333,6473924c2cae5ee4db5082d2,64b543b0a84ad6ab4a25b86a,64cb3716888eff33011781e3,,,,,,,ctch,resources/DY.BMP,resources/DR.BMP,Door4,-0.137962977,-0.028240734,1,0,0,1.691,optionLeft,80,11095,5,29,0,29,0,1,,,,,,,,,,,,,,,,,,,,,,,,,,,,,,,,,,,,,,,
,,,,,,,,2023-08-03_06h12.10.324,HF_wild_card,2022.2.4,Win32,28.20715333,6473924c2cae5ee4db5082d2,64b543b0a84ad6ab4a25b86a,64cb3716888eff33011781e3,,,,,,,decisionTrl,resources/DB.BMP,resources/DBN.BMP,Door3,0.214814857,0.017129616,1,0,0,0.9679,optionRight,70,11165,5,30,0,30,0,1,,,,,,,,,,,,,,,,,,,,,,,,,,,,,,,,,,,,,,,
,,,,,,,,2023-08-03_06h12.10.324,HF_wild_card,2022.2.4,Win32,28.20715333,6473924c2cae5ee4db5082d2,64b543b0a84ad6ab4a25b86a,64cb3716888eff33011781e3,,,,,,,decisionTrl,resources/DB.BMP,resources/DG.BMP,WildCard_NonEx,-0.115740741,-0.036111125,1,0,0,2.1799,optionLeft,55,11220,5,31,0,31,0,1,,,,,,,,,,,,,,,,,,,,,,,,,,,,,,,,,,,,,,,
,,,,,,,,2023-08-03_06h12.10.324,HF_wild_card,2022.2.4,Win32,28.20715333,6473924c2cae5ee4db5082d2,64b543b0a84ad6ab4a25b86a,64cb3716888eff33011781e3,,,,,,,ctch,resources/DBN.BMP,resources/DG.BMP,Door3,-0.125,-0.034259266,1,0,0,1.2432,optionLeft,70,11290,5,32,0,32,0,1,,,,,,,,,,,,,,,,,,,,,,,,,,,,,,,,,,,,,,,
,,,,,,,,2023-08-03_06h12.10.324,HF_wild_card,2022.2.4,Win32,28.20715333,6473924c2cae5ee4db5082d2,64b543b0a84ad6ab4a25b86a,64cb3716888eff33011781e3,,,,,,,decisionTrl,resources/DY.BMP,resources/DBN.BMP,Door3,0.116203732,0.009722215,1,0,0,1.0749,optionRight,70,11360,5,33,0,33,0,1,,,,,,,,,,,,,,,,,,,,,,,,,,,,,,,,,,,,,,,
,,,,,,,,2023-08-03_06h12.10.324,HF_wild_card,2022.2.4,Win32,28.20715333,6473924c2cae5ee4db5082d2,64b543b0a84ad6ab4a25b86a,64cb3716888eff33011781e3,,,,,,,ctch,resources/DR.BMP,resources/DY.BMP,Door1,-0.116666653,-0.03379631,1,0,0,1.524,optionLeft,30,11390,5,34,0,34,0,1,,,,,,,,,,,,,,,,,,,,,,,,,,,,,,,,,,,,,,,
,,,,,,,,2023-08-03_06h12.10.324,HF_wild_card,2022.2.4,Win32,28.20715333,6473924c2cae5ee4db5082d2,64b543b0a84ad6ab4a25b86a,64cb3716888eff33011781e3,,,,,,,decisionTrl,resources/DB.BMP,resources/DY.BMP,Door4,0.236574102,0.012962942,1,0,0,0.737,optionRight,80,11470,5,35,0,35,0,1,,,,,,,,,,,,,,,,,,,,,,,,,,,,,,,,,,,,,,,
,,,,,,,,2023-08-03_06h12.10.324,HF_wild_card,2022.2.4,Win32,28.20715333,6473924c2cae5ee4db5082d2,64b543b0a84ad6ab4a25b86a,64cb3716888eff33011781e3,,,,,,,sngl,resources/DG.BMP,resources/Empty.png,Door2,-0.158333319,-0.049074067,1,0,0,0.8642,optionLeft,40,11510,5,36,0,36,0,1,,,,,,,,,,,,,,,,,,,,,,,,,,,,,,,,,,,,,,,
,,,,,,,,2023-08-03_06h12.10.324,HF_wild_card,2022.2.4,Win32,28.20715333,6473924c2cae5ee4db5082d2,64b543b0a84ad6ab4a25b86a,64cb3716888eff33011781e3,,,,,,,decisionTrl,resources/DBN.BMP,resources/DY.BMP,Door3,-0.215740698,-0.056018511,1,0,0,1.3204,optionLeft,70,11580,5,37,0,37,0,1,,,,,,,,,,,,,,,,,,,,,,,,,,,,,,,,,,,,,,,
,,,,,,,,2023-08-03_06h12.10.324,HF_wild_card,2022.2.4,Win32,28.20715333,6473924c2cae5ee4db5082d2,64b543b0a84ad6ab4a25b86a,64cb3716888eff33011781e3,,,,,,,sngl,resources/Empty.png,resources/DB.BMP,WildCard_NonEx,0.262499986,0.038888896,1,0,0,0.8656,optionRight,55,11635,5,38,0,38,0,1,,,,,,,,,,,,,,,,,,,,,,,,,,,,,,,,,,,,,,,
,,,,,,,,2023-08-03_06h12.10.324,HF_wild_card,2022.2.4,Win32,28.20715333,6473924c2cae5ee4db5082d2,64b543b0a84ad6ab4a25b86a,64cb3716888eff33011781e3,,,,,,,sngl,resources/DBN.BMP,resources/Empty.png,Door3,-0.194444444,-0.040740755,1,0,0,0.8665,optionLeft,70,11705,5,39,0,39,0,1,,,,,,,,,,,,,,,,,,,,,,,,,,,,,,,,,,,,,,,
,,,,,,,,2023-08-03_06h12.10.324,HF_wild_card,2022.2.4,Win32,28.20715333,6473924c2cae5ee4db5082d2,64b543b0a84ad6ab4a25b86a,64cb3716888eff33011781e3,,,,,,,ctch,resources/DG.BMP,resources/DBN.BMP,Door3,0.184722265,0.014351845,1,0,0,1.0301,optionRight,70,11775,5,40,0,40,0,1,,,,,,,,,,,,,,,,,,,,,,,,,,,,,,,,,,,,,,,
,,,,,,,,2023-08-03_06h12.10.324,HF_wild_card,2022.2.4,Win32,28.20715333,6473924c2cae5ee4db5082d2,64b543b0a84ad6ab4a25b86a,64cb3716888eff33011781e3,,,,,,,ctch,resources/DY.BMP,resources/DR.BMP,Door4,-0.199536995,-0.060185185,1,0,0,1.1966,optionLeft,80,11855,5,41,0,41,0,1,,,,,,,,,,,,,,,,,,,,,,,,,,,,,,,,,,,,,,,
,,,,,,,,2023-08-03_06h12.10.324,HF_wild_card,2022.2.4,Win32,28.20715333,6473924c2cae5ee4db5082d2,64b543b0a84ad6ab4a25b86a,64cb3716888eff33011781e3,,,,,,,decisionTrl,resources/DR.BMP,resources/DG.BMP,Door1,-0.163888861,-0.050925926,1,0,0,2.9031,optionLeft,30,11885,5,42,0,42,0,1,,,,,,,,,,,,,,,,,,,,,,,,,,,,,,,,,,,,,,,
,,,,,,,,2023-08-03_06h12.10.324,HF_wild_card,2022.2.4,Win32,28.20715333,6473924c2cae5ee4db5082d2,64b543b0a84ad6ab4a25b86a,64cb3716888eff33011781e3,,,,,,,decisionTrl,resources/DY.BMP,resources/DBN.BMP,Door4,-0.299999979,-0.068518533,1,0,0,1.9068,optionLeft,80,11965,5,43,0,43,0,1,,,,,,,,,,,,,,,,,,,,,,,,,,,,,,,,,,,,,,,
,,,,,,,,2023-08-03_06h12.10.324,HF_wild_card,2022.2.4,Win32,28.20715333,6473924c2cae5ee4db5082d2,64b543b0a84ad6ab4a25b86a,64cb3716888eff33011781e3,,,,,,,,,,,,,,,,,,,,,,,,,,4,0,4,0,1,,,,,,,,,,,,,,,,,,,,,,,,,,,,,,,,,,
,,,,,,,,2023-08-03_06h12.10.324,HF_wild_card,2022.2.4,Win32,28.20715333,6473924c2cae5ee4db5082d2,64b543b0a84ad6ab4a25b86a,64cb3716888eff33011781e3,,,,,,,sngl,resources/Empty.png,resources/DB.BMP,WildCard_NonEx,0.351851852,-0.076851845,1,0,0,1.0367,optionRight,45,12010,6,0,0,0,0,1,,,,,,,,,,,,,,,,,,,,,,,,,,,,,,,,,,,,,,,
,,,,,,,,2023-08-03_06h12.10.324,HF_wild_card,2022.2.4,Win32,28.20715333,6473924c2cae5ee4db5082d2,64b543b0a84ad6ab4a25b86a,64cb3716888eff33011781e3,,,,,,,decisionTrl,resources/DG.BMP,resources/DR.BMP,Door2,-0.21157406,-0.055555556,1,0,0,1.629,optionLeft,20,12030,6,1,0,1,0,1,,,,,,,,,,,,,,,,,,,,,,,,,,,,,,,,,,,,,,,
,,,,,,,,2023-08-03_06h12.10.324,HF_wild_card,2022.2.4,Win32,28.20715333,6473924c2cae5ee4db5082d2,64b543b0a84ad6ab4a25b86a,64cb3716888eff33011781e3,,,,,,,decisionTrl,resources/DR.BMP,resources/DG.BMP,Door1,-0.22592594,-0.057407414,1,0,0,0.9157,optionLeft,30,12060,6,2,0,2,0,1,,,,,,,,,,,,,,,,,,,,,,,,,,,,,,,,,,,,,,,
,,,,,,,,2023-08-03_06h12.10.324,HF_wild_card,2022.2.4,Win32,28.20715333,6473924c2cae5ee4db5082d2,64b543b0a84ad6ab4a25b86a,64cb3716888eff33011781e3,,,,,,,sngl,resources/DB.BMP,resources/Empty.png,WildCard_NonEx,-0.220370328,-0.04583334,1,0,0,0.83,optionLeft,55,12115,6,3,0,3,0,1,,,,,,,,,,,,,,,,,,,,,,,,,,,,,,,,,,,,,,,
,,,,,,,,2023-08-03_06h12.10.324,HF_wild_card,2022.2.4,Win32,28.20715333,6473924c2cae5ee4db5082d2,64b543b0a84ad6ab4a25b86a,64cb3716888eff33011781e3,,,,,,,sngl,resources/DY.BMP,resources/Empty.png,Door4,-0.174074032,-0.043518526,1,0,0,0.9264,optionLeft,60,12175,6,4,0,4,0,1,,,,,,,,,,,,,,,,,,,,,,,,,,,,,,,,,,,,,,,
,,,,,,,,2023-08-03_06h12.10.324,HF_wild_card,2022.2.4,Win32,28.20715333,6473924c2cae5ee4db5082d2,64b543b0a84ad6ab4a25b86a,64cb3716888eff33011781e3,,,,,,,sngl,resources/DBN.BMP,resources/Empty.png,Door3,-0.229166667,-0.028240734,1,0,0,0.8123,optionLeft,70,12245,6,5,0,5,0,1,,,,,,,,,,,,,,,,,,,,,,,,,,,,,,,,,,,,,,,
,,,,,,,,2023-08-03_06h12.10.324,HF_wild_card,2022.2.4,Win32,28.20715333,6473924c2cae5ee4db5082d2,64b543b0a84ad6ab4a25b86a,64cb3716888eff33011781e3,,,,,,,decisionTrl,resources/DR.BMP,resources/DG.BMP,Door1,-0.138425898,-0.025925919,1,0,0,3.0691,optionLeft,30,12275,6,6,0,6,0,1,,,,,,,,,,,,,,,,,,,,,,,,,,,,,,,,,,,,,,,
,,,,,,,,2023-08-03_06h12.10.324,HF_wild_card,2022.2.4,Win32,28.20715333,6473924c2cae5ee4db5082d2,64b543b0a84ad6ab4a25b86a,64cb3716888eff33011781e3,,,,,,,ctch,resources/DY.BMP,resources/DR.BMP,Door4,-0.248611097,-0.039351852,1,0,0,1.4146,optionLeft,60,12335,6,7,0,7,0,1,,,,,,,,,,,,,,,,,,,,,,,,,,,,,,,,,,,,,,,
,,,,,,,,2023-08-03_06h12.10.324,HF_wild_card,2022.2.4,Win32,28.20715333,6473924c2cae5ee4db5082d2,64b543b0a84ad6ab4a25b86a,64cb3716888eff33011781e3,,,,,,,ctch,resources/DBN.BMP,resources/DG.BMP,Door3,-0.198148162,-0.035648169,1,0,0,1.0002,optionLeft,70,12405,6,8,0,8,0,1,,,,,,,,,,,,,,,,,,,,,,,,,,,,,,,,,,,,,,,
,,,,,,,,2023-08-03_06h12.10.324,HF_wild_card,2022.2.4,Win32,28.20715333,6473924c2cae5ee4db5082d2,64b543b0a84ad6ab4a25b86a,64cb3716888eff33011781e3,,,,,,,decisionTrl,resources/DG.BMP,resources/DR.BMP,Door1,0.234259288,-0.001388903,1,0,0,2.6787,optionRight,30,12435,6,9,0,9,0,1,,,,,,,,,,,,,,,,,,,,,,,,,,,,,,,,,,,,,,,
,,,,,,,,2023-08-03_06h12.10.324,HF_wild_card,2022.2.4,Win32,28.20715333,6473924c2cae5ee4db5082d2,64b543b0a84ad6ab4a25b86a,64cb3716888eff33011781e3,,,,,,,decisionTrl,resources/DY.BMP,resources/DBN.BMP,Door3,0.331944501,0.039814808,1,0,0,0.962,optionRight,70,12505,6,10,0,10,0,1,,,,,,,,,,,,,,,,,,,,,,,,,,,,,,,,,,,,,,,
,,,,,,,,2023-08-03_06h12.10.324,HF_wild_card,2022.2.4,Win32,28.20715333,6473924c2cae5ee4db5082d2,64b543b0a84ad6ab4a25b86a,64cb3716888eff33011781e3,,,,,,,sngl,resources/Empty.png,resources/DY.BMP,Door4,0.216666681,0.025462963,1,0,0,0.9356,optionRight,80,12585,6,11,0,11,0,1,,,,,,,,,,,,,,,,,,,,,,,,,,,,,,,,,,,,,,,
,,,,,,,,2023-08-03_06h12.10.324,HF_wild_card,2022.2.4,Win32,28.20715333,6473924c2cae5ee4db5082d2,64b543b0a84ad6ab4a25b86a,64cb3716888eff33011781e3,,,,,,,ctch,resources/DG.BMP,resources/DBN.BMP,Door3,0.222685213,0.038425905,1,0,0,1.122,optionRight,70,12655,6,12,0,12,0,1,,,,,,,,,,,,,,,,,,,,,,,,,,,,,,,,,,,,,,,
,,,,,,,,2023-08-03_06h12.10.324,HF_wild_card,2022.2.4,Win32,28.20715333,6473924c2cae5ee4db5082d2,64b543b0a84ad6ab4a25b86a,64cb3716888eff33011781e3,,,,,,,decisionTrl,resources/DR.BMP,resources/DG.BMP,Door1,-0.220370328,-0.048148155,1,0,0,2.1385,optionLeft,30,12685,6,13,0,13,0,1,,,,,,,,,,,,,,,,,,,,,,,,,,,,,,,,,,,,,,,
,,,,,,,,2023-08-03_06h12.10.324,HF_wild_card,2022.2.4,Win32,28.20715333,6473924c2cae5ee4db5082d2,64b543b0a84ad6ab4a25b86a,64cb3716888eff33011781e3,,,,,,,decisionTrl,resources/DB.BMP,resources/DY.BMP,Door4,0.201388889,0.01666666,1,0,0,2.7977,optionRight,80,12765,6,14,0,14,0,1,,,,,,,,,,,,,,,,,,,,,,,,,,,,,,,,,,,,,,,
,,,,,,,,2023-08-03_06h12.10.324,HF_wild_card,2022.2.4,Win32,28.20715333,6473924c2cae5ee4db5082d2,64b543b0a84ad6ab4a25b86a,64cb3716888eff33011781e3,,,,,,,decisionTrl,resources/DG.BMP,resources/DR.BMP,Door2,-0.185648106,-0.047685199,1,0,0,1.6363,optionLeft,40,12805,6,15,0,15,0,1,,,,,,,,,,,,,,,,,,,,,,,,,,,,,,,,,,,,,,,
,,,,,,,,2023-08-03_06h12.10.324,HF_wild_card,2022.2.4,Win32,28.20715333,6473924c2cae5ee4db5082d2,64b543b0a84ad6ab4a25b86a,64cb3716888eff33011781e3,,,,,,,decisionTrl,resources/DR.BMP,resources/DG.BMP,Door2,0.183333362,0.017129616,1,0,0,1.1695,optionRight,20,12825,6,16,0,16,0,1,,,,,,,,,,,,,,,,,,,,,,,,,,,,,,,,,,,,,,,
,,,,,,,,2023-08-03_06h12.10.324,HF_wild_card,2022.2.4,Win32,28.20715333,6473924c2cae5ee4db5082d2,64b543b0a84ad6ab4a25b86a,64cb3716888eff33011781e3,,,,,,,ctch,resources/DBN.BMP,resources/DG.BMP,Door3,-0.196759259,-0.049074067,1,0,0,0.9355,optionLeft,70,12895,6,17,0,17,0,1,,,,,,,,,,,,,,,,,,,,,,,,,,,,,,,,,,,,,,,
,,,,,,,,2023-08-03_06h12.10.324,HF_wild_card,2022.2.4,Win32,28.20715333,6473924c2cae5ee4db5082d2,64b543b0a84ad6ab4a25b86a,64cb3716888eff33011781e3,,,,,,,ctch,resources/DR.BMP,resources/DY.BMP,Door4,0.24490745,0.032870363,1,0,0,0.9005,optionRight,80,12975,6,18,0,18,0,1,,,,,,,,,,,,,,,,,,,,,,,,,,,,,,,,,,,,,,,
,,,,,,,,2023-08-03_06h12.10.324,HF_wild_card,2022.2.4,Win32,28.20715333,6473924c2cae5ee4db5082d2,64b543b0a84ad6ab4a25b86a,64cb3716888eff33011781e3,,,,,,,decisionTrl,resources/DY.BMP,resources/DBN.BMP,Door3,0.248148176,0.036574081,1,0,0,1.099,optionRight,70,13045,6,19,0,19,0,1,,,,,,,,,,,,,,,,,,,,,,,,,,,,,,,,,,,,,,,
,,,,,,,,2023-08-03_06h12.10.324,HF_wild_card,2022.2.4,Win32,28.20715333,6473924c2cae5ee4db5082d2,64b543b0a84ad6ab4a25b86a,64cb3716888eff33011781e3,,,,,,,sngl,resources/Empty.png,resources/DR.BMP,Door1,0.224074116,0.029166645,1,0,0,0.7473,optionRight,30,13075,6,20,0,20,0,1,,,,,,,,,,,,,,,,,,,,,,,,,,,,,,,,,,,,,,,
,,,,,,,,2023-08-03_06h12.10.324,HF_wild_card,2022.2.4,Win32,28.20715333,6473924c2cae5ee4db5082d2,64b543b0a84ad6ab4a25b86a,64cb3716888eff33011781e3,,,,,,,decisionTrl,resources/DBN.BMP,resources/DY.BMP,Door3,-0.17314812,-0.05046297,1,0,0,0.9033,optionLeft,70,13145,6,21,0,21,0,1,,,,,,,,,,,,,,,,,,,,,,,,,,,,,,,,,,,,,,,
,,,,,,,,2023-08-03_06h12.10.324,HF_wild_card,2022.2.4,Win32,28.20715333,6473924c2cae5ee4db5082d2,64b543b0a84ad6ab4a25b86a,64cb3716888eff33011781e3,,,,,,,sngl,resources/DB.BMP,resources/Empty.png,WildCard_NonEx,-0.147222236,-0.032870363,1,0,0,0.8061,optionLeft,45,13190,6,22,0,22,0,1,,,,,,,,,,,,,,,,,,,,,,,,,,,,,,,,,,,,,,,
,,,,,,,,2023-08-03_06h12.10.324,HF_wild_card,2022.2.4,Win32,28.20715333,6473924c2cae5ee4db5082d2,64b543b0a84ad6ab4a25b86a,64cb3716888eff33011781e3,,,,,,,sngl,resources/Empty.png,resources/DB.BMP,WildCard_NonEx,0.242129644,0.035648134,1,0,0,0.8002,optionRight,55,13245,6,23,0,23,0,1,,,,,,,,,,,,,,,,,,,,,,,,,,,,,,,,,,,,,,,
,,,,,,,,2023-08-03_06h12.10.324,HF_wild_card,2022.2.4,Win32,28.20715333,6473924c2cae5ee4db5082d2,64b543b0a84ad6ab4a25b86a,64cb3716888eff33011781e3,,,,,,,decisionTrl,resources/DB.BMP,resources/DBN.BMP,Door3,0.266203704,0.04583334,1,0,0,0.9728,optionRight,70,13315,6,24,0,24,0,1,,,,,,,,,,,,,,,,,,,,,,,,,,,,,,,,,,,,,,,
,,,,,,,,2023-08-03_06h12.10.324,HF_wild_card,2022.2.4,Win32,28.20715333,6473924c2cae5ee4db5082d2,64b543b0a84ad6ab4a25b86a,64cb3716888eff33011781e3,,,,,,,decisionTrl,resources/DG.BMP,resources/DB.BMP,WildCard_NonEx,0.201388889,0.02870369,1,0,0,2.0476,optionRight,55,13370,6,25,0,25,0,1,,,,,,,,,,,,,,,,,,,,,,,,,,,,,,,,,,,,,,,
,,,,,,,,2023-08-03_06h12.10.324,HF_wild_card,2022.2.4,Win32,28.20715333,6473924c2cae5ee4db5082d2,64b543b0a84ad6ab4a25b86a,64cb3716888eff33011781e3,,,,,,,decisionTrl,resources/DY.BMP,resources/DBN.BMP,Door4,-0.19259255,-0.046296296,1,0,0,2.2537,optionLeft,60,13430,6,26,0,26,0,1,,,,,,,,,,,,,,,,,,,,,,,,,,,,,,,,,,,,,,,
,,,,,,,,2023-08-03_06h12.10.324,HF_wild_card,2022.2.4,Win32,28.20715333,6473924c2cae5ee4db5082d2,64b543b0a84ad6ab4a25b86a,64cb3716888eff33011781e3,,,,,,,ctch,resources/DG.BMP,resources/DBN.BMP,Door3,0.278240769,0.038888896,1,0,0,0.7606,optionRight,70,13500,6,27,0,27,0,1,,,,,,,,,,,,,,,,,,,,,,,,,,,,,,,,,,,,,,,
,,,,,,,,2023-08-03_06h12.10.324,HF_wild_card,2022.2.4,Win32,28.20715333,6473924c2cae5ee4db5082d2,64b543b0a84ad6ab4a25b86a,64cb3716888eff33011781e3,,,,,,,decisionTrl,resources/DG.BMP,resources/DR.BMP,Door2,-0.184259273,-0.036574081,1,0,0,1.357,optionLeft,40,13540,6,28,0,28,0,1,,,,,,,,,,,,,,,,,,,,,,,,,,,,,,,,,,,,,,,
,,,,,,,,2023-08-03_06h12.10.324,HF_wild_card,2022.2.4,Win32,28.20715333,6473924c2cae5ee4db5082d2,64b543b0a84ad6ab4a25b86a,64cb3716888eff33011781e3,,,,,,,decisionTrl,resources/DR.BMP,resources/DB.BMP,WildCard_NonEx,0.243981467,0.028240734,1,0,0,2.2776,optionRight,45,13585,6,29,0,29,0,1,,,,,,,,,,,,,,,,,,,,,,,,,,,,,,,,,,,,,,,
,,,,,,,,2023-08-03_06h12.10.324,HF_wild_card,2022.2.4,Win32,28.20715333,6473924c2cae5ee4db5082d2,64b543b0a84ad6ab4a25b86a,64cb3716888eff33011781e3,,,,,,,sngl,resources/DG.BMP,resources/Empty.png,Door2,-0.19259255,-0.056018511,1,0,0,0.979,optionLeft,20,13605,6,30,0,30,0,1,,,,,,,,,,,,,,,,,,,,,,,,,,,,,,,,,,,,,,,
,,,,,,,,2023-08-03_06h12.10.324,HF_wild_card,2022.2.4,Win32,28.20715333,6473924c2cae5ee4db5082d2,64b543b0a84ad6ab4a25b86a,64cb3716888eff33011781e3,,,,,,,decisionTrl,resources/DBN.BMP,resources/DY.BMP,Door4,0.36527775,0.040277764,1,0,0,2.4559,optionRight,80,13685,6,31,0,31,0,1,,,,,,,,,,,,,,,,,,,,,,,,,,,,,,,,,,,,,,,
,,,,,,,,2023-08-03_06h12.10.324,HF_wild_card,2022.2.4,Win32,28.20715333,6473924c2cae5ee4db5082d2,64b543b0a84ad6ab4a25b86a,64cb3716888eff33011781e3,,,,,,,decisionTrl,resources/DBN.BMP,resources/DY.BMP,Door4,0.303703732,0.043518526,1,0,0,0.9972,optionRight,80,13765,6,32,0,32,0,1,,,,,,,,,,,,,,,,,,,,,,,,,,,,,,,,,,,,,,,
,,,,,,,,2023-08-03_06h12.10.324,HF_wild_card,2022.2.4,Win32,28.20715333,6473924c2cae5ee4db5082d2,64b543b0a84ad6ab4a25b86a,64cb3716888eff33011781e3,,,,,,,decisionTrl,resources/DY.BMP,resources/DBN.BMP,Door4,-0.193518533,-0.044907429,1,0,0,1.3462,optionLeft,60,13825,6,33,0,33,0,1,,,,,,,,,,,,,,,,,,,,,,,,,,,,,,,,,,,,,,,
,,,,,,,,2023-08-03_06h12.10.324,HF_wild_card,2022.2.4,Win32,28.20715333,6473924c2cae5ee4db5082d2,64b543b0a84ad6ab4a25b86a,64cb3716888eff33011781e3,,,,,,,decisionTrl,resources/DBN.BMP,resources/DY.BMP,Door4,0.297222279,0.041666667,1,0,0,0.9874,optionRight,60,13885,6,34,0,34,0,1,,,,,,,,,,,,,,,,,,,,,,,,,,,,,,,,,,,,,,,
,,,,,,,,2023-08-03_06h12.10.324,HF_wild_card,2022.2.4,Win32,28.20715333,6473924c2cae5ee4db5082d2,64b543b0a84ad6ab4a25b86a,64cb3716888eff33011781e3,,,,,,,decisionTrl,resources/DB.BMP,resources/DG.BMP,WildCard_NonEx,-0.205092607,-0.061574088,1,0,0,1.0798,optionLeft,55,13940,6,35,0,35,0,1,,,,,,,,,,,,,,,,,,,,,,,,,,,,,,,,,,,,,,,
,,,,,,,,2023-08-03_06h12.10.324,HF_wild_card,2022.2.4,Win32,28.20715333,6473924c2cae5ee4db5082d2,64b543b0a84ad6ab4a25b86a,64cb3716888eff33011781e3,,,,,,,ctch,resources/DY.BMP,resources/DR.BMP,Door4,-0.181944459,-0.041666667,1,0,0,1.3022,optionLeft,80,14020,6,36,0,36,0,1,,,,,,,,,,,,,,,,,,,,,,,,,,,,,,,,,,,,,,,
,,,,,,,,2023-08-03_06h12.10.324,HF_wild_card,2022.2.4,Win32,28.20715333,6473924c2cae5ee4db5082d2,64b543b0a84ad6ab4a25b86a,64cb3716888eff33011781e3,,,,,,,sngl,resources/DR.BMP,resources/Empty.png,Door1,-0.176388847,-0.045370384,1,0,0,1.0038,optionLeft,30,14050,6,37,0,37,0,1,,,,,,,,,,,,,,,,,,,,,,,,,,,,,,,,,,,,,,,
,,,,,,,,2023-08-03_06h12.10.324,HF_wild_card,2022.2.4,Win32,28.20715333,6473924c2cae5ee4db5082d2,64b543b0a84ad6ab4a25b86a,64cb3716888eff33011781e3,,,,,,,decisionTrl,resources/DBN.BMP,resources/DB.BMP,Door3,-0.174537023,-0.035185178,1,0,0,1.1297,optionLeft,70,14120,6,38,0,38,0,1,,,,,,,,,,,,,,,,,,,,,,,,,,,,,,,,,,,,,,,
,,,,,,,,2023-08-03_06h12.10.324,HF_wild_card,2022.2.4,Win32,28.20715333,6473924c2cae5ee4db5082d2,64b543b0a84ad6ab4a25b86a,64cb3716888eff33011781e3,,,,,,,decisionTrl,resources/DY.BMP,resources/DB.BMP,Door4,-0.166203675,-0.034259266,1,0,0,1.3108,optionLeft,60,14180,6,39,0,39,0,1,,,,,,,,,,,,,,,,,,,,,,,,,,,,,,,,,,,,,,,
,,,,,,,,2023-08-03_06h12.10.324,HF_wild_card,2022.2.4,Win32,28.20715333,6473924c2cae5ee4db5082d2,64b543b0a84ad6ab4a25b86a,64cb3716888eff33011781e3,,,,,,,sngl,resources/Empty.png,resources/DG.BMP,Door2,0.271759245,0.013888889,1,0,0,0.9171,optionRight,40,14220,6,40,0,40,0,1,,,,,,,,,,,,,,,,,,,,,,,,,,,,,,,,,,,,,,,
,,,,,,,,2023-08-03_06h12.10.324,HF_wild_card,2022.2.4,Win32,28.20715333,6473924c2cae5ee4db5082d2,64b543b0a84ad6ab4a25b86a,64cb3716888eff33011781e3,,,,,,,decisionTrl,resources/DB.BMP,resources/DR.BMP,WildCard_NonEx,-0.167129587,-0.05787037,1,0,0,1.8452,optionLeft,55,14275,6,41,0,41,0,1,,,,,,,,,,,,,,,,,,,,,,,,,,,,,,,,,,,,,,,
,,,,,,,,2023-08-03_06h12.10.324,HF_wild_card,2022.2.4,Win32,28.20715333,6473924c2cae5ee4db5082d2,64b543b0a84ad6ab4a25b86a,64cb3716888eff33011781e3,,,,,,,ctch,resources/DR.BMP,resources/DY.BMP,Door4,0.377314815,0.048148155,1,0,0,1.3696,optionRight,60,14335,6,42,0,42,0,1,,,,,,,,,,,,,,,,,,,,,,,,,,,,,,,,,,,,,,,
,,,,,,,,2023-08-03_06h12.10.324,HF_wild_card,2022.2.4,Win32,28.20715333,6473924c2cae5ee4db5082d2,64b543b0a84ad6ab4a25b86a,64cb3716888eff33011781e3,,,,,,,sngl,resources/Empty.png,resources/DBN.BMP,Door3,0.308333362,0.034259266,1,0,0,0.8353,optionRight,70,14405,6,43,0,43,0,1,,,,,,,,,,,,,,,,,,,,,,,,,,,,,,,,,,,,,,,
,,,,,,,,2023-08-03_06h12.10.324,HF_wild_card,2022.2.4,Win32,28.20715333,6473924c2cae5ee4db5082d2,64b543b0a84ad6ab4a25b86a,64cb3716888eff33011781e3,,,,,,,,,,,,,,,,,,,,,,,,,,5,0,5,0,1,,,,,,,,,,,,,,,,,,,,,,,,,,,,,,,,,,
,,,,,,,,2023-08-03_06h12.10.324,HF_wild_card,2022.2.4,Win32,28.20715333,6473924c2cae5ee4db5082d2,64b543b0a84ad6ab4a25b86a,64cb3716888eff33011781e3,,,,,,,decisionTrl,resources/DY.BMP,resources/DBN.BMP,Door3,0.3023149,-0.019907422,1,0,0,1.2018,optionRight,70,14475,7,0,0,0,0,1,,,,,,,,,,,,,,,,,,,,,,,,,,,,,,,,,,,,,,,
,,,,,,,,2023-08-03_06h12.10.324,HF_wild_card,2022.2.4,Win32,28.20715333,6473924c2cae5ee4db5082d2,64b543b0a84ad6ab4a25b86a,64cb3716888eff33011781e3,,,,,,,decisionTrl,resources/DG.BMP,resources/DR.BMP,Door2,-0.243981467,-0.073611118,1,0,0,2.7544,optionLeft,20,14495,7,1,0,1,0,1,,,,,,,,,,,,,,,,,,,,,,,,,,,,,,,,,,,,,,,
,,,,,,,,2023-08-03_06h12.10.324,HF_wild_card,2022.2.4,Win32,28.20715333,6473924c2cae5ee4db5082d2,64b543b0a84ad6ab4a25b86a,64cb3716888eff33011781e3,,,,,,,ctch,resources/DBN.BMP,resources/DG.BMP,Door3,-0.260648162,-0.076851845,1,0,0,0.969,optionLeft,70,14565,7,2,0,2,0,1,,,,,,,,,,,,,,,,,,,,,,,,,,,,,,,,,,,,,,,
,,,,,,,,2023-08-03_06h12.10.324,HF_wild_card,2022.2.4,Win32,28.20715333,6473924c2cae5ee4db5082d2,64b543b0a84ad6ab4a25b86a,64cb3716888eff33011781e3,,,,,,,ctch,resources/DY.BMP,resources/DR.BMP,Door4,-0.19259255,-0.053240741,1,0,0,1.1384,optionLeft,60,14625,7,3,0,3,0,1,,,,,,,,,,,,,,,,,,,,,,,,,,,,,,,,,,,,,,,
,,,,,,,,2023-08-03_06h12.10.324,HF_wild_card,2022.2.4,Win32,28.20715333,6473924c2cae5ee4db5082d2,64b543b0a84ad6ab4a25b86a,64cb3716888eff33011781e3,,,,,,,ctch,resources/DBN.BMP,resources/DG.BMP,Door3,-0.1875,0.004166674,1,0,0,0.9663,optionLeft,70,14695,7,4,0,4,0,1,,,,,,,,,,,,,,,,,,,,,,,,,,,,,,,,,,,,,,,
,,,,,,,,2023-08-03_06h12.10.324,HF_wild_card,2022.2.4,Win32,28.20715333,6473924c2cae5ee4db5082d2,64b543b0a84ad6ab4a25b86a,64cb3716888eff33011781e3,,,,,,,decisionTrl,resources/DR.BMP,resources/DG.BMP,Door2,0.135185171,0.01203703,1,0,0,3.3245,optionRight,40,14735,7,5,0,5,0,1,,,,,,,,,,,,,,,,,,,,,,,,,,,,,,,,,,,,,,,
,,,,,,,,2023-08-03_06h12.10.324,HF_wild_card,2022.2.4,Win32,28.20715333,6473924c2cae5ee4db5082d2,64b543b0a84ad6ab4a25b86a,64cb3716888eff33011781e3,,,,,,,decisionTrl,resources/DY.BMP,resources/DBN.BMP,Door3,0.292129658,0.02407406,1,0,0,0.9755,optionRight,70,14805,7,6,0,6,0,1,,,,,,,,,,,,,,,,,,,,,,,,,,,,,,,,,,,,,,,
,,,,,,,,2023-08-03_06h12.10.324,HF_wild_card,2022.2.4,Win32,28.20715333,6473924c2cae5ee4db5082d2,64b543b0a84ad6ab4a25b86a,64cb3716888eff33011781e3,,,,,,,ctch,resources/DR.BMP,resources/DY.BMP,Door4,0.277777778,0.025462963,1,0,0,1.4434,optionRight,80,14885,7,7,0,7,0,1,,,,,,,,,,,,,,,,,,,,,,,,,,,,,,,,,,,,,,,
,,,,,,,,2023-08-03_06h12.10.324,HF_wild_card,2022.2.4,Win32,28.20715333,6473924c2cae5ee4db5082d2,64b543b0a84ad6ab4a25b86a,64cb3716888eff33011781e3,,,,,,,decisionTrl,resources/DBN.BMP,resources/DY.BMP,Door3,-0.201388889,-0.02638891,1,0,0,0.8969,optionLeft,70,14955,7,8,0,8,0,1,,,,,,,,,,,,,,,,,,,,,,,,,,,,,,,,,,,,,,,
,,,,,,,,2023-08-03_06h12.10.324,HF_wild_card,2022.2.4,Win32,28.20715333,6473924c2cae5ee4db5082d2,64b543b0a84ad6ab4a25b86a,64cb3716888eff33011781e3,,,,,,,decisionTrl,resources/DR.BMP,resources/DG.BMP,Door2,0.26435188,0.035185178,1,0,0,1.5706,optionRight,20,14975,7,9,0,9,0,1,,,,,,,,,,,,,,,,,,,,,,,,,,,,,,,,,,,,,,,
,,,,,,,,2023-08-03_06h12.10.324,HF_wild_card,2022.2.4,Win32,28.20715333,6473924c2cae5ee4db5082d2,64b543b0a84ad6ab4a25b86a,64cb3716888eff33011781e3,,,,,,,ctch,resources/DG.BMP,resources/DBN.BMP,Door3,0.305555556,0.025925919,1,0,0,0.8944,optionRight,70,15045,7,10,0,10,0,1,,,,,,,,,,,,,,,,,,,,,,,,,,,,,,,,,,,,,,,
,,,,,,,,2023-08-03_06h12.10.324,HF_wild_card,2022.2.4,Win32,28.20715333,6473924c2cae5ee4db5082d2,64b543b0a84ad6ab4a25b86a,64cb3716888eff33011781e3,,,,,,,decisionTrl,resources/DBN.BMP,resources/DY.BMP,Door3,-0.166203675,-0.039814808,1,0,0,0.9315,optionLeft,70,15115,7,11,0,11,0,1,,,,,,,,,,,,,,,,,,,,,,,,,,,,,,,,,,,,,,,
,,,,,,,,2023-08-03_06h12.10.324,HF_wild_card,2022.2.4,Win32,28.20715333,6473924c2cae5ee4db5082d2,64b543b0a84ad6ab4a25b86a,64cb3716888eff33011781e3,,,,,,,decisionTrl,resources/DY.BMP,resources/DBN.BMP,Door3,0.252777806,0.018518519,1,0,0,0.8351,optionRight,70,15185,7,12,0,12,0,1,,,,,,,,,,,,,,,,,,,,,,,,,,,,,,,,,,,,,,,
,,,,,,,,2023-08-03_06h12.10.324,HF_wild_card,2022.2.4,Win32,28.20715333,6473924c2cae5ee4db5082d2,64b543b0a84ad6ab4a25b86a,64cb3716888eff33011781e3,,,,,,,ctch,resources/DG.BMP,resources/DBN.BMP,Door3,0.200925968,0.025000007,1,0,0,0.7427,optionRight,70,15255,7,13,0,13,0,1,,,,,,,,,,,,,,,,,,,,,,,,,,,,,,,,,,,,,,,
,,,,,,,,2023-08-03_06h12.10.324,HF_wild_card,2022.2.4,Win32,28.20715333,6473924c2cae5ee4db5082d2,64b543b0a84ad6ab4a25b86a,64cb3716888eff33011781e3,,,,,,,ctch,resources/DBN.BMP,resources/DG.BMP,Door3,-0.137499986,-0.036574081,1,0,0,0.7974,optionLeft,70,15325,7,14,0,14,0,1,,,,,,,,,,,,,,,,,,,,,,,,,,,,,,,,,,,,,,,
,,,,,,,,2023-08-03_06h12.10.324,HF_wild_card,2022.2.4,Win32,28.20715333,6473924c2cae5ee4db5082d2,64b543b0a84ad6ab4a25b86a,64cb3716888eff33011781e3,,,,,,,decisionTrl,resources/DG.BMP,resources/DR.BMP,Door2,-0.159259231,-0.034722222,1,0,0,2.0052,optionLeft,20,15345,7,15,0,15,0,1,,,,,,,,,,,,,,,,,,,,,,,,,,,,,,,,,,,,,,,
,,,,,,,,2023-08-03_06h12.10.324,HF_wild_card,2022.2.4,Win32,28.20715333,6473924c2cae5ee4db5082d2,64b543b0a84ad6ab4a25b86a,64cb3716888eff33011781e3,,,,,,,decisionTrl,resources/DG.BMP,resources/DR.BMP,Door2,-0.180555556,-0.04305557,1,0,0,1.1679,optionLeft,20,15365,7,16,0,16,0,1,,,,,,,,,,,,,,,,,,,,,,,,,,,,,,,,,,,,,,,
,,,,,,,,2023-08-03_06h12.10.324,HF_wild_card,2022.2.4,Win32,28.20715333,6473924c2cae5ee4db5082d2,64b543b0a84ad6ab4a25b86a,64cb3716888eff33011781e3,,,,,,,ctch,resources/DR.BMP,resources/DY.BMP,Door4,0.321296268,0.04583334,1,0,0,1.2868,optionRight,80,15445,7,17,0,17,0,1,,,,,,,,,,,,,,,,,,,,,,,,,,,,,,,,,,,,,,,
,,,,,,,,2023-08-03_06h12.10.324,HF_wild_card,2022.2.4,Win32,28.20715333,6473924c2cae5ee4db5082d2,64b543b0a84ad6ab4a25b86a,64cb3716888eff33011781e3,,,,,,,decisionTrl,resources/DBN.BMP,resources/DY.BMP,Door3,-0.206018519,-0.044907429,1,0,0,1.2186,optionLeft,70,15515,7,18,0,18,0,1,,,,,,,,,,,,,,,,,,,,,,,,,,,,,,,,,,,,,,,
,,,,,,,,2023-08-03_06h12.10.324,HF_wild_card,2022.2.4,Win32,28.20715333,6473924c2cae5ee4db5082d2,64b543b0a84ad6ab4a25b86a,64cb3716888eff33011781e3,,,,,,,decisionTrl,resources/DY.BMP,resources/DBN.BMP,Door3,0.241203732,0.039351852,1,0,0,0.7333,optionRight,70,15585,7,19,0,19,0,1,,,,,,,,,,,,,,,,,,,,,,,,,,,,,,,,,,,,,,,
,,,,,,,,2023-08-03_06h12.10.324,HF_wild_card,2022.2.4,Win32,28.20715333,6473924c2cae5ee4db5082d2,64b543b0a84ad6ab4a25b86a,64cb3716888eff33011781e3,,,,,,,ctch,resources/DY.BMP,resources/DR.BMP,Door4,-0.281018504,-0.035185178,1,0,0,1.3066,optionLeft,60,15645,7,20,0,20,0,1,,,,,,,,,,,,,,,,,,,,,,,,,,,,,,,,,,,,,,,
,,,,,,,,2023-08-03_06h12.10.324,HF_wild_card,2022.2.4,Win32,28.20715333,6473924c2cae5ee4db5082d2,64b543b0a84ad6ab4a25b86a,64cb3716888eff33011781e3,,,,,,,decisionTrl,resources/DG.BMP,resources/DR.BMP,Door2,-0.215740698,-0.017129651,1,0,0,1.6236,optionLeft,40,15685,7,21,0,21,0,1,,,,,,,,,,,,,,,,,,,,,,,,,,,,,,,,,,,,,,,
,,,,,,,,2023-08-03_06h12.10.324,HF_wild_card,2022.2.4,Win32,28.20715333,6473924c2cae5ee4db5082d2,64b543b0a84ad6ab4a25b86a,64cb3716888eff33011781e3,,,,,,,ctch,resources/DR.BMP,resources/DY.BMP,Door4,0.329629686,0.038888896,1,0,0,1.1525,optionRight,80,15765,7,22,0,22,0,1,,,,,,,,,,,,,,,,,,,,,,,,,,,,,,,,,,,,,,,
,,,,,,,,2023-08-03_06h12.10.324,HF_wild_card,2022.2.4,Win32,28.20715333,6473924c2cae5ee4db5082d2,64b543b0a84ad6ab4a25b86a,64cb3716888eff33011781e3,,,,,,,decisionTrl,resources/DY.BMP,resources/DBN.BMP,Door3,0.217592593,0.032407407,1,0,0,0.9123,optionRight,70,15835,7,23,0,23,0,1,,,,,,,,,,,,,,,,,,,,,,,,,,,,,,,,,,,,,,,
,,,,,,,,2023-08-03_06h12.10.324,HF_wild_card,2022.2.4,Win32,28.20715333,6473924c2cae5ee4db5082d2,64b543b0a84ad6ab4a25b86a,64cb3716888eff33011781e3,,,,,,,decisionTrl,resources/DG.BMP,resources/DR.BMP,Door2,-0.201851809,-0.029629637,1,0,0,1.7293,optionLeft,40,15875,7,24,0,24,0,1,,,,,,,,,,,,,,,,,,,,,,,,,,,,,,,,,,,,,,,
,,,,,,,,2023-08-03_06h12.10.324,HF_wild_card,2022.2.4,Win32,28.20715333,6473924c2cae5ee4db5082d2,64b543b0a84ad6ab4a25b86a,64cb3716888eff33011781e3,,,,,,,ctch,resources/DY.BMP,resources/DR.BMP,Door4,-0.226388861,-0.019907422,1,0,0,1.529,optionLeft,60,15935,7,25,0,25,0,1,,,,,,,,,,,,,,,,,,,,,,,,,,,,,,,,,,,,,,,
,,,,,,,,2023-08-03_06h12.10.324,HF_wild_card,2022.2.4,Win32,28.20715333,6473924c2cae5ee4db5082d2,64b543b0a84ad6ab4a25b86a,64cb3716888eff33011781e3,,,,,,,decisionTrl,resources/DR.BMP,resources/DG.BMP,Door2,0.234722208,0.031944452,1,0,0,1.8775,optionRight,40,15975,7,26,0,26,0,1,,,,,,,,,,,,,,,,,,,,,,,,,,,,,,,,,,,,,,,
,,,,,,,,2023-08-03_06h12.10.324,HF_wild_card,2022.2.4,Win32,28.20715333,6473924c2cae5ee4db5082d2,64b543b0a84ad6ab4a25b86a,64cb3716888eff33011781e3,,,,,,,decisionTrl,resources/DBN.BMP,resources/DY.BMP,Door3,-0.223611125,-0.025925919,1,0,0,1.0725,optionLeft,70,16045,7,27,0,27,0,1,,,,,,,,,,,,,,,,,,,,,,,,,,,,,,,,,,,,,,,
,,,,,,,,2023-08-03_06h12.10.324,HF_wild_card,2022.2.4,Win32,28.20715333,6473924c2cae5ee4db5082d2,64b543b0a84ad6ab4a25b86a,64cb3716888eff33011781e3,,,,,,,decisionTrl,resources/DR.BMP,resources/DG.BMP,Door2,0.191666709,0.018981474,1,0,0,1.7324,optionRight,40,16085,7,28,0,28,0,1,,,,,,,,,,,,,,,,,,,,,,,,,,,,,,,,,,,,,,,
,,,,,,,,2023-08-03_06h12.10.324,HF_wild_card,2022.2.4,Win32,28.20715333,6473924c2cae5ee4db5082d2,64b543b0a84ad6ab4a25b86a,64cb3716888eff33011781e3,,,,,,,ctch,resources/DG.BMP,resources/DBN.BMP,Door3,0.26898151,0.032870363,1,0,0,0.9309,optionRight,70,16155,7,29,0,29,0,1,,,,,,,,,,,,,,,,,,,,,,,,,,,,,,,,,,,,,,,
,,,,,,,,2023-08-03_06h12.10.324,HF_wild_card,2022.2.4,Win32,28.20715333,6473924c2cae5ee4db5082d2,64b543b0a84ad6ab4a25b86a,64cb3716888eff33011781e3,,,,,,,decisionTrl,resources/DY.BMP,resources/DBN.BMP,Door3,0.225000028,0.030555548,1,0,0,0.7625,optionRight,70,16225,7,30,0,30,0,1,,,,,,,,,,,,,,,,,,,,,,,,,,,,,,,,,,,,,,,
,,,,,,,,2023-08-03_06h12.10.324,HF_wild_card,2022.2.4,Win32,28.20715333,6473924c2cae5ee4db5082d2,64b543b0a84ad6ab4a25b86a,64cb3716888eff33011781e3,,,,,,,decisionTrl,resources/DR.BMP,resources/DG.BMP,Door2,0.275000042,0.04074072,1,0,0,1.6304,optionRight,40,16265,7,31,0,31,0,1,,,,,,,,,,,,,,,,,,,,,,,,,,,,,,,,,,,,,,,
,,,,,,,,2023-08-03_06h12.10.324,HF_wild_card,2022.2.4,Win32,28.20715333,6473924c2cae5ee4db5082d2,64b543b0a84ad6ab4a25b86a,64cb3716888eff33011781e3,,,,,,,decisionTrl,resources/DBN.BMP,resources/DY.BMP,Door3,-0.16342594,-0.043518526,1,0,0,1.0405,optionLeft,70,16335,7,32,0,32,0,1,,,,,,,,,,,,,,,,,,,,,,,,,,,,,,,,,,,,,,,
,,,,,,,,2023-08-03_06h12.10.324,HF_wild_card,2022.2.4,Win32,28.20715333,6473924c2cae5ee4db5082d2,64b543b0a84ad6ab4a25b86a,64cb3716888eff33011781e3,,,,,,,decisionTrl,resources/DR.BMP,resources/DG.BMP,Door2,0.281018504,0.055555556,1,0,0,1.3885,optionRight,40,16375,7,33,0,33,0,1,,,,,,,,,,,,,,,,,,,,,,,,,,,,,,,,,,,,,,,
,,,,,,,,2023-08-03_06h12.10.324,HF_wild_card,2022.2.4,Win32,28.20715333,6473924c2cae5ee4db5082d2,64b543b0a84ad6ab4a25b86a,64cb3716888eff33011781e3,,,,,,,decisionTrl,resources/DG.BMP,resources/DR.BMP,Door2,-0.190277735,-0.009259259,1,0,0,1.3145,optionLeft,20,16395,7,34,0,34,0,1,,,,,,,,,,,,,,,,,,,,,,,,,,,,,,,,,,,,,,,
,,,,,,,,2023-08-03_06h12.10.324,HF_wild_card,2022.2.4,Win32,28.20715333,6473924c2cae5ee4db5082d2,64b543b0a84ad6ab4a25b86a,64cb3716888eff33011781e3,,,,,,,decisionTrl,resources/DBN.BMP,resources/DY.BMP,Door3,-0.218518504,0.012499986,1,0,0,0.9853,optionLeft,70,16465,7,35,0,35,0,1,,,,,,,,,,,,,,,,,,,,,,,,,,,,,,,,,,,,,,,
,,,,,,,,2023-08-03_06h12.10.324,HF_wild_card,2022.2.4,Win32,28.20715333,6473924c2cae5ee4db5082d2,64b543b0a84ad6ab4a25b86a,64cb3716888eff33011781e3,,,,,,,,,,,,,,,,,,,,,,,,,,6,0,6,0,1,,,,,,,,,,,,,,,,,,,,,,,,,,,,,,,,,,
,,,,,,,,2023-08-03_06h12.10.324,HF_wild_card,2022.2.4,Win32,28.20715333,6473924c2cae5ee4db5082d2,64b543b0a84ad6ab4a25b86a,64cb3716888eff33011781e3,,,,,,,,,,,,,,,,,,,,,,,,,,,,,,,4,,,,,,,,,,,,,,,,,,,,,,,,,,,,,,,,,
,,,,,,,,2023-08-03_06h12.10.324,HF_wild_card,2022.2.4,Win32,28.20715333,6473924c2cae5ee4db5082d2,64b543b0a84ad6ab4a25b86a,64cb3716888eff33011781e3,,,,,,,,,,,,,,,,,,,,,,,,,,,,,,,,,,,,,,,,,,,,,,,,,,,,,,,,,,,,,,,,
,,,,,,,,2023-08-03_06h12.10.324,HF_wild_card,2022.2.4,Win32,28.20715333,6473924c2cae5ee4db5082d2,64b543b0a84ad6ab4a25b86a,64cb3716888eff33011781e3,,,,,,,,,,,,,,,,,,,,,,,,,,,,,,,,60,Door4,resources/DY.BMP,0,0,0,0,1,,,,,,,,,,,,,,,,,,,,,,,,,
,,,,,,,,2023-08-03_06h12.10.324,HF_wild_card,2022.2.4,Win32,28.20715333,6473924c2cae5ee4db5082d2,64b543b0a84ad6ab4a25b86a,64cb3716888eff33011781e3,,,,,,,,,,,,,,,,,,,,,,,,,,,,,,,,70,Door3,resources/DBN.BMP,1,0,1,0,1,,,,,,,,,,,,,,,,,,,,,,,,,
,,,,,,,,2023-08-03_06h12.10.324,HF_wild_card,2022.2.4,Win32,28.20715333,6473924c2cae5ee4db5082d2,64b543b0a84ad6ab4a25b86a,64cb3716888eff33011781e3,,,,,,,,,,,,,,,,,,,,,,,,,,,,,,,,30,Door1,resources/DR.BMP,2,0,2,0,1,,,,,,,,,,,,,,,,,,,,,,,,,
,,,,,,,,2023-08-03_06h12.10.324,HF_wild_card,2022.2.4,Win32,28.20715333,6473924c2cae5ee4db5082d2,64b543b0a84ad6ab4a25b86a,64cb3716888eff33011781e3,,,,,,,,,,,,,,,,,,,,,,,,,,,,,,,,55,WC_nonExtreme,resources/DB.BMP,3,0,3,0,1,,,,,,,,,,,,,,,,,,,,,,,,,
,,,,,,,,2023-08-03_06h12.10.324,HF_wild_card,2022.2.4,Win32,28.20715333,6473924c2cae5ee4db5082d2,64b543b0a84ad6ab4a25b86a,64cb3716888eff33011781e3,,,,,,,,,,,,,,,,,,,,,,,,,,,,,,,,60,WC_extreme,resources/DP.BMP,4,0,4,0,1,,,,,,,,,,,,,,,,,,,,,,,,,
,,,,,,,,2023-08-03_06h12.10.324,HF_wild_card,2022.2.4,Win32,28.20715333,6473924c2cae5ee4db5082d2,64b543b0a84ad6ab4a25b86a,64cb3716888eff33011781e3,,,,,,,,,,,,,,,,,,,,,,,,,,,,,,,,30,Door2,resources/DG.BMP,5,0,5,0,1,,,,,,,,,,,,,,,,,,,,,,,,,
,,,,,,,,2023-08-03_06h12.10.324,HF_wild_card,2022.2.4,Win32,28.20715333,6473924c2cae5ee4db5082d2,64b543b0a84ad6ab4a25b86a,64cb3716888eff33011781e3,,,,,,,,,,,,,,,,,,,,,,,,,,,,,,,,,,,,,,,,,,,,,,,,,,,,,,,,,,,,,,,,
