Condition,Low fixed image (Door1),Low risky image (Door2),High fixed image (Door3),High risky image (Door4),NonExtreme Wild Card 1,NonExtreme Wild Card 2,,date,expName,psychopyVersion,OS,frameRate,PROLIFIC_PID,STUDY_ID,SESSION_ID,mouse_2.x,mouse_2.y,mouse_2.leftButton,mouse_2.midButton,mouse_2.rightButton,mouse_2.clicked_name,Trial Type,Left Option Image,Right Option Image,Chosen Door,mouse.x,mouse.y,mouse.leftButton,mouse.midButton,mouse.rightButton,mouse.time,mouse.clicked_name,Feedback,Cumulative Reward,Block,trial.thisRepN,trial.thisTrialN,trial.thisN,trial.thisIndex,trial.ran,blocks.thisRepN,blocks.thisTrialN,blocks.thisN,blocks.thisIndex,blocks.ran,Money conversion,First Outcome Reported,Shown Door (First Outcome),Displayed Image (First Outcome),outcomes.thisRepN,outcomes.thisTrialN,outcomes.thisN,outcomes.thisIndex,outcomes.ran,judgments.thisRepN,judgments.thisTrialN,judgments.thisN,judgments.thisIndex,judgments.ran,freqMouse.x,freqMouse.y,freqMouse.leftButton,freqMouse.midButton,freqMouse.rightButton,freqMouse.clicked_name,trials.thisRepN,trials.thisTrialN,trials.thisN,trials.thisIndex,trials.ran,FQJ for first outcome,FQJ for second outcome,Shown Door,Displayed Image,judgBlock.thisRepN,judgBlock.thisTrialN,judgBlock.thisN,judgBlock.thisIndex,judgBlock.ran
2,resources/DG.BMP,resources/DP.BMP,resources/DY.BMP,resources/DBN.BMP,resources/DR.BMP,resources/DB.BMP,,2023-08-16_08h39.02.538,HF_wild_card,2022.2.4,Win32,14.94343908,5ace11dc35eccf0001a115fe,64d2fd46c836a06233681665,64dc7cf843899dc768c493b8,,,,,,,,,,,,,,,,,,,,,,,,,,,,,,,,,,,,,,,,,,,,,,,,,,,,,,,,,,,,,,,,
,,,,,,,,2023-08-16_08h39.02.538,HF_wild_card,2022.2.4,Win32,14.94343908,5ace11dc35eccf0001a115fe,64d2fd46c836a06233681665,64dc7cf843899dc768c493b8,0.005208333,-0.416666667,1,0,0,agree,,,,,,,,,,,,,,,,,,,,,,,,,,,,,,,,,,,,,,,,,,,,,,,,,,,,,,,,,,
,,,,,,,,2023-08-16_08h39.02.538,HF_wild_card,2022.2.4,Win32,14.94343908,5ace11dc35eccf0001a115fe,64d2fd46c836a06233681665,64dc7cf843899dc768c493b8,,,,,,,,,,,,,,,,,,,,,,,,,,,,,,,,,,,,,,,,,,,,,,,,,,,,,,,,,,,,,,,,
,,,,,,,,2023-08-16_08h39.02.538,HF_wild_card,2022.2.4,Win32,14.94343908,5ace11dc35eccf0001a115fe,64d2fd46c836a06233681665,64dc7cf843899dc768c493b8,,,,,,,decisionTrl,resources/DG.BMP,resources/DP.BMP,Door2,0.388020833,-0.076822917,1,0,0,2.3399,optionRight,40,40,1,0,0,0,0,1,,,,,,,,,,,,,,,,,,,,,,,,,,,,,,,,,,,,,,,
,,,,,,,,2023-08-16_08h39.02.538,HF_wild_card,2022.2.4,Win32,14.94343908,5ace11dc35eccf0001a115fe,64d2fd46c836a06233681665,64dc7cf843899dc768c493b8,,,,,,,ctch,resources/DBN.BMP,resources/DG.BMP,Door1,0.234375,0.005208333,1,0,0,1.8015,optionRight,30,70,1,1,0,1,0,1,,,,,,,,,,,,,,,,,,,,,,,,,,,,,,,,,,,,,,,
,,,,,,,,2023-08-16_08h39.02.538,HF_wild_card,2022.2.4,Win32,14.94343908,5ace11dc35eccf0001a115fe,64d2fd46c836a06233681665,64dc7cf843899dc768c493b8,,,,,,,sngl,resources/DB.BMP,resources/Empty.png,WildCard_NonEx,-0.3125,-0.01953125,1,0,0,1.0823,optionLeft,45,115,1,2,0,2,0,1,,,,,,,,,,,,,,,,,,,,,,,,,,,,,,,,,,,,,,,
,,,,,,,,2023-08-16_08h39.02.538,HF_wild_card,2022.2.4,Win32,14.94343908,5ace11dc35eccf0001a115fe,64d2fd46c836a06233681665,64dc7cf843899dc768c493b8,,,,,,,decisionTrl,resources/DG.BMP,resources/DP.BMP,Door2,0.341145833,-0.03125,1,0,0,1.2949,optionRight,40,155,1,3,0,3,0,1,,,,,,,,,,,,,,,,,,,,,,,,,,,,,,,,,,,,,,,
,,,,,,,,2023-08-16_08h39.02.538,HF_wild_card,2022.2.4,Win32,14.94343908,5ace11dc35eccf0001a115fe,64d2fd46c836a06233681665,64dc7cf843899dc768c493b8,,,,,,,decisionTrl,resources/DP.BMP,resources/DG.BMP,Door1,0.391927083,0.009114583,1,0,0,2.2098,optionRight,30,185,1,4,0,4,0,1,,,,,,,,,,,,,,,,,,,,,,,,,,,,,,,,,,,,,,,
,,,,,,,,2023-08-16_08h39.02.538,HF_wild_card,2022.2.4,Win32,14.94343908,5ace11dc35eccf0001a115fe,64d2fd46c836a06233681665,64dc7cf843899dc768c493b8,,,,,,,decisionTrl,resources/DP.BMP,resources/DG.BMP,Door2,-0.356770833,-0.03515625,1,0,0,0.7625,optionLeft,20,205,1,5,0,5,0,1,,,,,,,,,,,,,,,,,,,,,,,,,,,,,,,,,,,,,,,
,,,,,,,,2023-08-16_08h39.02.538,HF_wild_card,2022.2.4,Win32,14.94343908,5ace11dc35eccf0001a115fe,64d2fd46c836a06233681665,64dc7cf843899dc768c493b8,,,,,,,decisionTrl,resources/DY.BMP,resources/DBN.BMP,Door4,0.345052083,0.001302083,1,0,0,1.6055,optionRight,60,265,1,6,0,6,0,1,,,,,,,,,,,,,,,,,,,,,,,,,,,,,,,,,,,,,,,
,,,,,,,,2023-08-16_08h39.02.538,HF_wild_card,2022.2.4,Win32,14.94343908,5ace11dc35eccf0001a115fe,64d2fd46c836a06233681665,64dc7cf843899dc768c493b8,,,,,,,decisionTrl,resources/DY.BMP,resources/DBN.BMP,Door4,0.260416667,-0.014322917,1,0,0,0.8527,optionRight,80,345,1,7,0,7,0,1,,,,,,,,,,,,,,,,,,,,,,,,,,,,,,,,,,,,,,,
,,,,,,,,2023-08-16_08h39.02.538,HF_wild_card,2022.2.4,Win32,14.94343908,5ace11dc35eccf0001a115fe,64d2fd46c836a06233681665,64dc7cf843899dc768c493b8,,,,,,,ctch,resources/DP.BMP,resources/DY.BMP,Door3,0.2734375,-0.006510417,1,0,0,3.0365,optionRight,70,415,1,8,0,8,0,1,,,,,,,,,,,,,,,,,,,,,,,,,,,,,,,,,,,,,,,
,,,,,,,,2023-08-16_08h39.02.538,HF_wild_card,2022.2.4,Win32,14.94343908,5ace11dc35eccf0001a115fe,64d2fd46c836a06233681665,64dc7cf843899dc768c493b8,,,,,,,decisionTrl,resources/DP.BMP,resources/DB.BMP,WildCard_NonEx,0.296875,-0.01171875,1,0,0,1.5435,optionRight,55,470,1,9,0,9,0,1,,,,,,,,,,,,,,,,,,,,,,,,,,,,,,,,,,,,,,,
,,,,,,,,2023-08-16_08h39.02.538,HF_wild_card,2022.2.4,Win32,14.94343908,5ace11dc35eccf0001a115fe,64d2fd46c836a06233681665,64dc7cf843899dc768c493b8,,,,,,,decisionTrl,resources/DBN.BMP,resources/DY.BMP,Door4,-0.266927083,-0.029947917,1,0,0,1.0236,optionLeft,60,530,1,10,0,10,0,1,,,,,,,,,,,,,,,,,,,,,,,,,,,,,,,,,,,,,,,
,,,,,,,,2023-08-16_08h39.02.538,HF_wild_card,2022.2.4,Win32,14.94343908,5ace11dc35eccf0001a115fe,64d2fd46c836a06233681665,64dc7cf843899dc768c493b8,,,,,,,sngl,resources/Empty.png,resources/DY.BMP,Door3,0.239583333,-0.013020833,1,0,0,1.0161,optionRight,70,600,1,11,0,11,0,1,,,,,,,,,,,,,,,,,,,,,,,,,,,,,,,,,,,,,,,
,,,,,,,,2023-08-16_08h39.02.538,HF_wild_card,2022.2.4,Win32,14.94343908,5ace11dc35eccf0001a115fe,64d2fd46c836a06233681665,64dc7cf843899dc768c493b8,,,,,,,decisionTrl,resources/DBN.BMP,resources/DY.BMP,Door4,-0.348958333,-0.026041667,1,0,0,1.6289,optionLeft,60,660,1,12,0,12,0,1,,,,,,,,,,,,,,,,,,,,,,,,,,,,,,,,,,,,,,,
,,,,,,,,2023-08-16_08h39.02.538,HF_wild_card,2022.2.4,Win32,14.94343908,5ace11dc35eccf0001a115fe,64d2fd46c836a06233681665,64dc7cf843899dc768c493b8,,,,,,,ctch,resources/DY.BMP,resources/DP.BMP,Door3,-0.3125,-0.006510417,1,0,0,2.0286,optionLeft,70,730,1,13,0,13,0,1,,,,,,,,,,,,,,,,,,,,,,,,,,,,,,,,,,,,,,,
,,,,,,,,2023-08-16_08h39.02.538,HF_wild_card,2022.2.4,Win32,14.94343908,5ace11dc35eccf0001a115fe,64d2fd46c836a06233681665,64dc7cf843899dc768c493b8,,,,,,,decisionTrl,resources/DP.BMP,resources/DG.BMP,Door1,0.239583333,-0.005208333,1,0,0,2.233,optionRight,30,760,1,14,0,14,0,1,,,,,,,,,,,,,,,,,,,,,,,,,,,,,,,,,,,,,,,
,,,,,,,,2023-08-16_08h39.02.538,HF_wild_card,2022.2.4,Win32,14.94343908,5ace11dc35eccf0001a115fe,64d2fd46c836a06233681665,64dc7cf843899dc768c493b8,,,,,,,sngl,resources/DBN.BMP,resources/Empty.png,Door4,-0.37109375,0.002604167,1,0,0,0.8578,optionLeft,80,840,1,15,0,15,0,1,,,,,,,,,,,,,,,,,,,,,,,,,,,,,,,,,,,,,,,
,,,,,,,,2023-08-16_08h39.02.538,HF_wild_card,2022.2.4,Win32,14.94343908,5ace11dc35eccf0001a115fe,64d2fd46c836a06233681665,64dc7cf843899dc768c493b8,,,,,,,decisionTrl,resources/DBN.BMP,resources/DB.BMP,Door4,-0.395833333,-0.00390625,1,0,0,1.1209,optionLeft,80,920,1,16,0,16,0,1,,,,,,,,,,,,,,,,,,,,,,,,,,,,,,,,,,,,,,,
,,,,,,,,2023-08-16_08h39.02.538,HF_wild_card,2022.2.4,Win32,14.94343908,5ace11dc35eccf0001a115fe,64d2fd46c836a06233681665,64dc7cf843899dc768c493b8,,,,,,,sngl,resources/DP.BMP,resources/Empty.png,Door2,-0.49609375,0.055989583,1,0,0,1.095,optionLeft,40,960,1,17,0,17,0,1,,,,,,,,,,,,,,,,,,,,,,,,,,,,,,,,,,,,,,,
,,,,,,,,2023-08-16_08h39.02.538,HF_wild_card,2022.2.4,Win32,14.94343908,5ace11dc35eccf0001a115fe,64d2fd46c836a06233681665,64dc7cf843899dc768c493b8,,,,,,,sngl,resources/DG.BMP,resources/Empty.png,Door1,-0.283854167,0,1,0,0,1.0711,optionLeft,30,990,1,18,0,18,0,1,,,,,,,,,,,,,,,,,,,,,,,,,,,,,,,,,,,,,,,
,,,,,,,,2023-08-16_08h39.02.538,HF_wild_card,2022.2.4,Win32,14.94343908,5ace11dc35eccf0001a115fe,64d2fd46c836a06233681665,64dc7cf843899dc768c493b8,,,,,,,sngl,resources/DB.BMP,resources/Empty.png,WildCard_NonEx,-0.348958333,-0.014322917,1,0,0,1.0034,optionLeft,55,1045,1,19,0,19,0,1,,,,,,,,,,,,,,,,,,,,,,,,,,,,,,,,,,,,,,,
,,,,,,,,2023-08-16_08h39.02.538,HF_wild_card,2022.2.4,Win32,14.94343908,5ace11dc35eccf0001a115fe,64d2fd46c836a06233681665,64dc7cf843899dc768c493b8,,,,,,,decisionTrl,resources/DY.BMP,resources/DBN.BMP,Door4,0.309895833,-0.001302083,1,0,0,1.2832,optionRight,60,1105,1,20,0,20,0,1,,,,,,,,,,,,,,,,,,,,,,,,,,,,,,,,,,,,,,,
,,,,,,,,2023-08-16_08h39.02.538,HF_wild_card,2022.2.4,Win32,14.94343908,5ace11dc35eccf0001a115fe,64d2fd46c836a06233681665,64dc7cf843899dc768c493b8,,,,,,,sngl,resources/Empty.png,resources/DBN.BMP,Door4,0.27734375,0.037760417,1,0,0,0.8526,optionRight,60,1165,1,21,0,21,0,1,,,,,,,,,,,,,,,,,,,,,,,,,,,,,,,,,,,,,,,
,,,,,,,,2023-08-16_08h39.02.538,HF_wild_card,2022.2.4,Win32,14.94343908,5ace11dc35eccf0001a115fe,64d2fd46c836a06233681665,64dc7cf843899dc768c493b8,,,,,,,decisionTrl,resources/DBN.BMP,resources/DY.BMP,Door4,-0.231770833,-0.009114583,1,0,0,1.3822,optionLeft,80,1245,1,22,0,22,0,1,,,,,,,,,,,,,,,,,,,,,,,,,,,,,,,,,,,,,,,
,,,,,,,,2023-08-16_08h39.02.538,HF_wild_card,2022.2.4,Win32,14.94343908,5ace11dc35eccf0001a115fe,64d2fd46c836a06233681665,64dc7cf843899dc768c493b8,,,,,,,decisionTrl,resources/DP.BMP,resources/DG.BMP,Door2,-0.251302083,-0.03125,1,0,0,1.6138,optionLeft,20,1265,1,23,0,23,0,1,,,,,,,,,,,,,,,,,,,,,,,,,,,,,,,,,,,,,,,
,,,,,,,,2023-08-16_08h39.02.538,HF_wild_card,2022.2.4,Win32,14.94343908,5ace11dc35eccf0001a115fe,64d2fd46c836a06233681665,64dc7cf843899dc768c493b8,,,,,,,decisionTrl,resources/DB.BMP,resources/DBN.BMP,Door4,0.393229167,0.037760417,1,0,0,1.1096,optionRight,80,1345,1,24,0,24,0,1,,,,,,,,,,,,,,,,,,,,,,,,,,,,,,,,,,,,,,,
,,,,,,,,2023-08-16_08h39.02.538,HF_wild_card,2022.2.4,Win32,14.94343908,5ace11dc35eccf0001a115fe,64d2fd46c836a06233681665,64dc7cf843899dc768c493b8,,,,,,,ctch,resources/DP.BMP,resources/DY.BMP,Door3,0.329427083,0.010416667,1,0,0,1.5585,optionRight,70,1415,1,25,0,25,0,1,,,,,,,,,,,,,,,,,,,,,,,,,,,,,,,,,,,,,,,
,,,,,,,,2023-08-16_08h39.02.538,HF_wild_card,2022.2.4,Win32,14.94343908,5ace11dc35eccf0001a115fe,64d2fd46c836a06233681665,64dc7cf843899dc768c493b8,,,,,,,decisionTrl,resources/DB.BMP,resources/DY.BMP,Door3,0.296875,-0.001302083,1,0,0,0.9342,optionRight,70,1485,1,26,0,26,0,1,,,,,,,,,,,,,,,,,,,,,,,,,,,,,,,,,,,,,,,
,,,,,,,,2023-08-16_08h39.02.538,HF_wild_card,2022.2.4,Win32,14.94343908,5ace11dc35eccf0001a115fe,64d2fd46c836a06233681665,64dc7cf843899dc768c493b8,,,,,,,sngl,resources/Empty.png,resources/DG.BMP,Door1,0.329427083,0.020833333,1,0,0,0.9232,optionRight,30,1515,1,27,0,27,0,1,,,,,,,,,,,,,,,,,,,,,,,,,,,,,,,,,,,,,,,
,,,,,,,,2023-08-16_08h39.02.538,HF_wild_card,2022.2.4,Win32,14.94343908,5ace11dc35eccf0001a115fe,64d2fd46c836a06233681665,64dc7cf843899dc768c493b8,,,,,,,sngl,resources/Empty.png,resources/DP.BMP,Door2,0.30859375,0.00390625,1,0,0,0.7811,optionRight,20,1535,1,28,0,28,0,1,,,,,,,,,,,,,,,,,,,,,,,,,,,,,,,,,,,,,,,
,,,,,,,,2023-08-16_08h39.02.538,HF_wild_card,2022.2.4,Win32,14.94343908,5ace11dc35eccf0001a115fe,64d2fd46c836a06233681665,64dc7cf843899dc768c493b8,,,,,,,decisionTrl,resources/DY.BMP,resources/DBN.BMP,Door4,0.434895833,0.024739583,1,0,0,1.5542,optionRight,60,1595,1,29,0,29,0,1,,,,,,,,,,,,,,,,,,,,,,,,,,,,,,,,,,,,,,,
,,,,,,,,2023-08-16_08h39.02.538,HF_wild_card,2022.2.4,Win32,14.94343908,5ace11dc35eccf0001a115fe,64d2fd46c836a06233681665,64dc7cf843899dc768c493b8,,,,,,,decisionTrl,resources/DG.BMP,resources/DP.BMP,Door1,-0.29296875,-0.05078125,1,0,0,1.1212,optionLeft,30,1625,1,30,0,30,0,1,,,,,,,,,,,,,,,,,,,,,,,,,,,,,,,,,,,,,,,
,,,,,,,,2023-08-16_08h39.02.538,HF_wild_card,2022.2.4,Win32,14.94343908,5ace11dc35eccf0001a115fe,64d2fd46c836a06233681665,64dc7cf843899dc768c493b8,,,,,,,ctch,resources/DG.BMP,resources/DBN.BMP,Door4,0.34375,-0.005208333,1,0,0,1.3058,optionRight,60,1685,1,31,0,31,0,1,,,,,,,,,,,,,,,,,,,,,,,,,,,,,,,,,,,,,,,
,,,,,,,,2023-08-16_08h39.02.538,HF_wild_card,2022.2.4,Win32,14.94343908,5ace11dc35eccf0001a115fe,64d2fd46c836a06233681665,64dc7cf843899dc768c493b8,,,,,,,decisionTrl,resources/DG.BMP,resources/DB.BMP,WildCard_NonEx,0.3046875,-0.00390625,1,0,0,1.7886,optionRight,55,1740,1,32,0,32,0,1,,,,,,,,,,,,,,,,,,,,,,,,,,,,,,,,,,,,,,,
,,,,,,,,2023-08-16_08h39.02.538,HF_wild_card,2022.2.4,Win32,14.94343908,5ace11dc35eccf0001a115fe,64d2fd46c836a06233681665,64dc7cf843899dc768c493b8,,,,,,,ctch,resources/DG.BMP,resources/DBN.BMP,Door4,0.325520833,0.01171875,1,0,0,1.102,optionRight,60,1800,1,33,0,33,0,1,,,,,,,,,,,,,,,,,,,,,,,,,,,,,,,,,,,,,,,
,,,,,,,,2023-08-16_08h39.02.538,HF_wild_card,2022.2.4,Win32,14.94343908,5ace11dc35eccf0001a115fe,64d2fd46c836a06233681665,64dc7cf843899dc768c493b8,,,,,,,decisionTrl,resources/DY.BMP,resources/DB.BMP,WildCard_NonEx,0.3671875,-0.006510417,1,0,0,1.988,optionRight,55,1855,1,34,0,34,0,1,,,,,,,,,,,,,,,,,,,,,,,,,,,,,,,,,,,,,,,
,,,,,,,,2023-08-16_08h39.02.538,HF_wild_card,2022.2.4,Win32,14.94343908,5ace11dc35eccf0001a115fe,64d2fd46c836a06233681665,64dc7cf843899dc768c493b8,,,,,,,ctch,resources/DBN.BMP,resources/DG.BMP,Door4,-0.360677083,-0.040364583,1,0,0,1.1868,optionLeft,60,1915,1,35,0,35,0,1,,,,,,,,,,,,,,,,,,,,,,,,,,,,,,,,,,,,,,,
,,,,,,,,2023-08-16_08h39.02.538,HF_wild_card,2022.2.4,Win32,14.94343908,5ace11dc35eccf0001a115fe,64d2fd46c836a06233681665,64dc7cf843899dc768c493b8,,,,,,,sngl,resources/DY.BMP,resources/Empty.png,Door3,-0.338541667,-0.036458333,1,0,0,0.9382,optionLeft,70,1985,1,36,0,36,0,1,,,,,,,,,,,,,,,,,,,,,,,,,,,,,,,,,,,,,,,
,,,,,,,,2023-08-16_08h39.02.538,HF_wild_card,2022.2.4,Win32,14.94343908,5ace11dc35eccf0001a115fe,64d2fd46c836a06233681665,64dc7cf843899dc768c493b8,,,,,,,decisionTrl,resources/DB.BMP,resources/DP.BMP,WildCard_NonEx,-0.290364583,-0.002604167,1,0,0,1.2787,optionLeft,45,2030,1,37,0,37,0,1,,,,,,,,,,,,,,,,,,,,,,,,,,,,,,,,,,,,,,,
,,,,,,,,2023-08-16_08h39.02.538,HF_wild_card,2022.2.4,Win32,14.94343908,5ace11dc35eccf0001a115fe,64d2fd46c836a06233681665,64dc7cf843899dc768c493b8,,,,,,,sngl,resources/Empty.png,resources/DB.BMP,WildCard_NonEx,0.32421875,-0.00390625,1,0,0,0.9454,optionRight,45,2075,1,38,0,38,0,1,,,,,,,,,,,,,,,,,,,,,,,,,,,,,,,,,,,,,,,
,,,,,,,,2023-08-16_08h39.02.538,HF_wild_card,2022.2.4,Win32,14.94343908,5ace11dc35eccf0001a115fe,64d2fd46c836a06233681665,64dc7cf843899dc768c493b8,,,,,,,decisionTrl,resources/DBN.BMP,resources/DY.BMP,Door4,-0.356770833,-0.013020833,1,0,0,0.9414,optionLeft,80,2155,1,39,0,39,0,1,,,,,,,,,,,,,,,,,,,,,,,,,,,,,,,,,,,,,,,
,,,,,,,,2023-08-16_08h39.02.538,HF_wild_card,2022.2.4,Win32,14.94343908,5ace11dc35eccf0001a115fe,64d2fd46c836a06233681665,64dc7cf843899dc768c493b8,,,,,,,decisionTrl,resources/DB.BMP,resources/DG.BMP,WildCard_NonEx,-0.404947917,-0.0390625,1,0,0,1.1892,optionLeft,45,2200,1,40,0,40,0,1,,,,,,,,,,,,,,,,,,,,,,,,,,,,,,,,,,,,,,,
,,,,,,,,2023-08-16_08h39.02.538,HF_wild_card,2022.2.4,Win32,14.94343908,5ace11dc35eccf0001a115fe,64d2fd46c836a06233681665,64dc7cf843899dc768c493b8,,,,,,,sngl,resources/Empty.png,resources/DB.BMP,WildCard_NonEx,0.341145833,-0.002604167,1,0,0,0.8622,optionRight,55,2255,1,41,0,41,0,1,,,,,,,,,,,,,,,,,,,,,,,,,,,,,,,,,,,,,,,
,,,,,,,,2023-08-16_08h39.02.538,HF_wild_card,2022.2.4,Win32,14.94343908,5ace11dc35eccf0001a115fe,64d2fd46c836a06233681665,64dc7cf843899dc768c493b8,,,,,,,decisionTrl,resources/DG.BMP,resources/DP.BMP,Door1,-0.231770833,0.014322917,1,0,0,1.3653,optionLeft,30,2285,1,42,0,42,0,1,,,,,,,,,,,,,,,,,,,,,,,,,,,,,,,,,,,,,,,
,,,,,,,,2023-08-16_08h39.02.538,HF_wild_card,2022.2.4,Win32,14.94343908,5ace11dc35eccf0001a115fe,64d2fd46c836a06233681665,64dc7cf843899dc768c493b8,,,,,,,ctch,resources/DY.BMP,resources/DP.BMP,Door3,-0.31640625,0.020833333,1,0,0,1.0212,optionLeft,70,2355,1,43,0,43,0,1,,,,,,,,,,,,,,,,,,,,,,,,,,,,,,,,,,,,,,,
,,,,,,,,2023-08-16_08h39.02.538,HF_wild_card,2022.2.4,Win32,14.94343908,5ace11dc35eccf0001a115fe,64d2fd46c836a06233681665,64dc7cf843899dc768c493b8,,,,,,,,,,,,,,,,,,,,,,,,,,0,0,0,0,1,,,,,,,,,,,,,,,,,,,,,,,,,,,,,,,,,,
,,,,,,,,2023-08-16_08h39.02.538,HF_wild_card,2022.2.4,Win32,14.94343908,5ace11dc35eccf0001a115fe,64d2fd46c836a06233681665,64dc7cf843899dc768c493b8,,,,,,,decisionTrl,resources/DY.BMP,resources/DBN.BMP,Door4,0.385416667,-0.018229167,1,0,0,1.1799,optionRight,80,2435,2,0,0,0,0,1,,,,,,,,,,,,,,,,,,,,,,,,,,,,,,,,,,,,,,,
,,,,,,,,2023-08-16_08h39.02.538,HF_wild_card,2022.2.4,Win32,14.94343908,5ace11dc35eccf0001a115fe,64d2fd46c836a06233681665,64dc7cf843899dc768c493b8,,,,,,,sngl,resources/DP.BMP,resources/Empty.png,Door2,-0.645833333,-0.07421875,1,0,0,0.9367,optionLeft,20,2455,2,1,0,1,0,1,,,,,,,,,,,,,,,,,,,,,,,,,,,,,,,,,,,,,,,
,,,,,,,,2023-08-16_08h39.02.538,HF_wild_card,2022.2.4,Win32,14.94343908,5ace11dc35eccf0001a115fe,64d2fd46c836a06233681665,64dc7cf843899dc768c493b8,,,,,,,decisionTrl,resources/DB.BMP,resources/DG.BMP,WildCard_NonEx,-0.30859375,-0.013020833,1,0,0,1.1251,optionLeft,55,2510,2,2,0,2,0,1,,,,,,,,,,,,,,,,,,,,,,,,,,,,,,,,,,,,,,,
,,,,,,,,2023-08-16_08h39.02.538,HF_wild_card,2022.2.4,Win32,14.94343908,5ace11dc35eccf0001a115fe,64d2fd46c836a06233681665,64dc7cf843899dc768c493b8,,,,,,,decisionTrl,resources/DBN.BMP,resources/DY.BMP,Door4,-0.3515625,-0.0234375,1,0,0,0.8456,optionLeft,60,2570,2,3,0,3,0,1,,,,,,,,,,,,,,,,,,,,,,,,,,,,,,,,,,,,,,,
,,,,,,,,2023-08-16_08h39.02.538,HF_wild_card,2022.2.4,Win32,14.94343908,5ace11dc35eccf0001a115fe,64d2fd46c836a06233681665,64dc7cf843899dc768c493b8,,,,,,,ctch,resources/DY.BMP,resources/DP.BMP,Door3,-0.342447917,-0.0234375,1,0,0,1.7113,optionLeft,70,2640,2,4,0,4,0,1,,,,,,,,,,,,,,,,,,,,,,,,,,,,,,,,,,,,,,,
,,,,,,,,2023-08-16_08h39.02.538,HF_wild_card,2022.2.4,Win32,14.94343908,5ace11dc35eccf0001a115fe,64d2fd46c836a06233681665,64dc7cf843899dc768c493b8,,,,,,,decisionTrl,resources/DG.BMP,resources/DB.BMP,WildCard_NonEx,0.307291667,0.024739583,1,0,0,1.3107,optionRight,55,2695,2,5,0,5,0,1,,,,,,,,,,,,,,,,,,,,,,,,,,,,,,,,,,,,,,,
,,,,,,,,2023-08-16_08h39.02.538,HF_wild_card,2022.2.4,Win32,14.94343908,5ace11dc35eccf0001a115fe,64d2fd46c836a06233681665,64dc7cf843899dc768c493b8,,,,,,,decisionTrl,resources/DP.BMP,resources/DG.BMP,Door1,0.30078125,-0.010416667,1,0,0,1.5596,optionRight,30,2725,2,6,0,6,0,1,,,,,,,,,,,,,,,,,,,,,,,,,,,,,,,,,,,,,,,
,,,,,,,,2023-08-16_08h39.02.538,HF_wild_card,2022.2.4,Win32,14.94343908,5ace11dc35eccf0001a115fe,64d2fd46c836a06233681665,64dc7cf843899dc768c493b8,,,,,,,decisionTrl,resources/DP.BMP,resources/DB.BMP,WildCard_NonEx,0.26171875,-0.006510417,1,0,0,1.1295,optionRight,55,2780,2,7,0,7,0,1,,,,,,,,,,,,,,,,,,,,,,,,,,,,,,,,,,,,,,,
,,,,,,,,2023-08-16_08h39.02.538,HF_wild_card,2022.2.4,Win32,14.94343908,5ace11dc35eccf0001a115fe,64d2fd46c836a06233681665,64dc7cf843899dc768c493b8,,,,,,,sngl,resources/Empty.png,resources/DG.BMP,Door1,0.299479167,-0.0078125,1,0,0,1.0875,optionRight,30,2810,2,8,0,8,0,1,,,,,,,,,,,,,,,,,,,,,,,,,,,,,,,,,,,,,,,
,,,,,,,,2023-08-16_08h39.02.538,HF_wild_card,2022.2.4,Win32,14.94343908,5ace11dc35eccf0001a115fe,64d2fd46c836a06233681665,64dc7cf843899dc768c493b8,,,,,,,decisionTrl,resources/DP.BMP,resources/DG.BMP,Door2,-0.415364583,-0.048177083,1,0,0,0.8484,optionLeft,40,2850,2,9,0,9,0,1,,,,,,,,,,,,,,,,,,,,,,,,,,,,,,,,,,,,,,,
,,,,,,,,2023-08-16_08h39.02.538,HF_wild_card,2022.2.4,Win32,14.94343908,5ace11dc35eccf0001a115fe,64d2fd46c836a06233681665,64dc7cf843899dc768c493b8,,,,,,,decisionTrl,resources/DG.BMP,resources/DP.BMP,Door1,-0.341145833,-0.029947917,1,0,0,1.1125,optionLeft,30,2880,2,10,0,10,0,1,,,,,,,,,,,,,,,,,,,,,,,,,,,,,,,,,,,,,,,
,,,,,,,,2023-08-16_08h39.02.538,HF_wild_card,2022.2.4,Win32,14.94343908,5ace11dc35eccf0001a115fe,64d2fd46c836a06233681665,64dc7cf843899dc768c493b8,,,,,,,decisionTrl,resources/DG.BMP,resources/DP.BMP,Door2,0.3828125,0.010416667,1,0,0,1.1235,optionRight,40,2920,2,11,0,11,0,1,,,,,,,,,,,,,,,,,,,,,,,,,,,,,,,,,,,,,,,
,,,,,,,,2023-08-16_08h39.02.538,HF_wild_card,2022.2.4,Win32,14.94343908,5ace11dc35eccf0001a115fe,64d2fd46c836a06233681665,64dc7cf843899dc768c493b8,,,,,,,ctch,resources/DY.BMP,resources/DP.BMP,Door3,-0.295572917,0.006510417,1,0,0,1.0569,optionLeft,70,2990,2,12,0,12,0,1,,,,,,,,,,,,,,,,,,,,,,,,,,,,,,,,,,,,,,,
,,,,,,,,2023-08-16_08h39.02.538,HF_wild_card,2022.2.4,Win32,14.94343908,5ace11dc35eccf0001a115fe,64d2fd46c836a06233681665,64dc7cf843899dc768c493b8,,,,,,,decisionTrl,resources/DG.BMP,resources/DP.BMP,Door1,-0.251302083,-0.0078125,1,0,0,1.607,optionLeft,30,3020,2,13,0,13,0,1,,,,,,,,,,,,,,,,,,,,,,,,,,,,,,,,,,,,,,,
,,,,,,,,2023-08-16_08h39.02.538,HF_wild_card,2022.2.4,Win32,14.94343908,5ace11dc35eccf0001a115fe,64d2fd46c836a06233681665,64dc7cf843899dc768c493b8,,,,,,,decisionTrl,resources/DY.BMP,resources/DBN.BMP,Door4,0.389322917,0.041666667,1,0,0,1.2654,optionRight,80,3100,2,14,0,14,0,1,,,,,,,,,,,,,,,,,,,,,,,,,,,,,,,,,,,,,,,
,,,,,,,,2023-08-16_08h39.02.538,HF_wild_card,2022.2.4,Win32,14.94343908,5ace11dc35eccf0001a115fe,64d2fd46c836a06233681665,64dc7cf843899dc768c493b8,,,,,,,decisionTrl,resources/DG.BMP,resources/DP.BMP,Door1,-0.32421875,0.033854167,1,0,0,1.3414,optionLeft,30,3130,2,15,0,15,0,1,,,,,,,,,,,,,,,,,,,,,,,,,,,,,,,,,,,,,,,
,,,,,,,,2023-08-16_08h39.02.538,HF_wild_card,2022.2.4,Win32,14.94343908,5ace11dc35eccf0001a115fe,64d2fd46c836a06233681665,64dc7cf843899dc768c493b8,,,,,,,decisionTrl,resources/DP.BMP,resources/DG.BMP,Door2,-0.322916667,-0.05078125,1,0,0,0.6787,optionLeft,40,3170,2,16,0,16,0,1,,,,,,,,,,,,,,,,,,,,,,,,,,,,,,,,,,,,,,,
,,,,,,,,2023-08-16_08h39.02.538,HF_wild_card,2022.2.4,Win32,14.94343908,5ace11dc35eccf0001a115fe,64d2fd46c836a06233681665,64dc7cf843899dc768c493b8,,,,,,,decisionTrl,resources/DY.BMP,resources/DBN.BMP,Door4,0.365885417,-0.0078125,1,0,0,1.0858,optionRight,80,3250,2,17,0,17,0,1,,,,,,,,,,,,,,,,,,,,,,,,,,,,,,,,,,,,,,,
,,,,,,,,2023-08-16_08h39.02.538,HF_wild_card,2022.2.4,Win32,14.94343908,5ace11dc35eccf0001a115fe,64d2fd46c836a06233681665,64dc7cf843899dc768c493b8,,,,,,,ctch,resources/DP.BMP,resources/DY.BMP,Door3,0.283854167,-0.01171875,1,0,0,1.1772,optionRight,70,3320,2,18,0,18,0,1,,,,,,,,,,,,,,,,,,,,,,,,,,,,,,,,,,,,,,,
,,,,,,,,2023-08-16_08h39.02.538,HF_wild_card,2022.2.4,Win32,14.94343908,5ace11dc35eccf0001a115fe,64d2fd46c836a06233681665,64dc7cf843899dc768c493b8,,,,,,,ctch,resources/DG.BMP,resources/DBN.BMP,Door4,0.2890625,0.005208333,1,0,0,1.1646,optionRight,80,3400,2,19,0,19,0,1,,,,,,,,,,,,,,,,,,,,,,,,,,,,,,,,,,,,,,,
,,,,,,,,2023-08-16_08h39.02.538,HF_wild_card,2022.2.4,Win32,14.94343908,5ace11dc35eccf0001a115fe,64d2fd46c836a06233681665,64dc7cf843899dc768c493b8,,,,,,,decisionTrl,resources/DBN.BMP,resources/DY.BMP,Door4,-0.270833333,-0.002604167,1,0,0,1.1701,optionLeft,80,3480,2,20,0,20,0,1,,,,,,,,,,,,,,,,,,,,,,,,,,,,,,,,,,,,,,,
,,,,,,,,2023-08-16_08h39.02.538,HF_wild_card,2022.2.4,Win32,14.94343908,5ace11dc35eccf0001a115fe,64d2fd46c836a06233681665,64dc7cf843899dc768c493b8,,,,,,,sngl,resources/Empty.png,resources/DBN.BMP,Door4,0.3046875,0.013020833,1,0,0,0.7719,optionRight,80,3560,2,21,0,21,0,1,,,,,,,,,,,,,,,,,,,,,,,,,,,,,,,,,,,,,,,
,,,,,,,,2023-08-16_08h39.02.538,HF_wild_card,2022.2.4,Win32,14.94343908,5ace11dc35eccf0001a115fe,64d2fd46c836a06233681665,64dc7cf843899dc768c493b8,,,,,,,ctch,resources/DP.BMP,resources/DY.BMP,Door3,0.25390625,0.001302083,1,0,0,1.0937,optionRight,70,3630,2,22,0,22,0,1,,,,,,,,,,,,,,,,,,,,,,,,,,,,,,,,,,,,,,,
,,,,,,,,2023-08-16_08h39.02.538,HF_wild_card,2022.2.4,Win32,14.94343908,5ace11dc35eccf0001a115fe,64d2fd46c836a06233681665,64dc7cf843899dc768c493b8,,,,,,,sngl,resources/DBN.BMP,resources/Empty.png,Door4,-0.39453125,0.006510417,1,0,0,0.782,optionLeft,60,3690,2,23,0,23,0,1,,,,,,,,,,,,,,,,,,,,,,,,,,,,,,,,,,,,,,,
,,,,,,,,2023-08-16_08h39.02.538,HF_wild_card,2022.2.4,Win32,14.94343908,5ace11dc35eccf0001a115fe,64d2fd46c836a06233681665,64dc7cf843899dc768c493b8,,,,,,,ctch,resources/DG.BMP,resources/DBN.BMP,Door4,0.317708333,-0.013020833,1,0,0,1.1778,optionRight,80,3770,2,24,0,24,0,1,,,,,,,,,,,,,,,,,,,,,,,,,,,,,,,,,,,,,,,
,,,,,,,,2023-08-16_08h39.02.538,HF_wild_card,2022.2.4,Win32,14.94343908,5ace11dc35eccf0001a115fe,64d2fd46c836a06233681665,64dc7cf843899dc768c493b8,,,,,,,sngl,resources/DY.BMP,resources/Empty.png,Door3,-0.334635417,0.001302083,1,0,0,0.8447,optionLeft,70,3840,2,25,0,25,0,1,,,,,,,,,,,,,,,,,,,,,,,,,,,,,,,,,,,,,,,
,,,,,,,,2023-08-16_08h39.02.538,HF_wild_card,2022.2.4,Win32,14.94343908,5ace11dc35eccf0001a115fe,64d2fd46c836a06233681665,64dc7cf843899dc768c493b8,,,,,,,decisionTrl,resources/DB.BMP,resources/DBN.BMP,Door4,0.309895833,0.016927083,1,0,0,0.921,optionRight,60,3900,2,26,0,26,0,1,,,,,,,,,,,,,,,,,,,,,,,,,,,,,,,,,,,,,,,
,,,,,,,,2023-08-16_08h39.02.538,HF_wild_card,2022.2.4,Win32,14.94343908,5ace11dc35eccf0001a115fe,64d2fd46c836a06233681665,64dc7cf843899dc768c493b8,,,,,,,sngl,resources/Empty.png,resources/DY.BMP,Door3,0.2109375,0.04296875,1,0,0,1.07,optionRight,70,3970,2,27,0,27,0,1,,,,,,,,,,,,,,,,,,,,,,,,,,,,,,,,,,,,,,,
,,,,,,,,2023-08-16_08h39.02.538,HF_wild_card,2022.2.4,Win32,14.94343908,5ace11dc35eccf0001a115fe,64d2fd46c836a06233681665,64dc7cf843899dc768c493b8,,,,,,,decisionTrl,resources/DBN.BMP,resources/DY.BMP,Door4,-0.334635417,-0.022135417,1,0,0,1.0886,optionLeft,80,4050,2,28,0,28,0,1,,,,,,,,,,,,,,,,,,,,,,,,,,,,,,,,,,,,,,,
,,,,,,,,2023-08-16_08h39.02.538,HF_wild_card,2022.2.4,Win32,14.94343908,5ace11dc35eccf0001a115fe,64d2fd46c836a06233681665,64dc7cf843899dc768c493b8,,,,,,,decisionTrl,resources/DP.BMP,resources/DG.BMP,Door1,0.3359375,0.01171875,1,0,0,1.2653,optionRight,30,4080,2,29,0,29,0,1,,,,,,,,,,,,,,,,,,,,,,,,,,,,,,,,,,,,,,,
,,,,,,,,2023-08-16_08h39.02.538,HF_wild_card,2022.2.4,Win32,14.94343908,5ace11dc35eccf0001a115fe,64d2fd46c836a06233681665,64dc7cf843899dc768c493b8,,,,,,,decisionTrl,resources/DY.BMP,resources/DB.BMP,Door3,-0.37890625,-0.045572917,1,0,0,1.4335,optionLeft,70,4150,2,30,0,30,0,1,,,,,,,,,,,,,,,,,,,,,,,,,,,,,,,,,,,,,,,
,,,,,,,,2023-08-16_08h39.02.538,HF_wild_card,2022.2.4,Win32,14.94343908,5ace11dc35eccf0001a115fe,64d2fd46c836a06233681665,64dc7cf843899dc768c493b8,,,,,,,decisionTrl,resources/DB.BMP,resources/DY.BMP,Door3,0.256510417,0.053385417,1,0,0,1.1126,optionRight,70,4220,2,31,0,31,0,1,,,,,,,,,,,,,,,,,,,,,,,,,,,,,,,,,,,,,,,
,,,,,,,,2023-08-16_08h39.02.538,HF_wild_card,2022.2.4,Win32,14.94343908,5ace11dc35eccf0001a115fe,64d2fd46c836a06233681665,64dc7cf843899dc768c493b8,,,,,,,sngl,resources/Empty.png,resources/DB.BMP,WildCard_NonEx,0.3046875,0.022135417,1,0,0,0.8423,optionRight,45,4265,2,32,0,32,0,1,,,,,,,,,,,,,,,,,,,,,,,,,,,,,,,,,,,,,,,
,,,,,,,,2023-08-16_08h39.02.538,HF_wild_card,2022.2.4,Win32,14.94343908,5ace11dc35eccf0001a115fe,64d2fd46c836a06233681665,64dc7cf843899dc768c493b8,,,,,,,sngl,resources/DB.BMP,resources/Empty.png,WildCard_NonEx,-0.31640625,-0.00390625,1,0,0,0.7692,optionLeft,55,4320,2,33,0,33,0,1,,,,,,,,,,,,,,,,,,,,,,,,,,,,,,,,,,,,,,,
,,,,,,,,2023-08-16_08h39.02.538,HF_wild_card,2022.2.4,Win32,14.94343908,5ace11dc35eccf0001a115fe,64d2fd46c836a06233681665,64dc7cf843899dc768c493b8,,,,,,,sngl,resources/Empty.png,resources/DB.BMP,WildCard_NonEx,0.291666667,0.010416667,1,0,0,0.7646,optionRight,55,4375,2,34,0,34,0,1,,,,,,,,,,,,,,,,,,,,,,,,,,,,,,,,,,,,,,,
,,,,,,,,2023-08-16_08h39.02.538,HF_wild_card,2022.2.4,Win32,14.94343908,5ace11dc35eccf0001a115fe,64d2fd46c836a06233681665,64dc7cf843899dc768c493b8,,,,,,,decisionTrl,resources/DBN.BMP,resources/DY.BMP,Door4,-0.330729167,0.029947917,1,0,0,1.1723,optionLeft,80,4455,2,35,0,35,0,1,,,,,,,,,,,,,,,,,,,,,,,,,,,,,,,,,,,,,,,
,,,,,,,,2023-08-16_08h39.02.538,HF_wild_card,2022.2.4,Win32,14.94343908,5ace11dc35eccf0001a115fe,64d2fd46c836a06233681665,64dc7cf843899dc768c493b8,,,,,,,sngl,resources/Empty.png,resources/DP.BMP,Door2,0.328125,-0.0078125,1,0,0,0.9118,optionRight,40,4495,2,36,0,36,0,1,,,,,,,,,,,,,,,,,,,,,,,,,,,,,,,,,,,,,,,
,,,,,,,,2023-08-16_08h39.02.538,HF_wild_card,2022.2.4,Win32,14.94343908,5ace11dc35eccf0001a115fe,64d2fd46c836a06233681665,64dc7cf843899dc768c493b8,,,,,,,decisionTrl,resources/DB.BMP,resources/DP.BMP,WildCard_NonEx,-0.291666667,-0.005208333,1,0,0,0.9305,optionLeft,45,4540,2,37,0,37,0,1,,,,,,,,,,,,,,,,,,,,,,,,,,,,,,,,,,,,,,,
,,,,,,,,2023-08-16_08h39.02.538,HF_wild_card,2022.2.4,Win32,14.94343908,5ace11dc35eccf0001a115fe,64d2fd46c836a06233681665,64dc7cf843899dc768c493b8,,,,,,,sngl,resources/DG.BMP,resources/Empty.png,Door1,-0.296875,-0.033854167,1,0,0,0.7612,optionLeft,30,4570,2,38,0,38,0,1,,,,,,,,,,,,,,,,,,,,,,,,,,,,,,,,,,,,,,,
,,,,,,,,2023-08-16_08h39.02.538,HF_wild_card,2022.2.4,Win32,14.94343908,5ace11dc35eccf0001a115fe,64d2fd46c836a06233681665,64dc7cf843899dc768c493b8,,,,,,,sngl,resources/DB.BMP,resources/Empty.png,WildCard_NonEx,-0.259114583,-0.03515625,1,0,0,0.7624,optionLeft,45,4615,2,39,0,39,0,1,,,,,,,,,,,,,,,,,,,,,,,,,,,,,,,,,,,,,,,
,,,,,,,,2023-08-16_08h39.02.538,HF_wild_card,2022.2.4,Win32,14.94343908,5ace11dc35eccf0001a115fe,64d2fd46c836a06233681665,64dc7cf843899dc768c493b8,,,,,,,ctch,resources/DBN.BMP,resources/DG.BMP,Door4,-0.348958333,0.018229167,1,0,0,2.1738,optionLeft,60,4675,2,40,0,40,0,1,,,,,,,,,,,,,,,,,,,,,,,,,,,,,,,,,,,,,,,
,,,,,,,,2023-08-16_08h39.02.538,HF_wild_card,2022.2.4,Win32,14.94343908,5ace11dc35eccf0001a115fe,64d2fd46c836a06233681665,64dc7cf843899dc768c493b8,,,,,,,decisionTrl,resources/DY.BMP,resources/DBN.BMP,Door4,0.307291667,0.032552083,1,0,0,0.8575,optionRight,80,4755,2,41,0,41,0,1,,,,,,,,,,,,,,,,,,,,,,,,,,,,,,,,,,,,,,,
,,,,,,,,2023-08-16_08h39.02.538,HF_wild_card,2022.2.4,Win32,14.94343908,5ace11dc35eccf0001a115fe,64d2fd46c836a06233681665,64dc7cf843899dc768c493b8,,,,,,,decisionTrl,resources/DBN.BMP,resources/DB.BMP,Door4,-0.319010417,-0.024739583,1,0,0,1.0844,optionLeft,60,4815,2,42,0,42,0,1,,,,,,,,,,,,,,,,,,,,,,,,,,,,,,,,,,,,,,,
,,,,,,,,2023-08-16_08h39.02.538,HF_wild_card,2022.2.4,Win32,14.94343908,5ace11dc35eccf0001a115fe,64d2fd46c836a06233681665,64dc7cf843899dc768c493b8,,,,,,,ctch,resources/DBN.BMP,resources/DG.BMP,Door4,-0.423177083,-0.014322917,1,0,0,1.0984,optionLeft,60,4875,2,43,0,43,0,1,,,,,,,,,,,,,,,,,,,,,,,,,,,,,,,,,,,,,,,
,,,,,,,,2023-08-16_08h39.02.538,HF_wild_card,2022.2.4,Win32,14.94343908,5ace11dc35eccf0001a115fe,64d2fd46c836a06233681665,64dc7cf843899dc768c493b8,,,,,,,,,,,,,,,,,,,,,,,,,,1,0,1,0,1,,,,,,,,,,,,,,,,,,,,,,,,,,,,,,,,,,
,,,,,,,,2023-08-16_08h39.02.538,HF_wild_card,2022.2.4,Win32,14.94343908,5ace11dc35eccf0001a115fe,64d2fd46c836a06233681665,64dc7cf843899dc768c493b8,,,,,,,decisionTrl,resources/DY.BMP,resources/DBN.BMP,Door4,0.544270833,-0.014322917,1,0,0,1.1697,optionRight,80,4955,3,0,0,0,0,1,,,,,,,,,,,,,,,,,,,,,,,,,,,,,,,,,,,,,,,
,,,,,,,,2023-08-16_08h39.02.538,HF_wild_card,2022.2.4,Win32,14.94343908,5ace11dc35eccf0001a115fe,64d2fd46c836a06233681665,64dc7cf843899dc768c493b8,,,,,,,decisionTrl,resources/DG.BMP,resources/DB.BMP,WildCard_NonEx,0.3359375,0.020833333,1,0,0,1.8448,optionRight,45,5000,3,1,0,1,0,1,,,,,,,,,,,,,,,,,,,,,,,,,,,,,,,,,,,,,,,
,,,,,,,,2023-08-16_08h39.02.538,HF_wild_card,2022.2.4,Win32,14.94343908,5ace11dc35eccf0001a115fe,64d2fd46c836a06233681665,64dc7cf843899dc768c493b8,,,,,,,decisionTrl,resources/DG.BMP,resources/DP.BMP,Door1,-0.46875,-0.071614583,1,0,0,1.3695,optionLeft,30,5030,3,2,0,2,0,1,,,,,,,,,,,,,,,,,,,,,,,,,,,,,,,,,,,,,,,
,,,,,,,,2023-08-16_08h39.02.538,HF_wild_card,2022.2.4,Win32,14.94343908,5ace11dc35eccf0001a115fe,64d2fd46c836a06233681665,64dc7cf843899dc768c493b8,,,,,,,decisionTrl,resources/DBN.BMP,resources/DY.BMP,Door4,-0.341145833,-0.01171875,1,0,0,0.8354,optionLeft,80,5110,3,3,0,3,0,1,,,,,,,,,,,,,,,,,,,,,,,,,,,,,,,,,,,,,,,
,,,,,,,,2023-08-16_08h39.02.538,HF_wild_card,2022.2.4,Win32,14.94343908,5ace11dc35eccf0001a115fe,64d2fd46c836a06233681665,64dc7cf843899dc768c493b8,,,,,,,sngl,resources/Empty.png,resources/DP.BMP,Door2,0.33984375,0.048177083,1,0,0,1.0748,optionRight,20,5130,3,4,0,4,0,1,,,,,,,,,,,,,,,,,,,,,,,,,,,,,,,,,,,,,,,
,,,,,,,,2023-08-16_08h39.02.538,HF_wild_card,2022.2.4,Win32,14.94343908,5ace11dc35eccf0001a115fe,64d2fd46c836a06233681665,64dc7cf843899dc768c493b8,,,,,,,decisionTrl,resources/DB.BMP,resources/DY.BMP,Door3,0.338541667,0.08984375,1,0,0,1.2509,optionRight,70,5200,3,5,0,5,0,1,,,,,,,,,,,,,,,,,,,,,,,,,,,,,,,,,,,,,,,
,,,,,,,,2023-08-16_08h39.02.538,HF_wild_card,2022.2.4,Win32,14.94343908,5ace11dc35eccf0001a115fe,64d2fd46c836a06233681665,64dc7cf843899dc768c493b8,,,,,,,decisionTrl,resources/DB.BMP,resources/DBN.BMP,Door4,0.307291667,0.022135417,1,0,0,1.2682,optionRight,80,5280,3,6,0,6,0,1,,,,,,,,,,,,,,,,,,,,,,,,,,,,,,,,,,,,,,,
,,,,,,,,2023-08-16_08h39.02.538,HF_wild_card,2022.2.4,Win32,14.94343908,5ace11dc35eccf0001a115fe,64d2fd46c836a06233681665,64dc7cf843899dc768c493b8,,,,,,,sngl,resources/Empty.png,resources/DG.BMP,Door1,0.325520833,0.015625,1,0,0,0.9155,optionRight,30,5310,3,7,0,7,0,1,,,,,,,,,,,,,,,,,,,,,,,,,,,,,,,,,,,,,,,
,,,,,,,,2023-08-16_08h39.02.538,HF_wild_card,2022.2.4,Win32,14.94343908,5ace11dc35eccf0001a115fe,64d2fd46c836a06233681665,64dc7cf843899dc768c493b8,,,,,,,ctch,resources/DBN.BMP,resources/DG.BMP,Door4,-0.180989583,-0.01171875,1,0,0,1.0089,optionLeft,60,5370,3,8,0,8,0,1,,,,,,,,,,,,,,,,,,,,,,,,,,,,,,,,,,,,,,,
,,,,,,,,2023-08-16_08h39.02.538,HF_wild_card,2022.2.4,Win32,14.94343908,5ace11dc35eccf0001a115fe,64d2fd46c836a06233681665,64dc7cf843899dc768c493b8,,,,,,,sngl,resources/Empty.png,resources/DB.BMP,WildCard_NonEx,0.283854167,0.037760417,1,0,0,0.7676,optionRight,55,5425,3,9,0,9,0,1,,,,,,,,,,,,,,,,,,,,,,,,,,,,,,,,,,,,,,,
,,,,,,,,2023-08-16_08h39.02.538,HF_wild_card,2022.2.4,Win32,14.94343908,5ace11dc35eccf0001a115fe,64d2fd46c836a06233681665,64dc7cf843899dc768c493b8,,,,,,,decisionTrl,resources/DY.BMP,resources/DBN.BMP,Door4,0.419270833,0.026041667,1,0,0,1.1751,optionRight,80,5505,3,10,0,10,0,1,,,,,,,,,,,,,,,,,,,,,,,,,,,,,,,,,,,,,,,
,,,,,,,,2023-08-16_08h39.02.538,HF_wild_card,2022.2.4,Win32,14.94343908,5ace11dc35eccf0001a115fe,64d2fd46c836a06233681665,64dc7cf843899dc768c493b8,,,,,,,decisionTrl,resources/DG.BMP,resources/DP.BMP,Door2,0.252604167,-0.0078125,1,0,0,2.0082,optionRight,40,5545,3,11,0,11,0,1,,,,,,,,,,,,,,,,,,,,,,,,,,,,,,,,,,,,,,,
,,,,,,,,2023-08-16_08h39.02.538,HF_wild_card,2022.2.4,Win32,14.94343908,5ace11dc35eccf0001a115fe,64d2fd46c836a06233681665,64dc7cf843899dc768c493b8,,,,,,,decisionTrl,resources/DY.BMP,resources/DBN.BMP,Door4,0.329427083,0.010416667,1,0,0,1.0009,optionRight,80,5625,3,12,0,12,0,1,,,,,,,,,,,,,,,,,,,,,,,,,,,,,,,,,,,,,,,
,,,,,,,,2023-08-16_08h39.02.538,HF_wild_card,2022.2.4,Win32,14.94343908,5ace11dc35eccf0001a115fe,64d2fd46c836a06233681665,64dc7cf843899dc768c493b8,,,,,,,decisionTrl,resources/DB.BMP,resources/DG.BMP,WildCard_NonEx,-0.220052083,-0.020833333,1,0,0,1.8617,optionLeft,55,5680,3,13,0,13,0,1,,,,,,,,,,,,,,,,,,,,,,,,,,,,,,,,,,,,,,,
,,,,,,,,2023-08-16_08h39.02.538,HF_wild_card,2022.2.4,Win32,14.94343908,5ace11dc35eccf0001a115fe,64d2fd46c836a06233681665,64dc7cf843899dc768c493b8,,,,,,,ctch,resources/DG.BMP,resources/DBN.BMP,Door4,0.3203125,0.014322917,1,0,0,1.0009,optionRight,60,5740,3,14,0,14,0,1,,,,,,,,,,,,,,,,,,,,,,,,,,,,,,,,,,,,,,,
,,,,,,,,2023-08-16_08h39.02.538,HF_wild_card,2022.2.4,Win32,14.94343908,5ace11dc35eccf0001a115fe,64d2fd46c836a06233681665,64dc7cf843899dc768c493b8,,,,,,,decisionTrl,resources/DY.BMP,resources/DBN.BMP,Door4,0.177083333,0,1,0,0,1.3499,optionRight,60,5800,3,15,0,15,0,1,,,,,,,,,,,,,,,,,,,,,,,,,,,,,,,,,,,,,,,
,,,,,,,,2023-08-16_08h39.02.538,HF_wild_card,2022.2.4,Win32,14.94343908,5ace11dc35eccf0001a115fe,64d2fd46c836a06233681665,64dc7cf843899dc768c493b8,,,,,,,decisionTrl,resources/DP.BMP,resources/DG.BMP,Door1,0.286458333,0.018229167,1,0,0,1.7493,optionRight,30,5830,3,16,0,16,0,1,,,,,,,,,,,,,,,,,,,,,,,,,,,,,,,,,,,,,,,
,,,,,,,,2023-08-16_08h39.02.538,HF_wild_card,2022.2.4,Win32,14.94343908,5ace11dc35eccf0001a115fe,64d2fd46c836a06233681665,64dc7cf843899dc768c493b8,,,,,,,decisionTrl,resources/DP.BMP,resources/DB.BMP,WildCard_NonEx,0.240885417,-0.006510417,1,0,0,1.2625,optionRight,55,5885,3,17,0,17,0,1,,,,,,,,,,,,,,,,,,,,,,,,,,,,,,,,,,,,,,,
,,,,,,,,2023-08-16_08h39.02.538,HF_wild_card,2022.2.4,Win32,14.94343908,5ace11dc35eccf0001a115fe,64d2fd46c836a06233681665,64dc7cf843899dc768c493b8,,,,,,,decisionTrl,resources/DBN.BMP,resources/DY.BMP,Door4,-0.30078125,-0.022135417,1,0,0,0.8422,optionLeft,80,5965,3,18,0,18,0,1,,,,,,,,,,,,,,,,,,,,,,,,,,,,,,,,,,,,,,,
,,,,,,,,2023-08-16_08h39.02.538,HF_wild_card,2022.2.4,Win32,14.94343908,5ace11dc35eccf0001a115fe,64d2fd46c836a06233681665,64dc7cf843899dc768c493b8,,,,,,,ctch,resources/DY.BMP,resources/DP.BMP,Door3,-0.30859375,-0.024739583,1,0,0,1.5991,optionLeft,70,6035,3,19,0,19,0,1,,,,,,,,,,,,,,,,,,,,,,,,,,,,,,,,,,,,,,,
,,,,,,,,2023-08-16_08h39.02.538,HF_wild_card,2022.2.4,Win32,14.94343908,5ace11dc35eccf0001a115fe,64d2fd46c836a06233681665,64dc7cf843899dc768c493b8,,,,,,,decisionTrl,resources/DBN.BMP,resources/DY.BMP,Door4,-0.266927083,0.00390625,1,0,0,1.1767,optionLeft,80,6115,3,20,0,20,0,1,,,,,,,,,,,,,,,,,,,,,,,,,,,,,,,,,,,,,,,
,,,,,,,,2023-08-16_08h39.02.538,HF_wild_card,2022.2.4,Win32,14.94343908,5ace11dc35eccf0001a115fe,64d2fd46c836a06233681665,64dc7cf843899dc768c493b8,,,,,,,sngl,resources/DP.BMP,resources/Empty.png,Door2,-0.37890625,-0.06640625,1,0,0,0.7605,optionLeft,40,6155,3,21,0,21,0,1,,,,,,,,,,,,,,,,,,,,,,,,,,,,,,,,,,,,,,,
,,,,,,,,2023-08-16_08h39.02.538,HF_wild_card,2022.2.4,Win32,14.94343908,5ace11dc35eccf0001a115fe,64d2fd46c836a06233681665,64dc7cf843899dc768c493b8,,,,,,,decisionTrl,resources/DP.BMP,resources/DG.BMP,Door2,-0.454427083,-0.0390625,1,0,0,1.341,optionLeft,40,6195,3,22,0,22,0,1,,,,,,,,,,,,,,,,,,,,,,,,,,,,,,,,,,,,,,,
,,,,,,,,2023-08-16_08h39.02.538,HF_wild_card,2022.2.4,Win32,14.94343908,5ace11dc35eccf0001a115fe,64d2fd46c836a06233681665,64dc7cf843899dc768c493b8,,,,,,,sngl,resources/DBN.BMP,resources/Empty.png,Door4,-0.33203125,0.015625,1,0,0,0.7621,optionLeft,80,6275,3,23,0,23,0,1,,,,,,,,,,,,,,,,,,,,,,,,,,,,,,,,,,,,,,,
,,,,,,,,2023-08-16_08h39.02.538,HF_wild_card,2022.2.4,Win32,14.94343908,5ace11dc35eccf0001a115fe,64d2fd46c836a06233681665,64dc7cf843899dc768c493b8,,,,,,,ctch,resources/DG.BMP,resources/DBN.BMP,Door4,0.311197917,0.072916667,1,0,0,0.922,optionRight,60,6335,3,24,0,24,0,1,,,,,,,,,,,,,,,,,,,,,,,,,,,,,,,,,,,,,,,
,,,,,,,,2023-08-16_08h39.02.538,HF_wild_card,2022.2.4,Win32,14.94343908,5ace11dc35eccf0001a115fe,64d2fd46c836a06233681665,64dc7cf843899dc768c493b8,,,,,,,decisionTrl,resources/DG.BMP,resources/DP.BMP,Door2,0.37109375,-0.0078125,1,0,0,1.8482,optionRight,40,6375,3,25,0,25,0,1,,,,,,,,,,,,,,,,,,,,,,,,,,,,,,,,,,,,,,,
,,,,,,,,2023-08-16_08h39.02.538,HF_wild_card,2022.2.4,Win32,14.94343908,5ace11dc35eccf0001a115fe,64d2fd46c836a06233681665,64dc7cf843899dc768c493b8,,,,,,,ctch,resources/DY.BMP,resources/DP.BMP,Door3,-0.236979167,-0.018229167,1,0,0,1.357,optionLeft,70,6445,3,26,0,26,0,1,,,,,,,,,,,,,,,,,,,,,,,,,,,,,,,,,,,,,,,
,,,,,,,,2023-08-16_08h39.02.538,HF_wild_card,2022.2.4,Win32,14.94343908,5ace11dc35eccf0001a115fe,64d2fd46c836a06233681665,64dc7cf843899dc768c493b8,,,,,,,decisionTrl,resources/DG.BMP,resources/DP.BMP,Door2,0.231770833,0.001302083,1,0,0,1.0865,optionRight,40,6485,3,27,0,27,0,1,,,,,,,,,,,,,,,,,,,,,,,,,,,,,,,,,,,,,,,
,,,,,,,,2023-08-16_08h39.02.538,HF_wild_card,2022.2.4,Win32,14.94343908,5ace11dc35eccf0001a115fe,64d2fd46c836a06233681665,64dc7cf843899dc768c493b8,,,,,,,decisionTrl,resources/DBN.BMP,resources/DB.BMP,Door4,-0.256510417,0.009114583,1,0,0,0.8392,optionLeft,80,6565,3,28,0,28,0,1,,,,,,,,,,,,,,,,,,,,,,,,,,,,,,,,,,,,,,,
,,,,,,,,2023-08-16_08h39.02.538,HF_wild_card,2022.2.4,Win32,14.94343908,5ace11dc35eccf0001a115fe,64d2fd46c836a06233681665,64dc7cf843899dc768c493b8,,,,,,,sngl,resources/Empty.png,resources/DB.BMP,WildCard_NonEx,0.328125,0.0234375,1,0,0,0.8364,optionRight,45,6610,3,29,0,29,0,1,,,,,,,,,,,,,,,,,,,,,,,,,,,,,,,,,,,,,,,
,,,,,,,,2023-08-16_08h39.02.538,HF_wild_card,2022.2.4,Win32,14.94343908,5ace11dc35eccf0001a115fe,64d2fd46c836a06233681665,64dc7cf843899dc768c493b8,,,,,,,decisionTrl,resources/DB.BMP,resources/DP.BMP,WildCard_NonEx,-0.365885417,-0.016927083,1,0,0,1.6816,optionLeft,55,6665,3,30,0,30,0,1,,,,,,,,,,,,,,,,,,,,,,,,,,,,,,,,,,,,,,,
,,,,,,,,2023-08-16_08h39.02.538,HF_wild_card,2022.2.4,Win32,14.94343908,5ace11dc35eccf0001a115fe,64d2fd46c836a06233681665,64dc7cf843899dc768c493b8,,,,,,,ctch,resources/DP.BMP,resources/DY.BMP,Door3,0.423177083,0.049479167,1,0,0,1.6079,optionRight,70,6735,3,31,0,31,0,1,,,,,,,,,,,,,,,,,,,,,,,,,,,,,,,,,,,,,,,
,,,,,,,,2023-08-16_08h39.02.538,HF_wild_card,2022.2.4,Win32,14.94343908,5ace11dc35eccf0001a115fe,64d2fd46c836a06233681665,64dc7cf843899dc768c493b8,,,,,,,sngl,resources/DB.BMP,resources/Empty.png,WildCard_NonEx,-0.213541667,-0.028645833,1,0,0,0.6861,optionLeft,55,6790,3,32,0,32,0,1,,,,,,,,,,,,,,,,,,,,,,,,,,,,,,,,,,,,,,,
,,,,,,,,2023-08-16_08h39.02.538,HF_wild_card,2022.2.4,Win32,14.94343908,5ace11dc35eccf0001a115fe,64d2fd46c836a06233681665,64dc7cf843899dc768c493b8,,,,,,,decisionTrl,resources/DP.BMP,resources/DG.BMP,Door2,-0.24609375,-0.013020833,1,0,0,1.6765,optionLeft,40,6830,3,33,0,33,0,1,,,,,,,,,,,,,,,,,,,,,,,,,,,,,,,,,,,,,,,
,,,,,,,,2023-08-16_08h39.02.538,HF_wild_card,2022.2.4,Win32,14.94343908,5ace11dc35eccf0001a115fe,64d2fd46c836a06233681665,64dc7cf843899dc768c493b8,,,,,,,decisionTrl,resources/DP.BMP,resources/DG.BMP,Door2,-0.290364583,-0.0234375,1,0,0,1.0906,optionLeft,20,6850,3,34,0,34,0,1,,,,,,,,,,,,,,,,,,,,,,,,,,,,,,,,,,,,,,,
,,,,,,,,2023-08-16_08h39.02.538,HF_wild_card,2022.2.4,Win32,14.94343908,5ace11dc35eccf0001a115fe,64d2fd46c836a06233681665,64dc7cf843899dc768c493b8,,,,,,,ctch,resources/DBN.BMP,resources/DG.BMP,Door4,-0.3203125,0.01171875,1,0,0,1.0931,optionLeft,80,6930,3,35,0,35,0,1,,,,,,,,,,,,,,,,,,,,,,,,,,,,,,,,,,,,,,,
,,,,,,,,2023-08-16_08h39.02.538,HF_wild_card,2022.2.4,Win32,14.94343908,5ace11dc35eccf0001a115fe,64d2fd46c836a06233681665,64dc7cf843899dc768c493b8,,,,,,,decisionTrl,resources/DBN.BMP,resources/DY.BMP,Door4,-0.385416667,0.010416667,1,0,0,1.0092,optionLeft,80,7010,3,36,0,36,0,1,,,,,,,,,,,,,,,,,,,,,,,,,,,,,,,,,,,,,,,
,,,,,,,,2023-08-16_08h39.02.538,HF_wild_card,2022.2.4,Win32,14.94343908,5ace11dc35eccf0001a115fe,64d2fd46c836a06233681665,64dc7cf843899dc768c493b8,,,,,,,sngl,resources/Empty.png,resources/DBN.BMP,Door4,0.244791667,0.0625,1,0,0,0.8309,optionRight,60,7070,3,37,0,37,0,1,,,,,,,,,,,,,,,,,,,,,,,,,,,,,,,,,,,,,,,
,,,,,,,,2023-08-16_08h39.02.538,HF_wild_card,2022.2.4,Win32,14.94343908,5ace11dc35eccf0001a115fe,64d2fd46c836a06233681665,64dc7cf843899dc768c493b8,,,,,,,ctch,resources/DP.BMP,resources/DY.BMP,Door3,0.375,0.001302083,1,0,0,1.5953,optionRight,70,7140,3,38,0,38,0,1,,,,,,,,,,,,,,,,,,,,,,,,,,,,,,,,,,,,,,,
,,,,,,,,2023-08-16_08h39.02.538,HF_wild_card,2022.2.4,Win32,14.94343908,5ace11dc35eccf0001a115fe,64d2fd46c836a06233681665,64dc7cf843899dc768c493b8,,,,,,,sngl,resources/DG.BMP,resources/Empty.png,Door1,-0.305989583,-0.05078125,1,0,0,1.2209,optionLeft,30,7170,3,39,0,39,0,1,,,,,,,,,,,,,,,,,,,,,,,,,,,,,,,,,,,,,,,
,,,,,,,,2023-08-16_08h39.02.538,HF_wild_card,2022.2.4,Win32,14.94343908,5ace11dc35eccf0001a115fe,64d2fd46c836a06233681665,64dc7cf843899dc768c493b8,,,,,,,decisionTrl,resources/DY.BMP,resources/DB.BMP,Door3,-0.282552083,-0.00390625,1,0,0,1.3421,optionLeft,70,7240,3,40,0,40,0,1,,,,,,,,,,,,,,,,,,,,,,,,,,,,,,,,,,,,,,,
,,,,,,,,2023-08-16_08h39.02.538,HF_wild_card,2022.2.4,Win32,14.94343908,5ace11dc35eccf0001a115fe,64d2fd46c836a06233681665,64dc7cf843899dc768c493b8,,,,,,,sngl,resources/DB.BMP,resources/Empty.png,WildCard_NonEx,-0.2109375,-0.002604167,1,0,0,0.763,optionLeft,45,7285,3,41,0,41,0,1,,,,,,,,,,,,,,,,,,,,,,,,,,,,,,,,,,,,,,,
,,,,,,,,2023-08-16_08h39.02.538,HF_wild_card,2022.2.4,Win32,14.94343908,5ace11dc35eccf0001a115fe,64d2fd46c836a06233681665,64dc7cf843899dc768c493b8,,,,,,,sngl,resources/Empty.png,resources/DY.BMP,Door3,0.328125,0.0234375,1,0,0,0.7634,optionRight,70,7355,3,42,0,42,0,1,,,,,,,,,,,,,,,,,,,,,,,,,,,,,,,,,,,,,,,
,,,,,,,,2023-08-16_08h39.02.538,HF_wild_card,2022.2.4,Win32,14.94343908,5ace11dc35eccf0001a115fe,64d2fd46c836a06233681665,64dc7cf843899dc768c493b8,,,,,,,sngl,resources/DY.BMP,resources/Empty.png,Door3,-0.303385417,0.002604167,1,0,0,0.6836,optionLeft,70,7425,3,43,0,43,0,1,,,,,,,,,,,,,,,,,,,,,,,,,,,,,,,,,,,,,,,
,,,,,,,,2023-08-16_08h39.02.538,HF_wild_card,2022.2.4,Win32,14.94343908,5ace11dc35eccf0001a115fe,64d2fd46c836a06233681665,64dc7cf843899dc768c493b8,,,,,,,,,,,,,,,,,,,,,,,,,,2,0,2,0,1,,,,,,,,,,,,,,,,,,,,,,,,,,,,,,,,,,
,,,,,,,,2023-08-16_08h39.02.538,HF_wild_card,2022.2.4,Win32,14.94343908,5ace11dc35eccf0001a115fe,64d2fd46c836a06233681665,64dc7cf843899dc768c493b8,,,,,,,sngl,resources/DP.BMP,resources/Empty.png,Door2,-0.447916667,-0.0703125,1,0,0,0.8416,optionLeft,20,7445,4,0,0,0,0,1,,,,,,,,,,,,,,,,,,,,,,,,,,,,,,,,,,,,,,,
,,,,,,,,2023-08-16_08h39.02.538,HF_wild_card,2022.2.4,Win32,14.94343908,5ace11dc35eccf0001a115fe,64d2fd46c836a06233681665,64dc7cf843899dc768c493b8,,,,,,,ctch,resources/DG.BMP,resources/DBN.BMP,Door4,0.360677083,0.0390625,1,0,0,0.7703,optionRight,80,7525,4,1,0,1,0,1,,,,,,,,,,,,,,,,,,,,,,,,,,,,,,,,,,,,,,,
,,,,,,,,2023-08-16_08h39.02.538,HF_wild_card,2022.2.4,Win32,14.94343908,5ace11dc35eccf0001a115fe,64d2fd46c836a06233681665,64dc7cf843899dc768c493b8,,,,,,,decisionTrl,resources/DY.BMP,resources/DBN.BMP,Door4,0.368489583,0.0546875,1,0,0,1.0191,optionRight,80,7605,4,2,0,2,0,1,,,,,,,,,,,,,,,,,,,,,,,,,,,,,,,,,,,,,,,
,,,,,,,,2023-08-16_08h39.02.538,HF_wild_card,2022.2.4,Win32,14.94343908,5ace11dc35eccf0001a115fe,64d2fd46c836a06233681665,64dc7cf843899dc768c493b8,,,,,,,ctch,resources/DP.BMP,resources/DY.BMP,Door3,0.350260417,0.00390625,1,0,0,1.104,optionRight,70,7675,4,3,0,3,0,1,,,,,,,,,,,,,,,,,,,,,,,,,,,,,,,,,,,,,,,
,,,,,,,,2023-08-16_08h39.02.538,HF_wild_card,2022.2.4,Win32,14.94343908,5ace11dc35eccf0001a115fe,64d2fd46c836a06233681665,64dc7cf843899dc768c493b8,,,,,,,decisionTrl,resources/DR.BMP,resources/DP.BMP,WildCard_Ex,-0.23046875,-0.006510417,1,0,0,1.8478,optionLeft,55,7730,4,4,0,4,0,1,,,,,,,,,,,,,,,,,,,,,,,,,,,,,,,,,,,,,,,
,,,,,,,,2023-08-16_08h39.02.538,HF_wild_card,2022.2.4,Win32,14.94343908,5ace11dc35eccf0001a115fe,64d2fd46c836a06233681665,64dc7cf843899dc768c493b8,,,,,,,sngl,resources/DBN.BMP,resources/Empty.png,Door4,-0.3203125,-0.020833333,1,0,0,0.6897,optionLeft,60,7790,4,5,0,5,0,1,,,,,,,,,,,,,,,,,,,,,,,,,,,,,,,,,,,,,,,
,,,,,,,,2023-08-16_08h39.02.538,HF_wild_card,2022.2.4,Win32,14.94343908,5ace11dc35eccf0001a115fe,64d2fd46c836a06233681665,64dc7cf843899dc768c493b8,,,,,,,ctch,resources/DBN.BMP,resources/DG.BMP,Door4,-0.227864583,-0.00390625,1,0,0,0.8388,optionLeft,80,7870,4,6,0,6,0,1,,,,,,,,,,,,,,,,,,,,,,,,,,,,,,,,,,,,,,,
,,,,,,,,2023-08-16_08h39.02.538,HF_wild_card,2022.2.4,Win32,14.94343908,5ace11dc35eccf0001a115fe,64d2fd46c836a06233681665,64dc7cf843899dc768c493b8,,,,,,,ctch,resources/DBN.BMP,resources/DG.BMP,Door4,-0.221354167,0.00390625,1,0,0,0.6728,optionLeft,80,7950,4,7,0,7,0,1,,,,,,,,,,,,,,,,,,,,,,,,,,,,,,,,,,,,,,,
,,,,,,,,2023-08-16_08h39.02.538,HF_wild_card,2022.2.4,Win32,14.94343908,5ace11dc35eccf0001a115fe,64d2fd46c836a06233681665,64dc7cf843899dc768c493b8,,,,,,,decisionTrl,resources/DY.BMP,resources/DBN.BMP,Door4,0.2890625,0.029947917,1,0,0,1.5095,optionRight,80,8030,4,8,0,8,0,1,,,,,,,,,,,,,,,,,,,,,,,,,,,,,,,,,,,,,,,
,,,,,,,,2023-08-16_08h39.02.538,HF_wild_card,2022.2.4,Win32,14.94343908,5ace11dc35eccf0001a115fe,64d2fd46c836a06233681665,64dc7cf843899dc768c493b8,,,,,,,sngl,resources/Empty.png,resources/DP.BMP,Door2,0.3203125,0.016927083,1,0,0,1.067,optionRight,40,8070,4,9,0,9,0,1,,,,,,,,,,,,,,,,,,,,,,,,,,,,,,,,,,,,,,,
,,,,,,,,2023-08-16_08h39.02.538,HF_wild_card,2022.2.4,Win32,14.94343908,5ace11dc35eccf0001a115fe,64d2fd46c836a06233681665,64dc7cf843899dc768c493b8,,,,,,,decisionTrl,resources/DBN.BMP,resources/DR.BMP,Door4,-0.216145833,-0.00390625,1,0,0,1.9268,optionLeft,80,8150,4,10,0,10,0,1,,,,,,,,,,,,,,,,,,,,,,,,,,,,,,,,,,,,,,,
,,,,,,,,2023-08-16_08h39.02.538,HF_wild_card,2022.2.4,Win32,14.94343908,5ace11dc35eccf0001a115fe,64d2fd46c836a06233681665,64dc7cf843899dc768c493b8,,,,,,,sngl,resources/DY.BMP,resources/Empty.png,Door3,-0.21484375,-0.002604167,1,0,0,0.767,optionLeft,70,8220,4,11,0,11,0,1,,,,,,,,,,,,,,,,,,,,,,,,,,,,,,,,,,,,,,,
,,,,,,,,2023-08-16_08h39.02.538,HF_wild_card,2022.2.4,Win32,14.94343908,5ace11dc35eccf0001a115fe,64d2fd46c836a06233681665,64dc7cf843899dc768c493b8,,,,,,,decisionTrl,resources/DY.BMP,resources/DBN.BMP,Door4,0.24609375,0.01171875,1,0,0,1.261,optionRight,80,8300,4,12,0,12,0,1,,,,,,,,,,,,,,,,,,,,,,,,,,,,,,,,,,,,,,,
,,,,,,,,2023-08-16_08h39.02.538,HF_wild_card,2022.2.4,Win32,14.94343908,5ace11dc35eccf0001a115fe,64d2fd46c836a06233681665,64dc7cf843899dc768c493b8,,,,,,,sngl,resources/DG.BMP,resources/Empty.png,Door1,-0.354166667,-0.02734375,1,0,0,0.8585,optionLeft,30,8330,4,13,0,13,0,1,,,,,,,,,,,,,,,,,,,,,,,,,,,,,,,,,,,,,,,
,,,,,,,,2023-08-16_08h39.02.538,HF_wild_card,2022.2.4,Win32,14.94343908,5ace11dc35eccf0001a115fe,64d2fd46c836a06233681665,64dc7cf843899dc768c493b8,,,,,,,decisionTrl,resources/DG.BMP,resources/DP.BMP,Door2,0.354166667,-0.005208333,1,0,0,2.1038,optionRight,40,8370,4,14,0,14,0,1,,,,,,,,,,,,,,,,,,,,,,,,,,,,,,,,,,,,,,,
,,,,,,,,2023-08-16_08h39.02.538,HF_wild_card,2022.2.4,Win32,14.94343908,5ace11dc35eccf0001a115fe,64d2fd46c836a06233681665,64dc7cf843899dc768c493b8,,,,,,,sngl,resources/Empty.png,resources/DY.BMP,Door3,0.317708333,0.032552083,1,0,0,0.836,optionRight,70,8440,4,15,0,15,0,1,,,,,,,,,,,,,,,,,,,,,,,,,,,,,,,,,,,,,,,
,,,,,,,,2023-08-16_08h39.02.538,HF_wild_card,2022.2.4,Win32,14.94343908,5ace11dc35eccf0001a115fe,64d2fd46c836a06233681665,64dc7cf843899dc768c493b8,,,,,,,sngl,resources/DR.BMP,resources/Empty.png,WildCard_Ex,-0.296875,-0.057291667,1,0,0,0.7654,optionLeft,55,8495,4,16,0,16,0,1,,,,,,,,,,,,,,,,,,,,,,,,,,,,,,,,,,,,,,,
,,,,,,,,2023-08-16_08h39.02.538,HF_wild_card,2022.2.4,Win32,14.94343908,5ace11dc35eccf0001a115fe,64d2fd46c836a06233681665,64dc7cf843899dc768c493b8,,,,,,,decisionTrl,resources/DY.BMP,resources/DR.BMP,Door3,-0.38671875,-0.00390625,1,0,0,1.078,optionLeft,70,8565,4,17,0,17,0,1,,,,,,,,,,,,,,,,,,,,,,,,,,,,,,,,,,,,,,,
,,,,,,,,2023-08-16_08h39.02.538,HF_wild_card,2022.2.4,Win32,14.94343908,5ace11dc35eccf0001a115fe,64d2fd46c836a06233681665,64dc7cf843899dc768c493b8,,,,,,,sngl,resources/Empty.png,resources/DR.BMP,WildCard_Ex,0.458333333,-0.0390625,1,0,0,0.9097,optionRight,55,8620,4,18,0,18,0,1,,,,,,,,,,,,,,,,,,,,,,,,,,,,,,,,,,,,,,,
,,,,,,,,2023-08-16_08h39.02.538,HF_wild_card,2022.2.4,Win32,14.94343908,5ace11dc35eccf0001a115fe,64d2fd46c836a06233681665,64dc7cf843899dc768c493b8,,,,,,,ctch,resources/DY.BMP,resources/DP.BMP,Door3,-0.291666667,-0.016927083,1,0,0,1.4245,optionLeft,70,8690,4,19,0,19,0,1,,,,,,,,,,,,,,,,,,,,,,,,,,,,,,,,,,,,,,,
,,,,,,,,2023-08-16_08h39.02.538,HF_wild_card,2022.2.4,Win32,14.94343908,5ace11dc35eccf0001a115fe,64d2fd46c836a06233681665,64dc7cf843899dc768c493b8,,,,,,,decisionTrl,resources/DG.BMP,resources/DP.BMP,Door2,0.415364583,0.0078125,1,0,0,1.6375,optionRight,20,8710,4,20,0,20,0,1,,,,,,,,,,,,,,,,,,,,,,,,,,,,,,,,,,,,,,,
,,,,,,,,2023-08-16_08h39.02.538,HF_wild_card,2022.2.4,Win32,14.94343908,5ace11dc35eccf0001a115fe,64d2fd46c836a06233681665,64dc7cf843899dc768c493b8,,,,,,,decisionTrl,resources/DBN.BMP,resources/DY.BMP,Door4,-0.315104167,0,1,0,0,1.0291,optionLeft,80,8790,4,21,0,21,0,1,,,,,,,,,,,,,,,,,,,,,,,,,,,,,,,,,,,,,,,
,,,,,,,,2023-08-16_08h39.02.538,HF_wild_card,2022.2.4,Win32,14.94343908,5ace11dc35eccf0001a115fe,64d2fd46c836a06233681665,64dc7cf843899dc768c493b8,,,,,,,decisionTrl,resources/DR.BMP,resources/DG.BMP,WildCard_Ex,-0.25390625,0.0078125,1,0,0,1.6744,optionLeft,45,8835,4,22,0,22,0,1,,,,,,,,,,,,,,,,,,,,,,,,,,,,,,,,,,,,,,,
,,,,,,,,2023-08-16_08h39.02.538,HF_wild_card,2022.2.4,Win32,14.94343908,5ace11dc35eccf0001a115fe,64d2fd46c836a06233681665,64dc7cf843899dc768c493b8,,,,,,,decisionTrl,resources/DBN.BMP,resources/DY.BMP,Door4,-0.234375,-0.00390625,1,0,0,1.0248,optionLeft,60,8895,4,23,0,23,0,1,,,,,,,,,,,,,,,,,,,,,,,,,,,,,,,,,,,,,,,
,,,,,,,,2023-08-16_08h39.02.538,HF_wild_card,2022.2.4,Win32,14.94343908,5ace11dc35eccf0001a115fe,64d2fd46c836a06233681665,64dc7cf843899dc768c493b8,,,,,,,decisionTrl,resources/DP.BMP,resources/DG.BMP,Door2,-0.3984375,-0.048177083,1,0,0,2.195,optionLeft,20,8915,4,24,0,24,0,1,,,,,,,,,,,,,,,,,,,,,,,,,,,,,,,,,,,,,,,
,,,,,,,,2023-08-16_08h39.02.538,HF_wild_card,2022.2.4,Win32,14.94343908,5ace11dc35eccf0001a115fe,64d2fd46c836a06233681665,64dc7cf843899dc768c493b8,,,,,,,ctch,resources/DP.BMP,resources/DY.BMP,Door3,0.240885417,-0.006510417,1,0,0,1.0054,optionRight,70,8985,4,25,0,25,0,1,,,,,,,,,,,,,,,,,,,,,,,,,,,,,,,,,,,,,,,
,,,,,,,,2023-08-16_08h39.02.538,HF_wild_card,2022.2.4,Win32,14.94343908,5ace11dc35eccf0001a115fe,64d2fd46c836a06233681665,64dc7cf843899dc768c493b8,,,,,,,decisionTrl,resources/DR.BMP,resources/DY.BMP,Door3,0.34765625,-0.010416667,1,0,0,1.3453,optionRight,70,9055,4,26,0,26,0,1,,,,,,,,,,,,,,,,,,,,,,,,,,,,,,,,,,,,,,,
,,,,,,,,2023-08-16_08h39.02.538,HF_wild_card,2022.2.4,Win32,14.94343908,5ace11dc35eccf0001a115fe,64d2fd46c836a06233681665,64dc7cf843899dc768c493b8,,,,,,,sngl,resources/Empty.png,resources/DG.BMP,Door1,0.256510417,0.001302083,1,0,0,0.8435,optionRight,30,9085,4,27,0,27,0,1,,,,,,,,,,,,,,,,,,,,,,,,,,,,,,,,,,,,,,,
,,,,,,,,2023-08-16_08h39.02.538,HF_wild_card,2022.2.4,Win32,14.94343908,5ace11dc35eccf0001a115fe,64d2fd46c836a06233681665,64dc7cf843899dc768c493b8,,,,,,,decisionTrl,resources/DG.BMP,resources/DR.BMP,WildCard_Ex,0.358072917,0.028645833,1,0,0,1.5241,optionRight,45,9130,4,28,0,28,0,1,,,,,,,,,,,,,,,,,,,,,,,,,,,,,,,,,,,,,,,
,,,,,,,,2023-08-16_08h39.02.538,HF_wild_card,2022.2.4,Win32,14.94343908,5ace11dc35eccf0001a115fe,64d2fd46c836a06233681665,64dc7cf843899dc768c493b8,,,,,,,decisionTrl,resources/DG.BMP,resources/DP.BMP,Door2,0.34375,0,1,0,0,1.5874,optionRight,40,9170,4,29,0,29,0,1,,,,,,,,,,,,,,,,,,,,,,,,,,,,,,,,,,,,,,,
,,,,,,,,2023-08-16_08h39.02.538,HF_wild_card,2022.2.4,Win32,14.94343908,5ace11dc35eccf0001a115fe,64d2fd46c836a06233681665,64dc7cf843899dc768c493b8,,,,,,,decisionTrl,resources/DR.BMP,resources/DBN.BMP,Door4,0.391927083,0.041666667,1,0,0,1.2642,optionRight,60,9230,4,30,0,30,0,1,,,,,,,,,,,,,,,,,,,,,,,,,,,,,,,,,,,,,,,
,,,,,,,,2023-08-16_08h39.02.538,HF_wild_card,2022.2.4,Win32,14.94343908,5ace11dc35eccf0001a115fe,64d2fd46c836a06233681665,64dc7cf843899dc768c493b8,,,,,,,decisionTrl,resources/DBN.BMP,resources/DY.BMP,Door3,0.311197917,0.032552083,1,0,0,1.2601,optionRight,70,9300,4,31,0,31,0,1,,,,,,,,,,,,,,,,,,,,,,,,,,,,,,,,,,,,,,,
,,,,,,,,2023-08-16_08h39.02.538,HF_wild_card,2022.2.4,Win32,14.94343908,5ace11dc35eccf0001a115fe,64d2fd46c836a06233681665,64dc7cf843899dc768c493b8,,,,,,,decisionTrl,resources/DY.BMP,resources/DBN.BMP,Door4,0.368489583,0.029947917,1,0,0,1.1747,optionRight,60,9360,4,32,0,32,0,1,,,,,,,,,,,,,,,,,,,,,,,,,,,,,,,,,,,,,,,
,,,,,,,,2023-08-16_08h39.02.538,HF_wild_card,2022.2.4,Win32,14.94343908,5ace11dc35eccf0001a115fe,64d2fd46c836a06233681665,64dc7cf843899dc768c493b8,,,,,,,decisionTrl,resources/DP.BMP,resources/DR.BMP,WildCard_Ex,0.311197917,-0.059895833,1,0,0,1.1743,optionRight,55,9415,4,33,0,33,0,1,,,,,,,,,,,,,,,,,,,,,,,,,,,,,,,,,,,,,,,
,,,,,,,,2023-08-16_08h39.02.538,HF_wild_card,2022.2.4,Win32,14.94343908,5ace11dc35eccf0001a115fe,64d2fd46c836a06233681665,64dc7cf843899dc768c493b8,,,,,,,ctch,resources/DG.BMP,resources/DBN.BMP,Door4,0.319010417,-0.010416667,1,0,0,1.2552,optionRight,80,9495,4,34,0,34,0,1,,,,,,,,,,,,,,,,,,,,,,,,,,,,,,,,,,,,,,,
,,,,,,,,2023-08-16_08h39.02.538,HF_wild_card,2022.2.4,Win32,14.94343908,5ace11dc35eccf0001a115fe,64d2fd46c836a06233681665,64dc7cf843899dc768c493b8,,,,,,,sngl,resources/Empty.png,resources/DR.BMP,WildCard_Ex,0.279947917,-0.002604167,1,0,0,0.6863,optionRight,45,9540,4,35,0,35,0,1,,,,,,,,,,,,,,,,,,,,,,,,,,,,,,,,,,,,,,,
,,,,,,,,2023-08-16_08h39.02.538,HF_wild_card,2022.2.4,Win32,14.94343908,5ace11dc35eccf0001a115fe,64d2fd46c836a06233681665,64dc7cf843899dc768c493b8,,,,,,,sngl,resources/DR.BMP,resources/Empty.png,WildCard_Ex,-0.247395833,-0.0078125,1,0,0,0.7611,optionLeft,45,9585,4,36,0,36,0,1,,,,,,,,,,,,,,,,,,,,,,,,,,,,,,,,,,,,,,,
,,,,,,,,2023-08-16_08h39.02.538,HF_wild_card,2022.2.4,Win32,14.94343908,5ace11dc35eccf0001a115fe,64d2fd46c836a06233681665,64dc7cf843899dc768c493b8,,,,,,,ctch,resources/DY.BMP,resources/DP.BMP,Door3,-0.305989583,-0.013020833,1,0,0,1.6755,optionLeft,70,9655,4,37,0,37,0,1,,,,,,,,,,,,,,,,,,,,,,,,,,,,,,,,,,,,,,,
,,,,,,,,2023-08-16_08h39.02.538,HF_wild_card,2022.2.4,Win32,14.94343908,5ace11dc35eccf0001a115fe,64d2fd46c836a06233681665,64dc7cf843899dc768c493b8,,,,,,,decisionTrl,resources/DP.BMP,resources/DG.BMP,Door2,-0.397135417,-0.032552083,1,0,0,2.0983,optionLeft,40,9695,4,38,0,38,0,1,,,,,,,,,,,,,,,,,,,,,,,,,,,,,,,,,,,,,,,
,,,,,,,,2023-08-16_08h39.02.538,HF_wild_card,2022.2.4,Win32,14.94343908,5ace11dc35eccf0001a115fe,64d2fd46c836a06233681665,64dc7cf843899dc768c493b8,,,,,,,decisionTrl,resources/DBN.BMP,resources/DY.BMP,Door4,-0.4296875,-0.036458333,1,0,0,1.0999,optionLeft,60,9755,4,39,0,39,0,1,,,,,,,,,,,,,,,,,,,,,,,,,,,,,,,,,,,,,,,
,,,,,,,,2023-08-16_08h39.02.538,HF_wild_card,2022.2.4,Win32,14.94343908,5ace11dc35eccf0001a115fe,64d2fd46c836a06233681665,64dc7cf843899dc768c493b8,,,,,,,decisionTrl,resources/DP.BMP,resources/DG.BMP,Door2,-0.348958333,-0.0234375,1,0,0,1.6849,optionLeft,40,9795,4,40,0,40,0,1,,,,,,,,,,,,,,,,,,,,,,,,,,,,,,,,,,,,,,,
,,,,,,,,2023-08-16_08h39.02.538,HF_wild_card,2022.2.4,Win32,14.94343908,5ace11dc35eccf0001a115fe,64d2fd46c836a06233681665,64dc7cf843899dc768c493b8,,,,,,,decisionTrl,resources/DP.BMP,resources/DG.BMP,Door2,-0.419270833,-0.022135417,1,0,0,1.2598,optionLeft,20,9815,4,41,0,41,0,1,,,,,,,,,,,,,,,,,,,,,,,,,,,,,,,,,,,,,,,
,,,,,,,,2023-08-16_08h39.02.538,HF_wild_card,2022.2.4,Win32,14.94343908,5ace11dc35eccf0001a115fe,64d2fd46c836a06233681665,64dc7cf843899dc768c493b8,,,,,,,decisionTrl,resources/DG.BMP,resources/DP.BMP,Door1,-0.369791667,-0.013020833,1,0,0,1.591,optionLeft,30,9845,4,42,0,42,0,1,,,,,,,,,,,,,,,,,,,,,,,,,,,,,,,,,,,,,,,
,,,,,,,,2023-08-16_08h39.02.538,HF_wild_card,2022.2.4,Win32,14.94343908,5ace11dc35eccf0001a115fe,64d2fd46c836a06233681665,64dc7cf843899dc768c493b8,,,,,,,sngl,resources/Empty.png,resources/DBN.BMP,Door4,0.270833333,0,1,0,0,0.7642,optionRight,80,9925,4,43,0,43,0,1,,,,,,,,,,,,,,,,,,,,,,,,,,,,,,,,,,,,,,,
,,,,,,,,2023-08-16_08h39.02.538,HF_wild_card,2022.2.4,Win32,14.94343908,5ace11dc35eccf0001a115fe,64d2fd46c836a06233681665,64dc7cf843899dc768c493b8,,,,,,,,,,,,,,,,,,,,,,,,,,3,0,3,0,1,,,,,,,,,,,,,,,,,,,,,,,,,,,,,,,,,,
,,,,,,,,2023-08-16_08h39.02.538,HF_wild_card,2022.2.4,Win32,14.94343908,5ace11dc35eccf0001a115fe,64d2fd46c836a06233681665,64dc7cf843899dc768c493b8,,,,,,,decisionTrl,resources/DR.BMP,resources/DBN.BMP,Door4,0.458333333,0.194010417,1,0,0,1.5203,optionRight,80,10005,5,0,0,0,0,1,,,,,,,,,,,,,,,,,,,,,,,,,,,,,,,,,,,,,,,
,,,,,,,,2023-08-16_08h39.02.538,HF_wild_card,2022.2.4,Win32,14.94343908,5ace11dc35eccf0001a115fe,64d2fd46c836a06233681665,64dc7cf843899dc768c493b8,,,,,,,ctch,resources/DBN.BMP,resources/DG.BMP,Door4,-0.466145833,-0.001302083,1,0,0,0.7517,optionLeft,60,10065,5,1,0,1,0,1,,,,,,,,,,,,,,,,,,,,,,,,,,,,,,,,,,,,,,,
,,,,,,,,2023-08-16_08h39.02.538,HF_wild_card,2022.2.4,Win32,14.94343908,5ace11dc35eccf0001a115fe,64d2fd46c836a06233681665,64dc7cf843899dc768c493b8,,,,,,,decisionTrl,resources/DR.BMP,resources/DY.BMP,Door3,0.42578125,-0.002604167,1,0,0,1.1758,optionRight,70,10135,5,2,0,2,0,1,,,,,,,,,,,,,,,,,,,,,,,,,,,,,,,,,,,,,,,
,,,,,,,,2023-08-16_08h39.02.538,HF_wild_card,2022.2.4,Win32,14.94343908,5ace11dc35eccf0001a115fe,64d2fd46c836a06233681665,64dc7cf843899dc768c493b8,,,,,,,decisionTrl,resources/DP.BMP,resources/DR.BMP,WildCard_Ex,0.302083333,0.022135417,1,0,0,1.0871,optionRight,45,10180,5,3,0,3,0,1,,,,,,,,,,,,,,,,,,,,,,,,,,,,,,,,,,,,,,,
,,,,,,,,2023-08-16_08h39.02.538,HF_wild_card,2022.2.4,Win32,14.94343908,5ace11dc35eccf0001a115fe,64d2fd46c836a06233681665,64dc7cf843899dc768c493b8,,,,,,,decisionTrl,resources/DY.BMP,resources/DBN.BMP,Door4,0.420572917,-0.0078125,1,0,0,1.5048,optionRight,60,10240,5,4,0,4,0,1,,,,,,,,,,,,,,,,,,,,,,,,,,,,,,,,,,,,,,,
,,,,,,,,2023-08-16_08h39.02.538,HF_wild_card,2022.2.4,Win32,14.94343908,5ace11dc35eccf0001a115fe,64d2fd46c836a06233681665,64dc7cf843899dc768c493b8,,,,,,,decisionTrl,resources/DG.BMP,resources/DP.BMP,Door2,0.313802083,-0.03515625,1,0,0,2.0199,optionRight,40,10280,5,5,0,5,0,1,,,,,,,,,,,,,,,,,,,,,,,,,,,,,,,,,,,,,,,
,,,,,,,,2023-08-16_08h39.02.538,HF_wild_card,2022.2.4,Win32,14.94343908,5ace11dc35eccf0001a115fe,64d2fd46c836a06233681665,64dc7cf843899dc768c493b8,,,,,,,decisionTrl,resources/DG.BMP,resources/DR.BMP,WildCard_Ex,0.313802083,-0.022135417,1,0,0,0.9221,optionRight,55,10335,5,6,0,6,0,1,,,,,,,,,,,,,,,,,,,,,,,,,,,,,,,,,,,,,,,
,,,,,,,,2023-08-16_08h39.02.538,HF_wild_card,2022.2.4,Win32,14.94343908,5ace11dc35eccf0001a115fe,64d2fd46c836a06233681665,64dc7cf843899dc768c493b8,,,,,,,sngl,resources/Empty.png,resources/DR.BMP,WildCard_Ex,0.260416667,-0.00390625,1,0,0,0.7648,optionRight,55,10390,5,7,0,7,0,1,,,,,,,,,,,,,,,,,,,,,,,,,,,,,,,,,,,,,,,
,,,,,,,,2023-08-16_08h39.02.538,HF_wild_card,2022.2.4,Win32,14.94343908,5ace11dc35eccf0001a115fe,64d2fd46c836a06233681665,64dc7cf843899dc768c493b8,,,,,,,sngl,resources/DR.BMP,resources/Empty.png,WildCard_Ex,-0.227864583,-0.055989583,1,0,0,0.6092,optionLeft,55,10445,5,8,0,8,0,1,,,,,,,,,,,,,,,,,,,,,,,,,,,,,,,,,,,,,,,
,,,,,,,,2023-08-16_08h39.02.538,HF_wild_card,2022.2.4,Win32,14.94343908,5ace11dc35eccf0001a115fe,64d2fd46c836a06233681665,64dc7cf843899dc768c493b8,,,,,,,ctch,resources/DP.BMP,resources/DY.BMP,Door3,0.329427083,0.01953125,1,0,0,1.0907,optionRight,70,10515,5,9,0,9,0,1,,,,,,,,,,,,,,,,,,,,,,,,,,,,,,,,,,,,,,,
,,,,,,,,2023-08-16_08h39.02.538,HF_wild_card,2022.2.4,Win32,14.94343908,5ace11dc35eccf0001a115fe,64d2fd46c836a06233681665,64dc7cf843899dc768c493b8,,,,,,,decisionTrl,resources/DG.BMP,resources/DP.BMP,Door1,-0.2109375,0.005208333,1,0,0,1.5089,optionLeft,30,10545,5,10,0,10,0,1,,,,,,,,,,,,,,,,,,,,,,,,,,,,,,,,,,,,,,,
,,,,,,,,2023-08-16_08h39.02.538,HF_wild_card,2022.2.4,Win32,14.94343908,5ace11dc35eccf0001a115fe,64d2fd46c836a06233681665,64dc7cf843899dc768c493b8,,,,,,,decisionTrl,resources/DR.BMP,resources/DG.BMP,WildCard_Ex,-0.2265625,-0.03125,1,0,0,0.8493,optionLeft,45,10590,5,11,0,11,0,1,,,,,,,,,,,,,,,,,,,,,,,,,,,,,,,,,,,,,,,
,,,,,,,,2023-08-16_08h39.02.538,HF_wild_card,2022.2.4,Win32,14.94343908,5ace11dc35eccf0001a115fe,64d2fd46c836a06233681665,64dc7cf843899dc768c493b8,,,,,,,sngl,resources/Empty.png,resources/DY.BMP,Door3,0.265625,-0.022135417,1,0,0,0.7594,optionRight,70,10660,5,12,0,12,0,1,,,,,,,,,,,,,,,,,,,,,,,,,,,,,,,,,,,,,,,
,,,,,,,,2023-08-16_08h39.02.538,HF_wild_card,2022.2.4,Win32,14.94343908,5ace11dc35eccf0001a115fe,64d2fd46c836a06233681665,64dc7cf843899dc768c493b8,,,,,,,decisionTrl,resources/DBN.BMP,resources/DR.BMP,Door4,-0.260416667,-0.00390625,1,0,0,0.9297,optionLeft,80,10740,5,13,0,13,0,1,,,,,,,,,,,,,,,,,,,,,,,,,,,,,,,,,,,,,,,
,,,,,,,,2023-08-16_08h39.02.538,HF_wild_card,2022.2.4,Win32,14.94343908,5ace11dc35eccf0001a115fe,64d2fd46c836a06233681665,64dc7cf843899dc768c493b8,,,,,,,decisionTrl,resources/DY.BMP,resources/DR.BMP,Door3,-0.200520833,-0.026041667,1,0,0,1.5007,optionLeft,70,10810,5,14,0,14,0,1,,,,,,,,,,,,,,,,,,,,,,,,,,,,,,,,,,,,,,,
,,,,,,,,2023-08-16_08h39.02.538,HF_wild_card,2022.2.4,Win32,14.94343908,5ace11dc35eccf0001a115fe,64d2fd46c836a06233681665,64dc7cf843899dc768c493b8,,,,,,,ctch,resources/DG.BMP,resources/DBN.BMP,Door4,0.244791667,0.01171875,1,0,0,1.0028,optionRight,60,10870,5,15,0,15,0,1,,,,,,,,,,,,,,,,,,,,,,,,,,,,,,,,,,,,,,,
,,,,,,,,2023-08-16_08h39.02.538,HF_wild_card,2022.2.4,Win32,14.94343908,5ace11dc35eccf0001a115fe,64d2fd46c836a06233681665,64dc7cf843899dc768c493b8,,,,,,,ctch,resources/DY.BMP,resources/DP.BMP,Door3,-0.305989583,0.002604167,1,0,0,1.0045,optionLeft,70,10940,5,16,0,16,0,1,,,,,,,,,,,,,,,,,,,,,,,,,,,,,,,,,,,,,,,
,,,,,,,,2023-08-16_08h39.02.538,HF_wild_card,2022.2.4,Win32,14.94343908,5ace11dc35eccf0001a115fe,64d2fd46c836a06233681665,64dc7cf843899dc768c493b8,,,,,,,sngl,resources/DBN.BMP,resources/Empty.png,Door4,-0.2109375,0.01171875,1,0,0,0.6965,optionLeft,80,11020,5,17,0,17,0,1,,,,,,,,,,,,,,,,,,,,,,,,,,,,,,,,,,,,,,,
,,,,,,,,2023-08-16_08h39.02.538,HF_wild_card,2022.2.4,Win32,14.94343908,5ace11dc35eccf0001a115fe,64d2fd46c836a06233681665,64dc7cf843899dc768c493b8,,,,,,,decisionTrl,resources/DY.BMP,resources/DBN.BMP,Door4,0.313802083,-0.009114583,1,0,0,1.1663,optionRight,80,11100,5,18,0,18,0,1,,,,,,,,,,,,,,,,,,,,,,,,,,,,,,,,,,,,,,,
,,,,,,,,2023-08-16_08h39.02.538,HF_wild_card,2022.2.4,Win32,14.94343908,5ace11dc35eccf0001a115fe,64d2fd46c836a06233681665,64dc7cf843899dc768c493b8,,,,,,,ctch,resources/DBN.BMP,resources/DG.BMP,Door4,-0.315104167,-0.005208333,1,0,0,0.8338,optionLeft,60,11160,5,19,0,19,0,1,,,,,,,,,,,,,,,,,,,,,,,,,,,,,,,,,,,,,,,
,,,,,,,,2023-08-16_08h39.02.538,HF_wild_card,2022.2.4,Win32,14.94343908,5ace11dc35eccf0001a115fe,64d2fd46c836a06233681665,64dc7cf843899dc768c493b8,,,,,,,decisionTrl,resources/DY.BMP,resources/DBN.BMP,Door4,0.252604167,-0.014322917,1,0,0,0.9207,optionRight,80,11240,5,20,0,20,0,1,,,,,,,,,,,,,,,,,,,,,,,,,,,,,,,,,,,,,,,
,,,,,,,,2023-08-16_08h39.02.538,HF_wild_card,2022.2.4,Win32,14.94343908,5ace11dc35eccf0001a115fe,64d2fd46c836a06233681665,64dc7cf843899dc768c493b8,,,,,,,ctch,resources/DP.BMP,resources/DY.BMP,Door3,0.248697917,-0.018229167,1,0,0,1.3385,optionRight,70,11310,5,21,0,21,0,1,,,,,,,,,,,,,,,,,,,,,,,,,,,,,,,,,,,,,,,
,,,,,,,,2023-08-16_08h39.02.538,HF_wild_card,2022.2.4,Win32,14.94343908,5ace11dc35eccf0001a115fe,64d2fd46c836a06233681665,64dc7cf843899dc768c493b8,,,,,,,decisionTrl,resources/DG.BMP,resources/DP.BMP,Door2,0.260416667,-0.005208333,1,0,0,1.0909,optionRight,20,11330,5,22,0,22,0,1,,,,,,,,,,,,,,,,,,,,,,,,,,,,,,,,,,,,,,,
,,,,,,,,2023-08-16_08h39.02.538,HF_wild_card,2022.2.4,Win32,14.94343908,5ace11dc35eccf0001a115fe,64d2fd46c836a06233681665,64dc7cf843899dc768c493b8,,,,,,,decisionTrl,resources/DR.BMP,resources/DP.BMP,WildCard_Ex,-0.33203125,-0.022135417,1,0,0,0.9193,optionLeft,45,11375,5,23,0,23,0,1,,,,,,,,,,,,,,,,,,,,,,,,,,,,,,,,,,,,,,,
,,,,,,,,2023-08-16_08h39.02.538,HF_wild_card,2022.2.4,Win32,14.94343908,5ace11dc35eccf0001a115fe,64d2fd46c836a06233681665,64dc7cf843899dc768c493b8,,,,,,,sngl,resources/DG.BMP,resources/Empty.png,Door1,-0.243489583,-0.0078125,1,0,0,0.7616,optionLeft,30,11405,5,24,0,24,0,1,,,,,,,,,,,,,,,,,,,,,,,,,,,,,,,,,,,,,,,
,,,,,,,,2023-08-16_08h39.02.538,HF_wild_card,2022.2.4,Win32,14.94343908,5ace11dc35eccf0001a115fe,64d2fd46c836a06233681665,64dc7cf843899dc768c493b8,,,,,,,ctch,resources/DG.BMP,resources/DBN.BMP,Door4,0.368489583,0.071614583,1,0,0,1.0058,optionRight,80,11485,5,25,0,25,0,1,,,,,,,,,,,,,,,,,,,,,,,,,,,,,,,,,,,,,,,
,,,,,,,,2023-08-16_08h39.02.538,HF_wild_card,2022.2.4,Win32,14.94343908,5ace11dc35eccf0001a115fe,64d2fd46c836a06233681665,64dc7cf843899dc768c493b8,,,,,,,ctch,resources/DY.BMP,resources/DP.BMP,Door3,-0.266927083,0.00390625,1,0,0,1.7742,optionLeft,70,11555,5,26,0,26,0,1,,,,,,,,,,,,,,,,,,,,,,,,,,,,,,,,,,,,,,,
,,,,,,,,2023-08-16_08h39.02.538,HF_wild_card,2022.2.4,Win32,14.94343908,5ace11dc35eccf0001a115fe,64d2fd46c836a06233681665,64dc7cf843899dc768c493b8,,,,,,,decisionTrl,resources/DP.BMP,resources/DG.BMP,Door1,0.3203125,0.018229167,1,0,0,1.6761,optionRight,30,11585,5,27,0,27,0,1,,,,,,,,,,,,,,,,,,,,,,,,,,,,,,,,,,,,,,,
,,,,,,,,2023-08-16_08h39.02.538,HF_wild_card,2022.2.4,Win32,14.94343908,5ace11dc35eccf0001a115fe,64d2fd46c836a06233681665,64dc7cf843899dc768c493b8,,,,,,,sngl,resources/DR.BMP,resources/Empty.png,WildCard_Ex,-0.541666667,-0.157552083,1,0,0,0.9923,optionLeft,45,11630,5,28,0,28,0,1,,,,,,,,,,,,,,,,,,,,,,,,,,,,,,,,,,,,,,,
,,,,,,,,2023-08-16_08h39.02.538,HF_wild_card,2022.2.4,Win32,14.94343908,5ace11dc35eccf0001a115fe,64d2fd46c836a06233681665,64dc7cf843899dc768c493b8,,,,,,,decisionTrl,resources/DP.BMP,resources/DG.BMP,Door2,-0.3203125,0.00390625,1,0,0,1.2594,optionLeft,20,11650,5,29,0,29,0,1,,,,,,,,,,,,,,,,,,,,,,,,,,,,,,,,,,,,,,,
,,,,,,,,2023-08-16_08h39.02.538,HF_wild_card,2022.2.4,Win32,14.94343908,5ace11dc35eccf0001a115fe,64d2fd46c836a06233681665,64dc7cf843899dc768c493b8,,,,,,,sngl,resources/DP.BMP,resources/Empty.png,Door2,-0.1875,0.010416667,1,0,0,0.6828,optionLeft,40,11690,5,30,0,30,0,1,,,,,,,,,,,,,,,,,,,,,,,,,,,,,,,,,,,,,,,
,,,,,,,,2023-08-16_08h39.02.538,HF_wild_card,2022.2.4,Win32,14.94343908,5ace11dc35eccf0001a115fe,64d2fd46c836a06233681665,64dc7cf843899dc768c493b8,,,,,,,sngl,resources/Empty.png,resources/DP.BMP,Door2,0.309895833,0.009114583,1,0,0,0.7647,optionRight,20,11710,5,31,0,31,0,1,,,,,,,,,,,,,,,,,,,,,,,,,,,,,,,,,,,,,,,
,,,,,,,,2023-08-16_08h39.02.538,HF_wild_card,2022.2.4,Win32,14.94343908,5ace11dc35eccf0001a115fe,64d2fd46c836a06233681665,64dc7cf843899dc768c493b8,,,,,,,decisionTrl,resources/DP.BMP,resources/DG.BMP,Door1,0.296875,0.028645833,1,0,0,1.0066,optionRight,30,11740,5,32,0,32,0,1,,,,,,,,,,,,,,,,,,,,,,,,,,,,,,,,,,,,,,,
,,,,,,,,2023-08-16_08h39.02.538,HF_wild_card,2022.2.4,Win32,14.94343908,5ace11dc35eccf0001a115fe,64d2fd46c836a06233681665,64dc7cf843899dc768c493b8,,,,,,,decisionTrl,resources/DG.BMP,resources/DP.BMP,Door1,-0.303385417,-0.0234375,1,0,0,1.5977,optionLeft,30,11770,5,33,0,33,0,1,,,,,,,,,,,,,,,,,,,,,,,,,,,,,,,,,,,,,,,
,,,,,,,,2023-08-16_08h39.02.538,HF_wild_card,2022.2.4,Win32,14.94343908,5ace11dc35eccf0001a115fe,64d2fd46c836a06233681665,64dc7cf843899dc768c493b8,,,,,,,sngl,resources/DY.BMP,resources/Empty.png,Door3,-0.368489583,0.015625,1,0,0,0.6887,optionLeft,70,11840,5,34,0,34,0,1,,,,,,,,,,,,,,,,,,,,,,,,,,,,,,,,,,,,,,,
,,,,,,,,2023-08-16_08h39.02.538,HF_wild_card,2022.2.4,Win32,14.94343908,5ace11dc35eccf0001a115fe,64d2fd46c836a06233681665,64dc7cf843899dc768c493b8,,,,,,,sngl,resources/Empty.png,resources/DG.BMP,Door1,0.279947917,0.037760417,1,0,0,0.7653,optionRight,30,11870,5,35,0,35,0,1,,,,,,,,,,,,,,,,,,,,,,,,,,,,,,,,,,,,,,,
,,,,,,,,2023-08-16_08h39.02.538,HF_wild_card,2022.2.4,Win32,14.94343908,5ace11dc35eccf0001a115fe,64d2fd46c836a06233681665,64dc7cf843899dc768c493b8,,,,,,,decisionTrl,resources/DBN.BMP,resources/DY.BMP,Door4,-0.2578125,0.033854167,1,0,0,1.2567,optionLeft,60,11930,5,36,0,36,0,1,,,,,,,,,,,,,,,,,,,,,,,,,,,,,,,,,,,,,,,
,,,,,,,,2023-08-16_08h39.02.538,HF_wild_card,2022.2.4,Win32,14.94343908,5ace11dc35eccf0001a115fe,64d2fd46c836a06233681665,64dc7cf843899dc768c493b8,,,,,,,decisionTrl,resources/DY.BMP,resources/DBN.BMP,Door4,0.302083333,0.046875,1,0,0,1.2586,optionRight,80,12010,5,37,0,37,0,1,,,,,,,,,,,,,,,,,,,,,,,,,,,,,,,,,,,,,,,
,,,,,,,,2023-08-16_08h39.02.538,HF_wild_card,2022.2.4,Win32,14.94343908,5ace11dc35eccf0001a115fe,64d2fd46c836a06233681665,64dc7cf843899dc768c493b8,,,,,,,sngl,resources/Empty.png,resources/DBN.BMP,Door4,0.229166667,0.037760417,1,0,0,0.6869,optionRight,60,12070,5,38,0,38,0,1,,,,,,,,,,,,,,,,,,,,,,,,,,,,,,,,,,,,,,,
,,,,,,,,2023-08-16_08h39.02.538,HF_wild_card,2022.2.4,Win32,14.94343908,5ace11dc35eccf0001a115fe,64d2fd46c836a06233681665,64dc7cf843899dc768c493b8,,,,,,,decisionTrl,resources/DBN.BMP,resources/DY.BMP,Door4,-0.23828125,0.029947917,1,0,0,1.1756,optionLeft,80,12150,5,39,0,39,0,1,,,,,,,,,,,,,,,,,,,,,,,,,,,,,,,,,,,,,,,
,,,,,,,,2023-08-16_08h39.02.538,HF_wild_card,2022.2.4,Win32,14.94343908,5ace11dc35eccf0001a115fe,64d2fd46c836a06233681665,64dc7cf843899dc768c493b8,,,,,,,decisionTrl,resources/DP.BMP,resources/DG.BMP,Door1,0.302083333,0.0546875,1,0,0,1.6791,optionRight,30,12180,5,40,0,40,0,1,,,,,,,,,,,,,,,,,,,,,,,,,,,,,,,,,,,,,,,
,,,,,,,,2023-08-16_08h39.02.538,HF_wild_card,2022.2.4,Win32,14.94343908,5ace11dc35eccf0001a115fe,64d2fd46c836a06233681665,64dc7cf843899dc768c493b8,,,,,,,decisionTrl,resources/DBN.BMP,resources/DY.BMP,Door4,-0.259114583,0.020833333,1,0,0,0.839,optionLeft,60,12240,5,41,0,41,0,1,,,,,,,,,,,,,,,,,,,,,,,,,,,,,,,,,,,,,,,
,,,,,,,,2023-08-16_08h39.02.538,HF_wild_card,2022.2.4,Win32,14.94343908,5ace11dc35eccf0001a115fe,64d2fd46c836a06233681665,64dc7cf843899dc768c493b8,,,,,,,decisionTrl,resources/DBN.BMP,resources/DY.BMP,Door4,-0.235677083,0.020833333,1,0,0,1.0095,optionLeft,60,12300,5,42,0,42,0,1,,,,,,,,,,,,,,,,,,,,,,,,,,,,,,,,,,,,,,,
,,,,,,,,2023-08-16_08h39.02.538,HF_wild_card,2022.2.4,Win32,14.94343908,5ace11dc35eccf0001a115fe,64d2fd46c836a06233681665,64dc7cf843899dc768c493b8,,,,,,,sngl,resources/Empty.png,resources/DR.BMP,WildCard_Ex,0.266927083,0.009114583,1,0,0,0.9142,optionRight,45,12345,5,43,0,43,0,1,,,,,,,,,,,,,,,,,,,,,,,,,,,,,,,,,,,,,,,
,,,,,,,,2023-08-16_08h39.02.538,HF_wild_card,2022.2.4,Win32,14.94343908,5ace11dc35eccf0001a115fe,64d2fd46c836a06233681665,64dc7cf843899dc768c493b8,,,,,,,,,,,,,,,,,,,,,,,,,,4,0,4,0,1,,,,,,,,,,,,,,,,,,,,,,,,,,,,,,,,,,
,,,,,,,,2023-08-16_08h39.02.538,HF_wild_card,2022.2.4,Win32,14.94343908,5ace11dc35eccf0001a115fe,64d2fd46c836a06233681665,64dc7cf843899dc768c493b8,,,,,,,sngl,resources/Empty.png,resources/DY.BMP,Door3,0.375,-0.057291667,1,0,0,0.8378,optionRight,70,12415,6,0,0,0,0,1,,,,,,,,,,,,,,,,,,,,,,,,,,,,,,,,,,,,,,,
,,,,,,,,2023-08-16_08h39.02.538,HF_wild_card,2022.2.4,Win32,14.94343908,5ace11dc35eccf0001a115fe,64d2fd46c836a06233681665,64dc7cf843899dc768c493b8,,,,,,,decisionTrl,resources/DBN.BMP,resources/DR.BMP,Door4,-0.274739583,-0.013020833,1,0,0,0.8393,optionLeft,80,12495,6,1,0,1,0,1,,,,,,,,,,,,,,,,,,,,,,,,,,,,,,,,,,,,,,,
,,,,,,,,2023-08-16_08h39.02.538,HF_wild_card,2022.2.4,Win32,14.94343908,5ace11dc35eccf0001a115fe,64d2fd46c836a06233681665,64dc7cf843899dc768c493b8,,,,,,,sngl,resources/Empty.png,resources/DBN.BMP,Door4,0.231770833,0.009114583,1,0,0,0.6831,optionRight,80,12575,6,2,0,2,0,1,,,,,,,,,,,,,,,,,,,,,,,,,,,,,,,,,,,,,,,
,,,,,,,,2023-08-16_08h39.02.538,HF_wild_card,2022.2.4,Win32,14.94343908,5ace11dc35eccf0001a115fe,64d2fd46c836a06233681665,64dc7cf843899dc768c493b8,,,,,,,sngl,resources/Empty.png,resources/DR.BMP,WildCard_Ex,0.26171875,0.0234375,1,0,0,0.8368,optionRight,45,12620,6,3,0,3,0,1,,,,,,,,,,,,,,,,,,,,,,,,,,,,,,,,,,,,,,,
,,,,,,,,2023-08-16_08h39.02.538,HF_wild_card,2022.2.4,Win32,14.94343908,5ace11dc35eccf0001a115fe,64d2fd46c836a06233681665,64dc7cf843899dc768c493b8,,,,,,,decisionTrl,resources/DBN.BMP,resources/DY.BMP,Door4,-0.337239583,-0.016927083,1,0,0,0.9188,optionLeft,80,12700,6,4,0,4,0,1,,,,,,,,,,,,,,,,,,,,,,,,,,,,,,,,,,,,,,,
,,,,,,,,2023-08-16_08h39.02.538,HF_wild_card,2022.2.4,Win32,14.94343908,5ace11dc35eccf0001a115fe,64d2fd46c836a06233681665,64dc7cf843899dc768c493b8,,,,,,,sngl,resources/DY.BMP,resources/Empty.png,Door3,-0.21484375,-0.01171875,1,0,0,0.6844,optionLeft,70,12770,6,5,0,5,0,1,,,,,,,,,,,,,,,,,,,,,,,,,,,,,,,,,,,,,,,
,,,,,,,,2023-08-16_08h39.02.538,HF_wild_card,2022.2.4,Win32,14.94343908,5ace11dc35eccf0001a115fe,64d2fd46c836a06233681665,64dc7cf843899dc768c493b8,,,,,,,sngl,resources/DBN.BMP,resources/Empty.png,Door4,-0.239583333,-0.006510417,1,0,0,0.8328,optionLeft,60,12830,6,6,0,6,0,1,,,,,,,,,,,,,,,,,,,,,,,,,,,,,,,,,,,,,,,
,,,,,,,,2023-08-16_08h39.02.538,HF_wild_card,2022.2.4,Win32,14.94343908,5ace11dc35eccf0001a115fe,64d2fd46c836a06233681665,64dc7cf843899dc768c493b8,,,,,,,ctch,resources/DBN.BMP,resources/DG.BMP,Door4,-0.319010417,0.016927083,1,0,0,1.2565,optionLeft,60,12890,6,7,0,7,0,1,,,,,,,,,,,,,,,,,,,,,,,,,,,,,,,,,,,,,,,
,,,,,,,,2023-08-16_08h39.02.538,HF_wild_card,2022.2.4,Win32,14.94343908,5ace11dc35eccf0001a115fe,64d2fd46c836a06233681665,64dc7cf843899dc768c493b8,,,,,,,decisionTrl,resources/DBN.BMP,resources/DY.BMP,Door4,-0.220052083,0.006510417,1,0,0,1.1022,optionLeft,60,12950,6,8,0,8,0,1,,,,,,,,,,,,,,,,,,,,,,,,,,,,,,,,,,,,,,,
,,,,,,,,2023-08-16_08h39.02.538,HF_wild_card,2022.2.4,Win32,14.94343908,5ace11dc35eccf0001a115fe,64d2fd46c836a06233681665,64dc7cf843899dc768c493b8,,,,,,,decisionTrl,resources/DP.BMP,resources/DG.BMP,Door1,0.25390625,0.015625,1,0,0,2.5021,optionRight,30,12980,6,9,0,9,0,1,,,,,,,,,,,,,,,,,,,,,,,,,,,,,,,,,,,,,,,
,,,,,,,,2023-08-16_08h39.02.538,HF_wild_card,2022.2.4,Win32,14.94343908,5ace11dc35eccf0001a115fe,64d2fd46c836a06233681665,64dc7cf843899dc768c493b8,,,,,,,ctch,resources/DY.BMP,resources/DP.BMP,Door3,-0.239583333,-0.02734375,1,0,0,1.2849,optionLeft,70,13050,6,10,0,10,0,1,,,,,,,,,,,,,,,,,,,,,,,,,,,,,,,,,,,,,,,
,,,,,,,,2023-08-16_08h39.02.538,HF_wild_card,2022.2.4,Win32,14.94343908,5ace11dc35eccf0001a115fe,64d2fd46c836a06233681665,64dc7cf843899dc768c493b8,,,,,,,decisionTrl,resources/DP.BMP,resources/DG.BMP,Door1,0.30859375,0.01953125,1,0,0,2.0986,optionRight,30,13080,6,11,0,11,0,1,,,,,,,,,,,,,,,,,,,,,,,,,,,,,,,,,,,,,,,
,,,,,,,,2023-08-16_08h39.02.538,HF_wild_card,2022.2.4,Win32,14.94343908,5ace11dc35eccf0001a115fe,64d2fd46c836a06233681665,64dc7cf843899dc768c493b8,,,,,,,decisionTrl,resources/DG.BMP,resources/DR.BMP,WildCard_Ex,0.28125,-0.005208333,1,0,0,1.0958,optionRight,55,13135,6,12,0,12,0,1,,,,,,,,,,,,,,,,,,,,,,,,,,,,,,,,,,,,,,,
,,,,,,,,2023-08-16_08h39.02.538,HF_wild_card,2022.2.4,Win32,14.94343908,5ace11dc35eccf0001a115fe,64d2fd46c836a06233681665,64dc7cf843899dc768c493b8,,,,,,,decisionTrl,resources/DR.BMP,resources/DY.BMP,Door3,0.423177083,0.01953125,1,0,0,1.3478,optionRight,70,13205,6,13,0,13,0,1,,,,,,,,,,,,,,,,,,,,,,,,,,,,,,,,,,,,,,,
,,,,,,,,2023-08-16_08h39.02.538,HF_wild_card,2022.2.4,Win32,14.94343908,5ace11dc35eccf0001a115fe,64d2fd46c836a06233681665,64dc7cf843899dc768c493b8,,,,,,,decisionTrl,resources/DR.BMP,resources/DBN.BMP,Door4,0.359375,0.065104167,1,0,0,1.0246,optionRight,60,13265,6,14,0,14,0,1,,,,,,,,,,,,,,,,,,,,,,,,,,,,,,,,,,,,,,,
,,,,,,,,2023-08-16_08h39.02.538,HF_wild_card,2022.2.4,Win32,14.94343908,5ace11dc35eccf0001a115fe,64d2fd46c836a06233681665,64dc7cf843899dc768c493b8,,,,,,,decisionTrl,resources/DR.BMP,resources/DG.BMP,WildCard_Ex,-0.268229167,-0.02734375,1,0,0,1.0813,optionLeft,55,13320,6,15,0,15,0,1,,,,,,,,,,,,,,,,,,,,,,,,,,,,,,,,,,,,,,,
,,,,,,,,2023-08-16_08h39.02.538,HF_wild_card,2022.2.4,Win32,14.94343908,5ace11dc35eccf0001a115fe,64d2fd46c836a06233681665,64dc7cf843899dc768c493b8,,,,,,,decisionTrl,resources/DY.BMP,resources/DBN.BMP,Door4,0.303385417,-0.006510417,1,0,0,1.0076,optionRight,60,13380,6,16,0,16,0,1,,,,,,,,,,,,,,,,,,,,,,,,,,,,,,,,,,,,,,,
,,,,,,,,2023-08-16_08h39.02.538,HF_wild_card,2022.2.4,Win32,14.94343908,5ace11dc35eccf0001a115fe,64d2fd46c836a06233681665,64dc7cf843899dc768c493b8,,,,,,,decisionTrl,resources/DP.BMP,resources/DG.BMP,Door1,0.319010417,0.032552083,1,0,0,2.0996,optionRight,30,13410,6,17,0,17,0,1,,,,,,,,,,,,,,,,,,,,,,,,,,,,,,,,,,,,,,,
,,,,,,,,2023-08-16_08h39.02.538,HF_wild_card,2022.2.4,Win32,14.94343908,5ace11dc35eccf0001a115fe,64d2fd46c836a06233681665,64dc7cf843899dc768c493b8,,,,,,,sngl,resources/Empty.png,resources/DR.BMP,WildCard_Ex,0.23828125,0.006510417,1,0,0,0.9231,optionRight,55,13465,6,18,0,18,0,1,,,,,,,,,,,,,,,,,,,,,,,,,,,,,,,,,,,,,,,
,,,,,,,,2023-08-16_08h39.02.538,HF_wild_card,2022.2.4,Win32,14.94343908,5ace11dc35eccf0001a115fe,64d2fd46c836a06233681665,64dc7cf843899dc768c493b8,,,,,,,decisionTrl,resources/DR.BMP,resources/DP.BMP,WildCard_Ex,-0.201822917,-0.01953125,1,0,0,1.5078,optionLeft,45,13510,6,19,0,19,0,1,,,,,,,,,,,,,,,,,,,,,,,,,,,,,,,,,,,,,,,
,,,,,,,,2023-08-16_08h39.02.538,HF_wild_card,2022.2.4,Win32,14.94343908,5ace11dc35eccf0001a115fe,64d2fd46c836a06233681665,64dc7cf843899dc768c493b8,,,,,,,sngl,resources/Empty.png,resources/DP.BMP,Door2,0.276041667,0.02734375,1,0,0,0.8656,optionRight,40,13550,6,20,0,20,0,1,,,,,,,,,,,,,,,,,,,,,,,,,,,,,,,,,,,,,,,
,,,,,,,,2023-08-16_08h39.02.538,HF_wild_card,2022.2.4,Win32,14.94343908,5ace11dc35eccf0001a115fe,64d2fd46c836a06233681665,64dc7cf843899dc768c493b8,,,,,,,decisionTrl,resources/DG.BMP,resources/DP.BMP,Door2,0.239583333,0.00390625,1,0,0,2.5147,optionRight,40,13590,6,21,0,21,0,1,,,,,,,,,,,,,,,,,,,,,,,,,,,,,,,,,,,,,,,
,,,,,,,,2023-08-16_08h39.02.538,HF_wild_card,2022.2.4,Win32,14.94343908,5ace11dc35eccf0001a115fe,64d2fd46c836a06233681665,64dc7cf843899dc768c493b8,,,,,,,decisionTrl,resources/DBN.BMP,resources/DY.BMP,Door4,-0.325520833,-0.006510417,1,0,0,1.1864,optionLeft,60,13650,6,22,0,22,0,1,,,,,,,,,,,,,,,,,,,,,,,,,,,,,,,,,,,,,,,
,,,,,,,,2023-08-16_08h39.02.538,HF_wild_card,2022.2.4,Win32,14.94343908,5ace11dc35eccf0001a115fe,64d2fd46c836a06233681665,64dc7cf843899dc768c493b8,,,,,,,decisionTrl,resources/DP.BMP,resources/DG.BMP,Door2,-0.30078125,-0.009114583,1,0,0,1.1853,optionLeft,40,13690,6,23,0,23,0,1,,,,,,,,,,,,,,,,,,,,,,,,,,,,,,,,,,,,,,,
,,,,,,,,2023-08-16_08h39.02.538,HF_wild_card,2022.2.4,Win32,14.94343908,5ace11dc35eccf0001a115fe,64d2fd46c836a06233681665,64dc7cf843899dc768c493b8,,,,,,,decisionTrl,resources/DG.BMP,resources/DP.BMP,Door2,0.311197917,0.041666667,1,0,0,0.9206,optionRight,20,13710,6,24,0,24,0,1,,,,,,,,,,,,,,,,,,,,,,,,,,,,,,,,,,,,,,,
,,,,,,,,2023-08-16_08h39.02.538,HF_wild_card,2022.2.4,Win32,14.94343908,5ace11dc35eccf0001a115fe,64d2fd46c836a06233681665,64dc7cf843899dc768c493b8,,,,,,,ctch,resources/DBN.BMP,resources/DG.BMP,Door4,-0.231770833,0.022135417,1,0,0,1.0123,optionLeft,80,13790,6,25,0,25,0,1,,,,,,,,,,,,,,,,,,,,,,,,,,,,,,,,,,,,,,,
,,,,,,,,2023-08-16_08h39.02.538,HF_wild_card,2022.2.4,Win32,14.94343908,5ace11dc35eccf0001a115fe,64d2fd46c836a06233681665,64dc7cf843899dc768c493b8,,,,,,,decisionTrl,resources/DY.BMP,resources/DR.BMP,WildCard_Ex,0.30078125,0.006510417,1,0,0,1.6813,optionRight,45,13835,6,26,0,26,0,1,,,,,,,,,,,,,,,,,,,,,,,,,,,,,,,,,,,,,,,
,,,,,,,,2023-08-16_08h39.02.538,HF_wild_card,2022.2.4,Win32,14.94343908,5ace11dc35eccf0001a115fe,64d2fd46c836a06233681665,64dc7cf843899dc768c493b8,,,,,,,ctch,resources/DG.BMP,resources/DBN.BMP,Door4,0.28515625,0.022135417,1,0,0,1.1763,optionRight,80,13915,6,27,0,27,0,1,,,,,,,,,,,,,,,,,,,,,,,,,,,,,,,,,,,,,,,
,,,,,,,,2023-08-16_08h39.02.538,HF_wild_card,2022.2.4,Win32,14.94343908,5ace11dc35eccf0001a115fe,64d2fd46c836a06233681665,64dc7cf843899dc768c493b8,,,,,,,sngl,resources/DG.BMP,resources/Empty.png,Door1,-0.240885417,0.0078125,1,0,0,0.7615,optionLeft,30,13945,6,28,0,28,0,1,,,,,,,,,,,,,,,,,,,,,,,,,,,,,,,,,,,,,,,
,,,,,,,,2023-08-16_08h39.02.538,HF_wild_card,2022.2.4,Win32,14.94343908,5ace11dc35eccf0001a115fe,64d2fd46c836a06233681665,64dc7cf843899dc768c493b8,,,,,,,decisionTrl,resources/DY.BMP,resources/DBN.BMP,Door4,0.346354167,0.013020833,1,0,0,1.2568,optionRight,80,14025,6,29,0,29,0,1,,,,,,,,,,,,,,,,,,,,,,,,,,,,,,,,,,,,,,,
,,,,,,,,2023-08-16_08h39.02.538,HF_wild_card,2022.2.4,Win32,14.94343908,5ace11dc35eccf0001a115fe,64d2fd46c836a06233681665,64dc7cf843899dc768c493b8,,,,,,,sngl,resources/Empty.png,resources/DG.BMP,Door1,0.21484375,0.002604167,1,0,0,0.6918,optionRight,30,14055,6,30,0,30,0,1,,,,,,,,,,,,,,,,,,,,,,,,,,,,,,,,,,,,,,,
,,,,,,,,2023-08-16_08h39.02.538,HF_wild_card,2022.2.4,Win32,14.94343908,5ace11dc35eccf0001a115fe,64d2fd46c836a06233681665,64dc7cf843899dc768c493b8,,,,,,,decisionTrl,resources/DP.BMP,resources/DR.BMP,WildCard_Ex,0.358072917,0.020833333,1,0,0,1.3363,optionRight,45,14100,6,31,0,31,0,1,,,,,,,,,,,,,,,,,,,,,,,,,,,,,,,,,,,,,,,
,,,,,,,,2023-08-16_08h39.02.538,HF_wild_card,2022.2.4,Win32,14.94343908,5ace11dc35eccf0001a115fe,64d2fd46c836a06233681665,64dc7cf843899dc768c493b8,,,,,,,ctch,resources/DY.BMP,resources/DP.BMP,Door3,-0.298177083,0.006510417,1,0,0,1.5001,optionLeft,70,14170,6,32,0,32,0,1,,,,,,,,,,,,,,,,,,,,,,,,,,,,,,,,,,,,,,,
,,,,,,,,2023-08-16_08h39.02.538,HF_wild_card,2022.2.4,Win32,14.94343908,5ace11dc35eccf0001a115fe,64d2fd46c836a06233681665,64dc7cf843899dc768c493b8,,,,,,,sngl,resources/DR.BMP,resources/Empty.png,WildCard_Ex,-0.225260417,-0.010416667,1,0,0,0.6882,optionLeft,45,14215,6,33,0,33,0,1,,,,,,,,,,,,,,,,,,,,,,,,,,,,,,,,,,,,,,,
,,,,,,,,2023-08-16_08h39.02.538,HF_wild_card,2022.2.4,Win32,14.94343908,5ace11dc35eccf0001a115fe,64d2fd46c836a06233681665,64dc7cf843899dc768c493b8,,,,,,,decisionTrl,resources/DG.BMP,resources/DP.BMP,Door2,0.264322917,0.002604167,1,0,0,1.4247,optionRight,40,14255,6,34,0,34,0,1,,,,,,,,,,,,,,,,,,,,,,,,,,,,,,,,,,,,,,,
,,,,,,,,2023-08-16_08h39.02.538,HF_wild_card,2022.2.4,Win32,14.94343908,5ace11dc35eccf0001a115fe,64d2fd46c836a06233681665,64dc7cf843899dc768c493b8,,,,,,,ctch,resources/DP.BMP,resources/DY.BMP,Door3,0.330729167,0.01171875,1,0,0,1.3518,optionRight,70,14325,6,35,0,35,0,1,,,,,,,,,,,,,,,,,,,,,,,,,,,,,,,,,,,,,,,
,,,,,,,,2023-08-16_08h39.02.538,HF_wild_card,2022.2.4,Win32,14.94343908,5ace11dc35eccf0001a115fe,64d2fd46c836a06233681665,64dc7cf843899dc768c493b8,,,,,,,sngl,resources/DP.BMP,resources/Empty.png,Door2,-0.2890625,-0.001302083,1,0,0,0.6944,optionLeft,20,14345,6,36,0,36,0,1,,,,,,,,,,,,,,,,,,,,,,,,,,,,,,,,,,,,,,,
,,,,,,,,2023-08-16_08h39.02.538,HF_wild_card,2022.2.4,Win32,14.94343908,5ace11dc35eccf0001a115fe,64d2fd46c836a06233681665,64dc7cf843899dc768c493b8,,,,,,,ctch,resources/DG.BMP,resources/DBN.BMP,Door4,0.36328125,0.029947917,1,0,0,1.0014,optionRight,60,14405,6,37,0,37,0,1,,,,,,,,,,,,,,,,,,,,,,,,,,,,,,,,,,,,,,,
,,,,,,,,2023-08-16_08h39.02.538,HF_wild_card,2022.2.4,Win32,14.94343908,5ace11dc35eccf0001a115fe,64d2fd46c836a06233681665,64dc7cf843899dc768c493b8,,,,,,,ctch,resources/DP.BMP,resources/DY.BMP,Door3,0.342447917,0.020833333,1,0,0,1.0916,optionRight,70,14475,6,38,0,38,0,1,,,,,,,,,,,,,,,,,,,,,,,,,,,,,,,,,,,,,,,
,,,,,,,,2023-08-16_08h39.02.538,HF_wild_card,2022.2.4,Win32,14.94343908,5ace11dc35eccf0001a115fe,64d2fd46c836a06233681665,64dc7cf843899dc768c493b8,,,,,,,decisionTrl,resources/DG.BMP,resources/DP.BMP,Door1,-0.276041667,0.014322917,1,0,0,2.4551,optionLeft,30,14505,6,39,0,39,0,1,,,,,,,,,,,,,,,,,,,,,,,,,,,,,,,,,,,,,,,
,,,,,,,,2023-08-16_08h39.02.538,HF_wild_card,2022.2.4,Win32,14.94343908,5ace11dc35eccf0001a115fe,64d2fd46c836a06233681665,64dc7cf843899dc768c493b8,,,,,,,decisionTrl,resources/DY.BMP,resources/DBN.BMP,Door4,0.236979167,0.055989583,1,0,0,1.355,optionRight,80,14585,6,40,0,40,0,1,,,,,,,,,,,,,,,,,,,,,,,,,,,,,,,,,,,,,,,
,,,,,,,,2023-08-16_08h39.02.538,HF_wild_card,2022.2.4,Win32,14.94343908,5ace11dc35eccf0001a115fe,64d2fd46c836a06233681665,64dc7cf843899dc768c493b8,,,,,,,decisionTrl,resources/DBN.BMP,resources/DY.BMP,Door4,-0.319010417,0.022135417,1,0,0,0.9203,optionLeft,60,14645,6,41,0,41,0,1,,,,,,,,,,,,,,,,,,,,,,,,,,,,,,,,,,,,,,,
,,,,,,,,2023-08-16_08h39.02.538,HF_wild_card,2022.2.4,Win32,14.94343908,5ace11dc35eccf0001a115fe,64d2fd46c836a06233681665,64dc7cf843899dc768c493b8,,,,,,,decisionTrl,resources/DY.BMP,resources/DBN.BMP,Door3,-0.2734375,0.009114583,1,0,0,1.3462,optionLeft,70,14715,6,42,0,42,0,1,,,,,,,,,,,,,,,,,,,,,,,,,,,,,,,,,,,,,,,
,,,,,,,,2023-08-16_08h39.02.538,HF_wild_card,2022.2.4,Win32,14.94343908,5ace11dc35eccf0001a115fe,64d2fd46c836a06233681665,64dc7cf843899dc768c493b8,,,,,,,sngl,resources/DR.BMP,resources/Empty.png,WildCard_Ex,-0.303385417,-0.005208333,1,0,0,0.6878,optionLeft,55,14770,6,43,0,43,0,1,,,,,,,,,,,,,,,,,,,,,,,,,,,,,,,,,,,,,,,
,,,,,,,,2023-08-16_08h39.02.538,HF_wild_card,2022.2.4,Win32,14.94343908,5ace11dc35eccf0001a115fe,64d2fd46c836a06233681665,64dc7cf843899dc768c493b8,,,,,,,,,,,,,,,,,,,,,,,,,,5,0,5,0,1,,,,,,,,,,,,,,,,,,,,,,,,,,,,,,,,,,
,,,,,,,,2023-08-16_08h39.02.538,HF_wild_card,2022.2.4,Win32,14.94343908,5ace11dc35eccf0001a115fe,64d2fd46c836a06233681665,64dc7cf843899dc768c493b8,,,,,,,decisionTrl,resources/DP.BMP,resources/DG.BMP,Door2,-0.360677083,-0.032552083,1,0,0,1.8385,optionLeft,40,14810,7,0,0,0,0,1,,,,,,,,,,,,,,,,,,,,,,,,,,,,,,,,,,,,,,,
,,,,,,,,2023-08-16_08h39.02.538,HF_wild_card,2022.2.4,Win32,14.94343908,5ace11dc35eccf0001a115fe,64d2fd46c836a06233681665,64dc7cf843899dc768c493b8,,,,,,,ctch,resources/DY.BMP,resources/DP.BMP,Door3,-0.24609375,-0.018229167,1,0,0,1.4152,optionLeft,70,14880,7,1,0,1,0,1,,,,,,,,,,,,,,,,,,,,,,,,,,,,,,,,,,,,,,,
,,,,,,,,2023-08-16_08h39.02.538,HF_wild_card,2022.2.4,Win32,14.94343908,5ace11dc35eccf0001a115fe,64d2fd46c836a06233681665,64dc7cf843899dc768c493b8,,,,,,,ctch,resources/DG.BMP,resources/DBN.BMP,Door4,0.2421875,-0.005208333,1,0,0,0.9431,optionRight,80,14960,7,2,0,2,0,1,,,,,,,,,,,,,,,,,,,,,,,,,,,,,,,,,,,,,,,
,,,,,,,,2023-08-16_08h39.02.538,HF_wild_card,2022.2.4,Win32,14.94343908,5ace11dc35eccf0001a115fe,64d2fd46c836a06233681665,64dc7cf843899dc768c493b8,,,,,,,ctch,resources/DP.BMP,resources/DY.BMP,Door3,0.313802083,-0.01953125,1,0,0,1.0004,optionRight,70,15030,7,3,0,3,0,1,,,,,,,,,,,,,,,,,,,,,,,,,,,,,,,,,,,,,,,
,,,,,,,,2023-08-16_08h39.02.538,HF_wild_card,2022.2.4,Win32,14.94343908,5ace11dc35eccf0001a115fe,64d2fd46c836a06233681665,64dc7cf843899dc768c493b8,,,,,,,decisionTrl,resources/DG.BMP,resources/DP.BMP,Door2,0.3203125,-0.00390625,1,0,0,1.4218,optionRight,40,15070,7,4,0,4,0,1,,,,,,,,,,,,,,,,,,,,,,,,,,,,,,,,,,,,,,,
,,,,,,,,2023-08-16_08h39.02.538,HF_wild_card,2022.2.4,Win32,14.94343908,5ace11dc35eccf0001a115fe,64d2fd46c836a06233681665,64dc7cf843899dc768c493b8,,,,,,,decisionTrl,resources/DY.BMP,resources/DBN.BMP,Door3,-0.313802083,0.002604167,1,0,0,1.0005,optionLeft,70,15140,7,5,0,5,0,1,,,,,,,,,,,,,,,,,,,,,,,,,,,,,,,,,,,,,,,
,,,,,,,,2023-08-16_08h39.02.538,HF_wild_card,2022.2.4,Win32,14.94343908,5ace11dc35eccf0001a115fe,64d2fd46c836a06233681665,64dc7cf843899dc768c493b8,,,,,,,decisionTrl,resources/DBN.BMP,resources/DY.BMP,Door4,-0.305989583,-0.016927083,1,0,0,1.3335,optionLeft,80,15220,7,6,0,6,0,1,,,,,,,,,,,,,,,,,,,,,,,,,,,,,,,,,,,,,,,
,,,,,,,,2023-08-16_08h39.02.538,HF_wild_card,2022.2.4,Win32,14.94343908,5ace11dc35eccf0001a115fe,64d2fd46c836a06233681665,64dc7cf843899dc768c493b8,,,,,,,ctch,resources/DP.BMP,resources/DY.BMP,Door3,0.294270833,-0.01953125,1,0,0,1.0023,optionRight,70,15290,7,7,0,7,0,1,,,,,,,,,,,,,,,,,,,,,,,,,,,,,,,,,,,,,,,
,,,,,,,,2023-08-16_08h39.02.538,HF_wild_card,2022.2.4,Win32,14.94343908,5ace11dc35eccf0001a115fe,64d2fd46c836a06233681665,64dc7cf843899dc768c493b8,,,,,,,decisionTrl,resources/DP.BMP,resources/DG.BMP,Door2,-0.345052083,-0.03515625,1,0,0,1.8429,optionLeft,20,15310,7,8,0,8,0,1,,,,,,,,,,,,,,,,,,,,,,,,,,,,,,,,,,,,,,,
,,,,,,,,2023-08-16_08h39.02.538,HF_wild_card,2022.2.4,Win32,14.94343908,5ace11dc35eccf0001a115fe,64d2fd46c836a06233681665,64dc7cf843899dc768c493b8,,,,,,,decisionTrl,resources/DG.BMP,resources/DP.BMP,Door2,0.229166667,0.016927083,1,0,0,1.0899,optionRight,40,15350,7,9,0,9,0,1,,,,,,,,,,,,,,,,,,,,,,,,,,,,,,,,,,,,,,,
,,,,,,,,2023-08-16_08h39.02.538,HF_wild_card,2022.2.4,Win32,14.94343908,5ace11dc35eccf0001a115fe,64d2fd46c836a06233681665,64dc7cf843899dc768c493b8,,,,,,,decisionTrl,resources/DBN.BMP,resources/DY.BMP,Door4,-0.29296875,0.006510417,1,0,0,1.4144,optionLeft,60,15410,7,10,0,10,0,1,,,,,,,,,,,,,,,,,,,,,,,,,,,,,,,,,,,,,,,
,,,,,,,,2023-08-16_08h39.02.538,HF_wild_card,2022.2.4,Win32,14.94343908,5ace11dc35eccf0001a115fe,64d2fd46c836a06233681665,64dc7cf843899dc768c493b8,,,,,,,ctch,resources/DBN.BMP,resources/DG.BMP,Door4,-0.32421875,-0.013020833,1,0,0,0.9214,optionLeft,80,15490,7,11,0,11,0,1,,,,,,,,,,,,,,,,,,,,,,,,,,,,,,,,,,,,,,,
,,,,,,,,2023-08-16_08h39.02.538,HF_wild_card,2022.2.4,Win32,14.94343908,5ace11dc35eccf0001a115fe,64d2fd46c836a06233681665,64dc7cf843899dc768c493b8,,,,,,,decisionTrl,resources/DBN.BMP,resources/DY.BMP,Door4,-0.295572917,-0.03125,1,0,0,1.2495,optionLeft,60,15550,7,12,0,12,0,1,,,,,,,,,,,,,,,,,,,,,,,,,,,,,,,,,,,,,,,
,,,,,,,,2023-08-16_08h39.02.538,HF_wild_card,2022.2.4,Win32,14.94343908,5ace11dc35eccf0001a115fe,64d2fd46c836a06233681665,64dc7cf843899dc768c493b8,,,,,,,decisionTrl,resources/DP.BMP,resources/DG.BMP,Door1,0.373697917,0.002604167,1,0,0,1.4911,optionRight,30,15580,7,13,0,13,0,1,,,,,,,,,,,,,,,,,,,,,,,,,,,,,,,,,,,,,,,
,,,,,,,,2023-08-16_08h39.02.538,HF_wild_card,2022.2.4,Win32,14.94343908,5ace11dc35eccf0001a115fe,64d2fd46c836a06233681665,64dc7cf843899dc768c493b8,,,,,,,decisionTrl,resources/DBN.BMP,resources/DY.BMP,Door4,-0.3046875,0.001302083,1,0,0,1.0018,optionLeft,60,15640,7,14,0,14,0,1,,,,,,,,,,,,,,,,,,,,,,,,,,,,,,,,,,,,,,,
,,,,,,,,2023-08-16_08h39.02.538,HF_wild_card,2022.2.4,Win32,14.94343908,5ace11dc35eccf0001a115fe,64d2fd46c836a06233681665,64dc7cf843899dc768c493b8,,,,,,,decisionTrl,resources/DG.BMP,resources/DP.BMP,Door2,0.290364583,-0.01171875,1,0,0,1.6622,optionRight,40,15680,7,15,0,15,0,1,,,,,,,,,,,,,,,,,,,,,,,,,,,,,,,,,,,,,,,
,,,,,,,,2023-08-16_08h39.02.538,HF_wild_card,2022.2.4,Win32,14.94343908,5ace11dc35eccf0001a115fe,64d2fd46c836a06233681665,64dc7cf843899dc768c493b8,,,,,,,decisionTrl,resources/DY.BMP,resources/DBN.BMP,Door4,0.252604167,0.022135417,1,0,0,1.0923,optionRight,80,15760,7,16,0,16,0,1,,,,,,,,,,,,,,,,,,,,,,,,,,,,,,,,,,,,,,,
,,,,,,,,2023-08-16_08h39.02.538,HF_wild_card,2022.2.4,Win32,14.94343908,5ace11dc35eccf0001a115fe,64d2fd46c836a06233681665,64dc7cf843899dc768c493b8,,,,,,,decisionTrl,resources/DP.BMP,resources/DG.BMP,Door1,0.354166667,0.009114583,1,0,0,1.4109,optionRight,30,15790,7,17,0,17,0,1,,,,,,,,,,,,,,,,,,,,,,,,,,,,,,,,,,,,,,,
,,,,,,,,2023-08-16_08h39.02.538,HF_wild_card,2022.2.4,Win32,14.94343908,5ace11dc35eccf0001a115fe,64d2fd46c836a06233681665,64dc7cf843899dc768c493b8,,,,,,,decisionTrl,resources/DY.BMP,resources/DBN.BMP,Door4,0.313802083,0.014322917,1,0,0,1.1654,optionRight,60,15850,7,18,0,18,0,1,,,,,,,,,,,,,,,,,,,,,,,,,,,,,,,,,,,,,,,
,,,,,,,,2023-08-16_08h39.02.538,HF_wild_card,2022.2.4,Win32,14.94343908,5ace11dc35eccf0001a115fe,64d2fd46c836a06233681665,64dc7cf843899dc768c493b8,,,,,,,decisionTrl,resources/DBN.BMP,resources/DY.BMP,Door4,-0.338541667,-0.0078125,1,0,0,1.2475,optionLeft,60,15910,7,19,0,19,0,1,,,,,,,,,,,,,,,,,,,,,,,,,,,,,,,,,,,,,,,
,,,,,,,,2023-08-16_08h39.02.538,HF_wild_card,2022.2.4,Win32,14.94343908,5ace11dc35eccf0001a115fe,64d2fd46c836a06233681665,64dc7cf843899dc768c493b8,,,,,,,decisionTrl,resources/DG.BMP,resources/DP.BMP,Door2,0.3671875,-0.010416667,1,0,0,2.4177,optionRight,20,15930,7,20,0,20,0,1,,,,,,,,,,,,,,,,,,,,,,,,,,,,,,,,,,,,,,,
,,,,,,,,2023-08-16_08h39.02.538,HF_wild_card,2022.2.4,Win32,14.94343908,5ace11dc35eccf0001a115fe,64d2fd46c836a06233681665,64dc7cf843899dc768c493b8,,,,,,,decisionTrl,resources/DY.BMP,resources/DBN.BMP,Door4,0.2109375,0.005208333,1,0,0,1.0088,optionRight,80,16010,7,21,0,21,0,1,,,,,,,,,,,,,,,,,,,,,,,,,,,,,,,,,,,,,,,
,,,,,,,,2023-08-16_08h39.02.538,HF_wild_card,2022.2.4,Win32,14.94343908,5ace11dc35eccf0001a115fe,64d2fd46c836a06233681665,64dc7cf843899dc768c493b8,,,,,,,ctch,resources/DY.BMP,resources/DP.BMP,Door3,-0.256510417,-0.015625,1,0,0,1.8508,optionLeft,70,16080,7,22,0,22,0,1,,,,,,,,,,,,,,,,,,,,,,,,,,,,,,,,,,,,,,,
,,,,,,,,2023-08-16_08h39.02.538,HF_wild_card,2022.2.4,Win32,14.94343908,5ace11dc35eccf0001a115fe,64d2fd46c836a06233681665,64dc7cf843899dc768c493b8,,,,,,,decisionTrl,resources/DG.BMP,resources/DP.BMP,Door2,0.266927083,0.005208333,1,0,0,1.0793,optionRight,20,16100,7,23,0,23,0,1,,,,,,,,,,,,,,,,,,,,,,,,,,,,,,,,,,,,,,,
,,,,,,,,2023-08-16_08h39.02.538,HF_wild_card,2022.2.4,Win32,14.94343908,5ace11dc35eccf0001a115fe,64d2fd46c836a06233681665,64dc7cf843899dc768c493b8,,,,,,,ctch,resources/DG.BMP,resources/DBN.BMP,Door4,0.34375,0.033854167,1,0,0,1.0863,optionRight,80,16180,7,24,0,24,0,1,,,,,,,,,,,,,,,,,,,,,,,,,,,,,,,,,,,,,,,
,,,,,,,,2023-08-16_08h39.02.538,HF_wild_card,2022.2.4,Win32,14.94343908,5ace11dc35eccf0001a115fe,64d2fd46c836a06233681665,64dc7cf843899dc768c493b8,,,,,,,decisionTrl,resources/DBN.BMP,resources/DY.BMP,Door4,-0.27734375,-0.015625,1,0,0,1.0063,optionLeft,60,16240,7,25,0,25,0,1,,,,,,,,,,,,,,,,,,,,,,,,,,,,,,,,,,,,,,,
,,,,,,,,2023-08-16_08h39.02.538,HF_wild_card,2022.2.4,Win32,14.94343908,5ace11dc35eccf0001a115fe,64d2fd46c836a06233681665,64dc7cf843899dc768c493b8,,,,,,,ctch,resources/DY.BMP,resources/DP.BMP,Door3,-0.354166667,-0.049479167,1,0,0,1.2562,optionLeft,70,16310,7,26,0,26,0,1,,,,,,,,,,,,,,,,,,,,,,,,,,,,,,,,,,,,,,,
,,,,,,,,2023-08-16_08h39.02.538,HF_wild_card,2022.2.4,Win32,14.94343908,5ace11dc35eccf0001a115fe,64d2fd46c836a06233681665,64dc7cf843899dc768c493b8,,,,,,,ctch,resources/DBN.BMP,resources/DG.BMP,Door4,-0.346354167,0.014322917,1,0,0,0.9267,optionLeft,80,16390,7,27,0,27,0,1,,,,,,,,,,,,,,,,,,,,,,,,,,,,,,,,,,,,,,,
,,,,,,,,2023-08-16_08h39.02.538,HF_wild_card,2022.2.4,Win32,14.94343908,5ace11dc35eccf0001a115fe,64d2fd46c836a06233681665,64dc7cf843899dc768c493b8,,,,,,,decisionTrl,resources/DP.BMP,resources/DG.BMP,Door1,0.263020833,0.022135417,1,0,0,0.9967,optionRight,30,16420,7,28,0,28,0,1,,,,,,,,,,,,,,,,,,,,,,,,,,,,,,,,,,,,,,,
,,,,,,,,2023-08-16_08h39.02.538,HF_wild_card,2022.2.4,Win32,14.94343908,5ace11dc35eccf0001a115fe,64d2fd46c836a06233681665,64dc7cf843899dc768c493b8,,,,,,,ctch,resources/DBN.BMP,resources/DG.BMP,Door4,-0.361979167,-0.020833333,1,0,0,0.7769,optionLeft,80,16500,7,29,0,29,0,1,,,,,,,,,,,,,,,,,,,,,,,,,,,,,,,,,,,,,,,
,,,,,,,,2023-08-16_08h39.02.538,HF_wild_card,2022.2.4,Win32,14.94343908,5ace11dc35eccf0001a115fe,64d2fd46c836a06233681665,64dc7cf843899dc768c493b8,,,,,,,ctch,resources/DG.BMP,resources/DBN.BMP,Door4,0.302083333,0.015625,1,0,0,0.9144,optionRight,80,16580,7,30,0,30,0,1,,,,,,,,,,,,,,,,,,,,,,,,,,,,,,,,,,,,,,,
,,,,,,,,2023-08-16_08h39.02.538,HF_wild_card,2022.2.4,Win32,14.94343908,5ace11dc35eccf0001a115fe,64d2fd46c836a06233681665,64dc7cf843899dc768c493b8,,,,,,,decisionTrl,resources/DY.BMP,resources/DBN.BMP,Door4,0.23828125,0.026041667,1,0,0,1.1704,optionRight,60,16640,7,31,0,31,0,1,,,,,,,,,,,,,,,,,,,,,,,,,,,,,,,,,,,,,,,
,,,,,,,,2023-08-16_08h39.02.538,HF_wild_card,2022.2.4,Win32,14.94343908,5ace11dc35eccf0001a115fe,64d2fd46c836a06233681665,64dc7cf843899dc768c493b8,,,,,,,decisionTrl,resources/DG.BMP,resources/DP.BMP,Door2,0.30078125,-0.01171875,1,0,0,1.3362,optionRight,20,16660,7,32,0,32,0,1,,,,,,,,,,,,,,,,,,,,,,,,,,,,,,,,,,,,,,,
,,,,,,,,2023-08-16_08h39.02.538,HF_wild_card,2022.2.4,Win32,14.94343908,5ace11dc35eccf0001a115fe,64d2fd46c836a06233681665,64dc7cf843899dc768c493b8,,,,,,,ctch,resources/DP.BMP,resources/DY.BMP,Door3,0.321614583,0.016927083,1,0,0,0.8336,optionRight,70,16730,7,33,0,33,0,1,,,,,,,,,,,,,,,,,,,,,,,,,,,,,,,,,,,,,,,
,,,,,,,,2023-08-16_08h39.02.538,HF_wild_card,2022.2.4,Win32,14.94343908,5ace11dc35eccf0001a115fe,64d2fd46c836a06233681665,64dc7cf843899dc768c493b8,,,,,,,decisionTrl,resources/DY.BMP,resources/DBN.BMP,Door4,0.26171875,0.033854167,1,0,0,1.087,optionRight,60,16790,7,34,0,34,0,1,,,,,,,,,,,,,,,,,,,,,,,,,,,,,,,,,,,,,,,
,,,,,,,,2023-08-16_08h39.02.538,HF_wild_card,2022.2.4,Win32,14.94343908,5ace11dc35eccf0001a115fe,64d2fd46c836a06233681665,64dc7cf843899dc768c493b8,,,,,,,decisionTrl,resources/DP.BMP,resources/DG.BMP,Door2,-0.26953125,0,1,0,0,1.9173,optionLeft,40,16830,7,35,0,35,0,1,,,,,,,,,,,,,,,,,,,,,,,,,,,,,,,,,,,,,,,
,,,,,,,,2023-08-16_08h39.02.538,HF_wild_card,2022.2.4,Win32,14.94343908,5ace11dc35eccf0001a115fe,64d2fd46c836a06233681665,64dc7cf843899dc768c493b8,,,,,,,,,,,,,,,,,,,,,,,,,,6,0,6,0,1,,,,,,,,,,,,,,,,,,,,,,,,,,,,,,,,,,
,,,,,,,,2023-08-16_08h39.02.538,HF_wild_card,2022.2.4,Win32,14.94343908,5ace11dc35eccf0001a115fe,64d2fd46c836a06233681665,64dc7cf843899dc768c493b8,,,,,,,,,,,,,,,,,,,,,,,,,,,,,,,4,,,,,,,,,,,,,,,,,,,,,,,,,,,,,,,,,
,,,,,,,,2023-08-16_08h39.02.538,HF_wild_card,2022.2.4,Win32,14.94343908,5ace11dc35eccf0001a115fe,64d2fd46c836a06233681665,64dc7cf843899dc768c493b8,,,,,,,,,,,,,,,,,,,,,,,,,,,,,,,,,,,,,,,,,,,,,,,,,,,,,,,,,,,,,,,,
,,,,,,,,2023-08-16_08h39.02.538,HF_wild_card,2022.2.4,Win32,14.94343908,5ace11dc35eccf0001a115fe,64d2fd46c836a06233681665,64dc7cf843899dc768c493b8,,,,,,,,,,,,,,,,,,,,,,,,,,,,,,,,40,Door2,resources/DP.BMP,0,0,0,0,1,,,,,,,,,,,,,,,,,,,,,,,,,
,,,,,,,,2023-08-16_08h39.02.538,HF_wild_card,2022.2.4,Win32,14.94343908,5ace11dc35eccf0001a115fe,64d2fd46c836a06233681665,64dc7cf843899dc768c493b8,,,,,,,,,,,,,,,,,,,,,,,,,,,,,,,,80,Door4,resources/DBN.BMP,1,0,1,0,1,,,,,,,,,,,,,,,,,,,,,,,,,
,,,,,,,,2023-08-16_08h39.02.538,HF_wild_card,2022.2.4,Win32,14.94343908,5ace11dc35eccf0001a115fe,64d2fd46c836a06233681665,64dc7cf843899dc768c493b8,,,,,,,,,,,,,,,,,,,,,,,,,,,,,,,,20,Door1,resources/DG.BMP,2,0,2,0,1,,,,,,,,,,,,,,,,,,,,,,,,,
,,,,,,,,2023-08-16_08h39.02.538,HF_wild_card,2022.2.4,Win32,14.94343908,5ace11dc35eccf0001a115fe,64d2fd46c836a06233681665,64dc7cf843899dc768c493b8,,,,,,,,,,,,,,,,,,,,,,,,,,,,,,,,70,Door3,resources/DY.BMP,3,0,3,0,1,,,,,,,,,,,,,,,,,,,,,,,,,
,,,,,,,,2023-08-16_08h39.02.538,HF_wild_card,2022.2.4,Win32,14.94343908,5ace11dc35eccf0001a115fe,64d2fd46c836a06233681665,64dc7cf843899dc768c493b8,,,,,,,,,,,,,,,,,,,,,,,,,,,,,,,,40,WC_nonExtreme,resources/DB.BMP,4,0,4,0,1,,,,,,,,,,,,,,,,,,,,,,,,,
,,,,,,,,2023-08-16_08h39.02.538,HF_wild_card,2022.2.4,Win32,14.94343908,5ace11dc35eccf0001a115fe,64d2fd46c836a06233681665,64dc7cf843899dc768c493b8,,,,,,,,,,,,,,,,,,,,,,,,,,,,,,,,55,WC_extreme,resources/DR.BMP,5,0,5,0,1,,,,,,,,,,,,,,,,,,,,,,,,,
,,,,,,,,2023-08-16_08h39.02.538,HF_wild_card,2022.2.4,Win32,14.94343908,5ace11dc35eccf0001a115fe,64d2fd46c836a06233681665,64dc7cf843899dc768c493b8,,,,,,,,,,,,,,,,,,,,,,,,,,,,,,,,,,,,,,,,,,,,,,,,,,,,,,,,,,,,,,,,
,,,,,,,,2023-08-16_08h39.02.538,HF_wild_card,2022.2.4,Win32,14.94343908,5ace11dc35eccf0001a115fe,64d2fd46c836a06233681665,64dc7cf843899dc768c493b8,,,,,,,,,,,,,,,,,,,,,,,,,,,,,,,,,,,,,,,,0,0,0,0,1,,,,,,,,,,,,,,,,,,,,
