Condition,Low fixed image (Door1),Low risky image (Door2),High fixed image (Door3),High risky image (Door4),NonExtreme Wild Card 1,NonExtreme Wild Card 2,,date,expName,psychopyVersion,OS,frameRate,PROLIFIC_PID,STUDY_ID,SESSION_ID,mouse_2.x,mouse_2.y,mouse_2.leftButton,mouse_2.midButton,mouse_2.rightButton,mouse_2.clicked_name,Trial Type,Left Option Image,Right Option Image,Chosen Door,mouse.x,mouse.y,mouse.leftButton,mouse.midButton,mouse.rightButton,mouse.time,mouse.clicked_name,Feedback,Cumulative Reward,Block,trial.thisRepN,trial.thisTrialN,trial.thisN,trial.thisIndex,trial.ran,blocks.thisRepN,blocks.thisTrialN,blocks.thisN,blocks.thisIndex,blocks.ran,Money conversion,First Outcome Reported,Shown Door (First Outcome),Displayed Image (First Outcome),outcomes.thisRepN,outcomes.thisTrialN,outcomes.thisN,outcomes.thisIndex,outcomes.ran,judgments.thisRepN,judgments.thisTrialN,judgments.thisN,judgments.thisIndex,judgments.ran,freqMouse.x,freqMouse.y,freqMouse.leftButton,freqMouse.midButton,freqMouse.rightButton,freqMouse.clicked_name,FQJ for first outcome,FQJ for second outcome,Shown Door,Displayed Image,trials.thisRepN,trials.thisTrialN,trials.thisN,trials.thisIndex,trials.ran,judgBlock.thisRepN,judgBlock.thisTrialN,judgBlock.thisN,judgBlock.thisIndex,judgBlock.ran
2,resources/DP.BMP,resources/DBN.BMP,resources/DY.BMP,resources/DG.BMP,resources/DB.BMP,resources/DR.BMP,,2023-08-16_08h37.13.009,HF_wild_card,2022.2.4,Win32,59.96282305,6389bd5d820b83080e2fc60a,64d2fd46c836a06233681665,64dc7c9aae035b106c2eb100,,,,,,,,,,,,,,,,,,,,,,,,,,,,,,,,,,,,,,,,,,,,,,,,,,,,,,,,,,,,,,,,
,,,,,,,,2023-08-16_08h37.13.009,HF_wild_card,2022.2.4,Win32,59.96282305,6389bd5d820b83080e2fc60a,64d2fd46c836a06233681665,64dc7c9aae035b106c2eb100,0.011111153,-0.418055534,1,0,0,agree,,,,,,,,,,,,,,,,,,,,,,,,,,,,,,,,,,,,,,,,,,,,,,,,,,,,,,,,,,
,,,,,,,,2023-08-16_08h37.13.009,HF_wild_card,2022.2.4,Win32,59.96282305,6389bd5d820b83080e2fc60a,64d2fd46c836a06233681665,64dc7c9aae035b106c2eb100,,,,,,,,,,,,,,,,,,,,,,,,,,,,,,,,,,,,,,,,,,,,,,,,,,,,,,,,,,,,,,,,
,,,,,,,,2023-08-16_08h37.13.009,HF_wild_card,2022.2.4,Win32,59.96282305,6389bd5d820b83080e2fc60a,64d2fd46c836a06233681665,64dc7c9aae035b106c2eb100,,,,,,,decisionTrl,resources/DBN.BMP,resources/DP.BMP,Door1,0.575694508,-0.070833365,1,0,0,6.2445,optionRight,30,30,1,0,0,0,0,1,,,,,,,,,,,,,,,,,,,,,,,,,,,,,,,,,,,,,,,
,,,,,,,,2023-08-16_08h37.13.009,HF_wild_card,2022.2.4,Win32,59.96282305,6389bd5d820b83080e2fc60a,64d2fd46c836a06233681665,64dc7c9aae035b106c2eb100,,,,,,,decisionTrl,resources/DP.BMP,resources/DBN.BMP,Door1,-0.334027767,-0.121527778,1,0,0,4.1502,optionLeft,30,60,1,1,0,1,0,1,,,,,,,,,,,,,,,,,,,,,,,,,,,,,,,,,,,,,,,
,,,,,,,,2023-08-16_08h37.13.009,HF_wild_card,2022.2.4,Win32,59.96282305,6389bd5d820b83080e2fc60a,64d2fd46c836a06233681665,64dc7c9aae035b106c2eb100,,,,,,,sngl,resources/DR.BMP,resources/Empty.png,WildCard_NonEx,-0.364583333,-0.108333323,1,0,0,1.7665,optionLeft,45,105,1,2,0,2,0,1,,,,,,,,,,,,,,,,,,,,,,,,,,,,,,,,,,,,,,,
,,,,,,,,2023-08-16_08h37.13.009,HF_wild_card,2022.2.4,Win32,59.96282305,6389bd5d820b83080e2fc60a,64d2fd46c836a06233681665,64dc7c9aae035b106c2eb100,,,,,,,decisionTrl,resources/DR.BMP,resources/DG.BMP,Door4,0.260416667,-0.153472212,1,0,0,3.2171,optionRight,60,165,1,3,0,3,0,1,,,,,,,,,,,,,,,,,,,,,,,,,,,,,,,,,,,,,,,
,,,,,,,,2023-08-16_08h37.13.009,HF_wild_card,2022.2.4,Win32,59.96282305,6389bd5d820b83080e2fc60a,64d2fd46c836a06233681665,64dc7c9aae035b106c2eb100,,,,,,,decisionTrl,resources/DR.BMP,resources/DP.BMP,Door1,0.290277799,-0.135416667,1,0,0,4.0032,optionRight,30,195,1,4,0,4,0,1,,,,,,,,,,,,,,,,,,,,,,,,,,,,,,,,,,,,,,,
,,,,,,,,2023-08-16_08h37.13.009,HF_wild_card,2022.2.4,Win32,59.96282305,6389bd5d820b83080e2fc60a,64d2fd46c836a06233681665,64dc7c9aae035b106c2eb100,,,,,,,ctch,resources/DP.BMP,resources/DG.BMP,Door1,-0.286805524,-0.113888899,1,0,0,1.4501,optionLeft,30,225,1,5,0,5,0,1,,,,,,,,,,,,,,,,,,,,,,,,,,,,,,,,,,,,,,,
,,,,,,,,2023-08-16_08h37.13.009,HF_wild_card,2022.2.4,Win32,59.96282305,6389bd5d820b83080e2fc60a,64d2fd46c836a06233681665,64dc7c9aae035b106c2eb100,,,,,,,decisionTrl,resources/DY.BMP,resources/DG.BMP,Door3,-0.274305556,-0.093055566,1,0,0,1.3825,optionLeft,70,295,1,6,0,6,0,1,,,,,,,,,,,,,,,,,,,,,,,,,,,,,,,,,,,,,,,
,,,,,,,,2023-08-16_08h37.13.009,HF_wild_card,2022.2.4,Win32,59.96282305,6389bd5d820b83080e2fc60a,64d2fd46c836a06233681665,64dc7c9aae035b106c2eb100,,,,,,,sngl,resources/DBN.BMP,resources/Empty.png,Door2,-0.19236109,-0.079166677,1,0,0,1.2327,optionLeft,40,335,1,7,0,7,0,1,,,,,,,,,,,,,,,,,,,,,,,,,,,,,,,,,,,,,,,
,,,,,,,,2023-08-16_08h37.13.009,HF_wild_card,2022.2.4,Win32,59.96282305,6389bd5d820b83080e2fc60a,64d2fd46c836a06233681665,64dc7c9aae035b106c2eb100,,,,,,,decisionTrl,resources/DBN.BMP,resources/DR.BMP,WildCard_NonEx,0.280555619,-0.111805545,1,0,0,3.4853,optionRight,55,390,1,8,0,8,0,1,,,,,,,,,,,,,,,,,,,,,,,,,,,,,,,,,,,,,,,
,,,,,,,,2023-08-16_08h37.13.009,HF_wild_card,2022.2.4,Win32,59.96282305,6389bd5d820b83080e2fc60a,64d2fd46c836a06233681665,64dc7c9aae035b106c2eb100,,,,,,,ctch,resources/DBN.BMP,resources/DY.BMP,Door3,0.291666667,-0.055555556,1,0,0,1.5279,optionRight,70,460,1,9,0,9,0,1,,,,,,,,,,,,,,,,,,,,,,,,,,,,,,,,,,,,,,,
,,,,,,,,2023-08-16_08h37.13.009,HF_wild_card,2022.2.4,Win32,59.96282305,6389bd5d820b83080e2fc60a,64d2fd46c836a06233681665,64dc7c9aae035b106c2eb100,,,,,,,ctch,resources/DY.BMP,resources/DBN.BMP,Door3,-0.224305524,-0.106944455,1,0,0,1.9163,optionLeft,70,530,1,10,0,10,0,1,,,,,,,,,,,,,,,,,,,,,,,,,,,,,,,,,,,,,,,
,,,,,,,,2023-08-16_08h37.13.009,HF_wild_card,2022.2.4,Win32,59.96282305,6389bd5d820b83080e2fc60a,64d2fd46c836a06233681665,64dc7c9aae035b106c2eb100,,,,,,,ctch,resources/DG.BMP,resources/DP.BMP,Door4,-0.247916645,-0.085416688,1,0,0,1.6844,optionLeft,60,590,1,11,0,11,0,1,,,,,,,,,,,,,,,,,,,,,,,,,,,,,,,,,,,,,,,
,,,,,,,,2023-08-16_08h37.13.009,HF_wild_card,2022.2.4,Win32,59.96282305,6389bd5d820b83080e2fc60a,64d2fd46c836a06233681665,64dc7c9aae035b106c2eb100,,,,,,,decisionTrl,resources/DP.BMP,resources/DBN.BMP,Door1,-0.289583312,-0.077083323,1,0,0,2.0336,optionLeft,30,620,1,12,0,12,0,1,,,,,,,,,,,,,,,,,,,,,,,,,,,,,,,,,,,,,,,
,,,,,,,,2023-08-16_08h37.13.009,HF_wild_card,2022.2.4,Win32,59.96282305,6389bd5d820b83080e2fc60a,64d2fd46c836a06233681665,64dc7c9aae035b106c2eb100,,,,,,,sngl,resources/DR.BMP,resources/Empty.png,WildCard_NonEx,-0.219444434,-0.060416698,1,0,0,0.9998,optionLeft,55,675,1,13,0,13,0,1,,,,,,,,,,,,,,,,,,,,,,,,,,,,,,,,,,,,,,,
,,,,,,,,2023-08-16_08h37.13.009,HF_wild_card,2022.2.4,Win32,59.96282305,6389bd5d820b83080e2fc60a,64d2fd46c836a06233681665,64dc7c9aae035b106c2eb100,,,,,,,decisionTrl,resources/DR.BMP,resources/DBN.BMP,WildCard_NonEx,-0.186805566,-0.055555556,1,0,0,2.1509,optionLeft,55,730,1,14,0,14,0,1,,,,,,,,,,,,,,,,,,,,,,,,,,,,,,,,,,,,,,,
,,,,,,,,2023-08-16_08h37.13.009,HF_wild_card,2022.2.4,Win32,59.96282305,6389bd5d820b83080e2fc60a,64d2fd46c836a06233681665,64dc7c9aae035b106c2eb100,,,,,,,sngl,resources/Empty.png,resources/DP.BMP,Door1,0.303472201,-0.022222254,1,0,0,1.0325,optionRight,30,760,1,15,0,15,0,1,,,,,,,,,,,,,,,,,,,,,,,,,,,,,,,,,,,,,,,
,,,,,,,,2023-08-16_08h37.13.009,HF_wild_card,2022.2.4,Win32,59.96282305,6389bd5d820b83080e2fc60a,64d2fd46c836a06233681665,64dc7c9aae035b106c2eb100,,,,,,,ctch,resources/DG.BMP,resources/DP.BMP,Door1,0.270138952,-0.03125,1,0,0,1.9343,optionRight,30,790,1,16,0,16,0,1,,,,,,,,,,,,,,,,,,,,,,,,,,,,,,,,,,,,,,,
,,,,,,,,2023-08-16_08h37.13.009,HF_wild_card,2022.2.4,Win32,59.96282305,6389bd5d820b83080e2fc60a,64d2fd46c836a06233681665,64dc7c9aae035b106c2eb100,,,,,,,decisionTrl,resources/DBN.BMP,resources/DP.BMP,Door1,0.289583312,-0.020833333,1,0,0,1.8322,optionRight,30,820,1,17,0,17,0,1,,,,,,,,,,,,,,,,,,,,,,,,,,,,,,,,,,,,,,,
,,,,,,,,2023-08-16_08h37.13.009,HF_wild_card,2022.2.4,Win32,59.96282305,6389bd5d820b83080e2fc60a,64d2fd46c836a06233681665,64dc7c9aae035b106c2eb100,,,,,,,decisionTrl,resources/DP.BMP,resources/DBN.BMP,Door2,0.351388931,-0.020833333,1,0,0,2.3174,optionRight,40,860,1,18,0,18,0,1,,,,,,,,,,,,,,,,,,,,,,,,,,,,,,,,,,,,,,,
,,,,,,,,2023-08-16_08h37.13.009,HF_wild_card,2022.2.4,Win32,59.96282305,6389bd5d820b83080e2fc60a,64d2fd46c836a06233681665,64dc7c9aae035b106c2eb100,,,,,,,decisionTrl,resources/DP.BMP,resources/DBN.BMP,Door2,0.361111111,-0.017361111,1,0,0,1.583,optionRight,20,880,1,19,0,19,0,1,,,,,,,,,,,,,,,,,,,,,,,,,,,,,,,,,,,,,,,
,,,,,,,,2023-08-16_08h37.13.009,HF_wild_card,2022.2.4,Win32,59.96282305,6389bd5d820b83080e2fc60a,64d2fd46c836a06233681665,64dc7c9aae035b106c2eb100,,,,,,,sngl,resources/DY.BMP,resources/Empty.png,Door3,-0.179861122,-0.052083333,1,0,0,1.0171,optionLeft,70,950,1,20,0,20,0,1,,,,,,,,,,,,,,,,,,,,,,,,,,,,,,,,,,,,,,,
,,,,,,,,2023-08-16_08h37.13.009,HF_wild_card,2022.2.4,Win32,59.96282305,6389bd5d820b83080e2fc60a,64d2fd46c836a06233681665,64dc7c9aae035b106c2eb100,,,,,,,ctch,resources/DY.BMP,resources/DBN.BMP,Door3,-0.274999989,-0.084027767,1,0,0,2.0337,optionLeft,70,1020,1,21,0,21,0,1,,,,,,,,,,,,,,,,,,,,,,,,,,,,,,,,,,,,,,,
,,,,,,,,2023-08-16_08h37.13.009,HF_wild_card,2022.2.4,Win32,59.96282305,6389bd5d820b83080e2fc60a,64d2fd46c836a06233681665,64dc7c9aae035b106c2eb100,,,,,,,decisionTrl,resources/DP.BMP,resources/DR.BMP,Door1,-0.168749968,-0.068055577,1,0,0,1.4007,optionLeft,30,1050,1,22,0,22,0,1,,,,,,,,,,,,,,,,,,,,,,,,,,,,,,,,,,,,,,,
,,,,,,,,2023-08-16_08h37.13.009,HF_wild_card,2022.2.4,Win32,59.96282305,6389bd5d820b83080e2fc60a,64d2fd46c836a06233681665,64dc7c9aae035b106c2eb100,,,,,,,decisionTrl,resources/DY.BMP,resources/DG.BMP,Door3,-0.299999979,-0.092361132,1,0,0,1.249,optionLeft,70,1120,1,23,0,23,0,1,,,,,,,,,,,,,,,,,,,,,,,,,,,,,,,,,,,,,,,
,,,,,,,,2023-08-16_08h37.13.009,HF_wild_card,2022.2.4,Win32,59.96282305,6389bd5d820b83080e2fc60a,64d2fd46c836a06233681665,64dc7c9aae035b106c2eb100,,,,,,,sngl,resources/DG.BMP,resources/Empty.png,Door4,-0.199999968,-0.063194434,1,0,0,1.1994,optionLeft,80,1200,1,24,0,24,0,1,,,,,,,,,,,,,,,,,,,,,,,,,,,,,,,,,,,,,,,
,,,,,,,,2023-08-16_08h37.13.009,HF_wild_card,2022.2.4,Win32,59.96282305,6389bd5d820b83080e2fc60a,64d2fd46c836a06233681665,64dc7c9aae035b106c2eb100,,,,,,,sngl,resources/DP.BMP,resources/Empty.png,Door1,-0.220833302,-0.068750011,1,0,0,1.0829,optionLeft,30,1230,1,25,0,25,0,1,,,,,,,,,,,,,,,,,,,,,,,,,,,,,,,,,,,,,,,
,,,,,,,,2023-08-16_08h37.13.009,HF_wild_card,2022.2.4,Win32,59.96282305,6389bd5d820b83080e2fc60a,64d2fd46c836a06233681665,64dc7c9aae035b106c2eb100,,,,,,,decisionTrl,resources/DY.BMP,resources/DG.BMP,Door3,-0.198611101,-0.0625,1,0,0,1.2665,optionLeft,70,1300,1,26,0,26,0,1,,,,,,,,,,,,,,,,,,,,,,,,,,,,,,,,,,,,,,,
,,,,,,,,2023-08-16_08h37.13.009,HF_wild_card,2022.2.4,Win32,59.96282305,6389bd5d820b83080e2fc60a,64d2fd46c836a06233681665,64dc7c9aae035b106c2eb100,,,,,,,sngl,resources/Empty.png,resources/DG.BMP,Door4,0.267361111,-0.034722222,1,0,0,1.0167,optionRight,60,1360,1,27,0,27,0,1,,,,,,,,,,,,,,,,,,,,,,,,,,,,,,,,,,,,,,,
,,,,,,,,2023-08-16_08h37.13.009,HF_wild_card,2022.2.4,Win32,59.96282305,6389bd5d820b83080e2fc60a,64d2fd46c836a06233681665,64dc7c9aae035b106c2eb100,,,,,,,sngl,resources/Empty.png,resources/DR.BMP,WildCard_NonEx,0.267361111,-0.036805577,1,0,0,1.0661,optionRight,55,1415,1,28,0,28,0,1,,,,,,,,,,,,,,,,,,,,,,,,,,,,,,,,,,,,,,,
,,,,,,,,2023-08-16_08h37.13.009,HF_wild_card,2022.2.4,Win32,59.96282305,6389bd5d820b83080e2fc60a,64d2fd46c836a06233681665,64dc7c9aae035b106c2eb100,,,,,,,decisionTrl,resources/DR.BMP,resources/DY.BMP,Door3,0.255555577,-0.018750032,1,0,0,1.3339,optionRight,70,1485,1,29,0,29,0,1,,,,,,,,,,,,,,,,,,,,,,,,,,,,,,,,,,,,,,,
,,,,,,,,2023-08-16_08h37.13.009,HF_wild_card,2022.2.4,Win32,59.96282305,6389bd5d820b83080e2fc60a,64d2fd46c836a06233681665,64dc7c9aae035b106c2eb100,,,,,,,decisionTrl,resources/DY.BMP,resources/DR.BMP,Door3,-0.190277788,-0.088194476,1,0,0,0.9329,optionLeft,70,1555,1,30,0,30,0,1,,,,,,,,,,,,,,,,,,,,,,,,,,,,,,,,,,,,,,,
,,,,,,,,2023-08-16_08h37.13.009,HF_wild_card,2022.2.4,Win32,59.96282305,6389bd5d820b83080e2fc60a,64d2fd46c836a06233681665,64dc7c9aae035b106c2eb100,,,,,,,decisionTrl,resources/DY.BMP,resources/DG.BMP,Door3,-0.214583344,-0.090277778,1,0,0,0.7834,optionLeft,70,1625,1,31,0,31,0,1,,,,,,,,,,,,,,,,,,,,,,,,,,,,,,,,,,,,,,,
,,,,,,,,2023-08-16_08h37.13.009,HF_wild_card,2022.2.4,Win32,59.96282305,6389bd5d820b83080e2fc60a,64d2fd46c836a06233681665,64dc7c9aae035b106c2eb100,,,,,,,sngl,resources/Empty.png,resources/DBN.BMP,Door2,0.222916709,-0.019444466,1,0,0,1.2322,optionRight,20,1645,1,32,0,32,0,1,,,,,,,,,,,,,,,,,,,,,,,,,,,,,,,,,,,,,,,
,,,,,,,,2023-08-16_08h37.13.009,HF_wild_card,2022.2.4,Win32,59.96282305,6389bd5d820b83080e2fc60a,64d2fd46c836a06233681665,64dc7c9aae035b106c2eb100,,,,,,,sngl,resources/Empty.png,resources/DR.BMP,WildCard_NonEx,0.171527757,-0.03125,1,0,0,1.1,optionRight,45,1690,1,33,0,33,0,1,,,,,,,,,,,,,,,,,,,,,,,,,,,,,,,,,,,,,,,
,,,,,,,,2023-08-16_08h37.13.009,HF_wild_card,2022.2.4,Win32,59.96282305,6389bd5d820b83080e2fc60a,64d2fd46c836a06233681665,64dc7c9aae035b106c2eb100,,,,,,,decisionTrl,resources/DG.BMP,resources/DY.BMP,Door3,0.251388868,-0.037500011,1,0,0,1.3492,optionRight,70,1760,1,34,0,34,0,1,,,,,,,,,,,,,,,,,,,,,,,,,,,,,,,,,,,,,,,
,,,,,,,,2023-08-16_08h37.13.009,HF_wild_card,2022.2.4,Win32,59.96282305,6389bd5d820b83080e2fc60a,64d2fd46c836a06233681665,64dc7c9aae035b106c2eb100,,,,,,,ctch,resources/DBN.BMP,resources/DY.BMP,Door2,-0.238888899,-0.078472243,1,0,0,0.8834,optionLeft,20,1780,1,35,0,35,0,1,,,,,,,,,,,,,,,,,,,,,,,,,,,,,,,,,,,,,,,
,,,,,,,,2023-08-16_08h37.13.009,HF_wild_card,2022.2.4,Win32,59.96282305,6389bd5d820b83080e2fc60a,64d2fd46c836a06233681665,64dc7c9aae035b106c2eb100,,,,,,,decisionTrl,resources/DG.BMP,resources/DY.BMP,Door4,-0.229166667,-0.084027767,1,0,0,1.0163,optionLeft,60,1840,1,36,0,36,0,1,,,,,,,,,,,,,,,,,,,,,,,,,,,,,,,,,,,,,,,
,,,,,,,,2023-08-16_08h37.13.009,HF_wild_card,2022.2.4,Win32,59.96282305,6389bd5d820b83080e2fc60a,64d2fd46c836a06233681665,64dc7c9aae035b106c2eb100,,,,,,,decisionTrl,resources/DG.BMP,resources/DR.BMP,Door4,-0.241666635,-0.095138921,1,0,0,3.6197,optionLeft,60,1900,1,37,0,37,0,1,,,,,,,,,,,,,,,,,,,,,,,,,,,,,,,,,,,,,,,
,,,,,,,,2023-08-16_08h37.13.009,HF_wild_card,2022.2.4,Win32,59.96282305,6389bd5d820b83080e2fc60a,64d2fd46c836a06233681665,64dc7c9aae035b106c2eb100,,,,,,,decisionTrl,resources/DG.BMP,resources/DY.BMP,Door4,-0.197222233,-0.095833355,1,0,0,0.8997,optionLeft,80,1980,1,38,0,38,0,1,,,,,,,,,,,,,,,,,,,,,,,,,,,,,,,,,,,,,,,
,,,,,,,,2023-08-16_08h37.13.009,HF_wild_card,2022.2.4,Win32,59.96282305,6389bd5d820b83080e2fc60a,64d2fd46c836a06233681665,64dc7c9aae035b106c2eb100,,,,,,,sngl,resources/Empty.png,resources/DY.BMP,Door3,0.268055598,-0.013888889,1,0,0,0.7832,optionRight,70,2050,1,39,0,39,0,1,,,,,,,,,,,,,,,,,,,,,,,,,,,,,,,,,,,,,,,
,,,,,,,,2023-08-16_08h37.13.009,HF_wild_card,2022.2.4,Win32,59.96282305,6389bd5d820b83080e2fc60a,64d2fd46c836a06233681665,64dc7c9aae035b106c2eb100,,,,,,,decisionTrl,resources/DBN.BMP,resources/DP.BMP,Door1,0.206249979,-0.054166688,1,0,0,1.2845,optionRight,30,2080,1,40,0,40,0,1,,,,,,,,,,,,,,,,,,,,,,,,,,,,,,,,,,,,,,,
,,,,,,,,2023-08-16_08h37.13.009,HF_wild_card,2022.2.4,Win32,59.96282305,6389bd5d820b83080e2fc60a,64d2fd46c836a06233681665,64dc7c9aae035b106c2eb100,,,,,,,decisionTrl,resources/DBN.BMP,resources/DP.BMP,Door1,0.243750042,-0.052083333,1,0,0,0.9508,optionRight,30,2110,1,41,0,41,0,1,,,,,,,,,,,,,,,,,,,,,,,,,,,,,,,,,,,,,,,
,,,,,,,,2023-08-16_08h37.13.009,HF_wild_card,2022.2.4,Win32,59.96282305,6389bd5d820b83080e2fc60a,64d2fd46c836a06233681665,64dc7c9aae035b106c2eb100,,,,,,,decisionTrl,resources/DG.BMP,resources/DY.BMP,Door3,0.156944487,-0.038888878,1,0,0,1.1,optionRight,70,2180,1,42,0,42,0,1,,,,,,,,,,,,,,,,,,,,,,,,,,,,,,,,,,,,,,,
,,,,,,,,2023-08-16_08h37.13.009,HF_wild_card,2022.2.4,Win32,59.96282305,6389bd5d820b83080e2fc60a,64d2fd46c836a06233681665,64dc7c9aae035b106c2eb100,,,,,,,ctch,resources/DP.BMP,resources/DG.BMP,Door1,-0.231249968,-0.118055556,1,0,0,2.2674,optionLeft,30,2210,1,43,0,43,0,1,,,,,,,,,,,,,,,,,,,,,,,,,,,,,,,,,,,,,,,
,,,,,,,,2023-08-16_08h37.13.009,HF_wild_card,2022.2.4,Win32,59.96282305,6389bd5d820b83080e2fc60a,64d2fd46c836a06233681665,64dc7c9aae035b106c2eb100,,,,,,,,,,,,,,,,,,,,,,,,,,0,0,0,0,1,,,,,,,,,,,,,,,,,,,,,,,,,,,,,,,,,,
,,,,,,,,2023-08-16_08h37.13.009,HF_wild_card,2022.2.4,Win32,59.96282305,6389bd5d820b83080e2fc60a,64d2fd46c836a06233681665,64dc7c9aae035b106c2eb100,,,,,,,decisionTrl,resources/DBN.BMP,resources/DP.BMP,Door2,-0.250694434,-0.066666656,1,0,0,3.2484,optionLeft,40,2250,2,0,0,0,0,1,,,,,,,,,,,,,,,,,,,,,,,,,,,,,,,,,,,,,,,
,,,,,,,,2023-08-16_08h37.13.009,HF_wild_card,2022.2.4,Win32,59.96282305,6389bd5d820b83080e2fc60a,64d2fd46c836a06233681665,64dc7c9aae035b106c2eb100,,,,,,,sngl,resources/DR.BMP,resources/Empty.png,WildCard_NonEx,-0.188888868,-0.093055566,1,0,0,1.15,optionLeft,45,2295,2,1,0,1,0,1,,,,,,,,,,,,,,,,,,,,,,,,,,,,,,,,,,,,,,,
,,,,,,,,2023-08-16_08h37.13.009,HF_wild_card,2022.2.4,Win32,59.96282305,6389bd5d820b83080e2fc60a,64d2fd46c836a06233681665,64dc7c9aae035b106c2eb100,,,,,,,decisionTrl,resources/DY.BMP,resources/DG.BMP,Door3,-0.164583312,-0.095833355,1,0,0,1.7829,optionLeft,70,2365,2,2,0,2,0,1,,,,,,,,,,,,,,,,,,,,,,,,,,,,,,,,,,,,,,,
,,,,,,,,2023-08-16_08h37.13.009,HF_wild_card,2022.2.4,Win32,59.96282305,6389bd5d820b83080e2fc60a,64d2fd46c836a06233681665,64dc7c9aae035b106c2eb100,,,,,,,ctch,resources/DBN.BMP,resources/DY.BMP,Door2,-0.153472212,-0.084722254,1,0,0,2.0328,optionLeft,40,2405,2,3,0,3,0,1,,,,,,,,,,,,,,,,,,,,,,,,,,,,,,,,,,,,,,,
,,,,,,,,2023-08-16_08h37.13.009,HF_wild_card,2022.2.4,Win32,59.96282305,6389bd5d820b83080e2fc60a,64d2fd46c836a06233681665,64dc7c9aae035b106c2eb100,,,,,,,decisionTrl,resources/DBN.BMP,resources/DP.BMP,Door1,0.263888889,-0.020833333,1,0,0,1.2819,optionRight,30,2435,2,4,0,4,0,1,,,,,,,,,,,,,,,,,,,,,,,,,,,,,,,,,,,,,,,
,,,,,,,,2023-08-16_08h37.13.009,HF_wild_card,2022.2.4,Win32,59.96282305,6389bd5d820b83080e2fc60a,64d2fd46c836a06233681665,64dc7c9aae035b106c2eb100,,,,,,,sngl,resources/DBN.BMP,resources/Empty.png,Door2,-0.214583344,-0.106944455,1,0,0,0.6986,optionLeft,20,2455,2,5,0,5,0,1,,,,,,,,,,,,,,,,,,,,,,,,,,,,,,,,,,,,,,,
,,,,,,,,2023-08-16_08h37.13.009,HF_wild_card,2022.2.4,Win32,59.96282305,6389bd5d820b83080e2fc60a,64d2fd46c836a06233681665,64dc7c9aae035b106c2eb100,,,,,,,decisionTrl,resources/DR.BMP,resources/DP.BMP,WildCard_NonEx,-0.19236109,-0.099305577,1,0,0,1.7995,optionLeft,45,2500,2,6,0,6,0,1,,,,,,,,,,,,,,,,,,,,,,,,,,,,,,,,,,,,,,,
,,,,,,,,2023-08-16_08h37.13.009,HF_wild_card,2022.2.4,Win32,59.96282305,6389bd5d820b83080e2fc60a,64d2fd46c836a06233681665,64dc7c9aae035b106c2eb100,,,,,,,decisionTrl,resources/DR.BMP,resources/DY.BMP,WildCard_NonEx,-0.173611111,-0.099305577,1,0,0,1.0357,optionLeft,55,2555,2,7,0,7,0,1,,,,,,,,,,,,,,,,,,,,,,,,,,,,,,,,,,,,,,,
,,,,,,,,2023-08-16_08h37.13.009,HF_wild_card,2022.2.4,Win32,59.96282305,6389bd5d820b83080e2fc60a,64d2fd46c836a06233681665,64dc7c9aae035b106c2eb100,,,,,,,ctch,resources/DG.BMP,resources/DP.BMP,Door4,-0.166666667,-0.096527788,1,0,0,1.5528,optionLeft,60,2615,2,8,0,8,0,1,,,,,,,,,,,,,,,,,,,,,,,,,,,,,,,,,,,,,,,
,,,,,,,,2023-08-16_08h37.13.009,HF_wild_card,2022.2.4,Win32,59.96282305,6389bd5d820b83080e2fc60a,64d2fd46c836a06233681665,64dc7c9aae035b106c2eb100,,,,,,,decisionTrl,resources/DG.BMP,resources/DY.BMP,Door4,-0.282638868,-0.138194455,1,0,0,1.0159,optionLeft,60,2675,2,9,0,9,0,1,,,,,,,,,,,,,,,,,,,,,,,,,,,,,,,,,,,,,,,
,,,,,,,,2023-08-16_08h37.13.009,HF_wild_card,2022.2.4,Win32,59.96282305,6389bd5d820b83080e2fc60a,64d2fd46c836a06233681665,64dc7c9aae035b106c2eb100,,,,,,,sngl,resources/Empty.png,resources/DR.BMP,WildCard_NonEx,0.168055534,-0.001388921,1,0,0,0.9823,optionRight,45,2720,2,10,0,10,0,1,,,,,,,,,,,,,,,,,,,,,,,,,,,,,,,,,,,,,,,
,,,,,,,,2023-08-16_08h37.13.009,HF_wild_card,2022.2.4,Win32,59.96282305,6389bd5d820b83080e2fc60a,64d2fd46c836a06233681665,64dc7c9aae035b106c2eb100,,,,,,,decisionTrl,resources/DBN.BMP,resources/DP.BMP,Door1,0.262500021,0,1,0,0,0.8179,optionRight,30,2750,2,11,0,11,0,1,,,,,,,,,,,,,,,,,,,,,,,,,,,,,,,,,,,,,,,
,,,,,,,,2023-08-16_08h37.13.009,HF_wild_card,2022.2.4,Win32,59.96282305,6389bd5d820b83080e2fc60a,64d2fd46c836a06233681665,64dc7c9aae035b106c2eb100,,,,,,,decisionTrl,resources/DY.BMP,resources/DG.BMP,Door4,0.174999979,-0.036805577,1,0,0,0.7648,optionRight,60,2810,2,12,0,12,0,1,,,,,,,,,,,,,,,,,,,,,,,,,,,,,,,,,,,,,,,
,,,,,,,,2023-08-16_08h37.13.009,HF_wild_card,2022.2.4,Win32,59.96282305,6389bd5d820b83080e2fc60a,64d2fd46c836a06233681665,64dc7c9aae035b106c2eb100,,,,,,,decisionTrl,resources/DG.BMP,resources/DY.BMP,Door3,0.233333376,-0.020833333,1,0,0,0.782,optionRight,70,2880,2,13,0,13,0,1,,,,,,,,,,,,,,,,,,,,,,,,,,,,,,,,,,,,,,,
,,,,,,,,2023-08-16_08h37.13.009,HF_wild_card,2022.2.4,Win32,59.96282305,6389bd5d820b83080e2fc60a,64d2fd46c836a06233681665,64dc7c9aae035b106c2eb100,,,,,,,decisionTrl,resources/DR.BMP,resources/DG.BMP,Door4,0.184722265,-0.045833323,1,0,0,1.1159,optionRight,60,2940,2,14,0,14,0,1,,,,,,,,,,,,,,,,,,,,,,,,,,,,,,,,,,,,,,,
,,,,,,,,2023-08-16_08h37.13.009,HF_wild_card,2022.2.4,Win32,59.96282305,6389bd5d820b83080e2fc60a,64d2fd46c836a06233681665,64dc7c9aae035b106c2eb100,,,,,,,decisionTrl,resources/DG.BMP,resources/DR.BMP,WildCard_NonEx,0.211805556,-0.038194444,1,0,0,0.9662,optionRight,55,2995,2,15,0,15,0,1,,,,,,,,,,,,,,,,,,,,,,,,,,,,,,,,,,,,,,,
,,,,,,,,2023-08-16_08h37.13.009,HF_wild_card,2022.2.4,Win32,59.96282305,6389bd5d820b83080e2fc60a,64d2fd46c836a06233681665,64dc7c9aae035b106c2eb100,,,,,,,ctch,resources/DP.BMP,resources/DG.BMP,Door4,0.222222222,-0.034027788,1,0,0,0.9522,optionRight,80,3075,2,16,0,16,0,1,,,,,,,,,,,,,,,,,,,,,,,,,,,,,,,,,,,,,,,
,,,,,,,,2023-08-16_08h37.13.009,HF_wild_card,2022.2.4,Win32,59.96282305,6389bd5d820b83080e2fc60a,64d2fd46c836a06233681665,64dc7c9aae035b106c2eb100,,,,,,,ctch,resources/DG.BMP,resources/DP.BMP,Door1,0.214583397,-0.050000032,1,0,0,0.8156,optionRight,30,3105,2,17,0,17,0,1,,,,,,,,,,,,,,,,,,,,,,,,,,,,,,,,,,,,,,,
,,,,,,,,2023-08-16_08h37.13.009,HF_wild_card,2022.2.4,Win32,59.96282305,6389bd5d820b83080e2fc60a,64d2fd46c836a06233681665,64dc7c9aae035b106c2eb100,,,,,,,decisionTrl,resources/DBN.BMP,resources/DP.BMP,Door1,0.168750021,-0.059027778,1,0,0,0.8486,optionRight,30,3135,2,18,0,18,0,1,,,,,,,,,,,,,,,,,,,,,,,,,,,,,,,,,,,,,,,
,,,,,,,,2023-08-16_08h37.13.009,HF_wild_card,2022.2.4,Win32,59.96282305,6389bd5d820b83080e2fc60a,64d2fd46c836a06233681665,64dc7c9aae035b106c2eb100,,,,,,,decisionTrl,resources/DY.BMP,resources/DG.BMP,Door4,0.320833312,-0.037500011,1,0,0,0.7641,optionRight,80,3215,2,19,0,19,0,1,,,,,,,,,,,,,,,,,,,,,,,,,,,,,,,,,,,,,,,
,,,,,,,,2023-08-16_08h37.13.009,HF_wild_card,2022.2.4,Win32,59.96282305,6389bd5d820b83080e2fc60a,64d2fd46c836a06233681665,64dc7c9aae035b106c2eb100,,,,,,,sngl,resources/Empty.png,resources/DY.BMP,Door3,0.26666673,-0.027083344,1,0,0,0.6979,optionRight,70,3285,2,20,0,20,0,1,,,,,,,,,,,,,,,,,,,,,,,,,,,,,,,,,,,,,,,
,,,,,,,,2023-08-16_08h37.13.009,HF_wild_card,2022.2.4,Win32,59.96282305,6389bd5d820b83080e2fc60a,64d2fd46c836a06233681665,64dc7c9aae035b106c2eb100,,,,,,,decisionTrl,resources/DBN.BMP,resources/DR.BMP,Door2,-0.183333344,-0.103472233,1,0,0,1.4366,optionLeft,40,3325,2,21,0,21,0,1,,,,,,,,,,,,,,,,,,,,,,,,,,,,,,,,,,,,,,,
,,,,,,,,2023-08-16_08h37.13.009,HF_wild_card,2022.2.4,Win32,59.96282305,6389bd5d820b83080e2fc60a,64d2fd46c836a06233681665,64dc7c9aae035b106c2eb100,,,,,,,ctch,resources/DP.BMP,resources/DG.BMP,Door1,-0.231944455,-0.105555587,1,0,0,0.6131,optionLeft,30,3355,2,22,0,22,0,1,,,,,,,,,,,,,,,,,,,,,,,,,,,,,,,,,,,,,,,
,,,,,,,,2023-08-16_08h37.13.009,HF_wild_card,2022.2.4,Win32,59.96282305,6389bd5d820b83080e2fc60a,64d2fd46c836a06233681665,64dc7c9aae035b106c2eb100,,,,,,,sngl,resources/Empty.png,resources/DG.BMP,Door4,0.337500042,-0.03125,1,0,0,0.982,optionRight,80,3435,2,23,0,23,0,1,,,,,,,,,,,,,,,,,,,,,,,,,,,,,,,,,,,,,,,
,,,,,,,,2023-08-16_08h37.13.009,HF_wild_card,2022.2.4,Win32,59.96282305,6389bd5d820b83080e2fc60a,64d2fd46c836a06233681665,64dc7c9aae035b106c2eb100,,,,,,,sngl,resources/DR.BMP,resources/Empty.png,WildCard_NonEx,-0.229166667,-0.097916656,1,0,0,0.9164,optionLeft,55,3490,2,24,0,24,0,1,,,,,,,,,,,,,,,,,,,,,,,,,,,,,,,,,,,,,,,
,,,,,,,,2023-08-16_08h37.13.009,HF_wild_card,2022.2.4,Win32,59.96282305,6389bd5d820b83080e2fc60a,64d2fd46c836a06233681665,64dc7c9aae035b106c2eb100,,,,,,,decisionTrl,resources/DP.BMP,resources/DBN.BMP,Door2,0.139583376,-0.044444455,1,0,0,0.8816,optionRight,40,3530,2,25,0,25,0,1,,,,,,,,,,,,,,,,,,,,,,,,,,,,,,,,,,,,,,,
,,,,,,,,2023-08-16_08h37.13.009,HF_wild_card,2022.2.4,Win32,59.96282305,6389bd5d820b83080e2fc60a,64d2fd46c836a06233681665,64dc7c9aae035b106c2eb100,,,,,,,decisionTrl,resources/DY.BMP,resources/DG.BMP,Door4,0.275000042,-0.056944476,1,0,0,0.5988,optionRight,80,3610,2,26,0,26,0,1,,,,,,,,,,,,,,,,,,,,,,,,,,,,,,,,,,,,,,,
,,,,,,,,2023-08-16_08h37.13.009,HF_wild_card,2022.2.4,Win32,59.96282305,6389bd5d820b83080e2fc60a,64d2fd46c836a06233681665,64dc7c9aae035b106c2eb100,,,,,,,decisionTrl,resources/DR.BMP,resources/DBN.BMP,Door2,0.210416688,-0.033333355,1,0,0,0.6982,optionRight,20,3630,2,27,0,27,0,1,,,,,,,,,,,,,,,,,,,,,,,,,,,,,,,,,,,,,,,
,,,,,,,,2023-08-16_08h37.13.009,HF_wild_card,2022.2.4,Win32,59.96282305,6389bd5d820b83080e2fc60a,64d2fd46c836a06233681665,64dc7c9aae035b106c2eb100,,,,,,,decisionTrl,resources/DP.BMP,resources/DBN.BMP,Door2,0.217361132,-0.035416656,1,0,0,0.848,optionRight,40,3670,2,28,0,28,0,1,,,,,,,,,,,,,,,,,,,,,,,,,,,,,,,,,,,,,,,
,,,,,,,,2023-08-16_08h37.13.009,HF_wild_card,2022.2.4,Win32,59.96282305,6389bd5d820b83080e2fc60a,64d2fd46c836a06233681665,64dc7c9aae035b106c2eb100,,,,,,,ctch,resources/DY.BMP,resources/DBN.BMP,Door2,0.303472201,-0.065972222,1,0,0,0.665,optionRight,40,3710,2,29,0,29,0,1,,,,,,,,,,,,,,,,,,,,,,,,,,,,,,,,,,,,,,,
,,,,,,,,2023-08-16_08h37.13.009,HF_wild_card,2022.2.4,Win32,59.96282305,6389bd5d820b83080e2fc60a,64d2fd46c836a06233681665,64dc7c9aae035b106c2eb100,,,,,,,decisionTrl,resources/DP.BMP,resources/DBN.BMP,Door1,-0.25,-0.079861111,1,0,0,0.9824,optionLeft,30,3740,2,30,0,30,0,1,,,,,,,,,,,,,,,,,,,,,,,,,,,,,,,,,,,,,,,
,,,,,,,,2023-08-16_08h37.13.009,HF_wild_card,2022.2.4,Win32,59.96282305,6389bd5d820b83080e2fc60a,64d2fd46c836a06233681665,64dc7c9aae035b106c2eb100,,,,,,,ctch,resources/DBN.BMP,resources/DY.BMP,Door3,0.323611153,-0.028472212,1,0,0,0.7162,optionRight,70,3810,2,31,0,31,0,1,,,,,,,,,,,,,,,,,,,,,,,,,,,,,,,,,,,,,,,
,,,,,,,,2023-08-16_08h37.13.009,HF_wild_card,2022.2.4,Win32,59.96282305,6389bd5d820b83080e2fc60a,64d2fd46c836a06233681665,64dc7c9aae035b106c2eb100,,,,,,,decisionTrl,resources/DG.BMP,resources/DY.BMP,Door3,0.309722265,-0.031944434,1,0,0,0.6149,optionRight,70,3880,2,32,0,32,0,1,,,,,,,,,,,,,,,,,,,,,,,,,,,,,,,,,,,,,,,
,,,,,,,,2023-08-16_08h37.13.009,HF_wild_card,2022.2.4,Win32,59.96282305,6389bd5d820b83080e2fc60a,64d2fd46c836a06233681665,64dc7c9aae035b106c2eb100,,,,,,,sngl,resources/Empty.png,resources/DR.BMP,WildCard_NonEx,0.240972201,-0.014583323,1,0,0,0.798,optionRight,55,3935,2,33,0,33,0,1,,,,,,,,,,,,,,,,,,,,,,,,,,,,,,,,,,,,,,,
,,,,,,,,2023-08-16_08h37.13.009,HF_wild_card,2022.2.4,Win32,59.96282305,6389bd5d820b83080e2fc60a,64d2fd46c836a06233681665,64dc7c9aae035b106c2eb100,,,,,,,decisionTrl,resources/DG.BMP,resources/DY.BMP,Door4,-0.261805534,-0.116666688,1,0,0,0.5658,optionLeft,80,4015,2,34,0,34,0,1,,,,,,,,,,,,,,,,,,,,,,,,,,,,,,,,,,,,,,,
,,,,,,,,2023-08-16_08h37.13.009,HF_wild_card,2022.2.4,Win32,59.96282305,6389bd5d820b83080e2fc60a,64d2fd46c836a06233681665,64dc7c9aae035b106c2eb100,,,,,,,sngl,resources/DG.BMP,resources/Empty.png,Door4,-0.245833344,-0.127083355,1,0,0,0.7819,optionLeft,60,4075,2,35,0,35,0,1,,,,,,,,,,,,,,,,,,,,,,,,,,,,,,,,,,,,,,,
,,,,,,,,2023-08-16_08h37.13.009,HF_wild_card,2022.2.4,Win32,59.96282305,6389bd5d820b83080e2fc60a,64d2fd46c836a06233681665,64dc7c9aae035b106c2eb100,,,,,,,sngl,resources/DY.BMP,resources/Empty.png,Door3,-0.196527746,-0.100000011,1,0,0,0.8822,optionLeft,70,4145,2,36,0,36,0,1,,,,,,,,,,,,,,,,,,,,,,,,,,,,,,,,,,,,,,,
,,,,,,,,2023-08-16_08h37.13.009,HF_wild_card,2022.2.4,Win32,59.96282305,6389bd5d820b83080e2fc60a,64d2fd46c836a06233681665,64dc7c9aae035b106c2eb100,,,,,,,decisionTrl,resources/DP.BMP,resources/DR.BMP,WildCard_NonEx,0.193750064,-0.022916688,1,0,0,0.7655,optionRight,45,4190,2,37,0,37,0,1,,,,,,,,,,,,,,,,,,,,,,,,,,,,,,,,,,,,,,,
,,,,,,,,2023-08-16_08h37.13.009,HF_wild_card,2022.2.4,Win32,59.96282305,6389bd5d820b83080e2fc60a,64d2fd46c836a06233681665,64dc7c9aae035b106c2eb100,,,,,,,decisionTrl,resources/DP.BMP,resources/DBN.BMP,Door2,0.258333312,-0.038194444,1,0,0,0.5829,optionRight,40,4230,2,38,0,38,0,1,,,,,,,,,,,,,,,,,,,,,,,,,,,,,,,,,,,,,,,
,,,,,,,,2023-08-16_08h37.13.009,HF_wild_card,2022.2.4,Win32,59.96282305,6389bd5d820b83080e2fc60a,64d2fd46c836a06233681665,64dc7c9aae035b106c2eb100,,,,,,,sngl,resources/DP.BMP,resources/Empty.png,Door1,-0.173611111,-0.081944466,1,0,0,0.532,optionLeft,30,4260,2,39,0,39,0,1,,,,,,,,,,,,,,,,,,,,,,,,,,,,,,,,,,,,,,,
,,,,,,,,2023-08-16_08h37.13.009,HF_wild_card,2022.2.4,Win32,59.96282305,6389bd5d820b83080e2fc60a,64d2fd46c836a06233681665,64dc7c9aae035b106c2eb100,,,,,,,decisionTrl,resources/DY.BMP,resources/DR.BMP,Door3,-0.188194434,-0.097916656,1,0,0,1.1653,optionLeft,70,4330,2,40,0,40,0,1,,,,,,,,,,,,,,,,,,,,,,,,,,,,,,,,,,,,,,,
,,,,,,,,2023-08-16_08h37.13.009,HF_wild_card,2022.2.4,Win32,59.96282305,6389bd5d820b83080e2fc60a,64d2fd46c836a06233681665,64dc7c9aae035b106c2eb100,,,,,,,sngl,resources/Empty.png,resources/DBN.BMP,Door2,0.259027799,-0.02638891,1,0,0,0.7487,optionRight,40,4370,2,41,0,41,0,1,,,,,,,,,,,,,,,,,,,,,,,,,,,,,,,,,,,,,,,
,,,,,,,,2023-08-16_08h37.13.009,HF_wild_card,2022.2.4,Win32,59.96282305,6389bd5d820b83080e2fc60a,64d2fd46c836a06233681665,64dc7c9aae035b106c2eb100,,,,,,,sngl,resources/Empty.png,resources/DP.BMP,Door1,0.268055598,-0.017361111,1,0,0,0.7474,optionRight,30,4400,2,42,0,42,0,1,,,,,,,,,,,,,,,,,,,,,,,,,,,,,,,,,,,,,,,
,,,,,,,,2023-08-16_08h37.13.009,HF_wild_card,2022.2.4,Win32,59.96282305,6389bd5d820b83080e2fc60a,64d2fd46c836a06233681665,64dc7c9aae035b106c2eb100,,,,,,,ctch,resources/DY.BMP,resources/DBN.BMP,Door3,-0.229861101,-0.109722243,1,0,0,0.632,optionLeft,70,4470,2,43,0,43,0,1,,,,,,,,,,,,,,,,,,,,,,,,,,,,,,,,,,,,,,,
,,,,,,,,2023-08-16_08h37.13.009,HF_wild_card,2022.2.4,Win32,59.96282305,6389bd5d820b83080e2fc60a,64d2fd46c836a06233681665,64dc7c9aae035b106c2eb100,,,,,,,,,,,,,,,,,,,,,,,,,,1,0,1,0,1,,,,,,,,,,,,,,,,,,,,,,,,,,,,,,,,,,
,,,,,,,,2023-08-16_08h37.13.009,HF_wild_card,2022.2.4,Win32,59.96282305,6389bd5d820b83080e2fc60a,64d2fd46c836a06233681665,64dc7c9aae035b106c2eb100,,,,,,,sngl,resources/DP.BMP,resources/Empty.png,Door1,-0.195138878,-0.186111132,1,0,0,0.7592,optionLeft,30,4500,3,0,0,0,0,1,,,,,,,,,,,,,,,,,,,,,,,,,,,,,,,,,,,,,,,
,,,,,,,,2023-08-16_08h37.13.009,HF_wild_card,2022.2.4,Win32,59.96282305,6389bd5d820b83080e2fc60a,64d2fd46c836a06233681665,64dc7c9aae035b106c2eb100,,,,,,,sngl,resources/Empty.png,resources/DR.BMP,WildCard_NonEx,0.237499979,-0.054861122,1,0,0,0.848,optionRight,55,4555,3,1,0,1,0,1,,,,,,,,,,,,,,,,,,,,,,,,,,,,,,,,,,,,,,,
,,,,,,,,2023-08-16_08h37.13.009,HF_wild_card,2022.2.4,Win32,59.96282305,6389bd5d820b83080e2fc60a,64d2fd46c836a06233681665,64dc7c9aae035b106c2eb100,,,,,,,decisionTrl,resources/DP.BMP,resources/DBN.BMP,Door1,-0.260416667,-0.10902781,1,0,0,1.43,optionLeft,30,4585,3,2,0,2,0,1,,,,,,,,,,,,,,,,,,,,,,,,,,,,,,,,,,,,,,,
,,,,,,,,2023-08-16_08h37.13.009,HF_wild_card,2022.2.4,Win32,59.96282305,6389bd5d820b83080e2fc60a,64d2fd46c836a06233681665,64dc7c9aae035b106c2eb100,,,,,,,ctch,resources/DY.BMP,resources/DBN.BMP,Door2,0.195138931,-0.043750021,1,0,0,1.0159,optionRight,40,4625,3,3,0,3,0,1,,,,,,,,,,,,,,,,,,,,,,,,,,,,,,,,,,,,,,,
,,,,,,,,2023-08-16_08h37.13.009,HF_wild_card,2022.2.4,Win32,59.96282305,6389bd5d820b83080e2fc60a,64d2fd46c836a06233681665,64dc7c9aae035b106c2eb100,,,,,,,ctch,resources/DG.BMP,resources/DP.BMP,Door1,0.24513891,-0.052777767,1,0,0,0.6476,optionRight,30,4655,3,4,0,4,0,1,,,,,,,,,,,,,,,,,,,,,,,,,,,,,,,,,,,,,,,
,,,,,,,,2023-08-16_08h37.13.009,HF_wild_card,2022.2.4,Win32,59.96282305,6389bd5d820b83080e2fc60a,64d2fd46c836a06233681665,64dc7c9aae035b106c2eb100,,,,,,,decisionTrl,resources/DBN.BMP,resources/DP.BMP,Door2,-0.215972212,-0.106250021,1,0,0,0.4484,optionLeft,40,4695,3,5,0,5,0,1,,,,,,,,,,,,,,,,,,,,,,,,,,,,,,,,,,,,,,,
,,,,,,,,2023-08-16_08h37.13.009,HF_wild_card,2022.2.4,Win32,59.96282305,6389bd5d820b83080e2fc60a,64d2fd46c836a06233681665,64dc7c9aae035b106c2eb100,,,,,,,sngl,resources/Empty.png,resources/DR.BMP,WildCard_NonEx,0.269444466,-0.075000021,1,0,0,0.598,optionRight,45,4740,3,6,0,6,0,1,,,,,,,,,,,,,,,,,,,,,,,,,,,,,,,,,,,,,,,
,,,,,,,,2023-08-16_08h37.13.009,HF_wild_card,2022.2.4,Win32,59.96282305,6389bd5d820b83080e2fc60a,64d2fd46c836a06233681665,64dc7c9aae035b106c2eb100,,,,,,,decisionTrl,resources/DY.BMP,resources/DG.BMP,Door4,0.215972265,-0.044444455,1,0,0,0.782,optionRight,80,4820,3,7,0,7,0,1,,,,,,,,,,,,,,,,,,,,,,,,,,,,,,,,,,,,,,,
,,,,,,,,2023-08-16_08h37.13.009,HF_wild_card,2022.2.4,Win32,59.96282305,6389bd5d820b83080e2fc60a,64d2fd46c836a06233681665,64dc7c9aae035b106c2eb100,,,,,,,decisionTrl,resources/DR.BMP,resources/DBN.BMP,Door2,0.20902782,-0.038888878,1,0,0,0.8476,optionRight,40,4860,3,8,0,8,0,1,,,,,,,,,,,,,,,,,,,,,,,,,,,,,,,,,,,,,,,
,,,,,,,,2023-08-16_08h37.13.009,HF_wild_card,2022.2.4,Win32,59.96282305,6389bd5d820b83080e2fc60a,64d2fd46c836a06233681665,64dc7c9aae035b106c2eb100,,,,,,,ctch,resources/DBN.BMP,resources/DY.BMP,Door3,0.22361109,-0.066666656,1,0,0,1.6836,optionRight,70,4930,3,9,0,9,0,1,,,,,,,,,,,,,,,,,,,,,,,,,,,,,,,,,,,,,,,
,,,,,,,,2023-08-16_08h37.13.009,HF_wild_card,2022.2.4,Win32,59.96282305,6389bd5d820b83080e2fc60a,64d2fd46c836a06233681665,64dc7c9aae035b106c2eb100,,,,,,,decisionTrl,resources/DR.BMP,resources/DP.BMP,Door1,0.219444487,-0.083333333,1,0,0,0.7317,optionRight,30,4960,3,10,0,10,0,1,,,,,,,,,,,,,,,,,,,,,,,,,,,,,,,,,,,,,,,
,,,,,,,,2023-08-16_08h37.13.009,HF_wild_card,2022.2.4,Win32,59.96282305,6389bd5d820b83080e2fc60a,64d2fd46c836a06233681665,64dc7c9aae035b106c2eb100,,,,,,,decisionTrl,resources/DR.BMP,resources/DG.BMP,Door4,0.306250042,-0.116666688,1,0,0,0.7326,optionRight,80,5040,3,11,0,11,0,1,,,,,,,,,,,,,,,,,,,,,,,,,,,,,,,,,,,,,,,
,,,,,,,,2023-08-16_08h37.13.009,HF_wild_card,2022.2.4,Win32,59.96282305,6389bd5d820b83080e2fc60a,64d2fd46c836a06233681665,64dc7c9aae035b106c2eb100,,,,,,,sngl,resources/Empty.png,resources/DBN.BMP,Door2,0.20416673,-0.067361143,1,0,0,1.1317,optionRight,20,5060,3,12,0,12,0,1,,,,,,,,,,,,,,,,,,,,,,,,,,,,,,,,,,,,,,,
,,,,,,,,2023-08-16_08h37.13.009,HF_wild_card,2022.2.4,Win32,59.96282305,6389bd5d820b83080e2fc60a,64d2fd46c836a06233681665,64dc7c9aae035b106c2eb100,,,,,,,decisionTrl,resources/DG.BMP,resources/DY.BMP,Door3,0.193750064,-0.052777767,1,0,0,0.9317,optionRight,70,5130,3,13,0,13,0,1,,,,,,,,,,,,,,,,,,,,,,,,,,,,,,,,,,,,,,,
,,,,,,,,2023-08-16_08h37.13.009,HF_wild_card,2022.2.4,Win32,59.96282305,6389bd5d820b83080e2fc60a,64d2fd46c836a06233681665,64dc7c9aae035b106c2eb100,,,,,,,decisionTrl,resources/DBN.BMP,resources/DP.BMP,Door1,0.193055577,-0.058333344,1,0,0,0.7988,optionRight,30,5160,3,14,0,14,0,1,,,,,,,,,,,,,,,,,,,,,,,,,,,,,,,,,,,,,,,
,,,,,,,,2023-08-16_08h37.13.009,HF_wild_card,2022.2.4,Win32,59.96282305,6389bd5d820b83080e2fc60a,64d2fd46c836a06233681665,64dc7c9aae035b106c2eb100,,,,,,,sngl,resources/Empty.png,resources/DY.BMP,Door3,0.194444444,-0.063194434,1,0,0,0.782,optionRight,70,5230,3,15,0,15,0,1,,,,,,,,,,,,,,,,,,,,,,,,,,,,,,,,,,,,,,,
,,,,,,,,2023-08-16_08h37.13.009,HF_wild_card,2022.2.4,Win32,59.96282305,6389bd5d820b83080e2fc60a,64d2fd46c836a06233681665,64dc7c9aae035b106c2eb100,,,,,,,decisionTrl,resources/DP.BMP,resources/DBN.BMP,Door2,0.232638889,-0.050000032,1,0,0,0.6994,optionRight,40,5270,3,16,0,16,0,1,,,,,,,,,,,,,,,,,,,,,,,,,,,,,,,,,,,,,,,
,,,,,,,,2023-08-16_08h37.13.009,HF_wild_card,2022.2.4,Win32,59.96282305,6389bd5d820b83080e2fc60a,64d2fd46c836a06233681665,64dc7c9aae035b106c2eb100,,,,,,,decisionTrl,resources/DP.BMP,resources/DBN.BMP,Door1,-0.270138899,-0.12013891,1,0,0,0.7822,optionLeft,30,5300,3,17,0,17,0,1,,,,,,,,,,,,,,,,,,,,,,,,,,,,,,,,,,,,,,,
,,,,,,,,2023-08-16_08h37.13.009,HF_wild_card,2022.2.4,Win32,59.96282305,6389bd5d820b83080e2fc60a,64d2fd46c836a06233681665,64dc7c9aae035b106c2eb100,,,,,,,decisionTrl,resources/DBN.BMP,resources/DP.BMP,Door2,-0.220138868,-0.119444476,1,0,0,0.6654,optionLeft,40,5340,3,18,0,18,0,1,,,,,,,,,,,,,,,,,,,,,,,,,,,,,,,,,,,,,,,
,,,,,,,,2023-08-16_08h37.13.009,HF_wild_card,2022.2.4,Win32,59.96282305,6389bd5d820b83080e2fc60a,64d2fd46c836a06233681665,64dc7c9aae035b106c2eb100,,,,,,,sngl,resources/DY.BMP,resources/Empty.png,Door3,-0.250694434,-0.132638878,1,0,0,0.9988,optionLeft,70,5410,3,19,0,19,0,1,,,,,,,,,,,,,,,,,,,,,,,,,,,,,,,,,,,,,,,
,,,,,,,,2023-08-16_08h37.13.009,HF_wild_card,2022.2.4,Win32,59.96282305,6389bd5d820b83080e2fc60a,64d2fd46c836a06233681665,64dc7c9aae035b106c2eb100,,,,,,,sngl,resources/Empty.png,resources/DG.BMP,Door4,0.270138952,-0.106250021,1,0,0,0.8318,optionRight,60,5470,3,20,0,20,0,1,,,,,,,,,,,,,,,,,,,,,,,,,,,,,,,,,,,,,,,
,,,,,,,,2023-08-16_08h37.13.009,HF_wild_card,2022.2.4,Win32,59.96282305,6389bd5d820b83080e2fc60a,64d2fd46c836a06233681665,64dc7c9aae035b106c2eb100,,,,,,,ctch,resources/DP.BMP,resources/DG.BMP,Door1,-0.209027767,-0.090277778,1,0,0,0.6485,optionLeft,30,5500,3,21,0,21,0,1,,,,,,,,,,,,,,,,,,,,,,,,,,,,,,,,,,,,,,,
,,,,,,,,2023-08-16_08h37.13.009,HF_wild_card,2022.2.4,Win32,59.96282305,6389bd5d820b83080e2fc60a,64d2fd46c836a06233681665,64dc7c9aae035b106c2eb100,,,,,,,decisionTrl,resources/DG.BMP,resources/DY.BMP,Door4,-0.231944455,-0.110416677,1,0,0,0.6656,optionLeft,60,5560,3,22,0,22,0,1,,,,,,,,,,,,,,,,,,,,,,,,,,,,,,,,,,,,,,,
,,,,,,,,2023-08-16_08h37.13.009,HF_wild_card,2022.2.4,Win32,59.96282305,6389bd5d820b83080e2fc60a,64d2fd46c836a06233681665,64dc7c9aae035b106c2eb100,,,,,,,decisionTrl,resources/DP.BMP,resources/DR.BMP,Door1,-0.284722222,-0.130555577,1,0,0,0.5988,optionLeft,30,5590,3,23,0,23,0,1,,,,,,,,,,,,,,,,,,,,,,,,,,,,,,,,,,,,,,,
,,,,,,,,2023-08-16_08h37.13.009,HF_wild_card,2022.2.4,Win32,59.96282305,6389bd5d820b83080e2fc60a,64d2fd46c836a06233681665,64dc7c9aae035b106c2eb100,,,,,,,ctch,resources/DG.BMP,resources/DP.BMP,Door1,0.243750042,-0.061111132,1,0,0,0.632,optionRight,30,5620,3,24,0,24,0,1,,,,,,,,,,,,,,,,,,,,,,,,,,,,,,,,,,,,,,,
,,,,,,,,2023-08-16_08h37.13.009,HF_wild_card,2022.2.4,Win32,59.96282305,6389bd5d820b83080e2fc60a,64d2fd46c836a06233681665,64dc7c9aae035b106c2eb100,,,,,,,decisionTrl,resources/DG.BMP,resources/DY.BMP,Door4,-0.174999979,-0.090277778,1,0,0,0.5995,optionLeft,60,5680,3,25,0,25,0,1,,,,,,,,,,,,,,,,,,,,,,,,,,,,,,,,,,,,,,,
,,,,,,,,2023-08-16_08h37.13.009,HF_wild_card,2022.2.4,Win32,59.96282305,6389bd5d820b83080e2fc60a,64d2fd46c836a06233681665,64dc7c9aae035b106c2eb100,,,,,,,sngl,resources/Empty.png,resources/DP.BMP,Door1,0.250694487,-0.052777767,1,0,0,0.7481,optionRight,30,5710,3,26,0,26,0,1,,,,,,,,,,,,,,,,,,,,,,,,,,,,,,,,,,,,,,,
,,,,,,,,2023-08-16_08h37.13.009,HF_wild_card,2022.2.4,Win32,59.96282305,6389bd5d820b83080e2fc60a,64d2fd46c836a06233681665,64dc7c9aae035b106c2eb100,,,,,,,decisionTrl,resources/DBN.BMP,resources/DR.BMP,WildCard_NonEx,0.264583376,-0.061111132,1,0,0,0.7823,optionRight,45,5755,3,27,0,27,0,1,,,,,,,,,,,,,,,,,,,,,,,,,,,,,,,,,,,,,,,
,,,,,,,,2023-08-16_08h37.13.009,HF_wild_card,2022.2.4,Win32,59.96282305,6389bd5d820b83080e2fc60a,64d2fd46c836a06233681665,64dc7c9aae035b106c2eb100,,,,,,,decisionTrl,resources/DY.BMP,resources/DR.BMP,WildCard_NonEx,0.211111175,-0.053472254,1,0,0,0.6805,optionRight,45,5800,3,28,0,28,0,1,,,,,,,,,,,,,,,,,,,,,,,,,,,,,,,,,,,,,,,
,,,,,,,,2023-08-16_08h37.13.009,HF_wild_card,2022.2.4,Win32,59.96282305,6389bd5d820b83080e2fc60a,64d2fd46c836a06233681665,64dc7c9aae035b106c2eb100,,,,,,,decisionTrl,resources/DP.BMP,resources/DBN.BMP,Door2,0.229166667,-0.07777781,1,0,0,0.7324,optionRight,20,5820,3,29,0,29,0,1,,,,,,,,,,,,,,,,,,,,,,,,,,,,,,,,,,,,,,,
,,,,,,,,2023-08-16_08h37.13.009,HF_wild_card,2022.2.4,Win32,59.96282305,6389bd5d820b83080e2fc60a,64d2fd46c836a06233681665,64dc7c9aae035b106c2eb100,,,,,,,decisionTrl,resources/DR.BMP,resources/DY.BMP,Door3,0.183333397,-0.100000011,1,0,0,0.6655,optionRight,70,5890,3,30,0,30,0,1,,,,,,,,,,,,,,,,,,,,,,,,,,,,,,,,,,,,,,,
,,,,,,,,2023-08-16_08h37.13.009,HF_wild_card,2022.2.4,Win32,59.96282305,6389bd5d820b83080e2fc60a,64d2fd46c836a06233681665,64dc7c9aae035b106c2eb100,,,,,,,decisionTrl,resources/DY.BMP,resources/DG.BMP,Door4,0.169444508,-0.049305545,1,0,0,0.9357,optionRight,80,5970,3,31,0,31,0,1,,,,,,,,,,,,,,,,,,,,,,,,,,,,,,,,,,,,,,,
,,,,,,,,2023-08-16_08h37.13.009,HF_wild_card,2022.2.4,Win32,59.96282305,6389bd5d820b83080e2fc60a,64d2fd46c836a06233681665,64dc7c9aae035b106c2eb100,,,,,,,ctch,resources/DP.BMP,resources/DG.BMP,Door4,0.279166645,-0.060416698,1,0,0,0.6991,optionRight,60,6030,3,32,0,32,0,1,,,,,,,,,,,,,,,,,,,,,,,,,,,,,,,,,,,,,,,
,,,,,,,,2023-08-16_08h37.13.009,HF_wild_card,2022.2.4,Win32,59.96282305,6389bd5d820b83080e2fc60a,64d2fd46c836a06233681665,64dc7c9aae035b106c2eb100,,,,,,,decisionTrl,resources/DG.BMP,resources/DR.BMP,Door4,-0.193055524,-0.094444434,1,0,0,0.8316,optionLeft,80,6110,3,33,0,33,0,1,,,,,,,,,,,,,,,,,,,,,,,,,,,,,,,,,,,,,,,
,,,,,,,,2023-08-16_08h37.13.009,HF_wild_card,2022.2.4,Win32,59.96282305,6389bd5d820b83080e2fc60a,64d2fd46c836a06233681665,64dc7c9aae035b106c2eb100,,,,,,,decisionTrl,resources/DG.BMP,resources/DY.BMP,Door4,-0.236111111,-0.116666688,1,0,0,0.7496,optionLeft,80,6190,3,34,0,34,0,1,,,,,,,,,,,,,,,,,,,,,,,,,,,,,,,,,,,,,,,
,,,,,,,,2023-08-16_08h37.13.009,HF_wild_card,2022.2.4,Win32,59.96282305,6389bd5d820b83080e2fc60a,64d2fd46c836a06233681665,64dc7c9aae035b106c2eb100,,,,,,,sngl,resources/DG.BMP,resources/Empty.png,Door4,-0.212499989,-0.106944455,1,0,0,0.6488,optionLeft,80,6270,3,35,0,35,0,1,,,,,,,,,,,,,,,,,,,,,,,,,,,,,,,,,,,,,,,
,,,,,,,,2023-08-16_08h37.13.009,HF_wild_card,2022.2.4,Win32,59.96282305,6389bd5d820b83080e2fc60a,64d2fd46c836a06233681665,64dc7c9aae035b106c2eb100,,,,,,,ctch,resources/DY.BMP,resources/DBN.BMP,Door3,-0.202777757,-0.102777799,1,0,0,1.113,optionLeft,70,6340,3,36,0,36,0,1,,,,,,,,,,,,,,,,,,,,,,,,,,,,,,,,,,,,,,,
,,,,,,,,2023-08-16_08h37.13.009,HF_wild_card,2022.2.4,Win32,59.96282305,6389bd5d820b83080e2fc60a,64d2fd46c836a06233681665,64dc7c9aae035b106c2eb100,,,,,,,ctch,resources/DBN.BMP,resources/DY.BMP,Door3,0.251388868,-0.025694476,1,0,0,0.8984,optionRight,70,6410,3,37,0,37,0,1,,,,,,,,,,,,,,,,,,,,,,,,,,,,,,,,,,,,,,,
,,,,,,,,2023-08-16_08h37.13.009,HF_wild_card,2022.2.4,Win32,59.96282305,6389bd5d820b83080e2fc60a,64d2fd46c836a06233681665,64dc7c9aae035b106c2eb100,,,,,,,decisionTrl,resources/DBN.BMP,resources/DP.BMP,Door1,0.263194508,-0.017361111,1,0,0,2.1672,optionRight,30,6440,3,38,0,38,0,1,,,,,,,,,,,,,,,,,,,,,,,,,,,,,,,,,,,,,,,
,,,,,,,,2023-08-16_08h37.13.009,HF_wild_card,2022.2.4,Win32,59.96282305,6389bd5d820b83080e2fc60a,64d2fd46c836a06233681665,64dc7c9aae035b106c2eb100,,,,,,,decisionTrl,resources/DY.BMP,resources/DG.BMP,Door3,-0.190277788,-0.101388878,1,0,0,1.4029,optionLeft,70,6510,3,39,0,39,0,1,,,,,,,,,,,,,,,,,,,,,,,,,,,,,,,,,,,,,,,
,,,,,,,,2023-08-16_08h37.13.009,HF_wild_card,2022.2.4,Win32,59.96282305,6389bd5d820b83080e2fc60a,64d2fd46c836a06233681665,64dc7c9aae035b106c2eb100,,,,,,,decisionTrl,resources/DY.BMP,resources/DG.BMP,Door3,-0.174305545,-0.098611143,1,0,0,0.8818,optionLeft,70,6580,3,40,0,40,0,1,,,,,,,,,,,,,,,,,,,,,,,,,,,,,,,,,,,,,,,
,,,,,,,,2023-08-16_08h37.13.009,HF_wild_card,2022.2.4,Win32,59.96282305,6389bd5d820b83080e2fc60a,64d2fd46c836a06233681665,64dc7c9aae035b106c2eb100,,,,,,,sngl,resources/DR.BMP,resources/Empty.png,WildCard_NonEx,-0.222916656,-0.115972254,1,0,0,0.9493,optionLeft,45,6625,3,41,0,41,0,1,,,,,,,,,,,,,,,,,,,,,,,,,,,,,,,,,,,,,,,
,,,,,,,,2023-08-16_08h37.13.009,HF_wild_card,2022.2.4,Win32,59.96282305,6389bd5d820b83080e2fc60a,64d2fd46c836a06233681665,64dc7c9aae035b106c2eb100,,,,,,,sngl,resources/DBN.BMP,resources/Empty.png,Door2,-0.150694423,-0.086111122,1,0,0,0.9647,optionLeft,40,6665,3,42,0,42,0,1,,,,,,,,,,,,,,,,,,,,,,,,,,,,,,,,,,,,,,,
,,,,,,,,2023-08-16_08h37.13.009,HF_wild_card,2022.2.4,Win32,59.96282305,6389bd5d820b83080e2fc60a,64d2fd46c836a06233681665,64dc7c9aae035b106c2eb100,,,,,,,sngl,resources/DR.BMP,resources/Empty.png,WildCard_NonEx,-0.20347219,-0.103472233,1,0,0,0.8156,optionLeft,55,6720,3,43,0,43,0,1,,,,,,,,,,,,,,,,,,,,,,,,,,,,,,,,,,,,,,,
,,,,,,,,2023-08-16_08h37.13.009,HF_wild_card,2022.2.4,Win32,59.96282305,6389bd5d820b83080e2fc60a,64d2fd46c836a06233681665,64dc7c9aae035b106c2eb100,,,,,,,,,,,,,,,,,,,,,,,,,,2,0,2,0,1,,,,,,,,,,,,,,,,,,,,,,,,,,,,,,,,,,
,,,,,,,,2023-08-16_08h37.13.009,HF_wild_card,2022.2.4,Win32,59.96282305,6389bd5d820b83080e2fc60a,64d2fd46c836a06233681665,64dc7c9aae035b106c2eb100,,,,,,,decisionTrl,resources/DBN.BMP,resources/DP.BMP,Door1,0.452777757,-0.144444466,1,0,0,0.9818,optionRight,30,6750,4,0,0,0,0,1,,,,,,,,,,,,,,,,,,,,,,,,,,,,,,,,,,,,,,,
,,,,,,,,2023-08-16_08h37.13.009,HF_wild_card,2022.2.4,Win32,59.96282305,6389bd5d820b83080e2fc60a,64d2fd46c836a06233681665,64dc7c9aae035b106c2eb100,,,,,,,ctch,resources/DBN.BMP,resources/DY.BMP,Door3,0.295833376,-0.063888921,1,0,0,1.1159,optionRight,70,6820,4,1,0,1,0,1,,,,,,,,,,,,,,,,,,,,,,,,,,,,,,,,,,,,,,,
,,,,,,,,2023-08-16_08h37.13.009,HF_wild_card,2022.2.4,Win32,59.96282305,6389bd5d820b83080e2fc60a,64d2fd46c836a06233681665,64dc7c9aae035b106c2eb100,,,,,,,sngl,resources/DG.BMP,resources/Empty.png,Door4,-0.191666656,-0.111805545,1,0,0,0.7178,optionLeft,60,6880,4,2,0,2,0,1,,,,,,,,,,,,,,,,,,,,,,,,,,,,,,,,,,,,,,,
,,,,,,,,2023-08-16_08h37.13.009,HF_wild_card,2022.2.4,Win32,59.96282305,6389bd5d820b83080e2fc60a,64d2fd46c836a06233681665,64dc7c9aae035b106c2eb100,,,,,,,decisionTrl,resources/DBN.BMP,resources/DB.BMP,WildCard_Ex,0.21388891,-0.07777781,1,0,0,3.0174,optionRight,45,6925,4,3,0,3,0,1,,,,,,,,,,,,,,,,,,,,,,,,,,,,,,,,,,,,,,,
,,,,,,,,2023-08-16_08h37.13.009,HF_wild_card,2022.2.4,Win32,59.96282305,6389bd5d820b83080e2fc60a,64d2fd46c836a06233681665,64dc7c9aae035b106c2eb100,,,,,,,sngl,resources/Empty.png,resources/DBN.BMP,Door2,0.170138889,-0.081944466,1,0,0,1.0321,optionRight,40,6965,4,4,0,4,0,1,,,,,,,,,,,,,,,,,,,,,,,,,,,,,,,,,,,,,,,
,,,,,,,,2023-08-16_08h37.13.009,HF_wild_card,2022.2.4,Win32,59.96282305,6389bd5d820b83080e2fc60a,64d2fd46c836a06233681665,64dc7c9aae035b106c2eb100,,,,,,,decisionTrl,resources/DB.BMP,resources/DG.BMP,WildCard_Ex,-0.197222233,-0.111111111,1,0,0,0.7658,optionLeft,45,7010,4,5,0,5,0,1,,,,,,,,,,,,,,,,,,,,,,,,,,,,,,,,,,,,,,,
,,,,,,,,2023-08-16_08h37.13.009,HF_wild_card,2022.2.4,Win32,59.96282305,6389bd5d820b83080e2fc60a,64d2fd46c836a06233681665,64dc7c9aae035b106c2eb100,,,,,,,decisionTrl,resources/DP.BMP,resources/DBN.BMP,Door1,-0.255555524,-0.125694434,1,0,0,0.9988,optionLeft,30,7040,4,6,0,6,0,1,,,,,,,,,,,,,,,,,,,,,,,,,,,,,,,,,,,,,,,
,,,,,,,,2023-08-16_08h37.13.009,HF_wild_card,2022.2.4,Win32,59.96282305,6389bd5d820b83080e2fc60a,64d2fd46c836a06233681665,64dc7c9aae035b106c2eb100,,,,,,,sngl,resources/DB.BMP,resources/Empty.png,WildCard_Ex,-0.159722222,-0.091666698,1,0,0,0.7315,optionLeft,45,7085,4,7,0,7,0,1,,,,,,,,,,,,,,,,,,,,,,,,,,,,,,,,,,,,,,,
,,,,,,,,2023-08-16_08h37.13.009,HF_wild_card,2022.2.4,Win32,59.96282305,6389bd5d820b83080e2fc60a,64d2fd46c836a06233681665,64dc7c9aae035b106c2eb100,,,,,,,ctch,resources/DY.BMP,resources/DBN.BMP,Door3,-0.182638857,-0.092361132,1,0,0,1.166,optionLeft,70,7155,4,8,0,8,0,1,,,,,,,,,,,,,,,,,,,,,,,,,,,,,,,,,,,,,,,
,,,,,,,,2023-08-16_08h37.13.009,HF_wild_card,2022.2.4,Win32,59.96282305,6389bd5d820b83080e2fc60a,64d2fd46c836a06233681665,64dc7c9aae035b106c2eb100,,,,,,,sngl,resources/DBN.BMP,resources/Empty.png,Door2,-0.221527788,-0.122222212,1,0,0,0.9988,optionLeft,20,7175,4,9,0,9,0,1,,,,,,,,,,,,,,,,,,,,,,,,,,,,,,,,,,,,,,,
,,,,,,,,2023-08-16_08h37.13.009,HF_wild_card,2022.2.4,Win32,59.96282305,6389bd5d820b83080e2fc60a,64d2fd46c836a06233681665,64dc7c9aae035b106c2eb100,,,,,,,sngl,resources/DB.BMP,resources/Empty.png,WildCard_Ex,-0.204166677,-0.113888899,1,0,0,0.7652,optionLeft,55,7230,4,10,0,10,0,1,,,,,,,,,,,,,,,,,,,,,,,,,,,,,,,,,,,,,,,
,,,,,,,,2023-08-16_08h37.13.009,HF_wild_card,2022.2.4,Win32,59.96282305,6389bd5d820b83080e2fc60a,64d2fd46c836a06233681665,64dc7c9aae035b106c2eb100,,,,,,,decisionTrl,resources/DG.BMP,resources/DY.BMP,Door4,-0.272222201,-0.127777788,1,0,0,1.5162,optionLeft,80,7310,4,11,0,11,0,1,,,,,,,,,,,,,,,,,,,,,,,,,,,,,,,,,,,,,,,
,,,,,,,,2023-08-16_08h37.13.009,HF_wild_card,2022.2.4,Win32,59.96282305,6389bd5d820b83080e2fc60a,64d2fd46c836a06233681665,64dc7c9aae035b106c2eb100,,,,,,,decisionTrl,resources/DY.BMP,resources/DG.BMP,Door4,0.279861132,-0.029166698,1,0,0,0.8151,optionRight,60,7370,4,12,0,12,0,1,,,,,,,,,,,,,,,,,,,,,,,,,,,,,,,,,,,,,,,
,,,,,,,,2023-08-16_08h37.13.009,HF_wild_card,2022.2.4,Win32,59.96282305,6389bd5d820b83080e2fc60a,64d2fd46c836a06233681665,64dc7c9aae035b106c2eb100,,,,,,,decisionTrl,resources/DY.BMP,resources/DB.BMP,WildCard_Ex,0.21875,-0.070138878,1,0,0,1.4318,optionRight,55,7425,4,13,0,13,0,1,,,,,,,,,,,,,,,,,,,,,,,,,,,,,,,,,,,,,,,
,,,,,,,,2023-08-16_08h37.13.009,HF_wild_card,2022.2.4,Win32,59.96282305,6389bd5d820b83080e2fc60a,64d2fd46c836a06233681665,64dc7c9aae035b106c2eb100,,,,,,,decisionTrl,resources/DP.BMP,resources/DBN.BMP,Door1,-0.221527788,-0.122916698,1,0,0,1.2157,optionLeft,30,7455,4,14,0,14,0,1,,,,,,,,,,,,,,,,,,,,,,,,,,,,,,,,,,,,,,,
,,,,,,,,2023-08-16_08h37.13.009,HF_wild_card,2022.2.4,Win32,59.96282305,6389bd5d820b83080e2fc60a,64d2fd46c836a06233681665,64dc7c9aae035b106c2eb100,,,,,,,decisionTrl,resources/DB.BMP,resources/DY.BMP,Door3,0.244444423,-0.064583355,1,0,0,1.1648,optionRight,70,7525,4,15,0,15,0,1,,,,,,,,,,,,,,,,,,,,,,,,,,,,,,,,,,,,,,,
,,,,,,,,2023-08-16_08h37.13.009,HF_wild_card,2022.2.4,Win32,59.96282305,6389bd5d820b83080e2fc60a,64d2fd46c836a06233681665,64dc7c9aae035b106c2eb100,,,,,,,decisionTrl,resources/DP.BMP,resources/DBN.BMP,Door2,0.279861132,-0.063194434,1,0,0,1.8003,optionRight,40,7565,4,16,0,16,0,1,,,,,,,,,,,,,,,,,,,,,,,,,,,,,,,,,,,,,,,
,,,,,,,,2023-08-16_08h37.13.009,HF_wild_card,2022.2.4,Win32,59.96282305,6389bd5d820b83080e2fc60a,64d2fd46c836a06233681665,64dc7c9aae035b106c2eb100,,,,,,,sngl,resources/Empty.png,resources/DG.BMP,Door4,0.214583397,-0.018750032,1,0,0,1.3495,optionRight,80,7645,4,17,0,17,0,1,,,,,,,,,,,,,,,,,,,,,,,,,,,,,,,,,,,,,,,
,,,,,,,,2023-08-16_08h37.13.009,HF_wild_card,2022.2.4,Win32,59.96282305,6389bd5d820b83080e2fc60a,64d2fd46c836a06233681665,64dc7c9aae035b106c2eb100,,,,,,,ctch,resources/DY.BMP,resources/DBN.BMP,Door2,0.243055556,-0.013194455,1,0,0,1.6021,optionRight,40,7685,4,18,0,18,0,1,,,,,,,,,,,,,,,,,,,,,,,,,,,,,,,,,,,,,,,
,,,,,,,,2023-08-16_08h37.13.009,HF_wild_card,2022.2.4,Win32,59.96282305,6389bd5d820b83080e2fc60a,64d2fd46c836a06233681665,64dc7c9aae035b106c2eb100,,,,,,,decisionTrl,resources/DP.BMP,resources/DB.BMP,Door1,-0.258333312,-0.08888891,1,0,0,3.2836,optionLeft,30,7715,4,19,0,19,0,1,,,,,,,,,,,,,,,,,,,,,,,,,,,,,,,,,,,,,,,
,,,,,,,,2023-08-16_08h37.13.009,HF_wild_card,2022.2.4,Win32,59.96282305,6389bd5d820b83080e2fc60a,64d2fd46c836a06233681665,64dc7c9aae035b106c2eb100,,,,,,,decisionTrl,resources/DB.BMP,resources/DBN.BMP,WildCard_Ex,-0.174999979,-0.081944466,1,0,0,0.7998,optionLeft,55,7770,4,20,0,20,0,1,,,,,,,,,,,,,,,,,,,,,,,,,,,,,,,,,,,,,,,
,,,,,,,,2023-08-16_08h37.13.009,HF_wild_card,2022.2.4,Win32,59.96282305,6389bd5d820b83080e2fc60a,64d2fd46c836a06233681665,64dc7c9aae035b106c2eb100,,,,,,,decisionTrl,resources/DBN.BMP,resources/DP.BMP,Door1,0.238888952,-0.04652781,1,0,0,0.9491,optionRight,30,7800,4,21,0,21,0,1,,,,,,,,,,,,,,,,,,,,,,,,,,,,,,,,,,,,,,,
,,,,,,,,2023-08-16_08h37.13.009,HF_wild_card,2022.2.4,Win32,59.96282305,6389bd5d820b83080e2fc60a,64d2fd46c836a06233681665,64dc7c9aae035b106c2eb100,,,,,,,decisionTrl,resources/DG.BMP,resources/DB.BMP,WildCard_Ex,0.174999979,-0.053472254,1,0,0,0.9996,optionRight,45,7845,4,22,0,22,0,1,,,,,,,,,,,,,,,,,,,,,,,,,,,,,,,,,,,,,,,
,,,,,,,,2023-08-16_08h37.13.009,HF_wild_card,2022.2.4,Win32,59.96282305,6389bd5d820b83080e2fc60a,64d2fd46c836a06233681665,64dc7c9aae035b106c2eb100,,,,,,,sngl,resources/Empty.png,resources/DY.BMP,Door3,0.184027778,-0.059722212,1,0,0,0.7659,optionRight,70,7915,4,23,0,23,0,1,,,,,,,,,,,,,,,,,,,,,,,,,,,,,,,,,,,,,,,
,,,,,,,,2023-08-16_08h37.13.009,HF_wild_card,2022.2.4,Win32,59.96282305,6389bd5d820b83080e2fc60a,64d2fd46c836a06233681665,64dc7c9aae035b106c2eb100,,,,,,,ctch,resources/DG.BMP,resources/DP.BMP,Door4,-0.211111122,-0.125,1,0,0,1.2321,optionLeft,60,7975,4,24,0,24,0,1,,,,,,,,,,,,,,,,,,,,,,,,,,,,,,,,,,,,,,,
,,,,,,,,2023-08-16_08h37.13.009,HF_wild_card,2022.2.4,Win32,59.96282305,6389bd5d820b83080e2fc60a,64d2fd46c836a06233681665,64dc7c9aae035b106c2eb100,,,,,,,decisionTrl,resources/DB.BMP,resources/DP.BMP,WildCard_Ex,-0.229166667,-0.132638878,1,0,0,1.0657,optionLeft,55,8030,4,25,0,25,0,1,,,,,,,,,,,,,,,,,,,,,,,,,,,,,,,,,,,,,,,
,,,,,,,,2023-08-16_08h37.13.009,HF_wild_card,2022.2.4,Win32,59.96282305,6389bd5d820b83080e2fc60a,64d2fd46c836a06233681665,64dc7c9aae035b106c2eb100,,,,,,,decisionTrl,resources/DY.BMP,resources/DG.BMP,Door3,-0.186111079,-0.104861101,1,0,0,0.7661,optionLeft,70,8100,4,26,0,26,0,1,,,,,,,,,,,,,,,,,,,,,,,,,,,,,,,,,,,,,,,
,,,,,,,,2023-08-16_08h37.13.009,HF_wild_card,2022.2.4,Win32,59.96282305,6389bd5d820b83080e2fc60a,64d2fd46c836a06233681665,64dc7c9aae035b106c2eb100,,,,,,,decisionTrl,resources/DG.BMP,resources/DY.BMP,Door4,-0.252777788,-0.132638878,1,0,0,1.1161,optionLeft,80,8180,4,27,0,27,0,1,,,,,,,,,,,,,,,,,,,,,,,,,,,,,,,,,,,,,,,
,,,,,,,,2023-08-16_08h37.13.009,HF_wild_card,2022.2.4,Win32,59.96282305,6389bd5d820b83080e2fc60a,64d2fd46c836a06233681665,64dc7c9aae035b106c2eb100,,,,,,,decisionTrl,resources/DG.BMP,resources/DY.BMP,Door4,-0.215972212,-0.109722243,1,0,0,1.0657,optionLeft,80,8260,4,28,0,28,0,1,,,,,,,,,,,,,,,,,,,,,,,,,,,,,,,,,,,,,,,
,,,,,,,,2023-08-16_08h37.13.009,HF_wild_card,2022.2.4,Win32,59.96282305,6389bd5d820b83080e2fc60a,64d2fd46c836a06233681665,64dc7c9aae035b106c2eb100,,,,,,,sngl,resources/Empty.png,resources/DB.BMP,WildCard_Ex,0.188888868,-0.065972222,1,0,0,0.8154,optionRight,55,8315,4,29,0,29,0,1,,,,,,,,,,,,,,,,,,,,,,,,,,,,,,,,,,,,,,,
,,,,,,,,2023-08-16_08h37.13.009,HF_wild_card,2022.2.4,Win32,59.96282305,6389bd5d820b83080e2fc60a,64d2fd46c836a06233681665,64dc7c9aae035b106c2eb100,,,,,,,sngl,resources/DP.BMP,resources/Empty.png,Door1,-0.172916677,-0.109722243,1,0,0,0.598,optionLeft,30,8345,4,30,0,30,0,1,,,,,,,,,,,,,,,,,,,,,,,,,,,,,,,,,,,,,,,
,,,,,,,,2023-08-16_08h37.13.009,HF_wild_card,2022.2.4,Win32,59.96282305,6389bd5d820b83080e2fc60a,64d2fd46c836a06233681665,64dc7c9aae035b106c2eb100,,,,,,,ctch,resources/DG.BMP,resources/DP.BMP,Door4,-0.256250011,-0.160416656,1,0,0,1.1155,optionLeft,60,8405,4,31,0,31,0,1,,,,,,,,,,,,,,,,,,,,,,,,,,,,,,,,,,,,,,,
,,,,,,,,2023-08-16_08h37.13.009,HF_wild_card,2022.2.4,Win32,59.96282305,6389bd5d820b83080e2fc60a,64d2fd46c836a06233681665,64dc7c9aae035b106c2eb100,,,,,,,sngl,resources/Empty.png,resources/DB.BMP,WildCard_Ex,0.256944444,-0.097222222,1,0,0,0.7152,optionRight,45,8450,4,32,0,32,0,1,,,,,,,,,,,,,,,,,,,,,,,,,,,,,,,,,,,,,,,
,,,,,,,,2023-08-16_08h37.13.009,HF_wild_card,2022.2.4,Win32,59.96282305,6389bd5d820b83080e2fc60a,64d2fd46c836a06233681665,64dc7c9aae035b106c2eb100,,,,,,,sngl,resources/Empty.png,resources/DP.BMP,Door1,0.231944508,-0.061805566,1,0,0,0.882,optionRight,30,8480,4,33,0,33,0,1,,,,,,,,,,,,,,,,,,,,,,,,,,,,,,,,,,,,,,,
,,,,,,,,2023-08-16_08h37.13.009,HF_wild_card,2022.2.4,Win32,59.96282305,6389bd5d820b83080e2fc60a,64d2fd46c836a06233681665,64dc7c9aae035b106c2eb100,,,,,,,decisionTrl,resources/DBN.BMP,resources/DP.BMP,Door1,0.179861175,-0.074305587,1,0,0,1.1158,optionRight,30,8510,4,34,0,34,0,1,,,,,,,,,,,,,,,,,,,,,,,,,,,,,,,,,,,,,,,
,,,,,,,,2023-08-16_08h37.13.009,HF_wild_card,2022.2.4,Win32,59.96282305,6389bd5d820b83080e2fc60a,64d2fd46c836a06233681665,64dc7c9aae035b106c2eb100,,,,,,,decisionTrl,resources/DBN.BMP,resources/DP.BMP,Door1,0.1875,-0.071527799,1,0,0,0.6149,optionRight,30,8540,4,35,0,35,0,1,,,,,,,,,,,,,,,,,,,,,,,,,,,,,,,,,,,,,,,
,,,,,,,,2023-08-16_08h37.13.009,HF_wild_card,2022.2.4,Win32,59.96282305,6389bd5d820b83080e2fc60a,64d2fd46c836a06233681665,64dc7c9aae035b106c2eb100,,,,,,,ctch,resources/DP.BMP,resources/DG.BMP,Door4,0.203472243,-0.04652781,1,0,0,0.7294,optionRight,80,8620,4,36,0,36,0,1,,,,,,,,,,,,,,,,,,,,,,,,,,,,,,,,,,,,,,,
,,,,,,,,2023-08-16_08h37.13.009,HF_wild_card,2022.2.4,Win32,59.96282305,6389bd5d820b83080e2fc60a,64d2fd46c836a06233681665,64dc7c9aae035b106c2eb100,,,,,,,decisionTrl,resources/DY.BMP,resources/DG.BMP,Door4,0.204861111,-0.060416698,1,0,0,0.7992,optionRight,60,8680,4,37,0,37,0,1,,,,,,,,,,,,,,,,,,,,,,,,,,,,,,,,,,,,,,,
,,,,,,,,2023-08-16_08h37.13.009,HF_wild_card,2022.2.4,Win32,59.96282305,6389bd5d820b83080e2fc60a,64d2fd46c836a06233681665,64dc7c9aae035b106c2eb100,,,,,,,ctch,resources/DBN.BMP,resources/DY.BMP,Door3,0.220138868,-0.085416688,1,0,0,0.6655,optionRight,70,8750,4,38,0,38,0,1,,,,,,,,,,,,,,,,,,,,,,,,,,,,,,,,,,,,,,,
,,,,,,,,2023-08-16_08h37.13.009,HF_wild_card,2022.2.4,Win32,59.96282305,6389bd5d820b83080e2fc60a,64d2fd46c836a06233681665,64dc7c9aae035b106c2eb100,,,,,,,ctch,resources/DP.BMP,resources/DG.BMP,Door4,0.220833355,-0.097916656,1,0,0,0.6489,optionRight,60,8810,4,39,0,39,0,1,,,,,,,,,,,,,,,,,,,,,,,,,,,,,,,,,,,,,,,
,,,,,,,,2023-08-16_08h37.13.009,HF_wild_card,2022.2.4,Win32,59.96282305,6389bd5d820b83080e2fc60a,64d2fd46c836a06233681665,64dc7c9aae035b106c2eb100,,,,,,,decisionTrl,resources/DY.BMP,resources/DG.BMP,Door4,0.232638889,-0.036111143,1,0,0,0.6659,optionRight,60,8870,4,40,0,40,0,1,,,,,,,,,,,,,,,,,,,,,,,,,,,,,,,,,,,,,,,
,,,,,,,,2023-08-16_08h37.13.009,HF_wild_card,2022.2.4,Win32,59.96282305,6389bd5d820b83080e2fc60a,64d2fd46c836a06233681665,64dc7c9aae035b106c2eb100,,,,,,,sngl,resources/DY.BMP,resources/Empty.png,Door3,-0.118749989,-0.068750011,1,0,0,0.7015,optionLeft,70,8940,4,41,0,41,0,1,,,,,,,,,,,,,,,,,,,,,,,,,,,,,,,,,,,,,,,
,,,,,,,,2023-08-16_08h37.13.009,HF_wild_card,2022.2.4,Win32,59.96282305,6389bd5d820b83080e2fc60a,64d2fd46c836a06233681665,64dc7c9aae035b106c2eb100,,,,,,,decisionTrl,resources/DP.BMP,resources/DBN.BMP,Door2,0.161805577,-0.064583355,1,0,0,1.1853,optionRight,20,8960,4,42,0,42,0,1,,,,,,,,,,,,,,,,,,,,,,,,,,,,,,,,,,,,,,,
,,,,,,,,2023-08-16_08h37.13.009,HF_wild_card,2022.2.4,Win32,59.96282305,6389bd5d820b83080e2fc60a,64d2fd46c836a06233681665,64dc7c9aae035b106c2eb100,,,,,,,decisionTrl,resources/DG.BMP,resources/DY.BMP,Door3,0.14652782,-0.056249989,1,0,0,0.8153,optionRight,70,9030,4,43,0,43,0,1,,,,,,,,,,,,,,,,,,,,,,,,,,,,,,,,,,,,,,,
,,,,,,,,2023-08-16_08h37.13.009,HF_wild_card,2022.2.4,Win32,59.96282305,6389bd5d820b83080e2fc60a,64d2fd46c836a06233681665,64dc7c9aae035b106c2eb100,,,,,,,,,,,,,,,,,,,,,,,,,,3,0,3,0,1,,,,,,,,,,,,,,,,,,,,,,,,,,,,,,,,,,
,,,,,,,,2023-08-16_08h37.13.009,HF_wild_card,2022.2.4,Win32,59.96282305,6389bd5d820b83080e2fc60a,64d2fd46c836a06233681665,64dc7c9aae035b106c2eb100,,,,,,,decisionTrl,resources/DY.BMP,resources/DG.BMP,Door4,0.227083312,-0.131944444,1,0,0,0.9313,optionRight,60,9090,5,0,0,0,0,1,,,,,,,,,,,,,,,,,,,,,,,,,,,,,,,,,,,,,,,
,,,,,,,,2023-08-16_08h37.13.009,HF_wild_card,2022.2.4,Win32,59.96282305,6389bd5d820b83080e2fc60a,64d2fd46c836a06233681665,64dc7c9aae035b106c2eb100,,,,,,,sngl,resources/Empty.png,resources/DBN.BMP,Door2,0.200694508,-0.069444444,1,0,0,0.6484,optionRight,20,9110,5,1,0,1,0,1,,,,,,,,,,,,,,,,,,,,,,,,,,,,,,,,,,,,,,,
,,,,,,,,2023-08-16_08h37.13.009,HF_wild_card,2022.2.4,Win32,59.96282305,6389bd5d820b83080e2fc60a,64d2fd46c836a06233681665,64dc7c9aae035b106c2eb100,,,,,,,decisionTrl,resources/DP.BMP,resources/DBN.BMP,Door1,-0.179861122,-0.129861143,1,0,0,0.7151,optionLeft,30,9140,5,2,0,2,0,1,,,,,,,,,,,,,,,,,,,,,,,,,,,,,,,,,,,,,,,
,,,,,,,,2023-08-16_08h37.13.009,HF_wild_card,2022.2.4,Win32,59.96282305,6389bd5d820b83080e2fc60a,64d2fd46c836a06233681665,64dc7c9aae035b106c2eb100,,,,,,,decisionTrl,resources/DY.BMP,resources/DG.BMP,Door3,-0.186805566,-0.109722243,1,0,0,0.4822,optionLeft,70,9210,5,3,0,3,0,1,,,,,,,,,,,,,,,,,,,,,,,,,,,,,,,,,,,,,,,
,,,,,,,,2023-08-16_08h37.13.009,HF_wild_card,2022.2.4,Win32,59.96282305,6389bd5d820b83080e2fc60a,64d2fd46c836a06233681665,64dc7c9aae035b106c2eb100,,,,,,,ctch,resources/DBN.BMP,resources/DY.BMP,Door3,0.350000064,-0.114583333,1,0,0,1.1159,optionRight,70,9280,5,4,0,4,0,1,,,,,,,,,,,,,,,,,,,,,,,,,,,,,,,,,,,,,,,
,,,,,,,,2023-08-16_08h37.13.009,HF_wild_card,2022.2.4,Win32,59.96282305,6389bd5d820b83080e2fc60a,64d2fd46c836a06233681665,64dc7c9aae035b106c2eb100,,,,,,,sngl,resources/Empty.png,resources/DG.BMP,Door4,0.211805556,-0.072222233,1,0,0,0.6812,optionRight,60,9340,5,5,0,5,0,1,,,,,,,,,,,,,,,,,,,,,,,,,,,,,,,,,,,,,,,
,,,,,,,,2023-08-16_08h37.13.009,HF_wild_card,2022.2.4,Win32,59.96282305,6389bd5d820b83080e2fc60a,64d2fd46c836a06233681665,64dc7c9aae035b106c2eb100,,,,,,,decisionTrl,resources/DP.BMP,resources/DBN.BMP,Door1,-0.205555545,-0.128472222,1,0,0,1.033,optionLeft,30,9370,5,6,0,6,0,1,,,,,,,,,,,,,,,,,,,,,,,,,,,,,,,,,,,,,,,
,,,,,,,,2023-08-16_08h37.13.009,HF_wild_card,2022.2.4,Win32,59.96282305,6389bd5d820b83080e2fc60a,64d2fd46c836a06233681665,64dc7c9aae035b106c2eb100,,,,,,,sngl,resources/Empty.png,resources/DB.BMP,WildCard_Ex,0.268749979,-0.075000021,1,0,0,0.6485,optionRight,55,9425,5,7,0,7,0,1,,,,,,,,,,,,,,,,,,,,,,,,,,,,,,,,,,,,,,,
,,,,,,,,2023-08-16_08h37.13.009,HF_wild_card,2022.2.4,Win32,59.96282305,6389bd5d820b83080e2fc60a,64d2fd46c836a06233681665,64dc7c9aae035b106c2eb100,,,,,,,decisionTrl,resources/DBN.BMP,resources/DP.BMP,Door1,0.286805577,-0.083333333,1,0,0,0.515,optionRight,30,9455,5,8,0,8,0,1,,,,,,,,,,,,,,,,,,,,,,,,,,,,,,,,,,,,,,,
,,,,,,,,2023-08-16_08h37.13.009,HF_wild_card,2022.2.4,Win32,59.96282305,6389bd5d820b83080e2fc60a,64d2fd46c836a06233681665,64dc7c9aae035b106c2eb100,,,,,,,decisionTrl,resources/DBN.BMP,resources/DB.BMP,WildCard_Ex,0.165972286,-0.028472212,1,0,0,0.5993,optionRight,45,9500,5,9,0,9,0,1,,,,,,,,,,,,,,,,,,,,,,,,,,,,,,,,,,,,,,,
,,,,,,,,2023-08-16_08h37.13.009,HF_wild_card,2022.2.4,Win32,59.96282305,6389bd5d820b83080e2fc60a,64d2fd46c836a06233681665,64dc7c9aae035b106c2eb100,,,,,,,ctch,resources/DP.BMP,resources/DG.BMP,Door4,0.234722243,-0.043055587,1,0,0,0.5317,optionRight,60,9560,5,10,0,10,0,1,,,,,,,,,,,,,,,,,,,,,,,,,,,,,,,,,,,,,,,
,,,,,,,,2023-08-16_08h37.13.009,HF_wild_card,2022.2.4,Win32,59.96282305,6389bd5d820b83080e2fc60a,64d2fd46c836a06233681665,64dc7c9aae035b106c2eb100,,,,,,,decisionTrl,resources/DG.BMP,resources/DY.BMP,Door3,0.140972243,-0.054861122,1,0,0,0.6815,optionRight,70,9630,5,11,0,11,0,1,,,,,,,,,,,,,,,,,,,,,,,,,,,,,,,,,,,,,,,
,,,,,,,,2023-08-16_08h37.13.009,HF_wild_card,2022.2.4,Win32,59.96282305,6389bd5d820b83080e2fc60a,64d2fd46c836a06233681665,64dc7c9aae035b106c2eb100,,,,,,,decisionTrl,resources/DBN.BMP,resources/DP.BMP,Door1,0.143749979,-0.043750021,1,0,0,0.6821,optionRight,30,9660,5,12,0,12,0,1,,,,,,,,,,,,,,,,,,,,,,,,,,,,,,,,,,,,,,,
,,,,,,,,2023-08-16_08h37.13.009,HF_wild_card,2022.2.4,Win32,59.96282305,6389bd5d820b83080e2fc60a,64d2fd46c836a06233681665,64dc7c9aae035b106c2eb100,,,,,,,ctch,resources/DY.BMP,resources/DBN.BMP,Door3,-0.175694413,-0.103472233,1,0,0,0.7652,optionLeft,70,9730,5,13,0,13,0,1,,,,,,,,,,,,,,,,,,,,,,,,,,,,,,,,,,,,,,,
,,,,,,,,2023-08-16_08h37.13.009,HF_wild_card,2022.2.4,Win32,59.96282305,6389bd5d820b83080e2fc60a,64d2fd46c836a06233681665,64dc7c9aae035b106c2eb100,,,,,,,decisionTrl,resources/DY.BMP,resources/DG.BMP,Door3,-0.245833344,-0.14027781,1,0,0,1.0993,optionLeft,70,9800,5,14,0,14,0,1,,,,,,,,,,,,,,,,,,,,,,,,,,,,,,,,,,,,,,,
,,,,,,,,2023-08-16_08h37.13.009,HF_wild_card,2022.2.4,Win32,59.96282305,6389bd5d820b83080e2fc60a,64d2fd46c836a06233681665,64dc7c9aae035b106c2eb100,,,,,,,sngl,resources/Empty.png,resources/DP.BMP,Door1,0.250694487,-0.111805545,1,0,0,1.1162,optionRight,30,9830,5,15,0,15,0,1,,,,,,,,,,,,,,,,,,,,,,,,,,,,,,,,,,,,,,,
,,,,,,,,2023-08-16_08h37.13.009,HF_wild_card,2022.2.4,Win32,59.96282305,6389bd5d820b83080e2fc60a,64d2fd46c836a06233681665,64dc7c9aae035b106c2eb100,,,,,,,sngl,resources/Empty.png,resources/DB.BMP,WildCard_Ex,0.23541673,-0.089583344,1,0,0,0.6154,optionRight,45,9875,5,16,0,16,0,1,,,,,,,,,,,,,,,,,,,,,,,,,,,,,,,,,,,,,,,
,,,,,,,,2023-08-16_08h37.13.009,HF_wild_card,2022.2.4,Win32,59.96282305,6389bd5d820b83080e2fc60a,64d2fd46c836a06233681665,64dc7c9aae035b106c2eb100,,,,,,,decisionTrl,resources/DBN.BMP,resources/DP.BMP,Door2,-0.143055545,-0.125694434,1,0,0,1.0488,optionLeft,20,9895,5,17,0,17,0,1,,,,,,,,,,,,,,,,,,,,,,,,,,,,,,,,,,,,,,,
,,,,,,,,2023-08-16_08h37.13.009,HF_wild_card,2022.2.4,Win32,59.96282305,6389bd5d820b83080e2fc60a,64d2fd46c836a06233681665,64dc7c9aae035b106c2eb100,,,,,,,decisionTrl,resources/DG.BMP,resources/DB.BMP,Door4,-0.145833333,-0.100000011,1,0,0,0.4483,optionLeft,80,9975,5,18,0,18,0,1,,,,,,,,,,,,,,,,,,,,,,,,,,,,,,,,,,,,,,,
,,,,,,,,2023-08-16_08h37.13.009,HF_wild_card,2022.2.4,Win32,59.96282305,6389bd5d820b83080e2fc60a,64d2fd46c836a06233681665,64dc7c9aae035b106c2eb100,,,,,,,decisionTrl,resources/DP.BMP,resources/DBN.BMP,Door1,-0.193750011,-0.123611132,1,0,0,0.4359,optionLeft,30,10005,5,19,0,19,0,1,,,,,,,,,,,,,,,,,,,,,,,,,,,,,,,,,,,,,,,
,,,,,,,,2023-08-16_08h37.13.009,HF_wild_card,2022.2.4,Win32,59.96282305,6389bd5d820b83080e2fc60a,64d2fd46c836a06233681665,64dc7c9aae035b106c2eb100,,,,,,,decisionTrl,resources/DB.BMP,resources/DG.BMP,Door4,0.156944487,-0.116666688,1,0,0,0.5308,optionRight,80,10085,5,20,0,20,0,1,,,,,,,,,,,,,,,,,,,,,,,,,,,,,,,,,,,,,,,
,,,,,,,,2023-08-16_08h37.13.009,HF_wild_card,2022.2.4,Win32,59.96282305,6389bd5d820b83080e2fc60a,64d2fd46c836a06233681665,64dc7c9aae035b106c2eb100,,,,,,,ctch,resources/DG.BMP,resources/DP.BMP,Door1,0.152777778,-0.098611143,1,0,0,0.8827,optionRight,30,10115,5,21,0,21,0,1,,,,,,,,,,,,,,,,,,,,,,,,,,,,,,,,,,,,,,,
,,,,,,,,2023-08-16_08h37.13.009,HF_wild_card,2022.2.4,Win32,59.96282305,6389bd5d820b83080e2fc60a,64d2fd46c836a06233681665,64dc7c9aae035b106c2eb100,,,,,,,decisionTrl,resources/DY.BMP,resources/DB.BMP,WildCard_Ex,0.203472243,-0.078472243,1,0,0,0.5654,optionRight,45,10160,5,22,0,22,0,1,,,,,,,,,,,,,,,,,,,,,,,,,,,,,,,,,,,,,,,
,,,,,,,,2023-08-16_08h37.13.009,HF_wild_card,2022.2.4,Win32,59.96282305,6389bd5d820b83080e2fc60a,64d2fd46c836a06233681665,64dc7c9aae035b106c2eb100,,,,,,,decisionTrl,resources/DB.BMP,resources/DY.BMP,Door3,0.172222243,-0.087499989,1,0,0,0.4816,optionRight,70,10230,5,23,0,23,0,1,,,,,,,,,,,,,,,,,,,,,,,,,,,,,,,,,,,,,,,
,,,,,,,,2023-08-16_08h37.13.009,HF_wild_card,2022.2.4,Win32,59.96282305,6389bd5d820b83080e2fc60a,64d2fd46c836a06233681665,64dc7c9aae035b106c2eb100,,,,,,,decisionTrl,resources/DY.BMP,resources/DG.BMP,Door4,0.202083376,-0.079861111,1,0,0,0.465,optionRight,80,10310,5,24,0,24,0,1,,,,,,,,,,,,,,,,,,,,,,,,,,,,,,,,,,,,,,,
,,,,,,,,2023-08-16_08h37.13.009,HF_wild_card,2022.2.4,Win32,59.96282305,6389bd5d820b83080e2fc60a,64d2fd46c836a06233681665,64dc7c9aae035b106c2eb100,,,,,,,decisionTrl,resources/DP.BMP,resources/DB.BMP,WildCard_Ex,0.215277778,-0.110416677,1,0,0,0.4644,optionRight,45,10355,5,25,0,25,0,1,,,,,,,,,,,,,,,,,,,,,,,,,,,,,,,,,,,,,,,
,,,,,,,,2023-08-16_08h37.13.009,HF_wild_card,2022.2.4,Win32,59.96282305,6389bd5d820b83080e2fc60a,64d2fd46c836a06233681665,64dc7c9aae035b106c2eb100,,,,,,,ctch,resources/DY.BMP,resources/DBN.BMP,Door2,0.218055619,-0.063888921,1,0,0,0.615,optionRight,40,10395,5,26,0,26,0,1,,,,,,,,,,,,,,,,,,,,,,,,,,,,,,,,,,,,,,,
,,,,,,,,2023-08-16_08h37.13.009,HF_wild_card,2022.2.4,Win32,59.96282305,6389bd5d820b83080e2fc60a,64d2fd46c836a06233681665,64dc7c9aae035b106c2eb100,,,,,,,decisionTrl,resources/DP.BMP,resources/DBN.BMP,Door2,0.184027778,-0.029166698,1,0,0,0.5482,optionRight,40,10435,5,27,0,27,0,1,,,,,,,,,,,,,,,,,,,,,,,,,,,,,,,,,,,,,,,
,,,,,,,,2023-08-16_08h37.13.009,HF_wild_card,2022.2.4,Win32,59.96282305,6389bd5d820b83080e2fc60a,64d2fd46c836a06233681665,64dc7c9aae035b106c2eb100,,,,,,,ctch,resources/DBN.BMP,resources/DY.BMP,Door3,0.159722222,-0.053472254,1,0,0,0.5321,optionRight,70,10505,5,28,0,28,0,1,,,,,,,,,,,,,,,,,,,,,,,,,,,,,,,,,,,,,,,
,,,,,,,,2023-08-16_08h37.13.009,HF_wild_card,2022.2.4,Win32,59.96282305,6389bd5d820b83080e2fc60a,64d2fd46c836a06233681665,64dc7c9aae035b106c2eb100,,,,,,,decisionTrl,resources/DBN.BMP,resources/DP.BMP,Door1,0.165277799,-0.075000021,1,0,0,0.5986,optionRight,30,10535,5,29,0,29,0,1,,,,,,,,,,,,,,,,,,,,,,,,,,,,,,,,,,,,,,,
,,,,,,,,2023-08-16_08h37.13.009,HF_wild_card,2022.2.4,Win32,59.96282305,6389bd5d820b83080e2fc60a,64d2fd46c836a06233681665,64dc7c9aae035b106c2eb100,,,,,,,sngl,resources/DBN.BMP,resources/Empty.png,Door2,-0.081944413,-0.105555587,1,0,0,0.8156,optionLeft,40,10575,5,30,0,30,0,1,,,,,,,,,,,,,,,,,,,,,,,,,,,,,,,,,,,,,,,
,,,,,,,,2023-08-16_08h37.13.009,HF_wild_card,2022.2.4,Win32,59.96282305,6389bd5d820b83080e2fc60a,64d2fd46c836a06233681665,64dc7c9aae035b106c2eb100,,,,,,,decisionTrl,resources/DB.BMP,resources/DP.BMP,WildCard_Ex,-0.418749968,-0.197222233,1,0,0,1.1602,optionLeft,55,10630,5,31,0,31,0,1,,,,,,,,,,,,,,,,,,,,,,,,,,,,,,,,,,,,,,,
,,,,,,,,2023-08-16_08h37.13.009,HF_wild_card,2022.2.4,Win32,59.96282305,6389bd5d820b83080e2fc60a,64d2fd46c836a06233681665,64dc7c9aae035b106c2eb100,,,,,,,decisionTrl,resources/DB.BMP,resources/DBN.BMP,WildCard_Ex,-0.338888857,-0.0625,1,0,0,0.5318,optionLeft,55,10685,5,32,0,32,0,1,,,,,,,,,,,,,,,,,,,,,,,,,,,,,,,,,,,,,,,
,,,,,,,,2023-08-16_08h37.13.009,HF_wild_card,2022.2.4,Win32,59.96282305,6389bd5d820b83080e2fc60a,64d2fd46c836a06233681665,64dc7c9aae035b106c2eb100,,,,,,,sngl,resources/DG.BMP,resources/Empty.png,Door4,-0.199999968,-0.059027778,1,0,0,0.5188,optionLeft,80,10765,5,33,0,33,0,1,,,,,,,,,,,,,,,,,,,,,,,,,,,,,,,,,,,,,,,
,,,,,,,,2023-08-16_08h37.13.009,HF_wild_card,2022.2.4,Win32,59.96282305,6389bd5d820b83080e2fc60a,64d2fd46c836a06233681665,64dc7c9aae035b106c2eb100,,,,,,,decisionTrl,resources/DG.BMP,resources/DY.BMP,Door4,-0.211111122,-0.063194434,1,0,0,0.6157,optionLeft,80,10845,5,34,0,34,0,1,,,,,,,,,,,,,,,,,,,,,,,,,,,,,,,,,,,,,,,
,,,,,,,,2023-08-16_08h37.13.009,HF_wild_card,2022.2.4,Win32,59.96282305,6389bd5d820b83080e2fc60a,64d2fd46c836a06233681665,64dc7c9aae035b106c2eb100,,,,,,,sngl,resources/DY.BMP,resources/Empty.png,Door3,-0.254166656,-0.088194476,1,0,0,0.5133,optionLeft,70,10915,5,35,0,35,0,1,,,,,,,,,,,,,,,,,,,,,,,,,,,,,,,,,,,,,,,
,,,,,,,,2023-08-16_08h37.13.009,HF_wild_card,2022.2.4,Win32,59.96282305,6389bd5d820b83080e2fc60a,64d2fd46c836a06233681665,64dc7c9aae035b106c2eb100,,,,,,,sngl,resources/Empty.png,resources/DY.BMP,Door3,0.308333397,-0.034027788,1,0,0,0.6989,optionRight,70,10985,5,36,0,36,0,1,,,,,,,,,,,,,,,,,,,,,,,,,,,,,,,,,,,,,,,
,,,,,,,,2023-08-16_08h37.13.009,HF_wild_card,2022.2.4,Win32,59.96282305,6389bd5d820b83080e2fc60a,64d2fd46c836a06233681665,64dc7c9aae035b106c2eb100,,,,,,,ctch,resources/DP.BMP,resources/DG.BMP,Door1,-0.154861079,-0.079861111,1,0,0,0.9845,optionLeft,30,11015,5,37,0,37,0,1,,,,,,,,,,,,,,,,,,,,,,,,,,,,,,,,,,,,,,,
,,,,,,,,2023-08-16_08h37.13.009,HF_wild_card,2022.2.4,Win32,59.96282305,6389bd5d820b83080e2fc60a,64d2fd46c836a06233681665,64dc7c9aae035b106c2eb100,,,,,,,sngl,resources/DP.BMP,resources/Empty.png,Door1,-0.231944455,-0.096527788,1,0,0,0.3986,optionLeft,30,11045,5,38,0,38,0,1,,,,,,,,,,,,,,,,,,,,,,,,,,,,,,,,,,,,,,,
,,,,,,,,2023-08-16_08h37.13.009,HF_wild_card,2022.2.4,Win32,59.96282305,6389bd5d820b83080e2fc60a,64d2fd46c836a06233681665,64dc7c9aae035b106c2eb100,,,,,,,sngl,resources/DB.BMP,resources/Empty.png,WildCard_Ex,-0.213194423,-0.097916656,1,0,0,0.6122,optionLeft,45,11090,5,39,0,39,0,1,,,,,,,,,,,,,,,,,,,,,,,,,,,,,,,,,,,,,,,
,,,,,,,,2023-08-16_08h37.13.009,HF_wild_card,2022.2.4,Win32,59.96282305,6389bd5d820b83080e2fc60a,64d2fd46c836a06233681665,64dc7c9aae035b106c2eb100,,,,,,,decisionTrl,resources/DG.BMP,resources/DY.BMP,Door4,-0.174305545,-0.076388889,1,0,0,0.6184,optionLeft,80,11170,5,40,0,40,0,1,,,,,,,,,,,,,,,,,,,,,,,,,,,,,,,,,,,,,,,
,,,,,,,,2023-08-16_08h37.13.009,HF_wild_card,2022.2.4,Win32,59.96282305,6389bd5d820b83080e2fc60a,64d2fd46c836a06233681665,64dc7c9aae035b106c2eb100,,,,,,,sngl,resources/DB.BMP,resources/Empty.png,WildCard_Ex,-0.199999968,-0.084722254,1,0,0,0.7813,optionLeft,55,11225,5,41,0,41,0,1,,,,,,,,,,,,,,,,,,,,,,,,,,,,,,,,,,,,,,,
,,,,,,,,2023-08-16_08h37.13.009,HF_wild_card,2022.2.4,Win32,59.96282305,6389bd5d820b83080e2fc60a,64d2fd46c836a06233681665,64dc7c9aae035b106c2eb100,,,,,,,ctch,resources/DG.BMP,resources/DP.BMP,Door1,0.209722201,-0.020833333,1,0,0,0.9153,optionRight,30,11255,5,42,0,42,0,1,,,,,,,,,,,,,,,,,,,,,,,,,,,,,,,,,,,,,,,
,,,,,,,,2023-08-16_08h37.13.009,HF_wild_card,2022.2.4,Win32,59.96282305,6389bd5d820b83080e2fc60a,64d2fd46c836a06233681665,64dc7c9aae035b106c2eb100,,,,,,,decisionTrl,resources/DG.BMP,resources/DY.BMP,Door3,0.273611175,-0.05763891,1,0,0,0.6494,optionRight,70,11325,5,43,0,43,0,1,,,,,,,,,,,,,,,,,,,,,,,,,,,,,,,,,,,,,,,
,,,,,,,,2023-08-16_08h37.13.009,HF_wild_card,2022.2.4,Win32,59.96282305,6389bd5d820b83080e2fc60a,64d2fd46c836a06233681665,64dc7c9aae035b106c2eb100,,,,,,,,,,,,,,,,,,,,,,,,,,4,0,4,0,1,,,,,,,,,,,,,,,,,,,,,,,,,,,,,,,,,,
,,,,,,,,2023-08-16_08h37.13.009,HF_wild_card,2022.2.4,Win32,59.96282305,6389bd5d820b83080e2fc60a,64d2fd46c836a06233681665,64dc7c9aae035b106c2eb100,,,,,,,decisionTrl,resources/DP.BMP,resources/DB.BMP,Door1,-0.159722222,-0.172916677,1,0,0,0.6921,optionLeft,30,11355,6,0,0,0,0,1,,,,,,,,,,,,,,,,,,,,,,,,,,,,,,,,,,,,,,,
,,,,,,,,2023-08-16_08h37.13.009,HF_wild_card,2022.2.4,Win32,59.96282305,6389bd5d820b83080e2fc60a,64d2fd46c836a06233681665,64dc7c9aae035b106c2eb100,,,,,,,sngl,resources/DG.BMP,resources/Empty.png,Door4,-0.197222233,-0.120833344,1,0,0,0.6655,optionLeft,60,11415,6,1,0,1,0,1,,,,,,,,,,,,,,,,,,,,,,,,,,,,,,,,,,,,,,,
,,,,,,,,2023-08-16_08h37.13.009,HF_wild_card,2022.2.4,Win32,59.96282305,6389bd5d820b83080e2fc60a,64d2fd46c836a06233681665,64dc7c9aae035b106c2eb100,,,,,,,decisionTrl,resources/DG.BMP,resources/DY.BMP,Door4,-0.182638857,-0.095138921,1,0,0,0.9322,optionLeft,80,11495,6,2,0,2,0,1,,,,,,,,,,,,,,,,,,,,,,,,,,,,,,,,,,,,,,,
,,,,,,,,2023-08-16_08h37.13.009,HF_wild_card,2022.2.4,Win32,59.96282305,6389bd5d820b83080e2fc60a,64d2fd46c836a06233681665,64dc7c9aae035b106c2eb100,,,,,,,decisionTrl,resources/DB.BMP,resources/DP.BMP,WildCard_Ex,-0.190972222,-0.087499989,1,0,0,0.5346,optionLeft,55,11550,6,3,0,3,0,1,,,,,,,,,,,,,,,,,,,,,,,,,,,,,,,,,,,,,,,
,,,,,,,,2023-08-16_08h37.13.009,HF_wild_card,2022.2.4,Win32,59.96282305,6389bd5d820b83080e2fc60a,64d2fd46c836a06233681665,64dc7c9aae035b106c2eb100,,,,,,,decisionTrl,resources/DBN.BMP,resources/DP.BMP,Door2,-0.194444444,-0.087499989,1,0,0,0.8158,optionLeft,20,11570,6,4,0,4,0,1,,,,,,,,,,,,,,,,,,,,,,,,,,,,,,,,,,,,,,,
,,,,,,,,2023-08-16_08h37.13.009,HF_wild_card,2022.2.4,Win32,59.96282305,6389bd5d820b83080e2fc60a,64d2fd46c836a06233681665,64dc7c9aae035b106c2eb100,,,,,,,sngl,resources/Empty.png,resources/DB.BMP,WildCard_Ex,0.228472286,-0.029861132,1,0,0,0.6988,optionRight,55,11625,6,5,0,5,0,1,,,,,,,,,,,,,,,,,,,,,,,,,,,,,,,,,,,,,,,
,,,,,,,,2023-08-16_08h37.13.009,HF_wild_card,2022.2.4,Win32,59.96282305,6389bd5d820b83080e2fc60a,64d2fd46c836a06233681665,64dc7c9aae035b106c2eb100,,,,,,,sngl,resources/DBN.BMP,resources/Empty.png,Door2,-0.135416667,-0.070833365,1,0,0,0.6495,optionLeft,20,11645,6,6,0,6,0,1,,,,,,,,,,,,,,,,,,,,,,,,,,,,,,,,,,,,,,,
,,,,,,,,2023-08-16_08h37.13.009,HF_wild_card,2022.2.4,Win32,59.96282305,6389bd5d820b83080e2fc60a,64d2fd46c836a06233681665,64dc7c9aae035b106c2eb100,,,,,,,decisionTrl,resources/DP.BMP,resources/DBN.BMP,Door1,-0.156944434,-0.085416688,1,0,0,0.5821,optionLeft,30,11675,6,7,0,7,0,1,,,,,,,,,,,,,,,,,,,,,,,,,,,,,,,,,,,,,,,
,,,,,,,,2023-08-16_08h37.13.009,HF_wild_card,2022.2.4,Win32,59.96282305,6389bd5d820b83080e2fc60a,64d2fd46c836a06233681665,64dc7c9aae035b106c2eb100,,,,,,,decisionTrl,resources/DBN.BMP,resources/DB.BMP,Door2,-0.179861122,-0.09375,1,0,0,0.6983,optionLeft,20,11695,6,8,0,8,0,1,,,,,,,,,,,,,,,,,,,,,,,,,,,,,,,,,,,,,,,
,,,,,,,,2023-08-16_08h37.13.009,HF_wild_card,2022.2.4,Win32,59.96282305,6389bd5d820b83080e2fc60a,64d2fd46c836a06233681665,64dc7c9aae035b106c2eb100,,,,,,,sngl,resources/DY.BMP,resources/Empty.png,Door3,-0.215972212,-0.120833344,1,0,0,0.602,optionLeft,70,11765,6,9,0,9,0,1,,,,,,,,,,,,,,,,,,,,,,,,,,,,,,,,,,,,,,,
,,,,,,,,2023-08-16_08h37.13.009,HF_wild_card,2022.2.4,Win32,59.96282305,6389bd5d820b83080e2fc60a,64d2fd46c836a06233681665,64dc7c9aae035b106c2eb100,,,,,,,sngl,resources/DB.BMP,resources/Empty.png,WildCard_Ex,-0.209722201,-0.107638889,1,0,0,0.5987,optionLeft,45,11810,6,10,0,10,0,1,,,,,,,,,,,,,,,,,,,,,,,,,,,,,,,,,,,,,,,
,,,,,,,,2023-08-16_08h37.13.009,HF_wild_card,2022.2.4,Win32,59.96282305,6389bd5d820b83080e2fc60a,64d2fd46c836a06233681665,64dc7c9aae035b106c2eb100,,,,,,,decisionTrl,resources/DB.BMP,resources/DBN.BMP,WildCard_Ex,-0.295138889,-0.124305566,1,0,0,0.9159,optionLeft,45,11855,6,11,0,11,0,1,,,,,,,,,,,,,,,,,,,,,,,,,,,,,,,,,,,,,,,
,,,,,,,,2023-08-16_08h37.13.009,HF_wild_card,2022.2.4,Win32,59.96282305,6389bd5d820b83080e2fc60a,64d2fd46c836a06233681665,64dc7c9aae035b106c2eb100,,,,,,,decisionTrl,resources/DBN.BMP,resources/DP.BMP,Door2,-0.204861111,-0.089583344,1,0,0,0.7486,optionLeft,20,11875,6,12,0,12,0,1,,,,,,,,,,,,,,,,,,,,,,,,,,,,,,,,,,,,,,,
,,,,,,,,2023-08-16_08h37.13.009,HF_wild_card,2022.2.4,Win32,59.96282305,6389bd5d820b83080e2fc60a,64d2fd46c836a06233681665,64dc7c9aae035b106c2eb100,,,,,,,decisionTrl,resources/DG.BMP,resources/DB.BMP,Door4,-0.196527746,-0.094444434,1,0,0,0.7651,optionLeft,80,11955,6,13,0,13,0,1,,,,,,,,,,,,,,,,,,,,,,,,,,,,,,,,,,,,,,,
,,,,,,,,2023-08-16_08h37.13.009,HF_wild_card,2022.2.4,Win32,59.96282305,6389bd5d820b83080e2fc60a,64d2fd46c836a06233681665,64dc7c9aae035b106c2eb100,,,,,,,decisionTrl,resources/DY.BMP,resources/DG.BMP,Door4,0.303472201,-0.024305556,1,0,0,0.9321,optionRight,60,12015,6,14,0,14,0,1,,,,,,,,,,,,,,,,,,,,,,,,,,,,,,,,,,,,,,,
,,,,,,,,2023-08-16_08h37.13.009,HF_wild_card,2022.2.4,Win32,59.96282305,6389bd5d820b83080e2fc60a,64d2fd46c836a06233681665,64dc7c9aae035b106c2eb100,,,,,,,ctch,resources/DBN.BMP,resources/DY.BMP,Door3,0.289583312,-0.010416667,1,0,0,0.799,optionRight,70,12085,6,15,0,15,0,1,,,,,,,,,,,,,,,,,,,,,,,,,,,,,,,,,,,,,,,
,,,,,,,,2023-08-16_08h37.13.009,HF_wild_card,2022.2.4,Win32,59.96282305,6389bd5d820b83080e2fc60a,64d2fd46c836a06233681665,64dc7c9aae035b106c2eb100,,,,,,,decisionTrl,resources/DB.BMP,resources/DY.BMP,Door3,0.268055598,-0.03125,1,0,0,0.6486,optionRight,70,12155,6,16,0,16,0,1,,,,,,,,,,,,,,,,,,,,,,,,,,,,,,,,,,,,,,,
,,,,,,,,2023-08-16_08h37.13.009,HF_wild_card,2022.2.4,Win32,59.96282305,6389bd5d820b83080e2fc60a,64d2fd46c836a06233681665,64dc7c9aae035b106c2eb100,,,,,,,sngl,resources/DB.BMP,resources/Empty.png,WildCard_Ex,-0.214583344,-0.110416677,1,0,0,0.6184,optionLeft,55,12210,6,17,0,17,0,1,,,,,,,,,,,,,,,,,,,,,,,,,,,,,,,,,,,,,,,
,,,,,,,,2023-08-16_08h37.13.009,HF_wild_card,2022.2.4,Win32,59.96282305,6389bd5d820b83080e2fc60a,64d2fd46c836a06233681665,64dc7c9aae035b106c2eb100,,,,,,,ctch,resources/DG.BMP,resources/DP.BMP,Door4,-0.167361101,-0.098611143,1,0,0,0.7319,optionLeft,80,12290,6,18,0,18,0,1,,,,,,,,,,,,,,,,,,,,,,,,,,,,,,,,,,,,,,,
,,,,,,,,2023-08-16_08h37.13.009,HF_wild_card,2022.2.4,Win32,59.96282305,6389bd5d820b83080e2fc60a,64d2fd46c836a06233681665,64dc7c9aae035b106c2eb100,,,,,,,ctch,resources/DP.BMP,resources/DG.BMP,Door4,0.234027757,-0.039583365,1,0,0,0.8149,optionRight,80,12370,6,19,0,19,0,1,,,,,,,,,,,,,,,,,,,,,,,,,,,,,,,,,,,,,,,
,,,,,,,,2023-08-16_08h37.13.009,HF_wild_card,2022.2.4,Win32,59.96282305,6389bd5d820b83080e2fc60a,64d2fd46c836a06233681665,64dc7c9aae035b106c2eb100,,,,,,,decisionTrl,resources/DY.BMP,resources/DG.BMP,Door4,0.243750042,-0.051388899,1,0,0,0.7155,optionRight,80,12450,6,20,0,20,0,1,,,,,,,,,,,,,,,,,,,,,,,,,,,,,,,,,,,,,,,
,,,,,,,,2023-08-16_08h37.13.009,HF_wild_card,2022.2.4,Win32,59.96282305,6389bd5d820b83080e2fc60a,64d2fd46c836a06233681665,64dc7c9aae035b106c2eb100,,,,,,,decisionTrl,resources/DBN.BMP,resources/DP.BMP,Door1,0.184027778,-0.031944434,1,0,0,0.9142,optionRight,30,12480,6,21,0,21,0,1,,,,,,,,,,,,,,,,,,,,,,,,,,,,,,,,,,,,,,,
,,,,,,,,2023-08-16_08h37.13.009,HF_wild_card,2022.2.4,Win32,59.96282305,6389bd5d820b83080e2fc60a,64d2fd46c836a06233681665,64dc7c9aae035b106c2eb100,,,,,,,sngl,resources/Empty.png,resources/DB.BMP,WildCard_Ex,0.232638889,-0.029166698,1,0,0,0.6987,optionRight,45,12525,6,22,0,22,0,1,,,,,,,,,,,,,,,,,,,,,,,,,,,,,,,,,,,,,,,
,,,,,,,,2023-08-16_08h37.13.009,HF_wild_card,2022.2.4,Win32,59.96282305,6389bd5d820b83080e2fc60a,64d2fd46c836a06233681665,64dc7c9aae035b106c2eb100,,,,,,,ctch,resources/DG.BMP,resources/DP.BMP,Door4,-0.177777767,-0.102083365,1,0,0,0.6823,optionLeft,80,12605,6,23,0,23,0,1,,,,,,,,,,,,,,,,,,,,,,,,,,,,,,,,,,,,,,,
,,,,,,,,2023-08-16_08h37.13.009,HF_wild_card,2022.2.4,Win32,59.96282305,6389bd5d820b83080e2fc60a,64d2fd46c836a06233681665,64dc7c9aae035b106c2eb100,,,,,,,decisionTrl,resources/DP.BMP,resources/DBN.BMP,Door1,-0.181249989,-0.124305566,1,0,0,1.047,optionLeft,30,12635,6,24,0,24,0,1,,,,,,,,,,,,,,,,,,,,,,,,,,,,,,,,,,,,,,,
,,,,,,,,2023-08-16_08h37.13.009,HF_wild_card,2022.2.4,Win32,59.96282305,6389bd5d820b83080e2fc60a,64d2fd46c836a06233681665,64dc7c9aae035b106c2eb100,,,,,,,ctch,resources/DY.BMP,resources/DBN.BMP,Door3,-0.197916667,-0.107638889,1,0,0,0.5784,optionLeft,70,12705,6,25,0,25,0,1,,,,,,,,,,,,,,,,,,,,,,,,,,,,,,,,,,,,,,,
,,,,,,,,2023-08-16_08h37.13.009,HF_wild_card,2022.2.4,Win32,59.96282305,6389bd5d820b83080e2fc60a,64d2fd46c836a06233681665,64dc7c9aae035b106c2eb100,,,,,,,decisionTrl,resources/DY.BMP,resources/DG.BMP,Door3,-0.185416645,-0.092361132,1,0,0,0.7997,optionLeft,70,12775,6,26,0,26,0,1,,,,,,,,,,,,,,,,,,,,,,,,,,,,,,,,,,,,,,,
,,,,,,,,2023-08-16_08h37.13.009,HF_wild_card,2022.2.4,Win32,59.96282305,6389bd5d820b83080e2fc60a,64d2fd46c836a06233681665,64dc7c9aae035b106c2eb100,,,,,,,decisionTrl,resources/DG.BMP,resources/DY.BMP,Door4,-0.209722201,-0.125,1,0,0,1.0316,optionLeft,80,12855,6,27,0,27,0,1,,,,,,,,,,,,,,,,,,,,,,,,,,,,,,,,,,,,,,,
,,,,,,,,2023-08-16_08h37.13.009,HF_wild_card,2022.2.4,Win32,59.96282305,6389bd5d820b83080e2fc60a,64d2fd46c836a06233681665,64dc7c9aae035b106c2eb100,,,,,,,decisionTrl,resources/DG.BMP,resources/DY.BMP,Door4,-0.188194434,-0.098611143,1,0,0,0.6818,optionLeft,80,12935,6,28,0,28,0,1,,,,,,,,,,,,,,,,,,,,,,,,,,,,,,,,,,,,,,,
,,,,,,,,2023-08-16_08h37.13.009,HF_wild_card,2022.2.4,Win32,59.96282305,6389bd5d820b83080e2fc60a,64d2fd46c836a06233681665,64dc7c9aae035b106c2eb100,,,,,,,sngl,resources/Empty.png,resources/DBN.BMP,Door2,0.24513891,-0.041666667,1,0,0,1.1156,optionRight,40,12975,6,29,0,29,0,1,,,,,,,,,,,,,,,,,,,,,,,,,,,,,,,,,,,,,,,
,,,,,,,,2023-08-16_08h37.13.009,HF_wild_card,2022.2.4,Win32,59.96282305,6389bd5d820b83080e2fc60a,64d2fd46c836a06233681665,64dc7c9aae035b106c2eb100,,,,,,,decisionTrl,resources/DG.BMP,resources/DY.BMP,Door3,0.243750042,-0.040972233,1,0,0,0.7489,optionRight,70,13045,6,30,0,30,0,1,,,,,,,,,,,,,,,,,,,,,,,,,,,,,,,,,,,,,,,
,,,,,,,,2023-08-16_08h37.13.009,HF_wild_card,2022.2.4,Win32,59.96282305,6389bd5d820b83080e2fc60a,64d2fd46c836a06233681665,64dc7c9aae035b106c2eb100,,,,,,,decisionTrl,resources/DBN.BMP,resources/DP.BMP,Door1,0.193750064,-0.052777767,1,0,0,1.1492,optionRight,30,13075,6,31,0,31,0,1,,,,,,,,,,,,,,,,,,,,,,,,,,,,,,,,,,,,,,,
,,,,,,,,2023-08-16_08h37.13.009,HF_wild_card,2022.2.4,Win32,59.96282305,6389bd5d820b83080e2fc60a,64d2fd46c836a06233681665,64dc7c9aae035b106c2eb100,,,,,,,decisionTrl,resources/DP.BMP,resources/DBN.BMP,Door2,0.253472222,-0.063194434,1,0,0,0.7816,optionRight,20,13095,6,32,0,32,0,1,,,,,,,,,,,,,,,,,,,,,,,,,,,,,,,,,,,,,,,
,,,,,,,,2023-08-16_08h37.13.009,HF_wild_card,2022.2.4,Win32,59.96282305,6389bd5d820b83080e2fc60a,64d2fd46c836a06233681665,64dc7c9aae035b106c2eb100,,,,,,,sngl,resources/Empty.png,resources/DP.BMP,Door1,0.259722286,-0.03125,1,0,0,0.6318,optionRight,30,13125,6,33,0,33,0,1,,,,,,,,,,,,,,,,,,,,,,,,,,,,,,,,,,,,,,,
,,,,,,,,2023-08-16_08h37.13.009,HF_wild_card,2022.2.4,Win32,59.96282305,6389bd5d820b83080e2fc60a,64d2fd46c836a06233681665,64dc7c9aae035b106c2eb100,,,,,,,ctch,resources/DY.BMP,resources/DBN.BMP,Door3,-0.189583302,-0.123611132,1,0,0,0.6967,optionLeft,70,13195,6,34,0,34,0,1,,,,,,,,,,,,,,,,,,,,,,,,,,,,,,,,,,,,,,,
,,,,,,,,2023-08-16_08h37.13.009,HF_wild_card,2022.2.4,Win32,59.96282305,6389bd5d820b83080e2fc60a,64d2fd46c836a06233681665,64dc7c9aae035b106c2eb100,,,,,,,decisionTrl,resources/DB.BMP,resources/DG.BMP,WildCard_Ex,-0.229166667,-0.131250011,1,0,0,0.6485,optionLeft,55,13250,6,35,0,35,0,1,,,,,,,,,,,,,,,,,,,,,,,,,,,,,,,,,,,,,,,
,,,,,,,,2023-08-16_08h37.13.009,HF_wild_card,2022.2.4,Win32,59.96282305,6389bd5d820b83080e2fc60a,64d2fd46c836a06233681665,64dc7c9aae035b106c2eb100,,,,,,,sngl,resources/DP.BMP,resources/Empty.png,Door1,-0.199305534,-0.123611132,1,0,0,0.5984,optionLeft,30,13280,6,36,0,36,0,1,,,,,,,,,,,,,,,,,,,,,,,,,,,,,,,,,,,,,,,
,,,,,,,,2023-08-16_08h37.13.009,HF_wild_card,2022.2.4,Win32,59.96282305,6389bd5d820b83080e2fc60a,64d2fd46c836a06233681665,64dc7c9aae035b106c2eb100,,,,,,,ctch,resources/DP.BMP,resources/DG.BMP,Door4,0.229166667,-0.047222243,1,0,0,0.7786,optionRight,80,13360,6,37,0,37,0,1,,,,,,,,,,,,,,,,,,,,,,,,,,,,,,,,,,,,,,,
,,,,,,,,2023-08-16_08h37.13.009,HF_wild_card,2022.2.4,Win32,59.96282305,6389bd5d820b83080e2fc60a,64d2fd46c836a06233681665,64dc7c9aae035b106c2eb100,,,,,,,decisionTrl,resources/DP.BMP,resources/DBN.BMP,Door1,-0.17222219,-0.097916656,1,0,0,0.7818,optionLeft,30,13390,6,38,0,38,0,1,,,,,,,,,,,,,,,,,,,,,,,,,,,,,,,,,,,,,,,
,,,,,,,,2023-08-16_08h37.13.009,HF_wild_card,2022.2.4,Win32,59.96282305,6389bd5d820b83080e2fc60a,64d2fd46c836a06233681665,64dc7c9aae035b106c2eb100,,,,,,,ctch,resources/DBN.BMP,resources/DY.BMP,Door3,0.255555577,-0.027083344,1,0,0,1.1986,optionRight,70,13460,6,39,0,39,0,1,,,,,,,,,,,,,,,,,,,,,,,,,,,,,,,,,,,,,,,
,,,,,,,,2023-08-16_08h37.13.009,HF_wild_card,2022.2.4,Win32,59.96282305,6389bd5d820b83080e2fc60a,64d2fd46c836a06233681665,64dc7c9aae035b106c2eb100,,,,,,,sngl,resources/Empty.png,resources/DG.BMP,Door4,0.240972201,-0.056944476,1,0,0,0.6485,optionRight,80,13540,6,40,0,40,0,1,,,,,,,,,,,,,,,,,,,,,,,,,,,,,,,,,,,,,,,
,,,,,,,,2023-08-16_08h37.13.009,HF_wild_card,2022.2.4,Win32,59.96282305,6389bd5d820b83080e2fc60a,64d2fd46c836a06233681665,64dc7c9aae035b106c2eb100,,,,,,,decisionTrl,resources/DY.BMP,resources/DB.BMP,Door3,-0.168055534,-0.136111101,1,0,0,0.7994,optionLeft,70,13610,6,41,0,41,0,1,,,,,,,,,,,,,,,,,,,,,,,,,,,,,,,,,,,,,,,
,,,,,,,,2023-08-16_08h37.13.009,HF_wild_card,2022.2.4,Win32,59.96282305,6389bd5d820b83080e2fc60a,64d2fd46c836a06233681665,64dc7c9aae035b106c2eb100,,,,,,,decisionTrl,resources/DY.BMP,resources/DG.BMP,Door3,-0.17222219,-0.118749989,1,0,0,0.5988,optionLeft,70,13680,6,42,0,42,0,1,,,,,,,,,,,,,,,,,,,,,,,,,,,,,,,,,,,,,,,
,,,,,,,,2023-08-16_08h37.13.009,HF_wild_card,2022.2.4,Win32,59.96282305,6389bd5d820b83080e2fc60a,64d2fd46c836a06233681665,64dc7c9aae035b106c2eb100,,,,,,,sngl,resources/Empty.png,resources/DY.BMP,Door3,0.25,-0.056249989,1,0,0,0.6652,optionRight,70,13750,6,43,0,43,0,1,,,,,,,,,,,,,,,,,,,,,,,,,,,,,,,,,,,,,,,
,,,,,,,,2023-08-16_08h37.13.009,HF_wild_card,2022.2.4,Win32,59.96282305,6389bd5d820b83080e2fc60a,64d2fd46c836a06233681665,64dc7c9aae035b106c2eb100,,,,,,,,,,,,,,,,,,,,,,,,,,5,0,5,0,1,,,,,,,,,,,,,,,,,,,,,,,,,,,,,,,,,,
,,,,,,,,2023-08-16_08h37.13.009,HF_wild_card,2022.2.4,Win32,59.96282305,6389bd5d820b83080e2fc60a,64d2fd46c836a06233681665,64dc7c9aae035b106c2eb100,,,,,,,decisionTrl,resources/DBN.BMP,resources/DP.BMP,Door1,0.289583312,-0.178472254,1,0,0,1.1234,optionRight,30,13780,7,0,0,0,0,1,,,,,,,,,,,,,,,,,,,,,,,,,,,,,,,,,,,,,,,
,,,,,,,,2023-08-16_08h37.13.009,HF_wild_card,2022.2.4,Win32,59.96282305,6389bd5d820b83080e2fc60a,64d2fd46c836a06233681665,64dc7c9aae035b106c2eb100,,,,,,,ctch,resources/DG.BMP,resources/DP.BMP,Door1,0.222222222,-0.028472212,1,0,0,0.7997,optionRight,30,13810,7,1,0,1,0,1,,,,,,,,,,,,,,,,,,,,,,,,,,,,,,,,,,,,,,,
,,,,,,,,2023-08-16_08h37.13.009,HF_wild_card,2022.2.4,Win32,59.96282305,6389bd5d820b83080e2fc60a,64d2fd46c836a06233681665,64dc7c9aae035b106c2eb100,,,,,,,decisionTrl,resources/DP.BMP,resources/DBN.BMP,Door1,-0.256250011,-0.175694466,1,0,0,0.9829,optionLeft,30,13840,7,2,0,2,0,1,,,,,,,,,,,,,,,,,,,,,,,,,,,,,,,,,,,,,,,
,,,,,,,,2023-08-16_08h37.13.009,HF_wild_card,2022.2.4,Win32,59.96282305,6389bd5d820b83080e2fc60a,64d2fd46c836a06233681665,64dc7c9aae035b106c2eb100,,,,,,,ctch,resources/DY.BMP,resources/DBN.BMP,Door3,-0.207638899,-0.123611132,1,0,0,0.6365,optionLeft,70,13910,7,3,0,3,0,1,,,,,,,,,,,,,,,,,,,,,,,,,,,,,,,,,,,,,,,
,,,,,,,,2023-08-16_08h37.13.009,HF_wild_card,2022.2.4,Win32,59.96282305,6389bd5d820b83080e2fc60a,64d2fd46c836a06233681665,64dc7c9aae035b106c2eb100,,,,,,,decisionTrl,resources/DY.BMP,resources/DG.BMP,Door3,-0.243749989,-0.134722233,1,0,0,0.6164,optionLeft,70,13980,7,4,0,4,0,1,,,,,,,,,,,,,,,,,,,,,,,,,,,,,,,,,,,,,,,
,,,,,,,,2023-08-16_08h37.13.009,HF_wild_card,2022.2.4,Win32,59.96282305,6389bd5d820b83080e2fc60a,64d2fd46c836a06233681665,64dc7c9aae035b106c2eb100,,,,,,,ctch,resources/DP.BMP,resources/DG.BMP,Door1,-0.202777757,-0.118749989,1,0,0,0.8332,optionLeft,30,14010,7,5,0,5,0,1,,,,,,,,,,,,,,,,,,,,,,,,,,,,,,,,,,,,,,,
,,,,,,,,2023-08-16_08h37.13.009,HF_wild_card,2022.2.4,Win32,59.96282305,6389bd5d820b83080e2fc60a,64d2fd46c836a06233681665,64dc7c9aae035b106c2eb100,,,,,,,ctch,resources/DBN.BMP,resources/DY.BMP,Door3,0.318055577,-0.022222254,1,0,0,0.7998,optionRight,70,14080,7,6,0,6,0,1,,,,,,,,,,,,,,,,,,,,,,,,,,,,,,,,,,,,,,,
,,,,,,,,2023-08-16_08h37.13.009,HF_wild_card,2022.2.4,Win32,59.96282305,6389bd5d820b83080e2fc60a,64d2fd46c836a06233681665,64dc7c9aae035b106c2eb100,,,,,,,decisionTrl,resources/DG.BMP,resources/DY.BMP,Door3,0.219444487,-0.040277799,1,0,0,0.6499,optionRight,70,14150,7,7,0,7,0,1,,,,,,,,,,,,,,,,,,,,,,,,,,,,,,,,,,,,,,,
,,,,,,,,2023-08-16_08h37.13.009,HF_wild_card,2022.2.4,Win32,59.96282305,6389bd5d820b83080e2fc60a,64d2fd46c836a06233681665,64dc7c9aae035b106c2eb100,,,,,,,decisionTrl,resources/DP.BMP,resources/DBN.BMP,Door1,-0.17222219,-0.137500021,1,0,0,1.1499,optionLeft,30,14180,7,8,0,8,0,1,,,,,,,,,,,,,,,,,,,,,,,,,,,,,,,,,,,,,,,
,,,,,,,,2023-08-16_08h37.13.009,HF_wild_card,2022.2.4,Win32,59.96282305,6389bd5d820b83080e2fc60a,64d2fd46c836a06233681665,64dc7c9aae035b106c2eb100,,,,,,,decisionTrl,resources/DP.BMP,resources/DBN.BMP,Door1,-0.125,-0.095833355,1,0,0,0.6866,optionLeft,30,14210,7,9,0,9,0,1,,,,,,,,,,,,,,,,,,,,,,,,,,,,,,,,,,,,,,,
,,,,,,,,2023-08-16_08h37.13.009,HF_wild_card,2022.2.4,Win32,59.96282305,6389bd5d820b83080e2fc60a,64d2fd46c836a06233681665,64dc7c9aae035b106c2eb100,,,,,,,ctch,resources/DG.BMP,resources/DP.BMP,Door4,-0.165972233,-0.121527778,1,0,0,1.3996,optionLeft,80,14290,7,10,0,10,0,1,,,,,,,,,,,,,,,,,,,,,,,,,,,,,,,,,,,,,,,
,,,,,,,,2023-08-16_08h37.13.009,HF_wild_card,2022.2.4,Win32,59.96282305,6389bd5d820b83080e2fc60a,64d2fd46c836a06233681665,64dc7c9aae035b106c2eb100,,,,,,,ctch,resources/DP.BMP,resources/DG.BMP,Door1,-0.198611101,-0.15138891,1,0,0,0.866,optionLeft,30,14320,7,11,0,11,0,1,,,,,,,,,,,,,,,,,,,,,,,,,,,,,,,,,,,,,,,
,,,,,,,,2023-08-16_08h37.13.009,HF_wild_card,2022.2.4,Win32,59.96282305,6389bd5d820b83080e2fc60a,64d2fd46c836a06233681665,64dc7c9aae035b106c2eb100,,,,,,,decisionTrl,resources/DBN.BMP,resources/DP.BMP,Door1,0.19236109,-0.033333355,1,0,0,0.8663,optionRight,30,14350,7,12,0,12,0,1,,,,,,,,,,,,,,,,,,,,,,,,,,,,,,,,,,,,,,,
,,,,,,,,2023-08-16_08h37.13.009,HF_wild_card,2022.2.4,Win32,59.96282305,6389bd5d820b83080e2fc60a,64d2fd46c836a06233681665,64dc7c9aae035b106c2eb100,,,,,,,decisionTrl,resources/DY.BMP,resources/DG.BMP,Door3,-0.169444455,-0.127777788,1,0,0,1.1499,optionLeft,70,14420,7,13,0,13,0,1,,,,,,,,,,,,,,,,,,,,,,,,,,,,,,,,,,,,,,,
,,,,,,,,2023-08-16_08h37.13.009,HF_wild_card,2022.2.4,Win32,59.96282305,6389bd5d820b83080e2fc60a,64d2fd46c836a06233681665,64dc7c9aae035b106c2eb100,,,,,,,decisionTrl,resources/DBN.BMP,resources/DP.BMP,Door1,0.184722265,-0.050000032,1,0,0,1.1336,optionRight,30,14450,7,14,0,14,0,1,,,,,,,,,,,,,,,,,,,,,,,,,,,,,,,,,,,,,,,
,,,,,,,,2023-08-16_08h37.13.009,HF_wild_card,2022.2.4,Win32,59.96282305,6389bd5d820b83080e2fc60a,64d2fd46c836a06233681665,64dc7c9aae035b106c2eb100,,,,,,,decisionTrl,resources/DY.BMP,resources/DG.BMP,Door3,-0.154166645,-0.137500021,1,0,0,0.8661,optionLeft,70,14520,7,15,0,15,0,1,,,,,,,,,,,,,,,,,,,,,,,,,,,,,,,,,,,,,,,
,,,,,,,,2023-08-16_08h37.13.009,HF_wild_card,2022.2.4,Win32,59.96282305,6389bd5d820b83080e2fc60a,64d2fd46c836a06233681665,64dc7c9aae035b106c2eb100,,,,,,,decisionTrl,resources/DY.BMP,resources/DG.BMP,Door3,-0.174999979,-0.14027781,1,0,0,0.82,optionLeft,70,14590,7,16,0,16,0,1,,,,,,,,,,,,,,,,,,,,,,,,,,,,,,,,,,,,,,,
,,,,,,,,2023-08-16_08h37.13.009,HF_wild_card,2022.2.4,Win32,59.96282305,6389bd5d820b83080e2fc60a,64d2fd46c836a06233681665,64dc7c9aae035b106c2eb100,,,,,,,decisionTrl,resources/DG.BMP,resources/DY.BMP,Door4,-0.263888889,-0.191666656,1,0,0,1.4837,optionLeft,60,14650,7,17,0,17,0,1,,,,,,,,,,,,,,,,,,,,,,,,,,,,,,,,,,,,,,,
,,,,,,,,2023-08-16_08h37.13.009,HF_wild_card,2022.2.4,Win32,59.96282305,6389bd5d820b83080e2fc60a,64d2fd46c836a06233681665,64dc7c9aae035b106c2eb100,,,,,,,ctch,resources/DBN.BMP,resources/DY.BMP,Door2,-0.169444455,-0.114583333,1,0,0,0.9832,optionLeft,20,14670,7,18,0,18,0,1,,,,,,,,,,,,,,,,,,,,,,,,,,,,,,,,,,,,,,,
,,,,,,,,2023-08-16_08h37.13.009,HF_wild_card,2022.2.4,Win32,59.96282305,6389bd5d820b83080e2fc60a,64d2fd46c836a06233681665,64dc7c9aae035b106c2eb100,,,,,,,decisionTrl,resources/DBN.BMP,resources/DP.BMP,Door1,0.222916709,-0.020138899,1,0,0,0.9167,optionRight,30,14700,7,19,0,19,0,1,,,,,,,,,,,,,,,,,,,,,,,,,,,,,,,,,,,,,,,
,,,,,,,,2023-08-16_08h37.13.009,HF_wild_card,2022.2.4,Win32,59.96282305,6389bd5d820b83080e2fc60a,64d2fd46c836a06233681665,64dc7c9aae035b106c2eb100,,,,,,,decisionTrl,resources/DG.BMP,resources/DY.BMP,Door3,0.145833333,-0.033333355,1,0,0,0.8838,optionRight,70,14770,7,20,0,20,0,1,,,,,,,,,,,,,,,,,,,,,,,,,,,,,,,,,,,,,,,
,,,,,,,,2023-08-16_08h37.13.009,HF_wild_card,2022.2.4,Win32,59.96282305,6389bd5d820b83080e2fc60a,64d2fd46c836a06233681665,64dc7c9aae035b106c2eb100,,,,,,,ctch,resources/DP.BMP,resources/DG.BMP,Door4,0.236805598,-0.009722233,1,0,0,0.7995,optionRight,60,14830,7,21,0,21,0,1,,,,,,,,,,,,,,,,,,,,,,,,,,,,,,,,,,,,,,,
,,,,,,,,2023-08-16_08h37.13.009,HF_wild_card,2022.2.4,Win32,59.96282305,6389bd5d820b83080e2fc60a,64d2fd46c836a06233681665,64dc7c9aae035b106c2eb100,,,,,,,ctch,resources/DY.BMP,resources/DBN.BMP,Door3,-0.163194444,-0.127777788,1,0,0,0.899,optionLeft,70,14900,7,22,0,22,0,1,,,,,,,,,,,,,,,,,,,,,,,,,,,,,,,,,,,,,,,
,,,,,,,,2023-08-16_08h37.13.009,HF_wild_card,2022.2.4,Win32,59.96282305,6389bd5d820b83080e2fc60a,64d2fd46c836a06233681665,64dc7c9aae035b106c2eb100,,,,,,,ctch,resources/DY.BMP,resources/DBN.BMP,Door3,-0.157638868,-0.125694434,1,0,0,0.6164,optionLeft,70,14970,7,23,0,23,0,1,,,,,,,,,,,,,,,,,,,,,,,,,,,,,,,,,,,,,,,
,,,,,,,,2023-08-16_08h37.13.009,HF_wild_card,2022.2.4,Win32,59.96282305,6389bd5d820b83080e2fc60a,64d2fd46c836a06233681665,64dc7c9aae035b106c2eb100,,,,,,,decisionTrl,resources/DG.BMP,resources/DY.BMP,Door4,-0.17222219,-0.170833323,1,0,0,1.4501,optionLeft,60,15030,7,24,0,24,0,1,,,,,,,,,,,,,,,,,,,,,,,,,,,,,,,,,,,,,,,
,,,,,,,,2023-08-16_08h37.13.009,HF_wild_card,2022.2.4,Win32,59.96282305,6389bd5d820b83080e2fc60a,64d2fd46c836a06233681665,64dc7c9aae035b106c2eb100,,,,,,,decisionTrl,resources/DG.BMP,resources/DY.BMP,Door4,-0.210416635,-0.122916698,1,0,0,0.8509,optionLeft,60,15090,7,25,0,25,0,1,,,,,,,,,,,,,,,,,,,,,,,,,,,,,,,,,,,,,,,
,,,,,,,,2023-08-16_08h37.13.009,HF_wild_card,2022.2.4,Win32,59.96282305,6389bd5d820b83080e2fc60a,64d2fd46c836a06233681665,64dc7c9aae035b106c2eb100,,,,,,,decisionTrl,resources/DP.BMP,resources/DBN.BMP,Door1,-0.185416645,-0.10902781,1,0,0,0.7335,optionLeft,30,15120,7,26,0,26,0,1,,,,,,,,,,,,,,,,,,,,,,,,,,,,,,,,,,,,,,,
,,,,,,,,2023-08-16_08h37.13.009,HF_wild_card,2022.2.4,Win32,59.96282305,6389bd5d820b83080e2fc60a,64d2fd46c836a06233681665,64dc7c9aae035b106c2eb100,,,,,,,decisionTrl,resources/DY.BMP,resources/DG.BMP,Door3,-0.160416656,-0.095833355,1,0,0,0.6829,optionLeft,70,15190,7,27,0,27,0,1,,,,,,,,,,,,,,,,,,,,,,,,,,,,,,,,,,,,,,,
,,,,,,,,2023-08-16_08h37.13.009,HF_wild_card,2022.2.4,Win32,59.96282305,6389bd5d820b83080e2fc60a,64d2fd46c836a06233681665,64dc7c9aae035b106c2eb100,,,,,,,decisionTrl,resources/DBN.BMP,resources/DP.BMP,Door1,0.203472243,-0.100694444,1,0,0,0.9665,optionRight,30,15220,7,28,0,28,0,1,,,,,,,,,,,,,,,,,,,,,,,,,,,,,,,,,,,,,,,
,,,,,,,,2023-08-16_08h37.13.009,HF_wild_card,2022.2.4,Win32,59.96282305,6389bd5d820b83080e2fc60a,64d2fd46c836a06233681665,64dc7c9aae035b106c2eb100,,,,,,,decisionTrl,resources/DP.BMP,resources/DBN.BMP,Door1,-0.207638899,-0.14027781,1,0,0,0.6665,optionLeft,30,15250,7,29,0,29,0,1,,,,,,,,,,,,,,,,,,,,,,,,,,,,,,,,,,,,,,,
,,,,,,,,2023-08-16_08h37.13.009,HF_wild_card,2022.2.4,Win32,59.96282305,6389bd5d820b83080e2fc60a,64d2fd46c836a06233681665,64dc7c9aae035b106c2eb100,,,,,,,ctch,resources/DBN.BMP,resources/DY.BMP,Door3,0.231944508,-0.066666656,1,0,0,0.8,optionRight,70,15320,7,30,0,30,0,1,,,,,,,,,,,,,,,,,,,,,,,,,,,,,,,,,,,,,,,
,,,,,,,,2023-08-16_08h37.13.009,HF_wild_card,2022.2.4,Win32,59.96282305,6389bd5d820b83080e2fc60a,64d2fd46c836a06233681665,64dc7c9aae035b106c2eb100,,,,,,,decisionTrl,resources/DG.BMP,resources/DY.BMP,Door3,0.17777782,-0.059722212,1,0,0,0.7542,optionRight,70,15390,7,31,0,31,0,1,,,,,,,,,,,,,,,,,,,,,,,,,,,,,,,,,,,,,,,
,,,,,,,,2023-08-16_08h37.13.009,HF_wild_card,2022.2.4,Win32,59.96282305,6389bd5d820b83080e2fc60a,64d2fd46c836a06233681665,64dc7c9aae035b106c2eb100,,,,,,,decisionTrl,resources/DBN.BMP,resources/DP.BMP,Door1,0.202083376,-0.064583355,1,0,0,1,optionRight,30,15420,7,32,0,32,0,1,,,,,,,,,,,,,,,,,,,,,,,,,,,,,,,,,,,,,,,
,,,,,,,,2023-08-16_08h37.13.009,HF_wild_card,2022.2.4,Win32,59.96282305,6389bd5d820b83080e2fc60a,64d2fd46c836a06233681665,64dc7c9aae035b106c2eb100,,,,,,,ctch,resources/DG.BMP,resources/DP.BMP,Door1,0.18263891,-0.073611101,1,0,0,0.8997,optionRight,30,15450,7,33,0,33,0,1,,,,,,,,,,,,,,,,,,,,,,,,,,,,,,,,,,,,,,,
,,,,,,,,2023-08-16_08h37.13.009,HF_wild_card,2022.2.4,Win32,59.96282305,6389bd5d820b83080e2fc60a,64d2fd46c836a06233681665,64dc7c9aae035b106c2eb100,,,,,,,decisionTrl,resources/DP.BMP,resources/DBN.BMP,Door1,-0.165277746,-0.129166656,1,0,0,0.7333,optionLeft,30,15480,7,34,0,34,0,1,,,,,,,,,,,,,,,,,,,,,,,,,,,,,,,,,,,,,,,
,,,,,,,,2023-08-16_08h37.13.009,HF_wild_card,2022.2.4,Win32,59.96282305,6389bd5d820b83080e2fc60a,64d2fd46c836a06233681665,64dc7c9aae035b106c2eb100,,,,,,,decisionTrl,resources/DY.BMP,resources/DG.BMP,Door3,-0.190277788,-0.128472222,1,0,0,0.6806,optionLeft,70,15550,7,35,0,35,0,1,,,,,,,,,,,,,,,,,,,,,,,,,,,,,,,,,,,,,,,
,,,,,,,,2023-08-16_08h37.13.009,HF_wild_card,2022.2.4,Win32,59.96282305,6389bd5d820b83080e2fc60a,64d2fd46c836a06233681665,64dc7c9aae035b106c2eb100,,,,,,,,,,,,,,,,,,,,,,,,,,6,0,6,0,1,,,,,,,,,,,,,,,,,,,,,,,,,,,,,,,,,,
,,,,,,,,2023-08-16_08h37.13.009,HF_wild_card,2022.2.4,Win32,59.96282305,6389bd5d820b83080e2fc60a,64d2fd46c836a06233681665,64dc7c9aae035b106c2eb100,,,,,,,,,,,,,,,,,,,,,,,,,,,,,,,3,,,,,,,,,,,,,,,,,,,,,,,,,,,,,,,,,
,,,,,,,,2023-08-16_08h37.13.009,HF_wild_card,2022.2.4,Win32,59.96282305,6389bd5d820b83080e2fc60a,64d2fd46c836a06233681665,64dc7c9aae035b106c2eb100,,,,,,,,,,,,,,,,,,,,,,,,,,,,,,,,,,,,,,,,,,,,,,,,,,,,,,,,,,,,,,,,
,,,,,,,,2023-08-16_08h37.13.009,HF_wild_card,2022.2.4,Win32,59.96282305,6389bd5d820b83080e2fc60a,64d2fd46c836a06233681665,64dc7c9aae035b106c2eb100,,,,,,,,,,,,,,,,,,,,,,,,,,,,,,,,55,WC_nonExtreme,resources/DR.BMP,0,0,0,0,1,,,,,,,,,,,,,,,,,,,,,,,,,
,,,,,,,,2023-08-16_08h37.13.009,HF_wild_card,2022.2.4,Win32,59.96282305,6389bd5d820b83080e2fc60a,64d2fd46c836a06233681665,64dc7c9aae035b106c2eb100,,,,,,,,,,,,,,,,,,,,,,,,,,,,,,,,60,Door4,resources/DG.BMP,1,0,1,0,1,,,,,,,,,,,,,,,,,,,,,,,,,
,,,,,,,,2023-08-16_08h37.13.009,HF_wild_card,2022.2.4,Win32,59.96282305,6389bd5d820b83080e2fc60a,64d2fd46c836a06233681665,64dc7c9aae035b106c2eb100,,,,,,,,,,,,,,,,,,,,,,,,,,,,,,,,55,WC_extreme,resources/DB.BMP,2,0,2,0,1,,,,,,,,,,,,,,,,,,,,,,,,,
,,,,,,,,2023-08-16_08h37.13.009,HF_wild_card,2022.2.4,Win32,59.96282305,6389bd5d820b83080e2fc60a,64d2fd46c836a06233681665,64dc7c9aae035b106c2eb100,,,,,,,,,,,,,,,,,,,,,,,,,,,,,,,,70,Door3,resources/DY.BMP,3,0,3,0,1,,,,,,,,,,,,,,,,,,,,,,,,,
,,,,,,,,2023-08-16_08h37.13.009,HF_wild_card,2022.2.4,Win32,59.96282305,6389bd5d820b83080e2fc60a,64d2fd46c836a06233681665,64dc7c9aae035b106c2eb100,,,,,,,,,,,,,,,,,,,,,,,,,,,,,,,,20,Door2,resources/DBN.BMP,4,0,4,0,1,,,,,,,,,,,,,,,,,,,,,,,,,
,,,,,,,,2023-08-16_08h37.13.009,HF_wild_card,2022.2.4,Win32,59.96282305,6389bd5d820b83080e2fc60a,64d2fd46c836a06233681665,64dc7c9aae035b106c2eb100,,,,,,,,,,,,,,,,,,,,,,,,,,,,,,,,55,Door1,resources/DP.BMP,5,0,5,0,1,,,,,,,,,,,,,,,,,,,,,,,,,
,,,,,,,,2023-08-16_08h37.13.009,HF_wild_card,2022.2.4,Win32,59.96282305,6389bd5d820b83080e2fc60a,64d2fd46c836a06233681665,64dc7c9aae035b106c2eb100,,,,,,,,,,,,,,,,,,,,,,,,,,,,,,,,,,,,,,,,,,,,,,,,,,,,,,,,,,,,,,,,
