Condition,Low fixed image (Door1),Low risky image (Door2),High fixed image (Door3),High risky image (Door4),Extreme Wild Card,NonExtreme Wild Card,,date,expName,psychopyVersion,OS,frameRate,PROLIFIC_PID,STUDY_ID,SESSION_ID,mouse_2.x,mouse_2.y,mouse_2.leftButton,mouse_2.midButton,mouse_2.rightButton,mouse_2.clicked_name,Trial Type,Left Option Image,Right Option Image,Chosen Door,mouse.x,mouse.y,mouse.leftButton,mouse.midButton,mouse.rightButton,mouse.time,mouse.clicked_name,Feedback,Cumulative Reward,Block,trial.thisRepN,trial.thisTrialN,trial.thisN,trial.thisIndex,trial.ran,blocks.thisRepN,blocks.thisTrialN,blocks.thisN,blocks.thisIndex,blocks.ran,Money conversion,First Outcome Reported,Shown Door (First Outcome),Displayed Image (First Outcome),outcomes.thisRepN,outcomes.thisTrialN,outcomes.thisN,outcomes.thisIndex,outcomes.ran,judgments.thisRepN,judgments.thisTrialN,judgments.thisN,judgments.thisIndex,judgments.ran,freqMouse.x,freqMouse.y,freqMouse.leftButton,freqMouse.midButton,freqMouse.rightButton,freqMouse.clicked_name,FQJ for first outcome,FQJ for second outcome,Shown Door,Displayed Image,trials.thisRepN,trials.thisTrialN,trials.thisN,trials.thisIndex,trials.ran,judgBlock.thisRepN,judgBlock.thisTrialN,judgBlock.thisN,judgBlock.thisIndex,judgBlock.ran
1,resources/DBN.BMP,resources/DB.BMP,resources/DY.BMP,resources/DG.BMP,resources/DR.BMP,resources/DP.BMP,,2023-08-16_08h35.35.729,HF_wild_card,2022.2.4,Win32,60.62810719,5ccab088f2532b0001b88aca,64d2fd46c836a06233681665,64dc7c041f8143bba27f3752,,,,,,,,,,,,,,,,,,,,,,,,,,,,,,,,,,,,,,,,,,,,,,,,,,,,,,,,,,,,,,,,
,,,,,,,,2023-08-16_08h35.35.729,HF_wild_card,2022.2.4,Win32,60.62810719,5ccab088f2532b0001b88aca,64d2fd46c836a06233681665,64dc7c041f8143bba27f3752,-0.01369863,-0.420547945,1,0,0,agree,,,,,,,,,,,,,,,,,,,,,,,,,,,,,,,,,,,,,,,,,,,,,,,,,,,,,,,,,,
,,,,,,,,2023-08-16_08h35.35.729,HF_wild_card,2022.2.4,Win32,60.62810719,5ccab088f2532b0001b88aca,64d2fd46c836a06233681665,64dc7c041f8143bba27f3752,,,,,,,,,,,,,,,,,,,,,,,,,,,,,,,,,,,,,,,,,,,,,,,,,,,,,,,,,,,,,,,,
,,,,,,,,2023-08-16_08h35.35.729,HF_wild_card,2022.2.4,Win32,60.62810719,5ccab088f2532b0001b88aca,64d2fd46c836a06233681665,64dc7c041f8143bba27f3752,,,,,,,ctch,resources/DY.BMP,resources/DB.BMP,Door3,-0.367123288,0.073972603,1,0,0,2.8772,optionLeft,70,70,1,0,0,0,0,1,,,,,,,,,,,,,,,,,,,,,,,,,,,,,,,,,,,,,,,
,,,,,,,,2023-08-16_08h35.35.729,HF_wild_card,2022.2.4,Win32,60.62810719,5ccab088f2532b0001b88aca,64d2fd46c836a06233681665,64dc7c041f8143bba27f3752,,,,,,,sngl,resources/DY.BMP,resources/Empty.png,Door3,-0.415068493,0,1,0,0,0.7937,optionLeft,70,140,1,1,0,1,0,1,,,,,,,,,,,,,,,,,,,,,,,,,,,,,,,,,,,,,,,
,,,,,,,,2023-08-16_08h35.35.729,HF_wild_card,2022.2.4,Win32,60.62810719,5ccab088f2532b0001b88aca,64d2fd46c836a06233681665,64dc7c041f8143bba27f3752,,,,,,,ctch,resources/DB.BMP,resources/DY.BMP,Door3,0.430136986,-0.004109589,1,0,0,1.3833,optionRight,70,210,1,2,0,2,0,1,,,,,,,,,,,,,,,,,,,,,,,,,,,,,,,,,,,,,,,
,,,,,,,,2023-08-16_08h35.35.729,HF_wild_card,2022.2.4,Win32,60.62810719,5ccab088f2532b0001b88aca,64d2fd46c836a06233681665,64dc7c041f8143bba27f3752,,,,,,,decisionTrl,resources/DBN.BMP,resources/DP.BMP,WildCard_NonEx,0.409589041,-0.080821918,1,0,0,1.4175,optionRight,45,255,1,3,0,3,0,1,,,,,,,,,,,,,,,,,,,,,,,,,,,,,,,,,,,,,,,
,,,,,,,,2023-08-16_08h35.35.729,HF_wild_card,2022.2.4,Win32,60.62810719,5ccab088f2532b0001b88aca,64d2fd46c836a06233681665,64dc7c041f8143bba27f3752,,,,,,,decisionTrl,resources/DBN.BMP,resources/DB.BMP,Door2,0.363013699,-0.010958904,1,0,0,1.3836,optionRight,40,295,1,4,0,4,0,1,,,,,,,,,,,,,,,,,,,,,,,,,,,,,,,,,,,,,,,
,,,,,,,,2023-08-16_08h35.35.729,HF_wild_card,2022.2.4,Win32,60.62810719,5ccab088f2532b0001b88aca,64d2fd46c836a06233681665,64dc7c041f8143bba27f3752,,,,,,,decisionTrl,resources/DBN.BMP,resources/DB.BMP,Door1,-0.25890411,-0.019178082,1,0,0,1.4855,optionLeft,30,325,1,5,0,5,0,1,,,,,,,,,,,,,,,,,,,,,,,,,,,,,,,,,,,,,,,
,,,,,,,,2023-08-16_08h35.35.729,HF_wild_card,2022.2.4,Win32,60.62810719,5ccab088f2532b0001b88aca,64d2fd46c836a06233681665,64dc7c041f8143bba27f3752,,,,,,,decisionTrl,resources/DB.BMP,resources/DBN.BMP,Door2,-0.435616438,-0.065753425,1,0,0,1.2176,optionLeft,20,345,1,6,0,6,0,1,,,,,,,,,,,,,,,,,,,,,,,,,,,,,,,,,,,,,,,
,,,,,,,,2023-08-16_08h35.35.729,HF_wild_card,2022.2.4,Win32,60.62810719,5ccab088f2532b0001b88aca,64d2fd46c836a06233681665,64dc7c041f8143bba27f3752,,,,,,,ctch,resources/DBN.BMP,resources/DG.BMP,Door4,0.4,-0.024657534,1,0,0,1.2827,optionRight,60,405,1,7,0,7,0,1,,,,,,,,,,,,,,,,,,,,,,,,,,,,,,,,,,,,,,,
,,,,,,,,2023-08-16_08h35.35.729,HF_wild_card,2022.2.4,Win32,60.62810719,5ccab088f2532b0001b88aca,64d2fd46c836a06233681665,64dc7c041f8143bba27f3752,,,,,,,decisionTrl,resources/DP.BMP,resources/DG.BMP,Door4,0.34109589,-0.02739726,1,0,0,1.8521,optionRight,80,485,1,8,0,8,0,1,,,,,,,,,,,,,,,,,,,,,,,,,,,,,,,,,,,,,,,
,,,,,,,,2023-08-16_08h35.35.729,HF_wild_card,2022.2.4,Win32,60.62810719,5ccab088f2532b0001b88aca,64d2fd46c836a06233681665,64dc7c041f8143bba27f3752,,,,,,,decisionTrl,resources/DB.BMP,resources/DP.BMP,WildCard_NonEx,0.320547945,-0.056164384,1,0,0,2.7528,optionRight,45,530,1,9,0,9,0,1,,,,,,,,,,,,,,,,,,,,,,,,,,,,,,,,,,,,,,,
,,,,,,,,2023-08-16_08h35.35.729,HF_wild_card,2022.2.4,Win32,60.62810719,5ccab088f2532b0001b88aca,64d2fd46c836a06233681665,64dc7c041f8143bba27f3752,,,,,,,decisionTrl,resources/DY.BMP,resources/DG.BMP,Door3,-0.465753425,-0.005479452,1,0,0,0.7325,optionLeft,70,600,1,10,0,10,0,1,,,,,,,,,,,,,,,,,,,,,,,,,,,,,,,,,,,,,,,
,,,,,,,,2023-08-16_08h35.35.729,HF_wild_card,2022.2.4,Win32,60.62810719,5ccab088f2532b0001b88aca,64d2fd46c836a06233681665,64dc7c041f8143bba27f3752,,,,,,,decisionTrl,resources/DP.BMP,resources/DB.BMP,WildCard_NonEx,-0.356164384,-0.045205479,1,0,0,1.0913,optionLeft,55,655,1,11,0,11,0,1,,,,,,,,,,,,,,,,,,,,,,,,,,,,,,,,,,,,,,,
,,,,,,,,2023-08-16_08h35.35.729,HF_wild_card,2022.2.4,Win32,60.62810719,5ccab088f2532b0001b88aca,64d2fd46c836a06233681665,64dc7c041f8143bba27f3752,,,,,,,sngl,resources/Empty.png,resources/DBN.BMP,Door1,0.349315068,0.01369863,1,0,0,0.9675,optionRight,30,685,1,12,0,12,0,1,,,,,,,,,,,,,,,,,,,,,,,,,,,,,,,,,,,,,,,
,,,,,,,,2023-08-16_08h35.35.729,HF_wild_card,2022.2.4,Win32,60.62810719,5ccab088f2532b0001b88aca,64d2fd46c836a06233681665,64dc7c041f8143bba27f3752,,,,,,,decisionTrl,resources/DB.BMP,resources/DBN.BMP,Door2,-0.193150685,-0.004109589,1,0,0,1.5017,optionLeft,20,705,1,13,0,13,0,1,,,,,,,,,,,,,,,,,,,,,,,,,,,,,,,,,,,,,,,
,,,,,,,,2023-08-16_08h35.35.729,HF_wild_card,2022.2.4,Win32,60.62810719,5ccab088f2532b0001b88aca,64d2fd46c836a06233681665,64dc7c041f8143bba27f3752,,,,,,,decisionTrl,resources/DBN.BMP,resources/DB.BMP,Door1,-0.363013699,-0.009589041,1,0,0,0.7146,optionLeft,30,735,1,14,0,14,0,1,,,,,,,,,,,,,,,,,,,,,,,,,,,,,,,,,,,,,,,
,,,,,,,,2023-08-16_08h35.35.729,HF_wild_card,2022.2.4,Win32,60.62810719,5ccab088f2532b0001b88aca,64d2fd46c836a06233681665,64dc7c041f8143bba27f3752,,,,,,,ctch,resources/DBN.BMP,resources/DG.BMP,Door4,0.410958904,-0.002739726,1,0,0,0.7842,optionRight,60,795,1,15,0,15,0,1,,,,,,,,,,,,,,,,,,,,,,,,,,,,,,,,,,,,,,,
,,,,,,,,2023-08-16_08h35.35.729,HF_wild_card,2022.2.4,Win32,60.62810719,5ccab088f2532b0001b88aca,64d2fd46c836a06233681665,64dc7c041f8143bba27f3752,,,,,,,ctch,resources/DG.BMP,resources/DBN.BMP,Door4,-0.315068493,-0.016438356,1,0,0,0.7661,optionLeft,60,855,1,16,0,16,0,1,,,,,,,,,,,,,,,,,,,,,,,,,,,,,,,,,,,,,,,
,,,,,,,,2023-08-16_08h35.35.729,HF_wild_card,2022.2.4,Win32,60.62810719,5ccab088f2532b0001b88aca,64d2fd46c836a06233681665,64dc7c041f8143bba27f3752,,,,,,,sngl,resources/DP.BMP,resources/Empty.png,WildCard_NonEx,-0.445205479,-0.004109589,1,0,0,0.7662,optionLeft,55,910,1,17,0,17,0,1,,,,,,,,,,,,,,,,,,,,,,,,,,,,,,,,,,,,,,,
,,,,,,,,2023-08-16_08h35.35.729,HF_wild_card,2022.2.4,Win32,60.62810719,5ccab088f2532b0001b88aca,64d2fd46c836a06233681665,64dc7c041f8143bba27f3752,,,,,,,decisionTrl,resources/DY.BMP,resources/DG.BMP,Door4,0.42739726,0.016438356,1,0,0,0.7656,optionRight,80,990,1,18,0,18,0,1,,,,,,,,,,,,,,,,,,,,,,,,,,,,,,,,,,,,,,,
,,,,,,,,2023-08-16_08h35.35.729,HF_wild_card,2022.2.4,Win32,60.62810719,5ccab088f2532b0001b88aca,64d2fd46c836a06233681665,64dc7c041f8143bba27f3752,,,,,,,sngl,resources/DB.BMP,resources/Empty.png,Door2,-0.436986301,-0.008219178,1,0,0,0.6667,optionLeft,40,1030,1,19,0,19,0,1,,,,,,,,,,,,,,,,,,,,,,,,,,,,,,,,,,,,,,,
,,,,,,,,2023-08-16_08h35.35.729,HF_wild_card,2022.2.4,Win32,60.62810719,5ccab088f2532b0001b88aca,64d2fd46c836a06233681665,64dc7c041f8143bba27f3752,,,,,,,sngl,resources/DBN.BMP,resources/Empty.png,Door1,-0.332876712,0.002739726,1,0,0,0.6837,optionLeft,30,1060,1,20,0,20,0,1,,,,,,,,,,,,,,,,,,,,,,,,,,,,,,,,,,,,,,,
,,,,,,,,2023-08-16_08h35.35.729,HF_wild_card,2022.2.4,Win32,60.62810719,5ccab088f2532b0001b88aca,64d2fd46c836a06233681665,64dc7c041f8143bba27f3752,,,,,,,decisionTrl,resources/DG.BMP,resources/DY.BMP,Door3,0.361643836,0.009589041,1,0,0,0.7834,optionRight,70,1130,1,21,0,21,0,1,,,,,,,,,,,,,,,,,,,,,,,,,,,,,,,,,,,,,,,
,,,,,,,,2023-08-16_08h35.35.729,HF_wild_card,2022.2.4,Win32,60.62810719,5ccab088f2532b0001b88aca,64d2fd46c836a06233681665,64dc7c041f8143bba27f3752,,,,,,,sngl,resources/Empty.png,resources/DG.BMP,Door4,0.343835616,0.019178082,1,0,0,0.7162,optionRight,60,1190,1,22,0,22,0,1,,,,,,,,,,,,,,,,,,,,,,,,,,,,,,,,,,,,,,,
,,,,,,,,2023-08-16_08h35.35.729,HF_wild_card,2022.2.4,Win32,60.62810719,5ccab088f2532b0001b88aca,64d2fd46c836a06233681665,64dc7c041f8143bba27f3752,,,,,,,decisionTrl,resources/DY.BMP,resources/DP.BMP,Door3,-0.320547945,-0.012328767,1,0,0,0.9146,optionLeft,70,1260,1,23,0,23,0,1,,,,,,,,,,,,,,,,,,,,,,,,,,,,,,,,,,,,,,,
,,,,,,,,2023-08-16_08h35.35.729,HF_wild_card,2022.2.4,Win32,60.62810719,5ccab088f2532b0001b88aca,64d2fd46c836a06233681665,64dc7c041f8143bba27f3752,,,,,,,ctch,resources/DG.BMP,resources/DBN.BMP,Door4,-0.317808219,0.01369863,1,0,0,1.0147,optionLeft,60,1320,1,24,0,24,0,1,,,,,,,,,,,,,,,,,,,,,,,,,,,,,,,,,,,,,,,
,,,,,,,,2023-08-16_08h35.35.729,HF_wild_card,2022.2.4,Win32,60.62810719,5ccab088f2532b0001b88aca,64d2fd46c836a06233681665,64dc7c041f8143bba27f3752,,,,,,,ctch,resources/DY.BMP,resources/DB.BMP,Door3,-0.380821918,-0.008219178,1,0,0,1.1676,optionLeft,70,1390,1,25,0,25,0,1,,,,,,,,,,,,,,,,,,,,,,,,,,,,,,,,,,,,,,,
,,,,,,,,2023-08-16_08h35.35.729,HF_wild_card,2022.2.4,Win32,60.62810719,5ccab088f2532b0001b88aca,64d2fd46c836a06233681665,64dc7c041f8143bba27f3752,,,,,,,sngl,resources/DG.BMP,resources/Empty.png,Door4,-0.376712329,0.001369863,1,0,0,0.834,optionLeft,80,1470,1,26,0,26,0,1,,,,,,,,,,,,,,,,,,,,,,,,,,,,,,,,,,,,,,,
,,,,,,,,2023-08-16_08h35.35.729,HF_wild_card,2022.2.4,Win32,60.62810719,5ccab088f2532b0001b88aca,64d2fd46c836a06233681665,64dc7c041f8143bba27f3752,,,,,,,decisionTrl,resources/DG.BMP,resources/DY.BMP,Door4,-0.4,0.017808219,1,0,0,1.9345,optionLeft,60,1530,1,27,0,27,0,1,,,,,,,,,,,,,,,,,,,,,,,,,,,,,,,,,,,,,,,
,,,,,,,,2023-08-16_08h35.35.729,HF_wild_card,2022.2.4,Win32,60.62810719,5ccab088f2532b0001b88aca,64d2fd46c836a06233681665,64dc7c041f8143bba27f3752,,,,,,,decisionTrl,resources/DG.BMP,resources/DY.BMP,Door3,0.390410959,0.009589041,1,0,0,1.0004,optionRight,70,1600,1,28,0,28,0,1,,,,,,,,,,,,,,,,,,,,,,,,,,,,,,,,,,,,,,,
,,,,,,,,2023-08-16_08h35.35.729,HF_wild_card,2022.2.4,Win32,60.62810719,5ccab088f2532b0001b88aca,64d2fd46c836a06233681665,64dc7c041f8143bba27f3752,,,,,,,sngl,resources/Empty.png,resources/DP.BMP,WildCard_NonEx,0.393150685,-0.005479452,1,0,0,0.8663,optionRight,45,1645,1,29,0,29,0,1,,,,,,,,,,,,,,,,,,,,,,,,,,,,,,,,,,,,,,,
,,,,,,,,2023-08-16_08h35.35.729,HF_wild_card,2022.2.4,Win32,60.62810719,5ccab088f2532b0001b88aca,64d2fd46c836a06233681665,64dc7c041f8143bba27f3752,,,,,,,decisionTrl,resources/DB.BMP,resources/DBN.BMP,Door1,0.4,0.002739726,1,0,0,1.7357,optionRight,30,1675,1,30,0,30,0,1,,,,,,,,,,,,,,,,,,,,,,,,,,,,,,,,,,,,,,,
,,,,,,,,2023-08-16_08h35.35.729,HF_wild_card,2022.2.4,Win32,60.62810719,5ccab088f2532b0001b88aca,64d2fd46c836a06233681665,64dc7c041f8143bba27f3752,,,,,,,sngl,resources/Empty.png,resources/DY.BMP,Door3,0.336986301,0.004109589,1,0,0,0.7,optionRight,70,1745,1,31,0,31,0,1,,,,,,,,,,,,,,,,,,,,,,,,,,,,,,,,,,,,,,,
,,,,,,,,2023-08-16_08h35.35.729,HF_wild_card,2022.2.4,Win32,60.62810719,5ccab088f2532b0001b88aca,64d2fd46c836a06233681665,64dc7c041f8143bba27f3752,,,,,,,sngl,resources/Empty.png,resources/DB.BMP,Door2,0.380821918,0.016438356,1,0,0,0.6826,optionRight,20,1765,1,32,0,32,0,1,,,,,,,,,,,,,,,,,,,,,,,,,,,,,,,,,,,,,,,
,,,,,,,,2023-08-16_08h35.35.729,HF_wild_card,2022.2.4,Win32,60.62810719,5ccab088f2532b0001b88aca,64d2fd46c836a06233681665,64dc7c041f8143bba27f3752,,,,,,,decisionTrl,resources/DY.BMP,resources/DG.BMP,Door3,-0.35890411,0.008219178,1,0,0,0.7658,optionLeft,70,1835,1,33,0,33,0,1,,,,,,,,,,,,,,,,,,,,,,,,,,,,,,,,,,,,,,,
,,,,,,,,2023-08-16_08h35.35.729,HF_wild_card,2022.2.4,Win32,60.62810719,5ccab088f2532b0001b88aca,64d2fd46c836a06233681665,64dc7c041f8143bba27f3752,,,,,,,decisionTrl,resources/DP.BMP,resources/DY.BMP,Door3,0.449315068,0.001369863,1,0,0,1.2337,optionRight,70,1905,1,34,0,34,0,1,,,,,,,,,,,,,,,,,,,,,,,,,,,,,,,,,,,,,,,
,,,,,,,,2023-08-16_08h35.35.729,HF_wild_card,2022.2.4,Win32,60.62810719,5ccab088f2532b0001b88aca,64d2fd46c836a06233681665,64dc7c041f8143bba27f3752,,,,,,,decisionTrl,resources/DG.BMP,resources/DY.BMP,Door3,0.312328767,0.015068493,1,0,0,0.965,optionRight,70,1975,1,35,0,35,0,1,,,,,,,,,,,,,,,,,,,,,,,,,,,,,,,,,,,,,,,
,,,,,,,,2023-08-16_08h35.35.729,HF_wild_card,2022.2.4,Win32,60.62810719,5ccab088f2532b0001b88aca,64d2fd46c836a06233681665,64dc7c041f8143bba27f3752,,,,,,,sngl,resources/DP.BMP,resources/Empty.png,WildCard_NonEx,-0.319178082,-0.010958904,1,0,0,0.7663,optionLeft,45,2020,1,36,0,36,0,1,,,,,,,,,,,,,,,,,,,,,,,,,,,,,,,,,,,,,,,
,,,,,,,,2023-08-16_08h35.35.729,HF_wild_card,2022.2.4,Win32,60.62810719,5ccab088f2532b0001b88aca,64d2fd46c836a06233681665,64dc7c041f8143bba27f3752,,,,,,,decisionTrl,resources/DG.BMP,resources/DP.BMP,Door4,-0.304109589,-0.005479452,1,0,0,1.4682,optionLeft,60,2080,1,37,0,37,0,1,,,,,,,,,,,,,,,,,,,,,,,,,,,,,,,,,,,,,,,
,,,,,,,,2023-08-16_08h35.35.729,HF_wild_card,2022.2.4,Win32,60.62810719,5ccab088f2532b0001b88aca,64d2fd46c836a06233681665,64dc7c041f8143bba27f3752,,,,,,,decisionTrl,resources/DB.BMP,resources/DBN.BMP,Door1,0.291780822,0.020547945,1,0,0,1.6191,optionRight,30,2110,1,38,0,38,0,1,,,,,,,,,,,,,,,,,,,,,,,,,,,,,,,,,,,,,,,
,,,,,,,,2023-08-16_08h35.35.729,HF_wild_card,2022.2.4,Win32,60.62810719,5ccab088f2532b0001b88aca,64d2fd46c836a06233681665,64dc7c041f8143bba27f3752,,,,,,,decisionTrl,resources/DBN.BMP,resources/DB.BMP,Door2,0.334246575,0.012328767,1,0,0,1.1169,optionRight,40,2150,1,39,0,39,0,1,,,,,,,,,,,,,,,,,,,,,,,,,,,,,,,,,,,,,,,
,,,,,,,,2023-08-16_08h35.35.729,HF_wild_card,2022.2.4,Win32,60.62810719,5ccab088f2532b0001b88aca,64d2fd46c836a06233681665,64dc7c041f8143bba27f3752,,,,,,,decisionTrl,resources/DY.BMP,resources/DG.BMP,Door3,-0.352054795,0.020547945,1,0,0,0.9504,optionLeft,70,2220,1,40,0,40,0,1,,,,,,,,,,,,,,,,,,,,,,,,,,,,,,,,,,,,,,,
,,,,,,,,2023-08-16_08h35.35.729,HF_wild_card,2022.2.4,Win32,60.62810719,5ccab088f2532b0001b88aca,64d2fd46c836a06233681665,64dc7c041f8143bba27f3752,,,,,,,ctch,resources/DB.BMP,resources/DY.BMP,Door3,0.32739726,0.004109589,1,0,0,1.0008,optionRight,70,2290,1,41,0,41,0,1,,,,,,,,,,,,,,,,,,,,,,,,,,,,,,,,,,,,,,,
,,,,,,,,2023-08-16_08h35.35.729,HF_wild_card,2022.2.4,Win32,60.62810719,5ccab088f2532b0001b88aca,64d2fd46c836a06233681665,64dc7c041f8143bba27f3752,,,,,,,sngl,resources/Empty.png,resources/DP.BMP,WildCard_NonEx,0.363013699,-0.002739726,1,0,0,0.8673,optionRight,55,2345,1,42,0,42,0,1,,,,,,,,,,,,,,,,,,,,,,,,,,,,,,,,,,,,,,,
,,,,,,,,2023-08-16_08h35.35.729,HF_wild_card,2022.2.4,Win32,60.62810719,5ccab088f2532b0001b88aca,64d2fd46c836a06233681665,64dc7c041f8143bba27f3752,,,,,,,decisionTrl,resources/DP.BMP,resources/DBN.BMP,WildCard_NonEx,-0.315068493,0.005479452,1,0,0,0.899,optionLeft,55,2400,1,43,0,43,0,1,,,,,,,,,,,,,,,,,,,,,,,,,,,,,,,,,,,,,,,
,,,,,,,,2023-08-16_08h35.35.729,HF_wild_card,2022.2.4,Win32,60.62810719,5ccab088f2532b0001b88aca,64d2fd46c836a06233681665,64dc7c041f8143bba27f3752,,,,,,,,,,,,,,,,,,,,,,,,,,0,0,0,0,1,,,,,,,,,,,,,,,,,,,,,,,,,,,,,,,,,,
,,,,,,,,2023-08-16_08h35.35.729,HF_wild_card,2022.2.4,Win32,60.62810719,5ccab088f2532b0001b88aca,64d2fd46c836a06233681665,64dc7c041f8143bba27f3752,,,,,,,decisionTrl,resources/DB.BMP,resources/DBN.BMP,Door2,-0.238356164,-0.050684932,1,0,0,0.8086,optionLeft,20,2420,2,0,0,0,0,1,,,,,,,,,,,,,,,,,,,,,,,,,,,,,,,,,,,,,,,
,,,,,,,,2023-08-16_08h35.35.729,HF_wild_card,2022.2.4,Win32,60.62810719,5ccab088f2532b0001b88aca,64d2fd46c836a06233681665,64dc7c041f8143bba27f3752,,,,,,,decisionTrl,resources/DY.BMP,resources/DG.BMP,Door3,-0.371232877,0.008219178,1,0,0,0.6653,optionLeft,70,2490,2,1,0,1,0,1,,,,,,,,,,,,,,,,,,,,,,,,,,,,,,,,,,,,,,,
,,,,,,,,2023-08-16_08h35.35.729,HF_wild_card,2022.2.4,Win32,60.62810719,5ccab088f2532b0001b88aca,64d2fd46c836a06233681665,64dc7c041f8143bba27f3752,,,,,,,ctch,resources/DB.BMP,resources/DY.BMP,Door3,0.460273973,0.016438356,1,0,0,0.6992,optionRight,70,2560,2,2,0,2,0,1,,,,,,,,,,,,,,,,,,,,,,,,,,,,,,,,,,,,,,,
,,,,,,,,2023-08-16_08h35.35.729,HF_wild_card,2022.2.4,Win32,60.62810719,5ccab088f2532b0001b88aca,64d2fd46c836a06233681665,64dc7c041f8143bba27f3752,,,,,,,decisionTrl,resources/DG.BMP,resources/DY.BMP,Door3,0.369863014,0.004109589,1,0,0,0.6834,optionRight,70,2630,2,3,0,3,0,1,,,,,,,,,,,,,,,,,,,,,,,,,,,,,,,,,,,,,,,
,,,,,,,,2023-08-16_08h35.35.729,HF_wild_card,2022.2.4,Win32,60.62810719,5ccab088f2532b0001b88aca,64d2fd46c836a06233681665,64dc7c041f8143bba27f3752,,,,,,,ctch,resources/DY.BMP,resources/DB.BMP,Door3,-0.316438356,-0.016438356,1,0,0,0.7158,optionLeft,70,2700,2,4,0,4,0,1,,,,,,,,,,,,,,,,,,,,,,,,,,,,,,,,,,,,,,,
,,,,,,,,2023-08-16_08h35.35.729,HF_wild_card,2022.2.4,Win32,60.62810719,5ccab088f2532b0001b88aca,64d2fd46c836a06233681665,64dc7c041f8143bba27f3752,,,,,,,decisionTrl,resources/DB.BMP,resources/DBN.BMP,Door2,-0.360273973,0.043835616,1,0,0,0.7317,optionLeft,20,2720,2,5,0,5,0,1,,,,,,,,,,,,,,,,,,,,,,,,,,,,,,,,,,,,,,,
,,,,,,,,2023-08-16_08h35.35.729,HF_wild_card,2022.2.4,Win32,60.62810719,5ccab088f2532b0001b88aca,64d2fd46c836a06233681665,64dc7c041f8143bba27f3752,,,,,,,decisionTrl,resources/DBN.BMP,resources/DB.BMP,Door2,0.446575342,0.008219178,1,0,0,0.6573,optionRight,40,2760,2,6,0,6,0,1,,,,,,,,,,,,,,,,,,,,,,,,,,,,,,,,,,,,,,,
,,,,,,,,2023-08-16_08h35.35.729,HF_wild_card,2022.2.4,Win32,60.62810719,5ccab088f2532b0001b88aca,64d2fd46c836a06233681665,64dc7c041f8143bba27f3752,,,,,,,decisionTrl,resources/DBN.BMP,resources/DB.BMP,Door2,0.295890411,0.009589041,1,0,0,1.1171,optionRight,20,2780,2,7,0,7,0,1,,,,,,,,,,,,,,,,,,,,,,,,,,,,,,,,,,,,,,,
,,,,,,,,2023-08-16_08h35.35.729,HF_wild_card,2022.2.4,Win32,60.62810719,5ccab088f2532b0001b88aca,64d2fd46c836a06233681665,64dc7c041f8143bba27f3752,,,,,,,decisionTrl,resources/DG.BMP,resources/DY.BMP,Door3,0.335616438,-0.01369863,1,0,0,0.9502,optionRight,70,2850,2,8,0,8,0,1,,,,,,,,,,,,,,,,,,,,,,,,,,,,,,,,,,,,,,,
,,,,,,,,2023-08-16_08h35.35.729,HF_wild_card,2022.2.4,Win32,60.62810719,5ccab088f2532b0001b88aca,64d2fd46c836a06233681665,64dc7c041f8143bba27f3752,,,,,,,decisionTrl,resources/DBN.BMP,resources/DB.BMP,Door1,-0.291780822,0.004109589,1,0,0,1.2008,optionLeft,30,2880,2,9,0,9,0,1,,,,,,,,,,,,,,,,,,,,,,,,,,,,,,,,,,,,,,,
,,,,,,,,2023-08-16_08h35.35.729,HF_wild_card,2022.2.4,Win32,60.62810719,5ccab088f2532b0001b88aca,64d2fd46c836a06233681665,64dc7c041f8143bba27f3752,,,,,,,decisionTrl,resources/DG.BMP,resources/DP.BMP,Door4,-0.369863014,0.017808219,1,0,0,1.5361,optionLeft,80,2960,2,10,0,10,0,1,,,,,,,,,,,,,,,,,,,,,,,,,,,,,,,,,,,,,,,
,,,,,,,,2023-08-16_08h35.35.729,HF_wild_card,2022.2.4,Win32,60.62810719,5ccab088f2532b0001b88aca,64d2fd46c836a06233681665,64dc7c041f8143bba27f3752,,,,,,,decisionTrl,resources/DP.BMP,resources/DBN.BMP,WildCard_NonEx,-0.345205479,0.001369863,1,0,0,1.335,optionLeft,45,3005,2,11,0,11,0,1,,,,,,,,,,,,,,,,,,,,,,,,,,,,,,,,,,,,,,,
,,,,,,,,2023-08-16_08h35.35.729,HF_wild_card,2022.2.4,Win32,60.62810719,5ccab088f2532b0001b88aca,64d2fd46c836a06233681665,64dc7c041f8143bba27f3752,,,,,,,sngl,resources/DB.BMP,resources/Empty.png,Door2,-0.332876712,0,1,0,0,0.6485,optionLeft,20,3025,2,12,0,12,0,1,,,,,,,,,,,,,,,,,,,,,,,,,,,,,,,,,,,,,,,
,,,,,,,,2023-08-16_08h35.35.729,HF_wild_card,2022.2.4,Win32,60.62810719,5ccab088f2532b0001b88aca,64d2fd46c836a06233681665,64dc7c041f8143bba27f3752,,,,,,,decisionTrl,resources/DP.BMP,resources/DB.BMP,WildCard_NonEx,-0.293150685,-0.009589041,1,0,0,0.8663,optionLeft,55,3080,2,13,0,13,0,1,,,,,,,,,,,,,,,,,,,,,,,,,,,,,,,,,,,,,,,
,,,,,,,,2023-08-16_08h35.35.729,HF_wild_card,2022.2.4,Win32,60.62810719,5ccab088f2532b0001b88aca,64d2fd46c836a06233681665,64dc7c041f8143bba27f3752,,,,,,,sngl,resources/Empty.png,resources/DP.BMP,WildCard_NonEx,0.328767123,-0.012328767,1,0,0,0.5835,optionRight,55,3135,2,14,0,14,0,1,,,,,,,,,,,,,,,,,,,,,,,,,,,,,,,,,,,,,,,
,,,,,,,,2023-08-16_08h35.35.729,HF_wild_card,2022.2.4,Win32,60.62810719,5ccab088f2532b0001b88aca,64d2fd46c836a06233681665,64dc7c041f8143bba27f3752,,,,,,,sngl,resources/DY.BMP,resources/Empty.png,Door3,-0.302739726,0.008219178,1,0,0,0.5983,optionLeft,70,3205,2,15,0,15,0,1,,,,,,,,,,,,,,,,,,,,,,,,,,,,,,,,,,,,,,,
,,,,,,,,2023-08-16_08h35.35.729,HF_wild_card,2022.2.4,Win32,60.62810719,5ccab088f2532b0001b88aca,64d2fd46c836a06233681665,64dc7c041f8143bba27f3752,,,,,,,ctch,resources/DG.BMP,resources/DBN.BMP,Door4,-0.308219178,0.001369863,1,0,0,0.8501,optionLeft,80,3285,2,16,0,16,0,1,,,,,,,,,,,,,,,,,,,,,,,,,,,,,,,,,,,,,,,
,,,,,,,,2023-08-16_08h35.35.729,HF_wild_card,2022.2.4,Win32,60.62810719,5ccab088f2532b0001b88aca,64d2fd46c836a06233681665,64dc7c041f8143bba27f3752,,,,,,,ctch,resources/DY.BMP,resources/DB.BMP,Door3,-0.380821918,-0.001369863,1,0,0,1.0829,optionLeft,70,3355,2,17,0,17,0,1,,,,,,,,,,,,,,,,,,,,,,,,,,,,,,,,,,,,,,,
,,,,,,,,2023-08-16_08h35.35.729,HF_wild_card,2022.2.4,Win32,60.62810719,5ccab088f2532b0001b88aca,64d2fd46c836a06233681665,64dc7c041f8143bba27f3752,,,,,,,decisionTrl,resources/DB.BMP,resources/DBN.BMP,Door2,-0.254794521,0.001369863,1,0,0,0.9331,optionLeft,20,3375,2,18,0,18,0,1,,,,,,,,,,,,,,,,,,,,,,,,,,,,,,,,,,,,,,,
,,,,,,,,2023-08-16_08h35.35.729,HF_wild_card,2022.2.4,Win32,60.62810719,5ccab088f2532b0001b88aca,64d2fd46c836a06233681665,64dc7c041f8143bba27f3752,,,,,,,decisionTrl,resources/DY.BMP,resources/DP.BMP,Door3,-0.231506849,0.006849315,1,0,0,1.2335,optionLeft,70,3445,2,19,0,19,0,1,,,,,,,,,,,,,,,,,,,,,,,,,,,,,,,,,,,,,,,
,,,,,,,,2023-08-16_08h35.35.729,HF_wild_card,2022.2.4,Win32,60.62810719,5ccab088f2532b0001b88aca,64d2fd46c836a06233681665,64dc7c041f8143bba27f3752,,,,,,,decisionTrl,resources/DB.BMP,resources/DP.BMP,WildCard_NonEx,0.317808219,-0.001369863,1,0,0,0.9008,optionRight,55,3500,2,20,0,20,0,1,,,,,,,,,,,,,,,,,,,,,,,,,,,,,,,,,,,,,,,
,,,,,,,,2023-08-16_08h35.35.729,HF_wild_card,2022.2.4,Win32,60.62810719,5ccab088f2532b0001b88aca,64d2fd46c836a06233681665,64dc7c041f8143bba27f3752,,,,,,,sngl,resources/DBN.BMP,resources/Empty.png,Door1,-0.378082192,0.020547945,1,0,0,0.6651,optionLeft,30,3530,2,21,0,21,0,1,,,,,,,,,,,,,,,,,,,,,,,,,,,,,,,,,,,,,,,
,,,,,,,,2023-08-16_08h35.35.729,HF_wild_card,2022.2.4,Win32,60.62810719,5ccab088f2532b0001b88aca,64d2fd46c836a06233681665,64dc7c041f8143bba27f3752,,,,,,,sngl,resources/DP.BMP,resources/Empty.png,WildCard_NonEx,-0.282191781,-0.004109589,1,0,0,0.6325,optionLeft,45,3575,2,22,0,22,0,1,,,,,,,,,,,,,,,,,,,,,,,,,,,,,,,,,,,,,,,
,,,,,,,,2023-08-16_08h35.35.729,HF_wild_card,2022.2.4,Win32,60.62810719,5ccab088f2532b0001b88aca,64d2fd46c836a06233681665,64dc7c041f8143bba27f3752,,,,,,,sngl,resources/Empty.png,resources/DY.BMP,Door3,0.338356164,0.01369863,1,0,0,0.6835,optionRight,70,3645,2,23,0,23,0,1,,,,,,,,,,,,,,,,,,,,,,,,,,,,,,,,,,,,,,,
,,,,,,,,2023-08-16_08h35.35.729,HF_wild_card,2022.2.4,Win32,60.62810719,5ccab088f2532b0001b88aca,64d2fd46c836a06233681665,64dc7c041f8143bba27f3752,,,,,,,ctch,resources/DG.BMP,resources/DBN.BMP,Door4,-0.305479452,0.036986301,1,0,0,1.2714,optionLeft,60,3705,2,24,0,24,0,1,,,,,,,,,,,,,,,,,,,,,,,,,,,,,,,,,,,,,,,
,,,,,,,,2023-08-16_08h35.35.729,HF_wild_card,2022.2.4,Win32,60.62810719,5ccab088f2532b0001b88aca,64d2fd46c836a06233681665,64dc7c041f8143bba27f3752,,,,,,,sngl,resources/DP.BMP,resources/Empty.png,WildCard_NonEx,-0.320547945,-0.012328767,1,0,0,1.068,optionLeft,55,3760,2,25,0,25,0,1,,,,,,,,,,,,,,,,,,,,,,,,,,,,,,,,,,,,,,,
,,,,,,,,2023-08-16_08h35.35.729,HF_wild_card,2022.2.4,Win32,60.62810719,5ccab088f2532b0001b88aca,64d2fd46c836a06233681665,64dc7c041f8143bba27f3752,,,,,,,sngl,resources/Empty.png,resources/DB.BMP,Door2,0.397260274,-0.01369863,1,0,0,0.6193,optionRight,40,3800,2,26,0,26,0,1,,,,,,,,,,,,,,,,,,,,,,,,,,,,,,,,,,,,,,,
,,,,,,,,2023-08-16_08h35.35.729,HF_wild_card,2022.2.4,Win32,60.62810719,5ccab088f2532b0001b88aca,64d2fd46c836a06233681665,64dc7c041f8143bba27f3752,,,,,,,decisionTrl,resources/DY.BMP,resources/DG.BMP,Door3,-0.260273973,-0.030136986,1,0,0,0.6698,optionLeft,70,3870,2,27,0,27,0,1,,,,,,,,,,,,,,,,,,,,,,,,,,,,,,,,,,,,,,,
,,,,,,,,2023-08-16_08h35.35.729,HF_wild_card,2022.2.4,Win32,60.62810719,5ccab088f2532b0001b88aca,64d2fd46c836a06233681665,64dc7c041f8143bba27f3752,,,,,,,decisionTrl,resources/DBN.BMP,resources/DB.BMP,Door2,0.235616438,0.004109589,1,0,0,1.3849,optionRight,40,3910,2,28,0,28,0,1,,,,,,,,,,,,,,,,,,,,,,,,,,,,,,,,,,,,,,,
,,,,,,,,2023-08-16_08h35.35.729,HF_wild_card,2022.2.4,Win32,60.62810719,5ccab088f2532b0001b88aca,64d2fd46c836a06233681665,64dc7c041f8143bba27f3752,,,,,,,decisionTrl,resources/DG.BMP,resources/DY.BMP,Door3,0.27260274,-0.001369863,1,0,0,0.8006,optionRight,70,3980,2,29,0,29,0,1,,,,,,,,,,,,,,,,,,,,,,,,,,,,,,,,,,,,,,,
,,,,,,,,2023-08-16_08h35.35.729,HF_wild_card,2022.2.4,Win32,60.62810719,5ccab088f2532b0001b88aca,64d2fd46c836a06233681665,64dc7c041f8143bba27f3752,,,,,,,decisionTrl,resources/DB.BMP,resources/DBN.BMP,Door2,-0.360273973,0.002739726,1,0,0,0.6331,optionLeft,40,4020,2,30,0,30,0,1,,,,,,,,,,,,,,,,,,,,,,,,,,,,,,,,,,,,,,,
,,,,,,,,2023-08-16_08h35.35.729,HF_wild_card,2022.2.4,Win32,60.62810719,5ccab088f2532b0001b88aca,64d2fd46c836a06233681665,64dc7c041f8143bba27f3752,,,,,,,decisionTrl,resources/DBN.BMP,resources/DP.BMP,WildCard_NonEx,0.353424658,-0.012328767,1,0,0,0.6833,optionRight,45,4065,2,31,0,31,0,1,,,,,,,,,,,,,,,,,,,,,,,,,,,,,,,,,,,,,,,
,,,,,,,,2023-08-16_08h35.35.729,HF_wild_card,2022.2.4,Win32,60.62810719,5ccab088f2532b0001b88aca,64d2fd46c836a06233681665,64dc7c041f8143bba27f3752,,,,,,,decisionTrl,resources/DY.BMP,resources/DG.BMP,Door3,-0.302739726,-0.004109589,1,0,0,0.5977,optionLeft,70,4135,2,32,0,32,0,1,,,,,,,,,,,,,,,,,,,,,,,,,,,,,,,,,,,,,,,
,,,,,,,,2023-08-16_08h35.35.729,HF_wild_card,2022.2.4,Win32,60.62810719,5ccab088f2532b0001b88aca,64d2fd46c836a06233681665,64dc7c041f8143bba27f3752,,,,,,,ctch,resources/DBN.BMP,resources/DG.BMP,Door4,0.387671233,0.005479452,1,0,0,0.6177,optionRight,60,4195,2,33,0,33,0,1,,,,,,,,,,,,,,,,,,,,,,,,,,,,,,,,,,,,,,,
,,,,,,,,2023-08-16_08h35.35.729,HF_wild_card,2022.2.4,Win32,60.62810719,5ccab088f2532b0001b88aca,64d2fd46c836a06233681665,64dc7c041f8143bba27f3752,,,,,,,sngl,resources/Empty.png,resources/DG.BMP,Door4,0.279452055,-0.004109589,1,0,0,0.649,optionRight,80,4275,2,34,0,34,0,1,,,,,,,,,,,,,,,,,,,,,,,,,,,,,,,,,,,,,,,
,,,,,,,,2023-08-16_08h35.35.729,HF_wild_card,2022.2.4,Win32,60.62810719,5ccab088f2532b0001b88aca,64d2fd46c836a06233681665,64dc7c041f8143bba27f3752,,,,,,,decisionTrl,resources/DP.BMP,resources/DG.BMP,Door4,0.263013699,-0.005479452,1,0,0,1.1507,optionRight,60,4335,2,35,0,35,0,1,,,,,,,,,,,,,,,,,,,,,,,,,,,,,,,,,,,,,,,
,,,,,,,,2023-08-16_08h35.35.729,HF_wild_card,2022.2.4,Win32,60.62810719,5ccab088f2532b0001b88aca,64d2fd46c836a06233681665,64dc7c041f8143bba27f3752,,,,,,,decisionTrl,resources/DY.BMP,resources/DG.BMP,Door3,-0.357534247,-0.01369863,1,0,0,0.5856,optionLeft,70,4405,2,36,0,36,0,1,,,,,,,,,,,,,,,,,,,,,,,,,,,,,,,,,,,,,,,
,,,,,,,,2023-08-16_08h35.35.729,HF_wild_card,2022.2.4,Win32,60.62810719,5ccab088f2532b0001b88aca,64d2fd46c836a06233681665,64dc7c041f8143bba27f3752,,,,,,,decisionTrl,resources/DG.BMP,resources/DY.BMP,Door3,0.306849315,0.032876712,1,0,0,3.5897,optionRight,70,4475,2,37,0,37,0,1,,,,,,,,,,,,,,,,,,,,,,,,,,,,,,,,,,,,,,,
,,,,,,,,2023-08-16_08h35.35.729,HF_wild_card,2022.2.4,Win32,60.62810719,5ccab088f2532b0001b88aca,64d2fd46c836a06233681665,64dc7c041f8143bba27f3752,,,,,,,ctch,resources/DBN.BMP,resources/DG.BMP,Door4,0.334246575,0.020547945,1,0,0,0.7675,optionRight,80,4555,2,38,0,38,0,1,,,,,,,,,,,,,,,,,,,,,,,,,,,,,,,,,,,,,,,
,,,,,,,,2023-08-16_08h35.35.729,HF_wild_card,2022.2.4,Win32,60.62810719,5ccab088f2532b0001b88aca,64d2fd46c836a06233681665,64dc7c041f8143bba27f3752,,,,,,,ctch,resources/DB.BMP,resources/DY.BMP,Door3,0.339726027,0.009589041,1,0,0,0.7003,optionRight,70,4625,2,39,0,39,0,1,,,,,,,,,,,,,,,,,,,,,,,,,,,,,,,,,,,,,,,
,,,,,,,,2023-08-16_08h35.35.729,HF_wild_card,2022.2.4,Win32,60.62810719,5ccab088f2532b0001b88aca,64d2fd46c836a06233681665,64dc7c041f8143bba27f3752,,,,,,,decisionTrl,resources/DP.BMP,resources/DY.BMP,Door3,0.297260274,0.009589041,1,0,0,0.7617,optionRight,70,4695,2,40,0,40,0,1,,,,,,,,,,,,,,,,,,,,,,,,,,,,,,,,,,,,,,,
,,,,,,,,2023-08-16_08h35.35.729,HF_wild_card,2022.2.4,Win32,60.62810719,5ccab088f2532b0001b88aca,64d2fd46c836a06233681665,64dc7c041f8143bba27f3752,,,,,,,sngl,resources/Empty.png,resources/DBN.BMP,Door1,0.315068493,0.006849315,1,0,0,0.8297,optionRight,30,4725,2,41,0,41,0,1,,,,,,,,,,,,,,,,,,,,,,,,,,,,,,,,,,,,,,,
,,,,,,,,2023-08-16_08h35.35.729,HF_wild_card,2022.2.4,Win32,60.62810719,5ccab088f2532b0001b88aca,64d2fd46c836a06233681665,64dc7c041f8143bba27f3752,,,,,,,sngl,resources/Empty.png,resources/DP.BMP,WildCard_NonEx,0.397260274,0.001369863,1,0,0,0.619,optionRight,45,4770,2,42,0,42,0,1,,,,,,,,,,,,,,,,,,,,,,,,,,,,,,,,,,,,,,,
,,,,,,,,2023-08-16_08h35.35.729,HF_wild_card,2022.2.4,Win32,60.62810719,5ccab088f2532b0001b88aca,64d2fd46c836a06233681665,64dc7c041f8143bba27f3752,,,,,,,sngl,resources/DG.BMP,resources/Empty.png,Door4,-0.323287671,0.002739726,1,0,0,0.6117,optionLeft,60,4830,2,43,0,43,0,1,,,,,,,,,,,,,,,,,,,,,,,,,,,,,,,,,,,,,,,
,,,,,,,,2023-08-16_08h35.35.729,HF_wild_card,2022.2.4,Win32,60.62810719,5ccab088f2532b0001b88aca,64d2fd46c836a06233681665,64dc7c041f8143bba27f3752,,,,,,,,,,,,,,,,,,,,,,,,,,1,0,1,0,1,,,,,,,,,,,,,,,,,,,,,,,,,,,,,,,,,,
,,,,,,,,2023-08-16_08h35.35.729,HF_wild_card,2022.2.4,Win32,60.62810719,5ccab088f2532b0001b88aca,64d2fd46c836a06233681665,64dc7c041f8143bba27f3752,,,,,,,decisionTrl,resources/DP.BMP,resources/DB.BMP,WildCard_NonEx,-0.379452055,0.04109589,1,0,0,0.9101,optionLeft,45,4875,3,0,0,0,0,1,,,,,,,,,,,,,,,,,,,,,,,,,,,,,,,,,,,,,,,
,,,,,,,,2023-08-16_08h35.35.729,HF_wild_card,2022.2.4,Win32,60.62810719,5ccab088f2532b0001b88aca,64d2fd46c836a06233681665,64dc7c041f8143bba27f3752,,,,,,,sngl,resources/DY.BMP,resources/Empty.png,Door3,-0.560273973,0.057534247,1,0,0,0.6335,optionLeft,70,4945,3,1,0,1,0,1,,,,,,,,,,,,,,,,,,,,,,,,,,,,,,,,,,,,,,,
,,,,,,,,2023-08-16_08h35.35.729,HF_wild_card,2022.2.4,Win32,60.62810719,5ccab088f2532b0001b88aca,64d2fd46c836a06233681665,64dc7c041f8143bba27f3752,,,,,,,decisionTrl,resources/DB.BMP,resources/DBN.BMP,Door2,-0.379452055,0.015068493,1,0,0,0.677,optionLeft,40,4985,3,2,0,2,0,1,,,,,,,,,,,,,,,,,,,,,,,,,,,,,,,,,,,,,,,
,,,,,,,,2023-08-16_08h35.35.729,HF_wild_card,2022.2.4,Win32,60.62810719,5ccab088f2532b0001b88aca,64d2fd46c836a06233681665,64dc7c041f8143bba27f3752,,,,,,,sngl,resources/Empty.png,resources/DP.BMP,WildCard_NonEx,0.326027397,0.008219178,1,0,0,0.5325,optionRight,55,5040,3,3,0,3,0,1,,,,,,,,,,,,,,,,,,,,,,,,,,,,,,,,,,,,,,,
,,,,,,,,2023-08-16_08h35.35.729,HF_wild_card,2022.2.4,Win32,60.62810719,5ccab088f2532b0001b88aca,64d2fd46c836a06233681665,64dc7c041f8143bba27f3752,,,,,,,ctch,resources/DY.BMP,resources/DB.BMP,Door3,-0.347945205,-0.024657534,1,0,0,0.5822,optionLeft,70,5110,3,4,0,4,0,1,,,,,,,,,,,,,,,,,,,,,,,,,,,,,,,,,,,,,,,
,,,,,,,,2023-08-16_08h35.35.729,HF_wild_card,2022.2.4,Win32,60.62810719,5ccab088f2532b0001b88aca,64d2fd46c836a06233681665,64dc7c041f8143bba27f3752,,,,,,,decisionTrl,resources/DY.BMP,resources/DG.BMP,Door3,-0.31369863,-0.009589041,1,0,0,0.5329,optionLeft,70,5180,3,5,0,5,0,1,,,,,,,,,,,,,,,,,,,,,,,,,,,,,,,,,,,,,,,
,,,,,,,,2023-08-16_08h35.35.729,HF_wild_card,2022.2.4,Win32,60.62810719,5ccab088f2532b0001b88aca,64d2fd46c836a06233681665,64dc7c041f8143bba27f3752,,,,,,,decisionTrl,resources/DB.BMP,resources/DBN.BMP,Door2,-0.364383562,-0.009589041,1,0,0,0.5979,optionLeft,20,5200,3,6,0,6,0,1,,,,,,,,,,,,,,,,,,,,,,,,,,,,,,,,,,,,,,,
,,,,,,,,2023-08-16_08h35.35.729,HF_wild_card,2022.2.4,Win32,60.62810719,5ccab088f2532b0001b88aca,64d2fd46c836a06233681665,64dc7c041f8143bba27f3752,,,,,,,sngl,resources/Empty.png,resources/DP.BMP,WildCard_NonEx,0.339726027,-0.009589041,1,0,0,0.5485,optionRight,45,5245,3,7,0,7,0,1,,,,,,,,,,,,,,,,,,,,,,,,,,,,,,,,,,,,,,,
,,,,,,,,2023-08-16_08h35.35.729,HF_wild_card,2022.2.4,Win32,60.62810719,5ccab088f2532b0001b88aca,64d2fd46c836a06233681665,64dc7c041f8143bba27f3752,,,,,,,sngl,resources/DB.BMP,resources/Empty.png,Door2,-0.302739726,-0.009589041,1,0,0,0.5484,optionLeft,40,5285,3,8,0,8,0,1,,,,,,,,,,,,,,,,,,,,,,,,,,,,,,,,,,,,,,,
,,,,,,,,2023-08-16_08h35.35.729,HF_wild_card,2022.2.4,Win32,60.62810719,5ccab088f2532b0001b88aca,64d2fd46c836a06233681665,64dc7c041f8143bba27f3752,,,,,,,ctch,resources/DB.BMP,resources/DY.BMP,Door3,0.256164384,-0.006849315,1,0,0,0.6816,optionRight,70,5355,3,9,0,9,0,1,,,,,,,,,,,,,,,,,,,,,,,,,,,,,,,,,,,,,,,
,,,,,,,,2023-08-16_08h35.35.729,HF_wild_card,2022.2.4,Win32,60.62810719,5ccab088f2532b0001b88aca,64d2fd46c836a06233681665,64dc7c041f8143bba27f3752,,,,,,,decisionTrl,resources/DBN.BMP,resources/DB.BMP,Door2,0.391780822,-0.015068493,1,0,0,0.7001,optionRight,40,5395,3,10,0,10,0,1,,,,,,,,,,,,,,,,,,,,,,,,,,,,,,,,,,,,,,,
,,,,,,,,2023-08-16_08h35.35.729,HF_wild_card,2022.2.4,Win32,60.62810719,5ccab088f2532b0001b88aca,64d2fd46c836a06233681665,64dc7c041f8143bba27f3752,,,,,,,ctch,resources/DBN.BMP,resources/DG.BMP,Door4,0.306849315,0.021917808,1,0,0,0.6483,optionRight,80,5475,3,11,0,11,0,1,,,,,,,,,,,,,,,,,,,,,,,,,,,,,,,,,,,,,,,
,,,,,,,,2023-08-16_08h35.35.729,HF_wild_card,2022.2.4,Win32,60.62810719,5ccab088f2532b0001b88aca,64d2fd46c836a06233681665,64dc7c041f8143bba27f3752,,,,,,,ctch,resources/DY.BMP,resources/DB.BMP,Door3,-0.349315068,-0.006849315,1,0,0,0.5826,optionLeft,70,5545,3,12,0,12,0,1,,,,,,,,,,,,,,,,,,,,,,,,,,,,,,,,,,,,,,,
,,,,,,,,2023-08-16_08h35.35.729,HF_wild_card,2022.2.4,Win32,60.62810719,5ccab088f2532b0001b88aca,64d2fd46c836a06233681665,64dc7c041f8143bba27f3752,,,,,,,sngl,resources/DG.BMP,resources/Empty.png,Door4,-0.330136986,0.006849315,1,0,0,0.5498,optionLeft,80,5625,3,13,0,13,0,1,,,,,,,,,,,,,,,,,,,,,,,,,,,,,,,,,,,,,,,
,,,,,,,,2023-08-16_08h35.35.729,HF_wild_card,2022.2.4,Win32,60.62810719,5ccab088f2532b0001b88aca,64d2fd46c836a06233681665,64dc7c041f8143bba27f3752,,,,,,,sngl,resources/DP.BMP,resources/Empty.png,WildCard_NonEx,-0.295890411,0.002739726,1,0,0,0.6163,optionLeft,55,5680,3,14,0,14,0,1,,,,,,,,,,,,,,,,,,,,,,,,,,,,,,,,,,,,,,,
,,,,,,,,2023-08-16_08h35.35.729,HF_wild_card,2022.2.4,Win32,60.62810719,5ccab088f2532b0001b88aca,64d2fd46c836a06233681665,64dc7c041f8143bba27f3752,,,,,,,decisionTrl,resources/DY.BMP,resources/DG.BMP,Door4,0.32739726,0.008219178,1,0,0,1.484,optionRight,60,5740,3,15,0,15,0,1,,,,,,,,,,,,,,,,,,,,,,,,,,,,,,,,,,,,,,,
,,,,,,,,2023-08-16_08h35.35.729,HF_wild_card,2022.2.4,Win32,60.62810719,5ccab088f2532b0001b88aca,64d2fd46c836a06233681665,64dc7c041f8143bba27f3752,,,,,,,decisionTrl,resources/DG.BMP,resources/DY.BMP,Door4,-0.421917808,-0.009589041,1,0,0,1.1504,optionLeft,60,5800,3,16,0,16,0,1,,,,,,,,,,,,,,,,,,,,,,,,,,,,,,,,,,,,,,,
,,,,,,,,2023-08-16_08h35.35.729,HF_wild_card,2022.2.4,Win32,60.62810719,5ccab088f2532b0001b88aca,64d2fd46c836a06233681665,64dc7c041f8143bba27f3752,,,,,,,decisionTrl,resources/DBN.BMP,resources/DB.BMP,Door2,0.389041096,0.004109589,1,0,0,0.699,optionRight,40,5840,3,17,0,17,0,1,,,,,,,,,,,,,,,,,,,,,,,,,,,,,,,,,,,,,,,
,,,,,,,,2023-08-16_08h35.35.729,HF_wild_card,2022.2.4,Win32,60.62810719,5ccab088f2532b0001b88aca,64d2fd46c836a06233681665,64dc7c041f8143bba27f3752,,,,,,,decisionTrl,resources/DB.BMP,resources/DBN.BMP,Door2,-0.339726027,-0.016438356,1,0,0,0.7332,optionLeft,20,5860,3,18,0,18,0,1,,,,,,,,,,,,,,,,,,,,,,,,,,,,,,,,,,,,,,,
,,,,,,,,2023-08-16_08h35.35.729,HF_wild_card,2022.2.4,Win32,60.62810719,5ccab088f2532b0001b88aca,64d2fd46c836a06233681665,64dc7c041f8143bba27f3752,,,,,,,decisionTrl,resources/DP.BMP,resources/DBN.BMP,WildCard_NonEx,-0.354794521,-0.021917808,1,0,0,1.0008,optionLeft,55,5915,3,19,0,19,0,1,,,,,,,,,,,,,,,,,,,,,,,,,,,,,,,,,,,,,,,
,,,,,,,,2023-08-16_08h35.35.729,HF_wild_card,2022.2.4,Win32,60.62810719,5ccab088f2532b0001b88aca,64d2fd46c836a06233681665,64dc7c041f8143bba27f3752,,,,,,,decisionTrl,resources/DBN.BMP,resources/DP.BMP,WildCard_NonEx,0.361643836,-0.016438356,1,0,0,0.7823,optionRight,55,5970,3,20,0,20,0,1,,,,,,,,,,,,,,,,,,,,,,,,,,,,,,,,,,,,,,,
,,,,,,,,2023-08-16_08h35.35.729,HF_wild_card,2022.2.4,Win32,60.62810719,5ccab088f2532b0001b88aca,64d2fd46c836a06233681665,64dc7c041f8143bba27f3752,,,,,,,decisionTrl,resources/DY.BMP,resources/DP.BMP,Door3,-0.331506849,-0.008219178,1,0,0,0.5998,optionLeft,70,6040,3,21,0,21,0,1,,,,,,,,,,,,,,,,,,,,,,,,,,,,,,,,,,,,,,,
,,,,,,,,2023-08-16_08h35.35.729,HF_wild_card,2022.2.4,Win32,60.62810719,5ccab088f2532b0001b88aca,64d2fd46c836a06233681665,64dc7c041f8143bba27f3752,,,,,,,decisionTrl,resources/DBN.BMP,resources/DB.BMP,Door2,0.476712329,-0.019178082,1,0,0,0.7167,optionRight,40,6080,3,22,0,22,0,1,,,,,,,,,,,,,,,,,,,,,,,,,,,,,,,,,,,,,,,
,,,,,,,,2023-08-16_08h35.35.729,HF_wild_card,2022.2.4,Win32,60.62810719,5ccab088f2532b0001b88aca,64d2fd46c836a06233681665,64dc7c041f8143bba27f3752,,,,,,,decisionTrl,resources/DG.BMP,resources/DY.BMP,Door3,0.446575342,-0.02739726,1,0,0,0.9005,optionRight,70,6150,3,23,0,23,0,1,,,,,,,,,,,,,,,,,,,,,,,,,,,,,,,,,,,,,,,
,,,,,,,,2023-08-16_08h35.35.729,HF_wild_card,2022.2.4,Win32,60.62810719,5ccab088f2532b0001b88aca,64d2fd46c836a06233681665,64dc7c041f8143bba27f3752,,,,,,,sngl,resources/Empty.png,resources/DY.BMP,Door3,0.393150685,0.017808219,1,0,0,0.5483,optionRight,70,6220,3,24,0,24,0,1,,,,,,,,,,,,,,,,,,,,,,,,,,,,,,,,,,,,,,,
,,,,,,,,2023-08-16_08h35.35.729,HF_wild_card,2022.2.4,Win32,60.62810719,5ccab088f2532b0001b88aca,64d2fd46c836a06233681665,64dc7c041f8143bba27f3752,,,,,,,decisionTrl,resources/DP.BMP,resources/DY.BMP,Door3,0.32739726,-0.012328767,1,0,0,0.951,optionRight,70,6290,3,25,0,25,0,1,,,,,,,,,,,,,,,,,,,,,,,,,,,,,,,,,,,,,,,
,,,,,,,,2023-08-16_08h35.35.729,HF_wild_card,2022.2.4,Win32,60.62810719,5ccab088f2532b0001b88aca,64d2fd46c836a06233681665,64dc7c041f8143bba27f3752,,,,,,,ctch,resources/DB.BMP,resources/DY.BMP,Door3,0.380821918,0.002739726,1,0,0,1.0168,optionRight,70,6360,3,26,0,26,0,1,,,,,,,,,,,,,,,,,,,,,,,,,,,,,,,,,,,,,,,
,,,,,,,,2023-08-16_08h35.35.729,HF_wild_card,2022.2.4,Win32,60.62810719,5ccab088f2532b0001b88aca,64d2fd46c836a06233681665,64dc7c041f8143bba27f3752,,,,,,,decisionTrl,resources/DG.BMP,resources/DY.BMP,Door3,0.305479452,-0.006849315,1,0,0,0.5499,optionRight,70,6430,3,27,0,27,0,1,,,,,,,,,,,,,,,,,,,,,,,,,,,,,,,,,,,,,,,
,,,,,,,,2023-08-16_08h35.35.729,HF_wild_card,2022.2.4,Win32,60.62810719,5ccab088f2532b0001b88aca,64d2fd46c836a06233681665,64dc7c041f8143bba27f3752,,,,,,,ctch,resources/DG.BMP,resources/DBN.BMP,Door4,-0.356164384,0.001369863,1,0,0,0.6461,optionLeft,80,6510,3,28,0,28,0,1,,,,,,,,,,,,,,,,,,,,,,,,,,,,,,,,,,,,,,,
,,,,,,,,2023-08-16_08h35.35.729,HF_wild_card,2022.2.4,Win32,60.62810719,5ccab088f2532b0001b88aca,64d2fd46c836a06233681665,64dc7c041f8143bba27f3752,,,,,,,sngl,resources/DBN.BMP,resources/Empty.png,Door1,-0.312328767,0.008219178,1,0,0,0.9528,optionLeft,30,6540,3,29,0,29,0,1,,,,,,,,,,,,,,,,,,,,,,,,,,,,,,,,,,,,,,,
,,,,,,,,2023-08-16_08h35.35.729,HF_wild_card,2022.2.4,Win32,60.62810719,5ccab088f2532b0001b88aca,64d2fd46c836a06233681665,64dc7c041f8143bba27f3752,,,,,,,sngl,resources/Empty.png,resources/DG.BMP,Door4,0.357534247,0.016438356,1,0,0,0.9307,optionRight,60,6600,3,30,0,30,0,1,,,,,,,,,,,,,,,,,,,,,,,,,,,,,,,,,,,,,,,
,,,,,,,,2023-08-16_08h35.35.729,HF_wild_card,2022.2.4,Win32,60.62810719,5ccab088f2532b0001b88aca,64d2fd46c836a06233681665,64dc7c041f8143bba27f3752,,,,,,,decisionTrl,resources/DB.BMP,resources/DP.BMP,WildCard_NonEx,0.417808219,0.004109589,1,0,0,0.8537,optionRight,55,6655,3,31,0,31,0,1,,,,,,,,,,,,,,,,,,,,,,,,,,,,,,,,,,,,,,,
,,,,,,,,2023-08-16_08h35.35.729,HF_wild_card,2022.2.4,Win32,60.62810719,5ccab088f2532b0001b88aca,64d2fd46c836a06233681665,64dc7c041f8143bba27f3752,,,,,,,decisionTrl,resources/DG.BMP,resources/DP.BMP,Door4,-0.493150685,0.020547945,1,0,0,0.6945,optionLeft,60,6715,3,32,0,32,0,1,,,,,,,,,,,,,,,,,,,,,,,,,,,,,,,,,,,,,,,
,,,,,,,,2023-08-16_08h35.35.729,HF_wild_card,2022.2.4,Win32,60.62810719,5ccab088f2532b0001b88aca,64d2fd46c836a06233681665,64dc7c041f8143bba27f3752,,,,,,,sngl,resources/Empty.png,resources/DBN.BMP,Door1,0.350684932,0.010958904,1,0,0,0.6155,optionRight,30,6745,3,33,0,33,0,1,,,,,,,,,,,,,,,,,,,,,,,,,,,,,,,,,,,,,,,
,,,,,,,,2023-08-16_08h35.35.729,HF_wild_card,2022.2.4,Win32,60.62810719,5ccab088f2532b0001b88aca,64d2fd46c836a06233681665,64dc7c041f8143bba27f3752,,,,,,,decisionTrl,resources/DG.BMP,resources/DY.BMP,Door3,0.373972603,0.009589041,1,0,0,0.8504,optionRight,70,6815,3,34,0,34,0,1,,,,,,,,,,,,,,,,,,,,,,,,,,,,,,,,,,,,,,,
,,,,,,,,2023-08-16_08h35.35.729,HF_wild_card,2022.2.4,Win32,60.62810719,5ccab088f2532b0001b88aca,64d2fd46c836a06233681665,64dc7c041f8143bba27f3752,,,,,,,decisionTrl,resources/DB.BMP,resources/DBN.BMP,Door2,-0.360273973,-0.008219178,1,0,0,0.7986,optionLeft,40,6855,3,35,0,35,0,1,,,,,,,,,,,,,,,,,,,,,,,,,,,,,,,,,,,,,,,
,,,,,,,,2023-08-16_08h35.35.729,HF_wild_card,2022.2.4,Win32,60.62810719,5ccab088f2532b0001b88aca,64d2fd46c836a06233681665,64dc7c041f8143bba27f3752,,,,,,,sngl,resources/Empty.png,resources/DB.BMP,Door2,0.321917808,0.006849315,1,0,0,0.7334,optionRight,20,6875,3,36,0,36,0,1,,,,,,,,,,,,,,,,,,,,,,,,,,,,,,,,,,,,,,,
,,,,,,,,2023-08-16_08h35.35.729,HF_wild_card,2022.2.4,Win32,60.62810719,5ccab088f2532b0001b88aca,64d2fd46c836a06233681665,64dc7c041f8143bba27f3752,,,,,,,decisionTrl,resources/DY.BMP,resources/DG.BMP,Door3,-0.353424658,0.034246575,1,0,0,0.5457,optionLeft,70,6945,3,37,0,37,0,1,,,,,,,,,,,,,,,,,,,,,,,,,,,,,,,,,,,,,,,
,,,,,,,,2023-08-16_08h35.35.729,HF_wild_card,2022.2.4,Win32,60.62810719,5ccab088f2532b0001b88aca,64d2fd46c836a06233681665,64dc7c041f8143bba27f3752,,,,,,,ctch,resources/DG.BMP,resources/DBN.BMP,Door4,-0.328767123,0.015068493,1,0,0,0.9043,optionLeft,80,7025,3,38,0,38,0,1,,,,,,,,,,,,,,,,,,,,,,,,,,,,,,,,,,,,,,,
,,,,,,,,2023-08-16_08h35.35.729,HF_wild_card,2022.2.4,Win32,60.62810719,5ccab088f2532b0001b88aca,64d2fd46c836a06233681665,64dc7c041f8143bba27f3752,,,,,,,decisionTrl,resources/DP.BMP,resources/DG.BMP,Door4,0.346575342,0.017808219,1,0,0,0.8513,optionRight,60,7085,3,39,0,39,0,1,,,,,,,,,,,,,,,,,,,,,,,,,,,,,,,,,,,,,,,
,,,,,,,,2023-08-16_08h35.35.729,HF_wild_card,2022.2.4,Win32,60.62810719,5ccab088f2532b0001b88aca,64d2fd46c836a06233681665,64dc7c041f8143bba27f3752,,,,,,,decisionTrl,resources/DY.BMP,resources/DG.BMP,Door4,0.420547945,0.021917808,1,0,0,0.7171,optionRight,80,7165,3,40,0,40,0,1,,,,,,,,,,,,,,,,,,,,,,,,,,,,,,,,,,,,,,,
,,,,,,,,2023-08-16_08h35.35.729,HF_wild_card,2022.2.4,Win32,60.62810719,5ccab088f2532b0001b88aca,64d2fd46c836a06233681665,64dc7c041f8143bba27f3752,,,,,,,ctch,resources/DBN.BMP,resources/DG.BMP,Door4,0.408219178,0.054794521,1,0,0,0.664,optionRight,60,7225,3,41,0,41,0,1,,,,,,,,,,,,,,,,,,,,,,,,,,,,,,,,,,,,,,,
,,,,,,,,2023-08-16_08h35.35.729,HF_wild_card,2022.2.4,Win32,60.62810719,5ccab088f2532b0001b88aca,64d2fd46c836a06233681665,64dc7c041f8143bba27f3752,,,,,,,decisionTrl,resources/DBN.BMP,resources/DB.BMP,Door2,0.426027397,0.038356164,1,0,0,0.6333,optionRight,20,7245,3,42,0,42,0,1,,,,,,,,,,,,,,,,,,,,,,,,,,,,,,,,,,,,,,,
,,,,,,,,2023-08-16_08h35.35.729,HF_wild_card,2022.2.4,Win32,60.62810719,5ccab088f2532b0001b88aca,64d2fd46c836a06233681665,64dc7c041f8143bba27f3752,,,,,,,sngl,resources/DP.BMP,resources/Empty.png,WildCard_NonEx,-0.430136986,-0.017808219,1,0,0,0.653,optionLeft,45,7290,3,43,0,43,0,1,,,,,,,,,,,,,,,,,,,,,,,,,,,,,,,,,,,,,,,
,,,,,,,,2023-08-16_08h35.35.729,HF_wild_card,2022.2.4,Win32,60.62810719,5ccab088f2532b0001b88aca,64d2fd46c836a06233681665,64dc7c041f8143bba27f3752,,,,,,,,,,,,,,,,,,,,,,,,,,2,0,2,0,1,,,,,,,,,,,,,,,,,,,,,,,,,,,,,,,,,,
,,,,,,,,2023-08-16_08h35.35.729,HF_wild_card,2022.2.4,Win32,60.62810719,5ccab088f2532b0001b88aca,64d2fd46c836a06233681665,64dc7c041f8143bba27f3752,,,,,,,sngl,resources/Empty.png,resources/DR.BMP,WildCard_Ex,0.373972603,0.009589041,1,0,0,1.0934,optionRight,5,7295,4,0,0,0,0,1,,,,,,,,,,,,,,,,,,,,,,,,,,,,,,,,,,,,,,,
,,,,,,,,2023-08-16_08h35.35.729,HF_wild_card,2022.2.4,Win32,60.62810719,5ccab088f2532b0001b88aca,64d2fd46c836a06233681665,64dc7c041f8143bba27f3752,,,,,,,decisionTrl,resources/DG.BMP,resources/DR.BMP,Door4,-0.398630137,0.015068493,1,0,0,0.9509,optionLeft,60,7355,4,1,0,1,0,1,,,,,,,,,,,,,,,,,,,,,,,,,,,,,,,,,,,,,,,
,,,,,,,,2023-08-16_08h35.35.729,HF_wild_card,2022.2.4,Win32,60.62810719,5ccab088f2532b0001b88aca,64d2fd46c836a06233681665,64dc7c041f8143bba27f3752,,,,,,,decisionTrl,resources/DR.BMP,resources/DY.BMP,Door3,0.389041096,0.034246575,1,0,0,0.6857,optionRight,70,7425,4,2,0,2,0,1,,,,,,,,,,,,,,,,,,,,,,,,,,,,,,,,,,,,,,,
,,,,,,,,2023-08-16_08h35.35.729,HF_wild_card,2022.2.4,Win32,60.62810719,5ccab088f2532b0001b88aca,64d2fd46c836a06233681665,64dc7c041f8143bba27f3752,,,,,,,decisionTrl,resources/DG.BMP,resources/DY.BMP,Door3,0.357534247,0.002739726,1,0,0,0.5678,optionRight,70,7495,4,3,0,3,0,1,,,,,,,,,,,,,,,,,,,,,,,,,,,,,,,,,,,,,,,
,,,,,,,,2023-08-16_08h35.35.729,HF_wild_card,2022.2.4,Win32,60.62810719,5ccab088f2532b0001b88aca,64d2fd46c836a06233681665,64dc7c041f8143bba27f3752,,,,,,,sngl,resources/DB.BMP,resources/Empty.png,Door2,-0.524657534,0.026027397,1,0,0,0.6351,optionLeft,20,7515,4,4,0,4,0,1,,,,,,,,,,,,,,,,,,,,,,,,,,,,,,,,,,,,,,,
,,,,,,,,2023-08-16_08h35.35.729,HF_wild_card,2022.2.4,Win32,60.62810719,5ccab088f2532b0001b88aca,64d2fd46c836a06233681665,64dc7c041f8143bba27f3752,,,,,,,decisionTrl,resources/DB.BMP,resources/DBN.BMP,Door1,0.383561644,0.031506849,1,0,0,1.3882,optionRight,30,7545,4,5,0,5,0,1,,,,,,,,,,,,,,,,,,,,,,,,,,,,,,,,,,,,,,,
,,,,,,,,2023-08-16_08h35.35.729,HF_wild_card,2022.2.4,Win32,60.62810719,5ccab088f2532b0001b88aca,64d2fd46c836a06233681665,64dc7c041f8143bba27f3752,,,,,,,decisionTrl,resources/DB.BMP,resources/DBN.BMP,Door2,-0.305479452,-0.012328767,1,0,0,1.1488,optionLeft,40,7585,4,6,0,6,0,1,,,,,,,,,,,,,,,,,,,,,,,,,,,,,,,,,,,,,,,
,,,,,,,,2023-08-16_08h35.35.729,HF_wild_card,2022.2.4,Win32,60.62810719,5ccab088f2532b0001b88aca,64d2fd46c836a06233681665,64dc7c041f8143bba27f3752,,,,,,,decisionTrl,resources/DB.BMP,resources/DBN.BMP,Door2,-0.369863014,0.017808219,1,0,0,0.65,optionLeft,40,7625,4,7,0,7,0,1,,,,,,,,,,,,,,,,,,,,,,,,,,,,,,,,,,,,,,,
,,,,,,,,2023-08-16_08h35.35.729,HF_wild_card,2022.2.4,Win32,60.62810719,5ccab088f2532b0001b88aca,64d2fd46c836a06233681665,64dc7c041f8143bba27f3752,,,,,,,sngl,resources/Empty.png,resources/DG.BMP,Door4,0.58630137,0.004109589,1,0,0,0.6353,optionRight,80,7705,4,8,0,8,0,1,,,,,,,,,,,,,,,,,,,,,,,,,,,,,,,,,,,,,,,
,,,,,,,,2023-08-16_08h35.35.729,HF_wild_card,2022.2.4,Win32,60.62810719,5ccab088f2532b0001b88aca,64d2fd46c836a06233681665,64dc7c041f8143bba27f3752,,,,,,,decisionTrl,resources/DG.BMP,resources/DY.BMP,Door3,0.365753425,-0.005479452,1,0,0,0.6471,optionRight,70,7775,4,9,0,9,0,1,,,,,,,,,,,,,,,,,,,,,,,,,,,,,,,,,,,,,,,
,,,,,,,,2023-08-16_08h35.35.729,HF_wild_card,2022.2.4,Win32,60.62810719,5ccab088f2532b0001b88aca,64d2fd46c836a06233681665,64dc7c041f8143bba27f3752,,,,,,,decisionTrl,resources/DY.BMP,resources/DG.BMP,Door3,-0.221917808,-0.009589041,1,0,0,1.1173,optionLeft,70,7845,4,10,0,10,0,1,,,,,,,,,,,,,,,,,,,,,,,,,,,,,,,,,,,,,,,
,,,,,,,,2023-08-16_08h35.35.729,HF_wild_card,2022.2.4,Win32,60.62810719,5ccab088f2532b0001b88aca,64d2fd46c836a06233681665,64dc7c041f8143bba27f3752,,,,,,,decisionTrl,resources/DR.BMP,resources/DBN.BMP,Door1,0.464383562,0.002739726,1,0,0,1.7201,optionRight,30,7875,4,11,0,11,0,1,,,,,,,,,,,,,,,,,,,,,,,,,,,,,,,,,,,,,,,
,,,,,,,,2023-08-16_08h35.35.729,HF_wild_card,2022.2.4,Win32,60.62810719,5ccab088f2532b0001b88aca,64d2fd46c836a06233681665,64dc7c041f8143bba27f3752,,,,,,,ctch,resources/DY.BMP,resources/DB.BMP,Door3,-0.323287671,-0.002739726,1,0,0,0.7828,optionLeft,70,7945,4,12,0,12,0,1,,,,,,,,,,,,,,,,,,,,,,,,,,,,,,,,,,,,,,,
,,,,,,,,2023-08-16_08h35.35.729,HF_wild_card,2022.2.4,Win32,60.62810719,5ccab088f2532b0001b88aca,64d2fd46c836a06233681665,64dc7c041f8143bba27f3752,,,,,,,decisionTrl,resources/DBN.BMP,resources/DB.BMP,Door2,0.339726027,0.005479452,1,0,0,1.1341,optionRight,40,7985,4,13,0,13,0,1,,,,,,,,,,,,,,,,,,,,,,,,,,,,,,,,,,,,,,,
,,,,,,,,2023-08-16_08h35.35.729,HF_wild_card,2022.2.4,Win32,60.62810719,5ccab088f2532b0001b88aca,64d2fd46c836a06233681665,64dc7c041f8143bba27f3752,,,,,,,decisionTrl,resources/DY.BMP,resources/DR.BMP,Door3,-0.25890411,-0.02739726,1,0,0,0.7691,optionLeft,70,8055,4,14,0,14,0,1,,,,,,,,,,,,,,,,,,,,,,,,,,,,,,,,,,,,,,,
,,,,,,,,2023-08-16_08h35.35.729,HF_wild_card,2022.2.4,Win32,60.62810719,5ccab088f2532b0001b88aca,64d2fd46c836a06233681665,64dc7c041f8143bba27f3752,,,,,,,decisionTrl,resources/DBN.BMP,resources/DB.BMP,Door2,0.373972603,0.005479452,1,0,0,0.7982,optionRight,20,8075,4,15,0,15,0,1,,,,,,,,,,,,,,,,,,,,,,,,,,,,,,,,,,,,,,,
,,,,,,,,2023-08-16_08h35.35.729,HF_wild_card,2022.2.4,Win32,60.62810719,5ccab088f2532b0001b88aca,64d2fd46c836a06233681665,64dc7c041f8143bba27f3752,,,,,,,decisionTrl,resources/DBN.BMP,resources/DB.BMP,Door1,-0.261643836,0.002739726,1,0,0,2.1696,optionLeft,30,8105,4,16,0,16,0,1,,,,,,,,,,,,,,,,,,,,,,,,,,,,,,,,,,,,,,,
,,,,,,,,2023-08-16_08h35.35.729,HF_wild_card,2022.2.4,Win32,60.62810719,5ccab088f2532b0001b88aca,64d2fd46c836a06233681665,64dc7c041f8143bba27f3752,,,,,,,ctch,resources/DB.BMP,resources/DY.BMP,Door3,0.424657534,0.008219178,1,0,0,0.8164,optionRight,70,8175,4,17,0,17,0,1,,,,,,,,,,,,,,,,,,,,,,,,,,,,,,,,,,,,,,,
,,,,,,,,2023-08-16_08h35.35.729,HF_wild_card,2022.2.4,Win32,60.62810719,5ccab088f2532b0001b88aca,64d2fd46c836a06233681665,64dc7c041f8143bba27f3752,,,,,,,sngl,resources/Empty.png,resources/DR.BMP,WildCard_Ex,0.321917808,-0.016438356,1,0,0,1.0665,optionRight,95,8270,4,18,0,18,0,1,,,,,,,,,,,,,,,,,,,,,,,,,,,,,,,,,,,,,,,
,,,,,,,,2023-08-16_08h35.35.729,HF_wild_card,2022.2.4,Win32,60.62810719,5ccab088f2532b0001b88aca,64d2fd46c836a06233681665,64dc7c041f8143bba27f3752,,,,,,,ctch,resources/DG.BMP,resources/DBN.BMP,Door4,-0.417808219,0.028767123,1,0,0,0.6609,optionLeft,60,8330,4,19,0,19,0,1,,,,,,,,,,,,,,,,,,,,,,,,,,,,,,,,,,,,,,,
,,,,,,,,2023-08-16_08h35.35.729,HF_wild_card,2022.2.4,Win32,60.62810719,5ccab088f2532b0001b88aca,64d2fd46c836a06233681665,64dc7c041f8143bba27f3752,,,,,,,sngl,resources/DY.BMP,resources/Empty.png,Door3,-0.310958904,-0.002739726,1,0,0,0.8009,optionLeft,70,8400,4,20,0,20,0,1,,,,,,,,,,,,,,,,,,,,,,,,,,,,,,,,,,,,,,,
,,,,,,,,2023-08-16_08h35.35.729,HF_wild_card,2022.2.4,Win32,60.62810719,5ccab088f2532b0001b88aca,64d2fd46c836a06233681665,64dc7c041f8143bba27f3752,,,,,,,decisionTrl,resources/DR.BMP,resources/DG.BMP,Door4,0.339726027,0.032876712,1,0,0,0.7994,optionRight,80,8480,4,21,0,21,0,1,,,,,,,,,,,,,,,,,,,,,,,,,,,,,,,,,,,,,,,
,,,,,,,,2023-08-16_08h35.35.729,HF_wild_card,2022.2.4,Win32,60.62810719,5ccab088f2532b0001b88aca,64d2fd46c836a06233681665,64dc7c041f8143bba27f3752,,,,,,,decisionTrl,resources/DY.BMP,resources/DG.BMP,Door3,-0.34109589,0.012328767,1,0,0,0.6831,optionLeft,70,8550,4,22,0,22,0,1,,,,,,,,,,,,,,,,,,,,,,,,,,,,,,,,,,,,,,,
,,,,,,,,2023-08-16_08h35.35.729,HF_wild_card,2022.2.4,Win32,60.62810719,5ccab088f2532b0001b88aca,64d2fd46c836a06233681665,64dc7c041f8143bba27f3752,,,,,,,ctch,resources/DBN.BMP,resources/DG.BMP,Door4,0.336986301,0.020547945,1,0,0,0.618,optionRight,80,8630,4,23,0,23,0,1,,,,,,,,,,,,,,,,,,,,,,,,,,,,,,,,,,,,,,,
,,,,,,,,2023-08-16_08h35.35.729,HF_wild_card,2022.2.4,Win32,60.62810719,5ccab088f2532b0001b88aca,64d2fd46c836a06233681665,64dc7c041f8143bba27f3752,,,,,,,sngl,resources/DR.BMP,resources/Empty.png,WildCard_Ex,-0.324657534,0.026027397,1,0,0,0.7496,optionLeft,95,8725,4,24,0,24,0,1,,,,,,,,,,,,,,,,,,,,,,,,,,,,,,,,,,,,,,,
,,,,,,,,2023-08-16_08h35.35.729,HF_wild_card,2022.2.4,Win32,60.62810719,5ccab088f2532b0001b88aca,64d2fd46c836a06233681665,64dc7c041f8143bba27f3752,,,,,,,decisionTrl,resources/DB.BMP,resources/DBN.BMP,Door2,-0.324657534,-0.001369863,1,0,0,1.7171,optionLeft,20,8745,4,25,0,25,0,1,,,,,,,,,,,,,,,,,,,,,,,,,,,,,,,,,,,,,,,
,,,,,,,,2023-08-16_08h35.35.729,HF_wild_card,2022.2.4,Win32,60.62810719,5ccab088f2532b0001b88aca,64d2fd46c836a06233681665,64dc7c041f8143bba27f3752,,,,,,,ctch,resources/DY.BMP,resources/DB.BMP,Door3,-0.412328767,0.010958904,1,0,0,0.8504,optionLeft,70,8815,4,26,0,26,0,1,,,,,,,,,,,,,,,,,,,,,,,,,,,,,,,,,,,,,,,
,,,,,,,,2023-08-16_08h35.35.729,HF_wild_card,2022.2.4,Win32,60.62810719,5ccab088f2532b0001b88aca,64d2fd46c836a06233681665,64dc7c041f8143bba27f3752,,,,,,,decisionTrl,resources/DY.BMP,resources/DG.BMP,Door3,-0.382191781,0.02739726,1,0,0,0.7068,optionLeft,70,8885,4,27,0,27,0,1,,,,,,,,,,,,,,,,,,,,,,,,,,,,,,,,,,,,,,,
,,,,,,,,2023-08-16_08h35.35.729,HF_wild_card,2022.2.4,Win32,60.62810719,5ccab088f2532b0001b88aca,64d2fd46c836a06233681665,64dc7c041f8143bba27f3752,,,,,,,decisionTrl,resources/DG.BMP,resources/DY.BMP,Door3,0.234246575,0.024657534,1,0,0,1.1512,optionRight,70,8955,4,28,0,28,0,1,,,,,,,,,,,,,,,,,,,,,,,,,,,,,,,,,,,,,,,
,,,,,,,,2023-08-16_08h35.35.729,HF_wild_card,2022.2.4,Win32,60.62810719,5ccab088f2532b0001b88aca,64d2fd46c836a06233681665,64dc7c041f8143bba27f3752,,,,,,,sngl,resources/Empty.png,resources/DY.BMP,Door3,0.338356164,0.024657534,1,0,0,0.5659,optionRight,70,9025,4,29,0,29,0,1,,,,,,,,,,,,,,,,,,,,,,,,,,,,,,,,,,,,,,,
,,,,,,,,2023-08-16_08h35.35.729,HF_wild_card,2022.2.4,Win32,60.62810719,5ccab088f2532b0001b88aca,64d2fd46c836a06233681665,64dc7c041f8143bba27f3752,,,,,,,decisionTrl,resources/DB.BMP,resources/DR.BMP,Door2,-0.347945205,0.012328767,1,0,0,1.5875,optionLeft,40,9065,4,30,0,30,0,1,,,,,,,,,,,,,,,,,,,,,,,,,,,,,,,,,,,,,,,
,,,,,,,,2023-08-16_08h35.35.729,HF_wild_card,2022.2.4,Win32,60.62810719,5ccab088f2532b0001b88aca,64d2fd46c836a06233681665,64dc7c041f8143bba27f3752,,,,,,,decisionTrl,resources/DR.BMP,resources/DB.BMP,WildCard_Ex,-0.219178082,0.005479452,1,0,0,0.9661,optionLeft,5,9070,4,31,0,31,0,1,,,,,,,,,,,,,,,,,,,,,,,,,,,,,,,,,,,,,,,
,,,,,,,,2023-08-16_08h35.35.729,HF_wild_card,2022.2.4,Win32,60.62810719,5ccab088f2532b0001b88aca,64d2fd46c836a06233681665,64dc7c041f8143bba27f3752,,,,,,,ctch,resources/DG.BMP,resources/DBN.BMP,Door1,0.346575342,0.026027397,1,0,0,1.388,optionRight,30,9100,4,32,0,32,0,1,,,,,,,,,,,,,,,,,,,,,,,,,,,,,,,,,,,,,,,
,,,,,,,,2023-08-16_08h35.35.729,HF_wild_card,2022.2.4,Win32,60.62810719,5ccab088f2532b0001b88aca,64d2fd46c836a06233681665,64dc7c041f8143bba27f3752,,,,,,,decisionTrl,resources/DBN.BMP,resources/DB.BMP,Door1,-0.276712329,0.002739726,1,0,0,1.1513,optionLeft,30,9130,4,33,0,33,0,1,,,,,,,,,,,,,,,,,,,,,,,,,,,,,,,,,,,,,,,
,,,,,,,,2023-08-16_08h35.35.729,HF_wild_card,2022.2.4,Win32,60.62810719,5ccab088f2532b0001b88aca,64d2fd46c836a06233681665,64dc7c041f8143bba27f3752,,,,,,,decisionTrl,resources/DG.BMP,resources/DY.BMP,Door3,0.22739726,-0.026027397,1,0,0,0.8512,optionRight,70,9200,4,34,0,34,0,1,,,,,,,,,,,,,,,,,,,,,,,,,,,,,,,,,,,,,,,
,,,,,,,,2023-08-16_08h35.35.729,HF_wild_card,2022.2.4,Win32,60.62810719,5ccab088f2532b0001b88aca,64d2fd46c836a06233681665,64dc7c041f8143bba27f3752,,,,,,,decisionTrl,resources/DY.BMP,resources/DG.BMP,Door3,-0.310958904,-0.009589041,1,0,0,0.8336,optionLeft,70,9270,4,35,0,35,0,1,,,,,,,,,,,,,,,,,,,,,,,,,,,,,,,,,,,,,,,
,,,,,,,,2023-08-16_08h35.35.729,HF_wild_card,2022.2.4,Win32,60.62810719,5ccab088f2532b0001b88aca,64d2fd46c836a06233681665,64dc7c041f8143bba27f3752,,,,,,,sngl,resources/Empty.png,resources/DB.BMP,Door2,0.330136986,0.026027397,1,0,0,9.7208,optionRight,40,9310,4,36,0,36,0,1,,,,,,,,,,,,,,,,,,,,,,,,,,,,,,,,,,,,,,,
,,,,,,,,2023-08-16_08h35.35.729,HF_wild_card,2022.2.4,Win32,60.62810719,5ccab088f2532b0001b88aca,64d2fd46c836a06233681665,64dc7c041f8143bba27f3752,,,,,,,sngl,resources/DBN.BMP,resources/Empty.png,Door1,-0.428767123,0.004109589,1,0,0,0.5315,optionLeft,30,9340,4,37,0,37,0,1,,,,,,,,,,,,,,,,,,,,,,,,,,,,,,,,,,,,,,,
,,,,,,,,2023-08-16_08h35.35.729,HF_wild_card,2022.2.4,Win32,60.62810719,5ccab088f2532b0001b88aca,64d2fd46c836a06233681665,64dc7c041f8143bba27f3752,,,,,,,decisionTrl,resources/DBN.BMP,resources/DR.BMP,WildCard_Ex,0.357534247,0.021917808,1,0,0,1.9533,optionRight,95,9435,4,38,0,38,0,1,,,,,,,,,,,,,,,,,,,,,,,,,,,,,,,,,,,,,,,
,,,,,,,,2023-08-16_08h35.35.729,HF_wild_card,2022.2.4,Win32,60.62810719,5ccab088f2532b0001b88aca,64d2fd46c836a06233681665,64dc7c041f8143bba27f3752,,,,,,,ctch,resources/DBN.BMP,resources/DG.BMP,Door4,0.436986301,-0.065753425,1,0,0,1.4187,optionRight,80,9515,4,39,0,39,0,1,,,,,,,,,,,,,,,,,,,,,,,,,,,,,,,,,,,,,,,
,,,,,,,,2023-08-16_08h35.35.729,HF_wild_card,2022.2.4,Win32,60.62810719,5ccab088f2532b0001b88aca,64d2fd46c836a06233681665,64dc7c041f8143bba27f3752,,,,,,,sngl,resources/DR.BMP,resources/Empty.png,WildCard_Ex,-0.384931507,0.017808219,1,0,0,0.9167,optionLeft,5,9520,4,40,0,40,0,1,,,,,,,,,,,,,,,,,,,,,,,,,,,,,,,,,,,,,,,
,,,,,,,,2023-08-16_08h35.35.729,HF_wild_card,2022.2.4,Win32,60.62810719,5ccab088f2532b0001b88aca,64d2fd46c836a06233681665,64dc7c041f8143bba27f3752,,,,,,,ctch,resources/DB.BMP,resources/DY.BMP,Door3,0.35890411,0.004109589,1,0,0,0.8998,optionRight,70,9590,4,41,0,41,0,1,,,,,,,,,,,,,,,,,,,,,,,,,,,,,,,,,,,,,,,
,,,,,,,,2023-08-16_08h35.35.729,HF_wild_card,2022.2.4,Win32,60.62810719,5ccab088f2532b0001b88aca,64d2fd46c836a06233681665,64dc7c041f8143bba27f3752,,,,,,,sngl,resources/DG.BMP,resources/Empty.png,Door4,-0.426027397,0,1,0,0,0.7657,optionLeft,60,9650,4,42,0,42,0,1,,,,,,,,,,,,,,,,,,,,,,,,,,,,,,,,,,,,,,,
,,,,,,,,2023-08-16_08h35.35.729,HF_wild_card,2022.2.4,Win32,60.62810719,5ccab088f2532b0001b88aca,64d2fd46c836a06233681665,64dc7c041f8143bba27f3752,,,,,,,sngl,resources/Empty.png,resources/DBN.BMP,Door1,0.443835616,-0.005479452,1,0,0,0.7992,optionRight,30,9680,4,43,0,43,0,1,,,,,,,,,,,,,,,,,,,,,,,,,,,,,,,,,,,,,,,
,,,,,,,,2023-08-16_08h35.35.729,HF_wild_card,2022.2.4,Win32,60.62810719,5ccab088f2532b0001b88aca,64d2fd46c836a06233681665,64dc7c041f8143bba27f3752,,,,,,,,,,,,,,,,,,,,,,,,,,3,0,3,0,1,,,,,,,,,,,,,,,,,,,,,,,,,,,,,,,,,,
,,,,,,,,2023-08-16_08h35.35.729,HF_wild_card,2022.2.4,Win32,60.62810719,5ccab088f2532b0001b88aca,64d2fd46c836a06233681665,64dc7c041f8143bba27f3752,,,,,,,decisionTrl,resources/DG.BMP,resources/DY.BMP,Door3,0.4,0.002739726,1,0,0,0.7092,optionRight,70,9750,5,0,0,0,0,1,,,,,,,,,,,,,,,,,,,,,,,,,,,,,,,,,,,,,,,
,,,,,,,,2023-08-16_08h35.35.729,HF_wild_card,2022.2.4,Win32,60.62810719,5ccab088f2532b0001b88aca,64d2fd46c836a06233681665,64dc7c041f8143bba27f3752,,,,,,,sngl,resources/Empty.png,resources/DY.BMP,Door3,0.54109589,0.019178082,1,0,0,0.5164,optionRight,70,9820,5,1,0,1,0,1,,,,,,,,,,,,,,,,,,,,,,,,,,,,,,,,,,,,,,,
,,,,,,,,2023-08-16_08h35.35.729,HF_wild_card,2022.2.4,Win32,60.62810719,5ccab088f2532b0001b88aca,64d2fd46c836a06233681665,64dc7c041f8143bba27f3752,,,,,,,decisionTrl,resources/DBN.BMP,resources/DB.BMP,Door1,-0.336986301,0.001369863,1,0,0,1.4835,optionLeft,30,9850,5,2,0,2,0,1,,,,,,,,,,,,,,,,,,,,,,,,,,,,,,,,,,,,,,,
,,,,,,,,2023-08-16_08h35.35.729,HF_wild_card,2022.2.4,Win32,60.62810719,5ccab088f2532b0001b88aca,64d2fd46c836a06233681665,64dc7c041f8143bba27f3752,,,,,,,decisionTrl,resources/DB.BMP,resources/DBN.BMP,Door1,0.373972603,0.036986301,1,0,0,1.0329,optionRight,30,9880,5,3,0,3,0,1,,,,,,,,,,,,,,,,,,,,,,,,,,,,,,,,,,,,,,,
,,,,,,,,2023-08-16_08h35.35.729,HF_wild_card,2022.2.4,Win32,60.62810719,5ccab088f2532b0001b88aca,64d2fd46c836a06233681665,64dc7c041f8143bba27f3752,,,,,,,decisionTrl,resources/DG.BMP,resources/DY.BMP,Door3,0.378082192,0.016438356,1,0,0,1.1996,optionRight,70,9950,5,4,0,4,0,1,,,,,,,,,,,,,,,,,,,,,,,,,,,,,,,,,,,,,,,
,,,,,,,,2023-08-16_08h35.35.729,HF_wild_card,2022.2.4,Win32,60.62810719,5ccab088f2532b0001b88aca,64d2fd46c836a06233681665,64dc7c041f8143bba27f3752,,,,,,,decisionTrl,resources/DY.BMP,resources/DG.BMP,Door3,-0.312328767,-0.015068493,1,0,0,0.7344,optionLeft,70,10020,5,5,0,5,0,1,,,,,,,,,,,,,,,,,,,,,,,,,,,,,,,,,,,,,,,
,,,,,,,,2023-08-16_08h35.35.729,HF_wild_card,2022.2.4,Win32,60.62810719,5ccab088f2532b0001b88aca,64d2fd46c836a06233681665,64dc7c041f8143bba27f3752,,,,,,,sngl,resources/DY.BMP,resources/Empty.png,Door3,-0.326027397,0.021917808,1,0,0,0.616,optionLeft,70,10090,5,6,0,6,0,1,,,,,,,,,,,,,,,,,,,,,,,,,,,,,,,,,,,,,,,
,,,,,,,,2023-08-16_08h35.35.729,HF_wild_card,2022.2.4,Win32,60.62810719,5ccab088f2532b0001b88aca,64d2fd46c836a06233681665,64dc7c041f8143bba27f3752,,,,,,,decisionTrl,resources/DR.BMP,resources/DY.BMP,WildCard_Ex,-0.279452055,0,1,0,0,3.3041,optionLeft,5,10095,5,7,0,7,0,1,,,,,,,,,,,,,,,,,,,,,,,,,,,,,,,,,,,,,,,
,,,,,,,,2023-08-16_08h35.35.729,HF_wild_card,2022.2.4,Win32,60.62810719,5ccab088f2532b0001b88aca,64d2fd46c836a06233681665,64dc7c041f8143bba27f3752,,,,,,,ctch,resources/DY.BMP,resources/DB.BMP,Door3,-0.324657534,0.021917808,1,0,0,0.8998,optionLeft,70,10165,5,8,0,8,0,1,,,,,,,,,,,,,,,,,,,,,,,,,,,,,,,,,,,,,,,
,,,,,,,,2023-08-16_08h35.35.729,HF_wild_card,2022.2.4,Win32,60.62810719,5ccab088f2532b0001b88aca,64d2fd46c836a06233681665,64dc7c041f8143bba27f3752,,,,,,,sngl,resources/DBN.BMP,resources/Empty.png,Door1,-0.278082192,0.012328767,1,0,0,0.6498,optionLeft,30,10195,5,9,0,9,0,1,,,,,,,,,,,,,,,,,,,,,,,,,,,,,,,,,,,,,,,
,,,,,,,,2023-08-16_08h35.35.729,HF_wild_card,2022.2.4,Win32,60.62810719,5ccab088f2532b0001b88aca,64d2fd46c836a06233681665,64dc7c041f8143bba27f3752,,,,,,,decisionTrl,resources/DG.BMP,resources/DY.BMP,Door3,0.47260274,-0.015068493,1,0,0,0.548,optionRight,70,10265,5,10,0,10,0,1,,,,,,,,,,,,,,,,,,,,,,,,,,,,,,,,,,,,,,,
,,,,,,,,2023-08-16_08h35.35.729,HF_wild_card,2022.2.4,Win32,60.62810719,5ccab088f2532b0001b88aca,64d2fd46c836a06233681665,64dc7c041f8143bba27f3752,,,,,,,decisionTrl,resources/DR.BMP,resources/DBN.BMP,WildCard_Ex,-0.353424658,-0.017808219,1,0,0,2.7205,optionLeft,5,10270,5,11,0,11,0,1,,,,,,,,,,,,,,,,,,,,,,,,,,,,,,,,,,,,,,,
,,,,,,,,2023-08-16_08h35.35.729,HF_wild_card,2022.2.4,Win32,60.62810719,5ccab088f2532b0001b88aca,64d2fd46c836a06233681665,64dc7c041f8143bba27f3752,,,,,,,decisionTrl,resources/DBN.BMP,resources/DB.BMP,Door2,0.410958904,0,1,0,0,2.0013,optionRight,20,10290,5,12,0,12,0,1,,,,,,,,,,,,,,,,,,,,,,,,,,,,,,,,,,,,,,,
,,,,,,,,2023-08-16_08h35.35.729,HF_wild_card,2022.2.4,Win32,60.62810719,5ccab088f2532b0001b88aca,64d2fd46c836a06233681665,64dc7c041f8143bba27f3752,,,,,,,sngl,resources/Empty.png,resources/DG.BMP,Door4,0.397260274,0.008219178,1,0,0,0.5669,optionRight,60,10350,5,13,0,13,0,1,,,,,,,,,,,,,,,,,,,,,,,,,,,,,,,,,,,,,,,
,,,,,,,,2023-08-16_08h35.35.729,HF_wild_card,2022.2.4,Win32,60.62810719,5ccab088f2532b0001b88aca,64d2fd46c836a06233681665,64dc7c041f8143bba27f3752,,,,,,,decisionTrl,resources/DBN.BMP,resources/DB.BMP,Door2,0.338356164,0.004109589,1,0,0,1.5015,optionRight,40,10390,5,14,0,14,0,1,,,,,,,,,,,,,,,,,,,,,,,,,,,,,,,,,,,,,,,
,,,,,,,,2023-08-16_08h35.35.729,HF_wild_card,2022.2.4,Win32,60.62810719,5ccab088f2532b0001b88aca,64d2fd46c836a06233681665,64dc7c041f8143bba27f3752,,,,,,,sngl,resources/Empty.png,resources/DBN.BMP,Door1,0.356164384,0.002739726,1,0,0,0.5496,optionRight,30,10420,5,15,0,15,0,1,,,,,,,,,,,,,,,,,,,,,,,,,,,,,,,,,,,,,,,
,,,,,,,,2023-08-16_08h35.35.729,HF_wild_card,2022.2.4,Win32,60.62810719,5ccab088f2532b0001b88aca,64d2fd46c836a06233681665,64dc7c041f8143bba27f3752,,,,,,,decisionTrl,resources/DB.BMP,resources/DBN.BMP,Door1,0.349315068,0.034246575,1,0,0,1.5186,optionRight,30,10450,5,16,0,16,0,1,,,,,,,,,,,,,,,,,,,,,,,,,,,,,,,,,,,,,,,
,,,,,,,,2023-08-16_08h35.35.729,HF_wild_card,2022.2.4,Win32,60.62810719,5ccab088f2532b0001b88aca,64d2fd46c836a06233681665,64dc7c041f8143bba27f3752,,,,,,,ctch,resources/DB.BMP,resources/DY.BMP,Door3,0.406849315,0,1,0,0,0.7325,optionRight,70,10520,5,17,0,17,0,1,,,,,,,,,,,,,,,,,,,,,,,,,,,,,,,,,,,,,,,
,,,,,,,,2023-08-16_08h35.35.729,HF_wild_card,2022.2.4,Win32,60.62810719,5ccab088f2532b0001b88aca,64d2fd46c836a06233681665,64dc7c041f8143bba27f3752,,,,,,,decisionTrl,resources/DY.BMP,resources/DG.BMP,Door3,-0.273972603,-0.046575342,1,0,0,0.8676,optionLeft,70,10590,5,18,0,18,0,1,,,,,,,,,,,,,,,,,,,,,,,,,,,,,,,,,,,,,,,
,,,,,,,,2023-08-16_08h35.35.729,HF_wild_card,2022.2.4,Win32,60.62810719,5ccab088f2532b0001b88aca,64d2fd46c836a06233681665,64dc7c041f8143bba27f3752,,,,,,,decisionTrl,resources/DBN.BMP,resources/DB.BMP,Door1,-0.360273973,0.010958904,1,0,0,1.3686,optionLeft,30,10620,5,19,0,19,0,1,,,,,,,,,,,,,,,,,,,,,,,,,,,,,,,,,,,,,,,
,,,,,,,,2023-08-16_08h35.35.729,HF_wild_card,2022.2.4,Win32,60.62810719,5ccab088f2532b0001b88aca,64d2fd46c836a06233681665,64dc7c041f8143bba27f3752,,,,,,,ctch,resources/DG.BMP,resources/DBN.BMP,Door4,-0.291780822,0,1,0,0,1.4169,optionLeft,60,10680,5,20,0,20,0,1,,,,,,,,,,,,,,,,,,,,,,,,,,,,,,,,,,,,,,,
,,,,,,,,2023-08-16_08h35.35.729,HF_wild_card,2022.2.4,Win32,60.62810719,5ccab088f2532b0001b88aca,64d2fd46c836a06233681665,64dc7c041f8143bba27f3752,,,,,,,decisionTrl,resources/DG.BMP,resources/DY.BMP,Door3,0.339726027,0.009589041,1,0,0,0.9997,optionRight,70,10750,5,21,0,21,0,1,,,,,,,,,,,,,,,,,,,,,,,,,,,,,,,,,,,,,,,
,,,,,,,,2023-08-16_08h35.35.729,HF_wild_card,2022.2.4,Win32,60.62810719,5ccab088f2532b0001b88aca,64d2fd46c836a06233681665,64dc7c041f8143bba27f3752,,,,,,,ctch,resources/DB.BMP,resources/DY.BMP,Door3,0.37260274,0.038356164,1,0,0,0.6646,optionRight,70,10820,5,22,0,22,0,1,,,,,,,,,,,,,,,,,,,,,,,,,,,,,,,,,,,,,,,
,,,,,,,,2023-08-16_08h35.35.729,HF_wild_card,2022.2.4,Win32,60.62810719,5ccab088f2532b0001b88aca,64d2fd46c836a06233681665,64dc7c041f8143bba27f3752,,,,,,,decisionTrl,resources/DR.BMP,resources/DG.BMP,Door4,0.383561644,0.008219178,1,0,0,1.0325,optionRight,80,10900,5,23,0,23,0,1,,,,,,,,,,,,,,,,,,,,,,,,,,,,,,,,,,,,,,,
,,,,,,,,2023-08-16_08h35.35.729,HF_wild_card,2022.2.4,Win32,60.62810719,5ccab088f2532b0001b88aca,64d2fd46c836a06233681665,64dc7c041f8143bba27f3752,,,,,,,decisionTrl,resources/DBN.BMP,resources/DR.BMP,Door1,-0.367123288,0.057534247,1,0,0,1.3451,optionLeft,30,10930,5,24,0,24,0,1,,,,,,,,,,,,,,,,,,,,,,,,,,,,,,,,,,,,,,,
,,,,,,,,2023-08-16_08h35.35.729,HF_wild_card,2022.2.4,Win32,60.62810719,5ccab088f2532b0001b88aca,64d2fd46c836a06233681665,64dc7c041f8143bba27f3752,,,,,,,decisionTrl,resources/DB.BMP,resources/DR.BMP,Door2,-0.401369863,0.028767123,1,0,0,1.3345,optionLeft,20,10950,5,25,0,25,0,1,,,,,,,,,,,,,,,,,,,,,,,,,,,,,,,,,,,,,,,
,,,,,,,,2023-08-16_08h35.35.729,HF_wild_card,2022.2.4,Win32,60.62810719,5ccab088f2532b0001b88aca,64d2fd46c836a06233681665,64dc7c041f8143bba27f3752,,,,,,,sngl,resources/DR.BMP,resources/Empty.png,WildCard_Ex,-0.331506849,0.020547945,1,0,0,0.648,optionLeft,5,10955,5,26,0,26,0,1,,,,,,,,,,,,,,,,,,,,,,,,,,,,,,,,,,,,,,,
,,,,,,,,2023-08-16_08h35.35.729,HF_wild_card,2022.2.4,Win32,60.62810719,5ccab088f2532b0001b88aca,64d2fd46c836a06233681665,64dc7c041f8143bba27f3752,,,,,,,decisionTrl,resources/DY.BMP,resources/DG.BMP,Door3,-0.317808219,0.009589041,1,0,0,1.7832,optionLeft,70,11025,5,27,0,27,0,1,,,,,,,,,,,,,,,,,,,,,,,,,,,,,,,,,,,,,,,
,,,,,,,,2023-08-16_08h35.35.729,HF_wild_card,2022.2.4,Win32,60.62810719,5ccab088f2532b0001b88aca,64d2fd46c836a06233681665,64dc7c041f8143bba27f3752,,,,,,,sngl,resources/Empty.png,resources/DB.BMP,Door2,0.37260274,0.005479452,1,0,0,0.6164,optionRight,20,11045,5,28,0,28,0,1,,,,,,,,,,,,,,,,,,,,,,,,,,,,,,,,,,,,,,,
,,,,,,,,2023-08-16_08h35.35.729,HF_wild_card,2022.2.4,Win32,60.62810719,5ccab088f2532b0001b88aca,64d2fd46c836a06233681665,64dc7c041f8143bba27f3752,,,,,,,sngl,resources/Empty.png,resources/DR.BMP,WildCard_Ex,0.331506849,0.006849315,1,0,0,0.6004,optionRight,95,11140,5,29,0,29,0,1,,,,,,,,,,,,,,,,,,,,,,,,,,,,,,,,,,,,,,,
,,,,,,,,2023-08-16_08h35.35.729,HF_wild_card,2022.2.4,Win32,60.62810719,5ccab088f2532b0001b88aca,64d2fd46c836a06233681665,64dc7c041f8143bba27f3752,,,,,,,decisionTrl,resources/DG.BMP,resources/DR.BMP,Door4,-0.261643836,0.019178082,1,0,0,1.9851,optionLeft,80,11220,5,30,0,30,0,1,,,,,,,,,,,,,,,,,,,,,,,,,,,,,,,,,,,,,,,
,,,,,,,,2023-08-16_08h35.35.729,HF_wild_card,2022.2.4,Win32,60.62810719,5ccab088f2532b0001b88aca,64d2fd46c836a06233681665,64dc7c041f8143bba27f3752,,,,,,,sngl,resources/DR.BMP,resources/Empty.png,WildCard_Ex,-0.512328767,0.034246575,1,0,0,0.5993,optionLeft,95,11315,5,31,0,31,0,1,,,,,,,,,,,,,,,,,,,,,,,,,,,,,,,,,,,,,,,
,,,,,,,,2023-08-16_08h35.35.729,HF_wild_card,2022.2.4,Win32,60.62810719,5ccab088f2532b0001b88aca,64d2fd46c836a06233681665,64dc7c041f8143bba27f3752,,,,,,,sngl,resources/DB.BMP,resources/Empty.png,Door2,-0.389041096,0.04109589,1,0,0,0.617,optionLeft,40,11355,5,32,0,32,0,1,,,,,,,,,,,,,,,,,,,,,,,,,,,,,,,,,,,,,,,
,,,,,,,,2023-08-16_08h35.35.729,HF_wild_card,2022.2.4,Win32,60.62810719,5ccab088f2532b0001b88aca,64d2fd46c836a06233681665,64dc7c041f8143bba27f3752,,,,,,,sngl,resources/Empty.png,resources/DR.BMP,WildCard_Ex,0.361643836,-0.001369863,1,0,0,0.6315,optionRight,5,11360,5,33,0,33,0,1,,,,,,,,,,,,,,,,,,,,,,,,,,,,,,,,,,,,,,,
,,,,,,,,2023-08-16_08h35.35.729,HF_wild_card,2022.2.4,Win32,60.62810719,5ccab088f2532b0001b88aca,64d2fd46c836a06233681665,64dc7c041f8143bba27f3752,,,,,,,sngl,resources/DG.BMP,resources/Empty.png,Door4,-0.368493151,0.039726027,1,0,0,0.5496,optionLeft,80,11440,5,34,0,34,0,1,,,,,,,,,,,,,,,,,,,,,,,,,,,,,,,,,,,,,,,
,,,,,,,,2023-08-16_08h35.35.729,HF_wild_card,2022.2.4,Win32,60.62810719,5ccab088f2532b0001b88aca,64d2fd46c836a06233681665,64dc7c041f8143bba27f3752,,,,,,,decisionTrl,resources/DB.BMP,resources/DBN.BMP,Door1,0.287671233,0.035616438,1,0,0,1.752,optionRight,30,11470,5,35,0,35,0,1,,,,,,,,,,,,,,,,,,,,,,,,,,,,,,,,,,,,,,,
,,,,,,,,2023-08-16_08h35.35.729,HF_wild_card,2022.2.4,Win32,60.62810719,5ccab088f2532b0001b88aca,64d2fd46c836a06233681665,64dc7c041f8143bba27f3752,,,,,,,decisionTrl,resources/DY.BMP,resources/DG.BMP,Door3,-0.302739726,-0.012328767,1,0,0,1.3004,optionLeft,70,11540,5,36,0,36,0,1,,,,,,,,,,,,,,,,,,,,,,,,,,,,,,,,,,,,,,,
,,,,,,,,2023-08-16_08h35.35.729,HF_wild_card,2022.2.4,Win32,60.62810719,5ccab088f2532b0001b88aca,64d2fd46c836a06233681665,64dc7c041f8143bba27f3752,,,,,,,decisionTrl,resources/DB.BMP,resources/DBN.BMP,Door1,0.154794521,0.035616438,1,0,0,1.291,optionRight,30,11570,5,37,0,37,0,1,,,,,,,,,,,,,,,,,,,,,,,,,,,,,,,,,,,,,,,
,,,,,,,,2023-08-16_08h35.35.729,HF_wild_card,2022.2.4,Win32,60.62810719,5ccab088f2532b0001b88aca,64d2fd46c836a06233681665,64dc7c041f8143bba27f3752,,,,,,,decisionTrl,resources/DY.BMP,resources/DR.BMP,Door3,-0.446575342,0.017808219,1,0,0,0.9006,optionLeft,70,11640,5,38,0,38,0,1,,,,,,,,,,,,,,,,,,,,,,,,,,,,,,,,,,,,,,,
,,,,,,,,2023-08-16_08h35.35.729,HF_wild_card,2022.2.4,Win32,60.62810719,5ccab088f2532b0001b88aca,64d2fd46c836a06233681665,64dc7c041f8143bba27f3752,,,,,,,ctch,resources/DY.BMP,resources/DB.BMP,Door3,-0.369863014,-0.004109589,1,0,0,0.767,optionLeft,70,11710,5,39,0,39,0,1,,,,,,,,,,,,,,,,,,,,,,,,,,,,,,,,,,,,,,,
,,,,,,,,2023-08-16_08h35.35.729,HF_wild_card,2022.2.4,Win32,60.62810719,5ccab088f2532b0001b88aca,64d2fd46c836a06233681665,64dc7c041f8143bba27f3752,,,,,,,decisionTrl,resources/DR.BMP,resources/DB.BMP,Door2,0.317808219,0.001369863,1,0,0,0.9661,optionRight,40,11750,5,40,0,40,0,1,,,,,,,,,,,,,,,,,,,,,,,,,,,,,,,,,,,,,,,
,,,,,,,,2023-08-16_08h35.35.729,HF_wild_card,2022.2.4,Win32,60.62810719,5ccab088f2532b0001b88aca,64d2fd46c836a06233681665,64dc7c041f8143bba27f3752,,,,,,,ctch,resources/DBN.BMP,resources/DG.BMP,Door4,0.434246575,0,1,0,0,0.7657,optionRight,60,11810,5,41,0,41,0,1,,,,,,,,,,,,,,,,,,,,,,,,,,,,,,,,,,,,,,,
,,,,,,,,2023-08-16_08h35.35.729,HF_wild_card,2022.2.4,Win32,60.62810719,5ccab088f2532b0001b88aca,64d2fd46c836a06233681665,64dc7c041f8143bba27f3752,,,,,,,ctch,resources/DBN.BMP,resources/DG.BMP,Door4,0.35890411,0.009589041,1,0,0,0.7318,optionRight,80,11890,5,42,0,42,0,1,,,,,,,,,,,,,,,,,,,,,,,,,,,,,,,,,,,,,,,
,,,,,,,,2023-08-16_08h35.35.729,HF_wild_card,2022.2.4,Win32,60.62810719,5ccab088f2532b0001b88aca,64d2fd46c836a06233681665,64dc7c041f8143bba27f3752,,,,,,,ctch,resources/DG.BMP,resources/DBN.BMP,Door4,-0.390410959,0.017808219,1,0,0,0.6142,optionLeft,80,11970,5,43,0,43,0,1,,,,,,,,,,,,,,,,,,,,,,,,,,,,,,,,,,,,,,,
,,,,,,,,2023-08-16_08h35.35.729,HF_wild_card,2022.2.4,Win32,60.62810719,5ccab088f2532b0001b88aca,64d2fd46c836a06233681665,64dc7c041f8143bba27f3752,,,,,,,,,,,,,,,,,,,,,,,,,,4,0,4,0,1,,,,,,,,,,,,,,,,,,,,,,,,,,,,,,,,,,
,,,,,,,,2023-08-16_08h35.35.729,HF_wild_card,2022.2.4,Win32,60.62810719,5ccab088f2532b0001b88aca,64d2fd46c836a06233681665,64dc7c041f8143bba27f3752,,,,,,,decisionTrl,resources/DBN.BMP,resources/DB.BMP,Door2,0.289041096,0.030136986,1,0,0,1.0768,optionRight,40,12010,6,0,0,0,0,1,,,,,,,,,,,,,,,,,,,,,,,,,,,,,,,,,,,,,,,
,,,,,,,,2023-08-16_08h35.35.729,HF_wild_card,2022.2.4,Win32,60.62810719,5ccab088f2532b0001b88aca,64d2fd46c836a06233681665,64dc7c041f8143bba27f3752,,,,,,,decisionTrl,resources/DY.BMP,resources/DG.BMP,Door3,-0.335616438,-0.017808219,1,0,0,0.717,optionLeft,70,12080,6,1,0,1,0,1,,,,,,,,,,,,,,,,,,,,,,,,,,,,,,,,,,,,,,,
,,,,,,,,2023-08-16_08h35.35.729,HF_wild_card,2022.2.4,Win32,60.62810719,5ccab088f2532b0001b88aca,64d2fd46c836a06233681665,64dc7c041f8143bba27f3752,,,,,,,sngl,resources/Empty.png,resources/DG.BMP,Door4,0.520547945,0.02739726,1,0,0,0.5982,optionRight,80,12160,6,2,0,2,0,1,,,,,,,,,,,,,,,,,,,,,,,,,,,,,,,,,,,,,,,
,,,,,,,,2023-08-16_08h35.35.729,HF_wild_card,2022.2.4,Win32,60.62810719,5ccab088f2532b0001b88aca,64d2fd46c836a06233681665,64dc7c041f8143bba27f3752,,,,,,,decisionTrl,resources/DY.BMP,resources/DG.BMP,Door3,-0.410958904,-0.023287671,1,0,0,0.8329,optionLeft,70,12230,6,3,0,3,0,1,,,,,,,,,,,,,,,,,,,,,,,,,,,,,,,,,,,,,,,
,,,,,,,,2023-08-16_08h35.35.729,HF_wild_card,2022.2.4,Win32,60.62810719,5ccab088f2532b0001b88aca,64d2fd46c836a06233681665,64dc7c041f8143bba27f3752,,,,,,,ctch,resources/DG.BMP,resources/DBN.BMP,Door4,-0.32739726,-0.019178082,1,0,0,0.8331,optionLeft,80,12310,6,4,0,4,0,1,,,,,,,,,,,,,,,,,,,,,,,,,,,,,,,,,,,,,,,
,,,,,,,,2023-08-16_08h35.35.729,HF_wild_card,2022.2.4,Win32,60.62810719,5ccab088f2532b0001b88aca,64d2fd46c836a06233681665,64dc7c041f8143bba27f3752,,,,,,,sngl,resources/DR.BMP,resources/Empty.png,WildCard_Ex,-0.432876712,-0.006849315,1,0,0,8.2841,optionLeft,5,12315,6,5,0,5,0,1,,,,,,,,,,,,,,,,,,,,,,,,,,,,,,,,,,,,,,,
,,,,,,,,2023-08-16_08h35.35.729,HF_wild_card,2022.2.4,Win32,60.62810719,5ccab088f2532b0001b88aca,64d2fd46c836a06233681665,64dc7c041f8143bba27f3752,,,,,,,ctch,resources/DBN.BMP,resources/DG.BMP,Door4,0.456164384,0.024657534,1,0,0,0.6666,optionRight,80,12395,6,6,0,6,0,1,,,,,,,,,,,,,,,,,,,,,,,,,,,,,,,,,,,,,,,
,,,,,,,,2023-08-16_08h35.35.729,HF_wild_card,2022.2.4,Win32,60.62810719,5ccab088f2532b0001b88aca,64d2fd46c836a06233681665,64dc7c041f8143bba27f3752,,,,,,,sngl,resources/Empty.png,resources/DY.BMP,Door3,0.456164384,-0.004109589,1,0,0,0.5164,optionRight,70,12465,6,7,0,7,0,1,,,,,,,,,,,,,,,,,,,,,,,,,,,,,,,,,,,,,,,
,,,,,,,,2023-08-16_08h35.35.729,HF_wild_card,2022.2.4,Win32,60.62810719,5ccab088f2532b0001b88aca,64d2fd46c836a06233681665,64dc7c041f8143bba27f3752,,,,,,,decisionTrl,resources/DB.BMP,resources/DBN.BMP,Door2,-0.324657534,0.001369863,1,0,0,0.6322,optionLeft,40,12505,6,8,0,8,0,1,,,,,,,,,,,,,,,,,,,,,,,,,,,,,,,,,,,,,,,
,,,,,,,,2023-08-16_08h35.35.729,HF_wild_card,2022.2.4,Win32,60.62810719,5ccab088f2532b0001b88aca,64d2fd46c836a06233681665,64dc7c041f8143bba27f3752,,,,,,,decisionTrl,resources/DB.BMP,resources/DBN.BMP,Door2,-0.347945205,0.028767123,1,0,0,0.5654,optionLeft,20,12525,6,9,0,9,0,1,,,,,,,,,,,,,,,,,,,,,,,,,,,,,,,,,,,,,,,
,,,,,,,,2023-08-16_08h35.35.729,HF_wild_card,2022.2.4,Win32,60.62810719,5ccab088f2532b0001b88aca,64d2fd46c836a06233681665,64dc7c041f8143bba27f3752,,,,,,,ctch,resources/DBN.BMP,resources/DG.BMP,Door4,0.375342466,0.02739726,1,0,0,0.7653,optionRight,60,12585,6,10,0,10,0,1,,,,,,,,,,,,,,,,,,,,,,,,,,,,,,,,,,,,,,,
,,,,,,,,2023-08-16_08h35.35.729,HF_wild_card,2022.2.4,Win32,60.62810719,5ccab088f2532b0001b88aca,64d2fd46c836a06233681665,64dc7c041f8143bba27f3752,,,,,,,decisionTrl,resources/DR.BMP,resources/DY.BMP,Door3,0.360273973,0.005479452,1,0,0,0.9836,optionRight,70,12655,6,11,0,11,0,1,,,,,,,,,,,,,,,,,,,,,,,,,,,,,,,,,,,,,,,
,,,,,,,,2023-08-16_08h35.35.729,HF_wild_card,2022.2.4,Win32,60.62810719,5ccab088f2532b0001b88aca,64d2fd46c836a06233681665,64dc7c041f8143bba27f3752,,,,,,,decisionTrl,resources/DB.BMP,resources/DR.BMP,Door2,-0.346575342,-0.001369863,1,0,0,1.4192,optionLeft,20,12675,6,12,0,12,0,1,,,,,,,,,,,,,,,,,,,,,,,,,,,,,,,,,,,,,,,
,,,,,,,,2023-08-16_08h35.35.729,HF_wild_card,2022.2.4,Win32,60.62810719,5ccab088f2532b0001b88aca,64d2fd46c836a06233681665,64dc7c041f8143bba27f3752,,,,,,,decisionTrl,resources/DG.BMP,resources/DY.BMP,Door3,0.331506849,0.020547945,1,0,0,0.8662,optionRight,70,12745,6,13,0,13,0,1,,,,,,,,,,,,,,,,,,,,,,,,,,,,,,,,,,,,,,,
,,,,,,,,2023-08-16_08h35.35.729,HF_wild_card,2022.2.4,Win32,60.62810719,5ccab088f2532b0001b88aca,64d2fd46c836a06233681665,64dc7c041f8143bba27f3752,,,,,,,sngl,resources/DG.BMP,resources/Empty.png,Door4,-0.368493151,0.010958904,1,0,0,0.5627,optionLeft,60,12805,6,14,0,14,0,1,,,,,,,,,,,,,,,,,,,,,,,,,,,,,,,,,,,,,,,
,,,,,,,,2023-08-16_08h35.35.729,HF_wild_card,2022.2.4,Win32,60.62810719,5ccab088f2532b0001b88aca,64d2fd46c836a06233681665,64dc7c041f8143bba27f3752,,,,,,,sngl,resources/Empty.png,resources/DR.BMP,WildCard_Ex,0.306849315,-0.001369863,1,0,0,0.6791,optionRight,5,12810,6,15,0,15,0,1,,,,,,,,,,,,,,,,,,,,,,,,,,,,,,,,,,,,,,,
,,,,,,,,2023-08-16_08h35.35.729,HF_wild_card,2022.2.4,Win32,60.62810719,5ccab088f2532b0001b88aca,64d2fd46c836a06233681665,64dc7c041f8143bba27f3752,,,,,,,decisionTrl,resources/DBN.BMP,resources/DB.BMP,Door1,-0.280821918,0.015068493,1,0,0,1.8859,optionLeft,30,12840,6,16,0,16,0,1,,,,,,,,,,,,,,,,,,,,,,,,,,,,,,,,,,,,,,,
,,,,,,,,2023-08-16_08h35.35.729,HF_wild_card,2022.2.4,Win32,60.62810719,5ccab088f2532b0001b88aca,64d2fd46c836a06233681665,64dc7c041f8143bba27f3752,,,,,,,ctch,resources/DY.BMP,resources/DB.BMP,Door3,-0.324657534,0.004109589,1,0,0,0.7814,optionLeft,70,12910,6,17,0,17,0,1,,,,,,,,,,,,,,,,,,,,,,,,,,,,,,,,,,,,,,,
,,,,,,,,2023-08-16_08h35.35.729,HF_wild_card,2022.2.4,Win32,60.62810719,5ccab088f2532b0001b88aca,64d2fd46c836a06233681665,64dc7c041f8143bba27f3752,,,,,,,decisionTrl,resources/DB.BMP,resources/DBN.BMP,Door1,0.260273973,0.046575342,1,0,0,1.7166,optionRight,30,12940,6,18,0,18,0,1,,,,,,,,,,,,,,,,,,,,,,,,,,,,,,,,,,,,,,,
,,,,,,,,2023-08-16_08h35.35.729,HF_wild_card,2022.2.4,Win32,60.62810719,5ccab088f2532b0001b88aca,64d2fd46c836a06233681665,64dc7c041f8143bba27f3752,,,,,,,ctch,resources/DB.BMP,resources/DY.BMP,Door3,0.361643836,-0.01369863,1,0,0,0.9982,optionRight,70,13010,6,19,0,19,0,1,,,,,,,,,,,,,,,,,,,,,,,,,,,,,,,,,,,,,,,
,,,,,,,,2023-08-16_08h35.35.729,HF_wild_card,2022.2.4,Win32,60.62810719,5ccab088f2532b0001b88aca,64d2fd46c836a06233681665,64dc7c041f8143bba27f3752,,,,,,,decisionTrl,resources/DY.BMP,resources/DR.BMP,Door3,-0.265753425,-0.031506849,1,0,0,0.6839,optionLeft,70,13080,6,20,0,20,0,1,,,,,,,,,,,,,,,,,,,,,,,,,,,,,,,,,,,,,,,
,,,,,,,,2023-08-16_08h35.35.729,HF_wild_card,2022.2.4,Win32,60.62810719,5ccab088f2532b0001b88aca,64d2fd46c836a06233681665,64dc7c041f8143bba27f3752,,,,,,,sngl,resources/Empty.png,resources/DR.BMP,WildCard_Ex,0.334246575,-0.006849315,1,0,0,0.5834,optionRight,95,13175,6,21,0,21,0,1,,,,,,,,,,,,,,,,,,,,,,,,,,,,,,,,,,,,,,,
,,,,,,,,2023-08-16_08h35.35.729,HF_wild_card,2022.2.4,Win32,60.62810719,5ccab088f2532b0001b88aca,64d2fd46c836a06233681665,64dc7c041f8143bba27f3752,,,,,,,decisionTrl,resources/DG.BMP,resources/DY.BMP,Door3,0.323287671,-0.01369863,1,0,0,1.0172,optionRight,70,13245,6,22,0,22,0,1,,,,,,,,,,,,,,,,,,,,,,,,,,,,,,,,,,,,,,,
,,,,,,,,2023-08-16_08h35.35.729,HF_wild_card,2022.2.4,Win32,60.62810719,5ccab088f2532b0001b88aca,64d2fd46c836a06233681665,64dc7c041f8143bba27f3752,,,,,,,sngl,resources/DB.BMP,resources/Empty.png,Door2,-0.297260274,-0.005479452,1,0,0,0.5471,optionLeft,20,13265,6,23,0,23,0,1,,,,,,,,,,,,,,,,,,,,,,,,,,,,,,,,,,,,,,,
,,,,,,,,2023-08-16_08h35.35.729,HF_wild_card,2022.2.4,Win32,60.62810719,5ccab088f2532b0001b88aca,64d2fd46c836a06233681665,64dc7c041f8143bba27f3752,,,,,,,decisionTrl,resources/DR.BMP,resources/DBN.BMP,WildCard_Ex,-0.376712329,0.005479452,1,0,0,0.7996,optionLeft,5,13270,6,24,0,24,0,1,,,,,,,,,,,,,,,,,,,,,,,,,,,,,,,,,,,,,,,
,,,,,,,,2023-08-16_08h35.35.729,HF_wild_card,2022.2.4,Win32,60.62810719,5ccab088f2532b0001b88aca,64d2fd46c836a06233681665,64dc7c041f8143bba27f3752,,,,,,,sngl,resources/DR.BMP,resources/Empty.png,WildCard_Ex,-0.319178082,-0.005479452,1,0,0,0.6672,optionLeft,95,13365,6,25,0,25,0,1,,,,,,,,,,,,,,,,,,,,,,,,,,,,,,,,,,,,,,,
,,,,,,,,2023-08-16_08h35.35.729,HF_wild_card,2022.2.4,Win32,60.62810719,5ccab088f2532b0001b88aca,64d2fd46c836a06233681665,64dc7c041f8143bba27f3752,,,,,,,decisionTrl,resources/DY.BMP,resources/DG.BMP,Door3,-0.389041096,0,1,0,0,1.116,optionLeft,70,13435,6,26,0,26,0,1,,,,,,,,,,,,,,,,,,,,,,,,,,,,,,,,,,,,,,,
,,,,,,,,2023-08-16_08h35.35.729,HF_wild_card,2022.2.4,Win32,60.62810719,5ccab088f2532b0001b88aca,64d2fd46c836a06233681665,64dc7c041f8143bba27f3752,,,,,,,decisionTrl,resources/DBN.BMP,resources/DB.BMP,Door2,0.309589041,0.034246575,1,0,0,3.7399,optionRight,20,13455,6,27,0,27,0,1,,,,,,,,,,,,,,,,,,,,,,,,,,,,,,,,,,,,,,,
,,,,,,,,2023-08-16_08h35.35.729,HF_wild_card,2022.2.4,Win32,60.62810719,5ccab088f2532b0001b88aca,64d2fd46c836a06233681665,64dc7c041f8143bba27f3752,,,,,,,sngl,resources/Empty.png,resources/DBN.BMP,Door1,0.415068493,0.064383562,1,0,0,0.8755,optionRight,30,13485,6,28,0,28,0,1,,,,,,,,,,,,,,,,,,,,,,,,,,,,,,,,,,,,,,,
,,,,,,,,2023-08-16_08h35.35.729,HF_wild_card,2022.2.4,Win32,60.62810719,5ccab088f2532b0001b88aca,64d2fd46c836a06233681665,64dc7c041f8143bba27f3752,,,,,,,sngl,resources/Empty.png,resources/DB.BMP,Door2,0.424657534,0.006849315,1,0,0,0.4834,optionRight,40,13525,6,29,0,29,0,1,,,,,,,,,,,,,,,,,,,,,,,,,,,,,,,,,,,,,,,
,,,,,,,,2023-08-16_08h35.35.729,HF_wild_card,2022.2.4,Win32,60.62810719,5ccab088f2532b0001b88aca,64d2fd46c836a06233681665,64dc7c041f8143bba27f3752,,,,,,,decisionTrl,resources/DG.BMP,resources/DR.BMP,Door4,-0.480821918,0.036986301,1,0,0,0.7444,optionLeft,80,13605,6,30,0,30,0,1,,,,,,,,,,,,,,,,,,,,,,,,,,,,,,,,,,,,,,,
,,,,,,,,2023-08-16_08h35.35.729,HF_wild_card,2022.2.4,Win32,60.62810719,5ccab088f2532b0001b88aca,64d2fd46c836a06233681665,64dc7c041f8143bba27f3752,,,,,,,decisionTrl,resources/DR.BMP,resources/DB.BMP,WildCard_Ex,-0.398630137,-0.002739726,1,0,0,1.1168,optionLeft,95,13700,6,31,0,31,0,1,,,,,,,,,,,,,,,,,,,,,,,,,,,,,,,,,,,,,,,
,,,,,,,,2023-08-16_08h35.35.729,HF_wild_card,2022.2.4,Win32,60.62810719,5ccab088f2532b0001b88aca,64d2fd46c836a06233681665,64dc7c041f8143bba27f3752,,,,,,,decisionTrl,resources/DBN.BMP,resources/DR.BMP,Door1,-0.382191781,0.026027397,1,0,0,1.4015,optionLeft,30,13730,6,32,0,32,0,1,,,,,,,,,,,,,,,,,,,,,,,,,,,,,,,,,,,,,,,
,,,,,,,,2023-08-16_08h35.35.729,HF_wild_card,2022.2.4,Win32,60.62810719,5ccab088f2532b0001b88aca,64d2fd46c836a06233681665,64dc7c041f8143bba27f3752,,,,,,,decisionTrl,resources/DR.BMP,resources/DG.BMP,Door4,0.397260274,0.005479452,1,0,0,1.6833,optionRight,60,13790,6,33,0,33,0,1,,,,,,,,,,,,,,,,,,,,,,,,,,,,,,,,,,,,,,,
,,,,,,,,2023-08-16_08h35.35.729,HF_wild_card,2022.2.4,Win32,60.62810719,5ccab088f2532b0001b88aca,64d2fd46c836a06233681665,64dc7c041f8143bba27f3752,,,,,,,ctch,resources/DB.BMP,resources/DY.BMP,Door3,0.276712329,-0.004109589,1,0,0,0.7475,optionRight,70,13860,6,34,0,34,0,1,,,,,,,,,,,,,,,,,,,,,,,,,,,,,,,,,,,,,,,
,,,,,,,,2023-08-16_08h35.35.729,HF_wild_card,2022.2.4,Win32,60.62810719,5ccab088f2532b0001b88aca,64d2fd46c836a06233681665,64dc7c041f8143bba27f3752,,,,,,,decisionTrl,resources/DB.BMP,resources/DBN.BMP,Door2,-0.284931507,0.021917808,1,0,0,1.9029,optionLeft,40,13900,6,35,0,35,0,1,,,,,,,,,,,,,,,,,,,,,,,,,,,,,,,,,,,,,,,
,,,,,,,,2023-08-16_08h35.35.729,HF_wild_card,2022.2.4,Win32,60.62810719,5ccab088f2532b0001b88aca,64d2fd46c836a06233681665,64dc7c041f8143bba27f3752,,,,,,,decisionTrl,resources/DY.BMP,resources/DG.BMP,Door3,-0.291780822,0.023287671,1,0,0,0.8204,optionLeft,70,13970,6,36,0,36,0,1,,,,,,,,,,,,,,,,,,,,,,,,,,,,,,,,,,,,,,,
,,,,,,,,2023-08-16_08h35.35.729,HF_wild_card,2022.2.4,Win32,60.62810719,5ccab088f2532b0001b88aca,64d2fd46c836a06233681665,64dc7c041f8143bba27f3752,,,,,,,sngl,resources/DY.BMP,resources/Empty.png,Door3,-0.397260274,0.024657534,1,0,0,0.7066,optionLeft,70,14040,6,37,0,37,0,1,,,,,,,,,,,,,,,,,,,,,,,,,,,,,,,,,,,,,,,
,,,,,,,,2023-08-16_08h35.35.729,HF_wild_card,2022.2.4,Win32,60.62810719,5ccab088f2532b0001b88aca,64d2fd46c836a06233681665,64dc7c041f8143bba27f3752,,,,,,,ctch,resources/DY.BMP,resources/DB.BMP,Door3,-0.375342466,0.008219178,1,0,0,1.0188,optionLeft,70,14110,6,38,0,38,0,1,,,,,,,,,,,,,,,,,,,,,,,,,,,,,,,,,,,,,,,
,,,,,,,,2023-08-16_08h35.35.729,HF_wild_card,2022.2.4,Win32,60.62810719,5ccab088f2532b0001b88aca,64d2fd46c836a06233681665,64dc7c041f8143bba27f3752,,,,,,,decisionTrl,resources/DG.BMP,resources/DY.BMP,Door3,0.349315068,-0.167123288,1,0,0,4.4567,optionRight,70,14180,6,39,0,39,0,1,,,,,,,,,,,,,,,,,,,,,,,,,,,,,,,,,,,,,,,
,,,,,,,,2023-08-16_08h35.35.729,HF_wild_card,2022.2.4,Win32,60.62810719,5ccab088f2532b0001b88aca,64d2fd46c836a06233681665,64dc7c041f8143bba27f3752,,,,,,,sngl,resources/DBN.BMP,resources/Empty.png,Door1,-0.376712329,0.019178082,1,0,0,0.5597,optionLeft,30,14210,6,40,0,40,0,1,,,,,,,,,,,,,,,,,,,,,,,,,,,,,,,,,,,,,,,
,,,,,,,,2023-08-16_08h35.35.729,HF_wild_card,2022.2.4,Win32,60.62810719,5ccab088f2532b0001b88aca,64d2fd46c836a06233681665,64dc7c041f8143bba27f3752,,,,,,,ctch,resources/DG.BMP,resources/DBN.BMP,Door4,-0.449315068,0.019178082,1,0,0,0.7505,optionLeft,80,14290,6,41,0,41,0,1,,,,,,,,,,,,,,,,,,,,,,,,,,,,,,,,,,,,,,,
,,,,,,,,2023-08-16_08h35.35.729,HF_wild_card,2022.2.4,Win32,60.62810719,5ccab088f2532b0001b88aca,64d2fd46c836a06233681665,64dc7c041f8143bba27f3752,,,,,,,decisionTrl,resources/DBN.BMP,resources/DB.BMP,Door2,0.383561644,0.012328767,1,0,0,1.1834,optionRight,40,14330,6,42,0,42,0,1,,,,,,,,,,,,,,,,,,,,,,,,,,,,,,,,,,,,,,,
,,,,,,,,2023-08-16_08h35.35.729,HF_wild_card,2022.2.4,Win32,60.62810719,5ccab088f2532b0001b88aca,64d2fd46c836a06233681665,64dc7c041f8143bba27f3752,,,,,,,decisionTrl,resources/DG.BMP,resources/DY.BMP,Door3,0.406849315,0.001369863,1,0,0,1.5281,optionRight,70,14400,6,43,0,43,0,1,,,,,,,,,,,,,,,,,,,,,,,,,,,,,,,,,,,,,,,
,,,,,,,,2023-08-16_08h35.35.729,HF_wild_card,2022.2.4,Win32,60.62810719,5ccab088f2532b0001b88aca,64d2fd46c836a06233681665,64dc7c041f8143bba27f3752,,,,,,,,,,,,,,,,,,,,,,,,,,5,0,5,0,1,,,,,,,,,,,,,,,,,,,,,,,,,,,,,,,,,,
,,,,,,,,2023-08-16_08h35.35.729,HF_wild_card,2022.2.4,Win32,60.62810719,5ccab088f2532b0001b88aca,64d2fd46c836a06233681665,64dc7c041f8143bba27f3752,,,,,,,ctch,resources/DY.BMP,resources/DB.BMP,Door3,-0.326027397,0.043835616,1,0,0,0.8559,optionLeft,70,14470,7,0,0,0,0,1,,,,,,,,,,,,,,,,,,,,,,,,,,,,,,,,,,,,,,,
,,,,,,,,2023-08-16_08h35.35.729,HF_wild_card,2022.2.4,Win32,60.62810719,5ccab088f2532b0001b88aca,64d2fd46c836a06233681665,64dc7c041f8143bba27f3752,,,,,,,decisionTrl,resources/DBN.BMP,resources/DB.BMP,Door2,0.395890411,0.034246575,1,0,0,1.7016,optionRight,40,14510,7,1,0,1,0,1,,,,,,,,,,,,,,,,,,,,,,,,,,,,,,,,,,,,,,,
,,,,,,,,2023-08-16_08h35.35.729,HF_wild_card,2022.2.4,Win32,60.62810719,5ccab088f2532b0001b88aca,64d2fd46c836a06233681665,64dc7c041f8143bba27f3752,,,,,,,decisionTrl,resources/DY.BMP,resources/DG.BMP,Door3,-0.412328767,-0.010958904,1,0,0,1.1669,optionLeft,70,14580,7,2,0,2,0,1,,,,,,,,,,,,,,,,,,,,,,,,,,,,,,,,,,,,,,,
,,,,,,,,2023-08-16_08h35.35.729,HF_wild_card,2022.2.4,Win32,60.62810719,5ccab088f2532b0001b88aca,64d2fd46c836a06233681665,64dc7c041f8143bba27f3752,,,,,,,decisionTrl,resources/DY.BMP,resources/DG.BMP,Door3,-0.334246575,0.009589041,1,0,0,0.7174,optionLeft,70,14650,7,3,0,3,0,1,,,,,,,,,,,,,,,,,,,,,,,,,,,,,,,,,,,,,,,
,,,,,,,,2023-08-16_08h35.35.729,HF_wild_card,2022.2.4,Win32,60.62810719,5ccab088f2532b0001b88aca,64d2fd46c836a06233681665,64dc7c041f8143bba27f3752,,,,,,,decisionTrl,resources/DB.BMP,resources/DBN.BMP,Door2,-0.431506849,-0.038356164,1,0,0,1.1873,optionLeft,40,14690,7,4,0,4,0,1,,,,,,,,,,,,,,,,,,,,,,,,,,,,,,,,,,,,,,,
,,,,,,,,2023-08-16_08h35.35.729,HF_wild_card,2022.2.4,Win32,60.62810719,5ccab088f2532b0001b88aca,64d2fd46c836a06233681665,64dc7c041f8143bba27f3752,,,,,,,decisionTrl,resources/DG.BMP,resources/DY.BMP,Door3,0.412328767,-0.097260274,1,0,0,0.9202,optionRight,70,14760,7,5,0,5,0,1,,,,,,,,,,,,,,,,,,,,,,,,,,,,,,,,,,,,,,,
,,,,,,,,2023-08-16_08h35.35.729,HF_wild_card,2022.2.4,Win32,60.62810719,5ccab088f2532b0001b88aca,64d2fd46c836a06233681665,64dc7c041f8143bba27f3752,,,,,,,decisionTrl,resources/DBN.BMP,resources/DB.BMP,Door2,0.393150685,-0.019178082,1,0,0,0.9507,optionRight,20,14780,7,6,0,6,0,1,,,,,,,,,,,,,,,,,,,,,,,,,,,,,,,,,,,,,,,
,,,,,,,,2023-08-16_08h35.35.729,HF_wild_card,2022.2.4,Win32,60.62810719,5ccab088f2532b0001b88aca,64d2fd46c836a06233681665,64dc7c041f8143bba27f3752,,,,,,,decisionTrl,resources/DG.BMP,resources/DY.BMP,Door3,0.380821918,-0.068493151,1,0,0,0.8009,optionRight,70,14850,7,7,0,7,0,1,,,,,,,,,,,,,,,,,,,,,,,,,,,,,,,,,,,,,,,
,,,,,,,,2023-08-16_08h35.35.729,HF_wild_card,2022.2.4,Win32,60.62810719,5ccab088f2532b0001b88aca,64d2fd46c836a06233681665,64dc7c041f8143bba27f3752,,,,,,,ctch,resources/DB.BMP,resources/DY.BMP,Door3,0.317808219,-0.047945205,1,0,0,0.9014,optionRight,70,14920,7,8,0,8,0,1,,,,,,,,,,,,,,,,,,,,,,,,,,,,,,,,,,,,,,,
,,,,,,,,2023-08-16_08h35.35.729,HF_wild_card,2022.2.4,Win32,60.62810719,5ccab088f2532b0001b88aca,64d2fd46c836a06233681665,64dc7c041f8143bba27f3752,,,,,,,decisionTrl,resources/DG.BMP,resources/DY.BMP,Door3,0.457534247,-0.079452055,1,0,0,0.8001,optionRight,70,14990,7,9,0,9,0,1,,,,,,,,,,,,,,,,,,,,,,,,,,,,,,,,,,,,,,,
,,,,,,,,2023-08-16_08h35.35.729,HF_wild_card,2022.2.4,Win32,60.62810719,5ccab088f2532b0001b88aca,64d2fd46c836a06233681665,64dc7c041f8143bba27f3752,,,,,,,decisionTrl,resources/DG.BMP,resources/DY.BMP,Door3,0.387671233,-0.067123288,1,0,0,0.8173,optionRight,70,15060,7,10,0,10,0,1,,,,,,,,,,,,,,,,,,,,,,,,,,,,,,,,,,,,,,,
,,,,,,,,2023-08-16_08h35.35.729,HF_wild_card,2022.2.4,Win32,60.62810719,5ccab088f2532b0001b88aca,64d2fd46c836a06233681665,64dc7c041f8143bba27f3752,,,,,,,decisionTrl,resources/DG.BMP,resources/DY.BMP,Door3,0.450684932,-0.075342466,1,0,0,0.6695,optionRight,70,15130,7,11,0,11,0,1,,,,,,,,,,,,,,,,,,,,,,,,,,,,,,,,,,,,,,,
,,,,,,,,2023-08-16_08h35.35.729,HF_wild_card,2022.2.4,Win32,60.62810719,5ccab088f2532b0001b88aca,64d2fd46c836a06233681665,64dc7c041f8143bba27f3752,,,,,,,decisionTrl,resources/DB.BMP,resources/DBN.BMP,Door2,-0.365753425,-0.064383562,1,0,0,1.0661,optionLeft,40,15170,7,12,0,12,0,1,,,,,,,,,,,,,,,,,,,,,,,,,,,,,,,,,,,,,,,
,,,,,,,,2023-08-16_08h35.35.729,HF_wild_card,2022.2.4,Win32,60.62810719,5ccab088f2532b0001b88aca,64d2fd46c836a06233681665,64dc7c041f8143bba27f3752,,,,,,,decisionTrl,resources/DG.BMP,resources/DY.BMP,Door3,0.393150685,0.005479452,1,0,0,0.721,optionRight,70,15240,7,13,0,13,0,1,,,,,,,,,,,,,,,,,,,,,,,,,,,,,,,,,,,,,,,
,,,,,,,,2023-08-16_08h35.35.729,HF_wild_card,2022.2.4,Win32,60.62810719,5ccab088f2532b0001b88aca,64d2fd46c836a06233681665,64dc7c041f8143bba27f3752,,,,,,,ctch,resources/DBN.BMP,resources/DG.BMP,Door4,0.37260274,0.019178082,1,0,0,1.8046,optionRight,80,15320,7,14,0,14,0,1,,,,,,,,,,,,,,,,,,,,,,,,,,,,,,,,,,,,,,,
,,,,,,,,2023-08-16_08h35.35.729,HF_wild_card,2022.2.4,Win32,60.62810719,5ccab088f2532b0001b88aca,64d2fd46c836a06233681665,64dc7c041f8143bba27f3752,,,,,,,ctch,resources/DG.BMP,resources/DBN.BMP,Door4,-0.293150685,-0.019178082,1,0,0,0.6832,optionLeft,60,15380,7,15,0,15,0,1,,,,,,,,,,,,,,,,,,,,,,,,,,,,,,,,,,,,,,,
,,,,,,,,2023-08-16_08h35.35.729,HF_wild_card,2022.2.4,Win32,60.62810719,5ccab088f2532b0001b88aca,64d2fd46c836a06233681665,64dc7c041f8143bba27f3752,,,,,,,decisionTrl,resources/DB.BMP,resources/DBN.BMP,Door2,-0.373972603,-0.010958904,1,0,0,1.169,optionLeft,40,15420,7,16,0,16,0,1,,,,,,,,,,,,,,,,,,,,,,,,,,,,,,,,,,,,,,,
,,,,,,,,2023-08-16_08h35.35.729,HF_wild_card,2022.2.4,Win32,60.62810719,5ccab088f2532b0001b88aca,64d2fd46c836a06233681665,64dc7c041f8143bba27f3752,,,,,,,decisionTrl,resources/DB.BMP,resources/DBN.BMP,Door2,-0.360273973,-0.050684932,1,0,0,0.8484,optionLeft,20,15440,7,17,0,17,0,1,,,,,,,,,,,,,,,,,,,,,,,,,,,,,,,,,,,,,,,
,,,,,,,,2023-08-16_08h35.35.729,HF_wild_card,2022.2.4,Win32,60.62810719,5ccab088f2532b0001b88aca,64d2fd46c836a06233681665,64dc7c041f8143bba27f3752,,,,,,,decisionTrl,resources/DBN.BMP,resources/DB.BMP,Door2,0.463013699,-0.049315068,1,0,0,0.7979,optionRight,40,15480,7,18,0,18,0,1,,,,,,,,,,,,,,,,,,,,,,,,,,,,,,,,,,,,,,,
,,,,,,,,2023-08-16_08h35.35.729,HF_wild_card,2022.2.4,Win32,60.62810719,5ccab088f2532b0001b88aca,64d2fd46c836a06233681665,64dc7c041f8143bba27f3752,,,,,,,decisionTrl,resources/DBN.BMP,resources/DB.BMP,Door2,0.343835616,-0.026027397,1,0,0,0.7001,optionRight,40,15520,7,19,0,19,0,1,,,,,,,,,,,,,,,,,,,,,,,,,,,,,,,,,,,,,,,
,,,,,,,,2023-08-16_08h35.35.729,HF_wild_card,2022.2.4,Win32,60.62810719,5ccab088f2532b0001b88aca,64d2fd46c836a06233681665,64dc7c041f8143bba27f3752,,,,,,,decisionTrl,resources/DY.BMP,resources/DG.BMP,Door3,-0.32739726,-0.080821918,1,0,0,0.8998,optionLeft,70,15590,7,20,0,20,0,1,,,,,,,,,,,,,,,,,,,,,,,,,,,,,,,,,,,,,,,
,,,,,,,,2023-08-16_08h35.35.729,HF_wild_card,2022.2.4,Win32,60.62810719,5ccab088f2532b0001b88aca,64d2fd46c836a06233681665,64dc7c041f8143bba27f3752,,,,,,,decisionTrl,resources/DY.BMP,resources/DG.BMP,Door3,-0.276712329,-0.035616438,1,0,0,0.6635,optionLeft,70,15660,7,21,0,21,0,1,,,,,,,,,,,,,,,,,,,,,,,,,,,,,,,,,,,,,,,
,,,,,,,,2023-08-16_08h35.35.729,HF_wild_card,2022.2.4,Win32,60.62810719,5ccab088f2532b0001b88aca,64d2fd46c836a06233681665,64dc7c041f8143bba27f3752,,,,,,,decisionTrl,resources/DBN.BMP,resources/DB.BMP,Door2,0.283561644,-0.004109589,1,0,0,0.801,optionRight,20,15680,7,22,0,22,0,1,,,,,,,,,,,,,,,,,,,,,,,,,,,,,,,,,,,,,,,
,,,,,,,,2023-08-16_08h35.35.729,HF_wild_card,2022.2.4,Win32,60.62810719,5ccab088f2532b0001b88aca,64d2fd46c836a06233681665,64dc7c041f8143bba27f3752,,,,,,,ctch,resources/DB.BMP,resources/DY.BMP,Door3,0.349315068,-0.010958904,1,0,0,0.8018,optionRight,70,15750,7,23,0,23,0,1,,,,,,,,,,,,,,,,,,,,,,,,,,,,,,,,,,,,,,,
,,,,,,,,2023-08-16_08h35.35.729,HF_wild_card,2022.2.4,Win32,60.62810719,5ccab088f2532b0001b88aca,64d2fd46c836a06233681665,64dc7c041f8143bba27f3752,,,,,,,ctch,resources/DBN.BMP,resources/DG.BMP,Door4,0.330136986,0.01369863,1,0,0,0.7328,optionRight,80,15830,7,24,0,24,0,1,,,,,,,,,,,,,,,,,,,,,,,,,,,,,,,,,,,,,,,
,,,,,,,,2023-08-16_08h35.35.729,HF_wild_card,2022.2.4,Win32,60.62810719,5ccab088f2532b0001b88aca,64d2fd46c836a06233681665,64dc7c041f8143bba27f3752,,,,,,,decisionTrl,resources/DY.BMP,resources/DG.BMP,Door3,-0.363013699,-0.019178082,1,0,0,0.8369,optionLeft,70,15900,7,25,0,25,0,1,,,,,,,,,,,,,,,,,,,,,,,,,,,,,,,,,,,,,,,
,,,,,,,,2023-08-16_08h35.35.729,HF_wild_card,2022.2.4,Win32,60.62810719,5ccab088f2532b0001b88aca,64d2fd46c836a06233681665,64dc7c041f8143bba27f3752,,,,,,,ctch,resources/DG.BMP,resources/DBN.BMP,Door4,-0.449315068,-0.028767123,1,0,0,0.832,optionLeft,80,15980,7,26,0,26,0,1,,,,,,,,,,,,,,,,,,,,,,,,,,,,,,,,,,,,,,,
,,,,,,,,2023-08-16_08h35.35.729,HF_wild_card,2022.2.4,Win32,60.62810719,5ccab088f2532b0001b88aca,64d2fd46c836a06233681665,64dc7c041f8143bba27f3752,,,,,,,ctch,resources/DB.BMP,resources/DY.BMP,Door3,0.378082192,-0.023287671,1,0,0,0.8325,optionRight,70,16050,7,27,0,27,0,1,,,,,,,,,,,,,,,,,,,,,,,,,,,,,,,,,,,,,,,
,,,,,,,,2023-08-16_08h35.35.729,HF_wild_card,2022.2.4,Win32,60.62810719,5ccab088f2532b0001b88aca,64d2fd46c836a06233681665,64dc7c041f8143bba27f3752,,,,,,,ctch,resources/DY.BMP,resources/DB.BMP,Door3,-0.447945205,-0.005479452,1,0,0,0.7343,optionLeft,70,16120,7,28,0,28,0,1,,,,,,,,,,,,,,,,,,,,,,,,,,,,,,,,,,,,,,,
,,,,,,,,2023-08-16_08h35.35.729,HF_wild_card,2022.2.4,Win32,60.62810719,5ccab088f2532b0001b88aca,64d2fd46c836a06233681665,64dc7c041f8143bba27f3752,,,,,,,decisionTrl,resources/DBN.BMP,resources/DB.BMP,Door2,0.408219178,-0.046575342,1,0,0,0.6996,optionRight,20,16140,7,29,0,29,0,1,,,,,,,,,,,,,,,,,,,,,,,,,,,,,,,,,,,,,,,
,,,,,,,,2023-08-16_08h35.35.729,HF_wild_card,2022.2.4,Win32,60.62810719,5ccab088f2532b0001b88aca,64d2fd46c836a06233681665,64dc7c041f8143bba27f3752,,,,,,,ctch,resources/DY.BMP,resources/DB.BMP,Door3,-0.482191781,-0.019178082,1,0,0,0.7208,optionLeft,70,16210,7,30,0,30,0,1,,,,,,,,,,,,,,,,,,,,,,,,,,,,,,,,,,,,,,,
,,,,,,,,2023-08-16_08h35.35.729,HF_wild_card,2022.2.4,Win32,60.62810719,5ccab088f2532b0001b88aca,64d2fd46c836a06233681665,64dc7c041f8143bba27f3752,,,,,,,decisionTrl,resources/DY.BMP,resources/DG.BMP,Door3,-0.356164384,-0.035616438,1,0,0,0.9213,optionLeft,70,16280,7,31,0,31,0,1,,,,,,,,,,,,,,,,,,,,,,,,,,,,,,,,,,,,,,,
,,,,,,,,2023-08-16_08h35.35.729,HF_wild_card,2022.2.4,Win32,60.62810719,5ccab088f2532b0001b88aca,64d2fd46c836a06233681665,64dc7c041f8143bba27f3752,,,,,,,decisionTrl,resources/DB.BMP,resources/DBN.BMP,Door2,-0.428767123,0.026027397,1,0,0,1.0347,optionLeft,20,16300,7,32,0,32,0,1,,,,,,,,,,,,,,,,,,,,,,,,,,,,,,,,,,,,,,,
,,,,,,,,2023-08-16_08h35.35.729,HF_wild_card,2022.2.4,Win32,60.62810719,5ccab088f2532b0001b88aca,64d2fd46c836a06233681665,64dc7c041f8143bba27f3752,,,,,,,ctch,resources/DBN.BMP,resources/DG.BMP,Door4,0.563013699,0.008219178,1,0,0,0.5477,optionRight,80,16380,7,33,0,33,0,1,,,,,,,,,,,,,,,,,,,,,,,,,,,,,,,,,,,,,,,
,,,,,,,,2023-08-16_08h35.35.729,HF_wild_card,2022.2.4,Win32,60.62810719,5ccab088f2532b0001b88aca,64d2fd46c836a06233681665,64dc7c041f8143bba27f3752,,,,,,,ctch,resources/DG.BMP,resources/DBN.BMP,Door4,-0.426027397,0.030136986,1,0,0,0.6921,optionLeft,80,16460,7,34,0,34,0,1,,,,,,,,,,,,,,,,,,,,,,,,,,,,,,,,,,,,,,,
,,,,,,,,2023-08-16_08h35.35.729,HF_wild_card,2022.2.4,Win32,60.62810719,5ccab088f2532b0001b88aca,64d2fd46c836a06233681665,64dc7c041f8143bba27f3752,,,,,,,decisionTrl,resources/DB.BMP,resources/DBN.BMP,Door2,-0.35890411,-0.020547945,1,0,0,0.6339,optionLeft,40,16500,7,35,0,35,0,1,,,,,,,,,,,,,,,,,,,,,,,,,,,,,,,,,,,,,,,
,,,,,,,,2023-08-16_08h35.35.729,HF_wild_card,2022.2.4,Win32,60.62810719,5ccab088f2532b0001b88aca,64d2fd46c836a06233681665,64dc7c041f8143bba27f3752,,,,,,,,,,,,,,,,,,,,,,,,,,6,0,6,0,1,,,,,,,,,,,,,,,,,,,,,,,,,,,,,,,,,,
,,,,,,,,2023-08-16_08h35.35.729,HF_wild_card,2022.2.4,Win32,60.62810719,5ccab088f2532b0001b88aca,64d2fd46c836a06233681665,64dc7c041f8143bba27f3752,,,,,,,,,,,,,,,,,,,,,,,,,,,,,,,4,,,,,,,,,,,,,,,,,,,,,,,,,,,,,,,,,
,,,,,,,,2023-08-16_08h35.35.729,HF_wild_card,2022.2.4,Win32,60.62810719,5ccab088f2532b0001b88aca,64d2fd46c836a06233681665,64dc7c041f8143bba27f3752,,,,,,,,,,,,,,,,,,,,,,,,,,,,,,,,,,,,,,,,,,,,,,,,,,,,,,,,,,,,,,,,
,,,,,,,,2023-08-16_08h35.35.729,HF_wild_card,2022.2.4,Win32,60.62810719,5ccab088f2532b0001b88aca,64d2fd46c836a06233681665,64dc7c041f8143bba27f3752,,,,,,,,,,,,,,,,,,,,,,,,,,,,,,,,30,Door1,resources/DBN.BMP,0,0,0,0,1,,,,,,,,,,,,,,,,,,,,,,,,,
,,,,,,,,2023-08-16_08h35.35.729,HF_wild_card,2022.2.4,Win32,60.62810719,5ccab088f2532b0001b88aca,64d2fd46c836a06233681665,64dc7c041f8143bba27f3752,,,,,,,,,,,,,,,,,,,,,,,,,,,,,,,,40,WC_nonExtreme,resources/DP.BMP,1,0,1,0,1,,,,,,,,,,,,,,,,,,,,,,,,,
,,,,,,,,2023-08-16_08h35.35.729,HF_wild_card,2022.2.4,Win32,60.62810719,5ccab088f2532b0001b88aca,64d2fd46c836a06233681665,64dc7c041f8143bba27f3752,,,,,,,,,,,,,,,,,,,,,,,,,,,,,,,,60,Door4,resources/DG.BMP,2,0,2,0,1,,,,,,,,,,,,,,,,,,,,,,,,,
,,,,,,,,2023-08-16_08h35.35.729,HF_wild_card,2022.2.4,Win32,60.62810719,5ccab088f2532b0001b88aca,64d2fd46c836a06233681665,64dc7c041f8143bba27f3752,,,,,,,,,,,,,,,,,,,,,,,,,,,,,,,,70,Door3,resources/DY.BMP,3,0,3,0,1,,,,,,,,,,,,,,,,,,,,,,,,,
,,,,,,,,2023-08-16_08h35.35.729,HF_wild_card,2022.2.4,Win32,60.62810719,5ccab088f2532b0001b88aca,64d2fd46c836a06233681665,64dc7c041f8143bba27f3752,,,,,,,,,,,,,,,,,,,,,,,,,,,,,,,,40,Door2,resources/DB.BMP,4,0,4,0,1,,,,,,,,,,,,,,,,,,,,,,,,,
,,,,,,,,2023-08-16_08h35.35.729,HF_wild_card,2022.2.4,Win32,60.62810719,5ccab088f2532b0001b88aca,64d2fd46c836a06233681665,64dc7c041f8143bba27f3752,,,,,,,,,,,,,,,,,,,,,,,,,,,,,,,,95,WC_extreme,resources/DR.BMP,5,0,5,0,1,,,,,,,,,,,,,,,,,,,,,,,,,
,,,,,,,,2023-08-16_08h35.35.729,HF_wild_card,2022.2.4,Win32,60.62810719,5ccab088f2532b0001b88aca,64d2fd46c836a06233681665,64dc7c041f8143bba27f3752,,,,,,,,,,,,,,,,,,,,,,,,,,,,,,,,,,,,,,,,,,,,,,,,,,,,,,,,,,,,,,,,
,,,,,,,,2023-08-16_08h35.35.729,HF_wild_card,2022.2.4,Win32,60.62810719,5ccab088f2532b0001b88aca,64d2fd46c836a06233681665,64dc7c041f8143bba27f3752,,,,,,,,,,,,,,,,,,,,,,,,,,,,,,,,,,,,,,,,0,0,0,0,1,,,,,,,,,,,,,,,,,,,,
