Condition,Low fixed image (Door1),Low risky image (Door2),High fixed image (Door3),High risky image (Door4),Extreme Wild Card,NonExtreme Wild Card,,date,expName,psychopyVersion,OS,frameRate,PROLIFIC_PID,STUDY_ID,SESSION_ID,mouse_2.x,mouse_2.y,mouse_2.leftButton,mouse_2.midButton,mouse_2.rightButton,mouse_2.clicked_name,Trial Type,Left Option Image,Right Option Image,Chosen Door,mouse.x,mouse.y,mouse.leftButton,mouse.midButton,mouse.rightButton,mouse.time,mouse.clicked_name,Feedback,Cumulative Reward,Block,trial.thisRepN,trial.thisTrialN,trial.thisN,trial.thisIndex,trial.ran,blocks.thisRepN,blocks.thisTrialN,blocks.thisN,blocks.thisIndex,blocks.ran,Money conversion,First Outcome Reported,Shown Door (First Outcome),Displayed Image (First Outcome),outcomes.thisRepN,outcomes.thisTrialN,outcomes.thisN,outcomes.thisIndex,outcomes.ran,judgments.thisRepN,judgments.thisTrialN,judgments.thisN,judgments.thisIndex,judgments.ran,freqMouse.x,freqMouse.y,freqMouse.leftButton,freqMouse.midButton,freqMouse.rightButton,freqMouse.clicked_name,trials.thisRepN,trials.thisTrialN,trials.thisN,trials.thisIndex,trials.ran,FQJ for first outcome,FQJ for second outcome,Shown Door,Displayed Image,judgBlock.thisRepN,judgBlock.thisTrialN,judgBlock.thisN,judgBlock.thisIndex,judgBlock.ran
1,resources/DR.BMP,resources/DY.BMP,resources/DB.BMP,resources/DP.BMP,resources/DBN.BMP,resources/DG.BMP,,2023-08-16_08h06.09.755,HF_wild_card,2022.2.4,Linux x86_64,60.0024001,5ee3be6ff942c407cd54e6ce,64d2fd46c836a06233681665,64dc7447d4ec9d8f39c4936c,,,,,,,,,,,,,,,,,,,,,,,,,,,,,,,,,,,,,,,,,,,,,,,,,,,,,,,,,,,,,,,,
,,,,,,,,2023-08-16_08h06.09.755,HF_wild_card,2022.2.4,Linux x86_64,60.0024001,5ee3be6ff942c407cd54e6ce,64d2fd46c836a06233681665,64dc7447d4ec9d8f39c4936c,0.009353567,-0.418501042,1,0,0,agree,,,,,,,,,,,,,,,,,,,,,,,,,,,,,,,,,,,,,,,,,,,,,,,,,,,,,,,,,,
,,,,,,,,2023-08-16_08h06.09.755,HF_wild_card,2022.2.4,Linux x86_64,60.0024001,5ee3be6ff942c407cd54e6ce,64d2fd46c836a06233681665,64dc7447d4ec9d8f39c4936c,,,,,,,,,,,,,,,,,,,,,,,,,,,,,,,,,,,,,,,,,,,,,,,,,,,,,,,,,,,,,,,,
,,,,,,,,2023-08-16_08h06.09.755,HF_wild_card,2022.2.4,Linux x86_64,60.0024001,5ee3be6ff942c407cd54e6ce,64d2fd46c836a06233681665,64dc7447d4ec9d8f39c4936c,,,,,,,decisionTrl,resources/DY.BMP,resources/DR.BMP,Door2,-0.38247557,-0.083616575,1,0,0,2.9074,optionLeft,40,40,1,0,0,0,0,1,,,,,,,,,,,,,,,,,,,,,,,,,,,,,,,,,,,,,,,
,,,,,,,,2023-08-16_08h06.09.755,HF_wild_card,2022.2.4,Linux x86_64,60.0024001,5ee3be6ff942c407cd54e6ce,64d2fd46c836a06233681665,64dc7447d4ec9d8f39c4936c,,,,,,,sngl,resources/DG.BMP,resources/Empty.png,WildCard_NonEx,-0.315300836,0.006513843,1,0,0,1.9653,optionLeft,55,95,1,1,0,1,0,1,,,,,,,,,,,,,,,,,,,,,,,,,,,,,,,,,,,,,,,
,,,,,,,,2023-08-16_08h06.09.755,HF_wild_card,2022.2.4,Linux x86_64,60.0024001,5ee3be6ff942c407cd54e6ce,64d2fd46c836a06233681665,64dc7447d4ec9d8f39c4936c,,,,,,,decisionTrl,resources/DR.BMP,resources/DY.BMP,Door2,0.394873866,-0.007269647,1,0,0,1.4444,optionRight,20,115,1,2,0,2,0,1,,,,,,,,,,,,,,,,,,,,,,,,,,,,,,,,,,,,,,,
,,,,,,,,2023-08-16_08h06.09.755,HF_wild_card,2022.2.4,Linux x86_64,60.0024001,5ee3be6ff942c407cd54e6ce,64d2fd46c836a06233681665,64dc7447d4ec9d8f39c4936c,,,,,,,sngl,resources/DB.BMP,resources/Empty.png,Door3,-0.463444392,-0.049770602,1,0,0,1.138,optionLeft,70,185,1,3,0,3,0,1,,,,,,,,,,,,,,,,,,,,,,,,,,,,,,,,,,,,,,,
,,,,,,,,2023-08-16_08h06.09.755,HF_wild_card,2022.2.4,Linux x86_64,60.0024001,5ee3be6ff942c407cd54e6ce,64d2fd46c836a06233681665,64dc7447d4ec9d8f39c4936c,,,,,,,decisionTrl,resources/DP.BMP,resources/DG.BMP,WildCard_NonEx,0.392726757,0.003564941,1,0,0,1.2747,optionRight,55,240,1,4,0,4,0,1,,,,,,,,,,,,,,,,,,,,,,,,,,,,,,,,,,,,,,,
,,,,,,,,2023-08-16_08h06.09.755,HF_wild_card,2022.2.4,Linux x86_64,60.0024001,5ee3be6ff942c407cd54e6ce,64d2fd46c836a06233681665,64dc7447d4ec9d8f39c4936c,,,,,,,sngl,resources/Empty.png,resources/DG.BMP,WildCard_NonEx,0.400092655,-0.034541483,1,0,0,1.2819,optionRight,45,285,1,5,0,5,0,1,,,,,,,,,,,,,,,,,,,,,,,,,,,,,,,,,,,,,,,
,,,,,,,,2023-08-16_08h06.09.755,HF_wild_card,2022.2.4,Linux x86_64,60.0024001,5ee3be6ff942c407cd54e6ce,64d2fd46c836a06233681665,64dc7447d4ec9d8f39c4936c,,,,,,,ctch,resources/DP.BMP,resources/DR.BMP,Door1,0.37897223,0.029344241,1,0,0,1.6839,optionRight,30,315,1,6,0,6,0,1,,,,,,,,,,,,,,,,,,,,,,,,,,,,,,,,,,,,,,,
,,,,,,,,2023-08-16_08h06.09.755,HF_wild_card,2022.2.4,Linux x86_64,60.0024001,5ee3be6ff942c407cd54e6ce,64d2fd46c836a06233681665,64dc7447d4ec9d8f39c4936c,,,,,,,ctch,resources/DR.BMP,resources/DP.BMP,Door1,-0.451223833,-0.025679482,1,0,0,1.2163,optionLeft,30,345,1,7,0,7,0,1,,,,,,,,,,,,,,,,,,,,,,,,,,,,,,,,,,,,,,,
,,,,,,,,2023-08-16_08h06.09.755,HF_wild_card,2022.2.4,Linux x86_64,60.0024001,5ee3be6ff942c407cd54e6ce,64d2fd46c836a06233681665,64dc7447d4ec9d8f39c4936c,,,,,,,decisionTrl,resources/DP.BMP,resources/DB.BMP,Door4,-0.316928334,-0.081029044,1,0,0,1.2956,optionLeft,80,425,1,8,0,8,0,1,,,,,,,,,,,,,,,,,,,,,,,,,,,,,,,,,,,,,,,
,,,,,,,,2023-08-16_08h06.09.755,HF_wild_card,2022.2.4,Linux x86_64,60.0024001,5ee3be6ff942c407cd54e6ce,64d2fd46c836a06233681665,64dc7447d4ec9d8f39c4936c,,,,,,,decisionTrl,resources/DB.BMP,resources/DP.BMP,Door4,0.389595456,0.020671915,1,0,0,1.3146,optionRight,80,505,1,9,0,9,0,1,,,,,,,,,,,,,,,,,,,,,,,,,,,,,,,,,,,,,,,
,,,,,,,,2023-08-16_08h06.09.755,HF_wild_card,2022.2.4,Linux x86_64,60.0024001,5ee3be6ff942c407cd54e6ce,64d2fd46c836a06233681665,64dc7447d4ec9d8f39c4936c,,,,,,,sngl,resources/DG.BMP,resources/Empty.png,WildCard_NonEx,-0.396622199,-0.014006403,1,0,0,1.4863,optionLeft,45,550,1,10,0,10,0,1,,,,,,,,,,,,,,,,,,,,,,,,,,,,,,,,,,,,,,,
,,,,,,,,2023-08-16_08h06.09.755,HF_wild_card,2022.2.4,Linux x86_64,60.0024001,5ee3be6ff942c407cd54e6ce,64d2fd46c836a06233681665,64dc7447d4ec9d8f39c4936c,,,,,,,decisionTrl,resources/DY.BMP,resources/DG.BMP,Door2,-0.404969886,0.01674811,1,0,0,2.3748,optionLeft,20,570,1,11,0,11,0,1,,,,,,,,,,,,,,,,,,,,,,,,,,,,,,,,,,,,,,,
,,,,,,,,2023-08-16_08h06.09.755,HF_wild_card,2022.2.4,Linux x86_64,60.0024001,5ee3be6ff942c407cd54e6ce,64d2fd46c836a06233681665,64dc7447d4ec9d8f39c4936c,,,,,,,sngl,resources/DR.BMP,resources/Empty.png,Door1,-0.429350394,-0.020747679,1,0,0,1.3121,optionLeft,30,600,1,12,0,12,0,1,,,,,,,,,,,,,,,,,,,,,,,,,,,,,,,,,,,,,,,
,,,,,,,,2023-08-16_08h06.09.755,HF_wild_card,2022.2.4,Linux x86_64,60.0024001,5ee3be6ff942c407cd54e6ce,64d2fd46c836a06233681665,64dc7447d4ec9d8f39c4936c,,,,,,,ctch,resources/DR.BMP,resources/DP.BMP,Door4,0.36002251,-0.029596223,1,0,0,1.5424,optionRight,60,660,1,13,0,13,0,1,,,,,,,,,,,,,,,,,,,,,,,,,,,,,,,,,,,,,,,
,,,,,,,,2023-08-16_08h06.09.755,HF_wild_card,2022.2.4,Linux x86_64,60.0024001,5ee3be6ff942c407cd54e6ce,64d2fd46c836a06233681665,64dc7447d4ec9d8f39c4936c,,,,,,,sngl,resources/Empty.png,resources/DP.BMP,Door4,0.420215607,-0.006711677,1,0,0,1.0536,optionRight,60,720,1,14,0,14,0,1,,,,,,,,,,,,,,,,,,,,,,,,,,,,,,,,,,,,,,,
,,,,,,,,2023-08-16_08h06.09.755,HF_wild_card,2022.2.4,Linux x86_64,60.0024001,5ee3be6ff942c407cd54e6ce,64d2fd46c836a06233681665,64dc7447d4ec9d8f39c4936c,,,,,,,decisionTrl,resources/DR.BMP,resources/DY.BMP,Door2,0.392942217,-0.002622604,1,0,0,2.6739,optionRight,40,760,1,15,0,15,0,1,,,,,,,,,,,,,,,,,,,,,,,,,,,,,,,,,,,,,,,
,,,,,,,,2023-08-16_08h06.09.755,HF_wild_card,2022.2.4,Linux x86_64,60.0024001,5ee3be6ff942c407cd54e6ce,64d2fd46c836a06233681665,64dc7447d4ec9d8f39c4936c,,,,,,,sngl,resources/DY.BMP,resources/Empty.png,Door2,-0.343236959,-0.022544755,1,0,0,1.2973,optionLeft,40,800,1,16,0,16,0,1,,,,,,,,,,,,,,,,,,,,,,,,,,,,,,,,,,,,,,,
,,,,,,,,2023-08-16_08h06.09.755,HF_wild_card,2022.2.4,Linux x86_64,60.0024001,5ee3be6ff942c407cd54e6ce,64d2fd46c836a06233681665,64dc7447d4ec9d8f39c4936c,,,,,,,decisionTrl,resources/DB.BMP,resources/DP.BMP,Door3,-0.32782484,-0.035196658,1,0,0,2.0287,optionLeft,70,870,1,17,0,17,0,1,,,,,,,,,,,,,,,,,,,,,,,,,,,,,,,,,,,,,,,
,,,,,,,,2023-08-16_08h06.09.755,HF_wild_card,2022.2.4,Linux x86_64,60.0024001,5ee3be6ff942c407cd54e6ce,64d2fd46c836a06233681665,64dc7447d4ec9d8f39c4936c,,,,,,,decisionTrl,resources/DY.BMP,resources/DR.BMP,Door2,-0.437552452,-0.032930975,1,0,0,1.551,optionLeft,40,910,1,18,0,18,0,1,,,,,,,,,,,,,,,,,,,,,,,,,,,,,,,,,,,,,,,
,,,,,,,,2023-08-16_08h06.09.755,HF_wild_card,2022.2.4,Linux x86_64,60.0024001,5ee3be6ff942c407cd54e6ce,64d2fd46c836a06233681665,64dc7447d4ec9d8f39c4936c,,,,,,,ctch,resources/DB.BMP,resources/DY.BMP,Door3,-0.393191408,-0.042486933,1,0,0,1.5262,optionLeft,70,980,1,19,0,19,0,1,,,,,,,,,,,,,,,,,,,,,,,,,,,,,,,,,,,,,,,
,,,,,,,,2023-08-16_08h06.09.755,HF_wild_card,2022.2.4,Linux x86_64,60.0024001,5ee3be6ff942c407cd54e6ce,64d2fd46c836a06233681665,64dc7447d4ec9d8f39c4936c,,,,,,,decisionTrl,resources/DG.BMP,resources/DB.BMP,Door3,0.386638359,-0.039176093,1,0,0,1.7716,optionRight,70,1050,1,20,0,20,0,1,,,,,,,,,,,,,,,,,,,,,,,,,,,,,,,,,,,,,,,
,,,,,,,,2023-08-16_08h06.09.755,HF_wild_card,2022.2.4,Linux x86_64,60.0024001,5ee3be6ff942c407cd54e6ce,64d2fd46c836a06233681665,64dc7447d4ec9d8f39c4936c,,,,,,,sngl,resources/Empty.png,resources/DR.BMP,Door1,0.400801906,-0.010775142,1,0,0,1.51,optionRight,30,1080,1,21,0,21,0,1,,,,,,,,,,,,,,,,,,,,,,,,,,,,,,,,,,,,,,,
,,,,,,,,2023-08-16_08h06.09.755,HF_wild_card,2022.2.4,Linux x86_64,60.0024001,5ee3be6ff942c407cd54e6ce,64d2fd46c836a06233681665,64dc7447d4ec9d8f39c4936c,,,,,,,decisionTrl,resources/DY.BMP,resources/DR.BMP,Door2,-0.376483953,-0.033708149,1,0,0,1.8065,optionLeft,40,1120,1,22,0,22,0,1,,,,,,,,,,,,,,,,,,,,,,,,,,,,,,,,,,,,,,,
,,,,,,,,2023-08-16_08h06.09.755,HF_wild_card,2022.2.4,Linux x86_64,60.0024001,5ee3be6ff942c407cd54e6ce,64d2fd46c836a06233681665,64dc7447d4ec9d8f39c4936c,,,,,,,decisionTrl,resources/DR.BMP,resources/DY.BMP,Door2,0.3939541,-0.043091103,1,0,0,1.8358,optionRight,20,1140,1,23,0,23,0,1,,,,,,,,,,,,,,,,,,,,,,,,,,,,,,,,,,,,,,,
,,,,,,,,2023-08-16_08h06.09.755,HF_wild_card,2022.2.4,Linux x86_64,60.0024001,5ee3be6ff942c407cd54e6ce,64d2fd46c836a06233681665,64dc7447d4ec9d8f39c4936c,,,,,,,decisionTrl,resources/DY.BMP,resources/DR.BMP,Door1,0.374705279,-0.070707639,1,0,0,1.678,optionRight,30,1170,1,24,0,24,0,1,,,,,,,,,,,,,,,,,,,,,,,,,,,,,,,,,,,,,,,
,,,,,,,,2023-08-16_08h06.09.755,HF_wild_card,2022.2.4,Linux x86_64,60.0024001,5ee3be6ff942c407cd54e6ce,64d2fd46c836a06233681665,64dc7447d4ec9d8f39c4936c,,,,,,,decisionTrl,resources/DG.BMP,resources/DR.BMP,WildCard_NonEx,-0.389842952,-0.0039948,1,0,0,1.5736,optionLeft,45,1215,1,25,0,25,0,1,,,,,,,,,,,,,,,,,,,,,,,,,,,,,,,,,,,,,,,
,,,,,,,,2023-08-16_08h06.09.755,HF_wild_card,2022.2.4,Linux x86_64,60.0024001,5ee3be6ff942c407cd54e6ce,64d2fd46c836a06233681665,64dc7447d4ec9d8f39c4936c,,,,,,,decisionTrl,resources/DB.BMP,resources/DP.BMP,Door3,-0.412312931,-0.072789899,1,0,0,2.1151,optionLeft,70,1285,1,26,0,26,0,1,,,,,,,,,,,,,,,,,,,,,,,,,,,,,,,,,,,,,,,
,,,,,,,,2023-08-16_08h06.09.755,HF_wild_card,2022.2.4,Linux x86_64,60.0024001,5ee3be6ff942c407cd54e6ce,64d2fd46c836a06233681665,64dc7447d4ec9d8f39c4936c,,,,,,,ctch,resources/DB.BMP,resources/DY.BMP,Door3,-0.426547333,-0.055841905,1,0,0,1.677,optionLeft,70,1355,1,27,0,27,0,1,,,,,,,,,,,,,,,,,,,,,,,,,,,,,,,,,,,,,,,
,,,,,,,,2023-08-16_08h06.09.755,HF_wild_card,2022.2.4,Linux x86_64,60.0024001,5ee3be6ff942c407cd54e6ce,64d2fd46c836a06233681665,64dc7447d4ec9d8f39c4936c,,,,,,,decisionTrl,resources/DG.BMP,resources/DP.BMP,Door4,0.412546228,0.003106859,1,0,0,2.3638,optionRight,80,1435,1,28,0,28,0,1,,,,,,,,,,,,,,,,,,,,,,,,,,,,,,,,,,,,,,,
,,,,,,,,2023-08-16_08h06.09.755,HF_wild_card,2022.2.4,Linux x86_64,60.0024001,5ee3be6ff942c407cd54e6ce,64d2fd46c836a06233681665,64dc7447d4ec9d8f39c4936c,,,,,,,sngl,resources/Empty.png,resources/DG.BMP,WildCard_NonEx,0.393855483,0.013250669,1,0,0,1.4128,optionRight,55,1490,1,29,0,29,0,1,,,,,,,,,,,,,,,,,,,,,,,,,,,,,,,,,,,,,,,
,,,,,,,,2023-08-16_08h06.09.755,HF_wild_card,2022.2.4,Linux x86_64,60.0024001,5ee3be6ff942c407cd54e6ce,64d2fd46c836a06233681665,64dc7447d4ec9d8f39c4936c,,,,,,,sngl,resources/DP.BMP,resources/Empty.png,Door4,-0.35585022,-0.035521966,1,0,0,1.1782,optionLeft,80,1570,1,30,0,30,0,1,,,,,,,,,,,,,,,,,,,,,,,,,,,,,,,,,,,,,,,
,,,,,,,,2023-08-16_08h06.09.755,HF_wild_card,2022.2.4,Linux x86_64,60.0024001,5ee3be6ff942c407cd54e6ce,64d2fd46c836a06233681665,64dc7447d4ec9d8f39c4936c,,,,,,,decisionTrl,resources/DP.BMP,resources/DB.BMP,Door4,-0.379160669,-0.008950657,1,0,0,2.1859,optionLeft,80,1650,1,31,0,31,0,1,,,,,,,,,,,,,,,,,,,,,,,,,,,,,,,,,,,,,,,
,,,,,,,,2023-08-16_08h06.09.755,HF_wild_card,2022.2.4,Linux x86_64,60.0024001,5ee3be6ff942c407cd54e6ce,64d2fd46c836a06233681665,64dc7447d4ec9d8f39c4936c,,,,,,,decisionTrl,resources/DB.BMP,resources/DG.BMP,Door3,-0.41712383,-0.03223504,1,0,0,2.1303,optionLeft,70,1720,1,32,0,32,0,1,,,,,,,,,,,,,,,,,,,,,,,,,,,,,,,,,,,,,,,
,,,,,,,,2023-08-16_08h06.09.755,HF_wild_card,2022.2.4,Linux x86_64,60.0024001,5ee3be6ff942c407cd54e6ce,64d2fd46c836a06233681665,64dc7447d4ec9d8f39c4936c,,,,,,,sngl,resources/Empty.png,resources/DB.BMP,Door3,0.37355423,-0.028806298,1,0,0,1.1423,optionRight,70,1790,1,33,0,33,0,1,,,,,,,,,,,,,,,,,,,,,,,,,,,,,,,,,,,,,,,
,,,,,,,,2023-08-16_08h06.09.755,HF_wild_card,2022.2.4,Linux x86_64,60.0024001,5ee3be6ff942c407cd54e6ce,64d2fd46c836a06233681665,64dc7447d4ec9d8f39c4936c,,,,,,,ctch,resources/DY.BMP,resources/DB.BMP,Door3,0.391262337,-0.027985997,1,0,0,1.5193,optionRight,70,1860,1,34,0,34,0,1,,,,,,,,,,,,,,,,,,,,,,,,,,,,,,,,,,,,,,,
,,,,,,,,2023-08-16_08h06.09.755,HF_wild_card,2022.2.4,Linux x86_64,60.0024001,5ee3be6ff942c407cd54e6ce,64d2fd46c836a06233681665,64dc7447d4ec9d8f39c4936c,,,,,,,sngl,resources/Empty.png,resources/DY.BMP,Door2,0.413482525,-0.03151166,1,0,0,1.0902,optionRight,20,1880,1,35,0,35,0,1,,,,,,,,,,,,,,,,,,,,,,,,,,,,,,,,,,,,,,,
,,,,,,,,2023-08-16_08h06.09.755,HF_wild_card,2022.2.4,Linux x86_64,60.0024001,5ee3be6ff942c407cd54e6ce,64d2fd46c836a06233681665,64dc7447d4ec9d8f39c4936c,,,,,,,ctch,resources/DY.BMP,resources/DB.BMP,Door3,0.396835751,-0.041732788,1,0,0,1.7938,optionRight,70,1950,1,36,0,36,0,1,,,,,,,,,,,,,,,,,,,,,,,,,,,,,,,,,,,,,,,
,,,,,,,,2023-08-16_08h06.09.755,HF_wild_card,2022.2.4,Linux x86_64,60.0024001,5ee3be6ff942c407cd54e6ce,64d2fd46c836a06233681665,64dc7447d4ec9d8f39c4936c,,,,,,,decisionTrl,resources/DR.BMP,resources/DG.BMP,WildCard_NonEx,0.399382697,0.033248018,1,0,0,1.5427,optionRight,55,2005,1,37,0,37,0,1,,,,,,,,,,,,,,,,,,,,,,,,,,,,,,,,,,,,,,,
,,,,,,,,2023-08-16_08h06.09.755,HF_wild_card,2022.2.4,Linux x86_64,60.0024001,5ee3be6ff942c407cd54e6ce,64d2fd46c836a06233681665,64dc7447d4ec9d8f39c4936c,,,,,,,decisionTrl,resources/DP.BMP,resources/DB.BMP,Door4,-0.347410343,-0.020666228,1,0,0,2.1753,optionLeft,80,2085,1,38,0,38,0,1,,,,,,,,,,,,,,,,,,,,,,,,,,,,,,,,,,,,,,,
,,,,,,,,2023-08-16_08h06.09.755,HF_wild_card,2022.2.4,Linux x86_64,60.0024001,5ee3be6ff942c407cd54e6ce,64d2fd46c836a06233681665,64dc7447d4ec9d8f39c4936c,,,,,,,decisionTrl,resources/DB.BMP,resources/DP.BMP,Door4,0.398837619,-0.033813194,1,0,0,1.8549,optionRight,80,2165,1,39,0,39,0,1,,,,,,,,,,,,,,,,,,,,,,,,,,,,,,,,,,,,,,,
,,,,,,,,2023-08-16_08h06.09.755,HF_wild_card,2022.2.4,Linux x86_64,60.0024001,5ee3be6ff942c407cd54e6ce,64d2fd46c836a06233681665,64dc7447d4ec9d8f39c4936c,,,,,,,decisionTrl,resources/DG.BMP,resources/DY.BMP,WildCard_NonEx,-0.402786184,-0.007408884,1,0,0,1.5393,optionLeft,55,2220,1,40,0,40,0,1,,,,,,,,,,,,,,,,,,,,,,,,,,,,,,,,,,,,,,,
,,,,,,,,2023-08-16_08h06.09.755,HF_wild_card,2022.2.4,Linux x86_64,60.0024001,5ee3be6ff942c407cd54e6ce,64d2fd46c836a06233681665,64dc7447d4ec9d8f39c4936c,,,,,,,ctch,resources/DP.BMP,resources/DR.BMP,Door4,-0.341541643,-0.03361868,1,0,0,1.4335,optionLeft,80,2300,1,41,0,41,0,1,,,,,,,,,,,,,,,,,,,,,,,,,,,,,,,,,,,,,,,
,,,,,,,,2023-08-16_08h06.09.755,HF_wild_card,2022.2.4,Linux x86_64,60.0024001,5ee3be6ff942c407cd54e6ce,64d2fd46c836a06233681665,64dc7447d4ec9d8f39c4936c,,,,,,,decisionTrl,resources/DR.BMP,resources/DY.BMP,Door1,-0.395278471,-0.005876612,1,0,0,1.4839,optionLeft,30,2330,1,42,0,42,0,1,,,,,,,,,,,,,,,,,,,,,,,,,,,,,,,,,,,,,,,
,,,,,,,,2023-08-16_08h06.09.755,HF_wild_card,2022.2.4,Linux x86_64,60.0024001,5ee3be6ff942c407cd54e6ce,64d2fd46c836a06233681665,64dc7447d4ec9d8f39c4936c,,,,,,,decisionTrl,resources/DP.BMP,resources/DB.BMP,Door4,-0.378169484,-0.003339096,1,0,0,2.0364,optionLeft,80,2410,1,43,0,43,0,1,,,,,,,,,,,,,,,,,,,,,,,,,,,,,,,,,,,,,,,
,,,,,,,,2023-08-16_08h06.09.755,HF_wild_card,2022.2.4,Linux x86_64,60.0024001,5ee3be6ff942c407cd54e6ce,64d2fd46c836a06233681665,64dc7447d4ec9d8f39c4936c,,,,,,,,,,,,,,,,,,,,,,,,,,0,0,0,0,1,,,,,,,,,,,,,,,,,,,,,,,,,,,,,,,,,,
,,,,,,,,2023-08-16_08h06.09.755,HF_wild_card,2022.2.4,Linux x86_64,60.0024001,5ee3be6ff942c407cd54e6ce,64d2fd46c836a06233681665,64dc7447d4ec9d8f39c4936c,,,,,,,decisionTrl,resources/DR.BMP,resources/DY.BMP,Door1,-0.398480945,0.002094128,1,0,0,2.1183,optionLeft,30,2440,2,0,0,0,0,1,,,,,,,,,,,,,,,,,,,,,,,,,,,,,,,,,,,,,,,
,,,,,,,,2023-08-16_08h06.09.755,HF_wild_card,2022.2.4,Linux x86_64,60.0024001,5ee3be6ff942c407cd54e6ce,64d2fd46c836a06233681665,64dc7447d4ec9d8f39c4936c,,,,,,,sngl,resources/Empty.png,resources/DB.BMP,Door3,0.375836266,-0.062769466,1,0,0,1.279,optionRight,70,2510,2,1,0,1,0,1,,,,,,,,,,,,,,,,,,,,,,,,,,,,,,,,,,,,,,,
,,,,,,,,2023-08-16_08h06.09.755,HF_wild_card,2022.2.4,Linux x86_64,60.0024001,5ee3be6ff942c407cd54e6ce,64d2fd46c836a06233681665,64dc7447d4ec9d8f39c4936c,,,,,,,decisionTrl,resources/DG.BMP,resources/DP.BMP,Door4,0.404265086,-0.052448237,1,0,0,1.4972,optionRight,60,2570,2,2,0,2,0,1,,,,,,,,,,,,,,,,,,,,,,,,,,,,,,,,,,,,,,,
,,,,,,,,2023-08-16_08h06.09.755,HF_wild_card,2022.2.4,Linux x86_64,60.0024001,5ee3be6ff942c407cd54e6ce,64d2fd46c836a06233681665,64dc7447d4ec9d8f39c4936c,,,,,,,sngl,resources/Empty.png,resources/DP.BMP,Door4,0.364682092,-0.02481344,1,0,0,1.2806,optionRight,80,2650,2,3,0,3,0,1,,,,,,,,,,,,,,,,,,,,,,,,,,,,,,,,,,,,,,,
,,,,,,,,2023-08-16_08h06.09.755,HF_wild_card,2022.2.4,Linux x86_64,60.0024001,5ee3be6ff942c407cd54e6ce,64d2fd46c836a06233681665,64dc7447d4ec9d8f39c4936c,,,,,,,decisionTrl,resources/DP.BMP,resources/DG.BMP,WildCard_NonEx,0.431733873,0.029505624,1,0,0,1.297,optionRight,55,2705,2,4,0,4,0,1,,,,,,,,,,,,,,,,,,,,,,,,,,,,,,,,,,,,,,,
,,,,,,,,2023-08-16_08h06.09.755,HF_wild_card,2022.2.4,Linux x86_64,60.0024001,5ee3be6ff942c407cd54e6ce,64d2fd46c836a06233681665,64dc7447d4ec9d8f39c4936c,,,,,,,decisionTrl,resources/DR.BMP,resources/DY.BMP,Door2,0.422068702,0.011027124,1,0,0,1.8619,optionRight,20,2725,2,5,0,5,0,1,,,,,,,,,,,,,,,,,,,,,,,,,,,,,,,,,,,,,,,
,,,,,,,,2023-08-16_08h06.09.755,HF_wild_card,2022.2.4,Linux x86_64,60.0024001,5ee3be6ff942c407cd54e6ce,64d2fd46c836a06233681665,64dc7447d4ec9d8f39c4936c,,,,,,,decisionTrl,resources/DG.BMP,resources/DB.BMP,Door3,0.378187957,-0.03183658,1,0,0,1.4968,optionRight,70,2795,2,6,0,6,0,1,,,,,,,,,,,,,,,,,,,,,,,,,,,,,,,,,,,,,,,
,,,,,,,,2023-08-16_08h06.09.755,HF_wild_card,2022.2.4,Linux x86_64,60.0024001,5ee3be6ff942c407cd54e6ce,64d2fd46c836a06233681665,64dc7447d4ec9d8f39c4936c,,,,,,,ctch,resources/DB.BMP,resources/DY.BMP,Door3,-0.403638239,-0.03468955,1,0,0,1.2848,optionLeft,70,2865,2,7,0,7,0,1,,,,,,,,,,,,,,,,,,,,,,,,,,,,,,,,,,,,,,,
,,,,,,,,2023-08-16_08h06.09.755,HF_wild_card,2022.2.4,Linux x86_64,60.0024001,5ee3be6ff942c407cd54e6ce,64d2fd46c836a06233681665,64dc7447d4ec9d8f39c4936c,,,,,,,sngl,resources/DG.BMP,resources/Empty.png,WildCard_NonEx,-0.388124537,-0.037918055,1,0,0,1.0481,optionLeft,55,2920,2,8,0,8,0,1,,,,,,,,,,,,,,,,,,,,,,,,,,,,,,,,,,,,,,,
,,,,,,,,2023-08-16_08h06.09.755,HF_wild_card,2022.2.4,Linux x86_64,60.0024001,5ee3be6ff942c407cd54e6ce,64d2fd46c836a06233681665,64dc7447d4ec9d8f39c4936c,,,,,,,decisionTrl,resources/DB.BMP,resources/DP.BMP,Door4,0.399866175,0.011558144,1,0,0,1.3017,optionRight,60,2980,2,9,0,9,0,1,,,,,,,,,,,,,,,,,,,,,,,,,,,,,,,,,,,,,,,
,,,,,,,,2023-08-16_08h06.09.755,HF_wild_card,2022.2.4,Linux x86_64,60.0024001,5ee3be6ff942c407cd54e6ce,64d2fd46c836a06233681665,64dc7447d4ec9d8f39c4936c,,,,,,,ctch,resources/DP.BMP,resources/DR.BMP,Door4,-0.361855118,-0.031433918,1,0,0,1.1457,optionLeft,60,3040,2,10,0,10,0,1,,,,,,,,,,,,,,,,,,,,,,,,,,,,,,,,,,,,,,,
,,,,,,,,2023-08-16_08h06.09.755,HF_wild_card,2022.2.4,Linux x86_64,60.0024001,5ee3be6ff942c407cd54e6ce,64d2fd46c836a06233681665,64dc7447d4ec9d8f39c4936c,,,,,,,ctch,resources/DB.BMP,resources/DY.BMP,Door3,-0.387159453,-0.021428709,1,0,0,1.3283,optionLeft,70,3110,2,11,0,11,0,1,,,,,,,,,,,,,,,,,,,,,,,,,,,,,,,,,,,,,,,
,,,,,,,,2023-08-16_08h06.09.755,HF_wild_card,2022.2.4,Linux x86_64,60.0024001,5ee3be6ff942c407cd54e6ce,64d2fd46c836a06233681665,64dc7447d4ec9d8f39c4936c,,,,,,,sngl,resources/Empty.png,resources/DG.BMP,WildCard_NonEx,0.365185632,-0.021776659,1,0,0,1.2136,optionRight,55,3165,2,12,0,12,0,1,,,,,,,,,,,,,,,,,,,,,,,,,,,,,,,,,,,,,,,
,,,,,,,,2023-08-16_08h06.09.755,HF_wild_card,2022.2.4,Linux x86_64,60.0024001,5ee3be6ff942c407cd54e6ce,64d2fd46c836a06233681665,64dc7447d4ec9d8f39c4936c,,,,,,,sngl,resources/DP.BMP,resources/Empty.png,Door4,-0.335989387,-0.024879844,1,0,0,1.1967,optionLeft,60,3225,2,13,0,13,0,1,,,,,,,,,,,,,,,,,,,,,,,,,,,,,,,,,,,,,,,
,,,,,,,,2023-08-16_08h06.09.755,HF_wild_card,2022.2.4,Linux x86_64,60.0024001,5ee3be6ff942c407cd54e6ce,64d2fd46c836a06233681665,64dc7447d4ec9d8f39c4936c,,,,,,,ctch,resources/DR.BMP,resources/DP.BMP,Door1,-0.382250079,-0.023495392,1,0,0,1.2958,optionLeft,30,3255,2,14,0,14,0,1,,,,,,,,,,,,,,,,,,,,,,,,,,,,,,,,,,,,,,,
,,,,,,,,2023-08-16_08h06.09.755,HF_wild_card,2022.2.4,Linux x86_64,60.0024001,5ee3be6ff942c407cd54e6ce,64d2fd46c836a06233681665,64dc7447d4ec9d8f39c4936c,,,,,,,decisionTrl,resources/DB.BMP,resources/DG.BMP,WildCard_NonEx,0.415570153,-0.015151024,1,0,0,1.3457,optionRight,55,3310,2,15,0,15,0,1,,,,,,,,,,,,,,,,,,,,,,,,,,,,,,,,,,,,,,,
,,,,,,,,2023-08-16_08h06.09.755,HF_wild_card,2022.2.4,Linux x86_64,60.0024001,5ee3be6ff942c407cd54e6ce,64d2fd46c836a06233681665,64dc7447d4ec9d8f39c4936c,,,,,,,sngl,resources/DR.BMP,resources/Empty.png,Door1,-0.404674707,-0.033975389,1,0,0,1.03,optionLeft,30,3340,2,16,0,16,0,1,,,,,,,,,,,,,,,,,,,,,,,,,,,,,,,,,,,,,,,
,,,,,,,,2023-08-16_08h06.09.755,HF_wild_card,2022.2.4,Linux x86_64,60.0024001,5ee3be6ff942c407cd54e6ce,64d2fd46c836a06233681665,64dc7447d4ec9d8f39c4936c,,,,,,,decisionTrl,resources/DY.BMP,resources/DR.BMP,Door1,0.372460542,-0.026290152,1,0,0,1.3965,optionRight,30,3370,2,17,0,17,0,1,,,,,,,,,,,,,,,,,,,,,,,,,,,,,,,,,,,,,,,
,,,,,,,,2023-08-16_08h06.09.755,HF_wild_card,2022.2.4,Linux x86_64,60.0024001,5ee3be6ff942c407cd54e6ce,64d2fd46c836a06233681665,64dc7447d4ec9d8f39c4936c,,,,,,,ctch,resources/DY.BMP,resources/DB.BMP,Door3,0.291268737,-0.028719655,1,0,0,1.6799,optionRight,70,3440,2,18,0,18,0,1,,,,,,,,,,,,,,,,,,,,,,,,,,,,,,,,,,,,,,,
,,,,,,,,2023-08-16_08h06.09.755,HF_wild_card,2022.2.4,Linux x86_64,60.0024001,5ee3be6ff942c407cd54e6ce,64d2fd46c836a06233681665,64dc7447d4ec9d8f39c4936c,,,,,,,decisionTrl,resources/DR.BMP,resources/DY.BMP,Door1,-0.379264302,-0.018367026,1,0,0,1.7304,optionLeft,30,3470,2,19,0,19,0,1,,,,,,,,,,,,,,,,,,,,,,,,,,,,,,,,,,,,,,,
,,,,,,,,2023-08-16_08h06.09.755,HF_wild_card,2022.2.4,Linux x86_64,60.0024001,5ee3be6ff942c407cd54e6ce,64d2fd46c836a06233681665,64dc7447d4ec9d8f39c4936c,,,,,,,decisionTrl,resources/DR.BMP,resources/DG.BMP,WildCard_NonEx,0.398174568,0.027761883,1,0,0,2.3133,optionRight,55,3525,2,20,0,20,0,1,,,,,,,,,,,,,,,,,,,,,,,,,,,,,,,,,,,,,,,
,,,,,,,,2023-08-16_08h06.09.755,HF_wild_card,2022.2.4,Linux x86_64,60.0024001,5ee3be6ff942c407cd54e6ce,64d2fd46c836a06233681665,64dc7447d4ec9d8f39c4936c,,,,,,,decisionTrl,resources/DR.BMP,resources/DY.BMP,Door1,-0.38350621,-0.028066459,1,0,0,1.6335,optionLeft,30,3555,2,21,0,21,0,1,,,,,,,,,,,,,,,,,,,,,,,,,,,,,,,,,,,,,,,
,,,,,,,,2023-08-16_08h06.09.755,HF_wild_card,2022.2.4,Linux x86_64,60.0024001,5ee3be6ff942c407cd54e6ce,64d2fd46c836a06233681665,64dc7447d4ec9d8f39c4936c,,,,,,,decisionTrl,resources/DY.BMP,resources/DG.BMP,WildCard_NonEx,0.398781105,0.020052309,1,0,0,1.4143,optionRight,45,3600,2,22,0,22,0,1,,,,,,,,,,,,,,,,,,,,,,,,,,,,,,,,,,,,,,,
,,,,,,,,2023-08-16_08h06.09.755,HF_wild_card,2022.2.4,Linux x86_64,60.0024001,5ee3be6ff942c407cd54e6ce,64d2fd46c836a06233681665,64dc7447d4ec9d8f39c4936c,,,,,,,sngl,resources/Empty.png,resources/DY.BMP,Door2,0.357819027,-0.035307248,1,0,0,1.3221,optionRight,40,3640,2,23,0,23,0,1,,,,,,,,,,,,,,,,,,,,,,,,,,,,,,,,,,,,,,,
,,,,,,,,2023-08-16_08h06.09.755,HF_wild_card,2022.2.4,Linux x86_64,60.0024001,5ee3be6ff942c407cd54e6ce,64d2fd46c836a06233681665,64dc7447d4ec9d8f39c4936c,,,,,,,decisionTrl,resources/DP.BMP,resources/DB.BMP,Door3,0.382188868,0.02546261,1,0,0,1.9141,optionRight,70,3710,2,24,0,24,0,1,,,,,,,,,,,,,,,,,,,,,,,,,,,,,,,,,,,,,,,
,,,,,,,,2023-08-16_08h06.09.755,HF_wild_card,2022.2.4,Linux x86_64,60.0024001,5ee3be6ff942c407cd54e6ce,64d2fd46c836a06233681665,64dc7447d4ec9d8f39c4936c,,,,,,,sngl,resources/DG.BMP,resources/Empty.png,WildCard_NonEx,-0.362360919,-0.021143419,1,0,0,1.0138,optionLeft,45,3755,2,25,0,25,0,1,,,,,,,,,,,,,,,,,,,,,,,,,,,,,,,,,,,,,,,
,,,,,,,,2023-08-16_08h06.09.755,HF_wild_card,2022.2.4,Linux x86_64,60.0024001,5ee3be6ff942c407cd54e6ce,64d2fd46c836a06233681665,64dc7447d4ec9d8f39c4936c,,,,,,,decisionTrl,resources/DP.BMP,resources/DB.BMP,Door3,0.402750651,-0.035325898,1,0,0,1.7265,optionRight,70,3825,2,26,0,26,0,1,,,,,,,,,,,,,,,,,,,,,,,,,,,,,,,,,,,,,,,
,,,,,,,,2023-08-16_08h06.09.755,HF_wild_card,2022.2.4,Linux x86_64,60.0024001,5ee3be6ff942c407cd54e6ce,64d2fd46c836a06233681665,64dc7447d4ec9d8f39c4936c,,,,,,,decisionTrl,resources/DB.BMP,resources/DP.BMP,Door3,-0.397127505,-0.017950058,1,0,0,1.2632,optionLeft,70,3895,2,27,0,27,0,1,,,,,,,,,,,,,,,,,,,,,,,,,,,,,,,,,,,,,,,
,,,,,,,,2023-08-16_08h06.09.755,HF_wild_card,2022.2.4,Linux x86_64,60.0024001,5ee3be6ff942c407cd54e6ce,64d2fd46c836a06233681665,64dc7447d4ec9d8f39c4936c,,,,,,,decisionTrl,resources/DB.BMP,resources/DP.BMP,Door3,-0.419970018,0.034094528,1,0,0,1.1599,optionLeft,70,3965,2,28,0,28,0,1,,,,,,,,,,,,,,,,,,,,,,,,,,,,,,,,,,,,,,,
,,,,,,,,2023-08-16_08h06.09.755,HF_wild_card,2022.2.4,Linux x86_64,60.0024001,5ee3be6ff942c407cd54e6ce,64d2fd46c836a06233681665,64dc7447d4ec9d8f39c4936c,,,,,,,sngl,resources/Empty.png,resources/DG.BMP,WildCard_NonEx,0.376212085,-0.022889773,1,0,0,1.0525,optionRight,45,4010,2,29,0,29,0,1,,,,,,,,,,,,,,,,,,,,,,,,,,,,,,,,,,,,,,,
,,,,,,,,2023-08-16_08h06.09.755,HF_wild_card,2022.2.4,Linux x86_64,60.0024001,5ee3be6ff942c407cd54e6ce,64d2fd46c836a06233681665,64dc7447d4ec9d8f39c4936c,,,,,,,decisionTrl,resources/DY.BMP,resources/DR.BMP,Door2,-0.403086238,-0.035694793,1,0,0,1.7707,optionLeft,40,4050,2,30,0,30,0,1,,,,,,,,,,,,,,,,,,,,,,,,,,,,,,,,,,,,,,,
,,,,,,,,2023-08-16_08h06.09.755,HF_wild_card,2022.2.4,Linux x86_64,60.0024001,5ee3be6ff942c407cd54e6ce,64d2fd46c836a06233681665,64dc7447d4ec9d8f39c4936c,,,,,,,decisionTrl,resources/DG.BMP,resources/DR.BMP,WildCard_NonEx,-0.358005948,-0.030143808,1,0,0,1.9968,optionLeft,55,4105,2,31,0,31,0,1,,,,,,,,,,,,,,,,,,,,,,,,,,,,,,,,,,,,,,,
,,,,,,,,2023-08-16_08h06.09.755,HF_wild_card,2022.2.4,Linux x86_64,60.0024001,5ee3be6ff942c407cd54e6ce,64d2fd46c836a06233681665,64dc7447d4ec9d8f39c4936c,,,,,,,decisionTrl,resources/DB.BMP,resources/DP.BMP,Door3,-0.403964325,-0.024090237,1,0,0,1.9871,optionLeft,70,4175,2,32,0,32,0,1,,,,,,,,,,,,,,,,,,,,,,,,,,,,,,,,,,,,,,,
,,,,,,,,2023-08-16_08h06.09.755,HF_wild_card,2022.2.4,Linux x86_64,60.0024001,5ee3be6ff942c407cd54e6ce,64d2fd46c836a06233681665,64dc7447d4ec9d8f39c4936c,,,,,,,decisionTrl,resources/DP.BMP,resources/DB.BMP,Door3,0.381687729,-0.016529331,1,0,0,1.6807,optionRight,70,4245,2,33,0,33,0,1,,,,,,,,,,,,,,,,,,,,,,,,,,,,,,,,,,,,,,,
,,,,,,,,2023-08-16_08h06.09.755,HF_wild_card,2022.2.4,Linux x86_64,60.0024001,5ee3be6ff942c407cd54e6ce,64d2fd46c836a06233681665,64dc7447d4ec9d8f39c4936c,,,,,,,sngl,resources/DB.BMP,resources/Empty.png,Door3,-0.379067598,-0.037115026,1,0,0,1.1197,optionLeft,70,4315,2,34,0,34,0,1,,,,,,,,,,,,,,,,,,,,,,,,,,,,,,,,,,,,,,,
,,,,,,,,2023-08-16_08h06.09.755,HF_wild_card,2022.2.4,Linux x86_64,60.0024001,5ee3be6ff942c407cd54e6ce,64d2fd46c836a06233681665,64dc7447d4ec9d8f39c4936c,,,,,,,sngl,resources/Empty.png,resources/DR.BMP,Door1,0.36469184,-0.024154169,1,0,0,1.0139,optionRight,30,4345,2,35,0,35,0,1,,,,,,,,,,,,,,,,,,,,,,,,,,,,,,,,,,,,,,,
,,,,,,,,2023-08-16_08h06.09.755,HF_wild_card,2022.2.4,Linux x86_64,60.0024001,5ee3be6ff942c407cd54e6ce,64d2fd46c836a06233681665,64dc7447d4ec9d8f39c4936c,,,,,,,decisionTrl,resources/DP.BMP,resources/DB.BMP,Door4,-0.396751969,-0.01474377,1,0,0,2.0383,optionLeft,80,4425,2,36,0,36,0,1,,,,,,,,,,,,,,,,,,,,,,,,,,,,,,,,,,,,,,,
,,,,,,,,2023-08-16_08h06.09.755,HF_wild_card,2022.2.4,Linux x86_64,60.0024001,5ee3be6ff942c407cd54e6ce,64d2fd46c836a06233681665,64dc7447d4ec9d8f39c4936c,,,,,,,ctch,resources/DY.BMP,resources/DB.BMP,Door3,0.348649625,-0.015106943,1,0,0,1.996,optionRight,70,4495,2,37,0,37,0,1,,,,,,,,,,,,,,,,,,,,,,,,,,,,,,,,,,,,,,,
,,,,,,,,2023-08-16_08h06.09.755,HF_wild_card,2022.2.4,Linux x86_64,60.0024001,5ee3be6ff942c407cd54e6ce,64d2fd46c836a06233681665,64dc7447d4ec9d8f39c4936c,,,,,,,decisionTrl,resources/DY.BMP,resources/DR.BMP,Door2,-0.440177105,-0.0276994,1,0,0,1.3307,optionLeft,20,4515,2,38,0,38,0,1,,,,,,,,,,,,,,,,,,,,,,,,,,,,,,,,,,,,,,,
,,,,,,,,2023-08-16_08h06.09.755,HF_wild_card,2022.2.4,Linux x86_64,60.0024001,5ee3be6ff942c407cd54e6ce,64d2fd46c836a06233681665,64dc7447d4ec9d8f39c4936c,,,,,,,decisionTrl,resources/DG.BMP,resources/DY.BMP,WildCard_NonEx,-0.329460603,-0.008674798,1,0,0,1.3945,optionLeft,45,4560,2,39,0,39,0,1,,,,,,,,,,,,,,,,,,,,,,,,,,,,,,,,,,,,,,,
,,,,,,,,2023-08-16_08h06.09.755,HF_wild_card,2022.2.4,Linux x86_64,60.0024001,5ee3be6ff942c407cd54e6ce,64d2fd46c836a06233681665,64dc7447d4ec9d8f39c4936c,,,,,,,sngl,resources/DY.BMP,resources/Empty.png,Door2,-0.438206143,-0.001977709,1,0,0,1.2137,optionLeft,20,4580,2,40,0,40,0,1,,,,,,,,,,,,,,,,,,,,,,,,,,,,,,,,,,,,,,,
,,,,,,,,2023-08-16_08h06.09.755,HF_wild_card,2022.2.4,Linux x86_64,60.0024001,5ee3be6ff942c407cd54e6ce,64d2fd46c836a06233681665,64dc7447d4ec9d8f39c4936c,,,,,,,ctch,resources/DP.BMP,resources/DR.BMP,Door4,-0.396595814,-0.060968823,1,0,0,1.5303,optionLeft,60,4640,2,41,0,41,0,1,,,,,,,,,,,,,,,,,,,,,,,,,,,,,,,,,,,,,,,
,,,,,,,,2023-08-16_08h06.09.755,HF_wild_card,2022.2.4,Linux x86_64,60.0024001,5ee3be6ff942c407cd54e6ce,64d2fd46c836a06233681665,64dc7447d4ec9d8f39c4936c,,,,,,,decisionTrl,resources/DY.BMP,resources/DR.BMP,Door2,-0.342943086,-0.02262557,1,0,0,1.8714,optionLeft,40,4680,2,42,0,42,0,1,,,,,,,,,,,,,,,,,,,,,,,,,,,,,,,,,,,,,,,
,,,,,,,,2023-08-16_08h06.09.755,HF_wild_card,2022.2.4,Linux x86_64,60.0024001,5ee3be6ff942c407cd54e6ce,64d2fd46c836a06233681665,64dc7447d4ec9d8f39c4936c,,,,,,,ctch,resources/DR.BMP,resources/DP.BMP,Door4,0.38260467,-0.079093898,1,0,0,1.3781,optionRight,60,4740,2,43,0,43,0,1,,,,,,,,,,,,,,,,,,,,,,,,,,,,,,,,,,,,,,,
,,,,,,,,2023-08-16_08h06.09.755,HF_wild_card,2022.2.4,Linux x86_64,60.0024001,5ee3be6ff942c407cd54e6ce,64d2fd46c836a06233681665,64dc7447d4ec9d8f39c4936c,,,,,,,,,,,,,,,,,,,,,,,,,,1,0,1,0,1,,,,,,,,,,,,,,,,,,,,,,,,,,,,,,,,,,
,,,,,,,,2023-08-16_08h06.09.755,HF_wild_card,2022.2.4,Linux x86_64,60.0024001,5ee3be6ff942c407cd54e6ce,64d2fd46c836a06233681665,64dc7447d4ec9d8f39c4936c,,,,,,,decisionTrl,resources/DB.BMP,resources/DP.BMP,Door3,-0.408770279,-0.040192286,1,0,0,2.0352,optionLeft,70,4810,3,0,0,0,0,1,,,,,,,,,,,,,,,,,,,,,,,,,,,,,,,,,,,,,,,
,,,,,,,,2023-08-16_08h06.09.755,HF_wild_card,2022.2.4,Linux x86_64,60.0024001,5ee3be6ff942c407cd54e6ce,64d2fd46c836a06233681665,64dc7447d4ec9d8f39c4936c,,,,,,,sngl,resources/Empty.png,resources/DY.BMP,Door2,0.438861282,0.002989875,1,0,0,1.408,optionRight,20,4830,3,1,0,1,0,1,,,,,,,,,,,,,,,,,,,,,,,,,,,,,,,,,,,,,,,
,,,,,,,,2023-08-16_08h06.09.755,HF_wild_card,2022.2.4,Linux x86_64,60.0024001,5ee3be6ff942c407cd54e6ce,64d2fd46c836a06233681665,64dc7447d4ec9d8f39c4936c,,,,,,,ctch,resources/DP.BMP,resources/DR.BMP,Door4,-0.38164983,-0.039127209,1,0,0,1.7453,optionLeft,80,4910,3,2,0,2,0,1,,,,,,,,,,,,,,,,,,,,,,,,,,,,,,,,,,,,,,,
,,,,,,,,2023-08-16_08h06.09.755,HF_wild_card,2022.2.4,Linux x86_64,60.0024001,5ee3be6ff942c407cd54e6ce,64d2fd46c836a06233681665,64dc7447d4ec9d8f39c4936c,,,,,,,ctch,resources/DR.BMP,resources/DP.BMP,Door4,0.364515516,-0.027564225,1,0,0,1.3544,optionRight,80,4990,3,3,0,3,0,1,,,,,,,,,,,,,,,,,,,,,,,,,,,,,,,,,,,,,,,
,,,,,,,,2023-08-16_08h06.09.755,HF_wild_card,2022.2.4,Linux x86_64,60.0024001,5ee3be6ff942c407cd54e6ce,64d2fd46c836a06233681665,64dc7447d4ec9d8f39c4936c,,,,,,,decisionTrl,resources/DY.BMP,resources/DR.BMP,Door2,-0.39578127,-0.004950029,1,0,0,1.6278,optionLeft,20,5010,3,4,0,4,0,1,,,,,,,,,,,,,,,,,,,,,,,,,,,,,,,,,,,,,,,
,,,,,,,,2023-08-16_08h06.09.755,HF_wild_card,2022.2.4,Linux x86_64,60.0024001,5ee3be6ff942c407cd54e6ce,64d2fd46c836a06233681665,64dc7447d4ec9d8f39c4936c,,,,,,,sngl,resources/Empty.png,resources/DP.BMP,Door4,0.39147045,-0.030895622,1,0,0,1.0625,optionRight,60,5070,3,5,0,5,0,1,,,,,,,,,,,,,,,,,,,,,,,,,,,,,,,,,,,,,,,
,,,,,,,,2023-08-16_08h06.09.755,HF_wild_card,2022.2.4,Linux x86_64,60.0024001,5ee3be6ff942c407cd54e6ce,64d2fd46c836a06233681665,64dc7447d4ec9d8f39c4936c,,,,,,,ctch,resources/DY.BMP,resources/DB.BMP,Door3,0.353579203,-0.023086159,1,0,0,1.41,optionRight,70,5140,3,6,0,6,0,1,,,,,,,,,,,,,,,,,,,,,,,,,,,,,,,,,,,,,,,
,,,,,,,,2023-08-16_08h06.09.755,HF_wild_card,2022.2.4,Linux x86_64,60.0024001,5ee3be6ff942c407cd54e6ce,64d2fd46c836a06233681665,64dc7447d4ec9d8f39c4936c,,,,,,,decisionTrl,resources/DB.BMP,resources/DP.BMP,Door3,-0.411139347,-0.004989341,1,0,0,1.4303,optionLeft,70,5210,3,7,0,7,0,1,,,,,,,,,,,,,,,,,,,,,,,,,,,,,,,,,,,,,,,
,,,,,,,,2023-08-16_08h06.09.755,HF_wild_card,2022.2.4,Linux x86_64,60.0024001,5ee3be6ff942c407cd54e6ce,64d2fd46c836a06233681665,64dc7447d4ec9d8f39c4936c,,,,,,,ctch,resources/DY.BMP,resources/DB.BMP,Door3,0.396761718,-0.009622715,1,0,0,1.126,optionRight,70,5280,3,8,0,8,0,1,,,,,,,,,,,,,,,,,,,,,,,,,,,,,,,,,,,,,,,
,,,,,,,,2023-08-16_08h06.09.755,HF_wild_card,2022.2.4,Linux x86_64,60.0024001,5ee3be6ff942c407cd54e6ce,64d2fd46c836a06233681665,64dc7447d4ec9d8f39c4936c,,,,,,,decisionTrl,resources/DB.BMP,resources/DG.BMP,Door3,-0.418507753,-0.048975309,1,0,0,1.4589,optionLeft,70,5350,3,9,0,9,0,1,,,,,,,,,,,,,,,,,,,,,,,,,,,,,,,,,,,,,,,
,,,,,,,,2023-08-16_08h06.09.755,HF_wild_card,2022.2.4,Linux x86_64,60.0024001,5ee3be6ff942c407cd54e6ce,64d2fd46c836a06233681665,64dc7447d4ec9d8f39c4936c,,,,,,,decisionTrl,resources/DG.BMP,resources/DR.BMP,WildCard_NonEx,-0.38574353,-0.01627311,1,0,0,1.3635,optionLeft,45,5395,3,10,0,10,0,1,,,,,,,,,,,,,,,,,,,,,,,,,,,,,,,,,,,,,,,
,,,,,,,,2023-08-16_08h06.09.755,HF_wild_card,2022.2.4,Linux x86_64,60.0024001,5ee3be6ff942c407cd54e6ce,64d2fd46c836a06233681665,64dc7447d4ec9d8f39c4936c,,,,,,,ctch,resources/DB.BMP,resources/DY.BMP,Door3,-0.367524924,-0.003008419,1,0,0,1.4128,optionLeft,70,5465,3,11,0,11,0,1,,,,,,,,,,,,,,,,,,,,,,,,,,,,,,,,,,,,,,,
,,,,,,,,2023-08-16_08h06.09.755,HF_wild_card,2022.2.4,Linux x86_64,60.0024001,5ee3be6ff942c407cd54e6ce,64d2fd46c836a06233681665,64dc7447d4ec9d8f39c4936c,,,,,,,decisionTrl,resources/DG.BMP,resources/DY.BMP,WildCard_NonEx,-0.371422132,0.007752419,1,0,0,1.5988,optionLeft,55,5520,3,12,0,12,0,1,,,,,,,,,,,,,,,,,,,,,,,,,,,,,,,,,,,,,,,
,,,,,,,,2023-08-16_08h06.09.755,HF_wild_card,2022.2.4,Linux x86_64,60.0024001,5ee3be6ff942c407cd54e6ce,64d2fd46c836a06233681665,64dc7447d4ec9d8f39c4936c,,,,,,,ctch,resources/DP.BMP,resources/DR.BMP,Door4,-0.362534346,-0.042211356,1,0,0,1.364,optionLeft,80,5600,3,13,0,13,0,1,,,,,,,,,,,,,,,,,,,,,,,,,,,,,,,,,,,,,,,
,,,,,,,,2023-08-16_08h06.09.755,HF_wild_card,2022.2.4,Linux x86_64,60.0024001,5ee3be6ff942c407cd54e6ce,64d2fd46c836a06233681665,64dc7447d4ec9d8f39c4936c,,,,,,,decisionTrl,resources/DY.BMP,resources/DG.BMP,WildCard_NonEx,0.391908292,-0.026064378,1,0,0,1.4452,optionRight,45,5645,3,14,0,14,0,1,,,,,,,,,,,,,,,,,,,,,,,,,,,,,,,,,,,,,,,
,,,,,,,,2023-08-16_08h06.09.755,HF_wild_card,2022.2.4,Linux x86_64,60.0024001,5ee3be6ff942c407cd54e6ce,64d2fd46c836a06233681665,64dc7447d4ec9d8f39c4936c,,,,,,,sngl,resources/DY.BMP,resources/Empty.png,Door2,-0.327406424,0.012751297,1,0,0,1.0972,optionLeft,40,5685,3,15,0,15,0,1,,,,,,,,,,,,,,,,,,,,,,,,,,,,,,,,,,,,,,,
,,,,,,,,2023-08-16_08h06.09.755,HF_wild_card,2022.2.4,Linux x86_64,60.0024001,5ee3be6ff942c407cd54e6ce,64d2fd46c836a06233681665,64dc7447d4ec9d8f39c4936c,,,,,,,decisionTrl,resources/DP.BMP,resources/DB.BMP,Door4,-0.392591688,0.000680146,1,0,0,1.9493,optionLeft,80,5765,3,16,0,16,0,1,,,,,,,,,,,,,,,,,,,,,,,,,,,,,,,,,,,,,,,
,,,,,,,,2023-08-16_08h06.09.755,HF_wild_card,2022.2.4,Linux x86_64,60.0024001,5ee3be6ff942c407cd54e6ce,64d2fd46c836a06233681665,64dc7447d4ec9d8f39c4936c,,,,,,,decisionTrl,resources/DY.BMP,resources/DR.BMP,Door2,-0.366776113,-0.001544034,1,0,0,1.847,optionLeft,20,5785,3,17,0,17,0,1,,,,,,,,,,,,,,,,,,,,,,,,,,,,,,,,,,,,,,,
,,,,,,,,2023-08-16_08h06.09.755,HF_wild_card,2022.2.4,Linux x86_64,60.0024001,5ee3be6ff942c407cd54e6ce,64d2fd46c836a06233681665,64dc7447d4ec9d8f39c4936c,,,,,,,sngl,resources/Empty.png,resources/DG.BMP,WildCard_NonEx,0.343876168,0.007932628,1,0,0,1.1711,optionRight,55,5840,3,18,0,18,0,1,,,,,,,,,,,,,,,,,,,,,,,,,,,,,,,,,,,,,,,
,,,,,,,,2023-08-16_08h06.09.755,HF_wild_card,2022.2.4,Linux x86_64,60.0024001,5ee3be6ff942c407cd54e6ce,64d2fd46c836a06233681665,64dc7447d4ec9d8f39c4936c,,,,,,,sngl,resources/DG.BMP,resources/Empty.png,WildCard_NonEx,-0.342283496,0.00303385,1,0,0,1.0008,optionLeft,45,5885,3,19,0,19,0,1,,,,,,,,,,,,,,,,,,,,,,,,,,,,,,,,,,,,,,,
,,,,,,,,2023-08-16_08h06.09.755,HF_wild_card,2022.2.4,Linux x86_64,60.0024001,5ee3be6ff942c407cd54e6ce,64d2fd46c836a06233681665,64dc7447d4ec9d8f39c4936c,,,,,,,sngl,resources/DR.BMP,resources/Empty.png,Door1,-0.426542953,-0.072512132,1,0,0,1.0312,optionLeft,30,5915,3,20,0,20,0,1,,,,,,,,,,,,,,,,,,,,,,,,,,,,,,,,,,,,,,,
,,,,,,,,2023-08-16_08h06.09.755,HF_wild_card,2022.2.4,Linux x86_64,60.0024001,5ee3be6ff942c407cd54e6ce,64d2fd46c836a06233681665,64dc7447d4ec9d8f39c4936c,,,,,,,sngl,resources/DB.BMP,resources/Empty.png,Door3,-0.397875362,-0.076449182,1,0,0,1.0284,optionLeft,70,5985,3,21,0,21,0,1,,,,,,,,,,,,,,,,,,,,,,,,,,,,,,,,,,,,,,,
,,,,,,,,2023-08-16_08h06.09.755,HF_wild_card,2022.2.4,Linux x86_64,60.0024001,5ee3be6ff942c407cd54e6ce,64d2fd46c836a06233681665,64dc7447d4ec9d8f39c4936c,,,,,,,decisionTrl,resources/DB.BMP,resources/DP.BMP,Door4,0.346087844,-0.052734375,1,0,0,2.0302,optionRight,80,6065,3,22,0,22,0,1,,,,,,,,,,,,,,,,,,,,,,,,,,,,,,,,,,,,,,,
,,,,,,,,2023-08-16_08h06.09.755,HF_wild_card,2022.2.4,Linux x86_64,60.0024001,5ee3be6ff942c407cd54e6ce,64d2fd46c836a06233681665,64dc7447d4ec9d8f39c4936c,,,,,,,decisionTrl,resources/DR.BMP,resources/DY.BMP,Door2,0.43042854,0.011204861,1,0,0,2.1254,optionRight,40,6105,3,23,0,23,0,1,,,,,,,,,,,,,,,,,,,,,,,,,,,,,,,,,,,,,,,
,,,,,,,,2023-08-16_08h06.09.755,HF_wild_card,2022.2.4,Linux x86_64,60.0024001,5ee3be6ff942c407cd54e6ce,64d2fd46c836a06233681665,64dc7447d4ec9d8f39c4936c,,,,,,,decisionTrl,resources/DP.BMP,resources/DB.BMP,Door4,-0.374233882,0.053854483,1,0,0,1.7131,optionLeft,80,6185,3,24,0,24,0,1,,,,,,,,,,,,,,,,,,,,,,,,,,,,,,,,,,,,,,,
,,,,,,,,2023-08-16_08h06.09.755,HF_wild_card,2022.2.4,Linux x86_64,60.0024001,5ee3be6ff942c407cd54e6ce,64d2fd46c836a06233681665,64dc7447d4ec9d8f39c4936c,,,,,,,decisionTrl,resources/DP.BMP,resources/DG.BMP,Door4,-0.380076974,-0.011945089,1,0,0,1.147,optionLeft,60,6245,3,25,0,25,0,1,,,,,,,,,,,,,,,,,,,,,,,,,,,,,,,,,,,,,,,
,,,,,,,,2023-08-16_08h06.09.755,HF_wild_card,2022.2.4,Linux x86_64,60.0024001,5ee3be6ff942c407cd54e6ce,64d2fd46c836a06233681665,64dc7447d4ec9d8f39c4936c,,,,,,,decisionTrl,resources/DR.BMP,resources/DY.BMP,Door2,0.423513483,0.050526054,1,0,0,1.4585,optionRight,40,6285,3,26,0,26,0,1,,,,,,,,,,,,,,,,,,,,,,,,,,,,,,,,,,,,,,,
,,,,,,,,2023-08-16_08h06.09.755,HF_wild_card,2022.2.4,Linux x86_64,60.0024001,5ee3be6ff942c407cd54e6ce,64d2fd46c836a06233681665,64dc7447d4ec9d8f39c4936c,,,,,,,sngl,resources/DG.BMP,resources/Empty.png,WildCard_NonEx,-0.340156379,0.011392311,1,0,0,1.3624,optionLeft,55,6340,3,27,0,27,0,1,,,,,,,,,,,,,,,,,,,,,,,,,,,,,,,,,,,,,,,
,,,,,,,,2023-08-16_08h06.09.755,HF_wild_card,2022.2.4,Linux x86_64,60.0024001,5ee3be6ff942c407cd54e6ce,64d2fd46c836a06233681665,64dc7447d4ec9d8f39c4936c,,,,,,,sngl,resources/Empty.png,resources/DG.BMP,WildCard_NonEx,0.374274219,0.021317659,1,0,0,0.9641,optionRight,45,6385,3,28,0,28,0,1,,,,,,,,,,,,,,,,,,,,,,,,,,,,,,,,,,,,,,,
,,,,,,,,2023-08-16_08h06.09.755,HF_wild_card,2022.2.4,Linux x86_64,60.0024001,5ee3be6ff942c407cd54e6ce,64d2fd46c836a06233681665,64dc7447d4ec9d8f39c4936c,,,,,,,decisionTrl,resources/DR.BMP,resources/DG.BMP,WildCard_NonEx,0.416345808,0.020440949,1,0,0,1.5291,optionRight,55,6440,3,29,0,29,0,1,,,,,,,,,,,,,,,,,,,,,,,,,,,,,,,,,,,,,,,
,,,,,,,,2023-08-16_08h06.09.755,HF_wild_card,2022.2.4,Linux x86_64,60.0024001,5ee3be6ff942c407cd54e6ce,64d2fd46c836a06233681665,64dc7447d4ec9d8f39c4936c,,,,,,,ctch,resources/DB.BMP,resources/DY.BMP,Door3,-0.346150186,-0.001550286,1,0,0,1.7754,optionLeft,70,6510,3,30,0,30,0,1,,,,,,,,,,,,,,,,,,,,,,,,,,,,,,,,,,,,,,,
,,,,,,,,2023-08-16_08h06.09.755,HF_wild_card,2022.2.4,Linux x86_64,60.0024001,5ee3be6ff942c407cd54e6ce,64d2fd46c836a06233681665,64dc7447d4ec9d8f39c4936c,,,,,,,decisionTrl,resources/DP.BMP,resources/DB.BMP,Door4,-0.386155411,0.01030657,1,0,0,2.2703,optionLeft,80,6590,3,31,0,31,0,1,,,,,,,,,,,,,,,,,,,,,,,,,,,,,,,,,,,,,,,
,,,,,,,,2023-08-16_08h06.09.755,HF_wild_card,2022.2.4,Linux x86_64,60.0024001,5ee3be6ff942c407cd54e6ce,64d2fd46c836a06233681665,64dc7447d4ec9d8f39c4936c,,,,,,,decisionTrl,resources/DR.BMP,resources/DY.BMP,Door1,-0.379832162,-0.006391808,1,0,0,2.5466,optionLeft,30,6620,3,32,0,32,0,1,,,,,,,,,,,,,,,,,,,,,,,,,,,,,,,,,,,,,,,
,,,,,,,,2023-08-16_08h06.09.755,HF_wild_card,2022.2.4,Linux x86_64,60.0024001,5ee3be6ff942c407cd54e6ce,64d2fd46c836a06233681665,64dc7447d4ec9d8f39c4936c,,,,,,,sngl,resources/Empty.png,resources/DB.BMP,Door3,0.405353546,-0.000653267,1,0,0,1.2635,optionRight,70,6690,3,33,0,33,0,1,,,,,,,,,,,,,,,,,,,,,,,,,,,,,,,,,,,,,,,
,,,,,,,,2023-08-16_08h06.09.755,HF_wild_card,2022.2.4,Linux x86_64,60.0024001,5ee3be6ff942c407cd54e6ce,64d2fd46c836a06233681665,64dc7447d4ec9d8f39c4936c,,,,,,,decisionTrl,resources/DY.BMP,resources/DR.BMP,Door2,-0.415766292,0.029059269,1,0,0,1.3311,optionLeft,40,6730,3,34,0,34,0,1,,,,,,,,,,,,,,,,,,,,,,,,,,,,,,,,,,,,,,,
,,,,,,,,2023-08-16_08h06.09.755,HF_wild_card,2022.2.4,Linux x86_64,60.0024001,5ee3be6ff942c407cd54e6ce,64d2fd46c836a06233681665,64dc7447d4ec9d8f39c4936c,,,,,,,ctch,resources/DR.BMP,resources/DP.BMP,Door1,-0.386321103,-0.00617762,1,0,0,1.6877,optionLeft,30,6760,3,35,0,35,0,1,,,,,,,,,,,,,,,,,,,,,,,,,,,,,,,,,,,,,,,
,,,,,,,,2023-08-16_08h06.09.755,HF_wild_card,2022.2.4,Linux x86_64,60.0024001,5ee3be6ff942c407cd54e6ce,64d2fd46c836a06233681665,64dc7447d4ec9d8f39c4936c,,,,,,,decisionTrl,resources/DR.BMP,resources/DY.BMP,Door1,-0.379963239,-0.019568726,1,0,0,2.3937,optionLeft,30,6790,3,36,0,36,0,1,,,,,,,,,,,,,,,,,,,,,,,,,,,,,,,,,,,,,,,
,,,,,,,,2023-08-16_08h06.09.755,HF_wild_card,2022.2.4,Linux x86_64,60.0024001,5ee3be6ff942c407cd54e6ce,64d2fd46c836a06233681665,64dc7447d4ec9d8f39c4936c,,,,,,,sngl,resources/DP.BMP,resources/Empty.png,Door4,-0.355966815,-0.011788615,1,0,0,1.2282,optionLeft,80,6870,3,37,0,37,0,1,,,,,,,,,,,,,,,,,,,,,,,,,,,,,,,,,,,,,,,
,,,,,,,,2023-08-16_08h06.09.755,HF_wild_card,2022.2.4,Linux x86_64,60.0024001,5ee3be6ff942c407cd54e6ce,64d2fd46c836a06233681665,64dc7447d4ec9d8f39c4936c,,,,,,,decisionTrl,resources/DP.BMP,resources/DB.BMP,Door4,-0.39637548,0.001449408,1,0,0,1.3294,optionLeft,60,6930,3,38,0,38,0,1,,,,,,,,,,,,,,,,,,,,,,,,,,,,,,,,,,,,,,,
,,,,,,,,2023-08-16_08h06.09.755,HF_wild_card,2022.2.4,Linux x86_64,60.0024001,5ee3be6ff942c407cd54e6ce,64d2fd46c836a06233681665,64dc7447d4ec9d8f39c4936c,,,,,,,decisionTrl,resources/DG.BMP,resources/DB.BMP,Door3,0.352486081,-0.036619363,1,0,0,3.062,optionRight,70,7000,3,39,0,39,0,1,,,,,,,,,,,,,,,,,,,,,,,,,,,,,,,,,,,,,,,
,,,,,,,,2023-08-16_08h06.09.755,HF_wild_card,2022.2.4,Linux x86_64,60.0024001,5ee3be6ff942c407cd54e6ce,64d2fd46c836a06233681665,64dc7447d4ec9d8f39c4936c,,,,,,,sngl,resources/Empty.png,resources/DR.BMP,Door1,0.38924083,0.004504204,1,0,0,1.0479,optionRight,30,7030,3,40,0,40,0,1,,,,,,,,,,,,,,,,,,,,,,,,,,,,,,,,,,,,,,,
,,,,,,,,2023-08-16_08h06.09.755,HF_wild_card,2022.2.4,Linux x86_64,60.0024001,5ee3be6ff942c407cd54e6ce,64d2fd46c836a06233681665,64dc7447d4ec9d8f39c4936c,,,,,,,decisionTrl,resources/DB.BMP,resources/DP.BMP,Door4,0.371873502,-0.023249273,1,0,0,1.3635,optionRight,60,7090,3,41,0,41,0,1,,,,,,,,,,,,,,,,,,,,,,,,,,,,,,,,,,,,,,,
,,,,,,,,2023-08-16_08h06.09.755,HF_wild_card,2022.2.4,Linux x86_64,60.0024001,5ee3be6ff942c407cd54e6ce,64d2fd46c836a06233681665,64dc7447d4ec9d8f39c4936c,,,,,,,decisionTrl,resources/DG.BMP,resources/DP.BMP,Door4,0.389868277,0.035833288,1,0,0,2.7149,optionRight,80,7170,3,42,0,42,0,1,,,,,,,,,,,,,,,,,,,,,,,,,,,,,,,,,,,,,,,
,,,,,,,,2023-08-16_08h06.09.755,HF_wild_card,2022.2.4,Linux x86_64,60.0024001,5ee3be6ff942c407cd54e6ce,64d2fd46c836a06233681665,64dc7447d4ec9d8f39c4936c,,,,,,,decisionTrl,resources/DY.BMP,resources/DR.BMP,Door2,-0.396013542,0.002293269,1,0,0,1.1373,optionLeft,40,7210,3,43,0,43,0,1,,,,,,,,,,,,,,,,,,,,,,,,,,,,,,,,,,,,,,,
,,,,,,,,2023-08-16_08h06.09.755,HF_wild_card,2022.2.4,Linux x86_64,60.0024001,5ee3be6ff942c407cd54e6ce,64d2fd46c836a06233681665,64dc7447d4ec9d8f39c4936c,,,,,,,,,,,,,,,,,,,,,,,,,,2,0,2,0,1,,,,,,,,,,,,,,,,,,,,,,,,,,,,,,,,,,
,,,,,,,,2023-08-16_08h06.09.755,HF_wild_card,2022.2.4,Linux x86_64,60.0024001,5ee3be6ff942c407cd54e6ce,64d2fd46c836a06233681665,64dc7447d4ec9d8f39c4936c,,,,,,,decisionTrl,resources/DR.BMP,resources/DY.BMP,Door2,0.425230238,-0.002645775,1,0,0,1.9661,optionRight,20,7230,4,0,0,0,0,1,,,,,,,,,,,,,,,,,,,,,,,,,,,,,,,,,,,,,,,
,,,,,,,,2023-08-16_08h06.09.755,HF_wild_card,2022.2.4,Linux x86_64,60.0024001,5ee3be6ff942c407cd54e6ce,64d2fd46c836a06233681665,64dc7447d4ec9d8f39c4936c,,,,,,,decisionTrl,resources/DBN.BMP,resources/DB.BMP,WildCard_Ex,-0.438018269,-0.00056401,1,0,0,1.4468,optionLeft,5,7235,4,1,0,1,0,1,,,,,,,,,,,,,,,,,,,,,,,,,,,,,,,,,,,,,,,
,,,,,,,,2023-08-16_08h06.09.755,HF_wild_card,2022.2.4,Linux x86_64,60.0024001,5ee3be6ff942c407cd54e6ce,64d2fd46c836a06233681665,64dc7447d4ec9d8f39c4936c,,,,,,,sngl,resources/DR.BMP,resources/Empty.png,Door1,-0.410400673,-0.045327646,1,0,0,1.0623,optionLeft,30,7265,4,2,0,2,0,1,,,,,,,,,,,,,,,,,,,,,,,,,,,,,,,,,,,,,,,
,,,,,,,,2023-08-16_08h06.09.755,HF_wild_card,2022.2.4,Linux x86_64,60.0024001,5ee3be6ff942c407cd54e6ce,64d2fd46c836a06233681665,64dc7447d4ec9d8f39c4936c,,,,,,,decisionTrl,resources/DB.BMP,resources/DBN.BMP,Door3,-0.380366891,-0.017846814,1,0,0,2.1471,optionLeft,70,7335,4,3,0,3,0,1,,,,,,,,,,,,,,,,,,,,,,,,,,,,,,,,,,,,,,,
,,,,,,,,2023-08-16_08h06.09.755,HF_wild_card,2022.2.4,Linux x86_64,60.0024001,5ee3be6ff942c407cd54e6ce,64d2fd46c836a06233681665,64dc7447d4ec9d8f39c4936c,,,,,,,ctch,resources/DP.BMP,resources/DR.BMP,Door4,-0.484956494,-0.040833332,1,0,0,1.2337,optionLeft,60,7395,4,4,0,4,0,1,,,,,,,,,,,,,,,,,,,,,,,,,,,,,,,,,,,,,,,
,,,,,,,,2023-08-16_08h06.09.755,HF_wild_card,2022.2.4,Linux x86_64,60.0024001,5ee3be6ff942c407cd54e6ce,64d2fd46c836a06233681665,64dc7447d4ec9d8f39c4936c,,,,,,,decisionTrl,resources/DR.BMP,resources/DY.BMP,Door2,0.351894661,0.029509226,1,0,0,2.4465,optionRight,40,7435,4,5,0,5,0,1,,,,,,,,,,,,,,,,,,,,,,,,,,,,,,,,,,,,,,,
,,,,,,,,2023-08-16_08h06.09.755,HF_wild_card,2022.2.4,Linux x86_64,60.0024001,5ee3be6ff942c407cd54e6ce,64d2fd46c836a06233681665,64dc7447d4ec9d8f39c4936c,,,,,,,sngl,resources/Empty.png,resources/DBN.BMP,WildCard_Ex,0.388271049,0.044736262,1,0,0,1.6177,optionRight,95,7530,4,6,0,6,0,1,,,,,,,,,,,,,,,,,,,,,,,,,,,,,,,,,,,,,,,
,,,,,,,,2023-08-16_08h06.09.755,HF_wild_card,2022.2.4,Linux x86_64,60.0024001,5ee3be6ff942c407cd54e6ce,64d2fd46c836a06233681665,64dc7447d4ec9d8f39c4936c,,,,,,,decisionTrl,resources/DB.BMP,resources/DP.BMP,Door4,0.413171415,0.044663182,1,0,0,2.5523,optionRight,80,7610,4,7,0,7,0,1,,,,,,,,,,,,,,,,,,,,,,,,,,,,,,,,,,,,,,,
,,,,,,,,2023-08-16_08h06.09.755,HF_wild_card,2022.2.4,Linux x86_64,60.0024001,5ee3be6ff942c407cd54e6ce,64d2fd46c836a06233681665,64dc7447d4ec9d8f39c4936c,,,,,,,sngl,resources/Empty.png,resources/DR.BMP,Door1,0.378093013,-0.007679586,1,0,0,1.2258,optionRight,30,7640,4,8,0,8,0,1,,,,,,,,,,,,,,,,,,,,,,,,,,,,,,,,,,,,,,,
,,,,,,,,2023-08-16_08h06.09.755,HF_wild_card,2022.2.4,Linux x86_64,60.0024001,5ee3be6ff942c407cd54e6ce,64d2fd46c836a06233681665,64dc7447d4ec9d8f39c4936c,,,,,,,ctch,resources/DB.BMP,resources/DY.BMP,Door3,-0.378037806,0.052338671,1,0,0,1.6347,optionLeft,70,7710,4,9,0,9,0,1,,,,,,,,,,,,,,,,,,,,,,,,,,,,,,,,,,,,,,,
,,,,,,,,2023-08-16_08h06.09.755,HF_wild_card,2022.2.4,Linux x86_64,60.0024001,5ee3be6ff942c407cd54e6ce,64d2fd46c836a06233681665,64dc7447d4ec9d8f39c4936c,,,,,,,decisionTrl,resources/DR.BMP,resources/DY.BMP,Door2,0.446714472,0.0761587,1,0,0,1.8274,optionRight,40,7750,4,10,0,10,0,1,,,,,,,,,,,,,,,,,,,,,,,,,,,,,,,,,,,,,,,
,,,,,,,,2023-08-16_08h06.09.755,HF_wild_card,2022.2.4,Linux x86_64,60.0024001,5ee3be6ff942c407cd54e6ce,64d2fd46c836a06233681665,64dc7447d4ec9d8f39c4936c,,,,,,,sngl,resources/DP.BMP,resources/Empty.png,Door4,-0.429051258,0.021715129,1,0,0,1.0932,optionLeft,60,7810,4,11,0,11,0,1,,,,,,,,,,,,,,,,,,,,,,,,,,,,,,,,,,,,,,,
,,,,,,,,2023-08-16_08h06.09.755,HF_wild_card,2022.2.4,Linux x86_64,60.0024001,5ee3be6ff942c407cd54e6ce,64d2fd46c836a06233681665,64dc7447d4ec9d8f39c4936c,,,,,,,decisionTrl,resources/DY.BMP,resources/DR.BMP,Door2,-0.340293354,-0.009741677,1,0,0,1.6299,optionLeft,40,7850,4,12,0,12,0,1,,,,,,,,,,,,,,,,,,,,,,,,,,,,,,,,,,,,,,,
,,,,,,,,2023-08-16_08h06.09.755,HF_wild_card,2022.2.4,Linux x86_64,60.0024001,5ee3be6ff942c407cd54e6ce,64d2fd46c836a06233681665,64dc7447d4ec9d8f39c4936c,,,,,,,decisionTrl,resources/DY.BMP,resources/DBN.BMP,WildCard_Ex,0.443715837,0.060168655,1,0,0,1.4309,optionRight,95,7945,4,13,0,13,0,1,,,,,,,,,,,,,,,,,,,,,,,,,,,,,,,,,,,,,,,
,,,,,,,,2023-08-16_08h06.09.755,HF_wild_card,2022.2.4,Linux x86_64,60.0024001,5ee3be6ff942c407cd54e6ce,64d2fd46c836a06233681665,64dc7447d4ec9d8f39c4936c,,,,,,,ctch,resources/DY.BMP,resources/DB.BMP,Door3,0.374311094,0.05432574,1,0,0,1.4066,optionRight,70,8015,4,14,0,14,0,1,,,,,,,,,,,,,,,,,,,,,,,,,,,,,,,,,,,,,,,
,,,,,,,,2023-08-16_08h06.09.755,HF_wild_card,2022.2.4,Linux x86_64,60.0024001,5ee3be6ff942c407cd54e6ce,64d2fd46c836a06233681665,64dc7447d4ec9d8f39c4936c,,,,,,,decisionTrl,resources/DBN.BMP,resources/DP.BMP,WildCard_Ex,-0.420437283,0.039699731,1,0,0,0.9836,optionLeft,95,8110,4,15,0,15,0,1,,,,,,,,,,,,,,,,,,,,,,,,,,,,,,,,,,,,,,,
,,,,,,,,2023-08-16_08h06.09.755,HF_wild_card,2022.2.4,Linux x86_64,60.0024001,5ee3be6ff942c407cd54e6ce,64d2fd46c836a06233681665,64dc7447d4ec9d8f39c4936c,,,,,,,decisionTrl,resources/DBN.BMP,resources/DR.BMP,WildCard_Ex,-0.459932151,0.005821899,1,0,0,0.9812,optionLeft,5,8115,4,16,0,16,0,1,,,,,,,,,,,,,,,,,,,,,,,,,,,,,,,,,,,,,,,
,,,,,,,,2023-08-16_08h06.09.755,HF_wild_card,2022.2.4,Linux x86_64,60.0024001,5ee3be6ff942c407cd54e6ce,64d2fd46c836a06233681665,64dc7447d4ec9d8f39c4936c,,,,,,,sngl,resources/DBN.BMP,resources/Empty.png,WildCard_Ex,-0.335101128,0.026496781,1,0,0,1.0467,optionLeft,95,8210,4,17,0,17,0,1,,,,,,,,,,,,,,,,,,,,,,,,,,,,,,,,,,,,,,,
,,,,,,,,2023-08-16_08h06.09.755,HF_wild_card,2022.2.4,Linux x86_64,60.0024001,5ee3be6ff942c407cd54e6ce,64d2fd46c836a06233681665,64dc7447d4ec9d8f39c4936c,,,,,,,sngl,resources/Empty.png,resources/DY.BMP,Door2,0.395821324,0.009091519,1,0,0,1.0746,optionRight,40,8250,4,18,0,18,0,1,,,,,,,,,,,,,,,,,,,,,,,,,,,,,,,,,,,,,,,
,,,,,,,,2023-08-16_08h06.09.755,HF_wild_card,2022.2.4,Linux x86_64,60.0024001,5ee3be6ff942c407cd54e6ce,64d2fd46c836a06233681665,64dc7447d4ec9d8f39c4936c,,,,,,,decisionTrl,resources/DR.BMP,resources/DBN.BMP,WildCard_Ex,0.384433746,0.054836874,1,0,0,1.0488,optionRight,95,8345,4,19,0,19,0,1,,,,,,,,,,,,,,,,,,,,,,,,,,,,,,,,,,,,,,,
,,,,,,,,2023-08-16_08h06.09.755,HF_wild_card,2022.2.4,Linux x86_64,60.0024001,5ee3be6ff942c407cd54e6ce,64d2fd46c836a06233681665,64dc7447d4ec9d8f39c4936c,,,,,,,decisionTrl,resources/DB.BMP,resources/DP.BMP,Door4,0.388295774,0.010037458,1,0,0,1.9455,optionRight,80,8425,4,20,0,20,0,1,,,,,,,,,,,,,,,,,,,,,,,,,,,,,,,,,,,,,,,
,,,,,,,,2023-08-16_08h06.09.755,HF_wild_card,2022.2.4,Linux x86_64,60.0024001,5ee3be6ff942c407cd54e6ce,64d2fd46c836a06233681665,64dc7447d4ec9d8f39c4936c,,,,,,,decisionTrl,resources/DR.BMP,resources/DY.BMP,Door1,-0.370494807,-0.014359721,1,0,0,1.7899,optionLeft,30,8455,4,21,0,21,0,1,,,,,,,,,,,,,,,,,,,,,,,,,,,,,,,,,,,,,,,
,,,,,,,,2023-08-16_08h06.09.755,HF_wild_card,2022.2.4,Linux x86_64,60.0024001,5ee3be6ff942c407cd54e6ce,64d2fd46c836a06233681665,64dc7447d4ec9d8f39c4936c,,,,,,,decisionTrl,resources/DY.BMP,resources/DR.BMP,Door2,-0.327655934,0.033819728,1,0,0,1.5635,optionLeft,40,8495,4,22,0,22,0,1,,,,,,,,,,,,,,,,,,,,,,,,,,,,,,,,,,,,,,,
,,,,,,,,2023-08-16_08h06.09.755,HF_wild_card,2022.2.4,Linux x86_64,60.0024001,5ee3be6ff942c407cd54e6ce,64d2fd46c836a06233681665,64dc7447d4ec9d8f39c4936c,,,,,,,decisionTrl,resources/DP.BMP,resources/DB.BMP,Door4,-0.39501999,0.111635314,1,0,0,1.9116,optionLeft,60,8555,4,23,0,23,0,1,,,,,,,,,,,,,,,,,,,,,,,,,,,,,,,,,,,,,,,
,,,,,,,,2023-08-16_08h06.09.755,HF_wild_card,2022.2.4,Linux x86_64,60.0024001,5ee3be6ff942c407cd54e6ce,64d2fd46c836a06233681665,64dc7447d4ec9d8f39c4936c,,,,,,,decisionTrl,resources/DP.BMP,resources/DB.BMP,Door4,-0.394933347,0.010905125,1,0,0,1.148,optionLeft,60,8615,4,24,0,24,0,1,,,,,,,,,,,,,,,,,,,,,,,,,,,,,,,,,,,,,,,
,,,,,,,,2023-08-16_08h06.09.755,HF_wild_card,2022.2.4,Linux x86_64,60.0024001,5ee3be6ff942c407cd54e6ce,64d2fd46c836a06233681665,64dc7447d4ec9d8f39c4936c,,,,,,,ctch,resources/DR.BMP,resources/DP.BMP,Door4,0.371075524,0.004821777,1,0,0,1.3968,optionRight,80,8695,4,25,0,25,0,1,,,,,,,,,,,,,,,,,,,,,,,,,,,,,,,,,,,,,,,
,,,,,,,,2023-08-16_08h06.09.755,HF_wild_card,2022.2.4,Linux x86_64,60.0024001,5ee3be6ff942c407cd54e6ce,64d2fd46c836a06233681665,64dc7447d4ec9d8f39c4936c,,,,,,,decisionTrl,resources/DP.BMP,resources/DB.BMP,Door3,0.36834519,0.016436082,1,0,0,1.2634,optionRight,70,8765,4,26,0,26,0,1,,,,,,,,,,,,,,,,,,,,,,,,,,,,,,,,,,,,,,,
,,,,,,,,2023-08-16_08h06.09.755,HF_wild_card,2022.2.4,Linux x86_64,60.0024001,5ee3be6ff942c407cd54e6ce,64d2fd46c836a06233681665,64dc7447d4ec9d8f39c4936c,,,,,,,decisionTrl,resources/DY.BMP,resources/DR.BMP,Door2,-0.468382588,0.015747671,1,0,0,1.6128,optionLeft,20,8785,4,27,0,27,0,1,,,,,,,,,,,,,,,,,,,,,,,,,,,,,,,,,,,,,,,
,,,,,,,,2023-08-16_08h06.09.755,HF_wild_card,2022.2.4,Linux x86_64,60.0024001,5ee3be6ff942c407cd54e6ce,64d2fd46c836a06233681665,64dc7447d4ec9d8f39c4936c,,,,,,,sngl,resources/DY.BMP,resources/Empty.png,Door2,-0.343973336,0.014977526,1,0,0,0.9972,optionLeft,20,8805,4,28,0,28,0,1,,,,,,,,,,,,,,,,,,,,,,,,,,,,,,,,,,,,,,,
,,,,,,,,2023-08-16_08h06.09.755,HF_wild_card,2022.2.4,Linux x86_64,60.0024001,5ee3be6ff942c407cd54e6ce,64d2fd46c836a06233681665,64dc7447d4ec9d8f39c4936c,,,,,,,ctch,resources/DY.BMP,resources/DB.BMP,Door3,0.367380637,-0.026816439,1,0,0,1.5123,optionRight,70,8875,4,29,0,29,0,1,,,,,,,,,,,,,,,,,,,,,,,,,,,,,,,,,,,,,,,
,,,,,,,,2023-08-16_08h06.09.755,HF_wild_card,2022.2.4,Linux x86_64,60.0024001,5ee3be6ff942c407cd54e6ce,64d2fd46c836a06233681665,64dc7447d4ec9d8f39c4936c,,,,,,,decisionTrl,resources/DB.BMP,resources/DP.BMP,Door4,0.386557685,0.048938186,1,0,0,1.9276,optionRight,80,8955,4,30,0,30,0,1,,,,,,,,,,,,,,,,,,,,,,,,,,,,,,,,,,,,,,,
,,,,,,,,2023-08-16_08h06.09.755,HF_wild_card,2022.2.4,Linux x86_64,60.0024001,5ee3be6ff942c407cd54e6ce,64d2fd46c836a06233681665,64dc7447d4ec9d8f39c4936c,,,,,,,ctch,resources/DB.BMP,resources/DY.BMP,Door3,-0.38068344,-0.001156101,1,0,0,1.1628,optionLeft,70,9025,4,31,0,31,0,1,,,,,,,,,,,,,,,,,,,,,,,,,,,,,,,,,,,,,,,
,,,,,,,,2023-08-16_08h06.09.755,HF_wild_card,2022.2.4,Linux x86_64,60.0024001,5ee3be6ff942c407cd54e6ce,64d2fd46c836a06233681665,64dc7447d4ec9d8f39c4936c,,,,,,,sngl,resources/Empty.png,resources/DP.BMP,Door4,0.320049427,-0.028796726,1,0,0,1.1806,optionRight,80,9105,4,32,0,32,0,1,,,,,,,,,,,,,,,,,,,,,,,,,,,,,,,,,,,,,,,
,,,,,,,,2023-08-16_08h06.09.755,HF_wild_card,2022.2.4,Linux x86_64,60.0024001,5ee3be6ff942c407cd54e6ce,64d2fd46c836a06233681665,64dc7447d4ec9d8f39c4936c,,,,,,,decisionTrl,resources/DP.BMP,resources/DBN.BMP,WildCard_Ex,0.42631884,0.037971956,1,0,0,1.1124,optionRight,95,9200,4,33,0,33,0,1,,,,,,,,,,,,,,,,,,,,,,,,,,,,,,,,,,,,,,,
,,,,,,,,2023-08-16_08h06.09.755,HF_wild_card,2022.2.4,Linux x86_64,60.0024001,5ee3be6ff942c407cd54e6ce,64d2fd46c836a06233681665,64dc7447d4ec9d8f39c4936c,,,,,,,decisionTrl,resources/DBN.BMP,resources/DY.BMP,WildCard_Ex,-0.36460661,0.001825227,1,0,0,0.9534,optionLeft,95,9295,4,34,0,34,0,1,,,,,,,,,,,,,,,,,,,,,,,,,,,,,,,,,,,,,,,
,,,,,,,,2023-08-16_08h06.09.755,HF_wild_card,2022.2.4,Linux x86_64,60.0024001,5ee3be6ff942c407cd54e6ce,64d2fd46c836a06233681665,64dc7447d4ec9d8f39c4936c,,,,,,,ctch,resources/DR.BMP,resources/DP.BMP,Door4,0.382447843,0.066592005,1,0,0,1.3674,optionRight,80,9375,4,35,0,35,0,1,,,,,,,,,,,,,,,,,,,,,,,,,,,,,,,,,,,,,,,
,,,,,,,,2023-08-16_08h06.09.755,HF_wild_card,2022.2.4,Linux x86_64,60.0024001,5ee3be6ff942c407cd54e6ce,64d2fd46c836a06233681665,64dc7447d4ec9d8f39c4936c,,,,,,,decisionTrl,resources/DP.BMP,resources/DB.BMP,Door4,-0.419320566,0.037852994,1,0,0,1.7584,optionLeft,80,9455,4,36,0,36,0,1,,,,,,,,,,,,,,,,,,,,,,,,,,,,,,,,,,,,,,,
,,,,,,,,2023-08-16_08h06.09.755,HF_wild_card,2022.2.4,Linux x86_64,60.0024001,5ee3be6ff942c407cd54e6ce,64d2fd46c836a06233681665,64dc7447d4ec9d8f39c4936c,,,,,,,sngl,resources/Empty.png,resources/DBN.BMP,WildCard_Ex,0.354129791,0.001169487,1,0,0,1.1613,optionRight,5,9460,4,37,0,37,0,1,,,,,,,,,,,,,,,,,,,,,,,,,,,,,,,,,,,,,,,
,,,,,,,,2023-08-16_08h06.09.755,HF_wild_card,2022.2.4,Linux x86_64,60.0024001,5ee3be6ff942c407cd54e6ce,64d2fd46c836a06233681665,64dc7447d4ec9d8f39c4936c,,,,,,,decisionTrl,resources/DB.BMP,resources/DP.BMP,Door4,0.317506578,0.019437755,1,0,0,2.1316,optionRight,60,9520,4,38,0,38,0,1,,,,,,,,,,,,,,,,,,,,,,,,,,,,,,,,,,,,,,,
,,,,,,,,2023-08-16_08h06.09.755,HF_wild_card,2022.2.4,Linux x86_64,60.0024001,5ee3be6ff942c407cd54e6ce,64d2fd46c836a06233681665,64dc7447d4ec9d8f39c4936c,,,,,,,sngl,resources/DB.BMP,resources/Empty.png,Door3,-0.429500474,-0.011594384,1,0,0,0.8639,optionLeft,70,9590,4,39,0,39,0,1,,,,,,,,,,,,,,,,,,,,,,,,,,,,,,,,,,,,,,,
,,,,,,,,2023-08-16_08h06.09.755,HF_wild_card,2022.2.4,Linux x86_64,60.0024001,5ee3be6ff942c407cd54e6ce,64d2fd46c836a06233681665,64dc7447d4ec9d8f39c4936c,,,,,,,ctch,resources/DP.BMP,resources/DR.BMP,Door4,-0.342203529,0.005733349,1,0,0,2.0173,optionLeft,60,9650,4,40,0,40,0,1,,,,,,,,,,,,,,,,,,,,,,,,,,,,,,,,,,,,,,,
,,,,,,,,2023-08-16_08h06.09.755,HF_wild_card,2022.2.4,Linux x86_64,60.0024001,5ee3be6ff942c407cd54e6ce,64d2fd46c836a06233681665,64dc7447d4ec9d8f39c4936c,,,,,,,sngl,resources/Empty.png,resources/DB.BMP,Door3,0.330399407,-0.027800949,1,0,0,1.3346,optionRight,70,9720,4,41,0,41,0,1,,,,,,,,,,,,,,,,,,,,,,,,,,,,,,,,,,,,,,,
,,,,,,,,2023-08-16_08h06.09.755,HF_wild_card,2022.2.4,Linux x86_64,60.0024001,5ee3be6ff942c407cd54e6ce,64d2fd46c836a06233681665,64dc7447d4ec9d8f39c4936c,,,,,,,decisionTrl,resources/DY.BMP,resources/DR.BMP,Door2,-0.348854948,-4.70833E-05,1,0,0,1.6712,optionLeft,40,9760,4,42,0,42,0,1,,,,,,,,,,,,,,,,,,,,,,,,,,,,,,,,,,,,,,,
,,,,,,,,2023-08-16_08h06.09.755,HF_wild_card,2022.2.4,Linux x86_64,60.0024001,5ee3be6ff942c407cd54e6ce,64d2fd46c836a06233681665,64dc7447d4ec9d8f39c4936c,,,,,,,sngl,resources/DBN.BMP,resources/Empty.png,WildCard_Ex,-0.364217688,0.028036824,1,0,0,1.0625,optionLeft,5,9765,4,43,0,43,0,1,,,,,,,,,,,,,,,,,,,,,,,,,,,,,,,,,,,,,,,
,,,,,,,,2023-08-16_08h06.09.755,HF_wild_card,2022.2.4,Linux x86_64,60.0024001,5ee3be6ff942c407cd54e6ce,64d2fd46c836a06233681665,64dc7447d4ec9d8f39c4936c,,,,,,,,,,,,,,,,,,,,,,,,,,3,0,3,0,1,,,,,,,,,,,,,,,,,,,,,,,,,,,,,,,,,,
,,,,,,,,2023-08-16_08h06.09.755,HF_wild_card,2022.2.4,Linux x86_64,60.0024001,5ee3be6ff942c407cd54e6ce,64d2fd46c836a06233681665,64dc7447d4ec9d8f39c4936c,,,,,,,decisionTrl,resources/DP.BMP,resources/DB.BMP,Door4,-0.323972808,-0.057444219,1,0,0,1.3998,optionLeft,80,9845,5,0,0,0,0,1,,,,,,,,,,,,,,,,,,,,,,,,,,,,,,,,,,,,,,,
,,,,,,,,2023-08-16_08h06.09.755,HF_wild_card,2022.2.4,Linux x86_64,60.0024001,5ee3be6ff942c407cd54e6ce,64d2fd46c836a06233681665,64dc7447d4ec9d8f39c4936c,,,,,,,decisionTrl,resources/DR.BMP,resources/DY.BMP,Door2,0.487657194,0.065852095,1,0,0,1.3304,optionRight,20,9865,5,1,0,1,0,1,,,,,,,,,,,,,,,,,,,,,,,,,,,,,,,,,,,,,,,
,,,,,,,,2023-08-16_08h06.09.755,HF_wild_card,2022.2.4,Linux x86_64,60.0024001,5ee3be6ff942c407cd54e6ce,64d2fd46c836a06233681665,64dc7447d4ec9d8f39c4936c,,,,,,,sngl,resources/DR.BMP,resources/Empty.png,Door1,-0.429565041,0.070364104,1,0,0,0.8797,optionLeft,30,9895,5,2,0,2,0,1,,,,,,,,,,,,,,,,,,,,,,,,,,,,,,,,,,,,,,,
,,,,,,,,2023-08-16_08h06.09.755,HF_wild_card,2022.2.4,Linux x86_64,60.0024001,5ee3be6ff942c407cd54e6ce,64d2fd46c836a06233681665,64dc7447d4ec9d8f39c4936c,,,,,,,sngl,resources/DY.BMP,resources/Empty.png,Door2,-0.32358883,0.025454662,1,0,0,0.9957,optionLeft,40,9935,5,3,0,3,0,1,,,,,,,,,,,,,,,,,,,,,,,,,,,,,,,,,,,,,,,
,,,,,,,,2023-08-16_08h06.09.755,HF_wild_card,2022.2.4,Linux x86_64,60.0024001,5ee3be6ff942c407cd54e6ce,64d2fd46c836a06233681665,64dc7447d4ec9d8f39c4936c,,,,,,,ctch,resources/DR.BMP,resources/DP.BMP,Door4,0.386462035,0.021261533,1,0,0,1.3507,optionRight,80,10015,5,4,0,4,0,1,,,,,,,,,,,,,,,,,,,,,,,,,,,,,,,,,,,,,,,
,,,,,,,,2023-08-16_08h06.09.755,HF_wild_card,2022.2.4,Linux x86_64,60.0024001,5ee3be6ff942c407cd54e6ce,64d2fd46c836a06233681665,64dc7447d4ec9d8f39c4936c,,,,,,,ctch,resources/DP.BMP,resources/DR.BMP,Door4,-0.407443188,0.045024766,1,0,0,1.6633,optionLeft,80,10095,5,5,0,5,0,1,,,,,,,,,,,,,,,,,,,,,,,,,,,,,,,,,,,,,,,
,,,,,,,,2023-08-16_08h06.09.755,HF_wild_card,2022.2.4,Linux x86_64,60.0024001,5ee3be6ff942c407cd54e6ce,64d2fd46c836a06233681665,64dc7447d4ec9d8f39c4936c,,,,,,,decisionTrl,resources/DY.BMP,resources/DR.BMP,Door2,-0.369909428,0.168450956,1,0,0,1.7709,optionLeft,40,10135,5,6,0,6,0,1,,,,,,,,,,,,,,,,,,,,,,,,,,,,,,,,,,,,,,,
,,,,,,,,2023-08-16_08h06.09.755,HF_wild_card,2022.2.4,Linux x86_64,60.0024001,5ee3be6ff942c407cd54e6ce,64d2fd46c836a06233681665,64dc7447d4ec9d8f39c4936c,,,,,,,decisionTrl,resources/DY.BMP,resources/DR.BMP,Door2,-0.411905748,0.147369985,1,0,0,1.3505,optionLeft,40,10175,5,7,0,7,0,1,,,,,,,,,,,,,,,,,,,,,,,,,,,,,,,,,,,,,,,
,,,,,,,,2023-08-16_08h06.09.755,HF_wild_card,2022.2.4,Linux x86_64,60.0024001,5ee3be6ff942c407cd54e6ce,64d2fd46c836a06233681665,64dc7447d4ec9d8f39c4936c,,,,,,,decisionTrl,resources/DBN.BMP,resources/DR.BMP,WildCard_Ex,-0.393958869,0.194240182,1,0,0,1.3754,optionLeft,95,10270,5,8,0,8,0,1,,,,,,,,,,,,,,,,,,,,,,,,,,,,,,,,,,,,,,,
,,,,,,,,2023-08-16_08h06.09.755,HF_wild_card,2022.2.4,Linux x86_64,60.0024001,5ee3be6ff942c407cd54e6ce,64d2fd46c836a06233681665,64dc7447d4ec9d8f39c4936c,,,,,,,sngl,resources/Empty.png,resources/DBN.BMP,WildCard_Ex,0.390237314,0.190156124,1,0,0,2.2409,optionRight,5,10275,5,9,0,9,0,1,,,,,,,,,,,,,,,,,,,,,,,,,,,,,,,,,,,,,,,
,,,,,,,,2023-08-16_08h06.09.755,HF_wild_card,2022.2.4,Linux x86_64,60.0024001,5ee3be6ff942c407cd54e6ce,64d2fd46c836a06233681665,64dc7447d4ec9d8f39c4936c,,,,,,,decisionTrl,resources/DB.BMP,resources/DP.BMP,Door3,-0.382874277,0.052583518,1,0,0,1.3642,optionLeft,70,10345,5,10,0,10,0,1,,,,,,,,,,,,,,,,,,,,,,,,,,,,,,,,,,,,,,,
,,,,,,,,2023-08-16_08h06.09.755,HF_wild_card,2022.2.4,Linux x86_64,60.0024001,5ee3be6ff942c407cd54e6ce,64d2fd46c836a06233681665,64dc7447d4ec9d8f39c4936c,,,,,,,decisionTrl,resources/DY.BMP,resources/DR.BMP,Door2,-0.353836166,0.079086516,1,0,0,1.2468,optionLeft,20,10365,5,11,0,11,0,1,,,,,,,,,,,,,,,,,,,,,,,,,,,,,,,,,,,,,,,
,,,,,,,,2023-08-16_08h06.09.755,HF_wild_card,2022.2.4,Linux x86_64,60.0024001,5ee3be6ff942c407cd54e6ce,64d2fd46c836a06233681665,64dc7447d4ec9d8f39c4936c,,,,,,,decisionTrl,resources/DY.BMP,resources/DR.BMP,Door2,-0.301946569,0.062078547,1,0,0,1.129,optionLeft,20,10385,5,12,0,12,0,1,,,,,,,,,,,,,,,,,,,,,,,,,,,,,,,,,,,,,,,
,,,,,,,,2023-08-16_08h06.09.755,HF_wild_card,2022.2.4,Linux x86_64,60.0024001,5ee3be6ff942c407cd54e6ce,64d2fd46c836a06233681665,64dc7447d4ec9d8f39c4936c,,,,,,,sngl,resources/Empty.png,resources/DB.BMP,Door3,0.374320701,0.001888028,1,0,0,0.9468,optionRight,70,10455,5,13,0,13,0,1,,,,,,,,,,,,,,,,,,,,,,,,,,,,,,,,,,,,,,,
,,,,,,,,2023-08-16_08h06.09.755,HF_wild_card,2022.2.4,Linux x86_64,60.0024001,5ee3be6ff942c407cd54e6ce,64d2fd46c836a06233681665,64dc7447d4ec9d8f39c4936c,,,,,,,sngl,resources/Empty.png,resources/DY.BMP,Door2,0.468036793,0.006609069,1,0,0,0.9641,optionRight,20,10475,5,14,0,14,0,1,,,,,,,,,,,,,,,,,,,,,,,,,,,,,,,,,,,,,,,
,,,,,,,,2023-08-16_08h06.09.755,HF_wild_card,2022.2.4,Linux x86_64,60.0024001,5ee3be6ff942c407cd54e6ce,64d2fd46c836a06233681665,64dc7447d4ec9d8f39c4936c,,,,,,,decisionTrl,resources/DR.BMP,resources/DY.BMP,Door2,0.429497895,0.052129251,1,0,0,1.0809,optionRight,20,10495,5,15,0,15,0,1,,,,,,,,,,,,,,,,,,,,,,,,,,,,,,,,,,,,,,,
,,,,,,,,2023-08-16_08h06.09.755,HF_wild_card,2022.2.4,Linux x86_64,60.0024001,5ee3be6ff942c407cd54e6ce,64d2fd46c836a06233681665,64dc7447d4ec9d8f39c4936c,,,,,,,decisionTrl,resources/DP.BMP,resources/DB.BMP,Door4,-0.344315882,0.056314115,1,0,0,1.0978,optionLeft,60,10555,5,16,0,16,0,1,,,,,,,,,,,,,,,,,,,,,,,,,,,,,,,,,,,,,,,
,,,,,,,,2023-08-16_08h06.09.755,HF_wild_card,2022.2.4,Linux x86_64,60.0024001,5ee3be6ff942c407cd54e6ce,64d2fd46c836a06233681665,64dc7447d4ec9d8f39c4936c,,,,,,,decisionTrl,resources/DP.BMP,resources/DBN.BMP,WildCard_Ex,0.399206373,0.056829382,1,0,0,1.147,optionRight,95,10650,5,17,0,17,0,1,,,,,,,,,,,,,,,,,,,,,,,,,,,,,,,,,,,,,,,
,,,,,,,,2023-08-16_08h06.09.755,HF_wild_card,2022.2.4,Linux x86_64,60.0024001,5ee3be6ff942c407cd54e6ce,64d2fd46c836a06233681665,64dc7447d4ec9d8f39c4936c,,,,,,,decisionTrl,resources/DP.BMP,resources/DB.BMP,Door3,0.41079175,0.104399893,1,0,0,1.4644,optionRight,70,10720,5,18,0,18,0,1,,,,,,,,,,,,,,,,,,,,,,,,,,,,,,,,,,,,,,,
,,,,,,,,2023-08-16_08h06.09.755,HF_wild_card,2022.2.4,Linux x86_64,60.0024001,5ee3be6ff942c407cd54e6ce,64d2fd46c836a06233681665,64dc7447d4ec9d8f39c4936c,,,,,,,sngl,resources/DBN.BMP,resources/Empty.png,WildCard_Ex,-0.314905167,0.037181466,1,0,0,0.9424,optionLeft,95,10815,5,19,0,19,0,1,,,,,,,,,,,,,,,,,,,,,,,,,,,,,,,,,,,,,,,
,,,,,,,,2023-08-16_08h06.09.755,HF_wild_card,2022.2.4,Linux x86_64,60.0024001,5ee3be6ff942c407cd54e6ce,64d2fd46c836a06233681665,64dc7447d4ec9d8f39c4936c,,,,,,,ctch,resources/DB.BMP,resources/DY.BMP,Door3,-0.360489845,0.031073712,1,0,0,2.5131,optionLeft,70,10885,5,20,0,20,0,1,,,,,,,,,,,,,,,,,,,,,,,,,,,,,,,,,,,,,,,
,,,,,,,,2023-08-16_08h06.09.755,HF_wild_card,2022.2.4,Linux x86_64,60.0024001,5ee3be6ff942c407cd54e6ce,64d2fd46c836a06233681665,64dc7447d4ec9d8f39c4936c,,,,,,,ctch,resources/DR.BMP,resources/DP.BMP,Door4,0.305788252,0.027549214,1,0,0,1.6787,optionRight,60,10945,5,21,0,21,0,1,,,,,,,,,,,,,,,,,,,,,,,,,,,,,,,,,,,,,,,
,,,,,,,,2023-08-16_08h06.09.755,HF_wild_card,2022.2.4,Linux x86_64,60.0024001,5ee3be6ff942c407cd54e6ce,64d2fd46c836a06233681665,64dc7447d4ec9d8f39c4936c,,,,,,,ctch,resources/DP.BMP,resources/DR.BMP,Door4,-0.419471034,0.050997734,1,0,0,0.922,optionLeft,80,11025,5,22,0,22,0,1,,,,,,,,,,,,,,,,,,,,,,,,,,,,,,,,,,,,,,,
,,,,,,,,2023-08-16_08h06.09.755,HF_wild_card,2022.2.4,Linux x86_64,60.0024001,5ee3be6ff942c407cd54e6ce,64d2fd46c836a06233681665,64dc7447d4ec9d8f39c4936c,,,,,,,decisionTrl,resources/DB.BMP,resources/DP.BMP,Door3,-0.429482637,0.040998247,1,0,0,2.2509,optionLeft,70,11095,5,23,0,23,0,1,,,,,,,,,,,,,,,,,,,,,,,,,,,,,,,,,,,,,,,
,,,,,,,,2023-08-16_08h06.09.755,HF_wild_card,2022.2.4,Linux x86_64,60.0024001,5ee3be6ff942c407cd54e6ce,64d2fd46c836a06233681665,64dc7447d4ec9d8f39c4936c,,,,,,,sngl,resources/Empty.png,resources/DR.BMP,Door1,0.330016666,0.012176408,1,0,0,1.1131,optionRight,30,11125,5,24,0,24,0,1,,,,,,,,,,,,,,,,,,,,,,,,,,,,,,,,,,,,,,,
,,,,,,,,2023-08-16_08h06.09.755,HF_wild_card,2022.2.4,Linux x86_64,60.0024001,5ee3be6ff942c407cd54e6ce,64d2fd46c836a06233681665,64dc7447d4ec9d8f39c4936c,,,,,,,decisionTrl,resources/DY.BMP,resources/DBN.BMP,WildCard_Ex,0.353089368,0.118653333,1,0,0,1.0636,optionRight,5,11130,5,25,0,25,0,1,,,,,,,,,,,,,,,,,,,,,,,,,,,,,,,,,,,,,,,
,,,,,,,,2023-08-16_08h06.09.755,HF_wild_card,2022.2.4,Linux x86_64,60.0024001,5ee3be6ff942c407cd54e6ce,64d2fd46c836a06233681665,64dc7447d4ec9d8f39c4936c,,,,,,,sngl,resources/DBN.BMP,resources/Empty.png,WildCard_Ex,-0.338023822,0.070670375,1,0,0,0.9476,optionLeft,5,11135,5,26,0,26,0,1,,,,,,,,,,,,,,,,,,,,,,,,,,,,,,,,,,,,,,,
,,,,,,,,2023-08-16_08h06.09.755,HF_wild_card,2022.2.4,Linux x86_64,60.0024001,5ee3be6ff942c407cd54e6ce,64d2fd46c836a06233681665,64dc7447d4ec9d8f39c4936c,,,,,,,decisionTrl,resources/DB.BMP,resources/DP.BMP,Door4,0.318151403,-0.005927651,1,0,0,1.2366,optionRight,60,11195,5,27,0,27,0,1,,,,,,,,,,,,,,,,,,,,,,,,,,,,,,,,,,,,,,,
,,,,,,,,2023-08-16_08h06.09.755,HF_wild_card,2022.2.4,Linux x86_64,60.0024001,5ee3be6ff942c407cd54e6ce,64d2fd46c836a06233681665,64dc7447d4ec9d8f39c4936c,,,,,,,ctch,resources/DB.BMP,resources/DY.BMP,Door3,-0.40021967,0.024187265,1,0,0,0.9538,optionLeft,70,11265,5,28,0,28,0,1,,,,,,,,,,,,,,,,,,,,,,,,,,,,,,,,,,,,,,,
,,,,,,,,2023-08-16_08h06.09.755,HF_wild_card,2022.2.4,Linux x86_64,60.0024001,5ee3be6ff942c407cd54e6ce,64d2fd46c836a06233681665,64dc7447d4ec9d8f39c4936c,,,,,,,decisionTrl,resources/DR.BMP,resources/DY.BMP,Door2,0.412191885,0.060496966,1,0,0,1.3635,optionRight,20,11285,5,29,0,29,0,1,,,,,,,,,,,,,,,,,,,,,,,,,,,,,,,,,,,,,,,
,,,,,,,,2023-08-16_08h06.09.755,HF_wild_card,2022.2.4,Linux x86_64,60.0024001,5ee3be6ff942c407cd54e6ce,64d2fd46c836a06233681665,64dc7447d4ec9d8f39c4936c,,,,,,,decisionTrl,resources/DB.BMP,resources/DBN.BMP,WildCard_Ex,0.350874018,0.053603879,1,0,0,1.4795,optionRight,95,11380,5,30,0,30,0,1,,,,,,,,,,,,,,,,,,,,,,,,,,,,,,,,,,,,,,,
,,,,,,,,2023-08-16_08h06.09.755,HF_wild_card,2022.2.4,Linux x86_64,60.0024001,5ee3be6ff942c407cd54e6ce,64d2fd46c836a06233681665,64dc7447d4ec9d8f39c4936c,,,,,,,decisionTrl,resources/DBN.BMP,resources/DP.BMP,WildCard_Ex,-0.414996112,0.025962158,1,0,0,0.9974,optionLeft,5,11385,5,31,0,31,0,1,,,,,,,,,,,,,,,,,,,,,,,,,,,,,,,,,,,,,,,
,,,,,,,,2023-08-16_08h06.09.755,HF_wild_card,2022.2.4,Linux x86_64,60.0024001,5ee3be6ff942c407cd54e6ce,64d2fd46c836a06233681665,64dc7447d4ec9d8f39c4936c,,,,,,,decisionTrl,resources/DBN.BMP,resources/DY.BMP,WildCard_Ex,-0.41245404,0.036579026,1,0,0,0.995,optionLeft,5,11390,5,32,0,32,0,1,,,,,,,,,,,,,,,,,,,,,,,,,,,,,,,,,,,,,,,
,,,,,,,,2023-08-16_08h06.09.755,HF_wild_card,2022.2.4,Linux x86_64,60.0024001,5ee3be6ff942c407cd54e6ce,64d2fd46c836a06233681665,64dc7447d4ec9d8f39c4936c,,,,,,,ctch,resources/DY.BMP,resources/DB.BMP,Door3,0.310434836,0.026431719,1,0,0,1.0285,optionRight,70,11460,5,33,0,33,0,1,,,,,,,,,,,,,,,,,,,,,,,,,,,,,,,,,,,,,,,
,,,,,,,,2023-08-16_08h06.09.755,HF_wild_card,2022.2.4,Linux x86_64,60.0024001,5ee3be6ff942c407cd54e6ce,64d2fd46c836a06233681665,64dc7447d4ec9d8f39c4936c,,,,,,,decisionTrl,resources/DB.BMP,resources/DP.BMP,Door3,-0.281926544,0.046817674,1,0,0,2.0301,optionLeft,70,11530,5,34,0,34,0,1,,,,,,,,,,,,,,,,,,,,,,,,,,,,,,,,,,,,,,,
,,,,,,,,2023-08-16_08h06.09.755,HF_wild_card,2022.2.4,Linux x86_64,60.0024001,5ee3be6ff942c407cd54e6ce,64d2fd46c836a06233681665,64dc7447d4ec9d8f39c4936c,,,,,,,sngl,resources/Empty.png,resources/DP.BMP,Door4,0.400033598,0.042793521,1,0,0,0.9807,optionRight,60,11590,5,35,0,35,0,1,,,,,,,,,,,,,,,,,,,,,,,,,,,,,,,,,,,,,,,
,,,,,,,,2023-08-16_08h06.09.755,HF_wild_card,2022.2.4,Linux x86_64,60.0024001,5ee3be6ff942c407cd54e6ce,64d2fd46c836a06233681665,64dc7447d4ec9d8f39c4936c,,,,,,,ctch,resources/DY.BMP,resources/DB.BMP,Door3,0.391246231,0.019989508,1,0,0,1.2599,optionRight,70,11660,5,36,0,36,0,1,,,,,,,,,,,,,,,,,,,,,,,,,,,,,,,,,,,,,,,
,,,,,,,,2023-08-16_08h06.09.755,HF_wild_card,2022.2.4,Linux x86_64,60.0024001,5ee3be6ff942c407cd54e6ce,64d2fd46c836a06233681665,64dc7447d4ec9d8f39c4936c,,,,,,,decisionTrl,resources/DBN.BMP,resources/DB.BMP,WildCard_Ex,-0.306696009,0.019601645,1,0,0,1.264,optionLeft,5,11665,5,37,0,37,0,1,,,,,,,,,,,,,,,,,,,,,,,,,,,,,,,,,,,,,,,
,,,,,,,,2023-08-16_08h06.09.755,HF_wild_card,2022.2.4,Linux x86_64,60.0024001,5ee3be6ff942c407cd54e6ce,64d2fd46c836a06233681665,64dc7447d4ec9d8f39c4936c,,,,,,,decisionTrl,resources/DR.BMP,resources/DY.BMP,Door2,0.292801398,0.003992928,1,0,0,1.8475,optionRight,20,11685,5,38,0,38,0,1,,,,,,,,,,,,,,,,,,,,,,,,,,,,,,,,,,,,,,,
,,,,,,,,2023-08-16_08h06.09.755,HF_wild_card,2022.2.4,Linux x86_64,60.0024001,5ee3be6ff942c407cd54e6ce,64d2fd46c836a06233681665,64dc7447d4ec9d8f39c4936c,,,,,,,decisionTrl,resources/DR.BMP,resources/DBN.BMP,WildCard_Ex,0.333142598,0.03677739,1,0,0,1.0631,optionRight,95,11780,5,39,0,39,0,1,,,,,,,,,,,,,,,,,,,,,,,,,,,,,,,,,,,,,,,
,,,,,,,,2023-08-16_08h06.09.755,HF_wild_card,2022.2.4,Linux x86_64,60.0024001,5ee3be6ff942c407cd54e6ce,64d2fd46c836a06233681665,64dc7447d4ec9d8f39c4936c,,,,,,,sngl,resources/DP.BMP,resources/Empty.png,Door4,-0.343042727,0.015366272,1,0,0,1.2644,optionLeft,80,11860,5,40,0,40,0,1,,,,,,,,,,,,,,,,,,,,,,,,,,,,,,,,,,,,,,,
,,,,,,,,2023-08-16_08h06.09.755,HF_wild_card,2022.2.4,Linux x86_64,60.0024001,5ee3be6ff942c407cd54e6ce,64d2fd46c836a06233681665,64dc7447d4ec9d8f39c4936c,,,,,,,sngl,resources/Empty.png,resources/DBN.BMP,WildCard_Ex,0.405696021,0.048687864,1,0,0,1.8564,optionRight,95,11955,5,41,0,41,0,1,,,,,,,,,,,,,,,,,,,,,,,,,,,,,,,,,,,,,,,
,,,,,,,,2023-08-16_08h06.09.755,HF_wild_card,2022.2.4,Linux x86_64,60.0024001,5ee3be6ff942c407cd54e6ce,64d2fd46c836a06233681665,64dc7447d4ec9d8f39c4936c,,,,,,,decisionTrl,resources/DP.BMP,resources/DB.BMP,Door3,0.387874462,0.077483707,1,0,0,2.8799,optionRight,70,12025,5,42,0,42,0,1,,,,,,,,,,,,,,,,,,,,,,,,,,,,,,,,,,,,,,,
,,,,,,,,2023-08-16_08h06.09.755,HF_wild_card,2022.2.4,Linux x86_64,60.0024001,5ee3be6ff942c407cd54e6ce,64d2fd46c836a06233681665,64dc7447d4ec9d8f39c4936c,,,,,,,sngl,resources/DB.BMP,resources/Empty.png,Door3,-0.358440011,-0.009432722,1,0,0,1.0733,optionLeft,70,12095,5,43,0,43,0,1,,,,,,,,,,,,,,,,,,,,,,,,,,,,,,,,,,,,,,,
,,,,,,,,2023-08-16_08h06.09.755,HF_wild_card,2022.2.4,Linux x86_64,60.0024001,5ee3be6ff942c407cd54e6ce,64d2fd46c836a06233681665,64dc7447d4ec9d8f39c4936c,,,,,,,,,,,,,,,,,,,,,,,,,,4,0,4,0,1,,,,,,,,,,,,,,,,,,,,,,,,,,,,,,,,,,
,,,,,,,,2023-08-16_08h06.09.755,HF_wild_card,2022.2.4,Linux x86_64,60.0024001,5ee3be6ff942c407cd54e6ce,64d2fd46c836a06233681665,64dc7447d4ec9d8f39c4936c,,,,,,,ctch,resources/DR.BMP,resources/DP.BMP,Door4,0.379327845,0.025522621,1,0,0,1.7661,optionRight,60,12155,6,0,0,0,0,1,,,,,,,,,,,,,,,,,,,,,,,,,,,,,,,,,,,,,,,
,,,,,,,,2023-08-16_08h06.09.755,HF_wild_card,2022.2.4,Linux x86_64,60.0024001,5ee3be6ff942c407cd54e6ce,64d2fd46c836a06233681665,64dc7447d4ec9d8f39c4936c,,,,,,,decisionTrl,resources/DBN.BMP,resources/DB.BMP,WildCard_Ex,-0.333643066,0.020201612,1,0,0,1.0276,optionLeft,95,12250,6,1,0,1,0,1,,,,,,,,,,,,,,,,,,,,,,,,,,,,,,,,,,,,,,,
,,,,,,,,2023-08-16_08h06.09.755,HF_wild_card,2022.2.4,Linux x86_64,60.0024001,5ee3be6ff942c407cd54e6ce,64d2fd46c836a06233681665,64dc7447d4ec9d8f39c4936c,,,,,,,decisionTrl,resources/DBN.BMP,resources/DR.BMP,WildCard_Ex,-0.345469369,0.058570615,1,0,0,0.9977,optionLeft,5,12255,6,2,0,2,0,1,,,,,,,,,,,,,,,,,,,,,,,,,,,,,,,,,,,,,,,
,,,,,,,,2023-08-16_08h06.09.755,HF_wild_card,2022.2.4,Linux x86_64,60.0024001,5ee3be6ff942c407cd54e6ce,64d2fd46c836a06233681665,64dc7447d4ec9d8f39c4936c,,,,,,,decisionTrl,resources/DR.BMP,resources/DY.BMP,Door1,-0.407912678,0.051092395,1,0,0,2.2302,optionLeft,30,12285,6,3,0,3,0,1,,,,,,,,,,,,,,,,,,,,,,,,,,,,,,,,,,,,,,,
,,,,,,,,2023-08-16_08h06.09.755,HF_wild_card,2022.2.4,Linux x86_64,60.0024001,5ee3be6ff942c407cd54e6ce,64d2fd46c836a06233681665,64dc7447d4ec9d8f39c4936c,,,,,,,decisionTrl,resources/DB.BMP,resources/DP.BMP,Door3,-0.510329529,0.054124373,1,0,0,2.6728,optionLeft,70,12355,6,4,0,4,0,1,,,,,,,,,,,,,,,,,,,,,,,,,,,,,,,,,,,,,,,
,,,,,,,,2023-08-16_08h06.09.755,HF_wild_card,2022.2.4,Linux x86_64,60.0024001,5ee3be6ff942c407cd54e6ce,64d2fd46c836a06233681665,64dc7447d4ec9d8f39c4936c,,,,,,,decisionTrl,resources/DY.BMP,resources/DR.BMP,Door2,-0.320853057,0.07744284,1,0,0,1.3431,optionLeft,20,12375,6,5,0,5,0,1,,,,,,,,,,,,,,,,,,,,,,,,,,,,,,,,,,,,,,,
,,,,,,,,2023-08-16_08h06.09.755,HF_wild_card,2022.2.4,Linux x86_64,60.0024001,5ee3be6ff942c407cd54e6ce,64d2fd46c836a06233681665,64dc7447d4ec9d8f39c4936c,,,,,,,sngl,resources/Empty.png,resources/DR.BMP,Door1,0.42008619,0.015030119,1,0,0,0.8305,optionRight,30,12405,6,6,0,6,0,1,,,,,,,,,,,,,,,,,,,,,,,,,,,,,,,,,,,,,,,
,,,,,,,,2023-08-16_08h06.09.755,HF_wild_card,2022.2.4,Linux x86_64,60.0024001,5ee3be6ff942c407cd54e6ce,64d2fd46c836a06233681665,64dc7447d4ec9d8f39c4936c,,,,,,,sngl,resources/Empty.png,resources/DY.BMP,Door2,0.365484591,-0.003748646,1,0,0,0.9908,optionRight,40,12445,6,7,0,7,0,1,,,,,,,,,,,,,,,,,,,,,,,,,,,,,,,,,,,,,,,
,,,,,,,,2023-08-16_08h06.09.755,HF_wild_card,2022.2.4,Linux x86_64,60.0024001,5ee3be6ff942c407cd54e6ce,64d2fd46c836a06233681665,64dc7447d4ec9d8f39c4936c,,,,,,,decisionTrl,resources/DB.BMP,resources/DP.BMP,Door4,0.377719597,0.047606609,1,0,0,1.4545,optionRight,80,12525,6,8,0,8,0,1,,,,,,,,,,,,,,,,,,,,,,,,,,,,,,,,,,,,,,,
,,,,,,,,2023-08-16_08h06.09.755,HF_wild_card,2022.2.4,Linux x86_64,60.0024001,5ee3be6ff942c407cd54e6ce,64d2fd46c836a06233681665,64dc7447d4ec9d8f39c4936c,,,,,,,decisionTrl,resources/DB.BMP,resources/DP.BMP,Door4,0.395400718,0.085528868,1,0,0,1.6137,optionRight,60,12585,6,9,0,9,0,1,,,,,,,,,,,,,,,,,,,,,,,,,,,,,,,,,,,,,,,
,,,,,,,,2023-08-16_08h06.09.755,HF_wild_card,2022.2.4,Linux x86_64,60.0024001,5ee3be6ff942c407cd54e6ce,64d2fd46c836a06233681665,64dc7447d4ec9d8f39c4936c,,,,,,,decisionTrl,resources/DY.BMP,resources/DBN.BMP,WildCard_Ex,0.355785511,0.014158637,1,0,0,1.3014,optionRight,5,12590,6,10,0,10,0,1,,,,,,,,,,,,,,,,,,,,,,,,,,,,,,,,,,,,,,,
,,,,,,,,2023-08-16_08h06.09.755,HF_wild_card,2022.2.4,Linux x86_64,60.0024001,5ee3be6ff942c407cd54e6ce,64d2fd46c836a06233681665,64dc7447d4ec9d8f39c4936c,,,,,,,ctch,resources/DR.BMP,resources/DP.BMP,Door1,-0.344143444,0.007103178,1,0,0,2.3067,optionLeft,30,12620,6,11,0,11,0,1,,,,,,,,,,,,,,,,,,,,,,,,,,,,,,,,,,,,,,,
,,,,,,,,2023-08-16_08h06.09.755,HF_wild_card,2022.2.4,Linux x86_64,60.0024001,5ee3be6ff942c407cd54e6ce,64d2fd46c836a06233681665,64dc7447d4ec9d8f39c4936c,,,,,,,decisionTrl,resources/DP.BMP,resources/DB.BMP,Door4,-0.325124387,0.041750449,1,0,0,1.1952,optionLeft,60,12680,6,12,0,12,0,1,,,,,,,,,,,,,,,,,,,,,,,,,,,,,,,,,,,,,,,
,,,,,,,,2023-08-16_08h06.09.755,HF_wild_card,2022.2.4,Linux x86_64,60.0024001,5ee3be6ff942c407cd54e6ce,64d2fd46c836a06233681665,64dc7447d4ec9d8f39c4936c,,,,,,,decisionTrl,resources/DP.BMP,resources/DBN.BMP,WildCard_Ex,0.311403486,0.030742822,1,0,0,1.2296,optionRight,5,12685,6,13,0,13,0,1,,,,,,,,,,,,,,,,,,,,,,,,,,,,,,,,,,,,,,,
,,,,,,,,2023-08-16_08h06.09.755,HF_wild_card,2022.2.4,Linux x86_64,60.0024001,5ee3be6ff942c407cd54e6ce,64d2fd46c836a06233681665,64dc7447d4ec9d8f39c4936c,,,,,,,decisionTrl,resources/DY.BMP,resources/DR.BMP,Door2,-0.298275065,0.046078647,1,0,0,1.4794,optionLeft,20,12705,6,14,0,14,0,1,,,,,,,,,,,,,,,,,,,,,,,,,,,,,,,,,,,,,,,
,,,,,,,,2023-08-16_08h06.09.755,HF_wild_card,2022.2.4,Linux x86_64,60.0024001,5ee3be6ff942c407cd54e6ce,64d2fd46c836a06233681665,64dc7447d4ec9d8f39c4936c,,,,,,,sngl,resources/DY.BMP,resources/Empty.png,Door2,-0.256539663,0.034647235,1,0,0,1.1134,optionLeft,20,12725,6,15,0,15,0,1,,,,,,,,,,,,,,,,,,,,,,,,,,,,,,,,,,,,,,,
,,,,,,,,2023-08-16_08h06.09.755,HF_wild_card,2022.2.4,Linux x86_64,60.0024001,5ee3be6ff942c407cd54e6ce,64d2fd46c836a06233681665,64dc7447d4ec9d8f39c4936c,,,,,,,decisionTrl,resources/DP.BMP,resources/DB.BMP,Door3,0.360703786,0.076624694,1,0,0,1.4975,optionRight,70,12795,6,16,0,16,0,1,,,,,,,,,,,,,,,,,,,,,,,,,,,,,,,,,,,,,,,
,,,,,,,,2023-08-16_08h06.09.755,HF_wild_card,2022.2.4,Linux x86_64,60.0024001,5ee3be6ff942c407cd54e6ce,64d2fd46c836a06233681665,64dc7447d4ec9d8f39c4936c,,,,,,,sngl,resources/DP.BMP,resources/Empty.png,Door4,-0.380909213,-0.021955702,1,0,0,0.9309,optionLeft,60,12855,6,17,0,17,0,1,,,,,,,,,,,,,,,,,,,,,,,,,,,,,,,,,,,,,,,
,,,,,,,,2023-08-16_08h06.09.755,HF_wild_card,2022.2.4,Linux x86_64,60.0024001,5ee3be6ff942c407cd54e6ce,64d2fd46c836a06233681665,64dc7447d4ec9d8f39c4936c,,,,,,,decisionTrl,resources/DBN.BMP,resources/DP.BMP,WildCard_Ex,-0.310182925,0.081909286,1,0,0,1.7197,optionLeft,5,12860,6,18,0,18,0,1,,,,,,,,,,,,,,,,,,,,,,,,,,,,,,,,,,,,,,,
,,,,,,,,2023-08-16_08h06.09.755,HF_wild_card,2022.2.4,Linux x86_64,60.0024001,5ee3be6ff942c407cd54e6ce,64d2fd46c836a06233681665,64dc7447d4ec9d8f39c4936c,,,,,,,decisionTrl,resources/DP.BMP,resources/DB.BMP,Door4,-0.367049253,0.068029156,1,0,0,1.5291,optionLeft,80,12940,6,19,0,19,0,1,,,,,,,,,,,,,,,,,,,,,,,,,,,,,,,,,,,,,,,
,,,,,,,,2023-08-16_08h06.09.755,HF_wild_card,2022.2.4,Linux x86_64,60.0024001,5ee3be6ff942c407cd54e6ce,64d2fd46c836a06233681665,64dc7447d4ec9d8f39c4936c,,,,,,,decisionTrl,resources/DR.BMP,resources/DBN.BMP,WildCard_Ex,0.370422787,0.006624222,1,0,0,1.1788,optionRight,95,13035,6,20,0,20,0,1,,,,,,,,,,,,,,,,,,,,,,,,,,,,,,,,,,,,,,,
,,,,,,,,2023-08-16_08h06.09.755,HF_wild_card,2022.2.4,Linux x86_64,60.0024001,5ee3be6ff942c407cd54e6ce,64d2fd46c836a06233681665,64dc7447d4ec9d8f39c4936c,,,,,,,ctch,resources/DY.BMP,resources/DB.BMP,Door3,0.512481266,0.062015145,1,0,0,1.6118,optionRight,70,13105,6,21,0,21,0,1,,,,,,,,,,,,,,,,,,,,,,,,,,,,,,,,,,,,,,,
,,,,,,,,2023-08-16_08h06.09.755,HF_wild_card,2022.2.4,Linux x86_64,60.0024001,5ee3be6ff942c407cd54e6ce,64d2fd46c836a06233681665,64dc7447d4ec9d8f39c4936c,,,,,,,sngl,resources/Empty.png,resources/DB.BMP,Door3,0.376787963,0.001180013,1,0,0,0.9802,optionRight,70,13175,6,22,0,22,0,1,,,,,,,,,,,,,,,,,,,,,,,,,,,,,,,,,,,,,,,
,,,,,,,,2023-08-16_08h06.09.755,HF_wild_card,2022.2.4,Linux x86_64,60.0024001,5ee3be6ff942c407cd54e6ce,64d2fd46c836a06233681665,64dc7447d4ec9d8f39c4936c,,,,,,,decisionTrl,resources/DB.BMP,resources/DBN.BMP,WildCard_Ex,0.35357666,0.029572981,1,0,0,1.2967,optionRight,95,13270,6,23,0,23,0,1,,,,,,,,,,,,,,,,,,,,,,,,,,,,,,,,,,,,,,,
,,,,,,,,2023-08-16_08h06.09.755,HF_wild_card,2022.2.4,Linux x86_64,60.0024001,5ee3be6ff942c407cd54e6ce,64d2fd46c836a06233681665,64dc7447d4ec9d8f39c4936c,,,,,,,sngl,resources/DB.BMP,resources/Empty.png,Door3,-0.324272438,-0.009848383,1,0,0,1.1304,optionLeft,70,13340,6,24,0,24,0,1,,,,,,,,,,,,,,,,,,,,,,,,,,,,,,,,,,,,,,,
,,,,,,,,2023-08-16_08h06.09.755,HF_wild_card,2022.2.4,Linux x86_64,60.0024001,5ee3be6ff942c407cd54e6ce,64d2fd46c836a06233681665,64dc7447d4ec9d8f39c4936c,,,,,,,decisionTrl,resources/DR.BMP,resources/DY.BMP,Door1,-0.450762007,0.060349252,1,0,0,1.8628,optionLeft,30,13370,6,25,0,25,0,1,,,,,,,,,,,,,,,,,,,,,,,,,,,,,,,,,,,,,,,
,,,,,,,,2023-08-16_08h06.09.755,HF_wild_card,2022.2.4,Linux x86_64,60.0024001,5ee3be6ff942c407cd54e6ce,64d2fd46c836a06233681665,64dc7447d4ec9d8f39c4936c,,,,,,,ctch,resources/DB.BMP,resources/DY.BMP,Door3,-0.406139515,0.008273372,1,0,0,1.3969,optionLeft,70,13440,6,26,0,26,0,1,,,,,,,,,,,,,,,,,,,,,,,,,,,,,,,,,,,,,,,
,,,,,,,,2023-08-16_08h06.09.755,HF_wild_card,2022.2.4,Linux x86_64,60.0024001,5ee3be6ff942c407cd54e6ce,64d2fd46c836a06233681665,64dc7447d4ec9d8f39c4936c,,,,,,,decisionTrl,resources/DR.BMP,resources/DY.BMP,Door2,0.301524268,0.046283051,1,0,0,1.5399,optionRight,40,13480,6,27,0,27,0,1,,,,,,,,,,,,,,,,,,,,,,,,,,,,,,,,,,,,,,,
,,,,,,,,2023-08-16_08h06.09.755,HF_wild_card,2022.2.4,Linux x86_64,60.0024001,5ee3be6ff942c407cd54e6ce,64d2fd46c836a06233681665,64dc7447d4ec9d8f39c4936c,,,,,,,decisionTrl,resources/DB.BMP,resources/DP.BMP,Door3,-0.369827942,0.05060309,1,0,0,2.3801,optionLeft,70,13550,6,28,0,28,0,1,,,,,,,,,,,,,,,,,,,,,,,,,,,,,,,,,,,,,,,
,,,,,,,,2023-08-16_08h06.09.755,HF_wild_card,2022.2.4,Linux x86_64,60.0024001,5ee3be6ff942c407cd54e6ce,64d2fd46c836a06233681665,64dc7447d4ec9d8f39c4936c,,,,,,,sngl,resources/Empty.png,resources/DBN.BMP,WildCard_Ex,0.46700527,0.060442854,1,0,0,0.949,optionRight,5,13555,6,29,0,29,0,1,,,,,,,,,,,,,,,,,,,,,,,,,,,,,,,,,,,,,,,
,,,,,,,,2023-08-16_08h06.09.755,HF_wild_card,2022.2.4,Linux x86_64,60.0024001,5ee3be6ff942c407cd54e6ce,64d2fd46c836a06233681665,64dc7447d4ec9d8f39c4936c,,,,,,,decisionTrl,resources/DY.BMP,resources/DR.BMP,Door1,0.403433199,0.092523963,1,0,0,1.5486,optionRight,30,13585,6,30,0,30,0,1,,,,,,,,,,,,,,,,,,,,,,,,,,,,,,,,,,,,,,,
,,,,,,,,2023-08-16_08h06.09.755,HF_wild_card,2022.2.4,Linux x86_64,60.0024001,5ee3be6ff942c407cd54e6ce,64d2fd46c836a06233681665,64dc7447d4ec9d8f39c4936c,,,,,,,ctch,resources/DP.BMP,resources/DR.BMP,Door4,-0.33624861,0.042586468,1,0,0,1.4135,optionLeft,60,13645,6,31,0,31,0,1,,,,,,,,,,,,,,,,,,,,,,,,,,,,,,,,,,,,,,,
,,,,,,,,2023-08-16_08h06.09.755,HF_wild_card,2022.2.4,Linux x86_64,60.0024001,5ee3be6ff942c407cd54e6ce,64d2fd46c836a06233681665,64dc7447d4ec9d8f39c4936c,,,,,,,sngl,resources/Empty.png,resources/DBN.BMP,WildCard_Ex,0.354459833,0.007740833,1,0,0,0.997,optionRight,95,13740,6,32,0,32,0,1,,,,,,,,,,,,,,,,,,,,,,,,,,,,,,,,,,,,,,,
,,,,,,,,2023-08-16_08h06.09.755,HF_wild_card,2022.2.4,Linux x86_64,60.0024001,5ee3be6ff942c407cd54e6ce,64d2fd46c836a06233681665,64dc7447d4ec9d8f39c4936c,,,,,,,sngl,resources/DBN.BMP,resources/Empty.png,WildCard_Ex,-0.360638689,0.082911739,1,0,0,0.8436,optionLeft,5,13745,6,33,0,33,0,1,,,,,,,,,,,,,,,,,,,,,,,,,,,,,,,,,,,,,,,
,,,,,,,,2023-08-16_08h06.09.755,HF_wild_card,2022.2.4,Linux x86_64,60.0024001,5ee3be6ff942c407cd54e6ce,64d2fd46c836a06233681665,64dc7447d4ec9d8f39c4936c,,,,,,,ctch,resources/DY.BMP,resources/DB.BMP,Door3,0.361355817,0.033360552,1,0,0,1.2236,optionRight,70,13815,6,34,0,34,0,1,,,,,,,,,,,,,,,,,,,,,,,,,,,,,,,,,,,,,,,
,,,,,,,,2023-08-16_08h06.09.755,HF_wild_card,2022.2.4,Linux x86_64,60.0024001,5ee3be6ff942c407cd54e6ce,64d2fd46c836a06233681665,64dc7447d4ec9d8f39c4936c,,,,,,,decisionTrl,resources/DP.BMP,resources/DB.BMP,Door4,-0.342881838,0.057078079,1,0,0,1.979,optionLeft,60,13875,6,35,0,35,0,1,,,,,,,,,,,,,,,,,,,,,,,,,,,,,,,,,,,,,,,
,,,,,,,,2023-08-16_08h06.09.755,HF_wild_card,2022.2.4,Linux x86_64,60.0024001,5ee3be6ff942c407cd54e6ce,64d2fd46c836a06233681665,64dc7447d4ec9d8f39c4936c,,,,,,,decisionTrl,resources/DR.BMP,resources/DY.BMP,Door2,0.351693047,0.051849295,1,0,0,1.3002,optionRight,20,13895,6,36,0,36,0,1,,,,,,,,,,,,,,,,,,,,,,,,,,,,,,,,,,,,,,,
,,,,,,,,2023-08-16_08h06.09.755,HF_wild_card,2022.2.4,Linux x86_64,60.0024001,5ee3be6ff942c407cd54e6ce,64d2fd46c836a06233681665,64dc7447d4ec9d8f39c4936c,,,,,,,decisionTrl,resources/DY.BMP,resources/DR.BMP,Door1,0.330822839,0.01773866,1,0,0,1.1072,optionRight,30,13925,6,37,0,37,0,1,,,,,,,,,,,,,,,,,,,,,,,,,,,,,,,,,,,,,,,
,,,,,,,,2023-08-16_08h06.09.755,HF_wild_card,2022.2.4,Linux x86_64,60.0024001,5ee3be6ff942c407cd54e6ce,64d2fd46c836a06233681665,64dc7447d4ec9d8f39c4936c,,,,,,,sngl,resources/DR.BMP,resources/Empty.png,Door1,-0.299876213,0.001331471,1,0,0,0.8468,optionLeft,30,13955,6,38,0,38,0,1,,,,,,,,,,,,,,,,,,,,,,,,,,,,,,,,,,,,,,,
,,,,,,,,2023-08-16_08h06.09.755,HF_wild_card,2022.2.4,Linux x86_64,60.0024001,5ee3be6ff942c407cd54e6ce,64d2fd46c836a06233681665,64dc7447d4ec9d8f39c4936c,,,,,,,decisionTrl,resources/DBN.BMP,resources/DY.BMP,WildCard_Ex,-0.328847567,0.060800906,1,0,0,1.2457,optionLeft,5,13960,6,39,0,39,0,1,,,,,,,,,,,,,,,,,,,,,,,,,,,,,,,,,,,,,,,
,,,,,,,,2023-08-16_08h06.09.755,HF_wild_card,2022.2.4,Linux x86_64,60.0024001,5ee3be6ff942c407cd54e6ce,64d2fd46c836a06233681665,64dc7447d4ec9d8f39c4936c,,,,,,,sngl,resources/DBN.BMP,resources/Empty.png,WildCard_Ex,-0.382518627,0.104301276,1,0,0,0.8472,optionLeft,95,14055,6,40,0,40,0,1,,,,,,,,,,,,,,,,,,,,,,,,,,,,,,,,,,,,,,,
,,,,,,,,2023-08-16_08h06.09.755,HF_wild_card,2022.2.4,Linux x86_64,60.0024001,5ee3be6ff942c407cd54e6ce,64d2fd46c836a06233681665,64dc7447d4ec9d8f39c4936c,,,,,,,ctch,resources/DP.BMP,resources/DR.BMP,Door4,-0.453299946,0.012911655,1,0,0,1.7132,optionLeft,80,14135,6,41,0,41,0,1,,,,,,,,,,,,,,,,,,,,,,,,,,,,,,,,,,,,,,,
,,,,,,,,2023-08-16_08h06.09.755,HF_wild_card,2022.2.4,Linux x86_64,60.0024001,5ee3be6ff942c407cd54e6ce,64d2fd46c836a06233681665,64dc7447d4ec9d8f39c4936c,,,,,,,sngl,resources/Empty.png,resources/DP.BMP,Door4,0.305315795,0.012091177,1,0,0,0.9851,optionRight,80,14215,6,42,0,42,0,1,,,,,,,,,,,,,,,,,,,,,,,,,,,,,,,,,,,,,,,
,,,,,,,,2023-08-16_08h06.09.755,HF_wild_card,2022.2.4,Linux x86_64,60.0024001,5ee3be6ff942c407cd54e6ce,64d2fd46c836a06233681665,64dc7447d4ec9d8f39c4936c,,,,,,,ctch,resources/DB.BMP,resources/DY.BMP,Door3,-0.382707313,0.035527724,1,0,0,1.3971,optionLeft,70,14285,6,43,0,43,0,1,,,,,,,,,,,,,,,,,,,,,,,,,,,,,,,,,,,,,,,
,,,,,,,,2023-08-16_08h06.09.755,HF_wild_card,2022.2.4,Linux x86_64,60.0024001,5ee3be6ff942c407cd54e6ce,64d2fd46c836a06233681665,64dc7447d4ec9d8f39c4936c,,,,,,,,,,,,,,,,,,,,,,,,,,5,0,5,0,1,,,,,,,,,,,,,,,,,,,,,,,,,,,,,,,,,,
,,,,,,,,2023-08-16_08h06.09.755,HF_wild_card,2022.2.4,Linux x86_64,60.0024001,5ee3be6ff942c407cd54e6ce,64d2fd46c836a06233681665,64dc7447d4ec9d8f39c4936c,,,,,,,ctch,resources/DB.BMP,resources/DY.BMP,Door3,-0.428005466,-0.001544811,1,0,0,1.3678,optionLeft,70,14355,7,0,0,0,0,1,,,,,,,,,,,,,,,,,,,,,,,,,,,,,,,,,,,,,,,
,,,,,,,,2023-08-16_08h06.09.755,HF_wild_card,2022.2.4,Linux x86_64,60.0024001,5ee3be6ff942c407cd54e6ce,64d2fd46c836a06233681665,64dc7447d4ec9d8f39c4936c,,,,,,,decisionTrl,resources/DP.BMP,resources/DB.BMP,Door4,-0.358938641,0.048140385,1,0,0,1.2959,optionLeft,80,14435,7,1,0,1,0,1,,,,,,,,,,,,,,,,,,,,,,,,,,,,,,,,,,,,,,,
,,,,,,,,2023-08-16_08h06.09.755,HF_wild_card,2022.2.4,Linux x86_64,60.0024001,5ee3be6ff942c407cd54e6ce,64d2fd46c836a06233681665,64dc7447d4ec9d8f39c4936c,,,,,,,decisionTrl,resources/DY.BMP,resources/DR.BMP,Door1,0.353238565,0.053443026,1,0,0,1.3308,optionRight,30,14465,7,2,0,2,0,1,,,,,,,,,,,,,,,,,,,,,,,,,,,,,,,,,,,,,,,
,,,,,,,,2023-08-16_08h06.09.755,HF_wild_card,2022.2.4,Linux x86_64,60.0024001,5ee3be6ff942c407cd54e6ce,64d2fd46c836a06233681665,64dc7447d4ec9d8f39c4936c,,,,,,,ctch,resources/DR.BMP,resources/DP.BMP,Door4,0.460854283,0.05548071,1,0,0,1.3654,optionRight,80,14545,7,3,0,3,0,1,,,,,,,,,,,,,,,,,,,,,,,,,,,,,,,,,,,,,,,
,,,,,,,,2023-08-16_08h06.09.755,HF_wild_card,2022.2.4,Linux x86_64,60.0024001,5ee3be6ff942c407cd54e6ce,64d2fd46c836a06233681665,64dc7447d4ec9d8f39c4936c,,,,,,,ctch,resources/DB.BMP,resources/DY.BMP,Door3,-0.323681513,0.036035785,1,0,0,1.1658,optionLeft,70,14615,7,4,0,4,0,1,,,,,,,,,,,,,,,,,,,,,,,,,,,,,,,,,,,,,,,
,,,,,,,,2023-08-16_08h06.09.755,HF_wild_card,2022.2.4,Linux x86_64,60.0024001,5ee3be6ff942c407cd54e6ce,64d2fd46c836a06233681665,64dc7447d4ec9d8f39c4936c,,,,,,,ctch,resources/DY.BMP,resources/DB.BMP,Door3,0.343211986,0.042612888,1,0,0,1.1127,optionRight,70,14685,7,5,0,5,0,1,,,,,,,,,,,,,,,,,,,,,,,,,,,,,,,,,,,,,,,
,,,,,,,,2023-08-16_08h06.09.755,HF_wild_card,2022.2.4,Linux x86_64,60.0024001,5ee3be6ff942c407cd54e6ce,64d2fd46c836a06233681665,64dc7447d4ec9d8f39c4936c,,,,,,,decisionTrl,resources/DB.BMP,resources/DP.BMP,Door3,-0.306369287,-0.014953507,1,0,0,1.982,optionLeft,70,14755,7,6,0,6,0,1,,,,,,,,,,,,,,,,,,,,,,,,,,,,,,,,,,,,,,,
,,,,,,,,2023-08-16_08h06.09.755,HF_wild_card,2022.2.4,Linux x86_64,60.0024001,5ee3be6ff942c407cd54e6ce,64d2fd46c836a06233681665,64dc7447d4ec9d8f39c4936c,,,,,,,ctch,resources/DP.BMP,resources/DR.BMP,Door4,-0.323744138,0.038459813,1,0,0,1.5501,optionLeft,80,14835,7,7,0,7,0,1,,,,,,,,,,,,,,,,,,,,,,,,,,,,,,,,,,,,,,,
,,,,,,,,2023-08-16_08h06.09.755,HF_wild_card,2022.2.4,Linux x86_64,60.0024001,5ee3be6ff942c407cd54e6ce,64d2fd46c836a06233681665,64dc7447d4ec9d8f39c4936c,,,,,,,ctch,resources/DP.BMP,resources/DR.BMP,Door4,-0.397913368,0.05607831,1,0,0,1.016,optionLeft,80,14915,7,8,0,8,0,1,,,,,,,,,,,,,,,,,,,,,,,,,,,,,,,,,,,,,,,
,,,,,,,,2023-08-16_08h06.09.755,HF_wild_card,2022.2.4,Linux x86_64,60.0024001,5ee3be6ff942c407cd54e6ce,64d2fd46c836a06233681665,64dc7447d4ec9d8f39c4936c,,,,,,,ctch,resources/DY.BMP,resources/DB.BMP,Door3,0.389552505,0.028515851,1,0,0,1.2488,optionRight,70,14985,7,9,0,9,0,1,,,,,,,,,,,,,,,,,,,,,,,,,,,,,,,,,,,,,,,
,,,,,,,,2023-08-16_08h06.09.755,HF_wild_card,2022.2.4,Linux x86_64,60.0024001,5ee3be6ff942c407cd54e6ce,64d2fd46c836a06233681665,64dc7447d4ec9d8f39c4936c,,,,,,,ctch,resources/DY.BMP,resources/DB.BMP,Door3,0.438633248,0.051128988,1,0,0,1.0305,optionRight,70,15055,7,10,0,10,0,1,,,,,,,,,,,,,,,,,,,,,,,,,,,,,,,,,,,,,,,
,,,,,,,,2023-08-16_08h06.09.755,HF_wild_card,2022.2.4,Linux x86_64,60.0024001,5ee3be6ff942c407cd54e6ce,64d2fd46c836a06233681665,64dc7447d4ec9d8f39c4936c,,,,,,,decisionTrl,resources/DP.BMP,resources/DB.BMP,Door3,0.376676913,0.003133067,1,0,0,0.9319,optionRight,70,15125,7,11,0,11,0,1,,,,,,,,,,,,,,,,,,,,,,,,,,,,,,,,,,,,,,,
,,,,,,,,2023-08-16_08h06.09.755,HF_wild_card,2022.2.4,Linux x86_64,60.0024001,5ee3be6ff942c407cd54e6ce,64d2fd46c836a06233681665,64dc7447d4ec9d8f39c4936c,,,,,,,decisionTrl,resources/DR.BMP,resources/DY.BMP,Door1,-0.339345861,0.004716555,1,0,0,1.5984,optionLeft,30,15155,7,12,0,12,0,1,,,,,,,,,,,,,,,,,,,,,,,,,,,,,,,,,,,,,,,
,,,,,,,,2023-08-16_08h06.09.755,HF_wild_card,2022.2.4,Linux x86_64,60.0024001,5ee3be6ff942c407cd54e6ce,64d2fd46c836a06233681665,64dc7447d4ec9d8f39c4936c,,,,,,,ctch,resources/DB.BMP,resources/DY.BMP,Door3,-0.316595289,0.050055645,1,0,0,1.2154,optionLeft,70,15225,7,13,0,13,0,1,,,,,,,,,,,,,,,,,,,,,,,,,,,,,,,,,,,,,,,
,,,,,,,,2023-08-16_08h06.09.755,HF_wild_card,2022.2.4,Linux x86_64,60.0024001,5ee3be6ff942c407cd54e6ce,64d2fd46c836a06233681665,64dc7447d4ec9d8f39c4936c,,,,,,,ctch,resources/DR.BMP,resources/DP.BMP,Door4,0.389744088,0.014600153,1,0,0,1.2981,optionRight,60,15285,7,14,0,14,0,1,,,,,,,,,,,,,,,,,,,,,,,,,,,,,,,,,,,,,,,
,,,,,,,,2023-08-16_08h06.09.755,HF_wild_card,2022.2.4,Linux x86_64,60.0024001,5ee3be6ff942c407cd54e6ce,64d2fd46c836a06233681665,64dc7447d4ec9d8f39c4936c,,,,,,,decisionTrl,resources/DB.BMP,resources/DP.BMP,Door4,0.463091674,0.066008285,1,0,0,1.9484,optionRight,60,15345,7,15,0,15,0,1,,,,,,,,,,,,,,,,,,,,,,,,,,,,,,,,,,,,,,,
,,,,,,,,2023-08-16_08h06.09.755,HF_wild_card,2022.2.4,Linux x86_64,60.0024001,5ee3be6ff942c407cd54e6ce,64d2fd46c836a06233681665,64dc7447d4ec9d8f39c4936c,,,,,,,decisionTrl,resources/DR.BMP,resources/DY.BMP,Door1,-0.453907755,0.024202241,1,0,0,1.5818,optionLeft,30,15375,7,16,0,16,0,1,,,,,,,,,,,,,,,,,,,,,,,,,,,,,,,,,,,,,,,
,,,,,,,,2023-08-16_08h06.09.755,HF_wild_card,2022.2.4,Linux x86_64,60.0024001,5ee3be6ff942c407cd54e6ce,64d2fd46c836a06233681665,64dc7447d4ec9d8f39c4936c,,,,,,,decisionTrl,resources/DR.BMP,resources/DY.BMP,Door1,-0.312568276,0.008817708,1,0,0,1.1129,optionLeft,30,15405,7,17,0,17,0,1,,,,,,,,,,,,,,,,,,,,,,,,,,,,,,,,,,,,,,,
,,,,,,,,2023-08-16_08h06.09.755,HF_wild_card,2022.2.4,Linux x86_64,60.0024001,5ee3be6ff942c407cd54e6ce,64d2fd46c836a06233681665,64dc7447d4ec9d8f39c4936c,,,,,,,decisionTrl,resources/DR.BMP,resources/DY.BMP,Door1,-0.359584596,0.011265048,1,0,0,0.9826,optionLeft,30,15435,7,18,0,18,0,1,,,,,,,,,,,,,,,,,,,,,,,,,,,,,,,,,,,,,,,
,,,,,,,,2023-08-16_08h06.09.755,HF_wild_card,2022.2.4,Linux x86_64,60.0024001,5ee3be6ff942c407cd54e6ce,64d2fd46c836a06233681665,64dc7447d4ec9d8f39c4936c,,,,,,,decisionTrl,resources/DB.BMP,resources/DP.BMP,Door3,-0.399691476,0.044417063,1,0,0,1.4806,optionLeft,70,15505,7,19,0,19,0,1,,,,,,,,,,,,,,,,,,,,,,,,,,,,,,,,,,,,,,,
,,,,,,,,2023-08-16_08h06.09.755,HF_wild_card,2022.2.4,Linux x86_64,60.0024001,5ee3be6ff942c407cd54e6ce,64d2fd46c836a06233681665,64dc7447d4ec9d8f39c4936c,,,,,,,decisionTrl,resources/DY.BMP,resources/DR.BMP,Door1,0.328239158,0.029344523,1,0,0,1.5151,optionRight,30,15535,7,20,0,20,0,1,,,,,,,,,,,,,,,,,,,,,,,,,,,,,,,,,,,,,,,
,,,,,,,,2023-08-16_08h06.09.755,HF_wild_card,2022.2.4,Linux x86_64,60.0024001,5ee3be6ff942c407cd54e6ce,64d2fd46c836a06233681665,64dc7447d4ec9d8f39c4936c,,,,,,,decisionTrl,resources/DB.BMP,resources/DP.BMP,Door3,-0.346745138,0.053475592,1,0,0,1.215,optionLeft,70,15605,7,21,0,21,0,1,,,,,,,,,,,,,,,,,,,,,,,,,,,,,,,,,,,,,,,
,,,,,,,,2023-08-16_08h06.09.755,HF_wild_card,2022.2.4,Linux x86_64,60.0024001,5ee3be6ff942c407cd54e6ce,64d2fd46c836a06233681665,64dc7447d4ec9d8f39c4936c,,,,,,,decisionTrl,resources/DY.BMP,resources/DR.BMP,Door1,0.378311864,-0.00347692,1,0,0,1.6152,optionRight,30,15635,7,22,0,22,0,1,,,,,,,,,,,,,,,,,,,,,,,,,,,,,,,,,,,,,,,
,,,,,,,,2023-08-16_08h06.09.755,HF_wild_card,2022.2.4,Linux x86_64,60.0024001,5ee3be6ff942c407cd54e6ce,64d2fd46c836a06233681665,64dc7447d4ec9d8f39c4936c,,,,,,,decisionTrl,resources/DY.BMP,resources/DR.BMP,Door1,0.272253672,0.014851252,1,0,0,1.1134,optionRight,30,15665,7,23,0,23,0,1,,,,,,,,,,,,,,,,,,,,,,,,,,,,,,,,,,,,,,,
,,,,,,,,2023-08-16_08h06.09.755,HF_wild_card,2022.2.4,Linux x86_64,60.0024001,5ee3be6ff942c407cd54e6ce,64d2fd46c836a06233681665,64dc7447d4ec9d8f39c4936c,,,,,,,decisionTrl,resources/DR.BMP,resources/DY.BMP,Door1,-0.298140243,0.035096239,1,0,0,1.3329,optionLeft,30,15695,7,24,0,24,0,1,,,,,,,,,,,,,,,,,,,,,,,,,,,,,,,,,,,,,,,
,,,,,,,,2023-08-16_08h06.09.755,HF_wild_card,2022.2.4,Linux x86_64,60.0024001,5ee3be6ff942c407cd54e6ce,64d2fd46c836a06233681665,64dc7447d4ec9d8f39c4936c,,,,,,,decisionTrl,resources/DP.BMP,resources/DB.BMP,Door4,-0.393436856,0.053096948,1,0,0,1.5623,optionLeft,60,15755,7,25,0,25,0,1,,,,,,,,,,,,,,,,,,,,,,,,,,,,,,,,,,,,,,,
,,,,,,,,2023-08-16_08h06.09.755,HF_wild_card,2022.2.4,Linux x86_64,60.0024001,5ee3be6ff942c407cd54e6ce,64d2fd46c836a06233681665,64dc7447d4ec9d8f39c4936c,,,,,,,decisionTrl,resources/DR.BMP,resources/DY.BMP,Door2,0.398678532,0.089311247,1,0,0,1.6974,optionRight,20,15775,7,26,0,26,0,1,,,,,,,,,,,,,,,,,,,,,,,,,,,,,,,,,,,,,,,
,,,,,,,,2023-08-16_08h06.09.755,HF_wild_card,2022.2.4,Linux x86_64,60.0024001,5ee3be6ff942c407cd54e6ce,64d2fd46c836a06233681665,64dc7447d4ec9d8f39c4936c,,,,,,,ctch,resources/DR.BMP,resources/DP.BMP,Door4,0.364634055,0.051498731,1,0,0,1.2481,optionRight,60,15835,7,27,0,27,0,1,,,,,,,,,,,,,,,,,,,,,,,,,,,,,,,,,,,,,,,
,,,,,,,,2023-08-16_08h06.09.755,HF_wild_card,2022.2.4,Linux x86_64,60.0024001,5ee3be6ff942c407cd54e6ce,64d2fd46c836a06233681665,64dc7447d4ec9d8f39c4936c,,,,,,,decisionTrl,resources/DY.BMP,resources/DR.BMP,Door1,0.336862493,0.044584168,1,0,0,1.9984,optionRight,30,15865,7,28,0,28,0,1,,,,,,,,,,,,,,,,,,,,,,,,,,,,,,,,,,,,,,,
,,,,,,,,2023-08-16_08h06.09.755,HF_wild_card,2022.2.4,Linux x86_64,60.0024001,5ee3be6ff942c407cd54e6ce,64d2fd46c836a06233681665,64dc7447d4ec9d8f39c4936c,,,,,,,ctch,resources/DP.BMP,resources/DR.BMP,Door4,-0.318442945,0.047132739,1,0,0,1.1149,optionLeft,60,15925,7,29,0,29,0,1,,,,,,,,,,,,,,,,,,,,,,,,,,,,,,,,,,,,,,,
,,,,,,,,2023-08-16_08h06.09.755,HF_wild_card,2022.2.4,Linux x86_64,60.0024001,5ee3be6ff942c407cd54e6ce,64d2fd46c836a06233681665,64dc7447d4ec9d8f39c4936c,,,,,,,decisionTrl,resources/DY.BMP,resources/DR.BMP,Door1,0.476153338,0.055152505,1,0,0,1.574,optionRight,30,15955,7,30,0,30,0,1,,,,,,,,,,,,,,,,,,,,,,,,,,,,,,,,,,,,,,,
,,,,,,,,2023-08-16_08h06.09.755,HF_wild_card,2022.2.4,Linux x86_64,60.0024001,5ee3be6ff942c407cd54e6ce,64d2fd46c836a06233681665,64dc7447d4ec9d8f39c4936c,,,,,,,decisionTrl,resources/DP.BMP,resources/DB.BMP,Door4,-0.313806075,-0.013941835,1,0,0,1.4988,optionLeft,80,16035,7,31,0,31,0,1,,,,,,,,,,,,,,,,,,,,,,,,,,,,,,,,,,,,,,,
,,,,,,,,2023-08-16_08h06.09.755,HF_wild_card,2022.2.4,Linux x86_64,60.0024001,5ee3be6ff942c407cd54e6ce,64d2fd46c836a06233681665,64dc7447d4ec9d8f39c4936c,,,,,,,decisionTrl,resources/DP.BMP,resources/DB.BMP,Door3,0.35449911,0.025269685,1,0,0,1.033,optionRight,70,16105,7,32,0,32,0,1,,,,,,,,,,,,,,,,,,,,,,,,,,,,,,,,,,,,,,,
,,,,,,,,2023-08-16_08h06.09.755,HF_wild_card,2022.2.4,Linux x86_64,60.0024001,5ee3be6ff942c407cd54e6ce,64d2fd46c836a06233681665,64dc7447d4ec9d8f39c4936c,,,,,,,decisionTrl,resources/DB.BMP,resources/DP.BMP,Door3,-0.356110679,0.038884869,1,0,0,1.1046,optionLeft,70,16175,7,33,0,33,0,1,,,,,,,,,,,,,,,,,,,,,,,,,,,,,,,,,,,,,,,
,,,,,,,,2023-08-16_08h06.09.755,HF_wild_card,2022.2.4,Linux x86_64,60.0024001,5ee3be6ff942c407cd54e6ce,64d2fd46c836a06233681665,64dc7447d4ec9d8f39c4936c,,,,,,,decisionTrl,resources/DP.BMP,resources/DB.BMP,Door3,0.327157056,0.019596241,1,0,0,1.1984,optionRight,70,16245,7,34,0,34,0,1,,,,,,,,,,,,,,,,,,,,,,,,,,,,,,,,,,,,,,,
,,,,,,,,2023-08-16_08h06.09.755,HF_wild_card,2022.2.4,Linux x86_64,60.0024001,5ee3be6ff942c407cd54e6ce,64d2fd46c836a06233681665,64dc7447d4ec9d8f39c4936c,,,,,,,decisionTrl,resources/DB.BMP,resources/DP.BMP,Door4,0.333213524,0.000755628,1,0,0,1.1987,optionRight,80,16325,7,35,0,35,0,1,,,,,,,,,,,,,,,,,,,,,,,,,,,,,,,,,,,,,,,
,,,,,,,,2023-08-16_08h06.09.755,HF_wild_card,2022.2.4,Linux x86_64,60.0024001,5ee3be6ff942c407cd54e6ce,64d2fd46c836a06233681665,64dc7447d4ec9d8f39c4936c,,,,,,,,,,,,,,,,,,,,,,,,,,6,0,6,0,1,,,,,,,,,,,,,,,,,,,,,,,,,,,,,,,,,,
,,,,,,,,2023-08-16_08h06.09.755,HF_wild_card,2022.2.4,Linux x86_64,60.0024001,5ee3be6ff942c407cd54e6ce,64d2fd46c836a06233681665,64dc7447d4ec9d8f39c4936c,,,,,,,,,,,,,,,,,,,,,,,,,,,,,,,4,,,,,,,,,,,,,,,,,,,,,,,,,,,,,,,,,
