Condition,Low fixed image (Door1),Low risky image (Door2),High fixed image (Door3),High risky image (Door4),NonExtreme Wild Card 1,NonExtreme Wild Card 2,,date,expName,psychopyVersion,OS,frameRate,PROLIFIC_PID,STUDY_ID,SESSION_ID,mouse_2.x,mouse_2.y,mouse_2.leftButton,mouse_2.midButton,mouse_2.rightButton,mouse_2.clicked_name,Trial Type,Left Option Image,Right Option Image,Chosen Door,mouse.x,mouse.y,mouse.leftButton,mouse.midButton,mouse.rightButton,mouse.time,mouse.clicked_name,Feedback,Cumulative Reward,Block,trial.thisRepN,trial.thisTrialN,trial.thisN,trial.thisIndex,trial.ran,blocks.thisRepN,blocks.thisTrialN,blocks.thisN,blocks.thisIndex,blocks.ran,Money conversion,First Outcome Reported,Shown Door (First Outcome),Displayed Image (First Outcome),outcomes.thisRepN,outcomes.thisTrialN,outcomes.thisN,outcomes.thisIndex,outcomes.ran,judgments.thisRepN,judgments.thisTrialN,judgments.thisN,judgments.thisIndex,judgments.ran,freqMouse.x,freqMouse.y,freqMouse.leftButton,freqMouse.midButton,freqMouse.rightButton,freqMouse.clicked_name,FQJ for first outcome,FQJ for second outcome,Shown Door,Displayed Image,trials.thisRepN,trials.thisTrialN,trials.thisN,trials.thisIndex,trials.ran,judgBlock.thisRepN,judgBlock.thisTrialN,judgBlock.thisN,judgBlock.thisIndex,judgBlock.ran
2,resources/DR.BMP,resources/DP.BMP,resources/DY.BMP,resources/DB.BMP,resources/DBN.BMP,resources/DG.BMP,,2023-08-16_08h42.11.046,HF_wild_card,2022.2.4,Win32,59.23468783,5f3a7e7b3a55e009ff81175e,64d2fd46c836a06233681665,64dc7dc4fcf2642c89e295c6,,,,,,,,,,,,,,,,,,,,,,,,,,,,,,,,,,,,,,,,,,,,,,,,,,,,,,,,,,,,,,,,
,,,,,,,,2023-08-16_08h42.11.046,HF_wild_card,2022.2.4,Win32,59.23468783,5f3a7e7b3a55e009ff81175e,64d2fd46c836a06233681665,64dc7dc4fcf2642c89e295c6,0.015740783,-0.419444473,1,0,0,agree,,,,,,,,,,,,,,,,,,,,,,,,,,,,,,,,,,,,,,,,,,,,,,,,,,,,,,,,,,
,,,,,,,,2023-08-16_08h42.11.046,HF_wild_card,2022.2.4,Win32,59.23468783,5f3a7e7b3a55e009ff81175e,64d2fd46c836a06233681665,64dc7dc4fcf2642c89e295c6,,,,,,,,,,,,,,,,,,,,,,,,,,,,,,,,,,,,,,,,,,,,,,,,,,,,,,,,,,,,,,,,
,,,,,,,,2023-08-16_08h42.11.046,HF_wild_card,2022.2.4,Win32,59.23468783,5f3a7e7b3a55e009ff81175e,64d2fd46c836a06233681665,64dc7dc4fcf2642c89e295c6,,,,,,,sngl,resources/DG.BMP,resources/Empty.png,WildCard_NonEx,-0.384259259,-0.01666666,1,0,0,3.1323,optionLeft,45,45,1,0,0,0,0,1,,,,,,,,,,,,,,,,,,,,,,,,,,,,,,,,,,,,,,,
,,,,,,,,2023-08-16_08h42.11.046,HF_wild_card,2022.2.4,Win32,59.23468783,5f3a7e7b3a55e009ff81175e,64d2fd46c836a06233681665,64dc7dc4fcf2642c89e295c6,,,,,,,decisionTrl,resources/DP.BMP,resources/DR.BMP,Door2,-0.228703675,-0.031481496,1,0,0,1.7758,optionLeft,20,65,1,1,0,1,0,1,,,,,,,,,,,,,,,,,,,,,,,,,,,,,,,,,,,,,,,
,,,,,,,,2023-08-16_08h42.11.046,HF_wild_card,2022.2.4,Win32,59.23468783,5f3a7e7b3a55e009ff81175e,64d2fd46c836a06233681665,64dc7dc4fcf2642c89e295c6,,,,,,,sngl,resources/DG.BMP,resources/Empty.png,WildCard_NonEx,-0.40370369,-0.001851859,1,0,0,0.8621,optionLeft,55,120,1,2,0,2,0,1,,,,,,,,,,,,,,,,,,,,,,,,,,,,,,,,,,,,,,,
,,,,,,,,2023-08-16_08h42.11.046,HF_wild_card,2022.2.4,Win32,59.23468783,5f3a7e7b3a55e009ff81175e,64d2fd46c836a06233681665,64dc7dc4fcf2642c89e295c6,,,,,,,ctch,resources/DB.BMP,resources/DR.BMP,Door4,-0.326851845,-0.069444444,1,0,0,0.9964,optionLeft,60,180,1,3,0,3,0,1,,,,,,,,,,,,,,,,,,,,,,,,,,,,,,,,,,,,,,,
,,,,,,,,2023-08-16_08h42.11.046,HF_wild_card,2022.2.4,Win32,59.23468783,5f3a7e7b3a55e009ff81175e,64d2fd46c836a06233681665,64dc7dc4fcf2642c89e295c6,,,,,,,ctch,resources/DR.BMP,resources/DB.BMP,Door4,0.281481496,-0.017592607,1,0,0,1.2286,optionRight,80,260,1,4,0,4,0,1,,,,,,,,,,,,,,,,,,,,,,,,,,,,,,,,,,,,,,,
,,,,,,,,2023-08-16_08h42.11.046,HF_wild_card,2022.2.4,Win32,59.23468783,5f3a7e7b3a55e009ff81175e,64d2fd46c836a06233681665,64dc7dc4fcf2642c89e295c6,,,,,,,decisionTrl,resources/DY.BMP,resources/DG.BMP,Door3,-0.268518519,-0.009259259,1,0,0,2.3427,optionLeft,70,330,1,5,0,5,0,1,,,,,,,,,,,,,,,,,,,,,,,,,,,,,,,,,,,,,,,
,,,,,,,,2023-08-16_08h42.11.046,HF_wild_card,2022.2.4,Win32,59.23468783,5f3a7e7b3a55e009ff81175e,64d2fd46c836a06233681665,64dc7dc4fcf2642c89e295c6,,,,,,,decisionTrl,resources/DP.BMP,resources/DR.BMP,Door2,-0.233333305,-0.021296289,1,0,0,1.1754,optionLeft,40,370,1,6,0,6,0,1,,,,,,,,,,,,,,,,,,,,,,,,,,,,,,,,,,,,,,,
,,,,,,,,2023-08-16_08h42.11.046,HF_wild_card,2022.2.4,Win32,59.23468783,5f3a7e7b3a55e009ff81175e,64d2fd46c836a06233681665,64dc7dc4fcf2642c89e295c6,,,,,,,decisionTrl,resources/DY.BMP,resources/DB.BMP,Door4,0.287962949,-0.034259266,1,0,0,1.7103,optionRight,60,430,1,7,0,7,0,1,,,,,,,,,,,,,,,,,,,,,,,,,,,,,,,,,,,,,,,
,,,,,,,,2023-08-16_08h42.11.046,HF_wild_card,2022.2.4,Win32,59.23468783,5f3a7e7b3a55e009ff81175e,64d2fd46c836a06233681665,64dc7dc4fcf2642c89e295c6,,,,,,,decisionTrl,resources/DG.BMP,resources/DR.BMP,Door1,0.30277775,-0.042592614,1,0,0,1.047,optionRight,30,460,1,8,0,8,0,1,,,,,,,,,,,,,,,,,,,,,,,,,,,,,,,,,,,,,,,
,,,,,,,,2023-08-16_08h42.11.046,HF_wild_card,2022.2.4,Win32,59.23468783,5f3a7e7b3a55e009ff81175e,64d2fd46c836a06233681665,64dc7dc4fcf2642c89e295c6,,,,,,,decisionTrl,resources/DP.BMP,resources/DR.BMP,Door2,-0.255555541,-0.037037037,1,0,0,0.8635,optionLeft,40,500,1,9,0,9,0,1,,,,,,,,,,,,,,,,,,,,,,,,,,,,,,,,,,,,,,,
,,,,,,,,2023-08-16_08h42.11.046,HF_wild_card,2022.2.4,Win32,59.23468783,5f3a7e7b3a55e009ff81175e,64d2fd46c836a06233681665,64dc7dc4fcf2642c89e295c6,,,,,,,ctch,resources/DY.BMP,resources/DP.BMP,Door3,-0.224074046,-0.0074074,1,0,0,0.9632,optionLeft,70,570,1,10,0,10,0,1,,,,,,,,,,,,,,,,,,,,,,,,,,,,,,,,,,,,,,,
,,,,,,,,2023-08-16_08h42.11.046,HF_wild_card,2022.2.4,Win32,59.23468783,5f3a7e7b3a55e009ff81175e,64d2fd46c836a06233681665,64dc7dc4fcf2642c89e295c6,,,,,,,sngl,resources/DY.BMP,resources/Empty.png,Door3,-0.236111111,-0.001851859,1,0,0,0.8301,optionLeft,70,640,1,11,0,11,0,1,,,,,,,,,,,,,,,,,,,,,,,,,,,,,,,,,,,,,,,
,,,,,,,,2023-08-16_08h42.11.046,HF_wild_card,2022.2.4,Win32,59.23468783,5f3a7e7b3a55e009ff81175e,64d2fd46c836a06233681665,64dc7dc4fcf2642c89e295c6,,,,,,,decisionTrl,resources/DB.BMP,resources/DG.BMP,Door4,-0.240740741,-0.019444466,1,0,0,0.779,optionLeft,60,700,1,12,0,12,0,1,,,,,,,,,,,,,,,,,,,,,,,,,,,,,,,,,,,,,,,
,,,,,,,,2023-08-16_08h42.11.046,HF_wild_card,2022.2.4,Win32,59.23468783,5f3a7e7b3a55e009ff81175e,64d2fd46c836a06233681665,64dc7dc4fcf2642c89e295c6,,,,,,,decisionTrl,resources/DG.BMP,resources/DY.BMP,Door3,0.186111097,-0.039814808,1,0,0,0.8133,optionRight,70,770,1,13,0,13,0,1,,,,,,,,,,,,,,,,,,,,,,,,,,,,,,,,,,,,,,,
,,,,,,,,2023-08-16_08h42.11.046,HF_wild_card,2022.2.4,Win32,59.23468783,5f3a7e7b3a55e009ff81175e,64d2fd46c836a06233681665,64dc7dc4fcf2642c89e295c6,,,,,,,ctch,resources/DR.BMP,resources/DB.BMP,Door1,-0.14907406,-0.022222236,1,0,0,0.9133,optionLeft,30,800,1,14,0,14,0,1,,,,,,,,,,,,,,,,,,,,,,,,,,,,,,,,,,,,,,,
,,,,,,,,2023-08-16_08h42.11.046,HF_wild_card,2022.2.4,Win32,59.23468783,5f3a7e7b3a55e009ff81175e,64d2fd46c836a06233681665,64dc7dc4fcf2642c89e295c6,,,,,,,sngl,resources/Empty.png,resources/DP.BMP,Door2,0.187962991,-0.043518526,1,0,0,0.8969,optionRight,20,820,1,15,0,15,0,1,,,,,,,,,,,,,,,,,,,,,,,,,,,,,,,,,,,,,,,
,,,,,,,,2023-08-16_08h42.11.046,HF_wild_card,2022.2.4,Win32,59.23468783,5f3a7e7b3a55e009ff81175e,64d2fd46c836a06233681665,64dc7dc4fcf2642c89e295c6,,,,,,,decisionTrl,resources/DY.BMP,resources/DB.BMP,Door3,-0.238888847,-0.035185178,1,0,0,0.9804,optionLeft,70,890,1,16,0,16,0,1,,,,,,,,,,,,,,,,,,,,,,,,,,,,,,,,,,,,,,,
,,,,,,,,2023-08-16_08h42.11.046,HF_wild_card,2022.2.4,Win32,59.23468783,5f3a7e7b3a55e009ff81175e,64d2fd46c836a06233681665,64dc7dc4fcf2642c89e295c6,,,,,,,sngl,resources/Empty.png,resources/DG.BMP,WildCard_NonEx,0.259259259,-0.022222236,1,0,0,0.7942,optionRight,55,945,1,17,0,17,0,1,,,,,,,,,,,,,,,,,,,,,,,,,,,,,,,,,,,,,,,
,,,,,,,,2023-08-16_08h42.11.046,HF_wild_card,2022.2.4,Win32,59.23468783,5f3a7e7b3a55e009ff81175e,64d2fd46c836a06233681665,64dc7dc4fcf2642c89e295c6,,,,,,,decisionTrl,resources/DY.BMP,resources/DB.BMP,Door4,0.25,-0.044444437,1,0,0,0.8948,optionRight,80,1025,1,18,0,18,0,1,,,,,,,,,,,,,,,,,,,,,,,,,,,,,,,,,,,,,,,
,,,,,,,,2023-08-16_08h42.11.046,HF_wild_card,2022.2.4,Win32,59.23468783,5f3a7e7b3a55e009ff81175e,64d2fd46c836a06233681665,64dc7dc4fcf2642c89e295c6,,,,,,,decisionTrl,resources/DB.BMP,resources/DY.BMP,Door4,-0.336111104,-0.009259259,1,0,0,0.9098,optionLeft,60,1085,1,19,0,19,0,1,,,,,,,,,,,,,,,,,,,,,,,,,,,,,,,,,,,,,,,
,,,,,,,,2023-08-16_08h42.11.046,HF_wild_card,2022.2.4,Win32,59.23468783,5f3a7e7b3a55e009ff81175e,64d2fd46c836a06233681665,64dc7dc4fcf2642c89e295c6,,,,,,,decisionTrl,resources/DP.BMP,resources/DR.BMP,Door2,-0.343518504,-0.018518519,1,0,0,1.1619,optionLeft,40,1125,1,20,0,20,0,1,,,,,,,,,,,,,,,,,,,,,,,,,,,,,,,,,,,,,,,
,,,,,,,,2023-08-16_08h42.11.046,HF_wild_card,2022.2.4,Win32,59.23468783,5f3a7e7b3a55e009ff81175e,64d2fd46c836a06233681665,64dc7dc4fcf2642c89e295c6,,,,,,,sngl,resources/Empty.png,resources/DR.BMP,Door1,0.25,-0.021296289,1,0,0,1.0764,optionRight,30,1155,1,21,0,21,0,1,,,,,,,,,,,,,,,,,,,,,,,,,,,,,,,,,,,,,,,
,,,,,,,,2023-08-16_08h42.11.046,HF_wild_card,2022.2.4,Win32,59.23468783,5f3a7e7b3a55e009ff81175e,64d2fd46c836a06233681665,64dc7dc4fcf2642c89e295c6,,,,,,,decisionTrl,resources/DY.BMP,resources/DB.BMP,Door3,-0.307407414,0.013888889,1,0,0,1.4099,optionLeft,70,1225,1,22,0,22,0,1,,,,,,,,,,,,,,,,,,,,,,,,,,,,,,,,,,,,,,,
,,,,,,,,2023-08-16_08h42.11.046,HF_wild_card,2022.2.4,Win32,59.23468783,5f3a7e7b3a55e009ff81175e,64d2fd46c836a06233681665,64dc7dc4fcf2642c89e295c6,,,,,,,sngl,resources/Empty.png,resources/DB.BMP,Door4,0.287037037,-0.027777778,1,0,0,0.8297,optionRight,60,1285,1,23,0,23,0,1,,,,,,,,,,,,,,,,,,,,,,,,,,,,,,,,,,,,,,,
,,,,,,,,2023-08-16_08h42.11.046,HF_wild_card,2022.2.4,Win32,59.23468783,5f3a7e7b3a55e009ff81175e,64d2fd46c836a06233681665,64dc7dc4fcf2642c89e295c6,,,,,,,decisionTrl,resources/DB.BMP,resources/DY.BMP,Door4,-0.23055557,-0.025925919,1,0,0,1.1453,optionLeft,80,1365,1,24,0,24,0,1,,,,,,,,,,,,,,,,,,,,,,,,,,,,,,,,,,,,,,,
,,,,,,,,2023-08-16_08h42.11.046,HF_wild_card,2022.2.4,Win32,59.23468783,5f3a7e7b3a55e009ff81175e,64d2fd46c836a06233681665,64dc7dc4fcf2642c89e295c6,,,,,,,sngl,resources/Empty.png,resources/DY.BMP,Door3,0.188888903,0.000925912,1,0,0,0.8294,optionRight,70,1435,1,25,0,25,0,1,,,,,,,,,,,,,,,,,,,,,,,,,,,,,,,,,,,,,,,
,,,,,,,,2023-08-16_08h42.11.046,HF_wild_card,2022.2.4,Win32,59.23468783,5f3a7e7b3a55e009ff81175e,64d2fd46c836a06233681665,64dc7dc4fcf2642c89e295c6,,,,,,,decisionTrl,resources/DR.BMP,resources/DP.BMP,Door1,-0.166666667,0.020370377,1,0,0,2.634,optionLeft,30,1465,1,26,0,26,0,1,,,,,,,,,,,,,,,,,,,,,,,,,,,,,,,,,,,,,,,
,,,,,,,,2023-08-16_08h42.11.046,HF_wild_card,2022.2.4,Win32,59.23468783,5f3a7e7b3a55e009ff81175e,64d2fd46c836a06233681665,64dc7dc4fcf2642c89e295c6,,,,,,,decisionTrl,resources/DR.BMP,resources/DP.BMP,Door2,0.229629658,-0.026851866,1,0,0,1.1289,optionRight,20,1485,1,27,0,27,0,1,,,,,,,,,,,,,,,,,,,,,,,,,,,,,,,,,,,,,,,
,,,,,,,,2023-08-16_08h42.11.046,HF_wild_card,2022.2.4,Win32,59.23468783,5f3a7e7b3a55e009ff81175e,64d2fd46c836a06233681665,64dc7dc4fcf2642c89e295c6,,,,,,,ctch,resources/DP.BMP,resources/DY.BMP,Door2,-0.19722218,-0.018518519,1,0,0,0.8957,optionLeft,20,1505,1,28,0,28,0,1,,,,,,,,,,,,,,,,,,,,,,,,,,,,,,,,,,,,,,,
,,,,,,,,2023-08-16_08h42.11.046,HF_wild_card,2022.2.4,Win32,59.23468783,5f3a7e7b3a55e009ff81175e,64d2fd46c836a06233681665,64dc7dc4fcf2642c89e295c6,,,,,,,decisionTrl,resources/DR.BMP,resources/DG.BMP,Door1,-0.128703718,0.014814801,1,0,0,0.7459,optionLeft,30,1535,1,29,0,29,0,1,,,,,,,,,,,,,,,,,,,,,,,,,,,,,,,,,,,,,,,
,,,,,,,,2023-08-16_08h42.11.046,HF_wild_card,2022.2.4,Win32,59.23468783,5f3a7e7b3a55e009ff81175e,64d2fd46c836a06233681665,64dc7dc4fcf2642c89e295c6,,,,,,,decisionTrl,resources/DR.BMP,resources/DP.BMP,Door2,0.190740727,-0.012962977,1,0,0,0.8116,optionRight,40,1575,1,30,0,30,0,1,,,,,,,,,,,,,,,,,,,,,,,,,,,,,,,,,,,,,,,
,,,,,,,,2023-08-16_08h42.11.046,HF_wild_card,2022.2.4,Win32,59.23468783,5f3a7e7b3a55e009ff81175e,64d2fd46c836a06233681665,64dc7dc4fcf2642c89e295c6,,,,,,,sngl,resources/Empty.png,resources/DG.BMP,WildCard_NonEx,0.157407407,-0.022222236,1,0,0,0.8126,optionRight,45,1620,1,31,0,31,0,1,,,,,,,,,,,,,,,,,,,,,,,,,,,,,,,,,,,,,,,
,,,,,,,,2023-08-16_08h42.11.046,HF_wild_card,2022.2.4,Win32,59.23468783,5f3a7e7b3a55e009ff81175e,64d2fd46c836a06233681665,64dc7dc4fcf2642c89e295c6,,,,,,,sngl,resources/DP.BMP,resources/Empty.png,Door2,-0.251851824,0.000925912,1,0,0,0.7288,optionLeft,40,1660,1,32,0,32,0,1,,,,,,,,,,,,,,,,,,,,,,,,,,,,,,,,,,,,,,,
,,,,,,,,2023-08-16_08h42.11.046,HF_wild_card,2022.2.4,Win32,59.23468783,5f3a7e7b3a55e009ff81175e,64d2fd46c836a06233681665,64dc7dc4fcf2642c89e295c6,,,,,,,ctch,resources/DB.BMP,resources/DR.BMP,Door4,-0.27870369,0.015740748,1,0,0,0.6778,optionLeft,80,1740,1,33,0,33,0,1,,,,,,,,,,,,,,,,,,,,,,,,,,,,,,,,,,,,,,,
,,,,,,,,2023-08-16_08h42.11.046,HF_wild_card,2022.2.4,Win32,59.23468783,5f3a7e7b3a55e009ff81175e,64d2fd46c836a06233681665,64dc7dc4fcf2642c89e295c6,,,,,,,decisionTrl,resources/DG.BMP,resources/DB.BMP,WildCard_NonEx,-0.226851852,-0.038888896,1,0,0,1.4788,optionLeft,55,1795,1,34,0,34,0,1,,,,,,,,,,,,,,,,,,,,,,,,,,,,,,,,,,,,,,,
,,,,,,,,2023-08-16_08h42.11.046,HF_wild_card,2022.2.4,Win32,59.23468783,5f3a7e7b3a55e009ff81175e,64d2fd46c836a06233681665,64dc7dc4fcf2642c89e295c6,,,,,,,sngl,resources/DB.BMP,resources/Empty.png,Door4,-0.196296268,0.014814801,1,0,0,0.8619,optionLeft,80,1875,1,35,0,35,0,1,,,,,,,,,,,,,,,,,,,,,,,,,,,,,,,,,,,,,,,
,,,,,,,,2023-08-16_08h42.11.046,HF_wild_card,2022.2.4,Win32,59.23468783,5f3a7e7b3a55e009ff81175e,64d2fd46c836a06233681665,64dc7dc4fcf2642c89e295c6,,,,,,,sngl,resources/DR.BMP,resources/Empty.png,Door1,-0.25462963,-0.015740748,1,0,0,0.846,optionLeft,30,1905,1,36,0,36,0,1,,,,,,,,,,,,,,,,,,,,,,,,,,,,,,,,,,,,,,,
,,,,,,,,2023-08-16_08h42.11.046,HF_wild_card,2022.2.4,Win32,59.23468783,5f3a7e7b3a55e009ff81175e,64d2fd46c836a06233681665,64dc7dc4fcf2642c89e295c6,,,,,,,ctch,resources/DP.BMP,resources/DY.BMP,Door3,0.236111111,-0.020370377,1,0,0,1.0799,optionRight,70,1975,1,37,0,37,0,1,,,,,,,,,,,,,,,,,,,,,,,,,,,,,,,,,,,,,,,
,,,,,,,,2023-08-16_08h42.11.046,HF_wild_card,2022.2.4,Win32,59.23468783,5f3a7e7b3a55e009ff81175e,64d2fd46c836a06233681665,64dc7dc4fcf2642c89e295c6,,,,,,,decisionTrl,resources/DR.BMP,resources/DP.BMP,Door2,0.166666667,-0.033333355,1,0,0,1.1622,optionRight,40,2015,1,38,0,38,0,1,,,,,,,,,,,,,,,,,,,,,,,,,,,,,,,,,,,,,,,
,,,,,,,,2023-08-16_08h42.11.046,HF_wild_card,2022.2.4,Win32,59.23468783,5f3a7e7b3a55e009ff81175e,64d2fd46c836a06233681665,64dc7dc4fcf2642c89e295c6,,,,,,,decisionTrl,resources/DB.BMP,resources/DY.BMP,Door4,-0.239814829,0,1,0,0,1.1135,optionLeft,80,2095,1,39,0,39,0,1,,,,,,,,,,,,,,,,,,,,,,,,,,,,,,,,,,,,,,,
,,,,,,,,2023-08-16_08h42.11.046,HF_wild_card,2022.2.4,Win32,59.23468783,5f3a7e7b3a55e009ff81175e,64d2fd46c836a06233681665,64dc7dc4fcf2642c89e295c6,,,,,,,decisionTrl,resources/DB.BMP,resources/DY.BMP,Door3,0.275000042,-0.046296296,1,0,0,0.9126,optionRight,70,2165,1,40,0,40,0,1,,,,,,,,,,,,,,,,,,,,,,,,,,,,,,,,,,,,,,,
,,,,,,,,2023-08-16_08h42.11.046,HF_wild_card,2022.2.4,Win32,59.23468783,5f3a7e7b3a55e009ff81175e,64d2fd46c836a06233681665,64dc7dc4fcf2642c89e295c6,,,,,,,ctch,resources/DY.BMP,resources/DP.BMP,Door2,0.173148191,-0.020370377,1,0,0,1.5296,optionRight,20,2185,1,41,0,41,0,1,,,,,,,,,,,,,,,,,,,,,,,,,,,,,,,,,,,,,,,
,,,,,,,,2023-08-16_08h42.11.046,HF_wild_card,2022.2.4,Win32,59.23468783,5f3a7e7b3a55e009ff81175e,64d2fd46c836a06233681665,64dc7dc4fcf2642c89e295c6,,,,,,,decisionTrl,resources/DP.BMP,resources/DG.BMP,WildCard_NonEx,0.179629644,-0.015740748,1,0,0,1.0968,optionRight,55,2240,1,42,0,42,0,1,,,,,,,,,,,,,,,,,,,,,,,,,,,,,,,,,,,,,,,
,,,,,,,,2023-08-16_08h42.11.046,HF_wild_card,2022.2.4,Win32,59.23468783,5f3a7e7b3a55e009ff81175e,64d2fd46c836a06233681665,64dc7dc4fcf2642c89e295c6,,,,,,,decisionTrl,resources/DG.BMP,resources/DP.BMP,WildCard_NonEx,-0.263888889,-0.008333347,1,0,0,1.2802,optionLeft,55,2295,1,43,0,43,0,1,,,,,,,,,,,,,,,,,,,,,,,,,,,,,,,,,,,,,,,
,,,,,,,,2023-08-16_08h42.11.046,HF_wild_card,2022.2.4,Win32,59.23468783,5f3a7e7b3a55e009ff81175e,64d2fd46c836a06233681665,64dc7dc4fcf2642c89e295c6,,,,,,,,,,,,,,,,,,,,,,,,,,0,0,0,0,1,,,,,,,,,,,,,,,,,,,,,,,,,,,,,,,,,,
,,,,,,,,2023-08-16_08h42.11.046,HF_wild_card,2022.2.4,Win32,59.23468783,5f3a7e7b3a55e009ff81175e,64d2fd46c836a06233681665,64dc7dc4fcf2642c89e295c6,,,,,,,ctch,resources/DB.BMP,resources/DR.BMP,Door1,0.185185185,-0.005555577,1,0,0,1.8185,optionRight,30,2325,2,0,0,0,0,1,,,,,,,,,,,,,,,,,,,,,,,,,,,,,,,,,,,,,,,
,,,,,,,,2023-08-16_08h42.11.046,HF_wild_card,2022.2.4,Win32,59.23468783,5f3a7e7b3a55e009ff81175e,64d2fd46c836a06233681665,64dc7dc4fcf2642c89e295c6,,,,,,,sngl,resources/Empty.png,resources/DR.BMP,Door1,0.256481524,-0.009259259,1,0,0,0.9363,optionRight,30,2355,2,1,0,1,0,1,,,,,,,,,,,,,,,,,,,,,,,,,,,,,,,,,,,,,,,
,,,,,,,,2023-08-16_08h42.11.046,HF_wild_card,2022.2.4,Win32,59.23468783,5f3a7e7b3a55e009ff81175e,64d2fd46c836a06233681665,64dc7dc4fcf2642c89e295c6,,,,,,,decisionTrl,resources/DB.BMP,resources/DY.BMP,Door4,-0.176851838,-0.037962984,1,0,0,0.9474,optionLeft,60,2415,2,2,0,2,0,1,,,,,,,,,,,,,,,,,,,,,,,,,,,,,,,,,,,,,,,
,,,,,,,,2023-08-16_08h42.11.046,HF_wild_card,2022.2.4,Win32,59.23468783,5f3a7e7b3a55e009ff81175e,64d2fd46c836a06233681665,64dc7dc4fcf2642c89e295c6,,,,,,,sngl,resources/Empty.png,resources/DB.BMP,Door4,0.139814801,-0.003703718,1,0,0,0.8906,optionRight,80,2495,2,3,0,3,0,1,,,,,,,,,,,,,,,,,,,,,,,,,,,,,,,,,,,,,,,
,,,,,,,,2023-08-16_08h42.11.046,HF_wild_card,2022.2.4,Win32,59.23468783,5f3a7e7b3a55e009ff81175e,64d2fd46c836a06233681665,64dc7dc4fcf2642c89e295c6,,,,,,,decisionTrl,resources/DP.BMP,resources/DR.BMP,Door1,0.162037037,-0.006481489,1,0,0,1.9968,optionRight,30,2525,2,4,0,4,0,1,,,,,,,,,,,,,,,,,,,,,,,,,,,,,,,,,,,,,,,
,,,,,,,,2023-08-16_08h42.11.046,HF_wild_card,2022.2.4,Win32,59.23468783,5f3a7e7b3a55e009ff81175e,64d2fd46c836a06233681665,64dc7dc4fcf2642c89e295c6,,,,,,,sngl,resources/DR.BMP,resources/Empty.png,Door1,-0.220370328,0.000925912,1,0,0,0.8717,optionLeft,30,2555,2,5,0,5,0,1,,,,,,,,,,,,,,,,,,,,,,,,,,,,,,,,,,,,,,,
,,,,,,,,2023-08-16_08h42.11.046,HF_wild_card,2022.2.4,Win32,59.23468783,5f3a7e7b3a55e009ff81175e,64d2fd46c836a06233681665,64dc7dc4fcf2642c89e295c6,,,,,,,decisionTrl,resources/DP.BMP,resources/DG.BMP,Door2,-0.214814787,-0.001851859,1,0,0,1.4949,optionLeft,40,2595,2,6,0,6,0,1,,,,,,,,,,,,,,,,,,,,,,,,,,,,,,,,,,,,,,,
,,,,,,,,2023-08-16_08h42.11.046,HF_wild_card,2022.2.4,Win32,59.23468783,5f3a7e7b3a55e009ff81175e,64d2fd46c836a06233681665,64dc7dc4fcf2642c89e295c6,,,,,,,decisionTrl,resources/DP.BMP,resources/DR.BMP,Door2,-0.22592594,-0.00462963,1,0,0,1.3822,optionLeft,40,2635,2,7,0,7,0,1,,,,,,,,,,,,,,,,,,,,,,,,,,,,,,,,,,,,,,,
,,,,,,,,2023-08-16_08h42.11.046,HF_wild_card,2022.2.4,Win32,59.23468783,5f3a7e7b3a55e009ff81175e,64d2fd46c836a06233681665,64dc7dc4fcf2642c89e295c6,,,,,,,sngl,resources/DG.BMP,resources/Empty.png,WildCard_NonEx,-0.218518504,0.002777771,1,0,0,0.8979,optionLeft,45,2680,2,8,0,8,0,1,,,,,,,,,,,,,,,,,,,,,,,,,,,,,,,,,,,,,,,
,,,,,,,,2023-08-16_08h42.11.046,HF_wild_card,2022.2.4,Win32,59.23468783,5f3a7e7b3a55e009ff81175e,64d2fd46c836a06233681665,64dc7dc4fcf2642c89e295c6,,,,,,,decisionTrl,resources/DY.BMP,resources/DB.BMP,Door4,0.162962949,-0.0074074,1,0,0,1.2311,optionRight,80,2760,2,9,0,9,0,1,,,,,,,,,,,,,,,,,,,,,,,,,,,,,,,,,,,,,,,
,,,,,,,,2023-08-16_08h42.11.046,HF_wild_card,2022.2.4,Win32,59.23468783,5f3a7e7b3a55e009ff81175e,64d2fd46c836a06233681665,64dc7dc4fcf2642c89e295c6,,,,,,,sngl,resources/Empty.png,resources/DY.BMP,Door3,0.184259273,-0.028703725,1,0,0,1.1801,optionRight,70,2830,2,10,0,10,0,1,,,,,,,,,,,,,,,,,,,,,,,,,,,,,,,,,,,,,,,
,,,,,,,,2023-08-16_08h42.11.046,HF_wild_card,2022.2.4,Win32,59.23468783,5f3a7e7b3a55e009ff81175e,64d2fd46c836a06233681665,64dc7dc4fcf2642c89e295c6,,,,,,,decisionTrl,resources/DG.BMP,resources/DY.BMP,Door3,0.133333347,-0.010185206,1,0,0,1.2467,optionRight,70,2900,2,11,0,11,0,1,,,,,,,,,,,,,,,,,,,,,,,,,,,,,,,,,,,,,,,
,,,,,,,,2023-08-16_08h42.11.046,HF_wild_card,2022.2.4,Win32,59.23468783,5f3a7e7b3a55e009ff81175e,64d2fd46c836a06233681665,64dc7dc4fcf2642c89e295c6,,,,,,,decisionTrl,resources/DY.BMP,resources/DB.BMP,Door4,0.169444473,-0.01203703,1,0,0,1.1136,optionRight,60,2960,2,12,0,12,0,1,,,,,,,,,,,,,,,,,,,,,,,,,,,,,,,,,,,,,,,
,,,,,,,,2023-08-16_08h42.11.046,HF_wild_card,2022.2.4,Win32,59.23468783,5f3a7e7b3a55e009ff81175e,64d2fd46c836a06233681665,64dc7dc4fcf2642c89e295c6,,,,,,,decisionTrl,resources/DR.BMP,resources/DP.BMP,Door2,0.210185228,-0.043518526,1,0,0,2.1625,optionRight,20,2980,2,13,0,13,0,1,,,,,,,,,,,,,,,,,,,,,,,,,,,,,,,,,,,,,,,
,,,,,,,,2023-08-16_08h42.11.046,HF_wild_card,2022.2.4,Win32,59.23468783,5f3a7e7b3a55e009ff81175e,64d2fd46c836a06233681665,64dc7dc4fcf2642c89e295c6,,,,,,,decisionTrl,resources/DY.BMP,resources/DG.BMP,Door3,-0.176851838,-0.014814836,1,0,0,1.7469,optionLeft,70,3050,2,14,0,14,0,1,,,,,,,,,,,,,,,,,,,,,,,,,,,,,,,,,,,,,,,
,,,,,,,,2023-08-16_08h42.11.046,HF_wild_card,2022.2.4,Win32,59.23468783,5f3a7e7b3a55e009ff81175e,64d2fd46c836a06233681665,64dc7dc4fcf2642c89e295c6,,,,,,,sngl,resources/DB.BMP,resources/Empty.png,Door4,-0.203703704,-0.010185206,1,0,0,0.8134,optionLeft,60,3110,2,15,0,15,0,1,,,,,,,,,,,,,,,,,,,,,,,,,,,,,,,,,,,,,,,
,,,,,,,,2023-08-16_08h42.11.046,HF_wild_card,2022.2.4,Win32,59.23468783,5f3a7e7b3a55e009ff81175e,64d2fd46c836a06233681665,64dc7dc4fcf2642c89e295c6,,,,,,,ctch,resources/DP.BMP,resources/DY.BMP,Door2,-0.23055557,0.043518526,1,0,0,1.83,optionLeft,20,3130,2,16,0,16,0,1,,,,,,,,,,,,,,,,,,,,,,,,,,,,,,,,,,,,,,,
,,,,,,,,2023-08-16_08h42.11.046,HF_wild_card,2022.2.4,Win32,59.23468783,5f3a7e7b3a55e009ff81175e,64d2fd46c836a06233681665,64dc7dc4fcf2642c89e295c6,,,,,,,decisionTrl,resources/DG.BMP,resources/DP.BMP,WildCard_NonEx,-0.270370342,-0.006481489,1,0,0,1.48,optionLeft,55,3185,2,17,0,17,0,1,,,,,,,,,,,,,,,,,,,,,,,,,,,,,,,,,,,,,,,
,,,,,,,,2023-08-16_08h42.11.046,HF_wild_card,2022.2.4,Win32,59.23468783,5f3a7e7b3a55e009ff81175e,64d2fd46c836a06233681665,64dc7dc4fcf2642c89e295c6,,,,,,,ctch,resources/DR.BMP,resources/DB.BMP,Door4,0.323148233,-0.029629637,1,0,0,1.2634,optionRight,80,3265,2,18,0,18,0,1,,,,,,,,,,,,,,,,,,,,,,,,,,,,,,,,,,,,,,,
,,,,,,,,2023-08-16_08h42.11.046,HF_wild_card,2022.2.4,Win32,59.23468783,5f3a7e7b3a55e009ff81175e,64d2fd46c836a06233681665,64dc7dc4fcf2642c89e295c6,,,,,,,sngl,resources/Empty.png,resources/DP.BMP,Door2,0.109259288,-0.0074074,1,0,0,0.8802,optionRight,40,3305,2,19,0,19,0,1,,,,,,,,,,,,,,,,,,,,,,,,,,,,,,,,,,,,,,,
,,,,,,,,2023-08-16_08h42.11.046,HF_wild_card,2022.2.4,Win32,59.23468783,5f3a7e7b3a55e009ff81175e,64d2fd46c836a06233681665,64dc7dc4fcf2642c89e295c6,,,,,,,sngl,resources/DY.BMP,resources/Empty.png,Door3,-0.240740741,-0.006481489,1,0,0,0.9633,optionLeft,70,3375,2,20,0,20,0,1,,,,,,,,,,,,,,,,,,,,,,,,,,,,,,,,,,,,,,,
,,,,,,,,2023-08-16_08h42.11.046,HF_wild_card,2022.2.4,Win32,59.23468783,5f3a7e7b3a55e009ff81175e,64d2fd46c836a06233681665,64dc7dc4fcf2642c89e295c6,,,,,,,decisionTrl,resources/DG.BMP,resources/DB.BMP,Door4,0.194444444,-0.01666666,1,0,0,1.8799,optionRight,60,3435,2,21,0,21,0,1,,,,,,,,,,,,,,,,,,,,,,,,,,,,,,,,,,,,,,,
,,,,,,,,2023-08-16_08h42.11.046,HF_wild_card,2022.2.4,Win32,59.23468783,5f3a7e7b3a55e009ff81175e,64d2fd46c836a06233681665,64dc7dc4fcf2642c89e295c6,,,,,,,decisionTrl,resources/DB.BMP,resources/DY.BMP,Door4,-0.288888861,0.034259266,1,0,0,0.846,optionLeft,80,3515,2,22,0,22,0,1,,,,,,,,,,,,,,,,,,,,,,,,,,,,,,,,,,,,,,,
,,,,,,,,2023-08-16_08h42.11.046,HF_wild_card,2022.2.4,Win32,59.23468783,5f3a7e7b3a55e009ff81175e,64d2fd46c836a06233681665,64dc7dc4fcf2642c89e295c6,,,,,,,sngl,resources/Empty.png,resources/DG.BMP,WildCard_NonEx,0.118518547,-0.037037037,1,0,0,0.8293,optionRight,55,3570,2,23,0,23,0,1,,,,,,,,,,,,,,,,,,,,,,,,,,,,,,,,,,,,,,,
,,,,,,,,2023-08-16_08h42.11.046,HF_wild_card,2022.2.4,Win32,59.23468783,5f3a7e7b3a55e009ff81175e,64d2fd46c836a06233681665,64dc7dc4fcf2642c89e295c6,,,,,,,sngl,resources/DG.BMP,resources/Empty.png,WildCard_NonEx,-0.249074088,-0.012962977,1,0,0,0.8801,optionLeft,55,3625,2,24,0,24,0,1,,,,,,,,,,,,,,,,,,,,,,,,,,,,,,,,,,,,,,,
,,,,,,,,2023-08-16_08h42.11.046,HF_wild_card,2022.2.4,Win32,59.23468783,5f3a7e7b3a55e009ff81175e,64d2fd46c836a06233681665,64dc7dc4fcf2642c89e295c6,,,,,,,decisionTrl,resources/DB.BMP,resources/DY.BMP,Door4,-0.211111069,0.0074074,1,0,0,0.9801,optionLeft,80,3705,2,25,0,25,0,1,,,,,,,,,,,,,,,,,,,,,,,,,,,,,,,,,,,,,,,
,,,,,,,,2023-08-16_08h42.11.046,HF_wild_card,2022.2.4,Win32,59.23468783,5f3a7e7b3a55e009ff81175e,64d2fd46c836a06233681665,64dc7dc4fcf2642c89e295c6,,,,,,,decisionTrl,resources/DB.BMP,resources/DY.BMP,Door4,-0.217592593,0.008333312,1,0,0,0.897,optionLeft,60,3765,2,26,0,26,0,1,,,,,,,,,,,,,,,,,,,,,,,,,,,,,,,,,,,,,,,
,,,,,,,,2023-08-16_08h42.11.046,HF_wild_card,2022.2.4,Win32,59.23468783,5f3a7e7b3a55e009ff81175e,64d2fd46c836a06233681665,64dc7dc4fcf2642c89e295c6,,,,,,,ctch,resources/DY.BMP,resources/DP.BMP,Door3,-0.240740741,-0.001851859,1,0,0,1.1136,optionLeft,70,3835,2,27,0,27,0,1,,,,,,,,,,,,,,,,,,,,,,,,,,,,,,,,,,,,,,,
,,,,,,,,2023-08-16_08h42.11.046,HF_wild_card,2022.2.4,Win32,59.23468783,5f3a7e7b3a55e009ff81175e,64d2fd46c836a06233681665,64dc7dc4fcf2642c89e295c6,,,,,,,sngl,resources/DP.BMP,resources/Empty.png,Door2,-0.237962935,-0.025925919,1,0,0,0.7801,optionLeft,20,3855,2,28,0,28,0,1,,,,,,,,,,,,,,,,,,,,,,,,,,,,,,,,,,,,,,,
,,,,,,,,2023-08-16_08h42.11.046,HF_wild_card,2022.2.4,Win32,59.23468783,5f3a7e7b3a55e009ff81175e,64d2fd46c836a06233681665,64dc7dc4fcf2642c89e295c6,,,,,,,decisionTrl,resources/DP.BMP,resources/DR.BMP,Door1,0.330555527,-0.025925919,1,0,0,2.4802,optionRight,30,3885,2,29,0,29,0,1,,,,,,,,,,,,,,,,,,,,,,,,,,,,,,,,,,,,,,,
,,,,,,,,2023-08-16_08h42.11.046,HF_wild_card,2022.2.4,Win32,59.23468783,5f3a7e7b3a55e009ff81175e,64d2fd46c836a06233681665,64dc7dc4fcf2642c89e295c6,,,,,,,decisionTrl,resources/DG.BMP,resources/DR.BMP,WildCard_NonEx,-0.175000014,-0.038888896,1,0,0,1.1635,optionLeft,55,3940,2,30,0,30,0,1,,,,,,,,,,,,,,,,,,,,,,,,,,,,,,,,,,,,,,,
,,,,,,,,2023-08-16_08h42.11.046,HF_wild_card,2022.2.4,Win32,59.23468783,5f3a7e7b3a55e009ff81175e,64d2fd46c836a06233681665,64dc7dc4fcf2642c89e295c6,,,,,,,decisionTrl,resources/DP.BMP,resources/DR.BMP,Door1,0.101851852,-0.011111118,1,0,0,1.2879,optionRight,30,3970,2,31,0,31,0,1,,,,,,,,,,,,,,,,,,,,,,,,,,,,,,,,,,,,,,,
,,,,,,,,2023-08-16_08h42.11.046,HF_wild_card,2022.2.4,Win32,59.23468783,5f3a7e7b3a55e009ff81175e,64d2fd46c836a06233681665,64dc7dc4fcf2642c89e295c6,,,,,,,decisionTrl,resources/DY.BMP,resources/DB.BMP,Door4,0.165740755,-0.020370377,1,0,0,0.8625,optionRight,80,4050,2,32,0,32,0,1,,,,,,,,,,,,,,,,,,,,,,,,,,,,,,,,,,,,,,,
,,,,,,,,2023-08-16_08h42.11.046,HF_wild_card,2022.2.4,Win32,59.23468783,5f3a7e7b3a55e009ff81175e,64d2fd46c836a06233681665,64dc7dc4fcf2642c89e295c6,,,,,,,decisionTrl,resources/DR.BMP,resources/DG.BMP,WildCard_NonEx,0.213888875,0.0074074,1,0,0,1.4612,optionRight,55,4105,2,33,0,33,0,1,,,,,,,,,,,,,,,,,,,,,,,,,,,,,,,,,,,,,,,
,,,,,,,,2023-08-16_08h42.11.046,HF_wild_card,2022.2.4,Win32,59.23468783,5f3a7e7b3a55e009ff81175e,64d2fd46c836a06233681665,64dc7dc4fcf2642c89e295c6,,,,,,,ctch,resources/DR.BMP,resources/DB.BMP,Door4,0.12962963,-0.01666666,1,0,0,4.9303,optionRight,80,4185,2,34,0,34,0,1,,,,,,,,,,,,,,,,,,,,,,,,,,,,,,,,,,,,,,,
,,,,,,,,2023-08-16_08h42.11.046,HF_wild_card,2022.2.4,Win32,59.23468783,5f3a7e7b3a55e009ff81175e,64d2fd46c836a06233681665,64dc7dc4fcf2642c89e295c6,,,,,,,ctch,resources/DP.BMP,resources/DY.BMP,Door3,0.140740783,-0.030555548,1,0,0,4.3135,optionRight,70,4255,2,35,0,35,0,1,,,,,,,,,,,,,,,,,,,,,,,,,,,,,,,,,,,,,,,
,,,,,,,,2023-08-16_08h42.11.046,HF_wild_card,2022.2.4,Win32,59.23468783,5f3a7e7b3a55e009ff81175e,64d2fd46c836a06233681665,64dc7dc4fcf2642c89e295c6,,,,,,,ctch,resources/DB.BMP,resources/DR.BMP,Door4,-0.212037051,0.034259266,1,0,0,1.362,optionLeft,60,4315,2,36,0,36,0,1,,,,,,,,,,,,,,,,,,,,,,,,,,,,,,,,,,,,,,,
,,,,,,,,2023-08-16_08h42.11.046,HF_wild_card,2022.2.4,Win32,59.23468783,5f3a7e7b3a55e009ff81175e,64d2fd46c836a06233681665,64dc7dc4fcf2642c89e295c6,,,,,,,ctch,resources/DY.BMP,resources/DP.BMP,Door3,-0.205555527,-0.00462963,1,0,0,1.2285,optionLeft,70,4385,2,37,0,37,0,1,,,,,,,,,,,,,,,,,,,,,,,,,,,,,,,,,,,,,,,
,,,,,,,,2023-08-16_08h42.11.046,HF_wild_card,2022.2.4,Win32,59.23468783,5f3a7e7b3a55e009ff81175e,64d2fd46c836a06233681665,64dc7dc4fcf2642c89e295c6,,,,,,,decisionTrl,resources/DY.BMP,resources/DB.BMP,Door4,0.17777782,-0.040740755,1,0,0,0.9294,optionRight,80,4465,2,38,0,38,0,1,,,,,,,,,,,,,,,,,,,,,,,,,,,,,,,,,,,,,,,
,,,,,,,,2023-08-16_08h42.11.046,HF_wild_card,2022.2.4,Win32,59.23468783,5f3a7e7b3a55e009ff81175e,64d2fd46c836a06233681665,64dc7dc4fcf2642c89e295c6,,,,,,,decisionTrl,resources/DR.BMP,resources/DP.BMP,Door1,-0.241666653,0.013888889,1,0,0,2.4179,optionLeft,30,4495,2,39,0,39,0,1,,,,,,,,,,,,,,,,,,,,,,,,,,,,,,,,,,,,,,,
,,,,,,,,2023-08-16_08h42.11.046,HF_wild_card,2022.2.4,Win32,59.23468783,5f3a7e7b3a55e009ff81175e,64d2fd46c836a06233681665,64dc7dc4fcf2642c89e295c6,,,,,,,decisionTrl,resources/DR.BMP,resources/DP.BMP,Door1,-0.312037044,-0.031481496,1,0,0,0.9773,optionLeft,30,4525,2,40,0,40,0,1,,,,,,,,,,,,,,,,,,,,,,,,,,,,,,,,,,,,,,,
,,,,,,,,2023-08-16_08h42.11.046,HF_wild_card,2022.2.4,Win32,59.23468783,5f3a7e7b3a55e009ff81175e,64d2fd46c836a06233681665,64dc7dc4fcf2642c89e295c6,,,,,,,decisionTrl,resources/DB.BMP,resources/DG.BMP,Door4,-0.319444444,0.011111118,1,0,0,0.9816,optionLeft,60,4585,2,41,0,41,0,1,,,,,,,,,,,,,,,,,,,,,,,,,,,,,,,,,,,,,,,
,,,,,,,,2023-08-16_08h42.11.046,HF_wild_card,2022.2.4,Win32,59.23468783,5f3a7e7b3a55e009ff81175e,64d2fd46c836a06233681665,64dc7dc4fcf2642c89e295c6,,,,,,,decisionTrl,resources/DR.BMP,resources/DP.BMP,Door1,-0.232407393,-0.012962977,1,0,0,1.0979,optionLeft,30,4615,2,42,0,42,0,1,,,,,,,,,,,,,,,,,,,,,,,,,,,,,,,,,,,,,,,
,,,,,,,,2023-08-16_08h42.11.046,HF_wild_card,2022.2.4,Win32,59.23468783,5f3a7e7b3a55e009ff81175e,64d2fd46c836a06233681665,64dc7dc4fcf2642c89e295c6,,,,,,,sngl,resources/Empty.png,resources/DG.BMP,WildCard_NonEx,0.161111125,-0.024074095,1,0,0,0.8133,optionRight,45,4660,2,43,0,43,0,1,,,,,,,,,,,,,,,,,,,,,,,,,,,,,,,,,,,,,,,
,,,,,,,,2023-08-16_08h42.11.046,HF_wild_card,2022.2.4,Win32,59.23468783,5f3a7e7b3a55e009ff81175e,64d2fd46c836a06233681665,64dc7dc4fcf2642c89e295c6,,,,,,,,,,,,,,,,,,,,,,,,,,1,0,1,0,1,,,,,,,,,,,,,,,,,,,,,,,,,,,,,,,,,,
,,,,,,,,2023-08-16_08h42.11.046,HF_wild_card,2022.2.4,Win32,59.23468783,5f3a7e7b3a55e009ff81175e,64d2fd46c836a06233681665,64dc7dc4fcf2642c89e295c6,,,,,,,decisionTrl,resources/DB.BMP,resources/DY.BMP,Door4,-0.239814829,-0.046296296,1,0,0,0.9511,optionLeft,60,4720,3,0,0,0,0,1,,,,,,,,,,,,,,,,,,,,,,,,,,,,,,,,,,,,,,,
,,,,,,,,2023-08-16_08h42.11.046,HF_wild_card,2022.2.4,Win32,59.23468783,5f3a7e7b3a55e009ff81175e,64d2fd46c836a06233681665,64dc7dc4fcf2642c89e295c6,,,,,,,decisionTrl,resources/DY.BMP,resources/DB.BMP,Door4,0.170370384,-0.032407407,1,0,0,0.8482,optionRight,60,4780,3,1,0,1,0,1,,,,,,,,,,,,,,,,,,,,,,,,,,,,,,,,,,,,,,,
,,,,,,,,2023-08-16_08h42.11.046,HF_wild_card,2022.2.4,Win32,59.23468783,5f3a7e7b3a55e009ff81175e,64d2fd46c836a06233681665,64dc7dc4fcf2642c89e295c6,,,,,,,sngl,resources/Empty.png,resources/DR.BMP,Door1,0.148148148,-0.019444466,1,0,0,0.8145,optionRight,30,4810,3,2,0,2,0,1,,,,,,,,,,,,,,,,,,,,,,,,,,,,,,,,,,,,,,,
,,,,,,,,2023-08-16_08h42.11.046,HF_wild_card,2022.2.4,Win32,59.23468783,5f3a7e7b3a55e009ff81175e,64d2fd46c836a06233681665,64dc7dc4fcf2642c89e295c6,,,,,,,decisionTrl,resources/DB.BMP,resources/DY.BMP,Door4,-0.217592593,-0.045370384,1,0,0,0.7808,optionLeft,60,4870,3,3,0,3,0,1,,,,,,,,,,,,,,,,,,,,,,,,,,,,,,,,,,,,,,,
,,,,,,,,2023-08-16_08h42.11.046,HF_wild_card,2022.2.4,Win32,59.23468783,5f3a7e7b3a55e009ff81175e,64d2fd46c836a06233681665,64dc7dc4fcf2642c89e295c6,,,,,,,ctch,resources/DY.BMP,resources/DP.BMP,Door3,-0.175000014,0,1,0,0,2.0812,optionLeft,70,4940,3,4,0,4,0,1,,,,,,,,,,,,,,,,,,,,,,,,,,,,,,,,,,,,,,,
,,,,,,,,2023-08-16_08h42.11.046,HF_wild_card,2022.2.4,Win32,59.23468783,5f3a7e7b3a55e009ff81175e,64d2fd46c836a06233681665,64dc7dc4fcf2642c89e295c6,,,,,,,sngl,resources/DY.BMP,resources/Empty.png,Door3,-0.170370384,-0.001851859,1,0,0,0.8311,optionLeft,70,5010,3,5,0,5,0,1,,,,,,,,,,,,,,,,,,,,,,,,,,,,,,,,,,,,,,,
,,,,,,,,2023-08-16_08h42.11.046,HF_wild_card,2022.2.4,Win32,59.23468783,5f3a7e7b3a55e009ff81175e,64d2fd46c836a06233681665,64dc7dc4fcf2642c89e295c6,,,,,,,decisionTrl,resources/DP.BMP,resources/DR.BMP,Door1,0.164814843,-0.012962977,1,0,0,1.3644,optionRight,30,5040,3,6,0,6,0,1,,,,,,,,,,,,,,,,,,,,,,,,,,,,,,,,,,,,,,,
,,,,,,,,2023-08-16_08h42.11.046,HF_wild_card,2022.2.4,Win32,59.23468783,5f3a7e7b3a55e009ff81175e,64d2fd46c836a06233681665,64dc7dc4fcf2642c89e295c6,,,,,,,sngl,resources/DG.BMP,resources/Empty.png,WildCard_NonEx,-0.249074088,0.00462963,1,0,0,0.8132,optionLeft,45,5085,3,7,0,7,0,1,,,,,,,,,,,,,,,,,,,,,,,,,,,,,,,,,,,,,,,
,,,,,,,,2023-08-16_08h42.11.046,HF_wild_card,2022.2.4,Win32,59.23468783,5f3a7e7b3a55e009ff81175e,64d2fd46c836a06233681665,64dc7dc4fcf2642c89e295c6,,,,,,,sngl,resources/DB.BMP,resources/Empty.png,Door4,-0.212962963,0.01944443,1,0,0,0.8129,optionLeft,80,5165,3,8,0,8,0,1,,,,,,,,,,,,,,,,,,,,,,,,,,,,,,,,,,,,,,,
,,,,,,,,2023-08-16_08h42.11.046,HF_wild_card,2022.2.4,Win32,59.23468783,5f3a7e7b3a55e009ff81175e,64d2fd46c836a06233681665,64dc7dc4fcf2642c89e295c6,,,,,,,decisionTrl,resources/DG.BMP,resources/DP.BMP,WildCard_NonEx,-0.222222222,0.0074074,1,0,0,1.2653,optionLeft,45,5210,3,9,0,9,0,1,,,,,,,,,,,,,,,,,,,,,,,,,,,,,,,,,,,,,,,
,,,,,,,,2023-08-16_08h42.11.046,HF_wild_card,2022.2.4,Win32,59.23468783,5f3a7e7b3a55e009ff81175e,64d2fd46c836a06233681665,64dc7dc4fcf2642c89e295c6,,,,,,,ctch,resources/DB.BMP,resources/DR.BMP,Door4,-0.162962949,0.017592571,1,0,0,0.8138,optionLeft,80,5290,3,10,0,10,0,1,,,,,,,,,,,,,,,,,,,,,,,,,,,,,,,,,,,,,,,
,,,,,,,,2023-08-16_08h42.11.046,HF_wild_card,2022.2.4,Win32,59.23468783,5f3a7e7b3a55e009ff81175e,64d2fd46c836a06233681665,64dc7dc4fcf2642c89e295c6,,,,,,,sngl,resources/Empty.png,resources/DY.BMP,Door3,0.18240745,-0.002777771,1,0,0,0.8964,optionRight,70,5360,3,11,0,11,0,1,,,,,,,,,,,,,,,,,,,,,,,,,,,,,,,,,,,,,,,
,,,,,,,,2023-08-16_08h42.11.046,HF_wild_card,2022.2.4,Win32,59.23468783,5f3a7e7b3a55e009ff81175e,64d2fd46c836a06233681665,64dc7dc4fcf2642c89e295c6,,,,,,,sngl,resources/DG.BMP,resources/Empty.png,WildCard_NonEx,-0.210185157,0.000925912,1,0,0,0.8635,optionLeft,55,5415,3,12,0,12,0,1,,,,,,,,,,,,,,,,,,,,,,,,,,,,,,,,,,,,,,,
,,,,,,,,2023-08-16_08h42.11.046,HF_wild_card,2022.2.4,Win32,59.23468783,5f3a7e7b3a55e009ff81175e,64d2fd46c836a06233681665,64dc7dc4fcf2642c89e295c6,,,,,,,decisionTrl,resources/DB.BMP,resources/DY.BMP,Door4,-0.305555556,0.003703683,1,0,0,1.3633,optionLeft,80,5495,3,13,0,13,0,1,,,,,,,,,,,,,,,,,,,,,,,,,,,,,,,,,,,,,,,
,,,,,,,,2023-08-16_08h42.11.046,HF_wild_card,2022.2.4,Win32,59.23468783,5f3a7e7b3a55e009ff81175e,64d2fd46c836a06233681665,64dc7dc4fcf2642c89e295c6,,,,,,,decisionTrl,resources/DG.BMP,resources/DB.BMP,Door4,0.238888917,-0.024074095,1,0,0,1.0802,optionRight,60,5555,3,14,0,14,0,1,,,,,,,,,,,,,,,,,,,,,,,,,,,,,,,,,,,,,,,
,,,,,,,,2023-08-16_08h42.11.046,HF_wild_card,2022.2.4,Win32,59.23468783,5f3a7e7b3a55e009ff81175e,64d2fd46c836a06233681665,64dc7dc4fcf2642c89e295c6,,,,,,,sngl,resources/DR.BMP,resources/Empty.png,Door1,-0.256481453,0.04074072,1,0,0,0.8459,optionLeft,30,5585,3,15,0,15,0,1,,,,,,,,,,,,,,,,,,,,,,,,,,,,,,,,,,,,,,,
,,,,,,,,2023-08-16_08h42.11.046,HF_wild_card,2022.2.4,Win32,59.23468783,5f3a7e7b3a55e009ff81175e,64d2fd46c836a06233681665,64dc7dc4fcf2642c89e295c6,,,,,,,decisionTrl,resources/DY.BMP,resources/DB.BMP,Door4,0.212037051,-0.006481489,1,0,0,1.0801,optionRight,60,5645,3,16,0,16,0,1,,,,,,,,,,,,,,,,,,,,,,,,,,,,,,,,,,,,,,,
,,,,,,,,2023-08-16_08h42.11.046,HF_wild_card,2022.2.4,Win32,59.23468783,5f3a7e7b3a55e009ff81175e,64d2fd46c836a06233681665,64dc7dc4fcf2642c89e295c6,,,,,,,decisionTrl,resources/DG.BMP,resources/DR.BMP,WildCard_NonEx,-0.203703704,-0.000925947,1,0,0,1.996,optionLeft,55,5700,3,17,0,17,0,1,,,,,,,,,,,,,,,,,,,,,,,,,,,,,,,,,,,,,,,
,,,,,,,,2023-08-16_08h42.11.046,HF_wild_card,2022.2.4,Win32,59.23468783,5f3a7e7b3a55e009ff81175e,64d2fd46c836a06233681665,64dc7dc4fcf2642c89e295c6,,,,,,,decisionTrl,resources/DP.BMP,resources/DR.BMP,Door1,0.107407393,-0.001851859,1,0,0,1.647,optionRight,30,5730,3,18,0,18,0,1,,,,,,,,,,,,,,,,,,,,,,,,,,,,,,,,,,,,,,,
,,,,,,,,2023-08-16_08h42.11.046,HF_wild_card,2022.2.4,Win32,59.23468783,5f3a7e7b3a55e009ff81175e,64d2fd46c836a06233681665,64dc7dc4fcf2642c89e295c6,,,,,,,ctch,resources/DY.BMP,resources/DP.BMP,Door3,-0.242592564,0.049074067,1,0,0,1.4636,optionLeft,70,5800,3,19,0,19,0,1,,,,,,,,,,,,,,,,,,,,,,,,,,,,,,,,,,,,,,,
,,,,,,,,2023-08-16_08h42.11.046,HF_wild_card,2022.2.4,Win32,59.23468783,5f3a7e7b3a55e009ff81175e,64d2fd46c836a06233681665,64dc7dc4fcf2642c89e295c6,,,,,,,decisionTrl,resources/DP.BMP,resources/DG.BMP,WildCard_NonEx,0.265740783,0.027777778,1,0,0,1.1464,optionRight,55,5855,3,20,0,20,0,1,,,,,,,,,,,,,,,,,,,,,,,,,,,,,,,,,,,,,,,
,,,,,,,,2023-08-16_08h42.11.046,HF_wild_card,2022.2.4,Win32,59.23468783,5f3a7e7b3a55e009ff81175e,64d2fd46c836a06233681665,64dc7dc4fcf2642c89e295c6,,,,,,,decisionTrl,resources/DP.BMP,resources/DR.BMP,Door2,-0.134259259,-0.01666666,1,0,0,1.6802,optionLeft,40,5895,3,21,0,21,0,1,,,,,,,,,,,,,,,,,,,,,,,,,,,,,,,,,,,,,,,
,,,,,,,,2023-08-16_08h42.11.046,HF_wild_card,2022.2.4,Win32,59.23468783,5f3a7e7b3a55e009ff81175e,64d2fd46c836a06233681665,64dc7dc4fcf2642c89e295c6,,,,,,,decisionTrl,resources/DR.BMP,resources/DP.BMP,Door2,0.178703732,-0.034259266,1,0,0,1.3301,optionRight,20,5915,3,22,0,22,0,1,,,,,,,,,,,,,,,,,,,,,,,,,,,,,,,,,,,,,,,
,,,,,,,,2023-08-16_08h42.11.046,HF_wild_card,2022.2.4,Win32,59.23468783,5f3a7e7b3a55e009ff81175e,64d2fd46c836a06233681665,64dc7dc4fcf2642c89e295c6,,,,,,,decisionTrl,resources/DB.BMP,resources/DY.BMP,Door4,-0.196296268,0.001851859,1,0,0,0.9968,optionLeft,60,5975,3,23,0,23,0,1,,,,,,,,,,,,,,,,,,,,,,,,,,,,,,,,,,,,,,,
,,,,,,,,2023-08-16_08h42.11.046,HF_wild_card,2022.2.4,Win32,59.23468783,5f3a7e7b3a55e009ff81175e,64d2fd46c836a06233681665,64dc7dc4fcf2642c89e295c6,,,,,,,decisionTrl,resources/DB.BMP,resources/DG.BMP,Door4,-0.26944443,0.013888889,1,0,0,0.9803,optionLeft,60,6035,3,24,0,24,0,1,,,,,,,,,,,,,,,,,,,,,,,,,,,,,,,,,,,,,,,
,,,,,,,,2023-08-16_08h42.11.046,HF_wild_card,2022.2.4,Win32,59.23468783,5f3a7e7b3a55e009ff81175e,64d2fd46c836a06233681665,64dc7dc4fcf2642c89e295c6,,,,,,,decisionTrl,resources/DY.BMP,resources/DB.BMP,Door4,0.225000028,-0.035185178,1,0,0,0.9794,optionRight,80,6115,3,25,0,25,0,1,,,,,,,,,,,,,,,,,,,,,,,,,,,,,,,,,,,,,,,
,,,,,,,,2023-08-16_08h42.11.046,HF_wild_card,2022.2.4,Win32,59.23468783,5f3a7e7b3a55e009ff81175e,64d2fd46c836a06233681665,64dc7dc4fcf2642c89e295c6,,,,,,,decisionTrl,resources/DR.BMP,resources/DG.BMP,WildCard_NonEx,0.166666667,-0.006481489,1,0,0,1.6462,optionRight,45,6160,3,26,0,26,0,1,,,,,,,,,,,,,,,,,,,,,,,,,,,,,,,,,,,,,,,
,,,,,,,,2023-08-16_08h42.11.046,HF_wild_card,2022.2.4,Win32,59.23468783,5f3a7e7b3a55e009ff81175e,64d2fd46c836a06233681665,64dc7dc4fcf2642c89e295c6,,,,,,,sngl,resources/DP.BMP,resources/Empty.png,Door2,-0.217592593,0.012962942,1,0,0,0.8968,optionLeft,40,6200,3,27,0,27,0,1,,,,,,,,,,,,,,,,,,,,,,,,,,,,,,,,,,,,,,,
,,,,,,,,2023-08-16_08h42.11.046,HF_wild_card,2022.2.4,Win32,59.23468783,5f3a7e7b3a55e009ff81175e,64d2fd46c836a06233681665,64dc7dc4fcf2642c89e295c6,,,,,,,ctch,resources/DR.BMP,resources/DB.BMP,Door4,0.258333347,-0.000925947,1,0,0,1.0134,optionRight,60,6260,3,28,0,28,0,1,,,,,,,,,,,,,,,,,,,,,,,,,,,,,,,,,,,,,,,
,,,,,,,,2023-08-16_08h42.11.046,HF_wild_card,2022.2.4,Win32,59.23468783,5f3a7e7b3a55e009ff81175e,64d2fd46c836a06233681665,64dc7dc4fcf2642c89e295c6,,,,,,,ctch,resources/DP.BMP,resources/DY.BMP,Door3,0.093518504,-0.024074095,1,0,0,1.3301,optionRight,70,6330,3,29,0,29,0,1,,,,,,,,,,,,,,,,,,,,,,,,,,,,,,,,,,,,,,,
,,,,,,,,2023-08-16_08h42.11.046,HF_wild_card,2022.2.4,Win32,59.23468783,5f3a7e7b3a55e009ff81175e,64d2fd46c836a06233681665,64dc7dc4fcf2642c89e295c6,,,,,,,sngl,resources/Empty.png,resources/DG.BMP,WildCard_NonEx,0.127777806,-0.009259259,1,0,0,0.8629,optionRight,55,6385,3,30,0,30,0,1,,,,,,,,,,,,,,,,,,,,,,,,,,,,,,,,,,,,,,,
,,,,,,,,2023-08-16_08h42.11.046,HF_wild_card,2022.2.4,Win32,59.23468783,5f3a7e7b3a55e009ff81175e,64d2fd46c836a06233681665,64dc7dc4fcf2642c89e295c6,,,,,,,decisionTrl,resources/DG.BMP,resources/DY.BMP,Door3,0.212962963,-0.009259259,1,0,0,2.8135,optionRight,70,6455,3,31,0,31,0,1,,,,,,,,,,,,,,,,,,,,,,,,,,,,,,,,,,,,,,,
,,,,,,,,2023-08-16_08h42.11.046,HF_wild_card,2022.2.4,Win32,59.23468783,5f3a7e7b3a55e009ff81175e,64d2fd46c836a06233681665,64dc7dc4fcf2642c89e295c6,,,,,,,sngl,resources/Empty.png,resources/DG.BMP,WildCard_NonEx,0.168518561,-0.010185206,1,0,0,0.8135,optionRight,45,6500,3,32,0,32,0,1,,,,,,,,,,,,,,,,,,,,,,,,,,,,,,,,,,,,,,,
,,,,,,,,2023-08-16_08h42.11.046,HF_wild_card,2022.2.4,Win32,59.23468783,5f3a7e7b3a55e009ff81175e,64d2fd46c836a06233681665,64dc7dc4fcf2642c89e295c6,,,,,,,decisionTrl,resources/DR.BMP,resources/DP.BMP,Door1,-0.195370356,0.000925912,1,0,0,1.4136,optionLeft,30,6530,3,33,0,33,0,1,,,,,,,,,,,,,,,,,,,,,,,,,,,,,,,,,,,,,,,
,,,,,,,,2023-08-16_08h42.11.046,HF_wild_card,2022.2.4,Win32,59.23468783,5f3a7e7b3a55e009ff81175e,64d2fd46c836a06233681665,64dc7dc4fcf2642c89e295c6,,,,,,,ctch,resources/DR.BMP,resources/DB.BMP,Door4,0.168518561,-0.041666667,1,0,0,0.9467,optionRight,80,6610,3,34,0,34,0,1,,,,,,,,,,,,,,,,,,,,,,,,,,,,,,,,,,,,,,,
,,,,,,,,2023-08-16_08h42.11.046,HF_wild_card,2022.2.4,Win32,59.23468783,5f3a7e7b3a55e009ff81175e,64d2fd46c836a06233681665,64dc7dc4fcf2642c89e295c6,,,,,,,ctch,resources/DB.BMP,resources/DR.BMP,Door4,-0.247222194,0.010185171,1,0,0,1.0447,optionLeft,80,6690,3,35,0,35,0,1,,,,,,,,,,,,,,,,,,,,,,,,,,,,,,,,,,,,,,,
,,,,,,,,2023-08-16_08h42.11.046,HF_wild_card,2022.2.4,Win32,59.23468783,5f3a7e7b3a55e009ff81175e,64d2fd46c836a06233681665,64dc7dc4fcf2642c89e295c6,,,,,,,sngl,resources/Empty.png,resources/DB.BMP,Door4,0.216666681,-0.037037037,1,0,0,0.7803,optionRight,60,6750,3,36,0,36,0,1,,,,,,,,,,,,,,,,,,,,,,,,,,,,,,,,,,,,,,,
,,,,,,,,2023-08-16_08h42.11.046,HF_wild_card,2022.2.4,Win32,59.23468783,5f3a7e7b3a55e009ff81175e,64d2fd46c836a06233681665,64dc7dc4fcf2642c89e295c6,,,,,,,decisionTrl,resources/DR.BMP,resources/DP.BMP,Door1,-0.224999958,0.02407406,1,0,0,1.6135,optionLeft,30,6780,3,37,0,37,0,1,,,,,,,,,,,,,,,,,,,,,,,,,,,,,,,,,,,,,,,
,,,,,,,,2023-08-16_08h42.11.046,HF_wild_card,2022.2.4,Win32,59.23468783,5f3a7e7b3a55e009ff81175e,64d2fd46c836a06233681665,64dc7dc4fcf2642c89e295c6,,,,,,,decisionTrl,resources/DY.BMP,resources/DB.BMP,Door4,0.23055557,-0.049074067,1,0,0,0.7933,optionRight,80,6860,3,38,0,38,0,1,,,,,,,,,,,,,,,,,,,,,,,,,,,,,,,,,,,,,,,
,,,,,,,,2023-08-16_08h42.11.046,HF_wild_card,2022.2.4,Win32,59.23468783,5f3a7e7b3a55e009ff81175e,64d2fd46c836a06233681665,64dc7dc4fcf2642c89e295c6,,,,,,,decisionTrl,resources/DP.BMP,resources/DR.BMP,Door1,0.156481496,-0.057407414,1,0,0,2.2467,optionRight,30,6890,3,39,0,39,0,1,,,,,,,,,,,,,,,,,,,,,,,,,,,,,,,,,,,,,,,
,,,,,,,,2023-08-16_08h42.11.046,HF_wild_card,2022.2.4,Win32,59.23468783,5f3a7e7b3a55e009ff81175e,64d2fd46c836a06233681665,64dc7dc4fcf2642c89e295c6,,,,,,,ctch,resources/DP.BMP,resources/DY.BMP,Door3,0.279629672,0.0074074,1,0,0,1.4218,optionRight,70,6960,3,40,0,40,0,1,,,,,,,,,,,,,,,,,,,,,,,,,,,,,,,,,,,,,,,
,,,,,,,,2023-08-16_08h42.11.046,HF_wild_card,2022.2.4,Win32,59.23468783,5f3a7e7b3a55e009ff81175e,64d2fd46c836a06233681665,64dc7dc4fcf2642c89e295c6,,,,,,,sngl,resources/Empty.png,resources/DP.BMP,Door2,0.173148191,-0.026851866,1,0,0,0.8469,optionRight,20,6980,3,41,0,41,0,1,,,,,,,,,,,,,,,,,,,,,,,,,,,,,,,,,,,,,,,
,,,,,,,,2023-08-16_08h42.11.046,HF_wild_card,2022.2.4,Win32,59.23468783,5f3a7e7b3a55e009ff81175e,64d2fd46c836a06233681665,64dc7dc4fcf2642c89e295c6,,,,,,,decisionTrl,resources/DY.BMP,resources/DG.BMP,Door3,-0.226851852,0.01203703,1,0,0,0.9468,optionLeft,70,7050,3,42,0,42,0,1,,,,,,,,,,,,,,,,,,,,,,,,,,,,,,,,,,,,,,,
,,,,,,,,2023-08-16_08h42.11.046,HF_wild_card,2022.2.4,Win32,59.23468783,5f3a7e7b3a55e009ff81175e,64d2fd46c836a06233681665,64dc7dc4fcf2642c89e295c6,,,,,,,decisionTrl,resources/DR.BMP,resources/DP.BMP,Door1,-0.227777764,-0.018518519,1,0,0,1.1966,optionLeft,30,7080,3,43,0,43,0,1,,,,,,,,,,,,,,,,,,,,,,,,,,,,,,,,,,,,,,,
,,,,,,,,2023-08-16_08h42.11.046,HF_wild_card,2022.2.4,Win32,59.23468783,5f3a7e7b3a55e009ff81175e,64d2fd46c836a06233681665,64dc7dc4fcf2642c89e295c6,,,,,,,,,,,,,,,,,,,,,,,,,,2,0,2,0,1,,,,,,,,,,,,,,,,,,,,,,,,,,,,,,,,,,
,,,,,,,,2023-08-16_08h42.11.046,HF_wild_card,2022.2.4,Win32,59.23468783,5f3a7e7b3a55e009ff81175e,64d2fd46c836a06233681665,64dc7dc4fcf2642c89e295c6,,,,,,,decisionTrl,resources/DP.BMP,resources/DR.BMP,Door1,0.224074116,-0.032407407,1,0,0,4.7512,optionRight,30,7110,4,0,0,0,0,1,,,,,,,,,,,,,,,,,,,,,,,,,,,,,,,,,,,,,,,
,,,,,,,,2023-08-16_08h42.11.046,HF_wild_card,2022.2.4,Win32,59.23468783,5f3a7e7b3a55e009ff81175e,64d2fd46c836a06233681665,64dc7dc4fcf2642c89e295c6,,,,,,,sngl,resources/Empty.png,resources/DR.BMP,Door1,0.10555557,-0.022222236,1,0,0,0.8142,optionRight,30,7140,4,1,0,1,0,1,,,,,,,,,,,,,,,,,,,,,,,,,,,,,,,,,,,,,,,
,,,,,,,,2023-08-16_08h42.11.046,HF_wild_card,2022.2.4,Win32,59.23468783,5f3a7e7b3a55e009ff81175e,64d2fd46c836a06233681665,64dc7dc4fcf2642c89e295c6,,,,,,,decisionTrl,resources/DY.BMP,resources/DB.BMP,Door4,0.139814801,-0.025925919,1,0,0,1.2982,optionRight,60,7200,4,2,0,2,0,1,,,,,,,,,,,,,,,,,,,,,,,,,,,,,,,,,,,,,,,
,,,,,,,,2023-08-16_08h42.11.046,HF_wild_card,2022.2.4,Win32,59.23468783,5f3a7e7b3a55e009ff81175e,64d2fd46c836a06233681665,64dc7dc4fcf2642c89e295c6,,,,,,,sngl,resources/Empty.png,resources/DB.BMP,Door4,0.178703732,-0.014814836,1,0,0,0.815,optionRight,80,7280,4,3,0,3,0,1,,,,,,,,,,,,,,,,,,,,,,,,,,,,,,,,,,,,,,,
,,,,,,,,2023-08-16_08h42.11.046,HF_wild_card,2022.2.4,Win32,59.23468783,5f3a7e7b3a55e009ff81175e,64d2fd46c836a06233681665,64dc7dc4fcf2642c89e295c6,,,,,,,decisionTrl,resources/DP.BMP,resources/DR.BMP,Door2,-0.181481467,-0.031481496,1,0,0,2.5147,optionLeft,40,7320,4,4,0,4,0,1,,,,,,,,,,,,,,,,,,,,,,,,,,,,,,,,,,,,,,,
,,,,,,,,2023-08-16_08h42.11.046,HF_wild_card,2022.2.4,Win32,59.23468783,5f3a7e7b3a55e009ff81175e,64d2fd46c836a06233681665,64dc7dc4fcf2642c89e295c6,,,,,,,decisionTrl,resources/DR.BMP,resources/DP.BMP,Door1,-0.239814829,-0.00462963,1,0,0,0.98,optionLeft,30,7350,4,5,0,5,0,1,,,,,,,,,,,,,,,,,,,,,,,,,,,,,,,,,,,,,,,
,,,,,,,,2023-08-16_08h42.11.046,HF_wild_card,2022.2.4,Win32,59.23468783,5f3a7e7b3a55e009ff81175e,64d2fd46c836a06233681665,64dc7dc4fcf2642c89e295c6,,,,,,,decisionTrl,resources/DB.BMP,resources/DBN.BMP,WildCard_Ex,0.175925926,0.01203703,1,0,0,1.7636,optionRight,45,7395,4,6,0,6,0,1,,,,,,,,,,,,,,,,,,,,,,,,,,,,,,,,,,,,,,,
,,,,,,,,2023-08-16_08h42.11.046,HF_wild_card,2022.2.4,Win32,59.23468783,5f3a7e7b3a55e009ff81175e,64d2fd46c836a06233681665,64dc7dc4fcf2642c89e295c6,,,,,,,decisionTrl,resources/DY.BMP,resources/DB.BMP,Door4,0.164814843,-0.014814836,1,0,0,0.8796,optionRight,60,7455,4,7,0,7,0,1,,,,,,,,,,,,,,,,,,,,,,,,,,,,,,,,,,,,,,,
,,,,,,,,2023-08-16_08h42.11.046,HF_wild_card,2022.2.4,Win32,59.23468783,5f3a7e7b3a55e009ff81175e,64d2fd46c836a06233681665,64dc7dc4fcf2642c89e295c6,,,,,,,sngl,resources/DY.BMP,resources/Empty.png,Door3,-0.157407407,-0.009259259,1,0,0,0.8454,optionLeft,70,7525,4,8,0,8,0,1,,,,,,,,,,,,,,,,,,,,,,,,,,,,,,,,,,,,,,,
,,,,,,,,2023-08-16_08h42.11.046,HF_wild_card,2022.2.4,Win32,59.23468783,5f3a7e7b3a55e009ff81175e,64d2fd46c836a06233681665,64dc7dc4fcf2642c89e295c6,,,,,,,decisionTrl,resources/DR.BMP,resources/DP.BMP,Door1,-0.253703718,0.009259259,1,0,0,1.1107,optionLeft,30,7555,4,9,0,9,0,1,,,,,,,,,,,,,,,,,,,,,,,,,,,,,,,,,,,,,,,
,,,,,,,,2023-08-16_08h42.11.046,HF_wild_card,2022.2.4,Win32,59.23468783,5f3a7e7b3a55e009ff81175e,64d2fd46c836a06233681665,64dc7dc4fcf2642c89e295c6,,,,,,,ctch,resources/DY.BMP,resources/DP.BMP,Door3,-0.242592564,0.020370377,1,0,0,1.6984,optionLeft,70,7625,4,10,0,10,0,1,,,,,,,,,,,,,,,,,,,,,,,,,,,,,,,,,,,,,,,
,,,,,,,,2023-08-16_08h42.11.046,HF_wild_card,2022.2.4,Win32,59.23468783,5f3a7e7b3a55e009ff81175e,64d2fd46c836a06233681665,64dc7dc4fcf2642c89e295c6,,,,,,,ctch,resources/DP.BMP,resources/DY.BMP,Door3,0.286111125,-0.09629631,1,0,0,1.3816,optionRight,70,7695,4,11,0,11,0,1,,,,,,,,,,,,,,,,,,,,,,,,,,,,,,,,,,,,,,,
,,,,,,,,2023-08-16_08h42.11.046,HF_wild_card,2022.2.4,Win32,59.23468783,5f3a7e7b3a55e009ff81175e,64d2fd46c836a06233681665,64dc7dc4fcf2642c89e295c6,,,,,,,decisionTrl,resources/DB.BMP,resources/DY.BMP,Door4,-0.27870369,0.033333319,1,0,0,1.0551,optionLeft,60,7755,4,12,0,12,0,1,,,,,,,,,,,,,,,,,,,,,,,,,,,,,,,,,,,,,,,
,,,,,,,,2023-08-16_08h42.11.046,HF_wild_card,2022.2.4,Win32,59.23468783,5f3a7e7b3a55e009ff81175e,64d2fd46c836a06233681665,64dc7dc4fcf2642c89e295c6,,,,,,,decisionTrl,resources/DY.BMP,resources/DB.BMP,Door4,0.209259245,-0.01666666,1,0,0,2.1302,optionRight,80,7835,4,13,0,13,0,1,,,,,,,,,,,,,,,,,,,,,,,,,,,,,,,,,,,,,,,
,,,,,,,,2023-08-16_08h42.11.046,HF_wild_card,2022.2.4,Win32,59.23468783,5f3a7e7b3a55e009ff81175e,64d2fd46c836a06233681665,64dc7dc4fcf2642c89e295c6,,,,,,,sngl,resources/Empty.png,resources/DBN.BMP,WildCard_Ex,0.236111111,0.009259259,1,0,0,1.1958,optionRight,55,7890,4,14,0,14,0,1,,,,,,,,,,,,,,,,,,,,,,,,,,,,,,,,,,,,,,,
,,,,,,,,2023-08-16_08h42.11.046,HF_wild_card,2022.2.4,Win32,59.23468783,5f3a7e7b3a55e009ff81175e,64d2fd46c836a06233681665,64dc7dc4fcf2642c89e295c6,,,,,,,sngl,resources/DR.BMP,resources/Empty.png,Door1,-0.257407365,0.001851859,1,0,0,0.846,optionLeft,30,7920,4,15,0,15,0,1,,,,,,,,,,,,,,,,,,,,,,,,,,,,,,,,,,,,,,,
,,,,,,,,2023-08-16_08h42.11.046,HF_wild_card,2022.2.4,Win32,59.23468783,5f3a7e7b3a55e009ff81175e,64d2fd46c836a06233681665,64dc7dc4fcf2642c89e295c6,,,,,,,decisionTrl,resources/DP.BMP,resources/DBN.BMP,WildCard_Ex,0.191666709,0.005555541,1,0,0,1.6135,optionRight,55,7975,4,16,0,16,0,1,,,,,,,,,,,,,,,,,,,,,,,,,,,,,,,,,,,,,,,
,,,,,,,,2023-08-16_08h42.11.046,HF_wild_card,2022.2.4,Win32,59.23468783,5f3a7e7b3a55e009ff81175e,64d2fd46c836a06233681665,64dc7dc4fcf2642c89e295c6,,,,,,,decisionTrl,resources/DY.BMP,resources/DB.BMP,Door4,0.250925912,-0.008333347,1,0,0,1.08,optionRight,80,8055,4,17,0,17,0,1,,,,,,,,,,,,,,,,,,,,,,,,,,,,,,,,,,,,,,,
,,,,,,,,2023-08-16_08h42.11.046,HF_wild_card,2022.2.4,Win32,59.23468783,5f3a7e7b3a55e009ff81175e,64d2fd46c836a06233681665,64dc7dc4fcf2642c89e295c6,,,,,,,decisionTrl,resources/DBN.BMP,resources/DR.BMP,WildCard_Ex,-0.255555541,-0.000925947,1,0,0,1.563,optionLeft,55,8110,4,18,0,18,0,1,,,,,,,,,,,,,,,,,,,,,,,,,,,,,,,,,,,,,,,
,,,,,,,,2023-08-16_08h42.11.046,HF_wild_card,2022.2.4,Win32,59.23468783,5f3a7e7b3a55e009ff81175e,64d2fd46c836a06233681665,64dc7dc4fcf2642c89e295c6,,,,,,,ctch,resources/DR.BMP,resources/DB.BMP,Door4,0.204629616,-0.023148148,1,0,0,1.1136,optionRight,80,8190,4,19,0,19,0,1,,,,,,,,,,,,,,,,,,,,,,,,,,,,,,,,,,,,,,,
,,,,,,,,2023-08-16_08h42.11.046,HF_wild_card,2022.2.4,Win32,59.23468783,5f3a7e7b3a55e009ff81175e,64d2fd46c836a06233681665,64dc7dc4fcf2642c89e295c6,,,,,,,decisionTrl,resources/DBN.BMP,resources/DY.BMP,Door3,0.338888945,-0.048148155,1,0,0,1.8293,optionRight,70,8260,4,20,0,20,0,1,,,,,,,,,,,,,,,,,,,,,,,,,,,,,,,,,,,,,,,
,,,,,,,,2023-08-16_08h42.11.046,HF_wild_card,2022.2.4,Win32,59.23468783,5f3a7e7b3a55e009ff81175e,64d2fd46c836a06233681665,64dc7dc4fcf2642c89e295c6,,,,,,,sngl,resources/Empty.png,resources/DY.BMP,Door3,0.170370384,-0.037962984,1,0,0,0.809,optionRight,70,8330,4,21,0,21,0,1,,,,,,,,,,,,,,,,,,,,,,,,,,,,,,,,,,,,,,,
,,,,,,,,2023-08-16_08h42.11.046,HF_wild_card,2022.2.4,Win32,59.23468783,5f3a7e7b3a55e009ff81175e,64d2fd46c836a06233681665,64dc7dc4fcf2642c89e295c6,,,,,,,sngl,resources/DBN.BMP,resources/Empty.png,WildCard_Ex,-0.205555527,0.000925912,1,0,0,0.7967,optionLeft,55,8385,4,22,0,22,0,1,,,,,,,,,,,,,,,,,,,,,,,,,,,,,,,,,,,,,,,
,,,,,,,,2023-08-16_08h42.11.046,HF_wild_card,2022.2.4,Win32,59.23468783,5f3a7e7b3a55e009ff81175e,64d2fd46c836a06233681665,64dc7dc4fcf2642c89e295c6,,,,,,,ctch,resources/DB.BMP,resources/DR.BMP,Door4,-0.22129631,-0.025925919,1,0,0,1.1802,optionLeft,80,8465,4,23,0,23,0,1,,,,,,,,,,,,,,,,,,,,,,,,,,,,,,,,,,,,,,,
,,,,,,,,2023-08-16_08h42.11.046,HF_wild_card,2022.2.4,Win32,59.23468783,5f3a7e7b3a55e009ff81175e,64d2fd46c836a06233681665,64dc7dc4fcf2642c89e295c6,,,,,,,decisionTrl,resources/DB.BMP,resources/DY.BMP,Door4,-0.262962977,0.009259259,1,0,0,0.8968,optionLeft,60,8525,4,24,0,24,0,1,,,,,,,,,,,,,,,,,,,,,,,,,,,,,,,,,,,,,,,
,,,,,,,,2023-08-16_08h42.11.046,HF_wild_card,2022.2.4,Win32,59.23468783,5f3a7e7b3a55e009ff81175e,64d2fd46c836a06233681665,64dc7dc4fcf2642c89e295c6,,,,,,,sngl,resources/DB.BMP,resources/Empty.png,Door4,-0.244444459,0.018518519,1,0,0,1.0136,optionLeft,60,8585,4,25,0,25,0,1,,,,,,,,,,,,,,,,,,,,,,,,,,,,,,,,,,,,,,,
,,,,,,,,2023-08-16_08h42.11.046,HF_wild_card,2022.2.4,Win32,59.23468783,5f3a7e7b3a55e009ff81175e,64d2fd46c836a06233681665,64dc7dc4fcf2642c89e295c6,,,,,,,decisionTrl,resources/DR.BMP,resources/DP.BMP,Door2,0.146296325,-0.010185206,1,0,0,1.5791,optionRight,40,8625,4,26,0,26,0,1,,,,,,,,,,,,,,,,,,,,,,,,,,,,,,,,,,,,,,,
,,,,,,,,2023-08-16_08h42.11.046,HF_wild_card,2022.2.4,Win32,59.23468783,5f3a7e7b3a55e009ff81175e,64d2fd46c836a06233681665,64dc7dc4fcf2642c89e295c6,,,,,,,decisionTrl,resources/DB.BMP,resources/DY.BMP,Door4,-0.25462963,-0.024074095,1,0,0,0.8718,optionLeft,60,8685,4,27,0,27,0,1,,,,,,,,,,,,,,,,,,,,,,,,,,,,,,,,,,,,,,,
,,,,,,,,2023-08-16_08h42.11.046,HF_wild_card,2022.2.4,Win32,59.23468783,5f3a7e7b3a55e009ff81175e,64d2fd46c836a06233681665,64dc7dc4fcf2642c89e295c6,,,,,,,sngl,resources/Empty.png,resources/DP.BMP,Door2,0.24537037,-0.017592607,1,0,0,0.8636,optionRight,40,8725,4,28,0,28,0,1,,,,,,,,,,,,,,,,,,,,,,,,,,,,,,,,,,,,,,,
,,,,,,,,2023-08-16_08h42.11.046,HF_wild_card,2022.2.4,Win32,59.23468783,5f3a7e7b3a55e009ff81175e,64d2fd46c836a06233681665,64dc7dc4fcf2642c89e295c6,,,,,,,decisionTrl,resources/DR.BMP,resources/DBN.BMP,WildCard_Ex,0.279629672,0,1,0,0,2.4969,optionRight,55,8780,4,29,0,29,0,1,,,,,,,,,,,,,,,,,,,,,,,,,,,,,,,,,,,,,,,
,,,,,,,,2023-08-16_08h42.11.046,HF_wild_card,2022.2.4,Win32,59.23468783,5f3a7e7b3a55e009ff81175e,64d2fd46c836a06233681665,64dc7dc4fcf2642c89e295c6,,,,,,,decisionTrl,resources/DB.BMP,resources/DY.BMP,Door4,-0.26944443,0.0074074,1,0,0,0.7969,optionLeft,80,8860,4,30,0,30,0,1,,,,,,,,,,,,,,,,,,,,,,,,,,,,,,,,,,,,,,,
,,,,,,,,2023-08-16_08h42.11.046,HF_wild_card,2022.2.4,Win32,59.23468783,5f3a7e7b3a55e009ff81175e,64d2fd46c836a06233681665,64dc7dc4fcf2642c89e295c6,,,,,,,decisionTrl,resources/DBN.BMP,resources/DB.BMP,Door4,0.316666638,-0.075925933,1,0,0,1.2136,optionRight,80,8940,4,31,0,31,0,1,,,,,,,,,,,,,,,,,,,,,,,,,,,,,,,,,,,,,,,
,,,,,,,,2023-08-16_08h42.11.046,HF_wild_card,2022.2.4,Win32,59.23468783,5f3a7e7b3a55e009ff81175e,64d2fd46c836a06233681665,64dc7dc4fcf2642c89e295c6,,,,,,,decisionTrl,resources/DP.BMP,resources/DR.BMP,Door2,-0.222222222,0.001851859,1,0,0,1.0803,optionLeft,20,8960,4,32,0,32,0,1,,,,,,,,,,,,,,,,,,,,,,,,,,,,,,,,,,,,,,,
,,,,,,,,2023-08-16_08h42.11.046,HF_wild_card,2022.2.4,Win32,59.23468783,5f3a7e7b3a55e009ff81175e,64d2fd46c836a06233681665,64dc7dc4fcf2642c89e295c6,,,,,,,sngl,resources/DP.BMP,resources/Empty.png,Door2,-0.151851866,0.014814801,1,0,0,0.8471,optionLeft,20,8980,4,33,0,33,0,1,,,,,,,,,,,,,,,,,,,,,,,,,,,,,,,,,,,,,,,
,,,,,,,,2023-08-16_08h42.11.046,HF_wild_card,2022.2.4,Win32,59.23468783,5f3a7e7b3a55e009ff81175e,64d2fd46c836a06233681665,64dc7dc4fcf2642c89e295c6,,,,,,,sngl,resources/DBN.BMP,resources/Empty.png,WildCard_Ex,-0.340740734,0.052777785,1,0,0,0.7969,optionLeft,45,9025,4,34,0,34,0,1,,,,,,,,,,,,,,,,,,,,,,,,,,,,,,,,,,,,,,,
,,,,,,,,2023-08-16_08h42.11.046,HF_wild_card,2022.2.4,Win32,59.23468783,5f3a7e7b3a55e009ff81175e,64d2fd46c836a06233681665,64dc7dc4fcf2642c89e295c6,,,,,,,decisionTrl,resources/DBN.BMP,resources/DP.BMP,WildCard_Ex,-0.25462963,0.003703683,1,0,0,1.4804,optionLeft,45,9070,4,35,0,35,0,1,,,,,,,,,,,,,,,,,,,,,,,,,,,,,,,,,,,,,,,
,,,,,,,,2023-08-16_08h42.11.046,HF_wild_card,2022.2.4,Win32,59.23468783,5f3a7e7b3a55e009ff81175e,64d2fd46c836a06233681665,64dc7dc4fcf2642c89e295c6,,,,,,,ctch,resources/DY.BMP,resources/DP.BMP,Door3,-0.189814815,-0.010185206,1,0,0,1.297,optionLeft,70,9140,4,36,0,36,0,1,,,,,,,,,,,,,,,,,,,,,,,,,,,,,,,,,,,,,,,
,,,,,,,,2023-08-16_08h42.11.046,HF_wild_card,2022.2.4,Win32,59.23468783,5f3a7e7b3a55e009ff81175e,64d2fd46c836a06233681665,64dc7dc4fcf2642c89e295c6,,,,,,,sngl,resources/Empty.png,resources/DBN.BMP,WildCard_Ex,0.174074102,-0.017592607,1,0,0,0.8136,optionRight,45,9185,4,37,0,37,0,1,,,,,,,,,,,,,,,,,,,,,,,,,,,,,,,,,,,,,,,
,,,,,,,,2023-08-16_08h42.11.046,HF_wild_card,2022.2.4,Win32,59.23468783,5f3a7e7b3a55e009ff81175e,64d2fd46c836a06233681665,64dc7dc4fcf2642c89e295c6,,,,,,,decisionTrl,resources/DP.BMP,resources/DR.BMP,Door2,-0.238888847,-0.020370377,1,0,0,0.9135,optionLeft,20,9205,4,38,0,38,0,1,,,,,,,,,,,,,,,,,,,,,,,,,,,,,,,,,,,,,,,
,,,,,,,,2023-08-16_08h42.11.046,HF_wild_card,2022.2.4,Win32,59.23468783,5f3a7e7b3a55e009ff81175e,64d2fd46c836a06233681665,64dc7dc4fcf2642c89e295c6,,,,,,,ctch,resources/DR.BMP,resources/DB.BMP,Door4,0.216666681,-0.023148148,1,0,0,0.9962,optionRight,80,9285,4,39,0,39,0,1,,,,,,,,,,,,,,,,,,,,,,,,,,,,,,,,,,,,,,,
,,,,,,,,2023-08-16_08h42.11.046,HF_wild_card,2022.2.4,Win32,59.23468783,5f3a7e7b3a55e009ff81175e,64d2fd46c836a06233681665,64dc7dc4fcf2642c89e295c6,,,,,,,ctch,resources/DB.BMP,resources/DR.BMP,Door4,-0.277777778,0.013888889,1,0,0,0.946,optionLeft,80,9365,4,40,0,40,0,1,,,,,,,,,,,,,,,,,,,,,,,,,,,,,,,,,,,,,,,
,,,,,,,,2023-08-16_08h42.11.046,HF_wild_card,2022.2.4,Win32,59.23468783,5f3a7e7b3a55e009ff81175e,64d2fd46c836a06233681665,64dc7dc4fcf2642c89e295c6,,,,,,,decisionTrl,resources/DR.BMP,resources/DP.BMP,Door1,-0.267592607,-0.000925947,1,0,0,1.3628,optionLeft,30,9395,4,41,0,41,0,1,,,,,,,,,,,,,,,,,,,,,,,,,,,,,,,,,,,,,,,
,,,,,,,,2023-08-16_08h42.11.046,HF_wild_card,2022.2.4,Win32,59.23468783,5f3a7e7b3a55e009ff81175e,64d2fd46c836a06233681665,64dc7dc4fcf2642c89e295c6,,,,,,,decisionTrl,resources/DY.BMP,resources/DBN.BMP,Door3,-0.306481467,0.005555541,1,0,0,1.2623,optionLeft,70,9465,4,42,0,42,0,1,,,,,,,,,,,,,,,,,,,,,,,,,,,,,,,,,,,,,,,
,,,,,,,,2023-08-16_08h42.11.046,HF_wild_card,2022.2.4,Win32,59.23468783,5f3a7e7b3a55e009ff81175e,64d2fd46c836a06233681665,64dc7dc4fcf2642c89e295c6,,,,,,,ctch,resources/DP.BMP,resources/DY.BMP,Door3,0.172222208,-0.019444466,1,0,0,0.9637,optionRight,70,9535,4,43,0,43,0,1,,,,,,,,,,,,,,,,,,,,,,,,,,,,,,,,,,,,,,,
,,,,,,,,2023-08-16_08h42.11.046,HF_wild_card,2022.2.4,Win32,59.23468783,5f3a7e7b3a55e009ff81175e,64d2fd46c836a06233681665,64dc7dc4fcf2642c89e295c6,,,,,,,,,,,,,,,,,,,,,,,,,,3,0,3,0,1,,,,,,,,,,,,,,,,,,,,,,,,,,,,,,,,,,
,,,,,,,,2023-08-16_08h42.11.046,HF_wild_card,2022.2.4,Win32,59.23468783,5f3a7e7b3a55e009ff81175e,64d2fd46c836a06233681665,64dc7dc4fcf2642c89e295c6,,,,,,,ctch,resources/DP.BMP,resources/DY.BMP,Door3,0.250925912,-0.058333326,1,0,0,11.0874,optionRight,70,9605,5,0,0,0,0,1,,,,,,,,,,,,,,,,,,,,,,,,,,,,,,,,,,,,,,,
,,,,,,,,2023-08-16_08h42.11.046,HF_wild_card,2022.2.4,Win32,59.23468783,5f3a7e7b3a55e009ff81175e,64d2fd46c836a06233681665,64dc7dc4fcf2642c89e295c6,,,,,,,decisionTrl,resources/DB.BMP,resources/DY.BMP,Door4,-0.299074067,-0.01203703,1,0,0,2.5122,optionLeft,60,9665,5,1,0,1,0,1,,,,,,,,,,,,,,,,,,,,,,,,,,,,,,,,,,,,,,,
,,,,,,,,2023-08-16_08h42.11.046,HF_wild_card,2022.2.4,Win32,59.23468783,5f3a7e7b3a55e009ff81175e,64d2fd46c836a06233681665,64dc7dc4fcf2642c89e295c6,,,,,,,ctch,resources/DY.BMP,resources/DP.BMP,Door3,-0.237962935,-0.042592614,1,0,0,1.0127,optionLeft,70,9735,5,2,0,2,0,1,,,,,,,,,,,,,,,,,,,,,,,,,,,,,,,,,,,,,,,
,,,,,,,,2023-08-16_08h42.11.046,HF_wild_card,2022.2.4,Win32,59.23468783,5f3a7e7b3a55e009ff81175e,64d2fd46c836a06233681665,64dc7dc4fcf2642c89e295c6,,,,,,,sngl,resources/Empty.png,resources/DR.BMP,Door1,0.20648151,-0.015740748,1,0,0,0.8302,optionRight,30,9765,5,3,0,3,0,1,,,,,,,,,,,,,,,,,,,,,,,,,,,,,,,,,,,,,,,
,,,,,,,,2023-08-16_08h42.11.046,HF_wild_card,2022.2.4,Win32,59.23468783,5f3a7e7b3a55e009ff81175e,64d2fd46c836a06233681665,64dc7dc4fcf2642c89e295c6,,,,,,,sngl,resources/Empty.png,resources/DP.BMP,Door2,0.187962991,-0.032407407,1,0,0,0.8634,optionRight,20,9785,5,4,0,4,0,1,,,,,,,,,,,,,,,,,,,,,,,,,,,,,,,,,,,,,,,
,,,,,,,,2023-08-16_08h42.11.046,HF_wild_card,2022.2.4,Win32,59.23468783,5f3a7e7b3a55e009ff81175e,64d2fd46c836a06233681665,64dc7dc4fcf2642c89e295c6,,,,,,,sngl,resources/DY.BMP,resources/Empty.png,Door3,-0.234259217,-0.014814836,1,0,0,0.7635,optionLeft,70,9855,5,5,0,5,0,1,,,,,,,,,,,,,,,,,,,,,,,,,,,,,,,,,,,,,,,
,,,,,,,,2023-08-16_08h42.11.046,HF_wild_card,2022.2.4,Win32,59.23468783,5f3a7e7b3a55e009ff81175e,64d2fd46c836a06233681665,64dc7dc4fcf2642c89e295c6,,,,,,,decisionTrl,resources/DY.BMP,resources/DB.BMP,Door4,0.198148162,-0.030555548,1,0,0,1.2967,optionRight,60,9915,5,6,0,6,0,1,,,,,,,,,,,,,,,,,,,,,,,,,,,,,,,,,,,,,,,
,,,,,,,,2023-08-16_08h42.11.046,HF_wild_card,2022.2.4,Win32,59.23468783,5f3a7e7b3a55e009ff81175e,64d2fd46c836a06233681665,64dc7dc4fcf2642c89e295c6,,,,,,,decisionTrl,resources/DP.BMP,resources/DR.BMP,Door1,0.156481496,-0.010185206,1,0,0,1.7815,optionRight,30,9945,5,7,0,7,0,1,,,,,,,,,,,,,,,,,,,,,,,,,,,,,,,,,,,,,,,
,,,,,,,,2023-08-16_08h42.11.046,HF_wild_card,2022.2.4,Win32,59.23468783,5f3a7e7b3a55e009ff81175e,64d2fd46c836a06233681665,64dc7dc4fcf2642c89e295c6,,,,,,,decisionTrl,resources/DY.BMP,resources/DB.BMP,Door4,0.150000042,-0.019444466,1,0,0,0.9301,optionRight,80,10025,5,8,0,8,0,1,,,,,,,,,,,,,,,,,,,,,,,,,,,,,,,,,,,,,,,
,,,,,,,,2023-08-16_08h42.11.046,HF_wild_card,2022.2.4,Win32,59.23468783,5f3a7e7b3a55e009ff81175e,64d2fd46c836a06233681665,64dc7dc4fcf2642c89e295c6,,,,,,,decisionTrl,resources/DY.BMP,resources/DBN.BMP,Door3,-0.333333333,-0.057407414,1,0,0,0.9303,optionLeft,70,10095,5,9,0,9,0,1,,,,,,,,,,,,,,,,,,,,,,,,,,,,,,,,,,,,,,,
,,,,,,,,2023-08-16_08h42.11.046,HF_wild_card,2022.2.4,Win32,59.23468783,5f3a7e7b3a55e009ff81175e,64d2fd46c836a06233681665,64dc7dc4fcf2642c89e295c6,,,,,,,decisionTrl,resources/DB.BMP,resources/DBN.BMP,Door4,-0.330555563,-0.022222236,1,0,0,0.8636,optionLeft,60,10155,5,10,0,10,0,1,,,,,,,,,,,,,,,,,,,,,,,,,,,,,,,,,,,,,,,
,,,,,,,,2023-08-16_08h42.11.046,HF_wild_card,2022.2.4,Win32,59.23468783,5f3a7e7b3a55e009ff81175e,64d2fd46c836a06233681665,64dc7dc4fcf2642c89e295c6,,,,,,,decisionTrl,resources/DB.BMP,resources/DY.BMP,Door4,-0.176851838,-0.00462963,1,0,0,1.0301,optionLeft,60,10215,5,11,0,11,0,1,,,,,,,,,,,,,,,,,,,,,,,,,,,,,,,,,,,,,,,
,,,,,,,,2023-08-16_08h42.11.046,HF_wild_card,2022.2.4,Win32,59.23468783,5f3a7e7b3a55e009ff81175e,64d2fd46c836a06233681665,64dc7dc4fcf2642c89e295c6,,,,,,,sngl,resources/Empty.png,resources/DBN.BMP,WildCard_Ex,0.20185188,-0.025925919,1,0,0,0.7971,optionRight,45,10260,5,12,0,12,0,1,,,,,,,,,,,,,,,,,,,,,,,,,,,,,,,,,,,,,,,
,,,,,,,,2023-08-16_08h42.11.046,HF_wild_card,2022.2.4,Win32,59.23468783,5f3a7e7b3a55e009ff81175e,64d2fd46c836a06233681665,64dc7dc4fcf2642c89e295c6,,,,,,,ctch,resources/DY.BMP,resources/DP.BMP,Door3,-0.095370328,-0.010185206,1,0,0,0.9634,optionLeft,70,10330,5,13,0,13,0,1,,,,,,,,,,,,,,,,,,,,,,,,,,,,,,,,,,,,,,,
,,,,,,,,2023-08-16_08h42.11.046,HF_wild_card,2022.2.4,Win32,59.23468783,5f3a7e7b3a55e009ff81175e,64d2fd46c836a06233681665,64dc7dc4fcf2642c89e295c6,,,,,,,ctch,resources/DR.BMP,resources/DB.BMP,Door4,0.169444473,-0.050000014,1,0,0,1.0291,optionRight,60,10390,5,14,0,14,0,1,,,,,,,,,,,,,,,,,,,,,,,,,,,,,,,,,,,,,,,
,,,,,,,,2023-08-16_08h42.11.046,HF_wild_card,2022.2.4,Win32,59.23468783,5f3a7e7b3a55e009ff81175e,64d2fd46c836a06233681665,64dc7dc4fcf2642c89e295c6,,,,,,,sngl,resources/DR.BMP,resources/Empty.png,Door1,-0.265740712,-0.01666666,1,0,0,1.147,optionLeft,30,10420,5,15,0,15,0,1,,,,,,,,,,,,,,,,,,,,,,,,,,,,,,,,,,,,,,,
,,,,,,,,2023-08-16_08h42.11.046,HF_wild_card,2022.2.4,Win32,59.23468783,5f3a7e7b3a55e009ff81175e,64d2fd46c836a06233681665,64dc7dc4fcf2642c89e295c6,,,,,,,ctch,resources/DB.BMP,resources/DR.BMP,Door4,-0.300925926,0.01666666,1,0,0,0.7636,optionLeft,60,10480,5,16,0,16,0,1,,,,,,,,,,,,,,,,,,,,,,,,,,,,,,,,,,,,,,,
,,,,,,,,2023-08-16_08h42.11.046,HF_wild_card,2022.2.4,Win32,59.23468783,5f3a7e7b3a55e009ff81175e,64d2fd46c836a06233681665,64dc7dc4fcf2642c89e295c6,,,,,,,sngl,resources/Empty.png,resources/DB.BMP,Door4,0.225000028,-0.020370377,1,0,0,0.8135,optionRight,60,10540,5,17,0,17,0,1,,,,,,,,,,,,,,,,,,,,,,,,,,,,,,,,,,,,,,,
,,,,,,,,2023-08-16_08h42.11.046,HF_wild_card,2022.2.4,Win32,59.23468783,5f3a7e7b3a55e009ff81175e,64d2fd46c836a06233681665,64dc7dc4fcf2642c89e295c6,,,,,,,decisionTrl,resources/DY.BMP,resources/DB.BMP,Door4,0.178703732,-0.053703697,1,0,0,0.8969,optionRight,60,10600,5,18,0,18,0,1,,,,,,,,,,,,,,,,,,,,,,,,,,,,,,,,,,,,,,,
,,,,,,,,2023-08-16_08h42.11.046,HF_wild_card,2022.2.4,Win32,59.23468783,5f3a7e7b3a55e009ff81175e,64d2fd46c836a06233681665,64dc7dc4fcf2642c89e295c6,,,,,,,sngl,resources/Empty.png,resources/DY.BMP,Door3,0.122222265,-0.01203703,1,0,0,0.8631,optionRight,70,10670,5,19,0,19,0,1,,,,,,,,,,,,,,,,,,,,,,,,,,,,,,,,,,,,,,,
,,,,,,,,2023-08-16_08h42.11.046,HF_wild_card,2022.2.4,Win32,59.23468783,5f3a7e7b3a55e009ff81175e,64d2fd46c836a06233681665,64dc7dc4fcf2642c89e295c6,,,,,,,decisionTrl,resources/DBN.BMP,resources/DB.BMP,Door4,0.167592578,-0.038888896,1,0,0,2.1952,optionRight,80,10750,5,20,0,20,0,1,,,,,,,,,,,,,,,,,,,,,,,,,,,,,,,,,,,,,,,
,,,,,,,,2023-08-16_08h42.11.046,HF_wild_card,2022.2.4,Win32,59.23468783,5f3a7e7b3a55e009ff81175e,64d2fd46c836a06233681665,64dc7dc4fcf2642c89e295c6,,,,,,,decisionTrl,resources/DR.BMP,resources/DP.BMP,Door1,-0.182407379,-0.021296289,1,0,0,1.2133,optionLeft,30,10780,5,21,0,21,0,1,,,,,,,,,,,,,,,,,,,,,,,,,,,,,,,,,,,,,,,
,,,,,,,,2023-08-16_08h42.11.046,HF_wild_card,2022.2.4,Win32,59.23468783,5f3a7e7b3a55e009ff81175e,64d2fd46c836a06233681665,64dc7dc4fcf2642c89e295c6,,,,,,,sngl,resources/DP.BMP,resources/Empty.png,Door2,-0.17314812,-0.0074074,1,0,0,0.8791,optionLeft,40,10820,5,22,0,22,0,1,,,,,,,,,,,,,,,,,,,,,,,,,,,,,,,,,,,,,,,
,,,,,,,,2023-08-16_08h42.11.046,HF_wild_card,2022.2.4,Win32,59.23468783,5f3a7e7b3a55e009ff81175e,64d2fd46c836a06233681665,64dc7dc4fcf2642c89e295c6,,,,,,,ctch,resources/DB.BMP,resources/DR.BMP,Door4,-0.211111069,0.006481489,1,0,0,0.947,optionLeft,80,10900,5,23,0,23,0,1,,,,,,,,,,,,,,,,,,,,,,,,,,,,,,,,,,,,,,,
,,,,,,,,2023-08-16_08h42.11.046,HF_wild_card,2022.2.4,Win32,59.23468783,5f3a7e7b3a55e009ff81175e,64d2fd46c836a06233681665,64dc7dc4fcf2642c89e295c6,,,,,,,ctch,resources/DR.BMP,resources/DB.BMP,Door4,0.214814857,-0.002777771,1,0,0,0.7969,optionRight,80,10980,5,24,0,24,0,1,,,,,,,,,,,,,,,,,,,,,,,,,,,,,,,,,,,,,,,
,,,,,,,,2023-08-16_08h42.11.046,HF_wild_card,2022.2.4,Win32,59.23468783,5f3a7e7b3a55e009ff81175e,64d2fd46c836a06233681665,64dc7dc4fcf2642c89e295c6,,,,,,,ctch,resources/DP.BMP,resources/DY.BMP,Door3,0.168518561,-0.035185178,1,0,0,1.5969,optionRight,70,11050,5,25,0,25,0,1,,,,,,,,,,,,,,,,,,,,,,,,,,,,,,,,,,,,,,,
,,,,,,,,2023-08-16_08h42.11.046,HF_wild_card,2022.2.4,Win32,59.23468783,5f3a7e7b3a55e009ff81175e,64d2fd46c836a06233681665,64dc7dc4fcf2642c89e295c6,,,,,,,decisionTrl,resources/DB.BMP,resources/DY.BMP,Door4,-0.218518504,0.003703683,1,0,0,1.7143,optionLeft,60,11110,5,26,0,26,0,1,,,,,,,,,,,,,,,,,,,,,,,,,,,,,,,,,,,,,,,
,,,,,,,,2023-08-16_08h42.11.046,HF_wild_card,2022.2.4,Win32,59.23468783,5f3a7e7b3a55e009ff81175e,64d2fd46c836a06233681665,64dc7dc4fcf2642c89e295c6,,,,,,,decisionTrl,resources/DBN.BMP,resources/DP.BMP,WildCard_Ex,-0.239814829,0.006481489,1,0,0,1.3799,optionLeft,45,11155,5,27,0,27,0,1,,,,,,,,,,,,,,,,,,,,,,,,,,,,,,,,,,,,,,,
,,,,,,,,2023-08-16_08h42.11.046,HF_wild_card,2022.2.4,Win32,59.23468783,5f3a7e7b3a55e009ff81175e,64d2fd46c836a06233681665,64dc7dc4fcf2642c89e295c6,,,,,,,decisionTrl,resources/DR.BMP,resources/DP.BMP,Door1,-0.149999972,0.001851859,1,0,0,2.5138,optionLeft,30,11185,5,28,0,28,0,1,,,,,,,,,,,,,,,,,,,,,,,,,,,,,,,,,,,,,,,
,,,,,,,,2023-08-16_08h42.11.046,HF_wild_card,2022.2.4,Win32,59.23468783,5f3a7e7b3a55e009ff81175e,64d2fd46c836a06233681665,64dc7dc4fcf2642c89e295c6,,,,,,,decisionTrl,resources/DP.BMP,resources/DR.BMP,Door1,0.198148162,-0.070370392,1,0,0,2.1138,optionRight,30,11215,5,29,0,29,0,1,,,,,,,,,,,,,,,,,,,,,,,,,,,,,,,,,,,,,,,
,,,,,,,,2023-08-16_08h42.11.046,HF_wild_card,2022.2.4,Win32,59.23468783,5f3a7e7b3a55e009ff81175e,64d2fd46c836a06233681665,64dc7dc4fcf2642c89e295c6,,,,,,,decisionTrl,resources/DR.BMP,resources/DBN.BMP,WildCard_Ex,0.131481524,-0.018518519,1,0,0,2.5287,optionRight,45,11260,5,30,0,30,0,1,,,,,,,,,,,,,,,,,,,,,,,,,,,,,,,,,,,,,,,
,,,,,,,,2023-08-16_08h42.11.046,HF_wild_card,2022.2.4,Win32,59.23468783,5f3a7e7b3a55e009ff81175e,64d2fd46c836a06233681665,64dc7dc4fcf2642c89e295c6,,,,,,,sngl,resources/Empty.png,resources/DBN.BMP,WildCard_Ex,0.237037023,-0.034259266,1,0,0,0.9805,optionRight,55,11315,5,31,0,31,0,1,,,,,,,,,,,,,,,,,,,,,,,,,,,,,,,,,,,,,,,
,,,,,,,,2023-08-16_08h42.11.046,HF_wild_card,2022.2.4,Win32,59.23468783,5f3a7e7b3a55e009ff81175e,64d2fd46c836a06233681665,64dc7dc4fcf2642c89e295c6,,,,,,,decisionTrl,resources/DP.BMP,resources/DBN.BMP,WildCard_Ex,0.185185185,-0.002777771,1,0,0,1.4151,optionRight,45,11360,5,32,0,32,0,1,,,,,,,,,,,,,,,,,,,,,,,,,,,,,,,,,,,,,,,
,,,,,,,,2023-08-16_08h42.11.046,HF_wild_card,2022.2.4,Win32,59.23468783,5f3a7e7b3a55e009ff81175e,64d2fd46c836a06233681665,64dc7dc4fcf2642c89e295c6,,,,,,,decisionTrl,resources/DP.BMP,resources/DR.BMP,Door1,0.19722225,-0.026851866,1,0,0,1.2968,optionRight,30,11390,5,33,0,33,0,1,,,,,,,,,,,,,,,,,,,,,,,,,,,,,,,,,,,,,,,
,,,,,,,,2023-08-16_08h42.11.046,HF_wild_card,2022.2.4,Win32,59.23468783,5f3a7e7b3a55e009ff81175e,64d2fd46c836a06233681665,64dc7dc4fcf2642c89e295c6,,,,,,,decisionTrl,resources/DR.BMP,resources/DP.BMP,Door1,-0.214814787,0.003703683,1,0,0,1.5967,optionLeft,30,11420,5,34,0,34,0,1,,,,,,,,,,,,,,,,,,,,,,,,,,,,,,,,,,,,,,,
,,,,,,,,2023-08-16_08h42.11.046,HF_wild_card,2022.2.4,Win32,59.23468783,5f3a7e7b3a55e009ff81175e,64d2fd46c836a06233681665,64dc7dc4fcf2642c89e295c6,,,,,,,decisionTrl,resources/DP.BMP,resources/DR.BMP,Door1,0.17777782,0.0074074,1,0,0,1.1638,optionRight,30,11450,5,35,0,35,0,1,,,,,,,,,,,,,,,,,,,,,,,,,,,,,,,,,,,,,,,
,,,,,,,,2023-08-16_08h42.11.046,HF_wild_card,2022.2.4,Win32,59.23468783,5f3a7e7b3a55e009ff81175e,64d2fd46c836a06233681665,64dc7dc4fcf2642c89e295c6,,,,,,,sngl,resources/DBN.BMP,resources/Empty.png,WildCard_Ex,-0.276851866,0.005555541,1,0,0,0.8803,optionLeft,55,11505,5,36,0,36,0,1,,,,,,,,,,,,,,,,,,,,,,,,,,,,,,,,,,,,,,,
,,,,,,,,2023-08-16_08h42.11.046,HF_wild_card,2022.2.4,Win32,59.23468783,5f3a7e7b3a55e009ff81175e,64d2fd46c836a06233681665,64dc7dc4fcf2642c89e295c6,,,,,,,decisionTrl,resources/DR.BMP,resources/DP.BMP,Door1,-0.267592607,-0.003703718,1,0,0,1.0134,optionLeft,30,11535,5,37,0,37,0,1,,,,,,,,,,,,,,,,,,,,,,,,,,,,,,,,,,,,,,,
,,,,,,,,2023-08-16_08h42.11.046,HF_wild_card,2022.2.4,Win32,59.23468783,5f3a7e7b3a55e009ff81175e,64d2fd46c836a06233681665,64dc7dc4fcf2642c89e295c6,,,,,,,sngl,resources/DB.BMP,resources/Empty.png,Door4,-0.270370342,0.023148148,1,0,0,0.8635,optionLeft,80,11615,5,38,0,38,0,1,,,,,,,,,,,,,,,,,,,,,,,,,,,,,,,,,,,,,,,
,,,,,,,,2023-08-16_08h42.11.046,HF_wild_card,2022.2.4,Win32,59.23468783,5f3a7e7b3a55e009ff81175e,64d2fd46c836a06233681665,64dc7dc4fcf2642c89e295c6,,,,,,,decisionTrl,resources/DY.BMP,resources/DB.BMP,Door4,0.18240745,-0.029629637,1,0,0,0.9799,optionRight,60,11675,5,39,0,39,0,1,,,,,,,,,,,,,,,,,,,,,,,,,,,,,,,,,,,,,,,
,,,,,,,,2023-08-16_08h42.11.046,HF_wild_card,2022.2.4,Win32,59.23468783,5f3a7e7b3a55e009ff81175e,64d2fd46c836a06233681665,64dc7dc4fcf2642c89e295c6,,,,,,,sngl,resources/DBN.BMP,resources/Empty.png,WildCard_Ex,-0.251851824,0.029629637,1,0,0,0.8968,optionLeft,45,11720,5,40,0,40,0,1,,,,,,,,,,,,,,,,,,,,,,,,,,,,,,,,,,,,,,,
,,,,,,,,2023-08-16_08h42.11.046,HF_wild_card,2022.2.4,Win32,59.23468783,5f3a7e7b3a55e009ff81175e,64d2fd46c836a06233681665,64dc7dc4fcf2642c89e295c6,,,,,,,decisionTrl,resources/DB.BMP,resources/DY.BMP,Door4,-0.287037037,0.037962949,1,0,0,1.0137,optionLeft,60,11780,5,41,0,41,0,1,,,,,,,,,,,,,,,,,,,,,,,,,,,,,,,,,,,,,,,
,,,,,,,,2023-08-16_08h42.11.046,HF_wild_card,2022.2.4,Win32,59.23468783,5f3a7e7b3a55e009ff81175e,64d2fd46c836a06233681665,64dc7dc4fcf2642c89e295c6,,,,,,,decisionTrl,resources/DBN.BMP,resources/DR.BMP,WildCard_Ex,-0.196296268,0.00462963,1,0,0,1.6636,optionLeft,45,11825,5,42,0,42,0,1,,,,,,,,,,,,,,,,,,,,,,,,,,,,,,,,,,,,,,,
,,,,,,,,2023-08-16_08h42.11.046,HF_wild_card,2022.2.4,Win32,59.23468783,5f3a7e7b3a55e009ff81175e,64d2fd46c836a06233681665,64dc7dc4fcf2642c89e295c6,,,,,,,decisionTrl,resources/DBN.BMP,resources/DY.BMP,Door3,0.199074074,-0.068518533,1,0,0,1.3467,optionRight,70,11895,5,43,0,43,0,1,,,,,,,,,,,,,,,,,,,,,,,,,,,,,,,,,,,,,,,
,,,,,,,,2023-08-16_08h42.11.046,HF_wild_card,2022.2.4,Win32,59.23468783,5f3a7e7b3a55e009ff81175e,64d2fd46c836a06233681665,64dc7dc4fcf2642c89e295c6,,,,,,,,,,,,,,,,,,,,,,,,,,4,0,4,0,1,,,,,,,,,,,,,,,,,,,,,,,,,,,,,,,,,,
,,,,,,,,2023-08-16_08h42.11.046,HF_wild_card,2022.2.4,Win32,59.23468783,5f3a7e7b3a55e009ff81175e,64d2fd46c836a06233681665,64dc7dc4fcf2642c89e295c6,,,,,,,decisionTrl,resources/DR.BMP,resources/DP.BMP,Door1,-0.22129631,-0.01666666,1,0,0,11.3867,optionLeft,30,11925,6,0,0,0,0,1,,,,,,,,,,,,,,,,,,,,,,,,,,,,,,,,,,,,,,,
,,,,,,,,2023-08-16_08h42.11.046,HF_wild_card,2022.2.4,Win32,59.23468783,5f3a7e7b3a55e009ff81175e,64d2fd46c836a06233681665,64dc7dc4fcf2642c89e295c6,,,,,,,ctch,resources/DR.BMP,resources/DB.BMP,Door4,0.260185171,-0.052777785,1,0,0,1.6088,optionRight,60,11985,6,1,0,1,0,1,,,,,,,,,,,,,,,,,,,,,,,,,,,,,,,,,,,,,,,
,,,,,,,,2023-08-16_08h42.11.046,HF_wild_card,2022.2.4,Win32,59.23468783,5f3a7e7b3a55e009ff81175e,64d2fd46c836a06233681665,64dc7dc4fcf2642c89e295c6,,,,,,,decisionTrl,resources/DY.BMP,resources/DB.BMP,Door4,0.157407407,-0.013888889,1,0,0,1.0647,optionRight,80,12065,6,2,0,2,0,1,,,,,,,,,,,,,,,,,,,,,,,,,,,,,,,,,,,,,,,
,,,,,,,,2023-08-16_08h42.11.046,HF_wild_card,2022.2.4,Win32,59.23468783,5f3a7e7b3a55e009ff81175e,64d2fd46c836a06233681665,64dc7dc4fcf2642c89e295c6,,,,,,,decisionTrl,resources/DB.BMP,resources/DY.BMP,Door4,-0.216666681,0.002777771,1,0,0,0.9974,optionLeft,60,12125,6,3,0,3,0,1,,,,,,,,,,,,,,,,,,,,,,,,,,,,,,,,,,,,,,,
,,,,,,,,2023-08-16_08h42.11.046,HF_wild_card,2022.2.4,Win32,59.23468783,5f3a7e7b3a55e009ff81175e,64d2fd46c836a06233681665,64dc7dc4fcf2642c89e295c6,,,,,,,decisionTrl,resources/DY.BMP,resources/DB.BMP,Door4,0.256481524,-0.021296289,1,0,0,1.0032,optionRight,60,12185,6,4,0,4,0,1,,,,,,,,,,,,,,,,,,,,,,,,,,,,,,,,,,,,,,,
,,,,,,,,2023-08-16_08h42.11.046,HF_wild_card,2022.2.4,Win32,59.23468783,5f3a7e7b3a55e009ff81175e,64d2fd46c836a06233681665,64dc7dc4fcf2642c89e295c6,,,,,,,decisionTrl,resources/DBN.BMP,resources/DB.BMP,Door4,0.183333362,-0.01666666,1,0,0,1.3812,optionRight,80,12265,6,5,0,5,0,1,,,,,,,,,,,,,,,,,,,,,,,,,,,,,,,,,,,,,,,
,,,,,,,,2023-08-16_08h42.11.046,HF_wild_card,2022.2.4,Win32,59.23468783,5f3a7e7b3a55e009ff81175e,64d2fd46c836a06233681665,64dc7dc4fcf2642c89e295c6,,,,,,,sngl,resources/Empty.png,resources/DB.BMP,Door4,0.167592578,-0.020370377,1,0,0,0.8484,optionRight,80,12345,6,6,0,6,0,1,,,,,,,,,,,,,,,,,,,,,,,,,,,,,,,,,,,,,,,
,,,,,,,,2023-08-16_08h42.11.046,HF_wild_card,2022.2.4,Win32,59.23468783,5f3a7e7b3a55e009ff81175e,64d2fd46c836a06233681665,64dc7dc4fcf2642c89e295c6,,,,,,,decisionTrl,resources/DB.BMP,resources/DY.BMP,Door4,-0.223148134,0.015740748,1,0,0,0.9315,optionLeft,60,12405,6,7,0,7,0,1,,,,,,,,,,,,,,,,,,,,,,,,,,,,,,,,,,,,,,,
,,,,,,,,2023-08-16_08h42.11.046,HF_wild_card,2022.2.4,Win32,59.23468783,5f3a7e7b3a55e009ff81175e,64d2fd46c836a06233681665,64dc7dc4fcf2642c89e295c6,,,,,,,sngl,resources/DY.BMP,resources/Empty.png,Door3,-0.171296296,0.003703683,1,0,0,5.2443,optionLeft,70,12475,6,8,0,8,0,1,,,,,,,,,,,,,,,,,,,,,,,,,,,,,,,,,,,,,,,
,,,,,,,,2023-08-16_08h42.11.046,HF_wild_card,2022.2.4,Win32,59.23468783,5f3a7e7b3a55e009ff81175e,64d2fd46c836a06233681665,64dc7dc4fcf2642c89e295c6,,,,,,,sngl,resources/Empty.png,resources/DY.BMP,Door3,0.26944443,-0.006481489,1,0,0,0.824,optionRight,70,12545,6,9,0,9,0,1,,,,,,,,,,,,,,,,,,,,,,,,,,,,,,,,,,,,,,,
,,,,,,,,2023-08-16_08h42.11.046,HF_wild_card,2022.2.4,Win32,59.23468783,5f3a7e7b3a55e009ff81175e,64d2fd46c836a06233681665,64dc7dc4fcf2642c89e295c6,,,,,,,decisionTrl,resources/DY.BMP,resources/DB.BMP,Door4,0.184259273,-0.039814808,1,0,0,5.0556,optionRight,80,12625,6,10,0,10,0,1,,,,,,,,,,,,,,,,,,,,,,,,,,,,,,,,,,,,,,,
,,,,,,,,2023-08-16_08h42.11.046,HF_wild_card,2022.2.4,Win32,59.23468783,5f3a7e7b3a55e009ff81175e,64d2fd46c836a06233681665,64dc7dc4fcf2642c89e295c6,,,,,,,sngl,resources/DB.BMP,resources/Empty.png,Door4,-0.235185199,0.034259266,1,0,0,0.7632,optionLeft,60,12685,6,11,0,11,0,1,,,,,,,,,,,,,,,,,,,,,,,,,,,,,,,,,,,,,,,
,,,,,,,,2023-08-16_08h42.11.046,HF_wild_card,2022.2.4,Win32,59.23468783,5f3a7e7b3a55e009ff81175e,64d2fd46c836a06233681665,64dc7dc4fcf2642c89e295c6,,,,,,,decisionTrl,resources/DBN.BMP,resources/DY.BMP,Door3,0.103703746,-0.023148148,1,0,0,1.23,optionRight,70,12755,6,12,0,12,0,1,,,,,,,,,,,,,,,,,,,,,,,,,,,,,,,,,,,,,,,
,,,,,,,,2023-08-16_08h42.11.046,HF_wild_card,2022.2.4,Win32,59.23468783,5f3a7e7b3a55e009ff81175e,64d2fd46c836a06233681665,64dc7dc4fcf2642c89e295c6,,,,,,,sngl,resources/Empty.png,resources/DBN.BMP,WildCard_Ex,0.148148148,-0.008333347,1,0,0,0.8801,optionRight,45,12800,6,13,0,13,0,1,,,,,,,,,,,,,,,,,,,,,,,,,,,,,,,,,,,,,,,
,,,,,,,,2023-08-16_08h42.11.046,HF_wild_card,2022.2.4,Win32,59.23468783,5f3a7e7b3a55e009ff81175e,64d2fd46c836a06233681665,64dc7dc4fcf2642c89e295c6,,,,,,,decisionTrl,resources/DR.BMP,resources/DBN.BMP,WildCard_Ex,0.184259273,-0.008333347,1,0,0,1.4471,optionRight,55,12855,6,14,0,14,0,1,,,,,,,,,,,,,,,,,,,,,,,,,,,,,,,,,,,,,,,
,,,,,,,,2023-08-16_08h42.11.046,HF_wild_card,2022.2.4,Win32,59.23468783,5f3a7e7b3a55e009ff81175e,64d2fd46c836a06233681665,64dc7dc4fcf2642c89e295c6,,,,,,,decisionTrl,resources/DBN.BMP,resources/DR.BMP,WildCard_Ex,-0.274999972,-0.025925919,1,0,0,1.1286,optionLeft,45,12900,6,15,0,15,0,1,,,,,,,,,,,,,,,,,,,,,,,,,,,,,,,,,,,,,,,
,,,,,,,,2023-08-16_08h42.11.046,HF_wild_card,2022.2.4,Win32,59.23468783,5f3a7e7b3a55e009ff81175e,64d2fd46c836a06233681665,64dc7dc4fcf2642c89e295c6,,,,,,,decisionTrl,resources/DB.BMP,resources/DY.BMP,Door4,-0.295370384,0.011111118,1,0,0,1.0467,optionLeft,60,12960,6,16,0,16,0,1,,,,,,,,,,,,,,,,,,,,,,,,,,,,,,,,,,,,,,,
,,,,,,,,2023-08-16_08h42.11.046,HF_wild_card,2022.2.4,Win32,59.23468783,5f3a7e7b3a55e009ff81175e,64d2fd46c836a06233681665,64dc7dc4fcf2642c89e295c6,,,,,,,sngl,resources/DR.BMP,resources/Empty.png,Door1,-0.25,0.025000007,1,0,0,1.0802,optionLeft,30,12990,6,17,0,17,0,1,,,,,,,,,,,,,,,,,,,,,,,,,,,,,,,,,,,,,,,
,,,,,,,,2023-08-16_08h42.11.046,HF_wild_card,2022.2.4,Win32,59.23468783,5f3a7e7b3a55e009ff81175e,64d2fd46c836a06233681665,64dc7dc4fcf2642c89e295c6,,,,,,,decisionTrl,resources/DP.BMP,resources/DR.BMP,Door1,0.183333362,-0.0074074,1,0,0,1.6149,optionRight,30,13020,6,18,0,18,0,1,,,,,,,,,,,,,,,,,,,,,,,,,,,,,,,,,,,,,,,
,,,,,,,,2023-08-16_08h42.11.046,HF_wild_card,2022.2.4,Win32,59.23468783,5f3a7e7b3a55e009ff81175e,64d2fd46c836a06233681665,64dc7dc4fcf2642c89e295c6,,,,,,,decisionTrl,resources/DP.BMP,resources/DR.BMP,Door1,0.251851894,-0.011111118,1,0,0,0.9479,optionRight,30,13050,6,19,0,19,0,1,,,,,,,,,,,,,,,,,,,,,,,,,,,,,,,,,,,,,,,
,,,,,,,,2023-08-16_08h42.11.046,HF_wild_card,2022.2.4,Win32,59.23468783,5f3a7e7b3a55e009ff81175e,64d2fd46c836a06233681665,64dc7dc4fcf2642c89e295c6,,,,,,,decisionTrl,resources/DB.BMP,resources/DBN.BMP,Door4,-0.235185199,0.01203703,1,0,0,0.8803,optionLeft,80,13130,6,20,0,20,0,1,,,,,,,,,,,,,,,,,,,,,,,,,,,,,,,,,,,,,,,
,,,,,,,,2023-08-16_08h42.11.046,HF_wild_card,2022.2.4,Win32,59.23468783,5f3a7e7b3a55e009ff81175e,64d2fd46c836a06233681665,64dc7dc4fcf2642c89e295c6,,,,,,,sngl,resources/Empty.png,resources/DP.BMP,Door2,0.190740727,0.01203703,1,0,0,5.15,optionRight,40,13170,6,21,0,21,0,1,,,,,,,,,,,,,,,,,,,,,,,,,,,,,,,,,,,,,,,
,,,,,,,,2023-08-16_08h42.11.046,HF_wild_card,2022.2.4,Win32,59.23468783,5f3a7e7b3a55e009ff81175e,64d2fd46c836a06233681665,64dc7dc4fcf2642c89e295c6,,,,,,,ctch,resources/DP.BMP,resources/DY.BMP,Door3,0.159259302,0.025000007,1,0,0,2.1465,optionRight,70,13240,6,22,0,22,0,1,,,,,,,,,,,,,,,,,,,,,,,,,,,,,,,,,,,,,,,
,,,,,,,,2023-08-16_08h42.11.046,HF_wild_card,2022.2.4,Win32,59.23468783,5f3a7e7b3a55e009ff81175e,64d2fd46c836a06233681665,64dc7dc4fcf2642c89e295c6,,,,,,,ctch,resources/DB.BMP,resources/DR.BMP,Door4,-0.299999979,-0.008333347,1,0,0,0.9468,optionLeft,80,13320,6,23,0,23,0,1,,,,,,,,,,,,,,,,,,,,,,,,,,,,,,,,,,,,,,,
,,,,,,,,2023-08-16_08h42.11.046,HF_wild_card,2022.2.4,Win32,59.23468783,5f3a7e7b3a55e009ff81175e,64d2fd46c836a06233681665,64dc7dc4fcf2642c89e295c6,,,,,,,decisionTrl,resources/DY.BMP,resources/DBN.BMP,Door3,-0.244444459,-0.01203703,1,0,0,1.265,optionLeft,70,13390,6,24,0,24,0,1,,,,,,,,,,,,,,,,,,,,,,,,,,,,,,,,,,,,,,,
,,,,,,,,2023-08-16_08h42.11.046,HF_wild_card,2022.2.4,Win32,59.23468783,5f3a7e7b3a55e009ff81175e,64d2fd46c836a06233681665,64dc7dc4fcf2642c89e295c6,,,,,,,ctch,resources/DB.BMP,resources/DR.BMP,Door4,-0.223148134,-0.013888889,1,0,0,0.9483,optionLeft,80,13470,6,25,0,25,0,1,,,,,,,,,,,,,,,,,,,,,,,,,,,,,,,,,,,,,,,
,,,,,,,,2023-08-16_08h42.11.046,HF_wild_card,2022.2.4,Win32,59.23468783,5f3a7e7b3a55e009ff81175e,64d2fd46c836a06233681665,64dc7dc4fcf2642c89e295c6,,,,,,,decisionTrl,resources/DP.BMP,resources/DBN.BMP,WildCard_Ex,0.176851838,-0.009259259,1,0,0,1.0984,optionRight,55,13525,6,26,0,26,0,1,,,,,,,,,,,,,,,,,,,,,,,,,,,,,,,,,,,,,,,
,,,,,,,,2023-08-16_08h42.11.046,HF_wild_card,2022.2.4,Win32,59.23468783,5f3a7e7b3a55e009ff81175e,64d2fd46c836a06233681665,64dc7dc4fcf2642c89e295c6,,,,,,,sngl,resources/DBN.BMP,resources/Empty.png,WildCard_Ex,-0.208333333,0.014814801,1,0,0,0.8299,optionLeft,55,13580,6,27,0,27,0,1,,,,,,,,,,,,,,,,,,,,,,,,,,,,,,,,,,,,,,,
,,,,,,,,2023-08-16_08h42.11.046,HF_wild_card,2022.2.4,Win32,59.23468783,5f3a7e7b3a55e009ff81175e,64d2fd46c836a06233681665,64dc7dc4fcf2642c89e295c6,,,,,,,sngl,resources/Empty.png,resources/DR.BMP,Door1,0.173148191,-0.005555577,1,0,0,0.8135,optionRight,30,13610,6,28,0,28,0,1,,,,,,,,,,,,,,,,,,,,,,,,,,,,,,,,,,,,,,,
,,,,,,,,2023-08-16_08h42.11.046,HF_wild_card,2022.2.4,Win32,59.23468783,5f3a7e7b3a55e009ff81175e,64d2fd46c836a06233681665,64dc7dc4fcf2642c89e295c6,,,,,,,ctch,resources/DR.BMP,resources/DB.BMP,Door4,0.189814815,-0.033333355,1,0,0,0.7813,optionRight,60,13670,6,29,0,29,0,1,,,,,,,,,,,,,,,,,,,,,,,,,,,,,,,,,,,,,,,
,,,,,,,,2023-08-16_08h42.11.046,HF_wild_card,2022.2.4,Win32,59.23468783,5f3a7e7b3a55e009ff81175e,64d2fd46c836a06233681665,64dc7dc4fcf2642c89e295c6,,,,,,,ctch,resources/DY.BMP,resources/DP.BMP,Door3,-0.216666681,-0.022222236,1,0,0,0.9651,optionLeft,70,13740,6,30,0,30,0,1,,,,,,,,,,,,,,,,,,,,,,,,,,,,,,,,,,,,,,,
,,,,,,,,2023-08-16_08h42.11.046,HF_wild_card,2022.2.4,Win32,59.23468783,5f3a7e7b3a55e009ff81175e,64d2fd46c836a06233681665,64dc7dc4fcf2642c89e295c6,,,,,,,decisionTrl,resources/DB.BMP,resources/DY.BMP,Door4,-0.228703675,0.000925912,1,0,0,0.8295,optionLeft,60,13800,6,31,0,31,0,1,,,,,,,,,,,,,,,,,,,,,,,,,,,,,,,,,,,,,,,
,,,,,,,,2023-08-16_08h42.11.046,HF_wild_card,2022.2.4,Win32,59.23468783,5f3a7e7b3a55e009ff81175e,64d2fd46c836a06233681665,64dc7dc4fcf2642c89e295c6,,,,,,,sngl,resources/Empty.png,resources/DBN.BMP,WildCard_Ex,0.150000042,-0.01203703,1,0,0,0.8135,optionRight,55,13855,6,32,0,32,0,1,,,,,,,,,,,,,,,,,,,,,,,,,,,,,,,,,,,,,,,
,,,,,,,,2023-08-16_08h42.11.046,HF_wild_card,2022.2.4,Win32,59.23468783,5f3a7e7b3a55e009ff81175e,64d2fd46c836a06233681665,64dc7dc4fcf2642c89e295c6,,,,,,,decisionTrl,resources/DY.BMP,resources/DB.BMP,Door4,0.172222208,-0.023148148,1,0,0,1.1298,optionRight,60,13915,6,33,0,33,0,1,,,,,,,,,,,,,,,,,,,,,,,,,,,,,,,,,,,,,,,
,,,,,,,,2023-08-16_08h42.11.046,HF_wild_card,2022.2.4,Win32,59.23468783,5f3a7e7b3a55e009ff81175e,64d2fd46c836a06233681665,64dc7dc4fcf2642c89e295c6,,,,,,,decisionTrl,resources/DR.BMP,resources/DP.BMP,Door1,-0.222222222,0.035185178,1,0,0,1.9302,optionLeft,30,13945,6,34,0,34,0,1,,,,,,,,,,,,,,,,,,,,,,,,,,,,,,,,,,,,,,,
,,,,,,,,2023-08-16_08h42.11.046,HF_wild_card,2022.2.4,Win32,59.23468783,5f3a7e7b3a55e009ff81175e,64d2fd46c836a06233681665,64dc7dc4fcf2642c89e295c6,,,,,,,sngl,resources/DP.BMP,resources/Empty.png,Door2,-0.248148106,0.03611109,1,0,0,0.7803,optionLeft,20,13965,6,35,0,35,0,1,,,,,,,,,,,,,,,,,,,,,,,,,,,,,,,,,,,,,,,
,,,,,,,,2023-08-16_08h42.11.046,HF_wild_card,2022.2.4,Win32,59.23468783,5f3a7e7b3a55e009ff81175e,64d2fd46c836a06233681665,64dc7dc4fcf2642c89e295c6,,,,,,,decisionTrl,resources/DP.BMP,resources/DR.BMP,Door1,0.112037023,-0.011111118,1,0,0,1.7298,optionRight,30,13995,6,36,0,36,0,1,,,,,,,,,,,,,,,,,,,,,,,,,,,,,,,,,,,,,,,
,,,,,,,,2023-08-16_08h42.11.046,HF_wild_card,2022.2.4,Win32,59.23468783,5f3a7e7b3a55e009ff81175e,64d2fd46c836a06233681665,64dc7dc4fcf2642c89e295c6,,,,,,,ctch,resources/DY.BMP,resources/DP.BMP,Door3,-0.316666674,-0.003703718,1,0,0,0.9968,optionLeft,70,14065,6,37,0,37,0,1,,,,,,,,,,,,,,,,,,,,,,,,,,,,,,,,,,,,,,,
,,,,,,,,2023-08-16_08h42.11.046,HF_wild_card,2022.2.4,Win32,59.23468783,5f3a7e7b3a55e009ff81175e,64d2fd46c836a06233681665,64dc7dc4fcf2642c89e295c6,,,,,,,decisionTrl,resources/DBN.BMP,resources/DP.BMP,WildCard_Ex,-0.218518504,-0.002777771,1,0,0,1.2291,optionLeft,55,14120,6,38,0,38,0,1,,,,,,,,,,,,,,,,,,,,,,,,,,,,,,,,,,,,,,,
,,,,,,,,2023-08-16_08h42.11.046,HF_wild_card,2022.2.4,Win32,59.23468783,5f3a7e7b3a55e009ff81175e,64d2fd46c836a06233681665,64dc7dc4fcf2642c89e295c6,,,,,,,decisionTrl,resources/DR.BMP,resources/DP.BMP,Door1,-0.212037051,-0.00462963,1,0,0,1.4036,optionLeft,30,14150,6,39,0,39,0,1,,,,,,,,,,,,,,,,,,,,,,,,,,,,,,,,,,,,,,,
,,,,,,,,2023-08-16_08h42.11.046,HF_wild_card,2022.2.4,Win32,59.23468783,5f3a7e7b3a55e009ff81175e,64d2fd46c836a06233681665,64dc7dc4fcf2642c89e295c6,,,,,,,decisionTrl,resources/DR.BMP,resources/DP.BMP,Door1,-0.267592607,0.009259259,1,0,0,0.8799,optionLeft,30,14180,6,40,0,40,0,1,,,,,,,,,,,,,,,,,,,,,,,,,,,,,,,,,,,,,,,
,,,,,,,,2023-08-16_08h42.11.046,HF_wild_card,2022.2.4,Win32,59.23468783,5f3a7e7b3a55e009ff81175e,64d2fd46c836a06233681665,64dc7dc4fcf2642c89e295c6,,,,,,,decisionTrl,resources/DP.BMP,resources/DR.BMP,Door1,0.118518547,0.002777771,1,0,0,1.4815,optionRight,30,14210,6,41,0,41,0,1,,,,,,,,,,,,,,,,,,,,,,,,,,,,,,,,,,,,,,,
,,,,,,,,2023-08-16_08h42.11.046,HF_wild_card,2022.2.4,Win32,59.23468783,5f3a7e7b3a55e009ff81175e,64d2fd46c836a06233681665,64dc7dc4fcf2642c89e295c6,,,,,,,ctch,resources/DP.BMP,resources/DY.BMP,Door3,0.184259273,0.002777771,1,0,0,1.0821,optionRight,70,14280,6,42,0,42,0,1,,,,,,,,,,,,,,,,,,,,,,,,,,,,,,,,,,,,,,,
,,,,,,,,2023-08-16_08h42.11.046,HF_wild_card,2022.2.4,Win32,59.23468783,5f3a7e7b3a55e009ff81175e,64d2fd46c836a06233681665,64dc7dc4fcf2642c89e295c6,,,,,,,sngl,resources/DBN.BMP,resources/Empty.png,WildCard_Ex,-0.267592607,0.058333326,1,0,0,0.7904,optionLeft,45,14325,6,43,0,43,0,1,,,,,,,,,,,,,,,,,,,,,,,,,,,,,,,,,,,,,,,
,,,,,,,,2023-08-16_08h42.11.046,HF_wild_card,2022.2.4,Win32,59.23468783,5f3a7e7b3a55e009ff81175e,64d2fd46c836a06233681665,64dc7dc4fcf2642c89e295c6,,,,,,,,,,,,,,,,,,,,,,,,,,5,0,5,0,1,,,,,,,,,,,,,,,,,,,,,,,,,,,,,,,,,,
,,,,,,,,2023-08-16_08h42.11.046,HF_wild_card,2022.2.4,Win32,59.23468783,5f3a7e7b3a55e009ff81175e,64d2fd46c836a06233681665,64dc7dc4fcf2642c89e295c6,,,,,,,ctch,resources/DB.BMP,resources/DR.BMP,Door4,-0.317592586,-0.030555548,1,0,0,2.0839,optionLeft,80,14405,7,0,0,0,0,1,,,,,,,,,,,,,,,,,,,,,,,,,,,,,,,,,,,,,,,
,,,,,,,,2023-08-16_08h42.11.046,HF_wild_card,2022.2.4,Win32,59.23468783,5f3a7e7b3a55e009ff81175e,64d2fd46c836a06233681665,64dc7dc4fcf2642c89e295c6,,,,,,,ctch,resources/DY.BMP,resources/DP.BMP,Door3,-0.290740755,-0.002777771,1,0,0,1.0662,optionLeft,70,14475,7,1,0,1,0,1,,,,,,,,,,,,,,,,,,,,,,,,,,,,,,,,,,,,,,,
,,,,,,,,2023-08-16_08h42.11.046,HF_wild_card,2022.2.4,Win32,59.23468783,5f3a7e7b3a55e009ff81175e,64d2fd46c836a06233681665,64dc7dc4fcf2642c89e295c6,,,,,,,decisionTrl,resources/DP.BMP,resources/DR.BMP,Door1,0.111111111,0,1,0,0,1.8424,optionRight,30,14505,7,2,0,2,0,1,,,,,,,,,,,,,,,,,,,,,,,,,,,,,,,,,,,,,,,
,,,,,,,,2023-08-16_08h42.11.046,HF_wild_card,2022.2.4,Win32,59.23468783,5f3a7e7b3a55e009ff81175e,64d2fd46c836a06233681665,64dc7dc4fcf2642c89e295c6,,,,,,,decisionTrl,resources/DR.BMP,resources/DP.BMP,Door1,-0.281481496,0.032407407,1,0,0,0.9328,optionLeft,30,14535,7,3,0,3,0,1,,,,,,,,,,,,,,,,,,,,,,,,,,,,,,,,,,,,,,,
,,,,,,,,2023-08-16_08h42.11.046,HF_wild_card,2022.2.4,Win32,59.23468783,5f3a7e7b3a55e009ff81175e,64d2fd46c836a06233681665,64dc7dc4fcf2642c89e295c6,,,,,,,ctch,resources/DR.BMP,resources/DB.BMP,Door4,0.268518519,-0.021296289,1,0,0,0.8665,optionRight,80,14615,7,4,0,4,0,1,,,,,,,,,,,,,,,,,,,,,,,,,,,,,,,,,,,,,,,
,,,,,,,,2023-08-16_08h42.11.046,HF_wild_card,2022.2.4,Win32,59.23468783,5f3a7e7b3a55e009ff81175e,64d2fd46c836a06233681665,64dc7dc4fcf2642c89e295c6,,,,,,,decisionTrl,resources/DB.BMP,resources/DY.BMP,Door4,-0.244444459,-0.013888889,1,0,0,0.8659,optionLeft,60,14675,7,5,0,5,0,1,,,,,,,,,,,,,,,,,,,,,,,,,,,,,,,,,,,,,,,
,,,,,,,,2023-08-16_08h42.11.046,HF_wild_card,2022.2.4,Win32,59.23468783,5f3a7e7b3a55e009ff81175e,64d2fd46c836a06233681665,64dc7dc4fcf2642c89e295c6,,,,,,,ctch,resources/DP.BMP,resources/DY.BMP,Door3,0.181481467,-0.008333347,1,0,0,1.3596,optionRight,70,14745,7,6,0,6,0,1,,,,,,,,,,,,,,,,,,,,,,,,,,,,,,,,,,,,,,,
,,,,,,,,2023-08-16_08h42.11.046,HF_wild_card,2022.2.4,Win32,59.23468783,5f3a7e7b3a55e009ff81175e,64d2fd46c836a06233681665,64dc7dc4fcf2642c89e295c6,,,,,,,decisionTrl,resources/DB.BMP,resources/DY.BMP,Door4,-0.226851852,0.013888889,1,0,0,0.9167,optionLeft,80,14825,7,7,0,7,0,1,,,,,,,,,,,,,,,,,,,,,,,,,,,,,,,,,,,,,,,
,,,,,,,,2023-08-16_08h42.11.046,HF_wild_card,2022.2.4,Win32,59.23468783,5f3a7e7b3a55e009ff81175e,64d2fd46c836a06233681665,64dc7dc4fcf2642c89e295c6,,,,,,,decisionTrl,resources/DP.BMP,resources/DR.BMP,Door1,0.22592594,-0.001851859,1,0,0,1.1826,optionRight,30,14855,7,8,0,8,0,1,,,,,,,,,,,,,,,,,,,,,,,,,,,,,,,,,,,,,,,
,,,,,,,,2023-08-16_08h42.11.046,HF_wild_card,2022.2.4,Win32,59.23468783,5f3a7e7b3a55e009ff81175e,64d2fd46c836a06233681665,64dc7dc4fcf2642c89e295c6,,,,,,,decisionTrl,resources/DY.BMP,resources/DB.BMP,Door4,0.227777764,-0.012962977,1,0,0,0.9764,optionRight,80,14935,7,9,0,9,0,1,,,,,,,,,,,,,,,,,,,,,,,,,,,,,,,,,,,,,,,
,,,,,,,,2023-08-16_08h42.11.046,HF_wild_card,2022.2.4,Win32,59.23468783,5f3a7e7b3a55e009ff81175e,64d2fd46c836a06233681665,64dc7dc4fcf2642c89e295c6,,,,,,,decisionTrl,resources/DB.BMP,resources/DY.BMP,Door4,-0.236111111,-0.0074074,1,0,0,1.0163,optionLeft,60,14995,7,10,0,10,0,1,,,,,,,,,,,,,,,,,,,,,,,,,,,,,,,,,,,,,,,
,,,,,,,,2023-08-16_08h42.11.046,HF_wild_card,2022.2.4,Win32,59.23468783,5f3a7e7b3a55e009ff81175e,64d2fd46c836a06233681665,64dc7dc4fcf2642c89e295c6,,,,,,,ctch,resources/DP.BMP,resources/DY.BMP,Door3,0.232407393,-0.005555577,1,0,0,1.0829,optionRight,70,15065,7,11,0,11,0,1,,,,,,,,,,,,,,,,,,,,,,,,,,,,,,,,,,,,,,,
,,,,,,,,2023-08-16_08h42.11.046,HF_wild_card,2022.2.4,Win32,59.23468783,5f3a7e7b3a55e009ff81175e,64d2fd46c836a06233681665,64dc7dc4fcf2642c89e295c6,,,,,,,decisionTrl,resources/DY.BMP,resources/DB.BMP,Door4,0.215740769,-0.003703718,1,0,0,0.9494,optionRight,60,15125,7,12,0,12,0,1,,,,,,,,,,,,,,,,,,,,,,,,,,,,,,,,,,,,,,,
,,,,,,,,2023-08-16_08h42.11.046,HF_wild_card,2022.2.4,Win32,59.23468783,5f3a7e7b3a55e009ff81175e,64d2fd46c836a06233681665,64dc7dc4fcf2642c89e295c6,,,,,,,decisionTrl,resources/DR.BMP,resources/DP.BMP,Door1,-0.226851852,-0.002777771,1,0,0,2.116,optionLeft,30,15155,7,13,0,13,0,1,,,,,,,,,,,,,,,,,,,,,,,,,,,,,,,,,,,,,,,
,,,,,,,,2023-08-16_08h42.11.046,HF_wild_card,2022.2.4,Win32,59.23468783,5f3a7e7b3a55e009ff81175e,64d2fd46c836a06233681665,64dc7dc4fcf2642c89e295c6,,,,,,,ctch,resources/DR.BMP,resources/DB.BMP,Door4,0.315740797,-0.076851845,1,0,0,0.9495,optionRight,80,15235,7,14,0,14,0,1,,,,,,,,,,,,,,,,,,,,,,,,,,,,,,,,,,,,,,,
,,,,,,,,2023-08-16_08h42.11.046,HF_wild_card,2022.2.4,Win32,59.23468783,5f3a7e7b3a55e009ff81175e,64d2fd46c836a06233681665,64dc7dc4fcf2642c89e295c6,,,,,,,decisionTrl,resources/DP.BMP,resources/DR.BMP,Door1,0.155555584,0.005555541,1,0,0,1.2996,optionRight,30,15265,7,15,0,15,0,1,,,,,,,,,,,,,,,,,,,,,,,,,,,,,,,,,,,,,,,
,,,,,,,,2023-08-16_08h42.11.046,HF_wild_card,2022.2.4,Win32,59.23468783,5f3a7e7b3a55e009ff81175e,64d2fd46c836a06233681665,64dc7dc4fcf2642c89e295c6,,,,,,,decisionTrl,resources/DP.BMP,resources/DR.BMP,Door1,0.262037065,0.000925912,1,0,0,0.9329,optionRight,30,15295,7,16,0,16,0,1,,,,,,,,,,,,,,,,,,,,,,,,,,,,,,,,,,,,,,,
,,,,,,,,2023-08-16_08h42.11.046,HF_wild_card,2022.2.4,Win32,59.23468783,5f3a7e7b3a55e009ff81175e,64d2fd46c836a06233681665,64dc7dc4fcf2642c89e295c6,,,,,,,decisionTrl,resources/DP.BMP,resources/DR.BMP,Door1,0.203703704,-0.022222236,1,0,0,0.7831,optionRight,30,15325,7,17,0,17,0,1,,,,,,,,,,,,,,,,,,,,,,,,,,,,,,,,,,,,,,,
,,,,,,,,2023-08-16_08h42.11.046,HF_wild_card,2022.2.4,Win32,59.23468783,5f3a7e7b3a55e009ff81175e,64d2fd46c836a06233681665,64dc7dc4fcf2642c89e295c6,,,,,,,decisionTrl,resources/DB.BMP,resources/DY.BMP,Door4,-0.142592607,0.014814801,1,0,0,1.0328,optionLeft,60,15385,7,18,0,18,0,1,,,,,,,,,,,,,,,,,,,,,,,,,,,,,,,,,,,,,,,
,,,,,,,,2023-08-16_08h42.11.046,HF_wild_card,2022.2.4,Win32,59.23468783,5f3a7e7b3a55e009ff81175e,64d2fd46c836a06233681665,64dc7dc4fcf2642c89e295c6,,,,,,,ctch,resources/DB.BMP,resources/DR.BMP,Door4,-0.218518504,-0.017592607,1,0,0,0.9491,optionLeft,80,15465,7,19,0,19,0,1,,,,,,,,,,,,,,,,,,,,,,,,,,,,,,,,,,,,,,,
,,,,,,,,2023-08-16_08h42.11.046,HF_wild_card,2022.2.4,Win32,59.23468783,5f3a7e7b3a55e009ff81175e,64d2fd46c836a06233681665,64dc7dc4fcf2642c89e295c6,,,,,,,decisionTrl,resources/DR.BMP,resources/DP.BMP,Door1,-0.348148134,0.021296289,1,0,0,1.2494,optionLeft,30,15495,7,20,0,20,0,1,,,,,,,,,,,,,,,,,,,,,,,,,,,,,,,,,,,,,,,
,,,,,,,,2023-08-16_08h42.11.046,HF_wild_card,2022.2.4,Win32,59.23468783,5f3a7e7b3a55e009ff81175e,64d2fd46c836a06233681665,64dc7dc4fcf2642c89e295c6,,,,,,,ctch,resources/DP.BMP,resources/DY.BMP,Door3,0.181481467,-0.020370377,1,0,0,1.0494,optionRight,70,15565,7,21,0,21,0,1,,,,,,,,,,,,,,,,,,,,,,,,,,,,,,,,,,,,,,,
,,,,,,,,2023-08-16_08h42.11.046,HF_wild_card,2022.2.4,Win32,59.23468783,5f3a7e7b3a55e009ff81175e,64d2fd46c836a06233681665,64dc7dc4fcf2642c89e295c6,,,,,,,decisionTrl,resources/DB.BMP,resources/DY.BMP,Door4,-0.211111069,0.014814801,1,0,0,0.916,optionLeft,80,15645,7,22,0,22,0,1,,,,,,,,,,,,,,,,,,,,,,,,,,,,,,,,,,,,,,,
,,,,,,,,2023-08-16_08h42.11.046,HF_wild_card,2022.2.4,Win32,59.23468783,5f3a7e7b3a55e009ff81175e,64d2fd46c836a06233681665,64dc7dc4fcf2642c89e295c6,,,,,,,decisionTrl,resources/DR.BMP,resources/DP.BMP,Door1,-0.204629616,-0.025000007,1,0,0,1.0495,optionLeft,30,15675,7,23,0,23,0,1,,,,,,,,,,,,,,,,,,,,,,,,,,,,,,,,,,,,,,,
,,,,,,,,2023-08-16_08h42.11.046,HF_wild_card,2022.2.4,Win32,59.23468783,5f3a7e7b3a55e009ff81175e,64d2fd46c836a06233681665,64dc7dc4fcf2642c89e295c6,,,,,,,ctch,resources/DR.BMP,resources/DB.BMP,Door4,0.146296325,-0.027777778,1,0,0,0.9665,optionRight,60,15735,7,24,0,24,0,1,,,,,,,,,,,,,,,,,,,,,,,,,,,,,,,,,,,,,,,
,,,,,,,,2023-08-16_08h42.11.046,HF_wild_card,2022.2.4,Win32,59.23468783,5f3a7e7b3a55e009ff81175e,64d2fd46c836a06233681665,64dc7dc4fcf2642c89e295c6,,,,,,,ctch,resources/DY.BMP,resources/DP.BMP,Door3,-0.213888875,-0.001851859,1,0,0,1.2249,optionLeft,70,15805,7,25,0,25,0,1,,,,,,,,,,,,,,,,,,,,,,,,,,,,,,,,,,,,,,,
,,,,,,,,2023-08-16_08h42.11.046,HF_wild_card,2022.2.4,Win32,59.23468783,5f3a7e7b3a55e009ff81175e,64d2fd46c836a06233681665,64dc7dc4fcf2642c89e295c6,,,,,,,decisionTrl,resources/DP.BMP,resources/DR.BMP,Door1,0.181481467,-0.025925919,1,0,0,1.2994,optionRight,30,15835,7,26,0,26,0,1,,,,,,,,,,,,,,,,,,,,,,,,,,,,,,,,,,,,,,,
,,,,,,,,2023-08-16_08h42.11.046,HF_wild_card,2022.2.4,Win32,59.23468783,5f3a7e7b3a55e009ff81175e,64d2fd46c836a06233681665,64dc7dc4fcf2642c89e295c6,,,,,,,decisionTrl,resources/DR.BMP,resources/DP.BMP,Door1,-0.166666667,0.005555541,1,0,0,1.1159,optionLeft,30,15865,7,27,0,27,0,1,,,,,,,,,,,,,,,,,,,,,,,,,,,,,,,,,,,,,,,
,,,,,,,,2023-08-16_08h42.11.046,HF_wild_card,2022.2.4,Win32,59.23468783,5f3a7e7b3a55e009ff81175e,64d2fd46c836a06233681665,64dc7dc4fcf2642c89e295c6,,,,,,,decisionTrl,resources/DY.BMP,resources/DB.BMP,Door4,0.168518561,-0.037962984,1,0,0,1.0161,optionRight,80,15945,7,28,0,28,0,1,,,,,,,,,,,,,,,,,,,,,,,,,,,,,,,,,,,,,,,
,,,,,,,,2023-08-16_08h42.11.046,HF_wild_card,2022.2.4,Win32,59.23468783,5f3a7e7b3a55e009ff81175e,64d2fd46c836a06233681665,64dc7dc4fcf2642c89e295c6,,,,,,,decisionTrl,resources/DR.BMP,resources/DP.BMP,Door1,-0.220370328,-0.020370377,1,0,0,0.8997,optionLeft,30,15975,7,29,0,29,0,1,,,,,,,,,,,,,,,,,,,,,,,,,,,,,,,,,,,,,,,
,,,,,,,,2023-08-16_08h42.11.046,HF_wild_card,2022.2.4,Win32,59.23468783,5f3a7e7b3a55e009ff81175e,64d2fd46c836a06233681665,64dc7dc4fcf2642c89e295c6,,,,,,,decisionTrl,resources/DY.BMP,resources/DB.BMP,Door4,0.156481496,0.018518519,1,0,0,2.2326,optionRight,80,16055,7,30,0,30,0,1,,,,,,,,,,,,,,,,,,,,,,,,,,,,,,,,,,,,,,,
,,,,,,,,2023-08-16_08h42.11.046,HF_wild_card,2022.2.4,Win32,59.23468783,5f3a7e7b3a55e009ff81175e,64d2fd46c836a06233681665,64dc7dc4fcf2642c89e295c6,,,,,,,decisionTrl,resources/DB.BMP,resources/DY.BMP,Door4,-0.208333333,-0.011111118,1,0,0,0.8494,optionLeft,80,16135,7,31,0,31,0,1,,,,,,,,,,,,,,,,,,,,,,,,,,,,,,,,,,,,,,,
,,,,,,,,2023-08-16_08h42.11.046,HF_wild_card,2022.2.4,Win32,59.23468783,5f3a7e7b3a55e009ff81175e,64d2fd46c836a06233681665,64dc7dc4fcf2642c89e295c6,,,,,,,ctch,resources/DY.BMP,resources/DP.BMP,Door3,-0.121296282,0.023148148,1,0,0,1.633,optionLeft,70,16205,7,32,0,32,0,1,,,,,,,,,,,,,,,,,,,,,,,,,,,,,,,,,,,,,,,
,,,,,,,,2023-08-16_08h42.11.046,HF_wild_card,2022.2.4,Win32,59.23468783,5f3a7e7b3a55e009ff81175e,64d2fd46c836a06233681665,64dc7dc4fcf2642c89e295c6,,,,,,,decisionTrl,resources/DY.BMP,resources/DB.BMP,Door4,0.138888889,-0.031481496,1,0,0,0.8491,optionRight,60,16265,7,33,0,33,0,1,,,,,,,,,,,,,,,,,,,,,,,,,,,,,,,,,,,,,,,
,,,,,,,,2023-08-16_08h42.11.046,HF_wild_card,2022.2.4,Win32,59.23468783,5f3a7e7b3a55e009ff81175e,64d2fd46c836a06233681665,64dc7dc4fcf2642c89e295c6,,,,,,,ctch,resources/DB.BMP,resources/DR.BMP,Door4,-0.169444402,-0.024074095,1,0,0,0.8664,optionLeft,80,16345,7,34,0,34,0,1,,,,,,,,,,,,,,,,,,,,,,,,,,,,,,,,,,,,,,,
,,,,,,,,2023-08-16_08h42.11.046,HF_wild_card,2022.2.4,Win32,59.23468783,5f3a7e7b3a55e009ff81175e,64d2fd46c836a06233681665,64dc7dc4fcf2642c89e295c6,,,,,,,decisionTrl,resources/DY.BMP,resources/DB.BMP,Door4,0.191666709,-0.021296289,1,0,0,0.9231,optionRight,60,16405,7,35,0,35,0,1,,,,,,,,,,,,,,,,,,,,,,,,,,,,,,,,,,,,,,,
,,,,,,,,2023-08-16_08h42.11.046,HF_wild_card,2022.2.4,Win32,59.23468783,5f3a7e7b3a55e009ff81175e,64d2fd46c836a06233681665,64dc7dc4fcf2642c89e295c6,,,,,,,,,,,,,,,,,,,,,,,,,,6,0,6,0,1,,,,,,,,,,,,,,,,,,,,,,,,,,,,,,,,,,
,,,,,,,,2023-08-16_08h42.11.046,HF_wild_card,2022.2.4,Win32,59.23468783,5f3a7e7b3a55e009ff81175e,64d2fd46c836a06233681665,64dc7dc4fcf2642c89e295c6,,,,,,,,,,,,,,,,,,,,,,,,,,,,,,,4,,,,,,,,,,,,,,,,,,,,,,,,,,,,,,,,,
,,,,,,,,2023-08-16_08h42.11.046,HF_wild_card,2022.2.4,Win32,59.23468783,5f3a7e7b3a55e009ff81175e,64d2fd46c836a06233681665,64dc7dc4fcf2642c89e295c6,,,,,,,,,,,,,,,,,,,,,,,,,,,,,,,,,,,,,,,,,,,,,,,,,,,,,,,,,,,,,,,,
,,,,,,,,2023-08-16_08h42.11.046,HF_wild_card,2022.2.4,Win32,59.23468783,5f3a7e7b3a55e009ff81175e,64d2fd46c836a06233681665,64dc7dc4fcf2642c89e295c6,,,,,,,,,,,,,,,,,,,,,,,,,,,,,,,,45,WC_extreme,resources/DBN.BMP,0,0,0,0,1,,,,,,,,,,,,,,,,,,,,,,,,,
,,,,,,,,2023-08-16_08h42.11.046,HF_wild_card,2022.2.4,Win32,59.23468783,5f3a7e7b3a55e009ff81175e,64d2fd46c836a06233681665,64dc7dc4fcf2642c89e295c6,,,,,,,,,,,,,,,,,,,,,,,,,,,,,,,,80,Door4,resources/DB.BMP,1,0,1,0,1,,,,,,,,,,,,,,,,,,,,,,,,,
,,,,,,,,2023-08-16_08h42.11.046,HF_wild_card,2022.2.4,Win32,59.23468783,5f3a7e7b3a55e009ff81175e,64d2fd46c836a06233681665,64dc7dc4fcf2642c89e295c6,,,,,,,,,,,,,,,,,,,,,,,,,,,,,,,,70,Door3,resources/DY.BMP,2,0,2,0,1,,,,,,,,,,,,,,,,,,,,,,,,,
,,,,,,,,2023-08-16_08h42.11.046,HF_wild_card,2022.2.4,Win32,59.23468783,5f3a7e7b3a55e009ff81175e,64d2fd46c836a06233681665,64dc7dc4fcf2642c89e295c6,,,,,,,,,,,,,,,,,,,,,,,,,,,,,,,,20,Door2,resources/DP.BMP,3,0,3,0,1,,,,,,,,,,,,,,,,,,,,,,,,,
,,,,,,,,2023-08-16_08h42.11.046,HF_wild_card,2022.2.4,Win32,59.23468783,5f3a7e7b3a55e009ff81175e,64d2fd46c836a06233681665,64dc7dc4fcf2642c89e295c6,,,,,,,,,,,,,,,,,,,,,,,,,,,,,,,,30,Door1,resources/DR.BMP,4,0,4,0,1,,,,,,,,,,,,,,,,,,,,,,,,,
,,,,,,,,2023-08-16_08h42.11.046,HF_wild_card,2022.2.4,Win32,59.23468783,5f3a7e7b3a55e009ff81175e,64d2fd46c836a06233681665,64dc7dc4fcf2642c89e295c6,,,,,,,,,,,,,,,,,,,,,,,,,,,,,,,,45,WC_nonExtreme,resources/DG.BMP,5,0,5,0,1,,,,,,,,,,,,,,,,,,,,,,,,,
,,,,,,,,2023-08-16_08h42.11.046,HF_wild_card,2022.2.4,Win32,59.23468783,5f3a7e7b3a55e009ff81175e,64d2fd46c836a06233681665,64dc7dc4fcf2642c89e295c6,,,,,,,,,,,,,,,,,,,,,,,,,,,,,,,,,,,,,,,,,,,,,,,,,,,,,,,,,,,,,,,,
