Condition,Low fixed image (Door1),Low risky image (Door2),High fixed image (Door3),High risky image (Door4),NonExtreme Wild Card 1,NonExtreme Wild Card 2,,date,expName,psychopyVersion,OS,frameRate,PROLIFIC_PID,STUDY_ID,SESSION_ID,mouse_2.x,mouse_2.y,mouse_2.leftButton,mouse_2.midButton,mouse_2.rightButton,mouse_2.clicked_name,Trial Type,Left Option Image,Right Option Image,Chosen Door,mouse.x,mouse.y,mouse.leftButton,mouse.midButton,mouse.rightButton,mouse.time,mouse.clicked_name,Feedback,Cumulative Reward,Block,trial.thisRepN,trial.thisTrialN,trial.thisN,trial.thisIndex,trial.ran,blocks.thisRepN,blocks.thisTrialN,blocks.thisN,blocks.thisIndex,blocks.ran,Money conversion,First Outcome Reported,Shown Door (First Outcome),Displayed Image (First Outcome),outcomes.thisRepN,outcomes.thisTrialN,outcomes.thisN,outcomes.thisIndex,outcomes.ran,judgments.thisRepN,judgments.thisTrialN,judgments.thisN,judgments.thisIndex,judgments.ran,freqMouse.x,freqMouse.y,freqMouse.leftButton,freqMouse.midButton,freqMouse.rightButton,freqMouse.clicked_name,FQJ for first outcome,FQJ for second outcome,Shown Door,Displayed Image,trials.thisRepN,trials.thisTrialN,trials.thisN,trials.thisIndex,trials.ran,judgBlock.thisRepN,judgBlock.thisTrialN,judgBlock.thisN,judgBlock.thisIndex,judgBlock.ran
2,resources/DBN.BMP,resources/DB.BMP,resources/DG.BMP,resources/DY.BMP,resources/DP.BMP,resources/DR.BMP,,2023-08-24_08h16.08.247,HF_wild_card,2022.2.4,Win32,60.04563468,607f441b91a96d298ca2d347,64e63663dbcaf322d2eec8da,64e7039a2e3784d32f5a4bb8,,,,,,,,,,,,,,,,,,,,,,,,,,,,,,,,,,,,,,,,,,,,,,,,,,,,,,,,,,,,,,,,
,,,,,,,,2023-08-24_08h16.08.247,HF_wild_card,2022.2.4,Win32,60.04563468,607f441b91a96d298ca2d347,64e63663dbcaf322d2eec8da,64e7039a2e3784d32f5a4bb8,-0.007407407,-0.421296296,1,0,0,agree,,,,,,,,,,,,,,,,,,,,,,,,,,,,,,,,,,,,,,,,,,,,,,,,,,,,,,,,,,
,,,,,,,,2023-08-24_08h16.08.247,HF_wild_card,2022.2.4,Win32,60.04563468,607f441b91a96d298ca2d347,64e63663dbcaf322d2eec8da,64e7039a2e3784d32f5a4bb8,,,,,,,,,,,,,,,,,,,,,,,,,,,,,,,,,,,,,,,,,,,,,,,,,,,,,,,,,,,,,,,,
,,,,,,,,2023-08-24_08h16.08.247,HF_wild_card,2022.2.4,Win32,60.04563468,607f441b91a96d298ca2d347,64e63663dbcaf322d2eec8da,64e7039a2e3784d32f5a4bb8,,,,,,,decisionTrl,resources/DBN.BMP,resources/DR.BMP,Door1,-0.380555556,-0.123148148,1,0,0,5.1908,optionLeft,30,30,1,0,0,0,0,1,,,,,,,,,,,,,,,,,,,,,,,,,,,,,,,,,,,,,,,
,,,,,,,,2023-08-24_08h16.08.247,HF_wild_card,2022.2.4,Win32,60.04563468,607f441b91a96d298ca2d347,64e63663dbcaf322d2eec8da,64e7039a2e3784d32f5a4bb8,,,,,,,decisionTrl,resources/DY.BMP,resources/DG.BMP,Door4,-0.319444444,-0.118518519,1,0,0,7.9004,optionLeft,80,110,1,1,0,1,0,1,,,,,,,,,,,,,,,,,,,,,,,,,,,,,,,,,,,,,,,
,,,,,,,,2023-08-24_08h16.08.247,HF_wild_card,2022.2.4,Win32,60.04563468,607f441b91a96d298ca2d347,64e63663dbcaf322d2eec8da,64e7039a2e3784d32f5a4bb8,,,,,,,decisionTrl,resources/DB.BMP,resources/DBN.BMP,Door2,-0.346296296,-0.061111111,1,0,0,3.1566,optionLeft,20,130,1,2,0,2,0,1,,,,,,,,,,,,,,,,,,,,,,,,,,,,,,,,,,,,,,,
,,,,,,,,2023-08-24_08h16.08.247,HF_wild_card,2022.2.4,Win32,60.04563468,607f441b91a96d298ca2d347,64e63663dbcaf322d2eec8da,64e7039a2e3784d32f5a4bb8,,,,,,,sngl,resources/Empty.png,resources/DG.BMP,Door3,0.378703704,0,1,0,0,2.0107,optionRight,70,200,1,3,0,3,0,1,,,,,,,,,,,,,,,,,,,,,,,,,,,,,,,,,,,,,,,
,,,,,,,,2023-08-24_08h16.08.247,HF_wild_card,2022.2.4,Win32,60.04563468,607f441b91a96d298ca2d347,64e63663dbcaf322d2eec8da,64e7039a2e3784d32f5a4bb8,,,,,,,decisionTrl,resources/DB.BMP,resources/DBN.BMP,Door2,-0.350925926,-0.051851852,1,0,0,3.058,optionLeft,40,240,1,4,0,4,0,1,,,,,,,,,,,,,,,,,,,,,,,,,,,,,,,,,,,,,,,
,,,,,,,,2023-08-24_08h16.08.247,HF_wild_card,2022.2.4,Win32,60.04563468,607f441b91a96d298ca2d347,64e63663dbcaf322d2eec8da,64e7039a2e3784d32f5a4bb8,,,,,,,decisionTrl,resources/DG.BMP,resources/DY.BMP,Door3,-0.327777778,-0.118518519,1,0,0,1.8473,optionLeft,70,310,1,5,0,5,0,1,,,,,,,,,,,,,,,,,,,,,,,,,,,,,,,,,,,,,,,
,,,,,,,,2023-08-24_08h16.08.247,HF_wild_card,2022.2.4,Win32,60.04563468,607f441b91a96d298ca2d347,64e63663dbcaf322d2eec8da,64e7039a2e3784d32f5a4bb8,,,,,,,decisionTrl,resources/DBN.BMP,resources/DB.BMP,Door1,-0.256481481,-0.049074074,1,0,0,3.3759,optionLeft,30,340,1,6,0,6,0,1,,,,,,,,,,,,,,,,,,,,,,,,,,,,,,,,,,,,,,,
,,,,,,,,2023-08-24_08h16.08.247,HF_wild_card,2022.2.4,Win32,60.04563468,607f441b91a96d298ca2d347,64e63663dbcaf322d2eec8da,64e7039a2e3784d32f5a4bb8,,,,,,,sngl,resources/DR.BMP,resources/Empty.png,WildCard_NonEx,-0.253703704,-0.062037037,1,0,0,2.0767,optionLeft,55,395,1,7,0,7,0,1,,,,,,,,,,,,,,,,,,,,,,,,,,,,,,,,,,,,,,,
,,,,,,,,2023-08-24_08h16.08.247,HF_wild_card,2022.2.4,Win32,60.04563468,607f441b91a96d298ca2d347,64e63663dbcaf322d2eec8da,64e7039a2e3784d32f5a4bb8,,,,,,,ctch,resources/DG.BMP,resources/DB.BMP,Door3,-0.27962963,-0.07962963,1,0,0,1.6385,optionLeft,70,465,1,8,0,8,0,1,,,,,,,,,,,,,,,,,,,,,,,,,,,,,,,,,,,,,,,
,,,,,,,,2023-08-24_08h16.08.247,HF_wild_card,2022.2.4,Win32,60.04563468,607f441b91a96d298ca2d347,64e63663dbcaf322d2eec8da,64e7039a2e3784d32f5a4bb8,,,,,,,decisionTrl,resources/DG.BMP,resources/DR.BMP,Door3,-0.266666667,-0.075925926,1,0,0,1.3939,optionLeft,70,535,1,9,0,9,0,1,,,,,,,,,,,,,,,,,,,,,,,,,,,,,,,,,,,,,,,
,,,,,,,,2023-08-24_08h16.08.247,HF_wild_card,2022.2.4,Win32,60.04563468,607f441b91a96d298ca2d347,64e63663dbcaf322d2eec8da,64e7039a2e3784d32f5a4bb8,,,,,,,decisionTrl,resources/DB.BMP,resources/DBN.BMP,Door2,-0.233333333,-0.1,1,0,0,3.6498,optionLeft,40,575,1,10,0,10,0,1,,,,,,,,,,,,,,,,,,,,,,,,,,,,,,,,,,,,,,,
,,,,,,,,2023-08-24_08h16.08.247,HF_wild_card,2022.2.4,Win32,60.04563468,607f441b91a96d298ca2d347,64e63663dbcaf322d2eec8da,64e7039a2e3784d32f5a4bb8,,,,,,,ctch,resources/DY.BMP,resources/DBN.BMP,Door4,-0.231481481,-0.098148148,1,0,0,1.2273,optionLeft,80,655,1,11,0,11,0,1,,,,,,,,,,,,,,,,,,,,,,,,,,,,,,,,,,,,,,,
,,,,,,,,2023-08-24_08h16.08.247,HF_wild_card,2022.2.4,Win32,60.04563468,607f441b91a96d298ca2d347,64e63663dbcaf322d2eec8da,64e7039a2e3784d32f5a4bb8,,,,,,,decisionTrl,resources/DY.BMP,resources/DG.BMP,Door4,-0.283333333,-0.101851852,1,0,0,0.9443,optionLeft,80,735,1,12,0,12,0,1,,,,,,,,,,,,,,,,,,,,,,,,,,,,,,,,,,,,,,,
,,,,,,,,2023-08-24_08h16.08.247,HF_wild_card,2022.2.4,Win32,60.04563468,607f441b91a96d298ca2d347,64e63663dbcaf322d2eec8da,64e7039a2e3784d32f5a4bb8,,,,,,,ctch,resources/DBN.BMP,resources/DY.BMP,Door4,0.356481481,0.044444444,1,0,0,0.9441,optionRight,60,795,1,13,0,13,0,1,,,,,,,,,,,,,,,,,,,,,,,,,,,,,,,,,,,,,,,
,,,,,,,,2023-08-24_08h16.08.247,HF_wild_card,2022.2.4,Win32,60.04563468,607f441b91a96d298ca2d347,64e63663dbcaf322d2eec8da,64e7039a2e3784d32f5a4bb8,,,,,,,sngl,resources/Empty.png,resources/DBN.BMP,Door1,0.353703704,-0.051851852,1,0,0,1.3271,optionRight,30,825,1,14,0,14,0,1,,,,,,,,,,,,,,,,,,,,,,,,,,,,,,,,,,,,,,,
,,,,,,,,2023-08-24_08h16.08.247,HF_wild_card,2022.2.4,Win32,60.04563468,607f441b91a96d298ca2d347,64e63663dbcaf322d2eec8da,64e7039a2e3784d32f5a4bb8,,,,,,,sngl,resources/DY.BMP,resources/Empty.png,Door4,-0.230555556,-0.1,1,0,0,0.9606,optionLeft,80,905,1,15,0,15,0,1,,,,,,,,,,,,,,,,,,,,,,,,,,,,,,,,,,,,,,,
,,,,,,,,2023-08-24_08h16.08.247,HF_wild_card,2022.2.4,Win32,60.04563468,607f441b91a96d298ca2d347,64e63663dbcaf322d2eec8da,64e7039a2e3784d32f5a4bb8,,,,,,,decisionTrl,resources/DR.BMP,resources/DG.BMP,WildCard_NonEx,-0.25,-0.113888889,1,0,0,2.6092,optionLeft,45,950,1,16,0,16,0,1,,,,,,,,,,,,,,,,,,,,,,,,,,,,,,,,,,,,,,,
,,,,,,,,2023-08-24_08h16.08.247,HF_wild_card,2022.2.4,Win32,60.04563468,607f441b91a96d298ca2d347,64e63663dbcaf322d2eec8da,64e7039a2e3784d32f5a4bb8,,,,,,,ctch,resources/DBN.BMP,resources/DY.BMP,Door4,0.40462963,0.04537037,1,0,0,1.0772,optionRight,80,1030,1,17,0,17,0,1,,,,,,,,,,,,,,,,,,,,,,,,,,,,,,,,,,,,,,,
,,,,,,,,2023-08-24_08h16.08.247,HF_wild_card,2022.2.4,Win32,60.04563468,607f441b91a96d298ca2d347,64e63663dbcaf322d2eec8da,64e7039a2e3784d32f5a4bb8,,,,,,,decisionTrl,resources/DR.BMP,resources/DBN.BMP,WildCard_NonEx,-0.218518519,-0.136111111,1,0,0,2.659,optionLeft,45,1075,1,18,0,18,0,1,,,,,,,,,,,,,,,,,,,,,,,,,,,,,,,,,,,,,,,
,,,,,,,,2023-08-24_08h16.08.247,HF_wild_card,2022.2.4,Win32,60.04563468,607f441b91a96d298ca2d347,64e63663dbcaf322d2eec8da,64e7039a2e3784d32f5a4bb8,,,,,,,ctch,resources/DY.BMP,resources/DBN.BMP,Door4,-0.284259259,-0.125925926,1,0,0,1.2274,optionLeft,60,1135,1,19,0,19,0,1,,,,,,,,,,,,,,,,,,,,,,,,,,,,,,,,,,,,,,,
,,,,,,,,2023-08-24_08h16.08.247,HF_wild_card,2022.2.4,Win32,60.04563468,607f441b91a96d298ca2d347,64e63663dbcaf322d2eec8da,64e7039a2e3784d32f5a4bb8,,,,,,,sngl,resources/Empty.png,resources/DR.BMP,WildCard_NonEx,0.407407407,-0.073148148,1,0,0,1.1598,optionRight,45,1180,1,20,0,20,0,1,,,,,,,,,,,,,,,,,,,,,,,,,,,,,,,,,,,,,,,
,,,,,,,,2023-08-24_08h16.08.247,HF_wild_card,2022.2.4,Win32,60.04563468,607f441b91a96d298ca2d347,64e63663dbcaf322d2eec8da,64e7039a2e3784d32f5a4bb8,,,,,,,decisionTrl,resources/DY.BMP,resources/DG.BMP,Door4,-0.227777778,-0.121296296,1,0,0,0.9214,optionLeft,80,1260,1,21,0,21,0,1,,,,,,,,,,,,,,,,,,,,,,,,,,,,,,,,,,,,,,,
,,,,,,,,2023-08-24_08h16.08.247,HF_wild_card,2022.2.4,Win32,60.04563468,607f441b91a96d298ca2d347,64e63663dbcaf322d2eec8da,64e7039a2e3784d32f5a4bb8,,,,,,,sngl,resources/DB.BMP,resources/Empty.png,Door2,-0.326851852,-0.131481481,1,0,0,1.3539,optionLeft,40,1300,1,22,0,22,0,1,,,,,,,,,,,,,,,,,,,,,,,,,,,,,,,,,,,,,,,
,,,,,,,,2023-08-24_08h16.08.247,HF_wild_card,2022.2.4,Win32,60.04563468,607f441b91a96d298ca2d347,64e63663dbcaf322d2eec8da,64e7039a2e3784d32f5a4bb8,,,,,,,decisionTrl,resources/DG.BMP,resources/DY.BMP,Door4,0.355555556,-0.048148148,1,0,0,0.8763,optionRight,60,1360,1,23,0,23,0,1,,,,,,,,,,,,,,,,,,,,,,,,,,,,,,,,,,,,,,,
,,,,,,,,2023-08-24_08h16.08.247,HF_wild_card,2022.2.4,Win32,60.04563468,607f441b91a96d298ca2d347,64e63663dbcaf322d2eec8da,64e7039a2e3784d32f5a4bb8,,,,,,,sngl,resources/Empty.png,resources/DB.BMP,Door2,0.387037037,0.072222222,1,0,0,1.0444,optionRight,20,1380,1,24,0,24,0,1,,,,,,,,,,,,,,,,,,,,,,,,,,,,,,,,,,,,,,,
,,,,,,,,2023-08-24_08h16.08.247,HF_wild_card,2022.2.4,Win32,60.04563468,607f441b91a96d298ca2d347,64e63663dbcaf322d2eec8da,64e7039a2e3784d32f5a4bb8,,,,,,,sngl,resources/DBN.BMP,resources/Empty.png,Door1,-0.227777778,-0.075925926,1,0,0,1.2261,optionLeft,30,1410,1,25,0,25,0,1,,,,,,,,,,,,,,,,,,,,,,,,,,,,,,,,,,,,,,,
,,,,,,,,2023-08-24_08h16.08.247,HF_wild_card,2022.2.4,Win32,60.04563468,607f441b91a96d298ca2d347,64e63663dbcaf322d2eec8da,64e7039a2e3784d32f5a4bb8,,,,,,,sngl,resources/Empty.png,resources/DR.BMP,WildCard_NonEx,0.440740741,0.044444444,1,0,0,1.0937,optionRight,55,1465,1,26,0,26,0,1,,,,,,,,,,,,,,,,,,,,,,,,,,,,,,,,,,,,,,,
,,,,,,,,2023-08-24_08h16.08.247,HF_wild_card,2022.2.4,Win32,60.04563468,607f441b91a96d298ca2d347,64e63663dbcaf322d2eec8da,64e7039a2e3784d32f5a4bb8,,,,,,,decisionTrl,resources/DG.BMP,resources/DY.BMP,Door4,0.361111111,0.024074074,1,0,0,5.0571,optionRight,60,1525,1,27,0,27,0,1,,,,,,,,,,,,,,,,,,,,,,,,,,,,,,,,,,,,,,,
,,,,,,,,2023-08-24_08h16.08.247,HF_wild_card,2022.2.4,Win32,60.04563468,607f441b91a96d298ca2d347,64e63663dbcaf322d2eec8da,64e7039a2e3784d32f5a4bb8,,,,,,,sngl,resources/DR.BMP,resources/Empty.png,WildCard_NonEx,-0.250925926,-0.224074074,1,0,0,0.8227,optionLeft,45,1570,1,28,0,28,0,1,,,,,,,,,,,,,,,,,,,,,,,,,,,,,,,,,,,,,,,
,,,,,,,,2023-08-24_08h16.08.247,HF_wild_card,2022.2.4,Win32,60.04563468,607f441b91a96d298ca2d347,64e63663dbcaf322d2eec8da,64e7039a2e3784d32f5a4bb8,,,,,,,decisionTrl,resources/DG.BMP,resources/DY.BMP,Door4,0.357407407,0.061111111,1,0,0,0.8609,optionRight,60,1630,1,29,0,29,0,1,,,,,,,,,,,,,,,,,,,,,,,,,,,,,,,,,,,,,,,
,,,,,,,,2023-08-24_08h16.08.247,HF_wild_card,2022.2.4,Win32,60.04563468,607f441b91a96d298ca2d347,64e63663dbcaf322d2eec8da,64e7039a2e3784d32f5a4bb8,,,,,,,ctch,resources/DG.BMP,resources/DB.BMP,Door3,-0.25,-0.149074074,1,0,0,1.2943,optionLeft,70,1700,1,30,0,30,0,1,,,,,,,,,,,,,,,,,,,,,,,,,,,,,,,,,,,,,,,
,,,,,,,,2023-08-24_08h16.08.247,HF_wild_card,2022.2.4,Win32,60.04563468,607f441b91a96d298ca2d347,64e63663dbcaf322d2eec8da,64e7039a2e3784d32f5a4bb8,,,,,,,sngl,resources/DG.BMP,resources/Empty.png,Door3,-0.214814815,-0.148148148,1,0,0,0.8442,optionLeft,70,1770,1,31,0,31,0,1,,,,,,,,,,,,,,,,,,,,,,,,,,,,,,,,,,,,,,,
,,,,,,,,2023-08-24_08h16.08.247,HF_wild_card,2022.2.4,Win32,60.04563468,607f441b91a96d298ca2d347,64e63663dbcaf322d2eec8da,64e7039a2e3784d32f5a4bb8,,,,,,,decisionTrl,resources/DY.BMP,resources/DR.BMP,WildCard_NonEx,0.317592593,0.016666667,1,0,0,1.9272,optionRight,45,1815,1,32,0,32,0,1,,,,,,,,,,,,,,,,,,,,,,,,,,,,,,,,,,,,,,,
,,,,,,,,2023-08-24_08h16.08.247,HF_wild_card,2022.2.4,Win32,60.04563468,607f441b91a96d298ca2d347,64e63663dbcaf322d2eec8da,64e7039a2e3784d32f5a4bb8,,,,,,,decisionTrl,resources/DB.BMP,resources/DBN.BMP,Door2,-0.239814815,-0.146296296,1,0,0,1.3608,optionLeft,20,1835,1,33,0,33,0,1,,,,,,,,,,,,,,,,,,,,,,,,,,,,,,,,,,,,,,,
,,,,,,,,2023-08-24_08h16.08.247,HF_wild_card,2022.2.4,Win32,60.04563468,607f441b91a96d298ca2d347,64e63663dbcaf322d2eec8da,64e7039a2e3784d32f5a4bb8,,,,,,,decisionTrl,resources/DR.BMP,resources/DB.BMP,WildCard_NonEx,-0.230555556,-0.146296296,1,0,0,1.6934,optionLeft,55,1890,1,34,0,34,0,1,,,,,,,,,,,,,,,,,,,,,,,,,,,,,,,,,,,,,,,
,,,,,,,,2023-08-24_08h16.08.247,HF_wild_card,2022.2.4,Win32,60.04563468,607f441b91a96d298ca2d347,64e63663dbcaf322d2eec8da,64e7039a2e3784d32f5a4bb8,,,,,,,decisionTrl,resources/DBN.BMP,resources/DB.BMP,Door1,-0.182407407,-0.176851852,1,0,0,1.7437,optionLeft,30,1920,1,35,0,35,0,1,,,,,,,,,,,,,,,,,,,,,,,,,,,,,,,,,,,,,,,
,,,,,,,,2023-08-24_08h16.08.247,HF_wild_card,2022.2.4,Win32,60.04563468,607f441b91a96d298ca2d347,64e63663dbcaf322d2eec8da,64e7039a2e3784d32f5a4bb8,,,,,,,decisionTrl,resources/DBN.BMP,resources/DB.BMP,Door1,-0.212037037,-0.223148148,1,0,0,1.843,optionLeft,30,1950,1,36,0,36,0,1,,,,,,,,,,,,,,,,,,,,,,,,,,,,,,,,,,,,,,,
,,,,,,,,2023-08-24_08h16.08.247,HF_wild_card,2022.2.4,Win32,60.04563468,607f441b91a96d298ca2d347,64e63663dbcaf322d2eec8da,64e7039a2e3784d32f5a4bb8,,,,,,,decisionTrl,resources/DBN.BMP,resources/DB.BMP,Door1,-0.180555556,-0.076851852,1,0,0,1.3274,optionLeft,30,1980,1,37,0,37,0,1,,,,,,,,,,,,,,,,,,,,,,,,,,,,,,,,,,,,,,,
,,,,,,,,2023-08-24_08h16.08.247,HF_wild_card,2022.2.4,Win32,60.04563468,607f441b91a96d298ca2d347,64e63663dbcaf322d2eec8da,64e7039a2e3784d32f5a4bb8,,,,,,,decisionTrl,resources/DY.BMP,resources/DG.BMP,Door3,0.350925926,-0.026851852,1,0,0,1.6274,optionRight,70,2050,1,38,0,38,0,1,,,,,,,,,,,,,,,,,,,,,,,,,,,,,,,,,,,,,,,
,,,,,,,,2023-08-24_08h16.08.247,HF_wild_card,2022.2.4,Win32,60.04563468,607f441b91a96d298ca2d347,64e63663dbcaf322d2eec8da,64e7039a2e3784d32f5a4bb8,,,,,,,decisionTrl,resources/DB.BMP,resources/DR.BMP,WildCard_NonEx,0.35,-0.087037037,1,0,0,1.2764,optionRight,45,2095,1,39,0,39,0,1,,,,,,,,,,,,,,,,,,,,,,,,,,,,,,,,,,,,,,,
,,,,,,,,2023-08-24_08h16.08.247,HF_wild_card,2022.2.4,Win32,60.04563468,607f441b91a96d298ca2d347,64e63663dbcaf322d2eec8da,64e7039a2e3784d32f5a4bb8,,,,,,,decisionTrl,resources/DR.BMP,resources/DY.BMP,WildCard_NonEx,-0.341666667,-0.035185185,1,0,0,2.2267,optionLeft,45,2140,1,40,0,40,0,1,,,,,,,,,,,,,,,,,,,,,,,,,,,,,,,,,,,,,,,
,,,,,,,,2023-08-24_08h16.08.247,HF_wild_card,2022.2.4,Win32,60.04563468,607f441b91a96d298ca2d347,64e63663dbcaf322d2eec8da,64e7039a2e3784d32f5a4bb8,,,,,,,sngl,resources/Empty.png,resources/DY.BMP,Door4,0.253703704,-0.175925926,1,0,0,0.7279,optionRight,60,2200,1,41,0,41,0,1,,,,,,,,,,,,,,,,,,,,,,,,,,,,,,,,,,,,,,,
,,,,,,,,2023-08-24_08h16.08.247,HF_wild_card,2022.2.4,Win32,60.04563468,607f441b91a96d298ca2d347,64e63663dbcaf322d2eec8da,64e7039a2e3784d32f5a4bb8,,,,,,,ctch,resources/DB.BMP,resources/DG.BMP,Door3,0.241666667,-0.142592593,1,0,0,1.2228,optionRight,70,2270,1,42,0,42,0,1,,,,,,,,,,,,,,,,,,,,,,,,,,,,,,,,,,,,,,,
,,,,,,,,2023-08-24_08h16.08.247,HF_wild_card,2022.2.4,Win32,60.04563468,607f441b91a96d298ca2d347,64e63663dbcaf322d2eec8da,64e7039a2e3784d32f5a4bb8,,,,,,,ctch,resources/DB.BMP,resources/DG.BMP,Door3,0.241666667,-0.168518519,1,0,0,0.7443,optionRight,70,2340,1,43,0,43,0,1,,,,,,,,,,,,,,,,,,,,,,,,,,,,,,,,,,,,,,,
,,,,,,,,2023-08-24_08h16.08.247,HF_wild_card,2022.2.4,Win32,60.04563468,607f441b91a96d298ca2d347,64e63663dbcaf322d2eec8da,64e7039a2e3784d32f5a4bb8,,,,,,,,,,,,,,,,,,,,,,,,,,0,0,0,0,1,,,,,,,,,,,,,,,,,,,,,,,,,,,,,,,,,,
,,,,,,,,2023-08-24_08h16.08.247,HF_wild_card,2022.2.4,Win32,60.04563468,607f441b91a96d298ca2d347,64e63663dbcaf322d2eec8da,64e7039a2e3784d32f5a4bb8,,,,,,,decisionTrl,resources/DG.BMP,resources/DY.BMP,Door4,0.498148148,-0.032407407,1,0,0,0.9249,optionRight,80,2420,2,0,0,0,0,1,,,,,,,,,,,,,,,,,,,,,,,,,,,,,,,,,,,,,,,
,,,,,,,,2023-08-24_08h16.08.247,HF_wild_card,2022.2.4,Win32,60.04563468,607f441b91a96d298ca2d347,64e63663dbcaf322d2eec8da,64e7039a2e3784d32f5a4bb8,,,,,,,sngl,resources/Empty.png,resources/DY.BMP,Door4,0.363888889,-0.122222222,1,0,0,1.1102,optionRight,80,2500,2,1,0,1,0,1,,,,,,,,,,,,,,,,,,,,,,,,,,,,,,,,,,,,,,,
,,,,,,,,2023-08-24_08h16.08.247,HF_wild_card,2022.2.4,Win32,60.04563468,607f441b91a96d298ca2d347,64e63663dbcaf322d2eec8da,64e7039a2e3784d32f5a4bb8,,,,,,,decisionTrl,resources/DBN.BMP,resources/DB.BMP,Door2,0.333333333,-0.031481481,1,0,0,1.2776,optionRight,40,2540,2,2,0,2,0,1,,,,,,,,,,,,,,,,,,,,,,,,,,,,,,,,,,,,,,,
,,,,,,,,2023-08-24_08h16.08.247,HF_wild_card,2022.2.4,Win32,60.04563468,607f441b91a96d298ca2d347,64e63663dbcaf322d2eec8da,64e7039a2e3784d32f5a4bb8,,,,,,,decisionTrl,resources/DY.BMP,resources/DG.BMP,Door4,-0.297222222,-0.114814815,1,0,0,1.3272,optionLeft,80,2620,2,3,0,3,0,1,,,,,,,,,,,,,,,,,,,,,,,,,,,,,,,,,,,,,,,
,,,,,,,,2023-08-24_08h16.08.247,HF_wild_card,2022.2.4,Win32,60.04563468,607f441b91a96d298ca2d347,64e63663dbcaf322d2eec8da,64e7039a2e3784d32f5a4bb8,,,,,,,decisionTrl,resources/DY.BMP,resources/DR.BMP,Door4,-0.196296296,-0.150925926,1,0,0,0.7567,optionLeft,80,2700,2,4,0,4,0,1,,,,,,,,,,,,,,,,,,,,,,,,,,,,,,,,,,,,,,,
,,,,,,,,2023-08-24_08h16.08.247,HF_wild_card,2022.2.4,Win32,60.04563468,607f441b91a96d298ca2d347,64e63663dbcaf322d2eec8da,64e7039a2e3784d32f5a4bb8,,,,,,,decisionTrl,resources/DG.BMP,resources/DR.BMP,WildCard_NonEx,0.380555556,-0.084259259,1,0,0,1.1773,optionRight,45,2745,2,5,0,5,0,1,,,,,,,,,,,,,,,,,,,,,,,,,,,,,,,,,,,,,,,
,,,,,,,,2023-08-24_08h16.08.247,HF_wild_card,2022.2.4,Win32,60.04563468,607f441b91a96d298ca2d347,64e63663dbcaf322d2eec8da,64e7039a2e3784d32f5a4bb8,,,,,,,ctch,resources/DB.BMP,resources/DG.BMP,Door3,0.380555556,0.002777778,1,0,0,0.6281,optionRight,70,2815,2,6,0,6,0,1,,,,,,,,,,,,,,,,,,,,,,,,,,,,,,,,,,,,,,,
,,,,,,,,2023-08-24_08h16.08.247,HF_wild_card,2022.2.4,Win32,60.04563468,607f441b91a96d298ca2d347,64e63663dbcaf322d2eec8da,64e7039a2e3784d32f5a4bb8,,,,,,,sngl,resources/Empty.png,resources/DBN.BMP,Door1,0.327777778,0.007407407,1,0,0,0.9045,optionRight,30,2845,2,7,0,7,0,1,,,,,,,,,,,,,,,,,,,,,,,,,,,,,,,,,,,,,,,
,,,,,,,,2023-08-24_08h16.08.247,HF_wild_card,2022.2.4,Win32,60.04563468,607f441b91a96d298ca2d347,64e63663dbcaf322d2eec8da,64e7039a2e3784d32f5a4bb8,,,,,,,sngl,resources/DB.BMP,resources/Empty.png,Door2,-0.161111111,-0.159259259,1,0,0,0.761,optionLeft,20,2865,2,8,0,8,0,1,,,,,,,,,,,,,,,,,,,,,,,,,,,,,,,,,,,,,,,
,,,,,,,,2023-08-24_08h16.08.247,HF_wild_card,2022.2.4,Win32,60.04563468,607f441b91a96d298ca2d347,64e63663dbcaf322d2eec8da,64e7039a2e3784d32f5a4bb8,,,,,,,decisionTrl,resources/DBN.BMP,resources/DB.BMP,Door1,-0.219444444,-0.187037037,1,0,0,1.6833,optionLeft,30,2895,2,9,0,9,0,1,,,,,,,,,,,,,,,,,,,,,,,,,,,,,,,,,,,,,,,
,,,,,,,,2023-08-24_08h16.08.247,HF_wild_card,2022.2.4,Win32,60.04563468,607f441b91a96d298ca2d347,64e63663dbcaf322d2eec8da,64e7039a2e3784d32f5a4bb8,,,,,,,ctch,resources/DG.BMP,resources/DB.BMP,Door3,-0.169444444,-0.160185185,1,0,0,1.5442,optionLeft,70,2965,2,10,0,10,0,1,,,,,,,,,,,,,,,,,,,,,,,,,,,,,,,,,,,,,,,
,,,,,,,,2023-08-24_08h16.08.247,HF_wild_card,2022.2.4,Win32,60.04563468,607f441b91a96d298ca2d347,64e63663dbcaf322d2eec8da,64e7039a2e3784d32f5a4bb8,,,,,,,decisionTrl,resources/DBN.BMP,resources/DR.BMP,WildCard_NonEx,0.34537037,0.075925926,1,0,0,2.7772,optionRight,45,3010,2,11,0,11,0,1,,,,,,,,,,,,,,,,,,,,,,,,,,,,,,,,,,,,,,,
,,,,,,,,2023-08-24_08h16.08.247,HF_wild_card,2022.2.4,Win32,60.04563468,607f441b91a96d298ca2d347,64e63663dbcaf322d2eec8da,64e7039a2e3784d32f5a4bb8,,,,,,,decisionTrl,resources/DB.BMP,resources/DBN.BMP,Door1,0.332407407,-0.025,1,0,0,2.0263,optionRight,30,3040,2,12,0,12,0,1,,,,,,,,,,,,,,,,,,,,,,,,,,,,,,,,,,,,,,,
,,,,,,,,2023-08-24_08h16.08.247,HF_wild_card,2022.2.4,Win32,60.04563468,607f441b91a96d298ca2d347,64e63663dbcaf322d2eec8da,64e7039a2e3784d32f5a4bb8,,,,,,,decisionTrl,resources/DY.BMP,resources/DG.BMP,Door4,-0.247222222,-0.138888889,1,0,0,1.794,optionLeft,60,3100,2,13,0,13,0,1,,,,,,,,,,,,,,,,,,,,,,,,,,,,,,,,,,,,,,,
,,,,,,,,2023-08-24_08h16.08.247,HF_wild_card,2022.2.4,Win32,60.04563468,607f441b91a96d298ca2d347,64e63663dbcaf322d2eec8da,64e7039a2e3784d32f5a4bb8,,,,,,,sngl,resources/Empty.png,resources/DR.BMP,WildCard_NonEx,0.346296296,-0.062962963,1,0,0,0.9607,optionRight,45,3145,2,14,0,14,0,1,,,,,,,,,,,,,,,,,,,,,,,,,,,,,,,,,,,,,,,
,,,,,,,,2023-08-24_08h16.08.247,HF_wild_card,2022.2.4,Win32,60.04563468,607f441b91a96d298ca2d347,64e63663dbcaf322d2eec8da,64e7039a2e3784d32f5a4bb8,,,,,,,decisionTrl,resources/DR.BMP,resources/DG.BMP,Door3,0.350925926,0.044444444,1,0,0,0.9273,optionRight,70,3215,2,15,0,15,0,1,,,,,,,,,,,,,,,,,,,,,,,,,,,,,,,,,,,,,,,
,,,,,,,,2023-08-24_08h16.08.247,HF_wild_card,2022.2.4,Win32,60.04563468,607f441b91a96d298ca2d347,64e63663dbcaf322d2eec8da,64e7039a2e3784d32f5a4bb8,,,,,,,ctch,resources/DBN.BMP,resources/DY.BMP,Door4,0.32962963,0.055555556,1,0,0,1.1448,optionRight,80,3295,2,16,0,16,0,1,,,,,,,,,,,,,,,,,,,,,,,,,,,,,,,,,,,,,,,
,,,,,,,,2023-08-24_08h16.08.247,HF_wild_card,2022.2.4,Win32,60.04563468,607f441b91a96d298ca2d347,64e63663dbcaf322d2eec8da,64e7039a2e3784d32f5a4bb8,,,,,,,ctch,resources/DBN.BMP,resources/DY.BMP,Door4,0.274074074,-0.003703704,1,0,0,0.7445,optionRight,60,3355,2,17,0,17,0,1,,,,,,,,,,,,,,,,,,,,,,,,,,,,,,,,,,,,,,,
,,,,,,,,2023-08-24_08h16.08.247,HF_wild_card,2022.2.4,Win32,60.04563468,607f441b91a96d298ca2d347,64e63663dbcaf322d2eec8da,64e7039a2e3784d32f5a4bb8,,,,,,,ctch,resources/DB.BMP,resources/DG.BMP,Door3,0.280555556,0.033333333,1,0,0,1.0941,optionRight,70,3425,2,18,0,18,0,1,,,,,,,,,,,,,,,,,,,,,,,,,,,,,,,,,,,,,,,
,,,,,,,,2023-08-24_08h16.08.247,HF_wild_card,2022.2.4,Win32,60.04563468,607f441b91a96d298ca2d347,64e63663dbcaf322d2eec8da,64e7039a2e3784d32f5a4bb8,,,,,,,decisionTrl,resources/DB.BMP,resources/DBN.BMP,Door1,0.225,-0.085185185,1,0,0,7.2232,optionRight,30,3455,2,19,0,19,0,1,,,,,,,,,,,,,,,,,,,,,,,,,,,,,,,,,,,,,,,
,,,,,,,,2023-08-24_08h16.08.247,HF_wild_card,2022.2.4,Win32,60.04563468,607f441b91a96d298ca2d347,64e63663dbcaf322d2eec8da,64e7039a2e3784d32f5a4bb8,,,,,,,decisionTrl,resources/DY.BMP,resources/DG.BMP,Door4,-0.309259259,0.010185185,1,0,0,1.0111,optionLeft,60,3515,2,20,0,20,0,1,,,,,,,,,,,,,,,,,,,,,,,,,,,,,,,,,,,,,,,
,,,,,,,,2023-08-24_08h16.08.247,HF_wild_card,2022.2.4,Win32,60.04563468,607f441b91a96d298ca2d347,64e63663dbcaf322d2eec8da,64e7039a2e3784d32f5a4bb8,,,,,,,decisionTrl,resources/DBN.BMP,resources/DB.BMP,Door1,-0.296296296,0.010185185,1,0,0,1.4606,optionLeft,30,3545,2,21,0,21,0,1,,,,,,,,,,,,,,,,,,,,,,,,,,,,,,,,,,,,,,,
,,,,,,,,2023-08-24_08h16.08.247,HF_wild_card,2022.2.4,Win32,60.04563468,607f441b91a96d298ca2d347,64e63663dbcaf322d2eec8da,64e7039a2e3784d32f5a4bb8,,,,,,,decisionTrl,resources/DR.BMP,resources/DBN.BMP,WildCard_NonEx,-0.276851852,-0.006481481,1,0,0,0.9935,optionLeft,45,3590,2,22,0,22,0,1,,,,,,,,,,,,,,,,,,,,,,,,,,,,,,,,,,,,,,,
,,,,,,,,2023-08-24_08h16.08.247,HF_wild_card,2022.2.4,Win32,60.04563468,607f441b91a96d298ca2d347,64e63663dbcaf322d2eec8da,64e7039a2e3784d32f5a4bb8,,,,,,,ctch,resources/DY.BMP,resources/DBN.BMP,Door4,-0.25,-0.027777778,1,0,0,1.1777,optionLeft,80,3670,2,23,0,23,0,1,,,,,,,,,,,,,,,,,,,,,,,,,,,,,,,,,,,,,,,
,,,,,,,,2023-08-24_08h16.08.247,HF_wild_card,2022.2.4,Win32,60.04563468,607f441b91a96d298ca2d347,64e63663dbcaf322d2eec8da,64e7039a2e3784d32f5a4bb8,,,,,,,sngl,resources/Empty.png,resources/DG.BMP,Door3,0.178703704,-0.19537037,1,0,0,0.7022,optionRight,70,3740,2,24,0,24,0,1,,,,,,,,,,,,,,,,,,,,,,,,,,,,,,,,,,,,,,,
,,,,,,,,2023-08-24_08h16.08.247,HF_wild_card,2022.2.4,Win32,60.04563468,607f441b91a96d298ca2d347,64e63663dbcaf322d2eec8da,64e7039a2e3784d32f5a4bb8,,,,,,,decisionTrl,resources/DBN.BMP,resources/DB.BMP,Door1,-0.312962963,0.058333333,1,0,0,1.1609,optionLeft,30,3770,2,25,0,25,0,1,,,,,,,,,,,,,,,,,,,,,,,,,,,,,,,,,,,,,,,
,,,,,,,,2023-08-24_08h16.08.247,HF_wild_card,2022.2.4,Win32,60.04563468,607f441b91a96d298ca2d347,64e63663dbcaf322d2eec8da,64e7039a2e3784d32f5a4bb8,,,,,,,decisionTrl,resources/DB.BMP,resources/DR.BMP,WildCard_NonEx,0.202777778,-0.167592593,1,0,0,1.07,optionRight,55,3825,2,26,0,26,0,1,,,,,,,,,,,,,,,,,,,,,,,,,,,,,,,,,,,,,,,
,,,,,,,,2023-08-24_08h16.08.247,HF_wild_card,2022.2.4,Win32,60.04563468,607f441b91a96d298ca2d347,64e63663dbcaf322d2eec8da,64e7039a2e3784d32f5a4bb8,,,,,,,sngl,resources/Empty.png,resources/DR.BMP,WildCard_NonEx,0.156481481,-0.185185185,1,0,0,0.6777,optionRight,55,3880,2,27,0,27,0,1,,,,,,,,,,,,,,,,,,,,,,,,,,,,,,,,,,,,,,,
,,,,,,,,2023-08-24_08h16.08.247,HF_wild_card,2022.2.4,Win32,60.04563468,607f441b91a96d298ca2d347,64e63663dbcaf322d2eec8da,64e7039a2e3784d32f5a4bb8,,,,,,,ctch,resources/DY.BMP,resources/DBN.BMP,Door4,-0.260185185,-0.059259259,1,0,0,0.7447,optionLeft,80,3960,2,28,0,28,0,1,,,,,,,,,,,,,,,,,,,,,,,,,,,,,,,,,,,,,,,
,,,,,,,,2023-08-24_08h16.08.247,HF_wild_card,2022.2.4,Win32,60.04563468,607f441b91a96d298ca2d347,64e63663dbcaf322d2eec8da,64e7039a2e3784d32f5a4bb8,,,,,,,sngl,resources/DR.BMP,resources/Empty.png,WildCard_NonEx,-0.183333333,-0.177777778,1,0,0,0.7614,optionLeft,55,4015,2,29,0,29,0,1,,,,,,,,,,,,,,,,,,,,,,,,,,,,,,,,,,,,,,,
,,,,,,,,2023-08-24_08h16.08.247,HF_wild_card,2022.2.4,Win32,60.04563468,607f441b91a96d298ca2d347,64e63663dbcaf322d2eec8da,64e7039a2e3784d32f5a4bb8,,,,,,,sngl,resources/Empty.png,resources/DB.BMP,Door2,0.189814815,-0.05,1,0,0,0.6689,optionRight,40,4055,2,30,0,30,0,1,,,,,,,,,,,,,,,,,,,,,,,,,,,,,,,,,,,,,,,
,,,,,,,,2023-08-24_08h16.08.247,HF_wild_card,2022.2.4,Win32,60.04563468,607f441b91a96d298ca2d347,64e63663dbcaf322d2eec8da,64e7039a2e3784d32f5a4bb8,,,,,,,decisionTrl,resources/DB.BMP,resources/DBN.BMP,Door2,-0.125,-0.146296296,1,0,0,1.8929,optionLeft,40,4095,2,31,0,31,0,1,,,,,,,,,,,,,,,,,,,,,,,,,,,,,,,,,,,,,,,
,,,,,,,,2023-08-24_08h16.08.247,HF_wild_card,2022.2.4,Win32,60.04563468,607f441b91a96d298ca2d347,64e63663dbcaf322d2eec8da,64e7039a2e3784d32f5a4bb8,,,,,,,decisionTrl,resources/DY.BMP,resources/DG.BMP,Door3,0.262037037,0.051851852,1,0,0,1.2774,optionRight,70,4165,2,32,0,32,0,1,,,,,,,,,,,,,,,,,,,,,,,,,,,,,,,,,,,,,,,
,,,,,,,,2023-08-24_08h16.08.247,HF_wild_card,2022.2.4,Win32,60.04563468,607f441b91a96d298ca2d347,64e63663dbcaf322d2eec8da,64e7039a2e3784d32f5a4bb8,,,,,,,sngl,resources/DR.BMP,resources/Empty.png,WildCard_NonEx,-0.133333333,-0.150925926,1,0,0,0.8389,optionLeft,45,4210,2,33,0,33,0,1,,,,,,,,,,,,,,,,,,,,,,,,,,,,,,,,,,,,,,,
,,,,,,,,2023-08-24_08h16.08.247,HF_wild_card,2022.2.4,Win32,60.04563468,607f441b91a96d298ca2d347,64e63663dbcaf322d2eec8da,64e7039a2e3784d32f5a4bb8,,,,,,,decisionTrl,resources/DR.BMP,resources/DB.BMP,WildCard_NonEx,-0.467592593,-0.149074074,1,0,0,0.9273,optionLeft,55,4265,2,34,0,34,0,1,,,,,,,,,,,,,,,,,,,,,,,,,,,,,,,,,,,,,,,
,,,,,,,,2023-08-24_08h16.08.247,HF_wild_card,2022.2.4,Win32,60.04563468,607f441b91a96d298ca2d347,64e63663dbcaf322d2eec8da,64e7039a2e3784d32f5a4bb8,,,,,,,sngl,resources/DBN.BMP,resources/Empty.png,Door1,-0.461111111,-0.189814815,1,0,0,0.7611,optionLeft,30,4295,2,35,0,35,0,1,,,,,,,,,,,,,,,,,,,,,,,,,,,,,,,,,,,,,,,
,,,,,,,,2023-08-24_08h16.08.247,HF_wild_card,2022.2.4,Win32,60.04563468,607f441b91a96d298ca2d347,64e63663dbcaf322d2eec8da,64e7039a2e3784d32f5a4bb8,,,,,,,sngl,resources/DY.BMP,resources/Empty.png,Door4,-0.461111111,-0.174074074,1,0,0,0.6281,optionLeft,60,4355,2,36,0,36,0,1,,,,,,,,,,,,,,,,,,,,,,,,,,,,,,,,,,,,,,,
,,,,,,,,2023-08-24_08h16.08.247,HF_wild_card,2022.2.4,Win32,60.04563468,607f441b91a96d298ca2d347,64e63663dbcaf322d2eec8da,64e7039a2e3784d32f5a4bb8,,,,,,,ctch,resources/DG.BMP,resources/DB.BMP,Door3,-0.462037037,-0.166666667,1,0,0,0.9433,optionLeft,70,4425,2,37,0,37,0,1,,,,,,,,,,,,,,,,,,,,,,,,,,,,,,,,,,,,,,,
,,,,,,,,2023-08-24_08h16.08.247,HF_wild_card,2022.2.4,Win32,60.04563468,607f441b91a96d298ca2d347,64e63663dbcaf322d2eec8da,64e7039a2e3784d32f5a4bb8,,,,,,,sngl,resources/DG.BMP,resources/Empty.png,Door3,-0.453703704,-0.185185185,1,0,0,0.5789,optionLeft,70,4495,2,38,0,38,0,1,,,,,,,,,,,,,,,,,,,,,,,,,,,,,,,,,,,,,,,
,,,,,,,,2023-08-24_08h16.08.247,HF_wild_card,2022.2.4,Win32,60.04563468,607f441b91a96d298ca2d347,64e63663dbcaf322d2eec8da,64e7039a2e3784d32f5a4bb8,,,,,,,decisionTrl,resources/DB.BMP,resources/DBN.BMP,Door2,-0.459259259,-0.200925926,1,0,0,1.4273,optionLeft,20,4515,2,39,0,39,0,1,,,,,,,,,,,,,,,,,,,,,,,,,,,,,,,,,,,,,,,
,,,,,,,,2023-08-24_08h16.08.247,HF_wild_card,2022.2.4,Win32,60.04563468,607f441b91a96d298ca2d347,64e63663dbcaf322d2eec8da,64e7039a2e3784d32f5a4bb8,,,,,,,decisionTrl,resources/DG.BMP,resources/DY.BMP,Door3,-0.452777778,-0.201851852,1,0,0,1.102,optionLeft,70,4585,2,40,0,40,0,1,,,,,,,,,,,,,,,,,,,,,,,,,,,,,,,,,,,,,,,
,,,,,,,,2023-08-24_08h16.08.247,HF_wild_card,2022.2.4,Win32,60.04563468,607f441b91a96d298ca2d347,64e63663dbcaf322d2eec8da,64e7039a2e3784d32f5a4bb8,,,,,,,decisionTrl,resources/DG.BMP,resources/DY.BMP,Door3,-0.442592593,-0.192592593,1,0,0,0.8456,optionLeft,70,4655,2,41,0,41,0,1,,,,,,,,,,,,,,,,,,,,,,,,,,,,,,,,,,,,,,,
,,,,,,,,2023-08-24_08h16.08.247,HF_wild_card,2022.2.4,Win32,60.04563468,607f441b91a96d298ca2d347,64e63663dbcaf322d2eec8da,64e7039a2e3784d32f5a4bb8,,,,,,,decisionTrl,resources/DR.BMP,resources/DY.BMP,Door4,0.266666667,0.040740741,1,0,0,1.4436,optionRight,80,4735,2,42,0,42,0,1,,,,,,,,,,,,,,,,,,,,,,,,,,,,,,,,,,,,,,,
,,,,,,,,2023-08-24_08h16.08.247,HF_wild_card,2022.2.4,Win32,60.04563468,607f441b91a96d298ca2d347,64e63663dbcaf322d2eec8da,64e7039a2e3784d32f5a4bb8,,,,,,,decisionTrl,resources/DG.BMP,resources/DY.BMP,Door4,0.164814815,-0.128703704,1,0,0,1.1446,optionRight,60,4795,2,43,0,43,0,1,,,,,,,,,,,,,,,,,,,,,,,,,,,,,,,,,,,,,,,
,,,,,,,,2023-08-24_08h16.08.247,HF_wild_card,2022.2.4,Win32,60.04563468,607f441b91a96d298ca2d347,64e63663dbcaf322d2eec8da,64e7039a2e3784d32f5a4bb8,,,,,,,,,,,,,,,,,,,,,,,,,,1,0,1,0,1,,,,,,,,,,,,,,,,,,,,,,,,,,,,,,,,,,
,,,,,,,,2023-08-24_08h16.08.247,HF_wild_card,2022.2.4,Win32,60.04563468,607f441b91a96d298ca2d347,64e63663dbcaf322d2eec8da,64e7039a2e3784d32f5a4bb8,,,,,,,sngl,resources/DB.BMP,resources/Empty.png,Door2,-0.237037037,-0.114814815,1,0,0,0.8757,optionLeft,40,4835,3,0,0,0,0,1,,,,,,,,,,,,,,,,,,,,,,,,,,,,,,,,,,,,,,,
,,,,,,,,2023-08-24_08h16.08.247,HF_wild_card,2022.2.4,Win32,60.04563468,607f441b91a96d298ca2d347,64e63663dbcaf322d2eec8da,64e7039a2e3784d32f5a4bb8,,,,,,,decisionTrl,resources/DY.BMP,resources/DG.BMP,Door4,-0.20462963,-0.118518519,1,0,0,1.1606,optionLeft,80,4915,3,1,0,1,0,1,,,,,,,,,,,,,,,,,,,,,,,,,,,,,,,,,,,,,,,
,,,,,,,,2023-08-24_08h16.08.247,HF_wild_card,2022.2.4,Win32,60.04563468,607f441b91a96d298ca2d347,64e63663dbcaf322d2eec8da,64e7039a2e3784d32f5a4bb8,,,,,,,sngl,resources/DR.BMP,resources/Empty.png,WildCard_NonEx,-0.186111111,-0.182407407,1,0,0,0.7436,optionLeft,55,4970,3,2,0,2,0,1,,,,,,,,,,,,,,,,,,,,,,,,,,,,,,,,,,,,,,,
,,,,,,,,2023-08-24_08h16.08.247,HF_wild_card,2022.2.4,Win32,60.04563468,607f441b91a96d298ca2d347,64e63663dbcaf322d2eec8da,64e7039a2e3784d32f5a4bb8,,,,,,,sngl,resources/Empty.png,resources/DR.BMP,WildCard_NonEx,0.234259259,0.025,1,0,0,0.6615,optionRight,55,5025,3,3,0,3,0,1,,,,,,,,,,,,,,,,,,,,,,,,,,,,,,,,,,,,,,,
,,,,,,,,2023-08-24_08h16.08.247,HF_wild_card,2022.2.4,Win32,60.04563468,607f441b91a96d298ca2d347,64e63663dbcaf322d2eec8da,64e7039a2e3784d32f5a4bb8,,,,,,,decisionTrl,resources/DR.BMP,resources/DBN.BMP,WildCard_NonEx,-0.167592593,-0.169444444,1,0,0,0.6945,optionLeft,55,5080,3,4,0,4,0,1,,,,,,,,,,,,,,,,,,,,,,,,,,,,,,,,,,,,,,,
,,,,,,,,2023-08-24_08h16.08.247,HF_wild_card,2022.2.4,Win32,60.04563468,607f441b91a96d298ca2d347,64e63663dbcaf322d2eec8da,64e7039a2e3784d32f5a4bb8,,,,,,,sngl,resources/DBN.BMP,resources/Empty.png,Door1,-0.163888889,-0.167592593,1,0,0,0.5942,optionLeft,30,5110,3,5,0,5,0,1,,,,,,,,,,,,,,,,,,,,,,,,,,,,,,,,,,,,,,,
,,,,,,,,2023-08-24_08h16.08.247,HF_wild_card,2022.2.4,Win32,60.04563468,607f441b91a96d298ca2d347,64e63663dbcaf322d2eec8da,64e7039a2e3784d32f5a4bb8,,,,,,,decisionTrl,resources/DY.BMP,resources/DG.BMP,Door3,0.216666667,0.060185185,1,0,0,1.3273,optionRight,70,5180,3,6,0,6,0,1,,,,,,,,,,,,,,,,,,,,,,,,,,,,,,,,,,,,,,,
,,,,,,,,2023-08-24_08h16.08.247,HF_wild_card,2022.2.4,Win32,60.04563468,607f441b91a96d298ca2d347,64e63663dbcaf322d2eec8da,64e7039a2e3784d32f5a4bb8,,,,,,,ctch,resources/DB.BMP,resources/DG.BMP,Door3,0.267592593,0.060185185,1,0,0,1.027,optionRight,70,5250,3,7,0,7,0,1,,,,,,,,,,,,,,,,,,,,,,,,,,,,,,,,,,,,,,,
,,,,,,,,2023-08-24_08h16.08.247,HF_wild_card,2022.2.4,Win32,60.04563468,607f441b91a96d298ca2d347,64e63663dbcaf322d2eec8da,64e7039a2e3784d32f5a4bb8,,,,,,,decisionTrl,resources/DG.BMP,resources/DY.BMP,Door4,0.205555556,0,1,0,0,2.1763,optionRight,80,5330,3,8,0,8,0,1,,,,,,,,,,,,,,,,,,,,,,,,,,,,,,,,,,,,,,,
,,,,,,,,2023-08-24_08h16.08.247,HF_wild_card,2022.2.4,Win32,60.04563468,607f441b91a96d298ca2d347,64e63663dbcaf322d2eec8da,64e7039a2e3784d32f5a4bb8,,,,,,,decisionTrl,resources/DBN.BMP,resources/DB.BMP,Door2,0.235185185,0.003703704,1,0,0,1.3269,optionRight,20,5350,3,9,0,9,0,1,,,,,,,,,,,,,,,,,,,,,,,,,,,,,,,,,,,,,,,
,,,,,,,,2023-08-24_08h16.08.247,HF_wild_card,2022.2.4,Win32,60.04563468,607f441b91a96d298ca2d347,64e63663dbcaf322d2eec8da,64e7039a2e3784d32f5a4bb8,,,,,,,decisionTrl,resources/DG.BMP,resources/DR.BMP,Door3,-0.183333333,-0.165740741,1,0,0,1.2614,optionLeft,70,5420,3,10,0,10,0,1,,,,,,,,,,,,,,,,,,,,,,,,,,,,,,,,,,,,,,,
,,,,,,,,2023-08-24_08h16.08.247,HF_wild_card,2022.2.4,Win32,60.04563468,607f441b91a96d298ca2d347,64e63663dbcaf322d2eec8da,64e7039a2e3784d32f5a4bb8,,,,,,,ctch,resources/DG.BMP,resources/DB.BMP,Door3,-0.187962963,-0.155555556,1,0,0,0.6283,optionLeft,70,5490,3,11,0,11,0,1,,,,,,,,,,,,,,,,,,,,,,,,,,,,,,,,,,,,,,,
,,,,,,,,2023-08-24_08h16.08.247,HF_wild_card,2022.2.4,Win32,60.04563468,607f441b91a96d298ca2d347,64e63663dbcaf322d2eec8da,64e7039a2e3784d32f5a4bb8,,,,,,,sngl,resources/Empty.png,resources/DY.BMP,Door4,0.225,-0.036111111,1,0,0,0.5275,optionRight,60,5550,3,12,0,12,0,1,,,,,,,,,,,,,,,,,,,,,,,,,,,,,,,,,,,,,,,
,,,,,,,,2023-08-24_08h16.08.247,HF_wild_card,2022.2.4,Win32,60.04563468,607f441b91a96d298ca2d347,64e63663dbcaf322d2eec8da,64e7039a2e3784d32f5a4bb8,,,,,,,ctch,resources/DBN.BMP,resources/DY.BMP,Door4,0.252777778,-0.024074074,1,0,0,0.5616,optionRight,80,5630,3,13,0,13,0,1,,,,,,,,,,,,,,,,,,,,,,,,,,,,,,,,,,,,,,,
,,,,,,,,2023-08-24_08h16.08.247,HF_wild_card,2022.2.4,Win32,60.04563468,607f441b91a96d298ca2d347,64e63663dbcaf322d2eec8da,64e7039a2e3784d32f5a4bb8,,,,,,,decisionTrl,resources/DBN.BMP,resources/DB.BMP,Door1,-0.219444444,-0.163888889,1,0,0,1.1111,optionLeft,30,5660,3,14,0,14,0,1,,,,,,,,,,,,,,,,,,,,,,,,,,,,,,,,,,,,,,,
,,,,,,,,2023-08-24_08h16.08.247,HF_wild_card,2022.2.4,Win32,60.04563468,607f441b91a96d298ca2d347,64e63663dbcaf322d2eec8da,64e7039a2e3784d32f5a4bb8,,,,,,,decisionTrl,resources/DB.BMP,resources/DBN.BMP,Door2,-0.201851852,-0.190740741,1,0,0,0.9773,optionLeft,40,5700,3,15,0,15,0,1,,,,,,,,,,,,,,,,,,,,,,,,,,,,,,,,,,,,,,,
,,,,,,,,2023-08-24_08h16.08.247,HF_wild_card,2022.2.4,Win32,60.04563468,607f441b91a96d298ca2d347,64e63663dbcaf322d2eec8da,64e7039a2e3784d32f5a4bb8,,,,,,,sngl,resources/DY.BMP,resources/Empty.png,Door4,-0.187962963,-0.15,1,0,0,0.6442,optionLeft,80,5780,3,16,0,16,0,1,,,,,,,,,,,,,,,,,,,,,,,,,,,,,,,,,,,,,,,
,,,,,,,,2023-08-24_08h16.08.247,HF_wild_card,2022.2.4,Win32,60.04563468,607f441b91a96d298ca2d347,64e63663dbcaf322d2eec8da,64e7039a2e3784d32f5a4bb8,,,,,,,sngl,resources/DR.BMP,resources/Empty.png,WildCard_NonEx,-0.167592593,-0.142592593,1,0,0,1.2434,optionLeft,45,5825,3,17,0,17,0,1,,,,,,,,,,,,,,,,,,,,,,,,,,,,,,,,,,,,,,,
,,,,,,,,2023-08-24_08h16.08.247,HF_wild_card,2022.2.4,Win32,60.04563468,607f441b91a96d298ca2d347,64e63663dbcaf322d2eec8da,64e7039a2e3784d32f5a4bb8,,,,,,,decisionTrl,resources/DR.BMP,resources/DB.BMP,WildCard_NonEx,-0.169444444,-0.14537037,1,0,0,2.4261,optionLeft,45,5870,3,18,0,18,0,1,,,,,,,,,,,,,,,,,,,,,,,,,,,,,,,,,,,,,,,
,,,,,,,,2023-08-24_08h16.08.247,HF_wild_card,2022.2.4,Win32,60.04563468,607f441b91a96d298ca2d347,64e63663dbcaf322d2eec8da,64e7039a2e3784d32f5a4bb8,,,,,,,decisionTrl,resources/DY.BMP,resources/DG.BMP,Door4,-0.186111111,-0.17037037,1,0,0,1.582,optionLeft,80,5950,3,19,0,19,0,1,,,,,,,,,,,,,,,,,,,,,,,,,,,,,,,,,,,,,,,
,,,,,,,,2023-08-24_08h16.08.247,HF_wild_card,2022.2.4,Win32,60.04563468,607f441b91a96d298ca2d347,64e63663dbcaf322d2eec8da,64e7039a2e3784d32f5a4bb8,,,,,,,ctch,resources/DG.BMP,resources/DB.BMP,Door3,-0.178703704,-0.176851852,1,0,0,0.9105,optionLeft,70,6020,3,20,0,20,0,1,,,,,,,,,,,,,,,,,,,,,,,,,,,,,,,,,,,,,,,
,,,,,,,,2023-08-24_08h16.08.247,HF_wild_card,2022.2.4,Win32,60.04563468,607f441b91a96d298ca2d347,64e63663dbcaf322d2eec8da,64e7039a2e3784d32f5a4bb8,,,,,,,decisionTrl,resources/DG.BMP,resources/DY.BMP,Door3,-0.198148148,-0.161111111,1,0,0,0.7776,optionLeft,70,6090,3,21,0,21,0,1,,,,,,,,,,,,,,,,,,,,,,,,,,,,,,,,,,,,,,,
,,,,,,,,2023-08-24_08h16.08.247,HF_wild_card,2022.2.4,Win32,60.04563468,607f441b91a96d298ca2d347,64e63663dbcaf322d2eec8da,64e7039a2e3784d32f5a4bb8,,,,,,,decisionTrl,resources/DR.BMP,resources/DY.BMP,Door4,0.206481481,-0.037037037,1,0,0,0.6451,optionRight,80,6170,3,22,0,22,0,1,,,,,,,,,,,,,,,,,,,,,,,,,,,,,,,,,,,,,,,
,,,,,,,,2023-08-24_08h16.08.247,HF_wild_card,2022.2.4,Win32,60.04563468,607f441b91a96d298ca2d347,64e63663dbcaf322d2eec8da,64e7039a2e3784d32f5a4bb8,,,,,,,decisionTrl,resources/DB.BMP,resources/DBN.BMP,Door1,0.201851852,0.025,1,0,0,1.561,optionRight,30,6200,3,23,0,23,0,1,,,,,,,,,,,,,,,,,,,,,,,,,,,,,,,,,,,,,,,
,,,,,,,,2023-08-24_08h16.08.247,HF_wild_card,2022.2.4,Win32,60.04563468,607f441b91a96d298ca2d347,64e63663dbcaf322d2eec8da,64e7039a2e3784d32f5a4bb8,,,,,,,decisionTrl,resources/DBN.BMP,resources/DB.BMP,Door2,0.190740741,0.04537037,1,0,0,1.8435,optionRight,20,6220,3,24,0,24,0,1,,,,,,,,,,,,,,,,,,,,,,,,,,,,,,,,,,,,,,,
,,,,,,,,2023-08-24_08h16.08.247,HF_wild_card,2022.2.4,Win32,60.04563468,607f441b91a96d298ca2d347,64e63663dbcaf322d2eec8da,64e7039a2e3784d32f5a4bb8,,,,,,,decisionTrl,resources/DB.BMP,resources/DBN.BMP,Door2,-0.199074074,-0.161111111,1,0,0,2.1933,optionLeft,20,6240,3,25,0,25,0,1,,,,,,,,,,,,,,,,,,,,,,,,,,,,,,,,,,,,,,,
,,,,,,,,2023-08-24_08h16.08.247,HF_wild_card,2022.2.4,Win32,60.04563468,607f441b91a96d298ca2d347,64e63663dbcaf322d2eec8da,64e7039a2e3784d32f5a4bb8,,,,,,,sngl,resources/Empty.png,resources/DG.BMP,Door3,0.201851852,0.010185185,1,0,0,0.7444,optionRight,70,6310,3,26,0,26,0,1,,,,,,,,,,,,,,,,,,,,,,,,,,,,,,,,,,,,,,,
,,,,,,,,2023-08-24_08h16.08.247,HF_wild_card,2022.2.4,Win32,60.04563468,607f441b91a96d298ca2d347,64e63663dbcaf322d2eec8da,64e7039a2e3784d32f5a4bb8,,,,,,,ctch,resources/DB.BMP,resources/DG.BMP,Door3,0.182407407,-0.035185185,1,0,0,0.9941,optionRight,70,6380,3,27,0,27,0,1,,,,,,,,,,,,,,,,,,,,,,,,,,,,,,,,,,,,,,,
,,,,,,,,2023-08-24_08h16.08.247,HF_wild_card,2022.2.4,Win32,60.04563468,607f441b91a96d298ca2d347,64e63663dbcaf322d2eec8da,64e7039a2e3784d32f5a4bb8,,,,,,,decisionTrl,resources/DB.BMP,resources/DBN.BMP,Door1,0.183333333,0.030555556,1,0,0,1.5934,optionRight,30,6410,3,28,0,28,0,1,,,,,,,,,,,,,,,,,,,,,,,,,,,,,,,,,,,,,,,
,,,,,,,,2023-08-24_08h16.08.247,HF_wild_card,2022.2.4,Win32,60.04563468,607f441b91a96d298ca2d347,64e63663dbcaf322d2eec8da,64e7039a2e3784d32f5a4bb8,,,,,,,sngl,resources/DG.BMP,resources/Empty.png,Door3,-0.435185185,-0.041666667,1,0,0,1.1438,optionLeft,70,6480,3,29,0,29,0,1,,,,,,,,,,,,,,,,,,,,,,,,,,,,,,,,,,,,,,,
,,,,,,,,2023-08-24_08h16.08.247,HF_wild_card,2022.2.4,Win32,60.04563468,607f441b91a96d298ca2d347,64e63663dbcaf322d2eec8da,64e7039a2e3784d32f5a4bb8,,,,,,,ctch,resources/DY.BMP,resources/DBN.BMP,Door4,-0.265740741,-0.005555556,1,0,0,0.8102,optionLeft,60,6540,3,30,0,30,0,1,,,,,,,,,,,,,,,,,,,,,,,,,,,,,,,,,,,,,,,
,,,,,,,,2023-08-24_08h16.08.247,HF_wild_card,2022.2.4,Win32,60.04563468,607f441b91a96d298ca2d347,64e63663dbcaf322d2eec8da,64e7039a2e3784d32f5a4bb8,,,,,,,decisionTrl,resources/DY.BMP,resources/DG.BMP,Door4,-0.230555556,-0.033333333,1,0,0,0.8115,optionLeft,60,6600,3,31,0,31,0,1,,,,,,,,,,,,,,,,,,,,,,,,,,,,,,,,,,,,,,,
,,,,,,,,2023-08-24_08h16.08.247,HF_wild_card,2022.2.4,Win32,60.04563468,607f441b91a96d298ca2d347,64e63663dbcaf322d2eec8da,64e7039a2e3784d32f5a4bb8,,,,,,,sngl,resources/Empty.png,resources/DBN.BMP,Door1,0.182407407,-0.200925926,1,0,0,1.3319,optionRight,30,6630,3,32,0,32,0,1,,,,,,,,,,,,,,,,,,,,,,,,,,,,,,,,,,,,,,,
,,,,,,,,2023-08-24_08h16.08.247,HF_wild_card,2022.2.4,Win32,60.04563468,607f441b91a96d298ca2d347,64e63663dbcaf322d2eec8da,64e7039a2e3784d32f5a4bb8,,,,,,,ctch,resources/DBN.BMP,resources/DY.BMP,Door4,0.182407407,-0.050925926,1,0,0,0.711,optionRight,60,6690,3,33,0,33,0,1,,,,,,,,,,,,,,,,,,,,,,,,,,,,,,,,,,,,,,,
,,,,,,,,2023-08-24_08h16.08.247,HF_wild_card,2022.2.4,Win32,60.04563468,607f441b91a96d298ca2d347,64e63663dbcaf322d2eec8da,64e7039a2e3784d32f5a4bb8,,,,,,,decisionTrl,resources/DB.BMP,resources/DR.BMP,WildCard_NonEx,0.292592593,-0.057407407,1,0,0,2.4594,optionRight,55,6745,3,34,0,34,0,1,,,,,,,,,,,,,,,,,,,,,,,,,,,,,,,,,,,,,,,
,,,,,,,,2023-08-24_08h16.08.247,HF_wild_card,2022.2.4,Win32,60.04563468,607f441b91a96d298ca2d347,64e63663dbcaf322d2eec8da,64e7039a2e3784d32f5a4bb8,,,,,,,sngl,resources/Empty.png,resources/DR.BMP,WildCard_NonEx,0.274074074,-0.093518519,1,0,0,0.6607,optionRight,45,6790,3,35,0,35,0,1,,,,,,,,,,,,,,,,,,,,,,,,,,,,,,,,,,,,,,,
,,,,,,,,2023-08-24_08h16.08.247,HF_wild_card,2022.2.4,Win32,60.04563468,607f441b91a96d298ca2d347,64e63663dbcaf322d2eec8da,64e7039a2e3784d32f5a4bb8,,,,,,,ctch,resources/DY.BMP,resources/DBN.BMP,Door4,-0.148148148,-0.234259259,1,0,0,0.9114,optionLeft,80,6870,3,36,0,36,0,1,,,,,,,,,,,,,,,,,,,,,,,,,,,,,,,,,,,,,,,
,,,,,,,,2023-08-24_08h16.08.247,HF_wild_card,2022.2.4,Win32,60.04563468,607f441b91a96d298ca2d347,64e63663dbcaf322d2eec8da,64e7039a2e3784d32f5a4bb8,,,,,,,decisionTrl,resources/DR.BMP,resources/DG.BMP,Door3,0.236111111,-0.077777778,1,0,0,1.3939,optionRight,70,6940,3,37,0,37,0,1,,,,,,,,,,,,,,,,,,,,,,,,,,,,,,,,,,,,,,,
,,,,,,,,2023-08-24_08h16.08.247,HF_wild_card,2022.2.4,Win32,60.04563468,607f441b91a96d298ca2d347,64e63663dbcaf322d2eec8da,64e7039a2e3784d32f5a4bb8,,,,,,,decisionTrl,resources/DY.BMP,resources/DR.BMP,Door4,-0.199074074,-0.135185185,1,0,0,0.844,optionLeft,80,7020,3,38,0,38,0,1,,,,,,,,,,,,,,,,,,,,,,,,,,,,,,,,,,,,,,,
,,,,,,,,2023-08-24_08h16.08.247,HF_wild_card,2022.2.4,Win32,60.04563468,607f441b91a96d298ca2d347,64e63663dbcaf322d2eec8da,64e7039a2e3784d32f5a4bb8,,,,,,,decisionTrl,resources/DBN.BMP,resources/DR.BMP,WildCard_NonEx,0.223148148,0.042592593,1,0,0,1.4775,optionRight,55,7075,3,39,0,39,0,1,,,,,,,,,,,,,,,,,,,,,,,,,,,,,,,,,,,,,,,
,,,,,,,,2023-08-24_08h16.08.247,HF_wild_card,2022.2.4,Win32,60.04563468,607f441b91a96d298ca2d347,64e63663dbcaf322d2eec8da,64e7039a2e3784d32f5a4bb8,,,,,,,sngl,resources/Empty.png,resources/DB.BMP,Door2,0.17962963,-0.200925926,1,0,0,0.744,optionRight,20,7095,3,40,0,40,0,1,,,,,,,,,,,,,,,,,,,,,,,,,,,,,,,,,,,,,,,
,,,,,,,,2023-08-24_08h16.08.247,HF_wild_card,2022.2.4,Win32,60.04563468,607f441b91a96d298ca2d347,64e63663dbcaf322d2eec8da,64e7039a2e3784d32f5a4bb8,,,,,,,decisionTrl,resources/DG.BMP,resources/DY.BMP,Door4,0.171296296,-0.168518519,1,0,0,1.4443,optionRight,80,7175,3,41,0,41,0,1,,,,,,,,,,,,,,,,,,,,,,,,,,,,,,,,,,,,,,,
,,,,,,,,2023-08-24_08h16.08.247,HF_wild_card,2022.2.4,Win32,60.04563468,607f441b91a96d298ca2d347,64e63663dbcaf322d2eec8da,64e7039a2e3784d32f5a4bb8,,,,,,,decisionTrl,resources/DBN.BMP,resources/DB.BMP,Door1,-0.27962963,-0.081481481,1,0,0,2.5585,optionLeft,30,7205,3,42,0,42,0,1,,,,,,,,,,,,,,,,,,,,,,,,,,,,,,,,,,,,,,,
,,,,,,,,2023-08-24_08h16.08.247,HF_wild_card,2022.2.4,Win32,60.04563468,607f441b91a96d298ca2d347,64e63663dbcaf322d2eec8da,64e7039a2e3784d32f5a4bb8,,,,,,,decisionTrl,resources/DG.BMP,resources/DY.BMP,Door4,0.186111111,-0.177777778,1,0,0,0.7777,optionRight,80,7285,3,43,0,43,0,1,,,,,,,,,,,,,,,,,,,,,,,,,,,,,,,,,,,,,,,
,,,,,,,,2023-08-24_08h16.08.247,HF_wild_card,2022.2.4,Win32,60.04563468,607f441b91a96d298ca2d347,64e63663dbcaf322d2eec8da,64e7039a2e3784d32f5a4bb8,,,,,,,,,,,,,,,,,,,,,,,,,,2,0,2,0,1,,,,,,,,,,,,,,,,,,,,,,,,,,,,,,,,,,
,,,,,,,,2023-08-24_08h16.08.247,HF_wild_card,2022.2.4,Win32,60.04563468,607f441b91a96d298ca2d347,64e63663dbcaf322d2eec8da,64e7039a2e3784d32f5a4bb8,,,,,,,decisionTrl,resources/DB.BMP,resources/DP.BMP,WildCard_Ex,0.202777778,-0.200925926,1,0,0,1.8253,optionRight,55,7340,4,0,0,0,0,1,,,,,,,,,,,,,,,,,,,,,,,,,,,,,,,,,,,,,,,
,,,,,,,,2023-08-24_08h16.08.247,HF_wild_card,2022.2.4,Win32,60.04563468,607f441b91a96d298ca2d347,64e63663dbcaf322d2eec8da,64e7039a2e3784d32f5a4bb8,,,,,,,decisionTrl,resources/DG.BMP,resources/DY.BMP,Door4,0.257407407,0.026851852,1,0,0,1.0267,optionRight,60,7400,4,1,0,1,0,1,,,,,,,,,,,,,,,,,,,,,,,,,,,,,,,,,,,,,,,
,,,,,,,,2023-08-24_08h16.08.247,HF_wild_card,2022.2.4,Win32,60.04563468,607f441b91a96d298ca2d347,64e63663dbcaf322d2eec8da,64e7039a2e3784d32f5a4bb8,,,,,,,decisionTrl,resources/DY.BMP,resources/DP.BMP,Door4,-0.188888889,-0.185185185,1,0,0,0.7609,optionLeft,60,7460,4,2,0,2,0,1,,,,,,,,,,,,,,,,,,,,,,,,,,,,,,,,,,,,,,,
,,,,,,,,2023-08-24_08h16.08.247,HF_wild_card,2022.2.4,Win32,60.04563468,607f441b91a96d298ca2d347,64e63663dbcaf322d2eec8da,64e7039a2e3784d32f5a4bb8,,,,,,,ctch,resources/DG.BMP,resources/DB.BMP,Door3,-0.153703704,-0.17962963,1,0,0,2.1598,optionLeft,70,7530,4,3,0,3,0,1,,,,,,,,,,,,,,,,,,,,,,,,,,,,,,,,,,,,,,,
,,,,,,,,2023-08-24_08h16.08.247,HF_wild_card,2022.2.4,Win32,60.04563468,607f441b91a96d298ca2d347,64e63663dbcaf322d2eec8da,64e7039a2e3784d32f5a4bb8,,,,,,,ctch,resources/DB.BMP,resources/DG.BMP,Door3,0.221296296,0.024074074,1,0,0,0.7561,optionRight,70,7600,4,4,0,4,0,1,,,,,,,,,,,,,,,,,,,,,,,,,,,,,,,,,,,,,,,
,,,,,,,,2023-08-24_08h16.08.247,HF_wild_card,2022.2.4,Win32,60.04563468,607f441b91a96d298ca2d347,64e63663dbcaf322d2eec8da,64e7039a2e3784d32f5a4bb8,,,,,,,decisionTrl,resources/DB.BMP,resources/DBN.BMP,Door2,-0.171296296,-0.164814815,1,0,0,1.1281,optionLeft,20,7620,4,5,0,5,0,1,,,,,,,,,,,,,,,,,,,,,,,,,,,,,,,,,,,,,,,
,,,,,,,,2023-08-24_08h16.08.247,HF_wild_card,2022.2.4,Win32,60.04563468,607f441b91a96d298ca2d347,64e63663dbcaf322d2eec8da,64e7039a2e3784d32f5a4bb8,,,,,,,sngl,resources/DBN.BMP,resources/Empty.png,Door1,-0.165740741,-0.192592593,1,0,0,0.7775,optionLeft,30,7650,4,6,0,6,0,1,,,,,,,,,,,,,,,,,,,,,,,,,,,,,,,,,,,,,,,
,,,,,,,,2023-08-24_08h16.08.247,HF_wild_card,2022.2.4,Win32,60.04563468,607f441b91a96d298ca2d347,64e63663dbcaf322d2eec8da,64e7039a2e3784d32f5a4bb8,,,,,,,ctch,resources/DY.BMP,resources/DBN.BMP,Door4,-0.183333333,-0.191666667,1,0,0,1.1942,optionLeft,80,7730,4,7,0,7,0,1,,,,,,,,,,,,,,,,,,,,,,,,,,,,,,,,,,,,,,,
,,,,,,,,2023-08-24_08h16.08.247,HF_wild_card,2022.2.4,Win32,60.04563468,607f441b91a96d298ca2d347,64e63663dbcaf322d2eec8da,64e7039a2e3784d32f5a4bb8,,,,,,,sngl,resources/Empty.png,resources/DY.BMP,Door4,0.196296296,0.016666667,1,0,0,0.5782,optionRight,80,7810,4,8,0,8,0,1,,,,,,,,,,,,,,,,,,,,,,,,,,,,,,,,,,,,,,,
,,,,,,,,2023-08-24_08h16.08.247,HF_wild_card,2022.2.4,Win32,60.04563468,607f441b91a96d298ca2d347,64e63663dbcaf322d2eec8da,64e7039a2e3784d32f5a4bb8,,,,,,,sngl,resources/DB.BMP,resources/Empty.png,Door2,-0.190740741,-0.182407407,1,0,0,0.7776,optionLeft,20,7830,4,9,0,9,0,1,,,,,,,,,,,,,,,,,,,,,,,,,,,,,,,,,,,,,,,
,,,,,,,,2023-08-24_08h16.08.247,HF_wild_card,2022.2.4,Win32,60.04563468,607f441b91a96d298ca2d347,64e63663dbcaf322d2eec8da,64e7039a2e3784d32f5a4bb8,,,,,,,sngl,resources/Empty.png,resources/DP.BMP,WildCard_Ex,0.214814815,-0.060185185,1,0,0,0.8108,optionRight,55,7885,4,10,0,10,0,1,,,,,,,,,,,,,,,,,,,,,,,,,,,,,,,,,,,,,,,
,,,,,,,,2023-08-24_08h16.08.247,HF_wild_card,2022.2.4,Win32,60.04563468,607f441b91a96d298ca2d347,64e63663dbcaf322d2eec8da,64e7039a2e3784d32f5a4bb8,,,,,,,ctch,resources/DY.BMP,resources/DBN.BMP,Door4,-0.144444444,-0.176851852,1,0,0,1.5546,optionLeft,60,7945,4,11,0,11,0,1,,,,,,,,,,,,,,,,,,,,,,,,,,,,,,,,,,,,,,,
,,,,,,,,2023-08-24_08h16.08.247,HF_wild_card,2022.2.4,Win32,60.04563468,607f441b91a96d298ca2d347,64e63663dbcaf322d2eec8da,64e7039a2e3784d32f5a4bb8,,,,,,,decisionTrl,resources/DBN.BMP,resources/DB.BMP,Door1,-0.219444444,-0.188888889,1,0,0,1.4101,optionLeft,30,7975,4,12,0,12,0,1,,,,,,,,,,,,,,,,,,,,,,,,,,,,,,,,,,,,,,,
,,,,,,,,2023-08-24_08h16.08.247,HF_wild_card,2022.2.4,Win32,60.04563468,607f441b91a96d298ca2d347,64e63663dbcaf322d2eec8da,64e7039a2e3784d32f5a4bb8,,,,,,,decisionTrl,resources/DG.BMP,resources/DP.BMP,Door3,-0.17962963,-0.162962963,1,0,0,1.4063,optionLeft,70,8045,4,13,0,13,0,1,,,,,,,,,,,,,,,,,,,,,,,,,,,,,,,,,,,,,,,
,,,,,,,,2023-08-24_08h16.08.247,HF_wild_card,2022.2.4,Win32,60.04563468,607f441b91a96d298ca2d347,64e63663dbcaf322d2eec8da,64e7039a2e3784d32f5a4bb8,,,,,,,decisionTrl,resources/DBN.BMP,resources/DB.BMP,Door1,-0.159259259,-0.149074074,1,0,0,2.5757,optionLeft,30,8075,4,14,0,14,0,1,,,,,,,,,,,,,,,,,,,,,,,,,,,,,,,,,,,,,,,
,,,,,,,,2023-08-24_08h16.08.247,HF_wild_card,2022.2.4,Win32,60.04563468,607f441b91a96d298ca2d347,64e63663dbcaf322d2eec8da,64e7039a2e3784d32f5a4bb8,,,,,,,decisionTrl,resources/DG.BMP,resources/DY.BMP,Door4,0.233333333,0.053703704,1,0,0,1.3771,optionRight,60,8135,4,15,0,15,0,1,,,,,,,,,,,,,,,,,,,,,,,,,,,,,,,,,,,,,,,
,,,,,,,,2023-08-24_08h16.08.247,HF_wild_card,2022.2.4,Win32,60.04563468,607f441b91a96d298ca2d347,64e63663dbcaf322d2eec8da,64e7039a2e3784d32f5a4bb8,,,,,,,sngl,resources/DP.BMP,resources/Empty.png,WildCard_Ex,-0.188888889,-0.161111111,1,0,0,0.8107,optionLeft,45,8180,4,16,0,16,0,1,,,,,,,,,,,,,,,,,,,,,,,,,,,,,,,,,,,,,,,
,,,,,,,,2023-08-24_08h16.08.247,HF_wild_card,2022.2.4,Win32,60.04563468,607f441b91a96d298ca2d347,64e63663dbcaf322d2eec8da,64e7039a2e3784d32f5a4bb8,,,,,,,decisionTrl,resources/DP.BMP,resources/DB.BMP,WildCard_Ex,-0.206481481,-0.196296296,1,0,0,0.7443,optionLeft,55,8235,4,17,0,17,0,1,,,,,,,,,,,,,,,,,,,,,,,,,,,,,,,,,,,,,,,
,,,,,,,,2023-08-24_08h16.08.247,HF_wild_card,2022.2.4,Win32,60.04563468,607f441b91a96d298ca2d347,64e63663dbcaf322d2eec8da,64e7039a2e3784d32f5a4bb8,,,,,,,decisionTrl,resources/DB.BMP,resources/DBN.BMP,Door1,0.210185185,0.068518519,1,0,0,1.2278,optionRight,30,8265,4,18,0,18,0,1,,,,,,,,,,,,,,,,,,,,,,,,,,,,,,,,,,,,,,,
,,,,,,,,2023-08-24_08h16.08.247,HF_wild_card,2022.2.4,Win32,60.04563468,607f441b91a96d298ca2d347,64e63663dbcaf322d2eec8da,64e7039a2e3784d32f5a4bb8,,,,,,,decisionTrl,resources/DBN.BMP,resources/DB.BMP,Door1,-0.202777778,-0.188888889,1,0,0,0.9112,optionLeft,30,8295,4,19,0,19,0,1,,,,,,,,,,,,,,,,,,,,,,,,,,,,,,,,,,,,,,,
,,,,,,,,2023-08-24_08h16.08.247,HF_wild_card,2022.2.4,Win32,60.04563468,607f441b91a96d298ca2d347,64e63663dbcaf322d2eec8da,64e7039a2e3784d32f5a4bb8,,,,,,,sngl,resources/DY.BMP,resources/Empty.png,Door4,-0.203703704,-0.187037037,1,0,0,0.6614,optionLeft,60,8355,4,20,0,20,0,1,,,,,,,,,,,,,,,,,,,,,,,,,,,,,,,,,,,,,,,
,,,,,,,,2023-08-24_08h16.08.247,HF_wild_card,2022.2.4,Win32,60.04563468,607f441b91a96d298ca2d347,64e63663dbcaf322d2eec8da,64e7039a2e3784d32f5a4bb8,,,,,,,sngl,resources/Empty.png,resources/DP.BMP,WildCard_Ex,0.235185185,-0.160185185,1,0,0,0.7615,optionRight,45,8400,4,21,0,21,0,1,,,,,,,,,,,,,,,,,,,,,,,,,,,,,,,,,,,,,,,
,,,,,,,,2023-08-24_08h16.08.247,HF_wild_card,2022.2.4,Win32,60.04563468,607f441b91a96d298ca2d347,64e63663dbcaf322d2eec8da,64e7039a2e3784d32f5a4bb8,,,,,,,sngl,resources/Empty.png,resources/DBN.BMP,Door1,0.167592593,-0.142592593,1,0,0,0.7611,optionRight,30,8430,4,22,0,22,0,1,,,,,,,,,,,,,,,,,,,,,,,,,,,,,,,,,,,,,,,
,,,,,,,,2023-08-24_08h16.08.247,HF_wild_card,2022.2.4,Win32,60.04563468,607f441b91a96d298ca2d347,64e63663dbcaf322d2eec8da,64e7039a2e3784d32f5a4bb8,,,,,,,sngl,resources/Empty.png,resources/DG.BMP,Door3,0.189814815,-0.128703704,1,0,0,0.8442,optionRight,70,8500,4,23,0,23,0,1,,,,,,,,,,,,,,,,,,,,,,,,,,,,,,,,,,,,,,,
,,,,,,,,2023-08-24_08h16.08.247,HF_wild_card,2022.2.4,Win32,60.04563468,607f441b91a96d298ca2d347,64e63663dbcaf322d2eec8da,64e7039a2e3784d32f5a4bb8,,,,,,,decisionTrl,resources/DP.BMP,resources/DY.BMP,Door4,0.078703704,-0.123148148,1,0,0,0.6449,optionRight,80,8580,4,24,0,24,0,1,,,,,,,,,,,,,,,,,,,,,,,,,,,,,,,,,,,,,,,
,,,,,,,,2023-08-24_08h16.08.247,HF_wild_card,2022.2.4,Win32,60.04563468,607f441b91a96d298ca2d347,64e63663dbcaf322d2eec8da,64e7039a2e3784d32f5a4bb8,,,,,,,decisionTrl,resources/DG.BMP,resources/DY.BMP,Door4,0.203703704,-0.160185185,1,0,0,0.5553,optionRight,80,8660,4,25,0,25,0,1,,,,,,,,,,,,,,,,,,,,,,,,,,,,,,,,,,,,,,,
,,,,,,,,2023-08-24_08h16.08.247,HF_wild_card,2022.2.4,Win32,60.04563468,607f441b91a96d298ca2d347,64e63663dbcaf322d2eec8da,64e7039a2e3784d32f5a4bb8,,,,,,,sngl,resources/Empty.png,resources/DB.BMP,Door2,0.181481481,-0.169444444,1,0,0,0.6941,optionRight,40,8700,4,26,0,26,0,1,,,,,,,,,,,,,,,,,,,,,,,,,,,,,,,,,,,,,,,
,,,,,,,,2023-08-24_08h16.08.247,HF_wild_card,2022.2.4,Win32,60.04563468,607f441b91a96d298ca2d347,64e63663dbcaf322d2eec8da,64e7039a2e3784d32f5a4bb8,,,,,,,decisionTrl,resources/DB.BMP,resources/DBN.BMP,Door1,0.185185185,-0.142592593,1,0,0,1.2447,optionRight,30,8730,4,27,0,27,0,1,,,,,,,,,,,,,,,,,,,,,,,,,,,,,,,,,,,,,,,
,,,,,,,,2023-08-24_08h16.08.247,HF_wild_card,2022.2.4,Win32,60.04563468,607f441b91a96d298ca2d347,64e63663dbcaf322d2eec8da,64e7039a2e3784d32f5a4bb8,,,,,,,decisionTrl,resources/DP.BMP,resources/DBN.BMP,WildCard_Ex,-0.238888889,0.024074074,1,0,0,1.1712,optionLeft,55,8785,4,28,0,28,0,1,,,,,,,,,,,,,,,,,,,,,,,,,,,,,,,,,,,,,,,
,,,,,,,,2023-08-24_08h16.08.247,HF_wild_card,2022.2.4,Win32,60.04563468,607f441b91a96d298ca2d347,64e63663dbcaf322d2eec8da,64e7039a2e3784d32f5a4bb8,,,,,,,ctch,resources/DG.BMP,resources/DB.BMP,Door3,-0.237962963,0.018518519,1,0,0,1.4225,optionLeft,70,8855,4,29,0,29,0,1,,,,,,,,,,,,,,,,,,,,,,,,,,,,,,,,,,,,,,,
,,,,,,,,2023-08-24_08h16.08.247,HF_wild_card,2022.2.4,Win32,60.04563468,607f441b91a96d298ca2d347,64e63663dbcaf322d2eec8da,64e7039a2e3784d32f5a4bb8,,,,,,,decisionTrl,resources/DY.BMP,resources/DG.BMP,Door4,-0.263888889,0.025,1,0,0,1.1443,optionLeft,80,8935,4,30,0,30,0,1,,,,,,,,,,,,,,,,,,,,,,,,,,,,,,,,,,,,,,,
,,,,,,,,2023-08-24_08h16.08.247,HF_wild_card,2022.2.4,Win32,60.04563468,607f441b91a96d298ca2d347,64e63663dbcaf322d2eec8da,64e7039a2e3784d32f5a4bb8,,,,,,,sngl,resources/DP.BMP,resources/Empty.png,WildCard_Ex,-0.22037037,-0.024074074,1,0,0,0.8441,optionLeft,55,8990,4,31,0,31,0,1,,,,,,,,,,,,,,,,,,,,,,,,,,,,,,,,,,,,,,,
,,,,,,,,2023-08-24_08h16.08.247,HF_wild_card,2022.2.4,Win32,60.04563468,607f441b91a96d298ca2d347,64e63663dbcaf322d2eec8da,64e7039a2e3784d32f5a4bb8,,,,,,,decisionTrl,resources/DY.BMP,resources/DG.BMP,Door4,-0.259259259,-0.125,1,0,0,0.9614,optionLeft,80,9070,4,32,0,32,0,1,,,,,,,,,,,,,,,,,,,,,,,,,,,,,,,,,,,,,,,
,,,,,,,,2023-08-24_08h16.08.247,HF_wild_card,2022.2.4,Win32,60.04563468,607f441b91a96d298ca2d347,64e63663dbcaf322d2eec8da,64e7039a2e3784d32f5a4bb8,,,,,,,ctch,resources/DBN.BMP,resources/DY.BMP,Door4,0.206481481,-0.033333333,1,0,0,0.7608,optionRight,60,9130,4,33,0,33,0,1,,,,,,,,,,,,,,,,,,,,,,,,,,,,,,,,,,,,,,,
,,,,,,,,2023-08-24_08h16.08.247,HF_wild_card,2022.2.4,Win32,60.04563468,607f441b91a96d298ca2d347,64e63663dbcaf322d2eec8da,64e7039a2e3784d32f5a4bb8,,,,,,,decisionTrl,resources/DY.BMP,resources/DG.BMP,Door4,-0.176851852,-0.164814815,1,0,0,0.6949,optionLeft,60,9190,4,34,0,34,0,1,,,,,,,,,,,,,,,,,,,,,,,,,,,,,,,,,,,,,,,
,,,,,,,,2023-08-24_08h16.08.247,HF_wild_card,2022.2.4,Win32,60.04563468,607f441b91a96d298ca2d347,64e63663dbcaf322d2eec8da,64e7039a2e3784d32f5a4bb8,,,,,,,decisionTrl,resources/DY.BMP,resources/DG.BMP,Door4,-0.19537037,-0.177777778,1,0,0,0.8111,optionLeft,60,9250,4,35,0,35,0,1,,,,,,,,,,,,,,,,,,,,,,,,,,,,,,,,,,,,,,,
,,,,,,,,2023-08-24_08h16.08.247,HF_wild_card,2022.2.4,Win32,60.04563468,607f441b91a96d298ca2d347,64e63663dbcaf322d2eec8da,64e7039a2e3784d32f5a4bb8,,,,,,,decisionTrl,resources/DP.BMP,resources/DG.BMP,Door3,0.22962963,0.021296296,1,0,0,1.4778,optionRight,70,9320,4,36,0,36,0,1,,,,,,,,,,,,,,,,,,,,,,,,,,,,,,,,,,,,,,,
,,,,,,,,2023-08-24_08h16.08.247,HF_wild_card,2022.2.4,Win32,60.04563468,607f441b91a96d298ca2d347,64e63663dbcaf322d2eec8da,64e7039a2e3784d32f5a4bb8,,,,,,,ctch,resources/DBN.BMP,resources/DY.BMP,Door4,0.225,0.019444444,1,0,0,0.9773,optionRight,60,9380,4,37,0,37,0,1,,,,,,,,,,,,,,,,,,,,,,,,,,,,,,,,,,,,,,,
,,,,,,,,2023-08-24_08h16.08.247,HF_wild_card,2022.2.4,Win32,60.04563468,607f441b91a96d298ca2d347,64e63663dbcaf322d2eec8da,64e7039a2e3784d32f5a4bb8,,,,,,,decisionTrl,resources/DBN.BMP,resources/DP.BMP,WildCard_Ex,0.238888889,0.044444444,1,0,0,1.3272,optionRight,55,9435,4,38,0,38,0,1,,,,,,,,,,,,,,,,,,,,,,,,,,,,,,,,,,,,,,,
,,,,,,,,2023-08-24_08h16.08.247,HF_wild_card,2022.2.4,Win32,60.04563468,607f441b91a96d298ca2d347,64e63663dbcaf322d2eec8da,64e7039a2e3784d32f5a4bb8,,,,,,,ctch,resources/DB.BMP,resources/DG.BMP,Door3,0.210185185,0.022222222,1,0,0,0.8098,optionRight,70,9505,4,39,0,39,0,1,,,,,,,,,,,,,,,,,,,,,,,,,,,,,,,,,,,,,,,
,,,,,,,,2023-08-24_08h16.08.247,HF_wild_card,2022.2.4,Win32,60.04563468,607f441b91a96d298ca2d347,64e63663dbcaf322d2eec8da,64e7039a2e3784d32f5a4bb8,,,,,,,sngl,resources/DG.BMP,resources/Empty.png,Door3,-0.189814815,-0.171296296,1,0,0,0.6115,optionLeft,70,9575,4,40,0,40,0,1,,,,,,,,,,,,,,,,,,,,,,,,,,,,,,,,,,,,,,,
,,,,,,,,2023-08-24_08h16.08.247,HF_wild_card,2022.2.4,Win32,60.04563468,607f441b91a96d298ca2d347,64e63663dbcaf322d2eec8da,64e7039a2e3784d32f5a4bb8,,,,,,,decisionTrl,resources/DG.BMP,resources/DY.BMP,Door4,0.182407407,-0.15,1,0,0,0.836,optionRight,60,9635,4,41,0,41,0,1,,,,,,,,,,,,,,,,,,,,,,,,,,,,,,,,,,,,,,,
,,,,,,,,2023-08-24_08h16.08.247,HF_wild_card,2022.2.4,Win32,60.04563468,607f441b91a96d298ca2d347,64e63663dbcaf322d2eec8da,64e7039a2e3784d32f5a4bb8,,,,,,,decisionTrl,resources/DBN.BMP,resources/DB.BMP,Door1,-0.302777778,-0.003703704,1,0,0,1.8885,optionLeft,30,9665,4,42,0,42,0,1,,,,,,,,,,,,,,,,,,,,,,,,,,,,,,,,,,,,,,,
,,,,,,,,2023-08-24_08h16.08.247,HF_wild_card,2022.2.4,Win32,60.04563468,607f441b91a96d298ca2d347,64e63663dbcaf322d2eec8da,64e7039a2e3784d32f5a4bb8,,,,,,,decisionTrl,resources/DB.BMP,resources/DBN.BMP,Door2,-0.205555556,-0.07037037,1,0,0,1.3612,optionLeft,20,9685,4,43,0,43,0,1,,,,,,,,,,,,,,,,,,,,,,,,,,,,,,,,,,,,,,,
,,,,,,,,2023-08-24_08h16.08.247,HF_wild_card,2022.2.4,Win32,60.04563468,607f441b91a96d298ca2d347,64e63663dbcaf322d2eec8da,64e7039a2e3784d32f5a4bb8,,,,,,,,,,,,,,,,,,,,,,,,,,3,0,3,0,1,,,,,,,,,,,,,,,,,,,,,,,,,,,,,,,,,,
,,,,,,,,2023-08-24_08h16.08.247,HF_wild_card,2022.2.4,Win32,60.04563468,607f441b91a96d298ca2d347,64e63663dbcaf322d2eec8da,64e7039a2e3784d32f5a4bb8,,,,,,,sngl,resources/Empty.png,resources/DBN.BMP,Door1,0.156481481,-0.223148148,1,0,0,0.9764,optionRight,30,9715,5,0,0,0,0,1,,,,,,,,,,,,,,,,,,,,,,,,,,,,,,,,,,,,,,,
,,,,,,,,2023-08-24_08h16.08.247,HF_wild_card,2022.2.4,Win32,60.04563468,607f441b91a96d298ca2d347,64e63663dbcaf322d2eec8da,64e7039a2e3784d32f5a4bb8,,,,,,,decisionTrl,resources/DP.BMP,resources/DB.BMP,WildCard_Ex,-0.237962963,-0.050925926,1,0,0,0.9111,optionLeft,45,9760,5,1,0,1,0,1,,,,,,,,,,,,,,,,,,,,,,,,,,,,,,,,,,,,,,,
,,,,,,,,2023-08-24_08h16.08.247,HF_wild_card,2022.2.4,Win32,60.04563468,607f441b91a96d298ca2d347,64e63663dbcaf322d2eec8da,64e7039a2e3784d32f5a4bb8,,,,,,,decisionTrl,resources/DB.BMP,resources/DP.BMP,WildCard_Ex,0.181481481,-0.174074074,1,0,0,1.3936,optionRight,45,9805,5,2,0,2,0,1,,,,,,,,,,,,,,,,,,,,,,,,,,,,,,,,,,,,,,,
,,,,,,,,2023-08-24_08h16.08.247,HF_wild_card,2022.2.4,Win32,60.04563468,607f441b91a96d298ca2d347,64e63663dbcaf322d2eec8da,64e7039a2e3784d32f5a4bb8,,,,,,,ctch,resources/DB.BMP,resources/DG.BMP,Door3,0.172222222,-0.173148148,1,0,0,0.7946,optionRight,70,9875,5,3,0,3,0,1,,,,,,,,,,,,,,,,,,,,,,,,,,,,,,,,,,,,,,,
,,,,,,,,2023-08-24_08h16.08.247,HF_wild_card,2022.2.4,Win32,60.04563468,607f441b91a96d298ca2d347,64e63663dbcaf322d2eec8da,64e7039a2e3784d32f5a4bb8,,,,,,,decisionTrl,resources/DBN.BMP,resources/DB.BMP,Door1,-0.218518519,0.016666667,1,0,0,1.81,optionLeft,30,9905,5,4,0,4,0,1,,,,,,,,,,,,,,,,,,,,,,,,,,,,,,,,,,,,,,,
,,,,,,,,2023-08-24_08h16.08.247,HF_wild_card,2022.2.4,Win32,60.04563468,607f441b91a96d298ca2d347,64e63663dbcaf322d2eec8da,64e7039a2e3784d32f5a4bb8,,,,,,,ctch,resources/DG.BMP,resources/DB.BMP,Door3,-0.257407407,-0.014814815,1,0,0,0.7531,optionLeft,70,9975,5,5,0,5,0,1,,,,,,,,,,,,,,,,,,,,,,,,,,,,,,,,,,,,,,,
,,,,,,,,2023-08-24_08h16.08.247,HF_wild_card,2022.2.4,Win32,60.04563468,607f441b91a96d298ca2d347,64e63663dbcaf322d2eec8da,64e7039a2e3784d32f5a4bb8,,,,,,,sngl,resources/DG.BMP,resources/Empty.png,Door3,-0.230555556,-0.016666667,1,0,0,0.7104,optionLeft,70,10045,5,6,0,6,0,1,,,,,,,,,,,,,,,,,,,,,,,,,,,,,,,,,,,,,,,
,,,,,,,,2023-08-24_08h16.08.247,HF_wild_card,2022.2.4,Win32,60.04563468,607f441b91a96d298ca2d347,64e63663dbcaf322d2eec8da,64e7039a2e3784d32f5a4bb8,,,,,,,sngl,resources/DB.BMP,resources/Empty.png,Door2,-0.212037037,-0.021296296,1,0,0,1.0275,optionLeft,40,10085,5,7,0,7,0,1,,,,,,,,,,,,,,,,,,,,,,,,,,,,,,,,,,,,,,,
,,,,,,,,2023-08-24_08h16.08.247,HF_wild_card,2022.2.4,Win32,60.04563468,607f441b91a96d298ca2d347,64e63663dbcaf322d2eec8da,64e7039a2e3784d32f5a4bb8,,,,,,,decisionTrl,resources/DY.BMP,resources/DG.BMP,Door4,-0.257407407,-0.010185185,1,0,0,1.1476,optionLeft,60,10145,5,8,0,8,0,1,,,,,,,,,,,,,,,,,,,,,,,,,,,,,,,,,,,,,,,
,,,,,,,,2023-08-24_08h16.08.247,HF_wild_card,2022.2.4,Win32,60.04563468,607f441b91a96d298ca2d347,64e63663dbcaf322d2eec8da,64e7039a2e3784d32f5a4bb8,,,,,,,decisionTrl,resources/DB.BMP,resources/DBN.BMP,Door1,0.178703704,-0.175,1,0,0,1.7432,optionRight,30,10175,5,9,0,9,0,1,,,,,,,,,,,,,,,,,,,,,,,,,,,,,,,,,,,,,,,
,,,,,,,,2023-08-24_08h16.08.247,HF_wild_card,2022.2.4,Win32,60.04563468,607f441b91a96d298ca2d347,64e63663dbcaf322d2eec8da,64e7039a2e3784d32f5a4bb8,,,,,,,decisionTrl,resources/DG.BMP,resources/DY.BMP,Door3,-0.242592593,-0.014814815,1,0,0,1.2104,optionLeft,70,10245,5,10,0,10,0,1,,,,,,,,,,,,,,,,,,,,,,,,,,,,,,,,,,,,,,,
,,,,,,,,2023-08-24_08h16.08.247,HF_wild_card,2022.2.4,Win32,60.04563468,607f441b91a96d298ca2d347,64e63663dbcaf322d2eec8da,64e7039a2e3784d32f5a4bb8,,,,,,,sngl,resources/DP.BMP,resources/Empty.png,WildCard_Ex,-0.191666667,-0.040740741,1,0,0,1.8766,optionLeft,55,10300,5,11,0,11,0,1,,,,,,,,,,,,,,,,,,,,,,,,,,,,,,,,,,,,,,,
,,,,,,,,2023-08-24_08h16.08.247,HF_wild_card,2022.2.4,Win32,60.04563468,607f441b91a96d298ca2d347,64e63663dbcaf322d2eec8da,64e7039a2e3784d32f5a4bb8,,,,,,,decisionTrl,resources/DP.BMP,resources/DY.BMP,Door4,0.293518519,-0.007407407,1,0,0,1.4948,optionRight,80,10380,5,12,0,12,0,1,,,,,,,,,,,,,,,,,,,,,,,,,,,,,,,,,,,,,,,
,,,,,,,,2023-08-24_08h16.08.247,HF_wild_card,2022.2.4,Win32,60.04563468,607f441b91a96d298ca2d347,64e63663dbcaf322d2eec8da,64e7039a2e3784d32f5a4bb8,,,,,,,decisionTrl,resources/DB.BMP,resources/DBN.BMP,Door1,0.226851852,-0.05,1,0,0,1.4942,optionRight,30,10410,5,13,0,13,0,1,,,,,,,,,,,,,,,,,,,,,,,,,,,,,,,,,,,,,,,
,,,,,,,,2023-08-24_08h16.08.247,HF_wild_card,2022.2.4,Win32,60.04563468,607f441b91a96d298ca2d347,64e63663dbcaf322d2eec8da,64e7039a2e3784d32f5a4bb8,,,,,,,ctch,resources/DY.BMP,resources/DBN.BMP,Door4,-0.192592593,-0.166666667,1,0,0,0.9444,optionLeft,80,10490,5,14,0,14,0,1,,,,,,,,,,,,,,,,,,,,,,,,,,,,,,,,,,,,,,,
,,,,,,,,2023-08-24_08h16.08.247,HF_wild_card,2022.2.4,Win32,60.04563468,607f441b91a96d298ca2d347,64e63663dbcaf322d2eec8da,64e7039a2e3784d32f5a4bb8,,,,,,,sngl,resources/Empty.png,resources/DP.BMP,WildCard_Ex,0.17962963,-0.022222222,1,0,0,0.7113,optionRight,45,10535,5,15,0,15,0,1,,,,,,,,,,,,,,,,,,,,,,,,,,,,,,,,,,,,,,,
,,,,,,,,2023-08-24_08h16.08.247,HF_wild_card,2022.2.4,Win32,60.04563468,607f441b91a96d298ca2d347,64e63663dbcaf322d2eec8da,64e7039a2e3784d32f5a4bb8,,,,,,,decisionTrl,resources/DG.BMP,resources/DY.BMP,Door4,0.313888889,-0.010185185,1,0,0,0.7283,optionRight,80,10615,5,16,0,16,0,1,,,,,,,,,,,,,,,,,,,,,,,,,,,,,,,,,,,,,,,
,,,,,,,,2023-08-24_08h16.08.247,HF_wild_card,2022.2.4,Win32,60.04563468,607f441b91a96d298ca2d347,64e63663dbcaf322d2eec8da,64e7039a2e3784d32f5a4bb8,,,,,,,decisionTrl,resources/DY.BMP,resources/DG.BMP,Door3,0.25,-0.058333333,1,0,0,1.4722,optionRight,70,10685,5,17,0,17,0,1,,,,,,,,,,,,,,,,,,,,,,,,,,,,,,,,,,,,,,,
,,,,,,,,2023-08-24_08h16.08.247,HF_wild_card,2022.2.4,Win32,60.04563468,607f441b91a96d298ca2d347,64e63663dbcaf322d2eec8da,64e7039a2e3784d32f5a4bb8,,,,,,,decisionTrl,resources/DB.BMP,resources/DBN.BMP,Door1,0.277777778,0.048148148,1,0,0,1.7106,optionRight,30,10715,5,18,0,18,0,1,,,,,,,,,,,,,,,,,,,,,,,,,,,,,,,,,,,,,,,
,,,,,,,,2023-08-24_08h16.08.247,HF_wild_card,2022.2.4,Win32,60.04563468,607f441b91a96d298ca2d347,64e63663dbcaf322d2eec8da,64e7039a2e3784d32f5a4bb8,,,,,,,sngl,resources/Empty.png,resources/DG.BMP,Door3,0.225,-0.034259259,1,0,0,0.6947,optionRight,70,10785,5,19,0,19,0,1,,,,,,,,,,,,,,,,,,,,,,,,,,,,,,,,,,,,,,,
,,,,,,,,2023-08-24_08h16.08.247,HF_wild_card,2022.2.4,Win32,60.04563468,607f441b91a96d298ca2d347,64e63663dbcaf322d2eec8da,64e7039a2e3784d32f5a4bb8,,,,,,,sngl,resources/DY.BMP,resources/Empty.png,Door4,-0.163888889,-0.15,1,0,0,0.7777,optionLeft,80,10865,5,20,0,20,0,1,,,,,,,,,,,,,,,,,,,,,,,,,,,,,,,,,,,,,,,
,,,,,,,,2023-08-24_08h16.08.247,HF_wild_card,2022.2.4,Win32,60.04563468,607f441b91a96d298ca2d347,64e63663dbcaf322d2eec8da,64e7039a2e3784d32f5a4bb8,,,,,,,decisionTrl,resources/DP.BMP,resources/DG.BMP,Door3,0.199074074,-0.024074074,1,0,0,1.4769,optionRight,70,10935,5,21,0,21,0,1,,,,,,,,,,,,,,,,,,,,,,,,,,,,,,,,,,,,,,,
,,,,,,,,2023-08-24_08h16.08.247,HF_wild_card,2022.2.4,Win32,60.04563468,607f441b91a96d298ca2d347,64e63663dbcaf322d2eec8da,64e7039a2e3784d32f5a4bb8,,,,,,,decisionTrl,resources/DBN.BMP,resources/DB.BMP,Door1,-0.147222222,-0.173148148,1,0,0,1.1777,optionLeft,30,10965,5,22,0,22,0,1,,,,,,,,,,,,,,,,,,,,,,,,,,,,,,,,,,,,,,,
,,,,,,,,2023-08-24_08h16.08.247,HF_wild_card,2022.2.4,Win32,60.04563468,607f441b91a96d298ca2d347,64e63663dbcaf322d2eec8da,64e7039a2e3784d32f5a4bb8,,,,,,,decisionTrl,resources/DBN.BMP,resources/DB.BMP,Door1,-0.151851852,-0.164814815,1,0,0,2.177,optionLeft,30,10995,5,23,0,23,0,1,,,,,,,,,,,,,,,,,,,,,,,,,,,,,,,,,,,,,,,
,,,,,,,,2023-08-24_08h16.08.247,HF_wild_card,2022.2.4,Win32,60.04563468,607f441b91a96d298ca2d347,64e63663dbcaf322d2eec8da,64e7039a2e3784d32f5a4bb8,,,,,,,decisionTrl,resources/DBN.BMP,resources/DB.BMP,Door1,-0.296296296,-0.047222222,1,0,0,1.4374,optionLeft,30,11025,5,24,0,24,0,1,,,,,,,,,,,,,,,,,,,,,,,,,,,,,,,,,,,,,,,
,,,,,,,,2023-08-24_08h16.08.247,HF_wild_card,2022.2.4,Win32,60.04563468,607f441b91a96d298ca2d347,64e63663dbcaf322d2eec8da,64e7039a2e3784d32f5a4bb8,,,,,,,sngl,resources/Empty.png,resources/DP.BMP,WildCard_Ex,0.214814815,-0.163888889,1,0,0,1.4056,optionRight,55,11080,5,25,0,25,0,1,,,,,,,,,,,,,,,,,,,,,,,,,,,,,,,,,,,,,,,
,,,,,,,,2023-08-24_08h16.08.247,HF_wild_card,2022.2.4,Win32,60.04563468,607f441b91a96d298ca2d347,64e63663dbcaf322d2eec8da,64e7039a2e3784d32f5a4bb8,,,,,,,decisionTrl,resources/DP.BMP,resources/DBN.BMP,WildCard_Ex,-0.232407407,-0.017592593,1,0,0,0.9443,optionLeft,45,11125,5,26,0,26,0,1,,,,,,,,,,,,,,,,,,,,,,,,,,,,,,,,,,,,,,,
,,,,,,,,2023-08-24_08h16.08.247,HF_wild_card,2022.2.4,Win32,60.04563468,607f441b91a96d298ca2d347,64e63663dbcaf322d2eec8da,64e7039a2e3784d32f5a4bb8,,,,,,,ctch,resources/DBN.BMP,resources/DY.BMP,Door4,0.20462963,-0.118518519,1,0,0,0.7446,optionRight,80,11205,5,27,0,27,0,1,,,,,,,,,,,,,,,,,,,,,,,,,,,,,,,,,,,,,,,
,,,,,,,,2023-08-24_08h16.08.247,HF_wild_card,2022.2.4,Win32,60.04563468,607f441b91a96d298ca2d347,64e63663dbcaf322d2eec8da,64e7039a2e3784d32f5a4bb8,,,,,,,decisionTrl,resources/DY.BMP,resources/DG.BMP,Door4,-0.243518519,0.062962963,1,0,0,0.6277,optionLeft,60,11265,5,28,0,28,0,1,,,,,,,,,,,,,,,,,,,,,,,,,,,,,,,,,,,,,,,
,,,,,,,,2023-08-24_08h16.08.247,HF_wild_card,2022.2.4,Win32,60.04563468,607f441b91a96d298ca2d347,64e63663dbcaf322d2eec8da,64e7039a2e3784d32f5a4bb8,,,,,,,ctch,resources/DBN.BMP,resources/DY.BMP,Door4,0.193518519,-0.123148148,1,0,0,0.7777,optionRight,80,11345,5,29,0,29,0,1,,,,,,,,,,,,,,,,,,,,,,,,,,,,,,,,,,,,,,,
,,,,,,,,2023-08-24_08h16.08.247,HF_wild_card,2022.2.4,Win32,60.04563468,607f441b91a96d298ca2d347,64e63663dbcaf322d2eec8da,64e7039a2e3784d32f5a4bb8,,,,,,,decisionTrl,resources/DY.BMP,resources/DP.BMP,Door4,-0.201851852,0.017592593,1,0,0,0.6774,optionLeft,60,11405,5,30,0,30,0,1,,,,,,,,,,,,,,,,,,,,,,,,,,,,,,,,,,,,,,,
,,,,,,,,2023-08-24_08h16.08.247,HF_wild_card,2022.2.4,Win32,60.04563468,607f441b91a96d298ca2d347,64e63663dbcaf322d2eec8da,64e7039a2e3784d32f5a4bb8,,,,,,,sngl,resources/DP.BMP,resources/Empty.png,WildCard_Ex,-0.165740741,0.022222222,1,0,0,0.7129,optionLeft,45,11450,5,31,0,31,0,1,,,,,,,,,,,,,,,,,,,,,,,,,,,,,,,,,,,,,,,
,,,,,,,,2023-08-24_08h16.08.247,HF_wild_card,2022.2.4,Win32,60.04563468,607f441b91a96d298ca2d347,64e63663dbcaf322d2eec8da,64e7039a2e3784d32f5a4bb8,,,,,,,decisionTrl,resources/DG.BMP,resources/DY.BMP,Door3,-0.20462963,0.022222222,1,0,0,1.0606,optionLeft,70,11520,5,32,0,32,0,1,,,,,,,,,,,,,,,,,,,,,,,,,,,,,,,,,,,,,,,
,,,,,,,,2023-08-24_08h16.08.247,HF_wild_card,2022.2.4,Win32,60.04563468,607f441b91a96d298ca2d347,64e63663dbcaf322d2eec8da,64e7039a2e3784d32f5a4bb8,,,,,,,ctch,resources/DB.BMP,resources/DG.BMP,Door3,0.256481481,-0.068518519,1,0,0,0.9276,optionRight,70,11590,5,33,0,33,0,1,,,,,,,,,,,,,,,,,,,,,,,,,,,,,,,,,,,,,,,
,,,,,,,,2023-08-24_08h16.08.247,HF_wild_card,2022.2.4,Win32,60.04563468,607f441b91a96d298ca2d347,64e63663dbcaf322d2eec8da,64e7039a2e3784d32f5a4bb8,,,,,,,sngl,resources/Empty.png,resources/DB.BMP,Door2,0.171296296,-0.117592593,1,0,0,3.7744,optionRight,20,11610,5,34,0,34,0,1,,,,,,,,,,,,,,,,,,,,,,,,,,,,,,,,,,,,,,,
,,,,,,,,2023-08-24_08h16.08.247,HF_wild_card,2022.2.4,Win32,60.04563468,607f441b91a96d298ca2d347,64e63663dbcaf322d2eec8da,64e7039a2e3784d32f5a4bb8,,,,,,,decisionTrl,resources/DG.BMP,resources/DY.BMP,Door4,0.200925926,-0.051851852,1,0,0,3.1087,optionRight,60,11670,5,35,0,35,0,1,,,,,,,,,,,,,,,,,,,,,,,,,,,,,,,,,,,,,,,
,,,,,,,,2023-08-24_08h16.08.247,HF_wild_card,2022.2.4,Win32,60.04563468,607f441b91a96d298ca2d347,64e63663dbcaf322d2eec8da,64e7039a2e3784d32f5a4bb8,,,,,,,sngl,resources/Empty.png,resources/DY.BMP,Door4,0.159259259,-0.04537037,1,0,0,0.7118,optionRight,60,11730,5,36,0,36,0,1,,,,,,,,,,,,,,,,,,,,,,,,,,,,,,,,,,,,,,,
,,,,,,,,2023-08-24_08h16.08.247,HF_wild_card,2022.2.4,Win32,60.04563468,607f441b91a96d298ca2d347,64e63663dbcaf322d2eec8da,64e7039a2e3784d32f5a4bb8,,,,,,,ctch,resources/DG.BMP,resources/DB.BMP,Door3,-0.172222222,-0.162962963,1,0,0,0.7941,optionLeft,70,11800,5,37,0,37,0,1,,,,,,,,,,,,,,,,,,,,,,,,,,,,,,,,,,,,,,,
,,,,,,,,2023-08-24_08h16.08.247,HF_wild_card,2022.2.4,Win32,60.04563468,607f441b91a96d298ca2d347,64e63663dbcaf322d2eec8da,64e7039a2e3784d32f5a4bb8,,,,,,,decisionTrl,resources/DB.BMP,resources/DBN.BMP,Door1,0.187962963,-0.094444444,1,0,0,4.1539,optionRight,30,11830,5,38,0,38,0,1,,,,,,,,,,,,,,,,,,,,,,,,,,,,,,,,,,,,,,,
,,,,,,,,2023-08-24_08h16.08.247,HF_wild_card,2022.2.4,Win32,60.04563468,607f441b91a96d298ca2d347,64e63663dbcaf322d2eec8da,64e7039a2e3784d32f5a4bb8,,,,,,,sngl,resources/DBN.BMP,resources/Empty.png,Door1,-0.210185185,0.021296296,1,0,0,0.7731,optionLeft,30,11860,5,39,0,39,0,1,,,,,,,,,,,,,,,,,,,,,,,,,,,,,,,,,,,,,,,
,,,,,,,,2023-08-24_08h16.08.247,HF_wild_card,2022.2.4,Win32,60.04563468,607f441b91a96d298ca2d347,64e63663dbcaf322d2eec8da,64e7039a2e3784d32f5a4bb8,,,,,,,ctch,resources/DY.BMP,resources/DBN.BMP,Door4,-0.211111111,-0.028703704,1,0,0,0.7729,optionLeft,60,11920,5,40,0,40,0,1,,,,,,,,,,,,,,,,,,,,,,,,,,,,,,,,,,,,,,,
,,,,,,,,2023-08-24_08h16.08.247,HF_wild_card,2022.2.4,Win32,60.04563468,607f441b91a96d298ca2d347,64e63663dbcaf322d2eec8da,64e7039a2e3784d32f5a4bb8,,,,,,,decisionTrl,resources/DG.BMP,resources/DP.BMP,Door3,-0.225925926,0.02962963,1,0,0,1.0943,optionLeft,70,11990,5,41,0,41,0,1,,,,,,,,,,,,,,,,,,,,,,,,,,,,,,,,,,,,,,,
,,,,,,,,2023-08-24_08h16.08.247,HF_wild_card,2022.2.4,Win32,60.04563468,607f441b91a96d298ca2d347,64e63663dbcaf322d2eec8da,64e7039a2e3784d32f5a4bb8,,,,,,,decisionTrl,resources/DBN.BMP,resources/DP.BMP,WildCard_Ex,0.189814815,-0.180555556,1,0,0,0.8607,optionRight,45,12035,5,42,0,42,0,1,,,,,,,,,,,,,,,,,,,,,,,,,,,,,,,,,,,,,,,
,,,,,,,,2023-08-24_08h16.08.247,HF_wild_card,2022.2.4,Win32,60.04563468,607f441b91a96d298ca2d347,64e63663dbcaf322d2eec8da,64e7039a2e3784d32f5a4bb8,,,,,,,decisionTrl,resources/DY.BMP,resources/DG.BMP,Door4,-0.203703704,0.031481481,1,0,0,4.0412,optionLeft,80,12115,5,43,0,43,0,1,,,,,,,,,,,,,,,,,,,,,,,,,,,,,,,,,,,,,,,
,,,,,,,,2023-08-24_08h16.08.247,HF_wild_card,2022.2.4,Win32,60.04563468,607f441b91a96d298ca2d347,64e63663dbcaf322d2eec8da,64e7039a2e3784d32f5a4bb8,,,,,,,,,,,,,,,,,,,,,,,,,,4,0,4,0,1,,,,,,,,,,,,,,,,,,,,,,,,,,,,,,,,,,
,,,,,,,,2023-08-24_08h16.08.247,HF_wild_card,2022.2.4,Win32,60.04563468,607f441b91a96d298ca2d347,64e63663dbcaf322d2eec8da,64e7039a2e3784d32f5a4bb8,,,,,,,ctch,resources/DB.BMP,resources/DG.BMP,Door3,0.27037037,-0.080555556,1,0,0,0.7858,optionRight,70,12185,6,0,0,0,0,1,,,,,,,,,,,,,,,,,,,,,,,,,,,,,,,,,,,,,,,
,,,,,,,,2023-08-24_08h16.08.247,HF_wild_card,2022.2.4,Win32,60.04563468,607f441b91a96d298ca2d347,64e63663dbcaf322d2eec8da,64e7039a2e3784d32f5a4bb8,,,,,,,decisionTrl,resources/DY.BMP,resources/DG.BMP,Door4,-0.146296296,-0.180555556,1,0,0,0.6778,optionLeft,80,12265,6,1,0,1,0,1,,,,,,,,,,,,,,,,,,,,,,,,,,,,,,,,,,,,,,,
,,,,,,,,2023-08-24_08h16.08.247,HF_wild_card,2022.2.4,Win32,60.04563468,607f441b91a96d298ca2d347,64e63663dbcaf322d2eec8da,64e7039a2e3784d32f5a4bb8,,,,,,,decisionTrl,resources/DY.BMP,resources/DP.BMP,Door4,-0.152777778,-0.159259259,1,0,0,0.5431,optionLeft,60,12325,6,2,0,2,0,1,,,,,,,,,,,,,,,,,,,,,,,,,,,,,,,,,,,,,,,
,,,,,,,,2023-08-24_08h16.08.247,HF_wild_card,2022.2.4,Win32,60.04563468,607f441b91a96d298ca2d347,64e63663dbcaf322d2eec8da,64e7039a2e3784d32f5a4bb8,,,,,,,sngl,resources/DBN.BMP,resources/Empty.png,Door1,-0.167592593,-0.160185185,1,0,0,1.5604,optionLeft,30,12355,6,3,0,3,0,1,,,,,,,,,,,,,,,,,,,,,,,,,,,,,,,,,,,,,,,
,,,,,,,,2023-08-24_08h16.08.247,HF_wild_card,2022.2.4,Win32,60.04563468,607f441b91a96d298ca2d347,64e63663dbcaf322d2eec8da,64e7039a2e3784d32f5a4bb8,,,,,,,ctch,resources/DB.BMP,resources/DG.BMP,Door3,0.196296296,-0.042592593,1,0,0,0.5949,optionRight,70,12425,6,4,0,4,0,1,,,,,,,,,,,,,,,,,,,,,,,,,,,,,,,,,,,,,,,
,,,,,,,,2023-08-24_08h16.08.247,HF_wild_card,2022.2.4,Win32,60.04563468,607f441b91a96d298ca2d347,64e63663dbcaf322d2eec8da,64e7039a2e3784d32f5a4bb8,,,,,,,decisionTrl,resources/DB.BMP,resources/DP.BMP,WildCard_Ex,0.199074074,-0.081481481,1,0,0,1.0774,optionRight,55,12480,6,5,0,5,0,1,,,,,,,,,,,,,,,,,,,,,,,,,,,,,,,,,,,,,,,
,,,,,,,,2023-08-24_08h16.08.247,HF_wild_card,2022.2.4,Win32,60.04563468,607f441b91a96d298ca2d347,64e63663dbcaf322d2eec8da,64e7039a2e3784d32f5a4bb8,,,,,,,ctch,resources/DY.BMP,resources/DBN.BMP,Door4,-0.182407407,-0.187037037,1,0,0,0.678,optionLeft,80,12560,6,6,0,6,0,1,,,,,,,,,,,,,,,,,,,,,,,,,,,,,,,,,,,,,,,
,,,,,,,,2023-08-24_08h16.08.247,HF_wild_card,2022.2.4,Win32,60.04563468,607f441b91a96d298ca2d347,64e63663dbcaf322d2eec8da,64e7039a2e3784d32f5a4bb8,,,,,,,decisionTrl,resources/DY.BMP,resources/DG.BMP,Door4,-0.183333333,-0.182407407,1,0,0,0.561,optionLeft,80,12640,6,7,0,7,0,1,,,,,,,,,,,,,,,,,,,,,,,,,,,,,,,,,,,,,,,
,,,,,,,,2023-08-24_08h16.08.247,HF_wild_card,2022.2.4,Win32,60.04563468,607f441b91a96d298ca2d347,64e63663dbcaf322d2eec8da,64e7039a2e3784d32f5a4bb8,,,,,,,ctch,resources/DBN.BMP,resources/DY.BMP,Door4,0.15462963,-0.038888889,1,0,0,0.6441,optionRight,60,12700,6,8,0,8,0,1,,,,,,,,,,,,,,,,,,,,,,,,,,,,,,,,,,,,,,,
,,,,,,,,2023-08-24_08h16.08.247,HF_wild_card,2022.2.4,Win32,60.04563468,607f441b91a96d298ca2d347,64e63663dbcaf322d2eec8da,64e7039a2e3784d32f5a4bb8,,,,,,,decisionTrl,resources/DB.BMP,resources/DBN.BMP,Door1,0.236111111,0.033333333,1,0,0,1.4891,optionRight,30,12730,6,9,0,9,0,1,,,,,,,,,,,,,,,,,,,,,,,,,,,,,,,,,,,,,,,
,,,,,,,,2023-08-24_08h16.08.247,HF_wild_card,2022.2.4,Win32,60.04563468,607f441b91a96d298ca2d347,64e63663dbcaf322d2eec8da,64e7039a2e3784d32f5a4bb8,,,,,,,sngl,resources/DY.BMP,resources/Empty.png,Door4,-0.186111111,-0.159259259,1,0,0,0.6112,optionLeft,60,12790,6,10,0,10,0,1,,,,,,,,,,,,,,,,,,,,,,,,,,,,,,,,,,,,,,,
,,,,,,,,2023-08-24_08h16.08.247,HF_wild_card,2022.2.4,Win32,60.04563468,607f441b91a96d298ca2d347,64e63663dbcaf322d2eec8da,64e7039a2e3784d32f5a4bb8,,,,,,,decisionTrl,resources/DG.BMP,resources/DY.BMP,Door4,0.150925926,-0.050925926,1,0,0,0.6272,optionRight,60,12850,6,11,0,11,0,1,,,,,,,,,,,,,,,,,,,,,,,,,,,,,,,,,,,,,,,
,,,,,,,,2023-08-24_08h16.08.247,HF_wild_card,2022.2.4,Win32,60.04563468,607f441b91a96d298ca2d347,64e63663dbcaf322d2eec8da,64e7039a2e3784d32f5a4bb8,,,,,,,decisionTrl,resources/DBN.BMP,resources/DB.BMP,Door1,-0.173148148,-0.157407407,1,0,0,2.4182,optionLeft,30,12880,6,12,0,12,0,1,,,,,,,,,,,,,,,,,,,,,,,,,,,,,,,,,,,,,,,
,,,,,,,,2023-08-24_08h16.08.247,HF_wild_card,2022.2.4,Win32,60.04563468,607f441b91a96d298ca2d347,64e63663dbcaf322d2eec8da,64e7039a2e3784d32f5a4bb8,,,,,,,ctch,resources/DY.BMP,resources/DBN.BMP,Door4,-0.201851852,-0.148148148,1,0,0,0.9557,optionLeft,80,12960,6,13,0,13,0,1,,,,,,,,,,,,,,,,,,,,,,,,,,,,,,,,,,,,,,,
,,,,,,,,2023-08-24_08h16.08.247,HF_wild_card,2022.2.4,Win32,60.04563468,607f441b91a96d298ca2d347,64e63663dbcaf322d2eec8da,64e7039a2e3784d32f5a4bb8,,,,,,,decisionTrl,resources/DBN.BMP,resources/DB.BMP,Door2,0.166666667,-0.165740741,1,0,0,1.6679,optionRight,20,12980,6,14,0,14,0,1,,,,,,,,,,,,,,,,,,,,,,,,,,,,,,,,,,,,,,,
,,,,,,,,2023-08-24_08h16.08.247,HF_wild_card,2022.2.4,Win32,60.04563468,607f441b91a96d298ca2d347,64e63663dbcaf322d2eec8da,64e7039a2e3784d32f5a4bb8,,,,,,,sngl,resources/Empty.png,resources/DG.BMP,Door3,0.203703704,-0.131481481,1,0,0,0.6439,optionRight,70,13050,6,15,0,15,0,1,,,,,,,,,,,,,,,,,,,,,,,,,,,,,,,,,,,,,,,
,,,,,,,,2023-08-24_08h16.08.247,HF_wild_card,2022.2.4,Win32,60.04563468,607f441b91a96d298ca2d347,64e63663dbcaf322d2eec8da,64e7039a2e3784d32f5a4bb8,,,,,,,decisionTrl,resources/DG.BMP,resources/DY.BMP,Door3,-0.189814815,0.024074074,1,0,0,2.3412,optionLeft,70,13120,6,16,0,16,0,1,,,,,,,,,,,,,,,,,,,,,,,,,,,,,,,,,,,,,,,
,,,,,,,,2023-08-24_08h16.08.247,HF_wild_card,2022.2.4,Win32,60.04563468,607f441b91a96d298ca2d347,64e63663dbcaf322d2eec8da,64e7039a2e3784d32f5a4bb8,,,,,,,sngl,resources/DP.BMP,resources/Empty.png,WildCard_Ex,-0.191666667,0.041666667,1,0,0,0.7688,optionLeft,45,13165,6,17,0,17,0,1,,,,,,,,,,,,,,,,,,,,,,,,,,,,,,,,,,,,,,,
,,,,,,,,2023-08-24_08h16.08.247,HF_wild_card,2022.2.4,Win32,60.04563468,607f441b91a96d298ca2d347,64e63663dbcaf322d2eec8da,64e7039a2e3784d32f5a4bb8,,,,,,,decisionTrl,resources/DP.BMP,resources/DY.BMP,Door4,0.178703704,-0.112037037,1,0,0,1.3614,optionRight,60,13225,6,18,0,18,0,1,,,,,,,,,,,,,,,,,,,,,,,,,,,,,,,,,,,,,,,
,,,,,,,,2023-08-24_08h16.08.247,HF_wild_card,2022.2.4,Win32,60.04563468,607f441b91a96d298ca2d347,64e63663dbcaf322d2eec8da,64e7039a2e3784d32f5a4bb8,,,,,,,sngl,resources/DG.BMP,resources/Empty.png,Door3,-0.205555556,0.036111111,1,0,0,0.6777,optionLeft,70,13295,6,19,0,19,0,1,,,,,,,,,,,,,,,,,,,,,,,,,,,,,,,,,,,,,,,
,,,,,,,,2023-08-24_08h16.08.247,HF_wild_card,2022.2.4,Win32,60.04563468,607f441b91a96d298ca2d347,64e63663dbcaf322d2eec8da,64e7039a2e3784d32f5a4bb8,,,,,,,ctch,resources/DG.BMP,resources/DB.BMP,Door3,-0.194444444,0.048148148,1,0,0,0.7114,optionLeft,70,13365,6,20,0,20,0,1,,,,,,,,,,,,,,,,,,,,,,,,,,,,,,,,,,,,,,,
,,,,,,,,2023-08-24_08h16.08.247,HF_wild_card,2022.2.4,Win32,60.04563468,607f441b91a96d298ca2d347,64e63663dbcaf322d2eec8da,64e7039a2e3784d32f5a4bb8,,,,,,,decisionTrl,resources/DY.BMP,resources/DG.BMP,Door4,-0.186111111,0.036111111,1,0,0,1.2942,optionLeft,60,13425,6,21,0,21,0,1,,,,,,,,,,,,,,,,,,,,,,,,,,,,,,,,,,,,,,,
,,,,,,,,2023-08-24_08h16.08.247,HF_wild_card,2022.2.4,Win32,60.04563468,607f441b91a96d298ca2d347,64e63663dbcaf322d2eec8da,64e7039a2e3784d32f5a4bb8,,,,,,,decisionTrl,resources/DBN.BMP,resources/DB.BMP,Door1,-0.250925926,0.064814815,1,0,0,0.994,optionLeft,30,13455,6,22,0,22,0,1,,,,,,,,,,,,,,,,,,,,,,,,,,,,,,,,,,,,,,,
,,,,,,,,2023-08-24_08h16.08.247,HF_wild_card,2022.2.4,Win32,60.04563468,607f441b91a96d298ca2d347,64e63663dbcaf322d2eec8da,64e7039a2e3784d32f5a4bb8,,,,,,,decisionTrl,resources/DB.BMP,resources/DBN.BMP,Door1,0.165740741,-0.14537037,1,0,0,1.0441,optionRight,30,13485,6,23,0,23,0,1,,,,,,,,,,,,,,,,,,,,,,,,,,,,,,,,,,,,,,,
,,,,,,,,2023-08-24_08h16.08.247,HF_wild_card,2022.2.4,Win32,60.04563468,607f441b91a96d298ca2d347,64e63663dbcaf322d2eec8da,64e7039a2e3784d32f5a4bb8,,,,,,,sngl,resources/Empty.png,resources/DY.BMP,Door4,0.19537037,-0.174074074,1,0,0,0.6443,optionRight,80,13565,6,24,0,24,0,1,,,,,,,,,,,,,,,,,,,,,,,,,,,,,,,,,,,,,,,
,,,,,,,,2023-08-24_08h16.08.247,HF_wild_card,2022.2.4,Win32,60.04563468,607f441b91a96d298ca2d347,64e63663dbcaf322d2eec8da,64e7039a2e3784d32f5a4bb8,,,,,,,decisionTrl,resources/DP.BMP,resources/DG.BMP,Door3,0.150925926,-0.143518519,1,0,0,1.5273,optionRight,70,13635,6,25,0,25,0,1,,,,,,,,,,,,,,,,,,,,,,,,,,,,,,,,,,,,,,,
,,,,,,,,2023-08-24_08h16.08.247,HF_wild_card,2022.2.4,Win32,60.04563468,607f441b91a96d298ca2d347,64e63663dbcaf322d2eec8da,64e7039a2e3784d32f5a4bb8,,,,,,,sngl,resources/Empty.png,resources/DP.BMP,WildCard_Ex,0.200925926,-0.160185185,1,0,0,0.7611,optionRight,55,13690,6,26,0,26,0,1,,,,,,,,,,,,,,,,,,,,,,,,,,,,,,,,,,,,,,,
,,,,,,,,2023-08-24_08h16.08.247,HF_wild_card,2022.2.4,Win32,60.04563468,607f441b91a96d298ca2d347,64e63663dbcaf322d2eec8da,64e7039a2e3784d32f5a4bb8,,,,,,,sngl,resources/DP.BMP,resources/Empty.png,WildCard_Ex,-0.187962963,0.042592593,1,0,0,0.6615,optionLeft,55,13745,6,27,0,27,0,1,,,,,,,,,,,,,,,,,,,,,,,,,,,,,,,,,,,,,,,
,,,,,,,,2023-08-24_08h16.08.247,HF_wild_card,2022.2.4,Win32,60.04563468,607f441b91a96d298ca2d347,64e63663dbcaf322d2eec8da,64e7039a2e3784d32f5a4bb8,,,,,,,sngl,resources/Empty.png,resources/DB.BMP,Door2,0.155555556,-0.175925926,1,0,0,0.8107,optionRight,40,13785,6,28,0,28,0,1,,,,,,,,,,,,,,,,,,,,,,,,,,,,,,,,,,,,,,,
,,,,,,,,2023-08-24_08h16.08.247,HF_wild_card,2022.2.4,Win32,60.04563468,607f441b91a96d298ca2d347,64e63663dbcaf322d2eec8da,64e7039a2e3784d32f5a4bb8,,,,,,,decisionTrl,resources/DG.BMP,resources/DY.BMP,Door3,-0.184259259,0.038888889,1,0,0,2.5438,optionLeft,70,13855,6,29,0,29,0,1,,,,,,,,,,,,,,,,,,,,,,,,,,,,,,,,,,,,,,,
,,,,,,,,2023-08-24_08h16.08.247,HF_wild_card,2022.2.4,Win32,60.04563468,607f441b91a96d298ca2d347,64e63663dbcaf322d2eec8da,64e7039a2e3784d32f5a4bb8,,,,,,,decisionTrl,resources/DBN.BMP,resources/DP.BMP,WildCard_Ex,0.274074074,-0.048148148,1,0,0,1.136,optionRight,45,13900,6,30,0,30,0,1,,,,,,,,,,,,,,,,,,,,,,,,,,,,,,,,,,,,,,,
,,,,,,,,2023-08-24_08h16.08.247,HF_wild_card,2022.2.4,Win32,60.04563468,607f441b91a96d298ca2d347,64e63663dbcaf322d2eec8da,64e7039a2e3784d32f5a4bb8,,,,,,,sngl,resources/Empty.png,resources/DBN.BMP,Door1,0.215740741,-0.056481481,1,0,0,0.8107,optionRight,30,13930,6,31,0,31,0,1,,,,,,,,,,,,,,,,,,,,,,,,,,,,,,,,,,,,,,,
,,,,,,,,2023-08-24_08h16.08.247,HF_wild_card,2022.2.4,Win32,60.04563468,607f441b91a96d298ca2d347,64e63663dbcaf322d2eec8da,64e7039a2e3784d32f5a4bb8,,,,,,,decisionTrl,resources/DB.BMP,resources/DBN.BMP,Door2,-0.177777778,-0.175,1,0,0,0.5613,optionLeft,40,13970,6,32,0,32,0,1,,,,,,,,,,,,,,,,,,,,,,,,,,,,,,,,,,,,,,,
,,,,,,,,2023-08-24_08h16.08.247,HF_wild_card,2022.2.4,Win32,60.04563468,607f441b91a96d298ca2d347,64e63663dbcaf322d2eec8da,64e7039a2e3784d32f5a4bb8,,,,,,,decisionTrl,resources/DG.BMP,resources/DY.BMP,Door3,-0.153703704,-0.190740741,1,0,0,1.3105,optionLeft,70,14040,6,33,0,33,0,1,,,,,,,,,,,,,,,,,,,,,,,,,,,,,,,,,,,,,,,
,,,,,,,,2023-08-24_08h16.08.247,HF_wild_card,2022.2.4,Win32,60.04563468,607f441b91a96d298ca2d347,64e63663dbcaf322d2eec8da,64e7039a2e3784d32f5a4bb8,,,,,,,sngl,resources/DB.BMP,resources/Empty.png,Door2,-0.122222222,-0.150925926,1,0,0,1.9104,optionLeft,20,14060,6,34,0,34,0,1,,,,,,,,,,,,,,,,,,,,,,,,,,,,,,,,,,,,,,,
,,,,,,,,2023-08-24_08h16.08.247,HF_wild_card,2022.2.4,Win32,60.04563468,607f441b91a96d298ca2d347,64e63663dbcaf322d2eec8da,64e7039a2e3784d32f5a4bb8,,,,,,,decisionTrl,resources/DB.BMP,resources/DBN.BMP,Door2,-0.146296296,-0.126851852,1,0,0,0.9374,optionLeft,20,14080,6,35,0,35,0,1,,,,,,,,,,,,,,,,,,,,,,,,,,,,,,,,,,,,,,,
,,,,,,,,2023-08-24_08h16.08.247,HF_wild_card,2022.2.4,Win32,60.04563468,607f441b91a96d298ca2d347,64e63663dbcaf322d2eec8da,64e7039a2e3784d32f5a4bb8,,,,,,,ctch,resources/DBN.BMP,resources/DY.BMP,Door4,0.139814815,-0.062037037,1,0,0,0.728,optionRight,80,14160,6,36,0,36,0,1,,,,,,,,,,,,,,,,,,,,,,,,,,,,,,,,,,,,,,,
,,,,,,,,2023-08-24_08h16.08.247,HF_wild_card,2022.2.4,Win32,60.04563468,607f441b91a96d298ca2d347,64e63663dbcaf322d2eec8da,64e7039a2e3784d32f5a4bb8,,,,,,,decisionTrl,resources/DBN.BMP,resources/DB.BMP,Door2,0.156481481,-0.044444444,1,0,0,0.7439,optionRight,40,14200,6,37,0,37,0,1,,,,,,,,,,,,,,,,,,,,,,,,,,,,,,,,,,,,,,,
,,,,,,,,2023-08-24_08h16.08.247,HF_wild_card,2022.2.4,Win32,60.04563468,607f441b91a96d298ca2d347,64e63663dbcaf322d2eec8da,64e7039a2e3784d32f5a4bb8,,,,,,,decisionTrl,resources/DG.BMP,resources/DP.BMP,Door3,-0.148148148,-0.138888889,1,0,0,1.2441,optionLeft,70,14270,6,38,0,38,0,1,,,,,,,,,,,,,,,,,,,,,,,,,,,,,,,,,,,,,,,
,,,,,,,,2023-08-24_08h16.08.247,HF_wild_card,2022.2.4,Win32,60.04563468,607f441b91a96d298ca2d347,64e63663dbcaf322d2eec8da,64e7039a2e3784d32f5a4bb8,,,,,,,decisionTrl,resources/DP.BMP,resources/DBN.BMP,WildCard_Ex,-0.138888889,-0.15462963,1,0,0,1.7599,optionLeft,55,14325,6,39,0,39,0,1,,,,,,,,,,,,,,,,,,,,,,,,,,,,,,,,,,,,,,,
,,,,,,,,2023-08-24_08h16.08.247,HF_wild_card,2022.2.4,Win32,60.04563468,607f441b91a96d298ca2d347,64e63663dbcaf322d2eec8da,64e7039a2e3784d32f5a4bb8,,,,,,,decisionTrl,resources/DY.BMP,resources/DG.BMP,Door4,-0.146296296,-0.17037037,1,0,0,1.094,optionLeft,60,14385,6,40,0,40,0,1,,,,,,,,,,,,,,,,,,,,,,,,,,,,,,,,,,,,,,,
,,,,,,,,2023-08-24_08h16.08.247,HF_wild_card,2022.2.4,Win32,60.04563468,607f441b91a96d298ca2d347,64e63663dbcaf322d2eec8da,64e7039a2e3784d32f5a4bb8,,,,,,,ctch,resources/DG.BMP,resources/DB.BMP,Door3,-0.151851852,-0.167592593,1,0,0,0.6284,optionLeft,70,14455,6,41,0,41,0,1,,,,,,,,,,,,,,,,,,,,,,,,,,,,,,,,,,,,,,,
,,,,,,,,2023-08-24_08h16.08.247,HF_wild_card,2022.2.4,Win32,60.04563468,607f441b91a96d298ca2d347,64e63663dbcaf322d2eec8da,64e7039a2e3784d32f5a4bb8,,,,,,,decisionTrl,resources/DP.BMP,resources/DB.BMP,WildCard_Ex,-0.162962963,-0.169444444,1,0,0,0.7392,optionLeft,55,14510,6,42,0,42,0,1,,,,,,,,,,,,,,,,,,,,,,,,,,,,,,,,,,,,,,,
,,,,,,,,2023-08-24_08h16.08.247,HF_wild_card,2022.2.4,Win32,60.04563468,607f441b91a96d298ca2d347,64e63663dbcaf322d2eec8da,64e7039a2e3784d32f5a4bb8,,,,,,,sngl,resources/Empty.png,resources/DP.BMP,WildCard_Ex,0.17962963,0.051851852,1,0,0,0.8612,optionRight,45,14555,6,43,0,43,0,1,,,,,,,,,,,,,,,,,,,,,,,,,,,,,,,,,,,,,,,
,,,,,,,,2023-08-24_08h16.08.247,HF_wild_card,2022.2.4,Win32,60.04563468,607f441b91a96d298ca2d347,64e63663dbcaf322d2eec8da,64e7039a2e3784d32f5a4bb8,,,,,,,,,,,,,,,,,,,,,,,,,,5,0,5,0,1,,,,,,,,,,,,,,,,,,,,,,,,,,,,,,,,,,
,,,,,,,,2023-08-24_08h16.08.247,HF_wild_card,2022.2.4,Win32,60.04563468,607f441b91a96d298ca2d347,64e63663dbcaf322d2eec8da,64e7039a2e3784d32f5a4bb8,,,,,,,ctch,resources/DBN.BMP,resources/DY.BMP,Door4,0.20462963,-0.075925926,1,0,0,1.028,optionRight,60,14615,7,0,0,0,0,1,,,,,,,,,,,,,,,,,,,,,,,,,,,,,,,,,,,,,,,
,,,,,,,,2023-08-24_08h16.08.247,HF_wild_card,2022.2.4,Win32,60.04563468,607f441b91a96d298ca2d347,64e63663dbcaf322d2eec8da,64e7039a2e3784d32f5a4bb8,,,,,,,decisionTrl,resources/DBN.BMP,resources/DB.BMP,Door2,0.227777778,-0.062962963,1,0,0,1.4442,optionRight,40,14655,7,1,0,1,0,1,,,,,,,,,,,,,,,,,,,,,,,,,,,,,,,,,,,,,,,
,,,,,,,,2023-08-24_08h16.08.247,HF_wild_card,2022.2.4,Win32,60.04563468,607f441b91a96d298ca2d347,64e63663dbcaf322d2eec8da,64e7039a2e3784d32f5a4bb8,,,,,,,ctch,resources/DY.BMP,resources/DBN.BMP,Door4,-0.198148148,-0.182407407,1,0,0,0.7321,optionLeft,60,14715,7,2,0,2,0,1,,,,,,,,,,,,,,,,,,,,,,,,,,,,,,,,,,,,,,,
,,,,,,,,2023-08-24_08h16.08.247,HF_wild_card,2022.2.4,Win32,60.04563468,607f441b91a96d298ca2d347,64e63663dbcaf322d2eec8da,64e7039a2e3784d32f5a4bb8,,,,,,,decisionTrl,resources/DG.BMP,resources/DY.BMP,Door3,-0.203703704,-0.169444444,1,0,0,1.4975,optionLeft,70,14785,7,3,0,3,0,1,,,,,,,,,,,,,,,,,,,,,,,,,,,,,,,,,,,,,,,
,,,,,,,,2023-08-24_08h16.08.247,HF_wild_card,2022.2.4,Win32,60.04563468,607f441b91a96d298ca2d347,64e63663dbcaf322d2eec8da,64e7039a2e3784d32f5a4bb8,,,,,,,ctch,resources/DY.BMP,resources/DBN.BMP,Door4,-0.187037037,-0.15462963,1,0,0,0.73,optionLeft,80,14865,7,4,0,4,0,1,,,,,,,,,,,,,,,,,,,,,,,,,,,,,,,,,,,,,,,
,,,,,,,,2023-08-24_08h16.08.247,HF_wild_card,2022.2.4,Win32,60.04563468,607f441b91a96d298ca2d347,64e63663dbcaf322d2eec8da,64e7039a2e3784d32f5a4bb8,,,,,,,ctch,resources/DG.BMP,resources/DB.BMP,Door3,-0.17962963,-0.143518519,1,0,0,0.8648,optionLeft,70,14935,7,5,0,5,0,1,,,,,,,,,,,,,,,,,,,,,,,,,,,,,,,,,,,,,,,
,,,,,,,,2023-08-24_08h16.08.247,HF_wild_card,2022.2.4,Win32,60.04563468,607f441b91a96d298ca2d347,64e63663dbcaf322d2eec8da,64e7039a2e3784d32f5a4bb8,,,,,,,decisionTrl,resources/DB.BMP,resources/DBN.BMP,Door2,-0.199074074,-0.162962963,1,0,0,1.2146,optionLeft,20,14955,7,6,0,6,0,1,,,,,,,,,,,,,,,,,,,,,,,,,,,,,,,,,,,,,,,
,,,,,,,,2023-08-24_08h16.08.247,HF_wild_card,2022.2.4,Win32,60.04563468,607f441b91a96d298ca2d347,64e63663dbcaf322d2eec8da,64e7039a2e3784d32f5a4bb8,,,,,,,decisionTrl,resources/DG.BMP,resources/DY.BMP,Door3,-0.165740741,-0.184259259,1,0,0,1.3643,optionLeft,70,15025,7,7,0,7,0,1,,,,,,,,,,,,,,,,,,,,,,,,,,,,,,,,,,,,,,,
,,,,,,,,2023-08-24_08h16.08.247,HF_wild_card,2022.2.4,Win32,60.04563468,607f441b91a96d298ca2d347,64e63663dbcaf322d2eec8da,64e7039a2e3784d32f5a4bb8,,,,,,,decisionTrl,resources/DBN.BMP,resources/DB.BMP,Door2,0.160185185,-0.055555556,1,0,0,1.1154,optionRight,20,15045,7,8,0,8,0,1,,,,,,,,,,,,,,,,,,,,,,,,,,,,,,,,,,,,,,,
,,,,,,,,2023-08-24_08h16.08.247,HF_wild_card,2022.2.4,Win32,60.04563468,607f441b91a96d298ca2d347,64e63663dbcaf322d2eec8da,64e7039a2e3784d32f5a4bb8,,,,,,,decisionTrl,resources/DB.BMP,resources/DBN.BMP,Door2,-0.185185185,-0.150925926,1,0,0,1.0475,optionLeft,40,15085,7,9,0,9,0,1,,,,,,,,,,,,,,,,,,,,,,,,,,,,,,,,,,,,,,,
,,,,,,,,2023-08-24_08h16.08.247,HF_wild_card,2022.2.4,Win32,60.04563468,607f441b91a96d298ca2d347,64e63663dbcaf322d2eec8da,64e7039a2e3784d32f5a4bb8,,,,,,,decisionTrl,resources/DG.BMP,resources/DY.BMP,Door3,-0.194444444,-0.122222222,1,0,0,1.3476,optionLeft,70,15155,7,10,0,10,0,1,,,,,,,,,,,,,,,,,,,,,,,,,,,,,,,,,,,,,,,
,,,,,,,,2023-08-24_08h16.08.247,HF_wild_card,2022.2.4,Win32,60.04563468,607f441b91a96d298ca2d347,64e63663dbcaf322d2eec8da,64e7039a2e3784d32f5a4bb8,,,,,,,ctch,resources/DBN.BMP,resources/DY.BMP,Door4,0.198148148,-0.016666667,1,0,0,0.8646,optionRight,60,15215,7,11,0,11,0,1,,,,,,,,,,,,,,,,,,,,,,,,,,,,,,,,,,,,,,,
,,,,,,,,2023-08-24_08h16.08.247,HF_wild_card,2022.2.4,Win32,60.04563468,607f441b91a96d298ca2d347,64e63663dbcaf322d2eec8da,64e7039a2e3784d32f5a4bb8,,,,,,,ctch,resources/DB.BMP,resources/DG.BMP,Door3,0.246296296,-0.016666667,1,0,0,0.8644,optionRight,70,15285,7,12,0,12,0,1,,,,,,,,,,,,,,,,,,,,,,,,,,,,,,,,,,,,,,,
,,,,,,,,2023-08-24_08h16.08.247,HF_wild_card,2022.2.4,Win32,60.04563468,607f441b91a96d298ca2d347,64e63663dbcaf322d2eec8da,64e7039a2e3784d32f5a4bb8,,,,,,,ctch,resources/DB.BMP,resources/DG.BMP,Door3,0.210185185,-0.059259259,1,0,0,0.6979,optionRight,70,15355,7,13,0,13,0,1,,,,,,,,,,,,,,,,,,,,,,,,,,,,,,,,,,,,,,,
,,,,,,,,2023-08-24_08h16.08.247,HF_wild_card,2022.2.4,Win32,60.04563468,607f441b91a96d298ca2d347,64e63663dbcaf322d2eec8da,64e7039a2e3784d32f5a4bb8,,,,,,,decisionTrl,resources/DG.BMP,resources/DY.BMP,Door3,-0.173148148,-0.177777778,1,0,0,1.1481,optionLeft,70,15425,7,14,0,14,0,1,,,,,,,,,,,,,,,,,,,,,,,,,,,,,,,,,,,,,,,
,,,,,,,,2023-08-24_08h16.08.247,HF_wild_card,2022.2.4,Win32,60.04563468,607f441b91a96d298ca2d347,64e63663dbcaf322d2eec8da,64e7039a2e3784d32f5a4bb8,,,,,,,decisionTrl,resources/DY.BMP,resources/DG.BMP,Door3,0.228703704,-0.005555556,1,0,0,1.1144,optionRight,70,15495,7,15,0,15,0,1,,,,,,,,,,,,,,,,,,,,,,,,,,,,,,,,,,,,,,,
,,,,,,,,2023-08-24_08h16.08.247,HF_wild_card,2022.2.4,Win32,60.04563468,607f441b91a96d298ca2d347,64e63663dbcaf322d2eec8da,64e7039a2e3784d32f5a4bb8,,,,,,,decisionTrl,resources/DB.BMP,resources/DBN.BMP,Door2,-0.178703704,-0.191666667,1,0,0,1.6145,optionLeft,40,15535,7,16,0,16,0,1,,,,,,,,,,,,,,,,,,,,,,,,,,,,,,,,,,,,,,,
,,,,,,,,2023-08-24_08h16.08.247,HF_wild_card,2022.2.4,Win32,60.04563468,607f441b91a96d298ca2d347,64e63663dbcaf322d2eec8da,64e7039a2e3784d32f5a4bb8,,,,,,,decisionTrl,resources/DY.BMP,resources/DG.BMP,Door3,0.210185185,-0.010185185,1,0,0,1.3808,optionRight,70,15605,7,17,0,17,0,1,,,,,,,,,,,,,,,,,,,,,,,,,,,,,,,,,,,,,,,
,,,,,,,,2023-08-24_08h16.08.247,HF_wild_card,2022.2.4,Win32,60.04563468,607f441b91a96d298ca2d347,64e63663dbcaf322d2eec8da,64e7039a2e3784d32f5a4bb8,,,,,,,ctch,resources/DG.BMP,resources/DB.BMP,Door3,-0.192592593,-0.181481481,1,0,0,0.8142,optionLeft,70,15675,7,18,0,18,0,1,,,,,,,,,,,,,,,,,,,,,,,,,,,,,,,,,,,,,,,
,,,,,,,,2023-08-24_08h16.08.247,HF_wild_card,2022.2.4,Win32,60.04563468,607f441b91a96d298ca2d347,64e63663dbcaf322d2eec8da,64e7039a2e3784d32f5a4bb8,,,,,,,ctch,resources/DY.BMP,resources/DBN.BMP,Door4,-0.181481481,-0.172222222,1,0,0,0.732,optionLeft,80,15755,7,19,0,19,0,1,,,,,,,,,,,,,,,,,,,,,,,,,,,,,,,,,,,,,,,
,,,,,,,,2023-08-24_08h16.08.247,HF_wild_card,2022.2.4,Win32,60.04563468,607f441b91a96d298ca2d347,64e63663dbcaf322d2eec8da,64e7039a2e3784d32f5a4bb8,,,,,,,decisionTrl,resources/DG.BMP,resources/DY.BMP,Door4,0.182407407,-0.017592593,1,0,0,0.8478,optionRight,80,15835,7,20,0,20,0,1,,,,,,,,,,,,,,,,,,,,,,,,,,,,,,,,,,,,,,,
,,,,,,,,2023-08-24_08h16.08.247,HF_wild_card,2022.2.4,Win32,60.04563468,607f441b91a96d298ca2d347,64e63663dbcaf322d2eec8da,64e7039a2e3784d32f5a4bb8,,,,,,,ctch,resources/DG.BMP,resources/DB.BMP,Door3,-0.192592593,-0.180555556,1,0,0,0.6988,optionLeft,70,15905,7,21,0,21,0,1,,,,,,,,,,,,,,,,,,,,,,,,,,,,,,,,,,,,,,,
,,,,,,,,2023-08-24_08h16.08.247,HF_wild_card,2022.2.4,Win32,60.04563468,607f441b91a96d298ca2d347,64e63663dbcaf322d2eec8da,64e7039a2e3784d32f5a4bb8,,,,,,,decisionTrl,resources/DB.BMP,resources/DBN.BMP,Door2,-0.167592593,-0.161111111,1,0,0,1.198,optionLeft,40,15945,7,22,0,22,0,1,,,,,,,,,,,,,,,,,,,,,,,,,,,,,,,,,,,,,,,
,,,,,,,,2023-08-24_08h16.08.247,HF_wild_card,2022.2.4,Win32,60.04563468,607f441b91a96d298ca2d347,64e63663dbcaf322d2eec8da,64e7039a2e3784d32f5a4bb8,,,,,,,decisionTrl,resources/DG.BMP,resources/DY.BMP,Door4,0.183333333,0.011111111,1,0,0,0.8814,optionRight,60,16005,7,23,0,23,0,1,,,,,,,,,,,,,,,,,,,,,,,,,,,,,,,,,,,,,,,
,,,,,,,,2023-08-24_08h16.08.247,HF_wild_card,2022.2.4,Win32,60.04563468,607f441b91a96d298ca2d347,64e63663dbcaf322d2eec8da,64e7039a2e3784d32f5a4bb8,,,,,,,decisionTrl,resources/DBN.BMP,resources/DB.BMP,Door2,0.191666667,-0.022222222,1,0,0,0.8323,optionRight,40,16045,7,24,0,24,0,1,,,,,,,,,,,,,,,,,,,,,,,,,,,,,,,,,,,,,,,
,,,,,,,,2023-08-24_08h16.08.247,HF_wild_card,2022.2.4,Win32,60.04563468,607f441b91a96d298ca2d347,64e63663dbcaf322d2eec8da,64e7039a2e3784d32f5a4bb8,,,,,,,decisionTrl,resources/DB.BMP,resources/DBN.BMP,Door1,0.151851852,-0.007407407,1,0,0,1.0311,optionRight,30,16075,7,25,0,25,0,1,,,,,,,,,,,,,,,,,,,,,,,,,,,,,,,,,,,,,,,
,,,,,,,,2023-08-24_08h16.08.247,HF_wild_card,2022.2.4,Win32,60.04563468,607f441b91a96d298ca2d347,64e63663dbcaf322d2eec8da,64e7039a2e3784d32f5a4bb8,,,,,,,decisionTrl,resources/DY.BMP,resources/DG.BMP,Door3,0.206481481,0.005555556,1,0,0,1.5971,optionRight,70,16145,7,26,0,26,0,1,,,,,,,,,,,,,,,,,,,,,,,,,,,,,,,,,,,,,,,
,,,,,,,,2023-08-24_08h16.08.247,HF_wild_card,2022.2.4,Win32,60.04563468,607f441b91a96d298ca2d347,64e63663dbcaf322d2eec8da,64e7039a2e3784d32f5a4bb8,,,,,,,decisionTrl,resources/DBN.BMP,resources/DB.BMP,Door2,0.171296296,-0.00462963,1,0,0,1.6636,optionRight,40,16185,7,27,0,27,0,1,,,,,,,,,,,,,,,,,,,,,,,,,,,,,,,,,,,,,,,
,,,,,,,,2023-08-24_08h16.08.247,HF_wild_card,2022.2.4,Win32,60.04563468,607f441b91a96d298ca2d347,64e63663dbcaf322d2eec8da,64e7039a2e3784d32f5a4bb8,,,,,,,decisionTrl,resources/DBN.BMP,resources/DB.BMP,Door2,0.212037037,-0.043518519,1,0,0,1.1984,optionRight,20,16205,7,28,0,28,0,1,,,,,,,,,,,,,,,,,,,,,,,,,,,,,,,,,,,,,,,
,,,,,,,,2023-08-24_08h16.08.247,HF_wild_card,2022.2.4,Win32,60.04563468,607f441b91a96d298ca2d347,64e63663dbcaf322d2eec8da,64e7039a2e3784d32f5a4bb8,,,,,,,decisionTrl,resources/DY.BMP,resources/DG.BMP,Door3,0.225,0.003703704,1,0,0,1.481,optionRight,70,16275,7,29,0,29,0,1,,,,,,,,,,,,,,,,,,,,,,,,,,,,,,,,,,,,,,,
,,,,,,,,2023-08-24_08h16.08.247,HF_wild_card,2022.2.4,Win32,60.04563468,607f441b91a96d298ca2d347,64e63663dbcaf322d2eec8da,64e7039a2e3784d32f5a4bb8,,,,,,,ctch,resources/DB.BMP,resources/DG.BMP,Door3,0.242592593,-0.000925926,1,0,0,0.5634,optionRight,70,16345,7,30,0,30,0,1,,,,,,,,,,,,,,,,,,,,,,,,,,,,,,,,,,,,,,,
,,,,,,,,2023-08-24_08h16.08.247,HF_wild_card,2022.2.4,Win32,60.04563468,607f441b91a96d298ca2d347,64e63663dbcaf322d2eec8da,64e7039a2e3784d32f5a4bb8,,,,,,,decisionTrl,resources/DB.BMP,resources/DBN.BMP,Door2,-0.192592593,-0.166666667,1,0,0,1.4479,optionLeft,40,16385,7,31,0,31,0,1,,,,,,,,,,,,,,,,,,,,,,,,,,,,,,,,,,,,,,,
,,,,,,,,2023-08-24_08h16.08.247,HF_wild_card,2022.2.4,Win32,60.04563468,607f441b91a96d298ca2d347,64e63663dbcaf322d2eec8da,64e7039a2e3784d32f5a4bb8,,,,,,,decisionTrl,resources/DY.BMP,resources/DG.BMP,Door3,0.235185185,0.015740741,1,0,0,1.065,optionRight,70,16455,7,32,0,32,0,1,,,,,,,,,,,,,,,,,,,,,,,,,,,,,,,,,,,,,,,
,,,,,,,,2023-08-24_08h16.08.247,HF_wild_card,2022.2.4,Win32,60.04563468,607f441b91a96d298ca2d347,64e63663dbcaf322d2eec8da,64e7039a2e3784d32f5a4bb8,,,,,,,ctch,resources/DBN.BMP,resources/DY.BMP,Door4,0.228703704,0,1,0,0,0.6815,optionRight,80,16535,7,33,0,33,0,1,,,,,,,,,,,,,,,,,,,,,,,,,,,,,,,,,,,,,,,
,,,,,,,,2023-08-24_08h16.08.247,HF_wild_card,2022.2.4,Win32,60.04563468,607f441b91a96d298ca2d347,64e63663dbcaf322d2eec8da,64e7039a2e3784d32f5a4bb8,,,,,,,decisionTrl,resources/DY.BMP,resources/DG.BMP,Door4,-0.164814815,-0.174074074,1,0,0,0.9651,optionLeft,60,16595,7,34,0,34,0,1,,,,,,,,,,,,,,,,,,,,,,,,,,,,,,,,,,,,,,,
,,,,,,,,2023-08-24_08h16.08.247,HF_wild_card,2022.2.4,Win32,60.04563468,607f441b91a96d298ca2d347,64e63663dbcaf322d2eec8da,64e7039a2e3784d32f5a4bb8,,,,,,,decisionTrl,resources/DBN.BMP,resources/DB.BMP,Door2,0.011111111,-0.118518519,1,0,0,0.4316,optionRight,20,16615,7,35,0,35,0,1,,,,,,,,,,,,,,,,,,,,,,,,,,,,,,,,,,,,,,,
,,,,,,,,2023-08-24_08h16.08.247,HF_wild_card,2022.2.4,Win32,60.04563468,607f441b91a96d298ca2d347,64e63663dbcaf322d2eec8da,64e7039a2e3784d32f5a4bb8,,,,,,,,,,,,,,,,,,,,,,,,,,6,0,6,0,1,,,,,,,,,,,,,,,,,,,,,,,,,,,,,,,,,,
,,,,,,,,2023-08-24_08h16.08.247,HF_wild_card,2022.2.4,Win32,60.04563468,607f441b91a96d298ca2d347,64e63663dbcaf322d2eec8da,64e7039a2e3784d32f5a4bb8,,,,,,,,,,,,,,,,,,,,,,,,,,,,,,,4,,,,,,,,,,,,,,,,,,,,,,,,,,,,,,,,,
,,,,,,,,2023-08-24_08h16.08.247,HF_wild_card,2022.2.4,Win32,60.04563468,607f441b91a96d298ca2d347,64e63663dbcaf322d2eec8da,64e7039a2e3784d32f5a4bb8,,,,,,,,,,,,,,,,,,,,,,,,,,,,,,,,,,,,,,,,,,,,,,,,,,,,,,,,,,,,,,,,
,,,,,,,,2023-08-24_08h16.08.247,HF_wild_card,2022.2.4,Win32,60.04563468,607f441b91a96d298ca2d347,64e63663dbcaf322d2eec8da,64e7039a2e3784d32f5a4bb8,,,,,,,,,,,,,,,,,,,,,,,,,,,,,,,,80,Door4,resources/DY.BMP,0,0,0,0,1,,,,,,,,,,,,,,,,,,,,,,,,,
,,,,,,,,2023-08-24_08h16.08.247,HF_wild_card,2022.2.4,Win32,60.04563468,607f441b91a96d298ca2d347,64e63663dbcaf322d2eec8da,64e7039a2e3784d32f5a4bb8,,,,,,,,,,,,,,,,,,,,,,,,,,,,,,,,70,Door3,resources/DG.BMP,1,0,1,0,1,,,,,,,,,,,,,,,,,,,,,,,,,
,,,,,,,,2023-08-24_08h16.08.247,HF_wild_card,2022.2.4,Win32,60.04563468,607f441b91a96d298ca2d347,64e63663dbcaf322d2eec8da,64e7039a2e3784d32f5a4bb8,,,,,,,,,,,,,,,,,,,,,,,,,,,,,,,,20,Door1,resources/DBN.BMP,2,0,2,0,1,,,,,,,,,,,,,,,,,,,,,,,,,
,,,,,,,,2023-08-24_08h16.08.247,HF_wild_card,2022.2.4,Win32,60.04563468,607f441b91a96d298ca2d347,64e63663dbcaf322d2eec8da,64e7039a2e3784d32f5a4bb8,,,,,,,,,,,,,,,,,,,,,,,,,,,,,,,,55,WC_nonExtreme,resources/DR.BMP,3,0,3,0,1,,,,,,,,,,,,,,,,,,,,,,,,,
,,,,,,,,2023-08-24_08h16.08.247,HF_wild_card,2022.2.4,Win32,60.04563468,607f441b91a96d298ca2d347,64e63663dbcaf322d2eec8da,64e7039a2e3784d32f5a4bb8,,,,,,,,,,,,,,,,,,,,,,,,,,,,,,,,30,Door2,resources/DB.BMP,4,0,4,0,1,,,,,,,,,,,,,,,,,,,,,,,,,
,,,,,,,,2023-08-24_08h16.08.247,HF_wild_card,2022.2.4,Win32,60.04563468,607f441b91a96d298ca2d347,64e63663dbcaf322d2eec8da,64e7039a2e3784d32f5a4bb8,,,,,,,,,,,,,,,,,,,,,,,,,,,,,,,,45,WC_extreme,resources/DP.BMP,5,0,5,0,1,,,,,,,,,,,,,,,,,,,,,,,,,
,,,,,,,,2023-08-24_08h16.08.247,HF_wild_card,2022.2.4,Win32,60.04563468,607f441b91a96d298ca2d347,64e63663dbcaf322d2eec8da,64e7039a2e3784d32f5a4bb8,,,,,,,,,,,,,,,,,,,,,,,,,,,,,,,,,,,,,,,,,,,,,,,,,,,,,,,,,,,,,,,,
