Condition,Low fixed image (Door1),Low risky image (Door2),High fixed image (Door3),High risky image (Door4),Extreme Wild Card,NonExtreme Wild Card,,date,expName,psychopyVersion,OS,frameRate,PROLIFIC_PID,STUDY_ID,SESSION_ID,mouse_2.x,mouse_2.y,mouse_2.leftButton,mouse_2.midButton,mouse_2.rightButton,mouse_2.clicked_name,Trial Type,Left Option Image,Right Option Image,Chosen Door,mouse.x,mouse.y,mouse.leftButton,mouse.midButton,mouse.rightButton,mouse.time,mouse.clicked_name,Feedback,Cumulative Reward,Block,trial.thisRepN,trial.thisTrialN,trial.thisN,trial.thisIndex,trial.ran,blocks.thisRepN,blocks.thisTrialN,blocks.thisN,blocks.thisIndex,blocks.ran,Money conversion,First Outcome Reported,Shown Door (First Outcome),Displayed Image (First Outcome),outcomes.thisRepN,outcomes.thisTrialN,outcomes.thisN,outcomes.thisIndex,outcomes.ran,judgments.thisRepN,judgments.thisTrialN,judgments.thisN,judgments.thisIndex,judgments.ran,freqMouse.x,freqMouse.y,freqMouse.leftButton,freqMouse.midButton,freqMouse.rightButton,freqMouse.clicked_name,trials.thisRepN,trials.thisTrialN,trials.thisN,trials.thisIndex,trials.ran,FQJ for first outcome,FQJ for second outcome,Shown Door,Displayed Image,judgBlock.thisRepN,judgBlock.thisTrialN,judgBlock.thisN,judgBlock.thisIndex,judgBlock.ran
0,resources/DG.BMP,resources/DR.BMP,resources/DP.BMP,resources/DY.BMP,resources/DB.BMP,resources/DBN.BMP,6393f158851fb438d2ceb5d7,2023-08-07_17h04.53.098,HF_wild_card,2022.2.4,Win32,59.59475566,6393f158851fb438d2ceb5d7,64ce5acb97489d65b14ecc7a,64d115e8d32e3a56eb5d7664,,,,,,,,,,,,,,,,,,,,,,,,,,,,,,,,,,,,,,,,,,,,,,,,,,,,,,,,,,,,,,,,
,,,,,,,6393f158851fb438d2ceb5d7,2023-08-07_17h04.53.098,HF_wild_card,2022.2.4,Win32,59.59475566,6393f158851fb438d2ceb5d7,64ce5acb97489d65b14ecc7a,64d115e8d32e3a56eb5d7664,0.0078125,-0.423177083,1,0,0,agree,,,,,,,,,,,,,,,,,,,,,,,,,,,,,,,,,,,,,,,,,,,,,,,,,,,,,,,,,,
,,,,,,,6393f158851fb438d2ceb5d7,2023-08-07_17h04.53.098,HF_wild_card,2022.2.4,Win32,59.59475566,6393f158851fb438d2ceb5d7,64ce5acb97489d65b14ecc7a,64d115e8d32e3a56eb5d7664,,,,,,,,,,,,,,,,,,,,,,,,,,,,,,,,,,,,,,,,,,,,,,,,,,,,,,,,,,,,,,,,
,,,,,,,6393f158851fb438d2ceb5d7,2023-08-07_17h04.53.098,HF_wild_card,2022.2.4,Win32,59.59475566,6393f158851fb438d2ceb5d7,64ce5acb97489d65b14ecc7a,64d115e8d32e3a56eb5d7664,,,,,,,decisionTrl,resources/DY.BMP,resources/DP.BMP,Door3,0.359375,-0.084635417,1,0,0,4.6688,optionRight,70,70,1,0,0,0,0,1,,,,,,,,,,,,,,,,,,,,,,,,,,,,,,,,,,,,,,,
,,,,,,,6393f158851fb438d2ceb5d7,2023-08-07_17h04.53.098,HF_wild_card,2022.2.4,Win32,59.59475566,6393f158851fb438d2ceb5d7,64ce5acb97489d65b14ecc7a,64d115e8d32e3a56eb5d7664,,,,,,,decisionTrl,resources/DG.BMP,resources/DB.BMP,WildCard_Ex,0.346354167,0.03125,1,0,0,2.639,optionRight,5,75,1,1,0,1,0,1,,,,,,,,,,,,,,,,,,,,,,,,,,,,,,,,,,,,,,,
,,,,,,,6393f158851fb438d2ceb5d7,2023-08-07_17h04.53.098,HF_wild_card,2022.2.4,Win32,59.59475566,6393f158851fb438d2ceb5d7,64ce5acb97489d65b14ecc7a,64d115e8d32e3a56eb5d7664,,,,,,,decisionTrl,resources/DG.BMP,resources/DR.BMP,Door2,0.30078125,-0.00390625,1,0,0,3.7181,optionRight,40,115,1,2,0,2,0,1,,,,,,,,,,,,,,,,,,,,,,,,,,,,,,,,,,,,,,,
,,,,,,,6393f158851fb438d2ceb5d7,2023-08-07_17h04.53.098,HF_wild_card,2022.2.4,Win32,59.59475566,6393f158851fb438d2ceb5d7,64ce5acb97489d65b14ecc7a,64d115e8d32e3a56eb5d7664,,,,,,,ctch,resources/DY.BMP,resources/DG.BMP,Door4,-0.298177083,0.018229167,1,0,0,3.0516,optionLeft,80,195,1,3,0,3,0,1,,,,,,,,,,,,,,,,,,,,,,,,,,,,,,,,,,,,,,,
,,,,,,,6393f158851fb438d2ceb5d7,2023-08-07_17h04.53.098,HF_wild_card,2022.2.4,Win32,59.59475566,6393f158851fb438d2ceb5d7,64ce5acb97489d65b14ecc7a,64d115e8d32e3a56eb5d7664,,,,,,,ctch,resources/DP.BMP,resources/DR.BMP,Door3,-0.244791667,-0.005208333,1,0,0,3.9609,optionLeft,70,265,1,4,0,4,0,1,,,,,,,,,,,,,,,,,,,,,,,,,,,,,,,,,,,,,,,
,,,,,,,6393f158851fb438d2ceb5d7,2023-08-07_17h04.53.098,HF_wild_card,2022.2.4,Win32,59.59475566,6393f158851fb438d2ceb5d7,64ce5acb97489d65b14ecc7a,64d115e8d32e3a56eb5d7664,,,,,,,decisionTrl,resources/DG.BMP,resources/DR.BMP,Door2,0.329427083,0.04296875,1,0,0,1.8844,optionRight,40,305,1,5,0,5,0,1,,,,,,,,,,,,,,,,,,,,,,,,,,,,,,,,,,,,,,,
,,,,,,,6393f158851fb438d2ceb5d7,2023-08-07_17h04.53.098,HF_wild_card,2022.2.4,Win32,59.59475566,6393f158851fb438d2ceb5d7,64ce5acb97489d65b14ecc7a,64d115e8d32e3a56eb5d7664,,,,,,,sngl,resources/DB.BMP,resources/Empty.png,WildCard_Ex,-0.389322917,0.032552083,1,0,0,2.0538,optionLeft,95,400,1,6,0,6,0,1,,,,,,,,,,,,,,,,,,,,,,,,,,,,,,,,,,,,,,,
,,,,,,,6393f158851fb438d2ceb5d7,2023-08-07_17h04.53.098,HF_wild_card,2022.2.4,Win32,59.59475566,6393f158851fb438d2ceb5d7,64ce5acb97489d65b14ecc7a,64d115e8d32e3a56eb5d7664,,,,,,,ctch,resources/DP.BMP,resources/DR.BMP,Door2,0.356770833,0.040364583,1,0,0,2.8143,optionRight,20,420,1,7,0,7,0,1,,,,,,,,,,,,,,,,,,,,,,,,,,,,,,,,,,,,,,,
,,,,,,,6393f158851fb438d2ceb5d7,2023-08-07_17h04.53.098,HF_wild_card,2022.2.4,Win32,59.59475566,6393f158851fb438d2ceb5d7,64ce5acb97489d65b14ecc7a,64d115e8d32e3a56eb5d7664,,,,,,,sngl,resources/Empty.png,resources/DP.BMP,Door3,0.372395833,0.049479167,1,0,0,1.664,optionRight,70,490,1,8,0,8,0,1,,,,,,,,,,,,,,,,,,,,,,,,,,,,,,,,,,,,,,,
,,,,,,,6393f158851fb438d2ceb5d7,2023-08-07_17h04.53.098,HF_wild_card,2022.2.4,Win32,59.59475566,6393f158851fb438d2ceb5d7,64ce5acb97489d65b14ecc7a,64d115e8d32e3a56eb5d7664,,,,,,,decisionTrl,resources/DR.BMP,resources/DB.BMP,WildCard_Ex,0.388020833,0.098958333,1,0,0,3.6202,optionRight,5,495,1,9,0,9,0,1,,,,,,,,,,,,,,,,,,,,,,,,,,,,,,,,,,,,,,,
,,,,,,,6393f158851fb438d2ceb5d7,2023-08-07_17h04.53.098,HF_wild_card,2022.2.4,Win32,59.59475566,6393f158851fb438d2ceb5d7,64ce5acb97489d65b14ecc7a,64d115e8d32e3a56eb5d7664,,,,,,,decisionTrl,resources/DP.BMP,resources/DY.BMP,Door3,-0.305989583,-0.009114583,1,0,0,2.2625,optionLeft,70,565,1,10,0,10,0,1,,,,,,,,,,,,,,,,,,,,,,,,,,,,,,,,,,,,,,,
,,,,,,,6393f158851fb438d2ceb5d7,2023-08-07_17h04.53.098,HF_wild_card,2022.2.4,Win32,59.59475566,6393f158851fb438d2ceb5d7,64ce5acb97489d65b14ecc7a,64d115e8d32e3a56eb5d7664,,,,,,,decisionTrl,resources/DR.BMP,resources/DG.BMP,Door2,-0.329427083,-0.001302083,1,0,0,1.8643,optionLeft,40,605,1,11,0,11,0,1,,,,,,,,,,,,,,,,,,,,,,,,,,,,,,,,,,,,,,,
,,,,,,,6393f158851fb438d2ceb5d7,2023-08-07_17h04.53.098,HF_wild_card,2022.2.4,Win32,59.59475566,6393f158851fb438d2ceb5d7,64ce5acb97489d65b14ecc7a,64d115e8d32e3a56eb5d7664,,,,,,,sngl,resources/Empty.png,resources/DG.BMP,Door1,0.29296875,0.03125,1,0,0,1.7585,optionRight,30,635,1,12,0,12,0,1,,,,,,,,,,,,,,,,,,,,,,,,,,,,,,,,,,,,,,,
,,,,,,,6393f158851fb438d2ceb5d7,2023-08-07_17h04.53.098,HF_wild_card,2022.2.4,Win32,59.59475566,6393f158851fb438d2ceb5d7,64ce5acb97489d65b14ecc7a,64d115e8d32e3a56eb5d7664,,,,,,,sngl,resources/Empty.png,resources/DR.BMP,Door2,0.330729167,0.065104167,1,0,0,1.3185,optionRight,20,655,1,13,0,13,0,1,,,,,,,,,,,,,,,,,,,,,,,,,,,,,,,,,,,,,,,
,,,,,,,6393f158851fb438d2ceb5d7,2023-08-07_17h04.53.098,HF_wild_card,2022.2.4,Win32,59.59475566,6393f158851fb438d2ceb5d7,64ce5acb97489d65b14ecc7a,64d115e8d32e3a56eb5d7664,,,,,,,sngl,resources/Empty.png,resources/DB.BMP,WildCard_Ex,0.34765625,0.046875,1,0,0,1.3844,optionRight,5,660,1,14,0,14,0,1,,,,,,,,,,,,,,,,,,,,,,,,,,,,,,,,,,,,,,,
,,,,,,,6393f158851fb438d2ceb5d7,2023-08-07_17h04.53.098,HF_wild_card,2022.2.4,Win32,59.59475566,6393f158851fb438d2ceb5d7,64ce5acb97489d65b14ecc7a,64d115e8d32e3a56eb5d7664,,,,,,,ctch,resources/DG.BMP,resources/DY.BMP,Door4,0.380208333,0.020833333,1,0,0,1.7479,optionRight,60,720,1,15,0,15,0,1,,,,,,,,,,,,,,,,,,,,,,,,,,,,,,,,,,,,,,,
,,,,,,,6393f158851fb438d2ceb5d7,2023-08-07_17h04.53.098,HF_wild_card,2022.2.4,Win32,59.59475566,6393f158851fb438d2ceb5d7,64ce5acb97489d65b14ecc7a,64d115e8d32e3a56eb5d7664,,,,,,,decisionTrl,resources/DP.BMP,resources/DY.BMP,Door4,0.328125,0.024739583,1,0,0,1.6043,optionRight,80,800,1,16,0,16,0,1,,,,,,,,,,,,,,,,,,,,,,,,,,,,,,,,,,,,,,,
,,,,,,,6393f158851fb438d2ceb5d7,2023-08-07_17h04.53.098,HF_wild_card,2022.2.4,Win32,59.59475566,6393f158851fb438d2ceb5d7,64ce5acb97489d65b14ecc7a,64d115e8d32e3a56eb5d7664,,,,,,,decisionTrl,resources/DG.BMP,resources/DR.BMP,Door2,0.311197917,0,1,0,0,2.261,optionRight,20,820,1,17,0,17,0,1,,,,,,,,,,,,,,,,,,,,,,,,,,,,,,,,,,,,,,,
,,,,,,,6393f158851fb438d2ceb5d7,2023-08-07_17h04.53.098,HF_wild_card,2022.2.4,Win32,59.59475566,6393f158851fb438d2ceb5d7,64ce5acb97489d65b14ecc7a,64d115e8d32e3a56eb5d7664,,,,,,,decisionTrl,resources/DR.BMP,resources/DG.BMP,Door1,0.30078125,0.009114583,1,0,0,2.2869,optionRight,30,850,1,18,0,18,0,1,,,,,,,,,,,,,,,,,,,,,,,,,,,,,,,,,,,,,,,
,,,,,,,6393f158851fb438d2ceb5d7,2023-08-07_17h04.53.098,HF_wild_card,2022.2.4,Win32,59.59475566,6393f158851fb438d2ceb5d7,64ce5acb97489d65b14ecc7a,64d115e8d32e3a56eb5d7664,,,,,,,sngl,resources/DG.BMP,resources/Empty.png,Door1,-0.32421875,0.040364583,1,0,0,1.2788,optionLeft,30,880,1,19,0,19,0,1,,,,,,,,,,,,,,,,,,,,,,,,,,,,,,,,,,,,,,,
,,,,,,,6393f158851fb438d2ceb5d7,2023-08-07_17h04.53.098,HF_wild_card,2022.2.4,Win32,59.59475566,6393f158851fb438d2ceb5d7,64ce5acb97489d65b14ecc7a,64d115e8d32e3a56eb5d7664,,,,,,,decisionTrl,resources/DY.BMP,resources/DP.BMP,Door4,-0.286458333,0.002604167,1,0,0,1.7863,optionLeft,60,940,1,20,0,20,0,1,,,,,,,,,,,,,,,,,,,,,,,,,,,,,,,,,,,,,,,
,,,,,,,6393f158851fb438d2ceb5d7,2023-08-07_17h04.53.098,HF_wild_card,2022.2.4,Win32,59.59475566,6393f158851fb438d2ceb5d7,64ce5acb97489d65b14ecc7a,64d115e8d32e3a56eb5d7664,,,,,,,decisionTrl,resources/DY.BMP,resources/DP.BMP,Door4,-0.255208333,0.04296875,1,0,0,1.4184,optionLeft,80,1020,1,21,0,21,0,1,,,,,,,,,,,,,,,,,,,,,,,,,,,,,,,,,,,,,,,
,,,,,,,6393f158851fb438d2ceb5d7,2023-08-07_17h04.53.098,HF_wild_card,2022.2.4,Win32,59.59475566,6393f158851fb438d2ceb5d7,64ce5acb97489d65b14ecc7a,64d115e8d32e3a56eb5d7664,,,,,,,ctch,resources/DR.BMP,resources/DP.BMP,Door3,0.298177083,0.013020833,1,0,0,3.4587,optionRight,70,1090,1,22,0,22,0,1,,,,,,,,,,,,,,,,,,,,,,,,,,,,,,,,,,,,,,,
,,,,,,,6393f158851fb438d2ceb5d7,2023-08-07_17h04.53.098,HF_wild_card,2022.2.4,Win32,59.59475566,6393f158851fb438d2ceb5d7,64ce5acb97489d65b14ecc7a,64d115e8d32e3a56eb5d7664,,,,,,,decisionTrl,resources/DY.BMP,resources/DP.BMP,Door4,-0.282552083,0.0390625,1,0,0,2.52,optionLeft,60,1150,1,23,0,23,0,1,,,,,,,,,,,,,,,,,,,,,,,,,,,,,,,,,,,,,,,
,,,,,,,6393f158851fb438d2ceb5d7,2023-08-07_17h04.53.098,HF_wild_card,2022.2.4,Win32,59.59475566,6393f158851fb438d2ceb5d7,64ce5acb97489d65b14ecc7a,64d115e8d32e3a56eb5d7664,,,,,,,sngl,resources/Empty.png,resources/DY.BMP,Door4,0.30078125,0.03125,1,0,0,1.5009,optionRight,60,1210,1,24,0,24,0,1,,,,,,,,,,,,,,,,,,,,,,,,,,,,,,,,,,,,,,,
,,,,,,,6393f158851fb438d2ceb5d7,2023-08-07_17h04.53.098,HF_wild_card,2022.2.4,Win32,59.59475566,6393f158851fb438d2ceb5d7,64ce5acb97489d65b14ecc7a,64d115e8d32e3a56eb5d7664,,,,,,,sngl,resources/DY.BMP,resources/Empty.png,Door4,-0.256510417,0.0234375,1,0,0,1.1433,optionLeft,80,1290,1,25,0,25,0,1,,,,,,,,,,,,,,,,,,,,,,,,,,,,,,,,,,,,,,,
,,,,,,,6393f158851fb438d2ceb5d7,2023-08-07_17h04.53.098,HF_wild_card,2022.2.4,Win32,59.59475566,6393f158851fb438d2ceb5d7,64ce5acb97489d65b14ecc7a,64d115e8d32e3a56eb5d7664,,,,,,,decisionTrl,resources/DP.BMP,resources/DY.BMP,Door4,0.298177083,0.033854167,1,0,0,3.0401,optionRight,80,1370,1,26,0,26,0,1,,,,,,,,,,,,,,,,,,,,,,,,,,,,,,,,,,,,,,,
,,,,,,,6393f158851fb438d2ceb5d7,2023-08-07_17h04.53.098,HF_wild_card,2022.2.4,Win32,59.59475566,6393f158851fb438d2ceb5d7,64ce5acb97489d65b14ecc7a,64d115e8d32e3a56eb5d7664,,,,,,,decisionTrl,resources/DP.BMP,resources/DY.BMP,Door4,0.282552083,0.067708333,1,0,0,2.8557,optionRight,60,1430,1,27,0,27,0,1,,,,,,,,,,,,,,,,,,,,,,,,,,,,,,,,,,,,,,,
,,,,,,,6393f158851fb438d2ceb5d7,2023-08-07_17h04.53.098,HF_wild_card,2022.2.4,Win32,59.59475566,6393f158851fb438d2ceb5d7,64ce5acb97489d65b14ecc7a,64d115e8d32e3a56eb5d7664,,,,,,,decisionTrl,resources/DY.BMP,resources/DB.BMP,Door4,-0.282552083,0.049479167,1,0,0,1.6191,optionLeft,80,1510,1,28,0,28,0,1,,,,,,,,,,,,,,,,,,,,,,,,,,,,,,,,,,,,,,,
,,,,,,,6393f158851fb438d2ceb5d7,2023-08-07_17h04.53.098,HF_wild_card,2022.2.4,Win32,59.59475566,6393f158851fb438d2ceb5d7,64ce5acb97489d65b14ecc7a,64d115e8d32e3a56eb5d7664,,,,,,,decisionTrl,resources/DB.BMP,resources/DY.BMP,Door4,0.373697917,0.059895833,1,0,0,1.4839,optionRight,60,1570,1,29,0,29,0,1,,,,,,,,,,,,,,,,,,,,,,,,,,,,,,,,,,,,,,,
,,,,,,,6393f158851fb438d2ceb5d7,2023-08-07_17h04.53.098,HF_wild_card,2022.2.4,Win32,59.59475566,6393f158851fb438d2ceb5d7,64ce5acb97489d65b14ecc7a,64d115e8d32e3a56eb5d7664,,,,,,,decisionTrl,resources/DR.BMP,resources/DG.BMP,Door1,0.305989583,0.091145833,1,0,0,2.974,optionRight,30,1600,1,30,0,30,0,1,,,,,,,,,,,,,,,,,,,,,,,,,,,,,,,,,,,,,,,
,,,,,,,6393f158851fb438d2ceb5d7,2023-08-07_17h04.53.098,HF_wild_card,2022.2.4,Win32,59.59475566,6393f158851fb438d2ceb5d7,64ce5acb97489d65b14ecc7a,64d115e8d32e3a56eb5d7664,,,,,,,decisionTrl,resources/DB.BMP,resources/DP.BMP,Door3,0.36328125,0.03515625,1,0,0,2.1522,optionRight,70,1670,1,31,0,31,0,1,,,,,,,,,,,,,,,,,,,,,,,,,,,,,,,,,,,,,,,
,,,,,,,6393f158851fb438d2ceb5d7,2023-08-07_17h04.53.098,HF_wild_card,2022.2.4,Win32,59.59475566,6393f158851fb438d2ceb5d7,64ce5acb97489d65b14ecc7a,64d115e8d32e3a56eb5d7664,,,,,,,sngl,resources/DR.BMP,resources/Empty.png,Door2,-0.233072917,0.061197917,1,0,0,1.6675,optionLeft,40,1710,1,32,0,32,0,1,,,,,,,,,,,,,,,,,,,,,,,,,,,,,,,,,,,,,,,
,,,,,,,6393f158851fb438d2ceb5d7,2023-08-07_17h04.53.098,HF_wild_card,2022.2.4,Win32,59.59475566,6393f158851fb438d2ceb5d7,64ce5acb97489d65b14ecc7a,64d115e8d32e3a56eb5d7664,,,,,,,sngl,resources/Empty.png,resources/DB.BMP,WildCard_Ex,0.286458333,0.022135417,1,0,0,1.3347,optionRight,95,1805,1,33,0,33,0,1,,,,,,,,,,,,,,,,,,,,,,,,,,,,,,,,,,,,,,,
,,,,,,,6393f158851fb438d2ceb5d7,2023-08-07_17h04.53.098,HF_wild_card,2022.2.4,Win32,59.59475566,6393f158851fb438d2ceb5d7,64ce5acb97489d65b14ecc7a,64d115e8d32e3a56eb5d7664,,,,,,,decisionTrl,resources/DB.BMP,resources/DG.BMP,WildCard_Ex,-0.2578125,0.05078125,1,0,0,1.3333,optionLeft,5,1810,1,34,0,34,0,1,,,,,,,,,,,,,,,,,,,,,,,,,,,,,,,,,,,,,,,
,,,,,,,6393f158851fb438d2ceb5d7,2023-08-07_17h04.53.098,HF_wild_card,2022.2.4,Win32,59.59475566,6393f158851fb438d2ceb5d7,64ce5acb97489d65b14ecc7a,64d115e8d32e3a56eb5d7664,,,,,,,sngl,resources/DP.BMP,resources/Empty.png,Door3,-0.260416667,0.045572917,1,0,0,1.3172,optionLeft,70,1880,1,35,0,35,0,1,,,,,,,,,,,,,,,,,,,,,,,,,,,,,,,,,,,,,,,
,,,,,,,6393f158851fb438d2ceb5d7,2023-08-07_17h04.53.098,HF_wild_card,2022.2.4,Win32,59.59475566,6393f158851fb438d2ceb5d7,64ce5acb97489d65b14ecc7a,64d115e8d32e3a56eb5d7664,,,,,,,decisionTrl,resources/DG.BMP,resources/DR.BMP,Door2,0.248697917,0.024739583,1,0,0,2.8218,optionRight,20,1900,1,36,0,36,0,1,,,,,,,,,,,,,,,,,,,,,,,,,,,,,,,,,,,,,,,
,,,,,,,6393f158851fb438d2ceb5d7,2023-08-07_17h04.53.098,HF_wild_card,2022.2.4,Win32,59.59475566,6393f158851fb438d2ceb5d7,64ce5acb97489d65b14ecc7a,64d115e8d32e3a56eb5d7664,,,,,,,decisionTrl,resources/DP.BMP,resources/DB.BMP,Door3,-0.27734375,0.036458333,1,0,0,1.7679,optionLeft,70,1970,1,37,0,37,0,1,,,,,,,,,,,,,,,,,,,,,,,,,,,,,,,,,,,,,,,
,,,,,,,6393f158851fb438d2ceb5d7,2023-08-07_17h04.53.098,HF_wild_card,2022.2.4,Win32,59.59475566,6393f158851fb438d2ceb5d7,64ce5acb97489d65b14ecc7a,64d115e8d32e3a56eb5d7664,,,,,,,sngl,resources/DB.BMP,resources/Empty.png,WildCard_Ex,-0.204427083,0.03125,1,0,0,1.5018,optionLeft,5,1975,1,38,0,38,0,1,,,,,,,,,,,,,,,,,,,,,,,,,,,,,,,,,,,,,,,
,,,,,,,6393f158851fb438d2ceb5d7,2023-08-07_17h04.53.098,HF_wild_card,2022.2.4,Win32,59.59475566,6393f158851fb438d2ceb5d7,64ce5acb97489d65b14ecc7a,64d115e8d32e3a56eb5d7664,,,,,,,ctch,resources/DR.BMP,resources/DP.BMP,Door3,0.454427083,0.057291667,1,0,0,1.3348,optionRight,70,2045,1,39,0,39,0,1,,,,,,,,,,,,,,,,,,,,,,,,,,,,,,,,,,,,,,,
,,,,,,,6393f158851fb438d2ceb5d7,2023-08-07_17h04.53.098,HF_wild_card,2022.2.4,Win32,59.59475566,6393f158851fb438d2ceb5d7,64ce5acb97489d65b14ecc7a,64d115e8d32e3a56eb5d7664,,,,,,,decisionTrl,resources/DR.BMP,resources/DG.BMP,Door2,-0.270833333,0.063802083,1,0,0,2.2707,optionLeft,20,2065,1,40,0,40,0,1,,,,,,,,,,,,,,,,,,,,,,,,,,,,,,,,,,,,,,,
,,,,,,,6393f158851fb438d2ceb5d7,2023-08-07_17h04.53.098,HF_wild_card,2022.2.4,Win32,59.59475566,6393f158851fb438d2ceb5d7,64ce5acb97489d65b14ecc7a,64d115e8d32e3a56eb5d7664,,,,,,,ctch,resources/DG.BMP,resources/DY.BMP,Door4,0.326822917,0.061197917,1,0,0,1.2502,optionRight,60,2125,1,41,0,41,0,1,,,,,,,,,,,,,,,,,,,,,,,,,,,,,,,,,,,,,,,
,,,,,,,6393f158851fb438d2ceb5d7,2023-08-07_17h04.53.098,HF_wild_card,2022.2.4,Win32,59.59475566,6393f158851fb438d2ceb5d7,64ce5acb97489d65b14ecc7a,64d115e8d32e3a56eb5d7664,,,,,,,ctch,resources/DY.BMP,resources/DG.BMP,Door4,-0.2578125,0.055989583,1,0,0,1.2837,optionLeft,80,2205,1,42,0,42,0,1,,,,,,,,,,,,,,,,,,,,,,,,,,,,,,,,,,,,,,,
,,,,,,,6393f158851fb438d2ceb5d7,2023-08-07_17h04.53.098,HF_wild_card,2022.2.4,Win32,59.59475566,6393f158851fb438d2ceb5d7,64ce5acb97489d65b14ecc7a,64d115e8d32e3a56eb5d7664,,,,,,,decisionTrl,resources/DB.BMP,resources/DR.BMP,Door2,0.309895833,0.044270833,1,0,0,3.1911,optionRight,20,2225,1,43,0,43,0,1,,,,,,,,,,,,,,,,,,,,,,,,,,,,,,,,,,,,,,,
,,,,,,,6393f158851fb438d2ceb5d7,2023-08-07_17h04.53.098,HF_wild_card,2022.2.4,Win32,59.59475566,6393f158851fb438d2ceb5d7,64ce5acb97489d65b14ecc7a,64d115e8d32e3a56eb5d7664,,,,,,,,,,,,,,,,,,,,,,,,,,0,0,0,0,1,,,,,,,,,,,,,,,,,,,,,,,,,,,,,,,,,,
,,,,,,,6393f158851fb438d2ceb5d7,2023-08-07_17h04.53.098,HF_wild_card,2022.2.4,Win32,59.59475566,6393f158851fb438d2ceb5d7,64ce5acb97489d65b14ecc7a,64d115e8d32e3a56eb5d7664,,,,,,,decisionTrl,resources/DG.BMP,resources/DR.BMP,Door2,0.391927083,0.022135417,1,0,0,4.7041,optionRight,40,2265,2,0,0,0,0,1,,,,,,,,,,,,,,,,,,,,,,,,,,,,,,,,,,,,,,,
,,,,,,,6393f158851fb438d2ceb5d7,2023-08-07_17h04.53.098,HF_wild_card,2022.2.4,Win32,59.59475566,6393f158851fb438d2ceb5d7,64ce5acb97489d65b14ecc7a,64d115e8d32e3a56eb5d7664,,,,,,,sngl,resources/DP.BMP,resources/Empty.png,Door3,-0.28125,-0.015625,1,0,0,1.3682,optionLeft,70,2335,2,1,0,1,0,1,,,,,,,,,,,,,,,,,,,,,,,,,,,,,,,,,,,,,,,
,,,,,,,6393f158851fb438d2ceb5d7,2023-08-07_17h04.53.098,HF_wild_card,2022.2.4,Win32,59.59475566,6393f158851fb438d2ceb5d7,64ce5acb97489d65b14ecc7a,64d115e8d32e3a56eb5d7664,,,,,,,sngl,resources/DB.BMP,resources/Empty.png,WildCard_Ex,-0.223958333,0.0078125,1,0,0,1.2169,optionLeft,95,2430,2,2,0,2,0,1,,,,,,,,,,,,,,,,,,,,,,,,,,,,,,,,,,,,,,,
,,,,,,,6393f158851fb438d2ceb5d7,2023-08-07_17h04.53.098,HF_wild_card,2022.2.4,Win32,59.59475566,6393f158851fb438d2ceb5d7,64ce5acb97489d65b14ecc7a,64d115e8d32e3a56eb5d7664,,,,,,,decisionTrl,resources/DP.BMP,resources/DY.BMP,Door4,-0.005208333,0.002604167,1,0,0,0.63,optionRight,60,2490,2,3,0,3,0,1,,,,,,,,,,,,,,,,,,,,,,,,,,,,,,,,,,,,,,,
,,,,,,,6393f158851fb438d2ceb5d7,2023-08-07_17h04.53.098,HF_wild_card,2022.2.4,Win32,59.59475566,6393f158851fb438d2ceb5d7,64ce5acb97489d65b14ecc7a,64d115e8d32e3a56eb5d7664,,,,,,,decisionTrl,resources/DB.BMP,resources/DP.BMP,WildCard_Ex,-0.266927083,-0.009114583,1,0,0,1.4519,optionLeft,95,2585,2,4,0,4,0,1,,,,,,,,,,,,,,,,,,,,,,,,,,,,,,,,,,,,,,,
,,,,,,,6393f158851fb438d2ceb5d7,2023-08-07_17h04.53.098,HF_wild_card,2022.2.4,Win32,59.59475566,6393f158851fb438d2ceb5d7,64ce5acb97489d65b14ecc7a,64d115e8d32e3a56eb5d7664,,,,,,,decisionTrl,resources/DR.BMP,resources/DG.BMP,Door2,-0.24609375,0.040364583,1,0,0,1.6341,optionLeft,20,2605,2,5,0,5,0,1,,,,,,,,,,,,,,,,,,,,,,,,,,,,,,,,,,,,,,,
,,,,,,,6393f158851fb438d2ceb5d7,2023-08-07_17h04.53.098,HF_wild_card,2022.2.4,Win32,59.59475566,6393f158851fb438d2ceb5d7,64ce5acb97489d65b14ecc7a,64d115e8d32e3a56eb5d7664,,,,,,,decisionTrl,resources/DP.BMP,resources/DY.BMP,Door3,-0.358072917,0.006510417,1,0,0,1.552,optionLeft,70,2675,2,6,0,6,0,1,,,,,,,,,,,,,,,,,,,,,,,,,,,,,,,,,,,,,,,
,,,,,,,6393f158851fb438d2ceb5d7,2023-08-07_17h04.53.098,HF_wild_card,2022.2.4,Win32,59.59475566,6393f158851fb438d2ceb5d7,64ce5acb97489d65b14ecc7a,64d115e8d32e3a56eb5d7664,,,,,,,decisionTrl,resources/DP.BMP,resources/DB.BMP,WildCard_Ex,0.356770833,0.12890625,1,0,0,1.3514,optionRight,95,2770,2,7,0,7,0,1,,,,,,,,,,,,,,,,,,,,,,,,,,,,,,,,,,,,,,,
,,,,,,,6393f158851fb438d2ceb5d7,2023-08-07_17h04.53.098,HF_wild_card,2022.2.4,Win32,59.59475566,6393f158851fb438d2ceb5d7,64ce5acb97489d65b14ecc7a,64d115e8d32e3a56eb5d7664,,,,,,,sngl,resources/DY.BMP,resources/Empty.png,Door4,-0.260416667,0.055989583,1,0,0,1.2,optionLeft,60,2830,2,8,0,8,0,1,,,,,,,,,,,,,,,,,,,,,,,,,,,,,,,,,,,,,,,
,,,,,,,6393f158851fb438d2ceb5d7,2023-08-07_17h04.53.098,HF_wild_card,2022.2.4,Win32,59.59475566,6393f158851fb438d2ceb5d7,64ce5acb97489d65b14ecc7a,64d115e8d32e3a56eb5d7664,,,,,,,decisionTrl,resources/DY.BMP,resources/DB.BMP,WildCard_Ex,0.307291667,0.095052083,1,0,0,1.1,optionRight,5,2835,2,9,0,9,0,1,,,,,,,,,,,,,,,,,,,,,,,,,,,,,,,,,,,,,,,
,,,,,,,6393f158851fb438d2ceb5d7,2023-08-07_17h04.53.098,HF_wild_card,2022.2.4,Win32,59.59475566,6393f158851fb438d2ceb5d7,64ce5acb97489d65b14ecc7a,64d115e8d32e3a56eb5d7664,,,,,,,sngl,resources/Empty.png,resources/DG.BMP,Door1,0.28125,0.131510417,1,0,0,1.0745,optionRight,30,2865,2,10,0,10,0,1,,,,,,,,,,,,,,,,,,,,,,,,,,,,,,,,,,,,,,,
,,,,,,,6393f158851fb438d2ceb5d7,2023-08-07_17h04.53.098,HF_wild_card,2022.2.4,Win32,59.59475566,6393f158851fb438d2ceb5d7,64ce5acb97489d65b14ecc7a,64d115e8d32e3a56eb5d7664,,,,,,,decisionTrl,resources/DR.BMP,resources/DG.BMP,Door2,-0.244791667,0.057291667,1,0,0,1.8009,optionLeft,20,2885,2,11,0,11,0,1,,,,,,,,,,,,,,,,,,,,,,,,,,,,,,,,,,,,,,,
,,,,,,,6393f158851fb438d2ceb5d7,2023-08-07_17h04.53.098,HF_wild_card,2022.2.4,Win32,59.59475566,6393f158851fb438d2ceb5d7,64ce5acb97489d65b14ecc7a,64d115e8d32e3a56eb5d7664,,,,,,,decisionTrl,resources/DY.BMP,resources/DP.BMP,Door3,0.220052083,0.032552083,1,0,0,1.2164,optionRight,70,2955,2,12,0,12,0,1,,,,,,,,,,,,,,,,,,,,,,,,,,,,,,,,,,,,,,,
,,,,,,,6393f158851fb438d2ceb5d7,2023-08-07_17h04.53.098,HF_wild_card,2022.2.4,Win32,59.59475566,6393f158851fb438d2ceb5d7,64ce5acb97489d65b14ecc7a,64d115e8d32e3a56eb5d7664,,,,,,,sngl,resources/Empty.png,resources/DB.BMP,WildCard_Ex,0.282552083,0.040364583,1,0,0,1.2654,optionRight,5,2960,2,13,0,13,0,1,,,,,,,,,,,,,,,,,,,,,,,,,,,,,,,,,,,,,,,
,,,,,,,6393f158851fb438d2ceb5d7,2023-08-07_17h04.53.098,HF_wild_card,2022.2.4,Win32,59.59475566,6393f158851fb438d2ceb5d7,64ce5acb97489d65b14ecc7a,64d115e8d32e3a56eb5d7664,,,,,,,sngl,resources/DR.BMP,resources/Empty.png,Door2,-0.299479167,0.029947917,1,0,0,1.1493,optionLeft,20,2980,2,14,0,14,0,1,,,,,,,,,,,,,,,,,,,,,,,,,,,,,,,,,,,,,,,
,,,,,,,6393f158851fb438d2ceb5d7,2023-08-07_17h04.53.098,HF_wild_card,2022.2.4,Win32,59.59475566,6393f158851fb438d2ceb5d7,64ce5acb97489d65b14ecc7a,64d115e8d32e3a56eb5d7664,,,,,,,decisionTrl,resources/DG.BMP,resources/DR.BMP,Door1,-0.2265625,0.05859375,1,0,0,1.584,optionLeft,30,3010,2,15,0,15,0,1,,,,,,,,,,,,,,,,,,,,,,,,,,,,,,,,,,,,,,,
,,,,,,,6393f158851fb438d2ceb5d7,2023-08-07_17h04.53.098,HF_wild_card,2022.2.4,Win32,59.59475566,6393f158851fb438d2ceb5d7,64ce5acb97489d65b14ecc7a,64d115e8d32e3a56eb5d7664,,,,,,,decisionTrl,resources/DB.BMP,resources/DY.BMP,Door4,0.29296875,0.0625,1,0,0,1.6693,optionRight,80,3090,2,16,0,16,0,1,,,,,,,,,,,,,,,,,,,,,,,,,,,,,,,,,,,,,,,
,,,,,,,6393f158851fb438d2ceb5d7,2023-08-07_17h04.53.098,HF_wild_card,2022.2.4,Win32,59.59475566,6393f158851fb438d2ceb5d7,64ce5acb97489d65b14ecc7a,64d115e8d32e3a56eb5d7664,,,,,,,decisionTrl,resources/DP.BMP,resources/DY.BMP,Door4,0.329427083,0.087239583,1,0,0,1.2984,optionRight,60,3150,2,17,0,17,0,1,,,,,,,,,,,,,,,,,,,,,,,,,,,,,,,,,,,,,,,
,,,,,,,6393f158851fb438d2ceb5d7,2023-08-07_17h04.53.098,HF_wild_card,2022.2.4,Win32,59.59475566,6393f158851fb438d2ceb5d7,64ce5acb97489d65b14ecc7a,64d115e8d32e3a56eb5d7664,,,,,,,ctch,resources/DY.BMP,resources/DG.BMP,Door4,-0.240885417,0.05078125,1,0,0,1.435,optionLeft,60,3210,2,18,0,18,0,1,,,,,,,,,,,,,,,,,,,,,,,,,,,,,,,,,,,,,,,
,,,,,,,6393f158851fb438d2ceb5d7,2023-08-07_17h04.53.098,HF_wild_card,2022.2.4,Win32,59.59475566,6393f158851fb438d2ceb5d7,64ce5acb97489d65b14ecc7a,64d115e8d32e3a56eb5d7664,,,,,,,sngl,resources/Empty.png,resources/DP.BMP,Door3,0.274739583,0.033854167,1,0,0,1.3186,optionRight,70,3280,2,19,0,19,0,1,,,,,,,,,,,,,,,,,,,,,,,,,,,,,,,,,,,,,,,
,,,,,,,6393f158851fb438d2ceb5d7,2023-08-07_17h04.53.098,HF_wild_card,2022.2.4,Win32,59.59475566,6393f158851fb438d2ceb5d7,64ce5acb97489d65b14ecc7a,64d115e8d32e3a56eb5d7664,,,,,,,decisionTrl,resources/DG.BMP,resources/DR.BMP,Door2,0.28125,0.078125,1,0,0,1.9041,optionRight,40,3320,2,20,0,20,0,1,,,,,,,,,,,,,,,,,,,,,,,,,,,,,,,,,,,,,,,
,,,,,,,6393f158851fb438d2ceb5d7,2023-08-07_17h04.53.098,HF_wild_card,2022.2.4,Win32,59.59475566,6393f158851fb438d2ceb5d7,64ce5acb97489d65b14ecc7a,64d115e8d32e3a56eb5d7664,,,,,,,decisionTrl,resources/DB.BMP,resources/DR.BMP,Door2,0.274739583,0.071614583,1,0,0,2.5563,optionRight,20,3340,2,21,0,21,0,1,,,,,,,,,,,,,,,,,,,,,,,,,,,,,,,,,,,,,,,
,,,,,,,6393f158851fb438d2ceb5d7,2023-08-07_17h04.53.098,HF_wild_card,2022.2.4,Win32,59.59475566,6393f158851fb438d2ceb5d7,64ce5acb97489d65b14ecc7a,64d115e8d32e3a56eb5d7664,,,,,,,decisionTrl,resources/DG.BMP,resources/DB.BMP,Door1,-0.325520833,0.049479167,1,0,0,1.5008,optionLeft,30,3370,2,22,0,22,0,1,,,,,,,,,,,,,,,,,,,,,,,,,,,,,,,,,,,,,,,
,,,,,,,6393f158851fb438d2ceb5d7,2023-08-07_17h04.53.098,HF_wild_card,2022.2.4,Win32,59.59475566,6393f158851fb438d2ceb5d7,64ce5acb97489d65b14ecc7a,64d115e8d32e3a56eb5d7664,,,,,,,decisionTrl,resources/DY.BMP,resources/DP.BMP,Door4,-0.223958333,0.076822917,1,0,0,2.103,optionLeft,60,3430,2,23,0,23,0,1,,,,,,,,,,,,,,,,,,,,,,,,,,,,,,,,,,,,,,,
,,,,,,,6393f158851fb438d2ceb5d7,2023-08-07_17h04.53.098,HF_wild_card,2022.2.4,Win32,59.59475566,6393f158851fb438d2ceb5d7,64ce5acb97489d65b14ecc7a,64d115e8d32e3a56eb5d7664,,,,,,,sngl,resources/Empty.png,resources/DR.BMP,Door2,0.24609375,0.063802083,1,0,0,1.2488,optionRight,40,3470,2,24,0,24,0,1,,,,,,,,,,,,,,,,,,,,,,,,,,,,,,,,,,,,,,,
,,,,,,,6393f158851fb438d2ceb5d7,2023-08-07_17h04.53.098,HF_wild_card,2022.2.4,Win32,59.59475566,6393f158851fb438d2ceb5d7,64ce5acb97489d65b14ecc7a,64d115e8d32e3a56eb5d7664,,,,,,,decisionTrl,resources/DY.BMP,resources/DP.BMP,Door4,-0.236979167,0.052083333,1,0,0,1.5025,optionLeft,60,3530,2,25,0,25,0,1,,,,,,,,,,,,,,,,,,,,,,,,,,,,,,,,,,,,,,,
,,,,,,,6393f158851fb438d2ceb5d7,2023-08-07_17h04.53.098,HF_wild_card,2022.2.4,Win32,59.59475566,6393f158851fb438d2ceb5d7,64ce5acb97489d65b14ecc7a,64d115e8d32e3a56eb5d7664,,,,,,,sngl,resources/DB.BMP,resources/Empty.png,WildCard_Ex,-0.221354167,0.05078125,1,0,0,1.1524,optionLeft,5,3535,2,26,0,26,0,1,,,,,,,,,,,,,,,,,,,,,,,,,,,,,,,,,,,,,,,
,,,,,,,6393f158851fb438d2ceb5d7,2023-08-07_17h04.53.098,HF_wild_card,2022.2.4,Win32,59.59475566,6393f158851fb438d2ceb5d7,64ce5acb97489d65b14ecc7a,64d115e8d32e3a56eb5d7664,,,,,,,sngl,resources/Empty.png,resources/DY.BMP,Door4,0.30859375,0.114583333,1,0,0,1.0678,optionRight,80,3615,2,27,0,27,0,1,,,,,,,,,,,,,,,,,,,,,,,,,,,,,,,,,,,,,,,
,,,,,,,6393f158851fb438d2ceb5d7,2023-08-07_17h04.53.098,HF_wild_card,2022.2.4,Win32,59.59475566,6393f158851fb438d2ceb5d7,64ce5acb97489d65b14ecc7a,64d115e8d32e3a56eb5d7664,,,,,,,sngl,resources/DG.BMP,resources/Empty.png,Door1,-0.217447917,0.046875,1,0,0,1.1165,optionLeft,30,3645,2,28,0,28,0,1,,,,,,,,,,,,,,,,,,,,,,,,,,,,,,,,,,,,,,,
,,,,,,,6393f158851fb438d2ceb5d7,2023-08-07_17h04.53.098,HF_wild_card,2022.2.4,Win32,59.59475566,6393f158851fb438d2ceb5d7,64ce5acb97489d65b14ecc7a,64d115e8d32e3a56eb5d7664,,,,,,,ctch,resources/DP.BMP,resources/DR.BMP,Door3,-0.2890625,0.08984375,1,0,0,1.534,optionLeft,70,3715,2,29,0,29,0,1,,,,,,,,,,,,,,,,,,,,,,,,,,,,,,,,,,,,,,,
,,,,,,,6393f158851fb438d2ceb5d7,2023-08-07_17h04.53.098,HF_wild_card,2022.2.4,Win32,59.59475566,6393f158851fb438d2ceb5d7,64ce5acb97489d65b14ecc7a,64d115e8d32e3a56eb5d7664,,,,,,,ctch,resources/DR.BMP,resources/DP.BMP,Door3,0.358072917,0.084635417,1,0,0,1.2343,optionRight,70,3785,2,30,0,30,0,1,,,,,,,,,,,,,,,,,,,,,,,,,,,,,,,,,,,,,,,
,,,,,,,6393f158851fb438d2ceb5d7,2023-08-07_17h04.53.098,HF_wild_card,2022.2.4,Win32,59.59475566,6393f158851fb438d2ceb5d7,64ce5acb97489d65b14ecc7a,64d115e8d32e3a56eb5d7664,,,,,,,ctch,resources/DP.BMP,resources/DR.BMP,Door3,-0.240885417,0.048177083,1,0,0,1.2324,optionLeft,70,3855,2,31,0,31,0,1,,,,,,,,,,,,,,,,,,,,,,,,,,,,,,,,,,,,,,,
,,,,,,,6393f158851fb438d2ceb5d7,2023-08-07_17h04.53.098,HF_wild_card,2022.2.4,Win32,59.59475566,6393f158851fb438d2ceb5d7,64ce5acb97489d65b14ecc7a,64d115e8d32e3a56eb5d7664,,,,,,,ctch,resources/DY.BMP,resources/DG.BMP,Door4,-0.240885417,0.072916667,1,0,0,1.3828,optionLeft,80,3935,2,32,0,32,0,1,,,,,,,,,,,,,,,,,,,,,,,,,,,,,,,,,,,,,,,
,,,,,,,6393f158851fb438d2ceb5d7,2023-08-07_17h04.53.098,HF_wild_card,2022.2.4,Win32,59.59475566,6393f158851fb438d2ceb5d7,64ce5acb97489d65b14ecc7a,64d115e8d32e3a56eb5d7664,,,,,,,decisionTrl,resources/DG.BMP,resources/DR.BMP,Door1,-0.251302083,0.045572917,1,0,0,3.0896,optionLeft,30,3965,2,33,0,33,0,1,,,,,,,,,,,,,,,,,,,,,,,,,,,,,,,,,,,,,,,
,,,,,,,6393f158851fb438d2ceb5d7,2023-08-07_17h04.53.098,HF_wild_card,2022.2.4,Win32,59.59475566,6393f158851fb438d2ceb5d7,64ce5acb97489d65b14ecc7a,64d115e8d32e3a56eb5d7664,,,,,,,decisionTrl,resources/DR.BMP,resources/DG.BMP,Door1,0.381510417,0.072916667,1,0,0,1.5185,optionRight,30,3995,2,34,0,34,0,1,,,,,,,,,,,,,,,,,,,,,,,,,,,,,,,,,,,,,,,
,,,,,,,6393f158851fb438d2ceb5d7,2023-08-07_17h04.53.098,HF_wild_card,2022.2.4,Win32,59.59475566,6393f158851fb438d2ceb5d7,64ce5acb97489d65b14ecc7a,64d115e8d32e3a56eb5d7664,,,,,,,decisionTrl,resources/DB.BMP,resources/DG.BMP,Door1,0.37109375,0.1171875,1,0,0,1.6509,optionRight,30,4025,2,35,0,35,0,1,,,,,,,,,,,,,,,,,,,,,,,,,,,,,,,,,,,,,,,
,,,,,,,6393f158851fb438d2ceb5d7,2023-08-07_17h04.53.098,HF_wild_card,2022.2.4,Win32,59.59475566,6393f158851fb438d2ceb5d7,64ce5acb97489d65b14ecc7a,64d115e8d32e3a56eb5d7664,,,,,,,decisionTrl,resources/DR.BMP,resources/DG.BMP,Door1,0.345052083,0.087239583,1,0,0,1.3346,optionRight,30,4055,2,36,0,36,0,1,,,,,,,,,,,,,,,,,,,,,,,,,,,,,,,,,,,,,,,
,,,,,,,6393f158851fb438d2ceb5d7,2023-08-07_17h04.53.098,HF_wild_card,2022.2.4,Win32,59.59475566,6393f158851fb438d2ceb5d7,64ce5acb97489d65b14ecc7a,64d115e8d32e3a56eb5d7664,,,,,,,decisionTrl,resources/DP.BMP,resources/DY.BMP,Door4,0.30078125,0.067708333,1,0,0,1.168,optionRight,60,4115,2,37,0,37,0,1,,,,,,,,,,,,,,,,,,,,,,,,,,,,,,,,,,,,,,,
,,,,,,,6393f158851fb438d2ceb5d7,2023-08-07_17h04.53.098,HF_wild_card,2022.2.4,Win32,59.59475566,6393f158851fb438d2ceb5d7,64ce5acb97489d65b14ecc7a,64d115e8d32e3a56eb5d7664,,,,,,,ctch,resources/DG.BMP,resources/DY.BMP,Door4,0.243489583,0.08203125,1,0,0,1.0993,optionRight,80,4195,2,38,0,38,0,1,,,,,,,,,,,,,,,,,,,,,,,,,,,,,,,,,,,,,,,
,,,,,,,6393f158851fb438d2ceb5d7,2023-08-07_17h04.53.098,HF_wild_card,2022.2.4,Win32,59.59475566,6393f158851fb438d2ceb5d7,64ce5acb97489d65b14ecc7a,64d115e8d32e3a56eb5d7664,,,,,,,ctch,resources/DG.BMP,resources/DY.BMP,Door4,0.282552083,0.083333333,1,0,0,1.0489,optionRight,80,4275,2,39,0,39,0,1,,,,,,,,,,,,,,,,,,,,,,,,,,,,,,,,,,,,,,,
,,,,,,,6393f158851fb438d2ceb5d7,2023-08-07_17h04.53.098,HF_wild_card,2022.2.4,Win32,59.59475566,6393f158851fb438d2ceb5d7,64ce5acb97489d65b14ecc7a,64d115e8d32e3a56eb5d7664,,,,,,,decisionTrl,resources/DR.BMP,resources/DB.BMP,Door2,-0.338541667,0.036458333,1,0,0,1.4681,optionLeft,40,4315,2,40,0,40,0,1,,,,,,,,,,,,,,,,,,,,,,,,,,,,,,,,,,,,,,,
,,,,,,,6393f158851fb438d2ceb5d7,2023-08-07_17h04.53.098,HF_wild_card,2022.2.4,Win32,59.59475566,6393f158851fb438d2ceb5d7,64ce5acb97489d65b14ecc7a,64d115e8d32e3a56eb5d7664,,,,,,,ctch,resources/DR.BMP,resources/DP.BMP,Door3,0.282552083,0.076822917,1,0,0,1.3179,optionRight,70,4385,2,41,0,41,0,1,,,,,,,,,,,,,,,,,,,,,,,,,,,,,,,,,,,,,,,
,,,,,,,6393f158851fb438d2ceb5d7,2023-08-07_17h04.53.098,HF_wild_card,2022.2.4,Win32,59.59475566,6393f158851fb438d2ceb5d7,64ce5acb97489d65b14ecc7a,64d115e8d32e3a56eb5d7664,,,,,,,decisionTrl,resources/DY.BMP,resources/DP.BMP,Door4,-0.322916667,0.09765625,1,0,0,1.4021,optionLeft,60,4445,2,42,0,42,0,1,,,,,,,,,,,,,,,,,,,,,,,,,,,,,,,,,,,,,,,
,,,,,,,6393f158851fb438d2ceb5d7,2023-08-07_17h04.53.098,HF_wild_card,2022.2.4,Win32,59.59475566,6393f158851fb438d2ceb5d7,64ce5acb97489d65b14ecc7a,64d115e8d32e3a56eb5d7664,,,,,,,sngl,resources/Empty.png,resources/DB.BMP,WildCard_Ex,0.255208333,0.046875,1,0,0,1.4841,optionRight,95,4540,2,43,0,43,0,1,,,,,,,,,,,,,,,,,,,,,,,,,,,,,,,,,,,,,,,
,,,,,,,6393f158851fb438d2ceb5d7,2023-08-07_17h04.53.098,HF_wild_card,2022.2.4,Win32,59.59475566,6393f158851fb438d2ceb5d7,64ce5acb97489d65b14ecc7a,64d115e8d32e3a56eb5d7664,,,,,,,,,,,,,,,,,,,,,,,,,,1,0,1,0,1,,,,,,,,,,,,,,,,,,,,,,,,,,,,,,,,,,
,,,,,,,6393f158851fb438d2ceb5d7,2023-08-07_17h04.53.098,HF_wild_card,2022.2.4,Win32,59.59475566,6393f158851fb438d2ceb5d7,64ce5acb97489d65b14ecc7a,64d115e8d32e3a56eb5d7664,,,,,,,sngl,resources/Empty.png,resources/DB.BMP,WildCard_Ex,0.302083333,-0.084635417,1,0,0,1.2914,optionRight,5,4545,3,0,0,0,0,1,,,,,,,,,,,,,,,,,,,,,,,,,,,,,,,,,,,,,,,
,,,,,,,6393f158851fb438d2ceb5d7,2023-08-07_17h04.53.098,HF_wild_card,2022.2.4,Win32,59.59475566,6393f158851fb438d2ceb5d7,64ce5acb97489d65b14ecc7a,64d115e8d32e3a56eb5d7664,,,,,,,ctch,resources/DR.BMP,resources/DP.BMP,Door3,0.325520833,-0.0390625,1,0,0,1.2852,optionRight,70,4615,3,1,0,1,0,1,,,,,,,,,,,,,,,,,,,,,,,,,,,,,,,,,,,,,,,
,,,,,,,6393f158851fb438d2ceb5d7,2023-08-07_17h04.53.098,HF_wild_card,2022.2.4,Win32,59.59475566,6393f158851fb438d2ceb5d7,64ce5acb97489d65b14ecc7a,64d115e8d32e3a56eb5d7664,,,,,,,decisionTrl,resources/DR.BMP,resources/DG.BMP,Door1,0.322916667,-0.005208333,1,0,0,1.5516,optionRight,30,4645,3,2,0,2,0,1,,,,,,,,,,,,,,,,,,,,,,,,,,,,,,,,,,,,,,,
,,,,,,,6393f158851fb438d2ceb5d7,2023-08-07_17h04.53.098,HF_wild_card,2022.2.4,Win32,59.59475566,6393f158851fb438d2ceb5d7,64ce5acb97489d65b14ecc7a,64d115e8d32e3a56eb5d7664,,,,,,,decisionTrl,resources/DR.BMP,resources/DG.BMP,Door2,-0.279947917,0.029947917,1,0,0,1.4169,optionLeft,20,4665,3,3,0,3,0,1,,,,,,,,,,,,,,,,,,,,,,,,,,,,,,,,,,,,,,,
,,,,,,,6393f158851fb438d2ceb5d7,2023-08-07_17h04.53.098,HF_wild_card,2022.2.4,Win32,59.59475566,6393f158851fb438d2ceb5d7,64ce5acb97489d65b14ecc7a,64d115e8d32e3a56eb5d7664,,,,,,,decisionTrl,resources/DR.BMP,resources/DB.BMP,WildCard_Ex,0.346354167,0.083333333,1,0,0,2.4892,optionRight,5,4670,3,4,0,4,0,1,,,,,,,,,,,,,,,,,,,,,,,,,,,,,,,,,,,,,,,
,,,,,,,6393f158851fb438d2ceb5d7,2023-08-07_17h04.53.098,HF_wild_card,2022.2.4,Win32,59.59475566,6393f158851fb438d2ceb5d7,64ce5acb97489d65b14ecc7a,64d115e8d32e3a56eb5d7664,,,,,,,decisionTrl,resources/DG.BMP,resources/DR.BMP,Door1,-0.268229167,0.040364583,1,0,0,1.1047,optionLeft,30,4700,3,5,0,5,0,1,,,,,,,,,,,,,,,,,,,,,,,,,,,,,,,,,,,,,,,
,,,,,,,6393f158851fb438d2ceb5d7,2023-08-07_17h04.53.098,HF_wild_card,2022.2.4,Win32,59.59475566,6393f158851fb438d2ceb5d7,64ce5acb97489d65b14ecc7a,64d115e8d32e3a56eb5d7664,,,,,,,decisionTrl,resources/DY.BMP,resources/DP.BMP,Door4,-0.279947917,0.05859375,1,0,0,1.7682,optionLeft,80,4780,3,6,0,6,0,1,,,,,,,,,,,,,,,,,,,,,,,,,,,,,,,,,,,,,,,
,,,,,,,6393f158851fb438d2ceb5d7,2023-08-07_17h04.53.098,HF_wild_card,2022.2.4,Win32,59.59475566,6393f158851fb438d2ceb5d7,64ce5acb97489d65b14ecc7a,64d115e8d32e3a56eb5d7664,,,,,,,decisionTrl,resources/DB.BMP,resources/DP.BMP,Door3,0.28125,0.08203125,1,0,0,1.1847,optionRight,70,4850,3,7,0,7,0,1,,,,,,,,,,,,,,,,,,,,,,,,,,,,,,,,,,,,,,,
,,,,,,,6393f158851fb438d2ceb5d7,2023-08-07_17h04.53.098,HF_wild_card,2022.2.4,Win32,59.59475566,6393f158851fb438d2ceb5d7,64ce5acb97489d65b14ecc7a,64d115e8d32e3a56eb5d7664,,,,,,,sngl,resources/DY.BMP,resources/Empty.png,Door4,-0.26171875,0.059895833,1,0,0,1,optionLeft,80,4930,3,8,0,8,0,1,,,,,,,,,,,,,,,,,,,,,,,,,,,,,,,,,,,,,,,
,,,,,,,6393f158851fb438d2ceb5d7,2023-08-07_17h04.53.098,HF_wild_card,2022.2.4,Win32,59.59475566,6393f158851fb438d2ceb5d7,64ce5acb97489d65b14ecc7a,64d115e8d32e3a56eb5d7664,,,,,,,decisionTrl,resources/DG.BMP,resources/DR.BMP,Door1,-0.234375,0.006510417,1,0,0,1.5845,optionLeft,30,4960,3,9,0,9,0,1,,,,,,,,,,,,,,,,,,,,,,,,,,,,,,,,,,,,,,,
,,,,,,,6393f158851fb438d2ceb5d7,2023-08-07_17h04.53.098,HF_wild_card,2022.2.4,Win32,59.59475566,6393f158851fb438d2ceb5d7,64ce5acb97489d65b14ecc7a,64d115e8d32e3a56eb5d7664,,,,,,,ctch,resources/DG.BMP,resources/DY.BMP,Door4,0.345052083,0.100260417,1,0,0,1.1002,optionRight,60,5020,3,10,0,10,0,1,,,,,,,,,,,,,,,,,,,,,,,,,,,,,,,,,,,,,,,
,,,,,,,6393f158851fb438d2ceb5d7,2023-08-07_17h04.53.098,HF_wild_card,2022.2.4,Win32,59.59475566,6393f158851fb438d2ceb5d7,64ce5acb97489d65b14ecc7a,64d115e8d32e3a56eb5d7664,,,,,,,decisionTrl,resources/DY.BMP,resources/DP.BMP,Door4,-0.290364583,0.049479167,1,0,0,1.0493,optionLeft,80,5100,3,11,0,11,0,1,,,,,,,,,,,,,,,,,,,,,,,,,,,,,,,,,,,,,,,
,,,,,,,6393f158851fb438d2ceb5d7,2023-08-07_17h04.53.098,HF_wild_card,2022.2.4,Win32,59.59475566,6393f158851fb438d2ceb5d7,64ce5acb97489d65b14ecc7a,64d115e8d32e3a56eb5d7664,,,,,,,sngl,resources/Empty.png,resources/DY.BMP,Door4,0.302083333,0.106770833,1,0,0,1.0333,optionRight,60,5160,3,12,0,12,0,1,,,,,,,,,,,,,,,,,,,,,,,,,,,,,,,,,,,,,,,
,,,,,,,6393f158851fb438d2ceb5d7,2023-08-07_17h04.53.098,HF_wild_card,2022.2.4,Win32,59.59475566,6393f158851fb438d2ceb5d7,64ce5acb97489d65b14ecc7a,64d115e8d32e3a56eb5d7664,,,,,,,decisionTrl,resources/DB.BMP,resources/DR.BMP,Door2,0.266927083,0.013020833,1,0,0,2.1628,optionRight,20,5180,3,13,0,13,0,1,,,,,,,,,,,,,,,,,,,,,,,,,,,,,,,,,,,,,,,
,,,,,,,6393f158851fb438d2ceb5d7,2023-08-07_17h04.53.098,HF_wild_card,2022.2.4,Win32,59.59475566,6393f158851fb438d2ceb5d7,64ce5acb97489d65b14ecc7a,64d115e8d32e3a56eb5d7664,,,,,,,ctch,resources/DR.BMP,resources/DP.BMP,Door3,0,0.00390625,1,0,0,0.7152,optionRight,70,5250,3,14,0,14,0,1,,,,,,,,,,,,,,,,,,,,,,,,,,,,,,,,,,,,,,,
,,,,,,,6393f158851fb438d2ceb5d7,2023-08-07_17h04.53.098,HF_wild_card,2022.2.4,Win32,59.59475566,6393f158851fb438d2ceb5d7,64ce5acb97489d65b14ecc7a,64d115e8d32e3a56eb5d7664,,,,,,,decisionTrl,resources/DR.BMP,resources/DG.BMP,Door1,0.223958333,0.05078125,1,0,0,1.551,optionRight,30,5280,3,15,0,15,0,1,,,,,,,,,,,,,,,,,,,,,,,,,,,,,,,,,,,,,,,
,,,,,,,6393f158851fb438d2ceb5d7,2023-08-07_17h04.53.098,HF_wild_card,2022.2.4,Win32,59.59475566,6393f158851fb438d2ceb5d7,64ce5acb97489d65b14ecc7a,64d115e8d32e3a56eb5d7664,,,,,,,sngl,resources/Empty.png,resources/DG.BMP,Door1,0.23828125,0.078125,1,0,0,0.9982,optionRight,30,5310,3,16,0,16,0,1,,,,,,,,,,,,,,,,,,,,,,,,,,,,,,,,,,,,,,,
,,,,,,,6393f158851fb438d2ceb5d7,2023-08-07_17h04.53.098,HF_wild_card,2022.2.4,Win32,59.59475566,6393f158851fb438d2ceb5d7,64ce5acb97489d65b14ecc7a,64d115e8d32e3a56eb5d7664,,,,,,,sngl,resources/Empty.png,resources/DB.BMP,WildCard_Ex,0.221354167,0.036458333,1,0,0,1.1171,optionRight,95,5405,3,17,0,17,0,1,,,,,,,,,,,,,,,,,,,,,,,,,,,,,,,,,,,,,,,
,,,,,,,6393f158851fb438d2ceb5d7,2023-08-07_17h04.53.098,HF_wild_card,2022.2.4,Win32,59.59475566,6393f158851fb438d2ceb5d7,64ce5acb97489d65b14ecc7a,64d115e8d32e3a56eb5d7664,,,,,,,decisionTrl,resources/DG.BMP,resources/DR.BMP,Door1,-0.263020833,0.08203125,1,0,0,1.3834,optionLeft,30,5435,3,18,0,18,0,1,,,,,,,,,,,,,,,,,,,,,,,,,,,,,,,,,,,,,,,
,,,,,,,6393f158851fb438d2ceb5d7,2023-08-07_17h04.53.098,HF_wild_card,2022.2.4,Win32,59.59475566,6393f158851fb438d2ceb5d7,64ce5acb97489d65b14ecc7a,64d115e8d32e3a56eb5d7664,,,,,,,decisionTrl,resources/DY.BMP,resources/DP.BMP,Door4,-0.264322917,0.029947917,1,0,0,1.3854,optionLeft,60,5495,3,19,0,19,0,1,,,,,,,,,,,,,,,,,,,,,,,,,,,,,,,,,,,,,,,
,,,,,,,6393f158851fb438d2ceb5d7,2023-08-07_17h04.53.098,HF_wild_card,2022.2.4,Win32,59.59475566,6393f158851fb438d2ceb5d7,64ce5acb97489d65b14ecc7a,64d115e8d32e3a56eb5d7664,,,,,,,decisionTrl,resources/DP.BMP,resources/DY.BMP,Door3,-0.264322917,0.01953125,1,0,0,1.7688,optionLeft,70,5565,3,20,0,20,0,1,,,,,,,,,,,,,,,,,,,,,,,,,,,,,,,,,,,,,,,
,,,,,,,6393f158851fb438d2ceb5d7,2023-08-07_17h04.53.098,HF_wild_card,2022.2.4,Win32,59.59475566,6393f158851fb438d2ceb5d7,64ce5acb97489d65b14ecc7a,64d115e8d32e3a56eb5d7664,,,,,,,decisionTrl,resources/DP.BMP,resources/DY.BMP,Door3,-0.196614583,0,1,0,0,1.1518,optionLeft,70,5635,3,21,0,21,0,1,,,,,,,,,,,,,,,,,,,,,,,,,,,,,,,,,,,,,,,
,,,,,,,6393f158851fb438d2ceb5d7,2023-08-07_17h04.53.098,HF_wild_card,2022.2.4,Win32,59.59475566,6393f158851fb438d2ceb5d7,64ce5acb97489d65b14ecc7a,64d115e8d32e3a56eb5d7664,,,,,,,sngl,resources/DG.BMP,resources/Empty.png,Door1,-0.173177083,0.0234375,1,0,0,1.2846,optionLeft,30,5665,3,22,0,22,0,1,,,,,,,,,,,,,,,,,,,,,,,,,,,,,,,,,,,,,,,
,,,,,,,6393f158851fb438d2ceb5d7,2023-08-07_17h04.53.098,HF_wild_card,2022.2.4,Win32,59.59475566,6393f158851fb438d2ceb5d7,64ce5acb97489d65b14ecc7a,64d115e8d32e3a56eb5d7664,,,,,,,decisionTrl,resources/DB.BMP,resources/DG.BMP,WildCard_Ex,-0.260416667,0.018229167,1,0,0,1.1494,optionLeft,95,5760,3,23,0,23,0,1,,,,,,,,,,,,,,,,,,,,,,,,,,,,,,,,,,,,,,,
,,,,,,,6393f158851fb438d2ceb5d7,2023-08-07_17h04.53.098,HF_wild_card,2022.2.4,Win32,59.59475566,6393f158851fb438d2ceb5d7,64ce5acb97489d65b14ecc7a,64d115e8d32e3a56eb5d7664,,,,,,,decisionTrl,resources/DP.BMP,resources/DB.BMP,WildCard_Ex,0.313802083,0.061197917,1,0,0,1.1507,optionRight,5,5765,3,24,0,24,0,1,,,,,,,,,,,,,,,,,,,,,,,,,,,,,,,,,,,,,,,
,,,,,,,6393f158851fb438d2ceb5d7,2023-08-07_17h04.53.098,HF_wild_card,2022.2.4,Win32,59.59475566,6393f158851fb438d2ceb5d7,64ce5acb97489d65b14ecc7a,64d115e8d32e3a56eb5d7664,,,,,,,ctch,resources/DY.BMP,resources/DG.BMP,Door4,-0.278645833,0.061197917,1,0,0,1.3685,optionLeft,60,5825,3,25,0,25,0,1,,,,,,,,,,,,,,,,,,,,,,,,,,,,,,,,,,,,,,,
,,,,,,,6393f158851fb438d2ceb5d7,2023-08-07_17h04.53.098,HF_wild_card,2022.2.4,Win32,59.59475566,6393f158851fb438d2ceb5d7,64ce5acb97489d65b14ecc7a,64d115e8d32e3a56eb5d7664,,,,,,,sngl,resources/Empty.png,resources/DR.BMP,Door2,0.244791667,0.049479167,1,0,0,1.0672,optionRight,20,5845,3,26,0,26,0,1,,,,,,,,,,,,,,,,,,,,,,,,,,,,,,,,,,,,,,,
,,,,,,,6393f158851fb438d2ceb5d7,2023-08-07_17h04.53.098,HF_wild_card,2022.2.4,Win32,59.59475566,6393f158851fb438d2ceb5d7,64ce5acb97489d65b14ecc7a,64d115e8d32e3a56eb5d7664,,,,,,,sngl,resources/DB.BMP,resources/Empty.png,WildCard_Ex,-0.26171875,0.044270833,1,0,0,1.0997,optionLeft,5,5850,3,27,0,27,0,1,,,,,,,,,,,,,,,,,,,,,,,,,,,,,,,,,,,,,,,
,,,,,,,6393f158851fb438d2ceb5d7,2023-08-07_17h04.53.098,HF_wild_card,2022.2.4,Win32,59.59475566,6393f158851fb438d2ceb5d7,64ce5acb97489d65b14ecc7a,64d115e8d32e3a56eb5d7664,,,,,,,decisionTrl,resources/DP.BMP,resources/DY.BMP,Door4,0.33984375,0.078125,1,0,0,1.1337,optionRight,60,5910,3,28,0,28,0,1,,,,,,,,,,,,,,,,,,,,,,,,,,,,,,,,,,,,,,,
,,,,,,,6393f158851fb438d2ceb5d7,2023-08-07_17h04.53.098,HF_wild_card,2022.2.4,Win32,59.59475566,6393f158851fb438d2ceb5d7,64ce5acb97489d65b14ecc7a,64d115e8d32e3a56eb5d7664,,,,,,,decisionTrl,resources/DP.BMP,resources/DY.BMP,Door4,0.268229167,0.041666667,1,0,0,1.5006,optionRight,80,5990,3,29,0,29,0,1,,,,,,,,,,,,,,,,,,,,,,,,,,,,,,,,,,,,,,,
,,,,,,,6393f158851fb438d2ceb5d7,2023-08-07_17h04.53.098,HF_wild_card,2022.2.4,Win32,59.59475566,6393f158851fb438d2ceb5d7,64ce5acb97489d65b14ecc7a,64d115e8d32e3a56eb5d7664,,,,,,,decisionTrl,resources/DG.BMP,resources/DB.BMP,Door1,-0.22265625,0.055989583,1,0,0,1.6186,optionLeft,30,6020,3,30,0,30,0,1,,,,,,,,,,,,,,,,,,,,,,,,,,,,,,,,,,,,,,,
,,,,,,,6393f158851fb438d2ceb5d7,2023-08-07_17h04.53.098,HF_wild_card,2022.2.4,Win32,59.59475566,6393f158851fb438d2ceb5d7,64ce5acb97489d65b14ecc7a,64d115e8d32e3a56eb5d7664,,,,,,,decisionTrl,resources/DG.BMP,resources/DR.BMP,Door1,-0.30078125,0.078125,1,0,0,1.5674,optionLeft,30,6050,3,31,0,31,0,1,,,,,,,,,,,,,,,,,,,,,,,,,,,,,,,,,,,,,,,
,,,,,,,6393f158851fb438d2ceb5d7,2023-08-07_17h04.53.098,HF_wild_card,2022.2.4,Win32,59.59475566,6393f158851fb438d2ceb5d7,64ce5acb97489d65b14ecc7a,64d115e8d32e3a56eb5d7664,,,,,,,ctch,resources/DG.BMP,resources/DY.BMP,Door4,0.248697917,0.1484375,1,0,0,1.7354,optionRight,60,6110,3,32,0,32,0,1,,,,,,,,,,,,,,,,,,,,,,,,,,,,,,,,,,,,,,,
,,,,,,,6393f158851fb438d2ceb5d7,2023-08-07_17h04.53.098,HF_wild_card,2022.2.4,Win32,59.59475566,6393f158851fb438d2ceb5d7,64ce5acb97489d65b14ecc7a,64d115e8d32e3a56eb5d7664,,,,,,,decisionTrl,resources/DY.BMP,resources/DP.BMP,Door3,0.365885417,0.130208333,1,0,0,1.9369,optionRight,70,6180,3,33,0,33,0,1,,,,,,,,,,,,,,,,,,,,,,,,,,,,,,,,,,,,,,,
,,,,,,,6393f158851fb438d2ceb5d7,2023-08-07_17h04.53.098,HF_wild_card,2022.2.4,Win32,59.59475566,6393f158851fb438d2ceb5d7,64ce5acb97489d65b14ecc7a,64d115e8d32e3a56eb5d7664,,,,,,,ctch,resources/DP.BMP,resources/DR.BMP,Door3,-0.247395833,0.069010417,1,0,0,1.0992,optionLeft,70,6250,3,34,0,34,0,1,,,,,,,,,,,,,,,,,,,,,,,,,,,,,,,,,,,,,,,
,,,,,,,6393f158851fb438d2ceb5d7,2023-08-07_17h04.53.098,HF_wild_card,2022.2.4,Win32,59.59475566,6393f158851fb438d2ceb5d7,64ce5acb97489d65b14ecc7a,64d115e8d32e3a56eb5d7664,,,,,,,sngl,resources/DP.BMP,resources/Empty.png,Door3,-0.213541667,0.045572917,1,0,0,1.0492,optionLeft,70,6320,3,35,0,35,0,1,,,,,,,,,,,,,,,,,,,,,,,,,,,,,,,,,,,,,,,
,,,,,,,6393f158851fb438d2ceb5d7,2023-08-07_17h04.53.098,HF_wild_card,2022.2.4,Win32,59.59475566,6393f158851fb438d2ceb5d7,64ce5acb97489d65b14ecc7a,64d115e8d32e3a56eb5d7664,,,,,,,decisionTrl,resources/DB.BMP,resources/DY.BMP,Door4,0.217447917,0.065104167,1,0,0,1.1585,optionRight,60,6380,3,36,0,36,0,1,,,,,,,,,,,,,,,,,,,,,,,,,,,,,,,,,,,,,,,
,,,,,,,6393f158851fb438d2ceb5d7,2023-08-07_17h04.53.098,HF_wild_card,2022.2.4,Win32,59.59475566,6393f158851fb438d2ceb5d7,64ce5acb97489d65b14ecc7a,64d115e8d32e3a56eb5d7664,,,,,,,sngl,resources/DR.BMP,resources/Empty.png,Door2,-0.217447917,0.08984375,1,0,0,1.0836,optionLeft,40,6420,3,37,0,37,0,1,,,,,,,,,,,,,,,,,,,,,,,,,,,,,,,,,,,,,,,
,,,,,,,6393f158851fb438d2ceb5d7,2023-08-07_17h04.53.098,HF_wild_card,2022.2.4,Win32,59.59475566,6393f158851fb438d2ceb5d7,64ce5acb97489d65b14ecc7a,64d115e8d32e3a56eb5d7664,,,,,,,ctch,resources/DY.BMP,resources/DG.BMP,Door4,-0.225260417,0.095052083,1,0,0,1.3507,optionLeft,60,6480,3,38,0,38,0,1,,,,,,,,,,,,,,,,,,,,,,,,,,,,,,,,,,,,,,,
,,,,,,,6393f158851fb438d2ceb5d7,2023-08-07_17h04.53.098,HF_wild_card,2022.2.4,Win32,59.59475566,6393f158851fb438d2ceb5d7,64ce5acb97489d65b14ecc7a,64d115e8d32e3a56eb5d7664,,,,,,,decisionTrl,resources/DY.BMP,resources/DB.BMP,Door4,-0.3046875,0.098958333,1,0,0,1.119,optionLeft,80,6560,3,39,0,39,0,1,,,,,,,,,,,,,,,,,,,,,,,,,,,,,,,,,,,,,,,
,,,,,,,6393f158851fb438d2ceb5d7,2023-08-07_17h04.53.098,HF_wild_card,2022.2.4,Win32,59.59475566,6393f158851fb438d2ceb5d7,64ce5acb97489d65b14ecc7a,64d115e8d32e3a56eb5d7664,,,,,,,sngl,resources/DB.BMP,resources/Empty.png,WildCard_Ex,-0.248697917,0.029947917,1,0,0,1.1514,optionLeft,95,6655,3,40,0,40,0,1,,,,,,,,,,,,,,,,,,,,,,,,,,,,,,,,,,,,,,,
,,,,,,,6393f158851fb438d2ceb5d7,2023-08-07_17h04.53.098,HF_wild_card,2022.2.4,Win32,59.59475566,6393f158851fb438d2ceb5d7,64ce5acb97489d65b14ecc7a,64d115e8d32e3a56eb5d7664,,,,,,,decisionTrl,resources/DR.BMP,resources/DG.BMP,Door1,0.256510417,0.092447917,1,0,0,1.9697,optionRight,30,6685,3,41,0,41,0,1,,,,,,,,,,,,,,,,,,,,,,,,,,,,,,,,,,,,,,,
,,,,,,,6393f158851fb438d2ceb5d7,2023-08-07_17h04.53.098,HF_wild_card,2022.2.4,Win32,59.59475566,6393f158851fb438d2ceb5d7,64ce5acb97489d65b14ecc7a,64d115e8d32e3a56eb5d7664,,,,,,,sngl,resources/Empty.png,resources/DP.BMP,Door3,0.272135417,0.072916667,1,0,0,1.0168,optionRight,70,6755,3,42,0,42,0,1,,,,,,,,,,,,,,,,,,,,,,,,,,,,,,,,,,,,,,,
,,,,,,,6393f158851fb438d2ceb5d7,2023-08-07_17h04.53.098,HF_wild_card,2022.2.4,Win32,59.59475566,6393f158851fb438d2ceb5d7,64ce5acb97489d65b14ecc7a,64d115e8d32e3a56eb5d7664,,,,,,,ctch,resources/DP.BMP,resources/DR.BMP,Door3,-0.291666667,0.063802083,1,0,0,1.3007,optionLeft,70,6825,3,43,0,43,0,1,,,,,,,,,,,,,,,,,,,,,,,,,,,,,,,,,,,,,,,
,,,,,,,6393f158851fb438d2ceb5d7,2023-08-07_17h04.53.098,HF_wild_card,2022.2.4,Win32,59.59475566,6393f158851fb438d2ceb5d7,64ce5acb97489d65b14ecc7a,64d115e8d32e3a56eb5d7664,,,,,,,,,,,,,,,,,,,,,,,,,,2,0,2,0,1,,,,,,,,,,,,,,,,,,,,,,,,,,,,,,,,,,
,,,,,,,6393f158851fb438d2ceb5d7,2023-08-07_17h04.53.098,HF_wild_card,2022.2.4,Win32,59.59475566,6393f158851fb438d2ceb5d7,64ce5acb97489d65b14ecc7a,64d115e8d32e3a56eb5d7664,,,,,,,decisionTrl,resources/DP.BMP,resources/DY.BMP,Door4,0.248697917,0.03125,1,0,0,1.2236,optionRight,60,6885,4,0,0,0,0,1,,,,,,,,,,,,,,,,,,,,,,,,,,,,,,,,,,,,,,,
,,,,,,,6393f158851fb438d2ceb5d7,2023-08-07_17h04.53.098,HF_wild_card,2022.2.4,Win32,59.59475566,6393f158851fb438d2ceb5d7,64ce5acb97489d65b14ecc7a,64d115e8d32e3a56eb5d7664,,,,,,,decisionTrl,resources/DG.BMP,resources/DR.BMP,Door1,-0.204427083,0.028645833,1,0,0,1.5694,optionLeft,30,6915,4,1,0,1,0,1,,,,,,,,,,,,,,,,,,,,,,,,,,,,,,,,,,,,,,,
,,,,,,,6393f158851fb438d2ceb5d7,2023-08-07_17h04.53.098,HF_wild_card,2022.2.4,Win32,59.59475566,6393f158851fb438d2ceb5d7,64ce5acb97489d65b14ecc7a,64d115e8d32e3a56eb5d7664,,,,,,,decisionTrl,resources/DR.BMP,resources/DBN.BMP,WildCard_NonEx,0.298177083,0.01171875,1,0,0,1.5334,optionRight,55,6970,4,2,0,2,0,1,,,,,,,,,,,,,,,,,,,,,,,,,,,,,,,,,,,,,,,
,,,,,,,6393f158851fb438d2ceb5d7,2023-08-07_17h04.53.098,HF_wild_card,2022.2.4,Win32,59.59475566,6393f158851fb438d2ceb5d7,64ce5acb97489d65b14ecc7a,64d115e8d32e3a56eb5d7664,,,,,,,ctch,resources/DG.BMP,resources/DY.BMP,Door4,0.272135417,0.044270833,1,0,0,1.1669,optionRight,80,7050,4,3,0,3,0,1,,,,,,,,,,,,,,,,,,,,,,,,,,,,,,,,,,,,,,,
,,,,,,,6393f158851fb438d2ceb5d7,2023-08-07_17h04.53.098,HF_wild_card,2022.2.4,Win32,59.59475566,6393f158851fb438d2ceb5d7,64ce5acb97489d65b14ecc7a,64d115e8d32e3a56eb5d7664,,,,,,,decisionTrl,resources/DY.BMP,resources/DP.BMP,Door4,-0.248697917,0.037760417,1,0,0,1.1001,optionLeft,80,7130,4,4,0,4,0,1,,,,,,,,,,,,,,,,,,,,,,,,,,,,,,,,,,,,,,,
,,,,,,,6393f158851fb438d2ceb5d7,2023-08-07_17h04.53.098,HF_wild_card,2022.2.4,Win32,59.59475566,6393f158851fb438d2ceb5d7,64ce5acb97489d65b14ecc7a,64d115e8d32e3a56eb5d7664,,,,,,,sngl,resources/Empty.png,resources/DG.BMP,Door1,0.34375,0.0703125,1,0,0,1.0325,optionRight,30,7160,4,5,0,5,0,1,,,,,,,,,,,,,,,,,,,,,,,,,,,,,,,,,,,,,,,
,,,,,,,6393f158851fb438d2ceb5d7,2023-08-07_17h04.53.098,HF_wild_card,2022.2.4,Win32,59.59475566,6393f158851fb438d2ceb5d7,64ce5acb97489d65b14ecc7a,64d115e8d32e3a56eb5d7664,,,,,,,decisionTrl,resources/DP.BMP,resources/DBN.BMP,WildCard_NonEx,0.2421875,0.071614583,1,0,0,1.4682,optionRight,55,7215,4,6,0,6,0,1,,,,,,,,,,,,,,,,,,,,,,,,,,,,,,,,,,,,,,,
,,,,,,,6393f158851fb438d2ceb5d7,2023-08-07_17h04.53.098,HF_wild_card,2022.2.4,Win32,59.59475566,6393f158851fb438d2ceb5d7,64ce5acb97489d65b14ecc7a,64d115e8d32e3a56eb5d7664,,,,,,,sngl,resources/DR.BMP,resources/Empty.png,Door2,-0.162760417,0.046875,1,0,0,1.0495,optionLeft,20,7235,4,7,0,7,0,1,,,,,,,,,,,,,,,,,,,,,,,,,,,,,,,,,,,,,,,
,,,,,,,6393f158851fb438d2ceb5d7,2023-08-07_17h04.53.098,HF_wild_card,2022.2.4,Win32,59.59475566,6393f158851fb438d2ceb5d7,64ce5acb97489d65b14ecc7a,64d115e8d32e3a56eb5d7664,,,,,,,ctch,resources/DR.BMP,resources/DP.BMP,Door3,0.295572917,0.041666667,1,0,0,1.5522,optionRight,70,7305,4,8,0,8,0,1,,,,,,,,,,,,,,,,,,,,,,,,,,,,,,,,,,,,,,,
,,,,,,,6393f158851fb438d2ceb5d7,2023-08-07_17h04.53.098,HF_wild_card,2022.2.4,Win32,59.59475566,6393f158851fb438d2ceb5d7,64ce5acb97489d65b14ecc7a,64d115e8d32e3a56eb5d7664,,,,,,,ctch,resources/DR.BMP,resources/DP.BMP,Door3,0.2734375,0.053385417,1,0,0,1.1502,optionRight,70,7375,4,9,0,9,0,1,,,,,,,,,,,,,,,,,,,,,,,,,,,,,,,,,,,,,,,
,,,,,,,6393f158851fb438d2ceb5d7,2023-08-07_17h04.53.098,HF_wild_card,2022.2.4,Win32,59.59475566,6393f158851fb438d2ceb5d7,64ce5acb97489d65b14ecc7a,64d115e8d32e3a56eb5d7664,,,,,,,ctch,resources/DP.BMP,resources/DR.BMP,Door3,-0.299479167,0.036458333,1,0,0,1.3178,optionLeft,70,7445,4,10,0,10,0,1,,,,,,,,,,,,,,,,,,,,,,,,,,,,,,,,,,,,,,,
,,,,,,,6393f158851fb438d2ceb5d7,2023-08-07_17h04.53.098,HF_wild_card,2022.2.4,Win32,59.59475566,6393f158851fb438d2ceb5d7,64ce5acb97489d65b14ecc7a,64d115e8d32e3a56eb5d7664,,,,,,,decisionTrl,resources/DBN.BMP,resources/DY.BMP,Door4,0.37109375,0.10546875,1,0,0,1.5198,optionRight,80,7525,4,11,0,11,0,1,,,,,,,,,,,,,,,,,,,,,,,,,,,,,,,,,,,,,,,
,,,,,,,6393f158851fb438d2ceb5d7,2023-08-07_17h04.53.098,HF_wild_card,2022.2.4,Win32,59.59475566,6393f158851fb438d2ceb5d7,64ce5acb97489d65b14ecc7a,64d115e8d32e3a56eb5d7664,,,,,,,decisionTrl,resources/DBN.BMP,resources/DR.BMP,WildCard_NonEx,-0.24609375,0.11328125,1,0,0,1.8348,optionLeft,45,7570,4,12,0,12,0,1,,,,,,,,,,,,,,,,,,,,,,,,,,,,,,,,,,,,,,,
,,,,,,,6393f158851fb438d2ceb5d7,2023-08-07_17h04.53.098,HF_wild_card,2022.2.4,Win32,59.59475566,6393f158851fb438d2ceb5d7,64ce5acb97489d65b14ecc7a,64d115e8d32e3a56eb5d7664,,,,,,,decisionTrl,resources/DR.BMP,resources/DG.BMP,Door1,0.30859375,0.0390625,1,0,0,1.4845,optionRight,30,7600,4,13,0,13,0,1,,,,,,,,,,,,,,,,,,,,,,,,,,,,,,,,,,,,,,,
,,,,,,,6393f158851fb438d2ceb5d7,2023-08-07_17h04.53.098,HF_wild_card,2022.2.4,Win32,59.59475566,6393f158851fb438d2ceb5d7,64ce5acb97489d65b14ecc7a,64d115e8d32e3a56eb5d7664,,,,,,,sngl,resources/Empty.png,resources/DP.BMP,Door3,0.264322917,0.0703125,1,0,0,1.0829,optionRight,70,7670,4,14,0,14,0,1,,,,,,,,,,,,,,,,,,,,,,,,,,,,,,,,,,,,,,,
,,,,,,,6393f158851fb438d2ceb5d7,2023-08-07_17h04.53.098,HF_wild_card,2022.2.4,Win32,59.59475566,6393f158851fb438d2ceb5d7,64ce5acb97489d65b14ecc7a,64d115e8d32e3a56eb5d7664,,,,,,,decisionTrl,resources/DP.BMP,resources/DY.BMP,Door4,0.2265625,0.0546875,1,0,0,1.5344,optionRight,60,7730,4,15,0,15,0,1,,,,,,,,,,,,,,,,,,,,,,,,,,,,,,,,,,,,,,,
,,,,,,,6393f158851fb438d2ceb5d7,2023-08-07_17h04.53.098,HF_wild_card,2022.2.4,Win32,59.59475566,6393f158851fb438d2ceb5d7,64ce5acb97489d65b14ecc7a,64d115e8d32e3a56eb5d7664,,,,,,,sngl,resources/Empty.png,resources/DR.BMP,Door2,0.239583333,0.055989583,1,0,0,1.0739,optionRight,40,7770,4,16,0,16,0,1,,,,,,,,,,,,,,,,,,,,,,,,,,,,,,,,,,,,,,,
,,,,,,,6393f158851fb438d2ceb5d7,2023-08-07_17h04.53.098,HF_wild_card,2022.2.4,Win32,59.59475566,6393f158851fb438d2ceb5d7,64ce5acb97489d65b14ecc7a,64d115e8d32e3a56eb5d7664,,,,,,,ctch,resources/DY.BMP,resources/DG.BMP,Door4,-0.274739583,0.06640625,1,0,0,1.1025,optionLeft,80,7850,4,17,0,17,0,1,,,,,,,,,,,,,,,,,,,,,,,,,,,,,,,,,,,,,,,
,,,,,,,6393f158851fb438d2ceb5d7,2023-08-07_17h04.53.098,HF_wild_card,2022.2.4,Win32,59.59475566,6393f158851fb438d2ceb5d7,64ce5acb97489d65b14ecc7a,64d115e8d32e3a56eb5d7664,,,,,,,sngl,resources/DBN.BMP,resources/Empty.png,WildCard_NonEx,-0.205729167,0.059895833,1,0,0,1.5507,optionLeft,45,7895,4,18,0,18,0,1,,,,,,,,,,,,,,,,,,,,,,,,,,,,,,,,,,,,,,,
,,,,,,,6393f158851fb438d2ceb5d7,2023-08-07_17h04.53.098,HF_wild_card,2022.2.4,Win32,59.59475566,6393f158851fb438d2ceb5d7,64ce5acb97489d65b14ecc7a,64d115e8d32e3a56eb5d7664,,,,,,,decisionTrl,resources/DR.BMP,resources/DG.BMP,Door1,0.3046875,0.03125,1,0,0,1.4441,optionRight,30,7925,4,19,0,19,0,1,,,,,,,,,,,,,,,,,,,,,,,,,,,,,,,,,,,,,,,
,,,,,,,6393f158851fb438d2ceb5d7,2023-08-07_17h04.53.098,HF_wild_card,2022.2.4,Win32,59.59475566,6393f158851fb438d2ceb5d7,64ce5acb97489d65b14ecc7a,64d115e8d32e3a56eb5d7664,,,,,,,sngl,resources/Empty.png,resources/DY.BMP,Door4,0.247395833,0.046875,1,0,0,0.9998,optionRight,80,8005,4,20,0,20,0,1,,,,,,,,,,,,,,,,,,,,,,,,,,,,,,,,,,,,,,,
,,,,,,,6393f158851fb438d2ceb5d7,2023-08-07_17h04.53.098,HF_wild_card,2022.2.4,Win32,59.59475566,6393f158851fb438d2ceb5d7,64ce5acb97489d65b14ecc7a,64d115e8d32e3a56eb5d7664,,,,,,,decisionTrl,resources/DY.BMP,resources/DP.BMP,Door4,-0.216145833,0.044270833,1,0,0,1.0505,optionLeft,60,8065,4,21,0,21,0,1,,,,,,,,,,,,,,,,,,,,,,,,,,,,,,,,,,,,,,,
,,,,,,,6393f158851fb438d2ceb5d7,2023-08-07_17h04.53.098,HF_wild_card,2022.2.4,Win32,59.59475566,6393f158851fb438d2ceb5d7,64ce5acb97489d65b14ecc7a,64d115e8d32e3a56eb5d7664,,,,,,,ctch,resources/DY.BMP,resources/DG.BMP,Door4,-0.171875,0.03125,1,0,0,1.1516,optionLeft,60,8125,4,22,0,22,0,1,,,,,,,,,,,,,,,,,,,,,,,,,,,,,,,,,,,,,,,
,,,,,,,6393f158851fb438d2ceb5d7,2023-08-07_17h04.53.098,HF_wild_card,2022.2.4,Win32,59.59475566,6393f158851fb438d2ceb5d7,64ce5acb97489d65b14ecc7a,64d115e8d32e3a56eb5d7664,,,,,,,ctch,resources/DG.BMP,resources/DY.BMP,Door4,0.283854167,0.059895833,1,0,0,1.2003,optionRight,80,8205,4,23,0,23,0,1,,,,,,,,,,,,,,,,,,,,,,,,,,,,,,,,,,,,,,,
,,,,,,,6393f158851fb438d2ceb5d7,2023-08-07_17h04.53.098,HF_wild_card,2022.2.4,Win32,59.59475566,6393f158851fb438d2ceb5d7,64ce5acb97489d65b14ecc7a,64d115e8d32e3a56eb5d7664,,,,,,,decisionTrl,resources/DG.BMP,resources/DR.BMP,Door1,-0.220052083,0.053385417,1,0,0,1.6852,optionLeft,30,8235,4,24,0,24,0,1,,,,,,,,,,,,,,,,,,,,,,,,,,,,,,,,,,,,,,,
,,,,,,,6393f158851fb438d2ceb5d7,2023-08-07_17h04.53.098,HF_wild_card,2022.2.4,Win32,59.59475566,6393f158851fb438d2ceb5d7,64ce5acb97489d65b14ecc7a,64d115e8d32e3a56eb5d7664,,,,,,,decisionTrl,resources/DG.BMP,resources/DR.BMP,Door1,-0.25,0.071614583,1,0,0,1.1832,optionLeft,30,8265,4,25,0,25,0,1,,,,,,,,,,,,,,,,,,,,,,,,,,,,,,,,,,,,,,,
,,,,,,,6393f158851fb438d2ceb5d7,2023-08-07_17h04.53.098,HF_wild_card,2022.2.4,Win32,59.59475566,6393f158851fb438d2ceb5d7,64ce5acb97489d65b14ecc7a,64d115e8d32e3a56eb5d7664,,,,,,,sngl,resources/DG.BMP,resources/Empty.png,Door1,-0.255208333,0.026041667,1,0,0,1.2021,optionLeft,30,8295,4,26,0,26,0,1,,,,,,,,,,,,,,,,,,,,,,,,,,,,,,,,,,,,,,,
,,,,,,,6393f158851fb438d2ceb5d7,2023-08-07_17h04.53.098,HF_wild_card,2022.2.4,Win32,59.59475566,6393f158851fb438d2ceb5d7,64ce5acb97489d65b14ecc7a,64d115e8d32e3a56eb5d7664,,,,,,,decisionTrl,resources/DR.BMP,resources/DG.BMP,Door1,0.272135417,0.071614583,1,0,0,1.6024,optionRight,30,8325,4,27,0,27,0,1,,,,,,,,,,,,,,,,,,,,,,,,,,,,,,,,,,,,,,,
,,,,,,,6393f158851fb438d2ceb5d7,2023-08-07_17h04.53.098,HF_wild_card,2022.2.4,Win32,59.59475566,6393f158851fb438d2ceb5d7,64ce5acb97489d65b14ecc7a,64d115e8d32e3a56eb5d7664,,,,,,,decisionTrl,resources/DR.BMP,resources/DG.BMP,Door1,0.217447917,0.08203125,1,0,0,0.9994,optionRight,30,8355,4,28,0,28,0,1,,,,,,,,,,,,,,,,,,,,,,,,,,,,,,,,,,,,,,,
,,,,,,,6393f158851fb438d2ceb5d7,2023-08-07_17h04.53.098,HF_wild_card,2022.2.4,Win32,59.59475566,6393f158851fb438d2ceb5d7,64ce5acb97489d65b14ecc7a,64d115e8d32e3a56eb5d7664,,,,,,,sngl,resources/Empty.png,resources/DBN.BMP,WildCard_NonEx,0.251302083,0.061197917,1,0,0,1.3347,optionRight,55,8410,4,29,0,29,0,1,,,,,,,,,,,,,,,,,,,,,,,,,,,,,,,,,,,,,,,
,,,,,,,6393f158851fb438d2ceb5d7,2023-08-07_17h04.53.098,HF_wild_card,2022.2.4,Win32,59.59475566,6393f158851fb438d2ceb5d7,64ce5acb97489d65b14ecc7a,64d115e8d32e3a56eb5d7664,,,,,,,decisionTrl,resources/DBN.BMP,resources/DG.BMP,WildCard_NonEx,-0.305989583,0.09765625,1,0,0,1.8859,optionLeft,55,8465,4,30,0,30,0,1,,,,,,,,,,,,,,,,,,,,,,,,,,,,,,,,,,,,,,,
,,,,,,,6393f158851fb438d2ceb5d7,2023-08-07_17h04.53.098,HF_wild_card,2022.2.4,Win32,59.59475566,6393f158851fb438d2ceb5d7,64ce5acb97489d65b14ecc7a,64d115e8d32e3a56eb5d7664,,,,,,,decisionTrl,resources/DY.BMP,resources/DP.BMP,Door4,-0.256510417,0.06640625,1,0,0,1.1156,optionLeft,80,8545,4,31,0,31,0,1,,,,,,,,,,,,,,,,,,,,,,,,,,,,,,,,,,,,,,,
,,,,,,,6393f158851fb438d2ceb5d7,2023-08-07_17h04.53.098,HF_wild_card,2022.2.4,Win32,59.59475566,6393f158851fb438d2ceb5d7,64ce5acb97489d65b14ecc7a,64d115e8d32e3a56eb5d7664,,,,,,,decisionTrl,resources/DY.BMP,resources/DP.BMP,Door4,-0.200520833,0.033854167,1,0,0,1.0335,optionLeft,80,8625,4,32,0,32,0,1,,,,,,,,,,,,,,,,,,,,,,,,,,,,,,,,,,,,,,,
,,,,,,,6393f158851fb438d2ceb5d7,2023-08-07_17h04.53.098,HF_wild_card,2022.2.4,Win32,59.59475566,6393f158851fb438d2ceb5d7,64ce5acb97489d65b14ecc7a,64d115e8d32e3a56eb5d7664,,,,,,,sngl,resources/Empty.png,resources/DBN.BMP,WildCard_NonEx,0.264322917,0.083333333,1,0,0,1.2498,optionRight,45,8670,4,33,0,33,0,1,,,,,,,,,,,,,,,,,,,,,,,,,,,,,,,,,,,,,,,
,,,,,,,6393f158851fb438d2ceb5d7,2023-08-07_17h04.53.098,HF_wild_card,2022.2.4,Win32,59.59475566,6393f158851fb438d2ceb5d7,64ce5acb97489d65b14ecc7a,64d115e8d32e3a56eb5d7664,,,,,,,sngl,resources/DY.BMP,resources/Empty.png,Door4,-0.213541667,0.0625,1,0,0,1.0502,optionLeft,60,8730,4,34,0,34,0,1,,,,,,,,,,,,,,,,,,,,,,,,,,,,,,,,,,,,,,,
,,,,,,,6393f158851fb438d2ceb5d7,2023-08-07_17h04.53.098,HF_wild_card,2022.2.4,Win32,59.59475566,6393f158851fb438d2ceb5d7,64ce5acb97489d65b14ecc7a,64d115e8d32e3a56eb5d7664,,,,,,,decisionTrl,resources/DY.BMP,resources/DBN.BMP,Door4,-0.19140625,0.059895833,1,0,0,1.1663,optionLeft,80,8810,4,35,0,35,0,1,,,,,,,,,,,,,,,,,,,,,,,,,,,,,,,,,,,,,,,
,,,,,,,6393f158851fb438d2ceb5d7,2023-08-07_17h04.53.098,HF_wild_card,2022.2.4,Win32,59.59475566,6393f158851fb438d2ceb5d7,64ce5acb97489d65b14ecc7a,64d115e8d32e3a56eb5d7664,,,,,,,decisionTrl,resources/DG.BMP,resources/DBN.BMP,Door1,-0.174479167,0.071614583,1,0,0,1.5517,optionLeft,30,8840,4,36,0,36,0,1,,,,,,,,,,,,,,,,,,,,,,,,,,,,,,,,,,,,,,,
,,,,,,,6393f158851fb438d2ceb5d7,2023-08-07_17h04.53.098,HF_wild_card,2022.2.4,Win32,59.59475566,6393f158851fb438d2ceb5d7,64ce5acb97489d65b14ecc7a,64d115e8d32e3a56eb5d7664,,,,,,,decisionTrl,resources/DBN.BMP,resources/DP.BMP,Door3,0.319010417,0.071614583,1,0,0,1.3507,optionRight,70,8910,4,37,0,37,0,1,,,,,,,,,,,,,,,,,,,,,,,,,,,,,,,,,,,,,,,
,,,,,,,6393f158851fb438d2ceb5d7,2023-08-07_17h04.53.098,HF_wild_card,2022.2.4,Win32,59.59475566,6393f158851fb438d2ceb5d7,64ce5acb97489d65b14ecc7a,64d115e8d32e3a56eb5d7664,,,,,,,decisionTrl,resources/DP.BMP,resources/DY.BMP,Door4,0.286458333,0.049479167,1,0,0,1.7671,optionRight,80,8990,4,38,0,38,0,1,,,,,,,,,,,,,,,,,,,,,,,,,,,,,,,,,,,,,,,
,,,,,,,6393f158851fb438d2ceb5d7,2023-08-07_17h04.53.098,HF_wild_card,2022.2.4,Win32,59.59475566,6393f158851fb438d2ceb5d7,64ce5acb97489d65b14ecc7a,64d115e8d32e3a56eb5d7664,,,,,,,ctch,resources/DP.BMP,resources/DR.BMP,Door3,-0.291666667,0.08984375,1,0,0,1.1674,optionLeft,70,9060,4,39,0,39,0,1,,,,,,,,,,,,,,,,,,,,,,,,,,,,,,,,,,,,,,,
,,,,,,,6393f158851fb438d2ceb5d7,2023-08-07_17h04.53.098,HF_wild_card,2022.2.4,Win32,59.59475566,6393f158851fb438d2ceb5d7,64ce5acb97489d65b14ecc7a,64d115e8d32e3a56eb5d7664,,,,,,,sngl,resources/DBN.BMP,resources/Empty.png,WildCard_NonEx,-0.227864583,0.05859375,1,0,0,1.1668,optionLeft,55,9115,4,40,0,40,0,1,,,,,,,,,,,,,,,,,,,,,,,,,,,,,,,,,,,,,,,
,,,,,,,6393f158851fb438d2ceb5d7,2023-08-07_17h04.53.098,HF_wild_card,2022.2.4,Win32,59.59475566,6393f158851fb438d2ceb5d7,64ce5acb97489d65b14ecc7a,64d115e8d32e3a56eb5d7664,,,,,,,sngl,resources/DP.BMP,resources/Empty.png,Door3,-0.251302083,0.05078125,1,0,0,1.0339,optionLeft,70,9185,4,41,0,41,0,1,,,,,,,,,,,,,,,,,,,,,,,,,,,,,,,,,,,,,,,
,,,,,,,6393f158851fb438d2ceb5d7,2023-08-07_17h04.53.098,HF_wild_card,2022.2.4,Win32,59.59475566,6393f158851fb438d2ceb5d7,64ce5acb97489d65b14ecc7a,64d115e8d32e3a56eb5d7664,,,,,,,decisionTrl,resources/DG.BMP,resources/DR.BMP,Door1,-0.209635417,0.053385417,1,0,0,3.7256,optionLeft,30,9215,4,42,0,42,0,1,,,,,,,,,,,,,,,,,,,,,,,,,,,,,,,,,,,,,,,
,,,,,,,6393f158851fb438d2ceb5d7,2023-08-07_17h04.53.098,HF_wild_card,2022.2.4,Win32,59.59475566,6393f158851fb438d2ceb5d7,64ce5acb97489d65b14ecc7a,64d115e8d32e3a56eb5d7664,,,,,,,decisionTrl,resources/DP.BMP,resources/DY.BMP,Door4,0.30078125,0.083333333,1,0,0,1.0507,optionRight,60,9275,4,43,0,43,0,1,,,,,,,,,,,,,,,,,,,,,,,,,,,,,,,,,,,,,,,
,,,,,,,6393f158851fb438d2ceb5d7,2023-08-07_17h04.53.098,HF_wild_card,2022.2.4,Win32,59.59475566,6393f158851fb438d2ceb5d7,64ce5acb97489d65b14ecc7a,64d115e8d32e3a56eb5d7664,,,,,,,,,,,,,,,,,,,,,,,,,,3,0,3,0,1,,,,,,,,,,,,,,,,,,,,,,,,,,,,,,,,,,
,,,,,,,6393f158851fb438d2ceb5d7,2023-08-07_17h04.53.098,HF_wild_card,2022.2.4,Win32,59.59475566,6393f158851fb438d2ceb5d7,64ce5acb97489d65b14ecc7a,64d115e8d32e3a56eb5d7664,,,,,,,ctch,resources/DR.BMP,resources/DP.BMP,Door3,0.32421875,-0.040364583,1,0,0,1.3997,optionRight,70,9345,5,0,0,0,0,1,,,,,,,,,,,,,,,,,,,,,,,,,,,,,,,,,,,,,,,
,,,,,,,6393f158851fb438d2ceb5d7,2023-08-07_17h04.53.098,HF_wild_card,2022.2.4,Win32,59.59475566,6393f158851fb438d2ceb5d7,64ce5acb97489d65b14ecc7a,64d115e8d32e3a56eb5d7664,,,,,,,sngl,resources/DG.BMP,resources/Empty.png,Door1,-0.197916667,0.01171875,1,0,0,1.045,optionLeft,30,9375,5,1,0,1,0,1,,,,,,,,,,,,,,,,,,,,,,,,,,,,,,,,,,,,,,,
,,,,,,,6393f158851fb438d2ceb5d7,2023-08-07_17h04.53.098,HF_wild_card,2022.2.4,Win32,59.59475566,6393f158851fb438d2ceb5d7,64ce5acb97489d65b14ecc7a,64d115e8d32e3a56eb5d7664,,,,,,,ctch,resources/DR.BMP,resources/DP.BMP,Door3,0.2734375,0.009114583,1,0,0,0.9335,optionRight,70,9445,5,2,0,2,0,1,,,,,,,,,,,,,,,,,,,,,,,,,,,,,,,,,,,,,,,
,,,,,,,6393f158851fb438d2ceb5d7,2023-08-07_17h04.53.098,HF_wild_card,2022.2.4,Win32,59.59475566,6393f158851fb438d2ceb5d7,64ce5acb97489d65b14ecc7a,64d115e8d32e3a56eb5d7664,,,,,,,ctch,resources/DY.BMP,resources/DG.BMP,Door4,-0.188802083,0.041666667,1,0,0,1.0503,optionLeft,80,9525,5,3,0,3,0,1,,,,,,,,,,,,,,,,,,,,,,,,,,,,,,,,,,,,,,,
,,,,,,,6393f158851fb438d2ceb5d7,2023-08-07_17h04.53.098,HF_wild_card,2022.2.4,Win32,59.59475566,6393f158851fb438d2ceb5d7,64ce5acb97489d65b14ecc7a,64d115e8d32e3a56eb5d7664,,,,,,,sngl,resources/DBN.BMP,resources/Empty.png,WildCard_NonEx,-0.178385417,0.03515625,1,0,0,1.0906,optionLeft,55,9580,5,4,0,4,0,1,,,,,,,,,,,,,,,,,,,,,,,,,,,,,,,,,,,,,,,
,,,,,,,6393f158851fb438d2ceb5d7,2023-08-07_17h04.53.098,HF_wild_card,2022.2.4,Win32,59.59475566,6393f158851fb438d2ceb5d7,64ce5acb97489d65b14ecc7a,64d115e8d32e3a56eb5d7664,,,,,,,decisionTrl,resources/DY.BMP,resources/DP.BMP,Door4,-0.170572917,0.020833333,1,0,0,1.1331,optionLeft,80,9660,5,5,0,5,0,1,,,,,,,,,,,,,,,,,,,,,,,,,,,,,,,,,,,,,,,
,,,,,,,6393f158851fb438d2ceb5d7,2023-08-07_17h04.53.098,HF_wild_card,2022.2.4,Win32,59.59475566,6393f158851fb438d2ceb5d7,64ce5acb97489d65b14ecc7a,64d115e8d32e3a56eb5d7664,,,,,,,sngl,resources/DBN.BMP,resources/Empty.png,WildCard_NonEx,-0.141927083,0.028645833,1,0,0,0.9826,optionLeft,45,9705,5,6,0,6,0,1,,,,,,,,,,,,,,,,,,,,,,,,,,,,,,,,,,,,,,,
,,,,,,,6393f158851fb438d2ceb5d7,2023-08-07_17h04.53.098,HF_wild_card,2022.2.4,Win32,59.59475566,6393f158851fb438d2ceb5d7,64ce5acb97489d65b14ecc7a,64d115e8d32e3a56eb5d7664,,,,,,,sngl,resources/Empty.png,resources/DG.BMP,Door1,0.266927083,0.075520833,1,0,0,1.0329,optionRight,30,9735,5,7,0,7,0,1,,,,,,,,,,,,,,,,,,,,,,,,,,,,,,,,,,,,,,,
,,,,,,,6393f158851fb438d2ceb5d7,2023-08-07_17h04.53.098,HF_wild_card,2022.2.4,Win32,59.59475566,6393f158851fb438d2ceb5d7,64ce5acb97489d65b14ecc7a,64d115e8d32e3a56eb5d7664,,,,,,,ctch,resources/DY.BMP,resources/DG.BMP,Door4,-0.22265625,0.010416667,1,0,0,0.9613,optionLeft,80,9815,5,8,0,8,0,1,,,,,,,,,,,,,,,,,,,,,,,,,,,,,,,,,,,,,,,
,,,,,,,6393f158851fb438d2ceb5d7,2023-08-07_17h04.53.098,HF_wild_card,2022.2.4,Win32,59.59475566,6393f158851fb438d2ceb5d7,64ce5acb97489d65b14ecc7a,64d115e8d32e3a56eb5d7664,,,,,,,sngl,resources/DP.BMP,resources/Empty.png,Door3,-0.1875,0.022135417,1,0,0,1.0288,optionLeft,70,9885,5,9,0,9,0,1,,,,,,,,,,,,,,,,,,,,,,,,,,,,,,,,,,,,,,,
,,,,,,,6393f158851fb438d2ceb5d7,2023-08-07_17h04.53.098,HF_wild_card,2022.2.4,Win32,59.59475566,6393f158851fb438d2ceb5d7,64ce5acb97489d65b14ecc7a,64d115e8d32e3a56eb5d7664,,,,,,,ctch,resources/DP.BMP,resources/DR.BMP,Door3,-0.235677083,0.026041667,1,0,0,1.1285,optionLeft,70,9955,5,10,0,10,0,1,,,,,,,,,,,,,,,,,,,,,,,,,,,,,,,,,,,,,,,
,,,,,,,6393f158851fb438d2ceb5d7,2023-08-07_17h04.53.098,HF_wild_card,2022.2.4,Win32,59.59475566,6393f158851fb438d2ceb5d7,64ce5acb97489d65b14ecc7a,64d115e8d32e3a56eb5d7664,,,,,,,sngl,resources/Empty.png,resources/DR.BMP,Door2,0.19140625,0.028645833,1,0,0,1.2495,optionRight,20,9975,5,11,0,11,0,1,,,,,,,,,,,,,,,,,,,,,,,,,,,,,,,,,,,,,,,
,,,,,,,6393f158851fb438d2ceb5d7,2023-08-07_17h04.53.098,HF_wild_card,2022.2.4,Win32,59.59475566,6393f158851fb438d2ceb5d7,64ce5acb97489d65b14ecc7a,64d115e8d32e3a56eb5d7664,,,,,,,ctch,resources/DG.BMP,resources/DY.BMP,Door4,0.209635417,0.041666667,1,0,0,1.4409,optionRight,60,10035,5,12,0,12,0,1,,,,,,,,,,,,,,,,,,,,,,,,,,,,,,,,,,,,,,,
,,,,,,,6393f158851fb438d2ceb5d7,2023-08-07_17h04.53.098,HF_wild_card,2022.2.4,Win32,59.59475566,6393f158851fb438d2ceb5d7,64ce5acb97489d65b14ecc7a,64d115e8d32e3a56eb5d7664,,,,,,,decisionTrl,resources/DBN.BMP,resources/DP.BMP,Door3,0.330729167,0.055989583,1,0,0,1.5581,optionRight,70,10105,5,13,0,13,0,1,,,,,,,,,,,,,,,,,,,,,,,,,,,,,,,,,,,,,,,
,,,,,,,6393f158851fb438d2ceb5d7,2023-08-07_17h04.53.098,HF_wild_card,2022.2.4,Win32,59.59475566,6393f158851fb438d2ceb5d7,64ce5acb97489d65b14ecc7a,64d115e8d32e3a56eb5d7664,,,,,,,ctch,resources/DP.BMP,resources/DR.BMP,Door3,-0.240885417,0.061197917,1,0,0,1.1163,optionLeft,70,10175,5,14,0,14,0,1,,,,,,,,,,,,,,,,,,,,,,,,,,,,,,,,,,,,,,,
,,,,,,,6393f158851fb438d2ceb5d7,2023-08-07_17h04.53.098,HF_wild_card,2022.2.4,Win32,59.59475566,6393f158851fb438d2ceb5d7,64ce5acb97489d65b14ecc7a,64d115e8d32e3a56eb5d7664,,,,,,,decisionTrl,resources/DY.BMP,resources/DP.BMP,Door4,-0.1875,0.028645833,1,0,0,1.7026,optionLeft,60,10235,5,15,0,15,0,1,,,,,,,,,,,,,,,,,,,,,,,,,,,,,,,,,,,,,,,
,,,,,,,6393f158851fb438d2ceb5d7,2023-08-07_17h04.53.098,HF_wild_card,2022.2.4,Win32,59.59475566,6393f158851fb438d2ceb5d7,64ce5acb97489d65b14ecc7a,64d115e8d32e3a56eb5d7664,,,,,,,decisionTrl,resources/DR.BMP,resources/DBN.BMP,Door2,-0.161458333,0.032552083,1,0,0,1.4213,optionLeft,20,10255,5,16,0,16,0,1,,,,,,,,,,,,,,,,,,,,,,,,,,,,,,,,,,,,,,,
,,,,,,,6393f158851fb438d2ceb5d7,2023-08-07_17h04.53.098,HF_wild_card,2022.2.4,Win32,59.59475566,6393f158851fb438d2ceb5d7,64ce5acb97489d65b14ecc7a,64d115e8d32e3a56eb5d7664,,,,,,,ctch,resources/DG.BMP,resources/DY.BMP,Door4,0.263020833,0.0546875,1,0,0,0.9994,optionRight,60,10315,5,17,0,17,0,1,,,,,,,,,,,,,,,,,,,,,,,,,,,,,,,,,,,,,,,
,,,,,,,6393f158851fb438d2ceb5d7,2023-08-07_17h04.53.098,HF_wild_card,2022.2.4,Win32,59.59475566,6393f158851fb438d2ceb5d7,64ce5acb97489d65b14ecc7a,64d115e8d32e3a56eb5d7664,,,,,,,decisionTrl,resources/DG.BMP,resources/DR.BMP,Door2,0.248697917,0.067708333,1,0,0,1.5865,optionRight,40,10355,5,18,0,18,0,1,,,,,,,,,,,,,,,,,,,,,,,,,,,,,,,,,,,,,,,
,,,,,,,6393f158851fb438d2ceb5d7,2023-08-07_17h04.53.098,HF_wild_card,2022.2.4,Win32,59.59475566,6393f158851fb438d2ceb5d7,64ce5acb97489d65b14ecc7a,64d115e8d32e3a56eb5d7664,,,,,,,sngl,resources/Empty.png,resources/DP.BMP,Door3,0.302083333,0.067708333,1,0,0,1.0836,optionRight,70,10425,5,19,0,19,0,1,,,,,,,,,,,,,,,,,,,,,,,,,,,,,,,,,,,,,,,
,,,,,,,6393f158851fb438d2ceb5d7,2023-08-07_17h04.53.098,HF_wild_card,2022.2.4,Win32,59.59475566,6393f158851fb438d2ceb5d7,64ce5acb97489d65b14ecc7a,64d115e8d32e3a56eb5d7664,,,,,,,decisionTrl,resources/DP.BMP,resources/DY.BMP,Door4,0.309895833,0.02734375,1,0,0,1.1998,optionRight,60,10485,5,20,0,20,0,1,,,,,,,,,,,,,,,,,,,,,,,,,,,,,,,,,,,,,,,
,,,,,,,6393f158851fb438d2ceb5d7,2023-08-07_17h04.53.098,HF_wild_card,2022.2.4,Win32,59.59475566,6393f158851fb438d2ceb5d7,64ce5acb97489d65b14ecc7a,64d115e8d32e3a56eb5d7664,,,,,,,decisionTrl,resources/DP.BMP,resources/DY.BMP,Door4,0.333333333,0.078125,1,0,0,1.8169,optionRight,80,10565,5,21,0,21,0,1,,,,,,,,,,,,,,,,,,,,,,,,,,,,,,,,,,,,,,,
,,,,,,,6393f158851fb438d2ceb5d7,2023-08-07_17h04.53.098,HF_wild_card,2022.2.4,Win32,59.59475566,6393f158851fb438d2ceb5d7,64ce5acb97489d65b14ecc7a,64d115e8d32e3a56eb5d7664,,,,,,,decisionTrl,resources/DP.BMP,resources/DBN.BMP,Door3,-0.240885417,0.033854167,1,0,0,1.401,optionLeft,70,10635,5,22,0,22,0,1,,,,,,,,,,,,,,,,,,,,,,,,,,,,,,,,,,,,,,,
,,,,,,,6393f158851fb438d2ceb5d7,2023-08-07_17h04.53.098,HF_wild_card,2022.2.4,Win32,59.59475566,6393f158851fb438d2ceb5d7,64ce5acb97489d65b14ecc7a,64d115e8d32e3a56eb5d7664,,,,,,,decisionTrl,resources/DY.BMP,resources/DP.BMP,Door4,-0.217447917,0.067708333,1,0,0,1.4514,optionLeft,60,10695,5,23,0,23,0,1,,,,,,,,,,,,,,,,,,,,,,,,,,,,,,,,,,,,,,,
,,,,,,,6393f158851fb438d2ceb5d7,2023-08-07_17h04.53.098,HF_wild_card,2022.2.4,Win32,59.59475566,6393f158851fb438d2ceb5d7,64ce5acb97489d65b14ecc7a,64d115e8d32e3a56eb5d7664,,,,,,,decisionTrl,resources/DR.BMP,resources/DG.BMP,Door1,0.33984375,0.026041667,1,0,0,1.7527,optionRight,30,10725,5,24,0,24,0,1,,,,,,,,,,,,,,,,,,,,,,,,,,,,,,,,,,,,,,,
,,,,,,,6393f158851fb438d2ceb5d7,2023-08-07_17h04.53.098,HF_wild_card,2022.2.4,Win32,59.59475566,6393f158851fb438d2ceb5d7,64ce5acb97489d65b14ecc7a,64d115e8d32e3a56eb5d7664,,,,,,,decisionTrl,resources/DG.BMP,resources/DR.BMP,Door1,-0.221354167,0.013020833,1,0,0,1.2497,optionLeft,30,10755,5,25,0,25,0,1,,,,,,,,,,,,,,,,,,,,,,,,,,,,,,,,,,,,,,,
,,,,,,,6393f158851fb438d2ceb5d7,2023-08-07_17h04.53.098,HF_wild_card,2022.2.4,Win32,59.59475566,6393f158851fb438d2ceb5d7,64ce5acb97489d65b14ecc7a,64d115e8d32e3a56eb5d7664,,,,,,,decisionTrl,resources/DG.BMP,resources/DBN.BMP,Door1,-0.216145833,0.05859375,1,0,0,1.3674,optionLeft,30,10785,5,26,0,26,0,1,,,,,,,,,,,,,,,,,,,,,,,,,,,,,,,,,,,,,,,
,,,,,,,6393f158851fb438d2ceb5d7,2023-08-07_17h04.53.098,HF_wild_card,2022.2.4,Win32,59.59475566,6393f158851fb438d2ceb5d7,64ce5acb97489d65b14ecc7a,64d115e8d32e3a56eb5d7664,,,,,,,decisionTrl,resources/DBN.BMP,resources/DG.BMP,WildCard_NonEx,-0.227864583,0.015625,1,0,0,1.4679,optionLeft,45,10830,5,27,0,27,0,1,,,,,,,,,,,,,,,,,,,,,,,,,,,,,,,,,,,,,,,
,,,,,,,6393f158851fb438d2ceb5d7,2023-08-07_17h04.53.098,HF_wild_card,2022.2.4,Win32,59.59475566,6393f158851fb438d2ceb5d7,64ce5acb97489d65b14ecc7a,64d115e8d32e3a56eb5d7664,,,,,,,decisionTrl,resources/DBN.BMP,resources/DR.BMP,WildCard_NonEx,-0.190104167,0.0625,1,0,0,1.2516,optionLeft,45,10875,5,28,0,28,0,1,,,,,,,,,,,,,,,,,,,,,,,,,,,,,,,,,,,,,,,
,,,,,,,6393f158851fb438d2ceb5d7,2023-08-07_17h04.53.098,HF_wild_card,2022.2.4,Win32,59.59475566,6393f158851fb438d2ceb5d7,64ce5acb97489d65b14ecc7a,64d115e8d32e3a56eb5d7664,,,,,,,decisionTrl,resources/DP.BMP,resources/DY.BMP,Door4,0.39453125,0.096354167,1,0,0,1.4509,optionRight,60,10935,5,29,0,29,0,1,,,,,,,,,,,,,,,,,,,,,,,,,,,,,,,,,,,,,,,
,,,,,,,6393f158851fb438d2ceb5d7,2023-08-07_17h04.53.098,HF_wild_card,2022.2.4,Win32,59.59475566,6393f158851fb438d2ceb5d7,64ce5acb97489d65b14ecc7a,64d115e8d32e3a56eb5d7664,,,,,,,decisionTrl,resources/DY.BMP,resources/DP.BMP,Door4,-0.251302083,0.087239583,1,0,0,1.3677,optionLeft,60,10995,5,30,0,30,0,1,,,,,,,,,,,,,,,,,,,,,,,,,,,,,,,,,,,,,,,
,,,,,,,6393f158851fb438d2ceb5d7,2023-08-07_17h04.53.098,HF_wild_card,2022.2.4,Win32,59.59475566,6393f158851fb438d2ceb5d7,64ce5acb97489d65b14ecc7a,64d115e8d32e3a56eb5d7664,,,,,,,decisionTrl,resources/DR.BMP,resources/DG.BMP,Door2,-0.2265625,0.052083333,1,0,0,1.5507,optionLeft,40,11035,5,31,0,31,0,1,,,,,,,,,,,,,,,,,,,,,,,,,,,,,,,,,,,,,,,
,,,,,,,6393f158851fb438d2ceb5d7,2023-08-07_17h04.53.098,HF_wild_card,2022.2.4,Win32,59.59475566,6393f158851fb438d2ceb5d7,64ce5acb97489d65b14ecc7a,64d115e8d32e3a56eb5d7664,,,,,,,decisionTrl,resources/DBN.BMP,resources/DY.BMP,Door4,0.373697917,0.072916667,1,0,0,1.2158,optionRight,80,11115,5,32,0,32,0,1,,,,,,,,,,,,,,,,,,,,,,,,,,,,,,,,,,,,,,,
,,,,,,,6393f158851fb438d2ceb5d7,2023-08-07_17h04.53.098,HF_wild_card,2022.2.4,Win32,59.59475566,6393f158851fb438d2ceb5d7,64ce5acb97489d65b14ecc7a,64d115e8d32e3a56eb5d7664,,,,,,,decisionTrl,resources/DG.BMP,resources/DR.BMP,Door1,-0.276041667,0.032552083,1,0,0,1.4682,optionLeft,30,11145,5,33,0,33,0,1,,,,,,,,,,,,,,,,,,,,,,,,,,,,,,,,,,,,,,,
,,,,,,,6393f158851fb438d2ceb5d7,2023-08-07_17h04.53.098,HF_wild_card,2022.2.4,Win32,59.59475566,6393f158851fb438d2ceb5d7,64ce5acb97489d65b14ecc7a,64d115e8d32e3a56eb5d7664,,,,,,,sngl,resources/Empty.png,resources/DY.BMP,Door4,0.263020833,0.044270833,1,0,0,1.1488,optionRight,60,11205,5,34,0,34,0,1,,,,,,,,,,,,,,,,,,,,,,,,,,,,,,,,,,,,,,,
,,,,,,,6393f158851fb438d2ceb5d7,2023-08-07_17h04.53.098,HF_wild_card,2022.2.4,Win32,59.59475566,6393f158851fb438d2ceb5d7,64ce5acb97489d65b14ecc7a,64d115e8d32e3a56eb5d7664,,,,,,,decisionTrl,resources/DP.BMP,resources/DY.BMP,Door4,0.25390625,0.032552083,1,0,0,1.7189,optionRight,80,11285,5,35,0,35,0,1,,,,,,,,,,,,,,,,,,,,,,,,,,,,,,,,,,,,,,,
,,,,,,,6393f158851fb438d2ceb5d7,2023-08-07_17h04.53.098,HF_wild_card,2022.2.4,Win32,59.59475566,6393f158851fb438d2ceb5d7,64ce5acb97489d65b14ecc7a,64d115e8d32e3a56eb5d7664,,,,,,,sngl,resources/DR.BMP,resources/Empty.png,Door2,-0.178385417,0.036458333,1,0,0,1.0951,optionLeft,40,11325,5,36,0,36,0,1,,,,,,,,,,,,,,,,,,,,,,,,,,,,,,,,,,,,,,,
,,,,,,,6393f158851fb438d2ceb5d7,2023-08-07_17h04.53.098,HF_wild_card,2022.2.4,Win32,59.59475566,6393f158851fb438d2ceb5d7,64ce5acb97489d65b14ecc7a,64d115e8d32e3a56eb5d7664,,,,,,,sngl,resources/Empty.png,resources/DBN.BMP,WildCard_NonEx,0.256510417,0.05859375,1,0,0,1.0429,optionRight,55,11380,5,37,0,37,0,1,,,,,,,,,,,,,,,,,,,,,,,,,,,,,,,,,,,,,,,
,,,,,,,6393f158851fb438d2ceb5d7,2023-08-07_17h04.53.098,HF_wild_card,2022.2.4,Win32,59.59475566,6393f158851fb438d2ceb5d7,64ce5acb97489d65b14ecc7a,64d115e8d32e3a56eb5d7664,,,,,,,decisionTrl,resources/DG.BMP,resources/DR.BMP,Door2,0.221354167,0.049479167,1,0,0,1.3907,optionRight,40,11420,5,38,0,38,0,1,,,,,,,,,,,,,,,,,,,,,,,,,,,,,,,,,,,,,,,
,,,,,,,6393f158851fb438d2ceb5d7,2023-08-07_17h04.53.098,HF_wild_card,2022.2.4,Win32,59.59475566,6393f158851fb438d2ceb5d7,64ce5acb97489d65b14ecc7a,64d115e8d32e3a56eb5d7664,,,,,,,sngl,resources/Empty.png,resources/DBN.BMP,WildCard_NonEx,0.279947917,0.083333333,1,0,0,1.0286,optionRight,45,11465,5,39,0,39,0,1,,,,,,,,,,,,,,,,,,,,,,,,,,,,,,,,,,,,,,,
,,,,,,,6393f158851fb438d2ceb5d7,2023-08-07_17h04.53.098,HF_wild_card,2022.2.4,Win32,59.59475566,6393f158851fb438d2ceb5d7,64ce5acb97489d65b14ecc7a,64d115e8d32e3a56eb5d7664,,,,,,,decisionTrl,resources/DR.BMP,resources/DG.BMP,Door1,0.251302083,0.061197917,1,0,0,1.1563,optionRight,30,11495,5,40,0,40,0,1,,,,,,,,,,,,,,,,,,,,,,,,,,,,,,,,,,,,,,,
,,,,,,,6393f158851fb438d2ceb5d7,2023-08-07_17h04.53.098,HF_wild_card,2022.2.4,Win32,59.59475566,6393f158851fb438d2ceb5d7,64ce5acb97489d65b14ecc7a,64d115e8d32e3a56eb5d7664,,,,,,,decisionTrl,resources/DR.BMP,resources/DG.BMP,Door2,-0.235677083,0.01953125,1,0,0,1.5013,optionLeft,20,11515,5,41,0,41,0,1,,,,,,,,,,,,,,,,,,,,,,,,,,,,,,,,,,,,,,,
,,,,,,,6393f158851fb438d2ceb5d7,2023-08-07_17h04.53.098,HF_wild_card,2022.2.4,Win32,59.59475566,6393f158851fb438d2ceb5d7,64ce5acb97489d65b14ecc7a,64d115e8d32e3a56eb5d7664,,,,,,,sngl,resources/DY.BMP,resources/Empty.png,Door4,-0.178385417,0.046875,1,0,0,0.998,optionLeft,80,11595,5,42,0,42,0,1,,,,,,,,,,,,,,,,,,,,,,,,,,,,,,,,,,,,,,,
,,,,,,,6393f158851fb438d2ceb5d7,2023-08-07_17h04.53.098,HF_wild_card,2022.2.4,Win32,59.59475566,6393f158851fb438d2ceb5d7,64ce5acb97489d65b14ecc7a,64d115e8d32e3a56eb5d7664,,,,,,,decisionTrl,resources/DY.BMP,resources/DBN.BMP,Door4,-0.16796875,0.041666667,1,0,0,1.0677,optionLeft,60,11655,5,43,0,43,0,1,,,,,,,,,,,,,,,,,,,,,,,,,,,,,,,,,,,,,,,
,,,,,,,6393f158851fb438d2ceb5d7,2023-08-07_17h04.53.098,HF_wild_card,2022.2.4,Win32,59.59475566,6393f158851fb438d2ceb5d7,64ce5acb97489d65b14ecc7a,64d115e8d32e3a56eb5d7664,,,,,,,,,,,,,,,,,,,,,,,,,,4,0,4,0,1,,,,,,,,,,,,,,,,,,,,,,,,,,,,,,,,,,
,,,,,,,6393f158851fb438d2ceb5d7,2023-08-07_17h04.53.098,HF_wild_card,2022.2.4,Win32,59.59475566,6393f158851fb438d2ceb5d7,64ce5acb97489d65b14ecc7a,64d115e8d32e3a56eb5d7664,,,,,,,decisionTrl,resources/DP.BMP,resources/DY.BMP,Door4,0.3515625,0.018229167,1,0,0,1.4816,optionRight,60,11715,6,0,0,0,0,1,,,,,,,,,,,,,,,,,,,,,,,,,,,,,,,,,,,,,,,
,,,,,,,6393f158851fb438d2ceb5d7,2023-08-07_17h04.53.098,HF_wild_card,2022.2.4,Win32,59.59475566,6393f158851fb438d2ceb5d7,64ce5acb97489d65b14ecc7a,64d115e8d32e3a56eb5d7664,,,,,,,sngl,resources/Empty.png,resources/DR.BMP,Door2,0.440104167,0.026041667,1,0,0,1.1353,optionRight,40,11755,6,1,0,1,0,1,,,,,,,,,,,,,,,,,,,,,,,,,,,,,,,,,,,,,,,
,,,,,,,6393f158851fb438d2ceb5d7,2023-08-07_17h04.53.098,HF_wild_card,2022.2.4,Win32,59.59475566,6393f158851fb438d2ceb5d7,64ce5acb97489d65b14ecc7a,64d115e8d32e3a56eb5d7664,,,,,,,decisionTrl,resources/DG.BMP,resources/DR.BMP,Door1,-0.174479167,0,1,0,0,2.5008,optionLeft,30,11785,6,2,0,2,0,1,,,,,,,,,,,,,,,,,,,,,,,,,,,,,,,,,,,,,,,
,,,,,,,6393f158851fb438d2ceb5d7,2023-08-07_17h04.53.098,HF_wild_card,2022.2.4,Win32,59.59475566,6393f158851fb438d2ceb5d7,64ce5acb97489d65b14ecc7a,64d115e8d32e3a56eb5d7664,,,,,,,decisionTrl,resources/DR.BMP,resources/DG.BMP,Door2,-0.2109375,-0.0078125,1,0,0,1.1849,optionLeft,20,11805,6,3,0,3,0,1,,,,,,,,,,,,,,,,,,,,,,,,,,,,,,,,,,,,,,,
,,,,,,,6393f158851fb438d2ceb5d7,2023-08-07_17h04.53.098,HF_wild_card,2022.2.4,Win32,59.59475566,6393f158851fb438d2ceb5d7,64ce5acb97489d65b14ecc7a,64d115e8d32e3a56eb5d7664,,,,,,,decisionTrl,resources/DP.BMP,resources/DBN.BMP,Door3,-0.188802083,-0.022135417,1,0,0,1.3334,optionLeft,70,11875,6,4,0,4,0,1,,,,,,,,,,,,,,,,,,,,,,,,,,,,,,,,,,,,,,,
,,,,,,,6393f158851fb438d2ceb5d7,2023-08-07_17h04.53.098,HF_wild_card,2022.2.4,Win32,59.59475566,6393f158851fb438d2ceb5d7,64ce5acb97489d65b14ecc7a,64d115e8d32e3a56eb5d7664,,,,,,,sngl,resources/Empty.png,resources/DY.BMP,Door4,0.365885417,0.095052083,1,0,0,1.1181,optionRight,80,11955,6,5,0,5,0,1,,,,,,,,,,,,,,,,,,,,,,,,,,,,,,,,,,,,,,,
,,,,,,,6393f158851fb438d2ceb5d7,2023-08-07_17h04.53.098,HF_wild_card,2022.2.4,Win32,59.59475566,6393f158851fb438d2ceb5d7,64ce5acb97489d65b14ecc7a,64d115e8d32e3a56eb5d7664,,,,,,,decisionTrl,resources/DP.BMP,resources/DY.BMP,Door4,0.315104167,-0.00390625,1,0,0,1.7856,optionRight,80,12035,6,6,0,6,0,1,,,,,,,,,,,,,,,,,,,,,,,,,,,,,,,,,,,,,,,
,,,,,,,6393f158851fb438d2ceb5d7,2023-08-07_17h04.53.098,HF_wild_card,2022.2.4,Win32,59.59475566,6393f158851fb438d2ceb5d7,64ce5acb97489d65b14ecc7a,64d115e8d32e3a56eb5d7664,,,,,,,ctch,resources/DR.BMP,resources/DP.BMP,Door3,0.268229167,0.022135417,1,0,0,1.18,optionRight,70,12105,6,7,0,7,0,1,,,,,,,,,,,,,,,,,,,,,,,,,,,,,,,,,,,,,,,
,,,,,,,6393f158851fb438d2ceb5d7,2023-08-07_17h04.53.098,HF_wild_card,2022.2.4,Win32,59.59475566,6393f158851fb438d2ceb5d7,64ce5acb97489d65b14ecc7a,64d115e8d32e3a56eb5d7664,,,,,,,sngl,resources/Empty.png,resources/DG.BMP,Door1,0.26953125,0.015625,1,0,0,1.495,optionRight,30,12135,6,8,0,8,0,1,,,,,,,,,,,,,,,,,,,,,,,,,,,,,,,,,,,,,,,
,,,,,,,6393f158851fb438d2ceb5d7,2023-08-07_17h04.53.098,HF_wild_card,2022.2.4,Win32,59.59475566,6393f158851fb438d2ceb5d7,64ce5acb97489d65b14ecc7a,64d115e8d32e3a56eb5d7664,,,,,,,ctch,resources/DG.BMP,resources/DY.BMP,Door4,0.442708333,-0.024739583,1,0,0,2.5735,optionRight,80,12215,6,9,0,9,0,1,,,,,,,,,,,,,,,,,,,,,,,,,,,,,,,,,,,,,,,
,,,,,,,6393f158851fb438d2ceb5d7,2023-08-07_17h04.53.098,HF_wild_card,2022.2.4,Win32,59.59475566,6393f158851fb438d2ceb5d7,64ce5acb97489d65b14ecc7a,64d115e8d32e3a56eb5d7664,,,,,,,decisionTrl,resources/DG.BMP,resources/DBN.BMP,Door1,-0.2734375,0.01171875,1,0,0,1.2675,optionLeft,30,12245,6,10,0,10,0,1,,,,,,,,,,,,,,,,,,,,,,,,,,,,,,,,,,,,,,,
,,,,,,,6393f158851fb438d2ceb5d7,2023-08-07_17h04.53.098,HF_wild_card,2022.2.4,Win32,59.59475566,6393f158851fb438d2ceb5d7,64ce5acb97489d65b14ecc7a,64d115e8d32e3a56eb5d7664,,,,,,,decisionTrl,resources/DY.BMP,resources/DBN.BMP,Door4,-0.162760417,-0.01171875,1,0,0,2.5447,optionLeft,60,12305,6,11,0,11,0,1,,,,,,,,,,,,,,,,,,,,,,,,,,,,,,,,,,,,,,,
,,,,,,,6393f158851fb438d2ceb5d7,2023-08-07_17h04.53.098,HF_wild_card,2022.2.4,Win32,59.59475566,6393f158851fb438d2ceb5d7,64ce5acb97489d65b14ecc7a,64d115e8d32e3a56eb5d7664,,,,,,,decisionTrl,resources/DR.BMP,resources/DG.BMP,Door1,0.290364583,0.013020833,1,0,0,2.0087,optionRight,30,12335,6,12,0,12,0,1,,,,,,,,,,,,,,,,,,,,,,,,,,,,,,,,,,,,,,,
,,,,,,,6393f158851fb438d2ceb5d7,2023-08-07_17h04.53.098,HF_wild_card,2022.2.4,Win32,59.59475566,6393f158851fb438d2ceb5d7,64ce5acb97489d65b14ecc7a,64d115e8d32e3a56eb5d7664,,,,,,,sngl,resources/Empty.png,resources/DP.BMP,Door3,0.26953125,-0.03125,1,0,0,1.1177,optionRight,70,12405,6,13,0,13,0,1,,,,,,,,,,,,,,,,,,,,,,,,,,,,,,,,,,,,,,,
,,,,,,,6393f158851fb438d2ceb5d7,2023-08-07_17h04.53.098,HF_wild_card,2022.2.4,Win32,59.59475566,6393f158851fb438d2ceb5d7,64ce5acb97489d65b14ecc7a,64d115e8d32e3a56eb5d7664,,,,,,,decisionTrl,resources/DBN.BMP,resources/DP.BMP,Door3,0.305989583,-0.002604167,1,0,0,1.1842,optionRight,70,12475,6,14,0,14,0,1,,,,,,,,,,,,,,,,,,,,,,,,,,,,,,,,,,,,,,,
,,,,,,,6393f158851fb438d2ceb5d7,2023-08-07_17h04.53.098,HF_wild_card,2022.2.4,Win32,59.59475566,6393f158851fb438d2ceb5d7,64ce5acb97489d65b14ecc7a,64d115e8d32e3a56eb5d7664,,,,,,,decisionTrl,resources/DP.BMP,resources/DY.BMP,Door4,0.30859375,-0.071614583,1,0,0,1.3447,optionRight,60,12535,6,15,0,15,0,1,,,,,,,,,,,,,,,,,,,,,,,,,,,,,,,,,,,,,,,
,,,,,,,6393f158851fb438d2ceb5d7,2023-08-07_17h04.53.098,HF_wild_card,2022.2.4,Win32,59.59475566,6393f158851fb438d2ceb5d7,64ce5acb97489d65b14ecc7a,64d115e8d32e3a56eb5d7664,,,,,,,sngl,resources/DP.BMP,resources/Empty.png,Door3,-0.2109375,-0.048177083,1,0,0,1.2178,optionLeft,70,12605,6,16,0,16,0,1,,,,,,,,,,,,,,,,,,,,,,,,,,,,,,,,,,,,,,,
,,,,,,,6393f158851fb438d2ceb5d7,2023-08-07_17h04.53.098,HF_wild_card,2022.2.4,Win32,59.59475566,6393f158851fb438d2ceb5d7,64ce5acb97489d65b14ecc7a,64d115e8d32e3a56eb5d7664,,,,,,,ctch,resources/DP.BMP,resources/DR.BMP,Door3,-0.192708333,-0.020833333,1,0,0,1.2013,optionLeft,70,12675,6,17,0,17,0,1,,,,,,,,,,,,,,,,,,,,,,,,,,,,,,,,,,,,,,,
,,,,,,,6393f158851fb438d2ceb5d7,2023-08-07_17h04.53.098,HF_wild_card,2022.2.4,Win32,59.59475566,6393f158851fb438d2ceb5d7,64ce5acb97489d65b14ecc7a,64d115e8d32e3a56eb5d7664,,,,,,,sngl,resources/Empty.png,resources/DBN.BMP,WildCard_NonEx,0.264322917,0.010416667,1,0,0,1.2297,optionRight,55,12730,6,18,0,18,0,1,,,,,,,,,,,,,,,,,,,,,,,,,,,,,,,,,,,,,,,
,,,,,,,6393f158851fb438d2ceb5d7,2023-08-07_17h04.53.098,HF_wild_card,2022.2.4,Win32,59.59475566,6393f158851fb438d2ceb5d7,64ce5acb97489d65b14ecc7a,64d115e8d32e3a56eb5d7664,,,,,,,ctch,resources/DG.BMP,resources/DY.BMP,Door4,0.170572917,-0.005208333,1,0,0,1.5381,optionRight,80,12810,6,19,0,19,0,1,,,,,,,,,,,,,,,,,,,,,,,,,,,,,,,,,,,,,,,
,,,,,,,6393f158851fb438d2ceb5d7,2023-08-07_17h04.53.098,HF_wild_card,2022.2.4,Win32,59.59475566,6393f158851fb438d2ceb5d7,64ce5acb97489d65b14ecc7a,64d115e8d32e3a56eb5d7664,,,,,,,ctch,resources/DY.BMP,resources/DG.BMP,Door4,-0.24609375,0.00390625,1,0,0,1.1346,optionLeft,60,12870,6,20,0,20,0,1,,,,,,,,,,,,,,,,,,,,,,,,,,,,,,,,,,,,,,,
,,,,,,,6393f158851fb438d2ceb5d7,2023-08-07_17h04.53.098,HF_wild_card,2022.2.4,Win32,59.59475566,6393f158851fb438d2ceb5d7,64ce5acb97489d65b14ecc7a,64d115e8d32e3a56eb5d7664,,,,,,,sngl,resources/DBN.BMP,resources/Empty.png,WildCard_NonEx,-0.165364583,0.01171875,1,0,0,1.3671,optionLeft,55,12925,6,21,0,21,0,1,,,,,,,,,,,,,,,,,,,,,,,,,,,,,,,,,,,,,,,
,,,,,,,6393f158851fb438d2ceb5d7,2023-08-07_17h04.53.098,HF_wild_card,2022.2.4,Win32,59.59475566,6393f158851fb438d2ceb5d7,64ce5acb97489d65b14ecc7a,64d115e8d32e3a56eb5d7664,,,,,,,decisionTrl,resources/DR.BMP,resources/DG.BMP,Door1,0.395833333,0.106770833,1,0,0,4.0148,optionRight,30,12955,6,22,0,22,0,1,,,,,,,,,,,,,,,,,,,,,,,,,,,,,,,,,,,,,,,
,,,,,,,6393f158851fb438d2ceb5d7,2023-08-07_17h04.53.098,HF_wild_card,2022.2.4,Win32,59.59475566,6393f158851fb438d2ceb5d7,64ce5acb97489d65b14ecc7a,64d115e8d32e3a56eb5d7664,,,,,,,decisionTrl,resources/DY.BMP,resources/DP.BMP,Door4,-0.223958333,0.001302083,1,0,0,1.0825,optionLeft,80,13035,6,23,0,23,0,1,,,,,,,,,,,,,,,,,,,,,,,,,,,,,,,,,,,,,,,
,,,,,,,6393f158851fb438d2ceb5d7,2023-08-07_17h04.53.098,HF_wild_card,2022.2.4,Win32,59.59475566,6393f158851fb438d2ceb5d7,64ce5acb97489d65b14ecc7a,64d115e8d32e3a56eb5d7664,,,,,,,ctch,resources/DY.BMP,resources/DG.BMP,Door4,-0.197916667,0.0078125,1,0,0,1.162,optionLeft,80,13115,6,24,0,24,0,1,,,,,,,,,,,,,,,,,,,,,,,,,,,,,,,,,,,,,,,
,,,,,,,6393f158851fb438d2ceb5d7,2023-08-07_17h04.53.098,HF_wild_card,2022.2.4,Win32,59.59475566,6393f158851fb438d2ceb5d7,64ce5acb97489d65b14ecc7a,64d115e8d32e3a56eb5d7664,,,,,,,sngl,resources/DY.BMP,resources/Empty.png,Door4,-0.200520833,0.002604167,1,0,0,1.0343,optionLeft,60,13175,6,25,0,25,0,1,,,,,,,,,,,,,,,,,,,,,,,,,,,,,,,,,,,,,,,
,,,,,,,6393f158851fb438d2ceb5d7,2023-08-07_17h04.53.098,HF_wild_card,2022.2.4,Win32,59.59475566,6393f158851fb438d2ceb5d7,64ce5acb97489d65b14ecc7a,64d115e8d32e3a56eb5d7664,,,,,,,sngl,resources/DG.BMP,resources/Empty.png,Door1,-0.1953125,0.018229167,1,0,0,1.0846,optionLeft,30,13205,6,26,0,26,0,1,,,,,,,,,,,,,,,,,,,,,,,,,,,,,,,,,,,,,,,
,,,,,,,6393f158851fb438d2ceb5d7,2023-08-07_17h04.53.098,HF_wild_card,2022.2.4,Win32,59.59475566,6393f158851fb438d2ceb5d7,64ce5acb97489d65b14ecc7a,64d115e8d32e3a56eb5d7664,,,,,,,decisionTrl,resources/DY.BMP,resources/DP.BMP,Door4,-0.227864583,0.026041667,1,0,0,0.8946,optionLeft,80,13285,6,27,0,27,0,1,,,,,,,,,,,,,,,,,,,,,,,,,,,,,,,,,,,,,,,
,,,,,,,6393f158851fb438d2ceb5d7,2023-08-07_17h04.53.098,HF_wild_card,2022.2.4,Win32,59.59475566,6393f158851fb438d2ceb5d7,64ce5acb97489d65b14ecc7a,64d115e8d32e3a56eb5d7664,,,,,,,decisionTrl,resources/DY.BMP,resources/DP.BMP,Door4,-0.1640625,0.044270833,1,0,0,1.0146,optionLeft,80,13365,6,28,0,28,0,1,,,,,,,,,,,,,,,,,,,,,,,,,,,,,,,,,,,,,,,
,,,,,,,6393f158851fb438d2ceb5d7,2023-08-07_17h04.53.098,HF_wild_card,2022.2.4,Win32,59.59475566,6393f158851fb438d2ceb5d7,64ce5acb97489d65b14ecc7a,64d115e8d32e3a56eb5d7664,,,,,,,sngl,resources/DBN.BMP,resources/Empty.png,WildCard_NonEx,-0.157552083,0.0234375,1,0,0,0.9748,optionLeft,45,13410,6,29,0,29,0,1,,,,,,,,,,,,,,,,,,,,,,,,,,,,,,,,,,,,,,,
,,,,,,,6393f158851fb438d2ceb5d7,2023-08-07_17h04.53.098,HF_wild_card,2022.2.4,Win32,59.59475566,6393f158851fb438d2ceb5d7,64ce5acb97489d65b14ecc7a,64d115e8d32e3a56eb5d7664,,,,,,,decisionTrl,resources/DG.BMP,resources/DR.BMP,Door2,0.307291667,0.010416667,1,0,0,1.5053,optionRight,20,13430,6,30,0,30,0,1,,,,,,,,,,,,,,,,,,,,,,,,,,,,,,,,,,,,,,,
,,,,,,,6393f158851fb438d2ceb5d7,2023-08-07_17h04.53.098,HF_wild_card,2022.2.4,Win32,59.59475566,6393f158851fb438d2ceb5d7,64ce5acb97489d65b14ecc7a,64d115e8d32e3a56eb5d7664,,,,,,,sngl,resources/DR.BMP,resources/Empty.png,Door2,-0.162760417,0.0234375,1,0,0,0.9783,optionLeft,20,13450,6,31,0,31,0,1,,,,,,,,,,,,,,,,,,,,,,,,,,,,,,,,,,,,,,,
,,,,,,,6393f158851fb438d2ceb5d7,2023-08-07_17h04.53.098,HF_wild_card,2022.2.4,Win32,59.59475566,6393f158851fb438d2ceb5d7,64ce5acb97489d65b14ecc7a,64d115e8d32e3a56eb5d7664,,,,,,,decisionTrl,resources/DBN.BMP,resources/DR.BMP,WildCard_NonEx,-0.213541667,0.033854167,1,0,0,1.2962,optionLeft,55,13505,6,32,0,32,0,1,,,,,,,,,,,,,,,,,,,,,,,,,,,,,,,,,,,,,,,
,,,,,,,6393f158851fb438d2ceb5d7,2023-08-07_17h04.53.098,HF_wild_card,2022.2.4,Win32,59.59475566,6393f158851fb438d2ceb5d7,64ce5acb97489d65b14ecc7a,64d115e8d32e3a56eb5d7664,,,,,,,decisionTrl,resources/DR.BMP,resources/DG.BMP,Door2,-0.190104167,0.01953125,1,0,0,1.8371,optionLeft,20,13525,6,33,0,33,0,1,,,,,,,,,,,,,,,,,,,,,,,,,,,,,,,,,,,,,,,
,,,,,,,6393f158851fb438d2ceb5d7,2023-08-07_17h04.53.098,HF_wild_card,2022.2.4,Win32,59.59475566,6393f158851fb438d2ceb5d7,64ce5acb97489d65b14ecc7a,64d115e8d32e3a56eb5d7664,,,,,,,sngl,resources/Empty.png,resources/DBN.BMP,WildCard_NonEx,0.2109375,0.029947917,1,0,0,0.9498,optionRight,45,13570,6,34,0,34,0,1,,,,,,,,,,,,,,,,,,,,,,,,,,,,,,,,,,,,,,,
,,,,,,,6393f158851fb438d2ceb5d7,2023-08-07_17h04.53.098,HF_wild_card,2022.2.4,Win32,59.59475566,6393f158851fb438d2ceb5d7,64ce5acb97489d65b14ecc7a,64d115e8d32e3a56eb5d7664,,,,,,,ctch,resources/DR.BMP,resources/DP.BMP,Door3,0.220052083,0.045572917,1,0,0,1.2113,optionRight,70,13640,6,35,0,35,0,1,,,,,,,,,,,,,,,,,,,,,,,,,,,,,,,,,,,,,,,
,,,,,,,6393f158851fb438d2ceb5d7,2023-08-07_17h04.53.098,HF_wild_card,2022.2.4,Win32,59.59475566,6393f158851fb438d2ceb5d7,64ce5acb97489d65b14ecc7a,64d115e8d32e3a56eb5d7664,,,,,,,decisionTrl,resources/DG.BMP,resources/DR.BMP,Door1,-0.208333333,0.0625,1,0,0,2.5607,optionLeft,30,13670,6,36,0,36,0,1,,,,,,,,,,,,,,,,,,,,,,,,,,,,,,,,,,,,,,,
,,,,,,,6393f158851fb438d2ceb5d7,2023-08-07_17h04.53.098,HF_wild_card,2022.2.4,Win32,59.59475566,6393f158851fb438d2ceb5d7,64ce5acb97489d65b14ecc7a,64d115e8d32e3a56eb5d7664,,,,,,,decisionTrl,resources/DR.BMP,resources/DBN.BMP,WildCard_NonEx,0.21484375,0.053385417,1,0,0,1.6246,optionRight,55,13725,6,37,0,37,0,1,,,,,,,,,,,,,,,,,,,,,,,,,,,,,,,,,,,,,,,
,,,,,,,6393f158851fb438d2ceb5d7,2023-08-07_17h04.53.098,HF_wild_card,2022.2.4,Win32,59.59475566,6393f158851fb438d2ceb5d7,64ce5acb97489d65b14ecc7a,64d115e8d32e3a56eb5d7664,,,,,,,decisionTrl,resources/DBN.BMP,resources/DY.BMP,Door4,0.212239583,0.084635417,1,0,0,1.2626,optionRight,80,13805,6,38,0,38,0,1,,,,,,,,,,,,,,,,,,,,,,,,,,,,,,,,,,,,,,,
,,,,,,,6393f158851fb438d2ceb5d7,2023-08-07_17h04.53.098,HF_wild_card,2022.2.4,Win32,59.59475566,6393f158851fb438d2ceb5d7,64ce5acb97489d65b14ecc7a,64d115e8d32e3a56eb5d7664,,,,,,,ctch,resources/DP.BMP,resources/DR.BMP,Door3,-0.188802083,0.044270833,1,0,0,1.2233,optionLeft,70,13875,6,39,0,39,0,1,,,,,,,,,,,,,,,,,,,,,,,,,,,,,,,,,,,,,,,
,,,,,,,6393f158851fb438d2ceb5d7,2023-08-07_17h04.53.098,HF_wild_card,2022.2.4,Win32,59.59475566,6393f158851fb438d2ceb5d7,64ce5acb97489d65b14ecc7a,64d115e8d32e3a56eb5d7664,,,,,,,decisionTrl,resources/DG.BMP,resources/DR.BMP,Door1,-0.16015625,0.005208333,1,0,0,1.7923,optionLeft,30,13905,6,40,0,40,0,1,,,,,,,,,,,,,,,,,,,,,,,,,,,,,,,,,,,,,,,
,,,,,,,6393f158851fb438d2ceb5d7,2023-08-07_17h04.53.098,HF_wild_card,2022.2.4,Win32,59.59475566,6393f158851fb438d2ceb5d7,64ce5acb97489d65b14ecc7a,64d115e8d32e3a56eb5d7664,,,,,,,decisionTrl,resources/DBN.BMP,resources/DG.BMP,WildCard_NonEx,-0.247395833,0.018229167,1,0,0,1.5693,optionLeft,45,13950,6,41,0,41,0,1,,,,,,,,,,,,,,,,,,,,,,,,,,,,,,,,,,,,,,,
,,,,,,,6393f158851fb438d2ceb5d7,2023-08-07_17h04.53.098,HF_wild_card,2022.2.4,Win32,59.59475566,6393f158851fb438d2ceb5d7,64ce5acb97489d65b14ecc7a,64d115e8d32e3a56eb5d7664,,,,,,,decisionTrl,resources/DP.BMP,resources/DY.BMP,Door4,0.359375,0.087239583,1,0,0,1.9459,optionRight,80,14030,6,42,0,42,0,1,,,,,,,,,,,,,,,,,,,,,,,,,,,,,,,,,,,,,,,
,,,,,,,6393f158851fb438d2ceb5d7,2023-08-07_17h04.53.098,HF_wild_card,2022.2.4,Win32,59.59475566,6393f158851fb438d2ceb5d7,64ce5acb97489d65b14ecc7a,64d115e8d32e3a56eb5d7664,,,,,,,decisionTrl,resources/DY.BMP,resources/DP.BMP,Door4,-0.186197917,0.0390625,1,0,0,1.0834,optionLeft,60,14090,6,43,0,43,0,1,,,,,,,,,,,,,,,,,,,,,,,,,,,,,,,,,,,,,,,
,,,,,,,6393f158851fb438d2ceb5d7,2023-08-07_17h04.53.098,HF_wild_card,2022.2.4,Win32,59.59475566,6393f158851fb438d2ceb5d7,64ce5acb97489d65b14ecc7a,64d115e8d32e3a56eb5d7664,,,,,,,,,,,,,,,,,,,,,,,,,,5,0,5,0,1,,,,,,,,,,,,,,,,,,,,,,,,,,,,,,,,,,
,,,,,,,6393f158851fb438d2ceb5d7,2023-08-07_17h04.53.098,HF_wild_card,2022.2.4,Win32,59.59475566,6393f158851fb438d2ceb5d7,64ce5acb97489d65b14ecc7a,64d115e8d32e3a56eb5d7664,,,,,,,decisionTrl,resources/DR.BMP,resources/DG.BMP,Door1,0.319010417,-0.018229167,1,0,0,2.9053,optionRight,30,14120,7,0,0,0,0,1,,,,,,,,,,,,,,,,,,,,,,,,,,,,,,,,,,,,,,,
,,,,,,,6393f158851fb438d2ceb5d7,2023-08-07_17h04.53.098,HF_wild_card,2022.2.4,Win32,59.59475566,6393f158851fb438d2ceb5d7,64ce5acb97489d65b14ecc7a,64d115e8d32e3a56eb5d7664,,,,,,,ctch,resources/DY.BMP,resources/DG.BMP,Door4,-0.234375,0.041666667,1,0,0,1.191,optionLeft,80,14200,7,1,0,1,0,1,,,,,,,,,,,,,,,,,,,,,,,,,,,,,,,,,,,,,,,
,,,,,,,6393f158851fb438d2ceb5d7,2023-08-07_17h04.53.098,HF_wild_card,2022.2.4,Win32,59.59475566,6393f158851fb438d2ceb5d7,64ce5acb97489d65b14ecc7a,64d115e8d32e3a56eb5d7664,,,,,,,ctch,resources/DG.BMP,resources/DY.BMP,Door4,0.263020833,0.078125,1,0,0,1.2142,optionRight,60,14260,7,2,0,2,0,1,,,,,,,,,,,,,,,,,,,,,,,,,,,,,,,,,,,,,,,
,,,,,,,6393f158851fb438d2ceb5d7,2023-08-07_17h04.53.098,HF_wild_card,2022.2.4,Win32,59.59475566,6393f158851fb438d2ceb5d7,64ce5acb97489d65b14ecc7a,64d115e8d32e3a56eb5d7664,,,,,,,decisionTrl,resources/DG.BMP,resources/DR.BMP,Door1,-0.2421875,0.024739583,1,0,0,2.4246,optionLeft,30,14290,7,3,0,3,0,1,,,,,,,,,,,,,,,,,,,,,,,,,,,,,,,,,,,,,,,
,,,,,,,6393f158851fb438d2ceb5d7,2023-08-07_17h04.53.098,HF_wild_card,2022.2.4,Win32,59.59475566,6393f158851fb438d2ceb5d7,64ce5acb97489d65b14ecc7a,64d115e8d32e3a56eb5d7664,,,,,,,ctch,resources/DR.BMP,resources/DP.BMP,Door3,0.321614583,0.010416667,1,0,0,1.2323,optionRight,70,14360,7,4,0,4,0,1,,,,,,,,,,,,,,,,,,,,,,,,,,,,,,,,,,,,,,,
,,,,,,,6393f158851fb438d2ceb5d7,2023-08-07_17h04.53.098,HF_wild_card,2022.2.4,Win32,59.59475566,6393f158851fb438d2ceb5d7,64ce5acb97489d65b14ecc7a,64d115e8d32e3a56eb5d7664,,,,,,,decisionTrl,resources/DP.BMP,resources/DY.BMP,Door4,0.315104167,0.015625,1,0,0,1.1495,optionRight,60,14420,7,5,0,5,0,1,,,,,,,,,,,,,,,,,,,,,,,,,,,,,,,,,,,,,,,
,,,,,,,6393f158851fb438d2ceb5d7,2023-08-07_17h04.53.098,HF_wild_card,2022.2.4,Win32,59.59475566,6393f158851fb438d2ceb5d7,64ce5acb97489d65b14ecc7a,64d115e8d32e3a56eb5d7664,,,,,,,decisionTrl,resources/DG.BMP,resources/DR.BMP,Door1,-0.2578125,-0.006510417,1,0,0,1.2173,optionLeft,30,14450,7,6,0,6,0,1,,,,,,,,,,,,,,,,,,,,,,,,,,,,,,,,,,,,,,,
,,,,,,,6393f158851fb438d2ceb5d7,2023-08-07_17h04.53.098,HF_wild_card,2022.2.4,Win32,59.59475566,6393f158851fb438d2ceb5d7,64ce5acb97489d65b14ecc7a,64d115e8d32e3a56eb5d7664,,,,,,,decisionTrl,resources/DY.BMP,resources/DP.BMP,Door4,-0.217447917,0.010416667,1,0,0,1.1864,optionLeft,80,14530,7,7,0,7,0,1,,,,,,,,,,,,,,,,,,,,,,,,,,,,,,,,,,,,,,,
,,,,,,,6393f158851fb438d2ceb5d7,2023-08-07_17h04.53.098,HF_wild_card,2022.2.4,Win32,59.59475566,6393f158851fb438d2ceb5d7,64ce5acb97489d65b14ecc7a,64d115e8d32e3a56eb5d7664,,,,,,,decisionTrl,resources/DY.BMP,resources/DP.BMP,Door4,-0.251302083,0.013020833,1,0,0,1.1994,optionLeft,80,14610,7,8,0,8,0,1,,,,,,,,,,,,,,,,,,,,,,,,,,,,,,,,,,,,,,,
,,,,,,,6393f158851fb438d2ceb5d7,2023-08-07_17h04.53.098,HF_wild_card,2022.2.4,Win32,59.59475566,6393f158851fb438d2ceb5d7,64ce5acb97489d65b14ecc7a,64d115e8d32e3a56eb5d7664,,,,,,,ctch,resources/DG.BMP,resources/DY.BMP,Door4,0.278645833,0.045572917,1,0,0,1.3078,optionRight,80,14690,7,9,0,9,0,1,,,,,,,,,,,,,,,,,,,,,,,,,,,,,,,,,,,,,,,
,,,,,,,6393f158851fb438d2ceb5d7,2023-08-07_17h04.53.098,HF_wild_card,2022.2.4,Win32,59.59475566,6393f158851fb438d2ceb5d7,64ce5acb97489d65b14ecc7a,64d115e8d32e3a56eb5d7664,,,,,,,decisionTrl,resources/DP.BMP,resources/DY.BMP,Door4,0.278645833,0.03515625,1,0,0,1.5604,optionRight,80,14770,7,10,0,10,0,1,,,,,,,,,,,,,,,,,,,,,,,,,,,,,,,,,,,,,,,
,,,,,,,6393f158851fb438d2ceb5d7,2023-08-07_17h04.53.098,HF_wild_card,2022.2.4,Win32,59.59475566,6393f158851fb438d2ceb5d7,64ce5acb97489d65b14ecc7a,64d115e8d32e3a56eb5d7664,,,,,,,ctch,resources/DP.BMP,resources/DR.BMP,Door3,-0.264322917,0.028645833,1,0,0,1.4152,optionLeft,70,14840,7,11,0,11,0,1,,,,,,,,,,,,,,,,,,,,,,,,,,,,,,,,,,,,,,,
,,,,,,,6393f158851fb438d2ceb5d7,2023-08-07_17h04.53.098,HF_wild_card,2022.2.4,Win32,59.59475566,6393f158851fb438d2ceb5d7,64ce5acb97489d65b14ecc7a,64d115e8d32e3a56eb5d7664,,,,,,,decisionTrl,resources/DP.BMP,resources/DY.BMP,Door4,0.247395833,0.05078125,1,0,0,1.6718,optionRight,80,14920,7,12,0,12,0,1,,,,,,,,,,,,,,,,,,,,,,,,,,,,,,,,,,,,,,,
,,,,,,,6393f158851fb438d2ceb5d7,2023-08-07_17h04.53.098,HF_wild_card,2022.2.4,Win32,59.59475566,6393f158851fb438d2ceb5d7,64ce5acb97489d65b14ecc7a,64d115e8d32e3a56eb5d7664,,,,,,,decisionTrl,resources/DP.BMP,resources/DY.BMP,Door4,0.25,0.091145833,1,0,0,1.2397,optionRight,60,14980,7,13,0,13,0,1,,,,,,,,,,,,,,,,,,,,,,,,,,,,,,,,,,,,,,,
,,,,,,,6393f158851fb438d2ceb5d7,2023-08-07_17h04.53.098,HF_wild_card,2022.2.4,Win32,59.59475566,6393f158851fb438d2ceb5d7,64ce5acb97489d65b14ecc7a,64d115e8d32e3a56eb5d7664,,,,,,,decisionTrl,resources/DG.BMP,resources/DR.BMP,Door1,-0.213541667,0.061197917,1,0,0,1.561,optionLeft,30,15010,7,14,0,14,0,1,,,,,,,,,,,,,,,,,,,,,,,,,,,,,,,,,,,,,,,
,,,,,,,6393f158851fb438d2ceb5d7,2023-08-07_17h04.53.098,HF_wild_card,2022.2.4,Win32,59.59475566,6393f158851fb438d2ceb5d7,64ce5acb97489d65b14ecc7a,64d115e8d32e3a56eb5d7664,,,,,,,decisionTrl,resources/DY.BMP,resources/DP.BMP,Door4,-0.217447917,0.020833333,1,0,0,1.4526,optionLeft,80,15090,7,15,0,15,0,1,,,,,,,,,,,,,,,,,,,,,,,,,,,,,,,,,,,,,,,
,,,,,,,6393f158851fb438d2ceb5d7,2023-08-07_17h04.53.098,HF_wild_card,2022.2.4,Win32,59.59475566,6393f158851fb438d2ceb5d7,64ce5acb97489d65b14ecc7a,64d115e8d32e3a56eb5d7664,,,,,,,ctch,resources/DY.BMP,resources/DG.BMP,Door4,-0.19140625,0.03125,1,0,0,1.2967,optionLeft,80,15170,7,16,0,16,0,1,,,,,,,,,,,,,,,,,,,,,,,,,,,,,,,,,,,,,,,
,,,,,,,6393f158851fb438d2ceb5d7,2023-08-07_17h04.53.098,HF_wild_card,2022.2.4,Win32,59.59475566,6393f158851fb438d2ceb5d7,64ce5acb97489d65b14ecc7a,64d115e8d32e3a56eb5d7664,,,,,,,decisionTrl,resources/DG.BMP,resources/DR.BMP,Door1,-0.182291667,0.026041667,1,0,0,1.5429,optionLeft,30,15200,7,17,0,17,0,1,,,,,,,,,,,,,,,,,,,,,,,,,,,,,,,,,,,,,,,
,,,,,,,6393f158851fb438d2ceb5d7,2023-08-07_17h04.53.098,HF_wild_card,2022.2.4,Win32,59.59475566,6393f158851fb438d2ceb5d7,64ce5acb97489d65b14ecc7a,64d115e8d32e3a56eb5d7664,,,,,,,decisionTrl,resources/DR.BMP,resources/DG.BMP,Door1,0.264322917,0.079427083,1,0,0,1.7388,optionRight,30,15230,7,18,0,18,0,1,,,,,,,,,,,,,,,,,,,,,,,,,,,,,,,,,,,,,,,
,,,,,,,6393f158851fb438d2ceb5d7,2023-08-07_17h04.53.098,HF_wild_card,2022.2.4,Win32,59.59475566,6393f158851fb438d2ceb5d7,64ce5acb97489d65b14ecc7a,64d115e8d32e3a56eb5d7664,,,,,,,ctch,resources/DG.BMP,resources/DY.BMP,Door4,0.3671875,0.069010417,1,0,0,1.1368,optionRight,60,15290,7,19,0,19,0,1,,,,,,,,,,,,,,,,,,,,,,,,,,,,,,,,,,,,,,,
,,,,,,,6393f158851fb438d2ceb5d7,2023-08-07_17h04.53.098,HF_wild_card,2022.2.4,Win32,59.59475566,6393f158851fb438d2ceb5d7,64ce5acb97489d65b14ecc7a,64d115e8d32e3a56eb5d7664,,,,,,,decisionTrl,resources/DP.BMP,resources/DY.BMP,Door4,0.2734375,0.08984375,1,0,0,1.2481,optionRight,60,15350,7,20,0,20,0,1,,,,,,,,,,,,,,,,,,,,,,,,,,,,,,,,,,,,,,,
,,,,,,,6393f158851fb438d2ceb5d7,2023-08-07_17h04.53.098,HF_wild_card,2022.2.4,Win32,59.59475566,6393f158851fb438d2ceb5d7,64ce5acb97489d65b14ecc7a,64d115e8d32e3a56eb5d7664,,,,,,,decisionTrl,resources/DY.BMP,resources/DP.BMP,Door4,-0.234375,0.0390625,1,0,0,1.3869,optionLeft,60,15410,7,21,0,21,0,1,,,,,,,,,,,,,,,,,,,,,,,,,,,,,,,,,,,,,,,
