Condition,Low fixed image (Door1),Low risky image (Door2),High fixed image (Door3),High risky image (Door4),NonExtreme Wild Card 1,NonExtreme Wild Card 2,,date,expName,psychopyVersion,OS,frameRate,PROLIFIC_PID,STUDY_ID,SESSION_ID,mouse_2.x,mouse_2.y,mouse_2.leftButton,mouse_2.midButton,mouse_2.rightButton,mouse_2.clicked_name,Trial Type,Left Option Image,Right Option Image,Chosen Door,mouse.x,mouse.y,mouse.leftButton,mouse.midButton,mouse.rightButton,mouse.time,mouse.clicked_name,Feedback,Cumulative Reward,Block,trial.thisRepN,trial.thisTrialN,trial.thisN,trial.thisIndex,trial.ran,blocks.thisRepN,blocks.thisTrialN,blocks.thisN,blocks.thisIndex,blocks.ran,Money conversion,First Outcome Reported,Shown Door (First Outcome),Displayed Image (First Outcome),outcomes.thisRepN,outcomes.thisTrialN,outcomes.thisN,outcomes.thisIndex,outcomes.ran,judgments.thisRepN,judgments.thisTrialN,judgments.thisN,judgments.thisIndex,judgments.ran,freqMouse.x,freqMouse.y,freqMouse.leftButton,freqMouse.midButton,freqMouse.rightButton,freqMouse.clicked_name,FQJ for first outcome,FQJ for second outcome,Shown Door,Displayed Image,trials.thisRepN,trials.thisTrialN,trials.thisN,trials.thisIndex,trials.ran,judgBlock.thisRepN,judgBlock.thisTrialN,judgBlock.thisN,judgBlock.thisIndex,judgBlock.ran
2,resources/DP.BMP,resources/DBN.BMP,resources/DR.BMP,resources/DB.BMP,resources/DG.BMP,resources/DY.BMP,,2023-08-16_08h47.33.654,HF_wild_card,2022.2.4,Win32,59.99160118,5ffdd6ac44be033c5ca23956,64d2fd46c836a06233681665,64dc7f0696ba187eefe1fd09,,,,,,,,,,,,,,,,,,,,,,,,,,,,,,,,,,,,,,,,,,,,,,,,,,,,,,,,,,,,,,,,
,,,,,,,,2023-08-16_08h47.33.654,HF_wild_card,2022.2.4,Win32,59.99160118,5ffdd6ac44be033c5ca23956,64d2fd46c836a06233681665,64dc7f0696ba187eefe1fd09,0.00462963,-0.413888889,1,0,0,agree,,,,,,,,,,,,,,,,,,,,,,,,,,,,,,,,,,,,,,,,,,,,,,,,,,,,,,,,,,
,,,,,,,,2023-08-16_08h47.33.654,HF_wild_card,2022.2.4,Win32,59.99160118,5ffdd6ac44be033c5ca23956,64d2fd46c836a06233681665,64dc7f0696ba187eefe1fd09,,,,,,,,,,,,,,,,,,,,,,,,,,,,,,,,,,,,,,,,,,,,,,,,,,,,,,,,,,,,,,,,
,,,,,,,,2023-08-16_08h47.33.654,HF_wild_card,2022.2.4,Win32,59.99160118,5ffdd6ac44be033c5ca23956,64d2fd46c836a06233681665,64dc7f0696ba187eefe1fd09,,,,,,,decisionTrl,resources/DBN.BMP,resources/DY.BMP,Door2,-0.209259259,-0.172222222,1,0,0,2.4076,optionLeft,40,40,1,0,0,0,0,1,,,,,,,,,,,,,,,,,,,,,,,,,,,,,,,,,,,,,,,
,,,,,,,,2023-08-16_08h47.33.654,HF_wild_card,2022.2.4,Win32,59.99160118,5ffdd6ac44be033c5ca23956,64d2fd46c836a06233681665,64dc7f0696ba187eefe1fd09,,,,,,,sngl,resources/Empty.png,resources/DP.BMP,Door1,0.37962963,0.044444444,1,0,0,1.5627,optionRight,30,70,1,1,0,1,0,1,,,,,,,,,,,,,,,,,,,,,,,,,,,,,,,,,,,,,,,
,,,,,,,,2023-08-16_08h47.33.654,HF_wild_card,2022.2.4,Win32,59.99160118,5ffdd6ac44be033c5ca23956,64d2fd46c836a06233681665,64dc7f0696ba187eefe1fd09,,,,,,,decisionTrl,resources/DR.BMP,resources/DB.BMP,Door4,0.412037037,0.021296296,1,0,0,1.4626,optionRight,80,150,1,2,0,2,0,1,,,,,,,,,,,,,,,,,,,,,,,,,,,,,,,,,,,,,,,
,,,,,,,,2023-08-16_08h47.33.654,HF_wild_card,2022.2.4,Win32,59.99160118,5ffdd6ac44be033c5ca23956,64d2fd46c836a06233681665,64dc7f0696ba187eefe1fd09,,,,,,,sngl,resources/DY.BMP,resources/Empty.png,WildCard_NonEx,-0.221296296,0.001851852,1,0,0,1.1287,optionLeft,55,205,1,3,0,3,0,1,,,,,,,,,,,,,,,,,,,,,,,,,,,,,,,,,,,,,,,
,,,,,,,,2023-08-16_08h47.33.654,HF_wild_card,2022.2.4,Win32,59.99160118,5ffdd6ac44be033c5ca23956,64d2fd46c836a06233681665,64dc7f0696ba187eefe1fd09,,,,,,,decisionTrl,resources/DB.BMP,resources/DR.BMP,Door4,-0.255555556,-0.02962963,1,0,0,2.1963,optionLeft,60,265,1,4,0,4,0,1,,,,,,,,,,,,,,,,,,,,,,,,,,,,,,,,,,,,,,,
,,,,,,,,2023-08-16_08h47.33.654,HF_wild_card,2022.2.4,Win32,59.99160118,5ffdd6ac44be033c5ca23956,64d2fd46c836a06233681665,64dc7f0696ba187eefe1fd09,,,,,,,sngl,resources/Empty.png,resources/DB.BMP,Door4,0.258333333,0.012037037,1,0,0,1.2464,optionRight,60,325,1,5,0,5,0,1,,,,,,,,,,,,,,,,,,,,,,,,,,,,,,,,,,,,,,,
,,,,,,,,2023-08-16_08h47.33.654,HF_wild_card,2022.2.4,Win32,59.99160118,5ffdd6ac44be033c5ca23956,64d2fd46c836a06233681665,64dc7f0696ba187eefe1fd09,,,,,,,ctch,resources/DBN.BMP,resources/DR.BMP,Door3,0.319444444,0.003703704,1,0,0,2.6462,optionRight,70,395,1,6,0,6,0,1,,,,,,,,,,,,,,,,,,,,,,,,,,,,,,,,,,,,,,,
,,,,,,,,2023-08-16_08h47.33.654,HF_wild_card,2022.2.4,Win32,59.99160118,5ffdd6ac44be033c5ca23956,64d2fd46c836a06233681665,64dc7f0696ba187eefe1fd09,,,,,,,decisionTrl,resources/DR.BMP,resources/DB.BMP,Door4,0.358333333,0.011111111,1,0,0,1.663,optionRight,60,455,1,7,0,7,0,1,,,,,,,,,,,,,,,,,,,,,,,,,,,,,,,,,,,,,,,
,,,,,,,,2023-08-16_08h47.33.654,HF_wild_card,2022.2.4,Win32,59.99160118,5ffdd6ac44be033c5ca23956,64d2fd46c836a06233681665,64dc7f0696ba187eefe1fd09,,,,,,,sngl,resources/DR.BMP,resources/Empty.png,Door3,-0.250925926,-0.00462963,1,0,0,0.7622,optionLeft,70,525,1,8,0,8,0,1,,,,,,,,,,,,,,,,,,,,,,,,,,,,,,,,,,,,,,,
,,,,,,,,2023-08-16_08h47.33.654,HF_wild_card,2022.2.4,Win32,59.99160118,5ffdd6ac44be033c5ca23956,64d2fd46c836a06233681665,64dc7f0696ba187eefe1fd09,,,,,,,decisionTrl,resources/DBN.BMP,resources/DP.BMP,Door1,0.331481481,0.036111111,1,0,0,1.348,optionRight,30,555,1,9,0,9,0,1,,,,,,,,,,,,,,,,,,,,,,,,,,,,,,,,,,,,,,,
,,,,,,,,2023-08-16_08h47.33.654,HF_wild_card,2022.2.4,Win32,59.99160118,5ffdd6ac44be033c5ca23956,64d2fd46c836a06233681665,64dc7f0696ba187eefe1fd09,,,,,,,sngl,resources/Empty.png,resources/DY.BMP,WildCard_NonEx,0.432407407,0.089814815,1,0,0,1.23,optionRight,55,610,1,10,0,10,0,1,,,,,,,,,,,,,,,,,,,,,,,,,,,,,,,,,,,,,,,
,,,,,,,,2023-08-16_08h47.33.654,HF_wild_card,2022.2.4,Win32,59.99160118,5ffdd6ac44be033c5ca23956,64d2fd46c836a06233681665,64dc7f0696ba187eefe1fd09,,,,,,,decisionTrl,resources/DB.BMP,resources/DR.BMP,Door3,0.297222222,0.099074074,1,0,0,1.2286,optionRight,70,680,1,11,0,11,0,1,,,,,,,,,,,,,,,,,,,,,,,,,,,,,,,,,,,,,,,
,,,,,,,,2023-08-16_08h47.33.654,HF_wild_card,2022.2.4,Win32,59.99160118,5ffdd6ac44be033c5ca23956,64d2fd46c836a06233681665,64dc7f0696ba187eefe1fd09,,,,,,,decisionTrl,resources/DP.BMP,resources/DBN.BMP,Door2,0.525925926,0.186111111,1,0,0,1.3804,optionRight,20,700,1,12,0,12,0,1,,,,,,,,,,,,,,,,,,,,,,,,,,,,,,,,,,,,,,,
,,,,,,,,2023-08-16_08h47.33.654,HF_wild_card,2022.2.4,Win32,59.99160118,5ffdd6ac44be033c5ca23956,64d2fd46c836a06233681665,64dc7f0696ba187eefe1fd09,,,,,,,ctch,resources/DBN.BMP,resources/DR.BMP,Door3,0.284259259,0.130555556,1,0,0,1.1793,optionRight,70,770,1,13,0,13,0,1,,,,,,,,,,,,,,,,,,,,,,,,,,,,,,,,,,,,,,,
,,,,,,,,2023-08-16_08h47.33.654,HF_wild_card,2022.2.4,Win32,59.99160118,5ffdd6ac44be033c5ca23956,64d2fd46c836a06233681665,64dc7f0696ba187eefe1fd09,,,,,,,decisionTrl,resources/DB.BMP,resources/DY.BMP,Door4,-0.231481481,0.024074074,1,0,0,1.7122,optionLeft,60,830,1,14,0,14,0,1,,,,,,,,,,,,,,,,,,,,,,,,,,,,,,,,,,,,,,,
,,,,,,,,2023-08-16_08h47.33.654,HF_wild_card,2022.2.4,Win32,59.99160118,5ffdd6ac44be033c5ca23956,64d2fd46c836a06233681665,64dc7f0696ba187eefe1fd09,,,,,,,ctch,resources/DB.BMP,resources/DP.BMP,Door4,-0.277777778,0.02962963,1,0,0,1.1808,optionLeft,80,910,1,15,0,15,0,1,,,,,,,,,,,,,,,,,,,,,,,,,,,,,,,,,,,,,,,
,,,,,,,,2023-08-16_08h47.33.654,HF_wild_card,2022.2.4,Win32,59.99160118,5ffdd6ac44be033c5ca23956,64d2fd46c836a06233681665,64dc7f0696ba187eefe1fd09,,,,,,,decisionTrl,resources/DB.BMP,resources/DR.BMP,Door3,0.312037037,0.133333333,1,0,0,1.0797,optionRight,70,980,1,16,0,16,0,1,,,,,,,,,,,,,,,,,,,,,,,,,,,,,,,,,,,,,,,
,,,,,,,,2023-08-16_08h47.33.654,HF_wild_card,2022.2.4,Win32,59.99160118,5ffdd6ac44be033c5ca23956,64d2fd46c836a06233681665,64dc7f0696ba187eefe1fd09,,,,,,,decisionTrl,resources/DP.BMP,resources/DBN.BMP,Door1,-0.286111111,0.090740741,1,0,0,1.5468,optionLeft,30,1010,1,17,0,17,0,1,,,,,,,,,,,,,,,,,,,,,,,,,,,,,,,,,,,,,,,
,,,,,,,,2023-08-16_08h47.33.654,HF_wild_card,2022.2.4,Win32,59.99160118,5ffdd6ac44be033c5ca23956,64d2fd46c836a06233681665,64dc7f0696ba187eefe1fd09,,,,,,,decisionTrl,resources/DY.BMP,resources/DB.BMP,Door4,0.267592593,0.022222222,1,0,0,3.7788,optionRight,80,1090,1,18,0,18,0,1,,,,,,,,,,,,,,,,,,,,,,,,,,,,,,,,,,,,,,,
,,,,,,,,2023-08-16_08h47.33.654,HF_wild_card,2022.2.4,Win32,59.99160118,5ffdd6ac44be033c5ca23956,64d2fd46c836a06233681665,64dc7f0696ba187eefe1fd09,,,,,,,sngl,resources/Empty.png,resources/DR.BMP,Door3,0.257407407,0.021296296,1,0,0,0.9636,optionRight,70,1160,1,19,0,19,0,1,,,,,,,,,,,,,,,,,,,,,,,,,,,,,,,,,,,,,,,
,,,,,,,,2023-08-16_08h47.33.654,HF_wild_card,2022.2.4,Win32,59.99160118,5ffdd6ac44be033c5ca23956,64d2fd46c836a06233681665,64dc7f0696ba187eefe1fd09,,,,,,,sngl,resources/DY.BMP,resources/Empty.png,WildCard_NonEx,-0.224074074,0.010185185,1,0,0,0.6964,optionLeft,45,1205,1,20,0,20,0,1,,,,,,,,,,,,,,,,,,,,,,,,,,,,,,,,,,,,,,,
,,,,,,,,2023-08-16_08h47.33.654,HF_wild_card,2022.2.4,Win32,59.99160118,5ffdd6ac44be033c5ca23956,64d2fd46c836a06233681665,64dc7f0696ba187eefe1fd09,,,,,,,ctch,resources/DR.BMP,resources/DBN.BMP,Door3,-0.267592593,0.02962963,1,0,0,1.1466,optionLeft,70,1275,1,21,0,21,0,1,,,,,,,,,,,,,,,,,,,,,,,,,,,,,,,,,,,,,,,
,,,,,,,,2023-08-16_08h47.33.654,HF_wild_card,2022.2.4,Win32,59.99160118,5ffdd6ac44be033c5ca23956,64d2fd46c836a06233681665,64dc7f0696ba187eefe1fd09,,,,,,,decisionTrl,resources/DP.BMP,resources/DBN.BMP,Door1,-0.219444444,0.012962963,1,0,0,0.8812,optionLeft,30,1305,1,22,0,22,0,1,,,,,,,,,,,,,,,,,,,,,,,,,,,,,,,,,,,,,,,
,,,,,,,,2023-08-16_08h47.33.654,HF_wild_card,2022.2.4,Win32,59.99160118,5ffdd6ac44be033c5ca23956,64d2fd46c836a06233681665,64dc7f0696ba187eefe1fd09,,,,,,,sngl,resources/DBN.BMP,resources/Empty.png,Door2,-0.217592593,0.019444444,1,0,0,0.6789,optionLeft,40,1345,1,23,0,23,0,1,,,,,,,,,,,,,,,,,,,,,,,,,,,,,,,,,,,,,,,
,,,,,,,,2023-08-16_08h47.33.654,HF_wild_card,2022.2.4,Win32,59.99160118,5ffdd6ac44be033c5ca23956,64d2fd46c836a06233681665,64dc7f0696ba187eefe1fd09,,,,,,,decisionTrl,resources/DP.BMP,resources/DBN.BMP,Door2,0.276851852,0.05462963,1,0,0,0.8286,optionRight,40,1385,1,24,0,24,0,1,,,,,,,,,,,,,,,,,,,,,,,,,,,,,,,,,,,,,,,
,,,,,,,,2023-08-16_08h47.33.654,HF_wild_card,2022.2.4,Win32,59.99160118,5ffdd6ac44be033c5ca23956,64d2fd46c836a06233681665,64dc7f0696ba187eefe1fd09,,,,,,,decisionTrl,resources/DR.BMP,resources/DB.BMP,Door3,-0.328703704,0.084259259,1,0,0,1.4647,optionLeft,70,1455,1,25,0,25,0,1,,,,,,,,,,,,,,,,,,,,,,,,,,,,,,,,,,,,,,,
,,,,,,,,2023-08-16_08h47.33.654,HF_wild_card,2022.2.4,Win32,59.99160118,5ffdd6ac44be033c5ca23956,64d2fd46c836a06233681665,64dc7f0696ba187eefe1fd09,,,,,,,decisionTrl,resources/DBN.BMP,resources/DP.BMP,Door2,-0.290740741,0.141666667,1,0,0,1.7644,optionLeft,20,1475,1,26,0,26,0,1,,,,,,,,,,,,,,,,,,,,,,,,,,,,,,,,,,,,,,,
,,,,,,,,2023-08-16_08h47.33.654,HF_wild_card,2022.2.4,Win32,59.99160118,5ffdd6ac44be033c5ca23956,64d2fd46c836a06233681665,64dc7f0696ba187eefe1fd09,,,,,,,ctch,resources/DR.BMP,resources/DBN.BMP,Door3,-0.363888889,0.12962963,1,0,0,0.9968,optionLeft,70,1545,1,27,0,27,0,1,,,,,,,,,,,,,,,,,,,,,,,,,,,,,,,,,,,,,,,
,,,,,,,,2023-08-16_08h47.33.654,HF_wild_card,2022.2.4,Win32,59.99160118,5ffdd6ac44be033c5ca23956,64d2fd46c836a06233681665,64dc7f0696ba187eefe1fd09,,,,,,,decisionTrl,resources/DBN.BMP,resources/DP.BMP,Door1,0.343518519,0.130555556,1,0,0,1.6462,optionRight,30,1575,1,28,0,28,0,1,,,,,,,,,,,,,,,,,,,,,,,,,,,,,,,,,,,,,,,
,,,,,,,,2023-08-16_08h47.33.654,HF_wild_card,2022.2.4,Win32,59.99160118,5ffdd6ac44be033c5ca23956,64d2fd46c836a06233681665,64dc7f0696ba187eefe1fd09,,,,,,,sngl,resources/Empty.png,resources/DY.BMP,WildCard_NonEx,0.424074074,0.115740741,1,0,0,0.8807,optionRight,45,1620,1,29,0,29,0,1,,,,,,,,,,,,,,,,,,,,,,,,,,,,,,,,,,,,,,,
,,,,,,,,2023-08-16_08h47.33.654,HF_wild_card,2022.2.4,Win32,59.99160118,5ffdd6ac44be033c5ca23956,64d2fd46c836a06233681665,64dc7f0696ba187eefe1fd09,,,,,,,ctch,resources/DB.BMP,resources/DP.BMP,Door4,-0.249074074,0.062037037,1,0,0,0.9625,optionLeft,80,1700,1,30,0,30,0,1,,,,,,,,,,,,,,,,,,,,,,,,,,,,,,,,,,,,,,,
,,,,,,,,2023-08-16_08h47.33.654,HF_wild_card,2022.2.4,Win32,59.99160118,5ffdd6ac44be033c5ca23956,64d2fd46c836a06233681665,64dc7f0696ba187eefe1fd09,,,,,,,decisionTrl,resources/DY.BMP,resources/DBN.BMP,WildCard_NonEx,-0.281481481,0.181481481,1,0,0,1.9174,optionLeft,55,1755,1,31,0,31,0,1,,,,,,,,,,,,,,,,,,,,,,,,,,,,,,,,,,,,,,,
,,,,,,,,2023-08-16_08h47.33.654,HF_wild_card,2022.2.4,Win32,59.99160118,5ffdd6ac44be033c5ca23956,64d2fd46c836a06233681665,64dc7f0696ba187eefe1fd09,,,,,,,decisionTrl,resources/DP.BMP,resources/DY.BMP,WildCard_NonEx,0.482407407,0.231481481,1,0,0,1.7144,optionRight,55,1810,1,32,0,32,0,1,,,,,,,,,,,,,,,,,,,,,,,,,,,,,,,,,,,,,,,
,,,,,,,,2023-08-16_08h47.33.654,HF_wild_card,2022.2.4,Win32,59.99160118,5ffdd6ac44be033c5ca23956,64d2fd46c836a06233681665,64dc7f0696ba187eefe1fd09,,,,,,,decisionTrl,resources/DR.BMP,resources/DY.BMP,Door3,-0.24537037,0.108333333,1,0,0,1.6968,optionLeft,70,1880,1,33,0,33,0,1,,,,,,,,,,,,,,,,,,,,,,,,,,,,,,,,,,,,,,,
,,,,,,,,2023-08-16_08h47.33.654,HF_wild_card,2022.2.4,Win32,59.99160118,5ffdd6ac44be033c5ca23956,64d2fd46c836a06233681665,64dc7f0696ba187eefe1fd09,,,,,,,decisionTrl,resources/DY.BMP,resources/DR.BMP,Door3,0.381481481,0.117592593,1,0,0,0.8306,optionRight,70,1950,1,34,0,34,0,1,,,,,,,,,,,,,,,,,,,,,,,,,,,,,,,,,,,,,,,
,,,,,,,,2023-08-16_08h47.33.654,HF_wild_card,2022.2.4,Win32,59.99160118,5ffdd6ac44be033c5ca23956,64d2fd46c836a06233681665,64dc7f0696ba187eefe1fd09,,,,,,,ctch,resources/DP.BMP,resources/DB.BMP,Door4,0.346296296,0.105555556,1,0,0,1.2808,optionRight,80,2030,1,35,0,35,0,1,,,,,,,,,,,,,,,,,,,,,,,,,,,,,,,,,,,,,,,
,,,,,,,,2023-08-16_08h47.33.654,HF_wild_card,2022.2.4,Win32,59.99160118,5ffdd6ac44be033c5ca23956,64d2fd46c836a06233681665,64dc7f0696ba187eefe1fd09,,,,,,,decisionTrl,resources/DBN.BMP,resources/DP.BMP,Door1,0.302777778,0.159259259,1,0,0,1.0966,optionRight,30,2060,1,36,0,36,0,1,,,,,,,,,,,,,,,,,,,,,,,,,,,,,,,,,,,,,,,
,,,,,,,,2023-08-16_08h47.33.654,HF_wild_card,2022.2.4,Win32,59.99160118,5ffdd6ac44be033c5ca23956,64d2fd46c836a06233681665,64dc7f0696ba187eefe1fd09,,,,,,,sngl,resources/DB.BMP,resources/Empty.png,Door4,-0.268518519,0.042592593,1,0,0,1.4121,optionLeft,80,2140,1,37,0,37,0,1,,,,,,,,,,,,,,,,,,,,,,,,,,,,,,,,,,,,,,,
,,,,,,,,2023-08-16_08h47.33.654,HF_wild_card,2022.2.4,Win32,59.99160118,5ffdd6ac44be033c5ca23956,64d2fd46c836a06233681665,64dc7f0696ba187eefe1fd09,,,,,,,ctch,resources/DP.BMP,resources/DB.BMP,Door4,0.361111111,0.011111111,1,0,0,0.8804,optionRight,60,2200,1,38,0,38,0,1,,,,,,,,,,,,,,,,,,,,,,,,,,,,,,,,,,,,,,,
,,,,,,,,2023-08-16_08h47.33.654,HF_wild_card,2022.2.4,Win32,59.99160118,5ffdd6ac44be033c5ca23956,64d2fd46c836a06233681665,64dc7f0696ba187eefe1fd09,,,,,,,sngl,resources/Empty.png,resources/DBN.BMP,Door2,0.290096878,0.034983854,1,0,0,0.7629,optionRight,20,2220,1,39,0,39,0,1,,,,,,,,,,,,,,,,,,,,,,,,,,,,,,,,,,,,,,,
,,,,,,,,2023-08-16_08h47.33.654,HF_wild_card,2022.2.4,Win32,59.99160118,5ffdd6ac44be033c5ca23956,64d2fd46c836a06233681665,64dc7f0696ba187eefe1fd09,,,,,,,decisionTrl,resources/DY.BMP,resources/DP.BMP,WildCard_NonEx,-0.236275565,0.092034446,1,0,0,1.4456,optionLeft,55,2275,1,40,0,40,0,1,,,,,,,,,,,,,,,,,,,,,,,,,,,,,,,,,,,,,,,
,,,,,,,,2023-08-16_08h47.33.654,HF_wild_card,2022.2.4,Win32,59.99160118,5ffdd6ac44be033c5ca23956,64d2fd46c836a06233681665,64dc7f0696ba187eefe1fd09,,,,,,,sngl,resources/DP.BMP,resources/Empty.png,Door1,-0.184607104,0.072658773,1,0,0,0.754,optionLeft,30,2305,1,41,0,41,0,1,,,,,,,,,,,,,,,,,,,,,,,,,,,,,,,,,,,,,,,
,,,,,,,,2023-08-16_08h47.33.654,HF_wild_card,2022.2.4,Win32,59.99160118,5ffdd6ac44be033c5ca23956,64d2fd46c836a06233681665,64dc7f0696ba187eefe1fd09,,,,,,,decisionTrl,resources/DR.BMP,resources/DB.BMP,Door4,0.368675996,0.15123789,1,0,0,0.9575,optionRight,80,2385,1,42,0,42,0,1,,,,,,,,,,,,,,,,,,,,,,,,,,,,,,,,,,,,,,,
,,,,,,,,2023-08-16_08h47.33.654,HF_wild_card,2022.2.4,Win32,59.99160118,5ffdd6ac44be033c5ca23956,64d2fd46c836a06233681665,64dc7f0696ba187eefe1fd09,,,,,,,decisionTrl,resources/DB.BMP,resources/DR.BMP,Door3,0.391280947,0.085575888,1,0,0,0.9805,optionRight,70,2455,1,43,0,43,0,1,,,,,,,,,,,,,,,,,,,,,,,,,,,,,,,,,,,,,,,
,,,,,,,,2023-08-16_08h47.33.654,HF_wild_card,2022.2.4,Win32,59.99160118,5ffdd6ac44be033c5ca23956,64d2fd46c836a06233681665,64dc7f0696ba187eefe1fd09,,,,,,,,,,,,,,,,,,,,,,,,,,0,0,0,0,1,,,,,,,,,,,,,,,,,,,,,,,,,,,,,,,,,,
,,,,,,,,2023-08-16_08h47.33.654,HF_wild_card,2022.2.4,Win32,59.99160118,5ffdd6ac44be033c5ca23956,64d2fd46c836a06233681665,64dc7f0696ba187eefe1fd09,,,,,,,decisionTrl,resources/DP.BMP,resources/DBN.BMP,Door1,-0.15123789,-0.098493003,1,0,0,1.0738,optionLeft,30,2485,2,0,0,0,0,1,,,,,,,,,,,,,,,,,,,,,,,,,,,,,,,,,,,,,,,
,,,,,,,,2023-08-16_08h47.33.654,HF_wild_card,2022.2.4,Win32,59.99160118,5ffdd6ac44be033c5ca23956,64d2fd46c836a06233681665,64dc7f0696ba187eefe1fd09,,,,,,,decisionTrl,resources/DY.BMP,resources/DBN.BMP,WildCard_NonEx,-0.180301399,0.041442411,1,0,0,0.8874,optionLeft,45,2530,2,1,0,1,0,1,,,,,,,,,,,,,,,,,,,,,,,,,,,,,,,,,,,,,,,
,,,,,,,,2023-08-16_08h47.33.654,HF_wild_card,2022.2.4,Win32,59.99160118,5ffdd6ac44be033c5ca23956,64d2fd46c836a06233681665,64dc7f0696ba187eefe1fd09,,,,,,,decisionTrl,resources/DB.BMP,resources/DR.BMP,Door4,-0.272874058,0.020990312,1,0,0,0.7141,optionLeft,80,2610,2,2,0,2,0,1,,,,,,,,,,,,,,,,,,,,,,,,,,,,,,,,,,,,,,,
,,,,,,,,2023-08-16_08h47.33.654,HF_wild_card,2022.2.4,Win32,59.99160118,5ffdd6ac44be033c5ca23956,64d2fd46c836a06233681665,64dc7f0696ba187eefe1fd09,,,,,,,decisionTrl,resources/DY.BMP,resources/DR.BMP,Door3,0.437567277,0.103875135,1,0,0,0.9795,optionRight,70,2680,2,3,0,3,0,1,,,,,,,,,,,,,,,,,,,,,,,,,,,,,,,,,,,,,,,
,,,,,,,,2023-08-16_08h47.33.654,HF_wild_card,2022.2.4,Win32,59.99160118,5ffdd6ac44be033c5ca23956,64d2fd46c836a06233681665,64dc7f0696ba187eefe1fd09,,,,,,,ctch,resources/DBN.BMP,resources/DR.BMP,Door3,0.358988159,0.128632939,1,0,0,0.7688,optionRight,70,2750,2,4,0,4,0,1,,,,,,,,,,,,,,,,,,,,,,,,,,,,,,,,,,,,,,,
,,,,,,,,2023-08-16_08h47.33.654,HF_wild_card,2022.2.4,Win32,59.99160118,5ffdd6ac44be033c5ca23956,64d2fd46c836a06233681665,64dc7f0696ba187eefe1fd09,,,,,,,sngl,resources/Empty.png,resources/DBN.BMP,Door2,0.337459634,0.110333692,1,0,0,0.7491,optionRight,40,2790,2,5,0,5,0,1,,,,,,,,,,,,,,,,,,,,,,,,,,,,,,,,,,,,,,,
,,,,,,,,2023-08-16_08h47.33.654,HF_wild_card,2022.2.4,Win32,59.99160118,5ffdd6ac44be033c5ca23956,64d2fd46c836a06233681665,64dc7f0696ba187eefe1fd09,,,,,,,sngl,resources/DB.BMP,resources/Empty.png,Door4,-0.186759957,0.032831001,1,0,0,0.5905,optionLeft,60,2850,2,6,0,6,0,1,,,,,,,,,,,,,,,,,,,,,,,,,,,,,,,,,,,,,,,
,,,,,,,,2023-08-16_08h47.33.654,HF_wild_card,2022.2.4,Win32,59.99160118,5ffdd6ac44be033c5ca23956,64d2fd46c836a06233681665,64dc7f0696ba187eefe1fd09,,,,,,,ctch,resources/DP.BMP,resources/DB.BMP,Door4,0.32992465,0.13401507,1,0,0,1.3304,optionRight,60,2910,2,7,0,7,0,1,,,,,,,,,,,,,,,,,,,,,,,,,,,,,,,,,,,,,,,
,,,,,,,,2023-08-16_08h47.33.654,HF_wild_card,2022.2.4,Win32,59.99160118,5ffdd6ac44be033c5ca23956,64d2fd46c836a06233681665,64dc7f0696ba187eefe1fd09,,,,,,,decisionTrl,resources/DP.BMP,resources/DBN.BMP,Door1,-0.254574812,0.172766416,1,0,0,1.2478,optionLeft,30,2940,2,8,0,8,0,1,,,,,,,,,,,,,,,,,,,,,,,,,,,,,,,,,,,,,,,
,,,,,,,,2023-08-16_08h47.33.654,HF_wild_card,2022.2.4,Win32,59.99160118,5ffdd6ac44be033c5ca23956,64d2fd46c836a06233681665,64dc7f0696ba187eefe1fd09,,,,,,,decisionTrl,resources/DR.BMP,resources/DB.BMP,Door3,-0.203982777,0.111410118,1,0,0,0.8296,optionLeft,70,3010,2,9,0,9,0,1,,,,,,,,,,,,,,,,,,,,,,,,,,,,,,,,,,,,,,,
,,,,,,,,2023-08-16_08h47.33.654,HF_wild_card,2022.2.4,Win32,59.99160118,5ffdd6ac44be033c5ca23956,64d2fd46c836a06233681665,64dc7f0696ba187eefe1fd09,,,,,,,sngl,resources/DY.BMP,resources/Empty.png,WildCard_NonEx,-0.145855759,0.081270183,1,0,0,0.597,optionLeft,55,3065,2,10,0,10,0,1,,,,,,,,,,,,,,,,,,,,,,,,,,,,,,,,,,,,,,,
,,,,,,,,2023-08-16_08h47.33.654,HF_wild_card,2022.2.4,Win32,59.99160118,5ffdd6ac44be033c5ca23956,64d2fd46c836a06233681665,64dc7f0696ba187eefe1fd09,,,,,,,decisionTrl,resources/DB.BMP,resources/DR.BMP,Door3,0.331001076,0.10818084,1,0,0,1.2261,optionRight,70,3135,2,11,0,11,0,1,,,,,,,,,,,,,,,,,,,,,,,,,,,,,,,,,,,,,,,
,,,,,,,,2023-08-16_08h47.33.654,HF_wild_card,2022.2.4,Win32,59.99160118,5ffdd6ac44be033c5ca23956,64d2fd46c836a06233681665,64dc7f0696ba187eefe1fd09,,,,,,,decisionTrl,resources/DBN.BMP,resources/DP.BMP,Door1,0.382669537,0.189989236,1,0,0,0.9638,optionRight,30,3165,2,12,0,12,0,1,,,,,,,,,,,,,,,,,,,,,,,,,,,,,,,,,,,,,,,
,,,,,,,,2023-08-16_08h47.33.654,HF_wild_card,2022.2.4,Win32,59.99160118,5ffdd6ac44be033c5ca23956,64d2fd46c836a06233681665,64dc7f0696ba187eefe1fd09,,,,,,,ctch,resources/DB.BMP,resources/DP.BMP,Door4,-0.213670614,0.208288482,1,0,0,1.0643,optionLeft,60,3225,2,13,0,13,0,1,,,,,,,,,,,,,,,,,,,,,,,,,,,,,,,,,,,,,,,
,,,,,,,,2023-08-16_08h47.33.654,HF_wild_card,2022.2.4,Win32,59.99160118,5ffdd6ac44be033c5ca23956,64d2fd46c836a06233681665,64dc7f0696ba187eefe1fd09,,,,,,,decisionTrl,resources/DBN.BMP,resources/DP.BMP,Door1,0.357911733,0.169537137,1,0,0,0.9424,optionRight,30,3255,2,14,0,14,0,1,,,,,,,,,,,,,,,,,,,,,,,,,,,,,,,,,,,,,,,
,,,,,,,,2023-08-16_08h47.33.654,HF_wild_card,2022.2.4,Win32,59.99160118,5ffdd6ac44be033c5ca23956,64d2fd46c836a06233681665,64dc7f0696ba187eefe1fd09,,,,,,,ctch,resources/DB.BMP,resources/DP.BMP,Door4,-0.19752422,0.103875135,1,0,0,1.0804,optionLeft,60,3315,2,15,0,15,0,1,,,,,,,,,,,,,,,,,,,,,,,,,,,,,,,,,,,,,,,
,,,,,,,,2023-08-16_08h47.33.654,HF_wild_card,2022.2.4,Win32,59.99160118,5ffdd6ac44be033c5ca23956,64d2fd46c836a06233681665,64dc7f0696ba187eefe1fd09,,,,,,,decisionTrl,resources/DP.BMP,resources/DY.BMP,WildCard_NonEx,0.294402583,0.131862217,1,0,0,1.6862,optionRight,45,3360,2,16,0,16,0,1,,,,,,,,,,,,,,,,,,,,,,,,,,,,,,,,,,,,,,,
,,,,,,,,2023-08-16_08h47.33.654,HF_wild_card,2022.2.4,Win32,59.99160118,5ffdd6ac44be033c5ca23956,64d2fd46c836a06233681665,64dc7f0696ba187eefe1fd09,,,,,,,sngl,resources/DBN.BMP,resources/Empty.png,Door2,-0.205059203,0.129709365,1,0,0,0.614,optionLeft,20,3380,2,17,0,17,0,1,,,,,,,,,,,,,,,,,,,,,,,,,,,,,,,,,,,,,,,
,,,,,,,,2023-08-16_08h47.33.654,HF_wild_card,2022.2.4,Win32,59.99160118,5ffdd6ac44be033c5ca23956,64d2fd46c836a06233681665,64dc7f0696ba187eefe1fd09,,,,,,,ctch,resources/DBN.BMP,resources/DR.BMP,Door3,0.361141012,0.179224973,1,0,0,0.8468,optionRight,70,3450,2,18,0,18,0,1,,,,,,,,,,,,,,,,,,,,,,,,,,,,,,,,,,,,,,,
,,,,,,,,2023-08-16_08h47.33.654,HF_wild_card,2022.2.4,Win32,59.99160118,5ffdd6ac44be033c5ca23956,64d2fd46c836a06233681665,64dc7f0696ba187eefe1fd09,,,,,,,decisionTrl,resources/DR.BMP,resources/DB.BMP,Door3,-0.337459634,0.131862217,1,0,0,1.9133,optionLeft,70,3520,2,19,0,19,0,1,,,,,,,,,,,,,,,,,,,,,,,,,,,,,,,,,,,,,,,
,,,,,,,,2023-08-16_08h47.33.654,HF_wild_card,2022.2.4,Win32,59.99160118,5ffdd6ac44be033c5ca23956,64d2fd46c836a06233681665,64dc7f0696ba187eefe1fd09,,,,,,,decisionTrl,resources/DB.BMP,resources/DY.BMP,Door4,-0.254574812,0.097416577,1,0,0,0.6972,optionLeft,60,3580,2,20,0,20,0,1,,,,,,,,,,,,,,,,,,,,,,,,,,,,,,,,,,,,,,,
,,,,,,,,2023-08-16_08h47.33.654,HF_wild_card,2022.2.4,Win32,59.99160118,5ffdd6ac44be033c5ca23956,64d2fd46c836a06233681665,64dc7f0696ba187eefe1fd09,,,,,,,ctch,resources/DR.BMP,resources/DBN.BMP,Door3,-0.208288482,0.12540366,1,0,0,0.7921,optionLeft,70,3650,2,21,0,21,0,1,,,,,,,,,,,,,,,,,,,,,,,,,,,,,,,,,,,,,,,
,,,,,,,,2023-08-16_08h47.33.654,HF_wild_card,2022.2.4,Win32,59.99160118,5ffdd6ac44be033c5ca23956,64d2fd46c836a06233681665,64dc7f0696ba187eefe1fd09,,,,,,,ctch,resources/DR.BMP,resources/DBN.BMP,Door3,-0.219052745,0.072658773,1,0,0,0.5573,optionLeft,70,3720,2,22,0,22,0,1,,,,,,,,,,,,,,,,,,,,,,,,,,,,,,,,,,,,,,,
,,,,,,,,2023-08-16_08h47.33.654,HF_wild_card,2022.2.4,Win32,59.99160118,5ffdd6ac44be033c5ca23956,64d2fd46c836a06233681665,64dc7f0696ba187eefe1fd09,,,,,,,decisionTrl,resources/DP.BMP,resources/DBN.BMP,Door2,0.256727664,0.12540366,1,0,0,1.9471,optionRight,20,3740,2,23,0,23,0,1,,,,,,,,,,,,,,,,,,,,,,,,,,,,,,,,,,,,,,,
,,,,,,,,2023-08-16_08h47.33.654,HF_wild_card,2022.2.4,Win32,59.99160118,5ffdd6ac44be033c5ca23956,64d2fd46c836a06233681665,64dc7f0696ba187eefe1fd09,,,,,,,decisionTrl,resources/DBN.BMP,resources/DP.BMP,Door1,0.442949408,0.152314316,1,0,0,0.7929,optionRight,30,3770,2,24,0,24,0,1,,,,,,,,,,,,,,,,,,,,,,,,,,,,,,,,,,,,,,,
,,,,,,,,2023-08-16_08h47.33.654,HF_wild_card,2022.2.4,Win32,59.99160118,5ffdd6ac44be033c5ca23956,64d2fd46c836a06233681665,64dc7f0696ba187eefe1fd09,,,,,,,sngl,resources/Empty.png,resources/DR.BMP,Door3,0.283638321,0.02744887,1,0,0,0.6927,optionRight,70,3840,2,25,0,25,0,1,,,,,,,,,,,,,,,,,,,,,,,,,,,,,,,,,,,,,,,
,,,,,,,,2023-08-16_08h47.33.654,HF_wild_card,2022.2.4,Win32,59.99160118,5ffdd6ac44be033c5ca23956,64d2fd46c836a06233681665,64dc7f0696ba187eefe1fd09,,,,,,,decisionTrl,resources/DB.BMP,resources/DR.BMP,Door4,-0.226587729,0.098493003,1,0,0,0.7709,optionLeft,80,3920,2,26,0,26,0,1,,,,,,,,,,,,,,,,,,,,,,,,,,,,,,,,,,,,,,,
,,,,,,,,2023-08-16_08h47.33.654,HF_wild_card,2022.2.4,Win32,59.99160118,5ffdd6ac44be033c5ca23956,64d2fd46c836a06233681665,64dc7f0696ba187eefe1fd09,,,,,,,decisionTrl,resources/DR.BMP,resources/DB.BMP,Door4,0.37621098,0.132938644,1,0,0,0.6818,optionRight,60,3980,2,27,0,27,0,1,,,,,,,,,,,,,,,,,,,,,,,,,,,,,,,,,,,,,,,
,,,,,,,,2023-08-16_08h47.33.654,HF_wild_card,2022.2.4,Win32,59.99160118,5ffdd6ac44be033c5ca23956,64d2fd46c836a06233681665,64dc7f0696ba187eefe1fd09,,,,,,,sngl,resources/DR.BMP,resources/Empty.png,Door3,-0.215823466,0.058665231,1,0,0,0.5083,optionLeft,70,4050,2,28,0,28,0,1,,,,,,,,,,,,,,,,,,,,,,,,,,,,,,,,,,,,,,,
,,,,,,,,2023-08-16_08h47.33.654,HF_wild_card,2022.2.4,Win32,59.99160118,5ffdd6ac44be033c5ca23956,64d2fd46c836a06233681665,64dc7f0696ba187eefe1fd09,,,,,,,sngl,resources/Empty.png,resources/DP.BMP,Door1,0.266415501,0.047900969,1,0,0,0.656,optionRight,30,4080,2,29,0,29,0,1,,,,,,,,,,,,,,,,,,,,,,,,,,,,,,,,,,,,,,,
,,,,,,,,2023-08-16_08h47.33.654,HF_wild_card,2022.2.4,Win32,59.99160118,5ffdd6ac44be033c5ca23956,64d2fd46c836a06233681665,64dc7f0696ba187eefe1fd09,,,,,,,decisionTrl,resources/DB.BMP,resources/DR.BMP,Door4,-0.210441335,0.02744887,1,0,0,0.6211,optionLeft,80,4160,2,30,0,30,0,1,,,,,,,,,,,,,,,,,,,,,,,,,,,,,,,,,,,,,,,
,,,,,,,,2023-08-16_08h47.33.654,HF_wild_card,2022.2.4,Win32,59.99160118,5ffdd6ac44be033c5ca23956,64d2fd46c836a06233681665,64dc7f0696ba187eefe1fd09,,,,,,,sngl,resources/DP.BMP,resources/Empty.png,Door1,-0.188912809,0.01883746,1,0,0,0.713,optionLeft,30,4190,2,31,0,31,0,1,,,,,,,,,,,,,,,,,,,,,,,,,,,,,,,,,,,,,,,
,,,,,,,,2023-08-16_08h47.33.654,HF_wild_card,2022.2.4,Win32,59.99160118,5ffdd6ac44be033c5ca23956,64d2fd46c836a06233681665,64dc7f0696ba187eefe1fd09,,,,,,,decisionTrl,resources/DR.BMP,resources/DY.BMP,Door3,-0.279332616,0.179224973,1,0,0,0.7544,optionLeft,70,4260,2,32,0,32,0,1,,,,,,,,,,,,,,,,,,,,,,,,,,,,,,,,,,,,,,,
,,,,,,,,2023-08-16_08h47.33.654,HF_wild_card,2022.2.4,Win32,59.99160118,5ffdd6ac44be033c5ca23956,64d2fd46c836a06233681665,64dc7f0696ba187eefe1fd09,,,,,,,decisionTrl,resources/DR.BMP,resources/DB.BMP,Door4,0.297631862,0.120021529,1,0,0,0.759,optionRight,60,4320,2,33,0,33,0,1,,,,,,,,,,,,,,,,,,,,,,,,,,,,,,,,,,,,,,,
,,,,,,,,2023-08-16_08h47.33.654,HF_wild_card,2022.2.4,Win32,59.99160118,5ffdd6ac44be033c5ca23956,64d2fd46c836a06233681665,64dc7f0696ba187eefe1fd09,,,,,,,sngl,resources/DY.BMP,resources/Empty.png,WildCard_NonEx,-0.167384284,0.022066738,1,0,0,0.5661,optionLeft,45,4365,2,34,0,34,0,1,,,,,,,,,,,,,,,,,,,,,,,,,,,,,,,,,,,,,,,
,,,,,,,,2023-08-16_08h47.33.654,HF_wild_card,2022.2.4,Win32,59.99160118,5ffdd6ac44be033c5ca23956,64d2fd46c836a06233681665,64dc7f0696ba187eefe1fd09,,,,,,,decisionTrl,resources/DBN.BMP,resources/DP.BMP,Door1,0.339612487,0.16846071,1,0,0,1.2655,optionRight,30,4395,2,35,0,35,0,1,,,,,,,,,,,,,,,,,,,,,,,,,,,,,,,,,,,,,,,
,,,,,,,,2023-08-16_08h47.33.654,HF_wild_card,2022.2.4,Win32,59.99160118,5ffdd6ac44be033c5ca23956,64d2fd46c836a06233681665,64dc7f0696ba187eefe1fd09,,,,,,,decisionTrl,resources/DBN.BMP,resources/DY.BMP,WildCard_NonEx,0.38482239,0.112486545,1,0,0,1.6576,optionRight,45,4440,2,36,0,36,0,1,,,,,,,,,,,,,,,,,,,,,,,,,,,,,,,,,,,,,,,
,,,,,,,,2023-08-16_08h47.33.654,HF_wild_card,2022.2.4,Win32,59.99160118,5ffdd6ac44be033c5ca23956,64d2fd46c836a06233681665,64dc7f0696ba187eefe1fd09,,,,,,,sngl,resources/Empty.png,resources/DY.BMP,WildCard_NonEx,0.269644779,0.087728741,1,0,0,0.6597,optionRight,45,4485,2,37,0,37,0,1,,,,,,,,,,,,,,,,,,,,,,,,,,,,,,,,,,,,,,,
,,,,,,,,2023-08-16_08h47.33.654,HF_wild_card,2022.2.4,Win32,59.99160118,5ffdd6ac44be033c5ca23956,64d2fd46c836a06233681665,64dc7f0696ba187eefe1fd09,,,,,,,decisionTrl,resources/DY.BMP,resources/DB.BMP,WildCard_NonEx,-0.192142088,0.072658773,1,0,0,0.6499,optionLeft,55,4540,2,38,0,38,0,1,,,,,,,,,,,,,,,,,,,,,,,,,,,,,,,,,,,,,,,
,,,,,,,,2023-08-16_08h47.33.654,HF_wild_card,2022.2.4,Win32,59.99160118,5ffdd6ac44be033c5ca23956,64d2fd46c836a06233681665,64dc7f0696ba187eefe1fd09,,,,,,,decisionTrl,resources/DY.BMP,resources/DP.BMP,WildCard_NonEx,-0.226587729,0.1598493,1,0,0,1.1757,optionLeft,45,4585,2,39,0,39,0,1,,,,,,,,,,,,,,,,,,,,,,,,,,,,,,,,,,,,,,,
,,,,,,,,2023-08-16_08h47.33.654,HF_wild_card,2022.2.4,Win32,59.99160118,5ffdd6ac44be033c5ca23956,64d2fd46c836a06233681665,64dc7f0696ba187eefe1fd09,,,,,,,ctch,resources/DP.BMP,resources/DB.BMP,Door4,0.352529602,0.208288482,1,0,0,0.8082,optionRight,80,4665,2,40,0,40,0,1,,,,,,,,,,,,,,,,,,,,,,,,,,,,,,,,,,,,,,,
,,,,,,,,2023-08-16_08h47.33.654,HF_wild_card,2022.2.4,Win32,59.99160118,5ffdd6ac44be033c5ca23956,64d2fd46c836a06233681665,64dc7f0696ba187eefe1fd09,,,,,,,decisionTrl,resources/DP.BMP,resources/DBN.BMP,Door1,-0.146932185,0.144779333,1,0,0,0.8306,optionLeft,30,4695,2,41,0,41,0,1,,,,,,,,,,,,,,,,,,,,,,,,,,,,,,,,,,,,,,,
,,,,,,,,2023-08-16_08h47.33.654,HF_wild_card,2022.2.4,Win32,59.99160118,5ffdd6ac44be033c5ca23956,64d2fd46c836a06233681665,64dc7f0696ba187eefe1fd09,,,,,,,sngl,resources/Empty.png,resources/DY.BMP,WildCard_NonEx,0.233046286,0.10818084,1,0,0,0.5463,optionRight,55,4750,2,42,0,42,0,1,,,,,,,,,,,,,,,,,,,,,,,,,,,,,,,,,,,,,,,
,,,,,,,,2023-08-16_08h47.33.654,HF_wild_card,2022.2.4,Win32,59.99160118,5ffdd6ac44be033c5ca23956,64d2fd46c836a06233681665,64dc7f0696ba187eefe1fd09,,,,,,,sngl,resources/Empty.png,resources/DB.BMP,Door4,0.25780409,0.059741658,1,0,0,0.597,optionRight,80,4830,2,43,0,43,0,1,,,,,,,,,,,,,,,,,,,,,,,,,,,,,,,,,,,,,,,
,,,,,,,,2023-08-16_08h47.33.654,HF_wild_card,2022.2.4,Win32,59.99160118,5ffdd6ac44be033c5ca23956,64d2fd46c836a06233681665,64dc7f0696ba187eefe1fd09,,,,,,,,,,,,,,,,,,,,,,,,,,1,0,1,0,1,,,,,,,,,,,,,,,,,,,,,,,,,,,,,,,,,,
,,,,,,,,2023-08-16_08h47.33.654,HF_wild_card,2022.2.4,Win32,59.99160118,5ffdd6ac44be033c5ca23956,64d2fd46c836a06233681665,64dc7f0696ba187eefe1fd09,,,,,,,decisionTrl,resources/DB.BMP,resources/DR.BMP,Door4,-0.305166846,0.033907427,1,0,0,0.6588,optionLeft,60,4890,3,0,0,0,0,1,,,,,,,,,,,,,,,,,,,,,,,,,,,,,,,,,,,,,,,
,,,,,,,,2023-08-16_08h47.33.654,HF_wild_card,2022.2.4,Win32,59.99160118,5ffdd6ac44be033c5ca23956,64d2fd46c836a06233681665,64dc7f0696ba187eefe1fd09,,,,,,,decisionTrl,resources/DBN.BMP,resources/DP.BMP,Door1,0.408503767,0.094187298,1,0,0,0.7463,optionRight,30,4920,3,1,0,1,0,1,,,,,,,,,,,,,,,,,,,,,,,,,,,,,,,,,,,,,,,
,,,,,,,,2023-08-16_08h47.33.654,HF_wild_card,2022.2.4,Win32,59.99160118,5ffdd6ac44be033c5ca23956,64d2fd46c836a06233681665,64dc7f0696ba187eefe1fd09,,,,,,,sngl,resources/Empty.png,resources/DR.BMP,Door3,0.409580194,0.047900969,1,0,0,0.5639,optionRight,70,4990,3,2,0,2,0,1,,,,,,,,,,,,,,,,,,,,,,,,,,,,,,,,,,,,,,,
,,,,,,,,2023-08-16_08h47.33.654,HF_wild_card,2022.2.4,Win32,59.99160118,5ffdd6ac44be033c5ca23956,64d2fd46c836a06233681665,64dc7f0696ba187eefe1fd09,,,,,,,ctch,resources/DP.BMP,resources/DB.BMP,Door4,0.431108719,0.107104413,1,0,0,0.8803,optionRight,80,5070,3,3,0,3,0,1,,,,,,,,,,,,,,,,,,,,,,,,,,,,,,,,,,,,,,,
,,,,,,,,2023-08-16_08h47.33.654,HF_wild_card,2022.2.4,Win32,59.99160118,5ffdd6ac44be033c5ca23956,64d2fd46c836a06233681665,64dc7f0696ba187eefe1fd09,,,,,,,ctch,resources/DP.BMP,resources/DB.BMP,Door4,0.408503767,-0.014531755,1,0,0,1.8145,optionRight,60,5130,3,4,0,4,0,1,,,,,,,,,,,,,,,,,,,,,,,,,,,,,,,,,,,,,,,
,,,,,,,,2023-08-16_08h47.33.654,HF_wild_card,2022.2.4,Win32,59.99160118,5ffdd6ac44be033c5ca23956,64d2fd46c836a06233681665,64dc7f0696ba187eefe1fd09,,,,,,,decisionTrl,resources/DR.BMP,resources/DB.BMP,Door3,-0.094187298,0.083423036,1,0,0,0.7626,optionLeft,70,5200,3,5,0,5,0,1,,,,,,,,,,,,,,,,,,,,,,,,,,,,,,,,,,,,,,,
,,,,,,,,2023-08-16_08h47.33.654,HF_wild_card,2022.2.4,Win32,59.99160118,5ffdd6ac44be033c5ca23956,64d2fd46c836a06233681665,64dc7f0696ba187eefe1fd09,,,,,,,sngl,resources/DBN.BMP,resources/Empty.png,Door2,-0.194294941,0.060818084,1,0,0,0.5295,optionLeft,40,5240,3,6,0,6,0,1,,,,,,,,,,,,,,,,,,,,,,,,,,,,,,,,,,,,,,,
,,,,,,,,2023-08-16_08h47.33.654,HF_wild_card,2022.2.4,Win32,59.99160118,5ffdd6ac44be033c5ca23956,64d2fd46c836a06233681665,64dc7f0696ba187eefe1fd09,,,,,,,decisionTrl,resources/DY.BMP,resources/DBN.BMP,WildCard_NonEx,-0.129709365,0.087728741,1,0,0,1.1847,optionLeft,55,5295,3,7,0,7,0,1,,,,,,,,,,,,,,,,,,,,,,,,,,,,,,,,,,,,,,,
,,,,,,,,2023-08-16_08h47.33.654,HF_wild_card,2022.2.4,Win32,59.99160118,5ffdd6ac44be033c5ca23956,64d2fd46c836a06233681665,64dc7f0696ba187eefe1fd09,,,,,,,ctch,resources/DBN.BMP,resources/DR.BMP,Door3,0.394510226,0.12540366,1,0,0,0.6873,optionRight,70,5365,3,8,0,8,0,1,,,,,,,,,,,,,,,,,,,,,,,,,,,,,,,,,,,,,,,
,,,,,,,,2023-08-16_08h47.33.654,HF_wild_card,2022.2.4,Win32,59.99160118,5ffdd6ac44be033c5ca23956,64d2fd46c836a06233681665,64dc7f0696ba187eefe1fd09,,,,,,,decisionTrl,resources/DBN.BMP,resources/DP.BMP,Door1,0.332077503,0.107104413,1,0,0,1.1236,optionRight,30,5395,3,9,0,9,0,1,,,,,,,,,,,,,,,,,,,,,,,,,,,,,,,,,,,,,,,
,,,,,,,,2023-08-16_08h47.33.654,HF_wild_card,2022.2.4,Win32,59.99160118,5ffdd6ac44be033c5ca23956,64d2fd46c836a06233681665,64dc7f0696ba187eefe1fd09,,,,,,,decisionTrl,resources/DR.BMP,resources/DB.BMP,Door4,0.388051668,0.144779333,1,0,0,1.6838,optionRight,80,5475,3,10,0,10,0,1,,,,,,,,,,,,,,,,,,,,,,,,,,,,,,,,,,,,,,,
,,,,,,,,2023-08-16_08h47.33.654,HF_wild_card,2022.2.4,Win32,59.99160118,5ffdd6ac44be033c5ca23956,64d2fd46c836a06233681665,64dc7f0696ba187eefe1fd09,,,,,,,sngl,resources/Empty.png,resources/DY.BMP,WildCard_NonEx,0.247039828,0.069429494,1,0,0,0.6212,optionRight,45,5520,3,11,0,11,0,1,,,,,,,,,,,,,,,,,,,,,,,,,,,,,,,,,,,,,,,
,,,,,,,,2023-08-16_08h47.33.654,HF_wild_card,2022.2.4,Win32,59.99160118,5ffdd6ac44be033c5ca23956,64d2fd46c836a06233681665,64dc7f0696ba187eefe1fd09,,,,,,,decisionTrl,resources/DB.BMP,resources/DY.BMP,Door4,-0.180301399,0.112486545,1,0,0,0.6705,optionLeft,60,5580,3,12,0,12,0,1,,,,,,,,,,,,,,,,,,,,,,,,,,,,,,,,,,,,,,,
,,,,,,,,2023-08-16_08h47.33.654,HF_wild_card,2022.2.4,Win32,59.99160118,5ffdd6ac44be033c5ca23956,64d2fd46c836a06233681665,64dc7f0696ba187eefe1fd09,,,,,,,decisionTrl,resources/DP.BMP,resources/DBN.BMP,Door1,-0.337459634,0.177072121,1,0,0,1.5873,optionLeft,30,5610,3,13,0,13,0,1,,,,,,,,,,,,,,,,,,,,,,,,,,,,,,,,,,,,,,,
,,,,,,,,2023-08-16_08h47.33.654,HF_wild_card,2022.2.4,Win32,59.99160118,5ffdd6ac44be033c5ca23956,64d2fd46c836a06233681665,64dc7f0696ba187eefe1fd09,,,,,,,decisionTrl,resources/DBN.BMP,resources/DY.BMP,WildCard_NonEx,0.358988159,0.103875135,1,0,0,0.8533,optionRight,55,5665,3,14,0,14,0,1,,,,,,,,,,,,,,,,,,,,,,,,,,,,,,,,,,,,,,,
,,,,,,,,2023-08-16_08h47.33.654,HF_wild_card,2022.2.4,Win32,59.99160118,5ffdd6ac44be033c5ca23956,64d2fd46c836a06233681665,64dc7f0696ba187eefe1fd09,,,,,,,sngl,resources/DP.BMP,resources/Empty.png,Door1,-0.268568353,0.058665231,1,0,0,0.6867,optionLeft,30,5695,3,15,0,15,0,1,,,,,,,,,,,,,,,,,,,,,,,,,,,,,,,,,,,,,,,
,,,,,,,,2023-08-16_08h47.33.654,HF_wild_card,2022.2.4,Win32,59.99160118,5ffdd6ac44be033c5ca23956,64d2fd46c836a06233681665,64dc7f0696ba187eefe1fd09,,,,,,,sngl,resources/DB.BMP,resources/Empty.png,Door4,-0.239504844,0.020990312,1,0,0,0.5272,optionLeft,80,5775,3,16,0,16,0,1,,,,,,,,,,,,,,,,,,,,,,,,,,,,,,,,,,,,,,,
,,,,,,,,2023-08-16_08h47.33.654,HF_wild_card,2022.2.4,Win32,59.99160118,5ffdd6ac44be033c5ca23956,64d2fd46c836a06233681665,64dc7f0696ba187eefe1fd09,,,,,,,ctch,resources/DB.BMP,resources/DP.BMP,Door4,-0.40204521,0.154467169,1,0,0,1.0802,optionLeft,60,5835,3,17,0,17,0,1,,,,,,,,,,,,,,,,,,,,,,,,,,,,,,,,,,,,,,,
,,,,,,,,2023-08-16_08h47.33.654,HF_wild_card,2022.2.4,Win32,59.99160118,5ffdd6ac44be033c5ca23956,64d2fd46c836a06233681665,64dc7f0696ba187eefe1fd09,,,,,,,decisionTrl,resources/DY.BMP,resources/DB.BMP,Door4,0.314854682,0.094187298,1,0,0,0.8794,optionRight,60,5895,3,18,0,18,0,1,,,,,,,,,,,,,,,,,,,,,,,,,,,,,,,,,,,,,,,
,,,,,,,,2023-08-16_08h47.33.654,HF_wild_card,2022.2.4,Win32,59.99160118,5ffdd6ac44be033c5ca23956,64d2fd46c836a06233681665,64dc7f0696ba187eefe1fd09,,,,,,,decisionTrl,resources/DY.BMP,resources/DR.BMP,Door3,0.299784715,0.104951561,1,0,0,1.0781,optionRight,70,5965,3,19,0,19,0,1,,,,,,,,,,,,,,,,,,,,,,,,,,,,,,,,,,,,,,,
,,,,,,,,2023-08-16_08h47.33.654,HF_wild_card,2022.2.4,Win32,59.99160118,5ffdd6ac44be033c5ca23956,64d2fd46c836a06233681665,64dc7f0696ba187eefe1fd09,,,,,,,ctch,resources/DBN.BMP,resources/DR.BMP,Door3,0.545209903,0.140473628,1,0,0,0.6144,optionRight,70,6035,3,20,0,20,0,1,,,,,,,,,,,,,,,,,,,,,,,,,,,,,,,,,,,,,,,
,,,,,,,,2023-08-16_08h47.33.654,HF_wild_card,2022.2.4,Win32,59.99160118,5ffdd6ac44be033c5ca23956,64d2fd46c836a06233681665,64dc7f0696ba187eefe1fd09,,,,,,,decisionTrl,resources/DP.BMP,resources/DBN.BMP,Door2,0.301937567,0.205059203,1,0,0,1.4308,optionRight,20,6055,3,21,0,21,0,1,,,,,,,,,,,,,,,,,,,,,,,,,,,,,,,,,,,,,,,
,,,,,,,,2023-08-16_08h47.33.654,HF_wild_card,2022.2.4,Win32,59.99160118,5ffdd6ac44be033c5ca23956,64d2fd46c836a06233681665,64dc7f0696ba187eefe1fd09,,,,,,,decisionTrl,resources/DBN.BMP,resources/DP.BMP,Door1,0.413885899,0.059741658,1,0,0,0.8635,optionRight,30,6085,3,22,0,22,0,1,,,,,,,,,,,,,,,,,,,,,,,,,,,,,,,,,,,,,,,
,,,,,,,,2023-08-16_08h47.33.654,HF_wild_card,2022.2.4,Win32,59.99160118,5ffdd6ac44be033c5ca23956,64d2fd46c836a06233681665,64dc7f0696ba187eefe1fd09,,,,,,,decisionTrl,resources/DB.BMP,resources/DR.BMP,Door4,-0.228740581,0.123250807,1,0,0,0.7294,optionLeft,80,6165,3,23,0,23,0,1,,,,,,,,,,,,,,,,,,,,,,,,,,,,,,,,,,,,,,,
,,,,,,,,2023-08-16_08h47.33.654,HF_wild_card,2022.2.4,Win32,59.99160118,5ffdd6ac44be033c5ca23956,64d2fd46c836a06233681665,64dc7f0696ba187eefe1fd09,,,,,,,decisionTrl,resources/DY.BMP,resources/DP.BMP,WildCard_NonEx,-0.213670614,0.145855759,1,0,0,1.0465,optionLeft,55,6220,3,24,0,24,0,1,,,,,,,,,,,,,,,,,,,,,,,,,,,,,,,,,,,,,,,
,,,,,,,,2023-08-16_08h47.33.654,HF_wild_card,2022.2.4,Win32,59.99160118,5ffdd6ac44be033c5ca23956,64d2fd46c836a06233681665,64dc7f0696ba187eefe1fd09,,,,,,,decisionTrl,resources/DBN.BMP,resources/DP.BMP,Door1,0.250269107,0.11679225,1,0,0,0.8804,optionRight,30,6250,3,25,0,25,0,1,,,,,,,,,,,,,,,,,,,,,,,,,,,,,,,,,,,,,,,
,,,,,,,,2023-08-16_08h47.33.654,HF_wild_card,2022.2.4,Win32,59.99160118,5ffdd6ac44be033c5ca23956,64d2fd46c836a06233681665,64dc7f0696ba187eefe1fd09,,,,,,,sngl,resources/Empty.png,resources/DBN.BMP,Door2,0.255651238,0.050053821,1,0,0,0.7934,optionRight,20,6270,3,26,0,26,0,1,,,,,,,,,,,,,,,,,,,,,,,,,,,,,,,,,,,,,,,
,,,,,,,,2023-08-16_08h47.33.654,HF_wild_card,2022.2.4,Win32,59.99160118,5ffdd6ac44be033c5ca23956,64d2fd46c836a06233681665,64dc7f0696ba187eefe1fd09,,,,,,,ctch,resources/DR.BMP,resources/DBN.BMP,Door3,-0.273950484,0.050053821,1,0,0,1.3179,optionLeft,70,6340,3,27,0,27,0,1,,,,,,,,,,,,,,,,,,,,,,,,,,,,,,,,,,,,,,,
,,,,,,,,2023-08-16_08h47.33.654,HF_wild_card,2022.2.4,Win32,59.99160118,5ffdd6ac44be033c5ca23956,64d2fd46c836a06233681665,64dc7f0696ba187eefe1fd09,,,,,,,decisionTrl,resources/DB.BMP,resources/DR.BMP,Door4,-0.306243272,0.097416577,1,0,0,0.9419,optionLeft,60,6400,3,28,0,28,0,1,,,,,,,,,,,,,,,,,,,,,,,,,,,,,,,,,,,,,,,
,,,,,,,,2023-08-16_08h47.33.654,HF_wild_card,2022.2.4,Win32,59.99160118,5ffdd6ac44be033c5ca23956,64d2fd46c836a06233681665,64dc7f0696ba187eefe1fd09,,,,,,,sngl,resources/Empty.png,resources/DY.BMP,WildCard_NonEx,0.278256189,0.076964478,1,0,0,0.542,optionRight,55,6455,3,29,0,29,0,1,,,,,,,,,,,,,,,,,,,,,,,,,,,,,,,,,,,,,,,
,,,,,,,,2023-08-16_08h47.33.654,HF_wild_card,2022.2.4,Win32,59.99160118,5ffdd6ac44be033c5ca23956,64d2fd46c836a06233681665,64dc7f0696ba187eefe1fd09,,,,,,,decisionTrl,resources/DP.BMP,resources/DY.BMP,WildCard_NonEx,0.369752422,0.117868676,1,0,0,1.028,optionRight,45,6500,3,30,0,30,0,1,,,,,,,,,,,,,,,,,,,,,,,,,,,,,,,,,,,,,,,
,,,,,,,,2023-08-16_08h47.33.654,HF_wild_card,2022.2.4,Win32,59.99160118,5ffdd6ac44be033c5ca23956,64d2fd46c836a06233681665,64dc7f0696ba187eefe1fd09,,,,,,,ctch,resources/DB.BMP,resources/DP.BMP,Door4,-0.25780409,0.141550054,1,0,0,0.7972,optionLeft,80,6580,3,31,0,31,0,1,,,,,,,,,,,,,,,,,,,,,,,,,,,,,,,,,,,,,,,
,,,,,,,,2023-08-16_08h47.33.654,HF_wild_card,2022.2.4,Win32,59.99160118,5ffdd6ac44be033c5ca23956,64d2fd46c836a06233681665,64dc7f0696ba187eefe1fd09,,,,,,,sngl,resources/DY.BMP,resources/Empty.png,WildCard_NonEx,-0.154467169,0.048977395,1,0,0,0.6694,optionLeft,45,6625,3,32,0,32,0,1,,,,,,,,,,,,,,,,,,,,,,,,,,,,,,,,,,,,,,,
,,,,,,,,2023-08-16_08h47.33.654,HF_wild_card,2022.2.4,Win32,59.99160118,5ffdd6ac44be033c5ca23956,64d2fd46c836a06233681665,64dc7f0696ba187eefe1fd09,,,,,,,decisionTrl,resources/DP.BMP,resources/DBN.BMP,Door1,-0.228740581,0.12540366,1,0,0,1.1251,optionLeft,30,6655,3,33,0,33,0,1,,,,,,,,,,,,,,,,,,,,,,,,,,,,,,,,,,,,,,,
,,,,,,,,2023-08-16_08h47.33.654,HF_wild_card,2022.2.4,Win32,59.99160118,5ffdd6ac44be033c5ca23956,64d2fd46c836a06233681665,64dc7f0696ba187eefe1fd09,,,,,,,decisionTrl,resources/DR.BMP,resources/DB.BMP,Door4,0.268568353,0.059741658,1,0,0,0.604,optionRight,80,6735,3,34,0,34,0,1,,,,,,,,,,,,,,,,,,,,,,,,,,,,,,,,,,,,,,,
,,,,,,,,2023-08-16_08h47.33.654,HF_wild_card,2022.2.4,Win32,59.99160118,5ffdd6ac44be033c5ca23956,64d2fd46c836a06233681665,64dc7f0696ba187eefe1fd09,,,,,,,decisionTrl,resources/DP.BMP,resources/DBN.BMP,Door1,-0.228740581,0.047900969,1,0,0,1.0635,optionLeft,30,6765,3,35,0,35,0,1,,,,,,,,,,,,,,,,,,,,,,,,,,,,,,,,,,,,,,,
,,,,,,,,2023-08-16_08h47.33.654,HF_wild_card,2022.2.4,Win32,59.99160118,5ffdd6ac44be033c5ca23956,64d2fd46c836a06233681665,64dc7f0696ba187eefe1fd09,,,,,,,ctch,resources/DR.BMP,resources/DBN.BMP,Door3,-0.180301399,0.023143165,1,0,0,0.6037,optionLeft,70,6835,3,36,0,36,0,1,,,,,,,,,,,,,,,,,,,,,,,,,,,,,,,,,,,,,,,
,,,,,,,,2023-08-16_08h47.33.654,HF_wild_card,2022.2.4,Win32,59.99160118,5ffdd6ac44be033c5ca23956,64d2fd46c836a06233681665,64dc7f0696ba187eefe1fd09,,,,,,,sngl,resources/Empty.png,resources/DB.BMP,Door4,0.280409042,0.008073197,1,0,0,0.5912,optionRight,60,6895,3,37,0,37,0,1,,,,,,,,,,,,,,,,,,,,,,,,,,,,,,,,,,,,,,,
,,,,,,,,2023-08-16_08h47.33.654,HF_wild_card,2022.2.4,Win32,59.99160118,5ffdd6ac44be033c5ca23956,64d2fd46c836a06233681665,64dc7f0696ba187eefe1fd09,,,,,,,decisionTrl,resources/DR.BMP,resources/DB.BMP,Door3,-0.320236814,0.166307858,1,0,0,1.3468,optionLeft,70,6965,3,38,0,38,0,1,,,,,,,,,,,,,,,,,,,,,,,,,,,,,,,,,,,,,,,
,,,,,,,,2023-08-16_08h47.33.654,HF_wild_card,2022.2.4,Win32,59.99160118,5ffdd6ac44be033c5ca23956,64d2fd46c836a06233681665,64dc7f0696ba187eefe1fd09,,,,,,,sngl,resources/DR.BMP,resources/Empty.png,Door3,-0.154467169,0.097416577,1,0,0,0.5867,optionLeft,70,7035,3,39,0,39,0,1,,,,,,,,,,,,,,,,,,,,,,,,,,,,,,,,,,,,,,,
,,,,,,,,2023-08-16_08h47.33.654,HF_wild_card,2022.2.4,Win32,59.99160118,5ffdd6ac44be033c5ca23956,64d2fd46c836a06233681665,64dc7f0696ba187eefe1fd09,,,,,,,decisionTrl,resources/DR.BMP,resources/DY.BMP,Door3,-0.164155005,0.073735199,1,0,0,0.5249,optionLeft,70,7105,3,40,0,40,0,1,,,,,,,,,,,,,,,,,,,,,,,,,,,,,,,,,,,,,,,
,,,,,,,,2023-08-16_08h47.33.654,HF_wild_card,2022.2.4,Win32,59.99160118,5ffdd6ac44be033c5ca23956,64d2fd46c836a06233681665,64dc7f0696ba187eefe1fd09,,,,,,,sngl,resources/DY.BMP,resources/Empty.png,WildCard_NonEx,-0.19752422,0.115715823,1,0,0,0.528,optionLeft,55,7160,3,41,0,41,0,1,,,,,,,,,,,,,,,,,,,,,,,,,,,,,,,,,,,,,,,
,,,,,,,,2023-08-16_08h47.33.654,HF_wild_card,2022.2.4,Win32,59.99160118,5ffdd6ac44be033c5ca23956,64d2fd46c836a06233681665,64dc7f0696ba187eefe1fd09,,,,,,,sngl,resources/Empty.png,resources/DP.BMP,Door1,0.24919268,0.039289559,1,0,0,0.5647,optionRight,30,7190,3,42,0,42,0,1,,,,,,,,,,,,,,,,,,,,,,,,,,,,,,,,,,,,,,,
,,,,,,,,2023-08-16_08h47.33.654,HF_wild_card,2022.2.4,Win32,59.99160118,5ffdd6ac44be033c5ca23956,64d2fd46c836a06233681665,64dc7f0696ba187eefe1fd09,,,,,,,decisionTrl,resources/DB.BMP,resources/DR.BMP,Door4,-0.263186222,0.164155005,1,0,0,1.2155,optionLeft,60,7250,3,43,0,43,0,1,,,,,,,,,,,,,,,,,,,,,,,,,,,,,,,,,,,,,,,
,,,,,,,,2023-08-16_08h47.33.654,HF_wild_card,2022.2.4,Win32,59.99160118,5ffdd6ac44be033c5ca23956,64d2fd46c836a06233681665,64dc7f0696ba187eefe1fd09,,,,,,,,,,,,,,,,,,,,,,,,,,2,0,2,0,1,,,,,,,,,,,,,,,,,,,,,,,,,,,,,,,,,,
,,,,,,,,2023-08-16_08h47.33.654,HF_wild_card,2022.2.4,Win32,59.99160118,5ffdd6ac44be033c5ca23956,64d2fd46c836a06233681665,64dc7f0696ba187eefe1fd09,,,,,,,sngl,resources/Empty.png,resources/DG.BMP,WildCard_Ex,0.400968784,-0.081270183,1,0,0,1.4071,optionRight,55,7305,4,0,0,0,0,1,,,,,,,,,,,,,,,,,,,,,,,,,,,,,,,,,,,,,,,
,,,,,,,,2023-08-16_08h47.33.654,HF_wild_card,2022.2.4,Win32,59.99160118,5ffdd6ac44be033c5ca23956,64d2fd46c836a06233681665,64dc7f0696ba187eefe1fd09,,,,,,,decisionTrl,resources/DR.BMP,resources/DB.BMP,Door3,-0.349300323,0.172766416,1,0,0,1.1983,optionLeft,70,7375,4,1,0,1,0,1,,,,,,,,,,,,,,,,,,,,,,,,,,,,,,,,,,,,,,,
,,,,,,,,2023-08-16_08h47.33.654,HF_wild_card,2022.2.4,Win32,59.99160118,5ffdd6ac44be033c5ca23956,64d2fd46c836a06233681665,64dc7f0696ba187eefe1fd09,,,,,,,decisionTrl,resources/DG.BMP,resources/DP.BMP,WildCard_Ex,-0.075888052,0.042518837,1,0,0,1.2086,optionLeft,45,7420,4,2,0,2,0,1,,,,,,,,,,,,,,,,,,,,,,,,,,,,,,,,,,,,,,,
,,,,,,,,2023-08-16_08h47.33.654,HF_wild_card,2022.2.4,Win32,59.99160118,5ffdd6ac44be033c5ca23956,64d2fd46c836a06233681665,64dc7f0696ba187eefe1fd09,,,,,,,decisionTrl,resources/DG.BMP,resources/DR.BMP,WildCard_Ex,-0.217976319,0.039289559,1,0,0,0.6639,optionLeft,55,7475,4,3,0,3,0,1,,,,,,,,,,,,,,,,,,,,,,,,,,,,,,,,,,,,,,,
,,,,,,,,2023-08-16_08h47.33.654,HF_wild_card,2022.2.4,Win32,59.99160118,5ffdd6ac44be033c5ca23956,64d2fd46c836a06233681665,64dc7f0696ba187eefe1fd09,,,,,,,ctch,resources/DB.BMP,resources/DP.BMP,Door4,-0.283638321,0.174919268,1,0,0,1.1072,optionLeft,60,7535,4,4,0,4,0,1,,,,,,,,,,,,,,,,,,,,,,,,,,,,,,,,,,,,,,,
,,,,,,,,2023-08-16_08h47.33.654,HF_wild_card,2022.2.4,Win32,59.99160118,5ffdd6ac44be033c5ca23956,64d2fd46c836a06233681665,64dc7f0696ba187eefe1fd09,,,,,,,sngl,resources/Empty.png,resources/DP.BMP,Door1,0.233046286,0.037136706,1,0,0,0.6983,optionRight,30,7565,4,5,0,5,0,1,,,,,,,,,,,,,,,,,,,,,,,,,,,,,,,,,,,,,,,
,,,,,,,,2023-08-16_08h47.33.654,HF_wild_card,2022.2.4,Win32,59.99160118,5ffdd6ac44be033c5ca23956,64d2fd46c836a06233681665,64dc7f0696ba187eefe1fd09,,,,,,,sngl,resources/Empty.png,resources/DBN.BMP,Door2,0.314854682,0.015608181,1,0,0,0.5978,optionRight,40,7605,4,6,0,6,0,1,,,,,,,,,,,,,,,,,,,,,,,,,,,,,,,,,,,,,,,
,,,,,,,,2023-08-16_08h47.33.654,HF_wild_card,2022.2.4,Win32,59.99160118,5ffdd6ac44be033c5ca23956,64d2fd46c836a06233681665,64dc7f0696ba187eefe1fd09,,,,,,,ctch,resources/DP.BMP,resources/DB.BMP,Door4,0.521528525,0.103875135,1,0,0,1.1183,optionRight,80,7685,4,7,0,7,0,1,,,,,,,,,,,,,,,,,,,,,,,,,,,,,,,,,,,,,,,
,,,,,,,,2023-08-16_08h47.33.654,HF_wild_card,2022.2.4,Win32,59.99160118,5ffdd6ac44be033c5ca23956,64d2fd46c836a06233681665,64dc7f0696ba187eefe1fd09,,,,,,,decisionTrl,resources/DR.BMP,resources/DB.BMP,Door4,0.435414424,0.038213132,1,0,0,1.3967,optionRight,60,7745,4,8,0,8,0,1,,,,,,,,,,,,,,,,,,,,,,,,,,,,,,,,,,,,,,,
,,,,,,,,2023-08-16_08h47.33.654,HF_wild_card,2022.2.4,Win32,59.99160118,5ffdd6ac44be033c5ca23956,64d2fd46c836a06233681665,64dc7f0696ba187eefe1fd09,,,,,,,decisionTrl,resources/DR.BMP,resources/DB.BMP,Door3,-0.164155005,0.003767492,1,0,0,1.0204,optionLeft,70,7815,4,9,0,9,0,1,,,,,,,,,,,,,,,,,,,,,,,,,,,,,,,,,,,,,,,
,,,,,,,,2023-08-16_08h47.33.654,HF_wild_card,2022.2.4,Win32,59.99160118,5ffdd6ac44be033c5ca23956,64d2fd46c836a06233681665,64dc7f0696ba187eefe1fd09,,,,,,,decisionTrl,resources/DP.BMP,resources/DBN.BMP,Door1,-0.194294941,0.073735199,1,0,0,0.8966,optionLeft,30,7845,4,10,0,10,0,1,,,,,,,,,,,,,,,,,,,,,,,,,,,,,,,,,,,,,,,
,,,,,,,,2023-08-16_08h47.33.654,HF_wild_card,2022.2.4,Win32,59.99160118,5ffdd6ac44be033c5ca23956,64d2fd46c836a06233681665,64dc7f0696ba187eefe1fd09,,,,,,,ctch,resources/DP.BMP,resources/DB.BMP,Door4,0.466630786,0.093110872,1,0,0,0.8594,optionRight,80,7925,4,11,0,11,0,1,,,,,,,,,,,,,,,,,,,,,,,,,,,,,,,,,,,,,,,
,,,,,,,,2023-08-16_08h47.33.654,HF_wild_card,2022.2.4,Win32,59.99160118,5ffdd6ac44be033c5ca23956,64d2fd46c836a06233681665,64dc7f0696ba187eefe1fd09,,,,,,,decisionTrl,resources/DB.BMP,resources/DR.BMP,Door3,0.313778256,0.171689989,1,0,0,1.6578,optionRight,70,7995,4,12,0,12,0,1,,,,,,,,,,,,,,,,,,,,,,,,,,,,,,,,,,,,,,,
,,,,,,,,2023-08-16_08h47.33.654,HF_wild_card,2022.2.4,Win32,59.99160118,5ffdd6ac44be033c5ca23956,64d2fd46c836a06233681665,64dc7f0696ba187eefe1fd09,,,,,,,sngl,resources/DG.BMP,resources/Empty.png,WildCard_Ex,-0.144779333,0.029601722,1,0,0,0.5927,optionLeft,55,8050,4,13,0,13,0,1,,,,,,,,,,,,,,,,,,,,,,,,,,,,,,,,,,,,,,,
,,,,,,,,2023-08-16_08h47.33.654,HF_wild_card,2022.2.4,Win32,59.99160118,5ffdd6ac44be033c5ca23956,64d2fd46c836a06233681665,64dc7f0696ba187eefe1fd09,,,,,,,decisionTrl,resources/DB.BMP,resources/DG.BMP,Door4,-0.280409042,0.165231432,1,0,0,0.9869,optionLeft,80,8130,4,14,0,14,0,1,,,,,,,,,,,,,,,,,,,,,,,,,,,,,,,,,,,,,,,
,,,,,,,,2023-08-16_08h47.33.654,HF_wild_card,2022.2.4,Win32,59.99160118,5ffdd6ac44be033c5ca23956,64d2fd46c836a06233681665,64dc7f0696ba187eefe1fd09,,,,,,,decisionTrl,resources/DR.BMP,resources/DG.BMP,Door3,-0.252421959,0.141550054,1,0,0,1.121,optionLeft,70,8200,4,15,0,15,0,1,,,,,,,,,,,,,,,,,,,,,,,,,,,,,,,,,,,,,,,
,,,,,,,,2023-08-16_08h47.33.654,HF_wild_card,2022.2.4,Win32,59.99160118,5ffdd6ac44be033c5ca23956,64d2fd46c836a06233681665,64dc7f0696ba187eefe1fd09,,,,,,,sngl,resources/DG.BMP,resources/Empty.png,WildCard_Ex,-0.284714747,0.12540366,1,0,0,0.6302,optionLeft,45,8245,4,16,0,16,0,1,,,,,,,,,,,,,,,,,,,,,,,,,,,,,,,,,,,,,,,
,,,,,,,,2023-08-16_08h47.33.654,HF_wild_card,2022.2.4,Win32,59.99160118,5ffdd6ac44be033c5ca23956,64d2fd46c836a06233681665,64dc7f0696ba187eefe1fd09,,,,,,,decisionTrl,resources/DB.BMP,resources/DR.BMP,Door4,-0.328848224,0.175995694,1,0,0,0.8144,optionLeft,80,8325,4,17,0,17,0,1,,,,,,,,,,,,,,,,,,,,,,,,,,,,,,,,,,,,,,,
,,,,,,,,2023-08-16_08h47.33.654,HF_wild_card,2022.2.4,Win32,59.99160118,5ffdd6ac44be033c5ca23956,64d2fd46c836a06233681665,64dc7f0696ba187eefe1fd09,,,,,,,decisionTrl,resources/DP.BMP,resources/DBN.BMP,Door1,-0.141550054,0.042518837,1,0,0,0.9319,optionLeft,30,8355,4,18,0,18,0,1,,,,,,,,,,,,,,,,,,,,,,,,,,,,,,,,,,,,,,,
,,,,,,,,2023-08-16_08h47.33.654,HF_wild_card,2022.2.4,Win32,59.99160118,5ffdd6ac44be033c5ca23956,64d2fd46c836a06233681665,64dc7f0696ba187eefe1fd09,,,,,,,sngl,resources/DR.BMP,resources/Empty.png,Door3,-0.235199139,0.072658773,1,0,0,0.4919,optionLeft,70,8425,4,19,0,19,0,1,,,,,,,,,,,,,,,,,,,,,,,,,,,,,,,,,,,,,,,
,,,,,,,,2023-08-16_08h47.33.654,HF_wild_card,2022.2.4,Win32,59.99160118,5ffdd6ac44be033c5ca23956,64d2fd46c836a06233681665,64dc7f0696ba187eefe1fd09,,,,,,,ctch,resources/DR.BMP,resources/DBN.BMP,Door3,-0.289020452,0.031754575,1,0,0,0.6754,optionLeft,70,8495,4,20,0,20,0,1,,,,,,,,,,,,,,,,,,,,,,,,,,,,,,,,,,,,,,,
,,,,,,,,2023-08-16_08h47.33.654,HF_wild_card,2022.2.4,Win32,59.99160118,5ffdd6ac44be033c5ca23956,64d2fd46c836a06233681665,64dc7f0696ba187eefe1fd09,,,,,,,decisionTrl,resources/DB.BMP,resources/DR.BMP,Door4,-0.349300323,0.171689989,1,0,0,1.0255,optionLeft,60,8555,4,21,0,21,0,1,,,,,,,,,,,,,,,,,,,,,,,,,,,,,,,,,,,,,,,
,,,,,,,,2023-08-16_08h47.33.654,HF_wild_card,2022.2.4,Win32,59.99160118,5ffdd6ac44be033c5ca23956,64d2fd46c836a06233681665,64dc7f0696ba187eefe1fd09,,,,,,,ctch,resources/DBN.BMP,resources/DR.BMP,Door3,0.290096878,0.03606028,1,0,0,0.6796,optionRight,70,8625,4,22,0,22,0,1,,,,,,,,,,,,,,,,,,,,,,,,,,,,,,,,,,,,,,,
,,,,,,,,2023-08-16_08h47.33.654,HF_wild_card,2022.2.4,Win32,59.99160118,5ffdd6ac44be033c5ca23956,64d2fd46c836a06233681665,64dc7f0696ba187eefe1fd09,,,,,,,decisionTrl,resources/DBN.BMP,resources/DP.BMP,Door1,0.507534984,0.073735199,1,0,0,0.8754,optionRight,30,8655,4,23,0,23,0,1,,,,,,,,,,,,,,,,,,,,,,,,,,,,,,,,,,,,,,,
,,,,,,,,2023-08-16_08h47.33.654,HF_wild_card,2022.2.4,Win32,59.99160118,5ffdd6ac44be033c5ca23956,64d2fd46c836a06233681665,64dc7f0696ba187eefe1fd09,,,,,,,decisionTrl,resources/DP.BMP,resources/DBN.BMP,Door1,-0.21474704,0.152314316,1,0,0,0.8804,optionLeft,30,8685,4,24,0,24,0,1,,,,,,,,,,,,,,,,,,,,,,,,,,,,,,,,,,,,,,,
,,,,,,,,2023-08-16_08h47.33.654,HF_wild_card,2022.2.4,Win32,59.99160118,5ffdd6ac44be033c5ca23956,64d2fd46c836a06233681665,64dc7f0696ba187eefe1fd09,,,,,,,decisionTrl,resources/DG.BMP,resources/DB.BMP,Door4,0.38482239,0.122174381,1,0,0,0.6964,optionRight,80,8765,4,25,0,25,0,1,,,,,,,,,,,,,,,,,,,,,,,,,,,,,,,,,,,,,,,
,,,,,,,,2023-08-16_08h47.33.654,HF_wild_card,2022.2.4,Win32,59.99160118,5ffdd6ac44be033c5ca23956,64d2fd46c836a06233681665,64dc7f0696ba187eefe1fd09,,,,,,,sngl,resources/DB.BMP,resources/Empty.png,Door4,-0.227664155,0.083423036,1,0,0,0.5299,optionLeft,60,8825,4,26,0,26,0,1,,,,,,,,,,,,,,,,,,,,,,,,,,,,,,,,,,,,,,,
,,,,,,,,2023-08-16_08h47.33.654,HF_wild_card,2022.2.4,Win32,59.99160118,5ffdd6ac44be033c5ca23956,64d2fd46c836a06233681665,64dc7f0696ba187eefe1fd09,,,,,,,sngl,resources/Empty.png,resources/DB.BMP,Door4,0.340688913,0.022066738,1,0,0,0.5797,optionRight,80,8905,4,27,0,27,0,1,,,,,,,,,,,,,,,,,,,,,,,,,,,,,,,,,,,,,,,
,,,,,,,,2023-08-16_08h47.33.654,HF_wild_card,2022.2.4,Win32,59.99160118,5ffdd6ac44be033c5ca23956,64d2fd46c836a06233681665,64dc7f0696ba187eefe1fd09,,,,,,,decisionTrl,resources/DBN.BMP,resources/DP.BMP,Door1,0.358988159,0.128632939,1,0,0,1.1259,optionRight,30,8935,4,28,0,28,0,1,,,,,,,,,,,,,,,,,,,,,,,,,,,,,,,,,,,,,,,
,,,,,,,,2023-08-16_08h47.33.654,HF_wild_card,2022.2.4,Win32,59.99160118,5ffdd6ac44be033c5ca23956,64d2fd46c836a06233681665,64dc7f0696ba187eefe1fd09,,,,,,,decisionTrl,resources/DP.BMP,resources/DBN.BMP,Door1,-0.252421959,0.128632939,1,0,0,1.9755,optionLeft,30,8965,4,29,0,29,0,1,,,,,,,,,,,,,,,,,,,,,,,,,,,,,,,,,,,,,,,
,,,,,,,,2023-08-16_08h47.33.654,HF_wild_card,2022.2.4,Win32,59.99160118,5ffdd6ac44be033c5ca23956,64d2fd46c836a06233681665,64dc7f0696ba187eefe1fd09,,,,,,,sngl,resources/Empty.png,resources/DG.BMP,WildCard_Ex,0.270721206,0.055435953,1,0,0,0.6866,optionRight,45,9010,4,30,0,30,0,1,,,,,,,,,,,,,,,,,,,,,,,,,,,,,,,,,,,,,,,
,,,,,,,,2023-08-16_08h47.33.654,HF_wild_card,2022.2.4,Win32,59.99160118,5ffdd6ac44be033c5ca23956,64d2fd46c836a06233681665,64dc7f0696ba187eefe1fd09,,,,,,,decisionTrl,resources/DB.BMP,resources/DR.BMP,Door3,0.261033369,0.139397201,1,0,0,1.83,optionRight,70,9080,4,31,0,31,0,1,,,,,,,,,,,,,,,,,,,,,,,,,,,,,,,,,,,,,,,
,,,,,,,,2023-08-16_08h47.33.654,HF_wild_card,2022.2.4,Win32,59.99160118,5ffdd6ac44be033c5ca23956,64d2fd46c836a06233681665,64dc7f0696ba187eefe1fd09,,,,,,,decisionTrl,resources/DBN.BMP,resources/DP.BMP,Door1,0.49138859,0.101722282,1,0,0,0.7873,optionRight,30,9110,4,32,0,32,0,1,,,,,,,,,,,,,,,,,,,,,,,,,,,,,,,,,,,,,,,
,,,,,,,,2023-08-16_08h47.33.654,HF_wild_card,2022.2.4,Win32,59.99160118,5ffdd6ac44be033c5ca23956,64d2fd46c836a06233681665,64dc7f0696ba187eefe1fd09,,,,,,,ctch,resources/DBN.BMP,resources/DR.BMP,Door3,0.377287406,0.057588805,1,0,0,0.6924,optionRight,70,9180,4,33,0,33,0,1,,,,,,,,,,,,,,,,,,,,,,,,,,,,,,,,,,,,,,,
,,,,,,,,2023-08-16_08h47.33.654,HF_wild_card,2022.2.4,Win32,59.99160118,5ffdd6ac44be033c5ca23956,64d2fd46c836a06233681665,64dc7f0696ba187eefe1fd09,,,,,,,sngl,resources/Empty.png,resources/DR.BMP,Door3,0.32992465,0.017761033,1,0,0,0.5298,optionRight,70,9250,4,34,0,34,0,1,,,,,,,,,,,,,,,,,,,,,,,,,,,,,,,,,,,,,,,
,,,,,,,,2023-08-16_08h47.33.654,HF_wild_card,2022.2.4,Win32,59.99160118,5ffdd6ac44be033c5ca23956,64d2fd46c836a06233681665,64dc7f0696ba187eefe1fd09,,,,,,,ctch,resources/DB.BMP,resources/DP.BMP,Door4,-0.200753498,0.132938644,1,0,0,0.8094,optionLeft,80,9330,4,35,0,35,0,1,,,,,,,,,,,,,,,,,,,,,,,,,,,,,,,,,,,,,,,
,,,,,,,,2023-08-16_08h47.33.654,HF_wild_card,2022.2.4,Win32,59.99160118,5ffdd6ac44be033c5ca23956,64d2fd46c836a06233681665,64dc7f0696ba187eefe1fd09,,,,,,,decisionTrl,resources/DBN.BMP,resources/DG.BMP,WildCard_Ex,0.453713671,0.066200215,1,0,0,0.6801,optionRight,45,9375,4,36,0,36,0,1,,,,,,,,,,,,,,,,,,,,,,,,,,,,,,,,,,,,,,,
,,,,,,,,2023-08-16_08h47.33.654,HF_wild_card,2022.2.4,Win32,59.99160118,5ffdd6ac44be033c5ca23956,64d2fd46c836a06233681665,64dc7f0696ba187eefe1fd09,,,,,,,sngl,resources/DP.BMP,resources/Empty.png,Door1,-0.269644779,0.084499462,1,0,0,24.8465,optionLeft,30,9405,4,37,0,37,0,1,,,,,,,,,,,,,,,,,,,,,,,,,,,,,,,,,,,,,,,
,,,,,,,,2023-08-16_08h47.33.654,HF_wild_card,2022.2.4,Win32,59.99160118,5ffdd6ac44be033c5ca23956,64d2fd46c836a06233681665,64dc7f0696ba187eefe1fd09,,,,,,,decisionTrl,resources/DBN.BMP,resources/DP.BMP,Door1,0.280409042,0.058665231,1,0,0,0.6971,optionRight,30,9435,4,38,0,38,0,1,,,,,,,,,,,,,,,,,,,,,,,,,,,,,,,,,,,,,,,
,,,,,,,,2023-08-16_08h47.33.654,HF_wild_card,2022.2.4,Win32,59.99160118,5ffdd6ac44be033c5ca23956,64d2fd46c836a06233681665,64dc7f0696ba187eefe1fd09,,,,,,,decisionTrl,resources/DG.BMP,resources/DBN.BMP,WildCard_Ex,-0.300861141,0.038213132,1,0,0,0.9137,optionLeft,55,9490,4,39,0,39,0,1,,,,,,,,,,,,,,,,,,,,,,,,,,,,,,,,,,,,,,,
,,,,,,,,2023-08-16_08h47.33.654,HF_wild_card,2022.2.4,Win32,59.99160118,5ffdd6ac44be033c5ca23956,64d2fd46c836a06233681665,64dc7f0696ba187eefe1fd09,,,,,,,ctch,resources/DR.BMP,resources/DBN.BMP,Door3,-0.172766416,0.033907427,1,0,0,0.9185,optionLeft,70,9560,4,40,0,40,0,1,,,,,,,,,,,,,,,,,,,,,,,,,,,,,,,,,,,,,,,
,,,,,,,,2023-08-16_08h47.33.654,HF_wild_card,2022.2.4,Win32,59.99160118,5ffdd6ac44be033c5ca23956,64d2fd46c836a06233681665,64dc7f0696ba187eefe1fd09,,,,,,,sngl,resources/DBN.BMP,resources/Empty.png,Door2,-0.185683531,0.026372443,1,0,0,0.9666,optionLeft,20,9580,4,41,0,41,0,1,,,,,,,,,,,,,,,,,,,,,,,,,,,,,,,,,,,,,,,
,,,,,,,,2023-08-16_08h47.33.654,HF_wild_card,2022.2.4,Win32,59.99160118,5ffdd6ac44be033c5ca23956,64d2fd46c836a06233681665,64dc7f0696ba187eefe1fd09,,,,,,,decisionTrl,resources/DP.BMP,resources/DG.BMP,Door1,-0.172766416,0.013455328,1,0,0,0.6704,optionLeft,30,9610,4,42,0,42,0,1,,,,,,,,,,,,,,,,,,,,,,,,,,,,,,,,,,,,,,,
,,,,,,,,2023-08-16_08h47.33.654,HF_wild_card,2022.2.4,Win32,59.99160118,5ffdd6ac44be033c5ca23956,64d2fd46c836a06233681665,64dc7f0696ba187eefe1fd09,,,,,,,decisionTrl,resources/DR.BMP,resources/DB.BMP,Door4,0.411733046,0.10818084,1,0,0,0.9453,optionRight,80,9690,4,43,0,43,0,1,,,,,,,,,,,,,,,,,,,,,,,,,,,,,,,,,,,,,,,
,,,,,,,,2023-08-16_08h47.33.654,HF_wild_card,2022.2.4,Win32,59.99160118,5ffdd6ac44be033c5ca23956,64d2fd46c836a06233681665,64dc7f0696ba187eefe1fd09,,,,,,,,,,,,,,,,,,,,,,,,,,3,0,3,0,1,,,,,,,,,,,,,,,,,,,,,,,,,,,,,,,,,,
,,,,,,,,2023-08-16_08h47.33.654,HF_wild_card,2022.2.4,Win32,59.99160118,5ffdd6ac44be033c5ca23956,64d2fd46c836a06233681665,64dc7f0696ba187eefe1fd09,,,,,,,decisionTrl,resources/DG.BMP,resources/DB.BMP,Door4,0.512917115,0.039289559,1,0,0,1.0441,optionRight,80,9770,5,0,0,0,0,1,,,,,,,,,,,,,,,,,,,,,,,,,,,,,,,,,,,,,,,
,,,,,,,,2023-08-16_08h47.33.654,HF_wild_card,2022.2.4,Win32,59.99160118,5ffdd6ac44be033c5ca23956,64d2fd46c836a06233681665,64dc7f0696ba187eefe1fd09,,,,,,,sngl,resources/Empty.png,resources/DG.BMP,WildCard_Ex,0.34714747,0.041442411,1,0,0,0.7033,optionRight,45,9815,5,1,0,1,0,1,,,,,,,,,,,,,,,,,,,,,,,,,,,,,,,,,,,,,,,
,,,,,,,,2023-08-16_08h47.33.654,HF_wild_card,2022.2.4,Win32,59.99160118,5ffdd6ac44be033c5ca23956,64d2fd46c836a06233681665,64dc7f0696ba187eefe1fd09,,,,,,,sngl,resources/Empty.png,resources/DG.BMP,WildCard_Ex,0.346071044,0.01022605,1,0,0,5.8467,optionRight,55,9870,5,2,0,2,0,1,,,,,,,,,,,,,,,,,,,,,,,,,,,,,,,,,,,,,,,
,,,,,,,,2023-08-16_08h47.33.654,HF_wild_card,2022.2.4,Win32,59.99160118,5ffdd6ac44be033c5ca23956,64d2fd46c836a06233681665,64dc7f0696ba187eefe1fd09,,,,,,,decisionTrl,resources/DP.BMP,resources/DG.BMP,Door1,-0.195371367,0.064047363,1,0,0,0.9549,optionLeft,30,9900,5,3,0,3,0,1,,,,,,,,,,,,,,,,,,,,,,,,,,,,,,,,,,,,,,,
,,,,,,,,2023-08-16_08h47.33.654,HF_wild_card,2022.2.4,Win32,59.99160118,5ffdd6ac44be033c5ca23956,64d2fd46c836a06233681665,64dc7f0696ba187eefe1fd09,,,,,,,decisionTrl,resources/DBN.BMP,resources/DP.BMP,Door1,0.325618945,0.066200215,1,0,0,0.9159,optionRight,30,9930,5,4,0,4,0,1,,,,,,,,,,,,,,,,,,,,,,,,,,,,,,,,,,,,,,,
,,,,,,,,2023-08-16_08h47.33.654,HF_wild_card,2022.2.4,Win32,59.99160118,5ffdd6ac44be033c5ca23956,64d2fd46c836a06233681665,64dc7f0696ba187eefe1fd09,,,,,,,sngl,resources/DR.BMP,resources/Empty.png,Door3,-0.212594187,0.023143165,1,0,0,0.5472,optionLeft,70,10000,5,5,0,5,0,1,,,,,,,,,,,,,,,,,,,,,,,,,,,,,,,,,,,,,,,
,,,,,,,,2023-08-16_08h47.33.654,HF_wild_card,2022.2.4,Win32,59.99160118,5ffdd6ac44be033c5ca23956,64d2fd46c836a06233681665,64dc7f0696ba187eefe1fd09,,,,,,,sngl,resources/DG.BMP,resources/Empty.png,WildCard_Ex,-0.266415501,0.041442411,1,0,0,0.6224,optionLeft,45,10045,5,6,0,6,0,1,,,,,,,,,,,,,,,,,,,,,,,,,,,,,,,,,,,,,,,
,,,,,,,,2023-08-16_08h47.33.654,HF_wild_card,2022.2.4,Win32,59.99160118,5ffdd6ac44be033c5ca23956,64d2fd46c836a06233681665,64dc7f0696ba187eefe1fd09,,,,,,,ctch,resources/DB.BMP,resources/DP.BMP,Door4,-0.235199139,0.088805167,1,0,0,0.9248,optionLeft,80,10125,5,7,0,7,0,1,,,,,,,,,,,,,,,,,,,,,,,,,,,,,,,,,,,,,,,
,,,,,,,,2023-08-16_08h47.33.654,HF_wild_card,2022.2.4,Win32,59.99160118,5ffdd6ac44be033c5ca23956,64d2fd46c836a06233681665,64dc7f0696ba187eefe1fd09,,,,,,,ctch,resources/DP.BMP,resources/DB.BMP,Door4,0.360064586,0.102798708,1,0,0,1.2448,optionRight,80,10205,5,8,0,8,0,1,,,,,,,,,,,,,,,,,,,,,,,,,,,,,,,,,,,,,,,
,,,,,,,,2023-08-16_08h47.33.654,HF_wild_card,2022.2.4,Win32,59.99160118,5ffdd6ac44be033c5ca23956,64d2fd46c836a06233681665,64dc7f0696ba187eefe1fd09,,,,,,,decisionTrl,resources/DB.BMP,resources/DR.BMP,Door4,-0.19752422,0.0532831,1,0,0,0.5697,optionLeft,80,10285,5,9,0,9,0,1,,,,,,,,,,,,,,,,,,,,,,,,,,,,,,,,,,,,,,,
,,,,,,,,2023-08-16_08h47.33.654,HF_wild_card,2022.2.4,Win32,59.99160118,5ffdd6ac44be033c5ca23956,64d2fd46c836a06233681665,64dc7f0696ba187eefe1fd09,,,,,,,decisionTrl,resources/DB.BMP,resources/DR.BMP,Door4,-0.193218515,0.04467169,1,0,0,0.5272,optionLeft,80,10365,5,10,0,10,0,1,,,,,,,,,,,,,,,,,,,,,,,,,,,,,,,,,,,,,,,
,,,,,,,,2023-08-16_08h47.33.654,HF_wild_card,2022.2.4,Win32,59.99160118,5ffdd6ac44be033c5ca23956,64d2fd46c836a06233681665,64dc7f0696ba187eefe1fd09,,,,,,,decisionTrl,resources/DB.BMP,resources/DR.BMP,Door4,-0.289020452,0.071582347,1,0,0,0.5299,optionLeft,60,10425,5,11,0,11,0,1,,,,,,,,,,,,,,,,,,,,,,,,,,,,,,,,,,,,,,,
,,,,,,,,2023-08-16_08h47.33.654,HF_wild_card,2022.2.4,Win32,59.99160118,5ffdd6ac44be033c5ca23956,64d2fd46c836a06233681665,64dc7f0696ba187eefe1fd09,,,,,,,sngl,resources/Empty.png,resources/DP.BMP,Door1,0.391280947,0.012378902,1,0,0,0.5651,optionRight,30,10455,5,12,0,12,0,1,,,,,,,,,,,,,,,,,,,,,,,,,,,,,,,,,,,,,,,
,,,,,,,,2023-08-16_08h47.33.654,HF_wild_card,2022.2.4,Win32,59.99160118,5ffdd6ac44be033c5ca23956,64d2fd46c836a06233681665,64dc7f0696ba187eefe1fd09,,,,,,,decisionTrl,resources/DB.BMP,resources/DR.BMP,Door4,-0.170613563,0.031754575,1,0,0,0.5635,optionLeft,60,10515,5,13,0,13,0,1,,,,,,,,,,,,,,,,,,,,,,,,,,,,,,,,,,,,,,,
,,,,,,,,2023-08-16_08h47.33.654,HF_wild_card,2022.2.4,Win32,59.99160118,5ffdd6ac44be033c5ca23956,64d2fd46c836a06233681665,64dc7f0696ba187eefe1fd09,,,,,,,ctch,resources/DR.BMP,resources/DBN.BMP,Door3,-0.158772874,0.028525296,1,0,0,0.8967,optionLeft,70,10585,5,14,0,14,0,1,,,,,,,,,,,,,,,,,,,,,,,,,,,,,,,,,,,,,,,
,,,,,,,,2023-08-16_08h47.33.654,HF_wild_card,2022.2.4,Win32,59.99160118,5ffdd6ac44be033c5ca23956,64d2fd46c836a06233681665,64dc7f0696ba187eefe1fd09,,,,,,,ctch,resources/DP.BMP,resources/DB.BMP,Door4,0.420344456,0.11679225,1,0,0,1.1115,optionRight,80,10665,5,15,0,15,0,1,,,,,,,,,,,,,,,,,,,,,,,,,,,,,,,,,,,,,,,
,,,,,,,,2023-08-16_08h47.33.654,HF_wild_card,2022.2.4,Win32,59.99160118,5ffdd6ac44be033c5ca23956,64d2fd46c836a06233681665,64dc7f0696ba187eefe1fd09,,,,,,,decisionTrl,resources/DBN.BMP,resources/DP.BMP,Door1,0.37621098,0.097416577,1,0,0,0.7368,optionRight,30,10695,5,16,0,16,0,1,,,,,,,,,,,,,,,,,,,,,,,,,,,,,,,,,,,,,,,
,,,,,,,,2023-08-16_08h47.33.654,HF_wild_card,2022.2.4,Win32,59.99160118,5ffdd6ac44be033c5ca23956,64d2fd46c836a06233681665,64dc7f0696ba187eefe1fd09,,,,,,,decisionTrl,resources/DP.BMP,resources/DBN.BMP,Door1,-0.150161464,0.033907427,1,0,0,0.6463,optionLeft,30,10725,5,17,0,17,0,1,,,,,,,,,,,,,,,,,,,,,,,,,,,,,,,,,,,,,,,
,,,,,,,,2023-08-16_08h47.33.654,HF_wild_card,2022.2.4,Win32,59.99160118,5ffdd6ac44be033c5ca23956,64d2fd46c836a06233681665,64dc7f0696ba187eefe1fd09,,,,,,,decisionTrl,resources/DR.BMP,resources/DB.BMP,Door4,0.398815931,0.054359526,1,0,0,0.5871,optionRight,60,10785,5,18,0,18,0,1,,,,,,,,,,,,,,,,,,,,,,,,,,,,,,,,,,,,,,,
,,,,,,,,2023-08-16_08h47.33.654,HF_wild_card,2022.2.4,Win32,59.99160118,5ffdd6ac44be033c5ca23956,64d2fd46c836a06233681665,64dc7f0696ba187eefe1fd09,,,,,,,sngl,resources/Empty.png,resources/DBN.BMP,Door2,0.25780409,0.015608181,1,0,0,3.4505,optionRight,20,10805,5,19,0,19,0,1,,,,,,,,,,,,,,,,,,,,,,,,,,,,,,,,,,,,,,,
,,,,,,,,2023-08-16_08h47.33.654,HF_wild_card,2022.2.4,Win32,59.99160118,5ffdd6ac44be033c5ca23956,64d2fd46c836a06233681665,64dc7f0696ba187eefe1fd09,,,,,,,decisionTrl,resources/DBN.BMP,resources/DP.BMP,Door1,0.414962325,0.0532831,1,0,0,0.7755,optionRight,30,10835,5,20,0,20,0,1,,,,,,,,,,,,,,,,,,,,,,,,,,,,,,,,,,,,,,,
,,,,,,,,2023-08-16_08h47.33.654,HF_wild_card,2022.2.4,Win32,59.99160118,5ffdd6ac44be033c5ca23956,64d2fd46c836a06233681665,64dc7f0696ba187eefe1fd09,,,,,,,ctch,resources/DBN.BMP,resources/DR.BMP,Door3,0.366523143,0.095263724,1,0,0,0.9701,optionRight,70,10905,5,21,0,21,0,1,,,,,,,,,,,,,,,,,,,,,,,,,,,,,,,,,,,,,,,
,,,,,,,,2023-08-16_08h47.33.654,HF_wild_card,2022.2.4,Win32,59.99160118,5ffdd6ac44be033c5ca23956,64d2fd46c836a06233681665,64dc7f0696ba187eefe1fd09,,,,,,,ctch,resources/DB.BMP,resources/DP.BMP,Door4,-0.248116254,0.037136706,1,0,0,0.7036,optionLeft,60,10965,5,22,0,22,0,1,,,,,,,,,,,,,,,,,,,,,,,,,,,,,,,,,,,,,,,
,,,,,,,,2023-08-16_08h47.33.654,HF_wild_card,2022.2.4,Win32,59.99160118,5ffdd6ac44be033c5ca23956,64d2fd46c836a06233681665,64dc7f0696ba187eefe1fd09,,,,,,,decisionTrl,resources/DBN.BMP,resources/DG.BMP,WildCard_Ex,0.368675996,0.059741658,1,0,0,0.6078,optionRight,45,11010,5,23,0,23,0,1,,,,,,,,,,,,,,,,,,,,,,,,,,,,,,,,,,,,,,,
,,,,,,,,2023-08-16_08h47.33.654,HF_wild_card,2022.2.4,Win32,59.99160118,5ffdd6ac44be033c5ca23956,64d2fd46c836a06233681665,64dc7f0696ba187eefe1fd09,,,,,,,sngl,resources/DG.BMP,resources/Empty.png,WildCard_Ex,-0.143702906,0.041442411,1,0,0,0.5752,optionLeft,55,11065,5,24,0,24,0,1,,,,,,,,,,,,,,,,,,,,,,,,,,,,,,,,,,,,,,,
,,,,,,,,2023-08-16_08h47.33.654,HF_wild_card,2022.2.4,Win32,59.99160118,5ffdd6ac44be033c5ca23956,64d2fd46c836a06233681665,64dc7f0696ba187eefe1fd09,,,,,,,sngl,resources/Empty.png,resources/DR.BMP,Door3,0.372981701,0.033907427,1,0,0,0.9033,optionRight,70,11135,5,25,0,25,0,1,,,,,,,,,,,,,,,,,,,,,,,,,,,,,,,,,,,,,,,
,,,,,,,,2023-08-16_08h47.33.654,HF_wild_card,2022.2.4,Win32,59.99160118,5ffdd6ac44be033c5ca23956,64d2fd46c836a06233681665,64dc7f0696ba187eefe1fd09,,,,,,,decisionTrl,resources/DR.BMP,resources/DG.BMP,Door3,-0.344994618,0.177072121,1,0,0,1.0747,optionLeft,70,11205,5,26,0,26,0,1,,,,,,,,,,,,,,,,,,,,,,,,,,,,,,,,,,,,,,,
,,,,,,,,2023-08-16_08h47.33.654,HF_wild_card,2022.2.4,Win32,59.99160118,5ffdd6ac44be033c5ca23956,64d2fd46c836a06233681665,64dc7f0696ba187eefe1fd09,,,,,,,decisionTrl,resources/DR.BMP,resources/DB.BMP,Door4,0.455866523,0.117868676,1,0,0,0.8493,optionRight,60,11265,5,27,0,27,0,1,,,,,,,,,,,,,,,,,,,,,,,,,,,,,,,,,,,,,,,
,,,,,,,,2023-08-16_08h47.33.654,HF_wild_card,2022.2.4,Win32,59.99160118,5ffdd6ac44be033c5ca23956,64d2fd46c836a06233681665,64dc7f0696ba187eefe1fd09,,,,,,,ctch,resources/DR.BMP,resources/DBN.BMP,Door3,-0.221205597,0.011302476,1,0,0,0.695,optionLeft,70,11335,5,28,0,28,0,1,,,,,,,,,,,,,,,,,,,,,,,,,,,,,,,,,,,,,,,
,,,,,,,,2023-08-16_08h47.33.654,HF_wild_card,2022.2.4,Win32,59.99160118,5ffdd6ac44be033c5ca23956,64d2fd46c836a06233681665,64dc7f0696ba187eefe1fd09,,,,,,,sngl,resources/DP.BMP,resources/Empty.png,Door1,-0.163078579,-0.002691066,1,0,0,5.2536,optionLeft,30,11365,5,29,0,29,0,1,,,,,,,,,,,,,,,,,,,,,,,,,,,,,,,,,,,,,,,
,,,,,,,,2023-08-16_08h47.33.654,HF_wild_card,2022.2.4,Win32,59.99160118,5ffdd6ac44be033c5ca23956,64d2fd46c836a06233681665,64dc7f0696ba187eefe1fd09,,,,,,,sngl,resources/DBN.BMP,resources/Empty.png,Door2,-0.226587729,0.01883746,1,0,0,0.9184,optionLeft,40,11405,5,30,0,30,0,1,,,,,,,,,,,,,,,,,,,,,,,,,,,,,,,,,,,,,,,
,,,,,,,,2023-08-16_08h47.33.654,HF_wild_card,2022.2.4,Win32,59.99160118,5ffdd6ac44be033c5ca23956,64d2fd46c836a06233681665,64dc7f0696ba187eefe1fd09,,,,,,,decisionTrl,resources/DBN.BMP,resources/DP.BMP,Door1,0.322389666,0.029601722,1,0,0,1.3245,optionRight,30,11435,5,31,0,31,0,1,,,,,,,,,,,,,,,,,,,,,,,,,,,,,,,,,,,,,,,
,,,,,,,,2023-08-16_08h47.33.654,HF_wild_card,2022.2.4,Win32,59.99160118,5ffdd6ac44be033c5ca23956,64d2fd46c836a06233681665,64dc7f0696ba187eefe1fd09,,,,,,,ctch,resources/DBN.BMP,resources/DR.BMP,Door3,0.421420883,0.006996771,1,0,0,0.8803,optionRight,70,11505,5,32,0,32,0,1,,,,,,,,,,,,,,,,,,,,,,,,,,,,,,,,,,,,,,,
,,,,,,,,2023-08-16_08h47.33.654,HF_wild_card,2022.2.4,Win32,59.99160118,5ffdd6ac44be033c5ca23956,64d2fd46c836a06233681665,64dc7f0696ba187eefe1fd09,,,,,,,decisionTrl,resources/DP.BMP,resources/DBN.BMP,Door1,-0.361141012,0.143702906,1,0,0,0.9592,optionLeft,30,11535,5,33,0,33,0,1,,,,,,,,,,,,,,,,,,,,,,,,,,,,,,,,,,,,,,,
,,,,,,,,2023-08-16_08h47.33.654,HF_wild_card,2022.2.4,Win32,59.99160118,5ffdd6ac44be033c5ca23956,64d2fd46c836a06233681665,64dc7f0696ba187eefe1fd09,,,,,,,decisionTrl,resources/DG.BMP,resources/DR.BMP,Door3,0.336383208,0.089881593,1,0,0,1.7139,optionRight,70,11605,5,34,0,34,0,1,,,,,,,,,,,,,,,,,,,,,,,,,,,,,,,,,,,,,,,
,,,,,,,,2023-08-16_08h47.33.654,HF_wild_card,2022.2.4,Win32,59.99160118,5ffdd6ac44be033c5ca23956,64d2fd46c836a06233681665,64dc7f0696ba187eefe1fd09,,,,,,,decisionTrl,resources/DR.BMP,resources/DB.BMP,Door4,0.365446717,0.127556512,1,0,0,0.8786,optionRight,60,11665,5,35,0,35,0,1,,,,,,,,,,,,,,,,,,,,,,,,,,,,,,,,,,,,,,,
,,,,,,,,2023-08-16_08h47.33.654,HF_wild_card,2022.2.4,Win32,59.99160118,5ffdd6ac44be033c5ca23956,64d2fd46c836a06233681665,64dc7f0696ba187eefe1fd09,,,,,,,decisionTrl,resources/DG.BMP,resources/DBN.BMP,WildCard_Ex,-0.194294941,0.071582347,1,0,0,0.8472,optionLeft,45,11710,5,36,0,36,0,1,,,,,,,,,,,,,,,,,,,,,,,,,,,,,,,,,,,,,,,
,,,,,,,,2023-08-16_08h47.33.654,HF_wild_card,2022.2.4,Win32,59.99160118,5ffdd6ac44be033c5ca23956,64d2fd46c836a06233681665,64dc7f0696ba187eefe1fd09,,,,,,,decisionTrl,resources/DP.BMP,resources/DBN.BMP,Door1,-0.229817008,0.06189451,1,0,0,0.6268,optionLeft,30,11740,5,37,0,37,0,1,,,,,,,,,,,,,,,,,,,,,,,,,,,,,,,,,,,,,,,
,,,,,,,,2023-08-16_08h47.33.654,HF_wild_card,2022.2.4,Win32,59.99160118,5ffdd6ac44be033c5ca23956,64d2fd46c836a06233681665,64dc7f0696ba187eefe1fd09,,,,,,,sngl,resources/Empty.png,resources/DB.BMP,Door4,0.426803014,0.103875135,1,0,0,1.2971,optionRight,60,11800,5,38,0,38,0,1,,,,,,,,,,,,,,,,,,,,,,,,,,,,,,,,,,,,,,,
,,,,,,,,2023-08-16_08h47.33.654,HF_wild_card,2022.2.4,Win32,59.99160118,5ffdd6ac44be033c5ca23956,64d2fd46c836a06233681665,64dc7f0696ba187eefe1fd09,,,,,,,decisionTrl,resources/DP.BMP,resources/DBN.BMP,Door1,-0.201829925,0.034983854,1,0,0,0.5208,optionLeft,30,11830,5,39,0,39,0,1,,,,,,,,,,,,,,,,,,,,,,,,,,,,,,,,,,,,,,,
,,,,,,,,2023-08-16_08h47.33.654,HF_wild_card,2022.2.4,Win32,59.99160118,5ffdd6ac44be033c5ca23956,64d2fd46c836a06233681665,64dc7f0696ba187eefe1fd09,,,,,,,decisionTrl,resources/DR.BMP,resources/DB.BMP,Door4,0.55489774,0.135091496,1,0,0,0.7628,optionRight,60,11890,5,40,0,40,0,1,,,,,,,,,,,,,,,,,,,,,,,,,,,,,,,,,,,,,,,
,,,,,,,,2023-08-16_08h47.33.654,HF_wild_card,2022.2.4,Win32,59.99160118,5ffdd6ac44be033c5ca23956,64d2fd46c836a06233681665,64dc7f0696ba187eefe1fd09,,,,,,,decisionTrl,resources/DB.BMP,resources/DG.BMP,Door4,-0.221205597,0.059741658,1,0,0,0.5659,optionLeft,60,11950,5,41,0,41,0,1,,,,,,,,,,,,,,,,,,,,,,,,,,,,,,,,,,,,,,,
,,,,,,,,2023-08-16_08h47.33.654,HF_wild_card,2022.2.4,Win32,59.99160118,5ffdd6ac44be033c5ca23956,64d2fd46c836a06233681665,64dc7f0696ba187eefe1fd09,,,,,,,sngl,resources/DB.BMP,resources/Empty.png,Door4,-0.265339074,0.084499462,1,0,0,1.9202,optionLeft,80,12030,5,42,0,42,0,1,,,,,,,,,,,,,,,,,,,,,,,,,,,,,,,,,,,,,,,
,,,,,,,,2023-08-16_08h47.33.654,HF_wild_card,2022.2.4,Win32,59.99160118,5ffdd6ac44be033c5ca23956,64d2fd46c836a06233681665,64dc7f0696ba187eefe1fd09,,,,,,,decisionTrl,resources/DG.BMP,resources/DP.BMP,Door1,0.381593111,0.144779333,1,0,0,1.5359,optionRight,30,12060,5,43,0,43,0,1,,,,,,,,,,,,,,,,,,,,,,,,,,,,,,,,,,,,,,,
,,,,,,,,2023-08-16_08h47.33.654,HF_wild_card,2022.2.4,Win32,59.99160118,5ffdd6ac44be033c5ca23956,64d2fd46c836a06233681665,64dc7f0696ba187eefe1fd09,,,,,,,,,,,,,,,,,,,,,,,,,,4,0,4,0,1,,,,,,,,,,,,,,,,,,,,,,,,,,,,,,,,,,
,,,,,,,,2023-08-16_08h47.33.654,HF_wild_card,2022.2.4,Win32,59.99160118,5ffdd6ac44be033c5ca23956,64d2fd46c836a06233681665,64dc7f0696ba187eefe1fd09,,,,,,,ctch,resources/DR.BMP,resources/DBN.BMP,Door3,-0.255651238,0.042518837,1,0,0,0.8254,optionLeft,70,12130,6,0,0,0,0,1,,,,,,,,,,,,,,,,,,,,,,,,,,,,,,,,,,,,,,,
,,,,,,,,2023-08-16_08h47.33.654,HF_wild_card,2022.2.4,Win32,59.99160118,5ffdd6ac44be033c5ca23956,64d2fd46c836a06233681665,64dc7f0696ba187eefe1fd09,,,,,,,ctch,resources/DB.BMP,resources/DP.BMP,Door4,-0.256727664,0.037136706,1,0,0,0.6474,optionLeft,80,12210,6,1,0,1,0,1,,,,,,,,,,,,,,,,,,,,,,,,,,,,,,,,,,,,,,,
,,,,,,,,2023-08-16_08h47.33.654,HF_wild_card,2022.2.4,Win32,59.99160118,5ffdd6ac44be033c5ca23956,64d2fd46c836a06233681665,64dc7f0696ba187eefe1fd09,,,,,,,decisionTrl,resources/DR.BMP,resources/DB.BMP,Door4,0.340688913,0.138320775,1,0,0,1.298,optionRight,60,12270,6,2,0,2,0,1,,,,,,,,,,,,,,,,,,,,,,,,,,,,,,,,,,,,,,,
,,,,,,,,2023-08-16_08h47.33.654,HF_wild_card,2022.2.4,Win32,59.99160118,5ffdd6ac44be033c5ca23956,64d2fd46c836a06233681665,64dc7f0696ba187eefe1fd09,,,,,,,sngl,resources/Empty.png,resources/DBN.BMP,Door2,0.263186222,-0.002691066,1,0,0,0.6867,optionRight,40,12310,6,3,0,3,0,1,,,,,,,,,,,,,,,,,,,,,,,,,,,,,,,,,,,,,,,
,,,,,,,,2023-08-16_08h47.33.654,HF_wild_card,2022.2.4,Win32,59.99160118,5ffdd6ac44be033c5ca23956,64d2fd46c836a06233681665,64dc7f0696ba187eefe1fd09,,,,,,,decisionTrl,resources/DBN.BMP,resources/DP.BMP,Door1,0.333153929,0.065123789,1,0,0,0.7513,optionRight,30,12340,6,4,0,4,0,1,,,,,,,,,,,,,,,,,,,,,,,,,,,,,,,,,,,,,,,
,,,,,,,,2023-08-16_08h47.33.654,HF_wild_card,2022.2.4,Win32,59.99160118,5ffdd6ac44be033c5ca23956,64d2fd46c836a06233681665,64dc7f0696ba187eefe1fd09,,,,,,,sngl,resources/DB.BMP,resources/Empty.png,Door4,-0.183530678,0.022066738,1,0,0,0.53,optionLeft,60,12400,6,5,0,5,0,1,,,,,,,,,,,,,,,,,,,,,,,,,,,,,,,,,,,,,,,
,,,,,,,,2023-08-16_08h47.33.654,HF_wild_card,2022.2.4,Win32,59.99160118,5ffdd6ac44be033c5ca23956,64d2fd46c836a06233681665,64dc7f0696ba187eefe1fd09,,,,,,,sngl,resources/DR.BMP,resources/Empty.png,Door3,-0.213670614,0.01022605,1,0,0,0.6467,optionLeft,70,12470,6,6,0,6,0,1,,,,,,,,,,,,,,,,,,,,,,,,,,,,,,,,,,,,,,,
,,,,,,,,2023-08-16_08h47.33.654,HF_wild_card,2022.2.4,Win32,59.99160118,5ffdd6ac44be033c5ca23956,64d2fd46c836a06233681665,64dc7f0696ba187eefe1fd09,,,,,,,decisionTrl,resources/DG.BMP,resources/DB.BMP,Door4,0.413885899,0.017761033,1,0,0,0.5761,optionRight,60,12530,6,7,0,7,0,1,,,,,,,,,,,,,,,,,,,,,,,,,,,,,,,,,,,,,,,
,,,,,,,,2023-08-16_08h47.33.654,HF_wild_card,2022.2.4,Win32,59.99160118,5ffdd6ac44be033c5ca23956,64d2fd46c836a06233681665,64dc7f0696ba187eefe1fd09,,,,,,,decisionTrl,resources/DBN.BMP,resources/DP.BMP,Door1,0.273950484,0.037136706,1,0,0,0.7967,optionRight,30,12560,6,8,0,8,0,1,,,,,,,,,,,,,,,,,,,,,,,,,,,,,,,,,,,,,,,
,,,,,,,,2023-08-16_08h47.33.654,HF_wild_card,2022.2.4,Win32,59.99160118,5ffdd6ac44be033c5ca23956,64d2fd46c836a06233681665,64dc7f0696ba187eefe1fd09,,,,,,,decisionTrl,resources/DB.BMP,resources/DR.BMP,Door4,-0.205059203,0.026372443,1,0,0,0.6298,optionLeft,80,12640,6,9,0,9,0,1,,,,,,,,,,,,,,,,,,,,,,,,,,,,,,,,,,,,,,,
,,,,,,,,2023-08-16_08h47.33.654,HF_wild_card,2022.2.4,Win32,59.99160118,5ffdd6ac44be033c5ca23956,64d2fd46c836a06233681665,64dc7f0696ba187eefe1fd09,,,,,,,ctch,resources/DB.BMP,resources/DP.BMP,Door4,-0.162002153,0.060818084,1,0,0,0.7178,optionLeft,80,12720,6,10,0,10,0,1,,,,,,,,,,,,,,,,,,,,,,,,,,,,,,,,,,,,,,,
,,,,,,,,2023-08-16_08h47.33.654,HF_wild_card,2022.2.4,Win32,59.99160118,5ffdd6ac44be033c5ca23956,64d2fd46c836a06233681665,64dc7f0696ba187eefe1fd09,,,,,,,decisionTrl,resources/DBN.BMP,resources/DP.BMP,Door1,0.29547901,0.028525296,1,0,0,1.2417,optionRight,30,12750,6,11,0,11,0,1,,,,,,,,,,,,,,,,,,,,,,,,,,,,,,,,,,,,,,,
,,,,,,,,2023-08-16_08h47.33.654,HF_wild_card,2022.2.4,Win32,59.99160118,5ffdd6ac44be033c5ca23956,64d2fd46c836a06233681665,64dc7f0696ba187eefe1fd09,,,,,,,ctch,resources/DP.BMP,resources/DB.BMP,Door4,0.337459634,0.097416577,1,0,0,0.9136,optionRight,60,12810,6,12,0,12,0,1,,,,,,,,,,,,,,,,,,,,,,,,,,,,,,,,,,,,,,,
,,,,,,,,2023-08-16_08h47.33.654,HF_wild_card,2022.2.4,Win32,59.99160118,5ffdd6ac44be033c5ca23956,64d2fd46c836a06233681665,64dc7f0696ba187eefe1fd09,,,,,,,decisionTrl,resources/DBN.BMP,resources/DG.BMP,WildCard_Ex,0.319160388,0.057588805,1,0,0,1.1304,optionRight,55,12865,6,13,0,13,0,1,,,,,,,,,,,,,,,,,,,,,,,,,,,,,,,,,,,,,,,
,,,,,,,,2023-08-16_08h47.33.654,HF_wild_card,2022.2.4,Win32,59.99160118,5ffdd6ac44be033c5ca23956,64d2fd46c836a06233681665,64dc7f0696ba187eefe1fd09,,,,,,,decisionTrl,resources/DG.BMP,resources/DR.BMP,Door3,0.334230355,0.158772874,1,0,0,1.4304,optionRight,70,12935,6,14,0,14,0,1,,,,,,,,,,,,,,,,,,,,,,,,,,,,,,,,,,,,,,,
,,,,,,,,2023-08-16_08h47.33.654,HF_wild_card,2022.2.4,Win32,59.99160118,5ffdd6ac44be033c5ca23956,64d2fd46c836a06233681665,64dc7f0696ba187eefe1fd09,,,,,,,sngl,resources/Empty.png,resources/DR.BMP,Door3,0.236275565,0.025296017,1,0,0,0.5078,optionRight,70,13005,6,15,0,15,0,1,,,,,,,,,,,,,,,,,,,,,,,,,,,,,,,,,,,,,,,
,,,,,,,,2023-08-16_08h47.33.654,HF_wild_card,2022.2.4,Win32,59.99160118,5ffdd6ac44be033c5ca23956,64d2fd46c836a06233681665,64dc7f0696ba187eefe1fd09,,,,,,,sngl,resources/Empty.png,resources/DG.BMP,WildCard_Ex,0.24058127,-0.013455328,1,0,0,0.8136,optionRight,45,13050,6,16,0,16,0,1,,,,,,,,,,,,,,,,,,,,,,,,,,,,,,,,,,,,,,,
,,,,,,,,2023-08-16_08h47.33.654,HF_wild_card,2022.2.4,Win32,59.99160118,5ffdd6ac44be033c5ca23956,64d2fd46c836a06233681665,64dc7f0696ba187eefe1fd09,,,,,,,decisionTrl,resources/DP.BMP,resources/DBN.BMP,Door1,-0.216899892,-0.024219591,1,0,0,1.0302,optionLeft,30,13080,6,17,0,17,0,1,,,,,,,,,,,,,,,,,,,,,,,,,,,,,,,,,,,,,,,
,,,,,,,,2023-08-16_08h47.33.654,HF_wild_card,2022.2.4,Win32,59.99160118,5ffdd6ac44be033c5ca23956,64d2fd46c836a06233681665,64dc7f0696ba187eefe1fd09,,,,,,,sngl,resources/DG.BMP,resources/Empty.png,WildCard_Ex,-0.280409042,-0.011302476,1,0,0,0.5636,optionLeft,55,13135,6,18,0,18,0,1,,,,,,,,,,,,,,,,,,,,,,,,,,,,,,,,,,,,,,,
,,,,,,,,2023-08-16_08h47.33.654,HF_wild_card,2022.2.4,Win32,59.99160118,5ffdd6ac44be033c5ca23956,64d2fd46c836a06233681665,64dc7f0696ba187eefe1fd09,,,,,,,decisionTrl,resources/DB.BMP,resources/DR.BMP,Door4,-0.255651238,0.135091496,1,0,0,0.9383,optionLeft,80,13215,6,19,0,19,0,1,,,,,,,,,,,,,,,,,,,,,,,,,,,,,,,,,,,,,,,
,,,,,,,,2023-08-16_08h47.33.654,HF_wild_card,2022.2.4,Win32,59.99160118,5ffdd6ac44be033c5ca23956,64d2fd46c836a06233681665,64dc7f0696ba187eefe1fd09,,,,,,,decisionTrl,resources/DP.BMP,resources/DBN.BMP,Door1,-0.156620022,0.065123789,1,0,0,0.5589,optionLeft,30,13245,6,20,0,20,0,1,,,,,,,,,,,,,,,,,,,,,,,,,,,,,,,,,,,,,,,
,,,,,,,,2023-08-16_08h47.33.654,HF_wild_card,2022.2.4,Win32,59.99160118,5ffdd6ac44be033c5ca23956,64d2fd46c836a06233681665,64dc7f0696ba187eefe1fd09,,,,,,,sngl,resources/Empty.png,resources/DP.BMP,Door1,0.337459634,0.014531755,1,0,0,0.6032,optionRight,30,13275,6,21,0,21,0,1,,,,,,,,,,,,,,,,,,,,,,,,,,,,,,,,,,,,,,,
,,,,,,,,2023-08-16_08h47.33.654,HF_wild_card,2022.2.4,Win32,59.99160118,5ffdd6ac44be033c5ca23956,64d2fd46c836a06233681665,64dc7f0696ba187eefe1fd09,,,,,,,decisionTrl,resources/DB.BMP,resources/DR.BMP,Door4,-0.282561895,-0.037136706,1,0,0,0.6828,optionLeft,80,13355,6,22,0,22,0,1,,,,,,,,,,,,,,,,,,,,,,,,,,,,,,,,,,,,,,,
,,,,,,,,2023-08-16_08h47.33.654,HF_wild_card,2022.2.4,Win32,59.99160118,5ffdd6ac44be033c5ca23956,64d2fd46c836a06233681665,64dc7f0696ba187eefe1fd09,,,,,,,decisionTrl,resources/DP.BMP,resources/DBN.BMP,Door1,-0.319160388,0.059741658,1,0,0,0.6451,optionLeft,30,13385,6,23,0,23,0,1,,,,,,,,,,,,,,,,,,,,,,,,,,,,,,,,,,,,,,,
,,,,,,,,2023-08-16_08h47.33.654,HF_wild_card,2022.2.4,Win32,59.99160118,5ffdd6ac44be033c5ca23956,64d2fd46c836a06233681665,64dc7f0696ba187eefe1fd09,,,,,,,decisionTrl,resources/DR.BMP,resources/DB.BMP,Door4,0.315931109,0.071582347,1,0,0,0.8004,optionRight,60,13445,6,24,0,24,0,1,,,,,,,,,,,,,,,,,,,,,,,,,,,,,,,,,,,,,,,
,,,,,,,,2023-08-16_08h47.33.654,HF_wild_card,2022.2.4,Win32,59.99160118,5ffdd6ac44be033c5ca23956,64d2fd46c836a06233681665,64dc7f0696ba187eefe1fd09,,,,,,,ctch,resources/DP.BMP,resources/DB.BMP,Door4,0.370828848,0.14262648,1,0,0,0.9632,optionRight,60,13505,6,25,0,25,0,1,,,,,,,,,,,,,,,,,,,,,,,,,,,,,,,,,,,,,,,
,,,,,,,,2023-08-16_08h47.33.654,HF_wild_card,2022.2.4,Win32,59.99160118,5ffdd6ac44be033c5ca23956,64d2fd46c836a06233681665,64dc7f0696ba187eefe1fd09,,,,,,,ctch,resources/DR.BMP,resources/DBN.BMP,Door3,-0.364370291,0.083423036,1,0,0,1.2477,optionLeft,70,13575,6,26,0,26,0,1,,,,,,,,,,,,,,,,,,,,,,,,,,,,,,,,,,,,,,,
,,,,,,,,2023-08-16_08h47.33.654,HF_wild_card,2022.2.4,Win32,59.99160118,5ffdd6ac44be033c5ca23956,64d2fd46c836a06233681665,64dc7f0696ba187eefe1fd09,,,,,,,decisionTrl,resources/DP.BMP,resources/DG.BMP,WildCard_Ex,0.369752422,0.149085038,1,0,0,1.9419,optionRight,55,13630,6,27,0,27,0,1,,,,,,,,,,,,,,,,,,,,,,,,,,,,,,,,,,,,,,,
,,,,,,,,2023-08-16_08h47.33.654,HF_wild_card,2022.2.4,Win32,59.99160118,5ffdd6ac44be033c5ca23956,64d2fd46c836a06233681665,64dc7f0696ba187eefe1fd09,,,,,,,decisionTrl,resources/DB.BMP,resources/DG.BMP,Door4,-0.247039828,0.106027987,1,0,0,0.6694,optionLeft,80,13710,6,28,0,28,0,1,,,,,,,,,,,,,,,,,,,,,,,,,,,,,,,,,,,,,,,
,,,,,,,,2023-08-16_08h47.33.654,HF_wild_card,2022.2.4,Win32,59.99160118,5ffdd6ac44be033c5ca23956,64d2fd46c836a06233681665,64dc7f0696ba187eefe1fd09,,,,,,,sngl,resources/DBN.BMP,resources/Empty.png,Door2,-0.278256189,0.06189451,1,0,0,0.5437,optionLeft,20,13730,6,29,0,29,0,1,,,,,,,,,,,,,,,,,,,,,,,,,,,,,,,,,,,,,,,
,,,,,,,,2023-08-16_08h47.33.654,HF_wild_card,2022.2.4,Win32,59.99160118,5ffdd6ac44be033c5ca23956,64d2fd46c836a06233681665,64dc7f0696ba187eefe1fd09,,,,,,,decisionTrl,resources/DBN.BMP,resources/DP.BMP,Door1,0.337459634,0.121097955,1,0,0,0.9968,optionRight,30,13760,6,30,0,30,0,1,,,,,,,,,,,,,,,,,,,,,,,,,,,,,,,,,,,,,,,
,,,,,,,,2023-08-16_08h47.33.654,HF_wild_card,2022.2.4,Win32,59.99160118,5ffdd6ac44be033c5ca23956,64d2fd46c836a06233681665,64dc7f0696ba187eefe1fd09,,,,,,,decisionTrl,resources/DR.BMP,resources/DG.BMP,Door3,-0.285791173,0.090958019,1,0,0,0.7304,optionLeft,70,13830,6,31,0,31,0,1,,,,,,,,,,,,,,,,,,,,,,,,,,,,,,,,,,,,,,,
,,,,,,,,2023-08-16_08h47.33.654,HF_wild_card,2022.2.4,Win32,59.99160118,5ffdd6ac44be033c5ca23956,64d2fd46c836a06233681665,64dc7f0696ba187eefe1fd09,,,,,,,decisionTrl,resources/DB.BMP,resources/DR.BMP,Door4,-0.239504844,0.148008611,1,0,0,0.9133,optionLeft,60,13890,6,32,0,32,0,1,,,,,,,,,,,,,,,,,,,,,,,,,,,,,,,,,,,,,,,
,,,,,,,,2023-08-16_08h47.33.654,HF_wild_card,2022.2.4,Win32,59.99160118,5ffdd6ac44be033c5ca23956,64d2fd46c836a06233681665,64dc7f0696ba187eefe1fd09,,,,,,,ctch,resources/DBN.BMP,resources/DR.BMP,Door3,0.320236814,0.062970936,1,0,0,0.5718,optionRight,70,13960,6,33,0,33,0,1,,,,,,,,,,,,,,,,,,,,,,,,,,,,,,,,,,,,,,,
,,,,,,,,2023-08-16_08h47.33.654,HF_wild_card,2022.2.4,Win32,59.99160118,5ffdd6ac44be033c5ca23956,64d2fd46c836a06233681665,64dc7f0696ba187eefe1fd09,,,,,,,decisionTrl,resources/DG.BMP,resources/DBN.BMP,WildCard_Ex,-0.160925727,0.096340151,1,0,0,0.8584,optionLeft,45,14005,6,34,0,34,0,1,,,,,,,,,,,,,,,,,,,,,,,,,,,,,,,,,,,,,,,
,,,,,,,,2023-08-16_08h47.33.654,HF_wild_card,2022.2.4,Win32,59.99160118,5ffdd6ac44be033c5ca23956,64d2fd46c836a06233681665,64dc7f0696ba187eefe1fd09,,,,,,,decisionTrl,resources/DP.BMP,resources/DBN.BMP,Door1,-0.251345533,0.106027987,1,0,0,0.6629,optionLeft,30,14035,6,35,0,35,0,1,,,,,,,,,,,,,,,,,,,,,,,,,,,,,,,,,,,,,,,
,,,,,,,,2023-08-16_08h47.33.654,HF_wild_card,2022.2.4,Win32,59.99160118,5ffdd6ac44be033c5ca23956,64d2fd46c836a06233681665,64dc7f0696ba187eefe1fd09,,,,,,,sngl,resources/Empty.png,resources/DB.BMP,Door4,0.317007535,0.028525296,1,0,0,0.5704,optionRight,80,14115,6,36,0,36,0,1,,,,,,,,,,,,,,,,,,,,,,,,,,,,,,,,,,,,,,,
,,,,,,,,2023-08-16_08h47.33.654,HF_wild_card,2022.2.4,Win32,59.99160118,5ffdd6ac44be033c5ca23956,64d2fd46c836a06233681665,64dc7f0696ba187eefe1fd09,,,,,,,sngl,resources/DP.BMP,resources/Empty.png,Door1,-0.211517761,0.050053821,1,0,0,0.5976,optionLeft,30,14145,6,37,0,37,0,1,,,,,,,,,,,,,,,,,,,,,,,,,,,,,,,,,,,,,,,
,,,,,,,,2023-08-16_08h47.33.654,HF_wild_card,2022.2.4,Win32,59.99160118,5ffdd6ac44be033c5ca23956,64d2fd46c836a06233681665,64dc7f0696ba187eefe1fd09,,,,,,,sngl,resources/Empty.png,resources/DG.BMP,WildCard_Ex,0.253498385,-0.000538213,1,0,0,0.5589,optionRight,55,14200,6,38,0,38,0,1,,,,,,,,,,,,,,,,,,,,,,,,,,,,,,,,,,,,,,,
,,,,,,,,2023-08-16_08h47.33.654,HF_wild_card,2022.2.4,Win32,59.99160118,5ffdd6ac44be033c5ca23956,64d2fd46c836a06233681665,64dc7f0696ba187eefe1fd09,,,,,,,ctch,resources/DBN.BMP,resources/DR.BMP,Door3,0.336383208,0.024219591,1,0,0,0.8633,optionRight,70,14270,6,39,0,39,0,1,,,,,,,,,,,,,,,,,,,,,,,,,,,,,,,,,,,,,,,
,,,,,,,,2023-08-16_08h47.33.654,HF_wild_card,2022.2.4,Win32,59.99160118,5ffdd6ac44be033c5ca23956,64d2fd46c836a06233681665,64dc7f0696ba187eefe1fd09,,,,,,,sngl,resources/DG.BMP,resources/Empty.png,WildCard_Ex,-0.324542519,-0.014531755,1,0,0,0.9858,optionLeft,45,14315,6,40,0,40,0,1,,,,,,,,,,,,,,,,,,,,,,,,,,,,,,,,,,,,,,,
,,,,,,,,2023-08-16_08h47.33.654,HF_wild_card,2022.2.4,Win32,59.99160118,5ffdd6ac44be033c5ca23956,64d2fd46c836a06233681665,64dc7f0696ba187eefe1fd09,,,,,,,decisionTrl,resources/DR.BMP,resources/DB.BMP,Door3,-0.29547901,0.166307858,1,0,0,1.2753,optionLeft,70,14385,6,41,0,41,0,1,,,,,,,,,,,,,,,,,,,,,,,,,,,,,,,,,,,,,,,
,,,,,,,,2023-08-16_08h47.33.654,HF_wild_card,2022.2.4,Win32,59.99160118,5ffdd6ac44be033c5ca23956,64d2fd46c836a06233681665,64dc7f0696ba187eefe1fd09,,,,,,,decisionTrl,resources/DG.BMP,resources/DP.BMP,WildCard_Ex,-0.226587729,0.065123789,1,0,0,3.4797,optionLeft,55,14440,6,42,0,42,0,1,,,,,,,,,,,,,,,,,,,,,,,,,,,,,,,,,,,,,,,
,,,,,,,,2023-08-16_08h47.33.654,HF_wild_card,2022.2.4,Win32,59.99160118,5ffdd6ac44be033c5ca23956,64d2fd46c836a06233681665,64dc7f0696ba187eefe1fd09,,,,,,,decisionTrl,resources/DR.BMP,resources/DB.BMP,Door4,0.325618945,0.07050592,1,0,0,0.7193,optionRight,60,14500,6,43,0,43,0,1,,,,,,,,,,,,,,,,,,,,,,,,,,,,,,,,,,,,,,,
,,,,,,,,2023-08-16_08h47.33.654,HF_wild_card,2022.2.4,Win32,59.99160118,5ffdd6ac44be033c5ca23956,64d2fd46c836a06233681665,64dc7f0696ba187eefe1fd09,,,,,,,,,,,,,,,,,,,,,,,,,,5,0,5,0,1,,,,,,,,,,,,,,,,,,,,,,,,,,,,,,,,,,
,,,,,,,,2023-08-16_08h47.33.654,HF_wild_card,2022.2.4,Win32,59.99160118,5ffdd6ac44be033c5ca23956,64d2fd46c836a06233681665,64dc7f0696ba187eefe1fd09,,,,,,,decisionTrl,resources/DBN.BMP,resources/DP.BMP,Door1,0.442949408,-0.046824543,1,0,0,0.7729,optionRight,30,14530,7,0,0,0,0,1,,,,,,,,,,,,,,,,,,,,,,,,,,,,,,,,,,,,,,,
,,,,,,,,2023-08-16_08h47.33.654,HF_wild_card,2022.2.4,Win32,59.99160118,5ffdd6ac44be033c5ca23956,64d2fd46c836a06233681665,64dc7f0696ba187eefe1fd09,,,,,,,decisionTrl,resources/DP.BMP,resources/DBN.BMP,Door1,-0.226587729,0.017761033,1,0,0,0.9483,optionLeft,30,14560,7,1,0,1,0,1,,,,,,,,,,,,,,,,,,,,,,,,,,,,,,,,,,,,,,,
,,,,,,,,2023-08-16_08h47.33.654,HF_wild_card,2022.2.4,Win32,59.99160118,5ffdd6ac44be033c5ca23956,64d2fd46c836a06233681665,64dc7f0696ba187eefe1fd09,,,,,,,decisionTrl,resources/DP.BMP,resources/DBN.BMP,Door1,-0.177072121,0.006996771,1,0,0,0.6591,optionLeft,30,14590,7,2,0,2,0,1,,,,,,,,,,,,,,,,,,,,,,,,,,,,,,,,,,,,,,,
,,,,,,,,2023-08-16_08h47.33.654,HF_wild_card,2022.2.4,Win32,59.99160118,5ffdd6ac44be033c5ca23956,64d2fd46c836a06233681665,64dc7f0696ba187eefe1fd09,,,,,,,ctch,resources/DBN.BMP,resources/DR.BMP,Door3,0.382669537,-0.003767492,1,0,0,0.9819,optionRight,70,14660,7,3,0,3,0,1,,,,,,,,,,,,,,,,,,,,,,,,,,,,,,,,,,,,,,,
,,,,,,,,2023-08-16_08h47.33.654,HF_wild_card,2022.2.4,Win32,59.99160118,5ffdd6ac44be033c5ca23956,64d2fd46c836a06233681665,64dc7f0696ba187eefe1fd09,,,,,,,decisionTrl,resources/DB.BMP,resources/DR.BMP,Door4,-0.21474704,0.099569429,1,0,0,0.8554,optionLeft,80,14740,7,4,0,4,0,1,,,,,,,,,,,,,,,,,,,,,,,,,,,,,,,,,,,,,,,
,,,,,,,,2023-08-16_08h47.33.654,HF_wild_card,2022.2.4,Win32,59.99160118,5ffdd6ac44be033c5ca23956,64d2fd46c836a06233681665,64dc7f0696ba187eefe1fd09,,,,,,,decisionTrl,resources/DR.BMP,resources/DB.BMP,Door4,0.32131324,0.065123789,1,0,0,0.7943,optionRight,80,14820,7,5,0,5,0,1,,,,,,,,,,,,,,,,,,,,,,,,,,,,,,,,,,,,,,,
,,,,,,,,2023-08-16_08h47.33.654,HF_wild_card,2022.2.4,Win32,59.99160118,5ffdd6ac44be033c5ca23956,64d2fd46c836a06233681665,64dc7f0696ba187eefe1fd09,,,,,,,decisionTrl,resources/DBN.BMP,resources/DP.BMP,Door1,0.472012917,0.066200215,1,0,0,0.725,optionRight,30,14850,7,6,0,6,0,1,,,,,,,,,,,,,,,,,,,,,,,,,,,,,,,,,,,,,,,
,,,,,,,,2023-08-16_08h47.33.654,HF_wild_card,2022.2.4,Win32,59.99160118,5ffdd6ac44be033c5ca23956,64d2fd46c836a06233681665,64dc7f0696ba187eefe1fd09,,,,,,,decisionTrl,resources/DB.BMP,resources/DR.BMP,Door3,0.365446717,0.094187298,1,0,0,1.4924,optionRight,70,14920,7,7,0,7,0,1,,,,,,,,,,,,,,,,,,,,,,,,,,,,,,,,,,,,,,,
,,,,,,,,2023-08-16_08h47.33.654,HF_wild_card,2022.2.4,Win32,59.99160118,5ffdd6ac44be033c5ca23956,64d2fd46c836a06233681665,64dc7f0696ba187eefe1fd09,,,,,,,decisionTrl,resources/DB.BMP,resources/DR.BMP,Door3,0.392357374,0.160925727,1,0,0,1.7483,optionRight,70,14990,7,8,0,8,0,1,,,,,,,,,,,,,,,,,,,,,,,,,,,,,,,,,,,,,,,
,,,,,,,,2023-08-16_08h47.33.654,HF_wild_card,2022.2.4,Win32,59.99160118,5ffdd6ac44be033c5ca23956,64d2fd46c836a06233681665,64dc7f0696ba187eefe1fd09,,,,,,,ctch,resources/DR.BMP,resources/DBN.BMP,Door3,-0.368675996,0.068353068,1,0,0,1.0053,optionLeft,70,15060,7,9,0,9,0,1,,,,,,,,,,,,,,,,,,,,,,,,,,,,,,,,,,,,,,,
,,,,,,,,2023-08-16_08h47.33.654,HF_wild_card,2022.2.4,Win32,59.99160118,5ffdd6ac44be033c5ca23956,64d2fd46c836a06233681665,64dc7f0696ba187eefe1fd09,,,,,,,ctch,resources/DB.BMP,resources/DP.BMP,Door4,-0.254574812,0.101722282,1,0,0,0.6918,optionLeft,80,15140,7,10,0,10,0,1,,,,,,,,,,,,,,,,,,,,,,,,,,,,,,,,,,,,,,,
,,,,,,,,2023-08-16_08h47.33.654,HF_wild_card,2022.2.4,Win32,59.99160118,5ffdd6ac44be033c5ca23956,64d2fd46c836a06233681665,64dc7f0696ba187eefe1fd09,,,,,,,ctch,resources/DB.BMP,resources/DP.BMP,Door4,-0.222282024,0.037136706,1,0,0,0.5256,optionLeft,60,15200,7,11,0,11,0,1,,,,,,,,,,,,,,,,,,,,,,,,,,,,,,,,,,,,,,,
,,,,,,,,2023-08-16_08h47.33.654,HF_wild_card,2022.2.4,Win32,59.99160118,5ffdd6ac44be033c5ca23956,64d2fd46c836a06233681665,64dc7f0696ba187eefe1fd09,,,,,,,decisionTrl,resources/DP.BMP,resources/DBN.BMP,Door1,-0.255651238,0.020990312,1,0,0,0.6272,optionLeft,30,15230,7,12,0,12,0,1,,,,,,,,,,,,,,,,,,,,,,,,,,,,,,,,,,,,,,,
,,,,,,,,2023-08-16_08h47.33.654,HF_wild_card,2022.2.4,Win32,59.99160118,5ffdd6ac44be033c5ca23956,64d2fd46c836a06233681665,64dc7f0696ba187eefe1fd09,,,,,,,decisionTrl,resources/DB.BMP,resources/DR.BMP,Door4,-0.207212056,0.040365985,1,0,0,0.626,optionLeft,60,15290,7,13,0,13,0,1,,,,,,,,,,,,,,,,,,,,,,,,,,,,,,,,,,,,,,,
,,,,,,,,2023-08-16_08h47.33.654,HF_wild_card,2022.2.4,Win32,59.99160118,5ffdd6ac44be033c5ca23956,64d2fd46c836a06233681665,64dc7f0696ba187eefe1fd09,,,,,,,decisionTrl,resources/DR.BMP,resources/DB.BMP,Door4,0.529063509,0.11679225,1,0,0,2.5813,optionRight,60,15350,7,14,0,14,0,1,,,,,,,,,,,,,,,,,,,,,,,,,,,,,,,,,,,,,,,
,,,,,,,,2023-08-16_08h47.33.654,HF_wild_card,2022.2.4,Win32,59.99160118,5ffdd6ac44be033c5ca23956,64d2fd46c836a06233681665,64dc7f0696ba187eefe1fd09,,,,,,,decisionTrl,resources/DB.BMP,resources/DR.BMP,Door4,-0.284714747,0.089881593,1,0,0,1.5433,optionLeft,80,15430,7,15,0,15,0,1,,,,,,,,,,,,,,,,,,,,,,,,,,,,,,,,,,,,,,,
,,,,,,,,2023-08-16_08h47.33.654,HF_wild_card,2022.2.4,Win32,59.99160118,5ffdd6ac44be033c5ca23956,64d2fd46c836a06233681665,64dc7f0696ba187eefe1fd09,,,,,,,ctch,resources/DBN.BMP,resources/DR.BMP,Door3,0.40204521,0.051130248,1,0,0,0.7651,optionRight,70,15500,7,16,0,16,0,1,,,,,,,,,,,,,,,,,,,,,,,,,,,,,,,,,,,,,,,
,,,,,,,,2023-08-16_08h47.33.654,HF_wild_card,2022.2.4,Win32,59.99160118,5ffdd6ac44be033c5ca23956,64d2fd46c836a06233681665,64dc7f0696ba187eefe1fd09,,,,,,,decisionTrl,resources/DBN.BMP,resources/DP.BMP,Door1,0.398815931,0.060818084,1,0,0,2.2267,optionRight,30,15530,7,17,0,17,0,1,,,,,,,,,,,,,,,,,,,,,,,,,,,,,,,,,,,,,,,
,,,,,,,,2023-08-16_08h47.33.654,HF_wild_card,2022.2.4,Win32,59.99160118,5ffdd6ac44be033c5ca23956,64d2fd46c836a06233681665,64dc7f0696ba187eefe1fd09,,,,,,,ctch,resources/DR.BMP,resources/DBN.BMP,Door3,-0.275026911,0.012378902,1,0,0,0.7086,optionLeft,70,15600,7,18,0,18,0,1,,,,,,,,,,,,,,,,,,,,,,,,,,,,,,,,,,,,,,,
,,,,,,,,2023-08-16_08h47.33.654,HF_wild_card,2022.2.4,Win32,59.99160118,5ffdd6ac44be033c5ca23956,64d2fd46c836a06233681665,64dc7f0696ba187eefe1fd09,,,,,,,decisionTrl,resources/DBN.BMP,resources/DP.BMP,Door1,0.346071044,-0.005920344,1,0,0,0.8723,optionRight,30,15630,7,19,0,19,0,1,,,,,,,,,,,,,,,,,,,,,,,,,,,,,,,,,,,,,,,
,,,,,,,,2023-08-16_08h47.33.654,HF_wild_card,2022.2.4,Win32,59.99160118,5ffdd6ac44be033c5ca23956,64d2fd46c836a06233681665,64dc7f0696ba187eefe1fd09,,,,,,,ctch,resources/DBN.BMP,resources/DR.BMP,Door3,0.276103337,0.052206674,1,0,0,0.6818,optionRight,70,15700,7,20,0,20,0,1,,,,,,,,,,,,,,,,,,,,,,,,,,,,,,,,,,,,,,,
,,,,,,,,2023-08-16_08h47.33.654,HF_wild_card,2022.2.4,Win32,59.99160118,5ffdd6ac44be033c5ca23956,64d2fd46c836a06233681665,64dc7f0696ba187eefe1fd09,,,,,,,decisionTrl,resources/DB.BMP,resources/DR.BMP,Door3,0.378363832,0.04467169,1,0,0,0.7279,optionRight,70,15770,7,21,0,21,0,1,,,,,,,,,,,,,,,,,,,,,,,,,,,,,,,,,,,,,,,
,,,,,,,,2023-08-16_08h47.33.654,HF_wild_card,2022.2.4,Win32,59.99160118,5ffdd6ac44be033c5ca23956,64d2fd46c836a06233681665,64dc7f0696ba187eefe1fd09,,,,,,,decisionTrl,resources/DR.BMP,resources/DB.BMP,Door3,-0.23196986,-0.008073197,1,0,0,2.0442,optionLeft,70,15840,7,22,0,22,0,1,,,,,,,,,,,,,,,,,,,,,,,,,,,,,,,,,,,,,,,
,,,,,,,,2023-08-16_08h47.33.654,HF_wild_card,2022.2.4,Win32,59.99160118,5ffdd6ac44be033c5ca23956,64d2fd46c836a06233681665,64dc7f0696ba187eefe1fd09,,,,,,,decisionTrl,resources/DR.BMP,resources/DB.BMP,Door4,0.442949408,0.037136706,1,0,0,0.6084,optionRight,60,15900,7,23,0,23,0,1,,,,,,,,,,,,,,,,,,,,,,,,,,,,,,,,,,,,,,,
,,,,,,,,2023-08-16_08h47.33.654,HF_wild_card,2022.2.4,Win32,59.99160118,5ffdd6ac44be033c5ca23956,64d2fd46c836a06233681665,64dc7f0696ba187eefe1fd09,,,,,,,ctch,resources/DB.BMP,resources/DP.BMP,Door4,-0.198600646,0.020990312,1,0,0,0.6928,optionLeft,60,15960,7,24,0,24,0,1,,,,,,,,,,,,,,,,,,,,,,,,,,,,,,,,,,,,,,,
,,,,,,,,2023-08-16_08h47.33.654,HF_wild_card,2022.2.4,Win32,59.99160118,5ffdd6ac44be033c5ca23956,64d2fd46c836a06233681665,64dc7f0696ba187eefe1fd09,,,,,,,decisionTrl,resources/DBN.BMP,resources/DP.BMP,Door1,0.344994618,0.022066738,1,0,0,0.6745,optionRight,30,15990,7,25,0,25,0,1,,,,,,,,,,,,,,,,,,,,,,,,,,,,,,,,,,,,,,,
,,,,,,,,2023-08-16_08h47.33.654,HF_wild_card,2022.2.4,Win32,59.99160118,5ffdd6ac44be033c5ca23956,64d2fd46c836a06233681665,64dc7f0696ba187eefe1fd09,,,,,,,ctch,resources/DP.BMP,resources/DB.BMP,Door4,0.363293864,0.095263724,1,0,0,1.2216,optionRight,80,16070,7,26,0,26,0,1,,,,,,,,,,,,,,,,,,,,,,,,,,,,,,,,,,,,,,,
,,,,,,,,2023-08-16_08h47.33.654,HF_wild_card,2022.2.4,Win32,59.99160118,5ffdd6ac44be033c5ca23956,64d2fd46c836a06233681665,64dc7f0696ba187eefe1fd09,,,,,,,decisionTrl,resources/DR.BMP,resources/DB.BMP,Door4,0.41065662,0.102798708,1,0,0,0.9727,optionRight,80,16150,7,27,0,27,0,1,,,,,,,,,,,,,,,,,,,,,,,,,,,,,,,,,,,,,,,
,,,,,,,,2023-08-16_08h47.33.654,HF_wild_card,2022.2.4,Win32,59.99160118,5ffdd6ac44be033c5ca23956,64d2fd46c836a06233681665,64dc7f0696ba187eefe1fd09,,,,,,,ctch,resources/DP.BMP,resources/DB.BMP,Door4,0.309472551,0.095263724,1,0,0,1.3716,optionRight,60,16210,7,28,0,28,0,1,,,,,,,,,,,,,,,,,,,,,,,,,,,,,,,,,,,,,,,
,,,,,,,,2023-08-16_08h47.33.654,HF_wild_card,2022.2.4,Win32,59.99160118,5ffdd6ac44be033c5ca23956,64d2fd46c836a06233681665,64dc7f0696ba187eefe1fd09,,,,,,,decisionTrl,resources/DP.BMP,resources/DBN.BMP,Door1,-0.209364909,0.115715823,1,0,0,0.8758,optionLeft,30,16240,7,29,0,29,0,1,,,,,,,,,,,,,,,,,,,,,,,,,,,,,,,,,,,,,,,
,,,,,,,,2023-08-16_08h47.33.654,HF_wild_card,2022.2.4,Win32,59.99160118,5ffdd6ac44be033c5ca23956,64d2fd46c836a06233681665,64dc7f0696ba187eefe1fd09,,,,,,,ctch,resources/DP.BMP,resources/DB.BMP,Door4,0.484930032,0.128632939,1,0,0,1.5496,optionRight,60,16300,7,30,0,30,0,1,,,,,,,,,,,,,,,,,,,,,,,,,,,,,,,,,,,,,,,
,,,,,,,,2023-08-16_08h47.33.654,HF_wild_card,2022.2.4,Win32,59.99160118,5ffdd6ac44be033c5ca23956,64d2fd46c836a06233681665,64dc7f0696ba187eefe1fd09,,,,,,,decisionTrl,resources/DBN.BMP,resources/DP.BMP,Door1,0.614101184,0.106027987,1,0,0,0.6152,optionRight,30,16330,7,31,0,31,0,1,,,,,,,,,,,,,,,,,,,,,,,,,,,,,,,,,,,,,,,
,,,,,,,,2023-08-16_08h47.33.654,HF_wild_card,2022.2.4,Win32,59.99160118,5ffdd6ac44be033c5ca23956,64d2fd46c836a06233681665,64dc7f0696ba187eefe1fd09,,,,,,,decisionTrl,resources/DP.BMP,resources/DBN.BMP,Door1,-0.262109795,0.100645856,1,0,0,0.625,optionLeft,30,16360,7,32,0,32,0,1,,,,,,,,,,,,,,,,,,,,,,,,,,,,,,,,,,,,,,,
,,,,,,,,2023-08-16_08h47.33.654,HF_wild_card,2022.2.4,Win32,59.99160118,5ffdd6ac44be033c5ca23956,64d2fd46c836a06233681665,64dc7f0696ba187eefe1fd09,,,,,,,decisionTrl,resources/DR.BMP,resources/DB.BMP,Door4,0.426803014,0.137244349,1,0,0,1.2926,optionRight,80,16440,7,33,0,33,0,1,,,,,,,,,,,,,,,,,,,,,,,,,,,,,,,,,,,,,,,
,,,,,,,,2023-08-16_08h47.33.654,HF_wild_card,2022.2.4,Win32,59.99160118,5ffdd6ac44be033c5ca23956,64d2fd46c836a06233681665,64dc7f0696ba187eefe1fd09,,,,,,,ctch,resources/DR.BMP,resources/DBN.BMP,Door3,-0.228740581,0.058665231,1,0,0,0.8153,optionLeft,70,16510,7,34,0,34,0,1,,,,,,,,,,,,,,,,,,,,,,,,,,,,,,,,,,,,,,,
,,,,,,,,2023-08-16_08h47.33.654,HF_wild_card,2022.2.4,Win32,59.99160118,5ffdd6ac44be033c5ca23956,64d2fd46c836a06233681665,64dc7f0696ba187eefe1fd09,,,,,,,decisionTrl,resources/DP.BMP,resources/DBN.BMP,Door1,-0.195371367,0.067276642,1,0,0,0.6474,optionLeft,30,16540,7,35,0,35,0,1,,,,,,,,,,,,,,,,,,,,,,,,,,,,,,,,,,,,,,,
,,,,,,,,2023-08-16_08h47.33.654,HF_wild_card,2022.2.4,Win32,59.99160118,5ffdd6ac44be033c5ca23956,64d2fd46c836a06233681665,64dc7f0696ba187eefe1fd09,,,,,,,,,,,,,,,,,,,,,,,,,,6,0,6,0,1,,,,,,,,,,,,,,,,,,,,,,,,,,,,,,,,,,
,,,,,,,,2023-08-16_08h47.33.654,HF_wild_card,2022.2.4,Win32,59.99160118,5ffdd6ac44be033c5ca23956,64d2fd46c836a06233681665,64dc7f0696ba187eefe1fd09,,,,,,,,,,,,,,,,,,,,,,,,,,,,,,,4,,,,,,,,,,,,,,,,,,,,,,,,,,,,,,,,,
,,,,,,,,2023-08-16_08h47.33.654,HF_wild_card,2022.2.4,Win32,59.99160118,5ffdd6ac44be033c5ca23956,64d2fd46c836a06233681665,64dc7f0696ba187eefe1fd09,,,,,,,,,,,,,,,,,,,,,,,,,,,,,,,,,,,,,,,,,,,,,,,,,,,,,,,,,,,,,,,,
,,,,,,,,2023-08-16_08h47.33.654,HF_wild_card,2022.2.4,Win32,59.99160118,5ffdd6ac44be033c5ca23956,64d2fd46c836a06233681665,64dc7f0696ba187eefe1fd09,,,,,,,,,,,,,,,,,,,,,,,,,,,,,,,,20,Door2,resources/DBN.BMP,0,0,0,0,1,,,,,,,,,,,,,,,,,,,,,,,,,
,,,,,,,,2023-08-16_08h47.33.654,HF_wild_card,2022.2.4,Win32,59.99160118,5ffdd6ac44be033c5ca23956,64d2fd46c836a06233681665,64dc7f0696ba187eefe1fd09,,,,,,,,,,,,,,,,,,,,,,,,,,,,,,,,80,Door4,resources/DB.BMP,1,0,1,0,1,,,,,,,,,,,,,,,,,,,,,,,,,
,,,,,,,,2023-08-16_08h47.33.654,HF_wild_card,2022.2.4,Win32,59.99160118,5ffdd6ac44be033c5ca23956,64d2fd46c836a06233681665,64dc7f0696ba187eefe1fd09,,,,,,,,,,,,,,,,,,,,,,,,,,,,,,,,70,Door3,resources/DR.BMP,2,0,2,0,1,,,,,,,,,,,,,,,,,,,,,,,,,
,,,,,,,,2023-08-16_08h47.33.654,HF_wild_card,2022.2.4,Win32,59.99160118,5ffdd6ac44be033c5ca23956,64d2fd46c836a06233681665,64dc7f0696ba187eefe1fd09,,,,,,,,,,,,,,,,,,,,,,,,,,,,,,,,30,Door1,resources/DP.BMP,3,0,3,0,1,,,,,,,,,,,,,,,,,,,,,,,,,
,,,,,,,,2023-08-16_08h47.33.654,HF_wild_card,2022.2.4,Win32,59.99160118,5ffdd6ac44be033c5ca23956,64d2fd46c836a06233681665,64dc7f0696ba187eefe1fd09,,,,,,,,,,,,,,,,,,,,,,,,,,,,,,,,55,WC_nonExtreme,resources/DY.BMP,4,0,4,0,1,,,,,,,,,,,,,,,,,,,,,,,,,
,,,,,,,,2023-08-16_08h47.33.654,HF_wild_card,2022.2.4,Win32,59.99160118,5ffdd6ac44be033c5ca23956,64d2fd46c836a06233681665,64dc7f0696ba187eefe1fd09,,,,,,,,,,,,,,,,,,,,,,,,,,,,,,,,55,WC_extreme,resources/DG.BMP,5,0,5,0,1,,,,,,,,,,,,,,,,,,,,,,,,,
,,,,,,,,2023-08-16_08h47.33.654,HF_wild_card,2022.2.4,Win32,59.99160118,5ffdd6ac44be033c5ca23956,64d2fd46c836a06233681665,64dc7f0696ba187eefe1fd09,,,,,,,,,,,,,,,,,,,,,,,,,,,,,,,,,,,,,,,,,,,,,,,,,,,,,,,,,,,,,,,,
,,,,,,,,2023-08-16_08h47.33.654,HF_wild_card,2022.2.4,Win32,59.99160118,5ffdd6ac44be033c5ca23956,64d2fd46c836a06233681665,64dc7f0696ba187eefe1fd09,,,,,,,,,,,,,,,,,,,,,,,,,,,,,,,,,,,,,,,,0,0,0,0,1,,,,,,,,,,,,,,,,,,,,
