Condition,Low fixed image (Door1),Low risky image (Door2),High fixed image (Door3),High risky image (Door4),Extreme Wild Card,NonExtreme Wild Card,,date,expName,psychopyVersion,OS,frameRate,PROLIFIC_PID,STUDY_ID,SESSION_ID,mouse_2.x,mouse_2.y,mouse_2.leftButton,mouse_2.midButton,mouse_2.rightButton,mouse_2.clicked_name,Trial Type,Left Option Image,Right Option Image,Chosen Door,mouse.x,mouse.y,mouse.leftButton,mouse.midButton,mouse.rightButton,mouse.time,mouse.clicked_name,Feedback,Cumulative Reward,Block,trial.thisRepN,trial.thisTrialN,trial.thisN,trial.thisIndex,trial.ran,blocks.thisRepN,blocks.thisTrialN,blocks.thisN,blocks.thisIndex,blocks.ran,Money conversion,First Outcome Reported,Shown Door (First Outcome),Displayed Image (First Outcome),outcomes.thisRepN,outcomes.thisTrialN,outcomes.thisN,outcomes.thisIndex,outcomes.ran,judgments.thisRepN,judgments.thisTrialN,judgments.thisN,judgments.thisIndex,judgments.ran,freqMouse.x,freqMouse.y,freqMouse.leftButton,freqMouse.midButton,freqMouse.rightButton,freqMouse.clicked_name,FQJ for first outcome,FQJ for second outcome,Shown Door,Displayed Image,trials.thisRepN,trials.thisTrialN,trials.thisN,trials.thisIndex,trials.ran,judgBlock.thisRepN,judgBlock.thisTrialN,judgBlock.thisN,judgBlock.thisIndex,judgBlock.ran
0,resources/DR.BMP,resources/DP.BMP,resources/DG.BMP,resources/DY.BMP,resources/DBN.BMP,resources/DB.BMP,5f4cbdf9f599118d27c21442,2023-08-16_08h48.54.598,HF_wild_card,2022.2.4,Linux x86_64,59.98440405,5f4cbdf9f599118d27c21442,64d2fd46c836a06233681665,64dc7f14707d0bc38769627e,,,,,,,,,,,,,,,,,,,,,,,,,,,,,,,,,,,,,,,,,,,,,,,,,,,,,,,,,,,,,,,,
,,,,,,,5f4cbdf9f599118d27c21442,2023-08-16_08h48.54.598,HF_wild_card,2022.2.4,Linux x86_64,59.98440405,5f4cbdf9f599118d27c21442,64d2fd46c836a06233681665,64dc7f14707d0bc38769627e,0.011796842,-0.421872787,1,0,0,agree,,,,,,,,,,,,,,,,,,,,,,,,,,,,,,,,,,,,,,,,,,,,,,,,,,,,,,,,,,
,,,,,,,5f4cbdf9f599118d27c21442,2023-08-16_08h48.54.598,HF_wild_card,2022.2.4,Linux x86_64,59.98440405,5f4cbdf9f599118d27c21442,64d2fd46c836a06233681665,64dc7f14707d0bc38769627e,,,,,,,,,,,,,,,,,,,,,,,,,,,,,,,,,,,,,,,,,,,,,,,,,,,,,,,,,,,,,,,,
,,,,,,,5f4cbdf9f599118d27c21442,2023-08-16_08h48.54.598,HF_wild_card,2022.2.4,Linux x86_64,59.98440405,5f4cbdf9f599118d27c21442,64d2fd46c836a06233681665,64dc7f14707d0bc38769627e,,,,,,,decisionTrl,resources/DY.BMP,resources/DG.BMP,Door4,-0.296847709,-0.125493629,1,0,0,1.8339,optionLeft,80,80,1,0,0,0,0,1,,,,,,,,,,,,,,,,,,,,,,,,,,,,,,,,,,,,,,,
,,,,,,,5f4cbdf9f599118d27c21442,2023-08-16_08h48.54.598,HF_wild_card,2022.2.4,Linux x86_64,59.98440405,5f4cbdf9f599118d27c21442,64d2fd46c836a06233681665,64dc7f14707d0bc38769627e,,,,,,,ctch,resources/DY.BMP,resources/DR.BMP,Door4,-0.486397965,-0.009270337,1,0,0,2.1127,optionLeft,60,140,1,1,0,1,0,1,,,,,,,,,,,,,,,,,,,,,,,,,,,,,,,,,,,,,,,
,,,,,,,5f4cbdf9f599118d27c21442,2023-08-16_08h48.54.598,HF_wild_card,2022.2.4,Linux x86_64,59.98440405,5f4cbdf9f599118d27c21442,64d2fd46c836a06233681665,64dc7f14707d0bc38769627e,,,,,,,decisionTrl,resources/DY.BMP,resources/DBN.BMP,WildCard_Ex,0.368426735,-0.01182593,1,0,0,1.6263,optionRight,5,145,1,2,0,2,0,1,,,,,,,,,,,,,,,,,,,,,,,,,,,,,,,,,,,,,,,
,,,,,,,5f4cbdf9f599118d27c21442,2023-08-16_08h48.54.598,HF_wild_card,2022.2.4,Linux x86_64,59.98440405,5f4cbdf9f599118d27c21442,64d2fd46c836a06233681665,64dc7f14707d0bc38769627e,,,,,,,ctch,resources/DP.BMP,resources/DG.BMP,Door2,-0.271730452,-0.014398488,1,0,0,0.9164,optionLeft,20,165,1,3,0,3,0,1,,,,,,,,,,,,,,,,,,,,,,,,,,,,,,,,,,,,,,,
,,,,,,,5f4cbdf9f599118d27c21442,2023-08-16_08h48.54.598,HF_wild_card,2022.2.4,Linux x86_64,59.98440405,5f4cbdf9f599118d27c21442,64d2fd46c836a06233681665,64dc7f14707d0bc38769627e,,,,,,,ctch,resources/DR.BMP,resources/DY.BMP,Door4,0.416270553,0.019608789,1,0,0,0.9928,optionRight,60,225,1,4,0,4,0,1,,,,,,,,,,,,,,,,,,,,,,,,,,,,,,,,,,,,,,,
,,,,,,,5f4cbdf9f599118d27c21442,2023-08-16_08h48.54.598,HF_wild_card,2022.2.4,Linux x86_64,59.98440405,5f4cbdf9f599118d27c21442,64d2fd46c836a06233681665,64dc7f14707d0bc38769627e,,,,,,,decisionTrl,resources/DP.BMP,resources/DR.BMP,Door1,0.144782213,-0.020516986,1,0,0,2.2845,optionRight,30,255,1,5,0,5,0,1,,,,,,,,,,,,,,,,,,,,,,,,,,,,,,,,,,,,,,,
,,,,,,,5f4cbdf9f599118d27c21442,2023-08-16_08h48.54.598,HF_wild_card,2022.2.4,Linux x86_64,59.98440405,5f4cbdf9f599118d27c21442,64d2fd46c836a06233681665,64dc7f14707d0bc38769627e,,,,,,,decisionTrl,resources/DP.BMP,resources/DR.BMP,Door2,-0.234545198,-0.00470381,1,0,0,1.4437,optionLeft,20,275,1,6,0,6,0,1,,,,,,,,,,,,,,,,,,,,,,,,,,,,,,,,,,,,,,,
,,,,,,,5f4cbdf9f599118d27c21442,2023-08-16_08h48.54.598,HF_wild_card,2022.2.4,Linux x86_64,59.98440405,5f4cbdf9f599118d27c21442,64d2fd46c836a06233681665,64dc7f14707d0bc38769627e,,,,,,,sngl,resources/Empty.png,resources/DBN.BMP,WildCard_Ex,0.199336118,0.01492139,1,0,0,2.1331,optionRight,5,280,1,7,0,7,0,1,,,,,,,,,,,,,,,,,,,,,,,,,,,,,,,,,,,,,,,
,,,,,,,5f4cbdf9f599118d27c21442,2023-08-16_08h48.54.598,HF_wild_card,2022.2.4,Linux x86_64,59.98440405,5f4cbdf9f599118d27c21442,64d2fd46c836a06233681665,64dc7f14707d0bc38769627e,,,,,,,sngl,resources/Empty.png,resources/DP.BMP,Door2,0.245791986,-0.000531107,1,0,0,2.8818,optionRight,20,300,1,8,0,8,0,1,,,,,,,,,,,,,,,,,,,,,,,,,,,,,,,,,,,,,,,
,,,,,,,5f4cbdf9f599118d27c21442,2023-08-16_08h48.54.598,HF_wild_card,2022.2.4,Linux x86_64,59.98440405,5f4cbdf9f599118d27c21442,64d2fd46c836a06233681665,64dc7f14707d0bc38769627e,,,,,,,sngl,resources/DBN.BMP,resources/Empty.png,WildCard_Ex,-0.22712288,-0.017033465,1,0,0,1.0459,optionLeft,5,305,1,9,0,9,0,1,,,,,,,,,,,,,,,,,,,,,,,,,,,,,,,,,,,,,,,
,,,,,,,5f4cbdf9f599118d27c21442,2023-08-16_08h48.54.598,HF_wild_card,2022.2.4,Linux x86_64,59.98440405,5f4cbdf9f599118d27c21442,64d2fd46c836a06233681665,64dc7f14707d0bc38769627e,,,,,,,sngl,resources/DY.BMP,resources/Empty.png,Door4,-0.27515552,-0.049665975,1,0,0,1.3309,optionLeft,80,385,1,10,0,10,0,1,,,,,,,,,,,,,,,,,,,,,,,,,,,,,,,,,,,,,,,
,,,,,,,5f4cbdf9f599118d27c21442,2023-08-16_08h48.54.598,HF_wild_card,2022.2.4,Linux x86_64,59.98440405,5f4cbdf9f599118d27c21442,64d2fd46c836a06233681665,64dc7f14707d0bc38769627e,,,,,,,decisionTrl,resources/DR.BMP,resources/DP.BMP,Door1,-0.291694341,-0.01781134,1,0,0,1.5218,optionLeft,30,415,1,11,0,11,0,1,,,,,,,,,,,,,,,,,,,,,,,,,,,,,,,,,,,,,,,
,,,,,,,5f4cbdf9f599118d27c21442,2023-08-16_08h48.54.598,HF_wild_card,2022.2.4,Linux x86_64,59.98440405,5f4cbdf9f599118d27c21442,64d2fd46c836a06233681665,64dc7f14707d0bc38769627e,,,,,,,ctch,resources/DY.BMP,resources/DR.BMP,Door4,-0.318039171,-0.030959668,1,0,0,1.1955,optionLeft,80,495,1,12,0,12,0,1,,,,,,,,,,,,,,,,,,,,,,,,,,,,,,,,,,,,,,,
,,,,,,,5f4cbdf9f599118d27c21442,2023-08-16_08h48.54.598,HF_wild_card,2022.2.4,Linux x86_64,59.98440405,5f4cbdf9f599118d27c21442,64d2fd46c836a06233681665,64dc7f14707d0bc38769627e,,,,,,,decisionTrl,resources/DY.BMP,resources/DG.BMP,Door4,-0.170659368,-0.007812777,1,0,0,0.9284,optionLeft,60,555,1,13,0,13,0,1,,,,,,,,,,,,,,,,,,,,,,,,,,,,,,,,,,,,,,,
,,,,,,,5f4cbdf9f599118d27c21442,2023-08-16_08h48.54.598,HF_wild_card,2022.2.4,Linux x86_64,59.98440405,5f4cbdf9f599118d27c21442,64d2fd46c836a06233681665,64dc7f14707d0bc38769627e,,,,,,,decisionTrl,resources/DBN.BMP,resources/DP.BMP,Door2,0.208915226,-0.04479395,1,0,0,2.4592,optionRight,20,575,1,14,0,14,0,1,,,,,,,,,,,,,,,,,,,,,,,,,,,,,,,,,,,,,,,
,,,,,,,5f4cbdf9f599118d27c21442,2023-08-16_08h48.54.598,HF_wild_card,2022.2.4,Linux x86_64,59.98440405,5f4cbdf9f599118d27c21442,64d2fd46c836a06233681665,64dc7f14707d0bc38769627e,,,,,,,decisionTrl,resources/DR.BMP,resources/DP.BMP,Door1,-0.315411985,0.020597982,1,0,0,1.8801,optionLeft,30,605,1,15,0,15,0,1,,,,,,,,,,,,,,,,,,,,,,,,,,,,,,,,,,,,,,,
,,,,,,,5f4cbdf9f599118d27c21442,2023-08-16_08h48.54.598,HF_wild_card,2022.2.4,Linux x86_64,59.98440405,5f4cbdf9f599118d27c21442,64d2fd46c836a06233681665,64dc7f14707d0bc38769627e,,,,,,,ctch,resources/DG.BMP,resources/DP.BMP,Door2,0.310577577,-0.00674231,1,0,0,1.117,optionRight,20,625,1,16,0,16,0,1,,,,,,,,,,,,,,,,,,,,,,,,,,,,,,,,,,,,,,,
,,,,,,,5f4cbdf9f599118d27c21442,2023-08-16_08h48.54.598,HF_wild_card,2022.2.4,Linux x86_64,59.98440405,5f4cbdf9f599118d27c21442,64d2fd46c836a06233681665,64dc7f14707d0bc38769627e,,,,,,,sngl,resources/DR.BMP,resources/Empty.png,Door1,-0.212132019,-0.003074208,1,0,0,1.8468,optionLeft,30,655,1,17,0,17,0,1,,,,,,,,,,,,,,,,,,,,,,,,,,,,,,,,,,,,,,,
,,,,,,,5f4cbdf9f599118d27c21442,2023-08-16_08h48.54.598,HF_wild_card,2022.2.4,Linux x86_64,59.98440405,5f4cbdf9f599118d27c21442,64d2fd46c836a06233681665,64dc7f14707d0bc38769627e,,,,,,,decisionTrl,resources/DBN.BMP,resources/DG.BMP,Door3,0.267917691,-0.037181013,1,0,0,1.0298,optionRight,70,725,1,18,0,18,0,1,,,,,,,,,,,,,,,,,,,,,,,,,,,,,,,,,,,,,,,
,,,,,,,5f4cbdf9f599118d27c21442,2023-08-16_08h48.54.598,HF_wild_card,2022.2.4,Linux x86_64,59.98440405,5f4cbdf9f599118d27c21442,64d2fd46c836a06233681665,64dc7f14707d0bc38769627e,,,,,,,decisionTrl,resources/DP.BMP,resources/DR.BMP,Door1,0.226531429,-0.010041574,1,0,0,1.5879,optionRight,30,755,1,19,0,19,0,1,,,,,,,,,,,,,,,,,,,,,,,,,,,,,,,,,,,,,,,
,,,,,,,5f4cbdf9f599118d27c21442,2023-08-16_08h48.54.598,HF_wild_card,2022.2.4,Linux x86_64,59.98440405,5f4cbdf9f599118d27c21442,64d2fd46c836a06233681665,64dc7f14707d0bc38769627e,,,,,,,decisionTrl,resources/DR.BMP,resources/DBN.BMP,Door1,-0.236089701,-0.01888259,1,0,0,0.9129,optionLeft,30,785,1,20,0,20,0,1,,,,,,,,,,,,,,,,,,,,,,,,,,,,,,,,,,,,,,,
,,,,,,,5f4cbdf9f599118d27c21442,2023-08-16_08h48.54.598,HF_wild_card,2022.2.4,Linux x86_64,59.98440405,5f4cbdf9f599118d27c21442,64d2fd46c836a06233681665,64dc7f14707d0bc38769627e,,,,,,,ctch,resources/DG.BMP,resources/DP.BMP,Door2,0.208718291,-0.032028844,1,0,0,1.1645,optionRight,40,825,1,21,0,21,0,1,,,,,,,,,,,,,,,,,,,,,,,,,,,,,,,,,,,,,,,
,,,,,,,5f4cbdf9f599118d27c21442,2023-08-16_08h48.54.598,HF_wild_card,2022.2.4,Linux x86_64,59.98440405,5f4cbdf9f599118d27c21442,64d2fd46c836a06233681665,64dc7f14707d0bc38769627e,,,,,,,sngl,resources/Empty.png,resources/DY.BMP,Door4,0.379069717,0.047025191,1,0,0,1.1134,optionRight,60,885,1,22,0,22,0,1,,,,,,,,,,,,,,,,,,,,,,,,,,,,,,,,,,,,,,,
,,,,,,,5f4cbdf9f599118d27c21442,2023-08-16_08h48.54.598,HF_wild_card,2022.2.4,Linux x86_64,59.98440405,5f4cbdf9f599118d27c21442,64d2fd46c836a06233681665,64dc7f14707d0bc38769627e,,,,,,,decisionTrl,resources/DP.BMP,resources/DBN.BMP,Door2,-0.151612711,0.011257621,1,0,0,1.0971,optionLeft,40,925,1,23,0,23,0,1,,,,,,,,,,,,,,,,,,,,,,,,,,,,,,,,,,,,,,,
,,,,,,,5f4cbdf9f599118d27c21442,2023-08-16_08h48.54.598,HF_wild_card,2022.2.4,Linux x86_64,59.98440405,5f4cbdf9f599118d27c21442,64d2fd46c836a06233681665,64dc7f14707d0bc38769627e,,,,,,,sngl,resources/DBN.BMP,resources/Empty.png,WildCard_Ex,-0.278450865,0.022735181,1,0,0,0.8459,optionLeft,95,1020,1,24,0,24,0,1,,,,,,,,,,,,,,,,,,,,,,,,,,,,,,,,,,,,,,,
,,,,,,,5f4cbdf9f599118d27c21442,2023-08-16_08h48.54.598,HF_wild_card,2022.2.4,Linux x86_64,59.98440405,5f4cbdf9f599118d27c21442,64d2fd46c836a06233681665,64dc7f14707d0bc38769627e,,,,,,,decisionTrl,resources/DY.BMP,resources/DG.BMP,Door4,-0.172568422,-0.012462466,1,0,0,1.0652,optionLeft,60,1080,1,25,0,25,0,1,,,,,,,,,,,,,,,,,,,,,,,,,,,,,,,,,,,,,,,
,,,,,,,5f4cbdf9f599118d27c21442,2023-08-16_08h48.54.598,HF_wild_card,2022.2.4,Linux x86_64,59.98440405,5f4cbdf9f599118d27c21442,64d2fd46c836a06233681665,64dc7f14707d0bc38769627e,,,,,,,sngl,resources/Empty.png,resources/DBN.BMP,WildCard_Ex,0.196926981,-0.017866244,1,0,0,0.9302,optionRight,95,1175,1,26,0,26,0,1,,,,,,,,,,,,,,,,,,,,,,,,,,,,,,,,,,,,,,,
,,,,,,,5f4cbdf9f599118d27c21442,2023-08-16_08h48.54.598,HF_wild_card,2022.2.4,Linux x86_64,59.98440405,5f4cbdf9f599118d27c21442,64d2fd46c836a06233681665,64dc7f14707d0bc38769627e,,,,,,,decisionTrl,resources/DY.BMP,resources/DG.BMP,Door4,-0.145363707,-0.004613548,1,0,0,1.2313,optionLeft,60,1235,1,27,0,27,0,1,,,,,,,,,,,,,,,,,,,,,,,,,,,,,,,,,,,,,,,
,,,,,,,5f4cbdf9f599118d27c21442,2023-08-16_08h48.54.598,HF_wild_card,2022.2.4,Linux x86_64,59.98440405,5f4cbdf9f599118d27c21442,64d2fd46c836a06233681665,64dc7f14707d0bc38769627e,,,,,,,decisionTrl,resources/DBN.BMP,resources/DR.BMP,WildCard_Ex,-0.093087649,-0.007528484,1,0,0,1.0137,optionLeft,5,1240,1,28,0,28,0,1,,,,,,,,,,,,,,,,,,,,,,,,,,,,,,,,,,,,,,,
,,,,,,,5f4cbdf9f599118d27c21442,2023-08-16_08h48.54.598,HF_wild_card,2022.2.4,Linux x86_64,59.98440405,5f4cbdf9f599118d27c21442,64d2fd46c836a06233681665,64dc7f14707d0bc38769627e,,,,,,,sngl,resources/DP.BMP,resources/Empty.png,Door2,-0.192442926,0.01628938,1,0,0,1.2052,optionLeft,40,1280,1,29,0,29,0,1,,,,,,,,,,,,,,,,,,,,,,,,,,,,,,,,,,,,,,,
,,,,,,,5f4cbdf9f599118d27c21442,2023-08-16_08h48.54.598,HF_wild_card,2022.2.4,Linux x86_64,59.98440405,5f4cbdf9f599118d27c21442,64d2fd46c836a06233681665,64dc7f14707d0bc38769627e,,,,,,,ctch,resources/DP.BMP,resources/DG.BMP,Door2,-0.14926968,0.020642191,1,0,0,1.5146,optionLeft,40,1320,1,30,0,30,0,1,,,,,,,,,,,,,,,,,,,,,,,,,,,,,,,,,,,,,,,
,,,,,,,5f4cbdf9f599118d27c21442,2023-08-16_08h48.54.598,HF_wild_card,2022.2.4,Linux x86_64,59.98440405,5f4cbdf9f599118d27c21442,64d2fd46c836a06233681665,64dc7f14707d0bc38769627e,,,,,,,sngl,resources/Empty.png,resources/DG.BMP,Door3,0.362855295,-0.076927992,1,0,0,0.9121,optionRight,70,1390,1,31,0,31,0,1,,,,,,,,,,,,,,,,,,,,,,,,,,,,,,,,,,,,,,,
,,,,,,,5f4cbdf9f599118d27c21442,2023-08-16_08h48.54.598,HF_wild_card,2022.2.4,Linux x86_64,59.98440405,5f4cbdf9f599118d27c21442,64d2fd46c836a06233681665,64dc7f14707d0bc38769627e,,,,,,,sngl,resources/DG.BMP,resources/Empty.png,Door3,-0.180152363,-0.001227203,1,0,0,0.8979,optionLeft,70,1460,1,32,0,32,0,1,,,,,,,,,,,,,,,,,,,,,,,,,,,,,,,,,,,,,,,
,,,,,,,5f4cbdf9f599118d27c21442,2023-08-16_08h48.54.598,HF_wild_card,2022.2.4,Linux x86_64,59.98440405,5f4cbdf9f599118d27c21442,64d2fd46c836a06233681665,64dc7f14707d0bc38769627e,,,,,,,decisionTrl,resources/DR.BMP,resources/DP.BMP,Door1,-0.16789241,0.015482416,1,0,0,1.254,optionLeft,30,1490,1,33,0,33,0,1,,,,,,,,,,,,,,,,,,,,,,,,,,,,,,,,,,,,,,,
,,,,,,,5f4cbdf9f599118d27c21442,2023-08-16_08h48.54.598,HF_wild_card,2022.2.4,Linux x86_64,59.98440405,5f4cbdf9f599118d27c21442,64d2fd46c836a06233681665,64dc7f14707d0bc38769627e,,,,,,,decisionTrl,resources/DR.BMP,resources/DP.BMP,Door2,0.279376995,-0.005285949,1,0,0,0.9746,optionRight,20,1510,1,34,0,34,0,1,,,,,,,,,,,,,,,,,,,,,,,,,,,,,,,,,,,,,,,
,,,,,,,5f4cbdf9f599118d27c21442,2023-08-16_08h48.54.598,HF_wild_card,2022.2.4,Linux x86_64,59.98440405,5f4cbdf9f599118d27c21442,64d2fd46c836a06233681665,64dc7f14707d0bc38769627e,,,,,,,decisionTrl,resources/DG.BMP,resources/DY.BMP,Door4,0.390238413,0.00594724,1,0,0,1.0076,optionRight,60,1570,1,35,0,35,0,1,,,,,,,,,,,,,,,,,,,,,,,,,,,,,,,,,,,,,,,
,,,,,,,5f4cbdf9f599118d27c21442,2023-08-16_08h48.54.598,HF_wild_card,2022.2.4,Linux x86_64,59.98440405,5f4cbdf9f599118d27c21442,64d2fd46c836a06233681665,64dc7f14707d0bc38769627e,,,,,,,ctch,resources/DR.BMP,resources/DY.BMP,Door4,0.335753657,0.030814456,1,0,0,1.1046,optionRight,80,1650,1,36,0,36,0,1,,,,,,,,,,,,,,,,,,,,,,,,,,,,,,,,,,,,,,,
,,,,,,,5f4cbdf9f599118d27c21442,2023-08-16_08h48.54.598,HF_wild_card,2022.2.4,Linux x86_64,59.98440405,5f4cbdf9f599118d27c21442,64d2fd46c836a06233681665,64dc7f14707d0bc38769627e,,,,,,,decisionTrl,resources/DP.BMP,resources/DR.BMP,Door1,0.353294626,-0.009311042,1,0,0,1.9144,optionRight,30,1680,1,37,0,37,0,1,,,,,,,,,,,,,,,,,,,,,,,,,,,,,,,,,,,,,,,
,,,,,,,5f4cbdf9f599118d27c21442,2023-08-16_08h48.54.598,HF_wild_card,2022.2.4,Linux x86_64,59.98440405,5f4cbdf9f599118d27c21442,64d2fd46c836a06233681665,64dc7f14707d0bc38769627e,,,,,,,decisionTrl,resources/DG.BMP,resources/DBN.BMP,WildCard_Ex,0.226836052,-0.010751039,1,0,0,1.3623,optionRight,95,1775,1,38,0,38,0,1,,,,,,,,,,,,,,,,,,,,,,,,,,,,,,,,,,,,,,,
,,,,,,,5f4cbdf9f599118d27c21442,2023-08-16_08h48.54.598,HF_wild_card,2022.2.4,Linux x86_64,59.98440405,5f4cbdf9f599118d27c21442,64d2fd46c836a06233681665,64dc7f14707d0bc38769627e,,,,,,,sngl,resources/Empty.png,resources/DR.BMP,Door1,0.195166089,-0.028017949,1,0,0,1.0149,optionRight,30,1805,1,39,0,39,0,1,,,,,,,,,,,,,,,,,,,,,,,,,,,,,,,,,,,,,,,
,,,,,,,5f4cbdf9f599118d27c21442,2023-08-16_08h48.54.598,HF_wild_card,2022.2.4,Linux x86_64,59.98440405,5f4cbdf9f599118d27c21442,64d2fd46c836a06233681665,64dc7f14707d0bc38769627e,,,,,,,decisionTrl,resources/DBN.BMP,resources/DY.BMP,WildCard_Ex,-0.349459691,0.006634623,1,0,0,0.8988,optionLeft,95,1900,1,40,0,40,0,1,,,,,,,,,,,,,,,,,,,,,,,,,,,,,,,,,,,,,,,
,,,,,,,5f4cbdf9f599118d27c21442,2023-08-16_08h48.54.598,HF_wild_card,2022.2.4,Linux x86_64,59.98440405,5f4cbdf9f599118d27c21442,64d2fd46c836a06233681665,64dc7f14707d0bc38769627e,,,,,,,decisionTrl,resources/DG.BMP,resources/DY.BMP,Door4,0.241891728,-0.003426451,1,0,0,1.0797,optionRight,60,1960,1,41,0,41,0,1,,,,,,,,,,,,,,,,,,,,,,,,,,,,,,,,,,,,,,,
,,,,,,,5f4cbdf9f599118d27c21442,2023-08-16_08h48.54.598,HF_wild_card,2022.2.4,Linux x86_64,59.98440405,5f4cbdf9f599118d27c21442,64d2fd46c836a06233681665,64dc7f14707d0bc38769627e,,,,,,,decisionTrl,resources/DG.BMP,resources/DY.BMP,Door4,0.229259387,0.023346639,1,0,0,0.9531,optionRight,60,2020,1,42,0,42,0,1,,,,,,,,,,,,,,,,,,,,,,,,,,,,,,,,,,,,,,,
,,,,,,,5f4cbdf9f599118d27c21442,2023-08-16_08h48.54.598,HF_wild_card,2022.2.4,Linux x86_64,59.98440405,5f4cbdf9f599118d27c21442,64d2fd46c836a06233681665,64dc7f14707d0bc38769627e,,,,,,,decisionTrl,resources/DG.BMP,resources/DY.BMP,Door4,0.226946782,-0.017541661,1,0,0,1.2373,optionRight,60,2080,1,43,0,43,0,1,,,,,,,,,,,,,,,,,,,,,,,,,,,,,,,,,,,,,,,
,,,,,,,5f4cbdf9f599118d27c21442,2023-08-16_08h48.54.598,HF_wild_card,2022.2.4,Linux x86_64,59.98440405,5f4cbdf9f599118d27c21442,64d2fd46c836a06233681665,64dc7f14707d0bc38769627e,,,,,,,,,,,,,,,,,,,,,,,,,,0,0,0,0,1,,,,,,,,,,,,,,,,,,,,,,,,,,,,,,,,,,
,,,,,,,5f4cbdf9f599118d27c21442,2023-08-16_08h48.54.598,HF_wild_card,2022.2.4,Linux x86_64,59.98440405,5f4cbdf9f599118d27c21442,64d2fd46c836a06233681665,64dc7f14707d0bc38769627e,,,,,,,sngl,resources/Empty.png,resources/DY.BMP,Door4,0.369549708,0.005991357,1,0,0,0.7661,optionRight,80,2160,2,0,0,0,0,1,,,,,,,,,,,,,,,,,,,,,,,,,,,,,,,,,,,,,,,
,,,,,,,5f4cbdf9f599118d27c21442,2023-08-16_08h48.54.598,HF_wild_card,2022.2.4,Linux x86_64,59.98440405,5f4cbdf9f599118d27c21442,64d2fd46c836a06233681665,64dc7f14707d0bc38769627e,,,,,,,ctch,resources/DY.BMP,resources/DR.BMP,Door4,-0.203768543,0.028356224,1,0,0,0.8464,optionLeft,60,2220,2,1,0,1,0,1,,,,,,,,,,,,,,,,,,,,,,,,,,,,,,,,,,,,,,,
,,,,,,,5f4cbdf9f599118d27c21442,2023-08-16_08h48.54.598,HF_wild_card,2022.2.4,Linux x86_64,59.98440405,5f4cbdf9f599118d27c21442,64d2fd46c836a06233681665,64dc7f14707d0bc38769627e,,,,,,,ctch,resources/DP.BMP,resources/DG.BMP,Door3,0.423329149,-0.002521573,1,0,0,2.0641,optionRight,70,2290,2,2,0,2,0,1,,,,,,,,,,,,,,,,,,,,,,,,,,,,,,,,,,,,,,,
,,,,,,,5f4cbdf9f599118d27c21442,2023-08-16_08h48.54.598,HF_wild_card,2022.2.4,Linux x86_64,59.98440405,5f4cbdf9f599118d27c21442,64d2fd46c836a06233681665,64dc7f14707d0bc38769627e,,,,,,,decisionTrl,resources/DG.BMP,resources/DY.BMP,Door4,0.20931131,-0.030366189,1,0,0,1.2621,optionRight,60,2350,2,3,0,3,0,1,,,,,,,,,,,,,,,,,,,,,,,,,,,,,,,,,,,,,,,
,,,,,,,5f4cbdf9f599118d27c21442,2023-08-16_08h48.54.598,HF_wild_card,2022.2.4,Linux x86_64,59.98440405,5f4cbdf9f599118d27c21442,64d2fd46c836a06233681665,64dc7f14707d0bc38769627e,,,,,,,sngl,resources/Empty.png,resources/DR.BMP,Door1,0.176173922,0.022467945,1,0,0,0.8768,optionRight,30,2380,2,4,0,4,0,1,,,,,,,,,,,,,,,,,,,,,,,,,,,,,,,,,,,,,,,
,,,,,,,5f4cbdf9f599118d27c21442,2023-08-16_08h48.54.598,HF_wild_card,2022.2.4,Linux x86_64,59.98440405,5f4cbdf9f599118d27c21442,64d2fd46c836a06233681665,64dc7f14707d0bc38769627e,,,,,,,decisionTrl,resources/DP.BMP,resources/DBN.BMP,WildCard_Ex,0.230754564,0.021552417,1,0,0,0.8455,optionRight,5,2385,2,5,0,5,0,1,,,,,,,,,,,,,,,,,,,,,,,,,,,,,,,,,,,,,,,
,,,,,,,5f4cbdf9f599118d27c21442,2023-08-16_08h48.54.598,HF_wild_card,2022.2.4,Linux x86_64,59.98440405,5f4cbdf9f599118d27c21442,64d2fd46c836a06233681665,64dc7f14707d0bc38769627e,,,,,,,decisionTrl,resources/DR.BMP,resources/DP.BMP,Door1,-0.250325183,0.024285584,1,0,0,1.4495,optionLeft,30,2415,2,6,0,6,0,1,,,,,,,,,,,,,,,,,,,,,,,,,,,,,,,,,,,,,,,
,,,,,,,5f4cbdf9f599118d27c21442,2023-08-16_08h48.54.598,HF_wild_card,2022.2.4,Linux x86_64,59.98440405,5f4cbdf9f599118d27c21442,64d2fd46c836a06233681665,64dc7f14707d0bc38769627e,,,,,,,sngl,resources/Empty.png,resources/DP.BMP,Door2,0.36099741,-0.023453819,1,0,0,0.8134,optionRight,40,2455,2,7,0,7,0,1,,,,,,,,,,,,,,,,,,,,,,,,,,,,,,,,,,,,,,,
,,,,,,,5f4cbdf9f599118d27c21442,2023-08-16_08h48.54.598,HF_wild_card,2022.2.4,Linux x86_64,59.98440405,5f4cbdf9f599118d27c21442,64d2fd46c836a06233681665,64dc7f14707d0bc38769627e,,,,,,,sngl,resources/DBN.BMP,resources/Empty.png,WildCard_Ex,-0.231222377,-0.000195829,1,0,0,1.7294,optionLeft,95,2550,2,8,0,8,0,1,,,,,,,,,,,,,,,,,,,,,,,,,,,,,,,,,,,,,,,
,,,,,,,5f4cbdf9f599118d27c21442,2023-08-16_08h48.54.598,HF_wild_card,2022.2.4,Linux x86_64,59.98440405,5f4cbdf9f599118d27c21442,64d2fd46c836a06233681665,64dc7f14707d0bc38769627e,,,,,,,decisionTrl,resources/DY.BMP,resources/DG.BMP,Door4,-0.25682303,-0.026354372,1,0,0,0.9874,optionLeft,60,2610,2,9,0,9,0,1,,,,,,,,,,,,,,,,,,,,,,,,,,,,,,,,,,,,,,,
,,,,,,,5f4cbdf9f599118d27c21442,2023-08-16_08h48.54.598,HF_wild_card,2022.2.4,Linux x86_64,59.98440405,5f4cbdf9f599118d27c21442,64d2fd46c836a06233681665,64dc7f14707d0bc38769627e,,,,,,,decisionTrl,resources/DR.BMP,resources/DBN.BMP,WildCard_Ex,0.458538689,0.021821175,1,0,0,1.0647,optionRight,95,2705,2,10,0,10,0,1,,,,,,,,,,,,,,,,,,,,,,,,,,,,,,,,,,,,,,,
,,,,,,,5f4cbdf9f599118d27c21442,2023-08-16_08h48.54.598,HF_wild_card,2022.2.4,Linux x86_64,59.98440405,5f4cbdf9f599118d27c21442,64d2fd46c836a06233681665,64dc7f14707d0bc38769627e,,,,,,,sngl,resources/DBN.BMP,resources/Empty.png,WildCard_Ex,-0.248099889,0.007512119,1,0,0,0.8628,optionLeft,5,2710,2,11,0,11,0,1,,,,,,,,,,,,,,,,,,,,,,,,,,,,,,,,,,,,,,,
,,,,,,,5f4cbdf9f599118d27c21442,2023-08-16_08h48.54.598,HF_wild_card,2022.2.4,Linux x86_64,59.98440405,5f4cbdf9f599118d27c21442,64d2fd46c836a06233681665,64dc7f14707d0bc38769627e,,,,,,,decisionTrl,resources/DBN.BMP,resources/DG.BMP,WildCard_Ex,-0.147465547,0.008449359,1,0,0,1.4141,optionLeft,5,2715,2,12,0,12,0,1,,,,,,,,,,,,,,,,,,,,,,,,,,,,,,,,,,,,,,,
,,,,,,,5f4cbdf9f599118d27c21442,2023-08-16_08h48.54.598,HF_wild_card,2022.2.4,Linux x86_64,59.98440405,5f4cbdf9f599118d27c21442,64d2fd46c836a06233681665,64dc7f14707d0bc38769627e,,,,,,,decisionTrl,resources/DY.BMP,resources/DG.BMP,Door3,0.211753546,0.010983286,1,0,0,1.1803,optionRight,70,2785,2,13,0,13,0,1,,,,,,,,,,,,,,,,,,,,,,,,,,,,,,,,,,,,,,,
,,,,,,,5f4cbdf9f599118d27c21442,2023-08-16_08h48.54.598,HF_wild_card,2022.2.4,Linux x86_64,59.98440405,5f4cbdf9f599118d27c21442,64d2fd46c836a06233681665,64dc7f14707d0bc38769627e,,,,,,,decisionTrl,resources/DR.BMP,resources/DP.BMP,Door1,-0.196436856,0.004054228,1,0,0,1.1312,optionLeft,30,2815,2,14,0,14,0,1,,,,,,,,,,,,,,,,,,,,,,,,,,,,,,,,,,,,,,,
,,,,,,,5f4cbdf9f599118d27c21442,2023-08-16_08h48.54.598,HF_wild_card,2022.2.4,Linux x86_64,59.98440405,5f4cbdf9f599118d27c21442,64d2fd46c836a06233681665,64dc7f14707d0bc38769627e,,,,,,,decisionTrl,resources/DR.BMP,resources/DP.BMP,Door2,0.485697674,-0.007957159,1,0,0,1.1141,optionRight,20,2835,2,15,0,15,0,1,,,,,,,,,,,,,,,,,,,,,,,,,,,,,,,,,,,,,,,
,,,,,,,5f4cbdf9f599118d27c21442,2023-08-16_08h48.54.598,HF_wild_card,2022.2.4,Linux x86_64,59.98440405,5f4cbdf9f599118d27c21442,64d2fd46c836a06233681665,64dc7f14707d0bc38769627e,,,,,,,decisionTrl,resources/DP.BMP,resources/DR.BMP,Door1,0.289470477,-0.015670638,1,0,0,1.1296,optionRight,30,2865,2,16,0,16,0,1,,,,,,,,,,,,,,,,,,,,,,,,,,,,,,,,,,,,,,,
,,,,,,,5f4cbdf9f599118d27c21442,2023-08-16_08h48.54.598,HF_wild_card,2022.2.4,Linux x86_64,59.98440405,5f4cbdf9f599118d27c21442,64d2fd46c836a06233681665,64dc7f14707d0bc38769627e,,,,,,,ctch,resources/DP.BMP,resources/DG.BMP,Door3,0.284712132,-0.008152942,1,0,0,1.6295,optionRight,70,2935,2,17,0,17,0,1,,,,,,,,,,,,,,,,,,,,,,,,,,,,,,,,,,,,,,,
,,,,,,,5f4cbdf9f599118d27c21442,2023-08-16_08h48.54.598,HF_wild_card,2022.2.4,Linux x86_64,59.98440405,5f4cbdf9f599118d27c21442,64d2fd46c836a06233681665,64dc7f14707d0bc38769627e,,,,,,,decisionTrl,resources/DBN.BMP,resources/DY.BMP,WildCard_Ex,-0.331226453,0.017938205,1,0,0,2.1469,optionLeft,5,2940,2,18,0,18,0,1,,,,,,,,,,,,,,,,,,,,,,,,,,,,,,,,,,,,,,,
,,,,,,,5f4cbdf9f599118d27c21442,2023-08-16_08h48.54.598,HF_wild_card,2022.2.4,Linux x86_64,59.98440405,5f4cbdf9f599118d27c21442,64d2fd46c836a06233681665,64dc7f14707d0bc38769627e,,,,,,,ctch,resources/DR.BMP,resources/DY.BMP,Door4,0.431451988,-0.061993325,1,0,0,1.0448,optionRight,60,3000,2,19,0,19,0,1,,,,,,,,,,,,,,,,,,,,,,,,,,,,,,,,,,,,,,,
,,,,,,,5f4cbdf9f599118d27c21442,2023-08-16_08h48.54.598,HF_wild_card,2022.2.4,Linux x86_64,59.98440405,5f4cbdf9f599118d27c21442,64d2fd46c836a06233681665,64dc7f14707d0bc38769627e,,,,,,,sngl,resources/Empty.png,resources/DG.BMP,Door3,0.374766739,-0.0434769,1,0,0,1.2332,optionRight,70,3070,2,20,0,20,0,1,,,,,,,,,,,,,,,,,,,,,,,,,,,,,,,,,,,,,,,
,,,,,,,5f4cbdf9f599118d27c21442,2023-08-16_08h48.54.598,HF_wild_card,2022.2.4,Linux x86_64,59.98440405,5f4cbdf9f599118d27c21442,64d2fd46c836a06233681665,64dc7f14707d0bc38769627e,,,,,,,decisionTrl,resources/DG.BMP,resources/DY.BMP,Door4,0.232769646,0.027071858,1,0,0,1.581,optionRight,80,3150,2,21,0,21,0,1,,,,,,,,,,,,,,,,,,,,,,,,,,,,,,,,,,,,,,,
,,,,,,,5f4cbdf9f599118d27c21442,2023-08-16_08h48.54.598,HF_wild_card,2022.2.4,Linux x86_64,59.98440405,5f4cbdf9f599118d27c21442,64d2fd46c836a06233681665,64dc7f14707d0bc38769627e,,,,,,,ctch,resources/DG.BMP,resources/DP.BMP,Door3,-0.353434214,0.023046718,1,0,0,1.4114,optionLeft,70,3220,2,22,0,22,0,1,,,,,,,,,,,,,,,,,,,,,,,,,,,,,,,,,,,,,,,
,,,,,,,5f4cbdf9f599118d27c21442,2023-08-16_08h48.54.598,HF_wild_card,2022.2.4,Linux x86_64,59.98440405,5f4cbdf9f599118d27c21442,64d2fd46c836a06233681665,64dc7f14707d0bc38769627e,,,,,,,decisionTrl,resources/DG.BMP,resources/DBN.BMP,WildCard_Ex,0.42757478,-0.010977201,1,0,0,1.0296,optionRight,95,3315,2,23,0,23,0,1,,,,,,,,,,,,,,,,,,,,,,,,,,,,,,,,,,,,,,,
,,,,,,,5f4cbdf9f599118d27c21442,2023-08-16_08h48.54.598,HF_wild_card,2022.2.4,Linux x86_64,59.98440405,5f4cbdf9f599118d27c21442,64d2fd46c836a06233681665,64dc7f14707d0bc38769627e,,,,,,,decisionTrl,resources/DG.BMP,resources/DY.BMP,Door4,0.276733675,0.03926635,1,0,0,0.9462,optionRight,60,3375,2,24,0,24,0,1,,,,,,,,,,,,,,,,,,,,,,,,,,,,,,,,,,,,,,,
,,,,,,,5f4cbdf9f599118d27c21442,2023-08-16_08h48.54.598,HF_wild_card,2022.2.4,Linux x86_64,59.98440405,5f4cbdf9f599118d27c21442,64d2fd46c836a06233681665,64dc7f14707d0bc38769627e,,,,,,,decisionTrl,resources/DY.BMP,resources/DG.BMP,Door4,-0.249535967,0.010538245,1,0,0,1.5466,optionLeft,60,3435,2,25,0,25,0,1,,,,,,,,,,,,,,,,,,,,,,,,,,,,,,,,,,,,,,,
,,,,,,,5f4cbdf9f599118d27c21442,2023-08-16_08h48.54.598,HF_wild_card,2022.2.4,Linux x86_64,59.98440405,5f4cbdf9f599118d27c21442,64d2fd46c836a06233681665,64dc7f14707d0bc38769627e,,,,,,,decisionTrl,resources/DY.BMP,resources/DBN.BMP,WildCard_Ex,0.268976033,-0.00263138,1,0,0,1.3639,optionRight,95,3530,2,26,0,26,0,1,,,,,,,,,,,,,,,,,,,,,,,,,,,,,,,,,,,,,,,
,,,,,,,5f4cbdf9f599118d27c21442,2023-08-16_08h48.54.598,HF_wild_card,2022.2.4,Linux x86_64,59.98440405,5f4cbdf9f599118d27c21442,64d2fd46c836a06233681665,64dc7f14707d0bc38769627e,,,,,,,ctch,resources/DR.BMP,resources/DY.BMP,Door4,0.238573702,-0.040213501,1,0,0,1.29,optionRight,80,3610,2,27,0,27,0,1,,,,,,,,,,,,,,,,,,,,,,,,,,,,,,,,,,,,,,,
,,,,,,,5f4cbdf9f599118d27c21442,2023-08-16_08h48.54.598,HF_wild_card,2022.2.4,Linux x86_64,59.98440405,5f4cbdf9f599118d27c21442,64d2fd46c836a06233681665,64dc7f14707d0bc38769627e,,,,,,,sngl,resources/DP.BMP,resources/Empty.png,Door2,-0.40720319,-0.011975245,1,0,0,0.8975,optionLeft,20,3630,2,28,0,28,0,1,,,,,,,,,,,,,,,,,,,,,,,,,,,,,,,,,,,,,,,
,,,,,,,5f4cbdf9f599118d27c21442,2023-08-16_08h48.54.598,HF_wild_card,2022.2.4,Linux x86_64,59.98440405,5f4cbdf9f599118d27c21442,64d2fd46c836a06233681665,64dc7f14707d0bc38769627e,,,,,,,decisionTrl,resources/DBN.BMP,resources/DR.BMP,WildCard_Ex,-0.289683593,0.067843204,1,0,0,1.2712,optionLeft,5,3635,2,29,0,29,0,1,,,,,,,,,,,,,,,,,,,,,,,,,,,,,,,,,,,,,,,
,,,,,,,5f4cbdf9f599118d27c21442,2023-08-16_08h48.54.598,HF_wild_card,2022.2.4,Linux x86_64,59.98440405,5f4cbdf9f599118d27c21442,64d2fd46c836a06233681665,64dc7f14707d0bc38769627e,,,,,,,decisionTrl,resources/DBN.BMP,resources/DP.BMP,Door2,0.384561959,0.030735627,1,0,0,2.538,optionRight,20,3655,2,30,0,30,0,1,,,,,,,,,,,,,,,,,,,,,,,,,,,,,,,,,,,,,,,
,,,,,,,5f4cbdf9f599118d27c21442,2023-08-16_08h48.54.598,HF_wild_card,2022.2.4,Linux x86_64,59.98440405,5f4cbdf9f599118d27c21442,64d2fd46c836a06233681665,64dc7f14707d0bc38769627e,,,,,,,decisionTrl,resources/DP.BMP,resources/DR.BMP,Door2,-0.1742373,0.032784868,1,0,0,2.0964,optionLeft,20,3675,2,31,0,31,0,1,,,,,,,,,,,,,,,,,,,,,,,,,,,,,,,,,,,,,,,
,,,,,,,5f4cbdf9f599118d27c21442,2023-08-16_08h48.54.598,HF_wild_card,2022.2.4,Linux x86_64,59.98440405,5f4cbdf9f599118d27c21442,64d2fd46c836a06233681665,64dc7f14707d0bc38769627e,,,,,,,sngl,resources/DR.BMP,resources/Empty.png,Door1,-0.29853157,-0.052878296,1,0,0,2.3452,optionLeft,30,3705,2,32,0,32,0,1,,,,,,,,,,,,,,,,,,,,,,,,,,,,,,,,,,,,,,,
,,,,,,,5f4cbdf9f599118d27c21442,2023-08-16_08h48.54.598,HF_wild_card,2022.2.4,Linux x86_64,59.98440405,5f4cbdf9f599118d27c21442,64d2fd46c836a06233681665,64dc7f14707d0bc38769627e,,,,,,,sngl,resources/DG.BMP,resources/Empty.png,Door3,-0.359362,-0.032839542,1,0,0,0.8141,optionLeft,70,3775,2,33,0,33,0,1,,,,,,,,,,,,,,,,,,,,,,,,,,,,,,,,,,,,,,,
,,,,,,,5f4cbdf9f599118d27c21442,2023-08-16_08h48.54.598,HF_wild_card,2022.2.4,Linux x86_64,59.98440405,5f4cbdf9f599118d27c21442,64d2fd46c836a06233681665,64dc7f14707d0bc38769627e,,,,,,,decisionTrl,resources/DY.BMP,resources/DG.BMP,Door4,-0.252646178,0.018888906,1,0,0,1.0639,optionLeft,80,3855,2,34,0,34,0,1,,,,,,,,,,,,,,,,,,,,,,,,,,,,,,,,,,,,,,,
,,,,,,,5f4cbdf9f599118d27c21442,2023-08-16_08h48.54.598,HF_wild_card,2022.2.4,Linux x86_64,59.98440405,5f4cbdf9f599118d27c21442,64d2fd46c836a06233681665,64dc7f14707d0bc38769627e,,,,,,,ctch,resources/DG.BMP,resources/DP.BMP,Door3,-0.141249642,0.004302932,1,0,0,1.7639,optionLeft,70,3925,2,35,0,35,0,1,,,,,,,,,,,,,,,,,,,,,,,,,,,,,,,,,,,,,,,
,,,,,,,5f4cbdf9f599118d27c21442,2023-08-16_08h48.54.598,HF_wild_card,2022.2.4,Linux x86_64,59.98440405,5f4cbdf9f599118d27c21442,64d2fd46c836a06233681665,64dc7f14707d0bc38769627e,,,,,,,decisionTrl,resources/DP.BMP,resources/DR.BMP,Door1,0.314827542,0.008303824,1,0,0,1.0948,optionRight,30,3955,2,36,0,36,0,1,,,,,,,,,,,,,,,,,,,,,,,,,,,,,,,,,,,,,,,
,,,,,,,5f4cbdf9f599118d27c21442,2023-08-16_08h48.54.598,HF_wild_card,2022.2.4,Linux x86_64,59.98440405,5f4cbdf9f599118d27c21442,64d2fd46c836a06233681665,64dc7f14707d0bc38769627e,,,,,,,decisionTrl,resources/DP.BMP,resources/DR.BMP,Door1,0.223137985,-0.004080689,1,0,0,1.3144,optionRight,30,3985,2,37,0,37,0,1,,,,,,,,,,,,,,,,,,,,,,,,,,,,,,,,,,,,,,,
,,,,,,,5f4cbdf9f599118d27c21442,2023-08-16_08h48.54.598,HF_wild_card,2022.2.4,Linux x86_64,59.98440405,5f4cbdf9f599118d27c21442,64d2fd46c836a06233681665,64dc7f14707d0bc38769627e,,,,,,,sngl,resources/Empty.png,resources/DBN.BMP,WildCard_Ex,0.285005875,0.016666931,1,0,0,0.8798,optionRight,95,4080,2,38,0,38,0,1,,,,,,,,,,,,,,,,,,,,,,,,,,,,,,,,,,,,,,,
,,,,,,,5f4cbdf9f599118d27c21442,2023-08-16_08h48.54.598,HF_wild_card,2022.2.4,Linux x86_64,59.98440405,5f4cbdf9f599118d27c21442,64d2fd46c836a06233681665,64dc7f14707d0bc38769627e,,,,,,,decisionTrl,resources/DG.BMP,resources/DY.BMP,Door4,0.289666213,0.025988115,1,0,0,0.9807,optionRight,80,4160,2,39,0,39,0,1,,,,,,,,,,,,,,,,,,,,,,,,,,,,,,,,,,,,,,,
,,,,,,,5f4cbdf9f599118d27c21442,2023-08-16_08h48.54.598,HF_wild_card,2022.2.4,Linux x86_64,59.98440405,5f4cbdf9f599118d27c21442,64d2fd46c836a06233681665,64dc7f14707d0bc38769627e,,,,,,,sngl,resources/DY.BMP,resources/Empty.png,Door4,-0.352725395,0.002217457,1,0,0,0.8799,optionLeft,60,4220,2,40,0,40,0,1,,,,,,,,,,,,,,,,,,,,,,,,,,,,,,,,,,,,,,,
,,,,,,,5f4cbdf9f599118d27c21442,2023-08-16_08h48.54.598,HF_wild_card,2022.2.4,Linux x86_64,59.98440405,5f4cbdf9f599118d27c21442,64d2fd46c836a06233681665,64dc7f14707d0bc38769627e,,,,,,,ctch,resources/DY.BMP,resources/DR.BMP,Door4,-0.163443297,0.002441545,1,0,0,1.0645,optionLeft,60,4280,2,41,0,41,0,1,,,,,,,,,,,,,,,,,,,,,,,,,,,,,,,,,,,,,,,
,,,,,,,5f4cbdf9f599118d27c21442,2023-08-16_08h48.54.598,HF_wild_card,2022.2.4,Linux x86_64,59.98440405,5f4cbdf9f599118d27c21442,64d2fd46c836a06233681665,64dc7f14707d0bc38769627e,,,,,,,decisionTrl,resources/DR.BMP,resources/DP.BMP,Door1,-0.194027627,0.03166715,1,0,0,1.4647,optionLeft,30,4310,2,42,0,42,0,1,,,,,,,,,,,,,,,,,,,,,,,,,,,,,,,,,,,,,,,
,,,,,,,5f4cbdf9f599118d27c21442,2023-08-16_08h48.54.598,HF_wild_card,2022.2.4,Linux x86_64,59.98440405,5f4cbdf9f599118d27c21442,64d2fd46c836a06233681665,64dc7f14707d0bc38769627e,,,,,,,sngl,resources/Empty.png,resources/DBN.BMP,WildCard_Ex,0.407235321,-0.011495308,1,0,0,1.0377,optionRight,5,4315,2,43,0,43,0,1,,,,,,,,,,,,,,,,,,,,,,,,,,,,,,,,,,,,,,,
,,,,,,,5f4cbdf9f599118d27c21442,2023-08-16_08h48.54.598,HF_wild_card,2022.2.4,Linux x86_64,59.98440405,5f4cbdf9f599118d27c21442,64d2fd46c836a06233681665,64dc7f14707d0bc38769627e,,,,,,,,,,,,,,,,,,,,,,,,,,1,0,1,0,1,,,,,,,,,,,,,,,,,,,,,,,,,,,,,,,,,,
,,,,,,,5f4cbdf9f599118d27c21442,2023-08-16_08h48.54.598,HF_wild_card,2022.2.4,Linux x86_64,59.98440405,5f4cbdf9f599118d27c21442,64d2fd46c836a06233681665,64dc7f14707d0bc38769627e,,,,,,,sngl,resources/Empty.png,resources/DBN.BMP,WildCard_Ex,0.368303097,-0.064699202,1,0,0,0.8173,optionRight,5,4320,3,0,0,0,0,1,,,,,,,,,,,,,,,,,,,,,,,,,,,,,,,,,,,,,,,
,,,,,,,5f4cbdf9f599118d27c21442,2023-08-16_08h48.54.598,HF_wild_card,2022.2.4,Linux x86_64,59.98440405,5f4cbdf9f599118d27c21442,64d2fd46c836a06233681665,64dc7f14707d0bc38769627e,,,,,,,ctch,resources/DR.BMP,resources/DY.BMP,Door4,0.198387953,0.011677123,1,0,0,1.0135,optionRight,80,4400,3,1,0,1,0,1,,,,,,,,,,,,,,,,,,,,,,,,,,,,,,,,,,,,,,,
,,,,,,,5f4cbdf9f599118d27c21442,2023-08-16_08h48.54.598,HF_wild_card,2022.2.4,Linux x86_64,59.98440405,5f4cbdf9f599118d27c21442,64d2fd46c836a06233681665,64dc7f14707d0bc38769627e,,,,,,,decisionTrl,resources/DR.BMP,resources/DP.BMP,Door1,-0.232832525,0.000430611,1,0,0,3.2222,optionLeft,30,4430,3,2,0,2,0,1,,,,,,,,,,,,,,,,,,,,,,,,,,,,,,,,,,,,,,,
,,,,,,,5f4cbdf9f599118d27c21442,2023-08-16_08h48.54.598,HF_wild_card,2022.2.4,Linux x86_64,59.98440405,5f4cbdf9f599118d27c21442,64d2fd46c836a06233681665,64dc7f14707d0bc38769627e,,,,,,,sngl,resources/DY.BMP,resources/Empty.png,Door4,-0.108741691,-0.00170963,1,0,0,0.9798,optionLeft,80,4510,3,3,0,3,0,1,,,,,,,,,,,,,,,,,,,,,,,,,,,,,,,,,,,,,,,
,,,,,,,5f4cbdf9f599118d27c21442,2023-08-16_08h48.54.598,HF_wild_card,2022.2.4,Linux x86_64,59.98440405,5f4cbdf9f599118d27c21442,64d2fd46c836a06233681665,64dc7f14707d0bc38769627e,,,,,,,decisionTrl,resources/DG.BMP,resources/DBN.BMP,WildCard_Ex,0.326010805,0.038731878,1,0,0,0.9141,optionRight,5,4515,3,4,0,4,0,1,,,,,,,,,,,,,,,,,,,,,,,,,,,,,,,,,,,,,,,
,,,,,,,5f4cbdf9f599118d27c21442,2023-08-16_08h48.54.598,HF_wild_card,2022.2.4,Linux x86_64,59.98440405,5f4cbdf9f599118d27c21442,64d2fd46c836a06233681665,64dc7f14707d0bc38769627e,,,,,,,decisionTrl,resources/DR.BMP,resources/DP.BMP,Door1,-0.285604333,-0.007540101,1,0,0,1.064,optionLeft,30,4545,3,5,0,5,0,1,,,,,,,,,,,,,,,,,,,,,,,,,,,,,,,,,,,,,,,
,,,,,,,5f4cbdf9f599118d27c21442,2023-08-16_08h48.54.598,HF_wild_card,2022.2.4,Linux x86_64,59.98440405,5f4cbdf9f599118d27c21442,64d2fd46c836a06233681665,64dc7f14707d0bc38769627e,,,,,,,decisionTrl,resources/DG.BMP,resources/DY.BMP,Door4,0.468927758,0.041159224,1,0,0,1.1803,optionRight,60,4605,3,6,0,6,0,1,,,,,,,,,,,,,,,,,,,,,,,,,,,,,,,,,,,,,,,
,,,,,,,5f4cbdf9f599118d27c21442,2023-08-16_08h48.54.598,HF_wild_card,2022.2.4,Linux x86_64,59.98440405,5f4cbdf9f599118d27c21442,64d2fd46c836a06233681665,64dc7f14707d0bc38769627e,,,,,,,decisionTrl,resources/DP.BMP,resources/DBN.BMP,WildCard_Ex,0.291463984,0.015701755,1,0,0,0.8621,optionRight,5,4610,3,7,0,7,0,1,,,,,,,,,,,,,,,,,,,,,,,,,,,,,,,,,,,,,,,
,,,,,,,5f4cbdf9f599118d27c21442,2023-08-16_08h48.54.598,HF_wild_card,2022.2.4,Linux x86_64,59.98440405,5f4cbdf9f599118d27c21442,64d2fd46c836a06233681665,64dc7f14707d0bc38769627e,,,,,,,ctch,resources/DP.BMP,resources/DG.BMP,Door3,0.387766028,-0.006392879,1,0,0,2.7974,optionRight,70,4680,3,8,0,8,0,1,,,,,,,,,,,,,,,,,,,,,,,,,,,,,,,,,,,,,,,
,,,,,,,5f4cbdf9f599118d27c21442,2023-08-16_08h48.54.598,HF_wild_card,2022.2.4,Linux x86_64,59.98440405,5f4cbdf9f599118d27c21442,64d2fd46c836a06233681665,64dc7f14707d0bc38769627e,,,,,,,sngl,resources/DR.BMP,resources/Empty.png,Door1,-0.230735018,0.007715922,1,0,0,1.0971,optionLeft,30,4710,3,9,0,9,0,1,,,,,,,,,,,,,,,,,,,,,,,,,,,,,,,,,,,,,,,
,,,,,,,5f4cbdf9f599118d27c21442,2023-08-16_08h48.54.598,HF_wild_card,2022.2.4,Linux x86_64,59.98440405,5f4cbdf9f599118d27c21442,64d2fd46c836a06233681665,64dc7f14707d0bc38769627e,,,,,,,sngl,resources/Empty.png,resources/DR.BMP,Door1,0.328093192,0.030252601,1,0,0,0.7793,optionRight,30,4740,3,10,0,10,0,1,,,,,,,,,,,,,,,,,,,,,,,,,,,,,,,,,,,,,,,
,,,,,,,5f4cbdf9f599118d27c21442,2023-08-16_08h48.54.598,HF_wild_card,2022.2.4,Linux x86_64,59.98440405,5f4cbdf9f599118d27c21442,64d2fd46c836a06233681665,64dc7f14707d0bc38769627e,,,,,,,decisionTrl,resources/DP.BMP,resources/DR.BMP,Door2,-0.246888221,0.00854294,1,0,0,2.863,optionLeft,40,4780,3,11,0,11,0,1,,,,,,,,,,,,,,,,,,,,,,,,,,,,,,,,,,,,,,,
,,,,,,,5f4cbdf9f599118d27c21442,2023-08-16_08h48.54.598,HF_wild_card,2022.2.4,Linux x86_64,59.98440405,5f4cbdf9f599118d27c21442,64d2fd46c836a06233681665,64dc7f14707d0bc38769627e,,,,,,,decisionTrl,resources/DBN.BMP,resources/DY.BMP,WildCard_Ex,-0.19021588,0.01078234,1,0,0,1.1637,optionLeft,5,4785,3,12,0,12,0,1,,,,,,,,,,,,,,,,,,,,,,,,,,,,,,,,,,,,,,,
,,,,,,,5f4cbdf9f599118d27c21442,2023-08-16_08h48.54.598,HF_wild_card,2022.2.4,Linux x86_64,59.98440405,5f4cbdf9f599118d27c21442,64d2fd46c836a06233681665,64dc7f14707d0bc38769627e,,,,,,,ctch,resources/DY.BMP,resources/DR.BMP,Door4,-0.294571246,0.014723763,1,0,0,1.68,optionLeft,60,4845,3,13,0,13,0,1,,,,,,,,,,,,,,,,,,,,,,,,,,,,,,,,,,,,,,,
,,,,,,,5f4cbdf9f599118d27c21442,2023-08-16_08h48.54.598,HF_wild_card,2022.2.4,Linux x86_64,59.98440405,5f4cbdf9f599118d27c21442,64d2fd46c836a06233681665,64dc7f14707d0bc38769627e,,,,,,,sngl,resources/Empty.png,resources/DY.BMP,Door4,0.340450045,0.019277843,1,0,0,0.9646,optionRight,60,4905,3,14,0,14,0,1,,,,,,,,,,,,,,,,,,,,,,,,,,,,,,,,,,,,,,,
,,,,,,,5f4cbdf9f599118d27c21442,2023-08-16_08h48.54.598,HF_wild_card,2022.2.4,Linux x86_64,59.98440405,5f4cbdf9f599118d27c21442,64d2fd46c836a06233681665,64dc7f14707d0bc38769627e,,,,,,,ctch,resources/DR.BMP,resources/DY.BMP,Door1,-0.249923383,0.004570906,1,0,0,0.9964,optionLeft,30,4935,3,15,0,15,0,1,,,,,,,,,,,,,,,,,,,,,,,,,,,,,,,,,,,,,,,
,,,,,,,5f4cbdf9f599118d27c21442,2023-08-16_08h48.54.598,HF_wild_card,2022.2.4,Linux x86_64,59.98440405,5f4cbdf9f599118d27c21442,64d2fd46c836a06233681665,64dc7f14707d0bc38769627e,,,,,,,ctch,resources/DG.BMP,resources/DP.BMP,Door2,0.22106952,-0.012168539,1,0,0,1.6796,optionRight,40,4975,3,16,0,16,0,1,,,,,,,,,,,,,,,,,,,,,,,,,,,,,,,,,,,,,,,
,,,,,,,5f4cbdf9f599118d27c21442,2023-08-16_08h48.54.598,HF_wild_card,2022.2.4,Linux x86_64,59.98440405,5f4cbdf9f599118d27c21442,64d2fd46c836a06233681665,64dc7f14707d0bc38769627e,,,,,,,decisionTrl,resources/DR.BMP,resources/DBN.BMP,WildCard_Ex,0.311473743,0.023046764,1,0,0,2.7991,optionRight,95,5070,3,17,0,17,0,1,,,,,,,,,,,,,,,,,,,,,,,,,,,,,,,,,,,,,,,
,,,,,,,5f4cbdf9f599118d27c21442,2023-08-16_08h48.54.598,HF_wild_card,2022.2.4,Linux x86_64,59.98440405,5f4cbdf9f599118d27c21442,64d2fd46c836a06233681665,64dc7f14707d0bc38769627e,,,,,,,decisionTrl,resources/DP.BMP,resources/DR.BMP,Door1,0.150280448,-0.039945942,1,0,0,1.2476,optionRight,30,5100,3,18,0,18,0,1,,,,,,,,,,,,,,,,,,,,,,,,,,,,,,,,,,,,,,,
,,,,,,,5f4cbdf9f599118d27c21442,2023-08-16_08h48.54.598,HF_wild_card,2022.2.4,Linux x86_64,59.98440405,5f4cbdf9f599118d27c21442,64d2fd46c836a06233681665,64dc7f14707d0bc38769627e,,,,,,,decisionTrl,resources/DG.BMP,resources/DY.BMP,Door4,0.2751853,-0.014536325,1,0,0,1.4641,optionRight,60,5160,3,19,0,19,0,1,,,,,,,,,,,,,,,,,,,,,,,,,,,,,,,,,,,,,,,
,,,,,,,5f4cbdf9f599118d27c21442,2023-08-16_08h48.54.598,HF_wild_card,2022.2.4,Linux x86_64,59.98440405,5f4cbdf9f599118d27c21442,64d2fd46c836a06233681665,64dc7f14707d0bc38769627e,,,,,,,sngl,resources/DG.BMP,resources/Empty.png,Door3,-0.399598044,-0.028102264,1,0,0,0.9302,optionLeft,70,5230,3,20,0,20,0,1,,,,,,,,,,,,,,,,,,,,,,,,,,,,,,,,,,,,,,,
,,,,,,,5f4cbdf9f599118d27c21442,2023-08-16_08h48.54.598,HF_wild_card,2022.2.4,Linux x86_64,59.98440405,5f4cbdf9f599118d27c21442,64d2fd46c836a06233681665,64dc7f14707d0bc38769627e,,,,,,,decisionTrl,resources/DY.BMP,resources/DG.BMP,Door4,-0.113545582,0.005551848,1,0,0,1.1612,optionLeft,80,5310,3,21,0,21,0,1,,,,,,,,,,,,,,,,,,,,,,,,,,,,,,,,,,,,,,,
,,,,,,,5f4cbdf9f599118d27c21442,2023-08-16_08h48.54.598,HF_wild_card,2022.2.4,Linux x86_64,59.98440405,5f4cbdf9f599118d27c21442,64d2fd46c836a06233681665,64dc7f14707d0bc38769627e,,,,,,,decisionTrl,resources/DBN.BMP,resources/DP.BMP,WildCard_Ex,-0.243881456,0.001170225,1,0,0,1.0795,optionLeft,95,5405,3,22,0,22,0,1,,,,,,,,,,,,,,,,,,,,,,,,,,,,,,,,,,,,,,,
,,,,,,,5f4cbdf9f599118d27c21442,2023-08-16_08h48.54.598,HF_wild_card,2022.2.4,Linux x86_64,59.98440405,5f4cbdf9f599118d27c21442,64d2fd46c836a06233681665,64dc7f14707d0bc38769627e,,,,,,,decisionTrl,resources/DBN.BMP,resources/DR.BMP,WildCard_Ex,-0.387587302,0.025176172,1,0,0,1.8647,optionLeft,5,5410,3,23,0,23,0,1,,,,,,,,,,,,,,,,,,,,,,,,,,,,,,,,,,,,,,,
,,,,,,,5f4cbdf9f599118d27c21442,2023-08-16_08h48.54.598,HF_wild_card,2022.2.4,Linux x86_64,59.98440405,5f4cbdf9f599118d27c21442,64d2fd46c836a06233681665,64dc7f14707d0bc38769627e,,,,,,,decisionTrl,resources/DG.BMP,resources/DY.BMP,Door4,0.266975149,-0.007876117,1,0,0,0.9294,optionRight,60,5470,3,24,0,24,0,1,,,,,,,,,,,,,,,,,,,,,,,,,,,,,,,,,,,,,,,
,,,,,,,5f4cbdf9f599118d27c21442,2023-08-16_08h48.54.598,HF_wild_card,2022.2.4,Linux x86_64,59.98440405,5f4cbdf9f599118d27c21442,64d2fd46c836a06233681665,64dc7f14707d0bc38769627e,,,,,,,decisionTrl,resources/DY.BMP,resources/DG.BMP,Door4,-0.225476591,0.00207266,1,0,0,1.131,optionLeft,80,5550,3,25,0,25,0,1,,,,,,,,,,,,,,,,,,,,,,,,,,,,,,,,,,,,,,,
,,,,,,,5f4cbdf9f599118d27c21442,2023-08-16_08h48.54.598,HF_wild_card,2022.2.4,Linux x86_64,59.98440405,5f4cbdf9f599118d27c21442,64d2fd46c836a06233681665,64dc7f14707d0bc38769627e,,,,,,,ctch,resources/DG.BMP,resources/DP.BMP,Door2,0.256163905,0.007764188,1,0,0,3.5818,optionRight,20,5570,3,26,0,26,0,1,,,,,,,,,,,,,,,,,,,,,,,,,,,,,,,,,,,,,,,
,,,,,,,5f4cbdf9f599118d27c21442,2023-08-16_08h48.54.598,HF_wild_card,2022.2.4,Linux x86_64,59.98440405,5f4cbdf9f599118d27c21442,64d2fd46c836a06233681665,64dc7f14707d0bc38769627e,,,,,,,decisionTrl,resources/DBN.BMP,resources/DG.BMP,WildCard_Ex,-0.250651933,0.020721712,1,0,0,1.0476,optionLeft,5,5575,3,27,0,27,0,1,,,,,,,,,,,,,,,,,,,,,,,,,,,,,,,,,,,,,,,
,,,,,,,5f4cbdf9f599118d27c21442,2023-08-16_08h48.54.598,HF_wild_card,2022.2.4,Linux x86_64,59.98440405,5f4cbdf9f599118d27c21442,64d2fd46c836a06233681665,64dc7f14707d0bc38769627e,,,,,,,sngl,resources/DP.BMP,resources/Empty.png,Door2,-0.293508524,0.010624773,1,0,0,0.9298,optionLeft,40,5615,3,28,0,28,0,1,,,,,,,,,,,,,,,,,,,,,,,,,,,,,,,,,,,,,,,
,,,,,,,5f4cbdf9f599118d27c21442,2023-08-16_08h48.54.598,HF_wild_card,2022.2.4,Linux x86_64,59.98440405,5f4cbdf9f599118d27c21442,64d2fd46c836a06233681665,64dc7f14707d0bc38769627e,,,,,,,ctch,resources/DY.BMP,resources/DR.BMP,Door4,-0.21935316,0.013398,1,0,0,1.0786,optionLeft,80,5695,3,29,0,29,0,1,,,,,,,,,,,,,,,,,,,,,,,,,,,,,,,,,,,,,,,
,,,,,,,5f4cbdf9f599118d27c21442,2023-08-16_08h48.54.598,HF_wild_card,2022.2.4,Linux x86_64,59.98440405,5f4cbdf9f599118d27c21442,64d2fd46c836a06233681665,64dc7f14707d0bc38769627e,,,,,,,decisionTrl,resources/DY.BMP,resources/DG.BMP,Door4,-0.229771732,-0.016546751,1,0,0,1.1297,optionLeft,80,5775,3,30,0,30,0,1,,,,,,,,,,,,,,,,,,,,,,,,,,,,,,,,,,,,,,,
,,,,,,,5f4cbdf9f599118d27c21442,2023-08-16_08h48.54.598,HF_wild_card,2022.2.4,Linux x86_64,59.98440405,5f4cbdf9f599118d27c21442,64d2fd46c836a06233681665,64dc7f14707d0bc38769627e,,,,,,,decisionTrl,resources/DP.BMP,resources/DR.BMP,Door1,0.338537395,-0.038699286,1,0,0,1.3302,optionRight,30,5805,3,31,0,31,0,1,,,,,,,,,,,,,,,,,,,,,,,,,,,,,,,,,,,,,,,
,,,,,,,5f4cbdf9f599118d27c21442,2023-08-16_08h48.54.598,HF_wild_card,2022.2.4,Linux x86_64,59.98440405,5f4cbdf9f599118d27c21442,64d2fd46c836a06233681665,64dc7f14707d0bc38769627e,,,,,,,sngl,resources/Empty.png,resources/DG.BMP,Door3,0.204478929,-0.006088441,1,0,0,1.0297,optionRight,70,5875,3,32,0,32,0,1,,,,,,,,,,,,,,,,,,,,,,,,,,,,,,,,,,,,,,,
,,,,,,,5f4cbdf9f599118d27c21442,2023-08-16_08h48.54.598,HF_wild_card,2022.2.4,Linux x86_64,59.98440405,5f4cbdf9f599118d27c21442,64d2fd46c836a06233681665,64dc7f14707d0bc38769627e,,,,,,,decisionTrl,resources/DY.BMP,resources/DG.BMP,Door4,-0.290074559,-0.046631643,1,0,0,1.0141,optionLeft,60,5935,3,33,0,33,0,1,,,,,,,,,,,,,,,,,,,,,,,,,,,,,,,,,,,,,,,
,,,,,,,5f4cbdf9f599118d27c21442,2023-08-16_08h48.54.598,HF_wild_card,2022.2.4,Linux x86_64,59.98440405,5f4cbdf9f599118d27c21442,64d2fd46c836a06233681665,64dc7f14707d0bc38769627e,,,,,,,sngl,resources/DBN.BMP,resources/Empty.png,WildCard_Ex,-0.231084818,-0.015146215,1,0,0,1.0133,optionLeft,5,5940,3,34,0,34,0,1,,,,,,,,,,,,,,,,,,,,,,,,,,,,,,,,,,,,,,,
,,,,,,,5f4cbdf9f599118d27c21442,2023-08-16_08h48.54.598,HF_wild_card,2022.2.4,Linux x86_64,59.98440405,5f4cbdf9f599118d27c21442,64d2fd46c836a06233681665,64dc7f14707d0bc38769627e,,,,,,,ctch,resources/DP.BMP,resources/DG.BMP,Door2,-0.249451329,-0.030652971,1,0,0,1.2136,optionLeft,40,5980,3,35,0,35,0,1,,,,,,,,,,,,,,,,,,,,,,,,,,,,,,,,,,,,,,,
,,,,,,,5f4cbdf9f599118d27c21442,2023-08-16_08h48.54.598,HF_wild_card,2022.2.4,Linux x86_64,59.98440405,5f4cbdf9f599118d27c21442,64d2fd46c836a06233681665,64dc7f14707d0bc38769627e,,,,,,,decisionTrl,resources/DR.BMP,resources/DP.BMP,Door1,-0.152221864,0.008244955,1,0,0,1.2295,optionLeft,30,6010,3,36,0,36,0,1,,,,,,,,,,,,,,,,,,,,,,,,,,,,,,,,,,,,,,,
,,,,,,,5f4cbdf9f599118d27c21442,2023-08-16_08h48.54.598,HF_wild_card,2022.2.4,Linux x86_64,59.98440405,5f4cbdf9f599118d27c21442,64d2fd46c836a06233681665,64dc7f14707d0bc38769627e,,,,,,,sngl,resources/Empty.png,resources/DBN.BMP,WildCard_Ex,0.294292346,-0.000366534,1,0,0,0.9462,optionRight,95,6105,3,37,0,37,0,1,,,,,,,,,,,,,,,,,,,,,,,,,,,,,,,,,,,,,,,
,,,,,,,5f4cbdf9f599118d27c21442,2023-08-16_08h48.54.598,HF_wild_card,2022.2.4,Linux x86_64,59.98440405,5f4cbdf9f599118d27c21442,64d2fd46c836a06233681665,64dc7f14707d0bc38769627e,,,,,,,decisionTrl,resources/DR.BMP,resources/DP.BMP,Door1,-0.195492747,0.001387951,1,0,0,1.1469,optionLeft,30,6135,3,38,0,38,0,1,,,,,,,,,,,,,,,,,,,,,,,,,,,,,,,,,,,,,,,
,,,,,,,5f4cbdf9f599118d27c21442,2023-08-16_08h48.54.598,HF_wild_card,2022.2.4,Linux x86_64,59.98440405,5f4cbdf9f599118d27c21442,64d2fd46c836a06233681665,64dc7f14707d0bc38769627e,,,,,,,decisionTrl,resources/DY.BMP,resources/DBN.BMP,WildCard_Ex,0.450055448,0.019999755,1,0,0,2.0969,optionRight,95,6230,3,39,0,39,0,1,,,,,,,,,,,,,,,,,,,,,,,,,,,,,,,,,,,,,,,
,,,,,,,5f4cbdf9f599118d27c21442,2023-08-16_08h48.54.598,HF_wild_card,2022.2.4,Linux x86_64,59.98440405,5f4cbdf9f599118d27c21442,64d2fd46c836a06233681665,64dc7f14707d0bc38769627e,,,,,,,decisionTrl,resources/DP.BMP,resources/DR.BMP,Door1,0.376397263,-0.004053168,1,0,0,1.6826,optionRight,30,6260,3,40,0,40,0,1,,,,,,,,,,,,,,,,,,,,,,,,,,,,,,,,,,,,,,,
,,,,,,,5f4cbdf9f599118d27c21442,2023-08-16_08h48.54.598,HF_wild_card,2022.2.4,Linux x86_64,59.98440405,5f4cbdf9f599118d27c21442,64d2fd46c836a06233681665,64dc7f14707d0bc38769627e,,,,,,,sngl,resources/DBN.BMP,resources/Empty.png,WildCard_Ex,-0.230682373,-0.008670081,1,0,0,1.1475,optionLeft,95,6355,3,41,0,41,0,1,,,,,,,,,,,,,,,,,,,,,,,,,,,,,,,,,,,,,,,
,,,,,,,5f4cbdf9f599118d27c21442,2023-08-16_08h48.54.598,HF_wild_card,2022.2.4,Linux x86_64,59.98440405,5f4cbdf9f599118d27c21442,64d2fd46c836a06233681665,64dc7f14707d0bc38769627e,,,,,,,sngl,resources/Empty.png,resources/DP.BMP,Door2,0.190816274,-0.007421073,1,0,0,0.7709,optionRight,20,6375,3,42,0,42,0,1,,,,,,,,,,,,,,,,,,,,,,,,,,,,,,,,,,,,,,,
,,,,,,,5f4cbdf9f599118d27c21442,2023-08-16_08h48.54.598,HF_wild_card,2022.2.4,Linux x86_64,59.98440405,5f4cbdf9f599118d27c21442,64d2fd46c836a06233681665,64dc7f14707d0bc38769627e,,,,,,,decisionTrl,resources/DG.BMP,resources/DY.BMP,Door4,0.428636441,-0.080872181,1,0,0,0.931,optionRight,80,6455,3,43,0,43,0,1,,,,,,,,,,,,,,,,,,,,,,,,,,,,,,,,,,,,,,,
,,,,,,,5f4cbdf9f599118d27c21442,2023-08-16_08h48.54.598,HF_wild_card,2022.2.4,Linux x86_64,59.98440405,5f4cbdf9f599118d27c21442,64d2fd46c836a06233681665,64dc7f14707d0bc38769627e,,,,,,,,,,,,,,,,,,,,,,,,,,2,0,2,0,1,,,,,,,,,,,,,,,,,,,,,,,,,,,,,,,,,,
,,,,,,,5f4cbdf9f599118d27c21442,2023-08-16_08h48.54.598,HF_wild_card,2022.2.4,Linux x86_64,59.98440405,5f4cbdf9f599118d27c21442,64d2fd46c836a06233681665,64dc7f14707d0bc38769627e,,,,,,,sngl,resources/Empty.png,resources/DP.BMP,Door2,0.536719193,-0.077100172,1,0,0,0.87,optionRight,40,6495,4,0,0,0,0,1,,,,,,,,,,,,,,,,,,,,,,,,,,,,,,,,,,,,,,,
,,,,,,,5f4cbdf9f599118d27c21442,2023-08-16_08h48.54.598,HF_wild_card,2022.2.4,Linux x86_64,59.98440405,5f4cbdf9f599118d27c21442,64d2fd46c836a06233681665,64dc7f14707d0bc38769627e,,,,,,,ctch,resources/DR.BMP,resources/DY.BMP,Door1,-0.324414487,0.096219158,1,0,0,1.3655,optionLeft,30,6525,4,1,0,1,0,1,,,,,,,,,,,,,,,,,,,,,,,,,,,,,,,,,,,,,,,
,,,,,,,5f4cbdf9f599118d27c21442,2023-08-16_08h48.54.598,HF_wild_card,2022.2.4,Linux x86_64,59.98440405,5f4cbdf9f599118d27c21442,64d2fd46c836a06233681665,64dc7f14707d0bc38769627e,,,,,,,decisionTrl,resources/DY.BMP,resources/DG.BMP,Door4,-0.343909318,0.011751065,1,0,0,0.9125,optionLeft,80,6605,4,2,0,2,0,1,,,,,,,,,,,,,,,,,,,,,,,,,,,,,,,,,,,,,,,
,,,,,,,5f4cbdf9f599118d27c21442,2023-08-16_08h48.54.598,HF_wild_card,2022.2.4,Linux x86_64,59.98440405,5f4cbdf9f599118d27c21442,64d2fd46c836a06233681665,64dc7f14707d0bc38769627e,,,,,,,decisionTrl,resources/DG.BMP,resources/DY.BMP,Door4,0.39494273,0.030170867,1,0,0,0.9939,optionRight,80,6685,4,3,0,3,0,1,,,,,,,,,,,,,,,,,,,,,,,,,,,,,,,,,,,,,,,
,,,,,,,5f4cbdf9f599118d27c21442,2023-08-16_08h48.54.598,HF_wild_card,2022.2.4,Linux x86_64,59.98440405,5f4cbdf9f599118d27c21442,64d2fd46c836a06233681665,64dc7f14707d0bc38769627e,,,,,,,decisionTrl,resources/DB.BMP,resources/DR.BMP,Door1,0.211065655,0.010627954,1,0,0,1.0159,optionRight,30,6715,4,4,0,4,0,1,,,,,,,,,,,,,,,,,,,,,,,,,,,,,,,,,,,,,,,
,,,,,,,5f4cbdf9f599118d27c21442,2023-08-16_08h48.54.598,HF_wild_card,2022.2.4,Linux x86_64,59.98440405,5f4cbdf9f599118d27c21442,64d2fd46c836a06233681665,64dc7f14707d0bc38769627e,,,,,,,decisionTrl,resources/DY.BMP,resources/DG.BMP,Door4,-0.467414188,0.037997934,1,0,0,0.9807,optionLeft,60,6775,4,5,0,5,0,1,,,,,,,,,,,,,,,,,,,,,,,,,,,,,,,,,,,,,,,
,,,,,,,5f4cbdf9f599118d27c21442,2023-08-16_08h48.54.598,HF_wild_card,2022.2.4,Linux x86_64,59.98440405,5f4cbdf9f599118d27c21442,64d2fd46c836a06233681665,64dc7f14707d0bc38769627e,,,,,,,sngl,resources/DP.BMP,resources/Empty.png,Door2,-0.222449357,0.004064692,1,0,0,1.012,optionLeft,20,6795,4,6,0,6,0,1,,,,,,,,,,,,,,,,,,,,,,,,,,,,,,,,,,,,,,,
,,,,,,,5f4cbdf9f599118d27c21442,2023-08-16_08h48.54.598,HF_wild_card,2022.2.4,Linux x86_64,59.98440405,5f4cbdf9f599118d27c21442,64d2fd46c836a06233681665,64dc7f14707d0bc38769627e,,,,,,,sngl,resources/Empty.png,resources/DB.BMP,WildCard_NonEx,0.254708927,0.009938681,1,0,0,0.9274,optionRight,55,6850,4,7,0,7,0,1,,,,,,,,,,,,,,,,,,,,,,,,,,,,,,,,,,,,,,,
,,,,,,,5f4cbdf9f599118d27c21442,2023-08-16_08h48.54.598,HF_wild_card,2022.2.4,Linux x86_64,59.98440405,5f4cbdf9f599118d27c21442,64d2fd46c836a06233681665,64dc7f14707d0bc38769627e,,,,,,,decisionTrl,resources/DP.BMP,resources/DR.BMP,Door1,0.241118924,0.028557492,1,0,0,1.3305,optionRight,30,6880,4,8,0,8,0,1,,,,,,,,,,,,,,,,,,,,,,,,,,,,,,,,,,,,,,,
,,,,,,,5f4cbdf9f599118d27c21442,2023-08-16_08h48.54.598,HF_wild_card,2022.2.4,Linux x86_64,59.98440405,5f4cbdf9f599118d27c21442,64d2fd46c836a06233681665,64dc7f14707d0bc38769627e,,,,,,,decisionTrl,resources/DB.BMP,resources/DP.BMP,WildCard_NonEx,-0.206915818,0.013538418,1,0,0,1.1634,optionLeft,45,6925,4,9,0,9,0,1,,,,,,,,,,,,,,,,,,,,,,,,,,,,,,,,,,,,,,,
,,,,,,,5f4cbdf9f599118d27c21442,2023-08-16_08h48.54.598,HF_wild_card,2022.2.4,Linux x86_64,59.98440405,5f4cbdf9f599118d27c21442,64d2fd46c836a06233681665,64dc7f14707d0bc38769627e,,,,,,,decisionTrl,resources/DY.BMP,resources/DG.BMP,Door4,-0.215007955,0.008000815,1,0,0,0.996,optionLeft,60,6985,4,10,0,10,0,1,,,,,,,,,,,,,,,,,,,,,,,,,,,,,,,,,,,,,,,
,,,,,,,5f4cbdf9f599118d27c21442,2023-08-16_08h48.54.598,HF_wild_card,2022.2.4,Linux x86_64,59.98440405,5f4cbdf9f599118d27c21442,64d2fd46c836a06233681665,64dc7f14707d0bc38769627e,,,,,,,decisionTrl,resources/DG.BMP,resources/DY.BMP,Door4,0.370496675,-0.053340578,1,0,0,1.3454,optionRight,60,7045,4,11,0,11,0,1,,,,,,,,,,,,,,,,,,,,,,,,,,,,,,,,,,,,,,,
,,,,,,,5f4cbdf9f599118d27c21442,2023-08-16_08h48.54.598,HF_wild_card,2022.2.4,Linux x86_64,59.98440405,5f4cbdf9f599118d27c21442,64d2fd46c836a06233681665,64dc7f14707d0bc38769627e,,,,,,,ctch,resources/DG.BMP,resources/DP.BMP,Door2,0.319116875,0.042243796,1,0,0,1.4308,optionRight,20,7065,4,12,0,12,0,1,,,,,,,,,,,,,,,,,,,,,,,,,,,,,,,,,,,,,,,
,,,,,,,5f4cbdf9f599118d27c21442,2023-08-16_08h48.54.598,HF_wild_card,2022.2.4,Linux x86_64,59.98440405,5f4cbdf9f599118d27c21442,64d2fd46c836a06233681665,64dc7f14707d0bc38769627e,,,,,,,decisionTrl,resources/DG.BMP,resources/DB.BMP,WildCard_NonEx,0.206241757,0.028903466,1,0,0,0.9373,optionRight,45,7110,4,13,0,13,0,1,,,,,,,,,,,,,,,,,,,,,,,,,,,,,,,,,,,,,,,
,,,,,,,5f4cbdf9f599118d27c21442,2023-08-16_08h48.54.598,HF_wild_card,2022.2.4,Linux x86_64,59.98440405,5f4cbdf9f599118d27c21442,64d2fd46c836a06233681665,64dc7f14707d0bc38769627e,,,,,,,ctch,resources/DP.BMP,resources/DG.BMP,Door2,-0.325219699,-0.007102021,1,0,0,0.9461,optionLeft,40,7150,4,14,0,14,0,1,,,,,,,,,,,,,,,,,,,,,,,,,,,,,,,,,,,,,,,
,,,,,,,5f4cbdf9f599118d27c21442,2023-08-16_08h48.54.598,HF_wild_card,2022.2.4,Linux x86_64,59.98440405,5f4cbdf9f599118d27c21442,64d2fd46c836a06233681665,64dc7f14707d0bc38769627e,,,,,,,decisionTrl,resources/DP.BMP,resources/DB.BMP,WildCard_NonEx,0.28069174,0.007420888,1,0,0,0.8938,optionRight,55,7205,4,15,0,15,0,1,,,,,,,,,,,,,,,,,,,,,,,,,,,,,,,,,,,,,,,
,,,,,,,5f4cbdf9f599118d27c21442,2023-08-16_08h48.54.598,HF_wild_card,2022.2.4,Linux x86_64,59.98440405,5f4cbdf9f599118d27c21442,64d2fd46c836a06233681665,64dc7f14707d0bc38769627e,,,,,,,sngl,resources/Empty.png,resources/DY.BMP,Door4,0.271030945,0.015183002,1,0,0,0.8765,optionRight,80,7285,4,16,0,16,0,1,,,,,,,,,,,,,,,,,,,,,,,,,,,,,,,,,,,,,,,
,,,,,,,5f4cbdf9f599118d27c21442,2023-08-16_08h48.54.598,HF_wild_card,2022.2.4,Linux x86_64,59.98440405,5f4cbdf9f599118d27c21442,64d2fd46c836a06233681665,64dc7f14707d0bc38769627e,,,,,,,sngl,resources/DY.BMP,resources/Empty.png,Door4,-0.351534564,0.007135535,1,0,0,0.88,optionLeft,60,7345,4,17,0,17,0,1,,,,,,,,,,,,,,,,,,,,,,,,,,,,,,,,,,,,,,,
,,,,,,,5f4cbdf9f599118d27c21442,2023-08-16_08h48.54.598,HF_wild_card,2022.2.4,Linux x86_64,59.98440405,5f4cbdf9f599118d27c21442,64d2fd46c836a06233681665,64dc7f14707d0bc38769627e,,,,,,,ctch,resources/DY.BMP,resources/DR.BMP,Door1,0.277274786,-0.007044213,1,0,0,1.2043,optionRight,30,7375,4,18,0,18,0,1,,,,,,,,,,,,,,,,,,,,,,,,,,,,,,,,,,,,,,,
,,,,,,,5f4cbdf9f599118d27c21442,2023-08-16_08h48.54.598,HF_wild_card,2022.2.4,Linux x86_64,59.98440405,5f4cbdf9f599118d27c21442,64d2fd46c836a06233681665,64dc7f14707d0bc38769627e,,,,,,,decisionTrl,resources/DY.BMP,resources/DB.BMP,Door4,-0.188020274,0.021792271,1,0,0,0.8425,optionLeft,60,7435,4,19,0,19,0,1,,,,,,,,,,,,,,,,,,,,,,,,,,,,,,,,,,,,,,,
,,,,,,,5f4cbdf9f599118d27c21442,2023-08-16_08h48.54.598,HF_wild_card,2022.2.4,Linux x86_64,59.98440405,5f4cbdf9f599118d27c21442,64d2fd46c836a06233681665,64dc7f14707d0bc38769627e,,,,,,,decisionTrl,resources/DP.BMP,resources/DR.BMP,Door1,0.34553219,-0.044403814,1,0,0,0.9613,optionRight,30,7465,4,20,0,20,0,1,,,,,,,,,,,,,,,,,,,,,,,,,,,,,,,,,,,,,,,
,,,,,,,5f4cbdf9f599118d27c21442,2023-08-16_08h48.54.598,HF_wild_card,2022.2.4,Linux x86_64,59.98440405,5f4cbdf9f599118d27c21442,64d2fd46c836a06233681665,64dc7f14707d0bc38769627e,,,,,,,decisionTrl,resources/DR.BMP,resources/DP.BMP,Door1,-0.29476122,0.004872809,1,0,0,1.097,optionLeft,30,7495,4,21,0,21,0,1,,,,,,,,,,,,,,,,,,,,,,,,,,,,,,,,,,,,,,,
,,,,,,,5f4cbdf9f599118d27c21442,2023-08-16_08h48.54.598,HF_wild_card,2022.2.4,Linux x86_64,59.98440405,5f4cbdf9f599118d27c21442,64d2fd46c836a06233681665,64dc7f14707d0bc38769627e,,,,,,,sngl,resources/Empty.png,resources/DR.BMP,Door1,0.321577089,-0.035981976,1,0,0,0.9315,optionRight,30,7525,4,22,0,22,0,1,,,,,,,,,,,,,,,,,,,,,,,,,,,,,,,,,,,,,,,
,,,,,,,5f4cbdf9f599118d27c21442,2023-08-16_08h48.54.598,HF_wild_card,2022.2.4,Linux x86_64,59.98440405,5f4cbdf9f599118d27c21442,64d2fd46c836a06233681665,64dc7f14707d0bc38769627e,,,,,,,decisionTrl,resources/DG.BMP,resources/DY.BMP,Door4,0.29805237,-0.046875277,1,0,0,1.0216,optionRight,80,7605,4,23,0,23,0,1,,,,,,,,,,,,,,,,,,,,,,,,,,,,,,,,,,,,,,,
,,,,,,,5f4cbdf9f599118d27c21442,2023-08-16_08h48.54.598,HF_wild_card,2022.2.4,Linux x86_64,59.98440405,5f4cbdf9f599118d27c21442,64d2fd46c836a06233681665,64dc7f14707d0bc38769627e,,,,,,,ctch,resources/DP.BMP,resources/DG.BMP,Door2,-0.168465882,0.026554165,1,0,0,1.6972,optionLeft,20,7625,4,24,0,24,0,1,,,,,,,,,,,,,,,,,,,,,,,,,,,,,,,,,,,,,,,
,,,,,,,5f4cbdf9f599118d27c21442,2023-08-16_08h48.54.598,HF_wild_card,2022.2.4,Linux x86_64,59.98440405,5f4cbdf9f599118d27c21442,64d2fd46c836a06233681665,64dc7f14707d0bc38769627e,,,,,,,decisionTrl,resources/DB.BMP,resources/DG.BMP,Door3,0.383285476,-0.012225794,1,0,0,1.074,optionRight,70,7695,4,25,0,25,0,1,,,,,,,,,,,,,,,,,,,,,,,,,,,,,,,,,,,,,,,
,,,,,,,5f4cbdf9f599118d27c21442,2023-08-16_08h48.54.598,HF_wild_card,2022.2.4,Linux x86_64,59.98440405,5f4cbdf9f599118d27c21442,64d2fd46c836a06233681665,64dc7f14707d0bc38769627e,,,,,,,sngl,resources/DR.BMP,resources/Empty.png,Door1,-0.196737791,-0.006395369,1,0,0,0.9465,optionLeft,30,7725,4,26,0,26,0,1,,,,,,,,,,,,,,,,,,,,,,,,,,,,,,,,,,,,,,,
,,,,,,,5f4cbdf9f599118d27c21442,2023-08-16_08h48.54.598,HF_wild_card,2022.2.4,Linux x86_64,59.98440405,5f4cbdf9f599118d27c21442,64d2fd46c836a06233681665,64dc7f14707d0bc38769627e,,,,,,,decisionTrl,resources/DB.BMP,resources/DY.BMP,Door4,0.219563095,0.013247441,1,0,0,1.7476,optionRight,60,7785,4,27,0,27,0,1,,,,,,,,,,,,,,,,,,,,,,,,,,,,,,,,,,,,,,,
,,,,,,,5f4cbdf9f599118d27c21442,2023-08-16_08h48.54.598,HF_wild_card,2022.2.4,Linux x86_64,59.98440405,5f4cbdf9f599118d27c21442,64d2fd46c836a06233681665,64dc7f14707d0bc38769627e,,,,,,,ctch,resources/DR.BMP,resources/DY.BMP,Door4,0.239701931,-0.033926465,1,0,0,1.2482,optionRight,80,7865,4,28,0,28,0,1,,,,,,,,,,,,,,,,,,,,,,,,,,,,,,,,,,,,,,,
,,,,,,,5f4cbdf9f599118d27c21442,2023-08-16_08h48.54.598,HF_wild_card,2022.2.4,Linux x86_64,59.98440405,5f4cbdf9f599118d27c21442,64d2fd46c836a06233681665,64dc7f14707d0bc38769627e,,,,,,,decisionTrl,resources/DR.BMP,resources/DP.BMP,Door1,-0.254872855,0.003132662,1,0,0,1.4641,optionLeft,30,7895,4,29,0,29,0,1,,,,,,,,,,,,,,,,,,,,,,,,,,,,,,,,,,,,,,,
,,,,,,,5f4cbdf9f599118d27c21442,2023-08-16_08h48.54.598,HF_wild_card,2022.2.4,Linux x86_64,59.98440405,5f4cbdf9f599118d27c21442,64d2fd46c836a06233681665,64dc7f14707d0bc38769627e,,,,,,,decisionTrl,resources/DR.BMP,resources/DP.BMP,Door2,0.209973476,-0.004888344,1,0,0,1.0305,optionRight,40,7935,4,30,0,30,0,1,,,,,,,,,,,,,,,,,,,,,,,,,,,,,,,,,,,,,,,
,,,,,,,5f4cbdf9f599118d27c21442,2023-08-16_08h48.54.598,HF_wild_card,2022.2.4,Linux x86_64,59.98440405,5f4cbdf9f599118d27c21442,64d2fd46c836a06233681665,64dc7f14707d0bc38769627e,,,,,,,decisionTrl,resources/DP.BMP,resources/DR.BMP,Door2,-0.198678285,0.005295583,1,0,0,2.0313,optionLeft,20,7955,4,31,0,31,0,1,,,,,,,,,,,,,,,,,,,,,,,,,,,,,,,,,,,,,,,
,,,,,,,5f4cbdf9f599118d27c21442,2023-08-16_08h48.54.598,HF_wild_card,2022.2.4,Linux x86_64,59.98440405,5f4cbdf9f599118d27c21442,64d2fd46c836a06233681665,64dc7f14707d0bc38769627e,,,,,,,decisionTrl,resources/DR.BMP,resources/DP.BMP,Door1,-0.233705826,0.005193428,1,0,0,1.0798,optionLeft,30,7985,4,32,0,32,0,1,,,,,,,,,,,,,,,,,,,,,,,,,,,,,,,,,,,,,,,
,,,,,,,5f4cbdf9f599118d27c21442,2023-08-16_08h48.54.598,HF_wild_card,2022.2.4,Linux x86_64,59.98440405,5f4cbdf9f599118d27c21442,64d2fd46c836a06233681665,64dc7f14707d0bc38769627e,,,,,,,ctch,resources/DY.BMP,resources/DR.BMP,Door4,-0.191709029,0.001075768,1,0,0,0.9865,optionLeft,60,8045,4,33,0,33,0,1,,,,,,,,,,,,,,,,,,,,,,,,,,,,,,,,,,,,,,,
,,,,,,,5f4cbdf9f599118d27c21442,2023-08-16_08h48.54.598,HF_wild_card,2022.2.4,Linux x86_64,59.98440405,5f4cbdf9f599118d27c21442,64d2fd46c836a06233681665,64dc7f14707d0bc38769627e,,,,,,,sngl,resources/Empty.png,resources/DB.BMP,WildCard_NonEx,0.324807158,0.032255282,1,0,0,0.8141,optionRight,45,8090,4,34,0,34,0,1,,,,,,,,,,,,,,,,,,,,,,,,,,,,,,,,,,,,,,,
,,,,,,,5f4cbdf9f599118d27c21442,2023-08-16_08h48.54.598,HF_wild_card,2022.2.4,Linux x86_64,59.98440405,5f4cbdf9f599118d27c21442,64d2fd46c836a06233681665,64dc7f14707d0bc38769627e,,,,,,,decisionTrl,resources/DY.BMP,resources/DG.BMP,Door4,-0.276623037,-0.002039745,1,0,0,0.9467,optionLeft,80,8170,4,35,0,35,0,1,,,,,,,,,,,,,,,,,,,,,,,,,,,,,,,,,,,,,,,
,,,,,,,5f4cbdf9f599118d27c21442,2023-08-16_08h48.54.598,HF_wild_card,2022.2.4,Linux x86_64,59.98440405,5f4cbdf9f599118d27c21442,64d2fd46c836a06233681665,64dc7f14707d0bc38769627e,,,,,,,sngl,resources/DB.BMP,resources/Empty.png,WildCard_NonEx,-0.127319981,-0.02086402,1,0,0,1.0701,optionLeft,55,8225,4,36,0,36,0,1,,,,,,,,,,,,,,,,,,,,,,,,,,,,,,,,,,,,,,,
,,,,,,,5f4cbdf9f599118d27c21442,2023-08-16_08h48.54.598,HF_wild_card,2022.2.4,Linux x86_64,59.98440405,5f4cbdf9f599118d27c21442,64d2fd46c836a06233681665,64dc7f14707d0bc38769627e,,,,,,,decisionTrl,resources/DP.BMP,resources/DR.BMP,Door1,0.319616404,0.002130376,1,0,0,1.1792,optionRight,30,8255,4,37,0,37,0,1,,,,,,,,,,,,,,,,,,,,,,,,,,,,,,,,,,,,,,,
,,,,,,,5f4cbdf9f599118d27c21442,2023-08-16_08h48.54.598,HF_wild_card,2022.2.4,Linux x86_64,59.98440405,5f4cbdf9f599118d27c21442,64d2fd46c836a06233681665,64dc7f14707d0bc38769627e,,,,,,,sngl,resources/DG.BMP,resources/Empty.png,Door3,-0.282680777,0.022577845,1,0,0,0.8799,optionLeft,70,8325,4,38,0,38,0,1,,,,,,,,,,,,,,,,,,,,,,,,,,,,,,,,,,,,,,,
,,,,,,,5f4cbdf9f599118d27c21442,2023-08-16_08h48.54.598,HF_wild_card,2022.2.4,Linux x86_64,59.98440405,5f4cbdf9f599118d27c21442,64d2fd46c836a06233681665,64dc7f14707d0bc38769627e,,,,,,,ctch,resources/DG.BMP,resources/DP.BMP,Door2,0.377895666,-0.013576266,1,0,0,1.797,optionRight,40,8365,4,39,0,39,0,1,,,,,,,,,,,,,,,,,,,,,,,,,,,,,,,,,,,,,,,
,,,,,,,5f4cbdf9f599118d27c21442,2023-08-16_08h48.54.598,HF_wild_card,2022.2.4,Linux x86_64,59.98440405,5f4cbdf9f599118d27c21442,64d2fd46c836a06233681665,64dc7f14707d0bc38769627e,,,,,,,decisionTrl,resources/DG.BMP,resources/DY.BMP,Door4,0.212815668,-0.029759894,1,0,0,1.116,optionRight,80,8445,4,40,0,40,0,1,,,,,,,,,,,,,,,,,,,,,,,,,,,,,,,,,,,,,,,
,,,,,,,5f4cbdf9f599118d27c21442,2023-08-16_08h48.54.598,HF_wild_card,2022.2.4,Linux x86_64,59.98440405,5f4cbdf9f599118d27c21442,64d2fd46c836a06233681665,64dc7f14707d0bc38769627e,,,,,,,sngl,resources/DB.BMP,resources/Empty.png,WildCard_NonEx,-0.149010972,-0.026909359,1,0,0,1.1482,optionLeft,45,8490,4,41,0,41,0,1,,,,,,,,,,,,,,,,,,,,,,,,,,,,,,,,,,,,,,,
,,,,,,,5f4cbdf9f599118d27c21442,2023-08-16_08h48.54.598,HF_wild_card,2022.2.4,Linux x86_64,59.98440405,5f4cbdf9f599118d27c21442,64d2fd46c836a06233681665,64dc7f14707d0bc38769627e,,,,,,,decisionTrl,resources/DR.BMP,resources/DB.BMP,WildCard_NonEx,0.213167865,-0.040112452,1,0,0,0.9298,optionRight,45,8535,4,42,0,42,0,1,,,,,,,,,,,,,,,,,,,,,,,,,,,,,,,,,,,,,,,
,,,,,,,5f4cbdf9f599118d27c21442,2023-08-16_08h48.54.598,HF_wild_card,2022.2.4,Linux x86_64,59.98440405,5f4cbdf9f599118d27c21442,64d2fd46c836a06233681665,64dc7f14707d0bc38769627e,,,,,,,sngl,resources/Empty.png,resources/DG.BMP,Door3,0.362043859,0.005965218,1,0,0,0.832,optionRight,70,8605,4,43,0,43,0,1,,,,,,,,,,,,,,,,,,,,,,,,,,,,,,,,,,,,,,,
,,,,,,,5f4cbdf9f599118d27c21442,2023-08-16_08h48.54.598,HF_wild_card,2022.2.4,Linux x86_64,59.98440405,5f4cbdf9f599118d27c21442,64d2fd46c836a06233681665,64dc7f14707d0bc38769627e,,,,,,,,,,,,,,,,,,,,,,,,,,3,0,3,0,1,,,,,,,,,,,,,,,,,,,,,,,,,,,,,,,,,,
,,,,,,,5f4cbdf9f599118d27c21442,2023-08-16_08h48.54.598,HF_wild_card,2022.2.4,Linux x86_64,59.98440405,5f4cbdf9f599118d27c21442,64d2fd46c836a06233681665,64dc7f14707d0bc38769627e,,,,,,,ctch,resources/DP.BMP,resources/DG.BMP,Door2,-0.249488116,-0.052525316,1,0,0,1.2729,optionLeft,20,8625,5,0,0,0,0,1,,,,,,,,,,,,,,,,,,,,,,,,,,,,,,,,,,,,,,,
,,,,,,,5f4cbdf9f599118d27c21442,2023-08-16_08h48.54.598,HF_wild_card,2022.2.4,Linux x86_64,59.98440405,5f4cbdf9f599118d27c21442,64d2fd46c836a06233681665,64dc7f14707d0bc38769627e,,,,,,,decisionTrl,resources/DG.BMP,resources/DY.BMP,Door4,0.174576313,-0.00384858,1,0,0,0.9964,optionRight,60,8685,5,1,0,1,0,1,,,,,,,,,,,,,,,,,,,,,,,,,,,,,,,,,,,,,,,
,,,,,,,5f4cbdf9f599118d27c21442,2023-08-16_08h48.54.598,HF_wild_card,2022.2.4,Linux x86_64,59.98440405,5f4cbdf9f599118d27c21442,64d2fd46c836a06233681665,64dc7f14707d0bc38769627e,,,,,,,sngl,resources/DG.BMP,resources/Empty.png,Door3,-0.28700639,0.043806877,1,0,0,0.7955,optionLeft,70,8755,5,2,0,2,0,1,,,,,,,,,,,,,,,,,,,,,,,,,,,,,,,,,,,,,,,
,,,,,,,5f4cbdf9f599118d27c21442,2023-08-16_08h48.54.598,HF_wild_card,2022.2.4,Linux x86_64,59.98440405,5f4cbdf9f599118d27c21442,64d2fd46c836a06233681665,64dc7f14707d0bc38769627e,,,,,,,decisionTrl,resources/DY.BMP,resources/DG.BMP,Door4,-0.117155138,-0.00423028,1,0,0,1.145,optionLeft,60,8815,5,3,0,3,0,1,,,,,,,,,,,,,,,,,,,,,,,,,,,,,,,,,,,,,,,
,,,,,,,5f4cbdf9f599118d27c21442,2023-08-16_08h48.54.598,HF_wild_card,2022.2.4,Linux x86_64,59.98440405,5f4cbdf9f599118d27c21442,64d2fd46c836a06233681665,64dc7f14707d0bc38769627e,,,,,,,decisionTrl,resources/DG.BMP,resources/DY.BMP,Door4,0.274204957,-0.012568217,1,0,0,0.8298,optionRight,60,8875,5,4,0,4,0,1,,,,,,,,,,,,,,,,,,,,,,,,,,,,,,,,,,,,,,,
,,,,,,,5f4cbdf9f599118d27c21442,2023-08-16_08h48.54.598,HF_wild_card,2022.2.4,Linux x86_64,59.98440405,5f4cbdf9f599118d27c21442,64d2fd46c836a06233681665,64dc7f14707d0bc38769627e,,,,,,,sngl,resources/Empty.png,resources/DB.BMP,WildCard_NonEx,0.143256427,0.001388688,1,0,0,0.8113,optionRight,55,8930,5,5,0,5,0,1,,,,,,,,,,,,,,,,,,,,,,,,,,,,,,,,,,,,,,,
,,,,,,,5f4cbdf9f599118d27c21442,2023-08-16_08h48.54.598,HF_wild_card,2022.2.4,Linux x86_64,59.98440405,5f4cbdf9f599118d27c21442,64d2fd46c836a06233681665,64dc7f14707d0bc38769627e,,,,,,,decisionTrl,resources/DG.BMP,resources/DY.BMP,Door4,0.272517271,0.010906392,1,0,0,0.7977,optionRight,80,9010,5,6,0,6,0,1,,,,,,,,,,,,,,,,,,,,,,,,,,,,,,,,,,,,,,,
,,,,,,,5f4cbdf9f599118d27c21442,2023-08-16_08h48.54.598,HF_wild_card,2022.2.4,Linux x86_64,59.98440405,5f4cbdf9f599118d27c21442,64d2fd46c836a06233681665,64dc7f14707d0bc38769627e,,,,,,,decisionTrl,resources/DY.BMP,resources/DG.BMP,Door4,-0.236155807,0.020690549,1,0,0,0.8945,optionLeft,80,9090,5,7,0,7,0,1,,,,,,,,,,,,,,,,,,,,,,,,,,,,,,,,,,,,,,,
,,,,,,,5f4cbdf9f599118d27c21442,2023-08-16_08h48.54.598,HF_wild_card,2022.2.4,Linux x86_64,59.98440405,5f4cbdf9f599118d27c21442,64d2fd46c836a06233681665,64dc7f14707d0bc38769627e,,,,,,,ctch,resources/DY.BMP,resources/DR.BMP,Door4,-0.259694632,0.023908125,1,0,0,1.0464,optionLeft,60,9150,5,8,0,8,0,1,,,,,,,,,,,,,,,,,,,,,,,,,,,,,,,,,,,,,,,
,,,,,,,5f4cbdf9f599118d27c21442,2023-08-16_08h48.54.598,HF_wild_card,2022.2.4,Linux x86_64,59.98440405,5f4cbdf9f599118d27c21442,64d2fd46c836a06233681665,64dc7f14707d0bc38769627e,,,,,,,decisionTrl,resources/DY.BMP,resources/DG.BMP,Door4,-0.264137752,0.008233108,1,0,0,0.847,optionLeft,60,9210,5,9,0,9,0,1,,,,,,,,,,,,,,,,,,,,,,,,,,,,,,,,,,,,,,,
,,,,,,,5f4cbdf9f599118d27c21442,2023-08-16_08h48.54.598,HF_wild_card,2022.2.4,Linux x86_64,59.98440405,5f4cbdf9f599118d27c21442,64d2fd46c836a06233681665,64dc7f14707d0bc38769627e,,,,,,,ctch,resources/DR.BMP,resources/DY.BMP,Door4,0.144262677,-0.00979877,1,0,0,0.7967,optionRight,80,9290,5,10,0,10,0,1,,,,,,,,,,,,,,,,,,,,,,,,,,,,,,,,,,,,,,,
,,,,,,,5f4cbdf9f599118d27c21442,2023-08-16_08h48.54.598,HF_wild_card,2022.2.4,Linux x86_64,59.98440405,5f4cbdf9f599118d27c21442,64d2fd46c836a06233681665,64dc7f14707d0bc38769627e,,,,,,,decisionTrl,resources/DP.BMP,resources/DR.BMP,Door2,-0.228557852,0.015271051,1,0,0,0.962,optionLeft,40,9330,5,11,0,11,0,1,,,,,,,,,,,,,,,,,,,,,,,,,,,,,,,,,,,,,,,
,,,,,,,5f4cbdf9f599118d27c21442,2023-08-16_08h48.54.598,HF_wild_card,2022.2.4,Linux x86_64,59.98440405,5f4cbdf9f599118d27c21442,64d2fd46c836a06233681665,64dc7f14707d0bc38769627e,,,,,,,decisionTrl,resources/DB.BMP,resources/DY.BMP,Door4,0.293971497,0.020905463,1,0,0,0.9332,optionRight,80,9410,5,12,0,12,0,1,,,,,,,,,,,,,,,,,,,,,,,,,,,,,,,,,,,,,,,
,,,,,,,5f4cbdf9f599118d27c21442,2023-08-16_08h48.54.598,HF_wild_card,2022.2.4,Linux x86_64,59.98440405,5f4cbdf9f599118d27c21442,64d2fd46c836a06233681665,64dc7f14707d0bc38769627e,,,,,,,ctch,resources/DR.BMP,resources/DY.BMP,Door4,0.12632083,0.020503156,1,0,0,0.7814,optionRight,60,9470,5,13,0,13,0,1,,,,,,,,,,,,,,,,,,,,,,,,,,,,,,,,,,,,,,,
,,,,,,,5f4cbdf9f599118d27c21442,2023-08-16_08h48.54.598,HF_wild_card,2022.2.4,Linux x86_64,59.98440405,5f4cbdf9f599118d27c21442,64d2fd46c836a06233681665,64dc7f14707d0bc38769627e,,,,,,,sngl,resources/Empty.png,resources/DY.BMP,Door4,0.228416881,0.002375392,1,0,0,0.8965,optionRight,60,9530,5,14,0,14,0,1,,,,,,,,,,,,,,,,,,,,,,,,,,,,,,,,,,,,,,,
,,,,,,,5f4cbdf9f599118d27c21442,2023-08-16_08h48.54.598,HF_wild_card,2022.2.4,Linux x86_64,59.98440405,5f4cbdf9f599118d27c21442,64d2fd46c836a06233681665,64dc7f14707d0bc38769627e,,,,,,,ctch,resources/DG.BMP,resources/DP.BMP,Door2,0.158025367,0.051127915,1,0,0,1.3813,optionRight,20,9550,5,15,0,15,0,1,,,,,,,,,,,,,,,,,,,,,,,,,,,,,,,,,,,,,,,
,,,,,,,5f4cbdf9f599118d27c21442,2023-08-16_08h48.54.598,HF_wild_card,2022.2.4,Linux x86_64,59.98440405,5f4cbdf9f599118d27c21442,64d2fd46c836a06233681665,64dc7f14707d0bc38769627e,,,,,,,decisionTrl,resources/DP.BMP,resources/DR.BMP,Door1,0.370109074,-0.006391819,1,0,0,1.304,optionRight,30,9580,5,16,0,16,0,1,,,,,,,,,,,,,,,,,,,,,,,,,,,,,,,,,,,,,,,
,,,,,,,5f4cbdf9f599118d27c21442,2023-08-16_08h48.54.598,HF_wild_card,2022.2.4,Linux x86_64,59.98440405,5f4cbdf9f599118d27c21442,64d2fd46c836a06233681665,64dc7f14707d0bc38769627e,,,,,,,decisionTrl,resources/DG.BMP,resources/DY.BMP,Door4,0.249815051,0.032510118,1,0,0,0.854,optionRight,60,9640,5,17,0,17,0,1,,,,,,,,,,,,,,,,,,,,,,,,,,,,,,,,,,,,,,,
,,,,,,,5f4cbdf9f599118d27c21442,2023-08-16_08h48.54.598,HF_wild_card,2022.2.4,Linux x86_64,59.98440405,5f4cbdf9f599118d27c21442,64d2fd46c836a06233681665,64dc7f14707d0bc38769627e,,,,,,,sngl,resources/DR.BMP,resources/Empty.png,Door1,-0.313534094,0.016124345,1,0,0,0.8237,optionLeft,30,9670,5,18,0,18,0,1,,,,,,,,,,,,,,,,,,,,,,,,,,,,,,,,,,,,,,,
,,,,,,,5f4cbdf9f599118d27c21442,2023-08-16_08h48.54.598,HF_wild_card,2022.2.4,Linux x86_64,59.98440405,5f4cbdf9f599118d27c21442,64d2fd46c836a06233681665,64dc7f14707d0bc38769627e,,,,,,,ctch,resources/DG.BMP,resources/DP.BMP,Door2,0.185827895,-0.008319958,1,0,0,1.6459,optionRight,40,9710,5,19,0,19,0,1,,,,,,,,,,,,,,,,,,,,,,,,,,,,,,,,,,,,,,,
,,,,,,,5f4cbdf9f599118d27c21442,2023-08-16_08h48.54.598,HF_wild_card,2022.2.4,Linux x86_64,59.98440405,5f4cbdf9f599118d27c21442,64d2fd46c836a06233681665,64dc7f14707d0bc38769627e,,,,,,,decisionTrl,resources/DR.BMP,resources/DP.BMP,Door1,-0.347399939,0.029611732,1,0,0,1.0314,optionLeft,30,9740,5,20,0,20,0,1,,,,,,,,,,,,,,,,,,,,,,,,,,,,,,,,,,,,,,,
,,,,,,,5f4cbdf9f599118d27c21442,2023-08-16_08h48.54.598,HF_wild_card,2022.2.4,Linux x86_64,59.98440405,5f4cbdf9f599118d27c21442,64d2fd46c836a06233681665,64dc7f14707d0bc38769627e,,,,,,,decisionTrl,resources/DR.BMP,resources/DP.BMP,Door2,0.236764314,-0.016189022,1,0,0,0.8128,optionRight,40,9780,5,21,0,21,0,1,,,,,,,,,,,,,,,,,,,,,,,,,,,,,,,,,,,,,,,
,,,,,,,5f4cbdf9f599118d27c21442,2023-08-16_08h48.54.598,HF_wild_card,2022.2.4,Linux x86_64,59.98440405,5f4cbdf9f599118d27c21442,64d2fd46c836a06233681665,64dc7f14707d0bc38769627e,,,,,,,sngl,resources/DP.BMP,resources/Empty.png,Door2,-0.155514536,0.003037698,1,0,0,0.8142,optionLeft,40,9820,5,22,0,22,0,1,,,,,,,,,,,,,,,,,,,,,,,,,,,,,,,,,,,,,,,
,,,,,,,5f4cbdf9f599118d27c21442,2023-08-16_08h48.54.598,HF_wild_card,2022.2.4,Linux x86_64,59.98440405,5f4cbdf9f599118d27c21442,64d2fd46c836a06233681665,64dc7f14707d0bc38769627e,,,,,,,sngl,resources/Empty.png,resources/DR.BMP,Door1,0.132270744,0.008007315,1,0,0,0.8299,optionRight,30,9850,5,23,0,23,0,1,,,,,,,,,,,,,,,,,,,,,,,,,,,,,,,,,,,,,,,
,,,,,,,5f4cbdf9f599118d27c21442,2023-08-16_08h48.54.598,HF_wild_card,2022.2.4,Linux x86_64,59.98440405,5f4cbdf9f599118d27c21442,64d2fd46c836a06233681665,64dc7f14707d0bc38769627e,,,,,,,decisionTrl,resources/DR.BMP,resources/DB.BMP,WildCard_NonEx,0.263324933,0.028513421,1,0,0,1.8294,optionRight,55,9905,5,24,0,24,0,1,,,,,,,,,,,,,,,,,,,,,,,,,,,,,,,,,,,,,,,
,,,,,,,5f4cbdf9f599118d27c21442,2023-08-16_08h48.54.598,HF_wild_card,2022.2.4,Linux x86_64,59.98440405,5f4cbdf9f599118d27c21442,64d2fd46c836a06233681665,64dc7f14707d0bc38769627e,,,,,,,decisionTrl,resources/DP.BMP,resources/DR.BMP,Door1,0.219256721,0.038218518,1,0,0,0.8691,optionRight,30,9935,5,25,0,25,0,1,,,,,,,,,,,,,,,,,,,,,,,,,,,,,,,,,,,,,,,
,,,,,,,5f4cbdf9f599118d27c21442,2023-08-16_08h48.54.598,HF_wild_card,2022.2.4,Linux x86_64,59.98440405,5f4cbdf9f599118d27c21442,64d2fd46c836a06233681665,64dc7f14707d0bc38769627e,,,,,,,decisionTrl,resources/DY.BMP,resources/DG.BMP,Door4,-0.14275911,0.022630905,1,0,0,1.0129,optionLeft,60,9995,5,26,0,26,0,1,,,,,,,,,,,,,,,,,,,,,,,,,,,,,,,,,,,,,,,
,,,,,,,5f4cbdf9f599118d27c21442,2023-08-16_08h48.54.598,HF_wild_card,2022.2.4,Linux x86_64,59.98440405,5f4cbdf9f599118d27c21442,64d2fd46c836a06233681665,64dc7f14707d0bc38769627e,,,,,,,decisionTrl,resources/DB.BMP,resources/DP.BMP,WildCard_NonEx,-0.183002115,0.022181762,1,0,0,1.1882,optionLeft,55,10050,5,27,0,27,0,1,,,,,,,,,,,,,,,,,,,,,,,,,,,,,,,,,,,,,,,
,,,,,,,5f4cbdf9f599118d27c21442,2023-08-16_08h48.54.598,HF_wild_card,2022.2.4,Linux x86_64,59.98440405,5f4cbdf9f599118d27c21442,64d2fd46c836a06233681665,64dc7f14707d0bc38769627e,,,,,,,decisionTrl,resources/DB.BMP,resources/DR.BMP,WildCard_NonEx,-0.131440776,0.009971135,1,0,0,1.0314,optionLeft,55,10105,5,28,0,28,0,1,,,,,,,,,,,,,,,,,,,,,,,,,,,,,,,,,,,,,,,
,,,,,,,5f4cbdf9f599118d27c21442,2023-08-16_08h48.54.598,HF_wild_card,2022.2.4,Linux x86_64,59.98440405,5f4cbdf9f599118d27c21442,64d2fd46c836a06233681665,64dc7f14707d0bc38769627e,,,,,,,decisionTrl,resources/DR.BMP,resources/DP.BMP,Door1,-0.235950942,-0.01052483,1,0,0,1.2793,optionLeft,30,10135,5,29,0,29,0,1,,,,,,,,,,,,,,,,,,,,,,,,,,,,,,,,,,,,,,,
,,,,,,,5f4cbdf9f599118d27c21442,2023-08-16_08h48.54.598,HF_wild_card,2022.2.4,Linux x86_64,59.98440405,5f4cbdf9f599118d27c21442,64d2fd46c836a06233681665,64dc7f14707d0bc38769627e,,,,,,,decisionTrl,resources/DB.BMP,resources/DG.BMP,WildCard_NonEx,-0.19196829,-0.007685728,1,0,0,1.2798,optionLeft,45,10180,5,30,0,30,0,1,,,,,,,,,,,,,,,,,,,,,,,,,,,,,,,,,,,,,,,
,,,,,,,5f4cbdf9f599118d27c21442,2023-08-16_08h48.54.598,HF_wild_card,2022.2.4,Linux x86_64,59.98440405,5f4cbdf9f599118d27c21442,64d2fd46c836a06233681665,64dc7f14707d0bc38769627e,,,,,,,ctch,resources/DY.BMP,resources/DR.BMP,Door4,-0.159770862,-0.002059291,1,0,0,0.9964,optionLeft,80,10260,5,31,0,31,0,1,,,,,,,,,,,,,,,,,,,,,,,,,,,,,,,,,,,,,,,
,,,,,,,5f4cbdf9f599118d27c21442,2023-08-16_08h48.54.598,HF_wild_card,2022.2.4,Linux x86_64,59.98440405,5f4cbdf9f599118d27c21442,64d2fd46c836a06233681665,64dc7f14707d0bc38769627e,,,,,,,decisionTrl,resources/DP.BMP,resources/DB.BMP,WildCard_NonEx,0.29793159,-0.045532227,1,0,0,1.2611,optionRight,45,10305,5,32,0,32,0,1,,,,,,,,,,,,,,,,,,,,,,,,,,,,,,,,,,,,,,,
,,,,,,,5f4cbdf9f599118d27c21442,2023-08-16_08h48.54.598,HF_wild_card,2022.2.4,Linux x86_64,59.98440405,5f4cbdf9f599118d27c21442,64d2fd46c836a06233681665,64dc7f14707d0bc38769627e,,,,,,,decisionTrl,resources/DY.BMP,resources/DB.BMP,Door4,-0.271266972,0.005884637,1,0,0,0.9793,optionLeft,60,10365,5,33,0,33,0,1,,,,,,,,,,,,,,,,,,,,,,,,,,,,,,,,,,,,,,,
,,,,,,,5f4cbdf9f599118d27c21442,2023-08-16_08h48.54.598,HF_wild_card,2022.2.4,Linux x86_64,59.98440405,5f4cbdf9f599118d27c21442,64d2fd46c836a06233681665,64dc7f14707d0bc38769627e,,,,,,,sngl,resources/DB.BMP,resources/Empty.png,WildCard_NonEx,-0.238805857,-0.014900922,1,0,0,0.8303,optionLeft,45,10410,5,34,0,34,0,1,,,,,,,,,,,,,,,,,,,,,,,,,,,,,,,,,,,,,,,
,,,,,,,5f4cbdf9f599118d27c21442,2023-08-16_08h48.54.598,HF_wild_card,2022.2.4,Linux x86_64,59.98440405,5f4cbdf9f599118d27c21442,64d2fd46c836a06233681665,64dc7f14707d0bc38769627e,,,,,,,decisionTrl,resources/DG.BMP,resources/DB.BMP,WildCard_NonEx,0.34613618,-0.018851104,1,0,0,0.9299,optionRight,55,10465,5,35,0,35,0,1,,,,,,,,,,,,,,,,,,,,,,,,,,,,,,,,,,,,,,,
,,,,,,,5f4cbdf9f599118d27c21442,2023-08-16_08h48.54.598,HF_wild_card,2022.2.4,Linux x86_64,59.98440405,5f4cbdf9f599118d27c21442,64d2fd46c836a06233681665,64dc7f14707d0bc38769627e,,,,,,,decisionTrl,resources/DR.BMP,resources/DP.BMP,Door1,-0.253304934,-0.005523221,1,0,0,0.9135,optionLeft,30,10495,5,36,0,36,0,1,,,,,,,,,,,,,,,,,,,,,,,,,,,,,,,,,,,,,,,
,,,,,,,5f4cbdf9f599118d27c21442,2023-08-16_08h48.54.598,HF_wild_card,2022.2.4,Linux x86_64,59.98440405,5f4cbdf9f599118d27c21442,64d2fd46c836a06233681665,64dc7f14707d0bc38769627e,,,,,,,decisionTrl,resources/DP.BMP,resources/DR.BMP,Door1,0.411922858,-0.018373242,1,0,0,0.8275,optionRight,30,10525,5,37,0,37,0,1,,,,,,,,,,,,,,,,,,,,,,,,,,,,,,,,,,,,,,,
,,,,,,,5f4cbdf9f599118d27c21442,2023-08-16_08h48.54.598,HF_wild_card,2022.2.4,Linux x86_64,59.98440405,5f4cbdf9f599118d27c21442,64d2fd46c836a06233681665,64dc7f14707d0bc38769627e,,,,,,,sngl,resources/Empty.png,resources/DP.BMP,Door2,0.179882499,0.01537943,1,0,0,0.8254,optionRight,20,10545,5,38,0,38,0,1,,,,,,,,,,,,,,,,,,,,,,,,,,,,,,,,,,,,,,,
,,,,,,,5f4cbdf9f599118d27c21442,2023-08-16_08h48.54.598,HF_wild_card,2022.2.4,Linux x86_64,59.98440405,5f4cbdf9f599118d27c21442,64d2fd46c836a06233681665,64dc7f14707d0bc38769627e,,,,,,,ctch,resources/DP.BMP,resources/DG.BMP,Door3,0.384726902,-0.076121443,1,0,0,1.3978,optionRight,70,10615,5,39,0,39,0,1,,,,,,,,,,,,,,,,,,,,,,,,,,,,,,,,,,,,,,,
,,,,,,,5f4cbdf9f599118d27c21442,2023-08-16_08h48.54.598,HF_wild_card,2022.2.4,Linux x86_64,59.98440405,5f4cbdf9f599118d27c21442,64d2fd46c836a06233681665,64dc7f14707d0bc38769627e,,,,,,,sngl,resources/Empty.png,resources/DB.BMP,WildCard_NonEx,0.364821696,-0.024269496,1,0,0,0.9433,optionRight,45,10660,5,40,0,40,0,1,,,,,,,,,,,,,,,,,,,,,,,,,,,,,,,,,,,,,,,
,,,,,,,5f4cbdf9f599118d27c21442,2023-08-16_08h48.54.598,HF_wild_card,2022.2.4,Linux x86_64,59.98440405,5f4cbdf9f599118d27c21442,64d2fd46c836a06233681665,64dc7f14707d0bc38769627e,,,,,,,sngl,resources/DY.BMP,resources/Empty.png,Door4,-0.279680143,0.014647285,1,0,0,0.8114,optionLeft,80,10740,5,41,0,41,0,1,,,,,,,,,,,,,,,,,,,,,,,,,,,,,,,,,,,,,,,
,,,,,,,5f4cbdf9f599118d27c21442,2023-08-16_08h48.54.598,HF_wild_card,2022.2.4,Linux x86_64,59.98440405,5f4cbdf9f599118d27c21442,64d2fd46c836a06233681665,64dc7f14707d0bc38769627e,,,,,,,sngl,resources/DB.BMP,resources/Empty.png,WildCard_NonEx,-0.15232531,-0.013278927,1,0,0,0.9476,optionLeft,55,10795,5,42,0,42,0,1,,,,,,,,,,,,,,,,,,,,,,,,,,,,,,,,,,,,,,,
,,,,,,,5f4cbdf9f599118d27c21442,2023-08-16_08h48.54.598,HF_wild_card,2022.2.4,Linux x86_64,59.98440405,5f4cbdf9f599118d27c21442,64d2fd46c836a06233681665,64dc7f14707d0bc38769627e,,,,,,,sngl,resources/Empty.png,resources/DG.BMP,Door3,0.287716776,-0.032751723,1,0,0,0.8143,optionRight,70,10865,5,43,0,43,0,1,,,,,,,,,,,,,,,,,,,,,,,,,,,,,,,,,,,,,,,
,,,,,,,5f4cbdf9f599118d27c21442,2023-08-16_08h48.54.598,HF_wild_card,2022.2.4,Linux x86_64,59.98440405,5f4cbdf9f599118d27c21442,64d2fd46c836a06233681665,64dc7f14707d0bc38769627e,,,,,,,,,,,,,,,,,,,,,,,,,,4,0,4,0,1,,,,,,,,,,,,,,,,,,,,,,,,,,,,,,,,,,
,,,,,,,5f4cbdf9f599118d27c21442,2023-08-16_08h48.54.598,HF_wild_card,2022.2.4,Linux x86_64,59.98440405,5f4cbdf9f599118d27c21442,64d2fd46c836a06233681665,64dc7f14707d0bc38769627e,,,,,,,sngl,resources/Empty.png,resources/DP.BMP,Door2,0.367462527,-0.032837329,1,0,0,1.842,optionRight,40,10905,6,0,0,0,0,1,,,,,,,,,,,,,,,,,,,,,,,,,,,,,,,,,,,,,,,
,,,,,,,5f4cbdf9f599118d27c21442,2023-08-16_08h48.54.598,HF_wild_card,2022.2.4,Linux x86_64,59.98440405,5f4cbdf9f599118d27c21442,64d2fd46c836a06233681665,64dc7f14707d0bc38769627e,,,,,,,ctch,resources/DP.BMP,resources/DG.BMP,Door3,0.231503858,-0.054654908,1,0,0,1.5793,optionRight,70,10975,6,1,0,1,0,1,,,,,,,,,,,,,,,,,,,,,,,,,,,,,,,,,,,,,,,
,,,,,,,5f4cbdf9f599118d27c21442,2023-08-16_08h48.54.598,HF_wild_card,2022.2.4,Linux x86_64,59.98440405,5f4cbdf9f599118d27c21442,64d2fd46c836a06233681665,64dc7f14707d0bc38769627e,,,,,,,decisionTrl,resources/DY.BMP,resources/DG.BMP,Door4,-0.211290527,-0.028806473,1,0,0,1.1566,optionLeft,60,11035,6,2,0,2,0,1,,,,,,,,,,,,,,,,,,,,,,,,,,,,,,,,,,,,,,,
,,,,,,,5f4cbdf9f599118d27c21442,2023-08-16_08h48.54.598,HF_wild_card,2022.2.4,Linux x86_64,59.98440405,5f4cbdf9f599118d27c21442,64d2fd46c836a06233681665,64dc7f14707d0bc38769627e,,,,,,,decisionTrl,resources/DR.BMP,resources/DP.BMP,Door1,-0.322155909,-0.004631988,1,0,0,0.9971,optionLeft,30,11065,6,3,0,3,0,1,,,,,,,,,,,,,,,,,,,,,,,,,,,,,,,,,,,,,,,
,,,,,,,5f4cbdf9f599118d27c21442,2023-08-16_08h48.54.598,HF_wild_card,2022.2.4,Linux x86_64,59.98440405,5f4cbdf9f599118d27c21442,64d2fd46c836a06233681665,64dc7f14707d0bc38769627e,,,,,,,sngl,resources/DG.BMP,resources/Empty.png,Door3,-0.222311337,0.032385328,1,0,0,1.0378,optionLeft,70,11135,6,4,0,4,0,1,,,,,,,,,,,,,,,,,,,,,,,,,,,,,,,,,,,,,,,
,,,,,,,5f4cbdf9f599118d27c21442,2023-08-16_08h48.54.598,HF_wild_card,2022.2.4,Linux x86_64,59.98440405,5f4cbdf9f599118d27c21442,64d2fd46c836a06233681665,64dc7f14707d0bc38769627e,,,,,,,sngl,resources/Empty.png,resources/DY.BMP,Door4,0.304564508,-0.041879014,1,0,0,0.8101,optionRight,80,11215,6,5,0,5,0,1,,,,,,,,,,,,,,,,,,,,,,,,,,,,,,,,,,,,,,,
,,,,,,,5f4cbdf9f599118d27c21442,2023-08-16_08h48.54.598,HF_wild_card,2022.2.4,Linux x86_64,59.98440405,5f4cbdf9f599118d27c21442,64d2fd46c836a06233681665,64dc7f14707d0bc38769627e,,,,,,,decisionTrl,resources/DR.BMP,resources/DP.BMP,Door1,-0.213919648,-0.003029861,1,0,0,1.0398,optionLeft,30,11245,6,6,0,6,0,1,,,,,,,,,,,,,,,,,,,,,,,,,,,,,,,,,,,,,,,
,,,,,,,5f4cbdf9f599118d27c21442,2023-08-16_08h48.54.598,HF_wild_card,2022.2.4,Linux x86_64,59.98440405,5f4cbdf9f599118d27c21442,64d2fd46c836a06233681665,64dc7f14707d0bc38769627e,,,,,,,decisionTrl,resources/DG.BMP,resources/DY.BMP,Door4,0.348034354,0.01301441,1,0,0,0.9631,optionRight,60,11305,6,7,0,7,0,1,,,,,,,,,,,,,,,,,,,,,,,,,,,,,,,,,,,,,,,
,,,,,,,5f4cbdf9f599118d27c21442,2023-08-16_08h48.54.598,HF_wild_card,2022.2.4,Linux x86_64,59.98440405,5f4cbdf9f599118d27c21442,64d2fd46c836a06233681665,64dc7f14707d0bc38769627e,,,,,,,ctch,resources/DR.BMP,resources/DY.BMP,Door4,0.202910732,0.026899263,1,0,0,1.0636,optionRight,60,11365,6,8,0,8,0,1,,,,,,,,,,,,,,,,,,,,,,,,,,,,,,,,,,,,,,,
,,,,,,,5f4cbdf9f599118d27c21442,2023-08-16_08h48.54.598,HF_wild_card,2022.2.4,Linux x86_64,59.98440405,5f4cbdf9f599118d27c21442,64d2fd46c836a06233681665,64dc7f14707d0bc38769627e,,,,,,,decisionTrl,resources/DP.BMP,resources/DR.BMP,Door1,0.434023854,-0.031252074,1,0,0,1.4101,optionRight,30,11395,6,9,0,9,0,1,,,,,,,,,,,,,,,,,,,,,,,,,,,,,,,,,,,,,,,
,,,,,,,5f4cbdf9f599118d27c21442,2023-08-16_08h48.54.598,HF_wild_card,2022.2.4,Linux x86_64,59.98440405,5f4cbdf9f599118d27c21442,64d2fd46c836a06233681665,64dc7f14707d0bc38769627e,,,,,,,sngl,resources/Empty.png,resources/DB.BMP,WildCard_NonEx,0.329895573,0.005672582,1,0,0,0.8291,optionRight,55,11450,6,10,0,10,0,1,,,,,,,,,,,,,,,,,,,,,,,,,,,,,,,,,,,,,,,
,,,,,,,5f4cbdf9f599118d27c21442,2023-08-16_08h48.54.598,HF_wild_card,2022.2.4,Linux x86_64,59.98440405,5f4cbdf9f599118d27c21442,64d2fd46c836a06233681665,64dc7f14707d0bc38769627e,,,,,,,decisionTrl,resources/DY.BMP,resources/DB.BMP,Door4,-0.341370551,0.030180456,1,0,0,2.481,optionLeft,80,11530,6,11,0,11,0,1,,,,,,,,,,,,,,,,,,,,,,,,,,,,,,,,,,,,,,,
,,,,,,,5f4cbdf9f599118d27c21442,2023-08-16_08h48.54.598,HF_wild_card,2022.2.4,Linux x86_64,59.98440405,5f4cbdf9f599118d27c21442,64d2fd46c836a06233681665,64dc7f14707d0bc38769627e,,,,,,,sngl,resources/DB.BMP,resources/Empty.png,WildCard_NonEx,-0.199623684,-0.004303209,1,0,0,0.897,optionLeft,55,11585,6,12,0,12,0,1,,,,,,,,,,,,,,,,,,,,,,,,,,,,,,,,,,,,,,,
,,,,,,,5f4cbdf9f599118d27c21442,2023-08-16_08h48.54.598,HF_wild_card,2022.2.4,Linux x86_64,59.98440405,5f4cbdf9f599118d27c21442,64d2fd46c836a06233681665,64dc7f14707d0bc38769627e,,,,,,,ctch,resources/DY.BMP,resources/DR.BMP,Door4,-0.320552953,0.003637262,1,0,0,0.9628,optionLeft,80,11665,6,13,0,13,0,1,,,,,,,,,,,,,,,,,,,,,,,,,,,,,,,,,,,,,,,
,,,,,,,5f4cbdf9f599118d27c21442,2023-08-16_08h48.54.598,HF_wild_card,2022.2.4,Linux x86_64,59.98440405,5f4cbdf9f599118d27c21442,64d2fd46c836a06233681665,64dc7f14707d0bc38769627e,,,,,,,decisionTrl,resources/DB.BMP,resources/DG.BMP,WildCard_NonEx,-0.162239467,0.021325518,1,0,0,1.3677,optionLeft,45,11710,6,14,0,14,0,1,,,,,,,,,,,,,,,,,,,,,,,,,,,,,,,,,,,,,,,
,,,,,,,5f4cbdf9f599118d27c21442,2023-08-16_08h48.54.598,HF_wild_card,2022.2.4,Linux x86_64,59.98440405,5f4cbdf9f599118d27c21442,64d2fd46c836a06233681665,64dc7f14707d0bc38769627e,,,,,,,decisionTrl,resources/DG.BMP,resources/DY.BMP,Door4,0.241480801,0.011310174,1,0,0,0.8302,optionRight,80,11790,6,15,0,15,0,1,,,,,,,,,,,,,,,,,,,,,,,,,,,,,,,,,,,,,,,
,,,,,,,5f4cbdf9f599118d27c21442,2023-08-16_08h48.54.598,HF_wild_card,2022.2.4,Linux x86_64,59.98440405,5f4cbdf9f599118d27c21442,64d2fd46c836a06233681665,64dc7f14707d0bc38769627e,,,,,,,decisionTrl,resources/DG.BMP,resources/DB.BMP,WildCard_NonEx,0.222852355,0.019109905,1,0,0,1.0459,optionRight,45,11835,6,16,0,16,0,1,,,,,,,,,,,,,,,,,,,,,,,,,,,,,,,,,,,,,,,
,,,,,,,5f4cbdf9f599118d27c21442,2023-08-16_08h48.54.598,HF_wild_card,2022.2.4,Linux x86_64,59.98440405,5f4cbdf9f599118d27c21442,64d2fd46c836a06233681665,64dc7f14707d0bc38769627e,,,,,,,decisionTrl,resources/DG.BMP,resources/DY.BMP,Door4,0.192425685,0.020134733,1,0,0,1.0299,optionRight,80,11915,6,17,0,17,0,1,,,,,,,,,,,,,,,,,,,,,,,,,,,,,,,,,,,,,,,
,,,,,,,5f4cbdf9f599118d27c21442,2023-08-16_08h48.54.598,HF_wild_card,2022.2.4,Linux x86_64,59.98440405,5f4cbdf9f599118d27c21442,64d2fd46c836a06233681665,64dc7f14707d0bc38769627e,,,,,,,decisionTrl,resources/DG.BMP,resources/DY.BMP,Door4,0.297565011,0.067803651,1,0,0,0.9145,optionRight,60,11975,6,18,0,18,0,1,,,,,,,,,,,,,,,,,,,,,,,,,,,,,,,,,,,,,,,
,,,,,,,5f4cbdf9f599118d27c21442,2023-08-16_08h48.54.598,HF_wild_card,2022.2.4,Linux x86_64,59.98440405,5f4cbdf9f599118d27c21442,64d2fd46c836a06233681665,64dc7f14707d0bc38769627e,,,,,,,decisionTrl,resources/DP.BMP,resources/DR.BMP,Door1,0.246983462,0.0179749,1,0,0,1.1526,optionRight,30,12005,6,19,0,19,0,1,,,,,,,,,,,,,,,,,,,,,,,,,,,,,,,,,,,,,,,
,,,,,,,5f4cbdf9f599118d27c21442,2023-08-16_08h48.54.598,HF_wild_card,2022.2.4,Linux x86_64,59.98440405,5f4cbdf9f599118d27c21442,64d2fd46c836a06233681665,64dc7f14707d0bc38769627e,,,,,,,decisionTrl,resources/DR.BMP,resources/DB.BMP,WildCard_NonEx,0.282694099,-0.021014718,1,0,0,1.4626,optionRight,45,12050,6,20,0,20,0,1,,,,,,,,,,,,,,,,,,,,,,,,,,,,,,,,,,,,,,,
,,,,,,,5f4cbdf9f599118d27c21442,2023-08-16_08h48.54.598,HF_wild_card,2022.2.4,Linux x86_64,59.98440405,5f4cbdf9f599118d27c21442,64d2fd46c836a06233681665,64dc7f14707d0bc38769627e,,,,,,,sngl,resources/Empty.png,resources/DG.BMP,Door3,0.214179278,0.014511385,1,0,0,3.0754,optionRight,70,12120,6,21,0,21,0,1,,,,,,,,,,,,,,,,,,,,,,,,,,,,,,,,,,,,,,,
,,,,,,,5f4cbdf9f599118d27c21442,2023-08-16_08h48.54.598,HF_wild_card,2022.2.4,Linux x86_64,59.98440405,5f4cbdf9f599118d27c21442,64d2fd46c836a06233681665,64dc7f14707d0bc38769627e,,,,,,,decisionTrl,resources/DP.BMP,resources/DB.BMP,WildCard_NonEx,0.240433154,0.031226351,1,0,0,1.2629,optionRight,55,12175,6,22,0,22,0,1,,,,,,,,,,,,,,,,,,,,,,,,,,,,,,,,,,,,,,,
,,,,,,,5f4cbdf9f599118d27c21442,2023-08-16_08h48.54.598,HF_wild_card,2022.2.4,Linux x86_64,59.98440405,5f4cbdf9f599118d27c21442,64d2fd46c836a06233681665,64dc7f14707d0bc38769627e,,,,,,,sngl,resources/DB.BMP,resources/Empty.png,WildCard_NonEx,-0.266924717,0.021657938,1,0,0,1.0785,optionLeft,45,12220,6,23,0,23,0,1,,,,,,,,,,,,,,,,,,,,,,,,,,,,,,,,,,,,,,,
,,,,,,,5f4cbdf9f599118d27c21442,2023-08-16_08h48.54.598,HF_wild_card,2022.2.4,Linux x86_64,59.98440405,5f4cbdf9f599118d27c21442,64d2fd46c836a06233681665,64dc7f14707d0bc38769627e,,,,,,,decisionTrl,resources/DR.BMP,resources/DP.BMP,Door2,0.326063266,-0.029764827,1,0,0,4.0469,optionRight,40,12260,6,24,0,24,0,1,,,,,,,,,,,,,,,,,,,,,,,,,,,,,,,,,,,,,,,
,,,,,,,5f4cbdf9f599118d27c21442,2023-08-16_08h48.54.598,HF_wild_card,2022.2.4,Linux x86_64,59.98440405,5f4cbdf9f599118d27c21442,64d2fd46c836a06233681665,64dc7f14707d0bc38769627e,,,,,,,decisionTrl,resources/DB.BMP,resources/DR.BMP,Door1,0.374498534,-0.018826303,1,0,0,1.2631,optionRight,30,12290,6,25,0,25,0,1,,,,,,,,,,,,,,,,,,,,,,,,,,,,,,,,,,,,,,,
,,,,,,,5f4cbdf9f599118d27c21442,2023-08-16_08h48.54.598,HF_wild_card,2022.2.4,Linux x86_64,59.98440405,5f4cbdf9f599118d27c21442,64d2fd46c836a06233681665,64dc7f14707d0bc38769627e,,,,,,,sngl,resources/Empty.png,resources/DB.BMP,WildCard_NonEx,0.237100561,0.027908417,1,0,0,0.9121,optionRight,45,12335,6,26,0,26,0,1,,,,,,,,,,,,,,,,,,,,,,,,,,,,,,,,,,,,,,,
,,,,,,,5f4cbdf9f599118d27c21442,2023-08-16_08h48.54.598,HF_wild_card,2022.2.4,Linux x86_64,59.98440405,5f4cbdf9f599118d27c21442,64d2fd46c836a06233681665,64dc7f14707d0bc38769627e,,,,,,,ctch,resources/DG.BMP,resources/DP.BMP,Door3,-0.171445726,0.001990373,1,0,0,1.9297,optionLeft,70,12405,6,27,0,27,0,1,,,,,,,,,,,,,,,,,,,,,,,,,,,,,,,,,,,,,,,
,,,,,,,5f4cbdf9f599118d27c21442,2023-08-16_08h48.54.598,HF_wild_card,2022.2.4,Linux x86_64,59.98440405,5f4cbdf9f599118d27c21442,64d2fd46c836a06233681665,64dc7f14707d0bc38769627e,,,,,,,sngl,resources/DP.BMP,resources/Empty.png,Door2,-0.203829301,-0.003678567,1,0,0,1.0796,optionLeft,20,12425,6,28,0,28,0,1,,,,,,,,,,,,,,,,,,,,,,,,,,,,,,,,,,,,,,,
,,,,,,,5f4cbdf9f599118d27c21442,2023-08-16_08h48.54.598,HF_wild_card,2022.2.4,Linux x86_64,59.98440405,5f4cbdf9f599118d27c21442,64d2fd46c836a06233681665,64dc7f14707d0bc38769627e,,,,,,,decisionTrl,resources/DB.BMP,resources/DY.BMP,Door4,0.230373233,-0.044088542,1,0,0,0.9804,optionRight,60,12485,6,29,0,29,0,1,,,,,,,,,,,,,,,,,,,,,,,,,,,,,,,,,,,,,,,
,,,,,,,5f4cbdf9f599118d27c21442,2023-08-16_08h48.54.598,HF_wild_card,2022.2.4,Linux x86_64,59.98440405,5f4cbdf9f599118d27c21442,64d2fd46c836a06233681665,64dc7f14707d0bc38769627e,,,,,,,sngl,resources/DR.BMP,resources/Empty.png,Door1,-0.137297201,-0.012906538,1,0,0,1.563,optionLeft,30,12515,6,30,0,30,0,1,,,,,,,,,,,,,,,,,,,,,,,,,,,,,,,,,,,,,,,
,,,,,,,5f4cbdf9f599118d27c21442,2023-08-16_08h48.54.598,HF_wild_card,2022.2.4,Linux x86_64,59.98440405,5f4cbdf9f599118d27c21442,64d2fd46c836a06233681665,64dc7f14707d0bc38769627e,,,,,,,decisionTrl,resources/DY.BMP,resources/DG.BMP,Door4,-0.221822041,-0.002734274,1,0,0,1.0969,optionLeft,80,12595,6,31,0,31,0,1,,,,,,,,,,,,,,,,,,,,,,,,,,,,,,,,,,,,,,,
,,,,,,,5f4cbdf9f599118d27c21442,2023-08-16_08h48.54.598,HF_wild_card,2022.2.4,Linux x86_64,59.98440405,5f4cbdf9f599118d27c21442,64d2fd46c836a06233681665,64dc7f14707d0bc38769627e,,,,,,,decisionTrl,resources/DR.BMP,resources/DP.BMP,Door2,0.195045033,-0.025805885,1,0,0,1.6963,optionRight,40,12635,6,32,0,32,0,1,,,,,,,,,,,,,,,,,,,,,,,,,,,,,,,,,,,,,,,
,,,,,,,5f4cbdf9f599118d27c21442,2023-08-16_08h48.54.598,HF_wild_card,2022.2.4,Linux x86_64,59.98440405,5f4cbdf9f599118d27c21442,64d2fd46c836a06233681665,64dc7f14707d0bc38769627e,,,,,,,decisionTrl,resources/DP.BMP,resources/DR.BMP,Door2,-0.205696129,-0.02264644,1,0,0,1.0795,optionLeft,40,12675,6,33,0,33,0,1,,,,,,,,,,,,,,,,,,,,,,,,,,,,,,,,,,,,,,,
,,,,,,,5f4cbdf9f599118d27c21442,2023-08-16_08h48.54.598,HF_wild_card,2022.2.4,Linux x86_64,59.98440405,5f4cbdf9f599118d27c21442,64d2fd46c836a06233681665,64dc7f14707d0bc38769627e,,,,,,,decisionTrl,resources/DY.BMP,resources/DG.BMP,Door4,-0.381721427,-0.02250699,1,0,0,1.1508,optionLeft,60,12735,6,34,0,34,0,1,,,,,,,,,,,,,,,,,,,,,,,,,,,,,,,,,,,,,,,
,,,,,,,5f4cbdf9f599118d27c21442,2023-08-16_08h48.54.598,HF_wild_card,2022.2.4,Linux x86_64,59.98440405,5f4cbdf9f599118d27c21442,64d2fd46c836a06233681665,64dc7f14707d0bc38769627e,,,,,,,ctch,resources/DY.BMP,resources/DR.BMP,Door4,-0.147311023,-0.00303507,1,0,0,1.1476,optionLeft,60,12795,6,35,0,35,0,1,,,,,,,,,,,,,,,,,,,,,,,,,,,,,,,,,,,,,,,
,,,,,,,5f4cbdf9f599118d27c21442,2023-08-16_08h48.54.598,HF_wild_card,2022.2.4,Linux x86_64,59.98440405,5f4cbdf9f599118d27c21442,64d2fd46c836a06233681665,64dc7f14707d0bc38769627e,,,,,,,decisionTrl,resources/DP.BMP,resources/DR.BMP,Door2,-0.31690707,0.013068254,1,0,0,2.6586,optionLeft,40,12835,6,36,0,36,0,1,,,,,,,,,,,,,,,,,,,,,,,,,,,,,,,,,,,,,,,
,,,,,,,5f4cbdf9f599118d27c21442,2023-08-16_08h48.54.598,HF_wild_card,2022.2.4,Linux x86_64,59.98440405,5f4cbdf9f599118d27c21442,64d2fd46c836a06233681665,64dc7f14707d0bc38769627e,,,,,,,decisionTrl,resources/DY.BMP,resources/DG.BMP,Door4,-0.311445668,0.010496894,1,0,0,1.0898,optionLeft,80,12915,6,37,0,37,0,1,,,,,,,,,,,,,,,,,,,,,,,,,,,,,,,,,,,,,,,
,,,,,,,5f4cbdf9f599118d27c21442,2023-08-16_08h48.54.598,HF_wild_card,2022.2.4,Linux x86_64,59.98440405,5f4cbdf9f599118d27c21442,64d2fd46c836a06233681665,64dc7f14707d0bc38769627e,,,,,,,sngl,resources/DY.BMP,resources/Empty.png,Door4,-0.313905007,0.008775187,1,0,0,0.9137,optionLeft,60,12975,6,38,0,38,0,1,,,,,,,,,,,,,,,,,,,,,,,,,,,,,,,,,,,,,,,
,,,,,,,5f4cbdf9f599118d27c21442,2023-08-16_08h48.54.598,HF_wild_card,2022.2.4,Linux x86_64,59.98440405,5f4cbdf9f599118d27c21442,64d2fd46c836a06233681665,64dc7f14707d0bc38769627e,,,,,,,ctch,resources/DG.BMP,resources/DP.BMP,Door3,-0.298729012,0.025769144,1,0,0,1.7954,optionLeft,70,13045,6,39,0,39,0,1,,,,,,,,,,,,,,,,,,,,,,,,,,,,,,,,,,,,,,,
,,,,,,,5f4cbdf9f599118d27c21442,2023-08-16_08h48.54.598,HF_wild_card,2022.2.4,Linux x86_64,59.98440405,5f4cbdf9f599118d27c21442,64d2fd46c836a06233681665,64dc7f14707d0bc38769627e,,,,,,,sngl,resources/Empty.png,resources/DR.BMP,Door1,0.189189992,0.004239177,1,0,0,1.08,optionRight,30,13075,6,40,0,40,0,1,,,,,,,,,,,,,,,,,,,,,,,,,,,,,,,,,,,,,,,
,,,,,,,5f4cbdf9f599118d27c21442,2023-08-16_08h48.54.598,HF_wild_card,2022.2.4,Linux x86_64,59.98440405,5f4cbdf9f599118d27c21442,64d2fd46c836a06233681665,64dc7f14707d0bc38769627e,,,,,,,decisionTrl,resources/DB.BMP,resources/DP.BMP,WildCard_NonEx,-0.157755872,0.028592251,1,0,0,2.0451,optionLeft,45,13120,6,41,0,41,0,1,,,,,,,,,,,,,,,,,,,,,,,,,,,,,,,,,,,,,,,
,,,,,,,5f4cbdf9f599118d27c21442,2023-08-16_08h48.54.598,HF_wild_card,2022.2.4,Linux x86_64,59.98440405,5f4cbdf9f599118d27c21442,64d2fd46c836a06233681665,64dc7f14707d0bc38769627e,,,,,,,ctch,resources/DP.BMP,resources/DG.BMP,Door3,0.292531547,-0.024660785,1,0,0,1.2267,optionRight,70,13190,6,42,0,42,0,1,,,,,,,,,,,,,,,,,,,,,,,,,,,,,,,,,,,,,,,
,,,,,,,5f4cbdf9f599118d27c21442,2023-08-16_08h48.54.598,HF_wild_card,2022.2.4,Linux x86_64,59.98440405,5f4cbdf9f599118d27c21442,64d2fd46c836a06233681665,64dc7f14707d0bc38769627e,,,,,,,ctch,resources/DR.BMP,resources/DY.BMP,Door4,0.276051132,-0.017793408,1,0,0,0.9365,optionRight,60,13250,6,43,0,43,0,1,,,,,,,,,,,,,,,,,,,,,,,,,,,,,,,,,,,,,,,
,,,,,,,5f4cbdf9f599118d27c21442,2023-08-16_08h48.54.598,HF_wild_card,2022.2.4,Linux x86_64,59.98440405,5f4cbdf9f599118d27c21442,64d2fd46c836a06233681665,64dc7f14707d0bc38769627e,,,,,,,,,,,,,,,,,,,,,,,,,,5,0,5,0,1,,,,,,,,,,,,,,,,,,,,,,,,,,,,,,,,,,
,,,,,,,5f4cbdf9f599118d27c21442,2023-08-16_08h48.54.598,HF_wild_card,2022.2.4,Linux x86_64,59.98440405,5f4cbdf9f599118d27c21442,64d2fd46c836a06233681665,64dc7f14707d0bc38769627e,,,,,,,ctch,resources/DP.BMP,resources/DG.BMP,Door3,0.199742343,-0.062459202,1,0,0,1.2673,optionRight,70,13320,7,0,0,0,0,1,,,,,,,,,,,,,,,,,,,,,,,,,,,,,,,,,,,,,,,
,,,,,,,5f4cbdf9f599118d27c21442,2023-08-16_08h48.54.598,HF_wild_card,2022.2.4,Linux x86_64,59.98440405,5f4cbdf9f599118d27c21442,64d2fd46c836a06233681665,64dc7f14707d0bc38769627e,,,,,,,ctch,resources/DR.BMP,resources/DY.BMP,Door4,0.303160791,0.007481232,1,0,0,0.8061,optionRight,80,13400,7,1,0,1,0,1,,,,,,,,,,,,,,,,,,,,,,,,,,,,,,,,,,,,,,,
,,,,,,,5f4cbdf9f599118d27c21442,2023-08-16_08h48.54.598,HF_wild_card,2022.2.4,Linux x86_64,59.98440405,5f4cbdf9f599118d27c21442,64d2fd46c836a06233681665,64dc7f14707d0bc38769627e,,,,,,,ctch,resources/DR.BMP,resources/DY.BMP,Door4,0.340705341,0.04917101,1,0,0,0.8819,optionRight,60,13460,7,2,0,2,0,1,,,,,,,,,,,,,,,,,,,,,,,,,,,,,,,,,,,,,,,
,,,,,,,5f4cbdf9f599118d27c21442,2023-08-16_08h48.54.598,HF_wild_card,2022.2.4,Linux x86_64,59.98440405,5f4cbdf9f599118d27c21442,64d2fd46c836a06233681665,64dc7f14707d0bc38769627e,,,,,,,decisionTrl,resources/DR.BMP,resources/DP.BMP,Door2,0.160268916,0.022961988,1,0,0,2.153,optionRight,40,13500,7,3,0,3,0,1,,,,,,,,,,,,,,,,,,,,,,,,,,,,,,,,,,,,,,,
,,,,,,,5f4cbdf9f599118d27c21442,2023-08-16_08h48.54.598,HF_wild_card,2022.2.4,Linux x86_64,59.98440405,5f4cbdf9f599118d27c21442,64d2fd46c836a06233681665,64dc7f14707d0bc38769627e,,,,,,,decisionTrl,resources/DG.BMP,resources/DY.BMP,Door4,0.230013568,0.006503379,1,0,0,1.082,optionRight,60,13560,7,4,0,4,0,1,,,,,,,,,,,,,,,,,,,,,,,,,,,,,,,,,,,,,,,
,,,,,,,5f4cbdf9f599118d27c21442,2023-08-16_08h48.54.598,HF_wild_card,2022.2.4,Linux x86_64,59.98440405,5f4cbdf9f599118d27c21442,64d2fd46c836a06233681665,64dc7f14707d0bc38769627e,,,,,,,decisionTrl,resources/DP.BMP,resources/DR.BMP,Door2,-0.331536561,0.041944567,1,0,0,2.2971,optionLeft,40,13600,7,5,0,5,0,1,,,,,,,,,,,,,,,,,,,,,,,,,,,,,,,,,,,,,,,
,,,,,,,5f4cbdf9f599118d27c21442,2023-08-16_08h48.54.598,HF_wild_card,2022.2.4,Linux x86_64,59.98440405,5f4cbdf9f599118d27c21442,64d2fd46c836a06233681665,64dc7f14707d0bc38769627e,,,,,,,decisionTrl,resources/DR.BMP,resources/DP.BMP,Door2,0.151044402,0.019437116,1,0,0,1.8804,optionRight,20,13620,7,6,0,6,0,1,,,,,,,,,,,,,,,,,,,,,,,,,,,,,,,,,,,,,,,
,,,,,,,5f4cbdf9f599118d27c21442,2023-08-16_08h48.54.598,HF_wild_card,2022.2.4,Linux x86_64,59.98440405,5f4cbdf9f599118d27c21442,64d2fd46c836a06233681665,64dc7f14707d0bc38769627e,,,,,,,decisionTrl,resources/DG.BMP,resources/DY.BMP,Door4,0.308033739,0.015806169,1,0,0,1.81,optionRight,60,13680,7,7,0,7,0,1,,,,,,,,,,,,,,,,,,,,,,,,,,,,,,,,,,,,,,,
,,,,,,,5f4cbdf9f599118d27c21442,2023-08-16_08h48.54.598,HF_wild_card,2022.2.4,Linux x86_64,59.98440405,5f4cbdf9f599118d27c21442,64d2fd46c836a06233681665,64dc7f14707d0bc38769627e,,,,,,,ctch,resources/DY.BMP,resources/DR.BMP,Door4,-0.255726886,0.034842177,1,0,0,1.1313,optionLeft,60,13740,7,8,0,8,0,1,,,,,,,,,,,,,,,,,,,,,,,,,,,,,,,,,,,,,,,
,,,,,,,5f4cbdf9f599118d27c21442,2023-08-16_08h48.54.598,HF_wild_card,2022.2.4,Linux x86_64,59.98440405,5f4cbdf9f599118d27c21442,64d2fd46c836a06233681665,64dc7f14707d0bc38769627e,,,,,,,decisionTrl,resources/DY.BMP,resources/DG.BMP,Door4,-0.177386327,0.028741474,1,0,0,2.6979,optionLeft,80,13820,7,9,0,9,0,1,,,,,,,,,,,,,,,,,,,,,,,,,,,,,,,,,,,,,,,
,,,,,,,5f4cbdf9f599118d27c21442,2023-08-16_08h48.54.598,HF_wild_card,2022.2.4,Linux x86_64,59.98440405,5f4cbdf9f599118d27c21442,64d2fd46c836a06233681665,64dc7f14707d0bc38769627e,,,,,,,decisionTrl,resources/DY.BMP,resources/DG.BMP,Door4,-0.256129239,-0.006155515,1,0,0,1.0985,optionLeft,80,13900,7,10,0,10,0,1,,,,,,,,,,,,,,,,,,,,,,,,,,,,,,,,,,,,,,,
,,,,,,,5f4cbdf9f599118d27c21442,2023-08-16_08h48.54.598,HF_wild_card,2022.2.4,Linux x86_64,59.98440405,5f4cbdf9f599118d27c21442,64d2fd46c836a06233681665,64dc7f14707d0bc38769627e,,,,,,,ctch,resources/DG.BMP,resources/DP.BMP,Door3,-0.246684371,0.024441399,1,0,0,1.3669,optionLeft,70,13970,7,11,0,11,0,1,,,,,,,,,,,,,,,,,,,,,,,,,,,,,,,,,,,,,,,
,,,,,,,5f4cbdf9f599118d27c21442,2023-08-16_08h48.54.598,HF_wild_card,2022.2.4,Linux x86_64,59.98440405,5f4cbdf9f599118d27c21442,64d2fd46c836a06233681665,64dc7f14707d0bc38769627e,,,,,,,decisionTrl,resources/DY.BMP,resources/DG.BMP,Door4,-0.12744574,-0.01471081,1,0,0,2.5805,optionLeft,80,14050,7,12,0,12,0,1,,,,,,,,,,,,,,,,,,,,,,,,,,,,,,,,,,,,,,,
,,,,,,,5f4cbdf9f599118d27c21442,2023-08-16_08h48.54.598,HF_wild_card,2022.2.4,Linux x86_64,59.98440405,5f4cbdf9f599118d27c21442,64d2fd46c836a06233681665,64dc7f14707d0bc38769627e,,,,,,,decisionTrl,resources/DR.BMP,resources/DP.BMP,Door2,0.255112478,-0.009947855,1,0,0,1.4823,optionRight,40,14090,7,13,0,13,0,1,,,,,,,,,,,,,,,,,,,,,,,,,,,,,,,,,,,,,,,
,,,,,,,5f4cbdf9f599118d27c21442,2023-08-16_08h48.54.598,HF_wild_card,2022.2.4,Linux x86_64,59.98440405,5f4cbdf9f599118d27c21442,64d2fd46c836a06233681665,64dc7f14707d0bc38769627e,,,,,,,decisionTrl,resources/DP.BMP,resources/DR.BMP,Door2,-0.31799238,0.011109643,1,0,0,1.0467,optionLeft,20,14110,7,14,0,14,0,1,,,,,,,,,,,,,,,,,,,,,,,,,,,,,,,,,,,,,,,
