Condition,Low fixed image (Door1),Low risky image (Door2),High fixed image (Door3),High risky image (Door4),Extreme Wild Card,NonExtreme Wild Card,,date,expName,psychopyVersion,OS,frameRate,PROLIFIC_PID,STUDY_ID,SESSION_ID,mouse_2.x,mouse_2.y,mouse_2.leftButton,mouse_2.midButton,mouse_2.rightButton,mouse_2.clicked_name,Trial Type,Left Option Image,Right Option Image,Chosen Door,mouse.x,mouse.y,mouse.leftButton,mouse.midButton,mouse.rightButton,mouse.time,mouse.clicked_name,Feedback,Cumulative Reward,Block,trial.thisRepN,trial.thisTrialN,trial.thisN,trial.thisIndex,trial.ran,blocks.thisRepN,blocks.thisTrialN,blocks.thisN,blocks.thisIndex,blocks.ran,Money conversion,First Outcome Reported,Shown Door (First Outcome),Displayed Image (First Outcome),outcomes.thisRepN,outcomes.thisTrialN,outcomes.thisN,outcomes.thisIndex,outcomes.ran,judgments.thisRepN,judgments.thisTrialN,judgments.thisN,judgments.thisIndex,judgments.ran,freqMouse.x,freqMouse.y,freqMouse.leftButton,freqMouse.midButton,freqMouse.rightButton,freqMouse.clicked_name,FQJ for first outcome,FQJ for second outcome,Shown Door,Displayed Image,trials.thisRepN,trials.thisTrialN,trials.thisN,trials.thisIndex,trials.ran,judgBlock.thisRepN,judgBlock.thisTrialN,judgBlock.thisN,judgBlock.thisIndex,judgBlock.ran
0,resources/DB.BMP,resources/DR.BMP,resources/DP.BMP,resources/DBN.BMP,resources/DY.BMP,resources/DG.BMP,,2023-08-16_08h46.41.669,HF_wild_card,2022.2.4,MacIntel,60.0024001,5b1562981e55760001ba1e64,64d2fd46c836a06233681665,64dc7e53dbb42702cad3cde5,,,,,,,,,,,,,,,,,,,,,,,,,,,,,,,,,,,,,,,,,,,,,,,,,,,,,,,,,,,,,,,,
,,,,,,,,2023-08-16_08h46.41.669,HF_wild_card,2022.2.4,MacIntel,60.0024001,5b1562981e55760001ba1e64,64d2fd46c836a06233681665,64dc7e53dbb42702cad3cde5,0.020559896,-0.419982639,1,0,0,agree,,,,,,,,,,,,,,,,,,,,,,,,,,,,,,,,,,,,,,,,,,,,,,,,,,,,,,,,,,
,,,,,,,,2023-08-16_08h46.41.669,HF_wild_card,2022.2.4,MacIntel,60.0024001,5b1562981e55760001ba1e64,64d2fd46c836a06233681665,64dc7e53dbb42702cad3cde5,,,,,,,,,,,,,,,,,,,,,,,,,,,,,,,,,,,,,,,,,,,,,,,,,,,,,,,,,,,,,,,,
,,,,,,,,2023-08-16_08h46.41.669,HF_wild_card,2022.2.4,MacIntel,60.0024001,5b1562981e55760001ba1e64,64d2fd46c836a06233681665,64dc7e53dbb42702cad3cde5,,,,,,,sngl,resources/Empty.png,resources/DY.BMP,WildCard_Ex,0.402938368,0.008949653,1,0,0,2.1425,optionRight,95,95,1,0,0,0,0,1,,,,,,,,,,,,,,,,,,,,,,,,,,,,,,,,,,,,,,,
,,,,,,,,2023-08-16_08h46.41.669,HF_wild_card,2022.2.4,MacIntel,60.0024001,5b1562981e55760001ba1e64,64d2fd46c836a06233681665,64dc7e53dbb42702cad3cde5,,,,,,,sngl,resources/DBN.BMP,resources/Empty.png,Door4,-0.355334201,-0.034192708,1,0,0,2.2606,optionLeft,80,175,1,1,0,1,0,1,,,,,,,,,,,,,,,,,,,,,,,,,,,,,,,,,,,,,,,
,,,,,,,,2023-08-16_08h46.41.669,HF_wild_card,2022.2.4,MacIntel,60.0024001,5b1562981e55760001ba1e64,64d2fd46c836a06233681665,64dc7e53dbb42702cad3cde5,,,,,,,decisionTrl,resources/DBN.BMP,resources/DY.BMP,WildCard_Ex,0.398919271,0.016966146,1,0,0,3.5777,optionRight,95,270,1,2,0,2,0,1,,,,,,,,,,,,,,,,,,,,,,,,,,,,,,,,,,,,,,,
,,,,,,,,2023-08-16_08h46.41.669,HF_wild_card,2022.2.4,MacIntel,60.0024001,5b1562981e55760001ba1e64,64d2fd46c836a06233681665,64dc7e53dbb42702cad3cde5,,,,,,,sngl,resources/Empty.png,resources/DR.BMP,Door2,0.317482639,0.026579861,1,0,0,1.8653,optionRight,20,290,1,3,0,3,0,1,,,,,,,,,,,,,,,,,,,,,,,,,,,,,,,,,,,,,,,
,,,,,,,,2023-08-16_08h46.41.669,HF_wild_card,2022.2.4,MacIntel,60.0024001,5b1562981e55760001ba1e64,64d2fd46c836a06233681665,64dc7e53dbb42702cad3cde5,,,,,,,ctch,resources/DB.BMP,resources/DBN.BMP,Door1,-0.291232639,-0.027621528,1,0,0,2.3817,optionLeft,30,320,1,4,0,4,0,1,,,,,,,,,,,,,,,,,,,,,,,,,,,,,,,,,,,,,,,
,,,,,,,,2023-08-16_08h46.41.669,HF_wild_card,2022.2.4,MacIntel,60.0024001,5b1562981e55760001ba1e64,64d2fd46c836a06233681665,64dc7e53dbb42702cad3cde5,,,,,,,decisionTrl,resources/DBN.BMP,resources/DP.BMP,Door4,-0.232395833,0.002760417,1,0,0,1.0473,optionLeft,80,400,1,5,0,5,0,1,,,,,,,,,,,,,,,,,,,,,,,,,,,,,,,,,,,,,,,
,,,,,,,,2023-08-16_08h46.41.669,HF_wild_card,2022.2.4,MacIntel,60.0024001,5b1562981e55760001ba1e64,64d2fd46c836a06233681665,64dc7e53dbb42702cad3cde5,,,,,,,sngl,resources/DY.BMP,resources/Empty.png,WildCard_Ex,-0.245434028,0.038337674,1,0,0,1.8817,optionLeft,95,495,1,6,0,6,0,1,,,,,,,,,,,,,,,,,,,,,,,,,,,,,,,,,,,,,,,
,,,,,,,,2023-08-16_08h46.41.669,HF_wild_card,2022.2.4,MacIntel,60.0024001,5b1562981e55760001ba1e64,64d2fd46c836a06233681665,64dc7e53dbb42702cad3cde5,,,,,,,sngl,resources/DR.BMP,resources/Empty.png,Door2,-0.371384549,0.006111111,1,0,0,1.2968,optionLeft,40,535,1,7,0,7,0,1,,,,,,,,,,,,,,,,,,,,,,,,,,,,,,,,,,,,,,,
,,,,,,,,2023-08-16_08h46.41.669,HF_wild_card,2022.2.4,MacIntel,60.0024001,5b1562981e55760001ba1e64,64d2fd46c836a06233681665,64dc7e53dbb42702cad3cde5,,,,,,,decisionTrl,resources/DB.BMP,resources/DR.BMP,Door1,-0.309388021,0.001210937,1,0,0,1.6497,optionLeft,30,565,1,8,0,8,0,1,,,,,,,,,,,,,,,,,,,,,,,,,,,,,,,,,,,,,,,
,,,,,,,,2023-08-16_08h46.41.669,HF_wild_card,2022.2.4,MacIntel,60.0024001,5b1562981e55760001ba1e64,64d2fd46c836a06233681665,64dc7e53dbb42702cad3cde5,,,,,,,ctch,resources/DP.BMP,resources/DR.BMP,Door3,-0.378732639,0.000928819,1,0,0,2.2966,optionLeft,70,635,1,9,0,9,0,1,,,,,,,,,,,,,,,,,,,,,,,,,,,,,,,,,,,,,,,
,,,,,,,,2023-08-16_08h46.41.669,HF_wild_card,2022.2.4,MacIntel,60.0024001,5b1562981e55760001ba1e64,64d2fd46c836a06233681665,64dc7e53dbb42702cad3cde5,,,,,,,decisionTrl,resources/DR.BMP,resources/DB.BMP,Door2,-0.278064236,0.021484375,1,0,0,3.1313,optionLeft,20,655,1,10,0,10,0,1,,,,,,,,,,,,,,,,,,,,,,,,,,,,,,,,,,,,,,,
,,,,,,,,2023-08-16_08h46.41.669,HF_wild_card,2022.2.4,MacIntel,60.0024001,5b1562981e55760001ba1e64,64d2fd46c836a06233681665,64dc7e53dbb42702cad3cde5,,,,,,,decisionTrl,resources/DBN.BMP,resources/DP.BMP,Door4,-0.392070313,0.03656684,1,0,0,2.0965,optionLeft,60,715,1,11,0,11,0,1,,,,,,,,,,,,,,,,,,,,,,,,,,,,,,,,,,,,,,,
,,,,,,,,2023-08-16_08h46.41.669,HF_wild_card,2022.2.4,MacIntel,60.0024001,5b1562981e55760001ba1e64,64d2fd46c836a06233681665,64dc7e53dbb42702cad3cde5,,,,,,,decisionTrl,resources/DB.BMP,resources/DR.BMP,Door1,-0.43578559,-0.035078125,1,0,0,2.3797,optionLeft,30,745,1,12,0,12,0,1,,,,,,,,,,,,,,,,,,,,,,,,,,,,,,,,,,,,,,,
,,,,,,,,2023-08-16_08h46.41.669,HF_wild_card,2022.2.4,MacIntel,60.0024001,5b1562981e55760001ba1e64,64d2fd46c836a06233681665,64dc7e53dbb42702cad3cde5,,,,,,,sngl,resources/Empty.png,resources/DBN.BMP,Door4,0.333142361,0.048823785,1,0,0,1.0469,optionRight,60,805,1,13,0,13,0,1,,,,,,,,,,,,,,,,,,,,,,,,,,,,,,,,,,,,,,,
,,,,,,,,2023-08-16_08h46.41.669,HF_wild_card,2022.2.4,MacIntel,60.0024001,5b1562981e55760001ba1e64,64d2fd46c836a06233681665,64dc7e53dbb42702cad3cde5,,,,,,,decisionTrl,resources/DB.BMP,resources/DR.BMP,Door1,-0.407269965,0.029131944,1,0,0,1.6331,optionLeft,30,835,1,14,0,14,0,1,,,,,,,,,,,,,,,,,,,,,,,,,,,,,,,,,,,,,,,
,,,,,,,,2023-08-16_08h46.41.669,HF_wild_card,2022.2.4,MacIntel,60.0024001,5b1562981e55760001ba1e64,64d2fd46c836a06233681665,64dc7e53dbb42702cad3cde5,,,,,,,sngl,resources/DP.BMP,resources/Empty.png,Door3,-0.417287326,-0.015026042,1,0,0,0.895,optionLeft,70,905,1,15,0,15,0,1,,,,,,,,,,,,,,,,,,,,,,,,,,,,,,,,,,,,,,,
,,,,,,,,2023-08-16_08h46.41.669,HF_wild_card,2022.2.4,MacIntel,60.0024001,5b1562981e55760001ba1e64,64d2fd46c836a06233681665,64dc7e53dbb42702cad3cde5,,,,,,,decisionTrl,resources/DP.BMP,resources/DBN.BMP,Door3,-0.407217882,-0.025364583,1,0,0,2.3799,optionLeft,70,975,1,16,0,16,0,1,,,,,,,,,,,,,,,,,,,,,,,,,,,,,,,,,,,,,,,
,,,,,,,,2023-08-16_08h46.41.669,HF_wild_card,2022.2.4,MacIntel,60.0024001,5b1562981e55760001ba1e64,64d2fd46c836a06233681665,64dc7e53dbb42702cad3cde5,,,,,,,decisionTrl,resources/DBN.BMP,resources/DP.BMP,Door3,0.315976563,-0.008289931,1,0,0,2.1825,optionRight,70,1045,1,17,0,17,0,1,,,,,,,,,,,,,,,,,,,,,,,,,,,,,,,,,,,,,,,
,,,,,,,,2023-08-16_08h46.41.669,HF_wild_card,2022.2.4,MacIntel,60.0024001,5b1562981e55760001ba1e64,64d2fd46c836a06233681665,64dc7e53dbb42702cad3cde5,,,,,,,ctch,resources/DBN.BMP,resources/DB.BMP,Door4,-0.426137153,0.023363715,1,0,0,2.5798,optionLeft,60,1105,1,18,0,18,0,1,,,,,,,,,,,,,,,,,,,,,,,,,,,,,,,,,,,,,,,
,,,,,,,,2023-08-16_08h46.41.669,HF_wild_card,2022.2.4,MacIntel,60.0024001,5b1562981e55760001ba1e64,64d2fd46c836a06233681665,64dc7e53dbb42702cad3cde5,,,,,,,decisionTrl,resources/DR.BMP,resources/DY.BMP,Door2,-0.374492188,-0.018394097,1,0,0,1.7145,optionLeft,20,1125,1,19,0,19,0,1,,,,,,,,,,,,,,,,,,,,,,,,,,,,,,,,,,,,,,,
,,,,,,,,2023-08-16_08h46.41.669,HF_wild_card,2022.2.4,MacIntel,60.0024001,5b1562981e55760001ba1e64,64d2fd46c836a06233681665,64dc7e53dbb42702cad3cde5,,,,,,,decisionTrl,resources/DY.BMP,resources/DR.BMP,WildCard_Ex,-0.376888021,0.014618056,1,0,0,1.0807,optionLeft,95,1220,1,20,0,20,0,1,,,,,,,,,,,,,,,,,,,,,,,,,,,,,,,,,,,,,,,
,,,,,,,,2023-08-16_08h46.41.669,HF_wild_card,2022.2.4,MacIntel,60.0024001,5b1562981e55760001ba1e64,64d2fd46c836a06233681665,64dc7e53dbb42702cad3cde5,,,,,,,ctch,resources/DBN.BMP,resources/DB.BMP,Door4,-0.431992188,0.000273438,1,0,0,2.1138,optionLeft,60,1280,1,21,0,21,0,1,,,,,,,,,,,,,,,,,,,,,,,,,,,,,,,,,,,,,,,
,,,,,,,,2023-08-16_08h46.41.669,HF_wild_card,2022.2.4,MacIntel,60.0024001,5b1562981e55760001ba1e64,64d2fd46c836a06233681665,64dc7e53dbb42702cad3cde5,,,,,,,decisionTrl,resources/DP.BMP,resources/DBN.BMP,Door3,-0.449466146,0.019040799,1,0,0,2.0639,optionLeft,70,1350,1,22,0,22,0,1,,,,,,,,,,,,,,,,,,,,,,,,,,,,,,,,,,,,,,,
,,,,,,,,2023-08-16_08h46.41.669,HF_wild_card,2022.2.4,MacIntel,60.0024001,5b1562981e55760001ba1e64,64d2fd46c836a06233681665,64dc7e53dbb42702cad3cde5,,,,,,,decisionTrl,resources/DP.BMP,resources/DBN.BMP,Door3,-0.40655816,-0.006644965,1,0,0,1.4651,optionLeft,70,1420,1,23,0,23,0,1,,,,,,,,,,,,,,,,,,,,,,,,,,,,,,,,,,,,,,,
,,,,,,,,2023-08-16_08h46.41.669,HF_wild_card,2022.2.4,MacIntel,60.0024001,5b1562981e55760001ba1e64,64d2fd46c836a06233681665,64dc7e53dbb42702cad3cde5,,,,,,,decisionTrl,resources/DR.BMP,resources/DB.BMP,Door1,0.377473958,-0.024874132,1,0,0,1.9607,optionRight,30,1450,1,24,0,24,0,1,,,,,,,,,,,,,,,,,,,,,,,,,,,,,,,,,,,,,,,
,,,,,,,,2023-08-16_08h46.41.669,HF_wild_card,2022.2.4,MacIntel,60.0024001,5b1562981e55760001ba1e64,64d2fd46c836a06233681665,64dc7e53dbb42702cad3cde5,,,,,,,sngl,resources/Empty.png,resources/DY.BMP,WildCard_Ex,0.379613715,0.023472222,1,0,0,1.0119,optionRight,5,1455,1,25,0,25,0,1,,,,,,,,,,,,,,,,,,,,,,,,,,,,,,,,,,,,,,,
,,,,,,,,2023-08-16_08h46.41.669,HF_wild_card,2022.2.4,MacIntel,60.0024001,5b1562981e55760001ba1e64,64d2fd46c836a06233681665,64dc7e53dbb42702cad3cde5,,,,,,,sngl,resources/Empty.png,resources/DB.BMP,Door1,0.395108507,0.026432292,1,0,0,1.1654,optionRight,30,1485,1,26,0,26,0,1,,,,,,,,,,,,,,,,,,,,,,,,,,,,,,,,,,,,,,,
,,,,,,,,2023-08-16_08h46.41.669,HF_wild_card,2022.2.4,MacIntel,60.0024001,5b1562981e55760001ba1e64,64d2fd46c836a06233681665,64dc7e53dbb42702cad3cde5,,,,,,,decisionTrl,resources/DB.BMP,resources/DR.BMP,Door1,-0.411675347,-0.027664931,1,0,0,1.183,optionLeft,30,1515,1,27,0,27,0,1,,,,,,,,,,,,,,,,,,,,,,,,,,,,,,,,,,,,,,,
,,,,,,,,2023-08-16_08h46.41.669,HF_wild_card,2022.2.4,MacIntel,60.0024001,5b1562981e55760001ba1e64,64d2fd46c836a06233681665,64dc7e53dbb42702cad3cde5,,,,,,,decisionTrl,resources/DR.BMP,resources/DB.BMP,Door1,0.432387153,-0.016610243,1,0,0,1.5295,optionRight,30,1545,1,28,0,28,0,1,,,,,,,,,,,,,,,,,,,,,,,,,,,,,,,,,,,,,,,
,,,,,,,,2023-08-16_08h46.41.669,HF_wild_card,2022.2.4,MacIntel,60.0024001,5b1562981e55760001ba1e64,64d2fd46c836a06233681665,64dc7e53dbb42702cad3cde5,,,,,,,decisionTrl,resources/DY.BMP,resources/DB.BMP,Door1,0.400833333,0.017417535,1,0,0,2.4979,optionRight,30,1575,1,29,0,29,0,1,,,,,,,,,,,,,,,,,,,,,,,,,,,,,,,,,,,,,,,
,,,,,,,,2023-08-16_08h46.41.669,HF_wild_card,2022.2.4,MacIntel,60.0024001,5b1562981e55760001ba1e64,64d2fd46c836a06233681665,64dc7e53dbb42702cad3cde5,,,,,,,ctch,resources/DR.BMP,resources/DP.BMP,Door3,0.381901042,-0.036809896,1,0,0,1.8473,optionRight,70,1645,1,30,0,30,0,1,,,,,,,,,,,,,,,,,,,,,,,,,,,,,,,,,,,,,,,
,,,,,,,,2023-08-16_08h46.41.669,HF_wild_card,2022.2.4,MacIntel,60.0024001,5b1562981e55760001ba1e64,64d2fd46c836a06233681665,64dc7e53dbb42702cad3cde5,,,,,,,ctch,resources/DB.BMP,resources/DBN.BMP,Door4,0.338398437,-0.010972222,1,0,0,2.5999,optionRight,60,1705,1,31,0,31,0,1,,,,,,,,,,,,,,,,,,,,,,,,,,,,,,,,,,,,,,,
,,,,,,,,2023-08-16_08h46.41.669,HF_wild_card,2022.2.4,MacIntel,60.0024001,5b1562981e55760001ba1e64,64d2fd46c836a06233681665,64dc7e53dbb42702cad3cde5,,,,,,,sngl,resources/DY.BMP,resources/Empty.png,WildCard_Ex,-0.410542535,0.003567708,1,0,0,1.5823,optionLeft,5,1710,1,32,0,32,0,1,,,,,,,,,,,,,,,,,,,,,,,,,,,,,,,,,,,,,,,
,,,,,,,,2023-08-16_08h46.41.669,HF_wild_card,2022.2.4,MacIntel,60.0024001,5b1562981e55760001ba1e64,64d2fd46c836a06233681665,64dc7e53dbb42702cad3cde5,,,,,,,decisionTrl,resources/DY.BMP,resources/DP.BMP,Door3,0.352864583,0.020286458,1,0,0,1.3964,optionRight,70,1780,1,33,0,33,0,1,,,,,,,,,,,,,,,,,,,,,,,,,,,,,,,,,,,,,,,
,,,,,,,,2023-08-16_08h46.41.669,HF_wild_card,2022.2.4,MacIntel,60.0024001,5b1562981e55760001ba1e64,64d2fd46c836a06233681665,64dc7e53dbb42702cad3cde5,,,,,,,decisionTrl,resources/DBN.BMP,resources/DP.BMP,Door3,0.380477431,-0.013867187,1,0,0,1.8006,optionRight,70,1850,1,34,0,34,0,1,,,,,,,,,,,,,,,,,,,,,,,,,,,,,,,,,,,,,,,
,,,,,,,,2023-08-16_08h46.41.669,HF_wild_card,2022.2.4,MacIntel,60.0024001,5b1562981e55760001ba1e64,64d2fd46c836a06233681665,64dc7e53dbb42702cad3cde5,,,,,,,decisionTrl,resources/DP.BMP,resources/DBN.BMP,Door3,-0.361506076,-0.018680556,1,0,0,1.433,optionLeft,70,1920,1,35,0,35,0,1,,,,,,,,,,,,,,,,,,,,,,,,,,,,,,,,,,,,,,,
,,,,,,,,2023-08-16_08h46.41.669,HF_wild_card,2022.2.4,MacIntel,60.0024001,5b1562981e55760001ba1e64,64d2fd46c836a06233681665,64dc7e53dbb42702cad3cde5,,,,,,,decisionTrl,resources/DP.BMP,resources/DY.BMP,Door3,-0.365611979,0.000238715,1,0,0,1.3784,optionLeft,70,1990,1,36,0,36,0,1,,,,,,,,,,,,,,,,,,,,,,,,,,,,,,,,,,,,,,,
,,,,,,,,2023-08-16_08h46.41.669,HF_wild_card,2022.2.4,MacIntel,60.0024001,5b1562981e55760001ba1e64,64d2fd46c836a06233681665,64dc7e53dbb42702cad3cde5,,,,,,,decisionTrl,resources/DR.BMP,resources/DB.BMP,Door1,0.355572917,0.004166667,1,0,0,1.3812,optionRight,30,2020,1,37,0,37,0,1,,,,,,,,,,,,,,,,,,,,,,,,,,,,,,,,,,,,,,,
,,,,,,,,2023-08-16_08h46.41.669,HF_wild_card,2022.2.4,MacIntel,60.0024001,5b1562981e55760001ba1e64,64d2fd46c836a06233681665,64dc7e53dbb42702cad3cde5,,,,,,,decisionTrl,resources/DY.BMP,resources/DBN.BMP,Door4,0.411974826,0.018246528,1,0,0,1.2966,optionRight,60,2080,1,38,0,38,0,1,,,,,,,,,,,,,,,,,,,,,,,,,,,,,,,,,,,,,,,
,,,,,,,,2023-08-16_08h46.41.669,HF_wild_card,2022.2.4,MacIntel,60.0024001,5b1562981e55760001ba1e64,64d2fd46c836a06233681665,64dc7e53dbb42702cad3cde5,,,,,,,decisionTrl,resources/DB.BMP,resources/DY.BMP,Door1,-0.479131944,0.017269965,1,0,0,1.1157,optionLeft,30,2110,1,39,0,39,0,1,,,,,,,,,,,,,,,,,,,,,,,,,,,,,,,,,,,,,,,
,,,,,,,,2023-08-16_08h46.41.669,HF_wild_card,2022.2.4,MacIntel,60.0024001,5b1562981e55760001ba1e64,64d2fd46c836a06233681665,64dc7e53dbb42702cad3cde5,,,,,,,sngl,resources/Empty.png,resources/DP.BMP,Door3,0.517361111,-0.00734375,1,0,0,1.1829,optionRight,70,2180,1,40,0,40,0,1,,,,,,,,,,,,,,,,,,,,,,,,,,,,,,,,,,,,,,,
,,,,,,,,2023-08-16_08h46.41.669,HF_wild_card,2022.2.4,MacIntel,60.0024001,5b1562981e55760001ba1e64,64d2fd46c836a06233681665,64dc7e53dbb42702cad3cde5,,,,,,,sngl,resources/DB.BMP,resources/Empty.png,Door1,-0.504726563,-0.007118056,1,0,0,0.8979,optionLeft,30,2210,1,41,0,41,0,1,,,,,,,,,,,,,,,,,,,,,,,,,,,,,,,,,,,,,,,
,,,,,,,,2023-08-16_08h46.41.669,HF_wild_card,2022.2.4,MacIntel,60.0024001,5b1562981e55760001ba1e64,64d2fd46c836a06233681665,64dc7e53dbb42702cad3cde5,,,,,,,ctch,resources/DP.BMP,resources/DR.BMP,Door3,-0.417322049,-0.018637153,1,0,0,1.2121,optionLeft,70,2280,1,42,0,42,0,1,,,,,,,,,,,,,,,,,,,,,,,,,,,,,,,,,,,,,,,
,,,,,,,,2023-08-16_08h46.41.669,HF_wild_card,2022.2.4,MacIntel,60.0024001,5b1562981e55760001ba1e64,64d2fd46c836a06233681665,64dc7e53dbb42702cad3cde5,,,,,,,ctch,resources/DR.BMP,resources/DP.BMP,Door3,0.553111979,-0.008715278,1,0,0,1.1123,optionRight,70,2350,1,43,0,43,0,1,,,,,,,,,,,,,,,,,,,,,,,,,,,,,,,,,,,,,,,
,,,,,,,,2023-08-16_08h46.41.669,HF_wild_card,2022.2.4,MacIntel,60.0024001,5b1562981e55760001ba1e64,64d2fd46c836a06233681665,64dc7e53dbb42702cad3cde5,,,,,,,,,,,,,,,,,,,,,,,,,,0,0,0,0,1,,,,,,,,,,,,,,,,,,,,,,,,,,,,,,,,,,
,,,,,,,,2023-08-16_08h46.41.669,HF_wild_card,2022.2.4,MacIntel,60.0024001,5b1562981e55760001ba1e64,64d2fd46c836a06233681665,64dc7e53dbb42702cad3cde5,,,,,,,sngl,resources/DBN.BMP,resources/Empty.png,Door4,-0.394856771,0.062105035,1,0,0,1.4327,optionLeft,60,2410,2,0,0,0,0,1,,,,,,,,,,,,,,,,,,,,,,,,,,,,,,,,,,,,,,,
,,,,,,,,2023-08-16_08h46.41.669,HF_wild_card,2022.2.4,MacIntel,60.0024001,5b1562981e55760001ba1e64,64d2fd46c836a06233681665,64dc7e53dbb42702cad3cde5,,,,,,,decisionTrl,resources/DB.BMP,resources/DY.BMP,Door1,-0.380546875,0.005455729,1,0,0,1.2451,optionLeft,30,2440,2,1,0,1,0,1,,,,,,,,,,,,,,,,,,,,,,,,,,,,,,,,,,,,,,,
,,,,,,,,2023-08-16_08h46.41.669,HF_wild_card,2022.2.4,MacIntel,60.0024001,5b1562981e55760001ba1e64,64d2fd46c836a06233681665,64dc7e53dbb42702cad3cde5,,,,,,,sngl,resources/Empty.png,resources/DY.BMP,WildCard_Ex,0.417482639,-0.028103299,1,0,0,0.882,optionRight,95,2535,2,2,0,2,0,1,,,,,,,,,,,,,,,,,,,,,,,,,,,,,,,,,,,,,,,
,,,,,,,,2023-08-16_08h46.41.669,HF_wild_card,2022.2.4,MacIntel,60.0024001,5b1562981e55760001ba1e64,64d2fd46c836a06233681665,64dc7e53dbb42702cad3cde5,,,,,,,decisionTrl,resources/DR.BMP,resources/DB.BMP,Door1,0.424305556,0.037413194,1,0,0,1.8603,optionRight,30,2565,2,3,0,3,0,1,,,,,,,,,,,,,,,,,,,,,,,,,,,,,,,,,,,,,,,
,,,,,,,,2023-08-16_08h46.41.669,HF_wild_card,2022.2.4,MacIntel,60.0024001,5b1562981e55760001ba1e64,64d2fd46c836a06233681665,64dc7e53dbb42702cad3cde5,,,,,,,decisionTrl,resources/DR.BMP,resources/DB.BMP,Door1,0.346388889,0.038537326,1,0,0,1.2117,optionRight,30,2595,2,4,0,4,0,1,,,,,,,,,,,,,,,,,,,,,,,,,,,,,,,,,,,,,,,
,,,,,,,,2023-08-16_08h46.41.669,HF_wild_card,2022.2.4,MacIntel,60.0024001,5b1562981e55760001ba1e64,64d2fd46c836a06233681665,64dc7e53dbb42702cad3cde5,,,,,,,decisionTrl,resources/DY.BMP,resources/DR.BMP,WildCard_Ex,-0.409127604,-0.018667535,1,0,0,1.0796,optionLeft,5,2600,2,5,0,5,0,1,,,,,,,,,,,,,,,,,,,,,,,,,,,,,,,,,,,,,,,
,,,,,,,,2023-08-16_08h46.41.669,HF_wild_card,2022.2.4,MacIntel,60.0024001,5b1562981e55760001ba1e64,64d2fd46c836a06233681665,64dc7e53dbb42702cad3cde5,,,,,,,decisionTrl,resources/DP.BMP,resources/DBN.BMP,Door4,0.401102431,0.046085069,1,0,0,1.5796,optionRight,80,2680,2,6,0,6,0,1,,,,,,,,,,,,,,,,,,,,,,,,,,,,,,,,,,,,,,,
,,,,,,,,2023-08-16_08h46.41.669,HF_wild_card,2022.2.4,MacIntel,60.0024001,5b1562981e55760001ba1e64,64d2fd46c836a06233681665,64dc7e53dbb42702cad3cde5,,,,,,,ctch,resources/DB.BMP,resources/DBN.BMP,Door4,0.494926215,0.016974826,1,0,0,0.9645,optionRight,80,2760,2,7,0,7,0,1,,,,,,,,,,,,,,,,,,,,,,,,,,,,,,,,,,,,,,,
,,,,,,,,2023-08-16_08h46.41.669,HF_wild_card,2022.2.4,MacIntel,60.0024001,5b1562981e55760001ba1e64,64d2fd46c836a06233681665,64dc7e53dbb42702cad3cde5,,,,,,,sngl,resources/DR.BMP,resources/Empty.png,Door2,-0.394123264,0.006805556,1,0,0,0.9976,optionLeft,20,2780,2,8,0,8,0,1,,,,,,,,,,,,,,,,,,,,,,,,,,,,,,,,,,,,,,,
,,,,,,,,2023-08-16_08h46.41.669,HF_wild_card,2022.2.4,MacIntel,60.0024001,5b1562981e55760001ba1e64,64d2fd46c836a06233681665,64dc7e53dbb42702cad3cde5,,,,,,,decisionTrl,resources/DB.BMP,resources/DR.BMP,Door1,-0.356432292,0.01453559,1,0,0,1.2614,optionLeft,30,2810,2,9,0,9,0,1,,,,,,,,,,,,,,,,,,,,,,,,,,,,,,,,,,,,,,,
,,,,,,,,2023-08-16_08h46.41.669,HF_wild_card,2022.2.4,MacIntel,60.0024001,5b1562981e55760001ba1e64,64d2fd46c836a06233681665,64dc7e53dbb42702cad3cde5,,,,,,,decisionTrl,resources/DR.BMP,resources/DY.BMP,Door2,-0.316601562,0.017539063,1,0,0,1.4784,optionLeft,20,2830,2,10,0,10,0,1,,,,,,,,,,,,,,,,,,,,,,,,,,,,,,,,,,,,,,,
,,,,,,,,2023-08-16_08h46.41.669,HF_wild_card,2022.2.4,MacIntel,60.0024001,5b1562981e55760001ba1e64,64d2fd46c836a06233681665,64dc7e53dbb42702cad3cde5,,,,,,,decisionTrl,resources/DP.BMP,resources/DBN.BMP,Door4,0.367122396,0.028224826,1,0,0,1.0796,optionRight,80,2910,2,11,0,11,0,1,,,,,,,,,,,,,,,,,,,,,,,,,,,,,,,,,,,,,,,
,,,,,,,,2023-08-16_08h46.41.669,HF_wild_card,2022.2.4,MacIntel,60.0024001,5b1562981e55760001ba1e64,64d2fd46c836a06233681665,64dc7e53dbb42702cad3cde5,,,,,,,ctch,resources/DBN.BMP,resources/DB.BMP,Door4,-0.376154514,0.0284375,1,0,0,1.4312,optionLeft,60,2970,2,12,0,12,0,1,,,,,,,,,,,,,,,,,,,,,,,,,,,,,,,,,,,,,,,
,,,,,,,,2023-08-16_08h46.41.669,HF_wild_card,2022.2.4,MacIntel,60.0024001,5b1562981e55760001ba1e64,64d2fd46c836a06233681665,64dc7e53dbb42702cad3cde5,,,,,,,decisionTrl,resources/DBN.BMP,resources/DP.BMP,Door3,0.328398437,0.02516059,1,0,0,1.5961,optionRight,70,3040,2,13,0,13,0,1,,,,,,,,,,,,,,,,,,,,,,,,,,,,,,,,,,,,,,,
,,,,,,,,2023-08-16_08h46.41.669,HF_wild_card,2022.2.4,MacIntel,60.0024001,5b1562981e55760001ba1e64,64d2fd46c836a06233681665,64dc7e53dbb42702cad3cde5,,,,,,,ctch,resources/DP.BMP,resources/DR.BMP,Door3,-0.465737847,-0.03265191,1,0,0,1.2477,optionLeft,70,3110,2,14,0,14,0,1,,,,,,,,,,,,,,,,,,,,,,,,,,,,,,,,,,,,,,,
,,,,,,,,2023-08-16_08h46.41.669,HF_wild_card,2022.2.4,MacIntel,60.0024001,5b1562981e55760001ba1e64,64d2fd46c836a06233681665,64dc7e53dbb42702cad3cde5,,,,,,,decisionTrl,resources/DY.BMP,resources/DP.BMP,Door3,0.331545139,0.008172743,1,0,0,1.1631,optionRight,70,3180,2,15,0,15,0,1,,,,,,,,,,,,,,,,,,,,,,,,,,,,,,,,,,,,,,,
,,,,,,,,2023-08-16_08h46.41.669,HF_wild_card,2022.2.4,MacIntel,60.0024001,5b1562981e55760001ba1e64,64d2fd46c836a06233681665,64dc7e53dbb42702cad3cde5,,,,,,,decisionTrl,resources/DR.BMP,resources/DB.BMP,Door1,0.307013889,0.013532986,1,0,0,1.697,optionRight,30,3210,2,16,0,16,0,1,,,,,,,,,,,,,,,,,,,,,,,,,,,,,,,,,,,,,,,
,,,,,,,,2023-08-16_08h46.41.669,HF_wild_card,2022.2.4,MacIntel,60.0024001,5b1562981e55760001ba1e64,64d2fd46c836a06233681665,64dc7e53dbb42702cad3cde5,,,,,,,decisionTrl,resources/DR.BMP,resources/DB.BMP,Door1,0.290282118,0.015117188,1,0,0,0.982,optionRight,30,3240,2,17,0,17,0,1,,,,,,,,,,,,,,,,,,,,,,,,,,,,,,,,,,,,,,,
,,,,,,,,2023-08-16_08h46.41.669,HF_wild_card,2022.2.4,MacIntel,60.0024001,5b1562981e55760001ba1e64,64d2fd46c836a06233681665,64dc7e53dbb42702cad3cde5,,,,,,,ctch,resources/DR.BMP,resources/DP.BMP,Door3,0.363229167,-0.024552951,1,0,0,1.0818,optionRight,70,3310,2,18,0,18,0,1,,,,,,,,,,,,,,,,,,,,,,,,,,,,,,,,,,,,,,,
,,,,,,,,2023-08-16_08h46.41.669,HF_wild_card,2022.2.4,MacIntel,60.0024001,5b1562981e55760001ba1e64,64d2fd46c836a06233681665,64dc7e53dbb42702cad3cde5,,,,,,,sngl,resources/Empty.png,resources/DP.BMP,Door3,0.305833333,-0.022881944,1,0,0,0.8984,optionRight,70,3380,2,19,0,19,0,1,,,,,,,,,,,,,,,,,,,,,,,,,,,,,,,,,,,,,,,
,,,,,,,,2023-08-16_08h46.41.669,HF_wild_card,2022.2.4,MacIntel,60.0024001,5b1562981e55760001ba1e64,64d2fd46c836a06233681665,64dc7e53dbb42702cad3cde5,,,,,,,sngl,resources/Empty.png,resources/DY.BMP,WildCard_Ex,0.263085937,-0.006519097,1,0,0,0.9126,optionRight,5,3385,2,20,0,20,0,1,,,,,,,,,,,,,,,,,,,,,,,,,,,,,,,,,,,,,,,
,,,,,,,,2023-08-16_08h46.41.669,HF_wild_card,2022.2.4,MacIntel,60.0024001,5b1562981e55760001ba1e64,64d2fd46c836a06233681665,64dc7e53dbb42702cad3cde5,,,,,,,sngl,resources/DB.BMP,resources/Empty.png,Door1,-0.428971354,0.018550347,1,0,0,0.7803,optionLeft,30,3415,2,21,0,21,0,1,,,,,,,,,,,,,,,,,,,,,,,,,,,,,,,,,,,,,,,
,,,,,,,,2023-08-16_08h46.41.669,HF_wild_card,2022.2.4,MacIntel,60.0024001,5b1562981e55760001ba1e64,64d2fd46c836a06233681665,64dc7e53dbb42702cad3cde5,,,,,,,decisionTrl,resources/DY.BMP,resources/DB.BMP,Door1,0.336605903,0.01703559,1,0,0,1.2295,optionRight,30,3445,2,22,0,22,0,1,,,,,,,,,,,,,,,,,,,,,,,,,,,,,,,,,,,,,,,
,,,,,,,,2023-08-16_08h46.41.669,HF_wild_card,2022.2.4,MacIntel,60.0024001,5b1562981e55760001ba1e64,64d2fd46c836a06233681665,64dc7e53dbb42702cad3cde5,,,,,,,sngl,resources/Empty.png,resources/DB.BMP,Door1,0.341276042,-0.01077691,1,0,0,0.9321,optionRight,30,3475,2,23,0,23,0,1,,,,,,,,,,,,,,,,,,,,,,,,,,,,,,,,,,,,,,,
,,,,,,,,2023-08-16_08h46.41.669,HF_wild_card,2022.2.4,MacIntel,60.0024001,5b1562981e55760001ba1e64,64d2fd46c836a06233681665,64dc7e53dbb42702cad3cde5,,,,,,,sngl,resources/DP.BMP,resources/Empty.png,Door3,-0.434301215,0.001966146,1,0,0,0.7987,optionLeft,70,3545,2,24,0,24,0,1,,,,,,,,,,,,,,,,,,,,,,,,,,,,,,,,,,,,,,,
,,,,,,,,2023-08-16_08h46.41.669,HF_wild_card,2022.2.4,MacIntel,60.0024001,5b1562981e55760001ba1e64,64d2fd46c836a06233681665,64dc7e53dbb42702cad3cde5,,,,,,,sngl,resources/Empty.png,resources/DBN.BMP,Door4,0.400451389,-0.002886285,1,0,0,0.9313,optionRight,80,3625,2,25,0,25,0,1,,,,,,,,,,,,,,,,,,,,,,,,,,,,,,,,,,,,,,,
,,,,,,,,2023-08-16_08h46.41.669,HF_wild_card,2022.2.4,MacIntel,60.0024001,5b1562981e55760001ba1e64,64d2fd46c836a06233681665,64dc7e53dbb42702cad3cde5,,,,,,,decisionTrl,resources/DB.BMP,resources/DR.BMP,Door1,-0.306219618,0.009275174,1,0,0,0.9125,optionLeft,30,3655,2,26,0,26,0,1,,,,,,,,,,,,,,,,,,,,,,,,,,,,,,,,,,,,,,,
,,,,,,,,2023-08-16_08h46.41.669,HF_wild_card,2022.2.4,MacIntel,60.0024001,5b1562981e55760001ba1e64,64d2fd46c836a06233681665,64dc7e53dbb42702cad3cde5,,,,,,,decisionTrl,resources/DP.BMP,resources/DY.BMP,Door3,-0.302756076,0.006974826,1,0,0,1.1805,optionLeft,70,3725,2,27,0,27,0,1,,,,,,,,,,,,,,,,,,,,,,,,,,,,,,,,,,,,,,,
,,,,,,,,2023-08-16_08h46.41.669,HF_wild_card,2022.2.4,MacIntel,60.0024001,5b1562981e55760001ba1e64,64d2fd46c836a06233681665,64dc7e53dbb42702cad3cde5,,,,,,,sngl,resources/DY.BMP,resources/Empty.png,WildCard_Ex,-0.277313368,0.002929688,1,0,0,0.9489,optionLeft,95,3820,2,28,0,28,0,1,,,,,,,,,,,,,,,,,,,,,,,,,,,,,,,,,,,,,,,
,,,,,,,,2023-08-16_08h46.41.669,HF_wild_card,2022.2.4,MacIntel,60.0024001,5b1562981e55760001ba1e64,64d2fd46c836a06233681665,64dc7e53dbb42702cad3cde5,,,,,,,ctch,resources/DR.BMP,resources/DP.BMP,Door2,-0.21875434,0.029618056,1,0,0,2.5329,optionLeft,40,3860,2,29,0,29,0,1,,,,,,,,,,,,,,,,,,,,,,,,,,,,,,,,,,,,,,,
,,,,,,,,2023-08-16_08h46.41.669,HF_wild_card,2022.2.4,MacIntel,60.0024001,5b1562981e55760001ba1e64,64d2fd46c836a06233681665,64dc7e53dbb42702cad3cde5,,,,,,,decisionTrl,resources/DB.BMP,resources/DR.BMP,Door2,0.27844184,-0.013789062,1,0,0,1.5827,optionRight,20,3880,2,30,0,30,0,1,,,,,,,,,,,,,,,,,,,,,,,,,,,,,,,,,,,,,,,
,,,,,,,,2023-08-16_08h46.41.669,HF_wild_card,2022.2.4,MacIntel,60.0024001,5b1562981e55760001ba1e64,64d2fd46c836a06233681665,64dc7e53dbb42702cad3cde5,,,,,,,decisionTrl,resources/DY.BMP,resources/DBN.BMP,WildCard_Ex,-0.415902778,-0.040412326,1,0,0,0.8788,optionLeft,5,3885,2,31,0,31,0,1,,,,,,,,,,,,,,,,,,,,,,,,,,,,,,,,,,,,,,,
,,,,,,,,2023-08-16_08h46.41.669,HF_wild_card,2022.2.4,MacIntel,60.0024001,5b1562981e55760001ba1e64,64d2fd46c836a06233681665,64dc7e53dbb42702cad3cde5,,,,,,,sngl,resources/DY.BMP,resources/Empty.png,WildCard_Ex,-0.337942708,-0.022730035,1,0,0,0.9446,optionLeft,5,3890,2,32,0,32,0,1,,,,,,,,,,,,,,,,,,,,,,,,,,,,,,,,,,,,,,,
,,,,,,,,2023-08-16_08h46.41.669,HF_wild_card,2022.2.4,MacIntel,60.0024001,5b1562981e55760001ba1e64,64d2fd46c836a06233681665,64dc7e53dbb42702cad3cde5,,,,,,,ctch,resources/DBN.BMP,resources/DB.BMP,Door4,-0.328971354,0.023602431,1,0,0,1.0987,optionLeft,60,3950,2,33,0,33,0,1,,,,,,,,,,,,,,,,,,,,,,,,,,,,,,,,,,,,,,,
,,,,,,,,2023-08-16_08h46.41.669,HF_wild_card,2022.2.4,MacIntel,60.0024001,5b1562981e55760001ba1e64,64d2fd46c836a06233681665,64dc7e53dbb42702cad3cde5,,,,,,,sngl,resources/Empty.png,resources/DR.BMP,Door2,0.261922743,0.005342882,1,0,0,1.0481,optionRight,40,3990,2,34,0,34,0,1,,,,,,,,,,,,,,,,,,,,,,,,,,,,,,,,,,,,,,,
,,,,,,,,2023-08-16_08h46.41.669,HF_wild_card,2022.2.4,MacIntel,60.0024001,5b1562981e55760001ba1e64,64d2fd46c836a06233681665,64dc7e53dbb42702cad3cde5,,,,,,,decisionTrl,resources/DBN.BMP,resources/DP.BMP,Door4,-0.409674479,-0.02515191,1,0,0,0.8957,optionLeft,80,4070,2,35,0,35,0,1,,,,,,,,,,,,,,,,,,,,,,,,,,,,,,,,,,,,,,,
,,,,,,,,2023-08-16_08h46.41.669,HF_wild_card,2022.2.4,MacIntel,60.0024001,5b1562981e55760001ba1e64,64d2fd46c836a06233681665,64dc7e53dbb42702cad3cde5,,,,,,,ctch,resources/DP.BMP,resources/DR.BMP,Door3,-0.401666667,-0.008624132,1,0,0,1.363,optionLeft,70,4140,2,36,0,36,0,1,,,,,,,,,,,,,,,,,,,,,,,,,,,,,,,,,,,,,,,
,,,,,,,,2023-08-16_08h46.41.669,HF_wild_card,2022.2.4,MacIntel,60.0024001,5b1562981e55760001ba1e64,64d2fd46c836a06233681665,64dc7e53dbb42702cad3cde5,,,,,,,decisionTrl,resources/DP.BMP,resources/DBN.BMP,Door4,0.212426215,-0.080850694,1,0,0,1.4807,optionRight,60,4200,2,37,0,37,0,1,,,,,,,,,,,,,,,,,,,,,,,,,,,,,,,,,,,,,,,
,,,,,,,,2023-08-16_08h46.41.669,HF_wild_card,2022.2.4,MacIntel,60.0024001,5b1562981e55760001ba1e64,64d2fd46c836a06233681665,64dc7e53dbb42702cad3cde5,,,,,,,decisionTrl,resources/DP.BMP,resources/DBN.BMP,Door3,-0.36312066,-0.047057292,1,0,0,1.4972,optionLeft,70,4270,2,38,0,38,0,1,,,,,,,,,,,,,,,,,,,,,,,,,,,,,,,,,,,,,,,
,,,,,,,,2023-08-16_08h46.41.669,HF_wild_card,2022.2.4,MacIntel,60.0024001,5b1562981e55760001ba1e64,64d2fd46c836a06233681665,64dc7e53dbb42702cad3cde5,,,,,,,decisionTrl,resources/DB.BMP,resources/DR.BMP,Door1,-0.253563368,0.012426215,1,0,0,1.3275,optionLeft,30,4300,2,39,0,39,0,1,,,,,,,,,,,,,,,,,,,,,,,,,,,,,,,,,,,,,,,
,,,,,,,,2023-08-16_08h46.41.669,HF_wild_card,2022.2.4,MacIntel,60.0024001,5b1562981e55760001ba1e64,64d2fd46c836a06233681665,64dc7e53dbb42702cad3cde5,,,,,,,ctch,resources/DB.BMP,resources/DBN.BMP,Door4,0.363524306,0.027873264,1,0,0,1.0291,optionRight,80,4380,2,40,0,40,0,1,,,,,,,,,,,,,,,,,,,,,,,,,,,,,,,,,,,,,,,
,,,,,,,,2023-08-16_08h46.41.669,HF_wild_card,2022.2.4,MacIntel,60.0024001,5b1562981e55760001ba1e64,64d2fd46c836a06233681665,64dc7e53dbb42702cad3cde5,,,,,,,decisionTrl,resources/DBN.BMP,resources/DP.BMP,Door4,-0.391210938,0.020768229,1,0,0,1.113,optionLeft,60,4440,2,41,0,41,0,1,,,,,,,,,,,,,,,,,,,,,,,,,,,,,,,,,,,,,,,
,,,,,,,,2023-08-16_08h46.41.669,HF_wild_card,2022.2.4,MacIntel,60.0024001,5b1562981e55760001ba1e64,64d2fd46c836a06233681665,64dc7e53dbb42702cad3cde5,,,,,,,decisionTrl,resources/DBN.BMP,resources/DY.BMP,Door4,-0.292530382,0.049539931,1,0,0,2.1301,optionLeft,80,4520,2,42,0,42,0,1,,,,,,,,,,,,,,,,,,,,,,,,,,,,,,,,,,,,,,,
,,,,,,,,2023-08-16_08h46.41.669,HF_wild_card,2022.2.4,MacIntel,60.0024001,5b1562981e55760001ba1e64,64d2fd46c836a06233681665,64dc7e53dbb42702cad3cde5,,,,,,,decisionTrl,resources/DBN.BMP,resources/DP.BMP,Door4,-0.364578993,-0.009709201,1,0,0,0.9623,optionLeft,80,4600,2,43,0,43,0,1,,,,,,,,,,,,,,,,,,,,,,,,,,,,,,,,,,,,,,,
,,,,,,,,2023-08-16_08h46.41.669,HF_wild_card,2022.2.4,MacIntel,60.0024001,5b1562981e55760001ba1e64,64d2fd46c836a06233681665,64dc7e53dbb42702cad3cde5,,,,,,,,,,,,,,,,,,,,,,,,,,1,0,1,0,1,,,,,,,,,,,,,,,,,,,,,,,,,,,,,,,,,,
,,,,,,,,2023-08-16_08h46.41.669,HF_wild_card,2022.2.4,MacIntel,60.0024001,5b1562981e55760001ba1e64,64d2fd46c836a06233681665,64dc7e53dbb42702cad3cde5,,,,,,,sngl,resources/DB.BMP,resources/Empty.png,Door1,-0.432552083,0.036384549,1,0,0,1.865,optionLeft,30,4630,3,0,0,0,0,1,,,,,,,,,,,,,,,,,,,,,,,,,,,,,,,,,,,,,,,
,,,,,,,,2023-08-16_08h46.41.669,HF_wild_card,2022.2.4,MacIntel,60.0024001,5b1562981e55760001ba1e64,64d2fd46c836a06233681665,64dc7e53dbb42702cad3cde5,,,,,,,decisionTrl,resources/DBN.BMP,resources/DP.BMP,Door4,-0.366072049,0.030238715,1,0,0,1.1396,optionLeft,80,4710,3,1,0,1,0,1,,,,,,,,,,,,,,,,,,,,,,,,,,,,,,,,,,,,,,,
,,,,,,,,2023-08-16_08h46.41.669,HF_wild_card,2022.2.4,MacIntel,60.0024001,5b1562981e55760001ba1e64,64d2fd46c836a06233681665,64dc7e53dbb42702cad3cde5,,,,,,,decisionTrl,resources/DP.BMP,resources/DBN.BMP,Door4,0.435546875,-0.067105035,1,0,0,1.079,optionRight,60,4770,3,2,0,2,0,1,,,,,,,,,,,,,,,,,,,,,,,,,,,,,,,,,,,,,,,
,,,,,,,,2023-08-16_08h46.41.669,HF_wild_card,2022.2.4,MacIntel,60.0024001,5b1562981e55760001ba1e64,64d2fd46c836a06233681665,64dc7e53dbb42702cad3cde5,,,,,,,decisionTrl,resources/DR.BMP,resources/DB.BMP,Door2,-0.380082465,-0.030086806,1,0,0,1.3987,optionLeft,40,4810,3,3,0,3,0,1,,,,,,,,,,,,,,,,,,,,,,,,,,,,,,,,,,,,,,,
,,,,,,,,2023-08-16_08h46.41.669,HF_wild_card,2022.2.4,MacIntel,60.0024001,5b1562981e55760001ba1e64,64d2fd46c836a06233681665,64dc7e53dbb42702cad3cde5,,,,,,,decisionTrl,resources/DY.BMP,resources/DP.BMP,WildCard_Ex,-0.280112847,-0.014275174,1,0,0,1.0791,optionLeft,5,4815,3,4,0,4,0,1,,,,,,,,,,,,,,,,,,,,,,,,,,,,,,,,,,,,,,,
,,,,,,,,2023-08-16_08h46.41.669,HF_wild_card,2022.2.4,MacIntel,60.0024001,5b1562981e55760001ba1e64,64d2fd46c836a06233681665,64dc7e53dbb42702cad3cde5,,,,,,,decisionTrl,resources/DBN.BMP,resources/DP.BMP,Door4,-0.355212674,0.071384549,1,0,0,0.9656,optionLeft,60,4875,3,5,0,5,0,1,,,,,,,,,,,,,,,,,,,,,,,,,,,,,,,,,,,,,,,
,,,,,,,,2023-08-16_08h46.41.669,HF_wild_card,2022.2.4,MacIntel,60.0024001,5b1562981e55760001ba1e64,64d2fd46c836a06233681665,64dc7e53dbb42702cad3cde5,,,,,,,decisionTrl,resources/DB.BMP,resources/DR.BMP,Door1,-0.282274306,0.014952257,1,0,0,1.7645,optionLeft,30,4905,3,6,0,6,0,1,,,,,,,,,,,,,,,,,,,,,,,,,,,,,,,,,,,,,,,
,,,,,,,,2023-08-16_08h46.41.669,HF_wild_card,2022.2.4,MacIntel,60.0024001,5b1562981e55760001ba1e64,64d2fd46c836a06233681665,64dc7e53dbb42702cad3cde5,,,,,,,sngl,resources/DR.BMP,resources/Empty.png,Door2,-0.352821181,0.005598958,1,0,0,0.7142,optionLeft,40,4945,3,7,0,7,0,1,,,,,,,,,,,,,,,,,,,,,,,,,,,,,,,,,,,,,,,
,,,,,,,,2023-08-16_08h46.41.669,HF_wild_card,2022.2.4,MacIntel,60.0024001,5b1562981e55760001ba1e64,64d2fd46c836a06233681665,64dc7e53dbb42702cad3cde5,,,,,,,sngl,resources/Empty.png,resources/DBN.BMP,Door4,0.342903646,0.049583333,1,0,0,0.867,optionRight,60,5005,3,8,0,8,0,1,,,,,,,,,,,,,,,,,,,,,,,,,,,,,,,,,,,,,,,
,,,,,,,,2023-08-16_08h46.41.669,HF_wild_card,2022.2.4,MacIntel,60.0024001,5b1562981e55760001ba1e64,64d2fd46c836a06233681665,64dc7e53dbb42702cad3cde5,,,,,,,sngl,resources/Empty.png,resources/DR.BMP,Door2,0.293350694,-0.020225694,1,0,0,0.8317,optionRight,20,5025,3,9,0,9,0,1,,,,,,,,,,,,,,,,,,,,,,,,,,,,,,,,,,,,,,,
,,,,,,,,2023-08-16_08h46.41.669,HF_wild_card,2022.2.4,MacIntel,60.0024001,5b1562981e55760001ba1e64,64d2fd46c836a06233681665,64dc7e53dbb42702cad3cde5,,,,,,,decisionTrl,resources/DR.BMP,resources/DB.BMP,Door1,0.295668403,0.013858507,1,0,0,1.3944,optionRight,30,5055,3,10,0,10,0,1,,,,,,,,,,,,,,,,,,,,,,,,,,,,,,,,,,,,,,,
,,,,,,,,2023-08-16_08h46.41.669,HF_wild_card,2022.2.4,MacIntel,60.0024001,5b1562981e55760001ba1e64,64d2fd46c836a06233681665,64dc7e53dbb42702cad3cde5,,,,,,,sngl,resources/Empty.png,resources/DY.BMP,WildCard_Ex,0.331848958,0.0125,1,0,0,0.998,optionRight,95,5150,3,11,0,11,0,1,,,,,,,,,,,,,,,,,,,,,,,,,,,,,,,,,,,,,,,
,,,,,,,,2023-08-16_08h46.41.669,HF_wild_card,2022.2.4,MacIntel,60.0024001,5b1562981e55760001ba1e64,64d2fd46c836a06233681665,64dc7e53dbb42702cad3cde5,,,,,,,sngl,resources/Empty.png,resources/DY.BMP,WildCard_Ex,0.260651042,-0.003663194,1,0,0,0.8276,optionRight,5,5155,3,12,0,12,0,1,,,,,,,,,,,,,,,,,,,,,,,,,,,,,,,,,,,,,,,
,,,,,,,,2023-08-16_08h46.41.669,HF_wild_card,2022.2.4,MacIntel,60.0024001,5b1562981e55760001ba1e64,64d2fd46c836a06233681665,64dc7e53dbb42702cad3cde5,,,,,,,ctch,resources/DBN.BMP,resources/DB.BMP,Door4,-0.428793403,0.017291667,1,0,0,0.8799,optionLeft,80,5235,3,13,0,13,0,1,,,,,,,,,,,,,,,,,,,,,,,,,,,,,,,,,,,,,,,
,,,,,,,,2023-08-16_08h46.41.669,HF_wild_card,2022.2.4,MacIntel,60.0024001,5b1562981e55760001ba1e64,64d2fd46c836a06233681665,64dc7e53dbb42702cad3cde5,,,,,,,sngl,resources/Empty.png,resources/DP.BMP,Door3,0.349804687,-0.01328125,1,0,0,0.8152,optionRight,70,5305,3,14,0,14,0,1,,,,,,,,,,,,,,,,,,,,,,,,,,,,,,,,,,,,,,,
,,,,,,,,2023-08-16_08h46.41.669,HF_wild_card,2022.2.4,MacIntel,60.0024001,5b1562981e55760001ba1e64,64d2fd46c836a06233681665,64dc7e53dbb42702cad3cde5,,,,,,,decisionTrl,resources/DY.BMP,resources/DB.BMP,Door1,0.325946181,0.011397569,1,0,0,0.931,optionRight,30,5335,3,15,0,15,0,1,,,,,,,,,,,,,,,,,,,,,,,,,,,,,,,,,,,,,,,
,,,,,,,,2023-08-16_08h46.41.669,HF_wild_card,2022.2.4,MacIntel,60.0024001,5b1562981e55760001ba1e64,64d2fd46c836a06233681665,64dc7e53dbb42702cad3cde5,,,,,,,decisionTrl,resources/DBN.BMP,resources/DP.BMP,Door4,-0.323420139,-0.010117187,1,0,0,0.9981,optionLeft,60,5395,3,16,0,16,0,1,,,,,,,,,,,,,,,,,,,,,,,,,,,,,,,,,,,,,,,
,,,,,,,,2023-08-16_08h46.41.669,HF_wild_card,2022.2.4,MacIntel,60.0024001,5b1562981e55760001ba1e64,64d2fd46c836a06233681665,64dc7e53dbb42702cad3cde5,,,,,,,sngl,resources/DP.BMP,resources/Empty.png,Door3,-0.28874566,-0.026467014,1,0,0,0.7629,optionLeft,70,5465,3,17,0,17,0,1,,,,,,,,,,,,,,,,,,,,,,,,,,,,,,,,,,,,,,,
,,,,,,,,2023-08-16_08h46.41.669,HF_wild_card,2022.2.4,MacIntel,60.0024001,5b1562981e55760001ba1e64,64d2fd46c836a06233681665,64dc7e53dbb42702cad3cde5,,,,,,,decisionTrl,resources/DB.BMP,resources/DR.BMP,Door1,-0.287235243,0.015533854,1,0,0,1.2964,optionLeft,30,5495,3,18,0,18,0,1,,,,,,,,,,,,,,,,,,,,,,,,,,,,,,,,,,,,,,,
,,,,,,,,2023-08-16_08h46.41.669,HF_wild_card,2022.2.4,MacIntel,60.0024001,5b1562981e55760001ba1e64,64d2fd46c836a06233681665,64dc7e53dbb42702cad3cde5,,,,,,,decisionTrl,resources/DY.BMP,resources/DBN.BMP,Door4,0.210117187,-0.018572049,1,0,0,1.2299,optionRight,80,5575,3,19,0,19,0,1,,,,,,,,,,,,,,,,,,,,,,,,,,,,,,,,,,,,,,,
,,,,,,,,2023-08-16_08h46.41.669,HF_wild_card,2022.2.4,MacIntel,60.0024001,5b1562981e55760001ba1e64,64d2fd46c836a06233681665,64dc7e53dbb42702cad3cde5,,,,,,,ctch,resources/DR.BMP,resources/DP.BMP,Door3,0.252052951,0.019648438,1,0,0,2.1976,optionRight,70,5645,3,20,0,20,0,1,,,,,,,,,,,,,,,,,,,,,,,,,,,,,,,,,,,,,,,
,,,,,,,,2023-08-16_08h46.41.669,HF_wild_card,2022.2.4,MacIntel,60.0024001,5b1562981e55760001ba1e64,64d2fd46c836a06233681665,64dc7e53dbb42702cad3cde5,,,,,,,ctch,resources/DBN.BMP,resources/DB.BMP,Door4,-0.305490451,-0.068945312,1,0,0,1.3147,optionLeft,60,5705,3,21,0,21,0,1,,,,,,,,,,,,,,,,,,,,,,,,,,,,,,,,,,,,,,,
,,,,,,,,2023-08-16_08h46.41.669,HF_wild_card,2022.2.4,MacIntel,60.0024001,5b1562981e55760001ba1e64,64d2fd46c836a06233681665,64dc7e53dbb42702cad3cde5,,,,,,,decisionTrl,resources/DY.BMP,resources/DR.BMP,Door2,0.279166667,-0.021189236,1,0,0,1.23,optionRight,40,5745,3,22,0,22,0,1,,,,,,,,,,,,,,,,,,,,,,,,,,,,,,,,,,,,,,,
,,,,,,,,2023-08-16_08h46.41.669,HF_wild_card,2022.2.4,MacIntel,60.0024001,5b1562981e55760001ba1e64,64d2fd46c836a06233681665,64dc7e53dbb42702cad3cde5,,,,,,,ctch,resources/DR.BMP,resources/DP.BMP,Door3,0.250525174,-0.041740451,1,0,0,1.2492,optionRight,70,5815,3,23,0,23,0,1,,,,,,,,,,,,,,,,,,,,,,,,,,,,,,,,,,,,,,,
,,,,,,,,2023-08-16_08h46.41.669,HF_wild_card,2022.2.4,MacIntel,60.0024001,5b1562981e55760001ba1e64,64d2fd46c836a06233681665,64dc7e53dbb42702cad3cde5,,,,,,,decisionTrl,resources/DP.BMP,resources/DY.BMP,Door3,-0.412282986,0.004479167,1,0,0,0.932,optionLeft,70,5885,3,24,0,24,0,1,,,,,,,,,,,,,,,,,,,,,,,,,,,,,,,,,,,,,,,
,,,,,,,,2023-08-16_08h46.41.669,HF_wild_card,2022.2.4,MacIntel,60.0024001,5b1562981e55760001ba1e64,64d2fd46c836a06233681665,64dc7e53dbb42702cad3cde5,,,,,,,decisionTrl,resources/DP.BMP,resources/DBN.BMP,Door4,0.422552083,0.025195313,1,0,0,1.2502,optionRight,80,5965,3,25,0,25,0,1,,,,,,,,,,,,,,,,,,,,,,,,,,,,,,,,,,,,,,,
,,,,,,,,2023-08-16_08h46.41.669,HF_wild_card,2022.2.4,MacIntel,60.0024001,5b1562981e55760001ba1e64,64d2fd46c836a06233681665,64dc7e53dbb42702cad3cde5,,,,,,,decisionTrl,resources/DB.BMP,resources/DY.BMP,Door1,-0.314739583,-0.032065972,1,0,0,1.1977,optionLeft,30,5995,3,26,0,26,0,1,,,,,,,,,,,,,,,,,,,,,,,,,,,,,,,,,,,,,,,
,,,,,,,,2023-08-16_08h46.41.669,HF_wild_card,2022.2.4,MacIntel,60.0024001,5b1562981e55760001ba1e64,64d2fd46c836a06233681665,64dc7e53dbb42702cad3cde5,,,,,,,ctch,resources/DP.BMP,resources/DR.BMP,Door3,-0.28672309,-0.004778646,1,0,0,1.1136,optionLeft,70,6065,3,27,0,27,0,1,,,,,,,,,,,,,,,,,,,,,,,,,,,,,,,,,,,,,,,
,,,,,,,,2023-08-16_08h46.41.669,HF_wild_card,2022.2.4,MacIntel,60.0024001,5b1562981e55760001ba1e64,64d2fd46c836a06233681665,64dc7e53dbb42702cad3cde5,,,,,,,ctch,resources/DB.BMP,resources/DBN.BMP,Door4,0.299053819,0.043710937,1,0,0,1.1651,optionRight,60,6125,3,28,0,28,0,1,,,,,,,,,,,,,,,,,,,,,,,,,,,,,,,,,,,,,,,
,,,,,,,,2023-08-16_08h46.41.669,HF_wild_card,2022.2.4,MacIntel,60.0024001,5b1562981e55760001ba1e64,64d2fd46c836a06233681665,64dc7e53dbb42702cad3cde5,,,,,,,sngl,resources/DBN.BMP,resources/Empty.png,Door4,-0.30233941,-0.011727431,1,0,0,1.014,optionLeft,80,6205,3,29,0,29,0,1,,,,,,,,,,,,,,,,,,,,,,,,,,,,,,,,,,,,,,,
,,,,,,,,2023-08-16_08h46.41.669,HF_wild_card,2022.2.4,MacIntel,60.0024001,5b1562981e55760001ba1e64,64d2fd46c836a06233681665,64dc7e53dbb42702cad3cde5,,,,,,,decisionTrl,resources/DR.BMP,resources/DB.BMP,Door2,-0.308988715,-0.030651042,1,0,0,1.7805,optionLeft,40,6245,3,30,0,30,0,1,,,,,,,,,,,,,,,,,,,,,,,,,,,,,,,,,,,,,,,
,,,,,,,,2023-08-16_08h46.41.669,HF_wild_card,2022.2.4,MacIntel,60.0024001,5b1562981e55760001ba1e64,64d2fd46c836a06233681665,64dc7e53dbb42702cad3cde5,,,,,,,sngl,resources/Empty.png,resources/DB.BMP,Door1,0.410946181,-0.000217014,1,0,0,0.8654,optionRight,30,6275,3,31,0,31,0,1,,,,,,,,,,,,,,,,,,,,,,,,,,,,,,,,,,,,,,,
,,,,,,,,2023-08-16_08h46.41.669,HF_wild_card,2022.2.4,MacIntel,60.0024001,5b1562981e55760001ba1e64,64d2fd46c836a06233681665,64dc7e53dbb42702cad3cde5,,,,,,,decisionTrl,resources/DR.BMP,resources/DB.BMP,Door2,-0.456987847,-0.033081597,1,0,0,0.7475,optionLeft,20,6295,3,32,0,32,0,1,,,,,,,,,,,,,,,,,,,,,,,,,,,,,,,,,,,,,,,
,,,,,,,,2023-08-16_08h46.41.669,HF_wild_card,2022.2.4,MacIntel,60.0024001,5b1562981e55760001ba1e64,64d2fd46c836a06233681665,64dc7e53dbb42702cad3cde5,,,,,,,decisionTrl,resources/DB.BMP,resources/DR.BMP,Door1,-0.347096354,-0.018984375,1,0,0,0.781,optionLeft,30,6325,3,33,0,33,0,1,,,,,,,,,,,,,,,,,,,,,,,,,,,,,,,,,,,,,,,
,,,,,,,,2023-08-16_08h46.41.669,HF_wild_card,2022.2.4,MacIntel,60.0024001,5b1562981e55760001ba1e64,64d2fd46c836a06233681665,64dc7e53dbb42702cad3cde5,,,,,,,sngl,resources/DY.BMP,resources/Empty.png,WildCard_Ex,-0.287647569,-0.006232639,1,0,0,0.8634,optionLeft,5,6330,3,34,0,34,0,1,,,,,,,,,,,,,,,,,,,,,,,,,,,,,,,,,,,,,,,
,,,,,,,,2023-08-16_08h46.41.669,HF_wild_card,2022.2.4,MacIntel,60.0024001,5b1562981e55760001ba1e64,64d2fd46c836a06233681665,64dc7e53dbb42702cad3cde5,,,,,,,ctch,resources/DB.BMP,resources/DBN.BMP,Door4,0.382912326,0.056032986,1,0,0,0.9484,optionRight,80,6410,3,35,0,35,0,1,,,,,,,,,,,,,,,,,,,,,,,,,,,,,,,,,,,,,,,
,,,,,,,,2023-08-16_08h46.41.669,HF_wild_card,2022.2.4,MacIntel,60.0024001,5b1562981e55760001ba1e64,64d2fd46c836a06233681665,64dc7e53dbb42702cad3cde5,,,,,,,ctch,resources/DP.BMP,resources/DR.BMP,Door3,-0.293155382,-0.006380208,1,0,0,1.3627,optionLeft,70,6480,3,36,0,36,0,1,,,,,,,,,,,,,,,,,,,,,,,,,,,,,,,,,,,,,,,
,,,,,,,,2023-08-16_08h46.41.669,HF_wild_card,2022.2.4,MacIntel,60.0024001,5b1562981e55760001ba1e64,64d2fd46c836a06233681665,64dc7e53dbb42702cad3cde5,,,,,,,decisionTrl,resources/DP.BMP,resources/DBN.BMP,Door4,0.373506944,0.010247396,1,0,0,0.8787,optionRight,60,6540,3,37,0,37,0,1,,,,,,,,,,,,,,,,,,,,,,,,,,,,,,,,,,,,,,,
,,,,,,,,2023-08-16_08h46.41.669,HF_wild_card,2022.2.4,MacIntel,60.0024001,5b1562981e55760001ba1e64,64d2fd46c836a06233681665,64dc7e53dbb42702cad3cde5,,,,,,,decisionTrl,resources/DBN.BMP,resources/DY.BMP,Door4,-0.306046007,0.004092882,1,0,0,0.916,optionLeft,80,6620,3,38,0,38,0,1,,,,,,,,,,,,,,,,,,,,,,,,,,,,,,,,,,,,,,,
,,,,,,,,2023-08-16_08h46.41.669,HF_wild_card,2022.2.4,MacIntel,60.0024001,5b1562981e55760001ba1e64,64d2fd46c836a06233681665,64dc7e53dbb42702cad3cde5,,,,,,,sngl,resources/DY.BMP,resources/Empty.png,WildCard_Ex,-0.252777778,0.002361111,1,0,0,0.7979,optionLeft,95,6715,3,39,0,39,0,1,,,,,,,,,,,,,,,,,,,,,,,,,,,,,,,,,,,,,,,
,,,,,,,,2023-08-16_08h46.41.669,HF_wild_card,2022.2.4,MacIntel,60.0024001,5b1562981e55760001ba1e64,64d2fd46c836a06233681665,64dc7e53dbb42702cad3cde5,,,,,,,decisionTrl,resources/DR.BMP,resources/DY.BMP,Door2,-0.396085069,0.010881076,1,0,0,0.782,optionLeft,20,6735,3,40,0,40,0,1,,,,,,,,,,,,,,,,,,,,,,,,,,,,,,,,,,,,,,,
,,,,,,,,2023-08-16_08h46.41.669,HF_wild_card,2022.2.4,MacIntel,60.0024001,5b1562981e55760001ba1e64,64d2fd46c836a06233681665,64dc7e53dbb42702cad3cde5,,,,,,,decisionTrl,resources/DBN.BMP,resources/DP.BMP,Door4,-0.407634549,-0.012157118,1,0,0,0.783,optionLeft,60,6795,3,41,0,41,0,1,,,,,,,,,,,,,,,,,,,,,,,,,,,,,,,,,,,,,,,
,,,,,,,,2023-08-16_08h46.41.669,HF_wild_card,2022.2.4,MacIntel,60.0024001,5b1562981e55760001ba1e64,64d2fd46c836a06233681665,64dc7e53dbb42702cad3cde5,,,,,,,decisionTrl,resources/DP.BMP,resources/DBN.BMP,Door4,0.409435764,0.065442708,1,0,0,0.8458,optionRight,60,6855,3,42,0,42,0,1,,,,,,,,,,,,,,,,,,,,,,,,,,,,,,,,,,,,,,,
,,,,,,,,2023-08-16_08h46.41.669,HF_wild_card,2022.2.4,MacIntel,60.0024001,5b1562981e55760001ba1e64,64d2fd46c836a06233681665,64dc7e53dbb42702cad3cde5,,,,,,,decisionTrl,resources/DB.BMP,resources/DR.BMP,Door1,-0.344079861,-0.027052951,1,0,0,0.9801,optionLeft,30,6885,3,43,0,43,0,1,,,,,,,,,,,,,,,,,,,,,,,,,,,,,,,,,,,,,,,
,,,,,,,,2023-08-16_08h46.41.669,HF_wild_card,2022.2.4,MacIntel,60.0024001,5b1562981e55760001ba1e64,64d2fd46c836a06233681665,64dc7e53dbb42702cad3cde5,,,,,,,,,,,,,,,,,,,,,,,,,,2,0,2,0,1,,,,,,,,,,,,,,,,,,,,,,,,,,,,,,,,,,
,,,,,,,,2023-08-16_08h46.41.669,HF_wild_card,2022.2.4,MacIntel,60.0024001,5b1562981e55760001ba1e64,64d2fd46c836a06233681665,64dc7e53dbb42702cad3cde5,,,,,,,ctch,resources/DB.BMP,resources/DBN.BMP,Door4,0.422170139,0.056766493,1,0,0,0.97,optionRight,60,6945,4,0,0,0,0,1,,,,,,,,,,,,,,,,,,,,,,,,,,,,,,,,,,,,,,,
,,,,,,,,2023-08-16_08h46.41.669,HF_wild_card,2022.2.4,MacIntel,60.0024001,5b1562981e55760001ba1e64,64d2fd46c836a06233681665,64dc7e53dbb42702cad3cde5,,,,,,,decisionTrl,resources/DBN.BMP,resources/DP.BMP,Door4,-0.395230035,-0.020186632,1,0,0,0.8625,optionLeft,80,7025,4,1,0,1,0,1,,,,,,,,,,,,,,,,,,,,,,,,,,,,,,,,,,,,,,,
,,,,,,,,2023-08-16_08h46.41.669,HF_wild_card,2022.2.4,MacIntel,60.0024001,5b1562981e55760001ba1e64,64d2fd46c836a06233681665,64dc7e53dbb42702cad3cde5,,,,,,,ctch,resources/DBN.BMP,resources/DB.BMP,Door4,-0.324118924,0.025733507,1,0,0,0.7442,optionLeft,80,7105,4,2,0,2,0,1,,,,,,,,,,,,,,,,,,,,,,,,,,,,,,,,,,,,,,,
,,,,,,,,2023-08-16_08h46.41.669,HF_wild_card,2022.2.4,MacIntel,60.0024001,5b1562981e55760001ba1e64,64d2fd46c836a06233681665,64dc7e53dbb42702cad3cde5,,,,,,,sngl,resources/DBN.BMP,resources/Empty.png,Door4,-0.385529514,0.023676215,1,0,0,0.7664,optionLeft,60,7165,4,3,0,3,0,1,,,,,,,,,,,,,,,,,,,,,,,,,,,,,,,,,,,,,,,
,,,,,,,,2023-08-16_08h46.41.669,HF_wild_card,2022.2.4,MacIntel,60.0024001,5b1562981e55760001ba1e64,64d2fd46c836a06233681665,64dc7e53dbb42702cad3cde5,,,,,,,sngl,resources/DG.BMP,resources/Empty.png,WildCard_NonEx,-0.274001736,0.001475694,1,0,0,0.8134,optionLeft,55,7220,4,4,0,4,0,1,,,,,,,,,,,,,,,,,,,,,,,,,,,,,,,,,,,,,,,
,,,,,,,,2023-08-16_08h46.41.669,HF_wild_card,2022.2.4,MacIntel,60.0024001,5b1562981e55760001ba1e64,64d2fd46c836a06233681665,64dc7e53dbb42702cad3cde5,,,,,,,decisionTrl,resources/DP.BMP,resources/DBN.BMP,Door3,-0.333211806,-0.013632813,1,0,0,0.9285,optionLeft,70,7290,4,5,0,5,0,1,,,,,,,,,,,,,,,,,,,,,,,,,,,,,,,,,,,,,,,
,,,,,,,,2023-08-16_08h46.41.669,HF_wild_card,2022.2.4,MacIntel,60.0024001,5b1562981e55760001ba1e64,64d2fd46c836a06233681665,64dc7e53dbb42702cad3cde5,,,,,,,decisionTrl,resources/DB.BMP,resources/DG.BMP,WildCard_NonEx,0.315581597,-0.00718316,1,0,0,1.1144,optionRight,55,7345,4,6,0,6,0,1,,,,,,,,,,,,,,,,,,,,,,,,,,,,,,,,,,,,,,,
,,,,,,,,2023-08-16_08h46.41.669,HF_wild_card,2022.2.4,MacIntel,60.0024001,5b1562981e55760001ba1e64,64d2fd46c836a06233681665,64dc7e53dbb42702cad3cde5,,,,,,,sngl,resources/Empty.png,resources/DG.BMP,WildCard_NonEx,0.307335069,0.020907118,1,0,0,0.8485,optionRight,55,7400,4,7,0,7,0,1,,,,,,,,,,,,,,,,,,,,,,,,,,,,,,,,,,,,,,,
,,,,,,,,2023-08-16_08h46.41.669,HF_wild_card,2022.2.4,MacIntel,60.0024001,5b1562981e55760001ba1e64,64d2fd46c836a06233681665,64dc7e53dbb42702cad3cde5,,,,,,,sngl,resources/Empty.png,resources/DB.BMP,Door1,0.330373264,0.01672309,1,0,0,0.7341,optionRight,30,7430,4,8,0,8,0,1,,,,,,,,,,,,,,,,,,,,,,,,,,,,,,,,,,,,,,,
,,,,,,,,2023-08-16_08h46.41.669,HF_wild_card,2022.2.4,MacIntel,60.0024001,5b1562981e55760001ba1e64,64d2fd46c836a06233681665,64dc7e53dbb42702cad3cde5,,,,,,,decisionTrl,resources/DG.BMP,resources/DBN.BMP,WildCard_NonEx,-0.302686632,-0.033810764,1,0,0,0.6964,optionLeft,55,7485,4,9,0,9,0,1,,,,,,,,,,,,,,,,,,,,,,,,,,,,,,,,,,,,,,,
,,,,,,,,2023-08-16_08h46.41.669,HF_wild_card,2022.2.4,MacIntel,60.0024001,5b1562981e55760001ba1e64,64d2fd46c836a06233681665,64dc7e53dbb42702cad3cde5,,,,,,,decisionTrl,resources/DBN.BMP,resources/DP.BMP,Door4,-0.343563368,-0.016197917,1,0,0,0.6982,optionLeft,60,7545,4,10,0,10,0,1,,,,,,,,,,,,,,,,,,,,,,,,,,,,,,,,,,,,,,,
,,,,,,,,2023-08-16_08h46.41.669,HF_wild_card,2022.2.4,MacIntel,60.0024001,5b1562981e55760001ba1e64,64d2fd46c836a06233681665,64dc7e53dbb42702cad3cde5,,,,,,,ctch,resources/DP.BMP,resources/DR.BMP,Door3,-0.307439236,-0.013580729,1,0,0,0.7784,optionLeft,70,7615,4,11,0,11,0,1,,,,,,,,,,,,,,,,,,,,,,,,,,,,,,,,,,,,,,,
,,,,,,,,2023-08-16_08h46.41.669,HF_wild_card,2022.2.4,MacIntel,60.0024001,5b1562981e55760001ba1e64,64d2fd46c836a06233681665,64dc7e53dbb42702cad3cde5,,,,,,,decisionTrl,resources/DR.BMP,resources/DB.BMP,Door1,0.231128472,-0.014188368,1,0,0,1.3458,optionRight,30,7645,4,12,0,12,0,1,,,,,,,,,,,,,,,,,,,,,,,,,,,,,,,,,,,,,,,
,,,,,,,,2023-08-16_08h46.41.669,HF_wild_card,2022.2.4,MacIntel,60.0024001,5b1562981e55760001ba1e64,64d2fd46c836a06233681665,64dc7e53dbb42702cad3cde5,,,,,,,decisionTrl,resources/DP.BMP,resources/DBN.BMP,Door4,0.370460069,0.010277778,1,0,0,0.8488,optionRight,60,7705,4,13,0,13,0,1,,,,,,,,,,,,,,,,,,,,,,,,,,,,,,,,,,,,,,,
,,,,,,,,2023-08-16_08h46.41.669,HF_wild_card,2022.2.4,MacIntel,60.0024001,5b1562981e55760001ba1e64,64d2fd46c836a06233681665,64dc7e53dbb42702cad3cde5,,,,,,,decisionTrl,resources/DP.BMP,resources/DBN.BMP,Door4,0.320850694,0.013181424,1,0,0,0.8799,optionRight,80,7785,4,14,0,14,0,1,,,,,,,,,,,,,,,,,,,,,,,,,,,,,,,,,,,,,,,
,,,,,,,,2023-08-16_08h46.41.669,HF_wild_card,2022.2.4,MacIntel,60.0024001,5b1562981e55760001ba1e64,64d2fd46c836a06233681665,64dc7e53dbb42702cad3cde5,,,,,,,ctch,resources/DR.BMP,resources/DP.BMP,Door3,0.205,-0.024618056,1,0,0,1.1651,optionRight,70,7855,4,15,0,15,0,1,,,,,,,,,,,,,,,,,,,,,,,,,,,,,,,,,,,,,,,
,,,,,,,,2023-08-16_08h46.41.669,HF_wild_card,2022.2.4,MacIntel,60.0024001,5b1562981e55760001ba1e64,64d2fd46c836a06233681665,64dc7e53dbb42702cad3cde5,,,,,,,decisionTrl,resources/DR.BMP,resources/DB.BMP,Door1,0.178315972,-0.014144965,1,0,0,1.079,optionRight,30,7885,4,16,0,16,0,1,,,,,,,,,,,,,,,,,,,,,,,,,,,,,,,,,,,,,,,
,,,,,,,,2023-08-16_08h46.41.669,HF_wild_card,2022.2.4,MacIntel,60.0024001,5b1562981e55760001ba1e64,64d2fd46c836a06233681665,64dc7e53dbb42702cad3cde5,,,,,,,sngl,resources/Empty.png,resources/DG.BMP,WildCard_NonEx,0.393867187,-0.014435764,1,0,0,0.7315,optionRight,45,7930,4,17,0,17,0,1,,,,,,,,,,,,,,,,,,,,,,,,,,,,,,,,,,,,,,,
,,,,,,,,2023-08-16_08h46.41.669,HF_wild_card,2022.2.4,MacIntel,60.0024001,5b1562981e55760001ba1e64,64d2fd46c836a06233681665,64dc7e53dbb42702cad3cde5,,,,,,,ctch,resources/DB.BMP,resources/DBN.BMP,Door4,0.265069444,-0.009422743,1,0,0,1.0797,optionRight,60,7990,4,18,0,18,0,1,,,,,,,,,,,,,,,,,,,,,,,,,,,,,,,,,,,,,,,
,,,,,,,,2023-08-16_08h46.41.669,HF_wild_card,2022.2.4,MacIntel,60.0024001,5b1562981e55760001ba1e64,64d2fd46c836a06233681665,64dc7e53dbb42702cad3cde5,,,,,,,sngl,resources/DP.BMP,resources/Empty.png,Door3,-0.424110243,0.008637153,1,0,0,0.6967,optionLeft,70,8060,4,19,0,19,0,1,,,,,,,,,,,,,,,,,,,,,,,,,,,,,,,,,,,,,,,
,,,,,,,,2023-08-16_08h46.41.669,HF_wild_card,2022.2.4,MacIntel,60.0024001,5b1562981e55760001ba1e64,64d2fd46c836a06233681665,64dc7e53dbb42702cad3cde5,,,,,,,decisionTrl,resources/DB.BMP,resources/DR.BMP,Door1,-0.293502604,-0.015334201,1,0,0,0.9459,optionLeft,30,8090,4,20,0,20,0,1,,,,,,,,,,,,,,,,,,,,,,,,,,,,,,,,,,,,,,,
,,,,,,,,2023-08-16_08h46.41.669,HF_wild_card,2022.2.4,MacIntel,60.0024001,5b1562981e55760001ba1e64,64d2fd46c836a06233681665,64dc7e53dbb42702cad3cde5,,,,,,,ctch,resources/DR.BMP,resources/DP.BMP,Door2,-0.186480035,-0.006987847,1,0,0,1.0126,optionLeft,40,8130,4,21,0,21,0,1,,,,,,,,,,,,,,,,,,,,,,,,,,,,,,,,,,,,,,,
,,,,,,,,2023-08-16_08h46.41.669,HF_wild_card,2022.2.4,MacIntel,60.0024001,5b1562981e55760001ba1e64,64d2fd46c836a06233681665,64dc7e53dbb42702cad3cde5,,,,,,,decisionTrl,resources/DG.BMP,resources/DP.BMP,WildCard_NonEx,-0.281484375,-0.013641493,1,0,0,0.8451,optionLeft,55,8185,4,22,0,22,0,1,,,,,,,,,,,,,,,,,,,,,,,,,,,,,,,,,,,,,,,
,,,,,,,,2023-08-16_08h46.41.669,HF_wild_card,2022.2.4,MacIntel,60.0024001,5b1562981e55760001ba1e64,64d2fd46c836a06233681665,64dc7e53dbb42702cad3cde5,,,,,,,ctch,resources/DP.BMP,resources/DR.BMP,Door3,-0.340347222,-0.023472222,1,0,0,0.696,optionLeft,70,8255,4,23,0,23,0,1,,,,,,,,,,,,,,,,,,,,,,,,,,,,,,,,,,,,,,,
,,,,,,,,2023-08-16_08h46.41.669,HF_wild_card,2022.2.4,MacIntel,60.0024001,5b1562981e55760001ba1e64,64d2fd46c836a06233681665,64dc7e53dbb42702cad3cde5,,,,,,,ctch,resources/DBN.BMP,resources/DB.BMP,Door4,-0.405047743,0.01937066,1,0,0,0.7974,optionLeft,60,8315,4,24,0,24,0,1,,,,,,,,,,,,,,,,,,,,,,,,,,,,,,,,,,,,,,,
,,,,,,,,2023-08-16_08h46.41.669,HF_wild_card,2022.2.4,MacIntel,60.0024001,5b1562981e55760001ba1e64,64d2fd46c836a06233681665,64dc7e53dbb42702cad3cde5,,,,,,,decisionTrl,resources/DB.BMP,resources/DR.BMP,Door2,0.399357639,0.0428125,1,0,0,2.0804,optionRight,20,8335,4,25,0,25,0,1,,,,,,,,,,,,,,,,,,,,,,,,,,,,,,,,,,,,,,,
,,,,,,,,2023-08-16_08h46.41.669,HF_wild_card,2022.2.4,MacIntel,60.0024001,5b1562981e55760001ba1e64,64d2fd46c836a06233681665,64dc7e53dbb42702cad3cde5,,,,,,,decisionTrl,resources/DB.BMP,resources/DR.BMP,Door1,-0.264952257,-0.026822917,1,0,0,1.1487,optionLeft,30,8365,4,26,0,26,0,1,,,,,,,,,,,,,,,,,,,,,,,,,,,,,,,,,,,,,,,
,,,,,,,,2023-08-16_08h46.41.669,HF_wild_card,2022.2.4,MacIntel,60.0024001,5b1562981e55760001ba1e64,64d2fd46c836a06233681665,64dc7e53dbb42702cad3cde5,,,,,,,decisionTrl,resources/DG.BMP,resources/DB.BMP,WildCard_NonEx,-0.345434028,-0.057699653,1,0,0,0.8477,optionLeft,55,8420,4,27,0,27,0,1,,,,,,,,,,,,,,,,,,,,,,,,,,,,,,,,,,,,,,,
,,,,,,,,2023-08-16_08h46.41.669,HF_wild_card,2022.2.4,MacIntel,60.0024001,5b1562981e55760001ba1e64,64d2fd46c836a06233681665,64dc7e53dbb42702cad3cde5,,,,,,,decisionTrl,resources/DR.BMP,resources/DB.BMP,Door1,0.287569444,0.023450521,1,0,0,0.9315,optionRight,30,8450,4,28,0,28,0,1,,,,,,,,,,,,,,,,,,,,,,,,,,,,,,,,,,,,,,,
,,,,,,,,2023-08-16_08h46.41.669,HF_wild_card,2022.2.4,MacIntel,60.0024001,5b1562981e55760001ba1e64,64d2fd46c836a06233681665,64dc7e53dbb42702cad3cde5,,,,,,,decisionTrl,resources/DR.BMP,resources/DB.BMP,Door1,0.229605035,-0.061111111,1,0,0,0.9488,optionRight,30,8480,4,29,0,29,0,1,,,,,,,,,,,,,,,,,,,,,,,,,,,,,,,,,,,,,,,
,,,,,,,,2023-08-16_08h46.41.669,HF_wild_card,2022.2.4,MacIntel,60.0024001,5b1562981e55760001ba1e64,64d2fd46c836a06233681665,64dc7e53dbb42702cad3cde5,,,,,,,decisionTrl,resources/DBN.BMP,resources/DP.BMP,Door4,-0.306128472,-0.03203559,1,0,0,1.078,optionLeft,60,8540,4,30,0,30,0,1,,,,,,,,,,,,,,,,,,,,,,,,,,,,,,,,,,,,,,,
,,,,,,,,2023-08-16_08h46.41.669,HF_wild_card,2022.2.4,MacIntel,60.0024001,5b1562981e55760001ba1e64,64d2fd46c836a06233681665,64dc7e53dbb42702cad3cde5,,,,,,,decisionTrl,resources/DR.BMP,resources/DG.BMP,WildCard_NonEx,0.370881076,0.010616319,1,0,0,1.2503,optionRight,55,8595,4,31,0,31,0,1,,,,,,,,,,,,,,,,,,,,,,,,,,,,,,,,,,,,,,,
,,,,,,,,2023-08-16_08h46.41.669,HF_wild_card,2022.2.4,MacIntel,60.0024001,5b1562981e55760001ba1e64,64d2fd46c836a06233681665,64dc7e53dbb42702cad3cde5,,,,,,,sngl,resources/Empty.png,resources/DR.BMP,Door2,0.307009549,0.004466146,1,0,0,0.9825,optionRight,40,8635,4,32,0,32,0,1,,,,,,,,,,,,,,,,,,,,,,,,,,,,,,,,,,,,,,,
,,,,,,,,2023-08-16_08h46.41.669,HF_wild_card,2022.2.4,MacIntel,60.0024001,5b1562981e55760001ba1e64,64d2fd46c836a06233681665,64dc7e53dbb42702cad3cde5,,,,,,,decisionTrl,resources/DP.BMP,resources/DBN.BMP,Door4,0.342838542,0.006302083,1,0,0,0.9804,optionRight,80,8715,4,33,0,33,0,1,,,,,,,,,,,,,,,,,,,,,,,,,,,,,,,,,,,,,,,
,,,,,,,,2023-08-16_08h46.41.669,HF_wild_card,2022.2.4,MacIntel,60.0024001,5b1562981e55760001ba1e64,64d2fd46c836a06233681665,64dc7e53dbb42702cad3cde5,,,,,,,decisionTrl,resources/DB.BMP,resources/DR.BMP,Door1,-0.348046875,-0.009887153,1,0,0,0.9157,optionLeft,30,8745,4,34,0,34,0,1,,,,,,,,,,,,,,,,,,,,,,,,,,,,,,,,,,,,,,,
,,,,,,,,2023-08-16_08h46.41.669,HF_wild_card,2022.2.4,MacIntel,60.0024001,5b1562981e55760001ba1e64,64d2fd46c836a06233681665,64dc7e53dbb42702cad3cde5,,,,,,,sngl,resources/DR.BMP,resources/Empty.png,Door2,-0.351770833,-0.027721354,1,0,0,0.6139,optionLeft,20,8765,4,35,0,35,0,1,,,,,,,,,,,,,,,,,,,,,,,,,,,,,,,,,,,,,,,
,,,,,,,,2023-08-16_08h46.41.669,HF_wild_card,2022.2.4,MacIntel,60.0024001,5b1562981e55760001ba1e64,64d2fd46c836a06233681665,64dc7e53dbb42702cad3cde5,,,,,,,sngl,resources/Empty.png,resources/DP.BMP,Door3,0.350824653,-0.020030382,1,0,0,0.7117,optionRight,70,8835,4,36,0,36,0,1,,,,,,,,,,,,,,,,,,,,,,,,,,,,,,,,,,,,,,,
,,,,,,,,2023-08-16_08h46.41.669,HF_wild_card,2022.2.4,MacIntel,60.0024001,5b1562981e55760001ba1e64,64d2fd46c836a06233681665,64dc7e53dbb42702cad3cde5,,,,,,,sngl,resources/Empty.png,resources/DBN.BMP,Door4,0.343216146,-0.027851562,1,0,0,0.746,optionRight,80,8915,4,37,0,37,0,1,,,,,,,,,,,,,,,,,,,,,,,,,,,,,,,,,,,,,,,
,,,,,,,,2023-08-16_08h46.41.669,HF_wild_card,2022.2.4,MacIntel,60.0024001,5b1562981e55760001ba1e64,64d2fd46c836a06233681665,64dc7e53dbb42702cad3cde5,,,,,,,sngl,resources/DB.BMP,resources/Empty.png,Door1,-0.394700521,-0.006471354,1,0,0,0.7635,optionLeft,30,8945,4,38,0,38,0,1,,,,,,,,,,,,,,,,,,,,,,,,,,,,,,,,,,,,,,,
,,,,,,,,2023-08-16_08h46.41.669,HF_wild_card,2022.2.4,MacIntel,60.0024001,5b1562981e55760001ba1e64,64d2fd46c836a06233681665,64dc7e53dbb42702cad3cde5,,,,,,,sngl,resources/DG.BMP,resources/Empty.png,WildCard_NonEx,-0.300234375,-0.051631944,1,0,0,0.7481,optionLeft,45,8990,4,39,0,39,0,1,,,,,,,,,,,,,,,,,,,,,,,,,,,,,,,,,,,,,,,
,,,,,,,,2023-08-16_08h46.41.669,HF_wild_card,2022.2.4,MacIntel,60.0024001,5b1562981e55760001ba1e64,64d2fd46c836a06233681665,64dc7e53dbb42702cad3cde5,,,,,,,decisionTrl,resources/DBN.BMP,resources/DG.BMP,Door4,-0.364561632,0.003615451,1,0,0,0.7815,optionLeft,80,9070,4,40,0,40,0,1,,,,,,,,,,,,,,,,,,,,,,,,,,,,,,,,,,,,,,,
,,,,,,,,2023-08-16_08h46.41.669,HF_wild_card,2022.2.4,MacIntel,60.0024001,5b1562981e55760001ba1e64,64d2fd46c836a06233681665,64dc7e53dbb42702cad3cde5,,,,,,,decisionTrl,resources/DG.BMP,resources/DR.BMP,WildCard_NonEx,-0.383984375,-0.001423611,1,0,0,0.7155,optionLeft,45,9115,4,41,0,41,0,1,,,,,,,,,,,,,,,,,,,,,,,,,,,,,,,,,,,,,,,
,,,,,,,,2023-08-16_08h46.41.669,HF_wild_card,2022.2.4,MacIntel,60.0024001,5b1562981e55760001ba1e64,64d2fd46c836a06233681665,64dc7e53dbb42702cad3cde5,,,,,,,decisionTrl,resources/DBN.BMP,resources/DP.BMP,Door4,-0.368355035,-0.000260417,1,0,0,0.7298,optionLeft,60,9175,4,42,0,42,0,1,,,,,,,,,,,,,,,,,,,,,,,,,,,,,,,,,,,,,,,
,,,,,,,,2023-08-16_08h46.41.669,HF_wild_card,2022.2.4,MacIntel,60.0024001,5b1562981e55760001ba1e64,64d2fd46c836a06233681665,64dc7e53dbb42702cad3cde5,,,,,,,decisionTrl,resources/DP.BMP,resources/DG.BMP,Door3,-0.313181424,-0.034674479,1,0,0,1.3152,optionLeft,70,9245,4,43,0,43,0,1,,,,,,,,,,,,,,,,,,,,,,,,,,,,,,,,,,,,,,,
,,,,,,,,2023-08-16_08h46.41.669,HF_wild_card,2022.2.4,MacIntel,60.0024001,5b1562981e55760001ba1e64,64d2fd46c836a06233681665,64dc7e53dbb42702cad3cde5,,,,,,,,,,,,,,,,,,,,,,,,,,3,0,3,0,1,,,,,,,,,,,,,,,,,,,,,,,,,,,,,,,,,,
,,,,,,,,2023-08-16_08h46.41.669,HF_wild_card,2022.2.4,MacIntel,60.0024001,5b1562981e55760001ba1e64,64d2fd46c836a06233681665,64dc7e53dbb42702cad3cde5,,,,,,,decisionTrl,resources/DBN.BMP,resources/DG.BMP,Door4,-0.346775174,0.003949653,1,0,0,2.2325,optionLeft,80,9325,5,0,0,0,0,1,,,,,,,,,,,,,,,,,,,,,,,,,,,,,,,,,,,,,,,
,,,,,,,,2023-08-16_08h46.41.669,HF_wild_card,2022.2.4,MacIntel,60.0024001,5b1562981e55760001ba1e64,64d2fd46c836a06233681665,64dc7e53dbb42702cad3cde5,,,,,,,sngl,resources/DR.BMP,resources/Empty.png,Door2,-0.340490451,-0.01233941,1,0,0,0.8293,optionLeft,40,9365,5,1,0,1,0,1,,,,,,,,,,,,,,,,,,,,,,,,,,,,,,,,,,,,,,,
,,,,,,,,2023-08-16_08h46.41.669,HF_wild_card,2022.2.4,MacIntel,60.0024001,5b1562981e55760001ba1e64,64d2fd46c836a06233681665,64dc7e53dbb42702cad3cde5,,,,,,,decisionTrl,resources/DB.BMP,resources/DG.BMP,WildCard_NonEx,0.438428819,-0.008619792,1,0,0,1.4962,optionRight,45,9410,5,2,0,2,0,1,,,,,,,,,,,,,,,,,,,,,,,,,,,,,,,,,,,,,,,
,,,,,,,,2023-08-16_08h46.41.669,HF_wild_card,2022.2.4,MacIntel,60.0024001,5b1562981e55760001ba1e64,64d2fd46c836a06233681665,64dc7e53dbb42702cad3cde5,,,,,,,decisionTrl,resources/DBN.BMP,resources/DP.BMP,Door4,-0.368381076,0.023819444,1,0,0,1.2989,optionLeft,80,9490,5,3,0,3,0,1,,,,,,,,,,,,,,,,,,,,,,,,,,,,,,,,,,,,,,,
,,,,,,,,2023-08-16_08h46.41.669,HF_wild_card,2022.2.4,MacIntel,60.0024001,5b1562981e55760001ba1e64,64d2fd46c836a06233681665,64dc7e53dbb42702cad3cde5,,,,,,,sngl,resources/Empty.png,resources/DP.BMP,Door3,0.282174479,-0.002847222,1,0,0,0.7968,optionRight,70,9560,5,4,0,4,0,1,,,,,,,,,,,,,,,,,,,,,,,,,,,,,,,,,,,,,,,
,,,,,,,,2023-08-16_08h46.41.669,HF_wild_card,2022.2.4,MacIntel,60.0024001,5b1562981e55760001ba1e64,64d2fd46c836a06233681665,64dc7e53dbb42702cad3cde5,,,,,,,sngl,resources/Empty.png,resources/DG.BMP,WildCard_NonEx,0.345733507,-0.008446181,1,0,0,0.7484,optionRight,45,9605,5,5,0,5,0,1,,,,,,,,,,,,,,,,,,,,,,,,,,,,,,,,,,,,,,,
,,,,,,,,2023-08-16_08h46.41.669,HF_wild_card,2022.2.4,MacIntel,60.0024001,5b1562981e55760001ba1e64,64d2fd46c836a06233681665,64dc7e53dbb42702cad3cde5,,,,,,,sngl,resources/DBN.BMP,resources/Empty.png,Door4,-0.469171007,-0.006671007,1,0,0,0.7296,optionLeft,80,9685,5,6,0,6,0,1,,,,,,,,,,,,,,,,,,,,,,,,,,,,,,,,,,,,,,,
,,,,,,,,2023-08-16_08h46.41.669,HF_wild_card,2022.2.4,MacIntel,60.0024001,5b1562981e55760001ba1e64,64d2fd46c836a06233681665,64dc7e53dbb42702cad3cde5,,,,,,,decisionTrl,resources/DBN.BMP,resources/DP.BMP,Door4,-0.358763021,0.010143229,1,0,0,1.0823,optionLeft,60,9745,5,7,0,7,0,1,,,,,,,,,,,,,,,,,,,,,,,,,,,,,,,,,,,,,,,
,,,,,,,,2023-08-16_08h46.41.669,HF_wild_card,2022.2.4,MacIntel,60.0024001,5b1562981e55760001ba1e64,64d2fd46c836a06233681665,64dc7e53dbb42702cad3cde5,,,,,,,decisionTrl,resources/DR.BMP,resources/DB.BMP,Door2,-0.301471354,-0.025529514,1,0,0,2.0486,optionLeft,40,9785,5,8,0,8,0,1,,,,,,,,,,,,,,,,,,,,,,,,,,,,,,,,,,,,,,,
,,,,,,,,2023-08-16_08h46.41.669,HF_wild_card,2022.2.4,MacIntel,60.0024001,5b1562981e55760001ba1e64,64d2fd46c836a06233681665,64dc7e53dbb42702cad3cde5,,,,,,,sngl,resources/DP.BMP,resources/Empty.png,Door3,-0.317864583,0.002860243,1,0,0,0.7994,optionLeft,70,9855,5,9,0,9,0,1,,,,,,,,,,,,,,,,,,,,,,,,,,,,,,,,,,,,,,,
,,,,,,,,2023-08-16_08h46.41.669,HF_wild_card,2022.2.4,MacIntel,60.0024001,5b1562981e55760001ba1e64,64d2fd46c836a06233681665,64dc7e53dbb42702cad3cde5,,,,,,,decisionTrl,resources/DR.BMP,resources/DB.BMP,Door2,-0.317847222,-0.026358507,1,0,0,1.0794,optionLeft,20,9875,5,10,0,10,0,1,,,,,,,,,,,,,,,,,,,,,,,,,,,,,,,,,,,,,,,
,,,,,,,,2023-08-16_08h46.41.669,HF_wild_card,2022.2.4,MacIntel,60.0024001,5b1562981e55760001ba1e64,64d2fd46c836a06233681665,64dc7e53dbb42702cad3cde5,,,,,,,decisionTrl,resources/DP.BMP,resources/DG.BMP,Door3,-0.35312066,-0.056167535,1,0,0,1.165,optionLeft,70,9945,5,11,0,11,0,1,,,,,,,,,,,,,,,,,,,,,,,,,,,,,,,,,,,,,,,
,,,,,,,,2023-08-16_08h46.41.669,HF_wild_card,2022.2.4,MacIntel,60.0024001,5b1562981e55760001ba1e64,64d2fd46c836a06233681665,64dc7e53dbb42702cad3cde5,,,,,,,sngl,resources/DG.BMP,resources/Empty.png,WildCard_NonEx,-0.349357639,-0.021475694,1,0,0,0.8307,optionLeft,45,9990,5,12,0,12,0,1,,,,,,,,,,,,,,,,,,,,,,,,,,,,,,,,,,,,,,,
,,,,,,,,2023-08-16_08h46.41.669,HF_wild_card,2022.2.4,MacIntel,60.0024001,5b1562981e55760001ba1e64,64d2fd46c836a06233681665,64dc7e53dbb42702cad3cde5,,,,,,,decisionTrl,resources/DG.BMP,resources/DBN.BMP,Door4,0.396206597,0.029110243,1,0,0,0.8936,optionRight,60,10050,5,13,0,13,0,1,,,,,,,,,,,,,,,,,,,,,,,,,,,,,,,,,,,,,,,
,,,,,,,,2023-08-16_08h46.41.669,HF_wild_card,2022.2.4,MacIntel,60.0024001,5b1562981e55760001ba1e64,64d2fd46c836a06233681665,64dc7e53dbb42702cad3cde5,,,,,,,sngl,resources/Empty.png,resources/DB.BMP,Door1,0.270438368,0.010013021,1,0,0,0.8817,optionRight,30,10080,5,14,0,14,0,1,,,,,,,,,,,,,,,,,,,,,,,,,,,,,,,,,,,,,,,
,,,,,,,,2023-08-16_08h46.41.669,HF_wild_card,2022.2.4,MacIntel,60.0024001,5b1562981e55760001ba1e64,64d2fd46c836a06233681665,64dc7e53dbb42702cad3cde5,,,,,,,ctch,resources/DR.BMP,resources/DP.BMP,Door3,0.278619792,-0.017790799,1,0,0,1.2625,optionRight,70,10150,5,15,0,15,0,1,,,,,,,,,,,,,,,,,,,,,,,,,,,,,,,,,,,,,,,
,,,,,,,,2023-08-16_08h46.41.669,HF_wild_card,2022.2.4,MacIntel,60.0024001,5b1562981e55760001ba1e64,64d2fd46c836a06233681665,64dc7e53dbb42702cad3cde5,,,,,,,ctch,resources/DB.BMP,resources/DBN.BMP,Door4,0.329201389,0.018723958,1,0,0,0.9463,optionRight,80,10230,5,16,0,16,0,1,,,,,,,,,,,,,,,,,,,,,,,,,,,,,,,,,,,,,,,
,,,,,,,,2023-08-16_08h46.41.669,HF_wild_card,2022.2.4,MacIntel,60.0024001,5b1562981e55760001ba1e64,64d2fd46c836a06233681665,64dc7e53dbb42702cad3cde5,,,,,,,decisionTrl,resources/DR.BMP,resources/DB.BMP,Door2,-0.352690972,-0.023875868,1,0,0,1.864,optionLeft,40,10270,5,17,0,17,0,1,,,,,,,,,,,,,,,,,,,,,,,,,,,,,,,,,,,,,,,
,,,,,,,,2023-08-16_08h46.41.669,HF_wild_card,2022.2.4,MacIntel,60.0024001,5b1562981e55760001ba1e64,64d2fd46c836a06233681665,64dc7e53dbb42702cad3cde5,,,,,,,decisionTrl,resources/DP.BMP,resources/DBN.BMP,Door4,0.351328125,-0.022877604,1,0,0,0.9463,optionRight,60,10330,5,18,0,18,0,1,,,,,,,,,,,,,,,,,,,,,,,,,,,,,,,,,,,,,,,
,,,,,,,,2023-08-16_08h46.41.669,HF_wild_card,2022.2.4,MacIntel,60.0024001,5b1562981e55760001ba1e64,64d2fd46c836a06233681665,64dc7e53dbb42702cad3cde5,,,,,,,ctch,resources/DBN.BMP,resources/DB.BMP,Door4,-0.388068576,-0.005668403,1,0,0,0.8796,optionLeft,80,10410,5,19,0,19,0,1,,,,,,,,,,,,,,,,,,,,,,,,,,,,,,,,,,,,,,,
,,,,,,,,2023-08-16_08h46.41.669,HF_wild_card,2022.2.4,MacIntel,60.0024001,5b1562981e55760001ba1e64,64d2fd46c836a06233681665,64dc7e53dbb42702cad3cde5,,,,,,,decisionTrl,resources/DG.BMP,resources/DR.BMP,WildCard_NonEx,-0.400664062,-0.034509549,1,0,0,1.2309,optionLeft,55,10465,5,20,0,20,0,1,,,,,,,,,,,,,,,,,,,,,,,,,,,,,,,,,,,,,,,
,,,,,,,,2023-08-16_08h46.41.669,HF_wild_card,2022.2.4,MacIntel,60.0024001,5b1562981e55760001ba1e64,64d2fd46c836a06233681665,64dc7e53dbb42702cad3cde5,,,,,,,decisionTrl,resources/DP.BMP,resources/DBN.BMP,Door4,0.406875,0.02625,1,0,0,0.9309,optionRight,80,10545,5,21,0,21,0,1,,,,,,,,,,,,,,,,,,,,,,,,,,,,,,,,,,,,,,,
,,,,,,,,2023-08-16_08h46.41.669,HF_wild_card,2022.2.4,MacIntel,60.0024001,5b1562981e55760001ba1e64,64d2fd46c836a06233681665,64dc7e53dbb42702cad3cde5,,,,,,,ctch,resources/DR.BMP,resources/DP.BMP,Door3,0.306414931,-0.015737847,1,0,0,1.1633,optionRight,70,10615,5,22,0,22,0,1,,,,,,,,,,,,,,,,,,,,,,,,,,,,,,,,,,,,,,,
,,,,,,,,2023-08-16_08h46.41.669,HF_wild_card,2022.2.4,MacIntel,60.0024001,5b1562981e55760001ba1e64,64d2fd46c836a06233681665,64dc7e53dbb42702cad3cde5,,,,,,,sngl,resources/Empty.png,resources/DR.BMP,Door2,0.337712674,-0.027287326,1,0,0,0.8482,optionRight,20,10635,5,23,0,23,0,1,,,,,,,,,,,,,,,,,,,,,,,,,,,,,,,,,,,,,,,
,,,,,,,,2023-08-16_08h46.41.669,HF_wild_card,2022.2.4,MacIntel,60.0024001,5b1562981e55760001ba1e64,64d2fd46c836a06233681665,64dc7e53dbb42702cad3cde5,,,,,,,decisionTrl,resources/DR.BMP,resources/DG.BMP,WildCard_NonEx,0.365646701,-0.038342014,1,0,0,1.0626,optionRight,45,10680,5,24,0,24,0,1,,,,,,,,,,,,,,,,,,,,,,,,,,,,,,,,,,,,,,,
,,,,,,,,2023-08-16_08h46.41.669,HF_wild_card,2022.2.4,MacIntel,60.0024001,5b1562981e55760001ba1e64,64d2fd46c836a06233681665,64dc7e53dbb42702cad3cde5,,,,,,,sngl,resources/DB.BMP,resources/Empty.png,Door1,-0.442630208,-0.023671875,1,0,0,0.7478,optionLeft,30,10710,5,25,0,25,0,1,,,,,,,,,,,,,,,,,,,,,,,,,,,,,,,,,,,,,,,
,,,,,,,,2023-08-16_08h46.41.669,HF_wild_card,2022.2.4,MacIntel,60.0024001,5b1562981e55760001ba1e64,64d2fd46c836a06233681665,64dc7e53dbb42702cad3cde5,,,,,,,decisionTrl,resources/DBN.BMP,resources/DP.BMP,Door4,-0.386119792,-0.005247396,1,0,0,0.8814,optionLeft,60,10770,5,26,0,26,0,1,,,,,,,,,,,,,,,,,,,,,,,,,,,,,,,,,,,,,,,
,,,,,,,,2023-08-16_08h46.41.669,HF_wild_card,2022.2.4,MacIntel,60.0024001,5b1562981e55760001ba1e64,64d2fd46c836a06233681665,64dc7e53dbb42702cad3cde5,,,,,,,decisionTrl,resources/DB.BMP,resources/DR.BMP,Door2,0.405217014,-0.024539931,1,0,0,3.6977,optionRight,40,10810,5,27,0,27,0,1,,,,,,,,,,,,,,,,,,,,,,,,,,,,,,,,,,,,,,,
,,,,,,,,2023-08-16_08h46.41.669,HF_wild_card,2022.2.4,MacIntel,60.0024001,5b1562981e55760001ba1e64,64d2fd46c836a06233681665,64dc7e53dbb42702cad3cde5,,,,,,,decisionTrl,resources/DB.BMP,resources/DR.BMP,Door2,0.360828993,-0.000130208,1,0,0,0.8619,optionRight,20,10830,5,28,0,28,0,1,,,,,,,,,,,,,,,,,,,,,,,,,,,,,,,,,,,,,,,
,,,,,,,,2023-08-16_08h46.41.669,HF_wild_card,2022.2.4,MacIntel,60.0024001,5b1562981e55760001ba1e64,64d2fd46c836a06233681665,64dc7e53dbb42702cad3cde5,,,,,,,decisionTrl,resources/DB.BMP,resources/DR.BMP,Door2,0.375212674,-0.015598958,1,0,0,0.8327,optionRight,20,10850,5,29,0,29,0,1,,,,,,,,,,,,,,,,,,,,,,,,,,,,,,,,,,,,,,,
,,,,,,,,2023-08-16_08h46.41.669,HF_wild_card,2022.2.4,MacIntel,60.0024001,5b1562981e55760001ba1e64,64d2fd46c836a06233681665,64dc7e53dbb42702cad3cde5,,,,,,,sngl,resources/Empty.png,resources/DBN.BMP,Door4,0.363702257,0.031276042,1,0,0,0.8131,optionRight,60,10910,5,30,0,30,0,1,,,,,,,,,,,,,,,,,,,,,,,,,,,,,,,,,,,,,,,
,,,,,,,,2023-08-16_08h46.41.669,HF_wild_card,2022.2.4,MacIntel,60.0024001,5b1562981e55760001ba1e64,64d2fd46c836a06233681665,64dc7e53dbb42702cad3cde5,,,,,,,ctch,resources/DP.BMP,resources/DR.BMP,Door3,-0.280551215,-0.025850694,1,0,0,1.5493,optionLeft,70,10980,5,31,0,31,0,1,,,,,,,,,,,,,,,,,,,,,,,,,,,,,,,,,,,,,,,
,,,,,,,,2023-08-16_08h46.41.669,HF_wild_card,2022.2.4,MacIntel,60.0024001,5b1562981e55760001ba1e64,64d2fd46c836a06233681665,64dc7e53dbb42702cad3cde5,,,,,,,decisionTrl,resources/DP.BMP,resources/DBN.BMP,Door4,0.394947917,0.024405382,1,0,0,0.9477,optionRight,60,11040,5,32,0,32,0,1,,,,,,,,,,,,,,,,,,,,,,,,,,,,,,,,,,,,,,,
,,,,,,,,2023-08-16_08h46.41.669,HF_wild_card,2022.2.4,MacIntel,60.0024001,5b1562981e55760001ba1e64,64d2fd46c836a06233681665,64dc7e53dbb42702cad3cde5,,,,,,,decisionTrl,resources/DP.BMP,resources/DBN.BMP,Door4,0.361024306,0.0225,1,0,0,0.9649,optionRight,60,11100,5,33,0,33,0,1,,,,,,,,,,,,,,,,,,,,,,,,,,,,,,,,,,,,,,,
,,,,,,,,2023-08-16_08h46.41.669,HF_wild_card,2022.2.4,MacIntel,60.0024001,5b1562981e55760001ba1e64,64d2fd46c836a06233681665,64dc7e53dbb42702cad3cde5,,,,,,,ctch,resources/DP.BMP,resources/DR.BMP,Door3,-0.342126736,0.008641493,1,0,0,0.9647,optionLeft,70,11170,5,34,0,34,0,1,,,,,,,,,,,,,,,,,,,,,,,,,,,,,,,,,,,,,,,
,,,,,,,,2023-08-16_08h46.41.669,HF_wild_card,2022.2.4,MacIntel,60.0024001,5b1562981e55760001ba1e64,64d2fd46c836a06233681665,64dc7e53dbb42702cad3cde5,,,,,,,decisionTrl,resources/DG.BMP,resources/DP.BMP,Door3,0.326462674,-0.046137153,1,0,0,1.531,optionRight,70,11240,5,35,0,35,0,1,,,,,,,,,,,,,,,,,,,,,,,,,,,,,,,,,,,,,,,
,,,,,,,,2023-08-16_08h46.41.669,HF_wild_card,2022.2.4,MacIntel,60.0024001,5b1562981e55760001ba1e64,64d2fd46c836a06233681665,64dc7e53dbb42702cad3cde5,,,,,,,decisionTrl,resources/DBN.BMP,resources/DP.BMP,Door3,0.504205729,-0.015321181,1,0,0,2.4464,optionRight,70,11310,5,36,0,36,0,1,,,,,,,,,,,,,,,,,,,,,,,,,,,,,,,,,,,,,,,
,,,,,,,,2023-08-16_08h46.41.669,HF_wild_card,2022.2.4,MacIntel,60.0024001,5b1562981e55760001ba1e64,64d2fd46c836a06233681665,64dc7e53dbb42702cad3cde5,,,,,,,ctch,resources/DB.BMP,resources/DBN.BMP,Door4,0.341006944,-0.005928819,1,0,0,0.9466,optionRight,80,11390,5,37,0,37,0,1,,,,,,,,,,,,,,,,,,,,,,,,,,,,,,,,,,,,,,,
,,,,,,,,2023-08-16_08h46.41.669,HF_wild_card,2022.2.4,MacIntel,60.0024001,5b1562981e55760001ba1e64,64d2fd46c836a06233681665,64dc7e53dbb42702cad3cde5,,,,,,,sngl,resources/DG.BMP,resources/Empty.png,WildCard_NonEx,-0.44296441,0.025186632,1,0,0,0.8467,optionLeft,55,11445,5,38,0,38,0,1,,,,,,,,,,,,,,,,,,,,,,,,,,,,,,,,,,,,,,,
,,,,,,,,2023-08-16_08h46.41.669,HF_wild_card,2022.2.4,MacIntel,60.0024001,5b1562981e55760001ba1e64,64d2fd46c836a06233681665,64dc7e53dbb42702cad3cde5,,,,,,,decisionTrl,resources/DB.BMP,resources/DR.BMP,Door1,-0.299943576,-0.05640625,1,0,0,1.7979,optionLeft,30,11475,5,39,0,39,0,1,,,,,,,,,,,,,,,,,,,,,,,,,,,,,,,,,,,,,,,
,,,,,,,,2023-08-16_08h46.41.669,HF_wild_card,2022.2.4,MacIntel,60.0024001,5b1562981e55760001ba1e64,64d2fd46c836a06233681665,64dc7e53dbb42702cad3cde5,,,,,,,sngl,resources/Empty.png,resources/DG.BMP,WildCard_NonEx,0.347092014,0.010455729,1,0,0,0.7501,optionRight,55,11530,5,40,0,40,0,1,,,,,,,,,,,,,,,,,,,,,,,,,,,,,,,,,,,,,,,
,,,,,,,,2023-08-16_08h46.41.669,HF_wild_card,2022.2.4,MacIntel,60.0024001,5b1562981e55760001ba1e64,64d2fd46c836a06233681665,64dc7e53dbb42702cad3cde5,,,,,,,ctch,resources/DBN.BMP,resources/DB.BMP,Door4,-0.422760417,0.030481771,1,0,0,1.2825,optionLeft,80,11610,5,41,0,41,0,1,,,,,,,,,,,,,,,,,,,,,,,,,,,,,,,,,,,,,,,
,,,,,,,,2023-08-16_08h46.41.669,HF_wild_card,2022.2.4,MacIntel,60.0024001,5b1562981e55760001ba1e64,64d2fd46c836a06233681665,64dc7e53dbb42702cad3cde5,,,,,,,decisionTrl,resources/DG.BMP,resources/DB.BMP,WildCard_NonEx,-0.291688368,-0.038632813,1,0,0,1.2124,optionLeft,45,11655,5,42,0,42,0,1,,,,,,,,,,,,,,,,,,,,,,,,,,,,,,,,,,,,,,,
,,,,,,,,2023-08-16_08h46.41.669,HF_wild_card,2022.2.4,MacIntel,60.0024001,5b1562981e55760001ba1e64,64d2fd46c836a06233681665,64dc7e53dbb42702cad3cde5,,,,,,,decisionTrl,resources/DR.BMP,resources/DB.BMP,Door2,-0.396762153,-0.043472222,1,0,0,1.1472,optionLeft,20,11675,5,43,0,43,0,1,,,,,,,,,,,,,,,,,,,,,,,,,,,,,,,,,,,,,,,
,,,,,,,,2023-08-16_08h46.41.669,HF_wild_card,2022.2.4,MacIntel,60.0024001,5b1562981e55760001ba1e64,64d2fd46c836a06233681665,64dc7e53dbb42702cad3cde5,,,,,,,,,,,,,,,,,,,,,,,,,,4,0,4,0,1,,,,,,,,,,,,,,,,,,,,,,,,,,,,,,,,,,
,,,,,,,,2023-08-16_08h46.41.669,HF_wild_card,2022.2.4,MacIntel,60.0024001,5b1562981e55760001ba1e64,64d2fd46c836a06233681665,64dc7e53dbb42702cad3cde5,,,,,,,ctch,resources/DP.BMP,resources/DR.BMP,Door3,-0.426948785,0.016896701,1,0,0,1.649,optionLeft,70,11745,6,0,0,0,0,1,,,,,,,,,,,,,,,,,,,,,,,,,,,,,,,,,,,,,,,
,,,,,,,,2023-08-16_08h46.41.669,HF_wild_card,2022.2.4,MacIntel,60.0024001,5b1562981e55760001ba1e64,64d2fd46c836a06233681665,64dc7e53dbb42702cad3cde5,,,,,,,decisionTrl,resources/DG.BMP,resources/DB.BMP,WildCard_NonEx,-0.364644097,-0.00078559,1,0,0,1.1792,optionLeft,55,11800,6,1,0,1,0,1,,,,,,,,,,,,,,,,,,,,,,,,,,,,,,,,,,,,,,,
,,,,,,,,2023-08-16_08h46.41.669,HF_wild_card,2022.2.4,MacIntel,60.0024001,5b1562981e55760001ba1e64,64d2fd46c836a06233681665,64dc7e53dbb42702cad3cde5,,,,,,,ctch,resources/DR.BMP,resources/DP.BMP,Door3,0.344305556,-0.075659722,1,0,0,1.1975,optionRight,70,11870,6,2,0,2,0,1,,,,,,,,,,,,,,,,,,,,,,,,,,,,,,,,,,,,,,,
,,,,,,,,2023-08-16_08h46.41.669,HF_wild_card,2022.2.4,MacIntel,60.0024001,5b1562981e55760001ba1e64,64d2fd46c836a06233681665,64dc7e53dbb42702cad3cde5,,,,,,,sngl,resources/DR.BMP,resources/Empty.png,Door2,-0.322005208,-0.019479167,1,0,0,0.9293,optionLeft,20,11890,6,3,0,3,0,1,,,,,,,,,,,,,,,,,,,,,,,,,,,,,,,,,,,,,,,
,,,,,,,,2023-08-16_08h46.41.669,HF_wild_card,2022.2.4,MacIntel,60.0024001,5b1562981e55760001ba1e64,64d2fd46c836a06233681665,64dc7e53dbb42702cad3cde5,,,,,,,decisionTrl,resources/DG.BMP,resources/DR.BMP,WildCard_NonEx,-0.316284722,0.000651042,1,0,0,0.964,optionLeft,45,11935,6,4,0,4,0,1,,,,,,,,,,,,,,,,,,,,,,,,,,,,,,,,,,,,,,,
,,,,,,,,2023-08-16_08h46.41.669,HF_wild_card,2022.2.4,MacIntel,60.0024001,5b1562981e55760001ba1e64,64d2fd46c836a06233681665,64dc7e53dbb42702cad3cde5,,,,,,,sngl,resources/DG.BMP,resources/Empty.png,WildCard_NonEx,-0.324175347,-0.04203125,1,0,0,0.812,optionLeft,55,11990,6,5,0,5,0,1,,,,,,,,,,,,,,,,,,,,,,,,,,,,,,,,,,,,,,,
,,,,,,,,2023-08-16_08h46.41.669,HF_wild_card,2022.2.4,MacIntel,60.0024001,5b1562981e55760001ba1e64,64d2fd46c836a06233681665,64dc7e53dbb42702cad3cde5,,,,,,,decisionTrl,resources/DR.BMP,resources/DG.BMP,WildCard_NonEx,0.420711806,-0.029670139,1,0,0,1.0975,optionRight,55,12045,6,6,0,6,0,1,,,,,,,,,,,,,,,,,,,,,,,,,,,,,,,,,,,,,,,
,,,,,,,,2023-08-16_08h46.41.669,HF_wild_card,2022.2.4,MacIntel,60.0024001,5b1562981e55760001ba1e64,64d2fd46c836a06233681665,64dc7e53dbb42702cad3cde5,,,,,,,ctch,resources/DP.BMP,resources/DR.BMP,Door3,-0.440685764,-0.03171875,1,0,0,1.1136,optionLeft,70,12115,6,7,0,7,0,1,,,,,,,,,,,,,,,,,,,,,,,,,,,,,,,,,,,,,,,
,,,,,,,,2023-08-16_08h46.41.669,HF_wild_card,2022.2.4,MacIntel,60.0024001,5b1562981e55760001ba1e64,64d2fd46c836a06233681665,64dc7e53dbb42702cad3cde5,,,,,,,decisionTrl,resources/DP.BMP,resources/DBN.BMP,Door3,-0.328567708,-0.055342882,1,0,0,1.1806,optionLeft,70,12185,6,8,0,8,0,1,,,,,,,,,,,,,,,,,,,,,,,,,,,,,,,,,,,,,,,
,,,,,,,,2023-08-16_08h46.41.669,HF_wild_card,2022.2.4,MacIntel,60.0024001,5b1562981e55760001ba1e64,64d2fd46c836a06233681665,64dc7e53dbb42702cad3cde5,,,,,,,decisionTrl,resources/DB.BMP,resources/DR.BMP,Door2,0.364127604,-0.009201389,1,0,0,1.9289,optionRight,20,12205,6,9,0,9,0,1,,,,,,,,,,,,,,,,,,,,,,,,,,,,,,,,,,,,,,,
,,,,,,,,2023-08-16_08h46.41.669,HF_wild_card,2022.2.4,MacIntel,60.0024001,5b1562981e55760001ba1e64,64d2fd46c836a06233681665,64dc7e53dbb42702cad3cde5,,,,,,,decisionTrl,resources/DB.BMP,resources/DR.BMP,Door1,-0.341844618,-0.020190972,1,0,0,0.8468,optionLeft,30,12235,6,10,0,10,0,1,,,,,,,,,,,,,,,,,,,,,,,,,,,,,,,,,,,,,,,
,,,,,,,,2023-08-16_08h46.41.669,HF_wild_card,2022.2.4,MacIntel,60.0024001,5b1562981e55760001ba1e64,64d2fd46c836a06233681665,64dc7e53dbb42702cad3cde5,,,,,,,sngl,resources/Empty.png,resources/DBN.BMP,Door4,0.37547309,0.051835937,1,0,0,0.8304,optionRight,80,12315,6,11,0,11,0,1,,,,,,,,,,,,,,,,,,,,,,,,,,,,,,,,,,,,,,,
,,,,,,,,2023-08-16_08h46.41.669,HF_wild_card,2022.2.4,MacIntel,60.0024001,5b1562981e55760001ba1e64,64d2fd46c836a06233681665,64dc7e53dbb42702cad3cde5,,,,,,,decisionTrl,resources/DR.BMP,resources/DB.BMP,Door2,-0.299470486,0.02921441,1,0,0,1.697,optionLeft,40,12355,6,12,0,12,0,1,,,,,,,,,,,,,,,,,,,,,,,,,,,,,,,,,,,,,,,
,,,,,,,,2023-08-16_08h46.41.669,HF_wild_card,2022.2.4,MacIntel,60.0024001,5b1562981e55760001ba1e64,64d2fd46c836a06233681665,64dc7e53dbb42702cad3cde5,,,,,,,decisionTrl,resources/DB.BMP,resources/DG.BMP,WildCard_NonEx,0.389830729,0.008815104,1,0,0,0.9807,optionRight,45,12400,6,13,0,13,0,1,,,,,,,,,,,,,,,,,,,,,,,,,,,,,,,,,,,,,,,
,,,,,,,,2023-08-16_08h46.41.669,HF_wild_card,2022.2.4,MacIntel,60.0024001,5b1562981e55760001ba1e64,64d2fd46c836a06233681665,64dc7e53dbb42702cad3cde5,,,,,,,ctch,resources/DR.BMP,resources/DP.BMP,Door3,0.26641059,-0.010182292,1,0,0,1.4473,optionRight,70,12470,6,14,0,14,0,1,,,,,,,,,,,,,,,,,,,,,,,,,,,,,,,,,,,,,,,
,,,,,,,,2023-08-16_08h46.41.669,HF_wild_card,2022.2.4,MacIntel,60.0024001,5b1562981e55760001ba1e64,64d2fd46c836a06233681665,64dc7e53dbb42702cad3cde5,,,,,,,decisionTrl,resources/DP.BMP,resources/DBN.BMP,Door4,0.360611979,-0.011940104,1,0,0,0.917,optionRight,60,12530,6,15,0,15,0,1,,,,,,,,,,,,,,,,,,,,,,,,,,,,,,,,,,,,,,,
,,,,,,,,2023-08-16_08h46.41.669,HF_wild_card,2022.2.4,MacIntel,60.0024001,5b1562981e55760001ba1e64,64d2fd46c836a06233681665,64dc7e53dbb42702cad3cde5,,,,,,,decisionTrl,resources/DB.BMP,resources/DR.BMP,Door1,-0.321354167,-0.047890625,1,0,0,2.5284,optionLeft,30,12560,6,16,0,16,0,1,,,,,,,,,,,,,,,,,,,,,,,,,,,,,,,,,,,,,,,
,,,,,,,,2023-08-16_08h46.41.669,HF_wild_card,2022.2.4,MacIntel,60.0024001,5b1562981e55760001ba1e64,64d2fd46c836a06233681665,64dc7e53dbb42702cad3cde5,,,,,,,decisionTrl,resources/DG.BMP,resources/DP.BMP,Door3,0.396145833,0.031940104,1,0,0,2.1789,optionRight,70,12630,6,17,0,17,0,1,,,,,,,,,,,,,,,,,,,,,,,,,,,,,,,,,,,,,,,
,,,,,,,,2023-08-16_08h46.41.669,HF_wild_card,2022.2.4,MacIntel,60.0024001,5b1562981e55760001ba1e64,64d2fd46c836a06233681665,64dc7e53dbb42702cad3cde5,,,,,,,decisionTrl,resources/DP.BMP,resources/DG.BMP,Door3,-0.335164931,-0.006957465,1,0,0,1.2151,optionLeft,70,12700,6,18,0,18,0,1,,,,,,,,,,,,,,,,,,,,,,,,,,,,,,,,,,,,,,,
,,,,,,,,2023-08-16_08h46.41.669,HF_wild_card,2022.2.4,MacIntel,60.0024001,5b1562981e55760001ba1e64,64d2fd46c836a06233681665,64dc7e53dbb42702cad3cde5,,,,,,,ctch,resources/DB.BMP,resources/DBN.BMP,Door4,0.438524306,0.074318576,1,0,0,0.9948,optionRight,60,12760,6,19,0,19,0,1,,,,,,,,,,,,,,,,,,,,,,,,,,,,,,,,,,,,,,,
,,,,,,,,2023-08-16_08h46.41.669,HF_wild_card,2022.2.4,MacIntel,60.0024001,5b1562981e55760001ba1e64,64d2fd46c836a06233681665,64dc7e53dbb42702cad3cde5,,,,,,,ctch,resources/DBN.BMP,resources/DB.BMP,Door4,-0.485516493,0.070716146,1,0,0,1.112,optionLeft,80,12840,6,20,0,20,0,1,,,,,,,,,,,,,,,,,,,,,,,,,,,,,,,,,,,,,,,
,,,,,,,,2023-08-16_08h46.41.669,HF_wild_card,2022.2.4,MacIntel,60.0024001,5b1562981e55760001ba1e64,64d2fd46c836a06233681665,64dc7e53dbb42702cad3cde5,,,,,,,decisionTrl,resources/DBN.BMP,resources/DP.BMP,Door4,-0.361180556,-0.005507812,1,0,0,0.995,optionLeft,80,12920,6,21,0,21,0,1,,,,,,,,,,,,,,,,,,,,,,,,,,,,,,,,,,,,,,,
,,,,,,,,2023-08-16_08h46.41.669,HF_wild_card,2022.2.4,MacIntel,60.0024001,5b1562981e55760001ba1e64,64d2fd46c836a06233681665,64dc7e53dbb42702cad3cde5,,,,,,,sngl,resources/DBN.BMP,resources/Empty.png,Door4,-0.372265625,0.010763889,1,0,0,0.7962,optionLeft,60,12980,6,22,0,22,0,1,,,,,,,,,,,,,,,,,,,,,,,,,,,,,,,,,,,,,,,
,,,,,,,,2023-08-16_08h46.41.669,HF_wild_card,2022.2.4,MacIntel,60.0024001,5b1562981e55760001ba1e64,64d2fd46c836a06233681665,64dc7e53dbb42702cad3cde5,,,,,,,sngl,resources/Empty.png,resources/DG.BMP,WildCard_NonEx,0.386736111,0.010099826,1,0,0,0.9117,optionRight,45,13025,6,23,0,23,0,1,,,,,,,,,,,,,,,,,,,,,,,,,,,,,,,,,,,,,,,
,,,,,,,,2023-08-16_08h46.41.669,HF_wild_card,2022.2.4,MacIntel,60.0024001,5b1562981e55760001ba1e64,64d2fd46c836a06233681665,64dc7e53dbb42702cad3cde5,,,,,,,ctch,resources/DB.BMP,resources/DBN.BMP,Door4,0.323177083,0.057513021,1,0,0,1.0166,optionRight,80,13105,6,24,0,24,0,1,,,,,,,,,,,,,,,,,,,,,,,,,,,,,,,,,,,,,,,
,,,,,,,,2023-08-16_08h46.41.669,HF_wild_card,2022.2.4,MacIntel,60.0024001,5b1562981e55760001ba1e64,64d2fd46c836a06233681665,64dc7e53dbb42702cad3cde5,,,,,,,decisionTrl,resources/DBN.BMP,resources/DG.BMP,Door4,-0.363454861,0.040551215,1,0,0,1.0628,optionLeft,60,13165,6,25,0,25,0,1,,,,,,,,,,,,,,,,,,,,,,,,,,,,,,,,,,,,,,,
,,,,,,,,2023-08-16_08h46.41.669,HF_wild_card,2022.2.4,MacIntel,60.0024001,5b1562981e55760001ba1e64,64d2fd46c836a06233681665,64dc7e53dbb42702cad3cde5,,,,,,,decisionTrl,resources/DP.BMP,resources/DBN.BMP,Door4,0.333428819,0.018715278,1,0,0,1.0139,optionRight,60,13225,6,26,0,26,0,1,,,,,,,,,,,,,,,,,,,,,,,,,,,,,,,,,,,,,,,
,,,,,,,,2023-08-16_08h46.41.669,HF_wild_card,2022.2.4,MacIntel,60.0024001,5b1562981e55760001ba1e64,64d2fd46c836a06233681665,64dc7e53dbb42702cad3cde5,,,,,,,sngl,resources/Empty.png,resources/DP.BMP,Door3,0.389796007,0.014262153,1,0,0,0.8483,optionRight,70,13295,6,27,0,27,0,1,,,,,,,,,,,,,,,,,,,,,,,,,,,,,,,,,,,,,,,
,,,,,,,,2023-08-16_08h46.41.669,HF_wild_card,2022.2.4,MacIntel,60.0024001,5b1562981e55760001ba1e64,64d2fd46c836a06233681665,64dc7e53dbb42702cad3cde5,,,,,,,decisionTrl,resources/DG.BMP,resources/DBN.BMP,Door4,0.416736111,0.027686632,1,0,0,1.3307,optionRight,80,13375,6,28,0,28,0,1,,,,,,,,,,,,,,,,,,,,,,,,,,,,,,,,,,,,,,,
,,,,,,,,2023-08-16_08h46.41.669,HF_wild_card,2022.2.4,MacIntel,60.0024001,5b1562981e55760001ba1e64,64d2fd46c836a06233681665,64dc7e53dbb42702cad3cde5,,,,,,,decisionTrl,resources/DBN.BMP,resources/DP.BMP,Door3,0.310182292,0.035217014,1,0,0,2.4483,optionRight,70,13445,6,29,0,29,0,1,,,,,,,,,,,,,,,,,,,,,,,,,,,,,,,,,,,,,,,
,,,,,,,,2023-08-16_08h46.41.669,HF_wild_card,2022.2.4,MacIntel,60.0024001,5b1562981e55760001ba1e64,64d2fd46c836a06233681665,64dc7e53dbb42702cad3cde5,,,,,,,decisionTrl,resources/DR.BMP,resources/DB.BMP,Door1,0.436397569,-0.017291667,1,0,0,2.0118,optionRight,30,13475,6,30,0,30,0,1,,,,,,,,,,,,,,,,,,,,,,,,,,,,,,,,,,,,,,,
,,,,,,,,2023-08-16_08h46.41.669,HF_wild_card,2022.2.4,MacIntel,60.0024001,5b1562981e55760001ba1e64,64d2fd46c836a06233681665,64dc7e53dbb42702cad3cde5,,,,,,,decisionTrl,resources/DBN.BMP,resources/DP.BMP,Door4,-0.326054687,0.059670139,1,0,0,1.1955,optionLeft,80,13555,6,31,0,31,0,1,,,,,,,,,,,,,,,,,,,,,,,,,,,,,,,,,,,,,,,
,,,,,,,,2023-08-16_08h46.41.669,HF_wild_card,2022.2.4,MacIntel,60.0024001,5b1562981e55760001ba1e64,64d2fd46c836a06233681665,64dc7e53dbb42702cad3cde5,,,,,,,decisionTrl,resources/DP.BMP,resources/DBN.BMP,Door4,0.347356771,0.027747396,1,0,0,1.0983,optionRight,80,13635,6,32,0,32,0,1,,,,,,,,,,,,,,,,,,,,,,,,,,,,,,,,,,,,,,,
,,,,,,,,2023-08-16_08h46.41.669,HF_wild_card,2022.2.4,MacIntel,60.0024001,5b1562981e55760001ba1e64,64d2fd46c836a06233681665,64dc7e53dbb42702cad3cde5,,,,,,,sngl,resources/Empty.png,resources/DB.BMP,Door1,0.299175347,0.027938368,1,0,0,0.8779,optionRight,30,13665,6,33,0,33,0,1,,,,,,,,,,,,,,,,,,,,,,,,,,,,,,,,,,,,,,,
,,,,,,,,2023-08-16_08h46.41.669,HF_wild_card,2022.2.4,MacIntel,60.0024001,5b1562981e55760001ba1e64,64d2fd46c836a06233681665,64dc7e53dbb42702cad3cde5,,,,,,,decisionTrl,resources/DBN.BMP,resources/DP.BMP,Door4,-0.351605903,0.001540799,1,0,0,0.9458,optionLeft,80,13745,6,34,0,34,0,1,,,,,,,,,,,,,,,,,,,,,,,,,,,,,,,,,,,,,,,
,,,,,,,,2023-08-16_08h46.41.669,HF_wild_card,2022.2.4,MacIntel,60.0024001,5b1562981e55760001ba1e64,64d2fd46c836a06233681665,64dc7e53dbb42702cad3cde5,,,,,,,decisionTrl,resources/DR.BMP,resources/DB.BMP,Door1,0.390060764,0.004761285,1,0,0,1.8812,optionRight,30,13775,6,35,0,35,0,1,,,,,,,,,,,,,,,,,,,,,,,,,,,,,,,,,,,,,,,
,,,,,,,,2023-08-16_08h46.41.669,HF_wild_card,2022.2.4,MacIntel,60.0024001,5b1562981e55760001ba1e64,64d2fd46c836a06233681665,64dc7e53dbb42702cad3cde5,,,,,,,sngl,resources/DP.BMP,resources/Empty.png,Door3,-0.358051215,-0.002426215,1,0,0,0.8133,optionLeft,70,13845,6,36,0,36,0,1,,,,,,,,,,,,,,,,,,,,,,,,,,,,,,,,,,,,,,,
,,,,,,,,2023-08-16_08h46.41.669,HF_wild_card,2022.2.4,MacIntel,60.0024001,5b1562981e55760001ba1e64,64d2fd46c836a06233681665,64dc7e53dbb42702cad3cde5,,,,,,,sngl,resources/Empty.png,resources/DG.BMP,WildCard_NonEx,0.317673611,0.032491319,1,0,0,0.947,optionRight,55,13900,6,37,0,37,0,1,,,,,,,,,,,,,,,,,,,,,,,,,,,,,,,,,,,,,,,
,,,,,,,,2023-08-16_08h46.41.669,HF_wild_card,2022.2.4,MacIntel,60.0024001,5b1562981e55760001ba1e64,64d2fd46c836a06233681665,64dc7e53dbb42702cad3cde5,,,,,,,sngl,resources/Empty.png,resources/DR.BMP,Door2,0.328350694,0.040086806,1,0,0,0.7646,optionRight,40,13940,6,38,0,38,0,1,,,,,,,,,,,,,,,,,,,,,,,,,,,,,,,,,,,,,,,
,,,,,,,,2023-08-16_08h46.41.669,HF_wild_card,2022.2.4,MacIntel,60.0024001,5b1562981e55760001ba1e64,64d2fd46c836a06233681665,64dc7e53dbb42702cad3cde5,,,,,,,decisionTrl,resources/DB.BMP,resources/DR.BMP,Door2,0.369227431,0.041032986,1,0,0,1.7481,optionRight,40,13980,6,39,0,39,0,1,,,,,,,,,,,,,,,,,,,,,,,,,,,,,,,,,,,,,,,
,,,,,,,,2023-08-16_08h46.41.669,HF_wild_card,2022.2.4,MacIntel,60.0024001,5b1562981e55760001ba1e64,64d2fd46c836a06233681665,64dc7e53dbb42702cad3cde5,,,,,,,sngl,resources/DG.BMP,resources/Empty.png,WildCard_NonEx,-0.465503472,-0.003949653,1,0,0,0.8,optionLeft,45,14025,6,40,0,40,0,1,,,,,,,,,,,,,,,,,,,,,,,,,,,,,,,,,,,,,,,
,,,,,,,,2023-08-16_08h46.41.669,HF_wild_card,2022.2.4,MacIntel,60.0024001,5b1562981e55760001ba1e64,64d2fd46c836a06233681665,64dc7e53dbb42702cad3cde5,,,,,,,decisionTrl,resources/DR.BMP,resources/DB.BMP,Door1,0.286875,-0.009019097,1,0,0,2.0481,optionRight,30,14055,6,41,0,41,0,1,,,,,,,,,,,,,,,,,,,,,,,,,,,,,,,,,,,,,,,
,,,,,,,,2023-08-16_08h46.41.669,HF_wild_card,2022.2.4,MacIntel,60.0024001,5b1562981e55760001ba1e64,64d2fd46c836a06233681665,64dc7e53dbb42702cad3cde5,,,,,,,ctch,resources/DBN.BMP,resources/DB.BMP,Door4,-0.386319444,0.037430556,1,0,0,0.8485,optionLeft,80,14135,6,42,0,42,0,1,,,,,,,,,,,,,,,,,,,,,,,,,,,,,,,,,,,,,,,
,,,,,,,,2023-08-16_08h46.41.669,HF_wild_card,2022.2.4,MacIntel,60.0024001,5b1562981e55760001ba1e64,64d2fd46c836a06233681665,64dc7e53dbb42702cad3cde5,,,,,,,sngl,resources/DB.BMP,resources/Empty.png,Door1,-0.428029514,0.046028646,1,0,0,0.7451,optionLeft,30,14165,6,43,0,43,0,1,,,,,,,,,,,,,,,,,,,,,,,,,,,,,,,,,,,,,,,
,,,,,,,,2023-08-16_08h46.41.669,HF_wild_card,2022.2.4,MacIntel,60.0024001,5b1562981e55760001ba1e64,64d2fd46c836a06233681665,64dc7e53dbb42702cad3cde5,,,,,,,,,,,,,,,,,,,,,,,,,,5,0,5,0,1,,,,,,,,,,,,,,,,,,,,,,,,,,,,,,,,,,
,,,,,,,,2023-08-16_08h46.41.669,HF_wild_card,2022.2.4,MacIntel,60.0024001,5b1562981e55760001ba1e64,64d2fd46c836a06233681665,64dc7e53dbb42702cad3cde5,,,,,,,ctch,resources/DR.BMP,resources/DP.BMP,Door3,0.393198785,0.040959201,1,0,0,1.6939,optionRight,70,14235,7,0,0,0,0,1,,,,,,,,,,,,,,,,,,,,,,,,,,,,,,,,,,,,,,,
,,,,,,,,2023-08-16_08h46.41.669,HF_wild_card,2022.2.4,MacIntel,60.0024001,5b1562981e55760001ba1e64,64d2fd46c836a06233681665,64dc7e53dbb42702cad3cde5,,,,,,,decisionTrl,resources/DB.BMP,resources/DR.BMP,Door1,-0.413585069,0.016080729,1,0,0,1.8368,optionLeft,30,14265,7,1,0,1,0,1,,,,,,,,,,,,,,,,,,,,,,,,,,,,,,,,,,,,,,,
,,,,,,,,2023-08-16_08h46.41.669,HF_wild_card,2022.2.4,MacIntel,60.0024001,5b1562981e55760001ba1e64,64d2fd46c836a06233681665,64dc7e53dbb42702cad3cde5,,,,,,,decisionTrl,resources/DP.BMP,resources/DBN.BMP,Door4,0.377365451,0.011367188,1,0,0,2.0172,optionRight,60,14325,7,2,0,2,0,1,,,,,,,,,,,,,,,,,,,,,,,,,,,,,,,,,,,,,,,
,,,,,,,,2023-08-16_08h46.41.669,HF_wild_card,2022.2.4,MacIntel,60.0024001,5b1562981e55760001ba1e64,64d2fd46c836a06233681665,64dc7e53dbb42702cad3cde5,,,,,,,decisionTrl,resources/DP.BMP,resources/DBN.BMP,Door4,0.356032986,0.027786458,1,0,0,1.6295,optionRight,60,14385,7,3,0,3,0,1,,,,,,,,,,,,,,,,,,,,,,,,,,,,,,,,,,,,,,,
,,,,,,,,2023-08-16_08h46.41.669,HF_wild_card,2022.2.4,MacIntel,60.0024001,5b1562981e55760001ba1e64,64d2fd46c836a06233681665,64dc7e53dbb42702cad3cde5,,,,,,,ctch,resources/DP.BMP,resources/DR.BMP,Door3,-0.373042535,-0.015507813,1,0,0,1.2001,optionLeft,70,14455,7,4,0,4,0,1,,,,,,,,,,,,,,,,,,,,,,,,,,,,,,,,,,,,,,,
,,,,,,,,2023-08-16_08h46.41.669,HF_wild_card,2022.2.4,MacIntel,60.0024001,5b1562981e55760001ba1e64,64d2fd46c836a06233681665,64dc7e53dbb42702cad3cde5,,,,,,,decisionTrl,resources/DB.BMP,resources/DR.BMP,Door1,-0.383459201,-0.005546875,1,0,0,2.5131,optionLeft,30,14485,7,5,0,5,0,1,,,,,,,,,,,,,,,,,,,,,,,,,,,,,,,,,,,,,,,
,,,,,,,,2023-08-16_08h46.41.669,HF_wild_card,2022.2.4,MacIntel,60.0024001,5b1562981e55760001ba1e64,64d2fd46c836a06233681665,64dc7e53dbb42702cad3cde5,,,,,,,decisionTrl,resources/DP.BMP,resources/DBN.BMP,Door4,0.32578125,-0.005407986,1,0,0,1.3157,optionRight,60,14545,7,6,0,6,0,1,,,,,,,,,,,,,,,,,,,,,,,,,,,,,,,,,,,,,,,
,,,,,,,,2023-08-16_08h46.41.669,HF_wild_card,2022.2.4,MacIntel,60.0024001,5b1562981e55760001ba1e64,64d2fd46c836a06233681665,64dc7e53dbb42702cad3cde5,,,,,,,ctch,resources/DBN.BMP,resources/DB.BMP,Door4,-0.4190625,0.047317708,1,0,0,1.0824,optionLeft,60,14605,7,7,0,7,0,1,,,,,,,,,,,,,,,,,,,,,,,,,,,,,,,,,,,,,,,
,,,,,,,,2023-08-16_08h46.41.669,HF_wild_card,2022.2.4,MacIntel,60.0024001,5b1562981e55760001ba1e64,64d2fd46c836a06233681665,64dc7e53dbb42702cad3cde5,,,,,,,decisionTrl,resources/DR.BMP,resources/DB.BMP,Door1,0.392547743,0.015555556,1,0,0,1.832,optionRight,30,14635,7,8,0,8,0,1,,,,,,,,,,,,,,,,,,,,,,,,,,,,,,,,,,,,,,,
,,,,,,,,2023-08-16_08h46.41.669,HF_wild_card,2022.2.4,MacIntel,60.0024001,5b1562981e55760001ba1e64,64d2fd46c836a06233681665,64dc7e53dbb42702cad3cde5,,,,,,,ctch,resources/DB.BMP,resources/DBN.BMP,Door4,0.377447917,0.039670139,1,0,0,1.3004,optionRight,60,14695,7,9,0,9,0,1,,,,,,,,,,,,,,,,,,,,,,,,,,,,,,,,,,,,,,,
,,,,,,,,2023-08-16_08h46.41.669,HF_wild_card,2022.2.4,MacIntel,60.0024001,5b1562981e55760001ba1e64,64d2fd46c836a06233681665,64dc7e53dbb42702cad3cde5,,,,,,,decisionTrl,resources/DBN.BMP,resources/DP.BMP,Door4,-0.3903125,0.030989583,1,0,0,1.2492,optionLeft,80,14775,7,10,0,10,0,1,,,,,,,,,,,,,,,,,,,,,,,,,,,,,,,,,,,,,,,
,,,,,,,,2023-08-16_08h46.41.669,HF_wild_card,2022.2.4,MacIntel,60.0024001,5b1562981e55760001ba1e64,64d2fd46c836a06233681665,64dc7e53dbb42702cad3cde5,,,,,,,ctch,resources/DP.BMP,resources/DR.BMP,Door3,-0.440095486,0.028355035,1,0,0,1.315,optionLeft,70,14845,7,11,0,11,0,1,,,,,,,,,,,,,,,,,,,,,,,,,,,,,,,,,,,,,,,
,,,,,,,,2023-08-16_08h46.41.669,HF_wild_card,2022.2.4,MacIntel,60.0024001,5b1562981e55760001ba1e64,64d2fd46c836a06233681665,64dc7e53dbb42702cad3cde5,,,,,,,decisionTrl,resources/DBN.BMP,resources/DP.BMP,Door4,-0.351193576,0.031440972,1,0,0,0.9475,optionLeft,80,14925,7,12,0,12,0,1,,,,,,,,,,,,,,,,,,,,,,,,,,,,,,,,,,,,,,,
,,,,,,,,2023-08-16_08h46.41.669,HF_wild_card,2022.2.4,MacIntel,60.0024001,5b1562981e55760001ba1e64,64d2fd46c836a06233681665,64dc7e53dbb42702cad3cde5,,,,,,,decisionTrl,resources/DB.BMP,resources/DR.BMP,Door1,-0.296979167,-0.002743056,1,0,0,1.4157,optionLeft,30,14955,7,13,0,13,0,1,,,,,,,,,,,,,,,,,,,,,,,,,,,,,,,,,,,,,,,
,,,,,,,,2023-08-16_08h46.41.669,HF_wild_card,2022.2.4,MacIntel,60.0024001,5b1562981e55760001ba1e64,64d2fd46c836a06233681665,64dc7e53dbb42702cad3cde5,,,,,,,ctch,resources/DBN.BMP,resources/DB.BMP,Door4,-0.364453125,0.036744792,1,0,0,0.8828,optionLeft,60,15015,7,14,0,14,0,1,,,,,,,,,,,,,,,,,,,,,,,,,,,,,,,,,,,,,,,
,,,,,,,,2023-08-16_08h46.41.669,HF_wild_card,2022.2.4,MacIntel,60.0024001,5b1562981e55760001ba1e64,64d2fd46c836a06233681665,64dc7e53dbb42702cad3cde5,,,,,,,decisionTrl,resources/DBN.BMP,resources/DP.BMP,Door4,-0.38999566,0.034882812,1,0,0,0.7004,optionLeft,60,15075,7,15,0,15,0,1,,,,,,,,,,,,,,,,,,,,,,,,,,,,,,,,,,,,,,,
,,,,,,,,2023-08-16_08h46.41.669,HF_wild_card,2022.2.4,MacIntel,60.0024001,5b1562981e55760001ba1e64,64d2fd46c836a06233681665,64dc7e53dbb42702cad3cde5,,,,,,,decisionTrl,resources/DP.BMP,resources/DBN.BMP,Door4,0.378706597,0.034192708,1,0,0,0.9638,optionRight,80,15155,7,16,0,16,0,1,,,,,,,,,,,,,,,,,,,,,,,,,,,,,,,,,,,,,,,
,,,,,,,,2023-08-16_08h46.41.669,HF_wild_card,2022.2.4,MacIntel,60.0024001,5b1562981e55760001ba1e64,64d2fd46c836a06233681665,64dc7e53dbb42702cad3cde5,,,,,,,ctch,resources/DBN.BMP,resources/DB.BMP,Door4,-0.390898437,0.068511285,1,0,0,0.9163,optionLeft,60,15215,7,17,0,17,0,1,,,,,,,,,,,,,,,,,,,,,,,,,,,,,,,,,,,,,,,
,,,,,,,,2023-08-16_08h46.41.669,HF_wild_card,2022.2.4,MacIntel,60.0024001,5b1562981e55760001ba1e64,64d2fd46c836a06233681665,64dc7e53dbb42702cad3cde5,,,,,,,ctch,resources/DP.BMP,resources/DR.BMP,Door3,-0.305238715,0.017057292,1,0,0,1.0144,optionLeft,70,15285,7,18,0,18,0,1,,,,,,,,,,,,,,,,,,,,,,,,,,,,,,,,,,,,,,,
,,,,,,,,2023-08-16_08h46.41.669,HF_wild_card,2022.2.4,MacIntel,60.0024001,5b1562981e55760001ba1e64,64d2fd46c836a06233681665,64dc7e53dbb42702cad3cde5,,,,,,,decisionTrl,resources/DB.BMP,resources/DR.BMP,Door1,-0.283198785,-0.015394965,1,0,0,1.1655,optionLeft,30,15315,7,19,0,19,0,1,,,,,,,,,,,,,,,,,,,,,,,,,,,,,,,,,,,,,,,
,,,,,,,,2023-08-16_08h46.41.669,HF_wild_card,2022.2.4,MacIntel,60.0024001,5b1562981e55760001ba1e64,64d2fd46c836a06233681665,64dc7e53dbb42702cad3cde5,,,,,,,ctch,resources/DR.BMP,resources/DP.BMP,Door3,0.40546875,-0.035959201,1,0,0,1.2338,optionRight,70,15385,7,20,0,20,0,1,,,,,,,,,,,,,,,,,,,,,,,,,,,,,,,,,,,,,,,
,,,,,,,,2023-08-16_08h46.41.669,HF_wild_card,2022.2.4,MacIntel,60.0024001,5b1562981e55760001ba1e64,64d2fd46c836a06233681665,64dc7e53dbb42702cad3cde5,,,,,,,decisionTrl,resources/DB.BMP,resources/DR.BMP,Door1,-0.391189236,-0.017717014,1,0,0,1.3299,optionLeft,30,15415,7,21,0,21,0,1,,,,,,,,,,,,,,,,,,,,,,,,,,,,,,,,,,,,,,,
,,,,,,,,2023-08-16_08h46.41.669,HF_wild_card,2022.2.4,MacIntel,60.0024001,5b1562981e55760001ba1e64,64d2fd46c836a06233681665,64dc7e53dbb42702cad3cde5,,,,,,,ctch,resources/DB.BMP,resources/DBN.BMP,Door4,0.295325521,0.02437934,1,0,0,1.0506,optionRight,60,15475,7,22,0,22,0,1,,,,,,,,,,,,,,,,,,,,,,,,,,,,,,,,,,,,,,,
,,,,,,,,2023-08-16_08h46.41.669,HF_wild_card,2022.2.4,MacIntel,60.0024001,5b1562981e55760001ba1e64,64d2fd46c836a06233681665,64dc7e53dbb42702cad3cde5,,,,,,,ctch,resources/DR.BMP,resources/DP.BMP,Door3,0.296024306,-0.003789062,1,0,0,1.7666,optionRight,70,15545,7,23,0,23,0,1,,,,,,,,,,,,,,,,,,,,,,,,,,,,,,,,,,,,,,,
,,,,,,,,2023-08-16_08h46.41.669,HF_wild_card,2022.2.4,MacIntel,60.0024001,5b1562981e55760001ba1e64,64d2fd46c836a06233681665,64dc7e53dbb42702cad3cde5,,,,,,,decisionTrl,resources/DB.BMP,resources/DR.BMP,Door1,-0.308328993,-0.019019097,1,0,0,1.3488,optionLeft,30,15575,7,24,0,24,0,1,,,,,,,,,,,,,,,,,,,,,,,,,,,,,,,,,,,,,,,
,,,,,,,,2023-08-16_08h46.41.669,HF_wild_card,2022.2.4,MacIntel,60.0024001,5b1562981e55760001ba1e64,64d2fd46c836a06233681665,64dc7e53dbb42702cad3cde5,,,,,,,decisionTrl,resources/DP.BMP,resources/DBN.BMP,Door4,0.431349826,0.051532118,1,0,0,1.0993,optionRight,60,15635,7,25,0,25,0,1,,,,,,,,,,,,,,,,,,,,,,,,,,,,,,,,,,,,,,,
,,,,,,,,2023-08-16_08h46.41.669,HF_wild_card,2022.2.4,MacIntel,60.0024001,5b1562981e55760001ba1e64,64d2fd46c836a06233681665,64dc7e53dbb42702cad3cde5,,,,,,,ctch,resources/DB.BMP,resources/DBN.BMP,Door4,0.340290799,-0.021827257,1,0,0,1.0995,optionRight,80,15715,7,26,0,26,0,1,,,,,,,,,,,,,,,,,,,,,,,,,,,,,,,,,,,,,,,
,,,,,,,,2023-08-16_08h46.41.669,HF_wild_card,2022.2.4,MacIntel,60.0024001,5b1562981e55760001ba1e64,64d2fd46c836a06233681665,64dc7e53dbb42702cad3cde5,,,,,,,decisionTrl,resources/DR.BMP,resources/DB.BMP,Door2,-0.436662326,-0.016510417,1,0,0,1.1178,optionLeft,40,15755,7,27,0,27,0,1,,,,,,,,,,,,,,,,,,,,,,,,,,,,,,,,,,,,,,,
,,,,,,,,2023-08-16_08h46.41.669,HF_wild_card,2022.2.4,MacIntel,60.0024001,5b1562981e55760001ba1e64,64d2fd46c836a06233681665,64dc7e53dbb42702cad3cde5,,,,,,,decisionTrl,resources/DR.BMP,resources/DB.BMP,Door1,0.347747396,-0.044483507,1,0,0,1.1322,optionRight,30,15785,7,28,0,28,0,1,,,,,,,,,,,,,,,,,,,,,,,,,,,,,,,,,,,,,,,
,,,,,,,,2023-08-16_08h46.41.669,HF_wild_card,2022.2.4,MacIntel,60.0024001,5b1562981e55760001ba1e64,64d2fd46c836a06233681665,64dc7e53dbb42702cad3cde5,,,,,,,decisionTrl,resources/DR.BMP,resources/DB.BMP,Door1,0.414279514,0.032847222,1,0,0,1.0494,optionRight,30,15815,7,29,0,29,0,1,,,,,,,,,,,,,,,,,,,,,,,,,,,,,,,,,,,,,,,
,,,,,,,,2023-08-16_08h46.41.669,HF_wild_card,2022.2.4,MacIntel,60.0024001,5b1562981e55760001ba1e64,64d2fd46c836a06233681665,64dc7e53dbb42702cad3cde5,,,,,,,decisionTrl,resources/DBN.BMP,resources/DP.BMP,Door4,-0.381727431,0.038637153,1,0,0,1.6487,optionLeft,60,15875,7,30,0,30,0,1,,,,,,,,,,,,,,,,,,,,,,,,,,,,,,,,,,,,,,,
,,,,,,,,2023-08-16_08h46.41.669,HF_wild_card,2022.2.4,MacIntel,60.0024001,5b1562981e55760001ba1e64,64d2fd46c836a06233681665,64dc7e53dbb42702cad3cde5,,,,,,,decisionTrl,resources/DR.BMP,resources/DB.BMP,Door1,0.289409722,0.011788194,1,0,0,2.1332,optionRight,30,15905,7,31,0,31,0,1,,,,,,,,,,,,,,,,,,,,,,,,,,,,,,,,,,,,,,,
,,,,,,,,2023-08-16_08h46.41.669,HF_wild_card,2022.2.4,MacIntel,60.0024001,5b1562981e55760001ba1e64,64d2fd46c836a06233681665,64dc7e53dbb42702cad3cde5,,,,,,,decisionTrl,resources/DBN.BMP,resources/DP.BMP,Door4,-0.367903646,0.002174479,1,0,0,1.0329,optionLeft,60,15965,7,32,0,32,0,1,,,,,,,,,,,,,,,,,,,,,,,,,,,,,,,,,,,,,,,
,,,,,,,,2023-08-16_08h46.41.669,HF_wild_card,2022.2.4,MacIntel,60.0024001,5b1562981e55760001ba1e64,64d2fd46c836a06233681665,64dc7e53dbb42702cad3cde5,,,,,,,decisionTrl,resources/DR.BMP,resources/DB.BMP,Door1,0.446145833,0.014157986,1,0,0,1.4835,optionRight,30,15995,7,33,0,33,0,1,,,,,,,,,,,,,,,,,,,,,,,,,,,,,,,,,,,,,,,
,,,,,,,,2023-08-16_08h46.41.669,HF_wild_card,2022.2.4,MacIntel,60.0024001,5b1562981e55760001ba1e64,64d2fd46c836a06233681665,64dc7e53dbb42702cad3cde5,,,,,,,decisionTrl,resources/DP.BMP,resources/DBN.BMP,Door4,0.381961806,0.066210937,1,0,0,0.9685,optionRight,80,16075,7,34,0,34,0,1,,,,,,,,,,,,,,,,,,,,,,,,,,,,,,,,,,,,,,,
,,,,,,,,2023-08-16_08h46.41.669,HF_wild_card,2022.2.4,MacIntel,60.0024001,5b1562981e55760001ba1e64,64d2fd46c836a06233681665,64dc7e53dbb42702cad3cde5,,,,,,,decisionTrl,resources/DBN.BMP,resources/DP.BMP,Door4,-0.386536458,0.031059028,1,0,0,1.0324,optionLeft,80,16155,7,35,0,35,0,1,,,,,,,,,,,,,,,,,,,,,,,,,,,,,,,,,,,,,,,
,,,,,,,,2023-08-16_08h46.41.669,HF_wild_card,2022.2.4,MacIntel,60.0024001,5b1562981e55760001ba1e64,64d2fd46c836a06233681665,64dc7e53dbb42702cad3cde5,,,,,,,,,,,,,,,,,,,,,,,,,,6,0,6,0,1,,,,,,,,,,,,,,,,,,,,,,,,,,,,,,,,,,
,,,,,,,,2023-08-16_08h46.41.669,HF_wild_card,2022.2.4,MacIntel,60.0024001,5b1562981e55760001ba1e64,64d2fd46c836a06233681665,64dc7e53dbb42702cad3cde5,,,,,,,,,,,,,,,,,,,,,,,,,,,,,,,4,,,,,,,,,,,,,,,,,,,,,,,,,,,,,,,,,
,,,,,,,,2023-08-16_08h46.41.669,HF_wild_card,2022.2.4,MacIntel,60.0024001,5b1562981e55760001ba1e64,64d2fd46c836a06233681665,64dc7e53dbb42702cad3cde5,,,,,,,,,,,,,,,,,,,,,,,,,,,,,,,,,,,,,,,,,,,,,,,,,,,,,,,,,,,,,,,,
,,,,,,,,2023-08-16_08h46.41.669,HF_wild_card,2022.2.4,MacIntel,60.0024001,5b1562981e55760001ba1e64,64d2fd46c836a06233681665,64dc7e53dbb42702cad3cde5,,,,,,,,,,,,,,,,,,,,,,,,,,,,,,,,80,Door4,resources/DBN.BMP,0,0,0,0,1,,,,,,,,,,,,,,,,,,,,,,,,,
,,,,,,,,2023-08-16_08h46.41.669,HF_wild_card,2022.2.4,MacIntel,60.0024001,5b1562981e55760001ba1e64,64d2fd46c836a06233681665,64dc7e53dbb42702cad3cde5,,,,,,,,,,,,,,,,,,,,,,,,,,,,,,,,20,Door2,resources/DR.BMP,1,0,1,0,1,,,,,,,,,,,,,,,,,,,,,,,,,
,,,,,,,,2023-08-16_08h46.41.669,HF_wild_card,2022.2.4,MacIntel,60.0024001,5b1562981e55760001ba1e64,64d2fd46c836a06233681665,64dc7e53dbb42702cad3cde5,,,,,,,,,,,,,,,,,,,,,,,,,,,,,,,,5,WC_extreme,resources/DY.BMP,2,0,2,0,1,,,,,,,,,,,,,,,,,,,,,,,,,
,,,,,,,,2023-08-16_08h46.41.669,HF_wild_card,2022.2.4,MacIntel,60.0024001,5b1562981e55760001ba1e64,64d2fd46c836a06233681665,64dc7e53dbb42702cad3cde5,,,,,,,,,,,,,,,,,,,,,,,,,,,,,,,,70,Door3,resources/DP.BMP,3,0,3,0,1,,,,,,,,,,,,,,,,,,,,,,,,,
