Condition,Low fixed image (Door1),Low risky image (Door2),High fixed image (Door3),High risky image (Door4),Extreme Wild Card,NonExtreme Wild Card,,date,expName,psychopyVersion,OS,frameRate,PROLIFIC_PID,STUDY_ID,SESSION_ID,mouse_2.x,mouse_2.y,mouse_2.leftButton,mouse_2.midButton,mouse_2.rightButton,mouse_2.clicked_name,Trial Type,Left Option Image,Right Option Image,Chosen Door,mouse.x,mouse.y,mouse.leftButton,mouse.midButton,mouse.rightButton,mouse.time,mouse.clicked_name,Feedback,Cumulative Reward,Block,trial.thisRepN,trial.thisTrialN,trial.thisN,trial.thisIndex,trial.ran,blocks.thisRepN,blocks.thisTrialN,blocks.thisN,blocks.thisIndex,blocks.ran,Money conversion,First Outcome Reported,Shown Door (First Outcome),Displayed Image (First Outcome),outcomes.thisRepN,outcomes.thisTrialN,outcomes.thisN,outcomes.thisIndex,outcomes.ran,judgments.thisRepN,judgments.thisTrialN,judgments.thisN,judgments.thisIndex,judgments.ran,freqMouse.x,freqMouse.y,freqMouse.leftButton,freqMouse.midButton,freqMouse.rightButton,freqMouse.clicked_name,FQJ for first outcome,FQJ for second outcome,Shown Door,Displayed Image,trials.thisRepN,trials.thisTrialN,trials.thisN,trials.thisIndex,trials.ran,judgBlock.thisRepN,judgBlock.thisTrialN,judgBlock.thisN,judgBlock.thisIndex,judgBlock.ran
1,resources/DY.BMP,resources/DBN.BMP,resources/DB.BMP,resources/DR.BMP,resources/DP.BMP,resources/DG.BMP,,2023-08-16_08h48.29.804,HF_wild_card,2022.2.4,Win32,59.85156811,5ed2bdf295ed8f251d614b21,64d2fd46c836a06233681665,64dc7f367221422e1e133b9e,,,,,,,,,,,,,,,,,,,,,,,,,,,,,,,,,,,,,,,,,,,,,,,,,,,,,,,,,,,,,,,,
,,,,,,,,2023-08-16_08h48.29.804,HF_wild_card,2022.2.4,Win32,59.85156811,5ed2bdf295ed8f251d614b21,64d2fd46c836a06233681665,64dc7f367221422e1e133b9e,-0.013888889,-0.420370399,1,0,0,agree,,,,,,,,,,,,,,,,,,,,,,,,,,,,,,,,,,,,,,,,,,,,,,,,,,,,,,,,,,
,,,,,,,,2023-08-16_08h48.29.804,HF_wild_card,2022.2.4,Win32,59.85156811,5ed2bdf295ed8f251d614b21,64d2fd46c836a06233681665,64dc7f367221422e1e133b9e,,,,,,,,,,,,,,,,,,,,,,,,,,,,,,,,,,,,,,,,,,,,,,,,,,,,,,,,,,,,,,,,
,,,,,,,,2023-08-16_08h48.29.804,HF_wild_card,2022.2.4,Win32,59.85156811,5ed2bdf295ed8f251d614b21,64d2fd46c836a06233681665,64dc7f367221422e1e133b9e,,,,,,,decisionTrl,resources/DB.BMP,resources/DG.BMP,WildCard_NonEx,0.273148176,-0.149074088,1,0,0,1.1763,optionRight,45,45,1,0,0,0,0,1,,,,,,,,,,,,,,,,,,,,,,,,,,,,,,,,,,,,,,,
,,,,,,,,2023-08-16_08h48.29.804,HF_wild_card,2022.2.4,Win32,59.85156811,5ed2bdf295ed8f251d614b21,64d2fd46c836a06233681665,64dc7f367221422e1e133b9e,,,,,,,ctch,resources/DB.BMP,resources/DBN.BMP,Door3,-0.325,-0.027777778,1,0,0,0.76,optionLeft,70,115,1,1,0,1,0,1,,,,,,,,,,,,,,,,,,,,,,,,,,,,,,,,,,,,,,,
,,,,,,,,2023-08-16_08h48.29.804,HF_wild_card,2022.2.4,Win32,59.85156811,5ed2bdf295ed8f251d614b21,64d2fd46c836a06233681665,64dc7f367221422e1e133b9e,,,,,,,decisionTrl,resources/DG.BMP,resources/DB.BMP,Door3,0.195370399,0.014814801,1,0,0,0.6925,optionRight,70,185,1,2,0,2,0,1,,,,,,,,,,,,,,,,,,,,,,,,,,,,,,,,,,,,,,,
,,,,,,,,2023-08-16_08h48.29.804,HF_wild_card,2022.2.4,Win32,59.85156811,5ed2bdf295ed8f251d614b21,64d2fd46c836a06233681665,64dc7f367221422e1e133b9e,,,,,,,sngl,resources/Empty.png,resources/DG.BMP,WildCard_NonEx,0.18148151,0.010185157,1,0,0,0.6105,optionRight,55,240,1,3,0,3,0,1,,,,,,,,,,,,,,,,,,,,,,,,,,,,,,,,,,,,,,,
,,,,,,,,2023-08-16_08h48.29.804,HF_wild_card,2022.2.4,Win32,59.85156811,5ed2bdf295ed8f251d614b21,64d2fd46c836a06233681665,64dc7f367221422e1e133b9e,,,,,,,sngl,resources/Empty.png,resources/DR.BMP,Door4,0.132407464,0.01851849,0,0,1,0.6943,optionRight,60,300,1,4,0,4,0,1,,,,,,,,,,,,,,,,,,,,,,,,,,,,,,,,,,,,,,,
,,,,,,,,2023-08-16_08h48.29.804,HF_wild_card,2022.2.4,Win32,59.85156811,5ed2bdf295ed8f251d614b21,64d2fd46c836a06233681665,64dc7f367221422e1e133b9e,,,,,,,sngl,resources/DBN.BMP,resources/Empty.png,Door2,-0.195370356,-0.027777778,1,0,0,0.7427,optionLeft,40,340,1,5,0,5,0,1,,,,,,,,,,,,,,,,,,,,,,,,,,,,,,,,,,,,,,,
,,,,,,,,2023-08-16_08h48.29.804,HF_wild_card,2022.2.4,Win32,59.85156811,5ed2bdf295ed8f251d614b21,64d2fd46c836a06233681665,64dc7f367221422e1e133b9e,,,,,,,ctch,resources/DBN.BMP,resources/DB.BMP,Door3,0.088888889,-0.011111111,1,0,0,0.8109,optionRight,70,410,1,6,0,6,0,1,,,,,,,,,,,,,,,,,,,,,,,,,,,,,,,,,,,,,,,
,,,,,,,,2023-08-16_08h48.29.804,HF_wild_card,2022.2.4,Win32,59.85156811,5ed2bdf295ed8f251d614b21,64d2fd46c836a06233681665,64dc7f367221422e1e133b9e,,,,,,,sngl,resources/DY.BMP,resources/Empty.png,Door1,-0.196296268,-0.012037065,1,0,0,0.7518,optionLeft,30,440,1,7,0,7,0,1,,,,,,,,,,,,,,,,,,,,,,,,,,,,,,,,,,,,,,,
,,,,,,,,2023-08-16_08h48.29.804,HF_wild_card,2022.2.4,Win32,59.85156811,5ed2bdf295ed8f251d614b21,64d2fd46c836a06233681665,64dc7f367221422e1e133b9e,,,,,,,decisionTrl,resources/DR.BMP,resources/DG.BMP,Door4,-0.230555556,-0.077777778,1,0,0,0.6474,optionLeft,80,520,1,8,0,8,0,1,,,,,,,,,,,,,,,,,,,,,,,,,,,,,,,,,,,,,,,
,,,,,,,,2023-08-16_08h48.29.804,HF_wild_card,2022.2.4,Win32,59.85156811,5ed2bdf295ed8f251d614b21,64d2fd46c836a06233681665,64dc7f367221422e1e133b9e,,,,,,,decisionTrl,resources/DB.BMP,resources/DR.BMP,Door3,-0.291666667,-0.022222222,1,0,0,0.6106,optionLeft,70,590,1,9,0,9,0,1,,,,,,,,,,,,,,,,,,,,,,,,,,,,,,,,,,,,,,,
,,,,,,,,2023-08-16_08h48.29.804,HF_wild_card,2022.2.4,Win32,59.85156811,5ed2bdf295ed8f251d614b21,64d2fd46c836a06233681665,64dc7f367221422e1e133b9e,,,,,,,decisionTrl,resources/DB.BMP,resources/DR.BMP,Door4,0.239814843,-0.012962977,1,0,0,0.6278,optionRight,60,650,1,10,0,10,0,1,,,,,,,,,,,,,,,,,,,,,,,,,,,,,,,,,,,,,,,
,,,,,,,,2023-08-16_08h48.29.804,HF_wild_card,2022.2.4,Win32,59.85156811,5ed2bdf295ed8f251d614b21,64d2fd46c836a06233681665,64dc7f367221422e1e133b9e,,,,,,,ctch,resources/DB.BMP,resources/DBN.BMP,Door3,-0.252777778,-0.022222222,1,0,0,0.7784,optionLeft,70,720,1,11,0,11,0,1,,,,,,,,,,,,,,,,,,,,,,,,,,,,,,,,,,,,,,,
,,,,,,,,2023-08-16_08h48.29.804,HF_wild_card,2022.2.4,Win32,59.85156811,5ed2bdf295ed8f251d614b21,64d2fd46c836a06233681665,64dc7f367221422e1e133b9e,,,,,,,decisionTrl,resources/DG.BMP,resources/DBN.BMP,Door2,0.194444444,0.010185157,1,0,0,0.6094,optionRight,40,760,1,12,0,12,0,1,,,,,,,,,,,,,,,,,,,,,,,,,,,,,,,,,,,,,,,
,,,,,,,,2023-08-16_08h48.29.804,HF_wild_card,2022.2.4,Win32,59.85156811,5ed2bdf295ed8f251d614b21,64d2fd46c836a06233681665,64dc7f367221422e1e133b9e,,,,,,,decisionTrl,resources/DY.BMP,resources/DBN.BMP,Door1,-0.231481467,-0.078703732,1,0,0,0.7108,optionLeft,30,790,1,13,0,13,0,1,,,,,,,,,,,,,,,,,,,,,,,,,,,,,,,,,,,,,,,
,,,,,,,,2023-08-16_08h48.29.804,HF_wild_card,2022.2.4,Win32,59.85156811,5ed2bdf295ed8f251d614b21,64d2fd46c836a06233681665,64dc7f367221422e1e133b9e,,,,,,,ctch,resources/DR.BMP,resources/DY.BMP,Door1,0.205555556,-0.034259288,1,0,0,0.5274,optionRight,30,820,1,14,0,14,0,1,,,,,,,,,,,,,,,,,,,,,,,,,,,,,,,,,,,,,,,
,,,,,,,,2023-08-16_08h48.29.804,HF_wild_card,2022.2.4,Win32,59.85156811,5ed2bdf295ed8f251d614b21,64d2fd46c836a06233681665,64dc7f367221422e1e133b9e,,,,,,,decisionTrl,resources/DR.BMP,resources/DB.BMP,Door4,-0.157407379,-0.003703732,1,0,0,0.7548,optionLeft,60,880,1,15,0,15,0,1,,,,,,,,,,,,,,,,,,,,,,,,,,,,,,,,,,,,,,,
,,,,,,,,2023-08-16_08h48.29.804,HF_wild_card,2022.2.4,Win32,59.85156811,5ed2bdf295ed8f251d614b21,64d2fd46c836a06233681665,64dc7f367221422e1e133b9e,,,,,,,ctch,resources/DY.BMP,resources/DR.BMP,Door4,0.125925954,0.06851849,1,0,0,1.2086,optionRight,60,940,1,16,0,16,0,1,,,,,,,,,,,,,,,,,,,,,,,,,,,,,,,,,,,,,,,
,,,,,,,,2023-08-16_08h48.29.804,HF_wild_card,2022.2.4,Win32,59.85156811,5ed2bdf295ed8f251d614b21,64d2fd46c836a06233681665,64dc7f367221422e1e133b9e,,,,,,,decisionTrl,resources/DBN.BMP,resources/DG.BMP,WildCard_NonEx,0.184259288,0.010185157,1,0,0,0.9937,optionRight,45,985,1,17,0,17,0,1,,,,,,,,,,,,,,,,,,,,,,,,,,,,,,,,,,,,,,,
,,,,,,,,2023-08-16_08h48.29.804,HF_wild_card,2022.2.4,Win32,59.85156811,5ed2bdf295ed8f251d614b21,64d2fd46c836a06233681665,64dc7f367221422e1e133b9e,,,,,,,decisionTrl,resources/DY.BMP,resources/DBN.BMP,Door2,0.135185242,-0.024074088,1,0,0,0.8278,optionRight,40,1025,1,18,0,18,0,1,,,,,,,,,,,,,,,,,,,,,,,,,,,,,,,,,,,,,,,
,,,,,,,,2023-08-16_08h48.29.804,HF_wild_card,2022.2.4,Win32,59.85156811,5ed2bdf295ed8f251d614b21,64d2fd46c836a06233681665,64dc7f367221422e1e133b9e,,,,,,,ctch,resources/DR.BMP,resources/DY.BMP,Door4,-0.325925912,-0.072222222,1,0,0,1.6092,optionLeft,80,1105,1,19,0,19,0,1,,,,,,,,,,,,,,,,,,,,,,,,,,,,,,,,,,,,,,,
,,,,,,,,2023-08-16_08h48.29.804,HF_wild_card,2022.2.4,Win32,59.85156811,5ed2bdf295ed8f251d614b21,64d2fd46c836a06233681665,64dc7f367221422e1e133b9e,,,,,,,sngl,resources/DB.BMP,resources/Empty.png,Door3,-0.237037023,-0.033333333,1,0,0,0.8442,optionLeft,70,1175,1,20,0,20,0,1,,,,,,,,,,,,,,,,,,,,,,,,,,,,,,,,,,,,,,,
,,,,,,,,2023-08-16_08h48.29.804,HF_wild_card,2022.2.4,Win32,59.85156811,5ed2bdf295ed8f251d614b21,64d2fd46c836a06233681665,64dc7f367221422e1e133b9e,,,,,,,decisionTrl,resources/DY.BMP,resources/DG.BMP,WildCard_NonEx,0.170370399,0.002777778,1,0,0,1.1436,optionRight,45,1220,1,21,0,21,0,1,,,,,,,,,,,,,,,,,,,,,,,,,,,,,,,,,,,,,,,
,,,,,,,,2023-08-16_08h48.29.804,HF_wild_card,2022.2.4,Win32,59.85156811,5ed2bdf295ed8f251d614b21,64d2fd46c836a06233681665,64dc7f367221422e1e133b9e,,,,,,,sngl,resources/DG.BMP,resources/Empty.png,WildCard_NonEx,-0.245370356,0.00370369,1,0,0,0.6939,optionLeft,55,1275,1,22,0,22,0,1,,,,,,,,,,,,,,,,,,,,,,,,,,,,,,,,,,,,,,,
,,,,,,,,2023-08-16_08h48.29.804,HF_wild_card,2022.2.4,Win32,59.85156811,5ed2bdf295ed8f251d614b21,64d2fd46c836a06233681665,64dc7f367221422e1e133b9e,,,,,,,decisionTrl,resources/DBN.BMP,resources/DY.BMP,Door2,-0.55,-0.053703732,1,0,0,1.1275,optionLeft,20,1295,1,23,0,23,0,1,,,,,,,,,,,,,,,,,,,,,,,,,,,,,,,,,,,,,,,
,,,,,,,,2023-08-16_08h48.29.804,HF_wild_card,2022.2.4,Win32,59.85156811,5ed2bdf295ed8f251d614b21,64d2fd46c836a06233681665,64dc7f367221422e1e133b9e,,,,,,,sngl,resources/Empty.png,resources/DY.BMP,Door1,0.196296353,-0.002777778,1,0,0,0.6942,optionRight,30,1325,1,24,0,24,0,1,,,,,,,,,,,,,,,,,,,,,,,,,,,,,,,,,,,,,,,
,,,,,,,,2023-08-16_08h48.29.804,HF_wild_card,2022.2.4,Win32,59.85156811,5ed2bdf295ed8f251d614b21,64d2fd46c836a06233681665,64dc7f367221422e1e133b9e,,,,,,,decisionTrl,resources/DBN.BMP,resources/DY.BMP,Door2,-0.200925912,-0.030555556,1,0,0,0.9109,optionLeft,20,1345,1,25,0,25,0,1,,,,,,,,,,,,,,,,,,,,,,,,,,,,,,,,,,,,,,,
,,,,,,,,2023-08-16_08h48.29.804,HF_wild_card,2022.2.4,Win32,59.85156811,5ed2bdf295ed8f251d614b21,64d2fd46c836a06233681665,64dc7f367221422e1e133b9e,,,,,,,sngl,resources/DG.BMP,resources/Empty.png,WildCard_NonEx,-0.216666667,-0.049074088,1,0,0,0.7615,optionLeft,45,1390,1,26,0,26,0,1,,,,,,,,,,,,,,,,,,,,,,,,,,,,,,,,,,,,,,,
,,,,,,,,2023-08-16_08h48.29.804,HF_wild_card,2022.2.4,Win32,59.85156811,5ed2bdf295ed8f251d614b21,64d2fd46c836a06233681665,64dc7f367221422e1e133b9e,,,,,,,sngl,resources/DR.BMP,resources/Empty.png,Door4,-0.211111111,-0.042592621,1,0,0,0.678,optionLeft,80,1470,1,27,0,27,0,1,,,,,,,,,,,,,,,,,,,,,,,,,,,,,,,,,,,,,,,
,,,,,,,,2023-08-16_08h48.29.804,HF_wild_card,2022.2.4,Win32,59.85156811,5ed2bdf295ed8f251d614b21,64d2fd46c836a06233681665,64dc7f367221422e1e133b9e,,,,,,,decisionTrl,resources/DR.BMP,resources/DB.BMP,Door3,0.286111111,0.027777778,1,0,0,0.711,optionRight,70,1540,1,28,0,28,0,1,,,,,,,,,,,,,,,,,,,,,,,,,,,,,,,,,,,,,,,
,,,,,,,,2023-08-16_08h48.29.804,HF_wild_card,2022.2.4,Win32,59.85156811,5ed2bdf295ed8f251d614b21,64d2fd46c836a06233681665,64dc7f367221422e1e133b9e,,,,,,,ctch,resources/DY.BMP,resources/DR.BMP,Door1,-0.270370356,0.020370356,1,0,0,1.2207,optionLeft,30,1570,1,29,0,29,0,1,,,,,,,,,,,,,,,,,,,,,,,,,,,,,,,,,,,,,,,
,,,,,,,,2023-08-16_08h48.29.804,HF_wild_card,2022.2.4,Win32,59.85156811,5ed2bdf295ed8f251d614b21,64d2fd46c836a06233681665,64dc7f367221422e1e133b9e,,,,,,,decisionTrl,resources/DG.BMP,resources/DR.BMP,WildCard_NonEx,-0.162962935,0.013888889,1,0,0,1.0108,optionLeft,45,1615,1,30,0,30,0,1,,,,,,,,,,,,,,,,,,,,,,,,,,,,,,,,,,,,,,,
,,,,,,,,2023-08-16_08h48.29.804,HF_wild_card,2022.2.4,Win32,59.85156811,5ed2bdf295ed8f251d614b21,64d2fd46c836a06233681665,64dc7f367221422e1e133b9e,,,,,,,decisionTrl,resources/DR.BMP,resources/DB.BMP,Door4,-0.207407379,-0.004629644,1,0,0,0.9775,optionLeft,60,1675,1,31,0,31,0,1,,,,,,,,,,,,,,,,,,,,,,,,,,,,,,,,,,,,,,,
,,,,,,,,2023-08-16_08h48.29.804,HF_wild_card,2022.2.4,Win32,59.85156811,5ed2bdf295ed8f251d614b21,64d2fd46c836a06233681665,64dc7f367221422e1e133b9e,,,,,,,decisionTrl,resources/DY.BMP,resources/DBN.BMP,Door2,0.261111111,-0.005555556,1,0,0,0.9614,optionRight,20,1695,1,32,0,32,0,1,,,,,,,,,,,,,,,,,,,,,,,,,,,,,,,,,,,,,,,
,,,,,,,,2023-08-16_08h48.29.804,HF_wild_card,2022.2.4,Win32,59.85156811,5ed2bdf295ed8f251d614b21,64d2fd46c836a06233681665,64dc7f367221422e1e133b9e,,,,,,,decisionTrl,resources/DG.BMP,resources/DY.BMP,WildCard_NonEx,-0.290740712,0.023148134,1,0,0,1.1944,optionLeft,45,1740,1,33,0,33,0,1,,,,,,,,,,,,,,,,,,,,,,,,,,,,,,,,,,,,,,,
,,,,,,,,2023-08-16_08h48.29.804,HF_wild_card,2022.2.4,Win32,59.85156811,5ed2bdf295ed8f251d614b21,64d2fd46c836a06233681665,64dc7f367221422e1e133b9e,,,,,,,decisionTrl,resources/DBN.BMP,resources/DY.BMP,Door1,0.229629686,0.027777778,1,0,0,1.1611,optionRight,30,1770,1,34,0,34,0,1,,,,,,,,,,,,,,,,,,,,,,,,,,,,,,,,,,,,,,,
,,,,,,,,2023-08-16_08h48.29.804,HF_wild_card,2022.2.4,Win32,59.85156811,5ed2bdf295ed8f251d614b21,64d2fd46c836a06233681665,64dc7f367221422e1e133b9e,,,,,,,decisionTrl,resources/DR.BMP,resources/DB.BMP,Door4,-0.197222222,-0.002777778,1,0,0,0.7941,optionLeft,60,1830,1,35,0,35,0,1,,,,,,,,,,,,,,,,,,,,,,,,,,,,,,,,,,,,,,,
,,,,,,,,2023-08-16_08h48.29.804,HF_wild_card,2022.2.4,Win32,59.85156811,5ed2bdf295ed8f251d614b21,64d2fd46c836a06233681665,64dc7f367221422e1e133b9e,,,,,,,decisionTrl,resources/DBN.BMP,resources/DY.BMP,Door1,0.272222222,-0.073148176,1,0,0,0.8607,optionRight,30,1860,1,36,0,36,0,1,,,,,,,,,,,,,,,,,,,,,,,,,,,,,,,,,,,,,,,
,,,,,,,,2023-08-16_08h48.29.804,HF_wild_card,2022.2.4,Win32,59.85156811,5ed2bdf295ed8f251d614b21,64d2fd46c836a06233681665,64dc7f367221422e1e133b9e,,,,,,,decisionTrl,resources/DY.BMP,resources/DBN.BMP,Door1,-0.135185157,0.014814801,1,0,0,0.7106,optionLeft,30,1890,1,37,0,37,0,1,,,,,,,,,,,,,,,,,,,,,,,,,,,,,,,,,,,,,,,
,,,,,,,,2023-08-16_08h48.29.804,HF_wild_card,2022.2.4,Win32,59.85156811,5ed2bdf295ed8f251d614b21,64d2fd46c836a06233681665,64dc7f367221422e1e133b9e,,,,,,,sngl,resources/Empty.png,resources/DBN.BMP,Door2,0.205555556,-0.050925954,1,0,0,0.6276,optionRight,20,1910,1,38,0,38,0,1,,,,,,,,,,,,,,,,,,,,,,,,,,,,,,,,,,,,,,,
,,,,,,,,2023-08-16_08h48.29.804,HF_wild_card,2022.2.4,Win32,59.85156811,5ed2bdf295ed8f251d614b21,64d2fd46c836a06233681665,64dc7f367221422e1e133b9e,,,,,,,ctch,resources/DBN.BMP,resources/DB.BMP,Door3,0.187963019,-0.001851866,1,0,0,0.8601,optionRight,70,1980,1,39,0,39,0,1,,,,,,,,,,,,,,,,,,,,,,,,,,,,,,,,,,,,,,,
,,,,,,,,2023-08-16_08h48.29.804,HF_wild_card,2022.2.4,Win32,59.85156811,5ed2bdf295ed8f251d614b21,64d2fd46c836a06233681665,64dc7f367221422e1e133b9e,,,,,,,sngl,resources/Empty.png,resources/DB.BMP,Door3,0.152777778,0.033333333,1,0,0,0.7785,optionRight,70,2050,1,40,0,40,0,1,,,,,,,,,,,,,,,,,,,,,,,,,,,,,,,,,,,,,,,
,,,,,,,,2023-08-16_08h48.29.804,HF_wild_card,2022.2.4,Win32,59.85156811,5ed2bdf295ed8f251d614b21,64d2fd46c836a06233681665,64dc7f367221422e1e133b9e,,,,,,,decisionTrl,resources/DB.BMP,resources/DR.BMP,Door3,-0.101851824,-0.05648151,1,0,0,1.1225,optionLeft,70,2120,1,41,0,41,0,1,,,,,,,,,,,,,,,,,,,,,,,,,,,,,,,,,,,,,,,
,,,,,,,,2023-08-16_08h48.29.804,HF_wild_card,2022.2.4,Win32,59.85156811,5ed2bdf295ed8f251d614b21,64d2fd46c836a06233681665,64dc7f367221422e1e133b9e,,,,,,,decisionTrl,resources/DB.BMP,resources/DR.BMP,Door3,-0.233333333,0.036111111,1,0,0,0.7781,optionLeft,70,2190,1,42,0,42,0,1,,,,,,,,,,,,,,,,,,,,,,,,,,,,,,,,,,,,,,,
,,,,,,,,2023-08-16_08h48.29.804,HF_wild_card,2022.2.4,Win32,59.85156811,5ed2bdf295ed8f251d614b21,64d2fd46c836a06233681665,64dc7f367221422e1e133b9e,,,,,,,sngl,resources/Empty.png,resources/DG.BMP,WildCard_NonEx,0.13148151,-0.037037065,1,0,0,0.6936,optionRight,45,2235,1,43,0,43,0,1,,,,,,,,,,,,,,,,,,,,,,,,,,,,,,,,,,,,,,,
,,,,,,,,2023-08-16_08h48.29.804,HF_wild_card,2022.2.4,Win32,59.85156811,5ed2bdf295ed8f251d614b21,64d2fd46c836a06233681665,64dc7f367221422e1e133b9e,,,,,,,,,,,,,,,,,,,,,,,,,,0,0,0,0,1,,,,,,,,,,,,,,,,,,,,,,,,,,,,,,,,,,
,,,,,,,,2023-08-16_08h48.29.804,HF_wild_card,2022.2.4,Win32,59.85156811,5ed2bdf295ed8f251d614b21,64d2fd46c836a06233681665,64dc7f367221422e1e133b9e,,,,,,,decisionTrl,resources/DBN.BMP,resources/DG.BMP,WildCard_NonEx,0.227777778,-0.073148176,1,0,0,0.8993,optionRight,45,2280,2,0,0,0,0,1,,,,,,,,,,,,,,,,,,,,,,,,,,,,,,,,,,,,,,,
,,,,,,,,2023-08-16_08h48.29.804,HF_wild_card,2022.2.4,Win32,59.85156811,5ed2bdf295ed8f251d614b21,64d2fd46c836a06233681665,64dc7f367221422e1e133b9e,,,,,,,sngl,resources/Empty.png,resources/DY.BMP,Door1,0.309259288,0.023148134,1,0,0,0.7622,optionRight,30,2310,2,1,0,1,0,1,,,,,,,,,,,,,,,,,,,,,,,,,,,,,,,,,,,,,,,
,,,,,,,,2023-08-16_08h48.29.804,HF_wild_card,2022.2.4,Win32,59.85156811,5ed2bdf295ed8f251d614b21,64d2fd46c836a06233681665,64dc7f367221422e1e133b9e,,,,,,,decisionTrl,resources/DB.BMP,resources/DR.BMP,Door3,-0.206481467,-0.010185199,1,0,0,0.6107,optionLeft,70,2380,2,2,0,2,0,1,,,,,,,,,,,,,,,,,,,,,,,,,,,,,,,,,,,,,,,
,,,,,,,,2023-08-16_08h48.29.804,HF_wild_card,2022.2.4,Win32,59.85156811,5ed2bdf295ed8f251d614b21,64d2fd46c836a06233681665,64dc7f367221422e1e133b9e,,,,,,,decisionTrl,resources/DY.BMP,resources/DBN.BMP,Door1,-0.198148134,0.006481467,1,0,0,0.5783,optionLeft,30,2410,2,3,0,3,0,1,,,,,,,,,,,,,,,,,,,,,,,,,,,,,,,,,,,,,,,
,,,,,,,,2023-08-16_08h48.29.804,HF_wild_card,2022.2.4,Win32,59.85156811,5ed2bdf295ed8f251d614b21,64d2fd46c836a06233681665,64dc7f367221422e1e133b9e,,,,,,,decisionTrl,resources/DY.BMP,resources/DBN.BMP,Door2,0.171296353,-0.036111111,1,0,0,0.5949,optionRight,20,2430,2,4,0,4,0,1,,,,,,,,,,,,,,,,,,,,,,,,,,,,,,,,,,,,,,,
,,,,,,,,2023-08-16_08h48.29.804,HF_wild_card,2022.2.4,Win32,59.85156811,5ed2bdf295ed8f251d614b21,64d2fd46c836a06233681665,64dc7f367221422e1e133b9e,,,,,,,ctch,resources/DB.BMP,resources/DBN.BMP,Door3,-0.172222222,0.019444444,1,0,0,0.6031,optionLeft,70,2500,2,5,0,5,0,1,,,,,,,,,,,,,,,,,,,,,,,,,,,,,,,,,,,,,,,
,,,,,,,,2023-08-16_08h48.29.804,HF_wild_card,2022.2.4,Win32,59.85156811,5ed2bdf295ed8f251d614b21,64d2fd46c836a06233681665,64dc7f367221422e1e133b9e,,,,,,,sngl,resources/DB.BMP,resources/Empty.png,Door3,-0.285185157,0.032407379,1,0,0,0.625,optionLeft,70,2570,2,6,0,6,0,1,,,,,,,,,,,,,,,,,,,,,,,,,,,,,,,,,,,,,,,
,,,,,,,,2023-08-16_08h48.29.804,HF_wild_card,2022.2.4,Win32,59.85156811,5ed2bdf295ed8f251d614b21,64d2fd46c836a06233681665,64dc7f367221422e1e133b9e,,,,,,,ctch,resources/DBN.BMP,resources/DB.BMP,Door3,0.325,0.02870369,1,0,0,0.7108,optionRight,70,2640,2,7,0,7,0,1,,,,,,,,,,,,,,,,,,,,,,,,,,,,,,,,,,,,,,,
,,,,,,,,2023-08-16_08h48.29.804,HF_wild_card,2022.2.4,Win32,59.85156811,5ed2bdf295ed8f251d614b21,64d2fd46c836a06233681665,64dc7f367221422e1e133b9e,,,,,,,decisionTrl,resources/DBN.BMP,resources/DY.BMP,Door2,-0.224074046,-0.010185199,1,0,0,0.9697,optionLeft,40,2680,2,8,0,8,0,1,,,,,,,,,,,,,,,,,,,,,,,,,,,,,,,,,,,,,,,
,,,,,,,,2023-08-16_08h48.29.804,HF_wild_card,2022.2.4,Win32,59.85156811,5ed2bdf295ed8f251d614b21,64d2fd46c836a06233681665,64dc7f367221422e1e133b9e,,,,,,,sngl,resources/DY.BMP,resources/Empty.png,Door1,-0.160185157,0.011111111,1,0,0,0.7263,optionLeft,30,2710,2,9,0,9,0,1,,,,,,,,,,,,,,,,,,,,,,,,,,,,,,,,,,,,,,,
,,,,,,,,2023-08-16_08h48.29.804,HF_wild_card,2022.2.4,Win32,59.85156811,5ed2bdf295ed8f251d614b21,64d2fd46c836a06233681665,64dc7f367221422e1e133b9e,,,,,,,ctch,resources/DR.BMP,resources/DY.BMP,Door4,-0.3,0.05370369,1,0,0,0.8441,optionLeft,60,2770,2,10,0,10,0,1,,,,,,,,,,,,,,,,,,,,,,,,,,,,,,,,,,,,,,,
,,,,,,,,2023-08-16_08h48.29.804,HF_wild_card,2022.2.4,Win32,59.85156811,5ed2bdf295ed8f251d614b21,64d2fd46c836a06233681665,64dc7f367221422e1e133b9e,,,,,,,sngl,resources/Empty.png,resources/DR.BMP,Door4,0.157407464,-0.007407422,1,0,0,0.6439,optionRight,80,2850,2,11,0,11,0,1,,,,,,,,,,,,,,,,,,,,,,,,,,,,,,,,,,,,,,,
,,,,,,,,2023-08-16_08h48.29.804,HF_wild_card,2022.2.4,Win32,59.85156811,5ed2bdf295ed8f251d614b21,64d2fd46c836a06233681665,64dc7f367221422e1e133b9e,,,,,,,sngl,resources/Empty.png,resources/DG.BMP,WildCard_NonEx,0.15648151,-0.025,1,0,0,0.6779,optionRight,55,2905,2,12,0,12,0,1,,,,,,,,,,,,,,,,,,,,,,,,,,,,,,,,,,,,,,,
,,,,,,,,2023-08-16_08h48.29.804,HF_wild_card,2022.2.4,Win32,59.85156811,5ed2bdf295ed8f251d614b21,64d2fd46c836a06233681665,64dc7f367221422e1e133b9e,,,,,,,sngl,resources/Empty.png,resources/DBN.BMP,Door2,0.287963019,-0.037962977,1,0,0,0.6772,optionRight,40,2945,2,13,0,13,0,1,,,,,,,,,,,,,,,,,,,,,,,,,,,,,,,,,,,,,,,
,,,,,,,,2023-08-16_08h48.29.804,HF_wild_card,2022.2.4,Win32,59.85156811,5ed2bdf295ed8f251d614b21,64d2fd46c836a06233681665,64dc7f367221422e1e133b9e,,,,,,,decisionTrl,resources/DY.BMP,resources/DG.BMP,WildCard_NonEx,0.2,-0.030555556,1,0,0,1.2609,optionRight,45,2990,2,14,0,14,0,1,,,,,,,,,,,,,,,,,,,,,,,,,,,,,,,,,,,,,,,
,,,,,,,,2023-08-16_08h48.29.804,HF_wild_card,2022.2.4,Win32,59.85156811,5ed2bdf295ed8f251d614b21,64d2fd46c836a06233681665,64dc7f367221422e1e133b9e,,,,,,,decisionTrl,resources/DY.BMP,resources/DBN.BMP,Door1,-0.152777778,-0.02129631,1,0,0,0.6106,optionLeft,30,3020,2,15,0,15,0,1,,,,,,,,,,,,,,,,,,,,,,,,,,,,,,,,,,,,,,,
,,,,,,,,2023-08-16_08h48.29.804,HF_wild_card,2022.2.4,Win32,59.85156811,5ed2bdf295ed8f251d614b21,64d2fd46c836a06233681665,64dc7f367221422e1e133b9e,,,,,,,decisionTrl,resources/DG.BMP,resources/DR.BMP,Door4,0.192592621,-0.02129631,1,0,0,0.8605,optionRight,60,3080,2,16,0,16,0,1,,,,,,,,,,,,,,,,,,,,,,,,,,,,,,,,,,,,,,,
,,,,,,,,2023-08-16_08h48.29.804,HF_wild_card,2022.2.4,Win32,59.85156811,5ed2bdf295ed8f251d614b21,64d2fd46c836a06233681665,64dc7f367221422e1e133b9e,,,,,,,decisionTrl,resources/DBN.BMP,resources/DY.BMP,Door2,-0.225,-0.038888889,1,0,0,0.7274,optionLeft,40,3120,2,17,0,17,0,1,,,,,,,,,,,,,,,,,,,,,,,,,,,,,,,,,,,,,,,
,,,,,,,,2023-08-16_08h48.29.804,HF_wild_card,2022.2.4,Win32,59.85156811,5ed2bdf295ed8f251d614b21,64d2fd46c836a06233681665,64dc7f367221422e1e133b9e,,,,,,,decisionTrl,resources/DB.BMP,resources/DG.BMP,WildCard_NonEx,0.193518575,-0.020370399,1,0,0,0.6776,optionRight,55,3175,2,18,0,18,0,1,,,,,,,,,,,,,,,,,,,,,,,,,,,,,,,,,,,,,,,
,,,,,,,,2023-08-16_08h48.29.804,HF_wild_card,2022.2.4,Win32,59.85156811,5ed2bdf295ed8f251d614b21,64d2fd46c836a06233681665,64dc7f367221422e1e133b9e,,,,,,,ctch,resources/DB.BMP,resources/DBN.BMP,Door3,-0.154629601,0.016666667,1,0,0,0.6763,optionLeft,70,3245,2,19,0,19,0,1,,,,,,,,,,,,,,,,,,,,,,,,,,,,,,,,,,,,,,,
,,,,,,,,2023-08-16_08h48.29.804,HF_wild_card,2022.2.4,Win32,59.85156811,5ed2bdf295ed8f251d614b21,64d2fd46c836a06233681665,64dc7f367221422e1e133b9e,,,,,,,decisionTrl,resources/DR.BMP,resources/DB.BMP,Door3,0.308333333,-0.048148176,1,0,0,1.0763,optionRight,70,3315,2,20,0,20,0,1,,,,,,,,,,,,,,,,,,,,,,,,,,,,,,,,,,,,,,,
,,,,,,,,2023-08-16_08h48.29.804,HF_wild_card,2022.2.4,Win32,59.85156811,5ed2bdf295ed8f251d614b21,64d2fd46c836a06233681665,64dc7f367221422e1e133b9e,,,,,,,decisionTrl,resources/DG.BMP,resources/DBN.BMP,WildCard_NonEx,-0.152777778,0.016666667,1,0,0,0.7111,optionLeft,55,3370,2,21,0,21,0,1,,,,,,,,,,,,,,,,,,,,,,,,,,,,,,,,,,,,,,,
,,,,,,,,2023-08-16_08h48.29.804,HF_wild_card,2022.2.4,Win32,59.85156811,5ed2bdf295ed8f251d614b21,64d2fd46c836a06233681665,64dc7f367221422e1e133b9e,,,,,,,decisionTrl,resources/DY.BMP,resources/DBN.BMP,Door1,-0.216666667,0.014814801,1,0,0,0.8277,optionLeft,30,3400,2,22,0,22,0,1,,,,,,,,,,,,,,,,,,,,,,,,,,,,,,,,,,,,,,,
,,,,,,,,2023-08-16_08h48.29.804,HF_wild_card,2022.2.4,Win32,59.85156811,5ed2bdf295ed8f251d614b21,64d2fd46c836a06233681665,64dc7f367221422e1e133b9e,,,,,,,decisionTrl,resources/DR.BMP,resources/DG.BMP,WildCard_NonEx,0.167592621,-0.011111111,1,0,0,0.6771,optionRight,45,3445,2,23,0,23,0,1,,,,,,,,,,,,,,,,,,,,,,,,,,,,,,,,,,,,,,,
,,,,,,,,2023-08-16_08h48.29.804,HF_wild_card,2022.2.4,Win32,59.85156811,5ed2bdf295ed8f251d614b21,64d2fd46c836a06233681665,64dc7f367221422e1e133b9e,,,,,,,sngl,resources/DBN.BMP,resources/Empty.png,Door2,-0.167592536,0.05,1,0,0,0.6938,optionLeft,20,3465,2,24,0,24,0,1,,,,,,,,,,,,,,,,,,,,,,,,,,,,,,,,,,,,,,,
,,,,,,,,2023-08-16_08h48.29.804,HF_wild_card,2022.2.4,Win32,59.85156811,5ed2bdf295ed8f251d614b21,64d2fd46c836a06233681665,64dc7f367221422e1e133b9e,,,,,,,decisionTrl,resources/DR.BMP,resources/DB.BMP,Door3,0.172222222,-0.018518533,1,0,0,0.7106,optionRight,70,3535,2,25,0,25,0,1,,,,,,,,,,,,,,,,,,,,,,,,,,,,,,,,,,,,,,,
,,,,,,,,2023-08-16_08h48.29.804,HF_wild_card,2022.2.4,Win32,59.85156811,5ed2bdf295ed8f251d614b21,64d2fd46c836a06233681665,64dc7f367221422e1e133b9e,,,,,,,ctch,resources/DY.BMP,resources/DR.BMP,Door4,0.059259288,-0.014814843,1,0,0,0.861,optionRight,80,3615,2,26,0,26,0,1,,,,,,,,,,,,,,,,,,,,,,,,,,,,,,,,,,,,,,,
,,,,,,,,2023-08-16_08h48.29.804,HF_wild_card,2022.2.4,Win32,59.85156811,5ed2bdf295ed8f251d614b21,64d2fd46c836a06233681665,64dc7f367221422e1e133b9e,,,,,,,decisionTrl,resources/DG.BMP,resources/DB.BMP,Door3,0.273148176,-0.062037065,1,0,0,0.7609,optionRight,70,3685,2,27,0,27,0,1,,,,,,,,,,,,,,,,,,,,,,,,,,,,,,,,,,,,,,,
,,,,,,,,2023-08-16_08h48.29.804,HF_wild_card,2022.2.4,Win32,59.85156811,5ed2bdf295ed8f251d614b21,64d2fd46c836a06233681665,64dc7f367221422e1e133b9e,,,,,,,ctch,resources/DR.BMP,resources/DY.BMP,Door4,-0.222222222,0.048148134,1,0,0,0.8614,optionLeft,60,3745,2,28,0,28,0,1,,,,,,,,,,,,,,,,,,,,,,,,,,,,,,,,,,,,,,,
,,,,,,,,2023-08-16_08h48.29.804,HF_wild_card,2022.2.4,Win32,59.85156811,5ed2bdf295ed8f251d614b21,64d2fd46c836a06233681665,64dc7f367221422e1e133b9e,,,,,,,sngl,resources/DG.BMP,resources/Empty.png,WildCard_NonEx,-0.4,0.11851849,1,0,0,0.777,optionLeft,45,3790,2,29,0,29,0,1,,,,,,,,,,,,,,,,,,,,,,,,,,,,,,,,,,,,,,,
,,,,,,,,2023-08-16_08h48.29.804,HF_wild_card,2022.2.4,Win32,59.85156811,5ed2bdf295ed8f251d614b21,64d2fd46c836a06233681665,64dc7f367221422e1e133b9e,,,,,,,decisionTrl,resources/DR.BMP,resources/DB.BMP,Door3,0.297222222,-0.078703732,1,0,0,0.7286,optionRight,70,3860,2,30,0,30,0,1,,,,,,,,,,,,,,,,,,,,,,,,,,,,,,,,,,,,,,,
,,,,,,,,2023-08-16_08h48.29.804,HF_wild_card,2022.2.4,Win32,59.85156811,5ed2bdf295ed8f251d614b21,64d2fd46c836a06233681665,64dc7f367221422e1e133b9e,,,,,,,sngl,resources/DG.BMP,resources/Empty.png,WildCard_NonEx,-0.176851824,0.041666667,1,0,0,0.6792,optionLeft,55,3915,2,31,0,31,0,1,,,,,,,,,,,,,,,,,,,,,,,,,,,,,,,,,,,,,,,
,,,,,,,,2023-08-16_08h48.29.804,HF_wild_card,2022.2.4,Win32,59.85156811,5ed2bdf295ed8f251d614b21,64d2fd46c836a06233681665,64dc7f367221422e1e133b9e,,,,,,,decisionTrl,resources/DR.BMP,resources/DB.BMP,Door3,0.169444444,-0.051851866,1,0,0,0.6608,optionRight,70,3985,2,32,0,32,0,1,,,,,,,,,,,,,,,,,,,,,,,,,,,,,,,,,,,,,,,
,,,,,,,,2023-08-16_08h48.29.804,HF_wild_card,2022.2.4,Win32,59.85156811,5ed2bdf295ed8f251d614b21,64d2fd46c836a06233681665,64dc7f367221422e1e133b9e,,,,,,,ctch,resources/DBN.BMP,resources/DB.BMP,Door3,0.291666667,-0.017592621,1,0,0,0.8098,optionRight,70,4055,2,33,0,33,0,1,,,,,,,,,,,,,,,,,,,,,,,,,,,,,,,,,,,,,,,
,,,,,,,,2023-08-16_08h48.29.804,HF_wild_card,2022.2.4,Win32,59.85156811,5ed2bdf295ed8f251d614b21,64d2fd46c836a06233681665,64dc7f367221422e1e133b9e,,,,,,,decisionTrl,resources/DG.BMP,resources/DY.BMP,WildCard_NonEx,-0.296296268,0.035185157,1,0,0,0.9948,optionLeft,45,4100,2,34,0,34,0,1,,,,,,,,,,,,,,,,,,,,,,,,,,,,,,,,,,,,,,,
,,,,,,,,2023-08-16_08h48.29.804,HF_wild_card,2022.2.4,Win32,59.85156811,5ed2bdf295ed8f251d614b21,64d2fd46c836a06233681665,64dc7f367221422e1e133b9e,,,,,,,decisionTrl,resources/DB.BMP,resources/DR.BMP,Door4,0.248148176,-0.060185199,1,0,0,0.7441,optionRight,80,4180,2,35,0,35,0,1,,,,,,,,,,,,,,,,,,,,,,,,,,,,,,,,,,,,,,,
,,,,,,,,2023-08-16_08h48.29.804,HF_wild_card,2022.2.4,Win32,59.85156811,5ed2bdf295ed8f251d614b21,64d2fd46c836a06233681665,64dc7f367221422e1e133b9e,,,,,,,sngl,resources/Empty.png,resources/DB.BMP,Door3,0.169444444,-0.029629644,1,0,0,0.6942,optionRight,70,4250,2,36,0,36,0,1,,,,,,,,,,,,,,,,,,,,,,,,,,,,,,,,,,,,,,,
,,,,,,,,2023-08-16_08h48.29.804,HF_wild_card,2022.2.4,Win32,59.85156811,5ed2bdf295ed8f251d614b21,64d2fd46c836a06233681665,64dc7f367221422e1e133b9e,,,,,,,decisionTrl,resources/DBN.BMP,resources/DY.BMP,Door2,-0.231481467,0.011111111,1,0,0,0.993,optionLeft,40,4290,2,37,0,37,0,1,,,,,,,,,,,,,,,,,,,,,,,,,,,,,,,,,,,,,,,
,,,,,,,,2023-08-16_08h48.29.804,HF_wild_card,2022.2.4,Win32,59.85156811,5ed2bdf295ed8f251d614b21,64d2fd46c836a06233681665,64dc7f367221422e1e133b9e,,,,,,,sngl,resources/DR.BMP,resources/Empty.png,Door4,-0.347222222,0.139814801,1,0,0,0.8104,optionLeft,60,4350,2,38,0,38,0,1,,,,,,,,,,,,,,,,,,,,,,,,,,,,,,,,,,,,,,,
,,,,,,,,2023-08-16_08h48.29.804,HF_wild_card,2022.2.4,Win32,59.85156811,5ed2bdf295ed8f251d614b21,64d2fd46c836a06233681665,64dc7f367221422e1e133b9e,,,,,,,ctch,resources/DY.BMP,resources/DR.BMP,Door1,-0.408333333,0.045370356,1,0,0,0.7259,optionLeft,30,4380,2,39,0,39,0,1,,,,,,,,,,,,,,,,,,,,,,,,,,,,,,,,,,,,,,,
,,,,,,,,2023-08-16_08h48.29.804,HF_wild_card,2022.2.4,Win32,59.85156811,5ed2bdf295ed8f251d614b21,64d2fd46c836a06233681665,64dc7f367221422e1e133b9e,,,,,,,sngl,resources/Empty.png,resources/DG.BMP,WildCard_NonEx,0.165740797,-0.003703732,1,0,0,0.6887,optionRight,45,4425,2,40,0,40,0,1,,,,,,,,,,,,,,,,,,,,,,,,,,,,,,,,,,,,,,,
,,,,,,,,2023-08-16_08h48.29.804,HF_wild_card,2022.2.4,Win32,59.85156811,5ed2bdf295ed8f251d614b21,64d2fd46c836a06233681665,64dc7f367221422e1e133b9e,,,,,,,decisionTrl,resources/DB.BMP,resources/DR.BMP,Door4,0.210185242,-0.025,1,0,0,0.6939,optionRight,80,4505,2,41,0,41,0,1,,,,,,,,,,,,,,,,,,,,,,,,,,,,,,,,,,,,,,,
,,,,,,,,2023-08-16_08h48.29.804,HF_wild_card,2022.2.4,Win32,59.85156811,5ed2bdf295ed8f251d614b21,64d2fd46c836a06233681665,64dc7f367221422e1e133b9e,,,,,,,decisionTrl,resources/DBN.BMP,resources/DY.BMP,Door2,-0.320370356,0.050925912,1,0,0,1.0401,optionLeft,20,4525,2,42,0,42,0,1,,,,,,,,,,,,,,,,,,,,,,,,,,,,,,,,,,,,,,,
,,,,,,,,2023-08-16_08h48.29.804,HF_wild_card,2022.2.4,Win32,59.85156811,5ed2bdf295ed8f251d614b21,64d2fd46c836a06233681665,64dc7f367221422e1e133b9e,,,,,,,decisionTrl,resources/DB.BMP,resources/DR.BMP,Door3,-0.180555556,0.012037023,1,0,0,1.1131,optionLeft,70,4595,2,43,0,43,0,1,,,,,,,,,,,,,,,,,,,,,,,,,,,,,,,,,,,,,,,
,,,,,,,,2023-08-16_08h48.29.804,HF_wild_card,2022.2.4,Win32,59.85156811,5ed2bdf295ed8f251d614b21,64d2fd46c836a06233681665,64dc7f367221422e1e133b9e,,,,,,,,,,,,,,,,,,,,,,,,,,1,0,1,0,1,,,,,,,,,,,,,,,,,,,,,,,,,,,,,,,,,,
,,,,,,,,2023-08-16_08h48.29.804,HF_wild_card,2022.2.4,Win32,59.85156811,5ed2bdf295ed8f251d614b21,64d2fd46c836a06233681665,64dc7f367221422e1e133b9e,,,,,,,decisionTrl,resources/DBN.BMP,resources/DY.BMP,Door2,-0.186111111,0.024074046,1,0,0,0.9262,optionLeft,40,4635,3,0,0,0,0,1,,,,,,,,,,,,,,,,,,,,,,,,,,,,,,,,,,,,,,,
,,,,,,,,2023-08-16_08h48.29.804,HF_wild_card,2022.2.4,Win32,59.85156811,5ed2bdf295ed8f251d614b21,64d2fd46c836a06233681665,64dc7f367221422e1e133b9e,,,,,,,ctch,resources/DR.BMP,resources/DY.BMP,Door4,-0.167592536,0.067592578,1,0,0,0.944,optionLeft,80,4715,3,1,0,1,0,1,,,,,,,,,,,,,,,,,,,,,,,,,,,,,,,,,,,,,,,
,,,,,,,,2023-08-16_08h48.29.804,HF_wild_card,2022.2.4,Win32,59.85156811,5ed2bdf295ed8f251d614b21,64d2fd46c836a06233681665,64dc7f367221422e1e133b9e,,,,,,,sngl,resources/Empty.png,resources/DB.BMP,Door3,0.188888889,-0.038888889,1,0,0,0.6767,optionRight,70,4785,3,2,0,2,0,1,,,,,,,,,,,,,,,,,,,,,,,,,,,,,,,,,,,,,,,
,,,,,,,,2023-08-16_08h48.29.804,HF_wild_card,2022.2.4,Win32,59.85156811,5ed2bdf295ed8f251d614b21,64d2fd46c836a06233681665,64dc7f367221422e1e133b9e,,,,,,,ctch,resources/DY.BMP,resources/DR.BMP,Door4,0.244444444,-0.042592621,1,0,0,0.6898,optionRight,80,4865,3,3,0,3,0,1,,,,,,,,,,,,,,,,,,,,,,,,,,,,,,,,,,,,,,,
,,,,,,,,2023-08-16_08h48.29.804,HF_wild_card,2022.2.4,Win32,59.85156811,5ed2bdf295ed8f251d614b21,64d2fd46c836a06233681665,64dc7f367221422e1e133b9e,,,,,,,sngl,resources/DBN.BMP,resources/Empty.png,Door2,-0.119444444,0.006481467,1,0,0,0.6515,optionLeft,40,4905,3,4,0,4,0,1,,,,,,,,,,,,,,,,,,,,,,,,,,,,,,,,,,,,,,,
,,,,,,,,2023-08-16_08h48.29.804,HF_wild_card,2022.2.4,Win32,59.85156811,5ed2bdf295ed8f251d614b21,64d2fd46c836a06233681665,64dc7f367221422e1e133b9e,,,,,,,decisionTrl,resources/DY.BMP,resources/DBN.BMP,Door1,-0.188888889,0.048148134,1,0,0,0.8266,optionLeft,30,4935,3,5,0,5,0,1,,,,,,,,,,,,,,,,,,,,,,,,,,,,,,,,,,,,,,,
,,,,,,,,2023-08-16_08h48.29.804,HF_wild_card,2022.2.4,Win32,59.85156811,5ed2bdf295ed8f251d614b21,64d2fd46c836a06233681665,64dc7f367221422e1e133b9e,,,,,,,decisionTrl,resources/DB.BMP,resources/DR.BMP,Door4,0.214814843,-0.100925954,1,0,0,1.5871,optionRight,60,4995,3,6,0,6,0,1,,,,,,,,,,,,,,,,,,,,,,,,,,,,,,,,,,,,,,,
,,,,,,,,2023-08-16_08h48.29.804,HF_wild_card,2022.2.4,Win32,59.85156811,5ed2bdf295ed8f251d614b21,64d2fd46c836a06233681665,64dc7f367221422e1e133b9e,,,,,,,sngl,resources/DB.BMP,resources/Empty.png,Door3,-0.125925869,0.014814801,1,0,0,0.6771,optionLeft,70,5065,3,7,0,7,0,1,,,,,,,,,,,,,,,,,,,,,,,,,,,,,,,,,,,,,,,
,,,,,,,,2023-08-16_08h48.29.804,HF_wild_card,2022.2.4,Win32,59.85156811,5ed2bdf295ed8f251d614b21,64d2fd46c836a06233681665,64dc7f367221422e1e133b9e,,,,,,,sngl,resources/Empty.png,resources/DR.BMP,Door4,0.146296353,-0.001851866,1,0,0,0.6759,optionRight,60,5125,3,8,0,8,0,1,,,,,,,,,,,,,,,,,,,,,,,,,,,,,,,,,,,,,,,
,,,,,,,,2023-08-16_08h48.29.804,HF_wild_card,2022.2.4,Win32,59.85156811,5ed2bdf295ed8f251d614b21,64d2fd46c836a06233681665,64dc7f367221422e1e133b9e,,,,,,,decisionTrl,resources/DR.BMP,resources/DB.BMP,Door4,-0.176851824,0.000925912,1,0,0,0.8106,optionLeft,60,5185,3,9,0,9,0,1,,,,,,,,,,,,,,,,,,,,,,,,,,,,,,,,,,,,,,,
,,,,,,,,2023-08-16_08h48.29.804,HF_wild_card,2022.2.4,Win32,59.85156811,5ed2bdf295ed8f251d614b21,64d2fd46c836a06233681665,64dc7f367221422e1e133b9e,,,,,,,decisionTrl,resources/DY.BMP,resources/DG.BMP,Door1,-0.241666667,-0.062037065,1,0,0,0.8939,optionLeft,30,5215,3,10,0,10,0,1,,,,,,,,,,,,,,,,,,,,,,,,,,,,,,,,,,,,,,,
,,,,,,,,2023-08-16_08h48.29.804,HF_wild_card,2022.2.4,Win32,59.85156811,5ed2bdf295ed8f251d614b21,64d2fd46c836a06233681665,64dc7f367221422e1e133b9e,,,,,,,ctch,resources/DR.BMP,resources/DY.BMP,Door4,-0.158333333,0.013888889,1,0,0,0.8274,optionLeft,80,5295,3,11,0,11,0,1,,,,,,,,,,,,,,,,,,,,,,,,,,,,,,,,,,,,,,,
,,,,,,,,2023-08-16_08h48.29.804,HF_wild_card,2022.2.4,Win32,59.85156811,5ed2bdf295ed8f251d614b21,64d2fd46c836a06233681665,64dc7f367221422e1e133b9e,,,,,,,decisionTrl,resources/DG.BMP,resources/DBN.BMP,WildCard_NonEx,-0.229629601,0.037037023,1,0,0,1.0272,optionLeft,45,5340,3,12,0,12,0,1,,,,,,,,,,,,,,,,,,,,,,,,,,,,,,,,,,,,,,,
,,,,,,,,2023-08-16_08h48.29.804,HF_wild_card,2022.2.4,Win32,59.85156811,5ed2bdf295ed8f251d614b21,64d2fd46c836a06233681665,64dc7f367221422e1e133b9e,,,,,,,sngl,resources/DG.BMP,resources/Empty.png,WildCard_NonEx,-0.288888889,-0.022222222,1,0,0,0.6279,optionLeft,55,5395,3,13,0,13,0,1,,,,,,,,,,,,,,,,,,,,,,,,,,,,,,,,,,,,,,,
,,,,,,,,2023-08-16_08h48.29.804,HF_wild_card,2022.2.4,Win32,59.85156811,5ed2bdf295ed8f251d614b21,64d2fd46c836a06233681665,64dc7f367221422e1e133b9e,,,,,,,ctch,resources/DY.BMP,resources/DR.BMP,Door4,0.275,0.020370356,1,0,0,0.6768,optionRight,80,5475,3,14,0,14,0,1,,,,,,,,,,,,,,,,,,,,,,,,,,,,,,,,,,,,,,,
,,,,,,,,2023-08-16_08h48.29.804,HF_wild_card,2022.2.4,Win32,59.85156811,5ed2bdf295ed8f251d614b21,64d2fd46c836a06233681665,64dc7f367221422e1e133b9e,,,,,,,sngl,resources/Empty.png,resources/DBN.BMP,Door2,0.251851908,-0.033333333,1,0,0,0.7276,optionRight,20,5495,3,15,0,15,0,1,,,,,,,,,,,,,,,,,,,,,,,,,,,,,,,,,,,,,,,
,,,,,,,,2023-08-16_08h48.29.804,HF_wild_card,2022.2.4,Win32,59.85156811,5ed2bdf295ed8f251d614b21,64d2fd46c836a06233681665,64dc7f367221422e1e133b9e,,,,,,,ctch,resources/DB.BMP,resources/DBN.BMP,Door3,-0.166666667,0.035185157,1,0,0,0.7609,optionLeft,70,5565,3,16,0,16,0,1,,,,,,,,,,,,,,,,,,,,,,,,,,,,,,,,,,,,,,,
,,,,,,,,2023-08-16_08h48.29.804,HF_wild_card,2022.2.4,Win32,59.85156811,5ed2bdf295ed8f251d614b21,64d2fd46c836a06233681665,64dc7f367221422e1e133b9e,,,,,,,sngl,resources/Empty.png,resources/DG.BMP,WildCard_NonEx,0.245370399,-0.048148176,1,0,0,0.5945,optionRight,55,5620,3,17,0,17,0,1,,,,,,,,,,,,,,,,,,,,,,,,,,,,,,,,,,,,,,,
,,,,,,,,2023-08-16_08h48.29.804,HF_wild_card,2022.2.4,Win32,59.85156811,5ed2bdf295ed8f251d614b21,64d2fd46c836a06233681665,64dc7f367221422e1e133b9e,,,,,,,decisionTrl,resources/DY.BMP,resources/DBN.BMP,Door1,-0.234259245,-0.033333333,1,0,0,0.6282,optionLeft,30,5650,3,18,0,18,0,1,,,,,,,,,,,,,,,,,,,,,,,,,,,,,,,,,,,,,,,
,,,,,,,,2023-08-16_08h48.29.804,HF_wild_card,2022.2.4,Win32,59.85156811,5ed2bdf295ed8f251d614b21,64d2fd46c836a06233681665,64dc7f367221422e1e133b9e,,,,,,,decisionTrl,resources/DG.BMP,resources/DR.BMP,Door4,0.225925954,-0.054629644,1,0,0,0.8274,optionRight,80,5730,3,19,0,19,0,1,,,,,,,,,,,,,,,,,,,,,,,,,,,,,,,,,,,,,,,
,,,,,,,,2023-08-16_08h48.29.804,HF_wild_card,2022.2.4,Win32,59.85156811,5ed2bdf295ed8f251d614b21,64d2fd46c836a06233681665,64dc7f367221422e1e133b9e,,,,,,,decisionTrl,resources/DG.BMP,resources/DB.BMP,WildCard_NonEx,-0.183333333,0,1,0,0,0.6927,optionLeft,45,5775,3,20,0,20,0,1,,,,,,,,,,,,,,,,,,,,,,,,,,,,,,,,,,,,,,,
,,,,,,,,2023-08-16_08h48.29.804,HF_wild_card,2022.2.4,Win32,59.85156811,5ed2bdf295ed8f251d614b21,64d2fd46c836a06233681665,64dc7f367221422e1e133b9e,,,,,,,sngl,resources/Empty.png,resources/DG.BMP,WildCard_NonEx,0.213888889,-0.037962977,1,0,0,1.1942,optionRight,45,5820,3,21,0,21,0,1,,,,,,,,,,,,,,,,,,,,,,,,,,,,,,,,,,,,,,,
,,,,,,,,2023-08-16_08h48.29.804,HF_wild_card,2022.2.4,Win32,59.85156811,5ed2bdf295ed8f251d614b21,64d2fd46c836a06233681665,64dc7f367221422e1e133b9e,,,,,,,decisionTrl,resources/DY.BMP,resources/DBN.BMP,Door1,-0.247222222,-0.007407422,1,0,0,0.6442,optionLeft,30,5850,3,22,0,22,0,1,,,,,,,,,,,,,,,,,,,,,,,,,,,,,,,,,,,,,,,
,,,,,,,,2023-08-16_08h48.29.804,HF_wild_card,2022.2.4,Win32,59.85156811,5ed2bdf295ed8f251d614b21,64d2fd46c836a06233681665,64dc7f367221422e1e133b9e,,,,,,,decisionTrl,resources/DB.BMP,resources/DR.BMP,Door4,0.314814843,-0.062962977,1,0,0,0.6936,optionRight,80,5930,3,23,0,23,0,1,,,,,,,,,,,,,,,,,,,,,,,,,,,,,,,,,,,,,,,
,,,,,,,,2023-08-16_08h48.29.804,HF_wild_card,2022.2.4,Win32,59.85156811,5ed2bdf295ed8f251d614b21,64d2fd46c836a06233681665,64dc7f367221422e1e133b9e,,,,,,,sngl,resources/DY.BMP,resources/Empty.png,Door1,-0.213888889,0.070370356,1,0,0,0.6274,optionLeft,30,5960,3,24,0,24,0,1,,,,,,,,,,,,,,,,,,,,,,,,,,,,,,,,,,,,,,,
,,,,,,,,2023-08-16_08h48.29.804,HF_wild_card,2022.2.4,Win32,59.85156811,5ed2bdf295ed8f251d614b21,64d2fd46c836a06233681665,64dc7f367221422e1e133b9e,,,,,,,decisionTrl,resources/DBN.BMP,resources/DY.BMP,Door1,0.28148151,-0.128703732,1,0,0,0.6111,optionRight,30,5990,3,25,0,25,0,1,,,,,,,,,,,,,,,,,,,,,,,,,,,,,,,,,,,,,,,
,,,,,,,,2023-08-16_08h48.29.804,HF_wild_card,2022.2.4,Win32,59.85156811,5ed2bdf295ed8f251d614b21,64d2fd46c836a06233681665,64dc7f367221422e1e133b9e,,,,,,,decisionTrl,resources/DR.BMP,resources/DB.BMP,Door4,-0.223148134,-0.003703732,1,0,0,0.6279,optionLeft,80,6070,3,26,0,26,0,1,,,,,,,,,,,,,,,,,,,,,,,,,,,,,,,,,,,,,,,
,,,,,,,,2023-08-16_08h48.29.804,HF_wild_card,2022.2.4,Win32,59.85156811,5ed2bdf295ed8f251d614b21,64d2fd46c836a06233681665,64dc7f367221422e1e133b9e,,,,,,,decisionTrl,resources/DR.BMP,resources/DG.BMP,Door4,-0.171296268,0.015740712,1,0,0,0.6451,optionLeft,80,6150,3,27,0,27,0,1,,,,,,,,,,,,,,,,,,,,,,,,,,,,,,,,,,,,,,,
,,,,,,,,2023-08-16_08h48.29.804,HF_wild_card,2022.2.4,Win32,59.85156811,5ed2bdf295ed8f251d614b21,64d2fd46c836a06233681665,64dc7f367221422e1e133b9e,,,,,,,decisionTrl,resources/DR.BMP,resources/DB.BMP,Door4,-0.204629601,-0.044444444,1,0,0,0.7776,optionLeft,80,6230,3,28,0,28,0,1,,,,,,,,,,,,,,,,,,,,,,,,,,,,,,,,,,,,,,,
,,,,,,,,2023-08-16_08h48.29.804,HF_wild_card,2022.2.4,Win32,59.85156811,5ed2bdf295ed8f251d614b21,64d2fd46c836a06233681665,64dc7f367221422e1e133b9e,,,,,,,decisionTrl,resources/DB.BMP,resources/DR.BMP,Door4,0.242592621,-0.051851866,1,0,0,0.6439,optionRight,60,6290,3,29,0,29,0,1,,,,,,,,,,,,,,,,,,,,,,,,,,,,,,,,,,,,,,,
,,,,,,,,2023-08-16_08h48.29.804,HF_wild_card,2022.2.4,Win32,59.85156811,5ed2bdf295ed8f251d614b21,64d2fd46c836a06233681665,64dc7f367221422e1e133b9e,,,,,,,ctch,resources/DB.BMP,resources/DBN.BMP,Door3,-0.220370356,-0.005555556,1,0,0,0.6611,optionLeft,70,6360,3,30,0,30,0,1,,,,,,,,,,,,,,,,,,,,,,,,,,,,,,,,,,,,,,,
,,,,,,,,2023-08-16_08h48.29.804,HF_wild_card,2022.2.4,Win32,59.85156811,5ed2bdf295ed8f251d614b21,64d2fd46c836a06233681665,64dc7f367221422e1e133b9e,,,,,,,ctch,resources/DBN.BMP,resources/DB.BMP,Door3,0.259259288,-0.092592621,1,0,0,0.577,optionRight,70,6430,3,31,0,31,0,1,,,,,,,,,,,,,,,,,,,,,,,,,,,,,,,,,,,,,,,
,,,,,,,,2023-08-16_08h48.29.804,HF_wild_card,2022.2.4,Win32,59.85156811,5ed2bdf295ed8f251d614b21,64d2fd46c836a06233681665,64dc7f367221422e1e133b9e,,,,,,,decisionTrl,resources/DG.BMP,resources/DY.BMP,WildCard_NonEx,-0.173148092,-0.009259288,1,0,0,0.9773,optionLeft,55,6485,3,32,0,32,0,1,,,,,,,,,,,,,,,,,,,,,,,,,,,,,,,,,,,,,,,
,,,,,,,,2023-08-16_08h48.29.804,HF_wild_card,2022.2.4,Win32,59.85156811,5ed2bdf295ed8f251d614b21,64d2fd46c836a06233681665,64dc7f367221422e1e133b9e,,,,,,,decisionTrl,resources/DBN.BMP,resources/DY.BMP,Door1,0.240740797,-0.051851866,1,0,0,0.7111,optionRight,30,6515,3,33,0,33,0,1,,,,,,,,,,,,,,,,,,,,,,,,,,,,,,,,,,,,,,,
,,,,,,,,2023-08-16_08h48.29.804,HF_wild_card,2022.2.4,Win32,59.85156811,5ed2bdf295ed8f251d614b21,64d2fd46c836a06233681665,64dc7f367221422e1e133b9e,,,,,,,ctch,resources/DBN.BMP,resources/DB.BMP,Door3,0.115740797,-0.043518533,1,0,0,0.761,optionRight,70,6585,3,34,0,34,0,1,,,,,,,,,,,,,,,,,,,,,,,,,,,,,,,,,,,,,,,
,,,,,,,,2023-08-16_08h48.29.804,HF_wild_card,2022.2.4,Win32,59.85156811,5ed2bdf295ed8f251d614b21,64d2fd46c836a06233681665,64dc7f367221422e1e133b9e,,,,,,,sngl,resources/DR.BMP,resources/Empty.png,Door4,-0.208333333,0.015740712,1,0,0,0.6601,optionLeft,80,6665,3,35,0,35,0,1,,,,,,,,,,,,,,,,,,,,,,,,,,,,,,,,,,,,,,,
,,,,,,,,2023-08-16_08h48.29.804,HF_wild_card,2022.2.4,Win32,59.85156811,5ed2bdf295ed8f251d614b21,64d2fd46c836a06233681665,64dc7f367221422e1e133b9e,,,,,,,decisionTrl,resources/DBN.BMP,resources/DG.BMP,WildCard_NonEx,0.189814843,-0.045370399,1,0,0,0.7474,optionRight,45,6710,3,36,0,36,0,1,,,,,,,,,,,,,,,,,,,,,,,,,,,,,,,,,,,,,,,
,,,,,,,,2023-08-16_08h48.29.804,HF_wild_card,2022.2.4,Win32,59.85156811,5ed2bdf295ed8f251d614b21,64d2fd46c836a06233681665,64dc7f367221422e1e133b9e,,,,,,,decisionTrl,resources/DB.BMP,resources/DG.BMP,Door3,-0.208333333,0.000925912,1,0,0,0.7699,optionLeft,70,6780,3,37,0,37,0,1,,,,,,,,,,,,,,,,,,,,,,,,,,,,,,,,,,,,,,,
,,,,,,,,2023-08-16_08h48.29.804,HF_wild_card,2022.2.4,Win32,59.85156811,5ed2bdf295ed8f251d614b21,64d2fd46c836a06233681665,64dc7f367221422e1e133b9e,,,,,,,decisionTrl,resources/DB.BMP,resources/DR.BMP,Door4,0.186111111,-0.048148176,1,0,0,0.7196,optionRight,80,6860,3,38,0,38,0,1,,,,,,,,,,,,,,,,,,,,,,,,,,,,,,,,,,,,,,,
,,,,,,,,2023-08-16_08h48.29.804,HF_wild_card,2022.2.4,Win32,59.85156811,5ed2bdf295ed8f251d614b21,64d2fd46c836a06233681665,64dc7f367221422e1e133b9e,,,,,,,sngl,resources/DG.BMP,resources/Empty.png,WildCard_NonEx,-0.235185157,0.027777778,1,0,0,0.6601,optionLeft,45,6905,3,39,0,39,0,1,,,,,,,,,,,,,,,,,,,,,,,,,,,,,,,,,,,,,,,
,,,,,,,,2023-08-16_08h48.29.804,HF_wild_card,2022.2.4,Win32,59.85156811,5ed2bdf295ed8f251d614b21,64d2fd46c836a06233681665,64dc7f367221422e1e133b9e,,,,,,,decisionTrl,resources/DR.BMP,resources/DB.BMP,Door4,-0.224074046,0.020370356,1,0,0,0.7807,optionLeft,80,6985,3,40,0,40,0,1,,,,,,,,,,,,,,,,,,,,,,,,,,,,,,,,,,,,,,,
,,,,,,,,2023-08-16_08h48.29.804,HF_wild_card,2022.2.4,Win32,59.85156811,5ed2bdf295ed8f251d614b21,64d2fd46c836a06233681665,64dc7f367221422e1e133b9e,,,,,,,decisionTrl,resources/DY.BMP,resources/DBN.BMP,Door1,-0.167592536,0.032407379,1,0,0,0.856,optionLeft,30,7015,3,41,0,41,0,1,,,,,,,,,,,,,,,,,,,,,,,,,,,,,,,,,,,,,,,
,,,,,,,,2023-08-16_08h48.29.804,HF_wild_card,2022.2.4,Win32,59.85156811,5ed2bdf295ed8f251d614b21,64d2fd46c836a06233681665,64dc7f367221422e1e133b9e,,,,,,,decisionTrl,resources/DBN.BMP,resources/DY.BMP,Door1,0.228703732,-0.024074088,1,0,0,0.8806,optionRight,30,7045,3,42,0,42,0,1,,,,,,,,,,,,,,,,,,,,,,,,,,,,,,,,,,,,,,,
,,,,,,,,2023-08-16_08h48.29.804,HF_wild_card,2022.2.4,Win32,59.85156811,5ed2bdf295ed8f251d614b21,64d2fd46c836a06233681665,64dc7f367221422e1e133b9e,,,,,,,sngl,resources/Empty.png,resources/DY.BMP,Door1,0.288888889,-0.024074088,1,0,0,0.6664,optionRight,30,7075,3,43,0,43,0,1,,,,,,,,,,,,,,,,,,,,,,,,,,,,,,,,,,,,,,,
,,,,,,,,2023-08-16_08h48.29.804,HF_wild_card,2022.2.4,Win32,59.85156811,5ed2bdf295ed8f251d614b21,64d2fd46c836a06233681665,64dc7f367221422e1e133b9e,,,,,,,,,,,,,,,,,,,,,,,,,,2,0,2,0,1,,,,,,,,,,,,,,,,,,,,,,,,,,,,,,,,,,
,,,,,,,,2023-08-16_08h48.29.804,HF_wild_card,2022.2.4,Win32,59.85156811,5ed2bdf295ed8f251d614b21,64d2fd46c836a06233681665,64dc7f367221422e1e133b9e,,,,,,,decisionTrl,resources/DBN.BMP,resources/DY.BMP,Door1,0.2,-0.1,1,0,0,0.8829,optionRight,30,7105,4,0,0,0,0,1,,,,,,,,,,,,,,,,,,,,,,,,,,,,,,,,,,,,,,,
,,,,,,,,2023-08-16_08h48.29.804,HF_wild_card,2022.2.4,Win32,59.85156811,5ed2bdf295ed8f251d614b21,64d2fd46c836a06233681665,64dc7f367221422e1e133b9e,,,,,,,sngl,resources/DP.BMP,resources/Empty.png,WildCard_Ex,-0.176851824,0.012962935,1,0,0,0.5721,optionLeft,95,7200,4,1,0,1,0,1,,,,,,,,,,,,,,,,,,,,,,,,,,,,,,,,,,,,,,,
,,,,,,,,2023-08-16_08h48.29.804,HF_wild_card,2022.2.4,Win32,59.85156811,5ed2bdf295ed8f251d614b21,64d2fd46c836a06233681665,64dc7f367221422e1e133b9e,,,,,,,decisionTrl,resources/DR.BMP,resources/DB.BMP,Door3,0.278703732,-0.061111111,1,0,0,0.6199,optionRight,70,7270,4,2,0,2,0,1,,,,,,,,,,,,,,,,,,,,,,,,,,,,,,,,,,,,,,,
,,,,,,,,2023-08-16_08h48.29.804,HF_wild_card,2022.2.4,Win32,59.85156811,5ed2bdf295ed8f251d614b21,64d2fd46c836a06233681665,64dc7f367221422e1e133b9e,,,,,,,decisionTrl,resources/DY.BMP,resources/DP.BMP,WildCard_Ex,0.185185242,-0.038888889,1,0,0,0.6786,optionRight,95,7365,4,3,0,3,0,1,,,,,,,,,,,,,,,,,,,,,,,,,,,,,,,,,,,,,,,
,,,,,,,,2023-08-16_08h48.29.804,HF_wild_card,2022.2.4,Win32,59.85156811,5ed2bdf295ed8f251d614b21,64d2fd46c836a06233681665,64dc7f367221422e1e133b9e,,,,,,,sngl,resources/DP.BMP,resources/Empty.png,WildCard_Ex,-0.192592578,0.012037023,1,0,0,0.6417,optionLeft,5,7370,4,4,0,4,0,1,,,,,,,,,,,,,,,,,,,,,,,,,,,,,,,,,,,,,,,
,,,,,,,,2023-08-16_08h48.29.804,HF_wild_card,2022.2.4,Win32,59.85156811,5ed2bdf295ed8f251d614b21,64d2fd46c836a06233681665,64dc7f367221422e1e133b9e,,,,,,,sngl,resources/DY.BMP,resources/Empty.png,Door1,-0.151851824,0.017592578,1,0,0,0.6767,optionLeft,30,7400,4,5,0,5,0,1,,,,,,,,,,,,,,,,,,,,,,,,,,,,,,,,,,,,,,,
,,,,,,,,2023-08-16_08h48.29.804,HF_wild_card,2022.2.4,Win32,59.85156811,5ed2bdf295ed8f251d614b21,64d2fd46c836a06233681665,64dc7f367221422e1e133b9e,,,,,,,decisionTrl,resources/DY.BMP,resources/DBN.BMP,Door1,-0.180555556,0.026851824,1,0,0,0.8211,optionLeft,30,7430,4,6,0,6,0,1,,,,,,,,,,,,,,,,,,,,,,,,,,,,,,,,,,,,,,,
,,,,,,,,2023-08-16_08h48.29.804,HF_wild_card,2022.2.4,Win32,59.85156811,5ed2bdf295ed8f251d614b21,64d2fd46c836a06233681665,64dc7f367221422e1e133b9e,,,,,,,sngl,resources/Empty.png,resources/DP.BMP,WildCard_Ex,0.247222222,-0.067592621,1,0,0,1.3935,optionRight,5,7435,4,7,0,7,0,1,,,,,,,,,,,,,,,,,,,,,,,,,,,,,,,,,,,,,,,
,,,,,,,,2023-08-16_08h48.29.804,HF_wild_card,2022.2.4,Win32,59.85156811,5ed2bdf295ed8f251d614b21,64d2fd46c836a06233681665,64dc7f367221422e1e133b9e,,,,,,,ctch,resources/DB.BMP,resources/DBN.BMP,Door3,-0.248148134,0.090740712,1,0,0,0.7211,optionLeft,70,7505,4,8,0,8,0,1,,,,,,,,,,,,,,,,,,,,,,,,,,,,,,,,,,,,,,,
,,,,,,,,2023-08-16_08h48.29.804,HF_wild_card,2022.2.4,Win32,59.85156811,5ed2bdf295ed8f251d614b21,64d2fd46c836a06233681665,64dc7f367221422e1e133b9e,,,,,,,decisionTrl,resources/DB.BMP,resources/DR.BMP,Door4,0.429629686,-0.041666667,1,0,0,1.2291,optionRight,60,7565,4,9,0,9,0,1,,,,,,,,,,,,,,,,,,,,,,,,,,,,,,,,,,,,,,,
,,,,,,,,2023-08-16_08h48.29.804,HF_wild_card,2022.2.4,Win32,59.85156811,5ed2bdf295ed8f251d614b21,64d2fd46c836a06233681665,64dc7f367221422e1e133b9e,,,,,,,sngl,resources/Empty.png,resources/DR.BMP,Door4,0.18148151,-0.041666667,1,0,0,0.6444,optionRight,80,7645,4,10,0,10,0,1,,,,,,,,,,,,,,,,,,,,,,,,,,,,,,,,,,,,,,,
,,,,,,,,2023-08-16_08h48.29.804,HF_wild_card,2022.2.4,Win32,59.85156811,5ed2bdf295ed8f251d614b21,64d2fd46c836a06233681665,64dc7f367221422e1e133b9e,,,,,,,decisionTrl,resources/DB.BMP,resources/DP.BMP,WildCard_Ex,0.122222222,-0.039814843,1,0,0,0.6776,optionRight,5,7650,4,11,0,11,0,1,,,,,,,,,,,,,,,,,,,,,,,,,,,,,,,,,,,,,,,
,,,,,,,,2023-08-16_08h48.29.804,HF_wild_card,2022.2.4,Win32,59.85156811,5ed2bdf295ed8f251d614b21,64d2fd46c836a06233681665,64dc7f367221422e1e133b9e,,,,,,,ctch,resources/DR.BMP,resources/DY.BMP,Door4,-0.231481467,-0.004629644,1,0,0,0.7934,optionLeft,80,7730,4,12,0,12,0,1,,,,,,,,,,,,,,,,,,,,,,,,,,,,,,,,,,,,,,,
,,,,,,,,2023-08-16_08h48.29.804,HF_wild_card,2022.2.4,Win32,59.85156811,5ed2bdf295ed8f251d614b21,64d2fd46c836a06233681665,64dc7f367221422e1e133b9e,,,,,,,ctch,resources/DY.BMP,resources/DR.BMP,Door1,-0.230555556,-0.016666667,1,0,0,1.1441,optionLeft,30,7760,4,13,0,13,0,1,,,,,,,,,,,,,,,,,,,,,,,,,,,,,,,,,,,,,,,
,,,,,,,,2023-08-16_08h48.29.804,HF_wild_card,2022.2.4,Win32,59.85156811,5ed2bdf295ed8f251d614b21,64d2fd46c836a06233681665,64dc7f367221422e1e133b9e,,,,,,,sngl,resources/Empty.png,resources/DB.BMP,Door3,0.187037065,0.004629601,1,0,0,3.0113,optionRight,70,7830,4,14,0,14,0,1,,,,,,,,,,,,,,,,,,,,,,,,,,,,,,,,,,,,,,,
,,,,,,,,2023-08-16_08h48.29.804,HF_wild_card,2022.2.4,Win32,59.85156811,5ed2bdf295ed8f251d614b21,64d2fd46c836a06233681665,64dc7f367221422e1e133b9e,,,,,,,ctch,resources/DY.BMP,resources/DR.BMP,Door4,0.137963019,0.016666667,1,0,0,1.3938,optionRight,80,7910,4,15,0,15,0,1,,,,,,,,,,,,,,,,,,,,,,,,,,,,,,,,,,,,,,,
,,,,,,,,2023-08-16_08h48.29.804,HF_wild_card,2022.2.4,Win32,59.85156811,5ed2bdf295ed8f251d614b21,64d2fd46c836a06233681665,64dc7f367221422e1e133b9e,,,,,,,decisionTrl,resources/DB.BMP,resources/DR.BMP,Door4,0.219444444,-0.04629631,1,0,0,1.544,optionRight,60,7970,4,16,0,16,0,1,,,,,,,,,,,,,,,,,,,,,,,,,,,,,,,,,,,,,,,
,,,,,,,,2023-08-16_08h48.29.804,HF_wild_card,2022.2.4,Win32,59.85156811,5ed2bdf295ed8f251d614b21,64d2fd46c836a06233681665,64dc7f367221422e1e133b9e,,,,,,,decisionTrl,resources/DP.BMP,resources/DR.BMP,WildCard_Ex,-0.167592536,0.029629601,1,0,0,0.7774,optionLeft,95,8065,4,17,0,17,0,1,,,,,,,,,,,,,,,,,,,,,,,,,,,,,,,,,,,,,,,
,,,,,,,,2023-08-16_08h48.29.804,HF_wild_card,2022.2.4,Win32,59.85156811,5ed2bdf295ed8f251d614b21,64d2fd46c836a06233681665,64dc7f367221422e1e133b9e,,,,,,,decisionTrl,resources/DR.BMP,resources/DP.BMP,Door4,-0.176851824,0.042592578,1,0,0,0.878,optionLeft,60,8125,4,18,0,18,0,1,,,,,,,,,,,,,,,,,,,,,,,,,,,,,,,,,,,,,,,
,,,,,,,,2023-08-16_08h48.29.804,HF_wild_card,2022.2.4,Win32,59.85156811,5ed2bdf295ed8f251d614b21,64d2fd46c836a06233681665,64dc7f367221422e1e133b9e,,,,,,,sngl,resources/DBN.BMP,resources/Empty.png,Door2,-0.194444444,0.037037023,1,0,0,0.694,optionLeft,20,8145,4,19,0,19,0,1,,,,,,,,,,,,,,,,,,,,,,,,,,,,,,,,,,,,,,,
,,,,,,,,2023-08-16_08h48.29.804,HF_wild_card,2022.2.4,Win32,59.85156811,5ed2bdf295ed8f251d614b21,64d2fd46c836a06233681665,64dc7f367221422e1e133b9e,,,,,,,ctch,resources/DB.BMP,resources/DBN.BMP,Door3,-0.209259245,0.029629601,1,0,0,0.8557,optionLeft,70,8215,4,20,0,20,0,1,,,,,,,,,,,,,,,,,,,,,,,,,,,,,,,,,,,,,,,
,,,,,,,,2023-08-16_08h48.29.804,HF_wild_card,2022.2.4,Win32,59.85156811,5ed2bdf295ed8f251d614b21,64d2fd46c836a06233681665,64dc7f367221422e1e133b9e,,,,,,,decisionTrl,resources/DP.BMP,resources/DY.BMP,WildCard_Ex,-0.160185157,0.040740712,1,0,0,1.3102,optionLeft,95,8310,4,21,0,21,0,1,,,,,,,,,,,,,,,,,,,,,,,,,,,,,,,,,,,,,,,
,,,,,,,,2023-08-16_08h48.29.804,HF_wild_card,2022.2.4,Win32,59.85156811,5ed2bdf295ed8f251d614b21,64d2fd46c836a06233681665,64dc7f367221422e1e133b9e,,,,,,,decisionTrl,resources/DB.BMP,resources/DR.BMP,Door4,0.177777778,-0.016666667,1,0,0,0.6943,optionRight,80,8390,4,22,0,22,0,1,,,,,,,,,,,,,,,,,,,,,,,,,,,,,,,,,,,,,,,
,,,,,,,,2023-08-16_08h48.29.804,HF_wild_card,2022.2.4,Win32,59.85156811,5ed2bdf295ed8f251d614b21,64d2fd46c836a06233681665,64dc7f367221422e1e133b9e,,,,,,,decisionTrl,resources/DR.BMP,resources/DB.BMP,Door4,-0.101851824,-0.016666667,1,0,0,0.7609,optionLeft,60,8450,4,23,0,23,0,1,,,,,,,,,,,,,,,,,,,,,,,,,,,,,,,,,,,,,,,
,,,,,,,,2023-08-16_08h48.29.804,HF_wild_card,2022.2.4,Win32,59.85156811,5ed2bdf295ed8f251d614b21,64d2fd46c836a06233681665,64dc7f367221422e1e133b9e,,,,,,,decisionTrl,resources/DR.BMP,resources/DB.BMP,Door4,-0.207407379,0.019444444,1,0,0,0.8439,optionLeft,80,8530,4,24,0,24,0,1,,,,,,,,,,,,,,,,,,,,,,,,,,,,,,,,,,,,,,,
,,,,,,,,2023-08-16_08h48.29.804,HF_wild_card,2022.2.4,Win32,59.85156811,5ed2bdf295ed8f251d614b21,64d2fd46c836a06233681665,64dc7f367221422e1e133b9e,,,,,,,sngl,resources/Empty.png,resources/DBN.BMP,Door2,0.253703732,-0.019444444,1,0,0,0.5936,optionRight,40,8570,4,25,0,25,0,1,,,,,,,,,,,,,,,,,,,,,,,,,,,,,,,,,,,,,,,
,,,,,,,,2023-08-16_08h48.29.804,HF_wild_card,2022.2.4,Win32,59.85156811,5ed2bdf295ed8f251d614b21,64d2fd46c836a06233681665,64dc7f367221422e1e133b9e,,,,,,,sngl,resources/DB.BMP,resources/Empty.png,Door3,-0.123148092,0.013888889,1,0,0,0.6773,optionLeft,70,8640,4,26,0,26,0,1,,,,,,,,,,,,,,,,,,,,,,,,,,,,,,,,,,,,,,,
,,,,,,,,2023-08-16_08h48.29.804,HF_wild_card,2022.2.4,Win32,59.85156811,5ed2bdf295ed8f251d614b21,64d2fd46c836a06233681665,64dc7f367221422e1e133b9e,,,,,,,decisionTrl,resources/DY.BMP,resources/DBN.BMP,Door1,-0.175925869,0.031481467,1,0,0,0.8765,optionLeft,30,8670,4,27,0,27,0,1,,,,,,,,,,,,,,,,,,,,,,,,,,,,,,,,,,,,,,,
,,,,,,,,2023-08-16_08h48.29.804,HF_wild_card,2022.2.4,Win32,59.85156811,5ed2bdf295ed8f251d614b21,64d2fd46c836a06233681665,64dc7f367221422e1e133b9e,,,,,,,ctch,resources/DBN.BMP,resources/DB.BMP,Door3,0.175,-0.05,1,0,0,0.5444,optionRight,70,8740,4,28,0,28,0,1,,,,,,,,,,,,,,,,,,,,,,,,,,,,,,,,,,,,,,,
,,,,,,,,2023-08-16_08h48.29.804,HF_wild_card,2022.2.4,Win32,59.85156811,5ed2bdf295ed8f251d614b21,64d2fd46c836a06233681665,64dc7f367221422e1e133b9e,,,,,,,decisionTrl,resources/DBN.BMP,resources/DY.BMP,Door2,-0.150925869,0.017592578,1,0,0,0.6612,optionLeft,20,8760,4,29,0,29,0,1,,,,,,,,,,,,,,,,,,,,,,,,,,,,,,,,,,,,,,,
,,,,,,,,2023-08-16_08h48.29.804,HF_wild_card,2022.2.4,Win32,59.85156811,5ed2bdf295ed8f251d614b21,64d2fd46c836a06233681665,64dc7f367221422e1e133b9e,,,,,,,decisionTrl,resources/DBN.BMP,resources/DY.BMP,Door1,0.257407464,-0.037037065,1,0,0,0.6936,optionRight,30,8790,4,30,0,30,0,1,,,,,,,,,,,,,,,,,,,,,,,,,,,,,,,,,,,,,,,
,,,,,,,,2023-08-16_08h48.29.804,HF_wild_card,2022.2.4,Win32,59.85156811,5ed2bdf295ed8f251d614b21,64d2fd46c836a06233681665,64dc7f367221422e1e133b9e,,,,,,,sngl,resources/Empty.png,resources/DP.BMP,WildCard_Ex,0.169444444,-0.026851866,1,0,0,0.6279,optionRight,95,8885,4,31,0,31,0,1,,,,,,,,,,,,,,,,,,,,,,,,,,,,,,,,,,,,,,,
,,,,,,,,2023-08-16_08h48.29.804,HF_wild_card,2022.2.4,Win32,59.85156811,5ed2bdf295ed8f251d614b21,64d2fd46c836a06233681665,64dc7f367221422e1e133b9e,,,,,,,decisionTrl,resources/DP.BMP,resources/DB.BMP,Door3,0.235185242,-0.028703732,1,0,0,0.8611,optionRight,70,8955,4,32,0,32,0,1,,,,,,,,,,,,,,,,,,,,,,,,,,,,,,,,,,,,,,,
,,,,,,,,2023-08-16_08h48.29.804,HF_wild_card,2022.2.4,Win32,59.85156811,5ed2bdf295ed8f251d614b21,64d2fd46c836a06233681665,64dc7f367221422e1e133b9e,,,,,,,decisionTrl,resources/DBN.BMP,resources/DP.BMP,WildCard_Ex,0.192592621,-0.018518533,1,0,0,0.6608,optionRight,5,8960,4,33,0,33,0,1,,,,,,,,,,,,,,,,,,,,,,,,,,,,,,,,,,,,,,,
,,,,,,,,2023-08-16_08h48.29.804,HF_wild_card,2022.2.4,Win32,59.85156811,5ed2bdf295ed8f251d614b21,64d2fd46c836a06233681665,64dc7f367221422e1e133b9e,,,,,,,decisionTrl,resources/DP.BMP,resources/DBN.BMP,WildCard_Ex,-0.264814801,0.051851824,1,0,0,0.6947,optionLeft,95,9055,4,34,0,34,0,1,,,,,,,,,,,,,,,,,,,,,,,,,,,,,,,,,,,,,,,
,,,,,,,,2023-08-16_08h48.29.804,HF_wild_card,2022.2.4,Win32,59.85156811,5ed2bdf295ed8f251d614b21,64d2fd46c836a06233681665,64dc7f367221422e1e133b9e,,,,,,,decisionTrl,resources/DY.BMP,resources/DBN.BMP,Door1,-0.246296268,0.040740712,1,0,0,0.7946,optionLeft,30,9085,4,35,0,35,0,1,,,,,,,,,,,,,,,,,,,,,,,,,,,,,,,,,,,,,,,
,,,,,,,,2023-08-16_08h48.29.804,HF_wild_card,2022.2.4,Win32,59.85156811,5ed2bdf295ed8f251d614b21,64d2fd46c836a06233681665,64dc7f367221422e1e133b9e,,,,,,,decisionTrl,resources/DBN.BMP,resources/DY.BMP,Door1,0.259259288,-0.072222222,1,0,0,0.9779,optionRight,30,9115,4,36,0,36,0,1,,,,,,,,,,,,,,,,,,,,,,,,,,,,,,,,,,,,,,,
,,,,,,,,2023-08-16_08h48.29.804,HF_wild_card,2022.2.4,Win32,59.85156811,5ed2bdf295ed8f251d614b21,64d2fd46c836a06233681665,64dc7f367221422e1e133b9e,,,,,,,ctch,resources/DR.BMP,resources/DY.BMP,Door1,0.249074131,-0.028703732,1,0,0,0.6428,optionRight,30,9145,4,37,0,37,0,1,,,,,,,,,,,,,,,,,,,,,,,,,,,,,,,,,,,,,,,
,,,,,,,,2023-08-16_08h48.29.804,HF_wild_card,2022.2.4,Win32,59.85156811,5ed2bdf295ed8f251d614b21,64d2fd46c836a06233681665,64dc7f367221422e1e133b9e,,,,,,,sngl,resources/Empty.png,resources/DY.BMP,Door1,0.188888889,-0.025925954,1,0,0,0.6772,optionRight,30,9175,4,38,0,38,0,1,,,,,,,,,,,,,,,,,,,,,,,,,,,,,,,,,,,,,,,
,,,,,,,,2023-08-16_08h48.29.804,HF_wild_card,2022.2.4,Win32,59.85156811,5ed2bdf295ed8f251d614b21,64d2fd46c836a06233681665,64dc7f367221422e1e133b9e,,,,,,,decisionTrl,resources/DB.BMP,resources/DR.BMP,Door4,0.194444444,0.012037023,1,0,0,0.9774,optionRight,60,9235,4,39,0,39,0,1,,,,,,,,,,,,,,,,,,,,,,,,,,,,,,,,,,,,,,,
,,,,,,,,2023-08-16_08h48.29.804,HF_wild_card,2022.2.4,Win32,59.85156811,5ed2bdf295ed8f251d614b21,64d2fd46c836a06233681665,64dc7f367221422e1e133b9e,,,,,,,ctch,resources/DBN.BMP,resources/DB.BMP,Door3,0.308333333,-0.025925954,1,0,0,0.8108,optionRight,70,9305,4,40,0,40,0,1,,,,,,,,,,,,,,,,,,,,,,,,,,,,,,,,,,,,,,,
,,,,,,,,2023-08-16_08h48.29.804,HF_wild_card,2022.2.4,Win32,59.85156811,5ed2bdf295ed8f251d614b21,64d2fd46c836a06233681665,64dc7f367221422e1e133b9e,,,,,,,decisionTrl,resources/DY.BMP,resources/DBN.BMP,Door1,-0.262037023,0.012962935,1,0,0,0.6932,optionLeft,30,9335,4,41,0,41,0,1,,,,,,,,,,,,,,,,,,,,,,,,,,,,,,,,,,,,,,,
,,,,,,,,2023-08-16_08h48.29.804,HF_wild_card,2022.2.4,Win32,59.85156811,5ed2bdf295ed8f251d614b21,64d2fd46c836a06233681665,64dc7f367221422e1e133b9e,,,,,,,sngl,resources/DR.BMP,resources/Empty.png,Door4,-0.321296268,0.01851849,1,0,0,1.4607,optionLeft,60,9395,4,42,0,42,0,1,,,,,,,,,,,,,,,,,,,,,,,,,,,,,,,,,,,,,,,
,,,,,,,,2023-08-16_08h48.29.804,HF_wild_card,2022.2.4,Win32,59.85156811,5ed2bdf295ed8f251d614b21,64d2fd46c836a06233681665,64dc7f367221422e1e133b9e,,,,,,,decisionTrl,resources/DR.BMP,resources/DB.BMP,Door4,-0.237962935,-0.025,1,0,0,0.7282,optionLeft,60,9455,4,43,0,43,0,1,,,,,,,,,,,,,,,,,,,,,,,,,,,,,,,,,,,,,,,
,,,,,,,,2023-08-16_08h48.29.804,HF_wild_card,2022.2.4,Win32,59.85156811,5ed2bdf295ed8f251d614b21,64d2fd46c836a06233681665,64dc7f367221422e1e133b9e,,,,,,,,,,,,,,,,,,,,,,,,,,3,0,3,0,1,,,,,,,,,,,,,,,,,,,,,,,,,,,,,,,,,,
,,,,,,,,2023-08-16_08h48.29.804,HF_wild_card,2022.2.4,Win32,59.85156811,5ed2bdf295ed8f251d614b21,64d2fd46c836a06233681665,64dc7f367221422e1e133b9e,,,,,,,sngl,resources/Empty.png,resources/DP.BMP,WildCard_Ex,0.225,-0.125,1,0,0,0.7101,optionRight,95,9550,5,0,0,0,0,1,,,,,,,,,,,,,,,,,,,,,,,,,,,,,,,,,,,,,,,
,,,,,,,,2023-08-16_08h48.29.804,HF_wild_card,2022.2.4,Win32,59.85156811,5ed2bdf295ed8f251d614b21,64d2fd46c836a06233681665,64dc7f367221422e1e133b9e,,,,,,,decisionTrl,resources/DP.BMP,resources/DY.BMP,WildCard_Ex,-0.260185157,-0.068518533,1,0,0,0.6933,optionLeft,95,9645,5,1,0,1,0,1,,,,,,,,,,,,,,,,,,,,,,,,,,,,,,,,,,,,,,,
,,,,,,,,2023-08-16_08h48.29.804,HF_wild_card,2022.2.4,Win32,59.85156811,5ed2bdf295ed8f251d614b21,64d2fd46c836a06233681665,64dc7f367221422e1e133b9e,,,,,,,ctch,resources/DR.BMP,resources/DY.BMP,Door1,0.177777778,0.01851849,1,0,0,0.7276,optionRight,30,9675,5,2,0,2,0,1,,,,,,,,,,,,,,,,,,,,,,,,,,,,,,,,,,,,,,,
,,,,,,,,2023-08-16_08h48.29.804,HF_wild_card,2022.2.4,Win32,59.85156811,5ed2bdf295ed8f251d614b21,64d2fd46c836a06233681665,64dc7f367221422e1e133b9e,,,,,,,decisionTrl,resources/DR.BMP,resources/DB.BMP,Door3,0.154629686,0.037962935,1,0,0,0.8612,optionRight,70,9745,5,3,0,3,0,1,,,,,,,,,,,,,,,,,,,,,,,,,,,,,,,,,,,,,,,
,,,,,,,,2023-08-16_08h48.29.804,HF_wild_card,2022.2.4,Win32,59.85156811,5ed2bdf295ed8f251d614b21,64d2fd46c836a06233681665,64dc7f367221422e1e133b9e,,,,,,,ctch,resources/DB.BMP,resources/DBN.BMP,Door3,-0.200925912,-0.000925954,1,0,0,0.5435,optionLeft,70,9815,5,4,0,4,0,1,,,,,,,,,,,,,,,,,,,,,,,,,,,,,,,,,,,,,,,
,,,,,,,,2023-08-16_08h48.29.804,HF_wild_card,2022.2.4,Win32,59.85156811,5ed2bdf295ed8f251d614b21,64d2fd46c836a06233681665,64dc7f367221422e1e133b9e,,,,,,,decisionTrl,resources/DBN.BMP,resources/DP.BMP,WildCard_Ex,0.293518575,-0.114814843,1,0,0,0.8114,optionRight,5,9820,5,5,0,5,0,1,,,,,,,,,,,,,,,,,,,,,,,,,,,,,,,,,,,,,,,
,,,,,,,,2023-08-16_08h48.29.804,HF_wild_card,2022.2.4,Win32,59.85156811,5ed2bdf295ed8f251d614b21,64d2fd46c836a06233681665,64dc7f367221422e1e133b9e,,,,,,,decisionTrl,resources/DY.BMP,resources/DBN.BMP,Door1,-0.157407379,-0.003703732,1,0,0,0.7617,optionLeft,30,9850,5,6,0,6,0,1,,,,,,,,,,,,,,,,,,,,,,,,,,,,,,,,,,,,,,,
,,,,,,,,2023-08-16_08h48.29.804,HF_wild_card,2022.2.4,Win32,59.85156811,5ed2bdf295ed8f251d614b21,64d2fd46c836a06233681665,64dc7f367221422e1e133b9e,,,,,,,sngl,resources/Empty.png,resources/DB.BMP,Door3,0.194444444,-0.016666667,1,0,0,0.7269,optionRight,70,9920,5,7,0,7,0,1,,,,,,,,,,,,,,,,,,,,,,,,,,,,,,,,,,,,,,,
,,,,,,,,2023-08-16_08h48.29.804,HF_wild_card,2022.2.4,Win32,59.85156811,5ed2bdf295ed8f251d614b21,64d2fd46c836a06233681665,64dc7f367221422e1e133b9e,,,,,,,decisionTrl,resources/DR.BMP,resources/DB.BMP,Door4,-0.313888889,-0.054629644,1,0,0,0.6287,optionLeft,80,10000,5,8,0,8,0,1,,,,,,,,,,,,,,,,,,,,,,,,,,,,,,,,,,,,,,,
,,,,,,,,2023-08-16_08h48.29.804,HF_wild_card,2022.2.4,Win32,59.85156811,5ed2bdf295ed8f251d614b21,64d2fd46c836a06233681665,64dc7f367221422e1e133b9e,,,,,,,decisionTrl,resources/DP.BMP,resources/DR.BMP,WildCard_Ex,-0.287037023,-0.04629631,1,0,0,0.7444,optionLeft,5,10005,5,9,0,9,0,1,,,,,,,,,,,,,,,,,,,,,,,,,,,,,,,,,,,,,,,
,,,,,,,,2023-08-16_08h48.29.804,HF_wild_card,2022.2.4,Win32,59.85156811,5ed2bdf295ed8f251d614b21,64d2fd46c836a06233681665,64dc7f367221422e1e133b9e,,,,,,,decisionTrl,resources/DB.BMP,resources/DP.BMP,Door3,-0.438888889,0.013888889,1,0,0,0.9614,optionLeft,70,10075,5,10,0,10,0,1,,,,,,,,,,,,,,,,,,,,,,,,,,,,,,,,,,,,,,,
,,,,,,,,2023-08-16_08h48.29.804,HF_wild_card,2022.2.4,Win32,59.85156811,5ed2bdf295ed8f251d614b21,64d2fd46c836a06233681665,64dc7f367221422e1e133b9e,,,,,,,decisionTrl,resources/DBN.BMP,resources/DY.BMP,Door1,0.186111111,-0.014814843,1,0,0,0.6105,optionRight,30,10105,5,11,0,11,0,1,,,,,,,,,,,,,,,,,,,,,,,,,,,,,,,,,,,,,,,
,,,,,,,,2023-08-16_08h48.29.804,HF_wild_card,2022.2.4,Win32,59.85156811,5ed2bdf295ed8f251d614b21,64d2fd46c836a06233681665,64dc7f367221422e1e133b9e,,,,,,,decisionTrl,resources/DY.BMP,resources/DBN.BMP,Door1,-0.19351849,-0.042592621,1,0,0,0.6612,optionLeft,30,10135,5,12,0,12,0,1,,,,,,,,,,,,,,,,,,,,,,,,,,,,,,,,,,,,,,,
,,,,,,,,2023-08-16_08h48.29.804,HF_wild_card,2022.2.4,Win32,59.85156811,5ed2bdf295ed8f251d614b21,64d2fd46c836a06233681665,64dc7f367221422e1e133b9e,,,,,,,sngl,resources/Empty.png,resources/DBN.BMP,Door2,0.193518575,0.029629601,1,0,0,0.578,optionRight,20,10155,5,13,0,13,0,1,,,,,,,,,,,,,,,,,,,,,,,,,,,,,,,,,,,,,,,
,,,,,,,,2023-08-16_08h48.29.804,HF_wild_card,2022.2.4,Win32,59.85156811,5ed2bdf295ed8f251d614b21,64d2fd46c836a06233681665,64dc7f367221422e1e133b9e,,,,,,,ctch,resources/DB.BMP,resources/DBN.BMP,Door3,-0.190740712,-0.010185199,1,0,0,0.5441,optionLeft,70,10225,5,14,0,14,0,1,,,,,,,,,,,,,,,,,,,,,,,,,,,,,,,,,,,,,,,
,,,,,,,,2023-08-16_08h48.29.804,HF_wild_card,2022.2.4,Win32,59.85156811,5ed2bdf295ed8f251d614b21,64d2fd46c836a06233681665,64dc7f367221422e1e133b9e,,,,,,,ctch,resources/DY.BMP,resources/DR.BMP,Door4,0.119444444,0.005555556,1,0,0,0.7445,optionRight,80,10305,5,15,0,15,0,1,,,,,,,,,,,,,,,,,,,,,,,,,,,,,,,,,,,,,,,
,,,,,,,,2023-08-16_08h48.29.804,HF_wild_card,2022.2.4,Win32,59.85156811,5ed2bdf295ed8f251d614b21,64d2fd46c836a06233681665,64dc7f367221422e1e133b9e,,,,,,,decisionTrl,resources/DB.BMP,resources/DR.BMP,Door4,0.147222222,0.005555556,1,0,0,0.8112,optionRight,80,10385,5,16,0,16,0,1,,,,,,,,,,,,,,,,,,,,,,,,,,,,,,,,,,,,,,,
,,,,,,,,2023-08-16_08h48.29.804,HF_wild_card,2022.2.4,Win32,59.85156811,5ed2bdf295ed8f251d614b21,64d2fd46c836a06233681665,64dc7f367221422e1e133b9e,,,,,,,decisionTrl,resources/DP.BMP,resources/DBN.BMP,WildCard_Ex,-0.175925869,-0.024074088,1,0,0,0.5614,optionLeft,5,10390,5,17,0,17,0,1,,,,,,,,,,,,,,,,,,,,,,,,,,,,,,,,,,,,,,,
,,,,,,,,2023-08-16_08h48.29.804,HF_wild_card,2022.2.4,Win32,59.85156811,5ed2bdf295ed8f251d614b21,64d2fd46c836a06233681665,64dc7f367221422e1e133b9e,,,,,,,decisionTrl,resources/DR.BMP,resources/DB.BMP,Door4,-0.260185157,-0.062037065,1,0,0,0.8276,optionLeft,60,10450,5,18,0,18,0,1,,,,,,,,,,,,,,,,,,,,,,,,,,,,,,,,,,,,,,,
,,,,,,,,2023-08-16_08h48.29.804,HF_wild_card,2022.2.4,Win32,59.85156811,5ed2bdf295ed8f251d614b21,64d2fd46c836a06233681665,64dc7f367221422e1e133b9e,,,,,,,decisionTrl,resources/DY.BMP,resources/DP.BMP,WildCard_Ex,0.137037065,-0.026851866,1,0,0,0.5269,optionRight,5,10455,5,19,0,19,0,1,,,,,,,,,,,,,,,,,,,,,,,,,,,,,,,,,,,,,,,
,,,,,,,,2023-08-16_08h48.29.804,HF_wild_card,2022.2.4,Win32,59.85156811,5ed2bdf295ed8f251d614b21,64d2fd46c836a06233681665,64dc7f367221422e1e133b9e,,,,,,,sngl,resources/DP.BMP,resources/Empty.png,WildCard_Ex,-0.198148134,-0.034259288,1,0,0,0.6107,optionLeft,95,10550,5,20,0,20,0,1,,,,,,,,,,,,,,,,,,,,,,,,,,,,,,,,,,,,,,,
,,,,,,,,2023-08-16_08h48.29.804,HF_wild_card,2022.2.4,Win32,59.85156811,5ed2bdf295ed8f251d614b21,64d2fd46c836a06233681665,64dc7f367221422e1e133b9e,,,,,,,decisionTrl,resources/DBN.BMP,resources/DY.BMP,Door1,0.212963019,-0.004629644,1,0,0,0.7109,optionRight,30,10580,5,21,0,21,0,1,,,,,,,,,,,,,,,,,,,,,,,,,,,,,,,,,,,,,,,
,,,,,,,,2023-08-16_08h48.29.804,HF_wild_card,2022.2.4,Win32,59.85156811,5ed2bdf295ed8f251d614b21,64d2fd46c836a06233681665,64dc7f367221422e1e133b9e,,,,,,,sngl,resources/DB.BMP,resources/Empty.png,Door3,-0.208333333,-0.05,1,0,0,0.594,optionLeft,70,10650,5,22,0,22,0,1,,,,,,,,,,,,,,,,,,,,,,,,,,,,,,,,,,,,,,,
,,,,,,,,2023-08-16_08h48.29.804,HF_wild_card,2022.2.4,Win32,59.85156811,5ed2bdf295ed8f251d614b21,64d2fd46c836a06233681665,64dc7f367221422e1e133b9e,,,,,,,decisionTrl,resources/DB.BMP,resources/DR.BMP,Door4,0.187037065,0.001851824,1,0,0,0.7106,optionRight,60,10710,5,23,0,23,0,1,,,,,,,,,,,,,,,,,,,,,,,,,,,,,,,,,,,,,,,
,,,,,,,,2023-08-16_08h48.29.804,HF_wild_card,2022.2.4,Win32,59.85156811,5ed2bdf295ed8f251d614b21,64d2fd46c836a06233681665,64dc7f367221422e1e133b9e,,,,,,,sngl,resources/DY.BMP,resources/Empty.png,Door1,-0.173148092,-0.026851866,1,0,0,0.6265,optionLeft,30,10740,5,24,0,24,0,1,,,,,,,,,,,,,,,,,,,,,,,,,,,,,,,,,,,,,,,
,,,,,,,,2023-08-16_08h48.29.804,HF_wild_card,2022.2.4,Win32,59.85156811,5ed2bdf295ed8f251d614b21,64d2fd46c836a06233681665,64dc7f367221422e1e133b9e,,,,,,,decisionTrl,resources/DBN.BMP,resources/DY.BMP,Door1,0.139814843,-0.032407422,1,0,0,0.8431,optionRight,30,10770,5,25,0,25,0,1,,,,,,,,,,,,,,,,,,,,,,,,,,,,,,,,,,,,,,,
,,,,,,,,2023-08-16_08h48.29.804,HF_wild_card,2022.2.4,Win32,59.85156811,5ed2bdf295ed8f251d614b21,64d2fd46c836a06233681665,64dc7f367221422e1e133b9e,,,,,,,sngl,resources/Empty.png,resources/DP.BMP,WildCard_Ex,0.086111111,0.001851824,1,0,0,0.6768,optionRight,5,10775,5,26,0,26,0,1,,,,,,,,,,,,,,,,,,,,,,,,,,,,,,,,,,,,,,,
,,,,,,,,2023-08-16_08h48.29.804,HF_wild_card,2022.2.4,Win32,59.85156811,5ed2bdf295ed8f251d614b21,64d2fd46c836a06233681665,64dc7f367221422e1e133b9e,,,,,,,decisionTrl,resources/DP.BMP,resources/DB.BMP,WildCard_Ex,-0.136111111,0.012037023,1,0,0,4.8121,optionLeft,95,10870,5,27,0,27,0,1,,,,,,,,,,,,,,,,,,,,,,,,,,,,,,,,,,,,,,,
,,,,,,,,2023-08-16_08h48.29.804,HF_wild_card,2022.2.4,Win32,59.85156811,5ed2bdf295ed8f251d614b21,64d2fd46c836a06233681665,64dc7f367221422e1e133b9e,,,,,,,sngl,resources/DP.BMP,resources/Empty.png,WildCard_Ex,-0.233333333,-0.072222222,1,0,0,0.6597,optionLeft,5,10875,5,28,0,28,0,1,,,,,,,,,,,,,,,,,,,,,,,,,,,,,,,,,,,,,,,
,,,,,,,,2023-08-16_08h48.29.804,HF_wild_card,2022.2.4,Win32,59.85156811,5ed2bdf295ed8f251d614b21,64d2fd46c836a06233681665,64dc7f367221422e1e133b9e,,,,,,,decisionTrl,resources/DB.BMP,resources/DR.BMP,Door4,0.143518575,-0.008333333,1,0,0,0.6773,optionRight,60,10935,5,29,0,29,0,1,,,,,,,,,,,,,,,,,,,,,,,,,,,,,,,,,,,,,,,
,,,,,,,,2023-08-16_08h48.29.804,HF_wild_card,2022.2.4,Win32,59.85156811,5ed2bdf295ed8f251d614b21,64d2fd46c836a06233681665,64dc7f367221422e1e133b9e,,,,,,,ctch,resources/DBN.BMP,resources/DB.BMP,Door3,0.25,0.037962935,1,0,0,1.2948,optionRight,70,11005,5,30,0,30,0,1,,,,,,,,,,,,,,,,,,,,,,,,,,,,,,,,,,,,,,,
,,,,,,,,2023-08-16_08h48.29.804,HF_wild_card,2022.2.4,Win32,59.85156811,5ed2bdf295ed8f251d614b21,64d2fd46c836a06233681665,64dc7f367221422e1e133b9e,,,,,,,decisionTrl,resources/DBN.BMP,resources/DY.BMP,Door1,0.212037065,-0.00648151,1,0,0,0.6276,optionRight,30,11035,5,31,0,31,0,1,,,,,,,,,,,,,,,,,,,,,,,,,,,,,,,,,,,,,,,
,,,,,,,,2023-08-16_08h48.29.804,HF_wild_card,2022.2.4,Win32,59.85156811,5ed2bdf295ed8f251d614b21,64d2fd46c836a06233681665,64dc7f367221422e1e133b9e,,,,,,,ctch,resources/DBN.BMP,resources/DB.BMP,Door3,0.313888889,-0.009259288,1,0,0,0.811,optionRight,70,11105,5,32,0,32,0,1,,,,,,,,,,,,,,,,,,,,,,,,,,,,,,,,,,,,,,,
,,,,,,,,2023-08-16_08h48.29.804,HF_wild_card,2022.2.4,Win32,59.85156811,5ed2bdf295ed8f251d614b21,64d2fd46c836a06233681665,64dc7f367221422e1e133b9e,,,,,,,sngl,resources/DBN.BMP,resources/Empty.png,Door2,-0.166666667,-0.027777778,1,0,0,0.6113,optionLeft,40,11145,5,33,0,33,0,1,,,,,,,,,,,,,,,,,,,,,,,,,,,,,,,,,,,,,,,
,,,,,,,,2023-08-16_08h48.29.804,HF_wild_card,2022.2.4,Win32,59.85156811,5ed2bdf295ed8f251d614b21,64d2fd46c836a06233681665,64dc7f367221422e1e133b9e,,,,,,,sngl,resources/Empty.png,resources/DY.BMP,Door1,0.203703732,-0.000925954,1,0,0,0.5445,optionRight,30,11175,5,34,0,34,0,1,,,,,,,,,,,,,,,,,,,,,,,,,,,,,,,,,,,,,,,
,,,,,,,,2023-08-16_08h48.29.804,HF_wild_card,2022.2.4,Win32,59.85156811,5ed2bdf295ed8f251d614b21,64d2fd46c836a06233681665,64dc7f367221422e1e133b9e,,,,,,,decisionTrl,resources/DY.BMP,resources/DBN.BMP,Door2,0.208333333,0.013888889,1,0,0,0.5282,optionRight,20,11195,5,35,0,35,0,1,,,,,,,,,,,,,,,,,,,,,,,,,,,,,,,,,,,,,,,
,,,,,,,,2023-08-16_08h48.29.804,HF_wild_card,2022.2.4,Win32,59.85156811,5ed2bdf295ed8f251d614b21,64d2fd46c836a06233681665,64dc7f367221422e1e133b9e,,,,,,,sngl,resources/DR.BMP,resources/Empty.png,Door4,-0.196296268,-0.028703732,1,0,0,0.5606,optionLeft,80,11275,5,36,0,36,0,1,,,,,,,,,,,,,,,,,,,,,,,,,,,,,,,,,,,,,,,
,,,,,,,,2023-08-16_08h48.29.804,HF_wild_card,2022.2.4,Win32,59.85156811,5ed2bdf295ed8f251d614b21,64d2fd46c836a06233681665,64dc7f367221422e1e133b9e,,,,,,,sngl,resources/Empty.png,resources/DR.BMP,Door4,0.219444444,-0.017592621,1,0,0,0.5774,optionRight,60,11335,5,37,0,37,0,1,,,,,,,,,,,,,,,,,,,,,,,,,,,,,,,,,,,,,,,
,,,,,,,,2023-08-16_08h48.29.804,HF_wild_card,2022.2.4,Win32,59.85156811,5ed2bdf295ed8f251d614b21,64d2fd46c836a06233681665,64dc7f367221422e1e133b9e,,,,,,,decisionTrl,resources/DR.BMP,resources/DB.BMP,Door4,-0.204629601,0.017592578,1,0,0,0.544,optionLeft,80,11415,5,38,0,38,0,1,,,,,,,,,,,,,,,,,,,,,,,,,,,,,,,,,,,,,,,
,,,,,,,,2023-08-16_08h48.29.804,HF_wild_card,2022.2.4,Win32,59.85156811,5ed2bdf295ed8f251d614b21,64d2fd46c836a06233681665,64dc7f367221422e1e133b9e,,,,,,,decisionTrl,resources/DY.BMP,resources/DBN.BMP,Door1,-0.258333333,-0.016666667,1,0,0,0.7772,optionLeft,30,11445,5,39,0,39,0,1,,,,,,,,,,,,,,,,,,,,,,,,,,,,,,,,,,,,,,,
,,,,,,,,2023-08-16_08h48.29.804,HF_wild_card,2022.2.4,Win32,59.85156811,5ed2bdf295ed8f251d614b21,64d2fd46c836a06233681665,64dc7f367221422e1e133b9e,,,,,,,ctch,resources/DR.BMP,resources/DY.BMP,Door1,0.191666667,0.009259245,1,0,0,0.5772,optionRight,30,11475,5,40,0,40,0,1,,,,,,,,,,,,,,,,,,,,,,,,,,,,,,,,,,,,,,,
,,,,,,,,2023-08-16_08h48.29.804,HF_wild_card,2022.2.4,Win32,59.85156811,5ed2bdf295ed8f251d614b21,64d2fd46c836a06233681665,64dc7f367221422e1e133b9e,,,,,,,decisionTrl,resources/DB.BMP,resources/DR.BMP,Door3,-0.153703647,-0.011111111,1,0,0,0.5776,optionLeft,70,11545,5,41,0,41,0,1,,,,,,,,,,,,,,,,,,,,,,,,,,,,,,,,,,,,,,,
,,,,,,,,2023-08-16_08h48.29.804,HF_wild_card,2022.2.4,Win32,59.85156811,5ed2bdf295ed8f251d614b21,64d2fd46c836a06233681665,64dc7f367221422e1e133b9e,,,,,,,decisionTrl,resources/DR.BMP,resources/DP.BMP,WildCard_Ex,0.153703732,0.000925912,1,0,0,0.5111,optionRight,95,11640,5,42,0,42,0,1,,,,,,,,,,,,,,,,,,,,,,,,,,,,,,,,,,,,,,,
,,,,,,,,2023-08-16_08h48.29.804,HF_wild_card,2022.2.4,Win32,59.85156811,5ed2bdf295ed8f251d614b21,64d2fd46c836a06233681665,64dc7f367221422e1e133b9e,,,,,,,ctch,resources/DY.BMP,resources/DR.BMP,Door4,-0.071296268,-0.005555556,1,0,0,0.7104,optionRight,60,11700,5,43,0,43,0,1,,,,,,,,,,,,,,,,,,,,,,,,,,,,,,,,,,,,,,,
,,,,,,,,2023-08-16_08h48.29.804,HF_wild_card,2022.2.4,Win32,59.85156811,5ed2bdf295ed8f251d614b21,64d2fd46c836a06233681665,64dc7f367221422e1e133b9e,,,,,,,,,,,,,,,,,,,,,,,,,,4,0,4,0,1,,,,,,,,,,,,,,,,,,,,,,,,,,,,,,,,,,
,,,,,,,,2023-08-16_08h48.29.804,HF_wild_card,2022.2.4,Win32,59.85156811,5ed2bdf295ed8f251d614b21,64d2fd46c836a06233681665,64dc7f367221422e1e133b9e,,,,,,,sngl,resources/DP.BMP,resources/Empty.png,WildCard_Ex,-0.225925912,-0.027777778,1,0,0,0.5859,optionLeft,95,11795,6,0,0,0,0,1,,,,,,,,,,,,,,,,,,,,,,,,,,,,,,,,,,,,,,,
,,,,,,,,2023-08-16_08h48.29.804,HF_wild_card,2022.2.4,Win32,59.85156811,5ed2bdf295ed8f251d614b21,64d2fd46c836a06233681665,64dc7f367221422e1e133b9e,,,,,,,sngl,resources/DBN.BMP,resources/Empty.png,Door2,-0.190740712,-0.019444444,1,0,0,0.5944,optionLeft,20,11815,6,1,0,1,0,1,,,,,,,,,,,,,,,,,,,,,,,,,,,,,,,,,,,,,,,
,,,,,,,,2023-08-16_08h48.29.804,HF_wild_card,2022.2.4,Win32,59.85156811,5ed2bdf295ed8f251d614b21,64d2fd46c836a06233681665,64dc7f367221422e1e133b9e,,,,,,,decisionTrl,resources/DP.BMP,resources/DR.BMP,Door4,0.160185242,-0.009259288,1,0,0,0.7777,optionRight,60,11875,6,2,0,2,0,1,,,,,,,,,,,,,,,,,,,,,,,,,,,,,,,,,,,,,,,
,,,,,,,,2023-08-16_08h48.29.804,HF_wild_card,2022.2.4,Win32,59.85156811,5ed2bdf295ed8f251d614b21,64d2fd46c836a06233681665,64dc7f367221422e1e133b9e,,,,,,,decisionTrl,resources/DBN.BMP,resources/DY.BMP,Door2,-0.202777778,-0.05,1,0,0,0.7599,optionLeft,40,11915,6,3,0,3,0,1,,,,,,,,,,,,,,,,,,,,,,,,,,,,,,,,,,,,,,,
,,,,,,,,2023-08-16_08h48.29.804,HF_wild_card,2022.2.4,Win32,59.85156811,5ed2bdf295ed8f251d614b21,64d2fd46c836a06233681665,64dc7f367221422e1e133b9e,,,,,,,decisionTrl,resources/DY.BMP,resources/DBN.BMP,Door2,0.125,-0.007407422,1,0,0,0.6944,optionRight,20,11935,6,4,0,4,0,1,,,,,,,,,,,,,,,,,,,,,,,,,,,,,,,,,,,,,,,
,,,,,,,,2023-08-16_08h48.29.804,HF_wild_card,2022.2.4,Win32,59.85156811,5ed2bdf295ed8f251d614b21,64d2fd46c836a06233681665,64dc7f367221422e1e133b9e,,,,,,,sngl,resources/DB.BMP,resources/Empty.png,Door3,-0.197222222,-0.023148176,1,0,0,0.6116,optionLeft,70,12005,6,5,0,5,0,1,,,,,,,,,,,,,,,,,,,,,,,,,,,,,,,,,,,,,,,
,,,,,,,,2023-08-16_08h48.29.804,HF_wild_card,2022.2.4,Win32,59.85156811,5ed2bdf295ed8f251d614b21,64d2fd46c836a06233681665,64dc7f367221422e1e133b9e,,,,,,,decisionTrl,resources/DR.BMP,resources/DB.BMP,Door4,-0.282407379,0.023148134,1,0,0,0.5942,optionLeft,80,12085,6,6,0,6,0,1,,,,,,,,,,,,,,,,,,,,,,,,,,,,,,,,,,,,,,,
,,,,,,,,2023-08-16_08h48.29.804,HF_wild_card,2022.2.4,Win32,59.85156811,5ed2bdf295ed8f251d614b21,64d2fd46c836a06233681665,64dc7f367221422e1e133b9e,,,,,,,sngl,resources/DP.BMP,resources/Empty.png,WildCard_Ex,-0.179629601,-0.011111111,1,0,0,0.5611,optionLeft,5,12090,6,7,0,7,0,1,,,,,,,,,,,,,,,,,,,,,,,,,,,,,,,,,,,,,,,
,,,,,,,,2023-08-16_08h48.29.804,HF_wild_card,2022.2.4,Win32,59.85156811,5ed2bdf295ed8f251d614b21,64d2fd46c836a06233681665,64dc7f367221422e1e133b9e,,,,,,,decisionTrl,resources/DY.BMP,resources/DBN.BMP,Door1,-0.2,0.001851824,1,0,0,0.6926,optionLeft,30,12120,6,8,0,8,0,1,,,,,,,,,,,,,,,,,,,,,,,,,,,,,,,,,,,,,,,
,,,,,,,,2023-08-16_08h48.29.804,HF_wild_card,2022.2.4,Win32,59.85156811,5ed2bdf295ed8f251d614b21,64d2fd46c836a06233681665,64dc7f367221422e1e133b9e,,,,,,,ctch,resources/DY.BMP,resources/DR.BMP,Door4,0.171296353,0.000925912,1,0,0,0.9106,optionRight,80,12200,6,9,0,9,0,1,,,,,,,,,,,,,,,,,,,,,,,,,,,,,,,,,,,,,,,
,,,,,,,,2023-08-16_08h48.29.804,HF_wild_card,2022.2.4,Win32,59.85156811,5ed2bdf295ed8f251d614b21,64d2fd46c836a06233681665,64dc7f367221422e1e133b9e,,,,,,,ctch,resources/DR.BMP,resources/DY.BMP,Door4,-0.190740712,-0.013888889,1,0,0,0.7441,optionLeft,80,12280,6,10,0,10,0,1,,,,,,,,,,,,,,,,,,,,,,,,,,,,,,,,,,,,,,,
,,,,,,,,2023-08-16_08h48.29.804,HF_wild_card,2022.2.4,Win32,59.85156811,5ed2bdf295ed8f251d614b21,64d2fd46c836a06233681665,64dc7f367221422e1e133b9e,,,,,,,ctch,resources/DB.BMP,resources/DBN.BMP,Door3,-0.095370314,-0.001851866,1,0,0,0.5929,optionLeft,70,12350,6,11,0,11,0,1,,,,,,,,,,,,,,,,,,,,,,,,,,,,,,,,,,,,,,,
,,,,,,,,2023-08-16_08h48.29.804,HF_wild_card,2022.2.4,Win32,59.85156811,5ed2bdf295ed8f251d614b21,64d2fd46c836a06233681665,64dc7f367221422e1e133b9e,,,,,,,sngl,resources/DR.BMP,resources/Empty.png,Door4,-0.09351849,-0.018518533,1,0,0,0.7433,optionLeft,60,12410,6,12,0,12,0,1,,,,,,,,,,,,,,,,,,,,,,,,,,,,,,,,,,,,,,,
,,,,,,,,2023-08-16_08h48.29.804,HF_wild_card,2022.2.4,Win32,59.85156811,5ed2bdf295ed8f251d614b21,64d2fd46c836a06233681665,64dc7f367221422e1e133b9e,,,,,,,ctch,resources/DY.BMP,resources/DR.BMP,Door4,0.252777778,0.00370369,1,0,0,0.6779,optionRight,60,12470,6,13,0,13,0,1,,,,,,,,,,,,,,,,,,,,,,,,,,,,,,,,,,,,,,,
,,,,,,,,2023-08-16_08h48.29.804,HF_wild_card,2022.2.4,Win32,59.85156811,5ed2bdf295ed8f251d614b21,64d2fd46c836a06233681665,64dc7f367221422e1e133b9e,,,,,,,decisionTrl,resources/DP.BMP,resources/DBN.BMP,WildCard_Ex,-0.170370314,-0.016666667,1,0,0,0.5441,optionLeft,95,12565,6,14,0,14,0,1,,,,,,,,,,,,,,,,,,,,,,,,,,,,,,,,,,,,,,,
,,,,,,,,2023-08-16_08h48.29.804,HF_wild_card,2022.2.4,Win32,59.85156811,5ed2bdf295ed8f251d614b21,64d2fd46c836a06233681665,64dc7f367221422e1e133b9e,,,,,,,decisionTrl,resources/DB.BMP,resources/DR.BMP,Door4,0.15,-0.012037065,1,0,0,0.6771,optionRight,60,12625,6,15,0,15,0,1,,,,,,,,,,,,,,,,,,,,,,,,,,,,,,,,,,,,,,,
,,,,,,,,2023-08-16_08h48.29.804,HF_wild_card,2022.2.4,Win32,59.85156811,5ed2bdf295ed8f251d614b21,64d2fd46c836a06233681665,64dc7f367221422e1e133b9e,,,,,,,sngl,resources/Empty.png,resources/DP.BMP,WildCard_Ex,0.462963019,-0.015740755,1,0,0,8.6955,optionRight,5,12630,6,16,0,16,0,1,,,,,,,,,,,,,,,,,,,,,,,,,,,,,,,,,,,,,,,
,,,,,,,,2023-08-16_08h48.29.804,HF_wild_card,2022.2.4,Win32,59.85156811,5ed2bdf295ed8f251d614b21,64d2fd46c836a06233681665,64dc7f367221422e1e133b9e,,,,,,,sngl,resources/Empty.png,resources/DR.BMP,Door4,0.193518575,0.011111111,1,0,0,0.6448,optionRight,80,12710,6,17,0,17,0,1,,,,,,,,,,,,,,,,,,,,,,,,,,,,,,,,,,,,,,,
,,,,,,,,2023-08-16_08h48.29.804,HF_wild_card,2022.2.4,Win32,59.85156811,5ed2bdf295ed8f251d614b21,64d2fd46c836a06233681665,64dc7f367221422e1e133b9e,,,,,,,decisionTrl,resources/DR.BMP,resources/DB.BMP,Door4,-0.287962935,-0.065740755,1,0,0,0.6264,optionLeft,80,12790,6,18,0,18,0,1,,,,,,,,,,,,,,,,,,,,,,,,,,,,,,,,,,,,,,,
,,,,,,,,2023-08-16_08h48.29.804,HF_wild_card,2022.2.4,Win32,59.85156811,5ed2bdf295ed8f251d614b21,64d2fd46c836a06233681665,64dc7f367221422e1e133b9e,,,,,,,decisionTrl,resources/DB.BMP,resources/DP.BMP,WildCard_Ex,0.203703732,0.025,1,0,0,0.5774,optionRight,95,12885,6,19,0,19,0,1,,,,,,,,,,,,,,,,,,,,,,,,,,,,,,,,,,,,,,,
,,,,,,,,2023-08-16_08h48.29.804,HF_wild_card,2022.2.4,Win32,59.85156811,5ed2bdf295ed8f251d614b21,64d2fd46c836a06233681665,64dc7f367221422e1e133b9e,,,,,,,decisionTrl,resources/DR.BMP,resources/DB.BMP,Door4,-0.207407379,-0.03148151,1,0,0,0.7781,optionLeft,80,12965,6,20,0,20,0,1,,,,,,,,,,,,,,,,,,,,,,,,,,,,,,,,,,,,,,,
,,,,,,,,2023-08-16_08h48.29.804,HF_wild_card,2022.2.4,Win32,59.85156811,5ed2bdf295ed8f251d614b21,64d2fd46c836a06233681665,64dc7f367221422e1e133b9e,,,,,,,decisionTrl,resources/DY.BMP,resources/DP.BMP,WildCard_Ex,0.132407464,0.005555556,1,0,0,0.5937,optionRight,5,12970,6,21,0,21,0,1,,,,,,,,,,,,,,,,,,,,,,,,,,,,,,,,,,,,,,,
,,,,,,,,2023-08-16_08h48.29.804,HF_wild_card,2022.2.4,Win32,59.85156811,5ed2bdf295ed8f251d614b21,64d2fd46c836a06233681665,64dc7f367221422e1e133b9e,,,,,,,decisionTrl,resources/DY.BMP,resources/DBN.BMP,Door1,-0.187962935,-0.05648151,1,0,0,0.6107,optionLeft,30,13000,6,22,0,22,0,1,,,,,,,,,,,,,,,,,,,,,,,,,,,,,,,,,,,,,,,
,,,,,,,,2023-08-16_08h48.29.804,HF_wild_card,2022.2.4,Win32,59.85156811,5ed2bdf295ed8f251d614b21,64d2fd46c836a06233681665,64dc7f367221422e1e133b9e,,,,,,,decisionTrl,resources/DB.BMP,resources/DR.BMP,Door4,0.223148176,0.046296268,1,0,0,0.977,optionRight,80,13080,6,23,0,23,0,1,,,,,,,,,,,,,,,,,,,,,,,,,,,,,,,,,,,,,,,
,,,,,,,,2023-08-16_08h48.29.804,HF_wild_card,2022.2.4,Win32,59.85156811,5ed2bdf295ed8f251d614b21,64d2fd46c836a06233681665,64dc7f367221422e1e133b9e,,,,,,,ctch,resources/DR.BMP,resources/DY.BMP,Door4,-0.191666667,-0.053703732,1,0,0,0.5944,optionLeft,80,13160,6,24,0,24,0,1,,,,,,,,,,,,,,,,,,,,,,,,,,,,,,,,,,,,,,,
,,,,,,,,2023-08-16_08h48.29.804,HF_wild_card,2022.2.4,Win32,59.85156811,5ed2bdf295ed8f251d614b21,64d2fd46c836a06233681665,64dc7f367221422e1e133b9e,,,,,,,sngl,resources/Empty.png,resources/DBN.BMP,Door2,0.168518575,-0.011111111,1,0,0,0.9276,optionRight,40,13200,6,25,0,25,0,1,,,,,,,,,,,,,,,,,,,,,,,,,,,,,,,,,,,,,,,
,,,,,,,,2023-08-16_08h48.29.804,HF_wild_card,2022.2.4,Win32,59.85156811,5ed2bdf295ed8f251d614b21,64d2fd46c836a06233681665,64dc7f367221422e1e133b9e,,,,,,,decisionTrl,resources/DBN.BMP,resources/DY.BMP,Door1,0.165740797,0.027777778,1,0,0,0.6229,optionRight,30,13230,6,26,0,26,0,1,,,,,,,,,,,,,,,,,,,,,,,,,,,,,,,,,,,,,,,
,,,,,,,,2023-08-16_08h48.29.804,HF_wild_card,2022.2.4,Win32,59.85156811,5ed2bdf295ed8f251d614b21,64d2fd46c836a06233681665,64dc7f367221422e1e133b9e,,,,,,,decisionTrl,resources/DR.BMP,resources/DP.BMP,WildCard_Ex,0.203703732,0.010185157,1,0,0,0.7102,optionRight,5,13235,6,27,0,27,0,1,,,,,,,,,,,,,,,,,,,,,,,,,,,,,,,,,,,,,,,
,,,,,,,,2023-08-16_08h48.29.804,HF_wild_card,2022.2.4,Win32,59.85156811,5ed2bdf295ed8f251d614b21,64d2fd46c836a06233681665,64dc7f367221422e1e133b9e,,,,,,,decisionTrl,resources/DP.BMP,resources/DB.BMP,WildCard_Ex,-0.248148134,-0.00648151,1,0,0,0.6276,optionLeft,95,13330,6,28,0,28,0,1,,,,,,,,,,,,,,,,,,,,,,,,,,,,,,,,,,,,,,,
,,,,,,,,2023-08-16_08h48.29.804,HF_wild_card,2022.2.4,Win32,59.85156811,5ed2bdf295ed8f251d614b21,64d2fd46c836a06233681665,64dc7f367221422e1e133b9e,,,,,,,decisionTrl,resources/DBN.BMP,resources/DY.BMP,Door1,0.207407464,0.040740712,1,0,0,0.7282,optionRight,30,13360,6,29,0,29,0,1,,,,,,,,,,,,,,,,,,,,,,,,,,,,,,,,,,,,,,,
,,,,,,,,2023-08-16_08h48.29.804,HF_wild_card,2022.2.4,Win32,59.85156811,5ed2bdf295ed8f251d614b21,64d2fd46c836a06233681665,64dc7f367221422e1e133b9e,,,,,,,ctch,resources/DBN.BMP,resources/DB.BMP,Door3,0.2,0.014814801,1,0,0,0.5758,optionRight,70,13430,6,30,0,30,0,1,,,,,,,,,,,,,,,,,,,,,,,,,,,,,,,,,,,,,,,
,,,,,,,,2023-08-16_08h48.29.804,HF_wild_card,2022.2.4,Win32,59.85156811,5ed2bdf295ed8f251d614b21,64d2fd46c836a06233681665,64dc7f367221422e1e133b9e,,,,,,,decisionTrl,resources/DB.BMP,resources/DR.BMP,Door4,0.202777778,0.022222222,1,0,0,0.761,optionRight,60,13490,6,31,0,31,0,1,,,,,,,,,,,,,,,,,,,,,,,,,,,,,,,,,,,,,,,
,,,,,,,,2023-08-16_08h48.29.804,HF_wild_card,2022.2.4,Win32,59.85156811,5ed2bdf295ed8f251d614b21,64d2fd46c836a06233681665,64dc7f367221422e1e133b9e,,,,,,,sngl,resources/DY.BMP,resources/Empty.png,Door1,-0.214814801,-0.063888889,1,0,0,0.5439,optionLeft,30,13520,6,32,0,32,0,1,,,,,,,,,,,,,,,,,,,,,,,,,,,,,,,,,,,,,,,
,,,,,,,,2023-08-16_08h48.29.804,HF_wild_card,2022.2.4,Win32,59.85156811,5ed2bdf295ed8f251d614b21,64d2fd46c836a06233681665,64dc7f367221422e1e133b9e,,,,,,,decisionTrl,resources/DY.BMP,resources/DBN.BMP,Door1,-0.327777778,-0.024074088,1,0,0,0.7775,optionLeft,30,13550,6,33,0,33,0,1,,,,,,,,,,,,,,,,,,,,,,,,,,,,,,,,,,,,,,,
,,,,,,,,2023-08-16_08h48.29.804,HF_wild_card,2022.2.4,Win32,59.85156811,5ed2bdf295ed8f251d614b21,64d2fd46c836a06233681665,64dc7f367221422e1e133b9e,,,,,,,ctch,resources/DBN.BMP,resources/DB.BMP,Door3,0.210185242,-0.000925954,1,0,0,0.6612,optionRight,70,13620,6,34,0,34,0,1,,,,,,,,,,,,,,,,,,,,,,,,,,,,,,,,,,,,,,,
,,,,,,,,2023-08-16_08h48.29.804,HF_wild_card,2022.2.4,Win32,59.85156811,5ed2bdf295ed8f251d614b21,64d2fd46c836a06233681665,64dc7f367221422e1e133b9e,,,,,,,decisionTrl,resources/DR.BMP,resources/DB.BMP,Door4,-0.181481467,-0.029629644,1,0,0,0.7113,optionLeft,60,13680,6,35,0,35,0,1,,,,,,,,,,,,,,,,,,,,,,,,,,,,,,,,,,,,,,,
,,,,,,,,2023-08-16_08h48.29.804,HF_wild_card,2022.2.4,Win32,59.85156811,5ed2bdf295ed8f251d614b21,64d2fd46c836a06233681665,64dc7f367221422e1e133b9e,,,,,,,sngl,resources/Empty.png,resources/DB.BMP,Door3,0.115740797,0.012037023,1,0,0,0.8106,optionRight,70,13750,6,36,0,36,0,1,,,,,,,,,,,,,,,,,,,,,,,,,,,,,,,,,,,,,,,
,,,,,,,,2023-08-16_08h48.29.804,HF_wild_card,2022.2.4,Win32,59.85156811,5ed2bdf295ed8f251d614b21,64d2fd46c836a06233681665,64dc7f367221422e1e133b9e,,,,,,,decisionTrl,resources/DBN.BMP,resources/DP.BMP,WildCard_Ex,0.160185242,0.005555556,1,0,0,0.728,optionRight,95,13845,6,37,0,37,0,1,,,,,,,,,,,,,,,,,,,,,,,,,,,,,,,,,,,,,,,
,,,,,,,,2023-08-16_08h48.29.804,HF_wild_card,2022.2.4,Win32,59.85156811,5ed2bdf295ed8f251d614b21,64d2fd46c836a06233681665,64dc7f367221422e1e133b9e,,,,,,,decisionTrl,resources/DB.BMP,resources/DR.BMP,Door4,0.171296353,-0.001851866,1,0,0,1.0439,optionRight,80,13925,6,38,0,38,0,1,,,,,,,,,,,,,,,,,,,,,,,,,,,,,,,,,,,,,,,
,,,,,,,,2023-08-16_08h48.29.804,HF_wild_card,2022.2.4,Win32,59.85156811,5ed2bdf295ed8f251d614b21,64d2fd46c836a06233681665,64dc7f367221422e1e133b9e,,,,,,,sngl,resources/Empty.png,resources/DP.BMP,WildCard_Ex,0.174074131,0.008333333,1,0,0,0.6455,optionRight,95,14020,6,39,0,39,0,1,,,,,,,,,,,,,,,,,,,,,,,,,,,,,,,,,,,,,,,
,,,,,,,,2023-08-16_08h48.29.804,HF_wild_card,2022.2.4,Win32,59.85156811,5ed2bdf295ed8f251d614b21,64d2fd46c836a06233681665,64dc7f367221422e1e133b9e,,,,,,,sngl,resources/Empty.png,resources/DY.BMP,Door1,0.187037065,-0.012037065,1,0,0,0.6937,optionRight,30,14050,6,40,0,40,0,1,,,,,,,,,,,,,,,,,,,,,,,,,,,,,,,,,,,,,,,
,,,,,,,,2023-08-16_08h48.29.804,HF_wild_card,2022.2.4,Win32,59.85156811,5ed2bdf295ed8f251d614b21,64d2fd46c836a06233681665,64dc7f367221422e1e133b9e,,,,,,,decisionTrl,resources/DP.BMP,resources/DY.BMP,WildCard_Ex,-0.259259245,-0.025925954,1,0,0,0.6611,optionLeft,5,14055,6,41,0,41,0,1,,,,,,,,,,,,,,,,,,,,,,,,,,,,,,,,,,,,,,,
,,,,,,,,2023-08-16_08h48.29.804,HF_wild_card,2022.2.4,Win32,59.85156811,5ed2bdf295ed8f251d614b21,64d2fd46c836a06233681665,64dc7f367221422e1e133b9e,,,,,,,ctch,resources/DB.BMP,resources/DBN.BMP,Door3,-0.17870369,-0.034259288,1,0,0,0.7617,optionLeft,70,14125,6,42,0,42,0,1,,,,,,,,,,,,,,,,,,,,,,,,,,,,,,,,,,,,,,,
,,,,,,,,2023-08-16_08h48.29.804,HF_wild_card,2022.2.4,Win32,59.85156811,5ed2bdf295ed8f251d614b21,64d2fd46c836a06233681665,64dc7f367221422e1e133b9e,,,,,,,decisionTrl,resources/DBN.BMP,resources/DY.BMP,Door1,0.15,-0.015740755,1,0,0,0.6947,optionRight,30,14155,6,43,0,43,0,1,,,,,,,,,,,,,,,,,,,,,,,,,,,,,,,,,,,,,,,
,,,,,,,,2023-08-16_08h48.29.804,HF_wild_card,2022.2.4,Win32,59.85156811,5ed2bdf295ed8f251d614b21,64d2fd46c836a06233681665,64dc7f367221422e1e133b9e,,,,,,,,,,,,,,,,,,,,,,,,,,5,0,5,0,1,,,,,,,,,,,,,,,,,,,,,,,,,,,,,,,,,,
,,,,,,,,2023-08-16_08h48.29.804,HF_wild_card,2022.2.4,Win32,59.85156811,5ed2bdf295ed8f251d614b21,64d2fd46c836a06233681665,64dc7f367221422e1e133b9e,,,,,,,decisionTrl,resources/DY.BMP,resources/DBN.BMP,Door1,-0.182407379,-0.026851866,1,0,0,0.6777,optionLeft,30,14185,7,0,0,0,0,1,,,,,,,,,,,,,,,,,,,,,,,,,,,,,,,,,,,,,,,
,,,,,,,,2023-08-16_08h48.29.804,HF_wild_card,2022.2.4,Win32,59.85156811,5ed2bdf295ed8f251d614b21,64d2fd46c836a06233681665,64dc7f367221422e1e133b9e,,,,,,,decisionTrl,resources/DB.BMP,resources/DR.BMP,Door4,0.253703732,0.025,1,0,0,0.7799,optionRight,60,14245,7,1,0,1,0,1,,,,,,,,,,,,,,,,,,,,,,,,,,,,,,,,,,,,,,,
,,,,,,,,2023-08-16_08h48.29.804,HF_wild_card,2022.2.4,Win32,59.85156811,5ed2bdf295ed8f251d614b21,64d2fd46c836a06233681665,64dc7f367221422e1e133b9e,,,,,,,decisionTrl,resources/DBN.BMP,resources/DY.BMP,Door1,0.269444444,0.022222222,1,0,0,0.6976,optionRight,30,14275,7,2,0,2,0,1,,,,,,,,,,,,,,,,,,,,,,,,,,,,,,,,,,,,,,,
,,,,,,,,2023-08-16_08h48.29.804,HF_wild_card,2022.2.4,Win32,59.85156811,5ed2bdf295ed8f251d614b21,64d2fd46c836a06233681665,64dc7f367221422e1e133b9e,,,,,,,ctch,resources/DY.BMP,resources/DR.BMP,Door4,0.268518575,0.054629601,1,0,0,0.6137,optionRight,80,14355,7,3,0,3,0,1,,,,,,,,,,,,,,,,,,,,,,,,,,,,,,,,,,,,,,,
,,,,,,,,2023-08-16_08h48.29.804,HF_wild_card,2022.2.4,Win32,59.85156811,5ed2bdf295ed8f251d614b21,64d2fd46c836a06233681665,64dc7f367221422e1e133b9e,,,,,,,ctch,resources/DBN.BMP,resources/DB.BMP,Door3,0.182407464,0.020370356,1,0,0,0.6325,optionRight,70,14425,7,4,0,4,0,1,,,,,,,,,,,,,,,,,,,,,,,,,,,,,,,,,,,,,,,
,,,,,,,,2023-08-16_08h48.29.804,HF_wild_card,2022.2.4,Win32,59.85156811,5ed2bdf295ed8f251d614b21,64d2fd46c836a06233681665,64dc7f367221422e1e133b9e,,,,,,,decisionTrl,resources/DBN.BMP,resources/DY.BMP,Door1,0.148148176,0.016666667,1,0,0,0.647,optionRight,30,14455,7,5,0,5,0,1,,,,,,,,,,,,,,,,,,,,,,,,,,,,,,,,,,,,,,,
,,,,,,,,2023-08-16_08h48.29.804,HF_wild_card,2022.2.4,Win32,59.85156811,5ed2bdf295ed8f251d614b21,64d2fd46c836a06233681665,64dc7f367221422e1e133b9e,,,,,,,decisionTrl,resources/DY.BMP,resources/DBN.BMP,Door2,0.270370399,0.009259245,1,0,0,0.7809,optionRight,40,14495,7,6,0,6,0,1,,,,,,,,,,,,,,,,,,,,,,,,,,,,,,,,,,,,,,,
,,,,,,,,2023-08-16_08h48.29.804,HF_wild_card,2022.2.4,Win32,59.85156811,5ed2bdf295ed8f251d614b21,64d2fd46c836a06233681665,64dc7f367221422e1e133b9e,,,,,,,decisionTrl,resources/DB.BMP,resources/DR.BMP,Door4,0.187037065,-0.003703732,1,0,0,0.6968,optionRight,60,14555,7,7,0,7,0,1,,,,,,,,,,,,,,,,,,,,,,,,,,,,,,,,,,,,,,,
,,,,,,,,2023-08-16_08h48.29.804,HF_wild_card,2022.2.4,Win32,59.85156811,5ed2bdf295ed8f251d614b21,64d2fd46c836a06233681665,64dc7f367221422e1e133b9e,,,,,,,decisionTrl,resources/DR.BMP,resources/DB.BMP,Door3,0.194444444,-0.002777778,1,0,0,0.7145,optionRight,70,14625,7,8,0,8,0,1,,,,,,,,,,,,,,,,,,,,,,,,,,,,,,,,,,,,,,,
,,,,,,,,2023-08-16_08h48.29.804,HF_wild_card,2022.2.4,Win32,59.85156811,5ed2bdf295ed8f251d614b21,64d2fd46c836a06233681665,64dc7f367221422e1e133b9e,,,,,,,ctch,resources/DR.BMP,resources/DY.BMP,Door4,-0.312962935,-0.120370399,1,0,0,0.6659,optionLeft,60,14685,7,9,0,9,0,1,,,,,,,,,,,,,,,,,,,,,,,,,,,,,,,,,,,,,,,
,,,,,,,,2023-08-16_08h48.29.804,HF_wild_card,2022.2.4,Win32,59.85156811,5ed2bdf295ed8f251d614b21,64d2fd46c836a06233681665,64dc7f367221422e1e133b9e,,,,,,,ctch,resources/DY.BMP,resources/DR.BMP,Door4,0.242592621,0.034259245,1,0,0,0.6646,optionRight,60,14745,7,10,0,10,0,1,,,,,,,,,,,,,,,,,,,,,,,,,,,,,,,,,,,,,,,
,,,,,,,,2023-08-16_08h48.29.804,HF_wild_card,2022.2.4,Win32,59.85156811,5ed2bdf295ed8f251d614b21,64d2fd46c836a06233681665,64dc7f367221422e1e133b9e,,,,,,,decisionTrl,resources/DB.BMP,resources/DR.BMP,Door4,0.319444444,0.014814801,1,0,0,0.8304,optionRight,60,14805,7,11,0,11,0,1,,,,,,,,,,,,,,,,,,,,,,,,,,,,,,,,,,,,,,,
,,,,,,,,2023-08-16_08h48.29.804,HF_wild_card,2022.2.4,Win32,59.85156811,5ed2bdf295ed8f251d614b21,64d2fd46c836a06233681665,64dc7f367221422e1e133b9e,,,,,,,decisionTrl,resources/DBN.BMP,resources/DY.BMP,Door1,0.212037065,0.016666667,1,0,0,0.6153,optionRight,30,14835,7,12,0,12,0,1,,,,,,,,,,,,,,,,,,,,,,,,,,,,,,,,,,,,,,,
,,,,,,,,2023-08-16_08h48.29.804,HF_wild_card,2022.2.4,Win32,59.85156811,5ed2bdf295ed8f251d614b21,64d2fd46c836a06233681665,64dc7f367221422e1e133b9e,,,,,,,ctch,resources/DB.BMP,resources/DBN.BMP,Door2,0.191666667,0,1,0,0,0.6481,optionRight,40,14875,7,13,0,13,0,1,,,,,,,,,,,,,,,,,,,,,,,,,,,,,,,,,,,,,,,
,,,,,,,,2023-08-16_08h48.29.804,HF_wild_card,2022.2.4,Win32,59.85156811,5ed2bdf295ed8f251d614b21,64d2fd46c836a06233681665,64dc7f367221422e1e133b9e,,,,,,,decisionTrl,resources/DR.BMP,resources/DB.BMP,Door3,0.178703732,-0.012037065,1,0,0,0.7308,optionRight,70,14945,7,14,0,14,0,1,,,,,,,,,,,,,,,,,,,,,,,,,,,,,,,,,,,,,,,
,,,,,,,,2023-08-16_08h48.29.804,HF_wild_card,2022.2.4,Win32,59.85156811,5ed2bdf295ed8f251d614b21,64d2fd46c836a06233681665,64dc7f367221422e1e133b9e,,,,,,,decisionTrl,resources/DR.BMP,resources/DB.BMP,Door4,-0.25370369,-0.090740755,1,0,0,0.6986,optionLeft,80,15025,7,15,0,15,0,1,,,,,,,,,,,,,,,,,,,,,,,,,,,,,,,,,,,,,,,
,,,,,,,,2023-08-16_08h48.29.804,HF_wild_card,2022.2.4,Win32,59.85156811,5ed2bdf295ed8f251d614b21,64d2fd46c836a06233681665,64dc7f367221422e1e133b9e,,,,,,,decisionTrl,resources/DB.BMP,resources/DR.BMP,Door4,0.149074131,-0.000925954,1,0,0,0.763,optionRight,80,15105,7,16,0,16,0,1,,,,,,,,,,,,,,,,,,,,,,,,,,,,,,,,,,,,,,,
,,,,,,,,2023-08-16_08h48.29.804,HF_wild_card,2022.2.4,Win32,59.85156811,5ed2bdf295ed8f251d614b21,64d2fd46c836a06233681665,64dc7f367221422e1e133b9e,,,,,,,decisionTrl,resources/DR.BMP,resources/DB.BMP,Door4,-0.333333333,-0.049074088,1,0,0,0.7983,optionLeft,60,15165,7,17,0,17,0,1,,,,,,,,,,,,,,,,,,,,,,,,,,,,,,,,,,,,,,,
,,,,,,,,2023-08-16_08h48.29.804,HF_wild_card,2022.2.4,Win32,59.85156811,5ed2bdf295ed8f251d614b21,64d2fd46c836a06233681665,64dc7f367221422e1e133b9e,,,,,,,decisionTrl,resources/DY.BMP,resources/DBN.BMP,Door1,-0.19351849,-0.022222222,1,0,0,0.7642,optionLeft,30,15195,7,18,0,18,0,1,,,,,,,,,,,,,,,,,,,,,,,,,,,,,,,,,,,,,,,
,,,,,,,,2023-08-16_08h48.29.804,HF_wild_card,2022.2.4,Win32,59.85156811,5ed2bdf295ed8f251d614b21,64d2fd46c836a06233681665,64dc7f367221422e1e133b9e,,,,,,,ctch,resources/DY.BMP,resources/DR.BMP,Door4,0.165740797,-0.032407422,1,0,0,0.6984,optionRight,60,15255,7,19,0,19,0,1,,,,,,,,,,,,,,,,,,,,,,,,,,,,,,,,,,,,,,,
,,,,,,,,2023-08-16_08h48.29.804,HF_wild_card,2022.2.4,Win32,59.85156811,5ed2bdf295ed8f251d614b21,64d2fd46c836a06233681665,64dc7f367221422e1e133b9e,,,,,,,decisionTrl,resources/DBN.BMP,resources/DY.BMP,Door2,-0.212962935,0.014814801,1,0,0,1.4462,optionLeft,40,15295,7,20,0,20,0,1,,,,,,,,,,,,,,,,,,,,,,,,,,,,,,,,,,,,,,,
,,,,,,,,2023-08-16_08h48.29.804,HF_wild_card,2022.2.4,Win32,59.85156811,5ed2bdf295ed8f251d614b21,64d2fd46c836a06233681665,64dc7f367221422e1e133b9e,,,,,,,ctch,resources/DB.BMP,resources/DBN.BMP,Door3,-0.237037023,-0.064814843,1,0,0,0.8311,optionLeft,70,15365,7,21,0,21,0,1,,,,,,,,,,,,,,,,,,,,,,,,,,,,,,,,,,,,,,,
,,,,,,,,2023-08-16_08h48.29.804,HF_wild_card,2022.2.4,Win32,59.85156811,5ed2bdf295ed8f251d614b21,64d2fd46c836a06233681665,64dc7f367221422e1e133b9e,,,,,,,decisionTrl,resources/DR.BMP,resources/DB.BMP,Door3,0.133333333,-0.026851866,1,0,0,0.6308,optionRight,70,15435,7,22,0,22,0,1,,,,,,,,,,,,,,,,,,,,,,,,,,,,,,,,,,,,,,,
,,,,,,,,2023-08-16_08h48.29.804,HF_wild_card,2022.2.4,Win32,59.85156811,5ed2bdf295ed8f251d614b21,64d2fd46c836a06233681665,64dc7f367221422e1e133b9e,,,,,,,decisionTrl,resources/DBN.BMP,resources/DY.BMP,Door1,0.084259288,-0.005555556,1,0,0,0.8782,optionRight,30,15465,7,23,0,23,0,1,,,,,,,,,,,,,,,,,,,,,,,,,,,,,,,,,,,,,,,
,,,,,,,,2023-08-16_08h48.29.804,HF_wild_card,2022.2.4,Win32,59.85156811,5ed2bdf295ed8f251d614b21,64d2fd46c836a06233681665,64dc7f367221422e1e133b9e,,,,,,,ctch,resources/DBN.BMP,resources/DB.BMP,Door3,0.182407464,-0.011111111,1,0,0,0.8468,optionRight,70,15535,7,24,0,24,0,1,,,,,,,,,,,,,,,,,,,,,,,,,,,,,,,,,,,,,,,
,,,,,,,,2023-08-16_08h48.29.804,HF_wild_card,2022.2.4,Win32,59.85156811,5ed2bdf295ed8f251d614b21,64d2fd46c836a06233681665,64dc7f367221422e1e133b9e,,,,,,,decisionTrl,resources/DB.BMP,resources/DR.BMP,Door4,0.111111111,-0.034259288,1,0,0,0.6804,optionRight,80,15615,7,25,0,25,0,1,,,,,,,,,,,,,,,,,,,,,,,,,,,,,,,,,,,,,,,
,,,,,,,,2023-08-16_08h48.29.804,HF_wild_card,2022.2.4,Win32,59.85156811,5ed2bdf295ed8f251d614b21,64d2fd46c836a06233681665,64dc7f367221422e1e133b9e,,,,,,,decisionTrl,resources/DB.BMP,resources/DR.BMP,Door4,0.182407464,-0.004629644,1,0,0,0.6676,optionRight,80,15695,7,26,0,26,0,1,,,,,,,,,,,,,,,,,,,,,,,,,,,,,,,,,,,,,,,
,,,,,,,,2023-08-16_08h48.29.804,HF_wild_card,2022.2.4,Win32,59.85156811,5ed2bdf295ed8f251d614b21,64d2fd46c836a06233681665,64dc7f367221422e1e133b9e,,,,,,,decisionTrl,resources/DY.BMP,resources/DBN.BMP,Door1,-0.179629601,-0.02129631,1,0,0,0.7813,optionLeft,30,15725,7,27,0,27,0,1,,,,,,,,,,,,,,,,,,,,,,,,,,,,,,,,,,,,,,,
,,,,,,,,2023-08-16_08h48.29.804,HF_wild_card,2022.2.4,Win32,59.85156811,5ed2bdf295ed8f251d614b21,64d2fd46c836a06233681665,64dc7f367221422e1e133b9e,,,,,,,decisionTrl,resources/DR.BMP,resources/DB.BMP,Door4,-0.130555556,-0.035185199,1,0,0,0.7482,optionLeft,80,15805,7,28,0,28,0,1,,,,,,,,,,,,,,,,,,,,,,,,,,,,,,,,,,,,,,,
,,,,,,,,2023-08-16_08h48.29.804,HF_wild_card,2022.2.4,Win32,59.85156811,5ed2bdf295ed8f251d614b21,64d2fd46c836a06233681665,64dc7f367221422e1e133b9e,,,,,,,decisionTrl,resources/DBN.BMP,resources/DY.BMP,Door1,0.144444444,-0.03148151,1,0,0,0.6481,optionRight,30,15835,7,29,0,29,0,1,,,,,,,,,,,,,,,,,,,,,,,,,,,,,,,,,,,,,,,
,,,,,,,,2023-08-16_08h48.29.804,HF_wild_card,2022.2.4,Win32,59.85156811,5ed2bdf295ed8f251d614b21,64d2fd46c836a06233681665,64dc7f367221422e1e133b9e,,,,,,,decisionTrl,resources/DY.BMP,resources/DBN.BMP,Door1,-0.176851824,-0.068518533,1,0,0,0.5976,optionLeft,30,15865,7,30,0,30,0,1,,,,,,,,,,,,,,,,,,,,,,,,,,,,,,,,,,,,,,,
,,,,,,,,2023-08-16_08h48.29.804,HF_wild_card,2022.2.4,Win32,59.85156811,5ed2bdf295ed8f251d614b21,64d2fd46c836a06233681665,64dc7f367221422e1e133b9e,,,,,,,ctch,resources/DR.BMP,resources/DY.BMP,Door4,-0.174074046,-0.053703732,1,0,0,0.6997,optionLeft,80,15945,7,31,0,31,0,1,,,,,,,,,,,,,,,,,,,,,,,,,,,,,,,,,,,,,,,
,,,,,,,,2023-08-16_08h48.29.804,HF_wild_card,2022.2.4,Win32,59.85156811,5ed2bdf295ed8f251d614b21,64d2fd46c836a06233681665,64dc7f367221422e1e133b9e,,,,,,,ctch,resources/DR.BMP,resources/DY.BMP,Door4,-0.195370356,-0.064814843,1,0,0,0.5992,optionLeft,60,16005,7,32,0,32,0,1,,,,,,,,,,,,,,,,,,,,,,,,,,,,,,,,,,,,,,,
,,,,,,,,2023-08-16_08h48.29.804,HF_wild_card,2022.2.4,Win32,59.85156811,5ed2bdf295ed8f251d614b21,64d2fd46c836a06233681665,64dc7f367221422e1e133b9e,,,,,,,decisionTrl,resources/DY.BMP,resources/DBN.BMP,Door1,-0.198148134,-0.075,1,0,0,0.5636,optionLeft,30,16035,7,33,0,33,0,1,,,,,,,,,,,,,,,,,,,,,,,,,,,,,,,,,,,,,,,
,,,,,,,,2023-08-16_08h48.29.804,HF_wild_card,2022.2.4,Win32,59.85156811,5ed2bdf295ed8f251d614b21,64d2fd46c836a06233681665,64dc7f367221422e1e133b9e,,,,,,,ctch,resources/DB.BMP,resources/DBN.BMP,Door3,-0.175925869,-0.053703732,1,0,0,0.581,optionLeft,70,16105,7,34,0,34,0,1,,,,,,,,,,,,,,,,,,,,,,,,,,,,,,,,,,,,,,,
,,,,,,,,2023-08-16_08h48.29.804,HF_wild_card,2022.2.4,Win32,59.85156811,5ed2bdf295ed8f251d614b21,64d2fd46c836a06233681665,64dc7f367221422e1e133b9e,,,,,,,ctch,resources/DBN.BMP,resources/DB.BMP,Door3,0.192592621,-0.007407422,1,0,0,0.9319,optionRight,70,16175,7,35,0,35,0,1,,,,,,,,,,,,,,,,,,,,,,,,,,,,,,,,,,,,,,,
,,,,,,,,2023-08-16_08h48.29.804,HF_wild_card,2022.2.4,Win32,59.85156811,5ed2bdf295ed8f251d614b21,64d2fd46c836a06233681665,64dc7f367221422e1e133b9e,,,,,,,,,,,,,,,,,,,,,,,,,,6,0,6,0,1,,,,,,,,,,,,,,,,,,,,,,,,,,,,,,,,,,
,,,,,,,,2023-08-16_08h48.29.804,HF_wild_card,2022.2.4,Win32,59.85156811,5ed2bdf295ed8f251d614b21,64d2fd46c836a06233681665,64dc7f367221422e1e133b9e,,,,,,,,,,,,,,,,,,,,,,,,,,,,,,,4,,,,,,,,,,,,,,,,,,,,,,,,,,,,,,,,,
,,,,,,,,2023-08-16_08h48.29.804,HF_wild_card,2022.2.4,Win32,59.85156811,5ed2bdf295ed8f251d614b21,64d2fd46c836a06233681665,64dc7f367221422e1e133b9e,,,,,,,,,,,,,,,,,,,,,,,,,,,,,,,,,,,,,,,,,,,,,,,,,,,,,,,,,,,,,,,,
,,,,,,,,2023-08-16_08h48.29.804,HF_wild_card,2022.2.4,Win32,59.85156811,5ed2bdf295ed8f251d614b21,64d2fd46c836a06233681665,64dc7f367221422e1e133b9e,,,,,,,,,,,,,,,,,,,,,,,,,,,,,,,,80,Door4,resources/DR.BMP,0,0,0,0,1,,,,,,,,,,,,,,,,,,,,,,,,,
,,,,,,,,2023-08-16_08h48.29.804,HF_wild_card,2022.2.4,Win32,59.85156811,5ed2bdf295ed8f251d614b21,64d2fd46c836a06233681665,64dc7f367221422e1e133b9e,,,,,,,,,,,,,,,,,,,,,,,,,,,,,,,,85,WC_extreme,resources/DP.BMP,1,0,1,0,1,,,,,,,,,,,,,,,,,,,,,,,,,
,,,,,,,,2023-08-16_08h48.29.804,HF_wild_card,2022.2.4,Win32,59.85156811,5ed2bdf295ed8f251d614b21,64d2fd46c836a06233681665,64dc7f367221422e1e133b9e,,,,,,,,,,,,,,,,,,,,,,,,,,,,,,,,20,Door2,resources/DBN.BMP,2,0,2,0,1,,,,,,,,,,,,,,,,,,,,,,,,,
,,,,,,,,2023-08-16_08h48.29.804,HF_wild_card,2022.2.4,Win32,59.85156811,5ed2bdf295ed8f251d614b21,64d2fd46c836a06233681665,64dc7f367221422e1e133b9e,,,,,,,,,,,,,,,,,,,,,,,,,,,,,,,,70,Door3,resources/DB.BMP,3,0,3,0,1,,,,,,,,,,,,,,,,,,,,,,,,,
,,,,,,,,2023-08-16_08h48.29.804,HF_wild_card,2022.2.4,Win32,59.85156811,5ed2bdf295ed8f251d614b21,64d2fd46c836a06233681665,64dc7f367221422e1e133b9e,,,,,,,,,,,,,,,,,,,,,,,,,,,,,,,,30,Door1,resources/DY.BMP,4,0,4,0,1,,,,,,,,,,,,,,,,,,,,,,,,,
,,,,,,,,2023-08-16_08h48.29.804,HF_wild_card,2022.2.4,Win32,59.85156811,5ed2bdf295ed8f251d614b21,64d2fd46c836a06233681665,64dc7f367221422e1e133b9e,,,,,,,,,,,,,,,,,,,,,,,,,,,,,,,,40,WC_nonExtreme,resources/DG.BMP,5,0,5,0,1,,,,,,,,,,,,,,,,,,,,,,,,,
,,,,,,,,2023-08-16_08h48.29.804,HF_wild_card,2022.2.4,Win32,59.85156811,5ed2bdf295ed8f251d614b21,64d2fd46c836a06233681665,64dc7f367221422e1e133b9e,,,,,,,,,,,,,,,,,,,,,,,,,,,,,,,,,,,,,,,,,,,,,,,,,,,,,,,,,,,,,,,,
