Condition,Low fixed image (Door1),Low risky image (Door2),High fixed image (Door3),High risky image (Door4),NonExtreme Wild Card 1,NonExtreme Wild Card 2,,date,expName,psychopyVersion,OS,frameRate,PROLIFIC_PID,STUDY_ID,SESSION_ID,mouse_2.x,mouse_2.y,mouse_2.leftButton,mouse_2.midButton,mouse_2.rightButton,mouse_2.clicked_name,Trial Type,Left Option Image,Right Option Image,Chosen Door,mouse.x,mouse.y,mouse.leftButton,mouse.midButton,mouse.rightButton,mouse.time,mouse.clicked_name,Feedback,Cumulative Reward,Block,trial.thisRepN,trial.thisTrialN,trial.thisN,trial.thisIndex,trial.ran,blocks.thisRepN,blocks.thisTrialN,blocks.thisN,blocks.thisIndex,blocks.ran,Money conversion,First Outcome Reported,Shown Door (First Outcome),Displayed Image (First Outcome),outcomes.thisRepN,outcomes.thisTrialN,outcomes.thisN,outcomes.thisIndex,outcomes.ran,judgments.thisRepN,judgments.thisTrialN,judgments.thisN,judgments.thisIndex,judgments.ran,freqMouse.x,freqMouse.y,freqMouse.leftButton,freqMouse.midButton,freqMouse.rightButton,freqMouse.clicked_name,FQJ for first outcome,FQJ for second outcome,Shown Door,Displayed Image,trials.thisRepN,trials.thisTrialN,trials.thisN,trials.thisIndex,trials.ran,judgBlock.thisRepN,judgBlock.thisTrialN,judgBlock.thisN,judgBlock.thisIndex,judgBlock.ran
2,resources/DG.BMP,resources/DR.BMP,resources/DBN.BMP,resources/DP.BMP,resources/DB.BMP,resources/DY.BMP,,2023-08-16_08h54.19.109,HF_wild_card,2022.2.4,Win32,59.8372427,57b889c1e163b10001abf340,64d2fd46c836a06233681665,64dc7ec5a88e06ed0dc49382,,,,,,,,,,,,,,,,,,,,,,,,,,,,,,,,,,,,,,,,,,,,,,,,,,,,,,,,,,,,,,,,
,,,,,,,,2023-08-16_08h54.19.109,HF_wild_card,2022.2.4,Win32,59.8372427,57b889c1e163b10001abf340,64d2fd46c836a06233681665,64dc7ec5a88e06ed0dc49382,-0.012433467,-0.416030534,1,0,0,agree,,,,,,,,,,,,,,,,,,,,,,,,,,,,,,,,,,,,,,,,,,,,,,,,,,,,,,,,,,
,,,,,,,,2023-08-16_08h54.19.109,HF_wild_card,2022.2.4,Win32,59.8372427,57b889c1e163b10001abf340,64d2fd46c836a06233681665,64dc7ec5a88e06ed0dc49382,,,,,,,,,,,,,,,,,,,,,,,,,,,,,,,,,,,,,,,,,,,,,,,,,,,,,,,,,,,,,,,,
,,,,,,,,2023-08-16_08h54.19.109,HF_wild_card,2022.2.4,Win32,59.8372427,57b889c1e163b10001abf340,64d2fd46c836a06233681665,64dc7ec5a88e06ed0dc49382,,,,,,,sngl,resources/DY.BMP,resources/Empty.png,WildCard_NonEx,-0.361265304,-0.044991918,1,0,0,8.2772,optionLeft,45,45,1,0,0,0,0,1,,,,,,,,,,,,,,,,,,,,,,,,,,,,,,,,,,,,,,,
,,,,,,,,2023-08-16_08h54.19.109,HF_wild_card,2022.2.4,Win32,59.8372427,57b889c1e163b10001abf340,64d2fd46c836a06233681665,64dc7ec5a88e06ed0dc49382,,,,,,,ctch,resources/DP.BMP,resources/DG.BMP,Door4,-0.345535434,-0.153250114,1,0,0,3.8127,optionLeft,80,125,1,1,0,1,0,1,,,,,,,,,,,,,,,,,,,,,,,,,,,,,,,,,,,,,,,
,,,,,,,,2023-08-16_08h54.19.109,HF_wild_card,2022.2.4,Win32,59.8372427,57b889c1e163b10001abf340,64d2fd46c836a06233681665,64dc7ec5a88e06ed0dc49382,,,,,,,decisionTrl,resources/DR.BMP,resources/DG.BMP,Door1,0.376185526,-0.029262087,1,0,0,2.9369,optionRight,30,155,1,2,0,2,0,1,,,,,,,,,,,,,,,,,,,,,,,,,,,,,,,,,,,,,,,
,,,,,,,,2023-08-16_08h54.19.109,HF_wild_card,2022.2.4,Win32,59.8372427,57b889c1e163b10001abf340,64d2fd46c836a06233681665,64dc7ec5a88e06ed0dc49382,,,,,,,sngl,resources/Empty.png,resources/DY.BMP,WildCard_NonEx,0.420599163,-0.006130073,1,0,0,1.9285,optionRight,45,200,1,3,0,3,0,1,,,,,,,,,,,,,,,,,,,,,,,,,,,,,,,,,,,,,,,
,,,,,,,,2023-08-16_08h54.19.109,HF_wild_card,2022.2.4,Win32,59.8372427,57b889c1e163b10001abf340,64d2fd46c836a06233681665,64dc7ec5a88e06ed0dc49382,,,,,,,decisionTrl,resources/DR.BMP,resources/DG.BMP,Door1,0.301237616,-0.095882503,1,0,0,2.5352,optionRight,30,230,1,4,0,4,0,1,,,,,,,,,,,,,,,,,,,,,,,,,,,,,,,,,,,,,,,
,,,,,,,,2023-08-16_08h54.19.109,HF_wild_card,2022.2.4,Win32,59.8372427,57b889c1e163b10001abf340,64d2fd46c836a06233681665,64dc7ec5a88e06ed0dc49382,,,,,,,decisionTrl,resources/DBN.BMP,resources/DP.BMP,Door3,-0.319627563,-0.052394178,1,0,0,2.3116,optionLeft,70,300,1,5,0,5,0,1,,,,,,,,,,,,,,,,,,,,,,,,,,,,,,,,,,,,,,,
,,,,,,,,2023-08-16_08h54.19.109,HF_wild_card,2022.2.4,Win32,59.8372427,57b889c1e163b10001abf340,64d2fd46c836a06233681665,64dc7ec5a88e06ed0dc49382,,,,,,,decisionTrl,resources/DBN.BMP,resources/DP.BMP,Door4,0.346576487,-0.005204722,1,0,0,3.496,optionRight,60,360,1,6,0,6,0,1,,,,,,,,,,,,,,,,,,,,,,,,,,,,,,,,,,,,,,,
,,,,,,,,2023-08-16_08h54.19.109,HF_wild_card,2022.2.4,Win32,59.8372427,57b889c1e163b10001abf340,64d2fd46c836a06233681665,64dc7ec5a88e06ed0dc49382,,,,,,,decisionTrl,resources/DP.BMP,resources/DBN.BMP,Door3,0.361381007,-0.014457567,1,0,0,2.4119,optionRight,70,430,1,7,0,7,0,1,,,,,,,,,,,,,,,,,,,,,,,,,,,,,,,,,,,,,,,
,,,,,,,,2023-08-16_08h54.19.109,HF_wild_card,2022.2.4,Win32,59.8372427,57b889c1e163b10001abf340,64d2fd46c836a06233681665,64dc7ec5a88e06ed0dc49382,,,,,,,decisionTrl,resources/DG.BMP,resources/DR.BMP,Door1,-0.32610455,-0.056095308,1,0,0,3.995,optionLeft,30,460,1,8,0,8,0,1,,,,,,,,,,,,,,,,,,,,,,,,,,,,,,,,,,,,,,,
,,,,,,,,2023-08-16_08h54.19.109,HF_wild_card,2022.2.4,Win32,59.8372427,57b889c1e163b10001abf340,64d2fd46c836a06233681665,64dc7ec5a88e06ed0dc49382,,,,,,,sngl,resources/DY.BMP,resources/Empty.png,WildCard_NonEx,-0.357564174,-0.082928529,1,0,0,1.7451,optionLeft,55,515,1,9,0,9,0,1,,,,,,,,,,,,,,,,,,,,,,,,,,,,,,,,,,,,,,,
,,,,,,,,2023-08-16_08h54.19.109,HF_wild_card,2022.2.4,Win32,59.8372427,57b889c1e163b10001abf340,64d2fd46c836a06233681665,64dc7ec5a88e06ed0dc49382,,,,,,,decisionTrl,resources/DY.BMP,resources/DBN.BMP,Door3,0.27995607,-0.020934554,1,0,0,2.0787,optionRight,70,585,1,10,0,10,0,1,,,,,,,,,,,,,,,,,,,,,,,,,,,,,,,,,,,,,,,
,,,,,,,,2023-08-16_08h54.19.109,HF_wild_card,2022.2.4,Win32,59.8372427,57b889c1e163b10001abf340,64d2fd46c836a06233681665,64dc7ec5a88e06ed0dc49382,,,,,,,decisionTrl,resources/DR.BMP,resources/DG.BMP,Door2,-0.304822965,-0.064422879,1,0,0,2.7361,optionLeft,20,605,1,11,0,11,0,1,,,,,,,,,,,,,,,,,,,,,,,,,,,,,,,,,,,,,,,
,,,,,,,,2023-08-16_08h54.19.109,HF_wild_card,2022.2.4,Win32,59.8372427,57b889c1e163b10001abf340,64d2fd46c836a06233681665,64dc7ec5a88e06ed0dc49382,,,,,,,decisionTrl,resources/DP.BMP,resources/DBN.BMP,Door3,0.364156864,-0.009831164,1,0,0,1.512,optionRight,70,675,1,12,0,12,0,1,,,,,,,,,,,,,,,,,,,,,,,,,,,,,,,,,,,,,,,
,,,,,,,,2023-08-16_08h54.19.109,HF_wild_card,2022.2.4,Win32,59.8372427,57b889c1e163b10001abf340,64d2fd46c836a06233681665,64dc7ec5a88e06ed0dc49382,,,,,,,decisionTrl,resources/DG.BMP,resources/DY.BMP,Door1,-0.33350681,-0.073675762,1,0,0,1.7349,optionLeft,30,705,1,13,0,13,0,1,,,,,,,,,,,,,,,,,,,,,,,,,,,,,,,,,,,,,,,
,,,,,,,,2023-08-16_08h54.19.109,HF_wild_card,2022.2.4,Win32,59.8372427,57b889c1e163b10001abf340,64d2fd46c836a06233681665,64dc7ec5a88e06ed0dc49382,,,,,,,sngl,resources/DG.BMP,resources/Empty.png,Door1,-0.371443421,-0.066273425,1,0,0,1.3138,optionLeft,30,735,1,14,0,14,0,1,,,,,,,,,,,,,,,,,,,,,,,,,,,,,,,,,,,,,,,
,,,,,,,,2023-08-16_08h54.19.109,HF_wild_card,2022.2.4,Win32,59.8372427,57b889c1e163b10001abf340,64d2fd46c836a06233681665,64dc7ec5a88e06ed0dc49382,,,,,,,decisionTrl,resources/DBN.BMP,resources/DY.BMP,Door3,-0.352937771,-0.083853879,1,0,0,2.0295,optionLeft,70,805,1,15,0,15,0,1,,,,,,,,,,,,,,,,,,,,,,,,,,,,,,,,,,,,,,,
,,,,,,,,2023-08-16_08h54.19.109,HF_wild_card,2022.2.4,Win32,59.8372427,57b889c1e163b10001abf340,64d2fd46c836a06233681665,64dc7ec5a88e06ed0dc49382,,,,,,,decisionTrl,resources/DG.BMP,resources/DR.BMP,Door1,-0.327955096,-0.075526269,1,0,0,1.7784,optionLeft,30,835,1,16,0,16,0,1,,,,,,,,,,,,,,,,,,,,,,,,,,,,,,,,,,,,,,,
,,,,,,,,2023-08-16_08h54.19.109,HF_wild_card,2022.2.4,Win32,59.8372427,57b889c1e163b10001abf340,64d2fd46c836a06233681665,64dc7ec5a88e06ed0dc49382,,,,,,,decisionTrl,resources/DP.BMP,resources/DBN.BMP,Door3,0.322519084,-0.023710411,1,0,0,1.5038,optionRight,70,905,1,17,0,17,0,1,,,,,,,,,,,,,,,,,,,,,,,,,,,,,,,,,,,,,,,
,,,,,,,,2023-08-16_08h54.19.109,HF_wild_card,2022.2.4,Win32,59.8372427,57b889c1e163b10001abf340,64d2fd46c836a06233681665,64dc7ec5a88e06ed0dc49382,,,,,,,decisionTrl,resources/DG.BMP,resources/DR.BMP,Door1,-0.255783003,-0.087555009,1,0,0,2.1791,optionLeft,30,935,1,18,0,18,0,1,,,,,,,,,,,,,,,,,,,,,,,,,,,,,,,,,,,,,,,
,,,,,,,,2023-08-16_08h54.19.109,HF_wild_card,2022.2.4,Win32,59.8372427,57b889c1e163b10001abf340,64d2fd46c836a06233681665,64dc7ec5a88e06ed0dc49382,,,,,,,decisionTrl,resources/DR.BMP,resources/DY.BMP,WildCard_NonEx,0.320668538,-0.041290788,1,0,0,1.462,optionRight,55,990,1,19,0,19,0,1,,,,,,,,,,,,,,,,,,,,,,,,,,,,,,,,,,,,,,,
,,,,,,,,2023-08-16_08h54.19.109,HF_wild_card,2022.2.4,Win32,59.8372427,57b889c1e163b10001abf340,64d2fd46c836a06233681665,64dc7ec5a88e06ed0dc49382,,,,,,,decisionTrl,resources/DY.BMP,resources/DR.BMP,WildCard_NonEx,-0.283541497,-0.12086514,1,0,0,2.641,optionLeft,55,1045,1,20,0,20,0,1,,,,,,,,,,,,,,,,,,,,,,,,,,,,,,,,,,,,,,,
,,,,,,,,2023-08-16_08h54.19.109,HF_wild_card,2022.2.4,Win32,59.8372427,57b889c1e163b10001abf340,64d2fd46c836a06233681665,64dc7ec5a88e06ed0dc49382,,,,,,,sngl,resources/Empty.png,resources/DG.BMP,Door1,0.356754604,-0.020009281,1,0,0,1.1947,optionRight,30,1075,1,21,0,21,0,1,,,,,,,,,,,,,,,,,,,,,,,,,,,,,,,,,,,,,,,
,,,,,,,,2023-08-16_08h54.19.109,HF_wild_card,2022.2.4,Win32,59.8372427,57b889c1e163b10001abf340,64d2fd46c836a06233681665,64dc7ec5a88e06ed0dc49382,,,,,,,decisionTrl,resources/DR.BMP,resources/DG.BMP,Door1,0.250347031,-0.046842541,1,0,0,2.2004,optionRight,30,1105,1,22,0,22,0,1,,,,,,,,,,,,,,,,,,,,,,,,,,,,,,,,,,,,,,,
,,,,,,,,2023-08-16_08h54.19.109,HF_wild_card,2022.2.4,Win32,59.8372427,57b889c1e163b10001abf340,64d2fd46c836a06233681665,64dc7ec5a88e06ed0dc49382,,,,,,,sngl,resources/DP.BMP,resources/Empty.png,Door4,-0.345535434,-0.081077983,1,0,0,1.0785,optionLeft,80,1185,1,23,0,23,0,1,,,,,,,,,,,,,,,,,,,,,,,,,,,,,,,,,,,,,,,
,,,,,,,,2023-08-16_08h54.19.109,HF_wild_card,2022.2.4,Win32,59.8372427,57b889c1e163b10001abf340,64d2fd46c836a06233681665,64dc7ec5a88e06ed0dc49382,,,,,,,decisionTrl,resources/DP.BMP,resources/DY.BMP,WildCard_NonEx,0.282731927,-0.058871165,1,0,0,2.4946,optionRight,55,1240,1,24,0,24,0,1,,,,,,,,,,,,,,,,,,,,,,,,,,,,,,,,,,,,,,,
,,,,,,,,2023-08-16_08h54.19.109,HF_wild_card,2022.2.4,Win32,59.8372427,57b889c1e163b10001abf340,64d2fd46c836a06233681665,64dc7ec5a88e06ed0dc49382,,,,,,,ctch,resources/DG.BMP,resources/DP.BMP,Door1,-0.31870229,-0.093106646,1,0,0,2.1127,optionLeft,30,1270,1,25,0,25,0,1,,,,,,,,,,,,,,,,,,,,,,,,,,,,,,,,,,,,,,,
,,,,,,,,2023-08-16_08h54.19.109,HF_wild_card,2022.2.4,Win32,59.8372427,57b889c1e163b10001abf340,64d2fd46c836a06233681665,64dc7ec5a88e06ed0dc49382,,,,,,,sngl,resources/Empty.png,resources/DY.BMP,WildCard_NonEx,0.379886695,-0.112537607,1,0,0,1.1294,optionRight,55,1325,1,26,0,26,0,1,,,,,,,,,,,,,,,,,,,,,,,,,,,,,,,,,,,,,,,
,,,,,,,,2023-08-16_08h54.19.109,HF_wild_card,2022.2.4,Win32,59.8372427,57b889c1e163b10001abf340,64d2fd46c836a06233681665,64dc7ec5a88e06ed0dc49382,,,,,,,ctch,resources/DR.BMP,resources/DBN.BMP,Door3,0.349352344,-0.009831164,1,0,0,1.4295,optionRight,70,1395,1,27,0,27,0,1,,,,,,,,,,,,,,,,,,,,,,,,,,,,,,,,,,,,,,,
,,,,,,,,2023-08-16_08h54.19.109,HF_wild_card,2022.2.4,Win32,59.8372427,57b889c1e163b10001abf340,64d2fd46c836a06233681665,64dc7ec5a88e06ed0dc49382,,,,,,,sngl,resources/Empty.png,resources/DP.BMP,Door4,0.307714564,-0.013532294,1,0,0,1.1278,optionRight,60,1455,1,28,0,28,0,1,,,,,,,,,,,,,,,,,,,,,,,,,,,,,,,,,,,,,,,
,,,,,,,,2023-08-16_08h54.19.109,HF_wild_card,2022.2.4,Win32,59.8372427,57b889c1e163b10001abf340,64d2fd46c836a06233681665,64dc7ec5a88e06ed0dc49382,,,,,,,sngl,resources/Empty.png,resources/DBN.BMP,Door3,0.303088161,-0.030187398,1,0,0,1.163,optionRight,70,1525,1,29,0,29,0,1,,,,,,,,,,,,,,,,,,,,,,,,,,,,,,,,,,,,,,,
,,,,,,,,2023-08-16_08h54.19.109,HF_wild_card,2022.2.4,Win32,59.8372427,57b889c1e163b10001abf340,64d2fd46c836a06233681665,64dc7ec5a88e06ed0dc49382,,,,,,,sngl,resources/DR.BMP,resources/Empty.png,Door2,-0.414931746,-0.065348152,1,0,0,1.4632,optionLeft,40,1565,1,30,0,30,0,1,,,,,,,,,,,,,,,,,,,,,,,,,,,,,,,,,,,,,,,
,,,,,,,,2023-08-16_08h54.19.109,HF_wild_card,2022.2.4,Win32,59.8372427,57b889c1e163b10001abf340,64d2fd46c836a06233681665,64dc7ec5a88e06ed0dc49382,,,,,,,decisionTrl,resources/DY.BMP,resources/DP.BMP,WildCard_NonEx,-0.32240342,-0.070899866,1,0,0,1.8802,optionLeft,55,1620,1,31,0,31,0,1,,,,,,,,,,,,,,,,,,,,,,,,,,,,,,,,,,,,,,,
,,,,,,,,2023-08-16_08h54.19.109,HF_wild_card,2022.2.4,Win32,59.8372427,57b889c1e163b10001abf340,64d2fd46c836a06233681665,64dc7ec5a88e06ed0dc49382,,,,,,,ctch,resources/DBN.BMP,resources/DR.BMP,Door3,-0.283541497,-0.068124009,1,0,0,2.163,optionLeft,70,1690,1,32,0,32,0,1,,,,,,,,,,,,,,,,,,,,,,,,,,,,,,,,,,,,,,,
,,,,,,,,2023-08-16_08h54.19.109,HF_wild_card,2022.2.4,Win32,59.8372427,57b889c1e163b10001abf340,64d2fd46c836a06233681665,64dc7ec5a88e06ed0dc49382,,,,,,,ctch,resources/DBN.BMP,resources/DR.BMP,Door3,-0.307598861,-0.070899866,1,0,0,1.664,optionLeft,70,1760,1,33,0,33,0,1,,,,,,,,,,,,,,,,,,,,,,,,,,,,,,,,,,,,,,,
,,,,,,,,2023-08-16_08h54.19.109,HF_wild_card,2022.2.4,Win32,59.8372427,57b889c1e163b10001abf340,64d2fd46c836a06233681665,64dc7ec5a88e06ed0dc49382,,,,,,,sngl,resources/Empty.png,resources/DR.BMP,Door2,0.344725941,-0.085704386,1,0,0,1.0971,optionRight,20,1780,1,34,0,34,0,1,,,,,,,,,,,,,,,,,,,,,,,,,,,,,,,,,,,,,,,
,,,,,,,,2023-08-16_08h54.19.109,HF_wild_card,2022.2.4,Win32,59.8372427,57b889c1e163b10001abf340,64d2fd46c836a06233681665,64dc7ec5a88e06ed0dc49382,,,,,,,ctch,resources/DP.BMP,resources/DG.BMP,Door1,0.337323759,-0.036664424,1,0,0,2.2137,optionRight,30,1810,1,35,0,35,0,1,,,,,,,,,,,,,,,,,,,,,,,,,,,,,,,,,,,,,,,
,,,,,,,,2023-08-16_08h54.19.109,HF_wild_card,2022.2.4,Win32,59.8372427,57b889c1e163b10001abf340,64d2fd46c836a06233681665,64dc7ec5a88e06ed0dc49382,,,,,,,ctch,resources/DR.BMP,resources/DBN.BMP,Door3,0.232766654,-0.027411541,1,0,0,1.9965,optionRight,70,1880,1,36,0,36,0,1,,,,,,,,,,,,,,,,,,,,,,,,,,,,,,,,,,,,,,,
,,,,,,,,2023-08-16_08h54.19.109,HF_wild_card,2022.2.4,Win32,59.8372427,57b889c1e163b10001abf340,64d2fd46c836a06233681665,64dc7ec5a88e06ed0dc49382,,,,,,,decisionTrl,resources/DBN.BMP,resources/DP.BMP,Door3,-0.32610455,-0.063497645,1,0,0,1.4137,optionLeft,70,1950,1,37,0,37,0,1,,,,,,,,,,,,,,,,,,,,,,,,,,,,,,,,,,,,,,,
,,,,,,,,2023-08-16_08h54.19.109,HF_wild_card,2022.2.4,Win32,59.8372427,57b889c1e163b10001abf340,64d2fd46c836a06233681665,64dc7ec5a88e06ed0dc49382,,,,,,,decisionTrl,resources/DG.BMP,resources/DR.BMP,Door1,-0.252081873,-0.070899866,1,0,0,2.897,optionLeft,30,1980,1,38,0,38,0,1,,,,,,,,,,,,,,,,,,,,,,,,,,,,,,,,,,,,,,,
,,,,,,,,2023-08-16_08h54.19.109,HF_wild_card,2022.2.4,Win32,59.8372427,57b889c1e163b10001abf340,64d2fd46c836a06233681665,64dc7ec5a88e06ed0dc49382,,,,,,,decisionTrl,resources/DP.BMP,resources/DBN.BMP,Door3,0.377110838,-0.00427945,1,0,0,1.2476,optionRight,70,2050,1,39,0,39,0,1,,,,,,,,,,,,,,,,,,,,,,,,,,,,,,,,,,,,,,,
,,,,,,,,2023-08-16_08h54.19.109,HF_wild_card,2022.2.4,Win32,59.8372427,57b889c1e163b10001abf340,64d2fd46c836a06233681665,64dc7ec5a88e06ed0dc49382,,,,,,,decisionTrl,resources/DY.BMP,resources/DG.BMP,WildCard_NonEx,-0.276139237,-0.107911243,1,0,0,4.0624,optionLeft,45,2095,1,40,0,40,0,1,,,,,,,,,,,,,,,,,,,,,,,,,,,,,,,,,,,,,,,
,,,,,,,,2023-08-16_08h54.19.109,HF_wild_card,2022.2.4,Win32,59.8372427,57b889c1e163b10001abf340,64d2fd46c836a06233681665,64dc7ec5a88e06ed0dc49382,,,,,,,sngl,resources/DBN.BMP,resources/Empty.png,Door3,-0.310374719,-0.069974555,1,0,0,1.1627,optionLeft,70,2165,1,41,0,41,0,1,,,,,,,,,,,,,,,,,,,,,,,,,,,,,,,,,,,,,,,
,,,,,,,,2023-08-16_08h54.19.109,HF_wild_card,2022.2.4,Win32,59.8372427,57b889c1e163b10001abf340,64d2fd46c836a06233681665,64dc7ec5a88e06ed0dc49382,,,,,,,decisionTrl,resources/DBN.BMP,resources/DP.BMP,Door3,-0.312225303,-0.100508906,1,0,0,1.4784,optionLeft,70,2235,1,42,0,42,0,1,,,,,,,,,,,,,,,,,,,,,,,,,,,,,,,,,,,,,,,
,,,,,,,,2023-08-16_08h54.19.109,HF_wild_card,2022.2.4,Win32,59.8372427,57b889c1e163b10001abf340,64d2fd46c836a06233681665,64dc7ec5a88e06ed0dc49382,,,,,,,ctch,resources/DG.BMP,resources/DP.BMP,Door4,0.31419159,-0.082928529,1,0,0,1.9277,optionRight,60,2295,1,43,0,43,0,1,,,,,,,,,,,,,,,,,,,,,,,,,,,,,,,,,,,,,,,
,,,,,,,,2023-08-16_08h54.19.109,HF_wild_card,2022.2.4,Win32,59.8372427,57b889c1e163b10001abf340,64d2fd46c836a06233681665,64dc7ec5a88e06ed0dc49382,,,,,,,,,,,,,,,,,,,,,,,,,,0,0,0,0,1,,,,,,,,,,,,,,,,,,,,,,,,,,,,,,,,,,
,,,,,,,,2023-08-16_08h54.19.109,HF_wild_card,2022.2.4,Win32,59.8372427,57b889c1e163b10001abf340,64d2fd46c836a06233681665,64dc7ec5a88e06ed0dc49382,,,,,,,sngl,resources/Empty.png,resources/DBN.BMP,Door3,0.341024773,-0.136594971,1,0,0,1.3243,optionRight,70,2365,2,0,0,0,0,1,,,,,,,,,,,,,,,,,,,,,,,,,,,,,,,,,,,,,,,
,,,,,,,,2023-08-16_08h54.19.109,HF_wild_card,2022.2.4,Win32,59.8372427,57b889c1e163b10001abf340,64d2fd46c836a06233681665,64dc7ec5a88e06ed0dc49382,,,,,,,sngl,resources/Empty.png,resources/DP.BMP,Door4,0.301237616,-0.077376892,1,0,0,1.2958,optionRight,80,2445,2,1,0,1,0,1,,,,,,,,,,,,,,,,,,,,,,,,,,,,,,,,,,,,,,,
,,,,,,,,2023-08-16_08h54.19.109,HF_wild_card,2022.2.4,Win32,59.8372427,57b889c1e163b10001abf340,64d2fd46c836a06233681665,64dc7ec5a88e06ed0dc49382,,,,,,,sngl,resources/Empty.png,resources/DG.BMP,Door1,0.269777953,-0.046842541,1,0,0,1.2123,optionRight,30,2475,2,2,0,2,0,1,,,,,,,,,,,,,,,,,,,,,,,,,,,,,,,,,,,,,,,
,,,,,,,,2023-08-16_08h54.19.109,HF_wild_card,2022.2.4,Win32,59.8372427,57b889c1e163b10001abf340,64d2fd46c836a06233681665,64dc7ec5a88e06ed0dc49382,,,,,,,decisionTrl,resources/DR.BMP,resources/DG.BMP,Door2,-0.345535434,-0.071825139,1,0,0,1.413,optionLeft,20,2495,2,3,0,3,0,1,,,,,,,,,,,,,,,,,,,,,,,,,,,,,,,,,,,,,,,
,,,,,,,,2023-08-16_08h54.19.109,HF_wild_card,2022.2.4,Win32,59.8372427,57b889c1e163b10001abf340,64d2fd46c836a06233681665,64dc7ec5a88e06ed0dc49382,,,,,,,decisionTrl,resources/DY.BMP,resources/DBN.BMP,Door3,0.364156864,-0.069049282,1,0,0,1.3291,optionRight,70,2565,2,4,0,4,0,1,,,,,,,,,,,,,,,,,,,,,,,,,,,,,,,,,,,,,,,
,,,,,,,,2023-08-16_08h54.19.109,HF_wild_card,2022.2.4,Win32,59.8372427,57b889c1e163b10001abf340,64d2fd46c836a06233681665,64dc7ec5a88e06ed0dc49382,,,,,,,ctch,resources/DP.BMP,resources/DG.BMP,Door4,-0.336282667,-0.088480243,1,0,0,2.7451,optionLeft,80,2645,2,5,0,5,0,1,,,,,,,,,,,,,,,,,,,,,,,,,,,,,,,,,,,,,,,
,,,,,,,,2023-08-16_08h54.19.109,HF_wild_card,2022.2.4,Win32,59.8372427,57b889c1e163b10001abf340,64d2fd46c836a06233681665,64dc7ec5a88e06ed0dc49382,,,,,,,decisionTrl,resources/DR.BMP,resources/DG.BMP,Door2,-0.364966434,-0.081077983,1,0,0,1.8949,optionLeft,20,2665,2,6,0,6,0,1,,,,,,,,,,,,,,,,,,,,,,,,,,,,,,,,,,,,,,,
,,,,,,,,2023-08-16_08h54.19.109,HF_wild_card,2022.2.4,Win32,59.8372427,57b889c1e163b10001abf340,64d2fd46c836a06233681665,64dc7ec5a88e06ed0dc49382,,,,,,,ctch,resources/DR.BMP,resources/DBN.BMP,Door3,0.362306318,-0.063497645,1,0,0,1.1623,optionRight,70,2735,2,7,0,7,0,1,,,,,,,,,,,,,,,,,,,,,,,,,,,,,,,,,,,,,,,
,,,,,,,,2023-08-16_08h54.19.109,HF_wild_card,2022.2.4,Win32,59.8372427,57b889c1e163b10001abf340,64d2fd46c836a06233681665,64dc7ec5a88e06ed0dc49382,,,,,,,decisionTrl,resources/DP.BMP,resources/DBN.BMP,Door3,0.350277733,-0.076451542,1,0,0,1.0954,optionRight,70,2805,2,8,0,8,0,1,,,,,,,,,,,,,,,,,,,,,,,,,,,,,,,,,,,,,,,
,,,,,,,,2023-08-16_08h54.19.109,HF_wild_card,2022.2.4,Win32,59.8372427,57b889c1e163b10001abf340,64d2fd46c836a06233681665,64dc7ec5a88e06ed0dc49382,,,,,,,sngl,resources/DG.BMP,resources/Empty.png,Door1,-0.305748316,-0.062572295,1,0,0,1.4297,optionLeft,30,2835,2,9,0,9,0,1,,,,,,,,,,,,,,,,,,,,,,,,,,,,,,,,,,,,,,,
,,,,,,,,2023-08-16_08h54.19.109,HF_wild_card,2022.2.4,Win32,59.8372427,57b889c1e163b10001abf340,64d2fd46c836a06233681665,64dc7ec5a88e06ed0dc49382,,,,,,,decisionTrl,resources/DG.BMP,resources/DR.BMP,Door2,0.274404356,-0.081077983,1,0,0,1.5959,optionRight,40,2875,2,10,0,10,0,1,,,,,,,,,,,,,,,,,,,,,,,,,,,,,,,,,,,,,,,
,,,,,,,,2023-08-16_08h54.19.109,HF_wild_card,2022.2.4,Win32,59.8372427,57b889c1e163b10001abf340,64d2fd46c836a06233681665,64dc7ec5a88e06ed0dc49382,,,,,,,decisionTrl,resources/DBN.BMP,resources/DP.BMP,Door3,-0.328880407,-0.051468905,1,0,0,1.2789,optionLeft,70,2945,2,11,0,11,0,1,,,,,,,,,,,,,,,,,,,,,,,,,,,,,,,,,,,,,,,
,,,,,,,,2023-08-16_08h54.19.109,HF_wild_card,2022.2.4,Win32,59.8372427,57b889c1e163b10001abf340,64d2fd46c836a06233681665,64dc7ec5a88e06ed0dc49382,,,,,,,decisionTrl,resources/DG.BMP,resources/DR.BMP,Door2,0.239243602,-0.081077983,1,0,0,3.7617,optionRight,20,2965,2,12,0,12,0,1,,,,,,,,,,,,,,,,,,,,,,,,,,,,,,,,,,,,,,,
,,,,,,,,2023-08-16_08h54.19.109,HF_wild_card,2022.2.4,Win32,59.8372427,57b889c1e163b10001abf340,64d2fd46c836a06233681665,64dc7ec5a88e06ed0dc49382,,,,,,,decisionTrl,resources/DP.BMP,resources/DBN.BMP,Door3,0.26515155,-0.012606982,1,0,0,1.3658,optionRight,70,3035,2,13,0,13,0,1,,,,,,,,,,,,,,,,,,,,,,,,,,,,,,,,,,,,,,,
,,,,,,,,2023-08-16_08h54.19.109,HF_wild_card,2022.2.4,Win32,59.8372427,57b889c1e163b10001abf340,64d2fd46c836a06233681665,64dc7ec5a88e06ed0dc49382,,,,,,,decisionTrl,resources/DBN.BMP,resources/DP.BMP,Door3,-0.363115888,-0.111612335,1,0,0,1.0974,optionLeft,70,3105,2,14,0,14,0,1,,,,,,,,,,,,,,,,,,,,,,,,,,,,,,,,,,,,,,,
,,,,,,,,2023-08-16_08h54.19.109,HF_wild_card,2022.2.4,Win32,59.8372427,57b889c1e163b10001abf340,64d2fd46c836a06233681665,64dc7ec5a88e06ed0dc49382,,,,,,,decisionTrl,resources/DY.BMP,resources/DG.BMP,WildCard_NonEx,-0.252081873,-0.088480243,1,0,0,2.0368,optionLeft,45,3150,2,15,0,15,0,1,,,,,,,,,,,,,,,,,,,,,,,,,,,,,,,,,,,,,,,
,,,,,,,,2023-08-16_08h54.19.109,HF_wild_card,2022.2.4,Win32,59.8372427,57b889c1e163b10001abf340,64d2fd46c836a06233681665,64dc7ec5a88e06ed0dc49382,,,,,,,decisionTrl,resources/DG.BMP,resources/DY.BMP,WildCard_NonEx,0.30216285,-0.058871165,1,0,0,1.7453,optionRight,55,3205,2,16,0,16,0,1,,,,,,,,,,,,,,,,,,,,,,,,,,,,,,,,,,,,,,,
,,,,,,,,2023-08-16_08h54.19.109,HF_wild_card,2022.2.4,Win32,59.8372427,57b889c1e163b10001abf340,64d2fd46c836a06233681665,64dc7ec5a88e06ed0dc49382,,,,,,,sngl,resources/Empty.png,resources/DY.BMP,WildCard_NonEx,0.269777953,-0.056095308,1,0,0,1.3687,optionRight,45,3250,2,17,0,17,0,1,,,,,,,,,,,,,,,,,,,,,,,,,,,,,,,,,,,,,,,
,,,,,,,,2023-08-16_08h54.19.109,HF_wild_card,2022.2.4,Win32,59.8372427,57b889c1e163b10001abf340,64d2fd46c836a06233681665,64dc7ec5a88e06ed0dc49382,,,,,,,sngl,resources/Empty.png,resources/DY.BMP,WildCard_NonEx,0.359530461,-0.057020658,1,0,0,1.1638,optionRight,55,3305,2,18,0,18,0,1,,,,,,,,,,,,,,,,,,,,,,,,,,,,,,,,,,,,,,,
,,,,,,,,2023-08-16_08h54.19.109,HF_wild_card,2022.2.4,Win32,59.8372427,57b889c1e163b10001abf340,64d2fd46c836a06233681665,64dc7ec5a88e06ed0dc49382,,,,,,,decisionTrl,resources/DBN.BMP,resources/DY.BMP,Door3,-0.302047186,-0.069049282,1,0,0,1.4454,optionLeft,70,3375,2,19,0,19,0,1,,,,,,,,,,,,,,,,,,,,,,,,,,,,,,,,,,,,,,,
,,,,,,,,2023-08-16_08h54.19.109,HF_wild_card,2022.2.4,Win32,59.8372427,57b889c1e163b10001abf340,64d2fd46c836a06233681665,64dc7ec5a88e06ed0dc49382,,,,,,,ctch,resources/DP.BMP,resources/DG.BMP,Door4,-0.315926433,-0.099583633,1,0,0,2.2403,optionLeft,80,3455,2,20,0,20,0,1,,,,,,,,,,,,,,,,,,,,,,,,,,,,,,,,,,,,,,,
,,,,,,,,2023-08-16_08h54.19.109,HF_wild_card,2022.2.4,Win32,59.8372427,57b889c1e163b10001abf340,64d2fd46c836a06233681665,64dc7ec5a88e06ed0dc49382,,,,,,,decisionTrl,resources/DP.BMP,resources/DY.BMP,Door4,-0.323328693,-0.069049282,1,0,0,1.7328,optionLeft,80,3535,2,21,0,21,0,1,,,,,,,,,,,,,,,,,,,,,,,,,,,,,,,,,,,,,,,
,,,,,,,,2023-08-16_08h54.19.109,HF_wild_card,2022.2.4,Win32,59.8372427,57b889c1e163b10001abf340,64d2fd46c836a06233681665,64dc7ec5a88e06ed0dc49382,,,,,,,sngl,resources/DR.BMP,resources/Empty.png,Door2,-0.349236641,-0.045917191,1,0,0,1.0968,optionLeft,20,3555,2,22,0,22,0,1,,,,,,,,,,,,,,,,,,,,,,,,,,,,,,,,,,,,,,,
,,,,,,,,2023-08-16_08h54.19.109,HF_wild_card,2022.2.4,Win32,59.8372427,57b889c1e163b10001abf340,64d2fd46c836a06233681665,64dc7ec5a88e06ed0dc49382,,,,,,,ctch,resources/DBN.BMP,resources/DR.BMP,Door3,-0.281690952,-0.042216061,1,0,0,1.2296,optionLeft,70,3625,2,23,0,23,0,1,,,,,,,,,,,,,,,,,,,,,,,,,,,,,,,,,,,,,,,
,,,,,,,,2023-08-16_08h54.19.109,HF_wild_card,2022.2.4,Win32,59.8372427,57b889c1e163b10001abf340,64d2fd46c836a06233681665,64dc7ec5a88e06ed0dc49382,,,,,,,decisionTrl,resources/DG.BMP,resources/DR.BMP,Door1,-0.259484133,-0.09495723,1,0,0,1.9295,optionLeft,30,3655,2,24,0,24,0,1,,,,,,,,,,,,,,,,,,,,,,,,,,,,,,,,,,,,,,,
,,,,,,,,2023-08-16_08h54.19.109,HF_wild_card,2022.2.4,Win32,59.8372427,57b889c1e163b10001abf340,64d2fd46c836a06233681665,64dc7ec5a88e06ed0dc49382,,,,,,,sngl,resources/DBN.BMP,resources/Empty.png,Door3,-0.310374719,-0.048693048,1,0,0,1.0905,optionLeft,70,3725,2,25,0,25,0,1,,,,,,,,,,,,,,,,,,,,,,,,,,,,,,,,,,,,,,,
,,,,,,,,2023-08-16_08h54.19.109,HF_wild_card,2022.2.4,Win32,59.8372427,57b889c1e163b10001abf340,64d2fd46c836a06233681665,64dc7ec5a88e06ed0dc49382,,,,,,,decisionTrl,resources/DY.BMP,resources/DR.BMP,WildCard_NonEx,-0.271512835,-0.082003256,1,0,0,2.7431,optionLeft,45,3770,2,26,0,26,0,1,,,,,,,,,,,,,,,,,,,,,,,,,,,,,,,,,,,,,,,
,,,,,,,,2023-08-16_08h54.19.109,HF_wild_card,2022.2.4,Win32,59.8372427,57b889c1e163b10001abf340,64d2fd46c836a06233681665,64dc7ec5a88e06ed0dc49382,,,,,,,decisionTrl,resources/DBN.BMP,resources/DP.BMP,Door3,-0.336282667,-0.074600996,1,0,0,1.1137,optionLeft,70,3840,2,27,0,27,0,1,,,,,,,,,,,,,,,,,,,,,,,,,,,,,,,,,,,,,,,
,,,,,,,,2023-08-16_08h54.19.109,HF_wild_card,2022.2.4,Win32,59.8372427,57b889c1e163b10001abf340,64d2fd46c836a06233681665,64dc7ec5a88e06ed0dc49382,,,,,,,decisionTrl,resources/DR.BMP,resources/DY.BMP,WildCard_NonEx,0.298461759,-0.137520244,1,0,0,2.1793,optionRight,45,3885,2,28,0,28,0,1,,,,,,,,,,,,,,,,,,,,,,,,,,,,,,,,,,,,,,,
,,,,,,,,2023-08-16_08h54.19.109,HF_wild_card,2022.2.4,Win32,59.8372427,57b889c1e163b10001abf340,64d2fd46c836a06233681665,64dc7ec5a88e06ed0dc49382,,,,,,,decisionTrl,resources/DY.BMP,resources/DP.BMP,WildCard_NonEx,-0.27706451,-0.104210113,1,0,0,2.5114,optionLeft,55,3940,2,29,0,29,0,1,,,,,,,,,,,,,,,,,,,,,,,,,,,,,,,,,,,,,,,
,,,,,,,,2023-08-16_08h54.19.109,HF_wild_card,2022.2.4,Win32,59.8372427,57b889c1e163b10001abf340,64d2fd46c836a06233681665,64dc7ec5a88e06ed0dc49382,,,,,,,ctch,resources/DG.BMP,resources/DP.BMP,Door1,-0.306673589,-0.068124009,1,0,0,1.5793,optionLeft,30,3970,2,30,0,30,0,1,,,,,,,,,,,,,,,,,,,,,,,,,,,,,,,,,,,,,,,
,,,,,,,,2023-08-16_08h54.19.109,HF_wild_card,2022.2.4,Win32,59.8372427,57b889c1e163b10001abf340,64d2fd46c836a06233681665,64dc7ec5a88e06ed0dc49382,,,,,,,sngl,resources/DP.BMP,resources/Empty.png,Door4,-0.332581537,-0.056095308,1,0,0,1.2064,optionLeft,60,4030,2,31,0,31,0,1,,,,,,,,,,,,,,,,,,,,,,,,,,,,,,,,,,,,,,,
,,,,,,,,2023-08-16_08h54.19.109,HF_wild_card,2022.2.4,Win32,59.8372427,57b889c1e163b10001abf340,64d2fd46c836a06233681665,64dc7ec5a88e06ed0dc49382,,,,,,,decisionTrl,resources/DP.BMP,resources/DBN.BMP,Door3,0.267927408,-0.032037944,1,0,0,1.9681,optionRight,70,4100,2,32,0,32,0,1,,,,,,,,,,,,,,,,,,,,,,,,,,,,,,,,,,,,,,,
,,,,,,,,2023-08-16_08h54.19.109,HF_wild_card,2022.2.4,Win32,59.8372427,57b889c1e163b10001abf340,64d2fd46c836a06233681665,64dc7ec5a88e06ed0dc49382,,,,,,,decisionTrl,resources/DP.BMP,resources/DBN.BMP,Door3,0.32899611,-0.059796438,1,0,0,1.6129,optionRight,70,4170,2,33,0,33,0,1,,,,,,,,,,,,,,,,,,,,,,,,,,,,,,,,,,,,,,,
,,,,,,,,2023-08-16_08h54.19.109,HF_wild_card,2022.2.4,Win32,59.8372427,57b889c1e163b10001abf340,64d2fd46c836a06233681665,64dc7ec5a88e06ed0dc49382,,,,,,,sngl,resources/DY.BMP,resources/Empty.png,WildCard_NonEx,-0.314075849,-0.044991918,1,0,0,1.179,optionLeft,45,4215,2,34,0,34,0,1,,,,,,,,,,,,,,,,,,,,,,,,,,,,,,,,,,,,,,,
,,,,,,,,2023-08-16_08h54.19.109,HF_wild_card,2022.2.4,Win32,59.8372427,57b889c1e163b10001abf340,64d2fd46c836a06233681665,64dc7ec5a88e06ed0dc49382,,,,,,,decisionTrl,resources/DR.BMP,resources/DG.BMP,Door1,0.401168318,-0.10606062,1,0,0,2.3413,optionRight,30,4245,2,35,0,35,0,1,,,,,,,,,,,,,,,,,,,,,,,,,,,,,,,,,,,,,,,
,,,,,,,,2023-08-16_08h54.19.109,HF_wild_card,2022.2.4,Win32,59.8372427,57b889c1e163b10001abf340,64d2fd46c836a06233681665,64dc7ec5a88e06ed0dc49382,,,,,,,decisionTrl,resources/DG.BMP,resources/DR.BMP,Door1,-0.306673589,-0.024635684,1,0,0,1.6064,optionLeft,30,4275,2,36,0,36,0,1,,,,,,,,,,,,,,,,,,,,,,,,,,,,,,,,,,,,,,,
,,,,,,,,2023-08-16_08h54.19.109,HF_wild_card,2022.2.4,Win32,59.8372427,57b889c1e163b10001abf340,64d2fd46c836a06233681665,64dc7ec5a88e06ed0dc49382,,,,,,,sngl,resources/DY.BMP,resources/Empty.png,WildCard_NonEx,-0.316851706,-0.028336814,1,0,0,1.0951,optionLeft,55,4330,2,37,0,37,0,1,,,,,,,,,,,,,,,,,,,,,,,,,,,,,,,,,,,,,,,
,,,,,,,,2023-08-16_08h54.19.109,HF_wild_card,2022.2.4,Win32,59.8372427,57b889c1e163b10001abf340,64d2fd46c836a06233681665,64dc7ec5a88e06ed0dc49382,,,,,,,ctch,resources/DG.BMP,resources/DP.BMP,Door1,-0.295570199,-0.053319528,1,0,0,3.6618,optionLeft,30,4360,2,38,0,38,0,1,,,,,,,,,,,,,,,,,,,,,,,,,,,,,,,,,,,,,,,
,,,,,,,,2023-08-16_08h54.19.109,HF_wild_card,2022.2.4,Win32,59.8372427,57b889c1e163b10001abf340,64d2fd46c836a06233681665,64dc7ec5a88e06ed0dc49382,,,,,,,decisionTrl,resources/DBN.BMP,resources/DP.BMP,Door3,-0.32240342,-0.047767775,1,0,0,1.1958,optionLeft,70,4430,2,39,0,39,0,1,,,,,,,,,,,,,,,,,,,,,,,,,,,,,,,,,,,,,,,
,,,,,,,,2023-08-16_08h54.19.109,HF_wild_card,2022.2.4,Win32,59.8372427,57b889c1e163b10001abf340,64d2fd46c836a06233681665,64dc7ec5a88e06ed0dc49382,,,,,,,sngl,resources/Empty.png,resources/DR.BMP,Door2,0.310490421,-0.064422879,1,0,0,1.2113,optionRight,40,4470,2,40,0,40,0,1,,,,,,,,,,,,,,,,,,,,,,,,,,,,,,,,,,,,,,,
,,,,,,,,2023-08-16_08h54.19.109,HF_wild_card,2022.2.4,Win32,59.8372427,57b889c1e163b10001abf340,64d2fd46c836a06233681665,64dc7ec5a88e06ed0dc49382,,,,,,,ctch,resources/DBN.BMP,resources/DR.BMP,Door3,-0.309449446,-0.044066645,1,0,0,1.2955,optionLeft,70,4540,2,41,0,41,0,1,,,,,,,,,,,,,,,,,,,,,,,,,,,,,,,,,,,,,,,
,,,,,,,,2023-08-16_08h54.19.109,HF_wild_card,2022.2.4,Win32,59.8372427,57b889c1e163b10001abf340,64d2fd46c836a06233681665,64dc7ec5a88e06ed0dc49382,,,,,,,decisionTrl,resources/DR.BMP,resources/DG.BMP,Door2,-0.351087187,-0.093106646,1,0,0,2.4124,optionLeft,20,4560,2,42,0,42,0,1,,,,,,,,,,,,,,,,,,,,,,,,,,,,,,,,,,,,,,,
,,,,,,,,2023-08-16_08h54.19.109,HF_wild_card,2022.2.4,Win32,59.8372427,57b889c1e163b10001abf340,64d2fd46c836a06233681665,64dc7ec5a88e06ed0dc49382,,,,,,,ctch,resources/DR.BMP,resources/DBN.BMP,Door3,0.355829292,-0.090330789,1,0,0,1.2294,optionRight,70,4630,2,43,0,43,0,1,,,,,,,,,,,,,,,,,,,,,,,,,,,,,,,,,,,,,,,
,,,,,,,,2023-08-16_08h54.19.109,HF_wild_card,2022.2.4,Win32,59.8372427,57b889c1e163b10001abf340,64d2fd46c836a06233681665,64dc7ec5a88e06ed0dc49382,,,,,,,,,,,,,,,,,,,,,,,,,,1,0,1,0,1,,,,,,,,,,,,,,,,,,,,,,,,,,,,,,,,,,
,,,,,,,,2023-08-16_08h54.19.109,HF_wild_card,2022.2.4,Win32,59.8372427,57b889c1e163b10001abf340,64d2fd46c836a06233681665,64dc7ec5a88e06ed0dc49382,,,,,,,decisionTrl,resources/DBN.BMP,resources/DY.BMP,Door3,-0.293719614,-0.159727063,1,0,0,1.2119,optionLeft,70,4700,3,0,0,0,0,1,,,,,,,,,,,,,,,,,,,,,,,,,,,,,,,,,,,,,,,
,,,,,,,,2023-08-16_08h54.19.109,HF_wild_card,2022.2.4,Win32,59.8372427,57b889c1e163b10001abf340,64d2fd46c836a06233681665,64dc7ec5a88e06ed0dc49382,,,,,,,decisionTrl,resources/DY.BMP,resources/DR.BMP,WildCard_NonEx,-0.259484133,-0.075526269,1,0,0,1.7073,optionLeft,45,4745,3,1,0,1,0,1,,,,,,,,,,,,,,,,,,,,,,,,,,,,,,,,,,,,,,,
,,,,,,,,2023-08-16_08h54.19.109,HF_wild_card,2022.2.4,Win32,59.8372427,57b889c1e163b10001abf340,64d2fd46c836a06233681665,64dc7ec5a88e06ed0dc49382,,,,,,,sngl,resources/Empty.png,resources/DY.BMP,WildCard_NonEx,0.329921499,-0.067198775,1,0,0,1.2683,optionRight,55,4800,3,2,0,2,0,1,,,,,,,,,,,,,,,,,,,,,,,,,,,,,,,,,,,,,,,
,,,,,,,,2023-08-16_08h54.19.109,HF_wild_card,2022.2.4,Win32,59.8372427,57b889c1e163b10001abf340,64d2fd46c836a06233681665,64dc7ec5a88e06ed0dc49382,,,,,,,ctch,resources/DP.BMP,resources/DG.BMP,Door4,-0.319627563,-0.058871165,1,0,0,1.5845,optionLeft,60,4860,3,3,0,3,0,1,,,,,,,,,,,,,,,,,,,,,,,,,,,,,,,,,,,,,,,
,,,,,,,,2023-08-16_08h54.19.109,HF_wild_card,2022.2.4,Win32,59.8372427,57b889c1e163b10001abf340,64d2fd46c836a06233681665,64dc7ec5a88e06ed0dc49382,,,,,,,decisionTrl,resources/DR.BMP,resources/DG.BMP,Door1,0.277180213,-0.068124009,1,0,0,2.6629,optionRight,30,4890,3,4,0,4,0,1,,,,,,,,,,,,,,,,,,,,,,,,,,,,,,,,,,,,,,,
,,,,,,,,2023-08-16_08h54.19.109,HF_wild_card,2022.2.4,Win32,59.8372427,57b889c1e163b10001abf340,64d2fd46c836a06233681665,64dc7ec5a88e06ed0dc49382,,,,,,,ctch,resources/DR.BMP,resources/DBN.BMP,Door3,0.284582473,-0.025560957,1,0,0,1.6138,optionRight,70,4960,3,5,0,5,0,1,,,,,,,,,,,,,,,,,,,,,,,,,,,,,,,,,,,,,,,
,,,,,,,,2023-08-16_08h54.19.109,HF_wild_card,2022.2.4,Win32,59.8372427,57b889c1e163b10001abf340,64d2fd46c836a06233681665,64dc7ec5a88e06ed0dc49382,,,,,,,decisionTrl,resources/DP.BMP,resources/DBN.BMP,Door3,0.316042136,-0.105135347,1,0,0,1.1582,optionRight,70,5030,3,6,0,6,0,1,,,,,,,,,,,,,,,,,,,,,,,,,,,,,,,,,,,,,,,
,,,,,,,,2023-08-16_08h54.19.109,HF_wild_card,2022.2.4,Win32,59.8372427,57b889c1e163b10001abf340,64d2fd46c836a06233681665,64dc7ec5a88e06ed0dc49382,,,,,,,sngl,resources/Empty.png,resources/DP.BMP,Door4,0.300312304,-0.068124009,1,0,0,1.3147,optionRight,60,5090,3,7,0,7,0,1,,,,,,,,,,,,,,,,,,,,,,,,,,,,,,,,,,,,,,,
,,,,,,,,2023-08-16_08h54.19.109,HF_wild_card,2022.2.4,Win32,59.8372427,57b889c1e163b10001abf340,64d2fd46c836a06233681665,64dc7ec5a88e06ed0dc49382,,,,,,,ctch,resources/DG.BMP,resources/DP.BMP,Door4,0.337323759,-0.077376892,1,0,0,1.4798,optionRight,80,5170,3,8,0,8,0,1,,,,,,,,,,,,,,,,,,,,,,,,,,,,,,,,,,,,,,,
,,,,,,,,2023-08-16_08h54.19.109,HF_wild_card,2022.2.4,Win32,59.8372427,57b889c1e163b10001abf340,64d2fd46c836a06233681665,64dc7ec5a88e06ed0dc49382,,,,,,,sngl,resources/DG.BMP,resources/Empty.png,Door1,-0.312225303,-0.033888528,1,0,0,1.1762,optionLeft,30,5200,3,9,0,9,0,1,,,,,,,,,,,,,,,,,,,,,,,,,,,,,,,,,,,,,,,
,,,,,,,,2023-08-16_08h54.19.109,HF_wild_card,2022.2.4,Win32,59.8372427,57b889c1e163b10001abf340,64d2fd46c836a06233681665,64dc7ec5a88e06ed0dc49382,,,,,,,ctch,resources/DBN.BMP,resources/DR.BMP,Door3,-0.3251792,-0.034813801,1,0,0,1.1903,optionLeft,70,5270,3,10,0,10,0,1,,,,,,,,,,,,,,,,,,,,,,,,,,,,,,,,,,,,,,,
,,,,,,,,2023-08-16_08h54.19.109,HF_wild_card,2022.2.4,Win32,59.8372427,57b889c1e163b10001abf340,64d2fd46c836a06233681665,64dc7ec5a88e06ed0dc49382,,,,,,,decisionTrl,resources/DY.BMP,resources/DP.BMP,Door4,0.31419159,-0.0912561,1,0,0,2.3222,optionRight,80,5350,3,11,0,11,0,1,,,,,,,,,,,,,,,,,,,,,,,,,,,,,,,,,,,,,,,
,,,,,,,,2023-08-16_08h54.19.109,HF_wild_card,2022.2.4,Win32,59.8372427,57b889c1e163b10001abf340,64d2fd46c836a06233681665,64dc7ec5a88e06ed0dc49382,,,,,,,decisionTrl,resources/DP.BMP,resources/DBN.BMP,Door3,0.276255057,-0.056095308,1,0,0,1.63,optionRight,70,5420,3,12,0,12,0,1,,,,,,,,,,,,,,,,,,,,,,,,,,,,,,,,,,,,,,,
,,,,,,,,2023-08-16_08h54.19.109,HF_wild_card,2022.2.4,Win32,59.8372427,57b889c1e163b10001abf340,64d2fd46c836a06233681665,64dc7ec5a88e06ed0dc49382,,,,,,,decisionTrl,resources/DBN.BMP,resources/DP.BMP,Door3,-0.303897731,-0.082003256,1,0,0,1.491,optionLeft,70,5490,3,13,0,13,0,1,,,,,,,,,,,,,,,,,,,,,,,,,,,,,,,,,,,,,,,
,,,,,,,,2023-08-16_08h54.19.109,HF_wild_card,2022.2.4,Win32,59.8372427,57b889c1e163b10001abf340,64d2fd46c836a06233681665,64dc7ec5a88e06ed0dc49382,,,,,,,decisionTrl,resources/DR.BMP,resources/DG.BMP,Door1,0.305864019,-0.11808936,1,0,0,1.9513,optionRight,30,5520,3,14,0,14,0,1,,,,,,,,,,,,,,,,,,,,,,,,,,,,,,,,,,,,,,,
,,,,,,,,2023-08-16_08h54.19.109,HF_wild_card,2022.2.4,Win32,59.8372427,57b889c1e163b10001abf340,64d2fd46c836a06233681665,64dc7ec5a88e06ed0dc49382,,,,,,,sngl,resources/Empty.png,resources/DY.BMP,WildCard_NonEx,0.311415733,-0.025560957,1,0,0,1.2289,optionRight,45,5565,3,15,0,15,0,1,,,,,,,,,,,,,,,,,,,,,,,,,,,,,,,,,,,,,,,
,,,,,,,,2023-08-16_08h54.19.109,HF_wild_card,2022.2.4,Win32,59.8372427,57b889c1e163b10001abf340,64d2fd46c836a06233681665,64dc7ec5a88e06ed0dc49382,,,,,,,decisionTrl,resources/DBN.BMP,resources/DP.BMP,Door3,-0.363115888,-0.033888528,1,0,0,1.1904,optionLeft,70,5635,3,16,0,16,0,1,,,,,,,,,,,,,,,,,,,,,,,,,,,,,,,,,,,,,,,
,,,,,,,,2023-08-16_08h54.19.109,HF_wild_card,2022.2.4,Win32,59.8372427,57b889c1e163b10001abf340,64d2fd46c836a06233681665,64dc7ec5a88e06ed0dc49382,,,,,,,decisionTrl,resources/DBN.BMP,resources/DP.BMP,Door4,0.36045585,-0.086629659,1,0,0,1.6322,optionRight,60,5695,3,17,0,17,0,1,,,,,,,,,,,,,,,,,,,,,,,,,,,,,,,,,,,,,,,
,,,,,,,,2023-08-16_08h54.19.109,HF_wild_card,2022.2.4,Win32,59.8372427,57b889c1e163b10001abf340,64d2fd46c836a06233681665,64dc7ec5a88e06ed0dc49382,,,,,,,sngl,resources/DP.BMP,resources/Empty.png,Door4,-0.339983797,-0.055170035,1,0,0,1.2567,optionLeft,80,5775,3,18,0,18,0,1,,,,,,,,,,,,,,,,,,,,,,,,,,,,,,,,,,,,,,,
,,,,,,,,2023-08-16_08h54.19.109,HF_wild_card,2022.2.4,Win32,59.8372427,57b889c1e163b10001abf340,64d2fd46c836a06233681665,64dc7ec5a88e06ed0dc49382,,,,,,,decisionTrl,resources/DR.BMP,resources/DY.BMP,WildCard_NonEx,0.311415733,-0.057020658,1,0,0,1.8353,optionRight,45,5820,3,19,0,19,0,1,,,,,,,,,,,,,,,,,,,,,,,,,,,,,,,,,,,,,,,
,,,,,,,,2023-08-16_08h54.19.109,HF_wild_card,2022.2.4,Win32,59.8372427,57b889c1e163b10001abf340,64d2fd46c836a06233681665,64dc7ec5a88e06ed0dc49382,,,,,,,decisionTrl,resources/DG.BMP,resources/DR.BMP,Door1,-0.293719614,-0.036664424,1,0,0,1.4101,optionLeft,30,5850,3,20,0,20,0,1,,,,,,,,,,,,,,,,,,,,,,,,,,,,,,,,,,,,,,,
,,,,,,,,2023-08-16_08h54.19.109,HF_wild_card,2022.2.4,Win32,59.8372427,57b889c1e163b10001abf340,64d2fd46c836a06233681665,64dc7ec5a88e06ed0dc49382,,,,,,,decisionTrl,resources/DG.BMP,resources/DR.BMP,Door1,-0.283541497,-0.081077983,1,0,0,2.5629,optionLeft,30,5880,3,21,0,21,0,1,,,,,,,,,,,,,,,,,,,,,,,,,,,,,,,,,,,,,,,
,,,,,,,,2023-08-16_08h54.19.109,HF_wild_card,2022.2.4,Win32,59.8372427,57b889c1e163b10001abf340,64d2fd46c836a06233681665,64dc7ec5a88e06ed0dc49382,,,,,,,decisionTrl,resources/DP.BMP,resources/DY.BMP,Door4,-0.3446102,-0.093106646,1,0,0,1.991,optionLeft,80,5960,3,22,0,22,0,1,,,,,,,,,,,,,,,,,,,,,,,,,,,,,,,,,,,,,,,
,,,,,,,,2023-08-16_08h54.19.109,HF_wild_card,2022.2.4,Win32,59.8372427,57b889c1e163b10001abf340,64d2fd46c836a06233681665,64dc7ec5a88e06ed0dc49382,,,,,,,ctch,resources/DR.BMP,resources/DBN.BMP,Door3,0.304013473,-0.071825139,1,0,0,1.3918,optionRight,70,6030,3,23,0,23,0,1,,,,,,,,,,,,,,,,,,,,,,,,,,,,,,,,,,,,,,,
,,,,,,,,2023-08-16_08h54.19.109,HF_wild_card,2022.2.4,Win32,59.8372427,57b889c1e163b10001abf340,64d2fd46c836a06233681665,64dc7ec5a88e06ed0dc49382,,,,,,,decisionTrl,resources/DP.BMP,resources/DBN.BMP,Door3,0.29476059,-0.038514931,1,0,0,1.3963,optionRight,70,6100,3,24,0,24,0,1,,,,,,,,,,,,,,,,,,,,,,,,,,,,,,,,,,,,,,,
,,,,,,,,2023-08-16_08h54.19.109,HF_wild_card,2022.2.4,Win32,59.8372427,57b889c1e163b10001abf340,64d2fd46c836a06233681665,64dc7ec5a88e06ed0dc49382,,,,,,,ctch,resources/DG.BMP,resources/DP.BMP,Door4,0.274404356,-0.054244762,1,0,0,2.7515,optionRight,60,6160,3,25,0,25,0,1,,,,,,,,,,,,,,,,,,,,,,,,,,,,,,,,,,,,,,,
,,,,,,,,2023-08-16_08h54.19.109,HF_wild_card,2022.2.4,Win32,59.8372427,57b889c1e163b10001abf340,64d2fd46c836a06233681665,64dc7ec5a88e06ed0dc49382,,,,,,,sngl,resources/DY.BMP,resources/Empty.png,WildCard_NonEx,-0.295570199,-0.057020658,1,0,0,1.1966,optionLeft,55,6215,3,26,0,26,0,1,,,,,,,,,,,,,,,,,,,,,,,,,,,,,,,,,,,,,,,
,,,,,,,,2023-08-16_08h54.19.109,HF_wild_card,2022.2.4,Win32,59.8372427,57b889c1e163b10001abf340,64d2fd46c836a06233681665,64dc7ec5a88e06ed0dc49382,,,,,,,decisionTrl,resources/DY.BMP,resources/DG.BMP,Door1,0.27255381,-0.014457567,1,0,0,3.7604,optionRight,30,6245,3,27,0,27,0,1,,,,,,,,,,,,,,,,,,,,,,,,,,,,,,,,,,,,,,,
,,,,,,,,2023-08-16_08h54.19.109,HF_wild_card,2022.2.4,Win32,59.8372427,57b889c1e163b10001abf340,64d2fd46c836a06233681665,64dc7ec5a88e06ed0dc49382,,,,,,,sngl,resources/DBN.BMP,resources/Empty.png,Door3,-0.301121835,-0.051468905,1,0,0,1.179,optionLeft,70,6315,3,28,0,28,0,1,,,,,,,,,,,,,,,,,,,,,,,,,,,,,,,,,,,,,,,
,,,,,,,,2023-08-16_08h54.19.109,HF_wild_card,2022.2.4,Win32,59.8372427,57b889c1e163b10001abf340,64d2fd46c836a06233681665,64dc7ec5a88e06ed0dc49382,,,,,,,decisionTrl,resources/DG.BMP,resources/DR.BMP,Door1,-0.315001082,-0.038514931,1,0,0,2.2464,optionLeft,30,6345,3,29,0,29,0,1,,,,,,,,,,,,,,,,,,,,,,,,,,,,,,,,,,,,,,,
,,,,,,,,2023-08-16_08h54.19.109,HF_wild_card,2022.2.4,Win32,59.8372427,57b889c1e163b10001abf340,64d2fd46c836a06233681665,64dc7ec5a88e06ed0dc49382,,,,,,,sngl,resources/DR.BMP,resources/Empty.png,Door2,-0.300196602,-0.077376892,1,0,0,1.1123,optionLeft,40,6385,3,30,0,30,0,1,,,,,,,,,,,,,,,,,,,,,,,,,,,,,,,,,,,,,,,
,,,,,,,,2023-08-16_08h54.19.109,HF_wild_card,2022.2.4,Win32,59.8372427,57b889c1e163b10001abf340,64d2fd46c836a06233681665,64dc7ec5a88e06ed0dc49382,,,,,,,decisionTrl,resources/DG.BMP,resources/DY.BMP,WildCard_NonEx,0.328070798,-0.060721749,1,0,0,1.9617,optionRight,45,6430,3,31,0,31,0,1,,,,,,,,,,,,,,,,,,,,,,,,,,,,,,,,,,,,,,,
,,,,,,,,2023-08-16_08h54.19.109,HF_wild_card,2022.2.4,Win32,59.8372427,57b889c1e163b10001abf340,64d2fd46c836a06233681665,64dc7ec5a88e06ed0dc49382,,,,,,,sngl,resources/DY.BMP,resources/Empty.png,WildCard_NonEx,-0.304822965,-0.059796438,1,0,0,1.0792,optionLeft,45,6475,3,32,0,32,0,1,,,,,,,,,,,,,,,,,,,,,,,,,,,,,,,,,,,,,,,
,,,,,,,,2023-08-16_08h54.19.109,HF_wild_card,2022.2.4,Win32,59.8372427,57b889c1e163b10001abf340,64d2fd46c836a06233681665,64dc7ec5a88e06ed0dc49382,,,,,,,decisionTrl,resources/DP.BMP,resources/DBN.BMP,Door3,0.27995607,-0.061647022,1,0,0,1.2963,optionRight,70,6545,3,33,0,33,0,1,,,,,,,,,,,,,,,,,,,,,,,,,,,,,,,,,,,,,,,
,,,,,,,,2023-08-16_08h54.19.109,HF_wild_card,2022.2.4,Win32,59.8372427,57b889c1e163b10001abf340,64d2fd46c836a06233681665,64dc7ec5a88e06ed0dc49382,,,,,,,decisionTrl,resources/DBN.BMP,resources/DP.BMP,Door3,-0.287242627,-0.057020658,1,0,0,1.2296,optionLeft,70,6615,3,34,0,34,0,1,,,,,,,,,,,,,,,,,,,,,,,,,,,,,,,,,,,,,,,
,,,,,,,,2023-08-16_08h54.19.109,HF_wild_card,2022.2.4,Win32,59.8372427,57b889c1e163b10001abf340,64d2fd46c836a06233681665,64dc7ec5a88e06ed0dc49382,,,,,,,sngl,resources/Empty.png,resources/DG.BMP,Door1,0.283657239,-0.060721749,1,0,0,1.1461,optionRight,30,6645,3,35,0,35,0,1,,,,,,,,,,,,,,,,,,,,,,,,,,,,,,,,,,,,,,,
,,,,,,,,2023-08-16_08h54.19.109,HF_wild_card,2022.2.4,Win32,59.8372427,57b889c1e163b10001abf340,64d2fd46c836a06233681665,64dc7ec5a88e06ed0dc49382,,,,,,,sngl,resources/Empty.png,resources/DBN.BMP,Door3,0.312340967,-0.037589658,1,0,0,1.1791,optionRight,70,6715,3,36,0,36,0,1,,,,,,,,,,,,,,,,,,,,,,,,,,,,,,,,,,,,,,,
,,,,,,,,2023-08-16_08h54.19.109,HF_wild_card,2022.2.4,Win32,59.8372427,57b889c1e163b10001abf340,64d2fd46c836a06233681665,64dc7ec5a88e06ed0dc49382,,,,,,,ctch,resources/DBN.BMP,resources/DR.BMP,Door3,-0.338133213,-0.035739074,1,0,0,1.1289,optionLeft,70,6785,3,37,0,37,0,1,,,,,,,,,,,,,,,,,,,,,,,,,,,,,,,,,,,,,,,
,,,,,,,,2023-08-16_08h54.19.109,HF_wild_card,2022.2.4,Win32,59.8372427,57b889c1e163b10001abf340,64d2fd46c836a06233681665,64dc7ec5a88e06ed0dc49382,,,,,,,decisionTrl,resources/DG.BMP,resources/DR.BMP,Door2,0.282731927,-0.081077983,1,0,0,3.2457,optionRight,20,6805,3,38,0,38,0,1,,,,,,,,,,,,,,,,,,,,,,,,,,,,,,,,,,,,,,,
,,,,,,,,2023-08-16_08h54.19.109,HF_wild_card,2022.2.4,Win32,59.8372427,57b889c1e163b10001abf340,64d2fd46c836a06233681665,64dc7ec5a88e06ed0dc49382,,,,,,,decisionTrl,resources/DR.BMP,resources/DG.BMP,Door1,0.300312304,-0.093106646,1,0,0,1.896,optionRight,30,6835,3,39,0,39,0,1,,,,,,,,,,,,,,,,,,,,,,,,,,,,,,,,,,,,,,,
,,,,,,,,2023-08-16_08h54.19.109,HF_wild_card,2022.2.4,Win32,59.8372427,57b889c1e163b10001abf340,64d2fd46c836a06233681665,64dc7ec5a88e06ed0dc49382,,,,,,,ctch,resources/DP.BMP,resources/DG.BMP,Door4,-0.339983797,-0.046842541,1,0,0,1.279,optionLeft,80,6915,3,40,0,40,0,1,,,,,,,,,,,,,,,,,,,,,,,,,,,,,,,,,,,,,,,
,,,,,,,,2023-08-16_08h54.19.109,HF_wild_card,2022.2.4,Win32,59.8372427,57b889c1e163b10001abf340,64d2fd46c836a06233681665,64dc7ec5a88e06ed0dc49382,,,,,,,sngl,resources/Empty.png,resources/DR.BMP,Door2,0.29476059,-0.050543632,1,0,0,1.2292,optionRight,20,6935,3,41,0,41,0,1,,,,,,,,,,,,,,,,,,,,,,,,,,,,,,,,,,,,,,,
,,,,,,,,2023-08-16_08h54.19.109,HF_wild_card,2022.2.4,Win32,59.8372427,57b889c1e163b10001abf340,64d2fd46c836a06233681665,64dc7ec5a88e06ed0dc49382,,,,,,,decisionTrl,resources/DY.BMP,resources/DBN.BMP,Door3,0.304013473,-0.023710411,1,0,0,1.4624,optionRight,70,7005,3,42,0,42,0,1,,,,,,,,,,,,,,,,,,,,,,,,,,,,,,,,,,,,,,,
,,,,,,,,2023-08-16_08h54.19.109,HF_wild_card,2022.2.4,Win32,59.8372427,57b889c1e163b10001abf340,64d2fd46c836a06233681665,64dc7ec5a88e06ed0dc49382,,,,,,,decisionTrl,resources/DR.BMP,resources/DG.BMP,Door1,0.291984733,-0.056095308,1,0,0,2.2289,optionRight,30,7035,3,43,0,43,0,1,,,,,,,,,,,,,,,,,,,,,,,,,,,,,,,,,,,,,,,
,,,,,,,,2023-08-16_08h54.19.109,HF_wild_card,2022.2.4,Win32,59.8372427,57b889c1e163b10001abf340,64d2fd46c836a06233681665,64dc7ec5a88e06ed0dc49382,,,,,,,,,,,,,,,,,,,,,,,,,,2,0,2,0,1,,,,,,,,,,,,,,,,,,,,,,,,,,,,,,,,,,
,,,,,,,,2023-08-16_08h54.19.109,HF_wild_card,2022.2.4,Win32,59.8372427,57b889c1e163b10001abf340,64d2fd46c836a06233681665,64dc7ec5a88e06ed0dc49382,,,,,,,sngl,resources/DB.BMP,resources/Empty.png,WildCard_Ex,-0.346460784,-0.147698361,1,0,0,1.2096,optionLeft,55,7090,4,0,0,0,0,1,,,,,,,,,,,,,,,,,,,,,,,,,,,,,,,,,,,,,,,
,,,,,,,,2023-08-16_08h54.19.109,HF_wild_card,2022.2.4,Win32,59.8372427,57b889c1e163b10001abf340,64d2fd46c836a06233681665,64dc7ec5a88e06ed0dc49382,,,,,,,sngl,resources/DB.BMP,resources/Empty.png,WildCard_Ex,-0.342759654,-0.035739074,1,0,0,1.062,optionLeft,45,7135,4,1,0,1,0,1,,,,,,,,,,,,,,,,,,,,,,,,,,,,,,,,,,,,,,,
,,,,,,,,2023-08-16_08h54.19.109,HF_wild_card,2022.2.4,Win32,59.8372427,57b889c1e163b10001abf340,64d2fd46c836a06233681665,64dc7ec5a88e06ed0dc49382,,,,,,,decisionTrl,resources/DR.BMP,resources/DB.BMP,WildCard_Ex,0.317892681,-0.067198775,1,0,0,2.0459,optionRight,45,7180,4,2,0,2,0,1,,,,,,,,,,,,,,,,,,,,,,,,,,,,,,,,,,,,,,,
,,,,,,,,2023-08-16_08h54.19.109,HF_wild_card,2022.2.4,Win32,59.8372427,57b889c1e163b10001abf340,64d2fd46c836a06233681665,64dc7ec5a88e06ed0dc49382,,,,,,,sngl,resources/Empty.png,resources/DG.BMP,Door1,0.27995607,-0.035739074,1,0,0,1.212,optionRight,30,7210,4,3,0,3,0,1,,,,,,,,,,,,,,,,,,,,,,,,,,,,,,,,,,,,,,,
,,,,,,,,2023-08-16_08h54.19.109,HF_wild_card,2022.2.4,Win32,59.8372427,57b889c1e163b10001abf340,64d2fd46c836a06233681665,64dc7ec5a88e06ed0dc49382,,,,,,,sngl,resources/Empty.png,resources/DB.BMP,WildCard_Ex,0.261450382,-0.038514931,1,0,0,1.1649,optionRight,55,7265,4,4,0,4,0,1,,,,,,,,,,,,,,,,,,,,,,,,,,,,,,,,,,,,,,,
,,,,,,,,2023-08-16_08h54.19.109,HF_wild_card,2022.2.4,Win32,59.8372427,57b889c1e163b10001abf340,64d2fd46c836a06233681665,64dc7ec5a88e06ed0dc49382,,,,,,,ctch,resources/DP.BMP,resources/DG.BMP,Door4,-0.297420744,-0.090330789,1,0,0,1.8616,optionLeft,60,7325,4,5,0,5,0,1,,,,,,,,,,,,,,,,,,,,,,,,,,,,,,,,,,,,,,,
,,,,,,,,2023-08-16_08h54.19.109,HF_wild_card,2022.2.4,Win32,59.8372427,57b889c1e163b10001abf340,64d2fd46c836a06233681665,64dc7ec5a88e06ed0dc49382,,,,,,,decisionTrl,resources/DR.BMP,resources/DG.BMP,Door2,-0.311299953,-0.056095308,1,0,0,1.861,optionLeft,20,7345,4,6,0,6,0,1,,,,,,,,,,,,,,,,,,,,,,,,,,,,,,,,,,,,,,,
,,,,,,,,2023-08-16_08h54.19.109,HF_wild_card,2022.2.4,Win32,59.8372427,57b889c1e163b10001abf340,64d2fd46c836a06233681665,64dc7ec5a88e06ed0dc49382,,,,,,,sngl,resources/DR.BMP,resources/Empty.png,Door2,-0.295570199,-0.060721749,1,0,0,1.1457,optionLeft,20,7365,4,7,0,7,0,1,,,,,,,,,,,,,,,,,,,,,,,,,,,,,,,,,,,,,,,
,,,,,,,,2023-08-16_08h54.19.109,HF_wild_card,2022.2.4,Win32,59.8372427,57b889c1e163b10001abf340,64d2fd46c836a06233681665,64dc7ec5a88e06ed0dc49382,,,,,,,ctch,resources/DG.BMP,resources/DP.BMP,Door4,0.317892681,-0.105135347,1,0,0,1.7292,optionRight,80,7445,4,8,0,8,0,1,,,,,,,,,,,,,,,,,,,,,,,,,,,,,,,,,,,,,,,
,,,,,,,,2023-08-16_08h54.19.109,HF_wild_card,2022.2.4,Win32,59.8372427,57b889c1e163b10001abf340,64d2fd46c836a06233681665,64dc7ec5a88e06ed0dc49382,,,,,,,decisionTrl,resources/DBN.BMP,resources/DP.BMP,Door3,-0.332581537,-0.087555009,1,0,0,1.2128,optionLeft,70,7515,4,9,0,9,0,1,,,,,,,,,,,,,,,,,,,,,,,,,,,,,,,,,,,,,,,
,,,,,,,,2023-08-16_08h54.19.109,HF_wild_card,2022.2.4,Win32,59.8372427,57b889c1e163b10001abf340,64d2fd46c836a06233681665,64dc7ec5a88e06ed0dc49382,,,,,,,decisionTrl,resources/DBN.BMP,resources/DP.BMP,Door4,0.303088161,-0.069049282,1,0,0,2.7294,optionRight,60,7575,4,10,0,10,0,1,,,,,,,,,,,,,,,,,,,,,,,,,,,,,,,,,,,,,,,
,,,,,,,,2023-08-16_08h54.19.109,HF_wild_card,2022.2.4,Win32,59.8372427,57b889c1e163b10001abf340,64d2fd46c836a06233681665,64dc7ec5a88e06ed0dc49382,,,,,,,decisionTrl,resources/DB.BMP,resources/DBN.BMP,Door3,0.328070798,-0.038514931,1,0,0,1.5116,optionRight,70,7645,4,11,0,11,0,1,,,,,,,,,,,,,,,,,,,,,,,,,,,,,,,,,,,,,,,
,,,,,,,,2023-08-16_08h54.19.109,HF_wild_card,2022.2.4,Win32,59.8372427,57b889c1e163b10001abf340,64d2fd46c836a06233681665,64dc7ec5a88e06ed0dc49382,,,,,,,ctch,resources/DBN.BMP,resources/DR.BMP,Door3,-0.385322668,-0.046842541,1,0,0,1.2131,optionLeft,70,7715,4,12,0,12,0,1,,,,,,,,,,,,,,,,,,,,,,,,,,,,,,,,,,,,,,,
,,,,,,,,2023-08-16_08h54.19.109,HF_wild_card,2022.2.4,Win32,59.8372427,57b889c1e163b10001abf340,64d2fd46c836a06233681665,64dc7ec5a88e06ed0dc49382,,,,,,,ctch,resources/DR.BMP,resources/DBN.BMP,Door3,0.311415733,-0.088480243,1,0,0,1.1628,optionRight,70,7785,4,13,0,13,0,1,,,,,,,,,,,,,,,,,,,,,,,,,,,,,,,,,,,,,,,
,,,,,,,,2023-08-16_08h54.19.109,HF_wild_card,2022.2.4,Win32,59.8372427,57b889c1e163b10001abf340,64d2fd46c836a06233681665,64dc7ec5a88e06ed0dc49382,,,,,,,sngl,resources/Empty.png,resources/DBN.BMP,Door3,0.291059499,-0.039440204,1,0,0,1.1791,optionRight,70,7855,4,14,0,14,0,1,,,,,,,,,,,,,,,,,,,,,,,,,,,,,,,,,,,,,,,
,,,,,,,,2023-08-16_08h54.19.109,HF_wild_card,2022.2.4,Win32,59.8372427,57b889c1e163b10001abf340,64d2fd46c836a06233681665,64dc7ec5a88e06ed0dc49382,,,,,,,sngl,resources/DBN.BMP,resources/Empty.png,Door3,-0.311299953,-0.032963294,1,0,0,1.0953,optionLeft,70,7925,4,15,0,15,0,1,,,,,,,,,,,,,,,,,,,,,,,,,,,,,,,,,,,,,,,
,,,,,,,,2023-08-16_08h54.19.109,HF_wild_card,2022.2.4,Win32,59.8372427,57b889c1e163b10001abf340,64d2fd46c836a06233681665,64dc7ec5a88e06ed0dc49382,,,,,,,decisionTrl,resources/DB.BMP,resources/DG.BMP,WildCard_Ex,-0.302047186,-0.062572295,1,0,0,2.0451,optionLeft,55,7980,4,16,0,16,0,1,,,,,,,,,,,,,,,,,,,,,,,,,,,,,,,,,,,,,,,
,,,,,,,,2023-08-16_08h54.19.109,HF_wild_card,2022.2.4,Win32,59.8372427,57b889c1e163b10001abf340,64d2fd46c836a06233681665,64dc7ec5a88e06ed0dc49382,,,,,,,decisionTrl,resources/DBN.BMP,resources/DB.BMP,Door3,-0.302972459,-0.069049282,1,0,0,1.7114,optionLeft,70,8050,4,17,0,17,0,1,,,,,,,,,,,,,,,,,,,,,,,,,,,,,,,,,,,,,,,
,,,,,,,,2023-08-16_08h54.19.109,HF_wild_card,2022.2.4,Win32,59.8372427,57b889c1e163b10001abf340,64d2fd46c836a06233681665,64dc7ec5a88e06ed0dc49382,,,,,,,sngl,resources/Empty.png,resources/DP.BMP,Door4,0.331771967,-0.088480243,1,0,0,1.4117,optionRight,80,8130,4,18,0,18,0,1,,,,,,,,,,,,,,,,,,,,,,,,,,,,,,,,,,,,,,,
,,,,,,,,2023-08-16_08h54.19.109,HF_wild_card,2022.2.4,Win32,59.8372427,57b889c1e163b10001abf340,64d2fd46c836a06233681665,64dc7ec5a88e06ed0dc49382,,,,,,,decisionTrl,resources/DBN.BMP,resources/DP.BMP,Door4,0.352128201,-0.097733126,1,0,0,2.6457,optionRight,60,8190,4,19,0,19,0,1,,,,,,,,,,,,,,,,,,,,,,,,,,,,,,,,,,,,,,,
,,,,,,,,2023-08-16_08h54.19.109,HF_wild_card,2022.2.4,Win32,59.8372427,57b889c1e163b10001abf340,64d2fd46c836a06233681665,64dc7ec5a88e06ed0dc49382,,,,,,,decisionTrl,resources/DB.BMP,resources/DR.BMP,WildCard_Ex,-0.298346056,-0.041290788,1,0,0,1.5288,optionLeft,45,8235,4,20,0,20,0,1,,,,,,,,,,,,,,,,,,,,,,,,,,,,,,,,,,,,,,,
,,,,,,,,2023-08-16_08h54.19.109,HF_wild_card,2022.2.4,Win32,59.8372427,57b889c1e163b10001abf340,64d2fd46c836a06233681665,64dc7ec5a88e06ed0dc49382,,,,,,,decisionTrl,resources/DG.BMP,resources/DR.BMP,Door1,-0.263185263,-0.066273425,1,0,0,1.3963,optionLeft,30,8265,4,21,0,21,0,1,,,,,,,,,,,,,,,,,,,,,,,,,,,,,,,,,,,,,,,
,,,,,,,,2023-08-16_08h54.19.109,HF_wild_card,2022.2.4,Win32,59.8372427,57b889c1e163b10001abf340,64d2fd46c836a06233681665,64dc7ec5a88e06ed0dc49382,,,,,,,decisionTrl,resources/DP.BMP,resources/DB.BMP,WildCard_Ex,0.32899611,-0.142146686,1,0,0,1.746,optionRight,45,8310,4,22,0,22,0,1,,,,,,,,,,,,,,,,,,,,,,,,,,,,,,,,,,,,,,,
,,,,,,,,2023-08-16_08h54.19.109,HF_wild_card,2022.2.4,Win32,59.8372427,57b889c1e163b10001abf340,64d2fd46c836a06233681665,64dc7ec5a88e06ed0dc49382,,,,,,,decisionTrl,resources/DR.BMP,resources/DG.BMP,Door1,0.296611291,0.001272265,1,0,0,2.9124,optionRight,30,8340,4,23,0,23,0,1,,,,,,,,,,,,,,,,,,,,,,,,,,,,,,,,,,,,,,,
,,,,,,,,2023-08-16_08h54.19.109,HF_wild_card,2022.2.4,Win32,59.8372427,57b889c1e163b10001abf340,64d2fd46c836a06233681665,64dc7ec5a88e06ed0dc49382,,,,,,,decisionTrl,resources/DP.BMP,resources/DBN.BMP,Door3,0.290134187,-0.053319528,1,0,0,1.312,optionRight,70,8410,4,24,0,24,0,1,,,,,,,,,,,,,,,,,,,,,,,,,,,,,,,,,,,,,,,
,,,,,,,,2023-08-16_08h54.19.109,HF_wild_card,2022.2.4,Win32,59.8372427,57b889c1e163b10001abf340,64d2fd46c836a06233681665,64dc7ec5a88e06ed0dc49382,,,,,,,decisionTrl,resources/DP.BMP,resources/DBN.BMP,Door3,0.267002096,-0.042216061,1,0,0,1.1958,optionRight,70,8480,4,25,0,25,0,1,,,,,,,,,,,,,,,,,,,,,,,,,,,,,,,,,,,,,,,
,,,,,,,,2023-08-16_08h54.19.109,HF_wild_card,2022.2.4,Win32,59.8372427,57b889c1e163b10001abf340,64d2fd46c836a06233681665,64dc7ec5a88e06ed0dc49382,,,,,,,decisionTrl,resources/DBN.BMP,resources/DP.BMP,Door3,-0.310374719,-0.046842541,1,0,0,1.1629,optionLeft,70,8550,4,26,0,26,0,1,,,,,,,,,,,,,,,,,,,,,,,,,,,,,,,,,,,,,,,
,,,,,,,,2023-08-16_08h54.19.109,HF_wild_card,2022.2.4,Win32,59.8372427,57b889c1e163b10001abf340,64d2fd46c836a06233681665,64dc7ec5a88e06ed0dc49382,,,,,,,decisionTrl,resources/DP.BMP,resources/DBN.BMP,Door3,0.310490421,-0.040365515,1,0,0,1.2447,optionRight,70,8620,4,27,0,27,0,1,,,,,,,,,,,,,,,,,,,,,,,,,,,,,,,,,,,,,,,
,,,,,,,,2023-08-16_08h54.19.109,HF_wild_card,2022.2.4,Win32,59.8372427,57b889c1e163b10001abf340,64d2fd46c836a06233681665,64dc7ec5a88e06ed0dc49382,,,,,,,decisionTrl,resources/DP.BMP,resources/DBN.BMP,Door3,0.275329667,-0.039440204,1,0,0,1.2292,optionRight,70,8690,4,28,0,28,0,1,,,,,,,,,,,,,,,,,,,,,,,,,,,,,,,,,,,,,,,
,,,,,,,,2023-08-16_08h54.19.109,HF_wild_card,2022.2.4,Win32,59.8372427,57b889c1e163b10001abf340,64d2fd46c836a06233681665,64dc7ec5a88e06ed0dc49382,,,,,,,decisionTrl,resources/DR.BMP,resources/DG.BMP,Door1,0.264226239,-0.11808936,1,0,0,3.1118,optionRight,30,8720,4,29,0,29,0,1,,,,,,,,,,,,,,,,,,,,,,,,,,,,,,,,,,,,,,,
,,,,,,,,2023-08-16_08h54.19.109,HF_wild_card,2022.2.4,Win32,59.8372427,57b889c1e163b10001abf340,64d2fd46c836a06233681665,64dc7ec5a88e06ed0dc49382,,,,,,,ctch,resources/DG.BMP,resources/DP.BMP,Door4,0.304938707,-0.089405516,1,0,0,1.8125,optionRight,60,8780,4,30,0,30,0,1,,,,,,,,,,,,,,,,,,,,,,,,,,,,,,,,,,,,,,,
,,,,,,,,2023-08-16_08h54.19.109,HF_wild_card,2022.2.4,Win32,59.8372427,57b889c1e163b10001abf340,64d2fd46c836a06233681665,64dc7ec5a88e06ed0dc49382,,,,,,,sngl,resources/DP.BMP,resources/Empty.png,Door4,-0.32240342,-0.062572295,1,0,0,1.2788,optionLeft,60,8840,4,31,0,31,0,1,,,,,,,,,,,,,,,,,,,,,,,,,,,,,,,,,,,,,,,
,,,,,,,,2023-08-16_08h54.19.109,HF_wild_card,2022.2.4,Win32,59.8372427,57b889c1e163b10001abf340,64d2fd46c836a06233681665,64dc7ec5a88e06ed0dc49382,,,,,,,sngl,resources/Empty.png,resources/DB.BMP,WildCard_Ex,0.255898823,-0.040365515,1,0,0,1.1129,optionRight,45,8885,4,32,0,32,0,1,,,,,,,,,,,,,,,,,,,,,,,,,,,,,,,,,,,,,,,
,,,,,,,,2023-08-16_08h54.19.109,HF_wild_card,2022.2.4,Win32,59.8372427,57b889c1e163b10001abf340,64d2fd46c836a06233681665,64dc7ec5a88e06ed0dc49382,,,,,,,decisionTrl,resources/DB.BMP,resources/DP.BMP,Door4,0.309565265,-0.085704386,1,0,0,1.6784,optionRight,60,8945,4,33,0,33,0,1,,,,,,,,,,,,,,,,,,,,,,,,,,,,,,,,,,,,,,,
,,,,,,,,2023-08-16_08h54.19.109,HF_wild_card,2022.2.4,Win32,59.8372427,57b889c1e163b10001abf340,64d2fd46c836a06233681665,64dc7ec5a88e06ed0dc49382,,,,,,,decisionTrl,resources/DR.BMP,resources/DG.BMP,Door2,-0.320552836,-0.134744465,1,0,0,1.946,optionLeft,20,8965,4,34,0,34,0,1,,,,,,,,,,,,,,,,,,,,,,,,,,,,,,,,,,,,,,,
,,,,,,,,2023-08-16_08h54.19.109,HF_wild_card,2022.2.4,Win32,59.8372427,57b889c1e163b10001abf340,64d2fd46c836a06233681665,64dc7ec5a88e06ed0dc49382,,,,,,,sngl,resources/Empty.png,resources/DR.BMP,Door2,0.306789408,-0.072750412,1,0,0,1.1121,optionRight,40,9005,4,35,0,35,0,1,,,,,,,,,,,,,,,,,,,,,,,,,,,,,,,,,,,,,,,
,,,,,,,,2023-08-16_08h54.19.109,HF_wild_card,2022.2.4,Win32,59.8372427,57b889c1e163b10001abf340,64d2fd46c836a06233681665,64dc7ec5a88e06ed0dc49382,,,,,,,decisionTrl,resources/DG.BMP,resources/DB.BMP,WildCard_Ex,0.273479122,-0.093106646,1,0,0,1.4623,optionRight,55,9060,4,36,0,36,0,1,,,,,,,,,,,,,,,,,,,,,,,,,,,,,,,,,,,,,,,
,,,,,,,,2023-08-16_08h54.19.109,HF_wild_card,2022.2.4,Win32,59.8372427,57b889c1e163b10001abf340,64d2fd46c836a06233681665,64dc7ec5a88e06ed0dc49382,,,,,,,decisionTrl,resources/DG.BMP,resources/DR.BMP,Door1,-0.282616225,-0.060721749,1,0,0,1.9951,optionLeft,30,9090,4,37,0,37,0,1,,,,,,,,,,,,,,,,,,,,,,,,,,,,,,,,,,,,,,,
,,,,,,,,2023-08-16_08h54.19.109,HF_wild_card,2022.2.4,Win32,59.8372427,57b889c1e163b10001abf340,64d2fd46c836a06233681665,64dc7ec5a88e06ed0dc49382,,,,,,,decisionTrl,resources/DG.BMP,resources/DR.BMP,Door1,-0.247455471,-0.081077983,1,0,0,2.1295,optionLeft,30,9120,4,38,0,38,0,1,,,,,,,,,,,,,,,,,,,,,,,,,,,,,,,,,,,,,,,
,,,,,,,,2023-08-16_08h54.19.109,HF_wild_card,2022.2.4,Win32,59.8372427,57b889c1e163b10001abf340,64d2fd46c836a06233681665,64dc7ec5a88e06ed0dc49382,,,,,,,decisionTrl,resources/DG.BMP,resources/DR.BMP,Door1,-0.33350681,-0.056095308,1,0,0,1.3123,optionLeft,30,9150,4,39,0,39,0,1,,,,,,,,,,,,,,,,,,,,,,,,,,,,,,,,,,,,,,,
,,,,,,,,2023-08-16_08h54.19.109,HF_wild_card,2022.2.4,Win32,59.8372427,57b889c1e163b10001abf340,64d2fd46c836a06233681665,64dc7ec5a88e06ed0dc49382,,,,,,,ctch,resources/DBN.BMP,resources/DR.BMP,Door3,-0.327029823,-0.077376892,1,0,0,1.2794,optionLeft,70,9220,4,40,0,40,0,1,,,,,,,,,,,,,,,,,,,,,,,,,,,,,,,,,,,,,,,
,,,,,,,,2023-08-16_08h54.19.109,HF_wild_card,2022.2.4,Win32,59.8372427,57b889c1e163b10001abf340,64d2fd46c836a06233681665,64dc7ec5a88e06ed0dc49382,,,,,,,ctch,resources/DP.BMP,resources/DG.BMP,Door4,-0.33720794,-0.103284763,1,0,0,1.6625,optionLeft,60,9280,4,41,0,41,0,1,,,,,,,,,,,,,,,,,,,,,,,,,,,,,,,,,,,,,,,
,,,,,,,,2023-08-16_08h54.19.109,HF_wild_card,2022.2.4,Win32,59.8372427,57b889c1e163b10001abf340,64d2fd46c836a06233681665,64dc7ec5a88e06ed0dc49382,,,,,,,sngl,resources/DG.BMP,resources/Empty.png,Door1,-0.320552836,-0.047767775,1,0,0,1.2285,optionLeft,30,9310,4,42,0,42,0,1,,,,,,,,,,,,,,,,,,,,,,,,,,,,,,,,,,,,,,,
,,,,,,,,2023-08-16_08h54.19.109,HF_wild_card,2022.2.4,Win32,59.8372427,57b889c1e163b10001abf340,64d2fd46c836a06233681665,64dc7ec5a88e06ed0dc49382,,,,,,,ctch,resources/DR.BMP,resources/DBN.BMP,Door3,0.309565265,-0.077376892,1,0,0,1.329,optionRight,70,9380,4,43,0,43,0,1,,,,,,,,,,,,,,,,,,,,,,,,,,,,,,,,,,,,,,,
,,,,,,,,2023-08-16_08h54.19.109,HF_wild_card,2022.2.4,Win32,59.8372427,57b889c1e163b10001abf340,64d2fd46c836a06233681665,64dc7ec5a88e06ed0dc49382,,,,,,,,,,,,,,,,,,,,,,,,,,3,0,3,0,1,,,,,,,,,,,,,,,,,,,,,,,,,,,,,,,,,,
,,,,,,,,2023-08-16_08h54.19.109,HF_wild_card,2022.2.4,Win32,59.8372427,57b889c1e163b10001abf340,64d2fd46c836a06233681665,64dc7ec5a88e06ed0dc49382,,,,,,,decisionTrl,resources/DBN.BMP,resources/DP.BMP,Door3,-0.298346056,-0.164353465,1,0,0,1.1943,optionLeft,70,9450,5,0,0,0,0,1,,,,,,,,,,,,,,,,,,,,,,,,,,,,,,,,,,,,,,,
,,,,,,,,2023-08-16_08h54.19.109,HF_wild_card,2022.2.4,Win32,59.8372427,57b889c1e163b10001abf340,64d2fd46c836a06233681665,64dc7ec5a88e06ed0dc49382,,,,,,,decisionTrl,resources/DG.BMP,resources/DB.BMP,WildCard_Ex,0.275329667,-0.0912561,1,0,0,1.7449,optionRight,45,9495,5,1,0,1,0,1,,,,,,,,,,,,,,,,,,,,,,,,,,,,,,,,,,,,,,,
,,,,,,,,2023-08-16_08h54.19.109,HF_wild_card,2022.2.4,Win32,59.8372427,57b889c1e163b10001abf340,64d2fd46c836a06233681665,64dc7ec5a88e06ed0dc49382,,,,,,,ctch,resources/DG.BMP,resources/DP.BMP,Door4,0.299387148,-0.052394178,1,0,0,1.5682,optionRight,60,9555,5,2,0,2,0,1,,,,,,,,,,,,,,,,,,,,,,,,,,,,,,,,,,,,,,,
,,,,,,,,2023-08-16_08h54.19.109,HF_wild_card,2022.2.4,Win32,59.8372427,57b889c1e163b10001abf340,64d2fd46c836a06233681665,64dc7ec5a88e06ed0dc49382,,,,,,,decisionTrl,resources/DR.BMP,resources/DG.BMP,Door1,0.269777953,-0.10976175,1,0,0,2.2736,optionRight,30,9585,5,3,0,3,0,1,,,,,,,,,,,,,,,,,,,,,,,,,,,,,,,,,,,,,,,
,,,,,,,,2023-08-16_08h54.19.109,HF_wild_card,2022.2.4,Win32,59.8372427,57b889c1e163b10001abf340,64d2fd46c836a06233681665,64dc7ec5a88e06ed0dc49382,,,,,,,decisionTrl,resources/DR.BMP,resources/DG.BMP,Door1,0.298461759,-0.063497645,1,0,0,1.4441,optionRight,30,9615,5,4,0,4,0,1,,,,,,,,,,,,,,,,,,,,,,,,,,,,,,,,,,,,,,,
,,,,,,,,2023-08-16_08h54.19.109,HF_wild_card,2022.2.4,Win32,59.8372427,57b889c1e163b10001abf340,64d2fd46c836a06233681665,64dc7ec5a88e06ed0dc49382,,,,,,,ctch,resources/DR.BMP,resources/DBN.BMP,Door3,0.291984733,-0.061647022,1,0,0,1.4795,optionRight,70,9685,5,5,0,5,0,1,,,,,,,,,,,,,,,,,,,,,,,,,,,,,,,,,,,,,,,
,,,,,,,,2023-08-16_08h54.19.109,HF_wild_card,2022.2.4,Win32,59.8372427,57b889c1e163b10001abf340,64d2fd46c836a06233681665,64dc7ec5a88e06ed0dc49382,,,,,,,ctch,resources/DP.BMP,resources/DG.BMP,Door4,-0.352937771,-0.11438823,1,0,0,1.9298,optionLeft,80,9765,5,6,0,6,0,1,,,,,,,,,,,,,,,,,,,,,,,,,,,,,,,,,,,,,,,
,,,,,,,,2023-08-16_08h54.19.109,HF_wild_card,2022.2.4,Win32,59.8372427,57b889c1e163b10001abf340,64d2fd46c836a06233681665,64dc7ec5a88e06ed0dc49382,,,,,,,sngl,resources/DBN.BMP,resources/Empty.png,Door3,-0.323328693,-0.055170035,1,0,0,0.99,optionLeft,70,9835,5,7,0,7,0,1,,,,,,,,,,,,,,,,,,,,,,,,,,,,,,,,,,,,,,,
,,,,,,,,2023-08-16_08h54.19.109,HF_wild_card,2022.2.4,Win32,59.8372427,57b889c1e163b10001abf340,64d2fd46c836a06233681665,64dc7ec5a88e06ed0dc49382,,,,,,,decisionTrl,resources/DG.BMP,resources/DR.BMP,Door1,-0.305748316,-0.12086514,1,0,0,3.1117,optionLeft,30,9865,5,8,0,8,0,1,,,,,,,,,,,,,,,,,,,,,,,,,,,,,,,,,,,,,,,
,,,,,,,,2023-08-16_08h54.19.109,HF_wild_card,2022.2.4,Win32,59.8372427,57b889c1e163b10001abf340,64d2fd46c836a06233681665,64dc7ec5a88e06ed0dc49382,,,,,,,sngl,resources/Empty.png,resources/DG.BMP,Door1,0.318817993,-0.065348152,1,0,0,1.162,optionRight,30,9895,5,9,0,9,0,1,,,,,,,,,,,,,,,,,,,,,,,,,,,,,,,,,,,,,,,
,,,,,,,,2023-08-16_08h54.19.109,HF_wild_card,2022.2.4,Win32,59.8372427,57b889c1e163b10001abf340,64d2fd46c836a06233681665,64dc7ec5a88e06ed0dc49382,,,,,,,decisionTrl,resources/DG.BMP,resources/DR.BMP,Door2,0.334547824,-0.075526269,1,0,0,1.2454,optionRight,20,9915,5,10,0,10,0,1,,,,,,,,,,,,,,,,,,,,,,,,,,,,,,,,,,,,,,,
,,,,,,,,2023-08-16_08h54.19.109,HF_wild_card,2022.2.4,Win32,59.8372427,57b889c1e163b10001abf340,64d2fd46c836a06233681665,64dc7ec5a88e06ed0dc49382,,,,,,,sngl,resources/DP.BMP,resources/Empty.png,Door4,-0.32147807,-0.077376892,1,0,0,1.1121,optionLeft,80,9995,5,11,0,11,0,1,,,,,,,,,,,,,,,,,,,,,,,,,,,,,,,,,,,,,,,
,,,,,,,,2023-08-16_08h54.19.109,HF_wild_card,2022.2.4,Win32,59.8372427,57b889c1e163b10001abf340,64d2fd46c836a06233681665,64dc7ec5a88e06ed0dc49382,,,,,,,sngl,resources/Empty.png,resources/DR.BMP,Door2,0.295685902,-0.080152672,1,0,0,1.2621,optionRight,20,10015,5,12,0,12,0,1,,,,,,,,,,,,,,,,,,,,,,,,,,,,,,,,,,,,,,,
,,,,,,,,2023-08-16_08h54.19.109,HF_wild_card,2022.2.4,Win32,59.8372427,57b889c1e163b10001abf340,64d2fd46c836a06233681665,64dc7ec5a88e06ed0dc49382,,,,,,,ctch,resources/DBN.BMP,resources/DR.BMP,Door3,-0.311299953,-0.063497645,1,0,0,1.2624,optionLeft,70,10085,5,13,0,13,0,1,,,,,,,,,,,,,,,,,,,,,,,,,,,,,,,,,,,,,,,
,,,,,,,,2023-08-16_08h54.19.109,HF_wild_card,2022.2.4,Win32,59.8372427,57b889c1e163b10001abf340,64d2fd46c836a06233681665,64dc7ec5a88e06ed0dc49382,,,,,,,decisionTrl,resources/DBN.BMP,resources/DP.BMP,Door3,-0.339058524,-0.076451542,1,0,0,1.412,optionLeft,70,10155,5,14,0,14,0,1,,,,,,,,,,,,,,,,,,,,,,,,,,,,,,,,,,,,,,,
,,,,,,,,2023-08-16_08h54.19.109,HF_wild_card,2022.2.4,Win32,59.8372427,57b889c1e163b10001abf340,64d2fd46c836a06233681665,64dc7ec5a88e06ed0dc49382,,,,,,,sngl,resources/DB.BMP,resources/Empty.png,WildCard_Ex,-0.346460784,-0.040365515,1,0,0,1.129,optionLeft,55,10210,5,15,0,15,0,1,,,,,,,,,,,,,,,,,,,,,,,,,,,,,,,,,,,,,,,
,,,,,,,,2023-08-16_08h54.19.109,HF_wild_card,2022.2.4,Win32,59.8372427,57b889c1e163b10001abf340,64d2fd46c836a06233681665,64dc7ec5a88e06ed0dc49382,,,,,,,decisionTrl,resources/DP.BMP,resources/DBN.BMP,Door3,0.296611291,-0.069974555,1,0,0,1.2955,optionRight,70,10280,5,16,0,16,0,1,,,,,,,,,,,,,,,,,,,,,,,,,,,,,,,,,,,,,,,
,,,,,,,,2023-08-16_08h54.19.109,HF_wild_card,2022.2.4,Win32,59.8372427,57b889c1e163b10001abf340,64d2fd46c836a06233681665,64dc7ec5a88e06ed0dc49382,,,,,,,decisionTrl,resources/DP.BMP,resources/DB.BMP,Door4,-0.350161914,-0.045917191,1,0,0,1.4961,optionLeft,80,10360,5,17,0,17,0,1,,,,,,,,,,,,,,,,,,,,,,,,,,,,,,,,,,,,,,,
,,,,,,,,2023-08-16_08h54.19.109,HF_wild_card,2022.2.4,Win32,59.8372427,57b889c1e163b10001abf340,64d2fd46c836a06233681665,64dc7ec5a88e06ed0dc49382,,,,,,,decisionTrl,resources/DR.BMP,resources/DG.BMP,Door1,0.311415733,-0.090330789,1,0,0,1.9455,optionRight,30,10390,5,18,0,18,0,1,,,,,,,,,,,,,,,,,,,,,,,,,,,,,,,,,,,,,,,
,,,,,,,,2023-08-16_08h54.19.109,HF_wild_card,2022.2.4,Win32,59.8372427,57b889c1e163b10001abf340,64d2fd46c836a06233681665,64dc7ec5a88e06ed0dc49382,,,,,,,sngl,resources/Empty.png,resources/DB.BMP,WildCard_Ex,0.256823979,-0.037589658,1,0,0,1.1643,optionRight,45,10435,5,19,0,19,0,1,,,,,,,,,,,,,,,,,,,,,,,,,,,,,,,,,,,,,,,
,,,,,,,,2023-08-16_08h54.19.109,HF_wild_card,2022.2.4,Win32,59.8372427,57b889c1e163b10001abf340,64d2fd46c836a06233681665,64dc7ec5a88e06ed0dc49382,,,,,,,decisionTrl,resources/DB.BMP,resources/DR.BMP,WildCard_Ex,-0.345535434,-0.01630819,1,0,0,1.6957,optionLeft,55,10490,5,20,0,20,0,1,,,,,,,,,,,,,,,,,,,,,,,,,,,,,,,,,,,,,,,
,,,,,,,,2023-08-16_08h54.19.109,HF_wild_card,2022.2.4,Win32,59.8372427,57b889c1e163b10001abf340,64d2fd46c836a06233681665,64dc7ec5a88e06ed0dc49382,,,,,,,sngl,resources/Empty.png,resources/DB.BMP,WildCard_Ex,0.32899611,-0.089405516,1,0,0,1.0788,optionRight,55,10545,5,21,0,21,0,1,,,,,,,,,,,,,,,,,,,,,,,,,,,,,,,,,,,,,,,
,,,,,,,,2023-08-16_08h54.19.109,HF_wild_card,2022.2.4,Win32,59.8372427,57b889c1e163b10001abf340,64d2fd46c836a06233681665,64dc7ec5a88e06ed0dc49382,,,,,,,sngl,resources/Empty.png,resources/DP.BMP,Door4,0.304938707,-0.063497645,1,0,0,1.1795,optionRight,60,10605,5,22,0,22,0,1,,,,,,,,,,,,,,,,,,,,,,,,,,,,,,,,,,,,,,,
,,,,,,,,2023-08-16_08h54.19.109,HF_wild_card,2022.2.4,Win32,59.8372427,57b889c1e163b10001abf340,64d2fd46c836a06233681665,64dc7ec5a88e06ed0dc49382,,,,,,,decisionTrl,resources/DBN.BMP,resources/DP.BMP,Door3,-0.294644848,-0.076451542,1,0,0,1.1452,optionLeft,70,10675,5,23,0,23,0,1,,,,,,,,,,,,,,,,,,,,,,,,,,,,,,,,,,,,,,,
,,,,,,,,2023-08-16_08h54.19.109,HF_wild_card,2022.2.4,Win32,59.8372427,57b889c1e163b10001abf340,64d2fd46c836a06233681665,64dc7ec5a88e06ed0dc49382,,,,,,,decisionTrl,resources/DR.BMP,resources/DB.BMP,WildCard_Ex,0.283657239,-0.028336814,1,0,0,1.6616,optionRight,45,10720,5,24,0,24,0,1,,,,,,,,,,,,,,,,,,,,,,,,,,,,,,,,,,,,,,,
,,,,,,,,2023-08-16_08h54.19.109,HF_wild_card,2022.2.4,Win32,59.8372427,57b889c1e163b10001abf340,64d2fd46c836a06233681665,64dc7ec5a88e06ed0dc49382,,,,,,,sngl,resources/DB.BMP,resources/Empty.png,WildCard_Ex,-0.352937771,-0.083853879,1,0,0,1.062,optionLeft,45,10765,5,25,0,25,0,1,,,,,,,,,,,,,,,,,,,,,,,,,,,,,,,,,,,,,,,
,,,,,,,,2023-08-16_08h54.19.109,HF_wild_card,2022.2.4,Win32,59.8372427,57b889c1e163b10001abf340,64d2fd46c836a06233681665,64dc7ec5a88e06ed0dc49382,,,,,,,decisionTrl,resources/DP.BMP,resources/DBN.BMP,Door3,0.290134187,-0.069974555,1,0,0,1.3289,optionRight,70,10835,5,26,0,26,0,1,,,,,,,,,,,,,,,,,,,,,,,,,,,,,,,,,,,,,,,
,,,,,,,,2023-08-16_08h54.19.109,HF_wild_card,2022.2.4,Win32,59.8372427,57b889c1e163b10001abf340,64d2fd46c836a06233681665,64dc7ec5a88e06ed0dc49382,,,,,,,sngl,resources/DG.BMP,resources/Empty.png,Door1,-0.338133213,-0.058871165,1,0,0,1.0629,optionLeft,30,10865,5,27,0,27,0,1,,,,,,,,,,,,,,,,,,,,,,,,,,,,,,,,,,,,,,,
,,,,,,,,2023-08-16_08h54.19.109,HF_wild_card,2022.2.4,Win32,59.8372427,57b889c1e163b10001abf340,64d2fd46c836a06233681665,64dc7ec5a88e06ed0dc49382,,,,,,,ctch,resources/DG.BMP,resources/DP.BMP,Door4,0.331771967,-0.067198775,1,0,0,1.546,optionRight,80,10945,5,28,0,28,0,1,,,,,,,,,,,,,,,,,,,,,,,,,,,,,,,,,,,,,,,
,,,,,,,,2023-08-16_08h54.19.109,HF_wild_card,2022.2.4,Win32,59.8372427,57b889c1e163b10001abf340,64d2fd46c836a06233681665,64dc7ec5a88e06ed0dc49382,,,,,,,decisionTrl,resources/DG.BMP,resources/DR.BMP,Door1,-0.26966225,-0.017233424,1,0,0,1.7457,optionLeft,30,10975,5,29,0,29,0,1,,,,,,,,,,,,,,,,,,,,,,,,,,,,,,,,,,,,,,,
,,,,,,,,2023-08-16_08h54.19.109,HF_wild_card,2022.2.4,Win32,59.8372427,57b889c1e163b10001abf340,64d2fd46c836a06233681665,64dc7ec5a88e06ed0dc49382,,,,,,,sngl,resources/Empty.png,resources/DBN.BMP,Door3,0.31419159,-0.052394178,1,0,0,1.1291,optionRight,70,11045,5,30,0,30,0,1,,,,,,,,,,,,,,,,,,,,,,,,,,,,,,,,,,,,,,,
,,,,,,,,2023-08-16_08h54.19.109,HF_wild_card,2022.2.4,Win32,59.8372427,57b889c1e163b10001abf340,64d2fd46c836a06233681665,64dc7ec5a88e06ed0dc49382,,,,,,,ctch,resources/DP.BMP,resources/DG.BMP,Door4,-0.308524173,-0.081077983,1,0,0,1.6945,optionLeft,60,11105,5,31,0,31,0,1,,,,,,,,,,,,,,,,,,,,,,,,,,,,,,,,,,,,,,,
,,,,,,,,2023-08-16_08h54.19.109,HF_wild_card,2022.2.4,Win32,59.8372427,57b889c1e163b10001abf340,64d2fd46c836a06233681665,64dc7ec5a88e06ed0dc49382,,,,,,,decisionTrl,resources/DR.BMP,resources/DG.BMP,Door1,0.323444396,-0.068124009,1,0,0,1.8142,optionRight,30,11135,5,32,0,32,0,1,,,,,,,,,,,,,,,,,,,,,,,,,,,,,,,,,,,,,,,
,,,,,,,,2023-08-16_08h54.19.109,HF_wild_card,2022.2.4,Win32,59.8372427,57b889c1e163b10001abf340,64d2fd46c836a06233681665,64dc7ec5a88e06ed0dc49382,,,,,,,decisionTrl,resources/DP.BMP,resources/DBN.BMP,Door3,0.320668538,-0.077376892,1,0,0,1.2955,optionRight,70,11205,5,33,0,33,0,1,,,,,,,,,,,,,,,,,,,,,,,,,,,,,,,,,,,,,,,
,,,,,,,,2023-08-16_08h54.19.109,HF_wild_card,2022.2.4,Win32,59.8372427,57b889c1e163b10001abf340,64d2fd46c836a06233681665,64dc7ec5a88e06ed0dc49382,,,,,,,decisionTrl,resources/DB.BMP,resources/DBN.BMP,Door3,0.283657239,-0.062572295,1,0,0,1.3457,optionRight,70,11275,5,34,0,34,0,1,,,,,,,,,,,,,,,,,,,,,,,,,,,,,,,,,,,,,,,
,,,,,,,,2023-08-16_08h54.19.109,HF_wild_card,2022.2.4,Win32,59.8372427,57b889c1e163b10001abf340,64d2fd46c836a06233681665,64dc7ec5a88e06ed0dc49382,,,,,,,ctch,resources/DR.BMP,resources/DBN.BMP,Door3,0.275329667,-0.09865836,1,0,0,1.2121,optionRight,70,11345,5,35,0,35,0,1,,,,,,,,,,,,,,,,,,,,,,,,,,,,,,,,,,,,,,,
,,,,,,,,2023-08-16_08h54.19.109,HF_wild_card,2022.2.4,Win32,59.8372427,57b889c1e163b10001abf340,64d2fd46c836a06233681665,64dc7ec5a88e06ed0dc49382,,,,,,,ctch,resources/DBN.BMP,resources/DR.BMP,Door3,-0.335357317,-0.048693048,1,0,0,1.4293,optionLeft,70,11415,5,36,0,36,0,1,,,,,,,,,,,,,,,,,,,,,,,,,,,,,,,,,,,,,,,
,,,,,,,,2023-08-16_08h54.19.109,HF_wild_card,2022.2.4,Win32,59.8372427,57b889c1e163b10001abf340,64d2fd46c836a06233681665,64dc7ec5a88e06ed0dc49382,,,,,,,decisionTrl,resources/DBN.BMP,resources/DP.BMP,Door3,-0.294644848,-0.039440204,1,0,0,1.079,optionLeft,70,11485,5,37,0,37,0,1,,,,,,,,,,,,,,,,,,,,,,,,,,,,,,,,,,,,,,,
,,,,,,,,2023-08-16_08h54.19.109,HF_wild_card,2022.2.4,Win32,59.8372427,57b889c1e163b10001abf340,64d2fd46c836a06233681665,64dc7ec5a88e06ed0dc49382,,,,,,,sngl,resources/DR.BMP,resources/Empty.png,Door2,-0.358489447,-0.079227399,1,0,0,1.1967,optionLeft,40,11525,5,38,0,38,0,1,,,,,,,,,,,,,,,,,,,,,,,,,,,,,,,,,,,,,,,
,,,,,,,,2023-08-16_08h54.19.109,HF_wild_card,2022.2.4,Win32,59.8372427,57b889c1e163b10001abf340,64d2fd46c836a06233681665,64dc7ec5a88e06ed0dc49382,,,,,,,decisionTrl,resources/DP.BMP,resources/DBN.BMP,Door3,0.316042136,-0.097733126,1,0,0,1.3135,optionRight,70,11595,5,39,0,39,0,1,,,,,,,,,,,,,,,,,,,,,,,,,,,,,,,,,,,,,,,
,,,,,,,,2023-08-16_08h54.19.109,HF_wild_card,2022.2.4,Win32,59.8372427,57b889c1e163b10001abf340,64d2fd46c836a06233681665,64dc7ec5a88e06ed0dc49382,,,,,,,decisionTrl,resources/DG.BMP,resources/DR.BMP,Door1,-0.298346056,-0.056095308,1,0,0,1.5576,optionLeft,30,11625,5,40,0,40,0,1,,,,,,,,,,,,,,,,,,,,,,,,,,,,,,,,,,,,,,,
,,,,,,,,2023-08-16_08h54.19.109,HF_wild_card,2022.2.4,Win32,59.8372427,57b889c1e163b10001abf340,64d2fd46c836a06233681665,64dc7ec5a88e06ed0dc49382,,,,,,,decisionTrl,resources/DB.BMP,resources/DP.BMP,Door4,0.303088161,-0.100508906,1,0,0,3.0618,optionRight,80,11705,5,41,0,41,0,1,,,,,,,,,,,,,,,,,,,,,,,,,,,,,,,,,,,,,,,
,,,,,,,,2023-08-16_08h54.19.109,HF_wild_card,2022.2.4,Win32,59.8372427,57b889c1e163b10001abf340,64d2fd46c836a06233681665,64dc7ec5a88e06ed0dc49382,,,,,,,decisionTrl,resources/DB.BMP,resources/DG.BMP,WildCard_Ex,-0.32240342,-0.058871165,1,0,0,1.6319,optionLeft,55,11760,5,42,0,42,0,1,,,,,,,,,,,,,,,,,,,,,,,,,,,,,,,,,,,,,,,
,,,,,,,,2023-08-16_08h54.19.109,HF_wild_card,2022.2.4,Win32,59.8372427,57b889c1e163b10001abf340,64d2fd46c836a06233681665,64dc7ec5a88e06ed0dc49382,,,,,,,decisionTrl,resources/DBN.BMP,resources/DB.BMP,Door3,-0.351087187,-0.071825139,1,0,0,1.2193,optionLeft,70,11830,5,43,0,43,0,1,,,,,,,,,,,,,,,,,,,,,,,,,,,,,,,,,,,,,,,
,,,,,,,,2023-08-16_08h54.19.109,HF_wild_card,2022.2.4,Win32,59.8372427,57b889c1e163b10001abf340,64d2fd46c836a06233681665,64dc7ec5a88e06ed0dc49382,,,,,,,,,,,,,,,,,,,,,,,,,,4,0,4,0,1,,,,,,,,,,,,,,,,,,,,,,,,,,,,,,,,,,
,,,,,,,,2023-08-16_08h54.19.109,HF_wild_card,2022.2.4,Win32,59.8372427,57b889c1e163b10001abf340,64d2fd46c836a06233681665,64dc7ec5a88e06ed0dc49382,,,,,,,sngl,resources/DR.BMP,resources/Empty.png,Door2,-0.34090907,-0.161577608,1,0,0,1.2845,optionLeft,20,11850,6,0,0,0,0,1,,,,,,,,,,,,,,,,,,,,,,,,,,,,,,,,,,,,,,,
,,,,,,,,2023-08-16_08h54.19.109,HF_wild_card,2022.2.4,Win32,59.8372427,57b889c1e163b10001abf340,64d2fd46c836a06233681665,64dc7ec5a88e06ed0dc49382,,,,,,,decisionTrl,resources/DBN.BMP,resources/DP.BMP,Door3,-0.272438108,-0.044991918,1,0,0,1.1787,optionLeft,70,11920,6,1,0,1,0,1,,,,,,,,,,,,,,,,,,,,,,,,,,,,,,,,,,,,,,,
,,,,,,,,2023-08-16_08h54.19.109,HF_wild_card,2022.2.4,Win32,59.8372427,57b889c1e163b10001abf340,64d2fd46c836a06233681665,64dc7ec5a88e06ed0dc49382,,,,,,,ctch,resources/DR.BMP,resources/DBN.BMP,Door3,0.323444396,-0.087555009,1,0,0,1.3966,optionRight,70,11990,6,2,0,2,0,1,,,,,,,,,,,,,,,,,,,,,,,,,,,,,,,,,,,,,,,
,,,,,,,,2023-08-16_08h54.19.109,HF_wild_card,2022.2.4,Win32,59.8372427,57b889c1e163b10001abf340,64d2fd46c836a06233681665,64dc7ec5a88e06ed0dc49382,,,,,,,decisionTrl,resources/DG.BMP,resources/DR.BMP,Door1,-0.316851706,-0.056095308,1,0,0,1.9126,optionLeft,30,12020,6,3,0,3,0,1,,,,,,,,,,,,,,,,,,,,,,,,,,,,,,,,,,,,,,,
,,,,,,,,2023-08-16_08h54.19.109,HF_wild_card,2022.2.4,Win32,59.8372427,57b889c1e163b10001abf340,64d2fd46c836a06233681665,64dc7ec5a88e06ed0dc49382,,,,,,,decisionTrl,resources/DR.BMP,resources/DG.BMP,Door1,0.296611291,-0.049618321,1,0,0,1.3635,optionRight,30,12050,6,4,0,4,0,1,,,,,,,,,,,,,,,,,,,,,,,,,,,,,,,,,,,,,,,
,,,,,,,,2023-08-16_08h54.19.109,HF_wild_card,2022.2.4,Win32,59.8372427,57b889c1e163b10001abf340,64d2fd46c836a06233681665,64dc7ec5a88e06ed0dc49382,,,,,,,sngl,resources/DB.BMP,resources/Empty.png,WildCard_Ex,-0.319627563,-0.054244762,1,0,0,1.1636,optionLeft,55,12105,6,5,0,5,0,1,,,,,,,,,,,,,,,,,,,,,,,,,,,,,,,,,,,,,,,
,,,,,,,,2023-08-16_08h54.19.109,HF_wild_card,2022.2.4,Win32,59.8372427,57b889c1e163b10001abf340,64d2fd46c836a06233681665,64dc7ec5a88e06ed0dc49382,,,,,,,decisionTrl,resources/DBN.BMP,resources/DP.BMP,Door3,-0.305748316,-0.066273425,1,0,0,1.8262,optionLeft,70,12175,6,6,0,6,0,1,,,,,,,,,,,,,,,,,,,,,,,,,,,,,,,,,,,,,,,
,,,,,,,,2023-08-16_08h54.19.109,HF_wild_card,2022.2.4,Win32,59.8372427,57b889c1e163b10001abf340,64d2fd46c836a06233681665,64dc7ec5a88e06ed0dc49382,,,,,,,sngl,resources/DBN.BMP,resources/Empty.png,Door3,-0.283541497,-0.064422879,1,0,0,1.0139,optionLeft,70,12245,6,7,0,7,0,1,,,,,,,,,,,,,,,,,,,,,,,,,,,,,,,,,,,,,,,
,,,,,,,,2023-08-16_08h54.19.109,HF_wild_card,2022.2.4,Win32,59.8372427,57b889c1e163b10001abf340,64d2fd46c836a06233681665,64dc7ec5a88e06ed0dc49382,,,,,,,decisionTrl,resources/DBN.BMP,resources/DP.BMP,Door3,-0.300196602,-0.045917191,1,0,0,1.1572,optionLeft,70,12315,6,8,0,8,0,1,,,,,,,,,,,,,,,,,,,,,,,,,,,,,,,,,,,,,,,
,,,,,,,,2023-08-16_08h54.19.109,HF_wild_card,2022.2.4,Win32,59.8372427,57b889c1e163b10001abf340,64d2fd46c836a06233681665,64dc7ec5a88e06ed0dc49382,,,,,,,ctch,resources/DBN.BMP,resources/DR.BMP,Door3,-0.345535434,-0.045917191,1,0,0,1.1629,optionLeft,70,12385,6,9,0,9,0,1,,,,,,,,,,,,,,,,,,,,,,,,,,,,,,,,,,,,,,,
,,,,,,,,2023-08-16_08h54.19.109,HF_wild_card,2022.2.4,Win32,59.8372427,57b889c1e163b10001abf340,64d2fd46c836a06233681665,64dc7ec5a88e06ed0dc49382,,,,,,,sngl,resources/Empty.png,resources/DR.BMP,Door2,0.28735833,-0.066273425,1,0,0,1.2021,optionRight,40,12425,6,10,0,10,0,1,,,,,,,,,,,,,,,,,,,,,,,,,,,,,,,,,,,,,,,
,,,,,,,,2023-08-16_08h54.19.109,HF_wild_card,2022.2.4,Win32,59.8372427,57b889c1e163b10001abf340,64d2fd46c836a06233681665,64dc7ec5a88e06ed0dc49382,,,,,,,sngl,resources/Empty.png,resources/DP.BMP,Door4,0.318817993,-0.047767775,1,0,0,1.1069,optionRight,80,12505,6,11,0,11,0,1,,,,,,,,,,,,,,,,,,,,,,,,,,,,,,,,,,,,,,,
,,,,,,,,2023-08-16_08h54.19.109,HF_wild_card,2022.2.4,Win32,59.8372427,57b889c1e163b10001abf340,64d2fd46c836a06233681665,64dc7ec5a88e06ed0dc49382,,,,,,,decisionTrl,resources/DBN.BMP,resources/DP.BMP,Door3,-0.27336338,-0.065348152,1,0,0,2.1909,optionLeft,70,12575,6,12,0,12,0,1,,,,,,,,,,,,,,,,,,,,,,,,,,,,,,,,,,,,,,,
,,,,,,,,2023-08-16_08h54.19.109,HF_wild_card,2022.2.4,Win32,59.8372427,57b889c1e163b10001abf340,64d2fd46c836a06233681665,64dc7ec5a88e06ed0dc49382,,,,,,,decisionTrl,resources/DBN.BMP,resources/DB.BMP,Door3,-0.302047186,-0.086629659,1,0,0,1.926,optionLeft,70,12645,6,13,0,13,0,1,,,,,,,,,,,,,,,,,,,,,,,,,,,,,,,,,,,,,,,
,,,,,,,,2023-08-16_08h54.19.109,HF_wild_card,2022.2.4,Win32,59.8372427,57b889c1e163b10001abf340,64d2fd46c836a06233681665,64dc7ec5a88e06ed0dc49382,,,,,,,sngl,resources/Empty.png,resources/DB.BMP,WildCard_Ex,0.299387148,-0.041290788,1,0,0,1.1028,optionRight,55,12700,6,14,0,14,0,1,,,,,,,,,,,,,,,,,,,,,,,,,,,,,,,,,,,,,,,
,,,,,,,,2023-08-16_08h54.19.109,HF_wild_card,2022.2.4,Win32,59.8372427,57b889c1e163b10001abf340,64d2fd46c836a06233681665,64dc7ec5a88e06ed0dc49382,,,,,,,sngl,resources/Empty.png,resources/DB.BMP,WildCard_Ex,0.276255057,-0.056095308,1,0,0,1.1072,optionRight,45,12745,6,15,0,15,0,1,,,,,,,,,,,,,,,,,,,,,,,,,,,,,,,,,,,,,,,
,,,,,,,,2023-08-16_08h54.19.109,HF_wild_card,2022.2.4,Win32,59.8372427,57b889c1e163b10001abf340,64d2fd46c836a06233681665,64dc7ec5a88e06ed0dc49382,,,,,,,sngl,resources/DP.BMP,resources/Empty.png,Door4,-0.369592875,-0.062572295,1,0,0,1.1479,optionLeft,60,12805,6,16,0,16,0,1,,,,,,,,,,,,,,,,,,,,,,,,,,,,,,,,,,,,,,,
,,,,,,,,2023-08-16_08h54.19.109,HF_wild_card,2022.2.4,Win32,59.8372427,57b889c1e163b10001abf340,64d2fd46c836a06233681665,64dc7ec5a88e06ed0dc49382,,,,,,,decisionTrl,resources/DB.BMP,resources/DG.BMP,WildCard_Ex,-0.313150576,-0.039440204,1,0,0,1.8745,optionLeft,55,12860,6,17,0,17,0,1,,,,,,,,,,,,,,,,,,,,,,,,,,,,,,,,,,,,,,,
,,,,,,,,2023-08-16_08h54.19.109,HF_wild_card,2022.2.4,Win32,59.8372427,57b889c1e163b10001abf340,64d2fd46c836a06233681665,64dc7ec5a88e06ed0dc49382,,,,,,,decisionTrl,resources/DG.BMP,resources/DB.BMP,WildCard_Ex,0.322519084,-0.069974555,1,0,0,1.6773,optionRight,55,12915,6,18,0,18,0,1,,,,,,,,,,,,,,,,,,,,,,,,,,,,,,,,,,,,,,,
,,,,,,,,2023-08-16_08h54.19.109,HF_wild_card,2022.2.4,Win32,59.8372427,57b889c1e163b10001abf340,64d2fd46c836a06233681665,64dc7ec5a88e06ed0dc49382,,,,,,,ctch,resources/DR.BMP,resources/DBN.BMP,Door3,0.322519084,-0.042216061,1,0,0,1.2743,optionRight,70,12985,6,19,0,19,0,1,,,,,,,,,,,,,,,,,,,,,,,,,,,,,,,,,,,,,,,
,,,,,,,,2023-08-16_08h54.19.109,HF_wild_card,2022.2.4,Win32,59.8372427,57b889c1e163b10001abf340,64d2fd46c836a06233681665,64dc7ec5a88e06ed0dc49382,,,,,,,decisionTrl,resources/DR.BMP,resources/DG.BMP,Door1,0.335473058,-0.057945892,1,0,0,1.6126,optionRight,30,13015,6,20,0,20,0,1,,,,,,,,,,,,,,,,,,,,,,,,,,,,,,,,,,,,,,,
,,,,,,,,2023-08-16_08h54.19.109,HF_wild_card,2022.2.4,Win32,59.8372427,57b889c1e163b10001abf340,64d2fd46c836a06233681665,64dc7ec5a88e06ed0dc49382,,,,,,,decisionTrl,resources/DR.BMP,resources/DG.BMP,Door1,0.327145642,-0.068124009,1,0,0,1.1955,optionRight,30,13045,6,21,0,21,0,1,,,,,,,,,,,,,,,,,,,,,,,,,,,,,,,,,,,,,,,
,,,,,,,,2023-08-16_08h54.19.109,HF_wild_card,2022.2.4,Win32,59.8372427,57b889c1e163b10001abf340,64d2fd46c836a06233681665,64dc7ec5a88e06ed0dc49382,,,,,,,ctch,resources/DG.BMP,resources/DP.BMP,Door4,0.293835356,-0.048693048,1,0,0,1.8623,optionRight,60,13105,6,22,0,22,0,1,,,,,,,,,,,,,,,,,,,,,,,,,,,,,,,,,,,,,,,
,,,,,,,,2023-08-16_08h54.19.109,HF_wild_card,2022.2.4,Win32,59.8372427,57b889c1e163b10001abf340,64d2fd46c836a06233681665,64dc7ec5a88e06ed0dc49382,,,,,,,decisionTrl,resources/DP.BMP,resources/DBN.BMP,Door3,0.290134187,-0.042216061,1,0,0,1.4773,optionRight,70,13175,6,23,0,23,0,1,,,,,,,,,,,,,,,,,,,,,,,,,,,,,,,,,,,,,,,
,,,,,,,,2023-08-16_08h54.19.109,HF_wild_card,2022.2.4,Win32,59.8372427,57b889c1e163b10001abf340,64d2fd46c836a06233681665,64dc7ec5a88e06ed0dc49382,,,,,,,ctch,resources/DP.BMP,resources/DG.BMP,Door4,-0.334432083,-0.089405516,1,0,0,1.7129,optionLeft,60,13235,6,24,0,24,0,1,,,,,,,,,,,,,,,,,,,,,,,,,,,,,,,,,,,,,,,
,,,,,,,,2023-08-16_08h54.19.109,HF_wild_card,2022.2.4,Win32,59.8372427,57b889c1e163b10001abf340,64d2fd46c836a06233681665,64dc7ec5a88e06ed0dc49382,,,,,,,sngl,resources/Empty.png,resources/DG.BMP,Door1,0.311415733,-0.044991918,1,0,0,1.1854,optionRight,30,13265,6,25,0,25,0,1,,,,,,,,,,,,,,,,,,,,,,,,,,,,,,,,,,,,,,,
,,,,,,,,2023-08-16_08h54.19.109,HF_wild_card,2022.2.4,Win32,59.8372427,57b889c1e163b10001abf340,64d2fd46c836a06233681665,64dc7ec5a88e06ed0dc49382,,,,,,,sngl,resources/DG.BMP,resources/Empty.png,Door1,-0.331656187,-0.026486307,1,0,0,1.1288,optionLeft,30,13295,6,26,0,26,0,1,,,,,,,,,,,,,,,,,,,,,,,,,,,,,,,,,,,,,,,
,,,,,,,,2023-08-16_08h54.19.109,HF_wild_card,2022.2.4,Win32,59.8372427,57b889c1e163b10001abf340,64d2fd46c836a06233681665,64dc7ec5a88e06ed0dc49382,,,,,,,ctch,resources/DBN.BMP,resources/DR.BMP,Door3,-0.299271329,-0.042216061,1,0,0,1.2293,optionLeft,70,13365,6,27,0,27,0,1,,,,,,,,,,,,,,,,,,,,,,,,,,,,,,,,,,,,,,,
,,,,,,,,2023-08-16_08h54.19.109,HF_wild_card,2022.2.4,Win32,59.8372427,57b889c1e163b10001abf340,64d2fd46c836a06233681665,64dc7ec5a88e06ed0dc49382,,,,,,,decisionTrl,resources/DR.BMP,resources/DG.BMP,Door1,0.289209031,-0.056095308,1,0,0,1.5622,optionRight,30,13395,6,28,0,28,0,1,,,,,,,,,,,,,,,,,,,,,,,,,,,,,,,,,,,,,,,
,,,,,,,,2023-08-16_08h54.19.109,HF_wild_card,2022.2.4,Win32,59.8372427,57b889c1e163b10001abf340,64d2fd46c836a06233681665,64dc7ec5a88e06ed0dc49382,,,,,,,sngl,resources/Empty.png,resources/DBN.BMP,Door3,0.322519084,-0.041290788,1,0,0,1.1291,optionRight,70,13465,6,29,0,29,0,1,,,,,,,,,,,,,,,,,,,,,,,,,,,,,,,,,,,,,,,
,,,,,,,,2023-08-16_08h54.19.109,HF_wild_card,2022.2.4,Win32,59.8372427,57b889c1e163b10001abf340,64d2fd46c836a06233681665,64dc7ec5a88e06ed0dc49382,,,,,,,decisionTrl,resources/DP.BMP,resources/DB.BMP,Door4,-0.342759654,-0.100508906,1,0,0,2.2453,optionLeft,60,13525,6,30,0,30,0,1,,,,,,,,,,,,,,,,,,,,,,,,,,,,,,,,,,,,,,,
,,,,,,,,2023-08-16_08h54.19.109,HF_wild_card,2022.2.4,Win32,59.8372427,57b889c1e163b10001abf340,64d2fd46c836a06233681665,64dc7ec5a88e06ed0dc49382,,,,,,,ctch,resources/DP.BMP,resources/DG.BMP,Door4,-0.362190538,-0.079227399,1,0,0,1.3644,optionLeft,60,13585,6,31,0,31,0,1,,,,,,,,,,,,,,,,,,,,,,,,,,,,,,,,,,,,,,,
,,,,,,,,2023-08-16_08h54.19.109,HF_wild_card,2022.2.4,Win32,59.8372427,57b889c1e163b10001abf340,64d2fd46c836a06233681665,64dc7ec5a88e06ed0dc49382,,,,,,,decisionTrl,resources/DB.BMP,resources/DR.BMP,WildCard_Ex,-0.299271329,-0.059796438,1,0,0,1.5807,optionLeft,55,13640,6,32,0,32,0,1,,,,,,,,,,,,,,,,,,,,,,,,,,,,,,,,,,,,,,,
,,,,,,,,2023-08-16_08h54.19.109,HF_wild_card,2022.2.4,Win32,59.8372427,57b889c1e163b10001abf340,64d2fd46c836a06233681665,64dc7ec5a88e06ed0dc49382,,,,,,,decisionTrl,resources/DB.BMP,resources/DBN.BMP,Door3,0.33639837,-0.051468905,1,0,0,1.3798,optionRight,70,13710,6,33,0,33,0,1,,,,,,,,,,,,,,,,,,,,,,,,,,,,,,,,,,,,,,,
,,,,,,,,2023-08-16_08h54.19.109,HF_wild_card,2022.2.4,Win32,59.8372427,57b889c1e163b10001abf340,64d2fd46c836a06233681665,64dc7ec5a88e06ed0dc49382,,,,,,,decisionTrl,resources/DB.BMP,resources/DP.BMP,Door4,0.331771967,-0.082003256,1,0,0,1.6857,optionRight,60,13770,6,34,0,34,0,1,,,,,,,,,,,,,,,,,,,,,,,,,,,,,,,,,,,,,,,
,,,,,,,,2023-08-16_08h54.19.109,HF_wild_card,2022.2.4,Win32,59.8372427,57b889c1e163b10001abf340,64d2fd46c836a06233681665,64dc7ec5a88e06ed0dc49382,,,,,,,decisionTrl,resources/DG.BMP,resources/DR.BMP,Door1,-0.291869069,-0.050543632,1,0,0,1.608,optionLeft,30,13800,6,35,0,35,0,1,,,,,,,,,,,,,,,,,,,,,,,,,,,,,,,,,,,,,,,
,,,,,,,,2023-08-16_08h54.19.109,HF_wild_card,2022.2.4,Win32,59.8372427,57b889c1e163b10001abf340,64d2fd46c836a06233681665,64dc7ec5a88e06ed0dc49382,,,,,,,decisionTrl,resources/DP.BMP,resources/DBN.BMP,Door3,0.245720706,-0.057020658,1,0,0,1.346,optionRight,70,13870,6,36,0,36,0,1,,,,,,,,,,,,,,,,,,,,,,,,,,,,,,,,,,,,,,,
,,,,,,,,2023-08-16_08h54.19.109,HF_wild_card,2022.2.4,Win32,59.8372427,57b889c1e163b10001abf340,64d2fd46c836a06233681665,64dc7ec5a88e06ed0dc49382,,,,,,,decisionTrl,resources/DG.BMP,resources/DR.BMP,Door1,-0.293719614,-0.053319528,1,0,0,1.5413,optionLeft,30,13900,6,37,0,37,0,1,,,,,,,,,,,,,,,,,,,,,,,,,,,,,,,,,,,,,,,
,,,,,,,,2023-08-16_08h54.19.109,HF_wild_card,2022.2.4,Win32,59.8372427,57b889c1e163b10001abf340,64d2fd46c836a06233681665,64dc7ec5a88e06ed0dc49382,,,,,,,ctch,resources/DG.BMP,resources/DP.BMP,Door4,0.305864019,-0.066273425,1,0,0,1.8076,optionRight,80,13980,6,38,0,38,0,1,,,,,,,,,,,,,,,,,,,,,,,,,,,,,,,,,,,,,,,
,,,,,,,,2023-08-16_08h54.19.109,HF_wild_card,2022.2.4,Win32,59.8372427,57b889c1e163b10001abf340,64d2fd46c836a06233681665,64dc7ec5a88e06ed0dc49382,,,,,,,decisionTrl,resources/DP.BMP,resources/DBN.BMP,Door3,0.29476059,-0.051468905,1,0,0,2.3524,optionRight,70,14050,6,39,0,39,0,1,,,,,,,,,,,,,,,,,,,,,,,,,,,,,,,,,,,,,,,
,,,,,,,,2023-08-16_08h54.19.109,HF_wild_card,2022.2.4,Win32,59.8372427,57b889c1e163b10001abf340,64d2fd46c836a06233681665,64dc7ec5a88e06ed0dc49382,,,,,,,decisionTrl,resources/DR.BMP,resources/DB.BMP,WildCard_Ex,0.30216285,-0.065348152,1,0,0,2.197,optionRight,55,14105,6,40,0,40,0,1,,,,,,,,,,,,,,,,,,,,,,,,,,,,,,,,,,,,,,,
,,,,,,,,2023-08-16_08h54.19.109,HF_wild_card,2022.2.4,Win32,59.8372427,57b889c1e163b10001abf340,64d2fd46c836a06233681665,64dc7ec5a88e06ed0dc49382,,,,,,,decisionTrl,resources/DG.BMP,resources/DR.BMP,Door1,-0.315926433,-0.032037944,1,0,0,1.736,optionLeft,30,14135,6,41,0,41,0,1,,,,,,,,,,,,,,,,,,,,,,,,,,,,,,,,,,,,,,,
,,,,,,,,2023-08-16_08h54.19.109,HF_wild_card,2022.2.4,Win32,59.8372427,57b889c1e163b10001abf340,64d2fd46c836a06233681665,64dc7ec5a88e06ed0dc49382,,,,,,,sngl,resources/DB.BMP,resources/Empty.png,WildCard_Ex,-0.328880407,-0.035739074,1,0,0,1.0146,optionLeft,45,14180,6,42,0,42,0,1,,,,,,,,,,,,,,,,,,,,,,,,,,,,,,,,,,,,,,,
,,,,,,,,2023-08-16_08h54.19.109,HF_wild_card,2022.2.4,Win32,59.8372427,57b889c1e163b10001abf340,64d2fd46c836a06233681665,64dc7ec5a88e06ed0dc49382,,,,,,,decisionTrl,resources/DP.BMP,resources/DBN.BMP,Door3,0.288283642,-0.099583633,1,0,0,2.7129,optionRight,70,14250,6,43,0,43,0,1,,,,,,,,,,,,,,,,,,,,,,,,,,,,,,,,,,,,,,,
,,,,,,,,2023-08-16_08h54.19.109,HF_wild_card,2022.2.4,Win32,59.8372427,57b889c1e163b10001abf340,64d2fd46c836a06233681665,64dc7ec5a88e06ed0dc49382,,,,,,,,,,,,,,,,,,,,,,,,,,5,0,5,0,1,,,,,,,,,,,,,,,,,,,,,,,,,,,,,,,,,,
,,,,,,,,2023-08-16_08h54.19.109,HF_wild_card,2022.2.4,Win32,59.8372427,57b889c1e163b10001abf340,64d2fd46c836a06233681665,64dc7ec5a88e06ed0dc49382,,,,,,,decisionTrl,resources/DR.BMP,resources/DG.BMP,Door1,0.308639876,-0.131043257,1,0,0,1.903,optionRight,30,14280,7,0,0,0,0,1,,,,,,,,,,,,,,,,,,,,,,,,,,,,,,,,,,,,,,,
,,,,,,,,2023-08-16_08h54.19.109,HF_wild_card,2022.2.4,Win32,59.8372427,57b889c1e163b10001abf340,64d2fd46c836a06233681665,64dc7ec5a88e06ed0dc49382,,,,,,,decisionTrl,resources/DP.BMP,resources/DBN.BMP,Door3,0.28735833,-0.038514931,1,0,0,2.0911,optionRight,70,14350,7,1,0,1,0,1,,,,,,,,,,,,,,,,,,,,,,,,,,,,,,,,,,,,,,,
,,,,,,,,2023-08-16_08h54.19.109,HF_wild_card,2022.2.4,Win32,59.8372427,57b889c1e163b10001abf340,64d2fd46c836a06233681665,64dc7ec5a88e06ed0dc49382,,,,,,,decisionTrl,resources/DR.BMP,resources/DG.BMP,Door1,0.325294941,-0.038514931,1,0,0,1.4637,optionRight,30,14380,7,2,0,2,0,1,,,,,,,,,,,,,,,,,,,,,,,,,,,,,,,,,,,,,,,
,,,,,,,,2023-08-16_08h54.19.109,HF_wild_card,2022.2.4,Win32,59.8372427,57b889c1e163b10001abf340,64d2fd46c836a06233681665,64dc7ec5a88e06ed0dc49382,,,,,,,ctch,resources/DR.BMP,resources/DBN.BMP,Door3,0.317892681,-0.048693048,1,0,0,1.3471,optionRight,70,14450,7,3,0,3,0,1,,,,,,,,,,,,,,,,,,,,,,,,,,,,,,,,,,,,,,,
,,,,,,,,2023-08-16_08h54.19.109,HF_wild_card,2022.2.4,Win32,59.8372427,57b889c1e163b10001abf340,64d2fd46c836a06233681665,64dc7ec5a88e06ed0dc49382,,,,,,,decisionTrl,resources/DR.BMP,resources/DG.BMP,Door1,0.338248915,-0.082928529,1,0,0,1.3648,optionRight,30,14480,7,4,0,4,0,1,,,,,,,,,,,,,,,,,,,,,,,,,,,,,,,,,,,,,,,
,,,,,,,,2023-08-16_08h54.19.109,HF_wild_card,2022.2.4,Win32,59.8372427,57b889c1e163b10001abf340,64d2fd46c836a06233681665,64dc7ec5a88e06ed0dc49382,,,,,,,decisionTrl,resources/DP.BMP,resources/DBN.BMP,Door3,0.300312304,-0.093106646,1,0,0,1.1142,optionRight,70,14550,7,5,0,5,0,1,,,,,,,,,,,,,,,,,,,,,,,,,,,,,,,,,,,,,,,
,,,,,,,,2023-08-16_08h54.19.109,HF_wild_card,2022.2.4,Win32,59.8372427,57b889c1e163b10001abf340,64d2fd46c836a06233681665,64dc7ec5a88e06ed0dc49382,,,,,,,decisionTrl,resources/DG.BMP,resources/DR.BMP,Door1,-0.279840367,-0.069049282,1,0,0,1.3476,optionLeft,30,14580,7,6,0,6,0,1,,,,,,,,,,,,,,,,,,,,,,,,,,,,,,,,,,,,,,,
,,,,,,,,2023-08-16_08h54.19.109,HF_wild_card,2022.2.4,Win32,59.8372427,57b889c1e163b10001abf340,64d2fd46c836a06233681665,64dc7ec5a88e06ed0dc49382,,,,,,,decisionTrl,resources/DBN.BMP,resources/DP.BMP,Door3,-0.307598861,-0.057020658,1,0,0,1.1629,optionLeft,70,14650,7,7,0,7,0,1,,,,,,,,,,,,,,,,,,,,,,,,,,,,,,,,,,,,,,,
,,,,,,,,2023-08-16_08h54.19.109,HF_wild_card,2022.2.4,Win32,59.8372427,57b889c1e163b10001abf340,64d2fd46c836a06233681665,64dc7ec5a88e06ed0dc49382,,,,,,,decisionTrl,resources/DP.BMP,resources/DBN.BMP,Door3,0.318817993,-0.066273425,1,0,0,1.8143,optionRight,70,14720,7,8,0,8,0,1,,,,,,,,,,,,,,,,,,,,,,,,,,,,,,,,,,,,,,,
,,,,,,,,2023-08-16_08h54.19.109,HF_wild_card,2022.2.4,Win32,59.8372427,57b889c1e163b10001abf340,64d2fd46c836a06233681665,64dc7ec5a88e06ed0dc49382,,,,,,,decisionTrl,resources/DP.BMP,resources/DBN.BMP,Door3,0.305864019,-0.111612335,1,0,0,1.4319,optionRight,70,14790,7,9,0,9,0,1,,,,,,,,,,,,,,,,,,,,,,,,,,,,,,,,,,,,,,,
,,,,,,,,2023-08-16_08h54.19.109,HF_wild_card,2022.2.4,Win32,59.8372427,57b889c1e163b10001abf340,64d2fd46c836a06233681665,64dc7ec5a88e06ed0dc49382,,,,,,,ctch,resources/DR.BMP,resources/DBN.BMP,Door3,0.356754604,-0.09495723,1,0,0,1.6647,optionRight,70,14860,7,10,0,10,0,1,,,,,,,,,,,,,,,,,,,,,,,,,,,,,,,,,,,,,,,
,,,,,,,,2023-08-16_08h54.19.109,HF_wild_card,2022.2.4,Win32,59.8372427,57b889c1e163b10001abf340,64d2fd46c836a06233681665,64dc7ec5a88e06ed0dc49382,,,,,,,decisionTrl,resources/DBN.BMP,resources/DP.BMP,Door3,-0.32147807,-0.093106646,1,0,0,1.5313,optionLeft,70,14930,7,11,0,11,0,1,,,,,,,,,,,,,,,,,,,,,,,,,,,,,,,,,,,,,,,
,,,,,,,,2023-08-16_08h54.19.109,HF_wild_card,2022.2.4,Win32,59.8372427,57b889c1e163b10001abf340,64d2fd46c836a06233681665,64dc7ec5a88e06ed0dc49382,,,,,,,decisionTrl,resources/DG.BMP,resources/DR.BMP,Door1,-0.32980568,-0.076451542,1,0,0,1.3819,optionLeft,30,14960,7,12,0,12,0,1,,,,,,,,,,,,,,,,,,,,,,,,,,,,,,,,,,,,,,,
,,,,,,,,2023-08-16_08h54.19.109,HF_wild_card,2022.2.4,Win32,59.8372427,57b889c1e163b10001abf340,64d2fd46c836a06233681665,64dc7ec5a88e06ed0dc49382,,,,,,,ctch,resources/DR.BMP,resources/DBN.BMP,Door3,0.333622513,-0.101434217,1,0,0,1.2132,optionRight,70,15030,7,13,0,13,0,1,,,,,,,,,,,,,,,,,,,,,,,,,,,,,,,,,,,,,,,
,,,,,,,,2023-08-16_08h54.19.109,HF_wild_card,2022.2.4,Win32,59.8372427,57b889c1e163b10001abf340,64d2fd46c836a06233681665,64dc7ec5a88e06ed0dc49382,,,,,,,decisionTrl,resources/DBN.BMP,resources/DP.BMP,Door3,-0.380696265,-0.050543632,1,0,0,1.2139,optionLeft,70,15100,7,14,0,14,0,1,,,,,,,,,,,,,,,,,,,,,,,,,,,,,,,,,,,,,,,
,,,,,,,,2023-08-16_08h54.19.109,HF_wild_card,2022.2.4,Win32,59.8372427,57b889c1e163b10001abf340,64d2fd46c836a06233681665,64dc7ec5a88e06ed0dc49382,,,,,,,ctch,resources/DG.BMP,resources/DP.BMP,Door4,0.353053435,-0.057945892,1,0,0,1.3633,optionRight,80,15180,7,15,0,15,0,1,,,,,,,,,,,,,,,,,,,,,,,,,,,,,,,,,,,,,,,
,,,,,,,,2023-08-16_08h54.19.109,HF_wild_card,2022.2.4,Win32,59.8372427,57b889c1e163b10001abf340,64d2fd46c836a06233681665,64dc7ec5a88e06ed0dc49382,,,,,,,ctch,resources/DG.BMP,resources/DP.BMP,Door4,0.280881382,-0.066273425,1,0,0,1.6646,optionRight,60,15240,7,16,0,16,0,1,,,,,,,,,,,,,,,,,,,,,,,,,,,,,,,,,,,,,,,
,,,,,,,,2023-08-16_08h54.19.109,HF_wild_card,2022.2.4,Win32,59.8372427,57b889c1e163b10001abf340,64d2fd46c836a06233681665,64dc7ec5a88e06ed0dc49382,,,,,,,decisionTrl,resources/DP.BMP,resources/DBN.BMP,Door3,0.331771967,-0.044066645,1,0,0,1.8304,optionRight,70,15310,7,17,0,17,0,1,,,,,,,,,,,,,,,,,,,,,,,,,,,,,,,,,,,,,,,
,,,,,,,,2023-08-16_08h54.19.109,HF_wild_card,2022.2.4,Win32,59.8372427,57b889c1e163b10001abf340,64d2fd46c836a06233681665,64dc7ec5a88e06ed0dc49382,,,,,,,ctch,resources/DBN.BMP,resources/DR.BMP,Door3,-0.342759654,-0.084779113,1,0,0,1.1468,optionLeft,70,15380,7,18,0,18,0,1,,,,,,,,,,,,,,,,,,,,,,,,,,,,,,,,,,,,,,,
,,,,,,,,2023-08-16_08h54.19.109,HF_wild_card,2022.2.4,Win32,59.8372427,57b889c1e163b10001abf340,64d2fd46c836a06233681665,64dc7ec5a88e06ed0dc49382,,,,,,,decisionTrl,resources/DBN.BMP,resources/DP.BMP,Door3,-0.315926433,-0.069974555,1,0,0,1.0475,optionLeft,70,15450,7,19,0,19,0,1,,,,,,,,,,,,,,,,,,,,,,,,,,,,,,,,,,,,,,,
,,,,,,,,2023-08-16_08h54.19.109,HF_wild_card,2022.2.4,Win32,59.8372427,57b889c1e163b10001abf340,64d2fd46c836a06233681665,64dc7ec5a88e06ed0dc49382,,,,,,,decisionTrl,resources/DBN.BMP,resources/DP.BMP,Door3,-0.3446102,-0.046842541,1,0,0,1.1817,optionLeft,70,15520,7,20,0,20,0,1,,,,,,,,,,,,,,,,,,,,,,,,,,,,,,,,,,,,,,,
,,,,,,,,2023-08-16_08h54.19.109,HF_wild_card,2022.2.4,Win32,59.8372427,57b889c1e163b10001abf340,64d2fd46c836a06233681665,64dc7ec5a88e06ed0dc49382,,,,,,,decisionTrl,resources/DR.BMP,resources/DG.BMP,Door1,0.304938707,-0.032963294,1,0,0,1.4301,optionRight,30,15550,7,21,0,21,0,1,,,,,,,,,,,,,,,,,,,,,,,,,,,,,,,,,,,,,,,
,,,,,,,,2023-08-16_08h54.19.109,HF_wild_card,2022.2.4,Win32,59.8372427,57b889c1e163b10001abf340,64d2fd46c836a06233681665,64dc7ec5a88e06ed0dc49382,,,,,,,ctch,resources/DBN.BMP,resources/DR.BMP,Door3,-0.288167939,-0.031112671,1,0,0,1.1981,optionLeft,70,15620,7,22,0,22,0,1,,,,,,,,,,,,,,,,,,,,,,,,,,,,,,,,,,,,,,,
,,,,,,,,2023-08-16_08h54.19.109,HF_wild_card,2022.2.4,Win32,59.8372427,57b889c1e163b10001abf340,64d2fd46c836a06233681665,64dc7ec5a88e06ed0dc49382,,,,,,,ctch,resources/DP.BMP,resources/DG.BMP,Door4,-0.31870229,-0.10235949,1,0,0,1.8639,optionLeft,60,15680,7,23,0,23,0,1,,,,,,,,,,,,,,,,,,,,,,,,,,,,,,,,,,,,,,,
,,,,,,,,2023-08-16_08h54.19.109,HF_wild_card,2022.2.4,Win32,59.8372427,57b889c1e163b10001abf340,64d2fd46c836a06233681665,64dc7ec5a88e06ed0dc49382,,,,,,,decisionTrl,resources/DR.BMP,resources/DG.BMP,Door1,0.333622513,-0.067198775,1,0,0,1.8641,optionRight,30,15710,7,24,0,24,0,1,,,,,,,,,,,,,,,,,,,,,,,,,,,,,,,,,,,,,,,
,,,,,,,,2023-08-16_08h54.19.109,HF_wild_card,2022.2.4,Win32,59.8372427,57b889c1e163b10001abf340,64d2fd46c836a06233681665,64dc7ec5a88e06ed0dc49382,,,,,,,ctch,resources/DBN.BMP,resources/DR.BMP,Door3,-0.335357317,-0.069974555,1,0,0,1.1308,optionLeft,70,15780,7,25,0,25,0,1,,,,,,,,,,,,,,,,,,,,,,,,,,,,,,,,,,,,,,,
,,,,,,,,2023-08-16_08h54.19.109,HF_wild_card,2022.2.4,Win32,59.8372427,57b889c1e163b10001abf340,64d2fd46c836a06233681665,64dc7ec5a88e06ed0dc49382,,,,,,,decisionTrl,resources/DG.BMP,resources/DR.BMP,Door1,-0.339058524,-0.006130073,1,0,0,1.6641,optionLeft,30,15810,7,26,0,26,0,1,,,,,,,,,,,,,,,,,,,,,,,,,,,,,,,,,,,,,,,
,,,,,,,,2023-08-16_08h54.19.109,HF_wild_card,2022.2.4,Win32,59.8372427,57b889c1e163b10001abf340,64d2fd46c836a06233681665,64dc7ec5a88e06ed0dc49382,,,,,,,decisionTrl,resources/DP.BMP,resources/DBN.BMP,Door3,0.32159385,-0.081077983,1,0,0,1.6141,optionRight,70,15880,7,27,0,27,0,1,,,,,,,,,,,,,,,,,,,,,,,,,,,,,,,,,,,,,,,
,,,,,,,,2023-08-16_08h54.19.109,HF_wild_card,2022.2.4,Win32,59.8372427,57b889c1e163b10001abf340,64d2fd46c836a06233681665,64dc7ec5a88e06ed0dc49382,,,,,,,ctch,resources/DP.BMP,resources/DG.BMP,Door4,-0.339058524,-0.078302126,1,0,0,1.7137,optionLeft,80,15960,7,28,0,28,0,1,,,,,,,,,,,,,,,,,,,,,,,,,,,,,,,,,,,,,,,
,,,,,,,,2023-08-16_08h54.19.109,HF_wild_card,2022.2.4,Win32,59.8372427,57b889c1e163b10001abf340,64d2fd46c836a06233681665,64dc7ec5a88e06ed0dc49382,,,,,,,decisionTrl,resources/DBN.BMP,resources/DP.BMP,Door3,-0.31870229,-0.052394178,1,0,0,1.147,optionLeft,70,16030,7,29,0,29,0,1,,,,,,,,,,,,,,,,,,,,,,,,,,,,,,,,,,,,,,,
,,,,,,,,2023-08-16_08h54.19.109,HF_wild_card,2022.2.4,Win32,59.8372427,57b889c1e163b10001abf340,64d2fd46c836a06233681665,64dc7ec5a88e06ed0dc49382,,,,,,,decisionTrl,resources/DG.BMP,resources/DR.BMP,Door1,-0.272438108,-0.037589658,1,0,0,1.5136,optionLeft,30,16060,7,30,0,30,0,1,,,,,,,,,,,,,,,,,,,,,,,,,,,,,,,,,,,,,,,
,,,,,,,,2023-08-16_08h54.19.109,HF_wild_card,2022.2.4,Win32,59.8372427,57b889c1e163b10001abf340,64d2fd46c836a06233681665,64dc7ec5a88e06ed0dc49382,,,,,,,decisionTrl,resources/DG.BMP,resources/DR.BMP,Door1,-0.290018484,-0.045917191,1,0,0,1.2811,optionLeft,30,16090,7,31,0,31,0,1,,,,,,,,,,,,,,,,,,,,,,,,,,,,,,,,,,,,,,,
,,,,,,,,2023-08-16_08h54.19.109,HF_wild_card,2022.2.4,Win32,59.8372427,57b889c1e163b10001abf340,64d2fd46c836a06233681665,64dc7ec5a88e06ed0dc49382,,,,,,,ctch,resources/DG.BMP,resources/DP.BMP,Door4,0.315116824,-0.042216061,1,0,0,1.9471,optionRight,60,16150,7,32,0,32,0,1,,,,,,,,,,,,,,,,,,,,,,,,,,,,,,,,,,,,,,,
,,,,,,,,2023-08-16_08h54.19.109,HF_wild_card,2022.2.4,Win32,59.8372427,57b889c1e163b10001abf340,64d2fd46c836a06233681665,64dc7ec5a88e06ed0dc49382,,,,,,,decisionTrl,resources/DG.BMP,resources/DR.BMP,Door1,-0.308524173,-0.046842541,1,0,0,1.3631,optionLeft,30,16180,7,33,0,33,0,1,,,,,,,,,,,,,,,,,,,,,,,,,,,,,,,,,,,,,,,
,,,,,,,,2023-08-16_08h54.19.109,HF_wild_card,2022.2.4,Win32,59.8372427,57b889c1e163b10001abf340,64d2fd46c836a06233681665,64dc7ec5a88e06ed0dc49382,,,,,,,decisionTrl,resources/DR.BMP,resources/DG.BMP,Door1,0.309565265,-0.056095308,1,0,0,1.7638,optionRight,30,16210,7,34,0,34,0,1,,,,,,,,,,,,,,,,,,,,,,,,,,,,,,,,,,,,,,,
,,,,,,,,2023-08-16_08h54.19.109,HF_wild_card,2022.2.4,Win32,59.8372427,57b889c1e163b10001abf340,64d2fd46c836a06233681665,64dc7ec5a88e06ed0dc49382,,,,,,,ctch,resources/DP.BMP,resources/DG.BMP,Door4,-0.376069862,-0.055170035,1,0,0,1.3145,optionLeft,60,16270,7,35,0,35,0,1,,,,,,,,,,,,,,,,,,,,,,,,,,,,,,,,,,,,,,,
,,,,,,,,2023-08-16_08h54.19.109,HF_wild_card,2022.2.4,Win32,59.8372427,57b889c1e163b10001abf340,64d2fd46c836a06233681665,64dc7ec5a88e06ed0dc49382,,,,,,,,,,,,,,,,,,,,,,,,,,6,0,6,0,1,,,,,,,,,,,,,,,,,,,,,,,,,,,,,,,,,,
,,,,,,,,2023-08-16_08h54.19.109,HF_wild_card,2022.2.4,Win32,59.8372427,57b889c1e163b10001abf340,64d2fd46c836a06233681665,64dc7ec5a88e06ed0dc49382,,,,,,,,,,,,,,,,,,,,,,,,,,,,,,,4,,,,,,,,,,,,,,,,,,,,,,,,,,,,,,,,,
,,,,,,,,2023-08-16_08h54.19.109,HF_wild_card,2022.2.4,Win32,59.8372427,57b889c1e163b10001abf340,64d2fd46c836a06233681665,64dc7ec5a88e06ed0dc49382,,,,,,,,,,,,,,,,,,,,,,,,,,,,,,,,,,,,,,,,,,,,,,,,,,,,,,,,,,,,,,,,
,,,,,,,,2023-08-16_08h54.19.109,HF_wild_card,2022.2.4,Win32,59.8372427,57b889c1e163b10001abf340,64d2fd46c836a06233681665,64dc7ec5a88e06ed0dc49382,,,,,,,,,,,,,,,,,,,,,,,,,,,,,,,,55,WC_extreme,resources/DB.BMP,0,0,0,0,1,,,,,,,,,,,,,,,,,,,,,,,,,
,,,,,,,,2023-08-16_08h54.19.109,HF_wild_card,2022.2.4,Win32,59.8372427,57b889c1e163b10001abf340,64d2fd46c836a06233681665,64dc7ec5a88e06ed0dc49382,,,,,,,,,,,,,,,,,,,,,,,,,,,,,,,,40,WC_nonExtreme,resources/DY.BMP,1,0,1,0,1,,,,,,,,,,,,,,,,,,,,,,,,,
,,,,,,,,2023-08-16_08h54.19.109,HF_wild_card,2022.2.4,Win32,59.8372427,57b889c1e163b10001abf340,64d2fd46c836a06233681665,64dc7ec5a88e06ed0dc49382,,,,,,,,,,,,,,,,,,,,,,,,,,,,,,,,70,Door3,resources/DBN.BMP,2,0,2,0,1,,,,,,,,,,,,,,,,,,,,,,,,,
,,,,,,,,2023-08-16_08h54.19.109,HF_wild_card,2022.2.4,Win32,59.8372427,57b889c1e163b10001abf340,64d2fd46c836a06233681665,64dc7ec5a88e06ed0dc49382,,,,,,,,,,,,,,,,,,,,,,,,,,,,,,,,55,Door1,resources/DG.BMP,3,0,3,0,1,,,,,,,,,,,,,,,,,,,,,,,,,
,,,,,,,,2023-08-16_08h54.19.109,HF_wild_card,2022.2.4,Win32,59.8372427,57b889c1e163b10001abf340,64d2fd46c836a06233681665,64dc7ec5a88e06ed0dc49382,,,,,,,,,,,,,,,,,,,,,,,,,,,,,,,,35,Door2,resources/DR.BMP,4,0,4,0,1,,,,,,,,,,,,,,,,,,,,,,,,,
,,,,,,,,2023-08-16_08h54.19.109,HF_wild_card,2022.2.4,Win32,59.8372427,57b889c1e163b10001abf340,64d2fd46c836a06233681665,64dc7ec5a88e06ed0dc49382,,,,,,,,,,,,,,,,,,,,,,,,,,,,,,,,50,Door4,resources/DP.BMP,5,0,5,0,1,,,,,,,,,,,,,,,,,,,,,,,,,
,,,,,,,,2023-08-16_08h54.19.109,HF_wild_card,2022.2.4,Win32,59.8372427,57b889c1e163b10001abf340,64d2fd46c836a06233681665,64dc7ec5a88e06ed0dc49382,,,,,,,,,,,,,,,,,,,,,,,,,,,,,,,,,,,,,,,,,,,,,,,,,,,,,,,,,,,,,,,,
,,,,,,,,2023-08-16_08h54.19.109,HF_wild_card,2022.2.4,Win32,59.8372427,57b889c1e163b10001abf340,64d2fd46c836a06233681665,64dc7ec5a88e06ed0dc49382,,,,,,,,,,,,,,,,,,,,,,,,,,,,,,,,,,,,,,,,0,0,0,0,1,,,,,,,,,,,,,,,,,,,,
