Condition,Low fixed image (Door1),Low risky image (Door2),High fixed image (Door3),High risky image (Door4),NonExtreme Wild Card 1,NonExtreme Wild Card 2,,date,expName,psychopyVersion,OS,frameRate,PROLIFIC_PID,STUDY_ID,SESSION_ID,mouse_2.x,mouse_2.y,mouse_2.leftButton,mouse_2.midButton,mouse_2.rightButton,mouse_2.clicked_name,Trial Type,Left Option Image,Right Option Image,Chosen Door,mouse.x,mouse.y,mouse.leftButton,mouse.midButton,mouse.rightButton,mouse.time,mouse.clicked_name,Feedback,Cumulative Reward,Block,trial.thisRepN,trial.thisTrialN,trial.thisN,trial.thisIndex,trial.ran,blocks.thisRepN,blocks.thisTrialN,blocks.thisN,blocks.thisIndex,blocks.ran,Money conversion,First Outcome Reported,Shown Door (First Outcome),Displayed Image (First Outcome),outcomes.thisRepN,outcomes.thisTrialN,outcomes.thisN,outcomes.thisIndex,outcomes.ran,judgments.thisRepN,judgments.thisTrialN,judgments.thisN,judgments.thisIndex,judgments.ran,freqMouse.x,freqMouse.y,freqMouse.leftButton,freqMouse.midButton,freqMouse.rightButton,freqMouse.clicked_name,FQJ for first outcome,FQJ for second outcome,Shown Door,Displayed Image,trials.thisRepN,trials.thisTrialN,trials.thisN,trials.thisIndex,trials.ran,judgBlock.thisRepN,judgBlock.thisTrialN,judgBlock.thisN,judgBlock.thisIndex,judgBlock.ran
2,resources/DBN.BMP,resources/DY.BMP,resources/DG.BMP,resources/DP.BMP,resources/DB.BMP,resources/DR.BMP,,2023-08-16_08h46.41.526,HF_wild_card,2022.2.4,Win32,5.453514245,616c8c6c8a2b0bd84d21d629,64d2fd46c836a06233681665,64dc7e3411ceb89b77a08da4,,,,,,,,,,,,,,,,,,,,,,,,,,,,,,,,,,,,,,,,,,,,,,,,,,,,,,,,,,,,,,,,
,,,,,,,,2023-08-16_08h46.41.526,HF_wild_card,2022.2.4,Win32,5.453514245,616c8c6c8a2b0bd84d21d629,64d2fd46c836a06233681665,64dc7e3411ceb89b77a08da4,0.002777778,-0.416666667,1,0,0,agree,,,,,,,,,,,,,,,,,,,,,,,,,,,,,,,,,,,,,,,,,,,,,,,,,,,,,,,,,,
,,,,,,,,2023-08-16_08h46.41.526,HF_wild_card,2022.2.4,Win32,5.453514245,616c8c6c8a2b0bd84d21d629,64d2fd46c836a06233681665,64dc7e3411ceb89b77a08da4,,,,,,,,,,,,,,,,,,,,,,,,,,,,,,,,,,,,,,,,,,,,,,,,,,,,,,,,,,,,,,,,
,,,,,,,,2023-08-16_08h46.41.526,HF_wild_card,2022.2.4,Win32,5.453514245,616c8c6c8a2b0bd84d21d629,64d2fd46c836a06233681665,64dc7e3411ceb89b77a08da4,,,,,,,decisionTrl,resources/DG.BMP,resources/DP.BMP,Door4,0.028703732,-0.303703732,1,0,0,0.4716,optionRight,60,60,1,0,0,0,0,1,,,,,,,,,,,,,,,,,,,,,,,,,,,,,,,,,,,,,,,
,,,,,,,,2023-08-16_08h46.41.526,HF_wild_card,2022.2.4,Win32,5.453514245,616c8c6c8a2b0bd84d21d629,64d2fd46c836a06233681665,64dc7e3411ceb89b77a08da4,,,,,,,sngl,resources/Empty.png,resources/DBN.BMP,Door1,-0.207407379,0.007407379,1,0,0,2.4224,optionRight,30,90,1,1,0,1,0,1,,,,,,,,,,,,,,,,,,,,,,,,,,,,,,,,,,,,,,,
,,,,,,,,2023-08-16_08h46.41.526,HF_wild_card,2022.2.4,Win32,5.453514245,616c8c6c8a2b0bd84d21d629,64d2fd46c836a06233681665,64dc7e3411ceb89b77a08da4,,,,,,,decisionTrl,resources/DY.BMP,resources/DBN.BMP,Door2,-0.237037023,-0.00648151,1,0,0,1.8943,optionLeft,40,130,1,2,0,2,0,1,,,,,,,,,,,,,,,,,,,,,,,,,,,,,,,,,,,,,,,
,,,,,,,,2023-08-16_08h46.41.526,HF_wild_card,2022.2.4,Win32,5.453514245,616c8c6c8a2b0bd84d21d629,64d2fd46c836a06233681665,64dc7e3411ceb89b77a08da4,,,,,,,ctch,resources/DBN.BMP,resources/DP.BMP,Door4,0.335185242,-0.054629644,1,0,0,2.1078,optionRight,80,210,1,3,0,3,0,1,,,,,,,,,,,,,,,,,,,,,,,,,,,,,,,,,,,,,,,
,,,,,,,,2023-08-16_08h46.41.526,HF_wild_card,2022.2.4,Win32,5.453514245,616c8c6c8a2b0bd84d21d629,64d2fd46c836a06233681665,64dc7e3411ceb89b77a08da4,,,,,,,decisionTrl,resources/DBN.BMP,resources/DY.BMP,Door2,0.363888889,-0.062037065,1,0,0,2.3642,optionRight,40,250,1,4,0,4,0,1,,,,,,,,,,,,,,,,,,,,,,,,,,,,,,,,,,,,,,,
,,,,,,,,2023-08-16_08h46.41.526,HF_wild_card,2022.2.4,Win32,5.453514245,616c8c6c8a2b0bd84d21d629,64d2fd46c836a06233681665,64dc7e3411ceb89b77a08da4,,,,,,,sngl,resources/Empty.png,resources/DY.BMP,Door2,0.351851908,-0.047222222,1,0,0,1.5146,optionRight,20,270,1,5,0,5,0,1,,,,,,,,,,,,,,,,,,,,,,,,,,,,,,,,,,,,,,,
,,,,,,,,2023-08-16_08h46.41.526,HF_wild_card,2022.2.4,Win32,5.453514245,616c8c6c8a2b0bd84d21d629,64d2fd46c836a06233681665,64dc7e3411ceb89b77a08da4,,,,,,,sngl,resources/DR.BMP,resources/Empty.png,WildCard_NonEx,-0.331481467,0.021296268,1,0,0,1.4518,optionLeft,45,315,1,6,0,6,0,1,,,,,,,,,,,,,,,,,,,,,,,,,,,,,,,,,,,,,,,
,,,,,,,,2023-08-16_08h46.41.526,HF_wild_card,2022.2.4,Win32,5.453514245,616c8c6c8a2b0bd84d21d629,64d2fd46c836a06233681665,64dc7e3411ceb89b77a08da4,,,,,,,decisionTrl,resources/DR.BMP,resources/DP.BMP,Door4,0.293518575,-0.044444444,1,0,0,2.3994,optionRight,60,375,1,7,0,7,0,1,,,,,,,,,,,,,,,,,,,,,,,,,,,,,,,,,,,,,,,
,,,,,,,,2023-08-16_08h46.41.526,HF_wild_card,2022.2.4,Win32,5.453514245,616c8c6c8a2b0bd84d21d629,64d2fd46c836a06233681665,64dc7e3411ceb89b77a08da4,,,,,,,decisionTrl,resources/DP.BMP,resources/DG.BMP,Door3,0.286111111,-0.018518533,1,0,0,2.626,optionRight,70,445,1,8,0,8,0,1,,,,,,,,,,,,,,,,,,,,,,,,,,,,,,,,,,,,,,,
,,,,,,,,2023-08-16_08h46.41.526,HF_wild_card,2022.2.4,Win32,5.453514245,616c8c6c8a2b0bd84d21d629,64d2fd46c836a06233681665,64dc7e3411ceb89b77a08da4,,,,,,,decisionTrl,resources/DY.BMP,resources/DBN.BMP,Door1,0.312963019,-0.058333333,1,0,0,1.4111,optionRight,30,475,1,9,0,9,0,1,,,,,,,,,,,,,,,,,,,,,,,,,,,,,,,,,,,,,,,
,,,,,,,,2023-08-16_08h46.41.526,HF_wild_card,2022.2.4,Win32,5.453514245,616c8c6c8a2b0bd84d21d629,64d2fd46c836a06233681665,64dc7e3411ceb89b77a08da4,,,,,,,sngl,resources/DP.BMP,resources/Empty.png,Door4,-0.172222222,0.004629601,1,0,0,1.3074,optionLeft,80,555,1,10,0,10,0,1,,,,,,,,,,,,,,,,,,,,,,,,,,,,,,,,,,,,,,,
,,,,,,,,2023-08-16_08h46.41.526,HF_wild_card,2022.2.4,Win32,5.453514245,616c8c6c8a2b0bd84d21d629,64d2fd46c836a06233681665,64dc7e3411ceb89b77a08da4,,,,,,,decisionTrl,resources/DP.BMP,resources/DG.BMP,Door4,-0.220370356,0.005555556,1,0,0,1.4328,optionLeft,80,635,1,11,0,11,0,1,,,,,,,,,,,,,,,,,,,,,,,,,,,,,,,,,,,,,,,
,,,,,,,,2023-08-16_08h46.41.526,HF_wild_card,2022.2.4,Win32,5.453514245,616c8c6c8a2b0bd84d21d629,64d2fd46c836a06233681665,64dc7e3411ceb89b77a08da4,,,,,,,sngl,resources/DR.BMP,resources/Empty.png,WildCard_NonEx,-0.200925912,-0.037037065,1,0,0,0.929,optionLeft,55,690,1,12,0,12,0,1,,,,,,,,,,,,,,,,,,,,,,,,,,,,,,,,,,,,,,,
,,,,,,,,2023-08-16_08h46.41.526,HF_wild_card,2022.2.4,Win32,5.453514245,616c8c6c8a2b0bd84d21d629,64d2fd46c836a06233681665,64dc7e3411ceb89b77a08da4,,,,,,,decisionTrl,resources/DG.BMP,resources/DR.BMP,Door3,-0.225925912,-0.033333333,1,0,0,1.2621,optionLeft,70,760,1,13,0,13,0,1,,,,,,,,,,,,,,,,,,,,,,,,,,,,,,,,,,,,,,,
,,,,,,,,2023-08-16_08h46.41.526,HF_wild_card,2022.2.4,Win32,5.453514245,616c8c6c8a2b0bd84d21d629,64d2fd46c836a06233681665,64dc7e3411ceb89b77a08da4,,,,,,,sngl,resources/Empty.png,resources/DR.BMP,WildCard_NonEx,0.172222222,-0.073148176,1,0,0,1.4138,optionRight,55,815,1,14,0,14,0,1,,,,,,,,,,,,,,,,,,,,,,,,,,,,,,,,,,,,,,,
,,,,,,,,2023-08-16_08h46.41.526,HF_wild_card,2022.2.4,Win32,5.453514245,616c8c6c8a2b0bd84d21d629,64d2fd46c836a06233681665,64dc7e3411ceb89b77a08da4,,,,,,,ctch,resources/DBN.BMP,resources/DP.BMP,Door1,-0.175925869,-0.008333333,1,0,0,1.0038,optionLeft,30,845,1,15,0,15,0,1,,,,,,,,,,,,,,,,,,,,,,,,,,,,,,,,,,,,,,,
,,,,,,,,2023-08-16_08h46.41.526,HF_wild_card,2022.2.4,Win32,5.453514245,616c8c6c8a2b0bd84d21d629,64d2fd46c836a06233681665,64dc7e3411ceb89b77a08da4,,,,,,,sngl,resources/Empty.png,resources/DP.BMP,Door4,0.18148151,-0.018518533,1,0,0,1.4119,optionRight,60,905,1,16,0,16,0,1,,,,,,,,,,,,,,,,,,,,,,,,,,,,,,,,,,,,,,,
,,,,,,,,2023-08-16_08h46.41.526,HF_wild_card,2022.2.4,Win32,5.453514245,616c8c6c8a2b0bd84d21d629,64d2fd46c836a06233681665,64dc7e3411ceb89b77a08da4,,,,,,,ctch,resources/DP.BMP,resources/DBN.BMP,Door4,-0.124074046,-0.032407422,1,0,0,1.2731,optionLeft,60,965,1,17,0,17,0,1,,,,,,,,,,,,,,,,,,,,,,,,,,,,,,,,,,,,,,,
,,,,,,,,2023-08-16_08h46.41.526,HF_wild_card,2022.2.4,Win32,5.453514245,616c8c6c8a2b0bd84d21d629,64d2fd46c836a06233681665,64dc7e3411ceb89b77a08da4,,,,,,,decisionTrl,resources/DY.BMP,resources/DBN.BMP,Door2,-0.186111111,0.012962935,1,0,0,1.3,optionLeft,20,985,1,18,0,18,0,1,,,,,,,,,,,,,,,,,,,,,,,,,,,,,,,,,,,,,,,
,,,,,,,,2023-08-16_08h46.41.526,HF_wild_card,2022.2.4,Win32,5.453514245,616c8c6c8a2b0bd84d21d629,64d2fd46c836a06233681665,64dc7e3411ceb89b77a08da4,,,,,,,sngl,resources/DY.BMP,resources/Empty.png,Door2,-0.175925869,-0.012037065,1,0,0,1.159,optionLeft,40,1025,1,19,0,19,0,1,,,,,,,,,,,,,,,,,,,,,,,,,,,,,,,,,,,,,,,
,,,,,,,,2023-08-16_08h46.41.526,HF_wild_card,2022.2.4,Win32,5.453514245,616c8c6c8a2b0bd84d21d629,64d2fd46c836a06233681665,64dc7e3411ceb89b77a08da4,,,,,,,sngl,resources/DG.BMP,resources/Empty.png,Door3,-0.195370356,-0.013888889,1,0,0,1.1507,optionLeft,70,1095,1,20,0,20,0,1,,,,,,,,,,,,,,,,,,,,,,,,,,,,,,,,,,,,,,,
,,,,,,,,2023-08-16_08h46.41.526,HF_wild_card,2022.2.4,Win32,5.453514245,616c8c6c8a2b0bd84d21d629,64d2fd46c836a06233681665,64dc7e3411ceb89b77a08da4,,,,,,,ctch,resources/DY.BMP,resources/DG.BMP,Door2,-0.165740712,-0.00648151,1,0,0,1.0075,optionLeft,40,1135,1,21,0,21,0,1,,,,,,,,,,,,,,,,,,,,,,,,,,,,,,,,,,,,,,,
,,,,,,,,2023-08-16_08h46.41.526,HF_wild_card,2022.2.4,Win32,5.453514245,616c8c6c8a2b0bd84d21d629,64d2fd46c836a06233681665,64dc7e3411ceb89b77a08da4,,,,,,,decisionTrl,resources/DP.BMP,resources/DG.BMP,Door4,-0.149074046,0.012962935,1,0,0,1.2433,optionLeft,60,1195,1,22,0,22,0,1,,,,,,,,,,,,,,,,,,,,,,,,,,,,,,,,,,,,,,,
,,,,,,,,2023-08-16_08h46.41.526,HF_wild_card,2022.2.4,Win32,5.453514245,616c8c6c8a2b0bd84d21d629,64d2fd46c836a06233681665,64dc7e3411ceb89b77a08da4,,,,,,,decisionTrl,resources/DG.BMP,resources/DP.BMP,Door4,0.233333333,-0.025,1,0,0,0.9947,optionRight,80,1275,1,23,0,23,0,1,,,,,,,,,,,,,,,,,,,,,,,,,,,,,,,,,,,,,,,
,,,,,,,,2023-08-16_08h46.41.526,HF_wild_card,2022.2.4,Win32,5.453514245,616c8c6c8a2b0bd84d21d629,64d2fd46c836a06233681665,64dc7e3411ceb89b77a08da4,,,,,,,decisionTrl,resources/DY.BMP,resources/DBN.BMP,Door2,-0.157407379,-0.003703732,1,0,0,0.9875,optionLeft,20,1295,1,24,0,24,0,1,,,,,,,,,,,,,,,,,,,,,,,,,,,,,,,,,,,,,,,
,,,,,,,,2023-08-16_08h46.41.526,HF_wild_card,2022.2.4,Win32,5.453514245,616c8c6c8a2b0bd84d21d629,64d2fd46c836a06233681665,64dc7e3411ceb89b77a08da4,,,,,,,decisionTrl,resources/DP.BMP,resources/DG.BMP,Door3,0.201851908,-0.030555556,1,0,0,0.9899,optionRight,70,1365,1,25,0,25,0,1,,,,,,,,,,,,,,,,,,,,,,,,,,,,,,,,,,,,,,,
,,,,,,,,2023-08-16_08h46.41.526,HF_wild_card,2022.2.4,Win32,5.453514245,616c8c6c8a2b0bd84d21d629,64d2fd46c836a06233681665,64dc7e3411ceb89b77a08da4,,,,,,,decisionTrl,resources/DBN.BMP,resources/DY.BMP,Door1,-0.157407379,-0.007407422,1,0,0,0.9808,optionLeft,30,1395,1,26,0,26,0,1,,,,,,,,,,,,,,,,,,,,,,,,,,,,,,,,,,,,,,,
,,,,,,,,2023-08-16_08h46.41.526,HF_wild_card,2022.2.4,Win32,5.453514245,616c8c6c8a2b0bd84d21d629,64d2fd46c836a06233681665,64dc7e3411ceb89b77a08da4,,,,,,,sngl,resources/Empty.png,resources/DG.BMP,Door3,0.196296353,-0.044444444,1,0,0,1.1325,optionRight,70,1465,1,27,0,27,0,1,,,,,,,,,,,,,,,,,,,,,,,,,,,,,,,,,,,,,,,
,,,,,,,,2023-08-16_08h46.41.526,HF_wild_card,2022.2.4,Win32,5.453514245,616c8c6c8a2b0bd84d21d629,64d2fd46c836a06233681665,64dc7e3411ceb89b77a08da4,,,,,,,decisionTrl,resources/DBN.BMP,resources/DY.BMP,Door2,0.208333333,-0.043518533,1,0,0,0.9969,optionRight,40,1505,1,28,0,28,0,1,,,,,,,,,,,,,,,,,,,,,,,,,,,,,,,,,,,,,,,
,,,,,,,,2023-08-16_08h46.41.526,HF_wild_card,2022.2.4,Win32,5.453514245,616c8c6c8a2b0bd84d21d629,64d2fd46c836a06233681665,64dc7e3411ceb89b77a08da4,,,,,,,decisionTrl,resources/DP.BMP,resources/DR.BMP,Door4,-0.171296268,-0.016666667,1,0,0,1.0091,optionLeft,60,1565,1,29,0,29,0,1,,,,,,,,,,,,,,,,,,,,,,,,,,,,,,,,,,,,,,,
,,,,,,,,2023-08-16_08h46.41.526,HF_wild_card,2022.2.4,Win32,5.453514245,616c8c6c8a2b0bd84d21d629,64d2fd46c836a06233681665,64dc7e3411ceb89b77a08da4,,,,,,,sngl,resources/Empty.png,resources/DR.BMP,WildCard_NonEx,0.226851908,0.000925912,1,0,0,1.1519,optionRight,45,1610,1,30,0,30,0,1,,,,,,,,,,,,,,,,,,,,,,,,,,,,,,,,,,,,,,,
,,,,,,,,2023-08-16_08h46.41.526,HF_wild_card,2022.2.4,Win32,5.453514245,616c8c6c8a2b0bd84d21d629,64d2fd46c836a06233681665,64dc7e3411ceb89b77a08da4,,,,,,,decisionTrl,resources/DG.BMP,resources/DP.BMP,Door3,-0.173148092,-0.008333333,1,0,0,0.9765,optionLeft,70,1680,1,31,0,31,0,1,,,,,,,,,,,,,,,,,,,,,,,,,,,,,,,,,,,,,,,
,,,,,,,,2023-08-16_08h46.41.526,HF_wild_card,2022.2.4,Win32,5.453514245,616c8c6c8a2b0bd84d21d629,64d2fd46c836a06233681665,64dc7e3411ceb89b77a08da4,,,,,,,ctch,resources/DG.BMP,resources/DY.BMP,Door2,0.135185242,-0.027777778,1,0,0,2.7272,optionRight,20,1700,1,32,0,32,0,1,,,,,,,,,,,,,,,,,,,,,,,,,,,,,,,,,,,,,,,
,,,,,,,,2023-08-16_08h46.41.526,HF_wild_card,2022.2.4,Win32,5.453514245,616c8c6c8a2b0bd84d21d629,64d2fd46c836a06233681665,64dc7e3411ceb89b77a08da4,,,,,,,ctch,resources/DP.BMP,resources/DBN.BMP,Door4,-0.114814758,0.002777778,1,0,0,0.9872,optionLeft,80,1780,1,33,0,33,0,1,,,,,,,,,,,,,,,,,,,,,,,,,,,,,,,,,,,,,,,
,,,,,,,,2023-08-16_08h46.41.526,HF_wild_card,2022.2.4,Win32,5.453514245,616c8c6c8a2b0bd84d21d629,64d2fd46c836a06233681665,64dc7e3411ceb89b77a08da4,,,,,,,decisionTrl,resources/DR.BMP,resources/DBN.BMP,Door1,0.271296353,-0.016666667,1,0,0,1.7577,optionRight,30,1810,1,34,0,34,0,1,,,,,,,,,,,,,,,,,,,,,,,,,,,,,,,,,,,,,,,
,,,,,,,,2023-08-16_08h46.41.526,HF_wild_card,2022.2.4,Win32,5.453514245,616c8c6c8a2b0bd84d21d629,64d2fd46c836a06233681665,64dc7e3411ceb89b77a08da4,,,,,,,decisionTrl,resources/DY.BMP,resources/DR.BMP,Door2,-0.170370314,0.030555556,1,0,0,2.2012,optionLeft,40,1850,1,35,0,35,0,1,,,,,,,,,,,,,,,,,,,,,,,,,,,,,,,,,,,,,,,
,,,,,,,,2023-08-16_08h46.41.526,HF_wild_card,2022.2.4,Win32,5.453514245,616c8c6c8a2b0bd84d21d629,64d2fd46c836a06233681665,64dc7e3411ceb89b77a08da4,,,,,,,decisionTrl,resources/DR.BMP,resources/DG.BMP,Door3,0.226851908,-0.011111111,1,0,0,0.9856,optionRight,70,1920,1,36,0,36,0,1,,,,,,,,,,,,,,,,,,,,,,,,,,,,,,,,,,,,,,,
,,,,,,,,2023-08-16_08h46.41.526,HF_wild_card,2022.2.4,Win32,5.453514245,616c8c6c8a2b0bd84d21d629,64d2fd46c836a06233681665,64dc7e3411ceb89b77a08da4,,,,,,,decisionTrl,resources/DG.BMP,resources/DP.BMP,Door3,-0.188888889,0.030555556,1,0,0,2.3167,optionLeft,70,1990,1,37,0,37,0,1,,,,,,,,,,,,,,,,,,,,,,,,,,,,,,,,,,,,,,,
,,,,,,,,2023-08-16_08h46.41.526,HF_wild_card,2022.2.4,Win32,5.453514245,616c8c6c8a2b0bd84d21d629,64d2fd46c836a06233681665,64dc7e3411ceb89b77a08da4,,,,,,,ctch,resources/DY.BMP,resources/DG.BMP,Door3,0.279629686,-0.050925954,1,0,0,1.244,optionRight,70,2060,1,38,0,38,0,1,,,,,,,,,,,,,,,,,,,,,,,,,,,,,,,,,,,,,,,
,,,,,,,,2023-08-16_08h46.41.526,HF_wild_card,2022.2.4,Win32,5.453514245,616c8c6c8a2b0bd84d21d629,64d2fd46c836a06233681665,64dc7e3411ceb89b77a08da4,,,,,,,sngl,resources/DBN.BMP,resources/Empty.png,Door1,-0.175,0.031481467,1,0,0,1.3865,optionLeft,30,2090,1,39,0,39,0,1,,,,,,,,,,,,,,,,,,,,,,,,,,,,,,,,,,,,,,,
,,,,,,,,2023-08-16_08h46.41.526,HF_wild_card,2022.2.4,Win32,5.453514245,616c8c6c8a2b0bd84d21d629,64d2fd46c836a06233681665,64dc7e3411ceb89b77a08da4,,,,,,,decisionTrl,resources/DBN.BMP,resources/DY.BMP,Door2,0.209259288,-0.023148176,1,0,0,2.7557,optionRight,20,2110,1,40,0,40,0,1,,,,,,,,,,,,,,,,,,,,,,,,,,,,,,,,,,,,,,,
,,,,,,,,2023-08-16_08h46.41.526,HF_wild_card,2022.2.4,Win32,5.453514245,616c8c6c8a2b0bd84d21d629,64d2fd46c836a06233681665,64dc7e3411ceb89b77a08da4,,,,,,,ctch,resources/DG.BMP,resources/DY.BMP,Door3,-0.155555556,-0.015740755,1,0,0,1.2421,optionLeft,70,2180,1,41,0,41,0,1,,,,,,,,,,,,,,,,,,,,,,,,,,,,,,,,,,,,,,,
,,,,,,,,2023-08-16_08h46.41.526,HF_wild_card,2022.2.4,Win32,5.453514245,616c8c6c8a2b0bd84d21d629,64d2fd46c836a06233681665,64dc7e3411ceb89b77a08da4,,,,,,,decisionTrl,resources/DR.BMP,resources/DY.BMP,WildCard_NonEx,-0.258333333,-0.058333333,1,0,0,1.764,optionLeft,55,2235,1,42,0,42,0,1,,,,,,,,,,,,,,,,,,,,,,,,,,,,,,,,,,,,,,,
,,,,,,,,2023-08-16_08h46.41.526,HF_wild_card,2022.2.4,Win32,5.453514245,616c8c6c8a2b0bd84d21d629,64d2fd46c836a06233681665,64dc7e3411ceb89b77a08da4,,,,,,,decisionTrl,resources/DBN.BMP,resources/DR.BMP,WildCard_NonEx,0.310185242,-0.002777778,1,0,0,1.4965,optionRight,45,2280,1,43,0,43,0,1,,,,,,,,,,,,,,,,,,,,,,,,,,,,,,,,,,,,,,,
,,,,,,,,2023-08-16_08h46.41.526,HF_wild_card,2022.2.4,Win32,5.453514245,616c8c6c8a2b0bd84d21d629,64d2fd46c836a06233681665,64dc7e3411ceb89b77a08da4,,,,,,,,,,,,,,,,,,,,,,,,,,0,0,0,0,1,,,,,,,,,,,,,,,,,,,,,,,,,,,,,,,,,,
,,,,,,,,2023-08-16_08h46.41.526,HF_wild_card,2022.2.4,Win32,5.453514245,616c8c6c8a2b0bd84d21d629,64d2fd46c836a06233681665,64dc7e3411ceb89b77a08da4,,,,,,,decisionTrl,resources/DY.BMP,resources/DBN.BMP,Door1,0.276851908,-0.069444444,1,0,0,4.2343,optionRight,30,2310,2,0,0,0,0,1,,,,,,,,,,,,,,,,,,,,,,,,,,,,,,,,,,,,,,,
,,,,,,,,2023-08-16_08h46.41.526,HF_wild_card,2022.2.4,Win32,5.453514245,616c8c6c8a2b0bd84d21d629,64d2fd46c836a06233681665,64dc7e3411ceb89b77a08da4,,,,,,,decisionTrl,resources/DG.BMP,resources/DP.BMP,Door3,-0.25,0.025925912,1,0,0,2.5994,optionLeft,70,2380,2,1,0,1,0,1,,,,,,,,,,,,,,,,,,,,,,,,,,,,,,,,,,,,,,,
,,,,,,,,2023-08-16_08h46.41.526,HF_wild_card,2022.2.4,Win32,5.453514245,616c8c6c8a2b0bd84d21d629,64d2fd46c836a06233681665,64dc7e3411ceb89b77a08da4,,,,,,,ctch,resources/DG.BMP,resources/DY.BMP,Door3,-0.261111111,-0.015740755,1,0,0,1.2835,optionLeft,70,2450,2,2,0,2,0,1,,,,,,,,,,,,,,,,,,,,,,,,,,,,,,,,,,,,,,,
,,,,,,,,2023-08-16_08h46.41.526,HF_wild_card,2022.2.4,Win32,5.453514245,616c8c6c8a2b0bd84d21d629,64d2fd46c836a06233681665,64dc7e3411ceb89b77a08da4,,,,,,,decisionTrl,resources/DBN.BMP,resources/DY.BMP,Door2,0.223148176,-0.025925954,1,0,0,3.0938,optionRight,40,2490,2,3,0,3,0,1,,,,,,,,,,,,,,,,,,,,,,,,,,,,,,,,,,,,,,,
,,,,,,,,2023-08-16_08h46.41.526,HF_wild_card,2022.2.4,Win32,5.453514245,616c8c6c8a2b0bd84d21d629,64d2fd46c836a06233681665,64dc7e3411ceb89b77a08da4,,,,,,,ctch,resources/DY.BMP,resources/DG.BMP,Door3,0.328703732,-0.051851866,1,0,0,1.5737,optionRight,70,2560,2,4,0,4,0,1,,,,,,,,,,,,,,,,,,,,,,,,,,,,,,,,,,,,,,,
,,,,,,,,2023-08-16_08h46.41.526,HF_wild_card,2022.2.4,Win32,5.453514245,616c8c6c8a2b0bd84d21d629,64d2fd46c836a06233681665,64dc7e3411ceb89b77a08da4,,,,,,,sngl,resources/DG.BMP,resources/Empty.png,Door3,-0.223148134,0.004629601,1,0,0,1.1939,optionLeft,70,2630,2,5,0,5,0,1,,,,,,,,,,,,,,,,,,,,,,,,,,,,,,,,,,,,,,,
,,,,,,,,2023-08-16_08h46.41.526,HF_wild_card,2022.2.4,Win32,5.453514245,616c8c6c8a2b0bd84d21d629,64d2fd46c836a06233681665,64dc7e3411ceb89b77a08da4,,,,,,,decisionTrl,resources/DP.BMP,resources/DG.BMP,Door3,0.161111111,-0.029629644,1,0,0,1.5416,optionRight,70,2700,2,6,0,6,0,1,,,,,,,,,,,,,,,,,,,,,,,,,,,,,,,,,,,,,,,
,,,,,,,,2023-08-16_08h46.41.526,HF_wild_card,2022.2.4,Win32,5.453514245,616c8c6c8a2b0bd84d21d629,64d2fd46c836a06233681665,64dc7e3411ceb89b77a08da4,,,,,,,decisionTrl,resources/DY.BMP,resources/DBN.BMP,Door2,0.001851908,0.010185157,1,0,0,0.5161,optionLeft,20,2720,2,7,0,7,0,1,,,,,,,,,,,,,,,,,,,,,,,,,,,,,,,,,,,,,,,
,,,,,,,,2023-08-16_08h46.41.526,HF_wild_card,2022.2.4,Win32,5.453514245,616c8c6c8a2b0bd84d21d629,64d2fd46c836a06233681665,64dc7e3411ceb89b77a08da4,,,,,,,decisionTrl,resources/DP.BMP,resources/DG.BMP,Door3,0.262963019,-0.03148151,1,0,0,1.3065,optionRight,70,2790,2,8,0,8,0,1,,,,,,,,,,,,,,,,,,,,,,,,,,,,,,,,,,,,,,,
,,,,,,,,2023-08-16_08h46.41.526,HF_wild_card,2022.2.4,Win32,5.453514245,616c8c6c8a2b0bd84d21d629,64d2fd46c836a06233681665,64dc7e3411ceb89b77a08da4,,,,,,,sngl,resources/Empty.png,resources/DR.BMP,WildCard_NonEx,0.189814843,-0.044444444,1,0,0,1.2293,optionRight,55,2845,2,9,0,9,0,1,,,,,,,,,,,,,,,,,,,,,,,,,,,,,,,,,,,,,,,
,,,,,,,,2023-08-16_08h46.41.526,HF_wild_card,2022.2.4,Win32,5.453514245,616c8c6c8a2b0bd84d21d629,64d2fd46c836a06233681665,64dc7e3411ceb89b77a08da4,,,,,,,decisionTrl,resources/DG.BMP,resources/DP.BMP,Door3,-0.277777778,-0.017592621,1,0,0,1.2614,optionLeft,70,2915,2,10,0,10,0,1,,,,,,,,,,,,,,,,,,,,,,,,,,,,,,,,,,,,,,,
,,,,,,,,2023-08-16_08h46.41.526,HF_wild_card,2022.2.4,Win32,5.453514245,616c8c6c8a2b0bd84d21d629,64d2fd46c836a06233681665,64dc7e3411ceb89b77a08da4,,,,,,,ctch,resources/DP.BMP,resources/DBN.BMP,Door4,-0.200925912,0.006481467,1,0,0,1.7427,optionLeft,60,2975,2,11,0,11,0,1,,,,,,,,,,,,,,,,,,,,,,,,,,,,,,,,,,,,,,,
,,,,,,,,2023-08-16_08h46.41.526,HF_wild_card,2022.2.4,Win32,5.453514245,616c8c6c8a2b0bd84d21d629,64d2fd46c836a06233681665,64dc7e3411ceb89b77a08da4,,,,,,,sngl,resources/Empty.png,resources/DBN.BMP,Door1,0.213888889,-0.013888889,1,0,0,1.3846,optionRight,30,3005,2,12,0,12,0,1,,,,,,,,,,,,,,,,,,,,,,,,,,,,,,,,,,,,,,,
,,,,,,,,2023-08-16_08h46.41.526,HF_wild_card,2022.2.4,Win32,5.453514245,616c8c6c8a2b0bd84d21d629,64d2fd46c836a06233681665,64dc7e3411ceb89b77a08da4,,,,,,,decisionTrl,resources/DP.BMP,resources/DR.BMP,Door4,-0.276851824,0.004629601,1,0,0,5.6977,optionLeft,80,3085,2,13,0,13,0,1,,,,,,,,,,,,,,,,,,,,,,,,,,,,,,,,,,,,,,,
,,,,,,,,2023-08-16_08h46.41.526,HF_wild_card,2022.2.4,Win32,5.453514245,616c8c6c8a2b0bd84d21d629,64d2fd46c836a06233681665,64dc7e3411ceb89b77a08da4,,,,,,,decisionTrl,resources/DR.BMP,resources/DY.BMP,WildCard_NonEx,-0.275,-0.020370399,1,0,0,2.4709,optionLeft,45,3130,2,14,0,14,0,1,,,,,,,,,,,,,,,,,,,,,,,,,,,,,,,,,,,,,,,
,,,,,,,,2023-08-16_08h46.41.526,HF_wild_card,2022.2.4,Win32,5.453514245,616c8c6c8a2b0bd84d21d629,64d2fd46c836a06233681665,64dc7e3411ceb89b77a08da4,,,,,,,ctch,resources/DG.BMP,resources/DY.BMP,Door3,-0.192592578,0.014814801,1,0,0,1.4911,optionLeft,70,3200,2,15,0,15,0,1,,,,,,,,,,,,,,,,,,,,,,,,,,,,,,,,,,,,,,,
,,,,,,,,2023-08-16_08h46.41.526,HF_wild_card,2022.2.4,Win32,5.453514245,616c8c6c8a2b0bd84d21d629,64d2fd46c836a06233681665,64dc7e3411ceb89b77a08da4,,,,,,,ctch,resources/DBN.BMP,resources/DP.BMP,Door4,0.278703732,0.002777778,1,0,0,2.9798,optionRight,60,3260,2,16,0,16,0,1,,,,,,,,,,,,,,,,,,,,,,,,,,,,,,,,,,,,,,,
,,,,,,,,2023-08-16_08h46.41.526,HF_wild_card,2022.2.4,Win32,5.453514245,616c8c6c8a2b0bd84d21d629,64d2fd46c836a06233681665,64dc7e3411ceb89b77a08da4,,,,,,,decisionTrl,resources/DR.BMP,resources/DBN.BMP,WildCard_NonEx,-0.160185157,0.012962935,1,0,0,2.7415,optionLeft,45,3305,2,17,0,17,0,1,,,,,,,,,,,,,,,,,,,,,,,,,,,,,,,,,,,,,,,
,,,,,,,,2023-08-16_08h46.41.526,HF_wild_card,2022.2.4,Win32,5.453514245,616c8c6c8a2b0bd84d21d629,64d2fd46c836a06233681665,64dc7e3411ceb89b77a08da4,,,,,,,decisionTrl,resources/DG.BMP,resources/DP.BMP,Door3,-0.157407379,0.005555556,1,0,0,3.2474,optionLeft,70,3375,2,18,0,18,0,1,,,,,,,,,,,,,,,,,,,,,,,,,,,,,,,,,,,,,,,
,,,,,,,,2023-08-16_08h46.41.526,HF_wild_card,2022.2.4,Win32,5.453514245,616c8c6c8a2b0bd84d21d629,64d2fd46c836a06233681665,64dc7e3411ceb89b77a08da4,,,,,,,decisionTrl,resources/DR.BMP,resources/DG.BMP,Door3,0.316666667,-0.030555556,1,0,0,2.9998,optionRight,70,3445,2,19,0,19,0,1,,,,,,,,,,,,,,,,,,,,,,,,,,,,,,,,,,,,,,,
,,,,,,,,2023-08-16_08h46.41.526,HF_wild_card,2022.2.4,Win32,5.453514245,616c8c6c8a2b0bd84d21d629,64d2fd46c836a06233681665,64dc7e3411ceb89b77a08da4,,,,,,,sngl,resources/Empty.png,resources/DY.BMP,Door2,0.214814843,-0.042592621,1,0,0,1.1698,optionRight,40,3485,2,20,0,20,0,1,,,,,,,,,,,,,,,,,,,,,,,,,,,,,,,,,,,,,,,
,,,,,,,,2023-08-16_08h46.41.526,HF_wild_card,2022.2.4,Win32,5.453514245,616c8c6c8a2b0bd84d21d629,64d2fd46c836a06233681665,64dc7e3411ceb89b77a08da4,,,,,,,sngl,resources/DR.BMP,resources/Empty.png,WildCard_NonEx,-0.152777778,-0.020370399,1,0,0,1.1639,optionLeft,55,3540,2,21,0,21,0,1,,,,,,,,,,,,,,,,,,,,,,,,,,,,,,,,,,,,,,,
,,,,,,,,2023-08-16_08h46.41.526,HF_wild_card,2022.2.4,Win32,5.453514245,616c8c6c8a2b0bd84d21d629,64d2fd46c836a06233681665,64dc7e3411ceb89b77a08da4,,,,,,,decisionTrl,resources/DG.BMP,resources/DP.BMP,Door3,-0.154629601,-0.022222222,1,0,0,1.733,optionLeft,70,3610,2,22,0,22,0,1,,,,,,,,,,,,,,,,,,,,,,,,,,,,,,,,,,,,,,,
,,,,,,,,2023-08-16_08h46.41.526,HF_wild_card,2022.2.4,Win32,5.453514245,616c8c6c8a2b0bd84d21d629,64d2fd46c836a06233681665,64dc7e3411ceb89b77a08da4,,,,,,,sngl,resources/DBN.BMP,resources/Empty.png,Door1,-0.151851824,0.010185157,1,0,0,2.3149,optionLeft,30,3640,2,23,0,23,0,1,,,,,,,,,,,,,,,,,,,,,,,,,,,,,,,,,,,,,,,
,,,,,,,,2023-08-16_08h46.41.526,HF_wild_card,2022.2.4,Win32,5.453514245,616c8c6c8a2b0bd84d21d629,64d2fd46c836a06233681665,64dc7e3411ceb89b77a08da4,,,,,,,sngl,resources/DY.BMP,resources/Empty.png,Door2,-0.133333333,-0.012962977,1,0,0,1.155,optionLeft,20,3660,2,24,0,24,0,1,,,,,,,,,,,,,,,,,,,,,,,,,,,,,,,,,,,,,,,
,,,,,,,,2023-08-16_08h46.41.526,HF_wild_card,2022.2.4,Win32,5.453514245,616c8c6c8a2b0bd84d21d629,64d2fd46c836a06233681665,64dc7e3411ceb89b77a08da4,,,,,,,decisionTrl,resources/DBN.BMP,resources/DY.BMP,Door2,0.243518575,-0.032407422,1,0,0,1.4882,optionRight,40,3700,2,25,0,25,0,1,,,,,,,,,,,,,,,,,,,,,,,,,,,,,,,,,,,,,,,
,,,,,,,,2023-08-16_08h46.41.526,HF_wild_card,2022.2.4,Win32,5.453514245,616c8c6c8a2b0bd84d21d629,64d2fd46c836a06233681665,64dc7e3411ceb89b77a08da4,,,,,,,sngl,resources/Empty.png,resources/DR.BMP,WildCard_NonEx,0.259259288,0.006481467,1,0,0,1.1464,optionRight,45,3745,2,26,0,26,0,1,,,,,,,,,,,,,,,,,,,,,,,,,,,,,,,,,,,,,,,
,,,,,,,,2023-08-16_08h46.41.526,HF_wild_card,2022.2.4,Win32,5.453514245,616c8c6c8a2b0bd84d21d629,64d2fd46c836a06233681665,64dc7e3411ceb89b77a08da4,,,,,,,decisionTrl,resources/DBN.BMP,resources/DY.BMP,Door2,0.327777778,-0.050925954,1,0,0,1.504,optionRight,20,3765,2,27,0,27,0,1,,,,,,,,,,,,,,,,,,,,,,,,,,,,,,,,,,,,,,,
,,,,,,,,2023-08-16_08h46.41.526,HF_wild_card,2022.2.4,Win32,5.453514245,616c8c6c8a2b0bd84d21d629,64d2fd46c836a06233681665,64dc7e3411ceb89b77a08da4,,,,,,,decisionTrl,resources/DP.BMP,resources/DG.BMP,Door3,0.316666667,0.006481467,1,0,0,2.005,optionRight,70,3835,2,28,0,28,0,1,,,,,,,,,,,,,,,,,,,,,,,,,,,,,,,,,,,,,,,
,,,,,,,,2023-08-16_08h46.41.526,HF_wild_card,2022.2.4,Win32,5.453514245,616c8c6c8a2b0bd84d21d629,64d2fd46c836a06233681665,64dc7e3411ceb89b77a08da4,,,,,,,decisionTrl,resources/DP.BMP,resources/DG.BMP,Door3,0.296296353,-0.008333333,1,0,0,1.27,optionRight,70,3905,2,29,0,29,0,1,,,,,,,,,,,,,,,,,,,,,,,,,,,,,,,,,,,,,,,
,,,,,,,,2023-08-16_08h46.41.526,HF_wild_card,2022.2.4,Win32,5.453514245,616c8c6c8a2b0bd84d21d629,64d2fd46c836a06233681665,64dc7e3411ceb89b77a08da4,,,,,,,decisionTrl,resources/DY.BMP,resources/DBN.BMP,Door2,-0.226851824,0.005555556,1,0,0,1.5261,optionLeft,20,3925,2,30,0,30,0,1,,,,,,,,,,,,,,,,,,,,,,,,,,,,,,,,,,,,,,,
,,,,,,,,2023-08-16_08h46.41.526,HF_wild_card,2022.2.4,Win32,5.453514245,616c8c6c8a2b0bd84d21d629,64d2fd46c836a06233681665,64dc7e3411ceb89b77a08da4,,,,,,,decisionTrl,resources/DBN.BMP,resources/DY.BMP,Door1,-0.216666667,0.010185157,1,0,0,3.052,optionLeft,30,3955,2,31,0,31,0,1,,,,,,,,,,,,,,,,,,,,,,,,,,,,,,,,,,,,,,,
,,,,,,,,2023-08-16_08h46.41.526,HF_wild_card,2022.2.4,Win32,5.453514245,616c8c6c8a2b0bd84d21d629,64d2fd46c836a06233681665,64dc7e3411ceb89b77a08da4,,,,,,,sngl,resources/DR.BMP,resources/Empty.png,WildCard_NonEx,-0.123148092,-0.005555556,1,0,0,1.1797,optionLeft,45,4000,2,32,0,32,0,1,,,,,,,,,,,,,,,,,,,,,,,,,,,,,,,,,,,,,,,
,,,,,,,,2023-08-16_08h46.41.526,HF_wild_card,2022.2.4,Win32,5.453514245,616c8c6c8a2b0bd84d21d629,64d2fd46c836a06233681665,64dc7e3411ceb89b77a08da4,,,,,,,decisionTrl,resources/DG.BMP,resources/DR.BMP,Door3,-0.205555556,-0.030555556,1,0,0,1.552,optionLeft,70,4070,2,33,0,33,0,1,,,,,,,,,,,,,,,,,,,,,,,,,,,,,,,,,,,,,,,
,,,,,,,,2023-08-16_08h46.41.526,HF_wild_card,2022.2.4,Win32,5.453514245,616c8c6c8a2b0bd84d21d629,64d2fd46c836a06233681665,64dc7e3411ceb89b77a08da4,,,,,,,sngl,resources/DP.BMP,resources/Empty.png,Door4,-0.185185157,0.006481467,1,0,0,1.1831,optionLeft,60,4130,2,34,0,34,0,1,,,,,,,,,,,,,,,,,,,,,,,,,,,,,,,,,,,,,,,
,,,,,,,,2023-08-16_08h46.41.526,HF_wild_card,2022.2.4,Win32,5.453514245,616c8c6c8a2b0bd84d21d629,64d2fd46c836a06233681665,64dc7e3411ceb89b77a08da4,,,,,,,decisionTrl,resources/DY.BMP,resources/DBN.BMP,Door2,-0.171296268,0.001851824,1,0,0,1.8081,optionLeft,40,4170,2,35,0,35,0,1,,,,,,,,,,,,,,,,,,,,,,,,,,,,,,,,,,,,,,,
,,,,,,,,2023-08-16_08h46.41.526,HF_wild_card,2022.2.4,Win32,5.453514245,616c8c6c8a2b0bd84d21d629,64d2fd46c836a06233681665,64dc7e3411ceb89b77a08da4,,,,,,,ctch,resources/DY.BMP,resources/DG.BMP,Door3,0.221296353,-0.007407422,1,0,0,1.297,optionRight,70,4240,2,36,0,36,0,1,,,,,,,,,,,,,,,,,,,,,,,,,,,,,,,,,,,,,,,
,,,,,,,,2023-08-16_08h46.41.526,HF_wild_card,2022.2.4,Win32,5.453514245,616c8c6c8a2b0bd84d21d629,64d2fd46c836a06233681665,64dc7e3411ceb89b77a08da4,,,,,,,decisionTrl,resources/DY.BMP,resources/DR.BMP,WildCard_NonEx,0.219444444,-0.010185199,1,0,0,1.3016,optionRight,45,4285,2,37,0,37,0,1,,,,,,,,,,,,,,,,,,,,,,,,,,,,,,,,,,,,,,,
,,,,,,,,2023-08-16_08h46.41.526,HF_wild_card,2022.2.4,Win32,5.453514245,616c8c6c8a2b0bd84d21d629,64d2fd46c836a06233681665,64dc7e3411ceb89b77a08da4,,,,,,,sngl,resources/Empty.png,resources/DP.BMP,Door4,0.293518575,0.014814801,1,0,0,1.2279,optionRight,80,4365,2,38,0,38,0,1,,,,,,,,,,,,,,,,,,,,,,,,,,,,,,,,,,,,,,,
,,,,,,,,2023-08-16_08h46.41.526,HF_wild_card,2022.2.4,Win32,5.453514245,616c8c6c8a2b0bd84d21d629,64d2fd46c836a06233681665,64dc7e3411ceb89b77a08da4,,,,,,,decisionTrl,resources/DR.BMP,resources/DP.BMP,Door4,0.215740797,-0.001851866,1,0,0,2.0626,optionRight,80,4445,2,39,0,39,0,1,,,,,,,,,,,,,,,,,,,,,,,,,,,,,,,,,,,,,,,
,,,,,,,,2023-08-16_08h46.41.526,HF_wild_card,2022.2.4,Win32,5.453514245,616c8c6c8a2b0bd84d21d629,64d2fd46c836a06233681665,64dc7e3411ceb89b77a08da4,,,,,,,ctch,resources/DP.BMP,resources/DBN.BMP,Door4,-0.25370369,-0.025925954,1,0,0,1.2904,optionLeft,60,4505,2,40,0,40,0,1,,,,,,,,,,,,,,,,,,,,,,,,,,,,,,,,,,,,,,,
,,,,,,,,2023-08-16_08h46.41.526,HF_wild_card,2022.2.4,Win32,5.453514245,616c8c6c8a2b0bd84d21d629,64d2fd46c836a06233681665,64dc7e3411ceb89b77a08da4,,,,,,,decisionTrl,resources/DBN.BMP,resources/DR.BMP,WildCard_NonEx,0.136111111,-0.032407422,1,0,0,1.3004,optionRight,55,4560,2,41,0,41,0,1,,,,,,,,,,,,,,,,,,,,,,,,,,,,,,,,,,,,,,,
,,,,,,,,2023-08-16_08h46.41.526,HF_wild_card,2022.2.4,Win32,5.453514245,616c8c6c8a2b0bd84d21d629,64d2fd46c836a06233681665,64dc7e3411ceb89b77a08da4,,,,,,,ctch,resources/DBN.BMP,resources/DP.BMP,Door4,0.224074131,-0.00648151,1,0,0,1.2868,optionRight,60,4620,2,42,0,42,0,1,,,,,,,,,,,,,,,,,,,,,,,,,,,,,,,,,,,,,,,
,,,,,,,,2023-08-16_08h46.41.526,HF_wild_card,2022.2.4,Win32,5.453514245,616c8c6c8a2b0bd84d21d629,64d2fd46c836a06233681665,64dc7e3411ceb89b77a08da4,,,,,,,sngl,resources/Empty.png,resources/DG.BMP,Door3,0.252777778,0.010185157,1,0,0,1.2139,optionRight,70,4690,2,43,0,43,0,1,,,,,,,,,,,,,,,,,,,,,,,,,,,,,,,,,,,,,,,
,,,,,,,,2023-08-16_08h46.41.526,HF_wild_card,2022.2.4,Win32,5.453514245,616c8c6c8a2b0bd84d21d629,64d2fd46c836a06233681665,64dc7e3411ceb89b77a08da4,,,,,,,,,,,,,,,,,,,,,,,,,,1,0,1,0,1,,,,,,,,,,,,,,,,,,,,,,,,,,,,,,,,,,
,,,,,,,,2023-08-16_08h46.41.526,HF_wild_card,2022.2.4,Win32,5.453514245,616c8c6c8a2b0bd84d21d629,64d2fd46c836a06233681665,64dc7e3411ceb89b77a08da4,,,,,,,ctch,resources/DY.BMP,resources/DG.BMP,Door3,0.190740797,-0.034259288,1,0,0,1.5038,optionRight,70,4760,3,0,0,0,0,1,,,,,,,,,,,,,,,,,,,,,,,,,,,,,,,,,,,,,,,
,,,,,,,,2023-08-16_08h46.41.526,HF_wild_card,2022.2.4,Win32,5.453514245,616c8c6c8a2b0bd84d21d629,64d2fd46c836a06233681665,64dc7e3411ceb89b77a08da4,,,,,,,ctch,resources/DBN.BMP,resources/DP.BMP,Door4,0.248148176,-0.037962977,1,0,0,1.2661,optionRight,80,4840,3,1,0,1,0,1,,,,,,,,,,,,,,,,,,,,,,,,,,,,,,,,,,,,,,,
,,,,,,,,2023-08-16_08h46.41.526,HF_wild_card,2022.2.4,Win32,5.453514245,616c8c6c8a2b0bd84d21d629,64d2fd46c836a06233681665,64dc7e3411ceb89b77a08da4,,,,,,,decisionTrl,resources/DY.BMP,resources/DBN.BMP,Door2,-0.219444444,-0.030555556,1,0,0,1.5418,optionLeft,40,4880,3,2,0,2,0,1,,,,,,,,,,,,,,,,,,,,,,,,,,,,,,,,,,,,,,,
,,,,,,,,2023-08-16_08h46.41.526,HF_wild_card,2022.2.4,Win32,5.453514245,616c8c6c8a2b0bd84d21d629,64d2fd46c836a06233681665,64dc7e3411ceb89b77a08da4,,,,,,,sngl,resources/Empty.png,resources/DP.BMP,Door4,0.199074131,-0.005555556,1,0,0,1.1528,optionRight,60,4940,3,3,0,3,0,1,,,,,,,,,,,,,,,,,,,,,,,,,,,,,,,,,,,,,,,
,,,,,,,,2023-08-16_08h46.41.526,HF_wild_card,2022.2.4,Win32,5.453514245,616c8c6c8a2b0bd84d21d629,64d2fd46c836a06233681665,64dc7e3411ceb89b77a08da4,,,,,,,sngl,resources/Empty.png,resources/DBN.BMP,Door1,0.251851908,-0.028703732,1,0,0,1.4099,optionRight,30,4970,3,4,0,4,0,1,,,,,,,,,,,,,,,,,,,,,,,,,,,,,,,,,,,,,,,
,,,,,,,,2023-08-16_08h46.41.526,HF_wild_card,2022.2.4,Win32,5.453514245,616c8c6c8a2b0bd84d21d629,64d2fd46c836a06233681665,64dc7e3411ceb89b77a08da4,,,,,,,sngl,resources/Empty.png,resources/DR.BMP,WildCard_NonEx,0.228703732,-0.020370399,1,0,0,1.1723,optionRight,45,5015,3,5,0,5,0,1,,,,,,,,,,,,,,,,,,,,,,,,,,,,,,,,,,,,,,,
,,,,,,,,2023-08-16_08h46.41.526,HF_wild_card,2022.2.4,Win32,5.453514245,616c8c6c8a2b0bd84d21d629,64d2fd46c836a06233681665,64dc7e3411ceb89b77a08da4,,,,,,,decisionTrl,resources/DG.BMP,resources/DP.BMP,Door3,-0.220370356,0.022222222,1,0,0,2.0152,optionLeft,70,5085,3,6,0,6,0,1,,,,,,,,,,,,,,,,,,,,,,,,,,,,,,,,,,,,,,,
,,,,,,,,2023-08-16_08h46.41.526,HF_wild_card,2022.2.4,Win32,5.453514245,616c8c6c8a2b0bd84d21d629,64d2fd46c836a06233681665,64dc7e3411ceb89b77a08da4,,,,,,,decisionTrl,resources/DY.BMP,resources/DBN.BMP,Door2,-0.198148134,0.007407379,1,0,0,1.2768,optionLeft,40,5125,3,7,0,7,0,1,,,,,,,,,,,,,,,,,,,,,,,,,,,,,,,,,,,,,,,
,,,,,,,,2023-08-16_08h46.41.526,HF_wild_card,2022.2.4,Win32,5.453514245,616c8c6c8a2b0bd84d21d629,64d2fd46c836a06233681665,64dc7e3411ceb89b77a08da4,,,,,,,decisionTrl,resources/DG.BMP,resources/DP.BMP,Door3,-0.21851849,-0.042592621,1,0,0,1.262,optionLeft,70,5195,3,8,0,8,0,1,,,,,,,,,,,,,,,,,,,,,,,,,,,,,,,,,,,,,,,
,,,,,,,,2023-08-16_08h46.41.526,HF_wild_card,2022.2.4,Win32,5.453514245,616c8c6c8a2b0bd84d21d629,64d2fd46c836a06233681665,64dc7e3411ceb89b77a08da4,,,,,,,sngl,resources/Empty.png,resources/DR.BMP,WildCard_NonEx,0.199074131,-0.002777778,1,0,0,1.1713,optionRight,55,5250,3,9,0,9,0,1,,,,,,,,,,,,,,,,,,,,,,,,,,,,,,,,,,,,,,,
,,,,,,,,2023-08-16_08h46.41.526,HF_wild_card,2022.2.4,Win32,5.453514245,616c8c6c8a2b0bd84d21d629,64d2fd46c836a06233681665,64dc7e3411ceb89b77a08da4,,,,,,,ctch,resources/DG.BMP,resources/DY.BMP,Door3,-0.160185157,0.006481467,1,0,0,1.5021,optionLeft,70,5320,3,10,0,10,0,1,,,,,,,,,,,,,,,,,,,,,,,,,,,,,,,,,,,,,,,
,,,,,,,,2023-08-16_08h46.41.526,HF_wild_card,2022.2.4,Win32,5.453514245,616c8c6c8a2b0bd84d21d629,64d2fd46c836a06233681665,64dc7e3411ceb89b77a08da4,,,,,,,sngl,resources/Empty.png,resources/DY.BMP,Door2,0.204629686,0.012962935,1,0,0,1.1708,optionRight,20,5340,3,11,0,11,0,1,,,,,,,,,,,,,,,,,,,,,,,,,,,,,,,,,,,,,,,
,,,,,,,,2023-08-16_08h46.41.526,HF_wild_card,2022.2.4,Win32,5.453514245,616c8c6c8a2b0bd84d21d629,64d2fd46c836a06233681665,64dc7e3411ceb89b77a08da4,,,,,,,sngl,resources/Empty.png,resources/DG.BMP,Door3,0.309259288,-0.055555556,1,0,0,1.1575,optionRight,70,5410,3,12,0,12,0,1,,,,,,,,,,,,,,,,,,,,,,,,,,,,,,,,,,,,,,,
,,,,,,,,2023-08-16_08h46.41.526,HF_wild_card,2022.2.4,Win32,5.453514245,616c8c6c8a2b0bd84d21d629,64d2fd46c836a06233681665,64dc7e3411ceb89b77a08da4,,,,,,,decisionTrl,resources/DY.BMP,resources/DBN.BMP,Door2,-0.176851824,-0.018518533,1,0,0,1.5108,optionLeft,40,5450,3,13,0,13,0,1,,,,,,,,,,,,,,,,,,,,,,,,,,,,,,,,,,,,,,,
,,,,,,,,2023-08-16_08h46.41.526,HF_wild_card,2022.2.4,Win32,5.453514245,616c8c6c8a2b0bd84d21d629,64d2fd46c836a06233681665,64dc7e3411ceb89b77a08da4,,,,,,,sngl,resources/DP.BMP,resources/Empty.png,Door4,-0.219444444,-0.036111111,1,0,0,1.1599,optionLeft,80,5530,3,14,0,14,0,1,,,,,,,,,,,,,,,,,,,,,,,,,,,,,,,,,,,,,,,
,,,,,,,,2023-08-16_08h46.41.526,HF_wild_card,2022.2.4,Win32,5.453514245,616c8c6c8a2b0bd84d21d629,64d2fd46c836a06233681665,64dc7e3411ceb89b77a08da4,,,,,,,ctch,resources/DP.BMP,resources/DBN.BMP,Door4,-0.191666667,-0.014814843,1,0,0,1.2826,optionLeft,80,5610,3,15,0,15,0,1,,,,,,,,,,,,,,,,,,,,,,,,,,,,,,,,,,,,,,,
,,,,,,,,2023-08-16_08h46.41.526,HF_wild_card,2022.2.4,Win32,5.453514245,616c8c6c8a2b0bd84d21d629,64d2fd46c836a06233681665,64dc7e3411ceb89b77a08da4,,,,,,,decisionTrl,resources/DBN.BMP,resources/DR.BMP,WildCard_NonEx,0.208333333,-0.026851866,1,0,0,2.7926,optionRight,45,5655,3,16,0,16,0,1,,,,,,,,,,,,,,,,,,,,,,,,,,,,,,,,,,,,,,,
,,,,,,,,2023-08-16_08h46.41.526,HF_wild_card,2022.2.4,Win32,5.453514245,616c8c6c8a2b0bd84d21d629,64d2fd46c836a06233681665,64dc7e3411ceb89b77a08da4,,,,,,,sngl,resources/DR.BMP,resources/Empty.png,WildCard_NonEx,-0.164814758,0.017592578,1,0,0,1.1778,optionLeft,55,5710,3,17,0,17,0,1,,,,,,,,,,,,,,,,,,,,,,,,,,,,,,,,,,,,,,,
,,,,,,,,2023-08-16_08h46.41.526,HF_wild_card,2022.2.4,Win32,5.453514245,616c8c6c8a2b0bd84d21d629,64d2fd46c836a06233681665,64dc7e3411ceb89b77a08da4,,,,,,,decisionTrl,resources/DR.BMP,resources/DP.BMP,Door4,0.228703732,-0.002777778,1,0,0,2.7781,optionRight,80,5790,3,18,0,18,0,1,,,,,,,,,,,,,,,,,,,,,,,,,,,,,,,,,,,,,,,
,,,,,,,,2023-08-16_08h46.41.526,HF_wild_card,2022.2.4,Win32,5.453514245,616c8c6c8a2b0bd84d21d629,64d2fd46c836a06233681665,64dc7e3411ceb89b77a08da4,,,,,,,ctch,resources/DG.BMP,resources/DY.BMP,Door3,-0.209259245,0,1,0,0,1.267,optionLeft,70,5860,3,19,0,19,0,1,,,,,,,,,,,,,,,,,,,,,,,,,,,,,,,,,,,,,,,
,,,,,,,,2023-08-16_08h46.41.526,HF_wild_card,2022.2.4,Win32,5.453514245,616c8c6c8a2b0bd84d21d629,64d2fd46c836a06233681665,64dc7e3411ceb89b77a08da4,,,,,,,decisionTrl,resources/DBN.BMP,resources/DY.BMP,Door2,0.254629686,-0.040740755,1,0,0,1.831,optionRight,40,5900,3,20,0,20,0,1,,,,,,,,,,,,,,,,,,,,,,,,,,,,,,,,,,,,,,,
,,,,,,,,2023-08-16_08h46.41.526,HF_wild_card,2022.2.4,Win32,5.453514245,616c8c6c8a2b0bd84d21d629,64d2fd46c836a06233681665,64dc7e3411ceb89b77a08da4,,,,,,,decisionTrl,resources/DBN.BMP,resources/DY.BMP,Door2,0.149074131,-0.023148176,1,0,0,1.2774,optionRight,40,5940,3,21,0,21,0,1,,,,,,,,,,,,,,,,,,,,,,,,,,,,,,,,,,,,,,,
,,,,,,,,2023-08-16_08h46.41.526,HF_wild_card,2022.2.4,Win32,5.453514245,616c8c6c8a2b0bd84d21d629,64d2fd46c836a06233681665,64dc7e3411ceb89b77a08da4,,,,,,,sngl,resources/DR.BMP,resources/Empty.png,WildCard_NonEx,-0.225,-0.013888889,1,0,0,1.1752,optionLeft,45,5985,3,22,0,22,0,1,,,,,,,,,,,,,,,,,,,,,,,,,,,,,,,,,,,,,,,
,,,,,,,,2023-08-16_08h46.41.526,HF_wild_card,2022.2.4,Win32,5.453514245,616c8c6c8a2b0bd84d21d629,64d2fd46c836a06233681665,64dc7e3411ceb89b77a08da4,,,,,,,decisionTrl,resources/DBN.BMP,resources/DY.BMP,Door2,0.225925954,-0.028703732,1,0,0,1.3065,optionRight,20,6005,3,23,0,23,0,1,,,,,,,,,,,,,,,,,,,,,,,,,,,,,,,,,,,,,,,
,,,,,,,,2023-08-16_08h46.41.526,HF_wild_card,2022.2.4,Win32,5.453514245,616c8c6c8a2b0bd84d21d629,64d2fd46c836a06233681665,64dc7e3411ceb89b77a08da4,,,,,,,decisionTrl,resources/DR.BMP,resources/DG.BMP,Door3,0.274074131,0.026851824,1,0,0,1.7819,optionRight,70,6075,3,24,0,24,0,1,,,,,,,,,,,,,,,,,,,,,,,,,,,,,,,,,,,,,,,
,,,,,,,,2023-08-16_08h46.41.526,HF_wild_card,2022.2.4,Win32,5.453514245,616c8c6c8a2b0bd84d21d629,64d2fd46c836a06233681665,64dc7e3411ceb89b77a08da4,,,,,,,decisionTrl,resources/DG.BMP,resources/DP.BMP,Door4,0.251851908,-0.002777778,1,0,0,1.7699,optionRight,60,6135,3,25,0,25,0,1,,,,,,,,,,,,,,,,,,,,,,,,,,,,,,,,,,,,,,,
,,,,,,,,2023-08-16_08h46.41.526,HF_wild_card,2022.2.4,Win32,5.453514245,616c8c6c8a2b0bd84d21d629,64d2fd46c836a06233681665,64dc7e3411ceb89b77a08da4,,,,,,,sngl,resources/DY.BMP,resources/Empty.png,Door2,-0.179629601,0.014814801,1,0,0,1.4212,optionLeft,40,6175,3,26,0,26,0,1,,,,,,,,,,,,,,,,,,,,,,,,,,,,,,,,,,,,,,,
,,,,,,,,2023-08-16_08h46.41.526,HF_wild_card,2022.2.4,Win32,5.453514245,616c8c6c8a2b0bd84d21d629,64d2fd46c836a06233681665,64dc7e3411ceb89b77a08da4,,,,,,,decisionTrl,resources/DY.BMP,resources/DR.BMP,WildCard_NonEx,0.122222222,-0.023148176,1,0,0,3.2845,optionRight,55,6230,3,27,0,27,0,1,,,,,,,,,,,,,,,,,,,,,,,,,,,,,,,,,,,,,,,
,,,,,,,,2023-08-16_08h46.41.526,HF_wild_card,2022.2.4,Win32,5.453514245,616c8c6c8a2b0bd84d21d629,64d2fd46c836a06233681665,64dc7e3411ceb89b77a08da4,,,,,,,decisionTrl,resources/DR.BMP,resources/DY.BMP,WildCard_NonEx,-0.175,-0.007407422,1,0,0,1.5335,optionLeft,55,6285,3,28,0,28,0,1,,,,,,,,,,,,,,,,,,,,,,,,,,,,,,,,,,,,,,,
,,,,,,,,2023-08-16_08h46.41.526,HF_wild_card,2022.2.4,Win32,5.453514245,616c8c6c8a2b0bd84d21d629,64d2fd46c836a06233681665,64dc7e3411ceb89b77a08da4,,,,,,,decisionTrl,resources/DBN.BMP,resources/DY.BMP,Door2,0.23148151,0.021296268,1,0,0,1.778,optionRight,20,6305,3,29,0,29,0,1,,,,,,,,,,,,,,,,,,,,,,,,,,,,,,,,,,,,,,,
,,,,,,,,2023-08-16_08h46.41.526,HF_wild_card,2022.2.4,Win32,5.453514245,616c8c6c8a2b0bd84d21d629,64d2fd46c836a06233681665,64dc7e3411ceb89b77a08da4,,,,,,,decisionTrl,resources/DP.BMP,resources/DG.BMP,Door4,-0.340740712,-0.101851866,1,0,0,3.5707,optionLeft,60,6365,3,30,0,30,0,1,,,,,,,,,,,,,,,,,,,,,,,,,,,,,,,,,,,,,,,
,,,,,,,,2023-08-16_08h46.41.526,HF_wild_card,2022.2.4,Win32,5.453514245,616c8c6c8a2b0bd84d21d629,64d2fd46c836a06233681665,64dc7e3411ceb89b77a08da4,,,,,,,decisionTrl,resources/DP.BMP,resources/DG.BMP,Door3,0.304629686,0.029629601,1,0,0,1.3339,optionRight,70,6435,3,31,0,31,0,1,,,,,,,,,,,,,,,,,,,,,,,,,,,,,,,,,,,,,,,
,,,,,,,,2023-08-16_08h46.41.526,HF_wild_card,2022.2.4,Win32,5.453514245,616c8c6c8a2b0bd84d21d629,64d2fd46c836a06233681665,64dc7e3411ceb89b77a08da4,,,,,,,ctch,resources/DBN.BMP,resources/DP.BMP,Door4,0.270370399,-0.019444444,1,0,0,1.2759,optionRight,80,6515,3,32,0,32,0,1,,,,,,,,,,,,,,,,,,,,,,,,,,,,,,,,,,,,,,,
,,,,,,,,2023-08-16_08h46.41.526,HF_wild_card,2022.2.4,Win32,5.453514245,616c8c6c8a2b0bd84d21d629,64d2fd46c836a06233681665,64dc7e3411ceb89b77a08da4,,,,,,,decisionTrl,resources/DR.BMP,resources/DBN.BMP,WildCard_NonEx,-0.223148134,-0.019444444,1,0,0,2.0218,optionLeft,45,6560,3,33,0,33,0,1,,,,,,,,,,,,,,,,,,,,,,,,,,,,,,,,,,,,,,,
,,,,,,,,2023-08-16_08h46.41.526,HF_wild_card,2022.2.4,Win32,5.453514245,616c8c6c8a2b0bd84d21d629,64d2fd46c836a06233681665,64dc7e3411ceb89b77a08da4,,,,,,,decisionTrl,resources/DP.BMP,resources/DG.BMP,Door3,0.243518575,0.055555556,1,0,0,2.0272,optionRight,70,6630,3,34,0,34,0,1,,,,,,,,,,,,,,,,,,,,,,,,,,,,,,,,,,,,,,,
,,,,,,,,2023-08-16_08h46.41.526,HF_wild_card,2022.2.4,Win32,5.453514245,616c8c6c8a2b0bd84d21d629,64d2fd46c836a06233681665,64dc7e3411ceb89b77a08da4,,,,,,,decisionTrl,resources/DP.BMP,resources/DR.BMP,Door4,-0.137962935,0.012037023,1,0,0,2.5291,optionLeft,60,6690,3,35,0,35,0,1,,,,,,,,,,,,,,,,,,,,,,,,,,,,,,,,,,,,,,,
,,,,,,,,2023-08-16_08h46.41.526,HF_wild_card,2022.2.4,Win32,5.453514245,616c8c6c8a2b0bd84d21d629,64d2fd46c836a06233681665,64dc7e3411ceb89b77a08da4,,,,,,,decisionTrl,resources/DG.BMP,resources/DP.BMP,Door3,-0.175,0.004629601,1,0,0,1.5212,optionLeft,70,6760,3,36,0,36,0,1,,,,,,,,,,,,,,,,,,,,,,,,,,,,,,,,,,,,,,,
,,,,,,,,2023-08-16_08h46.41.526,HF_wild_card,2022.2.4,Win32,5.453514245,616c8c6c8a2b0bd84d21d629,64d2fd46c836a06233681665,64dc7e3411ceb89b77a08da4,,,,,,,ctch,resources/DP.BMP,resources/DBN.BMP,Door4,-0.204629601,-0.039814843,1,0,0,1.3112,optionLeft,80,6840,3,37,0,37,0,1,,,,,,,,,,,,,,,,,,,,,,,,,,,,,,,,,,,,,,,
,,,,,,,,2023-08-16_08h46.41.526,HF_wild_card,2022.2.4,Win32,5.453514245,616c8c6c8a2b0bd84d21d629,64d2fd46c836a06233681665,64dc7e3411ceb89b77a08da4,,,,,,,decisionTrl,resources/DY.BMP,resources/DBN.BMP,Door2,-0.192592578,0.008333333,1,0,0,2.0582,optionLeft,20,6860,3,38,0,38,0,1,,,,,,,,,,,,,,,,,,,,,,,,,,,,,,,,,,,,,,,
,,,,,,,,2023-08-16_08h46.41.526,HF_wild_card,2022.2.4,Win32,5.453514245,616c8c6c8a2b0bd84d21d629,64d2fd46c836a06233681665,64dc7e3411ceb89b77a08da4,,,,,,,decisionTrl,resources/DG.BMP,resources/DR.BMP,Door3,-0.187962935,0.004629601,1,0,0,1.5246,optionLeft,70,6930,3,39,0,39,0,1,,,,,,,,,,,,,,,,,,,,,,,,,,,,,,,,,,,,,,,
,,,,,,,,2023-08-16_08h46.41.526,HF_wild_card,2022.2.4,Win32,5.453514245,616c8c6c8a2b0bd84d21d629,64d2fd46c836a06233681665,64dc7e3411ceb89b77a08da4,,,,,,,decisionTrl,resources/DP.BMP,resources/DG.BMP,Door3,0.172222222,-0.059259288,1,0,0,2.3067,optionRight,70,7000,3,40,0,40,0,1,,,,,,,,,,,,,,,,,,,,,,,,,,,,,,,,,,,,,,,
,,,,,,,,2023-08-16_08h46.41.526,HF_wild_card,2022.2.4,Win32,5.453514245,616c8c6c8a2b0bd84d21d629,64d2fd46c836a06233681665,64dc7e3411ceb89b77a08da4,,,,,,,sngl,resources/DBN.BMP,resources/Empty.png,Door1,-0.158333333,-0.003703732,1,0,0,1.4038,optionLeft,30,7030,3,41,0,41,0,1,,,,,,,,,,,,,,,,,,,,,,,,,,,,,,,,,,,,,,,
,,,,,,,,2023-08-16_08h46.41.526,HF_wild_card,2022.2.4,Win32,5.453514245,616c8c6c8a2b0bd84d21d629,64d2fd46c836a06233681665,64dc7e3411ceb89b77a08da4,,,,,,,sngl,resources/DG.BMP,resources/Empty.png,Door3,-0.197222222,0.005555556,1,0,0,1.1796,optionLeft,70,7100,3,42,0,42,0,1,,,,,,,,,,,,,,,,,,,,,,,,,,,,,,,,,,,,,,,
,,,,,,,,2023-08-16_08h46.41.526,HF_wild_card,2022.2.4,Win32,5.453514245,616c8c6c8a2b0bd84d21d629,64d2fd46c836a06233681665,64dc7e3411ceb89b77a08da4,,,,,,,ctch,resources/DY.BMP,resources/DG.BMP,Door3,0.222222222,-0.047222222,1,0,0,1.5278,optionRight,70,7170,3,43,0,43,0,1,,,,,,,,,,,,,,,,,,,,,,,,,,,,,,,,,,,,,,,
,,,,,,,,2023-08-16_08h46.41.526,HF_wild_card,2022.2.4,Win32,5.453514245,616c8c6c8a2b0bd84d21d629,64d2fd46c836a06233681665,64dc7e3411ceb89b77a08da4,,,,,,,,,,,,,,,,,,,,,,,,,,2,0,2,0,1,,,,,,,,,,,,,,,,,,,,,,,,,,,,,,,,,,
,,,,,,,,2023-08-16_08h46.41.526,HF_wild_card,2022.2.4,Win32,5.453514245,616c8c6c8a2b0bd84d21d629,64d2fd46c836a06233681665,64dc7e3411ceb89b77a08da4,,,,,,,decisionTrl,resources/DB.BMP,resources/DG.BMP,WildCard_Ex,-0.417592578,-0.122222222,1,0,0,2.5358,optionLeft,45,7215,4,0,0,0,0,1,,,,,,,,,,,,,,,,,,,,,,,,,,,,,,,,,,,,,,,
,,,,,,,,2023-08-16_08h46.41.526,HF_wild_card,2022.2.4,Win32,5.453514245,616c8c6c8a2b0bd84d21d629,64d2fd46c836a06233681665,64dc7e3411ceb89b77a08da4,,,,,,,decisionTrl,resources/DP.BMP,resources/DG.BMP,Door4,-0.176851824,-0.011111111,1,0,0,1.822,optionLeft,80,7295,4,1,0,1,0,1,,,,,,,,,,,,,,,,,,,,,,,,,,,,,,,,,,,,,,,
,,,,,,,,2023-08-16_08h46.41.526,HF_wild_card,2022.2.4,Win32,5.453514245,616c8c6c8a2b0bd84d21d629,64d2fd46c836a06233681665,64dc7e3411ceb89b77a08da4,,,,,,,sngl,resources/DG.BMP,resources/Empty.png,Door3,-0.188888889,0.006481467,1,0,0,1.2238,optionLeft,70,7365,4,2,0,2,0,1,,,,,,,,,,,,,,,,,,,,,,,,,,,,,,,,,,,,,,,
,,,,,,,,2023-08-16_08h46.41.526,HF_wild_card,2022.2.4,Win32,5.453514245,616c8c6c8a2b0bd84d21d629,64d2fd46c836a06233681665,64dc7e3411ceb89b77a08da4,,,,,,,ctch,resources/DBN.BMP,resources/DP.BMP,Door4,0.299074131,-0.032407422,1,0,0,1.5636,optionRight,80,7445,4,3,0,3,0,1,,,,,,,,,,,,,,,,,,,,,,,,,,,,,,,,,,,,,,,
,,,,,,,,2023-08-16_08h46.41.526,HF_wild_card,2022.2.4,Win32,5.453514245,616c8c6c8a2b0bd84d21d629,64d2fd46c836a06233681665,64dc7e3411ceb89b77a08da4,,,,,,,decisionTrl,resources/DBN.BMP,resources/DY.BMP,Door2,0.311111111,0.046296268,1,0,0,1.2914,optionRight,40,7485,4,4,0,4,0,1,,,,,,,,,,,,,,,,,,,,,,,,,,,,,,,,,,,,,,,
,,,,,,,,2023-08-16_08h46.41.526,HF_wild_card,2022.2.4,Win32,5.453514245,616c8c6c8a2b0bd84d21d629,64d2fd46c836a06233681665,64dc7e3411ceb89b77a08da4,,,,,,,ctch,resources/DY.BMP,resources/DG.BMP,Door3,0.307407464,-0.022222222,1,0,0,1.7814,optionRight,70,7555,4,5,0,5,0,1,,,,,,,,,,,,,,,,,,,,,,,,,,,,,,,,,,,,,,,
,,,,,,,,2023-08-16_08h46.41.526,HF_wild_card,2022.2.4,Win32,5.453514245,616c8c6c8a2b0bd84d21d629,64d2fd46c836a06233681665,64dc7e3411ceb89b77a08da4,,,,,,,ctch,resources/DP.BMP,resources/DBN.BMP,Door4,-0.172222222,-0.023148176,1,0,0,1.5427,optionLeft,60,7615,4,6,0,6,0,1,,,,,,,,,,,,,,,,,,,,,,,,,,,,,,,,,,,,,,,
,,,,,,,,2023-08-16_08h46.41.526,HF_wild_card,2022.2.4,Win32,5.453514245,616c8c6c8a2b0bd84d21d629,64d2fd46c836a06233681665,64dc7e3411ceb89b77a08da4,,,,,,,decisionTrl,resources/DBN.BMP,resources/DY.BMP,Door2,0.28148151,-0.011111111,1,0,0,1.5414,optionRight,20,7635,4,7,0,7,0,1,,,,,,,,,,,,,,,,,,,,,,,,,,,,,,,,,,,,,,,
,,,,,,,,2023-08-16_08h46.41.526,HF_wild_card,2022.2.4,Win32,5.453514245,616c8c6c8a2b0bd84d21d629,64d2fd46c836a06233681665,64dc7e3411ceb89b77a08da4,,,,,,,decisionTrl,resources/DBN.BMP,resources/DY.BMP,Door2,0.227777778,-0.044444444,1,0,0,1.2875,optionRight,40,7675,4,8,0,8,0,1,,,,,,,,,,,,,,,,,,,,,,,,,,,,,,,,,,,,,,,
,,,,,,,,2023-08-16_08h46.41.526,HF_wild_card,2022.2.4,Win32,5.453514245,616c8c6c8a2b0bd84d21d629,64d2fd46c836a06233681665,64dc7e3411ceb89b77a08da4,,,,,,,decisionTrl,resources/DG.BMP,resources/DP.BMP,Door4,0.346296353,0.015740712,1,0,0,3.8968,optionRight,80,7755,4,9,0,9,0,1,,,,,,,,,,,,,,,,,,,,,,,,,,,,,,,,,,,,,,,
,,,,,,,,2023-08-16_08h46.41.526,HF_wild_card,2022.2.4,Win32,5.453514245,616c8c6c8a2b0bd84d21d629,64d2fd46c836a06233681665,64dc7e3411ceb89b77a08da4,,,,,,,sngl,resources/DBN.BMP,resources/Empty.png,Door1,-0.131481425,0.004629601,1,0,0,1.1877,optionLeft,30,7785,4,10,0,10,0,1,,,,,,,,,,,,,,,,,,,,,,,,,,,,,,,,,,,,,,,
,,,,,,,,2023-08-16_08h46.41.526,HF_wild_card,2022.2.4,Win32,5.453514245,616c8c6c8a2b0bd84d21d629,64d2fd46c836a06233681665,64dc7e3411ceb89b77a08da4,,,,,,,ctch,resources/DP.BMP,resources/DBN.BMP,Door4,-0.27870369,-0.012962977,1,0,0,1.2962,optionLeft,60,7845,4,11,0,11,0,1,,,,,,,,,,,,,,,,,,,,,,,,,,,,,,,,,,,,,,,
,,,,,,,,2023-08-16_08h46.41.526,HF_wild_card,2022.2.4,Win32,5.453514245,616c8c6c8a2b0bd84d21d629,64d2fd46c836a06233681665,64dc7e3411ceb89b77a08da4,,,,,,,sngl,resources/Empty.png,resources/DBN.BMP,Door1,0.188888889,-0.028703732,1,0,0,1.204,optionRight,30,7875,4,12,0,12,0,1,,,,,,,,,,,,,,,,,,,,,,,,,,,,,,,,,,,,,,,
,,,,,,,,2023-08-16_08h46.41.526,HF_wild_card,2022.2.4,Win32,5.453514245,616c8c6c8a2b0bd84d21d629,64d2fd46c836a06233681665,64dc7e3411ceb89b77a08da4,,,,,,,ctch,resources/DBN.BMP,resources/DP.BMP,Door4,0.2,-0.022222222,1,0,0,1.2875,optionRight,60,7935,4,13,0,13,0,1,,,,,,,,,,,,,,,,,,,,,,,,,,,,,,,,,,,,,,,
,,,,,,,,2023-08-16_08h46.41.526,HF_wild_card,2022.2.4,Win32,5.453514245,616c8c6c8a2b0bd84d21d629,64d2fd46c836a06233681665,64dc7e3411ceb89b77a08da4,,,,,,,decisionTrl,resources/DBN.BMP,resources/DY.BMP,Door2,0.147222222,-0.043518533,1,0,0,1.2975,optionRight,40,7975,4,14,0,14,0,1,,,,,,,,,,,,,,,,,,,,,,,,,,,,,,,,,,,,,,,
,,,,,,,,2023-08-16_08h46.41.526,HF_wild_card,2022.2.4,Win32,5.453514245,616c8c6c8a2b0bd84d21d629,64d2fd46c836a06233681665,64dc7e3411ceb89b77a08da4,,,,,,,decisionTrl,resources/DP.BMP,resources/DG.BMP,Door4,-0.273148134,-0.033333333,1,0,0,1.3142,optionLeft,80,8055,4,15,0,15,0,1,,,,,,,,,,,,,,,,,,,,,,,,,,,,,,,,,,,,,,,
,,,,,,,,2023-08-16_08h46.41.526,HF_wild_card,2022.2.4,Win32,5.453514245,616c8c6c8a2b0bd84d21d629,64d2fd46c836a06233681665,64dc7e3411ceb89b77a08da4,,,,,,,decisionTrl,resources/DY.BMP,resources/DBN.BMP,Door2,-0.164814758,-0.025,1,0,0,1.3411,optionLeft,40,8095,4,16,0,16,0,1,,,,,,,,,,,,,,,,,,,,,,,,,,,,,,,,,,,,,,,
,,,,,,,,2023-08-16_08h46.41.526,HF_wild_card,2022.2.4,Win32,5.453514245,616c8c6c8a2b0bd84d21d629,64d2fd46c836a06233681665,64dc7e3411ceb89b77a08da4,,,,,,,sngl,resources/DP.BMP,resources/Empty.png,Door4,-0.234259245,-0.026851866,1,0,0,1.2023,optionLeft,60,8155,4,17,0,17,0,1,,,,,,,,,,,,,,,,,,,,,,,,,,,,,,,,,,,,,,,
,,,,,,,,2023-08-16_08h46.41.526,HF_wild_card,2022.2.4,Win32,5.453514245,616c8c6c8a2b0bd84d21d629,64d2fd46c836a06233681665,64dc7e3411ceb89b77a08da4,,,,,,,ctch,resources/DG.BMP,resources/DY.BMP,Door3,-0.208333333,-0.007407422,1,0,0,1.2893,optionLeft,70,8225,4,18,0,18,0,1,,,,,,,,,,,,,,,,,,,,,,,,,,,,,,,,,,,,,,,
,,,,,,,,2023-08-16_08h46.41.526,HF_wild_card,2022.2.4,Win32,5.453514245,616c8c6c8a2b0bd84d21d629,64d2fd46c836a06233681665,64dc7e3411ceb89b77a08da4,,,,,,,decisionTrl,resources/DB.BMP,resources/DP.BMP,Door4,0.199074131,0.005555556,1,0,0,1.5594,optionRight,80,8305,4,19,0,19,0,1,,,,,,,,,,,,,,,,,,,,,,,,,,,,,,,,,,,,,,,
,,,,,,,,2023-08-16_08h46.41.526,HF_wild_card,2022.2.4,Win32,5.453514245,616c8c6c8a2b0bd84d21d629,64d2fd46c836a06233681665,64dc7e3411ceb89b77a08da4,,,,,,,sngl,resources/DB.BMP,resources/Empty.png,WildCard_Ex,-0.24351849,-0.058333333,1,0,0,1.1904,optionLeft,55,8360,4,20,0,20,0,1,,,,,,,,,,,,,,,,,,,,,,,,,,,,,,,,,,,,,,,
,,,,,,,,2023-08-16_08h46.41.526,HF_wild_card,2022.2.4,Win32,5.453514245,616c8c6c8a2b0bd84d21d629,64d2fd46c836a06233681665,64dc7e3411ceb89b77a08da4,,,,,,,sngl,resources/Empty.png,resources/DB.BMP,WildCard_Ex,0.202777778,-0.015740755,1,0,0,1.1983,optionRight,55,8415,4,21,0,21,0,1,,,,,,,,,,,,,,,,,,,,,,,,,,,,,,,,,,,,,,,
,,,,,,,,2023-08-16_08h46.41.526,HF_wild_card,2022.2.4,Win32,5.453514245,616c8c6c8a2b0bd84d21d629,64d2fd46c836a06233681665,64dc7e3411ceb89b77a08da4,,,,,,,decisionTrl,resources/DY.BMP,resources/DBN.BMP,Door2,-0.250925912,0.005555556,1,0,0,1.3033,optionLeft,20,8435,4,22,0,22,0,1,,,,,,,,,,,,,,,,,,,,,,,,,,,,,,,,,,,,,,,
,,,,,,,,2023-08-16_08h46.41.526,HF_wild_card,2022.2.4,Win32,5.453514245,616c8c6c8a2b0bd84d21d629,64d2fd46c836a06233681665,64dc7e3411ceb89b77a08da4,,,,,,,decisionTrl,resources/DG.BMP,resources/DP.BMP,Door4,0.15648151,-0.002777778,1,0,0,1.2957,optionRight,60,8495,4,23,0,23,0,1,,,,,,,,,,,,,,,,,,,,,,,,,,,,,,,,,,,,,,,
,,,,,,,,2023-08-16_08h46.41.526,HF_wild_card,2022.2.4,Win32,5.453514245,616c8c6c8a2b0bd84d21d629,64d2fd46c836a06233681665,64dc7e3411ceb89b77a08da4,,,,,,,decisionTrl,resources/DB.BMP,resources/DBN.BMP,WildCard_Ex,-0.114814758,0.010185157,1,0,0,1.5861,optionLeft,55,8550,4,24,0,24,0,1,,,,,,,,,,,,,,,,,,,,,,,,,,,,,,,,,,,,,,,
,,,,,,,,2023-08-16_08h46.41.526,HF_wild_card,2022.2.4,Win32,5.453514245,616c8c6c8a2b0bd84d21d629,64d2fd46c836a06233681665,64dc7e3411ceb89b77a08da4,,,,,,,decisionTrl,resources/DY.BMP,resources/DBN.BMP,Door2,-0.260185157,-0.029629644,1,0,0,1.2842,optionLeft,40,8590,4,25,0,25,0,1,,,,,,,,,,,,,,,,,,,,,,,,,,,,,,,,,,,,,,,
,,,,,,,,2023-08-16_08h46.41.526,HF_wild_card,2022.2.4,Win32,5.453514245,616c8c6c8a2b0bd84d21d629,64d2fd46c836a06233681665,64dc7e3411ceb89b77a08da4,,,,,,,sngl,resources/DB.BMP,resources/Empty.png,WildCard_Ex,-0.221296268,0.009259245,1,0,0,1.1946,optionLeft,45,8635,4,26,0,26,0,1,,,,,,,,,,,,,,,,,,,,,,,,,,,,,,,,,,,,,,,
,,,,,,,,2023-08-16_08h46.41.526,HF_wild_card,2022.2.4,Win32,5.453514245,616c8c6c8a2b0bd84d21d629,64d2fd46c836a06233681665,64dc7e3411ceb89b77a08da4,,,,,,,sngl,resources/Empty.png,resources/DP.BMP,Door4,0.20648151,-0.012037065,1,0,0,1.2042,optionRight,80,8715,4,27,0,27,0,1,,,,,,,,,,,,,,,,,,,,,,,,,,,,,,,,,,,,,,,
,,,,,,,,2023-08-16_08h46.41.526,HF_wild_card,2022.2.4,Win32,5.453514245,616c8c6c8a2b0bd84d21d629,64d2fd46c836a06233681665,64dc7e3411ceb89b77a08da4,,,,,,,decisionTrl,resources/DY.BMP,resources/DBN.BMP,Door2,-0.213888889,-0.015740755,1,0,0,1.2972,optionLeft,40,8755,4,28,0,28,0,1,,,,,,,,,,,,,,,,,,,,,,,,,,,,,,,,,,,,,,,
,,,,,,,,2023-08-16_08h46.41.526,HF_wild_card,2022.2.4,Win32,5.453514245,616c8c6c8a2b0bd84d21d629,64d2fd46c836a06233681665,64dc7e3411ceb89b77a08da4,,,,,,,sngl,resources/Empty.png,resources/DB.BMP,WildCard_Ex,0.2,-0.024074088,1,0,0,1.2058,optionRight,45,8800,4,29,0,29,0,1,,,,,,,,,,,,,,,,,,,,,,,,,,,,,,,,,,,,,,,
,,,,,,,,2023-08-16_08h46.41.526,HF_wild_card,2022.2.4,Win32,5.453514245,616c8c6c8a2b0bd84d21d629,64d2fd46c836a06233681665,64dc7e3411ceb89b77a08da4,,,,,,,sngl,resources/Empty.png,resources/DG.BMP,Door3,0.269444444,-0.015740755,1,0,0,1.2039,optionRight,70,8870,4,30,0,30,0,1,,,,,,,,,,,,,,,,,,,,,,,,,,,,,,,,,,,,,,,
,,,,,,,,2023-08-16_08h46.41.526,HF_wild_card,2022.2.4,Win32,5.453514245,616c8c6c8a2b0bd84d21d629,64d2fd46c836a06233681665,64dc7e3411ceb89b77a08da4,,,,,,,decisionTrl,resources/DP.BMP,resources/DB.BMP,Door4,-0.324074046,-0.015740755,1,0,0,1.5598,optionLeft,80,8950,4,31,0,31,0,1,,,,,,,,,,,,,,,,,,,,,,,,,,,,,,,,,,,,,,,
,,,,,,,,2023-08-16_08h46.41.526,HF_wild_card,2022.2.4,Win32,5.453514245,616c8c6c8a2b0bd84d21d629,64d2fd46c836a06233681665,64dc7e3411ceb89b77a08da4,,,,,,,decisionTrl,resources/DG.BMP,resources/DP.BMP,Door4,0.202777778,-0.026851866,1,0,0,1.2868,optionRight,60,9010,4,32,0,32,0,1,,,,,,,,,,,,,,,,,,,,,,,,,,,,,,,,,,,,,,,
,,,,,,,,2023-08-16_08h46.41.526,HF_wild_card,2022.2.4,Win32,5.453514245,616c8c6c8a2b0bd84d21d629,64d2fd46c836a06233681665,64dc7e3411ceb89b77a08da4,,,,,,,decisionTrl,resources/DP.BMP,resources/DG.BMP,Door4,-0.191666667,-0.048148176,1,0,0,1.2921,optionLeft,60,9070,4,33,0,33,0,1,,,,,,,,,,,,,,,,,,,,,,,,,,,,,,,,,,,,,,,
,,,,,,,,2023-08-16_08h46.41.526,HF_wild_card,2022.2.4,Win32,5.453514245,616c8c6c8a2b0bd84d21d629,64d2fd46c836a06233681665,64dc7e3411ceb89b77a08da4,,,,,,,decisionTrl,resources/DG.BMP,resources/DB.BMP,Door3,-0.205555556,0.010185157,1,0,0,2.5952,optionLeft,70,9140,4,34,0,34,0,1,,,,,,,,,,,,,,,,,,,,,,,,,,,,,,,,,,,,,,,
,,,,,,,,2023-08-16_08h46.41.526,HF_wild_card,2022.2.4,Win32,5.453514245,616c8c6c8a2b0bd84d21d629,64d2fd46c836a06233681665,64dc7e3411ceb89b77a08da4,,,,,,,decisionTrl,resources/DB.BMP,resources/DY.BMP,WildCard_Ex,-0.229629601,-0.032407422,1,0,0,2.0667,optionLeft,55,9195,4,35,0,35,0,1,,,,,,,,,,,,,,,,,,,,,,,,,,,,,,,,,,,,,,,
,,,,,,,,2023-08-16_08h46.41.526,HF_wild_card,2022.2.4,Win32,5.453514245,616c8c6c8a2b0bd84d21d629,64d2fd46c836a06233681665,64dc7e3411ceb89b77a08da4,,,,,,,decisionTrl,resources/DG.BMP,resources/DP.BMP,Door4,0.280555556,-0.034259288,1,0,0,2.0867,optionRight,60,9255,4,36,0,36,0,1,,,,,,,,,,,,,,,,,,,,,,,,,,,,,,,,,,,,,,,
,,,,,,,,2023-08-16_08h46.41.526,HF_wild_card,2022.2.4,Win32,5.453514245,616c8c6c8a2b0bd84d21d629,64d2fd46c836a06233681665,64dc7e3411ceb89b77a08da4,,,,,,,ctch,resources/DY.BMP,resources/DG.BMP,Door3,0.198148176,-0.013888889,1,0,0,2.8469,optionRight,70,9325,4,37,0,37,0,1,,,,,,,,,,,,,,,,,,,,,,,,,,,,,,,,,,,,,,,
,,,,,,,,2023-08-16_08h46.41.526,HF_wild_card,2022.2.4,Win32,5.453514245,616c8c6c8a2b0bd84d21d629,64d2fd46c836a06233681665,64dc7e3411ceb89b77a08da4,,,,,,,decisionTrl,resources/DY.BMP,resources/DB.BMP,WildCard_Ex,0.277777778,-0.032407422,1,0,0,2.0761,optionRight,55,9380,4,38,0,38,0,1,,,,,,,,,,,,,,,,,,,,,,,,,,,,,,,,,,,,,,,
,,,,,,,,2023-08-16_08h46.41.526,HF_wild_card,2022.2.4,Win32,5.453514245,616c8c6c8a2b0bd84d21d629,64d2fd46c836a06233681665,64dc7e3411ceb89b77a08da4,,,,,,,decisionTrl,resources/DP.BMP,resources/DG.BMP,Door4,-0.241666667,-0.002777778,1,0,0,1.5617,optionLeft,80,9460,4,39,0,39,0,1,,,,,,,,,,,,,,,,,,,,,,,,,,,,,,,,,,,,,,,
,,,,,,,,2023-08-16_08h46.41.526,HF_wild_card,2022.2.4,Win32,5.453514245,616c8c6c8a2b0bd84d21d629,64d2fd46c836a06233681665,64dc7e3411ceb89b77a08da4,,,,,,,decisionTrl,resources/DBN.BMP,resources/DB.BMP,WildCard_Ex,0.28148151,-0.045370399,1,0,0,1.532,optionRight,45,9505,4,40,0,40,0,1,,,,,,,,,,,,,,,,,,,,,,,,,,,,,,,,,,,,,,,
,,,,,,,,2023-08-16_08h46.41.526,HF_wild_card,2022.2.4,Win32,5.453514245,616c8c6c8a2b0bd84d21d629,64d2fd46c836a06233681665,64dc7e3411ceb89b77a08da4,,,,,,,ctch,resources/DG.BMP,resources/DY.BMP,Door3,-0.239814801,0.010185157,1,0,0,1.3068,optionLeft,70,9575,4,41,0,41,0,1,,,,,,,,,,,,,,,,,,,,,,,,,,,,,,,,,,,,,,,
,,,,,,,,2023-08-16_08h46.41.526,HF_wild_card,2022.2.4,Win32,5.453514245,616c8c6c8a2b0bd84d21d629,64d2fd46c836a06233681665,64dc7e3411ceb89b77a08da4,,,,,,,sngl,resources/DY.BMP,resources/Empty.png,Door2,-0.230555556,0.002777778,1,0,0,1.6918,optionLeft,20,9595,4,42,0,42,0,1,,,,,,,,,,,,,,,,,,,,,,,,,,,,,,,,,,,,,,,
,,,,,,,,2023-08-16_08h46.41.526,HF_wild_card,2022.2.4,Win32,5.453514245,616c8c6c8a2b0bd84d21d629,64d2fd46c836a06233681665,64dc7e3411ceb89b77a08da4,,,,,,,sngl,resources/Empty.png,resources/DY.BMP,Door2,0.175,-0.011111111,1,0,0,1.2069,optionRight,40,9635,4,43,0,43,0,1,,,,,,,,,,,,,,,,,,,,,,,,,,,,,,,,,,,,,,,
,,,,,,,,2023-08-16_08h46.41.526,HF_wild_card,2022.2.4,Win32,5.453514245,616c8c6c8a2b0bd84d21d629,64d2fd46c836a06233681665,64dc7e3411ceb89b77a08da4,,,,,,,,,,,,,,,,,,,,,,,,,,3,0,3,0,1,,,,,,,,,,,,,,,,,,,,,,,,,,,,,,,,,,
,,,,,,,,2023-08-16_08h46.41.526,HF_wild_card,2022.2.4,Win32,5.453514245,616c8c6c8a2b0bd84d21d629,64d2fd46c836a06233681665,64dc7e3411ceb89b77a08da4,,,,,,,ctch,resources/DBN.BMP,resources/DP.BMP,Door4,0.317592621,-0.073148176,1,0,0,1.5344,optionRight,80,9715,5,0,0,0,0,1,,,,,,,,,,,,,,,,,,,,,,,,,,,,,,,,,,,,,,,
,,,,,,,,2023-08-16_08h46.41.526,HF_wild_card,2022.2.4,Win32,5.453514245,616c8c6c8a2b0bd84d21d629,64d2fd46c836a06233681665,64dc7e3411ceb89b77a08da4,,,,,,,decisionTrl,resources/DBN.BMP,resources/DB.BMP,WildCard_Ex,0.214814843,-0.064814843,1,0,0,1.5317,optionRight,45,9760,5,1,0,1,0,1,,,,,,,,,,,,,,,,,,,,,,,,,,,,,,,,,,,,,,,
,,,,,,,,2023-08-16_08h46.41.526,HF_wild_card,2022.2.4,Win32,5.453514245,616c8c6c8a2b0bd84d21d629,64d2fd46c836a06233681665,64dc7e3411ceb89b77a08da4,,,,,,,sngl,resources/DG.BMP,resources/Empty.png,Door3,-0.264814801,0.005555556,1,0,0,1.1893,optionLeft,70,9830,5,2,0,2,0,1,,,,,,,,,,,,,,,,,,,,,,,,,,,,,,,,,,,,,,,
,,,,,,,,2023-08-16_08h46.41.526,HF_wild_card,2022.2.4,Win32,5.453514245,616c8c6c8a2b0bd84d21d629,64d2fd46c836a06233681665,64dc7e3411ceb89b77a08da4,,,,,,,sngl,resources/DB.BMP,resources/Empty.png,WildCard_Ex,-0.383333333,-0.083333333,1,0,0,1.1918,optionLeft,55,9885,5,3,0,3,0,1,,,,,,,,,,,,,,,,,,,,,,,,,,,,,,,,,,,,,,,
,,,,,,,,2023-08-16_08h46.41.526,HF_wild_card,2022.2.4,Win32,5.453514245,616c8c6c8a2b0bd84d21d629,64d2fd46c836a06233681665,64dc7e3411ceb89b77a08da4,,,,,,,decisionTrl,resources/DG.BMP,resources/DB.BMP,Door3,-0.231481467,-0.033333333,1,0,0,1.831,optionLeft,70,9955,5,4,0,4,0,1,,,,,,,,,,,,,,,,,,,,,,,,,,,,,,,,,,,,,,,
,,,,,,,,2023-08-16_08h46.41.526,HF_wild_card,2022.2.4,Win32,5.453514245,616c8c6c8a2b0bd84d21d629,64d2fd46c836a06233681665,64dc7e3411ceb89b77a08da4,,,,,,,sngl,resources/Empty.png,resources/DB.BMP,WildCard_Ex,0.271296353,-0.012037065,1,0,0,1.2357,optionRight,55,10010,5,5,0,5,0,1,,,,,,,,,,,,,,,,,,,,,,,,,,,,,,,,,,,,,,,
,,,,,,,,2023-08-16_08h46.41.526,HF_wild_card,2022.2.4,Win32,5.453514245,616c8c6c8a2b0bd84d21d629,64d2fd46c836a06233681665,64dc7e3411ceb89b77a08da4,,,,,,,decisionTrl,resources/DP.BMP,resources/DB.BMP,Door4,-0.212962935,-0.117592621,1,0,0,2.8341,optionLeft,80,10090,5,6,0,6,0,1,,,,,,,,,,,,,,,,,,,,,,,,,,,,,,,,,,,,,,,
,,,,,,,,2023-08-16_08h46.41.526,HF_wild_card,2022.2.4,Win32,5.453514245,616c8c6c8a2b0bd84d21d629,64d2fd46c836a06233681665,64dc7e3411ceb89b77a08da4,,,,,,,sngl,resources/DY.BMP,resources/Empty.png,Door2,-0.387962935,-0.070370399,1,0,0,1.2139,optionLeft,40,10130,5,7,0,7,0,1,,,,,,,,,,,,,,,,,,,,,,,,,,,,,,,,,,,,,,,
,,,,,,,,2023-08-16_08h46.41.526,HF_wild_card,2022.2.4,Win32,5.453514245,616c8c6c8a2b0bd84d21d629,64d2fd46c836a06233681665,64dc7e3411ceb89b77a08da4,,,,,,,sngl,resources/Empty.png,resources/DB.BMP,WildCard_Ex,0.23148151,0.012037023,1,0,0,1.2018,optionRight,45,10175,5,8,0,8,0,1,,,,,,,,,,,,,,,,,,,,,,,,,,,,,,,,,,,,,,,
,,,,,,,,2023-08-16_08h46.41.526,HF_wild_card,2022.2.4,Win32,5.453514245,616c8c6c8a2b0bd84d21d629,64d2fd46c836a06233681665,64dc7e3411ceb89b77a08da4,,,,,,,ctch,resources/DY.BMP,resources/DG.BMP,Door3,0.222222222,0.041666667,1,0,0,3.8685,optionRight,70,10245,5,9,0,9,0,1,,,,,,,,,,,,,,,,,,,,,,,,,,,,,,,,,,,,,,,
,,,,,,,,2023-08-16_08h46.41.526,HF_wild_card,2022.2.4,Win32,5.453514245,616c8c6c8a2b0bd84d21d629,64d2fd46c836a06233681665,64dc7e3411ceb89b77a08da4,,,,,,,decisionTrl,resources/DY.BMP,resources/DBN.BMP,Door2,-0.312962935,0.009259245,1,0,0,1.5492,optionLeft,20,10265,5,10,0,10,0,1,,,,,,,,,,,,,,,,,,,,,,,,,,,,,,,,,,,,,,,
,,,,,,,,2023-08-16_08h46.41.526,HF_wild_card,2022.2.4,Win32,5.453514245,616c8c6c8a2b0bd84d21d629,64d2fd46c836a06233681665,64dc7e3411ceb89b77a08da4,,,,,,,sngl,resources/Empty.png,resources/DP.BMP,Door4,0.171296353,-0.020370399,1,0,0,1.2,optionRight,60,10325,5,11,0,11,0,1,,,,,,,,,,,,,,,,,,,,,,,,,,,,,,,,,,,,,,,
,,,,,,,,2023-08-16_08h46.41.526,HF_wild_card,2022.2.4,Win32,5.453514245,616c8c6c8a2b0bd84d21d629,64d2fd46c836a06233681665,64dc7e3411ceb89b77a08da4,,,,,,,decisionTrl,resources/DB.BMP,resources/DG.BMP,Door3,0.268518575,-0.028703732,1,0,0,1.5517,optionRight,70,10395,5,12,0,12,0,1,,,,,,,,,,,,,,,,,,,,,,,,,,,,,,,,,,,,,,,
,,,,,,,,2023-08-16_08h46.41.526,HF_wild_card,2022.2.4,Win32,5.453514245,616c8c6c8a2b0bd84d21d629,64d2fd46c836a06233681665,64dc7e3411ceb89b77a08da4,,,,,,,sngl,resources/DB.BMP,resources/Empty.png,WildCard_Ex,-0.272222222,-0.003703732,1,0,0,1.2082,optionLeft,45,10440,5,13,0,13,0,1,,,,,,,,,,,,,,,,,,,,,,,,,,,,,,,,,,,,,,,
,,,,,,,,2023-08-16_08h46.41.526,HF_wild_card,2022.2.4,Win32,5.453514245,616c8c6c8a2b0bd84d21d629,64d2fd46c836a06233681665,64dc7e3411ceb89b77a08da4,,,,,,,decisionTrl,resources/DB.BMP,resources/DBN.BMP,WildCard_Ex,-0.223148134,-0.000925954,1,0,0,4.1086,optionLeft,45,10485,5,14,0,14,0,1,,,,,,,,,,,,,,,,,,,,,,,,,,,,,,,,,,,,,,,
,,,,,,,,2023-08-16_08h46.41.526,HF_wild_card,2022.2.4,Win32,5.453514245,616c8c6c8a2b0bd84d21d629,64d2fd46c836a06233681665,64dc7e3411ceb89b77a08da4,,,,,,,decisionTrl,resources/DY.BMP,resources/DB.BMP,Door2,-0.244444444,0.039814801,1,0,0,1.5584,optionLeft,20,10505,5,15,0,15,0,1,,,,,,,,,,,,,,,,,,,,,,,,,,,,,,,,,,,,,,,
,,,,,,,,2023-08-16_08h46.41.526,HF_wild_card,2022.2.4,Win32,5.453514245,616c8c6c8a2b0bd84d21d629,64d2fd46c836a06233681665,64dc7e3411ceb89b77a08da4,,,,,,,sngl,resources/Empty.png,resources/DBN.BMP,Door1,0.269444444,-0.030555556,1,0,0,1.2161,optionRight,30,10535,5,16,0,16,0,1,,,,,,,,,,,,,,,,,,,,,,,,,,,,,,,,,,,,,,,
,,,,,,,,2023-08-16_08h46.41.526,HF_wild_card,2022.2.4,Win32,5.453514245,616c8c6c8a2b0bd84d21d629,64d2fd46c836a06233681665,64dc7e3411ceb89b77a08da4,,,,,,,sngl,resources/DP.BMP,resources/Empty.png,Door4,-0.217592578,-0.023148176,1,0,0,1.1915,optionLeft,80,10615,5,17,0,17,0,1,,,,,,,,,,,,,,,,,,,,,,,,,,,,,,,,,,,,,,,
,,,,,,,,2023-08-16_08h46.41.526,HF_wild_card,2022.2.4,Win32,5.453514245,616c8c6c8a2b0bd84d21d629,64d2fd46c836a06233681665,64dc7e3411ceb89b77a08da4,,,,,,,decisionTrl,resources/DG.BMP,resources/DP.BMP,Door4,0.340740797,-0.085185199,1,0,0,2.0684,optionRight,60,10675,5,18,0,18,0,1,,,,,,,,,,,,,,,,,,,,,,,,,,,,,,,,,,,,,,,
,,,,,,,,2023-08-16_08h46.41.526,HF_wild_card,2022.2.4,Win32,5.453514245,616c8c6c8a2b0bd84d21d629,64d2fd46c836a06233681665,64dc7e3411ceb89b77a08da4,,,,,,,decisionTrl,resources/DBN.BMP,resources/DY.BMP,Door2,0.280555556,-0.011111111,1,0,0,4.7447,optionRight,40,10715,5,19,0,19,0,1,,,,,,,,,,,,,,,,,,,,,,,,,,,,,,,,,,,,,,,
,,,,,,,,2023-08-16_08h46.41.526,HF_wild_card,2022.2.4,Win32,5.453514245,616c8c6c8a2b0bd84d21d629,64d2fd46c836a06233681665,64dc7e3411ceb89b77a08da4,,,,,,,ctch,resources/DY.BMP,resources/DG.BMP,Door3,0.273148176,-0.063888889,1,0,0,1.3209,optionRight,70,10785,5,20,0,20,0,1,,,,,,,,,,,,,,,,,,,,,,,,,,,,,,,,,,,,,,,
,,,,,,,,2023-08-16_08h46.41.526,HF_wild_card,2022.2.4,Win32,5.453514245,616c8c6c8a2b0bd84d21d629,64d2fd46c836a06233681665,64dc7e3411ceb89b77a08da4,,,,,,,ctch,resources/DBN.BMP,resources/DP.BMP,Door4,0.136111111,-0.035185199,1,0,0,1.592,optionRight,60,10845,5,21,0,21,0,1,,,,,,,,,,,,,,,,,,,,,,,,,,,,,,,,,,,,,,,
,,,,,,,,2023-08-16_08h46.41.526,HF_wild_card,2022.2.4,Win32,5.453514245,616c8c6c8a2b0bd84d21d629,64d2fd46c836a06233681665,64dc7e3411ceb89b77a08da4,,,,,,,decisionTrl,resources/DB.BMP,resources/DP.BMP,Door4,0.408333333,-0.040740755,1,0,0,1.331,optionRight,80,10925,5,22,0,22,0,1,,,,,,,,,,,,,,,,,,,,,,,,,,,,,,,,,,,,,,,
,,,,,,,,2023-08-16_08h46.41.526,HF_wild_card,2022.2.4,Win32,5.453514245,616c8c6c8a2b0bd84d21d629,64d2fd46c836a06233681665,64dc7e3411ceb89b77a08da4,,,,,,,decisionTrl,resources/DP.BMP,resources/DG.BMP,Door4,-0.310185157,-0.016666667,1,0,0,2.1075,optionLeft,80,11005,5,23,0,23,0,1,,,,,,,,,,,,,,,,,,,,,,,,,,,,,,,,,,,,,,,
,,,,,,,,2023-08-16_08h46.41.526,HF_wild_card,2022.2.4,Win32,5.453514245,616c8c6c8a2b0bd84d21d629,64d2fd46c836a06233681665,64dc7e3411ceb89b77a08da4,,,,,,,ctch,resources/DG.BMP,resources/DY.BMP,Door3,-0.313888889,0.012962935,1,0,0,1.6069,optionLeft,70,11075,5,24,0,24,0,1,,,,,,,,,,,,,,,,,,,,,,,,,,,,,,,,,,,,,,,
,,,,,,,,2023-08-16_08h46.41.526,HF_wild_card,2022.2.4,Win32,5.453514245,616c8c6c8a2b0bd84d21d629,64d2fd46c836a06233681665,64dc7e3411ceb89b77a08da4,,,,,,,decisionTrl,resources/DP.BMP,resources/DG.BMP,Door4,-0.200925912,-0.032407422,1,0,0,1.5938,optionLeft,80,11155,5,25,0,25,0,1,,,,,,,,,,,,,,,,,,,,,,,,,,,,,,,,,,,,,,,
,,,,,,,,2023-08-16_08h46.41.526,HF_wild_card,2022.2.4,Win32,5.453514245,616c8c6c8a2b0bd84d21d629,64d2fd46c836a06233681665,64dc7e3411ceb89b77a08da4,,,,,,,sngl,resources/Empty.png,resources/DG.BMP,Door3,0.262963019,-0.009259288,1,0,0,1.2273,optionRight,70,11225,5,26,0,26,0,1,,,,,,,,,,,,,,,,,,,,,,,,,,,,,,,,,,,,,,,
,,,,,,,,2023-08-16_08h46.41.526,HF_wild_card,2022.2.4,Win32,5.453514245,616c8c6c8a2b0bd84d21d629,64d2fd46c836a06233681665,64dc7e3411ceb89b77a08da4,,,,,,,sngl,resources/Empty.png,resources/DY.BMP,Door2,0.320370399,-0.012962977,1,0,0,1.2228,optionRight,20,11245,5,27,0,27,0,1,,,,,,,,,,,,,,,,,,,,,,,,,,,,,,,,,,,,,,,
,,,,,,,,2023-08-16_08h46.41.526,HF_wild_card,2022.2.4,Win32,5.453514245,616c8c6c8a2b0bd84d21d629,64d2fd46c836a06233681665,64dc7e3411ceb89b77a08da4,,,,,,,decisionTrl,resources/DP.BMP,resources/DG.BMP,Door4,-0.340740712,0.019444444,1,0,0,1.3265,optionLeft,80,11325,5,28,0,28,0,1,,,,,,,,,,,,,,,,,,,,,,,,,,,,,,,,,,,,,,,
,,,,,,,,2023-08-16_08h46.41.526,HF_wild_card,2022.2.4,Win32,5.453514245,616c8c6c8a2b0bd84d21d629,64d2fd46c836a06233681665,64dc7e3411ceb89b77a08da4,,,,,,,decisionTrl,resources/DP.BMP,resources/DG.BMP,Door4,-0.2,-0.026851866,1,0,0,2.3853,optionLeft,60,11385,5,29,0,29,0,1,,,,,,,,,,,,,,,,,,,,,,,,,,,,,,,,,,,,,,,
,,,,,,,,2023-08-16_08h46.41.526,HF_wild_card,2022.2.4,Win32,5.453514245,616c8c6c8a2b0bd84d21d629,64d2fd46c836a06233681665,64dc7e3411ceb89b77a08da4,,,,,,,decisionTrl,resources/DG.BMP,resources/DP.BMP,Door3,-0.202777778,-0.044444444,1,0,0,2.1277,optionLeft,70,11455,5,30,0,30,0,1,,,,,,,,,,,,,,,,,,,,,,,,,,,,,,,,,,,,,,,
,,,,,,,,2023-08-16_08h46.41.526,HF_wild_card,2022.2.4,Win32,5.453514245,616c8c6c8a2b0bd84d21d629,64d2fd46c836a06233681665,64dc7e3411ceb89b77a08da4,,,,,,,ctch,resources/DP.BMP,resources/DBN.BMP,Door4,-0.212962935,0.02870369,1,0,0,1.118,optionLeft,60,11515,5,31,0,31,0,1,,,,,,,,,,,,,,,,,,,,,,,,,,,,,,,,,,,,,,,
,,,,,,,,2023-08-16_08h46.41.526,HF_wild_card,2022.2.4,Win32,5.453514245,616c8c6c8a2b0bd84d21d629,64d2fd46c836a06233681665,64dc7e3411ceb89b77a08da4,,,,,,,sngl,resources/DBN.BMP,resources/Empty.png,Door1,-0.2,-0.020370399,1,0,0,1.5027,optionLeft,30,11545,5,32,0,32,0,1,,,,,,,,,,,,,,,,,,,,,,,,,,,,,,,,,,,,,,,
,,,,,,,,2023-08-16_08h46.41.526,HF_wild_card,2022.2.4,Win32,5.453514245,616c8c6c8a2b0bd84d21d629,64d2fd46c836a06233681665,64dc7e3411ceb89b77a08da4,,,,,,,ctch,resources/DG.BMP,resources/DY.BMP,Door3,-0.179629601,0.004629601,1,0,0,1.882,optionLeft,70,11615,5,33,0,33,0,1,,,,,,,,,,,,,,,,,,,,,,,,,,,,,,,,,,,,,,,
,,,,,,,,2023-08-16_08h46.41.526,HF_wild_card,2022.2.4,Win32,5.453514245,616c8c6c8a2b0bd84d21d629,64d2fd46c836a06233681665,64dc7e3411ceb89b77a08da4,,,,,,,decisionTrl,resources/DY.BMP,resources/DBN.BMP,Door2,-0.220370356,-0.014814843,1,0,0,2.1828,optionLeft,20,11635,5,34,0,34,0,1,,,,,,,,,,,,,,,,,,,,,,,,,,,,,,,,,,,,,,,
,,,,,,,,2023-08-16_08h46.41.526,HF_wild_card,2022.2.4,Win32,5.453514245,616c8c6c8a2b0bd84d21d629,64d2fd46c836a06233681665,64dc7e3411ceb89b77a08da4,,,,,,,decisionTrl,resources/DY.BMP,resources/DBN.BMP,Door2,-0.191666667,0.017592578,1,0,0,1.0787,optionLeft,20,11655,5,35,0,35,0,1,,,,,,,,,,,,,,,,,,,,,,,,,,,,,,,,,,,,,,,
,,,,,,,,2023-08-16_08h46.41.526,HF_wild_card,2022.2.4,Win32,5.453514245,616c8c6c8a2b0bd84d21d629,64d2fd46c836a06233681665,64dc7e3411ceb89b77a08da4,,,,,,,decisionTrl,resources/DG.BMP,resources/DP.BMP,Door3,-0.225925912,-0.009259288,1,0,0,1.36,optionLeft,70,11725,5,36,0,36,0,1,,,,,,,,,,,,,,,,,,,,,,,,,,,,,,,,,,,,,,,
,,,,,,,,2023-08-16_08h46.41.526,HF_wild_card,2022.2.4,Win32,5.453514245,616c8c6c8a2b0bd84d21d629,64d2fd46c836a06233681665,64dc7e3411ceb89b77a08da4,,,,,,,decisionTrl,resources/DY.BMP,resources/DBN.BMP,Door2,-0.207407379,-0.026851866,1,0,0,2.1733,optionLeft,20,11745,5,37,0,37,0,1,,,,,,,,,,,,,,,,,,,,,,,,,,,,,,,,,,,,,,,
,,,,,,,,2023-08-16_08h46.41.526,HF_wild_card,2022.2.4,Win32,5.453514245,616c8c6c8a2b0bd84d21d629,64d2fd46c836a06233681665,64dc7e3411ceb89b77a08da4,,,,,,,decisionTrl,resources/DG.BMP,resources/DP.BMP,Door3,-0.195370356,0.001851824,1,0,0,1.3475,optionLeft,70,11815,5,38,0,38,0,1,,,,,,,,,,,,,,,,,,,,,,,,,,,,,,,,,,,,,,,
,,,,,,,,2023-08-16_08h46.41.526,HF_wild_card,2022.2.4,Win32,5.453514245,616c8c6c8a2b0bd84d21d629,64d2fd46c836a06233681665,64dc7e3411ceb89b77a08da4,,,,,,,ctch,resources/DP.BMP,resources/DBN.BMP,Door4,-0.148148092,0.007407379,1,0,0,1.3401,optionLeft,60,11875,5,39,0,39,0,1,,,,,,,,,,,,,,,,,,,,,,,,,,,,,,,,,,,,,,,
,,,,,,,,2023-08-16_08h46.41.526,HF_wild_card,2022.2.4,Win32,5.453514245,616c8c6c8a2b0bd84d21d629,64d2fd46c836a06233681665,64dc7e3411ceb89b77a08da4,,,,,,,decisionTrl,resources/DBN.BMP,resources/DY.BMP,Door2,0.382407464,-0.036111111,1,0,0,1.33,optionRight,40,11915,5,40,0,40,0,1,,,,,,,,,,,,,,,,,,,,,,,,,,,,,,,,,,,,,,,
,,,,,,,,2023-08-16_08h46.41.526,HF_wild_card,2022.2.4,Win32,5.453514245,616c8c6c8a2b0bd84d21d629,64d2fd46c836a06233681665,64dc7e3411ceb89b77a08da4,,,,,,,decisionTrl,resources/DBN.BMP,resources/DY.BMP,Door1,-0.139814758,0.002777778,1,0,0,1.0712,optionLeft,30,11945,5,41,0,41,0,1,,,,,,,,,,,,,,,,,,,,,,,,,,,,,,,,,,,,,,,
,,,,,,,,2023-08-16_08h46.41.526,HF_wild_card,2022.2.4,Win32,5.453514245,616c8c6c8a2b0bd84d21d629,64d2fd46c836a06233681665,64dc7e3411ceb89b77a08da4,,,,,,,decisionTrl,resources/DB.BMP,resources/DY.BMP,WildCard_Ex,-0.206481467,-0.000925954,1,0,0,4.0333,optionLeft,55,12000,5,42,0,42,0,1,,,,,,,,,,,,,,,,,,,,,,,,,,,,,,,,,,,,,,,
,,,,,,,,2023-08-16_08h46.41.526,HF_wild_card,2022.2.4,Win32,5.453514245,616c8c6c8a2b0bd84d21d629,64d2fd46c836a06233681665,64dc7e3411ceb89b77a08da4,,,,,,,decisionTrl,resources/DBN.BMP,resources/DY.BMP,Door2,-0.031481425,0.02870369,1,0,0,5.6075,optionRight,20,12020,5,43,0,43,0,1,,,,,,,,,,,,,,,,,,,,,,,,,,,,,,,,,,,,,,,
,,,,,,,,2023-08-16_08h46.41.526,HF_wild_card,2022.2.4,Win32,5.453514245,616c8c6c8a2b0bd84d21d629,64d2fd46c836a06233681665,64dc7e3411ceb89b77a08da4,,,,,,,,,,,,,,,,,,,,,,,,,,4,0,4,0,1,,,,,,,,,,,,,,,,,,,,,,,,,,,,,,,,,,
,,,,,,,,2023-08-16_08h46.41.526,HF_wild_card,2022.2.4,Win32,5.453514245,616c8c6c8a2b0bd84d21d629,64d2fd46c836a06233681665,64dc7e3411ceb89b77a08da4,,,,,,,sngl,resources/DB.BMP,resources/Empty.png,WildCard_Ex,-0.189814801,-0.115740755,1,0,0,1.4772,optionLeft,55,12075,6,0,0,0,0,1,,,,,,,,,,,,,,,,,,,,,,,,,,,,,,,,,,,,,,,
,,,,,,,,2023-08-16_08h46.41.526,HF_wild_card,2022.2.4,Win32,5.453514245,616c8c6c8a2b0bd84d21d629,64d2fd46c836a06233681665,64dc7e3411ceb89b77a08da4,,,,,,,decisionTrl,resources/DBN.BMP,resources/DY.BMP,Door2,0.237037065,-0.049074088,1,0,0,1.3316,optionRight,40,12115,6,1,0,1,0,1,,,,,,,,,,,,,,,,,,,,,,,,,,,,,,,,,,,,,,,
,,,,,,,,2023-08-16_08h46.41.526,HF_wild_card,2022.2.4,Win32,5.453514245,616c8c6c8a2b0bd84d21d629,64d2fd46c836a06233681665,64dc7e3411ceb89b77a08da4,,,,,,,decisionTrl,resources/DG.BMP,resources/DB.BMP,Door3,-0.169444444,-0.005555556,1,0,0,1.2928,optionLeft,70,12185,6,2,0,2,0,1,,,,,,,,,,,,,,,,,,,,,,,,,,,,,,,,,,,,,,,
,,,,,,,,2023-08-16_08h46.41.526,HF_wild_card,2022.2.4,Win32,5.453514245,616c8c6c8a2b0bd84d21d629,64d2fd46c836a06233681665,64dc7e3411ceb89b77a08da4,,,,,,,decisionTrl,resources/DG.BMP,resources/DP.BMP,Door4,0.189814843,-0.00648151,1,0,0,1.5717,optionRight,60,12245,6,3,0,3,0,1,,,,,,,,,,,,,,,,,,,,,,,,,,,,,,,,,,,,,,,
,,,,,,,,2023-08-16_08h46.41.526,HF_wild_card,2022.2.4,Win32,5.453514245,616c8c6c8a2b0bd84d21d629,64d2fd46c836a06233681665,64dc7e3411ceb89b77a08da4,,,,,,,ctch,resources/DG.BMP,resources/DY.BMP,Door3,-0.223148134,0.025925912,1,0,0,1.3209,optionLeft,70,12315,6,4,0,4,0,1,,,,,,,,,,,,,,,,,,,,,,,,,,,,,,,,,,,,,,,
,,,,,,,,2023-08-16_08h46.41.526,HF_wild_card,2022.2.4,Win32,5.453514245,616c8c6c8a2b0bd84d21d629,64d2fd46c836a06233681665,64dc7e3411ceb89b77a08da4,,,,,,,decisionTrl,resources/DP.BMP,resources/DB.BMP,Door4,-0.215740712,-0.027777778,1,0,0,1.323,optionLeft,60,12375,6,5,0,5,0,1,,,,,,,,,,,,,,,,,,,,,,,,,,,,,,,,,,,,,,,
,,,,,,,,2023-08-16_08h46.41.526,HF_wild_card,2022.2.4,Win32,5.453514245,616c8c6c8a2b0bd84d21d629,64d2fd46c836a06233681665,64dc7e3411ceb89b77a08da4,,,,,,,ctch,resources/DG.BMP,resources/DY.BMP,Door3,-0.162036981,-0.054629644,1,0,0,1.3005,optionLeft,70,12445,6,6,0,6,0,1,,,,,,,,,,,,,,,,,,,,,,,,,,,,,,,,,,,,,,,
,,,,,,,,2023-08-16_08h46.41.526,HF_wild_card,2022.2.4,Win32,5.453514245,616c8c6c8a2b0bd84d21d629,64d2fd46c836a06233681665,64dc7e3411ceb89b77a08da4,,,,,,,sngl,resources/Empty.png,resources/DBN.BMP,Door1,0.310185242,-0.040740755,1,0,0,1.4575,optionRight,30,12475,6,7,0,7,0,1,,,,,,,,,,,,,,,,,,,,,,,,,,,,,,,,,,,,,,,
,,,,,,,,2023-08-16_08h46.41.526,HF_wild_card,2022.2.4,Win32,5.453514245,616c8c6c8a2b0bd84d21d629,64d2fd46c836a06233681665,64dc7e3411ceb89b77a08da4,,,,,,,decisionTrl,resources/DB.BMP,resources/DBN.BMP,WildCard_Ex,-0.311111111,-0.04629631,1,0,0,1.585,optionLeft,45,12520,6,8,0,8,0,1,,,,,,,,,,,,,,,,,,,,,,,,,,,,,,,,,,,,,,,
,,,,,,,,2023-08-16_08h46.41.526,HF_wild_card,2022.2.4,Win32,5.453514245,616c8c6c8a2b0bd84d21d629,64d2fd46c836a06233681665,64dc7e3411ceb89b77a08da4,,,,,,,decisionTrl,resources/DB.BMP,resources/DP.BMP,Door4,0.212963019,-0.028703732,1,0,0,1.3046,optionRight,80,12600,6,9,0,9,0,1,,,,,,,,,,,,,,,,,,,,,,,,,,,,,,,,,,,,,,,
,,,,,,,,2023-08-16_08h46.41.526,HF_wild_card,2022.2.4,Win32,5.453514245,616c8c6c8a2b0bd84d21d629,64d2fd46c836a06233681665,64dc7e3411ceb89b77a08da4,,,,,,,decisionTrl,resources/DB.BMP,resources/DG.BMP,Door3,0.334259288,-0.013888889,1,0,0,1.5704,optionRight,70,12670,6,10,0,10,0,1,,,,,,,,,,,,,,,,,,,,,,,,,,,,,,,,,,,,,,,
,,,,,,,,2023-08-16_08h46.41.526,HF_wild_card,2022.2.4,Win32,5.453514245,616c8c6c8a2b0bd84d21d629,64d2fd46c836a06233681665,64dc7e3411ceb89b77a08da4,,,,,,,sngl,resources/DY.BMP,resources/Empty.png,Door2,-0.213888889,-0.010185199,1,0,0,1.2166,optionLeft,20,12690,6,11,0,11,0,1,,,,,,,,,,,,,,,,,,,,,,,,,,,,,,,,,,,,,,,
,,,,,,,,2023-08-16_08h46.41.526,HF_wild_card,2022.2.4,Win32,5.453514245,616c8c6c8a2b0bd84d21d629,64d2fd46c836a06233681665,64dc7e3411ceb89b77a08da4,,,,,,,ctch,resources/DP.BMP,resources/DBN.BMP,Door4,-0.206481467,0.020370356,1,0,0,1.3021,optionLeft,60,12750,6,12,0,12,0,1,,,,,,,,,,,,,,,,,,,,,,,,,,,,,,,,,,,,,,,
,,,,,,,,2023-08-16_08h46.41.526,HF_wild_card,2022.2.4,Win32,5.453514245,616c8c6c8a2b0bd84d21d629,64d2fd46c836a06233681665,64dc7e3411ceb89b77a08da4,,,,,,,sngl,resources/Empty.png,resources/DY.BMP,Door2,0.251851908,-0.032407422,1,0,0,1.2212,optionRight,40,12790,6,13,0,13,0,1,,,,,,,,,,,,,,,,,,,,,,,,,,,,,,,,,,,,,,,
,,,,,,,,2023-08-16_08h46.41.526,HF_wild_card,2022.2.4,Win32,5.453514245,616c8c6c8a2b0bd84d21d629,64d2fd46c836a06233681665,64dc7e3411ceb89b77a08da4,,,,,,,decisionTrl,resources/DBN.BMP,resources/DY.BMP,Door2,0.218518575,-0.05,1,0,0,1.3056,optionRight,20,12810,6,14,0,14,0,1,,,,,,,,,,,,,,,,,,,,,,,,,,,,,,,,,,,,,,,
,,,,,,,,2023-08-16_08h46.41.526,HF_wild_card,2022.2.4,Win32,5.453514245,616c8c6c8a2b0bd84d21d629,64d2fd46c836a06233681665,64dc7e3411ceb89b77a08da4,,,,,,,decisionTrl,resources/DBN.BMP,resources/DY.BMP,Door1,-0.105555556,0.012962935,1,0,0,2.3549,optionLeft,30,12840,6,15,0,15,0,1,,,,,,,,,,,,,,,,,,,,,,,,,,,,,,,,,,,,,,,
,,,,,,,,2023-08-16_08h46.41.526,HF_wild_card,2022.2.4,Win32,5.453514245,616c8c6c8a2b0bd84d21d629,64d2fd46c836a06233681665,64dc7e3411ceb89b77a08da4,,,,,,,decisionTrl,resources/DBN.BMP,resources/DY.BMP,Door1,-0.162036981,0.014814801,1,0,0,1.2914,optionLeft,30,12870,6,16,0,16,0,1,,,,,,,,,,,,,,,,,,,,,,,,,,,,,,,,,,,,,,,
,,,,,,,,2023-08-16_08h46.41.526,HF_wild_card,2022.2.4,Win32,5.453514245,616c8c6c8a2b0bd84d21d629,64d2fd46c836a06233681665,64dc7e3411ceb89b77a08da4,,,,,,,sngl,resources/DG.BMP,resources/Empty.png,Door3,-0.226851824,0.020370356,1,0,0,1.2059,optionLeft,70,12940,6,17,0,17,0,1,,,,,,,,,,,,,,,,,,,,,,,,,,,,,,,,,,,,,,,
,,,,,,,,2023-08-16_08h46.41.526,HF_wild_card,2022.2.4,Win32,5.453514245,616c8c6c8a2b0bd84d21d629,64d2fd46c836a06233681665,64dc7e3411ceb89b77a08da4,,,,,,,decisionTrl,resources/DY.BMP,resources/DBN.BMP,Door2,-0.225925912,0.021296268,1,0,0,3.4394,optionLeft,40,12980,6,18,0,18,0,1,,,,,,,,,,,,,,,,,,,,,,,,,,,,,,,,,,,,,,,
,,,,,,,,2023-08-16_08h46.41.526,HF_wild_card,2022.2.4,Win32,5.453514245,616c8c6c8a2b0bd84d21d629,64d2fd46c836a06233681665,64dc7e3411ceb89b77a08da4,,,,,,,sngl,resources/DBN.BMP,resources/Empty.png,Door1,-0.177777778,0.030555556,1,0,0,2.4246,optionLeft,30,13010,6,19,0,19,0,1,,,,,,,,,,,,,,,,,,,,,,,,,,,,,,,,,,,,,,,
,,,,,,,,2023-08-16_08h46.41.526,HF_wild_card,2022.2.4,Win32,5.453514245,616c8c6c8a2b0bd84d21d629,64d2fd46c836a06233681665,64dc7e3411ceb89b77a08da4,,,,,,,decisionTrl,resources/DP.BMP,resources/DG.BMP,Door4,-0.305555556,-0.002777778,1,0,0,1.568,optionLeft,60,13070,6,20,0,20,0,1,,,,,,,,,,,,,,,,,,,,,,,,,,,,,,,,,,,,,,,
,,,,,,,,2023-08-16_08h46.41.526,HF_wild_card,2022.2.4,Win32,5.453514245,616c8c6c8a2b0bd84d21d629,64d2fd46c836a06233681665,64dc7e3411ceb89b77a08da4,,,,,,,decisionTrl,resources/DG.BMP,resources/DP.BMP,Door3,-0.152777778,-0.014814843,1,0,0,1.5911,optionLeft,70,13140,6,21,0,21,0,1,,,,,,,,,,,,,,,,,,,,,,,,,,,,,,,,,,,,,,,
,,,,,,,,2023-08-16_08h46.41.526,HF_wild_card,2022.2.4,Win32,5.453514245,616c8c6c8a2b0bd84d21d629,64d2fd46c836a06233681665,64dc7e3411ceb89b77a08da4,,,,,,,decisionTrl,resources/DY.BMP,resources/DBN.BMP,Door2,-0.294444444,-0.037962977,1,0,0,3.1389,optionLeft,20,13160,6,22,0,22,0,1,,,,,,,,,,,,,,,,,,,,,,,,,,,,,,,,,,,,,,,
,,,,,,,,2023-08-16_08h46.41.526,HF_wild_card,2022.2.4,Win32,5.453514245,616c8c6c8a2b0bd84d21d629,64d2fd46c836a06233681665,64dc7e3411ceb89b77a08da4,,,,,,,decisionTrl,resources/DY.BMP,resources/DBN.BMP,Door1,0.237037065,-0.07129631,1,0,0,1.2932,optionRight,30,13190,6,23,0,23,0,1,,,,,,,,,,,,,,,,,,,,,,,,,,,,,,,,,,,,,,,
,,,,,,,,2023-08-16_08h46.41.526,HF_wild_card,2022.2.4,Win32,5.453514245,616c8c6c8a2b0bd84d21d629,64d2fd46c836a06233681665,64dc7e3411ceb89b77a08da4,,,,,,,sngl,resources/Empty.png,resources/DB.BMP,WildCard_Ex,0.178703732,-0.043518533,1,0,0,1.2217,optionRight,55,13245,6,24,0,24,0,1,,,,,,,,,,,,,,,,,,,,,,,,,,,,,,,,,,,,,,,
,,,,,,,,2023-08-16_08h46.41.526,HF_wild_card,2022.2.4,Win32,5.453514245,616c8c6c8a2b0bd84d21d629,64d2fd46c836a06233681665,64dc7e3411ceb89b77a08da4,,,,,,,decisionTrl,resources/DY.BMP,resources/DB.BMP,WildCard_Ex,0.217592621,-0.054629644,1,0,0,2.369,optionRight,55,13300,6,25,0,25,0,1,,,,,,,,,,,,,,,,,,,,,,,,,,,,,,,,,,,,,,,
,,,,,,,,2023-08-16_08h46.41.526,HF_wild_card,2022.2.4,Win32,5.453514245,616c8c6c8a2b0bd84d21d629,64d2fd46c836a06233681665,64dc7e3411ceb89b77a08da4,,,,,,,sngl,resources/DP.BMP,resources/Empty.png,Door4,-0.244444444,-0.073148176,1,0,0,1.2143,optionLeft,60,13360,6,26,0,26,0,1,,,,,,,,,,,,,,,,,,,,,,,,,,,,,,,,,,,,,,,
,,,,,,,,2023-08-16_08h46.41.526,HF_wild_card,2022.2.4,Win32,5.453514245,616c8c6c8a2b0bd84d21d629,64d2fd46c836a06233681665,64dc7e3411ceb89b77a08da4,,,,,,,decisionTrl,resources/DP.BMP,resources/DG.BMP,Door3,0.202777778,-0.012037065,1,0,0,1.5832,optionRight,70,13430,6,27,0,27,0,1,,,,,,,,,,,,,,,,,,,,,,,,,,,,,,,,,,,,,,,
,,,,,,,,2023-08-16_08h46.41.526,HF_wild_card,2022.2.4,Win32,5.453514245,616c8c6c8a2b0bd84d21d629,64d2fd46c836a06233681665,64dc7e3411ceb89b77a08da4,,,,,,,decisionTrl,resources/DY.BMP,resources/DBN.BMP,Door2,-0.238888889,-0.067592621,1,0,0,1.2984,optionLeft,20,13450,6,28,0,28,0,1,,,,,,,,,,,,,,,,,,,,,,,,,,,,,,,,,,,,,,,
,,,,,,,,2023-08-16_08h46.41.526,HF_wild_card,2022.2.4,Win32,5.453514245,616c8c6c8a2b0bd84d21d629,64d2fd46c836a06233681665,64dc7e3411ceb89b77a08da4,,,,,,,ctch,resources/DBN.BMP,resources/DP.BMP,Door4,0.352777778,-0.104629644,1,0,0,2.3399,optionRight,80,13530,6,29,0,29,0,1,,,,,,,,,,,,,,,,,,,,,,,,,,,,,,,,,,,,,,,
,,,,,,,,2023-08-16_08h46.41.526,HF_wild_card,2022.2.4,Win32,5.453514245,616c8c6c8a2b0bd84d21d629,64d2fd46c836a06233681665,64dc7e3411ceb89b77a08da4,,,,,,,ctch,resources/DY.BMP,resources/DG.BMP,Door3,0.20648151,-0.035185199,1,0,0,1.5782,optionRight,70,13600,6,30,0,30,0,1,,,,,,,,,,,,,,,,,,,,,,,,,,,,,,,,,,,,,,,
,,,,,,,,2023-08-16_08h46.41.526,HF_wild_card,2022.2.4,Win32,5.453514245,616c8c6c8a2b0bd84d21d629,64d2fd46c836a06233681665,64dc7e3411ceb89b77a08da4,,,,,,,decisionTrl,resources/DB.BMP,resources/DY.BMP,WildCard_Ex,-0.194444444,-0.037037065,1,0,0,1.5761,optionLeft,45,13645,6,31,0,31,0,1,,,,,,,,,,,,,,,,,,,,,,,,,,,,,,,,,,,,,,,
,,,,,,,,2023-08-16_08h46.41.526,HF_wild_card,2022.2.4,Win32,5.453514245,616c8c6c8a2b0bd84d21d629,64d2fd46c836a06233681665,64dc7e3411ceb89b77a08da4,,,,,,,sngl,resources/DB.BMP,resources/Empty.png,WildCard_Ex,-0.184259245,0.025,1,0,0,1.2155,optionLeft,45,13690,6,32,0,32,0,1,,,,,,,,,,,,,,,,,,,,,,,,,,,,,,,,,,,,,,,
,,,,,,,,2023-08-16_08h46.41.526,HF_wild_card,2022.2.4,Win32,5.453514245,616c8c6c8a2b0bd84d21d629,64d2fd46c836a06233681665,64dc7e3411ceb89b77a08da4,,,,,,,decisionTrl,resources/DBN.BMP,resources/DB.BMP,WildCard_Ex,0.178703732,0.01851849,1,0,0,1.3195,optionRight,45,13735,6,33,0,33,0,1,,,,,,,,,,,,,,,,,,,,,,,,,,,,,,,,,,,,,,,
,,,,,,,,2023-08-16_08h46.41.526,HF_wild_card,2022.2.4,Win32,5.453514245,616c8c6c8a2b0bd84d21d629,64d2fd46c836a06233681665,64dc7e3411ceb89b77a08da4,,,,,,,sngl,resources/Empty.png,resources/DB.BMP,WildCard_Ex,0.307407464,0.005555556,1,0,0,1.2149,optionRight,45,13780,6,34,0,34,0,1,,,,,,,,,,,,,,,,,,,,,,,,,,,,,,,,,,,,,,,
,,,,,,,,2023-08-16_08h46.41.526,HF_wild_card,2022.2.4,Win32,5.453514245,616c8c6c8a2b0bd84d21d629,64d2fd46c836a06233681665,64dc7e3411ceb89b77a08da4,,,,,,,ctch,resources/DY.BMP,resources/DG.BMP,Door3,0.211111111,-0.05,1,0,0,2.3625,optionRight,70,13850,6,35,0,35,0,1,,,,,,,,,,,,,,,,,,,,,,,,,,,,,,,,,,,,,,,
,,,,,,,,2023-08-16_08h46.41.526,HF_wild_card,2022.2.4,Win32,5.453514245,616c8c6c8a2b0bd84d21d629,64d2fd46c836a06233681665,64dc7e3411ceb89b77a08da4,,,,,,,ctch,resources/DBN.BMP,resources/DP.BMP,Door4,0.146296353,0,1,0,0,3.6599,optionRight,60,13910,6,36,0,36,0,1,,,,,,,,,,,,,,,,,,,,,,,,,,,,,,,,,,,,,,,
,,,,,,,,2023-08-16_08h46.41.526,HF_wild_card,2022.2.4,Win32,5.453514245,616c8c6c8a2b0bd84d21d629,64d2fd46c836a06233681665,64dc7e3411ceb89b77a08da4,,,,,,,ctch,resources/DP.BMP,resources/DBN.BMP,Door4,-0.21851849,-0.00648151,1,0,0,1.3097,optionLeft,60,13970,6,37,0,37,0,1,,,,,,,,,,,,,,,,,,,,,,,,,,,,,,,,,,,,,,,
,,,,,,,,2023-08-16_08h46.41.526,HF_wild_card,2022.2.4,Win32,5.453514245,616c8c6c8a2b0bd84d21d629,64d2fd46c836a06233681665,64dc7e3411ceb89b77a08da4,,,,,,,decisionTrl,resources/DG.BMP,resources/DP.BMP,Door3,-0.199074046,-0.014814843,1,0,0,1.5898,optionLeft,70,14040,6,38,0,38,0,1,,,,,,,,,,,,,,,,,,,,,,,,,,,,,,,,,,,,,,,
,,,,,,,,2023-08-16_08h46.41.526,HF_wild_card,2022.2.4,Win32,5.453514245,616c8c6c8a2b0bd84d21d629,64d2fd46c836a06233681665,64dc7e3411ceb89b77a08da4,,,,,,,decisionTrl,resources/DP.BMP,resources/DG.BMP,Door4,-0.200925912,-0.039814843,1,0,0,3.1336,optionLeft,80,14120,6,39,0,39,0,1,,,,,,,,,,,,,,,,,,,,,,,,,,,,,,,,,,,,,,,
,,,,,,,,2023-08-16_08h46.41.526,HF_wild_card,2022.2.4,Win32,5.453514245,616c8c6c8a2b0bd84d21d629,64d2fd46c836a06233681665,64dc7e3411ceb89b77a08da4,,,,,,,decisionTrl,resources/DG.BMP,resources/DP.BMP,Door3,-0.174074046,-0.010185199,1,0,0,1.59,optionLeft,70,14190,6,40,0,40,0,1,,,,,,,,,,,,,,,,,,,,,,,,,,,,,,,,,,,,,,,
,,,,,,,,2023-08-16_08h46.41.526,HF_wild_card,2022.2.4,Win32,5.453514245,616c8c6c8a2b0bd84d21d629,64d2fd46c836a06233681665,64dc7e3411ceb89b77a08da4,,,,,,,sngl,resources/Empty.png,resources/DP.BMP,Door4,0.140740797,-0.048148176,1,0,0,1.215,optionRight,80,14270,6,41,0,41,0,1,,,,,,,,,,,,,,,,,,,,,,,,,,,,,,,,,,,,,,,
,,,,,,,,2023-08-16_08h46.41.526,HF_wild_card,2022.2.4,Win32,5.453514245,616c8c6c8a2b0bd84d21d629,64d2fd46c836a06233681665,64dc7e3411ceb89b77a08da4,,,,,,,decisionTrl,resources/DP.BMP,resources/DG.BMP,Door4,-0.221296268,-0.030555556,1,0,0,1.3082,optionLeft,80,14350,6,42,0,42,0,1,,,,,,,,,,,,,,,,,,,,,,,,,,,,,,,,,,,,,,,
,,,,,,,,2023-08-16_08h46.41.526,HF_wild_card,2022.2.4,Win32,5.453514245,616c8c6c8a2b0bd84d21d629,64d2fd46c836a06233681665,64dc7e3411ceb89b77a08da4,,,,,,,sngl,resources/Empty.png,resources/DG.BMP,Door3,0.203703732,-0.035185199,1,0,0,1.2064,optionRight,70,14420,6,43,0,43,0,1,,,,,,,,,,,,,,,,,,,,,,,,,,,,,,,,,,,,,,,
,,,,,,,,2023-08-16_08h46.41.526,HF_wild_card,2022.2.4,Win32,5.453514245,616c8c6c8a2b0bd84d21d629,64d2fd46c836a06233681665,64dc7e3411ceb89b77a08da4,,,,,,,,,,,,,,,,,,,,,,,,,,5,0,5,0,1,,,,,,,,,,,,,,,,,,,,,,,,,,,,,,,,,,
,,,,,,,,2023-08-16_08h46.41.526,HF_wild_card,2022.2.4,Win32,5.453514245,616c8c6c8a2b0bd84d21d629,64d2fd46c836a06233681665,64dc7e3411ceb89b77a08da4,,,,,,,ctch,resources/DG.BMP,resources/DY.BMP,Door3,-0.204629601,-0.089814843,1,0,0,3.3907,optionLeft,70,14490,7,0,0,0,0,1,,,,,,,,,,,,,,,,,,,,,,,,,,,,,,,,,,,,,,,
,,,,,,,,2023-08-16_08h46.41.526,HF_wild_card,2022.2.4,Win32,5.453514245,616c8c6c8a2b0bd84d21d629,64d2fd46c836a06233681665,64dc7e3411ceb89b77a08da4,,,,,,,decisionTrl,resources/DY.BMP,resources/DBN.BMP,Door1,0.153703732,-0.038888889,1,0,0,1.8069,optionRight,30,14520,7,1,0,1,0,1,,,,,,,,,,,,,,,,,,,,,,,,,,,,,,,,,,,,,,,
,,,,,,,,2023-08-16_08h46.41.526,HF_wild_card,2022.2.4,Win32,5.453514245,616c8c6c8a2b0bd84d21d629,64d2fd46c836a06233681665,64dc7e3411ceb89b77a08da4,,,,,,,ctch,resources/DY.BMP,resources/DG.BMP,Door3,0.2,-0.025,1,0,0,2.1126,optionRight,70,14590,7,2,0,2,0,1,,,,,,,,,,,,,,,,,,,,,,,,,,,,,,,,,,,,,,,
,,,,,,,,2023-08-16_08h46.41.526,HF_wild_card,2022.2.4,Win32,5.453514245,616c8c6c8a2b0bd84d21d629,64d2fd46c836a06233681665,64dc7e3411ceb89b77a08da4,,,,,,,ctch,resources/DP.BMP,resources/DBN.BMP,Door4,-0.254629601,-0.076851866,1,0,0,1.2984,optionLeft,60,14650,7,3,0,3,0,1,,,,,,,,,,,,,,,,,,,,,,,,,,,,,,,,,,,,,,,
,,,,,,,,2023-08-16_08h46.41.526,HF_wild_card,2022.2.4,Win32,5.453514245,616c8c6c8a2b0bd84d21d629,64d2fd46c836a06233681665,64dc7e3411ceb89b77a08da4,,,,,,,decisionTrl,resources/DP.BMP,resources/DG.BMP,Door4,-0.213888889,-0.012037065,1,0,0,1.821,optionLeft,60,14710,7,4,0,4,0,1,,,,,,,,,,,,,,,,,,,,,,,,,,,,,,,,,,,,,,,
,,,,,,,,2023-08-16_08h46.41.526,HF_wild_card,2022.2.4,Win32,5.453514245,616c8c6c8a2b0bd84d21d629,64d2fd46c836a06233681665,64dc7e3411ceb89b77a08da4,,,,,,,decisionTrl,resources/DY.BMP,resources/DBN.BMP,Door2,-0.179629601,-0.013888889,1,0,0,1.3128,optionLeft,20,14730,7,5,0,5,0,1,,,,,,,,,,,,,,,,,,,,,,,,,,,,,,,,,,,,,,,
,,,,,,,,2023-08-16_08h46.41.526,HF_wild_card,2022.2.4,Win32,5.453514245,616c8c6c8a2b0bd84d21d629,64d2fd46c836a06233681665,64dc7e3411ceb89b77a08da4,,,,,,,decisionTrl,resources/DBN.BMP,resources/DY.BMP,Door1,-0.231481467,0.000925912,1,0,0,1.578,optionLeft,30,14760,7,6,0,6,0,1,,,,,,,,,,,,,,,,,,,,,,,,,,,,,,,,,,,,,,,
,,,,,,,,2023-08-16_08h46.41.526,HF_wild_card,2022.2.4,Win32,5.453514245,616c8c6c8a2b0bd84d21d629,64d2fd46c836a06233681665,64dc7e3411ceb89b77a08da4,,,,,,,decisionTrl,resources/DBN.BMP,resources/DY.BMP,Door1,-0.309259245,-0.019444444,1,0,0,1.3016,optionLeft,30,14790,7,7,0,7,0,1,,,,,,,,,,,,,,,,,,,,,,,,,,,,,,,,,,,,,,,
,,,,,,,,2023-08-16_08h46.41.526,HF_wild_card,2022.2.4,Win32,5.453514245,616c8c6c8a2b0bd84d21d629,64d2fd46c836a06233681665,64dc7e3411ceb89b77a08da4,,,,,,,decisionTrl,resources/DP.BMP,resources/DG.BMP,Door4,-0.194444444,-0.016666667,1,0,0,1.5617,optionLeft,60,14850,7,8,0,8,0,1,,,,,,,,,,,,,,,,,,,,,,,,,,,,,,,,,,,,,,,
,,,,,,,,2023-08-16_08h46.41.526,HF_wild_card,2022.2.4,Win32,5.453514245,616c8c6c8a2b0bd84d21d629,64d2fd46c836a06233681665,64dc7e3411ceb89b77a08da4,,,,,,,ctch,resources/DP.BMP,resources/DBN.BMP,Door4,-0.189814801,-0.004629644,1,0,0,1.3097,optionLeft,60,14910,7,9,0,9,0,1,,,,,,,,,,,,,,,,,,,,,,,,,,,,,,,,,,,,,,,
,,,,,,,,2023-08-16_08h46.41.526,HF_wild_card,2022.2.4,Win32,5.453514245,616c8c6c8a2b0bd84d21d629,64d2fd46c836a06233681665,64dc7e3411ceb89b77a08da4,,,,,,,decisionTrl,resources/DP.BMP,resources/DG.BMP,Door3,0.234259288,-0.011111111,1,0,0,1.3046,optionRight,70,14980,7,10,0,10,0,1,,,,,,,,,,,,,,,,,,,,,,,,,,,,,,,,,,,,,,,
,,,,,,,,2023-08-16_08h46.41.526,HF_wild_card,2022.2.4,Win32,5.453514245,616c8c6c8a2b0bd84d21d629,64d2fd46c836a06233681665,64dc7e3411ceb89b77a08da4,,,,,,,ctch,resources/DY.BMP,resources/DG.BMP,Door3,0.169444444,-0.065740755,1,0,0,1.3212,optionRight,70,15050,7,11,0,11,0,1,,,,,,,,,,,,,,,,,,,,,,,,,,,,,,,,,,,,,,,
,,,,,,,,2023-08-16_08h46.41.526,HF_wild_card,2022.2.4,Win32,5.453514245,616c8c6c8a2b0bd84d21d629,64d2fd46c836a06233681665,64dc7e3411ceb89b77a08da4,,,,,,,decisionTrl,resources/DG.BMP,resources/DP.BMP,Door3,-0.210185157,0.002777778,1,0,0,1.5692,optionLeft,70,15120,7,12,0,12,0,1,,,,,,,,,,,,,,,,,,,,,,,,,,,,,,,,,,,,,,,
,,,,,,,,2023-08-16_08h46.41.526,HF_wild_card,2022.2.4,Win32,5.453514245,616c8c6c8a2b0bd84d21d629,64d2fd46c836a06233681665,64dc7e3411ceb89b77a08da4,,,,,,,decisionTrl,resources/DP.BMP,resources/DG.BMP,Door4,-0.226851824,0.008333333,1,0,0,1.567,optionLeft,80,15200,7,13,0,13,0,1,,,,,,,,,,,,,,,,,,,,,,,,,,,,,,,,,,,,,,,
,,,,,,,,2023-08-16_08h46.41.526,HF_wild_card,2022.2.4,Win32,5.453514245,616c8c6c8a2b0bd84d21d629,64d2fd46c836a06233681665,64dc7e3411ceb89b77a08da4,,,,,,,decisionTrl,resources/DY.BMP,resources/DBN.BMP,Door1,0.298148176,-0.026851866,1,0,0,1.5631,optionRight,30,15230,7,14,0,14,0,1,,,,,,,,,,,,,,,,,,,,,,,,,,,,,,,,,,,,,,,
,,,,,,,,2023-08-16_08h46.41.526,HF_wild_card,2022.2.4,Win32,5.453514245,616c8c6c8a2b0bd84d21d629,64d2fd46c836a06233681665,64dc7e3411ceb89b77a08da4,,,,,,,decisionTrl,resources/DBN.BMP,resources/DY.BMP,Door2,0.277777778,-0.014814843,1,0,0,1.8253,optionRight,40,15270,7,15,0,15,0,1,,,,,,,,,,,,,,,,,,,,,,,,,,,,,,,,,,,,,,,
,,,,,,,,2023-08-16_08h46.41.526,HF_wild_card,2022.2.4,Win32,5.453514245,616c8c6c8a2b0bd84d21d629,64d2fd46c836a06233681665,64dc7e3411ceb89b77a08da4,,,,,,,decisionTrl,resources/DBN.BMP,resources/DY.BMP,Door1,-0.148148092,0.006481467,1,0,0,1.2931,optionLeft,30,15300,7,16,0,16,0,1,,,,,,,,,,,,,,,,,,,,,,,,,,,,,,,,,,,,,,,
,,,,,,,,2023-08-16_08h46.41.526,HF_wild_card,2022.2.4,Win32,5.453514245,616c8c6c8a2b0bd84d21d629,64d2fd46c836a06233681665,64dc7e3411ceb89b77a08da4,,,,,,,decisionTrl,resources/DBN.BMP,resources/DY.BMP,Door1,-0.204629601,-0.011111111,1,0,0,2.0876,optionLeft,30,15330,7,17,0,17,0,1,,,,,,,,,,,,,,,,,,,,,,,,,,,,,,,,,,,,,,,
,,,,,,,,2023-08-16_08h46.41.526,HF_wild_card,2022.2.4,Win32,5.453514245,616c8c6c8a2b0bd84d21d629,64d2fd46c836a06233681665,64dc7e3411ceb89b77a08da4,,,,,,,ctch,resources/DG.BMP,resources/DY.BMP,Door3,-0.148148092,0.000925912,1,0,0,1.5738,optionLeft,70,15400,7,18,0,18,0,1,,,,,,,,,,,,,,,,,,,,,,,,,,,,,,,,,,,,,,,
,,,,,,,,2023-08-16_08h46.41.526,HF_wild_card,2022.2.4,Win32,5.453514245,616c8c6c8a2b0bd84d21d629,64d2fd46c836a06233681665,64dc7e3411ceb89b77a08da4,,,,,,,ctch,resources/DBN.BMP,resources/DP.BMP,Door4,0.094444444,0.012037023,1,0,0,1.5785,optionRight,60,15460,7,19,0,19,0,1,,,,,,,,,,,,,,,,,,,,,,,,,,,,,,,,,,,,,,,
,,,,,,,,2023-08-16_08h46.41.526,HF_wild_card,2022.2.4,Win32,5.453514245,616c8c6c8a2b0bd84d21d629,64d2fd46c836a06233681665,64dc7e3411ceb89b77a08da4,,,,,,,decisionTrl,resources/DP.BMP,resources/DG.BMP,Door3,0.177777778,0.025925912,1,0,0,2.6293,optionRight,70,15530,7,20,0,20,0,1,,,,,,,,,,,,,,,,,,,,,,,,,,,,,,,,,,,,,,,
,,,,,,,,2023-08-16_08h46.41.526,HF_wild_card,2022.2.4,Win32,5.453514245,616c8c6c8a2b0bd84d21d629,64d2fd46c836a06233681665,64dc7e3411ceb89b77a08da4,,,,,,,decisionTrl,resources/DY.BMP,resources/DBN.BMP,Door1,0.499074131,-0.067592621,1,0,0,2.3534,optionRight,30,15560,7,21,0,21,0,1,,,,,,,,,,,,,,,,,,,,,,,,,,,,,,,,,,,,,,,
,,,,,,,,2023-08-16_08h46.41.526,HF_wild_card,2022.2.4,Win32,5.453514245,616c8c6c8a2b0bd84d21d629,64d2fd46c836a06233681665,64dc7e3411ceb89b77a08da4,,,,,,,decisionTrl,resources/DBN.BMP,resources/DY.BMP,Door2,0.269444444,-0.028703732,1,0,0,1.5792,optionRight,20,15580,7,22,0,22,0,1,,,,,,,,,,,,,,,,,,,,,,,,,,,,,,,,,,,,,,,
,,,,,,,,2023-08-16_08h46.41.526,HF_wild_card,2022.2.4,Win32,5.453514245,616c8c6c8a2b0bd84d21d629,64d2fd46c836a06233681665,64dc7e3411ceb89b77a08da4,,,,,,,decisionTrl,resources/DG.BMP,resources/DP.BMP,Door4,0.235185242,-0.094444444,1,0,0,2.6361,optionRight,60,15640,7,23,0,23,0,1,,,,,,,,,,,,,,,,,,,,,,,,,,,,,,,,,,,,,,,
,,,,,,,,2023-08-16_08h46.41.526,HF_wild_card,2022.2.4,Win32,5.453514245,616c8c6c8a2b0bd84d21d629,64d2fd46c836a06233681665,64dc7e3411ceb89b77a08da4,,,,,,,decisionTrl,resources/DY.BMP,resources/DBN.BMP,Door1,0.147222222,0.013888889,1,0,0,1.8452,optionRight,30,15670,7,24,0,24,0,1,,,,,,,,,,,,,,,,,,,,,,,,,,,,,,,,,,,,,,,
,,,,,,,,2023-08-16_08h46.41.526,HF_wild_card,2022.2.4,Win32,5.453514245,616c8c6c8a2b0bd84d21d629,64d2fd46c836a06233681665,64dc7e3411ceb89b77a08da4,,,,,,,ctch,resources/DBN.BMP,resources/DP.BMP,Door4,0.229629686,-0.072222222,1,0,0,1.5752,optionRight,80,15750,7,25,0,25,0,1,,,,,,,,,,,,,,,,,,,,,,,,,,,,,,,,,,,,,,,
,,,,,,,,2023-08-16_08h46.41.526,HF_wild_card,2022.2.4,Win32,5.453514245,616c8c6c8a2b0bd84d21d629,64d2fd46c836a06233681665,64dc7e3411ceb89b77a08da4,,,,,,,decisionTrl,resources/DG.BMP,resources/DP.BMP,Door3,-0.173148092,0.016666667,1,0,0,2.6189,optionLeft,70,15820,7,26,0,26,0,1,,,,,,,,,,,,,,,,,,,,,,,,,,,,,,,,,,,,,,,
,,,,,,,,2023-08-16_08h46.41.526,HF_wild_card,2022.2.4,Win32,5.453514245,616c8c6c8a2b0bd84d21d629,64d2fd46c836a06233681665,64dc7e3411ceb89b77a08da4,,,,,,,ctch,resources/DG.BMP,resources/DY.BMP,Door3,-0.21851849,-0.020370399,1,0,0,1.3032,optionLeft,70,15890,7,27,0,27,0,1,,,,,,,,,,,,,,,,,,,,,,,,,,,,,,,,,,,,,,,
,,,,,,,,2023-08-16_08h46.41.526,HF_wild_card,2022.2.4,Win32,5.453514245,616c8c6c8a2b0bd84d21d629,64d2fd46c836a06233681665,64dc7e3411ceb89b77a08da4,,,,,,,decisionTrl,resources/DG.BMP,resources/DP.BMP,Door4,0.187963019,-0.050925954,1,0,0,1.5682,optionRight,80,15970,7,28,0,28,0,1,,,,,,,,,,,,,,,,,,,,,,,,,,,,,,,,,,,,,,,
,,,,,,,,2023-08-16_08h46.41.526,HF_wild_card,2022.2.4,Win32,5.453514245,616c8c6c8a2b0bd84d21d629,64d2fd46c836a06233681665,64dc7e3411ceb89b77a08da4,,,,,,,decisionTrl,resources/DG.BMP,resources/DP.BMP,Door4,0.312037065,-0.212963019,1,0,0,1.2981,optionRight,60,16030,7,29,0,29,0,1,,,,,,,,,,,,,,,,,,,,,,,,,,,,,,,,,,,,,,,
,,,,,,,,2023-08-16_08h46.41.526,HF_wild_card,2022.2.4,Win32,5.453514245,616c8c6c8a2b0bd84d21d629,64d2fd46c836a06233681665,64dc7e3411ceb89b77a08da4,,,,,,,decisionTrl,resources/DG.BMP,resources/DP.BMP,Door3,-0.195370356,-0.016666667,1,0,0,1.3294,optionLeft,70,16100,7,30,0,30,0,1,,,,,,,,,,,,,,,,,,,,,,,,,,,,,,,,,,,,,,,
,,,,,,,,2023-08-16_08h46.41.526,HF_wild_card,2022.2.4,Win32,5.453514245,616c8c6c8a2b0bd84d21d629,64d2fd46c836a06233681665,64dc7e3411ceb89b77a08da4,,,,,,,decisionTrl,resources/DP.BMP,resources/DG.BMP,Door4,-0.180555556,-0.005555556,1,0,0,1.3259,optionLeft,80,16180,7,31,0,31,0,1,,,,,,,,,,,,,,,,,,,,,,,,,,,,,,,,,,,,,,,
,,,,,,,,2023-08-16_08h46.41.526,HF_wild_card,2022.2.4,Win32,5.453514245,616c8c6c8a2b0bd84d21d629,64d2fd46c836a06233681665,64dc7e3411ceb89b77a08da4,,,,,,,ctch,resources/DBN.BMP,resources/DP.BMP,Door4,0.217592621,-0.03148151,1,0,0,1.57,optionRight,80,16260,7,32,0,32,0,1,,,,,,,,,,,,,,,,,,,,,,,,,,,,,,,,,,,,,,,
,,,,,,,,2023-08-16_08h46.41.526,HF_wild_card,2022.2.4,Win32,5.453514245,616c8c6c8a2b0bd84d21d629,64d2fd46c836a06233681665,64dc7e3411ceb89b77a08da4,,,,,,,ctch,resources/DP.BMP,resources/DBN.BMP,Door4,-0.131481425,0.009259245,1,0,0,1.304,optionLeft,60,16320,7,33,0,33,0,1,,,,,,,,,,,,,,,,,,,,,,,,,,,,,,,,,,,,,,,
,,,,,,,,2023-08-16_08h46.41.526,HF_wild_card,2022.2.4,Win32,5.453514245,616c8c6c8a2b0bd84d21d629,64d2fd46c836a06233681665,64dc7e3411ceb89b77a08da4,,,,,,,ctch,resources/DY.BMP,resources/DG.BMP,Door3,0.202777778,-0.086111111,1,0,0,1.3214,optionRight,70,16390,7,34,0,34,0,1,,,,,,,,,,,,,,,,,,,,,,,,,,,,,,,,,,,,,,,
,,,,,,,,2023-08-16_08h46.41.526,HF_wild_card,2022.2.4,Win32,5.453514245,616c8c6c8a2b0bd84d21d629,64d2fd46c836a06233681665,64dc7e3411ceb89b77a08da4,,,,,,,decisionTrl,resources/DY.BMP,resources/DBN.BMP,Door1,0.192592621,-0.025925954,1,0,0,1.8496,optionRight,30,16420,7,35,0,35,0,1,,,,,,,,,,,,,,,,,,,,,,,,,,,,,,,,,,,,,,,
,,,,,,,,2023-08-16_08h46.41.526,HF_wild_card,2022.2.4,Win32,5.453514245,616c8c6c8a2b0bd84d21d629,64d2fd46c836a06233681665,64dc7e3411ceb89b77a08da4,,,,,,,,,,,,,,,,,,,,,,,,,,6,0,6,0,1,,,,,,,,,,,,,,,,,,,,,,,,,,,,,,,,,,
,,,,,,,,2023-08-16_08h46.41.526,HF_wild_card,2022.2.4,Win32,5.453514245,616c8c6c8a2b0bd84d21d629,64d2fd46c836a06233681665,64dc7e3411ceb89b77a08da4,,,,,,,,,,,,,,,,,,,,,,,,,,,,,,,4,,,,,,,,,,,,,,,,,,,,,,,,,,,,,,,,,
,,,,,,,,2023-08-16_08h46.41.526,HF_wild_card,2022.2.4,Win32,5.453514245,616c8c6c8a2b0bd84d21d629,64d2fd46c836a06233681665,64dc7e3411ceb89b77a08da4,,,,,,,,,,,,,,,,,,,,,,,,,,,,,,,,,,,,,,,,,,,,,,,,,,,,,,,,,,,,,,,,
,,,,,,,,2023-08-16_08h46.41.526,HF_wild_card,2022.2.4,Win32,5.453514245,616c8c6c8a2b0bd84d21d629,64d2fd46c836a06233681665,64dc7e3411ceb89b77a08da4,,,,,,,,,,,,,,,,,,,,,,,,,,,,,,,,45,WC_extreme,resources/DB.BMP,0,0,0,0,1,,,,,,,,,,,,,,,,,,,,,,,,,
,,,,,,,,2023-08-16_08h46.41.526,HF_wild_card,2022.2.4,Win32,5.453514245,616c8c6c8a2b0bd84d21d629,64d2fd46c836a06233681665,64dc7e3411ceb89b77a08da4,,,,,,,,,,,,,,,,,,,,,,,,,,,,,,,,30,Door1,resources/DBN.BMP,1,0,1,0,1,,,,,,,,,,,,,,,,,,,,,,,,,
,,,,,,,,2023-08-16_08h46.41.526,HF_wild_card,2022.2.4,Win32,5.453514245,616c8c6c8a2b0bd84d21d629,64d2fd46c836a06233681665,64dc7e3411ceb89b77a08da4,,,,,,,,,,,,,,,,,,,,,,,,,,,,,,,,55,WC_nonExtreme,resources/DR.BMP,2,0,2,0,1,,,,,,,,,,,,,,,,,,,,,,,,,
,,,,,,,,2023-08-16_08h46.41.526,HF_wild_card,2022.2.4,Win32,5.453514245,616c8c6c8a2b0bd84d21d629,64d2fd46c836a06233681665,64dc7e3411ceb89b77a08da4,,,,,,,,,,,,,,,,,,,,,,,,,,,,,,,,20,Door2,resources/DY.BMP,3,0,3,0,1,,,,,,,,,,,,,,,,,,,,,,,,,
,,,,,,,,2023-08-16_08h46.41.526,HF_wild_card,2022.2.4,Win32,5.453514245,616c8c6c8a2b0bd84d21d629,64d2fd46c836a06233681665,64dc7e3411ceb89b77a08da4,,,,,,,,,,,,,,,,,,,,,,,,,,,,,,,,60,Door4,resources/DP.BMP,4,0,4,0,1,,,,,,,,,,,,,,,,,,,,,,,,,
,,,,,,,,2023-08-16_08h46.41.526,HF_wild_card,2022.2.4,Win32,5.453514245,616c8c6c8a2b0bd84d21d629,64d2fd46c836a06233681665,64dc7e3411ceb89b77a08da4,,,,,,,,,,,,,,,,,,,,,,,,,,,,,,,,70,Door3,resources/DG.BMP,5,0,5,0,1,,,,,,,,,,,,,,,,,,,,,,,,,
,,,,,,,,2023-08-16_08h46.41.526,HF_wild_card,2022.2.4,Win32,5.453514245,616c8c6c8a2b0bd84d21d629,64d2fd46c836a06233681665,64dc7e3411ceb89b77a08da4,,,,,,,,,,,,,,,,,,,,,,,,,,,,,,,,,,,,,,,,,,,,,,,,,,,,,,,,,,,,,,,,
