Condition,Low fixed image (Door1),Low risky image (Door2),High fixed image (Door3),High risky image (Door4),Extreme Wild Card,NonExtreme Wild Card,,date,expName,psychopyVersion,OS,frameRate,PROLIFIC_PID,STUDY_ID,SESSION_ID,mouse_2.x,mouse_2.y,mouse_2.leftButton,mouse_2.midButton,mouse_2.rightButton,mouse_2.clicked_name,Trial Type,Left Option Image,Right Option Image,Chosen Door,mouse.x,mouse.y,mouse.leftButton,mouse.midButton,mouse.rightButton,mouse.time,mouse.clicked_name,Feedback,Cumulative Reward,Block,trial.thisRepN,trial.thisTrialN,trial.thisN,trial.thisIndex,trial.ran,blocks.thisRepN,blocks.thisTrialN,blocks.thisN,blocks.thisIndex,blocks.ran,Money conversion,First Outcome Reported,Shown Door (First Outcome),Displayed Image (First Outcome),outcomes.thisRepN,outcomes.thisTrialN,outcomes.thisN,outcomes.thisIndex,outcomes.ran,judgments.thisRepN,judgments.thisTrialN,judgments.thisN,judgments.thisIndex,judgments.ran,freqMouse.x,freqMouse.y,freqMouse.leftButton,freqMouse.midButton,freqMouse.rightButton,freqMouse.clicked_name,trials.thisRepN,trials.thisTrialN,trials.thisN,trials.thisIndex,trials.ran,FQJ for first outcome,FQJ for second outcome,Shown Door,Displayed Image,judgBlock.thisRepN,judgBlock.thisTrialN,judgBlock.thisN,judgBlock.thisIndex,judgBlock.ran
0,resources/DG.BMP,resources/DP.BMP,resources/DB.BMP,resources/DY.BMP,resources/DR.BMP,resources/DBN.BMP,,2023-08-16_08h48.22.413,HF_wild_card,2022.2.4,MacIntel,59.99880002,5ca9106716aa84001725d880,64d2fd46c836a06233681665,64dc7f3ce8f6a3b22cc49387,,,,,,,,,,,,,,,,,,,,,,,,,,,,,,,,,,,,,,,,,,,,,,,,,,,,,,,,,,,,,,,,
,,,,,,,,2023-08-16_08h48.22.413,HF_wild_card,2022.2.4,MacIntel,59.99880002,5ca9106716aa84001725d880,64d2fd46c836a06233681665,64dc7f3ce8f6a3b22cc49387,0.003803372,-0.420562337,1,0,0,agree,,,,,,,,,,,,,,,,,,,,,,,,,,,,,,,,,,,,,,,,,,,,,,,,,,,,,,,,,,
,,,,,,,,2023-08-16_08h48.22.413,HF_wild_card,2022.2.4,MacIntel,59.99880002,5ca9106716aa84001725d880,64d2fd46c836a06233681665,64dc7f3ce8f6a3b22cc49387,,,,,,,,,,,,,,,,,,,,,,,,,,,,,,,,,,,,,,,,,,,,,,,,,,,,,,,,,,,,,,,,
,,,,,,,,2023-08-16_08h48.22.413,HF_wild_card,2022.2.4,MacIntel,59.99880002,5ca9106716aa84001725d880,64d2fd46c836a06233681665,64dc7f3ce8f6a3b22cc49387,,,,,,,sngl,resources/DR.BMP,resources/Empty.png,WildCard_Ex,-0.273936734,-0.135761583,1,0,0,0.8864,optionLeft,5,5,1,0,0,0,0,1,,,,,,,,,,,,,,,,,,,,,,,,,,,,,,,,,,,,,,,
,,,,,,,,2023-08-16_08h48.22.413,HF_wild_card,2022.2.4,MacIntel,59.99880002,5ca9106716aa84001725d880,64d2fd46c836a06233681665,64dc7f3ce8f6a3b22cc49387,,,,,,,decisionTrl,resources/DY.BMP,resources/DB.BMP,Door3,0.272780355,-0.112994995,1,0,0,1.16,optionRight,70,75,1,1,0,1,0,1,,,,,,,,,,,,,,,,,,,,,,,,,,,,,,,,,,,,,,,
,,,,,,,,2023-08-16_08h48.22.413,HF_wild_card,2022.2.4,MacIntel,59.99880002,5ca9106716aa84001725d880,64d2fd46c836a06233681665,64dc7f3ce8f6a3b22cc49387,,,,,,,sngl,resources/Empty.png,resources/DR.BMP,WildCard_Ex,0.319895426,-0.067636787,1,0,0,0.6914,optionRight,5,80,1,2,0,2,0,1,,,,,,,,,,,,,,,,,,,,,,,,,,,,,,,,,,,,,,,
,,,,,,,,2023-08-16_08h48.22.413,HF_wild_card,2022.2.4,MacIntel,59.99880002,5ca9106716aa84001725d880,64d2fd46c836a06233681665,64dc7f3ce8f6a3b22cc49387,,,,,,,ctch,resources/DB.BMP,resources/DP.BMP,Door3,-0.30132019,-0.009823574,1,0,0,0.6314,optionLeft,70,150,1,3,0,3,0,1,,,,,,,,,,,,,,,,,,,,,,,,,,,,,,,,,,,,,,,
,,,,,,,,2023-08-16_08h48.22.413,HF_wild_card,2022.2.4,MacIntel,59.99880002,5ca9106716aa84001725d880,64d2fd46c836a06233681665,64dc7f3ce8f6a3b22cc49387,,,,,,,decisionTrl,resources/DB.BMP,resources/DY.BMP,Door3,-0.29886773,-0.006275669,1,0,0,0.8611,optionLeft,70,220,1,4,0,4,0,1,,,,,,,,,,,,,,,,,,,,,,,,,,,,,,,,,,,,,,,
,,,,,,,,2023-08-16_08h48.22.413,HF_wild_card,2022.2.4,MacIntel,59.99880002,5ca9106716aa84001725d880,64d2fd46c836a06233681665,64dc7f3ce8f6a3b22cc49387,,,,,,,decisionTrl,resources/DR.BMP,resources/DG.BMP,Door1,0.343558214,0.002808601,1,0,0,0.9455,optionRight,30,250,1,5,0,5,0,1,,,,,,,,,,,,,,,,,,,,,,,,,,,,,,,,,,,,,,,
,,,,,,,,2023-08-16_08h48.22.413,HF_wild_card,2022.2.4,MacIntel,59.99880002,5ca9106716aa84001725d880,64d2fd46c836a06233681665,64dc7f3ce8f6a3b22cc49387,,,,,,,decisionTrl,resources/DB.BMP,resources/DR.BMP,Door3,-0.313457574,0.002384983,1,0,0,0.8622,optionLeft,70,320,1,6,0,6,0,1,,,,,,,,,,,,,,,,,,,,,,,,,,,,,,,,,,,,,,,
,,,,,,,,2023-08-16_08h48.22.413,HF_wild_card,2022.2.4,MacIntel,59.99880002,5ca9106716aa84001725d880,64d2fd46c836a06233681665,64dc7f3ce8f6a3b22cc49387,,,,,,,decisionTrl,resources/DR.BMP,resources/DY.BMP,Door4,0.378706597,0.002803107,1,0,0,1.0446,optionRight,80,400,1,7,0,7,0,1,,,,,,,,,,,,,,,,,,,,,,,,,,,,,,,,,,,,,,,
,,,,,,,,2023-08-16_08h48.22.413,HF_wild_card,2022.2.4,MacIntel,59.99880002,5ca9106716aa84001725d880,64d2fd46c836a06233681665,64dc7f3ce8f6a3b22cc49387,,,,,,,sngl,resources/Empty.png,resources/DB.BMP,Door3,0.220824585,-0.045766669,1,0,0,0.7646,optionRight,70,470,1,8,0,8,0,1,,,,,,,,,,,,,,,,,,,,,,,,,,,,,,,,,,,,,,,
,,,,,,,,2023-08-16_08h48.22.413,HF_wild_card,2022.2.4,MacIntel,59.99880002,5ca9106716aa84001725d880,64d2fd46c836a06233681665,64dc7f3ce8f6a3b22cc49387,,,,,,,decisionTrl,resources/DR.BMP,resources/DB.BMP,Door3,0.345309787,-0.030390557,1,0,0,0.8475,optionRight,70,540,1,9,0,9,0,1,,,,,,,,,,,,,,,,,,,,,,,,,,,,,,,,,,,,,,,
,,,,,,,,2023-08-16_08h48.22.413,HF_wild_card,2022.2.4,MacIntel,59.99880002,5ca9106716aa84001725d880,64d2fd46c836a06233681665,64dc7f3ce8f6a3b22cc49387,,,,,,,sngl,resources/DP.BMP,resources/Empty.png,Door2,-0.202730849,-0.032603828,1,0,0,0.896,optionLeft,40,580,1,10,0,10,0,1,,,,,,,,,,,,,,,,,,,,,,,,,,,,,,,,,,,,,,,
,,,,,,,,2023-08-16_08h48.22.413,HF_wild_card,2022.2.4,MacIntel,59.99880002,5ca9106716aa84001725d880,64d2fd46c836a06233681665,64dc7f3ce8f6a3b22cc49387,,,,,,,decisionTrl,resources/DR.BMP,resources/DP.BMP,Door2,0.260933024,-0.024453668,1,0,0,0.7467,optionRight,20,600,1,11,0,11,0,1,,,,,,,,,,,,,,,,,,,,,,,,,,,,,,,,,,,,,,,
,,,,,,,,2023-08-16_08h48.22.413,HF_wild_card,2022.2.4,MacIntel,59.99880002,5ca9106716aa84001725d880,64d2fd46c836a06233681665,64dc7f3ce8f6a3b22cc49387,,,,,,,decisionTrl,resources/DP.BMP,resources/DR.BMP,Door2,-0.142419366,0.021728787,1,0,0,0.9341,optionLeft,40,640,1,12,0,12,0,1,,,,,,,,,,,,,,,,,,,,,,,,,,,,,,,,,,,,,,,
,,,,,,,,2023-08-16_08h48.22.413,HF_wild_card,2022.2.4,MacIntel,59.99880002,5ca9106716aa84001725d880,64d2fd46c836a06233681665,64dc7f3ce8f6a3b22cc49387,,,,,,,decisionTrl,resources/DY.BMP,resources/DB.BMP,Door3,0.25010064,-0.009111532,1,0,0,0.8306,optionRight,70,710,1,13,0,13,0,1,,,,,,,,,,,,,,,,,,,,,,,,,,,,,,,,,,,,,,,
,,,,,,,,2023-08-16_08h48.22.413,HF_wild_card,2022.2.4,MacIntel,59.99880002,5ca9106716aa84001725d880,64d2fd46c836a06233681665,64dc7f3ce8f6a3b22cc49387,,,,,,,sngl,resources/DG.BMP,resources/Empty.png,Door1,-0.273451131,0.028891975,1,0,0,0.7141,optionLeft,30,740,1,14,0,14,0,1,,,,,,,,,,,,,,,,,,,,,,,,,,,,,,,,,,,,,,,
,,,,,,,,2023-08-16_08h48.22.413,HF_wild_card,2022.2.4,MacIntel,59.99880002,5ca9106716aa84001725d880,64d2fd46c836a06233681665,64dc7f3ce8f6a3b22cc49387,,,,,,,decisionTrl,resources/DP.BMP,resources/DG.BMP,Door1,0.297557644,-0.066491021,1,0,0,1.2959,optionRight,30,770,1,15,0,15,0,1,,,,,,,,,,,,,,,,,,,,,,,,,,,,,,,,,,,,,,,
,,,,,,,,2023-08-16_08h48.22.413,HF_wild_card,2022.2.4,MacIntel,59.99880002,5ca9106716aa84001725d880,64d2fd46c836a06233681665,64dc7f3ce8f6a3b22cc49387,,,,,,,ctch,resources/DY.BMP,resources/DG.BMP,Door4,-0.169883355,0.053515998,1,0,0,0.9627,optionLeft,80,850,1,16,0,16,0,1,,,,,,,,,,,,,,,,,,,,,,,,,,,,,,,,,,,,,,,
,,,,,,,,2023-08-16_08h48.22.413,HF_wild_card,2022.2.4,MacIntel,59.99880002,5ca9106716aa84001725d880,64d2fd46c836a06233681665,64dc7f3ce8f6a3b22cc49387,,,,,,,decisionTrl,resources/DB.BMP,resources/DY.BMP,Door4,0.166677314,-0.001101786,1,0,0,0.6963,optionRight,80,930,1,17,0,17,0,1,,,,,,,,,,,,,,,,,,,,,,,,,,,,,,,,,,,,,,,
,,,,,,,,2023-08-16_08h48.22.413,HF_wild_card,2022.2.4,MacIntel,59.99880002,5ca9106716aa84001725d880,64d2fd46c836a06233681665,64dc7f3ce8f6a3b22cc49387,,,,,,,decisionTrl,resources/DY.BMP,resources/DR.BMP,Door4,-0.338660278,0.010131226,1,0,0,0.6654,optionLeft,80,1010,1,18,0,18,0,1,,,,,,,,,,,,,,,,,,,,,,,,,,,,,,,,,,,,,,,
,,,,,,,,2023-08-16_08h48.22.413,HF_wild_card,2022.2.4,MacIntel,59.99880002,5ca9106716aa84001725d880,64d2fd46c836a06233681665,64dc7f3ce8f6a3b22cc49387,,,,,,,decisionTrl,resources/DY.BMP,resources/DB.BMP,Door4,-0.315323927,-0.025777181,1,0,0,0.644,optionLeft,80,1090,1,19,0,19,0,1,,,,,,,,,,,,,,,,,,,,,,,,,,,,,,,,,,,,,,,
,,,,,,,,2023-08-16_08h48.22.413,HF_wild_card,2022.2.4,MacIntel,59.99880002,5ca9106716aa84001725d880,64d2fd46c836a06233681665,64dc7f3ce8f6a3b22cc49387,,,,,,,ctch,resources/DP.BMP,resources/DB.BMP,Door3,0.242648315,0.007162882,1,0,0,0.8623,optionRight,70,1160,1,20,0,20,0,1,,,,,,,,,,,,,,,,,,,,,,,,,,,,,,,,,,,,,,,
,,,,,,,,2023-08-16_08h48.22.413,HF_wild_card,2022.2.4,MacIntel,59.99880002,5ca9106716aa84001725d880,64d2fd46c836a06233681665,64dc7f3ce8f6a3b22cc49387,,,,,,,ctch,resources/DB.BMP,resources/DP.BMP,Door3,-0.234449259,-0.00188463,1,0,0,0.813,optionLeft,70,1230,1,21,0,21,0,1,,,,,,,,,,,,,,,,,,,,,,,,,,,,,,,,,,,,,,,
,,,,,,,,2023-08-16_08h48.22.413,HF_wild_card,2022.2.4,MacIntel,59.99880002,5ca9106716aa84001725d880,64d2fd46c836a06233681665,64dc7f3ce8f6a3b22cc49387,,,,,,,decisionTrl,resources/DY.BMP,resources/DB.BMP,Door4,-0.207864583,-0.007109104,1,0,0,0.8126,optionLeft,80,1310,1,22,0,22,0,1,,,,,,,,,,,,,,,,,,,,,,,,,,,,,,,,,,,,,,,
,,,,,,,,2023-08-16_08h48.22.413,HF_wild_card,2022.2.4,MacIntel,59.99880002,5ca9106716aa84001725d880,64d2fd46c836a06233681665,64dc7f3ce8f6a3b22cc49387,,,,,,,sngl,resources/Empty.png,resources/DG.BMP,Door1,0.307401666,0.001761949,1,0,0,0.6303,optionRight,30,1340,1,23,0,23,0,1,,,,,,,,,,,,,,,,,,,,,,,,,,,,,,,,,,,,,,,
,,,,,,,,2023-08-16_08h48.22.413,HF_wild_card,2022.2.4,MacIntel,59.99880002,5ca9106716aa84001725d880,64d2fd46c836a06233681665,64dc7f3ce8f6a3b22cc49387,,,,,,,decisionTrl,resources/DG.BMP,resources/DP.BMP,Door1,-0.161253459,-0.038867391,1,0,0,2.0474,optionLeft,30,1370,1,24,0,24,0,1,,,,,,,,,,,,,,,,,,,,,,,,,,,,,,,,,,,,,,,
,,,,,,,,2023-08-16_08h48.22.413,HF_wild_card,2022.2.4,MacIntel,59.99880002,5ca9106716aa84001725d880,64d2fd46c836a06233681665,64dc7f3ce8f6a3b22cc49387,,,,,,,sngl,resources/Empty.png,resources/DP.BMP,Door2,0.24035536,-0.068066678,1,0,0,0.6123,optionRight,20,1390,1,25,0,25,0,1,,,,,,,,,,,,,,,,,,,,,,,,,,,,,,,,,,,,,,,
,,,,,,,,2023-08-16_08h48.22.413,HF_wild_card,2022.2.4,MacIntel,59.99880002,5ca9106716aa84001725d880,64d2fd46c836a06233681665,64dc7f3ce8f6a3b22cc49387,,,,,,,sngl,resources/Empty.png,resources/DR.BMP,WildCard_Ex,0.22583686,-0.045400391,1,0,0,0.6598,optionRight,95,1485,1,26,0,26,0,1,,,,,,,,,,,,,,,,,,,,,,,,,,,,,,,,,,,,,,,
,,,,,,,,2023-08-16_08h48.22.413,HF_wild_card,2022.2.4,MacIntel,59.99880002,5ca9106716aa84001725d880,64d2fd46c836a06233681665,64dc7f3ce8f6a3b22cc49387,,,,,,,decisionTrl,resources/DB.BMP,resources/DY.BMP,Door4,0.122427029,-0.062346429,1,0,0,1.0796,optionRight,60,1545,1,27,0,27,0,1,,,,,,,,,,,,,,,,,,,,,,,,,,,,,,,,,,,,,,,
,,,,,,,,2023-08-16_08h48.22.413,HF_wild_card,2022.2.4,MacIntel,59.99880002,5ca9106716aa84001725d880,64d2fd46c836a06233681665,64dc7f3ce8f6a3b22cc49387,,,,,,,decisionTrl,resources/DP.BMP,resources/DG.BMP,Door2,-0.258528714,0.032198012,1,0,0,0.7639,optionLeft,20,1565,1,28,0,28,0,1,,,,,,,,,,,,,,,,,,,,,,,,,,,,,,,,,,,,,,,
,,,,,,,,2023-08-16_08h48.22.413,HF_wild_card,2022.2.4,MacIntel,59.99880002,5ca9106716aa84001725d880,64d2fd46c836a06233681665,64dc7f3ce8f6a3b22cc49387,,,,,,,decisionTrl,resources/DG.BMP,resources/DR.BMP,Door1,-0.260336745,0.091329108,1,0,0,0.6608,optionLeft,30,1595,1,29,0,29,0,1,,,,,,,,,,,,,,,,,,,,,,,,,,,,,,,,,,,,,,,
,,,,,,,,2023-08-16_08h48.22.413,HF_wild_card,2022.2.4,MacIntel,59.99880002,5ca9106716aa84001725d880,64d2fd46c836a06233681665,64dc7f3ce8f6a3b22cc49387,,,,,,,ctch,resources/DP.BMP,resources/DB.BMP,Door2,-0.189133301,0.019695231,1,0,0,1.161,optionLeft,40,1635,1,30,0,30,0,1,,,,,,,,,,,,,,,,,,,,,,,,,,,,,,,,,,,,,,,
,,,,,,,,2023-08-16_08h48.22.413,HF_wild_card,2022.2.4,MacIntel,59.99880002,5ca9106716aa84001725d880,64d2fd46c836a06233681665,64dc7f3ce8f6a3b22cc49387,,,,,,,sngl,resources/DY.BMP,resources/Empty.png,Door4,-0.297147081,0.064107836,1,0,0,0.6164,optionLeft,80,1715,1,31,0,31,0,1,,,,,,,,,,,,,,,,,,,,,,,,,,,,,,,,,,,,,,,
,,,,,,,,2023-08-16_08h48.22.413,HF_wild_card,2022.2.4,MacIntel,59.99880002,5ca9106716aa84001725d880,64d2fd46c836a06233681665,64dc7f3ce8f6a3b22cc49387,,,,,,,ctch,resources/DY.BMP,resources/DG.BMP,Door4,-0.18426378,0.065476888,1,0,0,0.7307,optionLeft,80,1795,1,32,0,32,0,1,,,,,,,,,,,,,,,,,,,,,,,,,,,,,,,,,,,,,,,
,,,,,,,,2023-08-16_08h48.22.413,HF_wild_card,2022.2.4,MacIntel,59.99880002,5ca9106716aa84001725d880,64d2fd46c836a06233681665,64dc7f3ce8f6a3b22cc49387,,,,,,,decisionTrl,resources/DP.BMP,resources/DG.BMP,Door1,0.23420695,-0.03322581,1,0,0,0.9487,optionRight,30,1825,1,33,0,33,0,1,,,,,,,,,,,,,,,,,,,,,,,,,,,,,,,,,,,,,,,
,,,,,,,,2023-08-16_08h48.22.413,HF_wild_card,2022.2.4,MacIntel,59.99880002,5ca9106716aa84001725d880,64d2fd46c836a06233681665,64dc7f3ce8f6a3b22cc49387,,,,,,,ctch,resources/DG.BMP,resources/DY.BMP,Door4,0.295285984,0.039860636,1,0,0,1.2663,optionRight,60,1885,1,34,0,34,0,1,,,,,,,,,,,,,,,,,,,,,,,,,,,,,,,,,,,,,,,
,,,,,,,,2023-08-16_08h48.22.413,HF_wild_card,2022.2.4,MacIntel,59.99880002,5ca9106716aa84001725d880,64d2fd46c836a06233681665,64dc7f3ce8f6a3b22cc49387,,,,,,,sngl,resources/DB.BMP,resources/Empty.png,Door3,-0.31934767,0.085884026,1,0,0,0.6595,optionLeft,70,1955,1,35,0,35,0,1,,,,,,,,,,,,,,,,,,,,,,,,,,,,,,,,,,,,,,,
,,,,,,,,2023-08-16_08h48.22.413,HF_wild_card,2022.2.4,MacIntel,59.99880002,5ca9106716aa84001725d880,64d2fd46c836a06233681665,64dc7f3ce8f6a3b22cc49387,,,,,,,decisionTrl,resources/DG.BMP,resources/DP.BMP,Door1,-0.228019952,0.044081353,1,0,0,0.764,optionLeft,30,1985,1,36,0,36,0,1,,,,,,,,,,,,,,,,,,,,,,,,,,,,,,,,,,,,,,,
,,,,,,,,2023-08-16_08h48.22.413,HF_wild_card,2022.2.4,MacIntel,59.99880002,5ca9106716aa84001725d880,64d2fd46c836a06233681665,64dc7f3ce8f6a3b22cc49387,,,,,,,decisionTrl,resources/DG.BMP,resources/DP.BMP,Door2,0.195011597,-0.016798842,1,0,0,0.6304,optionRight,20,2005,1,37,0,37,0,1,,,,,,,,,,,,,,,,,,,,,,,,,,,,,,,,,,,,,,,
,,,,,,,,2023-08-16_08h48.22.413,HF_wild_card,2022.2.4,MacIntel,59.99880002,5ca9106716aa84001725d880,64d2fd46c836a06233681665,64dc7f3ce8f6a3b22cc49387,,,,,,,decisionTrl,resources/DB.BMP,resources/DY.BMP,Door4,0.153562486,-0.035536092,1,0,0,1.2136,optionRight,60,2065,1,38,0,38,0,1,,,,,,,,,,,,,,,,,,,,,,,,,,,,,,,,,,,,,,,
,,,,,,,,2023-08-16_08h48.22.413,HF_wild_card,2022.2.4,MacIntel,59.99880002,5ca9106716aa84001725d880,64d2fd46c836a06233681665,64dc7f3ce8f6a3b22cc49387,,,,,,,sngl,resources/Empty.png,resources/DY.BMP,Door4,0.227889133,-0.032480265,1,0,0,0.6116,optionRight,60,2125,1,39,0,39,0,1,,,,,,,,,,,,,,,,,,,,,,,,,,,,,,,,,,,,,,,
,,,,,,,,2023-08-16_08h48.22.413,HF_wild_card,2022.2.4,MacIntel,59.99880002,5ca9106716aa84001725d880,64d2fd46c836a06233681665,64dc7f3ce8f6a3b22cc49387,,,,,,,decisionTrl,resources/DG.BMP,resources/DP.BMP,Door1,-0.257999708,0.036970622,1,0,0,0.947,optionLeft,30,2155,1,40,0,40,0,1,,,,,,,,,,,,,,,,,,,,,,,,,,,,,,,,,,,,,,,
,,,,,,,,2023-08-16_08h48.22.413,HF_wild_card,2022.2.4,MacIntel,59.99880002,5ca9106716aa84001725d880,64d2fd46c836a06233681665,64dc7f3ce8f6a3b22cc49387,,,,,,,ctch,resources/DG.BMP,resources/DY.BMP,Door4,0.217877401,0.005456916,1,0,0,0.7308,optionRight,60,2215,1,41,0,41,0,1,,,,,,,,,,,,,,,,,,,,,,,,,,,,,,,,,,,,,,,
,,,,,,,,2023-08-16_08h48.22.413,HF_wild_card,2022.2.4,MacIntel,59.99880002,5ca9106716aa84001725d880,64d2fd46c836a06233681665,64dc7f3ce8f6a3b22cc49387,,,,,,,decisionTrl,resources/DP.BMP,resources/DG.BMP,Door2,-0.201933187,0.037713894,1,0,0,0.9314,optionLeft,40,2255,1,42,0,42,0,1,,,,,,,,,,,,,,,,,,,,,,,,,,,,,,,,,,,,,,,
,,,,,,,,2023-08-16_08h48.22.413,HF_wild_card,2022.2.4,MacIntel,59.99880002,5ca9106716aa84001725d880,64d2fd46c836a06233681665,64dc7f3ce8f6a3b22cc49387,,,,,,,sngl,resources/DR.BMP,resources/Empty.png,WildCard_Ex,-0.156039361,-0.022309096,1,0,0,1.0305,optionLeft,95,2350,1,43,0,43,0,1,,,,,,,,,,,,,,,,,,,,,,,,,,,,,,,,,,,,,,,
,,,,,,,,2023-08-16_08h48.22.413,HF_wild_card,2022.2.4,MacIntel,59.99880002,5ca9106716aa84001725d880,64d2fd46c836a06233681665,64dc7f3ce8f6a3b22cc49387,,,,,,,,,,,,,,,,,,,,,,,,,,0,0,0,0,1,,,,,,,,,,,,,,,,,,,,,,,,,,,,,,,,,,
,,,,,,,,2023-08-16_08h48.22.413,HF_wild_card,2022.2.4,MacIntel,59.99880002,5ca9106716aa84001725d880,64d2fd46c836a06233681665,64dc7f3ce8f6a3b22cc49387,,,,,,,decisionTrl,resources/DP.BMP,resources/DG.BMP,Door2,-0.18275533,-0.071776598,1,0,0,1.0332,optionLeft,20,2370,2,0,0,0,0,1,,,,,,,,,,,,,,,,,,,,,,,,,,,,,,,,,,,,,,,
,,,,,,,,2023-08-16_08h48.22.413,HF_wild_card,2022.2.4,MacIntel,59.99880002,5ca9106716aa84001725d880,64d2fd46c836a06233681665,64dc7f3ce8f6a3b22cc49387,,,,,,,decisionTrl,resources/DY.BMP,resources/DR.BMP,Door4,-0.175341119,0.027642246,1,0,0,0.6109,optionLeft,80,2450,2,1,0,1,0,1,,,,,,,,,,,,,,,,,,,,,,,,,,,,,,,,,,,,,,,
,,,,,,,,2023-08-16_08h48.22.413,HF_wild_card,2022.2.4,MacIntel,59.99880002,5ca9106716aa84001725d880,64d2fd46c836a06233681665,64dc7f3ce8f6a3b22cc49387,,,,,,,decisionTrl,resources/DG.BMP,resources/DR.BMP,WildCard_Ex,0.210233426,-0.036173638,1,0,0,0.5957,optionRight,95,2545,2,2,0,2,0,1,,,,,,,,,,,,,,,,,,,,,,,,,,,,,,,,,,,,,,,
,,,,,,,,2023-08-16_08h48.22.413,HF_wild_card,2022.2.4,MacIntel,59.99880002,5ca9106716aa84001725d880,64d2fd46c836a06233681665,64dc7f3ce8f6a3b22cc49387,,,,,,,decisionTrl,resources/DR.BMP,resources/DP.BMP,WildCard_Ex,-0.301543715,0.072505629,1,0,0,0.6105,optionLeft,5,2550,2,3,0,3,0,1,,,,,,,,,,,,,,,,,,,,,,,,,,,,,,,,,,,,,,,
,,,,,,,,2023-08-16_08h48.22.413,HF_wild_card,2022.2.4,MacIntel,59.99880002,5ca9106716aa84001725d880,64d2fd46c836a06233681665,64dc7f3ce8f6a3b22cc49387,,,,,,,sngl,resources/DP.BMP,resources/Empty.png,Door2,-0.194764065,0.073634237,1,0,0,0.5458,optionLeft,20,2570,2,4,0,4,0,1,,,,,,,,,,,,,,,,,,,,,,,,,,,,,,,,,,,,,,,
,,,,,,,,2023-08-16_08h48.22.413,HF_wild_card,2022.2.4,MacIntel,59.99880002,5ca9106716aa84001725d880,64d2fd46c836a06233681665,64dc7f3ce8f6a3b22cc49387,,,,,,,sngl,resources/Empty.png,resources/DP.BMP,Door2,0.141688775,-0.023191833,1,0,0,0.6311,optionRight,40,2610,2,5,0,5,0,1,,,,,,,,,,,,,,,,,,,,,,,,,,,,,,,,,,,,,,,
,,,,,,,,2023-08-16_08h48.22.413,HF_wild_card,2022.2.4,MacIntel,59.99880002,5ca9106716aa84001725d880,64d2fd46c836a06233681665,64dc7f3ce8f6a3b22cc49387,,,,,,,decisionTrl,resources/DB.BMP,resources/DY.BMP,Door4,0.205900811,0.025715671,1,0,0,0.8802,optionRight,80,2690,2,6,0,6,0,1,,,,,,,,,,,,,,,,,,,,,,,,,,,,,,,,,,,,,,,
,,,,,,,,2023-08-16_08h48.22.413,HF_wild_card,2022.2.4,MacIntel,59.99880002,5ca9106716aa84001725d880,64d2fd46c836a06233681665,64dc7f3ce8f6a3b22cc49387,,,,,,,decisionTrl,resources/DB.BMP,resources/DR.BMP,Door3,-0.138392741,-0.000620897,1,0,0,0.761,optionLeft,70,2760,2,7,0,7,0,1,,,,,,,,,,,,,,,,,,,,,,,,,,,,,,,,,,,,,,,
,,,,,,,,2023-08-16_08h48.22.413,HF_wild_card,2022.2.4,MacIntel,59.99880002,5ca9106716aa84001725d880,64d2fd46c836a06233681665,64dc7f3ce8f6a3b22cc49387,,,,,,,decisionTrl,resources/DB.BMP,resources/DY.BMP,Door4,0.255393473,-0.031179335,1,0,0,0.4998,optionRight,80,2840,2,8,0,8,0,1,,,,,,,,,,,,,,,,,,,,,,,,,,,,,,,,,,,,,,,
,,,,,,,,2023-08-16_08h48.22.413,HF_wild_card,2022.2.4,MacIntel,59.99880002,5ca9106716aa84001725d880,64d2fd46c836a06233681665,64dc7f3ce8f6a3b22cc49387,,,,,,,ctch,resources/DG.BMP,resources/DY.BMP,Door4,0.240424127,-0.051579725,1,0,0,0.6293,optionRight,60,2900,2,9,0,9,0,1,,,,,,,,,,,,,,,,,,,,,,,,,,,,,,,,,,,,,,,
,,,,,,,,2023-08-16_08h48.22.413,HF_wild_card,2022.2.4,MacIntel,59.99880002,5ca9106716aa84001725d880,64d2fd46c836a06233681665,64dc7f3ce8f6a3b22cc49387,,,,,,,ctch,resources/DB.BMP,resources/DP.BMP,Door3,-0.31242608,0.124164327,1,0,0,0.8277,optionLeft,70,2970,2,10,0,10,0,1,,,,,,,,,,,,,,,,,,,,,,,,,,,,,,,,,,,,,,,
,,,,,,,,2023-08-16_08h48.22.413,HF_wild_card,2022.2.4,MacIntel,59.99880002,5ca9106716aa84001725d880,64d2fd46c836a06233681665,64dc7f3ce8f6a3b22cc49387,,,,,,,decisionTrl,resources/DG.BMP,resources/DP.BMP,Door1,-0.277287191,0.023023241,1,0,0,0.6477,optionLeft,30,3000,2,11,0,11,0,1,,,,,,,,,,,,,,,,,,,,,,,,,,,,,,,,,,,,,,,
,,,,,,,,2023-08-16_08h48.22.413,HF_wild_card,2022.2.4,MacIntel,59.99880002,5ca9106716aa84001725d880,64d2fd46c836a06233681665,64dc7f3ce8f6a3b22cc49387,,,,,,,decisionTrl,resources/DR.BMP,resources/DY.BMP,Door4,0.207739461,-0.00694302,1,0,0,0.5802,optionRight,60,3060,2,12,0,12,0,1,,,,,,,,,,,,,,,,,,,,,,,,,,,,,,,,,,,,,,,
,,,,,,,,2023-08-16_08h48.22.413,HF_wild_card,2022.2.4,MacIntel,59.99880002,5ca9106716aa84001725d880,64d2fd46c836a06233681665,64dc7f3ce8f6a3b22cc49387,,,,,,,sngl,resources/Empty.png,resources/DB.BMP,Door3,0.16361518,0.000380622,1,0,0,0.599,optionRight,70,3130,2,13,0,13,0,1,,,,,,,,,,,,,,,,,,,,,,,,,,,,,,,,,,,,,,,
,,,,,,,,2023-08-16_08h48.22.413,HF_wild_card,2022.2.4,MacIntel,59.99880002,5ca9106716aa84001725d880,64d2fd46c836a06233681665,64dc7f3ce8f6a3b22cc49387,,,,,,,decisionTrl,resources/DP.BMP,resources/DG.BMP,Door1,0.213834839,-0.027503221,1,0,0,0.7468,optionRight,30,3160,2,14,0,14,0,1,,,,,,,,,,,,,,,,,,,,,,,,,,,,,,,,,,,,,,,
,,,,,,,,2023-08-16_08h48.22.413,HF_wild_card,2022.2.4,MacIntel,59.99880002,5ca9106716aa84001725d880,64d2fd46c836a06233681665,64dc7f3ce8f6a3b22cc49387,,,,,,,sngl,resources/Empty.png,resources/DY.BMP,Door4,0.259133369,-0.039654677,1,0,0,0.5453,optionRight,80,3240,2,15,0,15,0,1,,,,,,,,,,,,,,,,,,,,,,,,,,,,,,,,,,,,,,,
,,,,,,,,2023-08-16_08h48.22.413,HF_wild_card,2022.2.4,MacIntel,59.99880002,5ca9106716aa84001725d880,64d2fd46c836a06233681665,64dc7f3ce8f6a3b22cc49387,,,,,,,decisionTrl,resources/DR.BMP,resources/DB.BMP,WildCard_Ex,-0.206602037,0.027764825,1,0,0,0.6331,optionLeft,95,3335,2,16,0,16,0,1,,,,,,,,,,,,,,,,,,,,,,,,,,,,,,,,,,,,,,,
,,,,,,,,2023-08-16_08h48.22.413,HF_wild_card,2022.2.4,MacIntel,59.99880002,5ca9106716aa84001725d880,64d2fd46c836a06233681665,64dc7f3ce8f6a3b22cc49387,,,,,,,sngl,resources/Empty.png,resources/DR.BMP,WildCard_Ex,0.223426378,-0.009783122,1,0,0,0.5797,optionRight,5,3340,2,17,0,17,0,1,,,,,,,,,,,,,,,,,,,,,,,,,,,,,,,,,,,,,,,
,,,,,,,,2023-08-16_08h48.22.413,HF_wild_card,2022.2.4,MacIntel,59.99880002,5ca9106716aa84001725d880,64d2fd46c836a06233681665,64dc7f3ce8f6a3b22cc49387,,,,,,,sngl,resources/DR.BMP,resources/Empty.png,WildCard_Ex,-0.242056003,0.050594177,1,0,0,0.5463,optionLeft,95,3435,2,18,0,18,0,1,,,,,,,,,,,,,,,,,,,,,,,,,,,,,,,,,,,,,,,
,,,,,,,,2023-08-16_08h48.22.413,HF_wild_card,2022.2.4,MacIntel,59.99880002,5ca9106716aa84001725d880,64d2fd46c836a06233681665,64dc7f3ce8f6a3b22cc49387,,,,,,,decisionTrl,resources/DP.BMP,resources/DG.BMP,Door1,0.366287842,-0.100881822,1,0,0,0.6822,optionRight,30,3465,2,19,0,19,0,1,,,,,,,,,,,,,,,,,,,,,,,,,,,,,,,,,,,,,,,
,,,,,,,,2023-08-16_08h48.22.413,HF_wild_card,2022.2.4,MacIntel,59.99880002,5ca9106716aa84001725d880,64d2fd46c836a06233681665,64dc7f3ce8f6a3b22cc49387,,,,,,,sngl,resources/DB.BMP,resources/Empty.png,Door3,-0.311480069,0.020123257,1,0,0,0.4954,optionLeft,70,3535,2,20,0,20,0,1,,,,,,,,,,,,,,,,,,,,,,,,,,,,,,,,,,,,,,,
,,,,,,,,2023-08-16_08h48.22.413,HF_wild_card,2022.2.4,MacIntel,59.99880002,5ca9106716aa84001725d880,64d2fd46c836a06233681665,64dc7f3ce8f6a3b22cc49387,,,,,,,decisionTrl,resources/DR.BMP,resources/DG.BMP,WildCard_Ex,-0.199232042,0.033393351,1,0,0,0.6136,optionLeft,5,3540,2,21,0,21,0,1,,,,,,,,,,,,,,,,,,,,,,,,,,,,,,,,,,,,,,,
,,,,,,,,2023-08-16_08h48.22.413,HF_wild_card,2022.2.4,MacIntel,59.99880002,5ca9106716aa84001725d880,64d2fd46c836a06233681665,64dc7f3ce8f6a3b22cc49387,,,,,,,decisionTrl,resources/DG.BMP,resources/DP.BMP,Door1,-0.224458483,0.056778158,1,0,0,0.8302,optionLeft,30,3570,2,22,0,22,0,1,,,,,,,,,,,,,,,,,,,,,,,,,,,,,,,,,,,,,,,
,,,,,,,,2023-08-16_08h48.22.413,HF_wild_card,2022.2.4,MacIntel,59.99880002,5ca9106716aa84001725d880,64d2fd46c836a06233681665,64dc7f3ce8f6a3b22cc49387,,,,,,,decisionTrl,resources/DB.BMP,resources/DY.BMP,Door4,0.224025404,-0.016727091,1,0,0,0.5985,optionRight,80,3650,2,23,0,23,0,1,,,,,,,,,,,,,,,,,,,,,,,,,,,,,,,,,,,,,,,
,,,,,,,,2023-08-16_08h48.22.413,HF_wild_card,2022.2.4,MacIntel,59.99880002,5ca9106716aa84001725d880,64d2fd46c836a06233681665,64dc7f3ce8f6a3b22cc49387,,,,,,,ctch,resources/DP.BMP,resources/DB.BMP,Door2,-0.17553555,0.034434374,1,0,0,0.7319,optionLeft,40,3690,2,24,0,24,0,1,,,,,,,,,,,,,,,,,,,,,,,,,,,,,,,,,,,,,,,
,,,,,,,,2023-08-16_08h48.22.413,HF_wild_card,2022.2.4,MacIntel,59.99880002,5ca9106716aa84001725d880,64d2fd46c836a06233681665,64dc7f3ce8f6a3b22cc49387,,,,,,,decisionTrl,resources/DG.BMP,resources/DP.BMP,Door2,0.234625854,0.004948188,1,0,0,0.5639,optionRight,40,3730,2,25,0,25,0,1,,,,,,,,,,,,,,,,,,,,,,,,,,,,,,,,,,,,,,,
,,,,,,,,2023-08-16_08h48.22.413,HF_wild_card,2022.2.4,MacIntel,59.99880002,5ca9106716aa84001725d880,64d2fd46c836a06233681665,64dc7f3ce8f6a3b22cc49387,,,,,,,ctch,resources/DP.BMP,resources/DB.BMP,Door2,-0.182865533,0.008255242,1,0,0,0.6979,optionLeft,40,3770,2,26,0,26,0,1,,,,,,,,,,,,,,,,,,,,,,,,,,,,,,,,,,,,,,,
,,,,,,,,2023-08-16_08h48.22.413,HF_wild_card,2022.2.4,MacIntel,59.99880002,5ca9106716aa84001725d880,64d2fd46c836a06233681665,64dc7f3ce8f6a3b22cc49387,,,,,,,decisionTrl,resources/DP.BMP,resources/DR.BMP,WildCard_Ex,0.218105062,-0.02555481,1,0,0,0.5969,optionRight,95,3865,2,27,0,27,0,1,,,,,,,,,,,,,,,,,,,,,,,,,,,,,,,,,,,,,,,
,,,,,,,,2023-08-16_08h48.22.413,HF_wild_card,2022.2.4,MacIntel,59.99880002,5ca9106716aa84001725d880,64d2fd46c836a06233681665,64dc7f3ce8f6a3b22cc49387,,,,,,,ctch,resources/DY.BMP,resources/DG.BMP,Door4,-0.082569173,0.008507589,1,0,0,0.7458,optionLeft,60,3925,2,28,0,28,0,1,,,,,,,,,,,,,,,,,,,,,,,,,,,,,,,,,,,,,,,
,,,,,,,,2023-08-16_08h48.22.413,HF_wild_card,2022.2.4,MacIntel,59.99880002,5ca9106716aa84001725d880,64d2fd46c836a06233681665,64dc7f3ce8f6a3b22cc49387,,,,,,,decisionTrl,resources/DY.BMP,resources/DB.BMP,Door4,-0.243168132,0.051851298,1,0,0,0.7646,optionLeft,60,3985,2,29,0,29,0,1,,,,,,,,,,,,,,,,,,,,,,,,,,,,,,,,,,,,,,,
,,,,,,,,2023-08-16_08h48.22.413,HF_wild_card,2022.2.4,MacIntel,59.99880002,5ca9106716aa84001725d880,64d2fd46c836a06233681665,64dc7f3ce8f6a3b22cc49387,,,,,,,ctch,resources/DB.BMP,resources/DP.BMP,Door2,0.243995022,-0.007795546,1,0,0,0.6643,optionRight,20,4005,2,30,0,30,0,1,,,,,,,,,,,,,,,,,,,,,,,,,,,,,,,,,,,,,,,
,,,,,,,,2023-08-16_08h48.22.413,HF_wild_card,2022.2.4,MacIntel,59.99880002,5ca9106716aa84001725d880,64d2fd46c836a06233681665,64dc7f3ce8f6a3b22cc49387,,,,,,,sngl,resources/DG.BMP,resources/Empty.png,Door1,-0.250471259,0.051058485,1,0,0,0.4965,optionLeft,30,4035,2,31,0,31,0,1,,,,,,,,,,,,,,,,,,,,,,,,,,,,,,,,,,,,,,,
,,,,,,,,2023-08-16_08h48.22.413,HF_wild_card,2022.2.4,MacIntel,59.99880002,5ca9106716aa84001725d880,64d2fd46c836a06233681665,64dc7f3ce8f6a3b22cc49387,,,,,,,decisionTrl,resources/DY.BMP,resources/DB.BMP,Door4,-0.218662652,0.024779663,1,0,0,0.631,optionLeft,80,4115,2,32,0,32,0,1,,,,,,,,,,,,,,,,,,,,,,,,,,,,,,,,,,,,,,,
,,,,,,,,2023-08-16_08h48.22.413,HF_wild_card,2022.2.4,MacIntel,59.99880002,5ca9106716aa84001725d880,64d2fd46c836a06233681665,64dc7f3ce8f6a3b22cc49387,,,,,,,ctch,resources/DG.BMP,resources/DY.BMP,Door4,0.221208021,-0.038716295,1,0,0,0.5315,optionRight,80,4195,2,33,0,33,0,1,,,,,,,,,,,,,,,,,,,,,,,,,,,,,,,,,,,,,,,
,,,,,,,,2023-08-16_08h48.22.413,HF_wild_card,2022.2.4,MacIntel,59.99880002,5ca9106716aa84001725d880,64d2fd46c836a06233681665,64dc7f3ce8f6a3b22cc49387,,,,,,,decisionTrl,resources/DY.BMP,resources/DB.BMP,Door4,-0.288139174,0.109189657,1,0,0,0.6287,optionLeft,80,4275,2,34,0,34,0,1,,,,,,,,,,,,,,,,,,,,,,,,,,,,,,,,,,,,,,,
,,,,,,,,2023-08-16_08h48.22.413,HF_wild_card,2022.2.4,MacIntel,59.99880002,5ca9106716aa84001725d880,64d2fd46c836a06233681665,64dc7f3ce8f6a3b22cc49387,,,,,,,decisionTrl,resources/DY.BMP,resources/DB.BMP,Door4,-0.264449259,0.054819065,1,0,0,0.5307,optionLeft,80,4355,2,35,0,35,0,1,,,,,,,,,,,,,,,,,,,,,,,,,,,,,,,,,,,,,,,
,,,,,,,,2023-08-16_08h48.22.413,HF_wild_card,2022.2.4,MacIntel,59.99880002,5ca9106716aa84001725d880,64d2fd46c836a06233681665,64dc7f3ce8f6a3b22cc49387,,,,,,,sngl,resources/Empty.png,resources/DR.BMP,WildCard_Ex,0.337224935,-0.014040595,1,0,0,0.5291,optionRight,95,4450,2,36,0,36,0,1,,,,,,,,,,,,,,,,,,,,,,,,,,,,,,,,,,,,,,,
,,,,,,,,2023-08-16_08h48.22.413,HF_wild_card,2022.2.4,MacIntel,59.99880002,5ca9106716aa84001725d880,64d2fd46c836a06233681665,64dc7f3ce8f6a3b22cc49387,,,,,,,sngl,resources/DR.BMP,resources/Empty.png,WildCard_Ex,-0.258580119,0.076576335,1,0,0,0.6065,optionLeft,5,4455,2,37,0,37,0,1,,,,,,,,,,,,,,,,,,,,,,,,,,,,,,,,,,,,,,,
,,,,,,,,2023-08-16_08h48.22.413,HF_wild_card,2022.2.4,MacIntel,59.99880002,5ca9106716aa84001725d880,64d2fd46c836a06233681665,64dc7f3ce8f6a3b22cc49387,,,,,,,ctch,resources/DY.BMP,resources/DG.BMP,Door4,-0.239054159,0.087596673,1,0,0,0.5822,optionLeft,80,4535,2,38,0,38,0,1,,,,,,,,,,,,,,,,,,,,,,,,,,,,,,,,,,,,,,,
,,,,,,,,2023-08-16_08h48.22.413,HF_wild_card,2022.2.4,MacIntel,59.99880002,5ca9106716aa84001725d880,64d2fd46c836a06233681665,64dc7f3ce8f6a3b22cc49387,,,,,,,decisionTrl,resources/DG.BMP,resources/DP.BMP,Door2,0.12640313,-0.011970723,1,0,0,0.9331,optionRight,20,4555,2,39,0,39,0,1,,,,,,,,,,,,,,,,,,,,,,,,,,,,,,,,,,,,,,,
,,,,,,,,2023-08-16_08h48.22.413,HF_wild_card,2022.2.4,MacIntel,59.99880002,5ca9106716aa84001725d880,64d2fd46c836a06233681665,64dc7f3ce8f6a3b22cc49387,,,,,,,decisionTrl,resources/DB.BMP,resources/DY.BMP,Door4,0.136102091,-0.001878594,1,0,0,0.6918,optionRight,60,4615,2,40,0,40,0,1,,,,,,,,,,,,,,,,,,,,,,,,,,,,,,,,,,,,,,,
,,,,,,,,2023-08-16_08h48.22.413,HF_wild_card,2022.2.4,MacIntel,59.99880002,5ca9106716aa84001725d880,64d2fd46c836a06233681665,64dc7f3ce8f6a3b22cc49387,,,,,,,sngl,resources/Empty.png,resources/DG.BMP,Door1,0.111614719,-0.015179715,1,0,0,0.5453,optionRight,30,4645,2,41,0,41,0,1,,,,,,,,,,,,,,,,,,,,,,,,,,,,,,,,,,,,,,,
,,,,,,,,2023-08-16_08h48.22.413,HF_wild_card,2022.2.4,MacIntel,59.99880002,5ca9106716aa84001725d880,64d2fd46c836a06233681665,64dc7f3ce8f6a3b22cc49387,,,,,,,sngl,resources/DY.BMP,resources/Empty.png,Door4,-0.316988118,0.034083523,1,0,0,0.499,optionLeft,60,4705,2,42,0,42,0,1,,,,,,,,,,,,,,,,,,,,,,,,,,,,,,,,,,,,,,,
,,,,,,,,2023-08-16_08h48.22.413,HF_wild_card,2022.2.4,MacIntel,59.99880002,5ca9106716aa84001725d880,64d2fd46c836a06233681665,64dc7f3ce8f6a3b22cc49387,,,,,,,decisionTrl,resources/DP.BMP,resources/DG.BMP,Door1,0.141920912,0.004811774,1,0,0,0.7757,optionRight,30,4735,2,43,0,43,0,1,,,,,,,,,,,,,,,,,,,,,,,,,,,,,,,,,,,,,,,
,,,,,,,,2023-08-16_08h48.22.413,HF_wild_card,2022.2.4,MacIntel,59.99880002,5ca9106716aa84001725d880,64d2fd46c836a06233681665,64dc7f3ce8f6a3b22cc49387,,,,,,,,,,,,,,,,,,,,,,,,,,1,0,1,0,1,,,,,,,,,,,,,,,,,,,,,,,,,,,,,,,,,,
,,,,,,,,2023-08-16_08h48.22.413,HF_wild_card,2022.2.4,MacIntel,59.99880002,5ca9106716aa84001725d880,64d2fd46c836a06233681665,64dc7f3ce8f6a3b22cc49387,,,,,,,decisionTrl,resources/DY.BMP,resources/DB.BMP,Door4,-0.320254449,-0.089421251,1,0,0,0.6395,optionLeft,80,4815,3,0,0,0,0,1,,,,,,,,,,,,,,,,,,,,,,,,,,,,,,,,,,,,,,,
,,,,,,,,2023-08-16_08h48.22.413,HF_wild_card,2022.2.4,MacIntel,59.99880002,5ca9106716aa84001725d880,64d2fd46c836a06233681665,64dc7f3ce8f6a3b22cc49387,,,,,,,ctch,resources/DP.BMP,resources/DB.BMP,Door2,-0.186705594,0.013336453,1,0,0,0.564,optionLeft,40,4855,3,1,0,1,0,1,,,,,,,,,,,,,,,,,,,,,,,,,,,,,,,,,,,,,,,
,,,,,,,,2023-08-16_08h48.22.413,HF_wild_card,2022.2.4,MacIntel,59.99880002,5ca9106716aa84001725d880,64d2fd46c836a06233681665,64dc7f3ce8f6a3b22cc49387,,,,,,,decisionTrl,resources/DY.BMP,resources/DB.BMP,Door4,-0.224944933,0.020468886,1,0,0,0.5152,optionLeft,80,4935,3,2,0,2,0,1,,,,,,,,,,,,,,,,,,,,,,,,,,,,,,,,,,,,,,,
,,,,,,,,2023-08-16_08h48.22.413,HF_wild_card,2022.2.4,MacIntel,59.99880002,5ca9106716aa84001725d880,64d2fd46c836a06233681665,64dc7f3ce8f6a3b22cc49387,,,,,,,decisionTrl,resources/DP.BMP,resources/DG.BMP,Door2,-0.204885322,0.055944621,1,0,0,1.016,optionLeft,40,4975,3,3,0,3,0,1,,,,,,,,,,,,,,,,,,,,,,,,,,,,,,,,,,,,,,,
,,,,,,,,2023-08-16_08h48.22.413,HF_wild_card,2022.2.4,MacIntel,59.99880002,5ca9106716aa84001725d880,64d2fd46c836a06233681665,64dc7f3ce8f6a3b22cc49387,,,,,,,ctch,resources/DB.BMP,resources/DP.BMP,Door2,0.193890381,-0.022579956,1,0,0,0.696,optionRight,20,4995,3,4,0,4,0,1,,,,,,,,,,,,,,,,,,,,,,,,,,,,,,,,,,,,,,,
,,,,,,,,2023-08-16_08h48.22.413,HF_wild_card,2022.2.4,MacIntel,59.99880002,5ca9106716aa84001725d880,64d2fd46c836a06233681665,64dc7f3ce8f6a3b22cc49387,,,,,,,decisionTrl,resources/DG.BMP,resources/DR.BMP,Door1,-0.185586277,0.047528958,1,0,0,0.5148,optionLeft,30,5025,3,5,0,5,0,1,,,,,,,,,,,,,,,,,,,,,,,,,,,,,,,,,,,,,,,
,,,,,,,,2023-08-16_08h48.22.413,HF_wild_card,2022.2.4,MacIntel,59.99880002,5ca9106716aa84001725d880,64d2fd46c836a06233681665,64dc7f3ce8f6a3b22cc49387,,,,,,,sngl,resources/DG.BMP,resources/Empty.png,Door1,-0.190470785,0.077682902,1,0,0,0.7624,optionLeft,30,5055,3,6,0,6,0,1,,,,,,,,,,,,,,,,,,,,,,,,,,,,,,,,,,,,,,,
,,,,,,,,2023-08-16_08h48.22.413,HF_wild_card,2022.2.4,MacIntel,59.99880002,5ca9106716aa84001725d880,64d2fd46c836a06233681665,64dc7f3ce8f6a3b22cc49387,,,,,,,decisionTrl,resources/DP.BMP,resources/DG.BMP,Door1,0.240150689,-0.002855903,1,0,0,0.5769,optionRight,30,5085,3,7,0,7,0,1,,,,,,,,,,,,,,,,,,,,,,,,,,,,,,,,,,,,,,,
,,,,,,,,2023-08-16_08h48.22.413,HF_wild_card,2022.2.4,MacIntel,59.99880002,5ca9106716aa84001725d880,64d2fd46c836a06233681665,64dc7f3ce8f6a3b22cc49387,,,,,,,decisionTrl,resources/DB.BMP,resources/DY.BMP,Door4,0.20003106,-0.039184502,1,0,0,0.5983,optionRight,80,5165,3,8,0,8,0,1,,,,,,,,,,,,,,,,,,,,,,,,,,,,,,,,,,,,,,,
,,,,,,,,2023-08-16_08h48.22.413,HF_wild_card,2022.2.4,MacIntel,59.99880002,5ca9106716aa84001725d880,64d2fd46c836a06233681665,64dc7f3ce8f6a3b22cc49387,,,,,,,ctch,resources/DY.BMP,resources/DG.BMP,Door4,-0.249584351,0.063504605,1,0,0,0.5976,optionLeft,60,5225,3,9,0,9,0,1,,,,,,,,,,,,,,,,,,,,,,,,,,,,,,,,,,,,,,,
,,,,,,,,2023-08-16_08h48.22.413,HF_wild_card,2022.2.4,MacIntel,59.99880002,5ca9106716aa84001725d880,64d2fd46c836a06233681665,64dc7f3ce8f6a3b22cc49387,,,,,,,decisionTrl,resources/DP.BMP,resources/DG.BMP,Door1,0.22524292,-0.016477322,1,0,0,0.8631,optionRight,30,5255,3,10,0,10,0,1,,,,,,,,,,,,,,,,,,,,,,,,,,,,,,,,,,,,,,,
,,,,,,,,2023-08-16_08h48.22.413,HF_wild_card,2022.2.4,MacIntel,59.99880002,5ca9106716aa84001725d880,64d2fd46c836a06233681665,64dc7f3ce8f6a3b22cc49387,,,,,,,sngl,resources/DR.BMP,resources/Empty.png,WildCard_Ex,-0.215544976,0.073219333,1,0,0,0.6095,optionLeft,5,5260,3,11,0,11,0,1,,,,,,,,,,,,,,,,,,,,,,,,,,,,,,,,,,,,,,,
,,,,,,,,2023-08-16_08h48.22.413,HF_wild_card,2022.2.4,MacIntel,59.99880002,5ca9106716aa84001725d880,64d2fd46c836a06233681665,64dc7f3ce8f6a3b22cc49387,,,,,,,ctch,resources/DP.BMP,resources/DB.BMP,Door2,-0.24998508,0.115824721,1,0,0,0.8908,optionLeft,40,5300,3,12,0,12,0,1,,,,,,,,,,,,,,,,,,,,,,,,,,,,,,,,,,,,,,,
,,,,,,,,2023-08-16_08h48.22.413,HF_wild_card,2022.2.4,MacIntel,59.99880002,5ca9106716aa84001725d880,64d2fd46c836a06233681665,64dc7f3ce8f6a3b22cc49387,,,,,,,decisionTrl,resources/DG.BMP,resources/DP.BMP,Door2,0.192565172,-0.034667833,1,0,0,0.5633,optionRight,20,5320,3,13,0,13,0,1,,,,,,,,,,,,,,,,,,,,,,,,,,,,,,,,,,,,,,,
,,,,,,,,2023-08-16_08h48.22.413,HF_wild_card,2022.2.4,MacIntel,59.99880002,5ca9106716aa84001725d880,64d2fd46c836a06233681665,64dc7f3ce8f6a3b22cc49387,,,,,,,decisionTrl,resources/DY.BMP,resources/DR.BMP,Door4,-0.201854655,0.042418552,1,0,0,0.797,optionLeft,60,5380,3,14,0,14,0,1,,,,,,,,,,,,,,,,,,,,,,,,,,,,,,,,,,,,,,,
,,,,,,,,2023-08-16_08h48.22.413,HF_wild_card,2022.2.4,MacIntel,59.99880002,5ca9106716aa84001725d880,64d2fd46c836a06233681665,64dc7f3ce8f6a3b22cc49387,,,,,,,decisionTrl,resources/DR.BMP,resources/DY.BMP,WildCard_Ex,-0.239958666,0.03050744,1,0,0,0.6738,optionLeft,5,5385,3,15,0,15,0,1,,,,,,,,,,,,,,,,,,,,,,,,,,,,,,,,,,,,,,,
,,,,,,,,2023-08-16_08h48.22.413,HF_wild_card,2022.2.4,MacIntel,59.99880002,5ca9106716aa84001725d880,64d2fd46c836a06233681665,64dc7f3ce8f6a3b22cc49387,,,,,,,decisionTrl,resources/DR.BMP,resources/DG.BMP,WildCard_Ex,-0.206045736,0.039283108,1,0,0,0.5653,optionLeft,5,5390,3,16,0,16,0,1,,,,,,,,,,,,,,,,,,,,,,,,,,,,,,,,,,,,,,,
,,,,,,,,2023-08-16_08h48.22.413,HF_wild_card,2022.2.4,MacIntel,59.99880002,5ca9106716aa84001725d880,64d2fd46c836a06233681665,64dc7f3ce8f6a3b22cc49387,,,,,,,ctch,resources/DB.BMP,resources/DP.BMP,Door2,0.216752794,-0.019131402,1,0,0,0.5467,optionRight,40,5430,3,17,0,17,0,1,,,,,,,,,,,,,,,,,,,,,,,,,,,,,,,,,,,,,,,
,,,,,,,,2023-08-16_08h48.22.413,HF_wild_card,2022.2.4,MacIntel,59.99880002,5ca9106716aa84001725d880,64d2fd46c836a06233681665,64dc7f3ce8f6a3b22cc49387,,,,,,,decisionTrl,resources/DP.BMP,resources/DG.BMP,Door2,-0.238290541,0.116717461,1,0,0,0.7814,optionLeft,40,5470,3,18,0,18,0,1,,,,,,,,,,,,,,,,,,,,,,,,,,,,,,,,,,,,,,,
,,,,,,,,2023-08-16_08h48.22.413,HF_wild_card,2022.2.4,MacIntel,59.99880002,5ca9106716aa84001725d880,64d2fd46c836a06233681665,64dc7f3ce8f6a3b22cc49387,,,,,,,decisionTrl,resources/DG.BMP,resources/DP.BMP,Door2,0.194501139,0.018671129,1,0,0,0.5812,optionRight,20,5490,3,19,0,19,0,1,,,,,,,,,,,,,,,,,,,,,,,,,,,,,,,,,,,,,,,
,,,,,,,,2023-08-16_08h48.22.413,HF_wild_card,2022.2.4,MacIntel,59.99880002,5ca9106716aa84001725d880,64d2fd46c836a06233681665,64dc7f3ce8f6a3b22cc49387,,,,,,,decisionTrl,resources/DR.BMP,resources/DP.BMP,WildCard_Ex,-0.194626804,0.042111172,1,0,0,0.5302,optionLeft,5,5495,3,20,0,20,0,1,,,,,,,,,,,,,,,,,,,,,,,,,,,,,,,,,,,,,,,
,,,,,,,,2023-08-16_08h48.22.413,HF_wild_card,2022.2.4,MacIntel,59.99880002,5ca9106716aa84001725d880,64d2fd46c836a06233681665,64dc7f3ce8f6a3b22cc49387,,,,,,,decisionTrl,resources/DG.BMP,resources/DP.BMP,Door1,-0.149233534,0.092960646,1,0,0,0.6458,optionLeft,30,5525,3,21,0,21,0,1,,,,,,,,,,,,,,,,,,,,,,,,,,,,,,,,,,,,,,,
,,,,,,,,2023-08-16_08h48.22.413,HF_wild_card,2022.2.4,MacIntel,59.99880002,5ca9106716aa84001725d880,64d2fd46c836a06233681665,64dc7f3ce8f6a3b22cc49387,,,,,,,decisionTrl,resources/DB.BMP,resources/DY.BMP,Door4,0.227916328,-0.015377096,1,0,0,0.4965,optionRight,60,5585,3,22,0,22,0,1,,,,,,,,,,,,,,,,,,,,,,,,,,,,,,,,,,,,,,,
,,,,,,,,2023-08-16_08h48.22.413,HF_wild_card,2022.2.4,MacIntel,59.99880002,5ca9106716aa84001725d880,64d2fd46c836a06233681665,64dc7f3ce8f6a3b22cc49387,,,,,,,decisionTrl,resources/DB.BMP,resources/DY.BMP,Door4,0.155870429,-0.014034831,1,0,0,0.88,optionRight,60,5645,3,23,0,23,0,1,,,,,,,,,,,,,,,,,,,,,,,,,,,,,,,,,,,,,,,
,,,,,,,,2023-08-16_08h48.22.413,HF_wild_card,2022.2.4,MacIntel,59.99880002,5ca9106716aa84001725d880,64d2fd46c836a06233681665,64dc7f3ce8f6a3b22cc49387,,,,,,,ctch,resources/DG.BMP,resources/DY.BMP,Door1,-0.284491374,0.136637234,1,0,0,0.9082,optionLeft,30,5675,3,24,0,24,0,1,,,,,,,,,,,,,,,,,,,,,,,,,,,,,,,,,,,,,,,
,,,,,,,,2023-08-16_08h48.22.413,HF_wild_card,2022.2.4,MacIntel,59.99880002,5ca9106716aa84001725d880,64d2fd46c836a06233681665,64dc7f3ce8f6a3b22cc49387,,,,,,,decisionTrl,resources/DY.BMP,resources/DB.BMP,Door4,-0.210910102,0.079053616,1,0,0,0.7959,optionLeft,80,5755,3,25,0,25,0,1,,,,,,,,,,,,,,,,,,,,,,,,,,,,,,,,,,,,,,,
,,,,,,,,2023-08-16_08h48.22.413,HF_wild_card,2022.2.4,MacIntel,59.99880002,5ca9106716aa84001725d880,64d2fd46c836a06233681665,64dc7f3ce8f6a3b22cc49387,,,,,,,ctch,resources/DG.BMP,resources/DY.BMP,Door4,0.16801378,-0.0059375,1,0,0,0.6146,optionRight,80,5835,3,26,0,26,0,1,,,,,,,,,,,,,,,,,,,,,,,,,,,,,,,,,,,,,,,
,,,,,,,,2023-08-16_08h48.22.413,HF_wild_card,2022.2.4,MacIntel,59.99880002,5ca9106716aa84001725d880,64d2fd46c836a06233681665,64dc7f3ce8f6a3b22cc49387,,,,,,,sngl,resources/Empty.png,resources/DR.BMP,WildCard_Ex,0.231330973,-0.021649373,1,0,0,0.6479,optionRight,5,5840,3,27,0,27,0,1,,,,,,,,,,,,,,,,,,,,,,,,,,,,,,,,,,,,,,,
,,,,,,,,2023-08-16_08h48.22.413,HF_wild_card,2022.2.4,MacIntel,59.99880002,5ca9106716aa84001725d880,64d2fd46c836a06233681665,64dc7f3ce8f6a3b22cc49387,,,,,,,decisionTrl,resources/DG.BMP,resources/DP.BMP,Door1,-0.261552972,0.056364882,1,0,0,0.5906,optionLeft,30,5870,3,28,0,28,0,1,,,,,,,,,,,,,,,,,,,,,,,,,,,,,,,,,,,,,,,
,,,,,,,,2023-08-16_08h48.22.413,HF_wild_card,2022.2.4,MacIntel,59.99880002,5ca9106716aa84001725d880,64d2fd46c836a06233681665,64dc7f3ce8f6a3b22cc49387,,,,,,,ctch,resources/DY.BMP,resources/DG.BMP,Door4,-0.145976427,0.075128445,1,0,0,1.0105,optionLeft,60,5930,3,29,0,29,0,1,,,,,,,,,,,,,,,,,,,,,,,,,,,,,,,,,,,,,,,
,,,,,,,,2023-08-16_08h48.22.413,HF_wild_card,2022.2.4,MacIntel,59.99880002,5ca9106716aa84001725d880,64d2fd46c836a06233681665,64dc7f3ce8f6a3b22cc49387,,,,,,,decisionTrl,resources/DP.BMP,resources/DR.BMP,WildCard_Ex,0.198770888,-0.019829983,1,0,0,0.5571,optionRight,5,5935,3,30,0,30,0,1,,,,,,,,,,,,,,,,,,,,,,,,,,,,,,,,,,,,,,,
,,,,,,,,2023-08-16_08h48.22.413,HF_wild_card,2022.2.4,MacIntel,59.99880002,5ca9106716aa84001725d880,64d2fd46c836a06233681665,64dc7f3ce8f6a3b22cc49387,,,,,,,sngl,resources/DB.BMP,resources/Empty.png,Door3,-0.267227817,0.020244141,1,0,0,0.4988,optionLeft,70,6005,3,31,0,31,0,1,,,,,,,,,,,,,,,,,,,,,,,,,,,,,,,,,,,,,,,
,,,,,,,,2023-08-16_08h48.22.413,HF_wild_card,2022.2.4,MacIntel,59.99880002,5ca9106716aa84001725d880,64d2fd46c836a06233681665,64dc7f3ce8f6a3b22cc49387,,,,,,,sngl,resources/Empty.png,resources/DP.BMP,Door2,0.144213053,-0.043611993,1,0,0,0.5956,optionRight,20,6025,3,32,0,32,0,1,,,,,,,,,,,,,,,,,,,,,,,,,,,,,,,,,,,,,,,
,,,,,,,,2023-08-16_08h48.22.413,HF_wild_card,2022.2.4,MacIntel,59.99880002,5ca9106716aa84001725d880,64d2fd46c836a06233681665,64dc7f3ce8f6a3b22cc49387,,,,,,,sngl,resources/Empty.png,resources/DY.BMP,Door4,0.25316664,-0.073246257,1,0,0,0.548,optionRight,60,6085,3,33,0,33,0,1,,,,,,,,,,,,,,,,,,,,,,,,,,,,,,,,,,,,,,,
,,,,,,,,2023-08-16_08h48.22.413,HF_wild_card,2022.2.4,MacIntel,59.99880002,5ca9106716aa84001725d880,64d2fd46c836a06233681665,64dc7f3ce8f6a3b22cc49387,,,,,,,sngl,resources/DP.BMP,resources/Empty.png,Door2,-0.21281094,0.030743951,1,0,0,0.6661,optionLeft,40,6125,3,34,0,34,0,1,,,,,,,,,,,,,,,,,,,,,,,,,,,,,,,,,,,,,,,
,,,,,,,,2023-08-16_08h48.22.413,HF_wild_card,2022.2.4,MacIntel,59.99880002,5ca9106716aa84001725d880,64d2fd46c836a06233681665,64dc7f3ce8f6a3b22cc49387,,,,,,,decisionTrl,resources/DB.BMP,resources/DY.BMP,Door4,0.270174289,-0.04316569,1,0,0,0.5308,optionRight,60,6185,3,35,0,35,0,1,,,,,,,,,,,,,,,,,,,,,,,,,,,,,,,,,,,,,,,
,,,,,,,,2023-08-16_08h48.22.413,HF_wild_card,2022.2.4,MacIntel,59.99880002,5ca9106716aa84001725d880,64d2fd46c836a06233681665,64dc7f3ce8f6a3b22cc49387,,,,,,,sngl,resources/Empty.png,resources/DB.BMP,Door3,0.164972805,-0.001752319,1,0,0,0.5625,optionRight,70,6255,3,36,0,36,0,1,,,,,,,,,,,,,,,,,,,,,,,,,,,,,,,,,,,,,,,
,,,,,,,,2023-08-16_08h48.22.413,HF_wild_card,2022.2.4,MacIntel,59.99880002,5ca9106716aa84001725d880,64d2fd46c836a06233681665,64dc7f3ce8f6a3b22cc49387,,,,,,,decisionTrl,resources/DY.BMP,resources/DB.BMP,Door4,-0.202419027,-0.0081132,1,0,0,0.5137,optionLeft,80,6335,3,37,0,37,0,1,,,,,,,,,,,,,,,,,,,,,,,,,,,,,,,,,,,,,,,
,,,,,,,,2023-08-16_08h48.22.413,HF_wild_card,2022.2.4,MacIntel,59.99880002,5ca9106716aa84001725d880,64d2fd46c836a06233681665,64dc7f3ce8f6a3b22cc49387,,,,,,,sngl,resources/DR.BMP,resources/Empty.png,WildCard_Ex,-0.112337036,0.040354411,1,0,0,0.7482,optionLeft,95,6430,3,38,0,38,0,1,,,,,,,,,,,,,,,,,,,,,,,,,,,,,,,,,,,,,,,
,,,,,,,,2023-08-16_08h48.22.413,HF_wild_card,2022.2.4,MacIntel,59.99880002,5ca9106716aa84001725d880,64d2fd46c836a06233681665,64dc7f3ce8f6a3b22cc49387,,,,,,,sngl,resources/Empty.png,resources/DG.BMP,Door1,0.228516168,-0.090585598,1,0,0,0.4434,optionRight,30,6460,3,39,0,39,0,1,,,,,,,,,,,,,,,,,,,,,,,,,,,,,,,,,,,,,,,
,,,,,,,,2023-08-16_08h48.22.413,HF_wild_card,2022.2.4,MacIntel,59.99880002,5ca9106716aa84001725d880,64d2fd46c836a06233681665,64dc7f3ce8f6a3b22cc49387,,,,,,,sngl,resources/DY.BMP,resources/Empty.png,Door4,-0.234453668,0.048537733,1,0,0,0.4785,optionLeft,80,6540,3,40,0,40,0,1,,,,,,,,,,,,,,,,,,,,,,,,,,,,,,,,,,,,,,,
,,,,,,,,2023-08-16_08h48.22.413,HF_wild_card,2022.2.4,MacIntel,59.99880002,5ca9106716aa84001725d880,64d2fd46c836a06233681665,64dc7f3ce8f6a3b22cc49387,,,,,,,decisionTrl,resources/DR.BMP,resources/DB.BMP,WildCard_Ex,-0.160494453,0.029633247,1,0,0,0.6803,optionLeft,95,6635,3,41,0,41,0,1,,,,,,,,,,,,,,,,,,,,,,,,,,,,,,,,,,,,,,,
,,,,,,,,2023-08-16_08h48.22.413,HF_wild_card,2022.2.4,MacIntel,59.99880002,5ca9106716aa84001725d880,64d2fd46c836a06233681665,64dc7f3ce8f6a3b22cc49387,,,,,,,sngl,resources/Empty.png,resources/DR.BMP,WildCard_Ex,0.16848348,-0.019555257,1,0,0,0.6464,optionRight,95,6730,3,42,0,42,0,1,,,,,,,,,,,,,,,,,,,,,,,,,,,,,,,,,,,,,,,
,,,,,,,,2023-08-16_08h48.22.413,HF_wild_card,2022.2.4,MacIntel,59.99880002,5ca9106716aa84001725d880,64d2fd46c836a06233681665,64dc7f3ce8f6a3b22cc49387,,,,,,,decisionTrl,resources/DB.BMP,resources/DR.BMP,WildCard_Ex,0.228549669,-0.085062391,1,0,0,0.5172,optionRight,95,6825,3,43,0,43,0,1,,,,,,,,,,,,,,,,,,,,,,,,,,,,,,,,,,,,,,,
,,,,,,,,2023-08-16_08h48.22.413,HF_wild_card,2022.2.4,MacIntel,59.99880002,5ca9106716aa84001725d880,64d2fd46c836a06233681665,64dc7f3ce8f6a3b22cc49387,,,,,,,,,,,,,,,,,,,,,,,,,,2,0,2,0,1,,,,,,,,,,,,,,,,,,,,,,,,,,,,,,,,,,
,,,,,,,,2023-08-16_08h48.22.413,HF_wild_card,2022.2.4,MacIntel,59.99880002,5ca9106716aa84001725d880,64d2fd46c836a06233681665,64dc7f3ce8f6a3b22cc49387,,,,,,,decisionTrl,resources/DP.BMP,resources/DBN.BMP,WildCard_NonEx,0.348814833,-0.171360338,1,0,0,1.2145,optionRight,55,6880,4,0,0,0,0,1,,,,,,,,,,,,,,,,,,,,,,,,,,,,,,,,,,,,,,,
,,,,,,,,2023-08-16_08h48.22.413,HF_wild_card,2022.2.4,MacIntel,59.99880002,5ca9106716aa84001725d880,64d2fd46c836a06233681665,64dc7f3ce8f6a3b22cc49387,,,,,,,ctch,resources/DY.BMP,resources/DG.BMP,Door4,-0.224222887,-0.008175151,1,0,0,0.5765,optionLeft,60,6940,4,1,0,1,0,1,,,,,,,,,,,,,,,,,,,,,,,,,,,,,,,,,,,,,,,
,,,,,,,,2023-08-16_08h48.22.413,HF_wild_card,2022.2.4,MacIntel,59.99880002,5ca9106716aa84001725d880,64d2fd46c836a06233681665,64dc7f3ce8f6a3b22cc49387,,,,,,,sngl,resources/Empty.png,resources/DP.BMP,Door2,0.171349691,-0.065608114,1,0,0,0.5809,optionRight,40,6980,4,2,0,2,0,1,,,,,,,,,,,,,,,,,,,,,,,,,,,,,,,,,,,,,,,
,,,,,,,,2023-08-16_08h48.22.413,HF_wild_card,2022.2.4,MacIntel,59.99880002,5ca9106716aa84001725d880,64d2fd46c836a06233681665,64dc7f3ce8f6a3b22cc49387,,,,,,,decisionTrl,resources/DP.BMP,resources/DG.BMP,Door2,-0.157079129,0.004476454,1,0,0,0.4627,optionLeft,40,7020,4,3,0,3,0,1,,,,,,,,,,,,,,,,,,,,,,,,,,,,,,,,,,,,,,,
,,,,,,,,2023-08-16_08h48.22.413,HF_wild_card,2022.2.4,MacIntel,59.99880002,5ca9106716aa84001725d880,64d2fd46c836a06233681665,64dc7f3ce8f6a3b22cc49387,,,,,,,decisionTrl,resources/DBN.BMP,resources/DG.BMP,WildCard_NonEx,-0.276552938,0.115122477,1,0,0,0.7467,optionLeft,45,7065,4,4,0,4,0,1,,,,,,,,,,,,,,,,,,,,,,,,,,,,,,,,,,,,,,,
,,,,,,,,2023-08-16_08h48.22.413,HF_wild_card,2022.2.4,MacIntel,59.99880002,5ca9106716aa84001725d880,64d2fd46c836a06233681665,64dc7f3ce8f6a3b22cc49387,,,,,,,sngl,resources/Empty.png,resources/DBN.BMP,WildCard_NonEx,0.164438748,-0.031413201,1,0,0,0.4804,optionRight,55,7120,4,5,0,5,0,1,,,,,,,,,,,,,,,,,,,,,,,,,,,,,,,,,,,,,,,
,,,,,,,,2023-08-16_08h48.22.413,HF_wild_card,2022.2.4,MacIntel,59.99880002,5ca9106716aa84001725d880,64d2fd46c836a06233681665,64dc7f3ce8f6a3b22cc49387,,,,,,,decisionTrl,resources/DY.BMP,resources/DB.BMP,Door4,-0.171830648,0.058630439,1,0,0,0.5144,optionLeft,80,7200,4,6,0,6,0,1,,,,,,,,,,,,,,,,,,,,,,,,,,,,,,,,,,,,,,,
,,,,,,,,2023-08-16_08h48.22.413,HF_wild_card,2022.2.4,MacIntel,59.99880002,5ca9106716aa84001725d880,64d2fd46c836a06233681665,64dc7f3ce8f6a3b22cc49387,,,,,,,sngl,resources/Empty.png,resources/DB.BMP,Door3,0.119958564,-0.02709259,1,0,0,0.7655,optionRight,70,7270,4,7,0,7,0,1,,,,,,,,,,,,,,,,,,,,,,,,,,,,,,,,,,,,,,,
,,,,,,,,2023-08-16_08h48.22.413,HF_wild_card,2022.2.4,MacIntel,59.99880002,5ca9106716aa84001725d880,64d2fd46c836a06233681665,64dc7f3ce8f6a3b22cc49387,,,,,,,ctch,resources/DG.BMP,resources/DY.BMP,Door4,0.166205919,-0.011975233,1,0,0,0.5813,optionRight,80,7350,4,8,0,8,0,1,,,,,,,,,,,,,,,,,,,,,,,,,,,,,,,,,,,,,,,
,,,,,,,,2023-08-16_08h48.22.413,HF_wild_card,2022.2.4,MacIntel,59.99880002,5ca9106716aa84001725d880,64d2fd46c836a06233681665,64dc7f3ce8f6a3b22cc49387,,,,,,,decisionTrl,resources/DG.BMP,resources/DP.BMP,Door1,-0.097488539,0.07528361,1,0,0,1.046,optionLeft,30,7380,4,9,0,9,0,1,,,,,,,,,,,,,,,,,,,,,,,,,,,,,,,,,,,,,,,
,,,,,,,,2023-08-16_08h48.22.413,HF_wild_card,2022.2.4,MacIntel,59.99880002,5ca9106716aa84001725d880,64d2fd46c836a06233681665,64dc7f3ce8f6a3b22cc49387,,,,,,,sngl,resources/DBN.BMP,resources/Empty.png,WildCard_NonEx,-0.203996853,0.09494907,1,0,0,0.58,optionLeft,55,7435,4,10,0,10,0,1,,,,,,,,,,,,,,,,,,,,,,,,,,,,,,,,,,,,,,,
,,,,,,,,2023-08-16_08h48.22.413,HF_wild_card,2022.2.4,MacIntel,59.99880002,5ca9106716aa84001725d880,64d2fd46c836a06233681665,64dc7f3ce8f6a3b22cc49387,,,,,,,decisionTrl,resources/DB.BMP,resources/DY.BMP,Door4,0.153993123,-0.044904039,1,0,0,0.5487,optionRight,80,7515,4,11,0,11,0,1,,,,,,,,,,,,,,,,,,,,,,,,,,,,,,,,,,,,,,,
,,,,,,,,2023-08-16_08h48.22.413,HF_wild_card,2022.2.4,MacIntel,59.99880002,5ca9106716aa84001725d880,64d2fd46c836a06233681665,64dc7f3ce8f6a3b22cc49387,,,,,,,ctch,resources/DP.BMP,resources/DB.BMP,Door2,-0.295615506,0.099214545,1,0,0,0.678,optionLeft,40,7555,4,12,0,12,0,1,,,,,,,,,,,,,,,,,,,,,,,,,,,,,,,,,,,,,,,
,,,,,,,,2023-08-16_08h48.22.413,HF_wild_card,2022.2.4,MacIntel,59.99880002,5ca9106716aa84001725d880,64d2fd46c836a06233681665,64dc7f3ce8f6a3b22cc49387,,,,,,,decisionTrl,resources/DBN.BMP,resources/DY.BMP,Door4,0.411884359,0.014304606,1,0,0,0.8425,optionRight,80,7635,4,13,0,13,0,1,,,,,,,,,,,,,,,,,,,,,,,,,,,,,,,,,,,,,,,
,,,,,,,,2023-08-16_08h48.22.413,HF_wild_card,2022.2.4,MacIntel,59.99880002,5ca9106716aa84001725d880,64d2fd46c836a06233681665,64dc7f3ce8f6a3b22cc49387,,,,,,,decisionTrl,resources/DY.BMP,resources/DB.BMP,Door4,-0.20630249,0.023821682,1,0,0,0.4832,optionLeft,60,7695,4,14,0,14,0,1,,,,,,,,,,,,,,,,,,,,,,,,,,,,,,,,,,,,,,,
,,,,,,,,2023-08-16_08h48.22.413,HF_wild_card,2022.2.4,MacIntel,59.99880002,5ca9106716aa84001725d880,64d2fd46c836a06233681665,64dc7f3ce8f6a3b22cc49387,,,,,,,decisionTrl,resources/DB.BMP,resources/DY.BMP,Door4,0.117109172,-0.059745212,1,0,0,0.5561,optionRight,60,7755,4,15,0,15,0,1,,,,,,,,,,,,,,,,,,,,,,,,,,,,,,,,,,,,,,,
,,,,,,,,2023-08-16_08h48.22.413,HF_wild_card,2022.2.4,MacIntel,59.99880002,5ca9106716aa84001725d880,64d2fd46c836a06233681665,64dc7f3ce8f6a3b22cc49387,,,,,,,decisionTrl,resources/DP.BMP,resources/DG.BMP,Door2,-0.24639974,0.074178128,1,0,0,0.732,optionLeft,20,7775,4,16,0,16,0,1,,,,,,,,,,,,,,,,,,,,,,,,,,,,,,,,,,,,,,,
,,,,,,,,2023-08-16_08h48.22.413,HF_wild_card,2022.2.4,MacIntel,59.99880002,5ca9106716aa84001725d880,64d2fd46c836a06233681665,64dc7f3ce8f6a3b22cc49387,,,,,,,ctch,resources/DB.BMP,resources/DP.BMP,Door2,0.154757962,-0.05345832,1,0,0,0.8591,optionRight,20,7795,4,17,0,17,0,1,,,,,,,,,,,,,,,,,,,,,,,,,,,,,,,,,,,,,,,
,,,,,,,,2023-08-16_08h48.22.413,HF_wild_card,2022.2.4,MacIntel,59.99880002,5ca9106716aa84001725d880,64d2fd46c836a06233681665,64dc7f3ce8f6a3b22cc49387,,,,,,,ctch,resources/DB.BMP,resources/DP.BMP,Door3,-0.225903388,0.057143623,1,0,0,0.5376,optionLeft,70,7865,4,18,0,18,0,1,,,,,,,,,,,,,,,,,,,,,,,,,,,,,,,,,,,,,,,
,,,,,,,,2023-08-16_08h48.22.413,HF_wild_card,2022.2.4,MacIntel,59.99880002,5ca9106716aa84001725d880,64d2fd46c836a06233681665,64dc7f3ce8f6a3b22cc49387,,,,,,,decisionTrl,resources/DB.BMP,resources/DBN.BMP,Door3,-0.152402072,0.0171462,1,0,0,0.5762,optionLeft,70,7935,4,19,0,19,0,1,,,,,,,,,,,,,,,,,,,,,,,,,,,,,,,,,,,,,,,
,,,,,,,,2023-08-16_08h48.22.413,HF_wild_card,2022.2.4,MacIntel,59.99880002,5ca9106716aa84001725d880,64d2fd46c836a06233681665,64dc7f3ce8f6a3b22cc49387,,,,,,,ctch,resources/DY.BMP,resources/DG.BMP,Door4,-0.242004327,0.04316881,1,0,0,0.6794,optionLeft,60,7995,4,20,0,20,0,1,,,,,,,,,,,,,,,,,,,,,,,,,,,,,,,,,,,,,,,
,,,,,,,,2023-08-16_08h48.22.413,HF_wild_card,2022.2.4,MacIntel,59.99880002,5ca9106716aa84001725d880,64d2fd46c836a06233681665,64dc7f3ce8f6a3b22cc49387,,,,,,,sngl,resources/DP.BMP,resources/Empty.png,Door2,-0.155509101,0.060271471,1,0,0,0.7443,optionLeft,20,8015,4,21,0,21,0,1,,,,,,,,,,,,,,,,,,,,,,,,,,,,,,,,,,,,,,,
,,,,,,,,2023-08-16_08h48.22.413,HF_wild_card,2022.2.4,MacIntel,59.99880002,5ca9106716aa84001725d880,64d2fd46c836a06233681665,64dc7f3ce8f6a3b22cc49387,,,,,,,decisionTrl,resources/DG.BMP,resources/DP.BMP,Door2,0.198966539,-0.048767395,1,0,0,0.7465,optionRight,40,8055,4,22,0,22,0,1,,,,,,,,,,,,,,,,,,,,,,,,,,,,,,,,,,,,,,,
,,,,,,,,2023-08-16_08h48.22.413,HF_wild_card,2022.2.4,MacIntel,59.99880002,5ca9106716aa84001725d880,64d2fd46c836a06233681665,64dc7f3ce8f6a3b22cc49387,,,,,,,sngl,resources/DG.BMP,resources/Empty.png,Door1,-0.239454956,0.044297384,1,0,0,0.497,optionLeft,30,8085,4,23,0,23,0,1,,,,,,,,,,,,,,,,,,,,,,,,,,,,,,,,,,,,,,,
,,,,,,,,2023-08-16_08h48.22.413,HF_wild_card,2022.2.4,MacIntel,59.99880002,5ca9106716aa84001725d880,64d2fd46c836a06233681665,64dc7f3ce8f6a3b22cc49387,,,,,,,sngl,resources/Empty.png,resources/DG.BMP,Door1,0.200797119,-0.003676012,1,0,0,0.4133,optionRight,30,8115,4,24,0,24,0,1,,,,,,,,,,,,,,,,,,,,,,,,,,,,,,,,,,,,,,,
,,,,,,,,2023-08-16_08h48.22.413,HF_wild_card,2022.2.4,MacIntel,59.99880002,5ca9106716aa84001725d880,64d2fd46c836a06233681665,64dc7f3ce8f6a3b22cc49387,,,,,,,sngl,resources/DB.BMP,resources/Empty.png,Door3,-0.230178087,0.018327569,1,0,0,0.5122,optionLeft,70,8185,4,25,0,25,0,1,,,,,,,,,,,,,,,,,,,,,,,,,,,,,,,,,,,,,,,
,,,,,,,,2023-08-16_08h48.22.413,HF_wild_card,2022.2.4,MacIntel,59.99880002,5ca9106716aa84001725d880,64d2fd46c836a06233681665,64dc7f3ce8f6a3b22cc49387,,,,,,,decisionTrl,resources/DG.BMP,resources/DP.BMP,Door2,0.202362874,-0.020470751,1,0,0,0.5125,optionRight,40,8225,4,26,0,26,0,1,,,,,,,,,,,,,,,,,,,,,,,,,,,,,,,,,,,,,,,
,,,,,,,,2023-08-16_08h48.22.413,HF_wild_card,2022.2.4,MacIntel,59.99880002,5ca9106716aa84001725d880,64d2fd46c836a06233681665,64dc7f3ce8f6a3b22cc49387,,,,,,,sngl,resources/Empty.png,resources/DBN.BMP,WildCard_NonEx,0.143558417,-0.030915324,1,0,0,0.56,optionRight,45,8270,4,27,0,27,0,1,,,,,,,,,,,,,,,,,,,,,,,,,,,,,,,,,,,,,,,
,,,,,,,,2023-08-16_08h48.22.413,HF_wild_card,2022.2.4,MacIntel,59.99880002,5ca9106716aa84001725d880,64d2fd46c836a06233681665,64dc7f3ce8f6a3b22cc49387,,,,,,,ctch,resources/DG.BMP,resources/DY.BMP,Door4,0.13967787,-0.038626438,1,0,0,2.4621,optionRight,60,8330,4,28,0,28,0,1,,,,,,,,,,,,,,,,,,,,,,,,,,,,,,,,,,,,,,,
,,,,,,,,2023-08-16_08h48.22.413,HF_wild_card,2022.2.4,MacIntel,59.99880002,5ca9106716aa84001725d880,64d2fd46c836a06233681665,64dc7f3ce8f6a3b22cc49387,,,,,,,sngl,resources/Empty.png,resources/DY.BMP,Door4,0.143816189,-0.027466498,1,0,0,0.5645,optionRight,80,8410,4,29,0,29,0,1,,,,,,,,,,,,,,,,,,,,,,,,,,,,,,,,,,,,,,,
,,,,,,,,2023-08-16_08h48.22.413,HF_wild_card,2022.2.4,MacIntel,59.99880002,5ca9106716aa84001725d880,64d2fd46c836a06233681665,64dc7f3ce8f6a3b22cc49387,,,,,,,decisionTrl,resources/DB.BMP,resources/DY.BMP,Door4,0.18585734,-0.039401991,1,0,0,0.5483,optionRight,80,8490,4,30,0,30,0,1,,,,,,,,,,,,,,,,,,,,,,,,,,,,,,,,,,,,,,,
,,,,,,,,2023-08-16_08h48.22.413,HF_wild_card,2022.2.4,MacIntel,59.99880002,5ca9106716aa84001725d880,64d2fd46c836a06233681665,64dc7f3ce8f6a3b22cc49387,,,,,,,ctch,resources/DP.BMP,resources/DB.BMP,Door2,-0.131630249,0.02933943,1,0,0,0.9976,optionLeft,40,8530,4,31,0,31,0,1,,,,,,,,,,,,,,,,,,,,,,,,,,,,,,,,,,,,,,,
,,,,,,,,2023-08-16_08h48.22.413,HF_wild_card,2022.2.4,MacIntel,59.99880002,5ca9106716aa84001725d880,64d2fd46c836a06233681665,64dc7f3ce8f6a3b22cc49387,,,,,,,decisionTrl,resources/DY.BMP,resources/DB.BMP,Door3,0.224746975,-0.040283949,1,0,0,0.4439,optionRight,70,8600,4,32,0,32,0,1,,,,,,,,,,,,,,,,,,,,,,,,,,,,,,,,,,,,,,,
,,,,,,,,2023-08-16_08h48.22.413,HF_wild_card,2022.2.4,MacIntel,59.99880002,5ca9106716aa84001725d880,64d2fd46c836a06233681665,64dc7f3ce8f6a3b22cc49387,,,,,,,sngl,resources/DY.BMP,resources/Empty.png,Door4,-0.220965101,0.051863607,1,0,0,0.5815,optionLeft,60,8660,4,33,0,33,0,1,,,,,,,,,,,,,,,,,,,,,,,,,,,,,,,,,,,,,,,
,,,,,,,,2023-08-16_08h48.22.413,HF_wild_card,2022.2.4,MacIntel,59.99880002,5ca9106716aa84001725d880,64d2fd46c836a06233681665,64dc7f3ce8f6a3b22cc49387,,,,,,,decisionTrl,resources/DB.BMP,resources/DY.BMP,Door4,0.149447361,-0.016794705,1,0,0,0.6468,optionRight,80,8740,4,34,0,34,0,1,,,,,,,,,,,,,,,,,,,,,,,,,,,,,,,,,,,,,,,
,,,,,,,,2023-08-16_08h48.22.413,HF_wild_card,2022.2.4,MacIntel,59.99880002,5ca9106716aa84001725d880,64d2fd46c836a06233681665,64dc7f3ce8f6a3b22cc49387,,,,,,,decisionTrl,resources/DG.BMP,resources/DBN.BMP,Door1,-0.232097846,0.034828762,1,0,0,0.5511,optionLeft,30,8770,4,35,0,35,0,1,,,,,,,,,,,,,,,,,,,,,,,,,,,,,,,,,,,,,,,
,,,,,,,,2023-08-16_08h48.22.413,HF_wild_card,2022.2.4,MacIntel,59.99880002,5ca9106716aa84001725d880,64d2fd46c836a06233681665,64dc7f3ce8f6a3b22cc49387,,,,,,,decisionTrl,resources/DBN.BMP,resources/DP.BMP,WildCard_NonEx,-0.169490424,0.071936205,1,0,0,0.5838,optionLeft,55,8825,4,36,0,36,0,1,,,,,,,,,,,,,,,,,,,,,,,,,,,,,,,,,,,,,,,
,,,,,,,,2023-08-16_08h48.22.413,HF_wild_card,2022.2.4,MacIntel,59.99880002,5ca9106716aa84001725d880,64d2fd46c836a06233681665,64dc7f3ce8f6a3b22cc49387,,,,,,,decisionTrl,resources/DG.BMP,resources/DP.BMP,Door1,-0.287127753,0.130624695,1,0,0,0.7981,optionLeft,30,8855,4,37,0,37,0,1,,,,,,,,,,,,,,,,,,,,,,,,,,,,,,,,,,,,,,,
,,,,,,,,2023-08-16_08h48.22.413,HF_wild_card,2022.2.4,MacIntel,59.99880002,5ca9106716aa84001725d880,64d2fd46c836a06233681665,64dc7f3ce8f6a3b22cc49387,,,,,,,decisionTrl,resources/DY.BMP,resources/DBN.BMP,Door4,-0.132118666,0.021461792,1,0,0,0.8444,optionLeft,80,8935,4,38,0,38,0,1,,,,,,,,,,,,,,,,,,,,,,,,,,,,,,,,,,,,,,,
,,,,,,,,2023-08-16_08h48.22.413,HF_wild_card,2022.2.4,MacIntel,59.99880002,5ca9106716aa84001725d880,64d2fd46c836a06233681665,64dc7f3ce8f6a3b22cc49387,,,,,,,decisionTrl,resources/DP.BMP,resources/DG.BMP,Door1,0.189809163,-0.031975233,1,0,0,0.6639,optionRight,30,8965,4,39,0,39,0,1,,,,,,,,,,,,,,,,,,,,,,,,,,,,,,,,,,,,,,,
,,,,,,,,2023-08-16_08h48.22.413,HF_wild_card,2022.2.4,MacIntel,59.99880002,5ca9106716aa84001725d880,64d2fd46c836a06233681665,64dc7f3ce8f6a3b22cc49387,,,,,,,decisionTrl,resources/DP.BMP,resources/DG.BMP,Door2,-0.253161214,0.021268989,1,0,0,0.513,optionLeft,40,9005,4,40,0,40,0,1,,,,,,,,,,,,,,,,,,,,,,,,,,,,,,,,,,,,,,,
,,,,,,,,2023-08-16_08h48.22.413,HF_wild_card,2022.2.4,MacIntel,59.99880002,5ca9106716aa84001725d880,64d2fd46c836a06233681665,64dc7f3ce8f6a3b22cc49387,,,,,,,sngl,resources/DBN.BMP,resources/Empty.png,WildCard_NonEx,-0.158084106,0.002895677,1,0,0,0.5984,optionLeft,45,9050,4,41,0,41,0,1,,,,,,,,,,,,,,,,,,,,,,,,,,,,,,,,,,,,,,,
,,,,,,,,2023-08-16_08h48.22.413,HF_wild_card,2022.2.4,MacIntel,59.99880002,5ca9106716aa84001725d880,64d2fd46c836a06233681665,64dc7f3ce8f6a3b22cc49387,,,,,,,decisionTrl,resources/DBN.BMP,resources/DB.BMP,WildCard_NonEx,-0.219437527,0.06352261,1,0,0,0.582,optionLeft,45,9095,4,42,0,42,0,1,,,,,,,,,,,,,,,,,,,,,,,,,,,,,,,,,,,,,,,
,,,,,,,,2023-08-16_08h48.22.413,HF_wild_card,2022.2.4,MacIntel,59.99880002,5ca9106716aa84001725d880,64d2fd46c836a06233681665,64dc7f3ce8f6a3b22cc49387,,,,,,,decisionTrl,resources/DY.BMP,resources/DB.BMP,Door4,-0.203834568,0.028688897,1,0,0,0.5789,optionLeft,80,9175,4,43,0,43,0,1,,,,,,,,,,,,,,,,,,,,,,,,,,,,,,,,,,,,,,,
,,,,,,,,2023-08-16_08h48.22.413,HF_wild_card,2022.2.4,MacIntel,59.99880002,5ca9106716aa84001725d880,64d2fd46c836a06233681665,64dc7f3ce8f6a3b22cc49387,,,,,,,,,,,,,,,,,,,,,,,,,,3,0,3,0,1,,,,,,,,,,,,,,,,,,,,,,,,,,,,,,,,,,
,,,,,,,,2023-08-16_08h48.22.413,HF_wild_card,2022.2.4,MacIntel,59.99880002,5ca9106716aa84001725d880,64d2fd46c836a06233681665,64dc7f3ce8f6a3b22cc49387,,,,,,,sngl,resources/DY.BMP,resources/Empty.png,Door4,-0.25631802,-0.030406765,1,0,0,0.6528,optionLeft,80,9255,5,0,0,0,0,1,,,,,,,,,,,,,,,,,,,,,,,,,,,,,,,,,,,,,,,
,,,,,,,,2023-08-16_08h48.22.413,HF_wild_card,2022.2.4,MacIntel,59.99880002,5ca9106716aa84001725d880,64d2fd46c836a06233681665,64dc7f3ce8f6a3b22cc49387,,,,,,,decisionTrl,resources/DP.BMP,resources/DBN.BMP,Door2,-0.214145711,0.02111084,1,0,0,0.5627,optionLeft,40,9295,5,1,0,1,0,1,,,,,,,,,,,,,,,,,,,,,,,,,,,,,,,,,,,,,,,
,,,,,,,,2023-08-16_08h48.22.413,HF_wild_card,2022.2.4,MacIntel,59.99880002,5ca9106716aa84001725d880,64d2fd46c836a06233681665,64dc7f3ce8f6a3b22cc49387,,,,,,,decisionTrl,resources/DB.BMP,resources/DY.BMP,Door4,0.20483039,-0.024896647,1,0,0,0.747,optionRight,60,9355,5,2,0,2,0,1,,,,,,,,,,,,,,,,,,,,,,,,,,,,,,,,,,,,,,,
,,,,,,,,2023-08-16_08h48.22.413,HF_wild_card,2022.2.4,MacIntel,59.99880002,5ca9106716aa84001725d880,64d2fd46c836a06233681665,64dc7f3ce8f6a3b22cc49387,,,,,,,decisionTrl,resources/DG.BMP,resources/DP.BMP,Door2,0.208536648,-0.008854031,1,0,0,0.6084,optionRight,20,9375,5,3,0,3,0,1,,,,,,,,,,,,,,,,,,,,,,,,,,,,,,,,,,,,,,,
,,,,,,,,2023-08-16_08h48.22.413,HF_wild_card,2022.2.4,MacIntel,59.99880002,5ca9106716aa84001725d880,64d2fd46c836a06233681665,64dc7f3ce8f6a3b22cc49387,,,,,,,decisionTrl,resources/DY.BMP,resources/DB.BMP,Door4,-0.316810947,0.008426988,1,0,0,0.5626,optionLeft,80,9455,5,4,0,4,0,1,,,,,,,,,,,,,,,,,,,,,,,,,,,,,,,,,,,,,,,
,,,,,,,,2023-08-16_08h48.22.413,HF_wild_card,2022.2.4,MacIntel,59.99880002,5ca9106716aa84001725d880,64d2fd46c836a06233681665,64dc7f3ce8f6a3b22cc49387,,,,,,,sngl,resources/Empty.png,resources/DB.BMP,Door3,0.14085985,-0.064681803,1,0,0,0.5313,optionRight,70,9525,5,5,0,5,0,1,,,,,,,,,,,,,,,,,,,,,,,,,,,,,,,,,,,,,,,
,,,,,,,,2023-08-16_08h48.22.413,HF_wild_card,2022.2.4,MacIntel,59.99880002,5ca9106716aa84001725d880,64d2fd46c836a06233681665,64dc7f3ce8f6a3b22cc49387,,,,,,,decisionTrl,resources/DY.BMP,resources/DB.BMP,Door4,-0.291204359,0.035651855,1,0,0,0.4832,optionLeft,80,9605,5,6,0,6,0,1,,,,,,,,,,,,,,,,,,,,,,,,,,,,,,,,,,,,,,,
,,,,,,,,2023-08-16_08h48.22.413,HF_wild_card,2022.2.4,MacIntel,59.99880002,5ca9106716aa84001725d880,64d2fd46c836a06233681665,64dc7f3ce8f6a3b22cc49387,,,,,,,decisionTrl,resources/DP.BMP,resources/DG.BMP,Door1,0.208608263,-0.042330187,1,0,0,0.6285,optionRight,30,9635,5,7,0,7,0,1,,,,,,,,,,,,,,,,,,,,,,,,,,,,,,,,,,,,,,,
,,,,,,,,2023-08-16_08h48.22.413,HF_wild_card,2022.2.4,MacIntel,59.99880002,5ca9106716aa84001725d880,64d2fd46c836a06233681665,64dc7f3ce8f6a3b22cc49387,,,,,,,decisionTrl,resources/DP.BMP,resources/DG.BMP,Door2,-0.241347826,-0.002476671,1,0,0,0.4446,optionLeft,40,9675,5,8,0,8,0,1,,,,,,,,,,,,,,,,,,,,,,,,,,,,,,,,,,,,,,,
,,,,,,,,2023-08-16_08h48.22.413,HF_wild_card,2022.2.4,MacIntel,59.99880002,5ca9106716aa84001725d880,64d2fd46c836a06233681665,64dc7f3ce8f6a3b22cc49387,,,,,,,decisionTrl,resources/DY.BMP,resources/DB.BMP,Door4,-0.230474447,0.033854302,1,0,0,0.6622,optionLeft,80,9755,5,9,0,9,0,1,,,,,,,,,,,,,,,,,,,,,,,,,,,,,,,,,,,,,,,
,,,,,,,,2023-08-16_08h48.22.413,HF_wild_card,2022.2.4,MacIntel,59.99880002,5ca9106716aa84001725d880,64d2fd46c836a06233681665,64dc7f3ce8f6a3b22cc49387,,,,,,,sngl,resources/DP.BMP,resources/Empty.png,Door2,-0.19431444,0.027844306,1,0,0,0.5832,optionLeft,40,9795,5,10,0,10,0,1,,,,,,,,,,,,,,,,,,,,,,,,,,,,,,,,,,,,,,,
,,,,,,,,2023-08-16_08h48.22.413,HF_wild_card,2022.2.4,MacIntel,59.99880002,5ca9106716aa84001725d880,64d2fd46c836a06233681665,64dc7f3ce8f6a3b22cc49387,,,,,,,sngl,resources/DBN.BMP,resources/Empty.png,WildCard_NonEx,-0.142670288,0.043997803,1,0,0,1.2658,optionLeft,45,9840,5,11,0,11,0,1,,,,,,,,,,,,,,,,,,,,,,,,,,,,,,,,,,,,,,,
,,,,,,,,2023-08-16_08h48.22.413,HF_wild_card,2022.2.4,MacIntel,59.99880002,5ca9106716aa84001725d880,64d2fd46c836a06233681665,64dc7f3ce8f6a3b22cc49387,,,,,,,sngl,resources/Empty.png,resources/DG.BMP,Door1,0.167256944,-0.027183567,1,0,0,0.6995,optionRight,30,9870,5,12,0,12,0,1,,,,,,,,,,,,,,,,,,,,,,,,,,,,,,,,,,,,,,,
,,,,,,,,2023-08-16_08h48.22.413,HF_wild_card,2022.2.4,MacIntel,59.99880002,5ca9106716aa84001725d880,64d2fd46c836a06233681665,64dc7f3ce8f6a3b22cc49387,,,,,,,ctch,resources/DB.BMP,resources/DP.BMP,Door2,0.216112603,-0.070295817,1,0,0,0.8049,optionRight,40,9910,5,13,0,13,0,1,,,,,,,,,,,,,,,,,,,,,,,,,,,,,,,,,,,,,,,
,,,,,,,,2023-08-16_08h48.22.413,HF_wild_card,2022.2.4,MacIntel,59.99880002,5ca9106716aa84001725d880,64d2fd46c836a06233681665,64dc7f3ce8f6a3b22cc49387,,,,,,,ctch,resources/DP.BMP,resources/DB.BMP,Door2,-0.271270074,0.057738071,1,0,0,0.5289,optionLeft,40,9950,5,14,0,14,0,1,,,,,,,,,,,,,,,,,,,,,,,,,,,,,,,,,,,,,,,
,,,,,,,,2023-08-16_08h48.22.413,HF_wild_card,2022.2.4,MacIntel,59.99880002,5ca9106716aa84001725d880,64d2fd46c836a06233681665,64dc7f3ce8f6a3b22cc49387,,,,,,,ctch,resources/DB.BMP,resources/DP.BMP,Door2,0.159257338,-0.013012085,1,0,0,0.5483,optionRight,20,9970,5,15,0,15,0,1,,,,,,,,,,,,,,,,,,,,,,,,,,,,,,,,,,,,,,,
,,,,,,,,2023-08-16_08h48.22.413,HF_wild_card,2022.2.4,MacIntel,59.99880002,5ca9106716aa84001725d880,64d2fd46c836a06233681665,64dc7f3ce8f6a3b22cc49387,,,,,,,ctch,resources/DG.BMP,resources/DY.BMP,Door4,0.270008681,-0.018096585,1,0,0,0.8454,optionRight,80,10050,5,16,0,16,0,1,,,,,,,,,,,,,,,,,,,,,,,,,,,,,,,,,,,,,,,
,,,,,,,,2023-08-16_08h48.22.413,HF_wild_card,2022.2.4,MacIntel,59.99880002,5ca9106716aa84001725d880,64d2fd46c836a06233681665,64dc7f3ce8f6a3b22cc49387,,,,,,,sngl,resources/DB.BMP,resources/Empty.png,Door3,-0.202621189,0.078804253,1,0,0,0.6288,optionLeft,70,10120,5,17,0,17,0,1,,,,,,,,,,,,,,,,,,,,,,,,,,,,,,,,,,,,,,,
,,,,,,,,2023-08-16_08h48.22.413,HF_wild_card,2022.2.4,MacIntel,59.99880002,5ca9106716aa84001725d880,64d2fd46c836a06233681665,64dc7f3ce8f6a3b22cc49387,,,,,,,decisionTrl,resources/DB.BMP,resources/DY.BMP,Door4,0.249870673,-0.061819322,1,0,0,0.5632,optionRight,60,10180,5,18,0,18,0,1,,,,,,,,,,,,,,,,,,,,,,,,,,,,,,,,,,,,,,,
,,,,,,,,2023-08-16_08h48.22.413,HF_wild_card,2022.2.4,MacIntel,59.99880002,5ca9106716aa84001725d880,64d2fd46c836a06233681665,64dc7f3ce8f6a3b22cc49387,,,,,,,sngl,resources/DBN.BMP,resources/Empty.png,WildCard_NonEx,-0.281409607,0.165216878,1,0,0,0.6814,optionLeft,55,10235,5,19,0,19,0,1,,,,,,,,,,,,,,,,,,,,,,,,,,,,,,,,,,,,,,,
,,,,,,,,2023-08-16_08h48.22.413,HF_wild_card,2022.2.4,MacIntel,59.99880002,5ca9106716aa84001725d880,64d2fd46c836a06233681665,64dc7f3ce8f6a3b22cc49387,,,,,,,sngl,resources/Empty.png,resources/DY.BMP,Door4,0.220176188,-0.026694743,1,0,0,0.5428,optionRight,60,10295,5,20,0,20,0,1,,,,,,,,,,,,,,,,,,,,,,,,,,,,,,,,,,,,,,,
,,,,,,,,2023-08-16_08h48.22.413,HF_wild_card,2022.2.4,MacIntel,59.99880002,5ca9106716aa84001725d880,64d2fd46c836a06233681665,64dc7f3ce8f6a3b22cc49387,,,,,,,decisionTrl,resources/DY.BMP,resources/DBN.BMP,Door4,-0.174112278,0.019218547,1,0,0,0.6612,optionLeft,80,10375,5,21,0,21,0,1,,,,,,,,,,,,,,,,,,,,,,,,,,,,,,,,,,,,,,,
,,,,,,,,2023-08-16_08h48.22.413,HF_wild_card,2022.2.4,MacIntel,59.99880002,5ca9106716aa84001725d880,64d2fd46c836a06233681665,64dc7f3ce8f6a3b22cc49387,,,,,,,decisionTrl,resources/DP.BMP,resources/DG.BMP,Door1,0.196940782,-0.051058214,1,0,0,0.6272,optionRight,30,10405,5,22,0,22,0,1,,,,,,,,,,,,,,,,,,,,,,,,,,,,,,,,,,,,,,,
,,,,,,,,2023-08-16_08h48.22.413,HF_wild_card,2022.2.4,MacIntel,59.99880002,5ca9106716aa84001725d880,64d2fd46c836a06233681665,64dc7f3ce8f6a3b22cc49387,,,,,,,ctch,resources/DP.BMP,resources/DB.BMP,Door2,-0.172112969,-0.000540771,1,0,0,0.7601,optionLeft,40,10445,5,23,0,23,0,1,,,,,,,,,,,,,,,,,,,,,,,,,,,,,,,,,,,,,,,
,,,,,,,,2023-08-16_08h48.22.413,HF_wild_card,2022.2.4,MacIntel,59.99880002,5ca9106716aa84001725d880,64d2fd46c836a06233681665,64dc7f3ce8f6a3b22cc49387,,,,,,,decisionTrl,resources/DY.BMP,resources/DB.BMP,Door4,-0.129419895,-0.022789374,1,0,0,0.8316,optionLeft,60,10505,5,24,0,24,0,1,,,,,,,,,,,,,,,,,,,,,,,,,,,,,,,,,,,,,,,
,,,,,,,,2023-08-16_08h48.22.413,HF_wild_card,2022.2.4,MacIntel,59.99880002,5ca9106716aa84001725d880,64d2fd46c836a06233681665,64dc7f3ce8f6a3b22cc49387,,,,,,,ctch,resources/DG.BMP,resources/DY.BMP,Door4,0.230816243,-0.066213447,1,0,0,0.5442,optionRight,60,10565,5,25,0,25,0,1,,,,,,,,,,,,,,,,,,,,,,,,,,,,,,,,,,,,,,,
,,,,,,,,2023-08-16_08h48.22.413,HF_wild_card,2022.2.4,MacIntel,59.99880002,5ca9106716aa84001725d880,64d2fd46c836a06233681665,64dc7f3ce8f6a3b22cc49387,,,,,,,sngl,resources/Empty.png,resources/DP.BMP,Door2,0.185024278,-0.039696723,1,0,0,0.5456,optionRight,20,10585,5,26,0,26,0,1,,,,,,,,,,,,,,,,,,,,,,,,,,,,,,,,,,,,,,,
,,,,,,,,2023-08-16_08h48.22.413,HF_wild_card,2022.2.4,MacIntel,59.99880002,5ca9106716aa84001725d880,64d2fd46c836a06233681665,64dc7f3ce8f6a3b22cc49387,,,,,,,decisionTrl,resources/DB.BMP,resources/DY.BMP,Door4,0.168543972,-0.047864109,1,0,0,0.5821,optionRight,80,10665,5,27,0,27,0,1,,,,,,,,,,,,,,,,,,,,,,,,,,,,,,,,,,,,,,,
,,,,,,,,2023-08-16_08h48.22.413,HF_wild_card,2022.2.4,MacIntel,59.99880002,5ca9106716aa84001725d880,64d2fd46c836a06233681665,64dc7f3ce8f6a3b22cc49387,,,,,,,decisionTrl,resources/DG.BMP,resources/DP.BMP,Door2,0.135013902,-0.016662496,1,0,0,0.9963,optionRight,40,10705,5,28,0,28,0,1,,,,,,,,,,,,,,,,,,,,,,,,,,,,,,,,,,,,,,,
,,,,,,,,2023-08-16_08h48.22.413,HF_wild_card,2022.2.4,MacIntel,59.99880002,5ca9106716aa84001725d880,64d2fd46c836a06233681665,64dc7f3ce8f6a3b22cc49387,,,,,,,sngl,resources/DG.BMP,resources/Empty.png,Door1,-0.17833313,0.016687351,1,0,0,0.4524,optionLeft,30,10735,5,29,0,29,0,1,,,,,,,,,,,,,,,,,,,,,,,,,,,,,,,,,,,,,,,
,,,,,,,,2023-08-16_08h48.22.413,HF_wild_card,2022.2.4,MacIntel,59.99880002,5ca9106716aa84001725d880,64d2fd46c836a06233681665,64dc7f3ce8f6a3b22cc49387,,,,,,,decisionTrl,resources/DG.BMP,resources/DP.BMP,Door2,0.220697428,-0.051200426,1,0,0,0.4488,optionRight,40,10775,5,30,0,30,0,1,,,,,,,,,,,,,,,,,,,,,,,,,,,,,,,,,,,,,,,
,,,,,,,,2023-08-16_08h48.22.413,HF_wild_card,2022.2.4,MacIntel,59.99880002,5ca9106716aa84001725d880,64d2fd46c836a06233681665,64dc7f3ce8f6a3b22cc49387,,,,,,,ctch,resources/DY.BMP,resources/DG.BMP,Door4,-0.237085029,0.027433133,1,0,0,0.594,optionLeft,80,10855,5,31,0,31,0,1,,,,,,,,,,,,,,,,,,,,,,,,,,,,,,,,,,,,,,,
,,,,,,,,2023-08-16_08h48.22.413,HF_wild_card,2022.2.4,MacIntel,59.99880002,5ca9106716aa84001725d880,64d2fd46c836a06233681665,64dc7f3ce8f6a3b22cc49387,,,,,,,decisionTrl,resources/DG.BMP,resources/DBN.BMP,WildCard_NonEx,0.215215793,-0.034340413,1,0,0,0.8282,optionRight,45,10900,5,32,0,32,0,1,,,,,,,,,,,,,,,,,,,,,,,,,,,,,,,,,,,,,,,
,,,,,,,,2023-08-16_08h48.22.413,HF_wild_card,2022.2.4,MacIntel,59.99880002,5ca9106716aa84001725d880,64d2fd46c836a06233681665,64dc7f3ce8f6a3b22cc49387,,,,,,,decisionTrl,resources/DB.BMP,resources/DY.BMP,Door4,0.199276666,-0.049106784,1,0,0,0.6117,optionRight,60,10960,5,33,0,33,0,1,,,,,,,,,,,,,,,,,,,,,,,,,,,,,,,,,,,,,,,
,,,,,,,,2023-08-16_08h48.22.413,HF_wild_card,2022.2.4,MacIntel,59.99880002,5ca9106716aa84001725d880,64d2fd46c836a06233681665,64dc7f3ce8f6a3b22cc49387,,,,,,,ctch,resources/DY.BMP,resources/DG.BMP,Door4,-0.072758586,-0.008519287,1,0,0,0.5791,optionLeft,60,11020,5,34,0,34,0,1,,,,,,,,,,,,,,,,,,,,,,,,,,,,,,,,,,,,,,,
,,,,,,,,2023-08-16_08h48.22.413,HF_wild_card,2022.2.4,MacIntel,59.99880002,5ca9106716aa84001725d880,64d2fd46c836a06233681665,64dc7f3ce8f6a3b22cc49387,,,,,,,decisionTrl,resources/DBN.BMP,resources/DY.BMP,Door4,0.224474284,-0.090727403,1,0,0,0.4982,optionRight,60,11080,5,35,0,35,0,1,,,,,,,,,,,,,,,,,,,,,,,,,,,,,,,,,,,,,,,
,,,,,,,,2023-08-16_08h48.22.413,HF_wild_card,2022.2.4,MacIntel,59.99880002,5ca9106716aa84001725d880,64d2fd46c836a06233681665,64dc7f3ce8f6a3b22cc49387,,,,,,,decisionTrl,resources/DBN.BMP,resources/DG.BMP,Door1,0.212173123,-0.074689263,1,0,0,0.5993,optionRight,30,11110,5,36,0,36,0,1,,,,,,,,,,,,,,,,,,,,,,,,,,,,,,,,,,,,,,,
,,,,,,,,2023-08-16_08h48.22.413,HF_wild_card,2022.2.4,MacIntel,59.99880002,5ca9106716aa84001725d880,64d2fd46c836a06233681665,64dc7f3ce8f6a3b22cc49387,,,,,,,decisionTrl,resources/DBN.BMP,resources/DP.BMP,WildCard_NonEx,-0.218489312,-0.001106703,1,0,0,0.5635,optionLeft,55,11165,5,37,0,37,0,1,,,,,,,,,,,,,,,,,,,,,,,,,,,,,,,,,,,,,,,
,,,,,,,,2023-08-16_08h48.22.413,HF_wild_card,2022.2.4,MacIntel,59.99880002,5ca9106716aa84001725d880,64d2fd46c836a06233681665,64dc7f3ce8f6a3b22cc49387,,,,,,,decisionTrl,resources/DP.BMP,resources/DG.BMP,Door1,0.163380466,-0.098516032,1,0,0,0.6927,optionRight,30,11195,5,38,0,38,0,1,,,,,,,,,,,,,,,,,,,,,,,,,,,,,,,,,,,,,,,
,,,,,,,,2023-08-16_08h48.22.413,HF_wild_card,2022.2.4,MacIntel,59.99880002,5ca9106716aa84001725d880,64d2fd46c836a06233681665,64dc7f3ce8f6a3b22cc49387,,,,,,,decisionTrl,resources/DBN.BMP,resources/DB.BMP,WildCard_NonEx,-0.185910034,-0.019547323,1,0,0,0.8943,optionLeft,45,11240,5,39,0,39,0,1,,,,,,,,,,,,,,,,,,,,,,,,,,,,,,,,,,,,,,,
,,,,,,,,2023-08-16_08h48.22.413,HF_wild_card,2022.2.4,MacIntel,59.99880002,5ca9106716aa84001725d880,64d2fd46c836a06233681665,64dc7f3ce8f6a3b22cc49387,,,,,,,decisionTrl,resources/DB.BMP,resources/DBN.BMP,WildCard_NonEx,0.218547228,-0.071942139,1,0,0,0.7645,optionRight,55,11295,5,40,0,40,0,1,,,,,,,,,,,,,,,,,,,,,,,,,,,,,,,,,,,,,,,
,,,,,,,,2023-08-16_08h48.22.413,HF_wild_card,2022.2.4,MacIntel,59.99880002,5ca9106716aa84001725d880,64d2fd46c836a06233681665,64dc7f3ce8f6a3b22cc49387,,,,,,,sngl,resources/Empty.png,resources/DBN.BMP,WildCard_NonEx,0.241650119,-0.058027208,1,0,0,0.4965,optionRight,45,11340,5,41,0,41,0,1,,,,,,,,,,,,,,,,,,,,,,,,,,,,,,,,,,,,,,,
,,,,,,,,2023-08-16_08h48.22.413,HF_wild_card,2022.2.4,MacIntel,59.99880002,5ca9106716aa84001725d880,64d2fd46c836a06233681665,64dc7f3ce8f6a3b22cc49387,,,,,,,sngl,resources/Empty.png,resources/DBN.BMP,WildCard_NonEx,0.216099243,-0.037692532,1,0,0,0.7125,optionRight,55,11395,5,42,0,42,0,1,,,,,,,,,,,,,,,,,,,,,,,,,,,,,,,,,,,,,,,
,,,,,,,,2023-08-16_08h48.22.413,HF_wild_card,2022.2.4,MacIntel,59.99880002,5ca9106716aa84001725d880,64d2fd46c836a06233681665,64dc7f3ce8f6a3b22cc49387,,,,,,,decisionTrl,resources/DG.BMP,resources/DP.BMP,Door1,-0.189361165,0.016097751,1,0,0,0.8435,optionLeft,30,11425,5,43,0,43,0,1,,,,,,,,,,,,,,,,,,,,,,,,,,,,,,,,,,,,,,,
,,,,,,,,2023-08-16_08h48.22.413,HF_wild_card,2022.2.4,MacIntel,59.99880002,5ca9106716aa84001725d880,64d2fd46c836a06233681665,64dc7f3ce8f6a3b22cc49387,,,,,,,,,,,,,,,,,,,,,,,,,,4,0,4,0,1,,,,,,,,,,,,,,,,,,,,,,,,,,,,,,,,,,
,,,,,,,,2023-08-16_08h48.22.413,HF_wild_card,2022.2.4,MacIntel,59.99880002,5ca9106716aa84001725d880,64d2fd46c836a06233681665,64dc7f3ce8f6a3b22cc49387,,,,,,,sngl,resources/Empty.png,resources/DY.BMP,Door4,0.191544868,-0.169618937,1,0,0,0.7783,optionRight,80,11505,6,0,0,0,0,1,,,,,,,,,,,,,,,,,,,,,,,,,,,,,,,,,,,,,,,
,,,,,,,,2023-08-16_08h48.22.413,HF_wild_card,2022.2.4,MacIntel,59.99880002,5ca9106716aa84001725d880,64d2fd46c836a06233681665,64dc7f3ce8f6a3b22cc49387,,,,,,,decisionTrl,resources/DY.BMP,resources/DB.BMP,Door4,-0.14851515,0.001809489,1,0,0,0.7799,optionLeft,80,11585,6,1,0,1,0,1,,,,,,,,,,,,,,,,,,,,,,,,,,,,,,,,,,,,,,,
,,,,,,,,2023-08-16_08h48.22.413,HF_wild_card,2022.2.4,MacIntel,59.99880002,5ca9106716aa84001725d880,64d2fd46c836a06233681665,64dc7f3ce8f6a3b22cc49387,,,,,,,decisionTrl,resources/DP.BMP,resources/DG.BMP,Door1,0.149480116,-0.018732062,1,0,0,0.5786,optionRight,30,11615,6,2,0,2,0,1,,,,,,,,,,,,,,,,,,,,,,,,,,,,,,,,,,,,,,,
,,,,,,,,2023-08-16_08h48.22.413,HF_wild_card,2022.2.4,MacIntel,59.99880002,5ca9106716aa84001725d880,64d2fd46c836a06233681665,64dc7f3ce8f6a3b22cc49387,,,,,,,decisionTrl,resources/DB.BMP,resources/DY.BMP,Door4,0.221502279,-0.113705648,1,0,0,0.5644,optionRight,80,11695,6,3,0,3,0,1,,,,,,,,,,,,,,,,,,,,,,,,,,,,,,,,,,,,,,,
,,,,,,,,2023-08-16_08h48.22.413,HF_wild_card,2022.2.4,MacIntel,59.99880002,5ca9106716aa84001725d880,64d2fd46c836a06233681665,64dc7f3ce8f6a3b22cc49387,,,,,,,decisionTrl,resources/DB.BMP,resources/DY.BMP,Door4,0.200359429,-0.039549018,1,0,0,0.4662,optionRight,60,11755,6,4,0,4,0,1,,,,,,,,,,,,,,,,,,,,,,,,,,,,,,,,,,,,,,,
,,,,,,,,2023-08-16_08h48.22.413,HF_wild_card,2022.2.4,MacIntel,59.99880002,5ca9106716aa84001725d880,64d2fd46c836a06233681665,64dc7f3ce8f6a3b22cc49387,,,,,,,sngl,resources/Empty.png,resources/DP.BMP,Door2,0.2401808,-0.081882189,1,0,0,0.562,optionRight,40,11795,6,5,0,5,0,1,,,,,,,,,,,,,,,,,,,,,,,,,,,,,,,,,,,,,,,
,,,,,,,,2023-08-16_08h48.22.413,HF_wild_card,2022.2.4,MacIntel,59.99880002,5ca9106716aa84001725d880,64d2fd46c836a06233681665,64dc7f3ce8f6a3b22cc49387,,,,,,,decisionTrl,resources/DG.BMP,resources/DP.BMP,Door1,-0.228965793,0.00361735,1,0,0,0.6124,optionLeft,30,11825,6,6,0,6,0,1,,,,,,,,,,,,,,,,,,,,,,,,,,,,,,,,,,,,,,,
,,,,,,,,2023-08-16_08h48.22.413,HF_wild_card,2022.2.4,MacIntel,59.99880002,5ca9106716aa84001725d880,64d2fd46c836a06233681665,64dc7f3ce8f6a3b22cc49387,,,,,,,sngl,resources/Empty.png,resources/DB.BMP,Door3,0.17294298,-0.015313721,1,0,0,0.7473,optionRight,70,11895,6,7,0,7,0,1,,,,,,,,,,,,,,,,,,,,,,,,,,,,,,,,,,,,,,,
,,,,,,,,2023-08-16_08h48.22.413,HF_wild_card,2022.2.4,MacIntel,59.99880002,5ca9106716aa84001725d880,64d2fd46c836a06233681665,64dc7f3ce8f6a3b22cc49387,,,,,,,ctch,resources/DB.BMP,resources/DP.BMP,Door2,0.126637912,-0.027864821,1,0,0,0.7984,optionRight,40,11935,6,8,0,8,0,1,,,,,,,,,,,,,,,,,,,,,,,,,,,,,,,,,,,,,,,
,,,,,,,,2023-08-16_08h48.22.413,HF_wild_card,2022.2.4,MacIntel,59.99880002,5ca9106716aa84001725d880,64d2fd46c836a06233681665,64dc7f3ce8f6a3b22cc49387,,,,,,,decisionTrl,resources/DG.BMP,resources/DP.BMP,Door1,-0.235249363,0.039107666,1,0,0,0.7632,optionLeft,30,11965,6,9,0,9,0,1,,,,,,,,,,,,,,,,,,,,,,,,,,,,,,,,,,,,,,,
,,,,,,,,2023-08-16_08h48.22.413,HF_wild_card,2022.2.4,MacIntel,59.99880002,5ca9106716aa84001725d880,64d2fd46c836a06233681665,64dc7f3ce8f6a3b22cc49387,,,,,,,sngl,resources/DB.BMP,resources/Empty.png,Door3,-0.15267829,0.026802572,1,0,0,0.9492,optionLeft,70,12035,6,10,0,10,0,1,,,,,,,,,,,,,,,,,,,,,,,,,,,,,,,,,,,,,,,
,,,,,,,,2023-08-16_08h48.22.413,HF_wild_card,2022.2.4,MacIntel,59.99880002,5ca9106716aa84001725d880,64d2fd46c836a06233681665,64dc7f3ce8f6a3b22cc49387,,,,,,,decisionTrl,resources/DP.BMP,resources/DG.BMP,Door1,0.098573337,-0.037591553,1,0,0,1.6302,optionRight,30,12065,6,11,0,11,0,1,,,,,,,,,,,,,,,,,,,,,,,,,,,,,,,,,,,,,,,
,,,,,,,,2023-08-16_08h48.22.413,HF_wild_card,2022.2.4,MacIntel,59.99880002,5ca9106716aa84001725d880,64d2fd46c836a06233681665,64dc7f3ce8f6a3b22cc49387,,,,,,,decisionTrl,resources/DB.BMP,resources/DY.BMP,Door4,0.161665175,-0.085934787,1,0,0,0.6173,optionRight,80,12145,6,12,0,12,0,1,,,,,,,,,,,,,,,,,,,,,,,,,,,,,,,,,,,,,,,
,,,,,,,,2023-08-16_08h48.22.413,HF_wild_card,2022.2.4,MacIntel,59.99880002,5ca9106716aa84001725d880,64d2fd46c836a06233681665,64dc7f3ce8f6a3b22cc49387,,,,,,,decisionTrl,resources/DBN.BMP,resources/DB.BMP,Door3,0.156397705,-0.04956075,1,0,0,0.7604,optionRight,70,12215,6,13,0,13,0,1,,,,,,,,,,,,,,,,,,,,,,,,,,,,,,,,,,,,,,,
,,,,,,,,2023-08-16_08h48.22.413,HF_wild_card,2022.2.4,MacIntel,59.99880002,5ca9106716aa84001725d880,64d2fd46c836a06233681665,64dc7f3ce8f6a3b22cc49387,,,,,,,decisionTrl,resources/DG.BMP,resources/DP.BMP,Door1,-0.150588921,0.007921075,1,0,0,0.9976,optionLeft,30,12245,6,14,0,14,0,1,,,,,,,,,,,,,,,,,,,,,,,,,,,,,,,,,,,,,,,
,,,,,,,,2023-08-16_08h48.22.413,HF_wild_card,2022.2.4,MacIntel,59.99880002,5ca9106716aa84001725d880,64d2fd46c836a06233681665,64dc7f3ce8f6a3b22cc49387,,,,,,,sngl,resources/DY.BMP,resources/Empty.png,Door4,-0.09080112,0.004414402,1,0,0,0.9313,optionLeft,60,12305,6,15,0,15,0,1,,,,,,,,,,,,,,,,,,,,,,,,,,,,,,,,,,,,,,,
,,,,,,,,2023-08-16_08h48.22.413,HF_wild_card,2022.2.4,MacIntel,59.99880002,5ca9106716aa84001725d880,64d2fd46c836a06233681665,64dc7f3ce8f6a3b22cc49387,,,,,,,decisionTrl,resources/DY.BMP,resources/DBN.BMP,Door4,0.005127699,0.019268053,1,0,0,0.4304,optionLeft,60,12365,6,16,0,16,0,1,,,,,,,,,,,,,,,,,,,,,,,,,,,,,,,,,,,,,,,
,,,,,,,,2023-08-16_08h48.22.413,HF_wild_card,2022.2.4,MacIntel,59.99880002,5ca9106716aa84001725d880,64d2fd46c836a06233681665,64dc7f3ce8f6a3b22cc49387,,,,,,,ctch,resources/DY.BMP,resources/DG.BMP,Door4,-0.179849243,-0.025073174,1,0,0,0.698,optionLeft,80,12445,6,17,0,17,0,1,,,,,,,,,,,,,,,,,,,,,,,,,,,,,,,,,,,,,,,
,,,,,,,,2023-08-16_08h48.22.413,HF_wild_card,2022.2.4,MacIntel,59.99880002,5ca9106716aa84001725d880,64d2fd46c836a06233681665,64dc7f3ce8f6a3b22cc49387,,,,,,,ctch,resources/DB.BMP,resources/DP.BMP,Door3,-0.170099216,0.062837118,1,0,0,0.9501,optionLeft,70,12515,6,18,0,18,0,1,,,,,,,,,,,,,,,,,,,,,,,,,,,,,,,,,,,,,,,
,,,,,,,,2023-08-16_08h48.22.413,HF_wild_card,2022.2.4,MacIntel,59.99880002,5ca9106716aa84001725d880,64d2fd46c836a06233681665,64dc7f3ce8f6a3b22cc49387,,,,,,,ctch,resources/DG.BMP,resources/DY.BMP,Door4,0.192811483,-0.169522502,1,0,0,0.748,optionRight,80,12595,6,19,0,19,0,1,,,,,,,,,,,,,,,,,,,,,,,,,,,,,,,,,,,,,,,
,,,,,,,,2023-08-16_08h48.22.413,HF_wild_card,2022.2.4,MacIntel,59.99880002,5ca9106716aa84001725d880,64d2fd46c836a06233681665,64dc7f3ce8f6a3b22cc49387,,,,,,,decisionTrl,resources/DBN.BMP,resources/DP.BMP,WildCard_NonEx,-0.240822008,0.046458266,1,0,0,1.1771,optionLeft,45,12640,6,20,0,20,0,1,,,,,,,,,,,,,,,,,,,,,,,,,,,,,,,,,,,,,,,
,,,,,,,,2023-08-16_08h48.22.413,HF_wild_card,2022.2.4,MacIntel,59.99880002,5ca9106716aa84001725d880,64d2fd46c836a06233681665,64dc7f3ce8f6a3b22cc49387,,,,,,,decisionTrl,resources/DBN.BMP,resources/DG.BMP,WildCard_NonEx,-0.206579183,0.035991109,1,0,0,0.7141,optionLeft,45,12685,6,21,0,21,0,1,,,,,,,,,,,,,,,,,,,,,,,,,,,,,,,,,,,,,,,
,,,,,,,,2023-08-16_08h48.22.413,HF_wild_card,2022.2.4,MacIntel,59.99880002,5ca9106716aa84001725d880,64d2fd46c836a06233681665,64dc7f3ce8f6a3b22cc49387,,,,,,,ctch,resources/DY.BMP,resources/DG.BMP,Door4,-0.220210571,0.001042887,1,0,0,0.5822,optionLeft,80,12765,6,22,0,22,0,1,,,,,,,,,,,,,,,,,,,,,,,,,,,,,,,,,,,,,,,
,,,,,,,,2023-08-16_08h48.22.413,HF_wild_card,2022.2.4,MacIntel,59.99880002,5ca9106716aa84001725d880,64d2fd46c836a06233681665,64dc7f3ce8f6a3b22cc49387,,,,,,,decisionTrl,resources/DG.BMP,resources/DP.BMP,Door1,-0.183505656,0.056088494,1,0,0,1.0906,optionLeft,30,12795,6,23,0,23,0,1,,,,,,,,,,,,,,,,,,,,,,,,,,,,,,,,,,,,,,,
,,,,,,,,2023-08-16_08h48.22.413,HF_wild_card,2022.2.4,MacIntel,59.99880002,5ca9106716aa84001725d880,64d2fd46c836a06233681665,64dc7f3ce8f6a3b22cc49387,,,,,,,decisionTrl,resources/DB.BMP,resources/DY.BMP,Door4,0.167591485,-0.052063802,1,0,0,0.9624,optionRight,60,12855,6,24,0,24,0,1,,,,,,,,,,,,,,,,,,,,,,,,,,,,,,,,,,,,,,,
,,,,,,,,2023-08-16_08h48.22.413,HF_wild_card,2022.2.4,MacIntel,59.99880002,5ca9106716aa84001725d880,64d2fd46c836a06233681665,64dc7f3ce8f6a3b22cc49387,,,,,,,decisionTrl,resources/DG.BMP,resources/DBN.BMP,WildCard_NonEx,0.126732992,-0.093189969,1,0,0,0.9466,optionRight,45,12900,6,25,0,25,0,1,,,,,,,,,,,,,,,,,,,,,,,,,,,,,,,,,,,,,,,
,,,,,,,,2023-08-16_08h48.22.413,HF_wild_card,2022.2.4,MacIntel,59.99880002,5ca9106716aa84001725d880,64d2fd46c836a06233681665,64dc7f3ce8f6a3b22cc49387,,,,,,,ctch,resources/DP.BMP,resources/DB.BMP,Door2,-0.265169271,0.040461833,1,0,0,0.7123,optionLeft,40,12940,6,26,0,26,0,1,,,,,,,,,,,,,,,,,,,,,,,,,,,,,,,,,,,,,,,
,,,,,,,,2023-08-16_08h48.22.413,HF_wild_card,2022.2.4,MacIntel,59.99880002,5ca9106716aa84001725d880,64d2fd46c836a06233681665,64dc7f3ce8f6a3b22cc49387,,,,,,,ctch,resources/DP.BMP,resources/DB.BMP,Door3,0.271198595,-0.029040866,1,0,0,0.4957,optionRight,70,13010,6,27,0,27,0,1,,,,,,,,,,,,,,,,,,,,,,,,,,,,,,,,,,,,,,,
,,,,,,,,2023-08-16_08h48.22.413,HF_wild_card,2022.2.4,MacIntel,59.99880002,5ca9106716aa84001725d880,64d2fd46c836a06233681665,64dc7f3ce8f6a3b22cc49387,,,,,,,decisionTrl,resources/DY.BMP,resources/DB.BMP,Door3,0.227587212,-0.039857178,1,0,0,0.4641,optionRight,70,13080,6,28,0,28,0,1,,,,,,,,,,,,,,,,,,,,,,,,,,,,,,,,,,,,,,,
,,,,,,,,2023-08-16_08h48.22.413,HF_wild_card,2022.2.4,MacIntel,59.99880002,5ca9106716aa84001725d880,64d2fd46c836a06233681665,64dc7f3ce8f6a3b22cc49387,,,,,,,decisionTrl,resources/DP.BMP,resources/DG.BMP,Door1,0.231652832,-0.054482761,1,0,0,0.8985,optionRight,30,13110,6,29,0,29,0,1,,,,,,,,,,,,,,,,,,,,,,,,,,,,,,,,,,,,,,,
,,,,,,,,2023-08-16_08h48.22.413,HF_wild_card,2022.2.4,MacIntel,59.99880002,5ca9106716aa84001725d880,64d2fd46c836a06233681665,64dc7f3ce8f6a3b22cc49387,,,,,,,decisionTrl,resources/DP.BMP,resources/DG.BMP,Door1,0.192917752,-0.011031053,1,0,0,0.7926,optionRight,30,13140,6,30,0,30,0,1,,,,,,,,,,,,,,,,,,,,,,,,,,,,,,,,,,,,,,,
,,,,,,,,2023-08-16_08h48.22.413,HF_wild_card,2022.2.4,MacIntel,59.99880002,5ca9106716aa84001725d880,64d2fd46c836a06233681665,64dc7f3ce8f6a3b22cc49387,,,,,,,ctch,resources/DG.BMP,resources/DY.BMP,Door4,0.211035767,-0.040178223,1,0,0,0.6106,optionRight,80,13220,6,31,0,31,0,1,,,,,,,,,,,,,,,,,,,,,,,,,,,,,,,,,,,,,,,
,,,,,,,,2023-08-16_08h48.22.413,HF_wild_card,2022.2.4,MacIntel,59.99880002,5ca9106716aa84001725d880,64d2fd46c836a06233681665,64dc7f3ce8f6a3b22cc49387,,,,,,,decisionTrl,resources/DB.BMP,resources/DBN.BMP,WildCard_NonEx,0.234529894,-0.056622382,1,0,0,0.8813,optionRight,55,13275,6,32,0,32,0,1,,,,,,,,,,,,,,,,,,,,,,,,,,,,,,,,,,,,,,,
,,,,,,,,2023-08-16_08h48.22.413,HF_wild_card,2022.2.4,MacIntel,59.99880002,5ca9106716aa84001725d880,64d2fd46c836a06233681665,64dc7f3ce8f6a3b22cc49387,,,,,,,decisionTrl,resources/DBN.BMP,resources/DY.BMP,Door4,0.244857788,-0.055817193,1,0,0,0.5671,optionRight,80,13355,6,33,0,33,0,1,,,,,,,,,,,,,,,,,,,,,,,,,,,,,,,,,,,,,,,
,,,,,,,,2023-08-16_08h48.22.413,HF_wild_card,2022.2.4,MacIntel,59.99880002,5ca9106716aa84001725d880,64d2fd46c836a06233681665,64dc7f3ce8f6a3b22cc49387,,,,,,,decisionTrl,resources/DP.BMP,resources/DBN.BMP,WildCard_NonEx,0.210009901,0.018422241,1,0,0,0.7641,optionRight,45,13400,6,34,0,34,0,1,,,,,,,,,,,,,,,,,,,,,,,,,,,,,,,,,,,,,,,
,,,,,,,,2023-08-16_08h48.22.413,HF_wild_card,2022.2.4,MacIntel,59.99880002,5ca9106716aa84001725d880,64d2fd46c836a06233681665,64dc7f3ce8f6a3b22cc49387,,,,,,,sngl,resources/DBN.BMP,resources/Empty.png,WildCard_NonEx,-0.23725057,0.004501478,1,0,0,0.5814,optionLeft,55,13455,6,35,0,35,0,1,,,,,,,,,,,,,,,,,,,,,,,,,,,,,,,,,,,,,,,
,,,,,,,,2023-08-16_08h48.22.413,HF_wild_card,2022.2.4,MacIntel,59.99880002,5ca9106716aa84001725d880,64d2fd46c836a06233681665,64dc7f3ce8f6a3b22cc49387,,,,,,,decisionTrl,resources/DY.BMP,resources/DB.BMP,Door4,-0.17149821,0.017195909,1,0,0,0.7454,optionLeft,60,13515,6,36,0,36,0,1,,,,,,,,,,,,,,,,,,,,,,,,,,,,,,,,,,,,,,,
,,,,,,,,2023-08-16_08h48.22.413,HF_wild_card,2022.2.4,MacIntel,59.99880002,5ca9106716aa84001725d880,64d2fd46c836a06233681665,64dc7f3ce8f6a3b22cc49387,,,,,,,sngl,resources/Empty.png,resources/DBN.BMP,WildCard_NonEx,0.248719754,-0.040510661,1,0,0,0.6462,optionRight,55,13570,6,37,0,37,0,1,,,,,,,,,,,,,,,,,,,,,,,,,,,,,,,,,,,,,,,
,,,,,,,,2023-08-16_08h48.22.413,HF_wild_card,2022.2.4,MacIntel,59.99880002,5ca9106716aa84001725d880,64d2fd46c836a06233681665,64dc7f3ce8f6a3b22cc49387,,,,,,,sngl,resources/Empty.png,resources/DBN.BMP,WildCard_NonEx,0.224092272,-0.053647054,1,0,0,0.5296,optionRight,45,13615,6,38,0,38,0,1,,,,,,,,,,,,,,,,,,,,,,,,,,,,,,,,,,,,,,,
,,,,,,,,2023-08-16_08h48.22.413,HF_wild_card,2022.2.4,MacIntel,59.99880002,5ca9106716aa84001725d880,64d2fd46c836a06233681665,64dc7f3ce8f6a3b22cc49387,,,,,,,sngl,resources/DP.BMP,resources/Empty.png,Door2,-0.252911377,0.006361762,1,0,0,0.6125,optionLeft,20,13635,6,39,0,39,0,1,,,,,,,,,,,,,,,,,,,,,,,,,,,,,,,,,,,,,,,
,,,,,,,,2023-08-16_08h48.22.413,HF_wild_card,2022.2.4,MacIntel,59.99880002,5ca9106716aa84001725d880,64d2fd46c836a06233681665,64dc7f3ce8f6a3b22cc49387,,,,,,,sngl,resources/DBN.BMP,resources/Empty.png,WildCard_NonEx,-0.155752224,0.017307739,1,0,0,0.7941,optionLeft,45,13680,6,40,0,40,0,1,,,,,,,,,,,,,,,,,,,,,,,,,,,,,,,,,,,,,,,
,,,,,,,,2023-08-16_08h48.22.413,HF_wild_card,2022.2.4,MacIntel,59.99880002,5ca9106716aa84001725d880,64d2fd46c836a06233681665,64dc7f3ce8f6a3b22cc49387,,,,,,,sngl,resources/DG.BMP,resources/Empty.png,Door1,-0.231371494,0.034020386,1,0,0,0.5156,optionLeft,30,13710,6,41,0,41,0,1,,,,,,,,,,,,,,,,,,,,,,,,,,,,,,,,,,,,,,,
,,,,,,,,2023-08-16_08h48.22.413,HF_wild_card,2022.2.4,MacIntel,59.99880002,5ca9106716aa84001725d880,64d2fd46c836a06233681665,64dc7f3ce8f6a3b22cc49387,,,,,,,decisionTrl,resources/DY.BMP,resources/DB.BMP,Door3,0.2232331,-0.007986382,1,0,0,0.4782,optionRight,70,13780,6,42,0,42,0,1,,,,,,,,,,,,,,,,,,,,,,,,,,,,,,,,,,,,,,,
,,,,,,,,2023-08-16_08h48.22.413,HF_wild_card,2022.2.4,MacIntel,59.99880002,5ca9106716aa84001725d880,64d2fd46c836a06233681665,64dc7f3ce8f6a3b22cc49387,,,,,,,sngl,resources/Empty.png,resources/DG.BMP,Door1,0.201952989,-0.044202949,1,0,0,0.4969,optionRight,30,13810,6,43,0,43,0,1,,,,,,,,,,,,,,,,,,,,,,,,,,,,,,,,,,,,,,,
,,,,,,,,2023-08-16_08h48.22.413,HF_wild_card,2022.2.4,MacIntel,59.99880002,5ca9106716aa84001725d880,64d2fd46c836a06233681665,64dc7f3ce8f6a3b22cc49387,,,,,,,,,,,,,,,,,,,,,,,,,,5,0,5,0,1,,,,,,,,,,,,,,,,,,,,,,,,,,,,,,,,,,
,,,,,,,,2023-08-16_08h48.22.413,HF_wild_card,2022.2.4,MacIntel,59.99880002,5ca9106716aa84001725d880,64d2fd46c836a06233681665,64dc7f3ce8f6a3b22cc49387,,,,,,,decisionTrl,resources/DY.BMP,resources/DB.BMP,Door4,-0.254810282,-0.056670532,1,0,0,0.5811,optionLeft,60,13870,7,0,0,0,0,1,,,,,,,,,,,,,,,,,,,,,,,,,,,,,,,,,,,,,,,
,,,,,,,,2023-08-16_08h48.22.413,HF_wild_card,2022.2.4,MacIntel,59.99880002,5ca9106716aa84001725d880,64d2fd46c836a06233681665,64dc7f3ce8f6a3b22cc49387,,,,,,,decisionTrl,resources/DG.BMP,resources/DP.BMP,Door1,-0.196549411,0.067952203,1,0,0,1.0003,optionLeft,30,13900,7,1,0,1,0,1,,,,,,,,,,,,,,,,,,,,,,,,,,,,,,,,,,,,,,,
,,,,,,,,2023-08-16_08h48.22.413,HF_wild_card,2022.2.4,MacIntel,59.99880002,5ca9106716aa84001725d880,64d2fd46c836a06233681665,64dc7f3ce8f6a3b22cc49387,,,,,,,decisionTrl,resources/DP.BMP,resources/DG.BMP,Door1,0.253044569,-0.073458388,1,0,0,0.915,optionRight,30,13930,7,2,0,2,0,1,,,,,,,,,,,,,,,,,,,,,,,,,,,,,,,,,,,,,,,
,,,,,,,,2023-08-16_08h48.22.413,HF_wild_card,2022.2.4,MacIntel,59.99880002,5ca9106716aa84001725d880,64d2fd46c836a06233681665,64dc7f3ce8f6a3b22cc49387,,,,,,,ctch,resources/DB.BMP,resources/DP.BMP,Door3,-0.20349216,0.054880507,1,0,0,0.8796,optionLeft,70,14000,7,3,0,3,0,1,,,,,,,,,,,,,,,,,,,,,,,,,,,,,,,,,,,,,,,
,,,,,,,,2023-08-16_08h48.22.413,HF_wild_card,2022.2.4,MacIntel,59.99880002,5ca9106716aa84001725d880,64d2fd46c836a06233681665,64dc7f3ce8f6a3b22cc49387,,,,,,,ctch,resources/DG.BMP,resources/DY.BMP,Door4,0.217925754,-0.031303338,1,0,0,0.7147,optionRight,60,14060,7,4,0,4,0,1,,,,,,,,,,,,,,,,,,,,,,,,,,,,,,,,,,,,,,,
,,,,,,,,2023-08-16_08h48.22.413,HF_wild_card,2022.2.4,MacIntel,59.99880002,5ca9106716aa84001725d880,64d2fd46c836a06233681665,64dc7f3ce8f6a3b22cc49387,,,,,,,decisionTrl,resources/DB.BMP,resources/DY.BMP,Door4,0.260782878,-0.09076633,1,0,0,0.4797,optionRight,80,14140,7,5,0,5,0,1,,,,,,,,,,,,,,,,,,,,,,,,,,,,,,,,,,,,,,,
,,,,,,,,2023-08-16_08h48.22.413,HF_wild_card,2022.2.4,MacIntel,59.99880002,5ca9106716aa84001725d880,64d2fd46c836a06233681665,64dc7f3ce8f6a3b22cc49387,,,,,,,decisionTrl,resources/DB.BMP,resources/DY.BMP,Door4,0.200930718,-0.065926921,1,0,0,0.4898,optionRight,80,14220,7,6,0,6,0,1,,,,,,,,,,,,,,,,,,,,,,,,,,,,,,,,,,,,,,,
,,,,,,,,2023-08-16_08h48.22.413,HF_wild_card,2022.2.4,MacIntel,59.99880002,5ca9106716aa84001725d880,64d2fd46c836a06233681665,64dc7f3ce8f6a3b22cc49387,,,,,,,ctch,resources/DG.BMP,resources/DY.BMP,Door4,0.139404975,-0.035132209,1,0,0,0.8311,optionRight,80,14300,7,7,0,7,0,1,,,,,,,,,,,,,,,,,,,,,,,,,,,,,,,,,,,,,,,
,,,,,,,,2023-08-16_08h48.22.413,HF_wild_card,2022.2.4,MacIntel,59.99880002,5ca9106716aa84001725d880,64d2fd46c836a06233681665,64dc7f3ce8f6a3b22cc49387,,,,,,,decisionTrl,resources/DB.BMP,resources/DY.BMP,Door4,0.164450141,-0.004417182,1,0,0,0.5631,optionRight,80,14380,7,8,0,8,0,1,,,,,,,,,,,,,,,,,,,,,,,,,,,,,,,,,,,,,,,
,,,,,,,,2023-08-16_08h48.22.413,HF_wild_card,2022.2.4,MacIntel,59.99880002,5ca9106716aa84001725d880,64d2fd46c836a06233681665,64dc7f3ce8f6a3b22cc49387,,,,,,,ctch,resources/DY.BMP,resources/DG.BMP,Door4,-0.100355903,0.012342733,1,0,0,0.6302,optionLeft,80,14460,7,9,0,9,0,1,,,,,,,,,,,,,,,,,,,,,,,,,,,,,,,,,,,,,,,
,,,,,,,,2023-08-16_08h48.22.413,HF_wild_card,2022.2.4,MacIntel,59.99880002,5ca9106716aa84001725d880,64d2fd46c836a06233681665,64dc7f3ce8f6a3b22cc49387,,,,,,,ctch,resources/DP.BMP,resources/DB.BMP,Door3,0.174755046,-0.04136027,1,0,0,0.6149,optionRight,70,14530,7,10,0,10,0,1,,,,,,,,,,,,,,,,,,,,,,,,,,,,,,,,,,,,,,,
,,,,,,,,2023-08-16_08h48.22.413,HF_wild_card,2022.2.4,MacIntel,59.99880002,5ca9106716aa84001725d880,64d2fd46c836a06233681665,64dc7f3ce8f6a3b22cc49387,,,,,,,decisionTrl,resources/DY.BMP,resources/DB.BMP,Door4,-0.168818766,-0.007791273,1,0,0,1.0508,optionLeft,80,14610,7,11,0,11,0,1,,,,,,,,,,,,,,,,,,,,,,,,,,,,,,,,,,,,,,,
,,,,,,,,2023-08-16_08h48.22.413,HF_wild_card,2022.2.4,MacIntel,59.99880002,5ca9106716aa84001725d880,64d2fd46c836a06233681665,64dc7f3ce8f6a3b22cc49387,,,,,,,decisionTrl,resources/DY.BMP,resources/DB.BMP,Door4,-0.179161377,0.002758314,1,0,0,0.6492,optionLeft,60,14670,7,12,0,12,0,1,,,,,,,,,,,,,,,,,,,,,,,,,,,,,,,,,,,,,,,
,,,,,,,,2023-08-16_08h48.22.413,HF_wild_card,2022.2.4,MacIntel,59.99880002,5ca9106716aa84001725d880,64d2fd46c836a06233681665,64dc7f3ce8f6a3b22cc49387,,,,,,,decisionTrl,resources/DY.BMP,resources/DB.BMP,Door4,-0.158631456,0.009604831,1,0,0,0.6679,optionLeft,80,14750,7,13,0,13,0,1,,,,,,,,,,,,,,,,,,,,,,,,,,,,,,,,,,,,,,,
,,,,,,,,2023-08-16_08h48.22.413,HF_wild_card,2022.2.4,MacIntel,59.99880002,5ca9106716aa84001725d880,64d2fd46c836a06233681665,64dc7f3ce8f6a3b22cc49387,,,,,,,ctch,resources/DP.BMP,resources/DB.BMP,Door3,0.159225803,-0.035929769,1,0,0,0.5474,optionRight,70,14820,7,14,0,14,0,1,,,,,,,,,,,,,,,,,,,,,,,,,,,,,,,,,,,,,,,
,,,,,,,,2023-08-16_08h48.22.413,HF_wild_card,2022.2.4,MacIntel,59.99880002,5ca9106716aa84001725d880,64d2fd46c836a06233681665,64dc7f3ce8f6a3b22cc49387,,,,,,,decisionTrl,resources/DG.BMP,resources/DP.BMP,Door2,0.181532457,0.001969401,1,0,0,1.2162,optionRight,40,14860,7,15,0,15,0,1,,,,,,,,,,,,,,,,,,,,,,,,,,,,,,,,,,,,,,,
,,,,,,,,2023-08-16_08h48.22.413,HF_wild_card,2022.2.4,MacIntel,59.99880002,5ca9106716aa84001725d880,64d2fd46c836a06233681665,64dc7f3ce8f6a3b22cc49387,,,,,,,decisionTrl,resources/DY.BMP,resources/DB.BMP,Door4,-0.181487495,0.003391656,1,0,0,0.5508,optionLeft,60,14920,7,16,0,16,0,1,,,,,,,,,,,,,,,,,,,,,,,,,,,,,,,,,,,,,,,
,,,,,,,,2023-08-16_08h48.22.413,HF_wild_card,2022.2.4,MacIntel,59.99880002,5ca9106716aa84001725d880,64d2fd46c836a06233681665,64dc7f3ce8f6a3b22cc49387,,,,,,,ctch,resources/DP.BMP,resources/DB.BMP,Door3,0.219071316,-0.053467882,1,0,0,0.5145,optionRight,70,14990,7,17,0,17,0,1,,,,,,,,,,,,,,,,,,,,,,,,,,,,,,,,,,,,,,,
,,,,,,,,2023-08-16_08h48.22.413,HF_wild_card,2022.2.4,MacIntel,59.99880002,5ca9106716aa84001725d880,64d2fd46c836a06233681665,64dc7f3ce8f6a3b22cc49387,,,,,,,decisionTrl,resources/DG.BMP,resources/DP.BMP,Door2,0.169227295,-0.037060784,1,0,0,0.7022,optionRight,20,15010,7,18,0,18,0,1,,,,,,,,,,,,,,,,,,,,,,,,,,,,,,,,,,,,,,,
,,,,,,,,2023-08-16_08h48.22.413,HF_wild_card,2022.2.4,MacIntel,59.99880002,5ca9106716aa84001725d880,64d2fd46c836a06233681665,64dc7f3ce8f6a3b22cc49387,,,,,,,decisionTrl,resources/DB.BMP,resources/DY.BMP,Door4,0.165764974,-0.04367608,1,0,0,0.7306,optionRight,80,15090,7,19,0,19,0,1,,,,,,,,,,,,,,,,,,,,,,,,,,,,,,,,,,,,,,,
,,,,,,,,2023-08-16_08h48.22.413,HF_wild_card,2022.2.4,MacIntel,59.99880002,5ca9106716aa84001725d880,64d2fd46c836a06233681665,64dc7f3ce8f6a3b22cc49387,,,,,,,decisionTrl,resources/DP.BMP,resources/DG.BMP,Door1,0.187511054,-0.059392971,1,0,0,0.5799,optionRight,30,15120,7,20,0,20,0,1,,,,,,,,,,,,,,,,,,,,,,,,,,,,,,,,,,,,,,,
,,,,,,,,2023-08-16_08h48.22.413,HF_wild_card,2022.2.4,MacIntel,59.99880002,5ca9106716aa84001725d880,64d2fd46c836a06233681665,64dc7f3ce8f6a3b22cc49387,,,,,,,decisionTrl,resources/DP.BMP,resources/DG.BMP,Door1,0.181577555,-0.03755032,1,0,0,0.5797,optionRight,30,15150,7,21,0,21,0,1,,,,,,,,,,,,,,,,,,,,,,,,,,,,,,,,,,,,,,,
,,,,,,,,2023-08-16_08h48.22.413,HF_wild_card,2022.2.4,MacIntel,59.99880002,5ca9106716aa84001725d880,64d2fd46c836a06233681665,64dc7f3ce8f6a3b22cc49387,,,,,,,ctch,resources/DB.BMP,resources/DP.BMP,Door3,-0.223464288,-0.005859341,1,0,0,0.983,optionLeft,70,15220,7,22,0,22,0,1,,,,,,,,,,,,,,,,,,,,,,,,,,,,,,,,,,,,,,,
,,,,,,,,2023-08-16_08h48.22.413,HF_wild_card,2022.2.4,MacIntel,59.99880002,5ca9106716aa84001725d880,64d2fd46c836a06233681665,64dc7f3ce8f6a3b22cc49387,,,,,,,decisionTrl,resources/DB.BMP,resources/DY.BMP,Door4,0.148423326,-0.031479967,1,0,0,0.6788,optionRight,80,15300,7,23,0,23,0,1,,,,,,,,,,,,,,,,,,,,,,,,,,,,,,,,,,,,,,,
,,,,,,,,2023-08-16_08h48.22.413,HF_wild_card,2022.2.4,MacIntel,59.99880002,5ca9106716aa84001725d880,64d2fd46c836a06233681665,64dc7f3ce8f6a3b22cc49387,,,,,,,ctch,resources/DY.BMP,resources/DG.BMP,Door4,-0.171622857,0.021044447,1,0,0,0.6322,optionLeft,60,15360,7,24,0,24,0,1,,,,,,,,,,,,,,,,,,,,,,,,,,,,,,,,,,,,,,,
,,,,,,,,2023-08-16_08h48.22.413,HF_wild_card,2022.2.4,MacIntel,59.99880002,5ca9106716aa84001725d880,64d2fd46c836a06233681665,64dc7f3ce8f6a3b22cc49387,,,,,,,decisionTrl,resources/DP.BMP,resources/DG.BMP,Door1,0.178638645,-0.017723185,1,0,0,0.6957,optionRight,30,15390,7,25,0,25,0,1,,,,,,,,,,,,,,,,,,,,,,,,,,,,,,,,,,,,,,,
,,,,,,,,2023-08-16_08h48.22.413,HF_wild_card,2022.2.4,MacIntel,59.99880002,5ca9106716aa84001725d880,64d2fd46c836a06233681665,64dc7f3ce8f6a3b22cc49387,,,,,,,ctch,resources/DY.BMP,resources/DG.BMP,Door4,-0.19994751,-0.003802355,1,0,0,0.5141,optionLeft,60,15450,7,26,0,26,0,1,,,,,,,,,,,,,,,,,,,,,,,,,,,,,,,,,,,,,,,
,,,,,,,,2023-08-16_08h48.22.413,HF_wild_card,2022.2.4,MacIntel,59.99880002,5ca9106716aa84001725d880,64d2fd46c836a06233681665,64dc7f3ce8f6a3b22cc49387,,,,,,,decisionTrl,resources/DB.BMP,resources/DY.BMP,Door4,0.182612576,-0.017960748,1,0,0,0.6497,optionRight,80,15530,7,27,0,27,0,1,,,,,,,,,,,,,,,,,,,,,,,,,,,,,,,,,,,,,,,
,,,,,,,,2023-08-16_08h48.22.413,HF_wild_card,2022.2.4,MacIntel,59.99880002,5ca9106716aa84001725d880,64d2fd46c836a06233681665,64dc7f3ce8f6a3b22cc49387,,,,,,,decisionTrl,resources/DG.BMP,resources/DP.BMP,Door1,-0.223982001,0.036178589,1,0,0,0.7313,optionLeft,30,15560,7,28,0,28,0,1,,,,,,,,,,,,,,,,,,,,,,,,,,,,,,,,,,,,,,,
,,,,,,,,2023-08-16_08h48.22.413,HF_wild_card,2022.2.4,MacIntel,59.99880002,5ca9106716aa84001725d880,64d2fd46c836a06233681665,64dc7f3ce8f6a3b22cc49387,,,,,,,decisionTrl,resources/DG.BMP,resources/DP.BMP,Door1,-0.13498447,0.060793254,1,0,0,0.7468,optionLeft,30,15590,7,29,0,29,0,1,,,,,,,,,,,,,,,,,,,,,,,,,,,,,,,,,,,,,,,
,,,,,,,,2023-08-16_08h48.22.413,HF_wild_card,2022.2.4,MacIntel,59.99880002,5ca9106716aa84001725d880,64d2fd46c836a06233681665,64dc7f3ce8f6a3b22cc49387,,,,,,,decisionTrl,resources/DP.BMP,resources/DG.BMP,Door1,0.221415066,-0.005903049,1,0,0,0.6015,optionRight,30,15620,7,30,0,30,0,1,,,,,,,,,,,,,,,,,,,,,,,,,,,,,,,,,,,,,,,
,,,,,,,,2023-08-16_08h48.22.413,HF_wild_card,2022.2.4,MacIntel,59.99880002,5ca9106716aa84001725d880,64d2fd46c836a06233681665,64dc7f3ce8f6a3b22cc49387,,,,,,,ctch,resources/DB.BMP,resources/DP.BMP,Door3,-0.15568339,-0.007004734,1,0,0,0.8294,optionLeft,70,15690,7,31,0,31,0,1,,,,,,,,,,,,,,,,,,,,,,,,,,,,,,,,,,,,,,,
,,,,,,,,2023-08-16_08h48.22.413,HF_wild_card,2022.2.4,MacIntel,59.99880002,5ca9106716aa84001725d880,64d2fd46c836a06233681665,64dc7f3ce8f6a3b22cc49387,,,,,,,ctch,resources/DG.BMP,resources/DY.BMP,Door4,0.196592204,-0.051018066,1,0,0,0.5973,optionRight,60,15750,7,32,0,32,0,1,,,,,,,,,,,,,,,,,,,,,,,,,,,,,,,,,,,,,,,
,,,,,,,,2023-08-16_08h48.22.413,HF_wild_card,2022.2.4,MacIntel,59.99880002,5ca9106716aa84001725d880,64d2fd46c836a06233681665,64dc7f3ce8f6a3b22cc49387,,,,,,,decisionTrl,resources/DG.BMP,resources/DP.BMP,Door1,-0.189361572,0.056726006,1,0,0,0.6485,optionLeft,30,15780,7,33,0,33,0,1,,,,,,,,,,,,,,,,,,,,,,,,,,,,,,,,,,,,,,,
,,,,,,,,2023-08-16_08h48.22.413,HF_wild_card,2022.2.4,MacIntel,59.99880002,5ca9106716aa84001725d880,64d2fd46c836a06233681665,64dc7f3ce8f6a3b22cc49387,,,,,,,decisionTrl,resources/DY.BMP,resources/DB.BMP,Door4,-0.112719659,0.05552202,1,0,0,0.781,optionLeft,80,15860,7,34,0,34,0,1,,,,,,,,,,,,,,,,,,,,,,,,,,,,,,,,,,,,,,,
,,,,,,,,2023-08-16_08h48.22.413,HF_wild_card,2022.2.4,MacIntel,59.99880002,5ca9106716aa84001725d880,64d2fd46c836a06233681665,64dc7f3ce8f6a3b22cc49387,,,,,,,decisionTrl,resources/DP.BMP,resources/DG.BMP,Door1,0.149111396,-0.025152147,1,0,0,0.5633,optionRight,30,15890,7,35,0,35,0,1,,,,,,,,,,,,,,,,,,,,,,,,,,,,,,,,,,,,,,,
,,,,,,,,2023-08-16_08h48.22.413,HF_wild_card,2022.2.4,MacIntel,59.99880002,5ca9106716aa84001725d880,64d2fd46c836a06233681665,64dc7f3ce8f6a3b22cc49387,,,,,,,,,,,,,,,,,,,,,,,,,,6,0,6,0,1,,,,,,,,,,,,,,,,,,,,,,,,,,,,,,,,,,
,,,,,,,,2023-08-16_08h48.22.413,HF_wild_card,2022.2.4,MacIntel,59.99880002,5ca9106716aa84001725d880,64d2fd46c836a06233681665,64dc7f3ce8f6a3b22cc49387,,,,,,,,,,,,,,,,,,,,,,,,,,,,,,,3,,,,,,,,,,,,,,,,,,,,,,,,,,,,,,,,,
,,,,,,,,2023-08-16_08h48.22.413,HF_wild_card,2022.2.4,MacIntel,59.99880002,5ca9106716aa84001725d880,64d2fd46c836a06233681665,64dc7f3ce8f6a3b22cc49387,,,,,,,,,,,,,,,,,,,,,,,,,,,,,,,,,,,,,,,,,,,,,,,,,,,,,,,,,,,,,,,,
,,,,,,,,2023-08-16_08h48.22.413,HF_wild_card,2022.2.4,MacIntel,59.99880002,5ca9106716aa84001725d880,64d2fd46c836a06233681665,64dc7f3ce8f6a3b22cc49387,,,,,,,,,,,,,,,,,,,,,,,,,,,,,,,,60,Door3,resources/DB.BMP,0,0,0,0,1,,,,,,,,,,,,,,,,,,,,,,,,,
,,,,,,,,2023-08-16_08h48.22.413,HF_wild_card,2022.2.4,MacIntel,59.99880002,5ca9106716aa84001725d880,64d2fd46c836a06233681665,64dc7f3ce8f6a3b22cc49387,,,,,,,,,,,,,,,,,,,,,,,,,,,,,,,,45,WC_nonExtreme,resources/DBN.BMP,1,0,1,0,1,,,,,,,,,,,,,,,,,,,,,,,,,
,,,,,,,,2023-08-16_08h48.22.413,HF_wild_card,2022.2.4,MacIntel,59.99880002,5ca9106716aa84001725d880,64d2fd46c836a06233681665,64dc7f3ce8f6a3b22cc49387,,,,,,,,,,,,,,,,,,,,,,,,,,,,,,,,30,Door2,resources/DP.BMP,2,0,2,0,1,,,,,,,,,,,,,,,,,,,,,,,,,
