Condition,Low fixed image (Door1),Low risky image (Door2),High fixed image (Door3),High risky image (Door4),Extreme Wild Card,NonExtreme Wild Card,,date,expName,psychopyVersion,OS,frameRate,PROLIFIC_PID,STUDY_ID,SESSION_ID,mouse_2.x,mouse_2.y,mouse_2.leftButton,mouse_2.midButton,mouse_2.rightButton,mouse_2.clicked_name,Trial Type,Left Option Image,Right Option Image,Chosen Door,mouse.x,mouse.y,mouse.leftButton,mouse.midButton,mouse.rightButton,mouse.time,mouse.clicked_name,Feedback,Cumulative Reward,Block,trial.thisRepN,trial.thisTrialN,trial.thisN,trial.thisIndex,trial.ran,blocks.thisRepN,blocks.thisTrialN,blocks.thisN,blocks.thisIndex,blocks.ran,Money conversion,First Outcome Reported,Shown Door (First Outcome),Displayed Image (First Outcome),outcomes.thisRepN,outcomes.thisTrialN,outcomes.thisN,outcomes.thisIndex,outcomes.ran,judgments.thisRepN,judgments.thisTrialN,judgments.thisN,judgments.thisIndex,judgments.ran,freqMouse.x,freqMouse.y,freqMouse.leftButton,freqMouse.midButton,freqMouse.rightButton,freqMouse.clicked_name,FQJ for first outcome,FQJ for second outcome,Shown Door,Displayed Image,trials.thisRepN,trials.thisTrialN,trials.thisN,trials.thisIndex,trials.ran,judgBlock.thisRepN,judgBlock.thisTrialN,judgBlock.thisN,judgBlock.thisIndex,judgBlock.ran
0,resources/DB.BMP,resources/DG.BMP,resources/DY.BMP,resources/DR.BMP,resources/DBN.BMP,resources/DP.BMP,,2023-08-16_08h47.32.117,HF_wild_card,2022.2.4,Win32,60.07449237,63e5404324177f4d7f6c0c13,64d2fd46c836a06233681665,64dc7efe60e3fc75fffeb1b8,,,,,,,,,,,,,,,,,,,,,,,,,,,,,,,,,,,,,,,,,,,,,,,,,,,,,,,,,,,,,,,,
,,,,,,,,2023-08-16_08h47.32.117,HF_wild_card,2022.2.4,Win32,60.07449237,63e5404324177f4d7f6c0c13,64d2fd46c836a06233681665,64dc7efe60e3fc75fffeb1b8,0.001851894,-0.42777782,1,0,0,agree,,,,,,,,,,,,,,,,,,,,,,,,,,,,,,,,,,,,,,,,,,,,,,,,,,,,,,,,,,
,,,,,,,,2023-08-16_08h47.32.117,HF_wild_card,2022.2.4,Win32,60.07449237,63e5404324177f4d7f6c0c13,64d2fd46c836a06233681665,64dc7efe60e3fc75fffeb1b8,,,,,,,,,,,,,,,,,,,,,,,,,,,,,,,,,,,,,,,,,,,,,,,,,,,,,,,,,,,,,,,,
,,,,,,,,2023-08-16_08h47.32.117,HF_wild_card,2022.2.4,Win32,60.07449237,63e5404324177f4d7f6c0c13,64d2fd46c836a06233681665,64dc7efe60e3fc75fffeb1b8,,,,,,,sngl,resources/Empty.png,resources/DBN.BMP,WildCard_Ex,0.37962963,-0.005555577,1,0,0,2.8197,optionRight,95,95,1,0,0,0,0,1,,,,,,,,,,,,,,,,,,,,,,,,,,,,,,,,,,,,,,,
,,,,,,,,2023-08-16_08h47.32.117,HF_wild_card,2022.2.4,Win32,60.07449237,63e5404324177f4d7f6c0c13,64d2fd46c836a06233681665,64dc7efe60e3fc75fffeb1b8,,,,,,,ctch,resources/DB.BMP,resources/DR.BMP,Door1,-0.290740755,-0.029629637,1,0,0,2.56,optionLeft,30,125,1,1,0,1,0,1,,,,,,,,,,,,,,,,,,,,,,,,,,,,,,,,,,,,,,,
,,,,,,,,2023-08-16_08h47.32.117,HF_wild_card,2022.2.4,Win32,60.07449237,63e5404324177f4d7f6c0c13,64d2fd46c836a06233681665,64dc7efe60e3fc75fffeb1b8,,,,,,,ctch,resources/DG.BMP,resources/DY.BMP,Door2,-0.264814801,-0.055555556,1,0,0,1.2286,optionLeft,20,145,1,2,0,2,0,1,,,,,,,,,,,,,,,,,,,,,,,,,,,,,,,,,,,,,,,
,,,,,,,,2023-08-16_08h47.32.117,HF_wild_card,2022.2.4,Win32,60.07449237,63e5404324177f4d7f6c0c13,64d2fd46c836a06233681665,64dc7efe60e3fc75fffeb1b8,,,,,,,decisionTrl,resources/DB.BMP,resources/DG.BMP,Door2,0.325000057,-0.006481489,1,0,0,0.6623,optionRight,40,185,1,3,0,3,0,1,,,,,,,,,,,,,,,,,,,,,,,,,,,,,,,,,,,,,,,
,,,,,,,,2023-08-16_08h47.32.117,HF_wild_card,2022.2.4,Win32,60.07449237,63e5404324177f4d7f6c0c13,64d2fd46c836a06233681665,64dc7efe60e3fc75fffeb1b8,,,,,,,decisionTrl,resources/DB.BMP,resources/DG.BMP,Door2,0.324074074,0.020370377,1,0,0,0.5788,optionRight,20,205,1,4,0,4,0,1,,,,,,,,,,,,,,,,,,,,,,,,,,,,,,,,,,,,,,,
,,,,,,,,2023-08-16_08h47.32.117,HF_wild_card,2022.2.4,Win32,60.07449237,63e5404324177f4d7f6c0c13,64d2fd46c836a06233681665,64dc7efe60e3fc75fffeb1b8,,,,,,,sngl,resources/DG.BMP,resources/Empty.png,Door2,-0.331481474,-0.033333355,1,0,0,0.9459,optionLeft,40,245,1,5,0,5,0,1,,,,,,,,,,,,,,,,,,,,,,,,,,,,,,,,,,,,,,,
,,,,,,,,2023-08-16_08h47.32.117,HF_wild_card,2022.2.4,Win32,60.07449237,63e5404324177f4d7f6c0c13,64d2fd46c836a06233681665,64dc7efe60e3fc75fffeb1b8,,,,,,,decisionTrl,resources/DG.BMP,resources/DB.BMP,Door2,-0.291666667,-0.030555548,1,0,0,1.251,optionLeft,40,285,1,6,0,6,0,1,,,,,,,,,,,,,,,,,,,,,,,,,,,,,,,,,,,,,,,
,,,,,,,,2023-08-16_08h47.32.117,HF_wild_card,2022.2.4,Win32,60.07449237,63e5404324177f4d7f6c0c13,64d2fd46c836a06233681665,64dc7efe60e3fc75fffeb1b8,,,,,,,decisionTrl,resources/DG.BMP,resources/DBN.BMP,WildCard_Ex,0.362037094,0.03611109,1,0,0,0.6605,optionRight,95,380,1,7,0,7,0,1,,,,,,,,,,,,,,,,,,,,,,,,,,,,,,,,,,,,,,,
,,,,,,,,2023-08-16_08h47.32.117,HF_wild_card,2022.2.4,Win32,60.07449237,63e5404324177f4d7f6c0c13,64d2fd46c836a06233681665,64dc7efe60e3fc75fffeb1b8,,,,,,,sngl,resources/DY.BMP,resources/Empty.png,Door3,-0.253703718,0.000925912,1,0,0,0.5484,optionLeft,70,450,1,8,0,8,0,1,,,,,,,,,,,,,,,,,,,,,,,,,,,,,,,,,,,,,,,
,,,,,,,,2023-08-16_08h47.32.117,HF_wild_card,2022.2.4,Win32,60.07449237,63e5404324177f4d7f6c0c13,64d2fd46c836a06233681665,64dc7efe60e3fc75fffeb1b8,,,,,,,decisionTrl,resources/DBN.BMP,resources/DB.BMP,Door1,0.275000042,0.009259259,1,0,0,0.7259,optionRight,30,480,1,9,0,9,0,1,,,,,,,,,,,,,,,,,,,,,,,,,,,,,,,,,,,,,,,
,,,,,,,,2023-08-16_08h47.32.117,HF_wild_card,2022.2.4,Win32,60.07449237,63e5404324177f4d7f6c0c13,64d2fd46c836a06233681665,64dc7efe60e3fc75fffeb1b8,,,,,,,sngl,resources/DBN.BMP,resources/Empty.png,WildCard_Ex,-0.258333347,-0.00462963,1,0,0,0.7582,optionLeft,95,575,1,10,0,10,0,1,,,,,,,,,,,,,,,,,,,,,,,,,,,,,,,,,,,,,,,
,,,,,,,,2023-08-16_08h47.32.117,HF_wild_card,2022.2.4,Win32,60.07449237,63e5404324177f4d7f6c0c13,64d2fd46c836a06233681665,64dc7efe60e3fc75fffeb1b8,,,,,,,sngl,resources/DB.BMP,resources/Empty.png,Door1,-0.25,-0.038888896,1,0,0,0.7165,optionLeft,30,605,1,11,0,11,0,1,,,,,,,,,,,,,,,,,,,,,,,,,,,,,,,,,,,,,,,
,,,,,,,,2023-08-16_08h47.32.117,HF_wild_card,2022.2.4,Win32,60.07449237,63e5404324177f4d7f6c0c13,64d2fd46c836a06233681665,64dc7efe60e3fc75fffeb1b8,,,,,,,decisionTrl,resources/DBN.BMP,resources/DG.BMP,WildCard_Ex,-0.299074067,-0.013888889,1,0,0,0.5658,optionLeft,5,610,1,12,0,12,0,1,,,,,,,,,,,,,,,,,,,,,,,,,,,,,,,,,,,,,,,
,,,,,,,,2023-08-16_08h47.32.117,HF_wild_card,2022.2.4,Win32,60.07449237,63e5404324177f4d7f6c0c13,64d2fd46c836a06233681665,64dc7efe60e3fc75fffeb1b8,,,,,,,decisionTrl,resources/DY.BMP,resources/DR.BMP,Door3,-0.312962956,-0.030555548,1,0,0,0.546,optionLeft,70,680,1,13,0,13,0,1,,,,,,,,,,,,,,,,,,,,,,,,,,,,,,,,,,,,,,,
,,,,,,,,2023-08-16_08h47.32.117,HF_wild_card,2022.2.4,Win32,60.07449237,63e5404324177f4d7f6c0c13,64d2fd46c836a06233681665,64dc7efe60e3fc75fffeb1b8,,,,,,,decisionTrl,resources/DR.BMP,resources/DY.BMP,Door4,-0.314814815,-0.063888903,1,0,0,0.8789,optionLeft,80,760,1,14,0,14,0,1,,,,,,,,,,,,,,,,,,,,,,,,,,,,,,,,,,,,,,,
,,,,,,,,2023-08-16_08h47.32.117,HF_wild_card,2022.2.4,Win32,60.07449237,63e5404324177f4d7f6c0c13,64d2fd46c836a06233681665,64dc7efe60e3fc75fffeb1b8,,,,,,,ctch,resources/DB.BMP,resources/DR.BMP,Door4,0.402777778,-0.014814836,1,0,0,0.4794,optionRight,60,820,1,15,0,15,0,1,,,,,,,,,,,,,,,,,,,,,,,,,,,,,,,,,,,,,,,
,,,,,,,,2023-08-16_08h47.32.117,HF_wild_card,2022.2.4,Win32,60.07449237,63e5404324177f4d7f6c0c13,64d2fd46c836a06233681665,64dc7efe60e3fc75fffeb1b8,,,,,,,sngl,resources/DR.BMP,resources/Empty.png,Door4,-0.318518497,-0.071296303,1,0,0,0.9485,optionLeft,80,900,1,16,0,16,0,1,,,,,,,,,,,,,,,,,,,,,,,,,,,,,,,,,,,,,,,
,,,,,,,,2023-08-16_08h47.32.117,HF_wild_card,2022.2.4,Win32,60.07449237,63e5404324177f4d7f6c0c13,64d2fd46c836a06233681665,64dc7efe60e3fc75fffeb1b8,,,,,,,decisionTrl,resources/DG.BMP,resources/DB.BMP,Door1,0.359259288,-0.0074074,1,0,0,0.5154,optionRight,30,930,1,17,0,17,0,1,,,,,,,,,,,,,,,,,,,,,,,,,,,,,,,,,,,,,,,
,,,,,,,,2023-08-16_08h47.32.117,HF_wild_card,2022.2.4,Win32,60.07449237,63e5404324177f4d7f6c0c13,64d2fd46c836a06233681665,64dc7efe60e3fc75fffeb1b8,,,,,,,decisionTrl,resources/DR.BMP,resources/DBN.BMP,WildCard_Ex,0.273148148,-0.000925947,1,0,0,0.5156,optionRight,95,1025,1,18,0,18,0,1,,,,,,,,,,,,,,,,,,,,,,,,,,,,,,,,,,,,,,,
,,,,,,,,2023-08-16_08h47.32.117,HF_wild_card,2022.2.4,Win32,60.07449237,63e5404324177f4d7f6c0c13,64d2fd46c836a06233681665,64dc7efe60e3fc75fffeb1b8,,,,,,,decisionTrl,resources/DY.BMP,resources/DR.BMP,Door3,-0.321296303,-0.060185185,1,0,0,1.832,optionLeft,70,1095,1,19,0,19,0,1,,,,,,,,,,,,,,,,,,,,,,,,,,,,,,,,,,,,,,,
,,,,,,,,2023-08-16_08h47.32.117,HF_wild_card,2022.2.4,Win32,60.07449237,63e5404324177f4d7f6c0c13,64d2fd46c836a06233681665,64dc7efe60e3fc75fffeb1b8,,,,,,,ctch,resources/DR.BMP,resources/DB.BMP,Door4,-0.295370384,-0.061111132,1,0,0,0.649,optionLeft,80,1175,1,20,0,20,0,1,,,,,,,,,,,,,,,,,,,,,,,,,,,,,,,,,,,,,,,
,,,,,,,,2023-08-16_08h47.32.117,HF_wild_card,2022.2.4,Win32,60.07449237,63e5404324177f4d7f6c0c13,64d2fd46c836a06233681665,64dc7efe60e3fc75fffeb1b8,,,,,,,decisionTrl,resources/DR.BMP,resources/DY.BMP,Door4,-0.373148141,-0.056481503,1,0,0,0.4788,optionLeft,80,1255,1,21,0,21,0,1,,,,,,,,,,,,,,,,,,,,,,,,,,,,,,,,,,,,,,,
,,,,,,,,2023-08-16_08h47.32.117,HF_wild_card,2022.2.4,Win32,60.07449237,63e5404324177f4d7f6c0c13,64d2fd46c836a06233681665,64dc7efe60e3fc75fffeb1b8,,,,,,,decisionTrl,resources/DBN.BMP,resources/DY.BMP,WildCard_Ex,-0.368518511,-0.052777785,1,0,0,0.4492,optionLeft,95,1350,1,22,0,22,0,1,,,,,,,,,,,,,,,,,,,,,,,,,,,,,,,,,,,,,,,
,,,,,,,,2023-08-16_08h47.32.117,HF_wild_card,2022.2.4,Win32,60.07449237,63e5404324177f4d7f6c0c13,64d2fd46c836a06233681665,64dc7efe60e3fc75fffeb1b8,,,,,,,sngl,resources/Empty.png,resources/DB.BMP,Door1,0.251851894,-0.025000007,1,0,0,0.9457,optionRight,30,1380,1,23,0,23,0,1,,,,,,,,,,,,,,,,,,,,,,,,,,,,,,,,,,,,,,,
,,,,,,,,2023-08-16_08h47.32.117,HF_wild_card,2022.2.4,Win32,60.07449237,63e5404324177f4d7f6c0c13,64d2fd46c836a06233681665,64dc7efe60e3fc75fffeb1b8,,,,,,,sngl,resources/Empty.png,resources/DG.BMP,Door2,0.334259316,0,1,0,0,0.9816,optionRight,20,1400,1,24,0,24,0,1,,,,,,,,,,,,,,,,,,,,,,,,,,,,,,,,,,,,,,,
,,,,,,,,2023-08-16_08h47.32.117,HF_wild_card,2022.2.4,Win32,60.07449237,63e5404324177f4d7f6c0c13,64d2fd46c836a06233681665,64dc7efe60e3fc75fffeb1b8,,,,,,,decisionTrl,resources/DG.BMP,resources/DB.BMP,Door2,-0.328703704,-0.030555548,1,0,0,0.5497,optionLeft,20,1420,1,25,0,25,0,1,,,,,,,,,,,,,,,,,,,,,,,,,,,,,,,,,,,,,,,
,,,,,,,,2023-08-16_08h47.32.117,HF_wild_card,2022.2.4,Win32,60.07449237,63e5404324177f4d7f6c0c13,64d2fd46c836a06233681665,64dc7efe60e3fc75fffeb1b8,,,,,,,decisionTrl,resources/DG.BMP,resources/DB.BMP,Door1,0.411111196,0.00462963,1,0,0,0.474,optionRight,30,1450,1,26,0,26,0,1,,,,,,,,,,,,,,,,,,,,,,,,,,,,,,,,,,,,,,,
,,,,,,,,2023-08-16_08h47.32.117,HF_wild_card,2022.2.4,Win32,60.07449237,63e5404324177f4d7f6c0c13,64d2fd46c836a06233681665,64dc7efe60e3fc75fffeb1b8,,,,,,,decisionTrl,resources/DB.BMP,resources/DBN.BMP,WildCard_Ex,0.37037037,-0.001851859,1,0,0,0.4574,optionRight,5,1455,1,27,0,27,0,1,,,,,,,,,,,,,,,,,,,,,,,,,,,,,,,,,,,,,,,
,,,,,,,,2023-08-16_08h47.32.117,HF_wild_card,2022.2.4,Win32,60.07449237,63e5404324177f4d7f6c0c13,64d2fd46c836a06233681665,64dc7efe60e3fc75fffeb1b8,,,,,,,sngl,resources/Empty.png,resources/DY.BMP,Door3,0.273148148,0.000925912,1,0,0,0.5485,optionRight,70,1525,1,28,0,28,0,1,,,,,,,,,,,,,,,,,,,,,,,,,,,,,,,,,,,,,,,
,,,,,,,,2023-08-16_08h47.32.117,HF_wild_card,2022.2.4,Win32,60.07449237,63e5404324177f4d7f6c0c13,64d2fd46c836a06233681665,64dc7efe60e3fc75fffeb1b8,,,,,,,decisionTrl,resources/DR.BMP,resources/DY.BMP,Door3,0.340740769,-0.005555577,1,0,0,0.4302,optionRight,70,1595,1,29,0,29,0,1,,,,,,,,,,,,,,,,,,,,,,,,,,,,,,,,,,,,,,,
,,,,,,,,2023-08-16_08h47.32.117,HF_wild_card,2022.2.4,Win32,60.07449237,63e5404324177f4d7f6c0c13,64d2fd46c836a06233681665,64dc7efe60e3fc75fffeb1b8,,,,,,,decisionTrl,resources/DR.BMP,resources/DY.BMP,Door3,0.321296268,0.003703683,1,0,0,0.4324,optionRight,70,1665,1,30,0,30,0,1,,,,,,,,,,,,,,,,,,,,,,,,,,,,,,,,,,,,,,,
,,,,,,,,2023-08-16_08h47.32.117,HF_wild_card,2022.2.4,Win32,60.07449237,63e5404324177f4d7f6c0c13,64d2fd46c836a06233681665,64dc7efe60e3fc75fffeb1b8,,,,,,,sngl,resources/DBN.BMP,resources/Empty.png,WildCard_Ex,-0.205555527,0.00462963,1,0,0,0.9656,optionLeft,5,1670,1,31,0,31,0,1,,,,,,,,,,,,,,,,,,,,,,,,,,,,,,,,,,,,,,,
,,,,,,,,2023-08-16_08h47.32.117,HF_wild_card,2022.2.4,Win32,60.07449237,63e5404324177f4d7f6c0c13,64d2fd46c836a06233681665,64dc7efe60e3fc75fffeb1b8,,,,,,,decisionTrl,resources/DY.BMP,resources/DR.BMP,Door4,0.393518519,0.034259266,1,0,0,0.4805,optionRight,80,1750,1,32,0,32,0,1,,,,,,,,,,,,,,,,,,,,,,,,,,,,,,,,,,,,,,,
,,,,,,,,2023-08-16_08h47.32.117,HF_wild_card,2022.2.4,Win32,60.07449237,63e5404324177f4d7f6c0c13,64d2fd46c836a06233681665,64dc7efe60e3fc75fffeb1b8,,,,,,,ctch,resources/DY.BMP,resources/DG.BMP,Door2,0.29814812,0.018518519,1,0,0,0.5495,optionRight,20,1770,1,33,0,33,0,1,,,,,,,,,,,,,,,,,,,,,,,,,,,,,,,,,,,,,,,
,,,,,,,,2023-08-16_08h47.32.117,HF_wild_card,2022.2.4,Win32,60.07449237,63e5404324177f4d7f6c0c13,64d2fd46c836a06233681665,64dc7efe60e3fc75fffeb1b8,,,,,,,ctch,resources/DY.BMP,resources/DG.BMP,Door3,-0.488888882,0.03148146,1,0,0,0.5989,optionLeft,70,1840,1,34,0,34,0,1,,,,,,,,,,,,,,,,,,,,,,,,,,,,,,,,,,,,,,,
,,,,,,,,2023-08-16_08h47.32.117,HF_wild_card,2022.2.4,Win32,60.07449237,63e5404324177f4d7f6c0c13,64d2fd46c836a06233681665,64dc7efe60e3fc75fffeb1b8,,,,,,,decisionTrl,resources/DY.BMP,resources/DR.BMP,Door3,-0.297222208,-0.005555577,1,0,0,1.4959,optionLeft,70,1910,1,35,0,35,0,1,,,,,,,,,,,,,,,,,,,,,,,,,,,,,,,,,,,,,,,
,,,,,,,,2023-08-16_08h47.32.117,HF_wild_card,2022.2.4,Win32,60.07449237,63e5404324177f4d7f6c0c13,64d2fd46c836a06233681665,64dc7efe60e3fc75fffeb1b8,,,,,,,decisionTrl,resources/DY.BMP,resources/DBN.BMP,Door3,-0.26944443,-0.023148148,1,0,0,0.9838,optionLeft,70,1980,1,36,0,36,0,1,,,,,,,,,,,,,,,,,,,,,,,,,,,,,,,,,,,,,,,
,,,,,,,,2023-08-16_08h47.32.117,HF_wild_card,2022.2.4,Win32,60.07449237,63e5404324177f4d7f6c0c13,64d2fd46c836a06233681665,64dc7efe60e3fc75fffeb1b8,,,,,,,decisionTrl,resources/DB.BMP,resources/DG.BMP,Door1,-0.284259231,-0.034259266,1,0,0,0.6317,optionLeft,30,2010,1,37,0,37,0,1,,,,,,,,,,,,,,,,,,,,,,,,,,,,,,,,,,,,,,,
,,,,,,,,2023-08-16_08h47.32.117,HF_wild_card,2022.2.4,Win32,60.07449237,63e5404324177f4d7f6c0c13,64d2fd46c836a06233681665,64dc7efe60e3fc75fffeb1b8,,,,,,,sngl,resources/Empty.png,resources/DR.BMP,Door4,0.374074159,-0.006481489,1,0,0,0.6962,optionRight,60,2070,1,38,0,38,0,1,,,,,,,,,,,,,,,,,,,,,,,,,,,,,,,,,,,,,,,
,,,,,,,,2023-08-16_08h47.32.117,HF_wild_card,2022.2.4,Win32,60.07449237,63e5404324177f4d7f6c0c13,64d2fd46c836a06233681665,64dc7efe60e3fc75fffeb1b8,,,,,,,sngl,resources/Empty.png,resources/DBN.BMP,WildCard_Ex,0.428703732,0.003703683,1,0,0,0.6634,optionRight,5,2075,1,39,0,39,0,1,,,,,,,,,,,,,,,,,,,,,,,,,,,,,,,,,,,,,,,
,,,,,,,,2023-08-16_08h47.32.117,HF_wild_card,2022.2.4,Win32,60.07449237,63e5404324177f4d7f6c0c13,64d2fd46c836a06233681665,64dc7efe60e3fc75fffeb1b8,,,,,,,decisionTrl,resources/DBN.BMP,resources/DR.BMP,WildCard_Ex,-0.259259259,-0.014814836,1,0,0,0.5624,optionLeft,95,2170,1,40,0,40,0,1,,,,,,,,,,,,,,,,,,,,,,,,,,,,,,,,,,,,,,,
,,,,,,,,2023-08-16_08h47.32.117,HF_wild_card,2022.2.4,Win32,60.07449237,63e5404324177f4d7f6c0c13,64d2fd46c836a06233681665,64dc7efe60e3fc75fffeb1b8,,,,,,,decisionTrl,resources/DB.BMP,resources/DG.BMP,Door1,-0.236111111,-0.029629637,1,0,0,0.4282,optionLeft,30,2200,1,41,0,41,0,1,,,,,,,,,,,,,,,,,,,,,,,,,,,,,,,,,,,,,,,
,,,,,,,,2023-08-16_08h47.32.117,HF_wild_card,2022.2.4,Win32,60.07449237,63e5404324177f4d7f6c0c13,64d2fd46c836a06233681665,64dc7efe60e3fc75fffeb1b8,,,,,,,ctch,resources/DG.BMP,resources/DY.BMP,Door2,-0.229629587,-0.025000007,1,0,0,0.4491,optionLeft,20,2220,1,42,0,42,0,1,,,,,,,,,,,,,,,,,,,,,,,,,,,,,,,,,,,,,,,
,,,,,,,,2023-08-16_08h47.32.117,HF_wild_card,2022.2.4,Win32,60.07449237,63e5404324177f4d7f6c0c13,64d2fd46c836a06233681665,64dc7efe60e3fc75fffeb1b8,,,,,,,ctch,resources/DR.BMP,resources/DB.BMP,Door4,-0.279629601,-0.040740755,1,0,0,0.413,optionLeft,80,2300,1,43,0,43,0,1,,,,,,,,,,,,,,,,,,,,,,,,,,,,,,,,,,,,,,,
,,,,,,,,2023-08-16_08h47.32.117,HF_wild_card,2022.2.4,Win32,60.07449237,63e5404324177f4d7f6c0c13,64d2fd46c836a06233681665,64dc7efe60e3fc75fffeb1b8,,,,,,,,,,,,,,,,,,,,,,,,,,0,0,0,0,1,,,,,,,,,,,,,,,,,,,,,,,,,,,,,,,,,,
,,,,,,,,2023-08-16_08h47.32.117,HF_wild_card,2022.2.4,Win32,60.07449237,63e5404324177f4d7f6c0c13,64d2fd46c836a06233681665,64dc7efe60e3fc75fffeb1b8,,,,,,,decisionTrl,resources/DR.BMP,resources/DY.BMP,Door3,0.263888889,-0.141666695,1,0,0,0.6421,optionRight,70,2370,2,0,0,0,0,1,,,,,,,,,,,,,,,,,,,,,,,,,,,,,,,,,,,,,,,
,,,,,,,,2023-08-16_08h47.32.117,HF_wild_card,2022.2.4,Win32,60.07449237,63e5404324177f4d7f6c0c13,64d2fd46c836a06233681665,64dc7efe60e3fc75fffeb1b8,,,,,,,ctch,resources/DY.BMP,resources/DG.BMP,Door2,0.309259344,-0.035185178,1,0,0,0.4797,optionRight,40,2410,2,1,0,1,0,1,,,,,,,,,,,,,,,,,,,,,,,,,,,,,,,,,,,,,,,
,,,,,,,,2023-08-16_08h47.32.117,HF_wild_card,2022.2.4,Win32,60.07449237,63e5404324177f4d7f6c0c13,64d2fd46c836a06233681665,64dc7efe60e3fc75fffeb1b8,,,,,,,decisionTrl,resources/DY.BMP,resources/DR.BMP,Door4,0.37037037,-0.040740755,1,0,0,0.3964,optionRight,80,2490,2,2,0,2,0,1,,,,,,,,,,,,,,,,,,,,,,,,,,,,,,,,,,,,,,,
,,,,,,,,2023-08-16_08h47.32.117,HF_wild_card,2022.2.4,Win32,60.07449237,63e5404324177f4d7f6c0c13,64d2fd46c836a06233681665,64dc7efe60e3fc75fffeb1b8,,,,,,,decisionTrl,resources/DBN.BMP,resources/DB.BMP,Door1,0.342592593,-0.025925919,1,0,0,0.4659,optionRight,30,2520,2,3,0,3,0,1,,,,,,,,,,,,,,,,,,,,,,,,,,,,,,,,,,,,,,,
,,,,,,,,2023-08-16_08h47.32.117,HF_wild_card,2022.2.4,Win32,60.07449237,63e5404324177f4d7f6c0c13,64d2fd46c836a06233681665,64dc7efe60e3fc75fffeb1b8,,,,,,,sngl,resources/Empty.png,resources/DR.BMP,Door4,0.347222222,-0.041666667,1,0,0,0.4126,optionRight,80,2600,2,4,0,4,0,1,,,,,,,,,,,,,,,,,,,,,,,,,,,,,,,,,,,,,,,
,,,,,,,,2023-08-16_08h47.32.117,HF_wild_card,2022.2.4,Win32,60.07449237,63e5404324177f4d7f6c0c13,64d2fd46c836a06233681665,64dc7efe60e3fc75fffeb1b8,,,,,,,decisionTrl,resources/DR.BMP,resources/DBN.BMP,WildCard_Ex,0.306481538,-0.035185178,1,0,0,0.4127,optionRight,5,2605,2,5,0,5,0,1,,,,,,,,,,,,,,,,,,,,,,,,,,,,,,,,,,,,,,,
,,,,,,,,2023-08-16_08h47.32.117,HF_wild_card,2022.2.4,Win32,60.07449237,63e5404324177f4d7f6c0c13,64d2fd46c836a06233681665,64dc7efe60e3fc75fffeb1b8,,,,,,,decisionTrl,resources/DBN.BMP,resources/DG.BMP,Door2,0.285185213,-0.008333347,1,0,0,0.4294,optionRight,40,2645,2,6,0,6,0,1,,,,,,,,,,,,,,,,,,,,,,,,,,,,,,,,,,,,,,,
,,,,,,,,2023-08-16_08h47.32.117,HF_wild_card,2022.2.4,Win32,60.07449237,63e5404324177f4d7f6c0c13,64d2fd46c836a06233681665,64dc7efe60e3fc75fffeb1b8,,,,,,,ctch,resources/DB.BMP,resources/DR.BMP,Door1,-0.297222208,-0.026851866,1,0,0,0.3824,optionLeft,30,2675,2,7,0,7,0,1,,,,,,,,,,,,,,,,,,,,,,,,,,,,,,,,,,,,,,,
,,,,,,,,2023-08-16_08h47.32.117,HF_wild_card,2022.2.4,Win32,60.07449237,63e5404324177f4d7f6c0c13,64d2fd46c836a06233681665,64dc7efe60e3fc75fffeb1b8,,,,,,,ctch,resources/DG.BMP,resources/DY.BMP,Door2,-0.253703718,-0.044444437,1,0,0,0.3464,optionLeft,40,2715,2,8,0,8,0,1,,,,,,,,,,,,,,,,,,,,,,,,,,,,,,,,,,,,,,,
,,,,,,,,2023-08-16_08h47.32.117,HF_wild_card,2022.2.4,Win32,60.07449237,63e5404324177f4d7f6c0c13,64d2fd46c836a06233681665,64dc7efe60e3fc75fffeb1b8,,,,,,,sngl,resources/DB.BMP,resources/Empty.png,Door1,-0.272222236,-0.068518533,1,0,0,0.3623,optionLeft,30,2745,2,9,0,9,0,1,,,,,,,,,,,,,,,,,,,,,,,,,,,,,,,,,,,,,,,
,,,,,,,,2023-08-16_08h47.32.117,HF_wild_card,2022.2.4,Win32,60.07449237,63e5404324177f4d7f6c0c13,64d2fd46c836a06233681665,64dc7efe60e3fc75fffeb1b8,,,,,,,ctch,resources/DG.BMP,resources/DY.BMP,Door2,-0.241666653,-0.051851873,1,0,0,0.3323,optionLeft,40,2785,2,10,0,10,0,1,,,,,,,,,,,,,,,,,,,,,,,,,,,,,,,,,,,,,,,
,,,,,,,,2023-08-16_08h47.32.117,HF_wild_card,2022.2.4,Win32,60.07449237,63e5404324177f4d7f6c0c13,64d2fd46c836a06233681665,64dc7efe60e3fc75fffeb1b8,,,,,,,decisionTrl,resources/DR.BMP,resources/DY.BMP,Door4,-0.288888861,-0.072222215,1,0,0,0.5649,optionLeft,80,2865,2,11,0,11,0,1,,,,,,,,,,,,,,,,,,,,,,,,,,,,,,,,,,,,,,,
,,,,,,,,2023-08-16_08h47.32.117,HF_wild_card,2022.2.4,Win32,60.07449237,63e5404324177f4d7f6c0c13,64d2fd46c836a06233681665,64dc7efe60e3fc75fffeb1b8,,,,,,,decisionTrl,resources/DG.BMP,resources/DB.BMP,Door2,-0.263888889,-0.083333333,1,0,0,0.7113,optionLeft,20,2885,2,12,0,12,0,1,,,,,,,,,,,,,,,,,,,,,,,,,,,,,,,,,,,,,,,
,,,,,,,,2023-08-16_08h47.32.117,HF_wild_card,2022.2.4,Win32,60.07449237,63e5404324177f4d7f6c0c13,64d2fd46c836a06233681665,64dc7efe60e3fc75fffeb1b8,,,,,,,sngl,resources/Empty.png,resources/DY.BMP,Door3,0.19722225,-0.042592614,1,0,0,0.8476,optionRight,70,2955,2,13,0,13,0,1,,,,,,,,,,,,,,,,,,,,,,,,,,,,,,,,,,,,,,,
,,,,,,,,2023-08-16_08h47.32.117,HF_wild_card,2022.2.4,Win32,60.07449237,63e5404324177f4d7f6c0c13,64d2fd46c836a06233681665,64dc7efe60e3fc75fffeb1b8,,,,,,,sngl,resources/DR.BMP,resources/Empty.png,Door4,-0.272222236,-0.057407414,1,0,0,0.5621,optionLeft,60,3015,2,14,0,14,0,1,,,,,,,,,,,,,,,,,,,,,,,,,,,,,,,,,,,,,,,
,,,,,,,,2023-08-16_08h47.32.117,HF_wild_card,2022.2.4,Win32,60.07449237,63e5404324177f4d7f6c0c13,64d2fd46c836a06233681665,64dc7efe60e3fc75fffeb1b8,,,,,,,sngl,resources/Empty.png,resources/DB.BMP,Door1,0.309259344,-0.026851866,1,0,0,0.8149,optionRight,30,3045,2,15,0,15,0,1,,,,,,,,,,,,,,,,,,,,,,,,,,,,,,,,,,,,,,,
,,,,,,,,2023-08-16_08h47.32.117,HF_wild_card,2022.2.4,Win32,60.07449237,63e5404324177f4d7f6c0c13,64d2fd46c836a06233681665,64dc7efe60e3fc75fffeb1b8,,,,,,,decisionTrl,resources/DY.BMP,resources/DR.BMP,Door3,-0.272222236,-0.076851845,1,0,0,0.8324,optionLeft,70,3115,2,16,0,16,0,1,,,,,,,,,,,,,,,,,,,,,,,,,,,,,,,,,,,,,,,
,,,,,,,,2023-08-16_08h47.32.117,HF_wild_card,2022.2.4,Win32,60.07449237,63e5404324177f4d7f6c0c13,64d2fd46c836a06233681665,64dc7efe60e3fc75fffeb1b8,,,,,,,sngl,resources/Empty.png,resources/DBN.BMP,WildCard_Ex,0.283333319,0,1,0,0,0.779,optionRight,5,3120,2,17,0,17,0,1,,,,,,,,,,,,,,,,,,,,,,,,,,,,,,,,,,,,,,,
,,,,,,,,2023-08-16_08h47.32.117,HF_wild_card,2022.2.4,Win32,60.07449237,63e5404324177f4d7f6c0c13,64d2fd46c836a06233681665,64dc7efe60e3fc75fffeb1b8,,,,,,,decisionTrl,resources/DB.BMP,resources/DG.BMP,Door1,-0.279629601,-0.041666667,1,0,0,0.5129,optionLeft,30,3150,2,18,0,18,0,1,,,,,,,,,,,,,,,,,,,,,,,,,,,,,,,,,,,,,,,
,,,,,,,,2023-08-16_08h47.32.117,HF_wild_card,2022.2.4,Win32,60.07449237,63e5404324177f4d7f6c0c13,64d2fd46c836a06233681665,64dc7efe60e3fc75fffeb1b8,,,,,,,ctch,resources/DR.BMP,resources/DB.BMP,Door4,-0.267592607,-0.061111132,1,0,0,0.3989,optionLeft,80,3230,2,19,0,19,0,1,,,,,,,,,,,,,,,,,,,,,,,,,,,,,,,,,,,,,,,
,,,,,,,,2023-08-16_08h47.32.117,HF_wild_card,2022.2.4,Win32,60.07449237,63e5404324177f4d7f6c0c13,64d2fd46c836a06233681665,64dc7efe60e3fc75fffeb1b8,,,,,,,decisionTrl,resources/DY.BMP,resources/DBN.BMP,Door3,-0.237962935,-0.049074067,1,0,0,0.645,optionLeft,70,3300,2,20,0,20,0,1,,,,,,,,,,,,,,,,,,,,,,,,,,,,,,,,,,,,,,,
,,,,,,,,2023-08-16_08h47.32.117,HF_wild_card,2022.2.4,Win32,60.07449237,63e5404324177f4d7f6c0c13,64d2fd46c836a06233681665,64dc7efe60e3fc75fffeb1b8,,,,,,,decisionTrl,resources/DY.BMP,resources/DR.BMP,Door4,0.272222236,-0.017592607,1,0,0,0.4636,optionRight,60,3360,2,21,0,21,0,1,,,,,,,,,,,,,,,,,,,,,,,,,,,,,,,,,,,,,,,
,,,,,,,,2023-08-16_08h47.32.117,HF_wild_card,2022.2.4,Win32,60.07449237,63e5404324177f4d7f6c0c13,64d2fd46c836a06233681665,64dc7efe60e3fc75fffeb1b8,,,,,,,decisionTrl,resources/DBN.BMP,resources/DR.BMP,WildCard_Ex,-0.217592593,-0.046296296,1,0,0,0.4162,optionLeft,95,3455,2,22,0,22,0,1,,,,,,,,,,,,,,,,,,,,,,,,,,,,,,,,,,,,,,,
,,,,,,,,2023-08-16_08h47.32.117,HF_wild_card,2022.2.4,Win32,60.07449237,63e5404324177f4d7f6c0c13,64d2fd46c836a06233681665,64dc7efe60e3fc75fffeb1b8,,,,,,,decisionTrl,resources/DB.BMP,resources/DG.BMP,Door2,0.280555584,-0.015740748,1,0,0,0.4986,optionRight,20,3475,2,23,0,23,0,1,,,,,,,,,,,,,,,,,,,,,,,,,,,,,,,,,,,,,,,
,,,,,,,,2023-08-16_08h47.32.117,HF_wild_card,2022.2.4,Win32,60.07449237,63e5404324177f4d7f6c0c13,64d2fd46c836a06233681665,64dc7efe60e3fc75fffeb1b8,,,,,,,decisionTrl,resources/DR.BMP,resources/DY.BMP,Door4,-0.207407422,-0.055555556,1,0,0,0.495,optionLeft,80,3555,2,24,0,24,0,1,,,,,,,,,,,,,,,,,,,,,,,,,,,,,,,,,,,,,,,
,,,,,,,,2023-08-16_08h47.32.117,HF_wild_card,2022.2.4,Win32,60.07449237,63e5404324177f4d7f6c0c13,64d2fd46c836a06233681665,64dc7efe60e3fc75fffeb1b8,,,,,,,decisionTrl,resources/DG.BMP,resources/DB.BMP,Door2,-0.203703704,-0.063888903,1,0,0,0.4143,optionLeft,40,3595,2,25,0,25,0,1,,,,,,,,,,,,,,,,,,,,,,,,,,,,,,,,,,,,,,,
,,,,,,,,2023-08-16_08h47.32.117,HF_wild_card,2022.2.4,Win32,60.07449237,63e5404324177f4d7f6c0c13,64d2fd46c836a06233681665,64dc7efe60e3fc75fffeb1b8,,,,,,,decisionTrl,resources/DG.BMP,resources/DB.BMP,Door1,0.359259288,-0.070370392,1,0,0,0.3804,optionRight,30,3625,2,26,0,26,0,1,,,,,,,,,,,,,,,,,,,,,,,,,,,,,,,,,,,,,,,
,,,,,,,,2023-08-16_08h47.32.117,HF_wild_card,2022.2.4,Win32,60.07449237,63e5404324177f4d7f6c0c13,64d2fd46c836a06233681665,64dc7efe60e3fc75fffeb1b8,,,,,,,sngl,resources/DBN.BMP,resources/Empty.png,WildCard_Ex,-0.255555541,-0.057407414,1,0,0,0.3488,optionLeft,95,3720,2,27,0,27,0,1,,,,,,,,,,,,,,,,,,,,,,,,,,,,,,,,,,,,,,,
,,,,,,,,2023-08-16_08h47.32.117,HF_wild_card,2022.2.4,Win32,60.07449237,63e5404324177f4d7f6c0c13,64d2fd46c836a06233681665,64dc7efe60e3fc75fffeb1b8,,,,,,,sngl,resources/Empty.png,resources/DG.BMP,Door2,0.253703718,-0.028703725,1,0,0,0.8796,optionRight,40,3760,2,28,0,28,0,1,,,,,,,,,,,,,,,,,,,,,,,,,,,,,,,,,,,,,,,
,,,,,,,,2023-08-16_08h47.32.117,HF_wild_card,2022.2.4,Win32,60.07449237,63e5404324177f4d7f6c0c13,64d2fd46c836a06233681665,64dc7efe60e3fc75fffeb1b8,,,,,,,ctch,resources/DB.BMP,resources/DR.BMP,Door1,-0.161111125,-0.044444437,1,0,0,0.5308,optionLeft,30,3790,2,29,0,29,0,1,,,,,,,,,,,,,,,,,,,,,,,,,,,,,,,,,,,,,,,
,,,,,,,,2023-08-16_08h47.32.117,HF_wild_card,2022.2.4,Win32,60.07449237,63e5404324177f4d7f6c0c13,64d2fd46c836a06233681665,64dc7efe60e3fc75fffeb1b8,,,,,,,decisionTrl,resources/DY.BMP,resources/DR.BMP,Door4,0.531481566,-0.034259266,1,0,0,0.3477,optionRight,80,3870,2,30,0,30,0,1,,,,,,,,,,,,,,,,,,,,,,,,,,,,,,,,,,,,,,,
,,,,,,,,2023-08-16_08h47.32.117,HF_wild_card,2022.2.4,Win32,60.07449237,63e5404324177f4d7f6c0c13,64d2fd46c836a06233681665,64dc7efe60e3fc75fffeb1b8,,,,,,,decisionTrl,resources/DG.BMP,resources/DBN.BMP,WildCard_Ex,0.348148205,-0.035185178,1,0,0,0.5107,optionRight,5,3875,2,31,0,31,0,1,,,,,,,,,,,,,,,,,,,,,,,,,,,,,,,,,,,,,,,
,,,,,,,,2023-08-16_08h47.32.117,HF_wild_card,2022.2.4,Win32,60.07449237,63e5404324177f4d7f6c0c13,64d2fd46c836a06233681665,64dc7efe60e3fc75fffeb1b8,,,,,,,decisionTrl,resources/DR.BMP,resources/DY.BMP,Door4,-0.353703711,-0.053703697,1,0,0,0.3791,optionLeft,60,3935,2,32,0,32,0,1,,,,,,,,,,,,,,,,,,,,,,,,,,,,,,,,,,,,,,,
,,,,,,,,2023-08-16_08h47.32.117,HF_wild_card,2022.2.4,Win32,60.07449237,63e5404324177f4d7f6c0c13,64d2fd46c836a06233681665,64dc7efe60e3fc75fffeb1b8,,,,,,,decisionTrl,resources/DB.BMP,resources/DG.BMP,Door1,-0.222222222,-0.065740762,1,0,0,0.3298,optionLeft,30,3965,2,33,0,33,0,1,,,,,,,,,,,,,,,,,,,,,,,,,,,,,,,,,,,,,,,
,,,,,,,,2023-08-16_08h47.32.117,HF_wild_card,2022.2.4,Win32,60.07449237,63e5404324177f4d7f6c0c13,64d2fd46c836a06233681665,64dc7efe60e3fc75fffeb1b8,,,,,,,sngl,resources/Empty.png,resources/DBN.BMP,WildCard_Ex,0.272222236,-0.025000007,1,0,0,0.3956,optionRight,95,4060,2,34,0,34,0,1,,,,,,,,,,,,,,,,,,,,,,,,,,,,,,,,,,,,,,,
,,,,,,,,2023-08-16_08h47.32.117,HF_wild_card,2022.2.4,Win32,60.07449237,63e5404324177f4d7f6c0c13,64d2fd46c836a06233681665,64dc7efe60e3fc75fffeb1b8,,,,,,,ctch,resources/DY.BMP,resources/DG.BMP,Door3,-0.187037009,-0.064814815,1,0,0,0.447,optionLeft,70,4130,2,35,0,35,0,1,,,,,,,,,,,,,,,,,,,,,,,,,,,,,,,,,,,,,,,
,,,,,,,,2023-08-16_08h47.32.117,HF_wild_card,2022.2.4,Win32,60.07449237,63e5404324177f4d7f6c0c13,64d2fd46c836a06233681665,64dc7efe60e3fc75fffeb1b8,,,,,,,sngl,resources/DY.BMP,resources/Empty.png,Door3,-0.203703704,-0.059259273,1,0,0,0.6719,optionLeft,70,4200,2,36,0,36,0,1,,,,,,,,,,,,,,,,,,,,,,,,,,,,,,,,,,,,,,,
,,,,,,,,2023-08-16_08h47.32.117,HF_wild_card,2022.2.4,Win32,60.07449237,63e5404324177f4d7f6c0c13,64d2fd46c836a06233681665,64dc7efe60e3fc75fffeb1b8,,,,,,,decisionTrl,resources/DBN.BMP,resources/DY.BMP,Door3,0.297222279,-0.019444466,1,0,0,1.755,optionRight,70,4270,2,37,0,37,0,1,,,,,,,,,,,,,,,,,,,,,,,,,,,,,,,,,,,,,,,
,,,,,,,,2023-08-16_08h47.32.117,HF_wild_card,2022.2.4,Win32,60.07449237,63e5404324177f4d7f6c0c13,64d2fd46c836a06233681665,64dc7efe60e3fc75fffeb1b8,,,,,,,sngl,resources/DG.BMP,resources/Empty.png,Door2,-0.235185199,-0.041666667,1,0,0,0.6281,optionLeft,20,4290,2,38,0,38,0,1,,,,,,,,,,,,,,,,,,,,,,,,,,,,,,,,,,,,,,,
,,,,,,,,2023-08-16_08h47.32.117,HF_wild_card,2022.2.4,Win32,60.07449237,63e5404324177f4d7f6c0c13,64d2fd46c836a06233681665,64dc7efe60e3fc75fffeb1b8,,,,,,,decisionTrl,resources/DG.BMP,resources/DB.BMP,Door2,-0.268518519,-0.041666667,1,0,0,0.4331,optionLeft,20,4310,2,39,0,39,0,1,,,,,,,,,,,,,,,,,,,,,,,,,,,,,,,,,,,,,,,
,,,,,,,,2023-08-16_08h47.32.117,HF_wild_card,2022.2.4,Win32,60.07449237,63e5404324177f4d7f6c0c13,64d2fd46c836a06233681665,64dc7efe60e3fc75fffeb1b8,,,,,,,sngl,resources/DBN.BMP,resources/Empty.png,WildCard_Ex,-0.271296254,-0.042592614,1,0,0,0.4477,optionLeft,5,4315,2,40,0,40,0,1,,,,,,,,,,,,,,,,,,,,,,,,,,,,,,,,,,,,,,,
,,,,,,,,2023-08-16_08h47.32.117,HF_wild_card,2022.2.4,Win32,60.07449237,63e5404324177f4d7f6c0c13,64d2fd46c836a06233681665,64dc7efe60e3fc75fffeb1b8,,,,,,,ctch,resources/DR.BMP,resources/DB.BMP,Door4,-0.25,-0.039814808,1,0,0,0.4215,optionLeft,80,4395,2,41,0,41,0,1,,,,,,,,,,,,,,,,,,,,,,,,,,,,,,,,,,,,,,,
,,,,,,,,2023-08-16_08h47.32.117,HF_wild_card,2022.2.4,Win32,60.07449237,63e5404324177f4d7f6c0c13,64d2fd46c836a06233681665,64dc7efe60e3fc75fffeb1b8,,,,,,,decisionTrl,resources/DB.BMP,resources/DG.BMP,Door1,-0.248148106,-0.054629644,1,0,0,0.4097,optionLeft,30,4425,2,42,0,42,0,1,,,,,,,,,,,,,,,,,,,,,,,,,,,,,,,,,,,,,,,
,,,,,,,,2023-08-16_08h47.32.117,HF_wild_card,2022.2.4,Win32,60.07449237,63e5404324177f4d7f6c0c13,64d2fd46c836a06233681665,64dc7efe60e3fc75fffeb1b8,,,,,,,decisionTrl,resources/DB.BMP,resources/DBN.BMP,WildCard_Ex,0.281481496,-0.023148148,1,0,0,0.4675,optionRight,5,4430,2,43,0,43,0,1,,,,,,,,,,,,,,,,,,,,,,,,,,,,,,,,,,,,,,,
,,,,,,,,2023-08-16_08h47.32.117,HF_wild_card,2022.2.4,Win32,60.07449237,63e5404324177f4d7f6c0c13,64d2fd46c836a06233681665,64dc7efe60e3fc75fffeb1b8,,,,,,,,,,,,,,,,,,,,,,,,,,1,0,1,0,1,,,,,,,,,,,,,,,,,,,,,,,,,,,,,,,,,,
,,,,,,,,2023-08-16_08h47.32.117,HF_wild_card,2022.2.4,Win32,60.07449237,63e5404324177f4d7f6c0c13,64d2fd46c836a06233681665,64dc7efe60e3fc75fffeb1b8,,,,,,,ctch,resources/DB.BMP,resources/DR.BMP,Door4,0.285185213,-0.083333333,1,0,0,0.6146,optionRight,80,4510,3,0,0,0,0,1,,,,,,,,,,,,,,,,,,,,,,,,,,,,,,,,,,,,,,,
,,,,,,,,2023-08-16_08h47.32.117,HF_wild_card,2022.2.4,Win32,60.07449237,63e5404324177f4d7f6c0c13,64d2fd46c836a06233681665,64dc7efe60e3fc75fffeb1b8,,,,,,,decisionTrl,resources/DB.BMP,resources/DG.BMP,Door2,0.246296282,-0.039814808,1,0,0,0.4621,optionRight,20,4530,3,1,0,1,0,1,,,,,,,,,,,,,,,,,,,,,,,,,,,,,,,,,,,,,,,
,,,,,,,,2023-08-16_08h47.32.117,HF_wild_card,2022.2.4,Win32,60.07449237,63e5404324177f4d7f6c0c13,64d2fd46c836a06233681665,64dc7efe60e3fc75fffeb1b8,,,,,,,sngl,resources/Empty.png,resources/DR.BMP,Door4,0.236111111,0.001851859,1,0,0,0.7753,optionRight,60,4590,3,2,0,2,0,1,,,,,,,,,,,,,,,,,,,,,,,,,,,,,,,,,,,,,,,
,,,,,,,,2023-08-16_08h47.32.117,HF_wild_card,2022.2.4,Win32,60.07449237,63e5404324177f4d7f6c0c13,64d2fd46c836a06233681665,64dc7efe60e3fc75fffeb1b8,,,,,,,sngl,resources/Empty.png,resources/DBN.BMP,WildCard_Ex,0.287962949,-0.001851859,1,0,0,0.6629,optionRight,95,4685,3,3,0,3,0,1,,,,,,,,,,,,,,,,,,,,,,,,,,,,,,,,,,,,,,,
,,,,,,,,2023-08-16_08h47.32.117,HF_wild_card,2022.2.4,Win32,60.07449237,63e5404324177f4d7f6c0c13,64d2fd46c836a06233681665,64dc7efe60e3fc75fffeb1b8,,,,,,,decisionTrl,resources/DG.BMP,resources/DB.BMP,Door2,-0.282407407,-0.038888896,1,0,0,0.5464,optionLeft,20,4705,3,4,0,4,0,1,,,,,,,,,,,,,,,,,,,,,,,,,,,,,,,,,,,,,,,
,,,,,,,,2023-08-16_08h47.32.117,HF_wild_card,2022.2.4,Win32,60.07449237,63e5404324177f4d7f6c0c13,64d2fd46c836a06233681665,64dc7efe60e3fc75fffeb1b8,,,,,,,sngl,resources/DBN.BMP,resources/Empty.png,WildCard_Ex,-0.256481453,-0.044444437,1,0,0,0.5479,optionLeft,5,4710,3,5,0,5,0,1,,,,,,,,,,,,,,,,,,,,,,,,,,,,,,,,,,,,,,,
,,,,,,,,2023-08-16_08h47.32.117,HF_wild_card,2022.2.4,Win32,60.07449237,63e5404324177f4d7f6c0c13,64d2fd46c836a06233681665,64dc7efe60e3fc75fffeb1b8,,,,,,,ctch,resources/DG.BMP,resources/DY.BMP,Door2,-0.262036995,-0.052777785,1,0,0,0.4158,optionLeft,40,4750,3,6,0,6,0,1,,,,,,,,,,,,,,,,,,,,,,,,,,,,,,,,,,,,,,,
,,,,,,,,2023-08-16_08h47.32.117,HF_wild_card,2022.2.4,Win32,60.07449237,63e5404324177f4d7f6c0c13,64d2fd46c836a06233681665,64dc7efe60e3fc75fffeb1b8,,,,,,,decisionTrl,resources/DBN.BMP,resources/DY.BMP,WildCard_Ex,-0.213888875,-0.053703697,1,0,0,0.4473,optionLeft,5,4755,3,7,0,7,0,1,,,,,,,,,,,,,,,,,,,,,,,,,,,,,,,,,,,,,,,
,,,,,,,,2023-08-16_08h47.32.117,HF_wild_card,2022.2.4,Win32,60.07449237,63e5404324177f4d7f6c0c13,64d2fd46c836a06233681665,64dc7efe60e3fc75fffeb1b8,,,,,,,decisionTrl,resources/DY.BMP,resources/DR.BMP,Door4,0.401851937,-0.024074095,1,0,0,0.4625,optionRight,80,4835,3,8,0,8,0,1,,,,,,,,,,,,,,,,,,,,,,,,,,,,,,,,,,,,,,,
,,,,,,,,2023-08-16_08h47.32.117,HF_wild_card,2022.2.4,Win32,60.07449237,63e5404324177f4d7f6c0c13,64d2fd46c836a06233681665,64dc7efe60e3fc75fffeb1b8,,,,,,,sngl,resources/DBN.BMP,resources/Empty.png,WildCard_Ex,-0.196296268,-0.061111132,1,0,0,0.4797,optionLeft,95,4930,3,9,0,9,0,1,,,,,,,,,,,,,,,,,,,,,,,,,,,,,,,,,,,,,,,
,,,,,,,,2023-08-16_08h47.32.117,HF_wild_card,2022.2.4,Win32,60.07449237,63e5404324177f4d7f6c0c13,64d2fd46c836a06233681665,64dc7efe60e3fc75fffeb1b8,,,,,,,sngl,resources/Empty.png,resources/DB.BMP,Door1,0.276851866,0.009259259,1,0,0,0.5627,optionRight,30,4960,3,10,0,10,0,1,,,,,,,,,,,,,,,,,,,,,,,,,,,,,,,,,,,,,,,
,,,,,,,,2023-08-16_08h47.32.117,HF_wild_card,2022.2.4,Win32,60.07449237,63e5404324177f4d7f6c0c13,64d2fd46c836a06233681665,64dc7efe60e3fc75fffeb1b8,,,,,,,ctch,resources/DY.BMP,resources/DG.BMP,Door3,-0.264814801,-0.069444444,1,0,0,1.0617,optionLeft,70,5030,3,11,0,11,0,1,,,,,,,,,,,,,,,,,,,,,,,,,,,,,,,,,,,,,,,
,,,,,,,,2023-08-16_08h47.32.117,HF_wild_card,2022.2.4,Win32,60.07449237,63e5404324177f4d7f6c0c13,64d2fd46c836a06233681665,64dc7efe60e3fc75fffeb1b8,,,,,,,sngl,resources/Empty.png,resources/DY.BMP,Door3,0.184259273,-0.003703718,1,0,0,0.8125,optionRight,70,5100,3,12,0,12,0,1,,,,,,,,,,,,,,,,,,,,,,,,,,,,,,,,,,,,,,,
,,,,,,,,2023-08-16_08h47.32.117,HF_wild_card,2022.2.4,Win32,60.07449237,63e5404324177f4d7f6c0c13,64d2fd46c836a06233681665,64dc7efe60e3fc75fffeb1b8,,,,,,,decisionTrl,resources/DY.BMP,resources/DBN.BMP,WildCard_Ex,0.304629714,0.0074074,1,0,0,0.7302,optionRight,95,5195,3,13,0,13,0,1,,,,,,,,,,,,,,,,,,,,,,,,,,,,,,,,,,,,,,,
,,,,,,,,2023-08-16_08h47.32.117,HF_wild_card,2022.2.4,Win32,60.07449237,63e5404324177f4d7f6c0c13,64d2fd46c836a06233681665,64dc7efe60e3fc75fffeb1b8,,,,,,,decisionTrl,resources/DG.BMP,resources/DB.BMP,Door2,-0.110185199,-0.058333326,1,0,0,0.8274,optionLeft,40,5235,3,14,0,14,0,1,,,,,,,,,,,,,,,,,,,,,,,,,,,,,,,,,,,,,,,
,,,,,,,,2023-08-16_08h47.32.117,HF_wild_card,2022.2.4,Win32,60.07449237,63e5404324177f4d7f6c0c13,64d2fd46c836a06233681665,64dc7efe60e3fc75fffeb1b8,,,,,,,decisionTrl,resources/DB.BMP,resources/DBN.BMP,WildCard_Ex,0.369444529,-0.008333347,1,0,0,0.5471,optionRight,5,5240,3,15,0,15,0,1,,,,,,,,,,,,,,,,,,,,,,,,,,,,,,,,,,,,,,,
,,,,,,,,2023-08-16_08h47.32.117,HF_wild_card,2022.2.4,Win32,60.07449237,63e5404324177f4d7f6c0c13,64d2fd46c836a06233681665,64dc7efe60e3fc75fffeb1b8,,,,,,,decisionTrl,resources/DBN.BMP,resources/DB.BMP,Door1,0.267592607,-0.001851859,1,0,0,0.4801,optionRight,30,5270,3,16,0,16,0,1,,,,,,,,,,,,,,,,,,,,,,,,,,,,,,,,,,,,,,,
,,,,,,,,2023-08-16_08h47.32.117,HF_wild_card,2022.2.4,Win32,60.07449237,63e5404324177f4d7f6c0c13,64d2fd46c836a06233681665,64dc7efe60e3fc75fffeb1b8,,,,,,,ctch,resources/DY.BMP,resources/DG.BMP,Door2,0.281481496,0.001851859,1,0,0,0.4957,optionRight,20,5290,3,17,0,17,0,1,,,,,,,,,,,,,,,,,,,,,,,,,,,,,,,,,,,,,,,
,,,,,,,,2023-08-16_08h47.32.117,HF_wild_card,2022.2.4,Win32,60.07449237,63e5404324177f4d7f6c0c13,64d2fd46c836a06233681665,64dc7efe60e3fc75fffeb1b8,,,,,,,decisionTrl,resources/DY.BMP,resources/DR.BMP,Door4,0.281481496,0.01666666,1,0,0,0.4284,optionRight,60,5350,3,18,0,18,0,1,,,,,,,,,,,,,,,,,,,,,,,,,,,,,,,,,,,,,,,
,,,,,,,,2023-08-16_08h47.32.117,HF_wild_card,2022.2.4,Win32,60.07449237,63e5404324177f4d7f6c0c13,64d2fd46c836a06233681665,64dc7efe60e3fc75fffeb1b8,,,,,,,decisionTrl,resources/DB.BMP,resources/DG.BMP,Door2,0.303703732,0.021296289,1,0,0,0.421,optionRight,40,5390,3,19,0,19,0,1,,,,,,,,,,,,,,,,,,,,,,,,,,,,,,,,,,,,,,,
,,,,,,,,2023-08-16_08h47.32.117,HF_wild_card,2022.2.4,Win32,60.07449237,63e5404324177f4d7f6c0c13,64d2fd46c836a06233681665,64dc7efe60e3fc75fffeb1b8,,,,,,,decisionTrl,resources/DR.BMP,resources/DY.BMP,Door3,0.414814843,0.03148146,1,0,0,0.3782,optionRight,70,5460,3,20,0,20,0,1,,,,,,,,,,,,,,,,,,,,,,,,,,,,,,,,,,,,,,,
,,,,,,,,2023-08-16_08h47.32.117,HF_wild_card,2022.2.4,Win32,60.07449237,63e5404324177f4d7f6c0c13,64d2fd46c836a06233681665,64dc7efe60e3fc75fffeb1b8,,,,,,,ctch,resources/DB.BMP,resources/DR.BMP,Door4,0.290740755,0,1,0,0,0.4162,optionRight,80,5540,3,21,0,21,0,1,,,,,,,,,,,,,,,,,,,,,,,,,,,,,,,,,,,,,,,
,,,,,,,,2023-08-16_08h47.32.117,HF_wild_card,2022.2.4,Win32,60.07449237,63e5404324177f4d7f6c0c13,64d2fd46c836a06233681665,64dc7efe60e3fc75fffeb1b8,,,,,,,decisionTrl,resources/DY.BMP,resources/DR.BMP,Door4,0.33148151,0.015740748,1,0,0,0.4663,optionRight,60,5600,3,22,0,22,0,1,,,,,,,,,,,,,,,,,,,,,,,,,,,,,,,,,,,,,,,
,,,,,,,,2023-08-16_08h47.32.117,HF_wild_card,2022.2.4,Win32,60.07449237,63e5404324177f4d7f6c0c13,64d2fd46c836a06233681665,64dc7efe60e3fc75fffeb1b8,,,,,,,decisionTrl,resources/DR.BMP,resources/DY.BMP,Door3,0.33148151,-0.009259259,1,0,0,0.4326,optionRight,70,5670,3,23,0,23,0,1,,,,,,,,,,,,,,,,,,,,,,,,,,,,,,,,,,,,,,,
,,,,,,,,2023-08-16_08h47.32.117,HF_wild_card,2022.2.4,Win32,60.07449237,63e5404324177f4d7f6c0c13,64d2fd46c836a06233681665,64dc7efe60e3fc75fffeb1b8,,,,,,,decisionTrl,resources/DB.BMP,resources/DG.BMP,Door2,0.448148233,0.017592571,1,0,0,0.3978,optionRight,40,5710,3,24,0,24,0,1,,,,,,,,,,,,,,,,,,,,,,,,,,,,,,,,,,,,,,,
,,,,,,,,2023-08-16_08h47.32.117,HF_wild_card,2022.2.4,Win32,60.07449237,63e5404324177f4d7f6c0c13,64d2fd46c836a06233681665,64dc7efe60e3fc75fffeb1b8,,,,,,,sngl,resources/DG.BMP,resources/Empty.png,Door2,-0.175925926,-0.038888896,1,0,0,1.0796,optionLeft,40,5750,3,25,0,25,0,1,,,,,,,,,,,,,,,,,,,,,,,,,,,,,,,,,,,,,,,
,,,,,,,,2023-08-16_08h47.32.117,HF_wild_card,2022.2.4,Win32,60.07449237,63e5404324177f4d7f6c0c13,64d2fd46c836a06233681665,64dc7efe60e3fc75fffeb1b8,,,,,,,decisionTrl,resources/DG.BMP,resources/DB.BMP,Door1,0.432407379,0.039814808,1,0,0,0.5297,optionRight,30,5780,3,26,0,26,0,1,,,,,,,,,,,,,,,,,,,,,,,,,,,,,,,,,,,,,,,
,,,,,,,,2023-08-16_08h47.32.117,HF_wild_card,2022.2.4,Win32,60.07449237,63e5404324177f4d7f6c0c13,64d2fd46c836a06233681665,64dc7efe60e3fc75fffeb1b8,,,,,,,decisionTrl,resources/DBN.BMP,resources/DG.BMP,Door2,0.338888945,0.006481489,1,0,0,0.4453,optionRight,40,5820,3,27,0,27,0,1,,,,,,,,,,,,,,,,,,,,,,,,,,,,,,,,,,,,,,,
,,,,,,,,2023-08-16_08h47.32.117,HF_wild_card,2022.2.4,Win32,60.07449237,63e5404324177f4d7f6c0c13,64d2fd46c836a06233681665,64dc7efe60e3fc75fffeb1b8,,,,,,,decisionTrl,resources/DR.BMP,resources/DY.BMP,Door3,0.283333319,0.009259259,1,0,0,0.3985,optionRight,70,5890,3,28,0,28,0,1,,,,,,,,,,,,,,,,,,,,,,,,,,,,,,,,,,,,,,,
,,,,,,,,2023-08-16_08h47.32.117,HF_wild_card,2022.2.4,Win32,60.07449237,63e5404324177f4d7f6c0c13,64d2fd46c836a06233681665,64dc7efe60e3fc75fffeb1b8,,,,,,,ctch,resources/DR.BMP,resources/DB.BMP,Door1,0.231481481,0.030555548,1,0,0,0.4913,optionRight,30,5920,3,29,0,29,0,1,,,,,,,,,,,,,,,,,,,,,,,,,,,,,,,,,,,,,,,
,,,,,,,,2023-08-16_08h47.32.117,HF_wild_card,2022.2.4,Win32,60.07449237,63e5404324177f4d7f6c0c13,64d2fd46c836a06233681665,64dc7efe60e3fc75fffeb1b8,,,,,,,sngl,resources/DY.BMP,resources/Empty.png,Door3,-0.359259252,-0.019444466,1,0,0,0.56,optionLeft,70,5990,3,30,0,30,0,1,,,,,,,,,,,,,,,,,,,,,,,,,,,,,,,,,,,,,,,
,,,,,,,,2023-08-16_08h47.32.117,HF_wild_card,2022.2.4,Win32,60.07449237,63e5404324177f4d7f6c0c13,64d2fd46c836a06233681665,64dc7efe60e3fc75fffeb1b8,,,,,,,sngl,resources/Empty.png,resources/DG.BMP,Door2,0.329629686,0.052777785,1,0,0,0.7487,optionRight,20,6010,3,31,0,31,0,1,,,,,,,,,,,,,,,,,,,,,,,,,,,,,,,,,,,,,,,
,,,,,,,,2023-08-16_08h47.32.117,HF_wild_card,2022.2.4,Win32,60.07449237,63e5404324177f4d7f6c0c13,64d2fd46c836a06233681665,64dc7efe60e3fc75fffeb1b8,,,,,,,decisionTrl,resources/DY.BMP,resources/DR.BMP,Door3,-0.244444459,-0.024074095,1,0,0,0.4953,optionLeft,70,6080,3,32,0,32,0,1,,,,,,,,,,,,,,,,,,,,,,,,,,,,,,,,,,,,,,,
,,,,,,,,2023-08-16_08h47.32.117,HF_wild_card,2022.2.4,Win32,60.07449237,63e5404324177f4d7f6c0c13,64d2fd46c836a06233681665,64dc7efe60e3fc75fffeb1b8,,,,,,,decisionTrl,resources/DB.BMP,resources/DG.BMP,Door1,-0.205555527,-0.033333355,1,0,0,0.4456,optionLeft,30,6110,3,33,0,33,0,1,,,,,,,,,,,,,,,,,,,,,,,,,,,,,,,,,,,,,,,
,,,,,,,,2023-08-16_08h47.32.117,HF_wild_card,2022.2.4,Win32,60.07449237,63e5404324177f4d7f6c0c13,64d2fd46c836a06233681665,64dc7efe60e3fc75fffeb1b8,,,,,,,decisionTrl,resources/DR.BMP,resources/DY.BMP,Door4,-0.203703704,-0.039814808,1,0,0,0.3289,optionLeft,60,6170,3,34,0,34,0,1,,,,,,,,,,,,,,,,,,,,,,,,,,,,,,,,,,,,,,,
,,,,,,,,2023-08-16_08h47.32.117,HF_wild_card,2022.2.4,Win32,60.07449237,63e5404324177f4d7f6c0c13,64d2fd46c836a06233681665,64dc7efe60e3fc75fffeb1b8,,,,,,,sngl,resources/Empty.png,resources/DBN.BMP,WildCard_Ex,-0.258333347,-0.046296296,1,0,0,0.313,optionRight,5,6175,3,35,0,35,0,1,,,,,,,,,,,,,,,,,,,,,,,,,,,,,,,,,,,,,,,
,,,,,,,,2023-08-16_08h47.32.117,HF_wild_card,2022.2.4,Win32,60.07449237,63e5404324177f4d7f6c0c13,64d2fd46c836a06233681665,64dc7efe60e3fc75fffeb1b8,,,,,,,decisionTrl,resources/DBN.BMP,resources/DR.BMP,WildCard_Ex,-0.204629616,-0.049074067,1,0,0,0.5965,optionLeft,5,6180,3,36,0,36,0,1,,,,,,,,,,,,,,,,,,,,,,,,,,,,,,,,,,,,,,,
,,,,,,,,2023-08-16_08h47.32.117,HF_wild_card,2022.2.4,Win32,60.07449237,63e5404324177f4d7f6c0c13,64d2fd46c836a06233681665,64dc7efe60e3fc75fffeb1b8,,,,,,,sngl,resources/DB.BMP,resources/Empty.png,Door1,-0.17314812,-0.047222243,1,0,0,0.6296,optionLeft,30,6210,3,37,0,37,0,1,,,,,,,,,,,,,,,,,,,,,,,,,,,,,,,,,,,,,,,
,,,,,,,,2023-08-16_08h47.32.117,HF_wild_card,2022.2.4,Win32,60.07449237,63e5404324177f4d7f6c0c13,64d2fd46c836a06233681665,64dc7efe60e3fc75fffeb1b8,,,,,,,sngl,resources/DR.BMP,resources/Empty.png,Door4,-0.266666624,-0.049074067,1,0,0,0.5795,optionLeft,80,6290,3,38,0,38,0,1,,,,,,,,,,,,,,,,,,,,,,,,,,,,,,,,,,,,,,,
,,,,,,,,2023-08-16_08h47.32.117,HF_wild_card,2022.2.4,Win32,60.07449237,63e5404324177f4d7f6c0c13,64d2fd46c836a06233681665,64dc7efe60e3fc75fffeb1b8,,,,,,,ctch,resources/DR.BMP,resources/DB.BMP,Door4,-0.247222194,-0.046296296,1,0,0,0.6107,optionLeft,80,6370,3,39,0,39,0,1,,,,,,,,,,,,,,,,,,,,,,,,,,,,,,,,,,,,,,,
,,,,,,,,2023-08-16_08h47.32.117,HF_wild_card,2022.2.4,Win32,60.07449237,63e5404324177f4d7f6c0c13,64d2fd46c836a06233681665,64dc7efe60e3fc75fffeb1b8,,,,,,,decisionTrl,resources/DG.BMP,resources/DB.BMP,Door2,-0.237962935,-0.043518526,1,0,0,0.4145,optionLeft,40,6410,3,40,0,40,0,1,,,,,,,,,,,,,,,,,,,,,,,,,,,,,,,,,,,,,,,
,,,,,,,,2023-08-16_08h47.32.117,HF_wild_card,2022.2.4,Win32,60.07449237,63e5404324177f4d7f6c0c13,64d2fd46c836a06233681665,64dc7efe60e3fc75fffeb1b8,,,,,,,decisionTrl,resources/DG.BMP,resources/DBN.BMP,Door2,-0.272222236,-0.054629644,1,0,0,0.3633,optionLeft,20,6430,3,41,0,41,0,1,,,,,,,,,,,,,,,,,,,,,,,,,,,,,,,,,,,,,,,
,,,,,,,,2023-08-16_08h47.32.117,HF_wild_card,2022.2.4,Win32,60.07449237,63e5404324177f4d7f6c0c13,64d2fd46c836a06233681665,64dc7efe60e3fc75fffeb1b8,,,,,,,ctch,resources/DG.BMP,resources/DY.BMP,Door2,-0.373148141,-0.074074074,1,0,0,0.3627,optionLeft,20,6450,3,42,0,42,0,1,,,,,,,,,,,,,,,,,,,,,,,,,,,,,,,,,,,,,,,
,,,,,,,,2023-08-16_08h47.32.117,HF_wild_card,2022.2.4,Win32,60.07449237,63e5404324177f4d7f6c0c13,64d2fd46c836a06233681665,64dc7efe60e3fc75fffeb1b8,,,,,,,decisionTrl,resources/DR.BMP,resources/DBN.BMP,Door4,-0.218518504,-0.035185178,1,0,0,0.3124,optionLeft,60,6510,3,43,0,43,0,1,,,,,,,,,,,,,,,,,,,,,,,,,,,,,,,,,,,,,,,
,,,,,,,,2023-08-16_08h47.32.117,HF_wild_card,2022.2.4,Win32,60.07449237,63e5404324177f4d7f6c0c13,64d2fd46c836a06233681665,64dc7efe60e3fc75fffeb1b8,,,,,,,,,,,,,,,,,,,,,,,,,,2,0,2,0,1,,,,,,,,,,,,,,,,,,,,,,,,,,,,,,,,,,
,,,,,,,,2023-08-16_08h47.32.117,HF_wild_card,2022.2.4,Win32,60.07449237,63e5404324177f4d7f6c0c13,64d2fd46c836a06233681665,64dc7efe60e3fc75fffeb1b8,,,,,,,ctch,resources/DR.BMP,resources/DB.BMP,Door4,-0.258333347,-0.159259302,1,0,0,0.9984,optionLeft,60,6570,4,0,0,0,0,1,,,,,,,,,,,,,,,,,,,,,,,,,,,,,,,,,,,,,,,
,,,,,,,,2023-08-16_08h47.32.117,HF_wild_card,2022.2.4,Win32,60.07449237,63e5404324177f4d7f6c0c13,64d2fd46c836a06233681665,64dc7efe60e3fc75fffeb1b8,,,,,,,sngl,resources/Empty.png,resources/DG.BMP,Door2,0.301851908,-0.038888896,1,0,0,0.779,optionRight,40,6610,4,1,0,1,0,1,,,,,,,,,,,,,,,,,,,,,,,,,,,,,,,,,,,,,,,
,,,,,,,,2023-08-16_08h47.32.117,HF_wild_card,2022.2.4,Win32,60.07449237,63e5404324177f4d7f6c0c13,64d2fd46c836a06233681665,64dc7efe60e3fc75fffeb1b8,,,,,,,sngl,resources/DP.BMP,resources/Empty.png,WildCard_NonEx,-0.320370356,-0.071296303,1,0,0,0.6293,optionLeft,55,6665,4,2,0,2,0,1,,,,,,,,,,,,,,,,,,,,,,,,,,,,,,,,,,,,,,,
,,,,,,,,2023-08-16_08h47.32.117,HF_wild_card,2022.2.4,Win32,60.07449237,63e5404324177f4d7f6c0c13,64d2fd46c836a06233681665,64dc7efe60e3fc75fffeb1b8,,,,,,,decisionTrl,resources/DB.BMP,resources/DG.BMP,Door1,-0.273148148,-0.064814815,1,0,0,0.5424,optionLeft,30,6695,4,3,0,3,0,1,,,,,,,,,,,,,,,,,,,,,,,,,,,,,,,,,,,,,,,
,,,,,,,,2023-08-16_08h47.32.117,HF_wild_card,2022.2.4,Win32,60.07449237,63e5404324177f4d7f6c0c13,64d2fd46c836a06233681665,64dc7efe60e3fc75fffeb1b8,,,,,,,decisionTrl,resources/DP.BMP,resources/DR.BMP,WildCard_NonEx,-0.262036995,-0.054629644,1,0,0,0.397,optionLeft,45,6740,4,4,0,4,0,1,,,,,,,,,,,,,,,,,,,,,,,,,,,,,,,,,,,,,,,
,,,,,,,,2023-08-16_08h47.32.117,HF_wild_card,2022.2.4,Win32,60.07449237,63e5404324177f4d7f6c0c13,64d2fd46c836a06233681665,64dc7efe60e3fc75fffeb1b8,,,,,,,ctch,resources/DY.BMP,resources/DG.BMP,Door3,-0.179629644,-0.025000007,1,0,0,0.3476,optionLeft,70,6810,4,5,0,5,0,1,,,,,,,,,,,,,,,,,,,,,,,,,,,,,,,,,,,,,,,
,,,,,,,,2023-08-16_08h47.32.117,HF_wild_card,2022.2.4,Win32,60.07449237,63e5404324177f4d7f6c0c13,64d2fd46c836a06233681665,64dc7efe60e3fc75fffeb1b8,,,,,,,decisionTrl,resources/DY.BMP,resources/DR.BMP,Door3,-0.237037023,-0.053703697,1,0,0,0.413,optionLeft,70,6880,4,6,0,6,0,1,,,,,,,,,,,,,,,,,,,,,,,,,,,,,,,,,,,,,,,
,,,,,,,,2023-08-16_08h47.32.117,HF_wild_card,2022.2.4,Win32,60.07449237,63e5404324177f4d7f6c0c13,64d2fd46c836a06233681665,64dc7efe60e3fc75fffeb1b8,,,,,,,ctch,resources/DR.BMP,resources/DB.BMP,Door4,-0.229629587,-0.031481496,1,0,0,0.6323,optionLeft,80,6960,4,7,0,7,0,1,,,,,,,,,,,,,,,,,,,,,,,,,,,,,,,,,,,,,,,
,,,,,,,,2023-08-16_08h47.32.117,HF_wild_card,2022.2.4,Win32,60.07449237,63e5404324177f4d7f6c0c13,64d2fd46c836a06233681665,64dc7efe60e3fc75fffeb1b8,,,,,,,ctch,resources/DB.BMP,resources/DR.BMP,Door1,-0.237037023,-0.052777785,1,0,0,0.4301,optionLeft,30,6990,4,8,0,8,0,1,,,,,,,,,,,,,,,,,,,,,,,,,,,,,,,,,,,,,,,
,,,,,,,,2023-08-16_08h47.32.117,HF_wild_card,2022.2.4,Win32,60.07449237,63e5404324177f4d7f6c0c13,64d2fd46c836a06233681665,64dc7efe60e3fc75fffeb1b8,,,,,,,decisionTrl,resources/DY.BMP,resources/DR.BMP,Door3,-0.183333291,-0.036111125,1,0,0,0.396,optionLeft,70,7060,4,9,0,9,0,1,,,,,,,,,,,,,,,,,,,,,,,,,,,,,,,,,,,,,,,
,,,,,,,,2023-08-16_08h47.32.117,HF_wild_card,2022.2.4,Win32,60.07449237,63e5404324177f4d7f6c0c13,64d2fd46c836a06233681665,64dc7efe60e3fc75fffeb1b8,,,,,,,decisionTrl,resources/DY.BMP,resources/DP.BMP,Door3,-0.224999958,-0.036111125,1,0,0,0.3472,optionLeft,70,7130,4,10,0,10,0,1,,,,,,,,,,,,,,,,,,,,,,,,,,,,,,,,,,,,,,,
,,,,,,,,2023-08-16_08h47.32.117,HF_wild_card,2022.2.4,Win32,60.07449237,63e5404324177f4d7f6c0c13,64d2fd46c836a06233681665,64dc7efe60e3fc75fffeb1b8,,,,,,,sngl,resources/Empty.png,resources/DB.BMP,Door1,-0.167592578,-0.033333355,1,0,0,0.3119,optionRight,30,7160,4,11,0,11,0,1,,,,,,,,,,,,,,,,,,,,,,,,,,,,,,,,,,,,,,,
,,,,,,,,2023-08-16_08h47.32.117,HF_wild_card,2022.2.4,Win32,60.07449237,63e5404324177f4d7f6c0c13,64d2fd46c836a06233681665,64dc7efe60e3fc75fffeb1b8,,,,,,,ctch,resources/DG.BMP,resources/DY.BMP,Door2,-0.165740755,-0.026851866,1,0,0,0.7946,optionLeft,40,7200,4,12,0,12,0,1,,,,,,,,,,,,,,,,,,,,,,,,,,,,,,,,,,,,,,,
,,,,,,,,2023-08-16_08h47.32.117,HF_wild_card,2022.2.4,Win32,60.07449237,63e5404324177f4d7f6c0c13,64d2fd46c836a06233681665,64dc7efe60e3fc75fffeb1b8,,,,,,,decisionTrl,resources/DG.BMP,resources/DB.BMP,Door2,-0.267592607,-0.103703746,1,0,0,0.6628,optionLeft,20,7220,4,13,0,13,0,1,,,,,,,,,,,,,,,,,,,,,,,,,,,,,,,,,,,,,,,
,,,,,,,,2023-08-16_08h47.32.117,HF_wild_card,2022.2.4,Win32,60.07449237,63e5404324177f4d7f6c0c13,64d2fd46c836a06233681665,64dc7efe60e3fc75fffeb1b8,,,,,,,decisionTrl,resources/DG.BMP,resources/DB.BMP,Door2,-0.232407393,-0.063888903,1,0,0,0.5626,optionLeft,40,7260,4,14,0,14,0,1,,,,,,,,,,,,,,,,,,,,,,,,,,,,,,,,,,,,,,,
,,,,,,,,2023-08-16_08h47.32.117,HF_wild_card,2022.2.4,Win32,60.07449237,63e5404324177f4d7f6c0c13,64d2fd46c836a06233681665,64dc7efe60e3fc75fffeb1b8,,,,,,,decisionTrl,resources/DR.BMP,resources/DY.BMP,Door4,-0.201851809,-0.049074067,1,0,0,0.4957,optionLeft,80,7340,4,15,0,15,0,1,,,,,,,,,,,,,,,,,,,,,,,,,,,,,,,,,,,,,,,
,,,,,,,,2023-08-16_08h47.32.117,HF_wild_card,2022.2.4,Win32,60.07449237,63e5404324177f4d7f6c0c13,64d2fd46c836a06233681665,64dc7efe60e3fc75fffeb1b8,,,,,,,decisionTrl,resources/DP.BMP,resources/DG.BMP,WildCard_NonEx,-0.204629616,-0.023148148,1,0,0,0.5131,optionLeft,55,7395,4,16,0,16,0,1,,,,,,,,,,,,,,,,,,,,,,,,,,,,,,,,,,,,,,,
,,,,,,,,2023-08-16_08h47.32.117,HF_wild_card,2022.2.4,Win32,60.07449237,63e5404324177f4d7f6c0c13,64d2fd46c836a06233681665,64dc7efe60e3fc75fffeb1b8,,,,,,,decisionTrl,resources/DB.BMP,resources/DP.BMP,Door1,-0.159259231,-0.034259266,1,0,0,0.5771,optionLeft,30,7425,4,17,0,17,0,1,,,,,,,,,,,,,,,,,,,,,,,,,,,,,,,,,,,,,,,
,,,,,,,,2023-08-16_08h47.32.117,HF_wild_card,2022.2.4,Win32,60.07449237,63e5404324177f4d7f6c0c13,64d2fd46c836a06233681665,64dc7efe60e3fc75fffeb1b8,,,,,,,decisionTrl,resources/DP.BMP,resources/DY.BMP,WildCard_NonEx,-0.207407422,-0.028703725,1,0,0,0.5296,optionLeft,55,7480,4,18,0,18,0,1,,,,,,,,,,,,,,,,,,,,,,,,,,,,,,,,,,,,,,,
,,,,,,,,2023-08-16_08h47.32.117,HF_wild_card,2022.2.4,Win32,60.07449237,63e5404324177f4d7f6c0c13,64d2fd46c836a06233681665,64dc7efe60e3fc75fffeb1b8,,,,,,,sngl,resources/DY.BMP,resources/Empty.png,Door3,-0.267592607,-0.050000014,1,0,0,0.6483,optionLeft,70,7550,4,19,0,19,0,1,,,,,,,,,,,,,,,,,,,,,,,,,,,,,,,,,,,,,,,
,,,,,,,,2023-08-16_08h47.32.117,HF_wild_card,2022.2.4,Win32,60.07449237,63e5404324177f4d7f6c0c13,64d2fd46c836a06233681665,64dc7efe60e3fc75fffeb1b8,,,,,,,decisionTrl,resources/DY.BMP,resources/DR.BMP,Door3,-0.237037023,-0.035185178,1,0,0,0.5462,optionLeft,70,7620,4,20,0,20,0,1,,,,,,,,,,,,,,,,,,,,,,,,,,,,,,,,,,,,,,,
,,,,,,,,2023-08-16_08h47.32.117,HF_wild_card,2022.2.4,Win32,60.07449237,63e5404324177f4d7f6c0c13,64d2fd46c836a06233681665,64dc7efe60e3fc75fffeb1b8,,,,,,,decisionTrl,resources/DB.BMP,resources/DG.BMP,Door1,-0.167592578,-0.024074095,1,0,0,0.4465,optionLeft,30,7650,4,21,0,21,0,1,,,,,,,,,,,,,,,,,,,,,,,,,,,,,,,,,,,,,,,
,,,,,,,,2023-08-16_08h47.32.117,HF_wild_card,2022.2.4,Win32,60.07449237,63e5404324177f4d7f6c0c13,64d2fd46c836a06233681665,64dc7efe60e3fc75fffeb1b8,,,,,,,ctch,resources/DG.BMP,resources/DY.BMP,Door2,-0.165740755,-0.036111125,1,0,0,0.5137,optionLeft,20,7670,4,22,0,22,0,1,,,,,,,,,,,,,,,,,,,,,,,,,,,,,,,,,,,,,,,
,,,,,,,,2023-08-16_08h47.32.117,HF_wild_card,2022.2.4,Win32,60.07449237,63e5404324177f4d7f6c0c13,64d2fd46c836a06233681665,64dc7efe60e3fc75fffeb1b8,,,,,,,sngl,resources/DP.BMP,resources/Empty.png,WildCard_NonEx,-0.211111069,-0.025000007,1,0,0,0.4655,optionLeft,45,7715,4,23,0,23,0,1,,,,,,,,,,,,,,,,,,,,,,,,,,,,,,,,,,,,,,,
,,,,,,,,2023-08-16_08h47.32.117,HF_wild_card,2022.2.4,Win32,60.07449237,63e5404324177f4d7f6c0c13,64d2fd46c836a06233681665,64dc7efe60e3fc75fffeb1b8,,,,,,,decisionTrl,resources/DR.BMP,resources/DY.BMP,Door4,-0.179629644,-0.043518526,1,0,0,0.5822,optionLeft,80,7795,4,24,0,24,0,1,,,,,,,,,,,,,,,,,,,,,,,,,,,,,,,,,,,,,,,
,,,,,,,,2023-08-16_08h47.32.117,HF_wild_card,2022.2.4,Win32,60.07449237,63e5404324177f4d7f6c0c13,64d2fd46c836a06233681665,64dc7efe60e3fc75fffeb1b8,,,,,,,decisionTrl,resources/DG.BMP,resources/DP.BMP,WildCard_NonEx,0.286111125,0.01666666,1,0,0,0.6149,optionRight,55,7850,4,25,0,25,0,1,,,,,,,,,,,,,,,,,,,,,,,,,,,,,,,,,,,,,,,
,,,,,,,,2023-08-16_08h47.32.117,HF_wild_card,2022.2.4,Win32,60.07449237,63e5404324177f4d7f6c0c13,64d2fd46c836a06233681665,64dc7efe60e3fc75fffeb1b8,,,,,,,decisionTrl,resources/DR.BMP,resources/DY.BMP,Door3,0.219444487,0.011111118,1,0,0,0.4298,optionRight,70,7920,4,26,0,26,0,1,,,,,,,,,,,,,,,,,,,,,,,,,,,,,,,,,,,,,,,
,,,,,,,,2023-08-16_08h47.32.117,HF_wild_card,2022.2.4,Win32,60.07449237,63e5404324177f4d7f6c0c13,64d2fd46c836a06233681665,64dc7efe60e3fc75fffeb1b8,,,,,,,decisionTrl,resources/DY.BMP,resources/DR.BMP,Door3,-0.274999972,-0.01203703,1,0,0,0.3965,optionLeft,70,7990,4,27,0,27,0,1,,,,,,,,,,,,,,,,,,,,,,,,,,,,,,,,,,,,,,,
,,,,,,,,2023-08-16_08h47.32.117,HF_wild_card,2022.2.4,Win32,60.07449237,63e5404324177f4d7f6c0c13,64d2fd46c836a06233681665,64dc7efe60e3fc75fffeb1b8,,,,,,,decisionTrl,resources/DG.BMP,resources/DB.BMP,Door2,-0.237037023,-0.022222236,1,0,0,0.4792,optionLeft,20,8010,4,28,0,28,0,1,,,,,,,,,,,,,,,,,,,,,,,,,,,,,,,,,,,,,,,
,,,,,,,,2023-08-16_08h47.32.117,HF_wild_card,2022.2.4,Win32,60.07449237,63e5404324177f4d7f6c0c13,64d2fd46c836a06233681665,64dc7efe60e3fc75fffeb1b8,,,,,,,ctch,resources/DB.BMP,resources/DR.BMP,Door4,0.250925912,0.001851859,1,0,0,0.3798,optionRight,60,8070,4,29,0,29,0,1,,,,,,,,,,,,,,,,,,,,,,,,,,,,,,,,,,,,,,,
,,,,,,,,2023-08-16_08h47.32.117,HF_wild_card,2022.2.4,Win32,60.07449237,63e5404324177f4d7f6c0c13,64d2fd46c836a06233681665,64dc7efe60e3fc75fffeb1b8,,,,,,,sngl,resources/DG.BMP,resources/Empty.png,Door2,-0.271296254,-0.038888896,1,0,0,0.4122,optionLeft,20,8090,4,30,0,30,0,1,,,,,,,,,,,,,,,,,,,,,,,,,,,,,,,,,,,,,,,
,,,,,,,,2023-08-16_08h47.32.117,HF_wild_card,2022.2.4,Win32,60.07449237,63e5404324177f4d7f6c0c13,64d2fd46c836a06233681665,64dc7efe60e3fc75fffeb1b8,,,,,,,ctch,resources/DY.BMP,resources/DG.BMP,Door3,-0.262036995,-0.037037037,1,0,0,0.3659,optionLeft,70,8160,4,31,0,31,0,1,,,,,,,,,,,,,,,,,,,,,,,,,,,,,,,,,,,,,,,
,,,,,,,,2023-08-16_08h47.32.117,HF_wild_card,2022.2.4,Win32,60.07449237,63e5404324177f4d7f6c0c13,64d2fd46c836a06233681665,64dc7efe60e3fc75fffeb1b8,,,,,,,decisionTrl,resources/DG.BMP,resources/DB.BMP,Door1,0.267592607,-0.008333347,1,0,0,0.696,optionRight,30,8190,4,32,0,32,0,1,,,,,,,,,,,,,,,,,,,,,,,,,,,,,,,,,,,,,,,
,,,,,,,,2023-08-16_08h47.32.117,HF_wild_card,2022.2.4,Win32,60.07449237,63e5404324177f4d7f6c0c13,64d2fd46c836a06233681665,64dc7efe60e3fc75fffeb1b8,,,,,,,sngl,resources/Empty.png,resources/DR.BMP,Door4,0.199999986,-0.013888889,1,0,0,0.4318,optionRight,80,8270,4,33,0,33,0,1,,,,,,,,,,,,,,,,,,,,,,,,,,,,,,,,,,,,,,,
,,,,,,,,2023-08-16_08h47.32.117,HF_wild_card,2022.2.4,Win32,60.07449237,63e5404324177f4d7f6c0c13,64d2fd46c836a06233681665,64dc7efe60e3fc75fffeb1b8,,,,,,,decisionTrl,resources/DR.BMP,resources/DP.BMP,WildCard_NonEx,0.179629644,-0.003703718,1,0,0,0.5442,optionRight,45,8315,4,34,0,34,0,1,,,,,,,,,,,,,,,,,,,,,,,,,,,,,,,,,,,,,,,
,,,,,,,,2023-08-16_08h47.32.117,HF_wild_card,2022.2.4,Win32,60.07449237,63e5404324177f4d7f6c0c13,64d2fd46c836a06233681665,64dc7efe60e3fc75fffeb1b8,,,,,,,sngl,resources/Empty.png,resources/DY.BMP,Door3,0.117592635,-0.000925947,1,0,0,0.3969,optionRight,70,8385,4,35,0,35,0,1,,,,,,,,,,,,,,,,,,,,,,,,,,,,,,,,,,,,,,,
,,,,,,,,2023-08-16_08h47.32.117,HF_wild_card,2022.2.4,Win32,60.07449237,63e5404324177f4d7f6c0c13,64d2fd46c836a06233681665,64dc7efe60e3fc75fffeb1b8,,,,,,,decisionTrl,resources/DR.BMP,resources/DY.BMP,Door3,0.22592594,0.006481489,1,0,0,0.4654,optionRight,70,8455,4,36,0,36,0,1,,,,,,,,,,,,,,,,,,,,,,,,,,,,,,,,,,,,,,,
,,,,,,,,2023-08-16_08h47.32.117,HF_wild_card,2022.2.4,Win32,60.07449237,63e5404324177f4d7f6c0c13,64d2fd46c836a06233681665,64dc7efe60e3fc75fffeb1b8,,,,,,,sngl,resources/DB.BMP,resources/Empty.png,Door1,-0.184259273,-0.033333355,1,0,0,0.7795,optionLeft,30,8485,4,37,0,37,0,1,,,,,,,,,,,,,,,,,,,,,,,,,,,,,,,,,,,,,,,
,,,,,,,,2023-08-16_08h47.32.117,HF_wild_card,2022.2.4,Win32,60.07449237,63e5404324177f4d7f6c0c13,64d2fd46c836a06233681665,64dc7efe60e3fc75fffeb1b8,,,,,,,decisionTrl,resources/DB.BMP,resources/DG.BMP,Door2,0.209259245,0.002777771,1,0,0,0.4939,optionRight,20,8505,4,38,0,38,0,1,,,,,,,,,,,,,,,,,,,,,,,,,,,,,,,,,,,,,,,
,,,,,,,,2023-08-16_08h47.32.117,HF_wild_card,2022.2.4,Win32,60.07449237,63e5404324177f4d7f6c0c13,64d2fd46c836a06233681665,64dc7efe60e3fc75fffeb1b8,,,,,,,decisionTrl,resources/DP.BMP,resources/DB.BMP,Door1,0.178703732,-0.00462963,1,0,0,0.3961,optionRight,30,8535,4,39,0,39,0,1,,,,,,,,,,,,,,,,,,,,,,,,,,,,,,,,,,,,,,,
,,,,,,,,2023-08-16_08h47.32.117,HF_wild_card,2022.2.4,Win32,60.07449237,63e5404324177f4d7f6c0c13,64d2fd46c836a06233681665,64dc7efe60e3fc75fffeb1b8,,,,,,,sngl,resources/DR.BMP,resources/Empty.png,Door4,-0.22129631,-0.014814836,1,0,0,0.7155,optionLeft,60,8595,4,40,0,40,0,1,,,,,,,,,,,,,,,,,,,,,,,,,,,,,,,,,,,,,,,
,,,,,,,,2023-08-16_08h47.32.117,HF_wild_card,2022.2.4,Win32,60.07449237,63e5404324177f4d7f6c0c13,64d2fd46c836a06233681665,64dc7efe60e3fc75fffeb1b8,,,,,,,decisionTrl,resources/DB.BMP,resources/DG.BMP,Door2,0.186111097,0.005555541,1,0,0,0.5103,optionRight,20,8615,4,41,0,41,0,1,,,,,,,,,,,,,,,,,,,,,,,,,,,,,,,,,,,,,,,
,,,,,,,,2023-08-16_08h47.32.117,HF_wild_card,2022.2.4,Win32,60.07449237,63e5404324177f4d7f6c0c13,64d2fd46c836a06233681665,64dc7efe60e3fc75fffeb1b8,,,,,,,sngl,resources/Empty.png,resources/DP.BMP,WildCard_NonEx,0.222222222,0.0074074,1,0,0,0.6323,optionRight,45,8660,4,42,0,42,0,1,,,,,,,,,,,,,,,,,,,,,,,,,,,,,,,,,,,,,,,
,,,,,,,,2023-08-16_08h47.32.117,HF_wild_card,2022.2.4,Win32,60.07449237,63e5404324177f4d7f6c0c13,64d2fd46c836a06233681665,64dc7efe60e3fc75fffeb1b8,,,,,,,sngl,resources/Empty.png,resources/DP.BMP,WildCard_NonEx,0.349074046,0.01203703,1,0,0,0.4301,optionRight,55,8715,4,43,0,43,0,1,,,,,,,,,,,,,,,,,,,,,,,,,,,,,,,,,,,,,,,
,,,,,,,,2023-08-16_08h47.32.117,HF_wild_card,2022.2.4,Win32,60.07449237,63e5404324177f4d7f6c0c13,64d2fd46c836a06233681665,64dc7efe60e3fc75fffeb1b8,,,,,,,,,,,,,,,,,,,,,,,,,,3,0,3,0,1,,,,,,,,,,,,,,,,,,,,,,,,,,,,,,,,,,
,,,,,,,,2023-08-16_08h47.32.117,HF_wild_card,2022.2.4,Win32,60.07449237,63e5404324177f4d7f6c0c13,64d2fd46c836a06233681665,64dc7efe60e3fc75fffeb1b8,,,,,,,sngl,resources/Empty.png,resources/DR.BMP,Door4,0.250925912,-0.065740762,1,0,0,0.7089,optionRight,60,8775,5,0,0,0,0,1,,,,,,,,,,,,,,,,,,,,,,,,,,,,,,,,,,,,,,,
,,,,,,,,2023-08-16_08h47.32.117,HF_wild_card,2022.2.4,Win32,60.07449237,63e5404324177f4d7f6c0c13,64d2fd46c836a06233681665,64dc7efe60e3fc75fffeb1b8,,,,,,,sngl,resources/DB.BMP,resources/Empty.png,Door1,-0.331481474,-0.047222243,1,0,0,0.8794,optionLeft,30,8805,5,1,0,1,0,1,,,,,,,,,,,,,,,,,,,,,,,,,,,,,,,,,,,,,,,
,,,,,,,,2023-08-16_08h47.32.117,HF_wild_card,2022.2.4,Win32,60.07449237,63e5404324177f4d7f6c0c13,64d2fd46c836a06233681665,64dc7efe60e3fc75fffeb1b8,,,,,,,decisionTrl,resources/DG.BMP,resources/DB.BMP,Door1,0.207407422,0.009259259,1,0,0,0.6124,optionRight,30,8835,5,2,0,2,0,1,,,,,,,,,,,,,,,,,,,,,,,,,,,,,,,,,,,,,,,
,,,,,,,,2023-08-16_08h47.32.117,HF_wild_card,2022.2.4,Win32,60.07449237,63e5404324177f4d7f6c0c13,64d2fd46c836a06233681665,64dc7efe60e3fc75fffeb1b8,,,,,,,decisionTrl,resources/DB.BMP,resources/DG.BMP,Door1,-0.209259245,-0.025000007,1,0,0,0.3799,optionLeft,30,8865,5,3,0,3,0,1,,,,,,,,,,,,,,,,,,,,,,,,,,,,,,,,,,,,,,,
,,,,,,,,2023-08-16_08h47.32.117,HF_wild_card,2022.2.4,Win32,60.07449237,63e5404324177f4d7f6c0c13,64d2fd46c836a06233681665,64dc7efe60e3fc75fffeb1b8,,,,,,,decisionTrl,resources/DB.BMP,resources/DG.BMP,Door1,-0.198148162,-0.030555548,1,0,0,0.4128,optionLeft,30,8895,5,4,0,4,0,1,,,,,,,,,,,,,,,,,,,,,,,,,,,,,,,,,,,,,,,
,,,,,,,,2023-08-16_08h47.32.117,HF_wild_card,2022.2.4,Win32,60.07449237,63e5404324177f4d7f6c0c13,64d2fd46c836a06233681665,64dc7efe60e3fc75fffeb1b8,,,,,,,sngl,resources/Empty.png,resources/DG.BMP,Door2,0.309259344,-0.031481496,1,0,0,0.6287,optionRight,20,8915,5,5,0,5,0,1,,,,,,,,,,,,,,,,,,,,,,,,,,,,,,,,,,,,,,,
,,,,,,,,2023-08-16_08h47.32.117,HF_wild_card,2022.2.4,Win32,60.07449237,63e5404324177f4d7f6c0c13,64d2fd46c836a06233681665,64dc7efe60e3fc75fffeb1b8,,,,,,,sngl,resources/DG.BMP,resources/Empty.png,Door2,-0.23055557,-0.042592614,1,0,0,0.4294,optionLeft,40,8955,5,6,0,6,0,1,,,,,,,,,,,,,,,,,,,,,,,,,,,,,,,,,,,,,,,
,,,,,,,,2023-08-16_08h47.32.117,HF_wild_card,2022.2.4,Win32,60.07449237,63e5404324177f4d7f6c0c13,64d2fd46c836a06233681665,64dc7efe60e3fc75fffeb1b8,,,,,,,decisionTrl,resources/DY.BMP,resources/DR.BMP,Door3,-0.206481439,-0.047222243,1,0,0,0.4323,optionLeft,70,9025,5,7,0,7,0,1,,,,,,,,,,,,,,,,,,,,,,,,,,,,,,,,,,,,,,,
,,,,,,,,2023-08-16_08h47.32.117,HF_wild_card,2022.2.4,Win32,60.07449237,63e5404324177f4d7f6c0c13,64d2fd46c836a06233681665,64dc7efe60e3fc75fffeb1b8,,,,,,,ctch,resources/DY.BMP,resources/DG.BMP,Door3,-0.314814815,-0.056481503,1,0,0,0.3456,optionLeft,70,9095,5,8,0,8,0,1,,,,,,,,,,,,,,,,,,,,,,,,,,,,,,,,,,,,,,,
,,,,,,,,2023-08-16_08h47.32.117,HF_wild_card,2022.2.4,Win32,60.07449237,63e5404324177f4d7f6c0c13,64d2fd46c836a06233681665,64dc7efe60e3fc75fffeb1b8,,,,,,,ctch,resources/DR.BMP,resources/DB.BMP,Door4,-0.232407393,-0.037962984,1,0,0,0.3792,optionLeft,60,9155,5,9,0,9,0,1,,,,,,,,,,,,,,,,,,,,,,,,,,,,,,,,,,,,,,,
,,,,,,,,2023-08-16_08h47.32.117,HF_wild_card,2022.2.4,Win32,60.07449237,63e5404324177f4d7f6c0c13,64d2fd46c836a06233681665,64dc7efe60e3fc75fffeb1b8,,,,,,,decisionTrl,resources/DB.BMP,resources/DG.BMP,Door2,0.327777863,0.011111118,1,0,0,0.3139,optionRight,20,9175,5,10,0,10,0,1,,,,,,,,,,,,,,,,,,,,,,,,,,,,,,,,,,,,,,,
,,,,,,,,2023-08-16_08h47.32.117,HF_wild_card,2022.2.4,Win32,60.07449237,63e5404324177f4d7f6c0c13,64d2fd46c836a06233681665,64dc7efe60e3fc75fffeb1b8,,,,,,,ctch,resources/DB.BMP,resources/DR.BMP,Door1,-0.22592594,-0.046296296,1,0,0,0.3798,optionLeft,30,9205,5,11,0,11,0,1,,,,,,,,,,,,,,,,,,,,,,,,,,,,,,,,,,,,,,,
,,,,,,,,2023-08-16_08h47.32.117,HF_wild_card,2022.2.4,Win32,60.07449237,63e5404324177f4d7f6c0c13,64d2fd46c836a06233681665,64dc7efe60e3fc75fffeb1b8,,,,,,,sngl,resources/DR.BMP,resources/Empty.png,Door4,-0.290740755,-0.043518526,1,0,0,0.3099,optionLeft,80,9285,5,12,0,12,0,1,,,,,,,,,,,,,,,,,,,,,,,,,,,,,,,,,,,,,,,
,,,,,,,,2023-08-16_08h47.32.117,HF_wild_card,2022.2.4,Win32,60.07449237,63e5404324177f4d7f6c0c13,64d2fd46c836a06233681665,64dc7efe60e3fc75fffeb1b8,,,,,,,decisionTrl,resources/DR.BMP,resources/DY.BMP,Door4,-0.298148155,-0.037962984,1,0,0,0.3151,optionLeft,80,9365,5,13,0,13,0,1,,,,,,,,,,,,,,,,,,,,,,,,,,,,,,,,,,,,,,,
,,,,,,,,2023-08-16_08h47.32.117,HF_wild_card,2022.2.4,Win32,60.07449237,63e5404324177f4d7f6c0c13,64d2fd46c836a06233681665,64dc7efe60e3fc75fffeb1b8,,,,,,,decisionTrl,resources/DP.BMP,resources/DY.BMP,WildCard_NonEx,-0.252777735,-0.032407407,1,0,0,0.6162,optionLeft,55,9420,5,14,0,14,0,1,,,,,,,,,,,,,,,,,,,,,,,,,,,,,,,,,,,,,,,
,,,,,,,,2023-08-16_08h47.32.117,HF_wild_card,2022.2.4,Win32,60.07449237,63e5404324177f4d7f6c0c13,64d2fd46c836a06233681665,64dc7efe60e3fc75fffeb1b8,,,,,,,sngl,resources/DY.BMP,resources/Empty.png,Door3,-0.318518497,-0.037962984,1,0,0,0.48,optionLeft,70,9490,5,15,0,15,0,1,,,,,,,,,,,,,,,,,,,,,,,,,,,,,,,,,,,,,,,
,,,,,,,,2023-08-16_08h47.32.117,HF_wild_card,2022.2.4,Win32,60.07449237,63e5404324177f4d7f6c0c13,64d2fd46c836a06233681665,64dc7efe60e3fc75fffeb1b8,,,,,,,decisionTrl,resources/DP.BMP,resources/DG.BMP,Door2,0.209259245,-0.024074095,1,0,0,0.73,optionRight,20,9510,5,16,0,16,0,1,,,,,,,,,,,,,,,,,,,,,,,,,,,,,,,,,,,,,,,
,,,,,,,,2023-08-16_08h47.32.117,HF_wild_card,2022.2.4,Win32,60.07449237,63e5404324177f4d7f6c0c13,64d2fd46c836a06233681665,64dc7efe60e3fc75fffeb1b8,,,,,,,sngl,resources/Empty.png,resources/DP.BMP,WildCard_NonEx,0.320370427,0.020370377,1,0,0,0.5979,optionRight,55,9565,5,17,0,17,0,1,,,,,,,,,,,,,,,,,,,,,,,,,,,,,,,,,,,,,,,
,,,,,,,,2023-08-16_08h47.32.117,HF_wild_card,2022.2.4,Win32,60.07449237,63e5404324177f4d7f6c0c13,64d2fd46c836a06233681665,64dc7efe60e3fc75fffeb1b8,,,,,,,sngl,resources/Empty.png,resources/DB.BMP,Door1,0.255555541,0.0074074,1,0,0,0.4796,optionRight,30,9595,5,18,0,18,0,1,,,,,,,,,,,,,,,,,,,,,,,,,,,,,,,,,,,,,,,
,,,,,,,,2023-08-16_08h47.32.117,HF_wild_card,2022.2.4,Win32,60.07449237,63e5404324177f4d7f6c0c13,64d2fd46c836a06233681665,64dc7efe60e3fc75fffeb1b8,,,,,,,decisionTrl,resources/DG.BMP,resources/DB.BMP,Door2,-0.330555563,-0.040740755,1,0,0,0.7661,optionLeft,20,9615,5,19,0,19,0,1,,,,,,,,,,,,,,,,,,,,,,,,,,,,,,,,,,,,,,,
,,,,,,,,2023-08-16_08h47.32.117,HF_wild_card,2022.2.4,Win32,60.07449237,63e5404324177f4d7f6c0c13,64d2fd46c836a06233681665,64dc7efe60e3fc75fffeb1b8,,,,,,,decisionTrl,resources/DR.BMP,resources/DY.BMP,Door4,-0.181481467,-0.010185206,1,0,0,0.3797,optionLeft,80,9695,5,20,0,20,0,1,,,,,,,,,,,,,,,,,,,,,,,,,,,,,,,,,,,,,,,
,,,,,,,,2023-08-16_08h47.32.117,HF_wild_card,2022.2.4,Win32,60.07449237,63e5404324177f4d7f6c0c13,64d2fd46c836a06233681665,64dc7efe60e3fc75fffeb1b8,,,,,,,decisionTrl,resources/DP.BMP,resources/DR.BMP,WildCard_NonEx,-0.27407406,-0.020370377,1,0,0,0.3158,optionLeft,55,9750,5,21,0,21,0,1,,,,,,,,,,,,,,,,,,,,,,,,,,,,,,,,,,,,,,,
,,,,,,,,2023-08-16_08h47.32.117,HF_wild_card,2022.2.4,Win32,60.07449237,63e5404324177f4d7f6c0c13,64d2fd46c836a06233681665,64dc7efe60e3fc75fffeb1b8,,,,,,,sngl,resources/Empty.png,resources/DY.BMP,Door3,0.498148176,-0.019444466,1,0,0,0.3456,optionRight,70,9820,5,22,0,22,0,1,,,,,,,,,,,,,,,,,,,,,,,,,,,,,,,,,,,,,,,
,,,,,,,,2023-08-16_08h47.32.117,HF_wild_card,2022.2.4,Win32,60.07449237,63e5404324177f4d7f6c0c13,64d2fd46c836a06233681665,64dc7efe60e3fc75fffeb1b8,,,,,,,decisionTrl,resources/DY.BMP,resources/DR.BMP,Door4,0.26944443,0.003703683,1,0,0,0.4271,optionRight,60,9880,5,23,0,23,0,1,,,,,,,,,,,,,,,,,,,,,,,,,,,,,,,,,,,,,,,
,,,,,,,,2023-08-16_08h47.32.117,HF_wild_card,2022.2.4,Win32,60.07449237,63e5404324177f4d7f6c0c13,64d2fd46c836a06233681665,64dc7efe60e3fc75fffeb1b8,,,,,,,decisionTrl,resources/DR.BMP,resources/DP.BMP,WildCard_NonEx,0.199999986,-0.009259259,1,0,0,0.3745,optionRight,55,9935,5,24,0,24,0,1,,,,,,,,,,,,,,,,,,,,,,,,,,,,,,,,,,,,,,,
,,,,,,,,2023-08-16_08h47.32.117,HF_wild_card,2022.2.4,Win32,60.07449237,63e5404324177f4d7f6c0c13,64d2fd46c836a06233681665,64dc7efe60e3fc75fffeb1b8,,,,,,,decisionTrl,resources/DY.BMP,resources/DR.BMP,Door3,-0.285185143,-0.006481489,1,0,0,0.3314,optionLeft,70,10005,5,25,0,25,0,1,,,,,,,,,,,,,,,,,,,,,,,,,,,,,,,,,,,,,,,
,,,,,,,,2023-08-16_08h47.32.117,HF_wild_card,2022.2.4,Win32,60.07449237,63e5404324177f4d7f6c0c13,64d2fd46c836a06233681665,64dc7efe60e3fc75fffeb1b8,,,,,,,decisionTrl,resources/DR.BMP,resources/DY.BMP,Door3,0.276851866,-0.015740748,1,0,0,0.698,optionRight,70,10075,5,26,0,26,0,1,,,,,,,,,,,,,,,,,,,,,,,,,,,,,,,,,,,,,,,
,,,,,,,,2023-08-16_08h47.32.117,HF_wild_card,2022.2.4,Win32,60.07449237,63e5404324177f4d7f6c0c13,64d2fd46c836a06233681665,64dc7efe60e3fc75fffeb1b8,,,,,,,decisionTrl,resources/DP.BMP,resources/DB.BMP,WildCard_NonEx,-0.167592578,-0.034259266,1,0,0,0.4488,optionLeft,45,10120,5,27,0,27,0,1,,,,,,,,,,,,,,,,,,,,,,,,,,,,,,,,,,,,,,,
,,,,,,,,2023-08-16_08h47.32.117,HF_wild_card,2022.2.4,Win32,60.07449237,63e5404324177f4d7f6c0c13,64d2fd46c836a06233681665,64dc7efe60e3fc75fffeb1b8,,,,,,,sngl,resources/DP.BMP,resources/Empty.png,WildCard_NonEx,-0.154629601,-0.032407407,1,0,0,0.5986,optionLeft,55,10175,5,28,0,28,0,1,,,,,,,,,,,,,,,,,,,,,,,,,,,,,,,,,,,,,,,
,,,,,,,,2023-08-16_08h47.32.117,HF_wild_card,2022.2.4,Win32,60.07449237,63e5404324177f4d7f6c0c13,64d2fd46c836a06233681665,64dc7efe60e3fc75fffeb1b8,,,,,,,sngl,resources/DP.BMP,resources/Empty.png,WildCard_NonEx,-0.199074074,-0.025925919,1,0,0,0.5657,optionLeft,45,10220,5,29,0,29,0,1,,,,,,,,,,,,,,,,,,,,,,,,,,,,,,,,,,,,,,,
,,,,,,,,2023-08-16_08h47.32.117,HF_wild_card,2022.2.4,Win32,60.07449237,63e5404324177f4d7f6c0c13,64d2fd46c836a06233681665,64dc7efe60e3fc75fffeb1b8,,,,,,,decisionTrl,resources/DG.BMP,resources/DP.BMP,Door2,-0.195370356,-0.022222236,1,0,0,0.3972,optionLeft,20,10240,5,30,0,30,0,1,,,,,,,,,,,,,,,,,,,,,,,,,,,,,,,,,,,,,,,
,,,,,,,,2023-08-16_08h47.32.117,HF_wild_card,2022.2.4,Win32,60.07449237,63e5404324177f4d7f6c0c13,64d2fd46c836a06233681665,64dc7efe60e3fc75fffeb1b8,,,,,,,decisionTrl,resources/DB.BMP,resources/DG.BMP,Door2,0.17777782,0.001851859,1,0,0,0.3962,optionRight,40,10280,5,31,0,31,0,1,,,,,,,,,,,,,,,,,,,,,,,,,,,,,,,,,,,,,,,
,,,,,,,,2023-08-16_08h47.32.117,HF_wild_card,2022.2.4,Win32,60.07449237,63e5404324177f4d7f6c0c13,64d2fd46c836a06233681665,64dc7efe60e3fc75fffeb1b8,,,,,,,ctch,resources/DG.BMP,resources/DY.BMP,Door3,0.209259245,0.006481489,1,0,0,0.5477,optionRight,70,10350,5,32,0,32,0,1,,,,,,,,,,,,,,,,,,,,,,,,,,,,,,,,,,,,,,,
,,,,,,,,2023-08-16_08h47.32.117,HF_wild_card,2022.2.4,Win32,60.07449237,63e5404324177f4d7f6c0c13,64d2fd46c836a06233681665,64dc7efe60e3fc75fffeb1b8,,,,,,,ctch,resources/DR.BMP,resources/DB.BMP,Door1,0.267592607,0.01944443,1,0,0,0.4307,optionRight,30,10380,5,33,0,33,0,1,,,,,,,,,,,,,,,,,,,,,,,,,,,,,,,,,,,,,,,
,,,,,,,,2023-08-16_08h47.32.117,HF_wild_card,2022.2.4,Win32,60.07449237,63e5404324177f4d7f6c0c13,64d2fd46c836a06233681665,64dc7efe60e3fc75fffeb1b8,,,,,,,ctch,resources/DB.BMP,resources/DR.BMP,Door1,-0.257407365,-0.021296289,1,0,0,0.3141,optionLeft,30,10410,5,34,0,34,0,1,,,,,,,,,,,,,,,,,,,,,,,,,,,,,,,,,,,,,,,
,,,,,,,,2023-08-16_08h47.32.117,HF_wild_card,2022.2.4,Win32,60.07449237,63e5404324177f4d7f6c0c13,64d2fd46c836a06233681665,64dc7efe60e3fc75fffeb1b8,,,,,,,decisionTrl,resources/DG.BMP,resources/DB.BMP,Door2,-0.201851809,-0.003703718,1,0,0,0.3157,optionLeft,20,10430,5,35,0,35,0,1,,,,,,,,,,,,,,,,,,,,,,,,,,,,,,,,,,,,,,,
,,,,,,,,2023-08-16_08h47.32.117,HF_wild_card,2022.2.4,Win32,60.07449237,63e5404324177f4d7f6c0c13,64d2fd46c836a06233681665,64dc7efe60e3fc75fffeb1b8,,,,,,,ctch,resources/DG.BMP,resources/DY.BMP,Door2,-0.288888861,-0.014814836,1,0,0,0.2976,optionLeft,40,10470,5,36,0,36,0,1,,,,,,,,,,,,,,,,,,,,,,,,,,,,,,,,,,,,,,,
,,,,,,,,2023-08-16_08h47.32.117,HF_wild_card,2022.2.4,Win32,60.07449237,63e5404324177f4d7f6c0c13,64d2fd46c836a06233681665,64dc7efe60e3fc75fffeb1b8,,,,,,,decisionTrl,resources/DG.BMP,resources/DB.BMP,Door2,-0.271296254,-0.009259259,1,0,0,0.3292,optionLeft,40,10510,5,37,0,37,0,1,,,,,,,,,,,,,,,,,,,,,,,,,,,,,,,,,,,,,,,
,,,,,,,,2023-08-16_08h47.32.117,HF_wild_card,2022.2.4,Win32,60.07449237,63e5404324177f4d7f6c0c13,64d2fd46c836a06233681665,64dc7efe60e3fc75fffeb1b8,,,,,,,decisionTrl,resources/DY.BMP,resources/DP.BMP,WildCard_NonEx,0.231481481,-0.01666666,1,0,0,0.3465,optionRight,55,10565,5,38,0,38,0,1,,,,,,,,,,,,,,,,,,,,,,,,,,,,,,,,,,,,,,,
,,,,,,,,2023-08-16_08h47.32.117,HF_wild_card,2022.2.4,Win32,60.07449237,63e5404324177f4d7f6c0c13,64d2fd46c836a06233681665,64dc7efe60e3fc75fffeb1b8,,,,,,,decisionTrl,resources/DY.BMP,resources/DR.BMP,Door4,0.246296282,-0.014814836,1,0,0,0.3633,optionRight,80,10645,5,39,0,39,0,1,,,,,,,,,,,,,,,,,,,,,,,,,,,,,,,,,,,,,,,
,,,,,,,,2023-08-16_08h47.32.117,HF_wild_card,2022.2.4,Win32,60.07449237,63e5404324177f4d7f6c0c13,64d2fd46c836a06233681665,64dc7efe60e3fc75fffeb1b8,,,,,,,decisionTrl,resources/DB.BMP,resources/DP.BMP,WildCard_NonEx,0.264814801,-0.019444466,1,0,0,0.3479,optionRight,45,10690,5,40,0,40,0,1,,,,,,,,,,,,,,,,,,,,,,,,,,,,,,,,,,,,,,,
,,,,,,,,2023-08-16_08h47.32.117,HF_wild_card,2022.2.4,Win32,60.07449237,63e5404324177f4d7f6c0c13,64d2fd46c836a06233681665,64dc7efe60e3fc75fffeb1b8,,,,,,,ctch,resources/DY.BMP,resources/DG.BMP,Door3,-0.390740748,-0.029629637,1,0,0,0.3101,optionLeft,70,10760,5,41,0,41,0,1,,,,,,,,,,,,,,,,,,,,,,,,,,,,,,,,,,,,,,,
,,,,,,,,2023-08-16_08h47.32.117,HF_wild_card,2022.2.4,Win32,60.07449237,63e5404324177f4d7f6c0c13,64d2fd46c836a06233681665,64dc7efe60e3fc75fffeb1b8,,,,,,,sngl,resources/Empty.png,resources/DP.BMP,WildCard_NonEx,0.324074074,-0.024074095,1,0,0,1.013,optionRight,45,10805,5,42,0,42,0,1,,,,,,,,,,,,,,,,,,,,,,,,,,,,,,,,,,,,,,,
,,,,,,,,2023-08-16_08h47.32.117,HF_wild_card,2022.2.4,Win32,60.07449237,63e5404324177f4d7f6c0c13,64d2fd46c836a06233681665,64dc7efe60e3fc75fffeb1b8,,,,,,,decisionTrl,resources/DR.BMP,resources/DY.BMP,Door4,-0.234259217,-0.022222236,1,0,0,0.4158,optionLeft,60,10865,5,43,0,43,0,1,,,,,,,,,,,,,,,,,,,,,,,,,,,,,,,,,,,,,,,
,,,,,,,,2023-08-16_08h47.32.117,HF_wild_card,2022.2.4,Win32,60.07449237,63e5404324177f4d7f6c0c13,64d2fd46c836a06233681665,64dc7efe60e3fc75fffeb1b8,,,,,,,,,,,,,,,,,,,,,,,,,,4,0,4,0,1,,,,,,,,,,,,,,,,,,,,,,,,,,,,,,,,,,
,,,,,,,,2023-08-16_08h47.32.117,HF_wild_card,2022.2.4,Win32,60.07449237,63e5404324177f4d7f6c0c13,64d2fd46c836a06233681665,64dc7efe60e3fc75fffeb1b8,,,,,,,sngl,resources/Empty.png,resources/DP.BMP,WildCard_NonEx,0.351851852,-0.102777764,1,0,0,0.8085,optionRight,55,10920,6,0,0,0,0,1,,,,,,,,,,,,,,,,,,,,,,,,,,,,,,,,,,,,,,,
,,,,,,,,2023-08-16_08h47.32.117,HF_wild_card,2022.2.4,Win32,60.07449237,63e5404324177f4d7f6c0c13,64d2fd46c836a06233681665,64dc7efe60e3fc75fffeb1b8,,,,,,,decisionTrl,resources/DY.BMP,resources/DR.BMP,Door3,-0.246296282,-0.043518526,1,0,0,0.5745,optionLeft,70,10990,6,1,0,1,0,1,,,,,,,,,,,,,,,,,,,,,,,,,,,,,,,,,,,,,,,
,,,,,,,,2023-08-16_08h47.32.117,HF_wild_card,2022.2.4,Win32,60.07449237,63e5404324177f4d7f6c0c13,64d2fd46c836a06233681665,64dc7efe60e3fc75fffeb1b8,,,,,,,sngl,resources/DP.BMP,resources/Empty.png,WildCard_NonEx,-0.235185199,-0.031481496,1,0,0,0.6474,optionLeft,55,11045,6,2,0,2,0,1,,,,,,,,,,,,,,,,,,,,,,,,,,,,,,,,,,,,,,,
,,,,,,,,2023-08-16_08h47.32.117,HF_wild_card,2022.2.4,Win32,60.07449237,63e5404324177f4d7f6c0c13,64d2fd46c836a06233681665,64dc7efe60e3fc75fffeb1b8,,,,,,,ctch,resources/DG.BMP,resources/DY.BMP,Door2,-0.208333333,-0.033333355,1,0,0,0.3542,optionLeft,40,11085,6,3,0,3,0,1,,,,,,,,,,,,,,,,,,,,,,,,,,,,,,,,,,,,,,,
,,,,,,,,2023-08-16_08h47.32.117,HF_wild_card,2022.2.4,Win32,60.07449237,63e5404324177f4d7f6c0c13,64d2fd46c836a06233681665,64dc7efe60e3fc75fffeb1b8,,,,,,,ctch,resources/DR.BMP,resources/DB.BMP,Door4,-0.307407414,-0.022222236,1,0,0,0.2988,optionLeft,80,11165,6,4,0,4,0,1,,,,,,,,,,,,,,,,,,,,,,,,,,,,,,,,,,,,,,,
,,,,,,,,2023-08-16_08h47.32.117,HF_wild_card,2022.2.4,Win32,60.07449237,63e5404324177f4d7f6c0c13,64d2fd46c836a06233681665,64dc7efe60e3fc75fffeb1b8,,,,,,,sngl,resources/DR.BMP,resources/Empty.png,Door4,-0.234259217,-0.030555548,1,0,0,0.3362,optionLeft,60,11225,6,5,0,5,0,1,,,,,,,,,,,,,,,,,,,,,,,,,,,,,,,,,,,,,,,
,,,,,,,,2023-08-16_08h47.32.117,HF_wild_card,2022.2.4,Win32,60.07449237,63e5404324177f4d7f6c0c13,64d2fd46c836a06233681665,64dc7efe60e3fc75fffeb1b8,,,,,,,decisionTrl,resources/DY.BMP,resources/DR.BMP,Door3,-0.298148155,-0.01203703,1,0,0,0.3293,optionLeft,70,11295,6,6,0,6,0,1,,,,,,,,,,,,,,,,,,,,,,,,,,,,,,,,,,,,,,,
,,,,,,,,2023-08-16_08h47.32.117,HF_wild_card,2022.2.4,Win32,60.07449237,63e5404324177f4d7f6c0c13,64d2fd46c836a06233681665,64dc7efe60e3fc75fffeb1b8,,,,,,,decisionTrl,resources/DB.BMP,resources/DG.BMP,Door1,-0.279629601,-0.022222236,1,0,0,0.33,optionLeft,30,11325,6,7,0,7,0,1,,,,,,,,,,,,,,,,,,,,,,,,,,,,,,,,,,,,,,,
,,,,,,,,2023-08-16_08h47.32.117,HF_wild_card,2022.2.4,Win32,60.07449237,63e5404324177f4d7f6c0c13,64d2fd46c836a06233681665,64dc7efe60e3fc75fffeb1b8,,,,,,,ctch,resources/DR.BMP,resources/DB.BMP,Door4,-0.299999979,-0.023148148,1,0,0,0.2812,optionLeft,60,11385,6,8,0,8,0,1,,,,,,,,,,,,,,,,,,,,,,,,,,,,,,,,,,,,,,,
,,,,,,,,2023-08-16_08h47.32.117,HF_wild_card,2022.2.4,Win32,60.07449237,63e5404324177f4d7f6c0c13,64d2fd46c836a06233681665,64dc7efe60e3fc75fffeb1b8,,,,,,,decisionTrl,resources/DG.BMP,resources/DP.BMP,Door2,-0.194444444,-0.028703725,1,0,0,0.2792,optionLeft,20,11405,6,9,0,9,0,1,,,,,,,,,,,,,,,,,,,,,,,,,,,,,,,,,,,,,,,
,,,,,,,,2023-08-16_08h47.32.117,HF_wild_card,2022.2.4,Win32,60.07449237,63e5404324177f4d7f6c0c13,64d2fd46c836a06233681665,64dc7efe60e3fc75fffeb1b8,,,,,,,decisionTrl,resources/DB.BMP,resources/DG.BMP,Door2,0.225000028,-0.020370377,1,0,0,0.3297,optionRight,20,11425,6,10,0,10,0,1,,,,,,,,,,,,,,,,,,,,,,,,,,,,,,,,,,,,,,,
,,,,,,,,2023-08-16_08h47.32.117,HF_wild_card,2022.2.4,Win32,60.07449237,63e5404324177f4d7f6c0c13,64d2fd46c836a06233681665,64dc7efe60e3fc75fffeb1b8,,,,,,,decisionTrl,resources/DY.BMP,resources/DR.BMP,Door4,0.257407436,-0.034259266,1,0,0,0.3316,optionRight,80,11505,6,11,0,11,0,1,,,,,,,,,,,,,,,,,,,,,,,,,,,,,,,,,,,,,,,
,,,,,,,,2023-08-16_08h47.32.117,HF_wild_card,2022.2.4,Win32,60.07449237,63e5404324177f4d7f6c0c13,64d2fd46c836a06233681665,64dc7efe60e3fc75fffeb1b8,,,,,,,decisionTrl,resources/DR.BMP,resources/DY.BMP,Door3,0.250925912,-0.013888889,1,0,0,0.3121,optionRight,70,11575,6,12,0,12,0,1,,,,,,,,,,,,,,,,,,,,,,,,,,,,,,,,,,,,,,,
,,,,,,,,2023-08-16_08h47.32.117,HF_wild_card,2022.2.4,Win32,60.07449237,63e5404324177f4d7f6c0c13,64d2fd46c836a06233681665,64dc7efe60e3fc75fffeb1b8,,,,,,,decisionTrl,resources/DR.BMP,resources/DY.BMP,Door4,-0.217592593,-0.00462963,1,0,0,0.3133,optionLeft,60,11635,6,13,0,13,0,1,,,,,,,,,,,,,,,,,,,,,,,,,,,,,,,,,,,,,,,
,,,,,,,,2023-08-16_08h47.32.117,HF_wild_card,2022.2.4,Win32,60.07449237,63e5404324177f4d7f6c0c13,64d2fd46c836a06233681665,64dc7efe60e3fc75fffeb1b8,,,,,,,decisionTrl,resources/DG.BMP,resources/DB.BMP,Door2,-0.240740741,-0.026851866,1,0,0,0.3153,optionLeft,20,11655,6,14,0,14,0,1,,,,,,,,,,,,,,,,,,,,,,,,,,,,,,,,,,,,,,,
,,,,,,,,2023-08-16_08h47.32.117,HF_wild_card,2022.2.4,Win32,60.07449237,63e5404324177f4d7f6c0c13,64d2fd46c836a06233681665,64dc7efe60e3fc75fffeb1b8,,,,,,,sngl,resources/Empty.png,resources/DB.BMP,Door1,0.336111139,-0.045370384,1,0,0,0.3639,optionRight,30,11685,6,15,0,15,0,1,,,,,,,,,,,,,,,,,,,,,,,,,,,,,,,,,,,,,,,
,,,,,,,,2023-08-16_08h47.32.117,HF_wild_card,2022.2.4,Win32,60.07449237,63e5404324177f4d7f6c0c13,64d2fd46c836a06233681665,64dc7efe60e3fc75fffeb1b8,,,,,,,ctch,resources/DY.BMP,resources/DG.BMP,Door2,0.273148148,-0.027777778,1,0,0,0.9959,optionRight,20,11705,6,16,0,16,0,1,,,,,,,,,,,,,,,,,,,,,,,,,,,,,,,,,,,,,,,
,,,,,,,,2023-08-16_08h47.32.117,HF_wild_card,2022.2.4,Win32,60.07449237,63e5404324177f4d7f6c0c13,64d2fd46c836a06233681665,64dc7efe60e3fc75fffeb1b8,,,,,,,decisionTrl,resources/DB.BMP,resources/DG.BMP,Door1,-0.290740755,-0.015740748,1,0,0,0.3793,optionLeft,30,11735,6,17,0,17,0,1,,,,,,,,,,,,,,,,,,,,,,,,,,,,,,,,,,,,,,,
,,,,,,,,2023-08-16_08h47.32.117,HF_wild_card,2022.2.4,Win32,60.07449237,63e5404324177f4d7f6c0c13,64d2fd46c836a06233681665,64dc7efe60e3fc75fffeb1b8,,,,,,,sngl,resources/DG.BMP,resources/Empty.png,Door2,-0.212037051,-0.037962984,1,0,0,0.2819,optionLeft,20,11755,6,18,0,18,0,1,,,,,,,,,,,,,,,,,,,,,,,,,,,,,,,,,,,,,,,
,,,,,,,,2023-08-16_08h47.32.117,HF_wild_card,2022.2.4,Win32,60.07449237,63e5404324177f4d7f6c0c13,64d2fd46c836a06233681665,64dc7efe60e3fc75fffeb1b8,,,,,,,ctch,resources/DG.BMP,resources/DY.BMP,Door3,0.234259288,-0.020370377,1,0,0,0.314,optionRight,70,11825,6,19,0,19,0,1,,,,,,,,,,,,,,,,,,,,,,,,,,,,,,,,,,,,,,,
,,,,,,,,2023-08-16_08h47.32.117,HF_wild_card,2022.2.4,Win32,60.07449237,63e5404324177f4d7f6c0c13,64d2fd46c836a06233681665,64dc7efe60e3fc75fffeb1b8,,,,,,,decisionTrl,resources/DY.BMP,resources/DP.BMP,WildCard_NonEx,0.267592607,-0.025000007,1,0,0,0.3325,optionRight,55,11880,6,20,0,20,0,1,,,,,,,,,,,,,,,,,,,,,,,,,,,,,,,,,,,,,,,
,,,,,,,,2023-08-16_08h47.32.117,HF_wild_card,2022.2.4,Win32,60.07449237,63e5404324177f4d7f6c0c13,64d2fd46c836a06233681665,64dc7efe60e3fc75fffeb1b8,,,,,,,decisionTrl,resources/DG.BMP,resources/DB.BMP,Door2,-0.332407386,-0.009259259,1,0,0,0.2962,optionLeft,20,11900,6,21,0,21,0,1,,,,,,,,,,,,,,,,,,,,,,,,,,,,,,,,,,,,,,,
,,,,,,,,2023-08-16_08h47.32.117,HF_wild_card,2022.2.4,Win32,60.07449237,63e5404324177f4d7f6c0c13,64d2fd46c836a06233681665,64dc7efe60e3fc75fffeb1b8,,,,,,,decisionTrl,resources/DR.BMP,resources/DY.BMP,Door4,-0.342592593,-0.0074074,1,0,0,0.2797,optionLeft,60,11960,6,22,0,22,0,1,,,,,,,,,,,,,,,,,,,,,,,,,,,,,,,,,,,,,,,
,,,,,,,,2023-08-16_08h47.32.117,HF_wild_card,2022.2.4,Win32,60.07449237,63e5404324177f4d7f6c0c13,64d2fd46c836a06233681665,64dc7efe60e3fc75fffeb1b8,,,,,,,decisionTrl,resources/DG.BMP,resources/DB.BMP,Door2,-0.235185199,-0.036111125,1,0,0,1.1292,optionLeft,40,12000,6,23,0,23,0,1,,,,,,,,,,,,,,,,,,,,,,,,,,,,,,,,,,,,,,,
,,,,,,,,2023-08-16_08h47.32.117,HF_wild_card,2022.2.4,Win32,60.07449237,63e5404324177f4d7f6c0c13,64d2fd46c836a06233681665,64dc7efe60e3fc75fffeb1b8,,,,,,,decisionTrl,resources/DP.BMP,resources/DG.BMP,Door2,0.218518504,-0.036111125,1,0,0,0.7133,optionRight,40,12040,6,24,0,24,0,1,,,,,,,,,,,,,,,,,,,,,,,,,,,,,,,,,,,,,,,
,,,,,,,,2023-08-16_08h47.32.117,HF_wild_card,2022.2.4,Win32,60.07449237,63e5404324177f4d7f6c0c13,64d2fd46c836a06233681665,64dc7efe60e3fc75fffeb1b8,,,,,,,decisionTrl,resources/DP.BMP,resources/DY.BMP,Door3,0.244444459,0.003703683,1,0,0,0.4468,optionRight,70,12110,6,25,0,25,0,1,,,,,,,,,,,,,,,,,,,,,,,,,,,,,,,,,,,,,,,
,,,,,,,,2023-08-16_08h47.32.117,HF_wild_card,2022.2.4,Win32,60.07449237,63e5404324177f4d7f6c0c13,64d2fd46c836a06233681665,64dc7efe60e3fc75fffeb1b8,,,,,,,sngl,resources/DY.BMP,resources/Empty.png,Door3,-0.141666624,-0.037962984,1,0,0,0.882,optionLeft,70,12180,6,26,0,26,0,1,,,,,,,,,,,,,,,,,,,,,,,,,,,,,,,,,,,,,,,
,,,,,,,,2023-08-16_08h47.32.117,HF_wild_card,2022.2.4,Win32,60.07449237,63e5404324177f4d7f6c0c13,64d2fd46c836a06233681665,64dc7efe60e3fc75fffeb1b8,,,,,,,decisionTrl,resources/DG.BMP,resources/DB.BMP,Door1,0.253703718,-0.012962977,1,0,0,0.5466,optionRight,30,12210,6,27,0,27,0,1,,,,,,,,,,,,,,,,,,,,,,,,,,,,,,,,,,,,,,,
,,,,,,,,2023-08-16_08h47.32.117,HF_wild_card,2022.2.4,Win32,60.07449237,63e5404324177f4d7f6c0c13,64d2fd46c836a06233681665,64dc7efe60e3fc75fffeb1b8,,,,,,,decisionTrl,resources/DR.BMP,resources/DP.BMP,Door4,-0.23055557,-0.019444466,1,0,0,0.3808,optionLeft,80,12290,6,28,0,28,0,1,,,,,,,,,,,,,,,,,,,,,,,,,,,,,,,,,,,,,,,
,,,,,,,,2023-08-16_08h47.32.117,HF_wild_card,2022.2.4,Win32,60.07449237,63e5404324177f4d7f6c0c13,64d2fd46c836a06233681665,64dc7efe60e3fc75fffeb1b8,,,,,,,decisionTrl,resources/DP.BMP,resources/DB.BMP,Door1,0.279629672,0.001851859,1,0,0,0.3122,optionRight,30,12320,6,29,0,29,0,1,,,,,,,,,,,,,,,,,,,,,,,,,,,,,,,,,,,,,,,
,,,,,,,,2023-08-16_08h47.32.117,HF_wild_card,2022.2.4,Win32,60.07449237,63e5404324177f4d7f6c0c13,64d2fd46c836a06233681665,64dc7efe60e3fc75fffeb1b8,,,,,,,ctch,resources/DB.BMP,resources/DR.BMP,Door4,0.219444487,-0.017592607,1,0,0,0.4152,optionRight,80,12400,6,30,0,30,0,1,,,,,,,,,,,,,,,,,,,,,,,,,,,,,,,,,,,,,,,
,,,,,,,,2023-08-16_08h47.32.117,HF_wild_card,2022.2.4,Win32,60.07449237,63e5404324177f4d7f6c0c13,64d2fd46c836a06233681665,64dc7efe60e3fc75fffeb1b8,,,,,,,ctch,resources/DY.BMP,resources/DG.BMP,Door2,0.233333376,-0.013888889,1,0,0,0.3105,optionRight,20,12420,6,31,0,31,0,1,,,,,,,,,,,,,,,,,,,,,,,,,,,,,,,,,,,,,,,
,,,,,,,,2023-08-16_08h47.32.117,HF_wild_card,2022.2.4,Win32,60.07449237,63e5404324177f4d7f6c0c13,64d2fd46c836a06233681665,64dc7efe60e3fc75fffeb1b8,,,,,,,sngl,resources/DP.BMP,resources/Empty.png,WildCard_NonEx,0.212962963,-0.008333347,1,0,0,0.2804,optionLeft,45,12465,6,32,0,32,0,1,,,,,,,,,,,,,,,,,,,,,,,,,,,,,,,,,,,,,,,
,,,,,,,,2023-08-16_08h47.32.117,HF_wild_card,2022.2.4,Win32,60.07449237,63e5404324177f4d7f6c0c13,64d2fd46c836a06233681665,64dc7efe60e3fc75fffeb1b8,,,,,,,sngl,resources/DB.BMP,resources/Empty.png,Door1,-0.376851859,-0.068518533,1,0,0,0.5494,optionLeft,30,12495,6,33,0,33,0,1,,,,,,,,,,,,,,,,,,,,,,,,,,,,,,,,,,,,,,,
,,,,,,,,2023-08-16_08h47.32.117,HF_wild_card,2022.2.4,Win32,60.07449237,63e5404324177f4d7f6c0c13,64d2fd46c836a06233681665,64dc7efe60e3fc75fffeb1b8,,,,,,,decisionTrl,resources/DP.BMP,resources/DR.BMP,WildCard_NonEx,-0.229629587,-0.058333326,1,0,0,0.5961,optionLeft,45,12540,6,34,0,34,0,1,,,,,,,,,,,,,,,,,,,,,,,,,,,,,,,,,,,,,,,
,,,,,,,,2023-08-16_08h47.32.117,HF_wild_card,2022.2.4,Win32,60.07449237,63e5404324177f4d7f6c0c13,64d2fd46c836a06233681665,64dc7efe60e3fc75fffeb1b8,,,,,,,sngl,resources/Empty.png,resources/DR.BMP,Door4,0.155555584,-0.00462963,1,0,0,0.6963,optionRight,80,12620,6,35,0,35,0,1,,,,,,,,,,,,,,,,,,,,,,,,,,,,,,,,,,,,,,,
,,,,,,,,2023-08-16_08h47.32.117,HF_wild_card,2022.2.4,Win32,60.07449237,63e5404324177f4d7f6c0c13,64d2fd46c836a06233681665,64dc7efe60e3fc75fffeb1b8,,,,,,,sngl,resources/Empty.png,resources/DP.BMP,WildCard_NonEx,0.204629616,-0.010185206,1,0,0,0.7144,optionRight,45,12665,6,36,0,36,0,1,,,,,,,,,,,,,,,,,,,,,,,,,,,,,,,,,,,,,,,
,,,,,,,,2023-08-16_08h47.32.117,HF_wild_card,2022.2.4,Win32,60.07449237,63e5404324177f4d7f6c0c13,64d2fd46c836a06233681665,64dc7efe60e3fc75fffeb1b8,,,,,,,decisionTrl,resources/DB.BMP,resources/DG.BMP,Door2,0.211111139,-0.000925947,1,0,0,0.4978,optionRight,40,12705,6,37,0,37,0,1,,,,,,,,,,,,,,,,,,,,,,,,,,,,,,,,,,,,,,,
,,,,,,,,2023-08-16_08h47.32.117,HF_wild_card,2022.2.4,Win32,60.07449237,63e5404324177f4d7f6c0c13,64d2fd46c836a06233681665,64dc7efe60e3fc75fffeb1b8,,,,,,,sngl,resources/Empty.png,resources/DY.BMP,Door3,0.212962963,-0.0074074,1,0,0,0.8292,optionRight,70,12775,6,38,0,38,0,1,,,,,,,,,,,,,,,,,,,,,,,,,,,,,,,,,,,,,,,
,,,,,,,,2023-08-16_08h47.32.117,HF_wild_card,2022.2.4,Win32,60.07449237,63e5404324177f4d7f6c0c13,64d2fd46c836a06233681665,64dc7efe60e3fc75fffeb1b8,,,,,,,decisionTrl,resources/DR.BMP,resources/DY.BMP,Door3,0.198148162,0.0074074,1,0,0,0.5954,optionRight,70,12845,6,39,0,39,0,1,,,,,,,,,,,,,,,,,,,,,,,,,,,,,,,,,,,,,,,
,,,,,,,,2023-08-16_08h47.32.117,HF_wild_card,2022.2.4,Win32,60.07449237,63e5404324177f4d7f6c0c13,64d2fd46c836a06233681665,64dc7efe60e3fc75fffeb1b8,,,,,,,decisionTrl,resources/DB.BMP,resources/DP.BMP,WildCard_NonEx,0.18240745,0.014814801,1,0,0,0.4152,optionRight,45,12890,6,40,0,40,0,1,,,,,,,,,,,,,,,,,,,,,,,,,,,,,,,,,,,,,,,
,,,,,,,,2023-08-16_08h47.32.117,HF_wild_card,2022.2.4,Win32,60.07449237,63e5404324177f4d7f6c0c13,64d2fd46c836a06233681665,64dc7efe60e3fc75fffeb1b8,,,,,,,sngl,resources/Empty.png,resources/DG.BMP,Door2,0.40833339,0.048148155,1,0,0,0.6463,optionRight,40,12930,6,41,0,41,0,1,,,,,,,,,,,,,,,,,,,,,,,,,,,,,,,,,,,,,,,
,,,,,,,,2023-08-16_08h47.32.117,HF_wild_card,2022.2.4,Win32,60.07449237,63e5404324177f4d7f6c0c13,64d2fd46c836a06233681665,64dc7efe60e3fc75fffeb1b8,,,,,,,ctch,resources/DB.BMP,resources/DR.BMP,Door1,-0.295370384,-0.012962977,1,0,0,0.4975,optionLeft,30,12960,6,42,0,42,0,1,,,,,,,,,,,,,,,,,,,,,,,,,,,,,,,,,,,,,,,
,,,,,,,,2023-08-16_08h47.32.117,HF_wild_card,2022.2.4,Win32,60.07449237,63e5404324177f4d7f6c0c13,64d2fd46c836a06233681665,64dc7efe60e3fc75fffeb1b8,,,,,,,decisionTrl,resources/DY.BMP,resources/DR.BMP,Door4,0.285185213,0.006481489,1,0,0,0.4456,optionRight,60,13020,6,43,0,43,0,1,,,,,,,,,,,,,,,,,,,,,,,,,,,,,,,,,,,,,,,
,,,,,,,,2023-08-16_08h47.32.117,HF_wild_card,2022.2.4,Win32,60.07449237,63e5404324177f4d7f6c0c13,64d2fd46c836a06233681665,64dc7efe60e3fc75fffeb1b8,,,,,,,,,,,,,,,,,,,,,,,,,,5,0,5,0,1,,,,,,,,,,,,,,,,,,,,,,,,,,,,,,,,,,
,,,,,,,,2023-08-16_08h47.32.117,HF_wild_card,2022.2.4,Win32,60.07449237,63e5404324177f4d7f6c0c13,64d2fd46c836a06233681665,64dc7efe60e3fc75fffeb1b8,,,,,,,decisionTrl,resources/DG.BMP,resources/DB.BMP,Door1,0.287962949,-0.065740762,1,0,0,0.5857,optionRight,30,13050,7,0,0,0,0,1,,,,,,,,,,,,,,,,,,,,,,,,,,,,,,,,,,,,,,,
,,,,,,,,2023-08-16_08h47.32.117,HF_wild_card,2022.2.4,Win32,60.07449237,63e5404324177f4d7f6c0c13,64d2fd46c836a06233681665,64dc7efe60e3fc75fffeb1b8,,,,,,,decisionTrl,resources/DY.BMP,resources/DR.BMP,Door3,-0.427777785,-0.087037051,1,0,0,0.6977,optionLeft,70,13120,7,1,0,1,0,1,,,,,,,,,,,,,,,,,,,,,,,,,,,,,,,,,,,,,,,
,,,,,,,,2023-08-16_08h47.32.117,HF_wild_card,2022.2.4,Win32,60.07449237,63e5404324177f4d7f6c0c13,64d2fd46c836a06233681665,64dc7efe60e3fc75fffeb1b8,,,,,,,ctch,resources/DB.BMP,resources/DR.BMP,Door1,-0.247222194,-0.048148155,1,0,0,0.4648,optionLeft,30,13150,7,2,0,2,0,1,,,,,,,,,,,,,,,,,,,,,,,,,,,,,,,,,,,,,,,
,,,,,,,,2023-08-16_08h47.32.117,HF_wild_card,2022.2.4,Win32,60.07449237,63e5404324177f4d7f6c0c13,64d2fd46c836a06233681665,64dc7efe60e3fc75fffeb1b8,,,,,,,decisionTrl,resources/DR.BMP,resources/DY.BMP,Door3,0.268518519,-0.021296289,1,0,0,0.348,optionRight,70,13220,7,3,0,3,0,1,,,,,,,,,,,,,,,,,,,,,,,,,,,,,,,,,,,,,,,
,,,,,,,,2023-08-16_08h47.32.117,HF_wild_card,2022.2.4,Win32,60.07449237,63e5404324177f4d7f6c0c13,64d2fd46c836a06233681665,64dc7efe60e3fc75fffeb1b8,,,,,,,decisionTrl,resources/DG.BMP,resources/DB.BMP,Door1,0.346296381,0.010185171,1,0,0,0.4659,optionRight,30,13250,7,4,0,4,0,1,,,,,,,,,,,,,,,,,,,,,,,,,,,,,,,,,,,,,,,
,,,,,,,,2023-08-16_08h47.32.117,HF_wild_card,2022.2.4,Win32,60.07449237,63e5404324177f4d7f6c0c13,64d2fd46c836a06233681665,64dc7efe60e3fc75fffeb1b8,,,,,,,decisionTrl,resources/DR.BMP,resources/DY.BMP,Door4,-0.400925919,-0.044444437,1,0,0,0.2996,optionLeft,80,13330,7,5,0,5,0,1,,,,,,,,,,,,,,,,,,,,,,,,,,,,,,,,,,,,,,,
,,,,,,,,2023-08-16_08h47.32.117,HF_wild_card,2022.2.4,Win32,60.07449237,63e5404324177f4d7f6c0c13,64d2fd46c836a06233681665,64dc7efe60e3fc75fffeb1b8,,,,,,,decisionTrl,resources/DY.BMP,resources/DR.BMP,Door3,-0.228703675,-0.010185206,1,0,0,0.4167,optionLeft,70,13400,7,6,0,6,0,1,,,,,,,,,,,,,,,,,,,,,,,,,,,,,,,,,,,,,,,
,,,,,,,,2023-08-16_08h47.32.117,HF_wild_card,2022.2.4,Win32,60.07449237,63e5404324177f4d7f6c0c13,64d2fd46c836a06233681665,64dc7efe60e3fc75fffeb1b8,,,,,,,ctch,resources/DR.BMP,resources/DB.BMP,Door1,0.225000028,0.000925912,1,0,0,0.3979,optionRight,30,13430,7,7,0,7,0,1,,,,,,,,,,,,,,,,,,,,,,,,,,,,,,,,,,,,,,,
,,,,,,,,2023-08-16_08h47.32.117,HF_wild_card,2022.2.4,Win32,60.07449237,63e5404324177f4d7f6c0c13,64d2fd46c836a06233681665,64dc7efe60e3fc75fffeb1b8,,,,,,,decisionTrl,resources/DR.BMP,resources/DY.BMP,Door3,0.196296339,0.00462963,1,0,0,0.4148,optionRight,70,13500,7,8,0,8,0,1,,,,,,,,,,,,,,,,,,,,,,,,,,,,,,,,,,,,,,,
,,,,,,,,2023-08-16_08h47.32.117,HF_wild_card,2022.2.4,Win32,60.07449237,63e5404324177f4d7f6c0c13,64d2fd46c836a06233681665,64dc7efe60e3fc75fffeb1b8,,,,,,,ctch,resources/DY.BMP,resources/DG.BMP,Door2,0.229629658,0.009259259,1,0,0,0.3822,optionRight,20,13520,7,9,0,9,0,1,,,,,,,,,,,,,,,,,,,,,,,,,,,,,,,,,,,,,,,
,,,,,,,,2023-08-16_08h47.32.117,HF_wild_card,2022.2.4,Win32,60.07449237,63e5404324177f4d7f6c0c13,64d2fd46c836a06233681665,64dc7efe60e3fc75fffeb1b8,,,,,,,decisionTrl,resources/DY.BMP,resources/DR.BMP,Door3,-0.262036995,-0.034259266,1,0,0,0.3988,optionLeft,70,13590,7,10,0,10,0,1,,,,,,,,,,,,,,,,,,,,,,,,,,,,,,,,,,,,,,,
,,,,,,,,2023-08-16_08h47.32.117,HF_wild_card,2022.2.4,Win32,60.07449237,63e5404324177f4d7f6c0c13,64d2fd46c836a06233681665,64dc7efe60e3fc75fffeb1b8,,,,,,,decisionTrl,resources/DB.BMP,resources/DG.BMP,Door1,-0.209259245,-0.041666667,1,0,0,0.3982,optionLeft,30,13620,7,11,0,11,0,1,,,,,,,,,,,,,,,,,,,,,,,,,,,,,,,,,,,,,,,
,,,,,,,,2023-08-16_08h47.32.117,HF_wild_card,2022.2.4,Win32,60.07449237,63e5404324177f4d7f6c0c13,64d2fd46c836a06233681665,64dc7efe60e3fc75fffeb1b8,,,,,,,decisionTrl,resources/DR.BMP,resources/DY.BMP,Door4,-0.215740698,-0.040740755,1,0,0,0.3329,optionLeft,80,13700,7,12,0,12,0,1,,,,,,,,,,,,,,,,,,,,,,,,,,,,,,,,,,,,,,,
,,,,,,,,2023-08-16_08h47.32.117,HF_wild_card,2022.2.4,Win32,60.07449237,63e5404324177f4d7f6c0c13,64d2fd46c836a06233681665,64dc7efe60e3fc75fffeb1b8,,,,,,,ctch,resources/DG.BMP,resources/DY.BMP,Door2,-0.232407393,-0.044444437,1,0,0,0.3495,optionLeft,20,13720,7,13,0,13,0,1,,,,,,,,,,,,,,,,,,,,,,,,,,,,,,,,,,,,,,,
,,,,,,,,2023-08-16_08h47.32.117,HF_wild_card,2022.2.4,Win32,60.07449237,63e5404324177f4d7f6c0c13,64d2fd46c836a06233681665,64dc7efe60e3fc75fffeb1b8,,,,,,,decisionTrl,resources/DG.BMP,resources/DB.BMP,Door1,0.26944443,-0.01666666,1,0,0,0.3488,optionRight,30,13750,7,14,0,14,0,1,,,,,,,,,,,,,,,,,,,,,,,,,,,,,,,,,,,,,,,
,,,,,,,,2023-08-16_08h47.32.117,HF_wild_card,2022.2.4,Win32,60.07449237,63e5404324177f4d7f6c0c13,64d2fd46c836a06233681665,64dc7efe60e3fc75fffeb1b8,,,,,,,decisionTrl,resources/DB.BMP,resources/DG.BMP,Door2,0.198148162,-0.005555577,1,0,0,0.3326,optionRight,40,13790,7,15,0,15,0,1,,,,,,,,,,,,,,,,,,,,,,,,,,,,,,,,,,,,,,,
,,,,,,,,2023-08-16_08h47.32.117,HF_wild_card,2022.2.4,Win32,60.07449237,63e5404324177f4d7f6c0c13,64d2fd46c836a06233681665,64dc7efe60e3fc75fffeb1b8,,,,,,,decisionTrl,resources/DB.BMP,resources/DG.BMP,Door2,0.275925954,0.000925912,1,0,0,0.3665,optionRight,40,13830,7,16,0,16,0,1,,,,,,,,,,,,,,,,,,,,,,,,,,,,,,,,,,,,,,,
,,,,,,,,2023-08-16_08h47.32.117,HF_wild_card,2022.2.4,Win32,60.07449237,63e5404324177f4d7f6c0c13,64d2fd46c836a06233681665,64dc7efe60e3fc75fffeb1b8,,,,,,,decisionTrl,resources/DY.BMP,resources/DR.BMP,Door3,-0.234259217,-0.059259273,1,0,0,0.3475,optionLeft,70,13900,7,17,0,17,0,1,,,,,,,,,,,,,,,,,,,,,,,,,,,,,,,,,,,,,,,
,,,,,,,,2023-08-16_08h47.32.117,HF_wild_card,2022.2.4,Win32,60.07449237,63e5404324177f4d7f6c0c13,64d2fd46c836a06233681665,64dc7efe60e3fc75fffeb1b8,,,,,,,ctch,resources/DR.BMP,resources/DB.BMP,Door4,-0.242592564,-0.058333326,1,0,0,0.3154,optionLeft,60,13960,7,18,0,18,0,1,,,,,,,,,,,,,,,,,,,,,,,,,,,,,,,,,,,,,,,
,,,,,,,,2023-08-16_08h47.32.117,HF_wild_card,2022.2.4,Win32,60.07449237,63e5404324177f4d7f6c0c13,64d2fd46c836a06233681665,64dc7efe60e3fc75fffeb1b8,,,,,,,decisionTrl,resources/DR.BMP,resources/DY.BMP,Door4,-0.219444416,-0.050000014,1,0,0,0.3318,optionLeft,60,14020,7,19,0,19,0,1,,,,,,,,,,,,,,,,,,,,,,,,,,,,,,,,,,,,,,,
,,,,,,,,2023-08-16_08h47.32.117,HF_wild_card,2022.2.4,Win32,60.07449237,63e5404324177f4d7f6c0c13,64d2fd46c836a06233681665,64dc7efe60e3fc75fffeb1b8,,,,,,,decisionTrl,resources/DY.BMP,resources/DR.BMP,Door4,0.25462963,-0.019444466,1,0,0,0.3668,optionRight,60,14080,7,20,0,20,0,1,,,,,,,,,,,,,,,,,,,,,,,,,,,,,,,,,,,,,,,
,,,,,,,,2023-08-16_08h47.32.117,HF_wild_card,2022.2.4,Win32,60.07449237,63e5404324177f4d7f6c0c13,64d2fd46c836a06233681665,64dc7efe60e3fc75fffeb1b8,,,,,,,decisionTrl,resources/DB.BMP,resources/DG.BMP,Door2,0.279629672,-0.036111125,1,0,0,0.4992,optionRight,40,14120,7,21,0,21,0,1,,,,,,,,,,,,,,,,,,,,,,,,,,,,,,,,,,,,,,,
,,,,,,,,2023-08-16_08h47.32.117,HF_wild_card,2022.2.4,Win32,60.07449237,63e5404324177f4d7f6c0c13,64d2fd46c836a06233681665,64dc7efe60e3fc75fffeb1b8,,,,,,,decisionTrl,resources/DR.BMP,resources/DY.BMP,Door3,0.29814812,0.020370377,1,0,0,0.5796,optionRight,70,14190,7,22,0,22,0,1,,,,,,,,,,,,,,,,,,,,,,,,,,,,,,,,,,,,,,,
,,,,,,,,2023-08-16_08h47.32.117,HF_wild_card,2022.2.4,Win32,60.07449237,63e5404324177f4d7f6c0c13,64d2fd46c836a06233681665,64dc7efe60e3fc75fffeb1b8,,,,,,,decisionTrl,resources/DG.BMP,resources/DB.BMP,Door2,-0.198148162,-0.045370384,1,0,0,0.6309,optionLeft,40,14230,7,23,0,23,0,1,,,,,,,,,,,,,,,,,,,,,,,,,,,,,,,,,,,,,,,
,,,,,,,,2023-08-16_08h47.32.117,HF_wild_card,2022.2.4,Win32,60.07449237,63e5404324177f4d7f6c0c13,64d2fd46c836a06233681665,64dc7efe60e3fc75fffeb1b8,,,,,,,decisionTrl,resources/DG.BMP,resources/DB.BMP,Door2,-0.226851852,-0.050000014,1,0,0,0.3989,optionLeft,20,14250,7,24,0,24,0,1,,,,,,,,,,,,,,,,,,,,,,,,,,,,,,,,,,,,,,,
,,,,,,,,2023-08-16_08h47.32.117,HF_wild_card,2022.2.4,Win32,60.07449237,63e5404324177f4d7f6c0c13,64d2fd46c836a06233681665,64dc7efe60e3fc75fffeb1b8,,,,,,,decisionTrl,resources/DB.BMP,resources/DG.BMP,Door1,-0.283333319,-0.045370384,1,0,0,0.3644,optionLeft,30,14280,7,25,0,25,0,1,,,,,,,,,,,,,,,,,,,,,,,,,,,,,,,,,,,,,,,
,,,,,,,,2023-08-16_08h47.32.117,HF_wild_card,2022.2.4,Win32,60.07449237,63e5404324177f4d7f6c0c13,64d2fd46c836a06233681665,64dc7efe60e3fc75fffeb1b8,,,,,,,decisionTrl,resources/DY.BMP,resources/DR.BMP,Door4,0.320370427,-0.01203703,1,0,0,0.4996,optionRight,80,14360,7,26,0,26,0,1,,,,,,,,,,,,,,,,,,,,,,,,,,,,,,,,,,,,,,,
,,,,,,,,2023-08-16_08h47.32.117,HF_wild_card,2022.2.4,Win32,60.07449237,63e5404324177f4d7f6c0c13,64d2fd46c836a06233681665,64dc7efe60e3fc75fffeb1b8,,,,,,,ctch,resources/DB.BMP,resources/DR.BMP,Door4,0.276851866,0.002777771,1,0,0,0.3981,optionRight,60,14420,7,27,0,27,0,1,,,,,,,,,,,,,,,,,,,,,,,,,,,,,,,,,,,,,,,
,,,,,,,,2023-08-16_08h47.32.117,HF_wild_card,2022.2.4,Win32,60.07449237,63e5404324177f4d7f6c0c13,64d2fd46c836a06233681665,64dc7efe60e3fc75fffeb1b8,,,,,,,ctch,resources/DY.BMP,resources/DG.BMP,Door2,0.250925912,-0.009259259,1,0,0,0.5982,optionRight,20,14440,7,28,0,28,0,1,,,,,,,,,,,,,,,,,,,,,,,,,,,,,,,,,,,,,,,
,,,,,,,,2023-08-16_08h47.32.117,HF_wild_card,2022.2.4,Win32,60.07449237,63e5404324177f4d7f6c0c13,64d2fd46c836a06233681665,64dc7efe60e3fc75fffeb1b8,,,,,,,decisionTrl,resources/DG.BMP,resources/DB.BMP,Door2,-0.27870369,-0.072222215,1,0,0,0.3978,optionLeft,40,14480,7,29,0,29,0,1,,,,,,,,,,,,,,,,,,,,,,,,,,,,,,,,,,,,,,,
,,,,,,,,2023-08-16_08h47.32.117,HF_wild_card,2022.2.4,Win32,60.07449237,63e5404324177f4d7f6c0c13,64d2fd46c836a06233681665,64dc7efe60e3fc75fffeb1b8,,,,,,,ctch,resources/DY.BMP,resources/DG.BMP,Door3,-0.167592578,-0.046296296,1,0,0,0.3647,optionLeft,70,14550,7,30,0,30,0,1,,,,,,,,,,,,,,,,,,,,,,,,,,,,,,,,,,,,,,,
,,,,,,,,2023-08-16_08h47.32.117,HF_wild_card,2022.2.4,Win32,60.07449237,63e5404324177f4d7f6c0c13,64d2fd46c836a06233681665,64dc7efe60e3fc75fffeb1b8,,,,,,,decisionTrl,resources/DB.BMP,resources/DG.BMP,Door1,-0.186111097,-0.058333326,1,0,0,0.3481,optionLeft,30,14580,7,31,0,31,0,1,,,,,,,,,,,,,,,,,,,,,,,,,,,,,,,,,,,,,,,
,,,,,,,,2023-08-16_08h47.32.117,HF_wild_card,2022.2.4,Win32,60.07449237,63e5404324177f4d7f6c0c13,64d2fd46c836a06233681665,64dc7efe60e3fc75fffeb1b8,,,,,,,ctch,resources/DR.BMP,resources/DB.BMP,Door1,0.284259302,-0.037037037,1,0,0,0.3817,optionRight,30,14610,7,32,0,32,0,1,,,,,,,,,,,,,,,,,,,,,,,,,,,,,,,,,,,,,,,
,,,,,,,,2023-08-16_08h47.32.117,HF_wild_card,2022.2.4,Win32,60.07449237,63e5404324177f4d7f6c0c13,64d2fd46c836a06233681665,64dc7efe60e3fc75fffeb1b8,,,,,,,ctch,resources/DG.BMP,resources/DY.BMP,Door3,0.209259245,-0.014814836,1,0,0,0.3314,optionRight,70,14680,7,33,0,33,0,1,,,,,,,,,,,,,,,,,,,,,,,,,,,,,,,,,,,,,,,
,,,,,,,,2023-08-16_08h47.32.117,HF_wild_card,2022.2.4,Win32,60.07449237,63e5404324177f4d7f6c0c13,64d2fd46c836a06233681665,64dc7efe60e3fc75fffeb1b8,,,,,,,ctch,resources/DB.BMP,resources/DR.BMP,Door4,0.281481496,0.003703683,1,0,0,0.3825,optionRight,60,14740,7,34,0,34,0,1,,,,,,,,,,,,,,,,,,,,,,,,,,,,,,,,,,,,,,,
,,,,,,,,2023-08-16_08h47.32.117,HF_wild_card,2022.2.4,Win32,60.07449237,63e5404324177f4d7f6c0c13,64d2fd46c836a06233681665,64dc7efe60e3fc75fffeb1b8,,,,,,,ctch,resources/DG.BMP,resources/DY.BMP,Door2,-0.241666653,-0.075000021,1,0,0,0.3646,optionLeft,20,14760,7,35,0,35,0,1,,,,,,,,,,,,,,,,,,,,,,,,,,,,,,,,,,,,,,,
,,,,,,,,2023-08-16_08h47.32.117,HF_wild_card,2022.2.4,Win32,60.07449237,63e5404324177f4d7f6c0c13,64d2fd46c836a06233681665,64dc7efe60e3fc75fffeb1b8,,,,,,,,,,,,,,,,,,,,,,,,,,6,0,6,0,1,,,,,,,,,,,,,,,,,,,,,,,,,,,,,,,,,,
,,,,,,,,2023-08-16_08h47.32.117,HF_wild_card,2022.2.4,Win32,60.07449237,63e5404324177f4d7f6c0c13,64d2fd46c836a06233681665,64dc7efe60e3fc75fffeb1b8,,,,,,,,,,,,,,,,,,,,,,,,,,,,,,,3,,,,,,,,,,,,,,,,,,,,,,,,,,,,,,,,,
,,,,,,,,2023-08-16_08h47.32.117,HF_wild_card,2022.2.4,Win32,60.07449237,63e5404324177f4d7f6c0c13,64d2fd46c836a06233681665,64dc7efe60e3fc75fffeb1b8,,,,,,,,,,,,,,,,,,,,,,,,,,,,,,,,,,,,,,,,,,,,,,,,,,,,,,,,,,,,,,,,
,,,,,,,,2023-08-16_08h47.32.117,HF_wild_card,2022.2.4,Win32,60.07449237,63e5404324177f4d7f6c0c13,64d2fd46c836a06233681665,64dc7efe60e3fc75fffeb1b8,,,,,,,,,,,,,,,,,,,,,,,,,,,,,,,,20,WC_extreme,resources/DBN.BMP,0,0,0,0,1,,,,,,,,,,,,,,,,,,,,,,,,,
,,,,,,,,2023-08-16_08h47.32.117,HF_wild_card,2022.2.4,Win32,60.07449237,63e5404324177f4d7f6c0c13,64d2fd46c836a06233681665,64dc7efe60e3fc75fffeb1b8,,,,,,,,,,,,,,,,,,,,,,,,,,,,,,,,40,WC_nonExtreme,resources/DP.BMP,1,0,1,0,1,,,,,,,,,,,,,,,,,,,,,,,,,
,,,,,,,,2023-08-16_08h47.32.117,HF_wild_card,2022.2.4,Win32,60.07449237,63e5404324177f4d7f6c0c13,64d2fd46c836a06233681665,64dc7efe60e3fc75fffeb1b8,,,,,,,,,,,,,,,,,,,,,,,,,,,,,,,,90,Door4,resources/DR.BMP,2,0,2,0,1,,,,,,,,,,,,,,,,,,,,,,,,,
,,,,,,,,2023-08-16_08h47.32.117,HF_wild_card,2022.2.4,Win32,60.07449237,63e5404324177f4d7f6c0c13,64d2fd46c836a06233681665,64dc7efe60e3fc75fffeb1b8,,,,,,,,,,,,,,,,,,,,,,,,,,,,,,,,80,Door3,resources/DY.BMP,3,0,3,0,1,,,,,,,,,,,,,,,,,,,,,,,,,
,,,,,,,,2023-08-16_08h47.32.117,HF_wild_card,2022.2.4,Win32,60.07449237,63e5404324177f4d7f6c0c13,64d2fd46c836a06233681665,64dc7efe60e3fc75fffeb1b8,,,,,,,,,,,,,,,,,,,,,,,,,,,,,,,,60,Door1,resources/DB.BMP,4,0,4,0,1,,,,,,,,,,,,,,,,,,,,,,,,,
,,,,,,,,2023-08-16_08h47.32.117,HF_wild_card,2022.2.4,Win32,60.07449237,63e5404324177f4d7f6c0c13,64d2fd46c836a06233681665,64dc7efe60e3fc75fffeb1b8,,,,,,,,,,,,,,,,,,,,,,,,,,,,,,,,5,Door2,resources/DG.BMP,5,0,5,0,1,,,,,,,,,,,,,,,,,,,,,,,,,
,,,,,,,,2023-08-16_08h47.32.117,HF_wild_card,2022.2.4,Win32,60.07449237,63e5404324177f4d7f6c0c13,64d2fd46c836a06233681665,64dc7efe60e3fc75fffeb1b8,,,,,,,,,,,,,,,,,,,,,,,,,,,,,,,,,,,,,,,,,,,,,,,,,,,,,,,,,,,,,,,,
