Condition,Low fixed image (Door1),Low risky image (Door2),High fixed image (Door3),High risky image (Door4),Extreme Wild Card,NonExtreme Wild Card,,date,expName,psychopyVersion,OS,frameRate,PROLIFIC_PID,STUDY_ID,SESSION_ID,mouse_2.x,mouse_2.y,mouse_2.leftButton,mouse_2.midButton,mouse_2.rightButton,mouse_2.clicked_name,Trial Type,Left Option Image,Right Option Image,Chosen Door,mouse.x,mouse.y,mouse.leftButton,mouse.midButton,mouse.rightButton,mouse.time,mouse.clicked_name,Feedback,Cumulative Reward,Block,trial.thisRepN,trial.thisTrialN,trial.thisN,trial.thisIndex,trial.ran,blocks.thisRepN,blocks.thisTrialN,blocks.thisN,blocks.thisIndex,blocks.ran,Money conversion,First Outcome Reported,Shown Door (First Outcome),Displayed Image (First Outcome),outcomes.thisRepN,outcomes.thisTrialN,outcomes.thisN,outcomes.thisIndex,outcomes.ran,judgments.thisRepN,judgments.thisTrialN,judgments.thisN,judgments.thisIndex,judgments.ran,freqMouse.x,freqMouse.y,freqMouse.leftButton,freqMouse.midButton,freqMouse.rightButton,freqMouse.clicked_name,FQJ for first outcome,FQJ for second outcome,Shown Door,Displayed Image,trials.thisRepN,trials.thisTrialN,trials.thisN,trials.thisIndex,trials.ran,judgBlock.thisRepN,judgBlock.thisTrialN,judgBlock.thisN,judgBlock.thisIndex,judgBlock.ran
1,resources/DY.BMP,resources/DB.BMP,resources/DBN.BMP,resources/DG.BMP,resources/DR.BMP,resources/DP.BMP,5f95ecdf1381b512f13ab6f0,2023-08-16_09h24.00.074,HF_wild_card,2022.2.4,Win32,62.5,5f95ecdf1381b512f13ab6f0,64d2fd46c836a06233681665,64dc7aa20a19884bc24e5728,,,,,,,,,,,,,,,,,,,,,,,,,,,,,,,,,,,,,,,,,,,,,,,,,,,,,,,,,,,,,,,,
,,,,,,,5f95ecdf1381b512f13ab6f0,2023-08-16_09h24.00.074,HF_wild_card,2022.2.4,Win32,62.5,5f95ecdf1381b512f13ab6f0,64d2fd46c836a06233681665,64dc7aa20a19884bc24e5728,0.001388889,-0.417361111,1,0,0,agree,,,,,,,,,,,,,,,,,,,,,,,,,,,,,,,,,,,,,,,,,,,,,,,,,,,,,,,,,,
,,,,,,,5f95ecdf1381b512f13ab6f0,2023-08-16_09h24.00.074,HF_wild_card,2022.2.4,Win32,62.5,5f95ecdf1381b512f13ab6f0,64d2fd46c836a06233681665,64dc7aa20a19884bc24e5728,,,,,,,,,,,,,,,,,,,,,,,,,,,,,,,,,,,,,,,,,,,,,,,,,,,,,,,,,,,,,,,,
,,,,,,,5f95ecdf1381b512f13ab6f0,2023-08-16_09h24.00.074,HF_wild_card,2022.2.4,Win32,62.5,5f95ecdf1381b512f13ab6f0,64d2fd46c836a06233681665,64dc7aa20a19884bc24e5728,,,,,,,sngl,resources/Empty.png,resources/DP.BMP,WildCard_NonEx,0.210416667,-0.0875,1,0,0,0.95,optionRight,55,55,1,0,0,0,0,1,,,,,,,,,,,,,,,,,,,,,,,,,,,,,,,,,,,,,,,
,,,,,,,5f95ecdf1381b512f13ab6f0,2023-08-16_09h24.00.074,HF_wild_card,2022.2.4,Win32,62.5,5f95ecdf1381b512f13ab6f0,64d2fd46c836a06233681665,64dc7aa20a19884bc24e5728,,,,,,,sngl,resources/DP.BMP,resources/Empty.png,WildCard_NonEx,-0.165277778,0.027083333,1,0,0,0.648,optionLeft,45,100,1,1,0,1,0,1,,,,,,,,,,,,,,,,,,,,,,,,,,,,,,,,,,,,,,,
,,,,,,,5f95ecdf1381b512f13ab6f0,2023-08-16_09h24.00.074,HF_wild_card,2022.2.4,Win32,62.5,5f95ecdf1381b512f13ab6f0,64d2fd46c836a06233681665,64dc7aa20a19884bc24e5728,,,,,,,sngl,resources/DP.BMP,resources/Empty.png,WildCard_NonEx,-0.174305556,0.009027778,1,0,0,0.548,optionLeft,55,155,1,2,0,2,0,1,,,,,,,,,,,,,,,,,,,,,,,,,,,,,,,,,,,,,,,
,,,,,,,5f95ecdf1381b512f13ab6f0,2023-08-16_09h24.00.074,HF_wild_card,2022.2.4,Win32,62.5,5f95ecdf1381b512f13ab6f0,64d2fd46c836a06233681665,64dc7aa20a19884bc24e5728,,,,,,,sngl,resources/Empty.png,resources/DG.BMP,Door4,0.194444444,0.022916667,1,0,0,0.68,optionRight,60,215,1,3,0,3,0,1,,,,,,,,,,,,,,,,,,,,,,,,,,,,,,,,,,,,,,,
,,,,,,,5f95ecdf1381b512f13ab6f0,2023-08-16_09h24.00.074,HF_wild_card,2022.2.4,Win32,62.5,5f95ecdf1381b512f13ab6f0,64d2fd46c836a06233681665,64dc7aa20a19884bc24e5728,,,,,,,sngl,resources/Empty.png,resources/DP.BMP,WildCard_NonEx,0.19375,0.017361111,1,0,0,0.6,optionRight,45,260,1,4,0,4,0,1,,,,,,,,,,,,,,,,,,,,,,,,,,,,,,,,,,,,,,,
,,,,,,,5f95ecdf1381b512f13ab6f0,2023-08-16_09h24.00.074,HF_wild_card,2022.2.4,Win32,62.5,5f95ecdf1381b512f13ab6f0,64d2fd46c836a06233681665,64dc7aa20a19884bc24e5728,,,,,,,decisionTrl,resources/DBN.BMP,resources/DG.BMP,Door4,0.245138889,0.017361111,1,0,0,0.867,optionRight,80,340,1,5,0,5,0,1,,,,,,,,,,,,,,,,,,,,,,,,,,,,,,,,,,,,,,,
,,,,,,,5f95ecdf1381b512f13ab6f0,2023-08-16_09h24.00.074,HF_wild_card,2022.2.4,Win32,62.5,5f95ecdf1381b512f13ab6f0,64d2fd46c836a06233681665,64dc7aa20a19884bc24e5728,,,,,,,sngl,resources/DBN.BMP,resources/Empty.png,Door3,-0.179861111,0.015277778,1,0,0,0.662,optionLeft,70,410,1,6,0,6,0,1,,,,,,,,,,,,,,,,,,,,,,,,,,,,,,,,,,,,,,,
,,,,,,,5f95ecdf1381b512f13ab6f0,2023-08-16_09h24.00.074,HF_wild_card,2022.2.4,Win32,62.5,5f95ecdf1381b512f13ab6f0,64d2fd46c836a06233681665,64dc7aa20a19884bc24e5728,,,,,,,decisionTrl,resources/DG.BMP,resources/DBN.BMP,Door4,-0.243055556,0.002777778,1,0,0,3.502,optionLeft,60,470,1,7,0,7,0,1,,,,,,,,,,,,,,,,,,,,,,,,,,,,,,,,,,,,,,,
,,,,,,,5f95ecdf1381b512f13ab6f0,2023-08-16_09h24.00.074,HF_wild_card,2022.2.4,Win32,62.5,5f95ecdf1381b512f13ab6f0,64d2fd46c836a06233681665,64dc7aa20a19884bc24e5728,,,,,,,decisionTrl,resources/DP.BMP,resources/DB.BMP,Door2,0.207638889,0.025,1,0,0,1.331,optionRight,20,490,1,8,0,8,0,1,,,,,,,,,,,,,,,,,,,,,,,,,,,,,,,,,,,,,,,
,,,,,,,5f95ecdf1381b512f13ab6f0,2023-08-16_09h24.00.074,HF_wild_card,2022.2.4,Win32,62.5,5f95ecdf1381b512f13ab6f0,64d2fd46c836a06233681665,64dc7aa20a19884bc24e5728,,,,,,,ctch,resources/DG.BMP,resources/DY.BMP,Door1,0.24375,0.033333333,1,0,0,1.852,optionRight,30,520,1,9,0,9,0,1,,,,,,,,,,,,,,,,,,,,,,,,,,,,,,,,,,,,,,,
,,,,,,,5f95ecdf1381b512f13ab6f0,2023-08-16_09h24.00.074,HF_wild_card,2022.2.4,Win32,62.5,5f95ecdf1381b512f13ab6f0,64d2fd46c836a06233681665,64dc7aa20a19884bc24e5728,,,,,,,decisionTrl,resources/DBN.BMP,resources/DG.BMP,Door3,-0.195833333,0.032638889,1,0,0,1.23,optionLeft,70,590,1,10,0,10,0,1,,,,,,,,,,,,,,,,,,,,,,,,,,,,,,,,,,,,,,,
,,,,,,,5f95ecdf1381b512f13ab6f0,2023-08-16_09h24.00.074,HF_wild_card,2022.2.4,Win32,62.5,5f95ecdf1381b512f13ab6f0,64d2fd46c836a06233681665,64dc7aa20a19884bc24e5728,,,,,,,sngl,resources/Empty.png,resources/DY.BMP,Door1,0.18125,0.014583333,1,0,0,0.947,optionRight,30,620,1,11,0,11,0,1,,,,,,,,,,,,,,,,,,,,,,,,,,,,,,,,,,,,,,,
,,,,,,,5f95ecdf1381b512f13ab6f0,2023-08-16_09h24.00.074,HF_wild_card,2022.2.4,Win32,62.5,5f95ecdf1381b512f13ab6f0,64d2fd46c836a06233681665,64dc7aa20a19884bc24e5728,,,,,,,ctch,resources/DBN.BMP,resources/DB.BMP,Door3,-0.244444444,0.030555556,1,0,0,1.637,optionLeft,70,690,1,12,0,12,0,1,,,,,,,,,,,,,,,,,,,,,,,,,,,,,,,,,,,,,,,
,,,,,,,5f95ecdf1381b512f13ab6f0,2023-08-16_09h24.00.074,HF_wild_card,2022.2.4,Win32,62.5,5f95ecdf1381b512f13ab6f0,64d2fd46c836a06233681665,64dc7aa20a19884bc24e5728,,,,,,,decisionTrl,resources/DG.BMP,resources/DBN.BMP,Door3,0.195833333,0.039583333,1,0,0,0.967,optionRight,70,760,1,13,0,13,0,1,,,,,,,,,,,,,,,,,,,,,,,,,,,,,,,,,,,,,,,
,,,,,,,5f95ecdf1381b512f13ab6f0,2023-08-16_09h24.00.074,HF_wild_card,2022.2.4,Win32,62.5,5f95ecdf1381b512f13ab6f0,64d2fd46c836a06233681665,64dc7aa20a19884bc24e5728,,,,,,,sngl,resources/Empty.png,resources/DB.BMP,Door2,0.1875,0.027083333,1,0,0,0.699,optionRight,20,780,1,14,0,14,0,1,,,,,,,,,,,,,,,,,,,,,,,,,,,,,,,,,,,,,,,
,,,,,,,5f95ecdf1381b512f13ab6f0,2023-08-16_09h24.00.074,HF_wild_card,2022.2.4,Win32,62.5,5f95ecdf1381b512f13ab6f0,64d2fd46c836a06233681665,64dc7aa20a19884bc24e5728,,,,,,,decisionTrl,resources/DB.BMP,resources/DY.BMP,Door1,0.120138889,0.019444444,1,0,0,1.383,optionRight,30,810,1,15,0,15,0,1,,,,,,,,,,,,,,,,,,,,,,,,,,,,,,,,,,,,,,,
,,,,,,,5f95ecdf1381b512f13ab6f0,2023-08-16_09h24.00.074,HF_wild_card,2022.2.4,Win32,62.5,5f95ecdf1381b512f13ab6f0,64d2fd46c836a06233681665,64dc7aa20a19884bc24e5728,,,,,,,decisionTrl,resources/DG.BMP,resources/DBN.BMP,Door3,0.222222222,0.050694444,1,0,0,4.389,optionRight,70,880,1,16,0,16,0,1,,,,,,,,,,,,,,,,,,,,,,,,,,,,,,,,,,,,,,,
,,,,,,,5f95ecdf1381b512f13ab6f0,2023-08-16_09h24.00.074,HF_wild_card,2022.2.4,Win32,62.5,5f95ecdf1381b512f13ab6f0,64d2fd46c836a06233681665,64dc7aa20a19884bc24e5728,,,,,,,decisionTrl,resources/DB.BMP,resources/DP.BMP,WildCard_NonEx,0.265277778,0.045138889,1,0,0,2.454,optionRight,55,935,1,17,0,17,0,1,,,,,,,,,,,,,,,,,,,,,,,,,,,,,,,,,,,,,,,
,,,,,,,5f95ecdf1381b512f13ab6f0,2023-08-16_09h24.00.074,HF_wild_card,2022.2.4,Win32,62.5,5f95ecdf1381b512f13ab6f0,64d2fd46c836a06233681665,64dc7aa20a19884bc24e5728,,,,,,,ctch,resources/DG.BMP,resources/DY.BMP,Door4,-0.184722222,0.034722222,1,0,0,5.483,optionLeft,80,1015,1,18,0,18,0,1,,,,,,,,,,,,,,,,,,,,,,,,,,,,,,,,,,,,,,,
,,,,,,,5f95ecdf1381b512f13ab6f0,2023-08-16_09h24.00.074,HF_wild_card,2022.2.4,Win32,62.5,5f95ecdf1381b512f13ab6f0,64d2fd46c836a06233681665,64dc7aa20a19884bc24e5728,,,,,,,decisionTrl,resources/DB.BMP,resources/DY.BMP,Door1,0.140277778,0.019444444,1,0,0,2.082,optionRight,30,1045,1,19,0,19,0,1,,,,,,,,,,,,,,,,,,,,,,,,,,,,,,,,,,,,,,,
,,,,,,,5f95ecdf1381b512f13ab6f0,2023-08-16_09h24.00.074,HF_wild_card,2022.2.4,Win32,62.5,5f95ecdf1381b512f13ab6f0,64d2fd46c836a06233681665,64dc7aa20a19884bc24e5728,,,,,,,sngl,resources/DG.BMP,resources/Empty.png,Door4,-0.209027778,0.000694444,1,0,0,0.553,optionLeft,80,1125,1,20,0,20,0,1,,,,,,,,,,,,,,,,,,,,,,,,,,,,,,,,,,,,,,,
,,,,,,,5f95ecdf1381b512f13ab6f0,2023-08-16_09h24.00.074,HF_wild_card,2022.2.4,Win32,62.5,5f95ecdf1381b512f13ab6f0,64d2fd46c836a06233681665,64dc7aa20a19884bc24e5728,,,,,,,ctch,resources/DB.BMP,resources/DBN.BMP,Door3,0.222916667,0.035416667,1,0,0,2.264,optionRight,70,1195,1,21,0,21,0,1,,,,,,,,,,,,,,,,,,,,,,,,,,,,,,,,,,,,,,,
,,,,,,,5f95ecdf1381b512f13ab6f0,2023-08-16_09h24.00.074,HF_wild_card,2022.2.4,Win32,62.5,5f95ecdf1381b512f13ab6f0,64d2fd46c836a06233681665,64dc7aa20a19884bc24e5728,,,,,,,decisionTrl,resources/DB.BMP,resources/DY.BMP,Door2,-0.211805556,0.013194444,1,0,0,2.401,optionLeft,40,1235,1,22,0,22,0,1,,,,,,,,,,,,,,,,,,,,,,,,,,,,,,,,,,,,,,,
,,,,,,,5f95ecdf1381b512f13ab6f0,2023-08-16_09h24.00.074,HF_wild_card,2022.2.4,Win32,62.5,5f95ecdf1381b512f13ab6f0,64d2fd46c836a06233681665,64dc7aa20a19884bc24e5728,,,,,,,sngl,resources/DY.BMP,resources/Empty.png,Door1,-0.203472222,0.0125,1,0,0,0.583,optionLeft,30,1265,1,23,0,23,0,1,,,,,,,,,,,,,,,,,,,,,,,,,,,,,,,,,,,,,,,
,,,,,,,5f95ecdf1381b512f13ab6f0,2023-08-16_09h24.00.074,HF_wild_card,2022.2.4,Win32,62.5,5f95ecdf1381b512f13ab6f0,64d2fd46c836a06233681665,64dc7aa20a19884bc24e5728,,,,,,,decisionTrl,resources/DY.BMP,resources/DB.BMP,Door2,0.202777778,0.022222222,1,0,0,0.832,optionRight,20,1285,1,24,0,24,0,1,,,,,,,,,,,,,,,,,,,,,,,,,,,,,,,,,,,,,,,
,,,,,,,5f95ecdf1381b512f13ab6f0,2023-08-16_09h24.00.074,HF_wild_card,2022.2.4,Win32,62.5,5f95ecdf1381b512f13ab6f0,64d2fd46c836a06233681665,64dc7aa20a19884bc24e5728,,,,,,,decisionTrl,resources/DP.BMP,resources/DBN.BMP,Door3,0.24375,0.045138889,1,0,0,1.314,optionRight,70,1355,1,25,0,25,0,1,,,,,,,,,,,,,,,,,,,,,,,,,,,,,,,,,,,,,,,
,,,,,,,5f95ecdf1381b512f13ab6f0,2023-08-16_09h24.00.074,HF_wild_card,2022.2.4,Win32,62.5,5f95ecdf1381b512f13ab6f0,64d2fd46c836a06233681665,64dc7aa20a19884bc24e5728,,,,,,,decisionTrl,resources/DG.BMP,resources/DBN.BMP,Door3,0.216666667,0.028472222,1,0,0,1.846,optionRight,70,1425,1,26,0,26,0,1,,,,,,,,,,,,,,,,,,,,,,,,,,,,,,,,,,,,,,,
,,,,,,,5f95ecdf1381b512f13ab6f0,2023-08-16_09h24.00.074,HF_wild_card,2022.2.4,Win32,62.5,5f95ecdf1381b512f13ab6f0,64d2fd46c836a06233681665,64dc7aa20a19884bc24e5728,,,,,,,decisionTrl,resources/DBN.BMP,resources/DG.BMP,Door3,-0.152083333,0.014583333,1,0,0,0.829,optionLeft,70,1495,1,27,0,27,0,1,,,,,,,,,,,,,,,,,,,,,,,,,,,,,,,,,,,,,,,
,,,,,,,5f95ecdf1381b512f13ab6f0,2023-08-16_09h24.00.074,HF_wild_card,2022.2.4,Win32,62.5,5f95ecdf1381b512f13ab6f0,64d2fd46c836a06233681665,64dc7aa20a19884bc24e5728,,,,,,,sngl,resources/DB.BMP,resources/Empty.png,Door2,-0.150694444,0.001388889,1,0,0,0.634,optionLeft,40,1535,1,28,0,28,0,1,,,,,,,,,,,,,,,,,,,,,,,,,,,,,,,,,,,,,,,
,,,,,,,5f95ecdf1381b512f13ab6f0,2023-08-16_09h24.00.074,HF_wild_card,2022.2.4,Win32,62.5,5f95ecdf1381b512f13ab6f0,64d2fd46c836a06233681665,64dc7aa20a19884bc24e5728,,,,,,,ctch,resources/DY.BMP,resources/DG.BMP,Door4,0.275694444,0.026388889,1,0,0,2.385,optionRight,80,1615,1,29,0,29,0,1,,,,,,,,,,,,,,,,,,,,,,,,,,,,,,,,,,,,,,,
,,,,,,,5f95ecdf1381b512f13ab6f0,2023-08-16_09h24.00.074,HF_wild_card,2022.2.4,Win32,62.5,5f95ecdf1381b512f13ab6f0,64d2fd46c836a06233681665,64dc7aa20a19884bc24e5728,,,,,,,decisionTrl,resources/DG.BMP,resources/DP.BMP,Door4,-0.211111111,0.019444444,1,0,0,1.166,optionLeft,60,1675,1,30,0,30,0,1,,,,,,,,,,,,,,,,,,,,,,,,,,,,,,,,,,,,,,,
,,,,,,,5f95ecdf1381b512f13ab6f0,2023-08-16_09h24.00.074,HF_wild_card,2022.2.4,Win32,62.5,5f95ecdf1381b512f13ab6f0,64d2fd46c836a06233681665,64dc7aa20a19884bc24e5728,,,,,,,ctch,resources/DBN.BMP,resources/DB.BMP,Door3,-0.161805556,0.006944444,1,0,0,1.133,optionLeft,70,1745,1,31,0,31,0,1,,,,,,,,,,,,,,,,,,,,,,,,,,,,,,,,,,,,,,,
,,,,,,,5f95ecdf1381b512f13ab6f0,2023-08-16_09h24.00.074,HF_wild_card,2022.2.4,Win32,62.5,5f95ecdf1381b512f13ab6f0,64d2fd46c836a06233681665,64dc7aa20a19884bc24e5728,,,,,,,decisionTrl,resources/DY.BMP,resources/DB.BMP,Door2,0.204166667,0.013888889,1,0,0,4.35,optionRight,40,1785,1,32,0,32,0,1,,,,,,,,,,,,,,,,,,,,,,,,,,,,,,,,,,,,,,,
,,,,,,,5f95ecdf1381b512f13ab6f0,2023-08-16_09h24.00.074,HF_wild_card,2022.2.4,Win32,62.5,5f95ecdf1381b512f13ab6f0,64d2fd46c836a06233681665,64dc7aa20a19884bc24e5728,,,,,,,decisionTrl,resources/DBN.BMP,resources/DP.BMP,Door3,-0.192361111,0.011805556,1,0,0,1.166,optionLeft,70,1855,1,33,0,33,0,1,,,,,,,,,,,,,,,,,,,,,,,,,,,,,,,,,,,,,,,
,,,,,,,5f95ecdf1381b512f13ab6f0,2023-08-16_09h24.00.074,HF_wild_card,2022.2.4,Win32,62.5,5f95ecdf1381b512f13ab6f0,64d2fd46c836a06233681665,64dc7aa20a19884bc24e5728,,,,,,,decisionTrl,resources/DY.BMP,resources/DB.BMP,Door1,-0.197916667,0.004166667,1,0,0,2.516,optionLeft,30,1885,1,34,0,34,0,1,,,,,,,,,,,,,,,,,,,,,,,,,,,,,,,,,,,,,,,
,,,,,,,5f95ecdf1381b512f13ab6f0,2023-08-16_09h24.00.074,HF_wild_card,2022.2.4,Win32,62.5,5f95ecdf1381b512f13ab6f0,64d2fd46c836a06233681665,64dc7aa20a19884bc24e5728,,,,,,,ctch,resources/DY.BMP,resources/DG.BMP,Door4,0.309027778,0.0375,1,0,0,1.446,optionRight,60,1945,1,35,0,35,0,1,,,,,,,,,,,,,,,,,,,,,,,,,,,,,,,,,,,,,,,
,,,,,,,5f95ecdf1381b512f13ab6f0,2023-08-16_09h24.00.074,HF_wild_card,2022.2.4,Win32,62.5,5f95ecdf1381b512f13ab6f0,64d2fd46c836a06233681665,64dc7aa20a19884bc24e5728,,,,,,,decisionTrl,resources/DBN.BMP,resources/DG.BMP,Door3,-0.141666667,0.035416667,1,0,0,1.667,optionLeft,70,2015,1,36,0,36,0,1,,,,,,,,,,,,,,,,,,,,,,,,,,,,,,,,,,,,,,,
,,,,,,,5f95ecdf1381b512f13ab6f0,2023-08-16_09h24.00.074,HF_wild_card,2022.2.4,Win32,62.5,5f95ecdf1381b512f13ab6f0,64d2fd46c836a06233681665,64dc7aa20a19884bc24e5728,,,,,,,decisionTrl,resources/DY.BMP,resources/DB.BMP,Door1,-0.179861111,-0.029861111,1,0,0,3.015,optionLeft,30,2045,1,37,0,37,0,1,,,,,,,,,,,,,,,,,,,,,,,,,,,,,,,,,,,,,,,
,,,,,,,5f95ecdf1381b512f13ab6f0,2023-08-16_09h24.00.074,HF_wild_card,2022.2.4,Win32,62.5,5f95ecdf1381b512f13ab6f0,64d2fd46c836a06233681665,64dc7aa20a19884bc24e5728,,,,,,,decisionTrl,resources/DP.BMP,resources/DY.BMP,WildCard_NonEx,-0.201388889,-0.002083333,1,0,0,3.768,optionLeft,55,2100,1,38,0,38,0,1,,,,,,,,,,,,,,,,,,,,,,,,,,,,,,,,,,,,,,,
,,,,,,,5f95ecdf1381b512f13ab6f0,2023-08-16_09h24.00.074,HF_wild_card,2022.2.4,Win32,62.5,5f95ecdf1381b512f13ab6f0,64d2fd46c836a06233681665,64dc7aa20a19884bc24e5728,,,,,,,decisionTrl,resources/DB.BMP,resources/DY.BMP,Door2,-0.214583333,0.022222222,1,0,0,2.031,optionLeft,20,2120,1,39,0,39,0,1,,,,,,,,,,,,,,,,,,,,,,,,,,,,,,,,,,,,,,,
,,,,,,,5f95ecdf1381b512f13ab6f0,2023-08-16_09h24.00.074,HF_wild_card,2022.2.4,Win32,62.5,5f95ecdf1381b512f13ab6f0,64d2fd46c836a06233681665,64dc7aa20a19884bc24e5728,,,,,,,ctch,resources/DB.BMP,resources/DBN.BMP,Door3,0.281944444,0.014583333,1,0,0,0.883,optionRight,70,2190,1,40,0,40,0,1,,,,,,,,,,,,,,,,,,,,,,,,,,,,,,,,,,,,,,,
,,,,,,,5f95ecdf1381b512f13ab6f0,2023-08-16_09h24.00.074,HF_wild_card,2022.2.4,Win32,62.5,5f95ecdf1381b512f13ab6f0,64d2fd46c836a06233681665,64dc7aa20a19884bc24e5728,,,,,,,decisionTrl,resources/DP.BMP,resources/DG.BMP,Door4,-0.004166667,0.00625,1,0,0,0.062,optionRight,60,2250,1,41,0,41,0,1,,,,,,,,,,,,,,,,,,,,,,,,,,,,,,,,,,,,,,,
,,,,,,,5f95ecdf1381b512f13ab6f0,2023-08-16_09h24.00.074,HF_wild_card,2022.2.4,Win32,62.5,5f95ecdf1381b512f13ab6f0,64d2fd46c836a06233681665,64dc7aa20a19884bc24e5728,,,,,,,sngl,resources/Empty.png,resources/DBN.BMP,Door3,0.234027778,0.008333333,1,0,0,0.615,optionRight,70,2320,1,42,0,42,0,1,,,,,,,,,,,,,,,,,,,,,,,,,,,,,,,,,,,,,,,
,,,,,,,5f95ecdf1381b512f13ab6f0,2023-08-16_09h24.00.074,HF_wild_card,2022.2.4,Win32,62.5,5f95ecdf1381b512f13ab6f0,64d2fd46c836a06233681665,64dc7aa20a19884bc24e5728,,,,,,,decisionTrl,resources/DY.BMP,resources/DP.BMP,WildCard_NonEx,0.265972222,0.0375,1,0,0,2.197,optionRight,45,2365,1,43,0,43,0,1,,,,,,,,,,,,,,,,,,,,,,,,,,,,,,,,,,,,,,,
,,,,,,,5f95ecdf1381b512f13ab6f0,2023-08-16_09h24.00.074,HF_wild_card,2022.2.4,Win32,62.5,5f95ecdf1381b512f13ab6f0,64d2fd46c836a06233681665,64dc7aa20a19884bc24e5728,,,,,,,,,,,,,,,,,,,,,,,,,,0,0,0,0,1,,,,,,,,,,,,,,,,,,,,,,,,,,,,,,,,,,
,,,,,,,5f95ecdf1381b512f13ab6f0,2023-08-16_09h24.00.074,HF_wild_card,2022.2.4,Win32,62.5,5f95ecdf1381b512f13ab6f0,64d2fd46c836a06233681665,64dc7aa20a19884bc24e5728,,,,,,,decisionTrl,resources/DB.BMP,resources/DP.BMP,WildCard_NonEx,0.235416667,-0.023611111,1,0,0,2.197,optionRight,55,2420,2,0,0,0,0,1,,,,,,,,,,,,,,,,,,,,,,,,,,,,,,,,,,,,,,,
,,,,,,,5f95ecdf1381b512f13ab6f0,2023-08-16_09h24.00.074,HF_wild_card,2022.2.4,Win32,62.5,5f95ecdf1381b512f13ab6f0,64d2fd46c836a06233681665,64dc7aa20a19884bc24e5728,,,,,,,ctch,resources/DBN.BMP,resources/DB.BMP,Door3,-0.202083333,0.011111111,1,0,0,1.267,optionLeft,70,2490,2,1,0,1,0,1,,,,,,,,,,,,,,,,,,,,,,,,,,,,,,,,,,,,,,,
,,,,,,,5f95ecdf1381b512f13ab6f0,2023-08-16_09h24.00.074,HF_wild_card,2022.2.4,Win32,62.5,5f95ecdf1381b512f13ab6f0,64d2fd46c836a06233681665,64dc7aa20a19884bc24e5728,,,,,,,sngl,resources/Empty.png,resources/DB.BMP,Door2,0.18125,0.025,1,0,0,0.683,optionRight,40,2530,2,2,0,2,0,1,,,,,,,,,,,,,,,,,,,,,,,,,,,,,,,,,,,,,,,
,,,,,,,5f95ecdf1381b512f13ab6f0,2023-08-16_09h24.00.074,HF_wild_card,2022.2.4,Win32,62.5,5f95ecdf1381b512f13ab6f0,64d2fd46c836a06233681665,64dc7aa20a19884bc24e5728,,,,,,,sngl,resources/Empty.png,resources/DY.BMP,Door1,0.254861111,0.022916667,1,0,0,0.566,optionRight,30,2560,2,3,0,3,0,1,,,,,,,,,,,,,,,,,,,,,,,,,,,,,,,,,,,,,,,
,,,,,,,5f95ecdf1381b512f13ab6f0,2023-08-16_09h24.00.074,HF_wild_card,2022.2.4,Win32,62.5,5f95ecdf1381b512f13ab6f0,64d2fd46c836a06233681665,64dc7aa20a19884bc24e5728,,,,,,,sngl,resources/DY.BMP,resources/Empty.png,Door1,-0.236805556,0.021527778,1,0,0,0.716,optionLeft,30,2590,2,4,0,4,0,1,,,,,,,,,,,,,,,,,,,,,,,,,,,,,,,,,,,,,,,
,,,,,,,5f95ecdf1381b512f13ab6f0,2023-08-16_09h24.00.074,HF_wild_card,2022.2.4,Win32,62.5,5f95ecdf1381b512f13ab6f0,64d2fd46c836a06233681665,64dc7aa20a19884bc24e5728,,,,,,,decisionTrl,resources/DBN.BMP,resources/DP.BMP,Door3,-0.2125,0.030555556,1,0,0,1.246,optionLeft,70,2660,2,5,0,5,0,1,,,,,,,,,,,,,,,,,,,,,,,,,,,,,,,,,,,,,,,
,,,,,,,5f95ecdf1381b512f13ab6f0,2023-08-16_09h24.00.074,HF_wild_card,2022.2.4,Win32,62.5,5f95ecdf1381b512f13ab6f0,64d2fd46c836a06233681665,64dc7aa20a19884bc24e5728,,,,,,,decisionTrl,resources/DG.BMP,resources/DBN.BMP,Door3,0.265972222,0.03125,1,0,0,1.267,optionRight,70,2730,2,6,0,6,0,1,,,,,,,,,,,,,,,,,,,,,,,,,,,,,,,,,,,,,,,
,,,,,,,5f95ecdf1381b512f13ab6f0,2023-08-16_09h24.00.074,HF_wild_card,2022.2.4,Win32,62.5,5f95ecdf1381b512f13ab6f0,64d2fd46c836a06233681665,64dc7aa20a19884bc24e5728,,,,,,,decisionTrl,resources/DY.BMP,resources/DB.BMP,Door2,0.260416667,0.023611111,1,0,0,1.955,optionRight,40,2770,2,7,0,7,0,1,,,,,,,,,,,,,,,,,,,,,,,,,,,,,,,,,,,,,,,
,,,,,,,5f95ecdf1381b512f13ab6f0,2023-08-16_09h24.00.074,HF_wild_card,2022.2.4,Win32,62.5,5f95ecdf1381b512f13ab6f0,64d2fd46c836a06233681665,64dc7aa20a19884bc24e5728,,,,,,,ctch,resources/DG.BMP,resources/DY.BMP,Door4,-0.220138889,0.01875,1,0,0,1.534,optionLeft,60,2830,2,8,0,8,0,1,,,,,,,,,,,,,,,,,,,,,,,,,,,,,,,,,,,,,,,
,,,,,,,5f95ecdf1381b512f13ab6f0,2023-08-16_09h24.00.074,HF_wild_card,2022.2.4,Win32,62.5,5f95ecdf1381b512f13ab6f0,64d2fd46c836a06233681665,64dc7aa20a19884bc24e5728,,,,,,,decisionTrl,resources/DP.BMP,resources/DBN.BMP,Door3,0.2,0.022916667,1,0,0,1.03,optionRight,70,2900,2,9,0,9,0,1,,,,,,,,,,,,,,,,,,,,,,,,,,,,,,,,,,,,,,,
,,,,,,,5f95ecdf1381b512f13ab6f0,2023-08-16_09h24.00.074,HF_wild_card,2022.2.4,Win32,62.5,5f95ecdf1381b512f13ab6f0,64d2fd46c836a06233681665,64dc7aa20a19884bc24e5728,,,,,,,sngl,resources/Empty.png,resources/DG.BMP,Door4,0.204166667,0.007638889,1,0,0,0.55,optionRight,80,2980,2,10,0,10,0,1,,,,,,,,,,,,,,,,,,,,,,,,,,,,,,,,,,,,,,,
,,,,,,,5f95ecdf1381b512f13ab6f0,2023-08-16_09h24.00.074,HF_wild_card,2022.2.4,Win32,62.5,5f95ecdf1381b512f13ab6f0,64d2fd46c836a06233681665,64dc7aa20a19884bc24e5728,,,,,,,sngl,resources/DG.BMP,resources/Empty.png,Door4,-0.173611111,0.017361111,1,0,0,0.517,optionLeft,60,3040,2,11,0,11,0,1,,,,,,,,,,,,,,,,,,,,,,,,,,,,,,,,,,,,,,,
,,,,,,,5f95ecdf1381b512f13ab6f0,2023-08-16_09h24.00.074,HF_wild_card,2022.2.4,Win32,62.5,5f95ecdf1381b512f13ab6f0,64d2fd46c836a06233681665,64dc7aa20a19884bc24e5728,,,,,,,decisionTrl,resources/DB.BMP,resources/DY.BMP,Door2,-0.252777778,0.036805556,1,0,0,2.515,optionLeft,20,3060,2,12,0,12,0,1,,,,,,,,,,,,,,,,,,,,,,,,,,,,,,,,,,,,,,,
,,,,,,,5f95ecdf1381b512f13ab6f0,2023-08-16_09h24.00.074,HF_wild_card,2022.2.4,Win32,62.5,5f95ecdf1381b512f13ab6f0,64d2fd46c836a06233681665,64dc7aa20a19884bc24e5728,,,,,,,ctch,resources/DG.BMP,resources/DY.BMP,Door4,-0.183333333,0.030555556,1,0,0,1.85,optionLeft,60,3120,2,13,0,13,0,1,,,,,,,,,,,,,,,,,,,,,,,,,,,,,,,,,,,,,,,
,,,,,,,5f95ecdf1381b512f13ab6f0,2023-08-16_09h24.00.074,HF_wild_card,2022.2.4,Win32,62.5,5f95ecdf1381b512f13ab6f0,64d2fd46c836a06233681665,64dc7aa20a19884bc24e5728,,,,,,,decisionTrl,resources/DBN.BMP,resources/DG.BMP,Door3,-0.270833333,0.05,1,0,0,1.302,optionLeft,70,3190,2,14,0,14,0,1,,,,,,,,,,,,,,,,,,,,,,,,,,,,,,,,,,,,,,,
,,,,,,,5f95ecdf1381b512f13ab6f0,2023-08-16_09h24.00.074,HF_wild_card,2022.2.4,Win32,62.5,5f95ecdf1381b512f13ab6f0,64d2fd46c836a06233681665,64dc7aa20a19884bc24e5728,,,,,,,sngl,resources/DB.BMP,resources/Empty.png,Door2,-0.175694444,0.016666667,1,0,0,0.583,optionLeft,20,3210,2,15,0,15,0,1,,,,,,,,,,,,,,,,,,,,,,,,,,,,,,,,,,,,,,,
,,,,,,,5f95ecdf1381b512f13ab6f0,2023-08-16_09h24.00.074,HF_wild_card,2022.2.4,Win32,62.5,5f95ecdf1381b512f13ab6f0,64d2fd46c836a06233681665,64dc7aa20a19884bc24e5728,,,,,,,decisionTrl,resources/DY.BMP,resources/DB.BMP,Door1,-0.209722222,0.040972222,1,0,0,1.115,optionLeft,30,3240,2,16,0,16,0,1,,,,,,,,,,,,,,,,,,,,,,,,,,,,,,,,,,,,,,,
,,,,,,,5f95ecdf1381b512f13ab6f0,2023-08-16_09h24.00.074,HF_wild_card,2022.2.4,Win32,62.5,5f95ecdf1381b512f13ab6f0,64d2fd46c836a06233681665,64dc7aa20a19884bc24e5728,,,,,,,sngl,resources/Empty.png,resources/DP.BMP,WildCard_NonEx,0.224305556,0.020138889,1,0,0,0.568,optionRight,45,3285,2,17,0,17,0,1,,,,,,,,,,,,,,,,,,,,,,,,,,,,,,,,,,,,,,,
,,,,,,,5f95ecdf1381b512f13ab6f0,2023-08-16_09h24.00.074,HF_wild_card,2022.2.4,Win32,62.5,5f95ecdf1381b512f13ab6f0,64d2fd46c836a06233681665,64dc7aa20a19884bc24e5728,,,,,,,decisionTrl,resources/DY.BMP,resources/DB.BMP,Door1,-0.2,0.04375,1,0,0,1.13,optionLeft,30,3315,2,18,0,18,0,1,,,,,,,,,,,,,,,,,,,,,,,,,,,,,,,,,,,,,,,
,,,,,,,5f95ecdf1381b512f13ab6f0,2023-08-16_09h24.00.074,HF_wild_card,2022.2.4,Win32,62.5,5f95ecdf1381b512f13ab6f0,64d2fd46c836a06233681665,64dc7aa20a19884bc24e5728,,,,,,,decisionTrl,resources/DBN.BMP,resources/DG.BMP,Door3,-0.133333333,0.029166667,1,0,0,1.417,optionLeft,70,3385,2,19,0,19,0,1,,,,,,,,,,,,,,,,,,,,,,,,,,,,,,,,,,,,,,,
,,,,,,,5f95ecdf1381b512f13ab6f0,2023-08-16_09h24.00.074,HF_wild_card,2022.2.4,Win32,62.5,5f95ecdf1381b512f13ab6f0,64d2fd46c836a06233681665,64dc7aa20a19884bc24e5728,,,,,,,decisionTrl,resources/DB.BMP,resources/DY.BMP,Door2,-0.230555556,0.034027778,1,0,0,2.388,optionLeft,20,3405,2,20,0,20,0,1,,,,,,,,,,,,,,,,,,,,,,,,,,,,,,,,,,,,,,,
,,,,,,,5f95ecdf1381b512f13ab6f0,2023-08-16_09h24.00.074,HF_wild_card,2022.2.4,Win32,62.5,5f95ecdf1381b512f13ab6f0,64d2fd46c836a06233681665,64dc7aa20a19884bc24e5728,,,,,,,decisionTrl,resources/DY.BMP,resources/DB.BMP,Door2,0.241666667,0.010416667,1,0,0,1.016,optionRight,20,3425,2,21,0,21,0,1,,,,,,,,,,,,,,,,,,,,,,,,,,,,,,,,,,,,,,,
,,,,,,,5f95ecdf1381b512f13ab6f0,2023-08-16_09h24.00.074,HF_wild_card,2022.2.4,Win32,62.5,5f95ecdf1381b512f13ab6f0,64d2fd46c836a06233681665,64dc7aa20a19884bc24e5728,,,,,,,sngl,resources/DP.BMP,resources/Empty.png,WildCard_NonEx,-0.254166667,-0.002777778,1,0,0,0.5,optionLeft,55,3480,2,22,0,22,0,1,,,,,,,,,,,,,,,,,,,,,,,,,,,,,,,,,,,,,,,
,,,,,,,5f95ecdf1381b512f13ab6f0,2023-08-16_09h24.00.074,HF_wild_card,2022.2.4,Win32,62.5,5f95ecdf1381b512f13ab6f0,64d2fd46c836a06233681665,64dc7aa20a19884bc24e5728,,,,,,,sngl,resources/Empty.png,resources/DP.BMP,WildCard_NonEx,0.195138889,0.016666667,1,0,0,0.549,optionRight,55,3535,2,23,0,23,0,1,,,,,,,,,,,,,,,,,,,,,,,,,,,,,,,,,,,,,,,
,,,,,,,5f95ecdf1381b512f13ab6f0,2023-08-16_09h24.00.074,HF_wild_card,2022.2.4,Win32,62.5,5f95ecdf1381b512f13ab6f0,64d2fd46c836a06233681665,64dc7aa20a19884bc24e5728,,,,,,,ctch,resources/DB.BMP,resources/DBN.BMP,Door3,0.234722222,0.045833333,1,0,0,1.117,optionRight,70,3605,2,24,0,24,0,1,,,,,,,,,,,,,,,,,,,,,,,,,,,,,,,,,,,,,,,
,,,,,,,5f95ecdf1381b512f13ab6f0,2023-08-16_09h24.00.074,HF_wild_card,2022.2.4,Win32,62.5,5f95ecdf1381b512f13ab6f0,64d2fd46c836a06233681665,64dc7aa20a19884bc24e5728,,,,,,,decisionTrl,resources/DP.BMP,resources/DY.BMP,WildCard_NonEx,-0.171527778,0.013194444,1,0,0,2.113,optionLeft,45,3650,2,25,0,25,0,1,,,,,,,,,,,,,,,,,,,,,,,,,,,,,,,,,,,,,,,
,,,,,,,5f95ecdf1381b512f13ab6f0,2023-08-16_09h24.00.074,HF_wild_card,2022.2.4,Win32,62.5,5f95ecdf1381b512f13ab6f0,64d2fd46c836a06233681665,64dc7aa20a19884bc24e5728,,,,,,,decisionTrl,resources/DP.BMP,resources/DB.BMP,Door2,0.193055556,0.022916667,1,0,0,1.98,optionRight,40,3690,2,26,0,26,0,1,,,,,,,,,,,,,,,,,,,,,,,,,,,,,,,,,,,,,,,
,,,,,,,5f95ecdf1381b512f13ab6f0,2023-08-16_09h24.00.074,HF_wild_card,2022.2.4,Win32,62.5,5f95ecdf1381b512f13ab6f0,64d2fd46c836a06233681665,64dc7aa20a19884bc24e5728,,,,,,,decisionTrl,resources/DG.BMP,resources/DBN.BMP,Door3,0.263194444,0.03125,1,0,0,0.95,optionRight,70,3760,2,27,0,27,0,1,,,,,,,,,,,,,,,,,,,,,,,,,,,,,,,,,,,,,,,
,,,,,,,5f95ecdf1381b512f13ab6f0,2023-08-16_09h24.00.074,HF_wild_card,2022.2.4,Win32,62.5,5f95ecdf1381b512f13ab6f0,64d2fd46c836a06233681665,64dc7aa20a19884bc24e5728,,,,,,,decisionTrl,resources/DG.BMP,resources/DBN.BMP,Door3,0.2,0.029861111,1,0,0,0.831,optionRight,70,3830,2,28,0,28,0,1,,,,,,,,,,,,,,,,,,,,,,,,,,,,,,,,,,,,,,,
,,,,,,,5f95ecdf1381b512f13ab6f0,2023-08-16_09h24.00.074,HF_wild_card,2022.2.4,Win32,62.5,5f95ecdf1381b512f13ab6f0,64d2fd46c836a06233681665,64dc7aa20a19884bc24e5728,,,,,,,ctch,resources/DY.BMP,resources/DG.BMP,Door4,0.209722222,0.038194444,1,0,0,1.47,optionRight,60,3890,2,29,0,29,0,1,,,,,,,,,,,,,,,,,,,,,,,,,,,,,,,,,,,,,,,
,,,,,,,5f95ecdf1381b512f13ab6f0,2023-08-16_09h24.00.074,HF_wild_card,2022.2.4,Win32,62.5,5f95ecdf1381b512f13ab6f0,64d2fd46c836a06233681665,64dc7aa20a19884bc24e5728,,,,,,,sngl,resources/DP.BMP,resources/Empty.png,WildCard_NonEx,-0.186111111,0.006944444,1,0,0,0.616,optionLeft,45,3935,2,30,0,30,0,1,,,,,,,,,,,,,,,,,,,,,,,,,,,,,,,,,,,,,,,
,,,,,,,5f95ecdf1381b512f13ab6f0,2023-08-16_09h24.00.074,HF_wild_card,2022.2.4,Win32,62.5,5f95ecdf1381b512f13ab6f0,64d2fd46c836a06233681665,64dc7aa20a19884bc24e5728,,,,,,,ctch,resources/DB.BMP,resources/DBN.BMP,Door3,0.177083333,0.019444444,1,0,0,0.784,optionRight,70,4005,2,31,0,31,0,1,,,,,,,,,,,,,,,,,,,,,,,,,,,,,,,,,,,,,,,
,,,,,,,5f95ecdf1381b512f13ab6f0,2023-08-16_09h24.00.074,HF_wild_card,2022.2.4,Win32,62.5,5f95ecdf1381b512f13ab6f0,64d2fd46c836a06233681665,64dc7aa20a19884bc24e5728,,,,,,,decisionTrl,resources/DG.BMP,resources/DP.BMP,Door4,-0.222222222,-0.009027778,1,0,0,5.866,optionLeft,60,4065,2,32,0,32,0,1,,,,,,,,,,,,,,,,,,,,,,,,,,,,,,,,,,,,,,,
,,,,,,,5f95ecdf1381b512f13ab6f0,2023-08-16_09h24.00.074,HF_wild_card,2022.2.4,Win32,62.5,5f95ecdf1381b512f13ab6f0,64d2fd46c836a06233681665,64dc7aa20a19884bc24e5728,,,,,,,decisionTrl,resources/DY.BMP,resources/DP.BMP,WildCard_NonEx,0.344444444,0.022222222,1,0,0,2.798,optionRight,55,4120,2,33,0,33,0,1,,,,,,,,,,,,,,,,,,,,,,,,,,,,,,,,,,,,,,,
,,,,,,,5f95ecdf1381b512f13ab6f0,2023-08-16_09h24.00.074,HF_wild_card,2022.2.4,Win32,62.5,5f95ecdf1381b512f13ab6f0,64d2fd46c836a06233681665,64dc7aa20a19884bc24e5728,,,,,,,sngl,resources/Empty.png,resources/DBN.BMP,Door3,0.293055556,-0.023611111,1,0,0,0.517,optionRight,70,4190,2,34,0,34,0,1,,,,,,,,,,,,,,,,,,,,,,,,,,,,,,,,,,,,,,,
,,,,,,,5f95ecdf1381b512f13ab6f0,2023-08-16_09h24.00.074,HF_wild_card,2022.2.4,Win32,62.5,5f95ecdf1381b512f13ab6f0,64d2fd46c836a06233681665,64dc7aa20a19884bc24e5728,,,,,,,ctch,resources/DY.BMP,resources/DG.BMP,Door4,0.238888889,0.010416667,1,0,0,3.986,optionRight,60,4250,2,35,0,35,0,1,,,,,,,,,,,,,,,,,,,,,,,,,,,,,,,,,,,,,,,
,,,,,,,5f95ecdf1381b512f13ab6f0,2023-08-16_09h24.00.074,HF_wild_card,2022.2.4,Win32,62.5,5f95ecdf1381b512f13ab6f0,64d2fd46c836a06233681665,64dc7aa20a19884bc24e5728,,,,,,,decisionTrl,resources/DB.BMP,resources/DY.BMP,Door2,-0.272222222,0.027083333,1,0,0,2.732,optionLeft,20,4270,2,36,0,36,0,1,,,,,,,,,,,,,,,,,,,,,,,,,,,,,,,,,,,,,,,
,,,,,,,5f95ecdf1381b512f13ab6f0,2023-08-16_09h24.00.074,HF_wild_card,2022.2.4,Win32,62.5,5f95ecdf1381b512f13ab6f0,64d2fd46c836a06233681665,64dc7aa20a19884bc24e5728,,,,,,,decisionTrl,resources/DP.BMP,resources/DG.BMP,Door4,0.227083333,0.0625,1,0,0,14.427,optionRight,80,4350,2,37,0,37,0,1,,,,,,,,,,,,,,,,,,,,,,,,,,,,,,,,,,,,,,,
,,,,,,,5f95ecdf1381b512f13ab6f0,2023-08-16_09h24.00.074,HF_wild_card,2022.2.4,Win32,62.5,5f95ecdf1381b512f13ab6f0,64d2fd46c836a06233681665,64dc7aa20a19884bc24e5728,,,,,,,decisionTrl,resources/DBN.BMP,resources/DG.BMP,Door3,-0.233333333,0.052083333,1,0,0,0.93,optionLeft,70,4420,2,38,0,38,0,1,,,,,,,,,,,,,,,,,,,,,,,,,,,,,,,,,,,,,,,
,,,,,,,5f95ecdf1381b512f13ab6f0,2023-08-16_09h24.00.074,HF_wild_card,2022.2.4,Win32,62.5,5f95ecdf1381b512f13ab6f0,64d2fd46c836a06233681665,64dc7aa20a19884bc24e5728,,,,,,,ctch,resources/DBN.BMP,resources/DB.BMP,Door3,-0.2125,0.034722222,1,0,0,1.3,optionLeft,70,4490,2,39,0,39,0,1,,,,,,,,,,,,,,,,,,,,,,,,,,,,,,,,,,,,,,,
,,,,,,,5f95ecdf1381b512f13ab6f0,2023-08-16_09h24.00.074,HF_wild_card,2022.2.4,Win32,62.5,5f95ecdf1381b512f13ab6f0,64d2fd46c836a06233681665,64dc7aa20a19884bc24e5728,,,,,,,decisionTrl,resources/DG.BMP,resources/DBN.BMP,Door3,-0.013194444,-0.013194444,1,0,0,0.049,optionRight,70,4560,2,40,0,40,0,1,,,,,,,,,,,,,,,,,,,,,,,,,,,,,,,,,,,,,,,
,,,,,,,5f95ecdf1381b512f13ab6f0,2023-08-16_09h24.00.074,HF_wild_card,2022.2.4,Win32,62.5,5f95ecdf1381b512f13ab6f0,64d2fd46c836a06233681665,64dc7aa20a19884bc24e5728,,,,,,,sngl,resources/DBN.BMP,resources/Empty.png,Door3,-0.020833333,0.002083333,1,0,0,0.049,optionLeft,70,4630,2,41,0,41,0,1,,,,,,,,,,,,,,,,,,,,,,,,,,,,,,,,,,,,,,,
,,,,,,,5f95ecdf1381b512f13ab6f0,2023-08-16_09h24.00.074,HF_wild_card,2022.2.4,Win32,62.5,5f95ecdf1381b512f13ab6f0,64d2fd46c836a06233681665,64dc7aa20a19884bc24e5728,,,,,,,decisionTrl,resources/DB.BMP,resources/DY.BMP,Door1,0.004861111,-0.002083333,1,0,0,0.098,optionRight,30,4660,2,42,0,42,0,1,,,,,,,,,,,,,,,,,,,,,,,,,,,,,,,,,,,,,,,
,,,,,,,5f95ecdf1381b512f13ab6f0,2023-08-16_09h24.00.074,HF_wild_card,2022.2.4,Win32,62.5,5f95ecdf1381b512f13ab6f0,64d2fd46c836a06233681665,64dc7aa20a19884bc24e5728,,,,,,,decisionTrl,resources/DBN.BMP,resources/DG.BMP,Door3,-0.002083333,-0.009722222,1,0,0,0.062,optionLeft,70,4730,2,43,0,43,0,1,,,,,,,,,,,,,,,,,,,,,,,,,,,,,,,,,,,,,,,
,,,,,,,5f95ecdf1381b512f13ab6f0,2023-08-16_09h24.00.074,HF_wild_card,2022.2.4,Win32,62.5,5f95ecdf1381b512f13ab6f0,64d2fd46c836a06233681665,64dc7aa20a19884bc24e5728,,,,,,,,,,,,,,,,,,,,,,,,,,1,0,1,0,1,,,,,,,,,,,,,,,,,,,,,,,,,,,,,,,,,,
,,,,,,,5f95ecdf1381b512f13ab6f0,2023-08-16_09h24.00.074,HF_wild_card,2022.2.4,Win32,62.5,5f95ecdf1381b512f13ab6f0,64d2fd46c836a06233681665,64dc7aa20a19884bc24e5728,,,,,,,ctch,resources/DY.BMP,resources/DG.BMP,Door4,0.022222222,-0.310416667,1,0,0,0.053,optionRight,80,4810,3,0,0,0,0,1,,,,,,,,,,,,,,,,,,,,,,,,,,,,,,,,,,,,,,,
,,,,,,,5f95ecdf1381b512f13ab6f0,2023-08-16_09h24.00.074,HF_wild_card,2022.2.4,Win32,62.5,5f95ecdf1381b512f13ab6f0,64d2fd46c836a06233681665,64dc7aa20a19884bc24e5728,,,,,,,sngl,resources/Empty.png,resources/DB.BMP,Door2,0.275,0.007638889,1,0,0,0.616,optionRight,20,4830,3,1,0,1,0,1,,,,,,,,,,,,,,,,,,,,,,,,,,,,,,,,,,,,,,,
,,,,,,,5f95ecdf1381b512f13ab6f0,2023-08-16_09h24.00.074,HF_wild_card,2022.2.4,Win32,62.5,5f95ecdf1381b512f13ab6f0,64d2fd46c836a06233681665,64dc7aa20a19884bc24e5728,,,,,,,sngl,resources/Empty.png,resources/DP.BMP,WildCard_NonEx,0.192361111,0.008333333,1,0,0,0.553,optionRight,45,4875,3,2,0,2,0,1,,,,,,,,,,,,,,,,,,,,,,,,,,,,,,,,,,,,,,,
,,,,,,,5f95ecdf1381b512f13ab6f0,2023-08-16_09h24.00.074,HF_wild_card,2022.2.4,Win32,62.5,5f95ecdf1381b512f13ab6f0,64d2fd46c836a06233681665,64dc7aa20a19884bc24e5728,,,,,,,ctch,resources/DG.BMP,resources/DY.BMP,Door4,0.009027778,-0.004861111,1,0,0,0.063,optionLeft,80,4955,3,3,0,3,0,1,,,,,,,,,,,,,,,,,,,,,,,,,,,,,,,,,,,,,,,
,,,,,,,5f95ecdf1381b512f13ab6f0,2023-08-16_09h24.00.074,HF_wild_card,2022.2.4,Win32,62.5,5f95ecdf1381b512f13ab6f0,64d2fd46c836a06233681665,64dc7aa20a19884bc24e5728,,,,,,,ctch,resources/DG.BMP,resources/DY.BMP,Door4,-0.226388889,0.025,1,0,0,0.896,optionLeft,60,5015,3,4,0,4,0,1,,,,,,,,,,,,,,,,,,,,,,,,,,,,,,,,,,,,,,,
,,,,,,,5f95ecdf1381b512f13ab6f0,2023-08-16_09h24.00.074,HF_wild_card,2022.2.4,Win32,62.5,5f95ecdf1381b512f13ab6f0,64d2fd46c836a06233681665,64dc7aa20a19884bc24e5728,,,,,,,decisionTrl,resources/DG.BMP,resources/DBN.BMP,Door3,0.011111111,0.008333333,1,0,0,0.066,optionRight,70,5085,3,5,0,5,0,1,,,,,,,,,,,,,,,,,,,,,,,,,,,,,,,,,,,,,,,
,,,,,,,5f95ecdf1381b512f13ab6f0,2023-08-16_09h24.00.074,HF_wild_card,2022.2.4,Win32,62.5,5f95ecdf1381b512f13ab6f0,64d2fd46c836a06233681665,64dc7aa20a19884bc24e5728,,,,,,,decisionTrl,resources/DP.BMP,resources/DBN.BMP,Door3,0.219444444,0.027777778,1,0,0,0.635,optionRight,70,5155,3,6,0,6,0,1,,,,,,,,,,,,,,,,,,,,,,,,,,,,,,,,,,,,,,,
,,,,,,,5f95ecdf1381b512f13ab6f0,2023-08-16_09h24.00.074,HF_wild_card,2022.2.4,Win32,62.5,5f95ecdf1381b512f13ab6f0,64d2fd46c836a06233681665,64dc7aa20a19884bc24e5728,,,,,,,decisionTrl,resources/DY.BMP,resources/DB.BMP,Door1,-0.195833333,-0.008333333,1,0,0,2.28,optionLeft,30,5185,3,7,0,7,0,1,,,,,,,,,,,,,,,,,,,,,,,,,,,,,,,,,,,,,,,
,,,,,,,5f95ecdf1381b512f13ab6f0,2023-08-16_09h24.00.074,HF_wild_card,2022.2.4,Win32,62.5,5f95ecdf1381b512f13ab6f0,64d2fd46c836a06233681665,64dc7aa20a19884bc24e5728,,,,,,,sngl,resources/DG.BMP,resources/Empty.png,Door4,-0.184027778,0.022222222,1,0,0,0.649,optionLeft,80,5265,3,8,0,8,0,1,,,,,,,,,,,,,,,,,,,,,,,,,,,,,,,,,,,,,,,
,,,,,,,5f95ecdf1381b512f13ab6f0,2023-08-16_09h24.00.074,HF_wild_card,2022.2.4,Win32,62.5,5f95ecdf1381b512f13ab6f0,64d2fd46c836a06233681665,64dc7aa20a19884bc24e5728,,,,,,,decisionTrl,resources/DG.BMP,resources/DBN.BMP,Door3,0.260416667,0.044444444,1,0,0,1.2,optionRight,70,5335,3,9,0,9,0,1,,,,,,,,,,,,,,,,,,,,,,,,,,,,,,,,,,,,,,,
,,,,,,,5f95ecdf1381b512f13ab6f0,2023-08-16_09h24.00.074,HF_wild_card,2022.2.4,Win32,62.5,5f95ecdf1381b512f13ab6f0,64d2fd46c836a06233681665,64dc7aa20a19884bc24e5728,,,,,,,decisionTrl,resources/DP.BMP,resources/DY.BMP,WildCard_NonEx,-0.229861111,0.026388889,1,0,0,3.351,optionLeft,55,5390,3,10,0,10,0,1,,,,,,,,,,,,,,,,,,,,,,,,,,,,,,,,,,,,,,,
,,,,,,,5f95ecdf1381b512f13ab6f0,2023-08-16_09h24.00.074,HF_wild_card,2022.2.4,Win32,62.5,5f95ecdf1381b512f13ab6f0,64d2fd46c836a06233681665,64dc7aa20a19884bc24e5728,,,,,,,decisionTrl,resources/DBN.BMP,resources/DG.BMP,Door4,0.261111111,0.045138889,1,0,0,1.35,optionRight,60,5450,3,11,0,11,0,1,,,,,,,,,,,,,,,,,,,,,,,,,,,,,,,,,,,,,,,
,,,,,,,5f95ecdf1381b512f13ab6f0,2023-08-16_09h24.00.074,HF_wild_card,2022.2.4,Win32,62.5,5f95ecdf1381b512f13ab6f0,64d2fd46c836a06233681665,64dc7aa20a19884bc24e5728,,,,,,,decisionTrl,resources/DP.BMP,resources/DG.BMP,Door4,-0.002777778,-0.002777778,1,0,0,0.084,optionRight,80,5530,3,12,0,12,0,1,,,,,,,,,,,,,,,,,,,,,,,,,,,,,,,,,,,,,,,
,,,,,,,5f95ecdf1381b512f13ab6f0,2023-08-16_09h24.00.074,HF_wild_card,2022.2.4,Win32,62.5,5f95ecdf1381b512f13ab6f0,64d2fd46c836a06233681665,64dc7aa20a19884bc24e5728,,,,,,,sngl,resources/DP.BMP,resources/Empty.png,WildCard_NonEx,-0.166666667,0.0125,1,0,0,0.57,optionLeft,45,5575,3,13,0,13,0,1,,,,,,,,,,,,,,,,,,,,,,,,,,,,,,,,,,,,,,,
,,,,,,,5f95ecdf1381b512f13ab6f0,2023-08-16_09h24.00.074,HF_wild_card,2022.2.4,Win32,62.5,5f95ecdf1381b512f13ab6f0,64d2fd46c836a06233681665,64dc7aa20a19884bc24e5728,,,,,,,sngl,resources/Empty.png,resources/DG.BMP,Door4,0.01875,0,1,0,0,0.066,optionRight,60,5635,3,14,0,14,0,1,,,,,,,,,,,,,,,,,,,,,,,,,,,,,,,,,,,,,,,
,,,,,,,5f95ecdf1381b512f13ab6f0,2023-08-16_09h24.00.074,HF_wild_card,2022.2.4,Win32,62.5,5f95ecdf1381b512f13ab6f0,64d2fd46c836a06233681665,64dc7aa20a19884bc24e5728,,,,,,,decisionTrl,resources/DY.BMP,resources/DB.BMP,Door2,0.222916667,0.024305556,1,0,0,2.214,optionRight,40,5675,3,15,0,15,0,1,,,,,,,,,,,,,,,,,,,,,,,,,,,,,,,,,,,,,,,
,,,,,,,5f95ecdf1381b512f13ab6f0,2023-08-16_09h24.00.074,HF_wild_card,2022.2.4,Win32,62.5,5f95ecdf1381b512f13ab6f0,64d2fd46c836a06233681665,64dc7aa20a19884bc24e5728,,,,,,,decisionTrl,resources/DG.BMP,resources/DBN.BMP,Door3,0.005555556,-0.007638889,1,0,0,0.08,optionRight,70,5745,3,16,0,16,0,1,,,,,,,,,,,,,,,,,,,,,,,,,,,,,,,,,,,,,,,
,,,,,,,5f95ecdf1381b512f13ab6f0,2023-08-16_09h24.00.074,HF_wild_card,2022.2.4,Win32,62.5,5f95ecdf1381b512f13ab6f0,64d2fd46c836a06233681665,64dc7aa20a19884bc24e5728,,,,,,,decisionTrl,resources/DBN.BMP,resources/DG.BMP,Door3,-0.209027778,0.026388889,1,0,0,1.167,optionLeft,70,5815,3,17,0,17,0,1,,,,,,,,,,,,,,,,,,,,,,,,,,,,,,,,,,,,,,,
,,,,,,,5f95ecdf1381b512f13ab6f0,2023-08-16_09h24.00.074,HF_wild_card,2022.2.4,Win32,62.5,5f95ecdf1381b512f13ab6f0,64d2fd46c836a06233681665,64dc7aa20a19884bc24e5728,,,,,,,ctch,resources/DB.BMP,resources/DBN.BMP,Door3,0.001388889,0.015972222,1,0,0,0.065,optionRight,70,5885,3,18,0,18,0,1,,,,,,,,,,,,,,,,,,,,,,,,,,,,,,,,,,,,,,,
,,,,,,,5f95ecdf1381b512f13ab6f0,2023-08-16_09h24.00.074,HF_wild_card,2022.2.4,Win32,62.5,5f95ecdf1381b512f13ab6f0,64d2fd46c836a06233681665,64dc7aa20a19884bc24e5728,,,,,,,sngl,resources/DP.BMP,resources/Empty.png,WildCard_NonEx,0.002083333,-0.002083333,1,0,0,0.066,optionLeft,55,5940,3,19,0,19,0,1,,,,,,,,,,,,,,,,,,,,,,,,,,,,,,,,,,,,,,,
,,,,,,,5f95ecdf1381b512f13ab6f0,2023-08-16_09h24.00.074,HF_wild_card,2022.2.4,Win32,62.5,5f95ecdf1381b512f13ab6f0,64d2fd46c836a06233681665,64dc7aa20a19884bc24e5728,,,,,,,sngl,resources/DY.BMP,resources/Empty.png,Door1,-0.0125,0.009027778,1,0,0,0.066,optionLeft,30,5970,3,20,0,20,0,1,,,,,,,,,,,,,,,,,,,,,,,,,,,,,,,,,,,,,,,
,,,,,,,5f95ecdf1381b512f13ab6f0,2023-08-16_09h24.00.074,HF_wild_card,2022.2.4,Win32,62.5,5f95ecdf1381b512f13ab6f0,64d2fd46c836a06233681665,64dc7aa20a19884bc24e5728,,,,,,,decisionTrl,resources/DB.BMP,resources/DY.BMP,Door2,-0.206944444,0.015277778,1,0,0,1.053,optionLeft,20,5990,3,21,0,21,0,1,,,,,,,,,,,,,,,,,,,,,,,,,,,,,,,,,,,,,,,
,,,,,,,5f95ecdf1381b512f13ab6f0,2023-08-16_09h24.00.074,HF_wild_card,2022.2.4,Win32,62.5,5f95ecdf1381b512f13ab6f0,64d2fd46c836a06233681665,64dc7aa20a19884bc24e5728,,,,,,,decisionTrl,resources/DP.BMP,resources/DB.BMP,WildCard_NonEx,0.019444444,-0.004166667,1,0,0,0.052,optionLeft,45,6035,3,22,0,22,0,1,,,,,,,,,,,,,,,,,,,,,,,,,,,,,,,,,,,,,,,
,,,,,,,5f95ecdf1381b512f13ab6f0,2023-08-16_09h24.00.074,HF_wild_card,2022.2.4,Win32,62.5,5f95ecdf1381b512f13ab6f0,64d2fd46c836a06233681665,64dc7aa20a19884bc24e5728,,,,,,,decisionTrl,resources/DG.BMP,resources/DBN.BMP,Door3,-0.003472222,-0.010416667,1,0,0,0.061,optionRight,70,6105,3,23,0,23,0,1,,,,,,,,,,,,,,,,,,,,,,,,,,,,,,,,,,,,,,,
,,,,,,,5f95ecdf1381b512f13ab6f0,2023-08-16_09h24.00.074,HF_wild_card,2022.2.4,Win32,62.5,5f95ecdf1381b512f13ab6f0,64d2fd46c836a06233681665,64dc7aa20a19884bc24e5728,,,,,,,decisionTrl,resources/DY.BMP,resources/DP.BMP,WildCard_NonEx,0.250694444,0.016666667,1,0,0,2.701,optionRight,45,6150,3,24,0,24,0,1,,,,,,,,,,,,,,,,,,,,,,,,,,,,,,,,,,,,,,,
,,,,,,,5f95ecdf1381b512f13ab6f0,2023-08-16_09h24.00.074,HF_wild_card,2022.2.4,Win32,62.5,5f95ecdf1381b512f13ab6f0,64d2fd46c836a06233681665,64dc7aa20a19884bc24e5728,,,,,,,decisionTrl,resources/DBN.BMP,resources/DG.BMP,Door3,-0.226388889,0.028472222,1,0,0,0.882,optionLeft,70,6220,3,25,0,25,0,1,,,,,,,,,,,,,,,,,,,,,,,,,,,,,,,,,,,,,,,
,,,,,,,5f95ecdf1381b512f13ab6f0,2023-08-16_09h24.00.074,HF_wild_card,2022.2.4,Win32,62.5,5f95ecdf1381b512f13ab6f0,64d2fd46c836a06233681665,64dc7aa20a19884bc24e5728,,,,,,,sngl,resources/DBN.BMP,resources/Empty.png,Door3,-0.177083333,0.011805556,1,0,0,0.603,optionLeft,70,6290,3,26,0,26,0,1,,,,,,,,,,,,,,,,,,,,,,,,,,,,,,,,,,,,,,,
,,,,,,,5f95ecdf1381b512f13ab6f0,2023-08-16_09h24.00.074,HF_wild_card,2022.2.4,Win32,62.5,5f95ecdf1381b512f13ab6f0,64d2fd46c836a06233681665,64dc7aa20a19884bc24e5728,,,,,,,decisionTrl,resources/DBN.BMP,resources/DP.BMP,Door3,-0.221527778,0.018055556,1,0,0,0.713,optionLeft,70,6360,3,27,0,27,0,1,,,,,,,,,,,,,,,,,,,,,,,,,,,,,,,,,,,,,,,
,,,,,,,5f95ecdf1381b512f13ab6f0,2023-08-16_09h24.00.074,HF_wild_card,2022.2.4,Win32,62.5,5f95ecdf1381b512f13ab6f0,64d2fd46c836a06233681665,64dc7aa20a19884bc24e5728,,,,,,,decisionTrl,resources/DB.BMP,resources/DP.BMP,WildCard_NonEx,0.248611111,0.018055556,1,0,0,2.134,optionRight,55,6415,3,28,0,28,0,1,,,,,,,,,,,,,,,,,,,,,,,,,,,,,,,,,,,,,,,
,,,,,,,5f95ecdf1381b512f13ab6f0,2023-08-16_09h24.00.074,HF_wild_card,2022.2.4,Win32,62.5,5f95ecdf1381b512f13ab6f0,64d2fd46c836a06233681665,64dc7aa20a19884bc24e5728,,,,,,,decisionTrl,resources/DY.BMP,resources/DB.BMP,Door2,0.268055556,0.051388889,1,0,0,1.762,optionRight,20,6435,3,29,0,29,0,1,,,,,,,,,,,,,,,,,,,,,,,,,,,,,,,,,,,,,,,
,,,,,,,5f95ecdf1381b512f13ab6f0,2023-08-16_09h24.00.074,HF_wild_card,2022.2.4,Win32,62.5,5f95ecdf1381b512f13ab6f0,64d2fd46c836a06233681665,64dc7aa20a19884bc24e5728,,,,,,,ctch,resources/DB.BMP,resources/DBN.BMP,Door3,0.288194444,0.0375,1,0,0,1.12,optionRight,70,6505,3,30,0,30,0,1,,,,,,,,,,,,,,,,,,,,,,,,,,,,,,,,,,,,,,,
,,,,,,,5f95ecdf1381b512f13ab6f0,2023-08-16_09h24.00.074,HF_wild_card,2022.2.4,Win32,62.5,5f95ecdf1381b512f13ab6f0,64d2fd46c836a06233681665,64dc7aa20a19884bc24e5728,,,,,,,sngl,resources/Empty.png,resources/DBN.BMP,Door3,0.252777778,0.027777778,1,0,0,0.569,optionRight,70,6575,3,31,0,31,0,1,,,,,,,,,,,,,,,,,,,,,,,,,,,,,,,,,,,,,,,
,,,,,,,5f95ecdf1381b512f13ab6f0,2023-08-16_09h24.00.074,HF_wild_card,2022.2.4,Win32,62.5,5f95ecdf1381b512f13ab6f0,64d2fd46c836a06233681665,64dc7aa20a19884bc24e5728,,,,,,,sngl,resources/Empty.png,resources/DP.BMP,WildCard_NonEx,0.179861111,0.025,1,0,0,0.616,optionRight,55,6630,3,32,0,32,0,1,,,,,,,,,,,,,,,,,,,,,,,,,,,,,,,,,,,,,,,
,,,,,,,5f95ecdf1381b512f13ab6f0,2023-08-16_09h24.00.074,HF_wild_card,2022.2.4,Win32,62.5,5f95ecdf1381b512f13ab6f0,64d2fd46c836a06233681665,64dc7aa20a19884bc24e5728,,,,,,,decisionTrl,resources/DB.BMP,resources/DY.BMP,Door2,0.002083333,0.003472222,1,0,0,0.078,optionLeft,40,6670,3,33,0,33,0,1,,,,,,,,,,,,,,,,,,,,,,,,,,,,,,,,,,,,,,,
,,,,,,,5f95ecdf1381b512f13ab6f0,2023-08-16_09h24.00.074,HF_wild_card,2022.2.4,Win32,62.5,5f95ecdf1381b512f13ab6f0,64d2fd46c836a06233681665,64dc7aa20a19884bc24e5728,,,,,,,decisionTrl,resources/DB.BMP,resources/DY.BMP,Door2,-0.273611111,0.01875,1,0,0,0.902,optionLeft,40,6710,3,34,0,34,0,1,,,,,,,,,,,,,,,,,,,,,,,,,,,,,,,,,,,,,,,
,,,,,,,5f95ecdf1381b512f13ab6f0,2023-08-16_09h24.00.074,HF_wild_card,2022.2.4,Win32,62.5,5f95ecdf1381b512f13ab6f0,64d2fd46c836a06233681665,64dc7aa20a19884bc24e5728,,,,,,,sngl,resources/DB.BMP,resources/Empty.png,Door2,-0.203472222,0.015277778,1,0,0,0.567,optionLeft,40,6750,3,35,0,35,0,1,,,,,,,,,,,,,,,,,,,,,,,,,,,,,,,,,,,,,,,
,,,,,,,5f95ecdf1381b512f13ab6f0,2023-08-16_09h24.00.074,HF_wild_card,2022.2.4,Win32,62.5,5f95ecdf1381b512f13ab6f0,64d2fd46c836a06233681665,64dc7aa20a19884bc24e5728,,,,,,,ctch,resources/DY.BMP,resources/DG.BMP,Door4,0.259027778,0.004861111,1,0,0,1.113,optionRight,80,6830,3,36,0,36,0,1,,,,,,,,,,,,,,,,,,,,,,,,,,,,,,,,,,,,,,,
,,,,,,,5f95ecdf1381b512f13ab6f0,2023-08-16_09h24.00.074,HF_wild_card,2022.2.4,Win32,62.5,5f95ecdf1381b512f13ab6f0,64d2fd46c836a06233681665,64dc7aa20a19884bc24e5728,,,,,,,decisionTrl,resources/DY.BMP,resources/DB.BMP,Door2,0.234722222,0.034027778,1,0,0,1.6,optionRight,40,6870,3,37,0,37,0,1,,,,,,,,,,,,,,,,,,,,,,,,,,,,,,,,,,,,,,,
,,,,,,,5f95ecdf1381b512f13ab6f0,2023-08-16_09h24.00.074,HF_wild_card,2022.2.4,Win32,62.5,5f95ecdf1381b512f13ab6f0,64d2fd46c836a06233681665,64dc7aa20a19884bc24e5728,,,,,,,ctch,resources/DBN.BMP,resources/DB.BMP,Door3,-0.218055556,0.016666667,1,0,0,0.896,optionLeft,70,6940,3,38,0,38,0,1,,,,,,,,,,,,,,,,,,,,,,,,,,,,,,,,,,,,,,,
,,,,,,,5f95ecdf1381b512f13ab6f0,2023-08-16_09h24.00.074,HF_wild_card,2022.2.4,Win32,62.5,5f95ecdf1381b512f13ab6f0,64d2fd46c836a06233681665,64dc7aa20a19884bc24e5728,,,,,,,decisionTrl,resources/DBN.BMP,resources/DG.BMP,Door3,-0.188194444,0.015972222,1,0,0,1.033,optionLeft,70,7010,3,39,0,39,0,1,,,,,,,,,,,,,,,,,,,,,,,,,,,,,,,,,,,,,,,
,,,,,,,5f95ecdf1381b512f13ab6f0,2023-08-16_09h24.00.074,HF_wild_card,2022.2.4,Win32,62.5,5f95ecdf1381b512f13ab6f0,64d2fd46c836a06233681665,64dc7aa20a19884bc24e5728,,,,,,,decisionTrl,resources/DB.BMP,resources/DY.BMP,Door2,-0.148611111,0.032638889,1,0,0,5.73,optionLeft,20,7030,3,40,0,40,0,1,,,,,,,,,,,,,,,,,,,,,,,,,,,,,,,,,,,,,,,
,,,,,,,5f95ecdf1381b512f13ab6f0,2023-08-16_09h24.00.074,HF_wild_card,2022.2.4,Win32,62.5,5f95ecdf1381b512f13ab6f0,64d2fd46c836a06233681665,64dc7aa20a19884bc24e5728,,,,,,,decisionTrl,resources/DG.BMP,resources/DP.BMP,Door4,-0.197222222,0.009027778,1,0,0,1.947,optionLeft,80,7110,3,41,0,41,0,1,,,,,,,,,,,,,,,,,,,,,,,,,,,,,,,,,,,,,,,
,,,,,,,5f95ecdf1381b512f13ab6f0,2023-08-16_09h24.00.074,HF_wild_card,2022.2.4,Win32,62.5,5f95ecdf1381b512f13ab6f0,64d2fd46c836a06233681665,64dc7aa20a19884bc24e5728,,,,,,,ctch,resources/DBN.BMP,resources/DB.BMP,Door3,-0.194444444,0.082638889,1,0,0,4.449,optionLeft,70,7180,3,42,0,42,0,1,,,,,,,,,,,,,,,,,,,,,,,,,,,,,,,,,,,,,,,
,,,,,,,5f95ecdf1381b512f13ab6f0,2023-08-16_09h24.00.074,HF_wild_card,2022.2.4,Win32,62.5,5f95ecdf1381b512f13ab6f0,64d2fd46c836a06233681665,64dc7aa20a19884bc24e5728,,,,,,,sngl,resources/Empty.png,resources/DY.BMP,Door1,0.273611111,0,1,0,0,0.532,optionRight,30,7210,3,43,0,43,0,1,,,,,,,,,,,,,,,,,,,,,,,,,,,,,,,,,,,,,,,
,,,,,,,5f95ecdf1381b512f13ab6f0,2023-08-16_09h24.00.074,HF_wild_card,2022.2.4,Win32,62.5,5f95ecdf1381b512f13ab6f0,64d2fd46c836a06233681665,64dc7aa20a19884bc24e5728,,,,,,,,,,,,,,,,,,,,,,,,,,2,0,2,0,1,,,,,,,,,,,,,,,,,,,,,,,,,,,,,,,,,,
,,,,,,,5f95ecdf1381b512f13ab6f0,2023-08-16_09h24.00.074,HF_wild_card,2022.2.4,Win32,62.5,5f95ecdf1381b512f13ab6f0,64d2fd46c836a06233681665,64dc7aa20a19884bc24e5728,,,,,,,decisionTrl,resources/DG.BMP,resources/DBN.BMP,Door3,0.298611111,0.024305556,1,0,0,0.778,optionRight,70,7280,4,0,0,0,0,1,,,,,,,,,,,,,,,,,,,,,,,,,,,,,,,,,,,,,,,
,,,,,,,5f95ecdf1381b512f13ab6f0,2023-08-16_09h24.00.074,HF_wild_card,2022.2.4,Win32,62.5,5f95ecdf1381b512f13ab6f0,64d2fd46c836a06233681665,64dc7aa20a19884bc24e5728,,,,,,,decisionTrl,resources/DY.BMP,resources/DB.BMP,Door2,0.284027778,0.002083333,1,0,0,1.284,optionRight,20,7300,4,1,0,1,0,1,,,,,,,,,,,,,,,,,,,,,,,,,,,,,,,,,,,,,,,
,,,,,,,5f95ecdf1381b512f13ab6f0,2023-08-16_09h24.00.074,HF_wild_card,2022.2.4,Win32,62.5,5f95ecdf1381b512f13ab6f0,64d2fd46c836a06233681665,64dc7aa20a19884bc24e5728,,,,,,,sngl,resources/Empty.png,resources/DY.BMP,Door1,0.2625,0.004166667,1,0,0,0.466,optionRight,30,7330,4,2,0,2,0,1,,,,,,,,,,,,,,,,,,,,,,,,,,,,,,,,,,,,,,,
,,,,,,,5f95ecdf1381b512f13ab6f0,2023-08-16_09h24.00.074,HF_wild_card,2022.2.4,Win32,62.5,5f95ecdf1381b512f13ab6f0,64d2fd46c836a06233681665,64dc7aa20a19884bc24e5728,,,,,,,decisionTrl,resources/DBN.BMP,resources/DG.BMP,Door3,-0.225,0.027777778,1,0,0,0.847,optionLeft,70,7400,4,3,0,3,0,1,,,,,,,,,,,,,,,,,,,,,,,,,,,,,,,,,,,,,,,
,,,,,,,5f95ecdf1381b512f13ab6f0,2023-08-16_09h24.00.074,HF_wild_card,2022.2.4,Win32,62.5,5f95ecdf1381b512f13ab6f0,64d2fd46c836a06233681665,64dc7aa20a19884bc24e5728,,,,,,,decisionTrl,resources/DY.BMP,resources/DB.BMP,Door2,0.211805556,0.008333333,1,0,0,1.418,optionRight,40,7440,4,4,0,4,0,1,,,,,,,,,,,,,,,,,,,,,,,,,,,,,,,,,,,,,,,
,,,,,,,5f95ecdf1381b512f13ab6f0,2023-08-16_09h24.00.074,HF_wild_card,2022.2.4,Win32,62.5,5f95ecdf1381b512f13ab6f0,64d2fd46c836a06233681665,64dc7aa20a19884bc24e5728,,,,,,,sngl,resources/Empty.png,resources/DB.BMP,Door2,0.238888889,0.020138889,1,0,0,0.549,optionRight,40,7480,4,5,0,5,0,1,,,,,,,,,,,,,,,,,,,,,,,,,,,,,,,,,,,,,,,
,,,,,,,5f95ecdf1381b512f13ab6f0,2023-08-16_09h24.00.074,HF_wild_card,2022.2.4,Win32,62.5,5f95ecdf1381b512f13ab6f0,64d2fd46c836a06233681665,64dc7aa20a19884bc24e5728,,,,,,,decisionTrl,resources/DG.BMP,resources/DR.BMP,WildCard_Ex,0.219444444,0.013888889,1,0,0,2.499,optionRight,5,7485,4,6,0,6,0,1,,,,,,,,,,,,,,,,,,,,,,,,,,,,,,,,,,,,,,,
,,,,,,,5f95ecdf1381b512f13ab6f0,2023-08-16_09h24.00.074,HF_wild_card,2022.2.4,Win32,62.5,5f95ecdf1381b512f13ab6f0,64d2fd46c836a06233681665,64dc7aa20a19884bc24e5728,,,,,,,decisionTrl,resources/DR.BMP,resources/DY.BMP,Door1,0.28125,0.016666667,1,0,0,1.017,optionRight,30,7515,4,7,0,7,0,1,,,,,,,,,,,,,,,,,,,,,,,,,,,,,,,,,,,,,,,
,,,,,,,5f95ecdf1381b512f13ab6f0,2023-08-16_09h24.00.074,HF_wild_card,2022.2.4,Win32,62.5,5f95ecdf1381b512f13ab6f0,64d2fd46c836a06233681665,64dc7aa20a19884bc24e5728,,,,,,,decisionTrl,resources/DB.BMP,resources/DY.BMP,Door2,-0.194444444,0.009027778,1,0,0,4.452,optionLeft,20,7535,4,8,0,8,0,1,,,,,,,,,,,,,,,,,,,,,,,,,,,,,,,,,,,,,,,
,,,,,,,5f95ecdf1381b512f13ab6f0,2023-08-16_09h24.00.074,HF_wild_card,2022.2.4,Win32,62.5,5f95ecdf1381b512f13ab6f0,64d2fd46c836a06233681665,64dc7aa20a19884bc24e5728,,,,,,,sngl,resources/Empty.png,resources/DG.BMP,Door4,0.215277778,0.004166667,1,0,0,0.519,optionRight,80,7615,4,9,0,9,0,1,,,,,,,,,,,,,,,,,,,,,,,,,,,,,,,,,,,,,,,
,,,,,,,5f95ecdf1381b512f13ab6f0,2023-08-16_09h24.00.074,HF_wild_card,2022.2.4,Win32,62.5,5f95ecdf1381b512f13ab6f0,64d2fd46c836a06233681665,64dc7aa20a19884bc24e5728,,,,,,,sngl,resources/Empty.png,resources/DR.BMP,WildCard_Ex,0.147916667,0.00625,1,0,0,0.534,optionRight,5,7620,4,10,0,10,0,1,,,,,,,,,,,,,,,,,,,,,,,,,,,,,,,,,,,,,,,
,,,,,,,5f95ecdf1381b512f13ab6f0,2023-08-16_09h24.00.074,HF_wild_card,2022.2.4,Win32,62.5,5f95ecdf1381b512f13ab6f0,64d2fd46c836a06233681665,64dc7aa20a19884bc24e5728,,,,,,,decisionTrl,resources/DY.BMP,resources/DR.BMP,WildCard_Ex,0.238194444,0.034722222,1,0,0,1.383,optionRight,5,7625,4,11,0,11,0,1,,,,,,,,,,,,,,,,,,,,,,,,,,,,,,,,,,,,,,,
,,,,,,,5f95ecdf1381b512f13ab6f0,2023-08-16_09h24.00.074,HF_wild_card,2022.2.4,Win32,62.5,5f95ecdf1381b512f13ab6f0,64d2fd46c836a06233681665,64dc7aa20a19884bc24e5728,,,,,,,decisionTrl,resources/DG.BMP,resources/DBN.BMP,Door3,0.284722222,0.011111111,1,0,0,0.637,optionRight,70,7695,4,12,0,12,0,1,,,,,,,,,,,,,,,,,,,,,,,,,,,,,,,,,,,,,,,
,,,,,,,5f95ecdf1381b512f13ab6f0,2023-08-16_09h24.00.074,HF_wild_card,2022.2.4,Win32,62.5,5f95ecdf1381b512f13ab6f0,64d2fd46c836a06233681665,64dc7aa20a19884bc24e5728,,,,,,,ctch,resources/DG.BMP,resources/DY.BMP,Door4,-0.161805556,0.022916667,1,0,0,1.48,optionLeft,60,7755,4,13,0,13,0,1,,,,,,,,,,,,,,,,,,,,,,,,,,,,,,,,,,,,,,,
,,,,,,,5f95ecdf1381b512f13ab6f0,2023-08-16_09h24.00.074,HF_wild_card,2022.2.4,Win32,62.5,5f95ecdf1381b512f13ab6f0,64d2fd46c836a06233681665,64dc7aa20a19884bc24e5728,,,,,,,decisionTrl,resources/DB.BMP,resources/DY.BMP,Door2,-0.232638889,0.010416667,1,0,0,2.337,optionLeft,40,7795,4,14,0,14,0,1,,,,,,,,,,,,,,,,,,,,,,,,,,,,,,,,,,,,,,,
,,,,,,,5f95ecdf1381b512f13ab6f0,2023-08-16_09h24.00.074,HF_wild_card,2022.2.4,Win32,62.5,5f95ecdf1381b512f13ab6f0,64d2fd46c836a06233681665,64dc7aa20a19884bc24e5728,,,,,,,sngl,resources/DG.BMP,resources/Empty.png,Door4,-0.208333333,0.036111111,1,0,0,0.583,optionLeft,60,7855,4,15,0,15,0,1,,,,,,,,,,,,,,,,,,,,,,,,,,,,,,,,,,,,,,,
,,,,,,,5f95ecdf1381b512f13ab6f0,2023-08-16_09h24.00.074,HF_wild_card,2022.2.4,Win32,62.5,5f95ecdf1381b512f13ab6f0,64d2fd46c836a06233681665,64dc7aa20a19884bc24e5728,,,,,,,sngl,resources/DB.BMP,resources/Empty.png,Door2,-0.21875,0.032638889,1,0,0,0.533,optionLeft,20,7875,4,16,0,16,0,1,,,,,,,,,,,,,,,,,,,,,,,,,,,,,,,,,,,,,,,
,,,,,,,5f95ecdf1381b512f13ab6f0,2023-08-16_09h24.00.074,HF_wild_card,2022.2.4,Win32,62.5,5f95ecdf1381b512f13ab6f0,64d2fd46c836a06233681665,64dc7aa20a19884bc24e5728,,,,,,,ctch,resources/DB.BMP,resources/DBN.BMP,Door3,0.285416667,0.042361111,1,0,0,0.95,optionRight,70,7945,4,17,0,17,0,1,,,,,,,,,,,,,,,,,,,,,,,,,,,,,,,,,,,,,,,
,,,,,,,5f95ecdf1381b512f13ab6f0,2023-08-16_09h24.00.074,HF_wild_card,2022.2.4,Win32,62.5,5f95ecdf1381b512f13ab6f0,64d2fd46c836a06233681665,64dc7aa20a19884bc24e5728,,,,,,,decisionTrl,resources/DBN.BMP,resources/DG.BMP,Door3,-0.210416667,0.035416667,1,0,0,1.162,optionLeft,70,8015,4,18,0,18,0,1,,,,,,,,,,,,,,,,,,,,,,,,,,,,,,,,,,,,,,,
,,,,,,,5f95ecdf1381b512f13ab6f0,2023-08-16_09h24.00.074,HF_wild_card,2022.2.4,Win32,62.5,5f95ecdf1381b512f13ab6f0,64d2fd46c836a06233681665,64dc7aa20a19884bc24e5728,,,,,,,decisionTrl,resources/DY.BMP,resources/DB.BMP,Door1,-0.238888889,0.036805556,1,0,0,1.263,optionLeft,30,8045,4,19,0,19,0,1,,,,,,,,,,,,,,,,,,,,,,,,,,,,,,,,,,,,,,,
,,,,,,,5f95ecdf1381b512f13ab6f0,2023-08-16_09h24.00.074,HF_wild_card,2022.2.4,Win32,62.5,5f95ecdf1381b512f13ab6f0,64d2fd46c836a06233681665,64dc7aa20a19884bc24e5728,,,,,,,decisionTrl,resources/DR.BMP,resources/DB.BMP,WildCard_Ex,-0.132638889,0.019444444,1,0,0,3.202,optionLeft,5,8050,4,20,0,20,0,1,,,,,,,,,,,,,,,,,,,,,,,,,,,,,,,,,,,,,,,
,,,,,,,5f95ecdf1381b512f13ab6f0,2023-08-16_09h24.00.074,HF_wild_card,2022.2.4,Win32,62.5,5f95ecdf1381b512f13ab6f0,64d2fd46c836a06233681665,64dc7aa20a19884bc24e5728,,,,,,,sngl,resources/DR.BMP,resources/Empty.png,WildCard_Ex,-0.153472222,0.023611111,1,0,0,0.566,optionLeft,5,8055,4,21,0,21,0,1,,,,,,,,,,,,,,,,,,,,,,,,,,,,,,,,,,,,,,,
,,,,,,,5f95ecdf1381b512f13ab6f0,2023-08-16_09h24.00.074,HF_wild_card,2022.2.4,Win32,62.5,5f95ecdf1381b512f13ab6f0,64d2fd46c836a06233681665,64dc7aa20a19884bc24e5728,,,,,,,ctch,resources/DB.BMP,resources/DBN.BMP,Door3,0.198611111,0.038888889,1,0,0,0.917,optionRight,70,8125,4,22,0,22,0,1,,,,,,,,,,,,,,,,,,,,,,,,,,,,,,,,,,,,,,,
,,,,,,,5f95ecdf1381b512f13ab6f0,2023-08-16_09h24.00.074,HF_wild_card,2022.2.4,Win32,62.5,5f95ecdf1381b512f13ab6f0,64d2fd46c836a06233681665,64dc7aa20a19884bc24e5728,,,,,,,decisionTrl,resources/DG.BMP,resources/DBN.BMP,Door3,0.225694444,0.035416667,1,0,0,0.98,optionRight,70,8195,4,23,0,23,0,1,,,,,,,,,,,,,,,,,,,,,,,,,,,,,,,,,,,,,,,
,,,,,,,5f95ecdf1381b512f13ab6f0,2023-08-16_09h24.00.074,HF_wild_card,2022.2.4,Win32,62.5,5f95ecdf1381b512f13ab6f0,64d2fd46c836a06233681665,64dc7aa20a19884bc24e5728,,,,,,,decisionTrl,resources/DBN.BMP,resources/DR.BMP,Door3,-0.224305556,0.041666667,1,0,0,0.683,optionLeft,70,8265,4,24,0,24,0,1,,,,,,,,,,,,,,,,,,,,,,,,,,,,,,,,,,,,,,,
,,,,,,,5f95ecdf1381b512f13ab6f0,2023-08-16_09h24.00.074,HF_wild_card,2022.2.4,Win32,62.5,5f95ecdf1381b512f13ab6f0,64d2fd46c836a06233681665,64dc7aa20a19884bc24e5728,,,,,,,decisionTrl,resources/DB.BMP,resources/DY.BMP,Door1,0.327083333,0.094444444,1,0,0,1.705,optionRight,30,8295,4,25,0,25,0,1,,,,,,,,,,,,,,,,,,,,,,,,,,,,,,,,,,,,,,,
,,,,,,,5f95ecdf1381b512f13ab6f0,2023-08-16_09h24.00.074,HF_wild_card,2022.2.4,Win32,62.5,5f95ecdf1381b512f13ab6f0,64d2fd46c836a06233681665,64dc7aa20a19884bc24e5728,,,,,,,decisionTrl,resources/DBN.BMP,resources/DG.BMP,Door3,-0.25625,0.018055556,1,0,0,1.315,optionLeft,70,8365,4,26,0,26,0,1,,,,,,,,,,,,,,,,,,,,,,,,,,,,,,,,,,,,,,,
,,,,,,,5f95ecdf1381b512f13ab6f0,2023-08-16_09h24.00.074,HF_wild_card,2022.2.4,Win32,62.5,5f95ecdf1381b512f13ab6f0,64d2fd46c836a06233681665,64dc7aa20a19884bc24e5728,,,,,,,sngl,resources/DR.BMP,resources/Empty.png,WildCard_Ex,-0.238888889,0.015277778,1,0,0,0.549,optionLeft,95,8460,4,27,0,27,0,1,,,,,,,,,,,,,,,,,,,,,,,,,,,,,,,,,,,,,,,
,,,,,,,5f95ecdf1381b512f13ab6f0,2023-08-16_09h24.00.074,HF_wild_card,2022.2.4,Win32,62.5,5f95ecdf1381b512f13ab6f0,64d2fd46c836a06233681665,64dc7aa20a19884bc24e5728,,,,,,,decisionTrl,resources/DBN.BMP,resources/DG.BMP,Door3,-0.202777778,0.038194444,1,0,0,1.649,optionLeft,70,8530,4,28,0,28,0,1,,,,,,,,,,,,,,,,,,,,,,,,,,,,,,,,,,,,,,,
,,,,,,,5f95ecdf1381b512f13ab6f0,2023-08-16_09h24.00.074,HF_wild_card,2022.2.4,Win32,62.5,5f95ecdf1381b512f13ab6f0,64d2fd46c836a06233681665,64dc7aa20a19884bc24e5728,,,,,,,sngl,resources/Empty.png,resources/DR.BMP,WildCard_Ex,0.182638889,0.026388889,1,0,0,0.666,optionRight,95,8625,4,29,0,29,0,1,,,,,,,,,,,,,,,,,,,,,,,,,,,,,,,,,,,,,,,
,,,,,,,5f95ecdf1381b512f13ab6f0,2023-08-16_09h24.00.074,HF_wild_card,2022.2.4,Win32,62.5,5f95ecdf1381b512f13ab6f0,64d2fd46c836a06233681665,64dc7aa20a19884bc24e5728,,,,,,,decisionTrl,resources/DR.BMP,resources/DG.BMP,Door4,0.2375,0.009722222,1,0,0,1.466,optionRight,80,8705,4,30,0,30,0,1,,,,,,,,,,,,,,,,,,,,,,,,,,,,,,,,,,,,,,,
,,,,,,,5f95ecdf1381b512f13ab6f0,2023-08-16_09h24.00.074,HF_wild_card,2022.2.4,Win32,62.5,5f95ecdf1381b512f13ab6f0,64d2fd46c836a06233681665,64dc7aa20a19884bc24e5728,,,,,,,sngl,resources/DY.BMP,resources/Empty.png,Door1,-0.186111111,0.011111111,1,0,0,0.58,optionLeft,30,8735,4,31,0,31,0,1,,,,,,,,,,,,,,,,,,,,,,,,,,,,,,,,,,,,,,,
,,,,,,,5f95ecdf1381b512f13ab6f0,2023-08-16_09h24.00.074,HF_wild_card,2022.2.4,Win32,62.5,5f95ecdf1381b512f13ab6f0,64d2fd46c836a06233681665,64dc7aa20a19884bc24e5728,,,,,,,ctch,resources/DBN.BMP,resources/DB.BMP,Door3,-0.172916667,0.036111111,1,0,0,1.031,optionLeft,70,8805,4,32,0,32,0,1,,,,,,,,,,,,,,,,,,,,,,,,,,,,,,,,,,,,,,,
,,,,,,,5f95ecdf1381b512f13ab6f0,2023-08-16_09h24.00.074,HF_wild_card,2022.2.4,Win32,62.5,5f95ecdf1381b512f13ab6f0,64d2fd46c836a06233681665,64dc7aa20a19884bc24e5728,,,,,,,decisionTrl,resources/DR.BMP,resources/DBN.BMP,Door3,0.16875,0.029166667,1,0,0,1.15,optionRight,70,8875,4,33,0,33,0,1,,,,,,,,,,,,,,,,,,,,,,,,,,,,,,,,,,,,,,,
,,,,,,,5f95ecdf1381b512f13ab6f0,2023-08-16_09h24.00.074,HF_wild_card,2022.2.4,Win32,62.5,5f95ecdf1381b512f13ab6f0,64d2fd46c836a06233681665,64dc7aa20a19884bc24e5728,,,,,,,ctch,resources/DY.BMP,resources/DG.BMP,Door4,0.261805556,0.020833333,1,0,0,2.138,optionRight,80,8955,4,34,0,34,0,1,,,,,,,,,,,,,,,,,,,,,,,,,,,,,,,,,,,,,,,
,,,,,,,5f95ecdf1381b512f13ab6f0,2023-08-16_09h24.00.074,HF_wild_card,2022.2.4,Win32,62.5,5f95ecdf1381b512f13ab6f0,64d2fd46c836a06233681665,64dc7aa20a19884bc24e5728,,,,,,,sngl,resources/DBN.BMP,resources/Empty.png,Door3,-0.161111111,0.018055556,1,0,0,0.617,optionLeft,70,9025,4,35,0,35,0,1,,,,,,,,,,,,,,,,,,,,,,,,,,,,,,,,,,,,,,,
,,,,,,,5f95ecdf1381b512f13ab6f0,2023-08-16_09h24.00.074,HF_wild_card,2022.2.4,Win32,62.5,5f95ecdf1381b512f13ab6f0,64d2fd46c836a06233681665,64dc7aa20a19884bc24e5728,,,,,,,decisionTrl,resources/DY.BMP,resources/DB.BMP,Door2,0.255555556,0.029861111,1,0,0,3.669,optionRight,20,9045,4,36,0,36,0,1,,,,,,,,,,,,,,,,,,,,,,,,,,,,,,,,,,,,,,,
,,,,,,,5f95ecdf1381b512f13ab6f0,2023-08-16_09h24.00.074,HF_wild_card,2022.2.4,Win32,62.5,5f95ecdf1381b512f13ab6f0,64d2fd46c836a06233681665,64dc7aa20a19884bc24e5728,,,,,,,sngl,resources/Empty.png,resources/DBN.BMP,Door3,0.266666667,0.025,1,0,0,0.965,optionRight,70,9115,4,37,0,37,0,1,,,,,,,,,,,,,,,,,,,,,,,,,,,,,,,,,,,,,,,
,,,,,,,5f95ecdf1381b512f13ab6f0,2023-08-16_09h24.00.074,HF_wild_card,2022.2.4,Win32,62.5,5f95ecdf1381b512f13ab6f0,64d2fd46c836a06233681665,64dc7aa20a19884bc24e5728,,,,,,,ctch,resources/DY.BMP,resources/DG.BMP,Door4,0.232638889,0.040972222,1,0,0,0.883,optionRight,60,9175,4,38,0,38,0,1,,,,,,,,,,,,,,,,,,,,,,,,,,,,,,,,,,,,,,,
,,,,,,,5f95ecdf1381b512f13ab6f0,2023-08-16_09h24.00.074,HF_wild_card,2022.2.4,Win32,62.5,5f95ecdf1381b512f13ab6f0,64d2fd46c836a06233681665,64dc7aa20a19884bc24e5728,,,,,,,decisionTrl,resources/DB.BMP,resources/DY.BMP,Door1,0.25625,0.020833333,1,0,0,2.253,optionRight,30,9205,4,39,0,39,0,1,,,,,,,,,,,,,,,,,,,,,,,,,,,,,,,,,,,,,,,
,,,,,,,5f95ecdf1381b512f13ab6f0,2023-08-16_09h24.00.074,HF_wild_card,2022.2.4,Win32,62.5,5f95ecdf1381b512f13ab6f0,64d2fd46c836a06233681665,64dc7aa20a19884bc24e5728,,,,,,,decisionTrl,resources/DG.BMP,resources/DBN.BMP,Door3,0.247916667,-0.006944444,1,0,0,2.651,optionRight,70,9275,4,40,0,40,0,1,,,,,,,,,,,,,,,,,,,,,,,,,,,,,,,,,,,,,,,
,,,,,,,5f95ecdf1381b512f13ab6f0,2023-08-16_09h24.00.074,HF_wild_card,2022.2.4,Win32,62.5,5f95ecdf1381b512f13ab6f0,64d2fd46c836a06233681665,64dc7aa20a19884bc24e5728,,,,,,,ctch,resources/DG.BMP,resources/DY.BMP,Door4,-0.241666667,0.021527778,1,0,0,2.235,optionLeft,60,9335,4,41,0,41,0,1,,,,,,,,,,,,,,,,,,,,,,,,,,,,,,,,,,,,,,,
,,,,,,,5f95ecdf1381b512f13ab6f0,2023-08-16_09h24.00.074,HF_wild_card,2022.2.4,Win32,62.5,5f95ecdf1381b512f13ab6f0,64d2fd46c836a06233681665,64dc7aa20a19884bc24e5728,,,,,,,decisionTrl,resources/DB.BMP,resources/DR.BMP,WildCard_Ex,0.194444444,0.058333333,1,0,0,4.599,optionRight,5,9340,4,42,0,42,0,1,,,,,,,,,,,,,,,,,,,,,,,,,,,,,,,,,,,,,,,
,,,,,,,5f95ecdf1381b512f13ab6f0,2023-08-16_09h24.00.074,HF_wild_card,2022.2.4,Win32,62.5,5f95ecdf1381b512f13ab6f0,64d2fd46c836a06233681665,64dc7aa20a19884bc24e5728,,,,,,,ctch,resources/DBN.BMP,resources/DB.BMP,Door3,-0.179861111,0.020138889,1,0,0,1.183,optionLeft,70,9410,4,43,0,43,0,1,,,,,,,,,,,,,,,,,,,,,,,,,,,,,,,,,,,,,,,
,,,,,,,5f95ecdf1381b512f13ab6f0,2023-08-16_09h24.00.074,HF_wild_card,2022.2.4,Win32,62.5,5f95ecdf1381b512f13ab6f0,64d2fd46c836a06233681665,64dc7aa20a19884bc24e5728,,,,,,,,,,,,,,,,,,,,,,,,,,3,0,3,0,1,,,,,,,,,,,,,,,,,,,,,,,,,,,,,,,,,,
,,,,,,,5f95ecdf1381b512f13ab6f0,2023-08-16_09h24.00.074,HF_wild_card,2022.2.4,Win32,62.5,5f95ecdf1381b512f13ab6f0,64d2fd46c836a06233681665,64dc7aa20a19884bc24e5728,,,,,,,decisionTrl,resources/DR.BMP,resources/DBN.BMP,Door3,0.242361111,0.038194444,1,0,0,0.948,optionRight,70,9480,5,0,0,0,0,1,,,,,,,,,,,,,,,,,,,,,,,,,,,,,,,,,,,,,,,
,,,,,,,5f95ecdf1381b512f13ab6f0,2023-08-16_09h24.00.074,HF_wild_card,2022.2.4,Win32,62.5,5f95ecdf1381b512f13ab6f0,64d2fd46c836a06233681665,64dc7aa20a19884bc24e5728,,,,,,,sngl,resources/Empty.png,resources/DBN.BMP,Door3,0.25,0.006944444,1,0,0,0.631,optionRight,70,9550,5,1,0,1,0,1,,,,,,,,,,,,,,,,,,,,,,,,,,,,,,,,,,,,,,,
,,,,,,,5f95ecdf1381b512f13ab6f0,2023-08-16_09h24.00.074,HF_wild_card,2022.2.4,Win32,62.5,5f95ecdf1381b512f13ab6f0,64d2fd46c836a06233681665,64dc7aa20a19884bc24e5728,,,,,,,decisionTrl,resources/DY.BMP,resources/DB.BMP,Door1,-0.200694444,0.018055556,1,0,0,1.804,optionLeft,30,9580,5,2,0,2,0,1,,,,,,,,,,,,,,,,,,,,,,,,,,,,,,,,,,,,,,,
,,,,,,,5f95ecdf1381b512f13ab6f0,2023-08-16_09h24.00.074,HF_wild_card,2022.2.4,Win32,62.5,5f95ecdf1381b512f13ab6f0,64d2fd46c836a06233681665,64dc7aa20a19884bc24e5728,,,,,,,decisionTrl,resources/DG.BMP,resources/DBN.BMP,Door3,0.229861111,0.045138889,1,0,0,0.934,optionRight,70,9650,5,3,0,3,0,1,,,,,,,,,,,,,,,,,,,,,,,,,,,,,,,,,,,,,,,
,,,,,,,5f95ecdf1381b512f13ab6f0,2023-08-16_09h24.00.074,HF_wild_card,2022.2.4,Win32,62.5,5f95ecdf1381b512f13ab6f0,64d2fd46c836a06233681665,64dc7aa20a19884bc24e5728,,,,,,,decisionTrl,resources/DG.BMP,resources/DBN.BMP,Door3,0.211111111,0.04375,1,0,0,0.65,optionRight,70,9720,5,4,0,4,0,1,,,,,,,,,,,,,,,,,,,,,,,,,,,,,,,,,,,,,,,
,,,,,,,5f95ecdf1381b512f13ab6f0,2023-08-16_09h24.00.074,HF_wild_card,2022.2.4,Win32,62.5,5f95ecdf1381b512f13ab6f0,64d2fd46c836a06233681665,64dc7aa20a19884bc24e5728,,,,,,,decisionTrl,resources/DY.BMP,resources/DB.BMP,Door1,-0.294444444,0.083333333,1,0,0,2.985,optionLeft,30,9750,5,5,0,5,0,1,,,,,,,,,,,,,,,,,,,,,,,,,,,,,,,,,,,,,,,
,,,,,,,5f95ecdf1381b512f13ab6f0,2023-08-16_09h24.00.074,HF_wild_card,2022.2.4,Win32,62.5,5f95ecdf1381b512f13ab6f0,64d2fd46c836a06233681665,64dc7aa20a19884bc24e5728,,,,,,,decisionTrl,resources/DY.BMP,resources/DB.BMP,Door1,-0.252083333,0.030555556,1,0,0,1.233,optionLeft,30,9780,5,6,0,6,0,1,,,,,,,,,,,,,,,,,,,,,,,,,,,,,,,,,,,,,,,
,,,,,,,5f95ecdf1381b512f13ab6f0,2023-08-16_09h24.00.074,HF_wild_card,2022.2.4,Win32,62.5,5f95ecdf1381b512f13ab6f0,64d2fd46c836a06233681665,64dc7aa20a19884bc24e5728,,,,,,,sngl,resources/DY.BMP,resources/Empty.png,Door1,-0.240972222,-0.001388889,1,0,0,0.515,optionLeft,30,9810,5,7,0,7,0,1,,,,,,,,,,,,,,,,,,,,,,,,,,,,,,,,,,,,,,,
,,,,,,,5f95ecdf1381b512f13ab6f0,2023-08-16_09h24.00.074,HF_wild_card,2022.2.4,Win32,62.5,5f95ecdf1381b512f13ab6f0,64d2fd46c836a06233681665,64dc7aa20a19884bc24e5728,,,,,,,sngl,resources/DB.BMP,resources/Empty.png,Door2,-0.211805556,0.004861111,1,0,0,0.569,optionLeft,40,9850,5,8,0,8,0,1,,,,,,,,,,,,,,,,,,,,,,,,,,,,,,,,,,,,,,,
,,,,,,,5f95ecdf1381b512f13ab6f0,2023-08-16_09h24.00.074,HF_wild_card,2022.2.4,Win32,62.5,5f95ecdf1381b512f13ab6f0,64d2fd46c836a06233681665,64dc7aa20a19884bc24e5728,,,,,,,decisionTrl,resources/DBN.BMP,resources/DG.BMP,Door3,-0.208333333,0.034722222,1,0,0,0.983,optionLeft,70,9920,5,9,0,9,0,1,,,,,,,,,,,,,,,,,,,,,,,,,,,,,,,,,,,,,,,
,,,,,,,5f95ecdf1381b512f13ab6f0,2023-08-16_09h24.00.074,HF_wild_card,2022.2.4,Win32,62.5,5f95ecdf1381b512f13ab6f0,64d2fd46c836a06233681665,64dc7aa20a19884bc24e5728,,,,,,,ctch,resources/DY.BMP,resources/DG.BMP,Door4,0.257638889,0.033333333,1,0,0,1.621,optionRight,80,10000,5,10,0,10,0,1,,,,,,,,,,,,,,,,,,,,,,,,,,,,,,,,,,,,,,,
,,,,,,,5f95ecdf1381b512f13ab6f0,2023-08-16_09h24.00.074,HF_wild_card,2022.2.4,Win32,62.5,5f95ecdf1381b512f13ab6f0,64d2fd46c836a06233681665,64dc7aa20a19884bc24e5728,,,,,,,decisionTrl,resources/DY.BMP,resources/DB.BMP,Door1,-0.221527778,0.014583333,1,0,0,1.884,optionLeft,30,10030,5,11,0,11,0,1,,,,,,,,,,,,,,,,,,,,,,,,,,,,,,,,,,,,,,,
,,,,,,,5f95ecdf1381b512f13ab6f0,2023-08-16_09h24.00.074,HF_wild_card,2022.2.4,Win32,62.5,5f95ecdf1381b512f13ab6f0,64d2fd46c836a06233681665,64dc7aa20a19884bc24e5728,,,,,,,sngl,resources/Empty.png,resources/DB.BMP,Door2,0.19375,0.023611111,1,0,0,0.566,optionRight,20,10050,5,12,0,12,0,1,,,,,,,,,,,,,,,,,,,,,,,,,,,,,,,,,,,,,,,
,,,,,,,5f95ecdf1381b512f13ab6f0,2023-08-16_09h24.00.074,HF_wild_card,2022.2.4,Win32,62.5,5f95ecdf1381b512f13ab6f0,64d2fd46c836a06233681665,64dc7aa20a19884bc24e5728,,,,,,,decisionTrl,resources/DB.BMP,resources/DY.BMP,Door1,0.2,0.024305556,1,0,0,1.066,optionRight,30,10080,5,13,0,13,0,1,,,,,,,,,,,,,,,,,,,,,,,,,,,,,,,,,,,,,,,
,,,,,,,5f95ecdf1381b512f13ab6f0,2023-08-16_09h24.00.074,HF_wild_card,2022.2.4,Win32,62.5,5f95ecdf1381b512f13ab6f0,64d2fd46c836a06233681665,64dc7aa20a19884bc24e5728,,,,,,,decisionTrl,resources/DB.BMP,resources/DY.BMP,Door1,0.222916667,0.023611111,1,0,0,0.816,optionRight,30,10110,5,14,0,14,0,1,,,,,,,,,,,,,,,,,,,,,,,,,,,,,,,,,,,,,,,
,,,,,,,5f95ecdf1381b512f13ab6f0,2023-08-16_09h24.00.074,HF_wild_card,2022.2.4,Win32,62.5,5f95ecdf1381b512f13ab6f0,64d2fd46c836a06233681665,64dc7aa20a19884bc24e5728,,,,,,,sngl,resources/Empty.png,resources/DY.BMP,Door1,0.283333333,0.015972222,1,0,0,0.483,optionRight,30,10140,5,15,0,15,0,1,,,,,,,,,,,,,,,,,,,,,,,,,,,,,,,,,,,,,,,
,,,,,,,5f95ecdf1381b512f13ab6f0,2023-08-16_09h24.00.074,HF_wild_card,2022.2.4,Win32,62.5,5f95ecdf1381b512f13ab6f0,64d2fd46c836a06233681665,64dc7aa20a19884bc24e5728,,,,,,,ctch,resources/DG.BMP,resources/DY.BMP,Door4,-0.159722222,0.027083333,1,0,0,1.033,optionLeft,80,10220,5,16,0,16,0,1,,,,,,,,,,,,,,,,,,,,,,,,,,,,,,,,,,,,,,,
,,,,,,,5f95ecdf1381b512f13ab6f0,2023-08-16_09h24.00.074,HF_wild_card,2022.2.4,Win32,62.5,5f95ecdf1381b512f13ab6f0,64d2fd46c836a06233681665,64dc7aa20a19884bc24e5728,,,,,,,decisionTrl,resources/DR.BMP,resources/DY.BMP,WildCard_Ex,-0.245833333,0.039583333,1,0,0,4.786,optionLeft,5,10225,5,17,0,17,0,1,,,,,,,,,,,,,,,,,,,,,,,,,,,,,,,,,,,,,,,
,,,,,,,5f95ecdf1381b512f13ab6f0,2023-08-16_09h24.00.074,HF_wild_card,2022.2.4,Win32,62.5,5f95ecdf1381b512f13ab6f0,64d2fd46c836a06233681665,64dc7aa20a19884bc24e5728,,,,,,,decisionTrl,resources/DR.BMP,resources/DB.BMP,WildCard_Ex,-0.196527778,0.03125,1,0,0,4.168,optionLeft,5,10230,5,18,0,18,0,1,,,,,,,,,,,,,,,,,,,,,,,,,,,,,,,,,,,,,,,
,,,,,,,5f95ecdf1381b512f13ab6f0,2023-08-16_09h24.00.074,HF_wild_card,2022.2.4,Win32,62.5,5f95ecdf1381b512f13ab6f0,64d2fd46c836a06233681665,64dc7aa20a19884bc24e5728,,,,,,,decisionTrl,resources/DG.BMP,resources/DR.BMP,Door4,-0.313888889,0.031944444,1,0,0,0.948,optionLeft,60,10290,5,19,0,19,0,1,,,,,,,,,,,,,,,,,,,,,,,,,,,,,,,,,,,,,,,
,,,,,,,5f95ecdf1381b512f13ab6f0,2023-08-16_09h24.00.074,HF_wild_card,2022.2.4,Win32,62.5,5f95ecdf1381b512f13ab6f0,64d2fd46c836a06233681665,64dc7aa20a19884bc24e5728,,,,,,,sngl,resources/Empty.png,resources/DG.BMP,Door4,0.261805556,0.032638889,1,0,0,0.536,optionRight,60,10350,5,20,0,20,0,1,,,,,,,,,,,,,,,,,,,,,,,,,,,,,,,,,,,,,,,
,,,,,,,5f95ecdf1381b512f13ab6f0,2023-08-16_09h24.00.074,HF_wild_card,2022.2.4,Win32,62.5,5f95ecdf1381b512f13ab6f0,64d2fd46c836a06233681665,64dc7aa20a19884bc24e5728,,,,,,,decisionTrl,resources/DB.BMP,resources/DY.BMP,Door1,0.244444444,0.028472222,1,0,0,1.834,optionRight,30,10380,5,21,0,21,0,1,,,,,,,,,,,,,,,,,,,,,,,,,,,,,,,,,,,,,,,
,,,,,,,5f95ecdf1381b512f13ab6f0,2023-08-16_09h24.00.074,HF_wild_card,2022.2.4,Win32,62.5,5f95ecdf1381b512f13ab6f0,64d2fd46c836a06233681665,64dc7aa20a19884bc24e5728,,,,,,,decisionTrl,resources/DR.BMP,resources/DG.BMP,Door4,0.259722222,0.020138889,1,0,0,1.267,optionRight,80,10460,5,22,0,22,0,1,,,,,,,,,,,,,,,,,,,,,,,,,,,,,,,,,,,,,,,
,,,,,,,5f95ecdf1381b512f13ab6f0,2023-08-16_09h24.00.074,HF_wild_card,2022.2.4,Win32,62.5,5f95ecdf1381b512f13ab6f0,64d2fd46c836a06233681665,64dc7aa20a19884bc24e5728,,,,,,,sngl,resources/DG.BMP,resources/Empty.png,Door4,-0.188888889,0.020833333,1,0,0,0.587,optionLeft,80,10540,5,23,0,23,0,1,,,,,,,,,,,,,,,,,,,,,,,,,,,,,,,,,,,,,,,
,,,,,,,5f95ecdf1381b512f13ab6f0,2023-08-16_09h24.00.074,HF_wild_card,2022.2.4,Win32,62.5,5f95ecdf1381b512f13ab6f0,64d2fd46c836a06233681665,64dc7aa20a19884bc24e5728,,,,,,,decisionTrl,resources/DBN.BMP,resources/DG.BMP,Door3,-0.152083333,0.027777778,1,0,0,1,optionLeft,70,10610,5,24,0,24,0,1,,,,,,,,,,,,,,,,,,,,,,,,,,,,,,,,,,,,,,,
,,,,,,,5f95ecdf1381b512f13ab6f0,2023-08-16_09h24.00.074,HF_wild_card,2022.2.4,Win32,62.5,5f95ecdf1381b512f13ab6f0,64d2fd46c836a06233681665,64dc7aa20a19884bc24e5728,,,,,,,decisionTrl,resources/DBN.BMP,resources/DG.BMP,Door3,-0.263194444,0.023611111,1,0,0,0.796,optionLeft,70,10680,5,25,0,25,0,1,,,,,,,,,,,,,,,,,,,,,,,,,,,,,,,,,,,,,,,
,,,,,,,5f95ecdf1381b512f13ab6f0,2023-08-16_09h24.00.074,HF_wild_card,2022.2.4,Win32,62.5,5f95ecdf1381b512f13ab6f0,64d2fd46c836a06233681665,64dc7aa20a19884bc24e5728,,,,,,,sngl,resources/DR.BMP,resources/Empty.png,WildCard_Ex,-0.245138889,0.017361111,1,0,0,0.653,optionLeft,95,10775,5,26,0,26,0,1,,,,,,,,,,,,,,,,,,,,,,,,,,,,,,,,,,,,,,,
,,,,,,,5f95ecdf1381b512f13ab6f0,2023-08-16_09h24.00.074,HF_wild_card,2022.2.4,Win32,62.5,5f95ecdf1381b512f13ab6f0,64d2fd46c836a06233681665,64dc7aa20a19884bc24e5728,,,,,,,sngl,resources/DR.BMP,resources/Empty.png,WildCard_Ex,-0.257638889,0.004166667,1,0,0,0.535,optionLeft,5,10780,5,27,0,27,0,1,,,,,,,,,,,,,,,,,,,,,,,,,,,,,,,,,,,,,,,
,,,,,,,5f95ecdf1381b512f13ab6f0,2023-08-16_09h24.00.074,HF_wild_card,2022.2.4,Win32,62.5,5f95ecdf1381b512f13ab6f0,64d2fd46c836a06233681665,64dc7aa20a19884bc24e5728,,,,,,,decisionTrl,resources/DBN.BMP,resources/DG.BMP,Door3,-0.225694444,0.028472222,1,0,0,0.783,optionLeft,70,10850,5,28,0,28,0,1,,,,,,,,,,,,,,,,,,,,,,,,,,,,,,,,,,,,,,,
,,,,,,,5f95ecdf1381b512f13ab6f0,2023-08-16_09h24.00.074,HF_wild_card,2022.2.4,Win32,62.5,5f95ecdf1381b512f13ab6f0,64d2fd46c836a06233681665,64dc7aa20a19884bc24e5728,,,,,,,sngl,resources/Empty.png,resources/DR.BMP,WildCard_Ex,0.208333333,0.008333333,1,0,0,0.684,optionRight,95,10945,5,29,0,29,0,1,,,,,,,,,,,,,,,,,,,,,,,,,,,,,,,,,,,,,,,
,,,,,,,5f95ecdf1381b512f13ab6f0,2023-08-16_09h24.00.074,HF_wild_card,2022.2.4,Win32,62.5,5f95ecdf1381b512f13ab6f0,64d2fd46c836a06233681665,64dc7aa20a19884bc24e5728,,,,,,,decisionTrl,resources/DY.BMP,resources/DR.BMP,WildCard_Ex,0.232638889,0.0125,1,0,0,2.367,optionRight,95,11040,5,30,0,30,0,1,,,,,,,,,,,,,,,,,,,,,,,,,,,,,,,,,,,,,,,
,,,,,,,5f95ecdf1381b512f13ab6f0,2023-08-16_09h24.00.074,HF_wild_card,2022.2.4,Win32,62.5,5f95ecdf1381b512f13ab6f0,64d2fd46c836a06233681665,64dc7aa20a19884bc24e5728,,,,,,,decisionTrl,resources/DB.BMP,resources/DR.BMP,WildCard_Ex,0.221527778,0.03125,1,0,0,1.78,optionRight,95,11135,5,31,0,31,0,1,,,,,,,,,,,,,,,,,,,,,,,,,,,,,,,,,,,,,,,
,,,,,,,5f95ecdf1381b512f13ab6f0,2023-08-16_09h24.00.074,HF_wild_card,2022.2.4,Win32,62.5,5f95ecdf1381b512f13ab6f0,64d2fd46c836a06233681665,64dc7aa20a19884bc24e5728,,,,,,,sngl,resources/Empty.png,resources/DR.BMP,WildCard_Ex,0.2625,0.009722222,1,0,0,0.566,optionRight,5,11140,5,32,0,32,0,1,,,,,,,,,,,,,,,,,,,,,,,,,,,,,,,,,,,,,,,
,,,,,,,5f95ecdf1381b512f13ab6f0,2023-08-16_09h24.00.074,HF_wild_card,2022.2.4,Win32,62.5,5f95ecdf1381b512f13ab6f0,64d2fd46c836a06233681665,64dc7aa20a19884bc24e5728,,,,,,,ctch,resources/DBN.BMP,resources/DB.BMP,Door3,-0.2,0.019444444,1,0,0,1,optionLeft,70,11210,5,33,0,33,0,1,,,,,,,,,,,,,,,,,,,,,,,,,,,,,,,,,,,,,,,
,,,,,,,5f95ecdf1381b512f13ab6f0,2023-08-16_09h24.00.074,HF_wild_card,2022.2.4,Win32,62.5,5f95ecdf1381b512f13ab6f0,64d2fd46c836a06233681665,64dc7aa20a19884bc24e5728,,,,,,,sngl,resources/DBN.BMP,resources/Empty.png,Door3,-0.293055556,0.022916667,1,0,0,0.499,optionLeft,70,11280,5,34,0,34,0,1,,,,,,,,,,,,,,,,,,,,,,,,,,,,,,,,,,,,,,,
,,,,,,,5f95ecdf1381b512f13ab6f0,2023-08-16_09h24.00.074,HF_wild_card,2022.2.4,Win32,62.5,5f95ecdf1381b512f13ab6f0,64d2fd46c836a06233681665,64dc7aa20a19884bc24e5728,,,,,,,decisionTrl,resources/DG.BMP,resources/DBN.BMP,Door3,0.272916667,0.035416667,1,0,0,0.769,optionRight,70,11350,5,35,0,35,0,1,,,,,,,,,,,,,,,,,,,,,,,,,,,,,,,,,,,,,,,
,,,,,,,5f95ecdf1381b512f13ab6f0,2023-08-16_09h24.00.074,HF_wild_card,2022.2.4,Win32,62.5,5f95ecdf1381b512f13ab6f0,64d2fd46c836a06233681665,64dc7aa20a19884bc24e5728,,,,,,,ctch,resources/DG.BMP,resources/DY.BMP,Door4,-0.141666667,-0.004166667,1,0,0,2.43,optionLeft,80,11430,5,36,0,36,0,1,,,,,,,,,,,,,,,,,,,,,,,,,,,,,,,,,,,,,,,
,,,,,,,5f95ecdf1381b512f13ab6f0,2023-08-16_09h24.00.074,HF_wild_card,2022.2.4,Win32,62.5,5f95ecdf1381b512f13ab6f0,64d2fd46c836a06233681665,64dc7aa20a19884bc24e5728,,,,,,,ctch,resources/DB.BMP,resources/DBN.BMP,Door3,0.160416667,0.018055556,1,0,0,1.116,optionRight,70,11500,5,37,0,37,0,1,,,,,,,,,,,,,,,,,,,,,,,,,,,,,,,,,,,,,,,
,,,,,,,5f95ecdf1381b512f13ab6f0,2023-08-16_09h24.00.074,HF_wild_card,2022.2.4,Win32,62.5,5f95ecdf1381b512f13ab6f0,64d2fd46c836a06233681665,64dc7aa20a19884bc24e5728,,,,,,,ctch,resources/DY.BMP,resources/DG.BMP,Door4,0.277777778,0.025,1,0,0,1.921,optionRight,80,11580,5,38,0,38,0,1,,,,,,,,,,,,,,,,,,,,,,,,,,,,,,,,,,,,,,,
,,,,,,,5f95ecdf1381b512f13ab6f0,2023-08-16_09h24.00.074,HF_wild_card,2022.2.4,Win32,62.5,5f95ecdf1381b512f13ab6f0,64d2fd46c836a06233681665,64dc7aa20a19884bc24e5728,,,,,,,decisionTrl,resources/DBN.BMP,resources/DR.BMP,Door3,-0.259027778,0.007638889,1,0,0,0.686,optionLeft,70,11650,5,39,0,39,0,1,,,,,,,,,,,,,,,,,,,,,,,,,,,,,,,,,,,,,,,
,,,,,,,5f95ecdf1381b512f13ab6f0,2023-08-16_09h24.00.074,HF_wild_card,2022.2.4,Win32,62.5,5f95ecdf1381b512f13ab6f0,64d2fd46c836a06233681665,64dc7aa20a19884bc24e5728,,,,,,,ctch,resources/DB.BMP,resources/DBN.BMP,Door3,0.225,0.023611111,1,0,0,0.683,optionRight,70,11720,5,40,0,40,0,1,,,,,,,,,,,,,,,,,,,,,,,,,,,,,,,,,,,,,,,
,,,,,,,5f95ecdf1381b512f13ab6f0,2023-08-16_09h24.00.074,HF_wild_card,2022.2.4,Win32,62.5,5f95ecdf1381b512f13ab6f0,64d2fd46c836a06233681665,64dc7aa20a19884bc24e5728,,,,,,,decisionTrl,resources/DB.BMP,resources/DY.BMP,Door2,-0.182638889,0.016666667,1,0,0,4.336,optionLeft,20,11740,5,41,0,41,0,1,,,,,,,,,,,,,,,,,,,,,,,,,,,,,,,,,,,,,,,
,,,,,,,5f95ecdf1381b512f13ab6f0,2023-08-16_09h24.00.074,HF_wild_card,2022.2.4,Win32,62.5,5f95ecdf1381b512f13ab6f0,64d2fd46c836a06233681665,64dc7aa20a19884bc24e5728,,,,,,,decisionTrl,resources/DG.BMP,resources/DBN.BMP,Door3,0.390277778,0.04375,1,0,0,1.534,optionRight,70,11810,5,42,0,42,0,1,,,,,,,,,,,,,,,,,,,,,,,,,,,,,,,,,,,,,,,
,,,,,,,5f95ecdf1381b512f13ab6f0,2023-08-16_09h24.00.074,HF_wild_card,2022.2.4,Win32,62.5,5f95ecdf1381b512f13ab6f0,64d2fd46c836a06233681665,64dc7aa20a19884bc24e5728,,,,,,,ctch,resources/DBN.BMP,resources/DB.BMP,Door3,-0.293055556,0.022222222,1,0,0,1.183,optionLeft,70,11880,5,43,0,43,0,1,,,,,,,,,,,,,,,,,,,,,,,,,,,,,,,,,,,,,,,
,,,,,,,5f95ecdf1381b512f13ab6f0,2023-08-16_09h24.00.074,HF_wild_card,2022.2.4,Win32,62.5,5f95ecdf1381b512f13ab6f0,64d2fd46c836a06233681665,64dc7aa20a19884bc24e5728,,,,,,,,,,,,,,,,,,,,,,,,,,4,0,4,0,1,,,,,,,,,,,,,,,,,,,,,,,,,,,,,,,,,,
,,,,,,,5f95ecdf1381b512f13ab6f0,2023-08-16_09h24.00.074,HF_wild_card,2022.2.4,Win32,62.5,5f95ecdf1381b512f13ab6f0,64d2fd46c836a06233681665,64dc7aa20a19884bc24e5728,,,,,,,sngl,resources/Empty.png,resources/DB.BMP,Door2,0.200694444,-0.015972222,1,0,0,0.582,optionRight,40,11920,6,0,0,0,0,1,,,,,,,,,,,,,,,,,,,,,,,,,,,,,,,,,,,,,,,
,,,,,,,5f95ecdf1381b512f13ab6f0,2023-08-16_09h24.00.074,HF_wild_card,2022.2.4,Win32,62.5,5f95ecdf1381b512f13ab6f0,64d2fd46c836a06233681665,64dc7aa20a19884bc24e5728,,,,,,,decisionTrl,resources/DY.BMP,resources/DB.BMP,Door1,-0.18125,0.024305556,1,0,0,2.531,optionLeft,30,11950,6,1,0,1,0,1,,,,,,,,,,,,,,,,,,,,,,,,,,,,,,,,,,,,,,,
,,,,,,,5f95ecdf1381b512f13ab6f0,2023-08-16_09h24.00.074,HF_wild_card,2022.2.4,Win32,62.5,5f95ecdf1381b512f13ab6f0,64d2fd46c836a06233681665,64dc7aa20a19884bc24e5728,,,,,,,decisionTrl,resources/DR.BMP,resources/DG.BMP,Door4,0.230555556,0.021527778,1,0,0,1.314,optionRight,80,12030,6,2,0,2,0,1,,,,,,,,,,,,,,,,,,,,,,,,,,,,,,,,,,,,,,,
,,,,,,,5f95ecdf1381b512f13ab6f0,2023-08-16_09h24.00.074,HF_wild_card,2022.2.4,Win32,62.5,5f95ecdf1381b512f13ab6f0,64d2fd46c836a06233681665,64dc7aa20a19884bc24e5728,,,,,,,ctch,resources/DB.BMP,resources/DBN.BMP,Door3,0.175694444,0.031944444,1,0,0,0.684,optionRight,70,12100,6,3,0,3,0,1,,,,,,,,,,,,,,,,,,,,,,,,,,,,,,,,,,,,,,,
,,,,,,,5f95ecdf1381b512f13ab6f0,2023-08-16_09h24.00.074,HF_wild_card,2022.2.4,Win32,62.5,5f95ecdf1381b512f13ab6f0,64d2fd46c836a06233681665,64dc7aa20a19884bc24e5728,,,,,,,sngl,resources/DY.BMP,resources/Empty.png,Door1,-0.208333333,0.007638889,1,0,0,0.582,optionLeft,30,12130,6,4,0,4,0,1,,,,,,,,,,,,,,,,,,,,,,,,,,,,,,,,,,,,,,,
,,,,,,,5f95ecdf1381b512f13ab6f0,2023-08-16_09h24.00.074,HF_wild_card,2022.2.4,Win32,62.5,5f95ecdf1381b512f13ab6f0,64d2fd46c836a06233681665,64dc7aa20a19884bc24e5728,,,,,,,sngl,resources/DBN.BMP,resources/Empty.png,Door3,-0.165277778,0.020138889,1,0,0,0.596,optionLeft,70,12200,6,5,0,5,0,1,,,,,,,,,,,,,,,,,,,,,,,,,,,,,,,,,,,,,,,
,,,,,,,5f95ecdf1381b512f13ab6f0,2023-08-16_09h24.00.074,HF_wild_card,2022.2.4,Win32,62.5,5f95ecdf1381b512f13ab6f0,64d2fd46c836a06233681665,64dc7aa20a19884bc24e5728,,,,,,,ctch,resources/DBN.BMP,resources/DB.BMP,Door3,-0.256944444,0.020138889,1,0,0,0.896,optionLeft,70,12270,6,6,0,6,0,1,,,,,,,,,,,,,,,,,,,,,,,,,,,,,,,,,,,,,,,
,,,,,,,5f95ecdf1381b512f13ab6f0,2023-08-16_09h24.00.074,HF_wild_card,2022.2.4,Win32,62.5,5f95ecdf1381b512f13ab6f0,64d2fd46c836a06233681665,64dc7aa20a19884bc24e5728,,,,,,,decisionTrl,resources/DG.BMP,resources/DBN.BMP,Door3,0.232638889,0.025,1,0,0,0.699,optionRight,70,12340,6,7,0,7,0,1,,,,,,,,,,,,,,,,,,,,,,,,,,,,,,,,,,,,,,,
,,,,,,,5f95ecdf1381b512f13ab6f0,2023-08-16_09h24.00.074,HF_wild_card,2022.2.4,Win32,62.5,5f95ecdf1381b512f13ab6f0,64d2fd46c836a06233681665,64dc7aa20a19884bc24e5728,,,,,,,decisionTrl,resources/DG.BMP,resources/DBN.BMP,Door3,0.234027778,0.013888889,1,0,0,0.817,optionRight,70,12410,6,8,0,8,0,1,,,,,,,,,,,,,,,,,,,,,,,,,,,,,,,,,,,,,,,
,,,,,,,5f95ecdf1381b512f13ab6f0,2023-08-16_09h24.00.074,HF_wild_card,2022.2.4,Win32,62.5,5f95ecdf1381b512f13ab6f0,64d2fd46c836a06233681665,64dc7aa20a19884bc24e5728,,,,,,,ctch,resources/DBN.BMP,resources/DB.BMP,Door3,-0.209722222,0.03125,1,0,0,0.896,optionLeft,70,12480,6,9,0,9,0,1,,,,,,,,,,,,,,,,,,,,,,,,,,,,,,,,,,,,,,,
,,,,,,,5f95ecdf1381b512f13ab6f0,2023-08-16_09h24.00.074,HF_wild_card,2022.2.4,Win32,62.5,5f95ecdf1381b512f13ab6f0,64d2fd46c836a06233681665,64dc7aa20a19884bc24e5728,,,,,,,decisionTrl,resources/DB.BMP,resources/DR.BMP,WildCard_Ex,0.226388889,0.025,1,0,0,3.498,optionRight,95,12575,6,10,0,10,0,1,,,,,,,,,,,,,,,,,,,,,,,,,,,,,,,,,,,,,,,
,,,,,,,5f95ecdf1381b512f13ab6f0,2023-08-16_09h24.00.074,HF_wild_card,2022.2.4,Win32,62.5,5f95ecdf1381b512f13ab6f0,64d2fd46c836a06233681665,64dc7aa20a19884bc24e5728,,,,,,,decisionTrl,resources/DR.BMP,resources/DB.BMP,WildCard_Ex,0.016666667,0.002083333,1,0,0,0.079,optionLeft,95,12670,6,11,0,11,0,1,,,,,,,,,,,,,,,,,,,,,,,,,,,,,,,,,,,,,,,
,,,,,,,5f95ecdf1381b512f13ab6f0,2023-08-16_09h24.00.074,HF_wild_card,2022.2.4,Win32,62.5,5f95ecdf1381b512f13ab6f0,64d2fd46c836a06233681665,64dc7aa20a19884bc24e5728,,,,,,,decisionTrl,resources/DBN.BMP,resources/DR.BMP,Door3,-0.258333333,0.015277778,1,0,0,1.099,optionLeft,70,12740,6,12,0,12,0,1,,,,,,,,,,,,,,,,,,,,,,,,,,,,,,,,,,,,,,,
,,,,,,,5f95ecdf1381b512f13ab6f0,2023-08-16_09h24.00.074,HF_wild_card,2022.2.4,Win32,62.5,5f95ecdf1381b512f13ab6f0,64d2fd46c836a06233681665,64dc7aa20a19884bc24e5728,,,,,,,sngl,resources/DR.BMP,resources/Empty.png,WildCard_Ex,-0.234722222,0.022916667,1,0,0,0.729,optionLeft,95,12835,6,13,0,13,0,1,,,,,,,,,,,,,,,,,,,,,,,,,,,,,,,,,,,,,,,
,,,,,,,5f95ecdf1381b512f13ab6f0,2023-08-16_09h24.00.074,HF_wild_card,2022.2.4,Win32,62.5,5f95ecdf1381b512f13ab6f0,64d2fd46c836a06233681665,64dc7aa20a19884bc24e5728,,,,,,,sngl,resources/DR.BMP,resources/Empty.png,WildCard_Ex,-0.256944444,0.033333333,1,0,0,0.566,optionLeft,5,12840,6,14,0,14,0,1,,,,,,,,,,,,,,,,,,,,,,,,,,,,,,,,,,,,,,,
,,,,,,,5f95ecdf1381b512f13ab6f0,2023-08-16_09h24.00.074,HF_wild_card,2022.2.4,Win32,62.5,5f95ecdf1381b512f13ab6f0,64d2fd46c836a06233681665,64dc7aa20a19884bc24e5728,,,,,,,sngl,resources/Empty.png,resources/DR.BMP,WildCard_Ex,0.245833333,0.024305556,1,0,0,0.585,optionRight,95,12935,6,15,0,15,0,1,,,,,,,,,,,,,,,,,,,,,,,,,,,,,,,,,,,,,,,
,,,,,,,5f95ecdf1381b512f13ab6f0,2023-08-16_09h24.00.074,HF_wild_card,2022.2.4,Win32,62.5,5f95ecdf1381b512f13ab6f0,64d2fd46c836a06233681665,64dc7aa20a19884bc24e5728,,,,,,,decisionTrl,resources/DG.BMP,resources/DBN.BMP,Door3,0.172916667,0.03125,1,0,0,0.945,optionRight,70,13005,6,16,0,16,0,1,,,,,,,,,,,,,,,,,,,,,,,,,,,,,,,,,,,,,,,
,,,,,,,5f95ecdf1381b512f13ab6f0,2023-08-16_09h24.00.074,HF_wild_card,2022.2.4,Win32,62.5,5f95ecdf1381b512f13ab6f0,64d2fd46c836a06233681665,64dc7aa20a19884bc24e5728,,,,,,,decisionTrl,resources/DY.BMP,resources/DB.BMP,Door1,-0.222222222,0.020138889,1,0,0,1.33,optionLeft,30,13035,6,17,0,17,0,1,,,,,,,,,,,,,,,,,,,,,,,,,,,,,,,,,,,,,,,
,,,,,,,5f95ecdf1381b512f13ab6f0,2023-08-16_09h24.00.074,HF_wild_card,2022.2.4,Win32,62.5,5f95ecdf1381b512f13ab6f0,64d2fd46c836a06233681665,64dc7aa20a19884bc24e5728,,,,,,,ctch,resources/DG.BMP,resources/DY.BMP,Door4,-0.210416667,-0.011805556,1,0,0,2.748,optionLeft,60,13095,6,18,0,18,0,1,,,,,,,,,,,,,,,,,,,,,,,,,,,,,,,,,,,,,,,
,,,,,,,5f95ecdf1381b512f13ab6f0,2023-08-16_09h24.00.074,HF_wild_card,2022.2.4,Win32,62.5,5f95ecdf1381b512f13ab6f0,64d2fd46c836a06233681665,64dc7aa20a19884bc24e5728,,,,,,,decisionTrl,resources/DB.BMP,resources/DY.BMP,Door1,0.221527778,0.006944444,1,0,0,2.468,optionRight,30,13125,6,19,0,19,0,1,,,,,,,,,,,,,,,,,,,,,,,,,,,,,,,,,,,,,,,
,,,,,,,5f95ecdf1381b512f13ab6f0,2023-08-16_09h24.00.074,HF_wild_card,2022.2.4,Win32,62.5,5f95ecdf1381b512f13ab6f0,64d2fd46c836a06233681665,64dc7aa20a19884bc24e5728,,,,,,,decisionTrl,resources/DY.BMP,resources/DB.BMP,Door1,-0.24375,-0.010416667,1,0,0,1.337,optionLeft,30,13155,6,20,0,20,0,1,,,,,,,,,,,,,,,,,,,,,,,,,,,,,,,,,,,,,,,
,,,,,,,5f95ecdf1381b512f13ab6f0,2023-08-16_09h24.00.074,HF_wild_card,2022.2.4,Win32,62.5,5f95ecdf1381b512f13ab6f0,64d2fd46c836a06233681665,64dc7aa20a19884bc24e5728,,,,,,,ctch,resources/DY.BMP,resources/DG.BMP,Door4,0.215972222,0.002083333,1,0,0,2.064,optionRight,80,13235,6,21,0,21,0,1,,,,,,,,,,,,,,,,,,,,,,,,,,,,,,,,,,,,,,,
,,,,,,,5f95ecdf1381b512f13ab6f0,2023-08-16_09h24.00.074,HF_wild_card,2022.2.4,Win32,62.5,5f95ecdf1381b512f13ab6f0,64d2fd46c836a06233681665,64dc7aa20a19884bc24e5728,,,,,,,decisionTrl,resources/DG.BMP,resources/DR.BMP,Door4,-0.209722222,0.00625,1,0,0,1.713,optionLeft,80,13315,6,22,0,22,0,1,,,,,,,,,,,,,,,,,,,,,,,,,,,,,,,,,,,,,,,
,,,,,,,5f95ecdf1381b512f13ab6f0,2023-08-16_09h24.00.074,HF_wild_card,2022.2.4,Win32,62.5,5f95ecdf1381b512f13ab6f0,64d2fd46c836a06233681665,64dc7aa20a19884bc24e5728,,,,,,,sngl,resources/Empty.png,resources/DY.BMP,Door1,0.236805556,-0.004861111,1,0,0,0.65,optionRight,30,13345,6,23,0,23,0,1,,,,,,,,,,,,,,,,,,,,,,,,,,,,,,,,,,,,,,,
,,,,,,,5f95ecdf1381b512f13ab6f0,2023-08-16_09h24.00.074,HF_wild_card,2022.2.4,Win32,62.5,5f95ecdf1381b512f13ab6f0,64d2fd46c836a06233681665,64dc7aa20a19884bc24e5728,,,,,,,ctch,resources/DY.BMP,resources/DG.BMP,Door4,0.206944444,-0.004166667,1,0,0,1.564,optionRight,60,13405,6,24,0,24,0,1,,,,,,,,,,,,,,,,,,,,,,,,,,,,,,,,,,,,,,,
,,,,,,,5f95ecdf1381b512f13ab6f0,2023-08-16_09h24.00.074,HF_wild_card,2022.2.4,Win32,62.5,5f95ecdf1381b512f13ab6f0,64d2fd46c836a06233681665,64dc7aa20a19884bc24e5728,,,,,,,decisionTrl,resources/DR.BMP,resources/DY.BMP,Door1,0.195138889,0,1,0,0,1.083,optionRight,30,13435,6,25,0,25,0,1,,,,,,,,,,,,,,,,,,,,,,,,,,,,,,,,,,,,,,,
,,,,,,,5f95ecdf1381b512f13ab6f0,2023-08-16_09h24.00.074,HF_wild_card,2022.2.4,Win32,62.5,5f95ecdf1381b512f13ab6f0,64d2fd46c836a06233681665,64dc7aa20a19884bc24e5728,,,,,,,sngl,resources/DB.BMP,resources/Empty.png,Door2,-0.16875,-0.003472222,1,0,0,0.966,optionLeft,20,13455,6,26,0,26,0,1,,,,,,,,,,,,,,,,,,,,,,,,,,,,,,,,,,,,,,,
,,,,,,,5f95ecdf1381b512f13ab6f0,2023-08-16_09h24.00.074,HF_wild_card,2022.2.4,Win32,62.5,5f95ecdf1381b512f13ab6f0,64d2fd46c836a06233681665,64dc7aa20a19884bc24e5728,,,,,,,ctch,resources/DB.BMP,resources/DBN.BMP,Door3,0.218055556,0.0125,1,0,0,0.829,optionRight,70,13525,6,27,0,27,0,1,,,,,,,,,,,,,,,,,,,,,,,,,,,,,,,,,,,,,,,
,,,,,,,5f95ecdf1381b512f13ab6f0,2023-08-16_09h24.00.074,HF_wild_card,2022.2.4,Win32,62.5,5f95ecdf1381b512f13ab6f0,64d2fd46c836a06233681665,64dc7aa20a19884bc24e5728,,,,,,,decisionTrl,resources/DG.BMP,resources/DBN.BMP,Door3,0.215277778,0.029166667,1,0,0,0.836,optionRight,70,13595,6,28,0,28,0,1,,,,,,,,,,,,,,,,,,,,,,,,,,,,,,,,,,,,,,,
,,,,,,,5f95ecdf1381b512f13ab6f0,2023-08-16_09h24.00.074,HF_wild_card,2022.2.4,Win32,62.5,5f95ecdf1381b512f13ab6f0,64d2fd46c836a06233681665,64dc7aa20a19884bc24e5728,,,,,,,decisionTrl,resources/DY.BMP,resources/DB.BMP,Door1,-0.244444444,0.006944444,1,0,0,1.85,optionLeft,30,13625,6,29,0,29,0,1,,,,,,,,,,,,,,,,,,,,,,,,,,,,,,,,,,,,,,,
,,,,,,,5f95ecdf1381b512f13ab6f0,2023-08-16_09h24.00.074,HF_wild_card,2022.2.4,Win32,62.5,5f95ecdf1381b512f13ab6f0,64d2fd46c836a06233681665,64dc7aa20a19884bc24e5728,,,,,,,sngl,resources/Empty.png,resources/DG.BMP,Door4,0.227777778,0.00625,1,0,0,0.533,optionRight,80,13705,6,30,0,30,0,1,,,,,,,,,,,,,,,,,,,,,,,,,,,,,,,,,,,,,,,
,,,,,,,5f95ecdf1381b512f13ab6f0,2023-08-16_09h24.00.074,HF_wild_card,2022.2.4,Win32,62.5,5f95ecdf1381b512f13ab6f0,64d2fd46c836a06233681665,64dc7aa20a19884bc24e5728,,,,,,,sngl,resources/Empty.png,resources/DBN.BMP,Door3,0.204861111,0.029861111,1,0,0,0.516,optionRight,70,13775,6,31,0,31,0,1,,,,,,,,,,,,,,,,,,,,,,,,,,,,,,,,,,,,,,,
,,,,,,,5f95ecdf1381b512f13ab6f0,2023-08-16_09h24.00.074,HF_wild_card,2022.2.4,Win32,62.5,5f95ecdf1381b512f13ab6f0,64d2fd46c836a06233681665,64dc7aa20a19884bc24e5728,,,,,,,ctch,resources/DG.BMP,resources/DY.BMP,Door4,-0.196527778,0.018055556,1,0,0,3.62,optionLeft,80,13855,6,32,0,32,0,1,,,,,,,,,,,,,,,,,,,,,,,,,,,,,,,,,,,,,,,
,,,,,,,5f95ecdf1381b512f13ab6f0,2023-08-16_09h24.00.074,HF_wild_card,2022.2.4,Win32,62.5,5f95ecdf1381b512f13ab6f0,64d2fd46c836a06233681665,64dc7aa20a19884bc24e5728,,,,,,,decisionTrl,resources/DBN.BMP,resources/DG.BMP,Door3,-0.273611111,0.024305556,1,0,0,0.917,optionLeft,70,13925,6,33,0,33,0,1,,,,,,,,,,,,,,,,,,,,,,,,,,,,,,,,,,,,,,,
,,,,,,,5f95ecdf1381b512f13ab6f0,2023-08-16_09h24.00.074,HF_wild_card,2022.2.4,Win32,62.5,5f95ecdf1381b512f13ab6f0,64d2fd46c836a06233681665,64dc7aa20a19884bc24e5728,,,,,,,sngl,resources/DG.BMP,resources/Empty.png,Door4,-0.242361111,0.017361111,1,0,0,0.496,optionLeft,60,13985,6,34,0,34,0,1,,,,,,,,,,,,,,,,,,,,,,,,,,,,,,,,,,,,,,,
,,,,,,,5f95ecdf1381b512f13ab6f0,2023-08-16_09h24.00.074,HF_wild_card,2022.2.4,Win32,62.5,5f95ecdf1381b512f13ab6f0,64d2fd46c836a06233681665,64dc7aa20a19884bc24e5728,,,,,,,decisionTrl,resources/DB.BMP,resources/DY.BMP,Door1,0.196527778,0.024305556,1,0,0,1.2,optionRight,30,14015,6,35,0,35,0,1,,,,,,,,,,,,,,,,,,,,,,,,,,,,,,,,,,,,,,,
,,,,,,,5f95ecdf1381b512f13ab6f0,2023-08-16_09h24.00.074,HF_wild_card,2022.2.4,Win32,62.5,5f95ecdf1381b512f13ab6f0,64d2fd46c836a06233681665,64dc7aa20a19884bc24e5728,,,,,,,decisionTrl,resources/DY.BMP,resources/DR.BMP,WildCard_Ex,0.214583333,0.025694444,1,0,0,2.905,optionRight,95,14110,6,36,0,36,0,1,,,,,,,,,,,,,,,,,,,,,,,,,,,,,,,,,,,,,,,
,,,,,,,5f95ecdf1381b512f13ab6f0,2023-08-16_09h24.00.074,HF_wild_card,2022.2.4,Win32,62.5,5f95ecdf1381b512f13ab6f0,64d2fd46c836a06233681665,64dc7aa20a19884bc24e5728,,,,,,,decisionTrl,resources/DB.BMP,resources/DY.BMP,Door1,0.268055556,0.022916667,1,0,0,1.717,optionRight,30,14140,6,37,0,37,0,1,,,,,,,,,,,,,,,,,,,,,,,,,,,,,,,,,,,,,,,
,,,,,,,5f95ecdf1381b512f13ab6f0,2023-08-16_09h24.00.074,HF_wild_card,2022.2.4,Win32,62.5,5f95ecdf1381b512f13ab6f0,64d2fd46c836a06233681665,64dc7aa20a19884bc24e5728,,,,,,,decisionTrl,resources/DBN.BMP,resources/DG.BMP,Door3,-0.241666667,0.013888889,1,0,0,0.867,optionLeft,70,14210,6,38,0,38,0,1,,,,,,,,,,,,,,,,,,,,,,,,,,,,,,,,,,,,,,,
,,,,,,,5f95ecdf1381b512f13ab6f0,2023-08-16_09h24.00.074,HF_wild_card,2022.2.4,Win32,62.5,5f95ecdf1381b512f13ab6f0,64d2fd46c836a06233681665,64dc7aa20a19884bc24e5728,,,,,,,sngl,resources/Empty.png,resources/DR.BMP,WildCard_Ex,0.225,0.018055556,1,0,0,0.516,optionRight,5,14215,6,39,0,39,0,1,,,,,,,,,,,,,,,,,,,,,,,,,,,,,,,,,,,,,,,
,,,,,,,5f95ecdf1381b512f13ab6f0,2023-08-16_09h24.00.074,HF_wild_card,2022.2.4,Win32,62.5,5f95ecdf1381b512f13ab6f0,64d2fd46c836a06233681665,64dc7aa20a19884bc24e5728,,,,,,,decisionTrl,resources/DR.BMP,resources/DBN.BMP,Door3,0.236805556,0.038194444,1,0,0,0.884,optionRight,70,14285,6,40,0,40,0,1,,,,,,,,,,,,,,,,,,,,,,,,,,,,,,,,,,,,,,,
,,,,,,,5f95ecdf1381b512f13ab6f0,2023-08-16_09h24.00.074,HF_wild_card,2022.2.4,Win32,62.5,5f95ecdf1381b512f13ab6f0,64d2fd46c836a06233681665,64dc7aa20a19884bc24e5728,,,,,,,decisionTrl,resources/DB.BMP,resources/DY.BMP,Door1,0.205555556,0.011111111,1,0,0,2.064,optionRight,30,14315,6,41,0,41,0,1,,,,,,,,,,,,,,,,,,,,,,,,,,,,,,,,,,,,,,,
,,,,,,,5f95ecdf1381b512f13ab6f0,2023-08-16_09h24.00.074,HF_wild_card,2022.2.4,Win32,62.5,5f95ecdf1381b512f13ab6f0,64d2fd46c836a06233681665,64dc7aa20a19884bc24e5728,,,,,,,decisionTrl,resources/DBN.BMP,resources/DG.BMP,Door3,-0.236805556,0.038888889,1,0,0,1.363,optionLeft,70,14385,6,42,0,42,0,1,,,,,,,,,,,,,,,,,,,,,,,,,,,,,,,,,,,,,,,
,,,,,,,5f95ecdf1381b512f13ab6f0,2023-08-16_09h24.00.074,HF_wild_card,2022.2.4,Win32,62.5,5f95ecdf1381b512f13ab6f0,64d2fd46c836a06233681665,64dc7aa20a19884bc24e5728,,,,,,,decisionTrl,resources/DBN.BMP,resources/DG.BMP,Door3,-0.200694444,0.036111111,1,0,0,0.599,optionLeft,70,14455,6,43,0,43,0,1,,,,,,,,,,,,,,,,,,,,,,,,,,,,,,,,,,,,,,,
,,,,,,,5f95ecdf1381b512f13ab6f0,2023-08-16_09h24.00.074,HF_wild_card,2022.2.4,Win32,62.5,5f95ecdf1381b512f13ab6f0,64d2fd46c836a06233681665,64dc7aa20a19884bc24e5728,,,,,,,,,,,,,,,,,,,,,,,,,,5,0,5,0,1,,,,,,,,,,,,,,,,,,,,,,,,,,,,,,,,,,
,,,,,,,5f95ecdf1381b512f13ab6f0,2023-08-16_09h24.00.074,HF_wild_card,2022.2.4,Win32,62.5,5f95ecdf1381b512f13ab6f0,64d2fd46c836a06233681665,64dc7aa20a19884bc24e5728,,,,,,,ctch,resources/DY.BMP,resources/DG.BMP,Door4,0.23125,-0.035416667,1,0,0,1.796,optionRight,80,14535,7,0,0,0,0,1,,,,,,,,,,,,,,,,,,,,,,,,,,,,,,,,,,,,,,,
,,,,,,,5f95ecdf1381b512f13ab6f0,2023-08-16_09h24.00.074,HF_wild_card,2022.2.4,Win32,62.5,5f95ecdf1381b512f13ab6f0,64d2fd46c836a06233681665,64dc7aa20a19884bc24e5728,,,,,,,decisionTrl,resources/DBN.BMP,resources/DG.BMP,Door3,-0.181944444,0.01875,1,0,0,0.837,optionLeft,70,14605,7,1,0,1,0,1,,,,,,,,,,,,,,,,,,,,,,,,,,,,,,,,,,,,,,,
,,,,,,,5f95ecdf1381b512f13ab6f0,2023-08-16_09h24.00.074,HF_wild_card,2022.2.4,Win32,62.5,5f95ecdf1381b512f13ab6f0,64d2fd46c836a06233681665,64dc7aa20a19884bc24e5728,,,,,,,ctch,resources/DY.BMP,resources/DG.BMP,Door4,0.222222222,0.038194444,1,0,0,1.751,optionRight,80,14685,7,2,0,2,0,1,,,,,,,,,,,,,,,,,,,,,,,,,,,,,,,,,,,,,,,
,,,,,,,5f95ecdf1381b512f13ab6f0,2023-08-16_09h24.00.074,HF_wild_card,2022.2.4,Win32,62.5,5f95ecdf1381b512f13ab6f0,64d2fd46c836a06233681665,64dc7aa20a19884bc24e5728,,,,,,,ctch,resources/DBN.BMP,resources/DB.BMP,Door3,0.010416667,0.005555556,1,0,0,0.063,optionLeft,70,14755,7,3,0,3,0,1,,,,,,,,,,,,,,,,,,,,,,,,,,,,,,,,,,,,,,,
,,,,,,,5f95ecdf1381b512f13ab6f0,2023-08-16_09h24.00.074,HF_wild_card,2022.2.4,Win32,62.5,5f95ecdf1381b512f13ab6f0,64d2fd46c836a06233681665,64dc7aa20a19884bc24e5728,,,,,,,decisionTrl,resources/DG.BMP,resources/DBN.BMP,Door3,0.198611111,0.01875,1,0,0,0.733,optionRight,70,14825,7,4,0,4,0,1,,,,,,,,,,,,,,,,,,,,,,,,,,,,,,,,,,,,,,,
,,,,,,,5f95ecdf1381b512f13ab6f0,2023-08-16_09h24.00.074,HF_wild_card,2022.2.4,Win32,62.5,5f95ecdf1381b512f13ab6f0,64d2fd46c836a06233681665,64dc7aa20a19884bc24e5728,,,,,,,decisionTrl,resources/DY.BMP,resources/DB.BMP,Door1,-0.281944444,0.028472222,1,0,0,3.049,optionLeft,30,14855,7,5,0,5,0,1,,,,,,,,,,,,,,,,,,,,,,,,,,,,,,,,,,,,,,,
,,,,,,,5f95ecdf1381b512f13ab6f0,2023-08-16_09h24.00.074,HF_wild_card,2022.2.4,Win32,62.5,5f95ecdf1381b512f13ab6f0,64d2fd46c836a06233681665,64dc7aa20a19884bc24e5728,,,,,,,decisionTrl,resources/DY.BMP,resources/DB.BMP,Door1,-0.175694444,0.013194444,1,0,0,0.763,optionLeft,30,14885,7,6,0,6,0,1,,,,,,,,,,,,,,,,,,,,,,,,,,,,,,,,,,,,,,,
,,,,,,,5f95ecdf1381b512f13ab6f0,2023-08-16_09h24.00.074,HF_wild_card,2022.2.4,Win32,62.5,5f95ecdf1381b512f13ab6f0,64d2fd46c836a06233681665,64dc7aa20a19884bc24e5728,,,,,,,decisionTrl,resources/DB.BMP,resources/DY.BMP,Door1,0.185416667,0.016666667,1,0,0,1.296,optionRight,30,14915,7,7,0,7,0,1,,,,,,,,,,,,,,,,,,,,,,,,,,,,,,,,,,,,,,,
,,,,,,,5f95ecdf1381b512f13ab6f0,2023-08-16_09h24.00.074,HF_wild_card,2022.2.4,Win32,62.5,5f95ecdf1381b512f13ab6f0,64d2fd46c836a06233681665,64dc7aa20a19884bc24e5728,,,,,,,ctch,resources/DB.BMP,resources/DBN.BMP,Door3,0.2,0.021527778,1,0,0,0.653,optionRight,70,14985,7,8,0,8,0,1,,,,,,,,,,,,,,,,,,,,,,,,,,,,,,,,,,,,,,,
,,,,,,,5f95ecdf1381b512f13ab6f0,2023-08-16_09h24.00.074,HF_wild_card,2022.2.4,Win32,62.5,5f95ecdf1381b512f13ab6f0,64d2fd46c836a06233681665,64dc7aa20a19884bc24e5728,,,,,,,decisionTrl,resources/DY.BMP,resources/DB.BMP,Door1,-0.159027778,0.010416667,1,0,0,1.166,optionLeft,30,15015,7,9,0,9,0,1,,,,,,,,,,,,,,,,,,,,,,,,,,,,,,,,,,,,,,,
,,,,,,,5f95ecdf1381b512f13ab6f0,2023-08-16_09h24.00.074,HF_wild_card,2022.2.4,Win32,62.5,5f95ecdf1381b512f13ab6f0,64d2fd46c836a06233681665,64dc7aa20a19884bc24e5728,,,,,,,decisionTrl,resources/DY.BMP,resources/DB.BMP,Door1,-0.16875,0.002083333,1,0,0,1.38,optionLeft,30,15045,7,10,0,10,0,1,,,,,,,,,,,,,,,,,,,,,,,,,,,,,,,,,,,,,,,
,,,,,,,5f95ecdf1381b512f13ab6f0,2023-08-16_09h24.00.074,HF_wild_card,2022.2.4,Win32,62.5,5f95ecdf1381b512f13ab6f0,64d2fd46c836a06233681665,64dc7aa20a19884bc24e5728,,,,,,,decisionTrl,resources/DG.BMP,resources/DBN.BMP,Door3,0.183333333,0.026388889,1,0,0,0.783,optionRight,70,15115,7,11,0,11,0,1,,,,,,,,,,,,,,,,,,,,,,,,,,,,,,,,,,,,,,,
,,,,,,,5f95ecdf1381b512f13ab6f0,2023-08-16_09h24.00.074,HF_wild_card,2022.2.4,Win32,62.5,5f95ecdf1381b512f13ab6f0,64d2fd46c836a06233681665,64dc7aa20a19884bc24e5728,,,,,,,decisionTrl,resources/DG.BMP,resources/DBN.BMP,Door3,0.228472222,0.034722222,1,0,0,0.584,optionRight,70,15185,7,12,0,12,0,1,,,,,,,,,,,,,,,,,,,,,,,,,,,,,,,,,,,,,,,
,,,,,,,5f95ecdf1381b512f13ab6f0,2023-08-16_09h24.00.074,HF_wild_card,2022.2.4,Win32,62.5,5f95ecdf1381b512f13ab6f0,64d2fd46c836a06233681665,64dc7aa20a19884bc24e5728,,,,,,,decisionTrl,resources/DG.BMP,resources/DBN.BMP,Door3,0.195833333,0.024305556,1,0,0,0.65,optionRight,70,15255,7,13,0,13,0,1,,,,,,,,,,,,,,,,,,,,,,,,,,,,,,,,,,,,,,,
,,,,,,,5f95ecdf1381b512f13ab6f0,2023-08-16_09h24.00.074,HF_wild_card,2022.2.4,Win32,62.5,5f95ecdf1381b512f13ab6f0,64d2fd46c836a06233681665,64dc7aa20a19884bc24e5728,,,,,,,decisionTrl,resources/DBN.BMP,resources/DG.BMP,Door3,0.006944444,-0.009722222,1,0,0,0.063,optionLeft,70,15325,7,14,0,14,0,1,,,,,,,,,,,,,,,,,,,,,,,,,,,,,,,,,,,,,,,
,,,,,,,5f95ecdf1381b512f13ab6f0,2023-08-16_09h24.00.074,HF_wild_card,2022.2.4,Win32,62.5,5f95ecdf1381b512f13ab6f0,64d2fd46c836a06233681665,64dc7aa20a19884bc24e5728,,,,,,,decisionTrl,resources/DB.BMP,resources/DY.BMP,Door1,0.21875,0.013888889,1,0,0,1.034,optionRight,30,15355,7,15,0,15,0,1,,,,,,,,,,,,,,,,,,,,,,,,,,,,,,,,,,,,,,,
,,,,,,,5f95ecdf1381b512f13ab6f0,2023-08-16_09h24.00.074,HF_wild_card,2022.2.4,Win32,62.5,5f95ecdf1381b512f13ab6f0,64d2fd46c836a06233681665,64dc7aa20a19884bc24e5728,,,,,,,ctch,resources/DB.BMP,resources/DBN.BMP,Door3,0.238888889,0.043055556,1,0,0,0.686,optionRight,70,15425,7,16,0,16,0,1,,,,,,,,,,,,,,,,,,,,,,,,,,,,,,,,,,,,,,,
,,,,,,,5f95ecdf1381b512f13ab6f0,2023-08-16_09h24.00.074,HF_wild_card,2022.2.4,Win32,62.5,5f95ecdf1381b512f13ab6f0,64d2fd46c836a06233681665,64dc7aa20a19884bc24e5728,,,,,,,decisionTrl,resources/DBN.BMP,resources/DG.BMP,Door3,-0.202777778,0.005555556,1,0,0,2.247,optionLeft,70,15495,7,17,0,17,0,1,,,,,,,,,,,,,,,,,,,,,,,,,,,,,,,,,,,,,,,
,,,,,,,5f95ecdf1381b512f13ab6f0,2023-08-16_09h24.00.074,HF_wild_card,2022.2.4,Win32,62.5,5f95ecdf1381b512f13ab6f0,64d2fd46c836a06233681665,64dc7aa20a19884bc24e5728,,,,,,,decisionTrl,resources/DY.BMP,resources/DB.BMP,Door1,-0.191666667,-0.004166667,1,0,0,1.651,optionLeft,30,15525,7,18,0,18,0,1,,,,,,,,,,,,,,,,,,,,,,,,,,,,,,,,,,,,,,,
,,,,,,,5f95ecdf1381b512f13ab6f0,2023-08-16_09h24.00.074,HF_wild_card,2022.2.4,Win32,62.5,5f95ecdf1381b512f13ab6f0,64d2fd46c836a06233681665,64dc7aa20a19884bc24e5728,,,,,,,decisionTrl,resources/DBN.BMP,resources/DG.BMP,Door3,-0.207638889,0.001388889,1,0,0,0.967,optionLeft,70,15595,7,19,0,19,0,1,,,,,,,,,,,,,,,,,,,,,,,,,,,,,,,,,,,,,,,
,,,,,,,5f95ecdf1381b512f13ab6f0,2023-08-16_09h24.00.074,HF_wild_card,2022.2.4,Win32,62.5,5f95ecdf1381b512f13ab6f0,64d2fd46c836a06233681665,64dc7aa20a19884bc24e5728,,,,,,,ctch,resources/DG.BMP,resources/DY.BMP,Door4,0.000694444,-0.000694444,1,0,0,0.066,optionLeft,80,15675,7,20,0,20,0,1,,,,,,,,,,,,,,,,,,,,,,,,,,,,,,,,,,,,,,,
,,,,,,,5f95ecdf1381b512f13ab6f0,2023-08-16_09h24.00.074,HF_wild_card,2022.2.4,Win32,62.5,5f95ecdf1381b512f13ab6f0,64d2fd46c836a06233681665,64dc7aa20a19884bc24e5728,,,,,,,decisionTrl,resources/DG.BMP,resources/DBN.BMP,Door3,0.195833333,0.017361111,1,0,0,1.053,optionRight,70,15745,7,21,0,21,0,1,,,,,,,,,,,,,,,,,,,,,,,,,,,,,,,,,,,,,,,
,,,,,,,5f95ecdf1381b512f13ab6f0,2023-08-16_09h24.00.074,HF_wild_card,2022.2.4,Win32,62.5,5f95ecdf1381b512f13ab6f0,64d2fd46c836a06233681665,64dc7aa20a19884bc24e5728,,,,,,,decisionTrl,resources/DG.BMP,resources/DBN.BMP,Door3,0.009027778,-0.015277778,1,0,0,0.08,optionRight,70,15815,7,22,0,22,0,1,,,,,,,,,,,,,,,,,,,,,,,,,,,,,,,,,,,,,,,
,,,,,,,5f95ecdf1381b512f13ab6f0,2023-08-16_09h24.00.074,HF_wild_card,2022.2.4,Win32,62.5,5f95ecdf1381b512f13ab6f0,64d2fd46c836a06233681665,64dc7aa20a19884bc24e5728,,,,,,,ctch,resources/DB.BMP,resources/DBN.BMP,Door3,0.218055556,0.030555556,1,0,0,0.566,optionRight,70,15885,7,23,0,23,0,1,,,,,,,,,,,,,,,,,,,,,,,,,,,,,,,,,,,,,,,
,,,,,,,5f95ecdf1381b512f13ab6f0,2023-08-16_09h24.00.074,HF_wild_card,2022.2.4,Win32,62.5,5f95ecdf1381b512f13ab6f0,64d2fd46c836a06233681665,64dc7aa20a19884bc24e5728,,,,,,,ctch,resources/DG.BMP,resources/DY.BMP,Door4,-0.215972222,0.007638889,1,0,0,1.364,optionLeft,80,15965,7,24,0,24,0,1,,,,,,,,,,,,,,,,,,,,,,,,,,,,,,,,,,,,,,,
,,,,,,,5f95ecdf1381b512f13ab6f0,2023-08-16_09h24.00.074,HF_wild_card,2022.2.4,Win32,62.5,5f95ecdf1381b512f13ab6f0,64d2fd46c836a06233681665,64dc7aa20a19884bc24e5728,,,,,,,ctch,resources/DG.BMP,resources/DY.BMP,Door4,-0.227083333,0.027777778,1,0,0,1.218,optionLeft,80,16045,7,25,0,25,0,1,,,,,,,,,,,,,,,,,,,,,,,,,,,,,,,,,,,,,,,
,,,,,,,5f95ecdf1381b512f13ab6f0,2023-08-16_09h24.00.074,HF_wild_card,2022.2.4,Win32,62.5,5f95ecdf1381b512f13ab6f0,64d2fd46c836a06233681665,64dc7aa20a19884bc24e5728,,,,,,,decisionTrl,resources/DBN.BMP,resources/DG.BMP,Door3,0.008333333,0.0125,1,0,0,0.066,optionLeft,70,16115,7,26,0,26,0,1,,,,,,,,,,,,,,,,,,,,,,,,,,,,,,,,,,,,,,,
,,,,,,,5f95ecdf1381b512f13ab6f0,2023-08-16_09h24.00.074,HF_wild_card,2022.2.4,Win32,62.5,5f95ecdf1381b512f13ab6f0,64d2fd46c836a06233681665,64dc7aa20a19884bc24e5728,,,,,,,decisionTrl,resources/DY.BMP,resources/DB.BMP,Door1,-0.215972222,0.002777778,1,0,0,1.201,optionLeft,30,16145,7,27,0,27,0,1,,,,,,,,,,,,,,,,,,,,,,,,,,,,,,,,,,,,,,,
,,,,,,,5f95ecdf1381b512f13ab6f0,2023-08-16_09h24.00.074,HF_wild_card,2022.2.4,Win32,62.5,5f95ecdf1381b512f13ab6f0,64d2fd46c836a06233681665,64dc7aa20a19884bc24e5728,,,,,,,decisionTrl,resources/DB.BMP,resources/DY.BMP,Door1,0.175694444,0.008333333,1,0,0,1.364,optionRight,30,16175,7,28,0,28,0,1,,,,,,,,,,,,,,,,,,,,,,,,,,,,,,,,,,,,,,,
