Condition,Low fixed image (Door1),Low risky image (Door2),High fixed image (Door3),High risky image (Door4),Extreme Wild Card,NonExtreme Wild Card,,date,expName,psychopyVersion,OS,frameRate,PROLIFIC_PID,STUDY_ID,SESSION_ID,mouse_2.x,mouse_2.y,mouse_2.leftButton,mouse_2.midButton,mouse_2.rightButton,mouse_2.clicked_name,Trial Type,Left Option Image,Right Option Image,Chosen Door,mouse.x,mouse.y,mouse.leftButton,mouse.midButton,mouse.rightButton,mouse.time,mouse.clicked_name,Feedback,Cumulative Reward,Block,trial.thisRepN,trial.thisTrialN,trial.thisN,trial.thisIndex,trial.ran,blocks.thisRepN,blocks.thisTrialN,blocks.thisN,blocks.thisIndex,blocks.ran,Money conversion,First Outcome Reported,Shown Door (First Outcome),Displayed Image (First Outcome),outcomes.thisRepN,outcomes.thisTrialN,outcomes.thisN,outcomes.thisIndex,outcomes.ran,judgments.thisRepN,judgments.thisTrialN,judgments.thisN,judgments.thisIndex,judgments.ran,freqMouse.x,freqMouse.y,freqMouse.leftButton,freqMouse.midButton,freqMouse.rightButton,freqMouse.clicked_name,FQJ for first outcome,FQJ for second outcome,Shown Door,Displayed Image,trials.thisRepN,trials.thisTrialN,trials.thisN,trials.thisIndex,trials.ran,judgBlock.thisRepN,judgBlock.thisTrialN,judgBlock.thisN,judgBlock.thisIndex,judgBlock.ran
1,resources/DBN.BMP,resources/DB.BMP,resources/DR.BMP,resources/DY.BMP,resources/DG.BMP,resources/DP.BMP,,2023-08-16_08h49.10.115,HF_wild_card,2022.2.4,Win32,116.3196464,55e876f25e4d360012cc283d,64d2fd46c836a06233681665,64dc7f654fa711d3e01f21a9,,,,,,,,,,,,,,,,,,,,,,,,,,,,,,,,,,,,,,,,,,,,,,,,,,,,,,,,,,,,,,,,
,,,,,,,,2023-08-16_08h49.10.115,HF_wild_card,2022.2.4,Win32,116.3196464,55e876f25e4d360012cc283d,64d2fd46c836a06233681665,64dc7f654fa711d3e01f21a9,0.012037037,-0.425,1,0,0,agree,,,,,,,,,,,,,,,,,,,,,,,,,,,,,,,,,,,,,,,,,,,,,,,,,,,,,,,,,,
,,,,,,,,2023-08-16_08h49.10.115,HF_wild_card,2022.2.4,Win32,116.3196464,55e876f25e4d360012cc283d,64d2fd46c836a06233681665,64dc7f654fa711d3e01f21a9,,,,,,,,,,,,,,,,,,,,,,,,,,,,,,,,,,,,,,,,,,,,,,,,,,,,,,,,,,,,,,,,
,,,,,,,,2023-08-16_08h49.10.115,HF_wild_card,2022.2.4,Win32,116.3196464,55e876f25e4d360012cc283d,64d2fd46c836a06233681665,64dc7f654fa711d3e01f21a9,,,,,,,ctch,resources/DY.BMP,resources/DBN.BMP,Door4,-0.237037037,-0.033333333,1,0,0,2.5553,optionLeft,60,60,1,0,0,0,0,1,,,,,,,,,,,,,,,,,,,,,,,,,,,,,,,,,,,,,,,
,,,,,,,,2023-08-16_08h49.10.115,HF_wild_card,2022.2.4,Win32,116.3196464,55e876f25e4d360012cc283d,64d2fd46c836a06233681665,64dc7f654fa711d3e01f21a9,,,,,,,sngl,resources/DP.BMP,resources/Empty.png,WildCard_NonEx,-0.199074074,-0.057407407,1,0,0,1.6592,optionLeft,55,115,1,1,0,1,0,1,,,,,,,,,,,,,,,,,,,,,,,,,,,,,,,,,,,,,,,
,,,,,,,,2023-08-16_08h49.10.115,HF_wild_card,2022.2.4,Win32,116.3196464,55e876f25e4d360012cc283d,64d2fd46c836a06233681665,64dc7f654fa711d3e01f21a9,,,,,,,decisionTrl,resources/DB.BMP,resources/DBN.BMP,Door2,-0.217592593,-0.052777778,1,0,0,0.9621,optionLeft,40,155,1,2,0,2,0,1,,,,,,,,,,,,,,,,,,,,,,,,,,,,,,,,,,,,,,,
,,,,,,,,2023-08-16_08h49.10.115,HF_wild_card,2022.2.4,Win32,116.3196464,55e876f25e4d360012cc283d,64d2fd46c836a06233681665,64dc7f654fa711d3e01f21a9,,,,,,,sngl,resources/DP.BMP,resources/Empty.png,WildCard_NonEx,-0.155555556,-0.030555556,1,0,0,0.8459,optionLeft,45,200,1,3,0,3,0,1,,,,,,,,,,,,,,,,,,,,,,,,,,,,,,,,,,,,,,,
,,,,,,,,2023-08-16_08h49.10.115,HF_wild_card,2022.2.4,Win32,116.3196464,55e876f25e4d360012cc283d,64d2fd46c836a06233681665,64dc7f654fa711d3e01f21a9,,,,,,,decisionTrl,resources/DR.BMP,resources/DY.BMP,Door4,0.280555556,-0.025,1,0,0,1.1543,optionRight,80,280,1,4,0,4,0,1,,,,,,,,,,,,,,,,,,,,,,,,,,,,,,,,,,,,,,,
,,,,,,,,2023-08-16_08h49.10.115,HF_wild_card,2022.2.4,Win32,116.3196464,55e876f25e4d360012cc283d,64d2fd46c836a06233681665,64dc7f654fa711d3e01f21a9,,,,,,,sngl,resources/DB.BMP,resources/Empty.png,Door2,-0.223148148,-0.035185185,1,0,0,1.0213,optionLeft,40,320,1,5,0,5,0,1,,,,,,,,,,,,,,,,,,,,,,,,,,,,,,,,,,,,,,,
,,,,,,,,2023-08-16_08h49.10.115,HF_wild_card,2022.2.4,Win32,116.3196464,55e876f25e4d360012cc283d,64d2fd46c836a06233681665,64dc7f654fa711d3e01f21a9,,,,,,,decisionTrl,resources/DP.BMP,resources/DBN.BMP,WildCard_NonEx,-0.258333333,-0.052777778,1,0,0,0.8961,optionLeft,45,365,1,6,0,6,0,1,,,,,,,,,,,,,,,,,,,,,,,,,,,,,,,,,,,,,,,
,,,,,,,,2023-08-16_08h49.10.115,HF_wild_card,2022.2.4,Win32,116.3196464,55e876f25e4d360012cc283d,64d2fd46c836a06233681665,64dc7f654fa711d3e01f21a9,,,,,,,decisionTrl,resources/DR.BMP,resources/DY.BMP,Door4,0.25,-0.055555556,1,0,0,2.0299,optionRight,80,445,1,7,0,7,0,1,,,,,,,,,,,,,,,,,,,,,,,,,,,,,,,,,,,,,,,
,,,,,,,,2023-08-16_08h49.10.115,HF_wild_card,2022.2.4,Win32,116.3196464,55e876f25e4d360012cc283d,64d2fd46c836a06233681665,64dc7f654fa711d3e01f21a9,,,,,,,ctch,resources/DR.BMP,resources/DB.BMP,Door2,0.240740741,-0.015740741,1,0,0,1.3793,optionRight,20,465,1,8,0,8,0,1,,,,,,,,,,,,,,,,,,,,,,,,,,,,,,,,,,,,,,,
,,,,,,,,2023-08-16_08h49.10.115,HF_wild_card,2022.2.4,Win32,116.3196464,55e876f25e4d360012cc283d,64d2fd46c836a06233681665,64dc7f654fa711d3e01f21a9,,,,,,,ctch,resources/DBN.BMP,resources/DY.BMP,Door4,0.233333333,-0.032407407,1,0,0,1.163,optionRight,80,545,1,9,0,9,0,1,,,,,,,,,,,,,,,,,,,,,,,,,,,,,,,,,,,,,,,
,,,,,,,,2023-08-16_08h49.10.115,HF_wild_card,2022.2.4,Win32,116.3196464,55e876f25e4d360012cc283d,64d2fd46c836a06233681665,64dc7f654fa711d3e01f21a9,,,,,,,sngl,resources/DR.BMP,resources/Empty.png,Door3,-0.216666667,-0.025,1,0,0,0.9536,optionLeft,70,615,1,10,0,10,0,1,,,,,,,,,,,,,,,,,,,,,,,,,,,,,,,,,,,,,,,
,,,,,,,,2023-08-16_08h49.10.115,HF_wild_card,2022.2.4,Win32,116.3196464,55e876f25e4d360012cc283d,64d2fd46c836a06233681665,64dc7f654fa711d3e01f21a9,,,,,,,decisionTrl,resources/DB.BMP,resources/DP.BMP,WildCard_NonEx,0.310185185,-0.014814815,1,0,0,1.5876,optionRight,55,670,1,11,0,11,0,1,,,,,,,,,,,,,,,,,,,,,,,,,,,,,,,,,,,,,,,
,,,,,,,,2023-08-16_08h49.10.115,HF_wild_card,2022.2.4,Win32,116.3196464,55e876f25e4d360012cc283d,64d2fd46c836a06233681665,64dc7f654fa711d3e01f21a9,,,,,,,sngl,resources/Empty.png,resources/DY.BMP,Door4,0.312962963,-0.012037037,1,0,0,0.8297,optionRight,60,730,1,12,0,12,0,1,,,,,,,,,,,,,,,,,,,,,,,,,,,,,,,,,,,,,,,
,,,,,,,,2023-08-16_08h49.10.115,HF_wild_card,2022.2.4,Win32,116.3196464,55e876f25e4d360012cc283d,64d2fd46c836a06233681665,64dc7f654fa711d3e01f21a9,,,,,,,decisionTrl,resources/DB.BMP,resources/DBN.BMP,Door2,-0.228703704,-0.000925926,1,0,0,1.1956,optionLeft,40,770,1,13,0,13,0,1,,,,,,,,,,,,,,,,,,,,,,,,,,,,,,,,,,,,,,,
,,,,,,,,2023-08-16_08h49.10.115,HF_wild_card,2022.2.4,Win32,116.3196464,55e876f25e4d360012cc283d,64d2fd46c836a06233681665,64dc7f654fa711d3e01f21a9,,,,,,,decisionTrl,resources/DBN.BMP,resources/DB.BMP,Door1,-0.242592593,-0.006481481,1,0,0,1.0443,optionLeft,30,800,1,14,0,14,0,1,,,,,,,,,,,,,,,,,,,,,,,,,,,,,,,,,,,,,,,
,,,,,,,,2023-08-16_08h49.10.115,HF_wild_card,2022.2.4,Win32,116.3196464,55e876f25e4d360012cc283d,64d2fd46c836a06233681665,64dc7f654fa711d3e01f21a9,,,,,,,decisionTrl,resources/DY.BMP,resources/DR.BMP,Door4,-0.259259259,-0.006481481,1,0,0,0.9615,optionLeft,60,860,1,15,0,15,0,1,,,,,,,,,,,,,,,,,,,,,,,,,,,,,,,,,,,,,,,
,,,,,,,,2023-08-16_08h49.10.115,HF_wild_card,2022.2.4,Win32,116.3196464,55e876f25e4d360012cc283d,64d2fd46c836a06233681665,64dc7f654fa711d3e01f21a9,,,,,,,decisionTrl,resources/DBN.BMP,resources/DB.BMP,Door2,0.360185185,-0.014814815,1,0,0,1.3869,optionRight,20,880,1,16,0,16,0,1,,,,,,,,,,,,,,,,,,,,,,,,,,,,,,,,,,,,,,,
,,,,,,,,2023-08-16_08h49.10.115,HF_wild_card,2022.2.4,Win32,116.3196464,55e876f25e4d360012cc283d,64d2fd46c836a06233681665,64dc7f654fa711d3e01f21a9,,,,,,,sngl,resources/Empty.png,resources/DBN.BMP,Door1,0.271296296,0.013888889,1,0,0,0.7964,optionRight,30,910,1,17,0,17,0,1,,,,,,,,,,,,,,,,,,,,,,,,,,,,,,,,,,,,,,,
,,,,,,,,2023-08-16_08h49.10.115,HF_wild_card,2022.2.4,Win32,116.3196464,55e876f25e4d360012cc283d,64d2fd46c836a06233681665,64dc7f654fa711d3e01f21a9,,,,,,,decisionTrl,resources/DBN.BMP,resources/DP.BMP,WildCard_NonEx,0.280555556,0.000925926,1,0,0,1.0377,optionRight,55,965,1,18,0,18,0,1,,,,,,,,,,,,,,,,,,,,,,,,,,,,,,,,,,,,,,,
,,,,,,,,2023-08-16_08h49.10.115,HF_wild_card,2022.2.4,Win32,116.3196464,55e876f25e4d360012cc283d,64d2fd46c836a06233681665,64dc7f654fa711d3e01f21a9,,,,,,,decisionTrl,resources/DR.BMP,resources/DY.BMP,Door4,0.272222222,0.001851852,1,0,0,1.1792,optionRight,60,1025,1,19,0,19,0,1,,,,,,,,,,,,,,,,,,,,,,,,,,,,,,,,,,,,,,,
,,,,,,,,2023-08-16_08h49.10.115,HF_wild_card,2022.2.4,Win32,116.3196464,55e876f25e4d360012cc283d,64d2fd46c836a06233681665,64dc7f654fa711d3e01f21a9,,,,,,,decisionTrl,resources/DP.BMP,resources/DY.BMP,Door4,0.257407407,0.011111111,1,0,0,1.1212,optionRight,80,1105,1,20,0,20,0,1,,,,,,,,,,,,,,,,,,,,,,,,,,,,,,,,,,,,,,,
,,,,,,,,2023-08-16_08h49.10.115,HF_wild_card,2022.2.4,Win32,116.3196464,55e876f25e4d360012cc283d,64d2fd46c836a06233681665,64dc7f654fa711d3e01f21a9,,,,,,,sngl,resources/Empty.png,resources/DB.BMP,Door2,0.125,0.005555556,1,0,0,1.0706,optionRight,20,1125,1,21,0,21,0,1,,,,,,,,,,,,,,,,,,,,,,,,,,,,,,,,,,,,,,,
,,,,,,,,2023-08-16_08h49.10.115,HF_wild_card,2022.2.4,Win32,116.3196464,55e876f25e4d360012cc283d,64d2fd46c836a06233681665,64dc7f654fa711d3e01f21a9,,,,,,,decisionTrl,resources/DBN.BMP,resources/DB.BMP,Door1,-0.386111111,0.005555556,1,0,0,1.0879,optionLeft,30,1155,1,22,0,22,0,1,,,,,,,,,,,,,,,,,,,,,,,,,,,,,,,,,,,,,,,
,,,,,,,,2023-08-16_08h49.10.115,HF_wild_card,2022.2.4,Win32,116.3196464,55e876f25e4d360012cc283d,64d2fd46c836a06233681665,64dc7f654fa711d3e01f21a9,,,,,,,sngl,resources/DY.BMP,resources/Empty.png,Door4,-0.271296296,0.001851852,1,0,0,0.863,optionLeft,80,1235,1,23,0,23,0,1,,,,,,,,,,,,,,,,,,,,,,,,,,,,,,,,,,,,,,,
,,,,,,,,2023-08-16_08h49.10.115,HF_wild_card,2022.2.4,Win32,116.3196464,55e876f25e4d360012cc283d,64d2fd46c836a06233681665,64dc7f654fa711d3e01f21a9,,,,,,,decisionTrl,resources/DB.BMP,resources/DBN.BMP,Door2,-0.324074074,-0.025,1,0,0,0.9963,optionLeft,40,1275,1,24,0,24,0,1,,,,,,,,,,,,,,,,,,,,,,,,,,,,,,,,,,,,,,,
,,,,,,,,2023-08-16_08h49.10.115,HF_wild_card,2022.2.4,Win32,116.3196464,55e876f25e4d360012cc283d,64d2fd46c836a06233681665,64dc7f654fa711d3e01f21a9,,,,,,,sngl,resources/Empty.png,resources/DP.BMP,WildCard_NonEx,0.214814815,0.012962963,1,0,0,0.7046,optionRight,45,1320,1,25,0,25,0,1,,,,,,,,,,,,,,,,,,,,,,,,,,,,,,,,,,,,,,,
,,,,,,,,2023-08-16_08h49.10.115,HF_wild_card,2022.2.4,Win32,116.3196464,55e876f25e4d360012cc283d,64d2fd46c836a06233681665,64dc7f654fa711d3e01f21a9,,,,,,,ctch,resources/DY.BMP,resources/DBN.BMP,Door4,-0.285185185,0.018518519,1,0,0,1.0211,optionLeft,60,1380,1,26,0,26,0,1,,,,,,,,,,,,,,,,,,,,,,,,,,,,,,,,,,,,,,,
,,,,,,,,2023-08-16_08h49.10.115,HF_wild_card,2022.2.4,Win32,116.3196464,55e876f25e4d360012cc283d,64d2fd46c836a06233681665,64dc7f654fa711d3e01f21a9,,,,,,,ctch,resources/DBN.BMP,resources/DY.BMP,Door4,0.250925926,0.028703704,1,0,0,1.5299,optionRight,80,1460,1,27,0,27,0,1,,,,,,,,,,,,,,,,,,,,,,,,,,,,,,,,,,,,,,,
,,,,,,,,2023-08-16_08h49.10.115,HF_wild_card,2022.2.4,Win32,116.3196464,55e876f25e4d360012cc283d,64d2fd46c836a06233681665,64dc7f654fa711d3e01f21a9,,,,,,,sngl,resources/Empty.png,resources/DR.BMP,Door3,0.206481481,0.00462963,1,0,0,0.7799,optionRight,70,1530,1,28,0,28,0,1,,,,,,,,,,,,,,,,,,,,,,,,,,,,,,,,,,,,,,,
,,,,,,,,2023-08-16_08h49.10.115,HF_wild_card,2022.2.4,Win32,116.3196464,55e876f25e4d360012cc283d,64d2fd46c836a06233681665,64dc7f654fa711d3e01f21a9,,,,,,,decisionTrl,resources/DR.BMP,resources/DY.BMP,Door3,-0.266666667,0.011111111,1,0,0,0.93,optionLeft,70,1600,1,29,0,29,0,1,,,,,,,,,,,,,,,,,,,,,,,,,,,,,,,,,,,,,,,
,,,,,,,,2023-08-16_08h49.10.115,HF_wild_card,2022.2.4,Win32,116.3196464,55e876f25e4d360012cc283d,64d2fd46c836a06233681665,64dc7f654fa711d3e01f21a9,,,,,,,decisionTrl,resources/DY.BMP,resources/DR.BMP,Door4,-0.234259259,0.011111111,1,0,0,1.0214,optionLeft,60,1660,1,30,0,30,0,1,,,,,,,,,,,,,,,,,,,,,,,,,,,,,,,,,,,,,,,
,,,,,,,,2023-08-16_08h49.10.115,HF_wild_card,2022.2.4,Win32,116.3196464,55e876f25e4d360012cc283d,64d2fd46c836a06233681665,64dc7f654fa711d3e01f21a9,,,,,,,ctch,resources/DR.BMP,resources/DB.BMP,Door3,-0.242592593,0.008333333,1,0,0,0.9546,optionLeft,70,1730,1,31,0,31,0,1,,,,,,,,,,,,,,,,,,,,,,,,,,,,,,,,,,,,,,,
,,,,,,,,2023-08-16_08h49.10.115,HF_wild_card,2022.2.4,Win32,116.3196464,55e876f25e4d360012cc283d,64d2fd46c836a06233681665,64dc7f654fa711d3e01f21a9,,,,,,,decisionTrl,resources/DY.BMP,resources/DP.BMP,Door4,-0.178703704,0.011111111,1,0,0,1.8964,optionLeft,80,1810,1,32,0,32,0,1,,,,,,,,,,,,,,,,,,,,,,,,,,,,,,,,,,,,,,,
,,,,,,,,2023-08-16_08h49.10.115,HF_wild_card,2022.2.4,Win32,116.3196464,55e876f25e4d360012cc283d,64d2fd46c836a06233681665,64dc7f654fa711d3e01f21a9,,,,,,,sngl,resources/Empty.png,resources/DP.BMP,WildCard_NonEx,0.148148148,0.00462963,1,0,0,0.7709,optionRight,55,1865,1,33,0,33,0,1,,,,,,,,,,,,,,,,,,,,,,,,,,,,,,,,,,,,,,,
,,,,,,,,2023-08-16_08h49.10.115,HF_wild_card,2022.2.4,Win32,116.3196464,55e876f25e4d360012cc283d,64d2fd46c836a06233681665,64dc7f654fa711d3e01f21a9,,,,,,,decisionTrl,resources/DB.BMP,resources/DBN.BMP,Door2,-0.276851852,0.006481481,1,0,0,1.1878,optionLeft,40,1905,1,34,0,34,0,1,,,,,,,,,,,,,,,,,,,,,,,,,,,,,,,,,,,,,,,
,,,,,,,,2023-08-16_08h49.10.115,HF_wild_card,2022.2.4,Win32,116.3196464,55e876f25e4d360012cc283d,64d2fd46c836a06233681665,64dc7f654fa711d3e01f21a9,,,,,,,decisionTrl,resources/DP.BMP,resources/DR.BMP,Door3,0.215740741,-0.007407407,1,0,0,0.954,optionRight,70,1975,1,35,0,35,0,1,,,,,,,,,,,,,,,,,,,,,,,,,,,,,,,,,,,,,,,
,,,,,,,,2023-08-16_08h49.10.115,HF_wild_card,2022.2.4,Win32,116.3196464,55e876f25e4d360012cc283d,64d2fd46c836a06233681665,64dc7f654fa711d3e01f21a9,,,,,,,decisionTrl,resources/DP.BMP,resources/DB.BMP,WildCard_NonEx,-0.242592593,0.003703704,1,0,0,0.9213,optionLeft,55,2030,1,36,0,36,0,1,,,,,,,,,,,,,,,,,,,,,,,,,,,,,,,,,,,,,,,
,,,,,,,,2023-08-16_08h49.10.115,HF_wild_card,2022.2.4,Win32,116.3196464,55e876f25e4d360012cc283d,64d2fd46c836a06233681665,64dc7f654fa711d3e01f21a9,,,,,,,decisionTrl,resources/DY.BMP,resources/DR.BMP,Door3,0.17962963,-0.002777778,1,0,0,0.7124,optionRight,70,2100,1,37,0,37,0,1,,,,,,,,,,,,,,,,,,,,,,,,,,,,,,,,,,,,,,,
,,,,,,,,2023-08-16_08h49.10.115,HF_wild_card,2022.2.4,Win32,116.3196464,55e876f25e4d360012cc283d,64d2fd46c836a06233681665,64dc7f654fa711d3e01f21a9,,,,,,,decisionTrl,resources/DBN.BMP,resources/DB.BMP,Door2,0.147222222,-0.005555556,1,0,0,1.1124,optionRight,20,2120,1,38,0,38,0,1,,,,,,,,,,,,,,,,,,,,,,,,,,,,,,,,,,,,,,,
,,,,,,,,2023-08-16_08h49.10.115,HF_wild_card,2022.2.4,Win32,116.3196464,55e876f25e4d360012cc283d,64d2fd46c836a06233681665,64dc7f654fa711d3e01f21a9,,,,,,,ctch,resources/DB.BMP,resources/DR.BMP,Door3,0.215740741,0.010185185,1,0,0,0.9881,optionRight,70,2190,1,39,0,39,0,1,,,,,,,,,,,,,,,,,,,,,,,,,,,,,,,,,,,,,,,
,,,,,,,,2023-08-16_08h49.10.115,HF_wild_card,2022.2.4,Win32,116.3196464,55e876f25e4d360012cc283d,64d2fd46c836a06233681665,64dc7f654fa711d3e01f21a9,,,,,,,decisionTrl,resources/DY.BMP,resources/DR.BMP,Door4,-0.282407407,0.005555556,1,0,0,0.7633,optionLeft,60,2250,1,40,0,40,0,1,,,,,,,,,,,,,,,,,,,,,,,,,,,,,,,,,,,,,,,
,,,,,,,,2023-08-16_08h49.10.115,HF_wild_card,2022.2.4,Win32,116.3196464,55e876f25e4d360012cc283d,64d2fd46c836a06233681665,64dc7f654fa711d3e01f21a9,,,,,,,ctch,resources/DB.BMP,resources/DR.BMP,Door3,0.275,-0.003703704,1,0,0,0.6874,optionRight,70,2320,1,41,0,41,0,1,,,,,,,,,,,,,,,,,,,,,,,,,,,,,,,,,,,,,,,
,,,,,,,,2023-08-16_08h49.10.115,HF_wild_card,2022.2.4,Win32,116.3196464,55e876f25e4d360012cc283d,64d2fd46c836a06233681665,64dc7f654fa711d3e01f21a9,,,,,,,decisionTrl,resources/DR.BMP,resources/DP.BMP,Door3,-0.225925926,0,1,0,0,1.1485,optionLeft,70,2390,1,42,0,42,0,1,,,,,,,,,,,,,,,,,,,,,,,,,,,,,,,,,,,,,,,
,,,,,,,,2023-08-16_08h49.10.115,HF_wild_card,2022.2.4,Win32,116.3196464,55e876f25e4d360012cc283d,64d2fd46c836a06233681665,64dc7f654fa711d3e01f21a9,,,,,,,sngl,resources/DBN.BMP,resources/Empty.png,Door1,-0.171296296,-0.002777778,1,0,0,0.9936,optionLeft,30,2420,1,43,0,43,0,1,,,,,,,,,,,,,,,,,,,,,,,,,,,,,,,,,,,,,,,
,,,,,,,,2023-08-16_08h49.10.115,HF_wild_card,2022.2.4,Win32,116.3196464,55e876f25e4d360012cc283d,64d2fd46c836a06233681665,64dc7f654fa711d3e01f21a9,,,,,,,,,,,,,,,,,,,,,,,,,,0,0,0,0,1,,,,,,,,,,,,,,,,,,,,,,,,,,,,,,,,,,
,,,,,,,,2023-08-16_08h49.10.115,HF_wild_card,2022.2.4,Win32,116.3196464,55e876f25e4d360012cc283d,64d2fd46c836a06233681665,64dc7f654fa711d3e01f21a9,,,,,,,decisionTrl,resources/DBN.BMP,resources/DP.BMP,WildCard_NonEx,0.180555556,-0.013888889,1,0,0,0.9285,optionRight,55,2475,2,0,0,0,0,1,,,,,,,,,,,,,,,,,,,,,,,,,,,,,,,,,,,,,,,
,,,,,,,,2023-08-16_08h49.10.115,HF_wild_card,2022.2.4,Win32,116.3196464,55e876f25e4d360012cc283d,64d2fd46c836a06233681665,64dc7f654fa711d3e01f21a9,,,,,,,sngl,resources/Empty.png,resources/DR.BMP,Door3,0.20462963,0.008333333,1,0,0,0.5962,optionRight,70,2545,2,1,0,1,0,1,,,,,,,,,,,,,,,,,,,,,,,,,,,,,,,,,,,,,,,
,,,,,,,,2023-08-16_08h49.10.115,HF_wild_card,2022.2.4,Win32,116.3196464,55e876f25e4d360012cc283d,64d2fd46c836a06233681665,64dc7f654fa711d3e01f21a9,,,,,,,decisionTrl,resources/DY.BMP,resources/DR.BMP,Door4,-0.184259259,0.021296296,1,0,0,1.2599,optionLeft,80,2625,2,2,0,2,0,1,,,,,,,,,,,,,,,,,,,,,,,,,,,,,,,,,,,,,,,
,,,,,,,,2023-08-16_08h49.10.115,HF_wild_card,2022.2.4,Win32,116.3196464,55e876f25e4d360012cc283d,64d2fd46c836a06233681665,64dc7f654fa711d3e01f21a9,,,,,,,decisionTrl,resources/DR.BMP,resources/DY.BMP,Door4,0.162962963,-0.002777778,1,0,0,0.8104,optionRight,60,2685,2,3,0,3,0,1,,,,,,,,,,,,,,,,,,,,,,,,,,,,,,,,,,,,,,,
,,,,,,,,2023-08-16_08h49.10.115,HF_wild_card,2022.2.4,Win32,116.3196464,55e876f25e4d360012cc283d,64d2fd46c836a06233681665,64dc7f654fa711d3e01f21a9,,,,,,,decisionTrl,resources/DR.BMP,resources/DY.BMP,Door3,-0.199074074,0.003703704,1,0,0,0.9295,optionLeft,70,2755,2,4,0,4,0,1,,,,,,,,,,,,,,,,,,,,,,,,,,,,,,,,,,,,,,,
,,,,,,,,2023-08-16_08h49.10.115,HF_wild_card,2022.2.4,Win32,116.3196464,55e876f25e4d360012cc283d,64d2fd46c836a06233681665,64dc7f654fa711d3e01f21a9,,,,,,,ctch,resources/DB.BMP,resources/DR.BMP,Door3,0.275,-0.013888889,1,0,0,0.746,optionRight,70,2825,2,5,0,5,0,1,,,,,,,,,,,,,,,,,,,,,,,,,,,,,,,,,,,,,,,
,,,,,,,,2023-08-16_08h49.10.115,HF_wild_card,2022.2.4,Win32,116.3196464,55e876f25e4d360012cc283d,64d2fd46c836a06233681665,64dc7f654fa711d3e01f21a9,,,,,,,decisionTrl,resources/DB.BMP,resources/DBN.BMP,Door2,-0.175925926,0.001851852,1,0,0,1.1131,optionLeft,20,2845,2,6,0,6,0,1,,,,,,,,,,,,,,,,,,,,,,,,,,,,,,,,,,,,,,,
,,,,,,,,2023-08-16_08h49.10.115,HF_wild_card,2022.2.4,Win32,116.3196464,55e876f25e4d360012cc283d,64d2fd46c836a06233681665,64dc7f654fa711d3e01f21a9,,,,,,,decisionTrl,resources/DB.BMP,resources/DBN.BMP,Door1,0.325,0.001851852,1,0,0,0.6468,optionRight,30,2875,2,7,0,7,0,1,,,,,,,,,,,,,,,,,,,,,,,,,,,,,,,,,,,,,,,
,,,,,,,,2023-08-16_08h49.10.115,HF_wild_card,2022.2.4,Win32,116.3196464,55e876f25e4d360012cc283d,64d2fd46c836a06233681665,64dc7f654fa711d3e01f21a9,,,,,,,sngl,resources/DP.BMP,resources/Empty.png,WildCard_NonEx,-0.197222222,0.008333333,1,0,0,0.6876,optionLeft,45,2920,2,8,0,8,0,1,,,,,,,,,,,,,,,,,,,,,,,,,,,,,,,,,,,,,,,
,,,,,,,,2023-08-16_08h49.10.115,HF_wild_card,2022.2.4,Win32,116.3196464,55e876f25e4d360012cc283d,64d2fd46c836a06233681665,64dc7f654fa711d3e01f21a9,,,,,,,decisionTrl,resources/DB.BMP,resources/DBN.BMP,Door1,0.199074074,0.02037037,1,0,0,1.1289,optionRight,30,2950,2,9,0,9,0,1,,,,,,,,,,,,,,,,,,,,,,,,,,,,,,,,,,,,,,,
,,,,,,,,2023-08-16_08h49.10.115,HF_wild_card,2022.2.4,Win32,116.3196464,55e876f25e4d360012cc283d,64d2fd46c836a06233681665,64dc7f654fa711d3e01f21a9,,,,,,,sngl,resources/DP.BMP,resources/Empty.png,WildCard_NonEx,-0.243518519,0.010185185,1,0,0,0.8635,optionLeft,55,3005,2,10,0,10,0,1,,,,,,,,,,,,,,,,,,,,,,,,,,,,,,,,,,,,,,,
,,,,,,,,2023-08-16_08h49.10.115,HF_wild_card,2022.2.4,Win32,116.3196464,55e876f25e4d360012cc283d,64d2fd46c836a06233681665,64dc7f654fa711d3e01f21a9,,,,,,,decisionTrl,resources/DB.BMP,resources/DBN.BMP,Door1,0.197222222,0,1,0,0,0.9716,optionRight,30,3035,2,11,0,11,0,1,,,,,,,,,,,,,,,,,,,,,,,,,,,,,,,,,,,,,,,
,,,,,,,,2023-08-16_08h49.10.115,HF_wild_card,2022.2.4,Win32,116.3196464,55e876f25e4d360012cc283d,64d2fd46c836a06233681665,64dc7f654fa711d3e01f21a9,,,,,,,sngl,resources/Empty.png,resources/DB.BMP,Door2,0.213888889,0.006481481,1,0,0,0.6955,optionRight,40,3075,2,12,0,12,0,1,,,,,,,,,,,,,,,,,,,,,,,,,,,,,,,,,,,,,,,
,,,,,,,,2023-08-16_08h49.10.115,HF_wild_card,2022.2.4,Win32,116.3196464,55e876f25e4d360012cc283d,64d2fd46c836a06233681665,64dc7f654fa711d3e01f21a9,,,,,,,sngl,resources/Empty.png,resources/DBN.BMP,Door1,0.15,0.013888889,1,0,0,1.3212,optionRight,30,3105,2,13,0,13,0,1,,,,,,,,,,,,,,,,,,,,,,,,,,,,,,,,,,,,,,,
,,,,,,,,2023-08-16_08h49.10.115,HF_wild_card,2022.2.4,Win32,116.3196464,55e876f25e4d360012cc283d,64d2fd46c836a06233681665,64dc7f654fa711d3e01f21a9,,,,,,,sngl,resources/DR.BMP,resources/Empty.png,Door3,-0.187037037,0.023148148,1,0,0,0.5964,optionLeft,70,3175,2,14,0,14,0,1,,,,,,,,,,,,,,,,,,,,,,,,,,,,,,,,,,,,,,,
,,,,,,,,2023-08-16_08h49.10.115,HF_wild_card,2022.2.4,Win32,116.3196464,55e876f25e4d360012cc283d,64d2fd46c836a06233681665,64dc7f654fa711d3e01f21a9,,,,,,,decisionTrl,resources/DB.BMP,resources/DP.BMP,WildCard_NonEx,0.185185185,0.019444444,1,0,0,0.8957,optionRight,45,3220,2,15,0,15,0,1,,,,,,,,,,,,,,,,,,,,,,,,,,,,,,,,,,,,,,,
,,,,,,,,2023-08-16_08h49.10.115,HF_wild_card,2022.2.4,Win32,116.3196464,55e876f25e4d360012cc283d,64d2fd46c836a06233681665,64dc7f654fa711d3e01f21a9,,,,,,,decisionTrl,resources/DP.BMP,resources/DBN.BMP,WildCard_NonEx,-0.171296296,0.002777778,1,0,0,1.0547,optionLeft,45,3265,2,16,0,16,0,1,,,,,,,,,,,,,,,,,,,,,,,,,,,,,,,,,,,,,,,
,,,,,,,,2023-08-16_08h49.10.115,HF_wild_card,2022.2.4,Win32,116.3196464,55e876f25e4d360012cc283d,64d2fd46c836a06233681665,64dc7f654fa711d3e01f21a9,,,,,,,decisionTrl,resources/DBN.BMP,resources/DB.BMP,Door1,-0.161111111,-0.012037037,1,0,0,1.0715,optionLeft,30,3295,2,17,0,17,0,1,,,,,,,,,,,,,,,,,,,,,,,,,,,,,,,,,,,,,,,
,,,,,,,,2023-08-16_08h49.10.115,HF_wild_card,2022.2.4,Win32,116.3196464,55e876f25e4d360012cc283d,64d2fd46c836a06233681665,64dc7f654fa711d3e01f21a9,,,,,,,decisionTrl,resources/DY.BMP,resources/DR.BMP,Door4,-0.168518519,-0.010185185,1,0,0,1.1966,optionLeft,80,3375,2,18,0,18,0,1,,,,,,,,,,,,,,,,,,,,,,,,,,,,,,,,,,,,,,,
,,,,,,,,2023-08-16_08h49.10.115,HF_wild_card,2022.2.4,Win32,116.3196464,55e876f25e4d360012cc283d,64d2fd46c836a06233681665,64dc7f654fa711d3e01f21a9,,,,,,,ctch,resources/DR.BMP,resources/DB.BMP,Door3,-0.217592593,-0.008333333,1,0,0,0.8049,optionLeft,70,3445,2,19,0,19,0,1,,,,,,,,,,,,,,,,,,,,,,,,,,,,,,,,,,,,,,,
,,,,,,,,2023-08-16_08h49.10.115,HF_wild_card,2022.2.4,Win32,116.3196464,55e876f25e4d360012cc283d,64d2fd46c836a06233681665,64dc7f654fa711d3e01f21a9,,,,,,,decisionTrl,resources/DP.BMP,resources/DB.BMP,WildCard_NonEx,-0.192592593,0.002777778,1,0,0,1.3296,optionLeft,55,3500,2,20,0,20,0,1,,,,,,,,,,,,,,,,,,,,,,,,,,,,,,,,,,,,,,,
,,,,,,,,2023-08-16_08h49.10.115,HF_wild_card,2022.2.4,Win32,116.3196464,55e876f25e4d360012cc283d,64d2fd46c836a06233681665,64dc7f654fa711d3e01f21a9,,,,,,,decisionTrl,resources/DP.BMP,resources/DR.BMP,Door3,0.160185185,-0.016666667,1,0,0,1.2055,optionRight,70,3570,2,21,0,21,0,1,,,,,,,,,,,,,,,,,,,,,,,,,,,,,,,,,,,,,,,
,,,,,,,,2023-08-16_08h49.10.115,HF_wild_card,2022.2.4,Win32,116.3196464,55e876f25e4d360012cc283d,64d2fd46c836a06233681665,64dc7f654fa711d3e01f21a9,,,,,,,ctch,resources/DBN.BMP,resources/DY.BMP,Door4,0.186111111,-0.010185185,1,0,0,0.8713,optionRight,60,3630,2,22,0,22,0,1,,,,,,,,,,,,,,,,,,,,,,,,,,,,,,,,,,,,,,,
,,,,,,,,2023-08-16_08h49.10.115,HF_wild_card,2022.2.4,Win32,116.3196464,55e876f25e4d360012cc283d,64d2fd46c836a06233681665,64dc7f654fa711d3e01f21a9,,,,,,,sngl,resources/DB.BMP,resources/Empty.png,Door2,-0.181481481,-0.001851852,1,0,0,0.7623,optionLeft,20,3650,2,23,0,23,0,1,,,,,,,,,,,,,,,,,,,,,,,,,,,,,,,,,,,,,,,
,,,,,,,,2023-08-16_08h49.10.115,HF_wild_card,2022.2.4,Win32,116.3196464,55e876f25e4d360012cc283d,64d2fd46c836a06233681665,64dc7f654fa711d3e01f21a9,,,,,,,sngl,resources/Empty.png,resources/DP.BMP,WildCard_NonEx,0.141666667,0.014814815,1,0,0,0.7461,optionRight,45,3695,2,24,0,24,0,1,,,,,,,,,,,,,,,,,,,,,,,,,,,,,,,,,,,,,,,
,,,,,,,,2023-08-16_08h49.10.115,HF_wild_card,2022.2.4,Win32,116.3196464,55e876f25e4d360012cc283d,64d2fd46c836a06233681665,64dc7f654fa711d3e01f21a9,,,,,,,ctch,resources/DY.BMP,resources/DBN.BMP,Door4,-0.184259259,0.011111111,1,0,0,1.163,optionLeft,60,3755,2,25,0,25,0,1,,,,,,,,,,,,,,,,,,,,,,,,,,,,,,,,,,,,,,,
,,,,,,,,2023-08-16_08h49.10.115,HF_wild_card,2022.2.4,Win32,116.3196464,55e876f25e4d360012cc283d,64d2fd46c836a06233681665,64dc7f654fa711d3e01f21a9,,,,,,,decisionTrl,resources/DR.BMP,resources/DP.BMP,Door3,-0.238888889,0.011111111,1,0,0,1.0877,optionLeft,70,3825,2,26,0,26,0,1,,,,,,,,,,,,,,,,,,,,,,,,,,,,,,,,,,,,,,,
,,,,,,,,2023-08-16_08h49.10.115,HF_wild_card,2022.2.4,Win32,116.3196464,55e876f25e4d360012cc283d,64d2fd46c836a06233681665,64dc7f654fa711d3e01f21a9,,,,,,,decisionTrl,resources/DY.BMP,resources/DR.BMP,Door4,-0.131481481,0.00462963,1,0,0,2.4045,optionLeft,60,3885,2,27,0,27,0,1,,,,,,,,,,,,,,,,,,,,,,,,,,,,,,,,,,,,,,,
,,,,,,,,2023-08-16_08h49.10.115,HF_wild_card,2022.2.4,Win32,116.3196464,55e876f25e4d360012cc283d,64d2fd46c836a06233681665,64dc7f654fa711d3e01f21a9,,,,,,,ctch,resources/DR.BMP,resources/DB.BMP,Door3,-0.219444444,0.027777778,1,0,0,0.8798,optionLeft,70,3955,2,28,0,28,0,1,,,,,,,,,,,,,,,,,,,,,,,,,,,,,,,,,,,,,,,
,,,,,,,,2023-08-16_08h49.10.115,HF_wild_card,2022.2.4,Win32,116.3196464,55e876f25e4d360012cc283d,64d2fd46c836a06233681665,64dc7f654fa711d3e01f21a9,,,,,,,decisionTrl,resources/DR.BMP,resources/DY.BMP,Door3,-0.175925926,0.009259259,1,0,0,1.6049,optionLeft,70,4025,2,29,0,29,0,1,,,,,,,,,,,,,,,,,,,,,,,,,,,,,,,,,,,,,,,
,,,,,,,,2023-08-16_08h49.10.115,HF_wild_card,2022.2.4,Win32,116.3196464,55e876f25e4d360012cc283d,64d2fd46c836a06233681665,64dc7f654fa711d3e01f21a9,,,,,,,decisionTrl,resources/DBN.BMP,resources/DB.BMP,Door1,-0.158333333,0.005555556,1,0,0,1.0788,optionLeft,30,4055,2,30,0,30,0,1,,,,,,,,,,,,,,,,,,,,,,,,,,,,,,,,,,,,,,,
,,,,,,,,2023-08-16_08h49.10.115,HF_wild_card,2022.2.4,Win32,116.3196464,55e876f25e4d360012cc283d,64d2fd46c836a06233681665,64dc7f654fa711d3e01f21a9,,,,,,,ctch,resources/DY.BMP,resources/DBN.BMP,Door4,-0.180555556,0.025925926,1,0,0,0.9207,optionLeft,60,4115,2,31,0,31,0,1,,,,,,,,,,,,,,,,,,,,,,,,,,,,,,,,,,,,,,,
,,,,,,,,2023-08-16_08h49.10.115,HF_wild_card,2022.2.4,Win32,116.3196464,55e876f25e4d360012cc283d,64d2fd46c836a06233681665,64dc7f654fa711d3e01f21a9,,,,,,,decisionTrl,resources/DP.BMP,resources/DY.BMP,Door4,0.150925926,0.009259259,1,0,0,0.846,optionRight,60,4175,2,32,0,32,0,1,,,,,,,,,,,,,,,,,,,,,,,,,,,,,,,,,,,,,,,
,,,,,,,,2023-08-16_08h49.10.115,HF_wild_card,2022.2.4,Win32,116.3196464,55e876f25e4d360012cc283d,64d2fd46c836a06233681665,64dc7f654fa711d3e01f21a9,,,,,,,sngl,resources/Empty.png,resources/DP.BMP,WildCard_NonEx,0.109259259,-0.001851852,1,0,0,0.9217,optionRight,55,4230,2,33,0,33,0,1,,,,,,,,,,,,,,,,,,,,,,,,,,,,,,,,,,,,,,,
,,,,,,,,2023-08-16_08h49.10.115,HF_wild_card,2022.2.4,Win32,116.3196464,55e876f25e4d360012cc283d,64d2fd46c836a06233681665,64dc7f654fa711d3e01f21a9,,,,,,,sngl,resources/Empty.png,resources/DY.BMP,Door4,0.225925926,-0.002777778,1,0,0,0.5471,optionRight,80,4310,2,34,0,34,0,1,,,,,,,,,,,,,,,,,,,,,,,,,,,,,,,,,,,,,,,
,,,,,,,,2023-08-16_08h49.10.115,HF_wild_card,2022.2.4,Win32,116.3196464,55e876f25e4d360012cc283d,64d2fd46c836a06233681665,64dc7f654fa711d3e01f21a9,,,,,,,sngl,resources/DBN.BMP,resources/Empty.png,Door1,-0.15,0.017592593,1,0,0,0.6133,optionLeft,30,4340,2,35,0,35,0,1,,,,,,,,,,,,,,,,,,,,,,,,,,,,,,,,,,,,,,,
,,,,,,,,2023-08-16_08h49.10.115,HF_wild_card,2022.2.4,Win32,116.3196464,55e876f25e4d360012cc283d,64d2fd46c836a06233681665,64dc7f654fa711d3e01f21a9,,,,,,,decisionTrl,resources/DBN.BMP,resources/DB.BMP,Door1,-0.282407407,0.038888889,1,0,0,0.9706,optionLeft,30,4370,2,36,0,36,0,1,,,,,,,,,,,,,,,,,,,,,,,,,,,,,,,,,,,,,,,
,,,,,,,,2023-08-16_08h49.10.115,HF_wild_card,2022.2.4,Win32,116.3196464,55e876f25e4d360012cc283d,64d2fd46c836a06233681665,64dc7f654fa711d3e01f21a9,,,,,,,ctch,resources/DB.BMP,resources/DR.BMP,Door3,0.146296296,0.040740741,1,0,0,0.7464,optionRight,70,4440,2,37,0,37,0,1,,,,,,,,,,,,,,,,,,,,,,,,,,,,,,,,,,,,,,,
,,,,,,,,2023-08-16_08h49.10.115,HF_wild_card,2022.2.4,Win32,116.3196464,55e876f25e4d360012cc283d,64d2fd46c836a06233681665,64dc7f654fa711d3e01f21a9,,,,,,,decisionTrl,resources/DY.BMP,resources/DR.BMP,Door4,-0.269444444,0.013888889,1,0,0,1.2712,optionLeft,80,4520,2,38,0,38,0,1,,,,,,,,,,,,,,,,,,,,,,,,,,,,,,,,,,,,,,,
,,,,,,,,2023-08-16_08h49.10.115,HF_wild_card,2022.2.4,Win32,116.3196464,55e876f25e4d360012cc283d,64d2fd46c836a06233681665,64dc7f654fa711d3e01f21a9,,,,,,,decisionTrl,resources/DR.BMP,resources/DY.BMP,Door3,-0.164814815,-0.012962963,1,0,0,0.8457,optionLeft,70,4590,2,39,0,39,0,1,,,,,,,,,,,,,,,,,,,,,,,,,,,,,,,,,,,,,,,
,,,,,,,,2023-08-16_08h49.10.115,HF_wild_card,2022.2.4,Win32,116.3196464,55e876f25e4d360012cc283d,64d2fd46c836a06233681665,64dc7f654fa711d3e01f21a9,,,,,,,decisionTrl,resources/DY.BMP,resources/DP.BMP,Door4,-0.241666667,0.009259259,1,0,0,0.9131,optionLeft,80,4670,2,40,0,40,0,1,,,,,,,,,,,,,,,,,,,,,,,,,,,,,,,,,,,,,,,
,,,,,,,,2023-08-16_08h49.10.115,HF_wild_card,2022.2.4,Win32,116.3196464,55e876f25e4d360012cc283d,64d2fd46c836a06233681665,64dc7f654fa711d3e01f21a9,,,,,,,ctch,resources/DBN.BMP,resources/DY.BMP,Door4,0.280555556,0.017592593,1,0,0,0.6796,optionRight,60,4730,2,41,0,41,0,1,,,,,,,,,,,,,,,,,,,,,,,,,,,,,,,,,,,,,,,
,,,,,,,,2023-08-16_08h49.10.115,HF_wild_card,2022.2.4,Win32,116.3196464,55e876f25e4d360012cc283d,64d2fd46c836a06233681665,64dc7f654fa711d3e01f21a9,,,,,,,decisionTrl,resources/DBN.BMP,resources/DB.BMP,Door1,-0.251851852,-0.022222222,1,0,0,0.8383,optionLeft,30,4760,2,42,0,42,0,1,,,,,,,,,,,,,,,,,,,,,,,,,,,,,,,,,,,,,,,
,,,,,,,,2023-08-16_08h49.10.115,HF_wild_card,2022.2.4,Win32,116.3196464,55e876f25e4d360012cc283d,64d2fd46c836a06233681665,64dc7f654fa711d3e01f21a9,,,,,,,sngl,resources/DY.BMP,resources/Empty.png,Door4,-0.171296296,0.001851852,1,0,0,0.804,optionLeft,60,4820,2,43,0,43,0,1,,,,,,,,,,,,,,,,,,,,,,,,,,,,,,,,,,,,,,,
,,,,,,,,2023-08-16_08h49.10.115,HF_wild_card,2022.2.4,Win32,116.3196464,55e876f25e4d360012cc283d,64d2fd46c836a06233681665,64dc7f654fa711d3e01f21a9,,,,,,,,,,,,,,,,,,,,,,,,,,1,0,1,0,1,,,,,,,,,,,,,,,,,,,,,,,,,,,,,,,,,,
,,,,,,,,2023-08-16_08h49.10.115,HF_wild_card,2022.2.4,Win32,116.3196464,55e876f25e4d360012cc283d,64d2fd46c836a06233681665,64dc7f654fa711d3e01f21a9,,,,,,,sngl,resources/DBN.BMP,resources/Empty.png,Door1,-0.22037037,0.00462963,1,0,0,0.6621,optionLeft,30,4850,3,0,0,0,0,1,,,,,,,,,,,,,,,,,,,,,,,,,,,,,,,,,,,,,,,
,,,,,,,,2023-08-16_08h49.10.115,HF_wild_card,2022.2.4,Win32,116.3196464,55e876f25e4d360012cc283d,64d2fd46c836a06233681665,64dc7f654fa711d3e01f21a9,,,,,,,decisionTrl,resources/DP.BMP,resources/DY.BMP,Door4,0.265740741,-0.015740741,1,0,0,0.8716,optionRight,80,4930,3,1,0,1,0,1,,,,,,,,,,,,,,,,,,,,,,,,,,,,,,,,,,,,,,,
,,,,,,,,2023-08-16_08h49.10.115,HF_wild_card,2022.2.4,Win32,116.3196464,55e876f25e4d360012cc283d,64d2fd46c836a06233681665,64dc7f654fa711d3e01f21a9,,,,,,,sngl,resources/DB.BMP,resources/Empty.png,Door2,-0.150925926,-0.017592593,1,0,0,1.063,optionLeft,40,4970,3,2,0,2,0,1,,,,,,,,,,,,,,,,,,,,,,,,,,,,,,,,,,,,,,,
,,,,,,,,2023-08-16_08h49.10.115,HF_wild_card,2022.2.4,Win32,116.3196464,55e876f25e4d360012cc283d,64d2fd46c836a06233681665,64dc7f654fa711d3e01f21a9,,,,,,,decisionTrl,resources/DR.BMP,resources/DY.BMP,Door3,-0.216666667,-0.00462963,1,0,0,1.5376,optionLeft,70,5040,3,3,0,3,0,1,,,,,,,,,,,,,,,,,,,,,,,,,,,,,,,,,,,,,,,
,,,,,,,,2023-08-16_08h49.10.115,HF_wild_card,2022.2.4,Win32,116.3196464,55e876f25e4d360012cc283d,64d2fd46c836a06233681665,64dc7f654fa711d3e01f21a9,,,,,,,ctch,resources/DR.BMP,resources/DB.BMP,Door3,-0.218518519,0.005555556,1,0,0,0.6958,optionLeft,70,5110,3,4,0,4,0,1,,,,,,,,,,,,,,,,,,,,,,,,,,,,,,,,,,,,,,,
,,,,,,,,2023-08-16_08h49.10.115,HF_wild_card,2022.2.4,Win32,116.3196464,55e876f25e4d360012cc283d,64d2fd46c836a06233681665,64dc7f654fa711d3e01f21a9,,,,,,,ctch,resources/DBN.BMP,resources/DY.BMP,Door4,0.312037037,-0.008333333,1,0,0,0.8301,optionRight,60,5170,3,5,0,5,0,1,,,,,,,,,,,,,,,,,,,,,,,,,,,,,,,,,,,,,,,
,,,,,,,,2023-08-16_08h49.10.115,HF_wild_card,2022.2.4,Win32,116.3196464,55e876f25e4d360012cc283d,64d2fd46c836a06233681665,64dc7f654fa711d3e01f21a9,,,,,,,sngl,resources/DP.BMP,resources/Empty.png,WildCard_NonEx,-0.155555556,0.00462963,1,0,0,0.8466,optionLeft,45,5215,3,6,0,6,0,1,,,,,,,,,,,,,,,,,,,,,,,,,,,,,,,,,,,,,,,
,,,,,,,,2023-08-16_08h49.10.115,HF_wild_card,2022.2.4,Win32,116.3196464,55e876f25e4d360012cc283d,64d2fd46c836a06233681665,64dc7f654fa711d3e01f21a9,,,,,,,ctch,resources/DY.BMP,resources/DBN.BMP,Door4,-0.227777778,0.005555556,1,0,0,0.83,optionLeft,80,5295,3,7,0,7,0,1,,,,,,,,,,,,,,,,,,,,,,,,,,,,,,,,,,,,,,,
,,,,,,,,2023-08-16_08h49.10.115,HF_wild_card,2022.2.4,Win32,116.3196464,55e876f25e4d360012cc283d,64d2fd46c836a06233681665,64dc7f654fa711d3e01f21a9,,,,,,,decisionTrl,resources/DB.BMP,resources/DBN.BMP,Door1,0.210185185,-0.005555556,1,0,0,1.2131,optionRight,30,5325,3,8,0,8,0,1,,,,,,,,,,,,,,,,,,,,,,,,,,,,,,,,,,,,,,,
,,,,,,,,2023-08-16_08h49.10.115,HF_wild_card,2022.2.4,Win32,116.3196464,55e876f25e4d360012cc283d,64d2fd46c836a06233681665,64dc7f654fa711d3e01f21a9,,,,,,,decisionTrl,resources/DY.BMP,resources/DR.BMP,Door4,-0.358333333,0.040740741,1,0,0,1.6377,optionLeft,80,5405,3,9,0,9,0,1,,,,,,,,,,,,,,,,,,,,,,,,,,,,,,,,,,,,,,,
,,,,,,,,2023-08-16_08h49.10.115,HF_wild_card,2022.2.4,Win32,116.3196464,55e876f25e4d360012cc283d,64d2fd46c836a06233681665,64dc7f654fa711d3e01f21a9,,,,,,,sngl,resources/Empty.png,resources/DR.BMP,Door3,0.266666667,0.014814815,1,0,0,0.5461,optionRight,70,5475,3,10,0,10,0,1,,,,,,,,,,,,,,,,,,,,,,,,,,,,,,,,,,,,,,,
,,,,,,,,2023-08-16_08h49.10.115,HF_wild_card,2022.2.4,Win32,116.3196464,55e876f25e4d360012cc283d,64d2fd46c836a06233681665,64dc7f654fa711d3e01f21a9,,,,,,,decisionTrl,resources/DY.BMP,resources/DP.BMP,Door4,-0.208333333,0.015740741,1,0,0,0.6548,optionLeft,80,5555,3,11,0,11,0,1,,,,,,,,,,,,,,,,,,,,,,,,,,,,,,,,,,,,,,,
,,,,,,,,2023-08-16_08h49.10.115,HF_wild_card,2022.2.4,Win32,116.3196464,55e876f25e4d360012cc283d,64d2fd46c836a06233681665,64dc7f654fa711d3e01f21a9,,,,,,,decisionTrl,resources/DBN.BMP,resources/DB.BMP,Door1,-0.24537037,0.028703704,1,0,0,1.1797,optionLeft,30,5585,3,12,0,12,0,1,,,,,,,,,,,,,,,,,,,,,,,,,,,,,,,,,,,,,,,
,,,,,,,,2023-08-16_08h49.10.115,HF_wild_card,2022.2.4,Win32,116.3196464,55e876f25e4d360012cc283d,64d2fd46c836a06233681665,64dc7f654fa711d3e01f21a9,,,,,,,sngl,resources/Empty.png,resources/DB.BMP,Door2,0.139814815,-0.006481481,1,0,0,0.8297,optionRight,20,5605,3,13,0,13,0,1,,,,,,,,,,,,,,,,,,,,,,,,,,,,,,,,,,,,,,,
,,,,,,,,2023-08-16_08h49.10.115,HF_wild_card,2022.2.4,Win32,116.3196464,55e876f25e4d360012cc283d,64d2fd46c836a06233681665,64dc7f654fa711d3e01f21a9,,,,,,,decisionTrl,resources/DR.BMP,resources/DP.BMP,Door3,-0.216666667,0.012037037,1,0,0,0.8211,optionLeft,70,5675,3,14,0,14,0,1,,,,,,,,,,,,,,,,,,,,,,,,,,,,,,,,,,,,,,,
,,,,,,,,2023-08-16_08h49.10.115,HF_wild_card,2022.2.4,Win32,116.3196464,55e876f25e4d360012cc283d,64d2fd46c836a06233681665,64dc7f654fa711d3e01f21a9,,,,,,,sngl,resources/Empty.png,resources/DP.BMP,WildCard_NonEx,0.137962963,-0.00462963,1,0,0,0.7632,optionRight,45,5720,3,15,0,15,0,1,,,,,,,,,,,,,,,,,,,,,,,,,,,,,,,,,,,,,,,
,,,,,,,,2023-08-16_08h49.10.115,HF_wild_card,2022.2.4,Win32,116.3196464,55e876f25e4d360012cc283d,64d2fd46c836a06233681665,64dc7f654fa711d3e01f21a9,,,,,,,decisionTrl,resources/DR.BMP,resources/DY.BMP,Door3,-0.205555556,0.025925926,1,0,0,1.6109,optionLeft,70,5790,3,16,0,16,0,1,,,,,,,,,,,,,,,,,,,,,,,,,,,,,,,,,,,,,,,
,,,,,,,,2023-08-16_08h49.10.115,HF_wild_card,2022.2.4,Win32,116.3196464,55e876f25e4d360012cc283d,64d2fd46c836a06233681665,64dc7f654fa711d3e01f21a9,,,,,,,decisionTrl,resources/DR.BMP,resources/DY.BMP,Door3,-0.162037037,0.026851852,1,0,0,1.0215,optionLeft,70,5860,3,17,0,17,0,1,,,,,,,,,,,,,,,,,,,,,,,,,,,,,,,,,,,,,,,
,,,,,,,,2023-08-16_08h49.10.115,HF_wild_card,2022.2.4,Win32,116.3196464,55e876f25e4d360012cc283d,64d2fd46c836a06233681665,64dc7f654fa711d3e01f21a9,,,,,,,ctch,resources/DR.BMP,resources/DB.BMP,Door3,-0.301851852,0.031481481,1,0,0,0.7211,optionLeft,70,5930,3,18,0,18,0,1,,,,,,,,,,,,,,,,,,,,,,,,,,,,,,,,,,,,,,,
,,,,,,,,2023-08-16_08h49.10.115,HF_wild_card,2022.2.4,Win32,116.3196464,55e876f25e4d360012cc283d,64d2fd46c836a06233681665,64dc7f654fa711d3e01f21a9,,,,,,,decisionTrl,resources/DBN.BMP,resources/DP.BMP,Door1,-0.160185185,0.036111111,1,0,0,0.9456,optionLeft,30,5960,3,19,0,19,0,1,,,,,,,,,,,,,,,,,,,,,,,,,,,,,,,,,,,,,,,
,,,,,,,,2023-08-16_08h49.10.115,HF_wild_card,2022.2.4,Win32,116.3196464,55e876f25e4d360012cc283d,64d2fd46c836a06233681665,64dc7f654fa711d3e01f21a9,,,,,,,decisionTrl,resources/DY.BMP,resources/DR.BMP,Door4,-0.15462963,0.008333333,1,0,0,1.6627,optionLeft,80,6040,3,20,0,20,0,1,,,,,,,,,,,,,,,,,,,,,,,,,,,,,,,,,,,,,,,
,,,,,,,,2023-08-16_08h49.10.115,HF_wild_card,2022.2.4,Win32,116.3196464,55e876f25e4d360012cc283d,64d2fd46c836a06233681665,64dc7f654fa711d3e01f21a9,,,,,,,sngl,resources/Empty.png,resources/DBN.BMP,Door1,0.251851852,0.040740741,1,0,0,0.7546,optionRight,30,6070,3,21,0,21,0,1,,,,,,,,,,,,,,,,,,,,,,,,,,,,,,,,,,,,,,,
,,,,,,,,2023-08-16_08h49.10.115,HF_wild_card,2022.2.4,Win32,116.3196464,55e876f25e4d360012cc283d,64d2fd46c836a06233681665,64dc7f654fa711d3e01f21a9,,,,,,,decisionTrl,resources/DBN.BMP,resources/DB.BMP,Door1,-0.203703704,0.026851852,1,0,0,0.9132,optionLeft,30,6100,3,22,0,22,0,1,,,,,,,,,,,,,,,,,,,,,,,,,,,,,,,,,,,,,,,
,,,,,,,,2023-08-16_08h49.10.115,HF_wild_card,2022.2.4,Win32,116.3196464,55e876f25e4d360012cc283d,64d2fd46c836a06233681665,64dc7f654fa711d3e01f21a9,,,,,,,decisionTrl,resources/DY.BMP,resources/DR.BMP,Door4,-0.169444444,0.032407407,1,0,0,1.1216,optionLeft,60,6160,3,23,0,23,0,1,,,,,,,,,,,,,,,,,,,,,,,,,,,,,,,,,,,,,,,
,,,,,,,,2023-08-16_08h49.10.115,HF_wild_card,2022.2.4,Win32,116.3196464,55e876f25e4d360012cc283d,64d2fd46c836a06233681665,64dc7f654fa711d3e01f21a9,,,,,,,sngl,resources/Empty.png,resources/DY.BMP,Door4,0.160185185,0.003703704,1,0,0,0.6463,optionRight,60,6220,3,24,0,24,0,1,,,,,,,,,,,,,,,,,,,,,,,,,,,,,,,,,,,,,,,
,,,,,,,,2023-08-16_08h49.10.115,HF_wild_card,2022.2.4,Win32,116.3196464,55e876f25e4d360012cc283d,64d2fd46c836a06233681665,64dc7f654fa711d3e01f21a9,,,,,,,decisionTrl,resources/DB.BMP,resources/DBN.BMP,Door1,0.176851852,-0.010185185,1,0,0,1.0206,optionRight,30,6250,3,25,0,25,0,1,,,,,,,,,,,,,,,,,,,,,,,,,,,,,,,,,,,,,,,
,,,,,,,,2023-08-16_08h49.10.115,HF_wild_card,2022.2.4,Win32,116.3196464,55e876f25e4d360012cc283d,64d2fd46c836a06233681665,64dc7f654fa711d3e01f21a9,,,,,,,sngl,resources/DR.BMP,resources/Empty.png,Door3,-0.159259259,0.019444444,1,0,0,0.6449,optionLeft,70,6320,3,26,0,26,0,1,,,,,,,,,,,,,,,,,,,,,,,,,,,,,,,,,,,,,,,
,,,,,,,,2023-08-16_08h49.10.115,HF_wild_card,2022.2.4,Win32,116.3196464,55e876f25e4d360012cc283d,64d2fd46c836a06233681665,64dc7f654fa711d3e01f21a9,,,,,,,sngl,resources/DP.BMP,resources/Empty.png,WildCard_NonEx,-0.187962963,0.00462963,1,0,0,0.6545,optionLeft,55,6375,3,27,0,27,0,1,,,,,,,,,,,,,,,,,,,,,,,,,,,,,,,,,,,,,,,
,,,,,,,,2023-08-16_08h49.10.115,HF_wild_card,2022.2.4,Win32,116.3196464,55e876f25e4d360012cc283d,64d2fd46c836a06233681665,64dc7f654fa711d3e01f21a9,,,,,,,ctch,resources/DBN.BMP,resources/DY.BMP,Door4,0.227777778,-0.014814815,1,0,0,0.6877,optionRight,80,6455,3,28,0,28,0,1,,,,,,,,,,,,,,,,,,,,,,,,,,,,,,,,,,,,,,,
,,,,,,,,2023-08-16_08h49.10.115,HF_wild_card,2022.2.4,Win32,116.3196464,55e876f25e4d360012cc283d,64d2fd46c836a06233681665,64dc7f654fa711d3e01f21a9,,,,,,,decisionTrl,resources/DB.BMP,resources/DBN.BMP,Door1,0.192592593,0.002777778,1,0,0,0.9127,optionRight,30,6485,3,29,0,29,0,1,,,,,,,,,,,,,,,,,,,,,,,,,,,,,,,,,,,,,,,
,,,,,,,,2023-08-16_08h49.10.115,HF_wild_card,2022.2.4,Win32,116.3196464,55e876f25e4d360012cc283d,64d2fd46c836a06233681665,64dc7f654fa711d3e01f21a9,,,,,,,decisionTrl,resources/DB.BMP,resources/DP.BMP,WildCard_NonEx,0.217592593,-0.007407407,1,0,0,1.5297,optionRight,55,6540,3,30,0,30,0,1,,,,,,,,,,,,,,,,,,,,,,,,,,,,,,,,,,,,,,,
,,,,,,,,2023-08-16_08h49.10.115,HF_wild_card,2022.2.4,Win32,116.3196464,55e876f25e4d360012cc283d,64d2fd46c836a06233681665,64dc7f654fa711d3e01f21a9,,,,,,,ctch,resources/DB.BMP,resources/DR.BMP,Door3,0.218518519,0.023148148,1,0,0,0.7798,optionRight,70,6610,3,31,0,31,0,1,,,,,,,,,,,,,,,,,,,,,,,,,,,,,,,,,,,,,,,
,,,,,,,,2023-08-16_08h49.10.115,HF_wild_card,2022.2.4,Win32,116.3196464,55e876f25e4d360012cc283d,64d2fd46c836a06233681665,64dc7f654fa711d3e01f21a9,,,,,,,decisionTrl,resources/DB.BMP,resources/DBN.BMP,Door1,0.150925926,-0.009259259,1,0,0,0.8542,optionRight,30,6640,3,32,0,32,0,1,,,,,,,,,,,,,,,,,,,,,,,,,,,,,,,,,,,,,,,
,,,,,,,,2023-08-16_08h49.10.115,HF_wild_card,2022.2.4,Win32,116.3196464,55e876f25e4d360012cc283d,64d2fd46c836a06233681665,64dc7f654fa711d3e01f21a9,,,,,,,ctch,resources/DB.BMP,resources/DR.BMP,Door3,0.232407407,0.022222222,1,0,0,0.9633,optionRight,70,6710,3,33,0,33,0,1,,,,,,,,,,,,,,,,,,,,,,,,,,,,,,,,,,,,,,,
,,,,,,,,2023-08-16_08h49.10.115,HF_wild_card,2022.2.4,Win32,116.3196464,55e876f25e4d360012cc283d,64d2fd46c836a06233681665,64dc7f654fa711d3e01f21a9,,,,,,,decisionTrl,resources/DP.BMP,resources/DBN.BMP,WildCard_NonEx,-0.124074074,0.008333333,1,0,0,1.3966,optionLeft,55,6765,3,34,0,34,0,1,,,,,,,,,,,,,,,,,,,,,,,,,,,,,,,,,,,,,,,
,,,,,,,,2023-08-16_08h49.10.115,HF_wild_card,2022.2.4,Win32,116.3196464,55e876f25e4d360012cc283d,64d2fd46c836a06233681665,64dc7f654fa711d3e01f21a9,,,,,,,ctch,resources/DY.BMP,resources/DBN.BMP,Door4,-0.141666667,0,1,0,0,0.8558,optionLeft,80,6845,3,35,0,35,0,1,,,,,,,,,,,,,,,,,,,,,,,,,,,,,,,,,,,,,,,
,,,,,,,,2023-08-16_08h49.10.115,HF_wild_card,2022.2.4,Win32,116.3196464,55e876f25e4d360012cc283d,64d2fd46c836a06233681665,64dc7f654fa711d3e01f21a9,,,,,,,decisionTrl,resources/DP.BMP,resources/DR.BMP,Door3,0.189814815,0.006481481,1,0,0,1.0461,optionRight,70,6915,3,36,0,36,0,1,,,,,,,,,,,,,,,,,,,,,,,,,,,,,,,,,,,,,,,
,,,,,,,,2023-08-16_08h49.10.115,HF_wild_card,2022.2.4,Win32,116.3196464,55e876f25e4d360012cc283d,64d2fd46c836a06233681665,64dc7f654fa711d3e01f21a9,,,,,,,decisionTrl,resources/DBN.BMP,resources/DB.BMP,Door1,-0.151851852,-0.011111111,1,0,0,1.0794,optionLeft,30,6945,3,37,0,37,0,1,,,,,,,,,,,,,,,,,,,,,,,,,,,,,,,,,,,,,,,
,,,,,,,,2023-08-16_08h49.10.115,HF_wild_card,2022.2.4,Win32,116.3196464,55e876f25e4d360012cc283d,64d2fd46c836a06233681665,64dc7f654fa711d3e01f21a9,,,,,,,decisionTrl,resources/DR.BMP,resources/DY.BMP,Door3,-0.211111111,0.008333333,1,0,0,2.1542,optionLeft,70,7015,3,38,0,38,0,1,,,,,,,,,,,,,,,,,,,,,,,,,,,,,,,,,,,,,,,
,,,,,,,,2023-08-16_08h49.10.115,HF_wild_card,2022.2.4,Win32,116.3196464,55e876f25e4d360012cc283d,64d2fd46c836a06233681665,64dc7f654fa711d3e01f21a9,,,,,,,decisionTrl,resources/DY.BMP,resources/DR.BMP,Door4,-0.194444444,-0.001851852,1,0,0,0.9715,optionLeft,80,7095,3,39,0,39,0,1,,,,,,,,,,,,,,,,,,,,,,,,,,,,,,,,,,,,,,,
,,,,,,,,2023-08-16_08h49.10.115,HF_wild_card,2022.2.4,Win32,116.3196464,55e876f25e4d360012cc283d,64d2fd46c836a06233681665,64dc7f654fa711d3e01f21a9,,,,,,,decisionTrl,resources/DBN.BMP,resources/DB.BMP,Door1,-0.15462963,-0.002777778,1,0,0,0.9213,optionLeft,30,7125,3,40,0,40,0,1,,,,,,,,,,,,,,,,,,,,,,,,,,,,,,,,,,,,,,,
,,,,,,,,2023-08-16_08h49.10.115,HF_wild_card,2022.2.4,Win32,116.3196464,55e876f25e4d360012cc283d,64d2fd46c836a06233681665,64dc7f654fa711d3e01f21a9,,,,,,,sngl,resources/DY.BMP,resources/Empty.png,Door4,-0.137962963,-0.005555556,1,0,0,0.7547,optionLeft,80,7205,3,41,0,41,0,1,,,,,,,,,,,,,,,,,,,,,,,,,,,,,,,,,,,,,,,
,,,,,,,,2023-08-16_08h49.10.115,HF_wild_card,2022.2.4,Win32,116.3196464,55e876f25e4d360012cc283d,64d2fd46c836a06233681665,64dc7f654fa711d3e01f21a9,,,,,,,sngl,resources/Empty.png,resources/DP.BMP,WildCard_NonEx,0.237037037,-0.010185185,1,0,0,1.3135,optionRight,55,7260,3,42,0,42,0,1,,,,,,,,,,,,,,,,,,,,,,,,,,,,,,,,,,,,,,,
,,,,,,,,2023-08-16_08h49.10.115,HF_wild_card,2022.2.4,Win32,116.3196464,55e876f25e4d360012cc283d,64d2fd46c836a06233681665,64dc7f654fa711d3e01f21a9,,,,,,,decisionTrl,resources/DP.BMP,resources/DB.BMP,WildCard_NonEx,-0.191666667,-0.02962963,1,0,0,0.9203,optionLeft,55,7315,3,43,0,43,0,1,,,,,,,,,,,,,,,,,,,,,,,,,,,,,,,,,,,,,,,
,,,,,,,,2023-08-16_08h49.10.115,HF_wild_card,2022.2.4,Win32,116.3196464,55e876f25e4d360012cc283d,64d2fd46c836a06233681665,64dc7f654fa711d3e01f21a9,,,,,,,,,,,,,,,,,,,,,,,,,,2,0,2,0,1,,,,,,,,,,,,,,,,,,,,,,,,,,,,,,,,,,
,,,,,,,,2023-08-16_08h49.10.115,HF_wild_card,2022.2.4,Win32,116.3196464,55e876f25e4d360012cc283d,64d2fd46c836a06233681665,64dc7f654fa711d3e01f21a9,,,,,,,ctch,resources/DB.BMP,resources/DR.BMP,Door3,0.183333333,-0.052777778,1,0,0,0.9205,optionRight,70,7385,4,0,0,0,0,1,,,,,,,,,,,,,,,,,,,,,,,,,,,,,,,,,,,,,,,
,,,,,,,,2023-08-16_08h49.10.115,HF_wild_card,2022.2.4,Win32,116.3196464,55e876f25e4d360012cc283d,64d2fd46c836a06233681665,64dc7f654fa711d3e01f21a9,,,,,,,decisionTrl,resources/DR.BMP,resources/DY.BMP,Door3,-0.169444444,-0.030555556,1,0,0,0.9632,optionLeft,70,7455,4,1,0,1,0,1,,,,,,,,,,,,,,,,,,,,,,,,,,,,,,,,,,,,,,,
,,,,,,,,2023-08-16_08h49.10.115,HF_wild_card,2022.2.4,Win32,116.3196464,55e876f25e4d360012cc283d,64d2fd46c836a06233681665,64dc7f654fa711d3e01f21a9,,,,,,,ctch,resources/DY.BMP,resources/DBN.BMP,Door4,-0.187962963,-0.017592593,1,0,0,0.5132,optionLeft,60,7515,4,2,0,2,0,1,,,,,,,,,,,,,,,,,,,,,,,,,,,,,,,,,,,,,,,
,,,,,,,,2023-08-16_08h49.10.115,HF_wild_card,2022.2.4,Win32,116.3196464,55e876f25e4d360012cc283d,64d2fd46c836a06233681665,64dc7f654fa711d3e01f21a9,,,,,,,decisionTrl,resources/DY.BMP,resources/DR.BMP,Door4,-0.178703704,-0.013888889,1,0,0,1.155,optionLeft,60,7575,4,3,0,3,0,1,,,,,,,,,,,,,,,,,,,,,,,,,,,,,,,,,,,,,,,
,,,,,,,,2023-08-16_08h49.10.115,HF_wild_card,2022.2.4,Win32,116.3196464,55e876f25e4d360012cc283d,64d2fd46c836a06233681665,64dc7f654fa711d3e01f21a9,,,,,,,sngl,resources/Empty.png,resources/DR.BMP,Door3,0.231481481,-0.005555556,1,0,0,0.5887,optionRight,70,7645,4,4,0,4,0,1,,,,,,,,,,,,,,,,,,,,,,,,,,,,,,,,,,,,,,,
,,,,,,,,2023-08-16_08h49.10.115,HF_wild_card,2022.2.4,Win32,116.3196464,55e876f25e4d360012cc283d,64d2fd46c836a06233681665,64dc7f654fa711d3e01f21a9,,,,,,,decisionTrl,resources/DG.BMP,resources/DB.BMP,WildCard_Ex,-0.184259259,-0.015740741,1,0,0,1.0369,optionLeft,5,7650,4,5,0,5,0,1,,,,,,,,,,,,,,,,,,,,,,,,,,,,,,,,,,,,,,,
,,,,,,,,2023-08-16_08h49.10.115,HF_wild_card,2022.2.4,Win32,116.3196464,55e876f25e4d360012cc283d,64d2fd46c836a06233681665,64dc7f654fa711d3e01f21a9,,,,,,,ctch,resources/DBN.BMP,resources/DY.BMP,Door4,0.235185185,-0.016666667,1,0,0,0.9376,optionRight,60,7710,4,6,0,6,0,1,,,,,,,,,,,,,,,,,,,,,,,,,,,,,,,,,,,,,,,
,,,,,,,,2023-08-16_08h49.10.115,HF_wild_card,2022.2.4,Win32,116.3196464,55e876f25e4d360012cc283d,64d2fd46c836a06233681665,64dc7f654fa711d3e01f21a9,,,,,,,decisionTrl,resources/DG.BMP,resources/DY.BMP,Door4,0.212962963,-0.003703704,1,0,0,0.8624,optionRight,80,7790,4,7,0,7,0,1,,,,,,,,,,,,,,,,,,,,,,,,,,,,,,,,,,,,,,,
,,,,,,,,2023-08-16_08h49.10.115,HF_wild_card,2022.2.4,Win32,116.3196464,55e876f25e4d360012cc283d,64d2fd46c836a06233681665,64dc7f654fa711d3e01f21a9,,,,,,,ctch,resources/DR.BMP,resources/DB.BMP,Door3,-0.191666667,-0.021296296,1,0,0,0.8464,optionLeft,70,7860,4,8,0,8,0,1,,,,,,,,,,,,,,,,,,,,,,,,,,,,,,,,,,,,,,,
,,,,,,,,2023-08-16_08h49.10.115,HF_wild_card,2022.2.4,Win32,116.3196464,55e876f25e4d360012cc283d,64d2fd46c836a06233681665,64dc7f654fa711d3e01f21a9,,,,,,,sngl,resources/DG.BMP,resources/Empty.png,WildCard_Ex,-0.15462963,-0.034259259,1,0,0,1.0714,optionLeft,5,7865,4,9,0,9,0,1,,,,,,,,,,,,,,,,,,,,,,,,,,,,,,,,,,,,,,,
,,,,,,,,2023-08-16_08h49.10.115,HF_wild_card,2022.2.4,Win32,116.3196464,55e876f25e4d360012cc283d,64d2fd46c836a06233681665,64dc7f654fa711d3e01f21a9,,,,,,,decisionTrl,resources/DR.BMP,resources/DG.BMP,Door3,-0.17037037,-0.015740741,1,0,0,0.7878,optionLeft,70,7935,4,10,0,10,0,1,,,,,,,,,,,,,,,,,,,,,,,,,,,,,,,,,,,,,,,
,,,,,,,,2023-08-16_08h49.10.115,HF_wild_card,2022.2.4,Win32,116.3196464,55e876f25e4d360012cc283d,64d2fd46c836a06233681665,64dc7f654fa711d3e01f21a9,,,,,,,ctch,resources/DY.BMP,resources/DBN.BMP,Door4,-0.216666667,-0.012962963,1,0,0,1.0048,optionLeft,60,7995,4,11,0,11,0,1,,,,,,,,,,,,,,,,,,,,,,,,,,,,,,,,,,,,,,,
,,,,,,,,2023-08-16_08h49.10.115,HF_wild_card,2022.2.4,Win32,116.3196464,55e876f25e4d360012cc283d,64d2fd46c836a06233681665,64dc7f654fa711d3e01f21a9,,,,,,,sngl,resources/Empty.png,resources/DBN.BMP,Door1,0.201851852,-0.00462963,1,0,0,0.8883,optionRight,30,8025,4,12,0,12,0,1,,,,,,,,,,,,,,,,,,,,,,,,,,,,,,,,,,,,,,,
,,,,,,,,2023-08-16_08h49.10.115,HF_wild_card,2022.2.4,Win32,116.3196464,55e876f25e4d360012cc283d,64d2fd46c836a06233681665,64dc7f654fa711d3e01f21a9,,,,,,,decisionTrl,resources/DBN.BMP,resources/DB.BMP,Door1,-0.17962963,-0.02037037,1,0,0,0.9546,optionLeft,30,8055,4,13,0,13,0,1,,,,,,,,,,,,,,,,,,,,,,,,,,,,,,,,,,,,,,,
,,,,,,,,2023-08-16_08h49.10.115,HF_wild_card,2022.2.4,Win32,116.3196464,55e876f25e4d360012cc283d,64d2fd46c836a06233681665,64dc7f654fa711d3e01f21a9,,,,,,,sngl,resources/Empty.png,resources/DB.BMP,Door2,-0.275925926,0.017592593,1,0,0,1.5129,optionRight,40,8095,4,14,0,14,0,1,,,,,,,,,,,,,,,,,,,,,,,,,,,,,,,,,,,,,,,
,,,,,,,,2023-08-16_08h49.10.115,HF_wild_card,2022.2.4,Win32,116.3196464,55e876f25e4d360012cc283d,64d2fd46c836a06233681665,64dc7f654fa711d3e01f21a9,,,,,,,decisionTrl,resources/DBN.BMP,resources/DB.BMP,Door1,-0.225925926,0.02037037,1,0,0,0.7209,optionLeft,30,8125,4,15,0,15,0,1,,,,,,,,,,,,,,,,,,,,,,,,,,,,,,,,,,,,,,,
,,,,,,,,2023-08-16_08h49.10.115,HF_wild_card,2022.2.4,Win32,116.3196464,55e876f25e4d360012cc283d,64d2fd46c836a06233681665,64dc7f654fa711d3e01f21a9,,,,,,,decisionTrl,resources/DB.BMP,resources/DBN.BMP,Door1,0.277777778,0.009259259,1,0,0,0.6209,optionRight,30,8155,4,16,0,16,0,1,,,,,,,,,,,,,,,,,,,,,,,,,,,,,,,,,,,,,,,
,,,,,,,,2023-08-16_08h49.10.115,HF_wild_card,2022.2.4,Win32,116.3196464,55e876f25e4d360012cc283d,64d2fd46c836a06233681665,64dc7f654fa711d3e01f21a9,,,,,,,sngl,resources/Empty.png,resources/DG.BMP,WildCard_Ex,0.177777778,0.000925926,1,0,0,0.938,optionRight,5,8160,4,17,0,17,0,1,,,,,,,,,,,,,,,,,,,,,,,,,,,,,,,,,,,,,,,
,,,,,,,,2023-08-16_08h49.10.115,HF_wild_card,2022.2.4,Win32,116.3196464,55e876f25e4d360012cc283d,64d2fd46c836a06233681665,64dc7f654fa711d3e01f21a9,,,,,,,ctch,resources/DBN.BMP,resources/DY.BMP,Door4,0.237037037,0.001851852,1,0,0,0.7796,optionRight,80,8240,4,18,0,18,0,1,,,,,,,,,,,,,,,,,,,,,,,,,,,,,,,,,,,,,,,
,,,,,,,,2023-08-16_08h49.10.115,HF_wild_card,2022.2.4,Win32,116.3196464,55e876f25e4d360012cc283d,64d2fd46c836a06233681665,64dc7f654fa711d3e01f21a9,,,,,,,decisionTrl,resources/DR.BMP,resources/DY.BMP,Door3,-0.162962963,0.006481481,1,0,0,1.2715,optionLeft,70,8310,4,19,0,19,0,1,,,,,,,,,,,,,,,,,,,,,,,,,,,,,,,,,,,,,,,
,,,,,,,,2023-08-16_08h49.10.115,HF_wild_card,2022.2.4,Win32,116.3196464,55e876f25e4d360012cc283d,64d2fd46c836a06233681665,64dc7f654fa711d3e01f21a9,,,,,,,decisionTrl,resources/DB.BMP,resources/DBN.BMP,Door1,0.256481481,-0.018518519,1,0,0,0.7794,optionRight,30,8340,4,20,0,20,0,1,,,,,,,,,,,,,,,,,,,,,,,,,,,,,,,,,,,,,,,
,,,,,,,,2023-08-16_08h49.10.115,HF_wild_card,2022.2.4,Win32,116.3196464,55e876f25e4d360012cc283d,64d2fd46c836a06233681665,64dc7f654fa711d3e01f21a9,,,,,,,decisionTrl,resources/DB.BMP,resources/DBN.BMP,Door1,0.282407407,0.014814815,1,0,0,0.6298,optionRight,30,8370,4,21,0,21,0,1,,,,,,,,,,,,,,,,,,,,,,,,,,,,,,,,,,,,,,,
,,,,,,,,2023-08-16_08h49.10.115,HF_wild_card,2022.2.4,Win32,116.3196464,55e876f25e4d360012cc283d,64d2fd46c836a06233681665,64dc7f654fa711d3e01f21a9,,,,,,,decisionTrl,resources/DY.BMP,resources/DR.BMP,Door4,-0.14537037,0.013888889,1,0,0,0.9964,optionLeft,80,8450,4,22,0,22,0,1,,,,,,,,,,,,,,,,,,,,,,,,,,,,,,,,,,,,,,,
,,,,,,,,2023-08-16_08h49.10.115,HF_wild_card,2022.2.4,Win32,116.3196464,55e876f25e4d360012cc283d,64d2fd46c836a06233681665,64dc7f654fa711d3e01f21a9,,,,,,,sngl,resources/Empty.png,resources/DY.BMP,Door4,0.165740741,0.012037037,1,0,0,0.7443,optionRight,80,8530,4,23,0,23,0,1,,,,,,,,,,,,,,,,,,,,,,,,,,,,,,,,,,,,,,,
,,,,,,,,2023-08-16_08h49.10.115,HF_wild_card,2022.2.4,Win32,116.3196464,55e876f25e4d360012cc283d,64d2fd46c836a06233681665,64dc7f654fa711d3e01f21a9,,,,,,,sngl,resources/DBN.BMP,resources/Empty.png,Door1,-0.141666667,0.026851852,1,0,0,0.6295,optionLeft,30,8560,4,24,0,24,0,1,,,,,,,,,,,,,,,,,,,,,,,,,,,,,,,,,,,,,,,
,,,,,,,,2023-08-16_08h49.10.115,HF_wild_card,2022.2.4,Win32,116.3196464,55e876f25e4d360012cc283d,64d2fd46c836a06233681665,64dc7f654fa711d3e01f21a9,,,,,,,decisionTrl,resources/DBN.BMP,resources/DG.BMP,Door1,-0.197222222,0.022222222,1,0,0,1.2791,optionLeft,30,8590,4,25,0,25,0,1,,,,,,,,,,,,,,,,,,,,,,,,,,,,,,,,,,,,,,,
,,,,,,,,2023-08-16_08h49.10.115,HF_wild_card,2022.2.4,Win32,116.3196464,55e876f25e4d360012cc283d,64d2fd46c836a06233681665,64dc7f654fa711d3e01f21a9,,,,,,,decisionTrl,resources/DB.BMP,resources/DG.BMP,Door2,-0.200925926,0,1,0,0,0.9874,optionLeft,20,8610,4,26,0,26,0,1,,,,,,,,,,,,,,,,,,,,,,,,,,,,,,,,,,,,,,,
,,,,,,,,2023-08-16_08h49.10.115,HF_wild_card,2022.2.4,Win32,116.3196464,55e876f25e4d360012cc283d,64d2fd46c836a06233681665,64dc7f654fa711d3e01f21a9,,,,,,,sngl,resources/Empty.png,resources/DG.BMP,WildCard_Ex,0.230555556,-0.023148148,1,0,0,0.8298,optionRight,95,8705,4,27,0,27,0,1,,,,,,,,,,,,,,,,,,,,,,,,,,,,,,,,,,,,,,,
,,,,,,,,2023-08-16_08h49.10.115,HF_wild_card,2022.2.4,Win32,116.3196464,55e876f25e4d360012cc283d,64d2fd46c836a06233681665,64dc7f654fa711d3e01f21a9,,,,,,,decisionTrl,resources/DY.BMP,resources/DR.BMP,Door4,-0.188888889,-0.00462963,1,0,0,1.3213,optionLeft,60,8765,4,28,0,28,0,1,,,,,,,,,,,,,,,,,,,,,,,,,,,,,,,,,,,,,,,
,,,,,,,,2023-08-16_08h49.10.115,HF_wild_card,2022.2.4,Win32,116.3196464,55e876f25e4d360012cc283d,64d2fd46c836a06233681665,64dc7f654fa711d3e01f21a9,,,,,,,decisionTrl,resources/DBN.BMP,resources/DB.BMP,Door1,-0.186111111,0.002777778,1,0,0,1.6882,optionLeft,30,8795,4,29,0,29,0,1,,,,,,,,,,,,,,,,,,,,,,,,,,,,,,,,,,,,,,,
,,,,,,,,2023-08-16_08h49.10.115,HF_wild_card,2022.2.4,Win32,116.3196464,55e876f25e4d360012cc283d,64d2fd46c836a06233681665,64dc7f654fa711d3e01f21a9,,,,,,,decisionTrl,resources/DB.BMP,resources/DBN.BMP,Door1,0.222222222,0.007407407,1,0,0,1.0295,optionRight,30,8825,4,30,0,30,0,1,,,,,,,,,,,,,,,,,,,,,,,,,,,,,,,,,,,,,,,
,,,,,,,,2023-08-16_08h49.10.115,HF_wild_card,2022.2.4,Win32,116.3196464,55e876f25e4d360012cc283d,64d2fd46c836a06233681665,64dc7f654fa711d3e01f21a9,,,,,,,decisionTrl,resources/DR.BMP,resources/DY.BMP,Door3,-0.212037037,0,1,0,0,1.0624,optionLeft,70,8895,4,31,0,31,0,1,,,,,,,,,,,,,,,,,,,,,,,,,,,,,,,,,,,,,,,
,,,,,,,,2023-08-16_08h49.10.115,HF_wild_card,2022.2.4,Win32,116.3196464,55e876f25e4d360012cc283d,64d2fd46c836a06233681665,64dc7f654fa711d3e01f21a9,,,,,,,ctch,resources/DB.BMP,resources/DR.BMP,Door3,0.205555556,-0.025925926,1,0,0,0.7211,optionRight,70,8965,4,32,0,32,0,1,,,,,,,,,,,,,,,,,,,,,,,,,,,,,,,,,,,,,,,
,,,,,,,,2023-08-16_08h49.10.115,HF_wild_card,2022.2.4,Win32,116.3196464,55e876f25e4d360012cc283d,64d2fd46c836a06233681665,64dc7f654fa711d3e01f21a9,,,,,,,decisionTrl,resources/DY.BMP,resources/DR.BMP,Door4,-0.173148148,0.001851852,1,0,0,1.4291,optionLeft,80,9045,4,33,0,33,0,1,,,,,,,,,,,,,,,,,,,,,,,,,,,,,,,,,,,,,,,
,,,,,,,,2023-08-16_08h49.10.115,HF_wild_card,2022.2.4,Win32,116.3196464,55e876f25e4d360012cc283d,64d2fd46c836a06233681665,64dc7f654fa711d3e01f21a9,,,,,,,sngl,resources/DG.BMP,resources/Empty.png,WildCard_Ex,-0.12037037,-0.012037037,1,0,0,0.8797,optionLeft,95,9140,4,34,0,34,0,1,,,,,,,,,,,,,,,,,,,,,,,,,,,,,,,,,,,,,,,
,,,,,,,,2023-08-16_08h49.10.115,HF_wild_card,2022.2.4,Win32,116.3196464,55e876f25e4d360012cc283d,64d2fd46c836a06233681665,64dc7f654fa711d3e01f21a9,,,,,,,decisionTrl,resources/DY.BMP,resources/DG.BMP,Door4,-0.165740741,0.018518519,1,0,0,1.18,optionLeft,60,9200,4,35,0,35,0,1,,,,,,,,,,,,,,,,,,,,,,,,,,,,,,,,,,,,,,,
,,,,,,,,2023-08-16_08h49.10.115,HF_wild_card,2022.2.4,Win32,116.3196464,55e876f25e4d360012cc283d,64d2fd46c836a06233681665,64dc7f654fa711d3e01f21a9,,,,,,,sngl,resources/DB.BMP,resources/Empty.png,Door2,-0.183333333,0.000925926,1,0,0,0.8042,optionLeft,20,9220,4,36,0,36,0,1,,,,,,,,,,,,,,,,,,,,,,,,,,,,,,,,,,,,,,,
,,,,,,,,2023-08-16_08h49.10.115,HF_wild_card,2022.2.4,Win32,116.3196464,55e876f25e4d360012cc283d,64d2fd46c836a06233681665,64dc7f654fa711d3e01f21a9,,,,,,,sngl,resources/DY.BMP,resources/Empty.png,Door4,-0.15,-0.009259259,1,0,0,0.896,optionLeft,60,9280,4,37,0,37,0,1,,,,,,,,,,,,,,,,,,,,,,,,,,,,,,,,,,,,,,,
,,,,,,,,2023-08-16_08h49.10.115,HF_wild_card,2022.2.4,Win32,116.3196464,55e876f25e4d360012cc283d,64d2fd46c836a06233681665,64dc7f654fa711d3e01f21a9,,,,,,,decisionTrl,resources/DG.BMP,resources/DR.BMP,Door3,0.225925926,-0.009259259,1,0,0,1.3124,optionRight,70,9350,4,38,0,38,0,1,,,,,,,,,,,,,,,,,,,,,,,,,,,,,,,,,,,,,,,
,,,,,,,,2023-08-16_08h49.10.115,HF_wild_card,2022.2.4,Win32,116.3196464,55e876f25e4d360012cc283d,64d2fd46c836a06233681665,64dc7f654fa711d3e01f21a9,,,,,,,decisionTrl,resources/DG.BMP,resources/DBN.BMP,WildCard_Ex,-0.192592593,0.013888889,1,0,0,1.055,optionLeft,5,9355,4,39,0,39,0,1,,,,,,,,,,,,,,,,,,,,,,,,,,,,,,,,,,,,,,,
,,,,,,,,2023-08-16_08h49.10.115,HF_wild_card,2022.2.4,Win32,116.3196464,55e876f25e4d360012cc283d,64d2fd46c836a06233681665,64dc7f654fa711d3e01f21a9,,,,,,,decisionTrl,resources/DBN.BMP,resources/DB.BMP,Door1,-0.153703704,0.015740741,1,0,0,1.0434,optionLeft,30,9385,4,40,0,40,0,1,,,,,,,,,,,,,,,,,,,,,,,,,,,,,,,,,,,,,,,
,,,,,,,,2023-08-16_08h49.10.115,HF_wild_card,2022.2.4,Win32,116.3196464,55e876f25e4d360012cc283d,64d2fd46c836a06233681665,64dc7f654fa711d3e01f21a9,,,,,,,ctch,resources/DR.BMP,resources/DB.BMP,Door3,-0.201851852,0.02037037,1,0,0,0.9405,optionLeft,70,9455,4,41,0,41,0,1,,,,,,,,,,,,,,,,,,,,,,,,,,,,,,,,,,,,,,,
,,,,,,,,2023-08-16_08h49.10.115,HF_wild_card,2022.2.4,Win32,116.3196464,55e876f25e4d360012cc283d,64d2fd46c836a06233681665,64dc7f654fa711d3e01f21a9,,,,,,,decisionTrl,resources/DR.BMP,resources/DY.BMP,Door3,-0.200925926,0.015740741,1,0,0,1.4461,optionLeft,70,9525,4,42,0,42,0,1,,,,,,,,,,,,,,,,,,,,,,,,,,,,,,,,,,,,,,,
,,,,,,,,2023-08-16_08h49.10.115,HF_wild_card,2022.2.4,Win32,116.3196464,55e876f25e4d360012cc283d,64d2fd46c836a06233681665,64dc7f654fa711d3e01f21a9,,,,,,,sngl,resources/DR.BMP,resources/Empty.png,Door3,-0.173148148,-0.000925926,1,0,0,0.5875,optionLeft,70,9595,4,43,0,43,0,1,,,,,,,,,,,,,,,,,,,,,,,,,,,,,,,,,,,,,,,
,,,,,,,,2023-08-16_08h49.10.115,HF_wild_card,2022.2.4,Win32,116.3196464,55e876f25e4d360012cc283d,64d2fd46c836a06233681665,64dc7f654fa711d3e01f21a9,,,,,,,,,,,,,,,,,,,,,,,,,,3,0,3,0,1,,,,,,,,,,,,,,,,,,,,,,,,,,,,,,,,,,
,,,,,,,,2023-08-16_08h49.10.115,HF_wild_card,2022.2.4,Win32,116.3196464,55e876f25e4d360012cc283d,64d2fd46c836a06233681665,64dc7f654fa711d3e01f21a9,,,,,,,decisionTrl,resources/DBN.BMP,resources/DB.BMP,Door1,-0.080555556,-0.000925926,1,0,0,1.0039,optionLeft,30,9625,5,0,0,0,0,1,,,,,,,,,,,,,,,,,,,,,,,,,,,,,,,,,,,,,,,
,,,,,,,,2023-08-16_08h49.10.115,HF_wild_card,2022.2.4,Win32,116.3196464,55e876f25e4d360012cc283d,64d2fd46c836a06233681665,64dc7f654fa711d3e01f21a9,,,,,,,decisionTrl,resources/DB.BMP,resources/DBN.BMP,Door1,0.237037037,0.010185185,1,0,0,1.1043,optionRight,30,9655,5,1,0,1,0,1,,,,,,,,,,,,,,,,,,,,,,,,,,,,,,,,,,,,,,,
,,,,,,,,2023-08-16_08h49.10.115,HF_wild_card,2022.2.4,Win32,116.3196464,55e876f25e4d360012cc283d,64d2fd46c836a06233681665,64dc7f654fa711d3e01f21a9,,,,,,,decisionTrl,resources/DBN.BMP,resources/DG.BMP,Door1,-0.252777778,0.025,1,0,0,1.6632,optionLeft,30,9685,5,2,0,2,0,1,,,,,,,,,,,,,,,,,,,,,,,,,,,,,,,,,,,,,,,
,,,,,,,,2023-08-16_08h49.10.115,HF_wild_card,2022.2.4,Win32,116.3196464,55e876f25e4d360012cc283d,64d2fd46c836a06233681665,64dc7f654fa711d3e01f21a9,,,,,,,decisionTrl,resources/DY.BMP,resources/DG.BMP,Door4,-0.212962963,0.007407407,1,0,0,0.9631,optionLeft,60,9745,5,3,0,3,0,1,,,,,,,,,,,,,,,,,,,,,,,,,,,,,,,,,,,,,,,
,,,,,,,,2023-08-16_08h49.10.115,HF_wild_card,2022.2.4,Win32,116.3196464,55e876f25e4d360012cc283d,64d2fd46c836a06233681665,64dc7f654fa711d3e01f21a9,,,,,,,sngl,resources/DG.BMP,resources/Empty.png,WildCard_Ex,-0.202777778,0.009259259,1,0,0,0.7869,optionLeft,95,9840,5,4,0,4,0,1,,,,,,,,,,,,,,,,,,,,,,,,,,,,,,,,,,,,,,,
,,,,,,,,2023-08-16_08h49.10.115,HF_wild_card,2022.2.4,Win32,116.3196464,55e876f25e4d360012cc283d,64d2fd46c836a06233681665,64dc7f654fa711d3e01f21a9,,,,,,,decisionTrl,resources/DBN.BMP,resources/DB.BMP,Door1,-0.209259259,0.015740741,1,0,0,1.0212,optionLeft,30,9870,5,5,0,5,0,1,,,,,,,,,,,,,,,,,,,,,,,,,,,,,,,,,,,,,,,
,,,,,,,,2023-08-16_08h49.10.115,HF_wild_card,2022.2.4,Win32,116.3196464,55e876f25e4d360012cc283d,64d2fd46c836a06233681665,64dc7f654fa711d3e01f21a9,,,,,,,ctch,resources/DBN.BMP,resources/DY.BMP,Door4,0.22962963,-0.013888889,1,0,0,0.8716,optionRight,60,9930,5,6,0,6,0,1,,,,,,,,,,,,,,,,,,,,,,,,,,,,,,,,,,,,,,,
,,,,,,,,2023-08-16_08h49.10.115,HF_wild_card,2022.2.4,Win32,116.3196464,55e876f25e4d360012cc283d,64d2fd46c836a06233681665,64dc7f654fa711d3e01f21a9,,,,,,,sngl,resources/Empty.png,resources/DG.BMP,WildCard_Ex,0.131481481,-0.015740741,1,0,0,0.7709,optionRight,5,9935,5,7,0,7,0,1,,,,,,,,,,,,,,,,,,,,,,,,,,,,,,,,,,,,,,,
,,,,,,,,2023-08-16_08h49.10.115,HF_wild_card,2022.2.4,Win32,116.3196464,55e876f25e4d360012cc283d,64d2fd46c836a06233681665,64dc7f654fa711d3e01f21a9,,,,,,,ctch,resources/DR.BMP,resources/DB.BMP,Door3,-0.223148148,0.005555556,1,0,0,0.8209,optionLeft,70,10005,5,8,0,8,0,1,,,,,,,,,,,,,,,,,,,,,,,,,,,,,,,,,,,,,,,
,,,,,,,,2023-08-16_08h49.10.115,HF_wild_card,2022.2.4,Win32,116.3196464,55e876f25e4d360012cc283d,64d2fd46c836a06233681665,64dc7f654fa711d3e01f21a9,,,,,,,ctch,resources/DY.BMP,resources/DBN.BMP,Door4,-0.277777778,0.013888889,1,0,0,0.7216,optionLeft,60,10065,5,9,0,9,0,1,,,,,,,,,,,,,,,,,,,,,,,,,,,,,,,,,,,,,,,
,,,,,,,,2023-08-16_08h49.10.115,HF_wild_card,2022.2.4,Win32,116.3196464,55e876f25e4d360012cc283d,64d2fd46c836a06233681665,64dc7f654fa711d3e01f21a9,,,,,,,decisionTrl,resources/DG.BMP,resources/DBN.BMP,WildCard_Ex,-0.208333333,0.006481481,1,0,0,1.2121,optionLeft,95,10160,5,10,0,10,0,1,,,,,,,,,,,,,,,,,,,,,,,,,,,,,,,,,,,,,,,
,,,,,,,,2023-08-16_08h49.10.115,HF_wild_card,2022.2.4,Win32,116.3196464,55e876f25e4d360012cc283d,64d2fd46c836a06233681665,64dc7f654fa711d3e01f21a9,,,,,,,decisionTrl,resources/DY.BMP,resources/DR.BMP,Door4,-0.263888889,0,1,0,0,1.5889,optionLeft,80,10240,5,11,0,11,0,1,,,,,,,,,,,,,,,,,,,,,,,,,,,,,,,,,,,,,,,
,,,,,,,,2023-08-16_08h49.10.115,HF_wild_card,2022.2.4,Win32,116.3196464,55e876f25e4d360012cc283d,64d2fd46c836a06233681665,64dc7f654fa711d3e01f21a9,,,,,,,decisionTrl,resources/DB.BMP,resources/DBN.BMP,Door1,0.208333333,-0.018518519,1,0,0,1.5135,optionRight,30,10270,5,12,0,12,0,1,,,,,,,,,,,,,,,,,,,,,,,,,,,,,,,,,,,,,,,
,,,,,,,,2023-08-16_08h49.10.115,HF_wild_card,2022.2.4,Win32,116.3196464,55e876f25e4d360012cc283d,64d2fd46c836a06233681665,64dc7f654fa711d3e01f21a9,,,,,,,sngl,resources/Empty.png,resources/DG.BMP,WildCard_Ex,0.174074074,-0.025925926,1,0,0,0.7795,optionRight,95,10365,5,13,0,13,0,1,,,,,,,,,,,,,,,,,,,,,,,,,,,,,,,,,,,,,,,
,,,,,,,,2023-08-16_08h49.10.115,HF_wild_card,2022.2.4,Win32,116.3196464,55e876f25e4d360012cc283d,64d2fd46c836a06233681665,64dc7f654fa711d3e01f21a9,,,,,,,ctch,resources/DBN.BMP,resources/DY.BMP,Door4,0.239814815,-0.02037037,1,0,0,1.2633,optionRight,60,10425,5,14,0,14,0,1,,,,,,,,,,,,,,,,,,,,,,,,,,,,,,,,,,,,,,,
,,,,,,,,2023-08-16_08h49.10.115,HF_wild_card,2022.2.4,Win32,116.3196464,55e876f25e4d360012cc283d,64d2fd46c836a06233681665,64dc7f654fa711d3e01f21a9,,,,,,,decisionTrl,resources/DG.BMP,resources/DB.BMP,WildCard_Ex,-0.190740741,-0.013888889,1,0,0,1.6206,optionLeft,5,10430,5,15,0,15,0,1,,,,,,,,,,,,,,,,,,,,,,,,,,,,,,,,,,,,,,,
,,,,,,,,2023-08-16_08h49.10.115,HF_wild_card,2022.2.4,Win32,116.3196464,55e876f25e4d360012cc283d,64d2fd46c836a06233681665,64dc7f654fa711d3e01f21a9,,,,,,,decisionTrl,resources/DR.BMP,resources/DY.BMP,Door3,-0.218518519,0.00462963,1,0,0,1.1593,optionLeft,70,10500,5,16,0,16,0,1,,,,,,,,,,,,,,,,,,,,,,,,,,,,,,,,,,,,,,,
,,,,,,,,2023-08-16_08h49.10.115,HF_wild_card,2022.2.4,Win32,116.3196464,55e876f25e4d360012cc283d,64d2fd46c836a06233681665,64dc7f654fa711d3e01f21a9,,,,,,,ctch,resources/DR.BMP,resources/DB.BMP,Door3,-0.288888889,-0.010185185,1,0,0,1.1692,optionLeft,70,10570,5,17,0,17,0,1,,,,,,,,,,,,,,,,,,,,,,,,,,,,,,,,,,,,,,,
,,,,,,,,2023-08-16_08h49.10.115,HF_wild_card,2022.2.4,Win32,116.3196464,55e876f25e4d360012cc283d,64d2fd46c836a06233681665,64dc7f654fa711d3e01f21a9,,,,,,,ctch,resources/DB.BMP,resources/DR.BMP,Door3,0.236111111,-0.036111111,1,0,0,0.8039,optionRight,70,10640,5,18,0,18,0,1,,,,,,,,,,,,,,,,,,,,,,,,,,,,,,,,,,,,,,,
,,,,,,,,2023-08-16_08h49.10.115,HF_wild_card,2022.2.4,Win32,116.3196464,55e876f25e4d360012cc283d,64d2fd46c836a06233681665,64dc7f654fa711d3e01f21a9,,,,,,,decisionTrl,resources/DR.BMP,resources/DY.BMP,Door3,-0.158333333,-0.013888889,1,0,0,1.1913,optionLeft,70,10710,5,19,0,19,0,1,,,,,,,,,,,,,,,,,,,,,,,,,,,,,,,,,,,,,,,
,,,,,,,,2023-08-16_08h49.10.115,HF_wild_card,2022.2.4,Win32,116.3196464,55e876f25e4d360012cc283d,64d2fd46c836a06233681665,64dc7f654fa711d3e01f21a9,,,,,,,decisionTrl,resources/DY.BMP,resources/DR.BMP,Door4,-0.217592593,-0.002777778,1,0,0,1.0463,optionLeft,80,10790,5,20,0,20,0,1,,,,,,,,,,,,,,,,,,,,,,,,,,,,,,,,,,,,,,,
,,,,,,,,2023-08-16_08h49.10.115,HF_wild_card,2022.2.4,Win32,116.3196464,55e876f25e4d360012cc283d,64d2fd46c836a06233681665,64dc7f654fa711d3e01f21a9,,,,,,,ctch,resources/DB.BMP,resources/DR.BMP,Door3,0.238888889,-0.002777778,1,0,0,0.9968,optionRight,70,10860,5,21,0,21,0,1,,,,,,,,,,,,,,,,,,,,,,,,,,,,,,,,,,,,,,,
,,,,,,,,2023-08-16_08h49.10.115,HF_wild_card,2022.2.4,Win32,116.3196464,55e876f25e4d360012cc283d,64d2fd46c836a06233681665,64dc7f654fa711d3e01f21a9,,,,,,,sngl,resources/Empty.png,resources/DR.BMP,Door3,0.205555556,-0.014814815,1,0,0,0.5303,optionRight,70,10930,5,22,0,22,0,1,,,,,,,,,,,,,,,,,,,,,,,,,,,,,,,,,,,,,,,
,,,,,,,,2023-08-16_08h49.10.115,HF_wild_card,2022.2.4,Win32,116.3196464,55e876f25e4d360012cc283d,64d2fd46c836a06233681665,64dc7f654fa711d3e01f21a9,,,,,,,sngl,resources/Empty.png,resources/DBN.BMP,Door1,0.138888889,-0.011111111,1,0,0,0.7545,optionRight,30,10960,5,23,0,23,0,1,,,,,,,,,,,,,,,,,,,,,,,,,,,,,,,,,,,,,,,
,,,,,,,,2023-08-16_08h49.10.115,HF_wild_card,2022.2.4,Win32,116.3196464,55e876f25e4d360012cc283d,64d2fd46c836a06233681665,64dc7f654fa711d3e01f21a9,,,,,,,decisionTrl,resources/DG.BMP,resources/DR.BMP,Door3,0.230555556,-0.009259259,1,0,0,1.0213,optionRight,70,11030,5,24,0,24,0,1,,,,,,,,,,,,,,,,,,,,,,,,,,,,,,,,,,,,,,,
,,,,,,,,2023-08-16_08h49.10.115,HF_wild_card,2022.2.4,Win32,116.3196464,55e876f25e4d360012cc283d,64d2fd46c836a06233681665,64dc7f654fa711d3e01f21a9,,,,,,,sngl,resources/Empty.png,resources/DB.BMP,Door2,0.187037037,0.030555556,1,0,0,0.9213,optionRight,20,11050,5,25,0,25,0,1,,,,,,,,,,,,,,,,,,,,,,,,,,,,,,,,,,,,,,,
,,,,,,,,2023-08-16_08h49.10.115,HF_wild_card,2022.2.4,Win32,116.3196464,55e876f25e4d360012cc283d,64d2fd46c836a06233681665,64dc7f654fa711d3e01f21a9,,,,,,,decisionTrl,resources/DBN.BMP,resources/DB.BMP,Door1,-0.174074074,-0.003703704,1,0,0,1.6047,optionLeft,30,11080,5,26,0,26,0,1,,,,,,,,,,,,,,,,,,,,,,,,,,,,,,,,,,,,,,,
,,,,,,,,2023-08-16_08h49.10.115,HF_wild_card,2022.2.4,Win32,116.3196464,55e876f25e4d360012cc283d,64d2fd46c836a06233681665,64dc7f654fa711d3e01f21a9,,,,,,,decisionTrl,resources/DG.BMP,resources/DY.BMP,Door4,0.177777778,-0.019444444,1,0,0,1.5793,optionRight,80,11160,5,27,0,27,0,1,,,,,,,,,,,,,,,,,,,,,,,,,,,,,,,,,,,,,,,
,,,,,,,,2023-08-16_08h49.10.115,HF_wild_card,2022.2.4,Win32,116.3196464,55e876f25e4d360012cc283d,64d2fd46c836a06233681665,64dc7f654fa711d3e01f21a9,,,,,,,decisionTrl,resources/DB.BMP,resources/DBN.BMP,Door1,0.189814815,-0.02037037,1,0,0,1.6044,optionRight,30,11190,5,28,0,28,0,1,,,,,,,,,,,,,,,,,,,,,,,,,,,,,,,,,,,,,,,
,,,,,,,,2023-08-16_08h49.10.115,HF_wild_card,2022.2.4,Win32,116.3196464,55e876f25e4d360012cc283d,64d2fd46c836a06233681665,64dc7f654fa711d3e01f21a9,,,,,,,decisionTrl,resources/DBN.BMP,resources/DB.BMP,Door1,-0.137962963,-0.00462963,1,0,0,1.0881,optionLeft,30,11220,5,29,0,29,0,1,,,,,,,,,,,,,,,,,,,,,,,,,,,,,,,,,,,,,,,
,,,,,,,,2023-08-16_08h49.10.115,HF_wild_card,2022.2.4,Win32,116.3196464,55e876f25e4d360012cc283d,64d2fd46c836a06233681665,64dc7f654fa711d3e01f21a9,,,,,,,decisionTrl,resources/DY.BMP,resources/DR.BMP,Door4,-0.167592593,0.006481481,1,0,0,1.0291,optionLeft,80,11300,5,30,0,30,0,1,,,,,,,,,,,,,,,,,,,,,,,,,,,,,,,,,,,,,,,
,,,,,,,,2023-08-16_08h49.10.115,HF_wild_card,2022.2.4,Win32,116.3196464,55e876f25e4d360012cc283d,64d2fd46c836a06233681665,64dc7f654fa711d3e01f21a9,,,,,,,sngl,resources/DB.BMP,resources/Empty.png,Door2,-0.155555556,0.010185185,1,0,0,0.8043,optionLeft,40,11340,5,31,0,31,0,1,,,,,,,,,,,,,,,,,,,,,,,,,,,,,,,,,,,,,,,
,,,,,,,,2023-08-16_08h49.10.115,HF_wild_card,2022.2.4,Win32,116.3196464,55e876f25e4d360012cc283d,64d2fd46c836a06233681665,64dc7f654fa711d3e01f21a9,,,,,,,sngl,resources/DY.BMP,resources/Empty.png,Door4,-0.175,0.038888889,1,0,0,0.5965,optionLeft,80,11420,5,32,0,32,0,1,,,,,,,,,,,,,,,,,,,,,,,,,,,,,,,,,,,,,,,
,,,,,,,,2023-08-16_08h49.10.115,HF_wild_card,2022.2.4,Win32,116.3196464,55e876f25e4d360012cc283d,64d2fd46c836a06233681665,64dc7f654fa711d3e01f21a9,,,,,,,decisionTrl,resources/DR.BMP,resources/DY.BMP,Door3,-0.185185185,0.037037037,1,0,0,1.071,optionLeft,70,11490,5,33,0,33,0,1,,,,,,,,,,,,,,,,,,,,,,,,,,,,,,,,,,,,,,,
,,,,,,,,2023-08-16_08h49.10.115,HF_wild_card,2022.2.4,Win32,116.3196464,55e876f25e4d360012cc283d,64d2fd46c836a06233681665,64dc7f654fa711d3e01f21a9,,,,,,,decisionTrl,resources/DR.BMP,resources/DY.BMP,Door3,-0.157407407,-0.019444444,1,0,0,0.9556,optionLeft,70,11560,5,34,0,34,0,1,,,,,,,,,,,,,,,,,,,,,,,,,,,,,,,,,,,,,,,
,,,,,,,,2023-08-16_08h49.10.115,HF_wild_card,2022.2.4,Win32,116.3196464,55e876f25e4d360012cc283d,64d2fd46c836a06233681665,64dc7f654fa711d3e01f21a9,,,,,,,decisionTrl,resources/DY.BMP,resources/DR.BMP,Door4,-0.138888889,-0.001851852,1,0,0,1.6632,optionLeft,80,11640,5,35,0,35,0,1,,,,,,,,,,,,,,,,,,,,,,,,,,,,,,,,,,,,,,,
,,,,,,,,2023-08-16_08h49.10.115,HF_wild_card,2022.2.4,Win32,116.3196464,55e876f25e4d360012cc283d,64d2fd46c836a06233681665,64dc7f654fa711d3e01f21a9,,,,,,,decisionTrl,resources/DR.BMP,resources/DG.BMP,Door3,-0.175,-0.036111111,1,0,0,1.7464,optionLeft,70,11710,5,36,0,36,0,1,,,,,,,,,,,,,,,,,,,,,,,,,,,,,,,,,,,,,,,
,,,,,,,,2023-08-16_08h49.10.115,HF_wild_card,2022.2.4,Win32,116.3196464,55e876f25e4d360012cc283d,64d2fd46c836a06233681665,64dc7f654fa711d3e01f21a9,,,,,,,sngl,resources/Empty.png,resources/DY.BMP,Door4,0.159259259,-0.028703704,1,0,0,0.886,optionRight,60,11770,5,37,0,37,0,1,,,,,,,,,,,,,,,,,,,,,,,,,,,,,,,,,,,,,,,
,,,,,,,,2023-08-16_08h49.10.115,HF_wild_card,2022.2.4,Win32,116.3196464,55e876f25e4d360012cc283d,64d2fd46c836a06233681665,64dc7f654fa711d3e01f21a9,,,,,,,sngl,resources/DR.BMP,resources/Empty.png,Door3,-0.2,-0.010185185,1,0,0,0.9629,optionLeft,70,11840,5,38,0,38,0,1,,,,,,,,,,,,,,,,,,,,,,,,,,,,,,,,,,,,,,,
,,,,,,,,2023-08-16_08h49.10.115,HF_wild_card,2022.2.4,Win32,116.3196464,55e876f25e4d360012cc283d,64d2fd46c836a06233681665,64dc7f654fa711d3e01f21a9,,,,,,,ctch,resources/DY.BMP,resources/DBN.BMP,Door4,-0.167592593,0.001851852,1,0,0,0.9456,optionLeft,60,11900,5,39,0,39,0,1,,,,,,,,,,,,,,,,,,,,,,,,,,,,,,,,,,,,,,,
,,,,,,,,2023-08-16_08h49.10.115,HF_wild_card,2022.2.4,Win32,116.3196464,55e876f25e4d360012cc283d,64d2fd46c836a06233681665,64dc7f654fa711d3e01f21a9,,,,,,,decisionTrl,resources/DB.BMP,resources/DBN.BMP,Door1,0.232407407,0.001851852,1,0,0,1.2381,optionRight,30,11930,5,40,0,40,0,1,,,,,,,,,,,,,,,,,,,,,,,,,,,,,,,,,,,,,,,
,,,,,,,,2023-08-16_08h49.10.115,HF_wild_card,2022.2.4,Win32,116.3196464,55e876f25e4d360012cc283d,64d2fd46c836a06233681665,64dc7f654fa711d3e01f21a9,,,,,,,decisionTrl,resources/DB.BMP,resources/DG.BMP,WildCard_Ex,0.156481481,-0.046296296,1,0,0,2.311,optionRight,95,12025,5,41,0,41,0,1,,,,,,,,,,,,,,,,,,,,,,,,,,,,,,,,,,,,,,,
,,,,,,,,2023-08-16_08h49.10.115,HF_wild_card,2022.2.4,Win32,116.3196464,55e876f25e4d360012cc283d,64d2fd46c836a06233681665,64dc7f654fa711d3e01f21a9,,,,,,,sngl,resources/DG.BMP,resources/Empty.png,WildCard_Ex,-0.234259259,-0.026851852,1,0,0,1.0795,optionLeft,5,12030,5,42,0,42,0,1,,,,,,,,,,,,,,,,,,,,,,,,,,,,,,,,,,,,,,,
,,,,,,,,2023-08-16_08h49.10.115,HF_wild_card,2022.2.4,Win32,116.3196464,55e876f25e4d360012cc283d,64d2fd46c836a06233681665,64dc7f654fa711d3e01f21a9,,,,,,,sngl,resources/DBN.BMP,resources/Empty.png,Door1,-0.162962963,0.021296296,1,0,0,0.5794,optionLeft,30,12060,5,43,0,43,0,1,,,,,,,,,,,,,,,,,,,,,,,,,,,,,,,,,,,,,,,
,,,,,,,,2023-08-16_08h49.10.115,HF_wild_card,2022.2.4,Win32,116.3196464,55e876f25e4d360012cc283d,64d2fd46c836a06233681665,64dc7f654fa711d3e01f21a9,,,,,,,,,,,,,,,,,,,,,,,,,,4,0,4,0,1,,,,,,,,,,,,,,,,,,,,,,,,,,,,,,,,,,
,,,,,,,,2023-08-16_08h49.10.115,HF_wild_card,2022.2.4,Win32,116.3196464,55e876f25e4d360012cc283d,64d2fd46c836a06233681665,64dc7f654fa711d3e01f21a9,,,,,,,sngl,resources/Empty.png,resources/DG.BMP,WildCard_Ex,0.22962963,-0.038888889,1,0,0,0.6777,optionRight,95,12155,6,0,0,0,0,1,,,,,,,,,,,,,,,,,,,,,,,,,,,,,,,,,,,,,,,
,,,,,,,,2023-08-16_08h49.10.115,HF_wild_card,2022.2.4,Win32,116.3196464,55e876f25e4d360012cc283d,64d2fd46c836a06233681665,64dc7f654fa711d3e01f21a9,,,,,,,decisionTrl,resources/DG.BMP,resources/DBN.BMP,WildCard_Ex,-0.225925926,-0.036111111,1,0,0,0.8594,optionLeft,95,12250,6,1,0,1,0,1,,,,,,,,,,,,,,,,,,,,,,,,,,,,,,,,,,,,,,,
,,,,,,,,2023-08-16_08h49.10.115,HF_wild_card,2022.2.4,Win32,116.3196464,55e876f25e4d360012cc283d,64d2fd46c836a06233681665,64dc7f654fa711d3e01f21a9,,,,,,,ctch,resources/DB.BMP,resources/DR.BMP,Door3,0.244444444,-0.001851852,1,0,0,0.9253,optionRight,70,12320,6,2,0,2,0,1,,,,,,,,,,,,,,,,,,,,,,,,,,,,,,,,,,,,,,,
,,,,,,,,2023-08-16_08h49.10.115,HF_wild_card,2022.2.4,Win32,116.3196464,55e876f25e4d360012cc283d,64d2fd46c836a06233681665,64dc7f654fa711d3e01f21a9,,,,,,,decisionTrl,resources/DG.BMP,resources/DY.BMP,Door4,0.213888889,0,1,0,0,1.1877,optionRight,60,12380,6,3,0,3,0,1,,,,,,,,,,,,,,,,,,,,,,,,,,,,,,,,,,,,,,,
,,,,,,,,2023-08-16_08h49.10.115,HF_wild_card,2022.2.4,Win32,116.3196464,55e876f25e4d360012cc283d,64d2fd46c836a06233681665,64dc7f654fa711d3e01f21a9,,,,,,,sngl,resources/DR.BMP,resources/Empty.png,Door3,-0.177777778,0.012037037,1,0,0,0.5549,optionLeft,70,12450,6,4,0,4,0,1,,,,,,,,,,,,,,,,,,,,,,,,,,,,,,,,,,,,,,,
,,,,,,,,2023-08-16_08h49.10.115,HF_wild_card,2022.2.4,Win32,116.3196464,55e876f25e4d360012cc283d,64d2fd46c836a06233681665,64dc7f654fa711d3e01f21a9,,,,,,,sngl,resources/Empty.png,resources/DB.BMP,Door2,0.233333333,0.003703704,1,0,0,0.9464,optionRight,40,12490,6,5,0,5,0,1,,,,,,,,,,,,,,,,,,,,,,,,,,,,,,,,,,,,,,,
,,,,,,,,2023-08-16_08h49.10.115,HF_wild_card,2022.2.4,Win32,116.3196464,55e876f25e4d360012cc283d,64d2fd46c836a06233681665,64dc7f654fa711d3e01f21a9,,,,,,,ctch,resources/DB.BMP,resources/DR.BMP,Door3,0.265740741,-0.009259259,1,0,0,0.8455,optionRight,70,12560,6,6,0,6,0,1,,,,,,,,,,,,,,,,,,,,,,,,,,,,,,,,,,,,,,,
,,,,,,,,2023-08-16_08h49.10.115,HF_wild_card,2022.2.4,Win32,116.3196464,55e876f25e4d360012cc283d,64d2fd46c836a06233681665,64dc7f654fa711d3e01f21a9,,,,,,,ctch,resources/DY.BMP,resources/DBN.BMP,Door4,-0.187037037,-0.008333333,1,0,0,1.3877,optionLeft,80,12640,6,7,0,7,0,1,,,,,,,,,,,,,,,,,,,,,,,,,,,,,,,,,,,,,,,
,,,,,,,,2023-08-16_08h49.10.115,HF_wild_card,2022.2.4,Win32,116.3196464,55e876f25e4d360012cc283d,64d2fd46c836a06233681665,64dc7f654fa711d3e01f21a9,,,,,,,ctch,resources/DR.BMP,resources/DB.BMP,Door3,-0.187962963,0.016666667,1,0,0,0.8879,optionLeft,70,12710,6,8,0,8,0,1,,,,,,,,,,,,,,,,,,,,,,,,,,,,,,,,,,,,,,,
,,,,,,,,2023-08-16_08h49.10.115,HF_wild_card,2022.2.4,Win32,116.3196464,55e876f25e4d360012cc283d,64d2fd46c836a06233681665,64dc7f654fa711d3e01f21a9,,,,,,,decisionTrl,resources/DB.BMP,resources/DBN.BMP,Door1,0.177777778,0.013888889,1,0,0,2.0712,optionRight,30,12740,6,9,0,9,0,1,,,,,,,,,,,,,,,,,,,,,,,,,,,,,,,,,,,,,,,
,,,,,,,,2023-08-16_08h49.10.115,HF_wild_card,2022.2.4,Win32,116.3196464,55e876f25e4d360012cc283d,64d2fd46c836a06233681665,64dc7f654fa711d3e01f21a9,,,,,,,ctch,resources/DY.BMP,resources/DBN.BMP,Door4,-0.223148148,0.007407407,1,0,0,0.8132,optionLeft,80,12820,6,10,0,10,0,1,,,,,,,,,,,,,,,,,,,,,,,,,,,,,,,,,,,,,,,
,,,,,,,,2023-08-16_08h49.10.115,HF_wild_card,2022.2.4,Win32,116.3196464,55e876f25e4d360012cc283d,64d2fd46c836a06233681665,64dc7f654fa711d3e01f21a9,,,,,,,sngl,resources/DB.BMP,resources/Empty.png,Door2,-0.122222222,0.010185185,1,0,0,0.7215,optionLeft,20,12840,6,11,0,11,0,1,,,,,,,,,,,,,,,,,,,,,,,,,,,,,,,,,,,,,,,
,,,,,,,,2023-08-16_08h49.10.115,HF_wild_card,2022.2.4,Win32,116.3196464,55e876f25e4d360012cc283d,64d2fd46c836a06233681665,64dc7f654fa711d3e01f21a9,,,,,,,decisionTrl,resources/DR.BMP,resources/DY.BMP,Door3,-0.188888889,-0.019444444,1,0,0,2.0042,optionLeft,70,12910,6,12,0,12,0,1,,,,,,,,,,,,,,,,,,,,,,,,,,,,,,,,,,,,,,,
,,,,,,,,2023-08-16_08h49.10.115,HF_wild_card,2022.2.4,Win32,116.3196464,55e876f25e4d360012cc283d,64d2fd46c836a06233681665,64dc7f654fa711d3e01f21a9,,,,,,,decisionTrl,resources/DBN.BMP,resources/DB.BMP,Door1,-0.198148148,0.012962963,1,0,0,1.3213,optionLeft,30,12940,6,13,0,13,0,1,,,,,,,,,,,,,,,,,,,,,,,,,,,,,,,,,,,,,,,
,,,,,,,,2023-08-16_08h49.10.115,HF_wild_card,2022.2.4,Win32,116.3196464,55e876f25e4d360012cc283d,64d2fd46c836a06233681665,64dc7f654fa711d3e01f21a9,,,,,,,decisionTrl,resources/DB.BMP,resources/DG.BMP,WildCard_Ex,0.219444444,0.001851852,1,0,0,0.9057,optionRight,95,13035,6,14,0,14,0,1,,,,,,,,,,,,,,,,,,,,,,,,,,,,,,,,,,,,,,,
,,,,,,,,2023-08-16_08h49.10.115,HF_wild_card,2022.2.4,Win32,116.3196464,55e876f25e4d360012cc283d,64d2fd46c836a06233681665,64dc7f654fa711d3e01f21a9,,,,,,,decisionTrl,resources/DR.BMP,resources/DG.BMP,Door3,-0.181481481,-0.011111111,1,0,0,1.5539,optionLeft,70,13105,6,15,0,15,0,1,,,,,,,,,,,,,,,,,,,,,,,,,,,,,,,,,,,,,,,
,,,,,,,,2023-08-16_08h49.10.115,HF_wild_card,2022.2.4,Win32,116.3196464,55e876f25e4d360012cc283d,64d2fd46c836a06233681665,64dc7f654fa711d3e01f21a9,,,,,,,decisionTrl,resources/DY.BMP,resources/DR.BMP,Door4,-0.148148148,-0.038888889,1,0,0,1.7128,optionLeft,60,13165,6,16,0,16,0,1,,,,,,,,,,,,,,,,,,,,,,,,,,,,,,,,,,,,,,,
,,,,,,,,2023-08-16_08h49.10.115,HF_wild_card,2022.2.4,Win32,116.3196464,55e876f25e4d360012cc283d,64d2fd46c836a06233681665,64dc7f654fa711d3e01f21a9,,,,,,,sngl,resources/Empty.png,resources/DBN.BMP,Door1,0.162037037,-0.030555556,1,0,0,0.8042,optionRight,30,13195,6,17,0,17,0,1,,,,,,,,,,,,,,,,,,,,,,,,,,,,,,,,,,,,,,,
,,,,,,,,2023-08-16_08h49.10.115,HF_wild_card,2022.2.4,Win32,116.3196464,55e876f25e4d360012cc283d,64d2fd46c836a06233681665,64dc7f654fa711d3e01f21a9,,,,,,,sngl,resources/DG.BMP,resources/Empty.png,WildCard_Ex,-0.124074074,-0.001851852,1,0,0,0.6459,optionLeft,95,13290,6,18,0,18,0,1,,,,,,,,,,,,,,,,,,,,,,,,,,,,,,,,,,,,,,,
,,,,,,,,2023-08-16_08h49.10.115,HF_wild_card,2022.2.4,Win32,116.3196464,55e876f25e4d360012cc283d,64d2fd46c836a06233681665,64dc7f654fa711d3e01f21a9,,,,,,,decisionTrl,resources/DB.BMP,resources/DBN.BMP,Door1,0.202777778,-0.033333333,1,0,0,1.3881,optionRight,30,13320,6,19,0,19,0,1,,,,,,,,,,,,,,,,,,,,,,,,,,,,,,,,,,,,,,,
,,,,,,,,2023-08-16_08h49.10.115,HF_wild_card,2022.2.4,Win32,116.3196464,55e876f25e4d360012cc283d,64d2fd46c836a06233681665,64dc7f654fa711d3e01f21a9,,,,,,,decisionTrl,resources/DB.BMP,resources/DBN.BMP,Door1,0.249074074,0.007407407,1,0,0,0.672,optionRight,30,13350,6,20,0,20,0,1,,,,,,,,,,,,,,,,,,,,,,,,,,,,,,,,,,,,,,,
,,,,,,,,2023-08-16_08h49.10.115,HF_wild_card,2022.2.4,Win32,116.3196464,55e876f25e4d360012cc283d,64d2fd46c836a06233681665,64dc7f654fa711d3e01f21a9,,,,,,,sngl,resources/Empty.png,resources/DR.BMP,Door3,0.159259259,0.001851852,1,0,0,0.6205,optionRight,70,13420,6,21,0,21,0,1,,,,,,,,,,,,,,,,,,,,,,,,,,,,,,,,,,,,,,,
,,,,,,,,2023-08-16_08h49.10.115,HF_wild_card,2022.2.4,Win32,116.3196464,55e876f25e4d360012cc283d,64d2fd46c836a06233681665,64dc7f654fa711d3e01f21a9,,,,,,,sngl,resources/DBN.BMP,resources/Empty.png,Door1,-0.200925926,-0.024074074,1,0,0,0.5295,optionLeft,30,13450,6,22,0,22,0,1,,,,,,,,,,,,,,,,,,,,,,,,,,,,,,,,,,,,,,,
,,,,,,,,2023-08-16_08h49.10.115,HF_wild_card,2022.2.4,Win32,116.3196464,55e876f25e4d360012cc283d,64d2fd46c836a06233681665,64dc7f654fa711d3e01f21a9,,,,,,,decisionTrl,resources/DY.BMP,resources/DR.BMP,Door4,-0.212037037,-0.015740741,1,0,0,1.0544,optionLeft,80,13530,6,23,0,23,0,1,,,,,,,,,,,,,,,,,,,,,,,,,,,,,,,,,,,,,,,
,,,,,,,,2023-08-16_08h49.10.115,HF_wild_card,2022.2.4,Win32,116.3196464,55e876f25e4d360012cc283d,64d2fd46c836a06233681665,64dc7f654fa711d3e01f21a9,,,,,,,decisionTrl,resources/DR.BMP,resources/DY.BMP,Door3,-0.160185185,0,1,0,0,1.2298,optionLeft,70,13600,6,24,0,24,0,1,,,,,,,,,,,,,,,,,,,,,,,,,,,,,,,,,,,,,,,
,,,,,,,,2023-08-16_08h49.10.115,HF_wild_card,2022.2.4,Win32,116.3196464,55e876f25e4d360012cc283d,64d2fd46c836a06233681665,64dc7f654fa711d3e01f21a9,,,,,,,decisionTrl,resources/DY.BMP,resources/DR.BMP,Door4,-0.199074074,0.012037037,1,0,0,0.9544,optionLeft,60,13660,6,25,0,25,0,1,,,,,,,,,,,,,,,,,,,,,,,,,,,,,,,,,,,,,,,
,,,,,,,,2023-08-16_08h49.10.115,HF_wild_card,2022.2.4,Win32,116.3196464,55e876f25e4d360012cc283d,64d2fd46c836a06233681665,64dc7f654fa711d3e01f21a9,,,,,,,sngl,resources/DG.BMP,resources/Empty.png,WildCard_Ex,-0.203703704,0.002777778,1,0,0,0.7548,optionLeft,5,13665,6,26,0,26,0,1,,,,,,,,,,,,,,,,,,,,,,,,,,,,,,,,,,,,,,,
,,,,,,,,2023-08-16_08h49.10.115,HF_wild_card,2022.2.4,Win32,116.3196464,55e876f25e4d360012cc283d,64d2fd46c836a06233681665,64dc7f654fa711d3e01f21a9,,,,,,,ctch,resources/DBN.BMP,resources/DY.BMP,Door4,0.228703704,-0.025925926,1,0,0,0.8873,optionRight,80,13745,6,27,0,27,0,1,,,,,,,,,,,,,,,,,,,,,,,,,,,,,,,,,,,,,,,
,,,,,,,,2023-08-16_08h49.10.115,HF_wild_card,2022.2.4,Win32,116.3196464,55e876f25e4d360012cc283d,64d2fd46c836a06233681665,64dc7f654fa711d3e01f21a9,,,,,,,decisionTrl,resources/DG.BMP,resources/DB.BMP,WildCard_Ex,-0.221296296,-0.023148148,1,0,0,1.1886,optionLeft,95,13840,6,28,0,28,0,1,,,,,,,,,,,,,,,,,,,,,,,,,,,,,,,,,,,,,,,
,,,,,,,,2023-08-16_08h49.10.115,HF_wild_card,2022.2.4,Win32,116.3196464,55e876f25e4d360012cc283d,64d2fd46c836a06233681665,64dc7f654fa711d3e01f21a9,,,,,,,decisionTrl,resources/DBN.BMP,resources/DG.BMP,WildCard_Ex,0.106481481,-0.025,1,0,0,1.4672,optionRight,5,13845,6,29,0,29,0,1,,,,,,,,,,,,,,,,,,,,,,,,,,,,,,,,,,,,,,,
,,,,,,,,2023-08-16_08h49.10.115,HF_wild_card,2022.2.4,Win32,116.3196464,55e876f25e4d360012cc283d,64d2fd46c836a06233681665,64dc7f654fa711d3e01f21a9,,,,,,,decisionTrl,resources/DY.BMP,resources/DG.BMP,Door4,-0.175925926,-0.009259259,1,0,0,0.952,optionLeft,60,13905,6,30,0,30,0,1,,,,,,,,,,,,,,,,,,,,,,,,,,,,,,,,,,,,,,,
,,,,,,,,2023-08-16_08h49.10.115,HF_wild_card,2022.2.4,Win32,116.3196464,55e876f25e4d360012cc283d,64d2fd46c836a06233681665,64dc7f654fa711d3e01f21a9,,,,,,,ctch,resources/DBN.BMP,resources/DY.BMP,Door4,0.213888889,-0.025,1,0,0,1.287,optionRight,80,13985,6,31,0,31,0,1,,,,,,,,,,,,,,,,,,,,,,,,,,,,,,,,,,,,,,,
,,,,,,,,2023-08-16_08h49.10.115,HF_wild_card,2022.2.4,Win32,116.3196464,55e876f25e4d360012cc283d,64d2fd46c836a06233681665,64dc7f654fa711d3e01f21a9,,,,,,,decisionTrl,resources/DB.BMP,resources/DBN.BMP,Door1,0.201851852,-0.031481481,1,0,0,1.4058,optionRight,30,14015,6,32,0,32,0,1,,,,,,,,,,,,,,,,,,,,,,,,,,,,,,,,,,,,,,,
,,,,,,,,2023-08-16_08h49.10.115,HF_wild_card,2022.2.4,Win32,116.3196464,55e876f25e4d360012cc283d,64d2fd46c836a06233681665,64dc7f654fa711d3e01f21a9,,,,,,,decisionTrl,resources/DBN.BMP,resources/DB.BMP,Door1,-0.180555556,-0.012037037,1,0,0,0.9351,optionLeft,30,14045,6,33,0,33,0,1,,,,,,,,,,,,,,,,,,,,,,,,,,,,,,,,,,,,,,,
,,,,,,,,2023-08-16_08h49.10.115,HF_wild_card,2022.2.4,Win32,116.3196464,55e876f25e4d360012cc283d,64d2fd46c836a06233681665,64dc7f654fa711d3e01f21a9,,,,,,,sngl,resources/DY.BMP,resources/Empty.png,Door4,-0.159259259,-0.002777778,1,0,0,0.638,optionLeft,60,14105,6,34,0,34,0,1,,,,,,,,,,,,,,,,,,,,,,,,,,,,,,,,,,,,,,,
,,,,,,,,2023-08-16_08h49.10.115,HF_wild_card,2022.2.4,Win32,116.3196464,55e876f25e4d360012cc283d,64d2fd46c836a06233681665,64dc7f654fa711d3e01f21a9,,,,,,,decisionTrl,resources/DG.BMP,resources/DR.BMP,Door3,0.196296296,-0.024074074,1,0,0,1.5204,optionRight,70,14175,6,35,0,35,0,1,,,,,,,,,,,,,,,,,,,,,,,,,,,,,,,,,,,,,,,
,,,,,,,,2023-08-16_08h49.10.115,HF_wild_card,2022.2.4,Win32,116.3196464,55e876f25e4d360012cc283d,64d2fd46c836a06233681665,64dc7f654fa711d3e01f21a9,,,,,,,ctch,resources/DR.BMP,resources/DB.BMP,Door3,-0.216666667,0.000925926,1,0,0,0.6214,optionLeft,70,14245,6,36,0,36,0,1,,,,,,,,,,,,,,,,,,,,,,,,,,,,,,,,,,,,,,,
,,,,,,,,2023-08-16_08h49.10.115,HF_wild_card,2022.2.4,Win32,116.3196464,55e876f25e4d360012cc283d,64d2fd46c836a06233681665,64dc7f654fa711d3e01f21a9,,,,,,,sngl,resources/Empty.png,resources/DY.BMP,Door4,0.142592593,0.019444444,1,0,0,0.7037,optionRight,80,14325,6,37,0,37,0,1,,,,,,,,,,,,,,,,,,,,,,,,,,,,,,,,,,,,,,,
,,,,,,,,2023-08-16_08h49.10.115,HF_wild_card,2022.2.4,Win32,116.3196464,55e876f25e4d360012cc283d,64d2fd46c836a06233681665,64dc7f654fa711d3e01f21a9,,,,,,,decisionTrl,resources/DR.BMP,resources/DY.BMP,Door3,-0.187962963,0.003703704,1,0,0,1.8295,optionLeft,70,14395,6,38,0,38,0,1,,,,,,,,,,,,,,,,,,,,,,,,,,,,,,,,,,,,,,,
,,,,,,,,2023-08-16_08h49.10.115,HF_wild_card,2022.2.4,Win32,116.3196464,55e876f25e4d360012cc283d,64d2fd46c836a06233681665,64dc7f654fa711d3e01f21a9,,,,,,,sngl,resources/Empty.png,resources/DG.BMP,WildCard_Ex,0.226851852,-0.008333333,1,0,0,1.0793,optionRight,5,14400,6,39,0,39,0,1,,,,,,,,,,,,,,,,,,,,,,,,,,,,,,,,,,,,,,,
,,,,,,,,2023-08-16_08h49.10.115,HF_wild_card,2022.2.4,Win32,116.3196464,55e876f25e4d360012cc283d,64d2fd46c836a06233681665,64dc7f654fa711d3e01f21a9,,,,,,,decisionTrl,resources/DY.BMP,resources/DR.BMP,Door4,-0.249074074,-0.005555556,1,0,0,1.7968,optionLeft,80,14480,6,40,0,40,0,1,,,,,,,,,,,,,,,,,,,,,,,,,,,,,,,,,,,,,,,
,,,,,,,,2023-08-16_08h49.10.115,HF_wild_card,2022.2.4,Win32,116.3196464,55e876f25e4d360012cc283d,64d2fd46c836a06233681665,64dc7f654fa711d3e01f21a9,,,,,,,decisionTrl,resources/DR.BMP,resources/DY.BMP,Door3,-0.209259259,-0.002777778,1,0,0,0.8548,optionLeft,70,14550,6,41,0,41,0,1,,,,,,,,,,,,,,,,,,,,,,,,,,,,,,,,,,,,,,,
,,,,,,,,2023-08-16_08h49.10.115,HF_wild_card,2022.2.4,Win32,116.3196464,55e876f25e4d360012cc283d,64d2fd46c836a06233681665,64dc7f654fa711d3e01f21a9,,,,,,,decisionTrl,resources/DBN.BMP,resources/DB.BMP,Door1,-0.15462963,0.018518519,1,0,0,1.2793,optionLeft,30,14580,6,42,0,42,0,1,,,,,,,,,,,,,,,,,,,,,,,,,,,,,,,,,,,,,,,
,,,,,,,,2023-08-16_08h49.10.115,HF_wild_card,2022.2.4,Win32,116.3196464,55e876f25e4d360012cc283d,64d2fd46c836a06233681665,64dc7f654fa711d3e01f21a9,,,,,,,decisionTrl,resources/DBN.BMP,resources/DB.BMP,Door1,-0.236111111,-0.012962963,1,0,0,0.7536,optionLeft,30,14610,6,43,0,43,0,1,,,,,,,,,,,,,,,,,,,,,,,,,,,,,,,,,,,,,,,
,,,,,,,,2023-08-16_08h49.10.115,HF_wild_card,2022.2.4,Win32,116.3196464,55e876f25e4d360012cc283d,64d2fd46c836a06233681665,64dc7f654fa711d3e01f21a9,,,,,,,,,,,,,,,,,,,,,,,,,,5,0,5,0,1,,,,,,,,,,,,,,,,,,,,,,,,,,,,,,,,,,
,,,,,,,,2023-08-16_08h49.10.115,HF_wild_card,2022.2.4,Win32,116.3196464,55e876f25e4d360012cc283d,64d2fd46c836a06233681665,64dc7f654fa711d3e01f21a9,,,,,,,decisionTrl,resources/DR.BMP,resources/DY.BMP,Door3,-0.22037037,-0.025,1,0,0,1.214,optionLeft,70,14680,7,0,0,0,0,1,,,,,,,,,,,,,,,,,,,,,,,,,,,,,,,,,,,,,,,
,,,,,,,,2023-08-16_08h49.10.115,HF_wild_card,2022.2.4,Win32,116.3196464,55e876f25e4d360012cc283d,64d2fd46c836a06233681665,64dc7f654fa711d3e01f21a9,,,,,,,decisionTrl,resources/DB.BMP,resources/DBN.BMP,Door1,0.247222222,0.012037037,1,0,0,0.9662,optionRight,30,14710,7,1,0,1,0,1,,,,,,,,,,,,,,,,,,,,,,,,,,,,,,,,,,,,,,,
,,,,,,,,2023-08-16_08h49.10.115,HF_wild_card,2022.2.4,Win32,116.3196464,55e876f25e4d360012cc283d,64d2fd46c836a06233681665,64dc7f654fa711d3e01f21a9,,,,,,,decisionTrl,resources/DBN.BMP,resources/DB.BMP,Door1,-0.190740741,0.015740741,1,0,0,0.9137,optionLeft,30,14740,7,2,0,2,0,1,,,,,,,,,,,,,,,,,,,,,,,,,,,,,,,,,,,,,,,
,,,,,,,,2023-08-16_08h49.10.115,HF_wild_card,2022.2.4,Win32,116.3196464,55e876f25e4d360012cc283d,64d2fd46c836a06233681665,64dc7f654fa711d3e01f21a9,,,,,,,decisionTrl,resources/DY.BMP,resources/DR.BMP,Door4,-0.19537037,0.000925926,1,0,0,1.1254,optionLeft,80,14820,7,3,0,3,0,1,,,,,,,,,,,,,,,,,,,,,,,,,,,,,,,,,,,,,,,
,,,,,,,,2023-08-16_08h49.10.115,HF_wild_card,2022.2.4,Win32,116.3196464,55e876f25e4d360012cc283d,64d2fd46c836a06233681665,64dc7f654fa711d3e01f21a9,,,,,,,ctch,resources/DBN.BMP,resources/DY.BMP,Door4,0.247222222,0,1,0,0,1.2381,optionRight,80,14900,7,4,0,4,0,1,,,,,,,,,,,,,,,,,,,,,,,,,,,,,,,,,,,,,,,
,,,,,,,,2023-08-16_08h49.10.115,HF_wild_card,2022.2.4,Win32,116.3196464,55e876f25e4d360012cc283d,64d2fd46c836a06233681665,64dc7f654fa711d3e01f21a9,,,,,,,ctch,resources/DB.BMP,resources/DR.BMP,Door3,0.240740741,0.033333333,1,0,0,0.7912,optionRight,70,14970,7,5,0,5,0,1,,,,,,,,,,,,,,,,,,,,,,,,,,,,,,,,,,,,,,,
,,,,,,,,2023-08-16_08h49.10.115,HF_wild_card,2022.2.4,Win32,116.3196464,55e876f25e4d360012cc283d,64d2fd46c836a06233681665,64dc7f654fa711d3e01f21a9,,,,,,,decisionTrl,resources/DBN.BMP,resources/DB.BMP,Door1,-0.194444444,0.006481481,1,0,0,1.2939,optionLeft,30,15000,7,6,0,6,0,1,,,,,,,,,,,,,,,,,,,,,,,,,,,,,,,,,,,,,,,
,,,,,,,,2023-08-16_08h49.10.115,HF_wild_card,2022.2.4,Win32,116.3196464,55e876f25e4d360012cc283d,64d2fd46c836a06233681665,64dc7f654fa711d3e01f21a9,,,,,,,decisionTrl,resources/DR.BMP,resources/DY.BMP,Door3,-0.15,-0.035185185,1,0,0,1.0479,optionLeft,70,15070,7,7,0,7,0,1,,,,,,,,,,,,,,,,,,,,,,,,,,,,,,,,,,,,,,,
,,,,,,,,2023-08-16_08h49.10.115,HF_wild_card,2022.2.4,Win32,116.3196464,55e876f25e4d360012cc283d,64d2fd46c836a06233681665,64dc7f654fa711d3e01f21a9,,,,,,,decisionTrl,resources/DB.BMP,resources/DBN.BMP,Door1,0.182407407,-0.002777778,1,0,0,0.8604,optionRight,30,15100,7,8,0,8,0,1,,,,,,,,,,,,,,,,,,,,,,,,,,,,,,,,,,,,,,,
,,,,,,,,2023-08-16_08h49.10.115,HF_wild_card,2022.2.4,Win32,116.3196464,55e876f25e4d360012cc283d,64d2fd46c836a06233681665,64dc7f654fa711d3e01f21a9,,,,,,,ctch,resources/DBN.BMP,resources/DY.BMP,Door4,0.248148148,-0.00462963,1,0,0,1.2885,optionRight,80,15180,7,9,0,9,0,1,,,,,,,,,,,,,,,,,,,,,,,,,,,,,,,,,,,,,,,
,,,,,,,,2023-08-16_08h49.10.115,HF_wild_card,2022.2.4,Win32,116.3196464,55e876f25e4d360012cc283d,64d2fd46c836a06233681665,64dc7f654fa711d3e01f21a9,,,,,,,decisionTrl,resources/DR.BMP,resources/DY.BMP,Door3,-0.212962963,0.010185185,1,0,0,0.9471,optionLeft,70,15250,7,10,0,10,0,1,,,,,,,,,,,,,,,,,,,,,,,,,,,,,,,,,,,,,,,
,,,,,,,,2023-08-16_08h49.10.115,HF_wild_card,2022.2.4,Win32,116.3196464,55e876f25e4d360012cc283d,64d2fd46c836a06233681665,64dc7f654fa711d3e01f21a9,,,,,,,decisionTrl,resources/DY.BMP,resources/DR.BMP,Door4,-0.232407407,0.030555556,1,0,0,1.1383,optionLeft,80,15330,7,11,0,11,0,1,,,,,,,,,,,,,,,,,,,,,,,,,,,,,,,,,,,,,,,
,,,,,,,,2023-08-16_08h49.10.115,HF_wild_card,2022.2.4,Win32,116.3196464,55e876f25e4d360012cc283d,64d2fd46c836a06233681665,64dc7f654fa711d3e01f21a9,,,,,,,ctch,resources/DR.BMP,resources/DB.BMP,Door3,-0.22962963,0.028703704,1,0,0,0.87,optionLeft,70,15400,7,12,0,12,0,1,,,,,,,,,,,,,,,,,,,,,,,,,,,,,,,,,,,,,,,
,,,,,,,,2023-08-16_08h49.10.115,HF_wild_card,2022.2.4,Win32,116.3196464,55e876f25e4d360012cc283d,64d2fd46c836a06233681665,64dc7f654fa711d3e01f21a9,,,,,,,decisionTrl,resources/DY.BMP,resources/DR.BMP,Door4,-0.241666667,0.016666667,1,0,0,1.4471,optionLeft,60,15460,7,13,0,13,0,1,,,,,,,,,,,,,,,,,,,,,,,,,,,,,,,,,,,,,,,
,,,,,,,,2023-08-16_08h49.10.115,HF_wild_card,2022.2.4,Win32,116.3196464,55e876f25e4d360012cc283d,64d2fd46c836a06233681665,64dc7f654fa711d3e01f21a9,,,,,,,ctch,resources/DY.BMP,resources/DBN.BMP,Door4,-0.226851852,0.008333333,1,0,0,0.9875,optionLeft,80,15540,7,14,0,14,0,1,,,,,,,,,,,,,,,,,,,,,,,,,,,,,,,,,,,,,,,
,,,,,,,,2023-08-16_08h49.10.115,HF_wild_card,2022.2.4,Win32,116.3196464,55e876f25e4d360012cc283d,64d2fd46c836a06233681665,64dc7f654fa711d3e01f21a9,,,,,,,decisionTrl,resources/DR.BMP,resources/DY.BMP,Door3,-0.262037037,0.039814815,1,0,0,1.1904,optionLeft,70,15610,7,15,0,15,0,1,,,,,,,,,,,,,,,,,,,,,,,,,,,,,,,,,,,,,,,
,,,,,,,,2023-08-16_08h49.10.115,HF_wild_card,2022.2.4,Win32,116.3196464,55e876f25e4d360012cc283d,64d2fd46c836a06233681665,64dc7f654fa711d3e01f21a9,,,,,,,decisionTrl,resources/DBN.BMP,resources/DB.BMP,Door1,-0.228703704,0.018518519,1,0,0,0.8321,optionLeft,30,15640,7,16,0,16,0,1,,,,,,,,,,,,,,,,,,,,,,,,,,,,,,,,,,,,,,,
,,,,,,,,2023-08-16_08h49.10.115,HF_wild_card,2022.2.4,Win32,116.3196464,55e876f25e4d360012cc283d,64d2fd46c836a06233681665,64dc7f654fa711d3e01f21a9,,,,,,,ctch,resources/DB.BMP,resources/DR.BMP,Door3,0.256481481,-0.003703704,1,0,0,1.1157,optionRight,70,15710,7,17,0,17,0,1,,,,,,,,,,,,,,,,,,,,,,,,,,,,,,,,,,,,,,,
,,,,,,,,2023-08-16_08h49.10.115,HF_wild_card,2022.2.4,Win32,116.3196464,55e876f25e4d360012cc283d,64d2fd46c836a06233681665,64dc7f654fa711d3e01f21a9,,,,,,,ctch,resources/DBN.BMP,resources/DY.BMP,Door4,0.192592593,-0.022222222,1,0,0,1.2239,optionRight,60,15770,7,18,0,18,0,1,,,,,,,,,,,,,,,,,,,,,,,,,,,,,,,,,,,,,,,
,,,,,,,,2023-08-16_08h49.10.115,HF_wild_card,2022.2.4,Win32,116.3196464,55e876f25e4d360012cc283d,64d2fd46c836a06233681665,64dc7f654fa711d3e01f21a9,,,,,,,decisionTrl,resources/DY.BMP,resources/DR.BMP,Door4,-0.185185185,-0.008333333,1,0,0,0.9885,optionLeft,60,15830,7,19,0,19,0,1,,,,,,,,,,,,,,,,,,,,,,,,,,,,,,,,,,,,,,,
,,,,,,,,2023-08-16_08h49.10.115,HF_wild_card,2022.2.4,Win32,116.3196464,55e876f25e4d360012cc283d,64d2fd46c836a06233681665,64dc7f654fa711d3e01f21a9,,,,,,,ctch,resources/DR.BMP,resources/DB.BMP,Door3,-0.223148148,0.005555556,1,0,0,0.853,optionLeft,70,15900,7,20,0,20,0,1,,,,,,,,,,,,,,,,,,,,,,,,,,,,,,,,,,,,,,,
,,,,,,,,2023-08-16_08h49.10.115,HF_wild_card,2022.2.4,Win32,116.3196464,55e876f25e4d360012cc283d,64d2fd46c836a06233681665,64dc7f654fa711d3e01f21a9,,,,,,,decisionTrl,resources/DR.BMP,resources/DY.BMP,Door3,-0.167592593,-0.001851852,1,0,0,1.1391,optionLeft,70,15970,7,21,0,21,0,1,,,,,,,,,,,,,,,,,,,,,,,,,,,,,,,,,,,,,,,
,,,,,,,,2023-08-16_08h49.10.115,HF_wild_card,2022.2.4,Win32,116.3196464,55e876f25e4d360012cc283d,64d2fd46c836a06233681665,64dc7f654fa711d3e01f21a9,,,,,,,ctch,resources/DY.BMP,resources/DBN.BMP,Door4,-0.219444444,0.026851852,1,0,0,0.9806,optionLeft,80,16050,7,22,0,22,0,1,,,,,,,,,,,,,,,,,,,,,,,,,,,,,,,,,,,,,,,
,,,,,,,,2023-08-16_08h49.10.115,HF_wild_card,2022.2.4,Win32,116.3196464,55e876f25e4d360012cc283d,64d2fd46c836a06233681665,64dc7f654fa711d3e01f21a9,,,,,,,decisionTrl,resources/DB.BMP,resources/DBN.BMP,Door1,0.231481481,0.006481481,1,0,0,0.7936,optionRight,30,16080,7,23,0,23,0,1,,,,,,,,,,,,,,,,,,,,,,,,,,,,,,,,,,,,,,,
,,,,,,,,2023-08-16_08h49.10.115,HF_wild_card,2022.2.4,Win32,116.3196464,55e876f25e4d360012cc283d,64d2fd46c836a06233681665,64dc7f654fa711d3e01f21a9,,,,,,,decisionTrl,resources/DY.BMP,resources/DR.BMP,Door4,-0.176851852,0.023148148,1,0,0,1.3021,optionLeft,80,16160,7,24,0,24,0,1,,,,,,,,,,,,,,,,,,,,,,,,,,,,,,,,,,,,,,,
,,,,,,,,2023-08-16_08h49.10.115,HF_wild_card,2022.2.4,Win32,116.3196464,55e876f25e4d360012cc283d,64d2fd46c836a06233681665,64dc7f654fa711d3e01f21a9,,,,,,,ctch,resources/DR.BMP,resources/DB.BMP,Door3,-0.175925926,-0.010185185,1,0,0,1.1468,optionLeft,70,16230,7,25,0,25,0,1,,,,,,,,,,,,,,,,,,,,,,,,,,,,,,,,,,,,,,,
,,,,,,,,2023-08-16_08h49.10.115,HF_wild_card,2022.2.4,Win32,116.3196464,55e876f25e4d360012cc283d,64d2fd46c836a06233681665,64dc7f654fa711d3e01f21a9,,,,,,,decisionTrl,resources/DBN.BMP,resources/DB.BMP,Door1,-0.216666667,-0.012037037,1,0,0,1.1751,optionLeft,30,16260,7,26,0,26,0,1,,,,,,,,,,,,,,,,,,,,,,,,,,,,,,,,,,,,,,,
,,,,,,,,2023-08-16_08h49.10.115,HF_wild_card,2022.2.4,Win32,116.3196464,55e876f25e4d360012cc283d,64d2fd46c836a06233681665,64dc7f654fa711d3e01f21a9,,,,,,,decisionTrl,resources/DB.BMP,resources/DBN.BMP,Door1,0.202777778,0.032407407,1,0,0,1.098,optionRight,30,16290,7,27,0,27,0,1,,,,,,,,,,,,,,,,,,,,,,,,,,,,,,,,,,,,,,,
,,,,,,,,2023-08-16_08h49.10.115,HF_wild_card,2022.2.4,Win32,116.3196464,55e876f25e4d360012cc283d,64d2fd46c836a06233681665,64dc7f654fa711d3e01f21a9,,,,,,,decisionTrl,resources/DBN.BMP,resources/DB.BMP,Door1,-0.173148148,0.00462963,1,0,0,0.9965,optionLeft,30,16320,7,28,0,28,0,1,,,,,,,,,,,,,,,,,,,,,,,,,,,,,,,,,,,,,,,
,,,,,,,,2023-08-16_08h49.10.115,HF_wild_card,2022.2.4,Win32,116.3196464,55e876f25e4d360012cc283d,64d2fd46c836a06233681665,64dc7f654fa711d3e01f21a9,,,,,,,decisionTrl,resources/DB.BMP,resources/DBN.BMP,Door1,0.209259259,0.010185185,1,0,0,0.7651,optionRight,30,16350,7,29,0,29,0,1,,,,,,,,,,,,,,,,,,,,,,,,,,,,,,,,,,,,,,,
,,,,,,,,2023-08-16_08h49.10.115,HF_wild_card,2022.2.4,Win32,116.3196464,55e876f25e4d360012cc283d,64d2fd46c836a06233681665,64dc7f654fa711d3e01f21a9,,,,,,,ctch,resources/DY.BMP,resources/DBN.BMP,Door4,-0.187037037,0.009259259,1,0,0,1.2315,optionLeft,60,16410,7,30,0,30,0,1,,,,,,,,,,,,,,,,,,,,,,,,,,,,,,,,,,,,,,,
,,,,,,,,2023-08-16_08h49.10.115,HF_wild_card,2022.2.4,Win32,116.3196464,55e876f25e4d360012cc283d,64d2fd46c836a06233681665,64dc7f654fa711d3e01f21a9,,,,,,,decisionTrl,resources/DR.BMP,resources/DY.BMP,Door3,-0.213888889,0.035185185,1,0,0,0.8567,optionLeft,70,16480,7,31,0,31,0,1,,,,,,,,,,,,,,,,,,,,,,,,,,,,,,,,,,,,,,,
,,,,,,,,2023-08-16_08h49.10.115,HF_wild_card,2022.2.4,Win32,116.3196464,55e876f25e4d360012cc283d,64d2fd46c836a06233681665,64dc7f654fa711d3e01f21a9,,,,,,,decisionTrl,resources/DBN.BMP,resources/DB.BMP,Door1,-0.172222222,0.003703704,1,0,0,0.848,optionLeft,30,16510,7,32,0,32,0,1,,,,,,,,,,,,,,,,,,,,,,,,,,,,,,,,,,,,,,,
,,,,,,,,2023-08-16_08h49.10.115,HF_wild_card,2022.2.4,Win32,116.3196464,55e876f25e4d360012cc283d,64d2fd46c836a06233681665,64dc7f654fa711d3e01f21a9,,,,,,,ctch,resources/DB.BMP,resources/DR.BMP,Door3,0.238888889,0.025,1,0,0,0.7895,optionRight,70,16580,7,33,0,33,0,1,,,,,,,,,,,,,,,,,,,,,,,,,,,,,,,,,,,,,,,
,,,,,,,,2023-08-16_08h49.10.115,HF_wild_card,2022.2.4,Win32,116.3196464,55e876f25e4d360012cc283d,64d2fd46c836a06233681665,64dc7f654fa711d3e01f21a9,,,,,,,decisionTrl,resources/DB.BMP,resources/DBN.BMP,Door1,0.213888889,0.007407407,1,0,0,1.2072,optionRight,30,16610,7,34,0,34,0,1,,,,,,,,,,,,,,,,,,,,,,,,,,,,,,,,,,,,,,,
,,,,,,,,2023-08-16_08h49.10.115,HF_wild_card,2022.2.4,Win32,116.3196464,55e876f25e4d360012cc283d,64d2fd46c836a06233681665,64dc7f654fa711d3e01f21a9,,,,,,,decisionTrl,resources/DY.BMP,resources/DR.BMP,Door4,-0.175,0.018518519,1,0,0,0.8735,optionLeft,60,16670,7,35,0,35,0,1,,,,,,,,,,,,,,,,,,,,,,,,,,,,,,,,,,,,,,,
,,,,,,,,2023-08-16_08h49.10.115,HF_wild_card,2022.2.4,Win32,116.3196464,55e876f25e4d360012cc283d,64d2fd46c836a06233681665,64dc7f654fa711d3e01f21a9,,,,,,,,,,,,,,,,,,,,,,,,,,6,0,6,0,1,,,,,,,,,,,,,,,,,,,,,,,,,,,,,,,,,,
,,,,,,,,2023-08-16_08h49.10.115,HF_wild_card,2022.2.4,Win32,116.3196464,55e876f25e4d360012cc283d,64d2fd46c836a06233681665,64dc7f654fa711d3e01f21a9,,,,,,,,,,,,,,,,,,,,,,,,,,,,,,,4,,,,,,,,,,,,,,,,,,,,,,,,,,,,,,,,,
,,,,,,,,2023-08-16_08h49.10.115,HF_wild_card,2022.2.4,Win32,116.3196464,55e876f25e4d360012cc283d,64d2fd46c836a06233681665,64dc7f654fa711d3e01f21a9,,,,,,,,,,,,,,,,,,,,,,,,,,,,,,,,,,,,,,,,,,,,,,,,,,,,,,,,,,,,,,,,
,,,,,,,,2023-08-16_08h49.10.115,HF_wild_card,2022.2.4,Win32,116.3196464,55e876f25e4d360012cc283d,64d2fd46c836a06233681665,64dc7f654fa711d3e01f21a9,,,,,,,,,,,,,,,,,,,,,,,,,,,,,,,,20,Door2,resources/DB.BMP,0,0,0,0,1,,,,,,,,,,,,,,,,,,,,,,,,,
,,,,,,,,2023-08-16_08h49.10.115,HF_wild_card,2022.2.4,Win32,116.3196464,55e876f25e4d360012cc283d,64d2fd46c836a06233681665,64dc7f654fa711d3e01f21a9,,,,,,,,,,,,,,,,,,,,,,,,,,,,,,,,5,WC_extreme,resources/DG.BMP,1,0,1,0,1,,,,,,,,,,,,,,,,,,,,,,,,,
,,,,,,,,2023-08-16_08h49.10.115,HF_wild_card,2022.2.4,Win32,116.3196464,55e876f25e4d360012cc283d,64d2fd46c836a06233681665,64dc7f654fa711d3e01f21a9,,,,,,,,,,,,,,,,,,,,,,,,,,,,,,,,55,WC_nonExtreme,resources/DP.BMP,2,0,2,0,1,,,,,,,,,,,,,,,,,,,,,,,,,
,,,,,,,,2023-08-16_08h49.10.115,HF_wild_card,2022.2.4,Win32,116.3196464,55e876f25e4d360012cc283d,64d2fd46c836a06233681665,64dc7f654fa711d3e01f21a9,,,,,,,,,,,,,,,,,,,,,,,,,,,,,,,,80,Door4,resources/DY.BMP,3,0,3,0,1,,,,,,,,,,,,,,,,,,,,,,,,,
,,,,,,,,2023-08-16_08h49.10.115,HF_wild_card,2022.2.4,Win32,116.3196464,55e876f25e4d360012cc283d,64d2fd46c836a06233681665,64dc7f654fa711d3e01f21a9,,,,,,,,,,,,,,,,,,,,,,,,,,,,,,,,30,Door1,resources/DBN.BMP,4,0,4,0,1,,,,,,,,,,,,,,,,,,,,,,,,,
,,,,,,,,2023-08-16_08h49.10.115,HF_wild_card,2022.2.4,Win32,116.3196464,55e876f25e4d360012cc283d,64d2fd46c836a06233681665,64dc7f654fa711d3e01f21a9,,,,,,,,,,,,,,,,,,,,,,,,,,,,,,,,70,Door3,resources/DR.BMP,5,0,5,0,1,,,,,,,,,,,,,,,,,,,,,,,,,
,,,,,,,,2023-08-16_08h49.10.115,HF_wild_card,2022.2.4,Win32,116.3196464,55e876f25e4d360012cc283d,64d2fd46c836a06233681665,64dc7f654fa711d3e01f21a9,,,,,,,,,,,,,,,,,,,,,,,,,,,,,,,,,,,,,,,,,,,,,,,,,,,,,,,,,,,,,,,,
,,,,,,,,2023-08-16_08h49.10.115,HF_wild_card,2022.2.4,Win32,116.3196464,55e876f25e4d360012cc283d,64d2fd46c836a06233681665,64dc7f654fa711d3e01f21a9,,,,,,,,,,,,,,,,,,,,,,,,,,,,,,,,,,,,,,,,0,0,0,0,1,,,,,,,,,,,,,,,,,,,,
