Condition,Low fixed image (Door1),Low risky image (Door2),High fixed image (Door3),High risky image (Door4),Extreme Wild Card,NonExtreme Wild Card,,date,expName,psychopyVersion,OS,frameRate,PROLIFIC_PID,STUDY_ID,SESSION_ID,mouse_2.x,mouse_2.y,mouse_2.leftButton,mouse_2.midButton,mouse_2.rightButton,mouse_2.clicked_name,Trial Type,Left Option Image,Right Option Image,Chosen Door,mouse.x,mouse.y,mouse.leftButton,mouse.midButton,mouse.rightButton,mouse.time,mouse.clicked_name,Feedback,Cumulative Reward,Block,trial.thisRepN,trial.thisTrialN,trial.thisN,trial.thisIndex,trial.ran,blocks.thisRepN,blocks.thisTrialN,blocks.thisN,blocks.thisIndex,blocks.ran,Money conversion,First Outcome Reported,Shown Door (First Outcome),Displayed Image (First Outcome),outcomes.thisRepN,outcomes.thisTrialN,outcomes.thisN,outcomes.thisIndex,outcomes.ran,judgments.thisRepN,judgments.thisTrialN,judgments.thisN,judgments.thisIndex,judgments.ran,freqMouse.x,freqMouse.y,freqMouse.leftButton,freqMouse.midButton,freqMouse.rightButton,freqMouse.clicked_name,FQJ for first outcome,FQJ for second outcome,Shown Door,Displayed Image,trials.thisRepN,trials.thisTrialN,trials.thisN,trials.thisIndex,trials.ran,judgBlock.thisRepN,judgBlock.thisTrialN,judgBlock.thisN,judgBlock.thisIndex,judgBlock.ran
0,resources/DBN.BMP,resources/DR.BMP,resources/DB.BMP,resources/DG.BMP,resources/DP.BMP,resources/DY.BMP,,2023-08-16_08h37.09.527,HF_wild_card,2022.2.4,Win32,59.90893841,568f981a7d961b000c969d2f,64d2fd46c836a06233681665,64dc7b94c5c3522490696264,,,,,,,,,,,,,,,,,,,,,,,,,,,,,,,,,,,,,,,,,,,,,,,,,,,,,,,,,,,,,,,,
,,,,,,,,2023-08-16_08h37.09.527,HF_wild_card,2022.2.4,Win32,59.90893841,568f981a7d961b000c969d2f,64d2fd46c836a06233681665,64dc7b94c5c3522490696264,-0.011111111,-0.426851852,1,0,0,agree,,,,,,,,,,,,,,,,,,,,,,,,,,,,,,,,,,,,,,,,,,,,,,,,,,,,,,,,,,
,,,,,,,,2023-08-16_08h37.09.527,HF_wild_card,2022.2.4,Win32,59.90893841,568f981a7d961b000c969d2f,64d2fd46c836a06233681665,64dc7b94c5c3522490696264,,,,,,,,,,,,,,,,,,,,,,,,,,,,,,,,,,,,,,,,,,,,,,,,,,,,,,,,,,,,,,,,
,,,,,,,,2023-08-16_08h37.09.527,HF_wild_card,2022.2.4,Win32,59.90893841,568f981a7d961b000c969d2f,64d2fd46c836a06233681665,64dc7b94c5c3522490696264,,,,,,,decisionTrl,resources/DP.BMP,resources/DR.BMP,WildCard_Ex,-0.394444444,-0.065740741,1,0,0,5.8804,optionLeft,5,5,1,0,0,0,0,1,,,,,,,,,,,,,,,,,,,,,,,,,,,,,,,,,,,,,,,
,,,,,,,,2023-08-16_08h37.09.527,HF_wild_card,2022.2.4,Win32,59.90893841,568f981a7d961b000c969d2f,64d2fd46c836a06233681665,64dc7b94c5c3522490696264,,,,,,,decisionTrl,resources/DB.BMP,resources/DG.BMP,Door3,-0.402777778,-0.028703704,1,0,0,4.4187,optionLeft,70,75,1,1,0,1,0,1,,,,,,,,,,,,,,,,,,,,,,,,,,,,,,,,,,,,,,,
,,,,,,,,2023-08-16_08h37.09.527,HF_wild_card,2022.2.4,Win32,59.90893841,568f981a7d961b000c969d2f,64d2fd46c836a06233681665,64dc7b94c5c3522490696264,,,,,,,decisionTrl,resources/DR.BMP,resources/DBN.BMP,Door2,-0.400925926,-0.05,1,0,0,3.016,optionLeft,20,95,1,2,0,2,0,1,,,,,,,,,,,,,,,,,,,,,,,,,,,,,,,,,,,,,,,
,,,,,,,,2023-08-16_08h37.09.527,HF_wild_card,2022.2.4,Win32,59.90893841,568f981a7d961b000c969d2f,64d2fd46c836a06233681665,64dc7b94c5c3522490696264,,,,,,,decisionTrl,resources/DR.BMP,resources/DBN.BMP,Door2,-0.412962963,-0.017592593,1,0,0,3.3358,optionLeft,40,135,1,3,0,3,0,1,,,,,,,,,,,,,,,,,,,,,,,,,,,,,,,,,,,,,,,
,,,,,,,,2023-08-16_08h37.09.527,HF_wild_card,2022.2.4,Win32,59.90893841,568f981a7d961b000c969d2f,64d2fd46c836a06233681665,64dc7b94c5c3522490696264,,,,,,,decisionTrl,resources/DBN.BMP,resources/DR.BMP,Door2,0.394444444,-0.050925926,1,0,0,2.749,optionRight,20,155,1,4,0,4,0,1,,,,,,,,,,,,,,,,,,,,,,,,,,,,,,,,,,,,,,,
,,,,,,,,2023-08-16_08h37.09.527,HF_wild_card,2022.2.4,Win32,59.90893841,568f981a7d961b000c969d2f,64d2fd46c836a06233681665,64dc7b94c5c3522490696264,,,,,,,sngl,resources/DP.BMP,resources/Empty.png,WildCard_Ex,-0.401851852,-0.04537037,1,0,0,1.7301,optionLeft,95,250,1,5,0,5,0,1,,,,,,,,,,,,,,,,,,,,,,,,,,,,,,,,,,,,,,,
,,,,,,,,2023-08-16_08h37.09.527,HF_wild_card,2022.2.4,Win32,59.90893841,568f981a7d961b000c969d2f,64d2fd46c836a06233681665,64dc7b94c5c3522490696264,,,,,,,decisionTrl,resources/DR.BMP,resources/DBN.BMP,Door1,0.393518519,0.000925926,1,0,0,2.1633,optionRight,30,280,1,6,0,6,0,1,,,,,,,,,,,,,,,,,,,,,,,,,,,,,,,,,,,,,,,
,,,,,,,,2023-08-16_08h37.09.527,HF_wild_card,2022.2.4,Win32,59.90893841,568f981a7d961b000c969d2f,64d2fd46c836a06233681665,64dc7b94c5c3522490696264,,,,,,,sngl,resources/Empty.png,resources/DP.BMP,WildCard_Ex,0.394444444,-0.068518519,1,0,0,1.6421,optionRight,5,285,1,7,0,7,0,1,,,,,,,,,,,,,,,,,,,,,,,,,,,,,,,,,,,,,,,
,,,,,,,,2023-08-16_08h37.09.527,HF_wild_card,2022.2.4,Win32,59.90893841,568f981a7d961b000c969d2f,64d2fd46c836a06233681665,64dc7b94c5c3522490696264,,,,,,,sngl,resources/DBN.BMP,resources/Empty.png,Door1,-0.407407407,0.015740741,1,0,0,1.5139,optionLeft,30,315,1,8,0,8,0,1,,,,,,,,,,,,,,,,,,,,,,,,,,,,,,,,,,,,,,,
,,,,,,,,2023-08-16_08h37.09.527,HF_wild_card,2022.2.4,Win32,59.90893841,568f981a7d961b000c969d2f,64d2fd46c836a06233681665,64dc7b94c5c3522490696264,,,,,,,decisionTrl,resources/DBN.BMP,resources/DR.BMP,Door2,0.394444444,-0.047222222,1,0,0,1.783,optionRight,40,355,1,9,0,9,0,1,,,,,,,,,,,,,,,,,,,,,,,,,,,,,,,,,,,,,,,
,,,,,,,,2023-08-16_08h37.09.527,HF_wild_card,2022.2.4,Win32,59.90893841,568f981a7d961b000c969d2f,64d2fd46c836a06233681665,64dc7b94c5c3522490696264,,,,,,,ctch,resources/DB.BMP,resources/DR.BMP,Door3,-0.407407407,-0.034259259,1,0,0,2.1678,optionLeft,70,425,1,10,0,10,0,1,,,,,,,,,,,,,,,,,,,,,,,,,,,,,,,,,,,,,,,
,,,,,,,,2023-08-16_08h37.09.527,HF_wild_card,2022.2.4,Win32,59.90893841,568f981a7d961b000c969d2f,64d2fd46c836a06233681665,64dc7b94c5c3522490696264,,,,,,,ctch,resources/DG.BMP,resources/DBN.BMP,Door4,-0.387037037,-0.028703704,1,0,0,1.7578,optionLeft,60,485,1,11,0,11,0,1,,,,,,,,,,,,,,,,,,,,,,,,,,,,,,,,,,,,,,,
,,,,,,,,2023-08-16_08h37.09.527,HF_wild_card,2022.2.4,Win32,59.90893841,568f981a7d961b000c969d2f,64d2fd46c836a06233681665,64dc7b94c5c3522490696264,,,,,,,sngl,resources/Empty.png,resources/DBN.BMP,Door1,0.388888889,0.016666667,1,0,0,1.7972,optionRight,30,515,1,12,0,12,0,1,,,,,,,,,,,,,,,,,,,,,,,,,,,,,,,,,,,,,,,
,,,,,,,,2023-08-16_08h37.09.527,HF_wild_card,2022.2.4,Win32,59.90893841,568f981a7d961b000c969d2f,64d2fd46c836a06233681665,64dc7b94c5c3522490696264,,,,,,,sngl,resources/Empty.png,resources/DR.BMP,Door2,0.389814815,-0.04537037,1,0,0,1.316,optionRight,20,535,1,13,0,13,0,1,,,,,,,,,,,,,,,,,,,,,,,,,,,,,,,,,,,,,,,
,,,,,,,,2023-08-16_08h37.09.527,HF_wild_card,2022.2.4,Win32,59.90893841,568f981a7d961b000c969d2f,64d2fd46c836a06233681665,64dc7b94c5c3522490696264,,,,,,,sngl,resources/DR.BMP,resources/Empty.png,Door2,-0.408333333,-0.041666667,1,0,0,1.6083,optionLeft,40,575,1,14,0,14,0,1,,,,,,,,,,,,,,,,,,,,,,,,,,,,,,,,,,,,,,,
,,,,,,,,2023-08-16_08h37.09.527,HF_wild_card,2022.2.4,Win32,59.90893841,568f981a7d961b000c969d2f,64d2fd46c836a06233681665,64dc7b94c5c3522490696264,,,,,,,decisionTrl,resources/DB.BMP,resources/DG.BMP,Door3,-0.416666667,-0.048148148,1,0,0,1.7836,optionLeft,70,645,1,15,0,15,0,1,,,,,,,,,,,,,,,,,,,,,,,,,,,,,,,,,,,,,,,
,,,,,,,,2023-08-16_08h37.09.527,HF_wild_card,2022.2.4,Win32,59.90893841,568f981a7d961b000c969d2f,64d2fd46c836a06233681665,64dc7b94c5c3522490696264,,,,,,,decisionTrl,resources/DP.BMP,resources/DG.BMP,WildCard_Ex,-0.401851852,-0.057407407,1,0,0,2.414,optionLeft,95,740,1,16,0,16,0,1,,,,,,,,,,,,,,,,,,,,,,,,,,,,,,,,,,,,,,,
,,,,,,,,2023-08-16_08h37.09.527,HF_wild_card,2022.2.4,Win32,59.90893841,568f981a7d961b000c969d2f,64d2fd46c836a06233681665,64dc7b94c5c3522490696264,,,,,,,decisionTrl,resources/DR.BMP,resources/DP.BMP,WildCard_Ex,0.40462963,-0.057407407,1,0,0,1.7959,optionRight,5,745,1,17,0,17,0,1,,,,,,,,,,,,,,,,,,,,,,,,,,,,,,,,,,,,,,,
,,,,,,,,2023-08-16_08h37.09.527,HF_wild_card,2022.2.4,Win32,59.90893841,568f981a7d961b000c969d2f,64d2fd46c836a06233681665,64dc7b94c5c3522490696264,,,,,,,sngl,resources/DP.BMP,resources/Empty.png,WildCard_Ex,-0.396296296,-0.061111111,1,0,0,1.4162,optionLeft,5,750,1,18,0,18,0,1,,,,,,,,,,,,,,,,,,,,,,,,,,,,,,,,,,,,,,,
,,,,,,,,2023-08-16_08h37.09.527,HF_wild_card,2022.2.4,Win32,59.90893841,568f981a7d961b000c969d2f,64d2fd46c836a06233681665,64dc7b94c5c3522490696264,,,,,,,decisionTrl,resources/DG.BMP,resources/DB.BMP,Door3,0.383333333,-0.042592593,1,0,0,2.7653,optionRight,70,820,1,19,0,19,0,1,,,,,,,,,,,,,,,,,,,,,,,,,,,,,,,,,,,,,,,
,,,,,,,,2023-08-16_08h37.09.527,HF_wild_card,2022.2.4,Win32,59.90893841,568f981a7d961b000c969d2f,64d2fd46c836a06233681665,64dc7b94c5c3522490696264,,,,,,,ctch,resources/DBN.BMP,resources/DG.BMP,Door4,0.422222222,-0.025,1,0,0,1.7314,optionRight,60,880,1,20,0,20,0,1,,,,,,,,,,,,,,,,,,,,,,,,,,,,,,,,,,,,,,,
,,,,,,,,2023-08-16_08h37.09.527,HF_wild_card,2022.2.4,Win32,59.90893841,568f981a7d961b000c969d2f,64d2fd46c836a06233681665,64dc7b94c5c3522490696264,,,,,,,ctch,resources/DR.BMP,resources/DB.BMP,Door3,0.385185185,-0.046296296,1,0,0,2.0327,optionRight,70,950,1,21,0,21,0,1,,,,,,,,,,,,,,,,,,,,,,,,,,,,,,,,,,,,,,,
,,,,,,,,2023-08-16_08h37.09.527,HF_wild_card,2022.2.4,Win32,59.90893841,568f981a7d961b000c969d2f,64d2fd46c836a06233681665,64dc7b94c5c3522490696264,,,,,,,sngl,resources/Empty.png,resources/DB.BMP,Door3,0.388888889,-0.044444444,1,0,0,1.5652,optionRight,70,1020,1,22,0,22,0,1,,,,,,,,,,,,,,,,,,,,,,,,,,,,,,,,,,,,,,,
,,,,,,,,2023-08-16_08h37.09.527,HF_wild_card,2022.2.4,Win32,59.90893841,568f981a7d961b000c969d2f,64d2fd46c836a06233681665,64dc7b94c5c3522490696264,,,,,,,sngl,resources/DG.BMP,resources/Empty.png,Door4,-0.380555556,-0.018518519,1,0,0,1.4032,optionLeft,80,1100,1,23,0,23,0,1,,,,,,,,,,,,,,,,,,,,,,,,,,,,,,,,,,,,,,,
,,,,,,,,2023-08-16_08h37.09.527,HF_wild_card,2022.2.4,Win32,59.90893841,568f981a7d961b000c969d2f,64d2fd46c836a06233681665,64dc7b94c5c3522490696264,,,,,,,decisionTrl,resources/DG.BMP,resources/DB.BMP,Door3,0.382407407,-0.044444444,1,0,0,2.9001,optionRight,70,1170,1,24,0,24,0,1,,,,,,,,,,,,,,,,,,,,,,,,,,,,,,,,,,,,,,,
,,,,,,,,2023-08-16_08h37.09.527,HF_wild_card,2022.2.4,Win32,59.90893841,568f981a7d961b000c969d2f,64d2fd46c836a06233681665,64dc7b94c5c3522490696264,,,,,,,decisionTrl,resources/DBN.BMP,resources/DR.BMP,Door2,0.382407407,-0.048148148,1,0,0,1.5669,optionRight,40,1210,1,25,0,25,0,1,,,,,,,,,,,,,,,,,,,,,,,,,,,,,,,,,,,,,,,
,,,,,,,,2023-08-16_08h37.09.527,HF_wild_card,2022.2.4,Win32,59.90893841,568f981a7d961b000c969d2f,64d2fd46c836a06233681665,64dc7b94c5c3522490696264,,,,,,,decisionTrl,resources/DG.BMP,resources/DB.BMP,Door3,0.389814815,-0.046296296,1,0,0,1.7372,optionRight,70,1280,1,26,0,26,0,1,,,,,,,,,,,,,,,,,,,,,,,,,,,,,,,,,,,,,,,
,,,,,,,,2023-08-16_08h37.09.527,HF_wild_card,2022.2.4,Win32,59.90893841,568f981a7d961b000c969d2f,64d2fd46c836a06233681665,64dc7b94c5c3522490696264,,,,,,,decisionTrl,resources/DG.BMP,resources/DP.BMP,WildCard_Ex,0.409259259,-0.062962963,1,0,0,1.733,optionRight,5,1285,1,27,0,27,0,1,,,,,,,,,,,,,,,,,,,,,,,,,,,,,,,,,,,,,,,
,,,,,,,,2023-08-16_08h37.09.527,HF_wild_card,2022.2.4,Win32,59.90893841,568f981a7d961b000c969d2f,64d2fd46c836a06233681665,64dc7b94c5c3522490696264,,,,,,,ctch,resources/DBN.BMP,resources/DG.BMP,Door4,0.409259259,-0.037962963,1,0,0,1.3959,optionRight,80,1365,1,28,0,28,0,1,,,,,,,,,,,,,,,,,,,,,,,,,,,,,,,,,,,,,,,
,,,,,,,,2023-08-16_08h37.09.527,HF_wild_card,2022.2.4,Win32,59.90893841,568f981a7d961b000c969d2f,64d2fd46c836a06233681665,64dc7b94c5c3522490696264,,,,,,,decisionTrl,resources/DBN.BMP,resources/DR.BMP,Door2,0.396296296,-0.044444444,1,0,0,1.664,optionRight,40,1405,1,29,0,29,0,1,,,,,,,,,,,,,,,,,,,,,,,,,,,,,,,,,,,,,,,
,,,,,,,,2023-08-16_08h37.09.527,HF_wild_card,2022.2.4,Win32,59.90893841,568f981a7d961b000c969d2f,64d2fd46c836a06233681665,64dc7b94c5c3522490696264,,,,,,,decisionTrl,resources/DBN.BMP,resources/DP.BMP,Door1,-0.394444444,0.003703704,1,0,0,2.0302,optionLeft,30,1435,1,30,0,30,0,1,,,,,,,,,,,,,,,,,,,,,,,,,,,,,,,,,,,,,,,
,,,,,,,,2023-08-16_08h37.09.527,HF_wild_card,2022.2.4,Win32,59.90893841,568f981a7d961b000c969d2f,64d2fd46c836a06233681665,64dc7b94c5c3522490696264,,,,,,,decisionTrl,resources/DB.BMP,resources/DG.BMP,Door3,-0.42037037,-0.046296296,1,0,0,1.6651,optionLeft,70,1505,1,31,0,31,0,1,,,,,,,,,,,,,,,,,,,,,,,,,,,,,,,,,,,,,,,
,,,,,,,,2023-08-16_08h37.09.527,HF_wild_card,2022.2.4,Win32,59.90893841,568f981a7d961b000c969d2f,64d2fd46c836a06233681665,64dc7b94c5c3522490696264,,,,,,,ctch,resources/DG.BMP,resources/DBN.BMP,Door4,-0.383333333,-0.032407407,1,0,0,1.7332,optionLeft,80,1585,1,32,0,32,0,1,,,,,,,,,,,,,,,,,,,,,,,,,,,,,,,,,,,,,,,
,,,,,,,,2023-08-16_08h37.09.527,HF_wild_card,2022.2.4,Win32,59.90893841,568f981a7d961b000c969d2f,64d2fd46c836a06233681665,64dc7b94c5c3522490696264,,,,,,,decisionTrl,resources/DR.BMP,resources/DBN.BMP,Door2,-0.369444444,-0.016666667,1,0,0,1.3816,optionLeft,40,1625,1,33,0,33,0,1,,,,,,,,,,,,,,,,,,,,,,,,,,,,,,,,,,,,,,,
,,,,,,,,2023-08-16_08h37.09.527,HF_wild_card,2022.2.4,Win32,59.90893841,568f981a7d961b000c969d2f,64d2fd46c836a06233681665,64dc7b94c5c3522490696264,,,,,,,decisionTrl,resources/DB.BMP,resources/DP.BMP,Door3,-0.413888889,-0.047222222,1,0,0,1.9331,optionLeft,70,1695,1,34,0,34,0,1,,,,,,,,,,,,,,,,,,,,,,,,,,,,,,,,,,,,,,,
,,,,,,,,2023-08-16_08h37.09.527,HF_wild_card,2022.2.4,Win32,59.90893841,568f981a7d961b000c969d2f,64d2fd46c836a06233681665,64dc7b94c5c3522490696264,,,,,,,sngl,resources/Empty.png,resources/DP.BMP,WildCard_Ex,0.390740741,-0.068518519,1,0,0,1.6075,optionRight,95,1790,1,35,0,35,0,1,,,,,,,,,,,,,,,,,,,,,,,,,,,,,,,,,,,,,,,
,,,,,,,,2023-08-16_08h37.09.527,HF_wild_card,2022.2.4,Win32,59.90893841,568f981a7d961b000c969d2f,64d2fd46c836a06233681665,64dc7b94c5c3522490696264,,,,,,,decisionTrl,resources/DG.BMP,resources/DB.BMP,Door3,0.394444444,-0.04537037,1,0,0,2.0465,optionRight,70,1860,1,36,0,36,0,1,,,,,,,,,,,,,,,,,,,,,,,,,,,,,,,,,,,,,,,
,,,,,,,,2023-08-16_08h37.09.527,HF_wild_card,2022.2.4,Win32,59.90893841,568f981a7d961b000c969d2f,64d2fd46c836a06233681665,64dc7b94c5c3522490696264,,,,,,,decisionTrl,resources/DP.BMP,resources/DB.BMP,WildCard_Ex,-0.403703704,-0.060185185,1,0,0,2.0832,optionLeft,95,1955,1,37,0,37,0,1,,,,,,,,,,,,,,,,,,,,,,,,,,,,,,,,,,,,,,,
,,,,,,,,2023-08-16_08h37.09.527,HF_wild_card,2022.2.4,Win32,59.90893841,568f981a7d961b000c969d2f,64d2fd46c836a06233681665,64dc7b94c5c3522490696264,,,,,,,ctch,resources/DR.BMP,resources/DB.BMP,Door3,0.382407407,-0.047222222,1,0,0,2.3484,optionRight,70,2025,1,38,0,38,0,1,,,,,,,,,,,,,,,,,,,,,,,,,,,,,,,,,,,,,,,
,,,,,,,,2023-08-16_08h37.09.527,HF_wild_card,2022.2.4,Win32,59.90893841,568f981a7d961b000c969d2f,64d2fd46c836a06233681665,64dc7b94c5c3522490696264,,,,,,,sngl,resources/Empty.png,resources/DG.BMP,Door4,0.397222222,-0.015740741,1,0,0,1.5622,optionRight,60,2085,1,39,0,39,0,1,,,,,,,,,,,,,,,,,,,,,,,,,,,,,,,,,,,,,,,
,,,,,,,,2023-08-16_08h37.09.527,HF_wild_card,2022.2.4,Win32,59.90893841,568f981a7d961b000c969d2f,64d2fd46c836a06233681665,64dc7b94c5c3522490696264,,,,,,,decisionTrl,resources/DP.BMP,resources/DBN.BMP,WildCard_Ex,-0.397222222,-0.047222222,1,0,0,1.8144,optionLeft,5,2090,1,40,0,40,0,1,,,,,,,,,,,,,,,,,,,,,,,,,,,,,,,,,,,,,,,
,,,,,,,,2023-08-16_08h37.09.527,HF_wild_card,2022.2.4,Win32,59.90893841,568f981a7d961b000c969d2f,64d2fd46c836a06233681665,64dc7b94c5c3522490696264,,,,,,,ctch,resources/DB.BMP,resources/DR.BMP,Door3,-0.413888889,-0.043518519,1,0,0,1.7603,optionLeft,70,2160,1,41,0,41,0,1,,,,,,,,,,,,,,,,,,,,,,,,,,,,,,,,,,,,,,,
,,,,,,,,2023-08-16_08h37.09.527,HF_wild_card,2022.2.4,Win32,59.90893841,568f981a7d961b000c969d2f,64d2fd46c836a06233681665,64dc7b94c5c3522490696264,,,,,,,sngl,resources/DB.BMP,resources/Empty.png,Door3,-0.389814815,-0.037037037,1,0,0,1.1799,optionLeft,70,2230,1,42,0,42,0,1,,,,,,,,,,,,,,,,,,,,,,,,,,,,,,,,,,,,,,,
,,,,,,,,2023-08-16_08h37.09.527,HF_wild_card,2022.2.4,Win32,59.90893841,568f981a7d961b000c969d2f,64d2fd46c836a06233681665,64dc7b94c5c3522490696264,,,,,,,decisionTrl,resources/DB.BMP,resources/DG.BMP,Door3,-0.446296296,-0.052777778,1,0,0,1.3798,optionLeft,70,2300,1,43,0,43,0,1,,,,,,,,,,,,,,,,,,,,,,,,,,,,,,,,,,,,,,,
,,,,,,,,2023-08-16_08h37.09.527,HF_wild_card,2022.2.4,Win32,59.90893841,568f981a7d961b000c969d2f,64d2fd46c836a06233681665,64dc7b94c5c3522490696264,,,,,,,,,,,,,,,,,,,,,,,,,,0,0,0,0,1,,,,,,,,,,,,,,,,,,,,,,,,,,,,,,,,,,
,,,,,,,,2023-08-16_08h37.09.527,HF_wild_card,2022.2.4,Win32,59.90893841,568f981a7d961b000c969d2f,64d2fd46c836a06233681665,64dc7b94c5c3522490696264,,,,,,,decisionTrl,resources/DB.BMP,resources/DG.BMP,Door3,-0.410185185,-0.043518519,1,0,0,1.3942,optionLeft,70,2370,2,0,0,0,0,1,,,,,,,,,,,,,,,,,,,,,,,,,,,,,,,,,,,,,,,
,,,,,,,,2023-08-16_08h37.09.527,HF_wild_card,2022.2.4,Win32,59.90893841,568f981a7d961b000c969d2f,64d2fd46c836a06233681665,64dc7b94c5c3522490696264,,,,,,,sngl,resources/DG.BMP,resources/Empty.png,Door4,-0.352777778,0.005555556,1,0,0,1.037,optionLeft,60,2430,2,1,0,1,0,1,,,,,,,,,,,,,,,,,,,,,,,,,,,,,,,,,,,,,,,
,,,,,,,,2023-08-16_08h37.09.527,HF_wild_card,2022.2.4,Win32,59.90893841,568f981a7d961b000c969d2f,64d2fd46c836a06233681665,64dc7b94c5c3522490696264,,,,,,,decisionTrl,resources/DBN.BMP,resources/DR.BMP,Door2,0.402777778,-0.05,1,0,0,1.8341,optionRight,20,2450,2,2,0,2,0,1,,,,,,,,,,,,,,,,,,,,,,,,,,,,,,,,,,,,,,,
,,,,,,,,2023-08-16_08h37.09.527,HF_wild_card,2022.2.4,Win32,59.90893841,568f981a7d961b000c969d2f,64d2fd46c836a06233681665,64dc7b94c5c3522490696264,,,,,,,decisionTrl,resources/DP.BMP,resources/DR.BMP,WildCard_Ex,-0.394444444,-0.046296296,1,0,0,1.481,optionLeft,5,2455,2,3,0,3,0,1,,,,,,,,,,,,,,,,,,,,,,,,,,,,,,,,,,,,,,,
,,,,,,,,2023-08-16_08h37.09.527,HF_wild_card,2022.2.4,Win32,59.90893841,568f981a7d961b000c969d2f,64d2fd46c836a06233681665,64dc7b94c5c3522490696264,,,,,,,decisionTrl,resources/DG.BMP,resources/DB.BMP,Door3,0.386111111,-0.041666667,1,0,0,1.8306,optionRight,70,2525,2,4,0,4,0,1,,,,,,,,,,,,,,,,,,,,,,,,,,,,,,,,,,,,,,,
,,,,,,,,2023-08-16_08h37.09.527,HF_wild_card,2022.2.4,Win32,59.90893841,568f981a7d961b000c969d2f,64d2fd46c836a06233681665,64dc7b94c5c3522490696264,,,,,,,sngl,resources/Empty.png,resources/DR.BMP,Door2,0.4,-0.038888889,1,0,0,1.2304,optionRight,40,2565,2,5,0,5,0,1,,,,,,,,,,,,,,,,,,,,,,,,,,,,,,,,,,,,,,,
,,,,,,,,2023-08-16_08h37.09.527,HF_wild_card,2022.2.4,Win32,59.90893841,568f981a7d961b000c969d2f,64d2fd46c836a06233681665,64dc7b94c5c3522490696264,,,,,,,ctch,resources/DR.BMP,resources/DB.BMP,Door3,0.360185185,-0.047222222,1,0,0,2.0009,optionRight,70,2635,2,6,0,6,0,1,,,,,,,,,,,,,,,,,,,,,,,,,,,,,,,,,,,,,,,
,,,,,,,,2023-08-16_08h37.09.527,HF_wild_card,2022.2.4,Win32,59.90893841,568f981a7d961b000c969d2f,64d2fd46c836a06233681665,64dc7b94c5c3522490696264,,,,,,,sngl,resources/Empty.png,resources/DP.BMP,WildCard_Ex,0.40462963,-0.023148148,1,0,0,1.2163,optionRight,5,2640,2,7,0,7,0,1,,,,,,,,,,,,,,,,,,,,,,,,,,,,,,,,,,,,,,,
,,,,,,,,2023-08-16_08h37.09.527,HF_wild_card,2022.2.4,Win32,59.90893841,568f981a7d961b000c969d2f,64d2fd46c836a06233681665,64dc7b94c5c3522490696264,,,,,,,decisionTrl,resources/DG.BMP,resources/DB.BMP,Door3,0.393518519,-0.039814815,1,0,0,1.4648,optionRight,70,2710,2,8,0,8,0,1,,,,,,,,,,,,,,,,,,,,,,,,,,,,,,,,,,,,,,,
,,,,,,,,2023-08-16_08h37.09.527,HF_wild_card,2022.2.4,Win32,59.90893841,568f981a7d961b000c969d2f,64d2fd46c836a06233681665,64dc7b94c5c3522490696264,,,,,,,ctch,resources/DB.BMP,resources/DR.BMP,Door3,-0.424074074,-0.043518519,1,0,0,1.3504,optionLeft,70,2780,2,9,0,9,0,1,,,,,,,,,,,,,,,,,,,,,,,,,,,,,,,,,,,,,,,
,,,,,,,,2023-08-16_08h37.09.527,HF_wild_card,2022.2.4,Win32,59.90893841,568f981a7d961b000c969d2f,64d2fd46c836a06233681665,64dc7b94c5c3522490696264,,,,,,,decisionTrl,resources/DG.BMP,resources/DP.BMP,Door4,-0.383333333,-0.012962963,1,0,0,2.0558,optionLeft,80,2860,2,10,0,10,0,1,,,,,,,,,,,,,,,,,,,,,,,,,,,,,,,,,,,,,,,
,,,,,,,,2023-08-16_08h37.09.527,HF_wild_card,2022.2.4,Win32,59.90893841,568f981a7d961b000c969d2f,64d2fd46c836a06233681665,64dc7b94c5c3522490696264,,,,,,,ctch,resources/DG.BMP,resources/DBN.BMP,Door4,-0.368518519,-0.037962963,1,0,0,1.5297,optionLeft,80,2940,2,11,0,11,0,1,,,,,,,,,,,,,,,,,,,,,,,,,,,,,,,,,,,,,,,
,,,,,,,,2023-08-16_08h37.09.527,HF_wild_card,2022.2.4,Win32,59.90893841,568f981a7d961b000c969d2f,64d2fd46c836a06233681665,64dc7b94c5c3522490696264,,,,,,,decisionTrl,resources/DR.BMP,resources/DP.BMP,Door2,-0.398148148,-0.032407407,1,0,0,1.6472,optionLeft,40,2980,2,12,0,12,0,1,,,,,,,,,,,,,,,,,,,,,,,,,,,,,,,,,,,,,,,
,,,,,,,,2023-08-16_08h37.09.527,HF_wild_card,2022.2.4,Win32,59.90893841,568f981a7d961b000c969d2f,64d2fd46c836a06233681665,64dc7b94c5c3522490696264,,,,,,,decisionTrl,resources/DR.BMP,resources/DBN.BMP,Door2,-0.411111111,-0.037962963,1,0,0,1.3619,optionLeft,40,3020,2,13,0,13,0,1,,,,,,,,,,,,,,,,,,,,,,,,,,,,,,,,,,,,,,,
,,,,,,,,2023-08-16_08h37.09.527,HF_wild_card,2022.2.4,Win32,59.90893841,568f981a7d961b000c969d2f,64d2fd46c836a06233681665,64dc7b94c5c3522490696264,,,,,,,sngl,resources/DP.BMP,resources/Empty.png,WildCard_Ex,-0.384259259,-0.037037037,1,0,0,1.3463,optionLeft,95,3115,2,14,0,14,0,1,,,,,,,,,,,,,,,,,,,,,,,,,,,,,,,,,,,,,,,
,,,,,,,,2023-08-16_08h37.09.527,HF_wild_card,2022.2.4,Win32,59.90893841,568f981a7d961b000c969d2f,64d2fd46c836a06233681665,64dc7b94c5c3522490696264,,,,,,,ctch,resources/DR.BMP,resources/DB.BMP,Door3,0.374074074,-0.037037037,1,0,0,2.6481,optionRight,70,3185,2,15,0,15,0,1,,,,,,,,,,,,,,,,,,,,,,,,,,,,,,,,,,,,,,,
,,,,,,,,2023-08-16_08h37.09.527,HF_wild_card,2022.2.4,Win32,59.90893841,568f981a7d961b000c969d2f,64d2fd46c836a06233681665,64dc7b94c5c3522490696264,,,,,,,sngl,resources/Empty.png,resources/DB.BMP,Door3,0.386111111,-0.026851852,1,0,0,1.4641,optionRight,70,3255,2,16,0,16,0,1,,,,,,,,,,,,,,,,,,,,,,,,,,,,,,,,,,,,,,,
,,,,,,,,2023-08-16_08h37.09.527,HF_wild_card,2022.2.4,Win32,59.90893841,568f981a7d961b000c969d2f,64d2fd46c836a06233681665,64dc7b94c5c3522490696264,,,,,,,decisionTrl,resources/DB.BMP,resources/DG.BMP,Door3,-0.414814815,-0.026851852,1,0,0,1.3792,optionLeft,70,3325,2,17,0,17,0,1,,,,,,,,,,,,,,,,,,,,,,,,,,,,,,,,,,,,,,,
,,,,,,,,2023-08-16_08h37.09.527,HF_wild_card,2022.2.4,Win32,59.90893841,568f981a7d961b000c969d2f,64d2fd46c836a06233681665,64dc7b94c5c3522490696264,,,,,,,sngl,resources/Empty.png,resources/DP.BMP,WildCard_Ex,0.341666667,-0.057407407,1,0,0,1.0586,optionRight,95,3420,2,18,0,18,0,1,,,,,,,,,,,,,,,,,,,,,,,,,,,,,,,,,,,,,,,
,,,,,,,,2023-08-16_08h37.09.527,HF_wild_card,2022.2.4,Win32,59.90893841,568f981a7d961b000c969d2f,64d2fd46c836a06233681665,64dc7b94c5c3522490696264,,,,,,,decisionTrl,resources/DB.BMP,resources/DG.BMP,Door3,-0.409259259,0,1,0,0,1.3494,optionLeft,70,3490,2,19,0,19,0,1,,,,,,,,,,,,,,,,,,,,,,,,,,,,,,,,,,,,,,,
,,,,,,,,2023-08-16_08h37.09.527,HF_wild_card,2022.2.4,Win32,59.90893841,568f981a7d961b000c969d2f,64d2fd46c836a06233681665,64dc7b94c5c3522490696264,,,,,,,ctch,resources/DBN.BMP,resources/DG.BMP,Door4,0.394444444,-0.027777778,1,0,0,1.5322,optionRight,60,3550,2,20,0,20,0,1,,,,,,,,,,,,,,,,,,,,,,,,,,,,,,,,,,,,,,,
,,,,,,,,2023-08-16_08h37.09.527,HF_wild_card,2022.2.4,Win32,59.90893841,568f981a7d961b000c969d2f,64d2fd46c836a06233681665,64dc7b94c5c3522490696264,,,,,,,decisionTrl,resources/DR.BMP,resources/DBN.BMP,Door2,-0.433333333,-0.035185185,1,0,0,1.6889,optionLeft,40,3590,2,21,0,21,0,1,,,,,,,,,,,,,,,,,,,,,,,,,,,,,,,,,,,,,,,
,,,,,,,,2023-08-16_08h37.09.527,HF_wild_card,2022.2.4,Win32,59.90893841,568f981a7d961b000c969d2f,64d2fd46c836a06233681665,64dc7b94c5c3522490696264,,,,,,,ctch,resources/DBN.BMP,resources/DG.BMP,Door4,0.407407407,-0.017592593,1,0,0,1.7437,optionRight,60,3650,2,22,0,22,0,1,,,,,,,,,,,,,,,,,,,,,,,,,,,,,,,,,,,,,,,
,,,,,,,,2023-08-16_08h37.09.527,HF_wild_card,2022.2.4,Win32,59.90893841,568f981a7d961b000c969d2f,64d2fd46c836a06233681665,64dc7b94c5c3522490696264,,,,,,,decisionTrl,resources/DR.BMP,resources/DBN.BMP,Door2,-0.390740741,-0.019444444,1,0,0,1.1299,optionLeft,40,3690,2,23,0,23,0,1,,,,,,,,,,,,,,,,,,,,,,,,,,,,,,,,,,,,,,,
,,,,,,,,2023-08-16_08h37.09.527,HF_wild_card,2022.2.4,Win32,59.90893841,568f981a7d961b000c969d2f,64d2fd46c836a06233681665,64dc7b94c5c3522490696264,,,,,,,decisionTrl,resources/DBN.BMP,resources/DR.BMP,Door2,0.407407407,-0.038888889,1,0,0,1.6164,optionRight,40,3730,2,24,0,24,0,1,,,,,,,,,,,,,,,,,,,,,,,,,,,,,,,,,,,,,,,
,,,,,,,,2023-08-16_08h37.09.527,HF_wild_card,2022.2.4,Win32,59.90893841,568f981a7d961b000c969d2f,64d2fd46c836a06233681665,64dc7b94c5c3522490696264,,,,,,,decisionTrl,resources/DBN.BMP,resources/DR.BMP,Door2,0.366666667,-0.042592593,1,0,0,1.2487,optionRight,20,3750,2,25,0,25,0,1,,,,,,,,,,,,,,,,,,,,,,,,,,,,,,,,,,,,,,,
,,,,,,,,2023-08-16_08h37.09.527,HF_wild_card,2022.2.4,Win32,59.90893841,568f981a7d961b000c969d2f,64d2fd46c836a06233681665,64dc7b94c5c3522490696264,,,,,,,decisionTrl,resources/DG.BMP,resources/DB.BMP,Door3,0.375,-0.032407407,1,0,0,1.7354,optionRight,70,3820,2,26,0,26,0,1,,,,,,,,,,,,,,,,,,,,,,,,,,,,,,,,,,,,,,,
,,,,,,,,2023-08-16_08h37.09.527,HF_wild_card,2022.2.4,Win32,59.90893841,568f981a7d961b000c969d2f,64d2fd46c836a06233681665,64dc7b94c5c3522490696264,,,,,,,sngl,resources/Empty.png,resources/DG.BMP,Door4,0.363888889,-0.013888889,1,0,0,1.2151,optionRight,80,3900,2,27,0,27,0,1,,,,,,,,,,,,,,,,,,,,,,,,,,,,,,,,,,,,,,,
,,,,,,,,2023-08-16_08h37.09.527,HF_wild_card,2022.2.4,Win32,59.90893841,568f981a7d961b000c969d2f,64d2fd46c836a06233681665,64dc7b94c5c3522490696264,,,,,,,sngl,resources/DR.BMP,resources/Empty.png,Door2,-0.401851852,-0.062037037,1,0,0,1.0477,optionLeft,20,3920,2,28,0,28,0,1,,,,,,,,,,,,,,,,,,,,,,,,,,,,,,,,,,,,,,,
,,,,,,,,2023-08-16_08h37.09.527,HF_wild_card,2022.2.4,Win32,59.90893841,568f981a7d961b000c969d2f,64d2fd46c836a06233681665,64dc7b94c5c3522490696264,,,,,,,sngl,resources/DP.BMP,resources/Empty.png,WildCard_Ex,-0.348148148,-0.036111111,1,0,0,1.1978,optionLeft,5,3925,2,29,0,29,0,1,,,,,,,,,,,,,,,,,,,,,,,,,,,,,,,,,,,,,,,
,,,,,,,,2023-08-16_08h37.09.527,HF_wild_card,2022.2.4,Win32,59.90893841,568f981a7d961b000c969d2f,64d2fd46c836a06233681665,64dc7b94c5c3522490696264,,,,,,,decisionTrl,resources/DR.BMP,resources/DBN.BMP,Door2,-0.40462963,0.003703704,1,0,0,1.4472,optionLeft,20,3945,2,30,0,30,0,1,,,,,,,,,,,,,,,,,,,,,,,,,,,,,,,,,,,,,,,
,,,,,,,,2023-08-16_08h37.09.527,HF_wild_card,2022.2.4,Win32,59.90893841,568f981a7d961b000c969d2f,64d2fd46c836a06233681665,64dc7b94c5c3522490696264,,,,,,,decisionTrl,resources/DBN.BMP,resources/DP.BMP,Door1,-0.368518519,0.012037037,1,0,0,1.8159,optionLeft,30,3975,2,31,0,31,0,1,,,,,,,,,,,,,,,,,,,,,,,,,,,,,,,,,,,,,,,
,,,,,,,,2023-08-16_08h37.09.527,HF_wild_card,2022.2.4,Win32,59.90893841,568f981a7d961b000c969d2f,64d2fd46c836a06233681665,64dc7b94c5c3522490696264,,,,,,,sngl,resources/DBN.BMP,resources/Empty.png,Door1,-0.393518519,0.024074074,1,0,0,1.0635,optionLeft,30,4005,2,32,0,32,0,1,,,,,,,,,,,,,,,,,,,,,,,,,,,,,,,,,,,,,,,
,,,,,,,,2023-08-16_08h37.09.527,HF_wild_card,2022.2.4,Win32,59.90893841,568f981a7d961b000c969d2f,64d2fd46c836a06233681665,64dc7b94c5c3522490696264,,,,,,,ctch,resources/DG.BMP,resources/DBN.BMP,Door4,-0.387962963,-0.027777778,1,0,0,1.3994,optionLeft,60,4065,2,33,0,33,0,1,,,,,,,,,,,,,,,,,,,,,,,,,,,,,,,,,,,,,,,
,,,,,,,,2023-08-16_08h37.09.527,HF_wild_card,2022.2.4,Win32,59.90893841,568f981a7d961b000c969d2f,64d2fd46c836a06233681665,64dc7b94c5c3522490696264,,,,,,,decisionTrl,resources/DB.BMP,resources/DG.BMP,Door3,-0.4,-0.015740741,1,0,0,1.5304,optionLeft,70,4135,2,34,0,34,0,1,,,,,,,,,,,,,,,,,,,,,,,,,,,,,,,,,,,,,,,
,,,,,,,,2023-08-16_08h37.09.527,HF_wild_card,2022.2.4,Win32,59.90893841,568f981a7d961b000c969d2f,64d2fd46c836a06233681665,64dc7b94c5c3522490696264,,,,,,,ctch,resources/DB.BMP,resources/DR.BMP,Door3,-0.417592593,-0.039814815,1,0,0,1.4478,optionLeft,70,4205,2,35,0,35,0,1,,,,,,,,,,,,,,,,,,,,,,,,,,,,,,,,,,,,,,,
,,,,,,,,2023-08-16_08h37.09.527,HF_wild_card,2022.2.4,Win32,59.90893841,568f981a7d961b000c969d2f,64d2fd46c836a06233681665,64dc7b94c5c3522490696264,,,,,,,sngl,resources/DB.BMP,resources/Empty.png,Door3,-0.39537037,-0.025925926,1,0,0,1.1618,optionLeft,70,4275,2,36,0,36,0,1,,,,,,,,,,,,,,,,,,,,,,,,,,,,,,,,,,,,,,,
,,,,,,,,2023-08-16_08h37.09.527,HF_wild_card,2022.2.4,Win32,59.90893841,568f981a7d961b000c969d2f,64d2fd46c836a06233681665,64dc7b94c5c3522490696264,,,,,,,decisionTrl,resources/DP.BMP,resources/DG.BMP,Door4,0.423148148,-0.028703704,1,0,0,2.3494,optionRight,60,4335,2,37,0,37,0,1,,,,,,,,,,,,,,,,,,,,,,,,,,,,,,,,,,,,,,,
,,,,,,,,2023-08-16_08h37.09.527,HF_wild_card,2022.2.4,Win32,59.90893841,568f981a7d961b000c969d2f,64d2fd46c836a06233681665,64dc7b94c5c3522490696264,,,,,,,decisionTrl,resources/DBN.BMP,resources/DR.BMP,Door2,0.388888889,-0.040740741,1,0,0,1.5802,optionRight,20,4355,2,38,0,38,0,1,,,,,,,,,,,,,,,,,,,,,,,,,,,,,,,,,,,,,,,
,,,,,,,,2023-08-16_08h37.09.527,HF_wild_card,2022.2.4,Win32,59.90893841,568f981a7d961b000c969d2f,64d2fd46c836a06233681665,64dc7b94c5c3522490696264,,,,,,,sngl,resources/Empty.png,resources/DBN.BMP,Door1,0.389814815,0.00462963,1,0,0,1.5648,optionRight,30,4385,2,39,0,39,0,1,,,,,,,,,,,,,,,,,,,,,,,,,,,,,,,,,,,,,,,
,,,,,,,,2023-08-16_08h37.09.527,HF_wild_card,2022.2.4,Win32,59.90893841,568f981a7d961b000c969d2f,64d2fd46c836a06233681665,64dc7b94c5c3522490696264,,,,,,,decisionTrl,resources/DG.BMP,resources/DB.BMP,Door3,0.381481481,-0.037962963,1,0,0,2.1152,optionRight,70,4455,2,40,0,40,0,1,,,,,,,,,,,,,,,,,,,,,,,,,,,,,,,,,,,,,,,
,,,,,,,,2023-08-16_08h37.09.527,HF_wild_card,2022.2.4,Win32,59.90893841,568f981a7d961b000c969d2f,64d2fd46c836a06233681665,64dc7b94c5c3522490696264,,,,,,,decisionTrl,resources/DP.BMP,resources/DB.BMP,Door3,0.389814815,-0.050925926,1,0,0,1.6326,optionRight,70,4525,2,41,0,41,0,1,,,,,,,,,,,,,,,,,,,,,,,,,,,,,,,,,,,,,,,
,,,,,,,,2023-08-16_08h37.09.527,HF_wild_card,2022.2.4,Win32,59.90893841,568f981a7d961b000c969d2f,64d2fd46c836a06233681665,64dc7b94c5c3522490696264,,,,,,,decisionTrl,resources/DP.BMP,resources/DBN.BMP,Door1,0.398148148,0.00462963,1,0,0,2.2327,optionRight,30,4555,2,42,0,42,0,1,,,,,,,,,,,,,,,,,,,,,,,,,,,,,,,,,,,,,,,
,,,,,,,,2023-08-16_08h37.09.527,HF_wild_card,2022.2.4,Win32,59.90893841,568f981a7d961b000c969d2f,64d2fd46c836a06233681665,64dc7b94c5c3522490696264,,,,,,,decisionTrl,resources/DB.BMP,resources/DP.BMP,Door3,-0.40462963,-0.037037037,1,0,0,1.8329,optionLeft,70,4625,2,43,0,43,0,1,,,,,,,,,,,,,,,,,,,,,,,,,,,,,,,,,,,,,,,
,,,,,,,,2023-08-16_08h37.09.527,HF_wild_card,2022.2.4,Win32,59.90893841,568f981a7d961b000c969d2f,64d2fd46c836a06233681665,64dc7b94c5c3522490696264,,,,,,,,,,,,,,,,,,,,,,,,,,1,0,1,0,1,,,,,,,,,,,,,,,,,,,,,,,,,,,,,,,,,,
,,,,,,,,2023-08-16_08h37.09.527,HF_wild_card,2022.2.4,Win32,59.90893841,568f981a7d961b000c969d2f,64d2fd46c836a06233681665,64dc7b94c5c3522490696264,,,,,,,ctch,resources/DB.BMP,resources/DR.BMP,Door3,-0.417592593,-0.043518519,1,0,0,3.4626,optionLeft,70,4695,3,0,0,0,0,1,,,,,,,,,,,,,,,,,,,,,,,,,,,,,,,,,,,,,,,
,,,,,,,,2023-08-16_08h37.09.527,HF_wild_card,2022.2.4,Win32,59.90893841,568f981a7d961b000c969d2f,64d2fd46c836a06233681665,64dc7b94c5c3522490696264,,,,,,,sngl,resources/DG.BMP,resources/Empty.png,Door4,-0.372222222,-0.00462963,1,0,0,1.0112,optionLeft,80,4775,3,1,0,1,0,1,,,,,,,,,,,,,,,,,,,,,,,,,,,,,,,,,,,,,,,
,,,,,,,,2023-08-16_08h37.09.527,HF_wild_card,2022.2.4,Win32,59.90893841,568f981a7d961b000c969d2f,64d2fd46c836a06233681665,64dc7b94c5c3522490696264,,,,,,,decisionTrl,resources/DG.BMP,resources/DB.BMP,Door3,0.382407407,-0.047222222,1,0,0,1.4326,optionRight,70,4845,3,2,0,2,0,1,,,,,,,,,,,,,,,,,,,,,,,,,,,,,,,,,,,,,,,
,,,,,,,,2023-08-16_08h37.09.527,HF_wild_card,2022.2.4,Win32,59.90893841,568f981a7d961b000c969d2f,64d2fd46c836a06233681665,64dc7b94c5c3522490696264,,,,,,,ctch,resources/DBN.BMP,resources/DG.BMP,Door4,0.416666667,-0.025,1,0,0,1.2497,optionRight,80,4925,3,3,0,3,0,1,,,,,,,,,,,,,,,,,,,,,,,,,,,,,,,,,,,,,,,
,,,,,,,,2023-08-16_08h37.09.527,HF_wild_card,2022.2.4,Win32,59.90893841,568f981a7d961b000c969d2f,64d2fd46c836a06233681665,64dc7b94c5c3522490696264,,,,,,,decisionTrl,resources/DB.BMP,resources/DP.BMP,Door3,-0.412037037,-0.031481481,1,0,0,1.3994,optionLeft,70,4995,3,4,0,4,0,1,,,,,,,,,,,,,,,,,,,,,,,,,,,,,,,,,,,,,,,
,,,,,,,,2023-08-16_08h37.09.527,HF_wild_card,2022.2.4,Win32,59.90893841,568f981a7d961b000c969d2f,64d2fd46c836a06233681665,64dc7b94c5c3522490696264,,,,,,,sngl,resources/DR.BMP,resources/Empty.png,Door2,-0.399074074,-0.049074074,1,0,0,1.0646,optionLeft,40,5035,3,5,0,5,0,1,,,,,,,,,,,,,,,,,,,,,,,,,,,,,,,,,,,,,,,
,,,,,,,,2023-08-16_08h37.09.527,HF_wild_card,2022.2.4,Win32,59.90893841,568f981a7d961b000c969d2f,64d2fd46c836a06233681665,64dc7b94c5c3522490696264,,,,,,,ctch,resources/DR.BMP,resources/DB.BMP,Door3,0.384259259,-0.042592593,1,0,0,1.7159,optionRight,70,5105,3,6,0,6,0,1,,,,,,,,,,,,,,,,,,,,,,,,,,,,,,,,,,,,,,,
,,,,,,,,2023-08-16_08h37.09.527,HF_wild_card,2022.2.4,Win32,59.90893841,568f981a7d961b000c969d2f,64d2fd46c836a06233681665,64dc7b94c5c3522490696264,,,,,,,decisionTrl,resources/DBN.BMP,resources/DR.BMP,Door2,0.399074074,-0.041666667,1,0,0,2.0482,optionRight,40,5145,3,7,0,7,0,1,,,,,,,,,,,,,,,,,,,,,,,,,,,,,,,,,,,,,,,
,,,,,,,,2023-08-16_08h37.09.527,HF_wild_card,2022.2.4,Win32,59.90893841,568f981a7d961b000c969d2f,64d2fd46c836a06233681665,64dc7b94c5c3522490696264,,,,,,,ctch,resources/DBN.BMP,resources/DG.BMP,Door4,0.419444444,-0.038888889,1,0,0,1.1137,optionRight,60,5205,3,8,0,8,0,1,,,,,,,,,,,,,,,,,,,,,,,,,,,,,,,,,,,,,,,
,,,,,,,,2023-08-16_08h37.09.527,HF_wild_card,2022.2.4,Win32,59.90893841,568f981a7d961b000c969d2f,64d2fd46c836a06233681665,64dc7b94c5c3522490696264,,,,,,,decisionTrl,resources/DG.BMP,resources/DB.BMP,Door3,0.352777778,-0.036111111,1,0,0,1.8135,optionRight,70,5275,3,9,0,9,0,1,,,,,,,,,,,,,,,,,,,,,,,,,,,,,,,,,,,,,,,
,,,,,,,,2023-08-16_08h37.09.527,HF_wild_card,2022.2.4,Win32,59.90893841,568f981a7d961b000c969d2f,64d2fd46c836a06233681665,64dc7b94c5c3522490696264,,,,,,,sngl,resources/Empty.png,resources/DG.BMP,Door4,0.426851852,-0.033333333,1,0,0,1.6642,optionRight,60,5335,3,10,0,10,0,1,,,,,,,,,,,,,,,,,,,,,,,,,,,,,,,,,,,,,,,
,,,,,,,,2023-08-16_08h37.09.527,HF_wild_card,2022.2.4,Win32,59.90893841,568f981a7d961b000c969d2f,64d2fd46c836a06233681665,64dc7b94c5c3522490696264,,,,,,,sngl,resources/Empty.png,resources/DP.BMP,WildCard_Ex,0.4,-0.043518519,1,0,0,1.4297,optionRight,5,5340,3,11,0,11,0,1,,,,,,,,,,,,,,,,,,,,,,,,,,,,,,,,,,,,,,,
,,,,,,,,2023-08-16_08h37.09.527,HF_wild_card,2022.2.4,Win32,59.90893841,568f981a7d961b000c969d2f,64d2fd46c836a06233681665,64dc7b94c5c3522490696264,,,,,,,decisionTrl,resources/DBN.BMP,resources/DP.BMP,Door1,-0.377777778,0.022222222,1,0,0,2.7319,optionLeft,30,5370,3,12,0,12,0,1,,,,,,,,,,,,,,,,,,,,,,,,,,,,,,,,,,,,,,,
,,,,,,,,2023-08-16_08h37.09.527,HF_wild_card,2022.2.4,Win32,59.90893841,568f981a7d961b000c969d2f,64d2fd46c836a06233681665,64dc7b94c5c3522490696264,,,,,,,sngl,resources/Empty.png,resources/DP.BMP,WildCard_Ex,0.377777778,-0.094444444,1,0,0,1.5,optionRight,95,5465,3,13,0,13,0,1,,,,,,,,,,,,,,,,,,,,,,,,,,,,,,,,,,,,,,,
,,,,,,,,2023-08-16_08h37.09.527,HF_wild_card,2022.2.4,Win32,59.90893841,568f981a7d961b000c969d2f,64d2fd46c836a06233681665,64dc7b94c5c3522490696264,,,,,,,sngl,resources/DP.BMP,resources/Empty.png,WildCard_Ex,-0.418518519,-0.061111111,1,0,0,1.1428,optionLeft,95,5560,3,14,0,14,0,1,,,,,,,,,,,,,,,,,,,,,,,,,,,,,,,,,,,,,,,
,,,,,,,,2023-08-16_08h37.09.527,HF_wild_card,2022.2.4,Win32,59.90893841,568f981a7d961b000c969d2f,64d2fd46c836a06233681665,64dc7b94c5c3522490696264,,,,,,,decisionTrl,resources/DP.BMP,resources/DBN.BMP,WildCard_Ex,-0.402777778,-0.02037037,1,0,0,1.4008,optionLeft,5,5565,3,15,0,15,0,1,,,,,,,,,,,,,,,,,,,,,,,,,,,,,,,,,,,,,,,
,,,,,,,,2023-08-16_08h37.09.527,HF_wild_card,2022.2.4,Win32,59.90893841,568f981a7d961b000c969d2f,64d2fd46c836a06233681665,64dc7b94c5c3522490696264,,,,,,,sngl,resources/DP.BMP,resources/Empty.png,WildCard_Ex,-0.409259259,-0.04537037,1,0,0,1.3323,optionLeft,5,5570,3,16,0,16,0,1,,,,,,,,,,,,,,,,,,,,,,,,,,,,,,,,,,,,,,,
,,,,,,,,2023-08-16_08h37.09.527,HF_wild_card,2022.2.4,Win32,59.90893841,568f981a7d961b000c969d2f,64d2fd46c836a06233681665,64dc7b94c5c3522490696264,,,,,,,decisionTrl,resources/DR.BMP,resources/DBN.BMP,Door2,-0.361111111,-0.02037037,1,0,0,1.499,optionLeft,40,5610,3,17,0,17,0,1,,,,,,,,,,,,,,,,,,,,,,,,,,,,,,,,,,,,,,,
,,,,,,,,2023-08-16_08h37.09.527,HF_wild_card,2022.2.4,Win32,59.90893841,568f981a7d961b000c969d2f,64d2fd46c836a06233681665,64dc7b94c5c3522490696264,,,,,,,decisionTrl,resources/DR.BMP,resources/DP.BMP,Door2,-0.45,-0.034259259,1,0,0,1.4631,optionLeft,20,5630,3,18,0,18,0,1,,,,,,,,,,,,,,,,,,,,,,,,,,,,,,,,,,,,,,,
,,,,,,,,2023-08-16_08h37.09.527,HF_wild_card,2022.2.4,Win32,59.90893841,568f981a7d961b000c969d2f,64d2fd46c836a06233681665,64dc7b94c5c3522490696264,,,,,,,decisionTrl,resources/DBN.BMP,resources/DR.BMP,Door2,0.419444444,-0.074074074,1,0,0,1.4468,optionRight,20,5650,3,19,0,19,0,1,,,,,,,,,,,,,,,,,,,,,,,,,,,,,,,,,,,,,,,
,,,,,,,,2023-08-16_08h37.09.527,HF_wild_card,2022.2.4,Win32,59.90893841,568f981a7d961b000c969d2f,64d2fd46c836a06233681665,64dc7b94c5c3522490696264,,,,,,,decisionTrl,resources/DB.BMP,resources/DG.BMP,Door3,-0.401851852,-0.041666667,1,0,0,1.2157,optionLeft,70,5720,3,20,0,20,0,1,,,,,,,,,,,,,,,,,,,,,,,,,,,,,,,,,,,,,,,
,,,,,,,,2023-08-16_08h37.09.527,HF_wild_card,2022.2.4,Win32,59.90893841,568f981a7d961b000c969d2f,64d2fd46c836a06233681665,64dc7b94c5c3522490696264,,,,,,,decisionTrl,resources/DG.BMP,resources/DB.BMP,Door3,0.387037037,-0.056481481,1,0,0,1.3721,optionRight,70,5790,3,21,0,21,0,1,,,,,,,,,,,,,,,,,,,,,,,,,,,,,,,,,,,,,,,
,,,,,,,,2023-08-16_08h37.09.527,HF_wild_card,2022.2.4,Win32,59.90893841,568f981a7d961b000c969d2f,64d2fd46c836a06233681665,64dc7b94c5c3522490696264,,,,,,,decisionTrl,resources/DR.BMP,resources/DBN.BMP,Door2,-0.398148148,-0.042592593,1,0,0,1.8729,optionLeft,40,5830,3,22,0,22,0,1,,,,,,,,,,,,,,,,,,,,,,,,,,,,,,,,,,,,,,,
,,,,,,,,2023-08-16_08h37.09.527,HF_wild_card,2022.2.4,Win32,59.90893841,568f981a7d961b000c969d2f,64d2fd46c836a06233681665,64dc7b94c5c3522490696264,,,,,,,ctch,resources/DR.BMP,resources/DB.BMP,Door3,0.381481481,-0.039814815,1,0,0,1.1969,optionRight,70,5900,3,23,0,23,0,1,,,,,,,,,,,,,,,,,,,,,,,,,,,,,,,,,,,,,,,
,,,,,,,,2023-08-16_08h37.09.527,HF_wild_card,2022.2.4,Win32,59.90893841,568f981a7d961b000c969d2f,64d2fd46c836a06233681665,64dc7b94c5c3522490696264,,,,,,,decisionTrl,resources/DG.BMP,resources/DB.BMP,Door3,0.391666667,-0.040740741,1,0,0,1.3993,optionRight,70,5970,3,24,0,24,0,1,,,,,,,,,,,,,,,,,,,,,,,,,,,,,,,,,,,,,,,
,,,,,,,,2023-08-16_08h37.09.527,HF_wild_card,2022.2.4,Win32,59.90893841,568f981a7d961b000c969d2f,64d2fd46c836a06233681665,64dc7b94c5c3522490696264,,,,,,,decisionTrl,resources/DR.BMP,resources/DBN.BMP,Door2,-0.384259259,-0.036111111,1,0,0,1.78,optionLeft,40,6010,3,25,0,25,0,1,,,,,,,,,,,,,,,,,,,,,,,,,,,,,,,,,,,,,,,
,,,,,,,,2023-08-16_08h37.09.527,HF_wild_card,2022.2.4,Win32,59.90893841,568f981a7d961b000c969d2f,64d2fd46c836a06233681665,64dc7b94c5c3522490696264,,,,,,,sngl,resources/Empty.png,resources/DB.BMP,Door3,0.378703704,-0.05,1,0,0,1.2295,optionRight,70,6080,3,26,0,26,0,1,,,,,,,,,,,,,,,,,,,,,,,,,,,,,,,,,,,,,,,
,,,,,,,,2023-08-16_08h37.09.527,HF_wild_card,2022.2.4,Win32,59.90893841,568f981a7d961b000c969d2f,64d2fd46c836a06233681665,64dc7b94c5c3522490696264,,,,,,,decisionTrl,resources/DBN.BMP,resources/DR.BMP,Door2,0.39537037,-0.051851852,1,0,0,1.916,optionRight,20,6100,3,27,0,27,0,1,,,,,,,,,,,,,,,,,,,,,,,,,,,,,,,,,,,,,,,
,,,,,,,,2023-08-16_08h37.09.527,HF_wild_card,2022.2.4,Win32,59.90893841,568f981a7d961b000c969d2f,64d2fd46c836a06233681665,64dc7b94c5c3522490696264,,,,,,,decisionTrl,resources/DP.BMP,resources/DG.BMP,Door4,0.405555556,-0.046296296,1,0,0,1.6802,optionRight,60,6160,3,28,0,28,0,1,,,,,,,,,,,,,,,,,,,,,,,,,,,,,,,,,,,,,,,
,,,,,,,,2023-08-16_08h37.09.527,HF_wild_card,2022.2.4,Win32,59.90893841,568f981a7d961b000c969d2f,64d2fd46c836a06233681665,64dc7b94c5c3522490696264,,,,,,,decisionTrl,resources/DB.BMP,resources/DG.BMP,Door3,-0.382407407,-0.032407407,1,0,0,1.7645,optionLeft,70,6230,3,29,0,29,0,1,,,,,,,,,,,,,,,,,,,,,,,,,,,,,,,,,,,,,,,
,,,,,,,,2023-08-16_08h37.09.527,HF_wild_card,2022.2.4,Win32,59.90893841,568f981a7d961b000c969d2f,64d2fd46c836a06233681665,64dc7b94c5c3522490696264,,,,,,,sngl,resources/DBN.BMP,resources/Empty.png,Door1,-0.257407407,0.010185185,1,0,0,1.062,optionLeft,30,6260,3,30,0,30,0,1,,,,,,,,,,,,,,,,,,,,,,,,,,,,,,,,,,,,,,,
,,,,,,,,2023-08-16_08h37.09.527,HF_wild_card,2022.2.4,Win32,59.90893841,568f981a7d961b000c969d2f,64d2fd46c836a06233681665,64dc7b94c5c3522490696264,,,,,,,sngl,resources/DB.BMP,resources/Empty.png,Door3,-0.27962963,0.003703704,1,0,0,0.954,optionLeft,70,6330,3,31,0,31,0,1,,,,,,,,,,,,,,,,,,,,,,,,,,,,,,,,,,,,,,,
,,,,,,,,2023-08-16_08h37.09.527,HF_wild_card,2022.2.4,Win32,59.90893841,568f981a7d961b000c969d2f,64d2fd46c836a06233681665,64dc7b94c5c3522490696264,,,,,,,decisionTrl,resources/DP.BMP,resources/DR.BMP,Door2,0.275925926,-0.061111111,1,0,0,1.7299,optionRight,20,6350,3,32,0,32,0,1,,,,,,,,,,,,,,,,,,,,,,,,,,,,,,,,,,,,,,,
,,,,,,,,2023-08-16_08h37.09.527,HF_wild_card,2022.2.4,Win32,59.90893841,568f981a7d961b000c969d2f,64d2fd46c836a06233681665,64dc7b94c5c3522490696264,,,,,,,ctch,resources/DG.BMP,resources/DBN.BMP,Door4,-0.380555556,-0.021296296,1,0,0,1.8432,optionLeft,60,6410,3,33,0,33,0,1,,,,,,,,,,,,,,,,,,,,,,,,,,,,,,,,,,,,,,,
,,,,,,,,2023-08-16_08h37.09.527,HF_wild_card,2022.2.4,Win32,59.90893841,568f981a7d961b000c969d2f,64d2fd46c836a06233681665,64dc7b94c5c3522490696264,,,,,,,decisionTrl,resources/DB.BMP,resources/DG.BMP,Door3,-0.344444444,0.012962963,1,0,0,1.064,optionLeft,70,6480,3,34,0,34,0,1,,,,,,,,,,,,,,,,,,,,,,,,,,,,,,,,,,,,,,,
,,,,,,,,2023-08-16_08h37.09.527,HF_wild_card,2022.2.4,Win32,59.90893841,568f981a7d961b000c969d2f,64d2fd46c836a06233681665,64dc7b94c5c3522490696264,,,,,,,decisionTrl,resources/DP.BMP,resources/DB.BMP,WildCard_Ex,-0.294444444,-0.027777778,1,0,0,1.4162,optionLeft,5,6485,3,35,0,35,0,1,,,,,,,,,,,,,,,,,,,,,,,,,,,,,,,,,,,,,,,
,,,,,,,,2023-08-16_08h37.09.527,HF_wild_card,2022.2.4,Win32,59.90893841,568f981a7d961b000c969d2f,64d2fd46c836a06233681665,64dc7b94c5c3522490696264,,,,,,,sngl,resources/Empty.png,resources/DBN.BMP,Door1,0.309259259,0.021296296,1,0,0,0.9988,optionRight,30,6515,3,36,0,36,0,1,,,,,,,,,,,,,,,,,,,,,,,,,,,,,,,,,,,,,,,
,,,,,,,,2023-08-16_08h37.09.527,HF_wild_card,2022.2.4,Win32,59.90893841,568f981a7d961b000c969d2f,64d2fd46c836a06233681665,64dc7b94c5c3522490696264,,,,,,,decisionTrl,resources/DG.BMP,resources/DP.BMP,Door4,-0.337037037,0.012962963,1,0,0,1.0129,optionLeft,80,6595,3,37,0,37,0,1,,,,,,,,,,,,,,,,,,,,,,,,,,,,,,,,,,,,,,,
,,,,,,,,2023-08-16_08h37.09.527,HF_wild_card,2022.2.4,Win32,59.90893841,568f981a7d961b000c969d2f,64d2fd46c836a06233681665,64dc7b94c5c3522490696264,,,,,,,sngl,resources/Empty.png,resources/DR.BMP,Door2,0.367592593,-0.051851852,1,0,0,0.9817,optionRight,20,6615,3,38,0,38,0,1,,,,,,,,,,,,,,,,,,,,,,,,,,,,,,,,,,,,,,,
,,,,,,,,2023-08-16_08h37.09.527,HF_wild_card,2022.2.4,Win32,59.90893841,568f981a7d961b000c969d2f,64d2fd46c836a06233681665,64dc7b94c5c3522490696264,,,,,,,decisionTrl,resources/DB.BMP,resources/DG.BMP,Door3,-0.387962963,-0.036111111,1,0,0,1.967,optionLeft,70,6685,3,39,0,39,0,1,,,,,,,,,,,,,,,,,,,,,,,,,,,,,,,,,,,,,,,
,,,,,,,,2023-08-16_08h37.09.527,HF_wild_card,2022.2.4,Win32,59.90893841,568f981a7d961b000c969d2f,64d2fd46c836a06233681665,64dc7b94c5c3522490696264,,,,,,,ctch,resources/DB.BMP,resources/DR.BMP,Door3,-0.423148148,-0.001851852,1,0,0,1.1463,optionLeft,70,6755,3,40,0,40,0,1,,,,,,,,,,,,,,,,,,,,,,,,,,,,,,,,,,,,,,,
,,,,,,,,2023-08-16_08h37.09.527,HF_wild_card,2022.2.4,Win32,59.90893841,568f981a7d961b000c969d2f,64d2fd46c836a06233681665,64dc7b94c5c3522490696264,,,,,,,decisionTrl,resources/DBN.BMP,resources/DR.BMP,Door2,0.382407407,-0.053703704,1,0,0,2.11,optionRight,40,6795,3,41,0,41,0,1,,,,,,,,,,,,,,,,,,,,,,,,,,,,,,,,,,,,,,,
,,,,,,,,2023-08-16_08h37.09.527,HF_wild_card,2022.2.4,Win32,59.90893841,568f981a7d961b000c969d2f,64d2fd46c836a06233681665,64dc7b94c5c3522490696264,,,,,,,ctch,resources/DG.BMP,resources/DBN.BMP,Door4,-0.353703704,-0.021296296,1,0,0,1.1147,optionLeft,80,6875,3,42,0,42,0,1,,,,,,,,,,,,,,,,,,,,,,,,,,,,,,,,,,,,,,,
,,,,,,,,2023-08-16_08h37.09.527,HF_wild_card,2022.2.4,Win32,59.90893841,568f981a7d961b000c969d2f,64d2fd46c836a06233681665,64dc7b94c5c3522490696264,,,,,,,decisionTrl,resources/DR.BMP,resources/DBN.BMP,Door2,-0.35,-0.017592593,1,0,0,1.1088,optionLeft,40,6915,3,43,0,43,0,1,,,,,,,,,,,,,,,,,,,,,,,,,,,,,,,,,,,,,,,
,,,,,,,,2023-08-16_08h37.09.527,HF_wild_card,2022.2.4,Win32,59.90893841,568f981a7d961b000c969d2f,64d2fd46c836a06233681665,64dc7b94c5c3522490696264,,,,,,,,,,,,,,,,,,,,,,,,,,2,0,2,0,1,,,,,,,,,,,,,,,,,,,,,,,,,,,,,,,,,,
,,,,,,,,2023-08-16_08h37.09.527,HF_wild_card,2022.2.4,Win32,59.90893841,568f981a7d961b000c969d2f,64d2fd46c836a06233681665,64dc7b94c5c3522490696264,,,,,,,decisionTrl,resources/DR.BMP,resources/DBN.BMP,Door2,-0.343518519,-0.040740741,1,0,0,1.5,optionLeft,40,6955,4,0,0,0,0,1,,,,,,,,,,,,,,,,,,,,,,,,,,,,,,,,,,,,,,,
,,,,,,,,2023-08-16_08h37.09.527,HF_wild_card,2022.2.4,Win32,59.90893841,568f981a7d961b000c969d2f,64d2fd46c836a06233681665,64dc7b94c5c3522490696264,,,,,,,decisionTrl,resources/DG.BMP,resources/DB.BMP,Door3,0.367592593,-0.037962963,1,0,0,1.4667,optionRight,70,7025,4,1,0,1,0,1,,,,,,,,,,,,,,,,,,,,,,,,,,,,,,,,,,,,,,,
,,,,,,,,2023-08-16_08h37.09.527,HF_wild_card,2022.2.4,Win32,59.90893841,568f981a7d961b000c969d2f,64d2fd46c836a06233681665,64dc7b94c5c3522490696264,,,,,,,sngl,resources/Empty.png,resources/DR.BMP,Door2,0.450925926,0.007407407,1,0,0,1.1637,optionRight,40,7065,4,2,0,2,0,1,,,,,,,,,,,,,,,,,,,,,,,,,,,,,,,,,,,,,,,
,,,,,,,,2023-08-16_08h37.09.527,HF_wild_card,2022.2.4,Win32,59.90893841,568f981a7d961b000c969d2f,64d2fd46c836a06233681665,64dc7b94c5c3522490696264,,,,,,,decisionTrl,resources/DY.BMP,resources/DG.BMP,WildCard_NonEx,-0.375925926,-0.057407407,1,0,0,2.3994,optionLeft,45,7110,4,3,0,3,0,1,,,,,,,,,,,,,,,,,,,,,,,,,,,,,,,,,,,,,,,
,,,,,,,,2023-08-16_08h37.09.527,HF_wild_card,2022.2.4,Win32,59.90893841,568f981a7d961b000c969d2f,64d2fd46c836a06233681665,64dc7b94c5c3522490696264,,,,,,,ctch,resources/DBN.BMP,resources/DG.BMP,Door4,0.406481481,-0.044444444,1,0,0,1.05,optionRight,60,7170,4,4,0,4,0,1,,,,,,,,,,,,,,,,,,,,,,,,,,,,,,,,,,,,,,,
,,,,,,,,2023-08-16_08h37.09.527,HF_wild_card,2022.2.4,Win32,59.90893841,568f981a7d961b000c969d2f,64d2fd46c836a06233681665,64dc7b94c5c3522490696264,,,,,,,decisionTrl,resources/DBN.BMP,resources/DR.BMP,Door2,0.318518519,-0.04537037,1,0,0,1.0313,optionRight,20,7190,4,5,0,5,0,1,,,,,,,,,,,,,,,,,,,,,,,,,,,,,,,,,,,,,,,
,,,,,,,,2023-08-16_08h37.09.527,HF_wild_card,2022.2.4,Win32,59.90893841,568f981a7d961b000c969d2f,64d2fd46c836a06233681665,64dc7b94c5c3522490696264,,,,,,,sngl,resources/Empty.png,resources/DB.BMP,Door3,0.439814815,-0.025925926,1,0,0,1.1829,optionRight,70,7260,4,6,0,6,0,1,,,,,,,,,,,,,,,,,,,,,,,,,,,,,,,,,,,,,,,
,,,,,,,,2023-08-16_08h37.09.527,HF_wild_card,2022.2.4,Win32,59.90893841,568f981a7d961b000c969d2f,64d2fd46c836a06233681665,64dc7b94c5c3522490696264,,,,,,,decisionTrl,resources/DBN.BMP,resources/DR.BMP,Door2,0.323148148,-0.049074074,1,0,0,1.498,optionRight,40,7300,4,7,0,7,0,1,,,,,,,,,,,,,,,,,,,,,,,,,,,,,,,,,,,,,,,
,,,,,,,,2023-08-16_08h37.09.527,HF_wild_card,2022.2.4,Win32,59.90893841,568f981a7d961b000c969d2f,64d2fd46c836a06233681665,64dc7b94c5c3522490696264,,,,,,,ctch,resources/DG.BMP,resources/DBN.BMP,Door4,-0.385185185,-0.002777778,1,0,0,1.1628,optionLeft,60,7360,4,8,0,8,0,1,,,,,,,,,,,,,,,,,,,,,,,,,,,,,,,,,,,,,,,
,,,,,,,,2023-08-16_08h37.09.527,HF_wild_card,2022.2.4,Win32,59.90893841,568f981a7d961b000c969d2f,64d2fd46c836a06233681665,64dc7b94c5c3522490696264,,,,,,,decisionTrl,resources/DB.BMP,resources/DG.BMP,Door3,-0.453703704,-0.005555556,1,0,0,1.3792,optionLeft,70,7430,4,9,0,9,0,1,,,,,,,,,,,,,,,,,,,,,,,,,,,,,,,,,,,,,,,
,,,,,,,,2023-08-16_08h37.09.527,HF_wild_card,2022.2.4,Win32,59.90893841,568f981a7d961b000c969d2f,64d2fd46c836a06233681665,64dc7b94c5c3522490696264,,,,,,,sngl,resources/Empty.png,resources/DY.BMP,WildCard_NonEx,0.331481481,-0.031481481,1,0,0,1.2165,optionRight,45,7475,4,10,0,10,0,1,,,,,,,,,,,,,,,,,,,,,,,,,,,,,,,,,,,,,,,
,,,,,,,,2023-08-16_08h37.09.527,HF_wild_card,2022.2.4,Win32,59.90893841,568f981a7d961b000c969d2f,64d2fd46c836a06233681665,64dc7b94c5c3522490696264,,,,,,,decisionTrl,resources/DB.BMP,resources/DG.BMP,Door3,-0.338888889,-0.062037037,1,0,0,1.1476,optionLeft,70,7545,4,11,0,11,0,1,,,,,,,,,,,,,,,,,,,,,,,,,,,,,,,,,,,,,,,
,,,,,,,,2023-08-16_08h37.09.527,HF_wild_card,2022.2.4,Win32,59.90893841,568f981a7d961b000c969d2f,64d2fd46c836a06233681665,64dc7b94c5c3522490696264,,,,,,,decisionTrl,resources/DB.BMP,resources/DG.BMP,Door3,-0.372222222,-0.016666667,1,0,0,1.1466,optionLeft,70,7615,4,12,0,12,0,1,,,,,,,,,,,,,,,,,,,,,,,,,,,,,,,,,,,,,,,
,,,,,,,,2023-08-16_08h37.09.527,HF_wild_card,2022.2.4,Win32,59.90893841,568f981a7d961b000c969d2f,64d2fd46c836a06233681665,64dc7b94c5c3522490696264,,,,,,,ctch,resources/DR.BMP,resources/DB.BMP,Door3,0.42962963,-0.065740741,1,0,0,1.2138,optionRight,70,7685,4,13,0,13,0,1,,,,,,,,,,,,,,,,,,,,,,,,,,,,,,,,,,,,,,,
,,,,,,,,2023-08-16_08h37.09.527,HF_wild_card,2022.2.4,Win32,59.90893841,568f981a7d961b000c969d2f,64d2fd46c836a06233681665,64dc7b94c5c3522490696264,,,,,,,decisionTrl,resources/DR.BMP,resources/DBN.BMP,Door2,-0.39537037,-0.028703704,1,0,0,1.4308,optionLeft,40,7725,4,14,0,14,0,1,,,,,,,,,,,,,,,,,,,,,,,,,,,,,,,,,,,,,,,
,,,,,,,,2023-08-16_08h37.09.527,HF_wild_card,2022.2.4,Win32,59.90893841,568f981a7d961b000c969d2f,64d2fd46c836a06233681665,64dc7b94c5c3522490696264,,,,,,,decisionTrl,resources/DB.BMP,resources/DY.BMP,Door3,-0.37037037,-0.038888889,1,0,0,1.5813,optionLeft,70,7795,4,15,0,15,0,1,,,,,,,,,,,,,,,,,,,,,,,,,,,,,,,,,,,,,,,
,,,,,,,,2023-08-16_08h37.09.527,HF_wild_card,2022.2.4,Win32,59.90893841,568f981a7d961b000c969d2f,64d2fd46c836a06233681665,64dc7b94c5c3522490696264,,,,,,,decisionTrl,resources/DB.BMP,resources/DG.BMP,Door3,-0.313888889,-0.050925926,1,0,0,1.013,optionLeft,70,7865,4,16,0,16,0,1,,,,,,,,,,,,,,,,,,,,,,,,,,,,,,,,,,,,,,,
,,,,,,,,2023-08-16_08h37.09.527,HF_wild_card,2022.2.4,Win32,59.90893841,568f981a7d961b000c969d2f,64d2fd46c836a06233681665,64dc7b94c5c3522490696264,,,,,,,decisionTrl,resources/DG.BMP,resources/DB.BMP,Door3,0.4,-0.073148148,1,0,0,1.0161,optionRight,70,7935,4,17,0,17,0,1,,,,,,,,,,,,,,,,,,,,,,,,,,,,,,,,,,,,,,,
,,,,,,,,2023-08-16_08h37.09.527,HF_wild_card,2022.2.4,Win32,59.90893841,568f981a7d961b000c969d2f,64d2fd46c836a06233681665,64dc7b94c5c3522490696264,,,,,,,sngl,resources/DB.BMP,resources/Empty.png,Door3,-0.303703704,-0.008333333,1,0,0,0.8124,optionLeft,70,8005,4,18,0,18,0,1,,,,,,,,,,,,,,,,,,,,,,,,,,,,,,,,,,,,,,,
,,,,,,,,2023-08-16_08h37.09.527,HF_wild_card,2022.2.4,Win32,59.90893841,568f981a7d961b000c969d2f,64d2fd46c836a06233681665,64dc7b94c5c3522490696264,,,,,,,decisionTrl,resources/DG.BMP,resources/DB.BMP,Door3,0.316666667,-0.025925926,1,0,0,0.8318,optionRight,70,8075,4,19,0,19,0,1,,,,,,,,,,,,,,,,,,,,,,,,,,,,,,,,,,,,,,,
,,,,,,,,2023-08-16_08h37.09.527,HF_wild_card,2022.2.4,Win32,59.90893841,568f981a7d961b000c969d2f,64d2fd46c836a06233681665,64dc7b94c5c3522490696264,,,,,,,ctch,resources/DG.BMP,resources/DBN.BMP,Door4,-0.394444444,-0.016666667,1,0,0,1.1238,optionLeft,80,8155,4,20,0,20,0,1,,,,,,,,,,,,,,,,,,,,,,,,,,,,,,,,,,,,,,,
,,,,,,,,2023-08-16_08h37.09.527,HF_wild_card,2022.2.4,Win32,59.90893841,568f981a7d961b000c969d2f,64d2fd46c836a06233681665,64dc7b94c5c3522490696264,,,,,,,decisionTrl,resources/DR.BMP,resources/DY.BMP,Door2,-0.325,0.008333333,1,0,0,1.7995,optionLeft,20,8175,4,21,0,21,0,1,,,,,,,,,,,,,,,,,,,,,,,,,,,,,,,,,,,,,,,
,,,,,,,,2023-08-16_08h37.09.527,HF_wild_card,2022.2.4,Win32,59.90893841,568f981a7d961b000c969d2f,64d2fd46c836a06233681665,64dc7b94c5c3522490696264,,,,,,,sngl,resources/DR.BMP,resources/Empty.png,Door2,-0.299074074,-0.028703704,1,0,0,0.9066,optionLeft,20,8195,4,22,0,22,0,1,,,,,,,,,,,,,,,,,,,,,,,,,,,,,,,,,,,,,,,
,,,,,,,,2023-08-16_08h37.09.527,HF_wild_card,2022.2.4,Win32,59.90893841,568f981a7d961b000c969d2f,64d2fd46c836a06233681665,64dc7b94c5c3522490696264,,,,,,,decisionTrl,resources/DBN.BMP,resources/DY.BMP,WildCard_NonEx,0.362962963,-0.018518519,1,0,0,1.3631,optionRight,45,8240,4,23,0,23,0,1,,,,,,,,,,,,,,,,,,,,,,,,,,,,,,,,,,,,,,,
,,,,,,,,2023-08-16_08h37.09.527,HF_wild_card,2022.2.4,Win32,59.90893841,568f981a7d961b000c969d2f,64d2fd46c836a06233681665,64dc7b94c5c3522490696264,,,,,,,sngl,resources/DY.BMP,resources/Empty.png,WildCard_NonEx,-0.239814815,0.010185185,1,0,0,0.7883,optionLeft,45,8285,4,24,0,24,0,1,,,,,,,,,,,,,,,,,,,,,,,,,,,,,,,,,,,,,,,
,,,,,,,,2023-08-16_08h37.09.527,HF_wild_card,2022.2.4,Win32,59.90893841,568f981a7d961b000c969d2f,64d2fd46c836a06233681665,64dc7b94c5c3522490696264,,,,,,,decisionTrl,resources/DY.BMP,resources/DBN.BMP,WildCard_NonEx,-0.256481481,0.00462963,1,0,0,0.9654,optionLeft,45,8330,4,25,0,25,0,1,,,,,,,,,,,,,,,,,,,,,,,,,,,,,,,,,,,,,,,
,,,,,,,,2023-08-16_08h37.09.527,HF_wild_card,2022.2.4,Win32,59.90893841,568f981a7d961b000c969d2f,64d2fd46c836a06233681665,64dc7b94c5c3522490696264,,,,,,,sngl,resources/Empty.png,resources/DY.BMP,WildCard_NonEx,0.337962963,-0.030555556,1,0,0,0.7539,optionRight,55,8385,4,26,0,26,0,1,,,,,,,,,,,,,,,,,,,,,,,,,,,,,,,,,,,,,,,
,,,,,,,,2023-08-16_08h37.09.527,HF_wild_card,2022.2.4,Win32,59.90893841,568f981a7d961b000c969d2f,64d2fd46c836a06233681665,64dc7b94c5c3522490696264,,,,,,,decisionTrl,resources/DY.BMP,resources/DB.BMP,Door3,0.296296296,-0.059259259,1,0,0,2.3848,optionRight,70,8455,4,27,0,27,0,1,,,,,,,,,,,,,,,,,,,,,,,,,,,,,,,,,,,,,,,
,,,,,,,,2023-08-16_08h37.09.527,HF_wild_card,2022.2.4,Win32,59.90893841,568f981a7d961b000c969d2f,64d2fd46c836a06233681665,64dc7b94c5c3522490696264,,,,,,,ctch,resources/DB.BMP,resources/DR.BMP,Door3,-0.39537037,-0.013888889,1,0,0,1.0321,optionLeft,70,8525,4,28,0,28,0,1,,,,,,,,,,,,,,,,,,,,,,,,,,,,,,,,,,,,,,,
,,,,,,,,2023-08-16_08h37.09.527,HF_wild_card,2022.2.4,Win32,59.90893841,568f981a7d961b000c969d2f,64d2fd46c836a06233681665,64dc7b94c5c3522490696264,,,,,,,sngl,resources/DBN.BMP,resources/Empty.png,Door1,-0.189814815,0.001851852,1,0,0,0.8459,optionLeft,30,8555,4,29,0,29,0,1,,,,,,,,,,,,,,,,,,,,,,,,,,,,,,,,,,,,,,,
,,,,,,,,2023-08-16_08h37.09.527,HF_wild_card,2022.2.4,Win32,59.90893841,568f981a7d961b000c969d2f,64d2fd46c836a06233681665,64dc7b94c5c3522490696264,,,,,,,decisionTrl,resources/DR.BMP,resources/DBN.BMP,Door2,-0.284259259,0.003703704,1,0,0,1.1798,optionLeft,40,8595,4,30,0,30,0,1,,,,,,,,,,,,,,,,,,,,,,,,,,,,,,,,,,,,,,,
,,,,,,,,2023-08-16_08h37.09.527,HF_wild_card,2022.2.4,Win32,59.90893841,568f981a7d961b000c969d2f,64d2fd46c836a06233681665,64dc7b94c5c3522490696264,,,,,,,decisionTrl,resources/DBN.BMP,resources/DR.BMP,Door2,0.342592593,-0.040740741,1,0,0,0.9918,optionRight,20,8615,4,31,0,31,0,1,,,,,,,,,,,,,,,,,,,,,,,,,,,,,,,,,,,,,,,
,,,,,,,,2023-08-16_08h37.09.527,HF_wild_card,2022.2.4,Win32,59.90893841,568f981a7d961b000c969d2f,64d2fd46c836a06233681665,64dc7b94c5c3522490696264,,,,,,,ctch,resources/DB.BMP,resources/DR.BMP,Door3,-0.387962963,-0.000925926,1,0,0,1.1964,optionLeft,70,8685,4,32,0,32,0,1,,,,,,,,,,,,,,,,,,,,,,,,,,,,,,,,,,,,,,,
,,,,,,,,2023-08-16_08h37.09.527,HF_wild_card,2022.2.4,Win32,59.90893841,568f981a7d961b000c969d2f,64d2fd46c836a06233681665,64dc7b94c5c3522490696264,,,,,,,sngl,resources/DG.BMP,resources/Empty.png,Door4,-0.35462963,0.059259259,1,0,0,1.0731,optionLeft,60,8745,4,33,0,33,0,1,,,,,,,,,,,,,,,,,,,,,,,,,,,,,,,,,,,,,,,
,,,,,,,,2023-08-16_08h37.09.527,HF_wild_card,2022.2.4,Win32,59.90893841,568f981a7d961b000c969d2f,64d2fd46c836a06233681665,64dc7b94c5c3522490696264,,,,,,,sngl,resources/Empty.png,resources/DBN.BMP,Door1,0.278703704,0.049074074,1,0,0,1.1325,optionRight,30,8775,4,34,0,34,0,1,,,,,,,,,,,,,,,,,,,,,,,,,,,,,,,,,,,,,,,
,,,,,,,,2023-08-16_08h37.09.527,HF_wild_card,2022.2.4,Win32,59.90893841,568f981a7d961b000c969d2f,64d2fd46c836a06233681665,64dc7b94c5c3522490696264,,,,,,,decisionTrl,resources/DBN.BMP,resources/DR.BMP,Door2,0.389814815,-0.05462963,1,0,0,1.2474,optionRight,20,8795,4,35,0,35,0,1,,,,,,,,,,,,,,,,,,,,,,,,,,,,,,,,,,,,,,,
,,,,,,,,2023-08-16_08h37.09.527,HF_wild_card,2022.2.4,Win32,59.90893841,568f981a7d961b000c969d2f,64d2fd46c836a06233681665,64dc7b94c5c3522490696264,,,,,,,sngl,resources/DY.BMP,resources/Empty.png,WildCard_NonEx,-0.331481481,-0.007407407,1,0,0,0.9949,optionLeft,55,8850,4,36,0,36,0,1,,,,,,,,,,,,,,,,,,,,,,,,,,,,,,,,,,,,,,,
,,,,,,,,2023-08-16_08h37.09.527,HF_wild_card,2022.2.4,Win32,59.90893841,568f981a7d961b000c969d2f,64d2fd46c836a06233681665,64dc7b94c5c3522490696264,,,,,,,ctch,resources/DBN.BMP,resources/DG.BMP,Door4,0.346296296,-0.059259259,1,0,0,1.1782,optionRight,60,8910,4,37,0,37,0,1,,,,,,,,,,,,,,,,,,,,,,,,,,,,,,,,,,,,,,,
,,,,,,,,2023-08-16_08h37.09.527,HF_wild_card,2022.2.4,Win32,59.90893841,568f981a7d961b000c969d2f,64d2fd46c836a06233681665,64dc7b94c5c3522490696264,,,,,,,decisionTrl,resources/DY.BMP,resources/DR.BMP,WildCard_NonEx,-0.192592593,0.024074074,1,0,0,1.7328,optionLeft,55,8965,4,38,0,38,0,1,,,,,,,,,,,,,,,,,,,,,,,,,,,,,,,,,,,,,,,
,,,,,,,,2023-08-16_08h37.09.527,HF_wild_card,2022.2.4,Win32,59.90893841,568f981a7d961b000c969d2f,64d2fd46c836a06233681665,64dc7b94c5c3522490696264,,,,,,,decisionTrl,resources/DR.BMP,resources/DBN.BMP,Door2,-0.274074074,-0.025,1,0,0,1.0739,optionLeft,40,9005,4,39,0,39,0,1,,,,,,,,,,,,,,,,,,,,,,,,,,,,,,,,,,,,,,,
,,,,,,,,2023-08-16_08h37.09.527,HF_wild_card,2022.2.4,Win32,59.90893841,568f981a7d961b000c969d2f,64d2fd46c836a06233681665,64dc7b94c5c3522490696264,,,,,,,sngl,resources/Empty.png,resources/DG.BMP,Door4,0.407407407,0.016666667,1,0,0,0.9316,optionRight,80,9085,4,40,0,40,0,1,,,,,,,,,,,,,,,,,,,,,,,,,,,,,,,,,,,,,,,
,,,,,,,,2023-08-16_08h37.09.527,HF_wild_card,2022.2.4,Win32,59.90893841,568f981a7d961b000c969d2f,64d2fd46c836a06233681665,64dc7b94c5c3522490696264,,,,,,,decisionTrl,resources/DG.BMP,resources/DY.BMP,Door4,-0.29537037,0.015740741,1,0,0,1.0126,optionLeft,80,9165,4,41,0,41,0,1,,,,,,,,,,,,,,,,,,,,,,,,,,,,,,,,,,,,,,,
,,,,,,,,2023-08-16_08h37.09.527,HF_wild_card,2022.2.4,Win32,59.90893841,568f981a7d961b000c969d2f,64d2fd46c836a06233681665,64dc7b94c5c3522490696264,,,,,,,decisionTrl,resources/DG.BMP,resources/DB.BMP,Door4,-0.310185185,-0.005555556,1,0,0,1.0463,optionLeft,80,9245,4,42,0,42,0,1,,,,,,,,,,,,,,,,,,,,,,,,,,,,,,,,,,,,,,,
,,,,,,,,2023-08-16_08h37.09.527,HF_wild_card,2022.2.4,Win32,59.90893841,568f981a7d961b000c969d2f,64d2fd46c836a06233681665,64dc7b94c5c3522490696264,,,,,,,ctch,resources/DR.BMP,resources/DB.BMP,Door3,0.330555556,-0.058333333,1,0,0,1.6238,optionRight,70,9315,4,43,0,43,0,1,,,,,,,,,,,,,,,,,,,,,,,,,,,,,,,,,,,,,,,
,,,,,,,,2023-08-16_08h37.09.527,HF_wild_card,2022.2.4,Win32,59.90893841,568f981a7d961b000c969d2f,64d2fd46c836a06233681665,64dc7b94c5c3522490696264,,,,,,,,,,,,,,,,,,,,,,,,,,3,0,3,0,1,,,,,,,,,,,,,,,,,,,,,,,,,,,,,,,,,,
,,,,,,,,2023-08-16_08h37.09.527,HF_wild_card,2022.2.4,Win32,59.90893841,568f981a7d961b000c969d2f,64d2fd46c836a06233681665,64dc7b94c5c3522490696264,,,,,,,decisionTrl,resources/DG.BMP,resources/DB.BMP,Door4,-0.341666667,-0.084259259,1,0,0,1.8089,optionLeft,80,9395,5,0,0,0,0,1,,,,,,,,,,,,,,,,,,,,,,,,,,,,,,,,,,,,,,,
,,,,,,,,2023-08-16_08h37.09.527,HF_wild_card,2022.2.4,Win32,59.90893841,568f981a7d961b000c969d2f,64d2fd46c836a06233681665,64dc7b94c5c3522490696264,,,,,,,ctch,resources/DG.BMP,resources/DBN.BMP,Door4,-0.376851852,0.021296296,1,0,0,0.9223,optionLeft,80,9475,5,1,0,1,0,1,,,,,,,,,,,,,,,,,,,,,,,,,,,,,,,,,,,,,,,
,,,,,,,,2023-08-16_08h37.09.527,HF_wild_card,2022.2.4,Win32,59.90893841,568f981a7d961b000c969d2f,64d2fd46c836a06233681665,64dc7b94c5c3522490696264,,,,,,,decisionTrl,resources/DR.BMP,resources/DBN.BMP,Door2,-0.355555556,-0.026851852,1,0,0,2.6827,optionLeft,20,9495,5,2,0,2,0,1,,,,,,,,,,,,,,,,,,,,,,,,,,,,,,,,,,,,,,,
,,,,,,,,2023-08-16_08h37.09.527,HF_wild_card,2022.2.4,Win32,59.90893841,568f981a7d961b000c969d2f,64d2fd46c836a06233681665,64dc7b94c5c3522490696264,,,,,,,decisionTrl,resources/DB.BMP,resources/DG.BMP,Door4,0.40462963,0.001851852,1,0,0,1.3988,optionRight,60,9555,5,3,0,3,0,1,,,,,,,,,,,,,,,,,,,,,,,,,,,,,,,,,,,,,,,
,,,,,,,,2023-08-16_08h37.09.527,HF_wild_card,2022.2.4,Win32,59.90893841,568f981a7d961b000c969d2f,64d2fd46c836a06233681665,64dc7b94c5c3522490696264,,,,,,,sngl,resources/DB.BMP,resources/Empty.png,Door3,-0.464814815,0.009259259,1,0,0,0.864,optionLeft,70,9625,5,4,0,4,0,1,,,,,,,,,,,,,,,,,,,,,,,,,,,,,,,,,,,,,,,
,,,,,,,,2023-08-16_08h37.09.527,HF_wild_card,2022.2.4,Win32,59.90893841,568f981a7d961b000c969d2f,64d2fd46c836a06233681665,64dc7b94c5c3522490696264,,,,,,,decisionTrl,resources/DG.BMP,resources/DB.BMP,Door4,-0.239814815,0.028703704,1,0,0,1.3813,optionLeft,80,9705,5,5,0,5,0,1,,,,,,,,,,,,,,,,,,,,,,,,,,,,,,,,,,,,,,,
,,,,,,,,2023-08-16_08h37.09.527,HF_wild_card,2022.2.4,Win32,59.90893841,568f981a7d961b000c969d2f,64d2fd46c836a06233681665,64dc7b94c5c3522490696264,,,,,,,decisionTrl,resources/DBN.BMP,resources/DR.BMP,Door1,-0.3,0.05462963,1,0,0,1.413,optionLeft,30,9735,5,6,0,6,0,1,,,,,,,,,,,,,,,,,,,,,,,,,,,,,,,,,,,,,,,
,,,,,,,,2023-08-16_08h37.09.527,HF_wild_card,2022.2.4,Win32,59.90893841,568f981a7d961b000c969d2f,64d2fd46c836a06233681665,64dc7b94c5c3522490696264,,,,,,,decisionTrl,resources/DY.BMP,resources/DR.BMP,WildCard_NonEx,-0.3,-0.031481481,1,0,0,1.2465,optionLeft,45,9780,5,7,0,7,0,1,,,,,,,,,,,,,,,,,,,,,,,,,,,,,,,,,,,,,,,
,,,,,,,,2023-08-16_08h37.09.527,HF_wild_card,2022.2.4,Win32,59.90893841,568f981a7d961b000c969d2f,64d2fd46c836a06233681665,64dc7b94c5c3522490696264,,,,,,,ctch,resources/DR.BMP,resources/DB.BMP,Door3,0.400925926,-0.056481481,1,0,0,1.923,optionRight,70,9850,5,8,0,8,0,1,,,,,,,,,,,,,,,,,,,,,,,,,,,,,,,,,,,,,,,
,,,,,,,,2023-08-16_08h37.09.527,HF_wild_card,2022.2.4,Win32,59.90893841,568f981a7d961b000c969d2f,64d2fd46c836a06233681665,64dc7b94c5c3522490696264,,,,,,,decisionTrl,resources/DY.BMP,resources/DB.BMP,Door3,0.387962963,-0.046296296,1,0,0,2.151,optionRight,70,9920,5,9,0,9,0,1,,,,,,,,,,,,,,,,,,,,,,,,,,,,,,,,,,,,,,,
,,,,,,,,2023-08-16_08h37.09.527,HF_wild_card,2022.2.4,Win32,59.90893841,568f981a7d961b000c969d2f,64d2fd46c836a06233681665,64dc7b94c5c3522490696264,,,,,,,decisionTrl,resources/DB.BMP,resources/DY.BMP,Door3,-0.47962963,0.042592593,1,0,0,1.4341,optionLeft,70,9990,5,10,0,10,0,1,,,,,,,,,,,,,,,,,,,,,,,,,,,,,,,,,,,,,,,
,,,,,,,,2023-08-16_08h37.09.527,HF_wild_card,2022.2.4,Win32,59.90893841,568f981a7d961b000c969d2f,64d2fd46c836a06233681665,64dc7b94c5c3522490696264,,,,,,,ctch,resources/DR.BMP,resources/DB.BMP,Door3,0.408333333,-0.037037037,1,0,0,1.1799,optionRight,70,10060,5,11,0,11,0,1,,,,,,,,,,,,,,,,,,,,,,,,,,,,,,,,,,,,,,,
,,,,,,,,2023-08-16_08h37.09.527,HF_wild_card,2022.2.4,Win32,59.90893841,568f981a7d961b000c969d2f,64d2fd46c836a06233681665,64dc7b94c5c3522490696264,,,,,,,decisionTrl,resources/DG.BMP,resources/DB.BMP,Door4,-0.336111111,-0.011111111,1,0,0,1.5088,optionLeft,80,10140,5,12,0,12,0,1,,,,,,,,,,,,,,,,,,,,,,,,,,,,,,,,,,,,,,,
,,,,,,,,2023-08-16_08h37.09.527,HF_wild_card,2022.2.4,Win32,59.90893841,568f981a7d961b000c969d2f,64d2fd46c836a06233681665,64dc7b94c5c3522490696264,,,,,,,sngl,resources/Empty.png,resources/DG.BMP,Door4,0.376851852,-0.012962963,1,0,0,0.929,optionRight,60,10200,5,13,0,13,0,1,,,,,,,,,,,,,,,,,,,,,,,,,,,,,,,,,,,,,,,
,,,,,,,,2023-08-16_08h37.09.527,HF_wild_card,2022.2.4,Win32,59.90893841,568f981a7d961b000c969d2f,64d2fd46c836a06233681665,64dc7b94c5c3522490696264,,,,,,,ctch,resources/DB.BMP,resources/DR.BMP,Door3,-0.393518519,-0.010185185,1,0,0,1.1657,optionLeft,70,10270,5,14,0,14,0,1,,,,,,,,,,,,,,,,,,,,,,,,,,,,,,,,,,,,,,,
,,,,,,,,2023-08-16_08h37.09.527,HF_wild_card,2022.2.4,Win32,59.90893841,568f981a7d961b000c969d2f,64d2fd46c836a06233681665,64dc7b94c5c3522490696264,,,,,,,decisionTrl,resources/DG.BMP,resources/DY.BMP,Door4,-0.327777778,0.011111111,1,0,0,1.0747,optionLeft,60,10330,5,15,0,15,0,1,,,,,,,,,,,,,,,,,,,,,,,,,,,,,,,,,,,,,,,
,,,,,,,,2023-08-16_08h37.09.527,HF_wild_card,2022.2.4,Win32,59.90893841,568f981a7d961b000c969d2f,64d2fd46c836a06233681665,64dc7b94c5c3522490696264,,,,,,,decisionTrl,resources/DR.BMP,resources/DY.BMP,WildCard_NonEx,0.296296296,-0.058333333,1,0,0,1.8756,optionRight,45,10375,5,16,0,16,0,1,,,,,,,,,,,,,,,,,,,,,,,,,,,,,,,,,,,,,,,
,,,,,,,,2023-08-16_08h37.09.527,HF_wild_card,2022.2.4,Win32,59.90893841,568f981a7d961b000c969d2f,64d2fd46c836a06233681665,64dc7b94c5c3522490696264,,,,,,,decisionTrl,resources/DBN.BMP,resources/DR.BMP,Door1,-0.392592593,-0.018518519,1,0,0,1.5796,optionLeft,30,10405,5,17,0,17,0,1,,,,,,,,,,,,,,,,,,,,,,,,,,,,,,,,,,,,,,,
,,,,,,,,2023-08-16_08h37.09.527,HF_wild_card,2022.2.4,Win32,59.90893841,568f981a7d961b000c969d2f,64d2fd46c836a06233681665,64dc7b94c5c3522490696264,,,,,,,sngl,resources/DY.BMP,resources/Empty.png,WildCard_NonEx,-0.375,0.019444444,1,0,0,0.848,optionLeft,45,10450,5,18,0,18,0,1,,,,,,,,,,,,,,,,,,,,,,,,,,,,,,,,,,,,,,,
,,,,,,,,2023-08-16_08h37.09.527,HF_wild_card,2022.2.4,Win32,59.90893841,568f981a7d961b000c969d2f,64d2fd46c836a06233681665,64dc7b94c5c3522490696264,,,,,,,sngl,resources/DY.BMP,resources/Empty.png,WildCard_NonEx,-0.233333333,0.025,1,0,0,0.8128,optionLeft,55,10505,5,19,0,19,0,1,,,,,,,,,,,,,,,,,,,,,,,,,,,,,,,,,,,,,,,
,,,,,,,,2023-08-16_08h37.09.527,HF_wild_card,2022.2.4,Win32,59.90893841,568f981a7d961b000c969d2f,64d2fd46c836a06233681665,64dc7b94c5c3522490696264,,,,,,,sngl,resources/DR.BMP,resources/Empty.png,Door2,-0.244444444,0.007407407,1,0,0,0.9656,optionLeft,40,10545,5,20,0,20,0,1,,,,,,,,,,,,,,,,,,,,,,,,,,,,,,,,,,,,,,,
,,,,,,,,2023-08-16_08h37.09.527,HF_wild_card,2022.2.4,Win32,59.90893841,568f981a7d961b000c969d2f,64d2fd46c836a06233681665,64dc7b94c5c3522490696264,,,,,,,ctch,resources/DG.BMP,resources/DBN.BMP,Door4,-0.263888889,0.005555556,1,0,0,1.9009,optionLeft,60,10605,5,21,0,21,0,1,,,,,,,,,,,,,,,,,,,,,,,,,,,,,,,,,,,,,,,
,,,,,,,,2023-08-16_08h37.09.527,HF_wild_card,2022.2.4,Win32,59.90893841,568f981a7d961b000c969d2f,64d2fd46c836a06233681665,64dc7b94c5c3522490696264,,,,,,,ctch,resources/DBN.BMP,resources/DG.BMP,Door4,0.390740741,0.005555556,1,0,0,1.2803,optionRight,80,10685,5,22,0,22,0,1,,,,,,,,,,,,,,,,,,,,,,,,,,,,,,,,,,,,,,,
,,,,,,,,2023-08-16_08h37.09.527,HF_wild_card,2022.2.4,Win32,59.90893841,568f981a7d961b000c969d2f,64d2fd46c836a06233681665,64dc7b94c5c3522490696264,,,,,,,ctch,resources/DB.BMP,resources/DR.BMP,Door3,-0.335185185,-0.038888889,1,0,0,1.3967,optionLeft,70,10755,5,23,0,23,0,1,,,,,,,,,,,,,,,,,,,,,,,,,,,,,,,,,,,,,,,
,,,,,,,,2023-08-16_08h37.09.527,HF_wild_card,2022.2.4,Win32,59.90893841,568f981a7d961b000c969d2f,64d2fd46c836a06233681665,64dc7b94c5c3522490696264,,,,,,,sngl,resources/DBN.BMP,resources/Empty.png,Door1,-0.247222222,0.034259259,1,0,0,0.8116,optionLeft,30,10785,5,24,0,24,0,1,,,,,,,,,,,,,,,,,,,,,,,,,,,,,,,,,,,,,,,
,,,,,,,,2023-08-16_08h37.09.527,HF_wild_card,2022.2.4,Win32,59.90893841,568f981a7d961b000c969d2f,64d2fd46c836a06233681665,64dc7b94c5c3522490696264,,,,,,,decisionTrl,resources/DG.BMP,resources/DB.BMP,Door4,-0.305555556,-0.009259259,1,0,0,1.5833,optionLeft,60,10845,5,25,0,25,0,1,,,,,,,,,,,,,,,,,,,,,,,,,,,,,,,,,,,,,,,
,,,,,,,,2023-08-16_08h37.09.527,HF_wild_card,2022.2.4,Win32,59.90893841,568f981a7d961b000c969d2f,64d2fd46c836a06233681665,64dc7b94c5c3522490696264,,,,,,,decisionTrl,resources/DBN.BMP,resources/DY.BMP,WildCard_NonEx,0.271296296,-0.015740741,1,0,0,1.98,optionRight,45,10890,5,26,0,26,0,1,,,,,,,,,,,,,,,,,,,,,,,,,,,,,,,,,,,,,,,
,,,,,,,,2023-08-16_08h37.09.527,HF_wild_card,2022.2.4,Win32,59.90893841,568f981a7d961b000c969d2f,64d2fd46c836a06233681665,64dc7b94c5c3522490696264,,,,,,,decisionTrl,resources/DY.BMP,resources/DBN.BMP,WildCard_NonEx,-0.265740741,-0.001851852,1,0,0,1.0957,optionLeft,55,10945,5,27,0,27,0,1,,,,,,,,,,,,,,,,,,,,,,,,,,,,,,,,,,,,,,,
,,,,,,,,2023-08-16_08h37.09.527,HF_wild_card,2022.2.4,Win32,59.90893841,568f981a7d961b000c969d2f,64d2fd46c836a06233681665,64dc7b94c5c3522490696264,,,,,,,decisionTrl,resources/DR.BMP,resources/DBN.BMP,Door1,0.290740741,0.022222222,1,0,0,1.7818,optionRight,30,10975,5,28,0,28,0,1,,,,,,,,,,,,,,,,,,,,,,,,,,,,,,,,,,,,,,,
,,,,,,,,2023-08-16_08h37.09.527,HF_wild_card,2022.2.4,Win32,59.90893841,568f981a7d961b000c969d2f,64d2fd46c836a06233681665,64dc7b94c5c3522490696264,,,,,,,decisionTrl,resources/DBN.BMP,resources/DR.BMP,Door2,0.32962963,-0.011111111,1,0,0,1.1152,optionRight,20,10995,5,29,0,29,0,1,,,,,,,,,,,,,,,,,,,,,,,,,,,,,,,,,,,,,,,
,,,,,,,,2023-08-16_08h37.09.527,HF_wild_card,2022.2.4,Win32,59.90893841,568f981a7d961b000c969d2f,64d2fd46c836a06233681665,64dc7b94c5c3522490696264,,,,,,,decisionTrl,resources/DBN.BMP,resources/DR.BMP,Door1,-0.205555556,-0.005555556,1,0,0,1.0822,optionLeft,30,11025,5,30,0,30,0,1,,,,,,,,,,,,,,,,,,,,,,,,,,,,,,,,,,,,,,,
,,,,,,,,2023-08-16_08h37.09.527,HF_wild_card,2022.2.4,Win32,59.90893841,568f981a7d961b000c969d2f,64d2fd46c836a06233681665,64dc7b94c5c3522490696264,,,,,,,sngl,resources/Empty.png,resources/DBN.BMP,Door1,0.162962963,0.002777778,1,0,0,0.8386,optionRight,30,11055,5,31,0,31,0,1,,,,,,,,,,,,,,,,,,,,,,,,,,,,,,,,,,,,,,,
,,,,,,,,2023-08-16_08h37.09.527,HF_wild_card,2022.2.4,Win32,59.90893841,568f981a7d961b000c969d2f,64d2fd46c836a06233681665,64dc7b94c5c3522490696264,,,,,,,decisionTrl,resources/DB.BMP,resources/DG.BMP,Door3,-0.306481481,-0.012962963,1,0,0,1.4487,optionLeft,70,11125,5,32,0,32,0,1,,,,,,,,,,,,,,,,,,,,,,,,,,,,,,,,,,,,,,,
,,,,,,,,2023-08-16_08h37.09.527,HF_wild_card,2022.2.4,Win32,59.90893841,568f981a7d961b000c969d2f,64d2fd46c836a06233681665,64dc7b94c5c3522490696264,,,,,,,ctch,resources/DBN.BMP,resources/DG.BMP,Door4,0.377777778,-0.02037037,1,0,0,1.5626,optionRight,60,11185,5,33,0,33,0,1,,,,,,,,,,,,,,,,,,,,,,,,,,,,,,,,,,,,,,,
,,,,,,,,2023-08-16_08h37.09.527,HF_wild_card,2022.2.4,Win32,59.90893841,568f981a7d961b000c969d2f,64d2fd46c836a06233681665,64dc7b94c5c3522490696264,,,,,,,sngl,resources/DG.BMP,resources/Empty.png,Door4,-0.219444444,0.018518519,1,0,0,0.698,optionLeft,80,11265,5,34,0,34,0,1,,,,,,,,,,,,,,,,,,,,,,,,,,,,,,,,,,,,,,,
,,,,,,,,2023-08-16_08h37.09.527,HF_wild_card,2022.2.4,Win32,59.90893841,568f981a7d961b000c969d2f,64d2fd46c836a06233681665,64dc7b94c5c3522490696264,,,,,,,sngl,resources/Empty.png,resources/DY.BMP,WildCard_NonEx,0.390740741,-0.041666667,1,0,0,0.8886,optionRight,45,11310,5,35,0,35,0,1,,,,,,,,,,,,,,,,,,,,,,,,,,,,,,,,,,,,,,,
,,,,,,,,2023-08-16_08h37.09.527,HF_wild_card,2022.2.4,Win32,59.90893841,568f981a7d961b000c969d2f,64d2fd46c836a06233681665,64dc7b94c5c3522490696264,,,,,,,sngl,resources/Empty.png,resources/DR.BMP,Door2,0.255555556,-0.014814815,1,0,0,0.9141,optionRight,20,11330,5,36,0,36,0,1,,,,,,,,,,,,,,,,,,,,,,,,,,,,,,,,,,,,,,,
,,,,,,,,2023-08-16_08h37.09.527,HF_wild_card,2022.2.4,Win32,59.90893841,568f981a7d961b000c969d2f,64d2fd46c836a06233681665,64dc7b94c5c3522490696264,,,,,,,sngl,resources/Empty.png,resources/DB.BMP,Door3,0.314814815,0,1,0,0,0.8455,optionRight,70,11400,5,37,0,37,0,1,,,,,,,,,,,,,,,,,,,,,,,,,,,,,,,,,,,,,,,
,,,,,,,,2023-08-16_08h37.09.527,HF_wild_card,2022.2.4,Win32,59.90893841,568f981a7d961b000c969d2f,64d2fd46c836a06233681665,64dc7b94c5c3522490696264,,,,,,,sngl,resources/Empty.png,resources/DY.BMP,WildCard_NonEx,0.288888889,-0.008333333,1,0,0,0.7966,optionRight,55,11455,5,38,0,38,0,1,,,,,,,,,,,,,,,,,,,,,,,,,,,,,,,,,,,,,,,
,,,,,,,,2023-08-16_08h37.09.527,HF_wild_card,2022.2.4,Win32,59.90893841,568f981a7d961b000c969d2f,64d2fd46c836a06233681665,64dc7b94c5c3522490696264,,,,,,,decisionTrl,resources/DR.BMP,resources/DBN.BMP,Door2,-0.288888889,-0.043518519,1,0,0,3.2466,optionLeft,20,11475,5,39,0,39,0,1,,,,,,,,,,,,,,,,,,,,,,,,,,,,,,,,,,,,,,,
,,,,,,,,2023-08-16_08h37.09.527,HF_wild_card,2022.2.4,Win32,59.90893841,568f981a7d961b000c969d2f,64d2fd46c836a06233681665,64dc7b94c5c3522490696264,,,,,,,decisionTrl,resources/DB.BMP,resources/DG.BMP,Door3,-0.235185185,-0.011111111,1,0,0,1.7145,optionLeft,70,11545,5,40,0,40,0,1,,,,,,,,,,,,,,,,,,,,,,,,,,,,,,,,,,,,,,,
,,,,,,,,2023-08-16_08h37.09.527,HF_wild_card,2022.2.4,Win32,59.90893841,568f981a7d961b000c969d2f,64d2fd46c836a06233681665,64dc7b94c5c3522490696264,,,,,,,decisionTrl,resources/DY.BMP,resources/DG.BMP,Door4,0.359259259,0.016666667,1,0,0,1.1665,optionRight,80,11625,5,41,0,41,0,1,,,,,,,,,,,,,,,,,,,,,,,,,,,,,,,,,,,,,,,
,,,,,,,,2023-08-16_08h37.09.527,HF_wild_card,2022.2.4,Win32,59.90893841,568f981a7d961b000c969d2f,64d2fd46c836a06233681665,64dc7b94c5c3522490696264,,,,,,,decisionTrl,resources/DB.BMP,resources/DG.BMP,Door4,0.366666667,-0.036111111,1,0,0,1.0971,optionRight,80,11705,5,42,0,42,0,1,,,,,,,,,,,,,,,,,,,,,,,,,,,,,,,,,,,,,,,
,,,,,,,,2023-08-16_08h37.09.527,HF_wild_card,2022.2.4,Win32,59.90893841,568f981a7d961b000c969d2f,64d2fd46c836a06233681665,64dc7b94c5c3522490696264,,,,,,,decisionTrl,resources/DR.BMP,resources/DBN.BMP,Door1,0.312962963,0.039814815,1,0,0,1.2991,optionRight,30,11735,5,43,0,43,0,1,,,,,,,,,,,,,,,,,,,,,,,,,,,,,,,,,,,,,,,
,,,,,,,,2023-08-16_08h37.09.527,HF_wild_card,2022.2.4,Win32,59.90893841,568f981a7d961b000c969d2f,64d2fd46c836a06233681665,64dc7b94c5c3522490696264,,,,,,,,,,,,,,,,,,,,,,,,,,4,0,4,0,1,,,,,,,,,,,,,,,,,,,,,,,,,,,,,,,,,,
,,,,,,,,2023-08-16_08h37.09.527,HF_wild_card,2022.2.4,Win32,59.90893841,568f981a7d961b000c969d2f,64d2fd46c836a06233681665,64dc7b94c5c3522490696264,,,,,,,decisionTrl,resources/DR.BMP,resources/DBN.BMP,Door1,0.375,0.037962963,1,0,0,6.2302,optionRight,30,11765,6,0,0,0,0,1,,,,,,,,,,,,,,,,,,,,,,,,,,,,,,,,,,,,,,,
,,,,,,,,2023-08-16_08h37.09.527,HF_wild_card,2022.2.4,Win32,59.90893841,568f981a7d961b000c969d2f,64d2fd46c836a06233681665,64dc7b94c5c3522490696264,,,,,,,sngl,resources/DB.BMP,resources/Empty.png,Door3,-0.319444444,-0.008333333,1,0,0,0.691,optionLeft,70,11835,6,1,0,1,0,1,,,,,,,,,,,,,,,,,,,,,,,,,,,,,,,,,,,,,,,
,,,,,,,,2023-08-16_08h37.09.527,HF_wild_card,2022.2.4,Win32,59.90893841,568f981a7d961b000c969d2f,64d2fd46c836a06233681665,64dc7b94c5c3522490696264,,,,,,,decisionTrl,resources/DBN.BMP,resources/DR.BMP,Door1,-0.244444444,0.026851852,1,0,0,1.7119,optionLeft,30,11865,6,2,0,2,0,1,,,,,,,,,,,,,,,,,,,,,,,,,,,,,,,,,,,,,,,
,,,,,,,,2023-08-16_08h37.09.527,HF_wild_card,2022.2.4,Win32,59.90893841,568f981a7d961b000c969d2f,64d2fd46c836a06233681665,64dc7b94c5c3522490696264,,,,,,,sngl,resources/DG.BMP,resources/Empty.png,Door4,-0.312962963,0.032407407,1,0,0,0.7293,optionLeft,60,11925,6,3,0,3,0,1,,,,,,,,,,,,,,,,,,,,,,,,,,,,,,,,,,,,,,,
,,,,,,,,2023-08-16_08h37.09.527,HF_wild_card,2022.2.4,Win32,59.90893841,568f981a7d961b000c969d2f,64d2fd46c836a06233681665,64dc7b94c5c3522490696264,,,,,,,ctch,resources/DB.BMP,resources/DR.BMP,Door3,-0.37037037,0,1,0,0,1.2961,optionLeft,70,11995,6,4,0,4,0,1,,,,,,,,,,,,,,,,,,,,,,,,,,,,,,,,,,,,,,,
,,,,,,,,2023-08-16_08h37.09.527,HF_wild_card,2022.2.4,Win32,59.90893841,568f981a7d961b000c969d2f,64d2fd46c836a06233681665,64dc7b94c5c3522490696264,,,,,,,sngl,resources/Empty.png,resources/DR.BMP,Door2,0.401851852,-0.065740741,1,0,0,0.9665,optionRight,40,12035,6,5,0,5,0,1,,,,,,,,,,,,,,,,,,,,,,,,,,,,,,,,,,,,,,,
,,,,,,,,2023-08-16_08h37.09.527,HF_wild_card,2022.2.4,Win32,59.90893841,568f981a7d961b000c969d2f,64d2fd46c836a06233681665,64dc7b94c5c3522490696264,,,,,,,decisionTrl,resources/DY.BMP,resources/DBN.BMP,WildCard_NonEx,-0.406481481,-0.02037037,1,0,0,1.564,optionLeft,45,12080,6,6,0,6,0,1,,,,,,,,,,,,,,,,,,,,,,,,,,,,,,,,,,,,,,,
,,,,,,,,2023-08-16_08h37.09.527,HF_wild_card,2022.2.4,Win32,59.90893841,568f981a7d961b000c969d2f,64d2fd46c836a06233681665,64dc7b94c5c3522490696264,,,,,,,decisionTrl,resources/DG.BMP,resources/DB.BMP,Door4,-0.255555556,0.006481481,1,0,0,1.7794,optionLeft,60,12140,6,7,0,7,0,1,,,,,,,,,,,,,,,,,,,,,,,,,,,,,,,,,,,,,,,
,,,,,,,,2023-08-16_08h37.09.527,HF_wild_card,2022.2.4,Win32,59.90893841,568f981a7d961b000c969d2f,64d2fd46c836a06233681665,64dc7b94c5c3522490696264,,,,,,,ctch,resources/DG.BMP,resources/DBN.BMP,Door4,-0.314814815,0.051851852,1,0,0,0.9636,optionLeft,80,12220,6,8,0,8,0,1,,,,,,,,,,,,,,,,,,,,,,,,,,,,,,,,,,,,,,,
,,,,,,,,2023-08-16_08h37.09.527,HF_wild_card,2022.2.4,Win32,59.90893841,568f981a7d961b000c969d2f,64d2fd46c836a06233681665,64dc7b94c5c3522490696264,,,,,,,decisionTrl,resources/DBN.BMP,resources/DR.BMP,Door2,0.430555556,-0.093518519,1,0,0,1.1304,optionRight,40,12260,6,9,0,9,0,1,,,,,,,,,,,,,,,,,,,,,,,,,,,,,,,,,,,,,,,
,,,,,,,,2023-08-16_08h37.09.527,HF_wild_card,2022.2.4,Win32,59.90893841,568f981a7d961b000c969d2f,64d2fd46c836a06233681665,64dc7b94c5c3522490696264,,,,,,,ctch,resources/DBN.BMP,resources/DG.BMP,Door4,0.327777778,0.02037037,1,0,0,1.0474,optionRight,60,12320,6,10,0,10,0,1,,,,,,,,,,,,,,,,,,,,,,,,,,,,,,,,,,,,,,,
,,,,,,,,2023-08-16_08h37.09.527,HF_wild_card,2022.2.4,Win32,59.90893841,568f981a7d961b000c969d2f,64d2fd46c836a06233681665,64dc7b94c5c3522490696264,,,,,,,decisionTrl,resources/DB.BMP,resources/DG.BMP,Door4,0.308333333,-0.001851852,1,0,0,1.3331,optionRight,60,12380,6,11,0,11,0,1,,,,,,,,,,,,,,,,,,,,,,,,,,,,,,,,,,,,,,,
,,,,,,,,2023-08-16_08h37.09.527,HF_wild_card,2022.2.4,Win32,59.90893841,568f981a7d961b000c969d2f,64d2fd46c836a06233681665,64dc7b94c5c3522490696264,,,,,,,decisionTrl,resources/DR.BMP,resources/DBN.BMP,Door1,0.283333333,-0.034259259,1,0,0,1.7596,optionRight,30,12410,6,12,0,12,0,1,,,,,,,,,,,,,,,,,,,,,,,,,,,,,,,,,,,,,,,
,,,,,,,,2023-08-16_08h37.09.527,HF_wild_card,2022.2.4,Win32,59.90893841,568f981a7d961b000c969d2f,64d2fd46c836a06233681665,64dc7b94c5c3522490696264,,,,,,,sngl,resources/DBN.BMP,resources/Empty.png,Door1,-0.321296296,0.062962963,1,0,0,0.8987,optionLeft,30,12440,6,13,0,13,0,1,,,,,,,,,,,,,,,,,,,,,,,,,,,,,,,,,,,,,,,
,,,,,,,,2023-08-16_08h37.09.527,HF_wild_card,2022.2.4,Win32,59.90893841,568f981a7d961b000c969d2f,64d2fd46c836a06233681665,64dc7b94c5c3522490696264,,,,,,,sngl,resources/DY.BMP,resources/Empty.png,WildCard_NonEx,-0.25,-0.008333333,1,0,0,0.7621,optionLeft,55,12495,6,14,0,14,0,1,,,,,,,,,,,,,,,,,,,,,,,,,,,,,,,,,,,,,,,
,,,,,,,,2023-08-16_08h37.09.527,HF_wild_card,2022.2.4,Win32,59.90893841,568f981a7d961b000c969d2f,64d2fd46c836a06233681665,64dc7b94c5c3522490696264,,,,,,,sngl,resources/DR.BMP,resources/Empty.png,Door2,-0.189814815,0.001851852,1,0,0,0.8164,optionLeft,20,12515,6,15,0,15,0,1,,,,,,,,,,,,,,,,,,,,,,,,,,,,,,,,,,,,,,,
,,,,,,,,2023-08-16_08h37.09.527,HF_wild_card,2022.2.4,Win32,59.90893841,568f981a7d961b000c969d2f,64d2fd46c836a06233681665,64dc7b94c5c3522490696264,,,,,,,decisionTrl,resources/DBN.BMP,resources/DY.BMP,WildCard_NonEx,0.323148148,0.032407407,1,0,0,1.2788,optionRight,45,12560,6,16,0,16,0,1,,,,,,,,,,,,,,,,,,,,,,,,,,,,,,,,,,,,,,,
,,,,,,,,2023-08-16_08h37.09.527,HF_wild_card,2022.2.4,Win32,59.90893841,568f981a7d961b000c969d2f,64d2fd46c836a06233681665,64dc7b94c5c3522490696264,,,,,,,ctch,resources/DG.BMP,resources/DBN.BMP,Door4,-0.333333333,0.014814815,1,0,0,1.0449,optionLeft,60,12620,6,17,0,17,0,1,,,,,,,,,,,,,,,,,,,,,,,,,,,,,,,,,,,,,,,
,,,,,,,,2023-08-16_08h37.09.527,HF_wild_card,2022.2.4,Win32,59.90893841,568f981a7d961b000c969d2f,64d2fd46c836a06233681665,64dc7b94c5c3522490696264,,,,,,,ctch,resources/DB.BMP,resources/DR.BMP,Door3,-0.359259259,-0.025,1,0,0,0.9331,optionLeft,70,12690,6,18,0,18,0,1,,,,,,,,,,,,,,,,,,,,,,,,,,,,,,,,,,,,,,,
,,,,,,,,2023-08-16_08h37.09.527,HF_wild_card,2022.2.4,Win32,59.90893841,568f981a7d961b000c969d2f,64d2fd46c836a06233681665,64dc7b94c5c3522490696264,,,,,,,decisionTrl,resources/DG.BMP,resources/DB.BMP,Door4,-0.307407407,-0.002777778,1,0,0,1.0215,optionLeft,80,12770,6,19,0,19,0,1,,,,,,,,,,,,,,,,,,,,,,,,,,,,,,,,,,,,,,,
,,,,,,,,2023-08-16_08h37.09.527,HF_wild_card,2022.2.4,Win32,59.90893841,568f981a7d961b000c969d2f,64d2fd46c836a06233681665,64dc7b94c5c3522490696264,,,,,,,decisionTrl,resources/DR.BMP,resources/DBN.BMP,Door2,-0.305555556,-0.008333333,1,0,0,2.3313,optionLeft,40,12810,6,20,0,20,0,1,,,,,,,,,,,,,,,,,,,,,,,,,,,,,,,,,,,,,,,
,,,,,,,,2023-08-16_08h37.09.527,HF_wild_card,2022.2.4,Win32,59.90893841,568f981a7d961b000c969d2f,64d2fd46c836a06233681665,64dc7b94c5c3522490696264,,,,,,,decisionTrl,resources/DY.BMP,resources/DR.BMP,WildCard_NonEx,-0.230555556,0.039814815,1,0,0,1.0815,optionLeft,45,12855,6,21,0,21,0,1,,,,,,,,,,,,,,,,,,,,,,,,,,,,,,,,,,,,,,,
,,,,,,,,2023-08-16_08h37.09.527,HF_wild_card,2022.2.4,Win32,59.90893841,568f981a7d961b000c969d2f,64d2fd46c836a06233681665,64dc7b94c5c3522490696264,,,,,,,sngl,resources/Empty.png,resources/DG.BMP,Door4,0.641666667,0.018518519,1,0,0,0.7456,optionRight,80,12935,6,22,0,22,0,1,,,,,,,,,,,,,,,,,,,,,,,,,,,,,,,,,,,,,,,
,,,,,,,,2023-08-16_08h37.09.527,HF_wild_card,2022.2.4,Win32,59.90893841,568f981a7d961b000c969d2f,64d2fd46c836a06233681665,64dc7b94c5c3522490696264,,,,,,,decisionTrl,resources/DG.BMP,resources/DB.BMP,Door4,-0.275,0,1,0,0,1.0501,optionLeft,80,13015,6,23,0,23,0,1,,,,,,,,,,,,,,,,,,,,,,,,,,,,,,,,,,,,,,,
,,,,,,,,2023-08-16_08h37.09.527,HF_wild_card,2022.2.4,Win32,59.90893841,568f981a7d961b000c969d2f,64d2fd46c836a06233681665,64dc7b94c5c3522490696264,,,,,,,sngl,resources/Empty.png,resources/DBN.BMP,Door1,0.328703704,-0.036111111,1,0,0,0.7788,optionRight,30,13045,6,24,0,24,0,1,,,,,,,,,,,,,,,,,,,,,,,,,,,,,,,,,,,,,,,
,,,,,,,,2023-08-16_08h37.09.527,HF_wild_card,2022.2.4,Win32,59.90893841,568f981a7d961b000c969d2f,64d2fd46c836a06233681665,64dc7b94c5c3522490696264,,,,,,,sngl,resources/DY.BMP,resources/Empty.png,WildCard_NonEx,-0.271296296,0.017592593,1,0,0,0.6819,optionLeft,45,13090,6,25,0,25,0,1,,,,,,,,,,,,,,,,,,,,,,,,,,,,,,,,,,,,,,,
,,,,,,,,2023-08-16_08h37.09.527,HF_wild_card,2022.2.4,Win32,59.90893841,568f981a7d961b000c969d2f,64d2fd46c836a06233681665,64dc7b94c5c3522490696264,,,,,,,decisionTrl,resources/DG.BMP,resources/DB.BMP,Door4,-0.227777778,-0.002777778,1,0,0,0.9803,optionLeft,60,13150,6,26,0,26,0,1,,,,,,,,,,,,,,,,,,,,,,,,,,,,,,,,,,,,,,,
,,,,,,,,2023-08-16_08h37.09.527,HF_wild_card,2022.2.4,Win32,59.90893841,568f981a7d961b000c969d2f,64d2fd46c836a06233681665,64dc7b94c5c3522490696264,,,,,,,decisionTrl,resources/DY.BMP,resources/DG.BMP,Door4,0.259259259,-0.016666667,1,0,0,0.913,optionRight,60,13210,6,27,0,27,0,1,,,,,,,,,,,,,,,,,,,,,,,,,,,,,,,,,,,,,,,
,,,,,,,,2023-08-16_08h37.09.527,HF_wild_card,2022.2.4,Win32,59.90893841,568f981a7d961b000c969d2f,64d2fd46c836a06233681665,64dc7b94c5c3522490696264,,,,,,,decisionTrl,resources/DB.BMP,resources/DG.BMP,Door3,-0.371296296,-0.010185185,1,0,0,0.8586,optionLeft,70,13280,6,28,0,28,0,1,,,,,,,,,,,,,,,,,,,,,,,,,,,,,,,,,,,,,,,
,,,,,,,,2023-08-16_08h37.09.527,HF_wild_card,2022.2.4,Win32,59.90893841,568f981a7d961b000c969d2f,64d2fd46c836a06233681665,64dc7b94c5c3522490696264,,,,,,,ctch,resources/DBN.BMP,resources/DG.BMP,Door4,0.225,-0.02962963,1,0,0,0.9,optionRight,80,13360,6,29,0,29,0,1,,,,,,,,,,,,,,,,,,,,,,,,,,,,,,,,,,,,,,,
,,,,,,,,2023-08-16_08h37.09.527,HF_wild_card,2022.2.4,Win32,59.90893841,568f981a7d961b000c969d2f,64d2fd46c836a06233681665,64dc7b94c5c3522490696264,,,,,,,ctch,resources/DR.BMP,resources/DB.BMP,Door3,0.235185185,-0.025925926,1,0,0,0.9741,optionRight,70,13430,6,30,0,30,0,1,,,,,,,,,,,,,,,,,,,,,,,,,,,,,,,,,,,,,,,
,,,,,,,,2023-08-16_08h37.09.527,HF_wild_card,2022.2.4,Win32,59.90893841,568f981a7d961b000c969d2f,64d2fd46c836a06233681665,64dc7b94c5c3522490696264,,,,,,,ctch,resources/DR.BMP,resources/DB.BMP,Door3,0.288888889,-0.008333333,1,0,0,0.7792,optionRight,70,13500,6,31,0,31,0,1,,,,,,,,,,,,,,,,,,,,,,,,,,,,,,,,,,,,,,,
,,,,,,,,2023-08-16_08h37.09.527,HF_wild_card,2022.2.4,Win32,59.90893841,568f981a7d961b000c969d2f,64d2fd46c836a06233681665,64dc7b94c5c3522490696264,,,,,,,decisionTrl,resources/DBN.BMP,resources/DR.BMP,Door2,0.193518519,-0.064814815,1,0,0,0.8292,optionRight,20,13520,6,32,0,32,0,1,,,,,,,,,,,,,,,,,,,,,,,,,,,,,,,,,,,,,,,
,,,,,,,,2023-08-16_08h37.09.527,HF_wild_card,2022.2.4,Win32,59.90893841,568f981a7d961b000c969d2f,64d2fd46c836a06233681665,64dc7b94c5c3522490696264,,,,,,,sngl,resources/Empty.png,resources/DY.BMP,WildCard_NonEx,0.194444444,-0.015740741,1,0,0,0.7482,optionRight,45,13565,6,33,0,33,0,1,,,,,,,,,,,,,,,,,,,,,,,,,,,,,,,,,,,,,,,
,,,,,,,,2023-08-16_08h37.09.527,HF_wild_card,2022.2.4,Win32,59.90893841,568f981a7d961b000c969d2f,64d2fd46c836a06233681665,64dc7b94c5c3522490696264,,,,,,,decisionTrl,resources/DG.BMP,resources/DY.BMP,Door4,-0.253703704,-0.026851852,1,0,0,0.8295,optionLeft,60,13625,6,34,0,34,0,1,,,,,,,,,,,,,,,,,,,,,,,,,,,,,,,,,,,,,,,
,,,,,,,,2023-08-16_08h37.09.527,HF_wild_card,2022.2.4,Win32,59.90893841,568f981a7d961b000c969d2f,64d2fd46c836a06233681665,64dc7b94c5c3522490696264,,,,,,,decisionTrl,resources/DBN.BMP,resources/DR.BMP,Door1,-0.218518519,-0.030555556,1,0,0,1.5334,optionLeft,30,13655,6,35,0,35,0,1,,,,,,,,,,,,,,,,,,,,,,,,,,,,,,,,,,,,,,,
,,,,,,,,2023-08-16_08h37.09.527,HF_wild_card,2022.2.4,Win32,59.90893841,568f981a7d961b000c969d2f,64d2fd46c836a06233681665,64dc7b94c5c3522490696264,,,,,,,sngl,resources/Empty.png,resources/DY.BMP,WildCard_NonEx,0.340740741,-0.037037037,1,0,0,0.7988,optionRight,55,13710,6,36,0,36,0,1,,,,,,,,,,,,,,,,,,,,,,,,,,,,,,,,,,,,,,,
,,,,,,,,2023-08-16_08h37.09.527,HF_wild_card,2022.2.4,Win32,59.90893841,568f981a7d961b000c969d2f,64d2fd46c836a06233681665,64dc7b94c5c3522490696264,,,,,,,decisionTrl,resources/DB.BMP,resources/DG.BMP,Door3,-0.334259259,-0.055555556,1,0,0,1.4316,optionLeft,70,13780,6,37,0,37,0,1,,,,,,,,,,,,,,,,,,,,,,,,,,,,,,,,,,,,,,,
,,,,,,,,2023-08-16_08h37.09.527,HF_wild_card,2022.2.4,Win32,59.90893841,568f981a7d961b000c969d2f,64d2fd46c836a06233681665,64dc7b94c5c3522490696264,,,,,,,decisionTrl,resources/DR.BMP,resources/DBN.BMP,Door1,0.231481481,-0.005555556,1,0,0,1.8928,optionRight,30,13810,6,38,0,38,0,1,,,,,,,,,,,,,,,,,,,,,,,,,,,,,,,,,,,,,,,
,,,,,,,,2023-08-16_08h37.09.527,HF_wild_card,2022.2.4,Win32,59.90893841,568f981a7d961b000c969d2f,64d2fd46c836a06233681665,64dc7b94c5c3522490696264,,,,,,,decisionTrl,resources/DB.BMP,resources/DG.BMP,Door3,-0.35,0.012037037,1,0,0,1.2299,optionLeft,70,13880,6,39,0,39,0,1,,,,,,,,,,,,,,,,,,,,,,,,,,,,,,,,,,,,,,,
,,,,,,,,2023-08-16_08h37.09.527,HF_wild_card,2022.2.4,Win32,59.90893841,568f981a7d961b000c969d2f,64d2fd46c836a06233681665,64dc7b94c5c3522490696264,,,,,,,decisionTrl,resources/DB.BMP,resources/DY.BMP,Door3,-0.273148148,-0.021296296,1,0,0,1.2302,optionLeft,70,13950,6,40,0,40,0,1,,,,,,,,,,,,,,,,,,,,,,,,,,,,,,,,,,,,,,,
,,,,,,,,2023-08-16_08h37.09.527,HF_wild_card,2022.2.4,Win32,59.90893841,568f981a7d961b000c969d2f,64d2fd46c836a06233681665,64dc7b94c5c3522490696264,,,,,,,sngl,resources/Empty.png,resources/DB.BMP,Door3,0.362037037,-0.030555556,1,0,0,0.8142,optionRight,70,14020,6,41,0,41,0,1,,,,,,,,,,,,,,,,,,,,,,,,,,,,,,,,,,,,,,,
,,,,,,,,2023-08-16_08h37.09.527,HF_wild_card,2022.2.4,Win32,59.90893841,568f981a7d961b000c969d2f,64d2fd46c836a06233681665,64dc7b94c5c3522490696264,,,,,,,decisionTrl,resources/DR.BMP,resources/DY.BMP,WildCard_NonEx,0.40462963,-0.049074074,1,0,0,1.308,optionRight,45,14065,6,42,0,42,0,1,,,,,,,,,,,,,,,,,,,,,,,,,,,,,,,,,,,,,,,
,,,,,,,,2023-08-16_08h37.09.527,HF_wild_card,2022.2.4,Win32,59.90893841,568f981a7d961b000c969d2f,64d2fd46c836a06233681665,64dc7b94c5c3522490696264,,,,,,,decisionTrl,resources/DY.BMP,resources/DB.BMP,Door3,0.309259259,-0.062962963,1,0,0,0.9889,optionRight,70,14135,6,43,0,43,0,1,,,,,,,,,,,,,,,,,,,,,,,,,,,,,,,,,,,,,,,
,,,,,,,,2023-08-16_08h37.09.527,HF_wild_card,2022.2.4,Win32,59.90893841,568f981a7d961b000c969d2f,64d2fd46c836a06233681665,64dc7b94c5c3522490696264,,,,,,,,,,,,,,,,,,,,,,,,,,5,0,5,0,1,,,,,,,,,,,,,,,,,,,,,,,,,,,,,,,,,,
,,,,,,,,2023-08-16_08h37.09.527,HF_wild_card,2022.2.4,Win32,59.90893841,568f981a7d961b000c969d2f,64d2fd46c836a06233681665,64dc7b94c5c3522490696264,,,,,,,ctch,resources/DB.BMP,resources/DR.BMP,Door3,-0.343518519,-0.080555556,1,0,0,1.4716,optionLeft,70,14205,7,0,0,0,0,1,,,,,,,,,,,,,,,,,,,,,,,,,,,,,,,,,,,,,,,
,,,,,,,,2023-08-16_08h37.09.527,HF_wild_card,2022.2.4,Win32,59.90893841,568f981a7d961b000c969d2f,64d2fd46c836a06233681665,64dc7b94c5c3522490696264,,,,,,,decisionTrl,resources/DR.BMP,resources/DBN.BMP,Door1,0.334259259,0.002777778,1,0,0,1.7,optionRight,30,14235,7,1,0,1,0,1,,,,,,,,,,,,,,,,,,,,,,,,,,,,,,,,,,,,,,,
,,,,,,,,2023-08-16_08h37.09.527,HF_wild_card,2022.2.4,Win32,59.90893841,568f981a7d961b000c969d2f,64d2fd46c836a06233681665,64dc7b94c5c3522490696264,,,,,,,decisionTrl,resources/DBN.BMP,resources/DR.BMP,Door2,0.465740741,0,1,0,0,1.1159,optionRight,40,14275,7,2,0,2,0,1,,,,,,,,,,,,,,,,,,,,,,,,,,,,,,,,,,,,,,,
,,,,,,,,2023-08-16_08h37.09.527,HF_wild_card,2022.2.4,Win32,59.90893841,568f981a7d961b000c969d2f,64d2fd46c836a06233681665,64dc7b94c5c3522490696264,,,,,,,ctch,resources/DB.BMP,resources/DR.BMP,Door3,-0.268518519,-0.024074074,1,0,0,0.9825,optionLeft,70,14345,7,3,0,3,0,1,,,,,,,,,,,,,,,,,,,,,,,,,,,,,,,,,,,,,,,
,,,,,,,,2023-08-16_08h37.09.527,HF_wild_card,2022.2.4,Win32,59.90893841,568f981a7d961b000c969d2f,64d2fd46c836a06233681665,64dc7b94c5c3522490696264,,,,,,,decisionTrl,resources/DBN.BMP,resources/DR.BMP,Door2,0.367592593,-0.02037037,1,0,0,0.9091,optionRight,20,14365,7,4,0,4,0,1,,,,,,,,,,,,,,,,,,,,,,,,,,,,,,,,,,,,,,,
,,,,,,,,2023-08-16_08h37.09.527,HF_wild_card,2022.2.4,Win32,59.90893841,568f981a7d961b000c969d2f,64d2fd46c836a06233681665,64dc7b94c5c3522490696264,,,,,,,ctch,resources/DR.BMP,resources/DB.BMP,Door3,0.37962963,-0.024074074,1,0,0,1.1809,optionRight,70,14435,7,5,0,5,0,1,,,,,,,,,,,,,,,,,,,,,,,,,,,,,,,,,,,,,,,
,,,,,,,,2023-08-16_08h37.09.527,HF_wild_card,2022.2.4,Win32,59.90893841,568f981a7d961b000c969d2f,64d2fd46c836a06233681665,64dc7b94c5c3522490696264,,,,,,,decisionTrl,resources/DG.BMP,resources/DB.BMP,Door4,-0.289814815,0.011111111,1,0,0,1.3577,optionLeft,60,14495,7,6,0,6,0,1,,,,,,,,,,,,,,,,,,,,,,,,,,,,,,,,,,,,,,,
,,,,,,,,2023-08-16_08h37.09.527,HF_wild_card,2022.2.4,Win32,59.90893841,568f981a7d961b000c969d2f,64d2fd46c836a06233681665,64dc7b94c5c3522490696264,,,,,,,decisionTrl,resources/DB.BMP,resources/DG.BMP,Door4,0.316666667,0.017592593,1,0,0,1.0762,optionRight,60,14555,7,7,0,7,0,1,,,,,,,,,,,,,,,,,,,,,,,,,,,,,,,,,,,,,,,
,,,,,,,,2023-08-16_08h37.09.527,HF_wild_card,2022.2.4,Win32,59.90893841,568f981a7d961b000c969d2f,64d2fd46c836a06233681665,64dc7b94c5c3522490696264,,,,,,,decisionTrl,resources/DB.BMP,resources/DG.BMP,Door4,0.373148148,0.000925926,1,0,0,0.7809,optionRight,60,14615,7,8,0,8,0,1,,,,,,,,,,,,,,,,,,,,,,,,,,,,,,,,,,,,,,,
,,,,,,,,2023-08-16_08h37.09.527,HF_wild_card,2022.2.4,Win32,59.90893841,568f981a7d961b000c969d2f,64d2fd46c836a06233681665,64dc7b94c5c3522490696264,,,,,,,decisionTrl,resources/DB.BMP,resources/DG.BMP,Door4,0.361111111,-0.012962963,1,0,0,0.8153,optionRight,60,14675,7,9,0,9,0,1,,,,,,,,,,,,,,,,,,,,,,,,,,,,,,,,,,,,,,,
,,,,,,,,2023-08-16_08h37.09.527,HF_wild_card,2022.2.4,Win32,59.90893841,568f981a7d961b000c969d2f,64d2fd46c836a06233681665,64dc7b94c5c3522490696264,,,,,,,decisionTrl,resources/DBN.BMP,resources/DR.BMP,Door2,0.332407407,-0.025,1,0,0,1.0486,optionRight,20,14695,7,10,0,10,0,1,,,,,,,,,,,,,,,,,,,,,,,,,,,,,,,,,,,,,,,
,,,,,,,,2023-08-16_08h37.09.527,HF_wild_card,2022.2.4,Win32,59.90893841,568f981a7d961b000c969d2f,64d2fd46c836a06233681665,64dc7b94c5c3522490696264,,,,,,,ctch,resources/DG.BMP,resources/DBN.BMP,Door4,-0.302777778,0.027777778,1,0,0,1.2339,optionLeft,80,14775,7,11,0,11,0,1,,,,,,,,,,,,,,,,,,,,,,,,,,,,,,,,,,,,,,,
,,,,,,,,2023-08-16_08h37.09.527,HF_wild_card,2022.2.4,Win32,59.90893841,568f981a7d961b000c969d2f,64d2fd46c836a06233681665,64dc7b94c5c3522490696264,,,,,,,ctch,resources/DBN.BMP,resources/DG.BMP,Door4,0.289814815,0.003703704,1,0,0,1.1321,optionRight,80,14855,7,12,0,12,0,1,,,,,,,,,,,,,,,,,,,,,,,,,,,,,,,,,,,,,,,
,,,,,,,,2023-08-16_08h37.09.527,HF_wild_card,2022.2.4,Win32,59.90893841,568f981a7d961b000c969d2f,64d2fd46c836a06233681665,64dc7b94c5c3522490696264,,,,,,,decisionTrl,resources/DG.BMP,resources/DB.BMP,Door4,-0.305555556,0.025,1,0,0,1.5169,optionLeft,60,14915,7,13,0,13,0,1,,,,,,,,,,,,,,,,,,,,,,,,,,,,,,,,,,,,,,,
,,,,,,,,2023-08-16_08h37.09.527,HF_wild_card,2022.2.4,Win32,59.90893841,568f981a7d961b000c969d2f,64d2fd46c836a06233681665,64dc7b94c5c3522490696264,,,,,,,decisionTrl,resources/DB.BMP,resources/DG.BMP,Door4,0.311111111,0.010185185,1,0,0,2.0176,optionRight,60,14975,7,14,0,14,0,1,,,,,,,,,,,,,,,,,,,,,,,,,,,,,,,,,,,,,,,
,,,,,,,,2023-08-16_08h37.09.527,HF_wild_card,2022.2.4,Win32,59.90893841,568f981a7d961b000c969d2f,64d2fd46c836a06233681665,64dc7b94c5c3522490696264,,,,,,,decisionTrl,resources/DB.BMP,resources/DG.BMP,Door4,0.355555556,-0.014814815,1,0,0,0.815,optionRight,80,15055,7,15,0,15,0,1,,,,,,,,,,,,,,,,,,,,,,,,,,,,,,,,,,,,,,,
,,,,,,,,2023-08-16_08h37.09.527,HF_wild_card,2022.2.4,Win32,59.90893841,568f981a7d961b000c969d2f,64d2fd46c836a06233681665,64dc7b94c5c3522490696264,,,,,,,ctch,resources/DG.BMP,resources/DBN.BMP,Door4,-0.425,0.010185185,1,0,0,0.9344,optionLeft,80,15135,7,16,0,16,0,1,,,,,,,,,,,,,,,,,,,,,,,,,,,,,,,,,,,,,,,
,,,,,,,,2023-08-16_08h37.09.527,HF_wild_card,2022.2.4,Win32,59.90893841,568f981a7d961b000c969d2f,64d2fd46c836a06233681665,64dc7b94c5c3522490696264,,,,,,,ctch,resources/DR.BMP,resources/DB.BMP,Door3,0.426851852,-0.060185185,1,0,0,0.9835,optionRight,70,15205,7,17,0,17,0,1,,,,,,,,,,,,,,,,,,,,,,,,,,,,,,,,,,,,,,,
,,,,,,,,2023-08-16_08h37.09.527,HF_wild_card,2022.2.4,Win32,59.90893841,568f981a7d961b000c969d2f,64d2fd46c836a06233681665,64dc7b94c5c3522490696264,,,,,,,decisionTrl,resources/DBN.BMP,resources/DR.BMP,Door2,0.310185185,-0.015740741,1,0,0,0.8157,optionRight,40,15245,7,18,0,18,0,1,,,,,,,,,,,,,,,,,,,,,,,,,,,,,,,,,,,,,,,
,,,,,,,,2023-08-16_08h37.09.527,HF_wild_card,2022.2.4,Win32,59.90893841,568f981a7d961b000c969d2f,64d2fd46c836a06233681665,64dc7b94c5c3522490696264,,,,,,,ctch,resources/DB.BMP,resources/DR.BMP,Door3,-0.324074074,-0.038888889,1,0,0,1.185,optionLeft,70,15315,7,19,0,19,0,1,,,,,,,,,,,,,,,,,,,,,,,,,,,,,,,,,,,,,,,
,,,,,,,,2023-08-16_08h37.09.527,HF_wild_card,2022.2.4,Win32,59.90893841,568f981a7d961b000c969d2f,64d2fd46c836a06233681665,64dc7b94c5c3522490696264,,,,,,,ctch,resources/DR.BMP,resources/DB.BMP,Door3,0.415740741,-0.038888889,1,0,0,1.0503,optionRight,70,15385,7,20,0,20,0,1,,,,,,,,,,,,,,,,,,,,,,,,,,,,,,,,,,,,,,,
,,,,,,,,2023-08-16_08h37.09.527,HF_wild_card,2022.2.4,Win32,59.90893841,568f981a7d961b000c969d2f,64d2fd46c836a06233681665,64dc7b94c5c3522490696264,,,,,,,decisionTrl,resources/DBN.BMP,resources/DR.BMP,Door1,-0.286111111,0.04537037,1,0,0,1.0994,optionLeft,30,15415,7,21,0,21,0,1,,,,,,,,,,,,,,,,,,,,,,,,,,,,,,,,,,,,,,,
,,,,,,,,2023-08-16_08h37.09.527,HF_wild_card,2022.2.4,Win32,59.90893841,568f981a7d961b000c969d2f,64d2fd46c836a06233681665,64dc7b94c5c3522490696264,,,,,,,decisionTrl,resources/DG.BMP,resources/DB.BMP,Door4,-0.287962963,0.02962963,1,0,0,1.3323,optionLeft,80,15495,7,22,0,22,0,1,,,,,,,,,,,,,,,,,,,,,,,,,,,,,,,,,,,,,,,
,,,,,,,,2023-08-16_08h37.09.527,HF_wild_card,2022.2.4,Win32,59.90893841,568f981a7d961b000c969d2f,64d2fd46c836a06233681665,64dc7b94c5c3522490696264,,,,,,,ctch,resources/DG.BMP,resources/DBN.BMP,Door4,-0.287037037,0.044444444,1,0,0,1.0668,optionLeft,60,15555,7,23,0,23,0,1,,,,,,,,,,,,,,,,,,,,,,,,,,,,,,,,,,,,,,,
,,,,,,,,2023-08-16_08h37.09.527,HF_wild_card,2022.2.4,Win32,59.90893841,568f981a7d961b000c969d2f,64d2fd46c836a06233681665,64dc7b94c5c3522490696264,,,,,,,decisionTrl,resources/DR.BMP,resources/DBN.BMP,Door1,0.212962963,-0.014814815,1,0,0,1.8963,optionRight,30,15585,7,24,0,24,0,1,,,,,,,,,,,,,,,,,,,,,,,,,,,,,,,,,,,,,,,
,,,,,,,,2023-08-16_08h37.09.527,HF_wild_card,2022.2.4,Win32,59.90893841,568f981a7d961b000c969d2f,64d2fd46c836a06233681665,64dc7b94c5c3522490696264,,,,,,,decisionTrl,resources/DG.BMP,resources/DB.BMP,Door4,-0.35462963,-0.000925926,1,0,0,1.2173,optionLeft,60,15645,7,25,0,25,0,1,,,,,,,,,,,,,,,,,,,,,,,,,,,,,,,,,,,,,,,
,,,,,,,,2023-08-16_08h37.09.527,HF_wild_card,2022.2.4,Win32,59.90893841,568f981a7d961b000c969d2f,64d2fd46c836a06233681665,64dc7b94c5c3522490696264,,,,,,,ctch,resources/DBN.BMP,resources/DG.BMP,Door4,0.42962963,-0.021296296,1,0,0,0.8994,optionRight,60,15705,7,26,0,26,0,1,,,,,,,,,,,,,,,,,,,,,,,,,,,,,,,,,,,,,,,
,,,,,,,,2023-08-16_08h37.09.527,HF_wild_card,2022.2.4,Win32,59.90893841,568f981a7d961b000c969d2f,64d2fd46c836a06233681665,64dc7b94c5c3522490696264,,,,,,,decisionTrl,resources/DBN.BMP,resources/DR.BMP,Door1,-0.297222222,-0.022222222,1,0,0,1.6681,optionLeft,30,15735,7,27,0,27,0,1,,,,,,,,,,,,,,,,,,,,,,,,,,,,,,,,,,,,,,,
,,,,,,,,2023-08-16_08h37.09.527,HF_wild_card,2022.2.4,Win32,59.90893841,568f981a7d961b000c969d2f,64d2fd46c836a06233681665,64dc7b94c5c3522490696264,,,,,,,ctch,resources/DBN.BMP,resources/DG.BMP,Door4,0.332407407,-0.006481481,1,0,0,0.866,optionRight,60,15795,7,28,0,28,0,1,,,,,,,,,,,,,,,,,,,,,,,,,,,,,,,,,,,,,,,
,,,,,,,,2023-08-16_08h37.09.527,HF_wild_card,2022.2.4,Win32,59.90893841,568f981a7d961b000c969d2f,64d2fd46c836a06233681665,64dc7b94c5c3522490696264,,,,,,,decisionTrl,resources/DR.BMP,resources/DBN.BMP,Door1,0.32962963,-0.037037037,1,0,0,1.0662,optionRight,30,15825,7,29,0,29,0,1,,,,,,,,,,,,,,,,,,,,,,,,,,,,,,,,,,,,,,,
,,,,,,,,2023-08-16_08h37.09.527,HF_wild_card,2022.2.4,Win32,59.90893841,568f981a7d961b000c969d2f,64d2fd46c836a06233681665,64dc7b94c5c3522490696264,,,,,,,decisionTrl,resources/DR.BMP,resources/DBN.BMP,Door1,0.289814815,0.003703704,1,0,0,0.7754,optionRight,30,15855,7,30,0,30,0,1,,,,,,,,,,,,,,,,,,,,,,,,,,,,,,,,,,,,,,,
,,,,,,,,2023-08-16_08h37.09.527,HF_wild_card,2022.2.4,Win32,59.90893841,568f981a7d961b000c969d2f,64d2fd46c836a06233681665,64dc7b94c5c3522490696264,,,,,,,decisionTrl,resources/DG.BMP,resources/DB.BMP,Door4,-0.328703704,-0.000925926,1,0,0,1.0741,optionLeft,60,15915,7,31,0,31,0,1,,,,,,,,,,,,,,,,,,,,,,,,,,,,,,,,,,,,,,,
,,,,,,,,2023-08-16_08h37.09.527,HF_wild_card,2022.2.4,Win32,59.90893841,568f981a7d961b000c969d2f,64d2fd46c836a06233681665,64dc7b94c5c3522490696264,,,,,,,decisionTrl,resources/DR.BMP,resources/DBN.BMP,Door1,0.29537037,-0.016666667,1,0,0,1.364,optionRight,30,15945,7,32,0,32,0,1,,,,,,,,,,,,,,,,,,,,,,,,,,,,,,,,,,,,,,,
,,,,,,,,2023-08-16_08h37.09.527,HF_wild_card,2022.2.4,Win32,59.90893841,568f981a7d961b000c969d2f,64d2fd46c836a06233681665,64dc7b94c5c3522490696264,,,,,,,decisionTrl,resources/DG.BMP,resources/DB.BMP,Door4,-0.328703704,0.025,1,0,0,1.4695,optionLeft,60,16005,7,33,0,33,0,1,,,,,,,,,,,,,,,,,,,,,,,,,,,,,,,,,,,,,,,
,,,,,,,,2023-08-16_08h37.09.527,HF_wild_card,2022.2.4,Win32,59.90893841,568f981a7d961b000c969d2f,64d2fd46c836a06233681665,64dc7b94c5c3522490696264,,,,,,,decisionTrl,resources/DR.BMP,resources/DBN.BMP,Door1,0.216666667,-0.001851852,1,0,0,1.4506,optionRight,30,16035,7,34,0,34,0,1,,,,,,,,,,,,,,,,,,,,,,,,,,,,,,,,,,,,,,,
,,,,,,,,2023-08-16_08h37.09.527,HF_wild_card,2022.2.4,Win32,59.90893841,568f981a7d961b000c969d2f,64d2fd46c836a06233681665,64dc7b94c5c3522490696264,,,,,,,decisionTrl,resources/DB.BMP,resources/DG.BMP,Door4,0.312962963,0.000925926,1,0,0,1.885,optionRight,60,16095,7,35,0,35,0,1,,,,,,,,,,,,,,,,,,,,,,,,,,,,,,,,,,,,,,,
,,,,,,,,2023-08-16_08h37.09.527,HF_wild_card,2022.2.4,Win32,59.90893841,568f981a7d961b000c969d2f,64d2fd46c836a06233681665,64dc7b94c5c3522490696264,,,,,,,,,,,,,,,,,,,,,,,,,,6,0,6,0,1,,,,,,,,,,,,,,,,,,,,,,,,,,,,,,,,,,
,,,,,,,,2023-08-16_08h37.09.527,HF_wild_card,2022.2.4,Win32,59.90893841,568f981a7d961b000c969d2f,64d2fd46c836a06233681665,64dc7b94c5c3522490696264,,,,,,,,,,,,,,,,,,,,,,,,,,,,,,,4,,,,,,,,,,,,,,,,,,,,,,,,,,,,,,,,,
,,,,,,,,2023-08-16_08h37.09.527,HF_wild_card,2022.2.4,Win32,59.90893841,568f981a7d961b000c969d2f,64d2fd46c836a06233681665,64dc7b94c5c3522490696264,,,,,,,,,,,,,,,,,,,,,,,,,,,,,,,,,,,,,,,,,,,,,,,,,,,,,,,,,,,,,,,,
,,,,,,,,2023-08-16_08h37.09.527,HF_wild_card,2022.2.4,Win32,59.90893841,568f981a7d961b000c969d2f,64d2fd46c836a06233681665,64dc7b94c5c3522490696264,,,,,,,,,,,,,,,,,,,,,,,,,,,,,,,,80,Door4,resources/DG.BMP,0,0,0,0,1,,,,,,,,,,,,,,,,,,,,,,,,,
,,,,,,,,2023-08-16_08h37.09.527,HF_wild_card,2022.2.4,Win32,59.90893841,568f981a7d961b000c969d2f,64d2fd46c836a06233681665,64dc7b94c5c3522490696264,,,,,,,,,,,,,,,,,,,,,,,,,,,,,,,,70,Door3,resources/DB.BMP,1,0,1,0,1,,,,,,,,,,,,,,,,,,,,,,,,,
,,,,,,,,2023-08-16_08h37.09.527,HF_wild_card,2022.2.4,Win32,59.90893841,568f981a7d961b000c969d2f,64d2fd46c836a06233681665,64dc7b94c5c3522490696264,,,,,,,,,,,,,,,,,,,,,,,,,,,,,,,,55,WC_nonExtreme,resources/DY.BMP,2,0,2,0,1,,,,,,,,,,,,,,,,,,,,,,,,,
,,,,,,,,2023-08-16_08h37.09.527,HF_wild_card,2022.2.4,Win32,59.90893841,568f981a7d961b000c969d2f,64d2fd46c836a06233681665,64dc7b94c5c3522490696264,,,,,,,,,,,,,,,,,,,,,,,,,,,,,,,,20,Door2,resources/DR.BMP,3,0,3,0,1,,,,,,,,,,,,,,,,,,,,,,,,,
,,,,,,,,2023-08-16_08h37.09.527,HF_wild_card,2022.2.4,Win32,59.90893841,568f981a7d961b000c969d2f,64d2fd46c836a06233681665,64dc7b94c5c3522490696264,,,,,,,,,,,,,,,,,,,,,,,,,,,,,,,,30,Door1,resources/DBN.BMP,4,0,4,0,1,,,,,,,,,,,,,,,,,,,,,,,,,
,,,,,,,,2023-08-16_08h37.09.527,HF_wild_card,2022.2.4,Win32,59.90893841,568f981a7d961b000c969d2f,64d2fd46c836a06233681665,64dc7b94c5c3522490696264,,,,,,,,,,,,,,,,,,,,,,,,,,,,,,,,5,WC_extreme,resources/DP.BMP,5,0,5,0,1,,,,,,,,,,,,,,,,,,,,,,,,,
,,,,,,,,2023-08-16_08h37.09.527,HF_wild_card,2022.2.4,Win32,59.90893841,568f981a7d961b000c969d2f,64d2fd46c836a06233681665,64dc7b94c5c3522490696264,,,,,,,,,,,,,,,,,,,,,,,,,,,,,,,,,,,,,,,,,,,,,,,,,,,,,,,,,,,,,,,,
,,,,,,,,2023-08-16_08h37.09.527,HF_wild_card,2022.2.4,Win32,59.90893841,568f981a7d961b000c969d2f,64d2fd46c836a06233681665,64dc7b94c5c3522490696264,,,,,,,,,,,,,,,,,,,,,,,,,,,,,,,,,,,,,,,,0,0,0,0,1,,,,,,,,,,,,,,,,,,,,
