Condition,Low fixed image (Door1),Low risky image (Door2),High fixed image (Door3),High risky image (Door4),Extreme Wild Card,NonExtreme Wild Card,,date,expName,psychopyVersion,OS,frameRate,PROLIFIC_PID,STUDY_ID,SESSION_ID,mouse_2.x,mouse_2.y,mouse_2.leftButton,mouse_2.midButton,mouse_2.rightButton,mouse_2.clicked_name,Trial Type,Left Option Image,Right Option Image,Chosen Door,mouse.x,mouse.y,mouse.leftButton,mouse.midButton,mouse.rightButton,mouse.time,mouse.clicked_name,Feedback,Cumulative Reward,Block,trial.thisRepN,trial.thisTrialN,trial.thisN,trial.thisIndex,trial.ran,blocks.thisRepN,blocks.thisTrialN,blocks.thisN,blocks.thisIndex,blocks.ran,Money conversion,First Outcome Reported,Shown Door (First Outcome),Displayed Image (First Outcome),outcomes.thisRepN,outcomes.thisTrialN,outcomes.thisN,outcomes.thisIndex,outcomes.ran,judgments.thisRepN,judgments.thisTrialN,judgments.thisN,judgments.thisIndex,judgments.ran,freqMouse.x,freqMouse.y,freqMouse.leftButton,freqMouse.midButton,freqMouse.rightButton,freqMouse.clicked_name,FQJ for first outcome,FQJ for second outcome,Shown Door,Displayed Image,trials.thisRepN,trials.thisTrialN,trials.thisN,trials.thisIndex,trials.ran,judgBlock.thisRepN,judgBlock.thisTrialN,judgBlock.thisN,judgBlock.thisIndex,judgBlock.ran
0,resources/DP.BMP,resources/DG.BMP,resources/DR.BMP,resources/DBN.BMP,resources/DY.BMP,resources/DB.BMP,,2023-08-16_08h50.42.734,HF_wild_card,2022.2.4,MacIntel,120.0048002,5dbf5fe16849043f135aa2c0,64d2fd46c836a06233681665,64dc7f3e54219764f686de70,,,,,,,,,,,,,,,,,,,,,,,,,,,,,,,,,,,,,,,,,,,,,,,,,,,,,,,,,,,,,,,,
,,,,,,,,2023-08-16_08h50.42.734,HF_wild_card,2022.2.4,MacIntel,120.0048002,5dbf5fe16849043f135aa2c0,64d2fd46c836a06233681665,64dc7f3e54219764f686de70,0.029766038,-0.421598049,1,0,0,agree,,,,,,,,,,,,,,,,,,,,,,,,,,,,,,,,,,,,,,,,,,,,,,,,,,,,,,,,,,
,,,,,,,,2023-08-16_08h50.42.734,HF_wild_card,2022.2.4,MacIntel,120.0048002,5dbf5fe16849043f135aa2c0,64d2fd46c836a06233681665,64dc7f3e54219764f686de70,,,,,,,,,,,,,,,,,,,,,,,,,,,,,,,,,,,,,,,,,,,,,,,,,,,,,,,,,,,,,,,,
,,,,,,,,2023-08-16_08h50.42.734,HF_wild_card,2022.2.4,MacIntel,120.0048002,5dbf5fe16849043f135aa2c0,64d2fd46c836a06233681665,64dc7f3e54219764f686de70,,,,,,,sngl,resources/DG.BMP,resources/Empty.png,Door2,-0.194857804,-0.080547288,1,0,0,2.1281,optionLeft,40,40,1,0,0,0,0,1,,,,,,,,,,,,,,,,,,,,,,,,,,,,,,,,,,,,,,,
,,,,,,,,2023-08-16_08h50.42.734,HF_wild_card,2022.2.4,MacIntel,120.0048002,5dbf5fe16849043f135aa2c0,64d2fd46c836a06233681665,64dc7f3e54219764f686de70,,,,,,,ctch,resources/DG.BMP,resources/DR.BMP,Door3,0.237694279,-0.054625496,1,0,0,1.5089,optionRight,70,110,1,1,0,1,0,1,,,,,,,,,,,,,,,,,,,,,,,,,,,,,,,,,,,,,,,
,,,,,,,,2023-08-16_08h50.42.734,HF_wild_card,2022.2.4,MacIntel,120.0048002,5dbf5fe16849043f135aa2c0,64d2fd46c836a06233681665,64dc7f3e54219764f686de70,,,,,,,decisionTrl,resources/DBN.BMP,resources/DY.BMP,Door4,-0.195391038,-0.013020833,1,0,0,0.9777,optionLeft,80,190,1,2,0,2,0,1,,,,,,,,,,,,,,,,,,,,,,,,,,,,,,,,,,,,,,,
,,,,,,,,2023-08-16_08h50.42.734,HF_wild_card,2022.2.4,MacIntel,120.0048002,5dbf5fe16849043f135aa2c0,64d2fd46c836a06233681665,64dc7f3e54219764f686de70,,,,,,,sngl,resources/Empty.png,resources/DR.BMP,Door3,0.296424438,-0.013227513,1,0,0,0.7134,optionRight,70,260,1,3,0,3,0,1,,,,,,,,,,,,,,,,,,,,,,,,,,,,,,,,,,,,,,,
,,,,,,,,2023-08-16_08h50.42.734,HF_wild_card,2022.2.4,MacIntel,120.0048002,5dbf5fe16849043f135aa2c0,64d2fd46c836a06233681665,64dc7f3e54219764f686de70,,,,,,,decisionTrl,resources/DG.BMP,resources/DP.BMP,Door1,0.411545139,-0.036524471,1,0,0,0.7965,optionRight,30,290,1,4,0,4,0,1,,,,,,,,,,,,,,,,,,,,,,,,,,,,,,,,,,,,,,,
,,,,,,,,2023-08-16_08h50.42.734,HF_wild_card,2022.2.4,MacIntel,120.0048002,5dbf5fe16849043f135aa2c0,64d2fd46c836a06233681665,64dc7f3e54219764f686de70,,,,,,,decisionTrl,resources/DP.BMP,resources/DY.BMP,WildCard_Ex,0.298966601,-0.016621197,1,0,0,0.9381,optionRight,5,295,1,5,0,5,0,1,,,,,,,,,,,,,,,,,,,,,,,,,,,,,,,,,,,,,,,
,,,,,,,,2023-08-16_08h50.42.734,HF_wild_card,2022.2.4,MacIntel,120.0048002,5dbf5fe16849043f135aa2c0,64d2fd46c836a06233681665,64dc7f3e54219764f686de70,,,,,,,ctch,resources/DP.BMP,resources/DBN.BMP,Door4,0.363165509,0.027566964,1,0,0,0.9239,optionRight,60,355,1,6,0,6,0,1,,,,,,,,,,,,,,,,,,,,,,,,,,,,,,,,,,,,,,,
,,,,,,,,2023-08-16_08h50.42.734,HF_wild_card,2022.2.4,MacIntel,120.0048002,5dbf5fe16849043f135aa2c0,64d2fd46c836a06233681665,64dc7f3e54219764f686de70,,,,,,,ctch,resources/DBN.BMP,resources/DP.BMP,Door4,-0.270585317,0.021040013,1,0,0,1.0957,optionLeft,60,415,1,7,0,7,0,1,,,,,,,,,,,,,,,,,,,,,,,,,,,,,,,,,,,,,,,
,,,,,,,,2023-08-16_08h50.42.734,HF_wild_card,2022.2.4,MacIntel,120.0048002,5dbf5fe16849043f135aa2c0,64d2fd46c836a06233681665,64dc7f3e54219764f686de70,,,,,,,decisionTrl,resources/DBN.BMP,resources/DR.BMP,Door4,-0.337896825,0.009713955,1,0,0,0.8654,optionLeft,80,495,1,8,0,8,0,1,,,,,,,,,,,,,,,,,,,,,,,,,,,,,,,,,,,,,,,
,,,,,,,,2023-08-16_08h50.42.734,HF_wild_card,2022.2.4,MacIntel,120.0048002,5dbf5fe16849043f135aa2c0,64d2fd46c836a06233681665,64dc7f3e54219764f686de70,,,,,,,sngl,resources/Empty.png,resources/DG.BMP,Door2,0.393638393,-0.009627149,1,0,0,0.797,optionRight,20,515,1,9,0,9,0,1,,,,,,,,,,,,,,,,,,,,,,,,,,,,,,,,,,,,,,,
,,,,,,,,2023-08-16_08h50.42.734,HF_wild_card,2022.2.4,MacIntel,120.0048002,5dbf5fe16849043f135aa2c0,64d2fd46c836a06233681665,64dc7f3e54219764f686de70,,,,,,,sngl,resources/DY.BMP,resources/Empty.png,WildCard_Ex,-0.346288029,0.021362434,1,0,0,0.7156,optionLeft,95,610,1,10,0,10,0,1,,,,,,,,,,,,,,,,,,,,,,,,,,,,,,,,,,,,,,,
,,,,,,,,2023-08-16_08h50.42.734,HF_wild_card,2022.2.4,MacIntel,120.0048002,5dbf5fe16849043f135aa2c0,64d2fd46c836a06233681665,64dc7f3e54219764f686de70,,,,,,,decisionTrl,resources/DY.BMP,resources/DR.BMP,WildCard_Ex,-0.328546627,-0.000334821,1,0,0,0.6653,optionLeft,95,705,1,11,0,11,0,1,,,,,,,,,,,,,,,,,,,,,,,,,,,,,,,,,,,,,,,
,,,,,,,,2023-08-16_08h50.42.734,HF_wild_card,2022.2.4,MacIntel,120.0048002,5dbf5fe16849043f135aa2c0,64d2fd46c836a06233681665,64dc7f3e54219764f686de70,,,,,,,ctch,resources/DG.BMP,resources/DR.BMP,Door3,0.385491071,-0.019655258,1,0,0,1.0911,optionRight,70,775,1,12,0,12,0,1,,,,,,,,,,,,,,,,,,,,,,,,,,,,,,,,,,,,,,,
,,,,,,,,2023-08-16_08h50.42.734,HF_wild_card,2022.2.4,MacIntel,120.0048002,5dbf5fe16849043f135aa2c0,64d2fd46c836a06233681665,64dc7f3e54219764f686de70,,,,,,,decisionTrl,resources/DY.BMP,resources/DG.BMP,WildCard_Ex,-0.320213294,0.039810681,1,0,0,0.9149,optionLeft,95,870,1,13,0,13,0,1,,,,,,,,,,,,,,,,,,,,,,,,,,,,,,,,,,,,,,,
,,,,,,,,2023-08-16_08h50.42.734,HF_wild_card,2022.2.4,MacIntel,120.0048002,5dbf5fe16849043f135aa2c0,64d2fd46c836a06233681665,64dc7f3e54219764f686de70,,,,,,,decisionTrl,resources/DY.BMP,resources/DBN.BMP,WildCard_Ex,-0.322958003,0.007750496,1,0,0,1.6477,optionLeft,95,965,1,14,0,14,0,1,,,,,,,,,,,,,,,,,,,,,,,,,,,,,,,,,,,,,,,
,,,,,,,,2023-08-16_08h50.42.734,HF_wild_card,2022.2.4,MacIntel,120.0048002,5dbf5fe16849043f135aa2c0,64d2fd46c836a06233681665,64dc7f3e54219764f686de70,,,,,,,decisionTrl,resources/DBN.BMP,resources/DR.BMP,Door4,-0.347457837,0.002376819,1,0,0,0.8404,optionLeft,60,1025,1,15,0,15,0,1,,,,,,,,,,,,,,,,,,,,,,,,,,,,,,,,,,,,,,,
,,,,,,,,2023-08-16_08h50.42.734,HF_wild_card,2022.2.4,MacIntel,120.0048002,5dbf5fe16849043f135aa2c0,64d2fd46c836a06233681665,64dc7f3e54219764f686de70,,,,,,,decisionTrl,resources/DG.BMP,resources/DY.BMP,WildCard_Ex,0.37000248,-0.006965112,1,0,0,0.6984,optionRight,95,1120,1,16,0,16,0,1,,,,,,,,,,,,,,,,,,,,,,,,,,,,,,,,,,,,,,,
,,,,,,,,2023-08-16_08h50.42.734,HF_wild_card,2022.2.4,MacIntel,120.0048002,5dbf5fe16849043f135aa2c0,64d2fd46c836a06233681665,64dc7f3e54219764f686de70,,,,,,,decisionTrl,resources/DP.BMP,resources/DG.BMP,Door2,0.347230489,-0.002021329,1,0,0,1.0961,optionRight,40,1160,1,17,0,17,0,1,,,,,,,,,,,,,,,,,,,,,,,,,,,,,,,,,,,,,,,
,,,,,,,,2023-08-16_08h50.42.734,HF_wild_card,2022.2.4,MacIntel,120.0048002,5dbf5fe16849043f135aa2c0,64d2fd46c836a06233681665,64dc7f3e54219764f686de70,,,,,,,decisionTrl,resources/DR.BMP,resources/DBN.BMP,Door4,0.349615575,0.032589286,1,0,0,0.8296,optionRight,60,1220,1,18,0,18,0,1,,,,,,,,,,,,,,,,,,,,,,,,,,,,,,,,,,,,,,,
,,,,,,,,2023-08-16_08h50.42.734,HF_wild_card,2022.2.4,MacIntel,120.0048002,5dbf5fe16849043f135aa2c0,64d2fd46c836a06233681665,64dc7f3e54219764f686de70,,,,,,,decisionTrl,resources/DBN.BMP,resources/DR.BMP,Door3,0.369241898,0.002455357,1,0,0,1.689,optionRight,70,1290,1,19,0,19,0,1,,,,,,,,,,,,,,,,,,,,,,,,,,,,,,,,,,,,,,,
,,,,,,,,2023-08-16_08h50.42.734,HF_wild_card,2022.2.4,MacIntel,120.0048002,5dbf5fe16849043f135aa2c0,64d2fd46c836a06233681665,64dc7f3e54219764f686de70,,,,,,,decisionTrl,resources/DP.BMP,resources/DG.BMP,Door2,0.225070271,0.023053075,1,0,0,1.3885,optionRight,20,1310,1,20,0,20,0,1,,,,,,,,,,,,,,,,,,,,,,,,,,,,,,,,,,,,,,,
,,,,,,,,2023-08-16_08h50.42.734,HF_wild_card,2022.2.4,MacIntel,120.0048002,5dbf5fe16849043f135aa2c0,64d2fd46c836a06233681665,64dc7f3e54219764f686de70,,,,,,,decisionTrl,resources/DR.BMP,resources/DY.BMP,WildCard_Ex,0.325343089,0.007465278,1,0,0,0.8643,optionRight,5,1315,1,21,0,21,0,1,,,,,,,,,,,,,,,,,,,,,,,,,,,,,,,,,,,,,,,
,,,,,,,,2023-08-16_08h50.42.734,HF_wild_card,2022.2.4,MacIntel,120.0048002,5dbf5fe16849043f135aa2c0,64d2fd46c836a06233681665,64dc7f3e54219764f686de70,,,,,,,sngl,resources/Empty.png,resources/DY.BMP,WildCard_Ex,0.357229663,0.020283565,1,0,0,0.7051,optionRight,95,1410,1,22,0,22,0,1,,,,,,,,,,,,,,,,,,,,,,,,,,,,,,,,,,,,,,,
,,,,,,,,2023-08-16_08h50.42.734,HF_wild_card,2022.2.4,MacIntel,120.0048002,5dbf5fe16849043f135aa2c0,64d2fd46c836a06233681665,64dc7f3e54219764f686de70,,,,,,,ctch,resources/DR.BMP,resources/DG.BMP,Door3,-0.321445106,0.034081515,1,0,0,1.1546,optionLeft,70,1480,1,23,0,23,0,1,,,,,,,,,,,,,,,,,,,,,,,,,,,,,,,,,,,,,,,
,,,,,,,,2023-08-16_08h50.42.734,HF_wild_card,2022.2.4,MacIntel,120.0048002,5dbf5fe16849043f135aa2c0,64d2fd46c836a06233681665,64dc7f3e54219764f686de70,,,,,,,ctch,resources/DP.BMP,resources/DBN.BMP,Door4,0.392443783,0.046750992,1,0,0,0.7556,optionRight,60,1540,1,24,0,24,0,1,,,,,,,,,,,,,,,,,,,,,,,,,,,,,,,,,,,,,,,
,,,,,,,,2023-08-16_08h50.42.734,HF_wild_card,2022.2.4,MacIntel,120.0048002,5dbf5fe16849043f135aa2c0,64d2fd46c836a06233681665,64dc7f3e54219764f686de70,,,,,,,sngl,resources/DY.BMP,resources/Empty.png,WildCard_Ex,-0.357469411,0.007229663,1,0,0,0.6048,optionLeft,5,1545,1,25,0,25,0,1,,,,,,,,,,,,,,,,,,,,,,,,,,,,,,,,,,,,,,,
,,,,,,,,2023-08-16_08h50.42.734,HF_wild_card,2022.2.4,MacIntel,120.0048002,5dbf5fe16849043f135aa2c0,64d2fd46c836a06233681665,64dc7f3e54219764f686de70,,,,,,,sngl,resources/DR.BMP,resources/Empty.png,Door3,-0.320940807,0.017621528,1,0,0,0.6647,optionLeft,70,1615,1,26,0,26,0,1,,,,,,,,,,,,,,,,,,,,,,,,,,,,,,,,,,,,,,,
,,,,,,,,2023-08-16_08h50.42.734,HF_wild_card,2022.2.4,MacIntel,120.0048002,5dbf5fe16849043f135aa2c0,64d2fd46c836a06233681665,64dc7f3e54219764f686de70,,,,,,,ctch,resources/DBN.BMP,resources/DP.BMP,Door4,-0.321234292,0.039149306,1,0,0,0.8723,optionLeft,60,1675,1,27,0,27,0,1,,,,,,,,,,,,,,,,,,,,,,,,,,,,,,,,,,,,,,,
,,,,,,,,2023-08-16_08h50.42.734,HF_wild_card,2022.2.4,MacIntel,120.0048002,5dbf5fe16849043f135aa2c0,64d2fd46c836a06233681665,64dc7f3e54219764f686de70,,,,,,,sngl,resources/Empty.png,resources/DP.BMP,Door1,0.437719081,0.048896329,1,0,0,0.707,optionRight,30,1705,1,28,0,28,0,1,,,,,,,,,,,,,,,,,,,,,,,,,,,,,,,,,,,,,,,
,,,,,,,,2023-08-16_08h50.42.734,HF_wild_card,2022.2.4,MacIntel,120.0048002,5dbf5fe16849043f135aa2c0,64d2fd46c836a06233681665,64dc7f3e54219764f686de70,,,,,,,sngl,resources/Empty.png,resources/DBN.BMP,Door4,0.412714947,-0.000450562,1,0,0,0.6891,optionRight,60,1765,1,29,0,29,0,1,,,,,,,,,,,,,,,,,,,,,,,,,,,,,,,,,,,,,,,
,,,,,,,,2023-08-16_08h50.42.734,HF_wild_card,2022.2.4,MacIntel,120.0048002,5dbf5fe16849043f135aa2c0,64d2fd46c836a06233681665,64dc7f3e54219764f686de70,,,,,,,sngl,resources/DBN.BMP,resources/Empty.png,Door4,-0.355344742,0.043559854,1,0,0,0.681,optionLeft,80,1845,1,30,0,30,0,1,,,,,,,,,,,,,,,,,,,,,,,,,,,,,,,,,,,,,,,
,,,,,,,,2023-08-16_08h50.42.734,HF_wild_card,2022.2.4,MacIntel,120.0048002,5dbf5fe16849043f135aa2c0,64d2fd46c836a06233681665,64dc7f3e54219764f686de70,,,,,,,decisionTrl,resources/DBN.BMP,resources/DR.BMP,Door4,-0.278501157,0.041526124,1,0,0,0.972,optionLeft,80,1925,1,31,0,31,0,1,,,,,,,,,,,,,,,,,,,,,,,,,,,,,,,,,,,,,,,
,,,,,,,,2023-08-16_08h50.42.734,HF_wild_card,2022.2.4,MacIntel,120.0048002,5dbf5fe16849043f135aa2c0,64d2fd46c836a06233681665,64dc7f3e54219764f686de70,,,,,,,decisionTrl,resources/DP.BMP,resources/DG.BMP,Door1,-0.302546296,-0.001698909,1,0,0,0.8407,optionLeft,30,1955,1,32,0,32,0,1,,,,,,,,,,,,,,,,,,,,,,,,,,,,,,,,,,,,,,,
,,,,,,,,2023-08-16_08h50.42.734,HF_wild_card,2022.2.4,MacIntel,120.0048002,5dbf5fe16849043f135aa2c0,64d2fd46c836a06233681665,64dc7f3e54219764f686de70,,,,,,,ctch,resources/DR.BMP,resources/DG.BMP,Door2,0.255865575,0.020275298,1,0,0,0.5628,optionRight,40,1995,1,33,0,33,0,1,,,,,,,,,,,,,,,,,,,,,,,,,,,,,,,,,,,,,,,
,,,,,,,,2023-08-16_08h50.42.734,HF_wild_card,2022.2.4,MacIntel,120.0048002,5dbf5fe16849043f135aa2c0,64d2fd46c836a06233681665,64dc7f3e54219764f686de70,,,,,,,decisionTrl,resources/DR.BMP,resources/DBN.BMP,Door4,0.393270503,0.026169808,1,0,0,0.7188,optionRight,80,2075,1,34,0,34,0,1,,,,,,,,,,,,,,,,,,,,,,,,,,,,,,,,,,,,,,,
,,,,,,,,2023-08-16_08h50.42.734,HF_wild_card,2022.2.4,MacIntel,120.0048002,5dbf5fe16849043f135aa2c0,64d2fd46c836a06233681665,64dc7f3e54219764f686de70,,,,,,,sngl,resources/Empty.png,resources/DY.BMP,WildCard_Ex,0.291530258,0.002434689,1,0,0,0.6324,optionRight,5,2080,1,35,0,35,0,1,,,,,,,,,,,,,,,,,,,,,,,,,,,,,,,,,,,,,,,
,,,,,,,,2023-08-16_08h50.42.734,HF_wild_card,2022.2.4,MacIntel,120.0048002,5dbf5fe16849043f135aa2c0,64d2fd46c836a06233681665,64dc7f3e54219764f686de70,,,,,,,decisionTrl,resources/DY.BMP,resources/DP.BMP,WildCard_Ex,-0.328327546,0.040389385,1,0,0,0.6228,optionLeft,95,2175,1,36,0,36,0,1,,,,,,,,,,,,,,,,,,,,,,,,,,,,,,,,,,,,,,,
,,,,,,,,2023-08-16_08h50.42.734,HF_wild_card,2022.2.4,MacIntel,120.0048002,5dbf5fe16849043f135aa2c0,64d2fd46c836a06233681665,64dc7f3e54219764f686de70,,,,,,,decisionTrl,resources/DP.BMP,resources/DG.BMP,Door1,-0.286115245,0.002914187,1,0,0,0.7304,optionLeft,30,2205,1,37,0,37,0,1,,,,,,,,,,,,,,,,,,,,,,,,,,,,,,,,,,,,,,,
,,,,,,,,2023-08-16_08h50.42.734,HF_wild_card,2022.2.4,MacIntel,120.0048002,5dbf5fe16849043f135aa2c0,64d2fd46c836a06233681665,64dc7f3e54219764f686de70,,,,,,,sngl,resources/DP.BMP,resources/Empty.png,Door1,-0.21499256,0.036999835,1,0,0,0.5794,optionLeft,30,2235,1,38,0,38,0,1,,,,,,,,,,,,,,,,,,,,,,,,,,,,,,,,,,,,,,,
,,,,,,,,2023-08-16_08h50.42.734,HF_wild_card,2022.2.4,MacIntel,120.0048002,5dbf5fe16849043f135aa2c0,64d2fd46c836a06233681665,64dc7f3e54219764f686de70,,,,,,,decisionTrl,resources/DG.BMP,resources/DP.BMP,Door1,0.281163194,-0.07494213,1,0,0,0.6795,optionRight,30,2265,1,39,0,39,0,1,,,,,,,,,,,,,,,,,,,,,,,,,,,,,,,,,,,,,,,
,,,,,,,,2023-08-16_08h50.42.734,HF_wild_card,2022.2.4,MacIntel,120.0048002,5dbf5fe16849043f135aa2c0,64d2fd46c836a06233681665,64dc7f3e54219764f686de70,,,,,,,decisionTrl,resources/DG.BMP,resources/DP.BMP,Door1,0.320494378,-0.051186343,1,0,0,0.7134,optionRight,30,2295,1,40,0,40,0,1,,,,,,,,,,,,,,,,,,,,,,,,,,,,,,,,,,,,,,,
,,,,,,,,2023-08-16_08h50.42.734,HF_wild_card,2022.2.4,MacIntel,120.0048002,5dbf5fe16849043f135aa2c0,64d2fd46c836a06233681665,64dc7f3e54219764f686de70,,,,,,,decisionTrl,resources/DR.BMP,resources/DBN.BMP,Door4,0.259040179,-0.011607143,1,0,0,0.7742,optionRight,60,2355,1,41,0,41,0,1,,,,,,,,,,,,,,,,,,,,,,,,,,,,,,,,,,,,,,,
,,,,,,,,2023-08-16_08h50.42.734,HF_wild_card,2022.2.4,MacIntel,120.0048002,5dbf5fe16849043f135aa2c0,64d2fd46c836a06233681665,64dc7f3e54219764f686de70,,,,,,,decisionTrl,resources/DG.BMP,resources/DP.BMP,Door2,-0.243315972,-0.006688161,1,0,0,0.712,optionLeft,40,2395,1,42,0,42,0,1,,,,,,,,,,,,,,,,,,,,,,,,,,,,,,,,,,,,,,,
,,,,,,,,2023-08-16_08h50.42.734,HF_wild_card,2022.2.4,MacIntel,120.0048002,5dbf5fe16849043f135aa2c0,64d2fd46c836a06233681665,64dc7f3e54219764f686de70,,,,,,,decisionTrl,resources/DR.BMP,resources/DBN.BMP,Door4,0.326603836,0.034172454,1,0,0,0.6408,optionRight,60,2455,1,43,0,43,0,1,,,,,,,,,,,,,,,,,,,,,,,,,,,,,,,,,,,,,,,
,,,,,,,,2023-08-16_08h50.42.734,HF_wild_card,2022.2.4,MacIntel,120.0048002,5dbf5fe16849043f135aa2c0,64d2fd46c836a06233681665,64dc7f3e54219764f686de70,,,,,,,,,,,,,,,,,,,,,,,,,,0,0,0,0,1,,,,,,,,,,,,,,,,,,,,,,,,,,,,,,,,,,
,,,,,,,,2023-08-16_08h50.42.734,HF_wild_card,2022.2.4,MacIntel,120.0048002,5dbf5fe16849043f135aa2c0,64d2fd46c836a06233681665,64dc7f3e54219764f686de70,,,,,,,ctch,resources/DP.BMP,resources/DBN.BMP,Door1,-0.254447751,-0.010251323,1,0,0,1.3754,optionLeft,30,2485,2,0,0,0,0,1,,,,,,,,,,,,,,,,,,,,,,,,,,,,,,,,,,,,,,,
,,,,,,,,2023-08-16_08h50.42.734,HF_wild_card,2022.2.4,MacIntel,120.0048002,5dbf5fe16849043f135aa2c0,64d2fd46c836a06233681665,64dc7f3e54219764f686de70,,,,,,,sngl,resources/DY.BMP,resources/Empty.png,WildCard_Ex,-0.360553075,0.005133929,1,0,0,0.5472,optionLeft,95,2580,2,1,0,1,0,1,,,,,,,,,,,,,,,,,,,,,,,,,,,,,,,,,,,,,,,
,,,,,,,,2023-08-16_08h50.42.734,HF_wild_card,2022.2.4,MacIntel,120.0048002,5dbf5fe16849043f135aa2c0,64d2fd46c836a06233681665,64dc7f3e54219764f686de70,,,,,,,sngl,resources/DY.BMP,resources/Empty.png,WildCard_Ex,-0.283391204,0.014182374,1,0,0,0.523,optionLeft,5,2585,2,2,0,2,0,1,,,,,,,,,,,,,,,,,,,,,,,,,,,,,,,,,,,,,,,
,,,,,,,,2023-08-16_08h50.42.734,HF_wild_card,2022.2.4,MacIntel,120.0048002,5dbf5fe16849043f135aa2c0,64d2fd46c836a06233681665,64dc7f3e54219764f686de70,,,,,,,decisionTrl,resources/DP.BMP,resources/DG.BMP,Door1,-0.331402943,-0.011429398,1,0,0,0.9386,optionLeft,30,2615,2,3,0,3,0,1,,,,,,,,,,,,,,,,,,,,,,,,,,,,,,,,,,,,,,,
,,,,,,,,2023-08-16_08h50.42.734,HF_wild_card,2022.2.4,MacIntel,120.0048002,5dbf5fe16849043f135aa2c0,64d2fd46c836a06233681665,64dc7f3e54219764f686de70,,,,,,,decisionTrl,resources/DG.BMP,resources/DP.BMP,Door2,-0.284660218,0.015893684,1,0,0,0.9135,optionLeft,40,2655,2,4,0,4,0,1,,,,,,,,,,,,,,,,,,,,,,,,,,,,,,,,,,,,,,,
,,,,,,,,2023-08-16_08h50.42.734,HF_wild_card,2022.2.4,MacIntel,120.0048002,5dbf5fe16849043f135aa2c0,64d2fd46c836a06233681665,64dc7f3e54219764f686de70,,,,,,,sngl,resources/DG.BMP,resources/Empty.png,Door2,-0.236388062,-0.004042659,1,0,0,0.6401,optionLeft,20,2675,2,5,0,5,0,1,,,,,,,,,,,,,,,,,,,,,,,,,,,,,,,,,,,,,,,
,,,,,,,,2023-08-16_08h50.42.734,HF_wild_card,2022.2.4,MacIntel,120.0048002,5dbf5fe16849043f135aa2c0,64d2fd46c836a06233681665,64dc7f3e54219764f686de70,,,,,,,decisionTrl,resources/DBN.BMP,resources/DR.BMP,Door3,0.485747354,0.056051587,1,0,0,0.5398,optionRight,70,2745,2,6,0,6,0,1,,,,,,,,,,,,,,,,,,,,,,,,,,,,,,,,,,,,,,,
,,,,,,,,2023-08-16_08h50.42.734,HF_wild_card,2022.2.4,MacIntel,120.0048002,5dbf5fe16849043f135aa2c0,64d2fd46c836a06233681665,64dc7f3e54219764f686de70,,,,,,,sngl,resources/Empty.png,resources/DG.BMP,Door2,0.403149802,0.050318287,1,0,0,0.6544,optionRight,40,2785,2,7,0,7,0,1,,,,,,,,,,,,,,,,,,,,,,,,,,,,,,,,,,,,,,,
,,,,,,,,2023-08-16_08h50.42.734,HF_wild_card,2022.2.4,MacIntel,120.0048002,5dbf5fe16849043f135aa2c0,64d2fd46c836a06233681665,64dc7f3e54219764f686de70,,,,,,,ctch,resources/DP.BMP,resources/DBN.BMP,Door1,-0.319998347,0.039389054,1,0,0,0.5402,optionLeft,30,2815,2,8,0,8,0,1,,,,,,,,,,,,,,,,,,,,,,,,,,,,,,,,,,,,,,,
,,,,,,,,2023-08-16_08h50.42.734,HF_wild_card,2022.2.4,MacIntel,120.0048002,5dbf5fe16849043f135aa2c0,64d2fd46c836a06233681665,64dc7f3e54219764f686de70,,,,,,,decisionTrl,resources/DBN.BMP,resources/DR.BMP,Door4,-0.179658565,0.006613757,1,0,0,0.6151,optionLeft,60,2875,2,9,0,9,0,1,,,,,,,,,,,,,,,,,,,,,,,,,,,,,,,,,,,,,,,
,,,,,,,,2023-08-16_08h50.42.734,HF_wild_card,2022.2.4,MacIntel,120.0048002,5dbf5fe16849043f135aa2c0,64d2fd46c836a06233681665,64dc7f3e54219764f686de70,,,,,,,sngl,resources/Empty.png,resources/DBN.BMP,Door4,0.303988922,0.044196429,1,0,0,0.4914,optionRight,80,2955,2,10,0,10,0,1,,,,,,,,,,,,,,,,,,,,,,,,,,,,,,,,,,,,,,,
,,,,,,,,2023-08-16_08h50.42.734,HF_wild_card,2022.2.4,MacIntel,120.0048002,5dbf5fe16849043f135aa2c0,64d2fd46c836a06233681665,64dc7f3e54219764f686de70,,,,,,,decisionTrl,resources/DR.BMP,resources/DBN.BMP,Door4,0.400297619,0.001273148,1,0,0,0.5882,optionRight,60,3015,2,11,0,11,0,1,,,,,,,,,,,,,,,,,,,,,,,,,,,,,,,,,,,,,,,
,,,,,,,,2023-08-16_08h50.42.734,HF_wild_card,2022.2.4,MacIntel,120.0048002,5dbf5fe16849043f135aa2c0,64d2fd46c836a06233681665,64dc7f3e54219764f686de70,,,,,,,sngl,resources/Empty.png,resources/DY.BMP,WildCard_Ex,0.274206349,0.001719577,1,0,0,0.6919,optionRight,5,3020,2,12,0,12,0,1,,,,,,,,,,,,,,,,,,,,,,,,,,,,,,,,,,,,,,,
,,,,,,,,2023-08-16_08h50.42.734,HF_wild_card,2022.2.4,MacIntel,120.0048002,5dbf5fe16849043f135aa2c0,64d2fd46c836a06233681665,64dc7f3e54219764f686de70,,,,,,,ctch,resources/DG.BMP,resources/DR.BMP,Door2,-0.399148479,0.013558201,1,0,0,0.5303,optionLeft,40,3060,2,13,0,13,0,1,,,,,,,,,,,,,,,,,,,,,,,,,,,,,,,,,,,,,,,
,,,,,,,,2023-08-16_08h50.42.734,HF_wild_card,2022.2.4,MacIntel,120.0048002,5dbf5fe16849043f135aa2c0,64d2fd46c836a06233681665,64dc7f3e54219764f686de70,,,,,,,decisionTrl,resources/DG.BMP,resources/DP.BMP,Door1,0.341472388,0.042480985,1,0,0,0.4542,optionRight,30,3090,2,14,0,14,0,1,,,,,,,,,,,,,,,,,,,,,,,,,,,,,,,,,,,,,,,
,,,,,,,,2023-08-16_08h50.42.734,HF_wild_card,2022.2.4,MacIntel,120.0048002,5dbf5fe16849043f135aa2c0,64d2fd46c836a06233681665,64dc7f3e54219764f686de70,,,,,,,ctch,resources/DR.BMP,resources/DG.BMP,Door3,-0.438347388,0.072614914,1,0,0,0.5063,optionLeft,70,3160,2,15,0,15,0,1,,,,,,,,,,,,,,,,,,,,,,,,,,,,,,,,,,,,,,,
,,,,,,,,2023-08-16_08h50.42.734,HF_wild_card,2022.2.4,MacIntel,120.0048002,5dbf5fe16849043f135aa2c0,64d2fd46c836a06233681665,64dc7f3e54219764f686de70,,,,,,,ctch,resources/DR.BMP,resources/DG.BMP,Door3,-0.363231647,0.065678737,1,0,0,0.6586,optionLeft,70,3230,2,16,0,16,0,1,,,,,,,,,,,,,,,,,,,,,,,,,,,,,,,,,,,,,,,
,,,,,,,,2023-08-16_08h50.42.734,HF_wild_card,2022.2.4,MacIntel,120.0048002,5dbf5fe16849043f135aa2c0,64d2fd46c836a06233681665,64dc7f3e54219764f686de70,,,,,,,decisionTrl,resources/DR.BMP,resources/DBN.BMP,Door4,0.293605324,0.008159722,1,0,0,0.7724,optionRight,80,3310,2,17,0,17,0,1,,,,,,,,,,,,,,,,,,,,,,,,,,,,,,,,,,,,,,,
,,,,,,,,2023-08-16_08h50.42.734,HF_wild_card,2022.2.4,MacIntel,120.0048002,5dbf5fe16849043f135aa2c0,64d2fd46c836a06233681665,64dc7f3e54219764f686de70,,,,,,,decisionTrl,resources/DBN.BMP,resources/DR.BMP,Door4,-0.430518353,0.073875661,1,0,0,0.5967,optionLeft,60,3370,2,18,0,18,0,1,,,,,,,,,,,,,,,,,,,,,,,,,,,,,,,,,,,,,,,
,,,,,,,,2023-08-16_08h50.42.734,HF_wild_card,2022.2.4,MacIntel,120.0048002,5dbf5fe16849043f135aa2c0,64d2fd46c836a06233681665,64dc7f3e54219764f686de70,,,,,,,sngl,resources/DR.BMP,resources/Empty.png,Door3,-0.44198082,0.082560351,1,0,0,0.5891,optionLeft,70,3440,2,19,0,19,0,1,,,,,,,,,,,,,,,,,,,,,,,,,,,,,,,,,,,,,,,
,,,,,,,,2023-08-16_08h50.42.734,HF_wild_card,2022.2.4,MacIntel,120.0048002,5dbf5fe16849043f135aa2c0,64d2fd46c836a06233681665,64dc7f3e54219764f686de70,,,,,,,decisionTrl,resources/DR.BMP,resources/DBN.BMP,Door4,0.335300926,0.037876157,1,0,0,0.6297,optionRight,60,3500,2,20,0,20,0,1,,,,,,,,,,,,,,,,,,,,,,,,,,,,,,,,,,,,,,,
,,,,,,,,2023-08-16_08h50.42.734,HF_wild_card,2022.2.4,MacIntel,120.0048002,5dbf5fe16849043f135aa2c0,64d2fd46c836a06233681665,64dc7f3e54219764f686de70,,,,,,,decisionTrl,resources/DR.BMP,resources/DY.BMP,WildCard_Ex,0.284937169,0.024599041,1,0,0,0.6622,optionRight,95,3595,2,21,0,21,0,1,,,,,,,,,,,,,,,,,,,,,,,,,,,,,,,,,,,,,,,
,,,,,,,,2023-08-16_08h50.42.734,HF_wild_card,2022.2.4,MacIntel,120.0048002,5dbf5fe16849043f135aa2c0,64d2fd46c836a06233681665,64dc7f3e54219764f686de70,,,,,,,decisionTrl,resources/DP.BMP,resources/DG.BMP,Door1,-0.318030754,0.047623181,1,0,0,0.5383,optionLeft,30,3625,2,22,0,22,0,1,,,,,,,,,,,,,,,,,,,,,,,,,,,,,,,,,,,,,,,
,,,,,,,,2023-08-16_08h50.42.734,HF_wild_card,2022.2.4,MacIntel,120.0048002,5dbf5fe16849043f135aa2c0,64d2fd46c836a06233681665,64dc7f3e54219764f686de70,,,,,,,decisionTrl,resources/DP.BMP,resources/DG.BMP,Door1,-0.338988095,0.02797619,1,0,0,0.6794,optionLeft,30,3655,2,23,0,23,0,1,,,,,,,,,,,,,,,,,,,,,,,,,,,,,,,,,,,,,,,
,,,,,,,,2023-08-16_08h50.42.734,HF_wild_card,2022.2.4,MacIntel,120.0048002,5dbf5fe16849043f135aa2c0,64d2fd46c836a06233681665,64dc7f3e54219764f686de70,,,,,,,ctch,resources/DBN.BMP,resources/DP.BMP,Door4,-0.400372024,0.077810847,1,0,0,0.8481,optionLeft,60,3715,2,24,0,24,0,1,,,,,,,,,,,,,,,,,,,,,,,,,,,,,,,,,,,,,,,
,,,,,,,,2023-08-16_08h50.42.734,HF_wild_card,2022.2.4,MacIntel,120.0048002,5dbf5fe16849043f135aa2c0,64d2fd46c836a06233681665,64dc7f3e54219764f686de70,,,,,,,decisionTrl,resources/DG.BMP,resources/DP.BMP,Door1,0.231770833,-0.000446429,1,0,0,0.8566,optionRight,30,3745,2,25,0,25,0,1,,,,,,,,,,,,,,,,,,,,,,,,,,,,,,,,,,,,,,,
,,,,,,,,2023-08-16_08h50.42.734,HF_wild_card,2022.2.4,MacIntel,120.0048002,5dbf5fe16849043f135aa2c0,64d2fd46c836a06233681665,64dc7f3e54219764f686de70,,,,,,,decisionTrl,resources/DG.BMP,resources/DY.BMP,Door2,-0.250872189,0.03599537,1,0,0,0.746,optionLeft,40,3785,2,26,0,26,0,1,,,,,,,,,,,,,,,,,,,,,,,,,,,,,,,,,,,,,,,
,,,,,,,,2023-08-16_08h50.42.734,HF_wild_card,2022.2.4,MacIntel,120.0048002,5dbf5fe16849043f135aa2c0,64d2fd46c836a06233681665,64dc7f3e54219764f686de70,,,,,,,sngl,resources/Empty.png,resources/DP.BMP,Door1,0.340736607,0.013983962,1,0,0,0.7564,optionRight,30,3815,2,27,0,27,0,1,,,,,,,,,,,,,,,,,,,,,,,,,,,,,,,,,,,,,,,
,,,,,,,,2023-08-16_08h50.42.734,HF_wild_card,2022.2.4,MacIntel,120.0048002,5dbf5fe16849043f135aa2c0,64d2fd46c836a06233681665,64dc7f3e54219764f686de70,,,,,,,sngl,resources/Empty.png,resources/DY.BMP,WildCard_Ex,0.316116898,-0.017018022,1,0,0,0.6382,optionRight,95,3910,2,28,0,28,0,1,,,,,,,,,,,,,,,,,,,,,,,,,,,,,,,,,,,,,,,
,,,,,,,,2023-08-16_08h50.42.734,HF_wild_card,2022.2.4,MacIntel,120.0048002,5dbf5fe16849043f135aa2c0,64d2fd46c836a06233681665,64dc7f3e54219764f686de70,,,,,,,decisionTrl,resources/DBN.BMP,resources/DR.BMP,Door4,-0.283341601,0.027889385,1,0,0,0.6801,optionLeft,60,3970,2,29,0,29,0,1,,,,,,,,,,,,,,,,,,,,,,,,,,,,,,,,,,,,,,,
,,,,,,,,2023-08-16_08h50.42.734,HF_wild_card,2022.2.4,MacIntel,120.0048002,5dbf5fe16849043f135aa2c0,64d2fd46c836a06233681665,64dc7f3e54219764f686de70,,,,,,,decisionTrl,resources/DBN.BMP,resources/DY.BMP,Door4,-0.23598297,0.048168816,1,0,0,0.8571,optionLeft,80,4050,2,30,0,30,0,1,,,,,,,,,,,,,,,,,,,,,,,,,,,,,,,,,,,,,,,
,,,,,,,,2023-08-16_08h50.42.734,HF_wild_card,2022.2.4,MacIntel,120.0048002,5dbf5fe16849043f135aa2c0,64d2fd46c836a06233681665,64dc7f3e54219764f686de70,,,,,,,ctch,resources/DG.BMP,resources/DR.BMP,Door3,0.278046462,-0.002872851,1,0,0,0.8476,optionRight,70,4120,2,31,0,31,0,1,,,,,,,,,,,,,,,,,,,,,,,,,,,,,,,,,,,,,,,
,,,,,,,,2023-08-16_08h50.42.734,HF_wild_card,2022.2.4,MacIntel,120.0048002,5dbf5fe16849043f135aa2c0,64d2fd46c836a06233681665,64dc7f3e54219764f686de70,,,,,,,decisionTrl,resources/DP.BMP,resources/DY.BMP,WildCard_Ex,0.355803571,-0.01488922,1,0,0,1.3645,optionRight,5,4125,2,32,0,32,0,1,,,,,,,,,,,,,,,,,,,,,,,,,,,,,,,,,,,,,,,
,,,,,,,,2023-08-16_08h50.42.734,HF_wild_card,2022.2.4,MacIntel,120.0048002,5dbf5fe16849043f135aa2c0,64d2fd46c836a06233681665,64dc7f3e54219764f686de70,,,,,,,decisionTrl,resources/DR.BMP,resources/DBN.BMP,Door4,0.304063327,0.104208003,1,0,0,0.8371,optionRight,60,4185,2,33,0,33,0,1,,,,,,,,,,,,,,,,,,,,,,,,,,,,,,,,,,,,,,,
,,,,,,,,2023-08-16_08h50.42.734,HF_wild_card,2022.2.4,MacIntel,120.0048002,5dbf5fe16849043f135aa2c0,64d2fd46c836a06233681665,64dc7f3e54219764f686de70,,,,,,,ctch,resources/DBN.BMP,resources/DP.BMP,Door1,0.268725198,-0.019336971,1,0,0,0.8879,optionRight,30,4215,2,34,0,34,0,1,,,,,,,,,,,,,,,,,,,,,,,,,,,,,,,,,,,,,,,
,,,,,,,,2023-08-16_08h50.42.734,HF_wild_card,2022.2.4,MacIntel,120.0048002,5dbf5fe16849043f135aa2c0,64d2fd46c836a06233681665,64dc7f3e54219764f686de70,,,,,,,decisionTrl,resources/DG.BMP,resources/DP.BMP,Door2,-0.220639054,0.010739087,1,0,0,1.0468,optionLeft,20,4235,2,35,0,35,0,1,,,,,,,,,,,,,,,,,,,,,,,,,,,,,,,,,,,,,,,
,,,,,,,,2023-08-16_08h50.42.734,HF_wild_card,2022.2.4,MacIntel,120.0048002,5dbf5fe16849043f135aa2c0,64d2fd46c836a06233681665,64dc7f3e54219764f686de70,,,,,,,sngl,resources/DP.BMP,resources/Empty.png,Door1,-0.244084821,0.032907573,1,0,0,0.5977,optionLeft,30,4265,2,36,0,36,0,1,,,,,,,,,,,,,,,,,,,,,,,,,,,,,,,,,,,,,,,
,,,,,,,,2023-08-16_08h50.42.734,HF_wild_card,2022.2.4,MacIntel,120.0048002,5dbf5fe16849043f135aa2c0,64d2fd46c836a06233681665,64dc7f3e54219764f686de70,,,,,,,decisionTrl,resources/DY.BMP,resources/DG.BMP,Door2,0.312731481,-0.018886409,1,0,0,0.6642,optionRight,20,4285,2,37,0,37,0,1,,,,,,,,,,,,,,,,,,,,,,,,,,,,,,,,,,,,,,,
,,,,,,,,2023-08-16_08h50.42.734,HF_wild_card,2022.2.4,MacIntel,120.0048002,5dbf5fe16849043f135aa2c0,64d2fd46c836a06233681665,64dc7f3e54219764f686de70,,,,,,,sngl,resources/DBN.BMP,resources/Empty.png,Door4,-0.27609127,0.134709821,1,0,0,0.6087,optionLeft,60,4345,2,38,0,38,0,1,,,,,,,,,,,,,,,,,,,,,,,,,,,,,,,,,,,,,,,
,,,,,,,,2023-08-16_08h50.42.734,HF_wild_card,2022.2.4,MacIntel,120.0048002,5dbf5fe16849043f135aa2c0,64d2fd46c836a06233681665,64dc7f3e54219764f686de70,,,,,,,decisionTrl,resources/DY.BMP,resources/DBN.BMP,Door4,0.306159061,0.026678241,1,0,0,0.6327,optionRight,60,4405,2,39,0,39,0,1,,,,,,,,,,,,,,,,,,,,,,,,,,,,,,,,,,,,,,,
,,,,,,,,2023-08-16_08h50.42.734,HF_wild_card,2022.2.4,MacIntel,120.0048002,5dbf5fe16849043f135aa2c0,64d2fd46c836a06233681665,64dc7f3e54219764f686de70,,,,,,,decisionTrl,resources/DY.BMP,resources/DP.BMP,WildCard_Ex,-0.283192791,0.122445437,1,0,0,0.5972,optionLeft,95,4500,2,40,0,40,0,1,,,,,,,,,,,,,,,,,,,,,,,,,,,,,,,,,,,,,,,
,,,,,,,,2023-08-16_08h50.42.734,HF_wild_card,2022.2.4,MacIntel,120.0048002,5dbf5fe16849043f135aa2c0,64d2fd46c836a06233681665,64dc7f3e54219764f686de70,,,,,,,decisionTrl,resources/DY.BMP,resources/DR.BMP,WildCard_Ex,-0.284441138,0.073011739,1,0,0,0.6332,optionLeft,5,4505,2,41,0,41,0,1,,,,,,,,,,,,,,,,,,,,,,,,,,,,,,,,,,,,,,,
,,,,,,,,2023-08-16_08h50.42.734,HF_wild_card,2022.2.4,MacIntel,120.0048002,5dbf5fe16849043f135aa2c0,64d2fd46c836a06233681665,64dc7f3e54219764f686de70,,,,,,,sngl,resources/Empty.png,resources/DR.BMP,Door3,0.334052579,0.026996528,1,0,0,0.5059,optionRight,70,4575,2,42,0,42,0,1,,,,,,,,,,,,,,,,,,,,,,,,,,,,,,,,,,,,,,,
,,,,,,,,2023-08-16_08h50.42.734,HF_wild_card,2022.2.4,MacIntel,120.0048002,5dbf5fe16849043f135aa2c0,64d2fd46c836a06233681665,64dc7f3e54219764f686de70,,,,,,,decisionTrl,resources/DP.BMP,resources/DG.BMP,Door1,-0.240922619,0.126260747,1,0,0,0.6128,optionLeft,30,4605,2,43,0,43,0,1,,,,,,,,,,,,,,,,,,,,,,,,,,,,,,,,,,,,,,,
,,,,,,,,2023-08-16_08h50.42.734,HF_wild_card,2022.2.4,MacIntel,120.0048002,5dbf5fe16849043f135aa2c0,64d2fd46c836a06233681665,64dc7f3e54219764f686de70,,,,,,,,,,,,,,,,,,,,,,,,,,1,0,1,0,1,,,,,,,,,,,,,,,,,,,,,,,,,,,,,,,,,,
,,,,,,,,2023-08-16_08h50.42.734,HF_wild_card,2022.2.4,MacIntel,120.0048002,5dbf5fe16849043f135aa2c0,64d2fd46c836a06233681665,64dc7f3e54219764f686de70,,,,,,,decisionTrl,resources/DBN.BMP,resources/DR.BMP,Door4,-0.228625165,0.039310516,1,0,0,1.2919,optionLeft,80,4685,3,0,0,0,0,1,,,,,,,,,,,,,,,,,,,,,,,,,,,,,,,,,,,,,,,
,,,,,,,,2023-08-16_08h50.42.734,HF_wild_card,2022.2.4,MacIntel,120.0048002,5dbf5fe16849043f135aa2c0,64d2fd46c836a06233681665,64dc7f3e54219764f686de70,,,,,,,decisionTrl,resources/DG.BMP,resources/DP.BMP,Door2,-0.320854001,0.039504795,1,0,0,0.5131,optionLeft,40,4725,3,1,0,1,0,1,,,,,,,,,,,,,,,,,,,,,,,,,,,,,,,,,,,,,,,
,,,,,,,,2023-08-16_08h50.42.734,HF_wild_card,2022.2.4,MacIntel,120.0048002,5dbf5fe16849043f135aa2c0,64d2fd46c836a06233681665,64dc7f3e54219764f686de70,,,,,,,sngl,resources/Empty.png,resources/DBN.BMP,Door4,0.268274636,0.082849702,1,0,0,0.4488,optionRight,60,4785,3,2,0,2,0,1,,,,,,,,,,,,,,,,,,,,,,,,,,,,,,,,,,,,,,,
,,,,,,,,2023-08-16_08h50.42.734,HF_wild_card,2022.2.4,MacIntel,120.0048002,5dbf5fe16849043f135aa2c0,64d2fd46c836a06233681665,64dc7f3e54219764f686de70,,,,,,,decisionTrl,resources/DP.BMP,resources/DY.BMP,Door1,-0.222647983,0.028798776,1,0,0,0.481,optionLeft,30,4815,3,3,0,3,0,1,,,,,,,,,,,,,,,,,,,,,,,,,,,,,,,,,,,,,,,
,,,,,,,,2023-08-16_08h50.42.734,HF_wild_card,2022.2.4,MacIntel,120.0048002,5dbf5fe16849043f135aa2c0,64d2fd46c836a06233681665,64dc7f3e54219764f686de70,,,,,,,ctch,resources/DR.BMP,resources/DG.BMP,Door2,0.216501323,-0.003753307,1,0,0,0.4545,optionRight,20,4835,3,4,0,4,0,1,,,,,,,,,,,,,,,,,,,,,,,,,,,,,,,,,,,,,,,
,,,,,,,,2023-08-16_08h50.42.734,HF_wild_card,2022.2.4,MacIntel,120.0048002,5dbf5fe16849043f135aa2c0,64d2fd46c836a06233681665,64dc7f3e54219764f686de70,,,,,,,decisionTrl,resources/DBN.BMP,resources/DR.BMP,Door4,-0.274656911,0.056059854,1,0,0,0.7465,optionLeft,80,4915,3,5,0,5,0,1,,,,,,,,,,,,,,,,,,,,,,,,,,,,,,,,,,,,,,,
,,,,,,,,2023-08-16_08h50.42.734,HF_wild_card,2022.2.4,MacIntel,120.0048002,5dbf5fe16849043f135aa2c0,64d2fd46c836a06233681665,64dc7f3e54219764f686de70,,,,,,,decisionTrl,resources/DG.BMP,resources/DP.BMP,Door2,-0.264773479,0.07999752,1,0,0,0.5804,optionLeft,40,4955,3,6,0,6,0,1,,,,,,,,,,,,,,,,,,,,,,,,,,,,,,,,,,,,,,,
,,,,,,,,2023-08-16_08h50.42.734,HF_wild_card,2022.2.4,MacIntel,120.0048002,5dbf5fe16849043f135aa2c0,64d2fd46c836a06233681665,64dc7f3e54219764f686de70,,,,,,,decisionTrl,resources/DR.BMP,resources/DBN.BMP,Door4,0.308461475,0.038401124,1,0,0,0.4551,optionRight,80,5035,3,7,0,7,0,1,,,,,,,,,,,,,,,,,,,,,,,,,,,,,,,,,,,,,,,
,,,,,,,,2023-08-16_08h50.42.734,HF_wild_card,2022.2.4,MacIntel,120.0048002,5dbf5fe16849043f135aa2c0,64d2fd46c836a06233681665,64dc7f3e54219764f686de70,,,,,,,decisionTrl,resources/DP.BMP,resources/DG.BMP,Door1,-0.305634094,0.029898313,1,0,0,0.5658,optionLeft,30,5065,3,8,0,8,0,1,,,,,,,,,,,,,,,,,,,,,,,,,,,,,,,,,,,,,,,
,,,,,,,,2023-08-16_08h50.42.734,HF_wild_card,2022.2.4,MacIntel,120.0048002,5dbf5fe16849043f135aa2c0,64d2fd46c836a06233681665,64dc7f3e54219764f686de70,,,,,,,sngl,resources/DBN.BMP,resources/Empty.png,Door4,-0.338086971,0.001959325,1,0,0,0.5877,optionLeft,80,5145,3,9,0,9,0,1,,,,,,,,,,,,,,,,,,,,,,,,,,,,,,,,,,,,,,,
,,,,,,,,2023-08-16_08h50.42.734,HF_wild_card,2022.2.4,MacIntel,120.0048002,5dbf5fe16849043f135aa2c0,64d2fd46c836a06233681665,64dc7f3e54219764f686de70,,,,,,,decisionTrl,resources/DR.BMP,resources/DY.BMP,Door3,-0.215426587,0.083486276,1,0,0,1.4294,optionLeft,70,5215,3,10,0,10,0,1,,,,,,,,,,,,,,,,,,,,,,,,,,,,,,,,,,,,,,,
,,,,,,,,2023-08-16_08h50.42.734,HF_wild_card,2022.2.4,MacIntel,120.0048002,5dbf5fe16849043f135aa2c0,64d2fd46c836a06233681665,64dc7f3e54219764f686de70,,,,,,,decisionTrl,resources/DY.BMP,resources/DR.BMP,WildCard_Ex,-0.308366402,0.076037533,1,0,0,0.7461,optionLeft,95,5310,3,11,0,11,0,1,,,,,,,,,,,,,,,,,,,,,,,,,,,,,,,,,,,,,,,
,,,,,,,,2023-08-16_08h50.42.734,HF_wild_card,2022.2.4,MacIntel,120.0048002,5dbf5fe16849043f135aa2c0,64d2fd46c836a06233681665,64dc7f3e54219764f686de70,,,,,,,sngl,resources/Empty.png,resources/DR.BMP,Door3,0.315397652,0.054133598,1,0,0,0.6564,optionRight,70,5380,3,12,0,12,0,1,,,,,,,,,,,,,,,,,,,,,,,,,,,,,,,,,,,,,,,
,,,,,,,,2023-08-16_08h50.42.734,HF_wild_card,2022.2.4,MacIntel,120.0048002,5dbf5fe16849043f135aa2c0,64d2fd46c836a06233681665,64dc7f3e54219764f686de70,,,,,,,sngl,resources/Empty.png,resources/DY.BMP,WildCard_Ex,0.402938988,0.013802083,1,0,0,0.6235,optionRight,5,5385,3,13,0,13,0,1,,,,,,,,,,,,,,,,,,,,,,,,,,,,,,,,,,,,,,,
,,,,,,,,2023-08-16_08h50.42.734,HF_wild_card,2022.2.4,MacIntel,120.0048002,5dbf5fe16849043f135aa2c0,64d2fd46c836a06233681665,64dc7f3e54219764f686de70,,,,,,,decisionTrl,resources/DBN.BMP,resources/DR.BMP,Door4,-0.301211144,0.064967758,1,0,0,0.7736,optionLeft,80,5465,3,14,0,14,0,1,,,,,,,,,,,,,,,,,,,,,,,,,,,,,,,,,,,,,,,
,,,,,,,,2023-08-16_08h50.42.734,HF_wild_card,2022.2.4,MacIntel,120.0048002,5dbf5fe16849043f135aa2c0,64d2fd46c836a06233681665,64dc7f3e54219764f686de70,,,,,,,sngl,resources/DY.BMP,resources/Empty.png,WildCard_Ex,-0.265128968,0.014265046,1,0,0,0.5815,optionLeft,95,5560,3,15,0,15,0,1,,,,,,,,,,,,,,,,,,,,,,,,,,,,,,,,,,,,,,,
,,,,,,,,2023-08-16_08h50.42.734,HF_wild_card,2022.2.4,MacIntel,120.0048002,5dbf5fe16849043f135aa2c0,64d2fd46c836a06233681665,64dc7f3e54219764f686de70,,,,,,,sngl,resources/Empty.png,resources/DG.BMP,Door2,0.320320767,0.017241237,1,0,0,0.6666,optionRight,20,5580,3,16,0,16,0,1,,,,,,,,,,,,,,,,,,,,,,,,,,,,,,,,,,,,,,,
,,,,,,,,2023-08-16_08h50.42.734,HF_wild_card,2022.2.4,MacIntel,120.0048002,5dbf5fe16849043f135aa2c0,64d2fd46c836a06233681665,64dc7f3e54219764f686de70,,,,,,,sngl,resources/DY.BMP,resources/Empty.png,WildCard_Ex,-0.339880952,0.086326058,1,0,0,0.6127,optionLeft,5,5585,3,17,0,17,0,1,,,,,,,,,,,,,,,,,,,,,,,,,,,,,,,,,,,,,,,
,,,,,,,,2023-08-16_08h50.42.734,HF_wild_card,2022.2.4,MacIntel,120.0048002,5dbf5fe16849043f135aa2c0,64d2fd46c836a06233681665,64dc7f3e54219764f686de70,,,,,,,sngl,resources/DG.BMP,resources/Empty.png,Door2,-0.298536706,0.071556713,1,0,0,0.6638,optionLeft,40,5625,3,18,0,18,0,1,,,,,,,,,,,,,,,,,,,,,,,,,,,,,,,,,,,,,,,
,,,,,,,,2023-08-16_08h50.42.734,HF_wild_card,2022.2.4,MacIntel,120.0048002,5dbf5fe16849043f135aa2c0,64d2fd46c836a06233681665,64dc7f3e54219764f686de70,,,,,,,decisionTrl,resources/DP.BMP,resources/DG.BMP,Door1,-0.263777282,0.07651703,1,0,0,0.6983,optionLeft,30,5655,3,19,0,19,0,1,,,,,,,,,,,,,,,,,,,,,,,,,,,,,,,,,,,,,,,
,,,,,,,,2023-08-16_08h50.42.734,HF_wild_card,2022.2.4,MacIntel,120.0048002,5dbf5fe16849043f135aa2c0,64d2fd46c836a06233681665,64dc7f3e54219764f686de70,,,,,,,sngl,resources/Empty.png,resources/DP.BMP,Door1,0.360288525,0.025066138,1,0,0,0.8388,optionRight,30,5685,3,20,0,20,0,1,,,,,,,,,,,,,,,,,,,,,,,,,,,,,,,,,,,,,,,
,,,,,,,,2023-08-16_08h50.42.734,HF_wild_card,2022.2.4,MacIntel,120.0048002,5dbf5fe16849043f135aa2c0,64d2fd46c836a06233681665,64dc7f3e54219764f686de70,,,,,,,decisionTrl,resources/DBN.BMP,resources/DR.BMP,Door4,-0.240753142,0.058928571,1,0,0,0.8059,optionLeft,60,5745,3,21,0,21,0,1,,,,,,,,,,,,,,,,,,,,,,,,,,,,,,,,,,,,,,,
,,,,,,,,2023-08-16_08h50.42.734,HF_wild_card,2022.2.4,MacIntel,120.0048002,5dbf5fe16849043f135aa2c0,64d2fd46c836a06233681665,64dc7f3e54219764f686de70,,,,,,,ctch,resources/DG.BMP,resources/DR.BMP,Door2,-0.282957176,0.104980985,1,0,0,0.9471,optionLeft,40,5785,3,22,0,22,0,1,,,,,,,,,,,,,,,,,,,,,,,,,,,,,,,,,,,,,,,
,,,,,,,,2023-08-16_08h50.42.734,HF_wild_card,2022.2.4,MacIntel,120.0048002,5dbf5fe16849043f135aa2c0,64d2fd46c836a06233681665,64dc7f3e54219764f686de70,,,,,,,decisionTrl,resources/DY.BMP,resources/DP.BMP,WildCard_Ex,-0.212239583,0.073115079,1,0,0,0.8472,optionLeft,95,5880,3,23,0,23,0,1,,,,,,,,,,,,,,,,,,,,,,,,,,,,,,,,,,,,,,,
,,,,,,,,2023-08-16_08h50.42.734,HF_wild_card,2022.2.4,MacIntel,120.0048002,5dbf5fe16849043f135aa2c0,64d2fd46c836a06233681665,64dc7f3e54219764f686de70,,,,,,,decisionTrl,resources/DP.BMP,resources/DG.BMP,Door1,-0.410181052,0.067782738,1,0,0,0.8565,optionLeft,30,5910,3,24,0,24,0,1,,,,,,,,,,,,,,,,,,,,,,,,,,,,,,,,,,,,,,,
,,,,,,,,2023-08-16_08h50.42.734,HF_wild_card,2022.2.4,MacIntel,120.0048002,5dbf5fe16849043f135aa2c0,64d2fd46c836a06233681665,64dc7f3e54219764f686de70,,,,,,,ctch,resources/DBN.BMP,resources/DP.BMP,Door4,-0.28521412,0.02103588,1,0,0,0.6221,optionLeft,60,5970,3,25,0,25,0,1,,,,,,,,,,,,,,,,,,,,,,,,,,,,,,,,,,,,,,,
,,,,,,,,2023-08-16_08h50.42.734,HF_wild_card,2022.2.4,MacIntel,120.0048002,5dbf5fe16849043f135aa2c0,64d2fd46c836a06233681665,64dc7f3e54219764f686de70,,,,,,,sngl,resources/Empty.png,resources/DY.BMP,WildCard_Ex,0.317530589,0.065178571,1,0,0,0.6626,optionRight,95,6065,3,26,0,26,0,1,,,,,,,,,,,,,,,,,,,,,,,,,,,,,,,,,,,,,,,
,,,,,,,,2023-08-16_08h50.42.734,HF_wild_card,2022.2.4,MacIntel,120.0048002,5dbf5fe16849043f135aa2c0,64d2fd46c836a06233681665,64dc7f3e54219764f686de70,,,,,,,sngl,resources/DP.BMP,resources/Empty.png,Door1,-0.272540509,0.08108879,1,0,0,0.6734,optionLeft,30,6095,3,27,0,27,0,1,,,,,,,,,,,,,,,,,,,,,,,,,,,,,,,,,,,,,,,
,,,,,,,,2023-08-16_08h50.42.734,HF_wild_card,2022.2.4,MacIntel,120.0048002,5dbf5fe16849043f135aa2c0,64d2fd46c836a06233681665,64dc7f3e54219764f686de70,,,,,,,decisionTrl,resources/DR.BMP,resources/DBN.BMP,Door4,0.239240245,0.04546131,1,0,0,0.7227,optionRight,60,6155,3,28,0,28,0,1,,,,,,,,,,,,,,,,,,,,,,,,,,,,,,,,,,,,,,,
,,,,,,,,2023-08-16_08h50.42.734,HF_wild_card,2022.2.4,MacIntel,120.0048002,5dbf5fe16849043f135aa2c0,64d2fd46c836a06233681665,64dc7f3e54219764f686de70,,,,,,,ctch,resources/DR.BMP,resources/DG.BMP,Door3,-0.247978671,0.067096561,1,0,0,0.7556,optionLeft,70,6225,3,29,0,29,0,1,,,,,,,,,,,,,,,,,,,,,,,,,,,,,,,,,,,,,,,
,,,,,,,,2023-08-16_08h50.42.734,HF_wild_card,2022.2.4,MacIntel,120.0048002,5dbf5fe16849043f135aa2c0,64d2fd46c836a06233681665,64dc7f3e54219764f686de70,,,,,,,decisionTrl,resources/DP.BMP,resources/DG.BMP,Door1,-0.269411376,0.097399967,1,0,0,0.6664,optionLeft,30,6255,3,30,0,30,0,1,,,,,,,,,,,,,,,,,,,,,,,,,,,,,,,,,,,,,,,
,,,,,,,,2023-08-16_08h50.42.734,HF_wild_card,2022.2.4,MacIntel,120.0048002,5dbf5fe16849043f135aa2c0,64d2fd46c836a06233681665,64dc7f3e54219764f686de70,,,,,,,decisionTrl,resources/DY.BMP,resources/DBN.BMP,Door4,0.340079365,0.061644345,1,0,0,0.6895,optionRight,60,6315,3,31,0,31,0,1,,,,,,,,,,,,,,,,,,,,,,,,,,,,,,,,,,,,,,,
,,,,,,,,2023-08-16_08h50.42.734,HF_wild_card,2022.2.4,MacIntel,120.0048002,5dbf5fe16849043f135aa2c0,64d2fd46c836a06233681665,64dc7f3e54219764f686de70,,,,,,,decisionTrl,resources/DBN.BMP,resources/DY.BMP,Door4,-0.291121032,0.132275132,1,0,0,0.9385,optionLeft,80,6395,3,32,0,32,0,1,,,,,,,,,,,,,,,,,,,,,,,,,,,,,,,,,,,,,,,
,,,,,,,,2023-08-16_08h50.42.734,HF_wild_card,2022.2.4,MacIntel,120.0048002,5dbf5fe16849043f135aa2c0,64d2fd46c836a06233681665,64dc7f3e54219764f686de70,,,,,,,decisionTrl,resources/DR.BMP,resources/DBN.BMP,Door4,0.338661541,0.075248016,1,0,0,0.6739,optionRight,80,6475,3,33,0,33,0,1,,,,,,,,,,,,,,,,,,,,,,,,,,,,,,,,,,,,,,,
,,,,,,,,2023-08-16_08h50.42.734,HF_wild_card,2022.2.4,MacIntel,120.0048002,5dbf5fe16849043f135aa2c0,64d2fd46c836a06233681665,64dc7f3e54219764f686de70,,,,,,,decisionTrl,resources/DG.BMP,resources/DP.BMP,Door2,-0.205935847,0.149694114,1,0,0,0.6157,optionLeft,40,6515,3,34,0,34,0,1,,,,,,,,,,,,,,,,,,,,,,,,,,,,,,,,,,,,,,,
,,,,,,,,2023-08-16_08h50.42.734,HF_wild_card,2022.2.4,MacIntel,120.0048002,5dbf5fe16849043f135aa2c0,64d2fd46c836a06233681665,64dc7f3e54219764f686de70,,,,,,,decisionTrl,resources/DG.BMP,resources/DY.BMP,WildCard_Ex,0.337929894,0.107911706,1,0,0,0.6807,optionRight,95,6610,3,35,0,35,0,1,,,,,,,,,,,,,,,,,,,,,,,,,,,,,,,,,,,,,,,
,,,,,,,,2023-08-16_08h50.42.734,HF_wild_card,2022.2.4,MacIntel,120.0048002,5dbf5fe16849043f135aa2c0,64d2fd46c836a06233681665,64dc7f3e54219764f686de70,,,,,,,ctch,resources/DP.BMP,resources/DBN.BMP,Door4,0.392216435,0.098759921,1,0,0,0.7301,optionRight,80,6690,3,36,0,36,0,1,,,,,,,,,,,,,,,,,,,,,,,,,,,,,,,,,,,,,,,
,,,,,,,,2023-08-16_08h50.42.734,HF_wild_card,2022.2.4,MacIntel,120.0048002,5dbf5fe16849043f135aa2c0,64d2fd46c836a06233681665,64dc7f3e54219764f686de70,,,,,,,decisionTrl,resources/DG.BMP,resources/DP.BMP,Door1,0.361090443,0.102451224,1,0,0,0.7561,optionRight,30,6720,3,37,0,37,0,1,,,,,,,,,,,,,,,,,,,,,,,,,,,,,,,,,,,,,,,
,,,,,,,,2023-08-16_08h50.42.734,HF_wild_card,2022.2.4,MacIntel,120.0048002,5dbf5fe16849043f135aa2c0,64d2fd46c836a06233681665,64dc7f3e54219764f686de70,,,,,,,ctch,resources/DBN.BMP,resources/DP.BMP,Door4,-0.337595073,0.066662533,1,0,0,0.6231,optionLeft,60,6780,3,38,0,38,0,1,,,,,,,,,,,,,,,,,,,,,,,,,,,,,,,,,,,,,,,
,,,,,,,,2023-08-16_08h50.42.734,HF_wild_card,2022.2.4,MacIntel,120.0048002,5dbf5fe16849043f135aa2c0,64d2fd46c836a06233681665,64dc7f3e54219764f686de70,,,,,,,ctch,resources/DP.BMP,resources/DBN.BMP,Door4,0.300136409,0.084403935,1,0,0,0.6046,optionRight,60,6840,3,39,0,39,0,1,,,,,,,,,,,,,,,,,,,,,,,,,,,,,,,,,,,,,,,
,,,,,,,,2023-08-16_08h50.42.734,HF_wild_card,2022.2.4,MacIntel,120.0048002,5dbf5fe16849043f135aa2c0,64d2fd46c836a06233681665,64dc7f3e54219764f686de70,,,,,,,ctch,resources/DG.BMP,resources/DR.BMP,Door2,-0.233932705,0.08822338,1,0,0,0.7315,optionLeft,40,6880,3,40,0,40,0,1,,,,,,,,,,,,,,,,,,,,,,,,,,,,,,,,,,,,,,,
,,,,,,,,2023-08-16_08h50.42.734,HF_wild_card,2022.2.4,MacIntel,120.0048002,5dbf5fe16849043f135aa2c0,64d2fd46c836a06233681665,64dc7f3e54219764f686de70,,,,,,,decisionTrl,resources/DR.BMP,resources/DBN.BMP,Door4,0.30078125,0.084689153,1,0,0,0.482,optionRight,80,6960,3,41,0,41,0,1,,,,,,,,,,,,,,,,,,,,,,,,,,,,,,,,,,,,,,,
,,,,,,,,2023-08-16_08h50.42.734,HF_wild_card,2022.2.4,MacIntel,120.0048002,5dbf5fe16849043f135aa2c0,64d2fd46c836a06233681665,64dc7f3e54219764f686de70,,,,,,,decisionTrl,resources/DY.BMP,resources/DG.BMP,WildCard_Ex,-0.251703042,0.133296131,1,0,0,0.6395,optionLeft,95,7055,3,42,0,42,0,1,,,,,,,,,,,,,,,,,,,,,,,,,,,,,,,,,,,,,,,
,,,,,,,,2023-08-16_08h50.42.734,HF_wild_card,2022.2.4,MacIntel,120.0048002,5dbf5fe16849043f135aa2c0,64d2fd46c836a06233681665,64dc7f3e54219764f686de70,,,,,,,sngl,resources/DR.BMP,resources/Empty.png,Door3,-0.318671462,0.179327877,1,0,0,0.5561,optionLeft,70,7125,3,43,0,43,0,1,,,,,,,,,,,,,,,,,,,,,,,,,,,,,,,,,,,,,,,
,,,,,,,,2023-08-16_08h50.42.734,HF_wild_card,2022.2.4,MacIntel,120.0048002,5dbf5fe16849043f135aa2c0,64d2fd46c836a06233681665,64dc7f3e54219764f686de70,,,,,,,,,,,,,,,,,,,,,,,,,,2,0,2,0,1,,,,,,,,,,,,,,,,,,,,,,,,,,,,,,,,,,
,,,,,,,,2023-08-16_08h50.42.734,HF_wild_card,2022.2.4,MacIntel,120.0048002,5dbf5fe16849043f135aa2c0,64d2fd46c836a06233681665,64dc7f3e54219764f686de70,,,,,,,sngl,resources/DB.BMP,resources/Empty.png,WildCard_NonEx,-0.238566468,0.057270999,1,0,0,0.8162,optionLeft,45,7170,4,0,0,0,0,1,,,,,,,,,,,,,,,,,,,,,,,,,,,,,,,,,,,,,,,
,,,,,,,,2023-08-16_08h50.42.734,HF_wild_card,2022.2.4,MacIntel,120.0048002,5dbf5fe16849043f135aa2c0,64d2fd46c836a06233681665,64dc7f3e54219764f686de70,,,,,,,decisionTrl,resources/DB.BMP,resources/DP.BMP,WildCard_NonEx,-0.259726356,0.082386739,1,0,0,0.6806,optionLeft,55,7225,4,1,0,1,0,1,,,,,,,,,,,,,,,,,,,,,,,,,,,,,,,,,,,,,,,
,,,,,,,,2023-08-16_08h50.42.734,HF_wild_card,2022.2.4,MacIntel,120.0048002,5dbf5fe16849043f135aa2c0,64d2fd46c836a06233681665,64dc7f3e54219764f686de70,,,,,,,ctch,resources/DP.BMP,resources/DBN.BMP,Door4,0.320155423,0.124925595,1,0,0,0.7986,optionRight,80,7305,4,2,0,2,0,1,,,,,,,,,,,,,,,,,,,,,,,,,,,,,,,,,,,,,,,
,,,,,,,,2023-08-16_08h50.42.734,HF_wild_card,2022.2.4,MacIntel,120.0048002,5dbf5fe16849043f135aa2c0,64d2fd46c836a06233681665,64dc7f3e54219764f686de70,,,,,,,sngl,resources/Empty.png,resources/DB.BMP,WildCard_NonEx,0.436665013,0.008114253,1,0,0,0.6979,optionRight,45,7350,4,3,0,3,0,1,,,,,,,,,,,,,,,,,,,,,,,,,,,,,,,,,,,,,,,
,,,,,,,,2023-08-16_08h50.42.734,HF_wild_card,2022.2.4,MacIntel,120.0048002,5dbf5fe16849043f135aa2c0,64d2fd46c836a06233681665,64dc7f3e54219764f686de70,,,,,,,decisionTrl,resources/DR.BMP,resources/DB.BMP,Door3,-0.314777612,0.081419478,1,0,0,0.8483,optionLeft,70,7420,4,4,0,4,0,1,,,,,,,,,,,,,,,,,,,,,,,,,,,,,,,,,,,,,,,
,,,,,,,,2023-08-16_08h50.42.734,HF_wild_card,2022.2.4,MacIntel,120.0048002,5dbf5fe16849043f135aa2c0,64d2fd46c836a06233681665,64dc7f3e54219764f686de70,,,,,,,sngl,resources/DR.BMP,resources/Empty.png,Door3,-0.240046296,0.035631614,1,0,0,0.5892,optionLeft,70,7490,4,5,0,5,0,1,,,,,,,,,,,,,,,,,,,,,,,,,,,,,,,,,,,,,,,
,,,,,,,,2023-08-16_08h50.42.734,HF_wild_card,2022.2.4,MacIntel,120.0048002,5dbf5fe16849043f135aa2c0,64d2fd46c836a06233681665,64dc7f3e54219764f686de70,,,,,,,sngl,resources/Empty.png,resources/DP.BMP,Door1,0.312628142,0.063864087,1,0,0,0.6319,optionRight,30,7520,4,6,0,6,0,1,,,,,,,,,,,,,,,,,,,,,,,,,,,,,,,,,,,,,,,
,,,,,,,,2023-08-16_08h50.42.734,HF_wild_card,2022.2.4,MacIntel,120.0048002,5dbf5fe16849043f135aa2c0,64d2fd46c836a06233681665,64dc7f3e54219764f686de70,,,,,,,decisionTrl,resources/DB.BMP,resources/DBN.BMP,Door4,0.236631944,0.122908399,1,0,0,1.0146,optionRight,80,7600,4,7,0,7,0,1,,,,,,,,,,,,,,,,,,,,,,,,,,,,,,,,,,,,,,,
,,,,,,,,2023-08-16_08h50.42.734,HF_wild_card,2022.2.4,MacIntel,120.0048002,5dbf5fe16849043f135aa2c0,64d2fd46c836a06233681665,64dc7f3e54219764f686de70,,,,,,,decisionTrl,resources/DR.BMP,resources/DBN.BMP,Door3,-0.461412864,0.092700066,1,0,0,1.6229,optionLeft,70,7670,4,8,0,8,0,1,,,,,,,,,,,,,,,,,,,,,,,,,,,,,,,,,,,,,,,
,,,,,,,,2023-08-16_08h50.42.734,HF_wild_card,2022.2.4,MacIntel,120.0048002,5dbf5fe16849043f135aa2c0,64d2fd46c836a06233681665,64dc7f3e54219764f686de70,,,,,,,ctch,resources/DBN.BMP,resources/DP.BMP,Door4,-0.227645503,0.069407242,1,0,0,0.8391,optionLeft,60,7730,4,9,0,9,0,1,,,,,,,,,,,,,,,,,,,,,,,,,,,,,,,,,,,,,,,
,,,,,,,,2023-08-16_08h50.42.734,HF_wild_card,2022.2.4,MacIntel,120.0048002,5dbf5fe16849043f135aa2c0,64d2fd46c836a06233681665,64dc7f3e54219764f686de70,,,,,,,decisionTrl,resources/DBN.BMP,resources/DR.BMP,Door3,0.295878803,0.015277778,1,0,0,0.8057,optionRight,70,7800,4,10,0,10,0,1,,,,,,,,,,,,,,,,,,,,,,,,,,,,,,,,,,,,,,,
,,,,,,,,2023-08-16_08h50.42.734,HF_wild_card,2022.2.4,MacIntel,120.0048002,5dbf5fe16849043f135aa2c0,64d2fd46c836a06233681665,64dc7f3e54219764f686de70,,,,,,,ctch,resources/DP.BMP,resources/DBN.BMP,Door4,0.27671131,0.046027612,1,0,0,0.7569,optionRight,60,7860,4,11,0,11,0,1,,,,,,,,,,,,,,,,,,,,,,,,,,,,,,,,,,,,,,,
,,,,,,,,2023-08-16_08h50.42.734,HF_wild_card,2022.2.4,MacIntel,120.0048002,5dbf5fe16849043f135aa2c0,64d2fd46c836a06233681665,64dc7f3e54219764f686de70,,,,,,,decisionTrl,resources/DG.BMP,resources/DP.BMP,Door2,-0.263012566,0.034515542,1,0,0,0.9976,optionLeft,40,7900,4,12,0,12,0,1,,,,,,,,,,,,,,,,,,,,,,,,,,,,,,,,,,,,,,,
,,,,,,,,2023-08-16_08h50.42.734,HF_wild_card,2022.2.4,MacIntel,120.0048002,5dbf5fe16849043f135aa2c0,64d2fd46c836a06233681665,64dc7f3e54219764f686de70,,,,,,,decisionTrl,resources/DBN.BMP,resources/DR.BMP,Door4,-0.225644841,0.013136574,1,0,0,0.9789,optionLeft,60,7960,4,13,0,13,0,1,,,,,,,,,,,,,,,,,,,,,,,,,,,,,,,,,,,,,,,
,,,,,,,,2023-08-16_08h50.42.734,HF_wild_card,2022.2.4,MacIntel,120.0048002,5dbf5fe16849043f135aa2c0,64d2fd46c836a06233681665,64dc7f3e54219764f686de70,,,,,,,decisionTrl,resources/DR.BMP,resources/DBN.BMP,Door3,-0.181055721,0.000570437,1,0,0,0.6312,optionLeft,70,8030,4,14,0,14,0,1,,,,,,,,,,,,,,,,,,,,,,,,,,,,,,,,,,,,,,,
,,,,,,,,2023-08-16_08h50.42.734,HF_wild_card,2022.2.4,MacIntel,120.0048002,5dbf5fe16849043f135aa2c0,64d2fd46c836a06233681665,64dc7f3e54219764f686de70,,,,,,,ctch,resources/DBN.BMP,resources/DP.BMP,Door1,0.320701058,0.030241402,1,0,0,1.3432,optionRight,30,8060,4,15,0,15,0,1,,,,,,,,,,,,,,,,,,,,,,,,,,,,,,,,,,,,,,,
,,,,,,,,2023-08-16_08h50.42.734,HF_wild_card,2022.2.4,MacIntel,120.0048002,5dbf5fe16849043f135aa2c0,64d2fd46c836a06233681665,64dc7f3e54219764f686de70,,,,,,,ctch,resources/DR.BMP,resources/DG.BMP,Door3,-0.296742725,0.038190311,1,0,0,0.7554,optionLeft,70,8130,4,16,0,16,0,1,,,,,,,,,,,,,,,,,,,,,,,,,,,,,,,,,,,,,,,
,,,,,,,,2023-08-16_08h50.42.734,HF_wild_card,2022.2.4,MacIntel,120.0048002,5dbf5fe16849043f135aa2c0,64d2fd46c836a06233681665,64dc7f3e54219764f686de70,,,,,,,decisionTrl,resources/DBN.BMP,resources/DR.BMP,Door3,0.304530423,0.03578869,1,0,0,1.429,optionRight,70,8200,4,17,0,17,0,1,,,,,,,,,,,,,,,,,,,,,,,,,,,,,,,,,,,,,,,
,,,,,,,,2023-08-16_08h50.42.734,HF_wild_card,2022.2.4,MacIntel,120.0048002,5dbf5fe16849043f135aa2c0,64d2fd46c836a06233681665,64dc7f3e54219764f686de70,,,,,,,decisionTrl,resources/DG.BMP,resources/DP.BMP,Door2,-0.223321759,0.081473214,1,0,0,1.2381,optionLeft,20,8220,4,18,0,18,0,1,,,,,,,,,,,,,,,,,,,,,,,,,,,,,,,,,,,,,,,
,,,,,,,,2023-08-16_08h50.42.734,HF_wild_card,2022.2.4,MacIntel,120.0048002,5dbf5fe16849043f135aa2c0,64d2fd46c836a06233681665,64dc7f3e54219764f686de70,,,,,,,sngl,resources/DP.BMP,resources/Empty.png,Door1,-0.230274471,0.046135086,1,0,0,0.6069,optionLeft,30,8250,4,19,0,19,0,1,,,,,,,,,,,,,,,,,,,,,,,,,,,,,,,,,,,,,,,
,,,,,,,,2023-08-16_08h50.42.734,HF_wild_card,2022.2.4,MacIntel,120.0048002,5dbf5fe16849043f135aa2c0,64d2fd46c836a06233681665,64dc7f3e54219764f686de70,,,,,,,decisionTrl,resources/DP.BMP,resources/DG.BMP,Door2,0.235441468,0.016894015,1,0,0,0.805,optionRight,40,8290,4,20,0,20,0,1,,,,,,,,,,,,,,,,,,,,,,,,,,,,,,,,,,,,,,,
,,,,,,,,2023-08-16_08h50.42.734,HF_wild_card,2022.2.4,MacIntel,120.0048002,5dbf5fe16849043f135aa2c0,64d2fd46c836a06233681665,64dc7f3e54219764f686de70,,,,,,,decisionTrl,resources/DBN.BMP,resources/DR.BMP,Door4,-0.272995205,0.054253472,1,0,0,0.7559,optionLeft,80,8370,4,21,0,21,0,1,,,,,,,,,,,,,,,,,,,,,,,,,,,,,,,,,,,,,,,
,,,,,,,,2023-08-16_08h50.42.734,HF_wild_card,2022.2.4,MacIntel,120.0048002,5dbf5fe16849043f135aa2c0,64d2fd46c836a06233681665,64dc7f3e54219764f686de70,,,,,,,ctch,resources/DG.BMP,resources/DR.BMP,Door3,0.288020833,0.013645007,1,0,0,0.9732,optionRight,70,8440,4,22,0,22,0,1,,,,,,,,,,,,,,,,,,,,,,,,,,,,,,,,,,,,,,,
,,,,,,,,2023-08-16_08h50.42.734,HF_wild_card,2022.2.4,MacIntel,120.0048002,5dbf5fe16849043f135aa2c0,64d2fd46c836a06233681665,64dc7f3e54219764f686de70,,,,,,,decisionTrl,resources/DB.BMP,resources/DG.BMP,Door2,0.289236111,0.082287533,1,0,0,1.1301,optionRight,40,8480,4,23,0,23,0,1,,,,,,,,,,,,,,,,,,,,,,,,,,,,,,,,,,,,,,,
,,,,,,,,2023-08-16_08h50.42.734,HF_wild_card,2022.2.4,MacIntel,120.0048002,5dbf5fe16849043f135aa2c0,64d2fd46c836a06233681665,64dc7f3e54219764f686de70,,,,,,,sngl,resources/DG.BMP,resources/Empty.png,Door2,-0.273164683,0.049392361,1,0,0,0.6246,optionLeft,20,8500,4,24,0,24,0,1,,,,,,,,,,,,,,,,,,,,,,,,,,,,,,,,,,,,,,,
,,,,,,,,2023-08-16_08h50.42.734,HF_wild_card,2022.2.4,MacIntel,120.0048002,5dbf5fe16849043f135aa2c0,64d2fd46c836a06233681665,64dc7f3e54219764f686de70,,,,,,,ctch,resources/DG.BMP,resources/DR.BMP,Door3,0.271482308,0.045709325,1,0,0,0.8461,optionRight,70,8570,4,25,0,25,0,1,,,,,,,,,,,,,,,,,,,,,,,,,,,,,,,,,,,,,,,
,,,,,,,,2023-08-16_08h50.42.734,HF_wild_card,2022.2.4,MacIntel,120.0048002,5dbf5fe16849043f135aa2c0,64d2fd46c836a06233681665,64dc7f3e54219764f686de70,,,,,,,sngl,resources/DBN.BMP,resources/Empty.png,Door4,-0.231167328,0.075169478,1,0,0,0.6462,optionLeft,60,8630,4,26,0,26,0,1,,,,,,,,,,,,,,,,,,,,,,,,,,,,,,,,,,,,,,,
,,,,,,,,2023-08-16_08h50.42.734,HF_wild_card,2022.2.4,MacIntel,120.0048002,5dbf5fe16849043f135aa2c0,64d2fd46c836a06233681665,64dc7f3e54219764f686de70,,,,,,,decisionTrl,resources/DP.BMP,resources/DG.BMP,Door1,-0.268700397,0.129613095,1,0,0,0.7959,optionLeft,30,8660,4,27,0,27,0,1,,,,,,,,,,,,,,,,,,,,,,,,,,,,,,,,,,,,,,,
,,,,,,,,2023-08-16_08h50.42.734,HF_wild_card,2022.2.4,MacIntel,120.0048002,5dbf5fe16849043f135aa2c0,64d2fd46c836a06233681665,64dc7f3e54219764f686de70,,,,,,,ctch,resources/DR.BMP,resources/DG.BMP,Door2,0.297858796,0.064070767,1,0,0,0.738,optionRight,40,8700,4,28,0,28,0,1,,,,,,,,,,,,,,,,,,,,,,,,,,,,,,,,,,,,,,,
,,,,,,,,2023-08-16_08h50.42.734,HF_wild_card,2022.2.4,MacIntel,120.0048002,5dbf5fe16849043f135aa2c0,64d2fd46c836a06233681665,64dc7f3e54219764f686de70,,,,,,,decisionTrl,resources/DR.BMP,resources/DBN.BMP,Door4,0.264591601,0.076715443,1,0,0,0.648,optionRight,60,8760,4,29,0,29,0,1,,,,,,,,,,,,,,,,,,,,,,,,,,,,,,,,,,,,,,,
,,,,,,,,2023-08-16_08h50.42.734,HF_wild_card,2022.2.4,MacIntel,120.0048002,5dbf5fe16849043f135aa2c0,64d2fd46c836a06233681665,64dc7f3e54219764f686de70,,,,,,,sngl,resources/Empty.png,resources/DG.BMP,Door2,0.25328621,0.01297123,1,0,0,0.6991,optionRight,40,8800,4,30,0,30,0,1,,,,,,,,,,,,,,,,,,,,,,,,,,,,,,,,,,,,,,,
,,,,,,,,2023-08-16_08h50.42.734,HF_wild_card,2022.2.4,MacIntel,120.0048002,5dbf5fe16849043f135aa2c0,64d2fd46c836a06233681665,64dc7f3e54219764f686de70,,,,,,,decisionTrl,resources/DG.BMP,resources/DP.BMP,Door2,-0.275227348,0.089814815,1,0,0,0.6146,optionLeft,40,8840,4,31,0,31,0,1,,,,,,,,,,,,,,,,,,,,,,,,,,,,,,,,,,,,,,,
,,,,,,,,2023-08-16_08h50.42.734,HF_wild_card,2022.2.4,MacIntel,120.0048002,5dbf5fe16849043f135aa2c0,64d2fd46c836a06233681665,64dc7f3e54219764f686de70,,,,,,,sngl,resources/Empty.png,resources/DB.BMP,WildCard_NonEx,0.346217758,0.057543816,1,0,0,0.5994,optionRight,55,8895,4,32,0,32,0,1,,,,,,,,,,,,,,,,,,,,,,,,,,,,,,,,,,,,,,,
,,,,,,,,2023-08-16_08h50.42.734,HF_wild_card,2022.2.4,MacIntel,120.0048002,5dbf5fe16849043f135aa2c0,64d2fd46c836a06233681665,64dc7f3e54219764f686de70,,,,,,,decisionTrl,resources/DP.BMP,resources/DB.BMP,WildCard_NonEx,0.350578704,0.122846396,1,0,0,0.7475,optionRight,55,8950,4,33,0,33,0,1,,,,,,,,,,,,,,,,,,,,,,,,,,,,,,,,,,,,,,,
,,,,,,,,2023-08-16_08h50.42.734,HF_wild_card,2022.2.4,MacIntel,120.0048002,5dbf5fe16849043f135aa2c0,64d2fd46c836a06233681665,64dc7f3e54219764f686de70,,,,,,,sngl,resources/DB.BMP,resources/Empty.png,WildCard_NonEx,-0.3489542,0.024462632,1,0,0,0.6237,optionLeft,55,9005,4,34,0,34,0,1,,,,,,,,,,,,,,,,,,,,,,,,,,,,,,,,,,,,,,,
,,,,,,,,2023-08-16_08h50.42.734,HF_wild_card,2022.2.4,MacIntel,120.0048002,5dbf5fe16849043f135aa2c0,64d2fd46c836a06233681665,64dc7f3e54219764f686de70,,,,,,,sngl,resources/Empty.png,resources/DBN.BMP,Door4,0.383213459,0.09901207,1,0,0,0.6476,optionRight,80,9085,4,35,0,35,0,1,,,,,,,,,,,,,,,,,,,,,,,,,,,,,,,,,,,,,,,
,,,,,,,,2023-08-16_08h50.42.734,HF_wild_card,2022.2.4,MacIntel,120.0048002,5dbf5fe16849043f135aa2c0,64d2fd46c836a06233681665,64dc7f3e54219764f686de70,,,,,,,sngl,resources/Empty.png,resources/DR.BMP,Door3,0.262723214,0.055121528,1,0,0,0.6816,optionRight,70,9155,4,36,0,36,0,1,,,,,,,,,,,,,,,,,,,,,,,,,,,,,,,,,,,,,,,
,,,,,,,,2023-08-16_08h50.42.734,HF_wild_card,2022.2.4,MacIntel,120.0048002,5dbf5fe16849043f135aa2c0,64d2fd46c836a06233681665,64dc7f3e54219764f686de70,,,,,,,decisionTrl,resources/DP.BMP,resources/DG.BMP,Door1,-0.224818122,0.091410384,1,0,0,0.9629,optionLeft,30,9185,4,37,0,37,0,1,,,,,,,,,,,,,,,,,,,,,,,,,,,,,,,,,,,,,,,
,,,,,,,,2023-08-16_08h50.42.734,HF_wild_card,2022.2.4,MacIntel,120.0048002,5dbf5fe16849043f135aa2c0,64d2fd46c836a06233681665,64dc7f3e54219764f686de70,,,,,,,decisionTrl,resources/DBN.BMP,resources/DB.BMP,Door4,-0.228823578,0.085429067,1,0,0,1.0237,optionLeft,80,9265,4,38,0,38,0,1,,,,,,,,,,,,,,,,,,,,,,,,,,,,,,,,,,,,,,,
,,,,,,,,2023-08-16_08h50.42.734,HF_wild_card,2022.2.4,MacIntel,120.0048002,5dbf5fe16849043f135aa2c0,64d2fd46c836a06233681665,64dc7f3e54219764f686de70,,,,,,,decisionTrl,resources/DB.BMP,resources/DR.BMP,WildCard_NonEx,-0.27687252,0.134461806,1,0,0,1.0802,optionLeft,55,9320,4,39,0,39,0,1,,,,,,,,,,,,,,,,,,,,,,,,,,,,,,,,,,,,,,,
,,,,,,,,2023-08-16_08h50.42.734,HF_wild_card,2022.2.4,MacIntel,120.0048002,5dbf5fe16849043f135aa2c0,64d2fd46c836a06233681665,64dc7f3e54219764f686de70,,,,,,,decisionTrl,resources/DR.BMP,resources/DBN.BMP,Door3,-0.231779101,0.092972884,1,0,0,1.3159,optionLeft,70,9390,4,40,0,40,0,1,,,,,,,,,,,,,,,,,,,,,,,,,,,,,,,,,,,,,,,
,,,,,,,,2023-08-16_08h50.42.734,HF_wild_card,2022.2.4,MacIntel,120.0048002,5dbf5fe16849043f135aa2c0,64d2fd46c836a06233681665,64dc7f3e54219764f686de70,,,,,,,decisionTrl,resources/DG.BMP,resources/DB.BMP,WildCard_NonEx,0.261185516,0.058676422,1,0,0,1.0572,optionRight,55,9445,4,41,0,41,0,1,,,,,,,,,,,,,,,,,,,,,,,,,,,,,,,,,,,,,,,
,,,,,,,,2023-08-16_08h50.42.734,HF_wild_card,2022.2.4,MacIntel,120.0048002,5dbf5fe16849043f135aa2c0,64d2fd46c836a06233681665,64dc7f3e54219764f686de70,,,,,,,decisionTrl,resources/DG.BMP,resources/DP.BMP,Door2,-0.2578125,0.113562335,1,0,0,1.0593,optionLeft,20,9465,4,42,0,42,0,1,,,,,,,,,,,,,,,,,,,,,,,,,,,,,,,,,,,,,,,
,,,,,,,,2023-08-16_08h50.42.734,HF_wild_card,2022.2.4,MacIntel,120.0048002,5dbf5fe16849043f135aa2c0,64d2fd46c836a06233681665,64dc7f3e54219764f686de70,,,,,,,decisionTrl,resources/DP.BMP,resources/DG.BMP,Door1,-0.252025463,0.077827381,1,0,0,0.7222,optionLeft,30,9495,4,43,0,43,0,1,,,,,,,,,,,,,,,,,,,,,,,,,,,,,,,,,,,,,,,
,,,,,,,,2023-08-16_08h50.42.734,HF_wild_card,2022.2.4,MacIntel,120.0048002,5dbf5fe16849043f135aa2c0,64d2fd46c836a06233681665,64dc7f3e54219764f686de70,,,,,,,,,,,,,,,,,,,,,,,,,,3,0,3,0,1,,,,,,,,,,,,,,,,,,,,,,,,,,,,,,,,,,
,,,,,,,,2023-08-16_08h50.42.734,HF_wild_card,2022.2.4,MacIntel,120.0048002,5dbf5fe16849043f135aa2c0,64d2fd46c836a06233681665,64dc7f3e54219764f686de70,,,,,,,decisionTrl,resources/DB.BMP,resources/DBN.BMP,Door4,0.228046462,0.073350694,1,0,0,1.0543,optionRight,80,9575,5,0,0,0,0,1,,,,,,,,,,,,,,,,,,,,,,,,,,,,,,,,,,,,,,,
,,,,,,,,2023-08-16_08h50.42.734,HF_wild_card,2022.2.4,MacIntel,120.0048002,5dbf5fe16849043f135aa2c0,64d2fd46c836a06233681665,64dc7f3e54219764f686de70,,,,,,,decisionTrl,resources/DR.BMP,resources/DBN.BMP,Door4,0.297585979,0.168539187,1,0,0,0.7543,optionRight,80,9655,5,1,0,1,0,1,,,,,,,,,,,,,,,,,,,,,,,,,,,,,,,,,,,,,,,
,,,,,,,,2023-08-16_08h50.42.734,HF_wild_card,2022.2.4,MacIntel,120.0048002,5dbf5fe16849043f135aa2c0,64d2fd46c836a06233681665,64dc7f3e54219764f686de70,,,,,,,sngl,resources/DBN.BMP,resources/Empty.png,Door4,-0.26791088,0.103244874,1,0,0,0.6463,optionLeft,80,9735,5,2,0,2,0,1,,,,,,,,,,,,,,,,,,,,,,,,,,,,,,,,,,,,,,,
,,,,,,,,2023-08-16_08h50.42.734,HF_wild_card,2022.2.4,MacIntel,120.0048002,5dbf5fe16849043f135aa2c0,64d2fd46c836a06233681665,64dc7f3e54219764f686de70,,,,,,,sngl,resources/Empty.png,resources/DB.BMP,WildCard_NonEx,0.356700562,0.048280423,1,0,0,0.6965,optionRight,45,9780,5,3,0,3,0,1,,,,,,,,,,,,,,,,,,,,,,,,,,,,,,,,,,,,,,,
,,,,,,,,2023-08-16_08h50.42.734,HF_wild_card,2022.2.4,MacIntel,120.0048002,5dbf5fe16849043f135aa2c0,64d2fd46c836a06233681665,64dc7f3e54219764f686de70,,,,,,,decisionTrl,resources/DBN.BMP,resources/DR.BMP,Door4,-0.248590443,0.137595073,1,0,0,0.7558,optionLeft,80,9860,5,4,0,4,0,1,,,,,,,,,,,,,,,,,,,,,,,,,,,,,,,,,,,,,,,
,,,,,,,,2023-08-16_08h50.42.734,HF_wild_card,2022.2.4,MacIntel,120.0048002,5dbf5fe16849043f135aa2c0,64d2fd46c836a06233681665,64dc7f3e54219764f686de70,,,,,,,decisionTrl,resources/DR.BMP,resources/DB.BMP,Door3,-0.213636739,0.13042328,1,0,0,1.5809,optionLeft,70,9930,5,5,0,5,0,1,,,,,,,,,,,,,,,,,,,,,,,,,,,,,,,,,,,,,,,
,,,,,,,,2023-08-16_08h50.42.734,HF_wild_card,2022.2.4,MacIntel,120.0048002,5dbf5fe16849043f135aa2c0,64d2fd46c836a06233681665,64dc7f3e54219764f686de70,,,,,,,decisionTrl,resources/DP.BMP,resources/DG.BMP,Door1,-0.224036872,0.13301918,1,0,0,0.9381,optionLeft,30,9960,5,6,0,6,0,1,,,,,,,,,,,,,,,,,,,,,,,,,,,,,,,,,,,,,,,
,,,,,,,,2023-08-16_08h50.42.734,HF_wild_card,2022.2.4,MacIntel,120.0048002,5dbf5fe16849043f135aa2c0,64d2fd46c836a06233681665,64dc7f3e54219764f686de70,,,,,,,decisionTrl,resources/DR.BMP,resources/DBN.BMP,Door4,0.257374339,0.150917659,1,0,0,0.7308,optionRight,80,10040,5,7,0,7,0,1,,,,,,,,,,,,,,,,,,,,,,,,,,,,,,,,,,,,,,,
,,,,,,,,2023-08-16_08h50.42.734,HF_wild_card,2022.2.4,MacIntel,120.0048002,5dbf5fe16849043f135aa2c0,64d2fd46c836a06233681665,64dc7f3e54219764f686de70,,,,,,,decisionTrl,resources/DG.BMP,resources/DB.BMP,Door2,-0.198524306,0.159866898,1,0,0,1.2271,optionLeft,40,10080,5,8,0,8,0,1,,,,,,,,,,,,,,,,,,,,,,,,,,,,,,,,,,,,,,,
,,,,,,,,2023-08-16_08h50.42.734,HF_wild_card,2022.2.4,MacIntel,120.0048002,5dbf5fe16849043f135aa2c0,64d2fd46c836a06233681665,64dc7f3e54219764f686de70,,,,,,,decisionTrl,resources/DB.BMP,resources/DP.BMP,WildCard_NonEx,-0.245651455,0.086631944,1,0,0,1.0888,optionLeft,45,10125,5,9,0,9,0,1,,,,,,,,,,,,,,,,,,,,,,,,,,,,,,,,,,,,,,,
,,,,,,,,2023-08-16_08h50.42.734,HF_wild_card,2022.2.4,MacIntel,120.0048002,5dbf5fe16849043f135aa2c0,64d2fd46c836a06233681665,64dc7f3e54219764f686de70,,,,,,,sngl,resources/Empty.png,resources/DG.BMP,Door2,0.349880126,0.077087467,1,0,0,0.6236,optionRight,20,10145,5,10,0,10,0,1,,,,,,,,,,,,,,,,,,,,,,,,,,,,,,,,,,,,,,,
,,,,,,,,2023-08-16_08h50.42.734,HF_wild_card,2022.2.4,MacIntel,120.0048002,5dbf5fe16849043f135aa2c0,64d2fd46c836a06233681665,64dc7f3e54219764f686de70,,,,,,,sngl,resources/Empty.png,resources/DR.BMP,Door3,0.324789187,0.073648313,1,0,0,0.6564,optionRight,70,10215,5,11,0,11,0,1,,,,,,,,,,,,,,,,,,,,,,,,,,,,,,,,,,,,,,,
,,,,,,,,2023-08-16_08h50.42.734,HF_wild_card,2022.2.4,MacIntel,120.0048002,5dbf5fe16849043f135aa2c0,64d2fd46c836a06233681665,64dc7f3e54219764f686de70,,,,,,,ctch,resources/DP.BMP,resources/DBN.BMP,Door4,0.333717758,0.130795304,1,0,0,0.6812,optionRight,60,10275,5,12,0,12,0,1,,,,,,,,,,,,,,,,,,,,,,,,,,,,,,,,,,,,,,,
,,,,,,,,2023-08-16_08h50.42.734,HF_wild_card,2022.2.4,MacIntel,120.0048002,5dbf5fe16849043f135aa2c0,64d2fd46c836a06233681665,64dc7f3e54219764f686de70,,,,,,,sngl,resources/DP.BMP,resources/Empty.png,Door1,-0.230737434,0.109482474,1,0,0,0.6309,optionLeft,30,10305,5,13,0,13,0,1,,,,,,,,,,,,,,,,,,,,,,,,,,,,,,,,,,,,,,,
,,,,,,,,2023-08-16_08h50.42.734,HF_wild_card,2022.2.4,MacIntel,120.0048002,5dbf5fe16849043f135aa2c0,64d2fd46c836a06233681665,64dc7f3e54219764f686de70,,,,,,,decisionTrl,resources/DBN.BMP,resources/DB.BMP,Door4,-0.27026703,0.112227183,1,0,0,0.8795,optionLeft,80,10385,5,14,0,14,0,1,,,,,,,,,,,,,,,,,,,,,,,,,,,,,,,,,,,,,,,
,,,,,,,,2023-08-16_08h50.42.734,HF_wild_card,2022.2.4,MacIntel,120.0048002,5dbf5fe16849043f135aa2c0,64d2fd46c836a06233681665,64dc7f3e54219764f686de70,,,,,,,decisionTrl,resources/DBN.BMP,resources/DR.BMP,Door4,-0.231671627,0.128670635,1,0,0,0.664,optionLeft,60,10445,5,15,0,15,0,1,,,,,,,,,,,,,,,,,,,,,,,,,,,,,,,,,,,,,,,
,,,,,,,,2023-08-16_08h50.42.734,HF_wild_card,2022.2.4,MacIntel,120.0048002,5dbf5fe16849043f135aa2c0,64d2fd46c836a06233681665,64dc7f3e54219764f686de70,,,,,,,ctch,resources/DP.BMP,resources/DBN.BMP,Door4,0.273615245,0.148528439,1,0,0,0.796,optionRight,80,10525,5,16,0,16,0,1,,,,,,,,,,,,,,,,,,,,,,,,,,,,,,,,,,,,,,,
,,,,,,,,2023-08-16_08h50.42.734,HF_wild_card,2022.2.4,MacIntel,120.0048002,5dbf5fe16849043f135aa2c0,64d2fd46c836a06233681665,64dc7f3e54219764f686de70,,,,,,,ctch,resources/DG.BMP,resources/DR.BMP,Door3,0.260714286,0.10707672,1,0,0,1.0296,optionRight,70,10595,5,17,0,17,0,1,,,,,,,,,,,,,,,,,,,,,,,,,,,,,,,,,,,,,,,
,,,,,,,,2023-08-16_08h50.42.734,HF_wild_card,2022.2.4,MacIntel,120.0048002,5dbf5fe16849043f135aa2c0,64d2fd46c836a06233681665,64dc7f3e54219764f686de70,,,,,,,decisionTrl,resources/DR.BMP,resources/DBN.BMP,Door4,0.207101521,0.1302042,1,0,0,0.8214,optionRight,80,10675,5,18,0,18,0,1,,,,,,,,,,,,,,,,,,,,,,,,,,,,,,,,,,,,,,,
,,,,,,,,2023-08-16_08h50.42.734,HF_wild_card,2022.2.4,MacIntel,120.0048002,5dbf5fe16849043f135aa2c0,64d2fd46c836a06233681665,64dc7f3e54219764f686de70,,,,,,,decisionTrl,resources/DB.BMP,resources/DG.BMP,WildCard_NonEx,-0.195147156,0.106886574,1,0,0,0.9218,optionLeft,45,10720,5,19,0,19,0,1,,,,,,,,,,,,,,,,,,,,,,,,,,,,,,,,,,,,,,,
,,,,,,,,2023-08-16_08h50.42.734,HF_wild_card,2022.2.4,MacIntel,120.0048002,5dbf5fe16849043f135aa2c0,64d2fd46c836a06233681665,64dc7f3e54219764f686de70,,,,,,,decisionTrl,resources/DG.BMP,resources/DP.BMP,Door2,-0.280774636,0.101479828,1,0,0,0.8479,optionLeft,40,10760,5,20,0,20,0,1,,,,,,,,,,,,,,,,,,,,,,,,,,,,,,,,,,,,,,,
,,,,,,,,2023-08-16_08h50.42.734,HF_wild_card,2022.2.4,MacIntel,120.0048002,5dbf5fe16849043f135aa2c0,64d2fd46c836a06233681665,64dc7f3e54219764f686de70,,,,,,,sngl,resources/Empty.png,resources/DBN.BMP,Door4,0.286830357,0.076434358,1,0,0,0.6232,optionRight,60,10820,5,21,0,21,0,1,,,,,,,,,,,,,,,,,,,,,,,,,,,,,,,,,,,,,,,
,,,,,,,,2023-08-16_08h50.42.734,HF_wild_card,2022.2.4,MacIntel,120.0048002,5dbf5fe16849043f135aa2c0,64d2fd46c836a06233681665,64dc7f3e54219764f686de70,,,,,,,decisionTrl,resources/DR.BMP,resources/DBN.BMP,Door4,0.28598297,0.162553737,1,0,0,0.8052,optionRight,80,10900,5,22,0,22,0,1,,,,,,,,,,,,,,,,,,,,,,,,,,,,,,,,,,,,,,,
,,,,,,,,2023-08-16_08h50.42.734,HF_wild_card,2022.2.4,MacIntel,120.0048002,5dbf5fe16849043f135aa2c0,64d2fd46c836a06233681665,64dc7f3e54219764f686de70,,,,,,,decisionTrl,resources/DP.BMP,resources/DG.BMP,Door2,0.295775463,0.114492394,1,0,0,0.9728,optionRight,20,10920,5,23,0,23,0,1,,,,,,,,,,,,,,,,,,,,,,,,,,,,,,,,,,,,,,,
,,,,,,,,2023-08-16_08h50.42.734,HF_wild_card,2022.2.4,MacIntel,120.0048002,5dbf5fe16849043f135aa2c0,64d2fd46c836a06233681665,64dc7f3e54219764f686de70,,,,,,,decisionTrl,resources/DP.BMP,resources/DG.BMP,Door1,-0.226806382,0.152872851,1,0,0,0.6802,optionLeft,30,10950,5,24,0,24,0,1,,,,,,,,,,,,,,,,,,,,,,,,,,,,,,,,,,,,,,,
,,,,,,,,2023-08-16_08h50.42.734,HF_wild_card,2022.2.4,MacIntel,120.0048002,5dbf5fe16849043f135aa2c0,64d2fd46c836a06233681665,64dc7f3e54219764f686de70,,,,,,,sngl,resources/DB.BMP,resources/Empty.png,WildCard_NonEx,-0.264141038,0.105501819,1,0,0,0.6553,optionLeft,45,10995,5,25,0,25,0,1,,,,,,,,,,,,,,,,,,,,,,,,,,,,,,,,,,,,,,,
,,,,,,,,2023-08-16_08h50.42.734,HF_wild_card,2022.2.4,MacIntel,120.0048002,5dbf5fe16849043f135aa2c0,64d2fd46c836a06233681665,64dc7f3e54219764f686de70,,,,,,,decisionTrl,resources/DB.BMP,resources/DR.BMP,WildCard_NonEx,-0.266059028,0.106423611,1,0,0,1.3563,optionLeft,55,11050,5,26,0,26,0,1,,,,,,,,,,,,,,,,,,,,,,,,,,,,,,,,,,,,,,,
,,,,,,,,2023-08-16_08h50.42.734,HF_wild_card,2022.2.4,MacIntel,120.0048002,5dbf5fe16849043f135aa2c0,64d2fd46c836a06233681665,64dc7f3e54219764f686de70,,,,,,,sngl,resources/Empty.png,resources/DP.BMP,Door1,0.304518022,0.04177414,1,0,0,0.6728,optionRight,30,11080,5,27,0,27,0,1,,,,,,,,,,,,,,,,,,,,,,,,,,,,,,,,,,,,,,,
,,,,,,,,2023-08-16_08h50.42.734,HF_wild_card,2022.2.4,MacIntel,120.0048002,5dbf5fe16849043f135aa2c0,64d2fd46c836a06233681665,64dc7f3e54219764f686de70,,,,,,,decisionTrl,resources/DBN.BMP,resources/DR.BMP,Door4,-0.24469246,0.145403439,1,0,0,1.0226,optionLeft,80,11160,5,28,0,28,0,1,,,,,,,,,,,,,,,,,,,,,,,,,,,,,,,,,,,,,,,
,,,,,,,,2023-08-16_08h50.42.734,HF_wild_card,2022.2.4,MacIntel,120.0048002,5dbf5fe16849043f135aa2c0,64d2fd46c836a06233681665,64dc7f3e54219764f686de70,,,,,,,decisionTrl,resources/DP.BMP,resources/DB.BMP,WildCard_NonEx,0.236197917,0.164814815,1,0,0,1.2235,optionRight,55,11215,5,29,0,29,0,1,,,,,,,,,,,,,,,,,,,,,,,,,,,,,,,,,,,,,,,
,,,,,,,,2023-08-16_08h50.42.734,HF_wild_card,2022.2.4,MacIntel,120.0048002,5dbf5fe16849043f135aa2c0,64d2fd46c836a06233681665,64dc7f3e54219764f686de70,,,,,,,sngl,resources/DR.BMP,resources/Empty.png,Door3,-0.251339286,0.128720238,1,0,0,0.664,optionLeft,70,11285,5,30,0,30,0,1,,,,,,,,,,,,,,,,,,,,,,,,,,,,,,,,,,,,,,,
,,,,,,,,2023-08-16_08h50.42.734,HF_wild_card,2022.2.4,MacIntel,120.0048002,5dbf5fe16849043f135aa2c0,64d2fd46c836a06233681665,64dc7f3e54219764f686de70,,,,,,,sngl,resources/DG.BMP,resources/Empty.png,Door2,-0.222602513,0.10718006,1,0,0,0.6543,optionLeft,40,11325,5,31,0,31,0,1,,,,,,,,,,,,,,,,,,,,,,,,,,,,,,,,,,,,,,,
,,,,,,,,2023-08-16_08h50.42.734,HF_wild_card,2022.2.4,MacIntel,120.0048002,5dbf5fe16849043f135aa2c0,64d2fd46c836a06233681665,64dc7f3e54219764f686de70,,,,,,,ctch,resources/DR.BMP,resources/DG.BMP,Door2,0.221887401,0.066712136,1,0,0,0.8889,optionRight,40,11365,5,32,0,32,0,1,,,,,,,,,,,,,,,,,,,,,,,,,,,,,,,,,,,,,,,
,,,,,,,,2023-08-16_08h50.42.734,HF_wild_card,2022.2.4,MacIntel,120.0048002,5dbf5fe16849043f135aa2c0,64d2fd46c836a06233681665,64dc7f3e54219764f686de70,,,,,,,sngl,resources/DB.BMP,resources/Empty.png,WildCard_NonEx,-0.223573909,0.18343254,1,0,0,0.589,optionLeft,55,11420,5,33,0,33,0,1,,,,,,,,,,,,,,,,,,,,,,,,,,,,,,,,,,,,,,,
,,,,,,,,2023-08-16_08h50.42.734,HF_wild_card,2022.2.4,MacIntel,120.0048002,5dbf5fe16849043f135aa2c0,64d2fd46c836a06233681665,64dc7f3e54219764f686de70,,,,,,,sngl,resources/Empty.png,resources/DB.BMP,WildCard_NonEx,0.321031746,0.120523313,1,0,0,0.6641,optionRight,55,11475,5,34,0,34,0,1,,,,,,,,,,,,,,,,,,,,,,,,,,,,,,,,,,,,,,,
,,,,,,,,2023-08-16_08h50.42.734,HF_wild_card,2022.2.4,MacIntel,120.0048002,5dbf5fe16849043f135aa2c0,64d2fd46c836a06233681665,64dc7f3e54219764f686de70,,,,,,,decisionTrl,resources/DG.BMP,resources/DP.BMP,Door2,-0.234532077,0.131440146,1,0,0,0.662,optionLeft,40,11515,5,35,0,35,0,1,,,,,,,,,,,,,,,,,,,,,,,,,,,,,,,,,,,,,,,
,,,,,,,,2023-08-16_08h50.42.734,HF_wild_card,2022.2.4,MacIntel,120.0048002,5dbf5fe16849043f135aa2c0,64d2fd46c836a06233681665,64dc7f3e54219764f686de70,,,,,,,decisionTrl,resources/DP.BMP,resources/DG.BMP,Door1,-0.434875165,0.12563244,1,0,0,0.8061,optionLeft,30,11545,5,36,0,36,0,1,,,,,,,,,,,,,,,,,,,,,,,,,,,,,,,,,,,,,,,
,,,,,,,,2023-08-16_08h50.42.734,HF_wild_card,2022.2.4,MacIntel,120.0048002,5dbf5fe16849043f135aa2c0,64d2fd46c836a06233681665,64dc7f3e54219764f686de70,,,,,,,ctch,resources/DBN.BMP,resources/DP.BMP,Door4,-0.229394015,0.15244709,1,0,0,0.6476,optionLeft,60,11605,5,37,0,37,0,1,,,,,,,,,,,,,,,,,,,,,,,,,,,,,,,,,,,,,,,
,,,,,,,,2023-08-16_08h50.42.734,HF_wild_card,2022.2.4,MacIntel,120.0048002,5dbf5fe16849043f135aa2c0,64d2fd46c836a06233681665,64dc7f3e54219764f686de70,,,,,,,decisionTrl,resources/DG.BMP,resources/DP.BMP,Door2,-0.184060847,0.154290675,1,0,0,0.5884,optionLeft,20,11625,5,38,0,38,0,1,,,,,,,,,,,,,,,,,,,,,,,,,,,,,,,,,,,,,,,
,,,,,,,,2023-08-16_08h50.42.734,HF_wild_card,2022.2.4,MacIntel,120.0048002,5dbf5fe16849043f135aa2c0,64d2fd46c836a06233681665,64dc7f3e54219764f686de70,,,,,,,decisionTrl,resources/DBN.BMP,resources/DR.BMP,Door4,-0.18640873,0.071325231,1,0,0,0.7658,optionLeft,80,11705,5,39,0,39,0,1,,,,,,,,,,,,,,,,,,,,,,,,,,,,,,,,,,,,,,,
,,,,,,,,2023-08-16_08h50.42.734,HF_wild_card,2022.2.4,MacIntel,120.0048002,5dbf5fe16849043f135aa2c0,64d2fd46c836a06233681665,64dc7f3e54219764f686de70,,,,,,,decisionTrl,resources/DG.BMP,resources/DP.BMP,Door2,-0.204228671,0.095205026,1,0,0,0.572,optionLeft,40,11745,5,40,0,40,0,1,,,,,,,,,,,,,,,,,,,,,,,,,,,,,,,,,,,,,,,
,,,,,,,,2023-08-16_08h50.42.734,HF_wild_card,2022.2.4,MacIntel,120.0048002,5dbf5fe16849043f135aa2c0,64d2fd46c836a06233681665,64dc7f3e54219764f686de70,,,,,,,ctch,resources/DG.BMP,resources/DR.BMP,Door3,0.319655258,0.144977679,1,0,0,0.5292,optionRight,70,11815,5,41,0,41,0,1,,,,,,,,,,,,,,,,,,,,,,,,,,,,,,,,,,,,,,,
,,,,,,,,2023-08-16_08h50.42.734,HF_wild_card,2022.2.4,MacIntel,120.0048002,5dbf5fe16849043f135aa2c0,64d2fd46c836a06233681665,64dc7f3e54219764f686de70,,,,,,,ctch,resources/DBN.BMP,resources/DP.BMP,Door4,-0.235458003,0.135077712,1,0,0,0.7454,optionLeft,80,11895,5,42,0,42,0,1,,,,,,,,,,,,,,,,,,,,,,,,,,,,,,,,,,,,,,,
,,,,,,,,2023-08-16_08h50.42.734,HF_wild_card,2022.2.4,MacIntel,120.0048002,5dbf5fe16849043f135aa2c0,64d2fd46c836a06233681665,64dc7f3e54219764f686de70,,,,,,,ctch,resources/DR.BMP,resources/DG.BMP,Door3,-0.183664021,0.128509425,1,0,0,0.6654,optionLeft,70,11965,5,43,0,43,0,1,,,,,,,,,,,,,,,,,,,,,,,,,,,,,,,,,,,,,,,
,,,,,,,,2023-08-16_08h50.42.734,HF_wild_card,2022.2.4,MacIntel,120.0048002,5dbf5fe16849043f135aa2c0,64d2fd46c836a06233681665,64dc7f3e54219764f686de70,,,,,,,,,,,,,,,,,,,,,,,,,,4,0,4,0,1,,,,,,,,,,,,,,,,,,,,,,,,,,,,,,,,,,
,,,,,,,,2023-08-16_08h50.42.734,HF_wild_card,2022.2.4,MacIntel,120.0048002,5dbf5fe16849043f135aa2c0,64d2fd46c836a06233681665,64dc7f3e54219764f686de70,,,,,,,ctch,resources/DBN.BMP,resources/DP.BMP,Door4,-0.248003472,0.112578538,1,0,0,0.967,optionLeft,80,12045,6,0,0,0,0,1,,,,,,,,,,,,,,,,,,,,,,,,,,,,,,,,,,,,,,,
,,,,,,,,2023-08-16_08h50.42.734,HF_wild_card,2022.2.4,MacIntel,120.0048002,5dbf5fe16849043f135aa2c0,64d2fd46c836a06233681665,64dc7f3e54219764f686de70,,,,,,,decisionTrl,resources/DR.BMP,resources/DBN.BMP,Door4,0.257395007,0.088665675,1,0,0,0.6627,optionRight,80,12125,6,1,0,1,0,1,,,,,,,,,,,,,,,,,,,,,,,,,,,,,,,,,,,,,,,
,,,,,,,,2023-08-16_08h50.42.734,HF_wild_card,2022.2.4,MacIntel,120.0048002,5dbf5fe16849043f135aa2c0,64d2fd46c836a06233681665,64dc7f3e54219764f686de70,,,,,,,ctch,resources/DR.BMP,resources/DG.BMP,Door3,-0.224822255,0.116001157,1,0,0,0.623,optionLeft,70,12195,6,2,0,2,0,1,,,,,,,,,,,,,,,,,,,,,,,,,,,,,,,,,,,,,,,
,,,,,,,,2023-08-16_08h50.42.734,HF_wild_card,2022.2.4,MacIntel,120.0048002,5dbf5fe16849043f135aa2c0,64d2fd46c836a06233681665,64dc7f3e54219764f686de70,,,,,,,decisionTrl,resources/DP.BMP,resources/DG.BMP,Door2,0.215653935,0.100533234,1,0,0,0.7391,optionRight,20,12215,6,3,0,3,0,1,,,,,,,,,,,,,,,,,,,,,,,,,,,,,,,,,,,,,,,
,,,,,,,,2023-08-16_08h50.42.734,HF_wild_card,2022.2.4,MacIntel,120.0048002,5dbf5fe16849043f135aa2c0,64d2fd46c836a06233681665,64dc7f3e54219764f686de70,,,,,,,decisionTrl,resources/DB.BMP,resources/DP.BMP,Door1,0.323991402,0.093592923,1,0,0,1.0294,optionRight,30,12245,6,4,0,4,0,1,,,,,,,,,,,,,,,,,,,,,,,,,,,,,,,,,,,,,,,
,,,,,,,,2023-08-16_08h50.42.734,HF_wild_card,2022.2.4,MacIntel,120.0048002,5dbf5fe16849043f135aa2c0,64d2fd46c836a06233681665,64dc7f3e54219764f686de70,,,,,,,decisionTrl,resources/DP.BMP,resources/DG.BMP,Door1,-0.268638393,0.166261574,1,0,0,1.0212,optionLeft,30,12275,6,5,0,5,0,1,,,,,,,,,,,,,,,,,,,,,,,,,,,,,,,,,,,,,,,
,,,,,,,,2023-08-16_08h50.42.734,HF_wild_card,2022.2.4,MacIntel,120.0048002,5dbf5fe16849043f135aa2c0,64d2fd46c836a06233681665,64dc7f3e54219764f686de70,,,,,,,sngl,resources/Empty.png,resources/DB.BMP,WildCard_NonEx,0.3057333,0.052910053,1,0,0,0.6224,optionRight,55,12330,6,6,0,6,0,1,,,,,,,,,,,,,,,,,,,,,,,,,,,,,,,,,,,,,,,
,,,,,,,,2023-08-16_08h50.42.734,HF_wild_card,2022.2.4,MacIntel,120.0048002,5dbf5fe16849043f135aa2c0,64d2fd46c836a06233681665,64dc7f3e54219764f686de70,,,,,,,decisionTrl,resources/DBN.BMP,resources/DB.BMP,Door4,-0.258337467,0.168737599,1,0,0,0.664,optionLeft,60,12390,6,7,0,7,0,1,,,,,,,,,,,,,,,,,,,,,,,,,,,,,,,,,,,,,,,
,,,,,,,,2023-08-16_08h50.42.734,HF_wild_card,2022.2.4,MacIntel,120.0048002,5dbf5fe16849043f135aa2c0,64d2fd46c836a06233681665,64dc7f3e54219764f686de70,,,,,,,sngl,resources/DR.BMP,resources/Empty.png,Door3,-0.213793816,0.123842593,1,0,0,0.6419,optionLeft,70,12460,6,8,0,8,0,1,,,,,,,,,,,,,,,,,,,,,,,,,,,,,,,,,,,,,,,
,,,,,,,,2023-08-16_08h50.42.734,HF_wild_card,2022.2.4,MacIntel,120.0048002,5dbf5fe16849043f135aa2c0,64d2fd46c836a06233681665,64dc7f3e54219764f686de70,,,,,,,decisionTrl,resources/DB.BMP,resources/DBN.BMP,Door4,0.281072255,0.109031911,1,0,0,0.8976,optionRight,60,12520,6,9,0,9,0,1,,,,,,,,,,,,,,,,,,,,,,,,,,,,,,,,,,,,,,,
,,,,,,,,2023-08-16_08h50.42.734,HF_wild_card,2022.2.4,MacIntel,120.0048002,5dbf5fe16849043f135aa2c0,64d2fd46c836a06233681665,64dc7f3e54219764f686de70,,,,,,,ctch,resources/DG.BMP,resources/DR.BMP,Door3,0.280935847,0.129063327,1,0,0,0.6633,optionRight,70,12590,6,10,0,10,0,1,,,,,,,,,,,,,,,,,,,,,,,,,,,,,,,,,,,,,,,
,,,,,,,,2023-08-16_08h50.42.734,HF_wild_card,2022.2.4,MacIntel,120.0048002,5dbf5fe16849043f135aa2c0,64d2fd46c836a06233681665,64dc7f3e54219764f686de70,,,,,,,decisionTrl,resources/DG.BMP,resources/DP.BMP,Door1,0.307771164,0.257027116,1,0,0,1.4881,optionRight,30,12620,6,11,0,11,0,1,,,,,,,,,,,,,,,,,,,,,,,,,,,,,,,,,,,,,,,
,,,,,,,,2023-08-16_08h50.42.734,HF_wild_card,2022.2.4,MacIntel,120.0048002,5dbf5fe16849043f135aa2c0,64d2fd46c836a06233681665,64dc7f3e54219764f686de70,,,,,,,ctch,resources/DG.BMP,resources/DR.BMP,Door3,0.280931713,0.119626323,1,0,0,0.8866,optionRight,70,12690,6,12,0,12,0,1,,,,,,,,,,,,,,,,,,,,,,,,,,,,,,,,,,,,,,,
,,,,,,,,2023-08-16_08h50.42.734,HF_wild_card,2022.2.4,MacIntel,120.0048002,5dbf5fe16849043f135aa2c0,64d2fd46c836a06233681665,64dc7f3e54219764f686de70,,,,,,,sngl,resources/Empty.png,resources/DB.BMP,WildCard_NonEx,0.283192791,0.116927083,1,0,0,0.6551,optionRight,45,12735,6,13,0,13,0,1,,,,,,,,,,,,,,,,,,,,,,,,,,,,,,,,,,,,,,,
,,,,,,,,2023-08-16_08h50.42.734,HF_wild_card,2022.2.4,MacIntel,120.0048002,5dbf5fe16849043f135aa2c0,64d2fd46c836a06233681665,64dc7f3e54219764f686de70,,,,,,,decisionTrl,resources/DB.BMP,resources/DG.BMP,Door2,0.271106151,0.092977017,1,0,0,0.9071,optionRight,40,12775,6,14,0,14,0,1,,,,,,,,,,,,,,,,,,,,,,,,,,,,,,,,,,,,,,,
,,,,,,,,2023-08-16_08h50.42.734,HF_wild_card,2022.2.4,MacIntel,120.0048002,5dbf5fe16849043f135aa2c0,64d2fd46c836a06233681665,64dc7f3e54219764f686de70,,,,,,,decisionTrl,resources/DP.BMP,resources/DG.BMP,Door2,0.197767857,0.082225529,1,0,0,0.9881,optionRight,20,12795,6,15,0,15,0,1,,,,,,,,,,,,,,,,,,,,,,,,,,,,,,,,,,,,,,,
,,,,,,,,2023-08-16_08h50.42.734,HF_wild_card,2022.2.4,MacIntel,120.0048002,5dbf5fe16849043f135aa2c0,64d2fd46c836a06233681665,64dc7f3e54219764f686de70,,,,,,,sngl,resources/Empty.png,resources/DG.BMP,Door2,0.32859623,0.06891121,1,0,0,0.6797,optionRight,40,12835,6,16,0,16,0,1,,,,,,,,,,,,,,,,,,,,,,,,,,,,,,,,,,,,,,,
,,,,,,,,2023-08-16_08h50.42.734,HF_wild_card,2022.2.4,MacIntel,120.0048002,5dbf5fe16849043f135aa2c0,64d2fd46c836a06233681665,64dc7f3e54219764f686de70,,,,,,,decisionTrl,resources/DR.BMP,resources/DBN.BMP,Door4,0.257543816,0.110714286,1,0,0,1.0485,optionRight,60,12895,6,17,0,17,0,1,,,,,,,,,,,,,,,,,,,,,,,,,,,,,,,,,,,,,,,
,,,,,,,,2023-08-16_08h50.42.734,HF_wild_card,2022.2.4,MacIntel,120.0048002,5dbf5fe16849043f135aa2c0,64d2fd46c836a06233681665,64dc7f3e54219764f686de70,,,,,,,sngl,resources/Empty.png,resources/DR.BMP,Door3,0.263880622,0.114273313,1,0,0,0.6391,optionRight,70,12965,6,18,0,18,0,1,,,,,,,,,,,,,,,,,,,,,,,,,,,,,,,,,,,,,,,
,,,,,,,,2023-08-16_08h50.42.734,HF_wild_card,2022.2.4,MacIntel,120.0048002,5dbf5fe16849043f135aa2c0,64d2fd46c836a06233681665,64dc7f3e54219764f686de70,,,,,,,sngl,resources/Empty.png,resources/DP.BMP,Door1,0.36114418,0.114942956,1,0,0,0.6408,optionRight,30,12995,6,19,0,19,0,1,,,,,,,,,,,,,,,,,,,,,,,,,,,,,,,,,,,,,,,
,,,,,,,,2023-08-16_08h50.42.734,HF_wild_card,2022.2.4,MacIntel,120.0048002,5dbf5fe16849043f135aa2c0,64d2fd46c836a06233681665,64dc7f3e54219764f686de70,,,,,,,decisionTrl,resources/DG.BMP,resources/DB.BMP,WildCard_NonEx,0.299822255,0.163578869,1,0,0,1.147,optionRight,45,13040,6,20,0,20,0,1,,,,,,,,,,,,,,,,,,,,,,,,,,,,,,,,,,,,,,,
,,,,,,,,2023-08-16_08h50.42.734,HF_wild_card,2022.2.4,MacIntel,120.0048002,5dbf5fe16849043f135aa2c0,64d2fd46c836a06233681665,64dc7f3e54219764f686de70,,,,,,,ctch,resources/DP.BMP,resources/DBN.BMP,Door4,0.204323743,0.14005043,1,0,0,0.813,optionRight,80,13120,6,21,0,21,0,1,,,,,,,,,,,,,,,,,,,,,,,,,,,,,,,,,,,,,,,
,,,,,,,,2023-08-16_08h50.42.734,HF_wild_card,2022.2.4,MacIntel,120.0048002,5dbf5fe16849043f135aa2c0,64d2fd46c836a06233681665,64dc7f3e54219764f686de70,,,,,,,sngl,resources/DB.BMP,resources/Empty.png,WildCard_NonEx,-0.180022321,0.090000827,1,0,0,0.6404,optionLeft,45,13165,6,22,0,22,0,1,,,,,,,,,,,,,,,,,,,,,,,,,,,,,,,,,,,,,,,
,,,,,,,,2023-08-16_08h50.42.734,HF_wild_card,2022.2.4,MacIntel,120.0048002,5dbf5fe16849043f135aa2c0,64d2fd46c836a06233681665,64dc7f3e54219764f686de70,,,,,,,sngl,resources/DG.BMP,resources/Empty.png,Door2,-0.203819444,0.105456349,1,0,0,0.5903,optionLeft,20,13185,6,23,0,23,0,1,,,,,,,,,,,,,,,,,,,,,,,,,,,,,,,,,,,,,,,
,,,,,,,,2023-08-16_08h50.42.734,HF_wild_card,2022.2.4,MacIntel,120.0048002,5dbf5fe16849043f135aa2c0,64d2fd46c836a06233681665,64dc7f3e54219764f686de70,,,,,,,decisionTrl,resources/DB.BMP,resources/DR.BMP,Door3,0.273292824,0.093299438,1,0,0,1.254,optionRight,70,13255,6,24,0,24,0,1,,,,,,,,,,,,,,,,,,,,,,,,,,,,,,,,,,,,,,,
,,,,,,,,2023-08-16_08h50.42.734,HF_wild_card,2022.2.4,MacIntel,120.0048002,5dbf5fe16849043f135aa2c0,64d2fd46c836a06233681665,64dc7f3e54219764f686de70,,,,,,,sngl,resources/DP.BMP,resources/Empty.png,Door1,-0.241046627,0.099280754,1,0,0,0.6951,optionLeft,30,13285,6,25,0,25,0,1,,,,,,,,,,,,,,,,,,,,,,,,,,,,,,,,,,,,,,,
,,,,,,,,2023-08-16_08h50.42.734,HF_wild_card,2022.2.4,MacIntel,120.0048002,5dbf5fe16849043f135aa2c0,64d2fd46c836a06233681665,64dc7f3e54219764f686de70,,,,,,,decisionTrl,resources/DP.BMP,resources/DG.BMP,Door1,-0.211433532,0.182969577,1,0,0,1.6574,optionLeft,30,13315,6,26,0,26,0,1,,,,,,,,,,,,,,,,,,,,,,,,,,,,,,,,,,,,,,,
,,,,,,,,2023-08-16_08h50.42.734,HF_wild_card,2022.2.4,MacIntel,120.0048002,5dbf5fe16849043f135aa2c0,64d2fd46c836a06233681665,64dc7f3e54219764f686de70,,,,,,,decisionTrl,resources/DR.BMP,resources/DBN.BMP,Door4,0.229108796,0.186479001,1,0,0,1.4221,optionRight,80,13395,6,27,0,27,0,1,,,,,,,,,,,,,,,,,,,,,,,,,,,,,,,,,,,,,,,
,,,,,,,,2023-08-16_08h50.42.734,HF_wild_card,2022.2.4,MacIntel,120.0048002,5dbf5fe16849043f135aa2c0,64d2fd46c836a06233681665,64dc7f3e54219764f686de70,,,,,,,decisionTrl,resources/DG.BMP,resources/DP.BMP,Door2,-0.145502646,0.11062748,1,0,0,1.1235,optionLeft,40,13435,6,28,0,28,0,1,,,,,,,,,,,,,,,,,,,,,,,,,,,,,,,,,,,,,,,
,,,,,,,,2023-08-16_08h50.42.734,HF_wild_card,2022.2.4,MacIntel,120.0048002,5dbf5fe16849043f135aa2c0,64d2fd46c836a06233681665,64dc7f3e54219764f686de70,,,,,,,sngl,resources/Empty.png,resources/DBN.BMP,Door4,0.301078869,0.129472553,1,0,0,0.6902,optionRight,80,13515,6,29,0,29,0,1,,,,,,,,,,,,,,,,,,,,,,,,,,,,,,,,,,,,,,,
,,,,,,,,2023-08-16_08h50.42.734,HF_wild_card,2022.2.4,MacIntel,120.0048002,5dbf5fe16849043f135aa2c0,64d2fd46c836a06233681665,64dc7f3e54219764f686de70,,,,,,,decisionTrl,resources/DBN.BMP,resources/DR.BMP,Door4,-0.157820767,0.180807705,1,0,0,1.1413,optionLeft,60,13575,6,30,0,30,0,1,,,,,,,,,,,,,,,,,,,,,,,,,,,,,,,,,,,,,,,
,,,,,,,,2023-08-16_08h50.42.734,HF_wild_card,2022.2.4,MacIntel,120.0048002,5dbf5fe16849043f135aa2c0,64d2fd46c836a06233681665,64dc7f3e54219764f686de70,,,,,,,sngl,resources/DB.BMP,resources/Empty.png,WildCard_NonEx,-0.213731812,0.163967427,1,0,0,0.6477,optionLeft,55,13630,6,31,0,31,0,1,,,,,,,,,,,,,,,,,,,,,,,,,,,,,,,,,,,,,,,
,,,,,,,,2023-08-16_08h50.42.734,HF_wild_card,2022.2.4,MacIntel,120.0048002,5dbf5fe16849043f135aa2c0,64d2fd46c836a06233681665,64dc7f3e54219764f686de70,,,,,,,decisionTrl,resources/DBN.BMP,resources/DR.BMP,Door4,-0.172875331,0.170643188,1,0,0,0.9985,optionLeft,80,13710,6,32,0,32,0,1,,,,,,,,,,,,,,,,,,,,,,,,,,,,,,,,,,,,,,,
,,,,,,,,2023-08-16_08h50.42.734,HF_wild_card,2022.2.4,MacIntel,120.0048002,5dbf5fe16849043f135aa2c0,64d2fd46c836a06233681665,64dc7f3e54219764f686de70,,,,,,,decisionTrl,resources/DG.BMP,resources/DP.BMP,Door1,0.245250496,0.199007937,1,0,0,1.5777,optionRight,30,13740,6,33,0,33,0,1,,,,,,,,,,,,,,,,,,,,,,,,,,,,,,,,,,,,,,,
,,,,,,,,2023-08-16_08h50.42.734,HF_wild_card,2022.2.4,MacIntel,120.0048002,5dbf5fe16849043f135aa2c0,64d2fd46c836a06233681665,64dc7f3e54219764f686de70,,,,,,,decisionTrl,resources/DBN.BMP,resources/DR.BMP,Door4,-0.235495205,0.208866567,1,0,0,0.9163,optionLeft,80,13820,6,34,0,34,0,1,,,,,,,,,,,,,,,,,,,,,,,,,,,,,,,,,,,,,,,
,,,,,,,,2023-08-16_08h50.42.734,HF_wild_card,2022.2.4,MacIntel,120.0048002,5dbf5fe16849043f135aa2c0,64d2fd46c836a06233681665,64dc7f3e54219764f686de70,,,,,,,decisionTrl,resources/DG.BMP,resources/DP.BMP,Door2,-0.218411045,0.153406085,1,0,0,1.1388,optionLeft,20,13840,6,35,0,35,0,1,,,,,,,,,,,,,,,,,,,,,,,,,,,,,,,,,,,,,,,
,,,,,,,,2023-08-16_08h50.42.734,HF_wild_card,2022.2.4,MacIntel,120.0048002,5dbf5fe16849043f135aa2c0,64d2fd46c836a06233681665,64dc7f3e54219764f686de70,,,,,,,decisionTrl,resources/DR.BMP,resources/DB.BMP,Door3,-0.3109375,0.170837467,1,0,0,1.0314,optionLeft,70,13910,6,36,0,36,0,1,,,,,,,,,,,,,,,,,,,,,,,,,,,,,,,,,,,,,,,
,,,,,,,,2023-08-16_08h50.42.734,HF_wild_card,2022.2.4,MacIntel,120.0048002,5dbf5fe16849043f135aa2c0,64d2fd46c836a06233681665,64dc7f3e54219764f686de70,,,,,,,decisionTrl,resources/DBN.BMP,resources/DR.BMP,Door4,-0.137384259,0.136834491,1,0,0,1.0401,optionLeft,80,13990,6,37,0,37,0,1,,,,,,,,,,,,,,,,,,,,,,,,,,,,,,,,,,,,,,,
,,,,,,,,2023-08-16_08h50.42.734,HF_wild_card,2022.2.4,MacIntel,120.0048002,5dbf5fe16849043f135aa2c0,64d2fd46c836a06233681665,64dc7f3e54219764f686de70,,,,,,,ctch,resources/DR.BMP,resources/DG.BMP,Door3,-0.159238591,0.161855159,1,0,0,0.7955,optionLeft,70,14060,6,38,0,38,0,1,,,,,,,,,,,,,,,,,,,,,,,,,,,,,,,,,,,,,,,
,,,,,,,,2023-08-16_08h50.42.734,HF_wild_card,2022.2.4,MacIntel,120.0048002,5dbf5fe16849043f135aa2c0,64d2fd46c836a06233681665,64dc7f3e54219764f686de70,,,,,,,sngl,resources/DBN.BMP,resources/Empty.png,Door4,-0.195031415,0.192104828,1,0,0,0.6244,optionLeft,60,14120,6,39,0,39,0,1,,,,,,,,,,,,,,,,,,,,,,,,,,,,,,,,,,,,,,,
,,,,,,,,2023-08-16_08h50.42.734,HF_wild_card,2022.2.4,MacIntel,120.0048002,5dbf5fe16849043f135aa2c0,64d2fd46c836a06233681665,64dc7f3e54219764f686de70,,,,,,,ctch,resources/DP.BMP,resources/DBN.BMP,Door4,0.250049603,0.17582672,1,0,0,0.7105,optionRight,60,14180,6,40,0,40,0,1,,,,,,,,,,,,,,,,,,,,,,,,,,,,,,,,,,,,,,,
,,,,,,,,2023-08-16_08h50.42.734,HF_wild_card,2022.2.4,MacIntel,120.0048002,5dbf5fe16849043f135aa2c0,64d2fd46c836a06233681665,64dc7f3e54219764f686de70,,,,,,,decisionTrl,resources/DP.BMP,resources/DB.BMP,WildCard_NonEx,0.183953373,0.199818122,1,0,0,1.2062,optionRight,45,14225,6,41,0,41,0,1,,,,,,,,,,,,,,,,,,,,,,,,,,,,,,,,,,,,,,,
,,,,,,,,2023-08-16_08h50.42.734,HF_wild_card,2022.2.4,MacIntel,120.0048002,5dbf5fe16849043f135aa2c0,64d2fd46c836a06233681665,64dc7f3e54219764f686de70,,,,,,,ctch,resources/DBN.BMP,resources/DP.BMP,Door4,-0.187590939,0.158209325,1,0,0,0.8408,optionLeft,60,14285,6,42,0,42,0,1,,,,,,,,,,,,,,,,,,,,,,,,,,,,,,,,,,,,,,,
,,,,,,,,2023-08-16_08h50.42.734,HF_wild_card,2022.2.4,MacIntel,120.0048002,5dbf5fe16849043f135aa2c0,64d2fd46c836a06233681665,64dc7f3e54219764f686de70,,,,,,,decisionTrl,resources/DR.BMP,resources/DBN.BMP,Door4,0.237326389,0.173354828,1,0,0,1.0727,optionRight,60,14345,6,43,0,43,0,1,,,,,,,,,,,,,,,,,,,,,,,,,,,,,,,,,,,,,,,
,,,,,,,,2023-08-16_08h50.42.734,HF_wild_card,2022.2.4,MacIntel,120.0048002,5dbf5fe16849043f135aa2c0,64d2fd46c836a06233681665,64dc7f3e54219764f686de70,,,,,,,,,,,,,,,,,,,,,,,,,,5,0,5,0,1,,,,,,,,,,,,,,,,,,,,,,,,,,,,,,,,,,
,,,,,,,,2023-08-16_08h50.42.734,HF_wild_card,2022.2.4,MacIntel,120.0048002,5dbf5fe16849043f135aa2c0,64d2fd46c836a06233681665,64dc7f3e54219764f686de70,,,,,,,ctch,resources/DP.BMP,resources/DBN.BMP,Door4,0.286354993,0.134792493,1,0,0,0.8853,optionRight,60,14405,7,0,0,0,0,1,,,,,,,,,,,,,,,,,,,,,,,,,,,,,,,,,,,,,,,
,,,,,,,,2023-08-16_08h50.42.734,HF_wild_card,2022.2.4,MacIntel,120.0048002,5dbf5fe16849043f135aa2c0,64d2fd46c836a06233681665,64dc7f3e54219764f686de70,,,,,,,decisionTrl,resources/DR.BMP,resources/DBN.BMP,Door3,-0.143506118,0.165988757,1,0,0,1.3655,optionLeft,70,14475,7,1,0,1,0,1,,,,,,,,,,,,,,,,,,,,,,,,,,,,,,,,,,,,,,,
,,,,,,,,2023-08-16_08h50.42.734,HF_wild_card,2022.2.4,MacIntel,120.0048002,5dbf5fe16849043f135aa2c0,64d2fd46c836a06233681665,64dc7f3e54219764f686de70,,,,,,,decisionTrl,resources/DBN.BMP,resources/DR.BMP,Door4,-0.172602513,0.139029431,1,0,0,0.9173,optionLeft,60,14535,7,2,0,2,0,1,,,,,,,,,,,,,,,,,,,,,,,,,,,,,,,,,,,,,,,
,,,,,,,,2023-08-16_08h50.42.734,HF_wild_card,2022.2.4,MacIntel,120.0048002,5dbf5fe16849043f135aa2c0,64d2fd46c836a06233681665,64dc7f3e54219764f686de70,,,,,,,ctch,resources/DP.BMP,resources/DBN.BMP,Door4,0.235838294,0.125785384,1,0,0,0.8582,optionRight,60,14595,7,3,0,3,0,1,,,,,,,,,,,,,,,,,,,,,,,,,,,,,,,,,,,,,,,
,,,,,,,,2023-08-16_08h50.42.734,HF_wild_card,2022.2.4,MacIntel,120.0048002,5dbf5fe16849043f135aa2c0,64d2fd46c836a06233681665,64dc7f3e54219764f686de70,,,,,,,decisionTrl,resources/DR.BMP,resources/DBN.BMP,Door4,0.275504299,0.041112765,1,0,0,0.9889,optionRight,80,14675,7,4,0,4,0,1,,,,,,,,,,,,,,,,,,,,,,,,,,,,,,,,,,,,,,,
,,,,,,,,2023-08-16_08h50.42.734,HF_wild_card,2022.2.4,MacIntel,120.0048002,5dbf5fe16849043f135aa2c0,64d2fd46c836a06233681665,64dc7f3e54219764f686de70,,,,,,,ctch,resources/DBN.BMP,resources/DP.BMP,Door4,-0.195750661,0.166559193,1,0,0,0.7396,optionLeft,60,14735,7,5,0,5,0,1,,,,,,,,,,,,,,,,,,,,,,,,,,,,,,,,,,,,,,,
,,,,,,,,2023-08-16_08h50.42.734,HF_wild_card,2022.2.4,MacIntel,120.0048002,5dbf5fe16849043f135aa2c0,64d2fd46c836a06233681665,64dc7f3e54219764f686de70,,,,,,,decisionTrl,resources/DR.BMP,resources/DBN.BMP,Door3,-0.165104167,0.18088211,1,0,0,1.2247,optionLeft,70,14805,7,6,0,6,0,1,,,,,,,,,,,,,,,,,,,,,,,,,,,,,,,,,,,,,,,
,,,,,,,,2023-08-16_08h50.42.734,HF_wild_card,2022.2.4,MacIntel,120.0048002,5dbf5fe16849043f135aa2c0,64d2fd46c836a06233681665,64dc7f3e54219764f686de70,,,,,,,decisionTrl,resources/DG.BMP,resources/DP.BMP,Door1,0.198168816,0.13932705,1,0,0,1.49,optionRight,30,14835,7,7,0,7,0,1,,,,,,,,,,,,,,,,,,,,,,,,,,,,,,,,,,,,,,,
,,,,,,,,2023-08-16_08h50.42.734,HF_wild_card,2022.2.4,MacIntel,120.0048002,5dbf5fe16849043f135aa2c0,64d2fd46c836a06233681665,64dc7f3e54219764f686de70,,,,,,,decisionTrl,resources/DP.BMP,resources/DG.BMP,Door1,-0.148462302,0.150487765,1,0,0,0.974,optionLeft,30,14865,7,8,0,8,0,1,,,,,,,,,,,,,,,,,,,,,,,,,,,,,,,,,,,,,,,
,,,,,,,,2023-08-16_08h50.42.734,HF_wild_card,2022.2.4,MacIntel,120.0048002,5dbf5fe16849043f135aa2c0,64d2fd46c836a06233681665,64dc7f3e54219764f686de70,,,,,,,decisionTrl,resources/DP.BMP,resources/DG.BMP,Door2,0.18114666,0.128815311,1,0,0,1.0171,optionRight,20,14885,7,9,0,9,0,1,,,,,,,,,,,,,,,,,,,,,,,,,,,,,,,,,,,,,,,
,,,,,,,,2023-08-16_08h50.42.734,HF_wild_card,2022.2.4,MacIntel,120.0048002,5dbf5fe16849043f135aa2c0,64d2fd46c836a06233681665,64dc7f3e54219764f686de70,,,,,,,decisionTrl,resources/DG.BMP,resources/DP.BMP,Door1,0.200657242,0.164860284,1,0,0,0.8899,optionRight,30,14915,7,10,0,10,0,1,,,,,,,,,,,,,,,,,,,,,,,,,,,,,,,,,,,,,,,
,,,,,,,,2023-08-16_08h50.42.734,HF_wild_card,2022.2.4,MacIntel,120.0048002,5dbf5fe16849043f135aa2c0,64d2fd46c836a06233681665,64dc7f3e54219764f686de70,,,,,,,ctch,resources/DBN.BMP,resources/DP.BMP,Door4,-0.173358962,0.192208168,1,0,0,0.8722,optionLeft,60,14975,7,11,0,11,0,1,,,,,,,,,,,,,,,,,,,,,,,,,,,,,,,,,,,,,,,
,,,,,,,,2023-08-16_08h50.42.734,HF_wild_card,2022.2.4,MacIntel,120.0048002,5dbf5fe16849043f135aa2c0,64d2fd46c836a06233681665,64dc7f3e54219764f686de70,,,,,,,decisionTrl,resources/DP.BMP,resources/DG.BMP,Door2,0.183907903,0.162024636,1,0,0,1.1153,optionRight,20,14995,7,12,0,12,0,1,,,,,,,,,,,,,,,,,,,,,,,,,,,,,,,,,,,,,,,
,,,,,,,,2023-08-16_08h50.42.734,HF_wild_card,2022.2.4,MacIntel,120.0048002,5dbf5fe16849043f135aa2c0,64d2fd46c836a06233681665,64dc7f3e54219764f686de70,,,,,,,decisionTrl,resources/DBN.BMP,resources/DR.BMP,Door4,-0.134631283,0.176752646,1,0,0,1.2143,optionLeft,80,15075,7,13,0,13,0,1,,,,,,,,,,,,,,,,,,,,,,,,,,,,,,,,,,,,,,,
,,,,,,,,2023-08-16_08h50.42.734,HF_wild_card,2022.2.4,MacIntel,120.0048002,5dbf5fe16849043f135aa2c0,64d2fd46c836a06233681665,64dc7f3e54219764f686de70,,,,,,,decisionTrl,resources/DBN.BMP,resources/DR.BMP,Door4,-0.161115245,0.166476521,1,0,0,0.7899,optionLeft,60,15135,7,14,0,14,0,1,,,,,,,,,,,,,,,,,,,,,,,,,,,,,,,,,,,,,,,
,,,,,,,,2023-08-16_08h50.42.734,HF_wild_card,2022.2.4,MacIntel,120.0048002,5dbf5fe16849043f135aa2c0,64d2fd46c836a06233681665,64dc7f3e54219764f686de70,,,,,,,decisionTrl,resources/DP.BMP,resources/DG.BMP,Door1,-0.191501323,0.232593419,1,0,0,1.1828,optionLeft,30,15165,7,15,0,15,0,1,,,,,,,,,,,,,,,,,,,,,,,,,,,,,,,,,,,,,,,
,,,,,,,,2023-08-16_08h50.42.734,HF_wild_card,2022.2.4,MacIntel,120.0048002,5dbf5fe16849043f135aa2c0,64d2fd46c836a06233681665,64dc7f3e54219764f686de70,,,,,,,decisionTrl,resources/DG.BMP,resources/DP.BMP,Door1,0.199962798,0.166902282,1,0,0,0.7901,optionRight,30,15195,7,16,0,16,0,1,,,,,,,,,,,,,,,,,,,,,,,,,,,,,,,,,,,,,,,
,,,,,,,,2023-08-16_08h50.42.734,HF_wild_card,2022.2.4,MacIntel,120.0048002,5dbf5fe16849043f135aa2c0,64d2fd46c836a06233681665,64dc7f3e54219764f686de70,,,,,,,decisionTrl,resources/DG.BMP,resources/DP.BMP,Door1,0.216162368,0.175905258,1,0,0,0.7217,optionRight,30,15225,7,17,0,17,0,1,,,,,,,,,,,,,,,,,,,,,,,,,,,,,,,,,,,,,,,
,,,,,,,,2023-08-16_08h50.42.734,HF_wild_card,2022.2.4,MacIntel,120.0048002,5dbf5fe16849043f135aa2c0,64d2fd46c836a06233681665,64dc7f3e54219764f686de70,,,,,,,ctch,resources/DR.BMP,resources/DG.BMP,Door3,-0.129183201,0.169903274,1,0,0,0.9159,optionLeft,70,15295,7,18,0,18,0,1,,,,,,,,,,,,,,,,,,,,,,,,,,,,,,,,,,,,,,,
,,,,,,,,2023-08-16_08h50.42.734,HF_wild_card,2022.2.4,MacIntel,120.0048002,5dbf5fe16849043f135aa2c0,64d2fd46c836a06233681665,64dc7f3e54219764f686de70,,,,,,,decisionTrl,resources/DBN.BMP,resources/DR.BMP,Door3,0.147796792,0.230592758,1,0,0,1.398,optionRight,70,15365,7,19,0,19,0,1,,,,,,,,,,,,,,,,,,,,,,,,,,,,,,,,,,,,,,,
,,,,,,,,2023-08-16_08h50.42.734,HF_wild_card,2022.2.4,MacIntel,120.0048002,5dbf5fe16849043f135aa2c0,64d2fd46c836a06233681665,64dc7f3e54219764f686de70,,,,,,,decisionTrl,resources/DBN.BMP,resources/DR.BMP,Door4,-0.143183697,0.175925926,1,0,0,0.7412,optionLeft,80,15445,7,20,0,20,0,1,,,,,,,,,,,,,,,,,,,,,,,,,,,,,,,,,,,,,,,
,,,,,,,,2023-08-16_08h50.42.734,HF_wild_card,2022.2.4,MacIntel,120.0048002,5dbf5fe16849043f135aa2c0,64d2fd46c836a06233681665,64dc7f3e54219764f686de70,,,,,,,decisionTrl,resources/DBN.BMP,resources/DR.BMP,Door4,-0.165988757,0.187409061,1,0,0,0.6904,optionLeft,60,15505,7,21,0,21,0,1,,,,,,,,,,,,,,,,,,,,,,,,,,,,,,,,,,,,,,,
,,,,,,,,2023-08-16_08h50.42.734,HF_wild_card,2022.2.4,MacIntel,120.0048002,5dbf5fe16849043f135aa2c0,64d2fd46c836a06233681665,64dc7f3e54219764f686de70,,,,,,,decisionTrl,resources/DR.BMP,resources/DBN.BMP,Door4,0.180443948,0.166761739,1,0,0,1.0973,optionRight,60,15565,7,22,0,22,0,1,,,,,,,,,,,,,,,,,,,,,,,,,,,,,,,,,,,,,,,
,,,,,,,,2023-08-16_08h50.42.734,HF_wild_card,2022.2.4,MacIntel,120.0048002,5dbf5fe16849043f135aa2c0,64d2fd46c836a06233681665,64dc7f3e54219764f686de70,,,,,,,ctch,resources/DR.BMP,resources/DG.BMP,Door3,-0.176016865,0.187934028,1,0,0,0.8736,optionLeft,70,15635,7,23,0,23,0,1,,,,,,,,,,,,,,,,,,,,,,,,,,,,,,,,,,,,,,,
,,,,,,,,2023-08-16_08h50.42.734,HF_wild_card,2022.2.4,MacIntel,120.0048002,5dbf5fe16849043f135aa2c0,64d2fd46c836a06233681665,64dc7f3e54219764f686de70,,,,,,,decisionTrl,resources/DG.BMP,resources/DP.BMP,Door1,0.116650132,0.230005787,1,0,0,2.3674,optionRight,30,15665,7,24,0,24,0,1,,,,,,,,,,,,,,,,,,,,,,,,,,,,,,,,,,,,,,,
,,,,,,,,2023-08-16_08h50.42.734,HF_wild_card,2022.2.4,MacIntel,120.0048002,5dbf5fe16849043f135aa2c0,64d2fd46c836a06233681665,64dc7f3e54219764f686de70,,,,,,,decisionTrl,resources/DG.BMP,resources/DP.BMP,Door1,0.106787368,0.207151124,1,0,0,1.0912,optionRight,30,15695,7,25,0,25,0,1,,,,,,,,,,,,,,,,,,,,,,,,,,,,,,,,,,,,,,,
,,,,,,,,2023-08-16_08h50.42.734,HF_wild_card,2022.2.4,MacIntel,120.0048002,5dbf5fe16849043f135aa2c0,64d2fd46c836a06233681665,64dc7f3e54219764f686de70,,,,,,,ctch,resources/DR.BMP,resources/DG.BMP,Door3,-0.146767526,0.155220734,1,0,0,0.8745,optionLeft,70,15765,7,26,0,26,0,1,,,,,,,,,,,,,,,,,,,,,,,,,,,,,,,,,,,,,,,
,,,,,,,,2023-08-16_08h50.42.734,HF_wild_card,2022.2.4,MacIntel,120.0048002,5dbf5fe16849043f135aa2c0,64d2fd46c836a06233681665,64dc7f3e54219764f686de70,,,,,,,ctch,resources/DG.BMP,resources/DR.BMP,Door3,0.21547619,0.149123677,1,0,0,0.6227,optionRight,70,15835,7,27,0,27,0,1,,,,,,,,,,,,,,,,,,,,,,,,,,,,,,,,,,,,,,,
,,,,,,,,2023-08-16_08h50.42.734,HF_wild_card,2022.2.4,MacIntel,120.0048002,5dbf5fe16849043f135aa2c0,64d2fd46c836a06233681665,64dc7f3e54219764f686de70,,,,,,,decisionTrl,resources/DR.BMP,resources/DBN.BMP,Door4,0.2494833,0.158932705,1,0,0,0.873,optionRight,60,15895,7,28,0,28,0,1,,,,,,,,,,,,,,,,,,,,,,,,,,,,,,,,,,,,,,,
,,,,,,,,2023-08-16_08h50.42.734,HF_wild_card,2022.2.4,MacIntel,120.0048002,5dbf5fe16849043f135aa2c0,64d2fd46c836a06233681665,64dc7f3e54219764f686de70,,,,,,,ctch,resources/DG.BMP,resources/DR.BMP,Door3,0.23223793,0.15610119,1,0,0,0.742,optionRight,70,15965,7,29,0,29,0,1,,,,,,,,,,,,,,,,,,,,,,,,,,,,,,,,,,,,,,,
,,,,,,,,2023-08-16_08h50.42.734,HF_wild_card,2022.2.4,MacIntel,120.0048002,5dbf5fe16849043f135aa2c0,64d2fd46c836a06233681665,64dc7f3e54219764f686de70,,,,,,,decisionTrl,resources/DP.BMP,resources/DG.BMP,Door1,-0.221031746,0.153368882,1,0,0,1.1236,optionLeft,30,15995,7,30,0,30,0,1,,,,,,,,,,,,,,,,,,,,,,,,,,,,,,,,,,,,,,,
,,,,,,,,2023-08-16_08h50.42.734,HF_wild_card,2022.2.4,MacIntel,120.0048002,5dbf5fe16849043f135aa2c0,64d2fd46c836a06233681665,64dc7f3e54219764f686de70,,,,,,,decisionTrl,resources/DP.BMP,resources/DG.BMP,Door1,-0.138475529,0.120114087,1,0,0,0.7349,optionLeft,30,16025,7,31,0,31,0,1,,,,,,,,,,,,,,,,,,,,,,,,,,,,,,,,,,,,,,,
,,,,,,,,2023-08-16_08h50.42.734,HF_wild_card,2022.2.4,MacIntel,120.0048002,5dbf5fe16849043f135aa2c0,64d2fd46c836a06233681665,64dc7f3e54219764f686de70,,,,,,,ctch,resources/DG.BMP,resources/DR.BMP,Door3,0.195676257,0.083114253,1,0,0,0.7087,optionRight,70,16095,7,32,0,32,0,1,,,,,,,,,,,,,,,,,,,,,,,,,,,,,,,,,,,,,,,
,,,,,,,,2023-08-16_08h50.42.734,HF_wild_card,2022.2.4,MacIntel,120.0048002,5dbf5fe16849043f135aa2c0,64d2fd46c836a06233681665,64dc7f3e54219764f686de70,,,,,,,ctch,resources/DBN.BMP,resources/DP.BMP,Door4,-0.193568122,0.163963294,1,0,0,0.6993,optionLeft,80,16175,7,33,0,33,0,1,,,,,,,,,,,,,,,,,,,,,,,,,,,,,,,,,,,,,,,
,,,,,,,,2023-08-16_08h50.42.734,HF_wild_card,2022.2.4,MacIntel,120.0048002,5dbf5fe16849043f135aa2c0,64d2fd46c836a06233681665,64dc7f3e54219764f686de70,,,,,,,ctch,resources/DP.BMP,resources/DBN.BMP,Door4,0.203199405,0.17401207,1,0,0,0.6481,optionRight,80,16255,7,34,0,34,0,1,,,,,,,,,,,,,,,,,,,,,,,,,,,,,,,,,,,,,,,
,,,,,,,,2023-08-16_08h50.42.734,HF_wild_card,2022.2.4,MacIntel,120.0048002,5dbf5fe16849043f135aa2c0,64d2fd46c836a06233681665,64dc7f3e54219764f686de70,,,,,,,decisionTrl,resources/DR.BMP,resources/DBN.BMP,Door3,-0.137776951,0.218320106,1,0,0,1.4885,optionLeft,70,16325,7,35,0,35,0,1,,,,,,,,,,,,,,,,,,,,,,,,,,,,,,,,,,,,,,,
,,,,,,,,2023-08-16_08h50.42.734,HF_wild_card,2022.2.4,MacIntel,120.0048002,5dbf5fe16849043f135aa2c0,64d2fd46c836a06233681665,64dc7f3e54219764f686de70,,,,,,,,,,,,,,,,,,,,,,,,,,6,0,6,0,1,,,,,,,,,,,,,,,,,,,,,,,,,,,,,,,,,,
,,,,,,,,2023-08-16_08h50.42.734,HF_wild_card,2022.2.4,MacIntel,120.0048002,5dbf5fe16849043f135aa2c0,64d2fd46c836a06233681665,64dc7f3e54219764f686de70,,,,,,,,,,,,,,,,,,,,,,,,,,,,,,,4,,,,,,,,,,,,,,,,,,,,,,,,,,,,,,,,,
,,,,,,,,2023-08-16_08h50.42.734,HF_wild_card,2022.2.4,MacIntel,120.0048002,5dbf5fe16849043f135aa2c0,64d2fd46c836a06233681665,64dc7f3e54219764f686de70,,,,,,,,,,,,,,,,,,,,,,,,,,,,,,,,,,,,,,,,,,,,,,,,,,,,,,,,,,,,,,,,
,,,,,,,,2023-08-16_08h50.42.734,HF_wild_card,2022.2.4,MacIntel,120.0048002,5dbf5fe16849043f135aa2c0,64d2fd46c836a06233681665,64dc7f3e54219764f686de70,,,,,,,,,,,,,,,,,,,,,,,,,,,,,,,,30,Door2,resources/DG.BMP,0,0,0,0,1,,,,,,,,,,,,,,,,,,,,,,,,,
,,,,,,,,2023-08-16_08h50.42.734,HF_wild_card,2022.2.4,MacIntel,120.0048002,5dbf5fe16849043f135aa2c0,64d2fd46c836a06233681665,64dc7f3e54219764f686de70,,,,,,,,,,,,,,,,,,,,,,,,,,,,,,,,70,Door4,resources/DBN.BMP,1,0,1,0,1,,,,,,,,,,,,,,,,,,,,,,,,,
,,,,,,,,2023-08-16_08h50.42.734,HF_wild_card,2022.2.4,MacIntel,120.0048002,5dbf5fe16849043f135aa2c0,64d2fd46c836a06233681665,64dc7f3e54219764f686de70,,,,,,,,,,,,,,,,,,,,,,,,,,,,,,,,70,Door3,resources/DR.BMP,2,0,2,0,1,,,,,,,,,,,,,,,,,,,,,,,,,
