Condition,Low fixed image (Door1),Low risky image (Door2),High fixed image (Door3),High risky image (Door4),Extreme Wild Card,NonExtreme Wild Card,,date,expName,psychopyVersion,OS,frameRate,PROLIFIC_PID,STUDY_ID,SESSION_ID,mouse_2.x,mouse_2.y,mouse_2.leftButton,mouse_2.midButton,mouse_2.rightButton,mouse_2.clicked_name,Trial Type,Left Option Image,Right Option Image,Chosen Door,mouse.x,mouse.y,mouse.leftButton,mouse.midButton,mouse.rightButton,mouse.time,mouse.clicked_name,Feedback,Cumulative Reward,Block,trial.thisRepN,trial.thisTrialN,trial.thisN,trial.thisIndex,trial.ran,blocks.thisRepN,blocks.thisTrialN,blocks.thisN,blocks.thisIndex,blocks.ran,Money conversion,First Outcome Reported,Shown Door (First Outcome),Displayed Image (First Outcome),outcomes.thisRepN,outcomes.thisTrialN,outcomes.thisN,outcomes.thisIndex,outcomes.ran,judgments.thisRepN,judgments.thisTrialN,judgments.thisN,judgments.thisIndex,judgments.ran,freqMouse.x,freqMouse.y,freqMouse.leftButton,freqMouse.midButton,freqMouse.rightButton,freqMouse.clicked_name,FQJ for first outcome,FQJ for second outcome,Shown Door,Displayed Image,trials.thisRepN,trials.thisTrialN,trials.thisN,trials.thisIndex,trials.ran,judgBlock.thisRepN,judgBlock.thisTrialN,judgBlock.thisN,judgBlock.thisIndex,judgBlock.ran
1,resources/DG.BMP,resources/DBN.BMP,resources/DR.BMP,resources/DP.BMP,resources/DY.BMP,resources/DB.BMP,,2023-08-16_08h49.55.748,HF_wild_card,2022.2.4,Win32,60.07810153,62ed12acf6326dfba8a97280,64d2fd46c836a06233681665,64dc7edfd511e4427e42da1c,,,,,,,,,,,,,,,,,,,,,,,,,,,,,,,,,,,,,,,,,,,,,,,,,,,,,,,,,,,,,,,,
,,,,,,,,2023-08-16_08h49.55.748,HF_wild_card,2022.2.4,Win32,60.07810153,62ed12acf6326dfba8a97280,64d2fd46c836a06233681665,64dc7edfd511e4427e42da1c,0.015740783,-0.419444473,1,0,0,agree,,,,,,,,,,,,,,,,,,,,,,,,,,,,,,,,,,,,,,,,,,,,,,,,,,,,,,,,,,
,,,,,,,,2023-08-16_08h49.55.748,HF_wild_card,2022.2.4,Win32,60.07810153,62ed12acf6326dfba8a97280,64d2fd46c836a06233681665,64dc7edfd511e4427e42da1c,,,,,,,,,,,,,,,,,,,,,,,,,,,,,,,,,,,,,,,,,,,,,,,,,,,,,,,,,,,,,,,,
,,,,,,,,2023-08-16_08h49.55.748,HF_wild_card,2022.2.4,Win32,60.07810153,62ed12acf6326dfba8a97280,64d2fd46c836a06233681665,64dc7edfd511e4427e42da1c,,,,,,,decisionTrl,resources/DB.BMP,resources/DP.BMP,Door4,0.437037009,-0.111111111,1,0,0,2.0697,optionRight,60,60,1,0,0,0,0,1,,,,,,,,,,,,,,,,,,,,,,,,,,,,,,,,,,,,,,,
,,,,,,,,2023-08-16_08h49.55.748,HF_wild_card,2022.2.4,Win32,60.07810153,62ed12acf6326dfba8a97280,64d2fd46c836a06233681665,64dc7edfd511e4427e42da1c,,,,,,,sngl,resources/DB.BMP,resources/Empty.png,WildCard_NonEx,-0.283333319,-0.070370392,1,0,0,3.2709,optionLeft,55,115,1,1,0,1,0,1,,,,,,,,,,,,,,,,,,,,,,,,,,,,,,,,,,,,,,,
,,,,,,,,2023-08-16_08h49.55.748,HF_wild_card,2022.2.4,Win32,60.07810153,62ed12acf6326dfba8a97280,64d2fd46c836a06233681665,64dc7edfd511e4427e42da1c,,,,,,,sngl,resources/Empty.png,resources/DR.BMP,Door3,0.315740797,-0.066666674,1,0,0,1.2307,optionRight,70,185,1,2,0,2,0,1,,,,,,,,,,,,,,,,,,,,,,,,,,,,,,,,,,,,,,,
,,,,,,,,2023-08-16_08h49.55.748,HF_wild_card,2022.2.4,Win32,60.07810153,62ed12acf6326dfba8a97280,64d2fd46c836a06233681665,64dc7edfd511e4427e42da1c,,,,,,,decisionTrl,resources/DP.BMP,resources/DR.BMP,Door4,-0.290740755,-0.010185206,1,0,0,2.3422,optionLeft,80,265,1,3,0,3,0,1,,,,,,,,,,,,,,,,,,,,,,,,,,,,,,,,,,,,,,,
,,,,,,,,2023-08-16_08h49.55.748,HF_wild_card,2022.2.4,Win32,60.07810153,62ed12acf6326dfba8a97280,64d2fd46c836a06233681665,64dc7edfd511e4427e42da1c,,,,,,,decisionTrl,resources/DR.BMP,resources/DP.BMP,Door3,-0.324999986,-0.062962956,1,0,0,1.4109,optionLeft,70,335,1,4,0,4,0,1,,,,,,,,,,,,,,,,,,,,,,,,,,,,,,,,,,,,,,,
,,,,,,,,2023-08-16_08h49.55.748,HF_wild_card,2022.2.4,Win32,60.07810153,62ed12acf6326dfba8a97280,64d2fd46c836a06233681665,64dc7edfd511e4427e42da1c,,,,,,,decisionTrl,resources/DB.BMP,resources/DBN.BMP,Door2,0.359259288,-0.045370384,1,0,0,2.0591,optionRight,40,375,1,5,0,5,0,1,,,,,,,,,,,,,,,,,,,,,,,,,,,,,,,,,,,,,,,
,,,,,,,,2023-08-16_08h49.55.748,HF_wild_card,2022.2.4,Win32,60.07810153,62ed12acf6326dfba8a97280,64d2fd46c836a06233681665,64dc7edfd511e4427e42da1c,,,,,,,decisionTrl,resources/DBN.BMP,resources/DG.BMP,Door1,0.290740755,-0.028703725,1,0,0,1.0928,optionRight,30,405,1,6,0,6,0,1,,,,,,,,,,,,,,,,,,,,,,,,,,,,,,,,,,,,,,,
,,,,,,,,2023-08-16_08h49.55.748,HF_wild_card,2022.2.4,Win32,60.07810153,62ed12acf6326dfba8a97280,64d2fd46c836a06233681665,64dc7edfd511e4427e42da1c,,,,,,,sngl,resources/Empty.png,resources/DB.BMP,WildCard_NonEx,0.32685188,-0.027777778,1,0,0,0.9665,optionRight,45,450,1,7,0,7,0,1,,,,,,,,,,,,,,,,,,,,,,,,,,,,,,,,,,,,,,,
,,,,,,,,2023-08-16_08h49.55.748,HF_wild_card,2022.2.4,Win32,60.07810153,62ed12acf6326dfba8a97280,64d2fd46c836a06233681665,64dc7edfd511e4427e42da1c,,,,,,,decisionTrl,resources/DP.BMP,resources/DB.BMP,Door4,-0.281481496,-0.041666667,1,0,0,0.8208,optionLeft,80,530,1,8,0,8,0,1,,,,,,,,,,,,,,,,,,,,,,,,,,,,,,,,,,,,,,,
,,,,,,,,2023-08-16_08h49.55.748,HF_wild_card,2022.2.4,Win32,60.07810153,62ed12acf6326dfba8a97280,64d2fd46c836a06233681665,64dc7edfd511e4427e42da1c,,,,,,,sngl,resources/Empty.png,resources/DBN.BMP,Door2,0.268518519,-0.017592607,1,0,0,0.9621,optionRight,20,550,1,9,0,9,0,1,,,,,,,,,,,,,,,,,,,,,,,,,,,,,,,,,,,,,,,
,,,,,,,,2023-08-16_08h49.55.748,HF_wild_card,2022.2.4,Win32,60.07810153,62ed12acf6326dfba8a97280,64d2fd46c836a06233681665,64dc7edfd511e4427e42da1c,,,,,,,decisionTrl,resources/DR.BMP,resources/DP.BMP,Door4,0.231481481,-0.042592614,1,0,0,1.2862,optionRight,60,610,1,10,0,10,0,1,,,,,,,,,,,,,,,,,,,,,,,,,,,,,,,,,,,,,,,
,,,,,,,,2023-08-16_08h49.55.748,HF_wild_card,2022.2.4,Win32,60.07810153,62ed12acf6326dfba8a97280,64d2fd46c836a06233681665,64dc7edfd511e4427e42da1c,,,,,,,decisionTrl,resources/DBN.BMP,resources/DG.BMP,Door2,-0.301851838,-0.027777778,1,0,0,0.8783,optionLeft,40,650,1,11,0,11,0,1,,,,,,,,,,,,,,,,,,,,,,,,,,,,,,,,,,,,,,,
,,,,,,,,2023-08-16_08h49.55.748,HF_wild_card,2022.2.4,Win32,60.07810153,62ed12acf6326dfba8a97280,64d2fd46c836a06233681665,64dc7edfd511e4427e42da1c,,,,,,,sngl,resources/Empty.png,resources/DG.BMP,Door1,0.414814843,-0.001851859,1,0,0,0.7876,optionRight,30,680,1,12,0,12,0,1,,,,,,,,,,,,,,,,,,,,,,,,,,,,,,,,,,,,,,,
,,,,,,,,2023-08-16_08h49.55.748,HF_wild_card,2022.2.4,Win32,60.07810153,62ed12acf6326dfba8a97280,64d2fd46c836a06233681665,64dc7edfd511e4427e42da1c,,,,,,,decisionTrl,resources/DBN.BMP,resources/DB.BMP,WildCard_NonEx,0.335185157,-0.048148155,1,0,0,1.1946,optionRight,45,725,1,13,0,13,0,1,,,,,,,,,,,,,,,,,,,,,,,,,,,,,,,,,,,,,,,
,,,,,,,,2023-08-16_08h49.55.748,HF_wild_card,2022.2.4,Win32,60.07810153,62ed12acf6326dfba8a97280,64d2fd46c836a06233681665,64dc7edfd511e4427e42da1c,,,,,,,ctch,resources/DG.BMP,resources/DP.BMP,Door1,-0.324074074,-0.034259266,1,0,0,0.8526,optionLeft,30,755,1,14,0,14,0,1,,,,,,,,,,,,,,,,,,,,,,,,,,,,,,,,,,,,,,,
,,,,,,,,2023-08-16_08h49.55.748,HF_wild_card,2022.2.4,Win32,60.07810153,62ed12acf6326dfba8a97280,64d2fd46c836a06233681665,64dc7edfd511e4427e42da1c,,,,,,,sngl,resources/Empty.png,resources/DP.BMP,Door4,0.398148148,-0.042592614,1,0,0,0.778,optionRight,60,815,1,15,0,15,0,1,,,,,,,,,,,,,,,,,,,,,,,,,,,,,,,,,,,,,,,
,,,,,,,,2023-08-16_08h49.55.748,HF_wild_card,2022.2.4,Win32,60.07810153,62ed12acf6326dfba8a97280,64d2fd46c836a06233681665,64dc7edfd511e4427e42da1c,,,,,,,ctch,resources/DR.BMP,resources/DBN.BMP,Door3,-0.268518519,-0.021296289,1,0,0,1.3777,optionLeft,70,885,1,16,0,16,0,1,,,,,,,,,,,,,,,,,,,,,,,,,,,,,,,,,,,,,,,
,,,,,,,,2023-08-16_08h49.55.748,HF_wild_card,2022.2.4,Win32,60.07810153,62ed12acf6326dfba8a97280,64d2fd46c836a06233681665,64dc7edfd511e4427e42da1c,,,,,,,decisionTrl,resources/DG.BMP,resources/DBN.BMP,Door1,-0.302777785,-0.0074074,1,0,0,0.9549,optionLeft,30,915,1,17,0,17,0,1,,,,,,,,,,,,,,,,,,,,,,,,,,,,,,,,,,,,,,,
,,,,,,,,2023-08-16_08h49.55.748,HF_wild_card,2022.2.4,Win32,60.07810153,62ed12acf6326dfba8a97280,64d2fd46c836a06233681665,64dc7edfd511e4427e42da1c,,,,,,,decisionTrl,resources/DB.BMP,resources/DR.BMP,WildCard_NonEx,-0.377777771,-0.0074074,1,0,0,1.1449,optionLeft,55,970,1,18,0,18,0,1,,,,,,,,,,,,,,,,,,,,,,,,,,,,,,,,,,,,,,,
,,,,,,,,2023-08-16_08h49.55.748,HF_wild_card,2022.2.4,Win32,60.07810153,62ed12acf6326dfba8a97280,64d2fd46c836a06233681665,64dc7edfd511e4427e42da1c,,,,,,,decisionTrl,resources/DR.BMP,resources/DP.BMP,Door4,0.417592649,-0.070370392,1,0,0,0.714,optionRight,60,1030,1,19,0,19,0,1,,,,,,,,,,,,,,,,,,,,,,,,,,,,,,,,,,,,,,,
,,,,,,,,2023-08-16_08h49.55.748,HF_wild_card,2022.2.4,Win32,60.07810153,62ed12acf6326dfba8a97280,64d2fd46c836a06233681665,64dc7edfd511e4427e42da1c,,,,,,,ctch,resources/DBN.BMP,resources/DR.BMP,Door2,-0.37962963,-0.039814808,1,0,0,0.7789,optionLeft,20,1050,1,20,0,20,0,1,,,,,,,,,,,,,,,,,,,,,,,,,,,,,,,,,,,,,,,
,,,,,,,,2023-08-16_08h49.55.748,HF_wild_card,2022.2.4,Win32,60.07810153,62ed12acf6326dfba8a97280,64d2fd46c836a06233681665,64dc7edfd511e4427e42da1c,,,,,,,ctch,resources/DP.BMP,resources/DG.BMP,Door1,0.308333362,-0.040740755,1,0,0,0.7117,optionRight,30,1080,1,21,0,21,0,1,,,,,,,,,,,,,,,,,,,,,,,,,,,,,,,,,,,,,,,
,,,,,,,,2023-08-16_08h49.55.748,HF_wild_card,2022.2.4,Win32,60.07810153,62ed12acf6326dfba8a97280,64d2fd46c836a06233681665,64dc7edfd511e4427e42da1c,,,,,,,decisionTrl,resources/DR.BMP,resources/DB.BMP,Door3,-0.385185171,0.044444437,1,0,0,0.6583,optionLeft,70,1150,1,22,0,22,0,1,,,,,,,,,,,,,,,,,,,,,,,,,,,,,,,,,,,,,,,
,,,,,,,,2023-08-16_08h49.55.748,HF_wild_card,2022.2.4,Win32,60.07810153,62ed12acf6326dfba8a97280,64d2fd46c836a06233681665,64dc7edfd511e4427e42da1c,,,,,,,decisionTrl,resources/DG.BMP,resources/DB.BMP,Door1,-0.328703704,-0.003703718,1,0,0,0.995,optionLeft,30,1180,1,23,0,23,0,1,,,,,,,,,,,,,,,,,,,,,,,,,,,,,,,,,,,,,,,
,,,,,,,,2023-08-16_08h49.55.748,HF_wild_card,2022.2.4,Win32,60.07810153,62ed12acf6326dfba8a97280,64d2fd46c836a06233681665,64dc7edfd511e4427e42da1c,,,,,,,decisionTrl,resources/DP.BMP,resources/DR.BMP,Door4,-0.247222194,-0.037962984,1,0,0,0.8042,optionLeft,60,1240,1,24,0,24,0,1,,,,,,,,,,,,,,,,,,,,,,,,,,,,,,,,,,,,,,,
,,,,,,,,2023-08-16_08h49.55.748,HF_wild_card,2022.2.4,Win32,60.07810153,62ed12acf6326dfba8a97280,64d2fd46c836a06233681665,64dc7edfd511e4427e42da1c,,,,,,,sngl,resources/DP.BMP,resources/Empty.png,Door4,-0.287037037,-0.028703725,1,0,0,0.7455,optionLeft,80,1320,1,25,0,25,0,1,,,,,,,,,,,,,,,,,,,,,,,,,,,,,,,,,,,,,,,
,,,,,,,,2023-08-16_08h49.55.748,HF_wild_card,2022.2.4,Win32,60.07810153,62ed12acf6326dfba8a97280,64d2fd46c836a06233681665,64dc7edfd511e4427e42da1c,,,,,,,decisionTrl,resources/DG.BMP,resources/DBN.BMP,Door1,-0.244444459,-0.003703718,1,0,0,0.7461,optionLeft,30,1350,1,26,0,26,0,1,,,,,,,,,,,,,,,,,,,,,,,,,,,,,,,,,,,,,,,
,,,,,,,,2023-08-16_08h49.55.748,HF_wild_card,2022.2.4,Win32,60.07810153,62ed12acf6326dfba8a97280,64d2fd46c836a06233681665,64dc7edfd511e4427e42da1c,,,,,,,sngl,resources/DR.BMP,resources/Empty.png,Door3,-0.357407393,0.023148148,1,0,0,0.7718,optionLeft,70,1420,1,27,0,27,0,1,,,,,,,,,,,,,,,,,,,,,,,,,,,,,,,,,,,,,,,
,,,,,,,,2023-08-16_08h49.55.748,HF_wild_card,2022.2.4,Win32,60.07810153,62ed12acf6326dfba8a97280,64d2fd46c836a06233681665,64dc7edfd511e4427e42da1c,,,,,,,ctch,resources/DBN.BMP,resources/DR.BMP,Door3,0.374074159,-0.052777785,1,0,0,1.1773,optionRight,70,1490,1,28,0,28,0,1,,,,,,,,,,,,,,,,,,,,,,,,,,,,,,,,,,,,,,,
,,,,,,,,2023-08-16_08h49.55.748,HF_wild_card,2022.2.4,Win32,60.07810153,62ed12acf6326dfba8a97280,64d2fd46c836a06233681665,64dc7edfd511e4427e42da1c,,,,,,,sngl,resources/DG.BMP,resources/Empty.png,Door1,-0.416666667,-0.072222215,1,0,0,0.7608,optionLeft,30,1520,1,29,0,29,0,1,,,,,,,,,,,,,,,,,,,,,,,,,,,,,,,,,,,,,,,
,,,,,,,,2023-08-16_08h49.55.748,HF_wild_card,2022.2.4,Win32,60.07810153,62ed12acf6326dfba8a97280,64d2fd46c836a06233681665,64dc7edfd511e4427e42da1c,,,,,,,sngl,resources/Empty.png,resources/DB.BMP,WildCard_NonEx,0.380555612,-0.046296296,1,0,0,0.7036,optionRight,55,1575,1,30,0,30,0,1,,,,,,,,,,,,,,,,,,,,,,,,,,,,,,,,,,,,,,,
,,,,,,,,2023-08-16_08h49.55.748,HF_wild_card,2022.2.4,Win32,60.07810153,62ed12acf6326dfba8a97280,64d2fd46c836a06233681665,64dc7edfd511e4427e42da1c,,,,,,,sngl,resources/DBN.BMP,resources/Empty.png,Door2,-0.267592607,-0.021296289,1,0,0,0.8365,optionLeft,40,1615,1,31,0,31,0,1,,,,,,,,,,,,,,,,,,,,,,,,,,,,,,,,,,,,,,,
,,,,,,,,2023-08-16_08h49.55.748,HF_wild_card,2022.2.4,Win32,60.07810153,62ed12acf6326dfba8a97280,64d2fd46c836a06233681665,64dc7edfd511e4427e42da1c,,,,,,,decisionTrl,resources/DP.BMP,resources/DR.BMP,Door4,-0.202777792,0.012962942,1,0,0,0.9345,optionLeft,60,1675,1,32,0,32,0,1,,,,,,,,,,,,,,,,,,,,,,,,,,,,,,,,,,,,,,,
,,,,,,,,2023-08-16_08h49.55.748,HF_wild_card,2022.2.4,Win32,60.07810153,62ed12acf6326dfba8a97280,64d2fd46c836a06233681665,64dc7edfd511e4427e42da1c,,,,,,,decisionTrl,resources/DBN.BMP,resources/DG.BMP,Door1,0.333333333,-0.025000007,1,0,0,1.0866,optionRight,30,1705,1,33,0,33,0,1,,,,,,,,,,,,,,,,,,,,,,,,,,,,,,,,,,,,,,,
,,,,,,,,2023-08-16_08h49.55.748,HF_wild_card,2022.2.4,Win32,60.07810153,62ed12acf6326dfba8a97280,64d2fd46c836a06233681665,64dc7edfd511e4427e42da1c,,,,,,,decisionTrl,resources/DB.BMP,resources/DG.BMP,WildCard_NonEx,-0.347222222,0.025925919,1,0,0,0.7447,optionLeft,45,1750,1,34,0,34,0,1,,,,,,,,,,,,,,,,,,,,,,,,,,,,,,,,,,,,,,,
,,,,,,,,2023-08-16_08h49.55.748,HF_wild_card,2022.2.4,Win32,60.07810153,62ed12acf6326dfba8a97280,64d2fd46c836a06233681665,64dc7edfd511e4427e42da1c,,,,,,,ctch,resources/DR.BMP,resources/DBN.BMP,Door3,-0.338888875,-0.037037037,1,0,0,0.845,optionLeft,70,1820,1,35,0,35,0,1,,,,,,,,,,,,,,,,,,,,,,,,,,,,,,,,,,,,,,,
,,,,,,,,2023-08-16_08h49.55.748,HF_wild_card,2022.2.4,Win32,60.07810153,62ed12acf6326dfba8a97280,64d2fd46c836a06233681665,64dc7edfd511e4427e42da1c,,,,,,,ctch,resources/DG.BMP,resources/DP.BMP,Door4,0.375,0.000925912,1,0,0,1.0947,optionRight,60,1880,1,36,0,36,0,1,,,,,,,,,,,,,,,,,,,,,,,,,,,,,,,,,,,,,,,
,,,,,,,,2023-08-16_08h49.55.748,HF_wild_card,2022.2.4,Win32,60.07810153,62ed12acf6326dfba8a97280,64d2fd46c836a06233681665,64dc7edfd511e4427e42da1c,,,,,,,decisionTrl,resources/DP.BMP,resources/DR.BMP,Door4,-0.208333333,0.012962942,1,0,0,0.8348,optionLeft,80,1960,1,37,0,37,0,1,,,,,,,,,,,,,,,,,,,,,,,,,,,,,,,,,,,,,,,
,,,,,,,,2023-08-16_08h49.55.748,HF_wild_card,2022.2.4,Win32,60.07810153,62ed12acf6326dfba8a97280,64d2fd46c836a06233681665,64dc7edfd511e4427e42da1c,,,,,,,decisionTrl,resources/DG.BMP,resources/DBN.BMP,Door1,-0.158333319,0.023148148,1,0,0,0.853,optionLeft,30,1990,1,38,0,38,0,1,,,,,,,,,,,,,,,,,,,,,,,,,,,,,,,,,,,,,,,
,,,,,,,,2023-08-16_08h49.55.748,HF_wild_card,2022.2.4,Win32,60.07810153,62ed12acf6326dfba8a97280,64d2fd46c836a06233681665,64dc7edfd511e4427e42da1c,,,,,,,decisionTrl,resources/DBN.BMP,resources/DG.BMP,Door1,0.289814843,-0.027777778,1,0,0,1.1759,optionRight,30,2020,1,39,0,39,0,1,,,,,,,,,,,,,,,,,,,,,,,,,,,,,,,,,,,,,,,
,,,,,,,,2023-08-16_08h49.55.748,HF_wild_card,2022.2.4,Win32,60.07810153,62ed12acf6326dfba8a97280,64d2fd46c836a06233681665,64dc7edfd511e4427e42da1c,,,,,,,decisionTrl,resources/DG.BMP,resources/DBN.BMP,Door1,-0.242592564,-0.000925947,1,0,0,0.6784,optionLeft,30,2050,1,40,0,40,0,1,,,,,,,,,,,,,,,,,,,,,,,,,,,,,,,,,,,,,,,
,,,,,,,,2023-08-16_08h49.55.748,HF_wild_card,2022.2.4,Win32,60.07810153,62ed12acf6326dfba8a97280,64d2fd46c836a06233681665,64dc7edfd511e4427e42da1c,,,,,,,ctch,resources/DP.BMP,resources/DG.BMP,Door4,-0.259259259,-0.018518519,1,0,0,0.8052,optionLeft,80,2130,1,41,0,41,0,1,,,,,,,,,,,,,,,,,,,,,,,,,,,,,,,,,,,,,,,
,,,,,,,,2023-08-16_08h49.55.748,HF_wild_card,2022.2.4,Win32,60.07810153,62ed12acf6326dfba8a97280,64d2fd46c836a06233681665,64dc7edfd511e4427e42da1c,,,,,,,sngl,resources/DB.BMP,resources/Empty.png,WildCard_NonEx,-0.326851845,-0.040740755,1,0,0,0.8209,optionLeft,45,2175,1,42,0,42,0,1,,,,,,,,,,,,,,,,,,,,,,,,,,,,,,,,,,,,,,,
,,,,,,,,2023-08-16_08h49.55.748,HF_wild_card,2022.2.4,Win32,60.07810153,62ed12acf6326dfba8a97280,64d2fd46c836a06233681665,64dc7edfd511e4427e42da1c,,,,,,,decisionTrl,resources/DR.BMP,resources/DP.BMP,Door4,0.374074159,-0.038888896,1,0,0,1.0297,optionRight,80,2255,1,43,0,43,0,1,,,,,,,,,,,,,,,,,,,,,,,,,,,,,,,,,,,,,,,
,,,,,,,,2023-08-16_08h49.55.748,HF_wild_card,2022.2.4,Win32,60.07810153,62ed12acf6326dfba8a97280,64d2fd46c836a06233681665,64dc7edfd511e4427e42da1c,,,,,,,,,,,,,,,,,,,,,,,,,,0,0,0,0,1,,,,,,,,,,,,,,,,,,,,,,,,,,,,,,,,,,
,,,,,,,,2023-08-16_08h49.55.748,HF_wild_card,2022.2.4,Win32,60.07810153,62ed12acf6326dfba8a97280,64d2fd46c836a06233681665,64dc7edfd511e4427e42da1c,,,,,,,decisionTrl,resources/DBN.BMP,resources/DG.BMP,Door1,0.327777863,-0.125925912,1,0,0,1.8987,optionRight,30,2285,2,0,0,0,0,1,,,,,,,,,,,,,,,,,,,,,,,,,,,,,,,,,,,,,,,
,,,,,,,,2023-08-16_08h49.55.748,HF_wild_card,2022.2.4,Win32,60.07810153,62ed12acf6326dfba8a97280,64d2fd46c836a06233681665,64dc7edfd511e4427e42da1c,,,,,,,decisionTrl,resources/DP.BMP,resources/DR.BMP,Door4,-0.304629608,-0.087037051,1,0,0,0.8622,optionLeft,80,2365,2,1,0,1,0,1,,,,,,,,,,,,,,,,,,,,,,,,,,,,,,,,,,,,,,,
,,,,,,,,2023-08-16_08h49.55.748,HF_wild_card,2022.2.4,Win32,60.07810153,62ed12acf6326dfba8a97280,64d2fd46c836a06233681665,64dc7edfd511e4427e42da1c,,,,,,,decisionTrl,resources/DG.BMP,resources/DBN.BMP,Door1,-0.262036995,0.015740748,1,0,0,1.1118,optionLeft,30,2395,2,2,0,2,0,1,,,,,,,,,,,,,,,,,,,,,,,,,,,,,,,,,,,,,,,
,,,,,,,,2023-08-16_08h49.55.748,HF_wild_card,2022.2.4,Win32,60.07810153,62ed12acf6326dfba8a97280,64d2fd46c836a06233681665,64dc7edfd511e4427e42da1c,,,,,,,decisionTrl,resources/DB.BMP,resources/DP.BMP,Door4,0.40370376,0.00462963,1,0,0,0.8774,optionRight,60,2455,2,3,0,3,0,1,,,,,,,,,,,,,,,,,,,,,,,,,,,,,,,,,,,,,,,
,,,,,,,,2023-08-16_08h49.55.748,HF_wild_card,2022.2.4,Win32,60.07810153,62ed12acf6326dfba8a97280,64d2fd46c836a06233681665,64dc7edfd511e4427e42da1c,,,,,,,ctch,resources/DR.BMP,resources/DBN.BMP,Door3,-0.294444402,-0.01203703,1,0,0,0.8795,optionLeft,70,2525,2,4,0,4,0,1,,,,,,,,,,,,,,,,,,,,,,,,,,,,,,,,,,,,,,,
,,,,,,,,2023-08-16_08h49.55.748,HF_wild_card,2022.2.4,Win32,60.07810153,62ed12acf6326dfba8a97280,64d2fd46c836a06233681665,64dc7edfd511e4427e42da1c,,,,,,,decisionTrl,resources/DG.BMP,resources/DBN.BMP,Door2,0.26944443,-0.036111125,1,0,0,0.7794,optionRight,40,2565,2,5,0,5,0,1,,,,,,,,,,,,,,,,,,,,,,,,,,,,,,,,,,,,,,,
,,,,,,,,2023-08-16_08h49.55.748,HF_wild_card,2022.2.4,Win32,60.07810153,62ed12acf6326dfba8a97280,64d2fd46c836a06233681665,64dc7edfd511e4427e42da1c,,,,,,,ctch,resources/DBN.BMP,resources/DR.BMP,Door2,-0.301851838,-0.00462963,1,0,0,0.779,optionLeft,20,2585,2,6,0,6,0,1,,,,,,,,,,,,,,,,,,,,,,,,,,,,,,,,,,,,,,,
,,,,,,,,2023-08-16_08h49.55.748,HF_wild_card,2022.2.4,Win32,60.07810153,62ed12acf6326dfba8a97280,64d2fd46c836a06233681665,64dc7edfd511e4427e42da1c,,,,,,,sngl,resources/DP.BMP,resources/Empty.png,Door4,-0.340740734,-0.029629637,1,0,0,0.9181,optionLeft,60,2645,2,7,0,7,0,1,,,,,,,,,,,,,,,,,,,,,,,,,,,,,,,,,,,,,,,
,,,,,,,,2023-08-16_08h49.55.748,HF_wild_card,2022.2.4,Win32,60.07810153,62ed12acf6326dfba8a97280,64d2fd46c836a06233681665,64dc7edfd511e4427e42da1c,,,,,,,sngl,resources/Empty.png,resources/DR.BMP,Door3,0.330555527,0.001851859,1,0,0,0.8457,optionRight,70,2715,2,8,0,8,0,1,,,,,,,,,,,,,,,,,,,,,,,,,,,,,,,,,,,,,,,
,,,,,,,,2023-08-16_08h49.55.748,HF_wild_card,2022.2.4,Win32,60.07810153,62ed12acf6326dfba8a97280,64d2fd46c836a06233681665,64dc7edfd511e4427e42da1c,,,,,,,decisionTrl,resources/DP.BMP,resources/DR.BMP,Door4,-0.323148127,-0.023148148,1,0,0,0.7794,optionLeft,80,2795,2,9,0,9,0,1,,,,,,,,,,,,,,,,,,,,,,,,,,,,,,,,,,,,,,,
,,,,,,,,2023-08-16_08h49.55.748,HF_wild_card,2022.2.4,Win32,60.07810153,62ed12acf6326dfba8a97280,64d2fd46c836a06233681665,64dc7edfd511e4427e42da1c,,,,,,,decisionTrl,resources/DP.BMP,resources/DR.BMP,Door4,-0.287962949,-0.029629637,1,0,0,0.7325,optionLeft,60,2855,2,10,0,10,0,1,,,,,,,,,,,,,,,,,,,,,,,,,,,,,,,,,,,,,,,
,,,,,,,,2023-08-16_08h49.55.748,HF_wild_card,2022.2.4,Win32,60.07810153,62ed12acf6326dfba8a97280,64d2fd46c836a06233681665,64dc7edfd511e4427e42da1c,,,,,,,sngl,resources/DB.BMP,resources/Empty.png,WildCard_NonEx,-0.253703718,-0.014814836,1,0,0,0.7349,optionLeft,55,2910,2,11,0,11,0,1,,,,,,,,,,,,,,,,,,,,,,,,,,,,,,,,,,,,,,,
,,,,,,,,2023-08-16_08h49.55.748,HF_wild_card,2022.2.4,Win32,60.07810153,62ed12acf6326dfba8a97280,64d2fd46c836a06233681665,64dc7edfd511e4427e42da1c,,,,,,,sngl,resources/Empty.png,resources/DG.BMP,Door1,0.375925982,-0.000925947,1,0,0,0.9807,optionRight,30,2940,2,12,0,12,0,1,,,,,,,,,,,,,,,,,,,,,,,,,,,,,,,,,,,,,,,
,,,,,,,,2023-08-16_08h49.55.748,HF_wild_card,2022.2.4,Win32,60.07810153,62ed12acf6326dfba8a97280,64d2fd46c836a06233681665,64dc7edfd511e4427e42da1c,,,,,,,decisionTrl,resources/DR.BMP,resources/DB.BMP,Door3,-0.26944443,-0.041666667,1,0,0,0.7656,optionLeft,70,3010,2,13,0,13,0,1,,,,,,,,,,,,,,,,,,,,,,,,,,,,,,,,,,,,,,,
,,,,,,,,2023-08-16_08h49.55.748,HF_wild_card,2022.2.4,Win32,60.07810153,62ed12acf6326dfba8a97280,64d2fd46c836a06233681665,64dc7edfd511e4427e42da1c,,,,,,,decisionTrl,resources/DBN.BMP,resources/DG.BMP,Door1,0.301851908,-0.019444466,1,0,0,1.4149,optionRight,30,3040,2,14,0,14,0,1,,,,,,,,,,,,,,,,,,,,,,,,,,,,,,,,,,,,,,,
,,,,,,,,2023-08-16_08h49.55.748,HF_wild_card,2022.2.4,Win32,60.07810153,62ed12acf6326dfba8a97280,64d2fd46c836a06233681665,64dc7edfd511e4427e42da1c,,,,,,,decisionTrl,resources/DP.BMP,resources/DR.BMP,Door4,-0.244444459,-0.003703718,1,0,0,0.9032,optionLeft,80,3120,2,15,0,15,0,1,,,,,,,,,,,,,,,,,,,,,,,,,,,,,,,,,,,,,,,
,,,,,,,,2023-08-16_08h49.55.748,HF_wild_card,2022.2.4,Win32,60.07810153,62ed12acf6326dfba8a97280,64d2fd46c836a06233681665,64dc7edfd511e4427e42da1c,,,,,,,decisionTrl,resources/DB.BMP,resources/DG.BMP,WildCard_NonEx,-0.268518519,-0.008333347,1,0,0,0.7194,optionLeft,45,3165,2,16,0,16,0,1,,,,,,,,,,,,,,,,,,,,,,,,,,,,,,,,,,,,,,,
,,,,,,,,2023-08-16_08h49.55.748,HF_wild_card,2022.2.4,Win32,60.07810153,62ed12acf6326dfba8a97280,64d2fd46c836a06233681665,64dc7edfd511e4427e42da1c,,,,,,,sngl,resources/DB.BMP,resources/Empty.png,WildCard_NonEx,-0.342592593,-0.011111118,1,0,0,0.8449,optionLeft,45,3210,2,17,0,17,0,1,,,,,,,,,,,,,,,,,,,,,,,,,,,,,,,,,,,,,,,
,,,,,,,,2023-08-16_08h49.55.748,HF_wild_card,2022.2.4,Win32,60.07810153,62ed12acf6326dfba8a97280,64d2fd46c836a06233681665,64dc7edfd511e4427e42da1c,,,,,,,sngl,resources/Empty.png,resources/DB.BMP,WildCard_NonEx,0.199074074,-0.077777792,1,0,0,0.8111,optionRight,45,3255,2,18,0,18,0,1,,,,,,,,,,,,,,,,,,,,,,,,,,,,,,,,,,,,,,,
,,,,,,,,2023-08-16_08h49.55.748,HF_wild_card,2022.2.4,Win32,60.07810153,62ed12acf6326dfba8a97280,64d2fd46c836a06233681665,64dc7edfd511e4427e42da1c,,,,,,,decisionTrl,resources/DR.BMP,resources/DP.BMP,Door3,-0.252777735,-0.006481489,1,0,0,0.7613,optionLeft,70,3325,2,19,0,19,0,1,,,,,,,,,,,,,,,,,,,,,,,,,,,,,,,,,,,,,,,
,,,,,,,,2023-08-16_08h49.55.748,HF_wild_card,2022.2.4,Win32,60.07810153,62ed12acf6326dfba8a97280,64d2fd46c836a06233681665,64dc7edfd511e4427e42da1c,,,,,,,decisionTrl,resources/DBN.BMP,resources/DG.BMP,Door1,0.284259302,-0.009259259,1,0,0,0.8385,optionRight,30,3355,2,20,0,20,0,1,,,,,,,,,,,,,,,,,,,,,,,,,,,,,,,,,,,,,,,
,,,,,,,,2023-08-16_08h49.55.748,HF_wild_card,2022.2.4,Win32,60.07810153,62ed12acf6326dfba8a97280,64d2fd46c836a06233681665,64dc7edfd511e4427e42da1c,,,,,,,decisionTrl,resources/DR.BMP,resources/DP.BMP,Door4,0.356481481,-0.002777771,1,0,0,0.9602,optionRight,60,3415,2,21,0,21,0,1,,,,,,,,,,,,,,,,,,,,,,,,,,,,,,,,,,,,,,,
,,,,,,,,2023-08-16_08h49.55.748,HF_wild_card,2022.2.4,Win32,60.07810153,62ed12acf6326dfba8a97280,64d2fd46c836a06233681665,64dc7edfd511e4427e42da1c,,,,,,,ctch,resources/DG.BMP,resources/DP.BMP,Door4,0.409259231,-0.010185206,1,0,0,0.9274,optionRight,80,3495,2,22,0,22,0,1,,,,,,,,,,,,,,,,,,,,,,,,,,,,,,,,,,,,,,,
,,,,,,,,2023-08-16_08h49.55.748,HF_wild_card,2022.2.4,Win32,60.07810153,62ed12acf6326dfba8a97280,64d2fd46c836a06233681665,64dc7edfd511e4427e42da1c,,,,,,,sngl,resources/Empty.png,resources/DB.BMP,WildCard_NonEx,0.353703675,-0.028703725,1,0,0,0.7791,optionRight,55,3550,2,23,0,23,0,1,,,,,,,,,,,,,,,,,,,,,,,,,,,,,,,,,,,,,,,
,,,,,,,,2023-08-16_08h49.55.748,HF_wild_card,2022.2.4,Win32,60.07810153,62ed12acf6326dfba8a97280,64d2fd46c836a06233681665,64dc7edfd511e4427e42da1c,,,,,,,decisionTrl,resources/DG.BMP,resources/DB.BMP,WildCard_NonEx,0.337037122,0.014814801,1,0,0,1.0691,optionRight,45,3595,2,24,0,24,0,1,,,,,,,,,,,,,,,,,,,,,,,,,,,,,,,,,,,,,,,
,,,,,,,,2023-08-16_08h49.55.748,HF_wild_card,2022.2.4,Win32,60.07810153,62ed12acf6326dfba8a97280,64d2fd46c836a06233681665,64dc7edfd511e4427e42da1c,,,,,,,decisionTrl,resources/DG.BMP,resources/DBN.BMP,Door1,-0.302777785,-0.000925947,1,0,0,0.8158,optionLeft,30,3625,2,25,0,25,0,1,,,,,,,,,,,,,,,,,,,,,,,,,,,,,,,,,,,,,,,
,,,,,,,,2023-08-16_08h49.55.748,HF_wild_card,2022.2.4,Win32,60.07810153,62ed12acf6326dfba8a97280,64d2fd46c836a06233681665,64dc7edfd511e4427e42da1c,,,,,,,ctch,resources/DP.BMP,resources/DG.BMP,Door1,0.257407436,-0.054629644,1,0,0,0.7617,optionRight,30,3655,2,26,0,26,0,1,,,,,,,,,,,,,,,,,,,,,,,,,,,,,,,,,,,,,,,
,,,,,,,,2023-08-16_08h49.55.748,HF_wild_card,2022.2.4,Win32,60.07810153,62ed12acf6326dfba8a97280,64d2fd46c836a06233681665,64dc7edfd511e4427e42da1c,,,,,,,decisionTrl,resources/DR.BMP,resources/DP.BMP,Door3,-0.365740741,-0.01666666,1,0,0,0.6341,optionLeft,70,3725,2,27,0,27,0,1,,,,,,,,,,,,,,,,,,,,,,,,,,,,,,,,,,,,,,,
,,,,,,,,2023-08-16_08h49.55.748,HF_wild_card,2022.2.4,Win32,60.07810153,62ed12acf6326dfba8a97280,64d2fd46c836a06233681665,64dc7edfd511e4427e42da1c,,,,,,,decisionTrl,resources/DBN.BMP,resources/DG.BMP,Door2,-0.357407393,0.020370377,1,0,0,1.0863,optionLeft,40,3765,2,28,0,28,0,1,,,,,,,,,,,,,,,,,,,,,,,,,,,,,,,,,,,,,,,
,,,,,,,,2023-08-16_08h49.55.748,HF_wild_card,2022.2.4,Win32,60.07810153,62ed12acf6326dfba8a97280,64d2fd46c836a06233681665,64dc7edfd511e4427e42da1c,,,,,,,sngl,resources/Empty.png,resources/DP.BMP,Door4,0.337962963,-0.034259266,1,0,0,0.7851,optionRight,80,3845,2,29,0,29,0,1,,,,,,,,,,,,,,,,,,,,,,,,,,,,,,,,,,,,,,,
,,,,,,,,2023-08-16_08h49.55.748,HF_wild_card,2022.2.4,Win32,60.07810153,62ed12acf6326dfba8a97280,64d2fd46c836a06233681665,64dc7edfd511e4427e42da1c,,,,,,,ctch,resources/DBN.BMP,resources/DR.BMP,Door3,0.297222279,-0.116666653,1,0,0,1.0809,optionRight,70,3915,2,30,0,30,0,1,,,,,,,,,,,,,,,,,,,,,,,,,,,,,,,,,,,,,,,
,,,,,,,,2023-08-16_08h49.55.748,HF_wild_card,2022.2.4,Win32,60.07810153,62ed12acf6326dfba8a97280,64d2fd46c836a06233681665,64dc7edfd511e4427e42da1c,,,,,,,sngl,resources/DG.BMP,resources/Empty.png,Door1,-0.263888889,-0.01203703,1,0,0,0.7304,optionLeft,30,3945,2,31,0,31,0,1,,,,,,,,,,,,,,,,,,,,,,,,,,,,,,,,,,,,,,,
,,,,,,,,2023-08-16_08h49.55.748,HF_wild_card,2022.2.4,Win32,60.07810153,62ed12acf6326dfba8a97280,64d2fd46c836a06233681665,64dc7edfd511e4427e42da1c,,,,,,,sngl,resources/DR.BMP,resources/Empty.png,Door3,-0.375925912,-0.01666666,1,0,0,0.7212,optionLeft,70,4015,2,32,0,32,0,1,,,,,,,,,,,,,,,,,,,,,,,,,,,,,,,,,,,,,,,
,,,,,,,,2023-08-16_08h49.55.748,HF_wild_card,2022.2.4,Win32,60.07810153,62ed12acf6326dfba8a97280,64d2fd46c836a06233681665,64dc7edfd511e4427e42da1c,,,,,,,ctch,resources/DG.BMP,resources/DP.BMP,Door4,0.375925982,-0.018518519,1,0,0,1.0044,optionRight,60,4075,2,33,0,33,0,1,,,,,,,,,,,,,,,,,,,,,,,,,,,,,,,,,,,,,,,
,,,,,,,,2023-08-16_08h49.55.748,HF_wild_card,2022.2.4,Win32,60.07810153,62ed12acf6326dfba8a97280,64d2fd46c836a06233681665,64dc7edfd511e4427e42da1c,,,,,,,decisionTrl,resources/DBN.BMP,resources/DB.BMP,WildCard_NonEx,0.242592635,-0.026851866,1,0,0,1.7167,optionRight,45,4120,2,34,0,34,0,1,,,,,,,,,,,,,,,,,,,,,,,,,,,,,,,,,,,,,,,
,,,,,,,,2023-08-16_08h49.55.748,HF_wild_card,2022.2.4,Win32,60.07810153,62ed12acf6326dfba8a97280,64d2fd46c836a06233681665,64dc7edfd511e4427e42da1c,,,,,,,decisionTrl,resources/DR.BMP,resources/DP.BMP,Door4,0.320370427,-0.050925926,1,0,0,1.086,optionRight,80,4200,2,35,0,35,0,1,,,,,,,,,,,,,,,,,,,,,,,,,,,,,,,,,,,,,,,
,,,,,,,,2023-08-16_08h49.55.748,HF_wild_card,2022.2.4,Win32,60.07810153,62ed12acf6326dfba8a97280,64d2fd46c836a06233681665,64dc7edfd511e4427e42da1c,,,,,,,decisionTrl,resources/DG.BMP,resources/DBN.BMP,Door2,0.204629616,-0.006481489,1,0,0,1.5363,optionRight,40,4240,2,36,0,36,0,1,,,,,,,,,,,,,,,,,,,,,,,,,,,,,,,,,,,,,,,
,,,,,,,,2023-08-16_08h49.55.748,HF_wild_card,2022.2.4,Win32,60.07810153,62ed12acf6326dfba8a97280,64d2fd46c836a06233681665,64dc7edfd511e4427e42da1c,,,,,,,ctch,resources/DR.BMP,resources/DBN.BMP,Door2,0.281481496,-0.038888896,1,0,0,1.5452,optionRight,20,4260,2,37,0,37,0,1,,,,,,,,,,,,,,,,,,,,,,,,,,,,,,,,,,,,,,,
,,,,,,,,2023-08-16_08h49.55.748,HF_wild_card,2022.2.4,Win32,60.07810153,62ed12acf6326dfba8a97280,64d2fd46c836a06233681665,64dc7edfd511e4427e42da1c,,,,,,,ctch,resources/DP.BMP,resources/DG.BMP,Door4,-0.299074067,-0.065740762,1,0,0,1.271,optionLeft,80,4340,2,38,0,38,0,1,,,,,,,,,,,,,,,,,,,,,,,,,,,,,,,,,,,,,,,
,,,,,,,,2023-08-16_08h49.55.748,HF_wild_card,2022.2.4,Win32,60.07810153,62ed12acf6326dfba8a97280,64d2fd46c836a06233681665,64dc7edfd511e4427e42da1c,,,,,,,sngl,resources/DBN.BMP,resources/Empty.png,Door2,-0.307407414,-0.029629637,1,0,0,1.178,optionLeft,20,4360,2,39,0,39,0,1,,,,,,,,,,,,,,,,,,,,,,,,,,,,,,,,,,,,,,,
,,,,,,,,2023-08-16_08h49.55.748,HF_wild_card,2022.2.4,Win32,60.07810153,62ed12acf6326dfba8a97280,64d2fd46c836a06233681665,64dc7edfd511e4427e42da1c,,,,,,,decisionTrl,resources/DB.BMP,resources/DR.BMP,Door3,0.263888889,-0.009259259,1,0,0,1.5612,optionRight,70,4430,2,40,0,40,0,1,,,,,,,,,,,,,,,,,,,,,,,,,,,,,,,,,,,,,,,
,,,,,,,,2023-08-16_08h49.55.748,HF_wild_card,2022.2.4,Win32,60.07810153,62ed12acf6326dfba8a97280,64d2fd46c836a06233681665,64dc7edfd511e4427e42da1c,,,,,,,decisionTrl,resources/DP.BMP,resources/DB.BMP,Door4,-0.340740734,-0.040740755,1,0,0,1.111,optionLeft,60,4490,2,41,0,41,0,1,,,,,,,,,,,,,,,,,,,,,,,,,,,,,,,,,,,,,,,
,,,,,,,,2023-08-16_08h49.55.748,HF_wild_card,2022.2.4,Win32,60.07810153,62ed12acf6326dfba8a97280,64d2fd46c836a06233681665,64dc7edfd511e4427e42da1c,,,,,,,sngl,resources/Empty.png,resources/DBN.BMP,Door2,0.266666695,-0.034259266,1,0,0,0.7949,optionRight,40,4530,2,42,0,42,0,1,,,,,,,,,,,,,,,,,,,,,,,,,,,,,,,,,,,,,,,
,,,,,,,,2023-08-16_08h49.55.748,HF_wild_card,2022.2.4,Win32,60.07810153,62ed12acf6326dfba8a97280,64d2fd46c836a06233681665,64dc7edfd511e4427e42da1c,,,,,,,decisionTrl,resources/DB.BMP,resources/DBN.BMP,WildCard_NonEx,-0.400925919,-0.020370377,1,0,0,0.7456,optionLeft,45,4575,2,43,0,43,0,1,,,,,,,,,,,,,,,,,,,,,,,,,,,,,,,,,,,,,,,
,,,,,,,,2023-08-16_08h49.55.748,HF_wild_card,2022.2.4,Win32,60.07810153,62ed12acf6326dfba8a97280,64d2fd46c836a06233681665,64dc7edfd511e4427e42da1c,,,,,,,,,,,,,,,,,,,,,,,,,,1,0,1,0,1,,,,,,,,,,,,,,,,,,,,,,,,,,,,,,,,,,
,,,,,,,,2023-08-16_08h49.55.748,HF_wild_card,2022.2.4,Win32,60.07810153,62ed12acf6326dfba8a97280,64d2fd46c836a06233681665,64dc7edfd511e4427e42da1c,,,,,,,decisionTrl,resources/DP.BMP,resources/DR.BMP,Door4,-0.233333305,-0.161111125,1,0,0,0.8936,optionLeft,60,4635,3,0,0,0,0,1,,,,,,,,,,,,,,,,,,,,,,,,,,,,,,,,,,,,,,,
,,,,,,,,2023-08-16_08h49.55.748,HF_wild_card,2022.2.4,Win32,60.07810153,62ed12acf6326dfba8a97280,64d2fd46c836a06233681665,64dc7edfd511e4427e42da1c,,,,,,,sngl,resources/DG.BMP,resources/Empty.png,Door1,-0.279629601,-0.028703725,1,0,0,0.6958,optionLeft,30,4665,3,1,0,1,0,1,,,,,,,,,,,,,,,,,,,,,,,,,,,,,,,,,,,,,,,
,,,,,,,,2023-08-16_08h49.55.748,HF_wild_card,2022.2.4,Win32,60.07810153,62ed12acf6326dfba8a97280,64d2fd46c836a06233681665,64dc7edfd511e4427e42da1c,,,,,,,decisionTrl,resources/DBN.BMP,resources/DG.BMP,Door1,0.282407407,-0.011111118,1,0,0,0.7125,optionRight,30,4695,3,2,0,2,0,1,,,,,,,,,,,,,,,,,,,,,,,,,,,,,,,,,,,,,,,
,,,,,,,,2023-08-16_08h49.55.748,HF_wild_card,2022.2.4,Win32,60.07810153,62ed12acf6326dfba8a97280,64d2fd46c836a06233681665,64dc7edfd511e4427e42da1c,,,,,,,ctch,resources/DG.BMP,resources/DP.BMP,Door4,0.281481496,-0.075925933,1,0,0,0.8723,optionRight,60,4755,3,3,0,3,0,1,,,,,,,,,,,,,,,,,,,,,,,,,,,,,,,,,,,,,,,
,,,,,,,,2023-08-16_08h49.55.748,HF_wild_card,2022.2.4,Win32,60.07810153,62ed12acf6326dfba8a97280,64d2fd46c836a06233681665,64dc7edfd511e4427e42da1c,,,,,,,sngl,resources/Empty.png,resources/DG.BMP,Door1,0.216666681,0.014814801,1,0,0,0.7132,optionRight,30,4785,3,4,0,4,0,1,,,,,,,,,,,,,,,,,,,,,,,,,,,,,,,,,,,,,,,
,,,,,,,,2023-08-16_08h49.55.748,HF_wild_card,2022.2.4,Win32,60.07810153,62ed12acf6326dfba8a97280,64d2fd46c836a06233681665,64dc7edfd511e4427e42da1c,,,,,,,decisionTrl,resources/DR.BMP,resources/DP.BMP,Door4,0.312037009,0.01666666,1,0,0,1.0451,optionRight,80,4865,3,5,0,5,0,1,,,,,,,,,,,,,,,,,,,,,,,,,,,,,,,,,,,,,,,
,,,,,,,,2023-08-16_08h49.55.748,HF_wild_card,2022.2.4,Win32,60.07810153,62ed12acf6326dfba8a97280,64d2fd46c836a06233681665,64dc7edfd511e4427e42da1c,,,,,,,decisionTrl,resources/DG.BMP,resources/DBN.BMP,Door2,0.242592635,0.021296289,1,0,0,0.8915,optionRight,20,4885,3,6,0,6,0,1,,,,,,,,,,,,,,,,,,,,,,,,,,,,,,,,,,,,,,,
,,,,,,,,2023-08-16_08h49.55.748,HF_wild_card,2022.2.4,Win32,60.07810153,62ed12acf6326dfba8a97280,64d2fd46c836a06233681665,64dc7edfd511e4427e42da1c,,,,,,,ctch,resources/DR.BMP,resources/DBN.BMP,Door3,-0.3675926,-0.012962977,1,0,0,1.1611,optionLeft,70,4955,3,7,0,7,0,1,,,,,,,,,,,,,,,,,,,,,,,,,,,,,,,,,,,,,,,
,,,,,,,,2023-08-16_08h49.55.748,HF_wild_card,2022.2.4,Win32,60.07810153,62ed12acf6326dfba8a97280,64d2fd46c836a06233681665,64dc7edfd511e4427e42da1c,,,,,,,decisionTrl,resources/DB.BMP,resources/DG.BMP,Door1,0.292592578,-0.000925947,1,0,0,2.1425,optionRight,30,4985,3,8,0,8,0,1,,,,,,,,,,,,,,,,,,,,,,,,,,,,,,,,,,,,,,,
,,,,,,,,2023-08-16_08h49.55.748,HF_wild_card,2022.2.4,Win32,60.07810153,62ed12acf6326dfba8a97280,64d2fd46c836a06233681665,64dc7edfd511e4427e42da1c,,,,,,,decisionTrl,resources/DB.BMP,resources/DP.BMP,Door4,0.32685188,-0.018518519,1,0,0,0.9723,optionRight,60,5045,3,9,0,9,0,1,,,,,,,,,,,,,,,,,,,,,,,,,,,,,,,,,,,,,,,
,,,,,,,,2023-08-16_08h49.55.748,HF_wild_card,2022.2.4,Win32,60.07810153,62ed12acf6326dfba8a97280,64d2fd46c836a06233681665,64dc7edfd511e4427e42da1c,,,,,,,ctch,resources/DG.BMP,resources/DP.BMP,Door4,0.305555556,0.0074074,1,0,0,0.971,optionRight,60,5105,3,10,0,10,0,1,,,,,,,,,,,,,,,,,,,,,,,,,,,,,,,,,,,,,,,
,,,,,,,,2023-08-16_08h49.55.748,HF_wild_card,2022.2.4,Win32,60.07810153,62ed12acf6326dfba8a97280,64d2fd46c836a06233681665,64dc7edfd511e4427e42da1c,,,,,,,decisionTrl,resources/DR.BMP,resources/DB.BMP,Door3,-0.307407414,0.009259259,1,0,0,1.4569,optionLeft,70,5175,3,11,0,11,0,1,,,,,,,,,,,,,,,,,,,,,,,,,,,,,,,,,,,,,,,
,,,,,,,,2023-08-16_08h49.55.748,HF_wild_card,2022.2.4,Win32,60.07810153,62ed12acf6326dfba8a97280,64d2fd46c836a06233681665,64dc7edfd511e4427e42da1c,,,,,,,sngl,resources/DBN.BMP,resources/Empty.png,Door2,-0.29351849,-0.000925947,1,0,0,0.7714,optionLeft,40,5215,3,12,0,12,0,1,,,,,,,,,,,,,,,,,,,,,,,,,,,,,,,,,,,,,,,
,,,,,,,,2023-08-16_08h49.55.748,HF_wild_card,2022.2.4,Win32,60.07810153,62ed12acf6326dfba8a97280,64d2fd46c836a06233681665,64dc7edfd511e4427e42da1c,,,,,,,decisionTrl,resources/DP.BMP,resources/DR.BMP,Door4,-0.175925926,-0.033333355,1,0,0,1.9532,optionLeft,60,5275,3,13,0,13,0,1,,,,,,,,,,,,,,,,,,,,,,,,,,,,,,,,,,,,,,,
,,,,,,,,2023-08-16_08h49.55.748,HF_wild_card,2022.2.4,Win32,60.07810153,62ed12acf6326dfba8a97280,64d2fd46c836a06233681665,64dc7edfd511e4427e42da1c,,,,,,,decisionTrl,resources/DG.BMP,resources/DBN.BMP,Door1,-0.242592564,0.015740748,1,0,0,1.3595,optionLeft,30,5305,3,14,0,14,0,1,,,,,,,,,,,,,,,,,,,,,,,,,,,,,,,,,,,,,,,
,,,,,,,,2023-08-16_08h49.55.748,HF_wild_card,2022.2.4,Win32,60.07810153,62ed12acf6326dfba8a97280,64d2fd46c836a06233681665,64dc7edfd511e4427e42da1c,,,,,,,sngl,resources/DR.BMP,resources/Empty.png,Door3,-0.416666667,-0.037037037,1,0,0,0.7789,optionLeft,70,5375,3,15,0,15,0,1,,,,,,,,,,,,,,,,,,,,,,,,,,,,,,,,,,,,,,,
,,,,,,,,2023-08-16_08h49.55.748,HF_wild_card,2022.2.4,Win32,60.07810153,62ed12acf6326dfba8a97280,64d2fd46c836a06233681665,64dc7edfd511e4427e42da1c,,,,,,,sngl,resources/Empty.png,resources/DBN.BMP,Door2,0.353703675,0.00462963,1,0,0,0.8021,optionRight,20,5395,3,16,0,16,0,1,,,,,,,,,,,,,,,,,,,,,,,,,,,,,,,,,,,,,,,
,,,,,,,,2023-08-16_08h49.55.748,HF_wild_card,2022.2.4,Win32,60.07810153,62ed12acf6326dfba8a97280,64d2fd46c836a06233681665,64dc7edfd511e4427e42da1c,,,,,,,sngl,resources/DB.BMP,resources/Empty.png,WildCard_NonEx,-0.3824074,-0.051851873,1,0,0,0.795,optionLeft,45,5440,3,17,0,17,0,1,,,,,,,,,,,,,,,,,,,,,,,,,,,,,,,,,,,,,,,
,,,,,,,,2023-08-16_08h49.55.748,HF_wild_card,2022.2.4,Win32,60.07810153,62ed12acf6326dfba8a97280,64d2fd46c836a06233681665,64dc7edfd511e4427e42da1c,,,,,,,ctch,resources/DP.BMP,resources/DG.BMP,Door4,-0.29351849,-0.005555577,1,0,0,1.2619,optionLeft,80,5520,3,18,0,18,0,1,,,,,,,,,,,,,,,,,,,,,,,,,,,,,,,,,,,,,,,
,,,,,,,,2023-08-16_08h49.55.748,HF_wild_card,2022.2.4,Win32,60.07810153,62ed12acf6326dfba8a97280,64d2fd46c836a06233681665,64dc7edfd511e4427e42da1c,,,,,,,decisionTrl,resources/DBN.BMP,resources/DG.BMP,Door2,-0.393518519,0.063888868,1,0,0,2.992,optionLeft,20,5540,3,19,0,19,0,1,,,,,,,,,,,,,,,,,,,,,,,,,,,,,,,,,,,,,,,
,,,,,,,,2023-08-16_08h49.55.748,HF_wild_card,2022.2.4,Win32,60.07810153,62ed12acf6326dfba8a97280,64d2fd46c836a06233681665,64dc7edfd511e4427e42da1c,,,,,,,decisionTrl,resources/DP.BMP,resources/DR.BMP,Door4,-0.311111097,0.01944443,1,0,0,1.2114,optionLeft,60,5600,3,20,0,20,0,1,,,,,,,,,,,,,,,,,,,,,,,,,,,,,,,,,,,,,,,
,,,,,,,,2023-08-16_08h49.55.748,HF_wild_card,2022.2.4,Win32,60.07810153,62ed12acf6326dfba8a97280,64d2fd46c836a06233681665,64dc7edfd511e4427e42da1c,,,,,,,ctch,resources/DP.BMP,resources/DG.BMP,Door4,-0.332407386,0.01666666,1,0,0,1.4208,optionLeft,60,5660,3,21,0,21,0,1,,,,,,,,,,,,,,,,,,,,,,,,,,,,,,,,,,,,,,,
,,,,,,,,2023-08-16_08h49.55.748,HF_wild_card,2022.2.4,Win32,60.07810153,62ed12acf6326dfba8a97280,64d2fd46c836a06233681665,64dc7edfd511e4427e42da1c,,,,,,,decisionTrl,resources/DG.BMP,resources/DB.BMP,Door1,-0.156481496,0.01666666,1,0,0,1.4934,optionLeft,30,5690,3,22,0,22,0,1,,,,,,,,,,,,,,,,,,,,,,,,,,,,,,,,,,,,,,,
,,,,,,,,2023-08-16_08h49.55.748,HF_wild_card,2022.2.4,Win32,60.07810153,62ed12acf6326dfba8a97280,64d2fd46c836a06233681665,64dc7edfd511e4427e42da1c,,,,,,,decisionTrl,resources/DP.BMP,resources/DB.BMP,Door4,-0.423148155,-0.075000021,1,0,0,1.1363,optionLeft,80,5770,3,23,0,23,0,1,,,,,,,,,,,,,,,,,,,,,,,,,,,,,,,,,,,,,,,
,,,,,,,,2023-08-16_08h49.55.748,HF_wild_card,2022.2.4,Win32,60.07810153,62ed12acf6326dfba8a97280,64d2fd46c836a06233681665,64dc7edfd511e4427e42da1c,,,,,,,ctch,resources/DBN.BMP,resources/DR.BMP,Door3,0.42314812,-0.056481503,1,0,0,1.3107,optionRight,70,5840,3,24,0,24,0,1,,,,,,,,,,,,,,,,,,,,,,,,,,,,,,,,,,,,,,,
,,,,,,,,2023-08-16_08h49.55.748,HF_wild_card,2022.2.4,Win32,60.07810153,62ed12acf6326dfba8a97280,64d2fd46c836a06233681665,64dc7edfd511e4427e42da1c,,,,,,,decisionTrl,resources/DR.BMP,resources/DP.BMP,Door4,0.301851908,0.027777778,1,0,0,1.6599,optionRight,60,5900,3,25,0,25,0,1,,,,,,,,,,,,,,,,,,,,,,,,,,,,,,,,,,,,,,,
,,,,,,,,2023-08-16_08h49.55.748,HF_wild_card,2022.2.4,Win32,60.07810153,62ed12acf6326dfba8a97280,64d2fd46c836a06233681665,64dc7edfd511e4427e42da1c,,,,,,,decisionTrl,resources/DBN.BMP,resources/DG.BMP,Door1,0.286111125,-0.035185178,1,0,0,1.8426,optionRight,30,5930,3,26,0,26,0,1,,,,,,,,,,,,,,,,,,,,,,,,,,,,,,,,,,,,,,,
,,,,,,,,2023-08-16_08h49.55.748,HF_wild_card,2022.2.4,Win32,60.07810153,62ed12acf6326dfba8a97280,64d2fd46c836a06233681665,64dc7edfd511e4427e42da1c,,,,,,,sngl,resources/Empty.png,resources/DR.BMP,Door3,0.228703746,-0.042592614,1,0,0,0.9287,optionRight,70,6000,3,27,0,27,0,1,,,,,,,,,,,,,,,,,,,,,,,,,,,,,,,,,,,,,,,
,,,,,,,,2023-08-16_08h49.55.748,HF_wild_card,2022.2.4,Win32,60.07810153,62ed12acf6326dfba8a97280,64d2fd46c836a06233681665,64dc7edfd511e4427e42da1c,,,,,,,decisionTrl,resources/DP.BMP,resources/DR.BMP,Door4,-0.313888868,-0.008333347,1,0,0,0.8848,optionLeft,80,6080,3,28,0,28,0,1,,,,,,,,,,,,,,,,,,,,,,,,,,,,,,,,,,,,,,,
,,,,,,,,2023-08-16_08h49.55.748,HF_wild_card,2022.2.4,Win32,60.07810153,62ed12acf6326dfba8a97280,64d2fd46c836a06233681665,64dc7edfd511e4427e42da1c,,,,,,,decisionTrl,resources/DBN.BMP,resources/DB.BMP,WildCard_NonEx,0.358333305,-0.072222215,1,0,0,1.4177,optionRight,45,6125,3,29,0,29,0,1,,,,,,,,,,,,,,,,,,,,,,,,,,,,,,,,,,,,,,,
,,,,,,,,2023-08-16_08h49.55.748,HF_wild_card,2022.2.4,Win32,60.07810153,62ed12acf6326dfba8a97280,64d2fd46c836a06233681665,64dc7edfd511e4427e42da1c,,,,,,,sngl,resources/Empty.png,resources/DB.BMP,WildCard_NonEx,0.416666667,-0.026851866,1,0,0,0.8616,optionRight,55,6180,3,30,0,30,0,1,,,,,,,,,,,,,,,,,,,,,,,,,,,,,,,,,,,,,,,
,,,,,,,,2023-08-16_08h49.55.748,HF_wild_card,2022.2.4,Win32,60.07810153,62ed12acf6326dfba8a97280,64d2fd46c836a06233681665,64dc7edfd511e4427e42da1c,,,,,,,decisionTrl,resources/DBN.BMP,resources/DG.BMP,Door1,0.449074074,0.021296289,1,0,0,1.0688,optionRight,30,6210,3,31,0,31,0,1,,,,,,,,,,,,,,,,,,,,,,,,,,,,,,,,,,,,,,,
,,,,,,,,2023-08-16_08h49.55.748,HF_wild_card,2022.2.4,Win32,60.07810153,62ed12acf6326dfba8a97280,64d2fd46c836a06233681665,64dc7edfd511e4427e42da1c,,,,,,,sngl,resources/DB.BMP,resources/Empty.png,WildCard_NonEx,-0.282407407,-0.002777771,1,0,0,0.7722,optionLeft,55,6265,3,32,0,32,0,1,,,,,,,,,,,,,,,,,,,,,,,,,,,,,,,,,,,,,,,
,,,,,,,,2023-08-16_08h49.55.748,HF_wild_card,2022.2.4,Win32,60.07810153,62ed12acf6326dfba8a97280,64d2fd46c836a06233681665,64dc7edfd511e4427e42da1c,,,,,,,decisionTrl,resources/DR.BMP,resources/DP.BMP,Door4,0.338888945,0.000925912,1,0,0,1.279,optionRight,80,6345,3,33,0,33,0,1,,,,,,,,,,,,,,,,,,,,,,,,,,,,,,,,,,,,,,,
,,,,,,,,2023-08-16_08h49.55.748,HF_wild_card,2022.2.4,Win32,60.07810153,62ed12acf6326dfba8a97280,64d2fd46c836a06233681665,64dc7edfd511e4427e42da1c,,,,,,,ctch,resources/DR.BMP,resources/DBN.BMP,Door3,-0.314814815,0.012962942,1,0,0,1.3944,optionLeft,70,6415,3,34,0,34,0,1,,,,,,,,,,,,,,,,,,,,,,,,,,,,,,,,,,,,,,,
,,,,,,,,2023-08-16_08h49.55.748,HF_wild_card,2022.2.4,Win32,60.07810153,62ed12acf6326dfba8a97280,64d2fd46c836a06233681665,64dc7edfd511e4427e42da1c,,,,,,,decisionTrl,resources/DG.BMP,resources/DBN.BMP,Door2,0.323148233,-0.014814836,1,0,0,1.2114,optionRight,40,6455,3,35,0,35,0,1,,,,,,,,,,,,,,,,,,,,,,,,,,,,,,,,,,,,,,,
,,,,,,,,2023-08-16_08h49.55.748,HF_wild_card,2022.2.4,Win32,60.07810153,62ed12acf6326dfba8a97280,64d2fd46c836a06233681665,64dc7edfd511e4427e42da1c,,,,,,,ctch,resources/DBN.BMP,resources/DR.BMP,Door3,0.41851849,0.001851859,1,0,0,1.1117,optionRight,70,6525,3,36,0,36,0,1,,,,,,,,,,,,,,,,,,,,,,,,,,,,,,,,,,,,,,,
,,,,,,,,2023-08-16_08h49.55.748,HF_wild_card,2022.2.4,Win32,60.07810153,62ed12acf6326dfba8a97280,64d2fd46c836a06233681665,64dc7edfd511e4427e42da1c,,,,,,,decisionTrl,resources/DB.BMP,resources/DR.BMP,Door3,0.340740769,-0.010185206,1,0,0,2.1387,optionRight,70,6595,3,37,0,37,0,1,,,,,,,,,,,,,,,,,,,,,,,,,,,,,,,,,,,,,,,
,,,,,,,,2023-08-16_08h49.55.748,HF_wild_card,2022.2.4,Win32,60.07810153,62ed12acf6326dfba8a97280,64d2fd46c836a06233681665,64dc7edfd511e4427e42da1c,,,,,,,decisionTrl,resources/DR.BMP,resources/DP.BMP,Door3,-0.459259245,-0.040740755,1,0,0,1.3686,optionLeft,70,6665,3,38,0,38,0,1,,,,,,,,,,,,,,,,,,,,,,,,,,,,,,,,,,,,,,,
,,,,,,,,2023-08-16_08h49.55.748,HF_wild_card,2022.2.4,Win32,60.07810153,62ed12acf6326dfba8a97280,64d2fd46c836a06233681665,64dc7edfd511e4427e42da1c,,,,,,,decisionTrl,resources/DB.BMP,resources/DBN.BMP,WildCard_NonEx,-0.350925905,0.017592571,1,0,0,2.1264,optionLeft,55,6720,3,39,0,39,0,1,,,,,,,,,,,,,,,,,,,,,,,,,,,,,,,,,,,,,,,
,,,,,,,,2023-08-16_08h49.55.748,HF_wild_card,2022.2.4,Win32,60.07810153,62ed12acf6326dfba8a97280,64d2fd46c836a06233681665,64dc7edfd511e4427e42da1c,,,,,,,sngl,resources/Empty.png,resources/DB.BMP,WildCard_NonEx,0.436111168,-0.023148148,1,0,0,0.8452,optionRight,45,6765,3,40,0,40,0,1,,,,,,,,,,,,,,,,,,,,,,,,,,,,,,,,,,,,,,,
,,,,,,,,2023-08-16_08h49.55.748,HF_wild_card,2022.2.4,Win32,60.07810153,62ed12acf6326dfba8a97280,64d2fd46c836a06233681665,64dc7edfd511e4427e42da1c,,,,,,,sngl,resources/Empty.png,resources/DP.BMP,Door4,0.363888917,-0.026851866,1,0,0,0.7958,optionRight,60,6825,3,41,0,41,0,1,,,,,,,,,,,,,,,,,,,,,,,,,,,,,,,,,,,,,,,
,,,,,,,,2023-08-16_08h49.55.748,HF_wild_card,2022.2.4,Win32,60.07810153,62ed12acf6326dfba8a97280,64d2fd46c836a06233681665,64dc7edfd511e4427e42da1c,,,,,,,sngl,resources/DP.BMP,resources/Empty.png,Door4,-0.349999993,-0.08425928,1,0,0,0.7887,optionLeft,80,6905,3,42,0,42,0,1,,,,,,,,,,,,,,,,,,,,,,,,,,,,,,,,,,,,,,,
,,,,,,,,2023-08-16_08h49.55.748,HF_wild_card,2022.2.4,Win32,60.07810153,62ed12acf6326dfba8a97280,64d2fd46c836a06233681665,64dc7edfd511e4427e42da1c,,,,,,,decisionTrl,resources/DG.BMP,resources/DBN.BMP,Door1,-0.37037037,0.025000007,1,0,0,1.8267,optionLeft,30,6935,3,43,0,43,0,1,,,,,,,,,,,,,,,,,,,,,,,,,,,,,,,,,,,,,,,
,,,,,,,,2023-08-16_08h49.55.748,HF_wild_card,2022.2.4,Win32,60.07810153,62ed12acf6326dfba8a97280,64d2fd46c836a06233681665,64dc7edfd511e4427e42da1c,,,,,,,,,,,,,,,,,,,,,,,,,,2,0,2,0,1,,,,,,,,,,,,,,,,,,,,,,,,,,,,,,,,,,
,,,,,,,,2023-08-16_08h49.55.748,HF_wild_card,2022.2.4,Win32,60.07810153,62ed12acf6326dfba8a97280,64d2fd46c836a06233681665,64dc7edfd511e4427e42da1c,,,,,,,decisionTrl,resources/DBN.BMP,resources/DG.BMP,Door1,0.205555598,0.003703683,1,0,0,3.1071,optionRight,30,6965,4,0,0,0,0,1,,,,,,,,,,,,,,,,,,,,,,,,,,,,,,,,,,,,,,,
,,,,,,,,2023-08-16_08h49.55.748,HF_wild_card,2022.2.4,Win32,60.07810153,62ed12acf6326dfba8a97280,64d2fd46c836a06233681665,64dc7edfd511e4427e42da1c,,,,,,,sngl,resources/DBN.BMP,resources/Empty.png,Door2,-0.258333347,0.013888889,1,0,0,1.0617,optionLeft,20,6985,4,1,0,1,0,1,,,,,,,,,,,,,,,,,,,,,,,,,,,,,,,,,,,,,,,
,,,,,,,,2023-08-16_08h49.55.748,HF_wild_card,2022.2.4,Win32,60.07810153,62ed12acf6326dfba8a97280,64d2fd46c836a06233681665,64dc7edfd511e4427e42da1c,,,,,,,decisionTrl,resources/DG.BMP,resources/DBN.BMP,Door2,0.446296268,-0.032407407,1,0,0,1.7439,optionRight,20,7005,4,2,0,2,0,1,,,,,,,,,,,,,,,,,,,,,,,,,,,,,,,,,,,,,,,
,,,,,,,,2023-08-16_08h49.55.748,HF_wild_card,2022.2.4,Win32,60.07810153,62ed12acf6326dfba8a97280,64d2fd46c836a06233681665,64dc7edfd511e4427e42da1c,,,,,,,sngl,resources/DY.BMP,resources/Empty.png,WildCard_Ex,-0.227777764,-0.01203703,1,0,0,0.8278,optionLeft,95,7100,4,3,0,3,0,1,,,,,,,,,,,,,,,,,,,,,,,,,,,,,,,,,,,,,,,
,,,,,,,,2023-08-16_08h49.55.748,HF_wild_card,2022.2.4,Win32,60.07810153,62ed12acf6326dfba8a97280,64d2fd46c836a06233681665,64dc7edfd511e4427e42da1c,,,,,,,decisionTrl,resources/DBN.BMP,resources/DG.BMP,Door2,-0.330555563,0.015740748,1,0,0,1.9265,optionLeft,20,7120,4,4,0,4,0,1,,,,,,,,,,,,,,,,,,,,,,,,,,,,,,,,,,,,,,,
,,,,,,,,2023-08-16_08h49.55.748,HF_wild_card,2022.2.4,Win32,60.07810153,62ed12acf6326dfba8a97280,64d2fd46c836a06233681665,64dc7edfd511e4427e42da1c,,,,,,,decisionTrl,resources/DR.BMP,resources/DP.BMP,Door4,0.407407407,-0.013888889,1,0,0,0.9875,optionRight,80,7200,4,5,0,5,0,1,,,,,,,,,,,,,,,,,,,,,,,,,,,,,,,,,,,,,,,
,,,,,,,,2023-08-16_08h49.55.748,HF_wild_card,2022.2.4,Win32,60.07810153,62ed12acf6326dfba8a97280,64d2fd46c836a06233681665,64dc7edfd511e4427e42da1c,,,,,,,decisionTrl,resources/DG.BMP,resources/DBN.BMP,Door1,-0.300925926,0.010185171,1,0,0,1.4734,optionLeft,30,7230,4,6,0,6,0,1,,,,,,,,,,,,,,,,,,,,,,,,,,,,,,,,,,,,,,,
,,,,,,,,2023-08-16_08h49.55.748,HF_wild_card,2022.2.4,Win32,60.07810153,62ed12acf6326dfba8a97280,64d2fd46c836a06233681665,64dc7edfd511e4427e42da1c,,,,,,,decisionTrl,resources/DY.BMP,resources/DR.BMP,WildCard_Ex,-0.312962956,-0.001851859,1,0,0,1.0947,optionLeft,95,7325,4,7,0,7,0,1,,,,,,,,,,,,,,,,,,,,,,,,,,,,,,,,,,,,,,,
,,,,,,,,2023-08-16_08h49.55.748,HF_wild_card,2022.2.4,Win32,60.07810153,62ed12acf6326dfba8a97280,64d2fd46c836a06233681665,64dc7edfd511e4427e42da1c,,,,,,,ctch,resources/DG.BMP,resources/DP.BMP,Door4,0.555555556,0.010185171,1,0,0,1.0454,optionRight,60,7385,4,8,0,8,0,1,,,,,,,,,,,,,,,,,,,,,,,,,,,,,,,,,,,,,,,
,,,,,,,,2023-08-16_08h49.55.748,HF_wild_card,2022.2.4,Win32,60.07810153,62ed12acf6326dfba8a97280,64d2fd46c836a06233681665,64dc7edfd511e4427e42da1c,,,,,,,ctch,resources/DBN.BMP,resources/DR.BMP,Door3,0.430555556,0.003703683,1,0,0,1.3945,optionRight,70,7455,4,9,0,9,0,1,,,,,,,,,,,,,,,,,,,,,,,,,,,,,,,,,,,,,,,
,,,,,,,,2023-08-16_08h49.55.748,HF_wild_card,2022.2.4,Win32,60.07810153,62ed12acf6326dfba8a97280,64d2fd46c836a06233681665,64dc7edfd511e4427e42da1c,,,,,,,decisionTrl,resources/DG.BMP,resources/DBN.BMP,Door1,-0.217592593,0.00462963,1,0,0,2.35,optionLeft,30,7485,4,10,0,10,0,1,,,,,,,,,,,,,,,,,,,,,,,,,,,,,,,,,,,,,,,
,,,,,,,,2023-08-16_08h49.55.748,HF_wild_card,2022.2.4,Win32,60.07810153,62ed12acf6326dfba8a97280,64d2fd46c836a06233681665,64dc7edfd511e4427e42da1c,,,,,,,sngl,resources/Empty.png,resources/DBN.BMP,Door2,0.442592621,0.02407406,1,0,0,0.8117,optionRight,40,7525,4,11,0,11,0,1,,,,,,,,,,,,,,,,,,,,,,,,,,,,,,,,,,,,,,,
,,,,,,,,2023-08-16_08h49.55.748,HF_wild_card,2022.2.4,Win32,60.07810153,62ed12acf6326dfba8a97280,64d2fd46c836a06233681665,64dc7edfd511e4427e42da1c,,,,,,,ctch,resources/DP.BMP,resources/DG.BMP,Door4,-0.333333333,-0.083333333,1,0,0,0.912,optionLeft,80,7605,4,12,0,12,0,1,,,,,,,,,,,,,,,,,,,,,,,,,,,,,,,,,,,,,,,
,,,,,,,,2023-08-16_08h49.55.748,HF_wild_card,2022.2.4,Win32,60.07810153,62ed12acf6326dfba8a97280,64d2fd46c836a06233681665,64dc7edfd511e4427e42da1c,,,,,,,decisionTrl,resources/DY.BMP,resources/DP.BMP,WildCard_Ex,-0.334259245,-0.050000014,1,0,0,0.829,optionLeft,5,7610,4,13,0,13,0,1,,,,,,,,,,,,,,,,,,,,,,,,,,,,,,,,,,,,,,,
,,,,,,,,2023-08-16_08h49.55.748,HF_wild_card,2022.2.4,Win32,60.07810153,62ed12acf6326dfba8a97280,64d2fd46c836a06233681665,64dc7edfd511e4427e42da1c,,,,,,,decisionTrl,resources/DBN.BMP,resources/DY.BMP,WildCard_Ex,0.424074102,-0.075925933,1,0,0,1.3543,optionRight,5,7615,4,14,0,14,0,1,,,,,,,,,,,,,,,,,,,,,,,,,,,,,,,,,,,,,,,
,,,,,,,,2023-08-16_08h49.55.748,HF_wild_card,2022.2.4,Win32,60.07810153,62ed12acf6326dfba8a97280,64d2fd46c836a06233681665,64dc7edfd511e4427e42da1c,,,,,,,sngl,resources/Empty.png,resources/DY.BMP,WildCard_Ex,0.450000057,-0.021296289,1,0,0,0.9691,optionRight,5,7620,4,15,0,15,0,1,,,,,,,,,,,,,,,,,,,,,,,,,,,,,,,,,,,,,,,
,,,,,,,,2023-08-16_08h49.55.748,HF_wild_card,2022.2.4,Win32,60.07810153,62ed12acf6326dfba8a97280,64d2fd46c836a06233681665,64dc7edfd511e4427e42da1c,,,,,,,decisionTrl,resources/DBN.BMP,resources/DG.BMP,Door1,0.313888974,0.066666674,1,0,0,1.5439,optionRight,30,7650,4,16,0,16,0,1,,,,,,,,,,,,,,,,,,,,,,,,,,,,,,,,,,,,,,,
,,,,,,,,2023-08-16_08h49.55.748,HF_wild_card,2022.2.4,Win32,60.07810153,62ed12acf6326dfba8a97280,64d2fd46c836a06233681665,64dc7edfd511e4427e42da1c,,,,,,,decisionTrl,resources/DY.BMP,resources/DBN.BMP,WildCard_Ex,-0.252777735,0.009259259,1,0,0,1.6756,optionLeft,95,7745,4,17,0,17,0,1,,,,,,,,,,,,,,,,,,,,,,,,,,,,,,,,,,,,,,,
,,,,,,,,2023-08-16_08h49.55.748,HF_wild_card,2022.2.4,Win32,60.07810153,62ed12acf6326dfba8a97280,64d2fd46c836a06233681665,64dc7edfd511e4427e42da1c,,,,,,,decisionTrl,resources/DR.BMP,resources/DY.BMP,WildCard_Ex,0.362962935,-0.011111118,1,0,0,2.4587,optionRight,5,7750,4,18,0,18,0,1,,,,,,,,,,,,,,,,,,,,,,,,,,,,,,,,,,,,,,,
,,,,,,,,2023-08-16_08h49.55.748,HF_wild_card,2022.2.4,Win32,60.07810153,62ed12acf6326dfba8a97280,64d2fd46c836a06233681665,64dc7edfd511e4427e42da1c,,,,,,,ctch,resources/DR.BMP,resources/DBN.BMP,Door3,-0.321296303,-0.003703718,1,0,0,1.5428,optionLeft,70,7820,4,19,0,19,0,1,,,,,,,,,,,,,,,,,,,,,,,,,,,,,,,,,,,,,,,
,,,,,,,,2023-08-16_08h49.55.748,HF_wild_card,2022.2.4,Win32,60.07810153,62ed12acf6326dfba8a97280,64d2fd46c836a06233681665,64dc7edfd511e4427e42da1c,,,,,,,decisionTrl,resources/DP.BMP,resources/DR.BMP,Door4,-0.324074074,-0.031481496,1,0,0,1.0697,optionLeft,60,7880,4,20,0,20,0,1,,,,,,,,,,,,,,,,,,,,,,,,,,,,,,,,,,,,,,,
,,,,,,,,2023-08-16_08h49.55.748,HF_wild_card,2022.2.4,Win32,60.07810153,62ed12acf6326dfba8a97280,64d2fd46c836a06233681665,64dc7edfd511e4427e42da1c,,,,,,,sngl,resources/DR.BMP,resources/Empty.png,Door3,-0.449999986,0.014814801,1,0,0,0.7455,optionLeft,70,7950,4,21,0,21,0,1,,,,,,,,,,,,,,,,,,,,,,,,,,,,,,,,,,,,,,,
,,,,,,,,2023-08-16_08h49.55.748,HF_wild_card,2022.2.4,Win32,60.07810153,62ed12acf6326dfba8a97280,64d2fd46c836a06233681665,64dc7edfd511e4427e42da1c,,,,,,,decisionTrl,resources/DP.BMP,resources/DR.BMP,Door4,-0.242592564,-0.035185178,1,0,0,0.9284,optionLeft,60,8010,4,22,0,22,0,1,,,,,,,,,,,,,,,,,,,,,,,,,,,,,,,,,,,,,,,
,,,,,,,,2023-08-16_08h49.55.748,HF_wild_card,2022.2.4,Win32,60.07810153,62ed12acf6326dfba8a97280,64d2fd46c836a06233681665,64dc7edfd511e4427e42da1c,,,,,,,decisionTrl,resources/DG.BMP,resources/DBN.BMP,Door1,-0.327777757,0.023148148,1,0,0,0.9286,optionLeft,30,8040,4,23,0,23,0,1,,,,,,,,,,,,,,,,,,,,,,,,,,,,,,,,,,,,,,,
,,,,,,,,2023-08-16_08h49.55.748,HF_wild_card,2022.2.4,Win32,60.07810153,62ed12acf6326dfba8a97280,64d2fd46c836a06233681665,64dc7edfd511e4427e42da1c,,,,,,,decisionTrl,resources/DR.BMP,resources/DP.BMP,Door4,0.286111125,-0.040740755,1,0,0,1.295,optionRight,60,8100,4,24,0,24,0,1,,,,,,,,,,,,,,,,,,,,,,,,,,,,,,,,,,,,,,,
,,,,,,,,2023-08-16_08h49.55.748,HF_wild_card,2022.2.4,Win32,60.07810153,62ed12acf6326dfba8a97280,64d2fd46c836a06233681665,64dc7edfd511e4427e42da1c,,,,,,,sngl,resources/Empty.png,resources/DP.BMP,Door4,0.303703732,0.012962942,1,0,0,0.762,optionRight,80,8180,4,25,0,25,0,1,,,,,,,,,,,,,,,,,,,,,,,,,,,,,,,,,,,,,,,
,,,,,,,,2023-08-16_08h49.55.748,HF_wild_card,2022.2.4,Win32,60.07810153,62ed12acf6326dfba8a97280,64d2fd46c836a06233681665,64dc7edfd511e4427e42da1c,,,,,,,sngl,resources/Empty.png,resources/DG.BMP,Door1,0.391666695,0.008333312,1,0,0,0.7627,optionRight,30,8210,4,26,0,26,0,1,,,,,,,,,,,,,,,,,,,,,,,,,,,,,,,,,,,,,,,
,,,,,,,,2023-08-16_08h49.55.748,HF_wild_card,2022.2.4,Win32,60.07810153,62ed12acf6326dfba8a97280,64d2fd46c836a06233681665,64dc7edfd511e4427e42da1c,,,,,,,sngl,resources/DP.BMP,resources/Empty.png,Door4,-0.324074074,-0.021296289,1,0,0,0.679,optionLeft,60,8270,4,27,0,27,0,1,,,,,,,,,,,,,,,,,,,,,,,,,,,,,,,,,,,,,,,
,,,,,,,,2023-08-16_08h49.55.748,HF_wild_card,2022.2.4,Win32,60.07810153,62ed12acf6326dfba8a97280,64d2fd46c836a06233681665,64dc7edfd511e4427e42da1c,,,,,,,ctch,resources/DBN.BMP,resources/DR.BMP,Door3,0.402777778,-0.025000007,1,0,0,1.7894,optionRight,70,8340,4,28,0,28,0,1,,,,,,,,,,,,,,,,,,,,,,,,,,,,,,,,,,,,,,,
,,,,,,,,2023-08-16_08h49.55.748,HF_wild_card,2022.2.4,Win32,60.07810153,62ed12acf6326dfba8a97280,64d2fd46c836a06233681665,64dc7edfd511e4427e42da1c,,,,,,,ctch,resources/DP.BMP,resources/DG.BMP,Door4,-0.328703704,0.041666667,1,0,0,0.8783,optionLeft,60,8400,4,29,0,29,0,1,,,,,,,,,,,,,,,,,,,,,,,,,,,,,,,,,,,,,,,
,,,,,,,,2023-08-16_08h49.55.748,HF_wild_card,2022.2.4,Win32,60.07810153,62ed12acf6326dfba8a97280,64d2fd46c836a06233681665,64dc7edfd511e4427e42da1c,,,,,,,sngl,resources/DG.BMP,resources/Empty.png,Door1,-0.312037044,0.012962942,1,0,0,0.7957,optionLeft,30,8430,4,30,0,30,0,1,,,,,,,,,,,,,,,,,,,,,,,,,,,,,,,,,,,,,,,
,,,,,,,,2023-08-16_08h49.55.748,HF_wild_card,2022.2.4,Win32,60.07810153,62ed12acf6326dfba8a97280,64d2fd46c836a06233681665,64dc7edfd511e4427e42da1c,,,,,,,decisionTrl,resources/DP.BMP,resources/DR.BMP,Door4,-0.348148134,-0.006481489,1,0,0,1.594,optionLeft,60,8490,4,31,0,31,0,1,,,,,,,,,,,,,,,,,,,,,,,,,,,,,,,,,,,,,,,
,,,,,,,,2023-08-16_08h49.55.748,HF_wild_card,2022.2.4,Win32,60.07810153,62ed12acf6326dfba8a97280,64d2fd46c836a06233681665,64dc7edfd511e4427e42da1c,,,,,,,sngl,resources/DY.BMP,resources/Empty.png,WildCard_Ex,-0.337962963,0.006481489,1,0,0,0.8453,optionLeft,5,8495,4,32,0,32,0,1,,,,,,,,,,,,,,,,,,,,,,,,,,,,,,,,,,,,,,,
,,,,,,,,2023-08-16_08h49.55.748,HF_wild_card,2022.2.4,Win32,60.07810153,62ed12acf6326dfba8a97280,64d2fd46c836a06233681665,64dc7edfd511e4427e42da1c,,,,,,,sngl,resources/Empty.png,resources/DY.BMP,WildCard_Ex,0.412037037,-0.086111104,1,0,0,0.8289,optionRight,95,8590,4,33,0,33,0,1,,,,,,,,,,,,,,,,,,,,,,,,,,,,,,,,,,,,,,,
,,,,,,,,2023-08-16_08h49.55.748,HF_wild_card,2022.2.4,Win32,60.07810153,62ed12acf6326dfba8a97280,64d2fd46c836a06233681665,64dc7edfd511e4427e42da1c,,,,,,,ctch,resources/DG.BMP,resources/DP.BMP,Door4,0.340740769,-0.003703718,1,0,0,1.5006,optionRight,60,8650,4,34,0,34,0,1,,,,,,,,,,,,,,,,,,,,,,,,,,,,,,,,,,,,,,,
,,,,,,,,2023-08-16_08h49.55.748,HF_wild_card,2022.2.4,Win32,60.07810153,62ed12acf6326dfba8a97280,64d2fd46c836a06233681665,64dc7edfd511e4427e42da1c,,,,,,,ctch,resources/DR.BMP,resources/DBN.BMP,Door3,-0.267592607,-0.014814836,1,0,0,1.062,optionLeft,70,8720,4,35,0,35,0,1,,,,,,,,,,,,,,,,,,,,,,,,,,,,,,,,,,,,,,,
,,,,,,,,2023-08-16_08h49.55.748,HF_wild_card,2022.2.4,Win32,60.07810153,62ed12acf6326dfba8a97280,64d2fd46c836a06233681665,64dc7edfd511e4427e42da1c,,,,,,,decisionTrl,resources/DR.BMP,resources/DP.BMP,Door4,0.422222279,-0.015740748,1,0,0,1.1948,optionRight,80,8800,4,36,0,36,0,1,,,,,,,,,,,,,,,,,,,,,,,,,,,,,,,,,,,,,,,
,,,,,,,,2023-08-16_08h49.55.748,HF_wild_card,2022.2.4,Win32,60.07810153,62ed12acf6326dfba8a97280,64d2fd46c836a06233681665,64dc7edfd511e4427e42da1c,,,,,,,sngl,resources/Empty.png,resources/DR.BMP,Door3,0.358333305,-0.064814815,1,0,0,0.8127,optionRight,70,8870,4,37,0,37,0,1,,,,,,,,,,,,,,,,,,,,,,,,,,,,,,,,,,,,,,,
,,,,,,,,2023-08-16_08h49.55.748,HF_wild_card,2022.2.4,Win32,60.07810153,62ed12acf6326dfba8a97280,64d2fd46c836a06233681665,64dc7edfd511e4427e42da1c,,,,,,,decisionTrl,resources/DY.BMP,resources/DG.BMP,Door1,0.35555564,0.001851859,1,0,0,2.176,optionRight,30,8900,4,38,0,38,0,1,,,,,,,,,,,,,,,,,,,,,,,,,,,,,,,,,,,,,,,
,,,,,,,,2023-08-16_08h49.55.748,HF_wild_card,2022.2.4,Win32,60.07810153,62ed12acf6326dfba8a97280,64d2fd46c836a06233681665,64dc7edfd511e4427e42da1c,,,,,,,decisionTrl,resources/DR.BMP,resources/DP.BMP,Door3,-0.187037009,0.054629608,1,0,0,1.2822,optionLeft,70,8970,4,39,0,39,0,1,,,,,,,,,,,,,,,,,,,,,,,,,,,,,,,,,,,,,,,
,,,,,,,,2023-08-16_08h49.55.748,HF_wild_card,2022.2.4,Win32,60.07810153,62ed12acf6326dfba8a97280,64d2fd46c836a06233681665,64dc7edfd511e4427e42da1c,,,,,,,decisionTrl,resources/DG.BMP,resources/DY.BMP,WildCard_Ex,0.523148148,0.025000007,1,0,0,0.9112,optionRight,5,8975,4,40,0,40,0,1,,,,,,,,,,,,,,,,,,,,,,,,,,,,,,,,,,,,,,,
,,,,,,,,2023-08-16_08h49.55.748,HF_wild_card,2022.2.4,Win32,60.07810153,62ed12acf6326dfba8a97280,64d2fd46c836a06233681665,64dc7edfd511e4427e42da1c,,,,,,,decisionTrl,resources/DBN.BMP,resources/DG.BMP,Door1,0.26944443,0,1,0,0,1.1458,optionRight,30,9005,4,41,0,41,0,1,,,,,,,,,,,,,,,,,,,,,,,,,,,,,,,,,,,,,,,
,,,,,,,,2023-08-16_08h49.55.748,HF_wild_card,2022.2.4,Win32,60.07810153,62ed12acf6326dfba8a97280,64d2fd46c836a06233681665,64dc7edfd511e4427e42da1c,,,,,,,decisionTrl,resources/DP.BMP,resources/DR.BMP,Door4,-0.320370356,0,1,0,0,0.8285,optionLeft,80,9085,4,42,0,42,0,1,,,,,,,,,,,,,,,,,,,,,,,,,,,,,,,,,,,,,,,
,,,,,,,,2023-08-16_08h49.55.748,HF_wild_card,2022.2.4,Win32,60.07810153,62ed12acf6326dfba8a97280,64d2fd46c836a06233681665,64dc7edfd511e4427e42da1c,,,,,,,decisionTrl,resources/DP.BMP,resources/DY.BMP,Door4,-0.339814822,0.000925912,1,0,0,1.8432,optionLeft,60,9145,4,43,0,43,0,1,,,,,,,,,,,,,,,,,,,,,,,,,,,,,,,,,,,,,,,
,,,,,,,,2023-08-16_08h49.55.748,HF_wild_card,2022.2.4,Win32,60.07810153,62ed12acf6326dfba8a97280,64d2fd46c836a06233681665,64dc7edfd511e4427e42da1c,,,,,,,,,,,,,,,,,,,,,,,,,,3,0,3,0,1,,,,,,,,,,,,,,,,,,,,,,,,,,,,,,,,,,
,,,,,,,,2023-08-16_08h49.55.748,HF_wild_card,2022.2.4,Win32,60.07810153,62ed12acf6326dfba8a97280,64d2fd46c836a06233681665,64dc7edfd511e4427e42da1c,,,,,,,decisionTrl,resources/DY.BMP,resources/DR.BMP,WildCard_Ex,-0.271296254,-0.041666667,1,0,0,0.7851,optionLeft,95,9240,5,0,0,0,0,1,,,,,,,,,,,,,,,,,,,,,,,,,,,,,,,,,,,,,,,
,,,,,,,,2023-08-16_08h49.55.748,HF_wild_card,2022.2.4,Win32,60.07810153,62ed12acf6326dfba8a97280,64d2fd46c836a06233681665,64dc7edfd511e4427e42da1c,,,,,,,decisionTrl,resources/DP.BMP,resources/DR.BMP,Door4,-0.501851859,-0.015740748,1,0,0,1.1945,optionLeft,60,9300,5,1,0,1,0,1,,,,,,,,,,,,,,,,,,,,,,,,,,,,,,,,,,,,,,,
,,,,,,,,2023-08-16_08h49.55.748,HF_wild_card,2022.2.4,Win32,60.07810153,62ed12acf6326dfba8a97280,64d2fd46c836a06233681665,64dc7edfd511e4427e42da1c,,,,,,,decisionTrl,resources/DY.BMP,resources/DP.BMP,WildCard_Ex,-0.327777757,-0.003703718,1,0,0,0.712,optionLeft,5,9305,5,2,0,2,0,1,,,,,,,,,,,,,,,,,,,,,,,,,,,,,,,,,,,,,,,
,,,,,,,,2023-08-16_08h49.55.748,HF_wild_card,2022.2.4,Win32,60.07810153,62ed12acf6326dfba8a97280,64d2fd46c836a06233681665,64dc7edfd511e4427e42da1c,,,,,,,decisionTrl,resources/DBN.BMP,resources/DG.BMP,Door1,0.372222194,-0.003703718,1,0,0,1.0611,optionRight,30,9335,5,3,0,3,0,1,,,,,,,,,,,,,,,,,,,,,,,,,,,,,,,,,,,,,,,
,,,,,,,,2023-08-16_08h49.55.748,HF_wild_card,2022.2.4,Win32,60.07810153,62ed12acf6326dfba8a97280,64d2fd46c836a06233681665,64dc7edfd511e4427e42da1c,,,,,,,decisionTrl,resources/DBN.BMP,resources/DG.BMP,Door1,0.340740769,0.017592571,1,0,0,0.8292,optionRight,30,9365,5,4,0,4,0,1,,,,,,,,,,,,,,,,,,,,,,,,,,,,,,,,,,,,,,,
,,,,,,,,2023-08-16_08h49.55.748,HF_wild_card,2022.2.4,Win32,60.07810153,62ed12acf6326dfba8a97280,64d2fd46c836a06233681665,64dc7edfd511e4427e42da1c,,,,,,,ctch,resources/DG.BMP,resources/DP.BMP,Door4,0.401851937,0.034259266,1,0,0,0.7875,optionRight,80,9445,5,5,0,5,0,1,,,,,,,,,,,,,,,,,,,,,,,,,,,,,,,,,,,,,,,
,,,,,,,,2023-08-16_08h49.55.748,HF_wild_card,2022.2.4,Win32,60.07810153,62ed12acf6326dfba8a97280,64d2fd46c836a06233681665,64dc7edfd511e4427e42da1c,,,,,,,ctch,resources/DR.BMP,resources/DBN.BMP,Door3,-0.295370384,0.053703697,1,0,0,1.1783,optionLeft,70,9515,5,6,0,6,0,1,,,,,,,,,,,,,,,,,,,,,,,,,,,,,,,,,,,,,,,
,,,,,,,,2023-08-16_08h49.55.748,HF_wild_card,2022.2.4,Win32,60.07810153,62ed12acf6326dfba8a97280,64d2fd46c836a06233681665,64dc7edfd511e4427e42da1c,,,,,,,decisionTrl,resources/DP.BMP,resources/DR.BMP,Door4,-0.392592571,-0.033333355,1,0,0,0.7771,optionLeft,60,9575,5,7,0,7,0,1,,,,,,,,,,,,,,,,,,,,,,,,,,,,,,,,,,,,,,,
,,,,,,,,2023-08-16_08h49.55.748,HF_wild_card,2022.2.4,Win32,60.07810153,62ed12acf6326dfba8a97280,64d2fd46c836a06233681665,64dc7edfd511e4427e42da1c,,,,,,,sngl,resources/Empty.png,resources/DBN.BMP,Door2,0.406481566,0.039814808,1,0,0,0.6959,optionRight,20,9595,5,8,0,8,0,1,,,,,,,,,,,,,,,,,,,,,,,,,,,,,,,,,,,,,,,
,,,,,,,,2023-08-16_08h49.55.748,HF_wild_card,2022.2.4,Win32,60.07810153,62ed12acf6326dfba8a97280,64d2fd46c836a06233681665,64dc7edfd511e4427e42da1c,,,,,,,sngl,resources/Empty.png,resources/DG.BMP,Door1,0.377777806,0.027777778,1,0,0,0.7868,optionRight,30,9625,5,9,0,9,0,1,,,,,,,,,,,,,,,,,,,,,,,,,,,,,,,,,,,,,,,
,,,,,,,,2023-08-16_08h49.55.748,HF_wild_card,2022.2.4,Win32,60.07810153,62ed12acf6326dfba8a97280,64d2fd46c836a06233681665,64dc7edfd511e4427e42da1c,,,,,,,sngl,resources/DBN.BMP,resources/Empty.png,Door2,-0.222222222,0.008333312,1,0,0,0.7031,optionLeft,40,9665,5,10,0,10,0,1,,,,,,,,,,,,,,,,,,,,,,,,,,,,,,,,,,,,,,,
,,,,,,,,2023-08-16_08h49.55.748,HF_wild_card,2022.2.4,Win32,60.07810153,62ed12acf6326dfba8a97280,64d2fd46c836a06233681665,64dc7edfd511e4427e42da1c,,,,,,,sngl,resources/DP.BMP,resources/Empty.png,Door4,-0.275925884,0.005555541,1,0,0,0.7626,optionLeft,80,9745,5,11,0,11,0,1,,,,,,,,,,,,,,,,,,,,,,,,,,,,,,,,,,,,,,,
,,,,,,,,2023-08-16_08h49.55.748,HF_wild_card,2022.2.4,Win32,60.07810153,62ed12acf6326dfba8a97280,64d2fd46c836a06233681665,64dc7edfd511e4427e42da1c,,,,,,,sngl,resources/DY.BMP,resources/Empty.png,WildCard_Ex,-0.330555563,0.006481489,1,0,0,0.7458,optionLeft,95,9840,5,12,0,12,0,1,,,,,,,,,,,,,,,,,,,,,,,,,,,,,,,,,,,,,,,
,,,,,,,,2023-08-16_08h49.55.748,HF_wild_card,2022.2.4,Win32,60.07810153,62ed12acf6326dfba8a97280,64d2fd46c836a06233681665,64dc7edfd511e4427e42da1c,,,,,,,sngl,resources/DY.BMP,resources/Empty.png,WildCard_Ex,-0.274999972,0.011111118,1,0,0,0.7034,optionLeft,5,9845,5,13,0,13,0,1,,,,,,,,,,,,,,,,,,,,,,,,,,,,,,,,,,,,,,,
,,,,,,,,2023-08-16_08h49.55.748,HF_wild_card,2022.2.4,Win32,60.07810153,62ed12acf6326dfba8a97280,64d2fd46c836a06233681665,64dc7edfd511e4427e42da1c,,,,,,,decisionTrl,resources/DP.BMP,resources/DR.BMP,Door4,-0.252777735,0.006481489,1,0,0,1.0858,optionLeft,60,9905,5,14,0,14,0,1,,,,,,,,,,,,,,,,,,,,,,,,,,,,,,,,,,,,,,,
,,,,,,,,2023-08-16_08h49.55.748,HF_wild_card,2022.2.4,Win32,60.07810153,62ed12acf6326dfba8a97280,64d2fd46c836a06233681665,64dc7edfd511e4427e42da1c,,,,,,,ctch,resources/DBN.BMP,resources/DR.BMP,Door3,0.306481538,-0.015740748,1,0,0,1.0187,optionRight,70,9975,5,15,0,15,0,1,,,,,,,,,,,,,,,,,,,,,,,,,,,,,,,,,,,,,,,
,,,,,,,,2023-08-16_08h49.55.748,HF_wild_card,2022.2.4,Win32,60.07810153,62ed12acf6326dfba8a97280,64d2fd46c836a06233681665,64dc7edfd511e4427e42da1c,,,,,,,decisionTrl,resources/DG.BMP,resources/DBN.BMP,Door1,-0.281481496,-0.0074074,1,0,0,0.9359,optionLeft,30,10005,5,16,0,16,0,1,,,,,,,,,,,,,,,,,,,,,,,,,,,,,,,,,,,,,,,
,,,,,,,,2023-08-16_08h49.55.748,HF_wild_card,2022.2.4,Win32,60.07810153,62ed12acf6326dfba8a97280,64d2fd46c836a06233681665,64dc7edfd511e4427e42da1c,,,,,,,decisionTrl,resources/DBN.BMP,resources/DG.BMP,Door1,0.385185242,-0.000925947,1,0,0,1.1976,optionRight,30,10035,5,17,0,17,0,1,,,,,,,,,,,,,,,,,,,,,,,,,,,,,,,,,,,,,,,
,,,,,,,,2023-08-16_08h49.55.748,HF_wild_card,2022.2.4,Win32,60.07810153,62ed12acf6326dfba8a97280,64d2fd46c836a06233681665,64dc7edfd511e4427e42da1c,,,,,,,decisionTrl,resources/DY.BMP,resources/DBN.BMP,WildCard_Ex,-0.244444459,-0.009259259,1,0,0,0.9212,optionLeft,95,10130,5,18,0,18,0,1,,,,,,,,,,,,,,,,,,,,,,,,,,,,,,,,,,,,,,,
,,,,,,,,2023-08-16_08h49.55.748,HF_wild_card,2022.2.4,Win32,60.07810153,62ed12acf6326dfba8a97280,64d2fd46c836a06233681665,64dc7edfd511e4427e42da1c,,,,,,,decisionTrl,resources/DP.BMP,resources/DY.BMP,Door4,-0.237037023,0.029629637,1,0,0,1.3282,optionLeft,60,10190,5,19,0,19,0,1,,,,,,,,,,,,,,,,,,,,,,,,,,,,,,,,,,,,,,,
,,,,,,,,2023-08-16_08h49.55.748,HF_wild_card,2022.2.4,Win32,60.07810153,62ed12acf6326dfba8a97280,64d2fd46c836a06233681665,64dc7edfd511e4427e42da1c,,,,,,,decisionTrl,resources/DY.BMP,resources/DG.BMP,Door1,0.359259288,0.067592586,1,0,0,2.7353,optionRight,30,10220,5,20,0,20,0,1,,,,,,,,,,,,,,,,,,,,,,,,,,,,,,,,,,,,,,,
,,,,,,,,2023-08-16_08h49.55.748,HF_wild_card,2022.2.4,Win32,60.07810153,62ed12acf6326dfba8a97280,64d2fd46c836a06233681665,64dc7edfd511e4427e42da1c,,,,,,,sngl,resources/DG.BMP,resources/Empty.png,Door1,-0.387962942,0.045370349,1,0,0,0.7962,optionLeft,30,10250,5,21,0,21,0,1,,,,,,,,,,,,,,,,,,,,,,,,,,,,,,,,,,,,,,,
,,,,,,,,2023-08-16_08h49.55.748,HF_wild_card,2022.2.4,Win32,60.07810153,62ed12acf6326dfba8a97280,64d2fd46c836a06233681665,64dc7edfd511e4427e42da1c,,,,,,,decisionTrl,resources/DBN.BMP,resources/DG.BMP,Door1,0.367592564,-0.001851859,1,0,0,0.8957,optionRight,30,10280,5,22,0,22,0,1,,,,,,,,,,,,,,,,,,,,,,,,,,,,,,,,,,,,,,,
,,,,,,,,2023-08-16_08h49.55.748,HF_wild_card,2022.2.4,Win32,60.07810153,62ed12acf6326dfba8a97280,64d2fd46c836a06233681665,64dc7edfd511e4427e42da1c,,,,,,,sngl,resources/Empty.png,resources/DR.BMP,Door3,0.377777806,-0.020370377,1,0,0,0.7783,optionRight,70,10350,5,23,0,23,0,1,,,,,,,,,,,,,,,,,,,,,,,,,,,,,,,,,,,,,,,
,,,,,,,,2023-08-16_08h49.55.748,HF_wild_card,2022.2.4,Win32,60.07810153,62ed12acf6326dfba8a97280,64d2fd46c836a06233681665,64dc7edfd511e4427e42da1c,,,,,,,decisionTrl,resources/DR.BMP,resources/DP.BMP,Door4,0.395370342,-0.022222236,1,0,0,1.0618,optionRight,80,10430,5,24,0,24,0,1,,,,,,,,,,,,,,,,,,,,,,,,,,,,,,,,,,,,,,,
,,,,,,,,2023-08-16_08h49.55.748,HF_wild_card,2022.2.4,Win32,60.07810153,62ed12acf6326dfba8a97280,64d2fd46c836a06233681665,64dc7edfd511e4427e42da1c,,,,,,,decisionTrl,resources/DG.BMP,resources/DBN.BMP,Door1,-0.349999993,-0.022222236,1,0,0,0.9051,optionLeft,30,10460,5,25,0,25,0,1,,,,,,,,,,,,,,,,,,,,,,,,,,,,,,,,,,,,,,,
,,,,,,,,2023-08-16_08h49.55.748,HF_wild_card,2022.2.4,Win32,60.07810153,62ed12acf6326dfba8a97280,64d2fd46c836a06233681665,64dc7edfd511e4427e42da1c,,,,,,,sngl,resources/DR.BMP,resources/Empty.png,Door3,-0.320370356,-0.0074074,1,0,0,0.745,optionLeft,70,10530,5,26,0,26,0,1,,,,,,,,,,,,,,,,,,,,,,,,,,,,,,,,,,,,,,,
,,,,,,,,2023-08-16_08h49.55.748,HF_wild_card,2022.2.4,Win32,60.07810153,62ed12acf6326dfba8a97280,64d2fd46c836a06233681665,64dc7edfd511e4427e42da1c,,,,,,,decisionTrl,resources/DR.BMP,resources/DP.BMP,Door4,0.366666723,0,1,0,0,0.7955,optionRight,80,10610,5,27,0,27,0,1,,,,,,,,,,,,,,,,,,,,,,,,,,,,,,,,,,,,,,,
,,,,,,,,2023-08-16_08h49.55.748,HF_wild_card,2022.2.4,Win32,60.07810153,62ed12acf6326dfba8a97280,64d2fd46c836a06233681665,64dc7edfd511e4427e42da1c,,,,,,,ctch,resources/DP.BMP,resources/DG.BMP,Door4,-0.264814801,0.023148148,1,0,0,0.7215,optionLeft,80,10690,5,28,0,28,0,1,,,,,,,,,,,,,,,,,,,,,,,,,,,,,,,,,,,,,,,
,,,,,,,,2023-08-16_08h49.55.748,HF_wild_card,2022.2.4,Win32,60.07810153,62ed12acf6326dfba8a97280,64d2fd46c836a06233681665,64dc7edfd511e4427e42da1c,,,,,,,sngl,resources/Empty.png,resources/DY.BMP,WildCard_Ex,0.325000057,-0.012962977,1,0,0,0.6961,optionRight,5,10695,5,29,0,29,0,1,,,,,,,,,,,,,,,,,,,,,,,,,,,,,,,,,,,,,,,
,,,,,,,,2023-08-16_08h49.55.748,HF_wild_card,2022.2.4,Win32,60.07810153,62ed12acf6326dfba8a97280,64d2fd46c836a06233681665,64dc7edfd511e4427e42da1c,,,,,,,ctch,resources/DR.BMP,resources/DBN.BMP,Door3,-0.119444459,0.026851831,1,0,0,1.1283,optionLeft,70,10765,5,30,0,30,0,1,,,,,,,,,,,,,,,,,,,,,,,,,,,,,,,,,,,,,,,
,,,,,,,,2023-08-16_08h49.55.748,HF_wild_card,2022.2.4,Win32,60.07810153,62ed12acf6326dfba8a97280,64d2fd46c836a06233681665,64dc7edfd511e4427e42da1c,,,,,,,decisionTrl,resources/DP.BMP,resources/DR.BMP,Door4,-0.296296296,-0.033333355,1,0,0,0.862,optionLeft,80,10845,5,31,0,31,0,1,,,,,,,,,,,,,,,,,,,,,,,,,,,,,,,,,,,,,,,
,,,,,,,,2023-08-16_08h49.55.748,HF_wild_card,2022.2.4,Win32,60.07810153,62ed12acf6326dfba8a97280,64d2fd46c836a06233681665,64dc7edfd511e4427e42da1c,,,,,,,ctch,resources/DG.BMP,resources/DP.BMP,Door4,0.336111139,-0.010185206,1,0,0,1.5772,optionRight,60,10905,5,32,0,32,0,1,,,,,,,,,,,,,,,,,,,,,,,,,,,,,,,,,,,,,,,
,,,,,,,,2023-08-16_08h49.55.748,HF_wild_card,2022.2.4,Win32,60.07810153,62ed12acf6326dfba8a97280,64d2fd46c836a06233681665,64dc7edfd511e4427e42da1c,,,,,,,decisionTrl,resources/DBN.BMP,resources/DY.BMP,WildCard_Ex,0.266666695,0.017592571,1,0,0,1.3789,optionRight,5,10910,5,33,0,33,0,1,,,,,,,,,,,,,,,,,,,,,,,,,,,,,,,,,,,,,,,
,,,,,,,,2023-08-16_08h49.55.748,HF_wild_card,2022.2.4,Win32,60.07810153,62ed12acf6326dfba8a97280,64d2fd46c836a06233681665,64dc7edfd511e4427e42da1c,,,,,,,decisionTrl,resources/DR.BMP,resources/DY.BMP,WildCard_Ex,0.36018527,-0.025925919,1,0,0,0.8032,optionRight,95,11005,5,34,0,34,0,1,,,,,,,,,,,,,,,,,,,,,,,,,,,,,,,,,,,,,,,
,,,,,,,,2023-08-16_08h49.55.748,HF_wild_card,2022.2.4,Win32,60.07810153,62ed12acf6326dfba8a97280,64d2fd46c836a06233681665,64dc7edfd511e4427e42da1c,,,,,,,sngl,resources/Empty.png,resources/DY.BMP,WildCard_Ex,0.445370427,0.00462963,1,0,0,0.746,optionRight,95,11100,5,35,0,35,0,1,,,,,,,,,,,,,,,,,,,,,,,,,,,,,,,,,,,,,,,
,,,,,,,,2023-08-16_08h49.55.748,HF_wild_card,2022.2.4,Win32,60.07810153,62ed12acf6326dfba8a97280,64d2fd46c836a06233681665,64dc7edfd511e4427e42da1c,,,,,,,decisionTrl,resources/DR.BMP,resources/DP.BMP,Door4,0.392592677,0.01944443,1,0,0,0.6397,optionRight,80,11180,5,36,0,36,0,1,,,,,,,,,,,,,,,,,,,,,,,,,,,,,,,,,,,,,,,
,,,,,,,,2023-08-16_08h49.55.748,HF_wild_card,2022.2.4,Win32,60.07810153,62ed12acf6326dfba8a97280,64d2fd46c836a06233681665,64dc7edfd511e4427e42da1c,,,,,,,decisionTrl,resources/DR.BMP,resources/DP.BMP,Door4,0.270370413,0.009259259,1,0,0,0.6464,optionRight,80,11260,5,37,0,37,0,1,,,,,,,,,,,,,,,,,,,,,,,,,,,,,,,,,,,,,,,
,,,,,,,,2023-08-16_08h49.55.748,HF_wild_card,2022.2.4,Win32,60.07810153,62ed12acf6326dfba8a97280,64d2fd46c836a06233681665,64dc7edfd511e4427e42da1c,,,,,,,ctch,resources/DBN.BMP,resources/DR.BMP,Door3,0.249074088,0.049999979,1,0,0,0.9861,optionRight,70,11330,5,38,0,38,0,1,,,,,,,,,,,,,,,,,,,,,,,,,,,,,,,,,,,,,,,
,,,,,,,,2023-08-16_08h49.55.748,HF_wild_card,2022.2.4,Win32,60.07810153,62ed12acf6326dfba8a97280,64d2fd46c836a06233681665,64dc7edfd511e4427e42da1c,,,,,,,sngl,resources/Empty.png,resources/DP.BMP,Door4,0.325925898,-0.021296289,1,0,0,0.6723,optionRight,60,11390,5,39,0,39,0,1,,,,,,,,,,,,,,,,,,,,,,,,,,,,,,,,,,,,,,,
,,,,,,,,2023-08-16_08h49.55.748,HF_wild_card,2022.2.4,Win32,60.07810153,62ed12acf6326dfba8a97280,64d2fd46c836a06233681665,64dc7edfd511e4427e42da1c,,,,,,,ctch,resources/DP.BMP,resources/DG.BMP,Door4,-0.22592594,-0.018518519,1,0,0,1.0767,optionLeft,80,11470,5,40,0,40,0,1,,,,,,,,,,,,,,,,,,,,,,,,,,,,,,,,,,,,,,,
,,,,,,,,2023-08-16_08h49.55.748,HF_wild_card,2022.2.4,Win32,60.07810153,62ed12acf6326dfba8a97280,64d2fd46c836a06233681665,64dc7edfd511e4427e42da1c,,,,,,,decisionTrl,resources/DG.BMP,resources/DY.BMP,WildCard_Ex,0.263888889,-0.028703725,1,0,0,0.7463,optionRight,95,11565,5,41,0,41,0,1,,,,,,,,,,,,,,,,,,,,,,,,,,,,,,,,,,,,,,,
,,,,,,,,2023-08-16_08h49.55.748,HF_wild_card,2022.2.4,Win32,60.07810153,62ed12acf6326dfba8a97280,64d2fd46c836a06233681665,64dc7edfd511e4427e42da1c,,,,,,,decisionTrl,resources/DG.BMP,resources/DBN.BMP,Door1,-0.301851838,0.026851831,1,0,0,0.8534,optionLeft,30,11595,5,42,0,42,0,1,,,,,,,,,,,,,,,,,,,,,,,,,,,,,,,,,,,,,,,
,,,,,,,,2023-08-16_08h49.55.748,HF_wild_card,2022.2.4,Win32,60.07810153,62ed12acf6326dfba8a97280,64d2fd46c836a06233681665,64dc7edfd511e4427e42da1c,,,,,,,decisionTrl,resources/DG.BMP,resources/DBN.BMP,Door1,-0.375,-0.000925947,1,0,0,1.0457,optionLeft,30,11625,5,43,0,43,0,1,,,,,,,,,,,,,,,,,,,,,,,,,,,,,,,,,,,,,,,
,,,,,,,,2023-08-16_08h49.55.748,HF_wild_card,2022.2.4,Win32,60.07810153,62ed12acf6326dfba8a97280,64d2fd46c836a06233681665,64dc7edfd511e4427e42da1c,,,,,,,,,,,,,,,,,,,,,,,,,,4,0,4,0,1,,,,,,,,,,,,,,,,,,,,,,,,,,,,,,,,,,
,,,,,,,,2023-08-16_08h49.55.748,HF_wild_card,2022.2.4,Win32,60.07810153,62ed12acf6326dfba8a97280,64d2fd46c836a06233681665,64dc7edfd511e4427e42da1c,,,,,,,decisionTrl,resources/DG.BMP,resources/DBN.BMP,Door1,-0.217592593,0.01666666,1,0,0,0.9921,optionLeft,30,11655,6,0,0,0,0,1,,,,,,,,,,,,,,,,,,,,,,,,,,,,,,,,,,,,,,,
,,,,,,,,2023-08-16_08h49.55.748,HF_wild_card,2022.2.4,Win32,60.07810153,62ed12acf6326dfba8a97280,64d2fd46c836a06233681665,64dc7edfd511e4427e42da1c,,,,,,,decisionTrl,resources/DP.BMP,resources/DR.BMP,Door4,-0.227777764,-0.005555577,1,0,0,0.9074,optionLeft,80,11735,6,1,0,1,0,1,,,,,,,,,,,,,,,,,,,,,,,,,,,,,,,,,,,,,,,
,,,,,,,,2023-08-16_08h49.55.748,HF_wild_card,2022.2.4,Win32,60.07810153,62ed12acf6326dfba8a97280,64d2fd46c836a06233681665,64dc7edfd511e4427e42da1c,,,,,,,decisionTrl,resources/DY.BMP,resources/DG.BMP,WildCard_Ex,-0.305555556,0.0074074,1,0,0,0.9729,optionLeft,95,11830,6,2,0,2,0,1,,,,,,,,,,,,,,,,,,,,,,,,,,,,,,,,,,,,,,,
,,,,,,,,2023-08-16_08h49.55.748,HF_wild_card,2022.2.4,Win32,60.07810153,62ed12acf6326dfba8a97280,64d2fd46c836a06233681665,64dc7edfd511e4427e42da1c,,,,,,,decisionTrl,resources/DY.BMP,resources/DR.BMP,WildCard_Ex,-0.373148141,0.000925912,1,0,0,0.7058,optionLeft,5,11835,6,3,0,3,0,1,,,,,,,,,,,,,,,,,,,,,,,,,,,,,,,,,,,,,,,
,,,,,,,,2023-08-16_08h49.55.748,HF_wild_card,2022.2.4,Win32,60.07810153,62ed12acf6326dfba8a97280,64d2fd46c836a06233681665,64dc7edfd511e4427e42da1c,,,,,,,decisionTrl,resources/DY.BMP,resources/DBN.BMP,WildCard_Ex,-0.376851859,0.033333319,1,0,0,1.0619,optionLeft,95,11930,6,4,0,4,0,1,,,,,,,,,,,,,,,,,,,,,,,,,,,,,,,,,,,,,,,
,,,,,,,,2023-08-16_08h49.55.748,HF_wild_card,2022.2.4,Win32,60.07810153,62ed12acf6326dfba8a97280,64d2fd46c836a06233681665,64dc7edfd511e4427e42da1c,,,,,,,decisionTrl,resources/DBN.BMP,resources/DG.BMP,Door1,0.294444473,0.02870369,1,0,0,1.5706,optionRight,30,11960,6,5,0,5,0,1,,,,,,,,,,,,,,,,,,,,,,,,,,,,,,,,,,,,,,,
,,,,,,,,2023-08-16_08h49.55.748,HF_wild_card,2022.2.4,Win32,60.07810153,62ed12acf6326dfba8a97280,64d2fd46c836a06233681665,64dc7edfd511e4427e42da1c,,,,,,,decisionTrl,resources/DBN.BMP,resources/DG.BMP,Door1,0.313888974,-0.00462963,1,0,0,1.1456,optionRight,30,11990,6,6,0,6,0,1,,,,,,,,,,,,,,,,,,,,,,,,,,,,,,,,,,,,,,,
,,,,,,,,2023-08-16_08h49.55.748,HF_wild_card,2022.2.4,Win32,60.07810153,62ed12acf6326dfba8a97280,64d2fd46c836a06233681665,64dc7edfd511e4427e42da1c,,,,,,,decisionTrl,resources/DBN.BMP,resources/DG.BMP,Door1,0.33148151,0.013888889,1,0,0,1.1521,optionRight,30,12020,6,7,0,7,0,1,,,,,,,,,,,,,,,,,,,,,,,,,,,,,,,,,,,,,,,
,,,,,,,,2023-08-16_08h49.55.748,HF_wild_card,2022.2.4,Win32,60.07810153,62ed12acf6326dfba8a97280,64d2fd46c836a06233681665,64dc7edfd511e4427e42da1c,,,,,,,sngl,resources/Empty.png,resources/DBN.BMP,Door2,0.325000057,0.038888896,1,0,0,0.9958,optionRight,40,12060,6,8,0,8,0,1,,,,,,,,,,,,,,,,,,,,,,,,,,,,,,,,,,,,,,,
,,,,,,,,2023-08-16_08h49.55.748,HF_wild_card,2022.2.4,Win32,60.07810153,62ed12acf6326dfba8a97280,64d2fd46c836a06233681665,64dc7edfd511e4427e42da1c,,,,,,,ctch,resources/DR.BMP,resources/DBN.BMP,Door3,-0.397222201,-0.003703718,1,0,0,1.2618,optionLeft,70,12130,6,9,0,9,0,1,,,,,,,,,,,,,,,,,,,,,,,,,,,,,,,,,,,,,,,
,,,,,,,,2023-08-16_08h49.55.748,HF_wild_card,2022.2.4,Win32,60.07810153,62ed12acf6326dfba8a97280,64d2fd46c836a06233681665,64dc7edfd511e4427e42da1c,,,,,,,ctch,resources/DG.BMP,resources/DP.BMP,Door4,0.255555541,-0.018518519,1,0,0,1.5111,optionRight,60,12190,6,10,0,10,0,1,,,,,,,,,,,,,,,,,,,,,,,,,,,,,,,,,,,,,,,
,,,,,,,,2023-08-16_08h49.55.748,HF_wild_card,2022.2.4,Win32,60.07810153,62ed12acf6326dfba8a97280,64d2fd46c836a06233681665,64dc7edfd511e4427e42da1c,,,,,,,decisionTrl,resources/DR.BMP,resources/DY.BMP,WildCard_Ex,0.372222194,0.003703683,1,0,0,0.846,optionRight,95,12285,6,11,0,11,0,1,,,,,,,,,,,,,,,,,,,,,,,,,,,,,,,,,,,,,,,
,,,,,,,,2023-08-16_08h49.55.748,HF_wild_card,2022.2.4,Win32,60.07810153,62ed12acf6326dfba8a97280,64d2fd46c836a06233681665,64dc7edfd511e4427e42da1c,,,,,,,decisionTrl,resources/DBN.BMP,resources/DY.BMP,WildCard_Ex,0.324074074,-0.033333355,1,0,0,0.7711,optionRight,95,12380,6,12,0,12,0,1,,,,,,,,,,,,,,,,,,,,,,,,,,,,,,,,,,,,,,,
,,,,,,,,2023-08-16_08h49.55.748,HF_wild_card,2022.2.4,Win32,60.07810153,62ed12acf6326dfba8a97280,64d2fd46c836a06233681665,64dc7edfd511e4427e42da1c,,,,,,,decisionTrl,resources/DR.BMP,resources/DP.BMP,Door4,0.413888861,-0.052777785,1,0,0,0.8134,optionRight,60,12440,6,13,0,13,0,1,,,,,,,,,,,,,,,,,,,,,,,,,,,,,,,,,,,,,,,
,,,,,,,,2023-08-16_08h49.55.748,HF_wild_card,2022.2.4,Win32,60.07810153,62ed12acf6326dfba8a97280,64d2fd46c836a06233681665,64dc7edfd511e4427e42da1c,,,,,,,decisionTrl,resources/DP.BMP,resources/DR.BMP,Door4,-0.298148155,0.008333312,1,0,0,0.9124,optionLeft,80,12520,6,14,0,14,0,1,,,,,,,,,,,,,,,,,,,,,,,,,,,,,,,,,,,,,,,
,,,,,,,,2023-08-16_08h49.55.748,HF_wild_card,2022.2.4,Win32,60.07810153,62ed12acf6326dfba8a97280,64d2fd46c836a06233681665,64dc7edfd511e4427e42da1c,,,,,,,ctch,resources/DG.BMP,resources/DP.BMP,Door4,0.393518519,0.000925912,1,0,0,1.0619,optionRight,80,12600,6,15,0,15,0,1,,,,,,,,,,,,,,,,,,,,,,,,,,,,,,,,,,,,,,,
,,,,,,,,2023-08-16_08h49.55.748,HF_wild_card,2022.2.4,Win32,60.07810153,62ed12acf6326dfba8a97280,64d2fd46c836a06233681665,64dc7edfd511e4427e42da1c,,,,,,,sngl,resources/Empty.png,resources/DR.BMP,Door3,0.416666667,0.023148148,1,0,0,0.6795,optionRight,70,12670,6,16,0,16,0,1,,,,,,,,,,,,,,,,,,,,,,,,,,,,,,,,,,,,,,,
,,,,,,,,2023-08-16_08h49.55.748,HF_wild_card,2022.2.4,Win32,60.07810153,62ed12acf6326dfba8a97280,64d2fd46c836a06233681665,64dc7edfd511e4427e42da1c,,,,,,,decisionTrl,resources/DP.BMP,resources/DR.BMP,Door4,-0.37037037,0.021296289,1,0,0,0.7385,optionLeft,60,12730,6,17,0,17,0,1,,,,,,,,,,,,,,,,,,,,,,,,,,,,,,,,,,,,,,,
,,,,,,,,2023-08-16_08h49.55.748,HF_wild_card,2022.2.4,Win32,60.07810153,62ed12acf6326dfba8a97280,64d2fd46c836a06233681665,64dc7edfd511e4427e42da1c,,,,,,,sngl,resources/DR.BMP,resources/Empty.png,Door3,-0.327777757,0.03148146,1,0,0,0.6793,optionLeft,70,12800,6,18,0,18,0,1,,,,,,,,,,,,,,,,,,,,,,,,,,,,,,,,,,,,,,,
,,,,,,,,2023-08-16_08h49.55.748,HF_wild_card,2022.2.4,Win32,60.07810153,62ed12acf6326dfba8a97280,64d2fd46c836a06233681665,64dc7edfd511e4427e42da1c,,,,,,,decisionTrl,resources/DR.BMP,resources/DP.BMP,Door4,0.330555527,-0.021296289,1,0,0,0.6961,optionRight,60,12860,6,19,0,19,0,1,,,,,,,,,,,,,,,,,,,,,,,,,,,,,,,,,,,,,,,
,,,,,,,,2023-08-16_08h49.55.748,HF_wild_card,2022.2.4,Win32,60.07810153,62ed12acf6326dfba8a97280,64d2fd46c836a06233681665,64dc7edfd511e4427e42da1c,,,,,,,sngl,resources/DP.BMP,resources/Empty.png,Door4,-0.341666645,0.035185178,1,0,0,0.6749,optionLeft,60,12920,6,20,0,20,0,1,,,,,,,,,,,,,,,,,,,,,,,,,,,,,,,,,,,,,,,
,,,,,,,,2023-08-16_08h49.55.748,HF_wild_card,2022.2.4,Win32,60.07810153,62ed12acf6326dfba8a97280,64d2fd46c836a06233681665,64dc7edfd511e4427e42da1c,,,,,,,sngl,resources/Empty.png,resources/DY.BMP,WildCard_Ex,0.383333418,0.043518526,1,0,0,0.6132,optionRight,5,12925,6,21,0,21,0,1,,,,,,,,,,,,,,,,,,,,,,,,,,,,,,,,,,,,,,,
,,,,,,,,2023-08-16_08h49.55.748,HF_wild_card,2022.2.4,Win32,60.07810153,62ed12acf6326dfba8a97280,64d2fd46c836a06233681665,64dc7edfd511e4427e42da1c,,,,,,,sngl,resources/Empty.png,resources/DG.BMP,Door1,0.240740741,-0.003703718,1,0,0,0.6779,optionRight,30,12955,6,22,0,22,0,1,,,,,,,,,,,,,,,,,,,,,,,,,,,,,,,,,,,,,,,
,,,,,,,,2023-08-16_08h49.55.748,HF_wild_card,2022.2.4,Win32,60.07810153,62ed12acf6326dfba8a97280,64d2fd46c836a06233681665,64dc7edfd511e4427e42da1c,,,,,,,decisionTrl,resources/DG.BMP,resources/DBN.BMP,Door1,-0.235185199,0.030555548,1,0,0,0.9126,optionLeft,30,12985,6,23,0,23,0,1,,,,,,,,,,,,,,,,,,,,,,,,,,,,,,,,,,,,,,,
,,,,,,,,2023-08-16_08h49.55.748,HF_wild_card,2022.2.4,Win32,60.07810153,62ed12acf6326dfba8a97280,64d2fd46c836a06233681665,64dc7edfd511e4427e42da1c,,,,,,,decisionTrl,resources/DY.BMP,resources/DP.BMP,WildCard_Ex,-0.249074088,-0.003703718,1,0,0,1.0122,optionLeft,5,12990,6,24,0,24,0,1,,,,,,,,,,,,,,,,,,,,,,,,,,,,,,,,,,,,,,,
,,,,,,,,2023-08-16_08h49.55.748,HF_wild_card,2022.2.4,Win32,60.07810153,62ed12acf6326dfba8a97280,64d2fd46c836a06233681665,64dc7edfd511e4427e42da1c,,,,,,,decisionTrl,resources/DG.BMP,resources/DY.BMP,WildCard_Ex,0.441666638,0.021296289,1,0,0,0.7455,optionRight,5,12995,6,25,0,25,0,1,,,,,,,,,,,,,,,,,,,,,,,,,,,,,,,,,,,,,,,
,,,,,,,,2023-08-16_08h49.55.748,HF_wild_card,2022.2.4,Win32,60.07810153,62ed12acf6326dfba8a97280,64d2fd46c836a06233681665,64dc7edfd511e4427e42da1c,,,,,,,sngl,resources/DY.BMP,resources/Empty.png,WildCard_Ex,-0.253703718,0.02870369,1,0,0,0.6891,optionLeft,95,13090,6,26,0,26,0,1,,,,,,,,,,,,,,,,,,,,,,,,,,,,,,,,,,,,,,,
,,,,,,,,2023-08-16_08h49.55.748,HF_wild_card,2022.2.4,Win32,60.07810153,62ed12acf6326dfba8a97280,64d2fd46c836a06233681665,64dc7edfd511e4427e42da1c,,,,,,,ctch,resources/DP.BMP,resources/DG.BMP,Door4,-0.271296254,-0.001851859,1,0,0,1.1383,optionLeft,60,13150,6,27,0,27,0,1,,,,,,,,,,,,,,,,,,,,,,,,,,,,,,,,,,,,,,,
,,,,,,,,2023-08-16_08h49.55.748,HF_wild_card,2022.2.4,Win32,60.07810153,62ed12acf6326dfba8a97280,64d2fd46c836a06233681665,64dc7edfd511e4427e42da1c,,,,,,,sngl,resources/DBN.BMP,resources/Empty.png,Door2,-0.368518511,0.022222201,1,0,0,0.7454,optionLeft,20,13170,6,28,0,28,0,1,,,,,,,,,,,,,,,,,,,,,,,,,,,,,,,,,,,,,,,
,,,,,,,,2023-08-16_08h49.55.748,HF_wild_card,2022.2.4,Win32,60.07810153,62ed12acf6326dfba8a97280,64d2fd46c836a06233681665,64dc7edfd511e4427e42da1c,,,,,,,decisionTrl,resources/DG.BMP,resources/DBN.BMP,Door1,-0.329629616,0.000925912,1,0,0,1.2286,optionLeft,30,13200,6,29,0,29,0,1,,,,,,,,,,,,,,,,,,,,,,,,,,,,,,,,,,,,,,,
,,,,,,,,2023-08-16_08h49.55.748,HF_wild_card,2022.2.4,Win32,60.07810153,62ed12acf6326dfba8a97280,64d2fd46c836a06233681665,64dc7edfd511e4427e42da1c,,,,,,,ctch,resources/DBN.BMP,resources/DR.BMP,Door3,0.27407406,0.04074072,1,0,0,1.3711,optionRight,70,13270,6,30,0,30,0,1,,,,,,,,,,,,,,,,,,,,,,,,,,,,,,,,,,,,,,,
,,,,,,,,2023-08-16_08h49.55.748,HF_wild_card,2022.2.4,Win32,60.07810153,62ed12acf6326dfba8a97280,64d2fd46c836a06233681665,64dc7edfd511e4427e42da1c,,,,,,,decisionTrl,resources/DG.BMP,resources/DBN.BMP,Door1,-0.256481453,0.009259259,1,0,0,1.2711,optionLeft,30,13300,6,31,0,31,0,1,,,,,,,,,,,,,,,,,,,,,,,,,,,,,,,,,,,,,,,
,,,,,,,,2023-08-16_08h49.55.748,HF_wild_card,2022.2.4,Win32,60.07810153,62ed12acf6326dfba8a97280,64d2fd46c836a06233681665,64dc7edfd511e4427e42da1c,,,,,,,sngl,resources/DY.BMP,resources/Empty.png,WildCard_Ex,-0.355555534,-0.002777771,1,0,0,0.8789,optionLeft,5,13305,6,32,0,32,0,1,,,,,,,,,,,,,,,,,,,,,,,,,,,,,,,,,,,,,,,
,,,,,,,,2023-08-16_08h49.55.748,HF_wild_card,2022.2.4,Win32,60.07810153,62ed12acf6326dfba8a97280,64d2fd46c836a06233681665,64dc7edfd511e4427e42da1c,,,,,,,ctch,resources/DBN.BMP,resources/DR.BMP,Door3,0.337037122,0.000925912,1,0,0,1.5372,optionRight,70,13375,6,33,0,33,0,1,,,,,,,,,,,,,,,,,,,,,,,,,,,,,,,,,,,,,,,
,,,,,,,,2023-08-16_08h49.55.748,HF_wild_card,2022.2.4,Win32,60.07810153,62ed12acf6326dfba8a97280,64d2fd46c836a06233681665,64dc7edfd511e4427e42da1c,,,,,,,sngl,resources/Empty.png,resources/DY.BMP,WildCard_Ex,0.321296268,-0.020370377,1,0,0,0.7888,optionRight,95,13470,6,34,0,34,0,1,,,,,,,,,,,,,,,,,,,,,,,,,,,,,,,,,,,,,,,
,,,,,,,,2023-08-16_08h49.55.748,HF_wild_card,2022.2.4,Win32,60.07810153,62ed12acf6326dfba8a97280,64d2fd46c836a06233681665,64dc7edfd511e4427e42da1c,,,,,,,decisionTrl,resources/DP.BMP,resources/DY.BMP,Door4,-0.426851838,-0.013888889,1,0,0,0.9388,optionLeft,60,13530,6,35,0,35,0,1,,,,,,,,,,,,,,,,,,,,,,,,,,,,,,,,,,,,,,,
,,,,,,,,2023-08-16_08h49.55.748,HF_wild_card,2022.2.4,Win32,60.07810153,62ed12acf6326dfba8a97280,64d2fd46c836a06233681665,64dc7edfd511e4427e42da1c,,,,,,,ctch,resources/DR.BMP,resources/DBN.BMP,Door2,0.24537037,-0.046296296,1,0,0,1.3788,optionRight,20,13550,6,36,0,36,0,1,,,,,,,,,,,,,,,,,,,,,,,,,,,,,,,,,,,,,,,
,,,,,,,,2023-08-16_08h49.55.748,HF_wild_card,2022.2.4,Win32,60.07810153,62ed12acf6326dfba8a97280,64d2fd46c836a06233681665,64dc7edfd511e4427e42da1c,,,,,,,decisionTrl,resources/DBN.BMP,resources/DG.BMP,Door1,0.33148151,-0.008333347,1,0,0,0.8891,optionRight,30,13580,6,37,0,37,0,1,,,,,,,,,,,,,,,,,,,,,,,,,,,,,,,,,,,,,,,
,,,,,,,,2023-08-16_08h49.55.748,HF_wild_card,2022.2.4,Win32,60.07810153,62ed12acf6326dfba8a97280,64d2fd46c836a06233681665,64dc7edfd511e4427e42da1c,,,,,,,sngl,resources/DG.BMP,resources/Empty.png,Door1,-0.327777757,0.032407407,1,0,0,0.6962,optionLeft,30,13610,6,38,0,38,0,1,,,,,,,,,,,,,,,,,,,,,,,,,,,,,,,,,,,,,,,
,,,,,,,,2023-08-16_08h49.55.748,HF_wild_card,2022.2.4,Win32,60.07810153,62ed12acf6326dfba8a97280,64d2fd46c836a06233681665,64dc7edfd511e4427e42da1c,,,,,,,decisionTrl,resources/DP.BMP,resources/DR.BMP,Door4,-0.360185164,-0.023148148,1,0,0,1.1782,optionLeft,60,13670,6,39,0,39,0,1,,,,,,,,,,,,,,,,,,,,,,,,,,,,,,,,,,,,,,,
,,,,,,,,2023-08-16_08h49.55.748,HF_wild_card,2022.2.4,Win32,60.07810153,62ed12acf6326dfba8a97280,64d2fd46c836a06233681665,64dc7edfd511e4427e42da1c,,,,,,,decisionTrl,resources/DR.BMP,resources/DP.BMP,Door4,0.350926011,-0.002777771,1,0,0,0.7463,optionRight,80,13750,6,40,0,40,0,1,,,,,,,,,,,,,,,,,,,,,,,,,,,,,,,,,,,,,,,
,,,,,,,,2023-08-16_08h49.55.748,HF_wild_card,2022.2.4,Win32,60.07810153,62ed12acf6326dfba8a97280,64d2fd46c836a06233681665,64dc7edfd511e4427e42da1c,,,,,,,sngl,resources/Empty.png,resources/DP.BMP,Door4,0.36018527,-0.00462963,1,0,0,0.7628,optionRight,80,13830,6,41,0,41,0,1,,,,,,,,,,,,,,,,,,,,,,,,,,,,,,,,,,,,,,,
,,,,,,,,2023-08-16_08h49.55.748,HF_wild_card,2022.2.4,Win32,60.07810153,62ed12acf6326dfba8a97280,64d2fd46c836a06233681665,64dc7edfd511e4427e42da1c,,,,,,,ctch,resources/DP.BMP,resources/DG.BMP,Door4,-0.431481467,0.037037037,1,0,0,0.839,optionLeft,60,13890,6,42,0,42,0,1,,,,,,,,,,,,,,,,,,,,,,,,,,,,,,,,,,,,,,,
,,,,,,,,2023-08-16_08h49.55.748,HF_wild_card,2022.2.4,Win32,60.07810153,62ed12acf6326dfba8a97280,64d2fd46c836a06233681665,64dc7edfd511e4427e42da1c,,,,,,,decisionTrl,resources/DR.BMP,resources/DP.BMP,Door4,0.299074102,-0.030555548,1,0,0,0.9881,optionRight,60,13950,6,43,0,43,0,1,,,,,,,,,,,,,,,,,,,,,,,,,,,,,,,,,,,,,,,
,,,,,,,,2023-08-16_08h49.55.748,HF_wild_card,2022.2.4,Win32,60.07810153,62ed12acf6326dfba8a97280,64d2fd46c836a06233681665,64dc7edfd511e4427e42da1c,,,,,,,,,,,,,,,,,,,,,,,,,,5,0,5,0,1,,,,,,,,,,,,,,,,,,,,,,,,,,,,,,,,,,
,,,,,,,,2023-08-16_08h49.55.748,HF_wild_card,2022.2.4,Win32,60.07810153,62ed12acf6326dfba8a97280,64d2fd46c836a06233681665,64dc7edfd511e4427e42da1c,,,,,,,decisionTrl,resources/DG.BMP,resources/DBN.BMP,Door1,-0.184259273,0.023148148,1,0,0,1.4012,optionLeft,30,13980,7,0,0,0,0,1,,,,,,,,,,,,,,,,,,,,,,,,,,,,,,,,,,,,,,,
,,,,,,,,2023-08-16_08h49.55.748,HF_wild_card,2022.2.4,Win32,60.07810153,62ed12acf6326dfba8a97280,64d2fd46c836a06233681665,64dc7edfd511e4427e42da1c,,,,,,,ctch,resources/DG.BMP,resources/DP.BMP,Door4,0.363888917,-0.065740762,1,0,0,1.7691,optionRight,60,14040,7,1,0,1,0,1,,,,,,,,,,,,,,,,,,,,,,,,,,,,,,,,,,,,,,,
,,,,,,,,2023-08-16_08h49.55.748,HF_wild_card,2022.2.4,Win32,60.07810153,62ed12acf6326dfba8a97280,64d2fd46c836a06233681665,64dc7edfd511e4427e42da1c,,,,,,,ctch,resources/DR.BMP,resources/DBN.BMP,Door3,-0.271296254,0.015740748,1,0,0,1.163,optionLeft,70,14110,7,2,0,2,0,1,,,,,,,,,,,,,,,,,,,,,,,,,,,,,,,,,,,,,,,
,,,,,,,,2023-08-16_08h49.55.748,HF_wild_card,2022.2.4,Win32,60.07810153,62ed12acf6326dfba8a97280,64d2fd46c836a06233681665,64dc7edfd511e4427e42da1c,,,,,,,decisionTrl,resources/DR.BMP,resources/DP.BMP,Door4,0.340740769,-0.041666667,1,0,0,1.1634,optionRight,80,14190,7,3,0,3,0,1,,,,,,,,,,,,,,,,,,,,,,,,,,,,,,,,,,,,,,,
,,,,,,,,2023-08-16_08h49.55.748,HF_wild_card,2022.2.4,Win32,60.07810153,62ed12acf6326dfba8a97280,64d2fd46c836a06233681665,64dc7edfd511e4427e42da1c,,,,,,,decisionTrl,resources/DG.BMP,resources/DBN.BMP,Door1,-0.353703711,0,1,0,0,1.2134,optionLeft,30,14220,7,4,0,4,0,1,,,,,,,,,,,,,,,,,,,,,,,,,,,,,,,,,,,,,,,
,,,,,,,,2023-08-16_08h49.55.748,HF_wild_card,2022.2.4,Win32,60.07810153,62ed12acf6326dfba8a97280,64d2fd46c836a06233681665,64dc7edfd511e4427e42da1c,,,,,,,decisionTrl,resources/DP.BMP,resources/DR.BMP,Door4,-0.287037037,0.008333312,1,0,0,0.996,optionLeft,80,14300,7,5,0,5,0,1,,,,,,,,,,,,,,,,,,,,,,,,,,,,,,,,,,,,,,,
,,,,,,,,2023-08-16_08h49.55.748,HF_wild_card,2022.2.4,Win32,60.07810153,62ed12acf6326dfba8a97280,64d2fd46c836a06233681665,64dc7edfd511e4427e42da1c,,,,,,,ctch,resources/DP.BMP,resources/DG.BMP,Door4,-0.375925912,-0.031481496,1,0,0,0.7638,optionLeft,60,14360,7,6,0,6,0,1,,,,,,,,,,,,,,,,,,,,,,,,,,,,,,,,,,,,,,,
,,,,,,,,2023-08-16_08h49.55.748,HF_wild_card,2022.2.4,Win32,60.07810153,62ed12acf6326dfba8a97280,64d2fd46c836a06233681665,64dc7edfd511e4427e42da1c,,,,,,,ctch,resources/DR.BMP,resources/DBN.BMP,Door3,-0.190740727,-0.009259259,1,0,0,1.3225,optionLeft,70,14430,7,7,0,7,0,1,,,,,,,,,,,,,,,,,,,,,,,,,,,,,,,,,,,,,,,
,,,,,,,,2023-08-16_08h49.55.748,HF_wild_card,2022.2.4,Win32,60.07810153,62ed12acf6326dfba8a97280,64d2fd46c836a06233681665,64dc7edfd511e4427e42da1c,,,,,,,decisionTrl,resources/DBN.BMP,resources/DG.BMP,Door1,0.487037094,-0.020370377,1,0,0,0.8565,optionRight,30,14460,7,8,0,8,0,1,,,,,,,,,,,,,,,,,,,,,,,,,,,,,,,,,,,,,,,
,,,,,,,,2023-08-16_08h49.55.748,HF_wild_card,2022.2.4,Win32,60.07810153,62ed12acf6326dfba8a97280,64d2fd46c836a06233681665,64dc7edfd511e4427e42da1c,,,,,,,decisionTrl,resources/DBN.BMP,resources/DG.BMP,Door1,0.337962963,0.009259259,1,0,0,0.7479,optionRight,30,14490,7,9,0,9,0,1,,,,,,,,,,,,,,,,,,,,,,,,,,,,,,,,,,,,,,,
,,,,,,,,2023-08-16_08h49.55.748,HF_wild_card,2022.2.4,Win32,60.07810153,62ed12acf6326dfba8a97280,64d2fd46c836a06233681665,64dc7edfd511e4427e42da1c,,,,,,,decisionTrl,resources/DBN.BMP,resources/DG.BMP,Door1,0.346296381,0.003703683,1,0,0,0.7142,optionRight,30,14520,7,10,0,10,0,1,,,,,,,,,,,,,,,,,,,,,,,,,,,,,,,,,,,,,,,
,,,,,,,,2023-08-16_08h49.55.748,HF_wild_card,2022.2.4,Win32,60.07810153,62ed12acf6326dfba8a97280,64d2fd46c836a06233681665,64dc7edfd511e4427e42da1c,,,,,,,decisionTrl,resources/DP.BMP,resources/DR.BMP,Door4,-0.390740748,-0.015740748,1,0,0,0.9636,optionLeft,80,14600,7,11,0,11,0,1,,,,,,,,,,,,,,,,,,,,,,,,,,,,,,,,,,,,,,,
,,,,,,,,2023-08-16_08h49.55.748,HF_wild_card,2022.2.4,Win32,60.07810153,62ed12acf6326dfba8a97280,64d2fd46c836a06233681665,64dc7edfd511e4427e42da1c,,,,,,,ctch,resources/DG.BMP,resources/DP.BMP,Door4,0.376851824,-0.063888903,1,0,0,1.08,optionRight,80,14680,7,12,0,12,0,1,,,,,,,,,,,,,,,,,,,,,,,,,,,,,,,,,,,,,,,
,,,,,,,,2023-08-16_08h49.55.748,HF_wild_card,2022.2.4,Win32,60.07810153,62ed12acf6326dfba8a97280,64d2fd46c836a06233681665,64dc7edfd511e4427e42da1c,,,,,,,decisionTrl,resources/DR.BMP,resources/DP.BMP,Door4,0.320370427,-0.013888889,1,0,0,0.7471,optionRight,60,14740,7,13,0,13,0,1,,,,,,,,,,,,,,,,,,,,,,,,,,,,,,,,,,,,,,,
,,,,,,,,2023-08-16_08h49.55.748,HF_wild_card,2022.2.4,Win32,60.07810153,62ed12acf6326dfba8a97280,64d2fd46c836a06233681665,64dc7edfd511e4427e42da1c,,,,,,,decisionTrl,resources/DP.BMP,resources/DR.BMP,Door4,-0.322222215,-0.009259259,1,0,0,0.83,optionLeft,60,14800,7,14,0,14,0,1,,,,,,,,,,,,,,,,,,,,,,,,,,,,,,,,,,,,,,,
,,,,,,,,2023-08-16_08h49.55.748,HF_wild_card,2022.2.4,Win32,60.07810153,62ed12acf6326dfba8a97280,64d2fd46c836a06233681665,64dc7edfd511e4427e42da1c,,,,,,,decisionTrl,resources/DR.BMP,resources/DP.BMP,Door4,0.340740769,-0.051851873,1,0,0,0.7546,optionRight,60,14860,7,15,0,15,0,1,,,,,,,,,,,,,,,,,,,,,,,,,,,,,,,,,,,,,,,
,,,,,,,,2023-08-16_08h49.55.748,HF_wild_card,2022.2.4,Win32,60.07810153,62ed12acf6326dfba8a97280,64d2fd46c836a06233681665,64dc7edfd511e4427e42da1c,,,,,,,decisionTrl,resources/DG.BMP,resources/DBN.BMP,Door1,-0.336111104,0.03148146,1,0,0,1.046,optionLeft,30,14890,7,16,0,16,0,1,,,,,,,,,,,,,,,,,,,,,,,,,,,,,,,,,,,,,,,
,,,,,,,,2023-08-16_08h49.55.748,HF_wild_card,2022.2.4,Win32,60.07810153,62ed12acf6326dfba8a97280,64d2fd46c836a06233681665,64dc7edfd511e4427e42da1c,,,,,,,decisionTrl,resources/DG.BMP,resources/DBN.BMP,Door1,-0.338888875,0.042592578,1,0,0,0.9464,optionLeft,30,14920,7,17,0,17,0,1,,,,,,,,,,,,,,,,,,,,,,,,,,,,,,,,,,,,,,,
,,,,,,,,2023-08-16_08h49.55.748,HF_wild_card,2022.2.4,Win32,60.07810153,62ed12acf6326dfba8a97280,64d2fd46c836a06233681665,64dc7edfd511e4427e42da1c,,,,,,,ctch,resources/DP.BMP,resources/DG.BMP,Door4,-0.204629616,-0.005555577,1,0,0,0.9301,optionLeft,60,14980,7,18,0,18,0,1,,,,,,,,,,,,,,,,,,,,,,,,,,,,,,,,,,,,,,,
,,,,,,,,2023-08-16_08h49.55.748,HF_wild_card,2022.2.4,Win32,60.07810153,62ed12acf6326dfba8a97280,64d2fd46c836a06233681665,64dc7edfd511e4427e42da1c,,,,,,,decisionTrl,resources/DR.BMP,resources/DP.BMP,Door4,0.375,-0.002777771,1,0,0,0.714,optionRight,80,15060,7,19,0,19,0,1,,,,,,,,,,,,,,,,,,,,,,,,,,,,,,,,,,,,,,,
,,,,,,,,2023-08-16_08h49.55.748,HF_wild_card,2022.2.4,Win32,60.07810153,62ed12acf6326dfba8a97280,64d2fd46c836a06233681665,64dc7edfd511e4427e42da1c,,,,,,,decisionTrl,resources/DP.BMP,resources/DR.BMP,Door4,-0.337037016,-0.006481489,1,0,0,0.8303,optionLeft,60,15120,7,20,0,20,0,1,,,,,,,,,,,,,,,,,,,,,,,,,,,,,,,,,,,,,,,
,,,,,,,,2023-08-16_08h49.55.748,HF_wild_card,2022.2.4,Win32,60.07810153,62ed12acf6326dfba8a97280,64d2fd46c836a06233681665,64dc7edfd511e4427e42da1c,,,,,,,decisionTrl,resources/DR.BMP,resources/DP.BMP,Door4,0.41851849,-0.047222243,1,0,0,0.8639,optionRight,80,15200,7,21,0,21,0,1,,,,,,,,,,,,,,,,,,,,,,,,,,,,,,,,,,,,,,,
,,,,,,,,2023-08-16_08h49.55.748,HF_wild_card,2022.2.4,Win32,60.07810153,62ed12acf6326dfba8a97280,64d2fd46c836a06233681665,64dc7edfd511e4427e42da1c,,,,,,,ctch,resources/DBN.BMP,resources/DR.BMP,Door3,0.443518603,-0.051851873,1,0,0,0.8732,optionRight,70,15270,7,22,0,22,0,1,,,,,,,,,,,,,,,,,,,,,,,,,,,,,,,,,,,,,,,
,,,,,,,,2023-08-16_08h49.55.748,HF_wild_card,2022.2.4,Win32,60.07810153,62ed12acf6326dfba8a97280,64d2fd46c836a06233681665,64dc7edfd511e4427e42da1c,,,,,,,decisionTrl,resources/DG.BMP,resources/DBN.BMP,Door1,-0.273148148,0.009259259,1,0,0,1.3172,optionLeft,30,15300,7,23,0,23,0,1,,,,,,,,,,,,,,,,,,,,,,,,,,,,,,,,,,,,,,,
,,,,,,,,2023-08-16_08h49.55.748,HF_wild_card,2022.2.4,Win32,60.07810153,62ed12acf6326dfba8a97280,64d2fd46c836a06233681665,64dc7edfd511e4427e42da1c,,,,,,,decisionTrl,resources/DR.BMP,resources/DP.BMP,Door4,0.347222222,-0.028703725,1,0,0,0.7965,optionRight,60,15360,7,24,0,24,0,1,,,,,,,,,,,,,,,,,,,,,,,,,,,,,,,,,,,,,,,
,,,,,,,,2023-08-16_08h49.55.748,HF_wild_card,2022.2.4,Win32,60.07810153,62ed12acf6326dfba8a97280,64d2fd46c836a06233681665,64dc7edfd511e4427e42da1c,,,,,,,ctch,resources/DR.BMP,resources/DBN.BMP,Door3,-0.302777785,-0.023148148,1,0,0,1.0632,optionLeft,70,15430,7,25,0,25,0,1,,,,,,,,,,,,,,,,,,,,,,,,,,,,,,,,,,,,,,,
,,,,,,,,2023-08-16_08h49.55.748,HF_wild_card,2022.2.4,Win32,60.07810153,62ed12acf6326dfba8a97280,64d2fd46c836a06233681665,64dc7edfd511e4427e42da1c,,,,,,,ctch,resources/DBN.BMP,resources/DR.BMP,Door3,0.432407379,-0.042592614,1,0,0,0.7639,optionRight,70,15500,7,26,0,26,0,1,,,,,,,,,,,,,,,,,,,,,,,,,,,,,,,,,,,,,,,
,,,,,,,,2023-08-16_08h49.55.748,HF_wild_card,2022.2.4,Win32,60.07810153,62ed12acf6326dfba8a97280,64d2fd46c836a06233681665,64dc7edfd511e4427e42da1c,,,,,,,decisionTrl,resources/DBN.BMP,resources/DG.BMP,Door1,0.356481481,-0.042592614,1,0,0,0.8472,optionRight,30,15530,7,27,0,27,0,1,,,,,,,,,,,,,,,,,,,,,,,,,,,,,,,,,,,,,,,
,,,,,,,,2023-08-16_08h49.55.748,HF_wild_card,2022.2.4,Win32,60.07810153,62ed12acf6326dfba8a97280,64d2fd46c836a06233681665,64dc7edfd511e4427e42da1c,,,,,,,decisionTrl,resources/DP.BMP,resources/DR.BMP,Door4,-0.246296282,0.033333319,1,0,0,0.8634,optionLeft,60,15590,7,28,0,28,0,1,,,,,,,,,,,,,,,,,,,,,,,,,,,,,,,,,,,,,,,
,,,,,,,,2023-08-16_08h49.55.748,HF_wild_card,2022.2.4,Win32,60.07810153,62ed12acf6326dfba8a97280,64d2fd46c836a06233681665,64dc7edfd511e4427e42da1c,,,,,,,decisionTrl,resources/DG.BMP,resources/DBN.BMP,Door1,-0.274999972,0.006481489,1,0,0,1.113,optionLeft,30,15620,7,29,0,29,0,1,,,,,,,,,,,,,,,,,,,,,,,,,,,,,,,,,,,,,,,
,,,,,,,,2023-08-16_08h49.55.748,HF_wild_card,2022.2.4,Win32,60.07810153,62ed12acf6326dfba8a97280,64d2fd46c836a06233681665,64dc7edfd511e4427e42da1c,,,,,,,ctch,resources/DG.BMP,resources/DP.BMP,Door4,0.316666638,0.013888889,1,0,0,0.7803,optionRight,80,15700,7,30,0,30,0,1,,,,,,,,,,,,,,,,,,,,,,,,,,,,,,,,,,,,,,,
,,,,,,,,2023-08-16_08h49.55.748,HF_wild_card,2022.2.4,Win32,60.07810153,62ed12acf6326dfba8a97280,64d2fd46c836a06233681665,64dc7edfd511e4427e42da1c,,,,,,,ctch,resources/DBN.BMP,resources/DR.BMP,Door3,0.215740769,-0.023148148,1,0,0,1.0132,optionRight,70,15770,7,31,0,31,0,1,,,,,,,,,,,,,,,,,,,,,,,,,,,,,,,,,,,,,,,
,,,,,,,,2023-08-16_08h49.55.748,HF_wild_card,2022.2.4,Win32,60.07810153,62ed12acf6326dfba8a97280,64d2fd46c836a06233681665,64dc7edfd511e4427e42da1c,,,,,,,decisionTrl,resources/DP.BMP,resources/DR.BMP,Door4,-0.314814815,0.03148146,1,0,0,0.8797,optionLeft,80,15850,7,32,0,32,0,1,,,,,,,,,,,,,,,,,,,,,,,,,,,,,,,,,,,,,,,
,,,,,,,,2023-08-16_08h49.55.748,HF_wild_card,2022.2.4,Win32,60.07810153,62ed12acf6326dfba8a97280,64d2fd46c836a06233681665,64dc7edfd511e4427e42da1c,,,,,,,decisionTrl,resources/DBN.BMP,resources/DG.BMP,Door1,0.416666667,0.00462963,1,0,0,0.7238,optionRight,30,15880,7,33,0,33,0,1,,,,,,,,,,,,,,,,,,,,,,,,,,,,,,,,,,,,,,,
,,,,,,,,2023-08-16_08h49.55.748,HF_wild_card,2022.2.4,Win32,60.07810153,62ed12acf6326dfba8a97280,64d2fd46c836a06233681665,64dc7edfd511e4427e42da1c,,,,,,,ctch,resources/DP.BMP,resources/DG.BMP,Door4,-0.236111111,-0.013888889,1,0,0,0.8468,optionLeft,60,15940,7,34,0,34,0,1,,,,,,,,,,,,,,,,,,,,,,,,,,,,,,,,,,,,,,,
,,,,,,,,2023-08-16_08h49.55.748,HF_wild_card,2022.2.4,Win32,60.07810153,62ed12acf6326dfba8a97280,64d2fd46c836a06233681665,64dc7edfd511e4427e42da1c,,,,,,,decisionTrl,resources/DBN.BMP,resources/DG.BMP,Door1,0.291666667,-0.005555577,1,0,0,0.8972,optionRight,30,15970,7,35,0,35,0,1,,,,,,,,,,,,,,,,,,,,,,,,,,,,,,,,,,,,,,,
,,,,,,,,2023-08-16_08h49.55.748,HF_wild_card,2022.2.4,Win32,60.07810153,62ed12acf6326dfba8a97280,64d2fd46c836a06233681665,64dc7edfd511e4427e42da1c,,,,,,,,,,,,,,,,,,,,,,,,,,6,0,6,0,1,,,,,,,,,,,,,,,,,,,,,,,,,,,,,,,,,,
,,,,,,,,2023-08-16_08h49.55.748,HF_wild_card,2022.2.4,Win32,60.07810153,62ed12acf6326dfba8a97280,64d2fd46c836a06233681665,64dc7edfd511e4427e42da1c,,,,,,,,,,,,,,,,,,,,,,,,,,,,,,,3,,,,,,,,,,,,,,,,,,,,,,,,,,,,,,,,,
,,,,,,,,2023-08-16_08h49.55.748,HF_wild_card,2022.2.4,Win32,60.07810153,62ed12acf6326dfba8a97280,64d2fd46c836a06233681665,64dc7edfd511e4427e42da1c,,,,,,,,,,,,,,,,,,,,,,,,,,,,,,,,,,,,,,,,,,,,,,,,,,,,,,,,,,,,,,,,
,,,,,,,,2023-08-16_08h49.55.748,HF_wild_card,2022.2.4,Win32,60.07810153,62ed12acf6326dfba8a97280,64d2fd46c836a06233681665,64dc7edfd511e4427e42da1c,,,,,,,,,,,,,,,,,,,,,,,,,,,,,,,,40,WC_nonExtreme,resources/DB.BMP,0,0,0,0,1,,,,,,,,,,,,,,,,,,,,,,,,,
,,,,,,,,2023-08-16_08h49.55.748,HF_wild_card,2022.2.4,Win32,60.07810153,62ed12acf6326dfba8a97280,64d2fd46c836a06233681665,64dc7edfd511e4427e42da1c,,,,,,,,,,,,,,,,,,,,,,,,,,,,,,,,30,Door3,resources/DR.BMP,1,0,1,0,1,,,,,,,,,,,,,,,,,,,,,,,,,
,,,,,,,,2023-08-16_08h49.55.748,HF_wild_card,2022.2.4,Win32,60.07810153,62ed12acf6326dfba8a97280,64d2fd46c836a06233681665,64dc7edfd511e4427e42da1c,,,,,,,,,,,,,,,,,,,,,,,,,,,,,,,,80,Door4,resources/DP.BMP,2,0,2,0,1,,,,,,,,,,,,,,,,,,,,,,,,,
,,,,,,,,2023-08-16_08h49.55.748,HF_wild_card,2022.2.4,Win32,60.07810153,62ed12acf6326dfba8a97280,64d2fd46c836a06233681665,64dc7edfd511e4427e42da1c,,,,,,,,,,,,,,,,,,,,,,,,,,,,,,,,95,WC_extreme,resources/DY.BMP,3,0,3,0,1,,,,,,,,,,,,,,,,,,,,,,,,,
,,,,,,,,2023-08-16_08h49.55.748,HF_wild_card,2022.2.4,Win32,60.07810153,62ed12acf6326dfba8a97280,64d2fd46c836a06233681665,64dc7edfd511e4427e42da1c,,,,,,,,,,,,,,,,,,,,,,,,,,,,,,,,20,Door2,resources/DBN.BMP,4,0,4,0,1,,,,,,,,,,,,,,,,,,,,,,,,,
,,,,,,,,2023-08-16_08h49.55.748,HF_wild_card,2022.2.4,Win32,60.07810153,62ed12acf6326dfba8a97280,64d2fd46c836a06233681665,64dc7edfd511e4427e42da1c,,,,,,,,,,,,,,,,,,,,,,,,,,,,,,,,30,Door1,resources/DG.BMP,5,0,5,0,1,,,,,,,,,,,,,,,,,,,,,,,,,
,,,,,,,,2023-08-16_08h49.55.748,HF_wild_card,2022.2.4,Win32,60.07810153,62ed12acf6326dfba8a97280,64d2fd46c836a06233681665,64dc7edfd511e4427e42da1c,,,,,,,,,,,,,,,,,,,,,,,,,,,,,,,,,,,,,,,,,,,,,,,,,,,,,,,,,,,,,,,,
