Condition,Low fixed image (Door1),Low risky image (Door2),High fixed image (Door3),High risky image (Door4),NonExtreme Wild Card 1,NonExtreme Wild Card 2,,date,expName,psychopyVersion,OS,frameRate,PROLIFIC_PID,STUDY_ID,SESSION_ID,mouse_2.x,mouse_2.y,mouse_2.leftButton,mouse_2.midButton,mouse_2.rightButton,mouse_2.clicked_name,Trial Type,Left Option Image,Right Option Image,Chosen Door,mouse.x,mouse.y,mouse.leftButton,mouse.midButton,mouse.rightButton,mouse.time,mouse.clicked_name,Feedback,Cumulative Reward,Block,trial.thisRepN,trial.thisTrialN,trial.thisN,trial.thisIndex,trial.ran,blocks.thisRepN,blocks.thisTrialN,blocks.thisN,blocks.thisIndex,blocks.ran,Money conversion,First Outcome Reported,Shown Door (First Outcome),Displayed Image (First Outcome),outcomes.thisRepN,outcomes.thisTrialN,outcomes.thisN,outcomes.thisIndex,outcomes.ran,judgments.thisRepN,judgments.thisTrialN,judgments.thisN,judgments.thisIndex,judgments.ran,freqMouse.x,freqMouse.y,freqMouse.leftButton,freqMouse.midButton,freqMouse.rightButton,freqMouse.clicked_name,FQJ for first outcome,FQJ for second outcome,Shown Door,Displayed Image,trials.thisRepN,trials.thisTrialN,trials.thisN,trials.thisIndex,trials.ran,judgBlock.thisRepN,judgBlock.thisTrialN,judgBlock.thisN,judgBlock.thisIndex,judgBlock.ran
2,resources/DG.BMP,resources/DR.BMP,resources/DP.BMP,resources/DY.BMP,resources/DB.BMP,resources/DBN.BMP,,2023-08-16_08h15.51.083,HF_wild_card,2022.2.4,Win32,60.11421701,5cb710c9ac9259001681e253,64d2fd46c836a06233681665,64dc7790573c091cd0be8935,,,,,,,,,,,,,,,,,,,,,,,,,,,,,,,,,,,,,,,,,,,,,,,,,,,,,,,,,,,,,,,,
,,,,,,,,2023-08-16_08h15.51.083,HF_wild_card,2022.2.4,Win32,60.11421701,5cb710c9ac9259001681e253,64d2fd46c836a06233681665,64dc7790573c091cd0be8935,0.010185185,-0.418518519,1,0,0,agree,,,,,,,,,,,,,,,,,,,,,,,,,,,,,,,,,,,,,,,,,,,,,,,,,,,,,,,,,,
,,,,,,,,2023-08-16_08h15.51.083,HF_wild_card,2022.2.4,Win32,60.11421701,5cb710c9ac9259001681e253,64d2fd46c836a06233681665,64dc7790573c091cd0be8935,,,,,,,,,,,,,,,,,,,,,,,,,,,,,,,,,,,,,,,,,,,,,,,,,,,,,,,,,,,,,,,,
,,,,,,,,2023-08-16_08h15.51.083,HF_wild_card,2022.2.4,Win32,60.11421701,5cb710c9ac9259001681e253,64d2fd46c836a06233681665,64dc7790573c091cd0be8935,,,,,,,decisionTrl,resources/DG.BMP,resources/DBN.BMP,WildCard_NonEx,0.269444444,-0.07962963,1,0,0,3.4244,optionRight,55,55,1,0,0,0,0,1,,,,,,,,,,,,,,,,,,,,,,,,,,,,,,,,,,,,,,,
,,,,,,,,2023-08-16_08h15.51.083,HF_wild_card,2022.2.4,Win32,60.11421701,5cb710c9ac9259001681e253,64d2fd46c836a06233681665,64dc7790573c091cd0be8935,,,,,,,ctch,resources/DY.BMP,resources/DG.BMP,Door4,-0.250925926,0.012962963,1,0,0,2.267,optionLeft,80,135,1,1,0,1,0,1,,,,,,,,,,,,,,,,,,,,,,,,,,,,,,,,,,,,,,,
,,,,,,,,2023-08-16_08h15.51.083,HF_wild_card,2022.2.4,Win32,60.11421701,5cb710c9ac9259001681e253,64d2fd46c836a06233681665,64dc7790573c091cd0be8935,,,,,,,decisionTrl,resources/DR.BMP,resources/DG.BMP,Door2,-0.316666667,-0.005555556,1,0,0,1.4967,optionLeft,40,175,1,2,0,2,0,1,,,,,,,,,,,,,,,,,,,,,,,,,,,,,,,,,,,,,,,
,,,,,,,,2023-08-16_08h15.51.083,HF_wild_card,2022.2.4,Win32,60.11421701,5cb710c9ac9259001681e253,64d2fd46c836a06233681665,64dc7790573c091cd0be8935,,,,,,,ctch,resources/DR.BMP,resources/DP.BMP,Door2,-0.361111111,0.018518519,1,0,0,1.8804,optionLeft,40,215,1,3,0,3,0,1,,,,,,,,,,,,,,,,,,,,,,,,,,,,,,,,,,,,,,,
,,,,,,,,2023-08-16_08h15.51.083,HF_wild_card,2022.2.4,Win32,60.11421701,5cb710c9ac9259001681e253,64d2fd46c836a06233681665,64dc7790573c091cd0be8935,,,,,,,ctch,resources/DY.BMP,resources/DG.BMP,Door4,-0.302777778,0.003703704,1,0,0,0.8415,optionLeft,60,275,1,4,0,4,0,1,,,,,,,,,,,,,,,,,,,,,,,,,,,,,,,,,,,,,,,
,,,,,,,,2023-08-16_08h15.51.083,HF_wild_card,2022.2.4,Win32,60.11421701,5cb710c9ac9259001681e253,64d2fd46c836a06233681665,64dc7790573c091cd0be8935,,,,,,,decisionTrl,resources/DBN.BMP,resources/DY.BMP,WildCard_NonEx,-0.286111111,0.056481481,1,0,0,0.8989,optionLeft,45,320,1,5,0,5,0,1,,,,,,,,,,,,,,,,,,,,,,,,,,,,,,,,,,,,,,,
,,,,,,,,2023-08-16_08h15.51.083,HF_wild_card,2022.2.4,Win32,60.11421701,5cb710c9ac9259001681e253,64d2fd46c836a06233681665,64dc7790573c091cd0be8935,,,,,,,decisionTrl,resources/DY.BMP,resources/DP.BMP,Door4,-0.175,0.024074074,1,0,0,0.7301,optionLeft,80,400,1,6,0,6,0,1,,,,,,,,,,,,,,,,,,,,,,,,,,,,,,,,,,,,,,,
,,,,,,,,2023-08-16_08h15.51.083,HF_wild_card,2022.2.4,Win32,60.11421701,5cb710c9ac9259001681e253,64d2fd46c836a06233681665,64dc7790573c091cd0be8935,,,,,,,decisionTrl,resources/DG.BMP,resources/DR.BMP,Door2,0.300925926,0.028703704,1,0,0,1.0969,optionRight,20,420,1,7,0,7,0,1,,,,,,,,,,,,,,,,,,,,,,,,,,,,,,,,,,,,,,,
,,,,,,,,2023-08-16_08h15.51.083,HF_wild_card,2022.2.4,Win32,60.11421701,5cb710c9ac9259001681e253,64d2fd46c836a06233681665,64dc7790573c091cd0be8935,,,,,,,ctch,resources/DG.BMP,resources/DY.BMP,Door4,0.349074074,0.062962963,1,0,0,0.8811,optionRight,80,500,1,8,0,8,0,1,,,,,,,,,,,,,,,,,,,,,,,,,,,,,,,,,,,,,,,
,,,,,,,,2023-08-16_08h15.51.083,HF_wild_card,2022.2.4,Win32,60.11421701,5cb710c9ac9259001681e253,64d2fd46c836a06233681665,64dc7790573c091cd0be8935,,,,,,,sngl,resources/Empty.png,resources/DY.BMP,Door4,0.263888889,0.083333333,1,0,0,1.1302,optionRight,60,560,1,9,0,9,0,1,,,,,,,,,,,,,,,,,,,,,,,,,,,,,,,,,,,,,,,
,,,,,,,,2023-08-16_08h15.51.083,HF_wild_card,2022.2.4,Win32,60.11421701,5cb710c9ac9259001681e253,64d2fd46c836a06233681665,64dc7790573c091cd0be8935,,,,,,,decisionTrl,resources/DP.BMP,resources/DBN.BMP,WildCard_NonEx,0.448148148,0.040740741,1,0,0,1.1636,optionRight,55,615,1,10,0,10,0,1,,,,,,,,,,,,,,,,,,,,,,,,,,,,,,,,,,,,,,,
,,,,,,,,2023-08-16_08h15.51.083,HF_wild_card,2022.2.4,Win32,60.11421701,5cb710c9ac9259001681e253,64d2fd46c836a06233681665,64dc7790573c091cd0be8935,,,,,,,decisionTrl,resources/DY.BMP,resources/DP.BMP,Door4,-0.261111111,0.058333333,1,0,0,0.7727,optionLeft,80,695,1,11,0,11,0,1,,,,,,,,,,,,,,,,,,,,,,,,,,,,,,,,,,,,,,,
,,,,,,,,2023-08-16_08h15.51.083,HF_wild_card,2022.2.4,Win32,60.11421701,5cb710c9ac9259001681e253,64d2fd46c836a06233681665,64dc7790573c091cd0be8935,,,,,,,sngl,resources/Empty.png,resources/DBN.BMP,WildCard_NonEx,0.494444444,0.081481481,1,0,0,0.7616,optionRight,55,750,1,12,0,12,0,1,,,,,,,,,,,,,,,,,,,,,,,,,,,,,,,,,,,,,,,
,,,,,,,,2023-08-16_08h15.51.083,HF_wild_card,2022.2.4,Win32,60.11421701,5cb710c9ac9259001681e253,64d2fd46c836a06233681665,64dc7790573c091cd0be8935,,,,,,,decisionTrl,resources/DR.BMP,resources/DG.BMP,Door2,-0.316666667,0.060185185,1,0,0,1.3728,optionLeft,20,770,1,13,0,13,0,1,,,,,,,,,,,,,,,,,,,,,,,,,,,,,,,,,,,,,,,
,,,,,,,,2023-08-16_08h15.51.083,HF_wild_card,2022.2.4,Win32,60.11421701,5cb710c9ac9259001681e253,64d2fd46c836a06233681665,64dc7790573c091cd0be8935,,,,,,,sngl,resources/Empty.png,resources/DR.BMP,Door2,0.226851852,0.058333333,1,0,0,0.6379,optionRight,20,790,1,14,0,14,0,1,,,,,,,,,,,,,,,,,,,,,,,,,,,,,,,,,,,,,,,
,,,,,,,,2023-08-16_08h15.51.083,HF_wild_card,2022.2.4,Win32,60.11421701,5cb710c9ac9259001681e253,64d2fd46c836a06233681665,64dc7790573c091cd0be8935,,,,,,,decisionTrl,resources/DP.BMP,resources/DY.BMP,Door4,0.337037037,0.078703704,1,0,0,1.0134,optionRight,80,870,1,15,0,15,0,1,,,,,,,,,,,,,,,,,,,,,,,,,,,,,,,,,,,,,,,
,,,,,,,,2023-08-16_08h15.51.083,HF_wild_card,2022.2.4,Win32,60.11421701,5cb710c9ac9259001681e253,64d2fd46c836a06233681665,64dc7790573c091cd0be8935,,,,,,,decisionTrl,resources/DBN.BMP,resources/DG.BMP,WildCard_NonEx,-0.313888889,0.040740741,1,0,0,0.6978,optionLeft,55,925,1,16,0,16,0,1,,,,,,,,,,,,,,,,,,,,,,,,,,,,,,,,,,,,,,,
,,,,,,,,2023-08-16_08h15.51.083,HF_wild_card,2022.2.4,Win32,60.11421701,5cb710c9ac9259001681e253,64d2fd46c836a06233681665,64dc7790573c091cd0be8935,,,,,,,decisionTrl,resources/DP.BMP,resources/DY.BMP,Door4,0.455555556,0.025925926,1,0,0,0.9128,optionRight,80,1005,1,17,0,17,0,1,,,,,,,,,,,,,,,,,,,,,,,,,,,,,,,,,,,,,,,
,,,,,,,,2023-08-16_08h15.51.083,HF_wild_card,2022.2.4,Win32,60.11421701,5cb710c9ac9259001681e253,64d2fd46c836a06233681665,64dc7790573c091cd0be8935,,,,,,,decisionTrl,resources/DR.BMP,resources/DG.BMP,Door2,-0.264814815,0.049074074,1,0,0,1.4477,optionLeft,20,1025,1,18,0,18,0,1,,,,,,,,,,,,,,,,,,,,,,,,,,,,,,,,,,,,,,,
,,,,,,,,2023-08-16_08h15.51.083,HF_wild_card,2022.2.4,Win32,60.11421701,5cb710c9ac9259001681e253,64d2fd46c836a06233681665,64dc7790573c091cd0be8935,,,,,,,decisionTrl,resources/DBN.BMP,resources/DR.BMP,WildCard_NonEx,-0.236111111,0.094444444,1,0,0,0.8803,optionLeft,45,1070,1,19,0,19,0,1,,,,,,,,,,,,,,,,,,,,,,,,,,,,,,,,,,,,,,,
,,,,,,,,2023-08-16_08h15.51.083,HF_wild_card,2022.2.4,Win32,60.11421701,5cb710c9ac9259001681e253,64d2fd46c836a06233681665,64dc7790573c091cd0be8935,,,,,,,decisionTrl,resources/DG.BMP,resources/DR.BMP,Door2,0.317592593,0.021296296,1,0,0,1.0982,optionRight,20,1090,1,20,0,20,0,1,,,,,,,,,,,,,,,,,,,,,,,,,,,,,,,,,,,,,,,
,,,,,,,,2023-08-16_08h15.51.083,HF_wild_card,2022.2.4,Win32,60.11421701,5cb710c9ac9259001681e253,64d2fd46c836a06233681665,64dc7790573c091cd0be8935,,,,,,,decisionTrl,resources/DY.BMP,resources/DBN.BMP,WildCard_NonEx,0.42962963,0.032407407,1,0,0,0.8472,optionRight,55,1145,1,21,0,21,0,1,,,,,,,,,,,,,,,,,,,,,,,,,,,,,,,,,,,,,,,
,,,,,,,,2023-08-16_08h15.51.083,HF_wild_card,2022.2.4,Win32,60.11421701,5cb710c9ac9259001681e253,64d2fd46c836a06233681665,64dc7790573c091cd0be8935,,,,,,,ctch,resources/DR.BMP,resources/DP.BMP,Door2,-0.286111111,0.056481481,1,0,0,1.1468,optionLeft,20,1165,1,22,0,22,0,1,,,,,,,,,,,,,,,,,,,,,,,,,,,,,,,,,,,,,,,
,,,,,,,,2023-08-16_08h15.51.083,HF_wild_card,2022.2.4,Win32,60.11421701,5cb710c9ac9259001681e253,64d2fd46c836a06233681665,64dc7790573c091cd0be8935,,,,,,,ctch,resources/DP.BMP,resources/DR.BMP,Door2,0.316666667,0.030555556,1,0,0,1.0082,optionRight,40,1205,1,23,0,23,0,1,,,,,,,,,,,,,,,,,,,,,,,,,,,,,,,,,,,,,,,
,,,,,,,,2023-08-16_08h15.51.083,HF_wild_card,2022.2.4,Win32,60.11421701,5cb710c9ac9259001681e253,64d2fd46c836a06233681665,64dc7790573c091cd0be8935,,,,,,,decisionTrl,resources/DY.BMP,resources/DP.BMP,Door4,-0.217592593,0.014814815,1,0,0,2.2638,optionLeft,60,1265,1,24,0,24,0,1,,,,,,,,,,,,,,,,,,,,,,,,,,,,,,,,,,,,,,,
,,,,,,,,2023-08-16_08h15.51.083,HF_wild_card,2022.2.4,Win32,60.11421701,5cb710c9ac9259001681e253,64d2fd46c836a06233681665,64dc7790573c091cd0be8935,,,,,,,sngl,resources/DG.BMP,resources/Empty.png,Door1,-0.148148148,0.026851852,1,0,0,0.9311,optionLeft,30,1295,1,25,0,25,0,1,,,,,,,,,,,,,,,,,,,,,,,,,,,,,,,,,,,,,,,
,,,,,,,,2023-08-16_08h15.51.083,HF_wild_card,2022.2.4,Win32,60.11421701,5cb710c9ac9259001681e253,64d2fd46c836a06233681665,64dc7790573c091cd0be8935,,,,,,,sngl,resources/Empty.png,resources/DG.BMP,Door1,0.458333333,0.086111111,1,0,0,2.97,optionRight,30,1325,1,26,0,26,0,1,,,,,,,,,,,,,,,,,,,,,,,,,,,,,,,,,,,,,,,
,,,,,,,,2023-08-16_08h15.51.083,HF_wild_card,2022.2.4,Win32,60.11421701,5cb710c9ac9259001681e253,64d2fd46c836a06233681665,64dc7790573c091cd0be8935,,,,,,,sngl,resources/DR.BMP,resources/Empty.png,Door2,-0.318518519,0.035185185,1,0,0,0.6965,optionLeft,40,1365,1,27,0,27,0,1,,,,,,,,,,,,,,,,,,,,,,,,,,,,,,,,,,,,,,,
,,,,,,,,2023-08-16_08h15.51.083,HF_wild_card,2022.2.4,Win32,60.11421701,5cb710c9ac9259001681e253,64d2fd46c836a06233681665,64dc7790573c091cd0be8935,,,,,,,decisionTrl,resources/DY.BMP,resources/DP.BMP,Door4,-0.467592593,0.091666667,1,0,0,1.1056,optionLeft,80,1445,1,28,0,28,0,1,,,,,,,,,,,,,,,,,,,,,,,,,,,,,,,,,,,,,,,
,,,,,,,,2023-08-16_08h15.51.083,HF_wild_card,2022.2.4,Win32,60.11421701,5cb710c9ac9259001681e253,64d2fd46c836a06233681665,64dc7790573c091cd0be8935,,,,,,,sngl,resources/Empty.png,resources/DP.BMP,Door3,0.303703704,0.07037037,1,0,0,0.8469,optionRight,70,1515,1,29,0,29,0,1,,,,,,,,,,,,,,,,,,,,,,,,,,,,,,,,,,,,,,,
,,,,,,,,2023-08-16_08h15.51.083,HF_wild_card,2022.2.4,Win32,60.11421701,5cb710c9ac9259001681e253,64d2fd46c836a06233681665,64dc7790573c091cd0be8935,,,,,,,sngl,resources/DY.BMP,resources/Empty.png,Door4,-0.306481481,0.075925926,1,0,0,2.004,optionLeft,80,1595,1,30,0,30,0,1,,,,,,,,,,,,,,,,,,,,,,,,,,,,,,,,,,,,,,,
,,,,,,,,2023-08-16_08h15.51.083,HF_wild_card,2022.2.4,Win32,60.11421701,5cb710c9ac9259001681e253,64d2fd46c836a06233681665,64dc7790573c091cd0be8935,,,,,,,sngl,resources/DBN.BMP,resources/Empty.png,WildCard_NonEx,-0.25462963,0.061111111,1,0,0,0.7135,optionLeft,45,1640,1,31,0,31,0,1,,,,,,,,,,,,,,,,,,,,,,,,,,,,,,,,,,,,,,,
,,,,,,,,2023-08-16_08h15.51.083,HF_wild_card,2022.2.4,Win32,60.11421701,5cb710c9ac9259001681e253,64d2fd46c836a06233681665,64dc7790573c091cd0be8935,,,,,,,ctch,resources/DG.BMP,resources/DY.BMP,Door4,0.256481481,0.093518519,1,0,0,0.9819,optionRight,60,1700,1,32,0,32,0,1,,,,,,,,,,,,,,,,,,,,,,,,,,,,,,,,,,,,,,,
,,,,,,,,2023-08-16_08h15.51.083,HF_wild_card,2022.2.4,Win32,60.11421701,5cb710c9ac9259001681e253,64d2fd46c836a06233681665,64dc7790573c091cd0be8935,,,,,,,decisionTrl,resources/DBN.BMP,resources/DP.BMP,WildCard_NonEx,-0.235185185,0.101851852,1,0,0,0.8986,optionLeft,45,1745,1,33,0,33,0,1,,,,,,,,,,,,,,,,,,,,,,,,,,,,,,,,,,,,,,,
,,,,,,,,2023-08-16_08h15.51.083,HF_wild_card,2022.2.4,Win32,60.11421701,5cb710c9ac9259001681e253,64d2fd46c836a06233681665,64dc7790573c091cd0be8935,,,,,,,decisionTrl,resources/DG.BMP,resources/DR.BMP,Door2,0.341666667,0.053703704,1,0,0,0.7478,optionRight,40,1785,1,34,0,34,0,1,,,,,,,,,,,,,,,,,,,,,,,,,,,,,,,,,,,,,,,
,,,,,,,,2023-08-16_08h15.51.083,HF_wild_card,2022.2.4,Win32,60.11421701,5cb710c9ac9259001681e253,64d2fd46c836a06233681665,64dc7790573c091cd0be8935,,,,,,,decisionTrl,resources/DP.BMP,resources/DY.BMP,Door4,0.362962963,0.132407407,1,0,0,0.78,optionRight,80,1865,1,35,0,35,0,1,,,,,,,,,,,,,,,,,,,,,,,,,,,,,,,,,,,,,,,
,,,,,,,,2023-08-16_08h15.51.083,HF_wild_card,2022.2.4,Win32,60.11421701,5cb710c9ac9259001681e253,64d2fd46c836a06233681665,64dc7790573c091cd0be8935,,,,,,,decisionTrl,resources/DG.BMP,resources/DR.BMP,Door2,0.394444444,0.030555556,1,0,0,0.7295,optionRight,20,1885,1,36,0,36,0,1,,,,,,,,,,,,,,,,,,,,,,,,,,,,,,,,,,,,,,,
,,,,,,,,2023-08-16_08h15.51.083,HF_wild_card,2022.2.4,Win32,60.11421701,5cb710c9ac9259001681e253,64d2fd46c836a06233681665,64dc7790573c091cd0be8935,,,,,,,sngl,resources/DP.BMP,resources/Empty.png,Door3,-0.274074074,0.089814815,1,0,0,1.2134,optionLeft,70,1955,1,37,0,37,0,1,,,,,,,,,,,,,,,,,,,,,,,,,,,,,,,,,,,,,,,
,,,,,,,,2023-08-16_08h15.51.083,HF_wild_card,2022.2.4,Win32,60.11421701,5cb710c9ac9259001681e253,64d2fd46c836a06233681665,64dc7790573c091cd0be8935,,,,,,,ctch,resources/DP.BMP,resources/DR.BMP,Door2,0.258333333,0.050925926,1,0,0,1.7559,optionRight,40,1995,1,38,0,38,0,1,,,,,,,,,,,,,,,,,,,,,,,,,,,,,,,,,,,,,,,
,,,,,,,,2023-08-16_08h15.51.083,HF_wild_card,2022.2.4,Win32,60.11421701,5cb710c9ac9259001681e253,64d2fd46c836a06233681665,64dc7790573c091cd0be8935,,,,,,,decisionTrl,resources/DR.BMP,resources/DG.BMP,Door1,0.394444444,0.053703704,1,0,0,0.93,optionRight,30,2025,1,39,0,39,0,1,,,,,,,,,,,,,,,,,,,,,,,,,,,,,,,,,,,,,,,
,,,,,,,,2023-08-16_08h15.51.083,HF_wild_card,2022.2.4,Win32,60.11421701,5cb710c9ac9259001681e253,64d2fd46c836a06233681665,64dc7790573c091cd0be8935,,,,,,,sngl,resources/Empty.png,resources/DBN.BMP,WildCard_NonEx,0.451851852,0.057407407,1,0,0,0.6988,optionRight,45,2070,1,40,0,40,0,1,,,,,,,,,,,,,,,,,,,,,,,,,,,,,,,,,,,,,,,
,,,,,,,,2023-08-16_08h15.51.083,HF_wild_card,2022.2.4,Win32,60.11421701,5cb710c9ac9259001681e253,64d2fd46c836a06233681665,64dc7790573c091cd0be8935,,,,,,,sngl,resources/DBN.BMP,resources/Empty.png,WildCard_NonEx,-0.260185185,0.087962963,1,0,0,0.5975,optionLeft,55,2125,1,41,0,41,0,1,,,,,,,,,,,,,,,,,,,,,,,,,,,,,,,,,,,,,,,
,,,,,,,,2023-08-16_08h15.51.083,HF_wild_card,2022.2.4,Win32,60.11421701,5cb710c9ac9259001681e253,64d2fd46c836a06233681665,64dc7790573c091cd0be8935,,,,,,,decisionTrl,resources/DP.BMP,resources/DY.BMP,Door4,0.353703704,0.041666667,1,0,0,0.7469,optionRight,60,2185,1,42,0,42,0,1,,,,,,,,,,,,,,,,,,,,,,,,,,,,,,,,,,,,,,,
,,,,,,,,2023-08-16_08h15.51.083,HF_wild_card,2022.2.4,Win32,60.11421701,5cb710c9ac9259001681e253,64d2fd46c836a06233681665,64dc7790573c091cd0be8935,,,,,,,decisionTrl,resources/DR.BMP,resources/DBN.BMP,WildCard_NonEx,0.516666667,0.115740741,1,0,0,0.6981,optionRight,55,2240,1,43,0,43,0,1,,,,,,,,,,,,,,,,,,,,,,,,,,,,,,,,,,,,,,,
,,,,,,,,2023-08-16_08h15.51.083,HF_wild_card,2022.2.4,Win32,60.11421701,5cb710c9ac9259001681e253,64d2fd46c836a06233681665,64dc7790573c091cd0be8935,,,,,,,,,,,,,,,,,,,,,,,,,,0,0,0,0,1,,,,,,,,,,,,,,,,,,,,,,,,,,,,,,,,,,
,,,,,,,,2023-08-16_08h15.51.083,HF_wild_card,2022.2.4,Win32,60.11421701,5cb710c9ac9259001681e253,64d2fd46c836a06233681665,64dc7790573c091cd0be8935,,,,,,,decisionTrl,resources/DP.BMP,resources/DY.BMP,Door4,0.433333333,0.061111111,1,0,0,1.4949,optionRight,60,2300,2,0,0,0,0,1,,,,,,,,,,,,,,,,,,,,,,,,,,,,,,,,,,,,,,,
,,,,,,,,2023-08-16_08h15.51.083,HF_wild_card,2022.2.4,Win32,60.11421701,5cb710c9ac9259001681e253,64d2fd46c836a06233681665,64dc7790573c091cd0be8935,,,,,,,decisionTrl,resources/DR.BMP,resources/DG.BMP,Door2,-0.274074074,0.026851852,1,0,0,1.1052,optionLeft,20,2320,2,1,0,1,0,1,,,,,,,,,,,,,,,,,,,,,,,,,,,,,,,,,,,,,,,
,,,,,,,,2023-08-16_08h15.51.083,HF_wild_card,2022.2.4,Win32,60.11421701,5cb710c9ac9259001681e253,64d2fd46c836a06233681665,64dc7790573c091cd0be8935,,,,,,,sngl,resources/Empty.png,resources/DBN.BMP,WildCard_NonEx,0.525,0.075925926,1,0,0,0.6521,optionRight,55,2375,2,2,0,2,0,1,,,,,,,,,,,,,,,,,,,,,,,,,,,,,,,,,,,,,,,
,,,,,,,,2023-08-16_08h15.51.083,HF_wild_card,2022.2.4,Win32,60.11421701,5cb710c9ac9259001681e253,64d2fd46c836a06233681665,64dc7790573c091cd0be8935,,,,,,,decisionTrl,resources/DR.BMP,resources/DG.BMP,Door2,-0.178703704,0.034259259,1,0,0,1.2516,optionLeft,20,2395,2,3,0,3,0,1,,,,,,,,,,,,,,,,,,,,,,,,,,,,,,,,,,,,,,,
,,,,,,,,2023-08-16_08h15.51.083,HF_wild_card,2022.2.4,Win32,60.11421701,5cb710c9ac9259001681e253,64d2fd46c836a06233681665,64dc7790573c091cd0be8935,,,,,,,ctch,resources/DR.BMP,resources/DP.BMP,Door2,-0.332407407,-0.031481481,1,0,0,1.2565,optionLeft,40,2435,2,4,0,4,0,1,,,,,,,,,,,,,,,,,,,,,,,,,,,,,,,,,,,,,,,
,,,,,,,,2023-08-16_08h15.51.083,HF_wild_card,2022.2.4,Win32,60.11421701,5cb710c9ac9259001681e253,64d2fd46c836a06233681665,64dc7790573c091cd0be8935,,,,,,,decisionTrl,resources/DY.BMP,resources/DP.BMP,Door4,-0.330555556,0.05462963,1,0,0,0.9008,optionLeft,80,2515,2,5,0,5,0,1,,,,,,,,,,,,,,,,,,,,,,,,,,,,,,,,,,,,,,,
,,,,,,,,2023-08-16_08h15.51.083,HF_wild_card,2022.2.4,Win32,60.11421701,5cb710c9ac9259001681e253,64d2fd46c836a06233681665,64dc7790573c091cd0be8935,,,,,,,ctch,resources/DG.BMP,resources/DY.BMP,Door4,0.258333333,0.075925926,1,0,0,0.8134,optionRight,80,2595,2,6,0,6,0,1,,,,,,,,,,,,,,,,,,,,,,,,,,,,,,,,,,,,,,,
,,,,,,,,2023-08-16_08h15.51.083,HF_wild_card,2022.2.4,Win32,60.11421701,5cb710c9ac9259001681e253,64d2fd46c836a06233681665,64dc7790573c091cd0be8935,,,,,,,decisionTrl,resources/DR.BMP,resources/DBN.BMP,WildCard_NonEx,0.381481481,0.125925926,1,0,0,0.8963,optionRight,45,2640,2,7,0,7,0,1,,,,,,,,,,,,,,,,,,,,,,,,,,,,,,,,,,,,,,,
,,,,,,,,2023-08-16_08h15.51.083,HF_wild_card,2022.2.4,Win32,60.11421701,5cb710c9ac9259001681e253,64d2fd46c836a06233681665,64dc7790573c091cd0be8935,,,,,,,decisionTrl,resources/DP.BMP,resources/DBN.BMP,WildCard_NonEx,0.413888889,0.115740741,1,0,0,1.0253,optionRight,55,2695,2,8,0,8,0,1,,,,,,,,,,,,,,,,,,,,,,,,,,,,,,,,,,,,,,,
,,,,,,,,2023-08-16_08h15.51.083,HF_wild_card,2022.2.4,Win32,60.11421701,5cb710c9ac9259001681e253,64d2fd46c836a06233681665,64dc7790573c091cd0be8935,,,,,,,ctch,resources/DR.BMP,resources/DP.BMP,Door2,-0.32962963,0.018518519,1,0,0,1.0146,optionLeft,20,2715,2,9,0,9,0,1,,,,,,,,,,,,,,,,,,,,,,,,,,,,,,,,,,,,,,,
,,,,,,,,2023-08-16_08h15.51.083,HF_wild_card,2022.2.4,Win32,60.11421701,5cb710c9ac9259001681e253,64d2fd46c836a06233681665,64dc7790573c091cd0be8935,,,,,,,sngl,resources/DP.BMP,resources/Empty.png,Door3,-0.208333333,0.007407407,1,0,0,0.6805,optionLeft,70,2785,2,10,0,10,0,1,,,,,,,,,,,,,,,,,,,,,,,,,,,,,,,,,,,,,,,
,,,,,,,,2023-08-16_08h15.51.083,HF_wild_card,2022.2.4,Win32,60.11421701,5cb710c9ac9259001681e253,64d2fd46c836a06233681665,64dc7790573c091cd0be8935,,,,,,,sngl,resources/Empty.png,resources/DY.BMP,Door4,0.336111111,0.040740741,1,0,0,0.5793,optionRight,80,2865,2,11,0,11,0,1,,,,,,,,,,,,,,,,,,,,,,,,,,,,,,,,,,,,,,,
,,,,,,,,2023-08-16_08h15.51.083,HF_wild_card,2022.2.4,Win32,60.11421701,5cb710c9ac9259001681e253,64d2fd46c836a06233681665,64dc7790573c091cd0be8935,,,,,,,decisionTrl,resources/DP.BMP,resources/DY.BMP,Door4,0.286111111,0.066666667,1,0,0,0.7959,optionRight,80,2945,2,12,0,12,0,1,,,,,,,,,,,,,,,,,,,,,,,,,,,,,,,,,,,,,,,
,,,,,,,,2023-08-16_08h15.51.083,HF_wild_card,2022.2.4,Win32,60.11421701,5cb710c9ac9259001681e253,64d2fd46c836a06233681665,64dc7790573c091cd0be8935,,,,,,,decisionTrl,resources/DY.BMP,resources/DP.BMP,Door4,-0.343518519,0.037962963,1,0,0,1.2066,optionLeft,60,3005,2,13,0,13,0,1,,,,,,,,,,,,,,,,,,,,,,,,,,,,,,,,,,,,,,,
,,,,,,,,2023-08-16_08h15.51.083,HF_wild_card,2022.2.4,Win32,60.11421701,5cb710c9ac9259001681e253,64d2fd46c836a06233681665,64dc7790573c091cd0be8935,,,,,,,decisionTrl,resources/DR.BMP,resources/DG.BMP,Door2,-0.325925926,0.033333333,1,0,0,1.0807,optionLeft,20,3025,2,14,0,14,0,1,,,,,,,,,,,,,,,,,,,,,,,,,,,,,,,,,,,,,,,
,,,,,,,,2023-08-16_08h15.51.083,HF_wild_card,2022.2.4,Win32,60.11421701,5cb710c9ac9259001681e253,64d2fd46c836a06233681665,64dc7790573c091cd0be8935,,,,,,,decisionTrl,resources/DY.BMP,resources/DBN.BMP,WildCard_NonEx,0.283333333,0.056481481,1,0,0,0.7662,optionRight,45,3070,2,15,0,15,0,1,,,,,,,,,,,,,,,,,,,,,,,,,,,,,,,,,,,,,,,
,,,,,,,,2023-08-16_08h15.51.083,HF_wild_card,2022.2.4,Win32,60.11421701,5cb710c9ac9259001681e253,64d2fd46c836a06233681665,64dc7790573c091cd0be8935,,,,,,,sngl,resources/DBN.BMP,resources/Empty.png,WildCard_NonEx,-0.240740741,-0.015740741,1,0,0,0.6219,optionLeft,45,3115,2,16,0,16,0,1,,,,,,,,,,,,,,,,,,,,,,,,,,,,,,,,,,,,,,,
,,,,,,,,2023-08-16_08h15.51.083,HF_wild_card,2022.2.4,Win32,60.11421701,5cb710c9ac9259001681e253,64d2fd46c836a06233681665,64dc7790573c091cd0be8935,,,,,,,decisionTrl,resources/DG.BMP,resources/DR.BMP,Door2,0.327777778,0.007407407,1,0,0,1.7103,optionRight,20,3135,2,17,0,17,0,1,,,,,,,,,,,,,,,,,,,,,,,,,,,,,,,,,,,,,,,
,,,,,,,,2023-08-16_08h15.51.083,HF_wild_card,2022.2.4,Win32,60.11421701,5cb710c9ac9259001681e253,64d2fd46c836a06233681665,64dc7790573c091cd0be8935,,,,,,,ctch,resources/DY.BMP,resources/DG.BMP,Door4,-0.122222222,-0.016666667,1,0,0,0.8475,optionLeft,60,3195,2,18,0,18,0,1,,,,,,,,,,,,,,,,,,,,,,,,,,,,,,,,,,,,,,,
,,,,,,,,2023-08-16_08h15.51.083,HF_wild_card,2022.2.4,Win32,60.11421701,5cb710c9ac9259001681e253,64d2fd46c836a06233681665,64dc7790573c091cd0be8935,,,,,,,decisionTrl,resources/DY.BMP,resources/DP.BMP,Door4,-0.275925926,0.033333333,1,0,0,0.6987,optionLeft,60,3255,2,19,0,19,0,1,,,,,,,,,,,,,,,,,,,,,,,,,,,,,,,,,,,,,,,
,,,,,,,,2023-08-16_08h15.51.083,HF_wild_card,2022.2.4,Win32,60.11421701,5cb710c9ac9259001681e253,64d2fd46c836a06233681665,64dc7790573c091cd0be8935,,,,,,,sngl,resources/Empty.png,resources/DBN.BMP,WildCard_NonEx,0.380555556,0.10462963,1,0,0,0.5728,optionRight,45,3300,2,20,0,20,0,1,,,,,,,,,,,,,,,,,,,,,,,,,,,,,,,,,,,,,,,
,,,,,,,,2023-08-16_08h15.51.083,HF_wild_card,2022.2.4,Win32,60.11421701,5cb710c9ac9259001681e253,64d2fd46c836a06233681665,64dc7790573c091cd0be8935,,,,,,,decisionTrl,resources/DP.BMP,resources/DY.BMP,Door4,0.248148148,0.076851852,1,0,0,0.832,optionRight,80,3380,2,21,0,21,0,1,,,,,,,,,,,,,,,,,,,,,,,,,,,,,,,,,,,,,,,
,,,,,,,,2023-08-16_08h15.51.083,HF_wild_card,2022.2.4,Win32,60.11421701,5cb710c9ac9259001681e253,64d2fd46c836a06233681665,64dc7790573c091cd0be8935,,,,,,,sngl,resources/DG.BMP,resources/Empty.png,Door1,-0.293518519,0.00462963,1,0,0,0.5639,optionLeft,30,3410,2,22,0,22,0,1,,,,,,,,,,,,,,,,,,,,,,,,,,,,,,,,,,,,,,,
,,,,,,,,2023-08-16_08h15.51.083,HF_wild_card,2022.2.4,Win32,60.11421701,5cb710c9ac9259001681e253,64d2fd46c836a06233681665,64dc7790573c091cd0be8935,,,,,,,decisionTrl,resources/DP.BMP,resources/DY.BMP,Door4,0.29537037,0.057407407,1,0,0,0.5643,optionRight,80,3490,2,23,0,23,0,1,,,,,,,,,,,,,,,,,,,,,,,,,,,,,,,,,,,,,,,
,,,,,,,,2023-08-16_08h15.51.083,HF_wild_card,2022.2.4,Win32,60.11421701,5cb710c9ac9259001681e253,64d2fd46c836a06233681665,64dc7790573c091cd0be8935,,,,,,,sngl,resources/DR.BMP,resources/Empty.png,Door2,-0.255555556,0.018518519,1,0,0,0.5476,optionLeft,20,3510,2,24,0,24,0,1,,,,,,,,,,,,,,,,,,,,,,,,,,,,,,,,,,,,,,,
,,,,,,,,2023-08-16_08h15.51.083,HF_wild_card,2022.2.4,Win32,60.11421701,5cb710c9ac9259001681e253,64d2fd46c836a06233681665,64dc7790573c091cd0be8935,,,,,,,decisionTrl,resources/DY.BMP,resources/DP.BMP,Door3,0.375,0.083333333,1,0,0,1.3636,optionRight,70,3580,2,25,0,25,0,1,,,,,,,,,,,,,,,,,,,,,,,,,,,,,,,,,,,,,,,
,,,,,,,,2023-08-16_08h15.51.083,HF_wild_card,2022.2.4,Win32,60.11421701,5cb710c9ac9259001681e253,64d2fd46c836a06233681665,64dc7790573c091cd0be8935,,,,,,,decisionTrl,resources/DBN.BMP,resources/DR.BMP,WildCard_NonEx,-0.258333333,-0.008333333,1,0,0,0.514,optionLeft,55,3635,2,26,0,26,0,1,,,,,,,,,,,,,,,,,,,,,,,,,,,,,,,,,,,,,,,
,,,,,,,,2023-08-16_08h15.51.083,HF_wild_card,2022.2.4,Win32,60.11421701,5cb710c9ac9259001681e253,64d2fd46c836a06233681665,64dc7790573c091cd0be8935,,,,,,,decisionTrl,resources/DG.BMP,resources/DR.BMP,Door1,-0.207407407,-0.028703704,1,0,0,0.58,optionLeft,30,3665,2,27,0,27,0,1,,,,,,,,,,,,,,,,,,,,,,,,,,,,,,,,,,,,,,,
,,,,,,,,2023-08-16_08h15.51.083,HF_wild_card,2022.2.4,Win32,60.11421701,5cb710c9ac9259001681e253,64d2fd46c836a06233681665,64dc7790573c091cd0be8935,,,,,,,ctch,resources/DP.BMP,resources/DR.BMP,Door2,0.314814815,0.050925926,1,0,0,0.4303,optionRight,40,3705,2,28,0,28,0,1,,,,,,,,,,,,,,,,,,,,,,,,,,,,,,,,,,,,,,,
,,,,,,,,2023-08-16_08h15.51.083,HF_wild_card,2022.2.4,Win32,60.11421701,5cb710c9ac9259001681e253,64d2fd46c836a06233681665,64dc7790573c091cd0be8935,,,,,,,ctch,resources/DY.BMP,resources/DG.BMP,Door4,-0.287962963,-0.001851852,1,0,0,1.5146,optionLeft,80,3785,2,29,0,29,0,1,,,,,,,,,,,,,,,,,,,,,,,,,,,,,,,,,,,,,,,
,,,,,,,,2023-08-16_08h15.51.083,HF_wild_card,2022.2.4,Win32,60.11421701,5cb710c9ac9259001681e253,64d2fd46c836a06233681665,64dc7790573c091cd0be8935,,,,,,,sngl,resources/DBN.BMP,resources/Empty.png,WildCard_NonEx,-0.284259259,-0.009259259,1,0,0,0.7313,optionLeft,55,3840,2,30,0,30,0,1,,,,,,,,,,,,,,,,,,,,,,,,,,,,,,,,,,,,,,,
,,,,,,,,2023-08-16_08h15.51.083,HF_wild_card,2022.2.4,Win32,60.11421701,5cb710c9ac9259001681e253,64d2fd46c836a06233681665,64dc7790573c091cd0be8935,,,,,,,decisionTrl,resources/DG.BMP,resources/DR.BMP,Door1,-0.35462963,-0.014814815,1,0,0,0.7398,optionLeft,30,3870,2,31,0,31,0,1,,,,,,,,,,,,,,,,,,,,,,,,,,,,,,,,,,,,,,,
,,,,,,,,2023-08-16_08h15.51.083,HF_wild_card,2022.2.4,Win32,60.11421701,5cb710c9ac9259001681e253,64d2fd46c836a06233681665,64dc7790573c091cd0be8935,,,,,,,ctch,resources/DG.BMP,resources/DY.BMP,Door4,0.366666667,0.026851852,1,0,0,1.4658,optionRight,60,3930,2,32,0,32,0,1,,,,,,,,,,,,,,,,,,,,,,,,,,,,,,,,,,,,,,,
,,,,,,,,2023-08-16_08h15.51.083,HF_wild_card,2022.2.4,Win32,60.11421701,5cb710c9ac9259001681e253,64d2fd46c836a06233681665,64dc7790573c091cd0be8935,,,,,,,sngl,resources/Empty.png,resources/DR.BMP,Door2,0.17037037,0.036111111,1,0,0,0.9481,optionRight,40,3970,2,33,0,33,0,1,,,,,,,,,,,,,,,,,,,,,,,,,,,,,,,,,,,,,,,
,,,,,,,,2023-08-16_08h15.51.083,HF_wild_card,2022.2.4,Win32,60.11421701,5cb710c9ac9259001681e253,64d2fd46c836a06233681665,64dc7790573c091cd0be8935,,,,,,,decisionTrl,resources/DR.BMP,resources/DG.BMP,Door2,-0.250925926,-0.00462963,1,0,0,0.5838,optionLeft,40,4010,2,34,0,34,0,1,,,,,,,,,,,,,,,,,,,,,,,,,,,,,,,,,,,,,,,
,,,,,,,,2023-08-16_08h15.51.083,HF_wild_card,2022.2.4,Win32,60.11421701,5cb710c9ac9259001681e253,64d2fd46c836a06233681665,64dc7790573c091cd0be8935,,,,,,,sngl,resources/DY.BMP,resources/Empty.png,Door4,-0.225,-0.009259259,1,0,0,0.4933,optionLeft,60,4070,2,35,0,35,0,1,,,,,,,,,,,,,,,,,,,,,,,,,,,,,,,,,,,,,,,
,,,,,,,,2023-08-16_08h15.51.083,HF_wild_card,2022.2.4,Win32,60.11421701,5cb710c9ac9259001681e253,64d2fd46c836a06233681665,64dc7790573c091cd0be8935,,,,,,,decisionTrl,resources/DBN.BMP,resources/DP.BMP,WildCard_NonEx,-0.163888889,-0.016666667,1,0,0,0.5871,optionLeft,45,4115,2,36,0,36,0,1,,,,,,,,,,,,,,,,,,,,,,,,,,,,,,,,,,,,,,,
,,,,,,,,2023-08-16_08h15.51.083,HF_wild_card,2022.2.4,Win32,60.11421701,5cb710c9ac9259001681e253,64d2fd46c836a06233681665,64dc7790573c091cd0be8935,,,,,,,decisionTrl,resources/DBN.BMP,resources/DG.BMP,WildCard_NonEx,-0.200925926,0.003703704,1,0,0,0.6308,optionLeft,45,4160,2,37,0,37,0,1,,,,,,,,,,,,,,,,,,,,,,,,,,,,,,,,,,,,,,,
,,,,,,,,2023-08-16_08h15.51.083,HF_wild_card,2022.2.4,Win32,60.11421701,5cb710c9ac9259001681e253,64d2fd46c836a06233681665,64dc7790573c091cd0be8935,,,,,,,decisionTrl,resources/DBN.BMP,resources/DY.BMP,WildCard_NonEx,-0.221296296,-0.013888889,1,0,0,0.5908,optionLeft,55,4215,2,38,0,38,0,1,,,,,,,,,,,,,,,,,,,,,,,,,,,,,,,,,,,,,,,
,,,,,,,,2023-08-16_08h15.51.083,HF_wild_card,2022.2.4,Win32,60.11421701,5cb710c9ac9259001681e253,64d2fd46c836a06233681665,64dc7790573c091cd0be8935,,,,,,,sngl,resources/Empty.png,resources/DP.BMP,Door3,0.212037037,0.062962963,1,0,0,0.6088,optionRight,70,4285,2,39,0,39,0,1,,,,,,,,,,,,,,,,,,,,,,,,,,,,,,,,,,,,,,,
,,,,,,,,2023-08-16_08h15.51.083,HF_wild_card,2022.2.4,Win32,60.11421701,5cb710c9ac9259001681e253,64d2fd46c836a06233681665,64dc7790573c091cd0be8935,,,,,,,decisionTrl,resources/DG.BMP,resources/DBN.BMP,WildCard_NonEx,0.281481481,0.066666667,1,0,0,0.758,optionRight,45,4330,2,40,0,40,0,1,,,,,,,,,,,,,,,,,,,,,,,,,,,,,,,,,,,,,,,
,,,,,,,,2023-08-16_08h15.51.083,HF_wild_card,2022.2.4,Win32,60.11421701,5cb710c9ac9259001681e253,64d2fd46c836a06233681665,64dc7790573c091cd0be8935,,,,,,,sngl,resources/Empty.png,resources/DG.BMP,Door1,0.368518519,0.053703704,1,0,0,0.641,optionRight,30,4360,2,41,0,41,0,1,,,,,,,,,,,,,,,,,,,,,,,,,,,,,,,,,,,,,,,
,,,,,,,,2023-08-16_08h15.51.083,HF_wild_card,2022.2.4,Win32,60.11421701,5cb710c9ac9259001681e253,64d2fd46c836a06233681665,64dc7790573c091cd0be8935,,,,,,,ctch,resources/DP.BMP,resources/DR.BMP,Door2,0.411111111,0.058333333,1,0,0,1.1954,optionRight,40,4400,2,42,0,42,0,1,,,,,,,,,,,,,,,,,,,,,,,,,,,,,,,,,,,,,,,
,,,,,,,,2023-08-16_08h15.51.083,HF_wild_card,2022.2.4,Win32,60.11421701,5cb710c9ac9259001681e253,64d2fd46c836a06233681665,64dc7790573c091cd0be8935,,,,,,,decisionTrl,resources/DG.BMP,resources/DR.BMP,Door2,0.337962963,0.039814815,1,0,0,0.8603,optionRight,40,4440,2,43,0,43,0,1,,,,,,,,,,,,,,,,,,,,,,,,,,,,,,,,,,,,,,,
,,,,,,,,2023-08-16_08h15.51.083,HF_wild_card,2022.2.4,Win32,60.11421701,5cb710c9ac9259001681e253,64d2fd46c836a06233681665,64dc7790573c091cd0be8935,,,,,,,,,,,,,,,,,,,,,,,,,,1,0,1,0,1,,,,,,,,,,,,,,,,,,,,,,,,,,,,,,,,,,
,,,,,,,,2023-08-16_08h15.51.083,HF_wild_card,2022.2.4,Win32,60.11421701,5cb710c9ac9259001681e253,64d2fd46c836a06233681665,64dc7790573c091cd0be8935,,,,,,,sngl,resources/DBN.BMP,resources/Empty.png,WildCard_NonEx,-0.406481481,0.12037037,1,0,0,0.7216,optionLeft,45,4485,3,0,0,0,0,1,,,,,,,,,,,,,,,,,,,,,,,,,,,,,,,,,,,,,,,
,,,,,,,,2023-08-16_08h15.51.083,HF_wild_card,2022.2.4,Win32,60.11421701,5cb710c9ac9259001681e253,64d2fd46c836a06233681665,64dc7790573c091cd0be8935,,,,,,,sngl,resources/DR.BMP,resources/Empty.png,Door2,-0.351851852,0.027777778,1,0,0,0.4309,optionLeft,40,4525,3,1,0,1,0,1,,,,,,,,,,,,,,,,,,,,,,,,,,,,,,,,,,,,,,,
,,,,,,,,2023-08-16_08h15.51.083,HF_wild_card,2022.2.4,Win32,60.11421701,5cb710c9ac9259001681e253,64d2fd46c836a06233681665,64dc7790573c091cd0be8935,,,,,,,decisionTrl,resources/DP.BMP,resources/DY.BMP,Door4,0.328703704,0.043518519,1,0,0,0.4636,optionRight,80,4605,3,2,0,2,0,1,,,,,,,,,,,,,,,,,,,,,,,,,,,,,,,,,,,,,,,
,,,,,,,,2023-08-16_08h15.51.083,HF_wild_card,2022.2.4,Win32,60.11421701,5cb710c9ac9259001681e253,64d2fd46c836a06233681665,64dc7790573c091cd0be8935,,,,,,,sngl,resources/Empty.png,resources/DG.BMP,Door1,0.215740741,0.007407407,1,0,0,0.4033,optionRight,30,4635,3,3,0,3,0,1,,,,,,,,,,,,,,,,,,,,,,,,,,,,,,,,,,,,,,,
,,,,,,,,2023-08-16_08h15.51.083,HF_wild_card,2022.2.4,Win32,60.11421701,5cb710c9ac9259001681e253,64d2fd46c836a06233681665,64dc7790573c091cd0be8935,,,,,,,decisionTrl,resources/DP.BMP,resources/DBN.BMP,Door3,-0.301851852,0.059259259,1,0,0,0.3586,optionLeft,70,4705,3,4,0,4,0,1,,,,,,,,,,,,,,,,,,,,,,,,,,,,,,,,,,,,,,,
,,,,,,,,2023-08-16_08h15.51.083,HF_wild_card,2022.2.4,Win32,60.11421701,5cb710c9ac9259001681e253,64d2fd46c836a06233681665,64dc7790573c091cd0be8935,,,,,,,decisionTrl,resources/DG.BMP,resources/DR.BMP,Door2,0.4,0.02962963,1,0,0,0.2754,optionRight,20,4725,3,5,0,5,0,1,,,,,,,,,,,,,,,,,,,,,,,,,,,,,,,,,,,,,,,
,,,,,,,,2023-08-16_08h15.51.083,HF_wild_card,2022.2.4,Win32,60.11421701,5cb710c9ac9259001681e253,64d2fd46c836a06233681665,64dc7790573c091cd0be8935,,,,,,,decisionTrl,resources/DG.BMP,resources/DBN.BMP,WildCard_NonEx,0.311111111,0.036111111,1,0,0,0.5219,optionRight,45,4770,3,6,0,6,0,1,,,,,,,,,,,,,,,,,,,,,,,,,,,,,,,,,,,,,,,
,,,,,,,,2023-08-16_08h15.51.083,HF_wild_card,2022.2.4,Win32,60.11421701,5cb710c9ac9259001681e253,64d2fd46c836a06233681665,64dc7790573c091cd0be8935,,,,,,,sngl,resources/Empty.png,resources/DBN.BMP,WildCard_NonEx,0.308333333,0.05,1,0,0,0.3887,optionRight,55,4825,3,7,0,7,0,1,,,,,,,,,,,,,,,,,,,,,,,,,,,,,,,,,,,,,,,
,,,,,,,,2023-08-16_08h15.51.083,HF_wild_card,2022.2.4,Win32,60.11421701,5cb710c9ac9259001681e253,64d2fd46c836a06233681665,64dc7790573c091cd0be8935,,,,,,,decisionTrl,resources/DR.BMP,resources/DG.BMP,Door2,-0.351851852,0.052777778,1,0,0,0.8817,optionLeft,20,4845,3,8,0,8,0,1,,,,,,,,,,,,,,,,,,,,,,,,,,,,,,,,,,,,,,,
,,,,,,,,2023-08-16_08h15.51.083,HF_wild_card,2022.2.4,Win32,60.11421701,5cb710c9ac9259001681e253,64d2fd46c836a06233681665,64dc7790573c091cd0be8935,,,,,,,ctch,resources/DR.BMP,resources/DP.BMP,Door2,-0.224074074,-0.026851852,1,0,0,0.8475,optionLeft,20,4865,3,9,0,9,0,1,,,,,,,,,,,,,,,,,,,,,,,,,,,,,,,,,,,,,,,
,,,,,,,,2023-08-16_08h15.51.083,HF_wild_card,2022.2.4,Win32,60.11421701,5cb710c9ac9259001681e253,64d2fd46c836a06233681665,64dc7790573c091cd0be8935,,,,,,,sngl,resources/DY.BMP,resources/Empty.png,Door4,-0.253703704,-0.013888889,1,0,0,0.5051,optionLeft,80,4945,3,10,0,10,0,1,,,,,,,,,,,,,,,,,,,,,,,,,,,,,,,,,,,,,,,
,,,,,,,,2023-08-16_08h15.51.083,HF_wild_card,2022.2.4,Win32,60.11421701,5cb710c9ac9259001681e253,64d2fd46c836a06233681665,64dc7790573c091cd0be8935,,,,,,,decisionTrl,resources/DY.BMP,resources/DP.BMP,Door4,-0.380555556,0.014814815,1,0,0,0.9789,optionLeft,60,5005,3,11,0,11,0,1,,,,,,,,,,,,,,,,,,,,,,,,,,,,,,,,,,,,,,,
,,,,,,,,2023-08-16_08h15.51.083,HF_wild_card,2022.2.4,Win32,60.11421701,5cb710c9ac9259001681e253,64d2fd46c836a06233681665,64dc7790573c091cd0be8935,,,,,,,sngl,resources/DG.BMP,resources/Empty.png,Door1,-0.289814815,0.009259259,1,0,0,0.3404,optionLeft,30,5035,3,12,0,12,0,1,,,,,,,,,,,,,,,,,,,,,,,,,,,,,,,,,,,,,,,
,,,,,,,,2023-08-16_08h15.51.083,HF_wild_card,2022.2.4,Win32,60.11421701,5cb710c9ac9259001681e253,64d2fd46c836a06233681665,64dc7790573c091cd0be8935,,,,,,,sngl,resources/DP.BMP,resources/Empty.png,Door3,-0.337962963,-0.006481481,1,0,0,0.3302,optionLeft,70,5105,3,13,0,13,0,1,,,,,,,,,,,,,,,,,,,,,,,,,,,,,,,,,,,,,,,
,,,,,,,,2023-08-16_08h15.51.083,HF_wild_card,2022.2.4,Win32,60.11421701,5cb710c9ac9259001681e253,64d2fd46c836a06233681665,64dc7790573c091cd0be8935,,,,,,,decisionTrl,resources/DBN.BMP,resources/DY.BMP,WildCard_NonEx,-0.473148148,-0.023148148,1,0,0,0.3135,optionLeft,45,5150,3,14,0,14,0,1,,,,,,,,,,,,,,,,,,,,,,,,,,,,,,,,,,,,,,,
,,,,,,,,2023-08-16_08h15.51.083,HF_wild_card,2022.2.4,Win32,60.11421701,5cb710c9ac9259001681e253,64d2fd46c836a06233681665,64dc7790573c091cd0be8935,,,,,,,ctch,resources/DR.BMP,resources/DP.BMP,Door2,-0.324074074,-0.000925926,1,0,0,0.3395,optionLeft,20,5170,3,15,0,15,0,1,,,,,,,,,,,,,,,,,,,,,,,,,,,,,,,,,,,,,,,
,,,,,,,,2023-08-16_08h15.51.083,HF_wild_card,2022.2.4,Win32,60.11421701,5cb710c9ac9259001681e253,64d2fd46c836a06233681665,64dc7790573c091cd0be8935,,,,,,,sngl,resources/Empty.png,resources/DBN.BMP,WildCard_NonEx,0.352777778,0.056481481,1,0,0,0.3652,optionRight,45,5215,3,16,0,16,0,1,,,,,,,,,,,,,,,,,,,,,,,,,,,,,,,,,,,,,,,
,,,,,,,,2023-08-16_08h15.51.083,HF_wild_card,2022.2.4,Win32,60.11421701,5cb710c9ac9259001681e253,64d2fd46c836a06233681665,64dc7790573c091cd0be8935,,,,,,,ctch,resources/DP.BMP,resources/DR.BMP,Door2,0.321296296,0.046296296,1,0,0,1.5551,optionRight,20,5235,3,17,0,17,0,1,,,,,,,,,,,,,,,,,,,,,,,,,,,,,,,,,,,,,,,
,,,,,,,,2023-08-16_08h15.51.083,HF_wild_card,2022.2.4,Win32,60.11421701,5cb710c9ac9259001681e253,64d2fd46c836a06233681665,64dc7790573c091cd0be8935,,,,,,,decisionTrl,resources/DY.BMP,resources/DP.BMP,Door3,0.250925926,0.035185185,1,0,0,0.3965,optionRight,70,5305,3,18,0,18,0,1,,,,,,,,,,,,,,,,,,,,,,,,,,,,,,,,,,,,,,,
,,,,,,,,2023-08-16_08h15.51.083,HF_wild_card,2022.2.4,Win32,60.11421701,5cb710c9ac9259001681e253,64d2fd46c836a06233681665,64dc7790573c091cd0be8935,,,,,,,ctch,resources/DG.BMP,resources/DY.BMP,Door4,0.299074074,0.044444444,1,0,0,0.9548,optionRight,80,5385,3,19,0,19,0,1,,,,,,,,,,,,,,,,,,,,,,,,,,,,,,,,,,,,,,,
,,,,,,,,2023-08-16_08h15.51.083,HF_wild_card,2022.2.4,Win32,60.11421701,5cb710c9ac9259001681e253,64d2fd46c836a06233681665,64dc7790573c091cd0be8935,,,,,,,decisionTrl,resources/DP.BMP,resources/DY.BMP,Door4,0.337037037,0.085185185,1,0,0,0.86,optionRight,80,5465,3,20,0,20,0,1,,,,,,,,,,,,,,,,,,,,,,,,,,,,,,,,,,,,,,,
,,,,,,,,2023-08-16_08h15.51.083,HF_wild_card,2022.2.4,Win32,60.11421701,5cb710c9ac9259001681e253,64d2fd46c836a06233681665,64dc7790573c091cd0be8935,,,,,,,decisionTrl,resources/DR.BMP,resources/DG.BMP,Door2,-0.252777778,-0.011111111,1,0,0,0.7721,optionLeft,40,5505,3,21,0,21,0,1,,,,,,,,,,,,,,,,,,,,,,,,,,,,,,,,,,,,,,,
,,,,,,,,2023-08-16_08h15.51.083,HF_wild_card,2022.2.4,Win32,60.11421701,5cb710c9ac9259001681e253,64d2fd46c836a06233681665,64dc7790573c091cd0be8935,,,,,,,ctch,resources/DY.BMP,resources/DG.BMP,Door4,-0.221296296,0.002777778,1,0,0,0.5807,optionLeft,80,5585,3,22,0,22,0,1,,,,,,,,,,,,,,,,,,,,,,,,,,,,,,,,,,,,,,,
,,,,,,,,2023-08-16_08h15.51.083,HF_wild_card,2022.2.4,Win32,60.11421701,5cb710c9ac9259001681e253,64d2fd46c836a06233681665,64dc7790573c091cd0be8935,,,,,,,sngl,resources/Empty.png,resources/DP.BMP,Door3,0.464814815,0.064814815,1,0,0,0.4869,optionRight,70,5655,3,23,0,23,0,1,,,,,,,,,,,,,,,,,,,,,,,,,,,,,,,,,,,,,,,
,,,,,,,,2023-08-16_08h15.51.083,HF_wild_card,2022.2.4,Win32,60.11421701,5cb710c9ac9259001681e253,64d2fd46c836a06233681665,64dc7790573c091cd0be8935,,,,,,,decisionTrl,resources/DBN.BMP,resources/DG.BMP,WildCard_NonEx,-0.384259259,0.049074074,1,0,0,0.5136,optionLeft,55,5710,3,24,0,24,0,1,,,,,,,,,,,,,,,,,,,,,,,,,,,,,,,,,,,,,,,
,,,,,,,,2023-08-16_08h15.51.083,HF_wild_card,2022.2.4,Win32,60.11421701,5cb710c9ac9259001681e253,64d2fd46c836a06233681665,64dc7790573c091cd0be8935,,,,,,,sngl,resources/Empty.png,resources/DY.BMP,Door4,0.317592593,0.042592593,1,0,0,0.4466,optionRight,60,5770,3,25,0,25,0,1,,,,,,,,,,,,,,,,,,,,,,,,,,,,,,,,,,,,,,,
,,,,,,,,2023-08-16_08h15.51.083,HF_wild_card,2022.2.4,Win32,60.11421701,5cb710c9ac9259001681e253,64d2fd46c836a06233681665,64dc7790573c091cd0be8935,,,,,,,ctch,resources/DY.BMP,resources/DG.BMP,Door4,-0.301851852,0.049074074,1,0,0,0.4292,optionLeft,80,5850,3,26,0,26,0,1,,,,,,,,,,,,,,,,,,,,,,,,,,,,,,,,,,,,,,,
,,,,,,,,2023-08-16_08h15.51.083,HF_wild_card,2022.2.4,Win32,60.11421701,5cb710c9ac9259001681e253,64d2fd46c836a06233681665,64dc7790573c091cd0be8935,,,,,,,decisionTrl,resources/DR.BMP,resources/DBN.BMP,WildCard_NonEx,0.435185185,0.077777778,1,0,0,0.6479,optionRight,45,5895,3,27,0,27,0,1,,,,,,,,,,,,,,,,,,,,,,,,,,,,,,,,,,,,,,,
,,,,,,,,2023-08-16_08h15.51.083,HF_wild_card,2022.2.4,Win32,60.11421701,5cb710c9ac9259001681e253,64d2fd46c836a06233681665,64dc7790573c091cd0be8935,,,,,,,decisionTrl,resources/DG.BMP,resources/DR.BMP,Door2,0.498148148,0.039814815,1,0,0,1.9982,optionRight,20,5915,3,28,0,28,0,1,,,,,,,,,,,,,,,,,,,,,,,,,,,,,,,,,,,,,,,
,,,,,,,,2023-08-16_08h15.51.083,HF_wild_card,2022.2.4,Win32,60.11421701,5cb710c9ac9259001681e253,64d2fd46c836a06233681665,64dc7790573c091cd0be8935,,,,,,,decisionTrl,resources/DP.BMP,resources/DY.BMP,Door4,0.455555556,0.034259259,1,0,0,2.0478,optionRight,60,5975,3,29,0,29,0,1,,,,,,,,,,,,,,,,,,,,,,,,,,,,,,,,,,,,,,,
,,,,,,,,2023-08-16_08h15.51.083,HF_wild_card,2022.2.4,Win32,60.11421701,5cb710c9ac9259001681e253,64d2fd46c836a06233681665,64dc7790573c091cd0be8935,,,,,,,decisionTrl,resources/DR.BMP,resources/DG.BMP,Door2,-0.426851852,0.225,1,0,0,2.5483,optionLeft,40,6015,3,30,0,30,0,1,,,,,,,,,,,,,,,,,,,,,,,,,,,,,,,,,,,,,,,
,,,,,,,,2023-08-16_08h15.51.083,HF_wild_card,2022.2.4,Win32,60.11421701,5cb710c9ac9259001681e253,64d2fd46c836a06233681665,64dc7790573c091cd0be8935,,,,,,,sngl,resources/Empty.png,resources/DR.BMP,Door2,0.282407407,0.019444444,1,0,0,0.5497,optionRight,20,6035,3,31,0,31,0,1,,,,,,,,,,,,,,,,,,,,,,,,,,,,,,,,,,,,,,,
,,,,,,,,2023-08-16_08h15.51.083,HF_wild_card,2022.2.4,Win32,60.11421701,5cb710c9ac9259001681e253,64d2fd46c836a06233681665,64dc7790573c091cd0be8935,,,,,,,decisionTrl,resources/DBN.BMP,resources/DR.BMP,WildCard_NonEx,-0.362962963,0.153703704,1,0,0,0.7322,optionLeft,45,6080,3,32,0,32,0,1,,,,,,,,,,,,,,,,,,,,,,,,,,,,,,,,,,,,,,,
,,,,,,,,2023-08-16_08h15.51.083,HF_wild_card,2022.2.4,Win32,60.11421701,5cb710c9ac9259001681e253,64d2fd46c836a06233681665,64dc7790573c091cd0be8935,,,,,,,ctch,resources/DP.BMP,resources/DR.BMP,Door2,0.555555556,-0.008333333,1,0,0,1.8075,optionRight,40,6120,3,33,0,33,0,1,,,,,,,,,,,,,,,,,,,,,,,,,,,,,,,,,,,,,,,
,,,,,,,,2023-08-16_08h15.51.083,HF_wild_card,2022.2.4,Win32,60.11421701,5cb710c9ac9259001681e253,64d2fd46c836a06233681665,64dc7790573c091cd0be8935,,,,,,,decisionTrl,resources/DG.BMP,resources/DR.BMP,Door2,0.464814815,-0.010185185,1,0,0,2.1978,optionRight,40,6160,3,34,0,34,0,1,,,,,,,,,,,,,,,,,,,,,,,,,,,,,,,,,,,,,,,
,,,,,,,,2023-08-16_08h15.51.083,HF_wild_card,2022.2.4,Win32,60.11421701,5cb710c9ac9259001681e253,64d2fd46c836a06233681665,64dc7790573c091cd0be8935,,,,,,,decisionTrl,resources/DY.BMP,resources/DP.BMP,Door4,-0.444444444,0.056481481,1,0,0,0.829,optionLeft,60,6220,3,35,0,35,0,1,,,,,,,,,,,,,,,,,,,,,,,,,,,,,,,,,,,,,,,
,,,,,,,,2023-08-16_08h15.51.083,HF_wild_card,2022.2.4,Win32,60.11421701,5cb710c9ac9259001681e253,64d2fd46c836a06233681665,64dc7790573c091cd0be8935,,,,,,,decisionTrl,resources/DY.BMP,resources/DP.BMP,Door4,-0.388888889,0.073148148,1,0,0,0.4948,optionLeft,80,6300,3,36,0,36,0,1,,,,,,,,,,,,,,,,,,,,,,,,,,,,,,,,,,,,,,,
,,,,,,,,2023-08-16_08h15.51.083,HF_wild_card,2022.2.4,Win32,60.11421701,5cb710c9ac9259001681e253,64d2fd46c836a06233681665,64dc7790573c091cd0be8935,,,,,,,sngl,resources/DBN.BMP,resources/Empty.png,WildCard_NonEx,-0.308333333,0.037962963,1,0,0,0.3807,optionLeft,55,6355,3,37,0,37,0,1,,,,,,,,,,,,,,,,,,,,,,,,,,,,,,,,,,,,,,,
,,,,,,,,2023-08-16_08h15.51.083,HF_wild_card,2022.2.4,Win32,60.11421701,5cb710c9ac9259001681e253,64d2fd46c836a06233681665,64dc7790573c091cd0be8935,,,,,,,decisionTrl,resources/DBN.BMP,resources/DP.BMP,WildCard_NonEx,-0.20462963,0.032407407,1,0,0,0.8403,optionLeft,55,6410,3,38,0,38,0,1,,,,,,,,,,,,,,,,,,,,,,,,,,,,,,,,,,,,,,,
,,,,,,,,2023-08-16_08h15.51.083,HF_wild_card,2022.2.4,Win32,60.11421701,5cb710c9ac9259001681e253,64d2fd46c836a06233681665,64dc7790573c091cd0be8935,,,,,,,decisionTrl,resources/DG.BMP,resources/DR.BMP,Door1,-0.272222222,0.060185185,1,0,0,0.4775,optionLeft,30,6440,3,39,0,39,0,1,,,,,,,,,,,,,,,,,,,,,,,,,,,,,,,,,,,,,,,
,,,,,,,,2023-08-16_08h15.51.083,HF_wild_card,2022.2.4,Win32,60.11421701,5cb710c9ac9259001681e253,64d2fd46c836a06233681665,64dc7790573c091cd0be8935,,,,,,,ctch,resources/DG.BMP,resources/DY.BMP,Door4,0.287962963,-0.009259259,1,0,0,0.5469,optionRight,80,6520,3,40,0,40,0,1,,,,,,,,,,,,,,,,,,,,,,,,,,,,,,,,,,,,,,,
,,,,,,,,2023-08-16_08h15.51.083,HF_wild_card,2022.2.4,Win32,60.11421701,5cb710c9ac9259001681e253,64d2fd46c836a06233681665,64dc7790573c091cd0be8935,,,,,,,decisionTrl,resources/DY.BMP,resources/DBN.BMP,WildCard_NonEx,0.337037037,0.005555556,1,0,0,0.8104,optionRight,45,6565,3,41,0,41,0,1,,,,,,,,,,,,,,,,,,,,,,,,,,,,,,,,,,,,,,,
,,,,,,,,2023-08-16_08h15.51.083,HF_wild_card,2022.2.4,Win32,60.11421701,5cb710c9ac9259001681e253,64d2fd46c836a06233681665,64dc7790573c091cd0be8935,,,,,,,decisionTrl,resources/DP.BMP,resources/DY.BMP,Door4,0.317592593,0.073148148,1,0,0,0.9472,optionRight,60,6625,3,42,0,42,0,1,,,,,,,,,,,,,,,,,,,,,,,,,,,,,,,,,,,,,,,
,,,,,,,,2023-08-16_08h15.51.083,HF_wild_card,2022.2.4,Win32,60.11421701,5cb710c9ac9259001681e253,64d2fd46c836a06233681665,64dc7790573c091cd0be8935,,,,,,,decisionTrl,resources/DR.BMP,resources/DG.BMP,Door2,-0.47962963,0.103703704,1,0,0,0.7648,optionLeft,20,6645,3,43,0,43,0,1,,,,,,,,,,,,,,,,,,,,,,,,,,,,,,,,,,,,,,,
,,,,,,,,2023-08-16_08h15.51.083,HF_wild_card,2022.2.4,Win32,60.11421701,5cb710c9ac9259001681e253,64d2fd46c836a06233681665,64dc7790573c091cd0be8935,,,,,,,,,,,,,,,,,,,,,,,,,,2,0,2,0,1,,,,,,,,,,,,,,,,,,,,,,,,,,,,,,,,,,
,,,,,,,,2023-08-16_08h15.51.083,HF_wild_card,2022.2.4,Win32,60.11421701,5cb710c9ac9259001681e253,64d2fd46c836a06233681665,64dc7790573c091cd0be8935,,,,,,,decisionTrl,resources/DB.BMP,resources/DR.BMP,WildCard_Ex,-0.563888889,0.155555556,1,0,0,4.7529,optionLeft,45,6690,4,0,0,0,0,1,,,,,,,,,,,,,,,,,,,,,,,,,,,,,,,,,,,,,,,
,,,,,,,,2023-08-16_08h15.51.083,HF_wild_card,2022.2.4,Win32,60.11421701,5cb710c9ac9259001681e253,64d2fd46c836a06233681665,64dc7790573c091cd0be8935,,,,,,,decisionTrl,resources/DY.BMP,resources/DP.BMP,Door4,-0.391666667,0.081481481,1,0,0,0.6133,optionLeft,80,6770,4,1,0,1,0,1,,,,,,,,,,,,,,,,,,,,,,,,,,,,,,,,,,,,,,,
,,,,,,,,2023-08-16_08h15.51.083,HF_wild_card,2022.2.4,Win32,60.11421701,5cb710c9ac9259001681e253,64d2fd46c836a06233681665,64dc7790573c091cd0be8935,,,,,,,decisionTrl,resources/DY.BMP,resources/DP.BMP,Door4,-0.339814815,0.056481481,1,0,0,0.607,optionLeft,60,6830,4,2,0,2,0,1,,,,,,,,,,,,,,,,,,,,,,,,,,,,,,,,,,,,,,,
,,,,,,,,2023-08-16_08h15.51.083,HF_wild_card,2022.2.4,Win32,60.11421701,5cb710c9ac9259001681e253,64d2fd46c836a06233681665,64dc7790573c091cd0be8935,,,,,,,sngl,resources/Empty.png,resources/DG.BMP,Door1,0.32962963,-0.003703704,1,0,0,0.5642,optionRight,30,6860,4,3,0,3,0,1,,,,,,,,,,,,,,,,,,,,,,,,,,,,,,,,,,,,,,,
,,,,,,,,2023-08-16_08h15.51.083,HF_wild_card,2022.2.4,Win32,60.11421701,5cb710c9ac9259001681e253,64d2fd46c836a06233681665,64dc7790573c091cd0be8935,,,,,,,decisionTrl,resources/DB.BMP,resources/DP.BMP,Door3,0.346296296,0.035185185,1,0,0,0.8801,optionRight,70,6930,4,4,0,4,0,1,,,,,,,,,,,,,,,,,,,,,,,,,,,,,,,,,,,,,,,
,,,,,,,,2023-08-16_08h15.51.083,HF_wild_card,2022.2.4,Win32,60.11421701,5cb710c9ac9259001681e253,64d2fd46c836a06233681665,64dc7790573c091cd0be8935,,,,,,,decisionTrl,resources/DG.BMP,resources/DR.BMP,Door2,0.425925926,0.042592593,1,0,0,0.7636,optionRight,40,6970,4,5,0,5,0,1,,,,,,,,,,,,,,,,,,,,,,,,,,,,,,,,,,,,,,,
,,,,,,,,2023-08-16_08h15.51.083,HF_wild_card,2022.2.4,Win32,60.11421701,5cb710c9ac9259001681e253,64d2fd46c836a06233681665,64dc7790573c091cd0be8935,,,,,,,decisionTrl,resources/DP.BMP,resources/DB.BMP,Door3,-0.287037037,0.048148148,1,0,0,0.7983,optionLeft,70,7040,4,6,0,6,0,1,,,,,,,,,,,,,,,,,,,,,,,,,,,,,,,,,,,,,,,
,,,,,,,,2023-08-16_08h15.51.083,HF_wild_card,2022.2.4,Win32,60.11421701,5cb710c9ac9259001681e253,64d2fd46c836a06233681665,64dc7790573c091cd0be8935,,,,,,,decisionTrl,resources/DY.BMP,resources/DP.BMP,Door3,0.417592593,-0.00462963,1,0,0,0.4474,optionRight,70,7110,4,7,0,7,0,1,,,,,,,,,,,,,,,,,,,,,,,,,,,,,,,,,,,,,,,
,,,,,,,,2023-08-16_08h15.51.083,HF_wild_card,2022.2.4,Win32,60.11421701,5cb710c9ac9259001681e253,64d2fd46c836a06233681665,64dc7790573c091cd0be8935,,,,,,,decisionTrl,resources/DP.BMP,resources/DY.BMP,Door4,0.44537037,0.039814815,1,0,0,0.5316,optionRight,60,7170,4,8,0,8,0,1,,,,,,,,,,,,,,,,,,,,,,,,,,,,,,,,,,,,,,,
,,,,,,,,2023-08-16_08h15.51.083,HF_wild_card,2022.2.4,Win32,60.11421701,5cb710c9ac9259001681e253,64d2fd46c836a06233681665,64dc7790573c091cd0be8935,,,,,,,sngl,resources/Empty.png,resources/DP.BMP,Door3,0.296296296,0.083333333,1,0,0,0.4493,optionRight,70,7240,4,9,0,9,0,1,,,,,,,,,,,,,,,,,,,,,,,,,,,,,,,,,,,,,,,
,,,,,,,,2023-08-16_08h15.51.083,HF_wild_card,2022.2.4,Win32,60.11421701,5cb710c9ac9259001681e253,64d2fd46c836a06233681665,64dc7790573c091cd0be8935,,,,,,,ctch,resources/DR.BMP,resources/DP.BMP,Door2,-0.343518519,0.099074074,1,0,0,1.2149,optionLeft,20,7260,4,10,0,10,0,1,,,,,,,,,,,,,,,,,,,,,,,,,,,,,,,,,,,,,,,
,,,,,,,,2023-08-16_08h15.51.083,HF_wild_card,2022.2.4,Win32,60.11421701,5cb710c9ac9259001681e253,64d2fd46c836a06233681665,64dc7790573c091cd0be8935,,,,,,,sngl,resources/Empty.png,resources/DB.BMP,WildCard_Ex,0.274074074,0.028703704,1,0,0,0.4645,optionRight,45,7305,4,11,0,11,0,1,,,,,,,,,,,,,,,,,,,,,,,,,,,,,,,,,,,,,,,
,,,,,,,,2023-08-16_08h15.51.083,HF_wild_card,2022.2.4,Win32,60.11421701,5cb710c9ac9259001681e253,64d2fd46c836a06233681665,64dc7790573c091cd0be8935,,,,,,,decisionTrl,resources/DR.BMP,resources/DG.BMP,Door2,-0.32037037,0.071296296,1,0,0,0.6947,optionLeft,40,7345,4,12,0,12,0,1,,,,,,,,,,,,,,,,,,,,,,,,,,,,,,,,,,,,,,,
,,,,,,,,2023-08-16_08h15.51.083,HF_wild_card,2022.2.4,Win32,60.11421701,5cb710c9ac9259001681e253,64d2fd46c836a06233681665,64dc7790573c091cd0be8935,,,,,,,decisionTrl,resources/DB.BMP,resources/DY.BMP,Door4,0.362962963,-0.001851852,1,0,0,0.8475,optionRight,80,7425,4,13,0,13,0,1,,,,,,,,,,,,,,,,,,,,,,,,,,,,,,,,,,,,,,,
,,,,,,,,2023-08-16_08h15.51.083,HF_wild_card,2022.2.4,Win32,60.11421701,5cb710c9ac9259001681e253,64d2fd46c836a06233681665,64dc7790573c091cd0be8935,,,,,,,decisionTrl,resources/DP.BMP,resources/DY.BMP,Door4,0.235185185,0.049074074,1,0,0,0.9098,optionRight,80,7505,4,14,0,14,0,1,,,,,,,,,,,,,,,,,,,,,,,,,,,,,,,,,,,,,,,
,,,,,,,,2023-08-16_08h15.51.083,HF_wild_card,2022.2.4,Win32,60.11421701,5cb710c9ac9259001681e253,64d2fd46c836a06233681665,64dc7790573c091cd0be8935,,,,,,,decisionTrl,resources/DR.BMP,resources/DG.BMP,Door2,-0.385185185,0.12037037,1,0,0,0.5624,optionLeft,40,7545,4,15,0,15,0,1,,,,,,,,,,,,,,,,,,,,,,,,,,,,,,,,,,,,,,,
,,,,,,,,2023-08-16_08h15.51.083,HF_wild_card,2022.2.4,Win32,60.11421701,5cb710c9ac9259001681e253,64d2fd46c836a06233681665,64dc7790573c091cd0be8935,,,,,,,sngl,resources/Empty.png,resources/DB.BMP,WildCard_Ex,0.269444444,0.125925926,1,0,0,0.6793,optionRight,55,7600,4,16,0,16,0,1,,,,,,,,,,,,,,,,,,,,,,,,,,,,,,,,,,,,,,,
,,,,,,,,2023-08-16_08h15.51.083,HF_wild_card,2022.2.4,Win32,60.11421701,5cb710c9ac9259001681e253,64d2fd46c836a06233681665,64dc7790573c091cd0be8935,,,,,,,sngl,resources/DB.BMP,resources/Empty.png,WildCard_Ex,-0.309259259,-0.011111111,1,0,0,0.4219,optionLeft,55,7655,4,17,0,17,0,1,,,,,,,,,,,,,,,,,,,,,,,,,,,,,,,,,,,,,,,
,,,,,,,,2023-08-16_08h15.51.083,HF_wild_card,2022.2.4,Win32,60.11421701,5cb710c9ac9259001681e253,64d2fd46c836a06233681665,64dc7790573c091cd0be8935,,,,,,,ctch,resources/DG.BMP,resources/DY.BMP,Door4,0.349074074,-0.021296296,1,0,0,0.7286,optionRight,80,7735,4,18,0,18,0,1,,,,,,,,,,,,,,,,,,,,,,,,,,,,,,,,,,,,,,,
,,,,,,,,2023-08-16_08h15.51.083,HF_wild_card,2022.2.4,Win32,60.11421701,5cb710c9ac9259001681e253,64d2fd46c836a06233681665,64dc7790573c091cd0be8935,,,,,,,ctch,resources/DR.BMP,resources/DP.BMP,Door2,-0.318518519,0.073148148,1,0,0,1.2121,optionLeft,40,7775,4,19,0,19,0,1,,,,,,,,,,,,,,,,,,,,,,,,,,,,,,,,,,,,,,,
,,,,,,,,2023-08-16_08h15.51.083,HF_wild_card,2022.2.4,Win32,60.11421701,5cb710c9ac9259001681e253,64d2fd46c836a06233681665,64dc7790573c091cd0be8935,,,,,,,ctch,resources/DY.BMP,resources/DG.BMP,Door4,-0.357407407,0.072222222,1,0,0,0.5309,optionLeft,80,7855,4,20,0,20,0,1,,,,,,,,,,,,,,,,,,,,,,,,,,,,,,,,,,,,,,,
,,,,,,,,2023-08-16_08h15.51.083,HF_wild_card,2022.2.4,Win32,60.11421701,5cb710c9ac9259001681e253,64d2fd46c836a06233681665,64dc7790573c091cd0be8935,,,,,,,decisionTrl,resources/DB.BMP,resources/DG.BMP,Door1,0.42962963,0.062037037,1,0,0,0.5953,optionRight,30,7885,4,21,0,21,0,1,,,,,,,,,,,,,,,,,,,,,,,,,,,,,,,,,,,,,,,
,,,,,,,,2023-08-16_08h15.51.083,HF_wild_card,2022.2.4,Win32,60.11421701,5cb710c9ac9259001681e253,64d2fd46c836a06233681665,64dc7790573c091cd0be8935,,,,,,,sngl,resources/DY.BMP,resources/Empty.png,Door4,-0.203703704,0.033333333,1,0,0,0.513,optionLeft,60,7945,4,22,0,22,0,1,,,,,,,,,,,,,,,,,,,,,,,,,,,,,,,,,,,,,,,
,,,,,,,,2023-08-16_08h15.51.083,HF_wild_card,2022.2.4,Win32,60.11421701,5cb710c9ac9259001681e253,64d2fd46c836a06233681665,64dc7790573c091cd0be8935,,,,,,,decisionTrl,resources/DP.BMP,resources/DY.BMP,Door3,-0.333333333,0.018518519,1,0,0,1.1619,optionLeft,70,8015,4,23,0,23,0,1,,,,,,,,,,,,,,,,,,,,,,,,,,,,,,,,,,,,,,,
,,,,,,,,2023-08-16_08h15.51.083,HF_wild_card,2022.2.4,Win32,60.11421701,5cb710c9ac9259001681e253,64d2fd46c836a06233681665,64dc7790573c091cd0be8935,,,,,,,sngl,resources/DR.BMP,resources/Empty.png,Door2,-0.313888889,0.024074074,1,0,0,0.512,optionLeft,20,8035,4,24,0,24,0,1,,,,,,,,,,,,,,,,,,,,,,,,,,,,,,,,,,,,,,,
,,,,,,,,2023-08-16_08h15.51.083,HF_wild_card,2022.2.4,Win32,60.11421701,5cb710c9ac9259001681e253,64d2fd46c836a06233681665,64dc7790573c091cd0be8935,,,,,,,decisionTrl,resources/DG.BMP,resources/DB.BMP,WildCard_Ex,0.210185185,-0.016666667,1,0,0,0.3805,optionRight,55,8090,4,25,0,25,0,1,,,,,,,,,,,,,,,,,,,,,,,,,,,,,,,,,,,,,,,
,,,,,,,,2023-08-16_08h15.51.083,HF_wild_card,2022.2.4,Win32,60.11421701,5cb710c9ac9259001681e253,64d2fd46c836a06233681665,64dc7790573c091cd0be8935,,,,,,,decisionTrl,resources/DR.BMP,resources/DG.BMP,Door2,-0.298148148,0.001851852,1,0,0,0.4021,optionLeft,40,8130,4,26,0,26,0,1,,,,,,,,,,,,,,,,,,,,,,,,,,,,,,,,,,,,,,,
,,,,,,,,2023-08-16_08h15.51.083,HF_wild_card,2022.2.4,Win32,60.11421701,5cb710c9ac9259001681e253,64d2fd46c836a06233681665,64dc7790573c091cd0be8935,,,,,,,sngl,resources/Empty.png,resources/DR.BMP,Door2,0.399074074,-0.005555556,1,0,0,0.3483,optionRight,40,8170,4,27,0,27,0,1,,,,,,,,,,,,,,,,,,,,,,,,,,,,,,,,,,,,,,,
,,,,,,,,2023-08-16_08h15.51.083,HF_wild_card,2022.2.4,Win32,60.11421701,5cb710c9ac9259001681e253,64d2fd46c836a06233681665,64dc7790573c091cd0be8935,,,,,,,decisionTrl,resources/DP.BMP,resources/DY.BMP,Door4,0.380555556,0.034259259,1,0,0,0.4394,optionRight,80,8250,4,28,0,28,0,1,,,,,,,,,,,,,,,,,,,,,,,,,,,,,,,,,,,,,,,
,,,,,,,,2023-08-16_08h15.51.083,HF_wild_card,2022.2.4,Win32,60.11421701,5cb710c9ac9259001681e253,64d2fd46c836a06233681665,64dc7790573c091cd0be8935,,,,,,,decisionTrl,resources/DY.BMP,resources/DB.BMP,Door4,-0.303703704,0.015740741,1,0,0,0.5999,optionLeft,80,8330,4,29,0,29,0,1,,,,,,,,,,,,,,,,,,,,,,,,,,,,,,,,,,,,,,,
,,,,,,,,2023-08-16_08h15.51.083,HF_wild_card,2022.2.4,Win32,60.11421701,5cb710c9ac9259001681e253,64d2fd46c836a06233681665,64dc7790573c091cd0be8935,,,,,,,decisionTrl,resources/DY.BMP,resources/DP.BMP,Door4,-0.259259259,0.025,1,0,0,0.4976,optionLeft,80,8410,4,30,0,30,0,1,,,,,,,,,,,,,,,,,,,,,,,,,,,,,,,,,,,,,,,
,,,,,,,,2023-08-16_08h15.51.083,HF_wild_card,2022.2.4,Win32,60.11421701,5cb710c9ac9259001681e253,64d2fd46c836a06233681665,64dc7790573c091cd0be8935,,,,,,,ctch,resources/DG.BMP,resources/DY.BMP,Door4,0.282407407,0.037037037,1,0,0,0.7208,optionRight,80,8490,4,31,0,31,0,1,,,,,,,,,,,,,,,,,,,,,,,,,,,,,,,,,,,,,,,
,,,,,,,,2023-08-16_08h15.51.083,HF_wild_card,2022.2.4,Win32,60.11421701,5cb710c9ac9259001681e253,64d2fd46c836a06233681665,64dc7790573c091cd0be8935,,,,,,,ctch,resources/DY.BMP,resources/DG.BMP,Door4,-0.32037037,0.041666667,1,0,0,0.5302,optionLeft,60,8550,4,32,0,32,0,1,,,,,,,,,,,,,,,,,,,,,,,,,,,,,,,,,,,,,,,
,,,,,,,,2023-08-16_08h15.51.083,HF_wild_card,2022.2.4,Win32,60.11421701,5cb710c9ac9259001681e253,64d2fd46c836a06233681665,64dc7790573c091cd0be8935,,,,,,,decisionTrl,resources/DG.BMP,resources/DR.BMP,Door2,0.419444444,0.07037037,1,0,0,0.831,optionRight,20,8570,4,33,0,33,0,1,,,,,,,,,,,,,,,,,,,,,,,,,,,,,,,,,,,,,,,
,,,,,,,,2023-08-16_08h15.51.083,HF_wild_card,2022.2.4,Win32,60.11421701,5cb710c9ac9259001681e253,64d2fd46c836a06233681665,64dc7790573c091cd0be8935,,,,,,,decisionTrl,resources/DR.BMP,resources/DB.BMP,Door2,-0.239814815,-0.002777778,1,0,0,0.8482,optionLeft,40,8610,4,34,0,34,0,1,,,,,,,,,,,,,,,,,,,,,,,,,,,,,,,,,,,,,,,
,,,,,,,,2023-08-16_08h15.51.083,HF_wild_card,2022.2.4,Win32,60.11421701,5cb710c9ac9259001681e253,64d2fd46c836a06233681665,64dc7790573c091cd0be8935,,,,,,,decisionTrl,resources/DG.BMP,resources/DR.BMP,Door2,0.350925926,0.009259259,1,0,0,0.4645,optionRight,40,8650,4,35,0,35,0,1,,,,,,,,,,,,,,,,,,,,,,,,,,,,,,,,,,,,,,,
,,,,,,,,2023-08-16_08h15.51.083,HF_wild_card,2022.2.4,Win32,60.11421701,5cb710c9ac9259001681e253,64d2fd46c836a06233681665,64dc7790573c091cd0be8935,,,,,,,decisionTrl,resources/DR.BMP,resources/DG.BMP,Door2,-0.185185185,-0.008333333,1,0,0,0.5475,optionLeft,40,8690,4,36,0,36,0,1,,,,,,,,,,,,,,,,,,,,,,,,,,,,,,,,,,,,,,,
,,,,,,,,2023-08-16_08h15.51.083,HF_wild_card,2022.2.4,Win32,60.11421701,5cb710c9ac9259001681e253,64d2fd46c836a06233681665,64dc7790573c091cd0be8935,,,,,,,sngl,resources/DB.BMP,resources/Empty.png,WildCard_Ex,-0.165740741,-0.021296296,1,0,0,0.5322,optionLeft,45,8735,4,37,0,37,0,1,,,,,,,,,,,,,,,,,,,,,,,,,,,,,,,,,,,,,,,
,,,,,,,,2023-08-16_08h15.51.083,HF_wild_card,2022.2.4,Win32,60.11421701,5cb710c9ac9259001681e253,64d2fd46c836a06233681665,64dc7790573c091cd0be8935,,,,,,,sngl,resources/Empty.png,resources/DY.BMP,Door4,0.425925926,-0.006481481,1,0,0,0.4977,optionRight,80,8815,4,38,0,38,0,1,,,,,,,,,,,,,,,,,,,,,,,,,,,,,,,,,,,,,,,
,,,,,,,,2023-08-16_08h15.51.083,HF_wild_card,2022.2.4,Win32,60.11421701,5cb710c9ac9259001681e253,64d2fd46c836a06233681665,64dc7790573c091cd0be8935,,,,,,,decisionTrl,resources/DG.BMP,resources/DR.BMP,Door1,-0.125925926,0.007407407,1,0,0,0.4478,optionLeft,30,8845,4,39,0,39,0,1,,,,,,,,,,,,,,,,,,,,,,,,,,,,,,,,,,,,,,,
,,,,,,,,2023-08-16_08h15.51.083,HF_wild_card,2022.2.4,Win32,60.11421701,5cb710c9ac9259001681e253,64d2fd46c836a06233681665,64dc7790573c091cd0be8935,,,,,,,ctch,resources/DP.BMP,resources/DR.BMP,Door2,0.387962963,0.025,1,0,0,0.5491,optionRight,20,8865,4,40,0,40,0,1,,,,,,,,,,,,,,,,,,,,,,,,,,,,,,,,,,,,,,,
,,,,,,,,2023-08-16_08h15.51.083,HF_wild_card,2022.2.4,Win32,60.11421701,5cb710c9ac9259001681e253,64d2fd46c836a06233681665,64dc7790573c091cd0be8935,,,,,,,sngl,resources/DG.BMP,resources/Empty.png,Door1,-0.192592593,-0.030555556,1,0,0,1.206,optionLeft,30,8895,4,41,0,41,0,1,,,,,,,,,,,,,,,,,,,,,,,,,,,,,,,,,,,,,,,
,,,,,,,,2023-08-16_08h15.51.083,HF_wild_card,2022.2.4,Win32,60.11421701,5cb710c9ac9259001681e253,64d2fd46c836a06233681665,64dc7790573c091cd0be8935,,,,,,,sngl,resources/DP.BMP,resources/Empty.png,Door3,-0.27037037,-0.006481481,1,0,0,0.5483,optionLeft,70,8965,4,42,0,42,0,1,,,,,,,,,,,,,,,,,,,,,,,,,,,,,,,,,,,,,,,
,,,,,,,,2023-08-16_08h15.51.083,HF_wild_card,2022.2.4,Win32,60.11421701,5cb710c9ac9259001681e253,64d2fd46c836a06233681665,64dc7790573c091cd0be8935,,,,,,,ctch,resources/DP.BMP,resources/DR.BMP,Door2,0.206481481,0.032407407,1,0,0,1.0162,optionRight,40,9005,4,43,0,43,0,1,,,,,,,,,,,,,,,,,,,,,,,,,,,,,,,,,,,,,,,
,,,,,,,,2023-08-16_08h15.51.083,HF_wild_card,2022.2.4,Win32,60.11421701,5cb710c9ac9259001681e253,64d2fd46c836a06233681665,64dc7790573c091cd0be8935,,,,,,,,,,,,,,,,,,,,,,,,,,3,0,3,0,1,,,,,,,,,,,,,,,,,,,,,,,,,,,,,,,,,,
,,,,,,,,2023-08-16_08h15.51.083,HF_wild_card,2022.2.4,Win32,60.11421701,5cb710c9ac9259001681e253,64d2fd46c836a06233681665,64dc7790573c091cd0be8935,,,,,,,sngl,resources/Empty.png,resources/DR.BMP,Door2,0.462037037,0.101851852,1,0,0,0.5719,optionRight,20,9025,5,0,0,0,0,1,,,,,,,,,,,,,,,,,,,,,,,,,,,,,,,,,,,,,,,
,,,,,,,,2023-08-16_08h15.51.083,HF_wild_card,2022.2.4,Win32,60.11421701,5cb710c9ac9259001681e253,64d2fd46c836a06233681665,64dc7790573c091cd0be8935,,,,,,,decisionTrl,resources/DR.BMP,resources/DB.BMP,Door2,-0.30462963,-0.006481481,1,0,0,0.5647,optionLeft,40,9065,5,1,0,1,0,1,,,,,,,,,,,,,,,,,,,,,,,,,,,,,,,,,,,,,,,
,,,,,,,,2023-08-16_08h15.51.083,HF_wild_card,2022.2.4,Win32,60.11421701,5cb710c9ac9259001681e253,64d2fd46c836a06233681665,64dc7790573c091cd0be8935,,,,,,,sngl,resources/Empty.png,resources/DG.BMP,Door1,0.421296296,-0.039814815,1,0,0,0.5312,optionRight,30,9095,5,2,0,2,0,1,,,,,,,,,,,,,,,,,,,,,,,,,,,,,,,,,,,,,,,
,,,,,,,,2023-08-16_08h15.51.083,HF_wild_card,2022.2.4,Win32,60.11421701,5cb710c9ac9259001681e253,64d2fd46c836a06233681665,64dc7790573c091cd0be8935,,,,,,,sngl,resources/DY.BMP,resources/Empty.png,Door4,-0.242592593,-0.005555556,1,0,0,0.5524,optionLeft,80,9175,5,3,0,3,0,1,,,,,,,,,,,,,,,,,,,,,,,,,,,,,,,,,,,,,,,
,,,,,,,,2023-08-16_08h15.51.083,HF_wild_card,2022.2.4,Win32,60.11421701,5cb710c9ac9259001681e253,64d2fd46c836a06233681665,64dc7790573c091cd0be8935,,,,,,,sngl,resources/DP.BMP,resources/Empty.png,Door3,-0.290740741,0.013888889,1,0,0,0.4813,optionLeft,70,9245,5,4,0,4,0,1,,,,,,,,,,,,,,,,,,,,,,,,,,,,,,,,,,,,,,,
,,,,,,,,2023-08-16_08h15.51.083,HF_wild_card,2022.2.4,Win32,60.11421701,5cb710c9ac9259001681e253,64d2fd46c836a06233681665,64dc7790573c091cd0be8935,,,,,,,sngl,resources/Empty.png,resources/DB.BMP,WildCard_Ex,0.366666667,0.027777778,1,0,0,0.4635,optionRight,55,9300,5,5,0,5,0,1,,,,,,,,,,,,,,,,,,,,,,,,,,,,,,,,,,,,,,,
,,,,,,,,2023-08-16_08h15.51.083,HF_wild_card,2022.2.4,Win32,60.11421701,5cb710c9ac9259001681e253,64d2fd46c836a06233681665,64dc7790573c091cd0be8935,,,,,,,decisionTrl,resources/DR.BMP,resources/DG.BMP,Door2,-0.356481481,0.034259259,1,0,0,0.6961,optionLeft,20,9320,5,6,0,6,0,1,,,,,,,,,,,,,,,,,,,,,,,,,,,,,,,,,,,,,,,
,,,,,,,,2023-08-16_08h15.51.083,HF_wild_card,2022.2.4,Win32,60.11421701,5cb710c9ac9259001681e253,64d2fd46c836a06233681665,64dc7790573c091cd0be8935,,,,,,,ctch,resources/DP.BMP,resources/DR.BMP,Door2,0.291666667,0.030555556,1,0,0,0.9068,optionRight,20,9340,5,7,0,7,0,1,,,,,,,,,,,,,,,,,,,,,,,,,,,,,,,,,,,,,,,
,,,,,,,,2023-08-16_08h15.51.083,HF_wild_card,2022.2.4,Win32,60.11421701,5cb710c9ac9259001681e253,64d2fd46c836a06233681665,64dc7790573c091cd0be8935,,,,,,,decisionTrl,resources/DB.BMP,resources/DG.BMP,WildCard_Ex,-0.348148148,0.07962963,1,0,0,1.3966,optionLeft,55,9395,5,8,0,8,0,1,,,,,,,,,,,,,,,,,,,,,,,,,,,,,,,,,,,,,,,
,,,,,,,,2023-08-16_08h15.51.083,HF_wild_card,2022.2.4,Win32,60.11421701,5cb710c9ac9259001681e253,64d2fd46c836a06233681665,64dc7790573c091cd0be8935,,,,,,,decisionTrl,resources/DP.BMP,resources/DY.BMP,Door4,0.337962963,0.081481481,1,0,0,1.1716,optionRight,60,9455,5,9,0,9,0,1,,,,,,,,,,,,,,,,,,,,,,,,,,,,,,,,,,,,,,,
,,,,,,,,2023-08-16_08h15.51.083,HF_wild_card,2022.2.4,Win32,60.11421701,5cb710c9ac9259001681e253,64d2fd46c836a06233681665,64dc7790573c091cd0be8935,,,,,,,decisionTrl,resources/DG.BMP,resources/DR.BMP,Door2,0.369444444,0.062962963,1,0,0,0.8794,optionRight,20,9475,5,10,0,10,0,1,,,,,,,,,,,,,,,,,,,,,,,,,,,,,,,,,,,,,,,
,,,,,,,,2023-08-16_08h15.51.083,HF_wild_card,2022.2.4,Win32,60.11421701,5cb710c9ac9259001681e253,64d2fd46c836a06233681665,64dc7790573c091cd0be8935,,,,,,,decisionTrl,resources/DP.BMP,resources/DY.BMP,Door4,0.374074074,0.07037037,1,0,0,0.8114,optionRight,80,9555,5,11,0,11,0,1,,,,,,,,,,,,,,,,,,,,,,,,,,,,,,,,,,,,,,,
,,,,,,,,2023-08-16_08h15.51.083,HF_wild_card,2022.2.4,Win32,60.11421701,5cb710c9ac9259001681e253,64d2fd46c836a06233681665,64dc7790573c091cd0be8935,,,,,,,decisionTrl,resources/DB.BMP,resources/DP.BMP,Door3,0.486111111,0.091666667,1,0,0,1.1794,optionRight,70,9625,5,12,0,12,0,1,,,,,,,,,,,,,,,,,,,,,,,,,,,,,,,,,,,,,,,
,,,,,,,,2023-08-16_08h15.51.083,HF_wild_card,2022.2.4,Win32,60.11421701,5cb710c9ac9259001681e253,64d2fd46c836a06233681665,64dc7790573c091cd0be8935,,,,,,,decisionTrl,resources/DR.BMP,resources/DG.BMP,Door2,-0.225,0.056481481,1,0,0,0.6875,optionLeft,20,9645,5,13,0,13,0,1,,,,,,,,,,,,,,,,,,,,,,,,,,,,,,,,,,,,,,,
,,,,,,,,2023-08-16_08h15.51.083,HF_wild_card,2022.2.4,Win32,60.11421701,5cb710c9ac9259001681e253,64d2fd46c836a06233681665,64dc7790573c091cd0be8935,,,,,,,decisionTrl,resources/DP.BMP,resources/DB.BMP,WildCard_Ex,0.332407407,0.05,1,0,0,0.7483,optionRight,45,9690,5,14,0,14,0,1,,,,,,,,,,,,,,,,,,,,,,,,,,,,,,,,,,,,,,,
,,,,,,,,2023-08-16_08h15.51.083,HF_wild_card,2022.2.4,Win32,60.11421701,5cb710c9ac9259001681e253,64d2fd46c836a06233681665,64dc7790573c091cd0be8935,,,,,,,decisionTrl,resources/DP.BMP,resources/DY.BMP,Door4,0.398148148,0.011111111,1,0,0,0.7648,optionRight,60,9750,5,15,0,15,0,1,,,,,,,,,,,,,,,,,,,,,,,,,,,,,,,,,,,,,,,
,,,,,,,,2023-08-16_08h15.51.083,HF_wild_card,2022.2.4,Win32,60.11421701,5cb710c9ac9259001681e253,64d2fd46c836a06233681665,64dc7790573c091cd0be8935,,,,,,,decisionTrl,resources/DB.BMP,resources/DY.BMP,Door4,0.453703704,0.052777778,1,0,0,0.6297,optionRight,80,9830,5,16,0,16,0,1,,,,,,,,,,,,,,,,,,,,,,,,,,,,,,,,,,,,,,,
,,,,,,,,2023-08-16_08h15.51.083,HF_wild_card,2022.2.4,Win32,60.11421701,5cb710c9ac9259001681e253,64d2fd46c836a06233681665,64dc7790573c091cd0be8935,,,,,,,ctch,resources/DP.BMP,resources/DR.BMP,Door3,-0.294444444,0.028703704,1,0,0,0.4646,optionLeft,70,9900,5,17,0,17,0,1,,,,,,,,,,,,,,,,,,,,,,,,,,,,,,,,,,,,,,,
,,,,,,,,2023-08-16_08h15.51.083,HF_wild_card,2022.2.4,Win32,60.11421701,5cb710c9ac9259001681e253,64d2fd46c836a06233681665,64dc7790573c091cd0be8935,,,,,,,decisionTrl,resources/DG.BMP,resources/DR.BMP,Door2,0.407407407,0.080555556,1,0,0,0.3749,optionRight,40,9940,5,18,0,18,0,1,,,,,,,,,,,,,,,,,,,,,,,,,,,,,,,,,,,,,,,
,,,,,,,,2023-08-16_08h15.51.083,HF_wild_card,2022.2.4,Win32,60.11421701,5cb710c9ac9259001681e253,64d2fd46c836a06233681665,64dc7790573c091cd0be8935,,,,,,,decisionTrl,resources/DY.BMP,resources/DP.BMP,Door4,-0.331481481,0.05462963,1,0,0,0.7136,optionLeft,60,10000,5,19,0,19,0,1,,,,,,,,,,,,,,,,,,,,,,,,,,,,,,,,,,,,,,,
,,,,,,,,2023-08-16_08h15.51.083,HF_wild_card,2022.2.4,Win32,60.11421701,5cb710c9ac9259001681e253,64d2fd46c836a06233681665,64dc7790573c091cd0be8935,,,,,,,ctch,resources/DR.BMP,resources/DP.BMP,Door2,-0.401851852,0.063888889,1,0,0,0.8651,optionLeft,20,10020,5,20,0,20,0,1,,,,,,,,,,,,,,,,,,,,,,,,,,,,,,,,,,,,,,,
,,,,,,,,2023-08-16_08h15.51.083,HF_wild_card,2022.2.4,Win32,60.11421701,5cb710c9ac9259001681e253,64d2fd46c836a06233681665,64dc7790573c091cd0be8935,,,,,,,ctch,resources/DG.BMP,resources/DY.BMP,Door1,-0.318518519,0.057407407,1,0,0,0.4332,optionLeft,30,10050,5,21,0,21,0,1,,,,,,,,,,,,,,,,,,,,,,,,,,,,,,,,,,,,,,,
,,,,,,,,2023-08-16_08h15.51.083,HF_wild_card,2022.2.4,Win32,60.11421701,5cb710c9ac9259001681e253,64d2fd46c836a06233681665,64dc7790573c091cd0be8935,,,,,,,sngl,resources/Empty.png,resources/DY.BMP,Door4,0.374074074,0.044444444,1,0,0,0.4395,optionRight,60,10110,5,22,0,22,0,1,,,,,,,,,,,,,,,,,,,,,,,,,,,,,,,,,,,,,,,
,,,,,,,,2023-08-16_08h15.51.083,HF_wild_card,2022.2.4,Win32,60.11421701,5cb710c9ac9259001681e253,64d2fd46c836a06233681665,64dc7790573c091cd0be8935,,,,,,,ctch,resources/DR.BMP,resources/DP.BMP,Door2,-0.401851852,0.048148148,1,0,0,0.5478,optionLeft,20,10130,5,23,0,23,0,1,,,,,,,,,,,,,,,,,,,,,,,,,,,,,,,,,,,,,,,
,,,,,,,,2023-08-16_08h15.51.083,HF_wild_card,2022.2.4,Win32,60.11421701,5cb710c9ac9259001681e253,64d2fd46c836a06233681665,64dc7790573c091cd0be8935,,,,,,,decisionTrl,resources/DG.BMP,resources/DR.BMP,Door2,0.311111111,0.057407407,1,0,0,0.8964,optionRight,40,10170,5,24,0,24,0,1,,,,,,,,,,,,,,,,,,,,,,,,,,,,,,,,,,,,,,,
,,,,,,,,2023-08-16_08h15.51.083,HF_wild_card,2022.2.4,Win32,60.11421701,5cb710c9ac9259001681e253,64d2fd46c836a06233681665,64dc7790573c091cd0be8935,,,,,,,sngl,resources/Empty.png,resources/DP.BMP,Door3,0.432407407,0.05,1,0,0,0.4795,optionRight,70,10240,5,25,0,25,0,1,,,,,,,,,,,,,,,,,,,,,,,,,,,,,,,,,,,,,,,
,,,,,,,,2023-08-16_08h15.51.083,HF_wild_card,2022.2.4,Win32,60.11421701,5cb710c9ac9259001681e253,64d2fd46c836a06233681665,64dc7790573c091cd0be8935,,,,,,,decisionTrl,resources/DR.BMP,resources/DG.BMP,Door2,-0.347222222,0.087962963,1,0,0,0.5808,optionLeft,20,10260,5,26,0,26,0,1,,,,,,,,,,,,,,,,,,,,,,,,,,,,,,,,,,,,,,,
,,,,,,,,2023-08-16_08h15.51.083,HF_wild_card,2022.2.4,Win32,60.11421701,5cb710c9ac9259001681e253,64d2fd46c836a06233681665,64dc7790573c091cd0be8935,,,,,,,ctch,resources/DY.BMP,resources/DG.BMP,Door4,-0.32962963,0.110185185,1,0,0,0.8467,optionLeft,60,10320,5,27,0,27,0,1,,,,,,,,,,,,,,,,,,,,,,,,,,,,,,,,,,,,,,,
,,,,,,,,2023-08-16_08h15.51.083,HF_wild_card,2022.2.4,Win32,60.11421701,5cb710c9ac9259001681e253,64d2fd46c836a06233681665,64dc7790573c091cd0be8935,,,,,,,sngl,resources/Empty.png,resources/DB.BMP,WildCard_Ex,0.306481481,0.043518519,1,0,0,0.4645,optionRight,45,10365,5,28,0,28,0,1,,,,,,,,,,,,,,,,,,,,,,,,,,,,,,,,,,,,,,,
,,,,,,,,2023-08-16_08h15.51.083,HF_wild_card,2022.2.4,Win32,60.11421701,5cb710c9ac9259001681e253,64d2fd46c836a06233681665,64dc7790573c091cd0be8935,,,,,,,decisionTrl,resources/DG.BMP,resources/DB.BMP,Door1,-0.284259259,0.05,1,0,0,0.4298,optionLeft,30,10395,5,29,0,29,0,1,,,,,,,,,,,,,,,,,,,,,,,,,,,,,,,,,,,,,,,
,,,,,,,,2023-08-16_08h15.51.083,HF_wild_card,2022.2.4,Win32,60.11421701,5cb710c9ac9259001681e253,64d2fd46c836a06233681665,64dc7790573c091cd0be8935,,,,,,,sngl,resources/DB.BMP,resources/Empty.png,WildCard_Ex,-0.416666667,0.10462963,1,0,0,0.5307,optionLeft,45,10440,5,30,0,30,0,1,,,,,,,,,,,,,,,,,,,,,,,,,,,,,,,,,,,,,,,
,,,,,,,,2023-08-16_08h15.51.083,HF_wild_card,2022.2.4,Win32,60.11421701,5cb710c9ac9259001681e253,64d2fd46c836a06233681665,64dc7790573c091cd0be8935,,,,,,,decisionTrl,resources/DY.BMP,resources/DP.BMP,Door4,-0.440740741,0.128703704,1,0,0,0.7803,optionLeft,60,10500,5,31,0,31,0,1,,,,,,,,,,,,,,,,,,,,,,,,,,,,,,,,,,,,,,,
,,,,,,,,2023-08-16_08h15.51.083,HF_wild_card,2022.2.4,Win32,60.11421701,5cb710c9ac9259001681e253,64d2fd46c836a06233681665,64dc7790573c091cd0be8935,,,,,,,sngl,resources/DR.BMP,resources/Empty.png,Door2,-0.553703704,0.116666667,1,0,0,0.4801,optionLeft,40,10540,5,32,0,32,0,1,,,,,,,,,,,,,,,,,,,,,,,,,,,,,,,,,,,,,,,
,,,,,,,,2023-08-16_08h15.51.083,HF_wild_card,2022.2.4,Win32,60.11421701,5cb710c9ac9259001681e253,64d2fd46c836a06233681665,64dc7790573c091cd0be8935,,,,,,,decisionTrl,resources/DG.BMP,resources/DR.BMP,Door2,0.398148148,-0.043518519,1,0,0,0.6302,optionRight,20,10560,5,33,0,33,0,1,,,,,,,,,,,,,,,,,,,,,,,,,,,,,,,,,,,,,,,
,,,,,,,,2023-08-16_08h15.51.083,HF_wild_card,2022.2.4,Win32,60.11421701,5cb710c9ac9259001681e253,64d2fd46c836a06233681665,64dc7790573c091cd0be8935,,,,,,,decisionTrl,resources/DR.BMP,resources/DG.BMP,Door2,-0.343518519,0.09537037,1,0,0,0.4145,optionLeft,40,10600,5,34,0,34,0,1,,,,,,,,,,,,,,,,,,,,,,,,,,,,,,,,,,,,,,,
,,,,,,,,2023-08-16_08h15.51.083,HF_wild_card,2022.2.4,Win32,60.11421701,5cb710c9ac9259001681e253,64d2fd46c836a06233681665,64dc7790573c091cd0be8935,,,,,,,decisionTrl,resources/DY.BMP,resources/DP.BMP,Door3,0.30462963,0.014814815,1,0,0,0.4124,optionRight,70,10670,5,35,0,35,0,1,,,,,,,,,,,,,,,,,,,,,,,,,,,,,,,,,,,,,,,
,,,,,,,,2023-08-16_08h15.51.083,HF_wild_card,2022.2.4,Win32,60.11421701,5cb710c9ac9259001681e253,64d2fd46c836a06233681665,64dc7790573c091cd0be8935,,,,,,,sngl,resources/DB.BMP,resources/Empty.png,WildCard_Ex,-0.419444444,0.112037037,1,0,0,0.3631,optionLeft,55,10725,5,36,0,36,0,1,,,,,,,,,,,,,,,,,,,,,,,,,,,,,,,,,,,,,,,
,,,,,,,,2023-08-16_08h15.51.083,HF_wild_card,2022.2.4,Win32,60.11421701,5cb710c9ac9259001681e253,64d2fd46c836a06233681665,64dc7790573c091cd0be8935,,,,,,,ctch,resources/DY.BMP,resources/DG.BMP,Door4,-0.487962963,0.118518519,1,0,0,0.3819,optionLeft,80,10805,5,37,0,37,0,1,,,,,,,,,,,,,,,,,,,,,,,,,,,,,,,,,,,,,,,
,,,,,,,,2023-08-16_08h15.51.083,HF_wild_card,2022.2.4,Win32,60.11421701,5cb710c9ac9259001681e253,64d2fd46c836a06233681665,64dc7790573c091cd0be8935,,,,,,,sngl,resources/DG.BMP,resources/Empty.png,Door1,-0.32037037,0.060185185,1,0,0,0.3835,optionLeft,30,10835,5,38,0,38,0,1,,,,,,,,,,,,,,,,,,,,,,,,,,,,,,,,,,,,,,,
,,,,,,,,2023-08-16_08h15.51.083,HF_wild_card,2022.2.4,Win32,60.11421701,5cb710c9ac9259001681e253,64d2fd46c836a06233681665,64dc7790573c091cd0be8935,,,,,,,decisionTrl,resources/DY.BMP,resources/DB.BMP,Door4,-0.325,0.056481481,1,0,0,0.314,optionLeft,80,10915,5,39,0,39,0,1,,,,,,,,,,,,,,,,,,,,,,,,,,,,,,,,,,,,,,,
,,,,,,,,2023-08-16_08h15.51.083,HF_wild_card,2022.2.4,Win32,60.11421701,5cb710c9ac9259001681e253,64d2fd46c836a06233681665,64dc7790573c091cd0be8935,,,,,,,decisionTrl,resources/DY.BMP,resources/DP.BMP,Door4,-0.278703704,0.057407407,1,0,0,0.4649,optionLeft,60,10975,5,40,0,40,0,1,,,,,,,,,,,,,,,,,,,,,,,,,,,,,,,,,,,,,,,
,,,,,,,,2023-08-16_08h15.51.083,HF_wild_card,2022.2.4,Win32,60.11421701,5cb710c9ac9259001681e253,64d2fd46c836a06233681665,64dc7790573c091cd0be8935,,,,,,,ctch,resources/DG.BMP,resources/DY.BMP,Door1,-0.315740741,0.053703704,1,0,0,0.3474,optionLeft,30,11005,5,41,0,41,0,1,,,,,,,,,,,,,,,,,,,,,,,,,,,,,,,,,,,,,,,
,,,,,,,,2023-08-16_08h15.51.083,HF_wild_card,2022.2.4,Win32,60.11421701,5cb710c9ac9259001681e253,64d2fd46c836a06233681665,64dc7790573c091cd0be8935,,,,,,,decisionTrl,resources/DP.BMP,resources/DY.BMP,Door3,-0.250925926,0.030555556,1,0,0,0.3643,optionLeft,70,11075,5,42,0,42,0,1,,,,,,,,,,,,,,,,,,,,,,,,,,,,,,,,,,,,,,,
,,,,,,,,2023-08-16_08h15.51.083,HF_wild_card,2022.2.4,Win32,60.11421701,5cb710c9ac9259001681e253,64d2fd46c836a06233681665,64dc7790573c091cd0be8935,,,,,,,decisionTrl,resources/DB.BMP,resources/DR.BMP,Door2,0.312037037,0.00462963,1,0,0,0.9972,optionRight,40,11115,5,43,0,43,0,1,,,,,,,,,,,,,,,,,,,,,,,,,,,,,,,,,,,,,,,
,,,,,,,,2023-08-16_08h15.51.083,HF_wild_card,2022.2.4,Win32,60.11421701,5cb710c9ac9259001681e253,64d2fd46c836a06233681665,64dc7790573c091cd0be8935,,,,,,,,,,,,,,,,,,,,,,,,,,4,0,4,0,1,,,,,,,,,,,,,,,,,,,,,,,,,,,,,,,,,,
,,,,,,,,2023-08-16_08h15.51.083,HF_wild_card,2022.2.4,Win32,60.11421701,5cb710c9ac9259001681e253,64d2fd46c836a06233681665,64dc7790573c091cd0be8935,,,,,,,decisionTrl,resources/DB.BMP,resources/DR.BMP,WildCard_Ex,-0.396296296,0.043518519,1,0,0,0.4885,optionLeft,45,11160,6,0,0,0,0,1,,,,,,,,,,,,,,,,,,,,,,,,,,,,,,,,,,,,,,,
,,,,,,,,2023-08-16_08h15.51.083,HF_wild_card,2022.2.4,Win32,60.11421701,5cb710c9ac9259001681e253,64d2fd46c836a06233681665,64dc7790573c091cd0be8935,,,,,,,ctch,resources/DR.BMP,resources/DP.BMP,Door3,0.306481481,-0.05,1,0,0,0.3813,optionRight,70,11230,6,1,0,1,0,1,,,,,,,,,,,,,,,,,,,,,,,,,,,,,,,,,,,,,,,
,,,,,,,,2023-08-16_08h15.51.083,HF_wild_card,2022.2.4,Win32,60.11421701,5cb710c9ac9259001681e253,64d2fd46c836a06233681665,64dc7790573c091cd0be8935,,,,,,,ctch,resources/DG.BMP,resources/DY.BMP,Door1,-0.266666667,0.072222222,1,0,0,0.2977,optionLeft,30,11260,6,2,0,2,0,1,,,,,,,,,,,,,,,,,,,,,,,,,,,,,,,,,,,,,,,
,,,,,,,,2023-08-16_08h15.51.083,HF_wild_card,2022.2.4,Win32,60.11421701,5cb710c9ac9259001681e253,64d2fd46c836a06233681665,64dc7790573c091cd0be8935,,,,,,,decisionTrl,resources/DR.BMP,resources/DG.BMP,Door2,-0.272222222,0.133333333,1,0,0,0.7865,optionLeft,40,11300,6,3,0,3,0,1,,,,,,,,,,,,,,,,,,,,,,,,,,,,,,,,,,,,,,,
,,,,,,,,2023-08-16_08h15.51.083,HF_wild_card,2022.2.4,Win32,60.11421701,5cb710c9ac9259001681e253,64d2fd46c836a06233681665,64dc7790573c091cd0be8935,,,,,,,ctch,resources/DY.BMP,resources/DG.BMP,Door4,-0.393518519,0.124074074,1,0,0,0.8639,optionLeft,60,11360,6,4,0,4,0,1,,,,,,,,,,,,,,,,,,,,,,,,,,,,,,,,,,,,,,,
,,,,,,,,2023-08-16_08h15.51.083,HF_wild_card,2022.2.4,Win32,60.11421701,5cb710c9ac9259001681e253,64d2fd46c836a06233681665,64dc7790573c091cd0be8935,,,,,,,decisionTrl,resources/DG.BMP,resources/DR.BMP,Door1,-0.391666667,0.121296296,1,0,0,0.4454,optionLeft,30,11390,6,5,0,5,0,1,,,,,,,,,,,,,,,,,,,,,,,,,,,,,,,,,,,,,,,
,,,,,,,,2023-08-16_08h15.51.083,HF_wild_card,2022.2.4,Win32,60.11421701,5cb710c9ac9259001681e253,64d2fd46c836a06233681665,64dc7790573c091cd0be8935,,,,,,,decisionTrl,resources/DG.BMP,resources/DR.BMP,Door2,0.414814815,0.056481481,1,0,0,0.3481,optionRight,20,11410,6,6,0,6,0,1,,,,,,,,,,,,,,,,,,,,,,,,,,,,,,,,,,,,,,,
,,,,,,,,2023-08-16_08h15.51.083,HF_wild_card,2022.2.4,Win32,60.11421701,5cb710c9ac9259001681e253,64d2fd46c836a06233681665,64dc7790573c091cd0be8935,,,,,,,decisionTrl,resources/DY.BMP,resources/DP.BMP,Door4,-0.425925926,0.061111111,1,0,0,0.505,optionLeft,60,11470,6,7,0,7,0,1,,,,,,,,,,,,,,,,,,,,,,,,,,,,,,,,,,,,,,,
,,,,,,,,2023-08-16_08h15.51.083,HF_wild_card,2022.2.4,Win32,60.11421701,5cb710c9ac9259001681e253,64d2fd46c836a06233681665,64dc7790573c091cd0be8935,,,,,,,sngl,resources/DY.BMP,resources/Empty.png,Door4,-0.40462963,0.082407407,1,0,0,0.4395,optionLeft,60,11530,6,8,0,8,0,1,,,,,,,,,,,,,,,,,,,,,,,,,,,,,,,,,,,,,,,
,,,,,,,,2023-08-16_08h15.51.083,HF_wild_card,2022.2.4,Win32,60.11421701,5cb710c9ac9259001681e253,64d2fd46c836a06233681665,64dc7790573c091cd0be8935,,,,,,,decisionTrl,resources/DR.BMP,resources/DB.BMP,Door2,-0.405555556,0.119444444,1,0,0,0.6561,optionLeft,20,11550,6,9,0,9,0,1,,,,,,,,,,,,,,,,,,,,,,,,,,,,,,,,,,,,,,,
,,,,,,,,2023-08-16_08h15.51.083,HF_wild_card,2022.2.4,Win32,60.11421701,5cb710c9ac9259001681e253,64d2fd46c836a06233681665,64dc7790573c091cd0be8935,,,,,,,decisionTrl,resources/DY.BMP,resources/DB.BMP,Door4,-0.433333333,0.143518519,1,0,0,0.8734,optionLeft,80,11630,6,10,0,10,0,1,,,,,,,,,,,,,,,,,,,,,,,,,,,,,,,,,,,,,,,
,,,,,,,,2023-08-16_08h15.51.083,HF_wild_card,2022.2.4,Win32,60.11421701,5cb710c9ac9259001681e253,64d2fd46c836a06233681665,64dc7790573c091cd0be8935,,,,,,,sngl,resources/Empty.png,resources/DB.BMP,WildCard_Ex,0.412962963,-0.050925926,1,0,0,0.505,optionRight,45,11675,6,11,0,11,0,1,,,,,,,,,,,,,,,,,,,,,,,,,,,,,,,,,,,,,,,
,,,,,,,,2023-08-16_08h15.51.083,HF_wild_card,2022.2.4,Win32,60.11421701,5cb710c9ac9259001681e253,64d2fd46c836a06233681665,64dc7790573c091cd0be8935,,,,,,,sngl,resources/DB.BMP,resources/Empty.png,WildCard_Ex,-0.333333333,0.061111111,1,0,0,0.3894,optionLeft,55,11730,6,12,0,12,0,1,,,,,,,,,,,,,,,,,,,,,,,,,,,,,,,,,,,,,,,
,,,,,,,,2023-08-16_08h15.51.083,HF_wild_card,2022.2.4,Win32,60.11421701,5cb710c9ac9259001681e253,64d2fd46c836a06233681665,64dc7790573c091cd0be8935,,,,,,,decisionTrl,resources/DB.BMP,resources/DP.BMP,WildCard_Ex,-0.394444444,0.088888889,1,0,0,0.5902,optionLeft,45,11775,6,13,0,13,0,1,,,,,,,,,,,,,,,,,,,,,,,,,,,,,,,,,,,,,,,
,,,,,,,,2023-08-16_08h15.51.083,HF_wild_card,2022.2.4,Win32,60.11421701,5cb710c9ac9259001681e253,64d2fd46c836a06233681665,64dc7790573c091cd0be8935,,,,,,,decisionTrl,resources/DY.BMP,resources/DP.BMP,Door4,-0.263888889,0.021296296,1,0,0,0.6783,optionLeft,80,11855,6,14,0,14,0,1,,,,,,,,,,,,,,,,,,,,,,,,,,,,,,,,,,,,,,,
,,,,,,,,2023-08-16_08h15.51.083,HF_wild_card,2022.2.4,Win32,60.11421701,5cb710c9ac9259001681e253,64d2fd46c836a06233681665,64dc7790573c091cd0be8935,,,,,,,decisionTrl,resources/DB.BMP,resources/DY.BMP,Door4,0.294444444,0.05,1,0,0,0.4312,optionRight,60,11915,6,15,0,15,0,1,,,,,,,,,,,,,,,,,,,,,,,,,,,,,,,,,,,,,,,
,,,,,,,,2023-08-16_08h15.51.083,HF_wild_card,2022.2.4,Win32,60.11421701,5cb710c9ac9259001681e253,64d2fd46c836a06233681665,64dc7790573c091cd0be8935,,,,,,,decisionTrl,resources/DG.BMP,resources/DB.BMP,WildCard_Ex,0.467592593,0.067592593,1,0,0,0.8264,optionRight,45,11960,6,16,0,16,0,1,,,,,,,,,,,,,,,,,,,,,,,,,,,,,,,,,,,,,,,
,,,,,,,,2023-08-16_08h15.51.083,HF_wild_card,2022.2.4,Win32,60.11421701,5cb710c9ac9259001681e253,64d2fd46c836a06233681665,64dc7790573c091cd0be8935,,,,,,,sngl,resources/DP.BMP,resources/Empty.png,Door3,-0.40462963,0.12037037,1,0,0,0.4091,optionLeft,70,12030,6,17,0,17,0,1,,,,,,,,,,,,,,,,,,,,,,,,,,,,,,,,,,,,,,,
,,,,,,,,2023-08-16_08h15.51.083,HF_wild_card,2022.2.4,Win32,60.11421701,5cb710c9ac9259001681e253,64d2fd46c836a06233681665,64dc7790573c091cd0be8935,,,,,,,decisionTrl,resources/DG.BMP,resources/DR.BMP,Door1,-0.292592593,0.040740741,1,0,0,0.8976,optionLeft,30,12060,6,18,0,18,0,1,,,,,,,,,,,,,,,,,,,,,,,,,,,,,,,,,,,,,,,
,,,,,,,,2023-08-16_08h15.51.083,HF_wild_card,2022.2.4,Win32,60.11421701,5cb710c9ac9259001681e253,64d2fd46c836a06233681665,64dc7790573c091cd0be8935,,,,,,,ctch,resources/DP.BMP,resources/DR.BMP,Door2,0.362962963,-0.028703704,1,0,0,0.5471,optionRight,20,12080,6,19,0,19,0,1,,,,,,,,,,,,,,,,,,,,,,,,,,,,,,,,,,,,,,,
,,,,,,,,2023-08-16_08h15.51.083,HF_wild_card,2022.2.4,Win32,60.11421701,5cb710c9ac9259001681e253,64d2fd46c836a06233681665,64dc7790573c091cd0be8935,,,,,,,sngl,resources/Empty.png,resources/DB.BMP,WildCard_Ex,0.380555556,-0.039814815,1,0,0,0.5318,optionRight,55,12135,6,20,0,20,0,1,,,,,,,,,,,,,,,,,,,,,,,,,,,,,,,,,,,,,,,
,,,,,,,,2023-08-16_08h15.51.083,HF_wild_card,2022.2.4,Win32,60.11421701,5cb710c9ac9259001681e253,64d2fd46c836a06233681665,64dc7790573c091cd0be8935,,,,,,,sngl,resources/Empty.png,resources/DY.BMP,Door4,0.265740741,0.008333333,1,0,0,0.4316,optionRight,80,12215,6,21,0,21,0,1,,,,,,,,,,,,,,,,,,,,,,,,,,,,,,,,,,,,,,,
,,,,,,,,2023-08-16_08h15.51.083,HF_wild_card,2022.2.4,Win32,60.11421701,5cb710c9ac9259001681e253,64d2fd46c836a06233681665,64dc7790573c091cd0be8935,,,,,,,sngl,resources/DR.BMP,resources/Empty.png,Door2,-0.224074074,0.05462963,1,0,0,0.5149,optionLeft,20,12235,6,22,0,22,0,1,,,,,,,,,,,,,,,,,,,,,,,,,,,,,,,,,,,,,,,
,,,,,,,,2023-08-16_08h15.51.083,HF_wild_card,2022.2.4,Win32,60.11421701,5cb710c9ac9259001681e253,64d2fd46c836a06233681665,64dc7790573c091cd0be8935,,,,,,,decisionTrl,resources/DB.BMP,resources/DG.BMP,WildCard_Ex,-0.235185185,0.037037037,1,0,0,1.3811,optionLeft,45,12280,6,23,0,23,0,1,,,,,,,,,,,,,,,,,,,,,,,,,,,,,,,,,,,,,,,
,,,,,,,,2023-08-16_08h15.51.083,HF_wild_card,2022.2.4,Win32,60.11421701,5cb710c9ac9259001681e253,64d2fd46c836a06233681665,64dc7790573c091cd0be8935,,,,,,,sngl,resources/Empty.png,resources/DP.BMP,Door3,0.435185185,-0.030555556,1,0,0,0.329,optionRight,70,12350,6,24,0,24,0,1,,,,,,,,,,,,,,,,,,,,,,,,,,,,,,,,,,,,,,,
,,,,,,,,2023-08-16_08h15.51.083,HF_wild_card,2022.2.4,Win32,60.11421701,5cb710c9ac9259001681e253,64d2fd46c836a06233681665,64dc7790573c091cd0be8935,,,,,,,decisionTrl,resources/DP.BMP,resources/DY.BMP,Door4,0.385185185,-0.012962963,1,0,0,0.7134,optionRight,60,12410,6,25,0,25,0,1,,,,,,,,,,,,,,,,,,,,,,,,,,,,,,,,,,,,,,,
,,,,,,,,2023-08-16_08h15.51.083,HF_wild_card,2022.2.4,Win32,60.11421701,5cb710c9ac9259001681e253,64d2fd46c836a06233681665,64dc7790573c091cd0be8935,,,,,,,sngl,resources/Empty.png,resources/DR.BMP,Door2,0.399074074,0.006481481,1,0,0,0.4802,optionRight,40,12450,6,26,0,26,0,1,,,,,,,,,,,,,,,,,,,,,,,,,,,,,,,,,,,,,,,
,,,,,,,,2023-08-16_08h15.51.083,HF_wild_card,2022.2.4,Win32,60.11421701,5cb710c9ac9259001681e253,64d2fd46c836a06233681665,64dc7790573c091cd0be8935,,,,,,,decisionTrl,resources/DY.BMP,resources/DP.BMP,Door4,-0.372222222,0.075925926,1,0,0,0.5152,optionLeft,80,12530,6,27,0,27,0,1,,,,,,,,,,,,,,,,,,,,,,,,,,,,,,,,,,,,,,,
,,,,,,,,2023-08-16_08h15.51.083,HF_wild_card,2022.2.4,Win32,60.11421701,5cb710c9ac9259001681e253,64d2fd46c836a06233681665,64dc7790573c091cd0be8935,,,,,,,sngl,resources/DB.BMP,resources/Empty.png,WildCard_Ex,-0.291666667,0.067592593,1,0,0,0.5315,optionLeft,45,12575,6,28,0,28,0,1,,,,,,,,,,,,,,,,,,,,,,,,,,,,,,,,,,,,,,,
,,,,,,,,2023-08-16_08h15.51.083,HF_wild_card,2022.2.4,Win32,60.11421701,5cb710c9ac9259001681e253,64d2fd46c836a06233681665,64dc7790573c091cd0be8935,,,,,,,decisionTrl,resources/DP.BMP,resources/DB.BMP,Door3,-0.264814815,0.058333333,1,0,0,0.6811,optionLeft,70,12645,6,29,0,29,0,1,,,,,,,,,,,,,,,,,,,,,,,,,,,,,,,,,,,,,,,
,,,,,,,,2023-08-16_08h15.51.083,HF_wild_card,2022.2.4,Win32,60.11421701,5cb710c9ac9259001681e253,64d2fd46c836a06233681665,64dc7790573c091cd0be8935,,,,,,,ctch,resources/DR.BMP,resources/DP.BMP,Door2,-0.352777778,0.065740741,1,0,0,0.7506,optionLeft,20,12665,6,30,0,30,0,1,,,,,,,,,,,,,,,,,,,,,,,,,,,,,,,,,,,,,,,
,,,,,,,,2023-08-16_08h15.51.083,HF_wild_card,2022.2.4,Win32,60.11421701,5cb710c9ac9259001681e253,64d2fd46c836a06233681665,64dc7790573c091cd0be8935,,,,,,,ctch,resources/DG.BMP,resources/DY.BMP,Door4,0.336111111,0.011111111,1,0,0,0.4797,optionRight,60,12725,6,31,0,31,0,1,,,,,,,,,,,,,,,,,,,,,,,,,,,,,,,,,,,,,,,
,,,,,,,,2023-08-16_08h15.51.083,HF_wild_card,2022.2.4,Win32,60.11421701,5cb710c9ac9259001681e253,64d2fd46c836a06233681665,64dc7790573c091cd0be8935,,,,,,,decisionTrl,resources/DP.BMP,resources/DY.BMP,Door4,0.480555556,0.022222222,1,0,0,0.4392,optionRight,60,12785,6,32,0,32,0,1,,,,,,,,,,,,,,,,,,,,,,,,,,,,,,,,,,,,,,,
,,,,,,,,2023-08-16_08h15.51.083,HF_wild_card,2022.2.4,Win32,60.11421701,5cb710c9ac9259001681e253,64d2fd46c836a06233681665,64dc7790573c091cd0be8935,,,,,,,sngl,resources/Empty.png,resources/DG.BMP,Door1,0.559259259,0.043518519,1,0,0,0.4458,optionRight,30,12815,6,33,0,33,0,1,,,,,,,,,,,,,,,,,,,,,,,,,,,,,,,,,,,,,,,
,,,,,,,,2023-08-16_08h15.51.083,HF_wild_card,2022.2.4,Win32,60.11421701,5cb710c9ac9259001681e253,64d2fd46c836a06233681665,64dc7790573c091cd0be8935,,,,,,,decisionTrl,resources/DP.BMP,resources/DY.BMP,Door4,0.305555556,0.035185185,1,0,0,0.5151,optionRight,80,12895,6,34,0,34,0,1,,,,,,,,,,,,,,,,,,,,,,,,,,,,,,,,,,,,,,,
,,,,,,,,2023-08-16_08h15.51.083,HF_wild_card,2022.2.4,Win32,60.11421701,5cb710c9ac9259001681e253,64d2fd46c836a06233681665,64dc7790573c091cd0be8935,,,,,,,decisionTrl,resources/DY.BMP,resources/DP.BMP,Door4,-0.30462963,0.060185185,1,0,0,0.565,optionLeft,80,12975,6,35,0,35,0,1,,,,,,,,,,,,,,,,,,,,,,,,,,,,,,,,,,,,,,,
,,,,,,,,2023-08-16_08h15.51.083,HF_wild_card,2022.2.4,Win32,60.11421701,5cb710c9ac9259001681e253,64d2fd46c836a06233681665,64dc7790573c091cd0be8935,,,,,,,decisionTrl,resources/DR.BMP,resources/DG.BMP,Door2,-0.290740741,0.068518519,1,0,0,0.7154,optionLeft,20,12995,6,36,0,36,0,1,,,,,,,,,,,,,,,,,,,,,,,,,,,,,,,,,,,,,,,
,,,,,,,,2023-08-16_08h15.51.083,HF_wild_card,2022.2.4,Win32,60.11421701,5cb710c9ac9259001681e253,64d2fd46c836a06233681665,64dc7790573c091cd0be8935,,,,,,,sngl,resources/DG.BMP,resources/Empty.png,Door1,-0.238888889,0.059259259,1,0,0,0.465,optionLeft,30,13025,6,37,0,37,0,1,,,,,,,,,,,,,,,,,,,,,,,,,,,,,,,,,,,,,,,
,,,,,,,,2023-08-16_08h15.51.083,HF_wild_card,2022.2.4,Win32,60.11421701,5cb710c9ac9259001681e253,64d2fd46c836a06233681665,64dc7790573c091cd0be8935,,,,,,,decisionTrl,resources/DR.BMP,resources/DG.BMP,Door2,-0.327777778,0.014814815,1,0,0,0.8451,optionLeft,20,13045,6,38,0,38,0,1,,,,,,,,,,,,,,,,,,,,,,,,,,,,,,,,,,,,,,,
,,,,,,,,2023-08-16_08h15.51.083,HF_wild_card,2022.2.4,Win32,60.11421701,5cb710c9ac9259001681e253,64d2fd46c836a06233681665,64dc7790573c091cd0be8935,,,,,,,decisionTrl,resources/DG.BMP,resources/DR.BMP,Door2,0.32962963,0.037037037,1,0,0,1.1641,optionRight,20,13065,6,39,0,39,0,1,,,,,,,,,,,,,,,,,,,,,,,,,,,,,,,,,,,,,,,
,,,,,,,,2023-08-16_08h15.51.083,HF_wild_card,2022.2.4,Win32,60.11421701,5cb710c9ac9259001681e253,64d2fd46c836a06233681665,64dc7790573c091cd0be8935,,,,,,,ctch,resources/DP.BMP,resources/DR.BMP,Door3,-0.223148148,-0.002777778,1,0,0,0.3981,optionLeft,70,13135,6,40,0,40,0,1,,,,,,,,,,,,,,,,,,,,,,,,,,,,,,,,,,,,,,,
,,,,,,,,2023-08-16_08h15.51.083,HF_wild_card,2022.2.4,Win32,60.11421701,5cb710c9ac9259001681e253,64d2fd46c836a06233681665,64dc7790573c091cd0be8935,,,,,,,decisionTrl,resources/DP.BMP,resources/DY.BMP,Door4,0.32037037,-0.013888889,1,0,0,0.3656,optionRight,80,13215,6,41,0,41,0,1,,,,,,,,,,,,,,,,,,,,,,,,,,,,,,,,,,,,,,,
,,,,,,,,2023-08-16_08h15.51.083,HF_wild_card,2022.2.4,Win32,60.11421701,5cb710c9ac9259001681e253,64d2fd46c836a06233681665,64dc7790573c091cd0be8935,,,,,,,ctch,resources/DY.BMP,resources/DG.BMP,Door4,-0.390740741,0.002777778,1,0,0,0.6154,optionLeft,60,13275,6,42,0,42,0,1,,,,,,,,,,,,,,,,,,,,,,,,,,,,,,,,,,,,,,,
,,,,,,,,2023-08-16_08h15.51.083,HF_wild_card,2022.2.4,Win32,60.11421701,5cb710c9ac9259001681e253,64d2fd46c836a06233681665,64dc7790573c091cd0be8935,,,,,,,decisionTrl,resources/DR.BMP,resources/DG.BMP,Door2,-0.313888889,-0.011111111,1,0,0,0.7168,optionLeft,20,13295,6,43,0,43,0,1,,,,,,,,,,,,,,,,,,,,,,,,,,,,,,,,,,,,,,,
,,,,,,,,2023-08-16_08h15.51.083,HF_wild_card,2022.2.4,Win32,60.11421701,5cb710c9ac9259001681e253,64d2fd46c836a06233681665,64dc7790573c091cd0be8935,,,,,,,,,,,,,,,,,,,,,,,,,,5,0,5,0,1,,,,,,,,,,,,,,,,,,,,,,,,,,,,,,,,,,
,,,,,,,,2023-08-16_08h15.51.083,HF_wild_card,2022.2.4,Win32,60.11421701,5cb710c9ac9259001681e253,64d2fd46c836a06233681665,64dc7790573c091cd0be8935,,,,,,,decisionTrl,resources/DP.BMP,resources/DY.BMP,Door4,0.402777778,-0.003703704,1,0,0,1.0278,optionRight,80,13375,7,0,0,0,0,1,,,,,,,,,,,,,,,,,,,,,,,,,,,,,,,,,,,,,,,
,,,,,,,,2023-08-16_08h15.51.083,HF_wild_card,2022.2.4,Win32,60.11421701,5cb710c9ac9259001681e253,64d2fd46c836a06233681665,64dc7790573c091cd0be8935,,,,,,,decisionTrl,resources/DR.BMP,resources/DG.BMP,Door2,-0.296296296,0.02037037,1,0,0,0.6992,optionLeft,40,13415,7,1,0,1,0,1,,,,,,,,,,,,,,,,,,,,,,,,,,,,,,,,,,,,,,,
,,,,,,,,2023-08-16_08h15.51.083,HF_wild_card,2022.2.4,Win32,60.11421701,5cb710c9ac9259001681e253,64d2fd46c836a06233681665,64dc7790573c091cd0be8935,,,,,,,decisionTrl,resources/DR.BMP,resources/DG.BMP,Door2,-0.311111111,0.036111111,1,0,0,0.7161,optionLeft,40,13455,7,2,0,2,0,1,,,,,,,,,,,,,,,,,,,,,,,,,,,,,,,,,,,,,,,
,,,,,,,,2023-08-16_08h15.51.083,HF_wild_card,2022.2.4,Win32,60.11421701,5cb710c9ac9259001681e253,64d2fd46c836a06233681665,64dc7790573c091cd0be8935,,,,,,,decisionTrl,resources/DP.BMP,resources/DY.BMP,Door4,0.256481481,0.011111111,1,0,0,0.7142,optionRight,80,13535,7,3,0,3,0,1,,,,,,,,,,,,,,,,,,,,,,,,,,,,,,,,,,,,,,,
,,,,,,,,2023-08-16_08h15.51.083,HF_wild_card,2022.2.4,Win32,60.11421701,5cb710c9ac9259001681e253,64d2fd46c836a06233681665,64dc7790573c091cd0be8935,,,,,,,ctch,resources/DG.BMP,resources/DY.BMP,Door4,0.276851852,0.042592593,1,0,0,0.7814,optionRight,60,13595,7,4,0,4,0,1,,,,,,,,,,,,,,,,,,,,,,,,,,,,,,,,,,,,,,,
,,,,,,,,2023-08-16_08h15.51.083,HF_wild_card,2022.2.4,Win32,60.11421701,5cb710c9ac9259001681e253,64d2fd46c836a06233681665,64dc7790573c091cd0be8935,,,,,,,decisionTrl,resources/DR.BMP,resources/DG.BMP,Door2,-0.324074074,-0.001851852,1,0,0,0.6806,optionLeft,20,13615,7,5,0,5,0,1,,,,,,,,,,,,,,,,,,,,,,,,,,,,,,,,,,,,,,,
,,,,,,,,2023-08-16_08h15.51.083,HF_wild_card,2022.2.4,Win32,60.11421701,5cb710c9ac9259001681e253,64d2fd46c836a06233681665,64dc7790573c091cd0be8935,,,,,,,ctch,resources/DG.BMP,resources/DY.BMP,Door4,0.341666667,0.028703704,1,0,0,0.6661,optionRight,80,13695,7,6,0,6,0,1,,,,,,,,,,,,,,,,,,,,,,,,,,,,,,,,,,,,,,,
,,,,,,,,2023-08-16_08h15.51.083,HF_wild_card,2022.2.4,Win32,60.11421701,5cb710c9ac9259001681e253,64d2fd46c836a06233681665,64dc7790573c091cd0be8935,,,,,,,decisionTrl,resources/DY.BMP,resources/DP.BMP,Door4,-0.321296296,-0.014814815,1,0,0,0.465,optionLeft,60,13755,7,7,0,7,0,1,,,,,,,,,,,,,,,,,,,,,,,,,,,,,,,,,,,,,,,
,,,,,,,,2023-08-16_08h15.51.083,HF_wild_card,2022.2.4,Win32,60.11421701,5cb710c9ac9259001681e253,64d2fd46c836a06233681665,64dc7790573c091cd0be8935,,,,,,,decisionTrl,resources/DG.BMP,resources/DR.BMP,Door2,0.306481481,-0.002777778,1,0,0,1.0303,optionRight,20,13775,7,8,0,8,0,1,,,,,,,,,,,,,,,,,,,,,,,,,,,,,,,,,,,,,,,
,,,,,,,,2023-08-16_08h15.51.083,HF_wild_card,2022.2.4,Win32,60.11421701,5cb710c9ac9259001681e253,64d2fd46c836a06233681665,64dc7790573c091cd0be8935,,,,,,,decisionTrl,resources/DG.BMP,resources/DR.BMP,Door2,0.516666667,0.026851852,1,0,0,0.866,optionRight,40,13815,7,9,0,9,0,1,,,,,,,,,,,,,,,,,,,,,,,,,,,,,,,,,,,,,,,
,,,,,,,,2023-08-16_08h15.51.083,HF_wild_card,2022.2.4,Win32,60.11421701,5cb710c9ac9259001681e253,64d2fd46c836a06233681665,64dc7790573c091cd0be8935,,,,,,,decisionTrl,resources/DG.BMP,resources/DR.BMP,Door2,0.286111111,0.052777778,1,0,0,0.7304,optionRight,20,13835,7,10,0,10,0,1,,,,,,,,,,,,,,,,,,,,,,,,,,,,,,,,,,,,,,,
,,,,,,,,2023-08-16_08h15.51.083,HF_wild_card,2022.2.4,Win32,60.11421701,5cb710c9ac9259001681e253,64d2fd46c836a06233681665,64dc7790573c091cd0be8935,,,,,,,ctch,resources/DR.BMP,resources/DP.BMP,Door2,-0.355555556,0.073148148,1,0,0,0.9498,optionLeft,20,13855,7,11,0,11,0,1,,,,,,,,,,,,,,,,,,,,,,,,,,,,,,,,,,,,,,,
,,,,,,,,2023-08-16_08h15.51.083,HF_wild_card,2022.2.4,Win32,60.11421701,5cb710c9ac9259001681e253,64d2fd46c836a06233681665,64dc7790573c091cd0be8935,,,,,,,decisionTrl,resources/DY.BMP,resources/DP.BMP,Door4,-0.273148148,0.014814815,1,0,0,0.6323,optionLeft,60,13915,7,12,0,12,0,1,,,,,,,,,,,,,,,,,,,,,,,,,,,,,,,,,,,,,,,
,,,,,,,,2023-08-16_08h15.51.083,HF_wild_card,2022.2.4,Win32,60.11421701,5cb710c9ac9259001681e253,64d2fd46c836a06233681665,64dc7790573c091cd0be8935,,,,,,,decisionTrl,resources/DP.BMP,resources/DY.BMP,Door4,0.406481481,0.009259259,1,0,0,0.6151,optionRight,80,13995,7,13,0,13,0,1,,,,,,,,,,,,,,,,,,,,,,,,,,,,,,,,,,,,,,,
,,,,,,,,2023-08-16_08h15.51.083,HF_wild_card,2022.2.4,Win32,60.11421701,5cb710c9ac9259001681e253,64d2fd46c836a06233681665,64dc7790573c091cd0be8935,,,,,,,decisionTrl,resources/DY.BMP,resources/DP.BMP,Door4,-0.266666667,-0.002777778,1,0,0,0.5143,optionLeft,80,14075,7,14,0,14,0,1,,,,,,,,,,,,,,,,,,,,,,,,,,,,,,,,,,,,,,,
,,,,,,,,2023-08-16_08h15.51.083,HF_wild_card,2022.2.4,Win32,60.11421701,5cb710c9ac9259001681e253,64d2fd46c836a06233681665,64dc7790573c091cd0be8935,,,,,,,ctch,resources/DP.BMP,resources/DR.BMP,Door2,0.286111111,0.032407407,1,0,0,0.8667,optionRight,40,14115,7,15,0,15,0,1,,,,,,,,,,,,,,,,,,,,,,,,,,,,,,,,,,,,,,,
,,,,,,,,2023-08-16_08h15.51.083,HF_wild_card,2022.2.4,Win32,60.11421701,5cb710c9ac9259001681e253,64d2fd46c836a06233681665,64dc7790573c091cd0be8935,,,,,,,ctch,resources/DG.BMP,resources/DY.BMP,Door4,0.326851852,0.028703704,1,0,0,0.6156,optionRight,80,14195,7,16,0,16,0,1,,,,,,,,,,,,,,,,,,,,,,,,,,,,,,,,,,,,,,,
,,,,,,,,2023-08-16_08h15.51.083,HF_wild_card,2022.2.4,Win32,60.11421701,5cb710c9ac9259001681e253,64d2fd46c836a06233681665,64dc7790573c091cd0be8935,,,,,,,ctch,resources/DR.BMP,resources/DP.BMP,Door2,-0.311111111,0.05462963,1,0,0,0.515,optionLeft,40,14235,7,17,0,17,0,1,,,,,,,,,,,,,,,,,,,,,,,,,,,,,,,,,,,,,,,
,,,,,,,,2023-08-16_08h15.51.083,HF_wild_card,2022.2.4,Win32,60.11421701,5cb710c9ac9259001681e253,64d2fd46c836a06233681665,64dc7790573c091cd0be8935,,,,,,,decisionTrl,resources/DG.BMP,resources/DR.BMP,Door2,0.472222222,0.025925926,1,0,0,0.8141,optionRight,40,14275,7,18,0,18,0,1,,,,,,,,,,,,,,,,,,,,,,,,,,,,,,,,,,,,,,,
,,,,,,,,2023-08-16_08h15.51.083,HF_wild_card,2022.2.4,Win32,60.11421701,5cb710c9ac9259001681e253,64d2fd46c836a06233681665,64dc7790573c091cd0be8935,,,,,,,decisionTrl,resources/DY.BMP,resources/DP.BMP,Door4,-0.371296296,0.066666667,1,0,0,0.5316,optionLeft,80,14355,7,19,0,19,0,1,,,,,,,,,,,,,,,,,,,,,,,,,,,,,,,,,,,,,,,
,,,,,,,,2023-08-16_08h15.51.083,HF_wild_card,2022.2.4,Win32,60.11421701,5cb710c9ac9259001681e253,64d2fd46c836a06233681665,64dc7790573c091cd0be8935,,,,,,,decisionTrl,resources/DG.BMP,resources/DR.BMP,Door2,0.371296296,0.07037037,1,0,0,0.5652,optionRight,20,14375,7,20,0,20,0,1,,,,,,,,,,,,,,,,,,,,,,,,,,,,,,,,,,,,,,,
,,,,,,,,2023-08-16_08h15.51.083,HF_wild_card,2022.2.4,Win32,60.11421701,5cb710c9ac9259001681e253,64d2fd46c836a06233681665,64dc7790573c091cd0be8935,,,,,,,decisionTrl,resources/DP.BMP,resources/DY.BMP,Door4,0.340740741,0.090740741,1,0,0,0.5314,optionRight,60,14435,7,21,0,21,0,1,,,,,,,,,,,,,,,,,,,,,,,,,,,,,,,,,,,,,,,
,,,,,,,,2023-08-16_08h15.51.083,HF_wild_card,2022.2.4,Win32,60.11421701,5cb710c9ac9259001681e253,64d2fd46c836a06233681665,64dc7790573c091cd0be8935,,,,,,,decisionTrl,resources/DY.BMP,resources/DP.BMP,Door4,-0.335185185,0.061111111,1,0,0,0.4833,optionLeft,80,14515,7,22,0,22,0,1,,,,,,,,,,,,,,,,,,,,,,,,,,,,,,,,,,,,,,,
,,,,,,,,2023-08-16_08h15.51.083,HF_wild_card,2022.2.4,Win32,60.11421701,5cb710c9ac9259001681e253,64d2fd46c836a06233681665,64dc7790573c091cd0be8935,,,,,,,decisionTrl,resources/DR.BMP,resources/DG.BMP,Door2,-0.327777778,0.057407407,1,0,0,0.483,optionLeft,20,14535,7,23,0,23,0,1,,,,,,,,,,,,,,,,,,,,,,,,,,,,,,,,,,,,,,,
,,,,,,,,2023-08-16_08h15.51.083,HF_wild_card,2022.2.4,Win32,60.11421701,5cb710c9ac9259001681e253,64d2fd46c836a06233681665,64dc7790573c091cd0be8935,,,,,,,ctch,resources/DP.BMP,resources/DR.BMP,Door3,-0.314814815,0.067592593,1,0,0,0.7823,optionLeft,70,14605,7,24,0,24,0,1,,,,,,,,,,,,,,,,,,,,,,,,,,,,,,,,,,,,,,,
,,,,,,,,2023-08-16_08h15.51.083,HF_wild_card,2022.2.4,Win32,60.11421701,5cb710c9ac9259001681e253,64d2fd46c836a06233681665,64dc7790573c091cd0be8935,,,,,,,decisionTrl,resources/DY.BMP,resources/DP.BMP,Door4,-0.35462963,0.062037037,1,0,0,0.5322,optionLeft,60,14665,7,25,0,25,0,1,,,,,,,,,,,,,,,,,,,,,,,,,,,,,,,,,,,,,,,
,,,,,,,,2023-08-16_08h15.51.083,HF_wild_card,2022.2.4,Win32,60.11421701,5cb710c9ac9259001681e253,64d2fd46c836a06233681665,64dc7790573c091cd0be8935,,,,,,,ctch,resources/DY.BMP,resources/DG.BMP,Door4,-0.421296296,0.075,1,0,0,0.4496,optionLeft,60,14725,7,26,0,26,0,1,,,,,,,,,,,,,,,,,,,,,,,,,,,,,,,,,,,,,,,
,,,,,,,,2023-08-16_08h15.51.083,HF_wild_card,2022.2.4,Win32,60.11421701,5cb710c9ac9259001681e253,64d2fd46c836a06233681665,64dc7790573c091cd0be8935,,,,,,,decisionTrl,resources/DP.BMP,resources/DY.BMP,Door4,0.312037037,0.003703704,1,0,0,0.5,optionRight,80,14805,7,27,0,27,0,1,,,,,,,,,,,,,,,,,,,,,,,,,,,,,,,,,,,,,,,
,,,,,,,,2023-08-16_08h15.51.083,HF_wild_card,2022.2.4,Win32,60.11421701,5cb710c9ac9259001681e253,64d2fd46c836a06233681665,64dc7790573c091cd0be8935,,,,,,,ctch,resources/DR.BMP,resources/DP.BMP,Door2,-0.347222222,0.049074074,1,0,0,0.4493,optionLeft,40,14845,7,28,0,28,0,1,,,,,,,,,,,,,,,,,,,,,,,,,,,,,,,,,,,,,,,
,,,,,,,,2023-08-16_08h15.51.083,HF_wild_card,2022.2.4,Win32,60.11421701,5cb710c9ac9259001681e253,64d2fd46c836a06233681665,64dc7790573c091cd0be8935,,,,,,,ctch,resources/DY.BMP,resources/DG.BMP,Door4,-0.360185185,0.069444444,1,0,0,0.5162,optionLeft,80,14925,7,29,0,29,0,1,,,,,,,,,,,,,,,,,,,,,,,,,,,,,,,,,,,,,,,
,,,,,,,,2023-08-16_08h15.51.083,HF_wild_card,2022.2.4,Win32,60.11421701,5cb710c9ac9259001681e253,64d2fd46c836a06233681665,64dc7790573c091cd0be8935,,,,,,,decisionTrl,resources/DP.BMP,resources/DY.BMP,Door4,0.175,0.060185185,1,0,0,0.4988,optionRight,80,15005,7,30,0,30,0,1,,,,,,,,,,,,,,,,,,,,,,,,,,,,,,,,,,,,,,,
,,,,,,,,2023-08-16_08h15.51.083,HF_wild_card,2022.2.4,Win32,60.11421701,5cb710c9ac9259001681e253,64d2fd46c836a06233681665,64dc7790573c091cd0be8935,,,,,,,ctch,resources/DY.BMP,resources/DG.BMP,Door4,-0.382407407,0.053703704,1,0,0,0.4586,optionLeft,80,15085,7,31,0,31,0,1,,,,,,,,,,,,,,,,,,,,,,,,,,,,,,,,,,,,,,,
,,,,,,,,2023-08-16_08h15.51.083,HF_wild_card,2022.2.4,Win32,60.11421701,5cb710c9ac9259001681e253,64d2fd46c836a06233681665,64dc7790573c091cd0be8935,,,,,,,decisionTrl,resources/DR.BMP,resources/DG.BMP,Door1,0.296296296,0.118518519,1,0,0,0.8823,optionRight,30,15115,7,32,0,32,0,1,,,,,,,,,,,,,,,,,,,,,,,,,,,,,,,,,,,,,,,
,,,,,,,,2023-08-16_08h15.51.083,HF_wild_card,2022.2.4,Win32,60.11421701,5cb710c9ac9259001681e253,64d2fd46c836a06233681665,64dc7790573c091cd0be8935,,,,,,,decisionTrl,resources/DG.BMP,resources/DR.BMP,Door1,-0.287962963,0.039814815,1,0,0,0.3499,optionLeft,30,15145,7,33,0,33,0,1,,,,,,,,,,,,,,,,,,,,,,,,,,,,,,,,,,,,,,,
,,,,,,,,2023-08-16_08h15.51.083,HF_wild_card,2022.2.4,Win32,60.11421701,5cb710c9ac9259001681e253,64d2fd46c836a06233681665,64dc7790573c091cd0be8935,,,,,,,ctch,resources/DP.BMP,resources/DR.BMP,Door2,0.390740741,0.011111111,1,0,0,0.9012,optionRight,20,15165,7,34,0,34,0,1,,,,,,,,,,,,,,,,,,,,,,,,,,,,,,,,,,,,,,,
,,,,,,,,2023-08-16_08h15.51.083,HF_wild_card,2022.2.4,Win32,60.11421701,5cb710c9ac9259001681e253,64d2fd46c836a06233681665,64dc7790573c091cd0be8935,,,,,,,decisionTrl,resources/DR.BMP,resources/DG.BMP,Door2,-0.2,0.018518519,1,0,0,0.3315,optionLeft,20,15185,7,35,0,35,0,1,,,,,,,,,,,,,,,,,,,,,,,,,,,,,,,,,,,,,,,
,,,,,,,,2023-08-16_08h15.51.083,HF_wild_card,2022.2.4,Win32,60.11421701,5cb710c9ac9259001681e253,64d2fd46c836a06233681665,64dc7790573c091cd0be8935,,,,,,,,,,,,,,,,,,,,,,,,,,6,0,6,0,1,,,,,,,,,,,,,,,,,,,,,,,,,,,,,,,,,,
,,,,,,,,2023-08-16_08h15.51.083,HF_wild_card,2022.2.4,Win32,60.11421701,5cb710c9ac9259001681e253,64d2fd46c836a06233681665,64dc7790573c091cd0be8935,,,,,,,,,,,,,,,,,,,,,,,,,,,,,,,3,,,,,,,,,,,,,,,,,,,,,,,,,,,,,,,,,
,,,,,,,,2023-08-16_08h15.51.083,HF_wild_card,2022.2.4,Win32,60.11421701,5cb710c9ac9259001681e253,64d2fd46c836a06233681665,64dc7790573c091cd0be8935,,,,,,,,,,,,,,,,,,,,,,,,,,,,,,,,,,,,,,,,,,,,,,,,,,,,,,,,,,,,,,,,
,,,,,,,,2023-08-16_08h15.51.083,HF_wild_card,2022.2.4,Win32,60.11421701,5cb710c9ac9259001681e253,64d2fd46c836a06233681665,64dc7790573c091cd0be8935,,,,,,,,,,,,,,,,,,,,,,,,,,,,,,,,65,Door3,resources/DP.BMP,0,0,0,0,1,,,,,,,,,,,,,,,,,,,,,,,,,
,,,,,,,,2023-08-16_08h15.51.083,HF_wild_card,2022.2.4,Win32,60.11421701,5cb710c9ac9259001681e253,64d2fd46c836a06233681665,64dc7790573c091cd0be8935,,,,,,,,,,,,,,,,,,,,,,,,,,,,,,,,30,Door1,resources/DG.BMP,1,0,1,0,1,,,,,,,,,,,,,,,,,,,,,,,,,
,,,,,,,,2023-08-16_08h15.51.083,HF_wild_card,2022.2.4,Win32,60.11421701,5cb710c9ac9259001681e253,64d2fd46c836a06233681665,64dc7790573c091cd0be8935,,,,,,,,,,,,,,,,,,,,,,,,,,,,,,,,40,WC_extreme,resources/DB.BMP,2,0,2,0,1,,,,,,,,,,,,,,,,,,,,,,,,,
,,,,,,,,2023-08-16_08h15.51.083,HF_wild_card,2022.2.4,Win32,60.11421701,5cb710c9ac9259001681e253,64d2fd46c836a06233681665,64dc7790573c091cd0be8935,,,,,,,,,,,,,,,,,,,,,,,,,,,,,,,,55,Door2,resources/DR.BMP,3,0,3,0,1,,,,,,,,,,,,,,,,,,,,,,,,,
,,,,,,,,2023-08-16_08h15.51.083,HF_wild_card,2022.2.4,Win32,60.11421701,5cb710c9ac9259001681e253,64d2fd46c836a06233681665,64dc7790573c091cd0be8935,,,,,,,,,,,,,,,,,,,,,,,,,,,,,,,,60,WC_nonExtreme,resources/DBN.BMP,4,0,4,0,1,,,,,,,,,,,,,,,,,,,,,,,,,
,,,,,,,,2023-08-16_08h15.51.083,HF_wild_card,2022.2.4,Win32,60.11421701,5cb710c9ac9259001681e253,64d2fd46c836a06233681665,64dc7790573c091cd0be8935,,,,,,,,,,,,,,,,,,,,,,,,,,,,,,,,85,Door4,resources/DY.BMP,5,0,5,0,1,,,,,,,,,,,,,,,,,,,,,,,,,
,,,,,,,,2023-08-16_08h15.51.083,HF_wild_card,2022.2.4,Win32,60.11421701,5cb710c9ac9259001681e253,64d2fd46c836a06233681665,64dc7790573c091cd0be8935,,,,,,,,,,,,,,,,,,,,,,,,,,,,,,,,,,,,,,,,,,,,,,,,,,,,,,,,,,,,,,,,
,,,,,,,,2023-08-16_08h15.51.083,HF_wild_card,2022.2.4,Win32,60.11421701,5cb710c9ac9259001681e253,64d2fd46c836a06233681665,64dc7790573c091cd0be8935,,,,,,,,,,,,,,,,,,,,,,,,,,,,,,,,,,,,,,,,0,0,0,0,1,,,,,,,,,,,,,,,,,,,,
