Condition,Low fixed image (Door1),Low risky image (Door2),High fixed image (Door3),High risky image (Door4),Extreme Wild Card,NonExtreme Wild Card,,date,expName,psychopyVersion,OS,frameRate,PROLIFIC_PID,STUDY_ID,SESSION_ID,mouse_2.x,mouse_2.y,mouse_2.leftButton,mouse_2.midButton,mouse_2.rightButton,mouse_2.clicked_name,Trial Type,Left Option Image,Right Option Image,Chosen Door,mouse.x,mouse.y,mouse.leftButton,mouse.midButton,mouse.rightButton,mouse.time,mouse.clicked_name,Feedback,Cumulative Reward,Block,trial.thisRepN,trial.thisTrialN,trial.thisN,trial.thisIndex,trial.ran,blocks.thisRepN,blocks.thisTrialN,blocks.thisN,blocks.thisIndex,blocks.ran,Money conversion,First Outcome Reported,Shown Door (First Outcome),Displayed Image (First Outcome),outcomes.thisRepN,outcomes.thisTrialN,outcomes.thisN,outcomes.thisIndex,outcomes.ran,judgments.thisRepN,judgments.thisTrialN,judgments.thisN,judgments.thisIndex,judgments.ran,freqMouse.x,freqMouse.y,freqMouse.leftButton,freqMouse.midButton,freqMouse.rightButton,freqMouse.clicked_name,FQJ for first outcome,FQJ for second outcome,Shown Door,Displayed Image,trials.thisRepN,trials.thisTrialN,trials.thisN,trials.thisIndex,trials.ran,judgBlock.thisRepN,judgBlock.thisTrialN,judgBlock.thisN,judgBlock.thisIndex,judgBlock.ran
1,resources/DG.BMP,resources/DP.BMP,resources/DB.BMP,resources/DR.BMP,resources/DY.BMP,resources/DBN.BMP,,2023-08-16_08h54.52.373,HF_wild_card,2022.2.4,Win32,60.12506013,58bebf658c2fd60001b9767a,64d2fd46c836a06233681665,64dc7f1d7221422e1e133b9c,,,,,,,,,,,,,,,,,,,,,,,,,,,,,,,,,,,,,,,,,,,,,,,,,,,,,,,,,,,,,,,,
,,,,,,,,2023-08-16_08h54.52.373,HF_wild_card,2022.2.4,Win32,60.12506013,58bebf658c2fd60001b9767a,64d2fd46c836a06233681665,64dc7f1d7221422e1e133b9c,-0.001041667,-0.41796875,1,0,0,agree,,,,,,,,,,,,,,,,,,,,,,,,,,,,,,,,,,,,,,,,,,,,,,,,,,,,,,,,,,
,,,,,,,,2023-08-16_08h54.52.373,HF_wild_card,2022.2.4,Win32,60.12506013,58bebf658c2fd60001b9767a,64d2fd46c836a06233681665,64dc7f1d7221422e1e133b9c,,,,,,,,,,,,,,,,,,,,,,,,,,,,,,,,,,,,,,,,,,,,,,,,,,,,,,,,,,,,,,,,
,,,,,,,,2023-08-16_08h54.52.373,HF_wild_card,2022.2.4,Win32,60.12506013,58bebf658c2fd60001b9767a,64d2fd46c836a06233681665,64dc7f1d7221422e1e133b9c,,,,,,,decisionTrl,resources/DR.BMP,resources/DB.BMP,Door4,-0.403385417,-0.024739583,1,0,0,2.7063,optionLeft,60,60,1,0,0,0,0,1,,,,,,,,,,,,,,,,,,,,,,,,,,,,,,,,,,,,,,,
,,,,,,,,2023-08-16_08h54.52.373,HF_wild_card,2022.2.4,Win32,60.12506013,58bebf658c2fd60001b9767a,64d2fd46c836a06233681665,64dc7f1d7221422e1e133b9c,,,,,,,ctch,resources/DB.BMP,resources/DP.BMP,Door3,-0.340885417,-0.088541667,1,0,0,2.4331,optionLeft,70,130,1,1,0,1,0,1,,,,,,,,,,,,,,,,,,,,,,,,,,,,,,,,,,,,,,,
,,,,,,,,2023-08-16_08h54.52.373,HF_wild_card,2022.2.4,Win32,60.12506013,58bebf658c2fd60001b9767a,64d2fd46c836a06233681665,64dc7f1d7221422e1e133b9c,,,,,,,sngl,resources/DBN.BMP,resources/Empty.png,WildCard_NonEx,-0.35390625,-0.018229167,1,0,0,2.1673,optionLeft,55,185,1,2,0,2,0,1,,,,,,,,,,,,,,,,,,,,,,,,,,,,,,,,,,,,,,,
,,,,,,,,2023-08-16_08h54.52.373,HF_wild_card,2022.2.4,Win32,60.12506013,58bebf658c2fd60001b9767a,64d2fd46c836a06233681665,64dc7f1d7221422e1e133b9c,,,,,,,decisionTrl,resources/DR.BMP,resources/DB.BMP,Door3,0.3375,-0.095052083,1,0,0,1.9257,optionRight,70,255,1,3,0,3,0,1,,,,,,,,,,,,,,,,,,,,,,,,,,,,,,,,,,,,,,,
,,,,,,,,2023-08-16_08h54.52.373,HF_wild_card,2022.2.4,Win32,60.12506013,58bebf658c2fd60001b9767a,64d2fd46c836a06233681665,64dc7f1d7221422e1e133b9c,,,,,,,decisionTrl,resources/DB.BMP,resources/DR.BMP,Door4,0.413020833,-0.174479167,1,0,0,2.7426,optionRight,80,335,1,4,0,4,0,1,,,,,,,,,,,,,,,,,,,,,,,,,,,,,,,,,,,,,,,
,,,,,,,,2023-08-16_08h54.52.373,HF_wild_card,2022.2.4,Win32,60.12506013,58bebf658c2fd60001b9767a,64d2fd46c836a06233681665,64dc7f1d7221422e1e133b9c,,,,,,,sngl,resources/Empty.png,resources/DP.BMP,Door2,0.393489583,-0.131510417,1,0,0,1.4952,optionRight,20,355,1,5,0,5,0,1,,,,,,,,,,,,,,,,,,,,,,,,,,,,,,,,,,,,,,,
,,,,,,,,2023-08-16_08h54.52.373,HF_wild_card,2022.2.4,Win32,60.12506013,58bebf658c2fd60001b9767a,64d2fd46c836a06233681665,64dc7f1d7221422e1e133b9c,,,,,,,decisionTrl,resources/DBN.BMP,resources/DB.BMP,WildCard_NonEx,-0.386458333,-0.055989583,1,0,0,1.8063,optionLeft,55,410,1,6,0,6,0,1,,,,,,,,,,,,,,,,,,,,,,,,,,,,,,,,,,,,,,,
,,,,,,,,2023-08-16_08h54.52.373,HF_wild_card,2022.2.4,Win32,60.12506013,58bebf658c2fd60001b9767a,64d2fd46c836a06233681665,64dc7f1d7221422e1e133b9c,,,,,,,decisionTrl,resources/DP.BMP,resources/DG.BMP,Door1,0.38828125,-0.108072917,1,0,0,1.3765,optionRight,30,440,1,7,0,7,0,1,,,,,,,,,,,,,,,,,,,,,,,,,,,,,,,,,,,,,,,
,,,,,,,,2023-08-16_08h54.52.373,HF_wild_card,2022.2.4,Win32,60.12506013,58bebf658c2fd60001b9767a,64d2fd46c836a06233681665,64dc7f1d7221422e1e133b9c,,,,,,,decisionTrl,resources/DB.BMP,resources/DR.BMP,Door3,-0.325260417,-0.033854167,1,0,0,1.6144,optionLeft,70,510,1,8,0,8,0,1,,,,,,,,,,,,,,,,,,,,,,,,,,,,,,,,,,,,,,,
,,,,,,,,2023-08-16_08h54.52.373,HF_wild_card,2022.2.4,Win32,60.12506013,58bebf658c2fd60001b9767a,64d2fd46c836a06233681665,64dc7f1d7221422e1e133b9c,,,,,,,decisionTrl,resources/DP.BMP,resources/DG.BMP,Door2,-0.347395833,-0.06640625,1,0,0,3.5919,optionLeft,40,550,1,9,0,9,0,1,,,,,,,,,,,,,,,,,,,,,,,,,,,,,,,,,,,,,,,
,,,,,,,,2023-08-16_08h54.52.373,HF_wild_card,2022.2.4,Win32,60.12506013,58bebf658c2fd60001b9767a,64d2fd46c836a06233681665,64dc7f1d7221422e1e133b9c,,,,,,,decisionTrl,resources/DB.BMP,resources/DR.BMP,Door4,0.28671875,-0.063802083,1,0,0,1.5769,optionRight,80,630,1,10,0,10,0,1,,,,,,,,,,,,,,,,,,,,,,,,,,,,,,,,,,,,,,,
,,,,,,,,2023-08-16_08h54.52.373,HF_wild_card,2022.2.4,Win32,60.12506013,58bebf658c2fd60001b9767a,64d2fd46c836a06233681665,64dc7f1d7221422e1e133b9c,,,,,,,decisionTrl,resources/DG.BMP,resources/DBN.BMP,WildCard_NonEx,0.30234375,-0.006510417,1,0,0,1.2805,optionRight,45,675,1,11,0,11,0,1,,,,,,,,,,,,,,,,,,,,,,,,,,,,,,,,,,,,,,,
,,,,,,,,2023-08-16_08h54.52.373,HF_wild_card,2022.2.4,Win32,60.12506013,58bebf658c2fd60001b9767a,64d2fd46c836a06233681665,64dc7f1d7221422e1e133b9c,,,,,,,decisionTrl,resources/DBN.BMP,resources/DR.BMP,Door4,0.316666667,-0.138020833,1,0,0,1.0483,optionRight,80,755,1,12,0,12,0,1,,,,,,,,,,,,,,,,,,,,,,,,,,,,,,,,,,,,,,,
,,,,,,,,2023-08-16_08h54.52.373,HF_wild_card,2022.2.4,Win32,60.12506013,58bebf658c2fd60001b9767a,64d2fd46c836a06233681665,64dc7f1d7221422e1e133b9c,,,,,,,decisionTrl,resources/DR.BMP,resources/DB.BMP,Door4,-0.359114583,-0.033854167,1,0,0,1.1124,optionLeft,80,835,1,13,0,13,0,1,,,,,,,,,,,,,,,,,,,,,,,,,,,,,,,,,,,,,,,
,,,,,,,,2023-08-16_08h54.52.373,HF_wild_card,2022.2.4,Win32,60.12506013,58bebf658c2fd60001b9767a,64d2fd46c836a06233681665,64dc7f1d7221422e1e133b9c,,,,,,,decisionTrl,resources/DR.BMP,resources/DBN.BMP,Door4,-0.317447917,0.006510417,1,0,0,1.0052,optionLeft,80,915,1,14,0,14,0,1,,,,,,,,,,,,,,,,,,,,,,,,,,,,,,,,,,,,,,,
,,,,,,,,2023-08-16_08h54.52.373,HF_wild_card,2022.2.4,Win32,60.12506013,58bebf658c2fd60001b9767a,64d2fd46c836a06233681665,64dc7f1d7221422e1e133b9c,,,,,,,decisionTrl,resources/DG.BMP,resources/DP.BMP,Door1,-0.280989583,-0.04296875,1,0,0,2.0178,optionLeft,30,945,1,15,0,15,0,1,,,,,,,,,,,,,,,,,,,,,,,,,,,,,,,,,,,,,,,
,,,,,,,,2023-08-16_08h54.52.373,HF_wild_card,2022.2.4,Win32,60.12506013,58bebf658c2fd60001b9767a,64d2fd46c836a06233681665,64dc7f1d7221422e1e133b9c,,,,,,,sngl,resources/DP.BMP,resources/Empty.png,Door2,-0.292708333,-0.028645833,1,0,0,0.788,optionLeft,40,985,1,16,0,16,0,1,,,,,,,,,,,,,,,,,,,,,,,,,,,,,,,,,,,,,,,
,,,,,,,,2023-08-16_08h54.52.373,HF_wild_card,2022.2.4,Win32,60.12506013,58bebf658c2fd60001b9767a,64d2fd46c836a06233681665,64dc7f1d7221422e1e133b9c,,,,,,,sngl,resources/Empty.png,resources/DBN.BMP,WildCard_NonEx,0.363541667,-0.05859375,1,0,0,0.8601,optionRight,45,1030,1,17,0,17,0,1,,,,,,,,,,,,,,,,,,,,,,,,,,,,,,,,,,,,,,,
,,,,,,,,2023-08-16_08h54.52.373,HF_wild_card,2022.2.4,Win32,60.12506013,58bebf658c2fd60001b9767a,64d2fd46c836a06233681665,64dc7f1d7221422e1e133b9c,,,,,,,ctch,resources/DG.BMP,resources/DR.BMP,Door4,0.2984375,-0.049479167,1,0,0,1.509,optionRight,80,1110,1,18,0,18,0,1,,,,,,,,,,,,,,,,,,,,,,,,,,,,,,,,,,,,,,,
,,,,,,,,2023-08-16_08h54.52.373,HF_wild_card,2022.2.4,Win32,60.12506013,58bebf658c2fd60001b9767a,64d2fd46c836a06233681665,64dc7f1d7221422e1e133b9c,,,,,,,sngl,resources/DB.BMP,resources/Empty.png,Door3,-0.266666667,-0.057291667,1,0,0,0.7388,optionLeft,70,1180,1,19,0,19,0,1,,,,,,,,,,,,,,,,,,,,,,,,,,,,,,,,,,,,,,,
,,,,,,,,2023-08-16_08h54.52.373,HF_wild_card,2022.2.4,Win32,60.12506013,58bebf658c2fd60001b9767a,64d2fd46c836a06233681665,64dc7f1d7221422e1e133b9c,,,,,,,decisionTrl,resources/DB.BMP,resources/DBN.BMP,Door3,-0.274479167,-0.052083333,1,0,0,1.0436,optionLeft,70,1250,1,20,0,20,0,1,,,,,,,,,,,,,,,,,,,,,,,,,,,,,,,,,,,,,,,
,,,,,,,,2023-08-16_08h54.52.373,HF_wild_card,2022.2.4,Win32,60.12506013,58bebf658c2fd60001b9767a,64d2fd46c836a06233681665,64dc7f1d7221422e1e133b9c,,,,,,,decisionTrl,resources/DP.BMP,resources/DG.BMP,Door1,0.436458333,-0.141927083,1,0,0,2.0667,optionRight,30,1280,1,21,0,21,0,1,,,,,,,,,,,,,,,,,,,,,,,,,,,,,,,,,,,,,,,
,,,,,,,,2023-08-16_08h54.52.373,HF_wild_card,2022.2.4,Win32,60.12506013,58bebf658c2fd60001b9767a,64d2fd46c836a06233681665,64dc7f1d7221422e1e133b9c,,,,,,,sngl,resources/DBN.BMP,resources/Empty.png,WildCard_NonEx,-0.2953125,-0.03515625,1,0,0,0.7617,optionLeft,45,1325,1,22,0,22,0,1,,,,,,,,,,,,,,,,,,,,,,,,,,,,,,,,,,,,,,,
,,,,,,,,2023-08-16_08h54.52.373,HF_wild_card,2022.2.4,Win32,60.12506013,58bebf658c2fd60001b9767a,64d2fd46c836a06233681665,64dc7f1d7221422e1e133b9c,,,,,,,ctch,resources/DP.BMP,resources/DB.BMP,Door2,-0.3421875,-0.045572917,1,0,0,0.8598,optionLeft,20,1345,1,23,0,23,0,1,,,,,,,,,,,,,,,,,,,,,,,,,,,,,,,,,,,,,,,
,,,,,,,,2023-08-16_08h54.52.373,HF_wild_card,2022.2.4,Win32,60.12506013,58bebf658c2fd60001b9767a,64d2fd46c836a06233681665,64dc7f1d7221422e1e133b9c,,,,,,,decisionTrl,resources/DG.BMP,resources/DP.BMP,Door1,-0.331770833,-0.036458333,1,0,0,2.4673,optionLeft,30,1375,1,24,0,24,0,1,,,,,,,,,,,,,,,,,,,,,,,,,,,,,,,,,,,,,,,
,,,,,,,,2023-08-16_08h54.52.373,HF_wild_card,2022.2.4,Win32,60.12506013,58bebf658c2fd60001b9767a,64d2fd46c836a06233681665,64dc7f1d7221422e1e133b9c,,,,,,,decisionTrl,resources/DG.BMP,resources/DP.BMP,Door1,-0.355208333,-0.040364583,1,0,0,0.7115,optionLeft,30,1405,1,25,0,25,0,1,,,,,,,,,,,,,,,,,,,,,,,,,,,,,,,,,,,,,,,
,,,,,,,,2023-08-16_08h54.52.373,HF_wild_card,2022.2.4,Win32,60.12506013,58bebf658c2fd60001b9767a,64d2fd46c836a06233681665,64dc7f1d7221422e1e133b9c,,,,,,,decisionTrl,resources/DB.BMP,resources/DR.BMP,Door3,-0.296614583,-0.04296875,1,0,0,0.878,optionLeft,70,1475,1,26,0,26,0,1,,,,,,,,,,,,,,,,,,,,,,,,,,,,,,,,,,,,,,,
,,,,,,,,2023-08-16_08h54.52.373,HF_wild_card,2022.2.4,Win32,60.12506013,58bebf658c2fd60001b9767a,64d2fd46c836a06233681665,64dc7f1d7221422e1e133b9c,,,,,,,decisionTrl,resources/DP.BMP,resources/DG.BMP,Door1,0.2828125,-0.102864583,1,0,0,2.4922,optionRight,30,1505,1,27,0,27,0,1,,,,,,,,,,,,,,,,,,,,,,,,,,,,,,,,,,,,,,,
,,,,,,,,2023-08-16_08h54.52.373,HF_wild_card,2022.2.4,Win32,60.12506013,58bebf658c2fd60001b9767a,64d2fd46c836a06233681665,64dc7f1d7221422e1e133b9c,,,,,,,sngl,resources/DG.BMP,resources/Empty.png,Door1,-0.343489583,-0.040364583,1,0,0,0.5975,optionLeft,30,1535,1,28,0,28,0,1,,,,,,,,,,,,,,,,,,,,,,,,,,,,,,,,,,,,,,,
,,,,,,,,2023-08-16_08h54.52.373,HF_wild_card,2022.2.4,Win32,60.12506013,58bebf658c2fd60001b9767a,64d2fd46c836a06233681665,64dc7f1d7221422e1e133b9c,,,,,,,ctch,resources/DP.BMP,resources/DB.BMP,Door3,0.366145833,-0.114583333,1,0,0,1.1144,optionRight,70,1605,1,29,0,29,0,1,,,,,,,,,,,,,,,,,,,,,,,,,,,,,,,,,,,,,,,
,,,,,,,,2023-08-16_08h54.52.373,HF_wild_card,2022.2.4,Win32,60.12506013,58bebf658c2fd60001b9767a,64d2fd46c836a06233681665,64dc7f1d7221422e1e133b9c,,,,,,,decisionTrl,resources/DBN.BMP,resources/DG.BMP,WildCard_NonEx,-0.2875,-0.091145833,1,0,0,1.2392,optionLeft,55,1660,1,30,0,30,0,1,,,,,,,,,,,,,,,,,,,,,,,,,,,,,,,,,,,,,,,
,,,,,,,,2023-08-16_08h54.52.373,HF_wild_card,2022.2.4,Win32,60.12506013,58bebf658c2fd60001b9767a,64d2fd46c836a06233681665,64dc7f1d7221422e1e133b9c,,,,,,,sngl,resources/DR.BMP,resources/Empty.png,Door4,-0.34609375,-0.080729167,1,0,0,0.6803,optionLeft,80,1740,1,31,0,31,0,1,,,,,,,,,,,,,,,,,,,,,,,,,,,,,,,,,,,,,,,
,,,,,,,,2023-08-16_08h54.52.373,HF_wild_card,2022.2.4,Win32,60.12506013,58bebf658c2fd60001b9767a,64d2fd46c836a06233681665,64dc7f1d7221422e1e133b9c,,,,,,,ctch,resources/DR.BMP,resources/DG.BMP,Door4,-0.340885417,-0.09375,1,0,0,1.0081,optionLeft,80,1820,1,32,0,32,0,1,,,,,,,,,,,,,,,,,,,,,,,,,,,,,,,,,,,,,,,
,,,,,,,,2023-08-16_08h54.52.373,HF_wild_card,2022.2.4,Win32,60.12506013,58bebf658c2fd60001b9767a,64d2fd46c836a06233681665,64dc7f1d7221422e1e133b9c,,,,,,,decisionTrl,resources/DR.BMP,resources/DB.BMP,Door4,-0.305729167,-0.10546875,1,0,0,1.2127,optionLeft,60,1880,1,33,0,33,0,1,,,,,,,,,,,,,,,,,,,,,,,,,,,,,,,,,,,,,,,
,,,,,,,,2023-08-16_08h54.52.373,HF_wild_card,2022.2.4,Win32,60.12506013,58bebf658c2fd60001b9767a,64d2fd46c836a06233681665,64dc7f1d7221422e1e133b9c,,,,,,,decisionTrl,resources/DG.BMP,resources/DP.BMP,Door1,-0.284895833,-0.11328125,1,0,0,2.4113,optionLeft,30,1910,1,34,0,34,0,1,,,,,,,,,,,,,,,,,,,,,,,,,,,,,,,,,,,,,,,
,,,,,,,,2023-08-16_08h54.52.373,HF_wild_card,2022.2.4,Win32,60.12506013,58bebf658c2fd60001b9767a,64d2fd46c836a06233681665,64dc7f1d7221422e1e133b9c,,,,,,,sngl,resources/Empty.png,resources/DBN.BMP,WildCard_NonEx,0.260677083,-0.0703125,1,0,0,0.7883,optionRight,55,1965,1,35,0,35,0,1,,,,,,,,,,,,,,,,,,,,,,,,,,,,,,,,,,,,,,,
,,,,,,,,2023-08-16_08h54.52.373,HF_wild_card,2022.2.4,Win32,60.12506013,58bebf658c2fd60001b9767a,64d2fd46c836a06233681665,64dc7f1d7221422e1e133b9c,,,,,,,ctch,resources/DR.BMP,resources/DG.BMP,Door4,-0.333072917,-0.119791667,1,0,0,1.6304,optionLeft,80,2045,1,36,0,36,0,1,,,,,,,,,,,,,,,,,,,,,,,,,,,,,,,,,,,,,,,
,,,,,,,,2023-08-16_08h54.52.373,HF_wild_card,2022.2.4,Win32,60.12506013,58bebf658c2fd60001b9767a,64d2fd46c836a06233681665,64dc7f1d7221422e1e133b9c,,,,,,,sngl,resources/Empty.png,resources/DR.BMP,Door4,0.437760417,-0.100260417,1,0,0,0.9588,optionRight,60,2105,1,37,0,37,0,1,,,,,,,,,,,,,,,,,,,,,,,,,,,,,,,,,,,,,,,
,,,,,,,,2023-08-16_08h54.52.373,HF_wild_card,2022.2.4,Win32,60.12506013,58bebf658c2fd60001b9767a,64d2fd46c836a06233681665,64dc7f1d7221422e1e133b9c,,,,,,,ctch,resources/DG.BMP,resources/DR.BMP,Door4,0.362239583,-0.118489583,1,0,0,0.8771,optionRight,60,2165,1,38,0,38,0,1,,,,,,,,,,,,,,,,,,,,,,,,,,,,,,,,,,,,,,,
,,,,,,,,2023-08-16_08h54.52.373,HF_wild_card,2022.2.4,Win32,60.12506013,58bebf658c2fd60001b9767a,64d2fd46c836a06233681665,64dc7f1d7221422e1e133b9c,,,,,,,sngl,resources/Empty.png,resources/DG.BMP,Door1,0.36875,-0.087239583,1,0,0,2.429,optionRight,30,2195,1,39,0,39,0,1,,,,,,,,,,,,,,,,,,,,,,,,,,,,,,,,,,,,,,,
,,,,,,,,2023-08-16_08h54.52.373,HF_wild_card,2022.2.4,Win32,60.12506013,58bebf658c2fd60001b9767a,64d2fd46c836a06233681665,64dc7f1d7221422e1e133b9c,,,,,,,ctch,resources/DB.BMP,resources/DP.BMP,Door3,-0.374739583,-0.07421875,1,0,0,0.7559,optionLeft,70,2265,1,40,0,40,0,1,,,,,,,,,,,,,,,,,,,,,,,,,,,,,,,,,,,,,,,
,,,,,,,,2023-08-16_08h54.52.373,HF_wild_card,2022.2.4,Win32,60.12506013,58bebf658c2fd60001b9767a,64d2fd46c836a06233681665,64dc7f1d7221422e1e133b9c,,,,,,,decisionTrl,resources/DP.BMP,resources/DBN.BMP,WildCard_NonEx,0.366145833,-0.102864583,1,0,0,1.4946,optionRight,45,2310,1,41,0,41,0,1,,,,,,,,,,,,,,,,,,,,,,,,,,,,,,,,,,,,,,,
,,,,,,,,2023-08-16_08h54.52.373,HF_wild_card,2022.2.4,Win32,60.12506013,58bebf658c2fd60001b9767a,64d2fd46c836a06233681665,64dc7f1d7221422e1e133b9c,,,,,,,decisionTrl,resources/DBN.BMP,resources/DP.BMP,WildCard_NonEx,-0.340885417,-0.100260417,1,0,0,1.6902,optionLeft,45,2355,1,42,0,42,0,1,,,,,,,,,,,,,,,,,,,,,,,,,,,,,,,,,,,,,,,
,,,,,,,,2023-08-16_08h54.52.373,HF_wild_card,2022.2.4,Win32,60.12506013,58bebf658c2fd60001b9767a,64d2fd46c836a06233681665,64dc7f1d7221422e1e133b9c,,,,,,,sngl,resources/Empty.png,resources/DB.BMP,Door3,0.42734375,-0.12890625,1,0,0,0.7793,optionRight,70,2425,1,43,0,43,0,1,,,,,,,,,,,,,,,,,,,,,,,,,,,,,,,,,,,,,,,
,,,,,,,,2023-08-16_08h54.52.373,HF_wild_card,2022.2.4,Win32,60.12506013,58bebf658c2fd60001b9767a,64d2fd46c836a06233681665,64dc7f1d7221422e1e133b9c,,,,,,,,,,,,,,,,,,,,,,,,,,0,0,0,0,1,,,,,,,,,,,,,,,,,,,,,,,,,,,,,,,,,,
,,,,,,,,2023-08-16_08h54.52.373,HF_wild_card,2022.2.4,Win32,60.12506013,58bebf658c2fd60001b9767a,64d2fd46c836a06233681665,64dc7f1d7221422e1e133b9c,,,,,,,ctch,resources/DB.BMP,resources/DP.BMP,Door3,-0.480208333,-0.092447917,1,0,0,3.0976,optionLeft,70,2495,2,0,0,0,0,1,,,,,,,,,,,,,,,,,,,,,,,,,,,,,,,,,,,,,,,
,,,,,,,,2023-08-16_08h54.52.373,HF_wild_card,2022.2.4,Win32,60.12506013,58bebf658c2fd60001b9767a,64d2fd46c836a06233681665,64dc7f1d7221422e1e133b9c,,,,,,,ctch,resources/DG.BMP,resources/DR.BMP,Door4,0.424739583,-0.115885417,1,0,0,2.0666,optionRight,80,2575,2,1,0,1,0,1,,,,,,,,,,,,,,,,,,,,,,,,,,,,,,,,,,,,,,,
,,,,,,,,2023-08-16_08h54.52.373,HF_wild_card,2022.2.4,Win32,60.12506013,58bebf658c2fd60001b9767a,64d2fd46c836a06233681665,64dc7f1d7221422e1e133b9c,,,,,,,decisionTrl,resources/DG.BMP,resources/DP.BMP,Door1,-0.32265625,-0.09375,1,0,0,1.8708,optionLeft,30,2605,2,2,0,2,0,1,,,,,,,,,,,,,,,,,,,,,,,,,,,,,,,,,,,,,,,
,,,,,,,,2023-08-16_08h54.52.373,HF_wild_card,2022.2.4,Win32,60.12506013,58bebf658c2fd60001b9767a,64d2fd46c836a06233681665,64dc7f1d7221422e1e133b9c,,,,,,,sngl,resources/DR.BMP,resources/Empty.png,Door4,-0.344791667,0.00390625,1,0,0,2.1761,optionLeft,60,2665,2,3,0,3,0,1,,,,,,,,,,,,,,,,,,,,,,,,,,,,,,,,,,,,,,,
,,,,,,,,2023-08-16_08h54.52.373,HF_wild_card,2022.2.4,Win32,60.12506013,58bebf658c2fd60001b9767a,64d2fd46c836a06233681665,64dc7f1d7221422e1e133b9c,,,,,,,decisionTrl,resources/DP.BMP,resources/DG.BMP,Door2,-0.309635417,-0.04296875,1,0,0,4.9664,optionLeft,20,2685,2,4,0,4,0,1,,,,,,,,,,,,,,,,,,,,,,,,,,,,,,,,,,,,,,,
,,,,,,,,2023-08-16_08h54.52.373,HF_wild_card,2022.2.4,Win32,60.12506013,58bebf658c2fd60001b9767a,64d2fd46c836a06233681665,64dc7f1d7221422e1e133b9c,,,,,,,decisionTrl,resources/DR.BMP,resources/DB.BMP,Door3,0.452083333,-0.14453125,1,0,0,9.5402,optionRight,70,2755,2,5,0,5,0,1,,,,,,,,,,,,,,,,,,,,,,,,,,,,,,,,,,,,,,,
,,,,,,,,2023-08-16_08h54.52.373,HF_wild_card,2022.2.4,Win32,60.12506013,58bebf658c2fd60001b9767a,64d2fd46c836a06233681665,64dc7f1d7221422e1e133b9c,,,,,,,decisionTrl,resources/DBN.BMP,resources/DG.BMP,WildCard_NonEx,-0.347395833,-0.016927083,1,0,0,2.1953,optionLeft,45,2800,2,6,0,6,0,1,,,,,,,,,,,,,,,,,,,,,,,,,,,,,,,,,,,,,,,
,,,,,,,,2023-08-16_08h54.52.373,HF_wild_card,2022.2.4,Win32,60.12506013,58bebf658c2fd60001b9767a,64d2fd46c836a06233681665,64dc7f1d7221422e1e133b9c,,,,,,,decisionTrl,resources/DR.BMP,resources/DB.BMP,Door3,0.414322917,-0.01171875,1,0,0,5.5046,optionRight,70,2870,2,7,0,7,0,1,,,,,,,,,,,,,,,,,,,,,,,,,,,,,,,,,,,,,,,
,,,,,,,,2023-08-16_08h54.52.373,HF_wild_card,2022.2.4,Win32,60.12506013,58bebf658c2fd60001b9767a,64d2fd46c836a06233681665,64dc7f1d7221422e1e133b9c,,,,,,,decisionTrl,resources/DR.BMP,resources/DB.BMP,Door3,0.43125,-0.01953125,1,0,0,1.8639,optionRight,70,2940,2,8,0,8,0,1,,,,,,,,,,,,,,,,,,,,,,,,,,,,,,,,,,,,,,,
,,,,,,,,2023-08-16_08h54.52.373,HF_wild_card,2022.2.4,Win32,60.12506013,58bebf658c2fd60001b9767a,64d2fd46c836a06233681665,64dc7f1d7221422e1e133b9c,,,,,,,ctch,resources/DP.BMP,resources/DB.BMP,Door3,0.385677083,-0.055989583,1,0,0,4.0617,optionRight,70,3010,2,9,0,9,0,1,,,,,,,,,,,,,,,,,,,,,,,,,,,,,,,,,,,,,,,
,,,,,,,,2023-08-16_08h54.52.373,HF_wild_card,2022.2.4,Win32,60.12506013,58bebf658c2fd60001b9767a,64d2fd46c836a06233681665,64dc7f1d7221422e1e133b9c,,,,,,,sngl,resources/Empty.png,resources/DP.BMP,Door2,0.31796875,-0.057291667,1,0,0,2.2561,optionRight,40,3050,2,10,0,10,0,1,,,,,,,,,,,,,,,,,,,,,,,,,,,,,,,,,,,,,,,
,,,,,,,,2023-08-16_08h54.52.373,HF_wild_card,2022.2.4,Win32,60.12506013,58bebf658c2fd60001b9767a,64d2fd46c836a06233681665,64dc7f1d7221422e1e133b9c,,,,,,,sngl,resources/DG.BMP,resources/Empty.png,Door1,-0.239322917,-0.036458333,1,0,0,2.2329,optionLeft,30,3080,2,11,0,11,0,1,,,,,,,,,,,,,,,,,,,,,,,,,,,,,,,,,,,,,,,
,,,,,,,,2023-08-16_08h54.52.373,HF_wild_card,2022.2.4,Win32,60.12506013,58bebf658c2fd60001b9767a,64d2fd46c836a06233681665,64dc7f1d7221422e1e133b9c,,,,,,,sngl,resources/DB.BMP,resources/Empty.png,Door3,-0.321354167,-0.0390625,1,0,0,1.4254,optionLeft,70,3150,2,12,0,12,0,1,,,,,,,,,,,,,,,,,,,,,,,,,,,,,,,,,,,,,,,
,,,,,,,,2023-08-16_08h54.52.373,HF_wild_card,2022.2.4,Win32,60.12506013,58bebf658c2fd60001b9767a,64d2fd46c836a06233681665,64dc7f1d7221422e1e133b9c,,,,,,,ctch,resources/DR.BMP,resources/DG.BMP,Door4,-0.359114583,-0.059895833,1,0,0,3.9914,optionLeft,60,3210,2,13,0,13,0,1,,,,,,,,,,,,,,,,,,,,,,,,,,,,,,,,,,,,,,,
,,,,,,,,2023-08-16_08h54.52.373,HF_wild_card,2022.2.4,Win32,60.12506013,58bebf658c2fd60001b9767a,64d2fd46c836a06233681665,64dc7f1d7221422e1e133b9c,,,,,,,decisionTrl,resources/DP.BMP,resources/DG.BMP,Door1,0.455989583,-0.06640625,1,0,0,4.6453,optionRight,30,3240,2,14,0,14,0,1,,,,,,,,,,,,,,,,,,,,,,,,,,,,,,,,,,,,,,,
,,,,,,,,2023-08-16_08h54.52.373,HF_wild_card,2022.2.4,Win32,60.12506013,58bebf658c2fd60001b9767a,64d2fd46c836a06233681665,64dc7f1d7221422e1e133b9c,,,,,,,ctch,resources/DG.BMP,resources/DR.BMP,Door4,0.416927083,-0.05078125,1,0,0,5.684,optionRight,80,3320,2,15,0,15,0,1,,,,,,,,,,,,,,,,,,,,,,,,,,,,,,,,,,,,,,,
,,,,,,,,2023-08-16_08h54.52.373,HF_wild_card,2022.2.4,Win32,60.12506013,58bebf658c2fd60001b9767a,64d2fd46c836a06233681665,64dc7f1d7221422e1e133b9c,,,,,,,decisionTrl,resources/DBN.BMP,resources/DR.BMP,Door4,0.383072917,-0.09765625,1,0,0,2.1206,optionRight,60,3380,2,16,0,16,0,1,,,,,,,,,,,,,,,,,,,,,,,,,,,,,,,,,,,,,,,
,,,,,,,,2023-08-16_08h54.52.373,HF_wild_card,2022.2.4,Win32,60.12506013,58bebf658c2fd60001b9767a,64d2fd46c836a06233681665,64dc7f1d7221422e1e133b9c,,,,,,,decisionTrl,resources/DR.BMP,resources/DBN.BMP,Door4,-0.379947917,-0.063802083,1,0,0,5.3105,optionLeft,80,3460,2,17,0,17,0,1,,,,,,,,,,,,,,,,,,,,,,,,,,,,,,,,,,,,,,,
,,,,,,,,2023-08-16_08h54.52.373,HF_wild_card,2022.2.4,Win32,60.12506013,58bebf658c2fd60001b9767a,64d2fd46c836a06233681665,64dc7f1d7221422e1e133b9c,,,,,,,sngl,resources/DP.BMP,resources/Empty.png,Door2,-0.441145833,-0.053385417,1,0,0,1.1501,optionLeft,20,3480,2,18,0,18,0,1,,,,,,,,,,,,,,,,,,,,,,,,,,,,,,,,,,,,,,,
,,,,,,,,2023-08-16_08h54.52.373,HF_wild_card,2022.2.4,Win32,60.12506013,58bebf658c2fd60001b9767a,64d2fd46c836a06233681665,64dc7f1d7221422e1e133b9c,,,,,,,ctch,resources/DP.BMP,resources/DB.BMP,Door3,0.424739583,-0.102864583,1,0,0,1.2225,optionRight,70,3550,2,19,0,19,0,1,,,,,,,,,,,,,,,,,,,,,,,,,,,,,,,,,,,,,,,
,,,,,,,,2023-08-16_08h54.52.373,HF_wild_card,2022.2.4,Win32,60.12506013,58bebf658c2fd60001b9767a,64d2fd46c836a06233681665,64dc7f1d7221422e1e133b9c,,,,,,,decisionTrl,resources/DB.BMP,resources/DBN.BMP,WildCard_NonEx,0.3296875,0.001302083,1,0,0,3.3569,optionRight,45,3595,2,20,0,20,0,1,,,,,,,,,,,,,,,,,,,,,,,,,,,,,,,,,,,,,,,
,,,,,,,,2023-08-16_08h54.52.373,HF_wild_card,2022.2.4,Win32,60.12506013,58bebf658c2fd60001b9767a,64d2fd46c836a06233681665,64dc7f1d7221422e1e133b9c,,,,,,,sngl,resources/Empty.png,resources/DG.BMP,Door1,0.398697917,-0.106770833,1,0,0,2.6187,optionRight,30,3625,2,21,0,21,0,1,,,,,,,,,,,,,,,,,,,,,,,,,,,,,,,,,,,,,,,
,,,,,,,,2023-08-16_08h54.52.373,HF_wild_card,2022.2.4,Win32,60.12506013,58bebf658c2fd60001b9767a,64d2fd46c836a06233681665,64dc7f1d7221422e1e133b9c,,,,,,,decisionTrl,resources/DBN.BMP,resources/DB.BMP,Door3,0.370052083,-0.032552083,1,0,0,2.0118,optionRight,70,3695,2,22,0,22,0,1,,,,,,,,,,,,,,,,,,,,,,,,,,,,,,,,,,,,,,,
,,,,,,,,2023-08-16_08h54.52.373,HF_wild_card,2022.2.4,Win32,60.12506013,58bebf658c2fd60001b9767a,64d2fd46c836a06233681665,64dc7f1d7221422e1e133b9c,,,,,,,sngl,resources/Empty.png,resources/DBN.BMP,WildCard_NonEx,0.385677083,-0.111979167,1,0,0,0.8788,optionRight,45,3740,2,23,0,23,0,1,,,,,,,,,,,,,,,,,,,,,,,,,,,,,,,,,,,,,,,
,,,,,,,,2023-08-16_08h54.52.373,HF_wild_card,2022.2.4,Win32,60.12506013,58bebf658c2fd60001b9767a,64d2fd46c836a06233681665,64dc7f1d7221422e1e133b9c,,,,,,,ctch,resources/DR.BMP,resources/DG.BMP,Door4,-0.343489583,-0.052083333,1,0,0,2.1925,optionLeft,80,3820,2,24,0,24,0,1,,,,,,,,,,,,,,,,,,,,,,,,,,,,,,,,,,,,,,,
,,,,,,,,2023-08-16_08h54.52.373,HF_wild_card,2022.2.4,Win32,60.12506013,58bebf658c2fd60001b9767a,64d2fd46c836a06233681665,64dc7f1d7221422e1e133b9c,,,,,,,sngl,resources/Empty.png,resources/DBN.BMP,WildCard_NonEx,0.554947917,-0.048177083,1,0,0,0.6615,optionRight,55,3875,2,25,0,25,0,1,,,,,,,,,,,,,,,,,,,,,,,,,,,,,,,,,,,,,,,
,,,,,,,,2023-08-16_08h54.52.373,HF_wild_card,2022.2.4,Win32,60.12506013,58bebf658c2fd60001b9767a,64d2fd46c836a06233681665,64dc7f1d7221422e1e133b9c,,,,,,,ctch,resources/DB.BMP,resources/DP.BMP,Door3,-0.31875,-0.067708333,1,0,0,0.9264,optionLeft,70,3945,2,26,0,26,0,1,,,,,,,,,,,,,,,,,,,,,,,,,,,,,,,,,,,,,,,
,,,,,,,,2023-08-16_08h54.52.373,HF_wild_card,2022.2.4,Win32,60.12506013,58bebf658c2fd60001b9767a,64d2fd46c836a06233681665,64dc7f1d7221422e1e133b9c,,,,,,,decisionTrl,resources/DB.BMP,resources/DR.BMP,Door4,0.268489583,-0.122395833,1,0,0,3.1778,optionRight,80,4025,2,27,0,27,0,1,,,,,,,,,,,,,,,,,,,,,,,,,,,,,,,,,,,,,,,
,,,,,,,,2023-08-16_08h54.52.373,HF_wild_card,2022.2.4,Win32,60.12506013,58bebf658c2fd60001b9767a,64d2fd46c836a06233681665,64dc7f1d7221422e1e133b9c,,,,,,,sngl,resources/Empty.png,resources/DB.BMP,Door3,0.452083333,-0.108072917,1,0,0,0.8469,optionRight,70,4095,2,28,0,28,0,1,,,,,,,,,,,,,,,,,,,,,,,,,,,,,,,,,,,,,,,
,,,,,,,,2023-08-16_08h54.52.373,HF_wild_card,2022.2.4,Win32,60.12506013,58bebf658c2fd60001b9767a,64d2fd46c836a06233681665,64dc7f1d7221422e1e133b9c,,,,,,,decisionTrl,resources/DR.BMP,resources/DB.BMP,Door3,0.40390625,-0.11328125,1,0,0,6.9304,optionRight,70,4165,2,29,0,29,0,1,,,,,,,,,,,,,,,,,,,,,,,,,,,,,,,,,,,,,,,
,,,,,,,,2023-08-16_08h54.52.373,HF_wild_card,2022.2.4,Win32,60.12506013,58bebf658c2fd60001b9767a,64d2fd46c836a06233681665,64dc7f1d7221422e1e133b9c,,,,,,,decisionTrl,resources/DG.BMP,resources/DBN.BMP,WildCard_NonEx,0.5328125,-0.095052083,1,0,0,2.0957,optionRight,45,4210,2,30,0,30,0,1,,,,,,,,,,,,,,,,,,,,,,,,,,,,,,,,,,,,,,,
,,,,,,,,2023-08-16_08h54.52.373,HF_wild_card,2022.2.4,Win32,60.12506013,58bebf658c2fd60001b9767a,64d2fd46c836a06233681665,64dc7f1d7221422e1e133b9c,,,,,,,decisionTrl,resources/DG.BMP,resources/DP.BMP,Door1,-0.235416667,-0.046875,1,0,0,4.6068,optionLeft,30,4240,2,31,0,31,0,1,,,,,,,,,,,,,,,,,,,,,,,,,,,,,,,,,,,,,,,
,,,,,,,,2023-08-16_08h54.52.373,HF_wild_card,2022.2.4,Win32,60.12506013,58bebf658c2fd60001b9767a,64d2fd46c836a06233681665,64dc7f1d7221422e1e133b9c,,,,,,,decisionTrl,resources/DP.BMP,resources/DG.BMP,Door1,0.483333333,-0.087239583,1,0,0,1.5618,optionRight,30,4270,2,32,0,32,0,1,,,,,,,,,,,,,,,,,,,,,,,,,,,,,,,,,,,,,,,
,,,,,,,,2023-08-16_08h54.52.373,HF_wild_card,2022.2.4,Win32,60.12506013,58bebf658c2fd60001b9767a,64d2fd46c836a06233681665,64dc7f1d7221422e1e133b9c,,,,,,,decisionTrl,resources/DP.BMP,resources/DG.BMP,Door1,0.488541667,-0.069010417,1,0,0,1.4127,optionRight,30,4300,2,33,0,33,0,1,,,,,,,,,,,,,,,,,,,,,,,,,,,,,,,,,,,,,,,
,,,,,,,,2023-08-16_08h54.52.373,HF_wild_card,2022.2.4,Win32,60.12506013,58bebf658c2fd60001b9767a,64d2fd46c836a06233681665,64dc7f1d7221422e1e133b9c,,,,,,,decisionTrl,resources/DBN.BMP,resources/DP.BMP,WildCard_NonEx,-0.352604167,-0.118489583,1,0,0,3.4291,optionLeft,55,4355,2,34,0,34,0,1,,,,,,,,,,,,,,,,,,,,,,,,,,,,,,,,,,,,,,,
,,,,,,,,2023-08-16_08h54.52.373,HF_wild_card,2022.2.4,Win32,60.12506013,58bebf658c2fd60001b9767a,64d2fd46c836a06233681665,64dc7f1d7221422e1e133b9c,,,,,,,decisionTrl,resources/DB.BMP,resources/DR.BMP,Door4,0.446875,-0.048177083,1,0,0,3.8065,optionRight,80,4435,2,35,0,35,0,1,,,,,,,,,,,,,,,,,,,,,,,,,,,,,,,,,,,,,,,
,,,,,,,,2023-08-16_08h54.52.373,HF_wild_card,2022.2.4,Win32,60.12506013,58bebf658c2fd60001b9767a,64d2fd46c836a06233681665,64dc7f1d7221422e1e133b9c,,,,,,,sngl,resources/DBN.BMP,resources/Empty.png,WildCard_NonEx,-0.30703125,-0.0234375,1,0,0,1.146,optionLeft,45,4480,2,36,0,36,0,1,,,,,,,,,,,,,,,,,,,,,,,,,,,,,,,,,,,,,,,
,,,,,,,,2023-08-16_08h54.52.373,HF_wild_card,2022.2.4,Win32,60.12506013,58bebf658c2fd60001b9767a,64d2fd46c836a06233681665,64dc7f1d7221422e1e133b9c,,,,,,,decisionTrl,resources/DB.BMP,resources/DR.BMP,Door4,0.351822917,-0.111979167,1,0,0,3.2083,optionRight,60,4540,2,37,0,37,0,1,,,,,,,,,,,,,,,,,,,,,,,,,,,,,,,,,,,,,,,
,,,,,,,,2023-08-16_08h54.52.373,HF_wild_card,2022.2.4,Win32,60.12506013,58bebf658c2fd60001b9767a,64d2fd46c836a06233681665,64dc7f1d7221422e1e133b9c,,,,,,,decisionTrl,resources/DG.BMP,resources/DP.BMP,Door2,0.304947917,-0.09765625,1,0,0,2.6,optionRight,40,4580,2,38,0,38,0,1,,,,,,,,,,,,,,,,,,,,,,,,,,,,,,,,,,,,,,,
,,,,,,,,2023-08-16_08h54.52.373,HF_wild_card,2022.2.4,Win32,60.12506013,58bebf658c2fd60001b9767a,64d2fd46c836a06233681665,64dc7f1d7221422e1e133b9c,,,,,,,decisionTrl,resources/DB.BMP,resources/DR.BMP,Door4,0.319270833,-0.12109375,1,0,0,1.7654,optionRight,60,4640,2,39,0,39,0,1,,,,,,,,,,,,,,,,,,,,,,,,,,,,,,,,,,,,,,,
,,,,,,,,2023-08-16_08h54.52.373,HF_wild_card,2022.2.4,Win32,60.12506013,58bebf658c2fd60001b9767a,64d2fd46c836a06233681665,64dc7f1d7221422e1e133b9c,,,,,,,decisionTrl,resources/DP.BMP,resources/DBN.BMP,WildCard_NonEx,0.561458333,-0.079427083,1,0,0,3.8923,optionRight,55,4695,2,40,0,40,0,1,,,,,,,,,,,,,,,,,,,,,,,,,,,,,,,,,,,,,,,
,,,,,,,,2023-08-16_08h54.52.373,HF_wild_card,2022.2.4,Win32,60.12506013,58bebf658c2fd60001b9767a,64d2fd46c836a06233681665,64dc7f1d7221422e1e133b9c,,,,,,,sngl,resources/Empty.png,resources/DR.BMP,Door4,0.476822917,-0.153645833,1,0,0,2.8733,optionRight,80,4775,2,41,0,41,0,1,,,,,,,,,,,,,,,,,,,,,,,,,,,,,,,,,,,,,,,
,,,,,,,,2023-08-16_08h54.52.373,HF_wild_card,2022.2.4,Win32,60.12506013,58bebf658c2fd60001b9767a,64d2fd46c836a06233681665,64dc7f1d7221422e1e133b9c,,,,,,,sngl,resources/DBN.BMP,resources/Empty.png,WildCard_NonEx,-0.33046875,-0.05859375,1,0,0,0.8108,optionLeft,55,4830,2,42,0,42,0,1,,,,,,,,,,,,,,,,,,,,,,,,,,,,,,,,,,,,,,,
,,,,,,,,2023-08-16_08h54.52.373,HF_wild_card,2022.2.4,Win32,60.12506013,58bebf658c2fd60001b9767a,64d2fd46c836a06233681665,64dc7f1d7221422e1e133b9c,,,,,,,decisionTrl,resources/DG.BMP,resources/DP.BMP,Door2,0.3140625,-0.100260417,1,0,0,4.9502,optionRight,20,4850,2,43,0,43,0,1,,,,,,,,,,,,,,,,,,,,,,,,,,,,,,,,,,,,,,,
,,,,,,,,2023-08-16_08h54.52.373,HF_wild_card,2022.2.4,Win32,60.12506013,58bebf658c2fd60001b9767a,64d2fd46c836a06233681665,64dc7f1d7221422e1e133b9c,,,,,,,,,,,,,,,,,,,,,,,,,,1,0,1,0,1,,,,,,,,,,,,,,,,,,,,,,,,,,,,,,,,,,
,,,,,,,,2023-08-16_08h54.52.373,HF_wild_card,2022.2.4,Win32,60.12506013,58bebf658c2fd60001b9767a,64d2fd46c836a06233681665,64dc7f1d7221422e1e133b9c,,,,,,,decisionTrl,resources/DR.BMP,resources/DB.BMP,Door3,0.3375,-0.029947917,1,0,0,1.6214,optionRight,70,4920,3,0,0,0,0,1,,,,,,,,,,,,,,,,,,,,,,,,,,,,,,,,,,,,,,,
,,,,,,,,2023-08-16_08h54.52.373,HF_wild_card,2022.2.4,Win32,60.12506013,58bebf658c2fd60001b9767a,64d2fd46c836a06233681665,64dc7f1d7221422e1e133b9c,,,,,,,decisionTrl,resources/DP.BMP,resources/DBN.BMP,WildCard_NonEx,0.36875,-0.104166667,1,0,0,1.6443,optionRight,45,4965,3,1,0,1,0,1,,,,,,,,,,,,,,,,,,,,,,,,,,,,,,,,,,,,,,,
,,,,,,,,2023-08-16_08h54.52.373,HF_wild_card,2022.2.4,Win32,60.12506013,58bebf658c2fd60001b9767a,64d2fd46c836a06233681665,64dc7f1d7221422e1e133b9c,,,,,,,decisionTrl,resources/DR.BMP,resources/DB.BMP,Door3,0.389583333,-0.153645833,1,0,0,5.2272,optionRight,70,5035,3,2,0,2,0,1,,,,,,,,,,,,,,,,,,,,,,,,,,,,,,,,,,,,,,,
,,,,,,,,2023-08-16_08h54.52.373,HF_wild_card,2022.2.4,Win32,60.12506013,58bebf658c2fd60001b9767a,64d2fd46c836a06233681665,64dc7f1d7221422e1e133b9c,,,,,,,sngl,resources/Empty.png,resources/DG.BMP,Door1,0.3609375,-0.118489583,1,0,0,1.1681,optionRight,30,5065,3,3,0,3,0,1,,,,,,,,,,,,,,,,,,,,,,,,,,,,,,,,,,,,,,,
,,,,,,,,2023-08-16_08h54.52.373,HF_wild_card,2022.2.4,Win32,60.12506013,58bebf658c2fd60001b9767a,64d2fd46c836a06233681665,64dc7f1d7221422e1e133b9c,,,,,,,decisionTrl,resources/DG.BMP,resources/DP.BMP,Door2,0.43515625,-0.140625,1,0,0,2.811,optionRight,20,5085,3,4,0,4,0,1,,,,,,,,,,,,,,,,,,,,,,,,,,,,,,,,,,,,,,,
,,,,,,,,2023-08-16_08h54.52.373,HF_wild_card,2022.2.4,Win32,60.12506013,58bebf658c2fd60001b9767a,64d2fd46c836a06233681665,64dc7f1d7221422e1e133b9c,,,,,,,decisionTrl,resources/DP.BMP,resources/DG.BMP,Door1,0.30625,-0.1328125,1,0,0,1.1247,optionRight,30,5115,3,5,0,5,0,1,,,,,,,,,,,,,,,,,,,,,,,,,,,,,,,,,,,,,,,
,,,,,,,,2023-08-16_08h54.52.373,HF_wild_card,2022.2.4,Win32,60.12506013,58bebf658c2fd60001b9767a,64d2fd46c836a06233681665,64dc7f1d7221422e1e133b9c,,,,,,,decisionTrl,resources/DR.BMP,resources/DBN.BMP,Door4,-0.290104167,-0.123697917,1,0,0,1.3932,optionLeft,80,5195,3,6,0,6,0,1,,,,,,,,,,,,,,,,,,,,,,,,,,,,,,,,,,,,,,,
,,,,,,,,2023-08-16_08h54.52.373,HF_wild_card,2022.2.4,Win32,60.12506013,58bebf658c2fd60001b9767a,64d2fd46c836a06233681665,64dc7f1d7221422e1e133b9c,,,,,,,decisionTrl,resources/DG.BMP,resources/DBN.BMP,WildCard_NonEx,0.416927083,-0.08984375,1,0,0,1.3454,optionRight,45,5240,3,7,0,7,0,1,,,,,,,,,,,,,,,,,,,,,,,,,,,,,,,,,,,,,,,
,,,,,,,,2023-08-16_08h54.52.373,HF_wild_card,2022.2.4,Win32,60.12506013,58bebf658c2fd60001b9767a,64d2fd46c836a06233681665,64dc7f1d7221422e1e133b9c,,,,,,,sngl,resources/DB.BMP,resources/Empty.png,Door3,-0.383854167,-0.04296875,1,0,0,0.5459,optionLeft,70,5310,3,8,0,8,0,1,,,,,,,,,,,,,,,,,,,,,,,,,,,,,,,,,,,,,,,
,,,,,,,,2023-08-16_08h54.52.373,HF_wild_card,2022.2.4,Win32,60.12506013,58bebf658c2fd60001b9767a,64d2fd46c836a06233681665,64dc7f1d7221422e1e133b9c,,,,,,,decisionTrl,resources/DBN.BMP,resources/DG.BMP,WildCard_NonEx,-0.383854167,-0.046875,1,0,0,1.0455,optionLeft,55,5365,3,9,0,9,0,1,,,,,,,,,,,,,,,,,,,,,,,,,,,,,,,,,,,,,,,
,,,,,,,,2023-08-16_08h54.52.373,HF_wild_card,2022.2.4,Win32,60.12506013,58bebf658c2fd60001b9767a,64d2fd46c836a06233681665,64dc7f1d7221422e1e133b9c,,,,,,,ctch,resources/DR.BMP,resources/DG.BMP,Door4,-0.4203125,-0.057291667,1,0,0,0.912,optionLeft,60,5425,3,10,0,10,0,1,,,,,,,,,,,,,,,,,,,,,,,,,,,,,,,,,,,,,,,
,,,,,,,,2023-08-16_08h54.52.373,HF_wild_card,2022.2.4,Win32,60.12506013,58bebf658c2fd60001b9767a,64d2fd46c836a06233681665,64dc7f1d7221422e1e133b9c,,,,,,,decisionTrl,resources/DBN.BMP,resources/DR.BMP,Door4,0.285416667,-0.104166667,1,0,0,1.9288,optionRight,80,5505,3,11,0,11,0,1,,,,,,,,,,,,,,,,,,,,,,,,,,,,,,,,,,,,,,,
,,,,,,,,2023-08-16_08h54.52.373,HF_wild_card,2022.2.4,Win32,60.12506013,58bebf658c2fd60001b9767a,64d2fd46c836a06233681665,64dc7f1d7221422e1e133b9c,,,,,,,sngl,resources/DR.BMP,resources/Empty.png,Door4,-0.257552083,-0.028645833,1,0,0,1.6953,optionLeft,80,5585,3,12,0,12,0,1,,,,,,,,,,,,,,,,,,,,,,,,,,,,,,,,,,,,,,,
,,,,,,,,2023-08-16_08h54.52.373,HF_wild_card,2022.2.4,Win32,60.12506013,58bebf658c2fd60001b9767a,64d2fd46c836a06233681665,64dc7f1d7221422e1e133b9c,,,,,,,decisionTrl,resources/DB.BMP,resources/DR.BMP,Door4,0.351822917,-0.104166667,1,0,0,0.6587,optionRight,60,5645,3,13,0,13,0,1,,,,,,,,,,,,,,,,,,,,,,,,,,,,,,,,,,,,,,,
,,,,,,,,2023-08-16_08h54.52.373,HF_wild_card,2022.2.4,Win32,60.12506013,58bebf658c2fd60001b9767a,64d2fd46c836a06233681665,64dc7f1d7221422e1e133b9c,,,,,,,ctch,resources/DG.BMP,resources/DR.BMP,Door4,0.315364583,-0.07421875,1,0,0,0.8801,optionRight,80,5725,3,14,0,14,0,1,,,,,,,,,,,,,,,,,,,,,,,,,,,,,,,,,,,,,,,
,,,,,,,,2023-08-16_08h54.52.373,HF_wild_card,2022.2.4,Win32,60.12506013,58bebf658c2fd60001b9767a,64d2fd46c836a06233681665,64dc7f1d7221422e1e133b9c,,,,,,,decisionTrl,resources/DBN.BMP,resources/DB.BMP,Door3,0.307552083,-0.100260417,1,0,0,1.9117,optionRight,70,5795,3,15,0,15,0,1,,,,,,,,,,,,,,,,,,,,,,,,,,,,,,,,,,,,,,,
,,,,,,,,2023-08-16_08h54.52.373,HF_wild_card,2022.2.4,Win32,60.12506013,58bebf658c2fd60001b9767a,64d2fd46c836a06233681665,64dc7f1d7221422e1e133b9c,,,,,,,decisionTrl,resources/DR.BMP,resources/DB.BMP,Door3,0.444270833,-0.12890625,1,0,0,1.314,optionRight,70,5865,3,16,0,16,0,1,,,,,,,,,,,,,,,,,,,,,,,,,,,,,,,,,,,,,,,
,,,,,,,,2023-08-16_08h54.52.373,HF_wild_card,2022.2.4,Win32,60.12506013,58bebf658c2fd60001b9767a,64d2fd46c836a06233681665,64dc7f1d7221422e1e133b9c,,,,,,,decisionTrl,resources/DB.BMP,resources/DR.BMP,Door3,-0.270572917,-0.079427083,1,0,0,0.9125,optionLeft,70,5935,3,17,0,17,0,1,,,,,,,,,,,,,,,,,,,,,,,,,,,,,,,,,,,,,,,
,,,,,,,,2023-08-16_08h54.52.373,HF_wild_card,2022.2.4,Win32,60.12506013,58bebf658c2fd60001b9767a,64d2fd46c836a06233681665,64dc7f1d7221422e1e133b9c,,,,,,,sngl,resources/Empty.png,resources/DBN.BMP,WildCard_NonEx,0.446875,-0.12109375,1,0,0,0.6965,optionRight,45,5980,3,18,0,18,0,1,,,,,,,,,,,,,,,,,,,,,,,,,,,,,,,,,,,,,,,
,,,,,,,,2023-08-16_08h54.52.373,HF_wild_card,2022.2.4,Win32,60.12506013,58bebf658c2fd60001b9767a,64d2fd46c836a06233681665,64dc7f1d7221422e1e133b9c,,,,,,,ctch,resources/DB.BMP,resources/DP.BMP,Door3,-0.239322917,-0.111979167,1,0,0,0.9768,optionLeft,70,6050,3,19,0,19,0,1,,,,,,,,,,,,,,,,,,,,,,,,,,,,,,,,,,,,,,,
,,,,,,,,2023-08-16_08h54.52.373,HF_wild_card,2022.2.4,Win32,60.12506013,58bebf658c2fd60001b9767a,64d2fd46c836a06233681665,64dc7f1d7221422e1e133b9c,,,,,,,sngl,resources/Empty.png,resources/DBN.BMP,WildCard_NonEx,0.289322917,-0.052083333,1,0,0,0.6459,optionRight,55,6105,3,20,0,20,0,1,,,,,,,,,,,,,,,,,,,,,,,,,,,,,,,,,,,,,,,
,,,,,,,,2023-08-16_08h54.52.373,HF_wild_card,2022.2.4,Win32,60.12506013,58bebf658c2fd60001b9767a,64d2fd46c836a06233681665,64dc7f1d7221422e1e133b9c,,,,,,,decisionTrl,resources/DB.BMP,resources/DR.BMP,Door3,-0.2796875,-0.044270833,1,0,0,0.7653,optionLeft,70,6175,3,21,0,21,0,1,,,,,,,,,,,,,,,,,,,,,,,,,,,,,,,,,,,,,,,
,,,,,,,,2023-08-16_08h54.52.373,HF_wild_card,2022.2.4,Win32,60.12506013,58bebf658c2fd60001b9767a,64d2fd46c836a06233681665,64dc7f1d7221422e1e133b9c,,,,,,,decisionTrl,resources/DB.BMP,resources/DR.BMP,Door3,-0.329166667,-0.08984375,1,0,0,1.1454,optionLeft,70,6245,3,22,0,22,0,1,,,,,,,,,,,,,,,,,,,,,,,,,,,,,,,,,,,,,,,
,,,,,,,,2023-08-16_08h54.52.373,HF_wild_card,2022.2.4,Win32,60.12506013,58bebf658c2fd60001b9767a,64d2fd46c836a06233681665,64dc7f1d7221422e1e133b9c,,,,,,,decisionTrl,resources/DB.BMP,resources/DBN.BMP,Door3,-0.215885417,-0.065104167,1,0,0,0.8128,optionLeft,70,6315,3,23,0,23,0,1,,,,,,,,,,,,,,,,,,,,,,,,,,,,,,,,,,,,,,,
,,,,,,,,2023-08-16_08h54.52.373,HF_wild_card,2022.2.4,Win32,60.12506013,58bebf658c2fd60001b9767a,64d2fd46c836a06233681665,64dc7f1d7221422e1e133b9c,,,,,,,ctch,resources/DP.BMP,resources/DB.BMP,Door3,0.1890625,-0.05859375,1,0,0,0.8601,optionRight,70,6385,3,24,0,24,0,1,,,,,,,,,,,,,,,,,,,,,,,,,,,,,,,,,,,,,,,
,,,,,,,,2023-08-16_08h54.52.373,HF_wild_card,2022.2.4,Win32,60.12506013,58bebf658c2fd60001b9767a,64d2fd46c836a06233681665,64dc7f1d7221422e1e133b9c,,,,,,,decisionTrl,resources/DBN.BMP,resources/DP.BMP,WildCard_NonEx,-0.290104167,-0.08203125,1,0,0,1.6757,optionLeft,55,6440,3,25,0,25,0,1,,,,,,,,,,,,,,,,,,,,,,,,,,,,,,,,,,,,,,,
,,,,,,,,2023-08-16_08h54.52.373,HF_wild_card,2022.2.4,Win32,60.12506013,58bebf658c2fd60001b9767a,64d2fd46c836a06233681665,64dc7f1d7221422e1e133b9c,,,,,,,decisionTrl,resources/DP.BMP,resources/DG.BMP,Door2,-0.247135417,-0.1171875,1,0,0,1.0965,optionLeft,40,6480,3,26,0,26,0,1,,,,,,,,,,,,,,,,,,,,,,,,,,,,,,,,,,,,,,,
,,,,,,,,2023-08-16_08h54.52.373,HF_wild_card,2022.2.4,Win32,60.12506013,58bebf658c2fd60001b9767a,64d2fd46c836a06233681665,64dc7f1d7221422e1e133b9c,,,,,,,sngl,resources/DBN.BMP,resources/Empty.png,WildCard_NonEx,-0.222395833,-0.0625,1,0,0,0.6626,optionLeft,45,6525,3,27,0,27,0,1,,,,,,,,,,,,,,,,,,,,,,,,,,,,,,,,,,,,,,,
,,,,,,,,2023-08-16_08h54.52.373,HF_wild_card,2022.2.4,Win32,60.12506013,58bebf658c2fd60001b9767a,64d2fd46c836a06233681665,64dc7f1d7221422e1e133b9c,,,,,,,decisionTrl,resources/DR.BMP,resources/DB.BMP,Door3,0.401302083,-0.088541667,1,0,0,2.1098,optionRight,70,6595,3,28,0,28,0,1,,,,,,,,,,,,,,,,,,,,,,,,,,,,,,,,,,,,,,,
,,,,,,,,2023-08-16_08h54.52.373,HF_wild_card,2022.2.4,Win32,60.12506013,58bebf658c2fd60001b9767a,64d2fd46c836a06233681665,64dc7f1d7221422e1e133b9c,,,,,,,ctch,resources/DP.BMP,resources/DB.BMP,Door3,0.35703125,-0.08984375,1,0,0,0.7608,optionRight,70,6665,3,29,0,29,0,1,,,,,,,,,,,,,,,,,,,,,,,,,,,,,,,,,,,,,,,
,,,,,,,,2023-08-16_08h54.52.373,HF_wild_card,2022.2.4,Win32,60.12506013,58bebf658c2fd60001b9767a,64d2fd46c836a06233681665,64dc7f1d7221422e1e133b9c,,,,,,,sngl,resources/Empty.png,resources/DB.BMP,Door3,0.288020833,-0.071614583,1,0,0,0.6642,optionRight,70,6735,3,30,0,30,0,1,,,,,,,,,,,,,,,,,,,,,,,,,,,,,,,,,,,,,,,
,,,,,,,,2023-08-16_08h54.52.373,HF_wild_card,2022.2.4,Win32,60.12506013,58bebf658c2fd60001b9767a,64d2fd46c836a06233681665,64dc7f1d7221422e1e133b9c,,,,,,,decisionTrl,resources/DG.BMP,resources/DP.BMP,Door2,0.515885417,-0.118489583,1,0,0,1.4603,optionRight,40,6775,3,31,0,31,0,1,,,,,,,,,,,,,,,,,,,,,,,,,,,,,,,,,,,,,,,
,,,,,,,,2023-08-16_08h54.52.373,HF_wild_card,2022.2.4,Win32,60.12506013,58bebf658c2fd60001b9767a,64d2fd46c836a06233681665,64dc7f1d7221422e1e133b9c,,,,,,,sngl,resources/DG.BMP,resources/Empty.png,Door1,-0.282291667,-0.0390625,1,0,0,0.6442,optionLeft,30,6805,3,32,0,32,0,1,,,,,,,,,,,,,,,,,,,,,,,,,,,,,,,,,,,,,,,
,,,,,,,,2023-08-16_08h54.52.373,HF_wild_card,2022.2.4,Win32,60.12506013,58bebf658c2fd60001b9767a,64d2fd46c836a06233681665,64dc7f1d7221422e1e133b9c,,,,,,,ctch,resources/DG.BMP,resources/DR.BMP,Door4,0.334895833,-0.06640625,1,0,0,1.1633,optionRight,60,6865,3,33,0,33,0,1,,,,,,,,,,,,,,,,,,,,,,,,,,,,,,,,,,,,,,,
,,,,,,,,2023-08-16_08h54.52.373,HF_wild_card,2022.2.4,Win32,60.12506013,58bebf658c2fd60001b9767a,64d2fd46c836a06233681665,64dc7f1d7221422e1e133b9c,,,,,,,sngl,resources/DP.BMP,resources/Empty.png,Door2,-0.280989583,-0.046875,1,0,0,0.7604,optionLeft,40,6905,3,34,0,34,0,1,,,,,,,,,,,,,,,,,,,,,,,,,,,,,,,,,,,,,,,
,,,,,,,,2023-08-16_08h54.52.373,HF_wild_card,2022.2.4,Win32,60.12506013,58bebf658c2fd60001b9767a,64d2fd46c836a06233681665,64dc7f1d7221422e1e133b9c,,,,,,,ctch,resources/DB.BMP,resources/DP.BMP,Door3,-0.2875,-0.07421875,1,0,0,1.2625,optionLeft,70,6975,3,35,0,35,0,1,,,,,,,,,,,,,,,,,,,,,,,,,,,,,,,,,,,,,,,
,,,,,,,,2023-08-16_08h54.52.373,HF_wild_card,2022.2.4,Win32,60.12506013,58bebf658c2fd60001b9767a,64d2fd46c836a06233681665,64dc7f1d7221422e1e133b9c,,,,,,,decisionTrl,resources/DG.BMP,resources/DP.BMP,Door2,0.320572917,-0.12109375,1,0,0,2.2134,optionRight,20,6995,3,36,0,36,0,1,,,,,,,,,,,,,,,,,,,,,,,,,,,,,,,,,,,,,,,
,,,,,,,,2023-08-16_08h54.52.373,HF_wild_card,2022.2.4,Win32,60.12506013,58bebf658c2fd60001b9767a,64d2fd46c836a06233681665,64dc7f1d7221422e1e133b9c,,,,,,,sngl,resources/Empty.png,resources/DR.BMP,Door4,0.354427083,-0.061197917,1,0,0,0.6551,optionRight,60,7055,3,37,0,37,0,1,,,,,,,,,,,,,,,,,,,,,,,,,,,,,,,,,,,,,,,
,,,,,,,,2023-08-16_08h54.52.373,HF_wild_card,2022.2.4,Win32,60.12506013,58bebf658c2fd60001b9767a,64d2fd46c836a06233681665,64dc7f1d7221422e1e133b9c,,,,,,,ctch,resources/DR.BMP,resources/DG.BMP,Door4,-0.301822917,-0.083333333,1,0,0,0.7968,optionLeft,60,7115,3,38,0,38,0,1,,,,,,,,,,,,,,,,,,,,,,,,,,,,,,,,,,,,,,,
,,,,,,,,2023-08-16_08h54.52.373,HF_wild_card,2022.2.4,Win32,60.12506013,58bebf658c2fd60001b9767a,64d2fd46c836a06233681665,64dc7f1d7221422e1e133b9c,,,,,,,decisionTrl,resources/DP.BMP,resources/DG.BMP,Door1,0.33359375,-0.151041667,1,0,0,2.5088,optionRight,30,7145,3,39,0,39,0,1,,,,,,,,,,,,,,,,,,,,,,,,,,,,,,,,,,,,,,,
,,,,,,,,2023-08-16_08h54.52.373,HF_wild_card,2022.2.4,Win32,60.12506013,58bebf658c2fd60001b9767a,64d2fd46c836a06233681665,64dc7f1d7221422e1e133b9c,,,,,,,sngl,resources/DBN.BMP,resources/Empty.png,WildCard_NonEx,-0.31484375,-0.067708333,1,0,0,0.7272,optionLeft,55,7200,3,40,0,40,0,1,,,,,,,,,,,,,,,,,,,,,,,,,,,,,,,,,,,,,,,
,,,,,,,,2023-08-16_08h54.52.373,HF_wild_card,2022.2.4,Win32,60.12506013,58bebf658c2fd60001b9767a,64d2fd46c836a06233681665,64dc7f1d7221422e1e133b9c,,,,,,,sngl,resources/Empty.png,resources/DP.BMP,Door2,0.297135417,-0.079427083,1,0,0,0.6689,optionRight,20,7220,3,41,0,41,0,1,,,,,,,,,,,,,,,,,,,,,,,,,,,,,,,,,,,,,,,
,,,,,,,,2023-08-16_08h54.52.373,HF_wild_card,2022.2.4,Win32,60.12506013,58bebf658c2fd60001b9767a,64d2fd46c836a06233681665,64dc7f1d7221422e1e133b9c,,,,,,,decisionTrl,resources/DP.BMP,resources/DG.BMP,Door1,0.319270833,-0.096354167,1,0,0,7.9734,optionRight,30,7250,3,42,0,42,0,1,,,,,,,,,,,,,,,,,,,,,,,,,,,,,,,,,,,,,,,
,,,,,,,,2023-08-16_08h54.52.373,HF_wild_card,2022.2.4,Win32,60.12506013,58bebf658c2fd60001b9767a,64d2fd46c836a06233681665,64dc7f1d7221422e1e133b9c,,,,,,,decisionTrl,resources/DG.BMP,resources/DP.BMP,Door1,-0.265364583,-0.139322917,1,0,0,1.2959,optionLeft,30,7280,3,43,0,43,0,1,,,,,,,,,,,,,,,,,,,,,,,,,,,,,,,,,,,,,,,
,,,,,,,,2023-08-16_08h54.52.373,HF_wild_card,2022.2.4,Win32,60.12506013,58bebf658c2fd60001b9767a,64d2fd46c836a06233681665,64dc7f1d7221422e1e133b9c,,,,,,,,,,,,,,,,,,,,,,,,,,2,0,2,0,1,,,,,,,,,,,,,,,,,,,,,,,,,,,,,,,,,,
,,,,,,,,2023-08-16_08h54.52.373,HF_wild_card,2022.2.4,Win32,60.12506013,58bebf658c2fd60001b9767a,64d2fd46c836a06233681665,64dc7f1d7221422e1e133b9c,,,,,,,sngl,resources/Empty.png,resources/DG.BMP,Door1,0.29453125,-0.131510417,1,0,0,1.8606,optionRight,30,7310,4,0,0,0,0,1,,,,,,,,,,,,,,,,,,,,,,,,,,,,,,,,,,,,,,,
,,,,,,,,2023-08-16_08h54.52.373,HF_wild_card,2022.2.4,Win32,60.12506013,58bebf658c2fd60001b9767a,64d2fd46c836a06233681665,64dc7f1d7221422e1e133b9c,,,,,,,sngl,resources/Empty.png,resources/DR.BMP,Door4,0.346614583,-0.140625,1,0,0,0.5454,optionRight,80,7390,4,1,0,1,0,1,,,,,,,,,,,,,,,,,,,,,,,,,,,,,,,,,,,,,,,
,,,,,,,,2023-08-16_08h54.52.373,HF_wild_card,2022.2.4,Win32,60.12506013,58bebf658c2fd60001b9767a,64d2fd46c836a06233681665,64dc7f1d7221422e1e133b9c,,,,,,,decisionTrl,resources/DP.BMP,resources/DG.BMP,Door1,0.344010417,-0.0859375,1,0,0,5.7883,optionRight,30,7420,4,2,0,2,0,1,,,,,,,,,,,,,,,,,,,,,,,,,,,,,,,,,,,,,,,
,,,,,,,,2023-08-16_08h54.52.373,HF_wild_card,2022.2.4,Win32,60.12506013,58bebf658c2fd60001b9767a,64d2fd46c836a06233681665,64dc7f1d7221422e1e133b9c,,,,,,,decisionTrl,resources/DP.BMP,resources/DG.BMP,Door1,0.252864583,-0.180989583,1,0,0,4.6062,optionRight,30,7450,4,3,0,3,0,1,,,,,,,,,,,,,,,,,,,,,,,,,,,,,,,,,,,,,,,
,,,,,,,,2023-08-16_08h54.52.373,HF_wild_card,2022.2.4,Win32,60.12506013,58bebf658c2fd60001b9767a,64d2fd46c836a06233681665,64dc7f1d7221422e1e133b9c,,,,,,,sngl,resources/Empty.png,resources/DY.BMP,WildCard_Ex,0.264583333,-0.14453125,1,0,0,1.2604,optionRight,95,7545,4,4,0,4,0,1,,,,,,,,,,,,,,,,,,,,,,,,,,,,,,,,,,,,,,,
,,,,,,,,2023-08-16_08h54.52.373,HF_wild_card,2022.2.4,Win32,60.12506013,58bebf658c2fd60001b9767a,64d2fd46c836a06233681665,64dc7f1d7221422e1e133b9c,,,,,,,decisionTrl,resources/DG.BMP,resources/DP.BMP,Door2,0.4078125,-0.147135417,1,0,0,3.638,optionRight,40,7585,4,5,0,5,0,1,,,,,,,,,,,,,,,,,,,,,,,,,,,,,,,,,,,,,,,
,,,,,,,,2023-08-16_08h54.52.373,HF_wild_card,2022.2.4,Win32,60.12506013,58bebf658c2fd60001b9767a,64d2fd46c836a06233681665,64dc7f1d7221422e1e133b9c,,,,,,,ctch,resources/DB.BMP,resources/DP.BMP,Door3,-0.280989583,-0.104166667,1,0,0,1.0596,optionLeft,70,7655,4,6,0,6,0,1,,,,,,,,,,,,,,,,,,,,,,,,,,,,,,,,,,,,,,,
,,,,,,,,2023-08-16_08h54.52.373,HF_wild_card,2022.2.4,Win32,60.12506013,58bebf658c2fd60001b9767a,64d2fd46c836a06233681665,64dc7f1d7221422e1e133b9c,,,,,,,sngl,resources/Empty.png,resources/DP.BMP,Door2,0.293229167,-0.11328125,1,0,0,0.6968,optionRight,40,7695,4,7,0,7,0,1,,,,,,,,,,,,,,,,,,,,,,,,,,,,,,,,,,,,,,,
,,,,,,,,2023-08-16_08h54.52.373,HF_wild_card,2022.2.4,Win32,60.12506013,58bebf658c2fd60001b9767a,64d2fd46c836a06233681665,64dc7f1d7221422e1e133b9c,,,,,,,decisionTrl,resources/DB.BMP,resources/DR.BMP,Door4,0.49375,-0.204427083,1,0,0,3.1777,optionRight,80,7775,4,8,0,8,0,1,,,,,,,,,,,,,,,,,,,,,,,,,,,,,,,,,,,,,,,
,,,,,,,,2023-08-16_08h54.52.373,HF_wild_card,2022.2.4,Win32,60.12506013,58bebf658c2fd60001b9767a,64d2fd46c836a06233681665,64dc7f1d7221422e1e133b9c,,,,,,,decisionTrl,resources/DB.BMP,resources/DR.BMP,Door4,0.518489583,-0.17578125,1,0,0,1.0617,optionRight,60,7835,4,9,0,9,0,1,,,,,,,,,,,,,,,,,,,,,,,,,,,,,,,,,,,,,,,
,,,,,,,,2023-08-16_08h54.52.373,HF_wild_card,2022.2.4,Win32,60.12506013,58bebf658c2fd60001b9767a,64d2fd46c836a06233681665,64dc7f1d7221422e1e133b9c,,,,,,,ctch,resources/DG.BMP,resources/DR.BMP,Door4,0.410416667,-0.131510417,1,0,0,0.7941,optionRight,80,7915,4,10,0,10,0,1,,,,,,,,,,,,,,,,,,,,,,,,,,,,,,,,,,,,,,,
,,,,,,,,2023-08-16_08h54.52.373,HF_wild_card,2022.2.4,Win32,60.12506013,58bebf658c2fd60001b9767a,64d2fd46c836a06233681665,64dc7f1d7221422e1e133b9c,,,,,,,decisionTrl,resources/DP.BMP,resources/DY.BMP,WildCard_Ex,0.36484375,-0.1484375,1,0,0,1.0132,optionRight,95,8010,4,11,0,11,0,1,,,,,,,,,,,,,,,,,,,,,,,,,,,,,,,,,,,,,,,
,,,,,,,,2023-08-16_08h54.52.373,HF_wild_card,2022.2.4,Win32,60.12506013,58bebf658c2fd60001b9767a,64d2fd46c836a06233681665,64dc7f1d7221422e1e133b9c,,,,,,,decisionTrl,resources/DR.BMP,resources/DB.BMP,Door4,-0.34609375,-0.076822917,1,0,0,1.6929,optionLeft,80,8090,4,12,0,12,0,1,,,,,,,,,,,,,,,,,,,,,,,,,,,,,,,,,,,,,,,
,,,,,,,,2023-08-16_08h54.52.373,HF_wild_card,2022.2.4,Win32,60.12506013,58bebf658c2fd60001b9767a,64d2fd46c836a06233681665,64dc7f1d7221422e1e133b9c,,,,,,,ctch,resources/DP.BMP,resources/DB.BMP,Door3,0.373958333,-0.057291667,1,0,0,2.0251,optionRight,70,8160,4,13,0,13,0,1,,,,,,,,,,,,,,,,,,,,,,,,,,,,,,,,,,,,,,,
,,,,,,,,2023-08-16_08h54.52.373,HF_wild_card,2022.2.4,Win32,60.12506013,58bebf658c2fd60001b9767a,64d2fd46c836a06233681665,64dc7f1d7221422e1e133b9c,,,,,,,ctch,resources/DR.BMP,resources/DG.BMP,Door4,-0.24453125,-0.053385417,1,0,0,0.7464,optionLeft,60,8220,4,14,0,14,0,1,,,,,,,,,,,,,,,,,,,,,,,,,,,,,,,,,,,,,,,
,,,,,,,,2023-08-16_08h54.52.373,HF_wild_card,2022.2.4,Win32,60.12506013,58bebf658c2fd60001b9767a,64d2fd46c836a06233681665,64dc7f1d7221422e1e133b9c,,,,,,,ctch,resources/DG.BMP,resources/DR.BMP,Door4,0.324479167,-0.09375,1,0,0,0.7127,optionRight,60,8280,4,15,0,15,0,1,,,,,,,,,,,,,,,,,,,,,,,,,,,,,,,,,,,,,,,
,,,,,,,,2023-08-16_08h54.52.373,HF_wild_card,2022.2.4,Win32,60.12506013,58bebf658c2fd60001b9767a,64d2fd46c836a06233681665,64dc7f1d7221422e1e133b9c,,,,,,,decisionTrl,resources/DR.BMP,resources/DB.BMP,Door4,-0.278385417,-0.036458333,1,0,0,2.3754,optionLeft,60,8340,4,16,0,16,0,1,,,,,,,,,,,,,,,,,,,,,,,,,,,,,,,,,,,,,,,
,,,,,,,,2023-08-16_08h54.52.373,HF_wild_card,2022.2.4,Win32,60.12506013,58bebf658c2fd60001b9767a,64d2fd46c836a06233681665,64dc7f1d7221422e1e133b9c,,,,,,,decisionTrl,resources/DR.BMP,resources/DB.BMP,Door4,-0.290104167,-0.032552083,1,0,0,0.6472,optionLeft,60,8400,4,17,0,17,0,1,,,,,,,,,,,,,,,,,,,,,,,,,,,,,,,,,,,,,,,
,,,,,,,,2023-08-16_08h54.52.373,HF_wild_card,2022.2.4,Win32,60.12506013,58bebf658c2fd60001b9767a,64d2fd46c836a06233681665,64dc7f1d7221422e1e133b9c,,,,,,,decisionTrl,resources/DY.BMP,resources/DG.BMP,WildCard_Ex,-0.292708333,-0.032552083,1,0,0,0.8804,optionLeft,5,8405,4,18,0,18,0,1,,,,,,,,,,,,,,,,,,,,,,,,,,,,,,,,,,,,,,,
,,,,,,,,2023-08-16_08h54.52.373,HF_wild_card,2022.2.4,Win32,60.12506013,58bebf658c2fd60001b9767a,64d2fd46c836a06233681665,64dc7f1d7221422e1e133b9c,,,,,,,decisionTrl,resources/DG.BMP,resources/DY.BMP,WildCard_Ex,0.358333333,-0.084635417,1,0,0,0.7029,optionRight,5,8410,4,19,0,19,0,1,,,,,,,,,,,,,,,,,,,,,,,,,,,,,,,,,,,,,,,
,,,,,,,,2023-08-16_08h54.52.373,HF_wild_card,2022.2.4,Win32,60.12506013,58bebf658c2fd60001b9767a,64d2fd46c836a06233681665,64dc7f1d7221422e1e133b9c,,,,,,,ctch,resources/DB.BMP,resources/DP.BMP,Door3,-0.3109375,-0.072916667,1,0,0,1.3867,optionLeft,70,8480,4,20,0,20,0,1,,,,,,,,,,,,,,,,,,,,,,,,,,,,,,,,,,,,,,,
,,,,,,,,2023-08-16_08h54.52.373,HF_wild_card,2022.2.4,Win32,60.12506013,58bebf658c2fd60001b9767a,64d2fd46c836a06233681665,64dc7f1d7221422e1e133b9c,,,,,,,decisionTrl,resources/DP.BMP,resources/DG.BMP,Door1,0.41953125,-0.141927083,1,0,0,8.1866,optionRight,30,8510,4,21,0,21,0,1,,,,,,,,,,,,,,,,,,,,,,,,,,,,,,,,,,,,,,,
,,,,,,,,2023-08-16_08h54.52.373,HF_wild_card,2022.2.4,Win32,60.12506013,58bebf658c2fd60001b9767a,64d2fd46c836a06233681665,64dc7f1d7221422e1e133b9c,,,,,,,sngl,resources/Empty.png,resources/DY.BMP,WildCard_Ex,0.36875,-0.135416667,1,0,0,0.8935,optionRight,5,8515,4,22,0,22,0,1,,,,,,,,,,,,,,,,,,,,,,,,,,,,,,,,,,,,,,,
,,,,,,,,2023-08-16_08h54.52.373,HF_wild_card,2022.2.4,Win32,60.12506013,58bebf658c2fd60001b9767a,64d2fd46c836a06233681665,64dc7f1d7221422e1e133b9c,,,,,,,decisionTrl,resources/DB.BMP,resources/DY.BMP,Door3,-0.32265625,-0.061197917,1,0,0,2.4589,optionLeft,70,8585,4,23,0,23,0,1,,,,,,,,,,,,,,,,,,,,,,,,,,,,,,,,,,,,,,,
,,,,,,,,2023-08-16_08h54.52.373,HF_wild_card,2022.2.4,Win32,60.12506013,58bebf658c2fd60001b9767a,64d2fd46c836a06233681665,64dc7f1d7221422e1e133b9c,,,,,,,decisionTrl,resources/DG.BMP,resources/DP.BMP,Door2,0.299739583,-0.091145833,1,0,0,7.573,optionRight,40,8625,4,24,0,24,0,1,,,,,,,,,,,,,,,,,,,,,,,,,,,,,,,,,,,,,,,
,,,,,,,,2023-08-16_08h54.52.373,HF_wild_card,2022.2.4,Win32,60.12506013,58bebf658c2fd60001b9767a,64d2fd46c836a06233681665,64dc7f1d7221422e1e133b9c,,,,,,,sngl,resources/DP.BMP,resources/Empty.png,Door2,-0.2875,-0.078125,1,0,0,0.768,optionLeft,20,8645,4,25,0,25,0,1,,,,,,,,,,,,,,,,,,,,,,,,,,,,,,,,,,,,,,,
,,,,,,,,2023-08-16_08h54.52.373,HF_wild_card,2022.2.4,Win32,60.12506013,58bebf658c2fd60001b9767a,64d2fd46c836a06233681665,64dc7f1d7221422e1e133b9c,,,,,,,ctch,resources/DR.BMP,resources/DG.BMP,Door4,-0.25234375,-0.1328125,1,0,0,1.8904,optionLeft,80,8725,4,26,0,26,0,1,,,,,,,,,,,,,,,,,,,,,,,,,,,,,,,,,,,,,,,
,,,,,,,,2023-08-16_08h54.52.373,HF_wild_card,2022.2.4,Win32,60.12506013,58bebf658c2fd60001b9767a,64d2fd46c836a06233681665,64dc7f1d7221422e1e133b9c,,,,,,,sngl,resources/DR.BMP,resources/Empty.png,Door4,-0.288802083,-0.01953125,1,0,0,0.5789,optionLeft,60,8785,4,27,0,27,0,1,,,,,,,,,,,,,,,,,,,,,,,,,,,,,,,,,,,,,,,
,,,,,,,,2023-08-16_08h54.52.373,HF_wild_card,2022.2.4,Win32,60.12506013,58bebf658c2fd60001b9767a,64d2fd46c836a06233681665,64dc7f1d7221422e1e133b9c,,,,,,,decisionTrl,resources/DP.BMP,resources/DG.BMP,Door1,0.338802083,-0.071614583,1,0,0,4.119,optionRight,30,8815,4,28,0,28,0,1,,,,,,,,,,,,,,,,,,,,,,,,,,,,,,,,,,,,,,,
,,,,,,,,2023-08-16_08h54.52.373,HF_wild_card,2022.2.4,Win32,60.12506013,58bebf658c2fd60001b9767a,64d2fd46c836a06233681665,64dc7f1d7221422e1e133b9c,,,,,,,ctch,resources/DP.BMP,resources/DB.BMP,Door3,0.397395833,-0.111979167,1,0,0,1.0132,optionRight,70,8885,4,29,0,29,0,1,,,,,,,,,,,,,,,,,,,,,,,,,,,,,,,,,,,,,,,
,,,,,,,,2023-08-16_08h54.52.373,HF_wild_card,2022.2.4,Win32,60.12506013,58bebf658c2fd60001b9767a,64d2fd46c836a06233681665,64dc7f1d7221422e1e133b9c,,,,,,,sngl,resources/DB.BMP,resources/Empty.png,Door3,-0.317447917,-0.061197917,1,0,0,0.5645,optionLeft,70,8955,4,30,0,30,0,1,,,,,,,,,,,,,,,,,,,,,,,,,,,,,,,,,,,,,,,
,,,,,,,,2023-08-16_08h54.52.373,HF_wild_card,2022.2.4,Win32,60.12506013,58bebf658c2fd60001b9767a,64d2fd46c836a06233681665,64dc7f1d7221422e1e133b9c,,,,,,,sngl,resources/Empty.png,resources/DB.BMP,Door3,0.5171875,-0.078125,1,0,0,0.5799,optionRight,70,9025,4,31,0,31,0,1,,,,,,,,,,,,,,,,,,,,,,,,,,,,,,,,,,,,,,,
,,,,,,,,2023-08-16_08h54.52.373,HF_wild_card,2022.2.4,Win32,60.12506013,58bebf658c2fd60001b9767a,64d2fd46c836a06233681665,64dc7f1d7221422e1e133b9c,,,,,,,decisionTrl,resources/DB.BMP,resources/DR.BMP,Door4,0.340104167,-0.182291667,1,0,0,1.7463,optionRight,60,9085,4,32,0,32,0,1,,,,,,,,,,,,,,,,,,,,,,,,,,,,,,,,,,,,,,,
,,,,,,,,2023-08-16_08h54.52.373,HF_wild_card,2022.2.4,Win32,60.12506013,58bebf658c2fd60001b9767a,64d2fd46c836a06233681665,64dc7f1d7221422e1e133b9c,,,,,,,decisionTrl,resources/DG.BMP,resources/DP.BMP,Door2,0.291927083,-0.119791667,1,0,0,3.0262,optionRight,40,9125,4,33,0,33,0,1,,,,,,,,,,,,,,,,,,,,,,,,,,,,,,,,,,,,,,,
,,,,,,,,2023-08-16_08h54.52.373,HF_wild_card,2022.2.4,Win32,60.12506013,58bebf658c2fd60001b9767a,64d2fd46c836a06233681665,64dc7f1d7221422e1e133b9c,,,,,,,decisionTrl,resources/DG.BMP,resources/DP.BMP,Door2,0.291927083,-0.15625,1,0,0,1.014,optionRight,20,9145,4,34,0,34,0,1,,,,,,,,,,,,,,,,,,,,,,,,,,,,,,,,,,,,,,,
,,,,,,,,2023-08-16_08h54.52.373,HF_wild_card,2022.2.4,Win32,60.12506013,58bebf658c2fd60001b9767a,64d2fd46c836a06233681665,64dc7f1d7221422e1e133b9c,,,,,,,decisionTrl,resources/DY.BMP,resources/DB.BMP,Door3,0.28671875,-0.138020833,1,0,0,3.9238,optionRight,70,9215,4,35,0,35,0,1,,,,,,,,,,,,,,,,,,,,,,,,,,,,,,,,,,,,,,,
,,,,,,,,2023-08-16_08h54.52.373,HF_wild_card,2022.2.4,Win32,60.12506013,58bebf658c2fd60001b9767a,64d2fd46c836a06233681665,64dc7f1d7221422e1e133b9c,,,,,,,decisionTrl,resources/DY.BMP,resources/DR.BMP,Door4,0.320572917,-0.153645833,1,0,0,1.0943,optionRight,60,9275,4,36,0,36,0,1,,,,,,,,,,,,,,,,,,,,,,,,,,,,,,,,,,,,,,,
,,,,,,,,2023-08-16_08h54.52.373,HF_wild_card,2022.2.4,Win32,60.12506013,58bebf658c2fd60001b9767a,64d2fd46c836a06233681665,64dc7f1d7221422e1e133b9c,,,,,,,sngl,resources/DY.BMP,resources/Empty.png,WildCard_Ex,-0.209375,-0.067708333,1,0,0,0.6227,optionLeft,5,9280,4,37,0,37,0,1,,,,,,,,,,,,,,,,,,,,,,,,,,,,,,,,,,,,,,,
,,,,,,,,2023-08-16_08h54.52.373,HF_wild_card,2022.2.4,Win32,60.12506013,58bebf658c2fd60001b9767a,64d2fd46c836a06233681665,64dc7f1d7221422e1e133b9c,,,,,,,decisionTrl,resources/DY.BMP,resources/DP.BMP,WildCard_Ex,-0.249739583,-0.135416667,1,0,0,2.0784,optionLeft,95,9375,4,38,0,38,0,1,,,,,,,,,,,,,,,,,,,,,,,,,,,,,,,,,,,,,,,
,,,,,,,,2023-08-16_08h54.52.373,HF_wild_card,2022.2.4,Win32,60.12506013,58bebf658c2fd60001b9767a,64d2fd46c836a06233681665,64dc7f1d7221422e1e133b9c,,,,,,,decisionTrl,resources/DR.BMP,resources/DB.BMP,Door3,0.299739583,-0.180989583,1,0,0,3.6083,optionRight,70,9445,4,39,0,39,0,1,,,,,,,,,,,,,,,,,,,,,,,,,,,,,,,,,,,,,,,
,,,,,,,,2023-08-16_08h54.52.373,HF_wild_card,2022.2.4,Win32,60.12506013,58bebf658c2fd60001b9767a,64d2fd46c836a06233681665,64dc7f1d7221422e1e133b9c,,,,,,,decisionTrl,resources/DR.BMP,resources/DY.BMP,Door4,-0.270572917,-0.118489583,1,0,0,2.5471,optionLeft,60,9505,4,40,0,40,0,1,,,,,,,,,,,,,,,,,,,,,,,,,,,,,,,,,,,,,,,
,,,,,,,,2023-08-16_08h54.52.373,HF_wild_card,2022.2.4,Win32,60.12506013,58bebf658c2fd60001b9767a,64d2fd46c836a06233681665,64dc7f1d7221422e1e133b9c,,,,,,,sngl,resources/DG.BMP,resources/Empty.png,Door1,-0.359114583,-0.0703125,1,0,0,0.6117,optionLeft,30,9535,4,41,0,41,0,1,,,,,,,,,,,,,,,,,,,,,,,,,,,,,,,,,,,,,,,
,,,,,,,,2023-08-16_08h54.52.373,HF_wild_card,2022.2.4,Win32,60.12506013,58bebf658c2fd60001b9767a,64d2fd46c836a06233681665,64dc7f1d7221422e1e133b9c,,,,,,,decisionTrl,resources/DB.BMP,resources/DR.BMP,Door4,0.385677083,-0.122395833,1,0,0,3.0674,optionRight,80,9615,4,42,0,42,0,1,,,,,,,,,,,,,,,,,,,,,,,,,,,,,,,,,,,,,,,
,,,,,,,,2023-08-16_08h54.52.373,HF_wild_card,2022.2.4,Win32,60.12506013,58bebf658c2fd60001b9767a,64d2fd46c836a06233681665,64dc7f1d7221422e1e133b9c,,,,,,,sngl,resources/DY.BMP,resources/Empty.png,WildCard_Ex,-0.258854167,-0.076822917,1,0,0,0.6228,optionLeft,95,9710,4,43,0,43,0,1,,,,,,,,,,,,,,,,,,,,,,,,,,,,,,,,,,,,,,,
,,,,,,,,2023-08-16_08h54.52.373,HF_wild_card,2022.2.4,Win32,60.12506013,58bebf658c2fd60001b9767a,64d2fd46c836a06233681665,64dc7f1d7221422e1e133b9c,,,,,,,,,,,,,,,,,,,,,,,,,,3,0,3,0,1,,,,,,,,,,,,,,,,,,,,,,,,,,,,,,,,,,
,,,,,,,,2023-08-16_08h54.52.373,HF_wild_card,2022.2.4,Win32,60.12506013,58bebf658c2fd60001b9767a,64d2fd46c836a06233681665,64dc7f1d7221422e1e133b9c,,,,,,,decisionTrl,resources/DR.BMP,resources/DB.BMP,Door3,0.471614583,-0.135416667,1,0,0,2.6165,optionRight,70,9780,5,0,0,0,0,1,,,,,,,,,,,,,,,,,,,,,,,,,,,,,,,,,,,,,,,
,,,,,,,,2023-08-16_08h54.52.373,HF_wild_card,2022.2.4,Win32,60.12506013,58bebf658c2fd60001b9767a,64d2fd46c836a06233681665,64dc7f1d7221422e1e133b9c,,,,,,,ctch,resources/DG.BMP,resources/DR.BMP,Door4,0.437760417,-0.14453125,1,0,0,1.0145,optionRight,60,9840,5,1,0,1,0,1,,,,,,,,,,,,,,,,,,,,,,,,,,,,,,,,,,,,,,,
,,,,,,,,2023-08-16_08h54.52.373,HF_wild_card,2022.2.4,Win32,60.12506013,58bebf658c2fd60001b9767a,64d2fd46c836a06233681665,64dc7f1d7221422e1e133b9c,,,,,,,decisionTrl,resources/DG.BMP,resources/DP.BMP,Door2,0.27890625,-0.12109375,1,0,0,2.8425,optionRight,20,9860,5,2,0,2,0,1,,,,,,,,,,,,,,,,,,,,,,,,,,,,,,,,,,,,,,,
,,,,,,,,2023-08-16_08h54.52.373,HF_wild_card,2022.2.4,Win32,60.12506013,58bebf658c2fd60001b9767a,64d2fd46c836a06233681665,64dc7f1d7221422e1e133b9c,,,,,,,decisionTrl,resources/DY.BMP,resources/DP.BMP,WildCard_Ex,-0.240625,-0.091145833,1,0,0,1.0804,optionLeft,95,9955,5,3,0,3,0,1,,,,,,,,,,,,,,,,,,,,,,,,,,,,,,,,,,,,,,,
,,,,,,,,2023-08-16_08h54.52.373,HF_wild_card,2022.2.4,Win32,60.12506013,58bebf658c2fd60001b9767a,64d2fd46c836a06233681665,64dc7f1d7221422e1e133b9c,,,,,,,sngl,resources/DG.BMP,resources/Empty.png,Door1,-0.196354167,-0.080729167,1,0,0,0.7107,optionLeft,30,9985,5,4,0,4,0,1,,,,,,,,,,,,,,,,,,,,,,,,,,,,,,,,,,,,,,,
,,,,,,,,2023-08-16_08h54.52.373,HF_wild_card,2022.2.4,Win32,60.12506013,58bebf658c2fd60001b9767a,64d2fd46c836a06233681665,64dc7f1d7221422e1e133b9c,,,,,,,decisionTrl,resources/DP.BMP,resources/DG.BMP,Door1,0.48984375,-0.15625,1,0,0,1.1263,optionRight,30,10015,5,5,0,5,0,1,,,,,,,,,,,,,,,,,,,,,,,,,,,,,,,,,,,,,,,
,,,,,,,,2023-08-16_08h54.52.373,HF_wild_card,2022.2.4,Win32,60.12506013,58bebf658c2fd60001b9767a,64d2fd46c836a06233681665,64dc7f1d7221422e1e133b9c,,,,,,,decisionTrl,resources/DR.BMP,resources/DB.BMP,Door4,-0.251041667,-0.0625,1,0,0,1.3636,optionLeft,60,10075,5,6,0,6,0,1,,,,,,,,,,,,,,,,,,,,,,,,,,,,,,,,,,,,,,,
,,,,,,,,2023-08-16_08h54.52.373,HF_wild_card,2022.2.4,Win32,60.12506013,58bebf658c2fd60001b9767a,64d2fd46c836a06233681665,64dc7f1d7221422e1e133b9c,,,,,,,decisionTrl,resources/DY.BMP,resources/DB.BMP,WildCard_Ex,-0.257552083,-0.04296875,1,0,0,2.6945,optionLeft,5,10080,5,7,0,7,0,1,,,,,,,,,,,,,,,,,,,,,,,,,,,,,,,,,,,,,,,
,,,,,,,,2023-08-16_08h54.52.373,HF_wild_card,2022.2.4,Win32,60.12506013,58bebf658c2fd60001b9767a,64d2fd46c836a06233681665,64dc7f1d7221422e1e133b9c,,,,,,,decisionTrl,resources/DB.BMP,resources/DR.BMP,Door3,-0.343489583,-0.08203125,1,0,0,1.3808,optionLeft,70,10150,5,8,0,8,0,1,,,,,,,,,,,,,,,,,,,,,,,,,,,,,,,,,,,,,,,
,,,,,,,,2023-08-16_08h54.52.373,HF_wild_card,2022.2.4,Win32,60.12506013,58bebf658c2fd60001b9767a,64d2fd46c836a06233681665,64dc7f1d7221422e1e133b9c,,,,,,,decisionTrl,resources/DY.BMP,resources/DR.BMP,Door4,0.47421875,-0.110677083,1,0,0,1.6941,optionRight,80,10230,5,9,0,9,0,1,,,,,,,,,,,,,,,,,,,,,,,,,,,,,,,,,,,,,,,
,,,,,,,,2023-08-16_08h54.52.373,HF_wild_card,2022.2.4,Win32,60.12506013,58bebf658c2fd60001b9767a,64d2fd46c836a06233681665,64dc7f1d7221422e1e133b9c,,,,,,,decisionTrl,resources/DY.BMP,resources/DG.BMP,WildCard_Ex,-0.308333333,-0.06640625,1,0,0,1.0785,optionLeft,95,10325,5,10,0,10,0,1,,,,,,,,,,,,,,,,,,,,,,,,,,,,,,,,,,,,,,,
,,,,,,,,2023-08-16_08h54.52.373,HF_wild_card,2022.2.4,Win32,60.12506013,58bebf658c2fd60001b9767a,64d2fd46c836a06233681665,64dc7f1d7221422e1e133b9c,,,,,,,sngl,resources/DP.BMP,resources/Empty.png,Door2,-0.26796875,-0.052083333,1,0,0,0.7103,optionLeft,40,10365,5,11,0,11,0,1,,,,,,,,,,,,,,,,,,,,,,,,,,,,,,,,,,,,,,,
,,,,,,,,2023-08-16_08h54.52.373,HF_wild_card,2022.2.4,Win32,60.12506013,58bebf658c2fd60001b9767a,64d2fd46c836a06233681665,64dc7f1d7221422e1e133b9c,,,,,,,ctch,resources/DP.BMP,resources/DB.BMP,Door3,0.353125,-0.126302083,1,0,0,1.6122,optionRight,70,10435,5,12,0,12,0,1,,,,,,,,,,,,,,,,,,,,,,,,,,,,,,,,,,,,,,,
,,,,,,,,2023-08-16_08h54.52.373,HF_wild_card,2022.2.4,Win32,60.12506013,58bebf658c2fd60001b9767a,64d2fd46c836a06233681665,64dc7f1d7221422e1e133b9c,,,,,,,decisionTrl,resources/DP.BMP,resources/DY.BMP,WildCard_Ex,0.350520833,-0.095052083,1,0,0,1.144,optionRight,95,10530,5,13,0,13,0,1,,,,,,,,,,,,,,,,,,,,,,,,,,,,,,,,,,,,,,,
,,,,,,,,2023-08-16_08h54.52.373,HF_wild_card,2022.2.4,Win32,60.12506013,58bebf658c2fd60001b9767a,64d2fd46c836a06233681665,64dc7f1d7221422e1e133b9c,,,,,,,decisionTrl,resources/DB.BMP,resources/DR.BMP,Door4,0.320572917,-0.17578125,1,0,0,1.0089,optionRight,80,10610,5,14,0,14,0,1,,,,,,,,,,,,,,,,,,,,,,,,,,,,,,,,,,,,,,,
,,,,,,,,2023-08-16_08h54.52.373,HF_wild_card,2022.2.4,Win32,60.12506013,58bebf658c2fd60001b9767a,64d2fd46c836a06233681665,64dc7f1d7221422e1e133b9c,,,,,,,sngl,resources/Empty.png,resources/DY.BMP,WildCard_Ex,0.327083333,-0.131510417,1,0,0,0.6589,optionRight,5,10615,5,15,0,15,0,1,,,,,,,,,,,,,,,,,,,,,,,,,,,,,,,,,,,,,,,
,,,,,,,,2023-08-16_08h54.52.373,HF_wild_card,2022.2.4,Win32,60.12506013,58bebf658c2fd60001b9767a,64d2fd46c836a06233681665,64dc7f1d7221422e1e133b9c,,,,,,,decisionTrl,resources/DG.BMP,resources/DY.BMP,WildCard_Ex,0.27109375,-0.108072917,1,0,0,0.844,optionRight,95,10710,5,16,0,16,0,1,,,,,,,,,,,,,,,,,,,,,,,,,,,,,,,,,,,,,,,
,,,,,,,,2023-08-16_08h54.52.373,HF_wild_card,2022.2.4,Win32,60.12506013,58bebf658c2fd60001b9767a,64d2fd46c836a06233681665,64dc7f1d7221422e1e133b9c,,,,,,,sngl,resources/DY.BMP,resources/Empty.png,WildCard_Ex,-0.2640625,-0.049479167,1,0,0,0.6942,optionLeft,95,10805,5,17,0,17,0,1,,,,,,,,,,,,,,,,,,,,,,,,,,,,,,,,,,,,,,,
,,,,,,,,2023-08-16_08h54.52.373,HF_wild_card,2022.2.4,Win32,60.12506013,58bebf658c2fd60001b9767a,64d2fd46c836a06233681665,64dc7f1d7221422e1e133b9c,,,,,,,sngl,resources/Empty.png,resources/DP.BMP,Door2,0.30625,-0.106770833,1,0,0,0.5943,optionRight,20,10825,5,18,0,18,0,1,,,,,,,,,,,,,,,,,,,,,,,,,,,,,,,,,,,,,,,
,,,,,,,,2023-08-16_08h54.52.373,HF_wild_card,2022.2.4,Win32,60.12506013,58bebf658c2fd60001b9767a,64d2fd46c836a06233681665,64dc7f1d7221422e1e133b9c,,,,,,,decisionTrl,resources/DP.BMP,resources/DG.BMP,Door1,0.355729167,-0.177083333,1,0,0,1.2797,optionRight,30,10855,5,19,0,19,0,1,,,,,,,,,,,,,,,,,,,,,,,,,,,,,,,,,,,,,,,
,,,,,,,,2023-08-16_08h54.52.373,HF_wild_card,2022.2.4,Win32,60.12506013,58bebf658c2fd60001b9767a,64d2fd46c836a06233681665,64dc7f1d7221422e1e133b9c,,,,,,,sngl,resources/DR.BMP,resources/Empty.png,Door4,-0.300520833,-0.06640625,1,0,0,0.5802,optionLeft,80,10935,5,20,0,20,0,1,,,,,,,,,,,,,,,,,,,,,,,,,,,,,,,,,,,,,,,
,,,,,,,,2023-08-16_08h54.52.373,HF_wild_card,2022.2.4,Win32,60.12506013,58bebf658c2fd60001b9767a,64d2fd46c836a06233681665,64dc7f1d7221422e1e133b9c,,,,,,,decisionTrl,resources/DP.BMP,resources/DG.BMP,Door2,-0.32265625,-0.088541667,1,0,0,0.9628,optionLeft,20,10955,5,21,0,21,0,1,,,,,,,,,,,,,,,,,,,,,,,,,,,,,,,,,,,,,,,
,,,,,,,,2023-08-16_08h54.52.373,HF_wild_card,2022.2.4,Win32,60.12506013,58bebf658c2fd60001b9767a,64d2fd46c836a06233681665,64dc7f1d7221422e1e133b9c,,,,,,,decisionTrl,resources/DR.BMP,resources/DB.BMP,Door4,-0.204166667,-0.053385417,1,0,0,1.2258,optionLeft,60,11015,5,22,0,22,0,1,,,,,,,,,,,,,,,,,,,,,,,,,,,,,,,,,,,,,,,
,,,,,,,,2023-08-16_08h54.52.373,HF_wild_card,2022.2.4,Win32,60.12506013,58bebf658c2fd60001b9767a,64d2fd46c836a06233681665,64dc7f1d7221422e1e133b9c,,,,,,,ctch,resources/DG.BMP,resources/DR.BMP,Door4,0.2359375,-0.106770833,1,0,0,1.3125,optionRight,80,11095,5,23,0,23,0,1,,,,,,,,,,,,,,,,,,,,,,,,,,,,,,,,,,,,,,,
,,,,,,,,2023-08-16_08h54.52.373,HF_wild_card,2022.2.4,Win32,60.12506013,58bebf658c2fd60001b9767a,64d2fd46c836a06233681665,64dc7f1d7221422e1e133b9c,,,,,,,decisionTrl,resources/DG.BMP,resources/DP.BMP,Door2,0.43515625,-0.197916667,1,0,0,1.4453,optionRight,20,11115,5,24,0,24,0,1,,,,,,,,,,,,,,,,,,,,,,,,,,,,,,,,,,,,,,,
,,,,,,,,2023-08-16_08h54.52.373,HF_wild_card,2022.2.4,Win32,60.12506013,58bebf658c2fd60001b9767a,64d2fd46c836a06233681665,64dc7f1d7221422e1e133b9c,,,,,,,ctch,resources/DP.BMP,resources/DB.BMP,Door3,0.4234375,-0.109375,1,0,0,1.1381,optionRight,70,11185,5,25,0,25,0,1,,,,,,,,,,,,,,,,,,,,,,,,,,,,,,,,,,,,,,,
,,,,,,,,2023-08-16_08h54.52.373,HF_wild_card,2022.2.4,Win32,60.12506013,58bebf658c2fd60001b9767a,64d2fd46c836a06233681665,64dc7f1d7221422e1e133b9c,,,,,,,decisionTrl,resources/DP.BMP,resources/DG.BMP,Door1,0.366145833,-0.114583333,1,0,0,2.2776,optionRight,30,11215,5,26,0,26,0,1,,,,,,,,,,,,,,,,,,,,,,,,,,,,,,,,,,,,,,,
,,,,,,,,2023-08-16_08h54.52.373,HF_wild_card,2022.2.4,Win32,60.12506013,58bebf658c2fd60001b9767a,64d2fd46c836a06233681665,64dc7f1d7221422e1e133b9c,,,,,,,sngl,resources/Empty.png,resources/DG.BMP,Door1,0.30625,-0.08984375,1,0,0,0.6279,optionRight,30,11245,5,27,0,27,0,1,,,,,,,,,,,,,,,,,,,,,,,,,,,,,,,,,,,,,,,
,,,,,,,,2023-08-16_08h54.52.373,HF_wild_card,2022.2.4,Win32,60.12506013,58bebf658c2fd60001b9767a,64d2fd46c836a06233681665,64dc7f1d7221422e1e133b9c,,,,,,,ctch,resources/DR.BMP,resources/DG.BMP,Door4,-0.219791667,-0.036458333,1,0,0,0.7768,optionLeft,60,11305,5,28,0,28,0,1,,,,,,,,,,,,,,,,,,,,,,,,,,,,,,,,,,,,,,,
,,,,,,,,2023-08-16_08h54.52.373,HF_wild_card,2022.2.4,Win32,60.12506013,58bebf658c2fd60001b9767a,64d2fd46c836a06233681665,64dc7f1d7221422e1e133b9c,,,,,,,sngl,resources/DY.BMP,resources/Empty.png,WildCard_Ex,-0.266666667,-0.03515625,1,0,0,0.4967,optionLeft,5,11310,5,29,0,29,0,1,,,,,,,,,,,,,,,,,,,,,,,,,,,,,,,,,,,,,,,
,,,,,,,,2023-08-16_08h54.52.373,HF_wild_card,2022.2.4,Win32,60.12506013,58bebf658c2fd60001b9767a,64d2fd46c836a06233681665,64dc7f1d7221422e1e133b9c,,,,,,,ctch,resources/DB.BMP,resources/DP.BMP,Door3,-0.270572917,-0.09375,1,0,0,1.176,optionLeft,70,11380,5,30,0,30,0,1,,,,,,,,,,,,,,,,,,,,,,,,,,,,,,,,,,,,,,,
,,,,,,,,2023-08-16_08h54.52.373,HF_wild_card,2022.2.4,Win32,60.12506013,58bebf658c2fd60001b9767a,64d2fd46c836a06233681665,64dc7f1d7221422e1e133b9c,,,,,,,ctch,resources/DB.BMP,resources/DP.BMP,Door3,-0.249739583,-0.110677083,1,0,0,0.6451,optionLeft,70,11450,5,31,0,31,0,1,,,,,,,,,,,,,,,,,,,,,,,,,,,,,,,,,,,,,,,
,,,,,,,,2023-08-16_08h54.52.373,HF_wild_card,2022.2.4,Win32,60.12506013,58bebf658c2fd60001b9767a,64d2fd46c836a06233681665,64dc7f1d7221422e1e133b9c,,,,,,,decisionTrl,resources/DB.BMP,resources/DR.BMP,Door4,0.259375,-0.1015625,1,0,0,0.8794,optionRight,80,11530,5,32,0,32,0,1,,,,,,,,,,,,,,,,,,,,,,,,,,,,,,,,,,,,,,,
,,,,,,,,2023-08-16_08h54.52.373,HF_wild_card,2022.2.4,Win32,60.12506013,58bebf658c2fd60001b9767a,64d2fd46c836a06233681665,64dc7f1d7221422e1e133b9c,,,,,,,decisionTrl,resources/DR.BMP,resources/DB.BMP,Door3,0.353125,-0.139322917,1,0,0,1.0974,optionRight,70,11600,5,33,0,33,0,1,,,,,,,,,,,,,,,,,,,,,,,,,,,,,,,,,,,,,,,
,,,,,,,,2023-08-16_08h54.52.373,HF_wild_card,2022.2.4,Win32,60.12506013,58bebf658c2fd60001b9767a,64d2fd46c836a06233681665,64dc7f1d7221422e1e133b9c,,,,,,,decisionTrl,resources/DB.BMP,resources/DY.BMP,Door3,-0.265364583,-0.143229167,1,0,0,2.8422,optionLeft,70,11670,5,34,0,34,0,1,,,,,,,,,,,,,,,,,,,,,,,,,,,,,,,,,,,,,,,
,,,,,,,,2023-08-16_08h54.52.373,HF_wild_card,2022.2.4,Win32,60.12506013,58bebf658c2fd60001b9767a,64d2fd46c836a06233681665,64dc7f1d7221422e1e133b9c,,,,,,,decisionTrl,resources/DB.BMP,resources/DR.BMP,Door4,0.295833333,-0.1796875,1,0,0,0.9817,optionRight,80,11750,5,35,0,35,0,1,,,,,,,,,,,,,,,,,,,,,,,,,,,,,,,,,,,,,,,
,,,,,,,,2023-08-16_08h54.52.373,HF_wild_card,2022.2.4,Win32,60.12506013,58bebf658c2fd60001b9767a,64d2fd46c836a06233681665,64dc7f1d7221422e1e133b9c,,,,,,,decisionTrl,resources/DR.BMP,resources/DY.BMP,Door4,-0.239322917,-0.07421875,1,0,0,0.9118,optionLeft,60,11810,5,36,0,36,0,1,,,,,,,,,,,,,,,,,,,,,,,,,,,,,,,,,,,,,,,
,,,,,,,,2023-08-16_08h54.52.373,HF_wild_card,2022.2.4,Win32,60.12506013,58bebf658c2fd60001b9767a,64d2fd46c836a06233681665,64dc7f1d7221422e1e133b9c,,,,,,,decisionTrl,resources/DG.BMP,resources/DP.BMP,Door1,-0.239322917,-0.100260417,1,0,0,1.5599,optionLeft,30,11840,5,37,0,37,0,1,,,,,,,,,,,,,,,,,,,,,,,,,,,,,,,,,,,,,,,
,,,,,,,,2023-08-16_08h54.52.373,HF_wild_card,2022.2.4,Win32,60.12506013,58bebf658c2fd60001b9767a,64d2fd46c836a06233681665,64dc7f1d7221422e1e133b9c,,,,,,,ctch,resources/DR.BMP,resources/DG.BMP,Door4,-0.227604167,-0.104166667,1,0,0,1.1292,optionLeft,80,11920,5,38,0,38,0,1,,,,,,,,,,,,,,,,,,,,,,,,,,,,,,,,,,,,,,,
,,,,,,,,2023-08-16_08h54.52.373,HF_wild_card,2022.2.4,Win32,60.12506013,58bebf658c2fd60001b9767a,64d2fd46c836a06233681665,64dc7f1d7221422e1e133b9c,,,,,,,sngl,resources/DB.BMP,resources/Empty.png,Door3,-0.261458333,-0.05859375,1,0,0,0.5433,optionLeft,70,11990,5,39,0,39,0,1,,,,,,,,,,,,,,,,,,,,,,,,,,,,,,,,,,,,,,,
,,,,,,,,2023-08-16_08h54.52.373,HF_wild_card,2022.2.4,Win32,60.12506013,58bebf658c2fd60001b9767a,64d2fd46c836a06233681665,64dc7f1d7221422e1e133b9c,,,,,,,sngl,resources/Empty.png,resources/DB.BMP,Door3,0.234635417,-0.08984375,1,0,0,0.6619,optionRight,70,12060,5,40,0,40,0,1,,,,,,,,,,,,,,,,,,,,,,,,,,,,,,,,,,,,,,,
,,,,,,,,2023-08-16_08h54.52.373,HF_wild_card,2022.2.4,Win32,60.12506013,58bebf658c2fd60001b9767a,64d2fd46c836a06233681665,64dc7f1d7221422e1e133b9c,,,,,,,sngl,resources/Empty.png,resources/DY.BMP,WildCard_Ex,0.215104167,-0.104166667,1,0,0,0.5458,optionRight,95,12155,5,41,0,41,0,1,,,,,,,,,,,,,,,,,,,,,,,,,,,,,,,,,,,,,,,
,,,,,,,,2023-08-16_08h54.52.373,HF_wild_card,2022.2.4,Win32,60.12506013,58bebf658c2fd60001b9767a,64d2fd46c836a06233681665,64dc7f1d7221422e1e133b9c,,,,,,,sngl,resources/Empty.png,resources/DR.BMP,Door4,0.44296875,-0.154947917,1,0,0,0.595,optionRight,60,12215,5,42,0,42,0,1,,,,,,,,,,,,,,,,,,,,,,,,,,,,,,,,,,,,,,,
,,,,,,,,2023-08-16_08h54.52.373,HF_wild_card,2022.2.4,Win32,60.12506013,58bebf658c2fd60001b9767a,64d2fd46c836a06233681665,64dc7f1d7221422e1e133b9c,,,,,,,decisionTrl,resources/DG.BMP,resources/DP.BMP,Door1,-0.29921875,-0.100260417,1,0,0,2.2756,optionLeft,30,12245,5,43,0,43,0,1,,,,,,,,,,,,,,,,,,,,,,,,,,,,,,,,,,,,,,,
,,,,,,,,2023-08-16_08h54.52.373,HF_wild_card,2022.2.4,Win32,60.12506013,58bebf658c2fd60001b9767a,64d2fd46c836a06233681665,64dc7f1d7221422e1e133b9c,,,,,,,,,,,,,,,,,,,,,,,,,,4,0,4,0,1,,,,,,,,,,,,,,,,,,,,,,,,,,,,,,,,,,
,,,,,,,,2023-08-16_08h54.52.373,HF_wild_card,2022.2.4,Win32,60.12506013,58bebf658c2fd60001b9767a,64d2fd46c836a06233681665,64dc7f1d7221422e1e133b9c,,,,,,,decisionTrl,resources/DB.BMP,resources/DR.BMP,Door4,0.342708333,-0.180989583,1,0,0,4.4993,optionRight,60,12305,6,0,0,0,0,1,,,,,,,,,,,,,,,,,,,,,,,,,,,,,,,,,,,,,,,
,,,,,,,,2023-08-16_08h54.52.373,HF_wild_card,2022.2.4,Win32,60.12506013,58bebf658c2fd60001b9767a,64d2fd46c836a06233681665,64dc7f1d7221422e1e133b9c,,,,,,,sngl,resources/DY.BMP,resources/Empty.png,WildCard_Ex,-0.37734375,-0.084635417,1,0,0,0.6952,optionLeft,5,12310,6,1,0,1,0,1,,,,,,,,,,,,,,,,,,,,,,,,,,,,,,,,,,,,,,,
,,,,,,,,2023-08-16_08h54.52.373,HF_wild_card,2022.2.4,Win32,60.12506013,58bebf658c2fd60001b9767a,64d2fd46c836a06233681665,64dc7f1d7221422e1e133b9c,,,,,,,sngl,resources/Empty.png,resources/DG.BMP,Door1,0.4703125,-0.1015625,1,0,0,0.6146,optionRight,30,12340,6,2,0,2,0,1,,,,,,,,,,,,,,,,,,,,,,,,,,,,,,,,,,,,,,,
,,,,,,,,2023-08-16_08h54.52.373,HF_wild_card,2022.2.4,Win32,60.12506013,58bebf658c2fd60001b9767a,64d2fd46c836a06233681665,64dc7f1d7221422e1e133b9c,,,,,,,ctch,resources/DP.BMP,resources/DB.BMP,Door3,0.41171875,-0.17578125,1,0,0,0.8289,optionRight,70,12410,6,3,0,3,0,1,,,,,,,,,,,,,,,,,,,,,,,,,,,,,,,,,,,,,,,
,,,,,,,,2023-08-16_08h54.52.373,HF_wild_card,2022.2.4,Win32,60.12506013,58bebf658c2fd60001b9767a,64d2fd46c836a06233681665,64dc7f1d7221422e1e133b9c,,,,,,,decisionTrl,resources/DR.BMP,resources/DB.BMP,Door3,0.418229167,-0.130208333,1,0,0,0.8463,optionRight,70,12480,6,4,0,4,0,1,,,,,,,,,,,,,,,,,,,,,,,,,,,,,,,,,,,,,,,
,,,,,,,,2023-08-16_08h54.52.373,HF_wild_card,2022.2.4,Win32,60.12506013,58bebf658c2fd60001b9767a,64d2fd46c836a06233681665,64dc7f1d7221422e1e133b9c,,,,,,,decisionTrl,resources/DY.BMP,resources/DB.BMP,Door3,0.384375,-0.190104167,1,0,0,1.3599,optionRight,70,12550,6,5,0,5,0,1,,,,,,,,,,,,,,,,,,,,,,,,,,,,,,,,,,,,,,,
,,,,,,,,2023-08-16_08h54.52.373,HF_wild_card,2022.2.4,Win32,60.12506013,58bebf658c2fd60001b9767a,64d2fd46c836a06233681665,64dc7f1d7221422e1e133b9c,,,,,,,sngl,resources/Empty.png,resources/DR.BMP,Door4,0.469010417,-0.098958333,1,0,0,0.6421,optionRight,80,12630,6,6,0,6,0,1,,,,,,,,,,,,,,,,,,,,,,,,,,,,,,,,,,,,,,,
,,,,,,,,2023-08-16_08h54.52.373,HF_wild_card,2022.2.4,Win32,60.12506013,58bebf658c2fd60001b9767a,64d2fd46c836a06233681665,64dc7f1d7221422e1e133b9c,,,,,,,decisionTrl,resources/DR.BMP,resources/DB.BMP,Door4,-0.433333333,-0.098958333,1,0,0,2.8304,optionLeft,60,12690,6,7,0,7,0,1,,,,,,,,,,,,,,,,,,,,,,,,,,,,,,,,,,,,,,,
,,,,,,,,2023-08-16_08h54.52.373,HF_wild_card,2022.2.4,Win32,60.12506013,58bebf658c2fd60001b9767a,64d2fd46c836a06233681665,64dc7f1d7221422e1e133b9c,,,,,,,ctch,resources/DR.BMP,resources/DG.BMP,Door4,-0.390364583,-0.06640625,1,0,0,0.7779,optionLeft,80,12770,6,8,0,8,0,1,,,,,,,,,,,,,,,,,,,,,,,,,,,,,,,,,,,,,,,
,,,,,,,,2023-08-16_08h54.52.373,HF_wild_card,2022.2.4,Win32,60.12506013,58bebf658c2fd60001b9767a,64d2fd46c836a06233681665,64dc7f1d7221422e1e133b9c,,,,,,,decisionTrl,resources/DP.BMP,resources/DG.BMP,Door1,0.51328125,-0.154947917,1,0,0,0.8609,optionRight,30,12800,6,9,0,9,0,1,,,,,,,,,,,,,,,,,,,,,,,,,,,,,,,,,,,,,,,
,,,,,,,,2023-08-16_08h54.52.373,HF_wild_card,2022.2.4,Win32,60.12506013,58bebf658c2fd60001b9767a,64d2fd46c836a06233681665,64dc7f1d7221422e1e133b9c,,,,,,,decisionTrl,resources/DG.BMP,resources/DY.BMP,WildCard_Ex,0.455989583,-0.151041667,1,0,0,0.6778,optionRight,95,12895,6,10,0,10,0,1,,,,,,,,,,,,,,,,,,,,,,,,,,,,,,,,,,,,,,,
,,,,,,,,2023-08-16_08h54.52.373,HF_wild_card,2022.2.4,Win32,60.12506013,58bebf658c2fd60001b9767a,64d2fd46c836a06233681665,64dc7f1d7221422e1e133b9c,,,,,,,sngl,resources/Empty.png,resources/DB.BMP,Door3,0.472916667,-0.127604167,1,0,0,0.5562,optionRight,70,12965,6,11,0,11,0,1,,,,,,,,,,,,,,,,,,,,,,,,,,,,,,,,,,,,,,,
,,,,,,,,2023-08-16_08h54.52.373,HF_wild_card,2022.2.4,Win32,60.12506013,58bebf658c2fd60001b9767a,64d2fd46c836a06233681665,64dc7f1d7221422e1e133b9c,,,,,,,decisionTrl,resources/DY.BMP,resources/DG.BMP,WildCard_Ex,-0.419010417,-0.04296875,1,0,0,0.6422,optionLeft,5,12970,6,12,0,12,0,1,,,,,,,,,,,,,,,,,,,,,,,,,,,,,,,,,,,,,,,
,,,,,,,,2023-08-16_08h54.52.373,HF_wild_card,2022.2.4,Win32,60.12506013,58bebf658c2fd60001b9767a,64d2fd46c836a06233681665,64dc7f1d7221422e1e133b9c,,,,,,,ctch,resources/DB.BMP,resources/DP.BMP,Door3,-0.29140625,-0.12890625,1,0,0,0.8827,optionLeft,70,13040,6,13,0,13,0,1,,,,,,,,,,,,,,,,,,,,,,,,,,,,,,,,,,,,,,,
,,,,,,,,2023-08-16_08h54.52.373,HF_wild_card,2022.2.4,Win32,60.12506013,58bebf658c2fd60001b9767a,64d2fd46c836a06233681665,64dc7f1d7221422e1e133b9c,,,,,,,decisionTrl,resources/DP.BMP,resources/DY.BMP,WildCard_Ex,0.36875,-0.096354167,1,0,0,0.8646,optionRight,95,13135,6,14,0,14,0,1,,,,,,,,,,,,,,,,,,,,,,,,,,,,,,,,,,,,,,,
,,,,,,,,2023-08-16_08h54.52.373,HF_wild_card,2022.2.4,Win32,60.12506013,58bebf658c2fd60001b9767a,64d2fd46c836a06233681665,64dc7f1d7221422e1e133b9c,,,,,,,decisionTrl,resources/DR.BMP,resources/DB.BMP,Door4,-0.266666667,-0.069010417,1,0,0,0.7963,optionLeft,60,13195,6,15,0,15,0,1,,,,,,,,,,,,,,,,,,,,,,,,,,,,,,,,,,,,,,,
,,,,,,,,2023-08-16_08h54.52.373,HF_wild_card,2022.2.4,Win32,60.12506013,58bebf658c2fd60001b9767a,64d2fd46c836a06233681665,64dc7f1d7221422e1e133b9c,,,,,,,ctch,resources/DR.BMP,resources/DG.BMP,Door4,-0.320052083,-0.059895833,1,0,0,1.5304,optionLeft,60,13255,6,16,0,16,0,1,,,,,,,,,,,,,,,,,,,,,,,,,,,,,,,,,,,,,,,
,,,,,,,,2023-08-16_08h54.52.373,HF_wild_card,2022.2.4,Win32,60.12506013,58bebf658c2fd60001b9767a,64d2fd46c836a06233681665,64dc7f1d7221422e1e133b9c,,,,,,,sngl,resources/DG.BMP,resources/Empty.png,Door1,-0.24453125,-0.048177083,1,0,0,0.6376,optionLeft,30,13285,6,17,0,17,0,1,,,,,,,,,,,,,,,,,,,,,,,,,,,,,,,,,,,,,,,
,,,,,,,,2023-08-16_08h54.52.373,HF_wild_card,2022.2.4,Win32,60.12506013,58bebf658c2fd60001b9767a,64d2fd46c836a06233681665,64dc7f1d7221422e1e133b9c,,,,,,,decisionTrl,resources/DR.BMP,resources/DB.BMP,Door4,-0.241927083,-0.08984375,1,0,0,0.7256,optionLeft,80,13365,6,18,0,18,0,1,,,,,,,,,,,,,,,,,,,,,,,,,,,,,,,,,,,,,,,
,,,,,,,,2023-08-16_08h54.52.373,HF_wild_card,2022.2.4,Win32,60.12506013,58bebf658c2fd60001b9767a,64d2fd46c836a06233681665,64dc7f1d7221422e1e133b9c,,,,,,,decisionTrl,resources/DB.BMP,resources/DR.BMP,Door4,0.273697917,-0.067708333,1,0,0,0.6468,optionRight,80,13445,6,19,0,19,0,1,,,,,,,,,,,,,,,,,,,,,,,,,,,,,,,,,,,,,,,
,,,,,,,,2023-08-16_08h54.52.373,HF_wild_card,2022.2.4,Win32,60.12506013,58bebf658c2fd60001b9767a,64d2fd46c836a06233681665,64dc7f1d7221422e1e133b9c,,,,,,,decisionTrl,resources/DB.BMP,resources/DR.BMP,Door4,0.4390625,-0.125,1,0,0,0.687,optionRight,80,13525,6,20,0,20,0,1,,,,,,,,,,,,,,,,,,,,,,,,,,,,,,,,,,,,,,,
,,,,,,,,2023-08-16_08h54.52.373,HF_wild_card,2022.2.4,Win32,60.12506013,58bebf658c2fd60001b9767a,64d2fd46c836a06233681665,64dc7f1d7221422e1e133b9c,,,,,,,decisionTrl,resources/DP.BMP,resources/DG.BMP,Door1,0.4078125,-0.157552083,1,0,0,5.0093,optionRight,30,13555,6,21,0,21,0,1,,,,,,,,,,,,,,,,,,,,,,,,,,,,,,,,,,,,,,,
,,,,,,,,2023-08-16_08h54.52.373,HF_wild_card,2022.2.4,Win32,60.12506013,58bebf658c2fd60001b9767a,64d2fd46c836a06233681665,64dc7f1d7221422e1e133b9c,,,,,,,sngl,resources/DB.BMP,resources/Empty.png,Door3,-0.2484375,-0.04296875,1,0,0,0.5463,optionLeft,70,13625,6,22,0,22,0,1,,,,,,,,,,,,,,,,,,,,,,,,,,,,,,,,,,,,,,,
,,,,,,,,2023-08-16_08h54.52.373,HF_wild_card,2022.2.4,Win32,60.12506013,58bebf658c2fd60001b9767a,64d2fd46c836a06233681665,64dc7f1d7221422e1e133b9c,,,,,,,decisionTrl,resources/DY.BMP,resources/DP.BMP,WildCard_Ex,-0.26796875,-0.0546875,1,0,0,0.8566,optionLeft,5,13630,6,23,0,23,0,1,,,,,,,,,,,,,,,,,,,,,,,,,,,,,,,,,,,,,,,
,,,,,,,,2023-08-16_08h54.52.373,HF_wild_card,2022.2.4,Win32,60.12506013,58bebf658c2fd60001b9767a,64d2fd46c836a06233681665,64dc7f1d7221422e1e133b9c,,,,,,,decisionTrl,resources/DG.BMP,resources/DP.BMP,Door1,-0.25625,-0.1171875,1,0,0,1.4132,optionLeft,30,13660,6,24,0,24,0,1,,,,,,,,,,,,,,,,,,,,,,,,,,,,,,,,,,,,,,,
,,,,,,,,2023-08-16_08h54.52.373,HF_wild_card,2022.2.4,Win32,60.12506013,58bebf658c2fd60001b9767a,64d2fd46c836a06233681665,64dc7f1d7221422e1e133b9c,,,,,,,decisionTrl,resources/DG.BMP,resources/DP.BMP,Door1,-0.215885417,-0.076822917,1,0,0,0.7905,optionLeft,30,13690,6,25,0,25,0,1,,,,,,,,,,,,,,,,,,,,,,,,,,,,,,,,,,,,,,,
,,,,,,,,2023-08-16_08h54.52.373,HF_wild_card,2022.2.4,Win32,60.12506013,58bebf658c2fd60001b9767a,64d2fd46c836a06233681665,64dc7f1d7221422e1e133b9c,,,,,,,ctch,resources/DP.BMP,resources/DB.BMP,Door3,0.511979167,-0.166666667,1,0,0,1.4225,optionRight,70,13760,6,26,0,26,0,1,,,,,,,,,,,,,,,,,,,,,,,,,,,,,,,,,,,,,,,
,,,,,,,,2023-08-16_08h54.52.373,HF_wild_card,2022.2.4,Win32,60.12506013,58bebf658c2fd60001b9767a,64d2fd46c836a06233681665,64dc7f1d7221422e1e133b9c,,,,,,,ctch,resources/DG.BMP,resources/DR.BMP,Door4,0.336197917,-0.140625,1,0,0,1.322,optionRight,60,13820,6,27,0,27,0,1,,,,,,,,,,,,,,,,,,,,,,,,,,,,,,,,,,,,,,,
,,,,,,,,2023-08-16_08h54.52.373,HF_wild_card,2022.2.4,Win32,60.12506013,58bebf658c2fd60001b9767a,64d2fd46c836a06233681665,64dc7f1d7221422e1e133b9c,,,,,,,decisionTrl,resources/DG.BMP,resources/DP.BMP,Door1,-0.18203125,-0.084635417,1,0,0,0.9894,optionLeft,30,13850,6,28,0,28,0,1,,,,,,,,,,,,,,,,,,,,,,,,,,,,,,,,,,,,,,,
,,,,,,,,2023-08-16_08h54.52.373,HF_wild_card,2022.2.4,Win32,60.12506013,58bebf658c2fd60001b9767a,64d2fd46c836a06233681665,64dc7f1d7221422e1e133b9c,,,,,,,sngl,resources/DR.BMP,resources/Empty.png,Door4,-0.4828125,-0.122395833,1,0,0,0.5276,optionLeft,60,13910,6,29,0,29,0,1,,,,,,,,,,,,,,,,,,,,,,,,,,,,,,,,,,,,,,,
,,,,,,,,2023-08-16_08h54.52.373,HF_wild_card,2022.2.4,Win32,60.12506013,58bebf658c2fd60001b9767a,64d2fd46c836a06233681665,64dc7f1d7221422e1e133b9c,,,,,,,decisionTrl,resources/DP.BMP,resources/DG.BMP,Door1,0.32578125,-0.16796875,1,0,0,2.0289,optionRight,30,13940,6,30,0,30,0,1,,,,,,,,,,,,,,,,,,,,,,,,,,,,,,,,,,,,,,,
,,,,,,,,2023-08-16_08h54.52.373,HF_wild_card,2022.2.4,Win32,60.12506013,58bebf658c2fd60001b9767a,64d2fd46c836a06233681665,64dc7f1d7221422e1e133b9c,,,,,,,decisionTrl,resources/DB.BMP,resources/DY.BMP,Door3,-0.23671875,-0.09375,1,0,0,2.3281,optionLeft,70,14010,6,31,0,31,0,1,,,,,,,,,,,,,,,,,,,,,,,,,,,,,,,,,,,,,,,
,,,,,,,,2023-08-16_08h54.52.373,HF_wild_card,2022.2.4,Win32,60.12506013,58bebf658c2fd60001b9767a,64d2fd46c836a06233681665,64dc7f1d7221422e1e133b9c,,,,,,,ctch,resources/DG.BMP,resources/DR.BMP,Door4,0.2828125,-0.131510417,1,0,0,0.8596,optionRight,80,14090,6,32,0,32,0,1,,,,,,,,,,,,,,,,,,,,,,,,,,,,,,,,,,,,,,,
,,,,,,,,2023-08-16_08h54.52.373,HF_wild_card,2022.2.4,Win32,60.12506013,58bebf658c2fd60001b9767a,64d2fd46c836a06233681665,64dc7f1d7221422e1e133b9c,,,,,,,sngl,resources/Empty.png,resources/DP.BMP,Door2,0.26328125,-0.119791667,1,0,0,0.8821,optionRight,40,14130,6,33,0,33,0,1,,,,,,,,,,,,,,,,,,,,,,,,,,,,,,,,,,,,,,,
,,,,,,,,2023-08-16_08h54.52.373,HF_wild_card,2022.2.4,Win32,60.12506013,58bebf658c2fd60001b9767a,64d2fd46c836a06233681665,64dc7f1d7221422e1e133b9c,,,,,,,decisionTrl,resources/DR.BMP,resources/DY.BMP,WildCard_Ex,0.308854167,-0.174479167,1,0,0,0.8291,optionRight,95,14225,6,34,0,34,0,1,,,,,,,,,,,,,,,,,,,,,,,,,,,,,,,,,,,,,,,
,,,,,,,,2023-08-16_08h54.52.373,HF_wild_card,2022.2.4,Win32,60.12506013,58bebf658c2fd60001b9767a,64d2fd46c836a06233681665,64dc7f1d7221422e1e133b9c,,,,,,,sngl,resources/DY.BMP,resources/Empty.png,WildCard_Ex,-0.313541667,-0.05859375,1,0,0,9.7889,optionLeft,95,14320,6,35,0,35,0,1,,,,,,,,,,,,,,,,,,,,,,,,,,,,,,,,,,,,,,,
,,,,,,,,2023-08-16_08h54.52.373,HF_wild_card,2022.2.4,Win32,60.12506013,58bebf658c2fd60001b9767a,64d2fd46c836a06233681665,64dc7f1d7221422e1e133b9c,,,,,,,decisionTrl,resources/DY.BMP,resources/DR.BMP,WildCard_Ex,-0.296614583,-0.119791667,1,0,0,2.1584,optionLeft,95,14415,6,36,0,36,0,1,,,,,,,,,,,,,,,,,,,,,,,,,,,,,,,,,,,,,,,
,,,,,,,,2023-08-16_08h54.52.373,HF_wild_card,2022.2.4,Win32,60.12506013,58bebf658c2fd60001b9767a,64d2fd46c836a06233681665,64dc7f1d7221422e1e133b9c,,,,,,,decisionTrl,resources/DG.BMP,resources/DP.BMP,Door1,-0.2953125,-0.09375,1,0,0,1.3293,optionLeft,30,14445,6,37,0,37,0,1,,,,,,,,,,,,,,,,,,,,,,,,,,,,,,,,,,,,,,,
,,,,,,,,2023-08-16_08h54.52.373,HF_wild_card,2022.2.4,Win32,60.12506013,58bebf658c2fd60001b9767a,64d2fd46c836a06233681665,64dc7f1d7221422e1e133b9c,,,,,,,decisionTrl,resources/DB.BMP,resources/DR.BMP,Door4,0.315364583,-0.098958333,1,0,0,0.9106,optionRight,80,14525,6,38,0,38,0,1,,,,,,,,,,,,,,,,,,,,,,,,,,,,,,,,,,,,,,,
,,,,,,,,2023-08-16_08h54.52.373,HF_wild_card,2022.2.4,Win32,60.12506013,58bebf658c2fd60001b9767a,64d2fd46c836a06233681665,64dc7f1d7221422e1e133b9c,,,,,,,decisionTrl,resources/DP.BMP,resources/DG.BMP,Door1,0.45859375,-0.153645833,1,0,0,1.7884,optionRight,30,14555,6,39,0,39,0,1,,,,,,,,,,,,,,,,,,,,,,,,,,,,,,,,,,,,,,,
,,,,,,,,2023-08-16_08h54.52.373,HF_wild_card,2022.2.4,Win32,60.12506013,58bebf658c2fd60001b9767a,64d2fd46c836a06233681665,64dc7f1d7221422e1e133b9c,,,,,,,sngl,resources/Empty.png,resources/DY.BMP,WildCard_Ex,0.276302083,-0.127604167,1,0,0,1.0438,optionRight,95,14650,6,40,0,40,0,1,,,,,,,,,,,,,,,,,,,,,,,,,,,,,,,,,,,,,,,
,,,,,,,,2023-08-16_08h54.52.373,HF_wild_card,2022.2.4,Win32,60.12506013,58bebf658c2fd60001b9767a,64d2fd46c836a06233681665,64dc7f1d7221422e1e133b9c,,,,,,,sngl,resources/DP.BMP,resources/Empty.png,Door2,-0.230208333,-0.0390625,1,0,0,0.5238,optionLeft,20,14670,6,41,0,41,0,1,,,,,,,,,,,,,,,,,,,,,,,,,,,,,,,,,,,,,,,
,,,,,,,,2023-08-16_08h54.52.373,HF_wild_card,2022.2.4,Win32,60.12506013,58bebf658c2fd60001b9767a,64d2fd46c836a06233681665,64dc7f1d7221422e1e133b9c,,,,,,,sngl,resources/Empty.png,resources/DY.BMP,WildCard_Ex,0.260677083,-0.095052083,1,0,0,0.622,optionRight,5,14675,6,42,0,42,0,1,,,,,,,,,,,,,,,,,,,,,,,,,,,,,,,,,,,,,,,
,,,,,,,,2023-08-16_08h54.52.373,HF_wild_card,2022.2.4,Win32,60.12506013,58bebf658c2fd60001b9767a,64d2fd46c836a06233681665,64dc7f1d7221422e1e133b9c,,,,,,,ctch,resources/DB.BMP,resources/DP.BMP,Door3,-0.2328125,-0.065104167,1,0,0,1.1403,optionLeft,70,14745,6,43,0,43,0,1,,,,,,,,,,,,,,,,,,,,,,,,,,,,,,,,,,,,,,,
,,,,,,,,2023-08-16_08h54.52.373,HF_wild_card,2022.2.4,Win32,60.12506013,58bebf658c2fd60001b9767a,64d2fd46c836a06233681665,64dc7f1d7221422e1e133b9c,,,,,,,,,,,,,,,,,,,,,,,,,,5,0,5,0,1,,,,,,,,,,,,,,,,,,,,,,,,,,,,,,,,,,
,,,,,,,,2023-08-16_08h54.52.373,HF_wild_card,2022.2.4,Win32,60.12506013,58bebf658c2fd60001b9767a,64d2fd46c836a06233681665,64dc7f1d7221422e1e133b9c,,,,,,,ctch,resources/DB.BMP,resources/DP.BMP,Door3,-0.191145833,-0.092447917,1,0,0,0.946,optionLeft,70,14815,7,0,0,0,0,1,,,,,,,,,,,,,,,,,,,,,,,,,,,,,,,,,,,,,,,
,,,,,,,,2023-08-16_08h54.52.373,HF_wild_card,2022.2.4,Win32,60.12506013,58bebf658c2fd60001b9767a,64d2fd46c836a06233681665,64dc7f1d7221422e1e133b9c,,,,,,,decisionTrl,resources/DR.BMP,resources/DB.BMP,Door4,-0.288802083,-0.08203125,1,0,0,1.4467,optionLeft,80,14895,7,1,0,1,0,1,,,,,,,,,,,,,,,,,,,,,,,,,,,,,,,,,,,,,,,
,,,,,,,,2023-08-16_08h54.52.373,HF_wild_card,2022.2.4,Win32,60.12506013,58bebf658c2fd60001b9767a,64d2fd46c836a06233681665,64dc7f1d7221422e1e133b9c,,,,,,,decisionTrl,resources/DR.BMP,resources/DB.BMP,Door4,-0.2484375,-0.092447917,1,0,0,0.7308,optionLeft,60,14955,7,2,0,2,0,1,,,,,,,,,,,,,,,,,,,,,,,,,,,,,,,,,,,,,,,
,,,,,,,,2023-08-16_08h54.52.373,HF_wild_card,2022.2.4,Win32,60.12506013,58bebf658c2fd60001b9767a,64d2fd46c836a06233681665,64dc7f1d7221422e1e133b9c,,,,,,,decisionTrl,resources/DP.BMP,resources/DG.BMP,Door1,0.398697917,-0.135416667,1,0,0,1.1071,optionRight,30,14985,7,3,0,3,0,1,,,,,,,,,,,,,,,,,,,,,,,,,,,,,,,,,,,,,,,
,,,,,,,,2023-08-16_08h54.52.373,HF_wild_card,2022.2.4,Win32,60.12506013,58bebf658c2fd60001b9767a,64d2fd46c836a06233681665,64dc7f1d7221422e1e133b9c,,,,,,,ctch,resources/DB.BMP,resources/DP.BMP,Door3,-0.261458333,-0.111979167,1,0,0,0.8442,optionLeft,70,15055,7,4,0,4,0,1,,,,,,,,,,,,,,,,,,,,,,,,,,,,,,,,,,,,,,,
,,,,,,,,2023-08-16_08h54.52.373,HF_wild_card,2022.2.4,Win32,60.12506013,58bebf658c2fd60001b9767a,64d2fd46c836a06233681665,64dc7f1d7221422e1e133b9c,,,,,,,decisionTrl,resources/DP.BMP,resources/DG.BMP,Door1,0.303645833,-0.125,1,0,0,2.2129,optionRight,30,15085,7,5,0,5,0,1,,,,,,,,,,,,,,,,,,,,,,,,,,,,,,,,,,,,,,,
,,,,,,,,2023-08-16_08h54.52.373,HF_wild_card,2022.2.4,Win32,60.12506013,58bebf658c2fd60001b9767a,64d2fd46c836a06233681665,64dc7f1d7221422e1e133b9c,,,,,,,decisionTrl,resources/DG.BMP,resources/DP.BMP,Door1,-0.363020833,-0.09375,1,0,0,1.4163,optionLeft,30,15115,7,6,0,6,0,1,,,,,,,,,,,,,,,,,,,,,,,,,,,,,,,,,,,,,,,
,,,,,,,,2023-08-16_08h54.52.373,HF_wild_card,2022.2.4,Win32,60.12506013,58bebf658c2fd60001b9767a,64d2fd46c836a06233681665,64dc7f1d7221422e1e133b9c,,,,,,,decisionTrl,resources/DG.BMP,resources/DP.BMP,Door2,0.428645833,-0.075520833,1,0,0,1.9429,optionRight,20,15135,7,7,0,7,0,1,,,,,,,,,,,,,,,,,,,,,,,,,,,,,,,,,,,,,,,
,,,,,,,,2023-08-16_08h54.52.373,HF_wild_card,2022.2.4,Win32,60.12506013,58bebf658c2fd60001b9767a,64d2fd46c836a06233681665,64dc7f1d7221422e1e133b9c,,,,,,,decisionTrl,resources/DP.BMP,resources/DG.BMP,Door1,0.383072917,-0.114583333,1,0,0,1.2275,optionRight,30,15165,7,8,0,8,0,1,,,,,,,,,,,,,,,,,,,,,,,,,,,,,,,,,,,,,,,
,,,,,,,,2023-08-16_08h54.52.373,HF_wild_card,2022.2.4,Win32,60.12506013,58bebf658c2fd60001b9767a,64d2fd46c836a06233681665,64dc7f1d7221422e1e133b9c,,,,,,,decisionTrl,resources/DG.BMP,resources/DP.BMP,Door2,0.312760417,-0.15234375,1,0,0,2.0637,optionRight,40,15205,7,9,0,9,0,1,,,,,,,,,,,,,,,,,,,,,,,,,,,,,,,,,,,,,,,
,,,,,,,,2023-08-16_08h54.52.373,HF_wild_card,2022.2.4,Win32,60.12506013,58bebf658c2fd60001b9767a,64d2fd46c836a06233681665,64dc7f1d7221422e1e133b9c,,,,,,,ctch,resources/DG.BMP,resources/DR.BMP,Door4,0.37265625,-0.154947917,1,0,0,1.1254,optionRight,60,15265,7,10,0,10,0,1,,,,,,,,,,,,,,,,,,,,,,,,,,,,,,,,,,,,,,,
,,,,,,,,2023-08-16_08h54.52.373,HF_wild_card,2022.2.4,Win32,60.12506013,58bebf658c2fd60001b9767a,64d2fd46c836a06233681665,64dc7f1d7221422e1e133b9c,,,,,,,decisionTrl,resources/DG.BMP,resources/DP.BMP,Door2,0.46640625,-0.165364583,1,0,0,1.534,optionRight,40,15305,7,11,0,11,0,1,,,,,,,,,,,,,,,,,,,,,,,,,,,,,,,,,,,,,,,
,,,,,,,,2023-08-16_08h54.52.373,HF_wild_card,2022.2.4,Win32,60.12506013,58bebf658c2fd60001b9767a,64d2fd46c836a06233681665,64dc7f1d7221422e1e133b9c,,,,,,,decisionTrl,resources/DB.BMP,resources/DR.BMP,Door4,0.321875,-0.154947917,1,0,0,1.8645,optionRight,80,15385,7,12,0,12,0,1,,,,,,,,,,,,,,,,,,,,,,,,,,,,,,,,,,,,,,,
,,,,,,,,2023-08-16_08h54.52.373,HF_wild_card,2022.2.4,Win32,60.12506013,58bebf658c2fd60001b9767a,64d2fd46c836a06233681665,64dc7f1d7221422e1e133b9c,,,,,,,decisionTrl,resources/DG.BMP,resources/DP.BMP,Door2,0.344010417,-0.161458333,1,0,0,1.3206,optionRight,20,15405,7,13,0,13,0,1,,,,,,,,,,,,,,,,,,,,,,,,,,,,,,,,,,,,,,,
,,,,,,,,2023-08-16_08h54.52.373,HF_wild_card,2022.2.4,Win32,60.12506013,58bebf658c2fd60001b9767a,64d2fd46c836a06233681665,64dc7f1d7221422e1e133b9c,,,,,,,ctch,resources/DP.BMP,resources/DB.BMP,Door3,0.353125,-0.15234375,1,0,0,1.1463,optionRight,70,15475,7,14,0,14,0,1,,,,,,,,,,,,,,,,,,,,,,,,,,,,,,,,,,,,,,,
,,,,,,,,2023-08-16_08h54.52.373,HF_wild_card,2022.2.4,Win32,60.12506013,58bebf658c2fd60001b9767a,64d2fd46c836a06233681665,64dc7f1d7221422e1e133b9c,,,,,,,decisionTrl,resources/DP.BMP,resources/DG.BMP,Door1,0.475520833,-0.149739583,1,0,0,4.0114,optionRight,30,15505,7,15,0,15,0,1,,,,,,,,,,,,,,,,,,,,,,,,,,,,,,,,,,,,,,,
,,,,,,,,2023-08-16_08h54.52.373,HF_wild_card,2022.2.4,Win32,60.12506013,58bebf658c2fd60001b9767a,64d2fd46c836a06233681665,64dc7f1d7221422e1e133b9c,,,,,,,decisionTrl,resources/DB.BMP,resources/DR.BMP,Door4,0.383072917,-0.125,1,0,0,1.1462,optionRight,80,15585,7,16,0,16,0,1,,,,,,,,,,,,,,,,,,,,,,,,,,,,,,,,,,,,,,,
,,,,,,,,2023-08-16_08h54.52.373,HF_wild_card,2022.2.4,Win32,60.12506013,58bebf658c2fd60001b9767a,64d2fd46c836a06233681665,64dc7f1d7221422e1e133b9c,,,,,,,decisionTrl,resources/DB.BMP,resources/DR.BMP,Door4,0.31796875,-0.118489583,1,0,0,1.0307,optionRight,80,15665,7,17,0,17,0,1,,,,,,,,,,,,,,,,,,,,,,,,,,,,,,,,,,,,,,,
,,,,,,,,2023-08-16_08h54.52.373,HF_wild_card,2022.2.4,Win32,60.12506013,58bebf658c2fd60001b9767a,64d2fd46c836a06233681665,64dc7f1d7221422e1e133b9c,,,,,,,decisionTrl,resources/DR.BMP,resources/DB.BMP,Door3,0.32578125,-0.118489583,1,0,0,3.5431,optionRight,70,15735,7,18,0,18,0,1,,,,,,,,,,,,,,,,,,,,,,,,,,,,,,,,,,,,,,,
,,,,,,,,2023-08-16_08h54.52.373,HF_wild_card,2022.2.4,Win32,60.12506013,58bebf658c2fd60001b9767a,64d2fd46c836a06233681665,64dc7f1d7221422e1e133b9c,,,,,,,decisionTrl,resources/DR.BMP,resources/DB.BMP,Door3,0.33359375,-0.141927083,1,0,0,1.1628,optionRight,70,15805,7,19,0,19,0,1,,,,,,,,,,,,,,,,,,,,,,,,,,,,,,,,,,,,,,,
,,,,,,,,2023-08-16_08h54.52.373,HF_wild_card,2022.2.4,Win32,60.12506013,58bebf658c2fd60001b9767a,64d2fd46c836a06233681665,64dc7f1d7221422e1e133b9c,,,,,,,ctch,resources/DP.BMP,resources/DB.BMP,Door3,0.281510417,-0.13671875,1,0,0,0.8475,optionRight,70,15875,7,20,0,20,0,1,,,,,,,,,,,,,,,,,,,,,,,,,,,,,,,,,,,,,,,
,,,,,,,,2023-08-16_08h54.52.373,HF_wild_card,2022.2.4,Win32,60.12506013,58bebf658c2fd60001b9767a,64d2fd46c836a06233681665,64dc7f1d7221422e1e133b9c,,,,,,,ctch,resources/DB.BMP,resources/DP.BMP,Door3,-0.292708333,-0.096354167,1,0,0,1.546,optionLeft,70,15945,7,21,0,21,0,1,,,,,,,,,,,,,,,,,,,,,,,,,,,,,,,,,,,,,,,
,,,,,,,,2023-08-16_08h54.52.373,HF_wild_card,2022.2.4,Win32,60.12506013,58bebf658c2fd60001b9767a,64d2fd46c836a06233681665,64dc7f1d7221422e1e133b9c,,,,,,,ctch,resources/DG.BMP,resources/DR.BMP,Door4,0.355729167,-0.154947917,1,0,0,1.262,optionRight,80,16025,7,22,0,22,0,1,,,,,,,,,,,,,,,,,,,,,,,,,,,,,,,,,,,,,,,
,,,,,,,,2023-08-16_08h54.52.373,HF_wild_card,2022.2.4,Win32,60.12506013,58bebf658c2fd60001b9767a,64d2fd46c836a06233681665,64dc7f1d7221422e1e133b9c,,,,,,,decisionTrl,resources/DR.BMP,resources/DB.BMP,Door3,0.289322917,-0.135416667,1,0,0,1.3452,optionRight,70,16095,7,23,0,23,0,1,,,,,,,,,,,,,,,,,,,,,,,,,,,,,,,,,,,,,,,
,,,,,,,,2023-08-16_08h54.52.373,HF_wild_card,2022.2.4,Win32,60.12506013,58bebf658c2fd60001b9767a,64d2fd46c836a06233681665,64dc7f1d7221422e1e133b9c,,,,,,,decisionTrl,resources/DP.BMP,resources/DG.BMP,Door1,0.38046875,-0.134114583,1,0,0,1.6625,optionRight,30,16125,7,24,0,24,0,1,,,,,,,,,,,,,,,,,,,,,,,,,,,,,,,,,,,,,,,
,,,,,,,,2023-08-16_08h54.52.373,HF_wild_card,2022.2.4,Win32,60.12506013,58bebf658c2fd60001b9767a,64d2fd46c836a06233681665,64dc7f1d7221422e1e133b9c,,,,,,,decisionTrl,resources/DR.BMP,resources/DB.BMP,Door4,-0.374739583,-0.057291667,1,0,0,1.6292,optionLeft,80,16205,7,25,0,25,0,1,,,,,,,,,,,,,,,,,,,,,,,,,,,,,,,,,,,,,,,
,,,,,,,,2023-08-16_08h54.52.373,HF_wild_card,2022.2.4,Win32,60.12506013,58bebf658c2fd60001b9767a,64d2fd46c836a06233681665,64dc7f1d7221422e1e133b9c,,,,,,,decisionTrl,resources/DB.BMP,resources/DR.BMP,Door4,0.422135417,-0.15234375,1,0,0,1.2313,optionRight,80,16285,7,26,0,26,0,1,,,,,,,,,,,,,,,,,,,,,,,,,,,,,,,,,,,,,,,
,,,,,,,,2023-08-16_08h54.52.373,HF_wild_card,2022.2.4,Win32,60.12506013,58bebf658c2fd60001b9767a,64d2fd46c836a06233681665,64dc7f1d7221422e1e133b9c,,,,,,,decisionTrl,resources/DG.BMP,resources/DP.BMP,Door2,0.3453125,-0.139322917,1,0,0,2.964,optionRight,20,16305,7,27,0,27,0,1,,,,,,,,,,,,,,,,,,,,,,,,,,,,,,,,,,,,,,,
,,,,,,,,2023-08-16_08h54.52.373,HF_wild_card,2022.2.4,Win32,60.12506013,58bebf658c2fd60001b9767a,64d2fd46c836a06233681665,64dc7f1d7221422e1e133b9c,,,,,,,ctch,resources/DG.BMP,resources/DR.BMP,Door4,0.41953125,-0.1640625,1,0,0,0.8627,optionRight,80,16385,7,28,0,28,0,1,,,,,,,,,,,,,,,,,,,,,,,,,,,,,,,,,,,,,,,
,,,,,,,,2023-08-16_08h54.52.373,HF_wild_card,2022.2.4,Win32,60.12506013,58bebf658c2fd60001b9767a,64d2fd46c836a06233681665,64dc7f1d7221422e1e133b9c,,,,,,,decisionTrl,resources/DP.BMP,resources/DG.BMP,Door1,0.471614583,-0.15234375,1,0,0,2.4447,optionRight,30,16415,7,29,0,29,0,1,,,,,,,,,,,,,,,,,,,,,,,,,,,,,,,,,,,,,,,
,,,,,,,,2023-08-16_08h54.52.373,HF_wild_card,2022.2.4,Win32,60.12506013,58bebf658c2fd60001b9767a,64d2fd46c836a06233681665,64dc7f1d7221422e1e133b9c,,,,,,,ctch,resources/DR.BMP,resources/DG.BMP,Door4,-0.461979167,-0.05859375,1,0,0,1.1481,optionLeft,80,16495,7,30,0,30,0,1,,,,,,,,,,,,,,,,,,,,,,,,,,,,,,,,,,,,,,,
,,,,,,,,2023-08-16_08h54.52.373,HF_wild_card,2022.2.4,Win32,60.12506013,58bebf658c2fd60001b9767a,64d2fd46c836a06233681665,64dc7f1d7221422e1e133b9c,,,,,,,ctch,resources/DR.BMP,resources/DG.BMP,Door4,-0.35,-0.109375,1,0,0,0.6317,optionLeft,60,16555,7,31,0,31,0,1,,,,,,,,,,,,,,,,,,,,,,,,,,,,,,,,,,,,,,,
,,,,,,,,2023-08-16_08h54.52.373,HF_wild_card,2022.2.4,Win32,60.12506013,58bebf658c2fd60001b9767a,64d2fd46c836a06233681665,64dc7f1d7221422e1e133b9c,,,,,,,decisionTrl,resources/DB.BMP,resources/DR.BMP,Door4,0.312760417,-0.139322917,1,0,0,1.678,optionRight,80,16635,7,32,0,32,0,1,,,,,,,,,,,,,,,,,,,,,,,,,,,,,,,,,,,,,,,
,,,,,,,,2023-08-16_08h54.52.373,HF_wild_card,2022.2.4,Win32,60.12506013,58bebf658c2fd60001b9767a,64d2fd46c836a06233681665,64dc7f1d7221422e1e133b9c,,,,,,,ctch,resources/DR.BMP,resources/DG.BMP,Door4,-0.286197917,-0.09765625,1,0,0,0.7295,optionLeft,60,16695,7,33,0,33,0,1,,,,,,,,,,,,,,,,,,,,,,,,,,,,,,,,,,,,,,,
,,,,,,,,2023-08-16_08h54.52.373,HF_wild_card,2022.2.4,Win32,60.12506013,58bebf658c2fd60001b9767a,64d2fd46c836a06233681665,64dc7f1d7221422e1e133b9c,,,,,,,ctch,resources/DP.BMP,resources/DB.BMP,Door3,0.33359375,-0.139322917,1,0,0,0.8974,optionRight,70,16765,7,34,0,34,0,1,,,,,,,,,,,,,,,,,,,,,,,,,,,,,,,,,,,,,,,
,,,,,,,,2023-08-16_08h54.52.373,HF_wild_card,2022.2.4,Win32,60.12506013,58bebf658c2fd60001b9767a,64d2fd46c836a06233681665,64dc7f1d7221422e1e133b9c,,,,,,,decisionTrl,resources/DB.BMP,resources/DR.BMP,Door4,0.437760417,-0.134114583,1,0,0,1.1787,optionRight,80,16845,7,35,0,35,0,1,,,,,,,,,,,,,,,,,,,,,,,,,,,,,,,,,,,,,,,
,,,,,,,,2023-08-16_08h54.52.373,HF_wild_card,2022.2.4,Win32,60.12506013,58bebf658c2fd60001b9767a,64d2fd46c836a06233681665,64dc7f1d7221422e1e133b9c,,,,,,,,,,,,,,,,,,,,,,,,,,6,0,6,0,1,,,,,,,,,,,,,,,,,,,,,,,,,,,,,,,,,,
,,,,,,,,2023-08-16_08h54.52.373,HF_wild_card,2022.2.4,Win32,60.12506013,58bebf658c2fd60001b9767a,64d2fd46c836a06233681665,64dc7f1d7221422e1e133b9c,,,,,,,,,,,,,,,,,,,,,,,,,,,,,,,4,,,,,,,,,,,,,,,,,,,,,,,,,,,,,,,,,
,,,,,,,,2023-08-16_08h54.52.373,HF_wild_card,2022.2.4,Win32,60.12506013,58bebf658c2fd60001b9767a,64d2fd46c836a06233681665,64dc7f1d7221422e1e133b9c,,,,,,,,,,,,,,,,,,,,,,,,,,,,,,,,,,,,,,,,,,,,,,,,,,,,,,,,,,,,,,,,
,,,,,,,,2023-08-16_08h54.52.373,HF_wild_card,2022.2.4,Win32,60.12506013,58bebf658c2fd60001b9767a,64d2fd46c836a06233681665,64dc7f1d7221422e1e133b9c,,,,,,,,,,,,,,,,,,,,,,,,,,,,,,,,80,Door4,resources/DR.BMP,0,0,0,0,1,,,,,,,,,,,,,,,,,,,,,,,,,
,,,,,,,,2023-08-16_08h54.52.373,HF_wild_card,2022.2.4,Win32,60.12506013,58bebf658c2fd60001b9767a,64d2fd46c836a06233681665,64dc7f1d7221422e1e133b9c,,,,,,,,,,,,,,,,,,,,,,,,,,,,,,,,55,WC_nonExtreme,resources/DBN.BMP,1,0,1,0,1,,,,,,,,,,,,,,,,,,,,,,,,,
,,,,,,,,2023-08-16_08h54.52.373,HF_wild_card,2022.2.4,Win32,60.12506013,58bebf658c2fd60001b9767a,64d2fd46c836a06233681665,64dc7f1d7221422e1e133b9c,,,,,,,,,,,,,,,,,,,,,,,,,,,,,,,,70,Door3,resources/DB.BMP,2,0,2,0,1,,,,,,,,,,,,,,,,,,,,,,,,,
,,,,,,,,2023-08-16_08h54.52.373,HF_wild_card,2022.2.4,Win32,60.12506013,58bebf658c2fd60001b9767a,64d2fd46c836a06233681665,64dc7f1d7221422e1e133b9c,,,,,,,,,,,,,,,,,,,,,,,,,,,,,,,,40,Door2,resources/DP.BMP,3,0,3,0,1,,,,,,,,,,,,,,,,,,,,,,,,,
,,,,,,,,2023-08-16_08h54.52.373,HF_wild_card,2022.2.4,Win32,60.12506013,58bebf658c2fd60001b9767a,64d2fd46c836a06233681665,64dc7f1d7221422e1e133b9c,,,,,,,,,,,,,,,,,,,,,,,,,,,,,,,,95,WC_extreme,resources/DY.BMP,4,0,4,0,1,,,,,,,,,,,,,,,,,,,,,,,,,
,,,,,,,,2023-08-16_08h54.52.373,HF_wild_card,2022.2.4,Win32,60.12506013,58bebf658c2fd60001b9767a,64d2fd46c836a06233681665,64dc7f1d7221422e1e133b9c,,,,,,,,,,,,,,,,,,,,,,,,,,,,,,,,30,Door1,resources/DG.BMP,5,0,5,0,1,,,,,,,,,,,,,,,,,,,,,,,,,
,,,,,,,,2023-08-16_08h54.52.373,HF_wild_card,2022.2.4,Win32,60.12506013,58bebf658c2fd60001b9767a,64d2fd46c836a06233681665,64dc7f1d7221422e1e133b9c,,,,,,,,,,,,,,,,,,,,,,,,,,,,,,,,,,,,,,,,,,,,,,,,,,,,,,,,,,,,,,,,
,,,,,,,,2023-08-16_08h54.52.373,HF_wild_card,2022.2.4,Win32,60.12506013,58bebf658c2fd60001b9767a,64d2fd46c836a06233681665,64dc7f1d7221422e1e133b9c,,,,,,,,,,,,,,,,,,,,,,,,,,,,,,,,,,,,,,,,0,0,0,0,1,,,,,,,,,,,,,,,,,,,,
