Condition,Low fixed image (Door1),Low risky image (Door2),High fixed image (Door3),High risky image (Door4),NonExtreme Wild Card 1,NonExtreme Wild Card 2,,date,expName,psychopyVersion,OS,frameRate,PROLIFIC_PID,STUDY_ID,SESSION_ID,mouse_2.x,mouse_2.y,mouse_2.leftButton,mouse_2.midButton,mouse_2.rightButton,mouse_2.clicked_name,Trial Type,Left Option Image,Right Option Image,Chosen Door,mouse.x,mouse.y,mouse.leftButton,mouse.midButton,mouse.rightButton,mouse.time,mouse.clicked_name,Feedback,Cumulative Reward,Block,trial.thisRepN,trial.thisTrialN,trial.thisN,trial.thisIndex,trial.ran,blocks.thisRepN,blocks.thisTrialN,blocks.thisN,blocks.thisIndex,blocks.ran,Money conversion,First Outcome Reported,Shown Door (First Outcome),Displayed Image (First Outcome),outcomes.thisRepN,outcomes.thisTrialN,outcomes.thisN,outcomes.thisIndex,outcomes.ran,judgments.thisRepN,judgments.thisTrialN,judgments.thisN,judgments.thisIndex,judgments.ran,freqMouse.x,freqMouse.y,freqMouse.leftButton,freqMouse.midButton,freqMouse.rightButton,freqMouse.clicked_name,FQJ for first outcome,FQJ for second outcome,Shown Door,Displayed Image,trials.thisRepN,trials.thisTrialN,trials.thisN,trials.thisIndex,trials.ran,judgBlock.thisRepN,judgBlock.thisTrialN,judgBlock.thisN,judgBlock.thisIndex,judgBlock.ran
2,resources/DY.BMP,resources/DBN.BMP,resources/DR.BMP,resources/DP.BMP,resources/DG.BMP,resources/DB.BMP,611a8d23c1d17506a23df589,2023-08-06_08h23.52.984,HF_wild_card,2022.2.4,Win32,60.09254252,611a8d23c1d17506a23df589,64ce5acb97489d65b14ecc7a,64cf4a1a1ef27e1f87418d4b,,,,,,,,,,,,,,,,,,,,,,,,,,,,,,,,,,,,,,,,,,,,,,,,,,,,,,,,,,,,,,,,
,,,,,,,611a8d23c1d17506a23df589,2023-08-06_08h23.52.984,HF_wild_card,2022.2.4,Win32,60.09254252,611a8d23c1d17506a23df589,64ce5acb97489d65b14ecc7a,64cf4a1a1ef27e1f87418d4b,-0.003989362,-0.412234043,1,0,0,agree,,,,,,,,,,,,,,,,,,,,,,,,,,,,,,,,,,,,,,,,,,,,,,,,,,,,,,,,,,
,,,,,,,611a8d23c1d17506a23df589,2023-08-06_08h23.52.984,HF_wild_card,2022.2.4,Win32,60.09254252,611a8d23c1d17506a23df589,64ce5acb97489d65b14ecc7a,64cf4a1a1ef27e1f87418d4b,,,,,,,,,,,,,,,,,,,,,,,,,,,,,,,,,,,,,,,,,,,,,,,,,,,,,,,,,,,,,,,,
,,,,,,,611a8d23c1d17506a23df589,2023-08-06_08h23.52.984,HF_wild_card,2022.2.4,Win32,60.09254252,611a8d23c1d17506a23df589,64ce5acb97489d65b14ecc7a,64cf4a1a1ef27e1f87418d4b,,,,,,,decisionTrl,resources/DBN.BMP,resources/DY.BMP,Door1,0.463430851,-0.046542553,1,0,0,1.9573,optionRight,30,30,1,0,0,0,0,1,,,,,,,,,,,,,,,,,,,,,,,,,,,,,,,,,,,,,,,
,,,,,,,611a8d23c1d17506a23df589,2023-08-06_08h23.52.984,HF_wild_card,2022.2.4,Win32,60.09254252,611a8d23c1d17506a23df589,64ce5acb97489d65b14ecc7a,64cf4a1a1ef27e1f87418d4b,,,,,,,sngl,resources/Empty.png,resources/DY.BMP,Door1,0.341755319,0.123670213,1,0,0,0.927,optionRight,30,60,1,1,0,1,0,1,,,,,,,,,,,,,,,,,,,,,,,,,,,,,,,,,,,,,,,
,,,,,,,611a8d23c1d17506a23df589,2023-08-06_08h23.52.984,HF_wild_card,2022.2.4,Win32,60.09254252,611a8d23c1d17506a23df589,64ce5acb97489d65b14ecc7a,64cf4a1a1ef27e1f87418d4b,,,,,,,ctch,resources/DY.BMP,resources/DP.BMP,Door1,-0.223404255,0.069148936,1,0,0,0.6468,optionLeft,30,90,1,2,0,2,0,1,,,,,,,,,,,,,,,,,,,,,,,,,,,,,,,,,,,,,,,
,,,,,,,611a8d23c1d17506a23df589,2023-08-06_08h23.52.984,HF_wild_card,2022.2.4,Win32,60.09254252,611a8d23c1d17506a23df589,64ce5acb97489d65b14ecc7a,64cf4a1a1ef27e1f87418d4b,,,,,,,decisionTrl,resources/DBN.BMP,resources/DB.BMP,WildCard_NonEx,0.325797872,0.137632979,1,0,0,0.5604,optionRight,45,135,1,3,0,3,0,1,,,,,,,,,,,,,,,,,,,,,,,,,,,,,,,,,,,,,,,
,,,,,,,611a8d23c1d17506a23df589,2023-08-06_08h23.52.984,HF_wild_card,2022.2.4,Win32,60.09254252,611a8d23c1d17506a23df589,64ce5acb97489d65b14ecc7a,64cf4a1a1ef27e1f87418d4b,,,,,,,decisionTrl,resources/DR.BMP,resources/DP.BMP,Door3,-0.214760638,0.00731383,1,0,0,1.0132,optionLeft,70,205,1,4,0,4,0,1,,,,,,,,,,,,,,,,,,,,,,,,,,,,,,,,,,,,,,,
,,,,,,,611a8d23c1d17506a23df589,2023-08-06_08h23.52.984,HF_wild_card,2022.2.4,Win32,60.09254252,611a8d23c1d17506a23df589,64ce5acb97489d65b14ecc7a,64cf4a1a1ef27e1f87418d4b,,,,,,,ctch,resources/DBN.BMP,resources/DR.BMP,Door3,0.263962766,0.081117021,1,0,0,0.4945,optionRight,70,275,1,5,0,5,0,1,,,,,,,,,,,,,,,,,,,,,,,,,,,,,,,,,,,,,,,
,,,,,,,611a8d23c1d17506a23df589,2023-08-06_08h23.52.984,HF_wild_card,2022.2.4,Win32,60.09254252,611a8d23c1d17506a23df589,64ce5acb97489d65b14ecc7a,64cf4a1a1ef27e1f87418d4b,,,,,,,sngl,resources/DBN.BMP,resources/Empty.png,Door2,-0.1875,0.030585106,1,0,0,0.6886,optionLeft,40,315,1,6,0,6,0,1,,,,,,,,,,,,,,,,,,,,,,,,,,,,,,,,,,,,,,,
,,,,,,,611a8d23c1d17506a23df589,2023-08-06_08h23.52.984,HF_wild_card,2022.2.4,Win32,60.09254252,611a8d23c1d17506a23df589,64ce5acb97489d65b14ecc7a,64cf4a1a1ef27e1f87418d4b,,,,,,,ctch,resources/DP.BMP,resources/DY.BMP,Door1,0.309448819,0.026771654,1,0,0,11.8321,optionRight,30,345,1,7,0,7,0,1,,,,,,,,,,,,,,,,,,,,,,,,,,,,,,,,,,,,,,,
,,,,,,,611a8d23c1d17506a23df589,2023-08-06_08h23.52.984,HF_wild_card,2022.2.4,Win32,60.09254252,611a8d23c1d17506a23df589,64ce5acb97489d65b14ecc7a,64cf4a1a1ef27e1f87418d4b,,,,,,,sngl,resources/DY.BMP,resources/Empty.png,Door1,-0.22519685,0.02519685,1,0,0,0.6636,optionLeft,30,375,1,8,0,8,0,1,,,,,,,,,,,,,,,,,,,,,,,,,,,,,,,,,,,,,,,
,,,,,,,611a8d23c1d17506a23df589,2023-08-06_08h23.52.984,HF_wild_card,2022.2.4,Win32,60.09254252,611a8d23c1d17506a23df589,64ce5acb97489d65b14ecc7a,64cf4a1a1ef27e1f87418d4b,,,,,,,ctch,resources/DP.BMP,resources/DY.BMP,Door1,0.233858268,0.097637795,1,0,0,0.5445,optionRight,30,405,1,9,0,9,0,1,,,,,,,,,,,,,,,,,,,,,,,,,,,,,,,,,,,,,,,
,,,,,,,611a8d23c1d17506a23df589,2023-08-06_08h23.52.984,HF_wild_card,2022.2.4,Win32,60.09254252,611a8d23c1d17506a23df589,64ce5acb97489d65b14ecc7a,64cf4a1a1ef27e1f87418d4b,,,,,,,decisionTrl,resources/DP.BMP,resources/DR.BMP,Door4,-0.266141732,0.037795276,1,0,0,0.5978,optionLeft,60,465,1,10,0,10,0,1,,,,,,,,,,,,,,,,,,,,,,,,,,,,,,,,,,,,,,,
,,,,,,,611a8d23c1d17506a23df589,2023-08-06_08h23.52.984,HF_wild_card,2022.2.4,Win32,60.09254252,611a8d23c1d17506a23df589,64ce5acb97489d65b14ecc7a,64cf4a1a1ef27e1f87418d4b,,,,,,,sngl,resources/Empty.png,resources/DB.BMP,WildCard_NonEx,0.371653543,0.142519685,1,0,0,0.4621,optionRight,55,520,1,11,0,11,0,1,,,,,,,,,,,,,,,,,,,,,,,,,,,,,,,,,,,,,,,
,,,,,,,611a8d23c1d17506a23df589,2023-08-06_08h23.52.984,HF_wild_card,2022.2.4,Win32,60.09254252,611a8d23c1d17506a23df589,64ce5acb97489d65b14ecc7a,64cf4a1a1ef27e1f87418d4b,,,,,,,sngl,resources/Empty.png,resources/DP.BMP,Door4,0.275590551,0.05511811,1,0,0,0.9125,optionRight,60,580,1,12,0,12,0,1,,,,,,,,,,,,,,,,,,,,,,,,,,,,,,,,,,,,,,,
,,,,,,,611a8d23c1d17506a23df589,2023-08-06_08h23.52.984,HF_wild_card,2022.2.4,Win32,60.09254252,611a8d23c1d17506a23df589,64ce5acb97489d65b14ecc7a,64cf4a1a1ef27e1f87418d4b,,,,,,,sngl,resources/DB.BMP,resources/Empty.png,WildCard_NonEx,-0.266141732,0.08503937,1,0,0,0.6133,optionLeft,55,635,1,13,0,13,0,1,,,,,,,,,,,,,,,,,,,,,,,,,,,,,,,,,,,,,,,
,,,,,,,611a8d23c1d17506a23df589,2023-08-06_08h23.52.984,HF_wild_card,2022.2.4,Win32,60.09254252,611a8d23c1d17506a23df589,64ce5acb97489d65b14ecc7a,64cf4a1a1ef27e1f87418d4b,,,,,,,decisionTrl,resources/DY.BMP,resources/DBN.BMP,Door2,0.245669291,0.092125984,1,0,0,0.5792,optionRight,20,655,1,14,0,14,0,1,,,,,,,,,,,,,,,,,,,,,,,,,,,,,,,,,,,,,,,
,,,,,,,611a8d23c1d17506a23df589,2023-08-06_08h23.52.984,HF_wild_card,2022.2.4,Win32,60.09254252,611a8d23c1d17506a23df589,64ce5acb97489d65b14ecc7a,64cf4a1a1ef27e1f87418d4b,,,,,,,decisionTrl,resources/DB.BMP,resources/DY.BMP,WildCard_NonEx,-0.262992126,0.081889764,1,0,0,0.9611,optionLeft,45,700,1,15,0,15,0,1,,,,,,,,,,,,,,,,,,,,,,,,,,,,,,,,,,,,,,,
,,,,,,,611a8d23c1d17506a23df589,2023-08-06_08h23.52.984,HF_wild_card,2022.2.4,Win32,60.09254252,611a8d23c1d17506a23df589,64ce5acb97489d65b14ecc7a,64cf4a1a1ef27e1f87418d4b,,,,,,,decisionTrl,resources/DP.BMP,resources/DR.BMP,Door4,-0.253543307,0.038582677,1,0,0,0.879,optionLeft,60,760,1,16,0,16,0,1,,,,,,,,,,,,,,,,,,,,,,,,,,,,,,,,,,,,,,,
,,,,,,,611a8d23c1d17506a23df589,2023-08-06_08h23.52.984,HF_wild_card,2022.2.4,Win32,60.09254252,611a8d23c1d17506a23df589,64ce5acb97489d65b14ecc7a,64cf4a1a1ef27e1f87418d4b,,,,,,,decisionTrl,resources/DY.BMP,resources/DBN.BMP,Door1,-0.227559055,0.036220472,1,0,0,1.2284,optionLeft,30,790,1,17,0,17,0,1,,,,,,,,,,,,,,,,,,,,,,,,,,,,,,,,,,,,,,,
,,,,,,,611a8d23c1d17506a23df589,2023-08-06_08h23.52.984,HF_wild_card,2022.2.4,Win32,60.09254252,611a8d23c1d17506a23df589,64ce5acb97489d65b14ecc7a,64cf4a1a1ef27e1f87418d4b,,,,,,,decisionTrl,resources/DR.BMP,resources/DP.BMP,Door4,0.437007874,0.044094488,1,0,0,0.7626,optionRight,80,870,1,18,0,18,0,1,,,,,,,,,,,,,,,,,,,,,,,,,,,,,,,,,,,,,,,
,,,,,,,611a8d23c1d17506a23df589,2023-08-06_08h23.52.984,HF_wild_card,2022.2.4,Win32,60.09254252,611a8d23c1d17506a23df589,64ce5acb97489d65b14ecc7a,64cf4a1a1ef27e1f87418d4b,,,,,,,ctch,resources/DR.BMP,resources/DBN.BMP,Door2,0.337795276,0.039370079,1,0,0,1.1963,optionRight,40,910,1,19,0,19,0,1,,,,,,,,,,,,,,,,,,,,,,,,,,,,,,,,,,,,,,,
,,,,,,,611a8d23c1d17506a23df589,2023-08-06_08h23.52.984,HF_wild_card,2022.2.4,Win32,60.09254252,611a8d23c1d17506a23df589,64ce5acb97489d65b14ecc7a,64cf4a1a1ef27e1f87418d4b,,,,,,,decisionTrl,resources/DBN.BMP,resources/DY.BMP,Door1,0.397637795,0.092125984,1,0,0,0.9301,optionRight,30,940,1,20,0,20,0,1,,,,,,,,,,,,,,,,,,,,,,,,,,,,,,,,,,,,,,,
,,,,,,,611a8d23c1d17506a23df589,2023-08-06_08h23.52.984,HF_wild_card,2022.2.4,Win32,60.09254252,611a8d23c1d17506a23df589,64ce5acb97489d65b14ecc7a,64cf4a1a1ef27e1f87418d4b,,,,,,,sngl,resources/DB.BMP,resources/Empty.png,WildCard_NonEx,-0.240944882,0.029133858,1,0,0,0.8797,optionLeft,45,985,1,21,0,21,0,1,,,,,,,,,,,,,,,,,,,,,,,,,,,,,,,,,,,,,,,
,,,,,,,611a8d23c1d17506a23df589,2023-08-06_08h23.52.984,HF_wild_card,2022.2.4,Win32,60.09254252,611a8d23c1d17506a23df589,64ce5acb97489d65b14ecc7a,64cf4a1a1ef27e1f87418d4b,,,,,,,decisionTrl,resources/DB.BMP,resources/DBN.BMP,Door2,0.336220472,0.103937008,1,0,0,0.8281,optionRight,40,1025,1,22,0,22,0,1,,,,,,,,,,,,,,,,,,,,,,,,,,,,,,,,,,,,,,,
,,,,,,,611a8d23c1d17506a23df589,2023-08-06_08h23.52.984,HF_wild_card,2022.2.4,Win32,60.09254252,611a8d23c1d17506a23df589,64ce5acb97489d65b14ecc7a,64cf4a1a1ef27e1f87418d4b,,,,,,,decisionTrl,resources/DY.BMP,resources/DBN.BMP,Door2,0.286614173,0.103149606,1,0,0,1.244,optionRight,40,1065,1,23,0,23,0,1,,,,,,,,,,,,,,,,,,,,,,,,,,,,,,,,,,,,,,,
,,,,,,,611a8d23c1d17506a23df589,2023-08-06_08h23.52.984,HF_wild_card,2022.2.4,Win32,60.09254252,611a8d23c1d17506a23df589,64ce5acb97489d65b14ecc7a,64cf4a1a1ef27e1f87418d4b,,,,,,,decisionTrl,resources/DBN.BMP,resources/DY.BMP,Door2,-0.244094488,0.060629921,1,0,0,0.9126,optionLeft,20,1085,1,24,0,24,0,1,,,,,,,,,,,,,,,,,,,,,,,,,,,,,,,,,,,,,,,
,,,,,,,611a8d23c1d17506a23df589,2023-08-06_08h23.52.984,HF_wild_card,2022.2.4,Win32,60.09254252,611a8d23c1d17506a23df589,64ce5acb97489d65b14ecc7a,64cf4a1a1ef27e1f87418d4b,,,,,,,sngl,resources/Empty.png,resources/DB.BMP,WildCard_NonEx,0.407086614,0.075590551,1,0,0,0.8785,optionRight,45,1130,1,25,0,25,0,1,,,,,,,,,,,,,,,,,,,,,,,,,,,,,,,,,,,,,,,
,,,,,,,611a8d23c1d17506a23df589,2023-08-06_08h23.52.984,HF_wild_card,2022.2.4,Win32,60.09254252,611a8d23c1d17506a23df589,64ce5acb97489d65b14ecc7a,64cf4a1a1ef27e1f87418d4b,,,,,,,decisionTrl,resources/DB.BMP,resources/DP.BMP,Door4,0.347244094,0.05511811,1,0,0,0.8448,optionRight,80,1210,1,26,0,26,0,1,,,,,,,,,,,,,,,,,,,,,,,,,,,,,,,,,,,,,,,
,,,,,,,611a8d23c1d17506a23df589,2023-08-06_08h23.52.984,HF_wild_card,2022.2.4,Win32,60.09254252,611a8d23c1d17506a23df589,64ce5acb97489d65b14ecc7a,64cf4a1a1ef27e1f87418d4b,,,,,,,sngl,resources/Empty.png,resources/DR.BMP,Door3,0.341732283,0.053543307,1,0,0,0.8949,optionRight,70,1280,1,27,0,27,0,1,,,,,,,,,,,,,,,,,,,,,,,,,,,,,,,,,,,,,,,
,,,,,,,611a8d23c1d17506a23df589,2023-08-06_08h23.52.984,HF_wild_card,2022.2.4,Win32,60.09254252,611a8d23c1d17506a23df589,64ce5acb97489d65b14ecc7a,64cf4a1a1ef27e1f87418d4b,,,,,,,decisionTrl,resources/DP.BMP,resources/DR.BMP,Door3,0.309448819,0.048818898,1,0,0,1.3162,optionRight,70,1350,1,28,0,28,0,1,,,,,,,,,,,,,,,,,,,,,,,,,,,,,,,,,,,,,,,
,,,,,,,611a8d23c1d17506a23df589,2023-08-06_08h23.52.984,HF_wild_card,2022.2.4,Win32,60.09254252,611a8d23c1d17506a23df589,64ce5acb97489d65b14ecc7a,64cf4a1a1ef27e1f87418d4b,,,,,,,decisionTrl,resources/DBN.BMP,resources/DY.BMP,Door1,0.337795276,0.086614173,1,0,0,1.0954,optionRight,30,1380,1,29,0,29,0,1,,,,,,,,,,,,,,,,,,,,,,,,,,,,,,,,,,,,,,,
,,,,,,,611a8d23c1d17506a23df589,2023-08-06_08h23.52.984,HF_wild_card,2022.2.4,Win32,60.09254252,611a8d23c1d17506a23df589,64ce5acb97489d65b14ecc7a,64cf4a1a1ef27e1f87418d4b,,,,,,,ctch,resources/DBN.BMP,resources/DR.BMP,Door2,-0.222834646,0.048818898,1,0,0,2.3628,optionLeft,20,1400,1,30,0,30,0,1,,,,,,,,,,,,,,,,,,,,,,,,,,,,,,,,,,,,,,,
,,,,,,,611a8d23c1d17506a23df589,2023-08-06_08h23.52.984,HF_wild_card,2022.2.4,Win32,60.09254252,611a8d23c1d17506a23df589,64ce5acb97489d65b14ecc7a,64cf4a1a1ef27e1f87418d4b,,,,,,,sngl,resources/DR.BMP,resources/Empty.png,Door3,-0.248818898,0.049606299,1,0,0,1.0613,optionLeft,70,1470,1,31,0,31,0,1,,,,,,,,,,,,,,,,,,,,,,,,,,,,,,,,,,,,,,,
,,,,,,,611a8d23c1d17506a23df589,2023-08-06_08h23.52.984,HF_wild_card,2022.2.4,Win32,60.09254252,611a8d23c1d17506a23df589,64ce5acb97489d65b14ecc7a,64cf4a1a1ef27e1f87418d4b,,,,,,,decisionTrl,resources/DR.BMP,resources/DP.BMP,Door4,0.35511811,0.118110236,1,0,0,1.063,optionRight,60,1530,1,32,0,32,0,1,,,,,,,,,,,,,,,,,,,,,,,,,,,,,,,,,,,,,,,
,,,,,,,611a8d23c1d17506a23df589,2023-08-06_08h23.52.984,HF_wild_card,2022.2.4,Win32,60.09254252,611a8d23c1d17506a23df589,64ce5acb97489d65b14ecc7a,64cf4a1a1ef27e1f87418d4b,,,,,,,decisionTrl,resources/DY.BMP,resources/DB.BMP,Door1,-0.248031496,0.057480315,1,0,0,1.3126,optionLeft,30,1560,1,33,0,33,0,1,,,,,,,,,,,,,,,,,,,,,,,,,,,,,,,,,,,,,,,
,,,,,,,611a8d23c1d17506a23df589,2023-08-06_08h23.52.984,HF_wild_card,2022.2.4,Win32,60.09254252,611a8d23c1d17506a23df589,64ce5acb97489d65b14ecc7a,64cf4a1a1ef27e1f87418d4b,,,,,,,decisionTrl,resources/DR.BMP,resources/DB.BMP,WildCard_NonEx,0.232283465,0.094488189,1,0,0,0.6792,optionRight,55,1615,1,34,0,34,0,1,,,,,,,,,,,,,,,,,,,,,,,,,,,,,,,,,,,,,,,
,,,,,,,611a8d23c1d17506a23df589,2023-08-06_08h23.52.984,HF_wild_card,2022.2.4,Win32,60.09254252,611a8d23c1d17506a23df589,64ce5acb97489d65b14ecc7a,64cf4a1a1ef27e1f87418d4b,,,,,,,ctch,resources/DY.BMP,resources/DP.BMP,Door4,0.305511811,0.107086614,1,0,0,0.9791,optionRight,60,1675,1,35,0,35,0,1,,,,,,,,,,,,,,,,,,,,,,,,,,,,,,,,,,,,,,,
,,,,,,,611a8d23c1d17506a23df589,2023-08-06_08h23.52.984,HF_wild_card,2022.2.4,Win32,60.09254252,611a8d23c1d17506a23df589,64ce5acb97489d65b14ecc7a,64cf4a1a1ef27e1f87418d4b,,,,,,,decisionTrl,resources/DB.BMP,resources/DR.BMP,WildCard_NonEx,-0.249606299,0.059055118,1,0,0,0.6296,optionLeft,45,1720,1,36,0,36,0,1,,,,,,,,,,,,,,,,,,,,,,,,,,,,,,,,,,,,,,,
,,,,,,,611a8d23c1d17506a23df589,2023-08-06_08h23.52.984,HF_wild_card,2022.2.4,Win32,60.09254252,611a8d23c1d17506a23df589,64ce5acb97489d65b14ecc7a,64cf4a1a1ef27e1f87418d4b,,,,,,,ctch,resources/DR.BMP,resources/DBN.BMP,Door2,0.386614173,0.07007874,1,0,0,0.4956,optionRight,40,1760,1,37,0,37,0,1,,,,,,,,,,,,,,,,,,,,,,,,,,,,,,,,,,,,,,,
,,,,,,,611a8d23c1d17506a23df589,2023-08-06_08h23.52.984,HF_wild_card,2022.2.4,Win32,60.09254252,611a8d23c1d17506a23df589,64ce5acb97489d65b14ecc7a,64cf4a1a1ef27e1f87418d4b,,,,,,,sngl,resources/DP.BMP,resources/Empty.png,Door4,-0.249606299,0.040944882,1,0,0,0.5626,optionLeft,80,1840,1,38,0,38,0,1,,,,,,,,,,,,,,,,,,,,,,,,,,,,,,,,,,,,,,,
,,,,,,,611a8d23c1d17506a23df589,2023-08-06_08h23.52.984,HF_wild_card,2022.2.4,Win32,60.09254252,611a8d23c1d17506a23df589,64ce5acb97489d65b14ecc7a,64cf4a1a1ef27e1f87418d4b,,,,,,,decisionTrl,resources/DY.BMP,resources/DBN.BMP,Door2,0.276377953,0.121259843,1,0,0,0.7948,optionRight,40,1880,1,39,0,39,0,1,,,,,,,,,,,,,,,,,,,,,,,,,,,,,,,,,,,,,,,
,,,,,,,611a8d23c1d17506a23df589,2023-08-06_08h23.52.984,HF_wild_card,2022.2.4,Win32,60.09254252,611a8d23c1d17506a23df589,64ce5acb97489d65b14ecc7a,64cf4a1a1ef27e1f87418d4b,,,,,,,decisionTrl,resources/DR.BMP,resources/DP.BMP,Door4,0.278740157,0.128346457,1,0,0,0.613,optionRight,80,1960,1,40,0,40,0,1,,,,,,,,,,,,,,,,,,,,,,,,,,,,,,,,,,,,,,,
,,,,,,,611a8d23c1d17506a23df589,2023-08-06_08h23.52.984,HF_wild_card,2022.2.4,Win32,60.09254252,611a8d23c1d17506a23df589,64ce5acb97489d65b14ecc7a,64cf4a1a1ef27e1f87418d4b,,,,,,,sngl,resources/Empty.png,resources/DBN.BMP,Door2,0.322834646,0.148031496,1,0,0,0.8615,optionRight,20,1980,1,41,0,41,0,1,,,,,,,,,,,,,,,,,,,,,,,,,,,,,,,,,,,,,,,
,,,,,,,611a8d23c1d17506a23df589,2023-08-06_08h23.52.984,HF_wild_card,2022.2.4,Win32,60.09254252,611a8d23c1d17506a23df589,64ce5acb97489d65b14ecc7a,64cf4a1a1ef27e1f87418d4b,,,,,,,decisionTrl,resources/DP.BMP,resources/DB.BMP,Door4,-0.272440945,0.07007874,1,0,0,0.7119,optionLeft,80,2060,1,42,0,42,0,1,,,,,,,,,,,,,,,,,,,,,,,,,,,,,,,,,,,,,,,
,,,,,,,611a8d23c1d17506a23df589,2023-08-06_08h23.52.984,HF_wild_card,2022.2.4,Win32,60.09254252,611a8d23c1d17506a23df589,64ce5acb97489d65b14ecc7a,64cf4a1a1ef27e1f87418d4b,,,,,,,decisionTrl,resources/DP.BMP,resources/DR.BMP,Door4,-0.231496063,0.004724409,1,0,0,0.8465,optionLeft,80,2140,1,43,0,43,0,1,,,,,,,,,,,,,,,,,,,,,,,,,,,,,,,,,,,,,,,
,,,,,,,611a8d23c1d17506a23df589,2023-08-06_08h23.52.984,HF_wild_card,2022.2.4,Win32,60.09254252,611a8d23c1d17506a23df589,64ce5acb97489d65b14ecc7a,64cf4a1a1ef27e1f87418d4b,,,,,,,,,,,,,,,,,,,,,,,,,,0,0,0,0,1,,,,,,,,,,,,,,,,,,,,,,,,,,,,,,,,,,
,,,,,,,611a8d23c1d17506a23df589,2023-08-06_08h23.52.984,HF_wild_card,2022.2.4,Win32,60.09254252,611a8d23c1d17506a23df589,64ce5acb97489d65b14ecc7a,64cf4a1a1ef27e1f87418d4b,,,,,,,decisionTrl,resources/DBN.BMP,resources/DY.BMP,Door1,0.503149606,-0.027559055,1,0,0,1.3685,optionRight,30,2170,2,0,0,0,0,1,,,,,,,,,,,,,,,,,,,,,,,,,,,,,,,,,,,,,,,
,,,,,,,611a8d23c1d17506a23df589,2023-08-06_08h23.52.984,HF_wild_card,2022.2.4,Win32,60.09254252,611a8d23c1d17506a23df589,64ce5acb97489d65b14ecc7a,64cf4a1a1ef27e1f87418d4b,,,,,,,sngl,resources/DR.BMP,resources/Empty.png,Door3,-0.254330709,0.048031496,1,0,0,0.7123,optionLeft,70,2240,2,1,0,1,0,1,,,,,,,,,,,,,,,,,,,,,,,,,,,,,,,,,,,,,,,
,,,,,,,611a8d23c1d17506a23df589,2023-08-06_08h23.52.984,HF_wild_card,2022.2.4,Win32,60.09254252,611a8d23c1d17506a23df589,64ce5acb97489d65b14ecc7a,64cf4a1a1ef27e1f87418d4b,,,,,,,ctch,resources/DP.BMP,resources/DY.BMP,Door4,-0.212598425,0.052755906,1,0,0,0.7453,optionLeft,60,2300,2,2,0,2,0,1,,,,,,,,,,,,,,,,,,,,,,,,,,,,,,,,,,,,,,,
,,,,,,,611a8d23c1d17506a23df589,2023-08-06_08h23.52.984,HF_wild_card,2022.2.4,Win32,60.09254252,611a8d23c1d17506a23df589,64ce5acb97489d65b14ecc7a,64cf4a1a1ef27e1f87418d4b,,,,,,,sngl,resources/Empty.png,resources/DR.BMP,Door3,0.32519685,0.120472441,1,0,0,0.4958,optionRight,70,2370,2,3,0,3,0,1,,,,,,,,,,,,,,,,,,,,,,,,,,,,,,,,,,,,,,,
,,,,,,,611a8d23c1d17506a23df589,2023-08-06_08h23.52.984,HF_wild_card,2022.2.4,Win32,60.09254252,611a8d23c1d17506a23df589,64ce5acb97489d65b14ecc7a,64cf4a1a1ef27e1f87418d4b,,,,,,,decisionTrl,resources/DR.BMP,resources/DP.BMP,Door4,0.31023622,0.124409449,1,0,0,0.762,optionRight,80,2450,2,4,0,4,0,1,,,,,,,,,,,,,,,,,,,,,,,,,,,,,,,,,,,,,,,
,,,,,,,611a8d23c1d17506a23df589,2023-08-06_08h23.52.984,HF_wild_card,2022.2.4,Win32,60.09254252,611a8d23c1d17506a23df589,64ce5acb97489d65b14ecc7a,64cf4a1a1ef27e1f87418d4b,,,,,,,sngl,resources/DP.BMP,resources/Empty.png,Door4,-0.235433071,0.112598425,1,0,0,0.7628,optionLeft,60,2510,2,5,0,5,0,1,,,,,,,,,,,,,,,,,,,,,,,,,,,,,,,,,,,,,,,
,,,,,,,611a8d23c1d17506a23df589,2023-08-06_08h23.52.984,HF_wild_card,2022.2.4,Win32,60.09254252,611a8d23c1d17506a23df589,64ce5acb97489d65b14ecc7a,64cf4a1a1ef27e1f87418d4b,,,,,,,sngl,resources/Empty.png,resources/DBN.BMP,Door2,0.350393701,0.163779528,1,0,0,0.5112,optionRight,40,2550,2,6,0,6,0,1,,,,,,,,,,,,,,,,,,,,,,,,,,,,,,,,,,,,,,,
,,,,,,,611a8d23c1d17506a23df589,2023-08-06_08h23.52.984,HF_wild_card,2022.2.4,Win32,60.09254252,611a8d23c1d17506a23df589,64ce5acb97489d65b14ecc7a,64cf4a1a1ef27e1f87418d4b,,,,,,,decisionTrl,resources/DY.BMP,resources/DBN.BMP,Door1,-0.256692913,0.096850394,1,0,0,0.8467,optionLeft,30,2580,2,7,0,7,0,1,,,,,,,,,,,,,,,,,,,,,,,,,,,,,,,,,,,,,,,
,,,,,,,611a8d23c1d17506a23df589,2023-08-06_08h23.52.984,HF_wild_card,2022.2.4,Win32,60.09254252,611a8d23c1d17506a23df589,64ce5acb97489d65b14ecc7a,64cf4a1a1ef27e1f87418d4b,,,,,,,decisionTrl,resources/DY.BMP,resources/DBN.BMP,Door1,-0.281889764,0.100787402,1,0,0,1.1293,optionLeft,30,2610,2,8,0,8,0,1,,,,,,,,,,,,,,,,,,,,,,,,,,,,,,,,,,,,,,,
,,,,,,,611a8d23c1d17506a23df589,2023-08-06_08h23.52.984,HF_wild_card,2022.2.4,Win32,60.09254252,611a8d23c1d17506a23df589,64ce5acb97489d65b14ecc7a,64cf4a1a1ef27e1f87418d4b,,,,,,,decisionTrl,resources/DR.BMP,resources/DP.BMP,Door4,0.322047244,0.153543307,1,0,0,0.6287,optionRight,80,2690,2,9,0,9,0,1,,,,,,,,,,,,,,,,,,,,,,,,,,,,,,,,,,,,,,,
,,,,,,,611a8d23c1d17506a23df589,2023-08-06_08h23.52.984,HF_wild_card,2022.2.4,Win32,60.09254252,611a8d23c1d17506a23df589,64ce5acb97489d65b14ecc7a,64cf4a1a1ef27e1f87418d4b,,,,,,,decisionTrl,resources/DP.BMP,resources/DR.BMP,Door4,-0.217322835,0.058267717,1,0,0,0.6954,optionLeft,80,2770,2,10,0,10,0,1,,,,,,,,,,,,,,,,,,,,,,,,,,,,,,,,,,,,,,,
,,,,,,,611a8d23c1d17506a23df589,2023-08-06_08h23.52.984,HF_wild_card,2022.2.4,Win32,60.09254252,611a8d23c1d17506a23df589,64ce5acb97489d65b14ecc7a,64cf4a1a1ef27e1f87418d4b,,,,,,,decisionTrl,resources/DY.BMP,resources/DB.BMP,WildCard_NonEx,0.288976378,0.166929134,1,0,0,0.596,optionRight,55,2825,2,11,0,11,0,1,,,,,,,,,,,,,,,,,,,,,,,,,,,,,,,,,,,,,,,
,,,,,,,611a8d23c1d17506a23df589,2023-08-06_08h23.52.984,HF_wild_card,2022.2.4,Win32,60.09254252,611a8d23c1d17506a23df589,64ce5acb97489d65b14ecc7a,64cf4a1a1ef27e1f87418d4b,,,,,,,decisionTrl,resources/DY.BMP,resources/DBN.BMP,Door1,-0.22992126,0.103937008,1,0,0,0.8134,optionLeft,30,2855,2,12,0,12,0,1,,,,,,,,,,,,,,,,,,,,,,,,,,,,,,,,,,,,,,,
,,,,,,,611a8d23c1d17506a23df589,2023-08-06_08h23.52.984,HF_wild_card,2022.2.4,Win32,60.09254252,611a8d23c1d17506a23df589,64ce5acb97489d65b14ecc7a,64cf4a1a1ef27e1f87418d4b,,,,,,,decisionTrl,resources/DB.BMP,resources/DY.BMP,WildCard_NonEx,-0.228346457,0.070866142,1,0,0,0.7461,optionLeft,55,2910,2,13,0,13,0,1,,,,,,,,,,,,,,,,,,,,,,,,,,,,,,,,,,,,,,,
,,,,,,,611a8d23c1d17506a23df589,2023-08-06_08h23.52.984,HF_wild_card,2022.2.4,Win32,60.09254252,611a8d23c1d17506a23df589,64ce5acb97489d65b14ecc7a,64cf4a1a1ef27e1f87418d4b,,,,,,,decisionTrl,resources/DB.BMP,resources/DR.BMP,WildCard_NonEx,-0.214173228,0.045669291,1,0,0,0.8285,optionLeft,45,2955,2,14,0,14,0,1,,,,,,,,,,,,,,,,,,,,,,,,,,,,,,,,,,,,,,,
,,,,,,,611a8d23c1d17506a23df589,2023-08-06_08h23.52.984,HF_wild_card,2022.2.4,Win32,60.09254252,611a8d23c1d17506a23df589,64ce5acb97489d65b14ecc7a,64cf4a1a1ef27e1f87418d4b,,,,,,,ctch,resources/DR.BMP,resources/DBN.BMP,Door2,0.339370079,0.132283465,1,0,0,0.5619,optionRight,20,2975,2,15,0,15,0,1,,,,,,,,,,,,,,,,,,,,,,,,,,,,,,,,,,,,,,,
,,,,,,,611a8d23c1d17506a23df589,2023-08-06_08h23.52.984,HF_wild_card,2022.2.4,Win32,60.09254252,611a8d23c1d17506a23df589,64ce5acb97489d65b14ecc7a,64cf4a1a1ef27e1f87418d4b,,,,,,,ctch,resources/DBN.BMP,resources/DR.BMP,Door3,0.276377953,0.096850394,1,0,0,0.7463,optionRight,70,3045,2,16,0,16,0,1,,,,,,,,,,,,,,,,,,,,,,,,,,,,,,,,,,,,,,,
,,,,,,,611a8d23c1d17506a23df589,2023-08-06_08h23.52.984,HF_wild_card,2022.2.4,Win32,60.09254252,611a8d23c1d17506a23df589,64ce5acb97489d65b14ecc7a,64cf4a1a1ef27e1f87418d4b,,,,,,,sngl,resources/Empty.png,resources/DP.BMP,Door4,0.342519685,0.096062992,1,0,0,1.0461,optionRight,80,3125,2,17,0,17,0,1,,,,,,,,,,,,,,,,,,,,,,,,,,,,,,,,,,,,,,,
,,,,,,,611a8d23c1d17506a23df589,2023-08-06_08h23.52.984,HF_wild_card,2022.2.4,Win32,60.09254252,611a8d23c1d17506a23df589,64ce5acb97489d65b14ecc7a,64cf4a1a1ef27e1f87418d4b,,,,,,,sngl,resources/Empty.png,resources/DB.BMP,WildCard_NonEx,0.337795276,0.106299213,1,0,0,0.7964,optionRight,45,3170,2,18,0,18,0,1,,,,,,,,,,,,,,,,,,,,,,,,,,,,,,,,,,,,,,,
,,,,,,,611a8d23c1d17506a23df589,2023-08-06_08h23.52.984,HF_wild_card,2022.2.4,Win32,60.09254252,611a8d23c1d17506a23df589,64ce5acb97489d65b14ecc7a,64cf4a1a1ef27e1f87418d4b,,,,,,,ctch,resources/DP.BMP,resources/DY.BMP,Door4,-0.247244094,0.131496063,1,0,0,1.3123,optionLeft,60,3230,2,19,0,19,0,1,,,,,,,,,,,,,,,,,,,,,,,,,,,,,,,,,,,,,,,
,,,,,,,611a8d23c1d17506a23df589,2023-08-06_08h23.52.984,HF_wild_card,2022.2.4,Win32,60.09254252,611a8d23c1d17506a23df589,64ce5acb97489d65b14ecc7a,64cf4a1a1ef27e1f87418d4b,,,,,,,decisionTrl,resources/DP.BMP,resources/DR.BMP,Door4,-0.230708661,0.108661417,1,0,0,0.8632,optionLeft,60,3290,2,20,0,20,0,1,,,,,,,,,,,,,,,,,,,,,,,,,,,,,,,,,,,,,,,
,,,,,,,611a8d23c1d17506a23df589,2023-08-06_08h23.52.984,HF_wild_card,2022.2.4,Win32,60.09254252,611a8d23c1d17506a23df589,64ce5acb97489d65b14ecc7a,64cf4a1a1ef27e1f87418d4b,,,,,,,decisionTrl,resources/DY.BMP,resources/DBN.BMP,Door1,-0.274015748,0.035433071,1,0,0,1.1291,optionLeft,30,3320,2,21,0,21,0,1,,,,,,,,,,,,,,,,,,,,,,,,,,,,,,,,,,,,,,,
,,,,,,,611a8d23c1d17506a23df589,2023-08-06_08h23.52.984,HF_wild_card,2022.2.4,Win32,60.09254252,611a8d23c1d17506a23df589,64ce5acb97489d65b14ecc7a,64cf4a1a1ef27e1f87418d4b,,,,,,,ctch,resources/DBN.BMP,resources/DR.BMP,Door3,0.403149606,0.106299213,1,0,0,0.8296,optionRight,70,3390,2,22,0,22,0,1,,,,,,,,,,,,,,,,,,,,,,,,,,,,,,,,,,,,,,,
,,,,,,,611a8d23c1d17506a23df589,2023-08-06_08h23.52.984,HF_wild_card,2022.2.4,Win32,60.09254252,611a8d23c1d17506a23df589,64ce5acb97489d65b14ecc7a,64cf4a1a1ef27e1f87418d4b,,,,,,,ctch,resources/DR.BMP,resources/DBN.BMP,Door3,-0.27480315,0.050393701,1,0,0,1.0296,optionLeft,70,3460,2,23,0,23,0,1,,,,,,,,,,,,,,,,,,,,,,,,,,,,,,,,,,,,,,,
,,,,,,,611a8d23c1d17506a23df589,2023-08-06_08h23.52.984,HF_wild_card,2022.2.4,Win32,60.09254252,611a8d23c1d17506a23df589,64ce5acb97489d65b14ecc7a,64cf4a1a1ef27e1f87418d4b,,,,,,,decisionTrl,resources/DBN.BMP,resources/DY.BMP,Door1,0.356692913,0.100787402,1,0,0,1.2451,optionRight,30,3490,2,24,0,24,0,1,,,,,,,,,,,,,,,,,,,,,,,,,,,,,,,,,,,,,,,
,,,,,,,611a8d23c1d17506a23df589,2023-08-06_08h23.52.984,HF_wild_card,2022.2.4,Win32,60.09254252,611a8d23c1d17506a23df589,64ce5acb97489d65b14ecc7a,64cf4a1a1ef27e1f87418d4b,,,,,,,decisionTrl,resources/DR.BMP,resources/DP.BMP,Door4,0.353543307,0.103149606,1,0,0,0.8463,optionRight,60,3550,2,25,0,25,0,1,,,,,,,,,,,,,,,,,,,,,,,,,,,,,,,,,,,,,,,
,,,,,,,611a8d23c1d17506a23df589,2023-08-06_08h23.52.984,HF_wild_card,2022.2.4,Win32,60.09254252,611a8d23c1d17506a23df589,64ce5acb97489d65b14ecc7a,64cf4a1a1ef27e1f87418d4b,,,,,,,decisionTrl,resources/DB.BMP,resources/DP.BMP,Door4,0.281889764,0.018897638,1,0,0,0.6623,optionRight,60,3610,2,26,0,26,0,1,,,,,,,,,,,,,,,,,,,,,,,,,,,,,,,,,,,,,,,
,,,,,,,611a8d23c1d17506a23df589,2023-08-06_08h23.52.984,HF_wild_card,2022.2.4,Win32,60.09254252,611a8d23c1d17506a23df589,64ce5acb97489d65b14ecc7a,64cf4a1a1ef27e1f87418d4b,,,,,,,sngl,resources/DY.BMP,resources/Empty.png,Door1,-0.234645669,0.106299213,1,0,0,0.6791,optionLeft,30,3640,2,27,0,27,0,1,,,,,,,,,,,,,,,,,,,,,,,,,,,,,,,,,,,,,,,
,,,,,,,611a8d23c1d17506a23df589,2023-08-06_08h23.52.984,HF_wild_card,2022.2.4,Win32,60.09254252,611a8d23c1d17506a23df589,64ce5acb97489d65b14ecc7a,64cf4a1a1ef27e1f87418d4b,,,,,,,sngl,resources/Empty.png,resources/DY.BMP,Door1,0.303149606,0.15511811,1,0,0,0.5299,optionRight,30,3670,2,28,0,28,0,1,,,,,,,,,,,,,,,,,,,,,,,,,,,,,,,,,,,,,,,
,,,,,,,611a8d23c1d17506a23df589,2023-08-06_08h23.52.984,HF_wild_card,2022.2.4,Win32,60.09254252,611a8d23c1d17506a23df589,64ce5acb97489d65b14ecc7a,64cf4a1a1ef27e1f87418d4b,,,,,,,decisionTrl,resources/DBN.BMP,resources/DB.BMP,WildCard_NonEx,0.286614173,-0.086614173,1,0,0,1.6802,optionRight,55,3725,2,29,0,29,0,1,,,,,,,,,,,,,,,,,,,,,,,,,,,,,,,,,,,,,,,
,,,,,,,611a8d23c1d17506a23df589,2023-08-06_08h23.52.984,HF_wild_card,2022.2.4,Win32,60.09254252,611a8d23c1d17506a23df589,64ce5acb97489d65b14ecc7a,64cf4a1a1ef27e1f87418d4b,,,,,,,decisionTrl,resources/DR.BMP,resources/DB.BMP,Door3,-0.229133858,0.105511811,1,0,0,0.7785,optionLeft,70,3795,2,30,0,30,0,1,,,,,,,,,,,,,,,,,,,,,,,,,,,,,,,,,,,,,,,
,,,,,,,611a8d23c1d17506a23df589,2023-08-06_08h23.52.984,HF_wild_card,2022.2.4,Win32,60.09254252,611a8d23c1d17506a23df589,64ce5acb97489d65b14ecc7a,64cf4a1a1ef27e1f87418d4b,,,,,,,decisionTrl,resources/DP.BMP,resources/DR.BMP,Door4,-0.266141732,0.025984252,1,0,0,0.7463,optionLeft,60,3855,2,31,0,31,0,1,,,,,,,,,,,,,,,,,,,,,,,,,,,,,,,,,,,,,,,
,,,,,,,611a8d23c1d17506a23df589,2023-08-06_08h23.52.984,HF_wild_card,2022.2.4,Win32,60.09254252,611a8d23c1d17506a23df589,64ce5acb97489d65b14ecc7a,64cf4a1a1ef27e1f87418d4b,,,,,,,decisionTrl,resources/DP.BMP,resources/DR.BMP,Door4,-0.208661417,0.108661417,1,0,0,0.9287,optionLeft,80,3935,2,32,0,32,0,1,,,,,,,,,,,,,,,,,,,,,,,,,,,,,,,,,,,,,,,
,,,,,,,611a8d23c1d17506a23df589,2023-08-06_08h23.52.984,HF_wild_card,2022.2.4,Win32,60.09254252,611a8d23c1d17506a23df589,64ce5acb97489d65b14ecc7a,64cf4a1a1ef27e1f87418d4b,,,,,,,decisionTrl,resources/DBN.BMP,resources/DY.BMP,Door2,-0.15511811,0.062204724,1,0,0,1.2299,optionLeft,20,3955,2,33,0,33,0,1,,,,,,,,,,,,,,,,,,,,,,,,,,,,,,,,,,,,,,,
,,,,,,,611a8d23c1d17506a23df589,2023-08-06_08h23.52.984,HF_wild_card,2022.2.4,Win32,60.09254252,611a8d23c1d17506a23df589,64ce5acb97489d65b14ecc7a,64cf4a1a1ef27e1f87418d4b,,,,,,,decisionTrl,resources/DR.BMP,resources/DP.BMP,Door4,0.219685039,-0.027559055,1,0,0,0.6953,optionRight,60,4015,2,34,0,34,0,1,,,,,,,,,,,,,,,,,,,,,,,,,,,,,,,,,,,,,,,
,,,,,,,611a8d23c1d17506a23df589,2023-08-06_08h23.52.984,HF_wild_card,2022.2.4,Win32,60.09254252,611a8d23c1d17506a23df589,64ce5acb97489d65b14ecc7a,64cf4a1a1ef27e1f87418d4b,,,,,,,decisionTrl,resources/DP.BMP,resources/DB.BMP,Door4,-0.309448819,0.092125984,1,0,0,0.7627,optionLeft,60,4075,2,35,0,35,0,1,,,,,,,,,,,,,,,,,,,,,,,,,,,,,,,,,,,,,,,
,,,,,,,611a8d23c1d17506a23df589,2023-08-06_08h23.52.984,HF_wild_card,2022.2.4,Win32,60.09254252,611a8d23c1d17506a23df589,64ce5acb97489d65b14ecc7a,64cf4a1a1ef27e1f87418d4b,,,,,,,ctch,resources/DY.BMP,resources/DP.BMP,Door4,0.236220472,-0.004724409,1,0,0,0.7284,optionRight,80,4155,2,36,0,36,0,1,,,,,,,,,,,,,,,,,,,,,,,,,,,,,,,,,,,,,,,
,,,,,,,611a8d23c1d17506a23df589,2023-08-06_08h23.52.984,HF_wild_card,2022.2.4,Win32,60.09254252,611a8d23c1d17506a23df589,64ce5acb97489d65b14ecc7a,64cf4a1a1ef27e1f87418d4b,,,,,,,sngl,resources/DBN.BMP,resources/Empty.png,Door2,-0.188976378,0.04488189,1,0,0,4.8431,optionLeft,20,4175,2,37,0,37,0,1,,,,,,,,,,,,,,,,,,,,,,,,,,,,,,,,,,,,,,,
,,,,,,,611a8d23c1d17506a23df589,2023-08-06_08h23.52.984,HF_wild_card,2022.2.4,Win32,60.09254252,611a8d23c1d17506a23df589,64ce5acb97489d65b14ecc7a,64cf4a1a1ef27e1f87418d4b,,,,,,,sngl,resources/DB.BMP,resources/Empty.png,WildCard_NonEx,-0.255905512,0.076377953,1,0,0,0.9496,optionLeft,55,4230,2,38,0,38,0,1,,,,,,,,,,,,,,,,,,,,,,,,,,,,,,,,,,,,,,,
,,,,,,,611a8d23c1d17506a23df589,2023-08-06_08h23.52.984,HF_wild_card,2022.2.4,Win32,60.09254252,611a8d23c1d17506a23df589,64ce5acb97489d65b14ecc7a,64cf4a1a1ef27e1f87418d4b,,,,,,,sngl,resources/Empty.png,resources/DB.BMP,WildCard_NonEx,0.238582677,0.040944882,1,0,0,0.6953,optionRight,55,4285,2,39,0,39,0,1,,,,,,,,,,,,,,,,,,,,,,,,,,,,,,,,,,,,,,,
,,,,,,,611a8d23c1d17506a23df589,2023-08-06_08h23.52.984,HF_wild_card,2022.2.4,Win32,60.09254252,611a8d23c1d17506a23df589,64ce5acb97489d65b14ecc7a,64cf4a1a1ef27e1f87418d4b,,,,,,,ctch,resources/DY.BMP,resources/DP.BMP,Door4,0.187401575,0.085826772,1,0,0,0.8466,optionRight,80,4365,2,40,0,40,0,1,,,,,,,,,,,,,,,,,,,,,,,,,,,,,,,,,,,,,,,
,,,,,,,611a8d23c1d17506a23df589,2023-08-06_08h23.52.984,HF_wild_card,2022.2.4,Win32,60.09254252,611a8d23c1d17506a23df589,64ce5acb97489d65b14ecc7a,64cf4a1a1ef27e1f87418d4b,,,,,,,decisionTrl,resources/DB.BMP,resources/DBN.BMP,WildCard_NonEx,-0.171653543,0.065354331,1,0,0,1.4505,optionLeft,55,4420,2,41,0,41,0,1,,,,,,,,,,,,,,,,,,,,,,,,,,,,,,,,,,,,,,,
,,,,,,,611a8d23c1d17506a23df589,2023-08-06_08h23.52.984,HF_wild_card,2022.2.4,Win32,60.09254252,611a8d23c1d17506a23df589,64ce5acb97489d65b14ecc7a,64cf4a1a1ef27e1f87418d4b,,,,,,,decisionTrl,resources/DBN.BMP,resources/DY.BMP,Door1,0.227559055,-0.008661417,1,0,0,0.8788,optionRight,30,4450,2,42,0,42,0,1,,,,,,,,,,,,,,,,,,,,,,,,,,,,,,,,,,,,,,,
,,,,,,,611a8d23c1d17506a23df589,2023-08-06_08h23.52.984,HF_wild_card,2022.2.4,Win32,60.09254252,611a8d23c1d17506a23df589,64ce5acb97489d65b14ecc7a,64cf4a1a1ef27e1f87418d4b,,,,,,,sngl,resources/DB.BMP,resources/Empty.png,WildCard_NonEx,-0.243307087,0.04488189,1,0,0,0.6181,optionLeft,45,4495,2,43,0,43,0,1,,,,,,,,,,,,,,,,,,,,,,,,,,,,,,,,,,,,,,,
,,,,,,,611a8d23c1d17506a23df589,2023-08-06_08h23.52.984,HF_wild_card,2022.2.4,Win32,60.09254252,611a8d23c1d17506a23df589,64ce5acb97489d65b14ecc7a,64cf4a1a1ef27e1f87418d4b,,,,,,,,,,,,,,,,,,,,,,,,,,1,0,1,0,1,,,,,,,,,,,,,,,,,,,,,,,,,,,,,,,,,,
,,,,,,,611a8d23c1d17506a23df589,2023-08-06_08h23.52.984,HF_wild_card,2022.2.4,Win32,60.09254252,611a8d23c1d17506a23df589,64ce5acb97489d65b14ecc7a,64cf4a1a1ef27e1f87418d4b,,,,,,,decisionTrl,resources/DY.BMP,resources/DBN.BMP,Door1,-0.216535433,0.05984252,1,0,0,1.2426,optionLeft,30,4525,3,0,0,0,0,1,,,,,,,,,,,,,,,,,,,,,,,,,,,,,,,,,,,,,,,
,,,,,,,611a8d23c1d17506a23df589,2023-08-06_08h23.52.984,HF_wild_card,2022.2.4,Win32,60.09254252,611a8d23c1d17506a23df589,64ce5acb97489d65b14ecc7a,64cf4a1a1ef27e1f87418d4b,,,,,,,sngl,resources/Empty.png,resources/DB.BMP,WildCard_NonEx,0.306299213,0.103937008,1,0,0,0.4114,optionRight,45,4570,3,1,0,1,0,1,,,,,,,,,,,,,,,,,,,,,,,,,,,,,,,,,,,,,,,
,,,,,,,611a8d23c1d17506a23df589,2023-08-06_08h23.52.984,HF_wild_card,2022.2.4,Win32,60.09254252,611a8d23c1d17506a23df589,64ce5acb97489d65b14ecc7a,64cf4a1a1ef27e1f87418d4b,,,,,,,sngl,resources/DY.BMP,resources/Empty.png,Door1,-0.24488189,0.055905512,1,0,0,0.7124,optionLeft,30,4600,3,2,0,2,0,1,,,,,,,,,,,,,,,,,,,,,,,,,,,,,,,,,,,,,,,
,,,,,,,611a8d23c1d17506a23df589,2023-08-06_08h23.52.984,HF_wild_card,2022.2.4,Win32,60.09254252,611a8d23c1d17506a23df589,64ce5acb97489d65b14ecc7a,64cf4a1a1ef27e1f87418d4b,,,,,,,decisionTrl,resources/DBN.BMP,resources/DY.BMP,Door1,0.304724409,0.157480315,1,0,0,0.5116,optionRight,30,4630,3,3,0,3,0,1,,,,,,,,,,,,,,,,,,,,,,,,,,,,,,,,,,,,,,,
,,,,,,,611a8d23c1d17506a23df589,2023-08-06_08h23.52.984,HF_wild_card,2022.2.4,Win32,60.09254252,611a8d23c1d17506a23df589,64ce5acb97489d65b14ecc7a,64cf4a1a1ef27e1f87418d4b,,,,,,,sngl,resources/Empty.png,resources/DBN.BMP,Door2,0.268503937,0.153543307,1,0,0,0.5459,optionRight,20,4650,3,4,0,4,0,1,,,,,,,,,,,,,,,,,,,,,,,,,,,,,,,,,,,,,,,
,,,,,,,611a8d23c1d17506a23df589,2023-08-06_08h23.52.984,HF_wild_card,2022.2.4,Win32,60.09254252,611a8d23c1d17506a23df589,64ce5acb97489d65b14ecc7a,64cf4a1a1ef27e1f87418d4b,,,,,,,sngl,resources/Empty.png,resources/DP.BMP,Door4,0.348818898,0.157480315,1,0,0,0.6792,optionRight,60,4710,3,5,0,5,0,1,,,,,,,,,,,,,,,,,,,,,,,,,,,,,,,,,,,,,,,
,,,,,,,611a8d23c1d17506a23df589,2023-08-06_08h23.52.984,HF_wild_card,2022.2.4,Win32,60.09254252,611a8d23c1d17506a23df589,64ce5acb97489d65b14ecc7a,64cf4a1a1ef27e1f87418d4b,,,,,,,decisionTrl,resources/DBN.BMP,resources/DB.BMP,WildCard_NonEx,0.322834646,0.105511811,1,0,0,1.5302,optionRight,55,4765,3,6,0,6,0,1,,,,,,,,,,,,,,,,,,,,,,,,,,,,,,,,,,,,,,,
,,,,,,,611a8d23c1d17506a23df589,2023-08-06_08h23.52.984,HF_wild_card,2022.2.4,Win32,60.09254252,611a8d23c1d17506a23df589,64ce5acb97489d65b14ecc7a,64cf4a1a1ef27e1f87418d4b,,,,,,,decisionTrl,resources/DBN.BMP,resources/DY.BMP,Door1,0.338582677,0.14015748,1,0,0,0.8126,optionRight,30,4795,3,7,0,7,0,1,,,,,,,,,,,,,,,,,,,,,,,,,,,,,,,,,,,,,,,
,,,,,,,611a8d23c1d17506a23df589,2023-08-06_08h23.52.984,HF_wild_card,2022.2.4,Win32,60.09254252,611a8d23c1d17506a23df589,64ce5acb97489d65b14ecc7a,64cf4a1a1ef27e1f87418d4b,,,,,,,decisionTrl,resources/DR.BMP,resources/DP.BMP,Door4,0.362992126,0.149606299,1,0,0,1.5958,optionRight,80,4875,3,8,0,8,0,1,,,,,,,,,,,,,,,,,,,,,,,,,,,,,,,,,,,,,,,
,,,,,,,611a8d23c1d17506a23df589,2023-08-06_08h23.52.984,HF_wild_card,2022.2.4,Win32,60.09254252,611a8d23c1d17506a23df589,64ce5acb97489d65b14ecc7a,64cf4a1a1ef27e1f87418d4b,,,,,,,sngl,resources/DP.BMP,resources/Empty.png,Door4,-0.242519685,0.122834646,1,0,0,0.8121,optionLeft,80,4955,3,9,0,9,0,1,,,,,,,,,,,,,,,,,,,,,,,,,,,,,,,,,,,,,,,
,,,,,,,611a8d23c1d17506a23df589,2023-08-06_08h23.52.984,HF_wild_card,2022.2.4,Win32,60.09254252,611a8d23c1d17506a23df589,64ce5acb97489d65b14ecc7a,64cf4a1a1ef27e1f87418d4b,,,,,,,decisionTrl,resources/DY.BMP,resources/DBN.BMP,Door1,-0.236220472,0.030708661,1,0,0,1.6965,optionLeft,30,4985,3,10,0,10,0,1,,,,,,,,,,,,,,,,,,,,,,,,,,,,,,,,,,,,,,,
,,,,,,,611a8d23c1d17506a23df589,2023-08-06_08h23.52.984,HF_wild_card,2022.2.4,Win32,60.09254252,611a8d23c1d17506a23df589,64ce5acb97489d65b14ecc7a,64cf4a1a1ef27e1f87418d4b,,,,,,,decisionTrl,resources/DP.BMP,resources/DR.BMP,Door4,-0.203937008,0.081102362,1,0,0,1.4808,optionLeft,60,5045,3,11,0,11,0,1,,,,,,,,,,,,,,,,,,,,,,,,,,,,,,,,,,,,,,,
,,,,,,,611a8d23c1d17506a23df589,2023-08-06_08h23.52.984,HF_wild_card,2022.2.4,Win32,60.09254252,611a8d23c1d17506a23df589,64ce5acb97489d65b14ecc7a,64cf4a1a1ef27e1f87418d4b,,,,,,,decisionTrl,resources/DP.BMP,resources/DB.BMP,Door4,-0.221259843,0.051968504,1,0,0,1.3471,optionLeft,60,5105,3,12,0,12,0,1,,,,,,,,,,,,,,,,,,,,,,,,,,,,,,,,,,,,,,,
,,,,,,,611a8d23c1d17506a23df589,2023-08-06_08h23.52.984,HF_wild_card,2022.2.4,Win32,60.09254252,611a8d23c1d17506a23df589,64ce5acb97489d65b14ecc7a,64cf4a1a1ef27e1f87418d4b,,,,,,,ctch,resources/DY.BMP,resources/DP.BMP,Door4,0.304724409,0.104724409,1,0,0,1.546,optionRight,60,5165,3,13,0,13,0,1,,,,,,,,,,,,,,,,,,,,,,,,,,,,,,,,,,,,,,,
,,,,,,,611a8d23c1d17506a23df589,2023-08-06_08h23.52.984,HF_wild_card,2022.2.4,Win32,60.09254252,611a8d23c1d17506a23df589,64ce5acb97489d65b14ecc7a,64cf4a1a1ef27e1f87418d4b,,,,,,,sngl,resources/Empty.png,resources/DR.BMP,Door3,0.320472441,0.12519685,1,0,0,0.7457,optionRight,70,5235,3,14,0,14,0,1,,,,,,,,,,,,,,,,,,,,,,,,,,,,,,,,,,,,,,,
,,,,,,,611a8d23c1d17506a23df589,2023-08-06_08h23.52.984,HF_wild_card,2022.2.4,Win32,60.09254252,611a8d23c1d17506a23df589,64ce5acb97489d65b14ecc7a,64cf4a1a1ef27e1f87418d4b,,,,,,,decisionTrl,resources/DB.BMP,resources/DP.BMP,Door4,0.327559055,0.148818898,1,0,0,1.1128,optionRight,60,5295,3,15,0,15,0,1,,,,,,,,,,,,,,,,,,,,,,,,,,,,,,,,,,,,,,,
,,,,,,,611a8d23c1d17506a23df589,2023-08-06_08h23.52.984,HF_wild_card,2022.2.4,Win32,60.09254252,611a8d23c1d17506a23df589,64ce5acb97489d65b14ecc7a,64cf4a1a1ef27e1f87418d4b,,,,,,,decisionTrl,resources/DR.BMP,resources/DP.BMP,Door4,0.296850394,0.103149606,1,0,0,1.0794,optionRight,80,5375,3,16,0,16,0,1,,,,,,,,,,,,,,,,,,,,,,,,,,,,,,,,,,,,,,,
,,,,,,,611a8d23c1d17506a23df589,2023-08-06_08h23.52.984,HF_wild_card,2022.2.4,Win32,60.09254252,611a8d23c1d17506a23df589,64ce5acb97489d65b14ecc7a,64cf4a1a1ef27e1f87418d4b,,,,,,,decisionTrl,resources/DBN.BMP,resources/DY.BMP,Door2,-0.292913386,0.123622047,1,0,0,1.247,optionLeft,20,5395,3,17,0,17,0,1,,,,,,,,,,,,,,,,,,,,,,,,,,,,,,,,,,,,,,,
,,,,,,,611a8d23c1d17506a23df589,2023-08-06_08h23.52.984,HF_wild_card,2022.2.4,Win32,60.09254252,611a8d23c1d17506a23df589,64ce5acb97489d65b14ecc7a,64cf4a1a1ef27e1f87418d4b,,,,,,,ctch,resources/DBN.BMP,resources/DR.BMP,Door2,-0.216535433,0.054330709,1,0,0,1.4634,optionLeft,40,5435,3,18,0,18,0,1,,,,,,,,,,,,,,,,,,,,,,,,,,,,,,,,,,,,,,,
,,,,,,,611a8d23c1d17506a23df589,2023-08-06_08h23.52.984,HF_wild_card,2022.2.4,Win32,60.09254252,611a8d23c1d17506a23df589,64ce5acb97489d65b14ecc7a,64cf4a1a1ef27e1f87418d4b,,,,,,,decisionTrl,resources/DB.BMP,resources/DY.BMP,Door1,0.299212598,0.118897638,1,0,0,1.2452,optionRight,30,5465,3,19,0,19,0,1,,,,,,,,,,,,,,,,,,,,,,,,,,,,,,,,,,,,,,,
,,,,,,,611a8d23c1d17506a23df589,2023-08-06_08h23.52.984,HF_wild_card,2022.2.4,Win32,60.09254252,611a8d23c1d17506a23df589,64ce5acb97489d65b14ecc7a,64cf4a1a1ef27e1f87418d4b,,,,,,,ctch,resources/DY.BMP,resources/DP.BMP,Door4,0.322834646,0.156692913,1,0,0,0.6301,optionRight,60,5525,3,20,0,20,0,1,,,,,,,,,,,,,,,,,,,,,,,,,,,,,,,,,,,,,,,
,,,,,,,611a8d23c1d17506a23df589,2023-08-06_08h23.52.984,HF_wild_card,2022.2.4,Win32,60.09254252,611a8d23c1d17506a23df589,64ce5acb97489d65b14ecc7a,64cf4a1a1ef27e1f87418d4b,,,,,,,decisionTrl,resources/DR.BMP,resources/DP.BMP,Door4,0.299212598,0.133858268,1,0,0,0.7634,optionRight,80,5605,3,21,0,21,0,1,,,,,,,,,,,,,,,,,,,,,,,,,,,,,,,,,,,,,,,
,,,,,,,611a8d23c1d17506a23df589,2023-08-06_08h23.52.984,HF_wild_card,2022.2.4,Win32,60.09254252,611a8d23c1d17506a23df589,64ce5acb97489d65b14ecc7a,64cf4a1a1ef27e1f87418d4b,,,,,,,ctch,resources/DP.BMP,resources/DY.BMP,Door4,-0.220472441,0.07007874,1,0,0,1.547,optionLeft,60,5665,3,22,0,22,0,1,,,,,,,,,,,,,,,,,,,,,,,,,,,,,,,,,,,,,,,
,,,,,,,611a8d23c1d17506a23df589,2023-08-06_08h23.52.984,HF_wild_card,2022.2.4,Win32,60.09254252,611a8d23c1d17506a23df589,64ce5acb97489d65b14ecc7a,64cf4a1a1ef27e1f87418d4b,,,,,,,decisionTrl,resources/DR.BMP,resources/DB.BMP,Door3,-0.184251969,-0.011023622,1,0,0,0.9143,optionLeft,70,5735,3,23,0,23,0,1,,,,,,,,,,,,,,,,,,,,,,,,,,,,,,,,,,,,,,,
,,,,,,,611a8d23c1d17506a23df589,2023-08-06_08h23.52.984,HF_wild_card,2022.2.4,Win32,60.09254252,611a8d23c1d17506a23df589,64ce5acb97489d65b14ecc7a,64cf4a1a1ef27e1f87418d4b,,,,,,,sngl,resources/DB.BMP,resources/Empty.png,WildCard_NonEx,-0.261417323,0.092913386,1,0,0,0.913,optionLeft,55,5790,3,24,0,24,0,1,,,,,,,,,,,,,,,,,,,,,,,,,,,,,,,,,,,,,,,
,,,,,,,611a8d23c1d17506a23df589,2023-08-06_08h23.52.984,HF_wild_card,2022.2.4,Win32,60.09254252,611a8d23c1d17506a23df589,64ce5acb97489d65b14ecc7a,64cf4a1a1ef27e1f87418d4b,,,,,,,decisionTrl,resources/DY.BMP,resources/DBN.BMP,Door2,0.347244094,0.100787402,1,0,0,0.645,optionRight,20,5810,3,25,0,25,0,1,,,,,,,,,,,,,,,,,,,,,,,,,,,,,,,,,,,,,,,
,,,,,,,611a8d23c1d17506a23df589,2023-08-06_08h23.52.984,HF_wild_card,2022.2.4,Win32,60.09254252,611a8d23c1d17506a23df589,64ce5acb97489d65b14ecc7a,64cf4a1a1ef27e1f87418d4b,,,,,,,ctch,resources/DP.BMP,resources/DY.BMP,Door4,-0.207086614,-0.003937008,1,0,0,0.5787,optionLeft,80,5890,3,26,0,26,0,1,,,,,,,,,,,,,,,,,,,,,,,,,,,,,,,,,,,,,,,
,,,,,,,611a8d23c1d17506a23df589,2023-08-06_08h23.52.984,HF_wild_card,2022.2.4,Win32,60.09254252,611a8d23c1d17506a23df589,64ce5acb97489d65b14ecc7a,64cf4a1a1ef27e1f87418d4b,,,,,,,decisionTrl,resources/DY.BMP,resources/DBN.BMP,Door1,-0.21023622,0.004724409,1,0,0,0.7634,optionLeft,30,5920,3,27,0,27,0,1,,,,,,,,,,,,,,,,,,,,,,,,,,,,,,,,,,,,,,,
,,,,,,,611a8d23c1d17506a23df589,2023-08-06_08h23.52.984,HF_wild_card,2022.2.4,Win32,60.09254252,611a8d23c1d17506a23df589,64ce5acb97489d65b14ecc7a,64cf4a1a1ef27e1f87418d4b,,,,,,,decisionTrl,resources/DB.BMP,resources/DBN.BMP,Door2,0.343307087,0.080314961,1,0,0,0.5461,optionRight,20,5940,3,28,0,28,0,1,,,,,,,,,,,,,,,,,,,,,,,,,,,,,,,,,,,,,,,
,,,,,,,611a8d23c1d17506a23df589,2023-08-06_08h23.52.984,HF_wild_card,2022.2.4,Win32,60.09254252,611a8d23c1d17506a23df589,64ce5acb97489d65b14ecc7a,64cf4a1a1ef27e1f87418d4b,,,,,,,decisionTrl,resources/DP.BMP,resources/DR.BMP,Door4,-0.199212598,0.043307087,1,0,0,0.6797,optionLeft,60,6000,3,29,0,29,0,1,,,,,,,,,,,,,,,,,,,,,,,,,,,,,,,,,,,,,,,
,,,,,,,611a8d23c1d17506a23df589,2023-08-06_08h23.52.984,HF_wild_card,2022.2.4,Win32,60.09254252,611a8d23c1d17506a23df589,64ce5acb97489d65b14ecc7a,64cf4a1a1ef27e1f87418d4b,,,,,,,decisionTrl,resources/DY.BMP,resources/DB.BMP,Door1,-0.204724409,-0.000787402,1,0,0,1.0791,optionLeft,30,6030,3,30,0,30,0,1,,,,,,,,,,,,,,,,,,,,,,,,,,,,,,,,,,,,,,,
,,,,,,,611a8d23c1d17506a23df589,2023-08-06_08h23.52.984,HF_wild_card,2022.2.4,Win32,60.09254252,611a8d23c1d17506a23df589,64ce5acb97489d65b14ecc7a,64cf4a1a1ef27e1f87418d4b,,,,,,,ctch,resources/DR.BMP,resources/DBN.BMP,Door2,0.284251969,0.096062992,1,0,0,0.6443,optionRight,40,6070,3,31,0,31,0,1,,,,,,,,,,,,,,,,,,,,,,,,,,,,,,,,,,,,,,,
,,,,,,,611a8d23c1d17506a23df589,2023-08-06_08h23.52.984,HF_wild_card,2022.2.4,Win32,60.09254252,611a8d23c1d17506a23df589,64ce5acb97489d65b14ecc7a,64cf4a1a1ef27e1f87418d4b,,,,,,,ctch,resources/DBN.BMP,resources/DR.BMP,Door3,0.236220472,0.103149606,1,0,0,0.998,optionRight,70,6140,3,32,0,32,0,1,,,,,,,,,,,,,,,,,,,,,,,,,,,,,,,,,,,,,,,
,,,,,,,611a8d23c1d17506a23df589,2023-08-06_08h23.52.984,HF_wild_card,2022.2.4,Win32,60.09254252,611a8d23c1d17506a23df589,64ce5acb97489d65b14ecc7a,64cf4a1a1ef27e1f87418d4b,,,,,,,sngl,resources/DB.BMP,resources/Empty.png,WildCard_NonEx,-0.24015748,0.035433071,1,0,0,0.7957,optionLeft,45,6185,3,33,0,33,0,1,,,,,,,,,,,,,,,,,,,,,,,,,,,,,,,,,,,,,,,
,,,,,,,611a8d23c1d17506a23df589,2023-08-06_08h23.52.984,HF_wild_card,2022.2.4,Win32,60.09254252,611a8d23c1d17506a23df589,64ce5acb97489d65b14ecc7a,64cf4a1a1ef27e1f87418d4b,,,,,,,decisionTrl,resources/DP.BMP,resources/DR.BMP,Door3,0.45511811,-0.054330709,1,0,0,1.262,optionRight,70,6255,3,34,0,34,0,1,,,,,,,,,,,,,,,,,,,,,,,,,,,,,,,,,,,,,,,
,,,,,,,611a8d23c1d17506a23df589,2023-08-06_08h23.52.984,HF_wild_card,2022.2.4,Win32,60.09254252,611a8d23c1d17506a23df589,64ce5acb97489d65b14ecc7a,64cf4a1a1ef27e1f87418d4b,,,,,,,decisionTrl,resources/DBN.BMP,resources/DY.BMP,Door2,-0.273228346,0.007086614,1,0,0,1.5967,optionLeft,20,6275,3,35,0,35,0,1,,,,,,,,,,,,,,,,,,,,,,,,,,,,,,,,,,,,,,,
,,,,,,,611a8d23c1d17506a23df589,2023-08-06_08h23.52.984,HF_wild_card,2022.2.4,Win32,60.09254252,611a8d23c1d17506a23df589,64ce5acb97489d65b14ecc7a,64cf4a1a1ef27e1f87418d4b,,,,,,,sngl,resources/Empty.png,resources/DY.BMP,Door1,0.231496063,0.006299213,1,0,0,0.681,optionRight,30,6305,3,36,0,36,0,1,,,,,,,,,,,,,,,,,,,,,,,,,,,,,,,,,,,,,,,
,,,,,,,611a8d23c1d17506a23df589,2023-08-06_08h23.52.984,HF_wild_card,2022.2.4,Win32,60.09254252,611a8d23c1d17506a23df589,64ce5acb97489d65b14ecc7a,64cf4a1a1ef27e1f87418d4b,,,,,,,sngl,resources/Empty.png,resources/DB.BMP,WildCard_NonEx,0.217322835,0.011023622,1,0,0,0.6796,optionRight,55,6360,3,37,0,37,0,1,,,,,,,,,,,,,,,,,,,,,,,,,,,,,,,,,,,,,,,
,,,,,,,611a8d23c1d17506a23df589,2023-08-06_08h23.52.984,HF_wild_card,2022.2.4,Win32,60.09254252,611a8d23c1d17506a23df589,64ce5acb97489d65b14ecc7a,64cf4a1a1ef27e1f87418d4b,,,,,,,ctch,resources/DR.BMP,resources/DBN.BMP,Door3,-0.187401575,-0.01496063,1,0,0,1.4945,optionLeft,70,6430,3,38,0,38,0,1,,,,,,,,,,,,,,,,,,,,,,,,,,,,,,,,,,,,,,,
,,,,,,,611a8d23c1d17506a23df589,2023-08-06_08h23.52.984,HF_wild_card,2022.2.4,Win32,60.09254252,611a8d23c1d17506a23df589,64ce5acb97489d65b14ecc7a,64cf4a1a1ef27e1f87418d4b,,,,,,,decisionTrl,resources/DR.BMP,resources/DP.BMP,Door4,0.196062992,0.001574803,1,0,0,0.7796,optionRight,60,6490,3,39,0,39,0,1,,,,,,,,,,,,,,,,,,,,,,,,,,,,,,,,,,,,,,,
,,,,,,,611a8d23c1d17506a23df589,2023-08-06_08h23.52.984,HF_wild_card,2022.2.4,Win32,60.09254252,611a8d23c1d17506a23df589,64ce5acb97489d65b14ecc7a,64cf4a1a1ef27e1f87418d4b,,,,,,,sngl,resources/DBN.BMP,resources/Empty.png,Door2,-0.216535433,0.008661417,1,0,0,0.8628,optionLeft,40,6530,3,40,0,40,0,1,,,,,,,,,,,,,,,,,,,,,,,,,,,,,,,,,,,,,,,
,,,,,,,611a8d23c1d17506a23df589,2023-08-06_08h23.52.984,HF_wild_card,2022.2.4,Win32,60.09254252,611a8d23c1d17506a23df589,64ce5acb97489d65b14ecc7a,64cf4a1a1ef27e1f87418d4b,,,,,,,decisionTrl,resources/DP.BMP,resources/DR.BMP,Door4,-0.22992126,-0.002362205,1,0,0,0.8285,optionLeft,80,6610,3,41,0,41,0,1,,,,,,,,,,,,,,,,,,,,,,,,,,,,,,,,,,,,,,,
,,,,,,,611a8d23c1d17506a23df589,2023-08-06_08h23.52.984,HF_wild_card,2022.2.4,Win32,60.09254252,611a8d23c1d17506a23df589,64ce5acb97489d65b14ecc7a,64cf4a1a1ef27e1f87418d4b,,,,,,,decisionTrl,resources/DB.BMP,resources/DR.BMP,Door3,0.214173228,0.054330709,1,0,0,2.0291,optionRight,70,6680,3,42,0,42,0,1,,,,,,,,,,,,,,,,,,,,,,,,,,,,,,,,,,,,,,,
,,,,,,,611a8d23c1d17506a23df589,2023-08-06_08h23.52.984,HF_wild_card,2022.2.4,Win32,60.09254252,611a8d23c1d17506a23df589,64ce5acb97489d65b14ecc7a,64cf4a1a1ef27e1f87418d4b,,,,,,,sngl,resources/DR.BMP,resources/Empty.png,Door3,-0.265354331,0.058267717,1,0,0,0.7796,optionLeft,70,6750,3,43,0,43,0,1,,,,,,,,,,,,,,,,,,,,,,,,,,,,,,,,,,,,,,,
,,,,,,,611a8d23c1d17506a23df589,2023-08-06_08h23.52.984,HF_wild_card,2022.2.4,Win32,60.09254252,611a8d23c1d17506a23df589,64ce5acb97489d65b14ecc7a,64cf4a1a1ef27e1f87418d4b,,,,,,,,,,,,,,,,,,,,,,,,,,2,0,2,0,1,,,,,,,,,,,,,,,,,,,,,,,,,,,,,,,,,,
,,,,,,,611a8d23c1d17506a23df589,2023-08-06_08h23.52.984,HF_wild_card,2022.2.4,Win32,60.09254252,611a8d23c1d17506a23df589,64ce5acb97489d65b14ecc7a,64cf4a1a1ef27e1f87418d4b,,,,,,,sngl,resources/DG.BMP,resources/Empty.png,WildCard_Ex,-0.234645669,-0.048031496,1,0,0,1.7072,optionLeft,55,6805,4,0,0,0,0,1,,,,,,,,,,,,,,,,,,,,,,,,,,,,,,,,,,,,,,,
,,,,,,,611a8d23c1d17506a23df589,2023-08-06_08h23.52.984,HF_wild_card,2022.2.4,Win32,60.09254252,611a8d23c1d17506a23df589,64ce5acb97489d65b14ecc7a,64cf4a1a1ef27e1f87418d4b,,,,,,,decisionTrl,resources/DP.BMP,resources/DR.BMP,Door4,-0.277165354,0.022834646,1,0,0,0.78,optionLeft,80,6885,4,1,0,1,0,1,,,,,,,,,,,,,,,,,,,,,,,,,,,,,,,,,,,,,,,
,,,,,,,611a8d23c1d17506a23df589,2023-08-06_08h23.52.984,HF_wild_card,2022.2.4,Win32,60.09254252,611a8d23c1d17506a23df589,64ce5acb97489d65b14ecc7a,64cf4a1a1ef27e1f87418d4b,,,,,,,decisionTrl,resources/DR.BMP,resources/DG.BMP,Door3,-0.237795276,0.019685039,1,0,0,0.9613,optionLeft,70,6955,4,2,0,2,0,1,,,,,,,,,,,,,,,,,,,,,,,,,,,,,,,,,,,,,,,
,,,,,,,611a8d23c1d17506a23df589,2023-08-06_08h23.52.984,HF_wild_card,2022.2.4,Win32,60.09254252,611a8d23c1d17506a23df589,64ce5acb97489d65b14ecc7a,64cf4a1a1ef27e1f87418d4b,,,,,,,decisionTrl,resources/DG.BMP,resources/DP.BMP,Door4,0.32992126,0.104724409,1,0,0,0.9148,optionRight,80,7035,4,3,0,3,0,1,,,,,,,,,,,,,,,,,,,,,,,,,,,,,,,,,,,,,,,
,,,,,,,611a8d23c1d17506a23df589,2023-08-06_08h23.52.984,HF_wild_card,2022.2.4,Win32,60.09254252,611a8d23c1d17506a23df589,64ce5acb97489d65b14ecc7a,64cf4a1a1ef27e1f87418d4b,,,,,,,decisionTrl,resources/DR.BMP,resources/DP.BMP,Door4,0.32992126,0.096062992,1,0,0,1.728,optionRight,60,7095,4,4,0,4,0,1,,,,,,,,,,,,,,,,,,,,,,,,,,,,,,,,,,,,,,,
,,,,,,,611a8d23c1d17506a23df589,2023-08-06_08h23.52.984,HF_wild_card,2022.2.4,Win32,60.09254252,611a8d23c1d17506a23df589,64ce5acb97489d65b14ecc7a,64cf4a1a1ef27e1f87418d4b,,,,,,,decisionTrl,resources/DG.BMP,resources/DBN.BMP,WildCard_Ex,-0.244094488,0.022834646,1,0,0,1.7466,optionLeft,55,7150,4,5,0,5,0,1,,,,,,,,,,,,,,,,,,,,,,,,,,,,,,,,,,,,,,,
,,,,,,,611a8d23c1d17506a23df589,2023-08-06_08h23.52.984,HF_wild_card,2022.2.4,Win32,60.09254252,611a8d23c1d17506a23df589,64ce5acb97489d65b14ecc7a,64cf4a1a1ef27e1f87418d4b,,,,,,,decisionTrl,resources/DBN.BMP,resources/DY.BMP,Door1,0.322834646,0.148031496,1,0,0,1.0455,optionRight,30,7180,4,6,0,6,0,1,,,,,,,,,,,,,,,,,,,,,,,,,,,,,,,,,,,,,,,
,,,,,,,611a8d23c1d17506a23df589,2023-08-06_08h23.52.984,HF_wild_card,2022.2.4,Win32,60.09254252,611a8d23c1d17506a23df589,64ce5acb97489d65b14ecc7a,64cf4a1a1ef27e1f87418d4b,,,,,,,decisionTrl,resources/DP.BMP,resources/DG.BMP,Door4,-0.218897638,0.051968504,1,0,0,1.2291,optionLeft,60,7240,4,7,0,7,0,1,,,,,,,,,,,,,,,,,,,,,,,,,,,,,,,,,,,,,,,
,,,,,,,611a8d23c1d17506a23df589,2023-08-06_08h23.52.984,HF_wild_card,2022.2.4,Win32,60.09254252,611a8d23c1d17506a23df589,64ce5acb97489d65b14ecc7a,64cf4a1a1ef27e1f87418d4b,,,,,,,sngl,resources/Empty.png,resources/DG.BMP,WildCard_Ex,0.300787402,0.095275591,1,0,0,0.8943,optionRight,55,7295,4,8,0,8,0,1,,,,,,,,,,,,,,,,,,,,,,,,,,,,,,,,,,,,,,,
,,,,,,,611a8d23c1d17506a23df589,2023-08-06_08h23.52.984,HF_wild_card,2022.2.4,Win32,60.09254252,611a8d23c1d17506a23df589,64ce5acb97489d65b14ecc7a,64cf4a1a1ef27e1f87418d4b,,,,,,,sngl,resources/Empty.png,resources/DY.BMP,Door1,0.329133858,0.136220472,1,0,0,0.7927,optionRight,30,7325,4,9,0,9,0,1,,,,,,,,,,,,,,,,,,,,,,,,,,,,,,,,,,,,,,,
,,,,,,,611a8d23c1d17506a23df589,2023-08-06_08h23.52.984,HF_wild_card,2022.2.4,Win32,60.09254252,611a8d23c1d17506a23df589,64ce5acb97489d65b14ecc7a,64cf4a1a1ef27e1f87418d4b,,,,,,,ctch,resources/DR.BMP,resources/DBN.BMP,Door3,-0.22992126,0.054330709,1,0,0,1.3844,optionLeft,70,7395,4,10,0,10,0,1,,,,,,,,,,,,,,,,,,,,,,,,,,,,,,,,,,,,,,,
,,,,,,,611a8d23c1d17506a23df589,2023-08-06_08h23.52.984,HF_wild_card,2022.2.4,Win32,60.09254252,611a8d23c1d17506a23df589,64ce5acb97489d65b14ecc7a,64cf4a1a1ef27e1f87418d4b,,,,,,,decisionTrl,resources/DR.BMP,resources/DP.BMP,Door4,0.307086614,0.127559055,1,0,0,0.6941,optionRight,80,7475,4,11,0,11,0,1,,,,,,,,,,,,,,,,,,,,,,,,,,,,,,,,,,,,,,,
,,,,,,,611a8d23c1d17506a23df589,2023-08-06_08h23.52.984,HF_wild_card,2022.2.4,Win32,60.09254252,611a8d23c1d17506a23df589,64ce5acb97489d65b14ecc7a,64cf4a1a1ef27e1f87418d4b,,,,,,,decisionTrl,resources/DBN.BMP,resources/DY.BMP,Door2,-0.211023622,-0.04488189,1,0,0,0.9793,optionLeft,40,7515,4,12,0,12,0,1,,,,,,,,,,,,,,,,,,,,,,,,,,,,,,,,,,,,,,,
,,,,,,,611a8d23c1d17506a23df589,2023-08-06_08h23.52.984,HF_wild_card,2022.2.4,Win32,60.09254252,611a8d23c1d17506a23df589,64ce5acb97489d65b14ecc7a,64cf4a1a1ef27e1f87418d4b,,,,,,,sngl,resources/DG.BMP,resources/Empty.png,WildCard_Ex,-0.211811024,0.033070866,1,0,0,2.0053,optionLeft,45,7560,4,13,0,13,0,1,,,,,,,,,,,,,,,,,,,,,,,,,,,,,,,,,,,,,,,
,,,,,,,611a8d23c1d17506a23df589,2023-08-06_08h23.52.984,HF_wild_card,2022.2.4,Win32,60.09254252,611a8d23c1d17506a23df589,64ce5acb97489d65b14ecc7a,64cf4a1a1ef27e1f87418d4b,,,,,,,sngl,resources/Empty.png,resources/DP.BMP,Door4,0.273228346,0.122047244,1,0,0,0.6471,optionRight,80,7640,4,14,0,14,0,1,,,,,,,,,,,,,,,,,,,,,,,,,,,,,,,,,,,,,,,
,,,,,,,611a8d23c1d17506a23df589,2023-08-06_08h23.52.984,HF_wild_card,2022.2.4,Win32,60.09254252,611a8d23c1d17506a23df589,64ce5acb97489d65b14ecc7a,64cf4a1a1ef27e1f87418d4b,,,,,,,sngl,resources/DP.BMP,resources/Empty.png,Door4,-0.253543307,-0.004724409,1,0,0,1.435,optionLeft,60,7700,4,15,0,15,0,1,,,,,,,,,,,,,,,,,,,,,,,,,,,,,,,,,,,,,,,
,,,,,,,611a8d23c1d17506a23df589,2023-08-06_08h23.52.984,HF_wild_card,2022.2.4,Win32,60.09254252,611a8d23c1d17506a23df589,64ce5acb97489d65b14ecc7a,64cf4a1a1ef27e1f87418d4b,,,,,,,decisionTrl,resources/DG.BMP,resources/DY.BMP,Door1,0.227559055,0.078740157,1,0,0,2.5778,optionRight,30,7730,4,16,0,16,0,1,,,,,,,,,,,,,,,,,,,,,,,,,,,,,,,,,,,,,,,
,,,,,,,611a8d23c1d17506a23df589,2023-08-06_08h23.52.984,HF_wild_card,2022.2.4,Win32,60.09254252,611a8d23c1d17506a23df589,64ce5acb97489d65b14ecc7a,64cf4a1a1ef27e1f87418d4b,,,,,,,decisionTrl,resources/DBN.BMP,resources/DG.BMP,WildCard_Ex,0.233858268,0.111811024,1,0,0,1.0846,optionRight,55,7785,4,17,0,17,0,1,,,,,,,,,,,,,,,,,,,,,,,,,,,,,,,,,,,,,,,
,,,,,,,611a8d23c1d17506a23df589,2023-08-06_08h23.52.984,HF_wild_card,2022.2.4,Win32,60.09254252,611a8d23c1d17506a23df589,64ce5acb97489d65b14ecc7a,64cf4a1a1ef27e1f87418d4b,,,,,,,decisionTrl,resources/DP.BMP,resources/DR.BMP,Door4,-0.211023622,-0.016535433,1,0,0,1.0468,optionLeft,80,7865,4,18,0,18,0,1,,,,,,,,,,,,,,,,,,,,,,,,,,,,,,,,,,,,,,,
,,,,,,,611a8d23c1d17506a23df589,2023-08-06_08h23.52.984,HF_wild_card,2022.2.4,Win32,60.09254252,611a8d23c1d17506a23df589,64ce5acb97489d65b14ecc7a,64cf4a1a1ef27e1f87418d4b,,,,,,,ctch,resources/DP.BMP,resources/DY.BMP,Door4,-0.222834646,-0.001574803,1,0,0,1.3811,optionLeft,60,7925,4,19,0,19,0,1,,,,,,,,,,,,,,,,,,,,,,,,,,,,,,,,,,,,,,,
,,,,,,,611a8d23c1d17506a23df589,2023-08-06_08h23.52.984,HF_wild_card,2022.2.4,Win32,60.09254252,611a8d23c1d17506a23df589,64ce5acb97489d65b14ecc7a,64cf4a1a1ef27e1f87418d4b,,,,,,,ctch,resources/DP.BMP,resources/DY.BMP,Door4,-0.238582677,0.056692913,1,0,0,0.7583,optionLeft,80,8005,4,20,0,20,0,1,,,,,,,,,,,,,,,,,,,,,,,,,,,,,,,,,,,,,,,
,,,,,,,611a8d23c1d17506a23df589,2023-08-06_08h23.52.984,HF_wild_card,2022.2.4,Win32,60.09254252,611a8d23c1d17506a23df589,64ce5acb97489d65b14ecc7a,64cf4a1a1ef27e1f87418d4b,,,,,,,sngl,resources/Empty.png,resources/DG.BMP,WildCard_Ex,0.228346457,0.109448819,1,0,0,0.9141,optionRight,45,8050,4,21,0,21,0,1,,,,,,,,,,,,,,,,,,,,,,,,,,,,,,,,,,,,,,,
,,,,,,,611a8d23c1d17506a23df589,2023-08-06_08h23.52.984,HF_wild_card,2022.2.4,Win32,60.09254252,611a8d23c1d17506a23df589,64ce5acb97489d65b14ecc7a,64cf4a1a1ef27e1f87418d4b,,,,,,,decisionTrl,resources/DP.BMP,resources/DR.BMP,Door4,-0.22519685,-0.018897638,1,0,0,0.8126,optionLeft,60,8110,4,22,0,22,0,1,,,,,,,,,,,,,,,,,,,,,,,,,,,,,,,,,,,,,,,
,,,,,,,611a8d23c1d17506a23df589,2023-08-06_08h23.52.984,HF_wild_card,2022.2.4,Win32,60.09254252,611a8d23c1d17506a23df589,64ce5acb97489d65b14ecc7a,64cf4a1a1ef27e1f87418d4b,,,,,,,sngl,resources/Empty.png,resources/DR.BMP,Door3,0.239370079,0.11496063,1,0,0,0.6578,optionRight,70,8180,4,23,0,23,0,1,,,,,,,,,,,,,,,,,,,,,,,,,,,,,,,,,,,,,,,
,,,,,,,611a8d23c1d17506a23df589,2023-08-06_08h23.52.984,HF_wild_card,2022.2.4,Win32,60.09254252,611a8d23c1d17506a23df589,64ce5acb97489d65b14ecc7a,64cf4a1a1ef27e1f87418d4b,,,,,,,sngl,resources/DR.BMP,resources/Empty.png,Door3,-0.25511811,0.003937008,1,0,0,0.6682,optionLeft,70,8250,4,24,0,24,0,1,,,,,,,,,,,,,,,,,,,,,,,,,,,,,,,,,,,,,,,
,,,,,,,611a8d23c1d17506a23df589,2023-08-06_08h23.52.984,HF_wild_card,2022.2.4,Win32,60.09254252,611a8d23c1d17506a23df589,64ce5acb97489d65b14ecc7a,64cf4a1a1ef27e1f87418d4b,,,,,,,decisionTrl,resources/DY.BMP,resources/DBN.BMP,Door1,-0.200787402,-0.022047244,1,0,0,1.2284,optionLeft,30,8280,4,25,0,25,0,1,,,,,,,,,,,,,,,,,,,,,,,,,,,,,,,,,,,,,,,
,,,,,,,611a8d23c1d17506a23df589,2023-08-06_08h23.52.984,HF_wild_card,2022.2.4,Win32,60.09254252,611a8d23c1d17506a23df589,64ce5acb97489d65b14ecc7a,64cf4a1a1ef27e1f87418d4b,,,,,,,decisionTrl,resources/DY.BMP,resources/DG.BMP,Door1,-0.190551181,-0.027559055,1,0,0,1.9574,optionLeft,30,8310,4,26,0,26,0,1,,,,,,,,,,,,,,,,,,,,,,,,,,,,,,,,,,,,,,,
,,,,,,,611a8d23c1d17506a23df589,2023-08-06_08h23.52.984,HF_wild_card,2022.2.4,Win32,60.09254252,611a8d23c1d17506a23df589,64ce5acb97489d65b14ecc7a,64cf4a1a1ef27e1f87418d4b,,,,,,,sngl,resources/DBN.BMP,resources/Empty.png,Door2,-0.232283465,-0.018110236,1,0,0,2.9788,optionLeft,20,8330,4,27,0,27,0,1,,,,,,,,,,,,,,,,,,,,,,,,,,,,,,,,,,,,,,,
,,,,,,,611a8d23c1d17506a23df589,2023-08-06_08h23.52.984,HF_wild_card,2022.2.4,Win32,60.09254252,611a8d23c1d17506a23df589,64ce5acb97489d65b14ecc7a,64cf4a1a1ef27e1f87418d4b,,,,,,,decisionTrl,resources/DR.BMP,resources/DP.BMP,Door4,0.288976378,0.040944882,1,0,0,0.6917,optionRight,80,8410,4,28,0,28,0,1,,,,,,,,,,,,,,,,,,,,,,,,,,,,,,,,,,,,,,,
,,,,,,,611a8d23c1d17506a23df589,2023-08-06_08h23.52.984,HF_wild_card,2022.2.4,Win32,60.09254252,611a8d23c1d17506a23df589,64ce5acb97489d65b14ecc7a,64cf4a1a1ef27e1f87418d4b,,,,,,,ctch,resources/DY.BMP,resources/DP.BMP,Door4,0.284251969,0.078740157,1,0,0,0.5924,optionRight,80,8490,4,29,0,29,0,1,,,,,,,,,,,,,,,,,,,,,,,,,,,,,,,,,,,,,,,
,,,,,,,611a8d23c1d17506a23df589,2023-08-06_08h23.52.984,HF_wild_card,2022.2.4,Win32,60.09254252,611a8d23c1d17506a23df589,64ce5acb97489d65b14ecc7a,64cf4a1a1ef27e1f87418d4b,,,,,,,ctch,resources/DR.BMP,resources/DBN.BMP,Door3,-0.214173228,0.061417323,1,0,0,1.0291,optionLeft,70,8560,4,30,0,30,0,1,,,,,,,,,,,,,,,,,,,,,,,,,,,,,,,,,,,,,,,
,,,,,,,611a8d23c1d17506a23df589,2023-08-06_08h23.52.984,HF_wild_card,2022.2.4,Win32,60.09254252,611a8d23c1d17506a23df589,64ce5acb97489d65b14ecc7a,64cf4a1a1ef27e1f87418d4b,,,,,,,decisionTrl,resources/DR.BMP,resources/DP.BMP,Door4,0.288188976,0.113385827,1,0,0,0.5962,optionRight,60,8620,4,31,0,31,0,1,,,,,,,,,,,,,,,,,,,,,,,,,,,,,,,,,,,,,,,
,,,,,,,611a8d23c1d17506a23df589,2023-08-06_08h23.52.984,HF_wild_card,2022.2.4,Win32,60.09254252,611a8d23c1d17506a23df589,64ce5acb97489d65b14ecc7a,64cf4a1a1ef27e1f87418d4b,,,,,,,ctch,resources/DBN.BMP,resources/DR.BMP,Door3,0.280314961,0.14015748,1,0,0,1.1292,optionRight,70,8690,4,32,0,32,0,1,,,,,,,,,,,,,,,,,,,,,,,,,,,,,,,,,,,,,,,
,,,,,,,611a8d23c1d17506a23df589,2023-08-06_08h23.52.984,HF_wild_card,2022.2.4,Win32,60.09254252,611a8d23c1d17506a23df589,64ce5acb97489d65b14ecc7a,64cf4a1a1ef27e1f87418d4b,,,,,,,decisionTrl,resources/DBN.BMP,resources/DY.BMP,Door1,0.211023622,0.087401575,1,0,0,1.0148,optionRight,30,8720,4,33,0,33,0,1,,,,,,,,,,,,,,,,,,,,,,,,,,,,,,,,,,,,,,,
,,,,,,,611a8d23c1d17506a23df589,2023-08-06_08h23.52.984,HF_wild_card,2022.2.4,Win32,60.09254252,611a8d23c1d17506a23df589,64ce5acb97489d65b14ecc7a,64cf4a1a1ef27e1f87418d4b,,,,,,,decisionTrl,resources/DBN.BMP,resources/DY.BMP,Door1,0.269291339,0.088188976,1,0,0,1.5292,optionRight,30,8750,4,34,0,34,0,1,,,,,,,,,,,,,,,,,,,,,,,,,,,,,,,,,,,,,,,
,,,,,,,611a8d23c1d17506a23df589,2023-08-06_08h23.52.984,HF_wild_card,2022.2.4,Win32,60.09254252,611a8d23c1d17506a23df589,64ce5acb97489d65b14ecc7a,64cf4a1a1ef27e1f87418d4b,,,,,,,decisionTrl,resources/DY.BMP,resources/DBN.BMP,Door1,-0.233858268,0.051968504,1,0,0,1.0802,optionLeft,30,8780,4,35,0,35,0,1,,,,,,,,,,,,,,,,,,,,,,,,,,,,,,,,,,,,,,,
,,,,,,,611a8d23c1d17506a23df589,2023-08-06_08h23.52.984,HF_wild_card,2022.2.4,Win32,60.09254252,611a8d23c1d17506a23df589,64ce5acb97489d65b14ecc7a,64cf4a1a1ef27e1f87418d4b,,,,,,,sngl,resources/Empty.png,resources/DBN.BMP,Door2,0.288188976,0.117322835,1,0,0,1.3798,optionRight,40,8820,4,36,0,36,0,1,,,,,,,,,,,,,,,,,,,,,,,,,,,,,,,,,,,,,,,
,,,,,,,611a8d23c1d17506a23df589,2023-08-06_08h23.52.984,HF_wild_card,2022.2.4,Win32,60.09254252,611a8d23c1d17506a23df589,64ce5acb97489d65b14ecc7a,64cf4a1a1ef27e1f87418d4b,,,,,,,decisionTrl,resources/DY.BMP,resources/DBN.BMP,Door1,-0.21023622,0.05511811,1,0,0,1.0288,optionLeft,30,8850,4,37,0,37,0,1,,,,,,,,,,,,,,,,,,,,,,,,,,,,,,,,,,,,,,,
,,,,,,,611a8d23c1d17506a23df589,2023-08-06_08h23.52.984,HF_wild_card,2022.2.4,Win32,60.09254252,611a8d23c1d17506a23df589,64ce5acb97489d65b14ecc7a,64cf4a1a1ef27e1f87418d4b,,,,,,,ctch,resources/DY.BMP,resources/DP.BMP,Door4,0.292913386,0.041732283,1,0,0,0.7028,optionRight,80,8930,4,38,0,38,0,1,,,,,,,,,,,,,,,,,,,,,,,,,,,,,,,,,,,,,,,
,,,,,,,611a8d23c1d17506a23df589,2023-08-06_08h23.52.984,HF_wild_card,2022.2.4,Win32,60.09254252,611a8d23c1d17506a23df589,64ce5acb97489d65b14ecc7a,64cf4a1a1ef27e1f87418d4b,,,,,,,sngl,resources/DY.BMP,resources/Empty.png,Door1,-0.236220472,0.030708661,1,0,0,0.8299,optionLeft,30,8960,4,39,0,39,0,1,,,,,,,,,,,,,,,,,,,,,,,,,,,,,,,,,,,,,,,
,,,,,,,611a8d23c1d17506a23df589,2023-08-06_08h23.52.984,HF_wild_card,2022.2.4,Win32,60.09254252,611a8d23c1d17506a23df589,64ce5acb97489d65b14ecc7a,64cf4a1a1ef27e1f87418d4b,,,,,,,decisionTrl,resources/DY.BMP,resources/DBN.BMP,Door1,-0.248818898,0.02519685,1,0,0,1.0478,optionLeft,30,8990,4,40,0,40,0,1,,,,,,,,,,,,,,,,,,,,,,,,,,,,,,,,,,,,,,,
,,,,,,,611a8d23c1d17506a23df589,2023-08-06_08h23.52.984,HF_wild_card,2022.2.4,Win32,60.09254252,611a8d23c1d17506a23df589,64ce5acb97489d65b14ecc7a,64cf4a1a1ef27e1f87418d4b,,,,,,,decisionTrl,resources/DG.BMP,resources/DR.BMP,Door3,0.337007874,0.009448819,1,0,0,4.1962,optionRight,70,9060,4,41,0,41,0,1,,,,,,,,,,,,,,,,,,,,,,,,,,,,,,,,,,,,,,,
,,,,,,,611a8d23c1d17506a23df589,2023-08-06_08h23.52.984,HF_wild_card,2022.2.4,Win32,60.09254252,611a8d23c1d17506a23df589,64ce5acb97489d65b14ecc7a,64cf4a1a1ef27e1f87418d4b,,,,,,,ctch,resources/DBN.BMP,resources/DR.BMP,Door3,0.32519685,0.054330709,1,0,0,0.862,optionRight,70,9130,4,42,0,42,0,1,,,,,,,,,,,,,,,,,,,,,,,,,,,,,,,,,,,,,,,
,,,,,,,611a8d23c1d17506a23df589,2023-08-06_08h23.52.984,HF_wild_card,2022.2.4,Win32,60.09254252,611a8d23c1d17506a23df589,64ce5acb97489d65b14ecc7a,64cf4a1a1ef27e1f87418d4b,,,,,,,decisionTrl,resources/DP.BMP,resources/DR.BMP,Door4,-0.198425197,0.008661417,1,0,0,0.9621,optionLeft,80,9210,4,43,0,43,0,1,,,,,,,,,,,,,,,,,,,,,,,,,,,,,,,,,,,,,,,
,,,,,,,611a8d23c1d17506a23df589,2023-08-06_08h23.52.984,HF_wild_card,2022.2.4,Win32,60.09254252,611a8d23c1d17506a23df589,64ce5acb97489d65b14ecc7a,64cf4a1a1ef27e1f87418d4b,,,,,,,,,,,,,,,,,,,,,,,,,,3,0,3,0,1,,,,,,,,,,,,,,,,,,,,,,,,,,,,,,,,,,
,,,,,,,611a8d23c1d17506a23df589,2023-08-06_08h23.52.984,HF_wild_card,2022.2.4,Win32,60.09254252,611a8d23c1d17506a23df589,64ce5acb97489d65b14ecc7a,64cf4a1a1ef27e1f87418d4b,,,,,,,sngl,resources/Empty.png,resources/DR.BMP,Door3,0.362992126,-0.003149606,1,0,0,0.593,optionRight,70,9280,5,0,0,0,0,1,,,,,,,,,,,,,,,,,,,,,,,,,,,,,,,,,,,,,,,
,,,,,,,611a8d23c1d17506a23df589,2023-08-06_08h23.52.984,HF_wild_card,2022.2.4,Win32,60.09254252,611a8d23c1d17506a23df589,64ce5acb97489d65b14ecc7a,64cf4a1a1ef27e1f87418d4b,,,,,,,ctch,resources/DBN.BMP,resources/DR.BMP,Door3,0.309448819,0.020472441,1,0,0,1.1804,optionRight,70,9350,5,1,0,1,0,1,,,,,,,,,,,,,,,,,,,,,,,,,,,,,,,,,,,,,,,
,,,,,,,611a8d23c1d17506a23df589,2023-08-06_08h23.52.984,HF_wild_card,2022.2.4,Win32,60.09254252,611a8d23c1d17506a23df589,64ce5acb97489d65b14ecc7a,64cf4a1a1ef27e1f87418d4b,,,,,,,ctch,resources/DR.BMP,resources/DBN.BMP,Door3,-0.233070866,0.039370079,1,0,0,0.9805,optionLeft,70,9420,5,2,0,2,0,1,,,,,,,,,,,,,,,,,,,,,,,,,,,,,,,,,,,,,,,
,,,,,,,611a8d23c1d17506a23df589,2023-08-06_08h23.52.984,HF_wild_card,2022.2.4,Win32,60.09254252,611a8d23c1d17506a23df589,64ce5acb97489d65b14ecc7a,64cf4a1a1ef27e1f87418d4b,,,,,,,sngl,resources/Empty.png,resources/DY.BMP,Door1,0.281889764,0.070866142,1,0,0,0.6131,optionRight,30,9450,5,3,0,3,0,1,,,,,,,,,,,,,,,,,,,,,,,,,,,,,,,,,,,,,,,
,,,,,,,611a8d23c1d17506a23df589,2023-08-06_08h23.52.984,HF_wild_card,2022.2.4,Win32,60.09254252,611a8d23c1d17506a23df589,64ce5acb97489d65b14ecc7a,64cf4a1a1ef27e1f87418d4b,,,,,,,decisionTrl,resources/DG.BMP,resources/DP.BMP,Door4,0.286614173,0.07007874,1,0,0,0.8119,optionRight,60,9510,5,4,0,4,0,1,,,,,,,,,,,,,,,,,,,,,,,,,,,,,,,,,,,,,,,
,,,,,,,611a8d23c1d17506a23df589,2023-08-06_08h23.52.984,HF_wild_card,2022.2.4,Win32,60.09254252,611a8d23c1d17506a23df589,64ce5acb97489d65b14ecc7a,64cf4a1a1ef27e1f87418d4b,,,,,,,decisionTrl,resources/DP.BMP,resources/DG.BMP,Door4,-0.258267717,0.080314961,1,0,0,0.9285,optionLeft,60,9570,5,5,0,5,0,1,,,,,,,,,,,,,,,,,,,,,,,,,,,,,,,,,,,,,,,
,,,,,,,611a8d23c1d17506a23df589,2023-08-06_08h23.52.984,HF_wild_card,2022.2.4,Win32,60.09254252,611a8d23c1d17506a23df589,64ce5acb97489d65b14ecc7a,64cf4a1a1ef27e1f87418d4b,,,,,,,decisionTrl,resources/DBN.BMP,resources/DY.BMP,Door1,0.24488189,0.087401575,1,0,0,0.8802,optionRight,30,9600,5,6,0,6,0,1,,,,,,,,,,,,,,,,,,,,,,,,,,,,,,,,,,,,,,,
,,,,,,,611a8d23c1d17506a23df589,2023-08-06_08h23.52.984,HF_wild_card,2022.2.4,Win32,60.09254252,611a8d23c1d17506a23df589,64ce5acb97489d65b14ecc7a,64cf4a1a1ef27e1f87418d4b,,,,,,,decisionTrl,resources/DY.BMP,resources/DBN.BMP,Door1,-0.248818898,0.07007874,1,0,0,0.9961,optionLeft,30,9630,5,7,0,7,0,1,,,,,,,,,,,,,,,,,,,,,,,,,,,,,,,,,,,,,,,
,,,,,,,611a8d23c1d17506a23df589,2023-08-06_08h23.52.984,HF_wild_card,2022.2.4,Win32,60.09254252,611a8d23c1d17506a23df589,64ce5acb97489d65b14ecc7a,64cf4a1a1ef27e1f87418d4b,,,,,,,decisionTrl,resources/DY.BMP,resources/DBN.BMP,Door1,-0.24488189,0.104724409,1,0,0,1.9129,optionLeft,30,9660,5,8,0,8,0,1,,,,,,,,,,,,,,,,,,,,,,,,,,,,,,,,,,,,,,,
,,,,,,,611a8d23c1d17506a23df589,2023-08-06_08h23.52.984,HF_wild_card,2022.2.4,Win32,60.09254252,611a8d23c1d17506a23df589,64ce5acb97489d65b14ecc7a,64cf4a1a1ef27e1f87418d4b,,,,,,,ctch,resources/DY.BMP,resources/DP.BMP,Door4,0.258267717,0.103937008,1,0,0,0.6277,optionRight,80,9740,5,9,0,9,0,1,,,,,,,,,,,,,,,,,,,,,,,,,,,,,,,,,,,,,,,
,,,,,,,611a8d23c1d17506a23df589,2023-08-06_08h23.52.984,HF_wild_card,2022.2.4,Win32,60.09254252,611a8d23c1d17506a23df589,64ce5acb97489d65b14ecc7a,64cf4a1a1ef27e1f87418d4b,,,,,,,ctch,resources/DP.BMP,resources/DY.BMP,Door4,-0.22992126,0.048031496,1,0,0,0.7112,optionLeft,80,9820,5,10,0,10,0,1,,,,,,,,,,,,,,,,,,,,,,,,,,,,,,,,,,,,,,,
,,,,,,,611a8d23c1d17506a23df589,2023-08-06_08h23.52.984,HF_wild_card,2022.2.4,Win32,60.09254252,611a8d23c1d17506a23df589,64ce5acb97489d65b14ecc7a,64cf4a1a1ef27e1f87418d4b,,,,,,,sngl,resources/DY.BMP,resources/Empty.png,Door1,-0.242519685,0.057480315,1,0,0,0.8476,optionLeft,30,9850,5,11,0,11,0,1,,,,,,,,,,,,,,,,,,,,,,,,,,,,,,,,,,,,,,,
,,,,,,,611a8d23c1d17506a23df589,2023-08-06_08h23.52.984,HF_wild_card,2022.2.4,Win32,60.09254252,611a8d23c1d17506a23df589,64ce5acb97489d65b14ecc7a,64cf4a1a1ef27e1f87418d4b,,,,,,,ctch,resources/DY.BMP,resources/DP.BMP,Door4,0.279527559,0.08503937,1,0,0,0.6462,optionRight,60,9910,5,12,0,12,0,1,,,,,,,,,,,,,,,,,,,,,,,,,,,,,,,,,,,,,,,
,,,,,,,611a8d23c1d17506a23df589,2023-08-06_08h23.52.984,HF_wild_card,2022.2.4,Win32,60.09254252,611a8d23c1d17506a23df589,64ce5acb97489d65b14ecc7a,64cf4a1a1ef27e1f87418d4b,,,,,,,decisionTrl,resources/DY.BMP,resources/DBN.BMP,Door2,0.24488189,0.086614173,1,0,0,0.7788,optionRight,20,9930,5,13,0,13,0,1,,,,,,,,,,,,,,,,,,,,,,,,,,,,,,,,,,,,,,,
,,,,,,,611a8d23c1d17506a23df589,2023-08-06_08h23.52.984,HF_wild_card,2022.2.4,Win32,60.09254252,611a8d23c1d17506a23df589,64ce5acb97489d65b14ecc7a,64cf4a1a1ef27e1f87418d4b,,,,,,,decisionTrl,resources/DR.BMP,resources/DP.BMP,Door4,0.250393701,0.076377953,1,0,0,0.6628,optionRight,80,10010,5,14,0,14,0,1,,,,,,,,,,,,,,,,,,,,,,,,,,,,,,,,,,,,,,,
,,,,,,,611a8d23c1d17506a23df589,2023-08-06_08h23.52.984,HF_wild_card,2022.2.4,Win32,60.09254252,611a8d23c1d17506a23df589,64ce5acb97489d65b14ecc7a,64cf4a1a1ef27e1f87418d4b,,,,,,,decisionTrl,resources/DG.BMP,resources/DBN.BMP,WildCard_Ex,-0.243307087,0.081889764,1,0,0,1.1961,optionLeft,45,10055,5,15,0,15,0,1,,,,,,,,,,,,,,,,,,,,,,,,,,,,,,,,,,,,,,,
,,,,,,,611a8d23c1d17506a23df589,2023-08-06_08h23.52.984,HF_wild_card,2022.2.4,Win32,60.09254252,611a8d23c1d17506a23df589,64ce5acb97489d65b14ecc7a,64cf4a1a1ef27e1f87418d4b,,,,,,,decisionTrl,resources/DP.BMP,resources/DR.BMP,Door4,-0.251181102,0.081102362,1,0,0,0.81,optionLeft,60,10115,5,16,0,16,0,1,,,,,,,,,,,,,,,,,,,,,,,,,,,,,,,,,,,,,,,
,,,,,,,611a8d23c1d17506a23df589,2023-08-06_08h23.52.984,HF_wild_card,2022.2.4,Win32,60.09254252,611a8d23c1d17506a23df589,64ce5acb97489d65b14ecc7a,64cf4a1a1ef27e1f87418d4b,,,,,,,decisionTrl,resources/DG.BMP,resources/DY.BMP,WildCard_Ex,-0.220472441,0.049606299,1,0,0,1.1465,optionLeft,45,10160,5,17,0,17,0,1,,,,,,,,,,,,,,,,,,,,,,,,,,,,,,,,,,,,,,,
,,,,,,,611a8d23c1d17506a23df589,2023-08-06_08h23.52.984,HF_wild_card,2022.2.4,Win32,60.09254252,611a8d23c1d17506a23df589,64ce5acb97489d65b14ecc7a,64cf4a1a1ef27e1f87418d4b,,,,,,,sngl,resources/Empty.png,resources/DG.BMP,WildCard_Ex,0.201574803,0.118897638,1,0,0,0.7806,optionRight,55,10215,5,18,0,18,0,1,,,,,,,,,,,,,,,,,,,,,,,,,,,,,,,,,,,,,,,
,,,,,,,611a8d23c1d17506a23df589,2023-08-06_08h23.52.984,HF_wild_card,2022.2.4,Win32,60.09254252,611a8d23c1d17506a23df589,64ce5acb97489d65b14ecc7a,64cf4a1a1ef27e1f87418d4b,,,,,,,decisionTrl,resources/DY.BMP,resources/DG.BMP,Door1,-0.192125984,0.007874016,1,0,0,2.247,optionLeft,30,10245,5,19,0,19,0,1,,,,,,,,,,,,,,,,,,,,,,,,,,,,,,,,,,,,,,,
,,,,,,,611a8d23c1d17506a23df589,2023-08-06_08h23.52.984,HF_wild_card,2022.2.4,Win32,60.09254252,611a8d23c1d17506a23df589,64ce5acb97489d65b14ecc7a,64cf4a1a1ef27e1f87418d4b,,,,,,,decisionTrl,resources/DR.BMP,resources/DP.BMP,Door4,0.239370079,0.108661417,1,0,0,0.5978,optionRight,60,10305,5,20,0,20,0,1,,,,,,,,,,,,,,,,,,,,,,,,,,,,,,,,,,,,,,,
,,,,,,,611a8d23c1d17506a23df589,2023-08-06_08h23.52.984,HF_wild_card,2022.2.4,Win32,60.09254252,611a8d23c1d17506a23df589,64ce5acb97489d65b14ecc7a,64cf4a1a1ef27e1f87418d4b,,,,,,,sngl,resources/DP.BMP,resources/Empty.png,Door4,-0.203937008,0.007086614,1,0,0,0.6627,optionLeft,80,10385,5,21,0,21,0,1,,,,,,,,,,,,,,,,,,,,,,,,,,,,,,,,,,,,,,,
,,,,,,,611a8d23c1d17506a23df589,2023-08-06_08h23.52.984,HF_wild_card,2022.2.4,Win32,60.09254252,611a8d23c1d17506a23df589,64ce5acb97489d65b14ecc7a,64cf4a1a1ef27e1f87418d4b,,,,,,,decisionTrl,resources/DR.BMP,resources/DP.BMP,Door4,0.233070866,0.122047244,1,0,0,0.6131,optionRight,80,10465,5,22,0,22,0,1,,,,,,,,,,,,,,,,,,,,,,,,,,,,,,,,,,,,,,,
,,,,,,,611a8d23c1d17506a23df589,2023-08-06_08h23.52.984,HF_wild_card,2022.2.4,Win32,60.09254252,611a8d23c1d17506a23df589,64ce5acb97489d65b14ecc7a,64cf4a1a1ef27e1f87418d4b,,,,,,,decisionTrl,resources/DP.BMP,resources/DR.BMP,Door4,-0.182677165,-0.016535433,1,0,0,0.7625,optionLeft,60,10525,5,23,0,23,0,1,,,,,,,,,,,,,,,,,,,,,,,,,,,,,,,,,,,,,,,
,,,,,,,611a8d23c1d17506a23df589,2023-08-06_08h23.52.984,HF_wild_card,2022.2.4,Win32,60.09254252,611a8d23c1d17506a23df589,64ce5acb97489d65b14ecc7a,64cf4a1a1ef27e1f87418d4b,,,,,,,decisionTrl,resources/DP.BMP,resources/DR.BMP,Door4,-0.18503937,-0.011023622,1,0,0,0.6631,optionLeft,80,10605,5,24,0,24,0,1,,,,,,,,,,,,,,,,,,,,,,,,,,,,,,,,,,,,,,,
,,,,,,,611a8d23c1d17506a23df589,2023-08-06_08h23.52.984,HF_wild_card,2022.2.4,Win32,60.09254252,611a8d23c1d17506a23df589,64ce5acb97489d65b14ecc7a,64cf4a1a1ef27e1f87418d4b,,,,,,,sngl,resources/Empty.png,resources/DBN.BMP,Door2,0.240944882,0.138582677,1,0,0,0.5969,optionRight,20,10625,5,25,0,25,0,1,,,,,,,,,,,,,,,,,,,,,,,,,,,,,,,,,,,,,,,
,,,,,,,611a8d23c1d17506a23df589,2023-08-06_08h23.52.984,HF_wild_card,2022.2.4,Win32,60.09254252,611a8d23c1d17506a23df589,64ce5acb97489d65b14ecc7a,64cf4a1a1ef27e1f87418d4b,,,,,,,decisionTrl,resources/DG.BMP,resources/DR.BMP,Door3,0.266929134,0.030708661,1,0,0,2.0633,optionRight,70,10695,5,26,0,26,0,1,,,,,,,,,,,,,,,,,,,,,,,,,,,,,,,,,,,,,,,
,,,,,,,611a8d23c1d17506a23df589,2023-08-06_08h23.52.984,HF_wild_card,2022.2.4,Win32,60.09254252,611a8d23c1d17506a23df589,64ce5acb97489d65b14ecc7a,64cf4a1a1ef27e1f87418d4b,,,,,,,sngl,resources/Empty.png,resources/DP.BMP,Door4,0.309448819,0.091338583,1,0,0,0.6127,optionRight,60,10755,5,27,0,27,0,1,,,,,,,,,,,,,,,,,,,,,,,,,,,,,,,,,,,,,,,
,,,,,,,611a8d23c1d17506a23df589,2023-08-06_08h23.52.984,HF_wild_card,2022.2.4,Win32,60.09254252,611a8d23c1d17506a23df589,64ce5acb97489d65b14ecc7a,64cf4a1a1ef27e1f87418d4b,,,,,,,decisionTrl,resources/DP.BMP,resources/DR.BMP,Door4,-0.214173228,0.062992126,1,0,0,0.8124,optionLeft,80,10835,5,28,0,28,0,1,,,,,,,,,,,,,,,,,,,,,,,,,,,,,,,,,,,,,,,
,,,,,,,611a8d23c1d17506a23df589,2023-08-06_08h23.52.984,HF_wild_card,2022.2.4,Win32,60.09254252,611a8d23c1d17506a23df589,64ce5acb97489d65b14ecc7a,64cf4a1a1ef27e1f87418d4b,,,,,,,sngl,resources/Empty.png,resources/DG.BMP,WildCard_Ex,0.318110236,0.114173228,1,0,0,0.6791,optionRight,45,10880,5,29,0,29,0,1,,,,,,,,,,,,,,,,,,,,,,,,,,,,,,,,,,,,,,,
,,,,,,,611a8d23c1d17506a23df589,2023-08-06_08h23.52.984,HF_wild_card,2022.2.4,Win32,60.09254252,611a8d23c1d17506a23df589,64ce5acb97489d65b14ecc7a,64cf4a1a1ef27e1f87418d4b,,,,,,,decisionTrl,resources/DBN.BMP,resources/DG.BMP,WildCard_Ex,0.319685039,0.087401575,1,0,0,1.2797,optionRight,55,10935,5,30,0,30,0,1,,,,,,,,,,,,,,,,,,,,,,,,,,,,,,,,,,,,,,,
,,,,,,,611a8d23c1d17506a23df589,2023-08-06_08h23.52.984,HF_wild_card,2022.2.4,Win32,60.09254252,611a8d23c1d17506a23df589,64ce5acb97489d65b14ecc7a,64cf4a1a1ef27e1f87418d4b,,,,,,,decisionTrl,resources/DY.BMP,resources/DBN.BMP,Door1,-0.227559055,0.07007874,1,0,0,1.0947,optionLeft,30,10965,5,31,0,31,0,1,,,,,,,,,,,,,,,,,,,,,,,,,,,,,,,,,,,,,,,
,,,,,,,611a8d23c1d17506a23df589,2023-08-06_08h23.52.984,HF_wild_card,2022.2.4,Win32,60.09254252,611a8d23c1d17506a23df589,64ce5acb97489d65b14ecc7a,64cf4a1a1ef27e1f87418d4b,,,,,,,decisionTrl,resources/DBN.BMP,resources/DY.BMP,Door1,0.196850394,0.11023622,1,0,0,0.9127,optionRight,30,10995,5,32,0,32,0,1,,,,,,,,,,,,,,,,,,,,,,,,,,,,,,,,,,,,,,,
,,,,,,,611a8d23c1d17506a23df589,2023-08-06_08h23.52.984,HF_wild_card,2022.2.4,Win32,60.09254252,611a8d23c1d17506a23df589,64ce5acb97489d65b14ecc7a,64cf4a1a1ef27e1f87418d4b,,,,,,,decisionTrl,resources/DR.BMP,resources/DG.BMP,Door3,-0.192913386,-0.007874016,1,0,0,0.9486,optionLeft,70,11065,5,33,0,33,0,1,,,,,,,,,,,,,,,,,,,,,,,,,,,,,,,,,,,,,,,
,,,,,,,611a8d23c1d17506a23df589,2023-08-06_08h23.52.984,HF_wild_card,2022.2.4,Win32,60.09254252,611a8d23c1d17506a23df589,64ce5acb97489d65b14ecc7a,64cf4a1a1ef27e1f87418d4b,,,,,,,ctch,resources/DBN.BMP,resources/DR.BMP,Door3,0.201574803,0.092125984,1,0,0,0.7636,optionRight,70,11135,5,34,0,34,0,1,,,,,,,,,,,,,,,,,,,,,,,,,,,,,,,,,,,,,,,
,,,,,,,611a8d23c1d17506a23df589,2023-08-06_08h23.52.984,HF_wild_card,2022.2.4,Win32,60.09254252,611a8d23c1d17506a23df589,64ce5acb97489d65b14ecc7a,64cf4a1a1ef27e1f87418d4b,,,,,,,sngl,resources/DG.BMP,resources/Empty.png,WildCard_Ex,-0.220472441,0.034645669,1,0,0,0.6461,optionLeft,55,11190,5,35,0,35,0,1,,,,,,,,,,,,,,,,,,,,,,,,,,,,,,,,,,,,,,,
,,,,,,,611a8d23c1d17506a23df589,2023-08-06_08h23.52.984,HF_wild_card,2022.2.4,Win32,60.09254252,611a8d23c1d17506a23df589,64ce5acb97489d65b14ecc7a,64cf4a1a1ef27e1f87418d4b,,,,,,,ctch,resources/DR.BMP,resources/DBN.BMP,Door3,-0.176377953,-0.001574803,1,0,0,0.9464,optionLeft,70,11260,5,36,0,36,0,1,,,,,,,,,,,,,,,,,,,,,,,,,,,,,,,,,,,,,,,
,,,,,,,611a8d23c1d17506a23df589,2023-08-06_08h23.52.984,HF_wild_card,2022.2.4,Win32,60.09254252,611a8d23c1d17506a23df589,64ce5acb97489d65b14ecc7a,64cf4a1a1ef27e1f87418d4b,,,,,,,sngl,resources/DR.BMP,resources/Empty.png,Door3,-0.215748031,-0.042519685,1,0,0,0.6961,optionLeft,70,11330,5,37,0,37,0,1,,,,,,,,,,,,,,,,,,,,,,,,,,,,,,,,,,,,,,,
,,,,,,,611a8d23c1d17506a23df589,2023-08-06_08h23.52.984,HF_wild_card,2022.2.4,Win32,60.09254252,611a8d23c1d17506a23df589,64ce5acb97489d65b14ecc7a,64cf4a1a1ef27e1f87418d4b,,,,,,,decisionTrl,resources/DBN.BMP,resources/DY.BMP,Door1,0.195275591,0.109448819,1,0,0,1.8636,optionRight,30,11360,5,38,0,38,0,1,,,,,,,,,,,,,,,,,,,,,,,,,,,,,,,,,,,,,,,
,,,,,,,611a8d23c1d17506a23df589,2023-08-06_08h23.52.984,HF_wild_card,2022.2.4,Win32,60.09254252,611a8d23c1d17506a23df589,64ce5acb97489d65b14ecc7a,64cf4a1a1ef27e1f87418d4b,,,,,,,decisionTrl,resources/DBN.BMP,resources/DY.BMP,Door1,0.204724409,0.077952756,1,0,0,0.763,optionRight,30,11390,5,39,0,39,0,1,,,,,,,,,,,,,,,,,,,,,,,,,,,,,,,,,,,,,,,
,,,,,,,611a8d23c1d17506a23df589,2023-08-06_08h23.52.984,HF_wild_card,2022.2.4,Win32,60.09254252,611a8d23c1d17506a23df589,64ce5acb97489d65b14ecc7a,64cf4a1a1ef27e1f87418d4b,,,,,,,decisionTrl,resources/DR.BMP,resources/DP.BMP,Door4,0.201574803,0.081889764,1,0,0,0.5962,optionRight,80,11470,5,40,0,40,0,1,,,,,,,,,,,,,,,,,,,,,,,,,,,,,,,,,,,,,,,
,,,,,,,611a8d23c1d17506a23df589,2023-08-06_08h23.52.984,HF_wild_card,2022.2.4,Win32,60.09254252,611a8d23c1d17506a23df589,64ce5acb97489d65b14ecc7a,64cf4a1a1ef27e1f87418d4b,,,,,,,sngl,resources/DBN.BMP,resources/Empty.png,Door2,-0.256692913,0.093700787,1,0,0,0.9117,optionLeft,40,11510,5,41,0,41,0,1,,,,,,,,,,,,,,,,,,,,,,,,,,,,,,,,,,,,,,,
,,,,,,,611a8d23c1d17506a23df589,2023-08-06_08h23.52.984,HF_wild_card,2022.2.4,Win32,60.09254252,611a8d23c1d17506a23df589,64ce5acb97489d65b14ecc7a,64cf4a1a1ef27e1f87418d4b,,,,,,,sngl,resources/DG.BMP,resources/Empty.png,WildCard_Ex,-0.215748031,0.029133858,1,0,0,0.6454,optionLeft,45,11555,5,42,0,42,0,1,,,,,,,,,,,,,,,,,,,,,,,,,,,,,,,,,,,,,,,
,,,,,,,611a8d23c1d17506a23df589,2023-08-06_08h23.52.984,HF_wild_card,2022.2.4,Win32,60.09254252,611a8d23c1d17506a23df589,64ce5acb97489d65b14ecc7a,64cf4a1a1ef27e1f87418d4b,,,,,,,ctch,resources/DP.BMP,resources/DY.BMP,Door4,-0.211811024,0.018897638,1,0,0,0.7458,optionLeft,80,11635,5,43,0,43,0,1,,,,,,,,,,,,,,,,,,,,,,,,,,,,,,,,,,,,,,,
,,,,,,,611a8d23c1d17506a23df589,2023-08-06_08h23.52.984,HF_wild_card,2022.2.4,Win32,60.09254252,611a8d23c1d17506a23df589,64ce5acb97489d65b14ecc7a,64cf4a1a1ef27e1f87418d4b,,,,,,,,,,,,,,,,,,,,,,,,,,4,0,4,0,1,,,,,,,,,,,,,,,,,,,,,,,,,,,,,,,,,,
,,,,,,,611a8d23c1d17506a23df589,2023-08-06_08h23.52.984,HF_wild_card,2022.2.4,Win32,60.09254252,611a8d23c1d17506a23df589,64ce5acb97489d65b14ecc7a,64cf4a1a1ef27e1f87418d4b,,,,,,,ctch,resources/DBN.BMP,resources/DR.BMP,Door3,0.322047244,0.036220472,1,0,0,1.1091,optionRight,70,11705,6,0,0,0,0,1,,,,,,,,,,,,,,,,,,,,,,,,,,,,,,,,,,,,,,,
,,,,,,,611a8d23c1d17506a23df589,2023-08-06_08h23.52.984,HF_wild_card,2022.2.4,Win32,60.09254252,611a8d23c1d17506a23df589,64ce5acb97489d65b14ecc7a,64cf4a1a1ef27e1f87418d4b,,,,,,,decisionTrl,resources/DG.BMP,resources/DBN.BMP,WildCard_Ex,-0.224409449,0.077165354,1,0,0,0.9624,optionLeft,45,11750,6,1,0,1,0,1,,,,,,,,,,,,,,,,,,,,,,,,,,,,,,,,,,,,,,,
,,,,,,,611a8d23c1d17506a23df589,2023-08-06_08h23.52.984,HF_wild_card,2022.2.4,Win32,60.09254252,611a8d23c1d17506a23df589,64ce5acb97489d65b14ecc7a,64cf4a1a1ef27e1f87418d4b,,,,,,,decisionTrl,resources/DBN.BMP,resources/DY.BMP,Door1,0.242519685,0.115748031,1,0,0,0.8959,optionRight,30,11780,6,2,0,2,0,1,,,,,,,,,,,,,,,,,,,,,,,,,,,,,,,,,,,,,,,
,,,,,,,611a8d23c1d17506a23df589,2023-08-06_08h23.52.984,HF_wild_card,2022.2.4,Win32,60.09254252,611a8d23c1d17506a23df589,64ce5acb97489d65b14ecc7a,64cf4a1a1ef27e1f87418d4b,,,,,,,decisionTrl,resources/DBN.BMP,resources/DY.BMP,Door1,0.268503937,0.103937008,1,0,0,0.6626,optionRight,30,11810,6,3,0,3,0,1,,,,,,,,,,,,,,,,,,,,,,,,,,,,,,,,,,,,,,,
,,,,,,,611a8d23c1d17506a23df589,2023-08-06_08h23.52.984,HF_wild_card,2022.2.4,Win32,60.09254252,611a8d23c1d17506a23df589,64ce5acb97489d65b14ecc7a,64cf4a1a1ef27e1f87418d4b,,,,,,,decisionTrl,resources/DY.BMP,resources/DG.BMP,WildCard_Ex,0.25511811,0.077165354,1,0,0,1.0613,optionRight,55,11865,6,4,0,4,0,1,,,,,,,,,,,,,,,,,,,,,,,,,,,,,,,,,,,,,,,
,,,,,,,611a8d23c1d17506a23df589,2023-08-06_08h23.52.984,HF_wild_card,2022.2.4,Win32,60.09254252,611a8d23c1d17506a23df589,64ce5acb97489d65b14ecc7a,64cf4a1a1ef27e1f87418d4b,,,,,,,sngl,resources/DY.BMP,resources/Empty.png,Door1,-0.214173228,0.066141732,1,0,0,0.7464,optionLeft,30,11895,6,5,0,5,0,1,,,,,,,,,,,,,,,,,,,,,,,,,,,,,,,,,,,,,,,
,,,,,,,611a8d23c1d17506a23df589,2023-08-06_08h23.52.984,HF_wild_card,2022.2.4,Win32,60.09254252,611a8d23c1d17506a23df589,64ce5acb97489d65b14ecc7a,64cf4a1a1ef27e1f87418d4b,,,,,,,decisionTrl,resources/DG.BMP,resources/DP.BMP,Door4,0.262204724,0.109448819,1,0,0,0.618,optionRight,80,11975,6,6,0,6,0,1,,,,,,,,,,,,,,,,,,,,,,,,,,,,,,,,,,,,,,,
,,,,,,,611a8d23c1d17506a23df589,2023-08-06_08h23.52.984,HF_wild_card,2022.2.4,Win32,60.09254252,611a8d23c1d17506a23df589,64ce5acb97489d65b14ecc7a,64cf4a1a1ef27e1f87418d4b,,,,,,,ctch,resources/DY.BMP,resources/DP.BMP,Door4,0.277952756,0.090551181,1,0,0,0.5949,optionRight,60,12035,6,7,0,7,0,1,,,,,,,,,,,,,,,,,,,,,,,,,,,,,,,,,,,,,,,
,,,,,,,611a8d23c1d17506a23df589,2023-08-06_08h23.52.984,HF_wild_card,2022.2.4,Win32,60.09254252,611a8d23c1d17506a23df589,64ce5acb97489d65b14ecc7a,64cf4a1a1ef27e1f87418d4b,,,,,,,ctch,resources/DR.BMP,resources/DBN.BMP,Door3,-0.208661417,0.049606299,1,0,0,0.9763,optionLeft,70,12105,6,8,0,8,0,1,,,,,,,,,,,,,,,,,,,,,,,,,,,,,,,,,,,,,,,
,,,,,,,611a8d23c1d17506a23df589,2023-08-06_08h23.52.984,HF_wild_card,2022.2.4,Win32,60.09254252,611a8d23c1d17506a23df589,64ce5acb97489d65b14ecc7a,64cf4a1a1ef27e1f87418d4b,,,,,,,sngl,resources/DG.BMP,resources/Empty.png,WildCard_Ex,-0.188188976,0.04015748,1,0,0,0.6741,optionLeft,45,12150,6,9,0,9,0,1,,,,,,,,,,,,,,,,,,,,,,,,,,,,,,,,,,,,,,,
,,,,,,,611a8d23c1d17506a23df589,2023-08-06_08h23.52.984,HF_wild_card,2022.2.4,Win32,60.09254252,611a8d23c1d17506a23df589,64ce5acb97489d65b14ecc7a,64cf4a1a1ef27e1f87418d4b,,,,,,,ctch,resources/DP.BMP,resources/DY.BMP,Door4,-0.179527559,0.035433071,1,0,0,0.7489,optionLeft,80,12230,6,10,0,10,0,1,,,,,,,,,,,,,,,,,,,,,,,,,,,,,,,,,,,,,,,
,,,,,,,611a8d23c1d17506a23df589,2023-08-06_08h23.52.984,HF_wild_card,2022.2.4,Win32,60.09254252,611a8d23c1d17506a23df589,64ce5acb97489d65b14ecc7a,64cf4a1a1ef27e1f87418d4b,,,,,,,decisionTrl,resources/DG.BMP,resources/DR.BMP,Door3,0.214173228,0.107086614,1,0,0,1.3399,optionRight,70,12300,6,11,0,11,0,1,,,,,,,,,,,,,,,,,,,,,,,,,,,,,,,,,,,,,,,
,,,,,,,611a8d23c1d17506a23df589,2023-08-06_08h23.52.984,HF_wild_card,2022.2.4,Win32,60.09254252,611a8d23c1d17506a23df589,64ce5acb97489d65b14ecc7a,64cf4a1a1ef27e1f87418d4b,,,,,,,sngl,resources/Empty.png,resources/DP.BMP,Door4,0.22992126,0.107086614,1,0,0,0.5575,optionRight,80,12380,6,12,0,12,0,1,,,,,,,,,,,,,,,,,,,,,,,,,,,,,,,,,,,,,,,
,,,,,,,611a8d23c1d17506a23df589,2023-08-06_08h23.52.984,HF_wild_card,2022.2.4,Win32,60.09254252,611a8d23c1d17506a23df589,64ce5acb97489d65b14ecc7a,64cf4a1a1ef27e1f87418d4b,,,,,,,sngl,resources/DR.BMP,resources/Empty.png,Door3,-0.191338583,0.049606299,1,0,0,0.7254,optionLeft,70,12450,6,13,0,13,0,1,,,,,,,,,,,,,,,,,,,,,,,,,,,,,,,,,,,,,,,
,,,,,,,611a8d23c1d17506a23df589,2023-08-06_08h23.52.984,HF_wild_card,2022.2.4,Win32,60.09254252,611a8d23c1d17506a23df589,64ce5acb97489d65b14ecc7a,64cf4a1a1ef27e1f87418d4b,,,,,,,ctch,resources/DBN.BMP,resources/DR.BMP,Door3,0.25984252,0.104724409,1,0,0,0.5764,optionRight,70,12520,6,14,0,14,0,1,,,,,,,,,,,,,,,,,,,,,,,,,,,,,,,,,,,,,,,
,,,,,,,611a8d23c1d17506a23df589,2023-08-06_08h23.52.984,HF_wild_card,2022.2.4,Win32,60.09254252,611a8d23c1d17506a23df589,64ce5acb97489d65b14ecc7a,64cf4a1a1ef27e1f87418d4b,,,,,,,decisionTrl,resources/DR.BMP,resources/DP.BMP,Door4,0.206299213,0.028346457,1,0,0,0.647,optionRight,80,12600,6,15,0,15,0,1,,,,,,,,,,,,,,,,,,,,,,,,,,,,,,,,,,,,,,,
,,,,,,,611a8d23c1d17506a23df589,2023-08-06_08h23.52.984,HF_wild_card,2022.2.4,Win32,60.09254252,611a8d23c1d17506a23df589,64ce5acb97489d65b14ecc7a,64cf4a1a1ef27e1f87418d4b,,,,,,,decisionTrl,resources/DY.BMP,resources/DBN.BMP,Door1,-0.221259843,0.011023622,1,0,0,1.1116,optionLeft,30,12630,6,16,0,16,0,1,,,,,,,,,,,,,,,,,,,,,,,,,,,,,,,,,,,,,,,
,,,,,,,611a8d23c1d17506a23df589,2023-08-06_08h23.52.984,HF_wild_card,2022.2.4,Win32,60.09254252,611a8d23c1d17506a23df589,64ce5acb97489d65b14ecc7a,64cf4a1a1ef27e1f87418d4b,,,,,,,sngl,resources/Empty.png,resources/DR.BMP,Door3,0.21023622,0.145669291,1,0,0,0.5627,optionRight,70,12700,6,17,0,17,0,1,,,,,,,,,,,,,,,,,,,,,,,,,,,,,,,,,,,,,,,
,,,,,,,611a8d23c1d17506a23df589,2023-08-06_08h23.52.984,HF_wild_card,2022.2.4,Win32,60.09254252,611a8d23c1d17506a23df589,64ce5acb97489d65b14ecc7a,64cf4a1a1ef27e1f87418d4b,,,,,,,ctch,resources/DR.BMP,resources/DBN.BMP,Door3,-0.176377953,0.004724409,1,0,0,0.7272,optionLeft,70,12770,6,18,0,18,0,1,,,,,,,,,,,,,,,,,,,,,,,,,,,,,,,,,,,,,,,
,,,,,,,611a8d23c1d17506a23df589,2023-08-06_08h23.52.984,HF_wild_card,2022.2.4,Win32,60.09254252,611a8d23c1d17506a23df589,64ce5acb97489d65b14ecc7a,64cf4a1a1ef27e1f87418d4b,,,,,,,sngl,resources/Empty.png,resources/DY.BMP,Door1,0.191338583,0.099212598,1,0,0,0.6143,optionRight,30,12800,6,19,0,19,0,1,,,,,,,,,,,,,,,,,,,,,,,,,,,,,,,,,,,,,,,
,,,,,,,611a8d23c1d17506a23df589,2023-08-06_08h23.52.984,HF_wild_card,2022.2.4,Win32,60.09254252,611a8d23c1d17506a23df589,64ce5acb97489d65b14ecc7a,64cf4a1a1ef27e1f87418d4b,,,,,,,decisionTrl,resources/DBN.BMP,resources/DY.BMP,Door1,0.220472441,0.116535433,1,0,0,0.7183,optionRight,30,12830,6,20,0,20,0,1,,,,,,,,,,,,,,,,,,,,,,,,,,,,,,,,,,,,,,,
,,,,,,,611a8d23c1d17506a23df589,2023-08-06_08h23.52.984,HF_wild_card,2022.2.4,Win32,60.09254252,611a8d23c1d17506a23df589,64ce5acb97489d65b14ecc7a,64cf4a1a1ef27e1f87418d4b,,,,,,,ctch,resources/DP.BMP,resources/DY.BMP,Door4,-0.206299213,0.042519685,1,0,0,0.8637,optionLeft,80,12910,6,21,0,21,0,1,,,,,,,,,,,,,,,,,,,,,,,,,,,,,,,,,,,,,,,
,,,,,,,611a8d23c1d17506a23df589,2023-08-06_08h23.52.984,HF_wild_card,2022.2.4,Win32,60.09254252,611a8d23c1d17506a23df589,64ce5acb97489d65b14ecc7a,64cf4a1a1ef27e1f87418d4b,,,,,,,decisionTrl,resources/DY.BMP,resources/DBN.BMP,Door1,-0.225984252,0.069291339,1,0,0,1.0285,optionLeft,30,12940,6,22,0,22,0,1,,,,,,,,,,,,,,,,,,,,,,,,,,,,,,,,,,,,,,,
,,,,,,,611a8d23c1d17506a23df589,2023-08-06_08h23.52.984,HF_wild_card,2022.2.4,Win32,60.09254252,611a8d23c1d17506a23df589,64ce5acb97489d65b14ecc7a,64cf4a1a1ef27e1f87418d4b,,,,,,,decisionTrl,resources/DP.BMP,resources/DR.BMP,Door4,-0.204724409,0.066929134,1,0,0,0.6743,optionLeft,80,13020,6,23,0,23,0,1,,,,,,,,,,,,,,,,,,,,,,,,,,,,,,,,,,,,,,,
,,,,,,,611a8d23c1d17506a23df589,2023-08-06_08h23.52.984,HF_wild_card,2022.2.4,Win32,60.09254252,611a8d23c1d17506a23df589,64ce5acb97489d65b14ecc7a,64cf4a1a1ef27e1f87418d4b,,,,,,,sngl,resources/Empty.png,resources/DG.BMP,WildCard_Ex,0.263779528,0.156692913,1,0,0,1.0141,optionRight,45,13065,6,24,0,24,0,1,,,,,,,,,,,,,,,,,,,,,,,,,,,,,,,,,,,,,,,
,,,,,,,611a8d23c1d17506a23df589,2023-08-06_08h23.52.984,HF_wild_card,2022.2.4,Win32,60.09254252,611a8d23c1d17506a23df589,64ce5acb97489d65b14ecc7a,64cf4a1a1ef27e1f87418d4b,,,,,,,decisionTrl,resources/DG.BMP,resources/DY.BMP,WildCard_Ex,-0.229133858,0.045669291,1,0,0,0.7134,optionLeft,55,13120,6,25,0,25,0,1,,,,,,,,,,,,,,,,,,,,,,,,,,,,,,,,,,,,,,,
,,,,,,,611a8d23c1d17506a23df589,2023-08-06_08h23.52.984,HF_wild_card,2022.2.4,Win32,60.09254252,611a8d23c1d17506a23df589,64ce5acb97489d65b14ecc7a,64cf4a1a1ef27e1f87418d4b,,,,,,,decisionTrl,resources/DP.BMP,resources/DR.BMP,Door4,-0.202362205,-0.020472441,1,0,0,0.5787,optionLeft,60,13180,6,26,0,26,0,1,,,,,,,,,,,,,,,,,,,,,,,,,,,,,,,,,,,,,,,
,,,,,,,611a8d23c1d17506a23df589,2023-08-06_08h23.52.984,HF_wild_card,2022.2.4,Win32,60.09254252,611a8d23c1d17506a23df589,64ce5acb97489d65b14ecc7a,64cf4a1a1ef27e1f87418d4b,,,,,,,decisionTrl,resources/DY.BMP,resources/DBN.BMP,Door1,-0.186614173,0.080314961,1,0,0,1.1138,optionLeft,30,13210,6,27,0,27,0,1,,,,,,,,,,,,,,,,,,,,,,,,,,,,,,,,,,,,,,,
,,,,,,,611a8d23c1d17506a23df589,2023-08-06_08h23.52.984,HF_wild_card,2022.2.4,Win32,60.09254252,611a8d23c1d17506a23df589,64ce5acb97489d65b14ecc7a,64cf4a1a1ef27e1f87418d4b,,,,,,,decisionTrl,resources/DY.BMP,resources/DBN.BMP,Door1,-0.237007874,0.084251969,1,0,0,0.8759,optionLeft,30,13240,6,28,0,28,0,1,,,,,,,,,,,,,,,,,,,,,,,,,,,,,,,,,,,,,,,
,,,,,,,611a8d23c1d17506a23df589,2023-08-06_08h23.52.984,HF_wild_card,2022.2.4,Win32,60.09254252,611a8d23c1d17506a23df589,64ce5acb97489d65b14ecc7a,64cf4a1a1ef27e1f87418d4b,,,,,,,sngl,resources/DP.BMP,resources/Empty.png,Door4,-0.220472441,-0.023622047,1,0,0,0.6345,optionLeft,60,13300,6,29,0,29,0,1,,,,,,,,,,,,,,,,,,,,,,,,,,,,,,,,,,,,,,,
,,,,,,,611a8d23c1d17506a23df589,2023-08-06_08h23.52.984,HF_wild_card,2022.2.4,Win32,60.09254252,611a8d23c1d17506a23df589,64ce5acb97489d65b14ecc7a,64cf4a1a1ef27e1f87418d4b,,,,,,,decisionTrl,resources/DP.BMP,resources/DR.BMP,Door4,-0.192913386,0.011023622,1,0,0,0.6457,optionLeft,80,13380,6,30,0,30,0,1,,,,,,,,,,,,,,,,,,,,,,,,,,,,,,,,,,,,,,,
,,,,,,,611a8d23c1d17506a23df589,2023-08-06_08h23.52.984,HF_wild_card,2022.2.4,Win32,60.09254252,611a8d23c1d17506a23df589,64ce5acb97489d65b14ecc7a,64cf4a1a1ef27e1f87418d4b,,,,,,,sngl,resources/Empty.png,resources/DBN.BMP,Door2,0.18503937,0.17480315,1,0,0,0.6464,optionRight,40,13420,6,31,0,31,0,1,,,,,,,,,,,,,,,,,,,,,,,,,,,,,,,,,,,,,,,
,,,,,,,611a8d23c1d17506a23df589,2023-08-06_08h23.52.984,HF_wild_card,2022.2.4,Win32,60.09254252,611a8d23c1d17506a23df589,64ce5acb97489d65b14ecc7a,64cf4a1a1ef27e1f87418d4b,,,,,,,sngl,resources/DBN.BMP,resources/Empty.png,Door2,-0.229133858,0.043307087,1,0,0,0.6799,optionLeft,20,13440,6,32,0,32,0,1,,,,,,,,,,,,,,,,,,,,,,,,,,,,,,,,,,,,,,,
,,,,,,,611a8d23c1d17506a23df589,2023-08-06_08h23.52.984,HF_wild_card,2022.2.4,Win32,60.09254252,611a8d23c1d17506a23df589,64ce5acb97489d65b14ecc7a,64cf4a1a1ef27e1f87418d4b,,,,,,,decisionTrl,resources/DBN.BMP,resources/DG.BMP,WildCard_Ex,0.219685039,0.148818898,1,0,0,1.0573,optionRight,45,13485,6,33,0,33,0,1,,,,,,,,,,,,,,,,,,,,,,,,,,,,,,,,,,,,,,,
,,,,,,,611a8d23c1d17506a23df589,2023-08-06_08h23.52.984,HF_wild_card,2022.2.4,Win32,60.09254252,611a8d23c1d17506a23df589,64ce5acb97489d65b14ecc7a,64cf4a1a1ef27e1f87418d4b,,,,,,,decisionTrl,resources/DP.BMP,resources/DG.BMP,Door4,-0.244094488,-0.062992126,1,0,0,7.9129,optionLeft,60,13545,6,34,0,34,0,1,,,,,,,,,,,,,,,,,,,,,,,,,,,,,,,,,,,,,,,
,,,,,,,611a8d23c1d17506a23df589,2023-08-06_08h23.52.984,HF_wild_card,2022.2.4,Win32,60.09254252,611a8d23c1d17506a23df589,64ce5acb97489d65b14ecc7a,64cf4a1a1ef27e1f87418d4b,,,,,,,decisionTrl,resources/DR.BMP,resources/DP.BMP,Door4,0.250393701,0.080314961,1,0,0,0.6271,optionRight,60,13605,6,35,0,35,0,1,,,,,,,,,,,,,,,,,,,,,,,,,,,,,,,,,,,,,,,
,,,,,,,611a8d23c1d17506a23df589,2023-08-06_08h23.52.984,HF_wild_card,2022.2.4,Win32,60.09254252,611a8d23c1d17506a23df589,64ce5acb97489d65b14ecc7a,64cf4a1a1ef27e1f87418d4b,,,,,,,decisionTrl,resources/DP.BMP,resources/DR.BMP,Door4,-0.166929134,0.111023622,1,0,0,0.6967,optionLeft,60,13665,6,36,0,36,0,1,,,,,,,,,,,,,,,,,,,,,,,,,,,,,,,,,,,,,,,
,,,,,,,611a8d23c1d17506a23df589,2023-08-06_08h23.52.984,HF_wild_card,2022.2.4,Win32,60.09254252,611a8d23c1d17506a23df589,64ce5acb97489d65b14ecc7a,64cf4a1a1ef27e1f87418d4b,,,,,,,decisionTrl,resources/DR.BMP,resources/DP.BMP,Door4,0.212598425,0.088976378,1,0,0,0.5802,optionRight,60,13725,6,37,0,37,0,1,,,,,,,,,,,,,,,,,,,,,,,,,,,,,,,,,,,,,,,
,,,,,,,611a8d23c1d17506a23df589,2023-08-06_08h23.52.984,HF_wild_card,2022.2.4,Win32,60.09254252,611a8d23c1d17506a23df589,64ce5acb97489d65b14ecc7a,64cf4a1a1ef27e1f87418d4b,,,,,,,decisionTrl,resources/DBN.BMP,resources/DY.BMP,Door1,0.270866142,0.059055118,1,0,0,1.3282,optionRight,30,13755,6,38,0,38,0,1,,,,,,,,,,,,,,,,,,,,,,,,,,,,,,,,,,,,,,,
,,,,,,,611a8d23c1d17506a23df589,2023-08-06_08h23.52.984,HF_wild_card,2022.2.4,Win32,60.09254252,611a8d23c1d17506a23df589,64ce5acb97489d65b14ecc7a,64cf4a1a1ef27e1f87418d4b,,,,,,,ctch,resources/DY.BMP,resources/DP.BMP,Door4,0.222047244,0.052755906,1,0,0,0.7632,optionRight,80,13835,6,39,0,39,0,1,,,,,,,,,,,,,,,,,,,,,,,,,,,,,,,,,,,,,,,
,,,,,,,611a8d23c1d17506a23df589,2023-08-06_08h23.52.984,HF_wild_card,2022.2.4,Win32,60.09254252,611a8d23c1d17506a23df589,64ce5acb97489d65b14ecc7a,64cf4a1a1ef27e1f87418d4b,,,,,,,decisionTrl,resources/DR.BMP,resources/DP.BMP,Door4,0.225984252,0.030708661,1,0,0,0.5461,optionRight,60,13895,6,40,0,40,0,1,,,,,,,,,,,,,,,,,,,,,,,,,,,,,,,,,,,,,,,
,,,,,,,611a8d23c1d17506a23df589,2023-08-06_08h23.52.984,HF_wild_card,2022.2.4,Win32,60.09254252,611a8d23c1d17506a23df589,64ce5acb97489d65b14ecc7a,64cf4a1a1ef27e1f87418d4b,,,,,,,sngl,resources/Empty.png,resources/DG.BMP,WildCard_Ex,0.222047244,0.069291339,1,0,0,0.7965,optionRight,55,13950,6,41,0,41,0,1,,,,,,,,,,,,,,,,,,,,,,,,,,,,,,,,,,,,,,,
,,,,,,,611a8d23c1d17506a23df589,2023-08-06_08h23.52.984,HF_wild_card,2022.2.4,Win32,60.09254252,611a8d23c1d17506a23df589,64ce5acb97489d65b14ecc7a,64cf4a1a1ef27e1f87418d4b,,,,,,,decisionTrl,resources/DR.BMP,resources/DG.BMP,Door3,-0.227559055,0.042519685,1,0,0,1.6466,optionLeft,70,14020,6,42,0,42,0,1,,,,,,,,,,,,,,,,,,,,,,,,,,,,,,,,,,,,,,,
,,,,,,,611a8d23c1d17506a23df589,2023-08-06_08h23.52.984,HF_wild_card,2022.2.4,Win32,60.09254252,611a8d23c1d17506a23df589,64ce5acb97489d65b14ecc7a,64cf4a1a1ef27e1f87418d4b,,,,,,,sngl,resources/DG.BMP,resources/Empty.png,WildCard_Ex,-0.216535433,0.05984252,1,0,0,0.8967,optionLeft,55,14075,6,43,0,43,0,1,,,,,,,,,,,,,,,,,,,,,,,,,,,,,,,,,,,,,,,
,,,,,,,611a8d23c1d17506a23df589,2023-08-06_08h23.52.984,HF_wild_card,2022.2.4,Win32,60.09254252,611a8d23c1d17506a23df589,64ce5acb97489d65b14ecc7a,64cf4a1a1ef27e1f87418d4b,,,,,,,,,,,,,,,,,,,,,,,,,,5,0,5,0,1,,,,,,,,,,,,,,,,,,,,,,,,,,,,,,,,,,
,,,,,,,611a8d23c1d17506a23df589,2023-08-06_08h23.52.984,HF_wild_card,2022.2.4,Win32,60.09254252,611a8d23c1d17506a23df589,64ce5acb97489d65b14ecc7a,64cf4a1a1ef27e1f87418d4b,,,,,,,decisionTrl,resources/DR.BMP,resources/DP.BMP,Door4,0.218110236,0.009448819,1,0,0,1.6606,optionRight,60,14135,7,0,0,0,0,1,,,,,,,,,,,,,,,,,,,,,,,,,,,,,,,,,,,,,,,
,,,,,,,611a8d23c1d17506a23df589,2023-08-06_08h23.52.984,HF_wild_card,2022.2.4,Win32,60.09254252,611a8d23c1d17506a23df589,64ce5acb97489d65b14ecc7a,64cf4a1a1ef27e1f87418d4b,,,,,,,decisionTrl,resources/DR.BMP,resources/DP.BMP,Door4,0.225984252,-0.015748031,1,0,0,0.9149,optionRight,60,14195,7,1,0,1,0,1,,,,,,,,,,,,,,,,,,,,,,,,,,,,,,,,,,,,,,,
,,,,,,,611a8d23c1d17506a23df589,2023-08-06_08h23.52.984,HF_wild_card,2022.2.4,Win32,60.09254252,611a8d23c1d17506a23df589,64ce5acb97489d65b14ecc7a,64cf4a1a1ef27e1f87418d4b,,,,,,,decisionTrl,resources/DP.BMP,resources/DR.BMP,Door4,-0.204724409,-0.003937008,1,0,0,0.9145,optionLeft,60,14255,7,2,0,2,0,1,,,,,,,,,,,,,,,,,,,,,,,,,,,,,,,,,,,,,,,
,,,,,,,611a8d23c1d17506a23df589,2023-08-06_08h23.52.984,HF_wild_card,2022.2.4,Win32,60.09254252,611a8d23c1d17506a23df589,64ce5acb97489d65b14ecc7a,64cf4a1a1ef27e1f87418d4b,,,,,,,decisionTrl,resources/DBN.BMP,resources/DY.BMP,Door1,0.267716535,-0.022834646,1,0,0,1.0145,optionRight,30,14285,7,3,0,3,0,1,,,,,,,,,,,,,,,,,,,,,,,,,,,,,,,,,,,,,,,
,,,,,,,611a8d23c1d17506a23df589,2023-08-06_08h23.52.984,HF_wild_card,2022.2.4,Win32,60.09254252,611a8d23c1d17506a23df589,64ce5acb97489d65b14ecc7a,64cf4a1a1ef27e1f87418d4b,,,,,,,decisionTrl,resources/DBN.BMP,resources/DY.BMP,Door1,0.309448819,-0.011023622,1,0,0,1.0829,optionRight,30,14315,7,4,0,4,0,1,,,,,,,,,,,,,,,,,,,,,,,,,,,,,,,,,,,,,,,
,,,,,,,611a8d23c1d17506a23df589,2023-08-06_08h23.52.984,HF_wild_card,2022.2.4,Win32,60.09254252,611a8d23c1d17506a23df589,64ce5acb97489d65b14ecc7a,64cf4a1a1ef27e1f87418d4b,,,,,,,decisionTrl,resources/DP.BMP,resources/DR.BMP,Door4,-0.204724409,0.02992126,1,0,0,1.0967,optionLeft,80,14395,7,5,0,5,0,1,,,,,,,,,,,,,,,,,,,,,,,,,,,,,,,,,,,,,,,
,,,,,,,611a8d23c1d17506a23df589,2023-08-06_08h23.52.984,HF_wild_card,2022.2.4,Win32,60.09254252,611a8d23c1d17506a23df589,64ce5acb97489d65b14ecc7a,64cf4a1a1ef27e1f87418d4b,,,,,,,decisionTrl,resources/DY.BMP,resources/DBN.BMP,Door1,-0.195275591,0.007874016,1,0,0,1.1314,optionLeft,30,14425,7,6,0,6,0,1,,,,,,,,,,,,,,,,,,,,,,,,,,,,,,,,,,,,,,,
,,,,,,,611a8d23c1d17506a23df589,2023-08-06_08h23.52.984,HF_wild_card,2022.2.4,Win32,60.09254252,611a8d23c1d17506a23df589,64ce5acb97489d65b14ecc7a,64cf4a1a1ef27e1f87418d4b,,,,,,,decisionTrl,resources/DY.BMP,resources/DBN.BMP,Door1,-0.323622047,0.097637795,1,0,0,1.3815,optionLeft,30,14455,7,7,0,7,0,1,,,,,,,,,,,,,,,,,,,,,,,,,,,,,,,,,,,,,,,
,,,,,,,611a8d23c1d17506a23df589,2023-08-06_08h23.52.984,HF_wild_card,2022.2.4,Win32,60.09254252,611a8d23c1d17506a23df589,64ce5acb97489d65b14ecc7a,64cf4a1a1ef27e1f87418d4b,,,,,,,decisionTrl,resources/DR.BMP,resources/DP.BMP,Door4,0.232283465,0.001574803,1,0,0,0.7812,optionRight,80,14535,7,8,0,8,0,1,,,,,,,,,,,,,,,,,,,,,,,,,,,,,,,,,,,,,,,
,,,,,,,611a8d23c1d17506a23df589,2023-08-06_08h23.52.984,HF_wild_card,2022.2.4,Win32,60.09254252,611a8d23c1d17506a23df589,64ce5acb97489d65b14ecc7a,64cf4a1a1ef27e1f87418d4b,,,,,,,decisionTrl,resources/DBN.BMP,resources/DY.BMP,Door1,0.252755906,0.026771654,1,0,0,0.9158,optionRight,30,14565,7,9,0,9,0,1,,,,,,,,,,,,,,,,,,,,,,,,,,,,,,,,,,,,,,,
,,,,,,,611a8d23c1d17506a23df589,2023-08-06_08h23.52.984,HF_wild_card,2022.2.4,Win32,60.09254252,611a8d23c1d17506a23df589,64ce5acb97489d65b14ecc7a,64cf4a1a1ef27e1f87418d4b,,,,,,,decisionTrl,resources/DP.BMP,resources/DR.BMP,Door4,-0.200787402,0.054330709,1,0,0,0.7653,optionLeft,80,14645,7,10,0,10,0,1,,,,,,,,,,,,,,,,,,,,,,,,,,,,,,,,,,,,,,,
,,,,,,,611a8d23c1d17506a23df589,2023-08-06_08h23.52.984,HF_wild_card,2022.2.4,Win32,60.09254252,611a8d23c1d17506a23df589,64ce5acb97489d65b14ecc7a,64cf4a1a1ef27e1f87418d4b,,,,,,,decisionTrl,resources/DY.BMP,resources/DBN.BMP,Door1,-0.223622047,0.003149606,1,0,0,0.9316,optionLeft,30,14675,7,11,0,11,0,1,,,,,,,,,,,,,,,,,,,,,,,,,,,,,,,,,,,,,,,
,,,,,,,611a8d23c1d17506a23df589,2023-08-06_08h23.52.984,HF_wild_card,2022.2.4,Win32,60.09254252,611a8d23c1d17506a23df589,64ce5acb97489d65b14ecc7a,64cf4a1a1ef27e1f87418d4b,,,,,,,ctch,resources/DBN.BMP,resources/DR.BMP,Door3,0.261417323,-0.008661417,1,0,0,0.8662,optionRight,70,14745,7,12,0,12,0,1,,,,,,,,,,,,,,,,,,,,,,,,,,,,,,,,,,,,,,,
,,,,,,,611a8d23c1d17506a23df589,2023-08-06_08h23.52.984,HF_wild_card,2022.2.4,Win32,60.09254252,611a8d23c1d17506a23df589,64ce5acb97489d65b14ecc7a,64cf4a1a1ef27e1f87418d4b,,,,,,,ctch,resources/DY.BMP,resources/DP.BMP,Door4,0.251968504,-0.007874016,1,0,0,0.8311,optionRight,60,14805,7,13,0,13,0,1,,,,,,,,,,,,,,,,,,,,,,,,,,,,,,,,,,,,,,,
,,,,,,,611a8d23c1d17506a23df589,2023-08-06_08h23.52.984,HF_wild_card,2022.2.4,Win32,60.09254252,611a8d23c1d17506a23df589,64ce5acb97489d65b14ecc7a,64cf4a1a1ef27e1f87418d4b,,,,,,,ctch,resources/DY.BMP,resources/DP.BMP,Door4,0.249606299,0.087401575,1,0,0,0.7461,optionRight,60,14865,7,14,0,14,0,1,,,,,,,,,,,,,,,,,,,,,,,,,,,,,,,,,,,,,,,
,,,,,,,611a8d23c1d17506a23df589,2023-08-06_08h23.52.984,HF_wild_card,2022.2.4,Win32,60.09254252,611a8d23c1d17506a23df589,64ce5acb97489d65b14ecc7a,64cf4a1a1ef27e1f87418d4b,,,,,,,decisionTrl,resources/DP.BMP,resources/DR.BMP,Door4,-0.177952756,0.003149606,1,0,0,0.849,optionLeft,80,14945,7,15,0,15,0,1,,,,,,,,,,,,,,,,,,,,,,,,,,,,,,,,,,,,,,,
,,,,,,,611a8d23c1d17506a23df589,2023-08-06_08h23.52.984,HF_wild_card,2022.2.4,Win32,60.09254252,611a8d23c1d17506a23df589,64ce5acb97489d65b14ecc7a,64cf4a1a1ef27e1f87418d4b,,,,,,,decisionTrl,resources/DR.BMP,resources/DP.BMP,Door4,0.233858268,0.021259843,1,0,0,0.8472,optionRight,60,15005,7,16,0,16,0,1,,,,,,,,,,,,,,,,,,,,,,,,,,,,,,,,,,,,,,,
,,,,,,,611a8d23c1d17506a23df589,2023-08-06_08h23.52.984,HF_wild_card,2022.2.4,Win32,60.09254252,611a8d23c1d17506a23df589,64ce5acb97489d65b14ecc7a,64cf4a1a1ef27e1f87418d4b,,,,,,,decisionTrl,resources/DP.BMP,resources/DR.BMP,Door4,-0.214173228,-0.029133858,1,0,0,0.7831,optionLeft,80,15085,7,17,0,17,0,1,,,,,,,,,,,,,,,,,,,,,,,,,,,,,,,,,,,,,,,
,,,,,,,611a8d23c1d17506a23df589,2023-08-06_08h23.52.984,HF_wild_card,2022.2.4,Win32,60.09254252,611a8d23c1d17506a23df589,64ce5acb97489d65b14ecc7a,64cf4a1a1ef27e1f87418d4b,,,,,,,ctch,resources/DP.BMP,resources/DY.BMP,Door4,-0.235433071,0.015748031,1,0,0,0.8817,optionLeft,80,15165,7,18,0,18,0,1,,,,,,,,,,,,,,,,,,,,,,,,,,,,,,,,,,,,,,,
,,,,,,,611a8d23c1d17506a23df589,2023-08-06_08h23.52.984,HF_wild_card,2022.2.4,Win32,60.09254252,611a8d23c1d17506a23df589,64ce5acb97489d65b14ecc7a,64cf4a1a1ef27e1f87418d4b,,,,,,,decisionTrl,resources/DR.BMP,resources/DP.BMP,Door4,0.203937008,0.008661417,1,0,0,0.7486,optionRight,60,15225,7,19,0,19,0,1,,,,,,,,,,,,,,,,,,,,,,,,,,,,,,,,,,,,,,,
,,,,,,,611a8d23c1d17506a23df589,2023-08-06_08h23.52.984,HF_wild_card,2022.2.4,Win32,60.09254252,611a8d23c1d17506a23df589,64ce5acb97489d65b14ecc7a,64cf4a1a1ef27e1f87418d4b,,,,,,,decisionTrl,resources/DBN.BMP,resources/DY.BMP,Door1,0.201574803,-0.049606299,1,0,0,1.0643,optionRight,30,15255,7,20,0,20,0,1,,,,,,,,,,,,,,,,,,,,,,,,,,,,,,,,,,,,,,,
