Condition,Low fixed image (Door1),Low risky image (Door2),High fixed image (Door3),High risky image (Door4),Extreme Wild Card,NonExtreme Wild Card,,date,expName,psychopyVersion,OS,frameRate,PROLIFIC_PID,STUDY_ID,SESSION_ID,mouse_2.x,mouse_2.y,mouse_2.leftButton,mouse_2.midButton,mouse_2.rightButton,mouse_2.clicked_name,Trial Type,Left Option Image,Right Option Image,Chosen Door,mouse.x,mouse.y,mouse.leftButton,mouse.midButton,mouse.rightButton,mouse.time,mouse.clicked_name,Feedback,Cumulative Reward,Block,trial.thisRepN,trial.thisTrialN,trial.thisN,trial.thisIndex,trial.ran,blocks.thisRepN,blocks.thisTrialN,blocks.thisN,blocks.thisIndex,blocks.ran,Money conversion,First Outcome Reported,Shown Door (First Outcome),Displayed Image (First Outcome),outcomes.thisRepN,outcomes.thisTrialN,outcomes.thisN,outcomes.thisIndex,outcomes.ran,judgments.thisRepN,judgments.thisTrialN,judgments.thisN,judgments.thisIndex,judgments.ran,freqMouse.x,freqMouse.y,freqMouse.leftButton,freqMouse.midButton,freqMouse.rightButton,freqMouse.clicked_name,FQJ for first outcome,FQJ for second outcome,Shown Door,Displayed Image,trials.thisRepN,trials.thisTrialN,trials.thisN,trials.thisIndex,trials.ran,judgBlock.thisRepN,judgBlock.thisTrialN,judgBlock.thisN,judgBlock.thisIndex,judgBlock.ran
0,resources/DP.BMP,resources/DBN.BMP,resources/DB.BMP,resources/DR.BMP,resources/DG.BMP,resources/DY.BMP,,2023-08-16_08h38.54.292,HF_wild_card,2022.2.4,Win32,60.1612321,5f3eb7a8f14d1312518c5776,64d2fd46c836a06233681665,64dc7d00b34157f68973269f,,,,,,,,,,,,,,,,,,,,,,,,,,,,,,,,,,,,,,,,,,,,,,,,,,,,,,,,,,,,,,,,
,,,,,,,,2023-08-16_08h38.54.292,HF_wild_card,2022.2.4,Win32,60.1612321,5f3eb7a8f14d1312518c5776,64d2fd46c836a06233681665,64dc7d00b34157f68973269f,0.021296325,-0.419444473,1,0,0,agree,,,,,,,,,,,,,,,,,,,,,,,,,,,,,,,,,,,,,,,,,,,,,,,,,,,,,,,,,,
,,,,,,,,2023-08-16_08h38.54.292,HF_wild_card,2022.2.4,Win32,60.1612321,5f3eb7a8f14d1312518c5776,64d2fd46c836a06233681665,64dc7d00b34157f68973269f,,,,,,,,,,,,,,,,,,,,,,,,,,,,,,,,,,,,,,,,,,,,,,,,,,,,,,,,,,,,,,,,
,,,,,,,,2023-08-16_08h38.54.292,HF_wild_card,2022.2.4,Win32,60.1612321,5f3eb7a8f14d1312518c5776,64d2fd46c836a06233681665,64dc7d00b34157f68973269f,,,,,,,decisionTrl,resources/DP.BMP,resources/DG.BMP,Door1,-0.273148148,-0.031481496,1,0,0,8.3437,optionLeft,30,30,1,0,0,0,0,1,,,,,,,,,,,,,,,,,,,,,,,,,,,,,,,,,,,,,,,
,,,,,,,,2023-08-16_08h38.54.292,HF_wild_card,2022.2.4,Win32,60.1612321,5f3eb7a8f14d1312518c5776,64d2fd46c836a06233681665,64dc7d00b34157f68973269f,,,,,,,ctch,resources/DB.BMP,resources/DBN.BMP,Door2,0.222222222,-0.017592607,1,0,0,3.0258,optionRight,40,70,1,1,0,1,0,1,,,,,,,,,,,,,,,,,,,,,,,,,,,,,,,,,,,,,,,
,,,,,,,,2023-08-16_08h38.54.292,HF_wild_card,2022.2.4,Win32,60.1612321,5f3eb7a8f14d1312518c5776,64d2fd46c836a06233681665,64dc7d00b34157f68973269f,,,,,,,sngl,resources/DR.BMP,resources/Empty.png,Door4,0.296296296,-0.082407422,1,0,0,1.8935,optionLeft,80,150,1,2,0,2,0,1,,,,,,,,,,,,,,,,,,,,,,,,,,,,,,,,,,,,,,,
,,,,,,,,2023-08-16_08h38.54.292,HF_wild_card,2022.2.4,Win32,60.1612321,5f3eb7a8f14d1312518c5776,64d2fd46c836a06233681665,64dc7d00b34157f68973269f,,,,,,,decisionTrl,resources/DP.BMP,resources/DBN.BMP,Door2,0.256481524,0.041666667,1,0,0,1.8448,optionRight,40,190,1,3,0,3,0,1,,,,,,,,,,,,,,,,,,,,,,,,,,,,,,,,,,,,,,,
,,,,,,,,2023-08-16_08h38.54.292,HF_wild_card,2022.2.4,Win32,60.1612321,5f3eb7a8f14d1312518c5776,64d2fd46c836a06233681665,64dc7d00b34157f68973269f,,,,,,,sngl,resources/Empty.png,resources/DB.BMP,Door3,0.179629644,-0.024074095,1,0,0,1.4078,optionRight,70,260,1,4,0,4,0,1,,,,,,,,,,,,,,,,,,,,,,,,,,,,,,,,,,,,,,,
,,,,,,,,2023-08-16_08h38.54.292,HF_wild_card,2022.2.4,Win32,60.1612321,5f3eb7a8f14d1312518c5776,64d2fd46c836a06233681665,64dc7d00b34157f68973269f,,,,,,,decisionTrl,resources/DR.BMP,resources/DB.BMP,Door4,-0.239814829,-0.065740762,1,0,0,3.8451,optionLeft,60,320,1,5,0,5,0,1,,,,,,,,,,,,,,,,,,,,,,,,,,,,,,,,,,,,,,,
,,,,,,,,2023-08-16_08h38.54.292,HF_wild_card,2022.2.4,Win32,60.1612321,5f3eb7a8f14d1312518c5776,64d2fd46c836a06233681665,64dc7d00b34157f68973269f,,,,,,,sngl,resources/Empty.png,resources/DG.BMP,WildCard_Ex,0.238888917,0.029629637,1,0,0,1.226,optionRight,5,325,1,6,0,6,0,1,,,,,,,,,,,,,,,,,,,,,,,,,,,,,,,,,,,,,,,
,,,,,,,,2023-08-16_08h38.54.292,HF_wild_card,2022.2.4,Win32,60.1612321,5f3eb7a8f14d1312518c5776,64d2fd46c836a06233681665,64dc7d00b34157f68973269f,,,,,,,ctch,resources/DB.BMP,resources/DBN.BMP,Door2,0.236111111,-0.01666666,1,0,0,1.9461,optionRight,40,365,1,7,0,7,0,1,,,,,,,,,,,,,,,,,,,,,,,,,,,,,,,,,,,,,,,
,,,,,,,,2023-08-16_08h38.54.292,HF_wild_card,2022.2.4,Win32,60.1612321,5f3eb7a8f14d1312518c5776,64d2fd46c836a06233681665,64dc7d00b34157f68973269f,,,,,,,sngl,resources/DBN.BMP,resources/Empty.png,Door2,-0.162037037,0.01203703,1,0,0,1.0097,optionLeft,40,405,1,8,0,8,0,1,,,,,,,,,,,,,,,,,,,,,,,,,,,,,,,,,,,,,,,
,,,,,,,,2023-08-16_08h38.54.292,HF_wild_card,2022.2.4,Win32,60.1612321,5f3eb7a8f14d1312518c5776,64d2fd46c836a06233681665,64dc7d00b34157f68973269f,,,,,,,sngl,resources/Empty.png,resources/DG.BMP,WildCard_Ex,0.228703746,-0.025000007,1,0,0,0.9125,optionRight,95,500,1,9,0,9,0,1,,,,,,,,,,,,,,,,,,,,,,,,,,,,,,,,,,,,,,,
,,,,,,,,2023-08-16_08h38.54.292,HF_wild_card,2022.2.4,Win32,60.1612321,5f3eb7a8f14d1312518c5776,64d2fd46c836a06233681665,64dc7d00b34157f68973269f,,,,,,,decisionTrl,resources/DBN.BMP,resources/DP.BMP,Door2,-0.183333291,-0.003703718,1,0,0,1.9451,optionLeft,40,540,1,10,0,10,0,1,,,,,,,,,,,,,,,,,,,,,,,,,,,,,,,,,,,,,,,
,,,,,,,,2023-08-16_08h38.54.292,HF_wild_card,2022.2.4,Win32,60.1612321,5f3eb7a8f14d1312518c5776,64d2fd46c836a06233681665,64dc7d00b34157f68973269f,,,,,,,decisionTrl,resources/DR.BMP,resources/DB.BMP,Door4,-0.152777778,-0.01666666,1,0,0,1.3279,optionLeft,60,600,1,11,0,11,0,1,,,,,,,,,,,,,,,,,,,,,,,,,,,,,,,,,,,,,,,
,,,,,,,,2023-08-16_08h38.54.292,HF_wild_card,2022.2.4,Win32,60.1612321,5f3eb7a8f14d1312518c5776,64d2fd46c836a06233681665,64dc7d00b34157f68973269f,,,,,,,decisionTrl,resources/DBN.BMP,resources/DG.BMP,WildCard_Ex,0.262962977,-0.002777771,1,0,0,1.6627,optionRight,95,695,1,12,0,12,0,1,,,,,,,,,,,,,,,,,,,,,,,,,,,,,,,,,,,,,,,
,,,,,,,,2023-08-16_08h38.54.292,HF_wild_card,2022.2.4,Win32,60.1612321,5f3eb7a8f14d1312518c5776,64d2fd46c836a06233681665,64dc7d00b34157f68973269f,,,,,,,sngl,resources/DG.BMP,resources/Empty.png,WildCard_Ex,-0.213888875,0.00462963,1,0,0,0.9115,optionLeft,95,790,1,13,0,13,0,1,,,,,,,,,,,,,,,,,,,,,,,,,,,,,,,,,,,,,,,
,,,,,,,,2023-08-16_08h38.54.292,HF_wild_card,2022.2.4,Win32,60.1612321,5f3eb7a8f14d1312518c5776,64d2fd46c836a06233681665,64dc7d00b34157f68973269f,,,,,,,decisionTrl,resources/DR.BMP,resources/DB.BMP,Door3,0.158333319,-0.035185178,1,0,0,2.1663,optionRight,70,860,1,14,0,14,0,1,,,,,,,,,,,,,,,,,,,,,,,,,,,,,,,,,,,,,,,
,,,,,,,,2023-08-16_08h38.54.292,HF_wild_card,2022.2.4,Win32,60.1612321,5f3eb7a8f14d1312518c5776,64d2fd46c836a06233681665,64dc7d00b34157f68973269f,,,,,,,decisionTrl,resources/DBN.BMP,resources/DP.BMP,Door2,-0.16851849,-0.017592607,1,0,0,1.0453,optionLeft,20,880,1,15,0,15,0,1,,,,,,,,,,,,,,,,,,,,,,,,,,,,,,,,,,,,,,,
,,,,,,,,2023-08-16_08h38.54.292,HF_wild_card,2022.2.4,Win32,60.1612321,5f3eb7a8f14d1312518c5776,64d2fd46c836a06233681665,64dc7d00b34157f68973269f,,,,,,,sngl,resources/Empty.png,resources/DP.BMP,Door1,0.178703732,-0.010185206,1,0,0,0.7742,optionRight,30,910,1,16,0,16,0,1,,,,,,,,,,,,,,,,,,,,,,,,,,,,,,,,,,,,,,,
,,,,,,,,2023-08-16_08h38.54.292,HF_wild_card,2022.2.4,Win32,60.1612321,5f3eb7a8f14d1312518c5776,64d2fd46c836a06233681665,64dc7d00b34157f68973269f,,,,,,,ctch,resources/DR.BMP,resources/DP.BMP,Door1,0.154629672,-0.012962977,1,0,0,1.3587,optionRight,30,940,1,17,0,17,0,1,,,,,,,,,,,,,,,,,,,,,,,,,,,,,,,,,,,,,,,
,,,,,,,,2023-08-16_08h38.54.292,HF_wild_card,2022.2.4,Win32,60.1612321,5f3eb7a8f14d1312518c5776,64d2fd46c836a06233681665,64dc7d00b34157f68973269f,,,,,,,decisionTrl,resources/DG.BMP,resources/DP.BMP,WildCard_Ex,-0.214814787,-0.000925947,1,0,0,1.7612,optionLeft,5,945,1,18,0,18,0,1,,,,,,,,,,,,,,,,,,,,,,,,,,,,,,,,,,,,,,,
,,,,,,,,2023-08-16_08h38.54.292,HF_wild_card,2022.2.4,Win32,60.1612321,5f3eb7a8f14d1312518c5776,64d2fd46c836a06233681665,64dc7d00b34157f68973269f,,,,,,,decisionTrl,resources/DP.BMP,resources/DBN.BMP,Door2,0.37037037,0.049074067,1,0,0,0.9784,optionRight,40,985,1,19,0,19,0,1,,,,,,,,,,,,,,,,,,,,,,,,,,,,,,,,,,,,,,,
,,,,,,,,2023-08-16_08h38.54.292,HF_wild_card,2022.2.4,Win32,60.1612321,5f3eb7a8f14d1312518c5776,64d2fd46c836a06233681665,64dc7d00b34157f68973269f,,,,,,,decisionTrl,resources/DG.BMP,resources/DB.BMP,WildCard_Ex,-0.154629601,-0.00462963,1,0,0,1.2786,optionLeft,95,1080,1,20,0,20,0,1,,,,,,,,,,,,,,,,,,,,,,,,,,,,,,,,,,,,,,,
,,,,,,,,2023-08-16_08h38.54.292,HF_wild_card,2022.2.4,Win32,60.1612321,5f3eb7a8f14d1312518c5776,64d2fd46c836a06233681665,64dc7d00b34157f68973269f,,,,,,,decisionTrl,resources/DBN.BMP,resources/DP.BMP,Door2,-0.264814801,0.000925912,1,0,0,1.8512,optionLeft,40,1120,1,21,0,21,0,1,,,,,,,,,,,,,,,,,,,,,,,,,,,,,,,,,,,,,,,
,,,,,,,,2023-08-16_08h38.54.292,HF_wild_card,2022.2.4,Win32,60.1612321,5f3eb7a8f14d1312518c5776,64d2fd46c836a06233681665,64dc7d00b34157f68973269f,,,,,,,decisionTrl,resources/DBN.BMP,resources/DP.BMP,Door2,-0.234259217,0.014814801,1,0,0,1.0582,optionLeft,40,1160,1,22,0,22,0,1,,,,,,,,,,,,,,,,,,,,,,,,,,,,,,,,,,,,,,,
,,,,,,,,2023-08-16_08h38.54.292,HF_wild_card,2022.2.4,Win32,60.1612321,5f3eb7a8f14d1312518c5776,64d2fd46c836a06233681665,64dc7d00b34157f68973269f,,,,,,,ctch,resources/DBN.BMP,resources/DB.BMP,Door2,-0.36296297,0.025925919,1,0,0,0.8622,optionLeft,20,1180,1,23,0,23,0,1,,,,,,,,,,,,,,,,,,,,,,,,,,,,,,,,,,,,,,,
,,,,,,,,2023-08-16_08h38.54.292,HF_wild_card,2022.2.4,Win32,60.1612321,5f3eb7a8f14d1312518c5776,64d2fd46c836a06233681665,64dc7d00b34157f68973269f,,,,,,,decisionTrl,resources/DP.BMP,resources/DBN.BMP,Door2,0.229629658,-0.000925947,1,0,0,0.9416,optionRight,40,1220,1,24,0,24,0,1,,,,,,,,,,,,,,,,,,,,,,,,,,,,,,,,,,,,,,,
,,,,,,,,2023-08-16_08h38.54.292,HF_wild_card,2022.2.4,Win32,60.1612321,5f3eb7a8f14d1312518c5776,64d2fd46c836a06233681665,64dc7d00b34157f68973269f,,,,,,,sngl,resources/Empty.png,resources/DR.BMP,Door4,0.272222236,0.035185178,1,0,0,0.8463,optionRight,60,1280,1,25,0,25,0,1,,,,,,,,,,,,,,,,,,,,,,,,,,,,,,,,,,,,,,,
,,,,,,,,2023-08-16_08h38.54.292,HF_wild_card,2022.2.4,Win32,60.1612321,5f3eb7a8f14d1312518c5776,64d2fd46c836a06233681665,64dc7d00b34157f68973269f,,,,,,,decisionTrl,resources/DR.BMP,resources/DG.BMP,Door4,-0.290740755,0.042592578,1,0,0,2.6156,optionLeft,80,1360,1,26,0,26,0,1,,,,,,,,,,,,,,,,,,,,,,,,,,,,,,,,,,,,,,,
,,,,,,,,2023-08-16_08h38.54.292,HF_wild_card,2022.2.4,Win32,60.1612321,5f3eb7a8f14d1312518c5776,64d2fd46c836a06233681665,64dc7d00b34157f68973269f,,,,,,,ctch,resources/DBN.BMP,resources/DB.BMP,Door3,0.234259288,0,1,0,0,1.0118,optionRight,70,1430,1,27,0,27,0,1,,,,,,,,,,,,,,,,,,,,,,,,,,,,,,,,,,,,,,,
,,,,,,,,2023-08-16_08h38.54.292,HF_wild_card,2022.2.4,Win32,60.1612321,5f3eb7a8f14d1312518c5776,64d2fd46c836a06233681665,64dc7d00b34157f68973269f,,,,,,,decisionTrl,resources/DB.BMP,resources/DR.BMP,Door3,-0.252777735,-0.009259259,1,0,0,0.9924,optionLeft,70,1500,1,28,0,28,0,1,,,,,,,,,,,,,,,,,,,,,,,,,,,,,,,,,,,,,,,
,,,,,,,,2023-08-16_08h38.54.292,HF_wild_card,2022.2.4,Win32,60.1612321,5f3eb7a8f14d1312518c5776,64d2fd46c836a06233681665,64dc7d00b34157f68973269f,,,,,,,decisionTrl,resources/DB.BMP,resources/DG.BMP,WildCard_Ex,0.325000057,0.005555541,1,0,0,1.2406,optionRight,5,1505,1,29,0,29,0,1,,,,,,,,,,,,,,,,,,,,,,,,,,,,,,,,,,,,,,,
,,,,,,,,2023-08-16_08h38.54.292,HF_wild_card,2022.2.4,Win32,60.1612321,5f3eb7a8f14d1312518c5776,64d2fd46c836a06233681665,64dc7d00b34157f68973269f,,,,,,,decisionTrl,resources/DB.BMP,resources/DR.BMP,Door4,0.320370427,0.025000007,1,0,0,1.3128,optionRight,80,1585,1,30,0,30,0,1,,,,,,,,,,,,,,,,,,,,,,,,,,,,,,,,,,,,,,,
,,,,,,,,2023-08-16_08h38.54.292,HF_wild_card,2022.2.4,Win32,60.1612321,5f3eb7a8f14d1312518c5776,64d2fd46c836a06233681665,64dc7d00b34157f68973269f,,,,,,,ctch,resources/DR.BMP,resources/DP.BMP,Door4,-0.343518504,-0.033333355,1,0,0,0.8962,optionLeft,60,1645,1,31,0,31,0,1,,,,,,,,,,,,,,,,,,,,,,,,,,,,,,,,,,,,,,,
,,,,,,,,2023-08-16_08h38.54.292,HF_wild_card,2022.2.4,Win32,60.1612321,5f3eb7a8f14d1312518c5776,64d2fd46c836a06233681665,64dc7d00b34157f68973269f,,,,,,,ctch,resources/DP.BMP,resources/DR.BMP,Door1,-0.305555556,-0.011111118,1,0,0,0.812,optionLeft,30,1675,1,32,0,32,0,1,,,,,,,,,,,,,,,,,,,,,,,,,,,,,,,,,,,,,,,
,,,,,,,,2023-08-16_08h38.54.292,HF_wild_card,2022.2.4,Win32,60.1612321,5f3eb7a8f14d1312518c5776,64d2fd46c836a06233681665,64dc7d00b34157f68973269f,,,,,,,decisionTrl,resources/DP.BMP,resources/DBN.BMP,Door1,-0.291666667,0.022222201,1,0,0,1.1838,optionLeft,30,1705,1,33,0,33,0,1,,,,,,,,,,,,,,,,,,,,,,,,,,,,,,,,,,,,,,,
,,,,,,,,2023-08-16_08h38.54.292,HF_wild_card,2022.2.4,Win32,60.1612321,5f3eb7a8f14d1312518c5776,64d2fd46c836a06233681665,64dc7d00b34157f68973269f,,,,,,,decisionTrl,resources/DB.BMP,resources/DR.BMP,Door4,0.270370413,-0.013888889,1,0,0,2.4584,optionRight,80,1785,1,34,0,34,0,1,,,,,,,,,,,,,,,,,,,,,,,,,,,,,,,,,,,,,,,
,,,,,,,,2023-08-16_08h38.54.292,HF_wild_card,2022.2.4,Win32,60.1612321,5f3eb7a8f14d1312518c5776,64d2fd46c836a06233681665,64dc7d00b34157f68973269f,,,,,,,decisionTrl,resources/DG.BMP,resources/DR.BMP,Door4,0.219444487,-0.039814808,1,0,0,1.5132,optionRight,60,1845,1,35,0,35,0,1,,,,,,,,,,,,,,,,,,,,,,,,,,,,,,,,,,,,,,,
,,,,,,,,2023-08-16_08h38.54.292,HF_wild_card,2022.2.4,Win32,60.1612321,5f3eb7a8f14d1312518c5776,64d2fd46c836a06233681665,64dc7d00b34157f68973269f,,,,,,,sngl,resources/DG.BMP,resources/Empty.png,WildCard_Ex,-0.202777792,-0.006481489,1,0,0,0.828,optionLeft,5,1850,1,36,0,36,0,1,,,,,,,,,,,,,,,,,,,,,,,,,,,,,,,,,,,,,,,
,,,,,,,,2023-08-16_08h38.54.292,HF_wild_card,2022.2.4,Win32,60.1612321,5f3eb7a8f14d1312518c5776,64d2fd46c836a06233681665,64dc7d00b34157f68973269f,,,,,,,ctch,resources/DP.BMP,resources/DR.BMP,Door1,-0.201851809,-0.014814836,1,0,0,0.9611,optionLeft,30,1880,1,37,0,37,0,1,,,,,,,,,,,,,,,,,,,,,,,,,,,,,,,,,,,,,,,
,,,,,,,,2023-08-16_08h38.54.292,HF_wild_card,2022.2.4,Win32,60.1612321,5f3eb7a8f14d1312518c5776,64d2fd46c836a06233681665,64dc7d00b34157f68973269f,,,,,,,sngl,resources/Empty.png,resources/DBN.BMP,Door2,0.268518519,-0.022222236,1,0,0,0.7952,optionRight,20,1900,1,38,0,38,0,1,,,,,,,,,,,,,,,,,,,,,,,,,,,,,,,,,,,,,,,
,,,,,,,,2023-08-16_08h38.54.292,HF_wild_card,2022.2.4,Win32,60.1612321,5f3eb7a8f14d1312518c5776,64d2fd46c836a06233681665,64dc7d00b34157f68973269f,,,,,,,decisionTrl,resources/DG.BMP,resources/DBN.BMP,WildCard_Ex,-0.080555527,-0.041666667,1,0,0,1.6612,optionLeft,5,1905,1,39,0,39,0,1,,,,,,,,,,,,,,,,,,,,,,,,,,,,,,,,,,,,,,,
,,,,,,,,2023-08-16_08h38.54.292,HF_wild_card,2022.2.4,Win32,60.1612321,5f3eb7a8f14d1312518c5776,64d2fd46c836a06233681665,64dc7d00b34157f68973269f,,,,,,,decisionTrl,resources/DR.BMP,resources/DB.BMP,Door4,-0.35833334,-0.000925947,1,0,0,2.3963,optionLeft,60,1965,1,40,0,40,0,1,,,,,,,,,,,,,,,,,,,,,,,,,,,,,,,,,,,,,,,
,,,,,,,,2023-08-16_08h38.54.292,HF_wild_card,2022.2.4,Win32,60.1612321,5f3eb7a8f14d1312518c5776,64d2fd46c836a06233681665,64dc7d00b34157f68973269f,,,,,,,sngl,resources/DB.BMP,resources/Empty.png,Door3,-0.137036995,0.0074074,1,0,0,0.796,optionLeft,70,2035,1,41,0,41,0,1,,,,,,,,,,,,,,,,,,,,,,,,,,,,,,,,,,,,,,,
,,,,,,,,2023-08-16_08h38.54.292,HF_wild_card,2022.2.4,Win32,60.1612321,5f3eb7a8f14d1312518c5776,64d2fd46c836a06233681665,64dc7d00b34157f68973269f,,,,,,,decisionTrl,resources/DB.BMP,resources/DR.BMP,Door4,0.261111153,-0.046296296,1,0,0,1.7786,optionRight,60,2095,1,42,0,42,0,1,,,,,,,,,,,,,,,,,,,,,,,,,,,,,,,,,,,,,,,
,,,,,,,,2023-08-16_08h38.54.292,HF_wild_card,2022.2.4,Win32,60.1612321,5f3eb7a8f14d1312518c5776,64d2fd46c836a06233681665,64dc7d00b34157f68973269f,,,,,,,sngl,resources/DP.BMP,resources/Empty.png,Door1,-0.236111111,0.042592578,1,0,0,0.8295,optionLeft,30,2125,1,43,0,43,0,1,,,,,,,,,,,,,,,,,,,,,,,,,,,,,,,,,,,,,,,
,,,,,,,,2023-08-16_08h38.54.292,HF_wild_card,2022.2.4,Win32,60.1612321,5f3eb7a8f14d1312518c5776,64d2fd46c836a06233681665,64dc7d00b34157f68973269f,,,,,,,,,,,,,,,,,,,,,,,,,,0,0,0,0,1,,,,,,,,,,,,,,,,,,,,,,,,,,,,,,,,,,
,,,,,,,,2023-08-16_08h38.54.292,HF_wild_card,2022.2.4,Win32,60.1612321,5f3eb7a8f14d1312518c5776,64d2fd46c836a06233681665,64dc7d00b34157f68973269f,,,,,,,decisionTrl,resources/DP.BMP,resources/DG.BMP,Door1,-0.195370356,-0.094444487,1,0,0,2.8239,optionLeft,30,2155,2,0,0,0,0,1,,,,,,,,,,,,,,,,,,,,,,,,,,,,,,,,,,,,,,,
,,,,,,,,2023-08-16_08h38.54.292,HF_wild_card,2022.2.4,Win32,60.1612321,5f3eb7a8f14d1312518c5776,64d2fd46c836a06233681665,64dc7d00b34157f68973269f,,,,,,,decisionTrl,resources/DG.BMP,resources/DBN.BMP,Door2,0.192592621,-0.025000007,1,0,0,0.9952,optionRight,40,2195,2,1,0,1,0,1,,,,,,,,,,,,,,,,,,,,,,,,,,,,,,,,,,,,,,,
,,,,,,,,2023-08-16_08h38.54.292,HF_wild_card,2022.2.4,Win32,60.1612321,5f3eb7a8f14d1312518c5776,64d2fd46c836a06233681665,64dc7d00b34157f68973269f,,,,,,,sngl,resources/Empty.png,resources/DB.BMP,Door3,0.357407464,-0.066666674,1,0,0,0.8296,optionRight,70,2265,2,2,0,2,0,1,,,,,,,,,,,,,,,,,,,,,,,,,,,,,,,,,,,,,,,
,,,,,,,,2023-08-16_08h38.54.292,HF_wild_card,2022.2.4,Win32,60.1612321,5f3eb7a8f14d1312518c5776,64d2fd46c836a06233681665,64dc7d00b34157f68973269f,,,,,,,decisionTrl,resources/DB.BMP,resources/DG.BMP,WildCard_Ex,0.210185228,-0.035185178,1,0,0,1.8631,optionRight,95,2360,2,3,0,3,0,1,,,,,,,,,,,,,,,,,,,,,,,,,,,,,,,,,,,,,,,
,,,,,,,,2023-08-16_08h38.54.292,HF_wild_card,2022.2.4,Win32,60.1612321,5f3eb7a8f14d1312518c5776,64d2fd46c836a06233681665,64dc7d00b34157f68973269f,,,,,,,ctch,resources/DR.BMP,resources/DP.BMP,Door1,0.279629672,0.018518519,1,0,0,3.4569,optionRight,30,2390,2,4,0,4,0,1,,,,,,,,,,,,,,,,,,,,,,,,,,,,,,,,,,,,,,,
,,,,,,,,2023-08-16_08h38.54.292,HF_wild_card,2022.2.4,Win32,60.1612321,5f3eb7a8f14d1312518c5776,64d2fd46c836a06233681665,64dc7d00b34157f68973269f,,,,,,,sngl,resources/Empty.png,resources/DG.BMP,WildCard_Ex,0.271296325,-0.001851859,1,0,0,0.8627,optionRight,95,2485,2,5,0,5,0,1,,,,,,,,,,,,,,,,,,,,,,,,,,,,,,,,,,,,,,,
,,,,,,,,2023-08-16_08h38.54.292,HF_wild_card,2022.2.4,Win32,60.1612321,5f3eb7a8f14d1312518c5776,64d2fd46c836a06233681665,64dc7d00b34157f68973269f,,,,,,,decisionTrl,resources/DBN.BMP,resources/DG.BMP,Door2,-0.243518476,0.002777771,1,0,0,0.9957,optionLeft,40,2525,2,6,0,6,0,1,,,,,,,,,,,,,,,,,,,,,,,,,,,,,,,,,,,,,,,
,,,,,,,,2023-08-16_08h38.54.292,HF_wild_card,2022.2.4,Win32,60.1612321,5f3eb7a8f14d1312518c5776,64d2fd46c836a06233681665,64dc7d00b34157f68973269f,,,,,,,decisionTrl,resources/DB.BMP,resources/DR.BMP,Door4,0.266666695,-0.025925919,1,0,0,5.9457,optionRight,60,2585,2,7,0,7,0,1,,,,,,,,,,,,,,,,,,,,,,,,,,,,,,,,,,,,,,,
,,,,,,,,2023-08-16_08h38.54.292,HF_wild_card,2022.2.4,Win32,60.1612321,5f3eb7a8f14d1312518c5776,64d2fd46c836a06233681665,64dc7d00b34157f68973269f,,,,,,,decisionTrl,resources/DR.BMP,resources/DG.BMP,WildCard_Ex,0.466666751,-0.076851845,1,0,0,1.8451,optionRight,95,2680,2,8,0,8,0,1,,,,,,,,,,,,,,,,,,,,,,,,,,,,,,,,,,,,,,,
,,,,,,,,2023-08-16_08h38.54.292,HF_wild_card,2022.2.4,Win32,60.1612321,5f3eb7a8f14d1312518c5776,64d2fd46c836a06233681665,64dc7d00b34157f68973269f,,,,,,,sngl,resources/DG.BMP,resources/Empty.png,WildCard_Ex,-0.36296297,0.025925919,1,0,0,0.9094,optionLeft,5,2685,2,9,0,9,0,1,,,,,,,,,,,,,,,,,,,,,,,,,,,,,,,,,,,,,,,
,,,,,,,,2023-08-16_08h38.54.292,HF_wild_card,2022.2.4,Win32,60.1612321,5f3eb7a8f14d1312518c5776,64d2fd46c836a06233681665,64dc7d00b34157f68973269f,,,,,,,decisionTrl,resources/DR.BMP,resources/DB.BMP,Door4,-0.359259252,-0.013888889,1,0,0,11.8267,optionLeft,60,2745,2,10,0,10,0,1,,,,,,,,,,,,,,,,,,,,,,,,,,,,,,,,,,,,,,,
,,,,,,,,2023-08-16_08h38.54.292,HF_wild_card,2022.2.4,Win32,60.1612321,5f3eb7a8f14d1312518c5776,64d2fd46c836a06233681665,64dc7d00b34157f68973269f,,,,,,,decisionTrl,resources/DP.BMP,resources/DBN.BMP,Door2,0.239814829,-0.001851859,1,0,0,4.3118,optionRight,40,2785,2,11,0,11,0,1,,,,,,,,,,,,,,,,,,,,,,,,,,,,,,,,,,,,,,,
,,,,,,,,2023-08-16_08h38.54.292,HF_wild_card,2022.2.4,Win32,60.1612321,5f3eb7a8f14d1312518c5776,64d2fd46c836a06233681665,64dc7d00b34157f68973269f,,,,,,,sngl,resources/DP.BMP,resources/Empty.png,Door1,-0.249074088,-0.001851859,1,0,0,0.8124,optionLeft,30,2815,2,12,0,12,0,1,,,,,,,,,,,,,,,,,,,,,,,,,,,,,,,,,,,,,,,
,,,,,,,,2023-08-16_08h38.54.292,HF_wild_card,2022.2.4,Win32,60.1612321,5f3eb7a8f14d1312518c5776,64d2fd46c836a06233681665,64dc7d00b34157f68973269f,,,,,,,decisionTrl,resources/DB.BMP,resources/DR.BMP,Door4,0.20648151,-0.009259259,1,0,0,0.8295,optionRight,80,2895,2,13,0,13,0,1,,,,,,,,,,,,,,,,,,,,,,,,,,,,,,,,,,,,,,,
,,,,,,,,2023-08-16_08h38.54.292,HF_wild_card,2022.2.4,Win32,60.1612321,5f3eb7a8f14d1312518c5776,64d2fd46c836a06233681665,64dc7d00b34157f68973269f,,,,,,,decisionTrl,resources/DP.BMP,resources/DBN.BMP,Door2,0.32685188,-0.037037037,1,0,0,1.4103,optionRight,20,2915,2,14,0,14,0,1,,,,,,,,,,,,,,,,,,,,,,,,,,,,,,,,,,,,,,,
,,,,,,,,2023-08-16_08h38.54.292,HF_wild_card,2022.2.4,Win32,60.1612321,5f3eb7a8f14d1312518c5776,64d2fd46c836a06233681665,64dc7d00b34157f68973269f,,,,,,,decisionTrl,resources/DBN.BMP,resources/DP.BMP,Door2,-0.206481439,-0.009259259,1,0,0,0.7807,optionLeft,40,2955,2,15,0,15,0,1,,,,,,,,,,,,,,,,,,,,,,,,,,,,,,,,,,,,,,,
,,,,,,,,2023-08-16_08h38.54.292,HF_wild_card,2022.2.4,Win32,60.1612321,5f3eb7a8f14d1312518c5776,64d2fd46c836a06233681665,64dc7d00b34157f68973269f,,,,,,,ctch,resources/DB.BMP,resources/DBN.BMP,Door2,0.189814815,-0.002777771,1,0,0,0.8116,optionRight,40,2995,2,16,0,16,0,1,,,,,,,,,,,,,,,,,,,,,,,,,,,,,,,,,,,,,,,
,,,,,,,,2023-08-16_08h38.54.292,HF_wild_card,2022.2.4,Win32,60.1612321,5f3eb7a8f14d1312518c5776,64d2fd46c836a06233681665,64dc7d00b34157f68973269f,,,,,,,sngl,resources/Empty.png,resources/DBN.BMP,Door2,0.263888889,0.001851859,1,0,0,0.8139,optionRight,40,3035,2,17,0,17,0,1,,,,,,,,,,,,,,,,,,,,,,,,,,,,,,,,,,,,,,,
,,,,,,,,2023-08-16_08h38.54.292,HF_wild_card,2022.2.4,Win32,60.1612321,5f3eb7a8f14d1312518c5776,64d2fd46c836a06233681665,64dc7d00b34157f68973269f,,,,,,,decisionTrl,resources/DB.BMP,resources/DR.BMP,Door4,0.27407406,-0.008333347,1,0,0,1.2792,optionRight,60,3095,2,18,0,18,0,1,,,,,,,,,,,,,,,,,,,,,,,,,,,,,,,,,,,,,,,
,,,,,,,,2023-08-16_08h38.54.292,HF_wild_card,2022.2.4,Win32,60.1612321,5f3eb7a8f14d1312518c5776,64d2fd46c836a06233681665,64dc7d00b34157f68973269f,,,,,,,ctch,resources/DR.BMP,resources/DP.BMP,Door1,0.297222279,-0.062037044,1,0,0,1.483,optionRight,30,3125,2,19,0,19,0,1,,,,,,,,,,,,,,,,,,,,,,,,,,,,,,,,,,,,,,,
,,,,,,,,2023-08-16_08h38.54.292,HF_wild_card,2022.2.4,Win32,60.1612321,5f3eb7a8f14d1312518c5776,64d2fd46c836a06233681665,64dc7d00b34157f68973269f,,,,,,,decisionTrl,resources/DBN.BMP,resources/DP.BMP,Door2,-0.273148148,-0.022222236,1,0,0,0.8935,optionLeft,40,3165,2,20,0,20,0,1,,,,,,,,,,,,,,,,,,,,,,,,,,,,,,,,,,,,,,,
,,,,,,,,2023-08-16_08h38.54.292,HF_wild_card,2022.2.4,Win32,60.1612321,5f3eb7a8f14d1312518c5776,64d2fd46c836a06233681665,64dc7d00b34157f68973269f,,,,,,,ctch,resources/DBN.BMP,resources/DB.BMP,Door2,-0.209259245,-0.012962977,1,0,0,1.163,optionLeft,20,3185,2,21,0,21,0,1,,,,,,,,,,,,,,,,,,,,,,,,,,,,,,,,,,,,,,,
,,,,,,,,2023-08-16_08h38.54.292,HF_wild_card,2022.2.4,Win32,60.1612321,5f3eb7a8f14d1312518c5776,64d2fd46c836a06233681665,64dc7d00b34157f68973269f,,,,,,,decisionTrl,resources/DG.BMP,resources/DR.BMP,WildCard_Ex,-0.287962949,-0.038888896,1,0,0,2.2131,optionLeft,95,3280,2,22,0,22,0,1,,,,,,,,,,,,,,,,,,,,,,,,,,,,,,,,,,,,,,,
,,,,,,,,2023-08-16_08h38.54.292,HF_wild_card,2022.2.4,Win32,60.1612321,5f3eb7a8f14d1312518c5776,64d2fd46c836a06233681665,64dc7d00b34157f68973269f,,,,,,,sngl,resources/Empty.png,resources/DG.BMP,WildCard_Ex,0.315740797,-0.014814836,1,0,0,0.7302,optionRight,5,3285,2,23,0,23,0,1,,,,,,,,,,,,,,,,,,,,,,,,,,,,,,,,,,,,,,,
,,,,,,,,2023-08-16_08h38.54.292,HF_wild_card,2022.2.4,Win32,60.1612321,5f3eb7a8f14d1312518c5776,64d2fd46c836a06233681665,64dc7d00b34157f68973269f,,,,,,,decisionTrl,resources/DR.BMP,resources/DB.BMP,Door4,-0.178703661,0.006481489,1,0,0,0.8082,optionLeft,60,3345,2,24,0,24,0,1,,,,,,,,,,,,,,,,,,,,,,,,,,,,,,,,,,,,,,,
,,,,,,,,2023-08-16_08h38.54.292,HF_wild_card,2022.2.4,Win32,60.1612321,5f3eb7a8f14d1312518c5776,64d2fd46c836a06233681665,64dc7d00b34157f68973269f,,,,,,,ctch,resources/DB.BMP,resources/DBN.BMP,Door2,0.192592621,-0.031481496,1,0,0,0.9454,optionRight,20,3365,2,25,0,25,0,1,,,,,,,,,,,,,,,,,,,,,,,,,,,,,,,,,,,,,,,
,,,,,,,,2023-08-16_08h38.54.292,HF_wild_card,2022.2.4,Win32,60.1612321,5f3eb7a8f14d1312518c5776,64d2fd46c836a06233681665,64dc7d00b34157f68973269f,,,,,,,decisionTrl,resources/DP.BMP,resources/DBN.BMP,Door2,0.255555541,-0.01666666,1,0,0,1.0615,optionRight,40,3405,2,26,0,26,0,1,,,,,,,,,,,,,,,,,,,,,,,,,,,,,,,,,,,,,,,
,,,,,,,,2023-08-16_08h38.54.292,HF_wild_card,2022.2.4,Win32,60.1612321,5f3eb7a8f14d1312518c5776,64d2fd46c836a06233681665,64dc7d00b34157f68973269f,,,,,,,sngl,resources/DB.BMP,resources/Empty.png,Door3,-0.172222208,0.008333312,1,0,0,0.843,optionLeft,70,3475,2,27,0,27,0,1,,,,,,,,,,,,,,,,,,,,,,,,,,,,,,,,,,,,,,,
,,,,,,,,2023-08-16_08h38.54.292,HF_wild_card,2022.2.4,Win32,60.1612321,5f3eb7a8f14d1312518c5776,64d2fd46c836a06233681665,64dc7d00b34157f68973269f,,,,,,,sngl,resources/Empty.png,resources/DP.BMP,Door1,0.166666667,-0.032407407,1,0,0,0.8129,optionRight,30,3505,2,28,0,28,0,1,,,,,,,,,,,,,,,,,,,,,,,,,,,,,,,,,,,,,,,
,,,,,,,,2023-08-16_08h38.54.292,HF_wild_card,2022.2.4,Win32,60.1612321,5f3eb7a8f14d1312518c5776,64d2fd46c836a06233681665,64dc7d00b34157f68973269f,,,,,,,decisionTrl,resources/DP.BMP,resources/DBN.BMP,Door2,0.265740783,-0.021296289,1,0,0,1.0806,optionRight,40,3545,2,29,0,29,0,1,,,,,,,,,,,,,,,,,,,,,,,,,,,,,,,,,,,,,,,
,,,,,,,,2023-08-16_08h38.54.292,HF_wild_card,2022.2.4,Win32,60.1612321,5f3eb7a8f14d1312518c5776,64d2fd46c836a06233681665,64dc7d00b34157f68973269f,,,,,,,decisionTrl,resources/DB.BMP,resources/DR.BMP,Door4,0.209259245,-0.021296289,1,0,0,0.9658,optionRight,60,3605,2,30,0,30,0,1,,,,,,,,,,,,,,,,,,,,,,,,,,,,,,,,,,,,,,,
,,,,,,,,2023-08-16_08h38.54.292,HF_wild_card,2022.2.4,Win32,60.1612321,5f3eb7a8f14d1312518c5776,64d2fd46c836a06233681665,64dc7d00b34157f68973269f,,,,,,,decisionTrl,resources/DR.BMP,resources/DB.BMP,Door4,-0.246296282,-0.045370384,1,0,0,0.8092,optionLeft,80,3685,2,31,0,31,0,1,,,,,,,,,,,,,,,,,,,,,,,,,,,,,,,,,,,,,,,
,,,,,,,,2023-08-16_08h38.54.292,HF_wild_card,2022.2.4,Win32,60.1612321,5f3eb7a8f14d1312518c5776,64d2fd46c836a06233681665,64dc7d00b34157f68973269f,,,,,,,ctch,resources/DP.BMP,resources/DR.BMP,Door1,-0.333333333,0.00462963,1,0,0,1.766,optionLeft,30,3715,2,32,0,32,0,1,,,,,,,,,,,,,,,,,,,,,,,,,,,,,,,,,,,,,,,
,,,,,,,,2023-08-16_08h38.54.292,HF_wild_card,2022.2.4,Win32,60.1612321,5f3eb7a8f14d1312518c5776,64d2fd46c836a06233681665,64dc7d00b34157f68973269f,,,,,,,decisionTrl,resources/DBN.BMP,resources/DP.BMP,Door2,-0.281481496,-0.034259266,1,0,0,0.9456,optionLeft,40,3755,2,33,0,33,0,1,,,,,,,,,,,,,,,,,,,,,,,,,,,,,,,,,,,,,,,
,,,,,,,,2023-08-16_08h38.54.292,HF_wild_card,2022.2.4,Win32,60.1612321,5f3eb7a8f14d1312518c5776,64d2fd46c836a06233681665,64dc7d00b34157f68973269f,,,,,,,ctch,resources/DBN.BMP,resources/DB.BMP,Door2,-0.287962949,-0.063888903,1,0,0,0.8789,optionLeft,40,3795,2,34,0,34,0,1,,,,,,,,,,,,,,,,,,,,,,,,,,,,,,,,,,,,,,,
,,,,,,,,2023-08-16_08h38.54.292,HF_wild_card,2022.2.4,Win32,60.1612321,5f3eb7a8f14d1312518c5776,64d2fd46c836a06233681665,64dc7d00b34157f68973269f,,,,,,,sngl,resources/DBN.BMP,resources/Empty.png,Door2,-0.29351849,-0.048148155,1,0,0,0.7914,optionLeft,20,3815,2,35,0,35,0,1,,,,,,,,,,,,,,,,,,,,,,,,,,,,,,,,,,,,,,,
,,,,,,,,2023-08-16_08h38.54.292,HF_wild_card,2022.2.4,Win32,60.1612321,5f3eb7a8f14d1312518c5776,64d2fd46c836a06233681665,64dc7d00b34157f68973269f,,,,,,,sngl,resources/DG.BMP,resources/Empty.png,WildCard_Ex,-0.255555541,-0.026851866,1,0,0,0.8663,optionLeft,95,3910,2,36,0,36,0,1,,,,,,,,,,,,,,,,,,,,,,,,,,,,,,,,,,,,,,,
,,,,,,,,2023-08-16_08h38.54.292,HF_wild_card,2022.2.4,Win32,60.1612321,5f3eb7a8f14d1312518c5776,64d2fd46c836a06233681665,64dc7d00b34157f68973269f,,,,,,,decisionTrl,resources/DG.BMP,resources/DP.BMP,WildCard_Ex,-0.395370377,-0.048148155,1,0,0,2.2615,optionLeft,95,4005,2,37,0,37,0,1,,,,,,,,,,,,,,,,,,,,,,,,,,,,,,,,,,,,,,,
,,,,,,,,2023-08-16_08h38.54.292,HF_wild_card,2022.2.4,Win32,60.1612321,5f3eb7a8f14d1312518c5776,64d2fd46c836a06233681665,64dc7d00b34157f68973269f,,,,,,,ctch,resources/DP.BMP,resources/DR.BMP,Door1,-0.186111097,-0.0074074,1,0,0,1.53,optionLeft,30,4035,2,38,0,38,0,1,,,,,,,,,,,,,,,,,,,,,,,,,,,,,,,,,,,,,,,
,,,,,,,,2023-08-16_08h38.54.292,HF_wild_card,2022.2.4,Win32,60.1612321,5f3eb7a8f14d1312518c5776,64d2fd46c836a06233681665,64dc7d00b34157f68973269f,,,,,,,decisionTrl,resources/DBN.BMP,resources/DP.BMP,Door2,-0.258333347,-0.052777785,1,0,0,1.2341,optionLeft,20,4055,2,39,0,39,0,1,,,,,,,,,,,,,,,,,,,,,,,,,,,,,,,,,,,,,,,
,,,,,,,,2023-08-16_08h38.54.292,HF_wild_card,2022.2.4,Win32,60.1612321,5f3eb7a8f14d1312518c5776,64d2fd46c836a06233681665,64dc7d00b34157f68973269f,,,,,,,decisionTrl,resources/DR.BMP,resources/DB.BMP,Door4,-0.299999979,-0.028703725,1,0,0,0.9412,optionLeft,80,4135,2,40,0,40,0,1,,,,,,,,,,,,,,,,,,,,,,,,,,,,,,,,,,,,,,,
,,,,,,,,2023-08-16_08h38.54.292,HF_wild_card,2022.2.4,Win32,60.1612321,5f3eb7a8f14d1312518c5776,64d2fd46c836a06233681665,64dc7d00b34157f68973269f,,,,,,,decisionTrl,resources/DG.BMP,resources/DB.BMP,WildCard_Ex,-0.338888875,-0.028703725,1,0,0,1.3127,optionLeft,5,4140,2,41,0,41,0,1,,,,,,,,,,,,,,,,,,,,,,,,,,,,,,,,,,,,,,,
,,,,,,,,2023-08-16_08h38.54.292,HF_wild_card,2022.2.4,Win32,60.1612321,5f3eb7a8f14d1312518c5776,64d2fd46c836a06233681665,64dc7d00b34157f68973269f,,,,,,,sngl,resources/DR.BMP,resources/Empty.png,Door4,-0.303703697,0.00462963,1,0,0,0.7084,optionLeft,60,4200,2,42,0,42,0,1,,,,,,,,,,,,,,,,,,,,,,,,,,,,,,,,,,,,,,,
,,,,,,,,2023-08-16_08h38.54.292,HF_wild_card,2022.2.4,Win32,60.1612321,5f3eb7a8f14d1312518c5776,64d2fd46c836a06233681665,64dc7d00b34157f68973269f,,,,,,,sngl,resources/Empty.png,resources/DR.BMP,Door4,0.271296325,-0.01203703,1,0,0,0.6945,optionRight,80,4280,2,43,0,43,0,1,,,,,,,,,,,,,,,,,,,,,,,,,,,,,,,,,,,,,,,
,,,,,,,,2023-08-16_08h38.54.292,HF_wild_card,2022.2.4,Win32,60.1612321,5f3eb7a8f14d1312518c5776,64d2fd46c836a06233681665,64dc7d00b34157f68973269f,,,,,,,,,,,,,,,,,,,,,,,,,,1,0,1,0,1,,,,,,,,,,,,,,,,,,,,,,,,,,,,,,,,,,
,,,,,,,,2023-08-16_08h38.54.292,HF_wild_card,2022.2.4,Win32,60.1612321,5f3eb7a8f14d1312518c5776,64d2fd46c836a06233681665,64dc7d00b34157f68973269f,,,,,,,decisionTrl,resources/DG.BMP,resources/DB.BMP,WildCard_Ex,-0.310185185,-0.070370392,1,0,0,4.3707,optionLeft,95,4375,3,0,0,0,0,1,,,,,,,,,,,,,,,,,,,,,,,,,,,,,,,,,,,,,,,
,,,,,,,,2023-08-16_08h38.54.292,HF_wild_card,2022.2.4,Win32,60.1612321,5f3eb7a8f14d1312518c5776,64d2fd46c836a06233681665,64dc7d00b34157f68973269f,,,,,,,ctch,resources/DP.BMP,resources/DR.BMP,Door4,0.400925954,-0.013888889,1,0,0,1.212,optionRight,60,4435,3,1,0,1,0,1,,,,,,,,,,,,,,,,,,,,,,,,,,,,,,,,,,,,,,,
,,,,,,,,2023-08-16_08h38.54.292,HF_wild_card,2022.2.4,Win32,60.1612321,5f3eb7a8f14d1312518c5776,64d2fd46c836a06233681665,64dc7d00b34157f68973269f,,,,,,,decisionTrl,resources/DB.BMP,resources/DR.BMP,Door4,0.260185171,-0.00462963,1,0,0,3.7286,optionRight,80,4515,3,2,0,2,0,1,,,,,,,,,,,,,,,,,,,,,,,,,,,,,,,,,,,,,,,
,,,,,,,,2023-08-16_08h38.54.292,HF_wild_card,2022.2.4,Win32,60.1612321,5f3eb7a8f14d1312518c5776,64d2fd46c836a06233681665,64dc7d00b34157f68973269f,,,,,,,decisionTrl,resources/DR.BMP,resources/DB.BMP,Door4,-0.241666653,0.058333326,1,0,0,2.6922,optionLeft,60,4575,3,3,0,3,0,1,,,,,,,,,,,,,,,,,,,,,,,,,,,,,,,,,,,,,,,
,,,,,,,,2023-08-16_08h38.54.292,HF_wild_card,2022.2.4,Win32,60.1612321,5f3eb7a8f14d1312518c5776,64d2fd46c836a06233681665,64dc7d00b34157f68973269f,,,,,,,decisionTrl,resources/DP.BMP,resources/DBN.BMP,Door2,0.308333362,0.088888875,1,0,0,1.9115,optionRight,40,4615,3,4,0,4,0,1,,,,,,,,,,,,,,,,,,,,,,,,,,,,,,,,,,,,,,,
,,,,,,,,2023-08-16_08h38.54.292,HF_wild_card,2022.2.4,Win32,60.1612321,5f3eb7a8f14d1312518c5776,64d2fd46c836a06233681665,64dc7d00b34157f68973269f,,,,,,,sngl,resources/Empty.png,resources/DR.BMP,Door4,0.275000042,-0.031481496,1,0,0,0.7277,optionRight,60,4675,3,5,0,5,0,1,,,,,,,,,,,,,,,,,,,,,,,,,,,,,,,,,,,,,,,
,,,,,,,,2023-08-16_08h38.54.292,HF_wild_card,2022.2.4,Win32,60.1612321,5f3eb7a8f14d1312518c5776,64d2fd46c836a06233681665,64dc7d00b34157f68973269f,,,,,,,decisionTrl,resources/DBN.BMP,resources/DP.BMP,Door2,-0.224999958,-0.014814836,1,0,0,0.8162,optionLeft,20,4695,3,6,0,6,0,1,,,,,,,,,,,,,,,,,,,,,,,,,,,,,,,,,,,,,,,
,,,,,,,,2023-08-16_08h38.54.292,HF_wild_card,2022.2.4,Win32,60.1612321,5f3eb7a8f14d1312518c5776,64d2fd46c836a06233681665,64dc7d00b34157f68973269f,,,,,,,decisionTrl,resources/DR.BMP,resources/DB.BMP,Door4,-0.297222208,-0.001851859,1,0,0,0.9489,optionLeft,80,4775,3,7,0,7,0,1,,,,,,,,,,,,,,,,,,,,,,,,,,,,,,,,,,,,,,,
,,,,,,,,2023-08-16_08h38.54.292,HF_wild_card,2022.2.4,Win32,60.1612321,5f3eb7a8f14d1312518c5776,64d2fd46c836a06233681665,64dc7d00b34157f68973269f,,,,,,,ctch,resources/DB.BMP,resources/DBN.BMP,Door2,0.27407406,-0.048148155,1,0,0,1.0796,optionRight,20,4795,3,8,0,8,0,1,,,,,,,,,,,,,,,,,,,,,,,,,,,,,,,,,,,,,,,
,,,,,,,,2023-08-16_08h38.54.292,HF_wild_card,2022.2.4,Win32,60.1612321,5f3eb7a8f14d1312518c5776,64d2fd46c836a06233681665,64dc7d00b34157f68973269f,,,,,,,decisionTrl,resources/DB.BMP,resources/DR.BMP,Door4,0.303703732,-0.024074095,1,0,0,1.8135,optionRight,80,4875,3,9,0,9,0,1,,,,,,,,,,,,,,,,,,,,,,,,,,,,,,,,,,,,,,,
,,,,,,,,2023-08-16_08h38.54.292,HF_wild_card,2022.2.4,Win32,60.1612321,5f3eb7a8f14d1312518c5776,64d2fd46c836a06233681665,64dc7d00b34157f68973269f,,,,,,,sngl,resources/DR.BMP,resources/Empty.png,Door4,-0.322222215,0.047222208,1,0,0,0.8634,optionLeft,80,4955,3,10,0,10,0,1,,,,,,,,,,,,,,,,,,,,,,,,,,,,,,,,,,,,,,,
,,,,,,,,2023-08-16_08h38.54.292,HF_wild_card,2022.2.4,Win32,60.1612321,5f3eb7a8f14d1312518c5776,64d2fd46c836a06233681665,64dc7d00b34157f68973269f,,,,,,,decisionTrl,resources/DG.BMP,resources/DBN.BMP,Door2,0.353703675,-0.090740734,1,0,0,1.4628,optionRight,40,4995,3,11,0,11,0,1,,,,,,,,,,,,,,,,,,,,,,,,,,,,,,,,,,,,,,,
,,,,,,,,2023-08-16_08h38.54.292,HF_wild_card,2022.2.4,Win32,60.1612321,5f3eb7a8f14d1312518c5776,64d2fd46c836a06233681665,64dc7d00b34157f68973269f,,,,,,,sngl,resources/Empty.png,resources/DP.BMP,Door1,0.239814829,-0.017592607,1,0,0,0.7264,optionRight,30,5025,3,12,0,12,0,1,,,,,,,,,,,,,,,,,,,,,,,,,,,,,,,,,,,,,,,
,,,,,,,,2023-08-16_08h38.54.292,HF_wild_card,2022.2.4,Win32,60.1612321,5f3eb7a8f14d1312518c5776,64d2fd46c836a06233681665,64dc7d00b34157f68973269f,,,,,,,sngl,resources/DBN.BMP,resources/Empty.png,Door2,-0.308333326,-0.00462963,1,0,0,0.675,optionLeft,40,5065,3,13,0,13,0,1,,,,,,,,,,,,,,,,,,,,,,,,,,,,,,,,,,,,,,,
,,,,,,,,2023-08-16_08h38.54.292,HF_wild_card,2022.2.4,Win32,60.1612321,5f3eb7a8f14d1312518c5776,64d2fd46c836a06233681665,64dc7d00b34157f68973269f,,,,,,,decisionTrl,resources/DR.BMP,resources/DB.BMP,Door4,-0.346296275,-0.063888903,1,0,0,0.9003,optionLeft,80,5145,3,14,0,14,0,1,,,,,,,,,,,,,,,,,,,,,,,,,,,,,,,,,,,,,,,
,,,,,,,,2023-08-16_08h38.54.292,HF_wild_card,2022.2.4,Win32,60.1612321,5f3eb7a8f14d1312518c5776,64d2fd46c836a06233681665,64dc7d00b34157f68973269f,,,,,,,decisionTrl,resources/DP.BMP,resources/DBN.BMP,Door2,0.270370413,-0.015740748,1,0,0,0.7586,optionRight,40,5185,3,15,0,15,0,1,,,,,,,,,,,,,,,,,,,,,,,,,,,,,,,,,,,,,,,
,,,,,,,,2023-08-16_08h38.54.292,HF_wild_card,2022.2.4,Win32,60.1612321,5f3eb7a8f14d1312518c5776,64d2fd46c836a06233681665,64dc7d00b34157f68973269f,,,,,,,decisionTrl,resources/DP.BMP,resources/DG.BMP,WildCard_Ex,0.280555584,-0.040740755,1,0,0,1.7617,optionRight,95,5280,3,16,0,16,0,1,,,,,,,,,,,,,,,,,,,,,,,,,,,,,,,,,,,,,,,
,,,,,,,,2023-08-16_08h38.54.292,HF_wild_card,2022.2.4,Win32,60.1612321,5f3eb7a8f14d1312518c5776,64d2fd46c836a06233681665,64dc7d00b34157f68973269f,,,,,,,sngl,resources/Empty.png,resources/DB.BMP,Door3,0.19722225,0,1,0,0,0.7655,optionRight,70,5350,3,17,0,17,0,1,,,,,,,,,,,,,,,,,,,,,,,,,,,,,,,,,,,,,,,
,,,,,,,,2023-08-16_08h38.54.292,HF_wild_card,2022.2.4,Win32,60.1612321,5f3eb7a8f14d1312518c5776,64d2fd46c836a06233681665,64dc7d00b34157f68973269f,,,,,,,ctch,resources/DBN.BMP,resources/DB.BMP,Door2,-0.216666681,-0.024074095,1,0,0,1.0009,optionLeft,40,5390,3,18,0,18,0,1,,,,,,,,,,,,,,,,,,,,,,,,,,,,,,,,,,,,,,,
,,,,,,,,2023-08-16_08h38.54.292,HF_wild_card,2022.2.4,Win32,60.1612321,5f3eb7a8f14d1312518c5776,64d2fd46c836a06233681665,64dc7d00b34157f68973269f,,,,,,,decisionTrl,resources/DBN.BMP,resources/DP.BMP,Door2,-0.261111083,0.018518519,1,0,0,1.012,optionLeft,20,5410,3,19,0,19,0,1,,,,,,,,,,,,,,,,,,,,,,,,,,,,,,,,,,,,,,,
,,,,,,,,2023-08-16_08h38.54.292,HF_wild_card,2022.2.4,Win32,60.1612321,5f3eb7a8f14d1312518c5776,64d2fd46c836a06233681665,64dc7d00b34157f68973269f,,,,,,,decisionTrl,resources/DP.BMP,resources/DBN.BMP,Door2,0.171296296,-0.01203703,1,0,0,0.7109,optionRight,40,5450,3,20,0,20,0,1,,,,,,,,,,,,,,,,,,,,,,,,,,,,,,,,,,,,,,,
,,,,,,,,2023-08-16_08h38.54.292,HF_wild_card,2022.2.4,Win32,60.1612321,5f3eb7a8f14d1312518c5776,64d2fd46c836a06233681665,64dc7d00b34157f68973269f,,,,,,,decisionTrl,resources/DB.BMP,resources/DG.BMP,WildCard_Ex,0.244444459,0.02407406,1,0,0,1.0623,optionRight,95,5545,3,21,0,21,0,1,,,,,,,,,,,,,,,,,,,,,,,,,,,,,,,,,,,,,,,
,,,,,,,,2023-08-16_08h38.54.292,HF_wild_card,2022.2.4,Win32,60.1612321,5f3eb7a8f14d1312518c5776,64d2fd46c836a06233681665,64dc7d00b34157f68973269f,,,,,,,decisionTrl,resources/DB.BMP,resources/DR.BMP,Door4,0.313888974,0.01944443,1,0,0,0.9115,optionRight,80,5625,3,22,0,22,0,1,,,,,,,,,,,,,,,,,,,,,,,,,,,,,,,,,,,,,,,
,,,,,,,,2023-08-16_08h38.54.292,HF_wild_card,2022.2.4,Win32,60.1612321,5f3eb7a8f14d1312518c5776,64d2fd46c836a06233681665,64dc7d00b34157f68973269f,,,,,,,ctch,resources/DR.BMP,resources/DP.BMP,Door4,-0.247222194,0.000925912,1,0,0,1.2109,optionLeft,80,5705,3,23,0,23,0,1,,,,,,,,,,,,,,,,,,,,,,,,,,,,,,,,,,,,,,,
,,,,,,,,2023-08-16_08h38.54.292,HF_wild_card,2022.2.4,Win32,60.1612321,5f3eb7a8f14d1312518c5776,64d2fd46c836a06233681665,64dc7d00b34157f68973269f,,,,,,,sngl,resources/DG.BMP,resources/Empty.png,WildCard_Ex,-0.242592564,-0.006481489,1,0,0,0.729,optionLeft,5,5710,3,24,0,24,0,1,,,,,,,,,,,,,,,,,,,,,,,,,,,,,,,,,,,,,,,
,,,,,,,,2023-08-16_08h38.54.292,HF_wild_card,2022.2.4,Win32,60.1612321,5f3eb7a8f14d1312518c5776,64d2fd46c836a06233681665,64dc7d00b34157f68973269f,,,,,,,ctch,resources/DB.BMP,resources/DBN.BMP,Door2,0.184259273,-0.00462963,1,0,0,0.6969,optionRight,20,5730,3,25,0,25,0,1,,,,,,,,,,,,,,,,,,,,,,,,,,,,,,,,,,,,,,,
,,,,,,,,2023-08-16_08h38.54.292,HF_wild_card,2022.2.4,Win32,60.1612321,5f3eb7a8f14d1312518c5776,64d2fd46c836a06233681665,64dc7d00b34157f68973269f,,,,,,,decisionTrl,resources/DBN.BMP,resources/DP.BMP,Door2,-0.242592564,-0.039814808,1,0,0,0.8622,optionLeft,20,5750,3,26,0,26,0,1,,,,,,,,,,,,,,,,,,,,,,,,,,,,,,,,,,,,,,,
,,,,,,,,2023-08-16_08h38.54.292,HF_wild_card,2022.2.4,Win32,60.1612321,5f3eb7a8f14d1312518c5776,64d2fd46c836a06233681665,64dc7d00b34157f68973269f,,,,,,,ctch,resources/DR.BMP,resources/DP.BMP,Door1,0.276851866,0.026851831,1,0,0,2.4292,optionRight,30,5780,3,27,0,27,0,1,,,,,,,,,,,,,,,,,,,,,,,,,,,,,,,,,,,,,,,
,,,,,,,,2023-08-16_08h38.54.292,HF_wild_card,2022.2.4,Win32,60.1612321,5f3eb7a8f14d1312518c5776,64d2fd46c836a06233681665,64dc7d00b34157f68973269f,,,,,,,decisionTrl,resources/DG.BMP,resources/DR.BMP,WildCard_Ex,-0.253703718,-0.017592607,1,0,0,0.8958,optionLeft,95,5875,3,28,0,28,0,1,,,,,,,,,,,,,,,,,,,,,,,,,,,,,,,,,,,,,,,
,,,,,,,,2023-08-16_08h38.54.292,HF_wild_card,2022.2.4,Win32,60.1612321,5f3eb7a8f14d1312518c5776,64d2fd46c836a06233681665,64dc7d00b34157f68973269f,,,,,,,sngl,resources/DG.BMP,resources/Empty.png,WildCard_Ex,-0.15370369,-0.028703725,1,0,0,0.7422,optionLeft,95,5970,3,29,0,29,0,1,,,,,,,,,,,,,,,,,,,,,,,,,,,,,,,,,,,,,,,
,,,,,,,,2023-08-16_08h38.54.292,HF_wild_card,2022.2.4,Win32,60.1612321,5f3eb7a8f14d1312518c5776,64d2fd46c836a06233681665,64dc7d00b34157f68973269f,,,,,,,decisionTrl,resources/DBN.BMP,resources/DP.BMP,Door1,0.213888875,-0.023148148,1,0,0,0.7283,optionRight,30,6000,3,30,0,30,0,1,,,,,,,,,,,,,,,,,,,,,,,,,,,,,,,,,,,,,,,
,,,,,,,,2023-08-16_08h38.54.292,HF_wild_card,2022.2.4,Win32,60.1612321,5f3eb7a8f14d1312518c5776,64d2fd46c836a06233681665,64dc7d00b34157f68973269f,,,,,,,sngl,resources/DP.BMP,resources/Empty.png,Door1,-0.250925912,-0.008333347,1,0,0,0.6966,optionLeft,30,6030,3,31,0,31,0,1,,,,,,,,,,,,,,,,,,,,,,,,,,,,,,,,,,,,,,,
,,,,,,,,2023-08-16_08h38.54.292,HF_wild_card,2022.2.4,Win32,60.1612321,5f3eb7a8f14d1312518c5776,64d2fd46c836a06233681665,64dc7d00b34157f68973269f,,,,,,,decisionTrl,resources/DG.BMP,resources/DP.BMP,Door1,0.24537037,-0.039814808,1,0,0,1.4446,optionRight,30,6060,3,32,0,32,0,1,,,,,,,,,,,,,,,,,,,,,,,,,,,,,,,,,,,,,,,
,,,,,,,,2023-08-16_08h38.54.292,HF_wild_card,2022.2.4,Win32,60.1612321,5f3eb7a8f14d1312518c5776,64d2fd46c836a06233681665,64dc7d00b34157f68973269f,,,,,,,ctch,resources/DBN.BMP,resources/DB.BMP,Door2,-0.224074046,-0.035185178,1,0,0,0.8788,optionLeft,20,6080,3,33,0,33,0,1,,,,,,,,,,,,,,,,,,,,,,,,,,,,,,,,,,,,,,,
,,,,,,,,2023-08-16_08h38.54.292,HF_wild_card,2022.2.4,Win32,60.1612321,5f3eb7a8f14d1312518c5776,64d2fd46c836a06233681665,64dc7d00b34157f68973269f,,,,,,,decisionTrl,resources/DR.BMP,resources/DB.BMP,Door4,-0.167592578,-0.041666667,1,0,0,0.9955,optionLeft,80,6160,3,34,0,34,0,1,,,,,,,,,,,,,,,,,,,,,,,,,,,,,,,,,,,,,,,
,,,,,,,,2023-08-16_08h38.54.292,HF_wild_card,2022.2.4,Win32,60.1612321,5f3eb7a8f14d1312518c5776,64d2fd46c836a06233681665,64dc7d00b34157f68973269f,,,,,,,decisionTrl,resources/DB.BMP,resources/DR.BMP,Door3,-0.228703675,-0.018518519,1,0,0,1.3456,optionLeft,70,6230,3,35,0,35,0,1,,,,,,,,,,,,,,,,,,,,,,,,,,,,,,,,,,,,,,,
,,,,,,,,2023-08-16_08h38.54.292,HF_wild_card,2022.2.4,Win32,60.1612321,5f3eb7a8f14d1312518c5776,64d2fd46c836a06233681665,64dc7d00b34157f68973269f,,,,,,,sngl,resources/DB.BMP,resources/Empty.png,Door3,-0.267592607,-0.00462963,1,0,0,0.9295,optionLeft,70,6300,3,36,0,36,0,1,,,,,,,,,,,,,,,,,,,,,,,,,,,,,,,,,,,,,,,
,,,,,,,,2023-08-16_08h38.54.292,HF_wild_card,2022.2.4,Win32,60.1612321,5f3eb7a8f14d1312518c5776,64d2fd46c836a06233681665,64dc7d00b34157f68973269f,,,,,,,decisionTrl,resources/DBN.BMP,resources/DG.BMP,WildCard_Ex,0.193518533,-0.026851866,1,0,0,0.7285,optionRight,95,6395,3,37,0,37,0,1,,,,,,,,,,,,,,,,,,,,,,,,,,,,,,,,,,,,,,,
,,,,,,,,2023-08-16_08h38.54.292,HF_wild_card,2022.2.4,Win32,60.1612321,5f3eb7a8f14d1312518c5776,64d2fd46c836a06233681665,64dc7d00b34157f68973269f,,,,,,,decisionTrl,resources/DP.BMP,resources/DBN.BMP,Door1,-0.185185185,-0.021296289,1,0,0,0.7113,optionLeft,30,6425,3,38,0,38,0,1,,,,,,,,,,,,,,,,,,,,,,,,,,,,,,,,,,,,,,,
,,,,,,,,2023-08-16_08h38.54.292,HF_wild_card,2022.2.4,Win32,60.1612321,5f3eb7a8f14d1312518c5776,64d2fd46c836a06233681665,64dc7d00b34157f68973269f,,,,,,,sngl,resources/Empty.png,resources/DBN.BMP,Door2,0.198148162,-0.022222236,1,0,0,0.6827,optionRight,20,6445,3,39,0,39,0,1,,,,,,,,,,,,,,,,,,,,,,,,,,,,,,,,,,,,,,,
,,,,,,,,2023-08-16_08h38.54.292,HF_wild_card,2022.2.4,Win32,60.1612321,5f3eb7a8f14d1312518c5776,64d2fd46c836a06233681665,64dc7d00b34157f68973269f,,,,,,,decisionTrl,resources/DR.BMP,resources/DG.BMP,WildCard_Ex,0.259259259,0,1,0,0,0.9291,optionRight,5,6450,3,40,0,40,0,1,,,,,,,,,,,,,,,,,,,,,,,,,,,,,,,,,,,,,,,
,,,,,,,,2023-08-16_08h38.54.292,HF_wild_card,2022.2.4,Win32,60.1612321,5f3eb7a8f14d1312518c5776,64d2fd46c836a06233681665,64dc7d00b34157f68973269f,,,,,,,sngl,resources/Empty.png,resources/DG.BMP,WildCard_Ex,0.209259245,-0.017592607,1,0,0,0.6266,optionRight,95,6545,3,41,0,41,0,1,,,,,,,,,,,,,,,,,,,,,,,,,,,,,,,,,,,,,,,
,,,,,,,,2023-08-16_08h38.54.292,HF_wild_card,2022.2.4,Win32,60.1612321,5f3eb7a8f14d1312518c5776,64d2fd46c836a06233681665,64dc7d00b34157f68973269f,,,,,,,ctch,resources/DP.BMP,resources/DR.BMP,Door1,-0.201851809,0.002777771,1,0,0,1.6268,optionLeft,30,6575,3,42,0,42,0,1,,,,,,,,,,,,,,,,,,,,,,,,,,,,,,,,,,,,,,,
,,,,,,,,2023-08-16_08h38.54.292,HF_wild_card,2022.2.4,Win32,60.1612321,5f3eb7a8f14d1312518c5776,64d2fd46c836a06233681665,64dc7d00b34157f68973269f,,,,,,,sngl,resources/Empty.png,resources/DG.BMP,WildCard_Ex,0.27407406,-0.026851866,1,0,0,0.6592,optionRight,5,6580,3,43,0,43,0,1,,,,,,,,,,,,,,,,,,,,,,,,,,,,,,,,,,,,,,,
,,,,,,,,2023-08-16_08h38.54.292,HF_wild_card,2022.2.4,Win32,60.1612321,5f3eb7a8f14d1312518c5776,64d2fd46c836a06233681665,64dc7d00b34157f68973269f,,,,,,,,,,,,,,,,,,,,,,,,,,2,0,2,0,1,,,,,,,,,,,,,,,,,,,,,,,,,,,,,,,,,,
,,,,,,,,2023-08-16_08h38.54.292,HF_wild_card,2022.2.4,Win32,60.1612321,5f3eb7a8f14d1312518c5776,64d2fd46c836a06233681665,64dc7d00b34157f68973269f,,,,,,,decisionTrl,resources/DBN.BMP,resources/DY.BMP,Door2,-0.174074032,-0.071296303,1,0,0,2.2378,optionLeft,20,6600,4,0,0,0,0,1,,,,,,,,,,,,,,,,,,,,,,,,,,,,,,,,,,,,,,,
,,,,,,,,2023-08-16_08h38.54.292,HF_wild_card,2022.2.4,Win32,60.1612321,5f3eb7a8f14d1312518c5776,64d2fd46c836a06233681665,64dc7d00b34157f68973269f,,,,,,,decisionTrl,resources/DB.BMP,resources/DR.BMP,Door4,0.174074102,-0.036111125,1,0,0,1.9636,optionRight,60,6660,4,1,0,1,0,1,,,,,,,,,,,,,,,,,,,,,,,,,,,,,,,,,,,,,,,
,,,,,,,,2023-08-16_08h38.54.292,HF_wild_card,2022.2.4,Win32,60.1612321,5f3eb7a8f14d1312518c5776,64d2fd46c836a06233681665,64dc7d00b34157f68973269f,,,,,,,sngl,resources/DP.BMP,resources/Empty.png,Door1,-0.246296282,-0.024074095,1,0,0,0.7739,optionLeft,30,6690,4,2,0,2,0,1,,,,,,,,,,,,,,,,,,,,,,,,,,,,,,,,,,,,,,,
,,,,,,,,2023-08-16_08h38.54.292,HF_wild_card,2022.2.4,Win32,60.1612321,5f3eb7a8f14d1312518c5776,64d2fd46c836a06233681665,64dc7d00b34157f68973269f,,,,,,,ctch,resources/DR.BMP,resources/DP.BMP,Door1,0.226851852,-0.021296289,1,0,0,1.8913,optionRight,30,6720,4,3,0,3,0,1,,,,,,,,,,,,,,,,,,,,,,,,,,,,,,,,,,,,,,,
,,,,,,,,2023-08-16_08h38.54.292,HF_wild_card,2022.2.4,Win32,60.1612321,5f3eb7a8f14d1312518c5776,64d2fd46c836a06233681665,64dc7d00b34157f68973269f,,,,,,,sngl,resources/DR.BMP,resources/Empty.png,Door4,-0.306481467,-0.01666666,1,0,0,0.7784,optionLeft,60,6780,4,4,0,4,0,1,,,,,,,,,,,,,,,,,,,,,,,,,,,,,,,,,,,,,,,
,,,,,,,,2023-08-16_08h38.54.292,HF_wild_card,2022.2.4,Win32,60.1612321,5f3eb7a8f14d1312518c5776,64d2fd46c836a06233681665,64dc7d00b34157f68973269f,,,,,,,decisionTrl,resources/DB.BMP,resources/DY.BMP,WildCard_NonEx,0.412963019,-0.033333355,1,0,0,2.6747,optionRight,55,6835,4,5,0,5,0,1,,,,,,,,,,,,,,,,,,,,,,,,,,,,,,,,,,,,,,,
,,,,,,,,2023-08-16_08h38.54.292,HF_wild_card,2022.2.4,Win32,60.1612321,5f3eb7a8f14d1312518c5776,64d2fd46c836a06233681665,64dc7d00b34157f68973269f,,,,,,,decisionTrl,resources/DB.BMP,resources/DR.BMP,Door4,0.239814829,-0.027777778,1,0,0,1.2455,optionRight,80,6915,4,6,0,6,0,1,,,,,,,,,,,,,,,,,,,,,,,,,,,,,,,,,,,,,,,
,,,,,,,,2023-08-16_08h38.54.292,HF_wild_card,2022.2.4,Win32,60.1612321,5f3eb7a8f14d1312518c5776,64d2fd46c836a06233681665,64dc7d00b34157f68973269f,,,,,,,decisionTrl,resources/DY.BMP,resources/DB.BMP,WildCard_NonEx,-0.260185171,0.018518519,1,0,0,1.0458,optionLeft,45,6960,4,7,0,7,0,1,,,,,,,,,,,,,,,,,,,,,,,,,,,,,,,,,,,,,,,
,,,,,,,,2023-08-16_08h38.54.292,HF_wild_card,2022.2.4,Win32,60.1612321,5f3eb7a8f14d1312518c5776,64d2fd46c836a06233681665,64dc7d00b34157f68973269f,,,,,,,decisionTrl,resources/DY.BMP,resources/DBN.BMP,Door2,0.361111111,-0.053703697,1,0,0,1.3145,optionRight,40,7000,4,8,0,8,0,1,,,,,,,,,,,,,,,,,,,,,,,,,,,,,,,,,,,,,,,
,,,,,,,,2023-08-16_08h38.54.292,HF_wild_card,2022.2.4,Win32,60.1612321,5f3eb7a8f14d1312518c5776,64d2fd46c836a06233681665,64dc7d00b34157f68973269f,,,,,,,ctch,resources/DP.BMP,resources/DR.BMP,Door1,-0.182407379,-0.029629637,1,0,0,2.5984,optionLeft,30,7030,4,9,0,9,0,1,,,,,,,,,,,,,,,,,,,,,,,,,,,,,,,,,,,,,,,
,,,,,,,,2023-08-16_08h38.54.292,HF_wild_card,2022.2.4,Win32,60.1612321,5f3eb7a8f14d1312518c5776,64d2fd46c836a06233681665,64dc7d00b34157f68973269f,,,,,,,sngl,resources/Empty.png,resources/DY.BMP,WildCard_NonEx,0.260185171,-0.039814808,1,0,0,0.732,optionRight,55,7085,4,10,0,10,0,1,,,,,,,,,,,,,,,,,,,,,,,,,,,,,,,,,,,,,,,
,,,,,,,,2023-08-16_08h38.54.292,HF_wild_card,2022.2.4,Win32,60.1612321,5f3eb7a8f14d1312518c5776,64d2fd46c836a06233681665,64dc7d00b34157f68973269f,,,,,,,decisionTrl,resources/DBN.BMP,resources/DP.BMP,Door2,-0.253703718,-0.005555577,1,0,0,0.8668,optionLeft,40,7125,4,11,0,11,0,1,,,,,,,,,,,,,,,,,,,,,,,,,,,,,,,,,,,,,,,
,,,,,,,,2023-08-16_08h38.54.292,HF_wild_card,2022.2.4,Win32,60.1612321,5f3eb7a8f14d1312518c5776,64d2fd46c836a06233681665,64dc7d00b34157f68973269f,,,,,,,decisionTrl,resources/DY.BMP,resources/DP.BMP,WildCard_NonEx,-0.163888861,-0.000925947,1,0,0,1.5615,optionLeft,45,7170,4,12,0,12,0,1,,,,,,,,,,,,,,,,,,,,,,,,,,,,,,,,,,,,,,,
,,,,,,,,2023-08-16_08h38.54.292,HF_wild_card,2022.2.4,Win32,60.1612321,5f3eb7a8f14d1312518c5776,64d2fd46c836a06233681665,64dc7d00b34157f68973269f,,,,,,,decisionTrl,resources/DBN.BMP,resources/DP.BMP,Door2,-0.22592594,0.032407407,1,0,0,0.9287,optionLeft,40,7210,4,13,0,13,0,1,,,,,,,,,,,,,,,,,,,,,,,,,,,,,,,,,,,,,,,
,,,,,,,,2023-08-16_08h38.54.292,HF_wild_card,2022.2.4,Win32,60.1612321,5f3eb7a8f14d1312518c5776,64d2fd46c836a06233681665,64dc7d00b34157f68973269f,,,,,,,decisionTrl,resources/DR.BMP,resources/DB.BMP,Door4,-0.215740698,0.002777771,1,0,0,0.9938,optionLeft,60,7270,4,14,0,14,0,1,,,,,,,,,,,,,,,,,,,,,,,,,,,,,,,,,,,,,,,
,,,,,,,,2023-08-16_08h38.54.292,HF_wild_card,2022.2.4,Win32,60.1612321,5f3eb7a8f14d1312518c5776,64d2fd46c836a06233681665,64dc7d00b34157f68973269f,,,,,,,ctch,resources/DB.BMP,resources/DBN.BMP,Door2,0.277777778,-0.055555556,1,0,0,1.0294,optionRight,40,7310,4,15,0,15,0,1,,,,,,,,,,,,,,,,,,,,,,,,,,,,,,,,,,,,,,,
,,,,,,,,2023-08-16_08h38.54.292,HF_wild_card,2022.2.4,Win32,60.1612321,5f3eb7a8f14d1312518c5776,64d2fd46c836a06233681665,64dc7d00b34157f68973269f,,,,,,,sngl,resources/Empty.png,resources/DBN.BMP,Door2,0.285185213,-0.033333355,1,0,0,0.73,optionRight,40,7350,4,16,0,16,0,1,,,,,,,,,,,,,,,,,,,,,,,,,,,,,,,,,,,,,,,
,,,,,,,,2023-08-16_08h38.54.292,HF_wild_card,2022.2.4,Win32,60.1612321,5f3eb7a8f14d1312518c5776,64d2fd46c836a06233681665,64dc7d00b34157f68973269f,,,,,,,sngl,resources/Empty.png,resources/DR.BMP,Door4,0.261111153,0.01203703,1,0,0,0.8493,optionRight,80,7430,4,17,0,17,0,1,,,,,,,,,,,,,,,,,,,,,,,,,,,,,,,,,,,,,,,
,,,,,,,,2023-08-16_08h38.54.292,HF_wild_card,2022.2.4,Win32,60.1612321,5f3eb7a8f14d1312518c5776,64d2fd46c836a06233681665,64dc7d00b34157f68973269f,,,,,,,decisionTrl,resources/DR.BMP,resources/DY.BMP,WildCard_NonEx,0.22592594,-0.009259259,1,0,0,0.995,optionRight,45,7475,4,18,0,18,0,1,,,,,,,,,,,,,,,,,,,,,,,,,,,,,,,,,,,,,,,
,,,,,,,,2023-08-16_08h38.54.292,HF_wild_card,2022.2.4,Win32,60.1612321,5f3eb7a8f14d1312518c5776,64d2fd46c836a06233681665,64dc7d00b34157f68973269f,,,,,,,decisionTrl,resources/DR.BMP,resources/DB.BMP,Door4,-0.172222208,0.020370377,1,0,0,0.9305,optionLeft,60,7535,4,19,0,19,0,1,,,,,,,,,,,,,,,,,,,,,,,,,,,,,,,,,,,,,,,
,,,,,,,,2023-08-16_08h38.54.292,HF_wild_card,2022.2.4,Win32,60.1612321,5f3eb7a8f14d1312518c5776,64d2fd46c836a06233681665,64dc7d00b34157f68973269f,,,,,,,sngl,resources/DBN.BMP,resources/Empty.png,Door2,-0.288888861,-0.046296296,1,0,0,0.8126,optionLeft,20,7555,4,20,0,20,0,1,,,,,,,,,,,,,,,,,,,,,,,,,,,,,,,,,,,,,,,
,,,,,,,,2023-08-16_08h38.54.292,HF_wild_card,2022.2.4,Win32,60.1612321,5f3eb7a8f14d1312518c5776,64d2fd46c836a06233681665,64dc7d00b34157f68973269f,,,,,,,ctch,resources/DB.BMP,resources/DBN.BMP,Door2,0.259259259,-0.001851859,1,0,0,0.8624,optionRight,40,7595,4,21,0,21,0,1,,,,,,,,,,,,,,,,,,,,,,,,,,,,,,,,,,,,,,,
,,,,,,,,2023-08-16_08h38.54.292,HF_wild_card,2022.2.4,Win32,60.1612321,5f3eb7a8f14d1312518c5776,64d2fd46c836a06233681665,64dc7d00b34157f68973269f,,,,,,,decisionTrl,resources/DBN.BMP,resources/DP.BMP,Door2,-0.321296303,0.006481489,1,0,0,0.8452,optionLeft,40,7635,4,22,0,22,0,1,,,,,,,,,,,,,,,,,,,,,,,,,,,,,,,,,,,,,,,
,,,,,,,,2023-08-16_08h38.54.292,HF_wild_card,2022.2.4,Win32,60.1612321,5f3eb7a8f14d1312518c5776,64d2fd46c836a06233681665,64dc7d00b34157f68973269f,,,,,,,decisionTrl,resources/DR.BMP,resources/DB.BMP,Door4,-0.233333305,0.01944443,1,0,0,1.8791,optionLeft,80,7715,4,23,0,23,0,1,,,,,,,,,,,,,,,,,,,,,,,,,,,,,,,,,,,,,,,
,,,,,,,,2023-08-16_08h38.54.292,HF_wild_card,2022.2.4,Win32,60.1612321,5f3eb7a8f14d1312518c5776,64d2fd46c836a06233681665,64dc7d00b34157f68973269f,,,,,,,ctch,resources/DP.BMP,resources/DR.BMP,Door1,-0.383333312,-0.022222236,1,0,0,4.1463,optionLeft,30,7745,4,24,0,24,0,1,,,,,,,,,,,,,,,,,,,,,,,,,,,,,,,,,,,,,,,
,,,,,,,,2023-08-16_08h38.54.292,HF_wild_card,2022.2.4,Win32,60.1612321,5f3eb7a8f14d1312518c5776,64d2fd46c836a06233681665,64dc7d00b34157f68973269f,,,,,,,sngl,resources/Empty.png,resources/DY.BMP,WildCard_NonEx,0.232407393,-0.017592607,1,0,0,0.7941,optionRight,45,7790,4,25,0,25,0,1,,,,,,,,,,,,,,,,,,,,,,,,,,,,,,,,,,,,,,,
,,,,,,,,2023-08-16_08h38.54.292,HF_wild_card,2022.2.4,Win32,60.1612321,5f3eb7a8f14d1312518c5776,64d2fd46c836a06233681665,64dc7d00b34157f68973269f,,,,,,,sngl,resources/DB.BMP,resources/Empty.png,Door3,-0.172222208,0.001851859,1,0,0,0.9971,optionLeft,70,7860,4,26,0,26,0,1,,,,,,,,,,,,,,,,,,,,,,,,,,,,,,,,,,,,,,,
,,,,,,,,2023-08-16_08h38.54.292,HF_wild_card,2022.2.4,Win32,60.1612321,5f3eb7a8f14d1312518c5776,64d2fd46c836a06233681665,64dc7d00b34157f68973269f,,,,,,,sngl,resources/Empty.png,resources/DP.BMP,Door1,0.249074088,-0.059259273,1,0,0,0.7776,optionRight,30,7890,4,27,0,27,0,1,,,,,,,,,,,,,,,,,,,,,,,,,,,,,,,,,,,,,,,
,,,,,,,,2023-08-16_08h38.54.292,HF_wild_card,2022.2.4,Win32,60.1612321,5f3eb7a8f14d1312518c5776,64d2fd46c836a06233681665,64dc7d00b34157f68973269f,,,,,,,decisionTrl,resources/DP.BMP,resources/DBN.BMP,Door2,0.272222236,-0.025000007,1,0,0,0.7948,optionRight,20,7910,4,28,0,28,0,1,,,,,,,,,,,,,,,,,,,,,,,,,,,,,,,,,,,,,,,
,,,,,,,,2023-08-16_08h38.54.292,HF_wild_card,2022.2.4,Win32,60.1612321,5f3eb7a8f14d1312518c5776,64d2fd46c836a06233681665,64dc7d00b34157f68973269f,,,,,,,ctch,resources/DBN.BMP,resources/DB.BMP,Door2,-0.212962963,-0.000925947,1,0,0,0.8123,optionLeft,40,7950,4,29,0,29,0,1,,,,,,,,,,,,,,,,,,,,,,,,,,,,,,,,,,,,,,,
,,,,,,,,2023-08-16_08h38.54.292,HF_wild_card,2022.2.4,Win32,60.1612321,5f3eb7a8f14d1312518c5776,64d2fd46c836a06233681665,64dc7d00b34157f68973269f,,,,,,,decisionTrl,resources/DBN.BMP,resources/DP.BMP,Door2,-0.286111125,0.02407406,1,0,0,1.0584,optionLeft,20,7970,4,30,0,30,0,1,,,,,,,,,,,,,,,,,,,,,,,,,,,,,,,,,,,,,,,
,,,,,,,,2023-08-16_08h38.54.292,HF_wild_card,2022.2.4,Win32,60.1612321,5f3eb7a8f14d1312518c5776,64d2fd46c836a06233681665,64dc7d00b34157f68973269f,,,,,,,ctch,resources/DR.BMP,resources/DP.BMP,Door1,0.175925926,-0.025000007,1,0,0,1.7957,optionRight,30,8000,4,31,0,31,0,1,,,,,,,,,,,,,,,,,,,,,,,,,,,,,,,,,,,,,,,
,,,,,,,,2023-08-16_08h38.54.292,HF_wild_card,2022.2.4,Win32,60.1612321,5f3eb7a8f14d1312518c5776,64d2fd46c836a06233681665,64dc7d00b34157f68973269f,,,,,,,decisionTrl,resources/DP.BMP,resources/DY.BMP,WildCard_NonEx,0.259259259,-0.036111125,1,0,0,0.8119,optionRight,55,8055,4,32,0,32,0,1,,,,,,,,,,,,,,,,,,,,,,,,,,,,,,,,,,,,,,,
,,,,,,,,2023-08-16_08h38.54.292,HF_wild_card,2022.2.4,Win32,60.1612321,5f3eb7a8f14d1312518c5776,64d2fd46c836a06233681665,64dc7d00b34157f68973269f,,,,,,,sngl,resources/DY.BMP,resources/Empty.png,WildCard_NonEx,-0.242592564,-0.012962977,1,0,0,0.8151,optionLeft,45,8100,4,33,0,33,0,1,,,,,,,,,,,,,,,,,,,,,,,,,,,,,,,,,,,,,,,
,,,,,,,,2023-08-16_08h38.54.292,HF_wild_card,2022.2.4,Win32,60.1612321,5f3eb7a8f14d1312518c5776,64d2fd46c836a06233681665,64dc7d00b34157f68973269f,,,,,,,ctch,resources/DBN.BMP,resources/DB.BMP,Door2,-0.237037023,0.01203703,1,0,0,1.7645,optionLeft,20,8120,4,34,0,34,0,1,,,,,,,,,,,,,,,,,,,,,,,,,,,,,,,,,,,,,,,
,,,,,,,,2023-08-16_08h38.54.292,HF_wild_card,2022.2.4,Win32,60.1612321,5f3eb7a8f14d1312518c5776,64d2fd46c836a06233681665,64dc7d00b34157f68973269f,,,,,,,decisionTrl,resources/DP.BMP,resources/DBN.BMP,Door2,0.217592593,-0.015740748,1,0,0,0.9457,optionRight,40,8160,4,35,0,35,0,1,,,,,,,,,,,,,,,,,,,,,,,,,,,,,,,,,,,,,,,
,,,,,,,,2023-08-16_08h38.54.292,HF_wild_card,2022.2.4,Win32,60.1612321,5f3eb7a8f14d1312518c5776,64d2fd46c836a06233681665,64dc7d00b34157f68973269f,,,,,,,decisionTrl,resources/DB.BMP,resources/DR.BMP,Door4,0.145370413,-0.001851859,1,0,0,1.5936,optionRight,60,8220,4,36,0,36,0,1,,,,,,,,,,,,,,,,,,,,,,,,,,,,,,,,,,,,,,,
,,,,,,,,2023-08-16_08h38.54.292,HF_wild_card,2022.2.4,Win32,60.1612321,5f3eb7a8f14d1312518c5776,64d2fd46c836a06233681665,64dc7d00b34157f68973269f,,,,,,,decisionTrl,resources/DP.BMP,resources/DBN.BMP,Door2,0.240740741,-0.018518519,1,0,0,1.0247,optionRight,40,8260,4,37,0,37,0,1,,,,,,,,,,,,,,,,,,,,,,,,,,,,,,,,,,,,,,,
,,,,,,,,2023-08-16_08h38.54.292,HF_wild_card,2022.2.4,Win32,60.1612321,5f3eb7a8f14d1312518c5776,64d2fd46c836a06233681665,64dc7d00b34157f68973269f,,,,,,,decisionTrl,resources/DB.BMP,resources/DR.BMP,Door4,0.163888931,-0.012962977,1,0,0,1.9626,optionRight,60,8320,4,38,0,38,0,1,,,,,,,,,,,,,,,,,,,,,,,,,,,,,,,,,,,,,,,
,,,,,,,,2023-08-16_08h38.54.292,HF_wild_card,2022.2.4,Win32,60.1612321,5f3eb7a8f14d1312518c5776,64d2fd46c836a06233681665,64dc7d00b34157f68973269f,,,,,,,decisionTrl,resources/DR.BMP,resources/DB.BMP,Door4,-0.241666653,-0.089814822,1,0,0,16.6454,optionLeft,80,8400,4,39,0,39,0,1,,,,,,,,,,,,,,,,,,,,,,,,,,,,,,,,,,,,,,,
,,,,,,,,2023-08-16_08h38.54.292,HF_wild_card,2022.2.4,Win32,60.1612321,5f3eb7a8f14d1312518c5776,64d2fd46c836a06233681665,64dc7d00b34157f68973269f,,,,,,,sngl,resources/DY.BMP,resources/Empty.png,WildCard_NonEx,-0.226851852,-0.025000007,1,0,0,1.0785,optionLeft,55,8455,4,40,0,40,0,1,,,,,,,,,,,,,,,,,,,,,,,,,,,,,,,,,,,,,,,
,,,,,,,,2023-08-16_08h38.54.292,HF_wild_card,2022.2.4,Win32,60.1612321,5f3eb7a8f14d1312518c5776,64d2fd46c836a06233681665,64dc7d00b34157f68973269f,,,,,,,decisionTrl,resources/DY.BMP,resources/DR.BMP,WildCard_NonEx,-0.189814815,0.0074074,1,0,0,0.914,optionLeft,45,8500,4,41,0,41,0,1,,,,,,,,,,,,,,,,,,,,,,,,,,,,,,,,,,,,,,,
,,,,,,,,2023-08-16_08h38.54.292,HF_wild_card,2022.2.4,Win32,60.1612321,5f3eb7a8f14d1312518c5776,64d2fd46c836a06233681665,64dc7d00b34157f68973269f,,,,,,,sngl,resources/Empty.png,resources/DB.BMP,Door3,0.20185188,-0.013888889,1,0,0,0.813,optionRight,70,8570,4,42,0,42,0,1,,,,,,,,,,,,,,,,,,,,,,,,,,,,,,,,,,,,,,,
,,,,,,,,2023-08-16_08h38.54.292,HF_wild_card,2022.2.4,Win32,60.1612321,5f3eb7a8f14d1312518c5776,64d2fd46c836a06233681665,64dc7d00b34157f68973269f,,,,,,,decisionTrl,resources/DP.BMP,resources/DBN.BMP,Door2,0.303703732,-0.030555548,1,0,0,1.0283,optionRight,40,8610,4,43,0,43,0,1,,,,,,,,,,,,,,,,,,,,,,,,,,,,,,,,,,,,,,,
,,,,,,,,2023-08-16_08h38.54.292,HF_wild_card,2022.2.4,Win32,60.1612321,5f3eb7a8f14d1312518c5776,64d2fd46c836a06233681665,64dc7d00b34157f68973269f,,,,,,,,,,,,,,,,,,,,,,,,,,3,0,3,0,1,,,,,,,,,,,,,,,,,,,,,,,,,,,,,,,,,,
,,,,,,,,2023-08-16_08h38.54.292,HF_wild_card,2022.2.4,Win32,60.1612321,5f3eb7a8f14d1312518c5776,64d2fd46c836a06233681665,64dc7d00b34157f68973269f,,,,,,,sngl,resources/DB.BMP,resources/Empty.png,Door3,-0.265740712,-0.093518504,1,0,0,1.16,optionLeft,70,8680,5,0,0,0,0,1,,,,,,,,,,,,,,,,,,,,,,,,,,,,,,,,,,,,,,,
,,,,,,,,2023-08-16_08h38.54.292,HF_wild_card,2022.2.4,Win32,60.1612321,5f3eb7a8f14d1312518c5776,64d2fd46c836a06233681665,64dc7d00b34157f68973269f,,,,,,,decisionTrl,resources/DBN.BMP,resources/DP.BMP,Door2,-0.216666681,-0.009259259,1,0,0,0.8182,optionLeft,40,8720,5,1,0,1,0,1,,,,,,,,,,,,,,,,,,,,,,,,,,,,,,,,,,,,,,,
,,,,,,,,2023-08-16_08h38.54.292,HF_wild_card,2022.2.4,Win32,60.1612321,5f3eb7a8f14d1312518c5776,64d2fd46c836a06233681665,64dc7d00b34157f68973269f,,,,,,,decisionTrl,resources/DP.BMP,resources/DBN.BMP,Door2,0.241666653,0.021296289,1,0,0,0.9129,optionRight,40,8760,5,2,0,2,0,1,,,,,,,,,,,,,,,,,,,,,,,,,,,,,,,,,,,,,,,
,,,,,,,,2023-08-16_08h38.54.292,HF_wild_card,2022.2.4,Win32,60.1612321,5f3eb7a8f14d1312518c5776,64d2fd46c836a06233681665,64dc7d00b34157f68973269f,,,,,,,sngl,resources/DBN.BMP,resources/Empty.png,Door2,-0.179629644,0.006481489,1,0,0,0.7481,optionLeft,40,8800,5,3,0,3,0,1,,,,,,,,,,,,,,,,,,,,,,,,,,,,,,,,,,,,,,,
,,,,,,,,2023-08-16_08h38.54.292,HF_wild_card,2022.2.4,Win32,60.1612321,5f3eb7a8f14d1312518c5776,64d2fd46c836a06233681665,64dc7d00b34157f68973269f,,,,,,,decisionTrl,resources/DBN.BMP,resources/DY.BMP,WildCard_NonEx,0.248148176,0.021296289,1,0,0,0.7334,optionRight,55,8855,5,4,0,4,0,1,,,,,,,,,,,,,,,,,,,,,,,,,,,,,,,,,,,,,,,
,,,,,,,,2023-08-16_08h38.54.292,HF_wild_card,2022.2.4,Win32,60.1612321,5f3eb7a8f14d1312518c5776,64d2fd46c836a06233681665,64dc7d00b34157f68973269f,,,,,,,decisionTrl,resources/DR.BMP,resources/DB.BMP,Door4,-0.240740741,-0.023148148,1,0,0,5.1726,optionLeft,80,8935,5,5,0,5,0,1,,,,,,,,,,,,,,,,,,,,,,,,,,,,,,,,,,,,,,,
,,,,,,,,2023-08-16_08h38.54.292,HF_wild_card,2022.2.4,Win32,60.1612321,5f3eb7a8f14d1312518c5776,64d2fd46c836a06233681665,64dc7d00b34157f68973269f,,,,,,,decisionTrl,resources/DB.BMP,resources/DR.BMP,Door4,0.317592621,0.025925919,1,0,0,7.4995,optionRight,80,9015,5,6,0,6,0,1,,,,,,,,,,,,,,,,,,,,,,,,,,,,,,,,,,,,,,,
,,,,,,,,2023-08-16_08h38.54.292,HF_wild_card,2022.2.4,Win32,60.1612321,5f3eb7a8f14d1312518c5776,64d2fd46c836a06233681665,64dc7d00b34157f68973269f,,,,,,,sngl,resources/Empty.png,resources/DBN.BMP,Door2,0.262037065,0.025925919,1,0,0,0.7427,optionRight,20,9035,5,7,0,7,0,1,,,,,,,,,,,,,,,,,,,,,,,,,,,,,,,,,,,,,,,
,,,,,,,,2023-08-16_08h38.54.292,HF_wild_card,2022.2.4,Win32,60.1612321,5f3eb7a8f14d1312518c5776,64d2fd46c836a06233681665,64dc7d00b34157f68973269f,,,,,,,sngl,resources/DY.BMP,resources/Empty.png,WildCard_NonEx,-0.222222222,-0.0074074,1,0,0,0.7376,optionLeft,45,9080,5,8,0,8,0,1,,,,,,,,,,,,,,,,,,,,,,,,,,,,,,,,,,,,,,,
,,,,,,,,2023-08-16_08h38.54.292,HF_wild_card,2022.2.4,Win32,60.1612321,5f3eb7a8f14d1312518c5776,64d2fd46c836a06233681665,64dc7d00b34157f68973269f,,,,,,,decisionTrl,resources/DR.BMP,resources/DB.BMP,Door4,-0.305555556,0.045370349,1,0,0,1.1472,optionLeft,60,9140,5,9,0,9,0,1,,,,,,,,,,,,,,,,,,,,,,,,,,,,,,,,,,,,,,,
,,,,,,,,2023-08-16_08h38.54.292,HF_wild_card,2022.2.4,Win32,60.1612321,5f3eb7a8f14d1312518c5776,64d2fd46c836a06233681665,64dc7d00b34157f68973269f,,,,,,,decisionTrl,resources/DBN.BMP,resources/DP.BMP,Door2,-0.244444459,-0.012962977,1,0,0,0.8606,optionLeft,20,9160,5,10,0,10,0,1,,,,,,,,,,,,,,,,,,,,,,,,,,,,,,,,,,,,,,,
,,,,,,,,2023-08-16_08h38.54.292,HF_wild_card,2022.2.4,Win32,60.1612321,5f3eb7a8f14d1312518c5776,64d2fd46c836a06233681665,64dc7d00b34157f68973269f,,,,,,,decisionTrl,resources/DP.BMP,resources/DBN.BMP,Door2,0.229629658,-0.035185178,1,0,0,0.7587,optionRight,20,9180,5,11,0,11,0,1,,,,,,,,,,,,,,,,,,,,,,,,,,,,,,,,,,,,,,,
,,,,,,,,2023-08-16_08h38.54.292,HF_wild_card,2022.2.4,Win32,60.1612321,5f3eb7a8f14d1312518c5776,64d2fd46c836a06233681665,64dc7d00b34157f68973269f,,,,,,,sngl,resources/DR.BMP,resources/Empty.png,Door4,-0.194444444,-0.002777771,1,0,0,0.6991,optionLeft,80,9260,5,12,0,12,0,1,,,,,,,,,,,,,,,,,,,,,,,,,,,,,,,,,,,,,,,
,,,,,,,,2023-08-16_08h38.54.292,HF_wild_card,2022.2.4,Win32,60.1612321,5f3eb7a8f14d1312518c5776,64d2fd46c836a06233681665,64dc7d00b34157f68973269f,,,,,,,decisionTrl,resources/DP.BMP,resources/DBN.BMP,Door2,0.260185171,-0.052777785,1,0,0,0.6848,optionRight,20,9280,5,13,0,13,0,1,,,,,,,,,,,,,,,,,,,,,,,,,,,,,,,,,,,,,,,
,,,,,,,,2023-08-16_08h38.54.292,HF_wild_card,2022.2.4,Win32,60.1612321,5f3eb7a8f14d1312518c5776,64d2fd46c836a06233681665,64dc7d00b34157f68973269f,,,,,,,decisionTrl,resources/DP.BMP,resources/DBN.BMP,Door2,0.162962949,0.01944443,1,0,0,0.863,optionRight,20,9300,5,14,0,14,0,1,,,,,,,,,,,,,,,,,,,,,,,,,,,,,,,,,,,,,,,
,,,,,,,,2023-08-16_08h38.54.292,HF_wild_card,2022.2.4,Win32,60.1612321,5f3eb7a8f14d1312518c5776,64d2fd46c836a06233681665,64dc7d00b34157f68973269f,,,,,,,sngl,resources/Empty.png,resources/DY.BMP,WildCard_NonEx,0.224074116,0.020370377,1,0,0,0.6789,optionRight,55,9355,5,15,0,15,0,1,,,,,,,,,,,,,,,,,,,,,,,,,,,,,,,,,,,,,,,
,,,,,,,,2023-08-16_08h38.54.292,HF_wild_card,2022.2.4,Win32,60.1612321,5f3eb7a8f14d1312518c5776,64d2fd46c836a06233681665,64dc7d00b34157f68973269f,,,,,,,ctch,resources/DP.BMP,resources/DR.BMP,Door1,-0.224999958,0.026851831,1,0,0,1.4585,optionLeft,30,9385,5,16,0,16,0,1,,,,,,,,,,,,,,,,,,,,,,,,,,,,,,,,,,,,,,,
,,,,,,,,2023-08-16_08h38.54.292,HF_wild_card,2022.2.4,Win32,60.1612321,5f3eb7a8f14d1312518c5776,64d2fd46c836a06233681665,64dc7d00b34157f68973269f,,,,,,,decisionTrl,resources/DY.BMP,resources/DBN.BMP,WildCard_NonEx,-0.187037009,0.042592578,1,0,0,1.2789,optionLeft,55,9440,5,17,0,17,0,1,,,,,,,,,,,,,,,,,,,,,,,,,,,,,,,,,,,,,,,
,,,,,,,,2023-08-16_08h38.54.292,HF_wild_card,2022.2.4,Win32,60.1612321,5f3eb7a8f14d1312518c5776,64d2fd46c836a06233681665,64dc7d00b34157f68973269f,,,,,,,sngl,resources/Empty.png,resources/DR.BMP,Door4,0.264814801,0,1,0,0,0.6857,optionRight,60,9500,5,18,0,18,0,1,,,,,,,,,,,,,,,,,,,,,,,,,,,,,,,,,,,,,,,
,,,,,,,,2023-08-16_08h38.54.292,HF_wild_card,2022.2.4,Win32,60.1612321,5f3eb7a8f14d1312518c5776,64d2fd46c836a06233681665,64dc7d00b34157f68973269f,,,,,,,decisionTrl,resources/DY.BMP,resources/DR.BMP,WildCard_NonEx,-0.283333319,-0.0074074,1,0,0,1.6788,optionLeft,45,9545,5,19,0,19,0,1,,,,,,,,,,,,,,,,,,,,,,,,,,,,,,,,,,,,,,,
,,,,,,,,2023-08-16_08h38.54.292,HF_wild_card,2022.2.4,Win32,60.1612321,5f3eb7a8f14d1312518c5776,64d2fd46c836a06233681665,64dc7d00b34157f68973269f,,,,,,,ctch,resources/DB.BMP,resources/DBN.BMP,Door2,0.146296325,0.00462963,1,0,0,0.8185,optionRight,40,9585,5,20,0,20,0,1,,,,,,,,,,,,,,,,,,,,,,,,,,,,,,,,,,,,,,,
,,,,,,,,2023-08-16_08h38.54.292,HF_wild_card,2022.2.4,Win32,60.1612321,5f3eb7a8f14d1312518c5776,64d2fd46c836a06233681665,64dc7d00b34157f68973269f,,,,,,,decisionTrl,resources/DR.BMP,resources/DB.BMP,Door4,-0.24537037,-0.031481496,1,0,0,1.0453,optionLeft,60,9645,5,21,0,21,0,1,,,,,,,,,,,,,,,,,,,,,,,,,,,,,,,,,,,,,,,
,,,,,,,,2023-08-16_08h38.54.292,HF_wild_card,2022.2.4,Win32,60.1612321,5f3eb7a8f14d1312518c5776,64d2fd46c836a06233681665,64dc7d00b34157f68973269f,,,,,,,ctch,resources/DB.BMP,resources/DBN.BMP,Door2,0.14444443,-0.029629637,1,0,0,0.7762,optionRight,20,9665,5,22,0,22,0,1,,,,,,,,,,,,,,,,,,,,,,,,,,,,,,,,,,,,,,,
,,,,,,,,2023-08-16_08h38.54.292,HF_wild_card,2022.2.4,Win32,60.1612321,5f3eb7a8f14d1312518c5776,64d2fd46c836a06233681665,64dc7d00b34157f68973269f,,,,,,,decisionTrl,resources/DBN.BMP,resources/DP.BMP,Door2,-0.178703661,-0.014814836,1,0,0,0.7814,optionLeft,20,9685,5,23,0,23,0,1,,,,,,,,,,,,,,,,,,,,,,,,,,,,,,,,,,,,,,,
,,,,,,,,2023-08-16_08h38.54.292,HF_wild_card,2022.2.4,Win32,60.1612321,5f3eb7a8f14d1312518c5776,64d2fd46c836a06233681665,64dc7d00b34157f68973269f,,,,,,,decisionTrl,resources/DB.BMP,resources/DY.BMP,WildCard_NonEx,0.181481467,-0.002777771,1,0,0,0.7636,optionRight,55,9740,5,24,0,24,0,1,,,,,,,,,,,,,,,,,,,,,,,,,,,,,,,,,,,,,,,
,,,,,,,,2023-08-16_08h38.54.292,HF_wild_card,2022.2.4,Win32,60.1612321,5f3eb7a8f14d1312518c5776,64d2fd46c836a06233681665,64dc7d00b34157f68973269f,,,,,,,sngl,resources/Empty.png,resources/DB.BMP,Door3,0.23055557,-0.014814836,1,0,0,0.679,optionRight,70,9810,5,25,0,25,0,1,,,,,,,,,,,,,,,,,,,,,,,,,,,,,,,,,,,,,,,
,,,,,,,,2023-08-16_08h38.54.292,HF_wild_card,2022.2.4,Win32,60.1612321,5f3eb7a8f14d1312518c5776,64d2fd46c836a06233681665,64dc7d00b34157f68973269f,,,,,,,sngl,resources/DY.BMP,resources/Empty.png,WildCard_NonEx,-0.22129631,-0.017592607,1,0,0,0.6661,optionLeft,55,9865,5,26,0,26,0,1,,,,,,,,,,,,,,,,,,,,,,,,,,,,,,,,,,,,,,,
,,,,,,,,2023-08-16_08h38.54.292,HF_wild_card,2022.2.4,Win32,60.1612321,5f3eb7a8f14d1312518c5776,64d2fd46c836a06233681665,64dc7d00b34157f68973269f,,,,,,,decisionTrl,resources/DR.BMP,resources/DB.BMP,Door4,-0.143518519,-0.048148155,1,0,0,1.2601,optionLeft,60,9925,5,27,0,27,0,1,,,,,,,,,,,,,,,,,,,,,,,,,,,,,,,,,,,,,,,
,,,,,,,,2023-08-16_08h38.54.292,HF_wild_card,2022.2.4,Win32,60.1612321,5f3eb7a8f14d1312518c5776,64d2fd46c836a06233681665,64dc7d00b34157f68973269f,,,,,,,decisionTrl,resources/DR.BMP,resources/DY.BMP,WildCard_NonEx,0.210185228,-0.047222243,1,0,0,0.6778,optionRight,55,9980,5,28,0,28,0,1,,,,,,,,,,,,,,,,,,,,,,,,,,,,,,,,,,,,,,,
,,,,,,,,2023-08-16_08h38.54.292,HF_wild_card,2022.2.4,Win32,60.1612321,5f3eb7a8f14d1312518c5776,64d2fd46c836a06233681665,64dc7d00b34157f68973269f,,,,,,,decisionTrl,resources/DB.BMP,resources/DR.BMP,Door4,0.205555598,-0.0074074,1,0,0,1.2954,optionRight,60,10040,5,29,0,29,0,1,,,,,,,,,,,,,,,,,,,,,,,,,,,,,,,,,,,,,,,
,,,,,,,,2023-08-16_08h38.54.292,HF_wild_card,2022.2.4,Win32,60.1612321,5f3eb7a8f14d1312518c5776,64d2fd46c836a06233681665,64dc7d00b34157f68973269f,,,,,,,ctch,resources/DR.BMP,resources/DP.BMP,Door4,-0.154629601,-0.006481489,1,0,0,0.6866,optionLeft,60,10100,5,30,0,30,0,1,,,,,,,,,,,,,,,,,,,,,,,,,,,,,,,,,,,,,,,
,,,,,,,,2023-08-16_08h38.54.292,HF_wild_card,2022.2.4,Win32,60.1612321,5f3eb7a8f14d1312518c5776,64d2fd46c836a06233681665,64dc7d00b34157f68973269f,,,,,,,decisionTrl,resources/DBN.BMP,resources/DP.BMP,Door2,-0.156481496,0.01203703,1,0,0,0.7968,optionLeft,20,10120,5,31,0,31,0,1,,,,,,,,,,,,,,,,,,,,,,,,,,,,,,,,,,,,,,,
,,,,,,,,2023-08-16_08h38.54.292,HF_wild_card,2022.2.4,Win32,60.1612321,5f3eb7a8f14d1312518c5776,64d2fd46c836a06233681665,64dc7d00b34157f68973269f,,,,,,,ctch,resources/DBN.BMP,resources/DB.BMP,Door2,-0.246296282,0.00462963,1,0,0,0.9674,optionLeft,20,10140,5,32,0,32,0,1,,,,,,,,,,,,,,,,,,,,,,,,,,,,,,,,,,,,,,,
,,,,,,,,2023-08-16_08h38.54.292,HF_wild_card,2022.2.4,Win32,60.1612321,5f3eb7a8f14d1312518c5776,64d2fd46c836a06233681665,64dc7d00b34157f68973269f,,,,,,,sngl,resources/Empty.png,resources/DP.BMP,Door1,0.193518533,-0.020370377,1,0,0,0.679,optionRight,30,10170,5,33,0,33,0,1,,,,,,,,,,,,,,,,,,,,,,,,,,,,,,,,,,,,,,,
,,,,,,,,2023-08-16_08h38.54.292,HF_wild_card,2022.2.4,Win32,60.1612321,5f3eb7a8f14d1312518c5776,64d2fd46c836a06233681665,64dc7d00b34157f68973269f,,,,,,,ctch,resources/DBN.BMP,resources/DB.BMP,Door2,-0.345370363,0.075925933,1,0,0,0.8156,optionLeft,40,10210,5,34,0,34,0,1,,,,,,,,,,,,,,,,,,,,,,,,,,,,,,,,,,,,,,,
,,,,,,,,2023-08-16_08h38.54.292,HF_wild_card,2022.2.4,Win32,60.1612321,5f3eb7a8f14d1312518c5776,64d2fd46c836a06233681665,64dc7d00b34157f68973269f,,,,,,,sngl,resources/Empty.png,resources/DY.BMP,WildCard_NonEx,0.232407393,-0.002777771,1,0,0,0.6437,optionRight,45,10255,5,35,0,35,0,1,,,,,,,,,,,,,,,,,,,,,,,,,,,,,,,,,,,,,,,
,,,,,,,,2023-08-16_08h38.54.292,HF_wild_card,2022.2.4,Win32,60.1612321,5f3eb7a8f14d1312518c5776,64d2fd46c836a06233681665,64dc7d00b34157f68973269f,,,,,,,decisionTrl,resources/DY.BMP,resources/DP.BMP,WildCard_NonEx,-0.179629644,0.011111118,1,0,0,0.6748,optionLeft,55,10310,5,36,0,36,0,1,,,,,,,,,,,,,,,,,,,,,,,,,,,,,,,,,,,,,,,
,,,,,,,,2023-08-16_08h38.54.292,HF_wild_card,2022.2.4,Win32,60.1612321,5f3eb7a8f14d1312518c5776,64d2fd46c836a06233681665,64dc7d00b34157f68973269f,,,,,,,ctch,resources/DP.BMP,resources/DR.BMP,Door1,-0.263888889,0.01203703,1,0,0,1.7423,optionLeft,30,10340,5,37,0,37,0,1,,,,,,,,,,,,,,,,,,,,,,,,,,,,,,,,,,,,,,,
,,,,,,,,2023-08-16_08h38.54.292,HF_wild_card,2022.2.4,Win32,60.1612321,5f3eb7a8f14d1312518c5776,64d2fd46c836a06233681665,64dc7d00b34157f68973269f,,,,,,,ctch,resources/DR.BMP,resources/DP.BMP,Door4,-0.298148155,-0.0074074,1,0,0,1.0136,optionLeft,80,10420,5,38,0,38,0,1,,,,,,,,,,,,,,,,,,,,,,,,,,,,,,,,,,,,,,,
,,,,,,,,2023-08-16_08h38.54.292,HF_wild_card,2022.2.4,Win32,60.1612321,5f3eb7a8f14d1312518c5776,64d2fd46c836a06233681665,64dc7d00b34157f68973269f,,,,,,,decisionTrl,resources/DB.BMP,resources/DR.BMP,Door4,0.220370399,-0.002777771,1,0,0,0.9829,optionRight,80,10500,5,39,0,39,0,1,,,,,,,,,,,,,,,,,,,,,,,,,,,,,,,,,,,,,,,
,,,,,,,,2023-08-16_08h38.54.292,HF_wild_card,2022.2.4,Win32,60.1612321,5f3eb7a8f14d1312518c5776,64d2fd46c836a06233681665,64dc7d00b34157f68973269f,,,,,,,decisionTrl,resources/DY.BMP,resources/DB.BMP,WildCard_NonEx,-0.22129631,0.042592578,1,0,0,0.9759,optionLeft,45,10545,5,40,0,40,0,1,,,,,,,,,,,,,,,,,,,,,,,,,,,,,,,,,,,,,,,
,,,,,,,,2023-08-16_08h38.54.292,HF_wild_card,2022.2.4,Win32,60.1612321,5f3eb7a8f14d1312518c5776,64d2fd46c836a06233681665,64dc7d00b34157f68973269f,,,,,,,sngl,resources/DP.BMP,resources/Empty.png,Door1,-0.239814829,-0.024074095,1,0,0,0.6795,optionLeft,30,10575,5,41,0,41,0,1,,,,,,,,,,,,,,,,,,,,,,,,,,,,,,,,,,,,,,,
,,,,,,,,2023-08-16_08h38.54.292,HF_wild_card,2022.2.4,Win32,60.1612321,5f3eb7a8f14d1312518c5776,64d2fd46c836a06233681665,64dc7d00b34157f68973269f,,,,,,,decisionTrl,resources/DP.BMP,resources/DY.BMP,WildCard_NonEx,0.173148191,-0.031481496,1,0,0,0.9128,optionRight,45,10620,5,42,0,42,0,1,,,,,,,,,,,,,,,,,,,,,,,,,,,,,,,,,,,,,,,
,,,,,,,,2023-08-16_08h38.54.292,HF_wild_card,2022.2.4,Win32,60.1612321,5f3eb7a8f14d1312518c5776,64d2fd46c836a06233681665,64dc7d00b34157f68973269f,,,,,,,decisionTrl,resources/DB.BMP,resources/DR.BMP,Door3,-0.158333319,-0.01203703,1,0,0,0.6477,optionLeft,70,10690,5,43,0,43,0,1,,,,,,,,,,,,,,,,,,,,,,,,,,,,,,,,,,,,,,,
,,,,,,,,2023-08-16_08h38.54.292,HF_wild_card,2022.2.4,Win32,60.1612321,5f3eb7a8f14d1312518c5776,64d2fd46c836a06233681665,64dc7d00b34157f68973269f,,,,,,,,,,,,,,,,,,,,,,,,,,4,0,4,0,1,,,,,,,,,,,,,,,,,,,,,,,,,,,,,,,,,,
,,,,,,,,2023-08-16_08h38.54.292,HF_wild_card,2022.2.4,Win32,60.1612321,5f3eb7a8f14d1312518c5776,64d2fd46c836a06233681665,64dc7d00b34157f68973269f,,,,,,,decisionTrl,resources/DB.BMP,resources/DR.BMP,Door4,0.431481538,-0.033333355,1,0,0,2.557,optionRight,60,10750,6,0,0,0,0,1,,,,,,,,,,,,,,,,,,,,,,,,,,,,,,,,,,,,,,,
,,,,,,,,2023-08-16_08h38.54.292,HF_wild_card,2022.2.4,Win32,60.1612321,5f3eb7a8f14d1312518c5776,64d2fd46c836a06233681665,64dc7d00b34157f68973269f,,,,,,,decisionTrl,resources/DP.BMP,resources/DBN.BMP,Door2,0.290740755,-0.025000007,1,0,0,0.8305,optionRight,20,10770,6,1,0,1,0,1,,,,,,,,,,,,,,,,,,,,,,,,,,,,,,,,,,,,,,,
,,,,,,,,2023-08-16_08h38.54.292,HF_wild_card,2022.2.4,Win32,60.1612321,5f3eb7a8f14d1312518c5776,64d2fd46c836a06233681665,64dc7d00b34157f68973269f,,,,,,,decisionTrl,resources/DBN.BMP,resources/DP.BMP,Door2,-0.198148162,0.030555548,1,0,0,0.7444,optionLeft,40,10810,6,2,0,2,0,1,,,,,,,,,,,,,,,,,,,,,,,,,,,,,,,,,,,,,,,
,,,,,,,,2023-08-16_08h38.54.292,HF_wild_card,2022.2.4,Win32,60.1612321,5f3eb7a8f14d1312518c5776,64d2fd46c836a06233681665,64dc7d00b34157f68973269f,,,,,,,ctch,resources/DP.BMP,resources/DR.BMP,Door1,-0.329629616,-0.025925919,1,0,0,1.9462,optionLeft,30,10840,6,3,0,3,0,1,,,,,,,,,,,,,,,,,,,,,,,,,,,,,,,,,,,,,,,
,,,,,,,,2023-08-16_08h38.54.292,HF_wild_card,2022.2.4,Win32,60.1612321,5f3eb7a8f14d1312518c5776,64d2fd46c836a06233681665,64dc7d00b34157f68973269f,,,,,,,decisionTrl,resources/DB.BMP,resources/DR.BMP,Door4,0.392592677,-0.01203703,1,0,0,1.1951,optionRight,80,10920,6,4,0,4,0,1,,,,,,,,,,,,,,,,,,,,,,,,,,,,,,,,,,,,,,,
,,,,,,,,2023-08-16_08h38.54.292,HF_wild_card,2022.2.4,Win32,60.1612321,5f3eb7a8f14d1312518c5776,64d2fd46c836a06233681665,64dc7d00b34157f68973269f,,,,,,,sngl,resources/DR.BMP,resources/Empty.png,Door4,-0.187962921,-0.017592607,1,0,0,0.6961,optionLeft,60,10980,6,5,0,5,0,1,,,,,,,,,,,,,,,,,,,,,,,,,,,,,,,,,,,,,,,
,,,,,,,,2023-08-16_08h38.54.292,HF_wild_card,2022.2.4,Win32,60.1612321,5f3eb7a8f14d1312518c5776,64d2fd46c836a06233681665,64dc7d00b34157f68973269f,,,,,,,sngl,resources/Empty.png,resources/DB.BMP,Door3,0.362962935,-0.055555556,1,0,0,0.941,optionRight,70,11050,6,6,0,6,0,1,,,,,,,,,,,,,,,,,,,,,,,,,,,,,,,,,,,,,,,
,,,,,,,,2023-08-16_08h38.54.292,HF_wild_card,2022.2.4,Win32,60.1612321,5f3eb7a8f14d1312518c5776,64d2fd46c836a06233681665,64dc7d00b34157f68973269f,,,,,,,decisionTrl,resources/DR.BMP,resources/DB.BMP,Door3,0.37962963,-0.058333326,1,0,0,1.1109,optionRight,70,11120,6,7,0,7,0,1,,,,,,,,,,,,,,,,,,,,,,,,,,,,,,,,,,,,,,,
,,,,,,,,2023-08-16_08h38.54.292,HF_wild_card,2022.2.4,Win32,60.1612321,5f3eb7a8f14d1312518c5776,64d2fd46c836a06233681665,64dc7d00b34157f68973269f,,,,,,,decisionTrl,resources/DP.BMP,resources/DBN.BMP,Door2,0.264814801,0.0074074,1,0,0,0.8782,optionRight,20,11140,6,8,0,8,0,1,,,,,,,,,,,,,,,,,,,,,,,,,,,,,,,,,,,,,,,
,,,,,,,,2023-08-16_08h38.54.292,HF_wild_card,2022.2.4,Win32,60.1612321,5f3eb7a8f14d1312518c5776,64d2fd46c836a06233681665,64dc7d00b34157f68973269f,,,,,,,decisionTrl,resources/DR.BMP,resources/DB.BMP,Door4,-0.277777778,-0.008333347,1,0,0,1.178,optionLeft,80,11220,6,9,0,9,0,1,,,,,,,,,,,,,,,,,,,,,,,,,,,,,,,,,,,,,,,
,,,,,,,,2023-08-16_08h38.54.292,HF_wild_card,2022.2.4,Win32,60.1612321,5f3eb7a8f14d1312518c5776,64d2fd46c836a06233681665,64dc7d00b34157f68973269f,,,,,,,decisionTrl,resources/DB.BMP,resources/DY.BMP,WildCard_NonEx,0.111111111,-0.001851859,1,0,0,1.0952,optionRight,45,11265,6,10,0,10,0,1,,,,,,,,,,,,,,,,,,,,,,,,,,,,,,,,,,,,,,,
,,,,,,,,2023-08-16_08h38.54.292,HF_wild_card,2022.2.4,Win32,60.1612321,5f3eb7a8f14d1312518c5776,64d2fd46c836a06233681665,64dc7d00b34157f68973269f,,,,,,,decisionTrl,resources/DBN.BMP,resources/DP.BMP,Door2,-0.209259245,-0.030555548,1,0,0,0.7284,optionLeft,40,11305,6,11,0,11,0,1,,,,,,,,,,,,,,,,,,,,,,,,,,,,,,,,,,,,,,,
,,,,,,,,2023-08-16_08h38.54.292,HF_wild_card,2022.2.4,Win32,60.1612321,5f3eb7a8f14d1312518c5776,64d2fd46c836a06233681665,64dc7d00b34157f68973269f,,,,,,,ctch,resources/DP.BMP,resources/DR.BMP,Door1,-0.475925905,-0.057407414,1,0,0,1.4619,optionLeft,30,11335,6,12,0,12,0,1,,,,,,,,,,,,,,,,,,,,,,,,,,,,,,,,,,,,,,,
,,,,,,,,2023-08-16_08h38.54.292,HF_wild_card,2022.2.4,Win32,60.1612321,5f3eb7a8f14d1312518c5776,64d2fd46c836a06233681665,64dc7d00b34157f68973269f,,,,,,,ctch,resources/DR.BMP,resources/DP.BMP,Door1,0.317592621,0.060185185,1,0,0,1.729,optionRight,30,11365,6,13,0,13,0,1,,,,,,,,,,,,,,,,,,,,,,,,,,,,,,,,,,,,,,,
,,,,,,,,2023-08-16_08h38.54.292,HF_wild_card,2022.2.4,Win32,60.1612321,5f3eb7a8f14d1312518c5776,64d2fd46c836a06233681665,64dc7d00b34157f68973269f,,,,,,,decisionTrl,resources/DY.BMP,resources/DBN.BMP,WildCard_NonEx,-0.229629587,-0.037037037,1,0,0,0.8144,optionLeft,45,11410,6,14,0,14,0,1,,,,,,,,,,,,,,,,,,,,,,,,,,,,,,,,,,,,,,,
,,,,,,,,2023-08-16_08h38.54.292,HF_wild_card,2022.2.4,Win32,60.1612321,5f3eb7a8f14d1312518c5776,64d2fd46c836a06233681665,64dc7d00b34157f68973269f,,,,,,,ctch,resources/DBN.BMP,resources/DB.BMP,Door2,-0.227777764,-0.009259259,1,0,0,0.7951,optionLeft,20,11430,6,15,0,15,0,1,,,,,,,,,,,,,,,,,,,,,,,,,,,,,,,,,,,,,,,
,,,,,,,,2023-08-16_08h38.54.292,HF_wild_card,2022.2.4,Win32,60.1612321,5f3eb7a8f14d1312518c5776,64d2fd46c836a06233681665,64dc7d00b34157f68973269f,,,,,,,decisionTrl,resources/DY.BMP,resources/DB.BMP,WildCard_NonEx,-0.313888868,-0.080555563,1,0,0,0.711,optionLeft,55,11485,6,16,0,16,0,1,,,,,,,,,,,,,,,,,,,,,,,,,,,,,,,,,,,,,,,
,,,,,,,,2023-08-16_08h38.54.292,HF_wild_card,2022.2.4,Win32,60.1612321,5f3eb7a8f14d1312518c5776,64d2fd46c836a06233681665,64dc7d00b34157f68973269f,,,,,,,sngl,resources/DY.BMP,resources/Empty.png,WildCard_NonEx,-0.187962921,0.000925912,1,0,0,0.662,optionLeft,55,11540,6,17,0,17,0,1,,,,,,,,,,,,,,,,,,,,,,,,,,,,,,,,,,,,,,,
,,,,,,,,2023-08-16_08h38.54.292,HF_wild_card,2022.2.4,Win32,60.1612321,5f3eb7a8f14d1312518c5776,64d2fd46c836a06233681665,64dc7d00b34157f68973269f,,,,,,,decisionTrl,resources/DP.BMP,resources/DBN.BMP,Door2,0.185185185,0.002777771,1,0,0,0.795,optionRight,40,11580,6,18,0,18,0,1,,,,,,,,,,,,,,,,,,,,,,,,,,,,,,,,,,,,,,,
,,,,,,,,2023-08-16_08h38.54.292,HF_wild_card,2022.2.4,Win32,60.1612321,5f3eb7a8f14d1312518c5776,64d2fd46c836a06233681665,64dc7d00b34157f68973269f,,,,,,,decisionTrl,resources/DP.BMP,resources/DY.BMP,WildCard_NonEx,0.315740797,-0.032407407,1,0,0,1.2122,optionRight,55,11635,6,19,0,19,0,1,,,,,,,,,,,,,,,,,,,,,,,,,,,,,,,,,,,,,,,
,,,,,,,,2023-08-16_08h38.54.292,HF_wild_card,2022.2.4,Win32,60.1612321,5f3eb7a8f14d1312518c5776,64d2fd46c836a06233681665,64dc7d00b34157f68973269f,,,,,,,ctch,resources/DB.BMP,resources/DBN.BMP,Door2,0.262962977,-0.01203703,1,0,0,0.8961,optionRight,40,11675,6,20,0,20,0,1,,,,,,,,,,,,,,,,,,,,,,,,,,,,,,,,,,,,,,,
,,,,,,,,2023-08-16_08h38.54.292,HF_wild_card,2022.2.4,Win32,60.1612321,5f3eb7a8f14d1312518c5776,64d2fd46c836a06233681665,64dc7d00b34157f68973269f,,,,,,,decisionTrl,resources/DY.BMP,resources/DP.BMP,WildCard_NonEx,-0.204629616,-0.034259266,1,0,0,0.7616,optionLeft,55,11730,6,21,0,21,0,1,,,,,,,,,,,,,,,,,,,,,,,,,,,,,,,,,,,,,,,
,,,,,,,,2023-08-16_08h38.54.292,HF_wild_card,2022.2.4,Win32,60.1612321,5f3eb7a8f14d1312518c5776,64d2fd46c836a06233681665,64dc7d00b34157f68973269f,,,,,,,decisionTrl,resources/DR.BMP,resources/DB.BMP,Door4,-0.277777778,0.056481467,1,0,0,1.8283,optionLeft,60,11790,6,22,0,22,0,1,,,,,,,,,,,,,,,,,,,,,,,,,,,,,,,,,,,,,,,
,,,,,,,,2023-08-16_08h38.54.292,HF_wild_card,2022.2.4,Win32,60.1612321,5f3eb7a8f14d1312518c5776,64d2fd46c836a06233681665,64dc7d00b34157f68973269f,,,,,,,decisionTrl,resources/DBN.BMP,resources/DP.BMP,Door2,-0.23055557,-0.029629637,1,0,0,0.8456,optionLeft,20,11810,6,23,0,23,0,1,,,,,,,,,,,,,,,,,,,,,,,,,,,,,,,,,,,,,,,
,,,,,,,,2023-08-16_08h38.54.292,HF_wild_card,2022.2.4,Win32,60.1612321,5f3eb7a8f14d1312518c5776,64d2fd46c836a06233681665,64dc7d00b34157f68973269f,,,,,,,ctch,resources/DR.BMP,resources/DP.BMP,Door1,0.424074102,-0.09629631,1,0,0,2.2113,optionRight,30,11840,6,24,0,24,0,1,,,,,,,,,,,,,,,,,,,,,,,,,,,,,,,,,,,,,,,
,,,,,,,,2023-08-16_08h38.54.292,HF_wild_card,2022.2.4,Win32,60.1612321,5f3eb7a8f14d1312518c5776,64d2fd46c836a06233681665,64dc7d00b34157f68973269f,,,,,,,ctch,resources/DBN.BMP,resources/DB.BMP,Door2,-0.232407393,-0.025000007,1,0,0,0.7136,optionLeft,20,11860,6,25,0,25,0,1,,,,,,,,,,,,,,,,,,,,,,,,,,,,,,,,,,,,,,,
,,,,,,,,2023-08-16_08h38.54.292,HF_wild_card,2022.2.4,Win32,60.1612321,5f3eb7a8f14d1312518c5776,64d2fd46c836a06233681665,64dc7d00b34157f68973269f,,,,,,,decisionTrl,resources/DR.BMP,resources/DB.BMP,Door4,-0.298148155,0.002777771,1,0,0,1.4617,optionLeft,60,11920,6,26,0,26,0,1,,,,,,,,,,,,,,,,,,,,,,,,,,,,,,,,,,,,,,,
,,,,,,,,2023-08-16_08h38.54.292,HF_wild_card,2022.2.4,Win32,60.1612321,5f3eb7a8f14d1312518c5776,64d2fd46c836a06233681665,64dc7d00b34157f68973269f,,,,,,,sngl,resources/DP.BMP,resources/Empty.png,Door1,-0.17777775,-0.018518519,1,0,0,0.6777,optionLeft,30,11950,6,27,0,27,0,1,,,,,,,,,,,,,,,,,,,,,,,,,,,,,,,,,,,,,,,
,,,,,,,,2023-08-16_08h38.54.292,HF_wild_card,2022.2.4,Win32,60.1612321,5f3eb7a8f14d1312518c5776,64d2fd46c836a06233681665,64dc7d00b34157f68973269f,,,,,,,sngl,resources/DBN.BMP,resources/Empty.png,Door2,-0.223148134,-0.030555548,1,0,0,0.7,optionLeft,20,11970,6,28,0,28,0,1,,,,,,,,,,,,,,,,,,,,,,,,,,,,,,,,,,,,,,,
,,,,,,,,2023-08-16_08h38.54.292,HF_wild_card,2022.2.4,Win32,60.1612321,5f3eb7a8f14d1312518c5776,64d2fd46c836a06233681665,64dc7d00b34157f68973269f,,,,,,,sngl,resources/DB.BMP,resources/Empty.png,Door3,-0.296296296,-0.055555556,1,0,0,0.7005,optionLeft,70,12040,6,29,0,29,0,1,,,,,,,,,,,,,,,,,,,,,,,,,,,,,,,,,,,,,,,
,,,,,,,,2023-08-16_08h38.54.292,HF_wild_card,2022.2.4,Win32,60.1612321,5f3eb7a8f14d1312518c5776,64d2fd46c836a06233681665,64dc7d00b34157f68973269f,,,,,,,decisionTrl,resources/DR.BMP,resources/DY.BMP,WildCard_NonEx,0.196296339,-0.022222236,1,0,0,0.8794,optionRight,45,12085,6,30,0,30,0,1,,,,,,,,,,,,,,,,,,,,,,,,,,,,,,,,,,,,,,,
,,,,,,,,2023-08-16_08h38.54.292,HF_wild_card,2022.2.4,Win32,60.1612321,5f3eb7a8f14d1312518c5776,64d2fd46c836a06233681665,64dc7d00b34157f68973269f,,,,,,,decisionTrl,resources/DP.BMP,resources/DBN.BMP,Door2,0.196296339,-0.013888889,1,0,0,0.7451,optionRight,20,12105,6,31,0,31,0,1,,,,,,,,,,,,,,,,,,,,,,,,,,,,,,,,,,,,,,,
,,,,,,,,2023-08-16_08h38.54.292,HF_wild_card,2022.2.4,Win32,60.1612321,5f3eb7a8f14d1312518c5776,64d2fd46c836a06233681665,64dc7d00b34157f68973269f,,,,,,,decisionTrl,resources/DB.BMP,resources/DR.BMP,Door4,0.187962991,0.009259259,1,0,0,1.4694,optionRight,80,12185,6,32,0,32,0,1,,,,,,,,,,,,,,,,,,,,,,,,,,,,,,,,,,,,,,,
,,,,,,,,2023-08-16_08h38.54.292,HF_wild_card,2022.2.4,Win32,60.1612321,5f3eb7a8f14d1312518c5776,64d2fd46c836a06233681665,64dc7d00b34157f68973269f,,,,,,,sngl,resources/Empty.png,resources/DR.BMP,Door4,0.265740783,0.003703683,1,0,0,0.6623,optionRight,80,12265,6,33,0,33,0,1,,,,,,,,,,,,,,,,,,,,,,,,,,,,,,,,,,,,,,,
,,,,,,,,2023-08-16_08h38.54.292,HF_wild_card,2022.2.4,Win32,60.1612321,5f3eb7a8f14d1312518c5776,64d2fd46c836a06233681665,64dc7d00b34157f68973269f,,,,,,,ctch,resources/DB.BMP,resources/DBN.BMP,Door2,0.161111125,-0.021296289,1,0,0,0.9781,optionRight,20,12285,6,34,0,34,0,1,,,,,,,,,,,,,,,,,,,,,,,,,,,,,,,,,,,,,,,
,,,,,,,,2023-08-16_08h38.54.292,HF_wild_card,2022.2.4,Win32,60.1612321,5f3eb7a8f14d1312518c5776,64d2fd46c836a06233681665,64dc7d00b34157f68973269f,,,,,,,sngl,resources/Empty.png,resources/DBN.BMP,Door2,0.267592607,0.014814801,1,0,0,0.7125,optionRight,40,12325,6,35,0,35,0,1,,,,,,,,,,,,,,,,,,,,,,,,,,,,,,,,,,,,,,,
,,,,,,,,2023-08-16_08h38.54.292,HF_wild_card,2022.2.4,Win32,60.1612321,5f3eb7a8f14d1312518c5776,64d2fd46c836a06233681665,64dc7d00b34157f68973269f,,,,,,,decisionTrl,resources/DBN.BMP,resources/DY.BMP,Door2,-0.201851809,-0.00462963,1,0,0,1.0083,optionLeft,40,12365,6,36,0,36,0,1,,,,,,,,,,,,,,,,,,,,,,,,,,,,,,,,,,,,,,,
,,,,,,,,2023-08-16_08h38.54.292,HF_wild_card,2022.2.4,Win32,60.1612321,5f3eb7a8f14d1312518c5776,64d2fd46c836a06233681665,64dc7d00b34157f68973269f,,,,,,,sngl,resources/Empty.png,resources/DY.BMP,WildCard_NonEx,0.279629672,-0.015740748,1,0,0,0.6688,optionRight,45,12410,6,37,0,37,0,1,,,,,,,,,,,,,,,,,,,,,,,,,,,,,,,,,,,,,,,
,,,,,,,,2023-08-16_08h38.54.292,HF_wild_card,2022.2.4,Win32,60.1612321,5f3eb7a8f14d1312518c5776,64d2fd46c836a06233681665,64dc7d00b34157f68973269f,,,,,,,decisionTrl,resources/DBN.BMP,resources/DP.BMP,Door2,-0.195370356,-0.0074074,1,0,0,0.7958,optionLeft,20,12430,6,38,0,38,0,1,,,,,,,,,,,,,,,,,,,,,,,,,,,,,,,,,,,,,,,
,,,,,,,,2023-08-16_08h38.54.292,HF_wild_card,2022.2.4,Win32,60.1612321,5f3eb7a8f14d1312518c5776,64d2fd46c836a06233681665,64dc7d00b34157f68973269f,,,,,,,sngl,resources/Empty.png,resources/DY.BMP,WildCard_NonEx,0.30277775,-0.014814836,1,0,0,0.6452,optionRight,55,12485,6,39,0,39,0,1,,,,,,,,,,,,,,,,,,,,,,,,,,,,,,,,,,,,,,,
,,,,,,,,2023-08-16_08h38.54.292,HF_wild_card,2022.2.4,Win32,60.1612321,5f3eb7a8f14d1312518c5776,64d2fd46c836a06233681665,64dc7d00b34157f68973269f,,,,,,,sngl,resources/DY.BMP,resources/Empty.png,WildCard_NonEx,-0.17777775,0.01203703,1,0,0,0.6756,optionLeft,45,12530,6,40,0,40,0,1,,,,,,,,,,,,,,,,,,,,,,,,,,,,,,,,,,,,,,,
,,,,,,,,2023-08-16_08h38.54.292,HF_wild_card,2022.2.4,Win32,60.1612321,5f3eb7a8f14d1312518c5776,64d2fd46c836a06233681665,64dc7d00b34157f68973269f,,,,,,,decisionTrl,resources/DY.BMP,resources/DR.BMP,WildCard_NonEx,-0.216666681,-0.018518519,1,0,0,0.7751,optionLeft,45,12575,6,41,0,41,0,1,,,,,,,,,,,,,,,,,,,,,,,,,,,,,,,,,,,,,,,
,,,,,,,,2023-08-16_08h38.54.292,HF_wild_card,2022.2.4,Win32,60.1612321,5f3eb7a8f14d1312518c5776,64d2fd46c836a06233681665,64dc7d00b34157f68973269f,,,,,,,sngl,resources/Empty.png,resources/DP.BMP,Door1,0.238888917,-0.035185178,1,0,0,0.5959,optionRight,30,12605,6,42,0,42,0,1,,,,,,,,,,,,,,,,,,,,,,,,,,,,,,,,,,,,,,,
,,,,,,,,2023-08-16_08h38.54.292,HF_wild_card,2022.2.4,Win32,60.1612321,5f3eb7a8f14d1312518c5776,64d2fd46c836a06233681665,64dc7d00b34157f68973269f,,,,,,,decisionTrl,resources/DB.BMP,resources/DR.BMP,Door4,0.3648149,0.003703683,1,0,0,0.9087,optionRight,80,12685,6,43,0,43,0,1,,,,,,,,,,,,,,,,,,,,,,,,,,,,,,,,,,,,,,,
,,,,,,,,2023-08-16_08h38.54.292,HF_wild_card,2022.2.4,Win32,60.1612321,5f3eb7a8f14d1312518c5776,64d2fd46c836a06233681665,64dc7d00b34157f68973269f,,,,,,,,,,,,,,,,,,,,,,,,,,5,0,5,0,1,,,,,,,,,,,,,,,,,,,,,,,,,,,,,,,,,,
,,,,,,,,2023-08-16_08h38.54.292,HF_wild_card,2022.2.4,Win32,60.1612321,5f3eb7a8f14d1312518c5776,64d2fd46c836a06233681665,64dc7d00b34157f68973269f,,,,,,,ctch,resources/DBN.BMP,resources/DB.BMP,Door2,-0.29351849,-0.112963005,1,0,0,0.8005,optionLeft,20,12705,7,0,0,0,0,1,,,,,,,,,,,,,,,,,,,,,,,,,,,,,,,,,,,,,,,
,,,,,,,,2023-08-16_08h38.54.292,HF_wild_card,2022.2.4,Win32,60.1612321,5f3eb7a8f14d1312518c5776,64d2fd46c836a06233681665,64dc7d00b34157f68973269f,,,,,,,decisionTrl,resources/DBN.BMP,resources/DP.BMP,Door2,-0.270370342,-0.036111125,1,0,0,0.6819,optionLeft,20,12725,7,1,0,1,0,1,,,,,,,,,,,,,,,,,,,,,,,,,,,,,,,,,,,,,,,
,,,,,,,,2023-08-16_08h38.54.292,HF_wild_card,2022.2.4,Win32,60.1612321,5f3eb7a8f14d1312518c5776,64d2fd46c836a06233681665,64dc7d00b34157f68973269f,,,,,,,ctch,resources/DR.BMP,resources/DP.BMP,Door4,-0.22129631,-0.033333355,1,0,0,1.3338,optionLeft,80,12805,7,2,0,2,0,1,,,,,,,,,,,,,,,,,,,,,,,,,,,,,,,,,,,,,,,
,,,,,,,,2023-08-16_08h38.54.292,HF_wild_card,2022.2.4,Win32,60.1612321,5f3eb7a8f14d1312518c5776,64d2fd46c836a06233681665,64dc7d00b34157f68973269f,,,,,,,decisionTrl,resources/DBN.BMP,resources/DP.BMP,Door2,-0.289814772,-0.059259273,1,0,0,0.7319,optionLeft,20,12825,7,3,0,3,0,1,,,,,,,,,,,,,,,,,,,,,,,,,,,,,,,,,,,,,,,
,,,,,,,,2023-08-16_08h38.54.292,HF_wild_card,2022.2.4,Win32,60.1612321,5f3eb7a8f14d1312518c5776,64d2fd46c836a06233681665,64dc7d00b34157f68973269f,,,,,,,decisionTrl,resources/DR.BMP,resources/DB.BMP,Door4,-0.175000014,-0.013888889,1,0,0,1.182,optionLeft,60,12885,7,4,0,4,0,1,,,,,,,,,,,,,,,,,,,,,,,,,,,,,,,,,,,,,,,
,,,,,,,,2023-08-16_08h38.54.292,HF_wild_card,2022.2.4,Win32,60.1612321,5f3eb7a8f14d1312518c5776,64d2fd46c836a06233681665,64dc7d00b34157f68973269f,,,,,,,decisionTrl,resources/DB.BMP,resources/DR.BMP,Door4,0.19722225,-0.005555577,1,0,0,0.7859,optionRight,60,12945,7,5,0,5,0,1,,,,,,,,,,,,,,,,,,,,,,,,,,,,,,,,,,,,,,,
,,,,,,,,2023-08-16_08h38.54.292,HF_wild_card,2022.2.4,Win32,60.1612321,5f3eb7a8f14d1312518c5776,64d2fd46c836a06233681665,64dc7d00b34157f68973269f,,,,,,,ctch,resources/DB.BMP,resources/DBN.BMP,Door2,0.20648151,-0.026851866,1,0,0,0.7767,optionRight,40,12985,7,6,0,6,0,1,,,,,,,,,,,,,,,,,,,,,,,,,,,,,,,,,,,,,,,
,,,,,,,,2023-08-16_08h38.54.292,HF_wild_card,2022.2.4,Win32,60.1612321,5f3eb7a8f14d1312518c5776,64d2fd46c836a06233681665,64dc7d00b34157f68973269f,,,,,,,ctch,resources/DR.BMP,resources/DP.BMP,Door4,-0.199999986,-0.041666667,1,0,0,0.7476,optionLeft,80,13065,7,7,0,7,0,1,,,,,,,,,,,,,,,,,,,,,,,,,,,,,,,,,,,,,,,
,,,,,,,,2023-08-16_08h38.54.292,HF_wild_card,2022.2.4,Win32,60.1612321,5f3eb7a8f14d1312518c5776,64d2fd46c836a06233681665,64dc7d00b34157f68973269f,,,,,,,decisionTrl,resources/DR.BMP,resources/DB.BMP,Door4,-0.250925912,-0.028703725,1,0,0,0.7001,optionLeft,60,13125,7,8,0,8,0,1,,,,,,,,,,,,,,,,,,,,,,,,,,,,,,,,,,,,,,,
,,,,,,,,2023-08-16_08h38.54.292,HF_wild_card,2022.2.4,Win32,60.1612321,5f3eb7a8f14d1312518c5776,64d2fd46c836a06233681665,64dc7d00b34157f68973269f,,,,,,,decisionTrl,resources/DBN.BMP,resources/DP.BMP,Door2,-0.341666645,-0.006481489,1,0,0,0.9649,optionLeft,20,13145,7,9,0,9,0,1,,,,,,,,,,,,,,,,,,,,,,,,,,,,,,,,,,,,,,,
,,,,,,,,2023-08-16_08h38.54.292,HF_wild_card,2022.2.4,Win32,60.1612321,5f3eb7a8f14d1312518c5776,64d2fd46c836a06233681665,64dc7d00b34157f68973269f,,,,,,,decisionTrl,resources/DBN.BMP,resources/DP.BMP,Door2,-0.261111083,-0.033333355,1,0,0,0.7659,optionLeft,20,13165,7,10,0,10,0,1,,,,,,,,,,,,,,,,,,,,,,,,,,,,,,,,,,,,,,,
,,,,,,,,2023-08-16_08h38.54.292,HF_wild_card,2022.2.4,Win32,60.1612321,5f3eb7a8f14d1312518c5776,64d2fd46c836a06233681665,64dc7d00b34157f68973269f,,,,,,,decisionTrl,resources/DR.BMP,resources/DB.BMP,Door4,-0.298148155,-0.050925926,1,0,0,0.9972,optionLeft,60,13225,7,11,0,11,0,1,,,,,,,,,,,,,,,,,,,,,,,,,,,,,,,,,,,,,,,
,,,,,,,,2023-08-16_08h38.54.292,HF_wild_card,2022.2.4,Win32,60.1612321,5f3eb7a8f14d1312518c5776,64d2fd46c836a06233681665,64dc7d00b34157f68973269f,,,,,,,ctch,resources/DP.BMP,resources/DR.BMP,Door4,0.252777806,-0.032407407,1,0,0,1.2146,optionRight,80,13305,7,12,0,12,0,1,,,,,,,,,,,,,,,,,,,,,,,,,,,,,,,,,,,,,,,
,,,,,,,,2023-08-16_08h38.54.292,HF_wild_card,2022.2.4,Win32,60.1612321,5f3eb7a8f14d1312518c5776,64d2fd46c836a06233681665,64dc7d00b34157f68973269f,,,,,,,ctch,resources/DP.BMP,resources/DR.BMP,Door4,0.215740769,0.003703683,1,0,0,0.8106,optionRight,80,13385,7,13,0,13,0,1,,,,,,,,,,,,,,,,,,,,,,,,,,,,,,,,,,,,,,,
,,,,,,,,2023-08-16_08h38.54.292,HF_wild_card,2022.2.4,Win32,60.1612321,5f3eb7a8f14d1312518c5776,64d2fd46c836a06233681665,64dc7d00b34157f68973269f,,,,,,,decisionTrl,resources/DP.BMP,resources/DBN.BMP,Door2,0.185185185,0.000925912,1,0,0,0.8285,optionRight,40,13425,7,14,0,14,0,1,,,,,,,,,,,,,,,,,,,,,,,,,,,,,,,,,,,,,,,
,,,,,,,,2023-08-16_08h38.54.292,HF_wild_card,2022.2.4,Win32,60.1612321,5f3eb7a8f14d1312518c5776,64d2fd46c836a06233681665,64dc7d00b34157f68973269f,,,,,,,ctch,resources/DR.BMP,resources/DP.BMP,Door4,-0.294444402,0.017592571,1,0,0,0.6856,optionLeft,60,13485,7,15,0,15,0,1,,,,,,,,,,,,,,,,,,,,,,,,,,,,,,,,,,,,,,,
,,,,,,,,2023-08-16_08h38.54.292,HF_wild_card,2022.2.4,Win32,60.1612321,5f3eb7a8f14d1312518c5776,64d2fd46c836a06233681665,64dc7d00b34157f68973269f,,,,,,,ctch,resources/DBN.BMP,resources/DB.BMP,Door2,-0.274999972,-0.056481503,1,0,0,0.6771,optionLeft,20,13505,7,16,0,16,0,1,,,,,,,,,,,,,,,,,,,,,,,,,,,,,,,,,,,,,,,
,,,,,,,,2023-08-16_08h38.54.292,HF_wild_card,2022.2.4,Win32,60.1612321,5f3eb7a8f14d1312518c5776,64d2fd46c836a06233681665,64dc7d00b34157f68973269f,,,,,,,decisionTrl,resources/DB.BMP,resources/DR.BMP,Door4,0.401851937,-0.001851859,1,0,0,0.9812,optionRight,60,13565,7,17,0,17,0,1,,,,,,,,,,,,,,,,,,,,,,,,,,,,,,,,,,,,,,,
,,,,,,,,2023-08-16_08h38.54.292,HF_wild_card,2022.2.4,Win32,60.1612321,5f3eb7a8f14d1312518c5776,64d2fd46c836a06233681665,64dc7d00b34157f68973269f,,,,,,,ctch,resources/DB.BMP,resources/DBN.BMP,Door2,0.162962949,-0.008333347,1,0,0,0.6312,optionRight,40,13605,7,18,0,18,0,1,,,,,,,,,,,,,,,,,,,,,,,,,,,,,,,,,,,,,,,
,,,,,,,,2023-08-16_08h38.54.292,HF_wild_card,2022.2.4,Win32,60.1612321,5f3eb7a8f14d1312518c5776,64d2fd46c836a06233681665,64dc7d00b34157f68973269f,,,,,,,decisionTrl,resources/DR.BMP,resources/DB.BMP,Door4,-0.25,-0.022222236,1,0,0,0.765,optionLeft,80,13685,7,19,0,19,0,1,,,,,,,,,,,,,,,,,,,,,,,,,,,,,,,,,,,,,,,
,,,,,,,,2023-08-16_08h38.54.292,HF_wild_card,2022.2.4,Win32,60.1612321,5f3eb7a8f14d1312518c5776,64d2fd46c836a06233681665,64dc7d00b34157f68973269f,,,,,,,decisionTrl,resources/DBN.BMP,resources/DP.BMP,Door2,-0.191666638,-0.009259259,1,0,0,0.6978,optionLeft,20,13705,7,20,0,20,0,1,,,,,,,,,,,,,,,,,,,,,,,,,,,,,,,,,,,,,,,
,,,,,,,,2023-08-16_08h38.54.292,HF_wild_card,2022.2.4,Win32,60.1612321,5f3eb7a8f14d1312518c5776,64d2fd46c836a06233681665,64dc7d00b34157f68973269f,,,,,,,ctch,resources/DB.BMP,resources/DBN.BMP,Door2,0.205555598,0.058333326,1,0,0,1.1812,optionRight,40,13745,7,21,0,21,0,1,,,,,,,,,,,,,,,,,,,,,,,,,,,,,,,,,,,,,,,
,,,,,,,,2023-08-16_08h38.54.292,HF_wild_card,2022.2.4,Win32,60.1612321,5f3eb7a8f14d1312518c5776,64d2fd46c836a06233681665,64dc7d00b34157f68973269f,,,,,,,decisionTrl,resources/DR.BMP,resources/DB.BMP,Door4,-0.187037009,0.001851859,1,0,0,0.7473,optionLeft,80,13825,7,22,0,22,0,1,,,,,,,,,,,,,,,,,,,,,,,,,,,,,,,,,,,,,,,
,,,,,,,,2023-08-16_08h38.54.292,HF_wild_card,2022.2.4,Win32,60.1612321,5f3eb7a8f14d1312518c5776,64d2fd46c836a06233681665,64dc7d00b34157f68973269f,,,,,,,decisionTrl,resources/DP.BMP,resources/DBN.BMP,Door2,0.24537037,-0.009259259,1,0,0,0.6319,optionRight,40,13865,7,23,0,23,0,1,,,,,,,,,,,,,,,,,,,,,,,,,,,,,,,,,,,,,,,
,,,,,,,,2023-08-16_08h38.54.292,HF_wild_card,2022.2.4,Win32,60.1612321,5f3eb7a8f14d1312518c5776,64d2fd46c836a06233681665,64dc7d00b34157f68973269f,,,,,,,decisionTrl,resources/DB.BMP,resources/DR.BMP,Door3,-0.142592607,0.01203703,1,0,0,0.698,optionLeft,70,13935,7,24,0,24,0,1,,,,,,,,,,,,,,,,,,,,,,,,,,,,,,,,,,,,,,,
,,,,,,,,2023-08-16_08h38.54.292,HF_wild_card,2022.2.4,Win32,60.1612321,5f3eb7a8f14d1312518c5776,64d2fd46c836a06233681665,64dc7d00b34157f68973269f,,,,,,,decisionTrl,resources/DP.BMP,resources/DBN.BMP,Door2,0.186111097,-0.011111118,1,0,0,0.648,optionRight,40,13975,7,25,0,25,0,1,,,,,,,,,,,,,,,,,,,,,,,,,,,,,,,,,,,,,,,
,,,,,,,,2023-08-16_08h38.54.292,HF_wild_card,2022.2.4,Win32,60.1612321,5f3eb7a8f14d1312518c5776,64d2fd46c836a06233681665,64dc7d00b34157f68973269f,,,,,,,decisionTrl,resources/DP.BMP,resources/DBN.BMP,Door2,0.255555541,-0.032407407,1,0,0,0.7317,optionRight,40,14015,7,26,0,26,0,1,,,,,,,,,,,,,,,,,,,,,,,,,,,,,,,,,,,,,,,
,,,,,,,,2023-08-16_08h38.54.292,HF_wild_card,2022.2.4,Win32,60.1612321,5f3eb7a8f14d1312518c5776,64d2fd46c836a06233681665,64dc7d00b34157f68973269f,,,,,,,ctch,resources/DP.BMP,resources/DR.BMP,Door4,0.282407407,0.00462963,1,0,0,0.9812,optionRight,60,14075,7,27,0,27,0,1,,,,,,,,,,,,,,,,,,,,,,,,,,,,,,,,,,,,,,,
,,,,,,,,2023-08-16_08h38.54.292,HF_wild_card,2022.2.4,Win32,60.1612321,5f3eb7a8f14d1312518c5776,64d2fd46c836a06233681665,64dc7d00b34157f68973269f,,,,,,,ctch,resources/DBN.BMP,resources/DB.BMP,Door2,-0.326851845,-0.010185206,1,0,0,1.0445,optionLeft,40,14115,7,28,0,28,0,1,,,,,,,,,,,,,,,,,,,,,,,,,,,,,,,,,,,,,,,
,,,,,,,,2023-08-16_08h38.54.292,HF_wild_card,2022.2.4,Win32,60.1612321,5f3eb7a8f14d1312518c5776,64d2fd46c836a06233681665,64dc7d00b34157f68973269f,,,,,,,decisionTrl,resources/DP.BMP,resources/DBN.BMP,Door2,0.373148176,-0.040740755,1,0,0,0.9973,optionRight,20,14135,7,29,0,29,0,1,,,,,,,,,,,,,,,,,,,,,,,,,,,,,,,,,,,,,,,
,,,,,,,,2023-08-16_08h38.54.292,HF_wild_card,2022.2.4,Win32,60.1612321,5f3eb7a8f14d1312518c5776,64d2fd46c836a06233681665,64dc7d00b34157f68973269f,,,,,,,decisionTrl,resources/DB.BMP,resources/DR.BMP,Door4,0.325925898,-0.044444437,1,0,0,0.9783,optionRight,60,14195,7,30,0,30,0,1,,,,,,,,,,,,,,,,,,,,,,,,,,,,,,,,,,,,,,,
,,,,,,,,2023-08-16_08h38.54.292,HF_wild_card,2022.2.4,Win32,60.1612321,5f3eb7a8f14d1312518c5776,64d2fd46c836a06233681665,64dc7d00b34157f68973269f,,,,,,,decisionTrl,resources/DP.BMP,resources/DBN.BMP,Door2,0.212037051,-0.017592607,1,0,0,0.7008,optionRight,20,14215,7,31,0,31,0,1,,,,,,,,,,,,,,,,,,,,,,,,,,,,,,,,,,,,,,,
,,,,,,,,2023-08-16_08h38.54.292,HF_wild_card,2022.2.4,Win32,60.1612321,5f3eb7a8f14d1312518c5776,64d2fd46c836a06233681665,64dc7d00b34157f68973269f,,,,,,,decisionTrl,resources/DB.BMP,resources/DR.BMP,Door4,0.263888889,-0.021296289,1,0,0,0.987,optionRight,80,14295,7,32,0,32,0,1,,,,,,,,,,,,,,,,,,,,,,,,,,,,,,,,,,,,,,,
,,,,,,,,2023-08-16_08h38.54.292,HF_wild_card,2022.2.4,Win32,60.1612321,5f3eb7a8f14d1312518c5776,64d2fd46c836a06233681665,64dc7d00b34157f68973269f,,,,,,,decisionTrl,resources/DR.BMP,resources/DB.BMP,Door4,-0.235185199,-0.021296289,1,0,0,0.6819,optionLeft,60,14355,7,33,0,33,0,1,,,,,,,,,,,,,,,,,,,,,,,,,,,,,,,,,,,,,,,
,,,,,,,,2023-08-16_08h38.54.292,HF_wild_card,2022.2.4,Win32,60.1612321,5f3eb7a8f14d1312518c5776,64d2fd46c836a06233681665,64dc7d00b34157f68973269f,,,,,,,decisionTrl,resources/DB.BMP,resources/DR.BMP,Door4,0.186111097,-0.013888889,1,0,0,0.664,optionRight,60,14415,7,34,0,34,0,1,,,,,,,,,,,,,,,,,,,,,,,,,,,,,,,,,,,,,,,
,,,,,,,,2023-08-16_08h38.54.292,HF_wild_card,2022.2.4,Win32,60.1612321,5f3eb7a8f14d1312518c5776,64d2fd46c836a06233681665,64dc7d00b34157f68973269f,,,,,,,decisionTrl,resources/DBN.BMP,resources/DP.BMP,Door2,-0.224999958,-0.032407407,1,0,0,0.7126,optionLeft,20,14435,7,35,0,35,0,1,,,,,,,,,,,,,,,,,,,,,,,,,,,,,,,,,,,,,,,
,,,,,,,,2023-08-16_08h38.54.292,HF_wild_card,2022.2.4,Win32,60.1612321,5f3eb7a8f14d1312518c5776,64d2fd46c836a06233681665,64dc7d00b34157f68973269f,,,,,,,,,,,,,,,,,,,,,,,,,,6,0,6,0,1,,,,,,,,,,,,,,,,,,,,,,,,,,,,,,,,,,
,,,,,,,,2023-08-16_08h38.54.292,HF_wild_card,2022.2.4,Win32,60.1612321,5f3eb7a8f14d1312518c5776,64d2fd46c836a06233681665,64dc7d00b34157f68973269f,,,,,,,,,,,,,,,,,,,,,,,,,,,,,,,3,,,,,,,,,,,,,,,,,,,,,,,,,,,,,,,,,
,,,,,,,,2023-08-16_08h38.54.292,HF_wild_card,2022.2.4,Win32,60.1612321,5f3eb7a8f14d1312518c5776,64d2fd46c836a06233681665,64dc7d00b34157f68973269f,,,,,,,,,,,,,,,,,,,,,,,,,,,,,,,,,,,,,,,,,,,,,,,,,,,,,,,,,,,,,,,,
,,,,,,,,2023-08-16_08h38.54.292,HF_wild_card,2022.2.4,Win32,60.1612321,5f3eb7a8f14d1312518c5776,64d2fd46c836a06233681665,64dc7d00b34157f68973269f,,,,,,,,,,,,,,,,,,,,,,,,,,,,,,,,30,Door1,resources/DP.BMP,0,0,0,0,1,,,,,,,,,,,,,,,,,,,,,,,,,
,,,,,,,,2023-08-16_08h38.54.292,HF_wild_card,2022.2.4,Win32,60.1612321,5f3eb7a8f14d1312518c5776,64d2fd46c836a06233681665,64dc7d00b34157f68973269f,,,,,,,,,,,,,,,,,,,,,,,,,,,,,,,,60,WC_extreme,resources/DG.BMP,1,0,1,0,1,,,,,,,,,,,,,,,,,,,,,,,,,
,,,,,,,,2023-08-16_08h38.54.292,HF_wild_card,2022.2.4,Win32,60.1612321,5f3eb7a8f14d1312518c5776,64d2fd46c836a06233681665,64dc7d00b34157f68973269f,,,,,,,,,,,,,,,,,,,,,,,,,,,,,,,,70,Door3,resources/DB.BMP,2,0,2,0,1,,,,,,,,,,,,,,,,,,,,,,,,,
,,,,,,,,2023-08-16_08h38.54.292,HF_wild_card,2022.2.4,Win32,60.1612321,5f3eb7a8f14d1312518c5776,64d2fd46c836a06233681665,64dc7d00b34157f68973269f,,,,,,,,,,,,,,,,,,,,,,,,,,,,,,,,60,Door4,resources/DR.BMP,3,0,3,0,1,,,,,,,,,,,,,,,,,,,,,,,,,
,,,,,,,,2023-08-16_08h38.54.292,HF_wild_card,2022.2.4,Win32,60.1612321,5f3eb7a8f14d1312518c5776,64d2fd46c836a06233681665,64dc7d00b34157f68973269f,,,,,,,,,,,,,,,,,,,,,,,,,,,,,,,,45,WC_nonExtreme,resources/DY.BMP,4,0,4,0,1,,,,,,,,,,,,,,,,,,,,,,,,,
,,,,,,,,2023-08-16_08h38.54.292,HF_wild_card,2022.2.4,Win32,60.1612321,5f3eb7a8f14d1312518c5776,64d2fd46c836a06233681665,64dc7d00b34157f68973269f,,,,,,,,,,,,,,,,,,,,,,,,,,,,,,,,20,Door2,resources/DBN.BMP,5,0,5,0,1,,,,,,,,,,,,,,,,,,,,,,,,,
,,,,,,,,2023-08-16_08h38.54.292,HF_wild_card,2022.2.4,Win32,60.1612321,5f3eb7a8f14d1312518c5776,64d2fd46c836a06233681665,64dc7d00b34157f68973269f,,,,,,,,,,,,,,,,,,,,,,,,,,,,,,,,,,,,,,,,,,,,,,,,,,,,,,,,,,,,,,,,
,,,,,,,,2023-08-16_08h38.54.292,HF_wild_card,2022.2.4,Win32,60.1612321,5f3eb7a8f14d1312518c5776,64d2fd46c836a06233681665,64dc7d00b34157f68973269f,,,,,,,,,,,,,,,,,,,,,,,,,,,,,,,,,,,,,,,,0,0,0,0,1,,,,,,,,,,,,,,,,,,,,
