Condition,Low fixed image (Door1),Low risky image (Door2),High fixed image (Door3),High risky image (Door4),NonExtreme Wild Card 1,NonExtreme Wild Card 2,,date,expName,psychopyVersion,OS,frameRate,PROLIFIC_PID,STUDY_ID,SESSION_ID,mouse_2.x,mouse_2.y,mouse_2.leftButton,mouse_2.midButton,mouse_2.rightButton,mouse_2.clicked_name,Trial Type,Left Option Image,Right Option Image,Chosen Door,mouse.x,mouse.y,mouse.leftButton,mouse.midButton,mouse.rightButton,mouse.time,mouse.clicked_name,Feedback,Cumulative Reward,Block,trial.thisRepN,trial.thisTrialN,trial.thisN,trial.thisIndex,trial.ran,blocks.thisRepN,blocks.thisTrialN,blocks.thisN,blocks.thisIndex,blocks.ran,Money conversion,First Outcome Reported,Shown Door (First Outcome),Displayed Image (First Outcome),outcomes.thisRepN,outcomes.thisTrialN,outcomes.thisN,outcomes.thisIndex,outcomes.ran,judgments.thisRepN,judgments.thisTrialN,judgments.thisN,judgments.thisIndex,judgments.ran,freqMouse.x,freqMouse.y,freqMouse.leftButton,freqMouse.midButton,freqMouse.rightButton,freqMouse.clicked_name,FQJ for first outcome,FQJ for second outcome,Shown Door,Displayed Image,trials.thisRepN,trials.thisTrialN,trials.thisN,trials.thisIndex,trials.ran,judgBlock.thisRepN,judgBlock.thisTrialN,judgBlock.thisN,judgBlock.thisIndex,judgBlock.ran
2,resources/DP.BMP,resources/DBN.BMP,resources/DB.BMP,resources/DY.BMP,resources/DG.BMP,resources/DR.BMP,,2023-08-06_08h21.05.472,HF_wild_card,2022.2.4,Linux x86_64,59.97001499,5ef8bf948a48ac03adaad640,64ce5acb97489d65b14ecc7a,64cf495897335a97643bbcb8,,,,,,,,,,,,,,,,,,,,,,,,,,,,,,,,,,,,,,,,,,,,,,,,,,,,,,,,,,,,,,,,
,,,,,,,,2023-08-06_08h21.05.472,HF_wild_card,2022.2.4,Linux x86_64,59.97001499,5ef8bf948a48ac03adaad640,64ce5acb97489d65b14ecc7a,64cf495897335a97643bbcb8,0.019890609,-0.421819616,1,0,0,agree,,,,,,,,,,,,,,,,,,,,,,,,,,,,,,,,,,,,,,,,,,,,,,,,,,,,,,,,,,
,,,,,,,,2023-08-06_08h21.05.472,HF_wild_card,2022.2.4,Linux x86_64,59.97001499,5ef8bf948a48ac03adaad640,64ce5acb97489d65b14ecc7a,64cf495897335a97643bbcb8,,,,,,,,,,,,,,,,,,,,,,,,,,,,,,,,,,,,,,,,,,,,,,,,,,,,,,,,,,,,,,,,
,,,,,,,,2023-08-06_08h21.05.472,HF_wild_card,2022.2.4,Linux x86_64,59.97001499,5ef8bf948a48ac03adaad640,64ce5acb97489d65b14ecc7a,64cf495897335a97643bbcb8,,,,,,,sngl,resources/Empty.png,resources/DP.BMP,Door1,0.43996274,-0.068748474,1,0,0,2.8735,optionRight,30,30,1,0,0,0,0,1,,,,,,,,,,,,,,,,,,,,,,,,,,,,,,,,,,,,,,,
,,,,,,,,2023-08-06_08h21.05.472,HF_wild_card,2022.2.4,Linux x86_64,59.97001499,5ef8bf948a48ac03adaad640,64ce5acb97489d65b14ecc7a,64cf495897335a97643bbcb8,,,,,,,ctch,resources/DY.BMP,resources/DP.BMP,Door4,-0.24972075,-0.040607558,1,0,0,1.7463,optionLeft,60,90,1,1,0,1,0,1,,,,,,,,,,,,,,,,,,,,,,,,,,,,,,,,,,,,,,,
,,,,,,,,2023-08-06_08h21.05.472,HF_wild_card,2022.2.4,Linux x86_64,59.97001499,5ef8bf948a48ac03adaad640,64ce5acb97489d65b14ecc7a,64cf495897335a97643bbcb8,,,,,,,sngl,resources/DR.BMP,resources/Empty.png,WildCard_NonEx,-0.396987668,0.007894375,1,0,0,1.2444,optionLeft,55,145,1,2,0,2,0,1,,,,,,,,,,,,,,,,,,,,,,,,,,,,,,,,,,,,,,,
,,,,,,,,2023-08-06_08h21.05.472,HF_wild_card,2022.2.4,Linux x86_64,59.97001499,5ef8bf948a48ac03adaad640,64ce5acb97489d65b14ecc7a,64cf495897335a97643bbcb8,,,,,,,sngl,resources/DBN.BMP,resources/Empty.png,Door2,-0.197225288,0.001941151,1,0,0,1.5287,optionLeft,40,185,1,3,0,3,0,1,,,,,,,,,,,,,,,,,,,,,,,,,,,,,,,,,,,,,,,
,,,,,,,,2023-08-06_08h21.05.472,HF_wild_card,2022.2.4,Linux x86_64,59.97001499,5ef8bf948a48ac03adaad640,64ce5acb97489d65b14ecc7a,64cf495897335a97643bbcb8,,,,,,,decisionTrl,resources/DB.BMP,resources/DY.BMP,Door4,0.271216498,0.006781967,1,0,0,2.3325,optionRight,60,245,1,4,0,4,0,1,,,,,,,,,,,,,,,,,,,,,,,,,,,,,,,,,,,,,,,
,,,,,,,,2023-08-06_08h21.05.472,HF_wild_card,2022.2.4,Linux x86_64,59.97001499,5ef8bf948a48ac03adaad640,64ce5acb97489d65b14ecc7a,64cf495897335a97643bbcb8,,,,,,,decisionTrl,resources/DBN.BMP,resources/DR.BMP,Door2,-0.351654229,-0.027701766,1,0,0,1.5024,optionLeft,20,265,1,5,0,5,0,1,,,,,,,,,,,,,,,,,,,,,,,,,,,,,,,,,,,,,,,
,,,,,,,,2023-08-06_08h21.05.472,HF_wild_card,2022.2.4,Linux x86_64,59.97001499,5ef8bf948a48ac03adaad640,64ce5acb97489d65b14ecc7a,64cf495897335a97643bbcb8,,,,,,,decisionTrl,resources/DY.BMP,resources/DB.BMP,Door3,0.372754132,-0.004098186,1,0,0,2.2349,optionRight,70,335,1,6,0,6,0,1,,,,,,,,,,,,,,,,,,,,,,,,,,,,,,,,,,,,,,,
,,,,,,,,2023-08-06_08h21.05.472,HF_wild_card,2022.2.4,Linux x86_64,59.97001499,5ef8bf948a48ac03adaad640,64ce5acb97489d65b14ecc7a,64cf495897335a97643bbcb8,,,,,,,ctch,resources/DP.BMP,resources/DY.BMP,Door1,-0.359130965,-0.023236487,1,0,0,1.2435,optionLeft,30,365,1,7,0,7,0,1,,,,,,,,,,,,,,,,,,,,,,,,,,,,,,,,,,,,,,,
,,,,,,,,2023-08-06_08h21.05.472,HF_wild_card,2022.2.4,Linux x86_64,59.97001499,5ef8bf948a48ac03adaad640,64ce5acb97489d65b14ecc7a,64cf495897335a97643bbcb8,,,,,,,sngl,resources/DR.BMP,resources/Empty.png,WildCard_NonEx,-0.277944847,0.04249435,1,0,0,1.1961,optionLeft,45,410,1,8,0,8,0,1,,,,,,,,,,,,,,,,,,,,,,,,,,,,,,,,,,,,,,,
,,,,,,,,2023-08-06_08h21.05.472,HF_wild_card,2022.2.4,Linux x86_64,59.97001499,5ef8bf948a48ac03adaad640,64ce5acb97489d65b14ecc7a,64cf495897335a97643bbcb8,,,,,,,decisionTrl,resources/DB.BMP,resources/DY.BMP,Door4,0.403027852,0.063608911,1,0,0,0.9362,optionRight,80,490,1,9,0,9,0,1,,,,,,,,,,,,,,,,,,,,,,,,,,,,,,,,,,,,,,,
,,,,,,,,2023-08-06_08h21.05.472,HF_wild_card,2022.2.4,Linux x86_64,59.97001499,5ef8bf948a48ac03adaad640,64ce5acb97489d65b14ecc7a,64cf495897335a97643bbcb8,,,,,,,decisionTrl,resources/DP.BMP,resources/DBN.BMP,Door1,-0.292808603,-0.020546348,1,0,0,2.3788,optionLeft,30,520,1,10,0,10,0,1,,,,,,,,,,,,,,,,,,,,,,,,,,,,,,,,,,,,,,,
,,,,,,,,2023-08-06_08h21.05.472,HF_wild_card,2022.2.4,Linux x86_64,59.97001499,5ef8bf948a48ac03adaad640,64ce5acb97489d65b14ecc7a,64cf495897335a97643bbcb8,,,,,,,sngl,resources/DB.BMP,resources/Empty.png,Door3,-0.427347007,0.063377486,1,0,0,1.1243,optionLeft,70,590,1,11,0,11,0,1,,,,,,,,,,,,,,,,,,,,,,,,,,,,,,,,,,,,,,,
,,,,,,,,2023-08-06_08h21.05.472,HF_wild_card,2022.2.4,Linux x86_64,59.97001499,5ef8bf948a48ac03adaad640,64ce5acb97489d65b14ecc7a,64cf495897335a97643bbcb8,,,,,,,decisionTrl,resources/DR.BMP,resources/DBN.BMP,WildCard_NonEx,-0.327607543,0.045471792,1,0,0,1.791,optionLeft,55,645,1,12,0,12,0,1,,,,,,,,,,,,,,,,,,,,,,,,,,,,,,,,,,,,,,,
,,,,,,,,2023-08-06_08h21.05.472,HF_wild_card,2022.2.4,Linux x86_64,59.97001499,5ef8bf948a48ac03adaad640,64ce5acb97489d65b14ecc7a,64cf495897335a97643bbcb8,,,,,,,decisionTrl,resources/DP.BMP,resources/DR.BMP,Door1,-0.396448135,0.028528849,1,0,0,1.2807,optionLeft,30,675,1,13,0,13,0,1,,,,,,,,,,,,,,,,,,,,,,,,,,,,,,,,,,,,,,,
,,,,,,,,2023-08-06_08h21.05.472,HF_wild_card,2022.2.4,Linux x86_64,59.97001499,5ef8bf948a48ac03adaad640,64ce5acb97489d65b14ecc7a,64cf495897335a97643bbcb8,,,,,,,sngl,resources/DY.BMP,resources/Empty.png,Door4,-0.323158935,0.020036874,1,0,0,1.0638,optionLeft,80,755,1,14,0,14,0,1,,,,,,,,,,,,,,,,,,,,,,,,,,,,,,,,,,,,,,,
,,,,,,,,2023-08-06_08h21.05.472,HF_wild_card,2022.2.4,Linux x86_64,59.97001499,5ef8bf948a48ac03adaad640,64ce5acb97489d65b14ecc7a,64cf495897335a97643bbcb8,,,,,,,decisionTrl,resources/DY.BMP,resources/DB.BMP,Door3,0.437032488,0.013068199,1,0,0,1.2445,optionRight,70,825,1,15,0,15,0,1,,,,,,,,,,,,,,,,,,,,,,,,,,,,,,,,,,,,,,,
,,,,,,,,2023-08-06_08h21.05.472,HF_wild_card,2022.2.4,Linux x86_64,59.97001499,5ef8bf948a48ac03adaad640,64ce5acb97489d65b14ecc7a,64cf495897335a97643bbcb8,,,,,,,decisionTrl,resources/DBN.BMP,resources/DP.BMP,Door2,-0.378809222,0.134465112,1,0,0,1.9158,optionLeft,20,845,1,16,0,16,0,1,,,,,,,,,,,,,,,,,,,,,,,,,,,,,,,,,,,,,,,
,,,,,,,,2023-08-06_08h21.05.472,HF_wild_card,2022.2.4,Linux x86_64,59.97001499,5ef8bf948a48ac03adaad640,64ce5acb97489d65b14ecc7a,64cf495897335a97643bbcb8,,,,,,,decisionTrl,resources/DP.BMP,resources/DBN.BMP,Door1,-0.567562845,-0.045864141,1,0,0,1.1037,optionLeft,30,875,1,17,0,17,0,1,,,,,,,,,,,,,,,,,,,,,,,,,,,,,,,,,,,,,,,
,,,,,,,,2023-08-06_08h21.05.472,HF_wild_card,2022.2.4,Linux x86_64,59.97001499,5ef8bf948a48ac03adaad640,64ce5acb97489d65b14ecc7a,64cf495897335a97643bbcb8,,,,,,,decisionTrl,resources/DB.BMP,resources/DY.BMP,Door4,0.399134742,0.05857616,1,0,0,2.8998,optionRight,60,935,1,18,0,18,0,1,,,,,,,,,,,,,,,,,,,,,,,,,,,,,,,,,,,,,,,
,,,,,,,,2023-08-06_08h21.05.472,HF_wild_card,2022.2.4,Linux x86_64,59.97001499,5ef8bf948a48ac03adaad640,64ce5acb97489d65b14ecc7a,64cf495897335a97643bbcb8,,,,,,,decisionTrl,resources/DBN.BMP,resources/DP.BMP,Door1,0.280089202,0.004545812,1,0,0,1.4417,optionRight,30,965,1,19,0,19,0,1,,,,,,,,,,,,,,,,,,,,,,,,,,,,,,,,,,,,,,,
,,,,,,,,2023-08-06_08h21.05.472,HF_wild_card,2022.2.4,Linux x86_64,59.97001499,5ef8bf948a48ac03adaad640,64ce5acb97489d65b14ecc7a,64cf495897335a97643bbcb8,,,,,,,decisionTrl,resources/DBN.BMP,resources/DP.BMP,Door1,0.407532727,-0.085951982,1,0,0,0.9978,optionRight,30,995,1,20,0,20,0,1,,,,,,,,,,,,,,,,,,,,,,,,,,,,,,,,,,,,,,,
,,,,,,,,2023-08-06_08h21.05.472,HF_wild_card,2022.2.4,Linux x86_64,59.97001499,5ef8bf948a48ac03adaad640,64ce5acb97489d65b14ecc7a,64cf495897335a97643bbcb8,,,,,,,ctch,resources/DB.BMP,resources/DBN.BMP,Door2,0.404092718,0.08019797,1,0,0,1.1131,optionRight,20,1015,1,21,0,21,0,1,,,,,,,,,,,,,,,,,,,,,,,,,,,,,,,,,,,,,,,
,,,,,,,,2023-08-06_08h21.05.472,HF_wild_card,2022.2.4,Linux x86_64,59.97001499,5ef8bf948a48ac03adaad640,64ce5acb97489d65b14ecc7a,64cf495897335a97643bbcb8,,,,,,,decisionTrl,resources/DR.BMP,resources/DB.BMP,WildCard_NonEx,-0.403198136,0.032656387,1,0,0,1.5658,optionLeft,45,1060,1,22,0,22,0,1,,,,,,,,,,,,,,,,,,,,,,,,,,,,,,,,,,,,,,,
,,,,,,,,2023-08-06_08h21.05.472,HF_wild_card,2022.2.4,Linux x86_64,59.97001499,5ef8bf948a48ac03adaad640,64ce5acb97489d65b14ecc7a,64cf495897335a97643bbcb8,,,,,,,decisionTrl,resources/DB.BMP,resources/DR.BMP,WildCard_NonEx,0.434554912,0.057583703,1,0,0,4.1978,optionRight,45,1105,1,23,0,23,0,1,,,,,,,,,,,,,,,,,,,,,,,,,,,,,,,,,,,,,,,
,,,,,,,,2023-08-06_08h21.05.472,HF_wild_card,2022.2.4,Linux x86_64,59.97001499,5ef8bf948a48ac03adaad640,64ce5acb97489d65b14ecc7a,64cf495897335a97643bbcb8,,,,,,,ctch,resources/DY.BMP,resources/DP.BMP,Door4,-0.253070125,0.008236285,1,0,0,1.5462,optionLeft,80,1185,1,24,0,24,0,1,,,,,,,,,,,,,,,,,,,,,,,,,,,,,,,,,,,,,,,
,,,,,,,,2023-08-06_08h21.05.472,HF_wild_card,2022.2.4,Linux x86_64,59.97001499,5ef8bf948a48ac03adaad640,64ce5acb97489d65b14ecc7a,64cf495897335a97643bbcb8,,,,,,,decisionTrl,resources/DY.BMP,resources/DB.BMP,Door4,-0.478177777,0.029482276,1,0,0,1.1466,optionLeft,80,1265,1,25,0,25,0,1,,,,,,,,,,,,,,,,,,,,,,,,,,,,,,,,,,,,,,,
,,,,,,,,2023-08-06_08h21.05.472,HF_wild_card,2022.2.4,Linux x86_64,59.97001499,5ef8bf948a48ac03adaad640,64ce5acb97489d65b14ecc7a,64cf495897335a97643bbcb8,,,,,,,sngl,resources/Empty.png,resources/DY.BMP,Door4,0.502147957,0.018756831,1,0,0,0.956,optionRight,60,1325,1,26,0,26,0,1,,,,,,,,,,,,,,,,,,,,,,,,,,,,,,,,,,,,,,,
,,,,,,,,2023-08-06_08h21.05.472,HF_wild_card,2022.2.4,Linux x86_64,59.97001499,5ef8bf948a48ac03adaad640,64ce5acb97489d65b14ecc7a,64cf495897335a97643bbcb8,,,,,,,ctch,resources/DP.BMP,resources/DY.BMP,Door4,0.374167407,0.003412317,1,0,0,1.1656,optionRight,60,1385,1,27,0,27,0,1,,,,,,,,,,,,,,,,,,,,,,,,,,,,,,,,,,,,,,,
,,,,,,,,2023-08-06_08h21.05.472,HF_wild_card,2022.2.4,Linux x86_64,59.97001499,5ef8bf948a48ac03adaad640,64ce5acb97489d65b14ecc7a,64cf495897335a97643bbcb8,,,,,,,decisionTrl,resources/DY.BMP,resources/DR.BMP,Door4,-0.547532788,0.015386052,1,0,0,0.9485,optionLeft,80,1465,1,28,0,28,0,1,,,,,,,,,,,,,,,,,,,,,,,,,,,,,,,,,,,,,,,
,,,,,,,,2023-08-06_08h21.05.472,HF_wild_card,2022.2.4,Linux x86_64,59.97001499,5ef8bf948a48ac03adaad640,64ce5acb97489d65b14ecc7a,64cf495897335a97643bbcb8,,,,,,,decisionTrl,resources/DR.BMP,resources/DP.BMP,WildCard_NonEx,-0.333250152,-0.010395156,1,0,0,1.8701,optionLeft,45,1510,1,29,0,29,0,1,,,,,,,,,,,,,,,,,,,,,,,,,,,,,,,,,,,,,,,
,,,,,,,,2023-08-06_08h21.05.472,HF_wild_card,2022.2.4,Linux x86_64,59.97001499,5ef8bf948a48ac03adaad640,64ce5acb97489d65b14ecc7a,64cf495897335a97643bbcb8,,,,,,,sngl,resources/Empty.png,resources/DR.BMP,WildCard_NonEx,0.332091296,-0.00074323,1,0,0,1.5099,optionRight,55,1565,1,30,0,30,0,1,,,,,,,,,,,,,,,,,,,,,,,,,,,,,,,,,,,,,,,
,,,,,,,,2023-08-06_08h21.05.472,HF_wild_card,2022.2.4,Linux x86_64,59.97001499,5ef8bf948a48ac03adaad640,64ce5acb97489d65b14ecc7a,64cf495897335a97643bbcb8,,,,,,,ctch,resources/DB.BMP,resources/DBN.BMP,Door3,-0.258548878,0.040330004,1,0,0,1.5587,optionLeft,70,1635,1,31,0,31,0,1,,,,,,,,,,,,,,,,,,,,,,,,,,,,,,,,,,,,,,,
,,,,,,,,2023-08-06_08h21.05.472,HF_wild_card,2022.2.4,Linux x86_64,59.97001499,5ef8bf948a48ac03adaad640,64ce5acb97489d65b14ecc7a,64cf495897335a97643bbcb8,,,,,,,decisionTrl,resources/DBN.BMP,resources/DP.BMP,Door1,0.238482228,0.013477961,1,0,0,0.9972,optionRight,30,1665,1,32,0,32,0,1,,,,,,,,,,,,,,,,,,,,,,,,,,,,,,,,,,,,,,,
,,,,,,,,2023-08-06_08h21.05.472,HF_wild_card,2022.2.4,Linux x86_64,59.97001499,5ef8bf948a48ac03adaad640,64ce5acb97489d65b14ecc7a,64cf495897335a97643bbcb8,,,,,,,decisionTrl,resources/DB.BMP,resources/DY.BMP,Door4,0.344600677,0.120970655,1,0,0,2.3153,optionRight,80,1745,1,33,0,33,0,1,,,,,,,,,,,,,,,,,,,,,,,,,,,,,,,,,,,,,,,
,,,,,,,,2023-08-06_08h21.05.472,HF_wild_card,2022.2.4,Linux x86_64,59.97001499,5ef8bf948a48ac03adaad640,64ce5acb97489d65b14ecc7a,64cf495897335a97643bbcb8,,,,,,,decisionTrl,resources/DP.BMP,resources/DBN.BMP,Door1,-0.525498002,-0.002958863,1,0,0,1.2672,optionLeft,30,1775,1,34,0,34,0,1,,,,,,,,,,,,,,,,,,,,,,,,,,,,,,,,,,,,,,,
,,,,,,,,2023-08-06_08h21.05.472,HF_wild_card,2022.2.4,Linux x86_64,59.97001499,5ef8bf948a48ac03adaad640,64ce5acb97489d65b14ecc7a,64cf495897335a97643bbcb8,,,,,,,sngl,resources/DP.BMP,resources/Empty.png,Door1,-0.441447081,-0.01822408,1,0,0,1.0291,optionLeft,30,1805,1,35,0,35,0,1,,,,,,,,,,,,,,,,,,,,,,,,,,,,,,,,,,,,,,,
,,,,,,,,2023-08-06_08h21.05.472,HF_wild_card,2022.2.4,Linux x86_64,59.97001499,5ef8bf948a48ac03adaad640,64ce5acb97489d65b14ecc7a,64cf495897335a97643bbcb8,,,,,,,decisionTrl,resources/DR.BMP,resources/DY.BMP,Door4,0.211081187,0.016676196,1,0,0,1.4997,optionRight,80,1885,1,36,0,36,0,1,,,,,,,,,,,,,,,,,,,,,,,,,,,,,,,,,,,,,,,
,,,,,,,,2023-08-06_08h21.05.472,HF_wild_card,2022.2.4,Linux x86_64,59.97001499,5ef8bf948a48ac03adaad640,64ce5acb97489d65b14ecc7a,64cf495897335a97643bbcb8,,,,,,,sngl,resources/Empty.png,resources/DBN.BMP,Door2,0.406385492,0.03576427,1,0,0,1.4808,optionRight,20,1905,1,37,0,37,0,1,,,,,,,,,,,,,,,,,,,,,,,,,,,,,,,,,,,,,,,
,,,,,,,,2023-08-06_08h21.05.472,HF_wild_card,2022.2.4,Linux x86_64,59.97001499,5ef8bf948a48ac03adaad640,64ce5acb97489d65b14ecc7a,64cf495897335a97643bbcb8,,,,,,,sngl,resources/Empty.png,resources/DB.BMP,Door3,0.578195643,0.000420747,1,0,0,0.9451,optionRight,70,1975,1,38,0,38,0,1,,,,,,,,,,,,,,,,,,,,,,,,,,,,,,,,,,,,,,,
,,,,,,,,2023-08-06_08h21.05.472,HF_wild_card,2022.2.4,Linux x86_64,59.97001499,5ef8bf948a48ac03adaad640,64ce5acb97489d65b14ecc7a,64cf495897335a97643bbcb8,,,,,,,ctch,resources/DBN.BMP,resources/DB.BMP,Door3,0.525534595,0.042265044,1,0,0,1.0793,optionRight,70,2045,1,39,0,39,0,1,,,,,,,,,,,,,,,,,,,,,,,,,,,,,,,,,,,,,,,
,,,,,,,,2023-08-06_08h21.05.472,HF_wild_card,2022.2.4,Linux x86_64,59.97001499,5ef8bf948a48ac03adaad640,64ce5acb97489d65b14ecc7a,64cf495897335a97643bbcb8,,,,,,,ctch,resources/DBN.BMP,resources/DB.BMP,Door3,0.611818243,0.110688139,1,0,0,0.9802,optionRight,70,2115,1,40,0,40,0,1,,,,,,,,,,,,,,,,,,,,,,,,,,,,,,,,,,,,,,,
,,,,,,,,2023-08-06_08h21.05.472,HF_wild_card,2022.2.4,Linux x86_64,59.97001499,5ef8bf948a48ac03adaad640,64ce5acb97489d65b14ecc7a,64cf495897335a97643bbcb8,,,,,,,sngl,resources/Empty.png,resources/DR.BMP,WildCard_NonEx,0.378883503,0.01064463,1,0,0,0.979,optionRight,45,2160,1,41,0,41,0,1,,,,,,,,,,,,,,,,,,,,,,,,,,,,,,,,,,,,,,,
,,,,,,,,2023-08-06_08h21.05.472,HF_wild_card,2022.2.4,Linux x86_64,59.97001499,5ef8bf948a48ac03adaad640,64ce5acb97489d65b14ecc7a,64cf495897335a97643bbcb8,,,,,,,decisionTrl,resources/DY.BMP,resources/DB.BMP,Door4,-0.299281685,0.046311484,1,0,0,2.5336,optionLeft,80,2240,1,42,0,42,0,1,,,,,,,,,,,,,,,,,,,,,,,,,,,,,,,,,,,,,,,
,,,,,,,,2023-08-06_08h21.05.472,HF_wild_card,2022.2.4,Linux x86_64,59.97001499,5ef8bf948a48ac03adaad640,64ce5acb97489d65b14ecc7a,64cf495897335a97643bbcb8,,,,,,,decisionTrl,resources/DP.BMP,resources/DBN.BMP,Door1,-0.453408453,0.036009153,1,0,0,1.3168,optionLeft,30,2270,1,43,0,43,0,1,,,,,,,,,,,,,,,,,,,,,,,,,,,,,,,,,,,,,,,
,,,,,,,,2023-08-06_08h21.05.472,HF_wild_card,2022.2.4,Linux x86_64,59.97001499,5ef8bf948a48ac03adaad640,64ce5acb97489d65b14ecc7a,64cf495897335a97643bbcb8,,,,,,,,,,,,,,,,,,,,,,,,,,0,0,0,0,1,,,,,,,,,,,,,,,,,,,,,,,,,,,,,,,,,,
,,,,,,,,2023-08-06_08h21.05.472,HF_wild_card,2022.2.4,Linux x86_64,59.97001499,5ef8bf948a48ac03adaad640,64ce5acb97489d65b14ecc7a,64cf495897335a97643bbcb8,,,,,,,decisionTrl,resources/DP.BMP,resources/DBN.BMP,Door1,-0.325553929,-0.051911319,1,0,0,1.4621,optionLeft,30,2300,2,0,0,0,0,1,,,,,,,,,,,,,,,,,,,,,,,,,,,,,,,,,,,,,,,
,,,,,,,,2023-08-06_08h21.05.472,HF_wild_card,2022.2.4,Linux x86_64,59.97001499,5ef8bf948a48ac03adaad640,64ce5acb97489d65b14ecc7a,64cf495897335a97643bbcb8,,,,,,,decisionTrl,resources/DB.BMP,resources/DY.BMP,Door4,0.33030404,0.056754783,1,0,0,1.5304,optionRight,60,2360,2,1,0,1,0,1,,,,,,,,,,,,,,,,,,,,,,,,,,,,,,,,,,,,,,,
,,,,,,,,2023-08-06_08h21.05.472,HF_wild_card,2022.2.4,Linux x86_64,59.97001499,5ef8bf948a48ac03adaad640,64ce5acb97489d65b14ecc7a,64cf495897335a97643bbcb8,,,,,,,decisionTrl,resources/DBN.BMP,resources/DP.BMP,Door1,0.336722339,-0.020924992,1,0,0,1.156,optionRight,30,2390,2,2,0,2,0,1,,,,,,,,,,,,,,,,,,,,,,,,,,,,,,,,,,,,,,,
,,,,,,,,2023-08-06_08h21.05.472,HF_wild_card,2022.2.4,Linux x86_64,59.97001499,5ef8bf948a48ac03adaad640,64ce5acb97489d65b14ecc7a,64cf495897335a97643bbcb8,,,,,,,decisionTrl,resources/DR.BMP,resources/DP.BMP,WildCard_NonEx,-0.354610796,0.069181054,1,0,0,1.0795,optionLeft,55,2445,2,3,0,3,0,1,,,,,,,,,,,,,,,,,,,,,,,,,,,,,,,,,,,,,,,
,,,,,,,,2023-08-06_08h21.05.472,HF_wild_card,2022.2.4,Linux x86_64,59.97001499,5ef8bf948a48ac03adaad640,64ce5acb97489d65b14ecc7a,64cf495897335a97643bbcb8,,,,,,,decisionTrl,resources/DR.BMP,resources/DB.BMP,WildCard_NonEx,-0.219622789,0.020951448,1,0,0,1.53,optionLeft,45,2490,2,4,0,4,0,1,,,,,,,,,,,,,,,,,,,,,,,,,,,,,,,,,,,,,,,
,,,,,,,,2023-08-06_08h21.05.472,HF_wild_card,2022.2.4,Linux x86_64,59.97001499,5ef8bf948a48ac03adaad640,64ce5acb97489d65b14ecc7a,64cf495897335a97643bbcb8,,,,,,,decisionTrl,resources/DR.BMP,resources/DY.BMP,Door4,0.420649069,-0.013308278,1,0,0,1.1967,optionRight,80,2570,2,5,0,5,0,1,,,,,,,,,,,,,,,,,,,,,,,,,,,,,,,,,,,,,,,
,,,,,,,,2023-08-06_08h21.05.472,HF_wild_card,2022.2.4,Linux x86_64,59.97001499,5ef8bf948a48ac03adaad640,64ce5acb97489d65b14ecc7a,64cf495897335a97643bbcb8,,,,,,,decisionTrl,resources/DY.BMP,resources/DB.BMP,Door4,-0.352262426,0.024829723,1,0,0,0.8125,optionLeft,60,2630,2,6,0,6,0,1,,,,,,,,,,,,,,,,,,,,,,,,,,,,,,,,,,,,,,,
,,,,,,,,2023-08-06_08h21.05.472,HF_wild_card,2022.2.4,Linux x86_64,59.97001499,5ef8bf948a48ac03adaad640,64ce5acb97489d65b14ecc7a,64cf495897335a97643bbcb8,,,,,,,ctch,resources/DBN.BMP,resources/DB.BMP,Door3,0.242826321,-0.003285691,1,0,0,1.0147,optionRight,70,2700,2,7,0,7,0,1,,,,,,,,,,,,,,,,,,,,,,,,,,,,,,,,,,,,,,,
,,,,,,,,2023-08-06_08h21.05.472,HF_wild_card,2022.2.4,Linux x86_64,59.97001499,5ef8bf948a48ac03adaad640,64ce5acb97489d65b14ecc7a,64cf495897335a97643bbcb8,,,,,,,decisionTrl,resources/DBN.BMP,resources/DP.BMP,Door1,0.528512743,-0.035990291,1,0,0,1.3779,optionRight,30,2730,2,8,0,8,0,1,,,,,,,,,,,,,,,,,,,,,,,,,,,,,,,,,,,,,,,
,,,,,,,,2023-08-06_08h21.05.472,HF_wild_card,2022.2.4,Linux x86_64,59.97001499,5ef8bf948a48ac03adaad640,64ce5acb97489d65b14ecc7a,64cf495897335a97643bbcb8,,,,,,,decisionTrl,resources/DB.BMP,resources/DY.BMP,Door4,0.209232118,0.018840472,1,0,0,1.4535,optionRight,60,2790,2,9,0,9,0,1,,,,,,,,,,,,,,,,,,,,,,,,,,,,,,,,,,,,,,,
,,,,,,,,2023-08-06_08h21.05.472,HF_wild_card,2022.2.4,Linux x86_64,59.97001499,5ef8bf948a48ac03adaad640,64ce5acb97489d65b14ecc7a,64cf495897335a97643bbcb8,,,,,,,sngl,resources/Empty.png,resources/DP.BMP,Door1,0.405707041,-0.001164648,1,0,0,1.0381,optionRight,30,2820,2,10,0,10,0,1,,,,,,,,,,,,,,,,,,,,,,,,,,,,,,,,,,,,,,,
,,,,,,,,2023-08-06_08h21.05.472,HF_wild_card,2022.2.4,Linux x86_64,59.97001499,5ef8bf948a48ac03adaad640,64ce5acb97489d65b14ecc7a,64cf495897335a97643bbcb8,,,,,,,ctch,resources/DB.BMP,resources/DBN.BMP,Door3,-0.31833412,0.03291614,1,0,0,1.1828,optionLeft,70,2890,2,11,0,11,0,1,,,,,,,,,,,,,,,,,,,,,,,,,,,,,,,,,,,,,,,
,,,,,,,,2023-08-06_08h21.05.472,HF_wild_card,2022.2.4,Linux x86_64,59.97001499,5ef8bf948a48ac03adaad640,64ce5acb97489d65b14ecc7a,64cf495897335a97643bbcb8,,,,,,,ctch,resources/DB.BMP,resources/DBN.BMP,Door3,-0.514156236,0.049794268,1,0,0,0.9299,optionLeft,70,2960,2,12,0,12,0,1,,,,,,,,,,,,,,,,,,,,,,,,,,,,,,,,,,,,,,,
,,,,,,,,2023-08-06_08h21.05.472,HF_wild_card,2022.2.4,Linux x86_64,59.97001499,5ef8bf948a48ac03adaad640,64ce5acb97489d65b14ecc7a,64cf495897335a97643bbcb8,,,,,,,decisionTrl,resources/DP.BMP,resources/DBN.BMP,Door1,-0.295444842,0.008004012,1,0,0,1.0134,optionLeft,30,2990,2,13,0,13,0,1,,,,,,,,,,,,,,,,,,,,,,,,,,,,,,,,,,,,,,,
,,,,,,,,2023-08-06_08h21.05.472,HF_wild_card,2022.2.4,Linux x86_64,59.97001499,5ef8bf948a48ac03adaad640,64ce5acb97489d65b14ecc7a,64cf495897335a97643bbcb8,,,,,,,decisionTrl,resources/DY.BMP,resources/DR.BMP,Door4,-0.37736105,0.023827835,1,0,0,1.2379,optionLeft,80,3070,2,14,0,14,0,1,,,,,,,,,,,,,,,,,,,,,,,,,,,,,,,,,,,,,,,
,,,,,,,,2023-08-06_08h21.05.472,HF_wild_card,2022.2.4,Linux x86_64,59.97001499,5ef8bf948a48ac03adaad640,64ce5acb97489d65b14ecc7a,64cf495897335a97643bbcb8,,,,,,,decisionTrl,resources/DY.BMP,resources/DB.BMP,Door4,-0.490609946,-0.025445126,1,0,0,0.9954,optionLeft,60,3130,2,15,0,15,0,1,,,,,,,,,,,,,,,,,,,,,,,,,,,,,,,,,,,,,,,
,,,,,,,,2023-08-06_08h21.05.472,HF_wild_card,2022.2.4,Linux x86_64,59.97001499,5ef8bf948a48ac03adaad640,64ce5acb97489d65b14ecc7a,64cf495897335a97643bbcb8,,,,,,,ctch,resources/DY.BMP,resources/DP.BMP,Door4,-0.393318282,-0.037411725,1,0,0,1.0276,optionLeft,80,3210,2,16,0,16,0,1,,,,,,,,,,,,,,,,,,,,,,,,,,,,,,,,,,,,,,,
,,,,,,,,2023-08-06_08h21.05.472,HF_wild_card,2022.2.4,Linux x86_64,59.97001499,5ef8bf948a48ac03adaad640,64ce5acb97489d65b14ecc7a,64cf495897335a97643bbcb8,,,,,,,decisionTrl,resources/DBN.BMP,resources/DP.BMP,Door1,0.476126212,0.026356944,1,0,0,1.08,optionRight,30,3240,2,17,0,17,0,1,,,,,,,,,,,,,,,,,,,,,,,,,,,,,,,,,,,,,,,
,,,,,,,,2023-08-06_08h21.05.472,HF_wild_card,2022.2.4,Linux x86_64,59.97001499,5ef8bf948a48ac03adaad640,64ce5acb97489d65b14ecc7a,64cf495897335a97643bbcb8,,,,,,,ctch,resources/DP.BMP,resources/DY.BMP,Door4,0.456235391,-0.0013539,1,0,0,1.4942,optionRight,60,3300,2,18,0,18,0,1,,,,,,,,,,,,,,,,,,,,,,,,,,,,,,,,,,,,,,,
,,,,,,,,2023-08-06_08h21.05.472,HF_wild_card,2022.2.4,Linux x86_64,59.97001499,5ef8bf948a48ac03adaad640,64ce5acb97489d65b14ecc7a,64cf495897335a97643bbcb8,,,,,,,sngl,resources/DB.BMP,resources/Empty.png,Door3,-0.181523429,-0.00813463,1,0,0,1.024,optionLeft,70,3370,2,19,0,19,0,1,,,,,,,,,,,,,,,,,,,,,,,,,,,,,,,,,,,,,,,
,,,,,,,,2023-08-06_08h21.05.472,HF_wild_card,2022.2.4,Linux x86_64,59.97001499,5ef8bf948a48ac03adaad640,64ce5acb97489d65b14ecc7a,64cf495897335a97643bbcb8,,,,,,,decisionTrl,resources/DB.BMP,resources/DY.BMP,Door3,-0.449110208,-0.008131698,1,0,0,0.8939,optionLeft,70,3440,2,20,0,20,0,1,,,,,,,,,,,,,,,,,,,,,,,,,,,,,,,,,,,,,,,
,,,,,,,,2023-08-06_08h21.05.472,HF_wild_card,2022.2.4,Linux x86_64,59.97001499,5ef8bf948a48ac03adaad640,64ce5acb97489d65b14ecc7a,64cf495897335a97643bbcb8,,,,,,,decisionTrl,resources/DP.BMP,resources/DBN.BMP,Door1,-0.291102162,-0.025472747,1,0,0,1.6087,optionLeft,30,3470,2,21,0,21,0,1,,,,,,,,,,,,,,,,,,,,,,,,,,,,,,,,,,,,,,,
,,,,,,,,2023-08-06_08h21.05.472,HF_wild_card,2022.2.4,Linux x86_64,59.97001499,5ef8bf948a48ac03adaad640,64ce5acb97489d65b14ecc7a,64cf495897335a97643bbcb8,,,,,,,ctch,resources/DBN.BMP,resources/DB.BMP,Door3,0.265916824,-0.019488547,1,0,0,1.6285,optionRight,70,3540,2,22,0,22,0,1,,,,,,,,,,,,,,,,,,,,,,,,,,,,,,,,,,,,,,,
,,,,,,,,2023-08-06_08h21.05.472,HF_wild_card,2022.2.4,Linux x86_64,59.97001499,5ef8bf948a48ac03adaad640,64ce5acb97489d65b14ecc7a,64cf495897335a97643bbcb8,,,,,,,decisionTrl,resources/DP.BMP,resources/DBN.BMP,Door2,0.383192274,0.030445275,1,0,0,1.9126,optionRight,20,3560,2,23,0,23,0,1,,,,,,,,,,,,,,,,,,,,,,,,,,,,,,,,,,,,,,,
,,,,,,,,2023-08-06_08h21.05.472,HF_wild_card,2022.2.4,Linux x86_64,59.97001499,5ef8bf948a48ac03adaad640,64ce5acb97489d65b14ecc7a,64cf495897335a97643bbcb8,,,,,,,sngl,resources/DR.BMP,resources/Empty.png,WildCard_NonEx,-0.26113821,0.026470785,1,0,0,0.8967,optionLeft,55,3615,2,24,0,24,0,1,,,,,,,,,,,,,,,,,,,,,,,,,,,,,,,,,,,,,,,
,,,,,,,,2023-08-06_08h21.05.472,HF_wild_card,2022.2.4,Linux x86_64,59.97001499,5ef8bf948a48ac03adaad640,64ce5acb97489d65b14ecc7a,64cf495897335a97643bbcb8,,,,,,,sngl,resources/Empty.png,resources/DBN.BMP,Door2,0.417026096,0.013177271,1,0,0,1.129,optionRight,40,3655,2,25,0,25,0,1,,,,,,,,,,,,,,,,,,,,,,,,,,,,,,,,,,,,,,,
,,,,,,,,2023-08-06_08h21.05.472,HF_wild_card,2022.2.4,Linux x86_64,59.97001499,5ef8bf948a48ac03adaad640,64ce5acb97489d65b14ecc7a,64cf495897335a97643bbcb8,,,,,,,sngl,resources/Empty.png,resources/DY.BMP,Door4,0.356190293,0.028024144,1,0,0,0.9937,optionRight,80,3735,2,26,0,26,0,1,,,,,,,,,,,,,,,,,,,,,,,,,,,,,,,,,,,,,,,
,,,,,,,,2023-08-06_08h21.05.472,HF_wild_card,2022.2.4,Linux x86_64,59.97001499,5ef8bf948a48ac03adaad640,64ce5acb97489d65b14ecc7a,64cf495897335a97643bbcb8,,,,,,,sngl,resources/Empty.png,resources/DB.BMP,Door3,0.262552544,0.011344804,1,0,0,1.1786,optionRight,70,3805,2,27,0,27,0,1,,,,,,,,,,,,,,,,,,,,,,,,,,,,,,,,,,,,,,,
,,,,,,,,2023-08-06_08h21.05.472,HF_wild_card,2022.2.4,Linux x86_64,59.97001499,5ef8bf948a48ac03adaad640,64ce5acb97489d65b14ecc7a,64cf495897335a97643bbcb8,,,,,,,decisionTrl,resources/DP.BMP,resources/DR.BMP,Door1,-0.27092531,-0.000969604,1,0,0,1.4629,optionLeft,30,3835,2,28,0,28,0,1,,,,,,,,,,,,,,,,,,,,,,,,,,,,,,,,,,,,,,,
,,,,,,,,2023-08-06_08h21.05.472,HF_wild_card,2022.2.4,Linux x86_64,59.97001499,5ef8bf948a48ac03adaad640,64ce5acb97489d65b14ecc7a,64cf495897335a97643bbcb8,,,,,,,sngl,resources/DY.BMP,resources/Empty.png,Door4,-0.349075529,0.01870014,1,0,0,0.9437,optionLeft,60,3895,2,29,0,29,0,1,,,,,,,,,,,,,,,,,,,,,,,,,,,,,,,,,,,,,,,
,,,,,,,,2023-08-06_08h21.05.472,HF_wild_card,2022.2.4,Linux x86_64,59.97001499,5ef8bf948a48ac03adaad640,64ce5acb97489d65b14ecc7a,64cf495897335a97643bbcb8,,,,,,,decisionTrl,resources/DY.BMP,resources/DB.BMP,Door4,-0.426669262,-0.023996989,1,0,0,0.9635,optionLeft,60,3955,2,30,0,30,0,1,,,,,,,,,,,,,,,,,,,,,,,,,,,,,,,,,,,,,,,
,,,,,,,,2023-08-06_08h21.05.472,HF_wild_card,2022.2.4,Linux x86_64,59.97001499,5ef8bf948a48ac03adaad640,64ce5acb97489d65b14ecc7a,64cf495897335a97643bbcb8,,,,,,,decisionTrl,resources/DB.BMP,resources/DY.BMP,Door3,-0.436045046,0.059659181,1,0,0,1.8532,optionLeft,70,4025,2,31,0,31,0,1,,,,,,,,,,,,,,,,,,,,,,,,,,,,,,,,,,,,,,,
,,,,,,,,2023-08-06_08h21.05.472,HF_wild_card,2022.2.4,Linux x86_64,59.97001499,5ef8bf948a48ac03adaad640,64ce5acb97489d65b14ecc7a,64cf495897335a97643bbcb8,,,,,,,ctch,resources/DY.BMP,resources/DP.BMP,Door4,-0.328488279,0.048943166,1,0,0,2.0468,optionLeft,60,4085,2,32,0,32,0,1,,,,,,,,,,,,,,,,,,,,,,,,,,,,,,,,,,,,,,,
,,,,,,,,2023-08-06_08h21.05.472,HF_wild_card,2022.2.4,Linux x86_64,59.97001499,5ef8bf948a48ac03adaad640,64ce5acb97489d65b14ecc7a,64cf495897335a97643bbcb8,,,,,,,sngl,resources/DBN.BMP,resources/Empty.png,Door2,-0.345501758,0.060903796,1,0,0,1.4102,optionLeft,20,4105,2,33,0,33,0,1,,,,,,,,,,,,,,,,,,,,,,,,,,,,,,,,,,,,,,,
,,,,,,,,2023-08-06_08h21.05.472,HF_wild_card,2022.2.4,Linux x86_64,59.97001499,5ef8bf948a48ac03adaad640,64ce5acb97489d65b14ecc7a,64cf495897335a97643bbcb8,,,,,,,ctch,resources/DP.BMP,resources/DY.BMP,Door4,0.363892591,-0.016867178,1,0,0,1.5784,optionRight,80,4185,2,34,0,34,0,1,,,,,,,,,,,,,,,,,,,,,,,,,,,,,,,,,,,,,,,
,,,,,,,,2023-08-06_08h21.05.472,HF_wild_card,2022.2.4,Linux x86_64,59.97001499,5ef8bf948a48ac03adaad640,64ce5acb97489d65b14ecc7a,64cf495897335a97643bbcb8,,,,,,,decisionTrl,resources/DY.BMP,resources/DB.BMP,Door4,-0.425405184,0.020790948,1,0,0,0.8297,optionLeft,60,4245,2,35,0,35,0,1,,,,,,,,,,,,,,,,,,,,,,,,,,,,,,,,,,,,,,,
,,,,,,,,2023-08-06_08h21.05.472,HF_wild_card,2022.2.4,Linux x86_64,59.97001499,5ef8bf948a48ac03adaad640,64ce5acb97489d65b14ecc7a,64cf495897335a97643bbcb8,,,,,,,decisionTrl,resources/DBN.BMP,resources/DP.BMP,Door1,0.353626675,0.068399147,1,0,0,2.4451,optionRight,30,4275,2,36,0,36,0,1,,,,,,,,,,,,,,,,,,,,,,,,,,,,,,,,,,,,,,,
,,,,,,,,2023-08-06_08h21.05.472,HF_wild_card,2022.2.4,Linux x86_64,59.97001499,5ef8bf948a48ac03adaad640,64ce5acb97489d65b14ecc7a,64cf495897335a97643bbcb8,,,,,,,decisionTrl,resources/DB.BMP,resources/DR.BMP,Door3,-0.365506949,-0.054761357,1,0,0,2.5869,optionLeft,70,4345,2,37,0,37,0,1,,,,,,,,,,,,,,,,,,,,,,,,,,,,,,,,,,,,,,,
,,,,,,,,2023-08-06_08h21.05.472,HF_wild_card,2022.2.4,Linux x86_64,59.97001499,5ef8bf948a48ac03adaad640,64ce5acb97489d65b14ecc7a,64cf495897335a97643bbcb8,,,,,,,sngl,resources/Empty.png,resources/DR.BMP,WildCard_NonEx,0.19112255,-0.031320996,1,0,0,1.0312,optionRight,45,4390,2,38,0,38,0,1,,,,,,,,,,,,,,,,,,,,,,,,,,,,,,,,,,,,,,,
,,,,,,,,2023-08-06_08h21.05.472,HF_wild_card,2022.2.4,Linux x86_64,59.97001499,5ef8bf948a48ac03adaad640,64ce5acb97489d65b14ecc7a,64cf495897335a97643bbcb8,,,,,,,sngl,resources/DP.BMP,resources/Empty.png,Door1,-0.449482141,-0.02326485,1,0,0,0.9614,optionLeft,30,4420,2,39,0,39,0,1,,,,,,,,,,,,,,,,,,,,,,,,,,,,,,,,,,,,,,,
,,,,,,,,2023-08-06_08h21.05.472,HF_wild_card,2022.2.4,Linux x86_64,59.97001499,5ef8bf948a48ac03adaad640,64ce5acb97489d65b14ecc7a,64cf495897335a97643bbcb8,,,,,,,sngl,resources/DR.BMP,resources/Empty.png,WildCard_NonEx,-0.383137562,0.01842527,1,0,0,0.9137,optionLeft,45,4465,2,40,0,40,0,1,,,,,,,,,,,,,,,,,,,,,,,,,,,,,,,,,,,,,,,
,,,,,,,,2023-08-06_08h21.05.472,HF_wild_card,2022.2.4,Linux x86_64,59.97001499,5ef8bf948a48ac03adaad640,64ce5acb97489d65b14ecc7a,64cf495897335a97643bbcb8,,,,,,,decisionTrl,resources/DBN.BMP,resources/DR.BMP,WildCard_NonEx,0.40993528,-0.003352801,1,0,0,1.2338,optionRight,45,4510,2,41,0,41,0,1,,,,,,,,,,,,,,,,,,,,,,,,,,,,,,,,,,,,,,,
,,,,,,,,2023-08-06_08h21.05.472,HF_wild_card,2022.2.4,Linux x86_64,59.97001499,5ef8bf948a48ac03adaad640,64ce5acb97489d65b14ecc7a,64cf495897335a97643bbcb8,,,,,,,decisionTrl,resources/DR.BMP,resources/DBN.BMP,WildCard_NonEx,-0.454181283,0.052937013,1,0,0,1.2669,optionLeft,55,4565,2,42,0,42,0,1,,,,,,,,,,,,,,,,,,,,,,,,,,,,,,,,,,,,,,,
,,,,,,,,2023-08-06_08h21.05.472,HF_wild_card,2022.2.4,Linux x86_64,59.97001499,5ef8bf948a48ac03adaad640,64ce5acb97489d65b14ecc7a,64cf495897335a97643bbcb8,,,,,,,sngl,resources/Empty.png,resources/DR.BMP,WildCard_NonEx,0.451449218,0.035656823,1,0,0,0.926,optionRight,55,4620,2,43,0,43,0,1,,,,,,,,,,,,,,,,,,,,,,,,,,,,,,,,,,,,,,,
,,,,,,,,2023-08-06_08h21.05.472,HF_wild_card,2022.2.4,Linux x86_64,59.97001499,5ef8bf948a48ac03adaad640,64ce5acb97489d65b14ecc7a,64cf495897335a97643bbcb8,,,,,,,,,,,,,,,,,,,,,,,,,,1,0,1,0,1,,,,,,,,,,,,,,,,,,,,,,,,,,,,,,,,,,
,,,,,,,,2023-08-06_08h21.05.472,HF_wild_card,2022.2.4,Linux x86_64,59.97001499,5ef8bf948a48ac03adaad640,64ce5acb97489d65b14ecc7a,64cf495897335a97643bbcb8,,,,,,,ctch,resources/DY.BMP,resources/DP.BMP,Door4,-0.326985783,-0.042882284,1,0,0,1.8509,optionLeft,60,4680,3,0,0,0,0,1,,,,,,,,,,,,,,,,,,,,,,,,,,,,,,,,,,,,,,,
,,,,,,,,2023-08-06_08h21.05.472,HF_wild_card,2022.2.4,Linux x86_64,59.97001499,5ef8bf948a48ac03adaad640,64ce5acb97489d65b14ecc7a,64cf495897335a97643bbcb8,,,,,,,decisionTrl,resources/DY.BMP,resources/DB.BMP,Door4,-0.418015127,0.00449721,1,0,0,0.928,optionLeft,80,4760,3,1,0,1,0,1,,,,,,,,,,,,,,,,,,,,,,,,,,,,,,,,,,,,,,,
,,,,,,,,2023-08-06_08h21.05.472,HF_wild_card,2022.2.4,Linux x86_64,59.97001499,5ef8bf948a48ac03adaad640,64ce5acb97489d65b14ecc7a,64cf495897335a97643bbcb8,,,,,,,decisionTrl,resources/DB.BMP,resources/DY.BMP,Door4,0.459744347,0.031376591,1,0,0,1.0107,optionRight,80,4840,3,2,0,2,0,1,,,,,,,,,,,,,,,,,,,,,,,,,,,,,,,,,,,,,,,
,,,,,,,,2023-08-06_08h21.05.472,HF_wild_card,2022.2.4,Linux x86_64,59.97001499,5ef8bf948a48ac03adaad640,64ce5acb97489d65b14ecc7a,64cf495897335a97643bbcb8,,,,,,,ctch,resources/DP.BMP,resources/DY.BMP,Door4,0.313409735,0.001855815,1,0,0,0.8498,optionRight,60,4900,3,3,0,3,0,1,,,,,,,,,,,,,,,,,,,,,,,,,,,,,,,,,,,,,,,
,,,,,,,,2023-08-06_08h21.05.472,HF_wild_card,2022.2.4,Linux x86_64,59.97001499,5ef8bf948a48ac03adaad640,64ce5acb97489d65b14ecc7a,64cf495897335a97643bbcb8,,,,,,,decisionTrl,resources/DP.BMP,resources/DBN.BMP,Door1,-0.2640022,0.000916022,1,0,0,1.1506,optionLeft,30,4930,3,4,0,4,0,1,,,,,,,,,,,,,,,,,,,,,,,,,,,,,,,,,,,,,,,
,,,,,,,,2023-08-06_08h21.05.472,HF_wild_card,2022.2.4,Linux x86_64,59.97001499,5ef8bf948a48ac03adaad640,64ce5acb97489d65b14ecc7a,64cf495897335a97643bbcb8,,,,,,,sngl,resources/Empty.png,resources/DB.BMP,Door3,0.55845303,-0.009817017,1,0,0,0.8663,optionRight,70,5000,3,5,0,5,0,1,,,,,,,,,,,,,,,,,,,,,,,,,,,,,,,,,,,,,,,
,,,,,,,,2023-08-06_08h21.05.472,HF_wild_card,2022.2.4,Linux x86_64,59.97001499,5ef8bf948a48ac03adaad640,64ce5acb97489d65b14ecc7a,64cf495897335a97643bbcb8,,,,,,,decisionTrl,resources/DY.BMP,resources/DR.BMP,Door4,-0.453902668,-0.022391602,1,0,0,0.8138,optionLeft,80,5080,3,6,0,6,0,1,,,,,,,,,,,,,,,,,,,,,,,,,,,,,,,,,,,,,,,
,,,,,,,,2023-08-06_08h21.05.472,HF_wild_card,2022.2.4,Linux x86_64,59.97001499,5ef8bf948a48ac03adaad640,64ce5acb97489d65b14ecc7a,64cf495897335a97643bbcb8,,,,,,,ctch,resources/DBN.BMP,resources/DB.BMP,Door3,0.400312494,-0.038809423,1,0,0,0.9623,optionRight,70,5150,3,7,0,7,0,1,,,,,,,,,,,,,,,,,,,,,,,,,,,,,,,,,,,,,,,
,,,,,,,,2023-08-06_08h21.05.472,HF_wild_card,2022.2.4,Linux x86_64,59.97001499,5ef8bf948a48ac03adaad640,64ce5acb97489d65b14ecc7a,64cf495897335a97643bbcb8,,,,,,,sngl,resources/DY.BMP,resources/Empty.png,Door4,-0.3603771,0.041817983,1,0,0,0.7789,optionLeft,80,5230,3,8,0,8,0,1,,,,,,,,,,,,,,,,,,,,,,,,,,,,,,,,,,,,,,,
,,,,,,,,2023-08-06_08h21.05.472,HF_wild_card,2022.2.4,Linux x86_64,59.97001499,5ef8bf948a48ac03adaad640,64ce5acb97489d65b14ecc7a,64cf495897335a97643bbcb8,,,,,,,decisionTrl,resources/DP.BMP,resources/DR.BMP,WildCard_NonEx,0.222106157,0.004911564,1,0,0,2.8447,optionRight,55,5285,3,9,0,9,0,1,,,,,,,,,,,,,,,,,,,,,,,,,,,,,,,,,,,,,,,
,,,,,,,,2023-08-06_08h21.05.472,HF_wild_card,2022.2.4,Linux x86_64,59.97001499,5ef8bf948a48ac03adaad640,64ce5acb97489d65b14ecc7a,64cf495897335a97643bbcb8,,,,,,,sngl,resources/DP.BMP,resources/Empty.png,Door1,-0.273350256,0.000884162,1,0,0,0.8817,optionLeft,30,5315,3,10,0,10,0,1,,,,,,,,,,,,,,,,,,,,,,,,,,,,,,,,,,,,,,,
,,,,,,,,2023-08-06_08h21.05.472,HF_wild_card,2022.2.4,Linux x86_64,59.97001499,5ef8bf948a48ac03adaad640,64ce5acb97489d65b14ecc7a,64cf495897335a97643bbcb8,,,,,,,decisionTrl,resources/DB.BMP,resources/DY.BMP,Door4,0.362910942,0.047841567,1,0,0,1.2545,optionRight,80,5395,3,11,0,11,0,1,,,,,,,,,,,,,,,,,,,,,,,,,,,,,,,,,,,,,,,
,,,,,,,,2023-08-06_08h21.05.472,HF_wild_card,2022.2.4,Linux x86_64,59.97001499,5ef8bf948a48ac03adaad640,64ce5acb97489d65b14ecc7a,64cf495897335a97643bbcb8,,,,,,,decisionTrl,resources/DBN.BMP,resources/DP.BMP,Door1,0.329015661,0.033388102,1,0,0,1.8185,optionRight,30,5425,3,12,0,12,0,1,,,,,,,,,,,,,,,,,,,,,,,,,,,,,,,,,,,,,,,
,,,,,,,,2023-08-06_08h21.05.472,HF_wild_card,2022.2.4,Linux x86_64,59.97001499,5ef8bf948a48ac03adaad640,64ce5acb97489d65b14ecc7a,64cf495897335a97643bbcb8,,,,,,,decisionTrl,resources/DR.BMP,resources/DP.BMP,WildCard_NonEx,-0.266751395,-0.003912007,1,0,0,1.0283,optionLeft,45,5470,3,13,0,13,0,1,,,,,,,,,,,,,,,,,,,,,,,,,,,,,,,,,,,,,,,
,,,,,,,,2023-08-06_08h21.05.472,HF_wild_card,2022.2.4,Linux x86_64,59.97001499,5ef8bf948a48ac03adaad640,64ce5acb97489d65b14ecc7a,64cf495897335a97643bbcb8,,,,,,,decisionTrl,resources/DY.BMP,resources/DB.BMP,Door3,0.242976436,-0.010341962,1,0,0,0.9372,optionRight,70,5540,3,14,0,14,0,1,,,,,,,,,,,,,,,,,,,,,,,,,,,,,,,,,,,,,,,
,,,,,,,,2023-08-06_08h21.05.472,HF_wild_card,2022.2.4,Linux x86_64,59.97001499,5ef8bf948a48ac03adaad640,64ce5acb97489d65b14ecc7a,64cf495897335a97643bbcb8,,,,,,,decisionTrl,resources/DP.BMP,resources/DBN.BMP,Door1,-0.325268428,0.004933004,1,0,0,1.047,optionLeft,30,5570,3,15,0,15,0,1,,,,,,,,,,,,,,,,,,,,,,,,,,,,,,,,,,,,,,,
,,,,,,,,2023-08-06_08h21.05.472,HF_wild_card,2022.2.4,Linux x86_64,59.97001499,5ef8bf948a48ac03adaad640,64ce5acb97489d65b14ecc7a,64cf495897335a97643bbcb8,,,,,,,sngl,resources/Empty.png,resources/DY.BMP,Door4,0.250383165,-0.007025048,1,0,0,0.8328,optionRight,60,5630,3,16,0,16,0,1,,,,,,,,,,,,,,,,,,,,,,,,,,,,,,,,,,,,,,,
,,,,,,,,2023-08-06_08h21.05.472,HF_wild_card,2022.2.4,Linux x86_64,59.97001499,5ef8bf948a48ac03adaad640,64ce5acb97489d65b14ecc7a,64cf495897335a97643bbcb8,,,,,,,sngl,resources/DR.BMP,resources/Empty.png,WildCard_NonEx,-0.347919888,-0.000746833,1,0,0,0.8738,optionLeft,45,5675,3,17,0,17,0,1,,,,,,,,,,,,,,,,,,,,,,,,,,,,,,,,,,,,,,,
,,,,,,,,2023-08-06_08h21.05.472,HF_wild_card,2022.2.4,Linux x86_64,59.97001499,5ef8bf948a48ac03adaad640,64ce5acb97489d65b14ecc7a,64cf495897335a97643bbcb8,,,,,,,sngl,resources/Empty.png,resources/DP.BMP,Door1,0.417672758,0.009970206,1,0,0,0.8801,optionRight,30,5705,3,18,0,18,0,1,,,,,,,,,,,,,,,,,,,,,,,,,,,,,,,,,,,,,,,
,,,,,,,,2023-08-06_08h21.05.472,HF_wild_card,2022.2.4,Linux x86_64,59.97001499,5ef8bf948a48ac03adaad640,64ce5acb97489d65b14ecc7a,64cf495897335a97643bbcb8,,,,,,,decisionTrl,resources/DBN.BMP,resources/DP.BMP,Door1,0.390481313,-0.033773987,1,0,0,0.9965,optionRight,30,5735,3,19,0,19,0,1,,,,,,,,,,,,,,,,,,,,,,,,,,,,,,,,,,,,,,,
,,,,,,,,2023-08-06_08h21.05.472,HF_wild_card,2022.2.4,Linux x86_64,59.97001499,5ef8bf948a48ac03adaad640,64ce5acb97489d65b14ecc7a,64cf495897335a97643bbcb8,,,,,,,decisionTrl,resources/DY.BMP,resources/DB.BMP,Door4,-0.387242176,-0.052774853,1,0,0,0.8236,optionLeft,80,5815,3,20,0,20,0,1,,,,,,,,,,,,,,,,,,,,,,,,,,,,,,,,,,,,,,,
,,,,,,,,2023-08-06_08h21.05.472,HF_wild_card,2022.2.4,Linux x86_64,59.97001499,5ef8bf948a48ac03adaad640,64ce5acb97489d65b14ecc7a,64cf495897335a97643bbcb8,,,,,,,decisionTrl,resources/DB.BMP,resources/DY.BMP,Door4,0.349665183,0.00991408,1,0,0,1.4672,optionRight,60,5875,3,21,0,21,0,1,,,,,,,,,,,,,,,,,,,,,,,,,,,,,,,,,,,,,,,
,,,,,,,,2023-08-06_08h21.05.472,HF_wild_card,2022.2.4,Linux x86_64,59.97001499,5ef8bf948a48ac03adaad640,64ce5acb97489d65b14ecc7a,64cf495897335a97643bbcb8,,,,,,,decisionTrl,resources/DB.BMP,resources/DY.BMP,Door4,0.170395109,-0.052292117,1,0,0,1.0258,optionRight,60,5935,3,22,0,22,0,1,,,,,,,,,,,,,,,,,,,,,,,,,,,,,,,,,,,,,,,
,,,,,,,,2023-08-06_08h21.05.472,HF_wild_card,2022.2.4,Linux x86_64,59.97001499,5ef8bf948a48ac03adaad640,64ce5acb97489d65b14ecc7a,64cf495897335a97643bbcb8,,,,,,,decisionTrl,resources/DB.BMP,resources/DR.BMP,Door3,-0.24352441,-0.011770425,1,0,0,1.0189,optionLeft,70,6005,3,23,0,23,0,1,,,,,,,,,,,,,,,,,,,,,,,,,,,,,,,,,,,,,,,
,,,,,,,,2023-08-06_08h21.05.472,HF_wild_card,2022.2.4,Linux x86_64,59.97001499,5ef8bf948a48ac03adaad640,64ce5acb97489d65b14ecc7a,64cf495897335a97643bbcb8,,,,,,,decisionTrl,resources/DP.BMP,resources/DBN.BMP,Door1,-0.325004189,-0.002583892,1,0,0,0.9539,optionLeft,30,6035,3,24,0,24,0,1,,,,,,,,,,,,,,,,,,,,,,,,,,,,,,,,,,,,,,,
,,,,,,,,2023-08-06_08h21.05.472,HF_wild_card,2022.2.4,Linux x86_64,59.97001499,5ef8bf948a48ac03adaad640,64ce5acb97489d65b14ecc7a,64cf495897335a97643bbcb8,,,,,,,sngl,resources/Empty.png,resources/DR.BMP,WildCard_NonEx,0.416567908,0.020349856,1,0,0,0.877,optionRight,55,6090,3,25,0,25,0,1,,,,,,,,,,,,,,,,,,,,,,,,,,,,,,,,,,,,,,,
,,,,,,,,2023-08-06_08h21.05.472,HF_wild_card,2022.2.4,Linux x86_64,59.97001499,5ef8bf948a48ac03adaad640,64ce5acb97489d65b14ecc7a,64cf495897335a97643bbcb8,,,,,,,sngl,resources/DR.BMP,resources/Empty.png,WildCard_NonEx,-0.468058586,-0.007015899,1,0,0,0.8951,optionLeft,55,6145,3,26,0,26,0,1,,,,,,,,,,,,,,,,,,,,,,,,,,,,,,,,,,,,,,,
,,,,,,,,2023-08-06_08h21.05.472,HF_wild_card,2022.2.4,Linux x86_64,59.97001499,5ef8bf948a48ac03adaad640,64ce5acb97489d65b14ecc7a,64cf495897335a97643bbcb8,,,,,,,sngl,resources/DB.BMP,resources/Empty.png,Door3,-0.301715356,-0.003405606,1,0,0,0.8661,optionLeft,70,6215,3,27,0,27,0,1,,,,,,,,,,,,,,,,,,,,,,,,,,,,,,,,,,,,,,,
,,,,,,,,2023-08-06_08h21.05.472,HF_wild_card,2022.2.4,Linux x86_64,59.97001499,5ef8bf948a48ac03adaad640,64ce5acb97489d65b14ecc7a,64cf495897335a97643bbcb8,,,,,,,sngl,resources/Empty.png,resources/DR.BMP,WildCard_NonEx,0.399690275,0.005263894,1,0,0,0.9475,optionRight,45,6260,3,28,0,28,0,1,,,,,,,,,,,,,,,,,,,,,,,,,,,,,,,,,,,,,,,
,,,,,,,,2023-08-06_08h21.05.472,HF_wild_card,2022.2.4,Linux x86_64,59.97001499,5ef8bf948a48ac03adaad640,64ce5acb97489d65b14ecc7a,64cf495897335a97643bbcb8,,,,,,,ctch,resources/DB.BMP,resources/DBN.BMP,Door3,-0.368696531,0.005953647,1,0,0,0.8959,optionLeft,70,6330,3,29,0,29,0,1,,,,,,,,,,,,,,,,,,,,,,,,,,,,,,,,,,,,,,,
,,,,,,,,2023-08-06_08h21.05.472,HF_wild_card,2022.2.4,Linux x86_64,59.97001499,5ef8bf948a48ac03adaad640,64ce5acb97489d65b14ecc7a,64cf495897335a97643bbcb8,,,,,,,decisionTrl,resources/DR.BMP,resources/DB.BMP,WildCard_NonEx,-0.295547556,0.00132264,1,0,0,1.2137,optionLeft,45,6375,3,30,0,30,0,1,,,,,,,,,,,,,,,,,,,,,,,,,,,,,,,,,,,,,,,
,,,,,,,,2023-08-06_08h21.05.472,HF_wild_card,2022.2.4,Linux x86_64,59.97001499,5ef8bf948a48ac03adaad640,64ce5acb97489d65b14ecc7a,64cf495897335a97643bbcb8,,,,,,,sngl,resources/DBN.BMP,resources/Empty.png,Door2,-0.477377468,0.043078564,1,0,0,1.1099,optionLeft,40,6415,3,31,0,31,0,1,,,,,,,,,,,,,,,,,,,,,,,,,,,,,,,,,,,,,,,
,,,,,,,,2023-08-06_08h21.05.472,HF_wild_card,2022.2.4,Linux x86_64,59.97001499,5ef8bf948a48ac03adaad640,64ce5acb97489d65b14ecc7a,64cf495897335a97643bbcb8,,,,,,,decisionTrl,resources/DBN.BMP,resources/DP.BMP,Door2,-0.412413738,0.103010072,1,0,0,2.0141,optionLeft,20,6435,3,32,0,32,0,1,,,,,,,,,,,,,,,,,,,,,,,,,,,,,,,,,,,,,,,
,,,,,,,,2023-08-06_08h21.05.472,HF_wild_card,2022.2.4,Linux x86_64,59.97001499,5ef8bf948a48ac03adaad640,64ce5acb97489d65b14ecc7a,64cf495897335a97643bbcb8,,,,,,,decisionTrl,resources/DP.BMP,resources/DBN.BMP,Door1,-0.36690002,-0.005594995,1,0,0,1.1479,optionLeft,30,6465,3,33,0,33,0,1,,,,,,,,,,,,,,,,,,,,,,,,,,,,,,,,,,,,,,,
,,,,,,,,2023-08-06_08h21.05.472,HF_wild_card,2022.2.4,Linux x86_64,59.97001499,5ef8bf948a48ac03adaad640,64ce5acb97489d65b14ecc7a,64cf495897335a97643bbcb8,,,,,,,decisionTrl,resources/DR.BMP,resources/DBN.BMP,WildCard_NonEx,-0.490751902,0.060097235,1,0,0,1.0641,optionLeft,45,6510,3,34,0,34,0,1,,,,,,,,,,,,,,,,,,,,,,,,,,,,,,,,,,,,,,,
,,,,,,,,2023-08-06_08h21.05.472,HF_wild_card,2022.2.4,Linux x86_64,59.97001499,5ef8bf948a48ac03adaad640,64ce5acb97489d65b14ecc7a,64cf495897335a97643bbcb8,,,,,,,decisionTrl,resources/DBN.BMP,resources/DR.BMP,WildCard_NonEx,0.471103244,0.026284536,1,0,0,0.9653,optionRight,55,6565,3,35,0,35,0,1,,,,,,,,,,,,,,,,,,,,,,,,,,,,,,,,,,,,,,,
,,,,,,,,2023-08-06_08h21.05.472,HF_wild_card,2022.2.4,Linux x86_64,59.97001499,5ef8bf948a48ac03adaad640,64ce5acb97489d65b14ecc7a,64cf495897335a97643bbcb8,,,,,,,ctch,resources/DB.BMP,resources/DBN.BMP,Door3,-0.409277739,0.002485982,1,0,0,0.813,optionLeft,70,6635,3,36,0,36,0,1,,,,,,,,,,,,,,,,,,,,,,,,,,,,,,,,,,,,,,,
,,,,,,,,2023-08-06_08h21.05.472,HF_wild_card,2022.2.4,Linux x86_64,59.97001499,5ef8bf948a48ac03adaad640,64ce5acb97489d65b14ecc7a,64cf495897335a97643bbcb8,,,,,,,ctch,resources/DBN.BMP,resources/DB.BMP,Door3,0.521994414,0.120036973,1,0,0,1.0548,optionRight,70,6705,3,37,0,37,0,1,,,,,,,,,,,,,,,,,,,,,,,,,,,,,,,,,,,,,,,
,,,,,,,,2023-08-06_08h21.05.472,HF_wild_card,2022.2.4,Linux x86_64,59.97001499,5ef8bf948a48ac03adaad640,64ce5acb97489d65b14ecc7a,64cf495897335a97643bbcb8,,,,,,,decisionTrl,resources/DBN.BMP,resources/DP.BMP,Door1,0.274868011,-0.035598084,1,0,0,1.4649,optionRight,30,6735,3,38,0,38,0,1,,,,,,,,,,,,,,,,,,,,,,,,,,,,,,,,,,,,,,,
,,,,,,,,2023-08-06_08h21.05.472,HF_wild_card,2022.2.4,Linux x86_64,59.97001499,5ef8bf948a48ac03adaad640,64ce5acb97489d65b14ecc7a,64cf495897335a97643bbcb8,,,,,,,ctch,resources/DP.BMP,resources/DY.BMP,Door1,-0.348262752,-0.010939139,1,0,0,1.0612,optionLeft,30,6765,3,39,0,39,0,1,,,,,,,,,,,,,,,,,,,,,,,,,,,,,,,,,,,,,,,
,,,,,,,,2023-08-06_08h21.05.472,HF_wild_card,2022.2.4,Linux x86_64,59.97001499,5ef8bf948a48ac03adaad640,64ce5acb97489d65b14ecc7a,64cf495897335a97643bbcb8,,,,,,,sngl,resources/Empty.png,resources/DBN.BMP,Door2,0.272951055,0.01113828,1,0,0,0.9732,optionRight,20,6785,3,40,0,40,0,1,,,,,,,,,,,,,,,,,,,,,,,,,,,,,,,,,,,,,,,
,,,,,,,,2023-08-06_08h21.05.472,HF_wild_card,2022.2.4,Linux x86_64,59.97001499,5ef8bf948a48ac03adaad640,64ce5acb97489d65b14ecc7a,64cf495897335a97643bbcb8,,,,,,,decisionTrl,resources/DR.BMP,resources/DY.BMP,Door4,0.564541569,0.007813807,1,0,0,1.1343,optionRight,80,6865,3,41,0,41,0,1,,,,,,,,,,,,,,,,,,,,,,,,,,,,,,,,,,,,,,,
,,,,,,,,2023-08-06_08h21.05.472,HF_wild_card,2022.2.4,Linux x86_64,59.97001499,5ef8bf948a48ac03adaad640,64ce5acb97489d65b14ecc7a,64cf495897335a97643bbcb8,,,,,,,decisionTrl,resources/DY.BMP,resources/DB.BMP,Door4,-0.350301566,-0.015298137,1,0,0,0.8569,optionLeft,60,6925,3,42,0,42,0,1,,,,,,,,,,,,,,,,,,,,,,,,,,,,,,,,,,,,,,,
,,,,,,,,2023-08-06_08h21.05.472,HF_wild_card,2022.2.4,Linux x86_64,59.97001499,5ef8bf948a48ac03adaad640,64ce5acb97489d65b14ecc7a,64cf495897335a97643bbcb8,,,,,,,ctch,resources/DY.BMP,resources/DP.BMP,Door4,-0.412652581,0.015691898,1,0,0,0.8642,optionLeft,60,6985,3,43,0,43,0,1,,,,,,,,,,,,,,,,,,,,,,,,,,,,,,,,,,,,,,,
,,,,,,,,2023-08-06_08h21.05.472,HF_wild_card,2022.2.4,Linux x86_64,59.97001499,5ef8bf948a48ac03adaad640,64ce5acb97489d65b14ecc7a,64cf495897335a97643bbcb8,,,,,,,,,,,,,,,,,,,,,,,,,,2,0,2,0,1,,,,,,,,,,,,,,,,,,,,,,,,,,,,,,,,,,
,,,,,,,,2023-08-06_08h21.05.472,HF_wild_card,2022.2.4,Linux x86_64,59.97001499,5ef8bf948a48ac03adaad640,64ce5acb97489d65b14ecc7a,64cf495897335a97643bbcb8,,,,,,,decisionTrl,resources/DY.BMP,resources/DB.BMP,Door4,-0.321379873,-0.082068655,1,0,0,1.3655,optionLeft,60,7045,4,0,0,0,0,1,,,,,,,,,,,,,,,,,,,,,,,,,,,,,,,,,,,,,,,
,,,,,,,,2023-08-06_08h21.05.472,HF_wild_card,2022.2.4,Linux x86_64,59.97001499,5ef8bf948a48ac03adaad640,64ce5acb97489d65b14ecc7a,64cf495897335a97643bbcb8,,,,,,,decisionTrl,resources/DBN.BMP,resources/DP.BMP,Door1,0.264660871,0.014557344,1,0,0,1.0601,optionRight,30,7075,4,1,0,1,0,1,,,,,,,,,,,,,,,,,,,,,,,,,,,,,,,,,,,,,,,
,,,,,,,,2023-08-06_08h21.05.472,HF_wild_card,2022.2.4,Linux x86_64,59.97001499,5ef8bf948a48ac03adaad640,64ce5acb97489d65b14ecc7a,64cf495897335a97643bbcb8,,,,,,,ctch,resources/DY.BMP,resources/DP.BMP,Door4,-0.225079572,-0.029334633,1,0,0,1.4133,optionLeft,60,7135,4,2,0,2,0,1,,,,,,,,,,,,,,,,,,,,,,,,,,,,,,,,,,,,,,,
,,,,,,,,2023-08-06_08h21.05.472,HF_wild_card,2022.2.4,Linux x86_64,59.97001499,5ef8bf948a48ac03adaad640,64ce5acb97489d65b14ecc7a,64cf495897335a97643bbcb8,,,,,,,sngl,resources/DG.BMP,resources/Empty.png,WildCard_Ex,-0.265338262,-0.021521922,1,0,0,1.1009,optionLeft,45,7180,4,3,0,3,0,1,,,,,,,,,,,,,,,,,,,,,,,,,,,,,,,,,,,,,,,
,,,,,,,,2023-08-06_08h21.05.472,HF_wild_card,2022.2.4,Linux x86_64,59.97001499,5ef8bf948a48ac03adaad640,64ce5acb97489d65b14ecc7a,64cf495897335a97643bbcb8,,,,,,,decisionTrl,resources/DB.BMP,resources/DY.BMP,Door4,0.338809684,0.062004125,1,0,0,1.0802,optionRight,60,7240,4,4,0,4,0,1,,,,,,,,,,,,,,,,,,,,,,,,,,,,,,,,,,,,,,,
,,,,,,,,2023-08-06_08h21.05.472,HF_wild_card,2022.2.4,Linux x86_64,59.97001499,5ef8bf948a48ac03adaad640,64ce5acb97489d65b14ecc7a,64cf495897335a97643bbcb8,,,,,,,decisionTrl,resources/DBN.BMP,resources/DP.BMP,Door1,0.396986643,-0.004228345,1,0,0,1.1172,optionRight,30,7270,4,5,0,5,0,1,,,,,,,,,,,,,,,,,,,,,,,,,,,,,,,,,,,,,,,
,,,,,,,,2023-08-06_08h21.05.472,HF_wild_card,2022.2.4,Linux x86_64,59.97001499,5ef8bf948a48ac03adaad640,64ce5acb97489d65b14ecc7a,64cf495897335a97643bbcb8,,,,,,,decisionTrl,resources/DP.BMP,resources/DBN.BMP,Door1,-0.325204002,-0.037134983,1,0,0,1.1298,optionLeft,30,7300,4,6,0,6,0,1,,,,,,,,,,,,,,,,,,,,,,,,,,,,,,,,,,,,,,,
,,,,,,,,2023-08-06_08h21.05.472,HF_wild_card,2022.2.4,Linux x86_64,59.97001499,5ef8bf948a48ac03adaad640,64ce5acb97489d65b14ecc7a,64cf495897335a97643bbcb8,,,,,,,decisionTrl,resources/DY.BMP,resources/DB.BMP,Door4,-0.368780171,0.028419106,1,0,0,1.1531,optionLeft,60,7360,4,7,0,7,0,1,,,,,,,,,,,,,,,,,,,,,,,,,,,,,,,,,,,,,,,
,,,,,,,,2023-08-06_08h21.05.472,HF_wild_card,2022.2.4,Linux x86_64,59.97001499,5ef8bf948a48ac03adaad640,64ce5acb97489d65b14ecc7a,64cf495897335a97643bbcb8,,,,,,,sngl,resources/Empty.png,resources/DG.BMP,WildCard_Ex,0.359311563,-0.050795484,1,0,0,1.1901,optionRight,45,7405,4,8,0,8,0,1,,,,,,,,,,,,,,,,,,,,,,,,,,,,,,,,,,,,,,,
,,,,,,,,2023-08-06_08h21.05.472,HF_wild_card,2022.2.4,Linux x86_64,59.97001499,5ef8bf948a48ac03adaad640,64ce5acb97489d65b14ecc7a,64cf495897335a97643bbcb8,,,,,,,sngl,resources/DBN.BMP,resources/Empty.png,Door2,-0.462082368,0.035598048,1,0,0,1.0388,optionLeft,20,7425,4,9,0,9,0,1,,,,,,,,,,,,,,,,,,,,,,,,,,,,,,,,,,,,,,,
,,,,,,,,2023-08-06_08h21.05.472,HF_wild_card,2022.2.4,Linux x86_64,59.97001499,5ef8bf948a48ac03adaad640,64ce5acb97489d65b14ecc7a,64cf495897335a97643bbcb8,,,,,,,decisionTrl,resources/DY.BMP,resources/DB.BMP,Door4,-0.299007557,-0.009128782,1,0,0,1.1806,optionLeft,80,7505,4,10,0,10,0,1,,,,,,,,,,,,,,,,,,,,,,,,,,,,,,,,,,,,,,,
,,,,,,,,2023-08-06_08h21.05.472,HF_wild_card,2022.2.4,Linux x86_64,59.97001499,5ef8bf948a48ac03adaad640,64ce5acb97489d65b14ecc7a,64cf495897335a97643bbcb8,,,,,,,decisionTrl,resources/DBN.BMP,resources/DP.BMP,Door1,0.339734254,0.025551973,1,0,0,1.2419,optionRight,30,7535,4,11,0,11,0,1,,,,,,,,,,,,,,,,,,,,,,,,,,,,,,,,,,,,,,,
,,,,,,,,2023-08-06_08h21.05.472,HF_wild_card,2022.2.4,Linux x86_64,59.97001499,5ef8bf948a48ac03adaad640,64ce5acb97489d65b14ecc7a,64cf495897335a97643bbcb8,,,,,,,decisionTrl,resources/DP.BMP,resources/DBN.BMP,Door1,-0.311526369,-0.039438283,1,0,0,1.0569,optionLeft,30,7565,4,12,0,12,0,1,,,,,,,,,,,,,,,,,,,,,,,,,,,,,,,,,,,,,,,
,,,,,,,,2023-08-06_08h21.05.472,HF_wild_card,2022.2.4,Linux x86_64,59.97001499,5ef8bf948a48ac03adaad640,64ce5acb97489d65b14ecc7a,64cf495897335a97643bbcb8,,,,,,,sngl,resources/Empty.png,resources/DG.BMP,WildCard_Ex,0.364420149,0.022111222,1,0,0,0.8637,optionRight,55,7620,4,13,0,13,0,1,,,,,,,,,,,,,,,,,,,,,,,,,,,,,,,,,,,,,,,
,,,,,,,,2023-08-06_08h21.05.472,HF_wild_card,2022.2.4,Linux x86_64,59.97001499,5ef8bf948a48ac03adaad640,64ce5acb97489d65b14ecc7a,64cf495897335a97643bbcb8,,,,,,,ctch,resources/DB.BMP,resources/DBN.BMP,Door3,-0.373649632,-0.023531702,1,0,0,1.08,optionLeft,70,7690,4,14,0,14,0,1,,,,,,,,,,,,,,,,,,,,,,,,,,,,,,,,,,,,,,,
,,,,,,,,2023-08-06_08h21.05.472,HF_wild_card,2022.2.4,Linux x86_64,59.97001499,5ef8bf948a48ac03adaad640,64ce5acb97489d65b14ecc7a,64cf495897335a97643bbcb8,,,,,,,decisionTrl,resources/DB.BMP,resources/DY.BMP,Door4,0.236688261,-0.019356445,1,0,0,1.232,optionRight,60,7750,4,15,0,15,0,1,,,,,,,,,,,,,,,,,,,,,,,,,,,,,,,,,,,,,,,
,,,,,,,,2023-08-06_08h21.05.472,HF_wild_card,2022.2.4,Linux x86_64,59.97001499,5ef8bf948a48ac03adaad640,64ce5acb97489d65b14ecc7a,64cf495897335a97643bbcb8,,,,,,,decisionTrl,resources/DY.BMP,resources/DG.BMP,Door4,-0.252349076,0.013933005,1,0,0,2.1683,optionLeft,80,7830,4,16,0,16,0,1,,,,,,,,,,,,,,,,,,,,,,,,,,,,,,,,,,,,,,,
,,,,,,,,2023-08-06_08h21.05.472,HF_wild_card,2022.2.4,Linux x86_64,59.97001499,5ef8bf948a48ac03adaad640,64ce5acb97489d65b14ecc7a,64cf495897335a97643bbcb8,,,,,,,sngl,resources/DG.BMP,resources/Empty.png,WildCard_Ex,-0.24272184,-0.020205851,1,0,0,1.4167,optionLeft,55,7885,4,17,0,17,0,1,,,,,,,,,,,,,,,,,,,,,,,,,,,,,,,,,,,,,,,
,,,,,,,,2023-08-06_08h21.05.472,HF_wild_card,2022.2.4,Linux x86_64,59.97001499,5ef8bf948a48ac03adaad640,64ce5acb97489d65b14ecc7a,64cf495897335a97643bbcb8,,,,,,,sngl,resources/DB.BMP,resources/Empty.png,Door3,-0.367182131,-0.020381186,1,0,0,1.2356,optionLeft,70,7955,4,18,0,18,0,1,,,,,,,,,,,,,,,,,,,,,,,,,,,,,,,,,,,,,,,
,,,,,,,,2023-08-06_08h21.05.472,HF_wild_card,2022.2.4,Linux x86_64,59.97001499,5ef8bf948a48ac03adaad640,64ce5acb97489d65b14ecc7a,64cf495897335a97643bbcb8,,,,,,,sngl,resources/Empty.png,resources/DP.BMP,Door1,0.349199366,-0.045160894,1,0,0,1.3575,optionRight,30,7985,4,19,0,19,0,1,,,,,,,,,,,,,,,,,,,,,,,,,,,,,,,,,,,,,,,
,,,,,,,,2023-08-06_08h21.05.472,HF_wild_card,2022.2.4,Linux x86_64,59.97001499,5ef8bf948a48ac03adaad640,64ce5acb97489d65b14ecc7a,64cf495897335a97643bbcb8,,,,,,,decisionTrl,resources/DG.BMP,resources/DBN.BMP,WildCard_Ex,-0.394095138,-0.033154911,1,0,0,1.1703,optionLeft,55,8040,4,20,0,20,0,1,,,,,,,,,,,,,,,,,,,,,,,,,,,,,,,,,,,,,,,
,,,,,,,,2023-08-06_08h21.05.472,HF_wild_card,2022.2.4,Linux x86_64,59.97001499,5ef8bf948a48ac03adaad640,64ce5acb97489d65b14ecc7a,64cf495897335a97643bbcb8,,,,,,,decisionTrl,resources/DBN.BMP,resources/DP.BMP,Door1,0.408201147,-0.04281323,1,0,0,2.0951,optionRight,30,8070,4,21,0,21,0,1,,,,,,,,,,,,,,,,,,,,,,,,,,,,,,,,,,,,,,,
,,,,,,,,2023-08-06_08h21.05.472,HF_wild_card,2022.2.4,Linux x86_64,59.97001499,5ef8bf948a48ac03adaad640,64ce5acb97489d65b14ecc7a,64cf495897335a97643bbcb8,,,,,,,sngl,resources/DY.BMP,resources/Empty.png,Door4,-0.232851735,0.011898288,1,0,0,0.9113,optionLeft,60,8130,4,22,0,22,0,1,,,,,,,,,,,,,,,,,,,,,,,,,,,,,,,,,,,,,,,
,,,,,,,,2023-08-06_08h21.05.472,HF_wild_card,2022.2.4,Linux x86_64,59.97001499,5ef8bf948a48ac03adaad640,64ce5acb97489d65b14ecc7a,64cf495897335a97643bbcb8,,,,,,,decisionTrl,resources/DP.BMP,resources/DG.BMP,WildCard_Ex,0.47976515,-0.005391403,1,0,0,1.6804,optionRight,45,8175,4,23,0,23,0,1,,,,,,,,,,,,,,,,,,,,,,,,,,,,,,,,,,,,,,,
,,,,,,,,2023-08-06_08h21.05.472,HF_wild_card,2022.2.4,Linux x86_64,59.97001499,5ef8bf948a48ac03adaad640,64ce5acb97489d65b14ecc7a,64cf495897335a97643bbcb8,,,,,,,decisionTrl,resources/DB.BMP,resources/DG.BMP,Door3,-0.321322441,-0.023754508,1,0,0,0.8619,optionLeft,70,8245,4,24,0,24,0,1,,,,,,,,,,,,,,,,,,,,,,,,,,,,,,,,,,,,,,,
,,,,,,,,2023-08-06_08h21.05.472,HF_wild_card,2022.2.4,Linux x86_64,59.97001499,5ef8bf948a48ac03adaad640,64ce5acb97489d65b14ecc7a,64cf495897335a97643bbcb8,,,,,,,decisionTrl,resources/DG.BMP,resources/DB.BMP,Door3,0.394009767,-0.017441891,1,0,0,1.0968,optionRight,70,8315,4,25,0,25,0,1,,,,,,,,,,,,,,,,,,,,,,,,,,,,,,,,,,,,,,,
,,,,,,,,2023-08-06_08h21.05.472,HF_wild_card,2022.2.4,Linux x86_64,59.97001499,5ef8bf948a48ac03adaad640,64ce5acb97489d65b14ecc7a,64cf495897335a97643bbcb8,,,,,,,decisionTrl,resources/DBN.BMP,resources/DG.BMP,WildCard_Ex,0.423220175,0.016977275,1,0,0,1.7995,optionRight,55,8370,4,26,0,26,0,1,,,,,,,,,,,,,,,,,,,,,,,,,,,,,,,,,,,,,,,
,,,,,,,,2023-08-06_08h21.05.472,HF_wild_card,2022.2.4,Linux x86_64,59.97001499,5ef8bf948a48ac03adaad640,64ce5acb97489d65b14ecc7a,64cf495897335a97643bbcb8,,,,,,,sngl,resources/DP.BMP,resources/Empty.png,Door1,-0.460243684,0.002202811,1,0,0,0.9151,optionLeft,30,8400,4,27,0,27,0,1,,,,,,,,,,,,,,,,,,,,,,,,,,,,,,,,,,,,,,,
,,,,,,,,2023-08-06_08h21.05.472,HF_wild_card,2022.2.4,Linux x86_64,59.97001499,5ef8bf948a48ac03adaad640,64ce5acb97489d65b14ecc7a,64cf495897335a97643bbcb8,,,,,,,decisionTrl,resources/DY.BMP,resources/DB.BMP,Door4,-0.228258345,0.00895864,1,0,0,1.6525,optionLeft,80,8480,4,28,0,28,0,1,,,,,,,,,,,,,,,,,,,,,,,,,,,,,,,,,,,,,,,
,,,,,,,,2023-08-06_08h21.05.472,HF_wild_card,2022.2.4,Linux x86_64,59.97001499,5ef8bf948a48ac03adaad640,64ce5acb97489d65b14ecc7a,64cf495897335a97643bbcb8,,,,,,,ctch,resources/DP.BMP,resources/DY.BMP,Door4,0.239663583,-0.014232318,1,0,0,1.0496,optionRight,60,8540,4,29,0,29,0,1,,,,,,,,,,,,,,,,,,,,,,,,,,,,,,,,,,,,,,,
,,,,,,,,2023-08-06_08h21.05.472,HF_wild_card,2022.2.4,Linux x86_64,59.97001499,5ef8bf948a48ac03adaad640,64ce5acb97489d65b14ecc7a,64cf495897335a97643bbcb8,,,,,,,ctch,resources/DP.BMP,resources/DY.BMP,Door4,0.393269433,0.024106803,1,0,0,1.0761,optionRight,80,8620,4,30,0,30,0,1,,,,,,,,,,,,,,,,,,,,,,,,,,,,,,,,,,,,,,,
,,,,,,,,2023-08-06_08h21.05.472,HF_wild_card,2022.2.4,Linux x86_64,59.97001499,5ef8bf948a48ac03adaad640,64ce5acb97489d65b14ecc7a,64cf495897335a97643bbcb8,,,,,,,decisionTrl,resources/DP.BMP,resources/DBN.BMP,Door1,-0.315454377,-0.007273321,1,0,0,0.896,optionLeft,30,8650,4,31,0,31,0,1,,,,,,,,,,,,,,,,,,,,,,,,,,,,,,,,,,,,,,,
,,,,,,,,2023-08-06_08h21.05.472,HF_wild_card,2022.2.4,Linux x86_64,59.97001499,5ef8bf948a48ac03adaad640,64ce5acb97489d65b14ecc7a,64cf495897335a97643bbcb8,,,,,,,ctch,resources/DY.BMP,resources/DP.BMP,Door4,-0.415508306,-0.020688905,1,0,0,0.9025,optionLeft,60,8710,4,32,0,32,0,1,,,,,,,,,,,,,,,,,,,,,,,,,,,,,,,,,,,,,,,
,,,,,,,,2023-08-06_08h21.05.472,HF_wild_card,2022.2.4,Linux x86_64,59.97001499,5ef8bf948a48ac03adaad640,64ce5acb97489d65b14ecc7a,64cf495897335a97643bbcb8,,,,,,,ctch,resources/DBN.BMP,resources/DB.BMP,Door3,0.368114613,0.069382879,1,0,0,0.979,optionRight,70,8780,4,33,0,33,0,1,,,,,,,,,,,,,,,,,,,,,,,,,,,,,,,,,,,,,,,
,,,,,,,,2023-08-06_08h21.05.472,HF_wild_card,2022.2.4,Linux x86_64,59.97001499,5ef8bf948a48ac03adaad640,64ce5acb97489d65b14ecc7a,64cf495897335a97643bbcb8,,,,,,,decisionTrl,resources/DG.BMP,resources/DY.BMP,Door4,0.183058209,-0.010072496,1,0,0,1.0251,optionRight,80,8860,4,34,0,34,0,1,,,,,,,,,,,,,,,,,,,,,,,,,,,,,,,,,,,,,,,
,,,,,,,,2023-08-06_08h21.05.472,HF_wild_card,2022.2.4,Linux x86_64,59.97001499,5ef8bf948a48ac03adaad640,64ce5acb97489d65b14ecc7a,64cf495897335a97643bbcb8,,,,,,,ctch,resources/DB.BMP,resources/DBN.BMP,Door3,-0.265795743,-0.002553975,1,0,0,1.047,optionLeft,70,8930,4,35,0,35,0,1,,,,,,,,,,,,,,,,,,,,,,,,,,,,,,,,,,,,,,,
,,,,,,,,2023-08-06_08h21.05.472,HF_wild_card,2022.2.4,Linux x86_64,59.97001499,5ef8bf948a48ac03adaad640,64ce5acb97489d65b14ecc7a,64cf495897335a97643bbcb8,,,,,,,sngl,resources/Empty.png,resources/DY.BMP,Door4,0.430183269,-0.004166391,1,0,0,0.9146,optionRight,80,9010,4,36,0,36,0,1,,,,,,,,,,,,,,,,,,,,,,,,,,,,,,,,,,,,,,,
,,,,,,,,2023-08-06_08h21.05.472,HF_wild_card,2022.2.4,Linux x86_64,59.97001499,5ef8bf948a48ac03adaad640,64ce5acb97489d65b14ecc7a,64cf495897335a97643bbcb8,,,,,,,decisionTrl,resources/DB.BMP,resources/DY.BMP,Door4,0.263630832,-0.009775197,1,0,0,1.0979,optionRight,80,9090,4,37,0,37,0,1,,,,,,,,,,,,,,,,,,,,,,,,,,,,,,,,,,,,,,,
,,,,,,,,2023-08-06_08h21.05.472,HF_wild_card,2022.2.4,Linux x86_64,59.97001499,5ef8bf948a48ac03adaad640,64ce5acb97489d65b14ecc7a,64cf495897335a97643bbcb8,,,,,,,ctch,resources/DBN.BMP,resources/DB.BMP,Door3,0.354587555,0.005056699,1,0,0,1.0649,optionRight,70,9160,4,38,0,38,0,1,,,,,,,,,,,,,,,,,,,,,,,,,,,,,,,,,,,,,,,
,,,,,,,,2023-08-06_08h21.05.472,HF_wild_card,2022.2.4,Linux x86_64,59.97001499,5ef8bf948a48ac03adaad640,64ce5acb97489d65b14ecc7a,64cf495897335a97643bbcb8,,,,,,,decisionTrl,resources/DP.BMP,resources/DBN.BMP,Door1,-0.403316251,0.011587108,1,0,0,0.9123,optionLeft,30,9190,4,39,0,39,0,1,,,,,,,,,,,,,,,,,,,,,,,,,,,,,,,,,,,,,,,
,,,,,,,,2023-08-06_08h21.05.472,HF_wild_card,2022.2.4,Linux x86_64,59.97001499,5ef8bf948a48ac03adaad640,64ce5acb97489d65b14ecc7a,64cf495897335a97643bbcb8,,,,,,,sngl,resources/Empty.png,resources/DBN.BMP,Door2,0.263428229,0.006080557,1,0,0,1.0774,optionRight,40,9230,4,40,0,40,0,1,,,,,,,,,,,,,,,,,,,,,,,,,,,,,,,,,,,,,,,
,,,,,,,,2023-08-06_08h21.05.472,HF_wild_card,2022.2.4,Linux x86_64,59.97001499,5ef8bf948a48ac03adaad640,64ce5acb97489d65b14ecc7a,64cf495897335a97643bbcb8,,,,,,,decisionTrl,resources/DB.BMP,resources/DY.BMP,Door4,0.411835706,-0.019354714,1,0,0,1.5263,optionRight,60,9290,4,41,0,41,0,1,,,,,,,,,,,,,,,,,,,,,,,,,,,,,,,,,,,,,,,
,,,,,,,,2023-08-06_08h21.05.472,HF_wild_card,2022.2.4,Linux x86_64,59.97001499,5ef8bf948a48ac03adaad640,64ce5acb97489d65b14ecc7a,64cf495897335a97643bbcb8,,,,,,,sngl,resources/Empty.png,resources/DB.BMP,Door3,0.197009758,0.00129788,1,0,0,1.0374,optionRight,70,9360,4,42,0,42,0,1,,,,,,,,,,,,,,,,,,,,,,,,,,,,,,,,,,,,,,,
,,,,,,,,2023-08-06_08h21.05.472,HF_wild_card,2022.2.4,Linux x86_64,59.97001499,5ef8bf948a48ac03adaad640,64ce5acb97489d65b14ecc7a,64cf495897335a97643bbcb8,,,,,,,decisionTrl,resources/DG.BMP,resources/DP.BMP,WildCard_Ex,-0.203733162,0.020580539,1,0,0,2.7613,optionLeft,55,9415,4,43,0,43,0,1,,,,,,,,,,,,,,,,,,,,,,,,,,,,,,,,,,,,,,,
,,,,,,,,2023-08-06_08h21.05.472,HF_wild_card,2022.2.4,Linux x86_64,59.97001499,5ef8bf948a48ac03adaad640,64ce5acb97489d65b14ecc7a,64cf495897335a97643bbcb8,,,,,,,,,,,,,,,,,,,,,,,,,,3,0,3,0,1,,,,,,,,,,,,,,,,,,,,,,,,,,,,,,,,,,
,,,,,,,,2023-08-06_08h21.05.472,HF_wild_card,2022.2.4,Linux x86_64,59.97001499,5ef8bf948a48ac03adaad640,64ce5acb97489d65b14ecc7a,64cf495897335a97643bbcb8,,,,,,,decisionTrl,resources/DY.BMP,resources/DB.BMP,Door4,-0.27010077,-0.086965843,1,0,0,1.9324,optionLeft,80,9495,5,0,0,0,0,1,,,,,,,,,,,,,,,,,,,,,,,,,,,,,,,,,,,,,,,
,,,,,,,,2023-08-06_08h21.05.472,HF_wild_card,2022.2.4,Linux x86_64,59.97001499,5ef8bf948a48ac03adaad640,64ce5acb97489d65b14ecc7a,64cf495897335a97643bbcb8,,,,,,,decisionTrl,resources/DP.BMP,resources/DBN.BMP,Door1,-0.333361131,-0.017819511,1,0,0,1.7282,optionLeft,30,9525,5,1,0,1,0,1,,,,,,,,,,,,,,,,,,,,,,,,,,,,,,,,,,,,,,,
,,,,,,,,2023-08-06_08h21.05.472,HF_wild_card,2022.2.4,Linux x86_64,59.97001499,5ef8bf948a48ac03adaad640,64ce5acb97489d65b14ecc7a,64cf495897335a97643bbcb8,,,,,,,sngl,resources/DBN.BMP,resources/Empty.png,Door2,-0.176142092,0.007348449,1,0,0,0.8653,optionLeft,40,9565,5,2,0,2,0,1,,,,,,,,,,,,,,,,,,,,,,,,,,,,,,,,,,,,,,,
,,,,,,,,2023-08-06_08h21.05.472,HF_wild_card,2022.2.4,Linux x86_64,59.97001499,5ef8bf948a48ac03adaad640,64ce5acb97489d65b14ecc7a,64cf495897335a97643bbcb8,,,,,,,decisionTrl,resources/DP.BMP,resources/DBN.BMP,Door1,-0.270051744,0.011381962,1,0,0,0.8829,optionLeft,30,9595,5,3,0,3,0,1,,,,,,,,,,,,,,,,,,,,,,,,,,,,,,,,,,,,,,,
,,,,,,,,2023-08-06_08h21.05.472,HF_wild_card,2022.2.4,Linux x86_64,59.97001499,5ef8bf948a48ac03adaad640,64ce5acb97489d65b14ecc7a,64cf495897335a97643bbcb8,,,,,,,sngl,resources/Empty.png,resources/DY.BMP,Door4,0.395115605,-0.0596234,1,0,0,0.9112,optionRight,60,9655,5,4,0,4,0,1,,,,,,,,,,,,,,,,,,,,,,,,,,,,,,,,,,,,,,,
,,,,,,,,2023-08-06_08h21.05.472,HF_wild_card,2022.2.4,Linux x86_64,59.97001499,5ef8bf948a48ac03adaad640,64ce5acb97489d65b14ecc7a,64cf495897335a97643bbcb8,,,,,,,ctch,resources/DY.BMP,resources/DP.BMP,Door4,-0.289251328,-0.022882991,1,0,0,1.001,optionLeft,80,9735,5,5,0,5,0,1,,,,,,,,,,,,,,,,,,,,,,,,,,,,,,,,,,,,,,,
,,,,,,,,2023-08-06_08h21.05.472,HF_wild_card,2022.2.4,Linux x86_64,59.97001499,5ef8bf948a48ac03adaad640,64ce5acb97489d65b14ecc7a,64cf495897335a97643bbcb8,,,,,,,sngl,resources/DY.BMP,resources/Empty.png,Door4,-0.252040086,0.025876363,1,0,0,0.8316,optionLeft,80,9815,5,6,0,6,0,1,,,,,,,,,,,,,,,,,,,,,,,,,,,,,,,,,,,,,,,
,,,,,,,,2023-08-06_08h21.05.472,HF_wild_card,2022.2.4,Linux x86_64,59.97001499,5ef8bf948a48ac03adaad640,64ce5acb97489d65b14ecc7a,64cf495897335a97643bbcb8,,,,,,,decisionTrl,resources/DY.BMP,resources/DG.BMP,Door4,-0.251313669,0.000244918,1,0,0,1.2131,optionLeft,60,9875,5,7,0,7,0,1,,,,,,,,,,,,,,,,,,,,,,,,,,,,,,,,,,,,,,,
,,,,,,,,2023-08-06_08h21.05.472,HF_wild_card,2022.2.4,Linux x86_64,59.97001499,5ef8bf948a48ac03adaad640,64ce5acb97489d65b14ecc7a,64cf495897335a97643bbcb8,,,,,,,decisionTrl,resources/DY.BMP,resources/DB.BMP,Door4,-0.286994722,-0.023023429,1,0,0,1.0631,optionLeft,60,9935,5,8,0,8,0,1,,,,,,,,,,,,,,,,,,,,,,,,,,,,,,,,,,,,,,,
,,,,,,,,2023-08-06_08h21.05.472,HF_wild_card,2022.2.4,Linux x86_64,59.97001499,5ef8bf948a48ac03adaad640,64ce5acb97489d65b14ecc7a,64cf495897335a97643bbcb8,,,,,,,decisionTrl,resources/DY.BMP,resources/DB.BMP,Door3,0.241605052,-0.033544081,1,0,0,1.0645,optionRight,70,10005,5,9,0,9,0,1,,,,,,,,,,,,,,,,,,,,,,,,,,,,,,,,,,,,,,,
,,,,,,,,2023-08-06_08h21.05.472,HF_wild_card,2022.2.4,Linux x86_64,59.97001499,5ef8bf948a48ac03adaad640,64ce5acb97489d65b14ecc7a,64cf495897335a97643bbcb8,,,,,,,sngl,resources/DB.BMP,resources/Empty.png,Door3,-0.302578679,0.009502022,1,0,0,0.8516,optionLeft,70,10075,5,10,0,10,0,1,,,,,,,,,,,,,,,,,,,,,,,,,,,,,,,,,,,,,,,
,,,,,,,,2023-08-06_08h21.05.472,HF_wild_card,2022.2.4,Linux x86_64,59.97001499,5ef8bf948a48ac03adaad640,64ce5acb97489d65b14ecc7a,64cf495897335a97643bbcb8,,,,,,,sngl,resources/DG.BMP,resources/Empty.png,WildCard_Ex,-0.471849724,-0.029604276,1,0,0,0.8889,optionLeft,45,10120,5,11,0,11,0,1,,,,,,,,,,,,,,,,,,,,,,,,,,,,,,,,,,,,,,,
,,,,,,,,2023-08-06_08h21.05.472,HF_wild_card,2022.2.4,Linux x86_64,59.97001499,5ef8bf948a48ac03adaad640,64ce5acb97489d65b14ecc7a,64cf495897335a97643bbcb8,,,,,,,ctch,resources/DP.BMP,resources/DY.BMP,Door4,0.344125112,-0.033701473,1,0,0,1.4433,optionRight,80,10200,5,12,0,12,0,1,,,,,,,,,,,,,,,,,,,,,,,,,,,,,,,,,,,,,,,
,,,,,,,,2023-08-06_08h21.05.472,HF_wild_card,2022.2.4,Linux x86_64,59.97001499,5ef8bf948a48ac03adaad640,64ce5acb97489d65b14ecc7a,64cf495897335a97643bbcb8,,,,,,,ctch,resources/DB.BMP,resources/DBN.BMP,Door3,-0.303752193,0.00966012,1,0,0,0.9545,optionLeft,70,10270,5,13,0,13,0,1,,,,,,,,,,,,,,,,,,,,,,,,,,,,,,,,,,,,,,,
,,,,,,,,2023-08-06_08h21.05.472,HF_wild_card,2022.2.4,Linux x86_64,59.97001499,5ef8bf948a48ac03adaad640,64ce5acb97489d65b14ecc7a,64cf495897335a97643bbcb8,,,,,,,decisionTrl,resources/DG.BMP,resources/DY.BMP,Door4,0.358233558,0.011123975,1,0,0,1.6166,optionRight,60,10330,5,14,0,14,0,1,,,,,,,,,,,,,,,,,,,,,,,,,,,,,,,,,,,,,,,
,,,,,,,,2023-08-06_08h21.05.472,HF_wild_card,2022.2.4,Linux x86_64,59.97001499,5ef8bf948a48ac03adaad640,64ce5acb97489d65b14ecc7a,64cf495897335a97643bbcb8,,,,,,,sngl,resources/Empty.png,resources/DG.BMP,WildCard_Ex,0.378088209,0.041372264,1,0,0,0.9287,optionRight,55,10385,5,15,0,15,0,1,,,,,,,,,,,,,,,,,,,,,,,,,,,,,,,,,,,,,,,
,,,,,,,,2023-08-06_08h21.05.472,HF_wild_card,2022.2.4,Linux x86_64,59.97001499,5ef8bf948a48ac03adaad640,64ce5acb97489d65b14ecc7a,64cf495897335a97643bbcb8,,,,,,,decisionTrl,resources/DG.BMP,resources/DBN.BMP,WildCard_Ex,-0.303707547,0.016838957,1,0,0,0.8561,optionLeft,55,10440,5,16,0,16,0,1,,,,,,,,,,,,,,,,,,,,,,,,,,,,,,,,,,,,,,,
,,,,,,,,2023-08-06_08h21.05.472,HF_wild_card,2022.2.4,Linux x86_64,59.97001499,5ef8bf948a48ac03adaad640,64ce5acb97489d65b14ecc7a,64cf495897335a97643bbcb8,,,,,,,decisionTrl,resources/DP.BMP,resources/DG.BMP,WildCard_Ex,0.323518682,-0.086544567,1,0,0,1.3192,optionRight,55,10495,5,17,0,17,0,1,,,,,,,,,,,,,,,,,,,,,,,,,,,,,,,,,,,,,,,
,,,,,,,,2023-08-06_08h21.05.472,HF_wild_card,2022.2.4,Linux x86_64,59.97001499,5ef8bf948a48ac03adaad640,64ce5acb97489d65b14ecc7a,64cf495897335a97643bbcb8,,,,,,,decisionTrl,resources/DB.BMP,resources/DY.BMP,Door4,0.428854624,0.045926306,1,0,0,1.4882,optionRight,80,10575,5,18,0,18,0,1,,,,,,,,,,,,,,,,,,,,,,,,,,,,,,,,,,,,,,,
,,,,,,,,2023-08-06_08h21.05.472,HF_wild_card,2022.2.4,Linux x86_64,59.97001499,5ef8bf948a48ac03adaad640,64ce5acb97489d65b14ecc7a,64cf495897335a97643bbcb8,,,,,,,decisionTrl,resources/DBN.BMP,resources/DP.BMP,Door1,0.348941379,-0.024221915,1,0,0,1.1184,optionRight,30,10605,5,19,0,19,0,1,,,,,,,,,,,,,,,,,,,,,,,,,,,,,,,,,,,,,,,
,,,,,,,,2023-08-06_08h21.05.472,HF_wild_card,2022.2.4,Linux x86_64,59.97001499,5ef8bf948a48ac03adaad640,64ce5acb97489d65b14ecc7a,64cf495897335a97643bbcb8,,,,,,,decisionTrl,resources/DP.BMP,resources/DBN.BMP,Door1,-0.431133094,-0.009729456,1,0,0,1.3279,optionLeft,30,10635,5,20,0,20,0,1,,,,,,,,,,,,,,,,,,,,,,,,,,,,,,,,,,,,,,,
,,,,,,,,2023-08-06_08h21.05.472,HF_wild_card,2022.2.4,Linux x86_64,59.97001499,5ef8bf948a48ac03adaad640,64ce5acb97489d65b14ecc7a,64cf495897335a97643bbcb8,,,,,,,decisionTrl,resources/DBN.BMP,resources/DP.BMP,Door1,0.333970953,-0.016838074,1,0,0,0.9476,optionRight,30,10665,5,21,0,21,0,1,,,,,,,,,,,,,,,,,,,,,,,,,,,,,,,,,,,,,,,
,,,,,,,,2023-08-06_08h21.05.472,HF_wild_card,2022.2.4,Linux x86_64,59.97001499,5ef8bf948a48ac03adaad640,64ce5acb97489d65b14ecc7a,64cf495897335a97643bbcb8,,,,,,,decisionTrl,resources/DB.BMP,resources/DY.BMP,Door4,0.353845526,0.022220188,1,0,0,1.2445,optionRight,80,10745,5,22,0,22,0,1,,,,,,,,,,,,,,,,,,,,,,,,,,,,,,,,,,,,,,,
,,,,,,,,2023-08-06_08h21.05.472,HF_wild_card,2022.2.4,Linux x86_64,59.97001499,5ef8bf948a48ac03adaad640,64ce5acb97489d65b14ecc7a,64cf495897335a97643bbcb8,,,,,,,decisionTrl,resources/DY.BMP,resources/DB.BMP,Door4,-0.357494036,-0.010953621,1,0,0,1.3845,optionLeft,80,10825,5,23,0,23,0,1,,,,,,,,,,,,,,,,,,,,,,,,,,,,,,,,,,,,,,,
,,,,,,,,2023-08-06_08h21.05.472,HF_wild_card,2022.2.4,Linux x86_64,59.97001499,5ef8bf948a48ac03adaad640,64ce5acb97489d65b14ecc7a,64cf495897335a97643bbcb8,,,,,,,decisionTrl,resources/DBN.BMP,resources/DP.BMP,Door1,0.291010186,-0.040344521,1,0,0,1.3804,optionRight,30,10855,5,24,0,24,0,1,,,,,,,,,,,,,,,,,,,,,,,,,,,,,,,,,,,,,,,
,,,,,,,,2023-08-06_08h21.05.472,HF_wild_card,2022.2.4,Linux x86_64,59.97001499,5ef8bf948a48ac03adaad640,64ce5acb97489d65b14ecc7a,64cf495897335a97643bbcb8,,,,,,,sngl,resources/Empty.png,resources/DB.BMP,Door3,0.232573545,0.013800762,1,0,0,1.1452,optionRight,70,10925,5,25,0,25,0,1,,,,,,,,,,,,,,,,,,,,,,,,,,,,,,,,,,,,,,,
,,,,,,,,2023-08-06_08h21.05.472,HF_wild_card,2022.2.4,Linux x86_64,59.97001499,5ef8bf948a48ac03adaad640,64ce5acb97489d65b14ecc7a,64cf495897335a97643bbcb8,,,,,,,decisionTrl,resources/DB.BMP,resources/DY.BMP,Door4,0.386225948,0.022791297,1,0,0,1.4608,optionRight,60,10985,5,26,0,26,0,1,,,,,,,,,,,,,,,,,,,,,,,,,,,,,,,,,,,,,,,
,,,,,,,,2023-08-06_08h21.05.472,HF_wild_card,2022.2.4,Linux x86_64,59.97001499,5ef8bf948a48ac03adaad640,64ce5acb97489d65b14ecc7a,64cf495897335a97643bbcb8,,,,,,,decisionTrl,resources/DBN.BMP,resources/DP.BMP,Door1,0.320464664,-0.029690036,1,0,0,1.0789,optionRight,30,11015,5,27,0,27,0,1,,,,,,,,,,,,,,,,,,,,,,,,,,,,,,,,,,,,,,,
,,,,,,,,2023-08-06_08h21.05.472,HF_wild_card,2022.2.4,Linux x86_64,59.97001499,5ef8bf948a48ac03adaad640,64ce5acb97489d65b14ecc7a,64cf495897335a97643bbcb8,,,,,,,sngl,resources/DP.BMP,resources/Empty.png,Door1,-0.35651267,0.013075546,1,0,0,0.9961,optionLeft,30,11045,5,28,0,28,0,1,,,,,,,,,,,,,,,,,,,,,,,,,,,,,,,,,,,,,,,
,,,,,,,,2023-08-06_08h21.05.472,HF_wild_card,2022.2.4,Linux x86_64,59.97001499,5ef8bf948a48ac03adaad640,64ce5acb97489d65b14ecc7a,64cf495897335a97643bbcb8,,,,,,,sngl,resources/Empty.png,resources/DG.BMP,WildCard_Ex,0.298218762,0.02377065,1,0,0,0.826,optionRight,45,11090,5,29,0,29,0,1,,,,,,,,,,,,,,,,,,,,,,,,,,,,,,,,,,,,,,,
,,,,,,,,2023-08-06_08h21.05.472,HF_wild_card,2022.2.4,Linux x86_64,59.97001499,5ef8bf948a48ac03adaad640,64ce5acb97489d65b14ecc7a,64cf495897335a97643bbcb8,,,,,,,decisionTrl,resources/DBN.BMP,resources/DG.BMP,WildCard_Ex,0.285616416,-0.021854789,1,0,0,1.0132,optionRight,45,11135,5,30,0,30,0,1,,,,,,,,,,,,,,,,,,,,,,,,,,,,,,,,,,,,,,,
,,,,,,,,2023-08-06_08h21.05.472,HF_wild_card,2022.2.4,Linux x86_64,59.97001499,5ef8bf948a48ac03adaad640,64ce5acb97489d65b14ecc7a,64cf495897335a97643bbcb8,,,,,,,decisionTrl,resources/DB.BMP,resources/DG.BMP,Door3,-0.275134122,0.008183833,1,0,0,1.3126,optionLeft,70,11205,5,31,0,31,0,1,,,,,,,,,,,,,,,,,,,,,,,,,,,,,,,,,,,,,,,
,,,,,,,,2023-08-06_08h21.05.472,HF_wild_card,2022.2.4,Linux x86_64,59.97001499,5ef8bf948a48ac03adaad640,64ce5acb97489d65b14ecc7a,64cf495897335a97643bbcb8,,,,,,,sngl,resources/Empty.png,resources/DP.BMP,Door1,0.368323291,0.034044831,1,0,0,1.3249,optionRight,30,11235,5,32,0,32,0,1,,,,,,,,,,,,,,,,,,,,,,,,,,,,,,,,,,,,,,,
,,,,,,,,2023-08-06_08h21.05.472,HF_wild_card,2022.2.4,Linux x86_64,59.97001499,5ef8bf948a48ac03adaad640,64ce5acb97489d65b14ecc7a,64cf495897335a97643bbcb8,,,,,,,ctch,resources/DBN.BMP,resources/DB.BMP,Door3,0.328366032,0.029044646,1,0,0,0.9249,optionRight,70,11305,5,33,0,33,0,1,,,,,,,,,,,,,,,,,,,,,,,,,,,,,,,,,,,,,,,
,,,,,,,,2023-08-06_08h21.05.472,HF_wild_card,2022.2.4,Linux x86_64,59.97001499,5ef8bf948a48ac03adaad640,64ce5acb97489d65b14ecc7a,64cf495897335a97643bbcb8,,,,,,,decisionTrl,resources/DG.BMP,resources/DB.BMP,Door3,0.198383049,0.021770831,1,0,0,2.7937,optionRight,70,11375,5,34,0,34,0,1,,,,,,,,,,,,,,,,,,,,,,,,,,,,,,,,,,,,,,,
,,,,,,,,2023-08-06_08h21.05.472,HF_wild_card,2022.2.4,Linux x86_64,59.97001499,5ef8bf948a48ac03adaad640,64ce5acb97489d65b14ecc7a,64cf495897335a97643bbcb8,,,,,,,ctch,resources/DY.BMP,resources/DP.BMP,Door4,-0.225711469,0.020941452,1,0,0,1.4612,optionLeft,80,11455,5,35,0,35,0,1,,,,,,,,,,,,,,,,,,,,,,,,,,,,,,,,,,,,,,,
,,,,,,,,2023-08-06_08h21.05.472,HF_wild_card,2022.2.4,Linux x86_64,59.97001499,5ef8bf948a48ac03adaad640,64ce5acb97489d65b14ecc7a,64cf495897335a97643bbcb8,,,,,,,ctch,resources/DB.BMP,resources/DBN.BMP,Door3,-0.235799719,-0.049379773,1,0,0,1.3796,optionLeft,70,11525,5,36,0,36,0,1,,,,,,,,,,,,,,,,,,,,,,,,,,,,,,,,,,,,,,,
,,,,,,,,2023-08-06_08h21.05.472,HF_wild_card,2022.2.4,Linux x86_64,59.97001499,5ef8bf948a48ac03adaad640,64ce5acb97489d65b14ecc7a,64cf495897335a97643bbcb8,,,,,,,decisionTrl,resources/DB.BMP,resources/DY.BMP,Door4,0.291585286,0.02537141,1,0,0,2.6999,optionRight,80,11605,5,37,0,37,0,1,,,,,,,,,,,,,,,,,,,,,,,,,,,,,,,,,,,,,,,
,,,,,,,,2023-08-06_08h21.05.472,HF_wild_card,2022.2.4,Linux x86_64,59.97001499,5ef8bf948a48ac03adaad640,64ce5acb97489d65b14ecc7a,64cf495897335a97643bbcb8,,,,,,,sngl,resources/DG.BMP,resources/Empty.png,WildCard_Ex,-0.251855992,0.028603907,1,0,0,1.3108,optionLeft,55,11660,5,38,0,38,0,1,,,,,,,,,,,,,,,,,,,,,,,,,,,,,,,,,,,,,,,
,,,,,,,,2023-08-06_08h21.05.472,HF_wild_card,2022.2.4,Linux x86_64,59.97001499,5ef8bf948a48ac03adaad640,64ce5acb97489d65b14ecc7a,64cf495897335a97643bbcb8,,,,,,,ctch,resources/DBN.BMP,resources/DB.BMP,Door3,0.311999144,0.00901247,1,0,0,1.047,optionRight,70,11730,5,39,0,39,0,1,,,,,,,,,,,,,,,,,,,,,,,,,,,,,,,,,,,,,,,
,,,,,,,,2023-08-06_08h21.05.472,HF_wild_card,2022.2.4,Linux x86_64,59.97001499,5ef8bf948a48ac03adaad640,64ce5acb97489d65b14ecc7a,64cf495897335a97643bbcb8,,,,,,,sngl,resources/Empty.png,resources/DBN.BMP,Door2,0.297653905,0.031002963,1,0,0,0.979,optionRight,20,11750,5,40,0,40,0,1,,,,,,,,,,,,,,,,,,,,,,,,,,,,,,,,,,,,,,,
,,,,,,,,2023-08-06_08h21.05.472,HF_wild_card,2022.2.4,Linux x86_64,59.97001499,5ef8bf948a48ac03adaad640,64ce5acb97489d65b14ecc7a,64cf495897335a97643bbcb8,,,,,,,ctch,resources/DP.BMP,resources/DY.BMP,Door4,0.305834876,0.003153024,1,0,0,1.8905,optionRight,60,11810,5,41,0,41,0,1,,,,,,,,,,,,,,,,,,,,,,,,,,,,,,,,,,,,,,,
,,,,,,,,2023-08-06_08h21.05.472,HF_wild_card,2022.2.4,Linux x86_64,59.97001499,5ef8bf948a48ac03adaad640,64ce5acb97489d65b14ecc7a,64cf495897335a97643bbcb8,,,,,,,decisionTrl,resources/DG.BMP,resources/DP.BMP,WildCard_Ex,-0.281002257,0.008138869,1,0,0,1.9164,optionLeft,55,11865,5,42,0,42,0,1,,,,,,,,,,,,,,,,,,,,,,,,,,,,,,,,,,,,,,,
,,,,,,,,2023-08-06_08h21.05.472,HF_wild_card,2022.2.4,Linux x86_64,59.97001499,5ef8bf948a48ac03adaad640,64ce5acb97489d65b14ecc7a,64cf495897335a97643bbcb8,,,,,,,decisionTrl,resources/DP.BMP,resources/DBN.BMP,Door1,-0.289363155,-0.047749731,1,0,0,1.6597,optionLeft,30,11895,5,43,0,43,0,1,,,,,,,,,,,,,,,,,,,,,,,,,,,,,,,,,,,,,,,
,,,,,,,,2023-08-06_08h21.05.472,HF_wild_card,2022.2.4,Linux x86_64,59.97001499,5ef8bf948a48ac03adaad640,64ce5acb97489d65b14ecc7a,64cf495897335a97643bbcb8,,,,,,,,,,,,,,,,,,,,,,,,,,4,0,4,0,1,,,,,,,,,,,,,,,,,,,,,,,,,,,,,,,,,,
,,,,,,,,2023-08-06_08h21.05.472,HF_wild_card,2022.2.4,Linux x86_64,59.97001499,5ef8bf948a48ac03adaad640,64ce5acb97489d65b14ecc7a,64cf495897335a97643bbcb8,,,,,,,decisionTrl,resources/DB.BMP,resources/DY.BMP,Door4,0.433194054,-0.133507835,1,0,0,1.6387,optionRight,80,11975,6,0,0,0,0,1,,,,,,,,,,,,,,,,,,,,,,,,,,,,,,,,,,,,,,,
,,,,,,,,2023-08-06_08h21.05.472,HF_wild_card,2022.2.4,Linux x86_64,59.97001499,5ef8bf948a48ac03adaad640,64ce5acb97489d65b14ecc7a,64cf495897335a97643bbcb8,,,,,,,ctch,resources/DY.BMP,resources/DP.BMP,Door4,-0.228541975,0.006519494,1,0,0,1.6462,optionLeft,60,12035,6,1,0,1,0,1,,,,,,,,,,,,,,,,,,,,,,,,,,,,,,,,,,,,,,,
,,,,,,,,2023-08-06_08h21.05.472,HF_wild_card,2022.2.4,Linux x86_64,59.97001499,5ef8bf948a48ac03adaad640,64ce5acb97489d65b14ecc7a,64cf495897335a97643bbcb8,,,,,,,decisionTrl,resources/DB.BMP,resources/DY.BMP,Door3,-0.222704146,-0.033402443,1,0,0,1.563,optionLeft,70,12105,6,2,0,2,0,1,,,,,,,,,,,,,,,,,,,,,,,,,,,,,,,,,,,,,,,
,,,,,,,,2023-08-06_08h21.05.472,HF_wild_card,2022.2.4,Linux x86_64,59.97001499,5ef8bf948a48ac03adaad640,64ce5acb97489d65b14ecc7a,64cf495897335a97643bbcb8,,,,,,,decisionTrl,resources/DG.BMP,resources/DY.BMP,Door4,0.408500248,0.036034196,1,0,0,1.8389,optionRight,80,12185,6,3,0,3,0,1,,,,,,,,,,,,,,,,,,,,,,,,,,,,,,,,,,,,,,,
,,,,,,,,2023-08-06_08h21.05.472,HF_wild_card,2022.2.4,Linux x86_64,59.97001499,5ef8bf948a48ac03adaad640,64ce5acb97489d65b14ecc7a,64cf495897335a97643bbcb8,,,,,,,decisionTrl,resources/DBN.BMP,resources/DP.BMP,Door1,0.328173461,0.011609219,1,0,0,1.0981,optionRight,30,12215,6,4,0,4,0,1,,,,,,,,,,,,,,,,,,,,,,,,,,,,,,,,,,,,,,,
,,,,,,,,2023-08-06_08h21.05.472,HF_wild_card,2022.2.4,Linux x86_64,59.97001499,5ef8bf948a48ac03adaad640,64ce5acb97489d65b14ecc7a,64cf495897335a97643bbcb8,,,,,,,ctch,resources/DB.BMP,resources/DBN.BMP,Door3,-0.137892829,-0.027947426,1,0,0,1.2906,optionLeft,70,12285,6,5,0,5,0,1,,,,,,,,,,,,,,,,,,,,,,,,,,,,,,,,,,,,,,,
,,,,,,,,2023-08-06_08h21.05.472,HF_wild_card,2022.2.4,Linux x86_64,59.97001499,5ef8bf948a48ac03adaad640,64ce5acb97489d65b14ecc7a,64cf495897335a97643bbcb8,,,,,,,decisionTrl,resources/DY.BMP,resources/DB.BMP,Door4,-0.279150433,-0.072348418,1,0,0,1.1962,optionLeft,60,12345,6,6,0,6,0,1,,,,,,,,,,,,,,,,,,,,,,,,,,,,,,,,,,,,,,,
,,,,,,,,2023-08-06_08h21.05.472,HF_wild_card,2022.2.4,Linux x86_64,59.97001499,5ef8bf948a48ac03adaad640,64ce5acb97489d65b14ecc7a,64cf495897335a97643bbcb8,,,,,,,ctch,resources/DBN.BMP,resources/DB.BMP,Door3,0.309618349,-0.020621194,1,0,0,1.0756,optionRight,70,12415,6,7,0,7,0,1,,,,,,,,,,,,,,,,,,,,,,,,,,,,,,,,,,,,,,,
,,,,,,,,2023-08-06_08h21.05.472,HF_wild_card,2022.2.4,Linux x86_64,59.97001499,5ef8bf948a48ac03adaad640,64ce5acb97489d65b14ecc7a,64cf495897335a97643bbcb8,,,,,,,sngl,resources/DBN.BMP,resources/Empty.png,Door2,-0.333705231,-0.00619913,1,0,0,0.8591,optionLeft,20,12435,6,8,0,8,0,1,,,,,,,,,,,,,,,,,,,,,,,,,,,,,,,,,,,,,,,
,,,,,,,,2023-08-06_08h21.05.472,HF_wild_card,2022.2.4,Linux x86_64,59.97001499,5ef8bf948a48ac03adaad640,64ce5acb97489d65b14ecc7a,64cf495897335a97643bbcb8,,,,,,,decisionTrl,resources/DG.BMP,resources/DP.BMP,WildCard_Ex,-0.374000938,0.035947482,1,0,0,1.997,optionLeft,45,12480,6,9,0,9,0,1,,,,,,,,,,,,,,,,,,,,,,,,,,,,,,,,,,,,,,,
,,,,,,,,2023-08-06_08h21.05.472,HF_wild_card,2022.2.4,Linux x86_64,59.97001499,5ef8bf948a48ac03adaad640,64ce5acb97489d65b14ecc7a,64cf495897335a97643bbcb8,,,,,,,decisionTrl,resources/DP.BMP,resources/DBN.BMP,Door1,-0.227734318,-0.046195419,1,0,0,1.0961,optionLeft,30,12510,6,10,0,10,0,1,,,,,,,,,,,,,,,,,,,,,,,,,,,,,,,,,,,,,,,
,,,,,,,,2023-08-06_08h21.05.472,HF_wild_card,2022.2.4,Linux x86_64,59.97001499,5ef8bf948a48ac03adaad640,64ce5acb97489d65b14ecc7a,64cf495897335a97643bbcb8,,,,,,,decisionTrl,resources/DB.BMP,resources/DY.BMP,Door3,-0.299172684,-2.66676E-05,1,0,0,1.6327,optionLeft,70,12580,6,11,0,11,0,1,,,,,,,,,,,,,,,,,,,,,,,,,,,,,,,,,,,,,,,
,,,,,,,,2023-08-06_08h21.05.472,HF_wild_card,2022.2.4,Linux x86_64,59.97001499,5ef8bf948a48ac03adaad640,64ce5acb97489d65b14ecc7a,64cf495897335a97643bbcb8,,,,,,,decisionTrl,resources/DY.BMP,resources/DB.BMP,Door3,0.216583817,-0.070619618,1,0,0,1.4312,optionRight,70,12650,6,12,0,12,0,1,,,,,,,,,,,,,,,,,,,,,,,,,,,,,,,,,,,,,,,
,,,,,,,,2023-08-06_08h21.05.472,HF_wild_card,2022.2.4,Linux x86_64,59.97001499,5ef8bf948a48ac03adaad640,64ce5acb97489d65b14ecc7a,64cf495897335a97643bbcb8,,,,,,,decisionTrl,resources/DP.BMP,resources/DBN.BMP,Door1,-0.554475325,0.068998937,1,0,0,1.1357,optionLeft,30,12680,6,13,0,13,0,1,,,,,,,,,,,,,,,,,,,,,,,,,,,,,,,,,,,,,,,
,,,,,,,,2023-08-06_08h21.05.472,HF_wild_card,2022.2.4,Linux x86_64,59.97001499,5ef8bf948a48ac03adaad640,64ce5acb97489d65b14ecc7a,64cf495897335a97643bbcb8,,,,,,,decisionTrl,resources/DY.BMP,resources/DB.BMP,Door4,-0.445154367,0.004631254,1,0,0,1.246,optionLeft,60,12740,6,14,0,14,0,1,,,,,,,,,,,,,,,,,,,,,,,,,,,,,,,,,,,,,,,
,,,,,,,,2023-08-06_08h21.05.472,HF_wild_card,2022.2.4,Linux x86_64,59.97001499,5ef8bf948a48ac03adaad640,64ce5acb97489d65b14ecc7a,64cf495897335a97643bbcb8,,,,,,,decisionTrl,resources/DP.BMP,resources/DG.BMP,WildCard_Ex,0.383431329,0.05324671,1,0,0,1.3308,optionRight,55,12795,6,15,0,15,0,1,,,,,,,,,,,,,,,,,,,,,,,,,,,,,,,,,,,,,,,
,,,,,,,,2023-08-06_08h21.05.472,HF_wild_card,2022.2.4,Linux x86_64,59.97001499,5ef8bf948a48ac03adaad640,64ce5acb97489d65b14ecc7a,64cf495897335a97643bbcb8,,,,,,,sngl,resources/Empty.png,resources/DBN.BMP,Door2,0.413085938,0.022711966,1,0,0,1.1797,optionRight,40,12835,6,16,0,16,0,1,,,,,,,,,,,,,,,,,,,,,,,,,,,,,,,,,,,,,,,
,,,,,,,,2023-08-06_08h21.05.472,HF_wild_card,2022.2.4,Linux x86_64,59.97001499,5ef8bf948a48ac03adaad640,64ce5acb97489d65b14ecc7a,64cf495897335a97643bbcb8,,,,,,,decisionTrl,resources/DB.BMP,resources/DY.BMP,Door4,0.347450539,0.058056054,1,0,0,1.2475,optionRight,80,12915,6,17,0,17,0,1,,,,,,,,,,,,,,,,,,,,,,,,,,,,,,,,,,,,,,,
,,,,,,,,2023-08-06_08h21.05.472,HF_wild_card,2022.2.4,Linux x86_64,59.97001499,5ef8bf948a48ac03adaad640,64ce5acb97489d65b14ecc7a,64cf495897335a97643bbcb8,,,,,,,sngl,resources/Empty.png,resources/DY.BMP,Door4,0.38883181,0.017308871,1,0,0,0.8791,optionRight,80,12995,6,18,0,18,0,1,,,,,,,,,,,,,,,,,,,,,,,,,,,,,,,,,,,,,,,
,,,,,,,,2023-08-06_08h21.05.472,HF_wild_card,2022.2.4,Linux x86_64,59.97001499,5ef8bf948a48ac03adaad640,64ce5acb97489d65b14ecc7a,64cf495897335a97643bbcb8,,,,,,,decisionTrl,resources/DBN.BMP,resources/DP.BMP,Door1,0.426855158,0.06113229,1,0,0,1.0955,optionRight,30,13025,6,19,0,19,0,1,,,,,,,,,,,,,,,,,,,,,,,,,,,,,,,,,,,,,,,
,,,,,,,,2023-08-06_08h21.05.472,HF_wild_card,2022.2.4,Linux x86_64,59.97001499,5ef8bf948a48ac03adaad640,64ce5acb97489d65b14ecc7a,64cf495897335a97643bbcb8,,,,,,,sngl,resources/DB.BMP,resources/Empty.png,Door3,-0.362841324,0.03224719,1,0,0,0.8674,optionLeft,70,13095,6,20,0,20,0,1,,,,,,,,,,,,,,,,,,,,,,,,,,,,,,,,,,,,,,,
,,,,,,,,2023-08-06_08h21.05.472,HF_wild_card,2022.2.4,Linux x86_64,59.97001499,5ef8bf948a48ac03adaad640,64ce5acb97489d65b14ecc7a,64cf495897335a97643bbcb8,,,,,,,sngl,resources/Empty.png,resources/DG.BMP,WildCard_Ex,0.332172535,0.048683555,1,0,0,0.7319,optionRight,45,13140,6,21,0,21,0,1,,,,,,,,,,,,,,,,,,,,,,,,,,,,,,,,,,,,,,,
,,,,,,,,2023-08-06_08h21.05.472,HF_wild_card,2022.2.4,Linux x86_64,59.97001499,5ef8bf948a48ac03adaad640,64ce5acb97489d65b14ecc7a,64cf495897335a97643bbcb8,,,,,,,sngl,resources/Empty.png,resources/DB.BMP,Door3,0.337675307,0.021969937,1,0,0,0.9002,optionRight,70,13210,6,22,0,22,0,1,,,,,,,,,,,,,,,,,,,,,,,,,,,,,,,,,,,,,,,
,,,,,,,,2023-08-06_08h21.05.472,HF_wild_card,2022.2.4,Linux x86_64,59.97001499,5ef8bf948a48ac03adaad640,64ce5acb97489d65b14ecc7a,64cf495897335a97643bbcb8,,,,,,,sngl,resources/Empty.png,resources/DP.BMP,Door1,0.37997818,0.036223694,1,0,0,0.8497,optionRight,30,13240,6,23,0,23,0,1,,,,,,,,,,,,,,,,,,,,,,,,,,,,,,,,,,,,,,,
,,,,,,,,2023-08-06_08h21.05.472,HF_wild_card,2022.2.4,Linux x86_64,59.97001499,5ef8bf948a48ac03adaad640,64ce5acb97489d65b14ecc7a,64cf495897335a97643bbcb8,,,,,,,decisionTrl,resources/DP.BMP,resources/DBN.BMP,Door1,-0.336372199,-0.022315696,1,0,0,1.1807,optionLeft,30,13270,6,24,0,24,0,1,,,,,,,,,,,,,,,,,,,,,,,,,,,,,,,,,,,,,,,
,,,,,,,,2023-08-06_08h21.05.472,HF_wild_card,2022.2.4,Linux x86_64,59.97001499,5ef8bf948a48ac03adaad640,64ce5acb97489d65b14ecc7a,64cf495897335a97643bbcb8,,,,,,,decisionTrl,resources/DBN.BMP,resources/DG.BMP,WildCard_Ex,0.371587259,0.03724681,1,0,0,0.9635,optionRight,55,13325,6,25,0,25,0,1,,,,,,,,,,,,,,,,,,,,,,,,,,,,,,,,,,,,,,,
,,,,,,,,2023-08-06_08h21.05.472,HF_wild_card,2022.2.4,Linux x86_64,59.97001499,5ef8bf948a48ac03adaad640,64ce5acb97489d65b14ecc7a,64cf495897335a97643bbcb8,,,,,,,decisionTrl,resources/DG.BMP,resources/DB.BMP,WildCard_Ex,-0.258122691,-0.00794446,1,0,0,1.9226,optionLeft,45,13370,6,26,0,26,0,1,,,,,,,,,,,,,,,,,,,,,,,,,,,,,,,,,,,,,,,
,,,,,,,,2023-08-06_08h21.05.472,HF_wild_card,2022.2.4,Linux x86_64,59.97001499,5ef8bf948a48ac03adaad640,64ce5acb97489d65b14ecc7a,64cf495897335a97643bbcb8,,,,,,,sngl,resources/DG.BMP,resources/Empty.png,WildCard_Ex,-0.316573426,0.00939182,1,0,0,0.9106,optionLeft,45,13415,6,27,0,27,0,1,,,,,,,,,,,,,,,,,,,,,,,,,,,,,,,,,,,,,,,
,,,,,,,,2023-08-06_08h21.05.472,HF_wild_card,2022.2.4,Linux x86_64,59.97001499,5ef8bf948a48ac03adaad640,64ce5acb97489d65b14ecc7a,64cf495897335a97643bbcb8,,,,,,,decisionTrl,resources/DY.BMP,resources/DB.BMP,Door3,0.314688082,0.02032121,1,0,0,0.9486,optionRight,70,13485,6,28,0,28,0,1,,,,,,,,,,,,,,,,,,,,,,,,,,,,,,,,,,,,,,,
,,,,,,,,2023-08-06_08h21.05.472,HF_wild_card,2022.2.4,Linux x86_64,59.97001499,5ef8bf948a48ac03adaad640,64ce5acb97489d65b14ecc7a,64cf495897335a97643bbcb8,,,,,,,sngl,resources/DY.BMP,resources/Empty.png,Door4,-0.373628899,0.052103007,1,0,0,1.0475,optionLeft,60,13545,6,29,0,29,0,1,,,,,,,,,,,,,,,,,,,,,,,,,,,,,,,,,,,,,,,
,,,,,,,,2023-08-06_08h21.05.472,HF_wild_card,2022.2.4,Linux x86_64,59.97001499,5ef8bf948a48ac03adaad640,64ce5acb97489d65b14ecc7a,64cf495897335a97643bbcb8,,,,,,,sngl,resources/DG.BMP,resources/Empty.png,WildCard_Ex,-0.251544034,0.040174696,1,0,0,0.9371,optionLeft,55,13600,6,30,0,30,0,1,,,,,,,,,,,,,,,,,,,,,,,,,,,,,,,,,,,,,,,
,,,,,,,,2023-08-06_08h21.05.472,HF_wild_card,2022.2.4,Linux x86_64,59.97001499,5ef8bf948a48ac03adaad640,64ce5acb97489d65b14ecc7a,64cf495897335a97643bbcb8,,,,,,,decisionTrl,resources/DP.BMP,resources/DBN.BMP,Door1,-0.312369629,0.000796742,1,0,0,1.5624,optionLeft,30,13630,6,31,0,31,0,1,,,,,,,,,,,,,,,,,,,,,,,,,,,,,,,,,,,,,,,
,,,,,,,,2023-08-06_08h21.05.472,HF_wild_card,2022.2.4,Linux x86_64,59.97001499,5ef8bf948a48ac03adaad640,64ce5acb97489d65b14ecc7a,64cf495897335a97643bbcb8,,,,,,,ctch,resources/DP.BMP,resources/DY.BMP,Door4,0.289568301,0.058473658,1,0,0,1.3275,optionRight,60,13690,6,32,0,32,0,1,,,,,,,,,,,,,,,,,,,,,,,,,,,,,,,,,,,,,,,
,,,,,,,,2023-08-06_08h21.05.472,HF_wild_card,2022.2.4,Linux x86_64,59.97001499,5ef8bf948a48ac03adaad640,64ce5acb97489d65b14ecc7a,64cf495897335a97643bbcb8,,,,,,,ctch,resources/DY.BMP,resources/DP.BMP,Door4,-0.24505919,-0.009137542,1,0,0,1.3316,optionLeft,80,13770,6,33,0,33,0,1,,,,,,,,,,,,,,,,,,,,,,,,,,,,,,,,,,,,,,,
,,,,,,,,2023-08-06_08h21.05.472,HF_wild_card,2022.2.4,Linux x86_64,59.97001499,5ef8bf948a48ac03adaad640,64ce5acb97489d65b14ecc7a,64cf495897335a97643bbcb8,,,,,,,sngl,resources/DP.BMP,resources/Empty.png,Door1,-0.130621804,0.008197361,1,0,0,0.9453,optionLeft,30,13800,6,34,0,34,0,1,,,,,,,,,,,,,,,,,,,,,,,,,,,,,,,,,,,,,,,
,,,,,,,,2023-08-06_08h21.05.472,HF_wild_card,2022.2.4,Linux x86_64,59.97001499,5ef8bf948a48ac03adaad640,64ce5acb97489d65b14ecc7a,64cf495897335a97643bbcb8,,,,,,,decisionTrl,resources/DG.BMP,resources/DBN.BMP,WildCard_Ex,-0.298715591,-0.063098766,1,0,0,1.4162,optionLeft,55,13855,6,35,0,35,0,1,,,,,,,,,,,,,,,,,,,,,,,,,,,,,,,,,,,,,,,
,,,,,,,,2023-08-06_08h21.05.472,HF_wild_card,2022.2.4,Linux x86_64,59.97001499,5ef8bf948a48ac03adaad640,64ce5acb97489d65b14ecc7a,64cf495897335a97643bbcb8,,,,,,,decisionTrl,resources/DBN.BMP,resources/DP.BMP,Door1,0.413326829,0.024351791,1,0,0,2.3464,optionRight,30,13885,6,36,0,36,0,1,,,,,,,,,,,,,,,,,,,,,,,,,,,,,,,,,,,,,,,
,,,,,,,,2023-08-06_08h21.05.472,HF_wild_card,2022.2.4,Linux x86_64,59.97001499,5ef8bf948a48ac03adaad640,64ce5acb97489d65b14ecc7a,64cf495897335a97643bbcb8,,,,,,,ctch,resources/DB.BMP,resources/DBN.BMP,Door3,-0.321408696,0.01262686,1,0,0,1.398,optionLeft,70,13955,6,37,0,37,0,1,,,,,,,,,,,,,,,,,,,,,,,,,,,,,,,,,,,,,,,
,,,,,,,,2023-08-06_08h21.05.472,HF_wild_card,2022.2.4,Linux x86_64,59.97001499,5ef8bf948a48ac03adaad640,64ce5acb97489d65b14ecc7a,64cf495897335a97643bbcb8,,,,,,,decisionTrl,resources/DB.BMP,resources/DG.BMP,Door3,-0.328948233,0.03022865,1,0,0,1.6643,optionLeft,70,14025,6,38,0,38,0,1,,,,,,,,,,,,,,,,,,,,,,,,,,,,,,,,,,,,,,,
,,,,,,,,2023-08-06_08h21.05.472,HF_wild_card,2022.2.4,Linux x86_64,59.97001499,5ef8bf948a48ac03adaad640,64ce5acb97489d65b14ecc7a,64cf495897335a97643bbcb8,,,,,,,sngl,resources/Empty.png,resources/DG.BMP,WildCard_Ex,0.317548116,0.070572217,1,0,0,1.1937,optionRight,55,14080,6,39,0,39,0,1,,,,,,,,,,,,,,,,,,,,,,,,,,,,,,,,,,,,,,,
,,,,,,,,2023-08-06_08h21.05.472,HF_wild_card,2022.2.4,Linux x86_64,59.97001499,5ef8bf948a48ac03adaad640,64ce5acb97489d65b14ecc7a,64cf495897335a97643bbcb8,,,,,,,decisionTrl,resources/DY.BMP,resources/DG.BMP,Door4,-0.349649111,0.084653254,1,0,0,1.1427,optionLeft,60,14140,6,40,0,40,0,1,,,,,,,,,,,,,,,,,,,,,,,,,,,,,,,,,,,,,,,
,,,,,,,,2023-08-06_08h21.05.472,HF_wild_card,2022.2.4,Linux x86_64,59.97001499,5ef8bf948a48ac03adaad640,64ce5acb97489d65b14ecc7a,64cf495897335a97643bbcb8,,,,,,,decisionTrl,resources/DBN.BMP,resources/DP.BMP,Door1,0.296595114,0.055444505,1,0,0,0.9441,optionRight,30,14170,6,41,0,41,0,1,,,,,,,,,,,,,,,,,,,,,,,,,,,,,,,,,,,,,,,
,,,,,,,,2023-08-06_08h21.05.472,HF_wild_card,2022.2.4,Linux x86_64,59.97001499,5ef8bf948a48ac03adaad640,64ce5acb97489d65b14ecc7a,64cf495897335a97643bbcb8,,,,,,,ctch,resources/DP.BMP,resources/DY.BMP,Door4,0.364297937,0.018608588,1,0,0,1.2908,optionRight,80,14250,6,42,0,42,0,1,,,,,,,,,,,,,,,,,,,,,,,,,,,,,,,,,,,,,,,
,,,,,,,,2023-08-06_08h21.05.472,HF_wild_card,2022.2.4,Linux x86_64,59.97001499,5ef8bf948a48ac03adaad640,64ce5acb97489d65b14ecc7a,64cf495897335a97643bbcb8,,,,,,,ctch,resources/DBN.BMP,resources/DB.BMP,Door3,0.226401576,0.0745975,1,0,0,1.3539,optionRight,70,14320,6,43,0,43,0,1,,,,,,,,,,,,,,,,,,,,,,,,,,,,,,,,,,,,,,,
,,,,,,,,2023-08-06_08h21.05.472,HF_wild_card,2022.2.4,Linux x86_64,59.97001499,5ef8bf948a48ac03adaad640,64ce5acb97489d65b14ecc7a,64cf495897335a97643bbcb8,,,,,,,,,,,,,,,,,,,,,,,,,,5,0,5,0,1,,,,,,,,,,,,,,,,,,,,,,,,,,,,,,,,,,
,,,,,,,,2023-08-06_08h21.05.472,HF_wild_card,2022.2.4,Linux x86_64,59.97001499,5ef8bf948a48ac03adaad640,64ce5acb97489d65b14ecc7a,64cf495897335a97643bbcb8,,,,,,,ctch,resources/DBN.BMP,resources/DB.BMP,Door3,0.485924615,-0.010680022,1,0,0,1.2991,optionRight,70,14390,7,0,0,0,0,1,,,,,,,,,,,,,,,,,,,,,,,,,,,,,,,,,,,,,,,
,,,,,,,,2023-08-06_08h21.05.472,HF_wild_card,2022.2.4,Linux x86_64,59.97001499,5ef8bf948a48ac03adaad640,64ce5acb97489d65b14ecc7a,64cf495897335a97643bbcb8,,,,,,,decisionTrl,resources/DY.BMP,resources/DB.BMP,Door4,-0.480485174,0.063844963,1,0,0,1.7502,optionLeft,80,14470,7,1,0,1,0,1,,,,,,,,,,,,,,,,,,,,,,,,,,,,,,,,,,,,,,,
,,,,,,,,2023-08-06_08h21.05.472,HF_wild_card,2022.2.4,Linux x86_64,59.97001499,5ef8bf948a48ac03adaad640,64ce5acb97489d65b14ecc7a,64cf495897335a97643bbcb8,,,,,,,ctch,resources/DBN.BMP,resources/DB.BMP,Door3,0.394466824,0.045247855,1,0,0,1.11,optionRight,70,14540,7,2,0,2,0,1,,,,,,,,,,,,,,,,,,,,,,,,,,,,,,,,,,,,,,,
,,,,,,,,2023-08-06_08h21.05.472,HF_wild_card,2022.2.4,Linux x86_64,59.97001499,5ef8bf948a48ac03adaad640,64ce5acb97489d65b14ecc7a,64cf495897335a97643bbcb8,,,,,,,decisionTrl,resources/DBN.BMP,resources/DP.BMP,Door1,0.282371026,-0.010047418,1,0,0,1.7721,optionRight,30,14570,7,3,0,3,0,1,,,,,,,,,,,,,,,,,,,,,,,,,,,,,,,,,,,,,,,
,,,,,,,,2023-08-06_08h21.05.472,HF_wild_card,2022.2.4,Linux x86_64,59.97001499,5ef8bf948a48ac03adaad640,64ce5acb97489d65b14ecc7a,64cf495897335a97643bbcb8,,,,,,,decisionTrl,resources/DB.BMP,resources/DY.BMP,Door4,0.301754846,-0.024989835,1,0,0,1.6225,optionRight,80,14650,7,4,0,4,0,1,,,,,,,,,,,,,,,,,,,,,,,,,,,,,,,,,,,,,,,
,,,,,,,,2023-08-06_08h21.05.472,HF_wild_card,2022.2.4,Linux x86_64,59.97001499,5ef8bf948a48ac03adaad640,64ce5acb97489d65b14ecc7a,64cf495897335a97643bbcb8,,,,,,,decisionTrl,resources/DP.BMP,resources/DBN.BMP,Door1,-0.412355388,0.077886687,1,0,0,1.0102,optionLeft,30,14680,7,5,0,5,0,1,,,,,,,,,,,,,,,,,,,,,,,,,,,,,,,,,,,,,,,
,,,,,,,,2023-08-06_08h21.05.472,HF_wild_card,2022.2.4,Linux x86_64,59.97001499,5ef8bf948a48ac03adaad640,64ce5acb97489d65b14ecc7a,64cf495897335a97643bbcb8,,,,,,,ctch,resources/DBN.BMP,resources/DB.BMP,Door3,0.218729019,0.017065861,1,0,0,1.0214,optionRight,70,14750,7,6,0,6,0,1,,,,,,,,,,,,,,,,,,,,,,,,,,,,,,,,,,,,,,,
,,,,,,,,2023-08-06_08h21.05.472,HF_wild_card,2022.2.4,Linux x86_64,59.97001499,5ef8bf948a48ac03adaad640,64ce5acb97489d65b14ecc7a,64cf495897335a97643bbcb8,,,,,,,decisionTrl,resources/DBN.BMP,resources/DP.BMP,Door1,0.346206241,-0.034454169,1,0,0,1.2148,optionRight,30,14780,7,7,0,7,0,1,,,,,,,,,,,,,,,,,,,,,,,,,,,,,,,,,,,,,,,
,,,,,,,,2023-08-06_08h21.05.472,HF_wild_card,2022.2.4,Linux x86_64,59.97001499,5ef8bf948a48ac03adaad640,64ce5acb97489d65b14ecc7a,64cf495897335a97643bbcb8,,,,,,,decisionTrl,resources/DBN.BMP,resources/DP.BMP,Door1,0.354620474,0.022543271,1,0,0,1.0165,optionRight,30,14810,7,8,0,8,0,1,,,,,,,,,,,,,,,,,,,,,,,,,,,,,,,,,,,,,,,
,,,,,,,,2023-08-06_08h21.05.472,HF_wild_card,2022.2.4,Linux x86_64,59.97001499,5ef8bf948a48ac03adaad640,64ce5acb97489d65b14ecc7a,64cf495897335a97643bbcb8,,,,,,,ctch,resources/DB.BMP,resources/DBN.BMP,Door3,-0.426239861,0.082416676,1,0,0,1.6703,optionLeft,70,14880,7,9,0,9,0,1,,,,,,,,,,,,,,,,,,,,,,,,,,,,,,,,,,,,,,,
,,,,,,,,2023-08-06_08h21.05.472,HF_wild_card,2022.2.4,Linux x86_64,59.97001499,5ef8bf948a48ac03adaad640,64ce5acb97489d65b14ecc7a,64cf495897335a97643bbcb8,,,,,,,decisionTrl,resources/DP.BMP,resources/DBN.BMP,Door1,-0.349463392,-0.009000531,1,0,0,1.8014,optionLeft,30,14910,7,10,0,10,0,1,,,,,,,,,,,,,,,,,,,,,,,,,,,,,,,,,,,,,,,
,,,,,,,,2023-08-06_08h21.05.472,HF_wild_card,2022.2.4,Linux x86_64,59.97001499,5ef8bf948a48ac03adaad640,64ce5acb97489d65b14ecc7a,64cf495897335a97643bbcb8,,,,,,,decisionTrl,resources/DBN.BMP,resources/DP.BMP,Door1,0.3477827,-0.005132569,1,0,0,1.0196,optionRight,30,14940,7,11,0,11,0,1,,,,,,,,,,,,,,,,,,,,,,,,,,,,,,,,,,,,,,,
,,,,,,,,2023-08-06_08h21.05.472,HF_wild_card,2022.2.4,Linux x86_64,59.97001499,5ef8bf948a48ac03adaad640,64ce5acb97489d65b14ecc7a,64cf495897335a97643bbcb8,,,,,,,ctch,resources/DP.BMP,resources/DY.BMP,Door4,0.31317619,0.006132514,1,0,0,1.249,optionRight,60,15000,7,12,0,12,0,1,,,,,,,,,,,,,,,,,,,,,,,,,,,,,,,,,,,,,,,
,,,,,,,,2023-08-06_08h21.05.472,HF_wild_card,2022.2.4,Linux x86_64,59.97001499,5ef8bf948a48ac03adaad640,64ce5acb97489d65b14ecc7a,64cf495897335a97643bbcb8,,,,,,,ctch,resources/DY.BMP,resources/DP.BMP,Door4,-0.400723104,-0.033213933,1,0,0,1.1935,optionLeft,80,15080,7,13,0,13,0,1,,,,,,,,,,,,,,,,,,,,,,,,,,,,,,,,,,,,,,,
,,,,,,,,2023-08-06_08h21.05.472,HF_wild_card,2022.2.4,Linux x86_64,59.97001499,5ef8bf948a48ac03adaad640,64ce5acb97489d65b14ecc7a,64cf495897335a97643bbcb8,,,,,,,ctch,resources/DY.BMP,resources/DP.BMP,Door4,-0.213543221,-0.017587167,1,0,0,1.0321,optionLeft,80,15160,7,14,0,14,0,1,,,,,,,,,,,,,,,,,,,,,,,,,,,,,,,,,,,,,,,
,,,,,,,,2023-08-06_08h21.05.472,HF_wild_card,2022.2.4,Linux x86_64,59.97001499,5ef8bf948a48ac03adaad640,64ce5acb97489d65b14ecc7a,64cf495897335a97643bbcb8,,,,,,,decisionTrl,resources/DB.BMP,resources/DY.BMP,Door3,-0.269147732,0.026905625,1,0,0,1.3772,optionLeft,70,15230,7,15,0,15,0,1,,,,,,,,,,,,,,,,,,,,,,,,,,,,,,,,,,,,,,,
,,,,,,,,2023-08-06_08h21.05.472,HF_wild_card,2022.2.4,Linux x86_64,59.97001499,5ef8bf948a48ac03adaad640,64ce5acb97489d65b14ecc7a,64cf495897335a97643bbcb8,,,,,,,decisionTrl,resources/DY.BMP,resources/DB.BMP,Door4,-0.198822092,-0.00188001,1,0,0,2.1156,optionLeft,80,15310,7,16,0,16,0,1,,,,,,,,,,,,,,,,,,,,,,,,,,,,,,,,,,,,,,,
,,,,,,,,2023-08-06_08h21.05.472,HF_wild_card,2022.2.4,Linux x86_64,59.97001499,5ef8bf948a48ac03adaad640,64ce5acb97489d65b14ecc7a,64cf495897335a97643bbcb8,,,,,,,decisionTrl,resources/DP.BMP,resources/DBN.BMP,Door1,-0.284539187,-0.01740272,1,0,0,1.2518,optionLeft,30,15340,7,17,0,17,0,1,,,,,,,,,,,,,,,,,,,,,,,,,,,,,,,,,,,,,,,
,,,,,,,,2023-08-06_08h21.05.472,HF_wild_card,2022.2.4,Linux x86_64,59.97001499,5ef8bf948a48ac03adaad640,64ce5acb97489d65b14ecc7a,64cf495897335a97643bbcb8,,,,,,,decisionTrl,resources/DBN.BMP,resources/DP.BMP,Door1,0.367300811,-0.019275418,1,0,0,1.197,optionRight,30,15370,7,18,0,18,0,1,,,,,,,,,,,,,,,,,,,,,,,,,,,,,,,,,,,,,,,
,,,,,,,,2023-08-06_08h21.05.472,HF_wild_card,2022.2.4,Linux x86_64,59.97001499,5ef8bf948a48ac03adaad640,64ce5acb97489d65b14ecc7a,64cf495897335a97643bbcb8,,,,,,,decisionTrl,resources/DP.BMP,resources/DBN.BMP,Door1,-0.425724665,-0.048987742,1,0,0,1.0304,optionLeft,30,15400,7,19,0,19,0,1,,,,,,,,,,,,,,,,,,,,,,,,,,,,,,,,,,,,,,,
,,,,,,,,2023-08-06_08h21.05.472,HF_wild_card,2022.2.4,Linux x86_64,59.97001499,5ef8bf948a48ac03adaad640,64ce5acb97489d65b14ecc7a,64cf495897335a97643bbcb8,,,,,,,decisionTrl,resources/DB.BMP,resources/DY.BMP,Door3,-0.386866534,0.024246498,1,0,0,2.2326,optionLeft,70,15470,7,20,0,20,0,1,,,,,,,,,,,,,,,,,,,,,,,,,,,,,,,,,,,,,,,
,,,,,,,,2023-08-06_08h21.05.472,HF_wild_card,2022.2.4,Linux x86_64,59.97001499,5ef8bf948a48ac03adaad640,64ce5acb97489d65b14ecc7a,64cf495897335a97643bbcb8,,,,,,,decisionTrl,resources/DP.BMP,resources/DBN.BMP,Door1,-0.393612897,0.003952697,1,0,0,1.0681,optionLeft,30,15500,7,21,0,21,0,1,,,,,,,,,,,,,,,,,,,,,,,,,,,,,,,,,,,,,,,
,,,,,,,,2023-08-06_08h21.05.472,HF_wild_card,2022.2.4,Linux x86_64,59.97001499,5ef8bf948a48ac03adaad640,64ce5acb97489d65b14ecc7a,64cf495897335a97643bbcb8,,,,,,,decisionTrl,resources/DB.BMP,resources/DY.BMP,Door4,0.448976729,0.008456795,1,0,0,0.9143,optionRight,80,15580,7,22,0,22,0,1,,,,,,,,,,,,,,,,,,,,,,,,,,,,,,,,,,,,,,,
,,,,,,,,2023-08-06_08h21.05.472,HF_wild_card,2022.2.4,Linux x86_64,59.97001499,5ef8bf948a48ac03adaad640,64ce5acb97489d65b14ecc7a,64cf495897335a97643bbcb8,,,,,,,decisionTrl,resources/DY.BMP,resources/DB.BMP,Door4,-0.268522686,-0.01343169,1,0,0,1.1978,optionLeft,80,15660,7,23,0,23,0,1,,,,,,,,,,,,,,,,,,,,,,,,,,,,,,,,,,,,,,,
,,,,,,,,2023-08-06_08h21.05.472,HF_wild_card,2022.2.4,Linux x86_64,59.97001499,5ef8bf948a48ac03adaad640,64ce5acb97489d65b14ecc7a,64cf495897335a97643bbcb8,,,,,,,decisionTrl,resources/DB.BMP,resources/DY.BMP,Door3,-0.288494039,-0.029159652,1,0,0,1.4675,optionLeft,70,15730,7,24,0,24,0,1,,,,,,,,,,,,,,,,,,,,,,,,,,,,,,,,,,,,,,,
,,,,,,,,2023-08-06_08h21.05.472,HF_wild_card,2022.2.4,Linux x86_64,59.97001499,5ef8bf948a48ac03adaad640,64ce5acb97489d65b14ecc7a,64cf495897335a97643bbcb8,,,,,,,decisionTrl,resources/DBN.BMP,resources/DP.BMP,Door1,0.331234261,0.012075177,1,0,0,1.1313,optionRight,30,15760,7,25,0,25,0,1,,,,,,,,,,,,,,,,,,,,,,,,,,,,,,,,,,,,,,,
,,,,,,,,2023-08-06_08h21.05.472,HF_wild_card,2022.2.4,Linux x86_64,59.97001499,5ef8bf948a48ac03adaad640,64ce5acb97489d65b14ecc7a,64cf495897335a97643bbcb8,,,,,,,decisionTrl,resources/DB.BMP,resources/DY.BMP,Door4,0.320837515,0.052583483,1,0,0,1.8398,optionRight,60,15820,7,26,0,26,0,1,,,,,,,,,,,,,,,,,,,,,,,,,,,,,,,,,,,,,,,
,,,,,,,,2023-08-06_08h21.05.472,HF_wild_card,2022.2.4,Linux x86_64,59.97001499,5ef8bf948a48ac03adaad640,64ce5acb97489d65b14ecc7a,64cf495897335a97643bbcb8,,,,,,,ctch,resources/DB.BMP,resources/DBN.BMP,Door3,-0.387109262,0.016249198,1,0,0,1.0312,optionLeft,70,15890,7,27,0,27,0,1,,,,,,,,,,,,,,,,,,,,,,,,,,,,,,,,,,,,,,,
,,,,,,,,2023-08-06_08h21.05.472,HF_wild_card,2022.2.4,Linux x86_64,59.97001499,5ef8bf948a48ac03adaad640,64ce5acb97489d65b14ecc7a,64cf495897335a97643bbcb8,,,,,,,decisionTrl,resources/DY.BMP,resources/DB.BMP,Door4,-0.164452235,-0.021629969,1,0,0,1.6652,optionLeft,80,15970,7,28,0,28,0,1,,,,,,,,,,,,,,,,,,,,,,,,,,,,,,,,,,,,,,,
,,,,,,,,2023-08-06_08h21.05.472,HF_wild_card,2022.2.4,Linux x86_64,59.97001499,5ef8bf948a48ac03adaad640,64ce5acb97489d65b14ecc7a,64cf495897335a97643bbcb8,,,,,,,ctch,resources/DP.BMP,resources/DY.BMP,Door4,0.189470009,-0.018838847,1,0,0,1.1956,optionRight,80,16050,7,29,0,29,0,1,,,,,,,,,,,,,,,,,,,,,,,,,,,,,,,,,,,,,,,
,,,,,,,,2023-08-06_08h21.05.472,HF_wild_card,2022.2.4,Linux x86_64,59.97001499,5ef8bf948a48ac03adaad640,64ce5acb97489d65b14ecc7a,64cf495897335a97643bbcb8,,,,,,,decisionTrl,resources/DY.BMP,resources/DB.BMP,Door4,-0.198889909,0.008984707,1,0,0,1.1813,optionLeft,80,16130,7,30,0,30,0,1,,,,,,,,,,,,,,,,,,,,,,,,,,,,,,,,,,,,,,,
,,,,,,,,2023-08-06_08h21.05.472,HF_wild_card,2022.2.4,Linux x86_64,59.97001499,5ef8bf948a48ac03adaad640,64ce5acb97489d65b14ecc7a,64cf495897335a97643bbcb8,,,,,,,decisionTrl,resources/DY.BMP,resources/DB.BMP,Door4,-0.207837988,-0.038237501,1,0,0,1.2156,optionLeft,80,16210,7,31,0,31,0,1,,,,,,,,,,,,,,,,,,,,,,,,,,,,,,,,,,,,,,,
,,,,,,,,2023-08-06_08h21.05.472,HF_wild_card,2022.2.4,Linux x86_64,59.97001499,5ef8bf948a48ac03adaad640,64ce5acb97489d65b14ecc7a,64cf495897335a97643bbcb8,,,,,,,ctch,resources/DY.BMP,resources/DP.BMP,Door4,-0.342896073,-0.096894653,1,0,0,1.3453,optionLeft,60,16270,7,32,0,32,0,1,,,,,,,,,,,,,,,,,,,,,,,,,,,,,,,,,,,,,,,
,,,,,,,,2023-08-06_08h21.05.472,HF_wild_card,2022.2.4,Linux x86_64,59.97001499,5ef8bf948a48ac03adaad640,64ce5acb97489d65b14ecc7a,64cf495897335a97643bbcb8,,,,,,,decisionTrl,resources/DP.BMP,resources/DBN.BMP,Door1,-0.35401143,-0.008952282,1,0,0,1.2973,optionLeft,30,16300,7,33,0,33,0,1,,,,,,,,,,,,,,,,,,,,,,,,,,,,,,,,,,,,,,,
,,,,,,,,2023-08-06_08h21.05.472,HF_wild_card,2022.2.4,Linux x86_64,59.97001499,5ef8bf948a48ac03adaad640,64ce5acb97489d65b14ecc7a,64cf495897335a97643bbcb8,,,,,,,ctch,resources/DB.BMP,resources/DBN.BMP,Door3,-0.192390795,-0.036697953,1,0,0,1.4138,optionLeft,70,16370,7,34,0,34,0,1,,,,,,,,,,,,,,,,,,,,,,,,,,,,,,,,,,,,,,,
,,,,,,,,2023-08-06_08h21.05.472,HF_wild_card,2022.2.4,Linux x86_64,59.97001499,5ef8bf948a48ac03adaad640,64ce5acb97489d65b14ecc7a,64cf495897335a97643bbcb8,,,,,,,ctch,resources/DP.BMP,resources/DY.BMP,Door4,0.421814106,0.054067153,1,0,0,1.6979,optionRight,80,16450,7,35,0,35,0,1,,,,,,,,,,,,,,,,,,,,,,,,,,,,,,,,,,,,,,,
,,,,,,,,2023-08-06_08h21.05.472,HF_wild_card,2022.2.4,Linux x86_64,59.97001499,5ef8bf948a48ac03adaad640,64ce5acb97489d65b14ecc7a,64cf495897335a97643bbcb8,,,,,,,,,,,,,,,,,,,,,,,,,,6,0,6,0,1,,,,,,,,,,,,,,,,,,,,,,,,,,,,,,,,,,
