Condition,Low fixed image (Door1),Low risky image (Door2),High fixed image (Door3),High risky image (Door4),Extreme Wild Card,NonExtreme Wild Card,,date,expName,psychopyVersion,OS,frameRate,PROLIFIC_PID,STUDY_ID,SESSION_ID,mouse_2.x,mouse_2.y,mouse_2.leftButton,mouse_2.midButton,mouse_2.rightButton,mouse_2.clicked_name,Trial Type,Left Option Image,Right Option Image,Chosen Door,mouse.x,mouse.y,mouse.leftButton,mouse.midButton,mouse.rightButton,mouse.time,mouse.clicked_name,Feedback,Cumulative Reward,Block,trial.thisRepN,trial.thisTrialN,trial.thisN,trial.thisIndex,trial.ran,blocks.thisRepN,blocks.thisTrialN,blocks.thisN,blocks.thisIndex,blocks.ran,Money conversion,First Outcome Reported,Shown Door (First Outcome),Displayed Image (First Outcome),outcomes.thisRepN,outcomes.thisTrialN,outcomes.thisN,outcomes.thisIndex,outcomes.ran,judgments.thisRepN,judgments.thisTrialN,judgments.thisN,judgments.thisIndex,judgments.ran,freqMouse.x,freqMouse.y,freqMouse.leftButton,freqMouse.midButton,freqMouse.rightButton,freqMouse.clicked_name,FQJ for first outcome,FQJ for second outcome,Shown Door,Displayed Image,trials.thisRepN,trials.thisTrialN,trials.thisN,trials.thisIndex,trials.ran,judgBlock.thisRepN,judgBlock.thisTrialN,judgBlock.thisN,judgBlock.thisIndex,judgBlock.ran
1,resources/DR.BMP,resources/DG.BMP,resources/DBN.BMP,resources/DY.BMP,resources/DP.BMP,resources/DB.BMP,,2023-08-16_08h27.57.233,HF_wild_card,2022.2.4,Win32,59.54507562,59a7cfeb7ff2320001ec59d9,64d2fd46c836a06233681665,64dc7a5e405934a36ae2ece3,,,,,,,,,,,,,,,,,,,,,,,,,,,,,,,,,,,,,,,,,,,,,,,,,,,,,,,,,,,,,,,,
,,,,,,,,2023-08-16_08h27.57.233,HF_wild_card,2022.2.4,Win32,59.54507562,59a7cfeb7ff2320001ec59d9,64d2fd46c836a06233681665,64dc7a5e405934a36ae2ece3,-0.006481481,-0.422222222,1,0,0,agree,,,,,,,,,,,,,,,,,,,,,,,,,,,,,,,,,,,,,,,,,,,,,,,,,,,,,,,,,,
,,,,,,,,2023-08-16_08h27.57.233,HF_wild_card,2022.2.4,Win32,59.54507562,59a7cfeb7ff2320001ec59d9,64d2fd46c836a06233681665,64dc7a5e405934a36ae2ece3,,,,,,,,,,,,,,,,,,,,,,,,,,,,,,,,,,,,,,,,,,,,,,,,,,,,,,,,,,,,,,,,
,,,,,,,,2023-08-16_08h27.57.233,HF_wild_card,2022.2.4,Win32,59.54507562,59a7cfeb7ff2320001ec59d9,64d2fd46c836a06233681665,64dc7a5e405934a36ae2ece3,,,,,,,decisionTrl,resources/DBN.BMP,resources/DB.BMP,Door3,-0.37037037,-0.047222222,1,0,0,2.684,optionLeft,70,70,1,0,0,0,0,1,,,,,,,,,,,,,,,,,,,,,,,,,,,,,,,,,,,,,,,
,,,,,,,,2023-08-16_08h27.57.233,HF_wild_card,2022.2.4,Win32,59.54507562,59a7cfeb7ff2320001ec59d9,64d2fd46c836a06233681665,64dc7a5e405934a36ae2ece3,,,,,,,decisionTrl,resources/DY.BMP,resources/DB.BMP,WildCard_NonEx,0.364814815,-0.087962963,1,0,0,1.5818,optionRight,45,115,1,1,0,1,0,1,,,,,,,,,,,,,,,,,,,,,,,,,,,,,,,,,,,,,,,
,,,,,,,,2023-08-16_08h27.57.233,HF_wild_card,2022.2.4,Win32,59.54507562,59a7cfeb7ff2320001ec59d9,64d2fd46c836a06233681665,64dc7a5e405934a36ae2ece3,,,,,,,decisionTrl,resources/DR.BMP,resources/DB.BMP,Door1,-0.401851852,-0.015740741,1,0,0,1.317,optionLeft,30,145,1,2,0,2,0,1,,,,,,,,,,,,,,,,,,,,,,,,,,,,,,,,,,,,,,,
,,,,,,,,2023-08-16_08h27.57.233,HF_wild_card,2022.2.4,Win32,59.54507562,59a7cfeb7ff2320001ec59d9,64d2fd46c836a06233681665,64dc7a5e405934a36ae2ece3,,,,,,,ctch,resources/DG.BMP,resources/DBN.BMP,Door2,-0.346296296,-0.012962963,1,0,0,1.5678,optionLeft,20,165,1,3,0,3,0,1,,,,,,,,,,,,,,,,,,,,,,,,,,,,,,,,,,,,,,,
,,,,,,,,2023-08-16_08h27.57.233,HF_wild_card,2022.2.4,Win32,59.54507562,59a7cfeb7ff2320001ec59d9,64d2fd46c836a06233681665,64dc7a5e405934a36ae2ece3,,,,,,,sngl,resources/Empty.png,resources/DB.BMP,WildCard_NonEx,0.362962963,-0.055555556,1,0,0,2.2819,optionRight,55,220,1,4,0,4,0,1,,,,,,,,,,,,,,,,,,,,,,,,,,,,,,,,,,,,,,,
,,,,,,,,2023-08-16_08h27.57.233,HF_wild_card,2022.2.4,Win32,59.54507562,59a7cfeb7ff2320001ec59d9,64d2fd46c836a06233681665,64dc7a5e405934a36ae2ece3,,,,,,,sngl,resources/DB.BMP,resources/Empty.png,WildCard_NonEx,-0.462962963,0.035185185,1,0,0,1.1507,optionLeft,45,265,1,5,0,5,0,1,,,,,,,,,,,,,,,,,,,,,,,,,,,,,,,,,,,,,,,
,,,,,,,,2023-08-16_08h27.57.233,HF_wild_card,2022.2.4,Win32,59.54507562,59a7cfeb7ff2320001ec59d9,64d2fd46c836a06233681665,64dc7a5e405934a36ae2ece3,,,,,,,decisionTrl,resources/DBN.BMP,resources/DY.BMP,Door3,-0.336111111,0.003703704,1,0,0,0.8652,optionLeft,70,335,1,6,0,6,0,1,,,,,,,,,,,,,,,,,,,,,,,,,,,,,,,,,,,,,,,
,,,,,,,,2023-08-16_08h27.57.233,HF_wild_card,2022.2.4,Win32,59.54507562,59a7cfeb7ff2320001ec59d9,64d2fd46c836a06233681665,64dc7a5e405934a36ae2ece3,,,,,,,ctch,resources/DBN.BMP,resources/DG.BMP,Door3,-0.318518519,0.017592593,1,0,0,0.8317,optionLeft,70,405,1,7,0,7,0,1,,,,,,,,,,,,,,,,,,,,,,,,,,,,,,,,,,,,,,,
,,,,,,,,2023-08-16_08h27.57.233,HF_wild_card,2022.2.4,Win32,59.54507562,59a7cfeb7ff2320001ec59d9,64d2fd46c836a06233681665,64dc7a5e405934a36ae2ece3,,,,,,,decisionTrl,resources/DBN.BMP,resources/DY.BMP,Door3,-0.327777778,-0.015740741,1,0,0,0.9485,optionLeft,70,475,1,8,0,8,0,1,,,,,,,,,,,,,,,,,,,,,,,,,,,,,,,,,,,,,,,
,,,,,,,,2023-08-16_08h27.57.233,HF_wild_card,2022.2.4,Win32,59.54507562,59a7cfeb7ff2320001ec59d9,64d2fd46c836a06233681665,64dc7a5e405934a36ae2ece3,,,,,,,decisionTrl,resources/DY.BMP,resources/DBN.BMP,Door3,0.350925926,-0.026851852,1,0,0,0.9318,optionRight,70,545,1,9,0,9,0,1,,,,,,,,,,,,,,,,,,,,,,,,,,,,,,,,,,,,,,,
,,,,,,,,2023-08-16_08h27.57.233,HF_wild_card,2022.2.4,Win32,59.54507562,59a7cfeb7ff2320001ec59d9,64d2fd46c836a06233681665,64dc7a5e405934a36ae2ece3,,,,,,,sngl,resources/DB.BMP,resources/Empty.png,WildCard_NonEx,-0.247222222,-0.024074074,1,0,0,2.7626,optionLeft,55,600,1,10,0,10,0,1,,,,,,,,,,,,,,,,,,,,,,,,,,,,,,,,,,,,,,,
,,,,,,,,2023-08-16_08h27.57.233,HF_wild_card,2022.2.4,Win32,59.54507562,59a7cfeb7ff2320001ec59d9,64d2fd46c836a06233681665,64dc7a5e405934a36ae2ece3,,,,,,,ctch,resources/DR.BMP,resources/DY.BMP,Door1,-0.289814815,-0.00462963,1,0,0,1.3989,optionLeft,30,630,1,11,0,11,0,1,,,,,,,,,,,,,,,,,,,,,,,,,,,,,,,,,,,,,,,
,,,,,,,,2023-08-16_08h27.57.233,HF_wild_card,2022.2.4,Win32,59.54507562,59a7cfeb7ff2320001ec59d9,64d2fd46c836a06233681665,64dc7a5e405934a36ae2ece3,,,,,,,decisionTrl,resources/DR.BMP,resources/DG.BMP,Door2,0.35,-0.025925926,1,0,0,1.065,optionRight,20,650,1,12,0,12,0,1,,,,,,,,,,,,,,,,,,,,,,,,,,,,,,,,,,,,,,,
,,,,,,,,2023-08-16_08h27.57.233,HF_wild_card,2022.2.4,Win32,59.54507562,59a7cfeb7ff2320001ec59d9,64d2fd46c836a06233681665,64dc7a5e405934a36ae2ece3,,,,,,,decisionTrl,resources/DG.BMP,resources/DR.BMP,Door1,0.385185185,-0.044444444,1,0,0,2.8131,optionRight,30,680,1,13,0,13,0,1,,,,,,,,,,,,,,,,,,,,,,,,,,,,,,,,,,,,,,,
,,,,,,,,2023-08-16_08h27.57.233,HF_wild_card,2022.2.4,Win32,59.54507562,59a7cfeb7ff2320001ec59d9,64d2fd46c836a06233681665,64dc7a5e405934a36ae2ece3,,,,,,,decisionTrl,resources/DBN.BMP,resources/DY.BMP,Door3,-0.426851852,0.025925926,1,0,0,0.7814,optionLeft,70,750,1,14,0,14,0,1,,,,,,,,,,,,,,,,,,,,,,,,,,,,,,,,,,,,,,,
,,,,,,,,2023-08-16_08h27.57.233,HF_wild_card,2022.2.4,Win32,59.54507562,59a7cfeb7ff2320001ec59d9,64d2fd46c836a06233681665,64dc7a5e405934a36ae2ece3,,,,,,,ctch,resources/DY.BMP,resources/DR.BMP,Door4,-0.318518519,-0.036111111,1,0,0,2.0484,optionLeft,80,830,1,15,0,15,0,1,,,,,,,,,,,,,,,,,,,,,,,,,,,,,,,,,,,,,,,
,,,,,,,,2023-08-16_08h27.57.233,HF_wild_card,2022.2.4,Win32,59.54507562,59a7cfeb7ff2320001ec59d9,64d2fd46c836a06233681665,64dc7a5e405934a36ae2ece3,,,,,,,decisionTrl,resources/DR.BMP,resources/DG.BMP,Door1,-0.387037037,-0.048148148,1,0,0,2.1482,optionLeft,30,860,1,16,0,16,0,1,,,,,,,,,,,,,,,,,,,,,,,,,,,,,,,,,,,,,,,
,,,,,,,,2023-08-16_08h27.57.233,HF_wild_card,2022.2.4,Win32,59.54507562,59a7cfeb7ff2320001ec59d9,64d2fd46c836a06233681665,64dc7a5e405934a36ae2ece3,,,,,,,sngl,resources/DR.BMP,resources/Empty.png,Door1,-0.35462963,0.012037037,1,0,0,1.0969,optionLeft,30,890,1,17,0,17,0,1,,,,,,,,,,,,,,,,,,,,,,,,,,,,,,,,,,,,,,,
,,,,,,,,2023-08-16_08h27.57.233,HF_wild_card,2022.2.4,Win32,59.54507562,59a7cfeb7ff2320001ec59d9,64d2fd46c836a06233681665,64dc7a5e405934a36ae2ece3,,,,,,,sngl,resources/Empty.png,resources/DB.BMP,WildCard_NonEx,0.241666667,-0.02962963,1,0,0,1.0484,optionRight,45,935,1,18,0,18,0,1,,,,,,,,,,,,,,,,,,,,,,,,,,,,,,,,,,,,,,,
,,,,,,,,2023-08-16_08h27.57.233,HF_wild_card,2022.2.4,Win32,59.54507562,59a7cfeb7ff2320001ec59d9,64d2fd46c836a06233681665,64dc7a5e405934a36ae2ece3,,,,,,,decisionTrl,resources/DY.BMP,resources/DBN.BMP,Door3,0.402777778,-0.05,1,0,0,1.0652,optionRight,70,1005,1,19,0,19,0,1,,,,,,,,,,,,,,,,,,,,,,,,,,,,,,,,,,,,,,,
,,,,,,,,2023-08-16_08h27.57.233,HF_wild_card,2022.2.4,Win32,59.54507562,59a7cfeb7ff2320001ec59d9,64d2fd46c836a06233681665,64dc7a5e405934a36ae2ece3,,,,,,,sngl,resources/DY.BMP,resources/Empty.png,Door4,-0.387962963,0.017592593,1,0,0,0.6319,optionLeft,80,1085,1,20,0,20,0,1,,,,,,,,,,,,,,,,,,,,,,,,,,,,,,,,,,,,,,,
,,,,,,,,2023-08-16_08h27.57.233,HF_wild_card,2022.2.4,Win32,59.54507562,59a7cfeb7ff2320001ec59d9,64d2fd46c836a06233681665,64dc7a5e405934a36ae2ece3,,,,,,,sngl,resources/Empty.png,resources/DBN.BMP,Door3,0.269444444,-0.04537037,1,0,0,0.7341,optionRight,70,1155,1,21,0,21,0,1,,,,,,,,,,,,,,,,,,,,,,,,,,,,,,,,,,,,,,,
,,,,,,,,2023-08-16_08h27.57.233,HF_wild_card,2022.2.4,Win32,59.54507562,59a7cfeb7ff2320001ec59d9,64d2fd46c836a06233681665,64dc7a5e405934a36ae2ece3,,,,,,,sngl,resources/Empty.png,resources/DR.BMP,Door1,0.264814815,-0.059259259,1,0,0,0.8815,optionRight,30,1185,1,22,0,22,0,1,,,,,,,,,,,,,,,,,,,,,,,,,,,,,,,,,,,,,,,
,,,,,,,,2023-08-16_08h27.57.233,HF_wild_card,2022.2.4,Win32,59.54507562,59a7cfeb7ff2320001ec59d9,64d2fd46c836a06233681665,64dc7a5e405934a36ae2ece3,,,,,,,decisionTrl,resources/DY.BMP,resources/DBN.BMP,Door4,-0.318518519,-0.077777778,1,0,0,1.3809,optionLeft,60,1245,1,23,0,23,0,1,,,,,,,,,,,,,,,,,,,,,,,,,,,,,,,,,,,,,,,
,,,,,,,,2023-08-16_08h27.57.233,HF_wild_card,2022.2.4,Win32,59.54507562,59a7cfeb7ff2320001ec59d9,64d2fd46c836a06233681665,64dc7a5e405934a36ae2ece3,,,,,,,decisionTrl,resources/DB.BMP,resources/DY.BMP,Door4,0.263888889,-0.074074074,1,0,0,1.2631,optionRight,60,1305,1,24,0,24,0,1,,,,,,,,,,,,,,,,,,,,,,,,,,,,,,,,,,,,,,,
,,,,,,,,2023-08-16_08h27.57.233,HF_wild_card,2022.2.4,Win32,59.54507562,59a7cfeb7ff2320001ec59d9,64d2fd46c836a06233681665,64dc7a5e405934a36ae2ece3,,,,,,,decisionTrl,resources/DR.BMP,resources/DG.BMP,Door1,-0.306481481,-0.087037037,1,0,0,2.9483,optionLeft,30,1335,1,25,0,25,0,1,,,,,,,,,,,,,,,,,,,,,,,,,,,,,,,,,,,,,,,
,,,,,,,,2023-08-16_08h27.57.233,HF_wild_card,2022.2.4,Win32,59.54507562,59a7cfeb7ff2320001ec59d9,64d2fd46c836a06233681665,64dc7a5e405934a36ae2ece3,,,,,,,decisionTrl,resources/DG.BMP,resources/DR.BMP,Door1,0.337037037,-0.061111111,1,0,0,0.9149,optionRight,30,1365,1,26,0,26,0,1,,,,,,,,,,,,,,,,,,,,,,,,,,,,,,,,,,,,,,,
,,,,,,,,2023-08-16_08h27.57.233,HF_wild_card,2022.2.4,Win32,59.54507562,59a7cfeb7ff2320001ec59d9,64d2fd46c836a06233681665,64dc7a5e405934a36ae2ece3,,,,,,,sngl,resources/Empty.png,resources/DG.BMP,Door2,0.301851852,-0.094444444,1,0,0,0.9508,optionRight,20,1385,1,27,0,27,0,1,,,,,,,,,,,,,,,,,,,,,,,,,,,,,,,,,,,,,,,
,,,,,,,,2023-08-16_08h27.57.233,HF_wild_card,2022.2.4,Win32,59.54507562,59a7cfeb7ff2320001ec59d9,64d2fd46c836a06233681665,64dc7a5e405934a36ae2ece3,,,,,,,decisionTrl,resources/DR.BMP,resources/DG.BMP,Door1,-0.344444444,-0.071296296,1,0,0,0.9787,optionLeft,30,1415,1,28,0,28,0,1,,,,,,,,,,,,,,,,,,,,,,,,,,,,,,,,,,,,,,,
,,,,,,,,2023-08-16_08h27.57.233,HF_wild_card,2022.2.4,Win32,59.54507562,59a7cfeb7ff2320001ec59d9,64d2fd46c836a06233681665,64dc7a5e405934a36ae2ece3,,,,,,,decisionTrl,resources/DB.BMP,resources/DG.BMP,WildCard_NonEx,-0.350925926,-0.05462963,1,0,0,5.0816,optionLeft,45,1460,1,29,0,29,0,1,,,,,,,,,,,,,,,,,,,,,,,,,,,,,,,,,,,,,,,
,,,,,,,,2023-08-16_08h27.57.233,HF_wild_card,2022.2.4,Win32,59.54507562,59a7cfeb7ff2320001ec59d9,64d2fd46c836a06233681665,64dc7a5e405934a36ae2ece3,,,,,,,ctch,resources/DBN.BMP,resources/DG.BMP,Door3,-0.30462963,-0.030555556,1,0,0,0.9655,optionLeft,70,1530,1,30,0,30,0,1,,,,,,,,,,,,,,,,,,,,,,,,,,,,,,,,,,,,,,,
,,,,,,,,2023-08-16_08h27.57.233,HF_wild_card,2022.2.4,Win32,59.54507562,59a7cfeb7ff2320001ec59d9,64d2fd46c836a06233681665,64dc7a5e405934a36ae2ece3,,,,,,,decisionTrl,resources/DB.BMP,resources/DR.BMP,WildCard_NonEx,-0.401851852,-0.035185185,1,0,0,2.1983,optionLeft,55,1585,1,31,0,31,0,1,,,,,,,,,,,,,,,,,,,,,,,,,,,,,,,,,,,,,,,
,,,,,,,,2023-08-16_08h27.57.233,HF_wild_card,2022.2.4,Win32,59.54507562,59a7cfeb7ff2320001ec59d9,64d2fd46c836a06233681665,64dc7a5e405934a36ae2ece3,,,,,,,ctch,resources/DR.BMP,resources/DY.BMP,Door4,0.302777778,-0.07962963,1,0,0,1.2793,optionRight,60,1645,1,32,0,32,0,1,,,,,,,,,,,,,,,,,,,,,,,,,,,,,,,,,,,,,,,
,,,,,,,,2023-08-16_08h27.57.233,HF_wild_card,2022.2.4,Win32,59.54507562,59a7cfeb7ff2320001ec59d9,64d2fd46c836a06233681665,64dc7a5e405934a36ae2ece3,,,,,,,sngl,resources/DBN.BMP,resources/Empty.png,Door3,-0.322222222,-0.027777778,1,0,0,0.73,optionLeft,70,1715,1,33,0,33,0,1,,,,,,,,,,,,,,,,,,,,,,,,,,,,,,,,,,,,,,,
,,,,,,,,2023-08-16_08h27.57.233,HF_wild_card,2022.2.4,Win32,59.54507562,59a7cfeb7ff2320001ec59d9,64d2fd46c836a06233681665,64dc7a5e405934a36ae2ece3,,,,,,,sngl,resources/Empty.png,resources/DY.BMP,Door4,0.242592593,-0.022222222,1,0,0,1.8643,optionRight,60,1775,1,34,0,34,0,1,,,,,,,,,,,,,,,,,,,,,,,,,,,,,,,,,,,,,,,
,,,,,,,,2023-08-16_08h27.57.233,HF_wild_card,2022.2.4,Win32,59.54507562,59a7cfeb7ff2320001ec59d9,64d2fd46c836a06233681665,64dc7a5e405934a36ae2ece3,,,,,,,sngl,resources/DG.BMP,resources/Empty.png,Door2,-0.20462963,-0.012962963,1,0,0,0.9172,optionLeft,40,1815,1,35,0,35,0,1,,,,,,,,,,,,,,,,,,,,,,,,,,,,,,,,,,,,,,,
,,,,,,,,2023-08-16_08h27.57.233,HF_wild_card,2022.2.4,Win32,59.54507562,59a7cfeb7ff2320001ec59d9,64d2fd46c836a06233681665,64dc7a5e405934a36ae2ece3,,,,,,,decisionTrl,resources/DBN.BMP,resources/DY.BMP,Door3,-0.286111111,-0.025,1,0,0,0.8818,optionLeft,70,1885,1,36,0,36,0,1,,,,,,,,,,,,,,,,,,,,,,,,,,,,,,,,,,,,,,,
,,,,,,,,2023-08-16_08h27.57.233,HF_wild_card,2022.2.4,Win32,59.54507562,59a7cfeb7ff2320001ec59d9,64d2fd46c836a06233681665,64dc7a5e405934a36ae2ece3,,,,,,,ctch,resources/DG.BMP,resources/DBN.BMP,Door3,0.247222222,-0.026851852,1,0,0,0.9818,optionRight,70,1955,1,37,0,37,0,1,,,,,,,,,,,,,,,,,,,,,,,,,,,,,,,,,,,,,,,
,,,,,,,,2023-08-16_08h27.57.233,HF_wild_card,2022.2.4,Win32,59.54507562,59a7cfeb7ff2320001ec59d9,64d2fd46c836a06233681665,64dc7a5e405934a36ae2ece3,,,,,,,decisionTrl,resources/DY.BMP,resources/DBN.BMP,Door4,-0.281481481,-0.012037037,1,0,0,0.8464,optionLeft,60,2015,1,38,0,38,0,1,,,,,,,,,,,,,,,,,,,,,,,,,,,,,,,,,,,,,,,
,,,,,,,,2023-08-16_08h27.57.233,HF_wild_card,2022.2.4,Win32,59.54507562,59a7cfeb7ff2320001ec59d9,64d2fd46c836a06233681665,64dc7a5e405934a36ae2ece3,,,,,,,decisionTrl,resources/DG.BMP,resources/DB.BMP,WildCard_NonEx,0.319444444,-0.057407407,1,0,0,1.5147,optionRight,45,2060,1,39,0,39,0,1,,,,,,,,,,,,,,,,,,,,,,,,,,,,,,,,,,,,,,,
,,,,,,,,2023-08-16_08h27.57.233,HF_wild_card,2022.2.4,Win32,59.54507562,59a7cfeb7ff2320001ec59d9,64d2fd46c836a06233681665,64dc7a5e405934a36ae2ece3,,,,,,,decisionTrl,resources/DB.BMP,resources/DBN.BMP,Door3,0.371296296,-0.057407407,1,0,0,0.8652,optionRight,70,2130,1,40,0,40,0,1,,,,,,,,,,,,,,,,,,,,,,,,,,,,,,,,,,,,,,,
,,,,,,,,2023-08-16_08h27.57.233,HF_wild_card,2022.2.4,Win32,59.54507562,59a7cfeb7ff2320001ec59d9,64d2fd46c836a06233681665,64dc7a5e405934a36ae2ece3,,,,,,,decisionTrl,resources/DG.BMP,resources/DR.BMP,Door1,0.276851852,-0.053703704,1,0,0,1.2652,optionRight,30,2160,1,41,0,41,0,1,,,,,,,,,,,,,,,,,,,,,,,,,,,,,,,,,,,,,,,
,,,,,,,,2023-08-16_08h27.57.233,HF_wild_card,2022.2.4,Win32,59.54507562,59a7cfeb7ff2320001ec59d9,64d2fd46c836a06233681665,64dc7a5e405934a36ae2ece3,,,,,,,ctch,resources/DY.BMP,resources/DR.BMP,Door4,-0.276851852,-0.011111111,1,0,0,1.0144,optionLeft,80,2240,1,42,0,42,0,1,,,,,,,,,,,,,,,,,,,,,,,,,,,,,,,,,,,,,,,
,,,,,,,,2023-08-16_08h27.57.233,HF_wild_card,2022.2.4,Win32,59.54507562,59a7cfeb7ff2320001ec59d9,64d2fd46c836a06233681665,64dc7a5e405934a36ae2ece3,,,,,,,decisionTrl,resources/DG.BMP,resources/DR.BMP,Door1,0.27037037,-0.07037037,1,0,0,1.1012,optionRight,30,2270,1,43,0,43,0,1,,,,,,,,,,,,,,,,,,,,,,,,,,,,,,,,,,,,,,,
,,,,,,,,2023-08-16_08h27.57.233,HF_wild_card,2022.2.4,Win32,59.54507562,59a7cfeb7ff2320001ec59d9,64d2fd46c836a06233681665,64dc7a5e405934a36ae2ece3,,,,,,,,,,,,,,,,,,,,,,,,,,0,0,0,0,1,,,,,,,,,,,,,,,,,,,,,,,,,,,,,,,,,,
,,,,,,,,2023-08-16_08h27.57.233,HF_wild_card,2022.2.4,Win32,59.54507562,59a7cfeb7ff2320001ec59d9,64d2fd46c836a06233681665,64dc7a5e405934a36ae2ece3,,,,,,,sngl,resources/DB.BMP,resources/Empty.png,WildCard_NonEx,-0.402777778,-0.027777778,1,0,0,1.3897,optionLeft,55,2325,2,0,0,0,0,1,,,,,,,,,,,,,,,,,,,,,,,,,,,,,,,,,,,,,,,
,,,,,,,,2023-08-16_08h27.57.233,HF_wild_card,2022.2.4,Win32,59.54507562,59a7cfeb7ff2320001ec59d9,64d2fd46c836a06233681665,64dc7a5e405934a36ae2ece3,,,,,,,decisionTrl,resources/DR.BMP,resources/DG.BMP,Door1,-0.238888889,0.042592593,1,0,0,1.665,optionLeft,30,2355,2,1,0,1,0,1,,,,,,,,,,,,,,,,,,,,,,,,,,,,,,,,,,,,,,,
,,,,,,,,2023-08-16_08h27.57.233,HF_wild_card,2022.2.4,Win32,59.54507562,59a7cfeb7ff2320001ec59d9,64d2fd46c836a06233681665,64dc7a5e405934a36ae2ece3,,,,,,,decisionTrl,resources/DR.BMP,resources/DG.BMP,Door1,-0.244444444,0.007407407,1,0,0,0.7342,optionLeft,30,2385,2,2,0,2,0,1,,,,,,,,,,,,,,,,,,,,,,,,,,,,,,,,,,,,,,,
,,,,,,,,2023-08-16_08h27.57.233,HF_wild_card,2022.2.4,Win32,59.54507562,59a7cfeb7ff2320001ec59d9,64d2fd46c836a06233681665,64dc7a5e405934a36ae2ece3,,,,,,,ctch,resources/DY.BMP,resources/DR.BMP,Door4,-0.318518519,0.011111111,1,0,0,0.8981,optionLeft,60,2445,2,3,0,3,0,1,,,,,,,,,,,,,,,,,,,,,,,,,,,,,,,,,,,,,,,
,,,,,,,,2023-08-16_08h27.57.233,HF_wild_card,2022.2.4,Win32,59.54507562,59a7cfeb7ff2320001ec59d9,64d2fd46c836a06233681665,64dc7a5e405934a36ae2ece3,,,,,,,decisionTrl,resources/DB.BMP,resources/DR.BMP,WildCard_NonEx,-0.338888889,-0.013888889,1,0,0,1.4484,optionLeft,55,2500,2,4,0,4,0,1,,,,,,,,,,,,,,,,,,,,,,,,,,,,,,,,,,,,,,,
,,,,,,,,2023-08-16_08h27.57.233,HF_wild_card,2022.2.4,Win32,59.54507562,59a7cfeb7ff2320001ec59d9,64d2fd46c836a06233681665,64dc7a5e405934a36ae2ece3,,,,,,,sngl,resources/DY.BMP,resources/Empty.png,Door4,-0.246296296,-0.006481481,1,0,0,0.7823,optionLeft,60,2560,2,5,0,5,0,1,,,,,,,,,,,,,,,,,,,,,,,,,,,,,,,,,,,,,,,
,,,,,,,,2023-08-16_08h27.57.233,HF_wild_card,2022.2.4,Win32,59.54507562,59a7cfeb7ff2320001ec59d9,64d2fd46c836a06233681665,64dc7a5e405934a36ae2ece3,,,,,,,decisionTrl,resources/DY.BMP,resources/DBN.BMP,Door3,0.319444444,-0.010185185,1,0,0,2.5171,optionRight,70,2630,2,6,0,6,0,1,,,,,,,,,,,,,,,,,,,,,,,,,,,,,,,,,,,,,,,
,,,,,,,,2023-08-16_08h27.57.233,HF_wild_card,2022.2.4,Win32,59.54507562,59a7cfeb7ff2320001ec59d9,64d2fd46c836a06233681665,64dc7a5e405934a36ae2ece3,,,,,,,decisionTrl,resources/DY.BMP,resources/DBN.BMP,Door3,0.324074074,-0.037037037,1,0,0,1.1985,optionRight,70,2700,2,7,0,7,0,1,,,,,,,,,,,,,,,,,,,,,,,,,,,,,,,,,,,,,,,
,,,,,,,,2023-08-16_08h27.57.233,HF_wild_card,2022.2.4,Win32,59.54507562,59a7cfeb7ff2320001ec59d9,64d2fd46c836a06233681665,64dc7a5e405934a36ae2ece3,,,,,,,ctch,resources/DR.BMP,resources/DY.BMP,Door4,0.327777778,-0.049074074,1,0,0,0.8638,optionRight,80,2780,2,8,0,8,0,1,,,,,,,,,,,,,,,,,,,,,,,,,,,,,,,,,,,,,,,
,,,,,,,,2023-08-16_08h27.57.233,HF_wild_card,2022.2.4,Win32,59.54507562,59a7cfeb7ff2320001ec59d9,64d2fd46c836a06233681665,64dc7a5e405934a36ae2ece3,,,,,,,decisionTrl,resources/DY.BMP,resources/DBN.BMP,Door4,-0.298148148,0.001851852,1,0,0,0.8315,optionLeft,60,2840,2,9,0,9,0,1,,,,,,,,,,,,,,,,,,,,,,,,,,,,,,,,,,,,,,,
,,,,,,,,2023-08-16_08h27.57.233,HF_wild_card,2022.2.4,Win32,59.54507562,59a7cfeb7ff2320001ec59d9,64d2fd46c836a06233681665,64dc7a5e405934a36ae2ece3,,,,,,,sngl,resources/DR.BMP,resources/Empty.png,Door1,-0.222222222,0,1,0,0,0.8652,optionLeft,30,2870,2,10,0,10,0,1,,,,,,,,,,,,,,,,,,,,,,,,,,,,,,,,,,,,,,,
,,,,,,,,2023-08-16_08h27.57.233,HF_wild_card,2022.2.4,Win32,59.54507562,59a7cfeb7ff2320001ec59d9,64d2fd46c836a06233681665,64dc7a5e405934a36ae2ece3,,,,,,,decisionTrl,resources/DR.BMP,resources/DB.BMP,WildCard_NonEx,0.267592593,-0.039814815,1,0,0,1.2318,optionRight,45,2915,2,11,0,11,0,1,,,,,,,,,,,,,,,,,,,,,,,,,,,,,,,,,,,,,,,
,,,,,,,,2023-08-16_08h27.57.233,HF_wild_card,2022.2.4,Win32,59.54507562,59a7cfeb7ff2320001ec59d9,64d2fd46c836a06233681665,64dc7a5e405934a36ae2ece3,,,,,,,ctch,resources/DY.BMP,resources/DR.BMP,Door4,-0.317592593,0,1,0,0,0.9324,optionLeft,80,2995,2,12,0,12,0,1,,,,,,,,,,,,,,,,,,,,,,,,,,,,,,,,,,,,,,,
,,,,,,,,2023-08-16_08h27.57.233,HF_wild_card,2022.2.4,Win32,59.54507562,59a7cfeb7ff2320001ec59d9,64d2fd46c836a06233681665,64dc7a5e405934a36ae2ece3,,,,,,,decisionTrl,resources/DBN.BMP,resources/DY.BMP,Door4,0.22037037,-0.034259259,1,0,0,1.701,optionRight,60,3055,2,13,0,13,0,1,,,,,,,,,,,,,,,,,,,,,,,,,,,,,,,,,,,,,,,
,,,,,,,,2023-08-16_08h27.57.233,HF_wild_card,2022.2.4,Win32,59.54507562,59a7cfeb7ff2320001ec59d9,64d2fd46c836a06233681665,64dc7a5e405934a36ae2ece3,,,,,,,sngl,resources/Empty.png,resources/DG.BMP,Door2,0.237962963,-0.038888889,1,0,0,1.21,optionRight,40,3095,2,14,0,14,0,1,,,,,,,,,,,,,,,,,,,,,,,,,,,,,,,,,,,,,,,
,,,,,,,,2023-08-16_08h27.57.233,HF_wild_card,2022.2.4,Win32,59.54507562,59a7cfeb7ff2320001ec59d9,64d2fd46c836a06233681665,64dc7a5e405934a36ae2ece3,,,,,,,decisionTrl,resources/DG.BMP,resources/DR.BMP,Door1,0.461111111,-0.101851852,1,0,0,1.0298,optionRight,30,3125,2,15,0,15,0,1,,,,,,,,,,,,,,,,,,,,,,,,,,,,,,,,,,,,,,,
,,,,,,,,2023-08-16_08h27.57.233,HF_wild_card,2022.2.4,Win32,59.54507562,59a7cfeb7ff2320001ec59d9,64d2fd46c836a06233681665,64dc7a5e405934a36ae2ece3,,,,,,,decisionTrl,resources/DY.BMP,resources/DB.BMP,Door4,-0.300925926,-0.017592593,1,0,0,0.7838,optionLeft,80,3205,2,16,0,16,0,1,,,,,,,,,,,,,,,,,,,,,,,,,,,,,,,,,,,,,,,
,,,,,,,,2023-08-16_08h27.57.233,HF_wild_card,2022.2.4,Win32,59.54507562,59a7cfeb7ff2320001ec59d9,64d2fd46c836a06233681665,64dc7a5e405934a36ae2ece3,,,,,,,sngl,resources/Empty.png,resources/DB.BMP,WildCard_NonEx,0.238888889,-0.052777778,1,0,0,0.7152,optionRight,45,3250,2,17,0,17,0,1,,,,,,,,,,,,,,,,,,,,,,,,,,,,,,,,,,,,,,,
,,,,,,,,2023-08-16_08h27.57.233,HF_wild_card,2022.2.4,Win32,59.54507562,59a7cfeb7ff2320001ec59d9,64d2fd46c836a06233681665,64dc7a5e405934a36ae2ece3,,,,,,,ctch,resources/DG.BMP,resources/DBN.BMP,Door3,0.255555556,-0.066666667,1,0,0,0.985,optionRight,70,3320,2,18,0,18,0,1,,,,,,,,,,,,,,,,,,,,,,,,,,,,,,,,,,,,,,,
,,,,,,,,2023-08-16_08h27.57.233,HF_wild_card,2022.2.4,Win32,59.54507562,59a7cfeb7ff2320001ec59d9,64d2fd46c836a06233681665,64dc7a5e405934a36ae2ece3,,,,,,,decisionTrl,resources/DBN.BMP,resources/DY.BMP,Door4,0.392592593,-0.067592593,1,0,0,2.4656,optionRight,80,3400,2,19,0,19,0,1,,,,,,,,,,,,,,,,,,,,,,,,,,,,,,,,,,,,,,,
,,,,,,,,2023-08-16_08h27.57.233,HF_wild_card,2022.2.4,Win32,59.54507562,59a7cfeb7ff2320001ec59d9,64d2fd46c836a06233681665,64dc7a5e405934a36ae2ece3,,,,,,,decisionTrl,resources/DG.BMP,resources/DR.BMP,Door1,0.35462963,-0.061111111,1,0,0,2.0161,optionRight,30,3430,2,20,0,20,0,1,,,,,,,,,,,,,,,,,,,,,,,,,,,,,,,,,,,,,,,
,,,,,,,,2023-08-16_08h27.57.233,HF_wild_card,2022.2.4,Win32,59.54507562,59a7cfeb7ff2320001ec59d9,64d2fd46c836a06233681665,64dc7a5e405934a36ae2ece3,,,,,,,decisionTrl,resources/DR.BMP,resources/DG.BMP,Door1,-0.37037037,-0.02037037,1,0,0,1.9648,optionLeft,30,3460,2,21,0,21,0,1,,,,,,,,,,,,,,,,,,,,,,,,,,,,,,,,,,,,,,,
,,,,,,,,2023-08-16_08h27.57.233,HF_wild_card,2022.2.4,Win32,59.54507562,59a7cfeb7ff2320001ec59d9,64d2fd46c836a06233681665,64dc7a5e405934a36ae2ece3,,,,,,,decisionTrl,resources/DG.BMP,resources/DR.BMP,Door1,0.260185185,-0.058333333,1,0,0,1.0837,optionRight,30,3490,2,22,0,22,0,1,,,,,,,,,,,,,,,,,,,,,,,,,,,,,,,,,,,,,,,
,,,,,,,,2023-08-16_08h27.57.233,HF_wild_card,2022.2.4,Win32,59.54507562,59a7cfeb7ff2320001ec59d9,64d2fd46c836a06233681665,64dc7a5e405934a36ae2ece3,,,,,,,decisionTrl,resources/DBN.BMP,resources/DY.BMP,Door4,0.286111111,-0.05,1,0,0,1.4991,optionRight,80,3570,2,23,0,23,0,1,,,,,,,,,,,,,,,,,,,,,,,,,,,,,,,,,,,,,,,
,,,,,,,,2023-08-16_08h27.57.233,HF_wild_card,2022.2.4,Win32,59.54507562,59a7cfeb7ff2320001ec59d9,64d2fd46c836a06233681665,64dc7a5e405934a36ae2ece3,,,,,,,sngl,resources/DBN.BMP,resources/Empty.png,Door3,-0.331481481,0.000925926,1,0,0,0.8984,optionLeft,70,3640,2,24,0,24,0,1,,,,,,,,,,,,,,,,,,,,,,,,,,,,,,,,,,,,,,,
,,,,,,,,2023-08-16_08h27.57.233,HF_wild_card,2022.2.4,Win32,59.54507562,59a7cfeb7ff2320001ec59d9,64d2fd46c836a06233681665,64dc7a5e405934a36ae2ece3,,,,,,,sngl,resources/DB.BMP,resources/Empty.png,WildCard_NonEx,-0.262037037,-0.009259259,1,0,0,0.8648,optionLeft,45,3685,2,25,0,25,0,1,,,,,,,,,,,,,,,,,,,,,,,,,,,,,,,,,,,,,,,
,,,,,,,,2023-08-16_08h27.57.233,HF_wild_card,2022.2.4,Win32,59.54507562,59a7cfeb7ff2320001ec59d9,64d2fd46c836a06233681665,64dc7a5e405934a36ae2ece3,,,,,,,ctch,resources/DG.BMP,resources/DBN.BMP,Door3,0.360185185,-0.094444444,1,0,0,1.2647,optionRight,70,3755,2,26,0,26,0,1,,,,,,,,,,,,,,,,,,,,,,,,,,,,,,,,,,,,,,,
,,,,,,,,2023-08-16_08h27.57.233,HF_wild_card,2022.2.4,Win32,59.54507562,59a7cfeb7ff2320001ec59d9,64d2fd46c836a06233681665,64dc7a5e405934a36ae2ece3,,,,,,,decisionTrl,resources/DR.BMP,resources/DG.BMP,Door1,-0.302777778,-0.044444444,1,0,0,1.5985,optionLeft,30,3785,2,27,0,27,0,1,,,,,,,,,,,,,,,,,,,,,,,,,,,,,,,,,,,,,,,
,,,,,,,,2023-08-16_08h27.57.233,HF_wild_card,2022.2.4,Win32,59.54507562,59a7cfeb7ff2320001ec59d9,64d2fd46c836a06233681665,64dc7a5e405934a36ae2ece3,,,,,,,ctch,resources/DR.BMP,resources/DY.BMP,Door4,0.323148148,-0.09537037,1,0,0,1.0992,optionRight,80,3865,2,28,0,28,0,1,,,,,,,,,,,,,,,,,,,,,,,,,,,,,,,,,,,,,,,
,,,,,,,,2023-08-16_08h27.57.233,HF_wild_card,2022.2.4,Win32,59.54507562,59a7cfeb7ff2320001ec59d9,64d2fd46c836a06233681665,64dc7a5e405934a36ae2ece3,,,,,,,ctch,resources/DBN.BMP,resources/DG.BMP,Door3,-0.380555556,-0.043518519,1,0,0,1.1316,optionLeft,70,3935,2,29,0,29,0,1,,,,,,,,,,,,,,,,,,,,,,,,,,,,,,,,,,,,,,,
,,,,,,,,2023-08-16_08h27.57.233,HF_wild_card,2022.2.4,Win32,59.54507562,59a7cfeb7ff2320001ec59d9,64d2fd46c836a06233681665,64dc7a5e405934a36ae2ece3,,,,,,,decisionTrl,resources/DY.BMP,resources/DBN.BMP,Door3,0.350925926,-0.036111111,1,0,0,4.6989,optionRight,70,4005,2,30,0,30,0,1,,,,,,,,,,,,,,,,,,,,,,,,,,,,,,,,,,,,,,,
,,,,,,,,2023-08-16_08h27.57.233,HF_wild_card,2022.2.4,Win32,59.54507562,59a7cfeb7ff2320001ec59d9,64d2fd46c836a06233681665,64dc7a5e405934a36ae2ece3,,,,,,,decisionTrl,resources/DB.BMP,resources/DY.BMP,Door4,0.37037037,-0.100925926,1,0,0,1.4987,optionRight,60,4065,2,31,0,31,0,1,,,,,,,,,,,,,,,,,,,,,,,,,,,,,,,,,,,,,,,
,,,,,,,,2023-08-16_08h27.57.233,HF_wild_card,2022.2.4,Win32,59.54507562,59a7cfeb7ff2320001ec59d9,64d2fd46c836a06233681665,64dc7a5e405934a36ae2ece3,,,,,,,decisionTrl,resources/DB.BMP,resources/DG.BMP,WildCard_NonEx,-0.342592593,-0.062962963,1,0,0,1.3962,optionLeft,55,4120,2,32,0,32,0,1,,,,,,,,,,,,,,,,,,,,,,,,,,,,,,,,,,,,,,,
,,,,,,,,2023-08-16_08h27.57.233,HF_wild_card,2022.2.4,Win32,59.54507562,59a7cfeb7ff2320001ec59d9,64d2fd46c836a06233681665,64dc7a5e405934a36ae2ece3,,,,,,,decisionTrl,resources/DBN.BMP,resources/DY.BMP,Door4,0.355555556,-0.084259259,1,0,0,2.6513,optionRight,60,4180,2,33,0,33,0,1,,,,,,,,,,,,,,,,,,,,,,,,,,,,,,,,,,,,,,,
,,,,,,,,2023-08-16_08h27.57.233,HF_wild_card,2022.2.4,Win32,59.54507562,59a7cfeb7ff2320001ec59d9,64d2fd46c836a06233681665,64dc7a5e405934a36ae2ece3,,,,,,,sngl,resources/Empty.png,resources/DB.BMP,WildCard_NonEx,0.351851852,-0.07962963,1,0,0,0.898,optionRight,55,4235,2,34,0,34,0,1,,,,,,,,,,,,,,,,,,,,,,,,,,,,,,,,,,,,,,,
,,,,,,,,2023-08-16_08h27.57.233,HF_wild_card,2022.2.4,Win32,59.54507562,59a7cfeb7ff2320001ec59d9,64d2fd46c836a06233681665,64dc7a5e405934a36ae2ece3,,,,,,,decisionTrl,resources/DBN.BMP,resources/DB.BMP,Door3,-0.342592593,-0.00462963,1,0,0,0.9485,optionLeft,70,4305,2,35,0,35,0,1,,,,,,,,,,,,,,,,,,,,,,,,,,,,,,,,,,,,,,,
,,,,,,,,2023-08-16_08h27.57.233,HF_wild_card,2022.2.4,Win32,59.54507562,59a7cfeb7ff2320001ec59d9,64d2fd46c836a06233681665,64dc7a5e405934a36ae2ece3,,,,,,,sngl,resources/Empty.png,resources/DR.BMP,Door1,0.330555556,-0.09537037,1,0,0,0.9649,optionRight,30,4335,2,36,0,36,0,1,,,,,,,,,,,,,,,,,,,,,,,,,,,,,,,,,,,,,,,
,,,,,,,,2023-08-16_08h27.57.233,HF_wild_card,2022.2.4,Win32,59.54507562,59a7cfeb7ff2320001ec59d9,64d2fd46c836a06233681665,64dc7a5e405934a36ae2ece3,,,,,,,decisionTrl,resources/DG.BMP,resources/DR.BMP,Door1,0.302777778,-0.062037037,1,0,0,0.9823,optionRight,30,4365,2,37,0,37,0,1,,,,,,,,,,,,,,,,,,,,,,,,,,,,,,,,,,,,,,,
,,,,,,,,2023-08-16_08h27.57.233,HF_wild_card,2022.2.4,Win32,59.54507562,59a7cfeb7ff2320001ec59d9,64d2fd46c836a06233681665,64dc7a5e405934a36ae2ece3,,,,,,,sngl,resources/DG.BMP,resources/Empty.png,Door2,-0.264814815,-0.005555556,1,0,0,0.6817,optionLeft,20,4385,2,38,0,38,0,1,,,,,,,,,,,,,,,,,,,,,,,,,,,,,,,,,,,,,,,
,,,,,,,,2023-08-16_08h27.57.233,HF_wild_card,2022.2.4,Win32,59.54507562,59a7cfeb7ff2320001ec59d9,64d2fd46c836a06233681665,64dc7a5e405934a36ae2ece3,,,,,,,sngl,resources/Empty.png,resources/DBN.BMP,Door3,0.346296296,-0.064814815,1,0,0,0.7815,optionRight,70,4455,2,39,0,39,0,1,,,,,,,,,,,,,,,,,,,,,,,,,,,,,,,,,,,,,,,
,,,,,,,,2023-08-16_08h27.57.233,HF_wild_card,2022.2.4,Win32,59.54507562,59a7cfeb7ff2320001ec59d9,64d2fd46c836a06233681665,64dc7a5e405934a36ae2ece3,,,,,,,decisionTrl,resources/DG.BMP,resources/DB.BMP,WildCard_NonEx,0.325925926,-0.072222222,1,0,0,3.0816,optionRight,55,4510,2,40,0,40,0,1,,,,,,,,,,,,,,,,,,,,,,,,,,,,,,,,,,,,,,,
,,,,,,,,2023-08-16_08h27.57.233,HF_wild_card,2022.2.4,Win32,59.54507562,59a7cfeb7ff2320001ec59d9,64d2fd46c836a06233681665,64dc7a5e405934a36ae2ece3,,,,,,,ctch,resources/DBN.BMP,resources/DG.BMP,Door3,-0.253703704,-0.000925926,1,0,0,0.8306,optionLeft,70,4580,2,41,0,41,0,1,,,,,,,,,,,,,,,,,,,,,,,,,,,,,,,,,,,,,,,
,,,,,,,,2023-08-16_08h27.57.233,HF_wild_card,2022.2.4,Win32,59.54507562,59a7cfeb7ff2320001ec59d9,64d2fd46c836a06233681665,64dc7a5e405934a36ae2ece3,,,,,,,sngl,resources/Empty.png,resources/DY.BMP,Door4,0.287962963,-0.072222222,1,0,0,0.6484,optionRight,80,4660,2,42,0,42,0,1,,,,,,,,,,,,,,,,,,,,,,,,,,,,,,,,,,,,,,,
,,,,,,,,2023-08-16_08h27.57.233,HF_wild_card,2022.2.4,Win32,59.54507562,59a7cfeb7ff2320001ec59d9,64d2fd46c836a06233681665,64dc7a5e405934a36ae2ece3,,,,,,,decisionTrl,resources/DB.BMP,resources/DBN.BMP,Door3,0.333333333,-0.072222222,1,0,0,0.8837,optionRight,70,4730,2,43,0,43,0,1,,,,,,,,,,,,,,,,,,,,,,,,,,,,,,,,,,,,,,,
,,,,,,,,2023-08-16_08h27.57.233,HF_wild_card,2022.2.4,Win32,59.54507562,59a7cfeb7ff2320001ec59d9,64d2fd46c836a06233681665,64dc7a5e405934a36ae2ece3,,,,,,,,,,,,,,,,,,,,,,,,,,1,0,1,0,1,,,,,,,,,,,,,,,,,,,,,,,,,,,,,,,,,,
,,,,,,,,2023-08-16_08h27.57.233,HF_wild_card,2022.2.4,Win32,59.54507562,59a7cfeb7ff2320001ec59d9,64d2fd46c836a06233681665,64dc7a5e405934a36ae2ece3,,,,,,,sngl,resources/Empty.png,resources/DG.BMP,Door2,0.337037037,-0.19537037,1,0,0,1.5735,optionRight,20,4750,3,0,0,0,0,1,,,,,,,,,,,,,,,,,,,,,,,,,,,,,,,,,,,,,,,
,,,,,,,,2023-08-16_08h27.57.233,HF_wild_card,2022.2.4,Win32,59.54507562,59a7cfeb7ff2320001ec59d9,64d2fd46c836a06233681665,64dc7a5e405934a36ae2ece3,,,,,,,decisionTrl,resources/DY.BMP,resources/DB.BMP,Door4,-0.293518519,-0.042592593,1,0,0,0.9613,optionLeft,60,4810,3,1,0,1,0,1,,,,,,,,,,,,,,,,,,,,,,,,,,,,,,,,,,,,,,,
,,,,,,,,2023-08-16_08h27.57.233,HF_wild_card,2022.2.4,Win32,59.54507562,59a7cfeb7ff2320001ec59d9,64d2fd46c836a06233681665,64dc7a5e405934a36ae2ece3,,,,,,,decisionTrl,resources/DB.BMP,resources/DG.BMP,WildCard_NonEx,-0.27962963,0.007407407,1,0,0,0.9153,optionLeft,55,4865,3,2,0,2,0,1,,,,,,,,,,,,,,,,,,,,,,,,,,,,,,,,,,,,,,,
,,,,,,,,2023-08-16_08h27.57.233,HF_wild_card,2022.2.4,Win32,59.54507562,59a7cfeb7ff2320001ec59d9,64d2fd46c836a06233681665,64dc7a5e405934a36ae2ece3,,,,,,,decisionTrl,resources/DBN.BMP,resources/DY.BMP,Door3,-0.251851852,-0.00462963,1,0,0,1.3464,optionLeft,70,4935,3,3,0,3,0,1,,,,,,,,,,,,,,,,,,,,,,,,,,,,,,,,,,,,,,,
,,,,,,,,2023-08-16_08h27.57.233,HF_wild_card,2022.2.4,Win32,59.54507562,59a7cfeb7ff2320001ec59d9,64d2fd46c836a06233681665,64dc7a5e405934a36ae2ece3,,,,,,,ctch,resources/DR.BMP,resources/DY.BMP,Door4,0.277777778,-0.055555556,1,0,0,0.6819,optionRight,60,4995,3,4,0,4,0,1,,,,,,,,,,,,,,,,,,,,,,,,,,,,,,,,,,,,,,,
,,,,,,,,2023-08-16_08h27.57.233,HF_wild_card,2022.2.4,Win32,59.54507562,59a7cfeb7ff2320001ec59d9,64d2fd46c836a06233681665,64dc7a5e405934a36ae2ece3,,,,,,,decisionTrl,resources/DB.BMP,resources/DR.BMP,WildCard_NonEx,-0.248148148,-0.008333333,1,0,0,1.7153,optionLeft,55,5050,3,5,0,5,0,1,,,,,,,,,,,,,,,,,,,,,,,,,,,,,,,,,,,,,,,
,,,,,,,,2023-08-16_08h27.57.233,HF_wild_card,2022.2.4,Win32,59.54507562,59a7cfeb7ff2320001ec59d9,64d2fd46c836a06233681665,64dc7a5e405934a36ae2ece3,,,,,,,decisionTrl,resources/DR.BMP,resources/DG.BMP,Door1,-0.214814815,-0.012962963,1,0,0,0.9316,optionLeft,30,5080,3,6,0,6,0,1,,,,,,,,,,,,,,,,,,,,,,,,,,,,,,,,,,,,,,,
,,,,,,,,2023-08-16_08h27.57.233,HF_wild_card,2022.2.4,Win32,59.54507562,59a7cfeb7ff2320001ec59d9,64d2fd46c836a06233681665,64dc7a5e405934a36ae2ece3,,,,,,,decisionTrl,resources/DR.BMP,resources/DG.BMP,Door1,-0.224074074,-0.006481481,1,0,0,0.8805,optionLeft,30,5110,3,7,0,7,0,1,,,,,,,,,,,,,,,,,,,,,,,,,,,,,,,,,,,,,,,
,,,,,,,,2023-08-16_08h27.57.233,HF_wild_card,2022.2.4,Win32,59.54507562,59a7cfeb7ff2320001ec59d9,64d2fd46c836a06233681665,64dc7a5e405934a36ae2ece3,,,,,,,decisionTrl,resources/DBN.BMP,resources/DY.BMP,Door4,0.29537037,-0.077777778,1,0,0,1.6153,optionRight,80,5190,3,8,0,8,0,1,,,,,,,,,,,,,,,,,,,,,,,,,,,,,,,,,,,,,,,
,,,,,,,,2023-08-16_08h27.57.233,HF_wild_card,2022.2.4,Win32,59.54507562,59a7cfeb7ff2320001ec59d9,64d2fd46c836a06233681665,64dc7a5e405934a36ae2ece3,,,,,,,sngl,resources/Empty.png,resources/DB.BMP,WildCard_NonEx,0.237962963,-0.044444444,1,0,0,0.8984,optionRight,45,5235,3,9,0,9,0,1,,,,,,,,,,,,,,,,,,,,,,,,,,,,,,,,,,,,,,,
,,,,,,,,2023-08-16_08h27.57.233,HF_wild_card,2022.2.4,Win32,59.54507562,59a7cfeb7ff2320001ec59d9,64d2fd46c836a06233681665,64dc7a5e405934a36ae2ece3,,,,,,,sngl,resources/Empty.png,resources/DB.BMP,WildCard_NonEx,0.262037037,-0.064814815,1,0,0,0.7653,optionRight,55,5290,3,10,0,10,0,1,,,,,,,,,,,,,,,,,,,,,,,,,,,,,,,,,,,,,,,
,,,,,,,,2023-08-16_08h27.57.233,HF_wild_card,2022.2.4,Win32,59.54507562,59a7cfeb7ff2320001ec59d9,64d2fd46c836a06233681665,64dc7a5e405934a36ae2ece3,,,,,,,decisionTrl,resources/DY.BMP,resources/DBN.BMP,Door3,0.34537037,-0.053703704,1,0,0,2.134,optionRight,70,5360,3,11,0,11,0,1,,,,,,,,,,,,,,,,,,,,,,,,,,,,,,,,,,,,,,,
,,,,,,,,2023-08-16_08h27.57.233,HF_wild_card,2022.2.4,Win32,59.54507562,59a7cfeb7ff2320001ec59d9,64d2fd46c836a06233681665,64dc7a5e405934a36ae2ece3,,,,,,,sngl,resources/DG.BMP,resources/Empty.png,Door2,-0.233333333,0.000925926,1,0,0,1.0316,optionLeft,40,5400,3,12,0,12,0,1,,,,,,,,,,,,,,,,,,,,,,,,,,,,,,,,,,,,,,,
,,,,,,,,2023-08-16_08h27.57.233,HF_wild_card,2022.2.4,Win32,59.54507562,59a7cfeb7ff2320001ec59d9,64d2fd46c836a06233681665,64dc7a5e405934a36ae2ece3,,,,,,,decisionTrl,resources/DBN.BMP,resources/DB.BMP,Door3,-0.268518519,-0.006481481,1,0,0,1.0486,optionLeft,70,5470,3,13,0,13,0,1,,,,,,,,,,,,,,,,,,,,,,,,,,,,,,,,,,,,,,,
,,,,,,,,2023-08-16_08h27.57.233,HF_wild_card,2022.2.4,Win32,59.54507562,59a7cfeb7ff2320001ec59d9,64d2fd46c836a06233681665,64dc7a5e405934a36ae2ece3,,,,,,,ctch,resources/DR.BMP,resources/DY.BMP,Door4,0.325,-0.081481481,1,0,0,1.2818,optionRight,80,5550,3,14,0,14,0,1,,,,,,,,,,,,,,,,,,,,,,,,,,,,,,,,,,,,,,,
,,,,,,,,2023-08-16_08h27.57.233,HF_wild_card,2022.2.4,Win32,59.54507562,59a7cfeb7ff2320001ec59d9,64d2fd46c836a06233681665,64dc7a5e405934a36ae2ece3,,,,,,,decisionTrl,resources/DBN.BMP,resources/DY.BMP,Door4,0.299074074,-0.07037037,1,0,0,3.783,optionRight,80,5630,3,15,0,15,0,1,,,,,,,,,,,,,,,,,,,,,,,,,,,,,,,,,,,,,,,
,,,,,,,,2023-08-16_08h27.57.233,HF_wild_card,2022.2.4,Win32,59.54507562,59a7cfeb7ff2320001ec59d9,64d2fd46c836a06233681665,64dc7a5e405934a36ae2ece3,,,,,,,decisionTrl,resources/DY.BMP,resources/DBN.BMP,Door4,-0.27962963,-0.024074074,1,0,0,1.515,optionLeft,60,5690,3,16,0,16,0,1,,,,,,,,,,,,,,,,,,,,,,,,,,,,,,,,,,,,,,,
,,,,,,,,2023-08-16_08h27.57.233,HF_wild_card,2022.2.4,Win32,59.54507562,59a7cfeb7ff2320001ec59d9,64d2fd46c836a06233681665,64dc7a5e405934a36ae2ece3,,,,,,,ctch,resources/DY.BMP,resources/DR.BMP,Door4,-0.260185185,-0.033333333,1,0,0,0.7656,optionLeft,60,5750,3,17,0,17,0,1,,,,,,,,,,,,,,,,,,,,,,,,,,,,,,,,,,,,,,,
,,,,,,,,2023-08-16_08h27.57.233,HF_wild_card,2022.2.4,Win32,59.54507562,59a7cfeb7ff2320001ec59d9,64d2fd46c836a06233681665,64dc7a5e405934a36ae2ece3,,,,,,,decisionTrl,resources/DB.BMP,resources/DY.BMP,Door4,0.269444444,-0.055555556,1,0,0,0.6011,optionRight,60,5810,3,18,0,18,0,1,,,,,,,,,,,,,,,,,,,,,,,,,,,,,,,,,,,,,,,
,,,,,,,,2023-08-16_08h27.57.233,HF_wild_card,2022.2.4,Win32,59.54507562,59a7cfeb7ff2320001ec59d9,64d2fd46c836a06233681665,64dc7a5e405934a36ae2ece3,,,,,,,decisionTrl,resources/DG.BMP,resources/DR.BMP,Door1,0.27962963,-0.068518519,1,0,0,1.2158,optionRight,30,5840,3,19,0,19,0,1,,,,,,,,,,,,,,,,,,,,,,,,,,,,,,,,,,,,,,,
,,,,,,,,2023-08-16_08h27.57.233,HF_wild_card,2022.2.4,Win32,59.54507562,59a7cfeb7ff2320001ec59d9,64d2fd46c836a06233681665,64dc7a5e405934a36ae2ece3,,,,,,,decisionTrl,resources/DY.BMP,resources/DBN.BMP,Door4,-0.286111111,-0.022222222,1,0,0,1.9648,optionLeft,60,5900,3,20,0,20,0,1,,,,,,,,,,,,,,,,,,,,,,,,,,,,,,,,,,,,,,,
,,,,,,,,2023-08-16_08h27.57.233,HF_wild_card,2022.2.4,Win32,59.54507562,59a7cfeb7ff2320001ec59d9,64d2fd46c836a06233681665,64dc7a5e405934a36ae2ece3,,,,,,,decisionTrl,resources/DG.BMP,resources/DR.BMP,Door1,0.352777778,-0.092592593,1,0,0,1.549,optionRight,30,5930,3,21,0,21,0,1,,,,,,,,,,,,,,,,,,,,,,,,,,,,,,,,,,,,,,,
,,,,,,,,2023-08-16_08h27.57.233,HF_wild_card,2022.2.4,Win32,59.54507562,59a7cfeb7ff2320001ec59d9,64d2fd46c836a06233681665,64dc7a5e405934a36ae2ece3,,,,,,,ctch,resources/DY.BMP,resources/DR.BMP,Door4,-0.239814815,-0.023148148,1,0,0,0.8484,optionLeft,80,6010,3,22,0,22,0,1,,,,,,,,,,,,,,,,,,,,,,,,,,,,,,,,,,,,,,,
,,,,,,,,2023-08-16_08h27.57.233,HF_wild_card,2022.2.4,Win32,59.54507562,59a7cfeb7ff2320001ec59d9,64d2fd46c836a06233681665,64dc7a5e405934a36ae2ece3,,,,,,,sngl,resources/DBN.BMP,resources/Empty.png,Door3,-0.284259259,-0.00462963,1,0,0,0.6816,optionLeft,70,6080,3,23,0,23,0,1,,,,,,,,,,,,,,,,,,,,,,,,,,,,,,,,,,,,,,,
,,,,,,,,2023-08-16_08h27.57.233,HF_wild_card,2022.2.4,Win32,59.54507562,59a7cfeb7ff2320001ec59d9,64d2fd46c836a06233681665,64dc7a5e405934a36ae2ece3,,,,,,,decisionTrl,resources/DG.BMP,resources/DB.BMP,WildCard_NonEx,0.290740741,-0.071296296,1,0,0,1.3818,optionRight,45,6125,3,24,0,24,0,1,,,,,,,,,,,,,,,,,,,,,,,,,,,,,,,,,,,,,,,
,,,,,,,,2023-08-16_08h27.57.233,HF_wild_card,2022.2.4,Win32,59.54507562,59a7cfeb7ff2320001ec59d9,64d2fd46c836a06233681665,64dc7a5e405934a36ae2ece3,,,,,,,sngl,resources/DR.BMP,resources/Empty.png,Door1,-0.198148148,-0.016666667,1,0,0,1.0803,optionLeft,30,6155,3,25,0,25,0,1,,,,,,,,,,,,,,,,,,,,,,,,,,,,,,,,,,,,,,,
,,,,,,,,2023-08-16_08h27.57.233,HF_wild_card,2022.2.4,Win32,59.54507562,59a7cfeb7ff2320001ec59d9,64d2fd46c836a06233681665,64dc7a5e405934a36ae2ece3,,,,,,,sngl,resources/DY.BMP,resources/Empty.png,Door4,-0.223148148,0.000925926,1,0,0,0.8819,optionLeft,80,6235,3,26,0,26,0,1,,,,,,,,,,,,,,,,,,,,,,,,,,,,,,,,,,,,,,,
,,,,,,,,2023-08-16_08h27.57.233,HF_wild_card,2022.2.4,Win32,59.54507562,59a7cfeb7ff2320001ec59d9,64d2fd46c836a06233681665,64dc7a5e405934a36ae2ece3,,,,,,,ctch,resources/DG.BMP,resources/DBN.BMP,Door3,0.391666667,-0.058333333,1,0,0,0.7846,optionRight,70,6305,3,27,0,27,0,1,,,,,,,,,,,,,,,,,,,,,,,,,,,,,,,,,,,,,,,
,,,,,,,,2023-08-16_08h27.57.233,HF_wild_card,2022.2.4,Win32,59.54507562,59a7cfeb7ff2320001ec59d9,64d2fd46c836a06233681665,64dc7a5e405934a36ae2ece3,,,,,,,decisionTrl,resources/DBN.BMP,resources/DY.BMP,Door4,0.326851852,-0.083333333,1,0,0,2.5477,optionRight,80,6385,3,28,0,28,0,1,,,,,,,,,,,,,,,,,,,,,,,,,,,,,,,,,,,,,,,
,,,,,,,,2023-08-16_08h27.57.233,HF_wild_card,2022.2.4,Win32,59.54507562,59a7cfeb7ff2320001ec59d9,64d2fd46c836a06233681665,64dc7a5e405934a36ae2ece3,,,,,,,sngl,resources/Empty.png,resources/DR.BMP,Door1,0.37037037,-0.097222222,1,0,0,0.8648,optionRight,30,6415,3,29,0,29,0,1,,,,,,,,,,,,,,,,,,,,,,,,,,,,,,,,,,,,,,,
,,,,,,,,2023-08-16_08h27.57.233,HF_wild_card,2022.2.4,Win32,59.54507562,59a7cfeb7ff2320001ec59d9,64d2fd46c836a06233681665,64dc7a5e405934a36ae2ece3,,,,,,,decisionTrl,resources/DB.BMP,resources/DBN.BMP,Door3,0.401851852,-0.088888889,1,0,0,0.8317,optionRight,70,6485,3,30,0,30,0,1,,,,,,,,,,,,,,,,,,,,,,,,,,,,,,,,,,,,,,,
,,,,,,,,2023-08-16_08h27.57.233,HF_wild_card,2022.2.4,Win32,59.54507562,59a7cfeb7ff2320001ec59d9,64d2fd46c836a06233681665,64dc7a5e405934a36ae2ece3,,,,,,,sngl,resources/Empty.png,resources/DBN.BMP,Door3,0.307407407,-0.058333333,1,0,0,0.5816,optionRight,70,6555,3,31,0,31,0,1,,,,,,,,,,,,,,,,,,,,,,,,,,,,,,,,,,,,,,,
,,,,,,,,2023-08-16_08h27.57.233,HF_wild_card,2022.2.4,Win32,59.54507562,59a7cfeb7ff2320001ec59d9,64d2fd46c836a06233681665,64dc7a5e405934a36ae2ece3,,,,,,,sngl,resources/DB.BMP,resources/Empty.png,WildCard_NonEx,-0.260185185,-0.003703704,1,0,0,0.6151,optionLeft,55,6610,3,32,0,32,0,1,,,,,,,,,,,,,,,,,,,,,,,,,,,,,,,,,,,,,,,
,,,,,,,,2023-08-16_08h27.57.233,HF_wild_card,2022.2.4,Win32,59.54507562,59a7cfeb7ff2320001ec59d9,64d2fd46c836a06233681665,64dc7a5e405934a36ae2ece3,,,,,,,sngl,resources/DB.BMP,resources/Empty.png,WildCard_NonEx,-0.246296296,-0.007407407,1,0,0,0.7308,optionLeft,45,6655,3,33,0,33,0,1,,,,,,,,,,,,,,,,,,,,,,,,,,,,,,,,,,,,,,,
,,,,,,,,2023-08-16_08h27.57.233,HF_wild_card,2022.2.4,Win32,59.54507562,59a7cfeb7ff2320001ec59d9,64d2fd46c836a06233681665,64dc7a5e405934a36ae2ece3,,,,,,,decisionTrl,resources/DR.BMP,resources/DB.BMP,WildCard_NonEx,0.342592593,-0.068518519,1,0,0,2.8298,optionRight,55,6710,3,34,0,34,0,1,,,,,,,,,,,,,,,,,,,,,,,,,,,,,,,,,,,,,,,
,,,,,,,,2023-08-16_08h27.57.233,HF_wild_card,2022.2.4,Win32,59.54507562,59a7cfeb7ff2320001ec59d9,64d2fd46c836a06233681665,64dc7a5e405934a36ae2ece3,,,,,,,decisionTrl,resources/DG.BMP,resources/DR.BMP,Door1,0.37037037,-0.075,1,0,0,1.0493,optionRight,30,6740,3,35,0,35,0,1,,,,,,,,,,,,,,,,,,,,,,,,,,,,,,,,,,,,,,,
,,,,,,,,2023-08-16_08h27.57.233,HF_wild_card,2022.2.4,Win32,59.54507562,59a7cfeb7ff2320001ec59d9,64d2fd46c836a06233681665,64dc7a5e405934a36ae2ece3,,,,,,,ctch,resources/DBN.BMP,resources/DG.BMP,Door3,-0.317592593,-0.036111111,1,0,0,0.9155,optionLeft,70,6810,3,36,0,36,0,1,,,,,,,,,,,,,,,,,,,,,,,,,,,,,,,,,,,,,,,
,,,,,,,,2023-08-16_08h27.57.233,HF_wild_card,2022.2.4,Win32,59.54507562,59a7cfeb7ff2320001ec59d9,64d2fd46c836a06233681665,64dc7a5e405934a36ae2ece3,,,,,,,decisionTrl,resources/DR.BMP,resources/DG.BMP,Door1,-0.384259259,-0.04537037,1,0,0,1.3315,optionLeft,30,6840,3,37,0,37,0,1,,,,,,,,,,,,,,,,,,,,,,,,,,,,,,,,,,,,,,,
,,,,,,,,2023-08-16_08h27.57.233,HF_wild_card,2022.2.4,Win32,59.54507562,59a7cfeb7ff2320001ec59d9,64d2fd46c836a06233681665,64dc7a5e405934a36ae2ece3,,,,,,,sngl,resources/Empty.png,resources/DY.BMP,Door4,0.387037037,-0.142592593,1,0,0,0.615,optionRight,60,6900,3,38,0,38,0,1,,,,,,,,,,,,,,,,,,,,,,,,,,,,,,,,,,,,,,,
,,,,,,,,2023-08-16_08h27.57.233,HF_wild_card,2022.2.4,Win32,59.54507562,59a7cfeb7ff2320001ec59d9,64d2fd46c836a06233681665,64dc7a5e405934a36ae2ece3,,,,,,,decisionTrl,resources/DG.BMP,resources/DR.BMP,Door1,0.224074074,-0.061111111,1,0,0,1.0498,optionRight,30,6930,3,39,0,39,0,1,,,,,,,,,,,,,,,,,,,,,,,,,,,,,,,,,,,,,,,
,,,,,,,,2023-08-16_08h27.57.233,HF_wild_card,2022.2.4,Win32,59.54507562,59a7cfeb7ff2320001ec59d9,64d2fd46c836a06233681665,64dc7a5e405934a36ae2ece3,,,,,,,ctch,resources/DG.BMP,resources/DBN.BMP,Door3,0.22037037,-0.040740741,1,0,0,0.799,optionRight,70,7000,3,40,0,40,0,1,,,,,,,,,,,,,,,,,,,,,,,,,,,,,,,,,,,,,,,
,,,,,,,,2023-08-16_08h27.57.233,HF_wild_card,2022.2.4,Win32,59.54507562,59a7cfeb7ff2320001ec59d9,64d2fd46c836a06233681665,64dc7a5e405934a36ae2ece3,,,,,,,decisionTrl,resources/DY.BMP,resources/DBN.BMP,Door4,-0.308333333,-0.031481481,1,0,0,1.0815,optionLeft,80,7080,3,41,0,41,0,1,,,,,,,,,,,,,,,,,,,,,,,,,,,,,,,,,,,,,,,
,,,,,,,,2023-08-16_08h27.57.233,HF_wild_card,2022.2.4,Win32,59.54507562,59a7cfeb7ff2320001ec59d9,64d2fd46c836a06233681665,64dc7a5e405934a36ae2ece3,,,,,,,ctch,resources/DBN.BMP,resources/DG.BMP,Door3,-0.217592593,-0.039814815,1,0,0,0.6982,optionLeft,70,7150,3,42,0,42,0,1,,,,,,,,,,,,,,,,,,,,,,,,,,,,,,,,,,,,,,,
,,,,,,,,2023-08-16_08h27.57.233,HF_wild_card,2022.2.4,Win32,59.54507562,59a7cfeb7ff2320001ec59d9,64d2fd46c836a06233681665,64dc7a5e405934a36ae2ece3,,,,,,,decisionTrl,resources/DR.BMP,resources/DG.BMP,Door1,-0.283333333,-0.069444444,1,0,0,1.3158,optionLeft,30,7180,3,43,0,43,0,1,,,,,,,,,,,,,,,,,,,,,,,,,,,,,,,,,,,,,,,
,,,,,,,,2023-08-16_08h27.57.233,HF_wild_card,2022.2.4,Win32,59.54507562,59a7cfeb7ff2320001ec59d9,64d2fd46c836a06233681665,64dc7a5e405934a36ae2ece3,,,,,,,,,,,,,,,,,,,,,,,,,,2,0,2,0,1,,,,,,,,,,,,,,,,,,,,,,,,,,,,,,,,,,
,,,,,,,,2023-08-16_08h27.57.233,HF_wild_card,2022.2.4,Win32,59.54507562,59a7cfeb7ff2320001ec59d9,64d2fd46c836a06233681665,64dc7a5e405934a36ae2ece3,,,,,,,decisionTrl,resources/DG.BMP,resources/DR.BMP,Door1,0.265740741,-0.128703704,1,0,0,1.3763,optionRight,30,7210,4,0,0,0,0,1,,,,,,,,,,,,,,,,,,,,,,,,,,,,,,,,,,,,,,,
,,,,,,,,2023-08-16_08h27.57.233,HF_wild_card,2022.2.4,Win32,59.54507562,59a7cfeb7ff2320001ec59d9,64d2fd46c836a06233681665,64dc7a5e405934a36ae2ece3,,,,,,,ctch,resources/DG.BMP,resources/DBN.BMP,Door3,0.252777778,-0.013888889,1,0,0,0.7508,optionRight,70,7280,4,1,0,1,0,1,,,,,,,,,,,,,,,,,,,,,,,,,,,,,,,,,,,,,,,
,,,,,,,,2023-08-16_08h27.57.233,HF_wild_card,2022.2.4,Win32,59.54507562,59a7cfeb7ff2320001ec59d9,64d2fd46c836a06233681665,64dc7a5e405934a36ae2ece3,,,,,,,decisionTrl,resources/DR.BMP,resources/DG.BMP,Door1,-0.366666667,0,1,0,0,0.9987,optionLeft,30,7310,4,2,0,2,0,1,,,,,,,,,,,,,,,,,,,,,,,,,,,,,,,,,,,,,,,
,,,,,,,,2023-08-16_08h27.57.233,HF_wild_card,2022.2.4,Win32,59.54507562,59a7cfeb7ff2320001ec59d9,64d2fd46c836a06233681665,64dc7a5e405934a36ae2ece3,,,,,,,decisionTrl,resources/DY.BMP,resources/DBN.BMP,Door4,-0.338888889,-0.016666667,1,0,0,1.1327,optionLeft,60,7370,4,3,0,3,0,1,,,,,,,,,,,,,,,,,,,,,,,,,,,,,,,,,,,,,,,
,,,,,,,,2023-08-16_08h27.57.233,HF_wild_card,2022.2.4,Win32,59.54507562,59a7cfeb7ff2320001ec59d9,64d2fd46c836a06233681665,64dc7a5e405934a36ae2ece3,,,,,,,ctch,resources/DY.BMP,resources/DR.BMP,Door4,-0.201851852,-0.019444444,1,0,0,0.6823,optionLeft,80,7450,4,4,0,4,0,1,,,,,,,,,,,,,,,,,,,,,,,,,,,,,,,,,,,,,,,
,,,,,,,,2023-08-16_08h27.57.233,HF_wild_card,2022.2.4,Win32,59.54507562,59a7cfeb7ff2320001ec59d9,64d2fd46c836a06233681665,64dc7a5e405934a36ae2ece3,,,,,,,sngl,resources/Empty.png,resources/DBN.BMP,Door3,0.252777778,-0.02037037,1,0,0,0.6984,optionRight,70,7520,4,5,0,5,0,1,,,,,,,,,,,,,,,,,,,,,,,,,,,,,,,,,,,,,,,
,,,,,,,,2023-08-16_08h27.57.233,HF_wild_card,2022.2.4,Win32,59.54507562,59a7cfeb7ff2320001ec59d9,64d2fd46c836a06233681665,64dc7a5e405934a36ae2ece3,,,,,,,decisionTrl,resources/DR.BMP,resources/DG.BMP,Door1,-0.294444444,-0.008333333,1,0,0,0.8486,optionLeft,30,7550,4,6,0,6,0,1,,,,,,,,,,,,,,,,,,,,,,,,,,,,,,,,,,,,,,,
,,,,,,,,2023-08-16_08h27.57.233,HF_wild_card,2022.2.4,Win32,59.54507562,59a7cfeb7ff2320001ec59d9,64d2fd46c836a06233681665,64dc7a5e405934a36ae2ece3,,,,,,,decisionTrl,resources/DG.BMP,resources/DR.BMP,Door1,0.337037037,-0.024074074,1,0,0,1.466,optionRight,30,7580,4,7,0,7,0,1,,,,,,,,,,,,,,,,,,,,,,,,,,,,,,,,,,,,,,,
,,,,,,,,2023-08-16_08h27.57.233,HF_wild_card,2022.2.4,Win32,59.54507562,59a7cfeb7ff2320001ec59d9,64d2fd46c836a06233681665,64dc7a5e405934a36ae2ece3,,,,,,,sngl,resources/Empty.png,resources/DP.BMP,WildCard_Ex,0.336111111,-0.052777778,1,0,0,1.0653,optionRight,95,7675,4,8,0,8,0,1,,,,,,,,,,,,,,,,,,,,,,,,,,,,,,,,,,,,,,,
,,,,,,,,2023-08-16_08h27.57.233,HF_wild_card,2022.2.4,Win32,59.54507562,59a7cfeb7ff2320001ec59d9,64d2fd46c836a06233681665,64dc7a5e405934a36ae2ece3,,,,,,,decisionTrl,resources/DP.BMP,resources/DR.BMP,WildCard_Ex,-0.290740741,-0.031481481,1,0,0,0.7322,optionLeft,95,7770,4,9,0,9,0,1,,,,,,,,,,,,,,,,,,,,,,,,,,,,,,,,,,,,,,,
,,,,,,,,2023-08-16_08h27.57.233,HF_wild_card,2022.2.4,Win32,59.54507562,59a7cfeb7ff2320001ec59d9,64d2fd46c836a06233681665,64dc7a5e405934a36ae2ece3,,,,,,,sngl,resources/Empty.png,resources/DP.BMP,WildCard_Ex,0.342592593,-0.07037037,1,0,0,0.6005,optionRight,5,7775,4,10,0,10,0,1,,,,,,,,,,,,,,,,,,,,,,,,,,,,,,,,,,,,,,,
,,,,,,,,2023-08-16_08h27.57.233,HF_wild_card,2022.2.4,Win32,59.54507562,59a7cfeb7ff2320001ec59d9,64d2fd46c836a06233681665,64dc7a5e405934a36ae2ece3,,,,,,,sngl,resources/DG.BMP,resources/Empty.png,Door2,-0.290740741,-0.012962963,1,0,0,2.6986,optionLeft,20,7795,4,11,0,11,0,1,,,,,,,,,,,,,,,,,,,,,,,,,,,,,,,,,,,,,,,
,,,,,,,,2023-08-16_08h27.57.233,HF_wild_card,2022.2.4,Win32,59.54507562,59a7cfeb7ff2320001ec59d9,64d2fd46c836a06233681665,64dc7a5e405934a36ae2ece3,,,,,,,decisionTrl,resources/DBN.BMP,resources/DP.BMP,WildCard_Ex,0.341666667,-0.068518519,1,0,0,2.213,optionRight,5,7800,4,12,0,12,0,1,,,,,,,,,,,,,,,,,,,,,,,,,,,,,,,,,,,,,,,
,,,,,,,,2023-08-16_08h27.57.233,HF_wild_card,2022.2.4,Win32,59.54507562,59a7cfeb7ff2320001ec59d9,64d2fd46c836a06233681665,64dc7a5e405934a36ae2ece3,,,,,,,decisionTrl,resources/DY.BMP,resources/DBN.BMP,Door4,-0.271296296,-0.025925926,1,0,0,1.1818,optionLeft,80,7880,4,13,0,13,0,1,,,,,,,,,,,,,,,,,,,,,,,,,,,,,,,,,,,,,,,
,,,,,,,,2023-08-16_08h27.57.233,HF_wild_card,2022.2.4,Win32,59.54507562,59a7cfeb7ff2320001ec59d9,64d2fd46c836a06233681665,64dc7a5e405934a36ae2ece3,,,,,,,decisionTrl,resources/DBN.BMP,resources/DY.BMP,Door4,0.366666667,-0.074074074,1,0,0,1.8984,optionRight,60,7940,4,14,0,14,0,1,,,,,,,,,,,,,,,,,,,,,,,,,,,,,,,,,,,,,,,
,,,,,,,,2023-08-16_08h27.57.233,HF_wild_card,2022.2.4,Win32,59.54507562,59a7cfeb7ff2320001ec59d9,64d2fd46c836a06233681665,64dc7a5e405934a36ae2ece3,,,,,,,decisionTrl,resources/DG.BMP,resources/DP.BMP,Door2,-0.242592593,-0.02962963,1,0,0,1.733,optionLeft,40,7980,4,15,0,15,0,1,,,,,,,,,,,,,,,,,,,,,,,,,,,,,,,,,,,,,,,
,,,,,,,,2023-08-16_08h27.57.233,HF_wild_card,2022.2.4,Win32,59.54507562,59a7cfeb7ff2320001ec59d9,64d2fd46c836a06233681665,64dc7a5e405934a36ae2ece3,,,,,,,ctch,resources/DY.BMP,resources/DR.BMP,Door4,-0.271296296,-0.013888889,1,0,0,2.182,optionLeft,80,8060,4,16,0,16,0,1,,,,,,,,,,,,,,,,,,,,,,,,,,,,,,,,,,,,,,,
,,,,,,,,2023-08-16_08h27.57.233,HF_wild_card,2022.2.4,Win32,59.54507562,59a7cfeb7ff2320001ec59d9,64d2fd46c836a06233681665,64dc7a5e405934a36ae2ece3,,,,,,,decisionTrl,resources/DY.BMP,resources/DBN.BMP,Door4,-0.333333333,-0.026851852,1,0,0,1.9316,optionLeft,80,8140,4,17,0,17,0,1,,,,,,,,,,,,,,,,,,,,,,,,,,,,,,,,,,,,,,,
,,,,,,,,2023-08-16_08h27.57.233,HF_wild_card,2022.2.4,Win32,59.54507562,59a7cfeb7ff2320001ec59d9,64d2fd46c836a06233681665,64dc7a5e405934a36ae2ece3,,,,,,,sngl,resources/Empty.png,resources/DR.BMP,Door1,0.318518519,-0.075925926,1,0,0,0.8988,optionRight,30,8170,4,18,0,18,0,1,,,,,,,,,,,,,,,,,,,,,,,,,,,,,,,,,,,,,,,
,,,,,,,,2023-08-16_08h27.57.233,HF_wild_card,2022.2.4,Win32,59.54507562,59a7cfeb7ff2320001ec59d9,64d2fd46c836a06233681665,64dc7a5e405934a36ae2ece3,,,,,,,decisionTrl,resources/DR.BMP,resources/DG.BMP,Door2,0.30462963,-0.063888889,1,0,0,1.1647,optionRight,40,8210,4,19,0,19,0,1,,,,,,,,,,,,,,,,,,,,,,,,,,,,,,,,,,,,,,,
,,,,,,,,2023-08-16_08h27.57.233,HF_wild_card,2022.2.4,Win32,59.54507562,59a7cfeb7ff2320001ec59d9,64d2fd46c836a06233681665,64dc7a5e405934a36ae2ece3,,,,,,,decisionTrl,resources/DR.BMP,resources/DG.BMP,Door2,0.312037037,-0.053703704,1,0,0,1.3318,optionRight,40,8250,4,20,0,20,0,1,,,,,,,,,,,,,,,,,,,,,,,,,,,,,,,,,,,,,,,
,,,,,,,,2023-08-16_08h27.57.233,HF_wild_card,2022.2.4,Win32,59.54507562,59a7cfeb7ff2320001ec59d9,64d2fd46c836a06233681665,64dc7a5e405934a36ae2ece3,,,,,,,sngl,resources/Empty.png,resources/DY.BMP,Door4,0.294444444,-0.061111111,1,0,0,0.8988,optionRight,80,8330,4,21,0,21,0,1,,,,,,,,,,,,,,,,,,,,,,,,,,,,,,,,,,,,,,,
,,,,,,,,2023-08-16_08h27.57.233,HF_wild_card,2022.2.4,Win32,59.54507562,59a7cfeb7ff2320001ec59d9,64d2fd46c836a06233681665,64dc7a5e405934a36ae2ece3,,,,,,,decisionTrl,resources/DBN.BMP,resources/DY.BMP,Door4,0.252777778,-0.105555556,1,0,0,2.5464,optionRight,80,8410,4,22,0,22,0,1,,,,,,,,,,,,,,,,,,,,,,,,,,,,,,,,,,,,,,,
,,,,,,,,2023-08-16_08h27.57.233,HF_wild_card,2022.2.4,Win32,59.54507562,59a7cfeb7ff2320001ec59d9,64d2fd46c836a06233681665,64dc7a5e405934a36ae2ece3,,,,,,,sngl,resources/Empty.png,resources/DG.BMP,Door2,0.275,-0.077777778,1,0,0,0.8002,optionRight,40,8450,4,23,0,23,0,1,,,,,,,,,,,,,,,,,,,,,,,,,,,,,,,,,,,,,,,
,,,,,,,,2023-08-16_08h27.57.233,HF_wild_card,2022.2.4,Win32,59.54507562,59a7cfeb7ff2320001ec59d9,64d2fd46c836a06233681665,64dc7a5e405934a36ae2ece3,,,,,,,sngl,resources/DP.BMP,resources/Empty.png,WildCard_Ex,-0.167592593,-0.030555556,1,0,0,1.1627,optionLeft,95,8545,4,24,0,24,0,1,,,,,,,,,,,,,,,,,,,,,,,,,,,,,,,,,,,,,,,
,,,,,,,,2023-08-16_08h27.57.233,HF_wild_card,2022.2.4,Win32,59.54507562,59a7cfeb7ff2320001ec59d9,64d2fd46c836a06233681665,64dc7a5e405934a36ae2ece3,,,,,,,decisionTrl,resources/DY.BMP,resources/DP.BMP,WildCard_Ex,0.255555556,-0.089814815,1,0,0,0.815,optionRight,95,8640,4,25,0,25,0,1,,,,,,,,,,,,,,,,,,,,,,,,,,,,,,,,,,,,,,,
,,,,,,,,2023-08-16_08h27.57.233,HF_wild_card,2022.2.4,Win32,59.54507562,59a7cfeb7ff2320001ec59d9,64d2fd46c836a06233681665,64dc7a5e405934a36ae2ece3,,,,,,,decisionTrl,resources/DR.BMP,resources/DP.BMP,WildCard_Ex,0.275,-0.061111111,1,0,0,3.3343,optionRight,95,8735,4,26,0,26,0,1,,,,,,,,,,,,,,,,,,,,,,,,,,,,,,,,,,,,,,,
,,,,,,,,2023-08-16_08h27.57.233,HF_wild_card,2022.2.4,Win32,59.54507562,59a7cfeb7ff2320001ec59d9,64d2fd46c836a06233681665,64dc7a5e405934a36ae2ece3,,,,,,,ctch,resources/DR.BMP,resources/DY.BMP,Door4,0.296296296,-0.082407407,1,0,0,1.4481,optionRight,60,8795,4,27,0,27,0,1,,,,,,,,,,,,,,,,,,,,,,,,,,,,,,,,,,,,,,,
,,,,,,,,2023-08-16_08h27.57.233,HF_wild_card,2022.2.4,Win32,59.54507562,59a7cfeb7ff2320001ec59d9,64d2fd46c836a06233681665,64dc7a5e405934a36ae2ece3,,,,,,,sngl,resources/DBN.BMP,resources/Empty.png,Door3,-0.192592593,-0.012962963,1,0,0,0.7294,optionLeft,70,8865,4,28,0,28,0,1,,,,,,,,,,,,,,,,,,,,,,,,,,,,,,,,,,,,,,,
,,,,,,,,2023-08-16_08h27.57.233,HF_wild_card,2022.2.4,Win32,59.54507562,59a7cfeb7ff2320001ec59d9,64d2fd46c836a06233681665,64dc7a5e405934a36ae2ece3,,,,,,,decisionTrl,resources/DG.BMP,resources/DR.BMP,Door1,0.249074074,-0.092592593,1,0,0,2.6486,optionRight,30,8895,4,29,0,29,0,1,,,,,,,,,,,,,,,,,,,,,,,,,,,,,,,,,,,,,,,
,,,,,,,,2023-08-16_08h27.57.233,HF_wild_card,2022.2.4,Win32,59.54507562,59a7cfeb7ff2320001ec59d9,64d2fd46c836a06233681665,64dc7a5e405934a36ae2ece3,,,,,,,ctch,resources/DBN.BMP,resources/DG.BMP,Door3,-0.337962963,-0.005555556,1,0,0,1.5492,optionLeft,70,8965,4,30,0,30,0,1,,,,,,,,,,,,,,,,,,,,,,,,,,,,,,,,,,,,,,,
,,,,,,,,2023-08-16_08h27.57.233,HF_wild_card,2022.2.4,Win32,59.54507562,59a7cfeb7ff2320001ec59d9,64d2fd46c836a06233681665,64dc7a5e405934a36ae2ece3,,,,,,,sngl,resources/DP.BMP,resources/Empty.png,WildCard_Ex,-0.193518519,-0.019444444,1,0,0,0.7317,optionLeft,5,8970,4,31,0,31,0,1,,,,,,,,,,,,,,,,,,,,,,,,,,,,,,,,,,,,,,,
,,,,,,,,2023-08-16_08h27.57.233,HF_wild_card,2022.2.4,Win32,59.54507562,59a7cfeb7ff2320001ec59d9,64d2fd46c836a06233681665,64dc7a5e405934a36ae2ece3,,,,,,,sngl,resources/DY.BMP,resources/Empty.png,Door4,-0.201851852,-0.026851852,1,0,0,0.6655,optionLeft,60,9030,4,32,0,32,0,1,,,,,,,,,,,,,,,,,,,,,,,,,,,,,,,,,,,,,,,
,,,,,,,,2023-08-16_08h27.57.233,HF_wild_card,2022.2.4,Win32,59.54507562,59a7cfeb7ff2320001ec59d9,64d2fd46c836a06233681665,64dc7a5e405934a36ae2ece3,,,,,,,ctch,resources/DG.BMP,resources/DBN.BMP,Door3,0.238888889,-0.094444444,1,0,0,1.7988,optionRight,70,9100,4,33,0,33,0,1,,,,,,,,,,,,,,,,,,,,,,,,,,,,,,,,,,,,,,,
,,,,,,,,2023-08-16_08h27.57.233,HF_wild_card,2022.2.4,Win32,59.54507562,59a7cfeb7ff2320001ec59d9,64d2fd46c836a06233681665,64dc7a5e405934a36ae2ece3,,,,,,,decisionTrl,resources/DP.BMP,resources/DG.BMP,WildCard_Ex,-0.192592593,-0.041666667,1,0,0,1.5146,optionLeft,95,9195,4,34,0,34,0,1,,,,,,,,,,,,,,,,,,,,,,,,,,,,,,,,,,,,,,,
,,,,,,,,2023-08-16_08h27.57.233,HF_wild_card,2022.2.4,Win32,59.54507562,59a7cfeb7ff2320001ec59d9,64d2fd46c836a06233681665,64dc7a5e405934a36ae2ece3,,,,,,,ctch,resources/DBN.BMP,resources/DG.BMP,Door3,-0.231481481,0.061111111,1,0,0,7.0816,optionLeft,70,9265,4,35,0,35,0,1,,,,,,,,,,,,,,,,,,,,,,,,,,,,,,,,,,,,,,,
,,,,,,,,2023-08-16_08h27.57.233,HF_wild_card,2022.2.4,Win32,59.54507562,59a7cfeb7ff2320001ec59d9,64d2fd46c836a06233681665,64dc7a5e405934a36ae2ece3,,,,,,,decisionTrl,resources/DP.BMP,resources/DY.BMP,Door4,0.459259259,-0.051851852,1,0,0,3.2629,optionRight,80,9345,4,36,0,36,0,1,,,,,,,,,,,,,,,,,,,,,,,,,,,,,,,,,,,,,,,
,,,,,,,,2023-08-16_08h27.57.233,HF_wild_card,2022.2.4,Win32,59.54507562,59a7cfeb7ff2320001ec59d9,64d2fd46c836a06233681665,64dc7a5e405934a36ae2ece3,,,,,,,decisionTrl,resources/DP.BMP,resources/DBN.BMP,WildCard_Ex,-0.20462963,0.011111111,1,0,0,2.9819,optionLeft,95,9440,4,37,0,37,0,1,,,,,,,,,,,,,,,,,,,,,,,,,,,,,,,,,,,,,,,
,,,,,,,,2023-08-16_08h27.57.233,HF_wild_card,2022.2.4,Win32,59.54507562,59a7cfeb7ff2320001ec59d9,64d2fd46c836a06233681665,64dc7a5e405934a36ae2ece3,,,,,,,decisionTrl,resources/DG.BMP,resources/DR.BMP,Door2,-0.25462963,-0.009259259,1,0,0,1.8647,optionLeft,40,9480,4,38,0,38,0,1,,,,,,,,,,,,,,,,,,,,,,,,,,,,,,,,,,,,,,,
,,,,,,,,2023-08-16_08h27.57.233,HF_wild_card,2022.2.4,Win32,59.54507562,59a7cfeb7ff2320001ec59d9,64d2fd46c836a06233681665,64dc7a5e405934a36ae2ece3,,,,,,,decisionTrl,resources/DBN.BMP,resources/DY.BMP,Door4,0.247222222,-0.014814815,1,0,0,2.2818,optionRight,80,9560,4,39,0,39,0,1,,,,,,,,,,,,,,,,,,,,,,,,,,,,,,,,,,,,,,,
,,,,,,,,2023-08-16_08h27.57.233,HF_wild_card,2022.2.4,Win32,59.54507562,59a7cfeb7ff2320001ec59d9,64d2fd46c836a06233681665,64dc7a5e405934a36ae2ece3,,,,,,,ctch,resources/DR.BMP,resources/DY.BMP,Door4,0.371296296,-0.043518519,1,0,0,2.3818,optionRight,80,9640,4,40,0,40,0,1,,,,,,,,,,,,,,,,,,,,,,,,,,,,,,,,,,,,,,,
,,,,,,,,2023-08-16_08h27.57.233,HF_wild_card,2022.2.4,Win32,59.54507562,59a7cfeb7ff2320001ec59d9,64d2fd46c836a06233681665,64dc7a5e405934a36ae2ece3,,,,,,,decisionTrl,resources/DBN.BMP,resources/DY.BMP,Door4,0.318518519,-0.034259259,1,0,0,1.3969,optionRight,80,9720,4,41,0,41,0,1,,,,,,,,,,,,,,,,,,,,,,,,,,,,,,,,,,,,,,,
,,,,,,,,2023-08-16_08h27.57.233,HF_wild_card,2022.2.4,Win32,59.54507562,59a7cfeb7ff2320001ec59d9,64d2fd46c836a06233681665,64dc7a5e405934a36ae2ece3,,,,,,,sngl,resources/DR.BMP,resources/Empty.png,Door1,-0.252777778,0.035185185,1,0,0,0.9152,optionLeft,30,9750,4,42,0,42,0,1,,,,,,,,,,,,,,,,,,,,,,,,,,,,,,,,,,,,,,,
,,,,,,,,2023-08-16_08h27.57.233,HF_wild_card,2022.2.4,Win32,59.54507562,59a7cfeb7ff2320001ec59d9,64d2fd46c836a06233681665,64dc7a5e405934a36ae2ece3,,,,,,,decisionTrl,resources/DY.BMP,resources/DBN.BMP,Door4,-0.313888889,-0.002777778,1,0,0,3.1484,optionLeft,80,9830,4,43,0,43,0,1,,,,,,,,,,,,,,,,,,,,,,,,,,,,,,,,,,,,,,,
,,,,,,,,2023-08-16_08h27.57.233,HF_wild_card,2022.2.4,Win32,59.54507562,59a7cfeb7ff2320001ec59d9,64d2fd46c836a06233681665,64dc7a5e405934a36ae2ece3,,,,,,,,,,,,,,,,,,,,,,,,,,3,0,3,0,1,,,,,,,,,,,,,,,,,,,,,,,,,,,,,,,,,,
,,,,,,,,2023-08-16_08h27.57.233,HF_wild_card,2022.2.4,Win32,59.54507562,59a7cfeb7ff2320001ec59d9,64d2fd46c836a06233681665,64dc7a5e405934a36ae2ece3,,,,,,,decisionTrl,resources/DBN.BMP,resources/DY.BMP,Door4,0.230555556,-0.143518519,1,0,0,1.8761,optionRight,60,9890,5,0,0,0,0,1,,,,,,,,,,,,,,,,,,,,,,,,,,,,,,,,,,,,,,,
,,,,,,,,2023-08-16_08h27.57.233,HF_wild_card,2022.2.4,Win32,59.54507562,59a7cfeb7ff2320001ec59d9,64d2fd46c836a06233681665,64dc7a5e405934a36ae2ece3,,,,,,,sngl,resources/DG.BMP,resources/Empty.png,Door2,-0.225925926,0.025925926,1,0,0,0.8318,optionLeft,40,9930,5,1,0,1,0,1,,,,,,,,,,,,,,,,,,,,,,,,,,,,,,,,,,,,,,,
,,,,,,,,2023-08-16_08h27.57.233,HF_wild_card,2022.2.4,Win32,59.54507562,59a7cfeb7ff2320001ec59d9,64d2fd46c836a06233681665,64dc7a5e405934a36ae2ece3,,,,,,,ctch,resources/DBN.BMP,resources/DG.BMP,Door3,-0.249074074,0.016666667,1,0,0,1.0648,optionLeft,70,10000,5,2,0,2,0,1,,,,,,,,,,,,,,,,,,,,,,,,,,,,,,,,,,,,,,,
,,,,,,,,2023-08-16_08h27.57.233,HF_wild_card,2022.2.4,Win32,59.54507562,59a7cfeb7ff2320001ec59d9,64d2fd46c836a06233681665,64dc7a5e405934a36ae2ece3,,,,,,,decisionTrl,resources/DG.BMP,resources/DR.BMP,Door2,-0.294444444,-0.000925926,1,0,0,2.3009,optionLeft,20,10020,5,3,0,3,0,1,,,,,,,,,,,,,,,,,,,,,,,,,,,,,,,,,,,,,,,
,,,,,,,,2023-08-16_08h27.57.233,HF_wild_card,2022.2.4,Win32,59.54507562,59a7cfeb7ff2320001ec59d9,64d2fd46c836a06233681665,64dc7a5e405934a36ae2ece3,,,,,,,ctch,resources/DY.BMP,resources/DR.BMP,Door4,-0.271296296,-0.042592593,1,0,0,1.5136,optionLeft,80,10100,5,4,0,4,0,1,,,,,,,,,,,,,,,,,,,,,,,,,,,,,,,,,,,,,,,
,,,,,,,,2023-08-16_08h27.57.233,HF_wild_card,2022.2.4,Win32,59.54507562,59a7cfeb7ff2320001ec59d9,64d2fd46c836a06233681665,64dc7a5e405934a36ae2ece3,,,,,,,decisionTrl,resources/DBN.BMP,resources/DY.BMP,Door4,0.213888889,-0.025925926,1,0,0,1.5321,optionRight,60,10160,5,5,0,5,0,1,,,,,,,,,,,,,,,,,,,,,,,,,,,,,,,,,,,,,,,
,,,,,,,,2023-08-16_08h27.57.233,HF_wild_card,2022.2.4,Win32,59.54507562,59a7cfeb7ff2320001ec59d9,64d2fd46c836a06233681665,64dc7a5e405934a36ae2ece3,,,,,,,sngl,resources/Empty.png,resources/DBN.BMP,Door3,0.332407407,-0.027777778,1,0,0,0.9818,optionRight,70,10230,5,6,0,6,0,1,,,,,,,,,,,,,,,,,,,,,,,,,,,,,,,,,,,,,,,
,,,,,,,,2023-08-16_08h27.57.233,HF_wild_card,2022.2.4,Win32,59.54507562,59a7cfeb7ff2320001ec59d9,64d2fd46c836a06233681665,64dc7a5e405934a36ae2ece3,,,,,,,sngl,resources/Empty.png,resources/DP.BMP,WildCard_Ex,0.262037037,-0.030555556,1,0,0,0.7492,optionRight,5,10235,5,7,0,7,0,1,,,,,,,,,,,,,,,,,,,,,,,,,,,,,,,,,,,,,,,
,,,,,,,,2023-08-16_08h27.57.233,HF_wild_card,2022.2.4,Win32,59.54507562,59a7cfeb7ff2320001ec59d9,64d2fd46c836a06233681665,64dc7a5e405934a36ae2ece3,,,,,,,decisionTrl,resources/DG.BMP,resources/DR.BMP,Door2,-0.335185185,0.002777778,1,0,0,2.4155,optionLeft,40,10275,5,8,0,8,0,1,,,,,,,,,,,,,,,,,,,,,,,,,,,,,,,,,,,,,,,
,,,,,,,,2023-08-16_08h27.57.233,HF_wild_card,2022.2.4,Win32,59.54507562,59a7cfeb7ff2320001ec59d9,64d2fd46c836a06233681665,64dc7a5e405934a36ae2ece3,,,,,,,sngl,resources/Empty.png,resources/DY.BMP,Door4,0.450925926,0.012962963,1,0,0,1.8462,optionRight,60,10335,5,9,0,9,0,1,,,,,,,,,,,,,,,,,,,,,,,,,,,,,,,,,,,,,,,
,,,,,,,,2023-08-16_08h27.57.233,HF_wild_card,2022.2.4,Win32,59.54507562,59a7cfeb7ff2320001ec59d9,64d2fd46c836a06233681665,64dc7a5e405934a36ae2ece3,,,,,,,decisionTrl,resources/DR.BMP,resources/DG.BMP,Door2,0.393518519,-0.033333333,1,0,0,1.5649,optionRight,20,10355,5,10,0,10,0,1,,,,,,,,,,,,,,,,,,,,,,,,,,,,,,,,,,,,,,,
,,,,,,,,2023-08-16_08h27.57.233,HF_wild_card,2022.2.4,Win32,59.54507562,59a7cfeb7ff2320001ec59d9,64d2fd46c836a06233681665,64dc7a5e405934a36ae2ece3,,,,,,,ctch,resources/DR.BMP,resources/DY.BMP,Door4,0.384259259,-0.025925926,1,0,0,1.2477,optionRight,80,10435,5,11,0,11,0,1,,,,,,,,,,,,,,,,,,,,,,,,,,,,,,,,,,,,,,,
,,,,,,,,2023-08-16_08h27.57.233,HF_wild_card,2022.2.4,Win32,59.54507562,59a7cfeb7ff2320001ec59d9,64d2fd46c836a06233681665,64dc7a5e405934a36ae2ece3,,,,,,,decisionTrl,resources/DY.BMP,resources/DBN.BMP,Door3,0.261111111,-0.023148148,1,0,0,2.1151,optionRight,70,10505,5,12,0,12,0,1,,,,,,,,,,,,,,,,,,,,,,,,,,,,,,,,,,,,,,,
,,,,,,,,2023-08-16_08h27.57.233,HF_wild_card,2022.2.4,Win32,59.54507562,59a7cfeb7ff2320001ec59d9,64d2fd46c836a06233681665,64dc7a5e405934a36ae2ece3,,,,,,,decisionTrl,resources/DG.BMP,resources/DP.BMP,WildCard_Ex,0.391666667,-0.088888889,1,0,0,1.4305,optionRight,95,10600,5,13,0,13,0,1,,,,,,,,,,,,,,,,,,,,,,,,,,,,,,,,,,,,,,,
,,,,,,,,2023-08-16_08h27.57.233,HF_wild_card,2022.2.4,Win32,59.54507562,59a7cfeb7ff2320001ec59d9,64d2fd46c836a06233681665,64dc7a5e405934a36ae2ece3,,,,,,,decisionTrl,resources/DG.BMP,resources/DR.BMP,Door2,-0.315740741,0.012962963,1,0,0,2.8769,optionLeft,40,10640,5,14,0,14,0,1,,,,,,,,,,,,,,,,,,,,,,,,,,,,,,,,,,,,,,,
,,,,,,,,2023-08-16_08h27.57.233,HF_wild_card,2022.2.4,Win32,59.54507562,59a7cfeb7ff2320001ec59d9,64d2fd46c836a06233681665,64dc7a5e405934a36ae2ece3,,,,,,,decisionTrl,resources/DP.BMP,resources/DY.BMP,WildCard_Ex,-0.252777778,-0.021296296,1,0,0,1.2469,optionLeft,95,10735,5,15,0,15,0,1,,,,,,,,,,,,,,,,,,,,,,,,,,,,,,,,,,,,,,,
,,,,,,,,2023-08-16_08h27.57.233,HF_wild_card,2022.2.4,Win32,59.54507562,59a7cfeb7ff2320001ec59d9,64d2fd46c836a06233681665,64dc7a5e405934a36ae2ece3,,,,,,,decisionTrl,resources/DY.BMP,resources/DBN.BMP,Door4,-0.25,0.02037037,1,0,0,1.2982,optionLeft,80,10815,5,16,0,16,0,1,,,,,,,,,,,,,,,,,,,,,,,,,,,,,,,,,,,,,,,
,,,,,,,,2023-08-16_08h27.57.233,HF_wild_card,2022.2.4,Win32,59.54507562,59a7cfeb7ff2320001ec59d9,64d2fd46c836a06233681665,64dc7a5e405934a36ae2ece3,,,,,,,decisionTrl,resources/DR.BMP,resources/DG.BMP,Door2,0.42037037,-0.075,1,0,0,2.0323,optionRight,40,10855,5,17,0,17,0,1,,,,,,,,,,,,,,,,,,,,,,,,,,,,,,,,,,,,,,,
,,,,,,,,2023-08-16_08h27.57.233,HF_wild_card,2022.2.4,Win32,59.54507562,59a7cfeb7ff2320001ec59d9,64d2fd46c836a06233681665,64dc7a5e405934a36ae2ece3,,,,,,,decisionTrl,resources/DP.BMP,resources/DR.BMP,WildCard_Ex,-0.284259259,-0.018518519,1,0,0,1.0138,optionLeft,95,10950,5,18,0,18,0,1,,,,,,,,,,,,,,,,,,,,,,,,,,,,,,,,,,,,,,,
,,,,,,,,2023-08-16_08h27.57.233,HF_wild_card,2022.2.4,Win32,59.54507562,59a7cfeb7ff2320001ec59d9,64d2fd46c836a06233681665,64dc7a5e405934a36ae2ece3,,,,,,,sngl,resources/DP.BMP,resources/Empty.png,WildCard_Ex,-0.213888889,0.000925926,1,0,0,0.5983,optionLeft,5,10955,5,19,0,19,0,1,,,,,,,,,,,,,,,,,,,,,,,,,,,,,,,,,,,,,,,
,,,,,,,,2023-08-16_08h27.57.233,HF_wild_card,2022.2.4,Win32,59.54507562,59a7cfeb7ff2320001ec59d9,64d2fd46c836a06233681665,64dc7a5e405934a36ae2ece3,,,,,,,sngl,resources/DY.BMP,resources/Empty.png,Door4,-0.200925926,0.012962963,1,0,0,0.7154,optionLeft,80,11035,5,20,0,20,0,1,,,,,,,,,,,,,,,,,,,,,,,,,,,,,,,,,,,,,,,
,,,,,,,,2023-08-16_08h27.57.233,HF_wild_card,2022.2.4,Win32,59.54507562,59a7cfeb7ff2320001ec59d9,64d2fd46c836a06233681665,64dc7a5e405934a36ae2ece3,,,,,,,decisionTrl,resources/DP.BMP,resources/DG.BMP,WildCard_Ex,-0.203703704,-0.021296296,1,0,0,1.5318,optionLeft,95,11130,5,21,0,21,0,1,,,,,,,,,,,,,,,,,,,,,,,,,,,,,,,,,,,,,,,
,,,,,,,,2023-08-16_08h27.57.233,HF_wild_card,2022.2.4,Win32,59.54507562,59a7cfeb7ff2320001ec59d9,64d2fd46c836a06233681665,64dc7a5e405934a36ae2ece3,,,,,,,sngl,resources/Empty.png,resources/DR.BMP,Door1,0.263888889,-0.050925926,1,0,0,0.6842,optionRight,30,11160,5,22,0,22,0,1,,,,,,,,,,,,,,,,,,,,,,,,,,,,,,,,,,,,,,,
,,,,,,,,2023-08-16_08h27.57.233,HF_wild_card,2022.2.4,Win32,59.54507562,59a7cfeb7ff2320001ec59d9,64d2fd46c836a06233681665,64dc7a5e405934a36ae2ece3,,,,,,,ctch,resources/DY.BMP,resources/DR.BMP,Door4,-0.310185185,0.005555556,1,0,0,1.0147,optionLeft,80,11240,5,23,0,23,0,1,,,,,,,,,,,,,,,,,,,,,,,,,,,,,,,,,,,,,,,
,,,,,,,,2023-08-16_08h27.57.233,HF_wild_card,2022.2.4,Win32,59.54507562,59a7cfeb7ff2320001ec59d9,64d2fd46c836a06233681665,64dc7a5e405934a36ae2ece3,,,,,,,decisionTrl,resources/DBN.BMP,resources/DP.BMP,WildCard_Ex,0.393518519,-0.080555556,1,0,0,1.5819,optionRight,95,11335,5,24,0,24,0,1,,,,,,,,,,,,,,,,,,,,,,,,,,,,,,,,,,,,,,,
,,,,,,,,2023-08-16_08h27.57.233,HF_wild_card,2022.2.4,Win32,59.54507562,59a7cfeb7ff2320001ec59d9,64d2fd46c836a06233681665,64dc7a5e405934a36ae2ece3,,,,,,,decisionTrl,resources/DG.BMP,resources/DR.BMP,Door2,-0.227777778,-0.00462963,1,0,0,1.4342,optionLeft,20,11355,5,25,0,25,0,1,,,,,,,,,,,,,,,,,,,,,,,,,,,,,,,,,,,,,,,
,,,,,,,,2023-08-16_08h27.57.233,HF_wild_card,2022.2.4,Win32,59.54507562,59a7cfeb7ff2320001ec59d9,64d2fd46c836a06233681665,64dc7a5e405934a36ae2ece3,,,,,,,decisionTrl,resources/DR.BMP,resources/DP.BMP,WildCard_Ex,0.330555556,-0.058333333,1,0,0,2.3962,optionRight,95,11450,5,26,0,26,0,1,,,,,,,,,,,,,,,,,,,,,,,,,,,,,,,,,,,,,,,
,,,,,,,,2023-08-16_08h27.57.233,HF_wild_card,2022.2.4,Win32,59.54507562,59a7cfeb7ff2320001ec59d9,64d2fd46c836a06233681665,64dc7a5e405934a36ae2ece3,,,,,,,decisionTrl,resources/DY.BMP,resources/DBN.BMP,Door4,-0.415740741,0.008333333,1,0,0,1.8766,optionLeft,60,11510,5,27,0,27,0,1,,,,,,,,,,,,,,,,,,,,,,,,,,,,,,,,,,,,,,,
,,,,,,,,2023-08-16_08h27.57.233,HF_wild_card,2022.2.4,Win32,59.54507562,59a7cfeb7ff2320001ec59d9,64d2fd46c836a06233681665,64dc7a5e405934a36ae2ece3,,,,,,,ctch,resources/DR.BMP,resources/DY.BMP,Door4,0.351851852,-0.038888889,1,0,0,1.682,optionRight,60,11570,5,28,0,28,0,1,,,,,,,,,,,,,,,,,,,,,,,,,,,,,,,,,,,,,,,
,,,,,,,,2023-08-16_08h27.57.233,HF_wild_card,2022.2.4,Win32,59.54507562,59a7cfeb7ff2320001ec59d9,64d2fd46c836a06233681665,64dc7a5e405934a36ae2ece3,,,,,,,ctch,resources/DBN.BMP,resources/DG.BMP,Door3,-0.307407407,0.023148148,1,0,0,1.032,optionLeft,70,11640,5,29,0,29,0,1,,,,,,,,,,,,,,,,,,,,,,,,,,,,,,,,,,,,,,,
,,,,,,,,2023-08-16_08h27.57.233,HF_wild_card,2022.2.4,Win32,59.54507562,59a7cfeb7ff2320001ec59d9,64d2fd46c836a06233681665,64dc7a5e405934a36ae2ece3,,,,,,,sngl,resources/Empty.png,resources/DG.BMP,Door2,0.311111111,-0.053703704,1,0,0,0.6654,optionRight,20,11660,5,30,0,30,0,1,,,,,,,,,,,,,,,,,,,,,,,,,,,,,,,,,,,,,,,
,,,,,,,,2023-08-16_08h27.57.233,HF_wild_card,2022.2.4,Win32,59.54507562,59a7cfeb7ff2320001ec59d9,64d2fd46c836a06233681665,64dc7a5e405934a36ae2ece3,,,,,,,decisionTrl,resources/DBN.BMP,resources/DY.BMP,Door4,0.252777778,-0.02037037,1,0,0,1.1516,optionRight,60,11720,5,31,0,31,0,1,,,,,,,,,,,,,,,,,,,,,,,,,,,,,,,,,,,,,,,
,,,,,,,,2023-08-16_08h27.57.233,HF_wild_card,2022.2.4,Win32,59.54507562,59a7cfeb7ff2320001ec59d9,64d2fd46c836a06233681665,64dc7a5e405934a36ae2ece3,,,,,,,decisionTrl,resources/DY.BMP,resources/DBN.BMP,Door4,-0.318518519,0.016666667,1,0,0,1.2154,optionLeft,60,11780,5,32,0,32,0,1,,,,,,,,,,,,,,,,,,,,,,,,,,,,,,,,,,,,,,,
,,,,,,,,2023-08-16_08h27.57.233,HF_wild_card,2022.2.4,Win32,59.54507562,59a7cfeb7ff2320001ec59d9,64d2fd46c836a06233681665,64dc7a5e405934a36ae2ece3,,,,,,,sngl,resources/DR.BMP,resources/Empty.png,Door1,-0.221296296,-0.005555556,1,0,0,0.6986,optionLeft,30,11810,5,33,0,33,0,1,,,,,,,,,,,,,,,,,,,,,,,,,,,,,,,,,,,,,,,
,,,,,,,,2023-08-16_08h27.57.233,HF_wild_card,2022.2.4,Win32,59.54507562,59a7cfeb7ff2320001ec59d9,64d2fd46c836a06233681665,64dc7a5e405934a36ae2ece3,,,,,,,sngl,resources/Empty.png,resources/DP.BMP,WildCard_Ex,0.282407407,-0.042592593,1,0,0,0.7649,optionRight,95,11905,5,34,0,34,0,1,,,,,,,,,,,,,,,,,,,,,,,,,,,,,,,,,,,,,,,
,,,,,,,,2023-08-16_08h27.57.233,HF_wild_card,2022.2.4,Win32,59.54507562,59a7cfeb7ff2320001ec59d9,64d2fd46c836a06233681665,64dc7a5e405934a36ae2ece3,,,,,,,sngl,resources/DBN.BMP,resources/Empty.png,Door3,-0.296296296,0.002777778,1,0,0,0.6801,optionLeft,70,11975,5,35,0,35,0,1,,,,,,,,,,,,,,,,,,,,,,,,,,,,,,,,,,,,,,,
,,,,,,,,2023-08-16_08h27.57.233,HF_wild_card,2022.2.4,Win32,59.54507562,59a7cfeb7ff2320001ec59d9,64d2fd46c836a06233681665,64dc7a5e405934a36ae2ece3,,,,,,,decisionTrl,resources/DR.BMP,resources/DG.BMP,Door2,0.414814815,-0.017592593,1,0,0,3.0981,optionRight,40,12015,5,36,0,36,0,1,,,,,,,,,,,,,,,,,,,,,,,,,,,,,,,,,,,,,,,
,,,,,,,,2023-08-16_08h27.57.233,HF_wild_card,2022.2.4,Win32,59.54507562,59a7cfeb7ff2320001ec59d9,64d2fd46c836a06233681665,64dc7a5e405934a36ae2ece3,,,,,,,decisionTrl,resources/DR.BMP,resources/DG.BMP,Door2,0.275925926,-0.003703704,1,0,0,1.6175,optionRight,40,12055,5,37,0,37,0,1,,,,,,,,,,,,,,,,,,,,,,,,,,,,,,,,,,,,,,,
,,,,,,,,2023-08-16_08h27.57.233,HF_wild_card,2022.2.4,Win32,59.54507562,59a7cfeb7ff2320001ec59d9,64d2fd46c836a06233681665,64dc7a5e405934a36ae2ece3,,,,,,,ctch,resources/DG.BMP,resources/DBN.BMP,Door3,0.27962963,-0.016666667,1,0,0,1.1652,optionRight,70,12125,5,38,0,38,0,1,,,,,,,,,,,,,,,,,,,,,,,,,,,,,,,,,,,,,,,
,,,,,,,,2023-08-16_08h27.57.233,HF_wild_card,2022.2.4,Win32,59.54507562,59a7cfeb7ff2320001ec59d9,64d2fd46c836a06233681665,64dc7a5e405934a36ae2ece3,,,,,,,decisionTrl,resources/DBN.BMP,resources/DY.BMP,Door4,0.352777778,-0.064814815,1,0,0,2.413,optionRight,80,12205,5,39,0,39,0,1,,,,,,,,,,,,,,,,,,,,,,,,,,,,,,,,,,,,,,,
,,,,,,,,2023-08-16_08h27.57.233,HF_wild_card,2022.2.4,Win32,59.54507562,59a7cfeb7ff2320001ec59d9,64d2fd46c836a06233681665,64dc7a5e405934a36ae2ece3,,,,,,,decisionTrl,resources/DP.BMP,resources/DBN.BMP,WildCard_Ex,-0.246296296,-0.042592593,1,0,0,0.9152,optionLeft,95,12300,5,40,0,40,0,1,,,,,,,,,,,,,,,,,,,,,,,,,,,,,,,,,,,,,,,
,,,,,,,,2023-08-16_08h27.57.233,HF_wild_card,2022.2.4,Win32,59.54507562,59a7cfeb7ff2320001ec59d9,64d2fd46c836a06233681665,64dc7a5e405934a36ae2ece3,,,,,,,ctch,resources/DG.BMP,resources/DBN.BMP,Door3,0.248148148,-0.042592593,1,0,0,0.9981,optionRight,70,12370,5,41,0,41,0,1,,,,,,,,,,,,,,,,,,,,,,,,,,,,,,,,,,,,,,,
,,,,,,,,2023-08-16_08h27.57.233,HF_wild_card,2022.2.4,Win32,59.54507562,59a7cfeb7ff2320001ec59d9,64d2fd46c836a06233681665,64dc7a5e405934a36ae2ece3,,,,,,,decisionTrl,resources/DY.BMP,resources/DP.BMP,WildCard_Ex,0.317592593,-0.062962963,1,0,0,1.7645,optionRight,95,12465,5,42,0,42,0,1,,,,,,,,,,,,,,,,,,,,,,,,,,,,,,,,,,,,,,,
,,,,,,,,2023-08-16_08h27.57.233,HF_wild_card,2022.2.4,Win32,59.54507562,59a7cfeb7ff2320001ec59d9,64d2fd46c836a06233681665,64dc7a5e405934a36ae2ece3,,,,,,,sngl,resources/DP.BMP,resources/Empty.png,WildCard_Ex,-0.249074074,-0.012037037,1,0,0,1.5818,optionLeft,95,12560,5,43,0,43,0,1,,,,,,,,,,,,,,,,,,,,,,,,,,,,,,,,,,,,,,,
,,,,,,,,2023-08-16_08h27.57.233,HF_wild_card,2022.2.4,Win32,59.54507562,59a7cfeb7ff2320001ec59d9,64d2fd46c836a06233681665,64dc7a5e405934a36ae2ece3,,,,,,,,,,,,,,,,,,,,,,,,,,4,0,4,0,1,,,,,,,,,,,,,,,,,,,,,,,,,,,,,,,,,,
,,,,,,,,2023-08-16_08h27.57.233,HF_wild_card,2022.2.4,Win32,59.54507562,59a7cfeb7ff2320001ec59d9,64d2fd46c836a06233681665,64dc7a5e405934a36ae2ece3,,,,,,,sngl,resources/DR.BMP,resources/Empty.png,Door1,-0.297222222,-0.028703704,1,0,0,1.3573,optionLeft,30,12590,6,0,0,0,0,1,,,,,,,,,,,,,,,,,,,,,,,,,,,,,,,,,,,,,,,
,,,,,,,,2023-08-16_08h27.57.233,HF_wild_card,2022.2.4,Win32,59.54507562,59a7cfeb7ff2320001ec59d9,64d2fd46c836a06233681665,64dc7a5e405934a36ae2ece3,,,,,,,decisionTrl,resources/DBN.BMP,resources/DY.BMP,Door4,0.387962963,-0.044444444,1,0,0,1.4985,optionRight,80,12670,6,1,0,1,0,1,,,,,,,,,,,,,,,,,,,,,,,,,,,,,,,,,,,,,,,
,,,,,,,,2023-08-16_08h27.57.233,HF_wild_card,2022.2.4,Win32,59.54507562,59a7cfeb7ff2320001ec59d9,64d2fd46c836a06233681665,64dc7a5e405934a36ae2ece3,,,,,,,decisionTrl,resources/DY.BMP,resources/DBN.BMP,Door4,-0.285185185,0.015740741,1,0,0,2.5324,optionLeft,80,12750,6,2,0,2,0,1,,,,,,,,,,,,,,,,,,,,,,,,,,,,,,,,,,,,,,,
,,,,,,,,2023-08-16_08h27.57.233,HF_wild_card,2022.2.4,Win32,59.54507562,59a7cfeb7ff2320001ec59d9,64d2fd46c836a06233681665,64dc7a5e405934a36ae2ece3,,,,,,,decisionTrl,resources/DBN.BMP,resources/DY.BMP,Door4,0.359259259,-0.046296296,1,0,0,1.0483,optionRight,80,12830,6,3,0,3,0,1,,,,,,,,,,,,,,,,,,,,,,,,,,,,,,,,,,,,,,,
,,,,,,,,2023-08-16_08h27.57.233,HF_wild_card,2022.2.4,Win32,59.54507562,59a7cfeb7ff2320001ec59d9,64d2fd46c836a06233681665,64dc7a5e405934a36ae2ece3,,,,,,,decisionTrl,resources/DY.BMP,resources/DBN.BMP,Door4,-0.225,-0.003703704,1,0,0,1.1816,optionLeft,60,12890,6,4,0,4,0,1,,,,,,,,,,,,,,,,,,,,,,,,,,,,,,,,,,,,,,,
,,,,,,,,2023-08-16_08h27.57.233,HF_wild_card,2022.2.4,Win32,59.54507562,59a7cfeb7ff2320001ec59d9,64d2fd46c836a06233681665,64dc7a5e405934a36ae2ece3,,,,,,,decisionTrl,resources/DG.BMP,resources/DR.BMP,Door2,-0.297222222,0.008333333,1,0,0,1.731,optionLeft,40,12930,6,5,0,5,0,1,,,,,,,,,,,,,,,,,,,,,,,,,,,,,,,,,,,,,,,
,,,,,,,,2023-08-16_08h27.57.233,HF_wild_card,2022.2.4,Win32,59.54507562,59a7cfeb7ff2320001ec59d9,64d2fd46c836a06233681665,64dc7a5e405934a36ae2ece3,,,,,,,decisionTrl,resources/DR.BMP,resources/DP.BMP,WildCard_Ex,0.32037037,-0.080555556,1,0,0,1.3818,optionRight,5,12935,6,6,0,6,0,1,,,,,,,,,,,,,,,,,,,,,,,,,,,,,,,,,,,,,,,
,,,,,,,,2023-08-16_08h27.57.233,HF_wild_card,2022.2.4,Win32,59.54507562,59a7cfeb7ff2320001ec59d9,64d2fd46c836a06233681665,64dc7a5e405934a36ae2ece3,,,,,,,decisionTrl,resources/DP.BMP,resources/DBN.BMP,WildCard_Ex,-0.332407407,-0.039814815,1,0,0,0.7817,optionLeft,95,13030,6,7,0,7,0,1,,,,,,,,,,,,,,,,,,,,,,,,,,,,,,,,,,,,,,,
,,,,,,,,2023-08-16_08h27.57.233,HF_wild_card,2022.2.4,Win32,59.54507562,59a7cfeb7ff2320001ec59d9,64d2fd46c836a06233681665,64dc7a5e405934a36ae2ece3,,,,,,,ctch,resources/DY.BMP,resources/DR.BMP,Door4,-0.22962963,-0.010185185,1,0,0,2.4821,optionLeft,60,13090,6,8,0,8,0,1,,,,,,,,,,,,,,,,,,,,,,,,,,,,,,,,,,,,,,,
,,,,,,,,2023-08-16_08h27.57.233,HF_wild_card,2022.2.4,Win32,59.54507562,59a7cfeb7ff2320001ec59d9,64d2fd46c836a06233681665,64dc7a5e405934a36ae2ece3,,,,,,,ctch,resources/DY.BMP,resources/DR.BMP,Door4,-0.20462963,-0.042592593,1,0,0,0.8797,optionLeft,60,13150,6,9,0,9,0,1,,,,,,,,,,,,,,,,,,,,,,,,,,,,,,,,,,,,,,,
,,,,,,,,2023-08-16_08h27.57.233,HF_wild_card,2022.2.4,Win32,59.54507562,59a7cfeb7ff2320001ec59d9,64d2fd46c836a06233681665,64dc7a5e405934a36ae2ece3,,,,,,,decisionTrl,resources/DG.BMP,resources/DR.BMP,Door2,-0.353703704,-0.025925926,1,0,0,2.1317,optionLeft,20,13170,6,10,0,10,0,1,,,,,,,,,,,,,,,,,,,,,,,,,,,,,,,,,,,,,,,
,,,,,,,,2023-08-16_08h27.57.233,HF_wild_card,2022.2.4,Win32,59.54507562,59a7cfeb7ff2320001ec59d9,64d2fd46c836a06233681665,64dc7a5e405934a36ae2ece3,,,,,,,sngl,resources/DG.BMP,resources/Empty.png,Door2,-0.25462963,-0.012962963,1,0,0,0.9669,optionLeft,20,13190,6,11,0,11,0,1,,,,,,,,,,,,,,,,,,,,,,,,,,,,,,,,,,,,,,,
,,,,,,,,2023-08-16_08h27.57.233,HF_wild_card,2022.2.4,Win32,59.54507562,59a7cfeb7ff2320001ec59d9,64d2fd46c836a06233681665,64dc7a5e405934a36ae2ece3,,,,,,,sngl,resources/DY.BMP,resources/Empty.png,Door4,-0.221296296,-0.023148148,1,0,0,0.6148,optionLeft,60,13250,6,12,0,12,0,1,,,,,,,,,,,,,,,,,,,,,,,,,,,,,,,,,,,,,,,
,,,,,,,,2023-08-16_08h27.57.233,HF_wild_card,2022.2.4,Win32,59.54507562,59a7cfeb7ff2320001ec59d9,64d2fd46c836a06233681665,64dc7a5e405934a36ae2ece3,,,,,,,decisionTrl,resources/DY.BMP,resources/DP.BMP,WildCard_Ex,0.322222222,-0.053703704,1,0,0,0.8153,optionRight,5,13255,6,13,0,13,0,1,,,,,,,,,,,,,,,,,,,,,,,,,,,,,,,,,,,,,,,
,,,,,,,,2023-08-16_08h27.57.233,HF_wild_card,2022.2.4,Win32,59.54507562,59a7cfeb7ff2320001ec59d9,64d2fd46c836a06233681665,64dc7a5e405934a36ae2ece3,,,,,,,sngl,resources/Empty.png,resources/DY.BMP,Door4,0.205555556,-0.039814815,1,0,0,0.6482,optionRight,80,13335,6,14,0,14,0,1,,,,,,,,,,,,,,,,,,,,,,,,,,,,,,,,,,,,,,,
,,,,,,,,2023-08-16_08h27.57.233,HF_wild_card,2022.2.4,Win32,59.54507562,59a7cfeb7ff2320001ec59d9,64d2fd46c836a06233681665,64dc7a5e405934a36ae2ece3,,,,,,,sngl,resources/Empty.png,resources/DBN.BMP,Door3,0.256481481,-0.039814815,1,0,0,0.7484,optionRight,70,13405,6,15,0,15,0,1,,,,,,,,,,,,,,,,,,,,,,,,,,,,,,,,,,,,,,,
,,,,,,,,2023-08-16_08h27.57.233,HF_wild_card,2022.2.4,Win32,59.54507562,59a7cfeb7ff2320001ec59d9,64d2fd46c836a06233681665,64dc7a5e405934a36ae2ece3,,,,,,,sngl,resources/Empty.png,resources/DG.BMP,Door2,0.169444444,-0.046296296,1,0,0,0.6479,optionRight,40,13445,6,16,0,16,0,1,,,,,,,,,,,,,,,,,,,,,,,,,,,,,,,,,,,,,,,
,,,,,,,,2023-08-16_08h27.57.233,HF_wild_card,2022.2.4,Win32,59.54507562,59a7cfeb7ff2320001ec59d9,64d2fd46c836a06233681665,64dc7a5e405934a36ae2ece3,,,,,,,sngl,resources/DP.BMP,resources/Empty.png,WildCard_Ex,-0.218518519,-0.037962963,1,0,0,0.6486,optionLeft,95,13540,6,17,0,17,0,1,,,,,,,,,,,,,,,,,,,,,,,,,,,,,,,,,,,,,,,
,,,,,,,,2023-08-16_08h27.57.233,HF_wild_card,2022.2.4,Win32,59.54507562,59a7cfeb7ff2320001ec59d9,64d2fd46c836a06233681665,64dc7a5e405934a36ae2ece3,,,,,,,sngl,resources/Empty.png,resources/DP.BMP,WildCard_Ex,0.256481481,-0.069444444,1,0,0,0.5467,optionRight,95,13635,6,18,0,18,0,1,,,,,,,,,,,,,,,,,,,,,,,,,,,,,,,,,,,,,,,
,,,,,,,,2023-08-16_08h27.57.233,HF_wild_card,2022.2.4,Win32,59.54507562,59a7cfeb7ff2320001ec59d9,64d2fd46c836a06233681665,64dc7a5e405934a36ae2ece3,,,,,,,ctch,resources/DG.BMP,resources/DBN.BMP,Door3,0.250925926,-0.025,1,0,0,1.3653,optionRight,70,13705,6,19,0,19,0,1,,,,,,,,,,,,,,,,,,,,,,,,,,,,,,,,,,,,,,,
,,,,,,,,2023-08-16_08h27.57.233,HF_wild_card,2022.2.4,Win32,59.54507562,59a7cfeb7ff2320001ec59d9,64d2fd46c836a06233681665,64dc7a5e405934a36ae2ece3,,,,,,,sngl,resources/DBN.BMP,resources/Empty.png,Door3,-0.208333333,-0.008333333,1,0,0,0.5992,optionLeft,70,13775,6,20,0,20,0,1,,,,,,,,,,,,,,,,,,,,,,,,,,,,,,,,,,,,,,,
,,,,,,,,2023-08-16_08h27.57.233,HF_wild_card,2022.2.4,Win32,59.54507562,59a7cfeb7ff2320001ec59d9,64d2fd46c836a06233681665,64dc7a5e405934a36ae2ece3,,,,,,,ctch,resources/DG.BMP,resources/DBN.BMP,Door3,0.215740741,-0.042592593,1,0,0,0.5817,optionRight,70,13845,6,21,0,21,0,1,,,,,,,,,,,,,,,,,,,,,,,,,,,,,,,,,,,,,,,
,,,,,,,,2023-08-16_08h27.57.233,HF_wild_card,2022.2.4,Win32,59.54507562,59a7cfeb7ff2320001ec59d9,64d2fd46c836a06233681665,64dc7a5e405934a36ae2ece3,,,,,,,decisionTrl,resources/DG.BMP,resources/DR.BMP,Door2,-0.301851852,-0.008333333,1,0,0,3.1324,optionLeft,20,13865,6,22,0,22,0,1,,,,,,,,,,,,,,,,,,,,,,,,,,,,,,,,,,,,,,,
,,,,,,,,2023-08-16_08h27.57.233,HF_wild_card,2022.2.4,Win32,59.54507562,59a7cfeb7ff2320001ec59d9,64d2fd46c836a06233681665,64dc7a5e405934a36ae2ece3,,,,,,,decisionTrl,resources/DG.BMP,resources/DP.BMP,WildCard_Ex,0.317592593,-0.065740741,1,0,0,0.9468,optionRight,95,13960,6,23,0,23,0,1,,,,,,,,,,,,,,,,,,,,,,,,,,,,,,,,,,,,,,,
,,,,,,,,2023-08-16_08h27.57.233,HF_wild_card,2022.2.4,Win32,59.54507562,59a7cfeb7ff2320001ec59d9,64d2fd46c836a06233681665,64dc7a5e405934a36ae2ece3,,,,,,,decisionTrl,resources/DP.BMP,resources/DR.BMP,WildCard_Ex,-0.327777778,-0.021296296,1,0,0,0.9467,optionLeft,5,13965,6,24,0,24,0,1,,,,,,,,,,,,,,,,,,,,,,,,,,,,,,,,,,,,,,,
,,,,,,,,2023-08-16_08h27.57.233,HF_wild_card,2022.2.4,Win32,59.54507562,59a7cfeb7ff2320001ec59d9,64d2fd46c836a06233681665,64dc7a5e405934a36ae2ece3,,,,,,,decisionTrl,resources/DR.BMP,resources/DG.BMP,Door2,0.212962963,-0.05,1,0,0,1.1646,optionRight,20,13985,6,25,0,25,0,1,,,,,,,,,,,,,,,,,,,,,,,,,,,,,,,,,,,,,,,
,,,,,,,,2023-08-16_08h27.57.233,HF_wild_card,2022.2.4,Win32,59.54507562,59a7cfeb7ff2320001ec59d9,64d2fd46c836a06233681665,64dc7a5e405934a36ae2ece3,,,,,,,decisionTrl,resources/DBN.BMP,resources/DP.BMP,WildCard_Ex,0.289814815,-0.102777778,1,0,0,1.2484,optionRight,95,14080,6,26,0,26,0,1,,,,,,,,,,,,,,,,,,,,,,,,,,,,,,,,,,,,,,,
,,,,,,,,2023-08-16_08h27.57.233,HF_wild_card,2022.2.4,Win32,59.54507562,59a7cfeb7ff2320001ec59d9,64d2fd46c836a06233681665,64dc7a5e405934a36ae2ece3,,,,,,,ctch,resources/DR.BMP,resources/DY.BMP,Door4,0.299074074,-0.099074074,1,0,0,0.9315,optionRight,80,14160,6,27,0,27,0,1,,,,,,,,,,,,,,,,,,,,,,,,,,,,,,,,,,,,,,,
,,,,,,,,2023-08-16_08h27.57.233,HF_wild_card,2022.2.4,Win32,59.54507562,59a7cfeb7ff2320001ec59d9,64d2fd46c836a06233681665,64dc7a5e405934a36ae2ece3,,,,,,,decisionTrl,resources/DBN.BMP,resources/DY.BMP,Door4,0.289814815,-0.031481481,1,0,0,1.7968,optionRight,60,14220,6,28,0,28,0,1,,,,,,,,,,,,,,,,,,,,,,,,,,,,,,,,,,,,,,,
,,,,,,,,2023-08-16_08h27.57.233,HF_wild_card,2022.2.4,Win32,59.54507562,59a7cfeb7ff2320001ec59d9,64d2fd46c836a06233681665,64dc7a5e405934a36ae2ece3,,,,,,,decisionTrl,resources/DY.BMP,resources/DBN.BMP,Door4,-0.232407407,-0.02037037,1,0,0,1.5655,optionLeft,60,14280,6,29,0,29,0,1,,,,,,,,,,,,,,,,,,,,,,,,,,,,,,,,,,,,,,,
,,,,,,,,2023-08-16_08h27.57.233,HF_wild_card,2022.2.4,Win32,59.54507562,59a7cfeb7ff2320001ec59d9,64d2fd46c836a06233681665,64dc7a5e405934a36ae2ece3,,,,,,,sngl,resources/Empty.png,resources/DR.BMP,Door1,0.277777778,-0.049074074,1,0,0,0.7128,optionRight,30,14310,6,30,0,30,0,1,,,,,,,,,,,,,,,,,,,,,,,,,,,,,,,,,,,,,,,
,,,,,,,,2023-08-16_08h27.57.233,HF_wild_card,2022.2.4,Win32,59.54507562,59a7cfeb7ff2320001ec59d9,64d2fd46c836a06233681665,64dc7a5e405934a36ae2ece3,,,,,,,sngl,resources/Empty.png,resources/DP.BMP,WildCard_Ex,0.241666667,-0.067592593,1,0,0,0.682,optionRight,5,14315,6,31,0,31,0,1,,,,,,,,,,,,,,,,,,,,,,,,,,,,,,,,,,,,,,,
,,,,,,,,2023-08-16_08h27.57.233,HF_wild_card,2022.2.4,Win32,59.54507562,59a7cfeb7ff2320001ec59d9,64d2fd46c836a06233681665,64dc7a5e405934a36ae2ece3,,,,,,,decisionTrl,resources/DR.BMP,resources/DG.BMP,Door2,0.253703704,-0.050925926,1,0,0,1.3322,optionRight,40,14355,6,32,0,32,0,1,,,,,,,,,,,,,,,,,,,,,,,,,,,,,,,,,,,,,,,
,,,,,,,,2023-08-16_08h27.57.233,HF_wild_card,2022.2.4,Win32,59.54507562,59a7cfeb7ff2320001ec59d9,64d2fd46c836a06233681665,64dc7a5e405934a36ae2ece3,,,,,,,ctch,resources/DBN.BMP,resources/DG.BMP,Door3,-0.299074074,-0.023148148,1,0,0,1.0485,optionLeft,70,14425,6,33,0,33,0,1,,,,,,,,,,,,,,,,,,,,,,,,,,,,,,,,,,,,,,,
,,,,,,,,2023-08-16_08h27.57.233,HF_wild_card,2022.2.4,Win32,59.54507562,59a7cfeb7ff2320001ec59d9,64d2fd46c836a06233681665,64dc7a5e405934a36ae2ece3,,,,,,,ctch,resources/DBN.BMP,resources/DG.BMP,Door3,-0.155555556,-0.048148148,1,0,0,0.6486,optionLeft,70,14495,6,34,0,34,0,1,,,,,,,,,,,,,,,,,,,,,,,,,,,,,,,,,,,,,,,
,,,,,,,,2023-08-16_08h27.57.233,HF_wild_card,2022.2.4,Win32,59.54507562,59a7cfeb7ff2320001ec59d9,64d2fd46c836a06233681665,64dc7a5e405934a36ae2ece3,,,,,,,sngl,resources/DP.BMP,resources/Empty.png,WildCard_Ex,-0.236111111,-0.101851852,1,0,0,1.1575,optionLeft,5,14500,6,35,0,35,0,1,,,,,,,,,,,,,,,,,,,,,,,,,,,,,,,,,,,,,,,
,,,,,,,,2023-08-16_08h27.57.233,HF_wild_card,2022.2.4,Win32,59.54507562,59a7cfeb7ff2320001ec59d9,64d2fd46c836a06233681665,64dc7a5e405934a36ae2ece3,,,,,,,decisionTrl,resources/DR.BMP,resources/DG.BMP,Door2,0.287962963,-0.036111111,1,0,0,1.3077,optionRight,20,14520,6,36,0,36,0,1,,,,,,,,,,,,,,,,,,,,,,,,,,,,,,,,,,,,,,,
,,,,,,,,2023-08-16_08h27.57.233,HF_wild_card,2022.2.4,Win32,59.54507562,59a7cfeb7ff2320001ec59d9,64d2fd46c836a06233681665,64dc7a5e405934a36ae2ece3,,,,,,,decisionTrl,resources/DP.BMP,resources/DY.BMP,WildCard_Ex,-0.309259259,-0.007407407,1,0,0,0.9149,optionLeft,5,14525,6,37,0,37,0,1,,,,,,,,,,,,,,,,,,,,,,,,,,,,,,,,,,,,,,,
,,,,,,,,2023-08-16_08h27.57.233,HF_wild_card,2022.2.4,Win32,59.54507562,59a7cfeb7ff2320001ec59d9,64d2fd46c836a06233681665,64dc7a5e405934a36ae2ece3,,,,,,,ctch,resources/DR.BMP,resources/DY.BMP,Door4,0.365740741,-0.061111111,1,0,0,0.6007,optionRight,60,14585,6,38,0,38,0,1,,,,,,,,,,,,,,,,,,,,,,,,,,,,,,,,,,,,,,,
,,,,,,,,2023-08-16_08h27.57.233,HF_wild_card,2022.2.4,Win32,59.54507562,59a7cfeb7ff2320001ec59d9,64d2fd46c836a06233681665,64dc7a5e405934a36ae2ece3,,,,,,,decisionTrl,resources/DP.BMP,resources/DG.BMP,WildCard_Ex,-0.315740741,-0.019444444,1,0,0,0.7984,optionLeft,95,14680,6,39,0,39,0,1,,,,,,,,,,,,,,,,,,,,,,,,,,,,,,,,,,,,,,,
,,,,,,,,2023-08-16_08h27.57.233,HF_wild_card,2022.2.4,Win32,59.54507562,59a7cfeb7ff2320001ec59d9,64d2fd46c836a06233681665,64dc7a5e405934a36ae2ece3,,,,,,,decisionTrl,resources/DR.BMP,resources/DG.BMP,Door1,-0.368518519,-0.000925926,1,0,0,1.6656,optionLeft,30,14710,6,40,0,40,0,1,,,,,,,,,,,,,,,,,,,,,,,,,,,,,,,,,,,,,,,
,,,,,,,,2023-08-16_08h27.57.233,HF_wild_card,2022.2.4,Win32,59.54507562,59a7cfeb7ff2320001ec59d9,64d2fd46c836a06233681665,64dc7a5e405934a36ae2ece3,,,,,,,decisionTrl,resources/DG.BMP,resources/DR.BMP,Door2,-0.312037037,-0.024074074,1,0,0,2.3484,optionLeft,20,14730,6,41,0,41,0,1,,,,,,,,,,,,,,,,,,,,,,,,,,,,,,,,,,,,,,,
,,,,,,,,2023-08-16_08h27.57.233,HF_wild_card,2022.2.4,Win32,59.54507562,59a7cfeb7ff2320001ec59d9,64d2fd46c836a06233681665,64dc7a5e405934a36ae2ece3,,,,,,,decisionTrl,resources/DY.BMP,resources/DBN.BMP,Door4,-0.181481481,-0.012962963,1,0,0,12.1318,optionLeft,60,14790,6,42,0,42,0,1,,,,,,,,,,,,,,,,,,,,,,,,,,,,,,,,,,,,,,,
,,,,,,,,2023-08-16_08h27.57.233,HF_wild_card,2022.2.4,Win32,59.54507562,59a7cfeb7ff2320001ec59d9,64d2fd46c836a06233681665,64dc7a5e405934a36ae2ece3,,,,,,,decisionTrl,resources/DBN.BMP,resources/DY.BMP,Door3,-0.328703704,0.012037037,1,0,0,1.1816,optionLeft,70,14860,6,43,0,43,0,1,,,,,,,,,,,,,,,,,,,,,,,,,,,,,,,,,,,,,,,
,,,,,,,,2023-08-16_08h27.57.233,HF_wild_card,2022.2.4,Win32,59.54507562,59a7cfeb7ff2320001ec59d9,64d2fd46c836a06233681665,64dc7a5e405934a36ae2ece3,,,,,,,,,,,,,,,,,,,,,,,,,,5,0,5,0,1,,,,,,,,,,,,,,,,,,,,,,,,,,,,,,,,,,
,,,,,,,,2023-08-16_08h27.57.233,HF_wild_card,2022.2.4,Win32,59.54507562,59a7cfeb7ff2320001ec59d9,64d2fd46c836a06233681665,64dc7a5e405934a36ae2ece3,,,,,,,decisionTrl,resources/DBN.BMP,resources/DY.BMP,Door4,0.306481481,-0.092592593,1,0,0,1.8941,optionRight,60,14920,7,0,0,0,0,1,,,,,,,,,,,,,,,,,,,,,,,,,,,,,,,,,,,,,,,
,,,,,,,,2023-08-16_08h27.57.233,HF_wild_card,2022.2.4,Win32,59.54507562,59a7cfeb7ff2320001ec59d9,64d2fd46c836a06233681665,64dc7a5e405934a36ae2ece3,,,,,,,ctch,resources/DBN.BMP,resources/DG.BMP,Door3,-0.249074074,0.015740741,1,0,0,0.961,optionLeft,70,14990,7,1,0,1,0,1,,,,,,,,,,,,,,,,,,,,,,,,,,,,,,,,,,,,,,,
,,,,,,,,2023-08-16_08h27.57.233,HF_wild_card,2022.2.4,Win32,59.54507562,59a7cfeb7ff2320001ec59d9,64d2fd46c836a06233681665,64dc7a5e405934a36ae2ece3,,,,,,,decisionTrl,resources/DY.BMP,resources/DBN.BMP,Door4,-0.259259259,0.016666667,1,0,0,1.0839,optionLeft,80,15070,7,2,0,2,0,1,,,,,,,,,,,,,,,,,,,,,,,,,,,,,,,,,,,,,,,
,,,,,,,,2023-08-16_08h27.57.233,HF_wild_card,2022.2.4,Win32,59.54507562,59a7cfeb7ff2320001ec59d9,64d2fd46c836a06233681665,64dc7a5e405934a36ae2ece3,,,,,,,ctch,resources/DBN.BMP,resources/DG.BMP,Door3,-0.306481481,0.022222222,1,0,0,0.7154,optionLeft,70,15140,7,3,0,3,0,1,,,,,,,,,,,,,,,,,,,,,,,,,,,,,,,,,,,,,,,
,,,,,,,,2023-08-16_08h27.57.233,HF_wild_card,2022.2.4,Win32,59.54507562,59a7cfeb7ff2320001ec59d9,64d2fd46c836a06233681665,64dc7a5e405934a36ae2ece3,,,,,,,decisionTrl,resources/DG.BMP,resources/DR.BMP,Door1,0.274074074,-0.059259259,1,0,0,1.166,optionRight,30,15170,7,4,0,4,0,1,,,,,,,,,,,,,,,,,,,,,,,,,,,,,,,,,,,,,,,
,,,,,,,,2023-08-16_08h27.57.233,HF_wild_card,2022.2.4,Win32,59.54507562,59a7cfeb7ff2320001ec59d9,64d2fd46c836a06233681665,64dc7a5e405934a36ae2ece3,,,,,,,ctch,resources/DY.BMP,resources/DR.BMP,Door4,-0.312037037,-0.010185185,1,0,0,1.0306,optionLeft,80,15250,7,5,0,5,0,1,,,,,,,,,,,,,,,,,,,,,,,,,,,,,,,,,,,,,,,
,,,,,,,,2023-08-16_08h27.57.233,HF_wild_card,2022.2.4,Win32,59.54507562,59a7cfeb7ff2320001ec59d9,64d2fd46c836a06233681665,64dc7a5e405934a36ae2ece3,,,,,,,decisionTrl,resources/DBN.BMP,resources/DY.BMP,Door4,0.386111111,-0.038888889,1,0,0,1.4828,optionRight,80,15330,7,6,0,6,0,1,,,,,,,,,,,,,,,,,,,,,,,,,,,,,,,,,,,,,,,
,,,,,,,,2023-08-16_08h27.57.233,HF_wild_card,2022.2.4,Win32,59.54507562,59a7cfeb7ff2320001ec59d9,64d2fd46c836a06233681665,64dc7a5e405934a36ae2ece3,,,,,,,ctch,resources/DY.BMP,resources/DR.BMP,Door4,-0.264814815,-0.012962963,1,0,0,1.0307,optionLeft,60,15390,7,7,0,7,0,1,,,,,,,,,,,,,,,,,,,,,,,,,,,,,,,,,,,,,,,
,,,,,,,,2023-08-16_08h27.57.233,HF_wild_card,2022.2.4,Win32,59.54507562,59a7cfeb7ff2320001ec59d9,64d2fd46c836a06233681665,64dc7a5e405934a36ae2ece3,,,,,,,ctch,resources/DR.BMP,resources/DY.BMP,Door4,0.35,-0.049074074,1,0,0,2.3655,optionRight,80,15470,7,8,0,8,0,1,,,,,,,,,,,,,,,,,,,,,,,,,,,,,,,,,,,,,,,
,,,,,,,,2023-08-16_08h27.57.233,HF_wild_card,2022.2.4,Win32,59.54507562,59a7cfeb7ff2320001ec59d9,64d2fd46c836a06233681665,64dc7a5e405934a36ae2ece3,,,,,,,decisionTrl,resources/DBN.BMP,resources/DY.BMP,Door4,0.32962963,-0.055555556,1,0,0,1.782,optionRight,80,15550,7,9,0,9,0,1,,,,,,,,,,,,,,,,,,,,,,,,,,,,,,,,,,,,,,,
,,,,,,,,2023-08-16_08h27.57.233,HF_wild_card,2022.2.4,Win32,59.54507562,59a7cfeb7ff2320001ec59d9,64d2fd46c836a06233681665,64dc7a5e405934a36ae2ece3,,,,,,,decisionTrl,resources/DG.BMP,resources/DR.BMP,Door2,-0.241666667,0.015740741,1,0,0,1.3492,optionLeft,40,15590,7,10,0,10,0,1,,,,,,,,,,,,,,,,,,,,,,,,,,,,,,,,,,,,,,,
,,,,,,,,2023-08-16_08h27.57.233,HF_wild_card,2022.2.4,Win32,59.54507562,59a7cfeb7ff2320001ec59d9,64d2fd46c836a06233681665,64dc7a5e405934a36ae2ece3,,,,,,,ctch,resources/DG.BMP,resources/DBN.BMP,Door3,0.290740741,-0.047222222,1,0,0,0.9485,optionRight,70,15660,7,11,0,11,0,1,,,,,,,,,,,,,,,,,,,,,,,,,,,,,,,,,,,,,,,
,,,,,,,,2023-08-16_08h27.57.233,HF_wild_card,2022.2.4,Win32,59.54507562,59a7cfeb7ff2320001ec59d9,64d2fd46c836a06233681665,64dc7a5e405934a36ae2ece3,,,,,,,decisionTrl,resources/DBN.BMP,resources/DY.BMP,Door4,0.286111111,-0.060185185,1,0,0,0.9986,optionRight,80,15740,7,12,0,12,0,1,,,,,,,,,,,,,,,,,,,,,,,,,,,,,,,,,,,,,,,
,,,,,,,,2023-08-16_08h27.57.233,HF_wild_card,2022.2.4,Win32,59.54507562,59a7cfeb7ff2320001ec59d9,64d2fd46c836a06233681665,64dc7a5e405934a36ae2ece3,,,,,,,decisionTrl,resources/DR.BMP,resources/DG.BMP,Door2,0.288888889,-0.050925926,1,0,0,1.3498,optionRight,20,15760,7,13,0,13,0,1,,,,,,,,,,,,,,,,,,,,,,,,,,,,,,,,,,,,,,,
,,,,,,,,2023-08-16_08h27.57.233,HF_wild_card,2022.2.4,Win32,59.54507562,59a7cfeb7ff2320001ec59d9,64d2fd46c836a06233681665,64dc7a5e405934a36ae2ece3,,,,,,,decisionTrl,resources/DG.BMP,resources/DR.BMP,Door2,-0.271296296,-0.035185185,1,0,0,1.5148,optionLeft,40,15800,7,14,0,14,0,1,,,,,,,,,,,,,,,,,,,,,,,,,,,,,,,,,,,,,,,
,,,,,,,,2023-08-16_08h27.57.233,HF_wild_card,2022.2.4,Win32,59.54507562,59a7cfeb7ff2320001ec59d9,64d2fd46c836a06233681665,64dc7a5e405934a36ae2ece3,,,,,,,decisionTrl,resources/DBN.BMP,resources/DY.BMP,Door4,0.283333333,-0.056481481,1,0,0,1.2156,optionRight,80,15880,7,15,0,15,0,1,,,,,,,,,,,,,,,,,,,,,,,,,,,,,,,,,,,,,,,
,,,,,,,,2023-08-16_08h27.57.233,HF_wild_card,2022.2.4,Win32,59.54507562,59a7cfeb7ff2320001ec59d9,64d2fd46c836a06233681665,64dc7a5e405934a36ae2ece3,,,,,,,ctch,resources/DG.BMP,resources/DBN.BMP,Door3,0.275925926,-0.026851852,1,0,0,0.9993,optionRight,70,15950,7,16,0,16,0,1,,,,,,,,,,,,,,,,,,,,,,,,,,,,,,,,,,,,,,,
,,,,,,,,2023-08-16_08h27.57.233,HF_wild_card,2022.2.4,Win32,59.54507562,59a7cfeb7ff2320001ec59d9,64d2fd46c836a06233681665,64dc7a5e405934a36ae2ece3,,,,,,,ctch,resources/DY.BMP,resources/DR.BMP,Door4,-0.301851852,-0.032407407,1,0,0,1.083,optionLeft,60,16010,7,17,0,17,0,1,,,,,,,,,,,,,,,,,,,,,,,,,,,,,,,,,,,,,,,
,,,,,,,,2023-08-16_08h27.57.233,HF_wild_card,2022.2.4,Win32,59.54507562,59a7cfeb7ff2320001ec59d9,64d2fd46c836a06233681665,64dc7a5e405934a36ae2ece3,,,,,,,decisionTrl,resources/DY.BMP,resources/DBN.BMP,Door3,0.275,-0.021296296,1,0,0,1.1992,optionRight,70,16080,7,18,0,18,0,1,,,,,,,,,,,,,,,,,,,,,,,,,,,,,,,,,,,,,,,
,,,,,,,,2023-08-16_08h27.57.233,HF_wild_card,2022.2.4,Win32,59.54507562,59a7cfeb7ff2320001ec59d9,64d2fd46c836a06233681665,64dc7a5e405934a36ae2ece3,,,,,,,decisionTrl,resources/DBN.BMP,resources/DY.BMP,Door4,0.266666667,-0.046296296,1,0,0,1.0183,optionRight,60,16140,7,19,0,19,0,1,,,,,,,,,,,,,,,,,,,,,,,,,,,,,,,,,,,,,,,
,,,,,,,,2023-08-16_08h27.57.233,HF_wild_card,2022.2.4,Win32,59.54507562,59a7cfeb7ff2320001ec59d9,64d2fd46c836a06233681665,64dc7a5e405934a36ae2ece3,,,,,,,decisionTrl,resources/DR.BMP,resources/DG.BMP,Door2,0.305555556,-0.063888889,1,0,0,1.0825,optionRight,40,16180,7,20,0,20,0,1,,,,,,,,,,,,,,,,,,,,,,,,,,,,,,,,,,,,,,,
,,,,,,,,2023-08-16_08h27.57.233,HF_wild_card,2022.2.4,Win32,59.54507562,59a7cfeb7ff2320001ec59d9,64d2fd46c836a06233681665,64dc7a5e405934a36ae2ece3,,,,,,,ctch,resources/DR.BMP,resources/DY.BMP,Door4,0.3,-0.071296296,1,0,0,0.816,optionRight,80,16260,7,21,0,21,0,1,,,,,,,,,,,,,,,,,,,,,,,,,,,,,,,,,,,,,,,
,,,,,,,,2023-08-16_08h27.57.233,HF_wild_card,2022.2.4,Win32,59.54507562,59a7cfeb7ff2320001ec59d9,64d2fd46c836a06233681665,64dc7a5e405934a36ae2ece3,,,,,,,decisionTrl,resources/DY.BMP,resources/DBN.BMP,Door4,-0.267592593,-0.037962963,1,0,0,2.1017,optionLeft,60,16320,7,22,0,22,0,1,,,,,,,,,,,,,,,,,,,,,,,,,,,,,,,,,,,,,,,
,,,,,,,,2023-08-16_08h27.57.233,HF_wild_card,2022.2.4,Win32,59.54507562,59a7cfeb7ff2320001ec59d9,64d2fd46c836a06233681665,64dc7a5e405934a36ae2ece3,,,,,,,decisionTrl,resources/DR.BMP,resources/DG.BMP,Door1,-0.351851852,-0.042592593,1,0,0,2.4494,optionLeft,30,16350,7,23,0,23,0,1,,,,,,,,,,,,,,,,,,,,,,,,,,,,,,,,,,,,,,,
,,,,,,,,2023-08-16_08h27.57.233,HF_wild_card,2022.2.4,Win32,59.54507562,59a7cfeb7ff2320001ec59d9,64d2fd46c836a06233681665,64dc7a5e405934a36ae2ece3,,,,,,,ctch,resources/DG.BMP,resources/DBN.BMP,Door3,0.24537037,-0.02962963,1,0,0,1.3015,optionRight,70,16420,7,24,0,24,0,1,,,,,,,,,,,,,,,,,,,,,,,,,,,,,,,,,,,,,,,
,,,,,,,,2023-08-16_08h27.57.233,HF_wild_card,2022.2.4,Win32,59.54507562,59a7cfeb7ff2320001ec59d9,64d2fd46c836a06233681665,64dc7a5e405934a36ae2ece3,,,,,,,decisionTrl,resources/DY.BMP,resources/DBN.BMP,Door4,-0.309259259,0.001851852,1,0,0,1.2809,optionLeft,60,16480,7,25,0,25,0,1,,,,,,,,,,,,,,,,,,,,,,,,,,,,,,,,,,,,,,,
,,,,,,,,2023-08-16_08h27.57.233,HF_wild_card,2022.2.4,Win32,59.54507562,59a7cfeb7ff2320001ec59d9,64d2fd46c836a06233681665,64dc7a5e405934a36ae2ece3,,,,,,,decisionTrl,resources/DG.BMP,resources/DR.BMP,Door2,-0.30462963,-0.036111111,1,0,0,1.8324,optionLeft,20,16500,7,26,0,26,0,1,,,,,,,,,,,,,,,,,,,,,,,,,,,,,,,,,,,,,,,
,,,,,,,,2023-08-16_08h27.57.233,HF_wild_card,2022.2.4,Win32,59.54507562,59a7cfeb7ff2320001ec59d9,64d2fd46c836a06233681665,64dc7a5e405934a36ae2ece3,,,,,,,decisionTrl,resources/DR.BMP,resources/DG.BMP,Door2,0.306481481,-0.068518519,1,0,0,1.064,optionRight,40,16540,7,27,0,27,0,1,,,,,,,,,,,,,,,,,,,,,,,,,,,,,,,,,,,,,,,
,,,,,,,,2023-08-16_08h27.57.233,HF_wild_card,2022.2.4,Win32,59.54507562,59a7cfeb7ff2320001ec59d9,64d2fd46c836a06233681665,64dc7a5e405934a36ae2ece3,,,,,,,decisionTrl,resources/DR.BMP,resources/DG.BMP,Door2,0.365740741,-0.078703704,1,0,0,0.8495,optionRight,20,16560,7,28,0,28,0,1,,,,,,,,,,,,,,,,,,,,,,,,,,,,,,,,,,,,,,,
,,,,,,,,2023-08-16_08h27.57.233,HF_wild_card,2022.2.4,Win32,59.54507562,59a7cfeb7ff2320001ec59d9,64d2fd46c836a06233681665,64dc7a5e405934a36ae2ece3,,,,,,,decisionTrl,resources/DY.BMP,resources/DBN.BMP,Door4,-0.325925926,-0.003703704,1,0,0,1.0657,optionLeft,60,16620,7,29,0,29,0,1,,,,,,,,,,,,,,,,,,,,,,,,,,,,,,,,,,,,,,,
,,,,,,,,2023-08-16_08h27.57.233,HF_wild_card,2022.2.4,Win32,59.54507562,59a7cfeb7ff2320001ec59d9,64d2fd46c836a06233681665,64dc7a5e405934a36ae2ece3,,,,,,,decisionTrl,resources/DY.BMP,resources/DBN.BMP,Door4,-0.255555556,-0.028703704,1,0,0,0.8161,optionLeft,60,16680,7,30,0,30,0,1,,,,,,,,,,,,,,,,,,,,,,,,,,,,,,,,,,,,,,,
,,,,,,,,2023-08-16_08h27.57.233,HF_wild_card,2022.2.4,Win32,59.54507562,59a7cfeb7ff2320001ec59d9,64d2fd46c836a06233681665,64dc7a5e405934a36ae2ece3,,,,,,,decisionTrl,resources/DG.BMP,resources/DR.BMP,Door2,-0.269444444,-0.00462963,1,0,0,1.4665,optionLeft,20,16700,7,31,0,31,0,1,,,,,,,,,,,,,,,,,,,,,,,,,,,,,,,,,,,,,,,
,,,,,,,,2023-08-16_08h27.57.233,HF_wild_card,2022.2.4,Win32,59.54507562,59a7cfeb7ff2320001ec59d9,64d2fd46c836a06233681665,64dc7a5e405934a36ae2ece3,,,,,,,decisionTrl,resources/DR.BMP,resources/DG.BMP,Door2,0.281481481,-0.068518519,1,0,0,0.7326,optionRight,40,16740,7,32,0,32,0,1,,,,,,,,,,,,,,,,,,,,,,,,,,,,,,,,,,,,,,,
,,,,,,,,2023-08-16_08h27.57.233,HF_wild_card,2022.2.4,Win32,59.54507562,59a7cfeb7ff2320001ec59d9,64d2fd46c836a06233681665,64dc7a5e405934a36ae2ece3,,,,,,,decisionTrl,resources/DG.BMP,resources/DR.BMP,Door2,-0.335185185,-0.006481481,1,0,0,0.649,optionLeft,40,16780,7,33,0,33,0,1,,,,,,,,,,,,,,,,,,,,,,,,,,,,,,,,,,,,,,,
,,,,,,,,2023-08-16_08h27.57.233,HF_wild_card,2022.2.4,Win32,59.54507562,59a7cfeb7ff2320001ec59d9,64d2fd46c836a06233681665,64dc7a5e405934a36ae2ece3,,,,,,,ctch,resources/DR.BMP,resources/DY.BMP,Door4,0.397222222,-0.032407407,1,0,0,1.0659,optionRight,80,16860,7,34,0,34,0,1,,,,,,,,,,,,,,,,,,,,,,,,,,,,,,,,,,,,,,,
,,,,,,,,2023-08-16_08h27.57.233,HF_wild_card,2022.2.4,Win32,59.54507562,59a7cfeb7ff2320001ec59d9,64d2fd46c836a06233681665,64dc7a5e405934a36ae2ece3,,,,,,,ctch,resources/DBN.BMP,resources/DG.BMP,Door3,-0.288888889,-0.018518519,1,0,0,0.8325,optionLeft,70,16930,7,35,0,35,0,1,,,,,,,,,,,,,,,,,,,,,,,,,,,,,,,,,,,,,,,
,,,,,,,,2023-08-16_08h27.57.233,HF_wild_card,2022.2.4,Win32,59.54507562,59a7cfeb7ff2320001ec59d9,64d2fd46c836a06233681665,64dc7a5e405934a36ae2ece3,,,,,,,,,,,,,,,,,,,,,,,,,,6,0,6,0,1,,,,,,,,,,,,,,,,,,,,,,,,,,,,,,,,,,
,,,,,,,,2023-08-16_08h27.57.233,HF_wild_card,2022.2.4,Win32,59.54507562,59a7cfeb7ff2320001ec59d9,64d2fd46c836a06233681665,64dc7a5e405934a36ae2ece3,,,,,,,,,,,,,,,,,,,,,,,,,,,,,,,4,,,,,,,,,,,,,,,,,,,,,,,,,,,,,,,,,
,,,,,,,,2023-08-16_08h27.57.233,HF_wild_card,2022.2.4,Win32,59.54507562,59a7cfeb7ff2320001ec59d9,64d2fd46c836a06233681665,64dc7a5e405934a36ae2ece3,,,,,,,,,,,,,,,,,,,,,,,,,,,,,,,,,,,,,,,,,,,,,,,,,,,,,,,,,,,,,,,,
,,,,,,,,2023-08-16_08h27.57.233,HF_wild_card,2022.2.4,Win32,59.54507562,59a7cfeb7ff2320001ec59d9,64d2fd46c836a06233681665,64dc7a5e405934a36ae2ece3,,,,,,,,,,,,,,,,,,,,,,,,,,,,,,,,70,Door3,resources/DBN.BMP,0,0,0,0,1,,,,,,,,,,,,,,,,,,,,,,,,,
,,,,,,,,2023-08-16_08h27.57.233,HF_wild_card,2022.2.4,Win32,59.54507562,59a7cfeb7ff2320001ec59d9,64d2fd46c836a06233681665,64dc7a5e405934a36ae2ece3,,,,,,,,,,,,,,,,,,,,,,,,,,,,,,,,80,Door4,resources/DY.BMP,1,0,1,0,1,,,,,,,,,,,,,,,,,,,,,,,,,
,,,,,,,,2023-08-16_08h27.57.233,HF_wild_card,2022.2.4,Win32,59.54507562,59a7cfeb7ff2320001ec59d9,64d2fd46c836a06233681665,64dc7a5e405934a36ae2ece3,,,,,,,,,,,,,,,,,,,,,,,,,,,,,,,,40,Door2,resources/DG.BMP,2,0,2,0,1,,,,,,,,,,,,,,,,,,,,,,,,,
,,,,,,,,2023-08-16_08h27.57.233,HF_wild_card,2022.2.4,Win32,59.54507562,59a7cfeb7ff2320001ec59d9,64d2fd46c836a06233681665,64dc7a5e405934a36ae2ece3,,,,,,,,,,,,,,,,,,,,,,,,,,,,,,,,55,WC_nonExtreme,resources/DB.BMP,3,0,3,0,1,,,,,,,,,,,,,,,,,,,,,,,,,
,,,,,,,,2023-08-16_08h27.57.233,HF_wild_card,2022.2.4,Win32,59.54507562,59a7cfeb7ff2320001ec59d9,64d2fd46c836a06233681665,64dc7a5e405934a36ae2ece3,,,,,,,,,,,,,,,,,,,,,,,,,,,,,,,,95,WC_extreme,resources/DP.BMP,4,0,4,0,1,,,,,,,,,,,,,,,,,,,,,,,,,
,,,,,,,,2023-08-16_08h27.57.233,HF_wild_card,2022.2.4,Win32,59.54507562,59a7cfeb7ff2320001ec59d9,64d2fd46c836a06233681665,64dc7a5e405934a36ae2ece3,,,,,,,,,,,,,,,,,,,,,,,,,,,,,,,,20,Door1,resources/DR.BMP,5,0,5,0,1,,,,,,,,,,,,,,,,,,,,,,,,,
,,,,,,,,2023-08-16_08h27.57.233,HF_wild_card,2022.2.4,Win32,59.54507562,59a7cfeb7ff2320001ec59d9,64d2fd46c836a06233681665,64dc7a5e405934a36ae2ece3,,,,,,,,,,,,,,,,,,,,,,,,,,,,,,,,,,,,,,,,,,,,,,,,,,,,,,,,,,,,,,,,
