Condition,Low fixed image (Door1),Low risky image (Door2),High fixed image (Door3),High risky image (Door4),NonExtreme Wild Card 1,NonExtreme Wild Card 2,,date,expName,psychopyVersion,OS,frameRate,PROLIFIC_PID,STUDY_ID,SESSION_ID,mouse_2.x,mouse_2.y,mouse_2.leftButton,mouse_2.midButton,mouse_2.rightButton,mouse_2.clicked_name,Trial Type,Left Option Image,Right Option Image,Chosen Door,mouse.x,mouse.y,mouse.leftButton,mouse.midButton,mouse.rightButton,mouse.time,mouse.clicked_name,Feedback,Cumulative Reward,Block,trial.thisRepN,trial.thisTrialN,trial.thisN,trial.thisIndex,trial.ran,blocks.thisRepN,blocks.thisTrialN,blocks.thisN,blocks.thisIndex,blocks.ran,Money conversion,First Outcome Reported,Shown Door (First Outcome),Displayed Image (First Outcome),outcomes.thisRepN,outcomes.thisTrialN,outcomes.thisN,outcomes.thisIndex,outcomes.ran,judgments.thisRepN,judgments.thisTrialN,judgments.thisN,judgments.thisIndex,judgments.ran,freqMouse.x,freqMouse.y,freqMouse.leftButton,freqMouse.midButton,freqMouse.rightButton,freqMouse.clicked_name,FQJ for first outcome,FQJ for second outcome,Shown Door,Displayed Image,trials.thisRepN,trials.thisTrialN,trials.thisN,trials.thisIndex,trials.ran,judgBlock.thisRepN,judgBlock.thisTrialN,judgBlock.thisN,judgBlock.thisIndex,judgBlock.ran
2,resources/DY.BMP,resources/DG.BMP,resources/DR.BMP,resources/DP.BMP,resources/DBN.BMP,resources/DB.BMP,,2023-08-16_08h31.34.267,HF_wild_card,2022.2.4,MacIntel,62.5,63ea52773c5861d1f32c4bdb,64d2fd46c836a06233681665,64dc7b45760b5ca29153d2e6,,,,,,,,,,,,,,,,,,,,,,,,,,,,,,,,,,,,,,,,,,,,,,,,,,,,,,,,,,,,,,,,
,,,,,,,,2023-08-16_08h31.34.267,HF_wild_card,2022.2.4,MacIntel,62.5,63ea52773c5861d1f32c4bdb,64d2fd46c836a06233681665,64dc7b45760b5ca29153d2e6,0.012222222,-0.418888889,1,0,0,agree,,,,,,,,,,,,,,,,,,,,,,,,,,,,,,,,,,,,,,,,,,,,,,,,,,,,,,,,,,
,,,,,,,,2023-08-16_08h31.34.267,HF_wild_card,2022.2.4,MacIntel,62.5,63ea52773c5861d1f32c4bdb,64d2fd46c836a06233681665,64dc7b45760b5ca29153d2e6,,,,,,,,,,,,,,,,,,,,,,,,,,,,,,,,,,,,,,,,,,,,,,,,,,,,,,,,,,,,,,,,
,,,,,,,,2023-08-16_08h31.34.267,HF_wild_card,2022.2.4,MacIntel,62.5,63ea52773c5861d1f32c4bdb,64d2fd46c836a06233681665,64dc7b45760b5ca29153d2e6,,,,,,,sngl,resources/Empty.png,resources/DB.BMP,WildCard_NonEx,0.408888889,-0.041111111,1,0,0,2.235,optionRight,45,45,1,0,0,0,0,1,,,,,,,,,,,,,,,,,,,,,,,,,,,,,,,,,,,,,,,
,,,,,,,,2023-08-16_08h31.34.267,HF_wild_card,2022.2.4,MacIntel,62.5,63ea52773c5861d1f32c4bdb,64d2fd46c836a06233681665,64dc7b45760b5ca29153d2e6,,,,,,,decisionTrl,resources/DP.BMP,resources/DR.BMP,Door3,0.447777778,-0.076666667,1,0,0,3.524,optionRight,70,115,1,1,0,1,0,1,,,,,,,,,,,,,,,,,,,,,,,,,,,,,,,,,,,,,,,
,,,,,,,,2023-08-16_08h31.34.267,HF_wild_card,2022.2.4,MacIntel,62.5,63ea52773c5861d1f32c4bdb,64d2fd46c836a06233681665,64dc7b45760b5ca29153d2e6,,,,,,,decisionTrl,resources/DP.BMP,resources/DR.BMP,Door3,0.415555556,-0.088888889,1,0,0,1.443,optionRight,70,185,1,2,0,2,0,1,,,,,,,,,,,,,,,,,,,,,,,,,,,,,,,,,,,,,,,
,,,,,,,,2023-08-16_08h31.34.267,HF_wild_card,2022.2.4,MacIntel,62.5,63ea52773c5861d1f32c4bdb,64d2fd46c836a06233681665,64dc7b45760b5ca29153d2e6,,,,,,,sngl,resources/DG.BMP,resources/Empty.png,Door2,-0.384444444,0.021111111,1,0,0,1.843,optionLeft,40,225,1,3,0,3,0,1,,,,,,,,,,,,,,,,,,,,,,,,,,,,,,,,,,,,,,,
,,,,,,,,2023-08-16_08h31.34.267,HF_wild_card,2022.2.4,MacIntel,62.5,63ea52773c5861d1f32c4bdb,64d2fd46c836a06233681665,64dc7b45760b5ca29153d2e6,,,,,,,ctch,resources/DY.BMP,resources/DP.BMP,Door1,-0.378888889,-0.015555556,1,0,0,1.345,optionLeft,30,255,1,4,0,4,0,1,,,,,,,,,,,,,,,,,,,,,,,,,,,,,,,,,,,,,,,
,,,,,,,,2023-08-16_08h31.34.267,HF_wild_card,2022.2.4,MacIntel,62.5,63ea52773c5861d1f32c4bdb,64d2fd46c836a06233681665,64dc7b45760b5ca29153d2e6,,,,,,,decisionTrl,resources/DR.BMP,resources/DP.BMP,Door4,0.407777778,-0.043333333,1,0,0,1.02,optionRight,80,335,1,5,0,5,0,1,,,,,,,,,,,,,,,,,,,,,,,,,,,,,,,,,,,,,,,
,,,,,,,,2023-08-16_08h31.34.267,HF_wild_card,2022.2.4,MacIntel,62.5,63ea52773c5861d1f32c4bdb,64d2fd46c836a06233681665,64dc7b45760b5ca29153d2e6,,,,,,,decisionTrl,resources/DY.BMP,resources/DG.BMP,Door2,0.462222222,-0.055555556,1,0,0,0.794,optionRight,40,375,1,6,0,6,0,1,,,,,,,,,,,,,,,,,,,,,,,,,,,,,,,,,,,,,,,
,,,,,,,,2023-08-16_08h31.34.267,HF_wild_card,2022.2.4,MacIntel,62.5,63ea52773c5861d1f32c4bdb,64d2fd46c836a06233681665,64dc7b45760b5ca29153d2e6,,,,,,,decisionTrl,resources/DR.BMP,resources/DP.BMP,Door4,0.275555556,-0.003333333,1,0,0,0.728,optionRight,60,435,1,7,0,7,0,1,,,,,,,,,,,,,,,,,,,,,,,,,,,,,,,,,,,,,,,
,,,,,,,,2023-08-16_08h31.34.267,HF_wild_card,2022.2.4,MacIntel,62.5,63ea52773c5861d1f32c4bdb,64d2fd46c836a06233681665,64dc7b45760b5ca29153d2e6,,,,,,,decisionTrl,resources/DY.BMP,resources/DG.BMP,Door2,0.423333333,-0.003333333,1,0,0,1.311,optionRight,20,455,1,8,0,8,0,1,,,,,,,,,,,,,,,,,,,,,,,,,,,,,,,,,,,,,,,
,,,,,,,,2023-08-16_08h31.34.267,HF_wild_card,2022.2.4,MacIntel,62.5,63ea52773c5861d1f32c4bdb,64d2fd46c836a06233681665,64dc7b45760b5ca29153d2e6,,,,,,,decisionTrl,resources/DG.BMP,resources/DB.BMP,Door2,-0.298888889,-0.026666667,1,0,0,0.628,optionLeft,20,475,1,9,0,9,0,1,,,,,,,,,,,,,,,,,,,,,,,,,,,,,,,,,,,,,,,
,,,,,,,,2023-08-16_08h31.34.267,HF_wild_card,2022.2.4,MacIntel,62.5,63ea52773c5861d1f32c4bdb,64d2fd46c836a06233681665,64dc7b45760b5ca29153d2e6,,,,,,,ctch,resources/DG.BMP,resources/DR.BMP,Door2,-0.295555556,-0.02,1,0,0,0.579,optionLeft,40,515,1,10,0,10,0,1,,,,,,,,,,,,,,,,,,,,,,,,,,,,,,,,,,,,,,,
,,,,,,,,2023-08-16_08h31.34.267,HF_wild_card,2022.2.4,MacIntel,62.5,63ea52773c5861d1f32c4bdb,64d2fd46c836a06233681665,64dc7b45760b5ca29153d2e6,,,,,,,sngl,resources/DB.BMP,resources/Empty.png,WildCard_NonEx,-0.38,-0.005555556,1,0,0,2.461,optionLeft,45,560,1,11,0,11,0,1,,,,,,,,,,,,,,,,,,,,,,,,,,,,,,,,,,,,,,,
,,,,,,,,2023-08-16_08h31.34.267,HF_wild_card,2022.2.4,MacIntel,62.5,63ea52773c5861d1f32c4bdb,64d2fd46c836a06233681665,64dc7b45760b5ca29153d2e6,,,,,,,decisionTrl,resources/DB.BMP,resources/DY.BMP,Door1,0.528888889,0.023333333,1,0,0,0.695,optionRight,30,590,1,12,0,12,0,1,,,,,,,,,,,,,,,,,,,,,,,,,,,,,,,,,,,,,,,
,,,,,,,,2023-08-16_08h31.34.267,HF_wild_card,2022.2.4,MacIntel,62.5,63ea52773c5861d1f32c4bdb,64d2fd46c836a06233681665,64dc7b45760b5ca29153d2e6,,,,,,,sngl,resources/Empty.png,resources/DY.BMP,Door1,0.352222222,-0.036666667,1,0,0,0.694,optionRight,30,620,1,13,0,13,0,1,,,,,,,,,,,,,,,,,,,,,,,,,,,,,,,,,,,,,,,
,,,,,,,,2023-08-16_08h31.34.267,HF_wild_card,2022.2.4,MacIntel,62.5,63ea52773c5861d1f32c4bdb,64d2fd46c836a06233681665,64dc7b45760b5ca29153d2e6,,,,,,,sngl,resources/DY.BMP,resources/Empty.png,Door1,-0.252222222,-0.016666667,1,0,0,0.642,optionLeft,30,650,1,14,0,14,0,1,,,,,,,,,,,,,,,,,,,,,,,,,,,,,,,,,,,,,,,
,,,,,,,,2023-08-16_08h31.34.267,HF_wild_card,2022.2.4,MacIntel,62.5,63ea52773c5861d1f32c4bdb,64d2fd46c836a06233681665,64dc7b45760b5ca29153d2e6,,,,,,,ctch,resources/DP.BMP,resources/DY.BMP,Door4,-0.347777778,0.058888889,1,0,0,1.344,optionLeft,60,710,1,15,0,15,0,1,,,,,,,,,,,,,,,,,,,,,,,,,,,,,,,,,,,,,,,
,,,,,,,,2023-08-16_08h31.34.267,HF_wild_card,2022.2.4,MacIntel,62.5,63ea52773c5861d1f32c4bdb,64d2fd46c836a06233681665,64dc7b45760b5ca29153d2e6,,,,,,,sngl,resources/DR.BMP,resources/Empty.png,Door3,-0.41,-0.028888889,1,0,0,1.278,optionLeft,70,780,1,16,0,16,0,1,,,,,,,,,,,,,,,,,,,,,,,,,,,,,,,,,,,,,,,
,,,,,,,,2023-08-16_08h31.34.267,HF_wild_card,2022.2.4,MacIntel,62.5,63ea52773c5861d1f32c4bdb,64d2fd46c836a06233681665,64dc7b45760b5ca29153d2e6,,,,,,,ctch,resources/DR.BMP,resources/DG.BMP,Door2,0.441111111,-0.034444444,1,0,0,2.159,optionRight,20,800,1,17,0,17,0,1,,,,,,,,,,,,,,,,,,,,,,,,,,,,,,,,,,,,,,,
,,,,,,,,2023-08-16_08h31.34.267,HF_wild_card,2022.2.4,MacIntel,62.5,63ea52773c5861d1f32c4bdb,64d2fd46c836a06233681665,64dc7b45760b5ca29153d2e6,,,,,,,decisionTrl,resources/DR.BMP,resources/DP.BMP,Door3,-0.328888889,-0.016666667,1,0,0,2.261,optionLeft,70,870,1,18,0,18,0,1,,,,,,,,,,,,,,,,,,,,,,,,,,,,,,,,,,,,,,,
,,,,,,,,2023-08-16_08h31.34.267,HF_wild_card,2022.2.4,MacIntel,62.5,63ea52773c5861d1f32c4bdb,64d2fd46c836a06233681665,64dc7b45760b5ca29153d2e6,,,,,,,sngl,resources/DP.BMP,resources/Empty.png,Door4,-0.251111111,0.01,1,0,0,0.61,optionLeft,80,950,1,19,0,19,0,1,,,,,,,,,,,,,,,,,,,,,,,,,,,,,,,,,,,,,,,
,,,,,,,,2023-08-16_08h31.34.267,HF_wild_card,2022.2.4,MacIntel,62.5,63ea52773c5861d1f32c4bdb,64d2fd46c836a06233681665,64dc7b45760b5ca29153d2e6,,,,,,,sngl,resources/Empty.png,resources/DG.BMP,Door2,0.445555556,0.007777778,1,0,0,0.579,optionRight,20,970,1,20,0,20,0,1,,,,,,,,,,,,,,,,,,,,,,,,,,,,,,,,,,,,,,,
,,,,,,,,2023-08-16_08h31.34.267,HF_wild_card,2022.2.4,MacIntel,62.5,63ea52773c5861d1f32c4bdb,64d2fd46c836a06233681665,64dc7b45760b5ca29153d2e6,,,,,,,decisionTrl,resources/DR.BMP,resources/DB.BMP,Door3,-0.347777778,-0.01,1,0,0,0.71,optionLeft,70,1040,1,21,0,21,0,1,,,,,,,,,,,,,,,,,,,,,,,,,,,,,,,,,,,,,,,
,,,,,,,,2023-08-16_08h31.34.267,HF_wild_card,2022.2.4,MacIntel,62.5,63ea52773c5861d1f32c4bdb,64d2fd46c836a06233681665,64dc7b45760b5ca29153d2e6,,,,,,,decisionTrl,resources/DG.BMP,resources/DY.BMP,Door2,-0.428888889,-0.027777778,1,0,0,0.818,optionLeft,20,1060,1,22,0,22,0,1,,,,,,,,,,,,,,,,,,,,,,,,,,,,,,,,,,,,,,,
,,,,,,,,2023-08-16_08h31.34.267,HF_wild_card,2022.2.4,MacIntel,62.5,63ea52773c5861d1f32c4bdb,64d2fd46c836a06233681665,64dc7b45760b5ca29153d2e6,,,,,,,ctch,resources/DG.BMP,resources/DR.BMP,Door3,0.494444444,0.008888889,1,0,0,0.524,optionRight,70,1130,1,23,0,23,0,1,,,,,,,,,,,,,,,,,,,,,,,,,,,,,,,,,,,,,,,
,,,,,,,,2023-08-16_08h31.34.267,HF_wild_card,2022.2.4,MacIntel,62.5,63ea52773c5861d1f32c4bdb,64d2fd46c836a06233681665,64dc7b45760b5ca29153d2e6,,,,,,,decisionTrl,resources/DG.BMP,resources/DY.BMP,Door1,0.5,-0.015555556,1,0,0,0.625,optionRight,30,1160,1,24,0,24,0,1,,,,,,,,,,,,,,,,,,,,,,,,,,,,,,,,,,,,,,,
,,,,,,,,2023-08-16_08h31.34.267,HF_wild_card,2022.2.4,MacIntel,62.5,63ea52773c5861d1f32c4bdb,64d2fd46c836a06233681665,64dc7b45760b5ca29153d2e6,,,,,,,decisionTrl,resources/DG.BMP,resources/DY.BMP,Door1,0.367777778,0.041111111,1,0,0,0.609,optionRight,30,1190,1,25,0,25,0,1,,,,,,,,,,,,,,,,,,,,,,,,,,,,,,,,,,,,,,,
,,,,,,,,2023-08-16_08h31.34.267,HF_wild_card,2022.2.4,MacIntel,62.5,63ea52773c5861d1f32c4bdb,64d2fd46c836a06233681665,64dc7b45760b5ca29153d2e6,,,,,,,sngl,resources/Empty.png,resources/DP.BMP,Door4,0.391111111,-0.006666667,1,0,0,0.492,optionRight,60,1250,1,26,0,26,0,1,,,,,,,,,,,,,,,,,,,,,,,,,,,,,,,,,,,,,,,
,,,,,,,,2023-08-16_08h31.34.267,HF_wild_card,2022.2.4,MacIntel,62.5,63ea52773c5861d1f32c4bdb,64d2fd46c836a06233681665,64dc7b45760b5ca29153d2e6,,,,,,,decisionTrl,resources/DY.BMP,resources/DB.BMP,Door1,-0.338888889,-0.005555556,1,0,0,0.558,optionLeft,30,1280,1,27,0,27,0,1,,,,,,,,,,,,,,,,,,,,,,,,,,,,,,,,,,,,,,,
,,,,,,,,2023-08-16_08h31.34.267,HF_wild_card,2022.2.4,MacIntel,62.5,63ea52773c5861d1f32c4bdb,64d2fd46c836a06233681665,64dc7b45760b5ca29153d2e6,,,,,,,decisionTrl,resources/DR.BMP,resources/DP.BMP,Door4,0.422222222,-0.007777778,1,0,0,0.541,optionRight,80,1360,1,28,0,28,0,1,,,,,,,,,,,,,,,,,,,,,,,,,,,,,,,,,,,,,,,
,,,,,,,,2023-08-16_08h31.34.267,HF_wild_card,2022.2.4,MacIntel,62.5,63ea52773c5861d1f32c4bdb,64d2fd46c836a06233681665,64dc7b45760b5ca29153d2e6,,,,,,,decisionTrl,resources/DP.BMP,resources/DB.BMP,WildCard_NonEx,0.398888889,-0.101111111,1,0,0,0.822,optionRight,55,1415,1,29,0,29,0,1,,,,,,,,,,,,,,,,,,,,,,,,,,,,,,,,,,,,,,,
,,,,,,,,2023-08-16_08h31.34.267,HF_wild_card,2022.2.4,MacIntel,62.5,63ea52773c5861d1f32c4bdb,64d2fd46c836a06233681665,64dc7b45760b5ca29153d2e6,,,,,,,sngl,resources/DB.BMP,resources/Empty.png,WildCard_NonEx,-0.287777778,0.023333333,1,0,0,0.603,optionLeft,55,1470,1,30,0,30,0,1,,,,,,,,,,,,,,,,,,,,,,,,,,,,,,,,,,,,,,,
,,,,,,,,2023-08-16_08h31.34.267,HF_wild_card,2022.2.4,MacIntel,62.5,63ea52773c5861d1f32c4bdb,64d2fd46c836a06233681665,64dc7b45760b5ca29153d2e6,,,,,,,decisionTrl,resources/DB.BMP,resources/DG.BMP,Door2,0.382222222,-0.057777778,1,0,0,0.609,optionRight,20,1490,1,31,0,31,0,1,,,,,,,,,,,,,,,,,,,,,,,,,,,,,,,,,,,,,,,
,,,,,,,,2023-08-16_08h31.34.267,HF_wild_card,2022.2.4,MacIntel,62.5,63ea52773c5861d1f32c4bdb,64d2fd46c836a06233681665,64dc7b45760b5ca29153d2e6,,,,,,,sngl,resources/Empty.png,resources/DR.BMP,Door3,0.376666667,-0.057777778,1,0,0,0.479,optionRight,70,1560,1,32,0,32,0,1,,,,,,,,,,,,,,,,,,,,,,,,,,,,,,,,,,,,,,,
,,,,,,,,2023-08-16_08h31.34.267,HF_wild_card,2022.2.4,MacIntel,62.5,63ea52773c5861d1f32c4bdb,64d2fd46c836a06233681665,64dc7b45760b5ca29153d2e6,,,,,,,decisionTrl,resources/DB.BMP,resources/DP.BMP,WildCard_NonEx,-0.311111111,0.002222222,1,0,0,0.592,optionLeft,55,1615,1,33,0,33,0,1,,,,,,,,,,,,,,,,,,,,,,,,,,,,,,,,,,,,,,,
,,,,,,,,2023-08-16_08h31.34.267,HF_wild_card,2022.2.4,MacIntel,62.5,63ea52773c5861d1f32c4bdb,64d2fd46c836a06233681665,64dc7b45760b5ca29153d2e6,,,,,,,decisionTrl,resources/DB.BMP,resources/DR.BMP,Door3,0.353333333,-0.006666667,1,0,0,0.425,optionRight,70,1685,1,34,0,34,0,1,,,,,,,,,,,,,,,,,,,,,,,,,,,,,,,,,,,,,,,
,,,,,,,,2023-08-16_08h31.34.267,HF_wild_card,2022.2.4,MacIntel,62.5,63ea52773c5861d1f32c4bdb,64d2fd46c836a06233681665,64dc7b45760b5ca29153d2e6,,,,,,,ctch,resources/DR.BMP,resources/DG.BMP,Door2,0.394444444,0,1,0,0,0.588,optionRight,20,1705,1,35,0,35,0,1,,,,,,,,,,,,,,,,,,,,,,,,,,,,,,,,,,,,,,,
,,,,,,,,2023-08-16_08h31.34.267,HF_wild_card,2022.2.4,MacIntel,62.5,63ea52773c5861d1f32c4bdb,64d2fd46c836a06233681665,64dc7b45760b5ca29153d2e6,,,,,,,ctch,resources/DY.BMP,resources/DP.BMP,Door1,-0.406666667,0.018888889,1,0,0,0.572,optionLeft,30,1735,1,36,0,36,0,1,,,,,,,,,,,,,,,,,,,,,,,,,,,,,,,,,,,,,,,
,,,,,,,,2023-08-16_08h31.34.267,HF_wild_card,2022.2.4,MacIntel,62.5,63ea52773c5861d1f32c4bdb,64d2fd46c836a06233681665,64dc7b45760b5ca29153d2e6,,,,,,,sngl,resources/Empty.png,resources/DB.BMP,WildCard_NonEx,0.403333333,0.004444444,1,0,0,0.489,optionRight,55,1790,1,37,0,37,0,1,,,,,,,,,,,,,,,,,,,,,,,,,,,,,,,,,,,,,,,
,,,,,,,,2023-08-16_08h31.34.267,HF_wild_card,2022.2.4,MacIntel,62.5,63ea52773c5861d1f32c4bdb,64d2fd46c836a06233681665,64dc7b45760b5ca29153d2e6,,,,,,,decisionTrl,resources/DY.BMP,resources/DG.BMP,Door1,-0.326666667,-0.014444444,1,0,0,0.604,optionLeft,30,1820,1,38,0,38,0,1,,,,,,,,,,,,,,,,,,,,,,,,,,,,,,,,,,,,,,,
,,,,,,,,2023-08-16_08h31.34.267,HF_wild_card,2022.2.4,MacIntel,62.5,63ea52773c5861d1f32c4bdb,64d2fd46c836a06233681665,64dc7b45760b5ca29153d2e6,,,,,,,ctch,resources/DP.BMP,resources/DY.BMP,Door1,0.456666667,-0.012222222,1,0,0,0.486,optionRight,30,1850,1,39,0,39,0,1,,,,,,,,,,,,,,,,,,,,,,,,,,,,,,,,,,,,,,,
,,,,,,,,2023-08-16_08h31.34.267,HF_wild_card,2022.2.4,MacIntel,62.5,63ea52773c5861d1f32c4bdb,64d2fd46c836a06233681665,64dc7b45760b5ca29153d2e6,,,,,,,decisionTrl,resources/DG.BMP,resources/DY.BMP,Door2,-0.342222222,0.032222222,1,0,0,0.49,optionLeft,20,1870,1,40,0,40,0,1,,,,,,,,,,,,,,,,,,,,,,,,,,,,,,,,,,,,,,,
,,,,,,,,2023-08-16_08h31.34.267,HF_wild_card,2022.2.4,MacIntel,62.5,63ea52773c5861d1f32c4bdb,64d2fd46c836a06233681665,64dc7b45760b5ca29153d2e6,,,,,,,decisionTrl,resources/DP.BMP,resources/DR.BMP,Door3,0.426666667,0.004444444,1,0,0,0.455,optionRight,70,1940,1,41,0,41,0,1,,,,,,,,,,,,,,,,,,,,,,,,,,,,,,,,,,,,,,,
,,,,,,,,2023-08-16_08h31.34.267,HF_wild_card,2022.2.4,MacIntel,62.5,63ea52773c5861d1f32c4bdb,64d2fd46c836a06233681665,64dc7b45760b5ca29153d2e6,,,,,,,decisionTrl,resources/DP.BMP,resources/DR.BMP,Door3,0.356666667,0,1,0,0,0.558,optionRight,70,2010,1,42,0,42,0,1,,,,,,,,,,,,,,,,,,,,,,,,,,,,,,,,,,,,,,,
,,,,,,,,2023-08-16_08h31.34.267,HF_wild_card,2022.2.4,MacIntel,62.5,63ea52773c5861d1f32c4bdb,64d2fd46c836a06233681665,64dc7b45760b5ca29153d2e6,,,,,,,decisionTrl,resources/DY.BMP,resources/DG.BMP,Door1,-0.248888889,0.043333333,1,0,0,0.557,optionLeft,30,2040,1,43,0,43,0,1,,,,,,,,,,,,,,,,,,,,,,,,,,,,,,,,,,,,,,,
,,,,,,,,2023-08-16_08h31.34.267,HF_wild_card,2022.2.4,MacIntel,62.5,63ea52773c5861d1f32c4bdb,64d2fd46c836a06233681665,64dc7b45760b5ca29153d2e6,,,,,,,,,,,,,,,,,,,,,,,,,,0,0,0,0,1,,,,,,,,,,,,,,,,,,,,,,,,,,,,,,,,,,
,,,,,,,,2023-08-16_08h31.34.267,HF_wild_card,2022.2.4,MacIntel,62.5,63ea52773c5861d1f32c4bdb,64d2fd46c836a06233681665,64dc7b45760b5ca29153d2e6,,,,,,,sngl,resources/DB.BMP,resources/Empty.png,WildCard_NonEx,-0.38,-0.074444444,1,0,0,0.795,optionLeft,55,2095,2,0,0,0,0,1,,,,,,,,,,,,,,,,,,,,,,,,,,,,,,,,,,,,,,,
,,,,,,,,2023-08-16_08h31.34.267,HF_wild_card,2022.2.4,MacIntel,62.5,63ea52773c5861d1f32c4bdb,64d2fd46c836a06233681665,64dc7b45760b5ca29153d2e6,,,,,,,ctch,resources/DR.BMP,resources/DG.BMP,Door2,0.362222222,-0.028888889,1,0,0,1.106,optionRight,20,2115,2,1,0,1,0,1,,,,,,,,,,,,,,,,,,,,,,,,,,,,,,,,,,,,,,,
,,,,,,,,2023-08-16_08h31.34.267,HF_wild_card,2022.2.4,MacIntel,62.5,63ea52773c5861d1f32c4bdb,64d2fd46c836a06233681665,64dc7b45760b5ca29153d2e6,,,,,,,decisionTrl,resources/DY.BMP,resources/DG.BMP,Door2,0.406666667,-0.068888889,1,0,0,0.467,optionRight,40,2155,2,2,0,2,0,1,,,,,,,,,,,,,,,,,,,,,,,,,,,,,,,,,,,,,,,
,,,,,,,,2023-08-16_08h31.34.267,HF_wild_card,2022.2.4,MacIntel,62.5,63ea52773c5861d1f32c4bdb,64d2fd46c836a06233681665,64dc7b45760b5ca29153d2e6,,,,,,,decisionTrl,resources/DP.BMP,resources/DB.BMP,WildCard_NonEx,0.376666667,-0.073333333,1,0,0,0.929,optionRight,55,2210,2,3,0,3,0,1,,,,,,,,,,,,,,,,,,,,,,,,,,,,,,,,,,,,,,,
,,,,,,,,2023-08-16_08h31.34.267,HF_wild_card,2022.2.4,MacIntel,62.5,63ea52773c5861d1f32c4bdb,64d2fd46c836a06233681665,64dc7b45760b5ca29153d2e6,,,,,,,sngl,resources/Empty.png,resources/DB.BMP,WildCard_NonEx,0.372222222,-0.03,1,0,0,0.566,optionRight,55,2265,2,4,0,4,0,1,,,,,,,,,,,,,,,,,,,,,,,,,,,,,,,,,,,,,,,
,,,,,,,,2023-08-16_08h31.34.267,HF_wild_card,2022.2.4,MacIntel,62.5,63ea52773c5861d1f32c4bdb,64d2fd46c836a06233681665,64dc7b45760b5ca29153d2e6,,,,,,,decisionTrl,resources/DY.BMP,resources/DG.BMP,Door1,-0.28,-0.014444444,1,0,0,0.708,optionLeft,30,2295,2,5,0,5,0,1,,,,,,,,,,,,,,,,,,,,,,,,,,,,,,,,,,,,,,,
,,,,,,,,2023-08-16_08h31.34.267,HF_wild_card,2022.2.4,MacIntel,62.5,63ea52773c5861d1f32c4bdb,64d2fd46c836a06233681665,64dc7b45760b5ca29153d2e6,,,,,,,ctch,resources/DY.BMP,resources/DP.BMP,Door4,0.352222222,-0.002222222,1,0,0,0.782,optionRight,60,2355,2,6,0,6,0,1,,,,,,,,,,,,,,,,,,,,,,,,,,,,,,,,,,,,,,,
,,,,,,,,2023-08-16_08h31.34.267,HF_wild_card,2022.2.4,MacIntel,62.5,63ea52773c5861d1f32c4bdb,64d2fd46c836a06233681665,64dc7b45760b5ca29153d2e6,,,,,,,decisionTrl,resources/DP.BMP,resources/DR.BMP,Door4,-0.375555556,-0.035555556,1,0,0,0.737,optionLeft,60,2415,2,7,0,7,0,1,,,,,,,,,,,,,,,,,,,,,,,,,,,,,,,,,,,,,,,
,,,,,,,,2023-08-16_08h31.34.267,HF_wild_card,2022.2.4,MacIntel,62.5,63ea52773c5861d1f32c4bdb,64d2fd46c836a06233681665,64dc7b45760b5ca29153d2e6,,,,,,,decisionTrl,resources/DG.BMP,resources/DY.BMP,Door2,-0.468888889,0.012222222,1,0,0,0.701,optionLeft,20,2435,2,8,0,8,0,1,,,,,,,,,,,,,,,,,,,,,,,,,,,,,,,,,,,,,,,
,,,,,,,,2023-08-16_08h31.34.267,HF_wild_card,2022.2.4,MacIntel,62.5,63ea52773c5861d1f32c4bdb,64d2fd46c836a06233681665,64dc7b45760b5ca29153d2e6,,,,,,,decisionTrl,resources/DG.BMP,resources/DY.BMP,Door2,-0.305555556,-0.017777778,1,0,0,0.816,optionLeft,40,2475,2,9,0,9,0,1,,,,,,,,,,,,,,,,,,,,,,,,,,,,,,,,,,,,,,,
,,,,,,,,2023-08-16_08h31.34.267,HF_wild_card,2022.2.4,MacIntel,62.5,63ea52773c5861d1f32c4bdb,64d2fd46c836a06233681665,64dc7b45760b5ca29153d2e6,,,,,,,decisionTrl,resources/DR.BMP,resources/DB.BMP,WildCard_NonEx,0.218888889,0.024444444,1,0,0,0.527,optionRight,45,2520,2,10,0,10,0,1,,,,,,,,,,,,,,,,,,,,,,,,,,,,,,,,,,,,,,,
,,,,,,,,2023-08-16_08h31.34.267,HF_wild_card,2022.2.4,MacIntel,62.5,63ea52773c5861d1f32c4bdb,64d2fd46c836a06233681665,64dc7b45760b5ca29153d2e6,,,,,,,ctch,resources/DG.BMP,resources/DR.BMP,Door2,-0.318888889,0,1,0,0,0.531,optionLeft,20,2540,2,11,0,11,0,1,,,,,,,,,,,,,,,,,,,,,,,,,,,,,,,,,,,,,,,
,,,,,,,,2023-08-16_08h31.34.267,HF_wild_card,2022.2.4,MacIntel,62.5,63ea52773c5861d1f32c4bdb,64d2fd46c836a06233681665,64dc7b45760b5ca29153d2e6,,,,,,,decisionTrl,resources/DP.BMP,resources/DR.BMP,Door3,0.366666667,-0.024444444,1,0,0,0.442,optionRight,70,2610,2,12,0,12,0,1,,,,,,,,,,,,,,,,,,,,,,,,,,,,,,,,,,,,,,,
,,,,,,,,2023-08-16_08h31.34.267,HF_wild_card,2022.2.4,MacIntel,62.5,63ea52773c5861d1f32c4bdb,64d2fd46c836a06233681665,64dc7b45760b5ca29153d2e6,,,,,,,ctch,resources/DG.BMP,resources/DR.BMP,Door2,-0.32,0.003333333,1,0,0,0.557,optionLeft,40,2650,2,13,0,13,0,1,,,,,,,,,,,,,,,,,,,,,,,,,,,,,,,,,,,,,,,
,,,,,,,,2023-08-16_08h31.34.267,HF_wild_card,2022.2.4,MacIntel,62.5,63ea52773c5861d1f32c4bdb,64d2fd46c836a06233681665,64dc7b45760b5ca29153d2e6,,,,,,,decisionTrl,resources/DP.BMP,resources/DR.BMP,Door3,0.426666667,-0.027777778,1,0,0,0.441,optionRight,70,2720,2,14,0,14,0,1,,,,,,,,,,,,,,,,,,,,,,,,,,,,,,,,,,,,,,,
,,,,,,,,2023-08-16_08h31.34.267,HF_wild_card,2022.2.4,MacIntel,62.5,63ea52773c5861d1f32c4bdb,64d2fd46c836a06233681665,64dc7b45760b5ca29153d2e6,,,,,,,ctch,resources/DP.BMP,resources/DY.BMP,Door4,-0.316666667,-0.014444444,1,0,0,0.478,optionLeft,60,2780,2,15,0,15,0,1,,,,,,,,,,,,,,,,,,,,,,,,,,,,,,,,,,,,,,,
,,,,,,,,2023-08-16_08h31.34.267,HF_wild_card,2022.2.4,MacIntel,62.5,63ea52773c5861d1f32c4bdb,64d2fd46c836a06233681665,64dc7b45760b5ca29153d2e6,,,,,,,sngl,resources/Empty.png,resources/DB.BMP,WildCard_NonEx,0.382222222,0.024444444,1,0,0,0.531,optionRight,45,2825,2,16,0,16,0,1,,,,,,,,,,,,,,,,,,,,,,,,,,,,,,,,,,,,,,,
,,,,,,,,2023-08-16_08h31.34.267,HF_wild_card,2022.2.4,MacIntel,62.5,63ea52773c5861d1f32c4bdb,64d2fd46c836a06233681665,64dc7b45760b5ca29153d2e6,,,,,,,sngl,resources/Empty.png,resources/DY.BMP,Door1,0.244444444,-0.024444444,1,0,0,0.549,optionRight,30,2855,2,17,0,17,0,1,,,,,,,,,,,,,,,,,,,,,,,,,,,,,,,,,,,,,,,
,,,,,,,,2023-08-16_08h31.34.267,HF_wild_card,2022.2.4,MacIntel,62.5,63ea52773c5861d1f32c4bdb,64d2fd46c836a06233681665,64dc7b45760b5ca29153d2e6,,,,,,,decisionTrl,resources/DB.BMP,resources/DR.BMP,WildCard_NonEx,-0.381111111,0.063333333,1,0,0,0.553,optionLeft,55,2910,2,18,0,18,0,1,,,,,,,,,,,,,,,,,,,,,,,,,,,,,,,,,,,,,,,
,,,,,,,,2023-08-16_08h31.34.267,HF_wild_card,2022.2.4,MacIntel,62.5,63ea52773c5861d1f32c4bdb,64d2fd46c836a06233681665,64dc7b45760b5ca29153d2e6,,,,,,,sngl,resources/Empty.png,resources/DP.BMP,Door4,0.258888889,-0.005555556,1,0,0,0.456,optionRight,80,2990,2,19,0,19,0,1,,,,,,,,,,,,,,,,,,,,,,,,,,,,,,,,,,,,,,,
,,,,,,,,2023-08-16_08h31.34.267,HF_wild_card,2022.2.4,MacIntel,62.5,63ea52773c5861d1f32c4bdb,64d2fd46c836a06233681665,64dc7b45760b5ca29153d2e6,,,,,,,sngl,resources/Empty.png,resources/DG.BMP,Door2,0.408888889,0.002222222,1,0,0,0.489,optionRight,40,3030,2,20,0,20,0,1,,,,,,,,,,,,,,,,,,,,,,,,,,,,,,,,,,,,,,,
,,,,,,,,2023-08-16_08h31.34.267,HF_wild_card,2022.2.4,MacIntel,62.5,63ea52773c5861d1f32c4bdb,64d2fd46c836a06233681665,64dc7b45760b5ca29153d2e6,,,,,,,decisionTrl,resources/DR.BMP,resources/DP.BMP,Door4,0.387777778,-0.044444444,1,0,0,0.462,optionRight,60,3090,2,21,0,21,0,1,,,,,,,,,,,,,,,,,,,,,,,,,,,,,,,,,,,,,,,
,,,,,,,,2023-08-16_08h31.34.267,HF_wild_card,2022.2.4,MacIntel,62.5,63ea52773c5861d1f32c4bdb,64d2fd46c836a06233681665,64dc7b45760b5ca29153d2e6,,,,,,,decisionTrl,resources/DG.BMP,resources/DY.BMP,Door2,-0.358888889,-0.045555556,1,0,0,0.911,optionLeft,20,3110,2,22,0,22,0,1,,,,,,,,,,,,,,,,,,,,,,,,,,,,,,,,,,,,,,,
,,,,,,,,2023-08-16_08h31.34.267,HF_wild_card,2022.2.4,MacIntel,62.5,63ea52773c5861d1f32c4bdb,64d2fd46c836a06233681665,64dc7b45760b5ca29153d2e6,,,,,,,sngl,resources/DB.BMP,resources/Empty.png,WildCard_NonEx,0.266666667,-0.004444444,1,0,0,0.398,optionLeft,45,3155,2,23,0,23,0,1,,,,,,,,,,,,,,,,,,,,,,,,,,,,,,,,,,,,,,,
,,,,,,,,2023-08-16_08h31.34.267,HF_wild_card,2022.2.4,MacIntel,62.5,63ea52773c5861d1f32c4bdb,64d2fd46c836a06233681665,64dc7b45760b5ca29153d2e6,,,,,,,sngl,resources/DG.BMP,resources/Empty.png,Door2,-0.258888889,-0.047777778,1,0,0,0.511,optionLeft,20,3175,2,24,0,24,0,1,,,,,,,,,,,,,,,,,,,,,,,,,,,,,,,,,,,,,,,
,,,,,,,,2023-08-16_08h31.34.267,HF_wild_card,2022.2.4,MacIntel,62.5,63ea52773c5861d1f32c4bdb,64d2fd46c836a06233681665,64dc7b45760b5ca29153d2e6,,,,,,,decisionTrl,resources/DR.BMP,resources/DP.BMP,Door4,0.286666667,-0.024444444,1,0,0,0.482,optionRight,60,3235,2,25,0,25,0,1,,,,,,,,,,,,,,,,,,,,,,,,,,,,,,,,,,,,,,,
,,,,,,,,2023-08-16_08h31.34.267,HF_wild_card,2022.2.4,MacIntel,62.5,63ea52773c5861d1f32c4bdb,64d2fd46c836a06233681665,64dc7b45760b5ca29153d2e6,,,,,,,decisionTrl,resources/DG.BMP,resources/DY.BMP,Door1,0.322222222,-0.026666667,1,0,0,0.482,optionRight,30,3265,2,26,0,26,0,1,,,,,,,,,,,,,,,,,,,,,,,,,,,,,,,,,,,,,,,
,,,,,,,,2023-08-16_08h31.34.267,HF_wild_card,2022.2.4,MacIntel,62.5,63ea52773c5861d1f32c4bdb,64d2fd46c836a06233681665,64dc7b45760b5ca29153d2e6,,,,,,,sngl,resources/DR.BMP,resources/Empty.png,Door3,-0.357777778,0.013333333,1,0,0,0.491,optionLeft,70,3335,2,27,0,27,0,1,,,,,,,,,,,,,,,,,,,,,,,,,,,,,,,,,,,,,,,
,,,,,,,,2023-08-16_08h31.34.267,HF_wild_card,2022.2.4,MacIntel,62.5,63ea52773c5861d1f32c4bdb,64d2fd46c836a06233681665,64dc7b45760b5ca29153d2e6,,,,,,,decisionTrl,resources/DG.BMP,resources/DB.BMP,Door2,-0.353333333,0.007777778,1,0,0,0.536,optionLeft,20,3355,2,28,0,28,0,1,,,,,,,,,,,,,,,,,,,,,,,,,,,,,,,,,,,,,,,
,,,,,,,,2023-08-16_08h31.34.267,HF_wild_card,2022.2.4,MacIntel,62.5,63ea52773c5861d1f32c4bdb,64d2fd46c836a06233681665,64dc7b45760b5ca29153d2e6,,,,,,,sngl,resources/DY.BMP,resources/Empty.png,Door1,-0.283333333,-0.05,1,0,0,0.578,optionLeft,30,3385,2,29,0,29,0,1,,,,,,,,,,,,,,,,,,,,,,,,,,,,,,,,,,,,,,,
,,,,,,,,2023-08-16_08h31.34.267,HF_wild_card,2022.2.4,MacIntel,62.5,63ea52773c5861d1f32c4bdb,64d2fd46c836a06233681665,64dc7b45760b5ca29153d2e6,,,,,,,decisionTrl,resources/DB.BMP,resources/DY.BMP,WildCard_NonEx,-0.298888889,-0.056666667,1,0,0,0.884,optionLeft,55,3440,2,30,0,30,0,1,,,,,,,,,,,,,,,,,,,,,,,,,,,,,,,,,,,,,,,
,,,,,,,,2023-08-16_08h31.34.267,HF_wild_card,2022.2.4,MacIntel,62.5,63ea52773c5861d1f32c4bdb,64d2fd46c836a06233681665,64dc7b45760b5ca29153d2e6,,,,,,,ctch,resources/DY.BMP,resources/DP.BMP,Door4,0.397777778,-0.002222222,1,0,0,8.11,optionRight,80,3520,2,31,0,31,0,1,,,,,,,,,,,,,,,,,,,,,,,,,,,,,,,,,,,,,,,
,,,,,,,,2023-08-16_08h31.34.267,HF_wild_card,2022.2.4,MacIntel,62.5,63ea52773c5861d1f32c4bdb,64d2fd46c836a06233681665,64dc7b45760b5ca29153d2e6,,,,,,,sngl,resources/Empty.png,resources/DR.BMP,Door3,0.368888889,-0.006666667,1,0,0,0.504,optionRight,70,3590,2,32,0,32,0,1,,,,,,,,,,,,,,,,,,,,,,,,,,,,,,,,,,,,,,,
,,,,,,,,2023-08-16_08h31.34.267,HF_wild_card,2022.2.4,MacIntel,62.5,63ea52773c5861d1f32c4bdb,64d2fd46c836a06233681665,64dc7b45760b5ca29153d2e6,,,,,,,ctch,resources/DR.BMP,resources/DG.BMP,Door3,-0.386666667,-0.023333333,1,0,0,0.512,optionLeft,70,3660,2,33,0,33,0,1,,,,,,,,,,,,,,,,,,,,,,,,,,,,,,,,,,,,,,,
,,,,,,,,2023-08-16_08h31.34.267,HF_wild_card,2022.2.4,MacIntel,62.5,63ea52773c5861d1f32c4bdb,64d2fd46c836a06233681665,64dc7b45760b5ca29153d2e6,,,,,,,decisionTrl,resources/DY.BMP,resources/DB.BMP,WildCard_NonEx,0.398888889,-0.052222222,1,0,0,2.088,optionRight,55,3715,2,34,0,34,0,1,,,,,,,,,,,,,,,,,,,,,,,,,,,,,,,,,,,,,,,
,,,,,,,,2023-08-16_08h31.34.267,HF_wild_card,2022.2.4,MacIntel,62.5,63ea52773c5861d1f32c4bdb,64d2fd46c836a06233681665,64dc7b45760b5ca29153d2e6,,,,,,,decisionTrl,resources/DY.BMP,resources/DG.BMP,Door2,0.388888889,-0.067777778,1,0,0,0.539,optionRight,20,3735,2,35,0,35,0,1,,,,,,,,,,,,,,,,,,,,,,,,,,,,,,,,,,,,,,,
,,,,,,,,2023-08-16_08h31.34.267,HF_wild_card,2022.2.4,MacIntel,62.5,63ea52773c5861d1f32c4bdb,64d2fd46c836a06233681665,64dc7b45760b5ca29153d2e6,,,,,,,decisionTrl,resources/DB.BMP,resources/DP.BMP,Door4,0.351111111,0.014444444,1,0,0,0.639,optionRight,80,3815,2,36,0,36,0,1,,,,,,,,,,,,,,,,,,,,,,,,,,,,,,,,,,,,,,,
,,,,,,,,2023-08-16_08h31.34.267,HF_wild_card,2022.2.4,MacIntel,62.5,63ea52773c5861d1f32c4bdb,64d2fd46c836a06233681665,64dc7b45760b5ca29153d2e6,,,,,,,ctch,resources/DP.BMP,resources/DY.BMP,Door4,-0.48,0,1,0,0,0.68,optionLeft,80,3895,2,37,0,37,0,1,,,,,,,,,,,,,,,,,,,,,,,,,,,,,,,,,,,,,,,
,,,,,,,,2023-08-16_08h31.34.267,HF_wild_card,2022.2.4,MacIntel,62.5,63ea52773c5861d1f32c4bdb,64d2fd46c836a06233681665,64dc7b45760b5ca29153d2e6,,,,,,,decisionTrl,resources/DB.BMP,resources/DG.BMP,WildCard_NonEx,-0.338888889,-0.018888889,1,0,0,0.586,optionLeft,55,3950,2,38,0,38,0,1,,,,,,,,,,,,,,,,,,,,,,,,,,,,,,,,,,,,,,,
,,,,,,,,2023-08-16_08h31.34.267,HF_wild_card,2022.2.4,MacIntel,62.5,63ea52773c5861d1f32c4bdb,64d2fd46c836a06233681665,64dc7b45760b5ca29153d2e6,,,,,,,decisionTrl,resources/DY.BMP,resources/DG.BMP,Door2,0.376666667,-0.012222222,1,0,0,1.284,optionRight,20,3970,2,39,0,39,0,1,,,,,,,,,,,,,,,,,,,,,,,,,,,,,,,,,,,,,,,
,,,,,,,,2023-08-16_08h31.34.267,HF_wild_card,2022.2.4,MacIntel,62.5,63ea52773c5861d1f32c4bdb,64d2fd46c836a06233681665,64dc7b45760b5ca29153d2e6,,,,,,,decisionTrl,resources/DP.BMP,resources/DR.BMP,Door4,-0.387777778,-0.023333333,1,0,0,0.555,optionLeft,60,4030,2,40,0,40,0,1,,,,,,,,,,,,,,,,,,,,,,,,,,,,,,,,,,,,,,,
,,,,,,,,2023-08-16_08h31.34.267,HF_wild_card,2022.2.4,MacIntel,62.5,63ea52773c5861d1f32c4bdb,64d2fd46c836a06233681665,64dc7b45760b5ca29153d2e6,,,,,,,sngl,resources/DP.BMP,resources/Empty.png,Door4,-0.445555556,-0.056666667,1,0,0,0.578,optionLeft,60,4090,2,41,0,41,0,1,,,,,,,,,,,,,,,,,,,,,,,,,,,,,,,,,,,,,,,
,,,,,,,,2023-08-16_08h31.34.267,HF_wild_card,2022.2.4,MacIntel,62.5,63ea52773c5861d1f32c4bdb,64d2fd46c836a06233681665,64dc7b45760b5ca29153d2e6,,,,,,,decisionTrl,resources/DR.BMP,resources/DP.BMP,Door4,0.393333333,-0.023333333,1,0,0,0.711,optionRight,60,4150,2,42,0,42,0,1,,,,,,,,,,,,,,,,,,,,,,,,,,,,,,,,,,,,,,,
,,,,,,,,2023-08-16_08h31.34.267,HF_wild_card,2022.2.4,MacIntel,62.5,63ea52773c5861d1f32c4bdb,64d2fd46c836a06233681665,64dc7b45760b5ca29153d2e6,,,,,,,decisionTrl,resources/DR.BMP,resources/DP.BMP,Door4,0.376666667,-0.053333333,1,0,0,0.611,optionRight,60,4210,2,43,0,43,0,1,,,,,,,,,,,,,,,,,,,,,,,,,,,,,,,,,,,,,,,
,,,,,,,,2023-08-16_08h31.34.267,HF_wild_card,2022.2.4,MacIntel,62.5,63ea52773c5861d1f32c4bdb,64d2fd46c836a06233681665,64dc7b45760b5ca29153d2e6,,,,,,,,,,,,,,,,,,,,,,,,,,1,0,1,0,1,,,,,,,,,,,,,,,,,,,,,,,,,,,,,,,,,,
,,,,,,,,2023-08-16_08h31.34.267,HF_wild_card,2022.2.4,MacIntel,62.5,63ea52773c5861d1f32c4bdb,64d2fd46c836a06233681665,64dc7b45760b5ca29153d2e6,,,,,,,ctch,resources/DP.BMP,resources/DY.BMP,Door4,-0.335555556,-0.037777778,1,0,0,0.651,optionLeft,80,4290,3,0,0,0,0,1,,,,,,,,,,,,,,,,,,,,,,,,,,,,,,,,,,,,,,,
,,,,,,,,2023-08-16_08h31.34.267,HF_wild_card,2022.2.4,MacIntel,62.5,63ea52773c5861d1f32c4bdb,64d2fd46c836a06233681665,64dc7b45760b5ca29153d2e6,,,,,,,decisionTrl,resources/DB.BMP,resources/DP.BMP,Door4,0.375555556,0.01,1,0,0,0.558,optionRight,60,4350,3,1,0,1,0,1,,,,,,,,,,,,,,,,,,,,,,,,,,,,,,,,,,,,,,,
,,,,,,,,2023-08-16_08h31.34.267,HF_wild_card,2022.2.4,MacIntel,62.5,63ea52773c5861d1f32c4bdb,64d2fd46c836a06233681665,64dc7b45760b5ca29153d2e6,,,,,,,decisionTrl,resources/DR.BMP,resources/DP.BMP,Door4,0.382222222,-0.026666667,1,0,0,0.558,optionRight,80,4430,3,2,0,2,0,1,,,,,,,,,,,,,,,,,,,,,,,,,,,,,,,,,,,,,,,
,,,,,,,,2023-08-16_08h31.34.267,HF_wild_card,2022.2.4,MacIntel,62.5,63ea52773c5861d1f32c4bdb,64d2fd46c836a06233681665,64dc7b45760b5ca29153d2e6,,,,,,,sngl,resources/Empty.png,resources/DG.BMP,Door2,0.44,-0.035555556,1,0,0,0.643,optionRight,20,4450,3,3,0,3,0,1,,,,,,,,,,,,,,,,,,,,,,,,,,,,,,,,,,,,,,,
,,,,,,,,2023-08-16_08h31.34.267,HF_wild_card,2022.2.4,MacIntel,62.5,63ea52773c5861d1f32c4bdb,64d2fd46c836a06233681665,64dc7b45760b5ca29153d2e6,,,,,,,ctch,resources/DG.BMP,resources/DR.BMP,Door3,0.414444444,0.006666667,1,0,0,1.591,optionRight,70,4520,3,4,0,4,0,1,,,,,,,,,,,,,,,,,,,,,,,,,,,,,,,,,,,,,,,
,,,,,,,,2023-08-16_08h31.34.267,HF_wild_card,2022.2.4,MacIntel,62.5,63ea52773c5861d1f32c4bdb,64d2fd46c836a06233681665,64dc7b45760b5ca29153d2e6,,,,,,,decisionTrl,resources/DP.BMP,resources/DB.BMP,WildCard_NonEx,0.333333333,-0.078888889,1,0,0,1.003,optionRight,55,4575,3,5,0,5,0,1,,,,,,,,,,,,,,,,,,,,,,,,,,,,,,,,,,,,,,,
,,,,,,,,2023-08-16_08h31.34.267,HF_wild_card,2022.2.4,MacIntel,62.5,63ea52773c5861d1f32c4bdb,64d2fd46c836a06233681665,64dc7b45760b5ca29153d2e6,,,,,,,sngl,resources/DG.BMP,resources/Empty.png,Door2,-0.263333333,-0.038888889,1,0,0,0.626,optionLeft,40,4615,3,6,0,6,0,1,,,,,,,,,,,,,,,,,,,,,,,,,,,,,,,,,,,,,,,
,,,,,,,,2023-08-16_08h31.34.267,HF_wild_card,2022.2.4,MacIntel,62.5,63ea52773c5861d1f32c4bdb,64d2fd46c836a06233681665,64dc7b45760b5ca29153d2e6,,,,,,,decisionTrl,resources/DP.BMP,resources/DR.BMP,Door4,-0.441111111,-0.01,1,0,0,0.643,optionLeft,60,4675,3,7,0,7,0,1,,,,,,,,,,,,,,,,,,,,,,,,,,,,,,,,,,,,,,,
,,,,,,,,2023-08-16_08h31.34.267,HF_wild_card,2022.2.4,MacIntel,62.5,63ea52773c5861d1f32c4bdb,64d2fd46c836a06233681665,64dc7b45760b5ca29153d2e6,,,,,,,decisionTrl,resources/DR.BMP,resources/DB.BMP,WildCard_NonEx,0.307777778,-0.066666667,1,0,0,0.486,optionRight,45,4720,3,8,0,8,0,1,,,,,,,,,,,,,,,,,,,,,,,,,,,,,,,,,,,,,,,
,,,,,,,,2023-08-16_08h31.34.267,HF_wild_card,2022.2.4,MacIntel,62.5,63ea52773c5861d1f32c4bdb,64d2fd46c836a06233681665,64dc7b45760b5ca29153d2e6,,,,,,,decisionTrl,resources/DY.BMP,resources/DG.BMP,Door2,0.372222222,-0.057777778,1,0,0,0.907,optionRight,20,4740,3,9,0,9,0,1,,,,,,,,,,,,,,,,,,,,,,,,,,,,,,,,,,,,,,,
,,,,,,,,2023-08-16_08h31.34.267,HF_wild_card,2022.2.4,MacIntel,62.5,63ea52773c5861d1f32c4bdb,64d2fd46c836a06233681665,64dc7b45760b5ca29153d2e6,,,,,,,sngl,resources/Empty.png,resources/DP.BMP,Door4,0.377777778,-0.054444444,1,0,0,0.517,optionRight,60,4800,3,10,0,10,0,1,,,,,,,,,,,,,,,,,,,,,,,,,,,,,,,,,,,,,,,
,,,,,,,,2023-08-16_08h31.34.267,HF_wild_card,2022.2.4,MacIntel,62.5,63ea52773c5861d1f32c4bdb,64d2fd46c836a06233681665,64dc7b45760b5ca29153d2e6,,,,,,,sngl,resources/DR.BMP,resources/Empty.png,Door3,-0.368888889,0.052222222,1,0,0,0.524,optionLeft,70,4870,3,11,0,11,0,1,,,,,,,,,,,,,,,,,,,,,,,,,,,,,,,,,,,,,,,
,,,,,,,,2023-08-16_08h31.34.267,HF_wild_card,2022.2.4,MacIntel,62.5,63ea52773c5861d1f32c4bdb,64d2fd46c836a06233681665,64dc7b45760b5ca29153d2e6,,,,,,,decisionTrl,resources/DP.BMP,resources/DR.BMP,Door4,-0.363333333,-0.086666667,1,0,0,1.489,optionLeft,80,4950,3,12,0,12,0,1,,,,,,,,,,,,,,,,,,,,,,,,,,,,,,,,,,,,,,,
,,,,,,,,2023-08-16_08h31.34.267,HF_wild_card,2022.2.4,MacIntel,62.5,63ea52773c5861d1f32c4bdb,64d2fd46c836a06233681665,64dc7b45760b5ca29153d2e6,,,,,,,sngl,resources/Empty.png,resources/DB.BMP,WildCard_NonEx,0.506666667,-0.078888889,1,0,0,0.516,optionRight,45,4995,3,13,0,13,0,1,,,,,,,,,,,,,,,,,,,,,,,,,,,,,,,,,,,,,,,
,,,,,,,,2023-08-16_08h31.34.267,HF_wild_card,2022.2.4,MacIntel,62.5,63ea52773c5861d1f32c4bdb,64d2fd46c836a06233681665,64dc7b45760b5ca29153d2e6,,,,,,,decisionTrl,resources/DG.BMP,resources/DY.BMP,Door2,-0.431111111,0.043333333,1,0,0,1.2,optionLeft,20,5015,3,14,0,14,0,1,,,,,,,,,,,,,,,,,,,,,,,,,,,,,,,,,,,,,,,
,,,,,,,,2023-08-16_08h31.34.267,HF_wild_card,2022.2.4,MacIntel,62.5,63ea52773c5861d1f32c4bdb,64d2fd46c836a06233681665,64dc7b45760b5ca29153d2e6,,,,,,,ctch,resources/DP.BMP,resources/DY.BMP,Door4,-0.551111111,0.038888889,1,0,0,34.812,optionLeft,80,5095,3,15,0,15,0,1,,,,,,,,,,,,,,,,,,,,,,,,,,,,,,,,,,,,,,,
,,,,,,,,2023-08-16_08h31.34.267,HF_wild_card,2022.2.4,MacIntel,62.5,63ea52773c5861d1f32c4bdb,64d2fd46c836a06233681665,64dc7b45760b5ca29153d2e6,,,,,,,sngl,resources/Empty.png,resources/DB.BMP,WildCard_NonEx,0.425555556,-0.005555556,1,0,0,0.491,optionRight,55,5150,3,16,0,16,0,1,,,,,,,,,,,,,,,,,,,,,,,,,,,,,,,,,,,,,,,
,,,,,,,,2023-08-16_08h31.34.267,HF_wild_card,2022.2.4,MacIntel,62.5,63ea52773c5861d1f32c4bdb,64d2fd46c836a06233681665,64dc7b45760b5ca29153d2e6,,,,,,,decisionTrl,resources/DY.BMP,resources/DB.BMP,WildCard_NonEx,0.403333333,0.082222222,1,0,0,0.703,optionRight,55,5205,3,17,0,17,0,1,,,,,,,,,,,,,,,,,,,,,,,,,,,,,,,,,,,,,,,
,,,,,,,,2023-08-16_08h31.34.267,HF_wild_card,2022.2.4,MacIntel,62.5,63ea52773c5861d1f32c4bdb,64d2fd46c836a06233681665,64dc7b45760b5ca29153d2e6,,,,,,,ctch,resources/DY.BMP,resources/DP.BMP,Door4,0.331111111,0.055555556,1,0,0,1.635,optionRight,60,5265,3,18,0,18,0,1,,,,,,,,,,,,,,,,,,,,,,,,,,,,,,,,,,,,,,,
,,,,,,,,2023-08-16_08h31.34.267,HF_wild_card,2022.2.4,MacIntel,62.5,63ea52773c5861d1f32c4bdb,64d2fd46c836a06233681665,64dc7b45760b5ca29153d2e6,,,,,,,decisionTrl,resources/DB.BMP,resources/DG.BMP,WildCard_NonEx,-0.373333333,-0.008888889,1,0,0,0.565,optionLeft,55,5320,3,19,0,19,0,1,,,,,,,,,,,,,,,,,,,,,,,,,,,,,,,,,,,,,,,
,,,,,,,,2023-08-16_08h31.34.267,HF_wild_card,2022.2.4,MacIntel,62.5,63ea52773c5861d1f32c4bdb,64d2fd46c836a06233681665,64dc7b45760b5ca29153d2e6,,,,,,,sngl,resources/Empty.png,resources/DY.BMP,Door1,0.336666667,-0.01,1,0,0,0.472,optionRight,30,5350,3,20,0,20,0,1,,,,,,,,,,,,,,,,,,,,,,,,,,,,,,,,,,,,,,,
,,,,,,,,2023-08-16_08h31.34.267,HF_wild_card,2022.2.4,MacIntel,62.5,63ea52773c5861d1f32c4bdb,64d2fd46c836a06233681665,64dc7b45760b5ca29153d2e6,,,,,,,decisionTrl,resources/DB.BMP,resources/DY.BMP,WildCard_NonEx,-0.295555556,-0.031111111,1,0,0,0.603,optionLeft,45,5395,3,21,0,21,0,1,,,,,,,,,,,,,,,,,,,,,,,,,,,,,,,,,,,,,,,
,,,,,,,,2023-08-16_08h31.34.267,HF_wild_card,2022.2.4,MacIntel,62.5,63ea52773c5861d1f32c4bdb,64d2fd46c836a06233681665,64dc7b45760b5ca29153d2e6,,,,,,,decisionTrl,resources/DR.BMP,resources/DP.BMP,Door4,0.398888889,-0.016666667,1,0,0,0.478,optionRight,60,5455,3,22,0,22,0,1,,,,,,,,,,,,,,,,,,,,,,,,,,,,,,,,,,,,,,,
,,,,,,,,2023-08-16_08h31.34.267,HF_wild_card,2022.2.4,MacIntel,62.5,63ea52773c5861d1f32c4bdb,64d2fd46c836a06233681665,64dc7b45760b5ca29153d2e6,,,,,,,ctch,resources/DG.BMP,resources/DR.BMP,Door2,-0.347777778,-0.02,1,0,0,1.092,optionLeft,20,5475,3,23,0,23,0,1,,,,,,,,,,,,,,,,,,,,,,,,,,,,,,,,,,,,,,,
,,,,,,,,2023-08-16_08h31.34.267,HF_wild_card,2022.2.4,MacIntel,62.5,63ea52773c5861d1f32c4bdb,64d2fd46c836a06233681665,64dc7b45760b5ca29153d2e6,,,,,,,decisionTrl,resources/DG.BMP,resources/DY.BMP,Door1,0.305555556,0.002222222,1,0,0,0.69,optionRight,30,5505,3,24,0,24,0,1,,,,,,,,,,,,,,,,,,,,,,,,,,,,,,,,,,,,,,,
,,,,,,,,2023-08-16_08h31.34.267,HF_wild_card,2022.2.4,MacIntel,62.5,63ea52773c5861d1f32c4bdb,64d2fd46c836a06233681665,64dc7b45760b5ca29153d2e6,,,,,,,sngl,resources/DP.BMP,resources/Empty.png,Door4,-0.365555556,-0.017777778,1,0,0,0.574,optionLeft,80,5585,3,25,0,25,0,1,,,,,,,,,,,,,,,,,,,,,,,,,,,,,,,,,,,,,,,
,,,,,,,,2023-08-16_08h31.34.267,HF_wild_card,2022.2.4,MacIntel,62.5,63ea52773c5861d1f32c4bdb,64d2fd46c836a06233681665,64dc7b45760b5ca29153d2e6,,,,,,,decisionTrl,resources/DY.BMP,resources/DG.BMP,Door1,-0.28,-0.002222222,1,0,0,0.654,optionLeft,30,5615,3,26,0,26,0,1,,,,,,,,,,,,,,,,,,,,,,,,,,,,,,,,,,,,,,,
,,,,,,,,2023-08-16_08h31.34.267,HF_wild_card,2022.2.4,MacIntel,62.5,63ea52773c5861d1f32c4bdb,64d2fd46c836a06233681665,64dc7b45760b5ca29153d2e6,,,,,,,decisionTrl,resources/DY.BMP,resources/DG.BMP,Door2,0.406666667,-0.007777778,1,0,0,0.521,optionRight,20,5635,3,27,0,27,0,1,,,,,,,,,,,,,,,,,,,,,,,,,,,,,,,,,,,,,,,
,,,,,,,,2023-08-16_08h31.34.267,HF_wild_card,2022.2.4,MacIntel,62.5,63ea52773c5861d1f32c4bdb,64d2fd46c836a06233681665,64dc7b45760b5ca29153d2e6,,,,,,,ctch,resources/DR.BMP,resources/DG.BMP,Door3,-0.374444444,0.011111111,1,0,0,1.705,optionLeft,70,5705,3,28,0,28,0,1,,,,,,,,,,,,,,,,,,,,,,,,,,,,,,,,,,,,,,,
,,,,,,,,2023-08-16_08h31.34.267,HF_wild_card,2022.2.4,MacIntel,62.5,63ea52773c5861d1f32c4bdb,64d2fd46c836a06233681665,64dc7b45760b5ca29153d2e6,,,,,,,ctch,resources/DR.BMP,resources/DG.BMP,Door3,-0.265555556,-0.033333333,1,0,0,0.591,optionLeft,70,5775,3,29,0,29,0,1,,,,,,,,,,,,,,,,,,,,,,,,,,,,,,,,,,,,,,,
,,,,,,,,2023-08-16_08h31.34.267,HF_wild_card,2022.2.4,MacIntel,62.5,63ea52773c5861d1f32c4bdb,64d2fd46c836a06233681665,64dc7b45760b5ca29153d2e6,,,,,,,ctch,resources/DY.BMP,resources/DP.BMP,Door4,0.412222222,-0.054444444,1,0,0,0.967,optionRight,60,5835,3,30,0,30,0,1,,,,,,,,,,,,,,,,,,,,,,,,,,,,,,,,,,,,,,,
,,,,,,,,2023-08-16_08h31.34.267,HF_wild_card,2022.2.4,MacIntel,62.5,63ea52773c5861d1f32c4bdb,64d2fd46c836a06233681665,64dc7b45760b5ca29153d2e6,,,,,,,decisionTrl,resources/DR.BMP,resources/DP.BMP,Door3,-0.332222222,-0.002222222,1,0,0,0.492,optionLeft,70,5905,3,31,0,31,0,1,,,,,,,,,,,,,,,,,,,,,,,,,,,,,,,,,,,,,,,
,,,,,,,,2023-08-16_08h31.34.267,HF_wild_card,2022.2.4,MacIntel,62.5,63ea52773c5861d1f32c4bdb,64d2fd46c836a06233681665,64dc7b45760b5ca29153d2e6,,,,,,,sngl,resources/DB.BMP,resources/Empty.png,WildCard_NonEx,-0.381111111,-0.007777778,1,0,0,0.557,optionLeft,45,5950,3,32,0,32,0,1,,,,,,,,,,,,,,,,,,,,,,,,,,,,,,,,,,,,,,,
,,,,,,,,2023-08-16_08h31.34.267,HF_wild_card,2022.2.4,MacIntel,62.5,63ea52773c5861d1f32c4bdb,64d2fd46c836a06233681665,64dc7b45760b5ca29153d2e6,,,,,,,decisionTrl,resources/DP.BMP,resources/DR.BMP,Door3,0.29,0.01,1,0,0,2.056,optionRight,70,6020,3,33,0,33,0,1,,,,,,,,,,,,,,,,,,,,,,,,,,,,,,,,,,,,,,,
,,,,,,,,2023-08-16_08h31.34.267,HF_wild_card,2022.2.4,MacIntel,62.5,63ea52773c5861d1f32c4bdb,64d2fd46c836a06233681665,64dc7b45760b5ca29153d2e6,,,,,,,sngl,resources/DY.BMP,resources/Empty.png,Door1,-0.396666667,0.013333333,1,0,0,0.552,optionLeft,30,6050,3,34,0,34,0,1,,,,,,,,,,,,,,,,,,,,,,,,,,,,,,,,,,,,,,,
,,,,,,,,2023-08-16_08h31.34.267,HF_wild_card,2022.2.4,MacIntel,62.5,63ea52773c5861d1f32c4bdb,64d2fd46c836a06233681665,64dc7b45760b5ca29153d2e6,,,,,,,decisionTrl,resources/DY.BMP,resources/DG.BMP,Door1,-0.342222222,0.057777778,1,0,0,0.822,optionLeft,30,6080,3,35,0,35,0,1,,,,,,,,,,,,,,,,,,,,,,,,,,,,,,,,,,,,,,,
,,,,,,,,2023-08-16_08h31.34.267,HF_wild_card,2022.2.4,MacIntel,62.5,63ea52773c5861d1f32c4bdb,64d2fd46c836a06233681665,64dc7b45760b5ca29153d2e6,,,,,,,decisionTrl,resources/DR.BMP,resources/DP.BMP,Door4,0.376666667,-0.091111111,1,0,0,2.151,optionRight,80,6160,3,36,0,36,0,1,,,,,,,,,,,,,,,,,,,,,,,,,,,,,,,,,,,,,,,
,,,,,,,,2023-08-16_08h31.34.267,HF_wild_card,2022.2.4,MacIntel,62.5,63ea52773c5861d1f32c4bdb,64d2fd46c836a06233681665,64dc7b45760b5ca29153d2e6,,,,,,,decisionTrl,resources/DG.BMP,resources/DY.BMP,Door1,0.572222222,-0.02,1,0,0,1.411,optionRight,30,6190,3,37,0,37,0,1,,,,,,,,,,,,,,,,,,,,,,,,,,,,,,,,,,,,,,,
,,,,,,,,2023-08-16_08h31.34.267,HF_wild_card,2022.2.4,MacIntel,62.5,63ea52773c5861d1f32c4bdb,64d2fd46c836a06233681665,64dc7b45760b5ca29153d2e6,,,,,,,sngl,resources/Empty.png,resources/DR.BMP,Door3,0.295555556,-0.044444444,1,0,0,0.624,optionRight,70,6260,3,38,0,38,0,1,,,,,,,,,,,,,,,,,,,,,,,,,,,,,,,,,,,,,,,
,,,,,,,,2023-08-16_08h31.34.267,HF_wild_card,2022.2.4,MacIntel,62.5,63ea52773c5861d1f32c4bdb,64d2fd46c836a06233681665,64dc7b45760b5ca29153d2e6,,,,,,,decisionTrl,resources/DG.BMP,resources/DB.BMP,WildCard_NonEx,0.277777778,-0.066666667,1,0,0,1.076,optionRight,55,6315,3,39,0,39,0,1,,,,,,,,,,,,,,,,,,,,,,,,,,,,,,,,,,,,,,,
,,,,,,,,2023-08-16_08h31.34.267,HF_wild_card,2022.2.4,MacIntel,62.5,63ea52773c5861d1f32c4bdb,64d2fd46c836a06233681665,64dc7b45760b5ca29153d2e6,,,,,,,decisionTrl,resources/DG.BMP,resources/DY.BMP,Door1,0.395555556,-0.018888889,1,0,0,0.741,optionRight,30,6345,3,40,0,40,0,1,,,,,,,,,,,,,,,,,,,,,,,,,,,,,,,,,,,,,,,
,,,,,,,,2023-08-16_08h31.34.267,HF_wild_card,2022.2.4,MacIntel,62.5,63ea52773c5861d1f32c4bdb,64d2fd46c836a06233681665,64dc7b45760b5ca29153d2e6,,,,,,,decisionTrl,resources/DP.BMP,resources/DR.BMP,Door4,-0.481111111,-0.021111111,1,0,0,0.946,optionLeft,80,6425,3,41,0,41,0,1,,,,,,,,,,,,,,,,,,,,,,,,,,,,,,,,,,,,,,,
,,,,,,,,2023-08-16_08h31.34.267,HF_wild_card,2022.2.4,MacIntel,62.5,63ea52773c5861d1f32c4bdb,64d2fd46c836a06233681665,64dc7b45760b5ca29153d2e6,,,,,,,sngl,resources/DB.BMP,resources/Empty.png,WildCard_NonEx,-0.424444444,0.008888889,1,0,0,0.747,optionLeft,55,6480,3,42,0,42,0,1,,,,,,,,,,,,,,,,,,,,,,,,,,,,,,,,,,,,,,,
,,,,,,,,2023-08-16_08h31.34.267,HF_wild_card,2022.2.4,MacIntel,62.5,63ea52773c5861d1f32c4bdb,64d2fd46c836a06233681665,64dc7b45760b5ca29153d2e6,,,,,,,decisionTrl,resources/DB.BMP,resources/DR.BMP,WildCard_NonEx,-0.357777778,0.043333333,1,0,0,0.947,optionLeft,55,6535,3,43,0,43,0,1,,,,,,,,,,,,,,,,,,,,,,,,,,,,,,,,,,,,,,,
,,,,,,,,2023-08-16_08h31.34.267,HF_wild_card,2022.2.4,MacIntel,62.5,63ea52773c5861d1f32c4bdb,64d2fd46c836a06233681665,64dc7b45760b5ca29153d2e6,,,,,,,,,,,,,,,,,,,,,,,,,,2,0,2,0,1,,,,,,,,,,,,,,,,,,,,,,,,,,,,,,,,,,
,,,,,,,,2023-08-16_08h31.34.267,HF_wild_card,2022.2.4,MacIntel,62.5,63ea52773c5861d1f32c4bdb,64d2fd46c836a06233681665,64dc7b45760b5ca29153d2e6,,,,,,,ctch,resources/DY.BMP,resources/DP.BMP,Door4,0.428888889,-0.025555556,1,0,0,0.939,optionRight,80,6615,4,0,0,0,0,1,,,,,,,,,,,,,,,,,,,,,,,,,,,,,,,,,,,,,,,
,,,,,,,,2023-08-16_08h31.34.267,HF_wild_card,2022.2.4,MacIntel,62.5,63ea52773c5861d1f32c4bdb,64d2fd46c836a06233681665,64dc7b45760b5ca29153d2e6,,,,,,,decisionTrl,resources/DP.BMP,resources/DR.BMP,Door4,-0.371111111,0.044444444,1,0,0,0.607,optionLeft,80,6695,4,1,0,1,0,1,,,,,,,,,,,,,,,,,,,,,,,,,,,,,,,,,,,,,,,
,,,,,,,,2023-08-16_08h31.34.267,HF_wild_card,2022.2.4,MacIntel,62.5,63ea52773c5861d1f32c4bdb,64d2fd46c836a06233681665,64dc7b45760b5ca29153d2e6,,,,,,,decisionTrl,resources/DR.BMP,resources/DP.BMP,Door4,0.295555556,-0.054444444,1,0,0,0.836,optionRight,80,6775,4,2,0,2,0,1,,,,,,,,,,,,,,,,,,,,,,,,,,,,,,,,,,,,,,,
,,,,,,,,2023-08-16_08h31.34.267,HF_wild_card,2022.2.4,MacIntel,62.5,63ea52773c5861d1f32c4bdb,64d2fd46c836a06233681665,64dc7b45760b5ca29153d2e6,,,,,,,ctch,resources/DG.BMP,resources/DR.BMP,Door3,0.518888889,-0.018888889,1,0,0,1.394,optionRight,70,6845,4,3,0,3,0,1,,,,,,,,,,,,,,,,,,,,,,,,,,,,,,,,,,,,,,,
,,,,,,,,2023-08-16_08h31.34.267,HF_wild_card,2022.2.4,MacIntel,62.5,63ea52773c5861d1f32c4bdb,64d2fd46c836a06233681665,64dc7b45760b5ca29153d2e6,,,,,,,sngl,resources/Empty.png,resources/DBN.BMP,WildCard_Ex,0.412222222,-0.045555556,1,0,0,1.307,optionRight,45,6890,4,4,0,4,0,1,,,,,,,,,,,,,,,,,,,,,,,,,,,,,,,,,,,,,,,
,,,,,,,,2023-08-16_08h31.34.267,HF_wild_card,2022.2.4,MacIntel,62.5,63ea52773c5861d1f32c4bdb,64d2fd46c836a06233681665,64dc7b45760b5ca29153d2e6,,,,,,,decisionTrl,resources/DBN.BMP,resources/DP.BMP,Door4,0.353333333,-0.025555556,1,0,0,0.941,optionRight,80,6970,4,5,0,5,0,1,,,,,,,,,,,,,,,,,,,,,,,,,,,,,,,,,,,,,,,
,,,,,,,,2023-08-16_08h31.34.267,HF_wild_card,2022.2.4,MacIntel,62.5,63ea52773c5861d1f32c4bdb,64d2fd46c836a06233681665,64dc7b45760b5ca29153d2e6,,,,,,,sngl,resources/Empty.png,resources/DBN.BMP,WildCard_Ex,0.368888889,-0.032222222,1,0,0,0.782,optionRight,55,7025,4,6,0,6,0,1,,,,,,,,,,,,,,,,,,,,,,,,,,,,,,,,,,,,,,,
,,,,,,,,2023-08-16_08h31.34.267,HF_wild_card,2022.2.4,MacIntel,62.5,63ea52773c5861d1f32c4bdb,64d2fd46c836a06233681665,64dc7b45760b5ca29153d2e6,,,,,,,sngl,resources/Empty.png,resources/DP.BMP,Door4,0.371111111,-0.063333333,1,0,0,0.654,optionRight,80,7105,4,7,0,7,0,1,,,,,,,,,,,,,,,,,,,,,,,,,,,,,,,,,,,,,,,
,,,,,,,,2023-08-16_08h31.34.267,HF_wild_card,2022.2.4,MacIntel,62.5,63ea52773c5861d1f32c4bdb,64d2fd46c836a06233681665,64dc7b45760b5ca29153d2e6,,,,,,,decisionTrl,resources/DY.BMP,resources/DG.BMP,Door2,0.34,-0.142222222,1,0,0,2.799,optionRight,20,7125,4,8,0,8,0,1,,,,,,,,,,,,,,,,,,,,,,,,,,,,,,,,,,,,,,,
,,,,,,,,2023-08-16_08h31.34.267,HF_wild_card,2022.2.4,MacIntel,62.5,63ea52773c5861d1f32c4bdb,64d2fd46c836a06233681665,64dc7b45760b5ca29153d2e6,,,,,,,decisionTrl,resources/DY.BMP,resources/DG.BMP,Door1,-0.3,-0.004444444,1,0,0,0.639,optionLeft,30,7155,4,9,0,9,0,1,,,,,,,,,,,,,,,,,,,,,,,,,,,,,,,,,,,,,,,
,,,,,,,,2023-08-16_08h31.34.267,HF_wild_card,2022.2.4,MacIntel,62.5,63ea52773c5861d1f32c4bdb,64d2fd46c836a06233681665,64dc7b45760b5ca29153d2e6,,,,,,,ctch,resources/DP.BMP,resources/DY.BMP,Door1,0.443333333,-0.012222222,1,0,0,0.518,optionRight,30,7185,4,10,0,10,0,1,,,,,,,,,,,,,,,,,,,,,,,,,,,,,,,,,,,,,,,
,,,,,,,,2023-08-16_08h31.34.267,HF_wild_card,2022.2.4,MacIntel,62.5,63ea52773c5861d1f32c4bdb,64d2fd46c836a06233681665,64dc7b45760b5ca29153d2e6,,,,,,,ctch,resources/DG.BMP,resources/DR.BMP,Door3,0.394444444,-0.008888889,1,0,0,1.307,optionRight,70,7255,4,11,0,11,0,1,,,,,,,,,,,,,,,,,,,,,,,,,,,,,,,,,,,,,,,
,,,,,,,,2023-08-16_08h31.34.267,HF_wild_card,2022.2.4,MacIntel,62.5,63ea52773c5861d1f32c4bdb,64d2fd46c836a06233681665,64dc7b45760b5ca29153d2e6,,,,,,,sngl,resources/DBN.BMP,resources/Empty.png,WildCard_Ex,-0.312222222,0.025555556,1,0,0,0.787,optionLeft,55,7310,4,12,0,12,0,1,,,,,,,,,,,,,,,,,,,,,,,,,,,,,,,,,,,,,,,
,,,,,,,,2023-08-16_08h31.34.267,HF_wild_card,2022.2.4,MacIntel,62.5,63ea52773c5861d1f32c4bdb,64d2fd46c836a06233681665,64dc7b45760b5ca29153d2e6,,,,,,,ctch,resources/DY.BMP,resources/DP.BMP,Door4,0.446666667,-0.038888889,1,0,0,1.07,optionRight,80,7390,4,13,0,13,0,1,,,,,,,,,,,,,,,,,,,,,,,,,,,,,,,,,,,,,,,
,,,,,,,,2023-08-16_08h31.34.267,HF_wild_card,2022.2.4,MacIntel,62.5,63ea52773c5861d1f32c4bdb,64d2fd46c836a06233681665,64dc7b45760b5ca29153d2e6,,,,,,,sngl,resources/DG.BMP,resources/Empty.png,Door2,-0.37,0.006666667,1,0,0,0.679,optionLeft,20,7410,4,14,0,14,0,1,,,,,,,,,,,,,,,,,,,,,,,,,,,,,,,,,,,,,,,
,,,,,,,,2023-08-16_08h31.34.267,HF_wild_card,2022.2.4,MacIntel,62.5,63ea52773c5861d1f32c4bdb,64d2fd46c836a06233681665,64dc7b45760b5ca29153d2e6,,,,,,,decisionTrl,resources/DP.BMP,resources/DR.BMP,Door4,-0.256666667,0.001111111,1,0,0,1.857,optionLeft,60,7470,4,15,0,15,0,1,,,,,,,,,,,,,,,,,,,,,,,,,,,,,,,,,,,,,,,
,,,,,,,,2023-08-16_08h31.34.267,HF_wild_card,2022.2.4,MacIntel,62.5,63ea52773c5861d1f32c4bdb,64d2fd46c836a06233681665,64dc7b45760b5ca29153d2e6,,,,,,,decisionTrl,resources/DBN.BMP,resources/DR.BMP,WildCard_Ex,-0.39,0.003333333,1,0,0,1.474,optionLeft,55,7525,4,16,0,16,0,1,,,,,,,,,,,,,,,,,,,,,,,,,,,,,,,,,,,,,,,
,,,,,,,,2023-08-16_08h31.34.267,HF_wild_card,2022.2.4,MacIntel,62.5,63ea52773c5861d1f32c4bdb,64d2fd46c836a06233681665,64dc7b45760b5ca29153d2e6,,,,,,,sngl,resources/Empty.png,resources/DY.BMP,Door1,0.321111111,-0.041111111,1,0,0,0.509,optionRight,30,7555,4,17,0,17,0,1,,,,,,,,,,,,,,,,,,,,,,,,,,,,,,,,,,,,,,,
,,,,,,,,2023-08-16_08h31.34.267,HF_wild_card,2022.2.4,MacIntel,62.5,63ea52773c5861d1f32c4bdb,64d2fd46c836a06233681665,64dc7b45760b5ca29153d2e6,,,,,,,decisionTrl,resources/DR.BMP,resources/DP.BMP,Door4,0.424444444,0.003333333,1,0,0,0.906,optionRight,80,7635,4,18,0,18,0,1,,,,,,,,,,,,,,,,,,,,,,,,,,,,,,,,,,,,,,,
,,,,,,,,2023-08-16_08h31.34.267,HF_wild_card,2022.2.4,MacIntel,62.5,63ea52773c5861d1f32c4bdb,64d2fd46c836a06233681665,64dc7b45760b5ca29153d2e6,,,,,,,sngl,resources/Empty.png,resources/DR.BMP,Door3,0.383333333,-0.012222222,1,0,0,0.905,optionRight,70,7705,4,19,0,19,0,1,,,,,,,,,,,,,,,,,,,,,,,,,,,,,,,,,,,,,,,
,,,,,,,,2023-08-16_08h31.34.267,HF_wild_card,2022.2.4,MacIntel,62.5,63ea52773c5861d1f32c4bdb,64d2fd46c836a06233681665,64dc7b45760b5ca29153d2e6,,,,,,,decisionTrl,resources/DY.BMP,resources/DG.BMP,Door2,0.407777778,0.01,1,0,0,2.435,optionRight,20,7725,4,20,0,20,0,1,,,,,,,,,,,,,,,,,,,,,,,,,,,,,,,,,,,,,,,
,,,,,,,,2023-08-16_08h31.34.267,HF_wild_card,2022.2.4,MacIntel,62.5,63ea52773c5861d1f32c4bdb,64d2fd46c836a06233681665,64dc7b45760b5ca29153d2e6,,,,,,,decisionTrl,resources/DBN.BMP,resources/DG.BMP,WildCard_Ex,-0.343333333,0.001111111,1,0,0,1.491,optionLeft,45,7770,4,21,0,21,0,1,,,,,,,,,,,,,,,,,,,,,,,,,,,,,,,,,,,,,,,
,,,,,,,,2023-08-16_08h31.34.267,HF_wild_card,2022.2.4,MacIntel,62.5,63ea52773c5861d1f32c4bdb,64d2fd46c836a06233681665,64dc7b45760b5ca29153d2e6,,,,,,,decisionTrl,resources/DP.BMP,resources/DR.BMP,Door4,-0.515555556,-0.083333333,1,0,0,0.859,optionLeft,80,7850,4,22,0,22,0,1,,,,,,,,,,,,,,,,,,,,,,,,,,,,,,,,,,,,,,,
,,,,,,,,2023-08-16_08h31.34.267,HF_wild_card,2022.2.4,MacIntel,62.5,63ea52773c5861d1f32c4bdb,64d2fd46c836a06233681665,64dc7b45760b5ca29153d2e6,,,,,,,sngl,resources/DR.BMP,resources/Empty.png,Door3,-0.403333333,-0.024444444,1,0,0,0.641,optionLeft,70,7920,4,23,0,23,0,1,,,,,,,,,,,,,,,,,,,,,,,,,,,,,,,,,,,,,,,
,,,,,,,,2023-08-16_08h31.34.267,HF_wild_card,2022.2.4,MacIntel,62.5,63ea52773c5861d1f32c4bdb,64d2fd46c836a06233681665,64dc7b45760b5ca29153d2e6,,,,,,,decisionTrl,resources/DG.BMP,resources/DY.BMP,Door2,-0.301111111,-0.017777778,1,0,0,2.408,optionLeft,20,7940,4,24,0,24,0,1,,,,,,,,,,,,,,,,,,,,,,,,,,,,,,,,,,,,,,,
,,,,,,,,2023-08-16_08h31.34.267,HF_wild_card,2022.2.4,MacIntel,62.5,63ea52773c5861d1f32c4bdb,64d2fd46c836a06233681665,64dc7b45760b5ca29153d2e6,,,,,,,decisionTrl,resources/DP.BMP,resources/DR.BMP,Door4,-0.324444444,0,1,0,0,0.692,optionLeft,60,8000,4,25,0,25,0,1,,,,,,,,,,,,,,,,,,,,,,,,,,,,,,,,,,,,,,,
,,,,,,,,2023-08-16_08h31.34.267,HF_wild_card,2022.2.4,MacIntel,62.5,63ea52773c5861d1f32c4bdb,64d2fd46c836a06233681665,64dc7b45760b5ca29153d2e6,,,,,,,decisionTrl,resources/DY.BMP,resources/DBN.BMP,WildCard_Ex,0.364444444,0.015555556,1,0,0,1.577,optionRight,45,8045,4,26,0,26,0,1,,,,,,,,,,,,,,,,,,,,,,,,,,,,,,,,,,,,,,,
,,,,,,,,2023-08-16_08h31.34.267,HF_wild_card,2022.2.4,MacIntel,62.5,63ea52773c5861d1f32c4bdb,64d2fd46c836a06233681665,64dc7b45760b5ca29153d2e6,,,,,,,sngl,resources/DY.BMP,resources/Empty.png,Door1,-0.356666667,-0.011111111,1,0,0,0.593,optionLeft,30,8075,4,27,0,27,0,1,,,,,,,,,,,,,,,,,,,,,,,,,,,,,,,,,,,,,,,
,,,,,,,,2023-08-16_08h31.34.267,HF_wild_card,2022.2.4,MacIntel,62.5,63ea52773c5861d1f32c4bdb,64d2fd46c836a06233681665,64dc7b45760b5ca29153d2e6,,,,,,,decisionTrl,resources/DP.BMP,resources/DBN.BMP,Door4,-0.382222222,-0.012222222,1,0,0,0.991,optionLeft,60,8135,4,28,0,28,0,1,,,,,,,,,,,,,,,,,,,,,,,,,,,,,,,,,,,,,,,
,,,,,,,,2023-08-16_08h31.34.267,HF_wild_card,2022.2.4,MacIntel,62.5,63ea52773c5861d1f32c4bdb,64d2fd46c836a06233681665,64dc7b45760b5ca29153d2e6,,,,,,,ctch,resources/DP.BMP,resources/DY.BMP,Door4,-0.447777778,0.002222222,1,0,0,0.641,optionLeft,80,8215,4,29,0,29,0,1,,,,,,,,,,,,,,,,,,,,,,,,,,,,,,,,,,,,,,,
,,,,,,,,2023-08-16_08h31.34.267,HF_wild_card,2022.2.4,MacIntel,62.5,63ea52773c5861d1f32c4bdb,64d2fd46c836a06233681665,64dc7b45760b5ca29153d2e6,,,,,,,decisionTrl,resources/DBN.BMP,resources/DY.BMP,WildCard_Ex,-0.364444444,0.097777778,1,0,0,2.394,optionLeft,55,8270,4,30,0,30,0,1,,,,,,,,,,,,,,,,,,,,,,,,,,,,,,,,,,,,,,,
,,,,,,,,2023-08-16_08h31.34.267,HF_wild_card,2022.2.4,MacIntel,62.5,63ea52773c5861d1f32c4bdb,64d2fd46c836a06233681665,64dc7b45760b5ca29153d2e6,,,,,,,ctch,resources/DR.BMP,resources/DG.BMP,Door3,-0.4,-0.05,1,0,0,1.985,optionLeft,70,8340,4,31,0,31,0,1,,,,,,,,,,,,,,,,,,,,,,,,,,,,,,,,,,,,,,,
,,,,,,,,2023-08-16_08h31.34.267,HF_wild_card,2022.2.4,MacIntel,62.5,63ea52773c5861d1f32c4bdb,64d2fd46c836a06233681665,64dc7b45760b5ca29153d2e6,,,,,,,sngl,resources/DBN.BMP,resources/Empty.png,WildCard_Ex,-0.342222222,0.028888889,1,0,0,0.685,optionLeft,45,8385,4,32,0,32,0,1,,,,,,,,,,,,,,,,,,,,,,,,,,,,,,,,,,,,,,,
,,,,,,,,2023-08-16_08h31.34.267,HF_wild_card,2022.2.4,MacIntel,62.5,63ea52773c5861d1f32c4bdb,64d2fd46c836a06233681665,64dc7b45760b5ca29153d2e6,,,,,,,decisionTrl,resources/DR.BMP,resources/DP.BMP,Door4,0.422222222,-0.06,1,0,0,0.694,optionRight,60,8445,4,33,0,33,0,1,,,,,,,,,,,,,,,,,,,,,,,,,,,,,,,,,,,,,,,
,,,,,,,,2023-08-16_08h31.34.267,HF_wild_card,2022.2.4,MacIntel,62.5,63ea52773c5861d1f32c4bdb,64d2fd46c836a06233681665,64dc7b45760b5ca29153d2e6,,,,,,,decisionTrl,resources/DG.BMP,resources/DBN.BMP,WildCard_Ex,0.366666667,-0.013333333,1,0,0,1.358,optionRight,55,8500,4,34,0,34,0,1,,,,,,,,,,,,,,,,,,,,,,,,,,,,,,,,,,,,,,,
,,,,,,,,2023-08-16_08h31.34.267,HF_wild_card,2022.2.4,MacIntel,62.5,63ea52773c5861d1f32c4bdb,64d2fd46c836a06233681665,64dc7b45760b5ca29153d2e6,,,,,,,decisionTrl,resources/DG.BMP,resources/DY.BMP,Door1,0.51,-0.012222222,1,0,0,1.275,optionRight,30,8530,4,35,0,35,0,1,,,,,,,,,,,,,,,,,,,,,,,,,,,,,,,,,,,,,,,
,,,,,,,,2023-08-16_08h31.34.267,HF_wild_card,2022.2.4,MacIntel,62.5,63ea52773c5861d1f32c4bdb,64d2fd46c836a06233681665,64dc7b45760b5ca29153d2e6,,,,,,,decisionTrl,resources/DR.BMP,resources/DP.BMP,Door4,0.375555556,-0.02,1,0,0,0.696,optionRight,80,8610,4,36,0,36,0,1,,,,,,,,,,,,,,,,,,,,,,,,,,,,,,,,,,,,,,,
,,,,,,,,2023-08-16_08h31.34.267,HF_wild_card,2022.2.4,MacIntel,62.5,63ea52773c5861d1f32c4bdb,64d2fd46c836a06233681665,64dc7b45760b5ca29153d2e6,,,,,,,ctch,resources/DR.BMP,resources/DG.BMP,Door3,-0.322222222,0.043333333,1,0,0,2.504,optionLeft,70,8680,4,37,0,37,0,1,,,,,,,,,,,,,,,,,,,,,,,,,,,,,,,,,,,,,,,
,,,,,,,,2023-08-16_08h31.34.267,HF_wild_card,2022.2.4,MacIntel,62.5,63ea52773c5861d1f32c4bdb,64d2fd46c836a06233681665,64dc7b45760b5ca29153d2e6,,,,,,,decisionTrl,resources/DR.BMP,resources/DBN.BMP,Door3,-0.448888889,-0.03,1,0,0,0.806,optionLeft,70,8750,4,38,0,38,0,1,,,,,,,,,,,,,,,,,,,,,,,,,,,,,,,,,,,,,,,
,,,,,,,,2023-08-16_08h31.34.267,HF_wild_card,2022.2.4,MacIntel,62.5,63ea52773c5861d1f32c4bdb,64d2fd46c836a06233681665,64dc7b45760b5ca29153d2e6,,,,,,,decisionTrl,resources/DG.BMP,resources/DY.BMP,Door2,-0.333333333,-0.051111111,1,0,0,2.634,optionLeft,40,8790,4,39,0,39,0,1,,,,,,,,,,,,,,,,,,,,,,,,,,,,,,,,,,,,,,,
,,,,,,,,2023-08-16_08h31.34.267,HF_wild_card,2022.2.4,MacIntel,62.5,63ea52773c5861d1f32c4bdb,64d2fd46c836a06233681665,64dc7b45760b5ca29153d2e6,,,,,,,sngl,resources/Empty.png,resources/DG.BMP,Door2,0.456666667,-0.06,1,0,0,0.687,optionRight,40,8830,4,40,0,40,0,1,,,,,,,,,,,,,,,,,,,,,,,,,,,,,,,,,,,,,,,
,,,,,,,,2023-08-16_08h31.34.267,HF_wild_card,2022.2.4,MacIntel,62.5,63ea52773c5861d1f32c4bdb,64d2fd46c836a06233681665,64dc7b45760b5ca29153d2e6,,,,,,,decisionTrl,resources/DY.BMP,resources/DG.BMP,Door1,-0.45,-0.026666667,1,0,0,0.843,optionLeft,30,8860,4,41,0,41,0,1,,,,,,,,,,,,,,,,,,,,,,,,,,,,,,,,,,,,,,,
,,,,,,,,2023-08-16_08h31.34.267,HF_wild_card,2022.2.4,MacIntel,62.5,63ea52773c5861d1f32c4bdb,64d2fd46c836a06233681665,64dc7b45760b5ca29153d2e6,,,,,,,sngl,resources/DP.BMP,resources/Empty.png,Door4,-0.398888889,0.017777778,1,0,0,0.6,optionLeft,60,8920,4,42,0,42,0,1,,,,,,,,,,,,,,,,,,,,,,,,,,,,,,,,,,,,,,,
,,,,,,,,2023-08-16_08h31.34.267,HF_wild_card,2022.2.4,MacIntel,62.5,63ea52773c5861d1f32c4bdb,64d2fd46c836a06233681665,64dc7b45760b5ca29153d2e6,,,,,,,decisionTrl,resources/DG.BMP,resources/DY.BMP,Door2,-0.457777778,-0.058888889,1,0,0,0.641,optionLeft,40,8960,4,43,0,43,0,1,,,,,,,,,,,,,,,,,,,,,,,,,,,,,,,,,,,,,,,
,,,,,,,,2023-08-16_08h31.34.267,HF_wild_card,2022.2.4,MacIntel,62.5,63ea52773c5861d1f32c4bdb,64d2fd46c836a06233681665,64dc7b45760b5ca29153d2e6,,,,,,,,,,,,,,,,,,,,,,,,,,3,0,3,0,1,,,,,,,,,,,,,,,,,,,,,,,,,,,,,,,,,,
,,,,,,,,2023-08-16_08h31.34.267,HF_wild_card,2022.2.4,MacIntel,62.5,63ea52773c5861d1f32c4bdb,64d2fd46c836a06233681665,64dc7b45760b5ca29153d2e6,,,,,,,sngl,resources/DBN.BMP,resources/Empty.png,WildCard_Ex,-0.354444444,0.004444444,1,0,0,0.573,optionLeft,55,9015,5,0,0,0,0,1,,,,,,,,,,,,,,,,,,,,,,,,,,,,,,,,,,,,,,,
,,,,,,,,2023-08-16_08h31.34.267,HF_wild_card,2022.2.4,MacIntel,62.5,63ea52773c5861d1f32c4bdb,64d2fd46c836a06233681665,64dc7b45760b5ca29153d2e6,,,,,,,sngl,resources/Empty.png,resources/DR.BMP,Door3,0.397777778,-0.005555556,1,0,0,0.625,optionRight,70,9085,5,1,0,1,0,1,,,,,,,,,,,,,,,,,,,,,,,,,,,,,,,,,,,,,,,
,,,,,,,,2023-08-16_08h31.34.267,HF_wild_card,2022.2.4,MacIntel,62.5,63ea52773c5861d1f32c4bdb,64d2fd46c836a06233681665,64dc7b45760b5ca29153d2e6,,,,,,,sngl,resources/DP.BMP,resources/Empty.png,Door4,-0.354444444,0.031111111,1,0,0,0.593,optionLeft,80,9165,5,2,0,2,0,1,,,,,,,,,,,,,,,,,,,,,,,,,,,,,,,,,,,,,,,
,,,,,,,,2023-08-16_08h31.34.267,HF_wild_card,2022.2.4,MacIntel,62.5,63ea52773c5861d1f32c4bdb,64d2fd46c836a06233681665,64dc7b45760b5ca29153d2e6,,,,,,,decisionTrl,resources/DY.BMP,resources/DG.BMP,Door2,0.467777778,0.025555556,1,0,0,1.542,optionRight,40,9205,5,3,0,3,0,1,,,,,,,,,,,,,,,,,,,,,,,,,,,,,,,,,,,,,,,
,,,,,,,,2023-08-16_08h31.34.267,HF_wild_card,2022.2.4,MacIntel,62.5,63ea52773c5861d1f32c4bdb,64d2fd46c836a06233681665,64dc7b45760b5ca29153d2e6,,,,,,,decisionTrl,resources/DBN.BMP,resources/DR.BMP,Door3,0.253333333,0.006666667,1,0,0,1.07,optionRight,70,9275,5,4,0,4,0,1,,,,,,,,,,,,,,,,,,,,,,,,,,,,,,,,,,,,,,,
,,,,,,,,2023-08-16_08h31.34.267,HF_wild_card,2022.2.4,MacIntel,62.5,63ea52773c5861d1f32c4bdb,64d2fd46c836a06233681665,64dc7b45760b5ca29153d2e6,,,,,,,decisionTrl,resources/DR.BMP,resources/DP.BMP,Door4,0.51,-0.033333333,1,0,0,0.853,optionRight,80,9355,5,5,0,5,0,1,,,,,,,,,,,,,,,,,,,,,,,,,,,,,,,,,,,,,,,
,,,,,,,,2023-08-16_08h31.34.267,HF_wild_card,2022.2.4,MacIntel,62.5,63ea52773c5861d1f32c4bdb,64d2fd46c836a06233681665,64dc7b45760b5ca29153d2e6,,,,,,,decisionTrl,resources/DR.BMP,resources/DP.BMP,Door4,0.394444444,0.006666667,1,0,0,0.622,optionRight,60,9415,5,6,0,6,0,1,,,,,,,,,,,,,,,,,,,,,,,,,,,,,,,,,,,,,,,
,,,,,,,,2023-08-16_08h31.34.267,HF_wild_card,2022.2.4,MacIntel,62.5,63ea52773c5861d1f32c4bdb,64d2fd46c836a06233681665,64dc7b45760b5ca29153d2e6,,,,,,,decisionTrl,resources/DG.BMP,resources/DY.BMP,Door2,-0.153333333,0.021111111,1,0,0,2.138,optionLeft,20,9435,5,7,0,7,0,1,,,,,,,,,,,,,,,,,,,,,,,,,,,,,,,,,,,,,,,
,,,,,,,,2023-08-16_08h31.34.267,HF_wild_card,2022.2.4,MacIntel,62.5,63ea52773c5861d1f32c4bdb,64d2fd46c836a06233681665,64dc7b45760b5ca29153d2e6,,,,,,,decisionTrl,resources/DP.BMP,resources/DR.BMP,Door4,-0.27,0.012222222,1,0,0,0.775,optionLeft,80,9515,5,8,0,8,0,1,,,,,,,,,,,,,,,,,,,,,,,,,,,,,,,,,,,,,,,
,,,,,,,,2023-08-16_08h31.34.267,HF_wild_card,2022.2.4,MacIntel,62.5,63ea52773c5861d1f32c4bdb,64d2fd46c836a06233681665,64dc7b45760b5ca29153d2e6,,,,,,,ctch,resources/DY.BMP,resources/DP.BMP,Door4,0.387777778,-0.037777778,1,0,0,0.659,optionRight,80,9595,5,9,0,9,0,1,,,,,,,,,,,,,,,,,,,,,,,,,,,,,,,,,,,,,,,
,,,,,,,,2023-08-16_08h31.34.267,HF_wild_card,2022.2.4,MacIntel,62.5,63ea52773c5861d1f32c4bdb,64d2fd46c836a06233681665,64dc7b45760b5ca29153d2e6,,,,,,,decisionTrl,resources/DR.BMP,resources/DP.BMP,Door4,0.405555556,-0.071111111,1,0,0,0.493,optionRight,60,9655,5,10,0,10,0,1,,,,,,,,,,,,,,,,,,,,,,,,,,,,,,,,,,,,,,,
,,,,,,,,2023-08-16_08h31.34.267,HF_wild_card,2022.2.4,MacIntel,62.5,63ea52773c5861d1f32c4bdb,64d2fd46c836a06233681665,64dc7b45760b5ca29153d2e6,,,,,,,decisionTrl,resources/DP.BMP,resources/DR.BMP,Door4,-0.362222222,0.007777778,1,0,0,0.776,optionLeft,60,9715,5,11,0,11,0,1,,,,,,,,,,,,,,,,,,,,,,,,,,,,,,,,,,,,,,,
,,,,,,,,2023-08-16_08h31.34.267,HF_wild_card,2022.2.4,MacIntel,62.5,63ea52773c5861d1f32c4bdb,64d2fd46c836a06233681665,64dc7b45760b5ca29153d2e6,,,,,,,ctch,resources/DR.BMP,resources/DG.BMP,Door3,-0.291111111,0.016666667,1,0,0,1.008,optionLeft,70,9785,5,12,0,12,0,1,,,,,,,,,,,,,,,,,,,,,,,,,,,,,,,,,,,,,,,
,,,,,,,,2023-08-16_08h31.34.267,HF_wild_card,2022.2.4,MacIntel,62.5,63ea52773c5861d1f32c4bdb,64d2fd46c836a06233681665,64dc7b45760b5ca29153d2e6,,,,,,,decisionTrl,resources/DG.BMP,resources/DY.BMP,Door1,0.338888889,-0.066666667,1,0,0,1.891,optionRight,30,9815,5,13,0,13,0,1,,,,,,,,,,,,,,,,,,,,,,,,,,,,,,,,,,,,,,,
,,,,,,,,2023-08-16_08h31.34.267,HF_wild_card,2022.2.4,MacIntel,62.5,63ea52773c5861d1f32c4bdb,64d2fd46c836a06233681665,64dc7b45760b5ca29153d2e6,,,,,,,ctch,resources/DR.BMP,resources/DG.BMP,Door3,-0.366666667,-0.002222222,1,0,0,1.151,optionLeft,70,9885,5,14,0,14,0,1,,,,,,,,,,,,,,,,,,,,,,,,,,,,,,,,,,,,,,,
,,,,,,,,2023-08-16_08h31.34.267,HF_wild_card,2022.2.4,MacIntel,62.5,63ea52773c5861d1f32c4bdb,64d2fd46c836a06233681665,64dc7b45760b5ca29153d2e6,,,,,,,decisionTrl,resources/DR.BMP,resources/DBN.BMP,Door3,-0.357777778,0.007777778,1,0,0,1.202,optionLeft,70,9955,5,15,0,15,0,1,,,,,,,,,,,,,,,,,,,,,,,,,,,,,,,,,,,,,,,
,,,,,,,,2023-08-16_08h31.34.267,HF_wild_card,2022.2.4,MacIntel,62.5,63ea52773c5861d1f32c4bdb,64d2fd46c836a06233681665,64dc7b45760b5ca29153d2e6,,,,,,,decisionTrl,resources/DP.BMP,resources/DBN.BMP,Door4,-0.398888889,0,1,0,0,1.136,optionLeft,80,10035,5,16,0,16,0,1,,,,,,,,,,,,,,,,,,,,,,,,,,,,,,,,,,,,,,,
,,,,,,,,2023-08-16_08h31.34.267,HF_wild_card,2022.2.4,MacIntel,62.5,63ea52773c5861d1f32c4bdb,64d2fd46c836a06233681665,64dc7b45760b5ca29153d2e6,,,,,,,decisionTrl,resources/DBN.BMP,resources/DG.BMP,WildCard_Ex,-0.353333333,0.036666667,1,0,0,1.187,optionLeft,45,10080,5,17,0,17,0,1,,,,,,,,,,,,,,,,,,,,,,,,,,,,,,,,,,,,,,,
,,,,,,,,2023-08-16_08h31.34.267,HF_wild_card,2022.2.4,MacIntel,62.5,63ea52773c5861d1f32c4bdb,64d2fd46c836a06233681665,64dc7b45760b5ca29153d2e6,,,,,,,sngl,resources/DR.BMP,resources/Empty.png,Door3,-0.396666667,0.003333333,1,0,0,0.636,optionLeft,70,10150,5,18,0,18,0,1,,,,,,,,,,,,,,,,,,,,,,,,,,,,,,,,,,,,,,,
,,,,,,,,2023-08-16_08h31.34.267,HF_wild_card,2022.2.4,MacIntel,62.5,63ea52773c5861d1f32c4bdb,64d2fd46c836a06233681665,64dc7b45760b5ca29153d2e6,,,,,,,sngl,resources/Empty.png,resources/DG.BMP,Door2,0.375555556,0.011111111,1,0,0,0.569,optionRight,20,10170,5,19,0,19,0,1,,,,,,,,,,,,,,,,,,,,,,,,,,,,,,,,,,,,,,,
,,,,,,,,2023-08-16_08h31.34.267,HF_wild_card,2022.2.4,MacIntel,62.5,63ea52773c5861d1f32c4bdb,64d2fd46c836a06233681665,64dc7b45760b5ca29153d2e6,,,,,,,ctch,resources/DY.BMP,resources/DP.BMP,Door4,0.404444444,-0.042222222,1,0,0,0.99,optionRight,80,10250,5,20,0,20,0,1,,,,,,,,,,,,,,,,,,,,,,,,,,,,,,,,,,,,,,,
,,,,,,,,2023-08-16_08h31.34.267,HF_wild_card,2022.2.4,MacIntel,62.5,63ea52773c5861d1f32c4bdb,64d2fd46c836a06233681665,64dc7b45760b5ca29153d2e6,,,,,,,sngl,resources/DBN.BMP,resources/Empty.png,WildCard_Ex,-0.33,0.006666667,1,0,0,0.575,optionLeft,45,10295,5,21,0,21,0,1,,,,,,,,,,,,,,,,,,,,,,,,,,,,,,,,,,,,,,,
,,,,,,,,2023-08-16_08h31.34.267,HF_wild_card,2022.2.4,MacIntel,62.5,63ea52773c5861d1f32c4bdb,64d2fd46c836a06233681665,64dc7b45760b5ca29153d2e6,,,,,,,decisionTrl,resources/DR.BMP,resources/DP.BMP,Door4,0.468888889,-0.011111111,1,0,0,0.558,optionRight,80,10375,5,22,0,22,0,1,,,,,,,,,,,,,,,,,,,,,,,,,,,,,,,,,,,,,,,
,,,,,,,,2023-08-16_08h31.34.267,HF_wild_card,2022.2.4,MacIntel,62.5,63ea52773c5861d1f32c4bdb,64d2fd46c836a06233681665,64dc7b45760b5ca29153d2e6,,,,,,,sngl,resources/Empty.png,resources/DBN.BMP,WildCard_Ex,0.288888889,-0.022222222,1,0,0,0.725,optionRight,55,10430,5,23,0,23,0,1,,,,,,,,,,,,,,,,,,,,,,,,,,,,,,,,,,,,,,,
,,,,,,,,2023-08-16_08h31.34.267,HF_wild_card,2022.2.4,MacIntel,62.5,63ea52773c5861d1f32c4bdb,64d2fd46c836a06233681665,64dc7b45760b5ca29153d2e6,,,,,,,ctch,resources/DP.BMP,resources/DY.BMP,Door4,-0.395555556,-0.024444444,1,0,0,2.487,optionLeft,80,10510,5,24,0,24,0,1,,,,,,,,,,,,,,,,,,,,,,,,,,,,,,,,,,,,,,,
,,,,,,,,2023-08-16_08h31.34.267,HF_wild_card,2022.2.4,MacIntel,62.5,63ea52773c5861d1f32c4bdb,64d2fd46c836a06233681665,64dc7b45760b5ca29153d2e6,,,,,,,decisionTrl,resources/DY.BMP,resources/DG.BMP,Door1,-0.326666667,0.02,1,0,0,1.221,optionLeft,30,10540,5,25,0,25,0,1,,,,,,,,,,,,,,,,,,,,,,,,,,,,,,,,,,,,,,,
,,,,,,,,2023-08-16_08h31.34.267,HF_wild_card,2022.2.4,MacIntel,62.5,63ea52773c5861d1f32c4bdb,64d2fd46c836a06233681665,64dc7b45760b5ca29153d2e6,,,,,,,sngl,resources/Empty.png,resources/DY.BMP,Door1,0.302222222,-0.007777778,1,0,0,0.611,optionRight,30,10570,5,26,0,26,0,1,,,,,,,,,,,,,,,,,,,,,,,,,,,,,,,,,,,,,,,
,,,,,,,,2023-08-16_08h31.34.267,HF_wild_card,2022.2.4,MacIntel,62.5,63ea52773c5861d1f32c4bdb,64d2fd46c836a06233681665,64dc7b45760b5ca29153d2e6,,,,,,,decisionTrl,resources/DG.BMP,resources/DY.BMP,Door2,-0.335555556,-0.025555556,1,0,0,0.651,optionLeft,20,10590,5,27,0,27,0,1,,,,,,,,,,,,,,,,,,,,,,,,,,,,,,,,,,,,,,,
,,,,,,,,2023-08-16_08h31.34.267,HF_wild_card,2022.2.4,MacIntel,62.5,63ea52773c5861d1f32c4bdb,64d2fd46c836a06233681665,64dc7b45760b5ca29153d2e6,,,,,,,sngl,resources/Empty.png,resources/DP.BMP,Door4,0.455555556,-0.035555556,1,0,0,0.553,optionRight,60,10650,5,28,0,28,0,1,,,,,,,,,,,,,,,,,,,,,,,,,,,,,,,,,,,,,,,
,,,,,,,,2023-08-16_08h31.34.267,HF_wild_card,2022.2.4,MacIntel,62.5,63ea52773c5861d1f32c4bdb,64d2fd46c836a06233681665,64dc7b45760b5ca29153d2e6,,,,,,,decisionTrl,resources/DP.BMP,resources/DR.BMP,Door4,-0.388888889,-0.031111111,1,0,0,1.009,optionLeft,60,10710,5,29,0,29,0,1,,,,,,,,,,,,,,,,,,,,,,,,,,,,,,,,,,,,,,,
,,,,,,,,2023-08-16_08h31.34.267,HF_wild_card,2022.2.4,MacIntel,62.5,63ea52773c5861d1f32c4bdb,64d2fd46c836a06233681665,64dc7b45760b5ca29153d2e6,,,,,,,decisionTrl,resources/DG.BMP,resources/DY.BMP,Door1,0.316666667,0.085555556,1,0,0,1.626,optionRight,30,10740,5,30,0,30,0,1,,,,,,,,,,,,,,,,,,,,,,,,,,,,,,,,,,,,,,,
,,,,,,,,2023-08-16_08h31.34.267,HF_wild_card,2022.2.4,MacIntel,62.5,63ea52773c5861d1f32c4bdb,64d2fd46c836a06233681665,64dc7b45760b5ca29153d2e6,,,,,,,decisionTrl,resources/DY.BMP,resources/DG.BMP,Door1,-0.418888889,0.068888889,1,0,0,0.658,optionLeft,30,10770,5,31,0,31,0,1,,,,,,,,,,,,,,,,,,,,,,,,,,,,,,,,,,,,,,,
,,,,,,,,2023-08-16_08h31.34.267,HF_wild_card,2022.2.4,MacIntel,62.5,63ea52773c5861d1f32c4bdb,64d2fd46c836a06233681665,64dc7b45760b5ca29153d2e6,,,,,,,decisionTrl,resources/DY.BMP,resources/DBN.BMP,WildCard_Ex,0.47,0.075555556,1,0,0,0.825,optionRight,45,10815,5,32,0,32,0,1,,,,,,,,,,,,,,,,,,,,,,,,,,,,,,,,,,,,,,,
,,,,,,,,2023-08-16_08h31.34.267,HF_wild_card,2022.2.4,MacIntel,62.5,63ea52773c5861d1f32c4bdb,64d2fd46c836a06233681665,64dc7b45760b5ca29153d2e6,,,,,,,sngl,resources/DY.BMP,resources/Empty.png,Door1,-0.291111111,0.025555556,1,0,0,0.543,optionLeft,30,10845,5,33,0,33,0,1,,,,,,,,,,,,,,,,,,,,,,,,,,,,,,,,,,,,,,,
,,,,,,,,2023-08-16_08h31.34.267,HF_wild_card,2022.2.4,MacIntel,62.5,63ea52773c5861d1f32c4bdb,64d2fd46c836a06233681665,64dc7b45760b5ca29153d2e6,,,,,,,decisionTrl,resources/DG.BMP,resources/DBN.BMP,WildCard_Ex,0.372222222,-0.015555556,1,0,0,1.672,optionRight,45,10890,5,34,0,34,0,1,,,,,,,,,,,,,,,,,,,,,,,,,,,,,,,,,,,,,,,
,,,,,,,,2023-08-16_08h31.34.267,HF_wild_card,2022.2.4,MacIntel,62.5,63ea52773c5861d1f32c4bdb,64d2fd46c836a06233681665,64dc7b45760b5ca29153d2e6,,,,,,,ctch,resources/DG.BMP,resources/DR.BMP,Door3,0.357777778,-0.016666667,1,0,0,1.042,optionRight,70,10960,5,35,0,35,0,1,,,,,,,,,,,,,,,,,,,,,,,,,,,,,,,,,,,,,,,
,,,,,,,,2023-08-16_08h31.34.267,HF_wild_card,2022.2.4,MacIntel,62.5,63ea52773c5861d1f32c4bdb,64d2fd46c836a06233681665,64dc7b45760b5ca29153d2e6,,,,,,,sngl,resources/DG.BMP,resources/Empty.png,Door2,-0.372222222,0.05,1,0,0,1.055,optionLeft,40,11000,5,36,0,36,0,1,,,,,,,,,,,,,,,,,,,,,,,,,,,,,,,,,,,,,,,
,,,,,,,,2023-08-16_08h31.34.267,HF_wild_card,2022.2.4,MacIntel,62.5,63ea52773c5861d1f32c4bdb,64d2fd46c836a06233681665,64dc7b45760b5ca29153d2e6,,,,,,,ctch,resources/DP.BMP,resources/DY.BMP,Door4,-0.377777778,0.041111111,1,0,0,1.791,optionLeft,80,11080,5,37,0,37,0,1,,,,,,,,,,,,,,,,,,,,,,,,,,,,,,,,,,,,,,,
,,,,,,,,2023-08-16_08h31.34.267,HF_wild_card,2022.2.4,MacIntel,62.5,63ea52773c5861d1f32c4bdb,64d2fd46c836a06233681665,64dc7b45760b5ca29153d2e6,,,,,,,decisionTrl,resources/DP.BMP,resources/DR.BMP,Door4,-0.368888889,0.015555556,1,0,0,0.775,optionLeft,80,11160,5,38,0,38,0,1,,,,,,,,,,,,,,,,,,,,,,,,,,,,,,,,,,,,,,,
,,,,,,,,2023-08-16_08h31.34.267,HF_wild_card,2022.2.4,MacIntel,62.5,63ea52773c5861d1f32c4bdb,64d2fd46c836a06233681665,64dc7b45760b5ca29153d2e6,,,,,,,decisionTrl,resources/DBN.BMP,resources/DY.BMP,WildCard_Ex,-0.383333333,0.026666667,1,0,0,1.108,optionLeft,55,11215,5,39,0,39,0,1,,,,,,,,,,,,,,,,,,,,,,,,,,,,,,,,,,,,,,,
,,,,,,,,2023-08-16_08h31.34.267,HF_wild_card,2022.2.4,MacIntel,62.5,63ea52773c5861d1f32c4bdb,64d2fd46c836a06233681665,64dc7b45760b5ca29153d2e6,,,,,,,sngl,resources/Empty.png,resources/DBN.BMP,WildCard_Ex,0.374444444,0.031111111,1,0,0,0.576,optionRight,45,11260,5,40,0,40,0,1,,,,,,,,,,,,,,,,,,,,,,,,,,,,,,,,,,,,,,,
,,,,,,,,2023-08-16_08h31.34.267,HF_wild_card,2022.2.4,MacIntel,62.5,63ea52773c5861d1f32c4bdb,64d2fd46c836a06233681665,64dc7b45760b5ca29153d2e6,,,,,,,decisionTrl,resources/DBN.BMP,resources/DP.BMP,Door4,0.466666667,0.038888889,1,0,0,0.678,optionRight,60,11320,5,41,0,41,0,1,,,,,,,,,,,,,,,,,,,,,,,,,,,,,,,,,,,,,,,
,,,,,,,,2023-08-16_08h31.34.267,HF_wild_card,2022.2.4,MacIntel,62.5,63ea52773c5861d1f32c4bdb,64d2fd46c836a06233681665,64dc7b45760b5ca29153d2e6,,,,,,,ctch,resources/DG.BMP,resources/DR.BMP,Door3,0.363333333,-0.01,1,0,0,0.674,optionRight,70,11390,5,42,0,42,0,1,,,,,,,,,,,,,,,,,,,,,,,,,,,,,,,,,,,,,,,
,,,,,,,,2023-08-16_08h31.34.267,HF_wild_card,2022.2.4,MacIntel,62.5,63ea52773c5861d1f32c4bdb,64d2fd46c836a06233681665,64dc7b45760b5ca29153d2e6,,,,,,,decisionTrl,resources/DY.BMP,resources/DG.BMP,Door1,-0.375555556,0.146666667,1,0,0,1.641,optionLeft,30,11420,5,43,0,43,0,1,,,,,,,,,,,,,,,,,,,,,,,,,,,,,,,,,,,,,,,
,,,,,,,,2023-08-16_08h31.34.267,HF_wild_card,2022.2.4,MacIntel,62.5,63ea52773c5861d1f32c4bdb,64d2fd46c836a06233681665,64dc7b45760b5ca29153d2e6,,,,,,,,,,,,,,,,,,,,,,,,,,4,0,4,0,1,,,,,,,,,,,,,,,,,,,,,,,,,,,,,,,,,,
,,,,,,,,2023-08-16_08h31.34.267,HF_wild_card,2022.2.4,MacIntel,62.5,63ea52773c5861d1f32c4bdb,64d2fd46c836a06233681665,64dc7b45760b5ca29153d2e6,,,,,,,sngl,resources/DR.BMP,resources/Empty.png,Door3,-0.364444444,0.036666667,1,0,0,0.557,optionLeft,70,11490,6,0,0,0,0,1,,,,,,,,,,,,,,,,,,,,,,,,,,,,,,,,,,,,,,,
,,,,,,,,2023-08-16_08h31.34.267,HF_wild_card,2022.2.4,MacIntel,62.5,63ea52773c5861d1f32c4bdb,64d2fd46c836a06233681665,64dc7b45760b5ca29153d2e6,,,,,,,sngl,resources/Empty.png,resources/DG.BMP,Door2,0.426666667,0.055555556,1,0,0,0.509,optionRight,40,11530,6,1,0,1,0,1,,,,,,,,,,,,,,,,,,,,,,,,,,,,,,,,,,,,,,,
,,,,,,,,2023-08-16_08h31.34.267,HF_wild_card,2022.2.4,MacIntel,62.5,63ea52773c5861d1f32c4bdb,64d2fd46c836a06233681665,64dc7b45760b5ca29153d2e6,,,,,,,decisionTrl,resources/DG.BMP,resources/DY.BMP,Door1,0.313333333,0.052222222,1,0,0,1.209,optionRight,30,11560,6,2,0,2,0,1,,,,,,,,,,,,,,,,,,,,,,,,,,,,,,,,,,,,,,,
,,,,,,,,2023-08-16_08h31.34.267,HF_wild_card,2022.2.4,MacIntel,62.5,63ea52773c5861d1f32c4bdb,64d2fd46c836a06233681665,64dc7b45760b5ca29153d2e6,,,,,,,decisionTrl,resources/DR.BMP,resources/DP.BMP,Door4,0.407777778,0.001111111,1,0,0,1.308,optionRight,80,11640,6,3,0,3,0,1,,,,,,,,,,,,,,,,,,,,,,,,,,,,,,,,,,,,,,,
,,,,,,,,2023-08-16_08h31.34.267,HF_wild_card,2022.2.4,MacIntel,62.5,63ea52773c5861d1f32c4bdb,64d2fd46c836a06233681665,64dc7b45760b5ca29153d2e6,,,,,,,ctch,resources/DP.BMP,resources/DY.BMP,Door4,-0.376666667,0.028888889,1,0,0,1.425,optionLeft,60,11700,6,4,0,4,0,1,,,,,,,,,,,,,,,,,,,,,,,,,,,,,,,,,,,,,,,
,,,,,,,,2023-08-16_08h31.34.267,HF_wild_card,2022.2.4,MacIntel,62.5,63ea52773c5861d1f32c4bdb,64d2fd46c836a06233681665,64dc7b45760b5ca29153d2e6,,,,,,,decisionTrl,resources/DR.BMP,resources/DP.BMP,Door4,0.322222222,0.003333333,1,0,0,0.456,optionRight,80,11780,6,5,0,5,0,1,,,,,,,,,,,,,,,,,,,,,,,,,,,,,,,,,,,,,,,
,,,,,,,,2023-08-16_08h31.34.267,HF_wild_card,2022.2.4,MacIntel,62.5,63ea52773c5861d1f32c4bdb,64d2fd46c836a06233681665,64dc7b45760b5ca29153d2e6,,,,,,,sngl,resources/Empty.png,resources/DP.BMP,Door4,0.382222222,0.022222222,1,0,0,0.51,optionRight,80,11860,6,6,0,6,0,1,,,,,,,,,,,,,,,,,,,,,,,,,,,,,,,,,,,,,,,
,,,,,,,,2023-08-16_08h31.34.267,HF_wild_card,2022.2.4,MacIntel,62.5,63ea52773c5861d1f32c4bdb,64d2fd46c836a06233681665,64dc7b45760b5ca29153d2e6,,,,,,,ctch,resources/DG.BMP,resources/DR.BMP,Door3,0.353333333,0.014444444,1,0,0,1.193,optionRight,70,11930,6,7,0,7,0,1,,,,,,,,,,,,,,,,,,,,,,,,,,,,,,,,,,,,,,,
,,,,,,,,2023-08-16_08h31.34.267,HF_wild_card,2022.2.4,MacIntel,62.5,63ea52773c5861d1f32c4bdb,64d2fd46c836a06233681665,64dc7b45760b5ca29153d2e6,,,,,,,decisionTrl,resources/DG.BMP,resources/DY.BMP,Door1,0.38,0.011111111,1,0,0,1.189,optionRight,30,11960,6,8,0,8,0,1,,,,,,,,,,,,,,,,,,,,,,,,,,,,,,,,,,,,,,,
,,,,,,,,2023-08-16_08h31.34.267,HF_wild_card,2022.2.4,MacIntel,62.5,63ea52773c5861d1f32c4bdb,64d2fd46c836a06233681665,64dc7b45760b5ca29153d2e6,,,,,,,decisionTrl,resources/DP.BMP,resources/DR.BMP,Door4,-0.342222222,0.106666667,1,0,0,1.109,optionLeft,60,12020,6,9,0,9,0,1,,,,,,,,,,,,,,,,,,,,,,,,,,,,,,,,,,,,,,,
,,,,,,,,2023-08-16_08h31.34.267,HF_wild_card,2022.2.4,MacIntel,62.5,63ea52773c5861d1f32c4bdb,64d2fd46c836a06233681665,64dc7b45760b5ca29153d2e6,,,,,,,decisionTrl,resources/DY.BMP,resources/DG.BMP,Door1,-0.358888889,0.024444444,1,0,0,1.862,optionLeft,30,12050,6,10,0,10,0,1,,,,,,,,,,,,,,,,,,,,,,,,,,,,,,,,,,,,,,,
,,,,,,,,2023-08-16_08h31.34.267,HF_wild_card,2022.2.4,MacIntel,62.5,63ea52773c5861d1f32c4bdb,64d2fd46c836a06233681665,64dc7b45760b5ca29153d2e6,,,,,,,sngl,resources/Empty.png,resources/DBN.BMP,WildCard_Ex,0.448888889,0.058888889,1,0,0,0.975,optionRight,45,12095,6,11,0,11,0,1,,,,,,,,,,,,,,,,,,,,,,,,,,,,,,,,,,,,,,,
,,,,,,,,2023-08-16_08h31.34.267,HF_wild_card,2022.2.4,MacIntel,62.5,63ea52773c5861d1f32c4bdb,64d2fd46c836a06233681665,64dc7b45760b5ca29153d2e6,,,,,,,decisionTrl,resources/DBN.BMP,resources/DY.BMP,WildCard_Ex,-0.318888889,0.105555556,1,0,0,1.322,optionLeft,45,12140,6,12,0,12,0,1,,,,,,,,,,,,,,,,,,,,,,,,,,,,,,,,,,,,,,,
,,,,,,,,2023-08-16_08h31.34.267,HF_wild_card,2022.2.4,MacIntel,62.5,63ea52773c5861d1f32c4bdb,64d2fd46c836a06233681665,64dc7b45760b5ca29153d2e6,,,,,,,decisionTrl,resources/DY.BMP,resources/DG.BMP,Door1,-0.29,0.124444444,1,0,0,2.341,optionLeft,30,12170,6,13,0,13,0,1,,,,,,,,,,,,,,,,,,,,,,,,,,,,,,,,,,,,,,,
,,,,,,,,2023-08-16_08h31.34.267,HF_wild_card,2022.2.4,MacIntel,62.5,63ea52773c5861d1f32c4bdb,64d2fd46c836a06233681665,64dc7b45760b5ca29153d2e6,,,,,,,sngl,resources/DG.BMP,resources/Empty.png,Door2,-0.377777778,0.037777778,1,0,0,0.924,optionLeft,20,12190,6,14,0,14,0,1,,,,,,,,,,,,,,,,,,,,,,,,,,,,,,,,,,,,,,,
,,,,,,,,2023-08-16_08h31.34.267,HF_wild_card,2022.2.4,MacIntel,62.5,63ea52773c5861d1f32c4bdb,64d2fd46c836a06233681665,64dc7b45760b5ca29153d2e6,,,,,,,decisionTrl,resources/DBN.BMP,resources/DP.BMP,Door4,0.436666667,0.061111111,1,0,0,0.826,optionRight,60,12250,6,15,0,15,0,1,,,,,,,,,,,,,,,,,,,,,,,,,,,,,,,,,,,,,,,
,,,,,,,,2023-08-16_08h31.34.267,HF_wild_card,2022.2.4,MacIntel,62.5,63ea52773c5861d1f32c4bdb,64d2fd46c836a06233681665,64dc7b45760b5ca29153d2e6,,,,,,,sngl,resources/Empty.png,resources/DBN.BMP,WildCard_Ex,0.354444444,-0.02,1,0,0,0.641,optionRight,55,12305,6,16,0,16,0,1,,,,,,,,,,,,,,,,,,,,,,,,,,,,,,,,,,,,,,,
,,,,,,,,2023-08-16_08h31.34.267,HF_wild_card,2022.2.4,MacIntel,62.5,63ea52773c5861d1f32c4bdb,64d2fd46c836a06233681665,64dc7b45760b5ca29153d2e6,,,,,,,decisionTrl,resources/DG.BMP,resources/DY.BMP,Door1,0.386666667,-0.041111111,1,0,0,0.787,optionRight,30,12335,6,17,0,17,0,1,,,,,,,,,,,,,,,,,,,,,,,,,,,,,,,,,,,,,,,
,,,,,,,,2023-08-16_08h31.34.267,HF_wild_card,2022.2.4,MacIntel,62.5,63ea52773c5861d1f32c4bdb,64d2fd46c836a06233681665,64dc7b45760b5ca29153d2e6,,,,,,,ctch,resources/DY.BMP,resources/DP.BMP,Door4,0.373333333,0.004444444,1,0,0,0.537,optionRight,80,12415,6,18,0,18,0,1,,,,,,,,,,,,,,,,,,,,,,,,,,,,,,,,,,,,,,,
,,,,,,,,2023-08-16_08h31.34.267,HF_wild_card,2022.2.4,MacIntel,62.5,63ea52773c5861d1f32c4bdb,64d2fd46c836a06233681665,64dc7b45760b5ca29153d2e6,,,,,,,decisionTrl,resources/DG.BMP,resources/DBN.BMP,WildCard_Ex,0.495555556,0.008888889,1,0,0,0.872,optionRight,45,12460,6,19,0,19,0,1,,,,,,,,,,,,,,,,,,,,,,,,,,,,,,,,,,,,,,,
,,,,,,,,2023-08-16_08h31.34.267,HF_wild_card,2022.2.4,MacIntel,62.5,63ea52773c5861d1f32c4bdb,64d2fd46c836a06233681665,64dc7b45760b5ca29153d2e6,,,,,,,sngl,resources/Empty.png,resources/DR.BMP,Door3,0.35,0.05,1,0,1,1.281,optionRight,70,12530,6,20,0,20,0,1,,,,,,,,,,,,,,,,,,,,,,,,,,,,,,,,,,,,,,,
,,,,,,,,2023-08-16_08h31.34.267,HF_wild_card,2022.2.4,MacIntel,62.5,63ea52773c5861d1f32c4bdb,64d2fd46c836a06233681665,64dc7b45760b5ca29153d2e6,,,,,,,decisionTrl,resources/DBN.BMP,resources/DG.BMP,Door2,0.011111111,-0.007777778,0,0,1,0.161,optionRight,40,12570,6,21,0,21,0,1,,,,,,,,,,,,,,,,,,,,,,,,,,,,,,,,,,,,,,,
,,,,,,,,2023-08-16_08h31.34.267,HF_wild_card,2022.2.4,MacIntel,62.5,63ea52773c5861d1f32c4bdb,64d2fd46c836a06233681665,64dc7b45760b5ca29153d2e6,,,,,,,decisionTrl,resources/DY.BMP,resources/DG.BMP,Door2,0,-0.012222222,0,0,1,0.076,optionRight,40,12610,6,22,0,22,0,1,,,,,,,,,,,,,,,,,,,,,,,,,,,,,,,,,,,,,,,
,,,,,,,,2023-08-16_08h31.34.267,HF_wild_card,2022.2.4,MacIntel,62.5,63ea52773c5861d1f32c4bdb,64d2fd46c836a06233681665,64dc7b45760b5ca29153d2e6,,,,,,,ctch,resources/DG.BMP,resources/DR.BMP,Door3,0.011111111,0.018888889,0,0,1,0.092,optionRight,70,12680,6,23,0,23,0,1,,,,,,,,,,,,,,,,,,,,,,,,,,,,,,,,,,,,,,,
,,,,,,,,2023-08-16_08h31.34.267,HF_wild_card,2022.2.4,MacIntel,62.5,63ea52773c5861d1f32c4bdb,64d2fd46c836a06233681665,64dc7b45760b5ca29153d2e6,,,,,,,decisionTrl,resources/DP.BMP,resources/DR.BMP,Door3,-0.014444444,0.002222222,0,0,1,0.076,optionRight,70,12750,6,24,0,24,0,1,,,,,,,,,,,,,,,,,,,,,,,,,,,,,,,,,,,,,,,
,,,,,,,,2023-08-16_08h31.34.267,HF_wild_card,2022.2.4,MacIntel,62.5,63ea52773c5861d1f32c4bdb,64d2fd46c836a06233681665,64dc7b45760b5ca29153d2e6,,,,,,,decisionTrl,resources/DY.BMP,resources/DBN.BMP,WildCard_Ex,0.002222222,0.014444444,0,0,1,0.109,optionRight,45,12795,6,25,0,25,0,1,,,,,,,,,,,,,,,,,,,,,,,,,,,,,,,,,,,,,,,
,,,,,,,,2023-08-16_08h31.34.267,HF_wild_card,2022.2.4,MacIntel,62.5,63ea52773c5861d1f32c4bdb,64d2fd46c836a06233681665,64dc7b45760b5ca29153d2e6,,,,,,,ctch,resources/DR.BMP,resources/DG.BMP,Door2,0.411111111,0.011111111,1,0,1,0.41,optionRight,20,12815,6,26,0,26,0,1,,,,,,,,,,,,,,,,,,,,,,,,,,,,,,,,,,,,,,,
,,,,,,,,2023-08-16_08h31.34.267,HF_wild_card,2022.2.4,MacIntel,62.5,63ea52773c5861d1f32c4bdb,64d2fd46c836a06233681665,64dc7b45760b5ca29153d2e6,,,,,,,ctch,resources/DP.BMP,resources/DY.BMP,Door4,-0.006666667,0.013333333,0,0,1,0.076,optionLeft,60,12875,6,27,0,27,0,1,,,,,,,,,,,,,,,,,,,,,,,,,,,,,,,,,,,,,,,
,,,,,,,,2023-08-16_08h31.34.267,HF_wild_card,2022.2.4,MacIntel,62.5,63ea52773c5861d1f32c4bdb,64d2fd46c836a06233681665,64dc7b45760b5ca29153d2e6,,,,,,,decisionTrl,resources/DBN.BMP,resources/DR.BMP,Door3,0.008888889,0.005555556,0,0,1,0.111,optionRight,70,12945,6,28,0,28,0,1,,,,,,,,,,,,,,,,,,,,,,,,,,,,,,,,,,,,,,,
,,,,,,,,2023-08-16_08h31.34.267,HF_wild_card,2022.2.4,MacIntel,62.5,63ea52773c5861d1f32c4bdb,64d2fd46c836a06233681665,64dc7b45760b5ca29153d2e6,,,,,,,decisionTrl,resources/DY.BMP,resources/DG.BMP,Door2,0.002222222,-0.004444444,0,0,1,0.045,optionRight,40,12985,6,29,0,29,0,1,,,,,,,,,,,,,,,,,,,,,,,,,,,,,,,,,,,,,,,
,,,,,,,,2023-08-16_08h31.34.267,HF_wild_card,2022.2.4,MacIntel,62.5,63ea52773c5861d1f32c4bdb,64d2fd46c836a06233681665,64dc7b45760b5ca29153d2e6,,,,,,,decisionTrl,resources/DG.BMP,resources/DY.BMP,Door1,0.006666667,0.006666667,0,0,1,0.095,optionRight,30,13015,6,30,0,30,0,1,,,,,,,,,,,,,,,,,,,,,,,,,,,,,,,,,,,,,,,
,,,,,,,,2023-08-16_08h31.34.267,HF_wild_card,2022.2.4,MacIntel,62.5,63ea52773c5861d1f32c4bdb,64d2fd46c836a06233681665,64dc7b45760b5ca29153d2e6,,,,,,,sngl,resources/DP.BMP,resources/Empty.png,Door4,-0.008888889,0.002222222,0,0,1,0.093,optionLeft,60,13075,6,31,0,31,0,1,,,,,,,,,,,,,,,,,,,,,,,,,,,,,,,,,,,,,,,
,,,,,,,,2023-08-16_08h31.34.267,HF_wild_card,2022.2.4,MacIntel,62.5,63ea52773c5861d1f32c4bdb,64d2fd46c836a06233681665,64dc7b45760b5ca29153d2e6,,,,,,,decisionTrl,resources/DR.BMP,resources/DP.BMP,Door4,0.005555556,-0.011111111,0,0,1,0.128,optionRight,60,13135,6,32,0,32,0,1,,,,,,,,,,,,,,,,,,,,,,,,,,,,,,,,,,,,,,,
,,,,,,,,2023-08-16_08h31.34.267,HF_wild_card,2022.2.4,MacIntel,62.5,63ea52773c5861d1f32c4bdb,64d2fd46c836a06233681665,64dc7b45760b5ca29153d2e6,,,,,,,decisionTrl,resources/DP.BMP,resources/DBN.BMP,WildCard_Ex,0,-0.004444444,0,0,1,0.093,optionRight,45,13180,6,33,0,33,0,1,,,,,,,,,,,,,,,,,,,,,,,,,,,,,,,,,,,,,,,
,,,,,,,,2023-08-16_08h31.34.267,HF_wild_card,2022.2.4,MacIntel,62.5,63ea52773c5861d1f32c4bdb,64d2fd46c836a06233681665,64dc7b45760b5ca29153d2e6,,,,,,,decisionTrl,resources/DP.BMP,resources/DR.BMP,Door4,-0.015555556,-0.001111111,0,0,1,0.093,optionLeft,60,13240,6,34,0,34,0,1,,,,,,,,,,,,,,,,,,,,,,,,,,,,,,,,,,,,,,,
,,,,,,,,2023-08-16_08h31.34.267,HF_wild_card,2022.2.4,MacIntel,62.5,63ea52773c5861d1f32c4bdb,64d2fd46c836a06233681665,64dc7b45760b5ca29153d2e6,,,,,,,decisionTrl,resources/DR.BMP,resources/DBN.BMP,Door3,-0.004444444,-0.005555556,0,0,1,0.076,optionLeft,70,13310,6,35,0,35,0,1,,,,,,,,,,,,,,,,,,,,,,,,,,,,,,,,,,,,,,,
,,,,,,,,2023-08-16_08h31.34.267,HF_wild_card,2022.2.4,MacIntel,62.5,63ea52773c5861d1f32c4bdb,64d2fd46c836a06233681665,64dc7b45760b5ca29153d2e6,,,,,,,sngl,resources/DBN.BMP,resources/Empty.png,WildCard_Ex,-0.008888889,-0.004444444,0,0,1,0.077,optionLeft,45,13355,6,36,0,36,0,1,,,,,,,,,,,,,,,,,,,,,,,,,,,,,,,,,,,,,,,
,,,,,,,,2023-08-16_08h31.34.267,HF_wild_card,2022.2.4,MacIntel,62.5,63ea52773c5861d1f32c4bdb,64d2fd46c836a06233681665,64dc7b45760b5ca29153d2e6,,,,,,,sngl,resources/DY.BMP,resources/Empty.png,Door1,0.016666667,-0.011111111,0,0,1,0.129,optionLeft,30,13385,6,37,0,37,0,1,,,,,,,,,,,,,,,,,,,,,,,,,,,,,,,,,,,,,,,
,,,,,,,,2023-08-16_08h31.34.267,HF_wild_card,2022.2.4,MacIntel,62.5,63ea52773c5861d1f32c4bdb,64d2fd46c836a06233681665,64dc7b45760b5ca29153d2e6,,,,,,,sngl,resources/DBN.BMP,resources/Empty.png,WildCard_Ex,-0.003333333,-0.008888889,0,0,1,0.095,optionLeft,55,13440,6,38,0,38,0,1,,,,,,,,,,,,,,,,,,,,,,,,,,,,,,,,,,,,,,,
,,,,,,,,2023-08-16_08h31.34.267,HF_wild_card,2022.2.4,MacIntel,62.5,63ea52773c5861d1f32c4bdb,64d2fd46c836a06233681665,64dc7b45760b5ca29153d2e6,,,,,,,sngl,resources/Empty.png,resources/DY.BMP,Door1,-0.004444444,0.004444444,0,0,1,0.08,optionRight,30,13470,6,39,0,39,0,1,,,,,,,,,,,,,,,,,,,,,,,,,,,,,,,,,,,,,,,
,,,,,,,,2023-08-16_08h31.34.267,HF_wild_card,2022.2.4,MacIntel,62.5,63ea52773c5861d1f32c4bdb,64d2fd46c836a06233681665,64dc7b45760b5ca29153d2e6,,,,,,,ctch,resources/DY.BMP,resources/DP.BMP,Door4,-0.021111111,-0.001111111,0,0,1,0.062,optionRight,60,13530,6,40,0,40,0,1,,,,,,,,,,,,,,,,,,,,,,,,,,,,,,,,,,,,,,,
,,,,,,,,2023-08-16_08h31.34.267,HF_wild_card,2022.2.4,MacIntel,62.5,63ea52773c5861d1f32c4bdb,64d2fd46c836a06233681665,64dc7b45760b5ca29153d2e6,,,,,,,decisionTrl,resources/DP.BMP,resources/DR.BMP,Door3,0.014444444,-0.004444444,0,0,1,0.078,optionRight,70,13600,6,41,0,41,0,1,,,,,,,,,,,,,,,,,,,,,,,,,,,,,,,,,,,,,,,
,,,,,,,,2023-08-16_08h31.34.267,HF_wild_card,2022.2.4,MacIntel,62.5,63ea52773c5861d1f32c4bdb,64d2fd46c836a06233681665,64dc7b45760b5ca29153d2e6,,,,,,,ctch,resources/DR.BMP,resources/DG.BMP,Door2,0.001111111,-0.016666667,0,0,1,0.111,optionRight,20,13620,6,42,0,42,0,1,,,,,,,,,,,,,,,,,,,,,,,,,,,,,,,,,,,,,,,
,,,,,,,,2023-08-16_08h31.34.267,HF_wild_card,2022.2.4,MacIntel,62.5,63ea52773c5861d1f32c4bdb,64d2fd46c836a06233681665,64dc7b45760b5ca29153d2e6,,,,,,,decisionTrl,resources/DR.BMP,resources/DP.BMP,Door4,-0.004444444,0.006666667,0,0,1,0.062,optionRight,80,13700,6,43,0,43,0,1,,,,,,,,,,,,,,,,,,,,,,,,,,,,,,,,,,,,,,,
,,,,,,,,2023-08-16_08h31.34.267,HF_wild_card,2022.2.4,MacIntel,62.5,63ea52773c5861d1f32c4bdb,64d2fd46c836a06233681665,64dc7b45760b5ca29153d2e6,,,,,,,,,,,,,,,,,,,,,,,,,,5,0,5,0,1,,,,,,,,,,,,,,,,,,,,,,,,,,,,,,,,,,
,,,,,,,,2023-08-16_08h31.34.267,HF_wild_card,2022.2.4,MacIntel,62.5,63ea52773c5861d1f32c4bdb,64d2fd46c836a06233681665,64dc7b45760b5ca29153d2e6,,,,,,,ctch,resources/DR.BMP,resources/DG.BMP,Door3,-0.377777778,0.012222222,1,0,1,1.06,optionLeft,70,13770,7,0,0,0,0,1,,,,,,,,,,,,,,,,,,,,,,,,,,,,,,,,,,,,,,,
,,,,,,,,2023-08-16_08h31.34.267,HF_wild_card,2022.2.4,MacIntel,62.5,63ea52773c5861d1f32c4bdb,64d2fd46c836a06233681665,64dc7b45760b5ca29153d2e6,,,,,,,decisionTrl,resources/DP.BMP,resources/DR.BMP,Door4,-0.006666667,-0.003333333,0,0,1,0.065,optionLeft,60,13830,7,1,0,1,0,1,,,,,,,,,,,,,,,,,,,,,,,,,,,,,,,,,,,,,,,
,,,,,,,,2023-08-16_08h31.34.267,HF_wild_card,2022.2.4,MacIntel,62.5,63ea52773c5861d1f32c4bdb,64d2fd46c836a06233681665,64dc7b45760b5ca29153d2e6,,,,,,,decisionTrl,resources/DY.BMP,resources/DG.BMP,Door1,0.017777778,0.005555556,0,0,1,0.099,optionLeft,30,13860,7,2,0,2,0,1,,,,,,,,,,,,,,,,,,,,,,,,,,,,,,,,,,,,,,,
,,,,,,,,2023-08-16_08h31.34.267,HF_wild_card,2022.2.4,MacIntel,62.5,63ea52773c5861d1f32c4bdb,64d2fd46c836a06233681665,64dc7b45760b5ca29153d2e6,,,,,,,decisionTrl,resources/DP.BMP,resources/DR.BMP,Door4,0.005555556,0,0,0,1,0.08,optionLeft,60,13920,7,3,0,3,0,1,,,,,,,,,,,,,,,,,,,,,,,,,,,,,,,,,,,,,,,
,,,,,,,,2023-08-16_08h31.34.267,HF_wild_card,2022.2.4,MacIntel,62.5,63ea52773c5861d1f32c4bdb,64d2fd46c836a06233681665,64dc7b45760b5ca29153d2e6,,,,,,,ctch,resources/DP.BMP,resources/DY.BMP,Door4,-0.007777778,-0.002222222,0,0,1,0.065,optionLeft,60,13980,7,4,0,4,0,1,,,,,,,,,,,,,,,,,,,,,,,,,,,,,,,,,,,,,,,
,,,,,,,,2023-08-16_08h31.34.267,HF_wild_card,2022.2.4,MacIntel,62.5,63ea52773c5861d1f32c4bdb,64d2fd46c836a06233681665,64dc7b45760b5ca29153d2e6,,,,,,,decisionTrl,resources/DP.BMP,resources/DR.BMP,Door4,-0.007777778,0.011111111,0,0,1,0.115,optionLeft,80,14060,7,5,0,5,0,1,,,,,,,,,,,,,,,,,,,,,,,,,,,,,,,,,,,,,,,
,,,,,,,,2023-08-16_08h31.34.267,HF_wild_card,2022.2.4,MacIntel,62.5,63ea52773c5861d1f32c4bdb,64d2fd46c836a06233681665,64dc7b45760b5ca29153d2e6,,,,,,,decisionTrl,resources/DR.BMP,resources/DP.BMP,Door4,-0.011111111,-0.008888889,0,0,1,0.131,optionRight,80,14140,7,6,0,6,0,1,,,,,,,,,,,,,,,,,,,,,,,,,,,,,,,,,,,,,,,
,,,,,,,,2023-08-16_08h31.34.267,HF_wild_card,2022.2.4,MacIntel,62.5,63ea52773c5861d1f32c4bdb,64d2fd46c836a06233681665,64dc7b45760b5ca29153d2e6,,,,,,,decisionTrl,resources/DY.BMP,resources/DG.BMP,Door1,-0.006666667,-0.007777778,0,0,1,0.116,optionLeft,30,14170,7,7,0,7,0,1,,,,,,,,,,,,,,,,,,,,,,,,,,,,,,,,,,,,,,,
,,,,,,,,2023-08-16_08h31.34.267,HF_wild_card,2022.2.4,MacIntel,62.5,63ea52773c5861d1f32c4bdb,64d2fd46c836a06233681665,64dc7b45760b5ca29153d2e6,,,,,,,decisionTrl,resources/DR.BMP,resources/DP.BMP,Door4,-0.014444444,-0.001111111,0,0,1,0.081,optionRight,60,14230,7,8,0,8,0,1,,,,,,,,,,,,,,,,,,,,,,,,,,,,,,,,,,,,,,,
,,,,,,,,2023-08-16_08h31.34.267,HF_wild_card,2022.2.4,MacIntel,62.5,63ea52773c5861d1f32c4bdb,64d2fd46c836a06233681665,64dc7b45760b5ca29153d2e6,,,,,,,decisionTrl,resources/DR.BMP,resources/DP.BMP,Door4,-0.007777778,-0.006666667,0,0,1,0.066,optionRight,60,14290,7,9,0,9,0,1,,,,,,,,,,,,,,,,,,,,,,,,,,,,,,,,,,,,,,,
,,,,,,,,2023-08-16_08h31.34.267,HF_wild_card,2022.2.4,MacIntel,62.5,63ea52773c5861d1f32c4bdb,64d2fd46c836a06233681665,64dc7b45760b5ca29153d2e6,,,,,,,decisionTrl,resources/DY.BMP,resources/DG.BMP,Door1,-0.014444444,0.005555556,0,0,1,0.098,optionLeft,30,14320,7,10,0,10,0,1,,,,,,,,,,,,,,,,,,,,,,,,,,,,,,,,,,,,,,,
,,,,,,,,2023-08-16_08h31.34.267,HF_wild_card,2022.2.4,MacIntel,62.5,63ea52773c5861d1f32c4bdb,64d2fd46c836a06233681665,64dc7b45760b5ca29153d2e6,,,,,,,decisionTrl,resources/DY.BMP,resources/DG.BMP,Door1,0.008888889,-0.012222222,0,0,1,0.117,optionLeft,30,14350,7,11,0,11,0,1,,,,,,,,,,,,,,,,,,,,,,,,,,,,,,,,,,,,,,,
,,,,,,,,2023-08-16_08h31.34.267,HF_wild_card,2022.2.4,MacIntel,62.5,63ea52773c5861d1f32c4bdb,64d2fd46c836a06233681665,64dc7b45760b5ca29153d2e6,,,,,,,decisionTrl,resources/DP.BMP,resources/DR.BMP,Door4,0.004444444,0.008888889,0,0,1,0.099,optionLeft,80,14430,7,12,0,12,0,1,,,,,,,,,,,,,,,,,,,,,,,,,,,,,,,,,,,,,,,
,,,,,,,,2023-08-16_08h31.34.267,HF_wild_card,2022.2.4,MacIntel,62.5,63ea52773c5861d1f32c4bdb,64d2fd46c836a06233681665,64dc7b45760b5ca29153d2e6,,,,,,,ctch,resources/DY.BMP,resources/DP.BMP,Door4,-0.021111111,0.008888889,0,0,1,0.099,optionRight,80,14510,7,13,0,13,0,1,,,,,,,,,,,,,,,,,,,,,,,,,,,,,,,,,,,,,,,
,,,,,,,,2023-08-16_08h31.34.267,HF_wild_card,2022.2.4,MacIntel,62.5,63ea52773c5861d1f32c4bdb,64d2fd46c836a06233681665,64dc7b45760b5ca29153d2e6,,,,,,,ctch,resources/DG.BMP,resources/DR.BMP,Door3,-0.003333333,-0.004444444,0,0,1,0.081,optionRight,70,14580,7,14,0,14,0,1,,,,,,,,,,,,,,,,,,,,,,,,,,,,,,,,,,,,,,,
,,,,,,,,2023-08-16_08h31.34.267,HF_wild_card,2022.2.4,MacIntel,62.5,63ea52773c5861d1f32c4bdb,64d2fd46c836a06233681665,64dc7b45760b5ca29153d2e6,,,,,,,decisionTrl,resources/DY.BMP,resources/DG.BMP,Door1,-0.012222222,0.012222222,0,0,1,0.133,optionLeft,30,14610,7,15,0,15,0,1,,,,,,,,,,,,,,,,,,,,,,,,,,,,,,,,,,,,,,,
,,,,,,,,2023-08-16_08h31.34.267,HF_wild_card,2022.2.4,MacIntel,62.5,63ea52773c5861d1f32c4bdb,64d2fd46c836a06233681665,64dc7b45760b5ca29153d2e6,,,,,,,decisionTrl,resources/DG.BMP,resources/DY.BMP,Door1,-0.01,0.002222222,0,0,1,0.115,optionRight,30,14640,7,16,0,16,0,1,,,,,,,,,,,,,,,,,,,,,,,,,,,,,,,,,,,,,,,
,,,,,,,,2023-08-16_08h31.34.267,HF_wild_card,2022.2.4,MacIntel,62.5,63ea52773c5861d1f32c4bdb,64d2fd46c836a06233681665,64dc7b45760b5ca29153d2e6,,,,,,,ctch,resources/DR.BMP,resources/DG.BMP,Door3,-0.001111111,0.001111111,0,0,1,0.064,optionLeft,70,14710,7,17,0,17,0,1,,,,,,,,,,,,,,,,,,,,,,,,,,,,,,,,,,,,,,,
,,,,,,,,2023-08-16_08h31.34.267,HF_wild_card,2022.2.4,MacIntel,62.5,63ea52773c5861d1f32c4bdb,64d2fd46c836a06233681665,64dc7b45760b5ca29153d2e6,,,,,,,decisionTrl,resources/DG.BMP,resources/DY.BMP,Door1,0.01,-0.011111111,0,0,1,0.083,optionRight,30,14740,7,18,0,18,0,1,,,,,,,,,,,,,,,,,,,,,,,,,,,,,,,,,,,,,,,
,,,,,,,,2023-08-16_08h31.34.267,HF_wild_card,2022.2.4,MacIntel,62.5,63ea52773c5861d1f32c4bdb,64d2fd46c836a06233681665,64dc7b45760b5ca29153d2e6,,,,,,,decisionTrl,resources/DG.BMP,resources/DY.BMP,Door1,-0.008888889,-0.003333333,0,0,1,0.1,optionRight,30,14770,7,19,0,19,0,1,,,,,,,,,,,,,,,,,,,,,,,,,,,,,,,,,,,,,,,
,,,,,,,,2023-08-16_08h31.34.267,HF_wild_card,2022.2.4,MacIntel,62.5,63ea52773c5861d1f32c4bdb,64d2fd46c836a06233681665,64dc7b45760b5ca29153d2e6,,,,,,,ctch,resources/DG.BMP,resources/DR.BMP,Door3,-0.005555556,-0.02,0,0,1,0.1,optionRight,70,14840,7,20,0,20,0,1,,,,,,,,,,,,,,,,,,,,,,,,,,,,,,,,,,,,,,,
,,,,,,,,2023-08-16_08h31.34.267,HF_wild_card,2022.2.4,MacIntel,62.5,63ea52773c5861d1f32c4bdb,64d2fd46c836a06233681665,64dc7b45760b5ca29153d2e6,,,,,,,decisionTrl,resources/DG.BMP,resources/DY.BMP,Door1,-0.001111111,0.004444444,0,0,1,0.098,optionRight,30,14870,7,21,0,21,0,1,,,,,,,,,,,,,,,,,,,,,,,,,,,,,,,,,,,,,,,
,,,,,,,,2023-08-16_08h31.34.267,HF_wild_card,2022.2.4,MacIntel,62.5,63ea52773c5861d1f32c4bdb,64d2fd46c836a06233681665,64dc7b45760b5ca29153d2e6,,,,,,,decisionTrl,resources/DY.BMP,resources/DG.BMP,Door1,0.011111111,-0.005555556,0,0,1,0.099,optionLeft,30,14900,7,22,0,22,0,1,,,,,,,,,,,,,,,,,,,,,,,,,,,,,,,,,,,,,,,
,,,,,,,,2023-08-16_08h31.34.267,HF_wild_card,2022.2.4,MacIntel,62.5,63ea52773c5861d1f32c4bdb,64d2fd46c836a06233681665,64dc7b45760b5ca29153d2e6,,,,,,,ctch,resources/DP.BMP,resources/DY.BMP,Door4,-0.005555556,-0.003333333,0,0,1,0.099,optionLeft,80,14980,7,23,0,23,0,1,,,,,,,,,,,,,,,,,,,,,,,,,,,,,,,,,,,,,,,
,,,,,,,,2023-08-16_08h31.34.267,HF_wild_card,2022.2.4,MacIntel,62.5,63ea52773c5861d1f32c4bdb,64d2fd46c836a06233681665,64dc7b45760b5ca29153d2e6,,,,,,,decisionTrl,resources/DR.BMP,resources/DP.BMP,Door4,0,0.002222222,0,0,1,0.098,optionRight,60,15040,7,24,0,24,0,1,,,,,,,,,,,,,,,,,,,,,,,,,,,,,,,,,,,,,,,
,,,,,,,,2023-08-16_08h31.34.267,HF_wild_card,2022.2.4,MacIntel,62.5,63ea52773c5861d1f32c4bdb,64d2fd46c836a06233681665,64dc7b45760b5ca29153d2e6,,,,,,,decisionTrl,resources/DG.BMP,resources/DY.BMP,Door1,0.004444444,-0.005555556,0,0,1,0.082,optionRight,30,15070,7,25,0,25,0,1,,,,,,,,,,,,,,,,,,,,,,,,,,,,,,,,,,,,,,,
,,,,,,,,2023-08-16_08h31.34.267,HF_wild_card,2022.2.4,MacIntel,62.5,63ea52773c5861d1f32c4bdb,64d2fd46c836a06233681665,64dc7b45760b5ca29153d2e6,,,,,,,decisionTrl,resources/DR.BMP,resources/DP.BMP,Door4,0.002222222,-0.002222222,0,0,1,0.084,optionRight,60,15130,7,26,0,26,0,1,,,,,,,,,,,,,,,,,,,,,,,,,,,,,,,,,,,,,,,
,,,,,,,,2023-08-16_08h31.34.267,HF_wild_card,2022.2.4,MacIntel,62.5,63ea52773c5861d1f32c4bdb,64d2fd46c836a06233681665,64dc7b45760b5ca29153d2e6,,,,,,,ctch,resources/DP.BMP,resources/DY.BMP,Door4,-0.007777778,0.008888889,0,0,1,0.078,optionLeft,60,15190,7,27,0,27,0,1,,,,,,,,,,,,,,,,,,,,,,,,,,,,,,,,,,,,,,,
,,,,,,,,2023-08-16_08h31.34.267,HF_wild_card,2022.2.4,MacIntel,62.5,63ea52773c5861d1f32c4bdb,64d2fd46c836a06233681665,64dc7b45760b5ca29153d2e6,,,,,,,ctch,resources/DY.BMP,resources/DP.BMP,Door4,0.007777778,-0.003333333,0,0,1,0.099,optionRight,80,15270,7,28,0,28,0,1,,,,,,,,,,,,,,,,,,,,,,,,,,,,,,,,,,,,,,,
,,,,,,,,2023-08-16_08h31.34.267,HF_wild_card,2022.2.4,MacIntel,62.5,63ea52773c5861d1f32c4bdb,64d2fd46c836a06233681665,64dc7b45760b5ca29153d2e6,,,,,,,ctch,resources/DG.BMP,resources/DR.BMP,Door3,-0.018888889,-0.002222222,0,0,1,0.115,optionRight,70,15340,7,29,0,29,0,1,,,,,,,,,,,,,,,,,,,,,,,,,,,,,,,,,,,,,,,
,,,,,,,,2023-08-16_08h31.34.267,HF_wild_card,2022.2.4,MacIntel,62.5,63ea52773c5861d1f32c4bdb,64d2fd46c836a06233681665,64dc7b45760b5ca29153d2e6,,,,,,,decisionTrl,resources/DR.BMP,resources/DP.BMP,Door4,-0.01,-0.018888889,0,0,1,0.115,optionRight,60,15400,7,30,0,30,0,1,,,,,,,,,,,,,,,,,,,,,,,,,,,,,,,,,,,,,,,
,,,,,,,,2023-08-16_08h31.34.267,HF_wild_card,2022.2.4,MacIntel,62.5,63ea52773c5861d1f32c4bdb,64d2fd46c836a06233681665,64dc7b45760b5ca29153d2e6,,,,,,,decisionTrl,resources/DG.BMP,resources/DY.BMP,Door2,0.007777778,-0.001111111,0,0,1,0.083,optionLeft,40,15440,7,31,0,31,0,1,,,,,,,,,,,,,,,,,,,,,,,,,,,,,,,,,,,,,,,
,,,,,,,,2023-08-16_08h31.34.267,HF_wild_card,2022.2.4,MacIntel,62.5,63ea52773c5861d1f32c4bdb,64d2fd46c836a06233681665,64dc7b45760b5ca29153d2e6,,,,,,,decisionTrl,resources/DP.BMP,resources/DR.BMP,Door3,0.002222222,-0.006666667,0,0,1,0.115,optionRight,70,15510,7,32,0,32,0,1,,,,,,,,,,,,,,,,,,,,,,,,,,,,,,,,,,,,,,,
,,,,,,,,2023-08-16_08h31.34.267,HF_wild_card,2022.2.4,MacIntel,62.5,63ea52773c5861d1f32c4bdb,64d2fd46c836a06233681665,64dc7b45760b5ca29153d2e6,,,,,,,ctch,resources/DY.BMP,resources/DP.BMP,Door4,0.005555556,-0.004444444,0,0,1,0.064,optionRight,80,15590,7,33,0,33,0,1,,,,,,,,,,,,,,,,,,,,,,,,,,,,,,,,,,,,,,,
,,,,,,,,2023-08-16_08h31.34.267,HF_wild_card,2022.2.4,MacIntel,62.5,63ea52773c5861d1f32c4bdb,64d2fd46c836a06233681665,64dc7b45760b5ca29153d2e6,,,,,,,decisionTrl,resources/DP.BMP,resources/DR.BMP,Door4,-0.003333333,0.002222222,0,0,1,0.081,optionLeft,60,15650,7,34,0,34,0,1,,,,,,,,,,,,,,,,,,,,,,,,,,,,,,,,,,,,,,,
,,,,,,,,2023-08-16_08h31.34.267,HF_wild_card,2022.2.4,MacIntel,62.5,63ea52773c5861d1f32c4bdb,64d2fd46c836a06233681665,64dc7b45760b5ca29153d2e6,,,,,,,ctch,resources/DR.BMP,resources/DG.BMP,Door3,0.012222222,-0.008888889,0,0,1,0.083,optionLeft,70,15720,7,35,0,35,0,1,,,,,,,,,,,,,,,,,,,,,,,,,,,,,,,,,,,,,,,
,,,,,,,,2023-08-16_08h31.34.267,HF_wild_card,2022.2.4,MacIntel,62.5,63ea52773c5861d1f32c4bdb,64d2fd46c836a06233681665,64dc7b45760b5ca29153d2e6,,,,,,,,,,,,,,,,,,,,,,,,,,6,0,6,0,1,,,,,,,,,,,,,,,,,,,,,,,,,,,,,,,,,,
,,,,,,,,2023-08-16_08h31.34.267,HF_wild_card,2022.2.4,MacIntel,62.5,63ea52773c5861d1f32c4bdb,64d2fd46c836a06233681665,64dc7b45760b5ca29153d2e6,,,,,,,,,,,,,,,,,,,,,,,,,,,,,,,3,,,,,,,,,,,,,,,,,,,,,,,,,,,,,,,,,
,,,,,,,,2023-08-16_08h31.34.267,HF_wild_card,2022.2.4,MacIntel,62.5,63ea52773c5861d1f32c4bdb,64d2fd46c836a06233681665,64dc7b45760b5ca29153d2e6,,,,,,,,,,,,,,,,,,,,,,,,,,,,,,,,,,,,,,,,,,,,,,,,,,,,,,,,,,,,,,,,
,,,,,,,,2023-08-16_08h31.34.267,HF_wild_card,2022.2.4,MacIntel,62.5,63ea52773c5861d1f32c4bdb,64d2fd46c836a06233681665,64dc7b45760b5ca29153d2e6,,,,,,,,,,,,,,,,,,,,,,,,,,,,,,,,80,Door4,resources/DP.BMP,0,0,0,0,1,,,,,,,,,,,,,,,,,,,,,,,,,
,,,,,,,,2023-08-16_08h31.34.267,HF_wild_card,2022.2.4,MacIntel,62.5,63ea52773c5861d1f32c4bdb,64d2fd46c836a06233681665,64dc7b45760b5ca29153d2e6,,,,,,,,,,,,,,,,,,,,,,,,,,,,,,,,70,Door3,resources/DR.BMP,1,0,1,0,1,,,,,,,,,,,,,,,,,,,,,,,,,
,,,,,,,,2023-08-16_08h31.34.267,HF_wild_card,2022.2.4,MacIntel,62.5,63ea52773c5861d1f32c4bdb,64d2fd46c836a06233681665,64dc7b45760b5ca29153d2e6,,,,,,,,,,,,,,,,,,,,,,,,,,,,,,,,20,Door2,resources/DG.BMP,2,0,2,0,1,,,,,,,,,,,,,,,,,,,,,,,,,
,,,,,,,,2023-08-16_08h31.34.267,HF_wild_card,2022.2.4,MacIntel,62.5,63ea52773c5861d1f32c4bdb,64d2fd46c836a06233681665,64dc7b45760b5ca29153d2e6,,,,,,,,,,,,,,,,,,,,,,,,,,,,,,,,55,WC_nonExtreme,resources/DB.BMP,3,0,3,0,1,,,,,,,,,,,,,,,,,,,,,,,,,
,,,,,,,,2023-08-16_08h31.34.267,HF_wild_card,2022.2.4,MacIntel,62.5,63ea52773c5861d1f32c4bdb,64d2fd46c836a06233681665,64dc7b45760b5ca29153d2e6,,,,,,,,,,,,,,,,,,,,,,,,,,,,,,,,30,Door1,resources/DY.BMP,4,0,4,0,1,,,,,,,,,,,,,,,,,,,,,,,,,
,,,,,,,,2023-08-16_08h31.34.267,HF_wild_card,2022.2.4,MacIntel,62.5,63ea52773c5861d1f32c4bdb,64d2fd46c836a06233681665,64dc7b45760b5ca29153d2e6,,,,,,,,,,,,,,,,,,,,,,,,,,,,,,,,55,WC_extreme,resources/DBN.BMP,5,0,5,0,1,,,,,,,,,,,,,,,,,,,,,,,,,
,,,,,,,,2023-08-16_08h31.34.267,HF_wild_card,2022.2.4,MacIntel,62.5,63ea52773c5861d1f32c4bdb,64d2fd46c836a06233681665,64dc7b45760b5ca29153d2e6,,,,,,,,,,,,,,,,,,,,,,,,,,,,,,,,,,,,,,,,,,,,,,,,,,,,,,,,,,,,,,,,
,,,,,,,,2023-08-16_08h31.34.267,HF_wild_card,2022.2.4,MacIntel,62.5,63ea52773c5861d1f32c4bdb,64d2fd46c836a06233681665,64dc7b45760b5ca29153d2e6,,,,,,,,,,,,,,,,,,,,,,,,,,,,,,,,,,,,,,,,0,0,0,0,1,,,,,,,,,,,,,,,,,,,,
,,,,,,,,2023-08-16_08h31.34.267,HF_wild_card,2022.2.4,MacIntel,62.5,63ea52773c5861d1f32c4bdb,64d2fd46c836a06233681665,64dc7b45760b5ca29153d2e6,,,,,,,,,,,,,,,,,,,,,,,,,,,,,,,,,,,,,,,,1,0,1,0,1,,,,,,,,,,,,,,,,,,,,
,,,,,,,,2023-08-16_08h31.34.267,HF_wild_card,2022.2.4,MacIntel,62.5,63ea52773c5861d1f32c4bdb,64d2fd46c836a06233681665,64dc7b45760b5ca29153d2e6,,,,,,,,,,,,,,,,,,,,,,,,,,,,,,,,,,,,,,,,,,,,,-0.296666667,-0.418888889,1,0,1,yes,80%,20%,Door1,resources/DY.BMP,0,0,0,0,1,,,,,
,,,,,,,,2023-08-16_08h31.34.267,HF_wild_card,2022.2.4,MacIntel,62.5,63ea52773c5861d1f32c4bdb,64d2fd46c836a06233681665,64dc7b45760b5ca29153d2e6,,,,,,,,,,,,,,,,,,,,,,,,,,,,,,,,,,,,,,,,,,,,,,,,,,,,,,,,,,,,0,0,0,0,1
,,,,,,,,2023-08-16_08h31.34.267,HF_wild_card,2022.2.4,MacIntel,62.5,63ea52773c5861d1f32c4bdb,64d2fd46c836a06233681665,64dc7b45760b5ca29153d2e6,,,,,,,,,,,,,,,,,,,,,,,,,,,,,,,,,,,,,,,,0,0,0,0,1,,,,,,,,,,,,,,,,,,,,
,,,,,,,,2023-08-16_08h31.34.267,HF_wild_card,2022.2.4,MacIntel,62.5,63ea52773c5861d1f32c4bdb,64d2fd46c836a06233681665,64dc7b45760b5ca29153d2e6,,,,,,,,,,,,,,,,,,,,,,,,,,,,,,,,,,,,,,,,1,0,1,0,1,,,,,,,,,,,,,,,,,,,,
,,,,,,,,2023-08-16_08h31.34.267,HF_wild_card,2022.2.4,MacIntel,62.5,63ea52773c5861d1f32c4bdb,64d2fd46c836a06233681665,64dc7b45760b5ca29153d2e6,,,,,,,,,,,,,,,,,,,,,,,,,,,,,,,,,,,,,,,,,,,,,-0.297777778,-0.377777778,1,0,1,yes,50%,50%,WC_extreme,resources/DBN.BMP,0,0,0,0,1,,,,,
,,,,,,,,2023-08-16_08h31.34.267,HF_wild_card,2022.2.4,MacIntel,62.5,63ea52773c5861d1f32c4bdb,64d2fd46c836a06233681665,64dc7b45760b5ca29153d2e6,,,,,,,,,,,,,,,,,,,,,,,,,,,,,,,,,,,,,,,,,,,,,,,,,,,,,,,,,,,,1,0,1,0,1
,,,,,,,,2023-08-16_08h31.34.267,HF_wild_card,2022.2.4,MacIntel,62.5,63ea52773c5861d1f32c4bdb,64d2fd46c836a06233681665,64dc7b45760b5ca29153d2e6,,,,,,,,,,,,,,,,,,,,,,,,,,,,,,,,,,,,,,,,0,0,0,0,1,,,,,,,,,,,,,,,,,,,,
