Condition,Low fixed image (Door1),Low risky image (Door2),High fixed image (Door3),High risky image (Door4),NonExtreme Wild Card 1,NonExtreme Wild Card 2,,date,expName,psychopyVersion,OS,frameRate,PROLIFIC_PID,STUDY_ID,SESSION_ID,mouse_2.x,mouse_2.y,mouse_2.leftButton,mouse_2.midButton,mouse_2.rightButton,mouse_2.clicked_name,Trial Type,Left Option Image,Right Option Image,Chosen Door,mouse.x,mouse.y,mouse.leftButton,mouse.midButton,mouse.rightButton,mouse.time,mouse.clicked_name,Feedback,Cumulative Reward,Block,trial.thisRepN,trial.thisTrialN,trial.thisN,trial.thisIndex,trial.ran,blocks.thisRepN,blocks.thisTrialN,blocks.thisN,blocks.thisIndex,blocks.ran,Money conversion,First Outcome Reported,Shown Door (First Outcome),Displayed Image (First Outcome),outcomes.thisRepN,outcomes.thisTrialN,outcomes.thisN,outcomes.thisIndex,outcomes.ran,judgments.thisRepN,judgments.thisTrialN,judgments.thisN,judgments.thisIndex,judgments.ran,freqMouse.x,freqMouse.y,freqMouse.leftButton,freqMouse.midButton,freqMouse.rightButton,freqMouse.clicked_name,FQJ for first outcome,FQJ for second outcome,Shown Door,Displayed Image,trials.thisRepN,trials.thisTrialN,trials.thisN,trials.thisIndex,trials.ran,judgBlock.thisRepN,judgBlock.thisTrialN,judgBlock.thisN,judgBlock.thisIndex,judgBlock.ran
2,resources/DP.BMP,resources/DR.BMP,resources/DG.BMP,resources/DB.BMP,resources/DBN.BMP,resources/DY.BMP,,2023-08-16_08h48.42.037,HF_wild_card,2022.2.4,MacIntel,60.0024001,5e110747dc265f7d25341439,64d2fd46c836a06233681665,64dc7f1c707d0bc38769627f,,,,,,,,,,,,,,,,,,,,,,,,,,,,,,,,,,,,,,,,,,,,,,,,,,,,,,,,,,,,,,,,
,,,,,,,,2023-08-16_08h48.42.037,HF_wild_card,2022.2.4,MacIntel,60.0024001,5e110747dc265f7d25341439,64d2fd46c836a06233681665,64dc7f1c707d0bc38769627f,-0.008568432,-0.431405527,1,0,0,agree,,,,,,,,,,,,,,,,,,,,,,,,,,,,,,,,,,,,,,,,,,,,,,,,,,,,,,,,,,
,,,,,,,,2023-08-16_08h48.42.037,HF_wild_card,2022.2.4,MacIntel,60.0024001,5e110747dc265f7d25341439,64d2fd46c836a06233681665,64dc7f1c707d0bc38769627f,,,,,,,,,,,,,,,,,,,,,,,,,,,,,,,,,,,,,,,,,,,,,,,,,,,,,,,,,,,,,,,,
,,,,,,,,2023-08-16_08h48.42.037,HF_wild_card,2022.2.4,MacIntel,60.0024001,5e110747dc265f7d25341439,64d2fd46c836a06233681665,64dc7f1c707d0bc38769627f,,,,,,,decisionTrl,resources/DR.BMP,resources/DY.BMP,Door2,-0.308875868,-0.11723452,1,0,0,1.6573,optionLeft,20,20,1,0,0,0,0,1,,,,,,,,,,,,,,,,,,,,,,,,,,,,,,,,,,,,,,,
,,,,,,,,2023-08-16_08h48.42.037,HF_wild_card,2022.2.4,MacIntel,60.0024001,5e110747dc265f7d25341439,64d2fd46c836a06233681665,64dc7f1c707d0bc38769627f,,,,,,,decisionTrl,resources/DR.BMP,resources/DP.BMP,Door1,0.077477575,-0.044838686,1,0,0,1.4304,optionRight,30,50,1,1,0,1,0,1,,,,,,,,,,,,,,,,,,,,,,,,,,,,,,,,,,,,,,,
,,,,,,,,2023-08-16_08h48.42.037,HF_wild_card,2022.2.4,MacIntel,60.0024001,5e110747dc265f7d25341439,64d2fd46c836a06233681665,64dc7f1c707d0bc38769627f,,,,,,,ctch,resources/DG.BMP,resources/DR.BMP,Door2,0.297782841,-0.005067274,1,0,0,0.6348,optionRight,40,90,1,2,0,2,0,1,,,,,,,,,,,,,,,,,,,,,,,,,,,,,,,,,,,,,,,
,,,,,,,,2023-08-16_08h48.42.037,HF_wild_card,2022.2.4,MacIntel,60.0024001,5e110747dc265f7d25341439,64d2fd46c836a06233681665,64dc7f1c707d0bc38769627f,,,,,,,sngl,resources/Empty.png,resources/DB.BMP,Door4,0.272196904,-0.016489439,1,0,0,1.281,optionRight,60,150,1,3,0,3,0,1,,,,,,,,,,,,,,,,,,,,,,,,,,,,,,,,,,,,,,,
,,,,,,,,2023-08-16_08h48.42.037,HF_wild_card,2022.2.4,MacIntel,60.0024001,5e110747dc265f7d25341439,64d2fd46c836a06233681665,64dc7f1c707d0bc38769627f,,,,,,,decisionTrl,resources/DP.BMP,resources/DR.BMP,Door1,-0.121563947,0.001132089,1,0,0,3.3609,optionLeft,30,180,1,4,0,4,0,1,,,,,,,,,,,,,,,,,,,,,,,,,,,,,,,,,,,,,,,
,,,,,,,,2023-08-16_08h48.42.037,HF_wild_card,2022.2.4,MacIntel,60.0024001,5e110747dc265f7d25341439,64d2fd46c836a06233681665,64dc7f1c707d0bc38769627f,,,,,,,decisionTrl,resources/DY.BMP,resources/DG.BMP,Door3,0.260662616,-0.004843027,1,0,0,1.1945,optionRight,70,250,1,5,0,5,0,1,,,,,,,,,,,,,,,,,,,,,,,,,,,,,,,,,,,,,,,
,,,,,,,,2023-08-16_08h48.42.037,HF_wild_card,2022.2.4,MacIntel,60.0024001,5e110747dc265f7d25341439,64d2fd46c836a06233681665,64dc7f1c707d0bc38769627f,,,,,,,decisionTrl,resources/DR.BMP,resources/DP.BMP,Door2,-0.233166956,-0.010586661,1,0,0,1.2138,optionLeft,20,270,1,6,0,6,0,1,,,,,,,,,,,,,,,,,,,,,,,,,,,,,,,,,,,,,,,
,,,,,,,,2023-08-16_08h48.42.037,HF_wild_card,2022.2.4,MacIntel,60.0024001,5e110747dc265f7d25341439,64d2fd46c836a06233681665,64dc7f1c707d0bc38769627f,,,,,,,decisionTrl,resources/DP.BMP,resources/DY.BMP,WildCard_NonEx,0.369751881,-0.026359954,1,0,0,1.0952,optionRight,45,315,1,7,0,7,0,1,,,,,,,,,,,,,,,,,,,,,,,,,,,,,,,,,,,,,,,
,,,,,,,,2023-08-16_08h48.42.037,HF_wild_card,2022.2.4,MacIntel,60.0024001,5e110747dc265f7d25341439,64d2fd46c836a06233681665,64dc7f1c707d0bc38769627f,,,,,,,decisionTrl,resources/DB.BMP,resources/DG.BMP,Door3,0.264243345,0.011168981,1,0,0,1.0623,optionRight,70,385,1,8,0,8,0,1,,,,,,,,,,,,,,,,,,,,,,,,,,,,,,,,,,,,,,,
,,,,,,,,2023-08-16_08h48.42.037,HF_wild_card,2022.2.4,MacIntel,60.0024001,5e110747dc265f7d25341439,64d2fd46c836a06233681665,64dc7f1c707d0bc38769627f,,,,,,,decisionTrl,resources/DY.BMP,resources/DR.BMP,WildCard_NonEx,-0.205418113,-0.000824653,1,0,0,0.8979,optionLeft,45,430,1,9,0,9,0,1,,,,,,,,,,,,,,,,,,,,,,,,,,,,,,,,,,,,,,,
,,,,,,,,2023-08-16_08h48.42.037,HF_wild_card,2022.2.4,MacIntel,60.0024001,5e110747dc265f7d25341439,64d2fd46c836a06233681665,64dc7f1c707d0bc38769627f,,,,,,,decisionTrl,resources/DR.BMP,resources/DP.BMP,Door1,0.274649161,-0.022591146,1,0,0,0.7803,optionRight,30,460,1,10,0,10,0,1,,,,,,,,,,,,,,,,,,,,,,,,,,,,,,,,,,,,,,,
,,,,,,,,2023-08-16_08h48.42.037,HF_wild_card,2022.2.4,MacIntel,60.0024001,5e110747dc265f7d25341439,64d2fd46c836a06233681665,64dc7f1c707d0bc38769627f,,,,,,,sngl,resources/DB.BMP,resources/Empty.png,Door4,-0.158076534,0.000278501,1,0,0,0.6118,optionLeft,80,540,1,11,0,11,0,1,,,,,,,,,,,,,,,,,,,,,,,,,,,,,,,,,,,,,,,
,,,,,,,,2023-08-16_08h48.42.037,HF_wild_card,2022.2.4,MacIntel,60.0024001,5e110747dc265f7d25341439,64d2fd46c836a06233681665,64dc7f1c707d0bc38769627f,,,,,,,decisionTrl,resources/DY.BMP,resources/DP.BMP,WildCard_NonEx,-0.202821181,-0.000622106,1,0,0,1.2648,optionLeft,55,595,1,12,0,12,0,1,,,,,,,,,,,,,,,,,,,,,,,,,,,,,,,,,,,,,,,
,,,,,,,,2023-08-16_08h48.42.037,HF_wild_card,2022.2.4,MacIntel,60.0024001,5e110747dc265f7d25341439,64d2fd46c836a06233681665,64dc7f1c707d0bc38769627f,,,,,,,decisionTrl,resources/DP.BMP,resources/DR.BMP,Door1,-0.338845486,-0.078877315,1,0,0,1.7137,optionLeft,30,625,1,13,0,13,0,1,,,,,,,,,,,,,,,,,,,,,,,,,,,,,,,,,,,,,,,
,,,,,,,,2023-08-16_08h48.42.037,HF_wild_card,2022.2.4,MacIntel,60.0024001,5e110747dc265f7d25341439,64d2fd46c836a06233681665,64dc7f1c707d0bc38769627f,,,,,,,decisionTrl,resources/DG.BMP,resources/DB.BMP,Door4,0.33297526,0.015328414,1,0,0,0.797,optionRight,60,685,1,14,0,14,0,1,,,,,,,,,,,,,,,,,,,,,,,,,,,,,,,,,,,,,,,
,,,,,,,,2023-08-16_08h48.42.037,HF_wild_card,2022.2.4,MacIntel,60.0024001,5e110747dc265f7d25341439,64d2fd46c836a06233681665,64dc7f1c707d0bc38769627f,,,,,,,sngl,resources/DY.BMP,resources/Empty.png,WildCard_NonEx,-0.190067998,-0.015498409,1,0,0,0.863,optionLeft,55,740,1,15,0,15,0,1,,,,,,,,,,,,,,,,,,,,,,,,,,,,,,,,,,,,,,,
,,,,,,,,2023-08-16_08h48.42.037,HF_wild_card,2022.2.4,MacIntel,60.0024001,5e110747dc265f7d25341439,64d2fd46c836a06233681665,64dc7f1c707d0bc38769627f,,,,,,,sngl,resources/DR.BMP,resources/Empty.png,Door2,-0.167596209,-0.010434751,1,0,0,0.7284,optionLeft,40,780,1,16,0,16,0,1,,,,,,,,,,,,,,,,,,,,,,,,,,,,,,,,,,,,,,,
,,,,,,,,2023-08-16_08h48.42.037,HF_wild_card,2022.2.4,MacIntel,60.0024001,5e110747dc265f7d25341439,64d2fd46c836a06233681665,64dc7f1c707d0bc38769627f,,,,,,,ctch,resources/DP.BMP,resources/DB.BMP,Door4,0.271563947,0.00405816,1,0,0,0.8652,optionRight,60,840,1,17,0,17,0,1,,,,,,,,,,,,,,,,,,,,,,,,,,,,,,,,,,,,,,,
,,,,,,,,2023-08-16_08h48.42.037,HF_wild_card,2022.2.4,MacIntel,60.0024001,5e110747dc265f7d25341439,64d2fd46c836a06233681665,64dc7f1c707d0bc38769627f,,,,,,,decisionTrl,resources/DP.BMP,resources/DR.BMP,Door2,0.25785952,0.004181134,1,0,0,1.1147,optionRight,20,860,1,18,0,18,0,1,,,,,,,,,,,,,,,,,,,,,,,,,,,,,,,,,,,,,,,
,,,,,,,,2023-08-16_08h48.42.037,HF_wild_card,2022.2.4,MacIntel,60.0024001,5e110747dc265f7d25341439,64d2fd46c836a06233681665,64dc7f1c707d0bc38769627f,,,,,,,decisionTrl,resources/DG.BMP,resources/DB.BMP,Door3,-0.32328559,-0.004654948,1,0,0,0.9456,optionLeft,70,930,1,19,0,19,0,1,,,,,,,,,,,,,,,,,,,,,,,,,,,,,,,,,,,,,,,
,,,,,,,,2023-08-16_08h48.42.037,HF_wild_card,2022.2.4,MacIntel,60.0024001,5e110747dc265f7d25341439,64d2fd46c836a06233681665,64dc7f1c707d0bc38769627f,,,,,,,decisionTrl,resources/DB.BMP,resources/DG.BMP,Door3,0.254043692,-0.078804977,1,0,0,1.2652,optionRight,70,1000,1,20,0,20,0,1,,,,,,,,,,,,,,,,,,,,,,,,,,,,,,,,,,,,,,,
,,,,,,,,2023-08-16_08h48.42.037,HF_wild_card,2022.2.4,MacIntel,60.0024001,5e110747dc265f7d25341439,64d2fd46c836a06233681665,64dc7f1c707d0bc38769627f,,,,,,,sngl,resources/DY.BMP,resources/Empty.png,WildCard_NonEx,-0.25563151,-0.01880787,1,0,0,0.6152,optionLeft,45,1045,1,21,0,21,0,1,,,,,,,,,,,,,,,,,,,,,,,,,,,,,,,,,,,,,,,
,,,,,,,,2023-08-16_08h48.42.037,HF_wild_card,2022.2.4,MacIntel,60.0024001,5e110747dc265f7d25341439,64d2fd46c836a06233681665,64dc7f1c707d0bc38769627f,,,,,,,decisionTrl,resources/DG.BMP,resources/DY.BMP,Door3,-0.193670428,-0.006778067,1,0,0,0.8,optionLeft,70,1115,1,22,0,22,0,1,,,,,,,,,,,,,,,,,,,,,,,,,,,,,,,,,,,,,,,
,,,,,,,,2023-08-16_08h48.42.037,HF_wild_card,2022.2.4,MacIntel,60.0024001,5e110747dc265f7d25341439,64d2fd46c836a06233681665,64dc7f1c707d0bc38769627f,,,,,,,decisionTrl,resources/DG.BMP,resources/DB.BMP,Door3,-0.198220486,-0.01833044,1,0,0,0.7808,optionLeft,70,1185,1,23,0,23,0,1,,,,,,,,,,,,,,,,,,,,,,,,,,,,,,,,,,,,,,,
,,,,,,,,2023-08-16_08h48.42.037,HF_wild_card,2022.2.4,MacIntel,60.0024001,5e110747dc265f7d25341439,64d2fd46c836a06233681665,64dc7f1c707d0bc38769627f,,,,,,,sngl,resources/Empty.png,resources/DY.BMP,WildCard_NonEx,0.197265625,-0.001793981,1,0,0,0.6638,optionRight,45,1230,1,24,0,24,0,1,,,,,,,,,,,,,,,,,,,,,,,,,,,,,,,,,,,,,,,
,,,,,,,,2023-08-16_08h48.42.037,HF_wild_card,2022.2.4,MacIntel,60.0024001,5e110747dc265f7d25341439,64d2fd46c836a06233681665,64dc7f1c707d0bc38769627f,,,,,,,decisionTrl,resources/DR.BMP,resources/DP.BMP,Door2,-0.219827836,-0.006857639,1,0,0,1.631,optionLeft,40,1270,1,25,0,25,0,1,,,,,,,,,,,,,,,,,,,,,,,,,,,,,,,,,,,,,,,
,,,,,,,,2023-08-16_08h48.42.037,HF_wild_card,2022.2.4,MacIntel,60.0024001,5e110747dc265f7d25341439,64d2fd46c836a06233681665,64dc7f1c707d0bc38769627f,,,,,,,decisionTrl,resources/DG.BMP,resources/DB.BMP,Door3,-0.271401186,-0.017031973,1,0,0,1.3952,optionLeft,70,1340,1,26,0,26,0,1,,,,,,,,,,,,,,,,,,,,,,,,,,,,,,,,,,,,,,,
,,,,,,,,2023-08-16_08h48.42.037,HF_wild_card,2022.2.4,MacIntel,60.0024001,5e110747dc265f7d25341439,64d2fd46c836a06233681665,64dc7f1c707d0bc38769627f,,,,,,,sngl,resources/Empty.png,resources/DG.BMP,Door3,0.304181134,0.002893519,1,0,0,0.6464,optionRight,70,1410,1,27,0,27,0,1,,,,,,,,,,,,,,,,,,,,,,,,,,,,,,,,,,,,,,,
,,,,,,,,2023-08-16_08h48.42.037,HF_wild_card,2022.2.4,MacIntel,60.0024001,5e110747dc265f7d25341439,64d2fd46c836a06233681665,64dc7f1c707d0bc38769627f,,,,,,,ctch,resources/DP.BMP,resources/DB.BMP,Door4,0.236360677,-0.023838976,1,0,0,1.0323,optionRight,80,1490,1,28,0,28,0,1,,,,,,,,,,,,,,,,,,,,,,,,,,,,,,,,,,,,,,,
,,,,,,,,2023-08-16_08h48.42.037,HF_wild_card,2022.2.4,MacIntel,60.0024001,5e110747dc265f7d25341439,64d2fd46c836a06233681665,64dc7f1c707d0bc38769627f,,,,,,,decisionTrl,resources/DB.BMP,resources/DY.BMP,Door4,-0.253237124,0.014029948,1,0,0,0.7827,optionLeft,60,1550,1,29,0,29,0,1,,,,,,,,,,,,,,,,,,,,,,,,,,,,,,,,,,,,,,,
,,,,,,,,2023-08-16_08h48.42.037,HF_wild_card,2022.2.4,MacIntel,60.0024001,5e110747dc265f7d25341439,64d2fd46c836a06233681665,64dc7f1c707d0bc38769627f,,,,,,,ctch,resources/DG.BMP,resources/DR.BMP,Door3,-0.301493779,0.036505353,1,0,0,0.8988,optionLeft,70,1620,1,30,0,30,0,1,,,,,,,,,,,,,,,,,,,,,,,,,,,,,,,,,,,,,,,
,,,,,,,,2023-08-16_08h48.42.037,HF_wild_card,2022.2.4,MacIntel,60.0024001,5e110747dc265f7d25341439,64d2fd46c836a06233681665,64dc7f1c707d0bc38769627f,,,,,,,decisionTrl,resources/DY.BMP,resources/DB.BMP,Door4,0.294256366,0.033427373,1,0,0,1.7955,optionRight,60,1680,1,31,0,31,0,1,,,,,,,,,,,,,,,,,,,,,,,,,,,,,,,,,,,,,,,
,,,,,,,,2023-08-16_08h48.42.037,HF_wild_card,2022.2.4,MacIntel,60.0024001,5e110747dc265f7d25341439,64d2fd46c836a06233681665,64dc7f1c707d0bc38769627f,,,,,,,ctch,resources/DB.BMP,resources/DP.BMP,Door4,-0.131394676,0.004546441,1,0,0,1.0649,optionLeft,60,1740,1,32,0,32,0,1,,,,,,,,,,,,,,,,,,,,,,,,,,,,,,,,,,,,,,,
,,,,,,,,2023-08-16_08h48.42.037,HF_wild_card,2022.2.4,MacIntel,60.0024001,5e110747dc265f7d25341439,64d2fd46c836a06233681665,64dc7f1c707d0bc38769627f,,,,,,,ctch,resources/DR.BMP,resources/DG.BMP,Door3,0.257251881,0.057508681,1,0,0,0.9162,optionRight,70,1810,1,33,0,33,0,1,,,,,,,,,,,,,,,,,,,,,,,,,,,,,,,,,,,,,,,
,,,,,,,,2023-08-16_08h48.42.037,HF_wild_card,2022.2.4,MacIntel,60.0024001,5e110747dc265f7d25341439,64d2fd46c836a06233681665,64dc7f1c707d0bc38769627f,,,,,,,ctch,resources/DB.BMP,resources/DP.BMP,Door4,-0.306105324,0.055262587,1,0,0,0.9962,optionLeft,60,1870,1,34,0,34,0,1,,,,,,,,,,,,,,,,,,,,,,,,,,,,,,,,,,,,,,,
,,,,,,,,2023-08-16_08h48.42.037,HF_wild_card,2022.2.4,MacIntel,60.0024001,5e110747dc265f7d25341439,64d2fd46c836a06233681665,64dc7f1c707d0bc38769627f,,,,,,,decisionTrl,resources/DP.BMP,resources/DR.BMP,Door2,0.217296007,0.016883681,1,0,0,1.9463,optionRight,40,1910,1,35,0,35,0,1,,,,,,,,,,,,,,,,,,,,,,,,,,,,,,,,,,,,,,,
,,,,,,,,2023-08-16_08h48.42.037,HF_wild_card,2022.2.4,MacIntel,60.0024001,5e110747dc265f7d25341439,64d2fd46c836a06233681665,64dc7f1c707d0bc38769627f,,,,,,,sngl,resources/Empty.png,resources/DP.BMP,Door1,0.213990162,0.044907407,1,0,0,0.733,optionRight,30,1940,1,36,0,36,0,1,,,,,,,,,,,,,,,,,,,,,,,,,,,,,,,,,,,,,,,
,,,,,,,,2023-08-16_08h48.42.037,HF_wild_card,2022.2.4,MacIntel,60.0024001,5e110747dc265f7d25341439,64d2fd46c836a06233681665,64dc7f1c707d0bc38769627f,,,,,,,ctch,resources/DR.BMP,resources/DG.BMP,Door3,0.406134259,0.064395255,1,0,0,1.3485,optionRight,70,2010,1,37,0,37,0,1,,,,,,,,,,,,,,,,,,,,,,,,,,,,,,,,,,,,,,,
,,,,,,,,2023-08-16_08h48.42.037,HF_wild_card,2022.2.4,MacIntel,60.0024001,5e110747dc265f7d25341439,64d2fd46c836a06233681665,64dc7f1c707d0bc38769627f,,,,,,,decisionTrl,resources/DB.BMP,resources/DG.BMP,Door4,-0.256228299,0.028779659,1,0,0,1.3483,optionLeft,80,2090,1,38,0,38,0,1,,,,,,,,,,,,,,,,,,,,,,,,,,,,,,,,,,,,,,,
,,,,,,,,2023-08-16_08h48.42.037,HF_wild_card,2022.2.4,MacIntel,60.0024001,5e110747dc265f7d25341439,64d2fd46c836a06233681665,64dc7f1c707d0bc38769627f,,,,,,,sngl,resources/DP.BMP,resources/Empty.png,Door1,-0.282845052,0.035264757,1,0,0,1.014,optionLeft,30,2120,1,39,0,39,0,1,,,,,,,,,,,,,,,,,,,,,,,,,,,,,,,,,,,,,,,
,,,,,,,,2023-08-16_08h48.42.037,HF_wild_card,2022.2.4,MacIntel,60.0024001,5e110747dc265f7d25341439,64d2fd46c836a06233681665,64dc7f1c707d0bc38769627f,,,,,,,decisionTrl,resources/DB.BMP,resources/DG.BMP,Door4,-0.229184751,0.034494358,1,0,0,1.01,optionLeft,80,2200,1,40,0,40,0,1,,,,,,,,,,,,,,,,,,,,,,,,,,,,,,,,,,,,,,,
,,,,,,,,2023-08-16_08h48.42.037,HF_wild_card,2022.2.4,MacIntel,60.0024001,5e110747dc265f7d25341439,64d2fd46c836a06233681665,64dc7f1c707d0bc38769627f,,,,,,,sngl,resources/DG.BMP,resources/Empty.png,Door3,-0.128150318,0.007743779,1,0,0,0.6795,optionLeft,70,2270,1,41,0,41,0,1,,,,,,,,,,,,,,,,,,,,,,,,,,,,,,,,,,,,,,,
,,,,,,,,2023-08-16_08h48.42.037,HF_wild_card,2022.2.4,MacIntel,60.0024001,5e110747dc265f7d25341439,64d2fd46c836a06233681665,64dc7f1c707d0bc38769627f,,,,,,,sngl,resources/Empty.png,resources/DR.BMP,Door2,0.225546152,0.013480179,1,0,0,0.85,optionRight,20,2290,1,42,0,42,0,1,,,,,,,,,,,,,,,,,,,,,,,,,,,,,,,,,,,,,,,
,,,,,,,,2023-08-16_08h48.42.037,HF_wild_card,2022.2.4,MacIntel,60.0024001,5e110747dc265f7d25341439,64d2fd46c836a06233681665,64dc7f1c707d0bc38769627f,,,,,,,sngl,resources/Empty.png,resources/DY.BMP,WildCard_NonEx,0.162358941,0.042531105,1,0,0,1.4297,optionRight,55,2345,1,43,0,43,0,1,,,,,,,,,,,,,,,,,,,,,,,,,,,,,,,,,,,,,,,
,,,,,,,,2023-08-16_08h48.42.037,HF_wild_card,2022.2.4,MacIntel,60.0024001,5e110747dc265f7d25341439,64d2fd46c836a06233681665,64dc7f1c707d0bc38769627f,,,,,,,,,,,,,,,,,,,,,,,,,,0,0,0,0,1,,,,,,,,,,,,,,,,,,,,,,,,,,,,,,,,,,
,,,,,,,,2023-08-16_08h48.42.037,HF_wild_card,2022.2.4,MacIntel,60.0024001,5e110747dc265f7d25341439,64d2fd46c836a06233681665,64dc7f1c707d0bc38769627f,,,,,,,decisionTrl,resources/DP.BMP,resources/DR.BMP,Door2,0.237731481,-0.122768374,1,0,0,0.9827,optionRight,40,2385,2,0,0,0,0,1,,,,,,,,,,,,,,,,,,,,,,,,,,,,,,,,,,,,,,,
,,,,,,,,2023-08-16_08h48.42.037,HF_wild_card,2022.2.4,MacIntel,60.0024001,5e110747dc265f7d25341439,64d2fd46c836a06233681665,64dc7f1c707d0bc38769627f,,,,,,,decisionTrl,resources/DR.BMP,resources/DP.BMP,Door2,-0.219719329,0.004072627,1,0,0,1.3129,optionLeft,40,2425,2,1,0,1,0,1,,,,,,,,,,,,,,,,,,,,,,,,,,,,,,,,,,,,,,,
,,,,,,,,2023-08-16_08h48.42.037,HF_wild_card,2022.2.4,MacIntel,60.0024001,5e110747dc265f7d25341439,64d2fd46c836a06233681665,64dc7f1c707d0bc38769627f,,,,,,,decisionTrl,resources/DY.BMP,resources/DG.BMP,Door3,0.299974682,0.088060619,1,0,0,0.9469,optionRight,70,2495,2,2,0,2,0,1,,,,,,,,,,,,,,,,,,,,,,,,,,,,,,,,,,,,,,,
,,,,,,,,2023-08-16_08h48.42.037,HF_wild_card,2022.2.4,MacIntel,60.0024001,5e110747dc265f7d25341439,64d2fd46c836a06233681665,64dc7f1c707d0bc38769627f,,,,,,,decisionTrl,resources/DG.BMP,resources/DB.BMP,Door4,0.22593316,0.032732928,1,0,0,1.0302,optionRight,60,2555,2,3,0,3,0,1,,,,,,,,,,,,,,,,,,,,,,,,,,,,,,,,,,,,,,,
,,,,,,,,2023-08-16_08h48.42.037,HF_wild_card,2022.2.4,MacIntel,60.0024001,5e110747dc265f7d25341439,64d2fd46c836a06233681665,64dc7f1c707d0bc38769627f,,,,,,,decisionTrl,resources/DR.BMP,resources/DP.BMP,Door2,-0.228070747,0.002980324,1,0,0,1.0847,optionLeft,40,2595,2,4,0,4,0,1,,,,,,,,,,,,,,,,,,,,,,,,,,,,,,,,,,,,,,,
,,,,,,,,2023-08-16_08h48.42.037,HF_wild_card,2022.2.4,MacIntel,60.0024001,5e110747dc265f7d25341439,64d2fd46c836a06233681665,64dc7f1c707d0bc38769627f,,,,,,,decisionTrl,resources/DP.BMP,resources/DR.BMP,Door1,-0.170735677,0.012156395,1,0,0,1.0304,optionLeft,30,2625,2,5,0,5,0,1,,,,,,,,,,,,,,,,,,,,,,,,,,,,,,,,,,,,,,,
,,,,,,,,2023-08-16_08h48.42.037,HF_wild_card,2022.2.4,MacIntel,60.0024001,5e110747dc265f7d25341439,64d2fd46c836a06233681665,64dc7f1c707d0bc38769627f,,,,,,,sngl,resources/DR.BMP,resources/Empty.png,Door2,-0.282215712,0.00859375,1,0,0,0.6484,optionLeft,20,2645,2,6,0,6,0,1,,,,,,,,,,,,,,,,,,,,,,,,,,,,,,,,,,,,,,,
,,,,,,,,2023-08-16_08h48.42.037,HF_wild_card,2022.2.4,MacIntel,60.0024001,5e110747dc265f7d25341439,64d2fd46c836a06233681665,64dc7f1c707d0bc38769627f,,,,,,,decisionTrl,resources/DY.BMP,resources/DP.BMP,WildCard_NonEx,-0.206759983,-0.01395761,1,0,0,1.3825,optionLeft,45,2690,2,7,0,7,0,1,,,,,,,,,,,,,,,,,,,,,,,,,,,,,,,,,,,,,,,
,,,,,,,,2023-08-16_08h48.42.037,HF_wild_card,2022.2.4,MacIntel,60.0024001,5e110747dc265f7d25341439,64d2fd46c836a06233681665,64dc7f1c707d0bc38769627f,,,,,,,decisionTrl,resources/DB.BMP,resources/DG.BMP,Door4,-0.245789931,-0.00787037,1,0,0,0.8157,optionLeft,80,2770,2,8,0,8,0,1,,,,,,,,,,,,,,,,,,,,,,,,,,,,,,,,,,,,,,,
,,,,,,,,2023-08-16_08h48.42.037,HF_wild_card,2022.2.4,MacIntel,60.0024001,5e110747dc265f7d25341439,64d2fd46c836a06233681665,64dc7f1c707d0bc38769627f,,,,,,,sngl,resources/Empty.png,resources/DG.BMP,Door3,0.337630208,0.017610677,1,0,0,0.9335,optionRight,70,2840,2,9,0,9,0,1,,,,,,,,,,,,,,,,,,,,,,,,,,,,,,,,,,,,,,,
,,,,,,,,2023-08-16_08h48.42.037,HF_wild_card,2022.2.4,MacIntel,60.0024001,5e110747dc265f7d25341439,64d2fd46c836a06233681665,64dc7f1c707d0bc38769627f,,,,,,,decisionTrl,resources/DG.BMP,resources/DY.BMP,Door3,-0.250296586,-0.008496094,1,0,0,0.6634,optionLeft,70,2910,2,10,0,10,0,1,,,,,,,,,,,,,,,,,,,,,,,,,,,,,,,,,,,,,,,
,,,,,,,,2023-08-16_08h48.42.037,HF_wild_card,2022.2.4,MacIntel,60.0024001,5e110747dc265f7d25341439,64d2fd46c836a06233681665,64dc7f1c707d0bc38769627f,,,,,,,sngl,resources/Empty.png,resources/DY.BMP,WildCard_NonEx,0.313288484,-0.010355179,1,0,0,0.5457,optionRight,55,2965,2,11,0,11,0,1,,,,,,,,,,,,,,,,,,,,,,,,,,,,,,,,,,,,,,,
,,,,,,,,2023-08-16_08h48.42.037,HF_wild_card,2022.2.4,MacIntel,60.0024001,5e110747dc265f7d25341439,64d2fd46c836a06233681665,64dc7f1c707d0bc38769627f,,,,,,,sngl,resources/Empty.png,resources/DY.BMP,WildCard_NonEx,0.195352286,-0.009534144,1,0,0,0.6313,optionRight,45,3010,2,12,0,12,0,1,,,,,,,,,,,,,,,,,,,,,,,,,,,,,,,,,,,,,,,
,,,,,,,,2023-08-16_08h48.42.037,HF_wild_card,2022.2.4,MacIntel,60.0024001,5e110747dc265f7d25341439,64d2fd46c836a06233681665,64dc7f1c707d0bc38769627f,,,,,,,decisionTrl,resources/DG.BMP,resources/DB.BMP,Door4,0.194104456,0.023556858,1,0,0,1.0786,optionRight,60,3070,2,13,0,13,0,1,,,,,,,,,,,,,,,,,,,,,,,,,,,,,,,,,,,,,,,
,,,,,,,,2023-08-16_08h48.42.037,HF_wild_card,2022.2.4,MacIntel,60.0024001,5e110747dc265f7d25341439,64d2fd46c836a06233681665,64dc7f1c707d0bc38769627f,,,,,,,decisionTrl,resources/DG.BMP,resources/DB.BMP,Door4,0.184125434,0.024620226,1,0,0,0.6961,optionRight,60,3130,2,14,0,14,0,1,,,,,,,,,,,,,,,,,,,,,,,,,,,,,,,,,,,,,,,
,,,,,,,,2023-08-16_08h48.42.037,HF_wild_card,2022.2.4,MacIntel,60.0024001,5e110747dc265f7d25341439,64d2fd46c836a06233681665,64dc7f1c707d0bc38769627f,,,,,,,ctch,resources/DB.BMP,resources/DP.BMP,Door4,-0.223802807,-0.001019965,1,0,0,1.0137,optionLeft,60,3190,2,15,0,15,0,1,,,,,,,,,,,,,,,,,,,,,,,,,,,,,,,,,,,,,,,
,,,,,,,,2023-08-16_08h48.42.037,HF_wild_card,2022.2.4,MacIntel,60.0024001,5e110747dc265f7d25341439,64d2fd46c836a06233681665,64dc7f1c707d0bc38769627f,,,,,,,decisionTrl,resources/DY.BMP,resources/DB.BMP,Door4,0.198415799,0.040509259,1,0,0,0.8135,optionRight,60,3250,2,16,0,16,0,1,,,,,,,,,,,,,,,,,,,,,,,,,,,,,,,,,,,,,,,
,,,,,,,,2023-08-16_08h48.42.037,HF_wild_card,2022.2.4,MacIntel,60.0024001,5e110747dc265f7d25341439,64d2fd46c836a06233681665,64dc7f1c707d0bc38769627f,,,,,,,sngl,resources/DY.BMP,resources/Empty.png,WildCard_NonEx,-0.161953848,0.003490307,1,0,0,0.5494,optionLeft,55,3305,2,17,0,17,0,1,,,,,,,,,,,,,,,,,,,,,,,,,,,,,,,,,,,,,,,
,,,,,,,,2023-08-16_08h48.42.037,HF_wild_card,2022.2.4,MacIntel,60.0024001,5e110747dc265f7d25341439,64d2fd46c836a06233681665,64dc7f1c707d0bc38769627f,,,,,,,decisionTrl,resources/DR.BMP,resources/DY.BMP,WildCard_NonEx,0.285489005,0.050687211,1,0,0,0.8643,optionRight,55,3360,2,18,0,18,0,1,,,,,,,,,,,,,,,,,,,,,,,,,,,,,,,,,,,,,,,
,,,,,,,,2023-08-16_08h48.42.037,HF_wild_card,2022.2.4,MacIntel,60.0024001,5e110747dc265f7d25341439,64d2fd46c836a06233681665,64dc7f1c707d0bc38769627f,,,,,,,decisionTrl,resources/DB.BMP,resources/DG.BMP,Door3,0.244382957,0.071542245,1,0,0,1.2289,optionRight,70,3430,2,19,0,19,0,1,,,,,,,,,,,,,,,,,,,,,,,,,,,,,,,,,,,,,,,
,,,,,,,,2023-08-16_08h48.42.037,HF_wild_card,2022.2.4,MacIntel,60.0024001,5e110747dc265f7d25341439,64d2fd46c836a06233681665,64dc7f1c707d0bc38769627f,,,,,,,decisionTrl,resources/DY.BMP,resources/DR.BMP,WildCard_NonEx,-0.241319444,0.043449797,1,0,0,1.1623,optionLeft,55,3485,2,20,0,20,0,1,,,,,,,,,,,,,,,,,,,,,,,,,,,,,,,,,,,,,,,
,,,,,,,,2023-08-16_08h48.42.037,HF_wild_card,2022.2.4,MacIntel,60.0024001,5e110747dc265f7d25341439,64d2fd46c836a06233681665,64dc7f1c707d0bc38769627f,,,,,,,ctch,resources/DP.BMP,resources/DB.BMP,Door4,0.255096209,0.097070313,1,0,0,0.8644,optionRight,80,3565,2,21,0,21,0,1,,,,,,,,,,,,,,,,,,,,,,,,,,,,,,,,,,,,,,,
,,,,,,,,2023-08-16_08h48.42.037,HF_wild_card,2022.2.4,MacIntel,60.0024001,5e110747dc265f7d25341439,64d2fd46c836a06233681665,64dc7f1c707d0bc38769627f,,,,,,,sngl,resources/Empty.png,resources/DR.BMP,Door2,0.276663773,0.021209491,1,0,0,0.8297,optionRight,40,3605,2,22,0,22,0,1,,,,,,,,,,,,,,,,,,,,,,,,,,,,,,,,,,,,,,,
,,,,,,,,2023-08-16_08h48.42.037,HF_wild_card,2022.2.4,MacIntel,60.0024001,5e110747dc265f7d25341439,64d2fd46c836a06233681665,64dc7f1c707d0bc38769627f,,,,,,,decisionTrl,resources/DB.BMP,resources/DY.BMP,Door4,-0.292299624,0.060101997,1,0,0,0.9485,optionLeft,60,3665,2,23,0,23,0,1,,,,,,,,,,,,,,,,,,,,,,,,,,,,,,,,,,,,,,,
,,,,,,,,2023-08-16_08h48.42.037,HF_wild_card,2022.2.4,MacIntel,60.0024001,5e110747dc265f7d25341439,64d2fd46c836a06233681665,64dc7f1c707d0bc38769627f,,,,,,,ctch,resources/DG.BMP,resources/DR.BMP,Door3,-0.255805122,0.071629051,1,0,0,1.1313,optionLeft,70,3735,2,24,0,24,0,1,,,,,,,,,,,,,,,,,,,,,,,,,,,,,,,,,,,,,,,
,,,,,,,,2023-08-16_08h48.42.037,HF_wild_card,2022.2.4,MacIntel,60.0024001,5e110747dc265f7d25341439,64d2fd46c836a06233681665,64dc7f1c707d0bc38769627f,,,,,,,decisionTrl,resources/DP.BMP,resources/DY.BMP,WildCard_NonEx,0.258239294,0.107154225,1,0,0,2.0635,optionRight,45,3780,2,25,0,25,0,1,,,,,,,,,,,,,,,,,,,,,,,,,,,,,,,,,,,,,,,
,,,,,,,,2023-08-16_08h48.42.037,HF_wild_card,2022.2.4,MacIntel,60.0024001,5e110747dc265f7d25341439,64d2fd46c836a06233681665,64dc7f1c707d0bc38769627f,,,,,,,decisionTrl,resources/DB.BMP,resources/DG.BMP,Door4,-0.220959925,0.059009693,1,0,0,0.7976,optionLeft,80,3860,2,26,0,26,0,1,,,,,,,,,,,,,,,,,,,,,,,,,,,,,,,,,,,,,,,
,,,,,,,,2023-08-16_08h48.42.037,HF_wild_card,2022.2.4,MacIntel,60.0024001,5e110747dc265f7d25341439,64d2fd46c836a06233681665,64dc7f1c707d0bc38769627f,,,,,,,decisionTrl,resources/DP.BMP,resources/DR.BMP,Door1,-0.16437717,0.039246962,1,0,0,1.8637,optionLeft,30,3890,2,27,0,27,0,1,,,,,,,,,,,,,,,,,,,,,,,,,,,,,,,,,,,,,,,
,,,,,,,,2023-08-16_08h48.42.037,HF_wild_card,2022.2.4,MacIntel,60.0024001,5e110747dc265f7d25341439,64d2fd46c836a06233681665,64dc7f1c707d0bc38769627f,,,,,,,ctch,resources/DR.BMP,resources/DG.BMP,Door3,0.31317636,0.078732639,1,0,0,1.0136,optionRight,70,3960,2,28,0,28,0,1,,,,,,,,,,,,,,,,,,,,,,,,,,,,,,,,,,,,,,,
,,,,,,,,2023-08-16_08h48.42.037,HF_wild_card,2022.2.4,MacIntel,60.0024001,5e110747dc265f7d25341439,64d2fd46c836a06233681665,64dc7f1c707d0bc38769627f,,,,,,,ctch,resources/DP.BMP,resources/DB.BMP,Door4,0.239312066,0.058416522,1,0,0,0.7947,optionRight,60,4020,2,29,0,29,0,1,,,,,,,,,,,,,,,,,,,,,,,,,,,,,,,,,,,,,,,
,,,,,,,,2023-08-16_08h48.42.037,HF_wild_card,2022.2.4,MacIntel,60.0024001,5e110747dc265f7d25341439,64d2fd46c836a06233681665,64dc7f1c707d0bc38769627f,,,,,,,decisionTrl,resources/DG.BMP,resources/DB.BMP,Door4,0.47316985,0.063718895,1,0,0,1.2489,optionRight,80,4100,2,30,0,30,0,1,,,,,,,,,,,,,,,,,,,,,,,,,,,,,,,,,,,,,,,
,,,,,,,,2023-08-16_08h48.42.037,HF_wild_card,2022.2.4,MacIntel,60.0024001,5e110747dc265f7d25341439,64d2fd46c836a06233681665,64dc7f1c707d0bc38769627f,,,,,,,ctch,resources/DR.BMP,resources/DG.BMP,Door3,0.277531829,0.141956019,1,0,0,1.3464,optionRight,70,4170,2,31,0,31,0,1,,,,,,,,,,,,,,,,,,,,,,,,,,,,,,,,,,,,,,,
,,,,,,,,2023-08-16_08h48.42.037,HF_wild_card,2022.2.4,MacIntel,60.0024001,5e110747dc265f7d25341439,64d2fd46c836a06233681665,64dc7f1c707d0bc38769627f,,,,,,,ctch,resources/DB.BMP,resources/DP.BMP,Door4,-0.274395978,0.09984809,1,0,0,1.3963,optionLeft,80,4250,2,32,0,32,0,1,,,,,,,,,,,,,,,,,,,,,,,,,,,,,,,,,,,,,,,
,,,,,,,,2023-08-16_08h48.42.037,HF_wild_card,2022.2.4,MacIntel,60.0024001,5e110747dc265f7d25341439,64d2fd46c836a06233681665,64dc7f1c707d0bc38769627f,,,,,,,decisionTrl,resources/DP.BMP,resources/DR.BMP,Door2,0.21057581,0.075010851,1,0,0,0.9797,optionRight,40,4290,2,33,0,33,0,1,,,,,,,,,,,,,,,,,,,,,,,,,,,,,,,,,,,,,,,
,,,,,,,,2023-08-16_08h48.42.037,HF_wild_card,2022.2.4,MacIntel,60.0024001,5e110747dc265f7d25341439,64d2fd46c836a06233681665,64dc7f1c707d0bc38769627f,,,,,,,sngl,resources/DY.BMP,resources/Empty.png,WildCard_NonEx,-0.244393808,0.04729456,1,0,0,0.7483,optionLeft,45,4335,2,34,0,34,0,1,,,,,,,,,,,,,,,,,,,,,,,,,,,,,,,,,,,,,,,
,,,,,,,,2023-08-16_08h48.42.037,HF_wild_card,2022.2.4,MacIntel,60.0024001,5e110747dc265f7d25341439,64d2fd46c836a06233681665,64dc7f1c707d0bc38769627f,,,,,,,sngl,resources/DB.BMP,resources/Empty.png,Door4,-0.213371672,0.036606626,1,0,0,0.6633,optionLeft,60,4395,2,35,0,35,0,1,,,,,,,,,,,,,,,,,,,,,,,,,,,,,,,,,,,,,,,
,,,,,,,,2023-08-16_08h48.42.037,HF_wild_card,2022.2.4,MacIntel,60.0024001,5e110747dc265f7d25341439,64d2fd46c836a06233681665,64dc7f1c707d0bc38769627f,,,,,,,sngl,resources/DP.BMP,resources/Empty.png,Door1,-0.126938657,0.019126157,1,0,0,0.5477,optionLeft,30,4425,2,36,0,36,0,1,,,,,,,,,,,,,,,,,,,,,,,,,,,,,,,,,,,,,,,
,,,,,,,,2023-08-16_08h48.42.037,HF_wild_card,2022.2.4,MacIntel,60.0024001,5e110747dc265f7d25341439,64d2fd46c836a06233681665,64dc7f1c707d0bc38769627f,,,,,,,ctch,resources/DG.BMP,resources/DR.BMP,Door3,-0.147240307,0.030414497,1,0,0,1.079,optionLeft,70,4495,2,37,0,37,0,1,,,,,,,,,,,,,,,,,,,,,,,,,,,,,,,,,,,,,,,
,,,,,,,,2023-08-16_08h48.42.037,HF_wild_card,2022.2.4,MacIntel,60.0024001,5e110747dc265f7d25341439,64d2fd46c836a06233681665,64dc7f1c707d0bc38769627f,,,,,,,sngl,resources/Empty.png,resources/DB.BMP,Door4,-0.036552373,-0.001081453,1,0,0,0.9806,optionRight,80,4575,2,38,0,38,0,1,,,,,,,,,,,,,,,,,,,,,,,,,,,,,,,,,,,,,,,
,,,,,,,,2023-08-16_08h48.42.037,HF_wild_card,2022.2.4,MacIntel,60.0024001,5e110747dc265f7d25341439,64d2fd46c836a06233681665,64dc7f1c707d0bc38769627f,,,,,,,decisionTrl,resources/DR.BMP,resources/DP.BMP,Door2,-0.291699219,0.042317708,1,0,0,1.6149,optionLeft,20,4595,2,39,0,39,0,1,,,,,,,,,,,,,,,,,,,,,,,,,,,,,,,,,,,,,,,
,,,,,,,,2023-08-16_08h48.42.037,HF_wild_card,2022.2.4,MacIntel,60.0024001,5e110747dc265f7d25341439,64d2fd46c836a06233681665,64dc7f1c707d0bc38769627f,,,,,,,sngl,resources/DG.BMP,resources/Empty.png,Door3,-0.344458912,0.049670862,1,0,0,0.7973,optionLeft,70,4665,2,40,0,40,0,1,,,,,,,,,,,,,,,,,,,,,,,,,,,,,,,,,,,,,,,
,,,,,,,,2023-08-16_08h48.42.037,HF_wild_card,2022.2.4,MacIntel,60.0024001,5e110747dc265f7d25341439,64d2fd46c836a06233681665,64dc7f1c707d0bc38769627f,,,,,,,sngl,resources/Empty.png,resources/DP.BMP,Door1,0.398748553,0.052068866,1,0,0,0.6471,optionRight,30,4695,2,41,0,41,0,1,,,,,,,,,,,,,,,,,,,,,,,,,,,,,,,,,,,,,,,
,,,,,,,,2023-08-16_08h48.42.037,HF_wild_card,2022.2.4,MacIntel,60.0024001,5e110747dc265f7d25341439,64d2fd46c836a06233681665,64dc7f1c707d0bc38769627f,,,,,,,decisionTrl,resources/DB.BMP,resources/DG.BMP,Door4,-0.267813223,0.082472512,1,0,0,1.2974,optionLeft,60,4755,2,42,0,42,0,1,,,,,,,,,,,,,,,,,,,,,,,,,,,,,,,,,,,,,,,
,,,,,,,,2023-08-16_08h48.42.037,HF_wild_card,2022.2.4,MacIntel,60.0024001,5e110747dc265f7d25341439,64d2fd46c836a06233681665,64dc7f1c707d0bc38769627f,,,,,,,decisionTrl,resources/DR.BMP,resources/DP.BMP,Door2,-0.209997106,0.119053819,1,0,0,1.1798,optionLeft,20,4775,2,43,0,43,0,1,,,,,,,,,,,,,,,,,,,,,,,,,,,,,,,,,,,,,,,
,,,,,,,,2023-08-16_08h48.42.037,HF_wild_card,2022.2.4,MacIntel,60.0024001,5e110747dc265f7d25341439,64d2fd46c836a06233681665,64dc7f1c707d0bc38769627f,,,,,,,,,,,,,,,,,,,,,,,,,,1,0,1,0,1,,,,,,,,,,,,,,,,,,,,,,,,,,,,,,,,,,
,,,,,,,,2023-08-16_08h48.42.037,HF_wild_card,2022.2.4,MacIntel,60.0024001,5e110747dc265f7d25341439,64d2fd46c836a06233681665,64dc7f1c707d0bc38769627f,,,,,,,ctch,resources/DG.BMP,resources/DR.BMP,Door3,-0.357559317,0.069419126,1,0,0,1.7656,optionLeft,70,4845,3,0,0,0,0,1,,,,,,,,,,,,,,,,,,,,,,,,,,,,,,,,,,,,,,,
,,,,,,,,2023-08-16_08h48.42.037,HF_wild_card,2022.2.4,MacIntel,60.0024001,5e110747dc265f7d25341439,64d2fd46c836a06233681665,64dc7f1c707d0bc38769627f,,,,,,,decisionTrl,resources/DG.BMP,resources/DB.BMP,Door4,0.214865451,0.065899884,1,0,0,1.2313,optionRight,60,4905,3,1,0,1,0,1,,,,,,,,,,,,,,,,,,,,,,,,,,,,,,,,,,,,,,,
,,,,,,,,2023-08-16_08h48.42.037,HF_wild_card,2022.2.4,MacIntel,60.0024001,5e110747dc265f7d25341439,64d2fd46c836a06233681665,64dc7f1c707d0bc38769627f,,,,,,,sngl,resources/DR.BMP,resources/Empty.png,Door2,-0.232606337,0.045891204,1,0,0,0.88,optionLeft,40,4945,3,2,0,2,0,1,,,,,,,,,,,,,,,,,,,,,,,,,,,,,,,,,,,,,,,
,,,,,,,,2023-08-16_08h48.42.037,HF_wild_card,2022.2.4,MacIntel,60.0024001,5e110747dc265f7d25341439,64d2fd46c836a06233681665,64dc7f1c707d0bc38769627f,,,,,,,sngl,resources/Empty.png,resources/DP.BMP,Door1,0.301262297,0.156966146,1,0,0,0.7276,optionRight,30,4975,3,3,0,3,0,1,,,,,,,,,,,,,,,,,,,,,,,,,,,,,,,,,,,,,,,
,,,,,,,,2023-08-16_08h48.42.037,HF_wild_card,2022.2.4,MacIntel,60.0024001,5e110747dc265f7d25341439,64d2fd46c836a06233681665,64dc7f1c707d0bc38769627f,,,,,,,decisionTrl,resources/DG.BMP,resources/DB.BMP,Door4,0.221137153,0.096437355,1,0,0,1.1137,optionRight,80,5055,3,4,0,4,0,1,,,,,,,,,,,,,,,,,,,,,,,,,,,,,,,,,,,,,,,
,,,,,,,,2023-08-16_08h48.42.037,HF_wild_card,2022.2.4,MacIntel,60.0024001,5e110747dc265f7d25341439,64d2fd46c836a06233681665,64dc7f1c707d0bc38769627f,,,,,,,decisionTrl,resources/DB.BMP,resources/DG.BMP,Door4,-0.231991464,0.049135561,1,0,0,1.098,optionLeft,80,5135,3,5,0,5,0,1,,,,,,,,,,,,,,,,,,,,,,,,,,,,,,,,,,,,,,,
,,,,,,,,2023-08-16_08h48.42.037,HF_wild_card,2022.2.4,MacIntel,60.0024001,5e110747dc265f7d25341439,64d2fd46c836a06233681665,64dc7f1c707d0bc38769627f,,,,,,,decisionTrl,resources/DB.BMP,resources/DY.BMP,Door4,-0.320858652,0.079741753,1,0,0,0.7634,optionLeft,80,5215,3,6,0,6,0,1,,,,,,,,,,,,,,,,,,,,,,,,,,,,,,,,,,,,,,,
,,,,,,,,2023-08-16_08h48.42.037,HF_wild_card,2022.2.4,MacIntel,60.0024001,5e110747dc265f7d25341439,64d2fd46c836a06233681665,64dc7f1c707d0bc38769627f,,,,,,,decisionTrl,resources/DP.BMP,resources/DY.BMP,WildCard_NonEx,0.216804109,0.144357639,1,0,0,0.9306,optionRight,45,5260,3,7,0,7,0,1,,,,,,,,,,,,,,,,,,,,,,,,,,,,,,,,,,,,,,,
,,,,,,,,2023-08-16_08h48.42.037,HF_wild_card,2022.2.4,MacIntel,60.0024001,5e110747dc265f7d25341439,64d2fd46c836a06233681665,64dc7f1c707d0bc38769627f,,,,,,,decisionTrl,resources/DY.BMP,resources/DG.BMP,Door3,-0.026580584,0.137518084,1,0,0,1.1507,optionRight,70,5330,3,8,0,8,0,1,,,,,,,,,,,,,,,,,,,,,,,,,,,,,,,,,,,,,,,
,,,,,,,,2023-08-16_08h48.42.037,HF_wild_card,2022.2.4,MacIntel,60.0024001,5e110747dc265f7d25341439,64d2fd46c836a06233681665,64dc7f1c707d0bc38769627f,,,,,,,decisionTrl,resources/DB.BMP,resources/DG.BMP,Door4,-0.253331163,0.141344763,1,0,0,0.795,optionLeft,80,5410,3,9,0,9,0,1,,,,,,,,,,,,,,,,,,,,,,,,,,,,,,,,,,,,,,,
,,,,,,,,2023-08-16_08h48.42.037,HF_wild_card,2022.2.4,MacIntel,60.0024001,5e110747dc265f7d25341439,64d2fd46c836a06233681665,64dc7f1c707d0bc38769627f,,,,,,,decisionTrl,resources/DP.BMP,resources/DR.BMP,Door2,0.328284144,0.105942564,1,0,0,0.9623,optionRight,40,5450,3,10,0,10,0,1,,,,,,,,,,,,,,,,,,,,,,,,,,,,,,,,,,,,,,,
,,,,,,,,2023-08-16_08h48.42.037,HF_wild_card,2022.2.4,MacIntel,60.0024001,5e110747dc265f7d25341439,64d2fd46c836a06233681665,64dc7f1c707d0bc38769627f,,,,,,,decisionTrl,resources/DR.BMP,resources/DP.BMP,Door2,-0.333199508,0.141851128,1,0,0,1.0982,optionLeft,20,5470,3,11,0,11,0,1,,,,,,,,,,,,,,,,,,,,,,,,,,,,,,,,,,,,,,,
,,,,,,,,2023-08-16_08h48.42.037,HF_wild_card,2022.2.4,MacIntel,60.0024001,5e110747dc265f7d25341439,64d2fd46c836a06233681665,64dc7f1c707d0bc38769627f,,,,,,,decisionTrl,resources/DG.BMP,resources/DB.BMP,Door4,0.280277054,0.125075955,1,0,0,1.1137,optionRight,60,5530,3,12,0,12,0,1,,,,,,,,,,,,,,,,,,,,,,,,,,,,,,,,,,,,,,,
,,,,,,,,2023-08-16_08h48.42.037,HF_wild_card,2022.2.4,MacIntel,60.0024001,5e110747dc265f7d25341439,64d2fd46c836a06233681665,64dc7f1c707d0bc38769627f,,,,,,,decisionTrl,resources/DP.BMP,resources/DR.BMP,Door2,0.300528067,0.154539207,1,0,0,2.496,optionRight,40,5570,3,13,0,13,0,1,,,,,,,,,,,,,,,,,,,,,,,,,,,,,,,,,,,,,,,
,,,,,,,,2023-08-16_08h48.42.037,HF_wild_card,2022.2.4,MacIntel,60.0024001,5e110747dc265f7d25341439,64d2fd46c836a06233681665,64dc7f1c707d0bc38769627f,,,,,,,decisionTrl,resources/DR.BMP,resources/DP.BMP,Door1,0.357071036,0.11885489,1,0,0,0.9825,optionRight,30,5600,3,14,0,14,0,1,,,,,,,,,,,,,,,,,,,,,,,,,,,,,,,,,,,,,,,
,,,,,,,,2023-08-16_08h48.42.037,HF_wild_card,2022.2.4,MacIntel,60.0024001,5e110747dc265f7d25341439,64d2fd46c836a06233681665,64dc7f1c707d0bc38769627f,,,,,,,sngl,resources/DG.BMP,resources/Empty.png,Door3,-0.28822338,0.096820747,1,0,0,0.745,optionLeft,70,5670,3,15,0,15,0,1,,,,,,,,,,,,,,,,,,,,,,,,,,,,,,,,,,,,,,,
,,,,,,,,2023-08-16_08h48.42.037,HF_wild_card,2022.2.4,MacIntel,60.0024001,5e110747dc265f7d25341439,64d2fd46c836a06233681665,64dc7f1c707d0bc38769627f,,,,,,,decisionTrl,resources/DB.BMP,resources/DG.BMP,Door3,0.435568576,0.084819878,1,0,0,1.6466,optionRight,70,5740,3,16,0,16,0,1,,,,,,,,,,,,,,,,,,,,,,,,,,,,,,,,,,,,,,,
,,,,,,,,2023-08-16_08h48.42.037,HF_wild_card,2022.2.4,MacIntel,60.0024001,5e110747dc265f7d25341439,64d2fd46c836a06233681665,64dc7f1c707d0bc38769627f,,,,,,,ctch,resources/DR.BMP,resources/DG.BMP,Door3,0.257356771,0.112807436,1,0,0,1.0964,optionRight,70,5810,3,17,0,17,0,1,,,,,,,,,,,,,,,,,,,,,,,,,,,,,,,,,,,,,,,
,,,,,,,,2023-08-16_08h48.42.037,HF_wild_card,2022.2.4,MacIntel,60.0024001,5e110747dc265f7d25341439,64d2fd46c836a06233681665,64dc7f1c707d0bc38769627f,,,,,,,sngl,resources/Empty.png,resources/DB.BMP,Door4,0.180497685,0.085579427,1,0,0,0.713,optionRight,60,5870,3,18,0,18,0,1,,,,,,,,,,,,,,,,,,,,,,,,,,,,,,,,,,,,,,,
,,,,,,,,2023-08-16_08h48.42.037,HF_wild_card,2022.2.4,MacIntel,60.0024001,5e110747dc265f7d25341439,64d2fd46c836a06233681665,64dc7f1c707d0bc38769627f,,,,,,,decisionTrl,resources/DY.BMP,resources/DB.BMP,WildCard_NonEx,-0.26026114,0.078624132,1,0,0,1.8109,optionLeft,45,5915,3,19,0,19,0,1,,,,,,,,,,,,,,,,,,,,,,,,,,,,,,,,,,,,,,,
,,,,,,,,2023-08-16_08h48.42.037,HF_wild_card,2022.2.4,MacIntel,60.0024001,5e110747dc265f7d25341439,64d2fd46c836a06233681665,64dc7f1c707d0bc38769627f,,,,,,,decisionTrl,resources/DR.BMP,resources/DP.BMP,Door1,0.2713614,0.129908131,1,0,0,1.0314,optionRight,30,5945,3,20,0,20,0,1,,,,,,,,,,,,,,,,,,,,,,,,,,,,,,,,,,,,,,,
,,,,,,,,2023-08-16_08h48.42.037,HF_wild_card,2022.2.4,MacIntel,60.0024001,5e110747dc265f7d25341439,64d2fd46c836a06233681665,64dc7f1c707d0bc38769627f,,,,,,,decisionTrl,resources/DY.BMP,resources/DR.BMP,Door2,0.38765191,0.062999132,1,0,0,1.164,optionRight,20,5965,3,21,0,21,0,1,,,,,,,,,,,,,,,,,,,,,,,,,,,,,,,,,,,,,,,
,,,,,,,,2023-08-16_08h48.42.037,HF_wild_card,2022.2.4,MacIntel,60.0024001,5e110747dc265f7d25341439,64d2fd46c836a06233681665,64dc7f1c707d0bc38769627f,,,,,,,sngl,resources/Empty.png,resources/DY.BMP,WildCard_NonEx,0.279748987,0.08754702,1,0,0,0.7127,optionRight,45,6010,3,22,0,22,0,1,,,,,,,,,,,,,,,,,,,,,,,,,,,,,,,,,,,,,,,
,,,,,,,,2023-08-16_08h48.42.037,HF_wild_card,2022.2.4,MacIntel,60.0024001,5e110747dc265f7d25341439,64d2fd46c836a06233681665,64dc7f1c707d0bc38769627f,,,,,,,ctch,resources/DR.BMP,resources/DG.BMP,Door3,0.238498264,0.069675926,1,0,0,0.9996,optionRight,70,6080,3,23,0,23,0,1,,,,,,,,,,,,,,,,,,,,,,,,,,,,,,,,,,,,,,,
,,,,,,,,2023-08-16_08h48.42.037,HF_wild_card,2022.2.4,MacIntel,60.0024001,5e110747dc265f7d25341439,64d2fd46c836a06233681665,64dc7f1c707d0bc38769627f,,,,,,,decisionTrl,resources/DG.BMP,resources/DB.BMP,Door4,0.236248553,0.056340422,1,0,0,0.7943,optionRight,60,6140,3,24,0,24,0,1,,,,,,,,,,,,,,,,,,,,,,,,,,,,,,,,,,,,,,,
,,,,,,,,2023-08-16_08h48.42.037,HF_wild_card,2022.2.4,MacIntel,60.0024001,5e110747dc265f7d25341439,64d2fd46c836a06233681665,64dc7f1c707d0bc38769627f,,,,,,,ctch,resources/DB.BMP,resources/DP.BMP,Door4,-0.242737269,0.068149595,1,0,0,0.6974,optionLeft,60,6200,3,25,0,25,0,1,,,,,,,,,,,,,,,,,,,,,,,,,,,,,,,,,,,,,,,
,,,,,,,,2023-08-16_08h48.42.037,HF_wild_card,2022.2.4,MacIntel,60.0024001,5e110747dc265f7d25341439,64d2fd46c836a06233681665,64dc7f1c707d0bc38769627f,,,,,,,ctch,resources/DP.BMP,resources/DB.BMP,Door4,0.228989439,0.075871672,1,0,0,0.697,optionRight,80,6280,3,26,0,26,0,1,,,,,,,,,,,,,,,,,,,,,,,,,,,,,,,,,,,,,,,
,,,,,,,,2023-08-16_08h48.42.037,HF_wild_card,2022.2.4,MacIntel,60.0024001,5e110747dc265f7d25341439,64d2fd46c836a06233681665,64dc7f1c707d0bc38769627f,,,,,,,sngl,resources/DB.BMP,resources/Empty.png,Door4,-0.298770255,0.055714699,1,0,0,0.6454,optionLeft,80,6360,3,27,0,27,0,1,,,,,,,,,,,,,,,,,,,,,,,,,,,,,,,,,,,,,,,
,,,,,,,,2023-08-16_08h48.42.037,HF_wild_card,2022.2.4,MacIntel,60.0024001,5e110747dc265f7d25341439,64d2fd46c836a06233681665,64dc7f1c707d0bc38769627f,,,,,,,sngl,resources/Empty.png,resources/DR.BMP,Door2,0.131723814,0.032826968,1,0,0,0.7641,optionRight,20,6380,3,28,0,28,0,1,,,,,,,,,,,,,,,,,,,,,,,,,,,,,,,,,,,,,,,
,,,,,,,,2023-08-16_08h48.42.037,HF_wild_card,2022.2.4,MacIntel,60.0024001,5e110747dc265f7d25341439,64d2fd46c836a06233681665,64dc7f1c707d0bc38769627f,,,,,,,ctch,resources/DP.BMP,resources/DB.BMP,Door4,0.213566985,0.083713108,1,0,0,0.9983,optionRight,80,6460,3,29,0,29,0,1,,,,,,,,,,,,,,,,,,,,,,,,,,,,,,,,,,,,,,,
,,,,,,,,2023-08-16_08h48.42.037,HF_wild_card,2022.2.4,MacIntel,60.0024001,5e110747dc265f7d25341439,64d2fd46c836a06233681665,64dc7f1c707d0bc38769627f,,,,,,,ctch,resources/DG.BMP,resources/DR.BMP,Door3,-0.208865017,0.075520833,1,0,0,0.8468,optionLeft,70,6530,3,30,0,30,0,1,,,,,,,,,,,,,,,,,,,,,,,,,,,,,,,,,,,,,,,
,,,,,,,,2023-08-16_08h48.42.037,HF_wild_card,2022.2.4,MacIntel,60.0024001,5e110747dc265f7d25341439,64d2fd46c836a06233681665,64dc7f1c707d0bc38769627f,,,,,,,sngl,resources/DY.BMP,resources/Empty.png,WildCard_NonEx,-0.174233218,0.040664786,1,0,0,0.8954,optionLeft,45,6575,3,31,0,31,0,1,,,,,,,,,,,,,,,,,,,,,,,,,,,,,,,,,,,,,,,
,,,,,,,,2023-08-16_08h48.42.037,HF_wild_card,2022.2.4,MacIntel,60.0024001,5e110747dc265f7d25341439,64d2fd46c836a06233681665,64dc7f1c707d0bc38769627f,,,,,,,decisionTrl,resources/DB.BMP,resources/DG.BMP,Door3,0.215118634,0.067632378,1,0,0,1.3316,optionRight,70,6645,3,32,0,32,0,1,,,,,,,,,,,,,,,,,,,,,,,,,,,,,,,,,,,,,,,
,,,,,,,,2023-08-16_08h48.42.037,HF_wild_card,2022.2.4,MacIntel,60.0024001,5e110747dc265f7d25341439,64d2fd46c836a06233681665,64dc7f1c707d0bc38769627f,,,,,,,decisionTrl,resources/DG.BMP,resources/DY.BMP,Door3,-0.152264178,0.07014974,1,0,0,0.8135,optionLeft,70,6715,3,33,0,33,0,1,,,,,,,,,,,,,,,,,,,,,,,,,,,,,,,,,,,,,,,
,,,,,,,,2023-08-16_08h48.42.037,HF_wild_card,2022.2.4,MacIntel,60.0024001,5e110747dc265f7d25341439,64d2fd46c836a06233681665,64dc7f1c707d0bc38769627f,,,,,,,sngl,resources/DY.BMP,resources/Empty.png,WildCard_NonEx,-0.142154948,0.054759838,1,0,0,0.7287,optionLeft,55,6770,3,34,0,34,0,1,,,,,,,,,,,,,,,,,,,,,,,,,,,,,,,,,,,,,,,
,,,,,,,,2023-08-16_08h48.42.037,HF_wild_card,2022.2.4,MacIntel,60.0024001,5e110747dc265f7d25341439,64d2fd46c836a06233681665,64dc7f1c707d0bc38769627f,,,,,,,sngl,resources/Empty.png,resources/DG.BMP,Door3,0.255776186,0.035402199,1,0,0,0.666,optionRight,70,6840,3,35,0,35,0,1,,,,,,,,,,,,,,,,,,,,,,,,,,,,,,,,,,,,,,,
,,,,,,,,2023-08-16_08h48.42.037,HF_wild_card,2022.2.4,MacIntel,60.0024001,5e110747dc265f7d25341439,64d2fd46c836a06233681665,64dc7f1c707d0bc38769627f,,,,,,,decisionTrl,resources/DY.BMP,resources/DP.BMP,WildCard_NonEx,-0.143417245,0.045131655,1,0,0,1.1286,optionLeft,45,6885,3,36,0,36,0,1,,,,,,,,,,,,,,,,,,,,,,,,,,,,,,,,,,,,,,,
,,,,,,,,2023-08-16_08h48.42.037,HF_wild_card,2022.2.4,MacIntel,60.0024001,5e110747dc265f7d25341439,64d2fd46c836a06233681665,64dc7f1c707d0bc38769627f,,,,,,,decisionTrl,resources/DR.BMP,resources/DY.BMP,WildCard_NonEx,0.361935764,0.089297598,1,0,0,1.2299,optionRight,55,6940,3,37,0,37,0,1,,,,,,,,,,,,,,,,,,,,,,,,,,,,,,,,,,,,,,,
,,,,,,,,2023-08-16_08h48.42.037,HF_wild_card,2022.2.4,MacIntel,60.0024001,5e110747dc265f7d25341439,64d2fd46c836a06233681665,64dc7f1c707d0bc38769627f,,,,,,,ctch,resources/DB.BMP,resources/DP.BMP,Door4,-0.303125,0.074424913,1,0,0,0.9129,optionLeft,60,7000,3,38,0,38,0,1,,,,,,,,,,,,,,,,,,,,,,,,,,,,,,,,,,,,,,,
,,,,,,,,2023-08-16_08h48.42.037,HF_wild_card,2022.2.4,MacIntel,60.0024001,5e110747dc265f7d25341439,64d2fd46c836a06233681665,64dc7f1c707d0bc38769627f,,,,,,,decisionTrl,resources/DR.BMP,resources/DP.BMP,Door2,-0.219697627,0.078493924,1,0,0,1.6668,optionLeft,40,7040,3,39,0,39,0,1,,,,,,,,,,,,,,,,,,,,,,,,,,,,,,,,,,,,,,,
,,,,,,,,2023-08-16_08h48.42.037,HF_wild_card,2022.2.4,MacIntel,60.0024001,5e110747dc265f7d25341439,64d2fd46c836a06233681665,64dc7f1c707d0bc38769627f,,,,,,,sngl,resources/Empty.png,resources/DY.BMP,WildCard_NonEx,0.331528501,0.090968605,1,0,0,0.6485,optionRight,55,7095,3,40,0,40,0,1,,,,,,,,,,,,,,,,,,,,,,,,,,,,,,,,,,,,,,,
,,,,,,,,2023-08-16_08h48.42.037,HF_wild_card,2022.2.4,MacIntel,60.0024001,5e110747dc265f7d25341439,64d2fd46c836a06233681665,64dc7f1c707d0bc38769627f,,,,,,,sngl,resources/DP.BMP,resources/Empty.png,Door1,-0.178841146,0.068344907,1,0,0,0.6978,optionLeft,30,7125,3,41,0,41,0,1,,,,,,,,,,,,,,,,,,,,,,,,,,,,,,,,,,,,,,,
,,,,,,,,2023-08-16_08h48.42.037,HF_wild_card,2022.2.4,MacIntel,60.0024001,5e110747dc265f7d25341439,64d2fd46c836a06233681665,64dc7f1c707d0bc38769627f,,,,,,,decisionTrl,resources/DP.BMP,resources/DR.BMP,Door2,0.218156829,0.014293981,1,0,0,1.4475,optionRight,40,7165,3,42,0,42,0,1,,,,,,,,,,,,,,,,,,,,,,,,,,,,,,,,,,,,,,,
,,,,,,,,2023-08-16_08h48.42.037,HF_wild_card,2022.2.4,MacIntel,60.0024001,5e110747dc265f7d25341439,64d2fd46c836a06233681665,64dc7f1c707d0bc38769627f,,,,,,,decisionTrl,resources/DP.BMP,resources/DR.BMP,Door2,0.362377025,0.026971209,1,0,0,1.0482,optionRight,40,7205,3,43,0,43,0,1,,,,,,,,,,,,,,,,,,,,,,,,,,,,,,,,,,,,,,,
,,,,,,,,2023-08-16_08h48.42.037,HF_wild_card,2022.2.4,MacIntel,60.0024001,5e110747dc265f7d25341439,64d2fd46c836a06233681665,64dc7f1c707d0bc38769627f,,,,,,,,,,,,,,,,,,,,,,,,,,2,0,2,0,1,,,,,,,,,,,,,,,,,,,,,,,,,,,,,,,,,,
,,,,,,,,2023-08-16_08h48.42.037,HF_wild_card,2022.2.4,MacIntel,60.0024001,5e110747dc265f7d25341439,64d2fd46c836a06233681665,64dc7f1c707d0bc38769627f,,,,,,,sngl,resources/Empty.png,resources/DBN.BMP,WildCard_Ex,0.393811487,-0.13353588,1,0,0,1.2825,optionRight,55,7260,4,0,0,0,0,1,,,,,,,,,,,,,,,,,,,,,,,,,,,,,,,,,,,,,,,
,,,,,,,,2023-08-16_08h48.42.037,HF_wild_card,2022.2.4,MacIntel,60.0024001,5e110747dc265f7d25341439,64d2fd46c836a06233681665,64dc7f1c707d0bc38769627f,,,,,,,ctch,resources/DB.BMP,resources/DP.BMP,Door4,-0.376844618,0.030902778,1,0,0,0.8777,optionLeft,80,7340,4,1,0,1,0,1,,,,,,,,,,,,,,,,,,,,,,,,,,,,,,,,,,,,,,,
,,,,,,,,2023-08-16_08h48.42.037,HF_wild_card,2022.2.4,MacIntel,60.0024001,5e110747dc265f7d25341439,64d2fd46c836a06233681665,64dc7f1c707d0bc38769627f,,,,,,,decisionTrl,resources/DP.BMP,resources/DBN.BMP,WildCard_Ex,0.368359375,0.111414931,1,0,0,1.4495,optionRight,55,7395,4,2,0,2,0,1,,,,,,,,,,,,,,,,,,,,,,,,,,,,,,,,,,,,,,,
,,,,,,,,2023-08-16_08h48.42.037,HF_wild_card,2022.2.4,MacIntel,60.0024001,5e110747dc265f7d25341439,64d2fd46c836a06233681665,64dc7f1c707d0bc38769627f,,,,,,,decisionTrl,resources/DR.BMP,resources/DP.BMP,Door2,-0.160062211,0.031181279,1,0,0,2.248,optionLeft,40,7435,4,3,0,3,0,1,,,,,,,,,,,,,,,,,,,,,,,,,,,,,,,,,,,,,,,
,,,,,,,,2023-08-16_08h48.42.037,HF_wild_card,2022.2.4,MacIntel,60.0024001,5e110747dc265f7d25341439,64d2fd46c836a06233681665,64dc7f1c707d0bc38769627f,,,,,,,sngl,resources/Empty.png,resources/DR.BMP,Door2,0.404662182,0.068713831,1,0,0,0.6146,optionRight,40,7475,4,4,0,4,0,1,,,,,,,,,,,,,,,,,,,,,,,,,,,,,,,,,,,,,,,
,,,,,,,,2023-08-16_08h48.42.037,HF_wild_card,2022.2.4,MacIntel,60.0024001,5e110747dc265f7d25341439,64d2fd46c836a06233681665,64dc7f1c707d0bc38769627f,,,,,,,decisionTrl,resources/DG.BMP,resources/DB.BMP,Door4,0.161096644,0.120959925,1,0,0,1.095,optionRight,60,7535,4,5,0,5,0,1,,,,,,,,,,,,,,,,,,,,,,,,,,,,,,,,,,,,,,,
,,,,,,,,2023-08-16_08h48.42.037,HF_wild_card,2022.2.4,MacIntel,60.0024001,5e110747dc265f7d25341439,64d2fd46c836a06233681665,64dc7f1c707d0bc38769627f,,,,,,,decisionTrl,resources/DB.BMP,resources/DG.BMP,Door3,0.360246672,0.087084057,1,0,0,0.5786,optionRight,70,7605,4,6,0,6,0,1,,,,,,,,,,,,,,,,,,,,,,,,,,,,,,,,,,,,,,,
,,,,,,,,2023-08-16_08h48.42.037,HF_wild_card,2022.2.4,MacIntel,60.0024001,5e110747dc265f7d25341439,64d2fd46c836a06233681665,64dc7f1c707d0bc38769627f,,,,,,,sngl,resources/Empty.png,resources/DP.BMP,Door1,0.287952112,0.086295573,1,0,0,0.6609,optionRight,30,7635,4,7,0,7,0,1,,,,,,,,,,,,,,,,,,,,,,,,,,,,,,,,,,,,,,,
,,,,,,,,2023-08-16_08h48.42.037,HF_wild_card,2022.2.4,MacIntel,60.0024001,5e110747dc265f7d25341439,64d2fd46c836a06233681665,64dc7f1c707d0bc38769627f,,,,,,,ctch,resources/DG.BMP,resources/DR.BMP,Door3,-0.517104311,0.03203125,1,0,0,0.879,optionLeft,70,7705,4,8,0,8,0,1,,,,,,,,,,,,,,,,,,,,,,,,,,,,,,,,,,,,,,,
,,,,,,,,2023-08-16_08h48.42.037,HF_wild_card,2022.2.4,MacIntel,60.0024001,5e110747dc265f7d25341439,64d2fd46c836a06233681665,64dc7f1c707d0bc38769627f,,,,,,,ctch,resources/DR.BMP,resources/DG.BMP,Door3,0.384646267,0.165086082,1,0,0,0.8805,optionRight,70,7775,4,9,0,9,0,1,,,,,,,,,,,,,,,,,,,,,,,,,,,,,,,,,,,,,,,
,,,,,,,,2023-08-16_08h48.42.037,HF_wild_card,2022.2.4,MacIntel,60.0024001,5e110747dc265f7d25341439,64d2fd46c836a06233681665,64dc7f1c707d0bc38769627f,,,,,,,decisionTrl,resources/DP.BMP,resources/DR.BMP,Door2,0.258091001,0.133391204,1,0,0,1.6314,optionRight,40,7815,4,10,0,10,0,1,,,,,,,,,,,,,,,,,,,,,,,,,,,,,,,,,,,,,,,
,,,,,,,,2023-08-16_08h48.42.037,HF_wild_card,2022.2.4,MacIntel,60.0024001,5e110747dc265f7d25341439,64d2fd46c836a06233681665,64dc7f1c707d0bc38769627f,,,,,,,sngl,resources/Empty.png,resources/DBN.BMP,WildCard_Ex,0.21646412,0.105747251,1,0,0,0.6134,optionRight,45,7860,4,11,0,11,0,1,,,,,,,,,,,,,,,,,,,,,,,,,,,,,,,,,,,,,,,
,,,,,,,,2023-08-16_08h48.42.037,HF_wild_card,2022.2.4,MacIntel,60.0024001,5e110747dc265f7d25341439,64d2fd46c836a06233681665,64dc7f1c707d0bc38769627f,,,,,,,decisionTrl,resources/DR.BMP,resources/DBN.BMP,WildCard_Ex,0.316304977,0.142437066,1,0,0,1.1812,optionRight,55,7915,4,12,0,12,0,1,,,,,,,,,,,,,,,,,,,,,,,,,,,,,,,,,,,,,,,
,,,,,,,,2023-08-16_08h48.42.037,HF_wild_card,2022.2.4,MacIntel,60.0024001,5e110747dc265f7d25341439,64d2fd46c836a06233681665,64dc7f1c707d0bc38769627f,,,,,,,decisionTrl,resources/DG.BMP,resources/DB.BMP,Door3,-0.296806279,0.088067853,1,0,0,1.0141,optionLeft,70,7985,4,13,0,13,0,1,,,,,,,,,,,,,,,,,,,,,,,,,,,,,,,,,,,,,,,
,,,,,,,,2023-08-16_08h48.42.037,HF_wild_card,2022.2.4,MacIntel,60.0024001,5e110747dc265f7d25341439,64d2fd46c836a06233681665,64dc7f1c707d0bc38769627f,,,,,,,sngl,resources/DB.BMP,resources/Empty.png,Door4,-0.290433304,0.118872975,1,0,0,0.7311,optionLeft,60,8045,4,14,0,14,0,1,,,,,,,,,,,,,,,,,,,,,,,,,,,,,,,,,,,,,,,
,,,,,,,,2023-08-16_08h48.42.037,HF_wild_card,2022.2.4,MacIntel,60.0024001,5e110747dc265f7d25341439,64d2fd46c836a06233681665,64dc7f1c707d0bc38769627f,,,,,,,decisionTrl,resources/DBN.BMP,resources/DR.BMP,WildCard_Ex,-0.252510127,0.152177373,1,0,0,1.2318,optionLeft,55,8100,4,15,0,15,0,1,,,,,,,,,,,,,,,,,,,,,,,,,,,,,,,,,,,,,,,
,,,,,,,,2023-08-16_08h48.42.037,HF_wild_card,2022.2.4,MacIntel,60.0024001,5e110747dc265f7d25341439,64d2fd46c836a06233681665,64dc7f1c707d0bc38769627f,,,,,,,decisionTrl,resources/DP.BMP,resources/DR.BMP,Door2,0.206405527,0.080946181,1,0,0,1.4496,optionRight,40,8140,4,16,0,16,0,1,,,,,,,,,,,,,,,,,,,,,,,,,,,,,,,,,,,,,,,
,,,,,,,,2023-08-16_08h48.42.037,HF_wild_card,2022.2.4,MacIntel,60.0024001,5e110747dc265f7d25341439,64d2fd46c836a06233681665,64dc7f1c707d0bc38769627f,,,,,,,sngl,resources/DBN.BMP,resources/Empty.png,WildCard_Ex,-0.191478588,0.054202836,1,0,0,0.6967,optionLeft,45,8185,4,17,0,17,0,1,,,,,,,,,,,,,,,,,,,,,,,,,,,,,,,,,,,,,,,
,,,,,,,,2023-08-16_08h48.42.037,HF_wild_card,2022.2.4,MacIntel,60.0024001,5e110747dc265f7d25341439,64d2fd46c836a06233681665,64dc7f1c707d0bc38769627f,,,,,,,decisionTrl,resources/DBN.BMP,resources/DP.BMP,WildCard_Ex,-0.239746094,0.084233941,1,0,0,1.6304,optionLeft,55,8240,4,18,0,18,0,1,,,,,,,,,,,,,,,,,,,,,,,,,,,,,,,,,,,,,,,
,,,,,,,,2023-08-16_08h48.42.037,HF_wild_card,2022.2.4,MacIntel,60.0024001,5e110747dc265f7d25341439,64d2fd46c836a06233681665,64dc7f1c707d0bc38769627f,,,,,,,decisionTrl,resources/DB.BMP,resources/DBN.BMP,Door4,-0.178515625,0.108760127,1,0,0,1.2131,optionLeft,80,8320,4,19,0,19,0,1,,,,,,,,,,,,,,,,,,,,,,,,,,,,,,,,,,,,,,,
,,,,,,,,2023-08-16_08h48.42.037,HF_wild_card,2022.2.4,MacIntel,60.0024001,5e110747dc265f7d25341439,64d2fd46c836a06233681665,64dc7f1c707d0bc38769627f,,,,,,,decisionTrl,resources/DG.BMP,resources/DB.BMP,Door3,-0.213075087,0.003978588,1,0,0,1.2823,optionLeft,70,8390,4,20,0,20,0,1,,,,,,,,,,,,,,,,,,,,,,,,,,,,,,,,,,,,,,,
,,,,,,,,2023-08-16_08h48.42.037,HF_wild_card,2022.2.4,MacIntel,60.0024001,5e110747dc265f7d25341439,64d2fd46c836a06233681665,64dc7f1c707d0bc38769627f,,,,,,,decisionTrl,resources/DB.BMP,resources/DG.BMP,Door4,-0.212199797,0.035941117,1,0,0,0.6298,optionLeft,80,8470,4,21,0,21,0,1,,,,,,,,,,,,,,,,,,,,,,,,,,,,,,,,,,,,,,,
,,,,,,,,2023-08-16_08h48.42.037,HF_wild_card,2022.2.4,MacIntel,60.0024001,5e110747dc265f7d25341439,64d2fd46c836a06233681665,64dc7f1c707d0bc38769627f,,,,,,,decisionTrl,resources/DG.BMP,resources/DB.BMP,Door4,0.41197555,0.093305122,1,0,0,0.9144,optionRight,60,8530,4,22,0,22,0,1,,,,,,,,,,,,,,,,,,,,,,,,,,,,,,,,,,,,,,,
,,,,,,,,2023-08-16_08h48.42.037,HF_wild_card,2022.2.4,MacIntel,60.0024001,5e110747dc265f7d25341439,64d2fd46c836a06233681665,64dc7f1c707d0bc38769627f,,,,,,,ctch,resources/DP.BMP,resources/DB.BMP,Door4,0.267256221,0.092418981,1,0,0,0.7816,optionRight,60,8590,4,23,0,23,0,1,,,,,,,,,,,,,,,,,,,,,,,,,,,,,,,,,,,,,,,
,,,,,,,,2023-08-16_08h48.42.037,HF_wild_card,2022.2.4,MacIntel,60.0024001,5e110747dc265f7d25341439,64d2fd46c836a06233681665,64dc7f1c707d0bc38769627f,,,,,,,decisionTrl,resources/DB.BMP,resources/DG.BMP,Door3,0.337568721,0.150430411,1,0,0,1.0659,optionRight,70,8660,4,24,0,24,0,1,,,,,,,,,,,,,,,,,,,,,,,,,,,,,,,,,,,,,,,
,,,,,,,,2023-08-16_08h48.42.037,HF_wild_card,2022.2.4,MacIntel,60.0024001,5e110747dc265f7d25341439,64d2fd46c836a06233681665,64dc7f1c707d0bc38769627f,,,,,,,sngl,resources/DP.BMP,resources/Empty.png,Door1,-0.140440538,0.030403646,1,0,0,0.912,optionLeft,30,8690,4,25,0,25,0,1,,,,,,,,,,,,,,,,,,,,,,,,,,,,,,,,,,,,,,,
,,,,,,,,2023-08-16_08h48.42.037,HF_wild_card,2022.2.4,MacIntel,60.0024001,5e110747dc265f7d25341439,64d2fd46c836a06233681665,64dc7f1c707d0bc38769627f,,,,,,,decisionTrl,resources/DBN.BMP,resources/DG.BMP,Door3,0.320319734,0.205342159,1,0,0,1.2639,optionRight,70,8760,4,26,0,26,0,1,,,,,,,,,,,,,,,,,,,,,,,,,,,,,,,,,,,,,,,
,,,,,,,,2023-08-16_08h48.42.037,HF_wild_card,2022.2.4,MacIntel,60.0024001,5e110747dc265f7d25341439,64d2fd46c836a06233681665,64dc7f1c707d0bc38769627f,,,,,,,decisionTrl,resources/DP.BMP,resources/DR.BMP,Door2,0.215798611,0.101631221,1,0,0,1.8648,optionRight,20,8780,4,27,0,27,0,1,,,,,,,,,,,,,,,,,,,,,,,,,,,,,,,,,,,,,,,
,,,,,,,,2023-08-16_08h48.42.037,HF_wild_card,2022.2.4,MacIntel,60.0024001,5e110747dc265f7d25341439,64d2fd46c836a06233681665,64dc7f1c707d0bc38769627f,,,,,,,sngl,resources/DBN.BMP,resources/Empty.png,WildCard_Ex,-0.200853588,0.077850116,1,0,0,0.8147,optionLeft,55,8835,4,28,0,28,0,1,,,,,,,,,,,,,,,,,,,,,,,,,,,,,,,,,,,,,,,
,,,,,,,,2023-08-16_08h48.42.037,HF_wild_card,2022.2.4,MacIntel,60.0024001,5e110747dc265f7d25341439,64d2fd46c836a06233681665,64dc7f1c707d0bc38769627f,,,,,,,decisionTrl,resources/DBN.BMP,resources/DB.BMP,Door4,0.198719618,0.138331887,1,0,0,1.0973,optionRight,80,8915,4,29,0,29,0,1,,,,,,,,,,,,,,,,,,,,,,,,,,,,,,,,,,,,,,,
,,,,,,,,2023-08-16_08h48.42.037,HF_wild_card,2022.2.4,MacIntel,60.0024001,5e110747dc265f7d25341439,64d2fd46c836a06233681665,64dc7f1c707d0bc38769627f,,,,,,,ctch,resources/DB.BMP,resources/DP.BMP,Door4,-0.289467593,0.083521412,1,0,0,1.0313,optionLeft,60,8975,4,30,0,30,0,1,,,,,,,,,,,,,,,,,,,,,,,,,,,,,,,,,,,,,,,
,,,,,,,,2023-08-16_08h48.42.037,HF_wild_card,2022.2.4,MacIntel,60.0024001,5e110747dc265f7d25341439,64d2fd46c836a06233681665,64dc7f1c707d0bc38769627f,,,,,,,decisionTrl,resources/DG.BMP,resources/DBN.BMP,Door3,-0.182110822,0.119126157,1,0,0,1.3452,optionLeft,70,9045,4,31,0,31,0,1,,,,,,,,,,,,,,,,,,,,,,,,,,,,,,,,,,,,,,,
,,,,,,,,2023-08-16_08h48.42.037,HF_wild_card,2022.2.4,MacIntel,60.0024001,5e110747dc265f7d25341439,64d2fd46c836a06233681665,64dc7f1c707d0bc38769627f,,,,,,,decisionTrl,resources/DR.BMP,resources/DP.BMP,Door2,-0.238165509,0.060648148,1,0,0,1.9784,optionLeft,20,9065,4,32,0,32,0,1,,,,,,,,,,,,,,,,,,,,,,,,,,,,,,,,,,,,,,,
,,,,,,,,2023-08-16_08h48.42.037,HF_wild_card,2022.2.4,MacIntel,60.0024001,5e110747dc265f7d25341439,64d2fd46c836a06233681665,64dc7f1c707d0bc38769627f,,,,,,,ctch,resources/DG.BMP,resources/DR.BMP,Door3,-0.165686487,0.058702257,1,0,0,0.8132,optionLeft,70,9135,4,33,0,33,0,1,,,,,,,,,,,,,,,,,,,,,,,,,,,,,,,,,,,,,,,
,,,,,,,,2023-08-16_08h48.42.037,HF_wild_card,2022.2.4,MacIntel,60.0024001,5e110747dc265f7d25341439,64d2fd46c836a06233681665,64dc7f1c707d0bc38769627f,,,,,,,ctch,resources/DR.BMP,resources/DG.BMP,Door3,0.281524884,0.110416667,1,0,0,0.9797,optionRight,70,9205,4,34,0,34,0,1,,,,,,,,,,,,,,,,,,,,,,,,,,,,,,,,,,,,,,,
,,,,,,,,2023-08-16_08h48.42.037,HF_wild_card,2022.2.4,MacIntel,60.0024001,5e110747dc265f7d25341439,64d2fd46c836a06233681665,64dc7f1c707d0bc38769627f,,,,,,,sngl,resources/Empty.png,resources/DB.BMP,Door4,0.235991753,0.080005787,1,0,0,0.6305,optionRight,80,9285,4,35,0,35,0,1,,,,,,,,,,,,,,,,,,,,,,,,,,,,,,,,,,,,,,,
,,,,,,,,2023-08-16_08h48.42.037,HF_wild_card,2022.2.4,MacIntel,60.0024001,5e110747dc265f7d25341439,64d2fd46c836a06233681665,64dc7f1c707d0bc38769627f,,,,,,,decisionTrl,resources/DR.BMP,resources/DP.BMP,Door1,0.349330874,0.126443142,1,0,0,1.6456,optionRight,30,9315,4,36,0,36,0,1,,,,,,,,,,,,,,,,,,,,,,,,,,,,,,,,,,,,,,,
,,,,,,,,2023-08-16_08h48.42.037,HF_wild_card,2022.2.4,MacIntel,60.0024001,5e110747dc265f7d25341439,64d2fd46c836a06233681665,64dc7f1c707d0bc38769627f,,,,,,,ctch,resources/DP.BMP,resources/DB.BMP,Door4,0.182866753,0.075947627,1,0,0,1.0635,optionRight,80,9395,4,37,0,37,0,1,,,,,,,,,,,,,,,,,,,,,,,,,,,,,,,,,,,,,,,
,,,,,,,,2023-08-16_08h48.42.037,HF_wild_card,2022.2.4,MacIntel,60.0024001,5e110747dc265f7d25341439,64d2fd46c836a06233681665,64dc7f1c707d0bc38769627f,,,,,,,sngl,resources/DR.BMP,resources/Empty.png,Door2,-0.220905671,0.062691696,1,0,0,0.7945,optionLeft,20,9415,4,38,0,38,0,1,,,,,,,,,,,,,,,,,,,,,,,,,,,,,,,,,,,,,,,
,,,,,,,,2023-08-16_08h48.42.037,HF_wild_card,2022.2.4,MacIntel,60.0024001,5e110747dc265f7d25341439,64d2fd46c836a06233681665,64dc7f1c707d0bc38769627f,,,,,,,sngl,resources/DG.BMP,resources/Empty.png,Door3,-0.279882813,0.053884549,1,0,0,0.6805,optionLeft,70,9485,4,39,0,39,0,1,,,,,,,,,,,,,,,,,,,,,,,,,,,,,,,,,,,,,,,
,,,,,,,,2023-08-16_08h48.42.037,HF_wild_card,2022.2.4,MacIntel,60.0024001,5e110747dc265f7d25341439,64d2fd46c836a06233681665,64dc7f1c707d0bc38769627f,,,,,,,decisionTrl,resources/DP.BMP,resources/DR.BMP,Door1,-0.41792173,0.070605469,1,0,0,1.6806,optionLeft,30,9515,4,40,0,40,0,1,,,,,,,,,,,,,,,,,,,,,,,,,,,,,,,,,,,,,,,
,,,,,,,,2023-08-16_08h48.42.037,HF_wild_card,2022.2.4,MacIntel,60.0024001,5e110747dc265f7d25341439,64d2fd46c836a06233681665,64dc7f1c707d0bc38769627f,,,,,,,sngl,resources/Empty.png,resources/DG.BMP,Door3,0.247641782,0.071842448,1,0,0,0.6469,optionRight,70,9585,4,41,0,41,0,1,,,,,,,,,,,,,,,,,,,,,,,,,,,,,,,,,,,,,,,
,,,,,,,,2023-08-16_08h48.42.037,HF_wild_card,2022.2.4,MacIntel,60.0024001,5e110747dc265f7d25341439,64d2fd46c836a06233681665,64dc7f1c707d0bc38769627f,,,,,,,decisionTrl,resources/DB.BMP,resources/DG.BMP,Door4,-0.197630932,0.102032697,1,0,0,0.8794,optionLeft,60,9645,4,42,0,42,0,1,,,,,,,,,,,,,,,,,,,,,,,,,,,,,,,,,,,,,,,
,,,,,,,,2023-08-16_08h48.42.037,HF_wild_card,2022.2.4,MacIntel,60.0024001,5e110747dc265f7d25341439,64d2fd46c836a06233681665,64dc7f1c707d0bc38769627f,,,,,,,decisionTrl,resources/DR.BMP,resources/DP.BMP,Door2,-0.148433883,0.059617332,1,0,0,0.9461,optionLeft,20,9665,4,43,0,43,0,1,,,,,,,,,,,,,,,,,,,,,,,,,,,,,,,,,,,,,,,
,,,,,,,,2023-08-16_08h48.42.037,HF_wild_card,2022.2.4,MacIntel,60.0024001,5e110747dc265f7d25341439,64d2fd46c836a06233681665,64dc7f1c707d0bc38769627f,,,,,,,,,,,,,,,,,,,,,,,,,,3,0,3,0,1,,,,,,,,,,,,,,,,,,,,,,,,,,,,,,,,,,
,,,,,,,,2023-08-16_08h48.42.037,HF_wild_card,2022.2.4,MacIntel,60.0024001,5e110747dc265f7d25341439,64d2fd46c836a06233681665,64dc7f1c707d0bc38769627f,,,,,,,sngl,resources/DBN.BMP,resources/Empty.png,WildCard_Ex,-0.411675347,-0.031448929,1,0,0,0.9351,optionLeft,45,9710,5,0,0,0,0,1,,,,,,,,,,,,,,,,,,,,,,,,,,,,,,,,,,,,,,,
,,,,,,,,2023-08-16_08h48.42.037,HF_wild_card,2022.2.4,MacIntel,60.0024001,5e110747dc265f7d25341439,64d2fd46c836a06233681665,64dc7f1c707d0bc38769627f,,,,,,,decisionTrl,resources/DP.BMP,resources/DR.BMP,Door1,-0.190950521,0.042205584,1,0,0,1.5136,optionLeft,30,9740,5,1,0,1,0,1,,,,,,,,,,,,,,,,,,,,,,,,,,,,,,,,,,,,,,,
,,,,,,,,2023-08-16_08h48.42.037,HF_wild_card,2022.2.4,MacIntel,60.0024001,5e110747dc265f7d25341439,64d2fd46c836a06233681665,64dc7f1c707d0bc38769627f,,,,,,,sngl,resources/DBN.BMP,resources/Empty.png,WildCard_Ex,-0.224236834,0.065386285,1,0,0,0.6462,optionLeft,55,9795,5,2,0,2,0,1,,,,,,,,,,,,,,,,,,,,,,,,,,,,,,,,,,,,,,,
,,,,,,,,2023-08-16_08h48.42.037,HF_wild_card,2022.2.4,MacIntel,60.0024001,5e110747dc265f7d25341439,64d2fd46c836a06233681665,64dc7f1c707d0bc38769627f,,,,,,,ctch,resources/DR.BMP,resources/DG.BMP,Door3,0.378291377,0.096802662,1,0,0,0.8631,optionRight,70,9865,5,3,0,3,0,1,,,,,,,,,,,,,,,,,,,,,,,,,,,,,,,,,,,,,,,
,,,,,,,,2023-08-16_08h48.42.037,HF_wild_card,2022.2.4,MacIntel,60.0024001,5e110747dc265f7d25341439,64d2fd46c836a06233681665,64dc7f1c707d0bc38769627f,,,,,,,sngl,resources/DB.BMP,resources/Empty.png,Door4,-0.297677951,0.028479456,1,0,0,0.6634,optionLeft,80,9945,5,4,0,4,0,1,,,,,,,,,,,,,,,,,,,,,,,,,,,,,,,,,,,,,,,
,,,,,,,,2023-08-16_08h48.42.037,HF_wild_card,2022.2.4,MacIntel,60.0024001,5e110747dc265f7d25341439,64d2fd46c836a06233681665,64dc7f1c707d0bc38769627f,,,,,,,decisionTrl,resources/DP.BMP,resources/DR.BMP,Door2,0.19609375,0.00895544,1,0,0,0.9179,optionRight,40,9985,5,5,0,5,0,1,,,,,,,,,,,,,,,,,,,,,,,,,,,,,,,,,,,,,,,
,,,,,,,,2023-08-16_08h48.42.037,HF_wild_card,2022.2.4,MacIntel,60.0024001,5e110747dc265f7d25341439,64d2fd46c836a06233681665,64dc7f1c707d0bc38769627f,,,,,,,ctch,resources/DG.BMP,resources/DR.BMP,Door3,-0.319079138,0.03755787,1,0,0,0.7777,optionLeft,70,10055,5,6,0,6,0,1,,,,,,,,,,,,,,,,,,,,,,,,,,,,,,,,,,,,,,,
,,,,,,,,2023-08-16_08h48.42.037,HF_wild_card,2022.2.4,MacIntel,60.0024001,5e110747dc265f7d25341439,64d2fd46c836a06233681665,64dc7f1c707d0bc38769627f,,,,,,,decisionTrl,resources/DR.BMP,resources/DBN.BMP,WildCard_Ex,0.295572917,0.121846065,1,0,0,1.7608,optionRight,55,10110,5,7,0,7,0,1,,,,,,,,,,,,,,,,,,,,,,,,,,,,,,,,,,,,,,,
,,,,,,,,2023-08-16_08h48.42.037,HF_wild_card,2022.2.4,MacIntel,60.0024001,5e110747dc265f7d25341439,64d2fd46c836a06233681665,64dc7f1c707d0bc38769627f,,,,,,,ctch,resources/DP.BMP,resources/DB.BMP,Door4,0.378714554,0.107316985,1,0,0,0.8646,optionRight,80,10190,5,8,0,8,0,1,,,,,,,,,,,,,,,,,,,,,,,,,,,,,,,,,,,,,,,
,,,,,,,,2023-08-16_08h48.42.037,HF_wild_card,2022.2.4,MacIntel,60.0024001,5e110747dc265f7d25341439,64d2fd46c836a06233681665,64dc7f1c707d0bc38769627f,,,,,,,sngl,resources/Empty.png,resources/DR.BMP,Door2,0.288219763,0.072876881,1,0,0,1.8963,optionRight,20,10210,5,9,0,9,0,1,,,,,,,,,,,,,,,,,,,,,,,,,,,,,,,,,,,,,,,
,,,,,,,,2023-08-16_08h48.42.037,HF_wild_card,2022.2.4,MacIntel,60.0024001,5e110747dc265f7d25341439,64d2fd46c836a06233681665,64dc7f1c707d0bc38769627f,,,,,,,decisionTrl,resources/DG.BMP,resources/DB.BMP,Door3,-0.216898148,0.036559606,1,0,0,1.3794,optionLeft,70,10280,5,10,0,10,0,1,,,,,,,,,,,,,,,,,,,,,,,,,,,,,,,,,,,,,,,
,,,,,,,,2023-08-16_08h48.42.037,HF_wild_card,2022.2.4,MacIntel,60.0024001,5e110747dc265f7d25341439,64d2fd46c836a06233681665,64dc7f1c707d0bc38769627f,,,,,,,sngl,resources/DP.BMP,resources/Empty.png,Door1,-0.160376881,0.04130136,1,0,0,0.7129,optionLeft,30,10310,5,11,0,11,0,1,,,,,,,,,,,,,,,,,,,,,,,,,,,,,,,,,,,,,,,
,,,,,,,,2023-08-16_08h48.42.037,HF_wild_card,2022.2.4,MacIntel,60.0024001,5e110747dc265f7d25341439,64d2fd46c836a06233681665,64dc7f1c707d0bc38769627f,,,,,,,decisionTrl,resources/DBN.BMP,resources/DP.BMP,WildCard_Ex,-0.352419705,0.04072989,1,0,0,0.9795,optionLeft,55,10365,5,12,0,12,0,1,,,,,,,,,,,,,,,,,,,,,,,,,,,,,,,,,,,,,,,
,,,,,,,,2023-08-16_08h48.42.037,HF_wild_card,2022.2.4,MacIntel,60.0024001,5e110747dc265f7d25341439,64d2fd46c836a06233681665,64dc7f1c707d0bc38769627f,,,,,,,decisionTrl,resources/DG.BMP,resources/DB.BMP,Door4,0.296075666,0.086863426,1,0,0,0.8474,optionRight,60,10425,5,13,0,13,0,1,,,,,,,,,,,,,,,,,,,,,,,,,,,,,,,,,,,,,,,
,,,,,,,,2023-08-16_08h48.42.037,HF_wild_card,2022.2.4,MacIntel,60.0024001,5e110747dc265f7d25341439,64d2fd46c836a06233681665,64dc7f1c707d0bc38769627f,,,,,,,sngl,resources/DR.BMP,resources/Empty.png,Door2,-0.152079716,0.02599103,1,0,0,0.6468,optionLeft,40,10465,5,14,0,14,0,1,,,,,,,,,,,,,,,,,,,,,,,,,,,,,,,,,,,,,,,
,,,,,,,,2023-08-16_08h48.42.037,HF_wild_card,2022.2.4,MacIntel,60.0024001,5e110747dc265f7d25341439,64d2fd46c836a06233681665,64dc7f1c707d0bc38769627f,,,,,,,sngl,resources/Empty.png,resources/DBN.BMP,WildCard_Ex,0.253660301,0.069603588,1,0,0,0.6965,optionRight,55,10520,5,15,0,15,0,1,,,,,,,,,,,,,,,,,,,,,,,,,,,,,,,,,,,,,,,
,,,,,,,,2023-08-16_08h48.42.037,HF_wild_card,2022.2.4,MacIntel,60.0024001,5e110747dc265f7d25341439,64d2fd46c836a06233681665,64dc7f1c707d0bc38769627f,,,,,,,decisionTrl,resources/DP.BMP,resources/DBN.BMP,WildCard_Ex,0.271469907,0.119574653,1,0,0,1.1512,optionRight,55,10575,5,16,0,16,0,1,,,,,,,,,,,,,,,,,,,,,,,,,,,,,,,,,,,,,,,
,,,,,,,,2023-08-16_08h48.42.037,HF_wild_card,2022.2.4,MacIntel,60.0024001,5e110747dc265f7d25341439,64d2fd46c836a06233681665,64dc7f1c707d0bc38769627f,,,,,,,decisionTrl,resources/DG.BMP,resources/DB.BMP,Door3,-0.275329138,0.0302011,1,0,0,1.2979,optionLeft,70,10645,5,17,0,17,0,1,,,,,,,,,,,,,,,,,,,,,,,,,,,,,,,,,,,,,,,
,,,,,,,,2023-08-16_08h48.42.037,HF_wild_card,2022.2.4,MacIntel,60.0024001,5e110747dc265f7d25341439,64d2fd46c836a06233681665,64dc7f1c707d0bc38769627f,,,,,,,sngl,resources/Empty.png,resources/DP.BMP,Door1,0.197782841,0.06771195,1,0,0,0.8474,optionRight,30,10675,5,18,0,18,0,1,,,,,,,,,,,,,,,,,,,,,,,,,,,,,,,,,,,,,,,
,,,,,,,,2023-08-16_08h48.42.037,HF_wild_card,2022.2.4,MacIntel,60.0024001,5e110747dc265f7d25341439,64d2fd46c836a06233681665,64dc7f1c707d0bc38769627f,,,,,,,ctch,resources/DB.BMP,resources/DP.BMP,Door4,-0.195587384,0.024728733,1,0,0,0.9985,optionLeft,80,10755,5,19,0,19,0,1,,,,,,,,,,,,,,,,,,,,,,,,,,,,,,,,,,,,,,,
,,,,,,,,2023-08-16_08h48.42.037,HF_wild_card,2022.2.4,MacIntel,60.0024001,5e110747dc265f7d25341439,64d2fd46c836a06233681665,64dc7f1c707d0bc38769627f,,,,,,,decisionTrl,resources/DB.BMP,resources/DBN.BMP,Door4,-0.128240741,0.037666377,1,0,0,1.5502,optionLeft,60,10815,5,20,0,20,0,1,,,,,,,,,,,,,,,,,,,,,,,,,,,,,,,,,,,,,,,
,,,,,,,,2023-08-16_08h48.42.037,HF_wild_card,2022.2.4,MacIntel,60.0024001,5e110747dc265f7d25341439,64d2fd46c836a06233681665,64dc7f1c707d0bc38769627f,,,,,,,decisionTrl,resources/DG.BMP,resources/DBN.BMP,Door3,-0.321553096,0.047117332,1,0,0,0.8958,optionLeft,70,10885,5,21,0,21,0,1,,,,,,,,,,,,,,,,,,,,,,,,,,,,,,,,,,,,,,,
,,,,,,,,2023-08-16_08h48.42.037,HF_wild_card,2022.2.4,MacIntel,60.0024001,5e110747dc265f7d25341439,64d2fd46c836a06233681665,64dc7f1c707d0bc38769627f,,,,,,,decisionTrl,resources/DBN.BMP,resources/DG.BMP,WildCard_Ex,-0.176370804,0.087141927,1,0,0,1.8971,optionLeft,55,10940,5,22,0,22,0,1,,,,,,,,,,,,,,,,,,,,,,,,,,,,,,,,,,,,,,,
,,,,,,,,2023-08-16_08h48.42.037,HF_wild_card,2022.2.4,MacIntel,60.0024001,5e110747dc265f7d25341439,64d2fd46c836a06233681665,64dc7f1c707d0bc38769627f,,,,,,,decisionTrl,resources/DB.BMP,resources/DG.BMP,Door3,0.318948929,0.079864728,1,0,0,1.2308,optionRight,70,11010,5,23,0,23,0,1,,,,,,,,,,,,,,,,,,,,,,,,,,,,,,,,,,,,,,,
,,,,,,,,2023-08-16_08h48.42.037,HF_wild_card,2022.2.4,MacIntel,60.0024001,5e110747dc265f7d25341439,64d2fd46c836a06233681665,64dc7f1c707d0bc38769627f,,,,,,,decisionTrl,resources/DR.BMP,resources/DP.BMP,Door1,0.304882812,0.02911603,1,0,0,1.2795,optionRight,30,11040,5,24,0,24,0,1,,,,,,,,,,,,,,,,,,,,,,,,,,,,,,,,,,,,,,,
,,,,,,,,2023-08-16_08h48.42.037,HF_wild_card,2022.2.4,MacIntel,60.0024001,5e110747dc265f7d25341439,64d2fd46c836a06233681665,64dc7f1c707d0bc38769627f,,,,,,,sngl,resources/Empty.png,resources/DBN.BMP,WildCard_Ex,0.219791667,0.024490017,1,0,0,0.8475,optionRight,45,11085,5,25,0,25,0,1,,,,,,,,,,,,,,,,,,,,,,,,,,,,,,,,,,,,,,,
,,,,,,,,2023-08-16_08h48.42.037,HF_wild_card,2022.2.4,MacIntel,60.0024001,5e110747dc265f7d25341439,64d2fd46c836a06233681665,64dc7f1c707d0bc38769627f,,,,,,,decisionTrl,resources/DB.BMP,resources/DG.BMP,Door3,0.208611834,0.073289207,1,0,0,1.4134,optionRight,70,11155,5,26,0,26,0,1,,,,,,,,,,,,,,,,,,,,,,,,,,,,,,,,,,,,,,,
,,,,,,,,2023-08-16_08h48.42.037,HF_wild_card,2022.2.4,MacIntel,60.0024001,5e110747dc265f7d25341439,64d2fd46c836a06233681665,64dc7f1c707d0bc38769627f,,,,,,,decisionTrl,resources/DR.BMP,resources/DP.BMP,Door2,-0.187254051,0.034219473,1,0,0,1.3805,optionLeft,40,11195,5,27,0,27,0,1,,,,,,,,,,,,,,,,,,,,,,,,,,,,,,,,,,,,,,,
,,,,,,,,2023-08-16_08h48.42.037,HF_wild_card,2022.2.4,MacIntel,60.0024001,5e110747dc265f7d25341439,64d2fd46c836a06233681665,64dc7f1c707d0bc38769627f,,,,,,,ctch,resources/DG.BMP,resources/DR.BMP,Door3,-0.285373264,0.064930556,1,0,0,0.9978,optionLeft,70,11265,5,28,0,28,0,1,,,,,,,,,,,,,,,,,,,,,,,,,,,,,,,,,,,,,,,
,,,,,,,,2023-08-16_08h48.42.037,HF_wild_card,2022.2.4,MacIntel,60.0024001,5e110747dc265f7d25341439,64d2fd46c836a06233681665,64dc7f1c707d0bc38769627f,,,,,,,decisionTrl,resources/DB.BMP,resources/DG.BMP,Door4,-0.265552662,0.06833044,1,0,0,1.363,optionLeft,60,11325,5,29,0,29,0,1,,,,,,,,,,,,,,,,,,,,,,,,,,,,,,,,,,,,,,,
,,,,,,,,2023-08-16_08h48.42.037,HF_wild_card,2022.2.4,MacIntel,60.0024001,5e110747dc265f7d25341439,64d2fd46c836a06233681665,64dc7f1c707d0bc38769627f,,,,,,,ctch,resources/DB.BMP,resources/DP.BMP,Door4,-0.211921296,0.057841435,1,0,0,0.9799,optionLeft,60,11385,5,30,0,30,0,1,,,,,,,,,,,,,,,,,,,,,,,,,,,,,,,,,,,,,,,
,,,,,,,,2023-08-16_08h48.42.037,HF_wild_card,2022.2.4,MacIntel,60.0024001,5e110747dc265f7d25341439,64d2fd46c836a06233681665,64dc7f1c707d0bc38769627f,,,,,,,sngl,resources/Empty.png,resources/DG.BMP,Door3,0.255056424,0.045699508,1,0,0,0.6498,optionRight,70,11455,5,31,0,31,0,1,,,,,,,,,,,,,,,,,,,,,,,,,,,,,,,,,,,,,,,
,,,,,,,,2023-08-16_08h48.42.037,HF_wild_card,2022.2.4,MacIntel,60.0024001,5e110747dc265f7d25341439,64d2fd46c836a06233681665,64dc7f1c707d0bc38769627f,,,,,,,sngl,resources/DG.BMP,resources/Empty.png,Door3,-0.155815972,0.019202112,1,0,0,0.6316,optionLeft,70,11525,5,32,0,32,0,1,,,,,,,,,,,,,,,,,,,,,,,,,,,,,,,,,,,,,,,
,,,,,,,,2023-08-16_08h48.42.037,HF_wild_card,2022.2.4,MacIntel,60.0024001,5e110747dc265f7d25341439,64d2fd46c836a06233681665,64dc7f1c707d0bc38769627f,,,,,,,ctch,resources/DR.BMP,resources/DG.BMP,Door3,0.260221354,0.042115162,1,0,0,0.7465,optionRight,70,11595,5,33,0,33,0,1,,,,,,,,,,,,,,,,,,,,,,,,,,,,,,,,,,,,,,,
,,,,,,,,2023-08-16_08h48.42.037,HF_wild_card,2022.2.4,MacIntel,60.0024001,5e110747dc265f7d25341439,64d2fd46c836a06233681665,64dc7f1c707d0bc38769627f,,,,,,,decisionTrl,resources/DG.BMP,resources/DB.BMP,Door3,-0.271469907,0.026985677,1,0,0,0.7299,optionLeft,70,11665,5,34,0,34,0,1,,,,,,,,,,,,,,,,,,,,,,,,,,,,,,,,,,,,,,,
,,,,,,,,2023-08-16_08h48.42.037,HF_wild_card,2022.2.4,MacIntel,60.0024001,5e110747dc265f7d25341439,64d2fd46c836a06233681665,64dc7f1c707d0bc38769627f,,,,,,,ctch,resources/DP.BMP,resources/DB.BMP,Door4,0.31192853,0.07281901,1,0,0,1.0298,optionRight,80,11745,5,35,0,35,0,1,,,,,,,,,,,,,,,,,,,,,,,,,,,,,,,,,,,,,,,
,,,,,,,,2023-08-16_08h48.42.037,HF_wild_card,2022.2.4,MacIntel,60.0024001,5e110747dc265f7d25341439,64d2fd46c836a06233681665,64dc7f1c707d0bc38769627f,,,,,,,decisionTrl,resources/DR.BMP,resources/DP.BMP,Door2,-0.153128617,0.092107928,1,0,0,4.3455,optionLeft,40,11785,5,36,0,36,0,1,,,,,,,,,,,,,,,,,,,,,,,,,,,,,,,,,,,,,,,
,,,,,,,,2023-08-16_08h48.42.037,HF_wild_card,2022.2.4,MacIntel,60.0024001,5e110747dc265f7d25341439,64d2fd46c836a06233681665,64dc7f1c707d0bc38769627f,,,,,,,decisionTrl,resources/DBN.BMP,resources/DR.BMP,WildCard_Ex,-0.325332755,0.062134693,1,0,0,1.0317,optionLeft,45,11830,5,37,0,37,0,1,,,,,,,,,,,,,,,,,,,,,,,,,,,,,,,,,,,,,,,
,,,,,,,,2023-08-16_08h48.42.037,HF_wild_card,2022.2.4,MacIntel,60.0024001,5e110747dc265f7d25341439,64d2fd46c836a06233681665,64dc7f1c707d0bc38769627f,,,,,,,decisionTrl,resources/DB.BMP,resources/DG.BMP,Door3,0.426555266,0.104597078,1,0,0,1.2638,optionRight,70,11900,5,38,0,38,0,1,,,,,,,,,,,,,,,,,,,,,,,,,,,,,,,,,,,,,,,
,,,,,,,,2023-08-16_08h48.42.037,HF_wild_card,2022.2.4,MacIntel,60.0024001,5e110747dc265f7d25341439,64d2fd46c836a06233681665,64dc7f1c707d0bc38769627f,,,,,,,decisionTrl,resources/DP.BMP,resources/DR.BMP,Door2,0.244708478,0.075303819,1,0,0,1.1135,optionRight,20,11920,5,39,0,39,0,1,,,,,,,,,,,,,,,,,,,,,,,,,,,,,,,,,,,,,,,
,,,,,,,,2023-08-16_08h48.42.037,HF_wild_card,2022.2.4,MacIntel,60.0024001,5e110747dc265f7d25341439,64d2fd46c836a06233681665,64dc7f1c707d0bc38769627f,,,,,,,sngl,resources/Empty.png,resources/DB.BMP,Door4,0.263867187,0.084454572,1,0,0,0.7138,optionRight,60,11980,5,40,0,40,0,1,,,,,,,,,,,,,,,,,,,,,,,,,,,,,,,,,,,,,,,
,,,,,,,,2023-08-16_08h48.42.037,HF_wild_card,2022.2.4,MacIntel,60.0024001,5e110747dc265f7d25341439,64d2fd46c836a06233681665,64dc7f1c707d0bc38769627f,,,,,,,decisionTrl,resources/DR.BMP,resources/DP.BMP,Door1,0.277123119,0.122869647,1,0,0,1.5971,optionRight,30,12010,5,41,0,41,0,1,,,,,,,,,,,,,,,,,,,,,,,,,,,,,,,,,,,,,,,
,,,,,,,,2023-08-16_08h48.42.037,HF_wild_card,2022.2.4,MacIntel,60.0024001,5e110747dc265f7d25341439,64d2fd46c836a06233681665,64dc7f1c707d0bc38769627f,,,,,,,decisionTrl,resources/DBN.BMP,resources/DB.BMP,Door4,0.233025897,0.0890625,1,0,0,1.1468,optionRight,80,12090,5,42,0,42,0,1,,,,,,,,,,,,,,,,,,,,,,,,,,,,,,,,,,,,,,,
,,,,,,,,2023-08-16_08h48.42.037,HF_wild_card,2022.2.4,MacIntel,60.0024001,5e110747dc265f7d25341439,64d2fd46c836a06233681665,64dc7f1c707d0bc38769627f,,,,,,,decisionTrl,resources/DP.BMP,resources/DR.BMP,Door1,-0.101942274,0.085116464,1,0,0,1.6128,optionLeft,30,12120,5,43,0,43,0,1,,,,,,,,,,,,,,,,,,,,,,,,,,,,,,,,,,,,,,,
,,,,,,,,2023-08-16_08h48.42.037,HF_wild_card,2022.2.4,MacIntel,60.0024001,5e110747dc265f7d25341439,64d2fd46c836a06233681665,64dc7f1c707d0bc38769627f,,,,,,,,,,,,,,,,,,,,,,,,,,4,0,4,0,1,,,,,,,,,,,,,,,,,,,,,,,,,,,,,,,,,,
,,,,,,,,2023-08-16_08h48.42.037,HF_wild_card,2022.2.4,MacIntel,60.0024001,5e110747dc265f7d25341439,64d2fd46c836a06233681665,64dc7f1c707d0bc38769627f,,,,,,,decisionTrl,resources/DP.BMP,resources/DBN.BMP,WildCard_Ex,0.263035301,-0.010843461,1,0,0,1.763,optionRight,55,12175,6,0,0,0,0,1,,,,,,,,,,,,,,,,,,,,,,,,,,,,,,,,,,,,,,,
,,,,,,,,2023-08-16_08h48.42.037,HF_wild_card,2022.2.4,MacIntel,60.0024001,5e110747dc265f7d25341439,64d2fd46c836a06233681665,64dc7f1c707d0bc38769627f,,,,,,,sngl,resources/Empty.png,resources/DBN.BMP,WildCard_Ex,0.192541956,0.048571325,1,0,0,0.6659,optionRight,55,12230,6,1,0,1,0,1,,,,,,,,,,,,,,,,,,,,,,,,,,,,,,,,,,,,,,,
,,,,,,,,2023-08-16_08h48.42.037,HF_wild_card,2022.2.4,MacIntel,60.0024001,5e110747dc265f7d25341439,64d2fd46c836a06233681665,64dc7f1c707d0bc38769627f,,,,,,,decisionTrl,resources/DG.BMP,resources/DB.BMP,Door3,-0.362091291,0.010391348,1,0,0,1.4294,optionLeft,70,12300,6,2,0,2,0,1,,,,,,,,,,,,,,,,,,,,,,,,,,,,,,,,,,,,,,,
,,,,,,,,2023-08-16_08h48.42.037,HF_wild_card,2022.2.4,MacIntel,60.0024001,5e110747dc265f7d25341439,64d2fd46c836a06233681665,64dc7f1c707d0bc38769627f,,,,,,,decisionTrl,resources/DBN.BMP,resources/DG.BMP,Door3,0.310206887,0.059964554,1,0,0,0.8493,optionRight,70,12370,6,3,0,3,0,1,,,,,,,,,,,,,,,,,,,,,,,,,,,,,,,,,,,,,,,
,,,,,,,,2023-08-16_08h48.42.037,HF_wild_card,2022.2.4,MacIntel,60.0024001,5e110747dc265f7d25341439,64d2fd46c836a06233681665,64dc7f1c707d0bc38769627f,,,,,,,decisionTrl,resources/DB.BMP,resources/DG.BMP,Door3,0.232888455,0.046647135,1,0,0,0.7274,optionRight,70,12440,6,4,0,4,0,1,,,,,,,,,,,,,,,,,,,,,,,,,,,,,,,,,,,,,,,
,,,,,,,,2023-08-16_08h48.42.037,HF_wild_card,2022.2.4,MacIntel,60.0024001,5e110747dc265f7d25341439,64d2fd46c836a06233681665,64dc7f1c707d0bc38769627f,,,,,,,ctch,resources/DR.BMP,resources/DG.BMP,Door3,0.23677662,0.063574219,1,0,0,0.7287,optionRight,70,12510,6,5,0,5,0,1,,,,,,,,,,,,,,,,,,,,,,,,,,,,,,,,,,,,,,,
,,,,,,,,2023-08-16_08h48.42.037,HF_wild_card,2022.2.4,MacIntel,60.0024001,5e110747dc265f7d25341439,64d2fd46c836a06233681665,64dc7f1c707d0bc38769627f,,,,,,,sngl,resources/Empty.png,resources/DBN.BMP,WildCard_Ex,0.181810619,0.066695602,1,0,0,0.6487,optionRight,45,12555,6,6,0,6,0,1,,,,,,,,,,,,,,,,,,,,,,,,,,,,,,,,,,,,,,,
,,,,,,,,2023-08-16_08h48.42.037,HF_wild_card,2022.2.4,MacIntel,60.0024001,5e110747dc265f7d25341439,64d2fd46c836a06233681665,64dc7f1c707d0bc38769627f,,,,,,,decisionTrl,resources/DG.BMP,resources/DB.BMP,Door4,0.200028935,0.063245081,1,0,0,1.2788,optionRight,60,12615,6,7,0,7,0,1,,,,,,,,,,,,,,,,,,,,,,,,,,,,,,,,,,,,,,,
,,,,,,,,2023-08-16_08h48.42.037,HF_wild_card,2022.2.4,MacIntel,60.0024001,5e110747dc265f7d25341439,64d2fd46c836a06233681665,64dc7f1c707d0bc38769627f,,,,,,,ctch,resources/DR.BMP,resources/DG.BMP,Door3,0.288881655,0.090758825,1,0,0,0.73,optionRight,70,12685,6,8,0,8,0,1,,,,,,,,,,,,,,,,,,,,,,,,,,,,,,,,,,,,,,,
,,,,,,,,2023-08-16_08h48.42.037,HF_wild_card,2022.2.4,MacIntel,60.0024001,5e110747dc265f7d25341439,64d2fd46c836a06233681665,64dc7f1c707d0bc38769627f,,,,,,,decisionTrl,resources/DP.BMP,resources/DR.BMP,Door2,0.246831597,0.046299913,1,0,0,1.4492,optionRight,20,12705,6,9,0,9,0,1,,,,,,,,,,,,,,,,,,,,,,,,,,,,,,,,,,,,,,,
,,,,,,,,2023-08-16_08h48.42.037,HF_wild_card,2022.2.4,MacIntel,60.0024001,5e110747dc265f7d25341439,64d2fd46c836a06233681665,64dc7f1c707d0bc38769627f,,,,,,,ctch,resources/DB.BMP,resources/DP.BMP,Door4,-0.219227431,0.042625145,1,0,0,0.997,optionLeft,80,12785,6,10,0,10,0,1,,,,,,,,,,,,,,,,,,,,,,,,,,,,,,,,,,,,,,,
,,,,,,,,2023-08-16_08h48.42.037,HF_wild_card,2022.2.4,MacIntel,60.0024001,5e110747dc265f7d25341439,64d2fd46c836a06233681665,64dc7f1c707d0bc38769627f,,,,,,,sngl,resources/DBN.BMP,resources/Empty.png,WildCard_Ex,-0.208901186,-0.005772569,1,0,0,0.7956,optionLeft,55,12840,6,11,0,11,0,1,,,,,,,,,,,,,,,,,,,,,,,,,,,,,,,,,,,,,,,
,,,,,,,,2023-08-16_08h48.42.037,HF_wild_card,2022.2.4,MacIntel,60.0024001,5e110747dc265f7d25341439,64d2fd46c836a06233681665,64dc7f1c707d0bc38769627f,,,,,,,ctch,resources/DP.BMP,resources/DB.BMP,Door4,0.312659144,0.060908565,1,0,0,1.5807,optionRight,80,12920,6,12,0,12,0,1,,,,,,,,,,,,,,,,,,,,,,,,,,,,,,,,,,,,,,,
,,,,,,,,2023-08-16_08h48.42.037,HF_wild_card,2022.2.4,MacIntel,60.0024001,5e110747dc265f7d25341439,64d2fd46c836a06233681665,64dc7f1c707d0bc38769627f,,,,,,,decisionTrl,resources/DR.BMP,resources/DP.BMP,Door2,-0.240603299,0.018525752,1,0,0,1.1969,optionLeft,20,12940,6,13,0,13,0,1,,,,,,,,,,,,,,,,,,,,,,,,,,,,,,,,,,,,,,,
,,,,,,,,2023-08-16_08h48.42.037,HF_wild_card,2022.2.4,MacIntel,60.0024001,5e110747dc265f7d25341439,64d2fd46c836a06233681665,64dc7f1c707d0bc38769627f,,,,,,,sngl,resources/Empty.png,resources/DB.BMP,Door4,0.291167535,0.046629051,1,0,0,0.5991,optionRight,80,13020,6,14,0,14,0,1,,,,,,,,,,,,,,,,,,,,,,,,,,,,,,,,,,,,,,,
,,,,,,,,2023-08-16_08h48.42.037,HF_wild_card,2022.2.4,MacIntel,60.0024001,5e110747dc265f7d25341439,64d2fd46c836a06233681665,64dc7f1c707d0bc38769627f,,,,,,,decisionTrl,resources/DR.BMP,resources/DP.BMP,Door1,0.293721065,0.070326968,1,0,0,1.0486,optionRight,30,13050,6,15,0,15,0,1,,,,,,,,,,,,,,,,,,,,,,,,,,,,,,,,,,,,,,,
,,,,,,,,2023-08-16_08h48.42.037,HF_wild_card,2022.2.4,MacIntel,60.0024001,5e110747dc265f7d25341439,64d2fd46c836a06233681665,64dc7f1c707d0bc38769627f,,,,,,,decisionTrl,resources/DG.BMP,resources/DB.BMP,Door3,-0.172023293,0.039145689,1,0,0,1.7975,optionLeft,70,13120,6,16,0,16,0,1,,,,,,,,,,,,,,,,,,,,,,,,,,,,,,,,,,,,,,,
,,,,,,,,2023-08-16_08h48.42.037,HF_wild_card,2022.2.4,MacIntel,60.0024001,5e110747dc265f7d25341439,64d2fd46c836a06233681665,64dc7f1c707d0bc38769627f,,,,,,,decisionTrl,resources/DR.BMP,resources/DP.BMP,Door1,0.298885995,0.072323495,1,0,0,1.8133,optionRight,30,13150,6,17,0,17,0,1,,,,,,,,,,,,,,,,,,,,,,,,,,,,,,,,,,,,,,,
,,,,,,,,2023-08-16_08h48.42.037,HF_wild_card,2022.2.4,MacIntel,60.0024001,5e110747dc265f7d25341439,64d2fd46c836a06233681665,64dc7f1c707d0bc38769627f,,,,,,,decisionTrl,resources/DR.BMP,resources/DP.BMP,Door1,0.122218605,0.055797888,1,0,0,1.0304,optionRight,30,13180,6,18,0,18,0,1,,,,,,,,,,,,,,,,,,,,,,,,,,,,,,,,,,,,,,,
,,,,,,,,2023-08-16_08h48.42.037,HF_wild_card,2022.2.4,MacIntel,60.0024001,5e110747dc265f7d25341439,64d2fd46c836a06233681665,64dc7f1c707d0bc38769627f,,,,,,,sngl,resources/DG.BMP,resources/Empty.png,Door3,-0.166153067,0.017198351,1,0,0,0.6665,optionLeft,70,13250,6,19,0,19,0,1,,,,,,,,,,,,,,,,,,,,,,,,,,,,,,,,,,,,,,,
,,,,,,,,2023-08-16_08h48.42.037,HF_wild_card,2022.2.4,MacIntel,60.0024001,5e110747dc265f7d25341439,64d2fd46c836a06233681665,64dc7f1c707d0bc38769627f,,,,,,,ctch,resources/DP.BMP,resources/DB.BMP,Door4,0.28812934,0.112720631,1,0,0,0.8144,optionRight,60,13310,6,20,0,20,0,1,,,,,,,,,,,,,,,,,,,,,,,,,,,,,,,,,,,,,,,
,,,,,,,,2023-08-16_08h48.42.037,HF_wild_card,2022.2.4,MacIntel,60.0024001,5e110747dc265f7d25341439,64d2fd46c836a06233681665,64dc7f1c707d0bc38769627f,,,,,,,decisionTrl,resources/DG.BMP,resources/DB.BMP,Door3,-0.257968027,0.061263021,1,0,0,1.3306,optionLeft,70,13380,6,21,0,21,0,1,,,,,,,,,,,,,,,,,,,,,,,,,,,,,,,,,,,,,,,
,,,,,,,,2023-08-16_08h48.42.037,HF_wild_card,2022.2.4,MacIntel,60.0024001,5e110747dc265f7d25341439,64d2fd46c836a06233681665,64dc7f1c707d0bc38769627f,,,,,,,decisionTrl,resources/DBN.BMP,resources/DP.BMP,WildCard_Ex,-0.230226418,0.069780816,1,0,0,1.4461,optionLeft,45,13425,6,22,0,22,0,1,,,,,,,,,,,,,,,,,,,,,,,,,,,,,,,,,,,,,,,
,,,,,,,,2023-08-16_08h48.42.037,HF_wild_card,2022.2.4,MacIntel,60.0024001,5e110747dc265f7d25341439,64d2fd46c836a06233681665,64dc7f1c707d0bc38769627f,,,,,,,decisionTrl,resources/DB.BMP,resources/DG.BMP,Door3,0.227998409,0.122952836,1,0,0,1.0301,optionRight,70,13495,6,23,0,23,0,1,,,,,,,,,,,,,,,,,,,,,,,,,,,,,,,,,,,,,,,
,,,,,,,,2023-08-16_08h48.42.037,HF_wild_card,2022.2.4,MacIntel,60.0024001,5e110747dc265f7d25341439,64d2fd46c836a06233681665,64dc7f1c707d0bc38769627f,,,,,,,sngl,resources/Empty.png,resources/DG.BMP,Door3,0.244014034,0.076931424,1,0,0,0.5644,optionRight,70,13565,6,24,0,24,0,1,,,,,,,,,,,,,,,,,,,,,,,,,,,,,,,,,,,,,,,
,,,,,,,,2023-08-16_08h48.42.037,HF_wild_card,2022.2.4,MacIntel,60.0024001,5e110747dc265f7d25341439,64d2fd46c836a06233681665,64dc7f1c707d0bc38769627f,,,,,,,sngl,resources/Empty.png,resources/DR.BMP,Door2,0.17249349,0.0578125,1,0,0,0.7644,optionRight,40,13605,6,25,0,25,0,1,,,,,,,,,,,,,,,,,,,,,,,,,,,,,,,,,,,,,,,
,,,,,,,,2023-08-16_08h48.42.037,HF_wild_card,2022.2.4,MacIntel,60.0024001,5e110747dc265f7d25341439,64d2fd46c836a06233681665,64dc7f1c707d0bc38769627f,,,,,,,decisionTrl,resources/DB.BMP,resources/DG.BMP,Door3,0.26646412,0.175940394,1,0,0,1.2636,optionRight,70,13675,6,26,0,26,0,1,,,,,,,,,,,,,,,,,,,,,,,,,,,,,,,,,,,,,,,
,,,,,,,,2023-08-16_08h48.42.037,HF_wild_card,2022.2.4,MacIntel,60.0024001,5e110747dc265f7d25341439,64d2fd46c836a06233681665,64dc7f1c707d0bc38769627f,,,,,,,decisionTrl,resources/DBN.BMP,resources/DB.BMP,Door4,0.256597222,0.13963397,1,0,0,1.1649,optionRight,80,13755,6,27,0,27,0,1,,,,,,,,,,,,,,,,,,,,,,,,,,,,,,,,,,,,,,,
,,,,,,,,2023-08-16_08h48.42.037,HF_wild_card,2022.2.4,MacIntel,60.0024001,5e110747dc265f7d25341439,64d2fd46c836a06233681665,64dc7f1c707d0bc38769627f,,,,,,,decisionTrl,resources/DB.BMP,resources/DG.BMP,Door4,-0.209237558,0.064879919,1,0,0,0.6801,optionLeft,60,13815,6,28,0,28,0,1,,,,,,,,,,,,,,,,,,,,,,,,,,,,,,,,,,,,,,,
,,,,,,,,2023-08-16_08h48.42.037,HF_wild_card,2022.2.4,MacIntel,60.0024001,5e110747dc265f7d25341439,64d2fd46c836a06233681665,64dc7f1c707d0bc38769627f,,,,,,,decisionTrl,resources/DG.BMP,resources/DBN.BMP,Door3,-0.253573495,0.065404369,1,0,0,0.6303,optionLeft,70,13885,6,29,0,29,0,1,,,,,,,,,,,,,,,,,,,,,,,,,,,,,,,,,,,,,,,
,,,,,,,,2023-08-16_08h48.42.037,HF_wild_card,2022.2.4,MacIntel,60.0024001,5e110747dc265f7d25341439,64d2fd46c836a06233681665,64dc7f1c707d0bc38769627f,,,,,,,decisionTrl,resources/DBN.BMP,resources/DR.BMP,WildCard_Ex,-0.345504196,0.077383536,1,0,0,1.2121,optionLeft,45,13930,6,30,0,30,0,1,,,,,,,,,,,,,,,,,,,,,,,,,,,,,,,,,,,,,,,
,,,,,,,,2023-08-16_08h48.42.037,HF_wild_card,2022.2.4,MacIntel,60.0024001,5e110747dc265f7d25341439,64d2fd46c836a06233681665,64dc7f1c707d0bc38769627f,,,,,,,decisionTrl,resources/DP.BMP,resources/DR.BMP,Door2,0.143182147,0.087409578,1,0,0,2.2628,optionRight,40,13970,6,31,0,31,0,1,,,,,,,,,,,,,,,,,,,,,,,,,,,,,,,,,,,,,,,
,,,,,,,,2023-08-16_08h48.42.037,HF_wild_card,2022.2.4,MacIntel,60.0024001,5e110747dc265f7d25341439,64d2fd46c836a06233681665,64dc7f1c707d0bc38769627f,,,,,,,sngl,resources/DBN.BMP,resources/Empty.png,WildCard_Ex,-0.218142361,-0.008025897,1,0,0,0.7778,optionLeft,45,14015,6,32,0,32,0,1,,,,,,,,,,,,,,,,,,,,,,,,,,,,,,,,,,,,,,,
,,,,,,,,2023-08-16_08h48.42.037,HF_wild_card,2022.2.4,MacIntel,60.0024001,5e110747dc265f7d25341439,64d2fd46c836a06233681665,64dc7f1c707d0bc38769627f,,,,,,,sngl,resources/Empty.png,resources/DP.BMP,Door1,0.156282552,0.104365596,1,0,0,0.9467,optionRight,30,14045,6,33,0,33,0,1,,,,,,,,,,,,,,,,,,,,,,,,,,,,,,,,,,,,,,,
,,,,,,,,2023-08-16_08h48.42.037,HF_wild_card,2022.2.4,MacIntel,60.0024001,5e110747dc265f7d25341439,64d2fd46c836a06233681665,64dc7f1c707d0bc38769627f,,,,,,,ctch,resources/DG.BMP,resources/DR.BMP,Door3,-0.195938223,0.061440249,1,0,0,0.7456,optionLeft,70,14115,6,34,0,34,0,1,,,,,,,,,,,,,,,,,,,,,,,,,,,,,,,,,,,,,,,
,,,,,,,,2023-08-16_08h48.42.037,HF_wild_card,2022.2.4,MacIntel,60.0024001,5e110747dc265f7d25341439,64d2fd46c836a06233681665,64dc7f1c707d0bc38769627f,,,,,,,decisionTrl,resources/DP.BMP,resources/DR.BMP,Door2,0.159682436,0.108188657,1,0,0,1.9813,optionRight,20,14135,6,35,0,35,0,1,,,,,,,,,,,,,,,,,,,,,,,,,,,,,,,,,,,,,,,
,,,,,,,,2023-08-16_08h48.42.037,HF_wild_card,2022.2.4,MacIntel,60.0024001,5e110747dc265f7d25341439,64d2fd46c836a06233681665,64dc7f1c707d0bc38769627f,,,,,,,decisionTrl,resources/DR.BMP,resources/DBN.BMP,WildCard_Ex,0.28364077,0.149981916,1,0,0,1.1495,optionRight,45,14180,6,36,0,36,0,1,,,,,,,,,,,,,,,,,,,,,,,,,,,,,,,,,,,,,,,
,,,,,,,,2023-08-16_08h48.42.037,HF_wild_card,2022.2.4,MacIntel,60.0024001,5e110747dc265f7d25341439,64d2fd46c836a06233681665,64dc7f1c707d0bc38769627f,,,,,,,sngl,resources/DB.BMP,resources/Empty.png,Door4,-0.258362269,0.05583044,1,0,0,0.645,optionLeft,60,14240,6,37,0,37,0,1,,,,,,,,,,,,,,,,,,,,,,,,,,,,,,,,,,,,,,,
,,,,,,,,2023-08-16_08h48.42.037,HF_wild_card,2022.2.4,MacIntel,60.0024001,5e110747dc265f7d25341439,64d2fd46c836a06233681665,64dc7f1c707d0bc38769627f,,,,,,,sngl,resources/DP.BMP,resources/Empty.png,Door1,-0.219491464,0.026161024,1,0,0,0.8489,optionLeft,30,14270,6,38,0,38,0,1,,,,,,,,,,,,,,,,,,,,,,,,,,,,,,,,,,,,,,,
,,,,,,,,2023-08-16_08h48.42.037,HF_wild_card,2022.2.4,MacIntel,60.0024001,5e110747dc265f7d25341439,64d2fd46c836a06233681665,64dc7f1c707d0bc38769627f,,,,,,,ctch,resources/DG.BMP,resources/DR.BMP,Door3,-0.160868779,0.027513744,1,0,0,1.0303,optionLeft,70,14340,6,39,0,39,0,1,,,,,,,,,,,,,,,,,,,,,,,,,,,,,,,,,,,,,,,
,,,,,,,,2023-08-16_08h48.42.037,HF_wild_card,2022.2.4,MacIntel,60.0024001,5e110747dc265f7d25341439,64d2fd46c836a06233681665,64dc7f1c707d0bc38769627f,,,,,,,sngl,resources/DR.BMP,resources/Empty.png,Door2,-0.1911386,0.028161169,1,0,0,0.7138,optionLeft,20,14360,6,40,0,40,0,1,,,,,,,,,,,,,,,,,,,,,,,,,,,,,,,,,,,,,,,
,,,,,,,,2023-08-16_08h48.42.037,HF_wild_card,2022.2.4,MacIntel,60.0024001,5e110747dc265f7d25341439,64d2fd46c836a06233681665,64dc7f1c707d0bc38769627f,,,,,,,decisionTrl,resources/DP.BMP,resources/DR.BMP,Door1,-0.213469329,0.023130064,1,0,0,0.7483,optionLeft,30,14390,6,41,0,41,0,1,,,,,,,,,,,,,,,,,,,,,,,,,,,,,,,,,,,,,,,
,,,,,,,,2023-08-16_08h48.42.037,HF_wild_card,2022.2.4,MacIntel,60.0024001,5e110747dc265f7d25341439,64d2fd46c836a06233681665,64dc7f1c707d0bc38769627f,,,,,,,ctch,resources/DB.BMP,resources/DP.BMP,Door4,-0.193731916,0.0578125,1,0,0,0.9988,optionLeft,60,14450,6,42,0,42,0,1,,,,,,,,,,,,,,,,,,,,,,,,,,,,,,,,,,,,,,,
,,,,,,,,2023-08-16_08h48.42.037,HF_wild_card,2022.2.4,MacIntel,60.0024001,5e110747dc265f7d25341439,64d2fd46c836a06233681665,64dc7f1c707d0bc38769627f,,,,,,,decisionTrl,resources/DB.BMP,resources/DBN.BMP,Door4,-0.148621962,0.041898148,1,0,0,0.916,optionLeft,60,14510,6,43,0,43,0,1,,,,,,,,,,,,,,,,,,,,,,,,,,,,,,,,,,,,,,,
,,,,,,,,2023-08-16_08h48.42.037,HF_wild_card,2022.2.4,MacIntel,60.0024001,5e110747dc265f7d25341439,64d2fd46c836a06233681665,64dc7f1c707d0bc38769627f,,,,,,,,,,,,,,,,,,,,,,,,,,5,0,5,0,1,,,,,,,,,,,,,,,,,,,,,,,,,,,,,,,,,,
,,,,,,,,2023-08-16_08h48.42.037,HF_wild_card,2022.2.4,MacIntel,60.0024001,5e110747dc265f7d25341439,64d2fd46c836a06233681665,64dc7f1c707d0bc38769627f,,,,,,,decisionTrl,resources/DR.BMP,resources/DP.BMP,Door1,0.326226128,0.114326534,1,0,0,1.6981,optionRight,30,14540,7,0,0,0,0,1,,,,,,,,,,,,,,,,,,,,,,,,,,,,,,,,,,,,,,,
,,,,,,,,2023-08-16_08h48.42.037,HF_wild_card,2022.2.4,MacIntel,60.0024001,5e110747dc265f7d25341439,64d2fd46c836a06233681665,64dc7f1c707d0bc38769627f,,,,,,,decisionTrl,resources/DR.BMP,resources/DP.BMP,Door1,0.191521991,0.128645833,1,0,0,2.5463,optionRight,30,14570,7,1,0,1,0,1,,,,,,,,,,,,,,,,,,,,,,,,,,,,,,,,,,,,,,,
,,,,,,,,2023-08-16_08h48.42.037,HF_wild_card,2022.2.4,MacIntel,60.0024001,5e110747dc265f7d25341439,64d2fd46c836a06233681665,64dc7f1c707d0bc38769627f,,,,,,,ctch,resources/DP.BMP,resources/DB.BMP,Door4,0.201656539,0.057736545,1,0,0,0.8811,optionRight,80,14650,7,2,0,2,0,1,,,,,,,,,,,,,,,,,,,,,,,,,,,,,,,,,,,,,,,
,,,,,,,,2023-08-16_08h48.42.037,HF_wild_card,2022.2.4,MacIntel,60.0024001,5e110747dc265f7d25341439,64d2fd46c836a06233681665,64dc7f1c707d0bc38769627f,,,,,,,decisionTrl,resources/DR.BMP,resources/DP.BMP,Door2,-0.113961227,0.108109086,1,0,0,1.4642,optionLeft,20,14670,7,3,0,3,0,1,,,,,,,,,,,,,,,,,,,,,,,,,,,,,,,,,,,,,,,
,,,,,,,,2023-08-16_08h48.42.037,HF_wild_card,2022.2.4,MacIntel,60.0024001,5e110747dc265f7d25341439,64d2fd46c836a06233681665,64dc7f1c707d0bc38769627f,,,,,,,decisionTrl,resources/DG.BMP,resources/DB.BMP,Door3,-0.220978009,0.044249132,1,0,0,1.2813,optionLeft,70,14740,7,4,0,4,0,1,,,,,,,,,,,,,,,,,,,,,,,,,,,,,,,,,,,,,,,
,,,,,,,,2023-08-16_08h48.42.037,HF_wild_card,2022.2.4,MacIntel,60.0024001,5e110747dc265f7d25341439,64d2fd46c836a06233681665,64dc7f1c707d0bc38769627f,,,,,,,ctch,resources/DB.BMP,resources/DP.BMP,Door4,-0.117791522,0.020175058,1,0,0,0.9322,optionLeft,80,14820,7,5,0,5,0,1,,,,,,,,,,,,,,,,,,,,,,,,,,,,,,,,,,,,,,,
,,,,,,,,2023-08-16_08h48.42.037,HF_wild_card,2022.2.4,MacIntel,60.0024001,5e110747dc265f7d25341439,64d2fd46c836a06233681665,64dc7f1c707d0bc38769627f,,,,,,,ctch,resources/DR.BMP,resources/DG.BMP,Door3,0.435608362,0.044936343,1,0,0,0.6795,optionRight,70,14890,7,6,0,6,0,1,,,,,,,,,,,,,,,,,,,,,,,,,,,,,,,,,,,,,,,
,,,,,,,,2023-08-16_08h48.42.037,HF_wild_card,2022.2.4,MacIntel,60.0024001,5e110747dc265f7d25341439,64d2fd46c836a06233681665,64dc7f1c707d0bc38769627f,,,,,,,decisionTrl,resources/DP.BMP,resources/DR.BMP,Door2,0.175864439,0.114308449,1,0,0,1.1317,optionRight,20,14910,7,7,0,7,0,1,,,,,,,,,,,,,,,,,,,,,,,,,,,,,,,,,,,,,,,
,,,,,,,,2023-08-16_08h48.42.037,HF_wild_card,2022.2.4,MacIntel,60.0024001,5e110747dc265f7d25341439,64d2fd46c836a06233681665,64dc7f1c707d0bc38769627f,,,,,,,ctch,resources/DP.BMP,resources/DB.BMP,Door4,0.193124277,0.097392216,1,0,0,0.9822,optionRight,80,14990,7,8,0,8,0,1,,,,,,,,,,,,,,,,,,,,,,,,,,,,,,,,,,,,,,,
,,,,,,,,2023-08-16_08h48.42.037,HF_wild_card,2022.2.4,MacIntel,60.0024001,5e110747dc265f7d25341439,64d2fd46c836a06233681665,64dc7f1c707d0bc38769627f,,,,,,,decisionTrl,resources/DG.BMP,resources/DB.BMP,Door3,-0.162926794,0.038172743,1,0,0,0.8493,optionLeft,70,15060,7,9,0,9,0,1,,,,,,,,,,,,,,,,,,,,,,,,,,,,,,,,,,,,,,,
,,,,,,,,2023-08-16_08h48.42.037,HF_wild_card,2022.2.4,MacIntel,60.0024001,5e110747dc265f7d25341439,64d2fd46c836a06233681665,64dc7f1c707d0bc38769627f,,,,,,,decisionTrl,resources/DB.BMP,resources/DG.BMP,Door3,0.227452257,0.130013021,1,0,0,1.0652,optionRight,70,15130,7,10,0,10,0,1,,,,,,,,,,,,,,,,,,,,,,,,,,,,,,,,,,,,,,,
,,,,,,,,2023-08-16_08h48.42.037,HF_wild_card,2022.2.4,MacIntel,60.0024001,5e110747dc265f7d25341439,64d2fd46c836a06233681665,64dc7f1c707d0bc38769627f,,,,,,,ctch,resources/DR.BMP,resources/DG.BMP,Door3,0.230765336,0.127032697,1,0,0,0.7494,optionRight,70,15200,7,11,0,11,0,1,,,,,,,,,,,,,,,,,,,,,,,,,,,,,,,,,,,,,,,
,,,,,,,,2023-08-16_08h48.42.037,HF_wild_card,2022.2.4,MacIntel,60.0024001,5e110747dc265f7d25341439,64d2fd46c836a06233681665,64dc7f1c707d0bc38769627f,,,,,,,ctch,resources/DR.BMP,resources/DG.BMP,Door3,0.318815104,0.098813657,1,0,0,0.6151,optionRight,70,15270,7,12,0,12,0,1,,,,,,,,,,,,,,,,,,,,,,,,,,,,,,,,,,,,,,,
,,,,,,,,2023-08-16_08h48.42.037,HF_wild_card,2022.2.4,MacIntel,60.0024001,5e110747dc265f7d25341439,64d2fd46c836a06233681665,64dc7f1c707d0bc38769627f,,,,,,,ctch,resources/DB.BMP,resources/DP.BMP,Door4,-0.188259549,0.09125434,1,0,0,1.3325,optionLeft,60,15330,7,13,0,13,0,1,,,,,,,,,,,,,,,,,,,,,,,,,,,,,,,,,,,,,,,
,,,,,,,,2023-08-16_08h48.42.037,HF_wild_card,2022.2.4,MacIntel,60.0024001,5e110747dc265f7d25341439,64d2fd46c836a06233681665,64dc7f1c707d0bc38769627f,,,,,,,decisionTrl,resources/DP.BMP,resources/DR.BMP,Door1,-0.131184896,0.093344907,1,0,0,2.0805,optionLeft,30,15360,7,14,0,14,0,1,,,,,,,,,,,,,,,,,,,,,,,,,,,,,,,,,,,,,,,
,,,,,,,,2023-08-16_08h48.42.037,HF_wild_card,2022.2.4,MacIntel,60.0024001,5e110747dc265f7d25341439,64d2fd46c836a06233681665,64dc7f1c707d0bc38769627f,,,,,,,decisionTrl,resources/DR.BMP,resources/DP.BMP,Door1,0.22098886,0.081441696,1,0,0,0.9504,optionRight,30,15390,7,15,0,15,0,1,,,,,,,,,,,,,,,,,,,,,,,,,,,,,,,,,,,,,,,
,,,,,,,,2023-08-16_08h48.42.037,HF_wild_card,2022.2.4,MacIntel,60.0024001,5e110747dc265f7d25341439,64d2fd46c836a06233681665,64dc7f1c707d0bc38769627f,,,,,,,decisionTrl,resources/DP.BMP,resources/DR.BMP,Door1,-0.176833767,0.035065828,1,0,0,0.6839,optionLeft,30,15420,7,16,0,16,0,1,,,,,,,,,,,,,,,,,,,,,,,,,,,,,,,,,,,,,,,
,,,,,,,,2023-08-16_08h48.42.037,HF_wild_card,2022.2.4,MacIntel,60.0024001,5e110747dc265f7d25341439,64d2fd46c836a06233681665,64dc7f1c707d0bc38769627f,,,,,,,decisionTrl,resources/DG.BMP,resources/DB.BMP,Door3,-0.130674913,0.077325666,1,0,0,1.3151,optionLeft,70,15490,7,17,0,17,0,1,,,,,,,,,,,,,,,,,,,,,,,,,,,,,,,,,,,,,,,
,,,,,,,,2023-08-16_08h48.42.037,HF_wild_card,2022.2.4,MacIntel,60.0024001,5e110747dc265f7d25341439,64d2fd46c836a06233681665,64dc7f1c707d0bc38769627f,,,,,,,decisionTrl,resources/DP.BMP,resources/DR.BMP,Door1,-0.130606192,0.138219763,1,0,0,1.914,optionLeft,30,15520,7,18,0,18,0,1,,,,,,,,,,,,,,,,,,,,,,,,,,,,,,,,,,,,,,,
,,,,,,,,2023-08-16_08h48.42.037,HF_wild_card,2022.2.4,MacIntel,60.0024001,5e110747dc265f7d25341439,64d2fd46c836a06233681665,64dc7f1c707d0bc38769627f,,,,,,,decisionTrl,resources/DB.BMP,resources/DG.BMP,Door3,0.222421152,0.210499855,1,0,0,1.0819,optionRight,70,15590,7,19,0,19,0,1,,,,,,,,,,,,,,,,,,,,,,,,,,,,,,,,,,,,,,,
,,,,,,,,2023-08-16_08h48.42.037,HF_wild_card,2022.2.4,MacIntel,60.0024001,5e110747dc265f7d25341439,64d2fd46c836a06233681665,64dc7f1c707d0bc38769627f,,,,,,,decisionTrl,resources/DG.BMP,resources/DB.BMP,Door3,-0.261118345,0.117230903,1,0,0,1.0132,optionLeft,70,15660,7,20,0,20,0,1,,,,,,,,,,,,,,,,,,,,,,,,,,,,,,,,,,,,,,,
,,,,,,,,2023-08-16_08h48.42.037,HF_wild_card,2022.2.4,MacIntel,60.0024001,5e110747dc265f7d25341439,64d2fd46c836a06233681665,64dc7f1c707d0bc38769627f,,,,,,,decisionTrl,resources/DP.BMP,resources/DR.BMP,Door1,-0.172403067,0.146509693,1,0,0,2.8285,optionLeft,30,15690,7,21,0,21,0,1,,,,,,,,,,,,,,,,,,,,,,,,,,,,,,,,,,,,,,,
,,,,,,,,2023-08-16_08h48.42.037,HF_wild_card,2022.2.4,MacIntel,60.0024001,5e110747dc265f7d25341439,64d2fd46c836a06233681665,64dc7f1c707d0bc38769627f,,,,,,,ctch,resources/DP.BMP,resources/DB.BMP,Door4,0.186968316,0.093894676,1,0,0,1.0156,optionRight,60,15750,7,22,0,22,0,1,,,,,,,,,,,,,,,,,,,,,,,,,,,,,,,,,,,,,,,
,,,,,,,,2023-08-16_08h48.42.037,HF_wild_card,2022.2.4,MacIntel,60.0024001,5e110747dc265f7d25341439,64d2fd46c836a06233681665,64dc7f1c707d0bc38769627f,,,,,,,ctch,resources/DG.BMP,resources/DR.BMP,Door3,-0.235550492,0.066619647,1,0,0,0.7313,optionLeft,70,15820,7,23,0,23,0,1,,,,,,,,,,,,,,,,,,,,,,,,,,,,,,,,,,,,,,,
,,,,,,,,2023-08-16_08h48.42.037,HF_wild_card,2022.2.4,MacIntel,60.0024001,5e110747dc265f7d25341439,64d2fd46c836a06233681665,64dc7f1c707d0bc38769627f,,,,,,,ctch,resources/DB.BMP,resources/DP.BMP,Door4,-0.153946036,0.063675492,1,0,0,1.015,optionLeft,60,15880,7,24,0,24,0,1,,,,,,,,,,,,,,,,,,,,,,,,,,,,,,,,,,,,,,,
,,,,,,,,2023-08-16_08h48.42.037,HF_wild_card,2022.2.4,MacIntel,60.0024001,5e110747dc265f7d25341439,64d2fd46c836a06233681665,64dc7f1c707d0bc38769627f,,,,,,,decisionTrl,resources/DR.BMP,resources/DP.BMP,Door1,0.220261863,0.118970631,1,0,0,2.2151,optionRight,30,15910,7,25,0,25,0,1,,,,,,,,,,,,,,,,,,,,,,,,,,,,,,,,,,,,,,,
,,,,,,,,2023-08-16_08h48.42.037,HF_wild_card,2022.2.4,MacIntel,60.0024001,5e110747dc265f7d25341439,64d2fd46c836a06233681665,64dc7f1c707d0bc38769627f,,,,,,,ctch,resources/DG.BMP,resources/DR.BMP,Door3,-0.191200087,0.053002025,1,0,0,1.1635,optionLeft,70,15980,7,26,0,26,0,1,,,,,,,,,,,,,,,,,,,,,,,,,,,,,,,,,,,,,,,
,,,,,,,,2023-08-16_08h48.42.037,HF_wild_card,2022.2.4,MacIntel,60.0024001,5e110747dc265f7d25341439,64d2fd46c836a06233681665,64dc7f1c707d0bc38769627f,,,,,,,decisionTrl,resources/DP.BMP,resources/DR.BMP,Door1,-0.15234375,0.067408131,1,0,0,1.7465,optionLeft,30,16010,7,27,0,27,0,1,,,,,,,,,,,,,,,,,,,,,,,,,,,,,,,,,,,,,,,
,,,,,,,,2023-08-16_08h48.42.037,HF_wild_card,2022.2.4,MacIntel,60.0024001,5e110747dc265f7d25341439,64d2fd46c836a06233681665,64dc7f1c707d0bc38769627f,,,,,,,decisionTrl,resources/DB.BMP,resources/DG.BMP,Door3,0.124395978,0.075220631,1,0,0,1.5642,optionRight,70,16080,7,28,0,28,0,1,,,,,,,,,,,,,,,,,,,,,,,,,,,,,,,,,,,,,,,
,,,,,,,,2023-08-16_08h48.42.037,HF_wild_card,2022.2.4,MacIntel,60.0024001,5e110747dc265f7d25341439,64d2fd46c836a06233681665,64dc7f1c707d0bc38769627f,,,,,,,decisionTrl,resources/DB.BMP,resources/DG.BMP,Door3,0.145052083,0.076775897,1,0,0,1.6992,optionRight,70,16150,7,29,0,29,0,1,,,,,,,,,,,,,,,,,,,,,,,,,,,,,,,,,,,,,,,
,,,,,,,,2023-08-16_08h48.42.037,HF_wild_card,2022.2.4,MacIntel,60.0024001,5e110747dc265f7d25341439,64d2fd46c836a06233681665,64dc7f1c707d0bc38769627f,,,,,,,decisionTrl,resources/DR.BMP,resources/DP.BMP,Door1,0.100144676,0.155005787,1,0,0,1.9171,optionRight,30,16180,7,30,0,30,0,1,,,,,,,,,,,,,,,,,,,,,,,,,,,,,,,,,,,,,,,
,,,,,,,,2023-08-16_08h48.42.037,HF_wild_card,2022.2.4,MacIntel,60.0024001,5e110747dc265f7d25341439,64d2fd46c836a06233681665,64dc7f1c707d0bc38769627f,,,,,,,decisionTrl,resources/DB.BMP,resources/DG.BMP,Door3,0.197305411,0.116127749,1,0,0,1.6983,optionRight,70,16250,7,31,0,31,0,1,,,,,,,,,,,,,,,,,,,,,,,,,,,,,,,,,,,,,,,
,,,,,,,,2023-08-16_08h48.42.037,HF_wild_card,2022.2.4,MacIntel,60.0024001,5e110747dc265f7d25341439,64d2fd46c836a06233681665,64dc7f1c707d0bc38769627f,,,,,,,decisionTrl,resources/DG.BMP,resources/DB.BMP,Door3,-0.345030382,0.11666305,1,0,0,1.431,optionLeft,70,16320,7,32,0,32,0,1,,,,,,,,,,,,,,,,,,,,,,,,,,,,,,,,,,,,,,,
,,,,,,,,2023-08-16_08h48.42.037,HF_wild_card,2022.2.4,MacIntel,60.0024001,5e110747dc265f7d25341439,64d2fd46c836a06233681665,64dc7f1c707d0bc38769627f,,,,,,,decisionTrl,resources/DG.BMP,resources/DB.BMP,Door3,-0.141446036,0.046281829,1,0,0,0.7641,optionLeft,70,16390,7,33,0,33,0,1,,,,,,,,,,,,,,,,,,,,,,,,,,,,,,,,,,,,,,,
,,,,,,,,2023-08-16_08h48.42.037,HF_wild_card,2022.2.4,MacIntel,60.0024001,5e110747dc265f7d25341439,64d2fd46c836a06233681665,64dc7f1c707d0bc38769627f,,,,,,,decisionTrl,resources/DB.BMP,resources/DG.BMP,Door3,0.164742477,0.067928964,1,0,0,0.6841,optionRight,70,16460,7,34,0,34,0,1,,,,,,,,,,,,,,,,,,,,,,,,,,,,,,,,,,,,,,,
,,,,,,,,2023-08-16_08h48.42.037,HF_wild_card,2022.2.4,MacIntel,60.0024001,5e110747dc265f7d25341439,64d2fd46c836a06233681665,64dc7f1c707d0bc38769627f,,,,,,,ctch,resources/DG.BMP,resources/DR.BMP,Door3,-0.176497396,0.017838542,1,0,0,0.9963,optionLeft,70,16530,7,35,0,35,0,1,,,,,,,,,,,,,,,,,,,,,,,,,,,,,,,,,,,,,,,
,,,,,,,,2023-08-16_08h48.42.037,HF_wild_card,2022.2.4,MacIntel,60.0024001,5e110747dc265f7d25341439,64d2fd46c836a06233681665,64dc7f1c707d0bc38769627f,,,,,,,,,,,,,,,,,,,,,,,,,,6,0,6,0,1,,,,,,,,,,,,,,,,,,,,,,,,,,,,,,,,,,
,,,,,,,,2023-08-16_08h48.42.037,HF_wild_card,2022.2.4,MacIntel,60.0024001,5e110747dc265f7d25341439,64d2fd46c836a06233681665,64dc7f1c707d0bc38769627f,,,,,,,,,,,,,,,,,,,,,,,,,,,,,,,4,,,,,,,,,,,,,,,,,,,,,,,,,,,,,,,,,
,,,,,,,,2023-08-16_08h48.42.037,HF_wild_card,2022.2.4,MacIntel,60.0024001,5e110747dc265f7d25341439,64d2fd46c836a06233681665,64dc7f1c707d0bc38769627f,,,,,,,,,,,,,,,,,,,,,,,,,,,,,,,,,,,,,,,,,,,,,,,,,,,,,,,,,,,,,,,,
,,,,,,,,2023-08-16_08h48.42.037,HF_wild_card,2022.2.4,MacIntel,60.0024001,5e110747dc265f7d25341439,64d2fd46c836a06233681665,64dc7f1c707d0bc38769627f,,,,,,,,,,,,,,,,,,,,,,,,,,,,,,,,70,Door3,resources/DG.BMP,0,0,0,0,1,,,,,,,,,,,,,,,,,,,,,,,,,
,,,,,,,,2023-08-16_08h48.42.037,HF_wild_card,2022.2.4,MacIntel,60.0024001,5e110747dc265f7d25341439,64d2fd46c836a06233681665,64dc7f1c707d0bc38769627f,,,,,,,,,,,,,,,,,,,,,,,,,,,,,,,,60,Door4,resources/DB.BMP,1,0,1,0,1,,,,,,,,,,,,,,,,,,,,,,,,,
,,,,,,,,2023-08-16_08h48.42.037,HF_wild_card,2022.2.4,MacIntel,60.0024001,5e110747dc265f7d25341439,64d2fd46c836a06233681665,64dc7f1c707d0bc38769627f,,,,,,,,,,,,,,,,,,,,,,,,,,,,,,,,20,Door2,resources/DR.BMP,2,0,2,0,1,,,,,,,,,,,,,,,,,,,,,,,,,
,,,,,,,,2023-08-16_08h48.42.037,HF_wild_card,2022.2.4,MacIntel,60.0024001,5e110747dc265f7d25341439,64d2fd46c836a06233681665,64dc7f1c707d0bc38769627f,,,,,,,,,,,,,,,,,,,,,,,,,,,,,,,,30,Door1,resources/DP.BMP,3,0,3,0,1,,,,,,,,,,,,,,,,,,,,,,,,,
,,,,,,,,2023-08-16_08h48.42.037,HF_wild_card,2022.2.4,MacIntel,60.0024001,5e110747dc265f7d25341439,64d2fd46c836a06233681665,64dc7f1c707d0bc38769627f,,,,,,,,,,,,,,,,,,,,,,,,,,,,,,,,35,WC_nonExtreme,resources/DY.BMP,4,0,4,0,1,,,,,,,,,,,,,,,,,,,,,,,,,
