Condition,Low fixed image (Door1),Low risky image (Door2),High fixed image (Door3),High risky image (Door4),NonExtreme Wild Card 1,NonExtreme Wild Card 2,,date,expName,psychopyVersion,OS,frameRate,PROLIFIC_PID,STUDY_ID,SESSION_ID,mouse_2.x,mouse_2.y,mouse_2.leftButton,mouse_2.midButton,mouse_2.rightButton,mouse_2.clicked_name,Trial Type,Left Option Image,Right Option Image,Chosen Door,mouse.x,mouse.y,mouse.leftButton,mouse.midButton,mouse.rightButton,mouse.time,mouse.clicked_name,Feedback,Cumulative Reward,Block,trial.thisRepN,trial.thisTrialN,trial.thisN,trial.thisIndex,trial.ran,blocks.thisRepN,blocks.thisTrialN,blocks.thisN,blocks.thisIndex,blocks.ran,Money conversion,First Outcome Reported,Shown Door (First Outcome),Displayed Image (First Outcome),outcomes.thisRepN,outcomes.thisTrialN,outcomes.thisN,outcomes.thisIndex,outcomes.ran,judgments.thisRepN,judgments.thisTrialN,judgments.thisN,judgments.thisIndex,judgments.ran,freqMouse.x,freqMouse.y,freqMouse.leftButton,freqMouse.midButton,freqMouse.rightButton,freqMouse.clicked_name,trials.thisRepN,trials.thisTrialN,trials.thisN,trials.thisIndex,trials.ran,FQJ for first outcome,FQJ for second outcome,Shown Door,Displayed Image,judgBlock.thisRepN,judgBlock.thisTrialN,judgBlock.thisN,judgBlock.thisIndex,judgBlock.ran
2,resources/DB.BMP,resources/DY.BMP,resources/DG.BMP,resources/DR.BMP,resources/DBN.BMP,resources/DP.BMP,,2023-08-16_08h30.11.489,HF_wild_card,2022.2.4,MacIntel,60.0024001,5c3121af8c6d820001abed8e,64d2fd46c836a06233681665,64dc7af7af547a8081be8950,,,,,,,,,,,,,,,,,,,,,,,,,,,,,,,,,,,,,,,,,,,,,,,,,,,,,,,,,,,,,,,,
,,,,,,,,2023-08-16_08h30.11.489,HF_wild_card,2022.2.4,MacIntel,60.0024001,5c3121af8c6d820001abed8e,64d2fd46c836a06233681665,64dc7af7af547a8081be8950,0.009389468,-0.413834635,1,0,0,agree,,,,,,,,,,,,,,,,,,,,,,,,,,,,,,,,,,,,,,,,,,,,,,,,,,,,,,,,,,
,,,,,,,,2023-08-16_08h30.11.489,HF_wild_card,2022.2.4,MacIntel,60.0024001,5c3121af8c6d820001abed8e,64d2fd46c836a06233681665,64dc7af7af547a8081be8950,,,,,,,,,,,,,,,,,,,,,,,,,,,,,,,,,,,,,,,,,,,,,,,,,,,,,,,,,,,,,,,,
,,,,,,,,2023-08-16_08h30.11.489,HF_wild_card,2022.2.4,MacIntel,60.0024001,5c3121af8c6d820001abed8e,64d2fd46c836a06233681665,64dc7af7af547a8081be8950,,,,,,,sngl,resources/DR.BMP,resources/Empty.png,Door4,-0.371853299,-0.124468316,1,0,0,3.4615,optionLeft,80,80,1,0,0,0,0,1,,,,,,,,,,,,,,,,,,,,,,,,,,,,,,,,,,,,,,,
,,,,,,,,2023-08-16_08h30.11.489,HF_wild_card,2022.2.4,MacIntel,60.0024001,5c3121af8c6d820001abed8e,64d2fd46c836a06233681665,64dc7af7af547a8081be8950,,,,,,,decisionTrl,resources/DB.BMP,resources/DY.BMP,Door2,0.421137153,-0.081159578,1,0,0,3.6278,optionRight,20,100,1,1,0,1,0,1,,,,,,,,,,,,,,,,,,,,,,,,,,,,,,,,,,,,,,,
,,,,,,,,2023-08-16_08h30.11.489,HF_wild_card,2022.2.4,MacIntel,60.0024001,5c3121af8c6d820001abed8e,64d2fd46c836a06233681665,64dc7af7af547a8081be8950,,,,,,,ctch,resources/DB.BMP,resources/DR.BMP,Door1,-0.389341001,-0.023867911,1,0,0,3.4101,optionLeft,30,130,1,2,0,2,0,1,,,,,,,,,,,,,,,,,,,,,,,,,,,,,,,,,,,,,,,
,,,,,,,,2023-08-16_08h30.11.489,HF_wild_card,2022.2.4,MacIntel,60.0024001,5c3121af8c6d820001abed8e,64d2fd46c836a06233681665,64dc7af7af547a8081be8950,,,,,,,decisionTrl,resources/DY.BMP,resources/DB.BMP,Door2,-0.412684462,-0.024182581,1,0,0,2.2292,optionLeft,40,170,1,3,0,3,0,1,,,,,,,,,,,,,,,,,,,,,,,,,,,,,,,,,,,,,,,
,,,,,,,,2023-08-16_08h30.11.489,HF_wild_card,2022.2.4,MacIntel,60.0024001,5c3121af8c6d820001abed8e,64d2fd46c836a06233681665,64dc7af7af547a8081be8950,,,,,,,decisionTrl,resources/DG.BMP,resources/DR.BMP,Door3,-0.387409578,-0.038038918,1,0,0,3.3803,optionLeft,70,240,1,4,0,4,0,1,,,,,,,,,,,,,,,,,,,,,,,,,,,,,,,,,,,,,,,
,,,,,,,,2023-08-16_08h30.11.489,HF_wild_card,2022.2.4,MacIntel,60.0024001,5c3121af8c6d820001abed8e,64d2fd46c836a06233681665,64dc7af7af547a8081be8950,,,,,,,sngl,resources/DP.BMP,resources/Empty.png,WildCard_NonEx,-0.332541233,-0.028450521,1,0,0,1.2987,optionLeft,45,285,1,5,0,5,0,1,,,,,,,,,,,,,,,,,,,,,,,,,,,,,,,,,,,,,,,
,,,,,,,,2023-08-16_08h30.11.489,HF_wild_card,2022.2.4,MacIntel,60.0024001,5c3121af8c6d820001abed8e,64d2fd46c836a06233681665,64dc7af7af547a8081be8950,,,,,,,sngl,resources/DY.BMP,resources/Empty.png,Door2,-0.269769965,-0.016619647,1,0,0,0.9298,optionLeft,40,325,1,6,0,6,0,1,,,,,,,,,,,,,,,,,,,,,,,,,,,,,,,,,,,,,,,
,,,,,,,,2023-08-16_08h30.11.489,HF_wild_card,2022.2.4,MacIntel,60.0024001,5c3121af8c6d820001abed8e,64d2fd46c836a06233681665,64dc7af7af547a8081be8950,,,,,,,decisionTrl,resources/DR.BMP,resources/DG.BMP,Door3,0.376522714,0.049786603,1,0,0,1.5655,optionRight,70,395,1,7,0,7,0,1,,,,,,,,,,,,,,,,,,,,,,,,,,,,,,,,,,,,,,,
,,,,,,,,2023-08-16_08h30.11.489,HF_wild_card,2022.2.4,MacIntel,60.0024001,5c3121af8c6d820001abed8e,64d2fd46c836a06233681665,64dc7af7af547a8081be8950,,,,,,,decisionTrl,resources/DR.BMP,resources/DG.BMP,Door3,0.498538773,-0.056709346,1,0,0,1.2451,optionRight,70,465,1,8,0,8,0,1,,,,,,,,,,,,,,,,,,,,,,,,,,,,,,,,,,,,,,,
,,,,,,,,2023-08-16_08h30.11.489,HF_wild_card,2022.2.4,MacIntel,60.0024001,5c3121af8c6d820001abed8e,64d2fd46c836a06233681665,64dc7af7af547a8081be8950,,,,,,,ctch,resources/DY.BMP,resources/DG.BMP,Door3,0.413679109,-0.030729167,1,0,0,1.314,optionRight,70,535,1,9,0,9,0,1,,,,,,,,,,,,,,,,,,,,,,,,,,,,,,,,,,,,,,,
,,,,,,,,2023-08-16_08h30.11.489,HF_wild_card,2022.2.4,MacIntel,60.0024001,5c3121af8c6d820001abed8e,64d2fd46c836a06233681665,64dc7af7af547a8081be8950,,,,,,,decisionTrl,resources/DR.BMP,resources/DP.BMP,Door4,-0.309157986,-0.110311777,1,0,0,1.9111,optionLeft,60,595,1,10,0,10,0,1,,,,,,,,,,,,,,,,,,,,,,,,,,,,,,,,,,,,,,,
,,,,,,,,2023-08-16_08h30.11.489,HF_wild_card,2022.2.4,MacIntel,60.0024001,5c3121af8c6d820001abed8e,64d2fd46c836a06233681665,64dc7af7af547a8081be8950,,,,,,,decisionTrl,resources/DB.BMP,resources/DY.BMP,Door2,0.346336082,-0.03030599,1,0,0,1.517,optionRight,20,615,1,11,0,11,0,1,,,,,,,,,,,,,,,,,,,,,,,,,,,,,,,,,,,,,,,
,,,,,,,,2023-08-16_08h30.11.489,HF_wild_card,2022.2.4,MacIntel,60.0024001,5c3121af8c6d820001abed8e,64d2fd46c836a06233681665,64dc7af7af547a8081be8950,,,,,,,decisionTrl,resources/DP.BMP,resources/DB.BMP,Door1,0.276233362,-0.0236943,1,0,0,1.5945,optionRight,30,645,1,12,0,12,0,1,,,,,,,,,,,,,,,,,,,,,,,,,,,,,,,,,,,,,,,
,,,,,,,,2023-08-16_08h30.11.489,HF_wild_card,2022.2.4,MacIntel,60.0024001,5c3121af8c6d820001abed8e,64d2fd46c836a06233681665,64dc7af7af547a8081be8950,,,,,,,sngl,resources/Empty.png,resources/DY.BMP,Door2,0.339037182,-0.074023437,1,0,0,1.2968,optionRight,20,665,1,13,0,13,0,1,,,,,,,,,,,,,,,,,,,,,,,,,,,,,,,,,,,,,,,
,,,,,,,,2023-08-16_08h30.11.489,HF_wild_card,2022.2.4,MacIntel,60.0024001,5c3121af8c6d820001abed8e,64d2fd46c836a06233681665,64dc7af7af547a8081be8950,,,,,,,sngl,resources/DB.BMP,resources/Empty.png,Door1,-0.31687283,0.0119864,1,0,0,1.3829,optionLeft,30,695,1,14,0,14,0,1,,,,,,,,,,,,,,,,,,,,,,,,,,,,,,,,,,,,,,,
,,,,,,,,2023-08-16_08h30.11.489,HF_wild_card,2022.2.4,MacIntel,60.0024001,5c3121af8c6d820001abed8e,64d2fd46c836a06233681665,64dc7af7af547a8081be8950,,,,,,,decisionTrl,resources/DY.BMP,resources/DB.BMP,Door1,0.342296007,-0.0419307,1,0,0,1.9809,optionRight,30,725,1,15,0,15,0,1,,,,,,,,,,,,,,,,,,,,,,,,,,,,,,,,,,,,,,,
,,,,,,,,2023-08-16_08h30.11.489,HF_wild_card,2022.2.4,MacIntel,60.0024001,5c3121af8c6d820001abed8e,64d2fd46c836a06233681665,64dc7af7af547a8081be8950,,,,,,,decisionTrl,resources/DY.BMP,resources/DB.BMP,Door1,0.33120298,0.062261285,1,0,0,1.3156,optionRight,30,755,1,16,0,16,0,1,,,,,,,,,,,,,,,,,,,,,,,,,,,,,,,,,,,,,,,
,,,,,,,,2023-08-16_08h30.11.489,HF_wild_card,2022.2.4,MacIntel,60.0024001,5c3121af8c6d820001abed8e,64d2fd46c836a06233681665,64dc7af7af547a8081be8950,,,,,,,sngl,resources/Empty.png,resources/DP.BMP,WildCard_NonEx,0.348064959,-0.048755787,1,0,0,1.4327,optionRight,55,810,1,17,0,17,0,1,,,,,,,,,,,,,,,,,,,,,,,,,,,,,,,,,,,,,,,
,,,,,,,,2023-08-16_08h30.11.489,HF_wild_card,2022.2.4,MacIntel,60.0024001,5c3121af8c6d820001abed8e,64d2fd46c836a06233681665,64dc7af7af547a8081be8950,,,,,,,ctch,resources/DB.BMP,resources/DR.BMP,Door4,0.395934606,-0.031684028,1,0,0,1.5818,optionRight,60,870,1,18,0,18,0,1,,,,,,,,,,,,,,,,,,,,,,,,,,,,,,,,,,,,,,,
,,,,,,,,2023-08-16_08h30.11.489,HF_wild_card,2022.2.4,MacIntel,60.0024001,5c3121af8c6d820001abed8e,64d2fd46c836a06233681665,64dc7af7af547a8081be8950,,,,,,,decisionTrl,resources/DR.BMP,resources/DG.BMP,Door3,0.390010127,0.010792824,1,0,0,2.2117,optionRight,70,940,1,19,0,19,0,1,,,,,,,,,,,,,,,,,,,,,,,,,,,,,,,,,,,,,,,
,,,,,,,,2023-08-16_08h30.11.489,HF_wild_card,2022.2.4,MacIntel,60.0024001,5c3121af8c6d820001abed8e,64d2fd46c836a06233681665,64dc7af7af547a8081be8950,,,,,,,decisionTrl,resources/DG.BMP,resources/DR.BMP,Door3,-0.41161386,0.010886863,1,0,0,1.1803,optionLeft,70,1010,1,20,0,20,0,1,,,,,,,,,,,,,,,,,,,,,,,,,,,,,,,,,,,,,,,
,,,,,,,,2023-08-16_08h30.11.489,HF_wild_card,2022.2.4,MacIntel,60.0024001,5c3121af8c6d820001abed8e,64d2fd46c836a06233681665,64dc7af7af547a8081be8950,,,,,,,ctch,resources/DY.BMP,resources/DG.BMP,Door3,0.427712674,-0.015603299,1,0,0,1.2802,optionRight,70,1080,1,21,0,21,0,1,,,,,,,,,,,,,,,,,,,,,,,,,,,,,,,,,,,,,,,
,,,,,,,,2023-08-16_08h30.11.489,HF_wild_card,2022.2.4,MacIntel,60.0024001,5c3121af8c6d820001abed8e,64d2fd46c836a06233681665,64dc7af7af547a8081be8950,,,,,,,sngl,resources/Empty.png,resources/DG.BMP,Door3,0.319903791,-0.007490596,1,0,0,0.73,optionRight,70,1150,1,22,0,22,0,1,,,,,,,,,,,,,,,,,,,,,,,,,,,,,,,,,,,,,,,
,,,,,,,,2023-08-16_08h30.11.489,HF_wild_card,2022.2.4,MacIntel,60.0024001,5c3121af8c6d820001abed8e,64d2fd46c836a06233681665,64dc7af7af547a8081be8950,,,,,,,ctch,resources/DR.BMP,resources/DB.BMP,Door4,-0.380327691,0.001812066,1,0,0,2.9137,optionLeft,60,1210,1,23,0,23,0,1,,,,,,,,,,,,,,,,,,,,,,,,,,,,,,,,,,,,,,,
,,,,,,,,2023-08-16_08h30.11.489,HF_wild_card,2022.2.4,MacIntel,60.0024001,5c3121af8c6d820001abed8e,64d2fd46c836a06233681665,64dc7af7af547a8081be8950,,,,,,,decisionTrl,resources/DY.BMP,resources/DB.BMP,Door1,0.363722512,-0.023914931,1,0,0,2.1152,optionRight,30,1240,1,24,0,24,0,1,,,,,,,,,,,,,,,,,,,,,,,,,,,,,,,,,,,,,,,
,,,,,,,,2023-08-16_08h30.11.489,HF_wild_card,2022.2.4,MacIntel,60.0024001,5c3121af8c6d820001abed8e,64d2fd46c836a06233681665,64dc7af7af547a8081be8950,,,,,,,decisionTrl,resources/DB.BMP,resources/DY.BMP,Door1,-0.350354456,-0.020768229,1,0,0,0.9293,optionLeft,30,1270,1,25,0,25,0,1,,,,,,,,,,,,,,,,,,,,,,,,,,,,,,,,,,,,,,,
,,,,,,,,2023-08-16_08h30.11.489,HF_wild_card,2022.2.4,MacIntel,60.0024001,5c3121af8c6d820001abed8e,64d2fd46c836a06233681665,64dc7af7af547a8081be8950,,,,,,,sngl,resources/DP.BMP,resources/Empty.png,WildCard_NonEx,-0.298625579,-0.032595486,1,0,0,0.9298,optionLeft,55,1325,1,26,0,26,0,1,,,,,,,,,,,,,,,,,,,,,,,,,,,,,,,,,,,,,,,
,,,,,,,,2023-08-16_08h30.11.489,HF_wild_card,2022.2.4,MacIntel,60.0024001,5c3121af8c6d820001abed8e,64d2fd46c836a06233681665,64dc7af7af547a8081be8950,,,,,,,decisionTrl,resources/DY.BMP,resources/DP.BMP,WildCard_NonEx,0.437181713,-0.046509693,1,0,0,1.4145,optionRight,55,1380,1,27,0,27,0,1,,,,,,,,,,,,,,,,,,,,,,,,,,,,,,,,,,,,,,,
,,,,,,,,2023-08-16_08h30.11.489,HF_wild_card,2022.2.4,MacIntel,60.0024001,5c3121af8c6d820001abed8e,64d2fd46c836a06233681665,64dc7af7af547a8081be8950,,,,,,,ctch,resources/DR.BMP,resources/DB.BMP,Door4,-0.31400463,-0.019455295,1,0,0,1.8455,optionLeft,60,1440,1,28,0,28,0,1,,,,,,,,,,,,,,,,,,,,,,,,,,,,,,,,,,,,,,,
,,,,,,,,2023-08-16_08h30.11.489,HF_wild_card,2022.2.4,MacIntel,60.0024001,5c3121af8c6d820001abed8e,64d2fd46c836a06233681665,64dc7af7af547a8081be8950,,,,,,,decisionTrl,resources/DB.BMP,resources/DP.BMP,WildCard_NonEx,0.37286603,-0.045319734,1,0,0,1.0807,optionRight,55,1495,1,29,0,29,0,1,,,,,,,,,,,,,,,,,,,,,,,,,,,,,,,,,,,,,,,
,,,,,,,,2023-08-16_08h30.11.489,HF_wild_card,2022.2.4,MacIntel,60.0024001,5c3121af8c6d820001abed8e,64d2fd46c836a06233681665,64dc7af7af547a8081be8950,,,,,,,decisionTrl,resources/DP.BMP,resources/DG.BMP,Door3,0.395059317,-0.041124132,1,0,0,2.5941,optionRight,70,1565,1,30,0,30,0,1,,,,,,,,,,,,,,,,,,,,,,,,,,,,,,,,,,,,,,,
,,,,,,,,2023-08-16_08h30.11.489,HF_wild_card,2022.2.4,MacIntel,60.0024001,5c3121af8c6d820001abed8e,64d2fd46c836a06233681665,64dc7af7af547a8081be8950,,,,,,,decisionTrl,resources/DR.BMP,resources/DG.BMP,Door3,0.388436777,-0.045402922,1,0,0,0.8123,optionRight,70,1635,1,31,0,31,0,1,,,,,,,,,,,,,,,,,,,,,,,,,,,,,,,,,,,,,,,
,,,,,,,,2023-08-16_08h30.11.489,HF_wild_card,2022.2.4,MacIntel,60.0024001,5c3121af8c6d820001abed8e,64d2fd46c836a06233681665,64dc7af7af547a8081be8950,,,,,,,sngl,resources/Empty.png,resources/DP.BMP,WildCard_NonEx,0.392480469,-0.03802445,1,0,0,0.7943,optionRight,45,1680,1,32,0,32,0,1,,,,,,,,,,,,,,,,,,,,,,,,,,,,,,,,,,,,,,,
,,,,,,,,2023-08-16_08h30.11.489,HF_wild_card,2022.2.4,MacIntel,60.0024001,5c3121af8c6d820001abed8e,64d2fd46c836a06233681665,64dc7af7af547a8081be8950,,,,,,,ctch,resources/DG.BMP,resources/DY.BMP,Door3,-0.319028501,-0.009863281,1,0,0,2.3319,optionLeft,70,1750,1,33,0,33,0,1,,,,,,,,,,,,,,,,,,,,,,,,,,,,,,,,,,,,,,,
,,,,,,,,2023-08-16_08h30.11.489,HF_wild_card,2022.2.4,MacIntel,60.0024001,5c3121af8c6d820001abed8e,64d2fd46c836a06233681665,64dc7af7af547a8081be8950,,,,,,,ctch,resources/DG.BMP,resources/DY.BMP,Door3,-0.345630787,0.01484375,1,0,0,1.6796,optionLeft,70,1820,1,34,0,34,0,1,,,,,,,,,,,,,,,,,,,,,,,,,,,,,,,,,,,,,,,
,,,,,,,,2023-08-16_08h30.11.489,HF_wild_card,2022.2.4,MacIntel,60.0024001,5c3121af8c6d820001abed8e,64d2fd46c836a06233681665,64dc7af7af547a8081be8950,,,,,,,sngl,resources/Empty.png,resources/DB.BMP,Door1,0.348969184,0.036758536,1,0,0,1.448,optionRight,30,1850,1,35,0,35,0,1,,,,,,,,,,,,,,,,,,,,,,,,,,,,,,,,,,,,,,,
,,,,,,,,2023-08-16_08h30.11.489,HF_wild_card,2022.2.4,MacIntel,60.0024001,5c3121af8c6d820001abed8e,64d2fd46c836a06233681665,64dc7af7af547a8081be8950,,,,,,,decisionTrl,resources/DP.BMP,resources/DR.BMP,WildCard_NonEx,-0.434458189,0.000560619,1,0,0,1.4292,optionLeft,45,1895,1,36,0,36,0,1,,,,,,,,,,,,,,,,,,,,,,,,,,,,,,,,,,,,,,,
,,,,,,,,2023-08-16_08h30.11.489,HF_wild_card,2022.2.4,MacIntel,60.0024001,5c3121af8c6d820001abed8e,64d2fd46c836a06233681665,64dc7af7af547a8081be8950,,,,,,,sngl,resources/DG.BMP,resources/Empty.png,Door3,-0.315903501,0.005150463,1,0,0,0.8496,optionLeft,70,1965,1,37,0,37,0,1,,,,,,,,,,,,,,,,,,,,,,,,,,,,,,,,,,,,,,,
,,,,,,,,2023-08-16_08h30.11.489,HF_wild_card,2022.2.4,MacIntel,60.0024001,5c3121af8c6d820001abed8e,64d2fd46c836a06233681665,64dc7af7af547a8081be8950,,,,,,,decisionTrl,resources/DG.BMP,resources/DR.BMP,Door3,-0.35208695,0.017513021,1,0,0,1.7965,optionLeft,70,2035,1,38,0,38,0,1,,,,,,,,,,,,,,,,,,,,,,,,,,,,,,,,,,,,,,,
,,,,,,,,2023-08-16_08h30.11.489,HF_wild_card,2022.2.4,MacIntel,60.0024001,5c3121af8c6d820001abed8e,64d2fd46c836a06233681665,64dc7af7af547a8081be8950,,,,,,,sngl,resources/Empty.png,resources/DR.BMP,Door4,0.364670139,-0.060532407,1,0,0,0.8968,optionRight,60,2095,1,39,0,39,0,1,,,,,,,,,,,,,,,,,,,,,,,,,,,,,,,,,,,,,,,
,,,,,,,,2023-08-16_08h30.11.489,HF_wild_card,2022.2.4,MacIntel,60.0024001,5c3121af8c6d820001abed8e,64d2fd46c836a06233681665,64dc7af7af547a8081be8950,,,,,,,decisionTrl,resources/DB.BMP,resources/DY.BMP,Door2,0.384092882,-0.023101128,1,0,0,3.149,optionRight,40,2135,1,40,0,40,0,1,,,,,,,,,,,,,,,,,,,,,,,,,,,,,,,,,,,,,,,
,,,,,,,,2023-08-16_08h30.11.489,HF_wild_card,2022.2.4,MacIntel,60.0024001,5c3121af8c6d820001abed8e,64d2fd46c836a06233681665,64dc7af7af547a8081be8950,,,,,,,decisionTrl,resources/DG.BMP,resources/DP.BMP,Door3,-0.320352286,0.004495804,1,0,0,2.1801,optionLeft,70,2205,1,41,0,41,0,1,,,,,,,,,,,,,,,,,,,,,,,,,,,,,,,,,,,,,,,
,,,,,,,,2023-08-16_08h30.11.489,HF_wild_card,2022.2.4,MacIntel,60.0024001,5c3121af8c6d820001abed8e,64d2fd46c836a06233681665,64dc7af7af547a8081be8950,,,,,,,decisionTrl,resources/DG.BMP,resources/DR.BMP,Door3,-0.278493924,-0.008980758,1,0,0,0.8972,optionLeft,70,2275,1,42,0,42,0,1,,,,,,,,,,,,,,,,,,,,,,,,,,,,,,,,,,,,,,,
,,,,,,,,2023-08-16_08h30.11.489,HF_wild_card,2022.2.4,MacIntel,60.0024001,5c3121af8c6d820001abed8e,64d2fd46c836a06233681665,64dc7af7af547a8081be8950,,,,,,,decisionTrl,resources/DP.BMP,resources/DY.BMP,Door2,0.271155237,0.082758247,1,0,0,3.2326,optionRight,20,2295,1,43,0,43,0,1,,,,,,,,,,,,,,,,,,,,,,,,,,,,,,,,,,,,,,,
,,,,,,,,2023-08-16_08h30.11.489,HF_wild_card,2022.2.4,MacIntel,60.0024001,5c3121af8c6d820001abed8e,64d2fd46c836a06233681665,64dc7af7af547a8081be8950,,,,,,,,,,,,,,,,,,,,,,,,,,0,0,0,0,1,,,,,,,,,,,,,,,,,,,,,,,,,,,,,,,,,,
,,,,,,,,2023-08-16_08h30.11.489,HF_wild_card,2022.2.4,MacIntel,60.0024001,5c3121af8c6d820001abed8e,64d2fd46c836a06233681665,64dc7af7af547a8081be8950,,,,,,,decisionTrl,resources/DG.BMP,resources/DR.BMP,Door3,-0.324707031,-0.018840422,1,0,0,1.7155,optionLeft,70,2365,2,0,0,0,0,1,,,,,,,,,,,,,,,,,,,,,,,,,,,,,,,,,,,,,,,
,,,,,,,,2023-08-16_08h30.11.489,HF_wild_card,2022.2.4,MacIntel,60.0024001,5c3121af8c6d820001abed8e,64d2fd46c836a06233681665,64dc7af7af547a8081be8950,,,,,,,sngl,resources/DY.BMP,resources/Empty.png,Door2,-0.319708478,0.015140336,1,0,0,0.7811,optionLeft,20,2385,2,1,0,1,0,1,,,,,,,,,,,,,,,,,,,,,,,,,,,,,,,,,,,,,,,
,,,,,,,,2023-08-16_08h30.11.489,HF_wild_card,2022.2.4,MacIntel,60.0024001,5c3121af8c6d820001abed8e,64d2fd46c836a06233681665,64dc7af7af547a8081be8950,,,,,,,decisionTrl,resources/DR.BMP,resources/DG.BMP,Door3,0.296053964,-0.026906105,1,0,0,2.0116,optionRight,70,2455,2,2,0,2,0,1,,,,,,,,,,,,,,,,,,,,,,,,,,,,,,,,,,,,,,,
,,,,,,,,2023-08-16_08h30.11.489,HF_wild_card,2022.2.4,MacIntel,60.0024001,5c3121af8c6d820001abed8e,64d2fd46c836a06233681665,64dc7af7af547a8081be8950,,,,,,,sngl,resources/DP.BMP,resources/Empty.png,WildCard_NonEx,-0.345554832,-0.016283275,1,0,0,0.7464,optionLeft,45,2500,2,3,0,3,0,1,,,,,,,,,,,,,,,,,,,,,,,,,,,,,,,,,,,,,,,
,,,,,,,,2023-08-16_08h30.11.489,HF_wild_card,2022.2.4,MacIntel,60.0024001,5c3121af8c6d820001abed8e,64d2fd46c836a06233681665,64dc7af7af547a8081be8950,,,,,,,decisionTrl,resources/DP.BMP,resources/DG.BMP,Door3,0.392965133,-0.029459635,1,0,0,0.728,optionRight,70,2570,2,4,0,4,0,1,,,,,,,,,,,,,,,,,,,,,,,,,,,,,,,,,,,,,,,
,,,,,,,,2023-08-16_08h30.11.489,HF_wild_card,2022.2.4,MacIntel,60.0024001,5c3121af8c6d820001abed8e,64d2fd46c836a06233681665,64dc7af7af547a8081be8950,,,,,,,sngl,resources/Empty.png,resources/DP.BMP,WildCard_NonEx,0.398611111,-0.044339554,1,0,0,0.6492,optionRight,55,2625,2,5,0,5,0,1,,,,,,,,,,,,,,,,,,,,,,,,,,,,,,,,,,,,,,,
,,,,,,,,2023-08-16_08h30.11.489,HF_wild_card,2022.2.4,MacIntel,60.0024001,5c3121af8c6d820001abed8e,64d2fd46c836a06233681665,64dc7af7af547a8081be8950,,,,,,,decisionTrl,resources/DR.BMP,resources/DG.BMP,Door3,0.463556134,-0.06072772,1,0,0,0.6638,optionRight,70,2695,2,6,0,6,0,1,,,,,,,,,,,,,,,,,,,,,,,,,,,,,,,,,,,,,,,
,,,,,,,,2023-08-16_08h30.11.489,HF_wild_card,2022.2.4,MacIntel,60.0024001,5c3121af8c6d820001abed8e,64d2fd46c836a06233681665,64dc7af7af547a8081be8950,,,,,,,decisionTrl,resources/DG.BMP,resources/DR.BMP,Door3,-0.325998264,-0.08733724,1,0,0,0.8319,optionLeft,70,2765,2,7,0,7,0,1,,,,,,,,,,,,,,,,,,,,,,,,,,,,,,,,,,,,,,,
,,,,,,,,2023-08-16_08h30.11.489,HF_wild_card,2022.2.4,MacIntel,60.0024001,5c3121af8c6d820001abed8e,64d2fd46c836a06233681665,64dc7af7af547a8081be8950,,,,,,,ctch,resources/DR.BMP,resources/DB.BMP,Door4,-0.419108073,0.001175492,1,0,0,1.3787,optionLeft,80,2845,2,8,0,8,0,1,,,,,,,,,,,,,,,,,,,,,,,,,,,,,,,,,,,,,,,
,,,,,,,,2023-08-16_08h30.11.489,HF_wild_card,2022.2.4,MacIntel,60.0024001,5c3121af8c6d820001abed8e,64d2fd46c836a06233681665,64dc7af7af547a8081be8950,,,,,,,sngl,resources/DP.BMP,resources/Empty.png,WildCard_NonEx,-0.352260561,0.000622106,1,0,0,0.7982,optionLeft,55,2900,2,9,0,9,0,1,,,,,,,,,,,,,,,,,,,,,,,,,,,,,,,,,,,,,,,
,,,,,,,,2023-08-16_08h30.11.489,HF_wild_card,2022.2.4,MacIntel,60.0024001,5c3121af8c6d820001abed8e,64d2fd46c836a06233681665,64dc7af7af547a8081be8950,,,,,,,decisionTrl,resources/DR.BMP,resources/DG.BMP,Door4,-0.350075955,-0.052813947,1,0,0,0.6799,optionLeft,60,2960,2,10,0,10,0,1,,,,,,,,,,,,,,,,,,,,,,,,,,,,,,,,,,,,,,,
,,,,,,,,2023-08-16_08h30.11.489,HF_wild_card,2022.2.4,MacIntel,60.0024001,5c3121af8c6d820001abed8e,64d2fd46c836a06233681665,64dc7af7af547a8081be8950,,,,,,,sngl,resources/Empty.png,resources/DP.BMP,WildCard_NonEx,0.415972222,-0.044372106,1,0,0,0.7159,optionRight,45,3005,2,11,0,11,0,1,,,,,,,,,,,,,,,,,,,,,,,,,,,,,,,,,,,,,,,
,,,,,,,,2023-08-16_08h30.11.489,HF_wild_card,2022.2.4,MacIntel,60.0024001,5c3121af8c6d820001abed8e,64d2fd46c836a06233681665,64dc7af7af547a8081be8950,,,,,,,ctch,resources/DB.BMP,resources/DR.BMP,Door4,0.317165799,-0.030682147,1,0,0,0.7306,optionRight,80,3085,2,12,0,12,0,1,,,,,,,,,,,,,,,,,,,,,,,,,,,,,,,,,,,,,,,
,,,,,,,,2023-08-16_08h30.11.489,HF_wild_card,2022.2.4,MacIntel,60.0024001,5c3121af8c6d820001abed8e,64d2fd46c836a06233681665,64dc7af7af547a8081be8950,,,,,,,decisionTrl,resources/DG.BMP,resources/DP.BMP,Door3,-0.302860966,0.039008247,1,0,0,3.2782,optionLeft,70,3155,2,13,0,13,0,1,,,,,,,,,,,,,,,,,,,,,,,,,,,,,,,,,,,,,,,
,,,,,,,,2023-08-16_08h30.11.489,HF_wild_card,2022.2.4,MacIntel,60.0024001,5c3121af8c6d820001abed8e,64d2fd46c836a06233681665,64dc7af7af547a8081be8950,,,,,,,decisionTrl,resources/DY.BMP,resources/DP.BMP,WildCard_NonEx,0.296578414,-0.036006221,1,0,0,1.7966,optionRight,45,3200,2,14,0,14,0,1,,,,,,,,,,,,,,,,,,,,,,,,,,,,,,,,,,,,,,,
,,,,,,,,2023-08-16_08h30.11.489,HF_wild_card,2022.2.4,MacIntel,60.0024001,5c3121af8c6d820001abed8e,64d2fd46c836a06233681665,64dc7af7af547a8081be8950,,,,,,,decisionTrl,resources/DP.BMP,resources/DB.BMP,WildCard_NonEx,-0.332523148,0.008358652,1,0,0,0.9483,optionLeft,55,3255,2,15,0,15,0,1,,,,,,,,,,,,,,,,,,,,,,,,,,,,,,,,,,,,,,,
,,,,,,,,2023-08-16_08h30.11.489,HF_wild_card,2022.2.4,MacIntel,60.0024001,5c3121af8c6d820001abed8e,64d2fd46c836a06233681665,64dc7af7af547a8081be8950,,,,,,,sngl,resources/Empty.png,resources/DR.BMP,Door4,0.269393808,-0.009440104,1,0,0,0.7808,optionRight,80,3335,2,16,0,16,0,1,,,,,,,,,,,,,,,,,,,,,,,,,,,,,,,,,,,,,,,
,,,,,,,,2023-08-16_08h30.11.489,HF_wild_card,2022.2.4,MacIntel,60.0024001,5c3121af8c6d820001abed8e,64d2fd46c836a06233681665,64dc7af7af547a8081be8950,,,,,,,decisionTrl,resources/DR.BMP,resources/DG.BMP,Door4,-0.274905961,-0.005472367,1,0,0,0.6989,optionLeft,80,3415,2,17,0,17,0,1,,,,,,,,,,,,,,,,,,,,,,,,,,,,,,,,,,,,,,,
,,,,,,,,2023-08-16_08h30.11.489,HF_wild_card,2022.2.4,MacIntel,60.0024001,5c3121af8c6d820001abed8e,64d2fd46c836a06233681665,64dc7af7af547a8081be8950,,,,,,,sngl,resources/DR.BMP,resources/Empty.png,Door4,-0.314952257,-0.000358073,1,0,0,0.6976,optionLeft,60,3475,2,18,0,18,0,1,,,,,,,,,,,,,,,,,,,,,,,,,,,,,,,,,,,,,,,
,,,,,,,,2023-08-16_08h30.11.489,HF_wild_card,2022.2.4,MacIntel,60.0024001,5c3121af8c6d820001abed8e,64d2fd46c836a06233681665,64dc7af7af547a8081be8950,,,,,,,ctch,resources/DY.BMP,resources/DG.BMP,Door3,0.359121817,-0.028866464,1,0,0,0.7974,optionRight,70,3545,2,19,0,19,0,1,,,,,,,,,,,,,,,,,,,,,,,,,,,,,,,,,,,,,,,
,,,,,,,,2023-08-16_08h30.11.489,HF_wild_card,2022.2.4,MacIntel,60.0024001,5c3121af8c6d820001abed8e,64d2fd46c836a06233681665,64dc7af7af547a8081be8950,,,,,,,sngl,resources/Empty.png,resources/DB.BMP,Door1,0.321777344,-0.047873264,1,0,0,0.6496,optionRight,30,3575,2,20,0,20,0,1,,,,,,,,,,,,,,,,,,,,,,,,,,,,,,,,,,,,,,,
,,,,,,,,2023-08-16_08h30.11.489,HF_wild_card,2022.2.4,MacIntel,60.0024001,5c3121af8c6d820001abed8e,64d2fd46c836a06233681665,64dc7af7af547a8081be8950,,,,,,,decisionTrl,resources/DY.BMP,resources/DB.BMP,Door1,0.340129485,-0.033185041,1,0,0,2.9472,optionRight,30,3605,2,21,0,21,0,1,,,,,,,,,,,,,,,,,,,,,,,,,,,,,,,,,,,,,,,
,,,,,,,,2023-08-16_08h30.11.489,HF_wild_card,2022.2.4,MacIntel,60.0024001,5c3121af8c6d820001abed8e,64d2fd46c836a06233681665,64dc7af7af547a8081be8950,,,,,,,decisionTrl,resources/DP.BMP,resources/DY.BMP,WildCard_NonEx,-0.325394242,-0.010065828,1,0,0,1.0802,optionLeft,55,3660,2,22,0,22,0,1,,,,,,,,,,,,,,,,,,,,,,,,,,,,,,,,,,,,,,,
,,,,,,,,2023-08-16_08h30.11.489,HF_wild_card,2022.2.4,MacIntel,60.0024001,5c3121af8c6d820001abed8e,64d2fd46c836a06233681665,64dc7af7af547a8081be8950,,,,,,,ctch,resources/DB.BMP,resources/DR.BMP,Door4,0.348582176,-0.042625145,1,0,0,1.0625,optionRight,80,3740,2,23,0,23,0,1,,,,,,,,,,,,,,,,,,,,,,,,,,,,,,,,,,,,,,,
,,,,,,,,2023-08-16_08h30.11.489,HF_wild_card,2022.2.4,MacIntel,60.0024001,5c3121af8c6d820001abed8e,64d2fd46c836a06233681665,64dc7af7af547a8081be8950,,,,,,,decisionTrl,resources/DB.BMP,resources/DY.BMP,Door1,-0.349562355,-0.012999132,1,0,0,4.6965,optionLeft,30,3770,2,24,0,24,0,1,,,,,,,,,,,,,,,,,,,,,,,,,,,,,,,,,,,,,,,
,,,,,,,,2023-08-16_08h30.11.489,HF_wild_card,2022.2.4,MacIntel,60.0024001,5c3121af8c6d820001abed8e,64d2fd46c836a06233681665,64dc7af7af547a8081be8950,,,,,,,decisionTrl,resources/DB.BMP,resources/DY.BMP,Door2,0.312796586,-0.0359375,1,0,0,0.8004,optionRight,40,3810,2,25,0,25,0,1,,,,,,,,,,,,,,,,,,,,,,,,,,,,,,,,,,,,,,,
,,,,,,,,2023-08-16_08h30.11.489,HF_wild_card,2022.2.4,MacIntel,60.0024001,5c3121af8c6d820001abed8e,64d2fd46c836a06233681665,64dc7af7af547a8081be8950,,,,,,,decisionTrl,resources/DG.BMP,resources/DR.BMP,Door4,0.362076823,-0.043594473,1,0,0,2.3988,optionRight,60,3870,2,26,0,26,0,1,,,,,,,,,,,,,,,,,,,,,,,,,,,,,,,,,,,,,,,
,,,,,,,,2023-08-16_08h30.11.489,HF_wild_card,2022.2.4,MacIntel,60.0024001,5c3121af8c6d820001abed8e,64d2fd46c836a06233681665,64dc7af7af547a8081be8950,,,,,,,ctch,resources/DG.BMP,resources/DY.BMP,Door3,-0.300484664,-0.036942998,1,0,0,0.764,optionLeft,70,3940,2,27,0,27,0,1,,,,,,,,,,,,,,,,,,,,,,,,,,,,,,,,,,,,,,,
,,,,,,,,2023-08-16_08h30.11.489,HF_wild_card,2022.2.4,MacIntel,60.0024001,5c3121af8c6d820001abed8e,64d2fd46c836a06233681665,64dc7af7af547a8081be8950,,,,,,,ctch,resources/DY.BMP,resources/DG.BMP,Door3,0.374403212,-0.019643374,1,0,0,0.7992,optionRight,70,4010,2,28,0,28,0,1,,,,,,,,,,,,,,,,,,,,,,,,,,,,,,,,,,,,,,,
,,,,,,,,2023-08-16_08h30.11.489,HF_wild_card,2022.2.4,MacIntel,60.0024001,5c3121af8c6d820001abed8e,64d2fd46c836a06233681665,64dc7af7af547a8081be8950,,,,,,,sngl,resources/DB.BMP,resources/Empty.png,Door1,-0.337923177,-0.016304977,1,0,0,0.7794,optionLeft,30,4040,2,29,0,29,0,1,,,,,,,,,,,,,,,,,,,,,,,,,,,,,,,,,,,,,,,
,,,,,,,,2023-08-16_08h30.11.489,HF_wild_card,2022.2.4,MacIntel,60.0024001,5c3121af8c6d820001abed8e,64d2fd46c836a06233681665,64dc7af7af547a8081be8950,,,,,,,decisionTrl,resources/DB.BMP,resources/DP.BMP,WildCard_NonEx,0.327220775,-0.017086227,1,0,0,2.0633,optionRight,55,4095,2,30,0,30,0,1,,,,,,,,,,,,,,,,,,,,,,,,,,,,,,,,,,,,,,,
,,,,,,,,2023-08-16_08h30.11.489,HF_wild_card,2022.2.4,MacIntel,60.0024001,5c3121af8c6d820001abed8e,64d2fd46c836a06233681665,64dc7af7af547a8081be8950,,,,,,,ctch,resources/DG.BMP,resources/DY.BMP,Door2,0.302224392,-0.035564959,1,0,0,0.8981,optionRight,20,4115,2,31,0,31,0,1,,,,,,,,,,,,,,,,,,,,,,,,,,,,,,,,,,,,,,,
,,,,,,,,2023-08-16_08h30.11.489,HF_wild_card,2022.2.4,MacIntel,60.0024001,5c3121af8c6d820001abed8e,64d2fd46c836a06233681665,64dc7af7af547a8081be8950,,,,,,,decisionTrl,resources/DY.BMP,resources/DB.BMP,Door1,0.456698495,-0.074721499,1,0,0,1.8779,optionRight,30,4145,2,32,0,32,0,1,,,,,,,,,,,,,,,,,,,,,,,,,,,,,,,,,,,,,,,
,,,,,,,,2023-08-16_08h30.11.489,HF_wild_card,2022.2.4,MacIntel,60.0024001,5c3121af8c6d820001abed8e,64d2fd46c836a06233681665,64dc7af7af547a8081be8950,,,,,,,decisionTrl,resources/DR.BMP,resources/DP.BMP,Door4,-0.29870515,0.023209635,1,0,0,1.4626,optionLeft,80,4225,2,33,0,33,0,1,,,,,,,,,,,,,,,,,,,,,,,,,,,,,,,,,,,,,,,
,,,,,,,,2023-08-16_08h30.11.489,HF_wild_card,2022.2.4,MacIntel,60.0024001,5c3121af8c6d820001abed8e,64d2fd46c836a06233681665,64dc7af7af547a8081be8950,,,,,,,sngl,resources/Empty.png,resources/DY.BMP,Door2,0.321820747,-0.035886863,1,0,0,1.1471,optionRight,40,4265,2,34,0,34,0,1,,,,,,,,,,,,,,,,,,,,,,,,,,,,,,,,,,,,,,,
,,,,,,,,2023-08-16_08h30.11.489,HF_wild_card,2022.2.4,MacIntel,60.0024001,5c3121af8c6d820001abed8e,64d2fd46c836a06233681665,64dc7af7af547a8081be8950,,,,,,,sngl,resources/Empty.png,resources/DG.BMP,Door3,0.391460503,-0.028823061,1,0,0,0.7464,optionRight,70,4335,2,35,0,35,0,1,,,,,,,,,,,,,,,,,,,,,,,,,,,,,,,,,,,,,,,
,,,,,,,,2023-08-16_08h30.11.489,HF_wild_card,2022.2.4,MacIntel,60.0024001,5c3121af8c6d820001abed8e,64d2fd46c836a06233681665,64dc7af7af547a8081be8950,,,,,,,ctch,resources/DR.BMP,resources/DB.BMP,Door4,-0.277770544,-0.028356481,1,0,0,1.0467,optionLeft,80,4415,2,36,0,36,0,1,,,,,,,,,,,,,,,,,,,,,,,,,,,,,,,,,,,,,,,
,,,,,,,,2023-08-16_08h30.11.489,HF_wild_card,2022.2.4,MacIntel,60.0024001,5c3121af8c6d820001abed8e,64d2fd46c836a06233681665,64dc7af7af547a8081be8950,,,,,,,decisionTrl,resources/DB.BMP,resources/DY.BMP,Door2,0.505418113,-0.042979601,1,0,0,2.444,optionRight,20,4435,2,37,0,37,0,1,,,,,,,,,,,,,,,,,,,,,,,,,,,,,,,,,,,,,,,
,,,,,,,,2023-08-16_08h30.11.489,HF_wild_card,2022.2.4,MacIntel,60.0024001,5c3121af8c6d820001abed8e,64d2fd46c836a06233681665,64dc7af7af547a8081be8950,,,,,,,decisionTrl,resources/DY.BMP,resources/DB.BMP,Door1,0.287789352,-0.033543113,1,0,0,0.7799,optionRight,30,4465,2,38,0,38,0,1,,,,,,,,,,,,,,,,,,,,,,,,,,,,,,,,,,,,,,,
,,,,,,,,2023-08-16_08h30.11.489,HF_wild_card,2022.2.4,MacIntel,60.0024001,5c3121af8c6d820001abed8e,64d2fd46c836a06233681665,64dc7af7af547a8081be8950,,,,,,,decisionTrl,resources/DB.BMP,resources/DY.BMP,Door1,-0.230262587,-0.025368924,1,0,0,0.6792,optionLeft,30,4495,2,39,0,39,0,1,,,,,,,,,,,,,,,,,,,,,,,,,,,,,,,,,,,,,,,
,,,,,,,,2023-08-16_08h30.11.489,HF_wild_card,2022.2.4,MacIntel,60.0024001,5c3121af8c6d820001abed8e,64d2fd46c836a06233681665,64dc7af7af547a8081be8950,,,,,,,decisionTrl,resources/DG.BMP,resources/DR.BMP,Door3,-0.283872251,-0.00223886,1,0,0,2.7781,optionLeft,70,4565,2,40,0,40,0,1,,,,,,,,,,,,,,,,,,,,,,,,,,,,,,,,,,,,,,,
,,,,,,,,2023-08-16_08h30.11.489,HF_wild_card,2022.2.4,MacIntel,60.0024001,5c3121af8c6d820001abed8e,64d2fd46c836a06233681665,64dc7af7af547a8081be8950,,,,,,,decisionTrl,resources/DY.BMP,resources/DB.BMP,Door2,-0.477741609,-0.011895978,1,0,0,1.233,optionLeft,40,4605,2,41,0,41,0,1,,,,,,,,,,,,,,,,,,,,,,,,,,,,,,,,,,,,,,,
,,,,,,,,2023-08-16_08h30.11.489,HF_wild_card,2022.2.4,MacIntel,60.0024001,5c3121af8c6d820001abed8e,64d2fd46c836a06233681665,64dc7af7af547a8081be8950,,,,,,,sngl,resources/DG.BMP,resources/Empty.png,Door3,-0.336433015,-0.035706019,1,0,0,0.7477,optionLeft,70,4675,2,42,0,42,0,1,,,,,,,,,,,,,,,,,,,,,,,,,,,,,,,,,,,,,,,
,,,,,,,,2023-08-16_08h30.11.489,HF_wild_card,2022.2.4,MacIntel,60.0024001,5c3121af8c6d820001abed8e,64d2fd46c836a06233681665,64dc7af7af547a8081be8950,,,,,,,decisionTrl,resources/DP.BMP,resources/DR.BMP,Door4,0.336997251,-0.038353588,1,0,0,1.6642,optionRight,80,4755,2,43,0,43,0,1,,,,,,,,,,,,,,,,,,,,,,,,,,,,,,,,,,,,,,,
,,,,,,,,2023-08-16_08h30.11.489,HF_wild_card,2022.2.4,MacIntel,60.0024001,5c3121af8c6d820001abed8e,64d2fd46c836a06233681665,64dc7af7af547a8081be8950,,,,,,,,,,,,,,,,,,,,,,,,,,1,0,1,0,1,,,,,,,,,,,,,,,,,,,,,,,,,,,,,,,,,,
,,,,,,,,2023-08-16_08h30.11.489,HF_wild_card,2022.2.4,MacIntel,60.0024001,5c3121af8c6d820001abed8e,64d2fd46c836a06233681665,64dc7af7af547a8081be8950,,,,,,,decisionTrl,resources/DY.BMP,resources/DB.BMP,Door2,-0.409266493,-0.116319444,1,0,0,4.5845,optionLeft,40,4795,3,0,0,0,0,1,,,,,,,,,,,,,,,,,,,,,,,,,,,,,,,,,,,,,,,
,,,,,,,,2023-08-16_08h30.11.489,HF_wild_card,2022.2.4,MacIntel,60.0024001,5c3121af8c6d820001abed8e,64d2fd46c836a06233681665,64dc7af7af547a8081be8950,,,,,,,sngl,resources/Empty.png,resources/DG.BMP,Door3,0.332581019,-0.024338108,1,0,0,0.6137,optionRight,70,4865,3,1,0,1,0,1,,,,,,,,,,,,,,,,,,,,,,,,,,,,,,,,,,,,,,,
,,,,,,,,2023-08-16_08h30.11.489,HF_wild_card,2022.2.4,MacIntel,60.0024001,5c3121af8c6d820001abed8e,64d2fd46c836a06233681665,64dc7af7af547a8081be8950,,,,,,,sngl,resources/DG.BMP,resources/Empty.png,Door3,-0.276179109,-0.008138021,1,0,0,0.6331,optionLeft,70,4935,3,2,0,2,0,1,,,,,,,,,,,,,,,,,,,,,,,,,,,,,,,,,,,,,,,
,,,,,,,,2023-08-16_08h30.11.489,HF_wild_card,2022.2.4,MacIntel,60.0024001,5c3121af8c6d820001abed8e,64d2fd46c836a06233681665,64dc7af7af547a8081be8950,,,,,,,ctch,resources/DR.BMP,resources/DB.BMP,Door4,-0.375495515,-0.002839265,1,0,0,1.1644,optionLeft,60,4995,3,3,0,3,0,1,,,,,,,,,,,,,,,,,,,,,,,,,,,,,,,,,,,,,,,
,,,,,,,,2023-08-16_08h30.11.489,HF_wild_card,2022.2.4,MacIntel,60.0024001,5c3121af8c6d820001abed8e,64d2fd46c836a06233681665,64dc7af7af547a8081be8950,,,,,,,sngl,resources/Empty.png,resources/DB.BMP,Door1,0.306344039,-0.041695602,1,0,0,0.6306,optionRight,30,5025,3,4,0,4,0,1,,,,,,,,,,,,,,,,,,,,,,,,,,,,,,,,,,,,,,,
,,,,,,,,2023-08-16_08h30.11.489,HF_wild_card,2022.2.4,MacIntel,60.0024001,5c3121af8c6d820001abed8e,64d2fd46c836a06233681665,64dc7af7af547a8081be8950,,,,,,,ctch,resources/DY.BMP,resources/DG.BMP,Door2,-0.275296586,-0.022182436,1,0,0,0.831,optionLeft,20,5045,3,5,0,5,0,1,,,,,,,,,,,,,,,,,,,,,,,,,,,,,,,,,,,,,,,
,,,,,,,,2023-08-16_08h30.11.489,HF_wild_card,2022.2.4,MacIntel,60.0024001,5c3121af8c6d820001abed8e,64d2fd46c836a06233681665,64dc7af7af547a8081be8950,,,,,,,decisionTrl,resources/DG.BMP,resources/DR.BMP,Door3,-0.25578342,-0.024793837,1,0,0,0.7777,optionLeft,70,5115,3,6,0,6,0,1,,,,,,,,,,,,,,,,,,,,,,,,,,,,,,,,,,,,,,,
,,,,,,,,2023-08-16_08h30.11.489,HF_wild_card,2022.2.4,MacIntel,60.0024001,5c3121af8c6d820001abed8e,64d2fd46c836a06233681665,64dc7af7af547a8081be8950,,,,,,,sngl,resources/Empty.png,resources/DP.BMP,WildCard_NonEx,0.374222367,-0.023296441,1,0,0,0.6811,optionRight,55,5170,3,7,0,7,0,1,,,,,,,,,,,,,,,,,,,,,,,,,,,,,,,,,,,,,,,
,,,,,,,,2023-08-16_08h30.11.489,HF_wild_card,2022.2.4,MacIntel,60.0024001,5c3121af8c6d820001abed8e,64d2fd46c836a06233681665,64dc7af7af547a8081be8950,,,,,,,decisionTrl,resources/DB.BMP,resources/DY.BMP,Door2,0.348278356,-0.018728299,1,0,0,0.9652,optionRight,20,5190,3,8,0,8,0,1,,,,,,,,,,,,,,,,,,,,,,,,,,,,,,,,,,,,,,,
,,,,,,,,2023-08-16_08h30.11.489,HF_wild_card,2022.2.4,MacIntel,60.0024001,5c3121af8c6d820001abed8e,64d2fd46c836a06233681665,64dc7af7af547a8081be8950,,,,,,,decisionTrl,resources/DP.BMP,resources/DY.BMP,WildCard_NonEx,-0.364268663,-0.01125217,1,0,0,0.9488,optionLeft,55,5245,3,9,0,9,0,1,,,,,,,,,,,,,,,,,,,,,,,,,,,,,,,,,,,,,,,
,,,,,,,,2023-08-16_08h30.11.489,HF_wild_card,2022.2.4,MacIntel,60.0024001,5c3121af8c6d820001abed8e,64d2fd46c836a06233681665,64dc7af7af547a8081be8950,,,,,,,ctch,resources/DB.BMP,resources/DR.BMP,Door4,0.375585938,-0.049204282,1,0,0,0.7962,optionRight,80,5325,3,10,0,10,0,1,,,,,,,,,,,,,,,,,,,,,,,,,,,,,,,,,,,,,,,
,,,,,,,,2023-08-16_08h30.11.489,HF_wild_card,2022.2.4,MacIntel,60.0024001,5c3121af8c6d820001abed8e,64d2fd46c836a06233681665,64dc7af7af547a8081be8950,,,,,,,decisionTrl,resources/DR.BMP,resources/DG.BMP,Door3,0.372634549,-0.048933015,1,0,0,0.9967,optionRight,70,5395,3,11,0,11,0,1,,,,,,,,,,,,,,,,,,,,,,,,,,,,,,,,,,,,,,,
,,,,,,,,2023-08-16_08h30.11.489,HF_wild_card,2022.2.4,MacIntel,60.0024001,5c3121af8c6d820001abed8e,64d2fd46c836a06233681665,64dc7af7af547a8081be8950,,,,,,,decisionTrl,resources/DY.BMP,resources/DB.BMP,Door2,-0.420840567,-0.014373553,1,0,0,1.0975,optionLeft,40,5435,3,12,0,12,0,1,,,,,,,,,,,,,,,,,,,,,,,,,,,,,,,,,,,,,,,
,,,,,,,,2023-08-16_08h30.11.489,HF_wild_card,2022.2.4,MacIntel,60.0024001,5c3121af8c6d820001abed8e,64d2fd46c836a06233681665,64dc7af7af547a8081be8950,,,,,,,decisionTrl,resources/DB.BMP,resources/DY.BMP,Door1,-0.275191696,0.013190828,1,0,0,1.1465,optionLeft,30,5465,3,13,0,13,0,1,,,,,,,,,,,,,,,,,,,,,,,,,,,,,,,,,,,,,,,
,,,,,,,,2023-08-16_08h30.11.489,HF_wild_card,2022.2.4,MacIntel,60.0024001,5c3121af8c6d820001abed8e,64d2fd46c836a06233681665,64dc7af7af547a8081be8950,,,,,,,sngl,resources/DP.BMP,resources/Empty.png,WildCard_NonEx,-0.334932002,0.008525029,1,0,0,0.7282,optionLeft,55,5520,3,14,0,14,0,1,,,,,,,,,,,,,,,,,,,,,,,,,,,,,,,,,,,,,,,
,,,,,,,,2023-08-16_08h30.11.489,HF_wild_card,2022.2.4,MacIntel,60.0024001,5c3121af8c6d820001abed8e,64d2fd46c836a06233681665,64dc7af7af547a8081be8950,,,,,,,decisionTrl,resources/DG.BMP,resources/DR.BMP,Door4,0.35411603,0.000499132,1,0,0,0.8452,optionRight,80,5600,3,15,0,15,0,1,,,,,,,,,,,,,,,,,,,,,,,,,,,,,,,,,,,,,,,
,,,,,,,,2023-08-16_08h30.11.489,HF_wild_card,2022.2.4,MacIntel,60.0024001,5c3121af8c6d820001abed8e,64d2fd46c836a06233681665,64dc7af7af547a8081be8950,,,,,,,ctch,resources/DG.BMP,resources/DY.BMP,Door2,0.269827836,-0.021010561,1,0,0,0.6982,optionRight,20,5620,3,16,0,16,0,1,,,,,,,,,,,,,,,,,,,,,,,,,,,,,,,,,,,,,,,
,,,,,,,,2023-08-16_08h30.11.489,HF_wild_card,2022.2.4,MacIntel,60.0024001,5c3121af8c6d820001abed8e,64d2fd46c836a06233681665,64dc7af7af547a8081be8950,,,,,,,decisionTrl,resources/DG.BMP,resources/DR.BMP,Door3,-0.268988715,0.006542969,1,0,0,0.6794,optionLeft,70,5690,3,17,0,17,0,1,,,,,,,,,,,,,,,,,,,,,,,,,,,,,,,,,,,,,,,
,,,,,,,,2023-08-16_08h30.11.489,HF_wild_card,2022.2.4,MacIntel,60.0024001,5c3121af8c6d820001abed8e,64d2fd46c836a06233681665,64dc7af7af547a8081be8950,,,,,,,decisionTrl,resources/DR.BMP,resources/DG.BMP,Door3,0.29759838,0.011378762,1,0,0,1.3146,optionRight,70,5760,3,18,0,18,0,1,,,,,,,,,,,,,,,,,,,,,,,,,,,,,,,,,,,,,,,
,,,,,,,,2023-08-16_08h30.11.489,HF_wild_card,2022.2.4,MacIntel,60.0024001,5c3121af8c6d820001abed8e,64d2fd46c836a06233681665,64dc7af7af547a8081be8950,,,,,,,decisionTrl,resources/DP.BMP,resources/DB.BMP,WildCard_NonEx,-0.340899884,0.016934317,1,0,0,1.3126,optionLeft,55,5815,3,19,0,19,0,1,,,,,,,,,,,,,,,,,,,,,,,,,,,,,,,,,,,,,,,
,,,,,,,,2023-08-16_08h30.11.489,HF_wild_card,2022.2.4,MacIntel,60.0024001,5c3121af8c6d820001abed8e,64d2fd46c836a06233681665,64dc7af7af547a8081be8950,,,,,,,decisionTrl,resources/DP.BMP,resources/DR.BMP,Door4,0.325835503,-0.010687934,1,0,0,1.0454,optionRight,60,5875,3,20,0,20,0,1,,,,,,,,,,,,,,,,,,,,,,,,,,,,,,,,,,,,,,,
,,,,,,,,2023-08-16_08h30.11.489,HF_wild_card,2022.2.4,MacIntel,60.0024001,5c3121af8c6d820001abed8e,64d2fd46c836a06233681665,64dc7af7af547a8081be8950,,,,,,,decisionTrl,resources/DB.BMP,resources/DP.BMP,WildCard_NonEx,0.352253328,-0.00318287,1,0,0,1.6326,optionRight,55,5930,3,21,0,21,0,1,,,,,,,,,,,,,,,,,,,,,,,,,,,,,,,,,,,,,,,
,,,,,,,,2023-08-16_08h30.11.489,HF_wild_card,2022.2.4,MacIntel,60.0024001,5c3121af8c6d820001abed8e,64d2fd46c836a06233681665,64dc7af7af547a8081be8950,,,,,,,decisionTrl,resources/DB.BMP,resources/DY.BMP,Door2,0.354557292,0.003320312,1,0,0,2.28,optionRight,20,5950,3,22,0,22,0,1,,,,,,,,,,,,,,,,,,,,,,,,,,,,,,,,,,,,,,,
,,,,,,,,2023-08-16_08h30.11.489,HF_wild_card,2022.2.4,MacIntel,60.0024001,5c3121af8c6d820001abed8e,64d2fd46c836a06233681665,64dc7af7af547a8081be8950,,,,,,,ctch,resources/DG.BMP,resources/DY.BMP,Door3,-0.391449653,0.00067636,1,0,0,0.7983,optionLeft,70,6020,3,23,0,23,0,1,,,,,,,,,,,,,,,,,,,,,,,,,,,,,,,,,,,,,,,
,,,,,,,,2023-08-16_08h30.11.489,HF_wild_card,2022.2.4,MacIntel,60.0024001,5c3121af8c6d820001abed8e,64d2fd46c836a06233681665,64dc7af7af547a8081be8950,,,,,,,decisionTrl,resources/DY.BMP,resources/DB.BMP,Door1,0.326349103,-0.010054977,1,0,0,0.7141,optionRight,30,6050,3,24,0,24,0,1,,,,,,,,,,,,,,,,,,,,,,,,,,,,,,,,,,,,,,,
,,,,,,,,2023-08-16_08h30.11.489,HF_wild_card,2022.2.4,MacIntel,60.0024001,5c3121af8c6d820001abed8e,64d2fd46c836a06233681665,64dc7af7af547a8081be8950,,,,,,,decisionTrl,resources/DG.BMP,resources/DR.BMP,Door3,-0.32104673,-0.001765046,1,0,0,1.0797,optionLeft,70,6120,3,25,0,25,0,1,,,,,,,,,,,,,,,,,,,,,,,,,,,,,,,,,,,,,,,
,,,,,,,,2023-08-16_08h30.11.489,HF_wild_card,2022.2.4,MacIntel,60.0024001,5c3121af8c6d820001abed8e,64d2fd46c836a06233681665,64dc7af7af547a8081be8950,,,,,,,sngl,resources/Empty.png,resources/DY.BMP,Door2,0.300412326,-0.030490451,1,0,0,0.6962,optionRight,20,6140,3,26,0,26,0,1,,,,,,,,,,,,,,,,,,,,,,,,,,,,,,,,,,,,,,,
,,,,,,,,2023-08-16_08h30.11.489,HF_wild_card,2022.2.4,MacIntel,60.0024001,5c3121af8c6d820001abed8e,64d2fd46c836a06233681665,64dc7af7af547a8081be8950,,,,,,,sngl,resources/Empty.png,resources/DP.BMP,WildCard_NonEx,0.384751157,0.000860822,1,0,0,0.6146,optionRight,45,6185,3,27,0,27,0,1,,,,,,,,,,,,,,,,,,,,,,,,,,,,,,,,,,,,,,,
,,,,,,,,2023-08-16_08h30.11.489,HF_wild_card,2022.2.4,MacIntel,60.0024001,5c3121af8c6d820001abed8e,64d2fd46c836a06233681665,64dc7af7af547a8081be8950,,,,,,,sngl,resources/Empty.png,resources/DR.BMP,Door4,0.357971644,-0.002929688,1,0,0,0.5474,optionRight,60,6245,3,28,0,28,0,1,,,,,,,,,,,,,,,,,,,,,,,,,,,,,,,,,,,,,,,
,,,,,,,,2023-08-16_08h30.11.489,HF_wild_card,2022.2.4,MacIntel,60.0024001,5c3121af8c6d820001abed8e,64d2fd46c836a06233681665,64dc7af7af547a8081be8950,,,,,,,decisionTrl,resources/DR.BMP,resources/DG.BMP,Door3,0.324652778,-0.019249132,1,0,0,0.6628,optionRight,70,6315,3,29,0,29,0,1,,,,,,,,,,,,,,,,,,,,,,,,,,,,,,,,,,,,,,,
,,,,,,,,2023-08-16_08h30.11.489,HF_wild_card,2022.2.4,MacIntel,60.0024001,5c3121af8c6d820001abed8e,64d2fd46c836a06233681665,64dc7af7af547a8081be8950,,,,,,,ctch,resources/DR.BMP,resources/DB.BMP,Door4,-0.35865162,-0.011121962,1,0,0,0.9655,optionLeft,80,6395,3,30,0,30,0,1,,,,,,,,,,,,,,,,,,,,,,,,,,,,,,,,,,,,,,,
,,,,,,,,2023-08-16_08h30.11.489,HF_wild_card,2022.2.4,MacIntel,60.0024001,5c3121af8c6d820001abed8e,64d2fd46c836a06233681665,64dc7af7af547a8081be8950,,,,,,,decisionTrl,resources/DR.BMP,resources/DG.BMP,Door4,-0.332479745,-0.014959491,1,0,0,1.1479,optionLeft,80,6475,3,31,0,31,0,1,,,,,,,,,,,,,,,,,,,,,,,,,,,,,,,,,,,,,,,
,,,,,,,,2023-08-16_08h30.11.489,HF_wild_card,2022.2.4,MacIntel,60.0024001,5c3121af8c6d820001abed8e,64d2fd46c836a06233681665,64dc7af7af547a8081be8950,,,,,,,decisionTrl,resources/DB.BMP,resources/DY.BMP,Door1,-0.327173756,-0.013834635,1,0,0,1.4626,optionLeft,30,6505,3,32,0,32,0,1,,,,,,,,,,,,,,,,,,,,,,,,,,,,,,,,,,,,,,,
,,,,,,,,2023-08-16_08h30.11.489,HF_wild_card,2022.2.4,MacIntel,60.0024001,5c3121af8c6d820001abed8e,64d2fd46c836a06233681665,64dc7af7af547a8081be8950,,,,,,,sngl,resources/DB.BMP,resources/Empty.png,Door1,-0.312351707,-0.001642072,1,0,0,0.7314,optionLeft,30,6535,3,33,0,33,0,1,,,,,,,,,,,,,,,,,,,,,,,,,,,,,,,,,,,,,,,
,,,,,,,,2023-08-16_08h30.11.489,HF_wild_card,2022.2.4,MacIntel,60.0024001,5c3121af8c6d820001abed8e,64d2fd46c836a06233681665,64dc7af7af547a8081be8950,,,,,,,decisionTrl,resources/DY.BMP,resources/DB.BMP,Door1,0.307910156,-0.023842593,1,0,0,1.4282,optionRight,30,6565,3,34,0,34,0,1,,,,,,,,,,,,,,,,,,,,,,,,,,,,,,,,,,,,,,,
,,,,,,,,2023-08-16_08h30.11.489,HF_wild_card,2022.2.4,MacIntel,60.0024001,5c3121af8c6d820001abed8e,64d2fd46c836a06233681665,64dc7af7af547a8081be8950,,,,,,,decisionTrl,resources/DY.BMP,resources/DP.BMP,WildCard_NonEx,0.308655237,-0.02234158,1,0,0,0.83,optionRight,45,6610,3,35,0,35,0,1,,,,,,,,,,,,,,,,,,,,,,,,,,,,,,,,,,,,,,,
,,,,,,,,2023-08-16_08h30.11.489,HF_wild_card,2022.2.4,MacIntel,60.0024001,5c3121af8c6d820001abed8e,64d2fd46c836a06233681665,64dc7af7af547a8081be8950,,,,,,,decisionTrl,resources/DG.BMP,resources/DP.BMP,Door3,-0.261657263,0.021010561,1,0,0,1.1621,optionLeft,70,6680,3,36,0,36,0,1,,,,,,,,,,,,,,,,,,,,,,,,,,,,,,,,,,,,,,,
,,,,,,,,2023-08-16_08h30.11.489,HF_wild_card,2022.2.4,MacIntel,60.0024001,5c3121af8c6d820001abed8e,64d2fd46c836a06233681665,64dc7af7af547a8081be8950,,,,,,,sngl,resources/DP.BMP,resources/Empty.png,WildCard_NonEx,-0.2776114,0.007465278,1,0,0,0.8645,optionLeft,45,6725,3,37,0,37,0,1,,,,,,,,,,,,,,,,,,,,,,,,,,,,,,,,,,,,,,,
,,,,,,,,2023-08-16_08h30.11.489,HF_wild_card,2022.2.4,MacIntel,60.0024001,5c3121af8c6d820001abed8e,64d2fd46c836a06233681665,64dc7af7af547a8081be8950,,,,,,,ctch,resources/DY.BMP,resources/DG.BMP,Door3,0.310955584,-0.024924045,1,0,0,1.6986,optionRight,70,6795,3,38,0,38,0,1,,,,,,,,,,,,,,,,,,,,,,,,,,,,,,,,,,,,,,,
,,,,,,,,2023-08-16_08h30.11.489,HF_wild_card,2022.2.4,MacIntel,60.0024001,5c3121af8c6d820001abed8e,64d2fd46c836a06233681665,64dc7af7af547a8081be8950,,,,,,,decisionTrl,resources/DR.BMP,resources/DP.BMP,Door4,-0.359186921,0.018037471,1,0,0,1.4301,optionLeft,80,6875,3,39,0,39,0,1,,,,,,,,,,,,,,,,,,,,,,,,,,,,,,,,,,,,,,,
,,,,,,,,2023-08-16_08h30.11.489,HF_wild_card,2022.2.4,MacIntel,60.0024001,5c3121af8c6d820001abed8e,64d2fd46c836a06233681665,64dc7af7af547a8081be8950,,,,,,,sngl,resources/DY.BMP,resources/Empty.png,Door2,-0.34166305,-0.001526331,1,0,0,0.6474,optionLeft,40,6915,3,40,0,40,0,1,,,,,,,,,,,,,,,,,,,,,,,,,,,,,,,,,,,,,,,
,,,,,,,,2023-08-16_08h30.11.489,HF_wild_card,2022.2.4,MacIntel,60.0024001,5c3121af8c6d820001abed8e,64d2fd46c836a06233681665,64dc7af7af547a8081be8950,,,,,,,sngl,resources/DR.BMP,resources/Empty.png,Door4,-0.408734809,0.023401331,1,0,0,0.6451,optionLeft,80,6995,3,41,0,41,0,1,,,,,,,,,,,,,,,,,,,,,,,,,,,,,,,,,,,,,,,
,,,,,,,,2023-08-16_08h30.11.489,HF_wild_card,2022.2.4,MacIntel,60.0024001,5c3121af8c6d820001abed8e,64d2fd46c836a06233681665,64dc7af7af547a8081be8950,,,,,,,ctch,resources/DB.BMP,resources/DR.BMP,Door4,0.305790654,-0.027405237,1,0,0,0.9967,optionRight,60,7055,3,42,0,42,0,1,,,,,,,,,,,,,,,,,,,,,,,,,,,,,,,,,,,,,,,
,,,,,,,,2023-08-16_08h30.11.489,HF_wild_card,2022.2.4,MacIntel,60.0024001,5c3121af8c6d820001abed8e,64d2fd46c836a06233681665,64dc7af7af547a8081be8950,,,,,,,decisionTrl,resources/DP.BMP,resources/DG.BMP,Door3,0.320449942,-0.034219473,1,0,0,0.795,optionRight,70,7125,3,43,0,43,0,1,,,,,,,,,,,,,,,,,,,,,,,,,,,,,,,,,,,,,,,
,,,,,,,,2023-08-16_08h30.11.489,HF_wild_card,2022.2.4,MacIntel,60.0024001,5c3121af8c6d820001abed8e,64d2fd46c836a06233681665,64dc7af7af547a8081be8950,,,,,,,,,,,,,,,,,,,,,,,,,,2,0,2,0,1,,,,,,,,,,,,,,,,,,,,,,,,,,,,,,,,,,
,,,,,,,,2023-08-16_08h30.11.489,HF_wild_card,2022.2.4,MacIntel,60.0024001,5c3121af8c6d820001abed8e,64d2fd46c836a06233681665,64dc7af7af547a8081be8950,,,,,,,decisionTrl,resources/DB.BMP,resources/DY.BMP,Door1,-0.36733941,-0.118023003,1,0,0,1.5666,optionLeft,30,7155,4,0,0,0,0,1,,,,,,,,,,,,,,,,,,,,,,,,,,,,,,,,,,,,,,,
,,,,,,,,2023-08-16_08h30.11.489,HF_wild_card,2022.2.4,MacIntel,60.0024001,5c3121af8c6d820001abed8e,64d2fd46c836a06233681665,64dc7af7af547a8081be8950,,,,,,,sngl,resources/Empty.png,resources/DBN.BMP,WildCard_Ex,0.340617766,-0.03025897,1,0,0,1.7318,optionRight,45,7200,4,1,0,1,0,1,,,,,,,,,,,,,,,,,,,,,,,,,,,,,,,,,,,,,,,
,,,,,,,,2023-08-16_08h30.11.489,HF_wild_card,2022.2.4,MacIntel,60.0024001,5c3121af8c6d820001abed8e,64d2fd46c836a06233681665,64dc7af7af547a8081be8950,,,,,,,ctch,resources/DY.BMP,resources/DG.BMP,Door3,0.35827908,-0.05343967,1,0,0,0.9316,optionRight,70,7270,4,2,0,2,0,1,,,,,,,,,,,,,,,,,,,,,,,,,,,,,,,,,,,,,,,
,,,,,,,,2023-08-16_08h30.11.489,HF_wild_card,2022.2.4,MacIntel,60.0024001,5c3121af8c6d820001abed8e,64d2fd46c836a06233681665,64dc7af7af547a8081be8950,,,,,,,decisionTrl,resources/DY.BMP,resources/DB.BMP,Door2,-0.307519531,-0.027379919,1,0,0,1.9795,optionLeft,40,7310,4,3,0,3,0,1,,,,,,,,,,,,,,,,,,,,,,,,,,,,,,,,,,,,,,,
,,,,,,,,2023-08-16_08h30.11.489,HF_wild_card,2022.2.4,MacIntel,60.0024001,5c3121af8c6d820001abed8e,64d2fd46c836a06233681665,64dc7af7af547a8081be8950,,,,,,,decisionTrl,resources/DY.BMP,resources/DB.BMP,Door1,0.29708478,-0.019730179,1,0,0,0.8298,optionRight,30,7340,4,4,0,4,0,1,,,,,,,,,,,,,,,,,,,,,,,,,,,,,,,,,,,,,,,
,,,,,,,,2023-08-16_08h30.11.489,HF_wild_card,2022.2.4,MacIntel,60.0024001,5c3121af8c6d820001abed8e,64d2fd46c836a06233681665,64dc7af7af547a8081be8950,,,,,,,sngl,resources/DBN.BMP,resources/Empty.png,WildCard_Ex,-0.39858941,-0.000169994,1,0,0,1.0157,optionLeft,45,7385,4,5,0,5,0,1,,,,,,,,,,,,,,,,,,,,,,,,,,,,,,,,,,,,,,,
,,,,,,,,2023-08-16_08h30.11.489,HF_wild_card,2022.2.4,MacIntel,60.0024001,5c3121af8c6d820001abed8e,64d2fd46c836a06233681665,64dc7af7af547a8081be8950,,,,,,,decisionTrl,resources/DR.BMP,resources/DG.BMP,Door3,0.30848886,-0.049254919,1,0,0,0.8127,optionRight,70,7455,4,6,0,6,0,1,,,,,,,,,,,,,,,,,,,,,,,,,,,,,,,,,,,,,,,
,,,,,,,,2023-08-16_08h30.11.489,HF_wild_card,2022.2.4,MacIntel,60.0024001,5c3121af8c6d820001abed8e,64d2fd46c836a06233681665,64dc7af7af547a8081be8950,,,,,,,decisionTrl,resources/DG.BMP,resources/DR.BMP,Door4,0.39223452,-0.068254485,1,0,0,0.6615,optionRight,80,7535,4,7,0,7,0,1,,,,,,,,,,,,,,,,,,,,,,,,,,,,,,,,,,,,,,,
,,,,,,,,2023-08-16_08h30.11.489,HF_wild_card,2022.2.4,MacIntel,60.0024001,5c3121af8c6d820001abed8e,64d2fd46c836a06233681665,64dc7af7af547a8081be8950,,,,,,,sngl,resources/DB.BMP,resources/Empty.png,Door1,-0.267031973,-0.00766059,1,0,0,0.7797,optionLeft,30,7565,4,8,0,8,0,1,,,,,,,,,,,,,,,,,,,,,,,,,,,,,,,,,,,,,,,
,,,,,,,,2023-08-16_08h30.11.489,HF_wild_card,2022.2.4,MacIntel,60.0024001,5c3121af8c6d820001abed8e,64d2fd46c836a06233681665,64dc7af7af547a8081be8950,,,,,,,ctch,resources/DY.BMP,resources/DG.BMP,Door3,0.382646123,-0.017057292,1,0,0,0.7145,optionRight,70,7635,4,9,0,9,0,1,,,,,,,,,,,,,,,,,,,,,,,,,,,,,,,,,,,,,,,
,,,,,,,,2023-08-16_08h30.11.489,HF_wild_card,2022.2.4,MacIntel,60.0024001,5c3121af8c6d820001abed8e,64d2fd46c836a06233681665,64dc7af7af547a8081be8950,,,,,,,decisionTrl,resources/DG.BMP,resources/DR.BMP,Door4,0.281586372,-0.038324653,1,0,0,0.995,optionRight,60,7695,4,10,0,10,0,1,,,,,,,,,,,,,,,,,,,,,,,,,,,,,,,,,,,,,,,
,,,,,,,,2023-08-16_08h30.11.489,HF_wild_card,2022.2.4,MacIntel,60.0024001,5c3121af8c6d820001abed8e,64d2fd46c836a06233681665,64dc7af7af547a8081be8950,,,,,,,ctch,resources/DR.BMP,resources/DB.BMP,Door4,-0.302083333,0.015115017,1,0,0,0.6802,optionLeft,80,7775,4,11,0,11,0,1,,,,,,,,,,,,,,,,,,,,,,,,,,,,,,,,,,,,,,,
,,,,,,,,2023-08-16_08h30.11.489,HF_wild_card,2022.2.4,MacIntel,60.0024001,5c3121af8c6d820001abed8e,64d2fd46c836a06233681665,64dc7af7af547a8081be8950,,,,,,,decisionTrl,resources/DG.BMP,resources/DBN.BMP,Door3,-0.309067564,0.007989728,1,0,0,1.4636,optionLeft,70,7845,4,12,0,12,0,1,,,,,,,,,,,,,,,,,,,,,,,,,,,,,,,,,,,,,,,
,,,,,,,,2023-08-16_08h30.11.489,HF_wild_card,2022.2.4,MacIntel,60.0024001,5c3121af8c6d820001abed8e,64d2fd46c836a06233681665,64dc7af7af547a8081be8950,,,,,,,decisionTrl,resources/DR.BMP,resources/DG.BMP,Door4,-0.314369936,0.0135489,1,0,0,0.7638,optionLeft,60,7905,4,13,0,13,0,1,,,,,,,,,,,,,,,,,,,,,,,,,,,,,,,,,,,,,,,
,,,,,,,,2023-08-16_08h30.11.489,HF_wild_card,2022.2.4,MacIntel,60.0024001,5c3121af8c6d820001abed8e,64d2fd46c836a06233681665,64dc7af7af547a8081be8950,,,,,,,decisionTrl,resources/DR.BMP,resources/DG.BMP,Door3,0.324225984,-0.005808738,1,0,0,0.646,optionRight,70,7975,4,14,0,14,0,1,,,,,,,,,,,,,,,,,,,,,,,,,,,,,,,,,,,,,,,
,,,,,,,,2023-08-16_08h30.11.489,HF_wild_card,2022.2.4,MacIntel,60.0024001,5c3121af8c6d820001abed8e,64d2fd46c836a06233681665,64dc7af7af547a8081be8950,,,,,,,decisionTrl,resources/DB.BMP,resources/DY.BMP,Door2,0.31182364,-0.021976273,1,0,0,1.1136,optionRight,20,7995,4,15,0,15,0,1,,,,,,,,,,,,,,,,,,,,,,,,,,,,,,,,,,,,,,,
,,,,,,,,2023-08-16_08h30.11.489,HF_wild_card,2022.2.4,MacIntel,60.0024001,5c3121af8c6d820001abed8e,64d2fd46c836a06233681665,64dc7af7af547a8081be8950,,,,,,,decisionTrl,resources/DBN.BMP,resources/DB.BMP,Door1,0.333658854,-0.023039641,1,0,0,1.6945,optionRight,30,8025,4,16,0,16,0,1,,,,,,,,,,,,,,,,,,,,,,,,,,,,,,,,,,,,,,,
,,,,,,,,2023-08-16_08h30.11.489,HF_wild_card,2022.2.4,MacIntel,60.0024001,5c3121af8c6d820001abed8e,64d2fd46c836a06233681665,64dc7af7af547a8081be8950,,,,,,,ctch,resources/DG.BMP,resources/DY.BMP,Door3,-0.26999783,0.018793403,1,0,0,1.0976,optionLeft,70,8095,4,17,0,17,0,1,,,,,,,,,,,,,,,,,,,,,,,,,,,,,,,,,,,,,,,
,,,,,,,,2023-08-16_08h30.11.489,HF_wild_card,2022.2.4,MacIntel,60.0024001,5c3121af8c6d820001abed8e,64d2fd46c836a06233681665,64dc7af7af547a8081be8950,,,,,,,sngl,resources/DBN.BMP,resources/Empty.png,WildCard_Ex,-0.311132813,0.034125434,1,0,0,0.7328,optionLeft,55,8150,4,18,0,18,0,1,,,,,,,,,,,,,,,,,,,,,,,,,,,,,,,,,,,,,,,
,,,,,,,,2023-08-16_08h30.11.489,HF_wild_card,2022.2.4,MacIntel,60.0024001,5c3121af8c6d820001abed8e,64d2fd46c836a06233681665,64dc7af7af547a8081be8950,,,,,,,decisionTrl,resources/DY.BMP,resources/DBN.BMP,WildCard_Ex,0.324446615,-0.00604022,1,0,0,1.1794,optionRight,55,8205,4,19,0,19,0,1,,,,,,,,,,,,,,,,,,,,,,,,,,,,,,,,,,,,,,,
,,,,,,,,2023-08-16_08h30.11.489,HF_wild_card,2022.2.4,MacIntel,60.0024001,5c3121af8c6d820001abed8e,64d2fd46c836a06233681665,64dc7af7af547a8081be8950,,,,,,,decisionTrl,resources/DB.BMP,resources/DBN.BMP,WildCard_Ex,0.358709491,-0.007682292,1,0,0,0.7305,optionRight,45,8250,4,20,0,20,0,1,,,,,,,,,,,,,,,,,,,,,,,,,,,,,,,,,,,,,,,
,,,,,,,,2023-08-16_08h30.11.489,HF_wild_card,2022.2.4,MacIntel,60.0024001,5c3121af8c6d820001abed8e,64d2fd46c836a06233681665,64dc7af7af547a8081be8950,,,,,,,sngl,resources/DR.BMP,resources/Empty.png,Door4,-0.378320312,0.011317274,1,0,0,0.6461,optionLeft,60,8310,4,21,0,21,0,1,,,,,,,,,,,,,,,,,,,,,,,,,,,,,,,,,,,,,,,
,,,,,,,,2023-08-16_08h30.11.489,HF_wild_card,2022.2.4,MacIntel,60.0024001,5c3121af8c6d820001abed8e,64d2fd46c836a06233681665,64dc7af7af547a8081be8950,,,,,,,decisionTrl,resources/DR.BMP,resources/DBN.BMP,Door4,-0.316540075,-0.00785952,1,0,0,1.1808,optionLeft,60,8370,4,22,0,22,0,1,,,,,,,,,,,,,,,,,,,,,,,,,,,,,,,,,,,,,,,
,,,,,,,,2023-08-16_08h30.11.489,HF_wild_card,2022.2.4,MacIntel,60.0024001,5c3121af8c6d820001abed8e,64d2fd46c836a06233681665,64dc7af7af547a8081be8950,,,,,,,sngl,resources/DY.BMP,resources/Empty.png,Door2,-0.355580874,0.006991464,1,0,0,0.6662,optionLeft,20,8390,4,23,0,23,0,1,,,,,,,,,,,,,,,,,,,,,,,,,,,,,,,,,,,,,,,
,,,,,,,,2023-08-16_08h30.11.489,HF_wild_card,2022.2.4,MacIntel,60.0024001,5c3121af8c6d820001abed8e,64d2fd46c836a06233681665,64dc7af7af547a8081be8950,,,,,,,decisionTrl,resources/DB.BMP,resources/DY.BMP,Door1,-0.306253617,-0.011476418,1,0,0,1.0475,optionLeft,30,8420,4,24,0,24,0,1,,,,,,,,,,,,,,,,,,,,,,,,,,,,,,,,,,,,,,,
,,,,,,,,2023-08-16_08h30.11.489,HF_wild_card,2022.2.4,MacIntel,60.0024001,5c3121af8c6d820001abed8e,64d2fd46c836a06233681665,64dc7af7af547a8081be8950,,,,,,,decisionTrl,resources/DG.BMP,resources/DR.BMP,Door4,0.320677807,-0.051244213,1,0,0,3.0798,optionRight,60,8480,4,25,0,25,0,1,,,,,,,,,,,,,,,,,,,,,,,,,,,,,,,,,,,,,,,
,,,,,,,,2023-08-16_08h30.11.489,HF_wild_card,2022.2.4,MacIntel,60.0024001,5c3121af8c6d820001abed8e,64d2fd46c836a06233681665,64dc7af7af547a8081be8950,,,,,,,sngl,resources/Empty.png,resources/DG.BMP,Door3,0.321556713,-0.03072555,1,0,0,0.6978,optionRight,70,8550,4,26,0,26,0,1,,,,,,,,,,,,,,,,,,,,,,,,,,,,,,,,,,,,,,,
,,,,,,,,2023-08-16_08h30.11.489,HF_wild_card,2022.2.4,MacIntel,60.0024001,5c3121af8c6d820001abed8e,64d2fd46c836a06233681665,64dc7af7af547a8081be8950,,,,,,,decisionTrl,resources/DY.BMP,resources/DB.BMP,Door1,0.440451389,-0.03186849,1,0,0,1.3458,optionRight,30,8580,4,27,0,27,0,1,,,,,,,,,,,,,,,,,,,,,,,,,,,,,,,,,,,,,,,
,,,,,,,,2023-08-16_08h30.11.489,HF_wild_card,2022.2.4,MacIntel,60.0024001,5c3121af8c6d820001abed8e,64d2fd46c836a06233681665,64dc7af7af547a8081be8950,,,,,,,ctch,resources/DB.BMP,resources/DR.BMP,Door4,0.419350405,-0.064283131,1,0,0,0.6465,optionRight,80,8660,4,28,0,28,0,1,,,,,,,,,,,,,,,,,,,,,,,,,,,,,,,,,,,,,,,
,,,,,,,,2023-08-16_08h30.11.489,HF_wild_card,2022.2.4,MacIntel,60.0024001,5c3121af8c6d820001abed8e,64d2fd46c836a06233681665,64dc7af7af547a8081be8950,,,,,,,decisionTrl,resources/DY.BMP,resources/DB.BMP,Door2,-0.3052011,-0.003920718,1,0,0,2.4125,optionLeft,20,8680,4,29,0,29,0,1,,,,,,,,,,,,,,,,,,,,,,,,,,,,,,,,,,,,,,,
,,,,,,,,2023-08-16_08h30.11.489,HF_wild_card,2022.2.4,MacIntel,60.0024001,5c3121af8c6d820001abed8e,64d2fd46c836a06233681665,64dc7af7af547a8081be8950,,,,,,,sngl,resources/Empty.png,resources/DY.BMP,Door2,0.374555122,-0.035528791,1,0,0,0.5791,optionRight,40,8720,4,30,0,30,0,1,,,,,,,,,,,,,,,,,,,,,,,,,,,,,,,,,,,,,,,
,,,,,,,,2023-08-16_08h30.11.489,HF_wild_card,2022.2.4,MacIntel,60.0024001,5c3121af8c6d820001abed8e,64d2fd46c836a06233681665,64dc7af7af547a8081be8950,,,,,,,ctch,resources/DG.BMP,resources/DY.BMP,Door3,-0.327058015,-0.000712529,1,0,0,0.8634,optionLeft,70,8790,4,31,0,31,0,1,,,,,,,,,,,,,,,,,,,,,,,,,,,,,,,,,,,,,,,
,,,,,,,,2023-08-16_08h30.11.489,HF_wild_card,2022.2.4,MacIntel,60.0024001,5c3121af8c6d820001abed8e,64d2fd46c836a06233681665,64dc7af7af547a8081be8950,,,,,,,decisionTrl,resources/DBN.BMP,resources/DY.BMP,WildCard_Ex,-0.243605324,-0.010923032,1,0,0,1.9465,optionLeft,45,8835,4,32,0,32,0,1,,,,,,,,,,,,,,,,,,,,,,,,,,,,,,,,,,,,,,,
,,,,,,,,2023-08-16_08h30.11.489,HF_wild_card,2022.2.4,MacIntel,60.0024001,5c3121af8c6d820001abed8e,64d2fd46c836a06233681665,64dc7af7af547a8081be8950,,,,,,,sngl,resources/DG.BMP,resources/Empty.png,Door3,-0.295269097,-0.016276042,1,0,0,0.6787,optionLeft,70,8905,4,33,0,33,0,1,,,,,,,,,,,,,,,,,,,,,,,,,,,,,,,,,,,,,,,
,,,,,,,,2023-08-16_08h30.11.489,HF_wild_card,2022.2.4,MacIntel,60.0024001,5c3121af8c6d820001abed8e,64d2fd46c836a06233681665,64dc7af7af547a8081be8950,,,,,,,ctch,resources/DR.BMP,resources/DB.BMP,Door4,-0.348795573,-0.014999277,1,0,0,1.0294,optionLeft,60,8965,4,34,0,34,0,1,,,,,,,,,,,,,,,,,,,,,,,,,,,,,,,,,,,,,,,
,,,,,,,,2023-08-16_08h30.11.489,HF_wild_card,2022.2.4,MacIntel,60.0024001,5c3121af8c6d820001abed8e,64d2fd46c836a06233681665,64dc7af7af547a8081be8950,,,,,,,decisionTrl,resources/DBN.BMP,resources/DG.BMP,WildCard_Ex,-0.302701823,-0.014398872,1,0,0,0.7478,optionLeft,45,9010,4,35,0,35,0,1,,,,,,,,,,,,,,,,,,,,,,,,,,,,,,,,,,,,,,,
,,,,,,,,2023-08-16_08h30.11.489,HF_wild_card,2022.2.4,MacIntel,60.0024001,5c3121af8c6d820001abed8e,64d2fd46c836a06233681665,64dc7af7af547a8081be8950,,,,,,,decisionTrl,resources/DB.BMP,resources/DY.BMP,Door1,-0.318930845,-0.028823061,1,0,0,1.1145,optionLeft,30,9040,4,36,0,36,0,1,,,,,,,,,,,,,,,,,,,,,,,,,,,,,,,,,,,,,,,
,,,,,,,,2023-08-16_08h30.11.489,HF_wild_card,2022.2.4,MacIntel,60.0024001,5c3121af8c6d820001abed8e,64d2fd46c836a06233681665,64dc7af7af547a8081be8950,,,,,,,decisionTrl,resources/DBN.BMP,resources/DR.BMP,Door4,0.329206453,-0.046748409,1,0,0,0.8819,optionRight,60,9100,4,37,0,37,0,1,,,,,,,,,,,,,,,,,,,,,,,,,,,,,,,,,,,,,,,
,,,,,,,,2023-08-16_08h30.11.489,HF_wild_card,2022.2.4,MacIntel,60.0024001,5c3121af8c6d820001abed8e,64d2fd46c836a06233681665,64dc7af7af547a8081be8950,,,,,,,decisionTrl,resources/DR.BMP,resources/DG.BMP,Door3,0.336892361,-0.038472946,1,0,0,0.9634,optionRight,70,9170,4,38,0,38,0,1,,,,,,,,,,,,,,,,,,,,,,,,,,,,,,,,,,,,,,,
,,,,,,,,2023-08-16_08h30.11.489,HF_wild_card,2022.2.4,MacIntel,60.0024001,5c3121af8c6d820001abed8e,64d2fd46c836a06233681665,64dc7af7af547a8081be8950,,,,,,,ctch,resources/DB.BMP,resources/DR.BMP,Door4,0.342892795,-0.038664641,1,0,0,0.6632,optionRight,60,9230,4,39,0,39,0,1,,,,,,,,,,,,,,,,,,,,,,,,,,,,,,,,,,,,,,,
,,,,,,,,2023-08-16_08h30.11.489,HF_wild_card,2022.2.4,MacIntel,60.0024001,5c3121af8c6d820001abed8e,64d2fd46c836a06233681665,64dc7af7af547a8081be8950,,,,,,,sngl,resources/Empty.png,resources/DB.BMP,Door1,0.487445747,-0.059798177,1,0,0,0.5778,optionRight,30,9260,4,40,0,40,0,1,,,,,,,,,,,,,,,,,,,,,,,,,,,,,,,,,,,,,,,
,,,,,,,,2023-08-16_08h30.11.489,HF_wild_card,2022.2.4,MacIntel,60.0024001,5c3121af8c6d820001abed8e,64d2fd46c836a06233681665,64dc7af7af547a8081be8950,,,,,,,sngl,resources/Empty.png,resources/DR.BMP,Door4,0.280790654,-0.008253762,1,0,0,0.514,optionRight,80,9340,4,41,0,41,0,1,,,,,,,,,,,,,,,,,,,,,,,,,,,,,,,,,,,,,,,
,,,,,,,,2023-08-16_08h30.11.489,HF_wild_card,2022.2.4,MacIntel,60.0024001,5c3121af8c6d820001abed8e,64d2fd46c836a06233681665,64dc7af7af547a8081be8950,,,,,,,sngl,resources/Empty.png,resources/DBN.BMP,WildCard_Ex,0.304510272,-0.006546586,1,0,0,0.5603,optionRight,55,9395,4,42,0,42,0,1,,,,,,,,,,,,,,,,,,,,,,,,,,,,,,,,,,,,,,,
,,,,,,,,2023-08-16_08h30.11.489,HF_wild_card,2022.2.4,MacIntel,60.0024001,5c3121af8c6d820001abed8e,64d2fd46c836a06233681665,64dc7af7af547a8081be8950,,,,,,,decisionTrl,resources/DG.BMP,resources/DR.BMP,Door3,-0.276464844,-0.002871817,1,0,0,1.6651,optionLeft,70,9465,4,43,0,43,0,1,,,,,,,,,,,,,,,,,,,,,,,,,,,,,,,,,,,,,,,
,,,,,,,,2023-08-16_08h30.11.489,HF_wild_card,2022.2.4,MacIntel,60.0024001,5c3121af8c6d820001abed8e,64d2fd46c836a06233681665,64dc7af7af547a8081be8950,,,,,,,,,,,,,,,,,,,,,,,,,,3,0,3,0,1,,,,,,,,,,,,,,,,,,,,,,,,,,,,,,,,,,
,,,,,,,,2023-08-16_08h30.11.489,HF_wild_card,2022.2.4,MacIntel,60.0024001,5c3121af8c6d820001abed8e,64d2fd46c836a06233681665,64dc7af7af547a8081be8950,,,,,,,ctch,resources/DG.BMP,resources/DY.BMP,Door3,-0.32765842,-0.05265842,1,0,0,1.4436,optionLeft,70,9535,5,0,0,0,0,1,,,,,,,,,,,,,,,,,,,,,,,,,,,,,,,,,,,,,,,
,,,,,,,,2023-08-16_08h30.11.489,HF_wild_card,2022.2.4,MacIntel,60.0024001,5c3121af8c6d820001abed8e,64d2fd46c836a06233681665,64dc7af7af547a8081be8950,,,,,,,sngl,resources/Empty.png,resources/DB.BMP,Door1,0.252434172,-0.042415365,1,0,0,0.614,optionRight,30,9565,5,1,0,1,0,1,,,,,,,,,,,,,,,,,,,,,,,,,,,,,,,,,,,,,,,
,,,,,,,,2023-08-16_08h30.11.489,HF_wild_card,2022.2.4,MacIntel,60.0024001,5c3121af8c6d820001abed8e,64d2fd46c836a06233681665,64dc7af7af547a8081be8950,,,,,,,decisionTrl,resources/DY.BMP,resources/DB.BMP,Door1,0.390852865,-0.040190972,1,0,0,1.2813,optionRight,30,9595,5,2,0,2,0,1,,,,,,,,,,,,,,,,,,,,,,,,,,,,,,,,,,,,,,,
,,,,,,,,2023-08-16_08h30.11.489,HF_wild_card,2022.2.4,MacIntel,60.0024001,5c3121af8c6d820001abed8e,64d2fd46c836a06233681665,64dc7af7af547a8081be8950,,,,,,,ctch,resources/DB.BMP,resources/DR.BMP,Door4,0.301519097,-0.021708623,1,0,0,0.9989,optionRight,60,9655,5,3,0,3,0,1,,,,,,,,,,,,,,,,,,,,,,,,,,,,,,,,,,,,,,,
,,,,,,,,2023-08-16_08h30.11.489,HF_wild_card,2022.2.4,MacIntel,60.0024001,5c3121af8c6d820001abed8e,64d2fd46c836a06233681665,64dc7af7af547a8081be8950,,,,,,,decisionTrl,resources/DR.BMP,resources/DBN.BMP,Door4,-0.40307798,-0.054980469,1,0,0,1.0328,optionLeft,80,9735,5,4,0,4,0,1,,,,,,,,,,,,,,,,,,,,,,,,,,,,,,,,,,,,,,,
,,,,,,,,2023-08-16_08h30.11.489,HF_wild_card,2022.2.4,MacIntel,60.0024001,5c3121af8c6d820001abed8e,64d2fd46c836a06233681665,64dc7af7af547a8081be8950,,,,,,,ctch,resources/DR.BMP,resources/DB.BMP,Door4,-0.363183594,0.013342737,1,0,0,0.7293,optionLeft,80,9815,5,5,0,5,0,1,,,,,,,,,,,,,,,,,,,,,,,,,,,,,,,,,,,,,,,
,,,,,,,,2023-08-16_08h30.11.489,HF_wild_card,2022.2.4,MacIntel,60.0024001,5c3121af8c6d820001abed8e,64d2fd46c836a06233681665,64dc7af7af547a8081be8950,,,,,,,sngl,resources/DY.BMP,resources/Empty.png,Door2,-0.294697627,0.015563513,1,0,0,0.6139,optionLeft,40,9855,5,6,0,6,0,1,,,,,,,,,,,,,,,,,,,,,,,,,,,,,,,,,,,,,,,
,,,,,,,,2023-08-16_08h30.11.489,HF_wild_card,2022.2.4,MacIntel,60.0024001,5c3121af8c6d820001abed8e,64d2fd46c836a06233681665,64dc7af7af547a8081be8950,,,,,,,decisionTrl,resources/DG.BMP,resources/DR.BMP,Door3,-0.297721354,0.005490451,1,0,0,0.7466,optionLeft,70,9925,5,7,0,7,0,1,,,,,,,,,,,,,,,,,,,,,,,,,,,,,,,,,,,,,,,
,,,,,,,,2023-08-16_08h30.11.489,HF_wild_card,2022.2.4,MacIntel,60.0024001,5c3121af8c6d820001abed8e,64d2fd46c836a06233681665,64dc7af7af547a8081be8950,,,,,,,decisionTrl,resources/DY.BMP,resources/DBN.BMP,Door2,-0.272005208,0.001938657,1,0,0,0.9471,optionLeft,20,9945,5,8,0,8,0,1,,,,,,,,,,,,,,,,,,,,,,,,,,,,,,,,,,,,,,,
,,,,,,,,2023-08-16_08h30.11.489,HF_wild_card,2022.2.4,MacIntel,60.0024001,5c3121af8c6d820001abed8e,64d2fd46c836a06233681665,64dc7af7af547a8081be8950,,,,,,,sngl,resources/DG.BMP,resources/Empty.png,Door3,-0.275784867,0.009895833,1,0,0,0.6974,optionLeft,70,10015,5,9,0,9,0,1,,,,,,,,,,,,,,,,,,,,,,,,,,,,,,,,,,,,,,,
,,,,,,,,2023-08-16_08h30.11.489,HF_wild_card,2022.2.4,MacIntel,60.0024001,5c3121af8c6d820001abed8e,64d2fd46c836a06233681665,64dc7af7af547a8081be8950,,,,,,,decisionTrl,resources/DBN.BMP,resources/DY.BMP,WildCard_Ex,-0.316641348,0.000962095,1,0,0,1.2644,optionLeft,55,10070,5,10,0,10,0,1,,,,,,,,,,,,,,,,,,,,,,,,,,,,,,,,,,,,,,,
,,,,,,,,2023-08-16_08h30.11.489,HF_wild_card,2022.2.4,MacIntel,60.0024001,5c3121af8c6d820001abed8e,64d2fd46c836a06233681665,64dc7af7af547a8081be8950,,,,,,,decisionTrl,resources/DG.BMP,resources/DR.BMP,Door4,0.258662471,-0.021976273,1,0,0,1.1321,optionRight,60,10130,5,11,0,11,0,1,,,,,,,,,,,,,,,,,,,,,,,,,,,,,,,,,,,,,,,
,,,,,,,,2023-08-16_08h30.11.489,HF_wild_card,2022.2.4,MacIntel,60.0024001,5c3121af8c6d820001abed8e,64d2fd46c836a06233681665,64dc7af7af547a8081be8950,,,,,,,ctch,resources/DY.BMP,resources/DG.BMP,Door3,0.35166739,-0.011009838,1,0,0,0.7651,optionRight,70,10200,5,12,0,12,0,1,,,,,,,,,,,,,,,,,,,,,,,,,,,,,,,,,,,,,,,
,,,,,,,,2023-08-16_08h30.11.489,HF_wild_card,2022.2.4,MacIntel,60.0024001,5c3121af8c6d820001abed8e,64d2fd46c836a06233681665,64dc7af7af547a8081be8950,,,,,,,decisionTrl,resources/DR.BMP,resources/DG.BMP,Door3,0.299359809,-0.027441406,1,0,0,0.7138,optionRight,70,10270,5,13,0,13,0,1,,,,,,,,,,,,,,,,,,,,,,,,,,,,,,,,,,,,,,,
,,,,,,,,2023-08-16_08h30.11.489,HF_wild_card,2022.2.4,MacIntel,60.0024001,5c3121af8c6d820001abed8e,64d2fd46c836a06233681665,64dc7af7af547a8081be8950,,,,,,,sngl,resources/DR.BMP,resources/Empty.png,Door4,-0.325817419,0.015382668,1,0,0,0.6974,optionLeft,80,10350,5,14,0,14,0,1,,,,,,,,,,,,,,,,,,,,,,,,,,,,,,,,,,,,,,,
,,,,,,,,2023-08-16_08h30.11.489,HF_wild_card,2022.2.4,MacIntel,60.0024001,5c3121af8c6d820001abed8e,64d2fd46c836a06233681665,64dc7af7af547a8081be8950,,,,,,,decisionTrl,resources/DY.BMP,resources/DB.BMP,Door1,0.325477431,-0.029213686,1,0,0,3.4654,optionRight,30,10380,5,15,0,15,0,1,,,,,,,,,,,,,,,,,,,,,,,,,,,,,,,,,,,,,,,
,,,,,,,,2023-08-16_08h30.11.489,HF_wild_card,2022.2.4,MacIntel,60.0024001,5c3121af8c6d820001abed8e,64d2fd46c836a06233681665,64dc7af7af547a8081be8950,,,,,,,sngl,resources/Empty.png,resources/DBN.BMP,WildCard_Ex,0.40504919,-0.024956597,1,0,0,0.662,optionRight,55,10435,5,16,0,16,0,1,,,,,,,,,,,,,,,,,,,,,,,,,,,,,,,,,,,,,,,
,,,,,,,,2023-08-16_08h30.11.489,HF_wild_card,2022.2.4,MacIntel,60.0024001,5c3121af8c6d820001abed8e,64d2fd46c836a06233681665,64dc7af7af547a8081be8950,,,,,,,sngl,resources/Empty.png,resources/DR.BMP,Door4,0.31265191,-0.013516348,1,0,0,0.5635,optionRight,60,10495,5,17,0,17,0,1,,,,,,,,,,,,,,,,,,,,,,,,,,,,,,,,,,,,,,,
,,,,,,,,2023-08-16_08h30.11.489,HF_wild_card,2022.2.4,MacIntel,60.0024001,5c3121af8c6d820001abed8e,64d2fd46c836a06233681665,64dc7af7af547a8081be8950,,,,,,,ctch,resources/DB.BMP,resources/DR.BMP,Door4,0.309780093,-0.011537905,1,0,0,0.9465,optionRight,80,10575,5,18,0,18,0,1,,,,,,,,,,,,,,,,,,,,,,,,,,,,,,,,,,,,,,,
,,,,,,,,2023-08-16_08h30.11.489,HF_wild_card,2022.2.4,MacIntel,60.0024001,5c3121af8c6d820001abed8e,64d2fd46c836a06233681665,64dc7af7af547a8081be8950,,,,,,,decisionTrl,resources/DR.BMP,resources/DG.BMP,Door3,0.288104022,-0.003931568,1,0,0,1.1822,optionRight,70,10645,5,19,0,19,0,1,,,,,,,,,,,,,,,,,,,,,,,,,,,,,,,,,,,,,,,
,,,,,,,,2023-08-16_08h30.11.489,HF_wild_card,2022.2.4,MacIntel,60.0024001,5c3121af8c6d820001abed8e,64d2fd46c836a06233681665,64dc7af7af547a8081be8950,,,,,,,decisionTrl,resources/DB.BMP,resources/DY.BMP,Door1,-0.336848958,0.031770833,1,0,0,1.8456,optionLeft,30,10675,5,20,0,20,0,1,,,,,,,,,,,,,,,,,,,,,,,,,,,,,,,,,,,,,,,
,,,,,,,,2023-08-16_08h30.11.489,HF_wild_card,2022.2.4,MacIntel,60.0024001,5c3121af8c6d820001abed8e,64d2fd46c836a06233681665,64dc7af7af547a8081be8950,,,,,,,sngl,resources/DBN.BMP,resources/Empty.png,WildCard_Ex,-0.282378472,0.039471209,1,0,0,0.6964,optionLeft,55,10730,5,21,0,21,0,1,,,,,,,,,,,,,,,,,,,,,,,,,,,,,,,,,,,,,,,
,,,,,,,,2023-08-16_08h30.11.489,HF_wild_card,2022.2.4,MacIntel,60.0024001,5c3121af8c6d820001abed8e,64d2fd46c836a06233681665,64dc7af7af547a8081be8950,,,,,,,ctch,resources/DR.BMP,resources/DB.BMP,Door4,-0.353179253,0.02067419,1,0,0,1.2122,optionLeft,60,10790,5,22,0,22,0,1,,,,,,,,,,,,,,,,,,,,,,,,,,,,,,,,,,,,,,,
,,,,,,,,2023-08-16_08h30.11.489,HF_wild_card,2022.2.4,MacIntel,60.0024001,5c3121af8c6d820001abed8e,64d2fd46c836a06233681665,64dc7af7af547a8081be8950,,,,,,,sngl,resources/DB.BMP,resources/Empty.png,Door1,-0.291308594,-0.020753762,1,0,0,0.581,optionLeft,30,10820,5,23,0,23,0,1,,,,,,,,,,,,,,,,,,,,,,,,,,,,,,,,,,,,,,,
,,,,,,,,2023-08-16_08h30.11.489,HF_wild_card,2022.2.4,MacIntel,60.0024001,5c3121af8c6d820001abed8e,64d2fd46c836a06233681665,64dc7af7af547a8081be8950,,,,,,,decisionTrl,resources/DBN.BMP,resources/DR.BMP,Door4,0.291753472,-0.015983073,1,0,0,0.7648,optionRight,60,10880,5,24,0,24,0,1,,,,,,,,,,,,,,,,,,,,,,,,,,,,,,,,,,,,,,,
,,,,,,,,2023-08-16_08h30.11.489,HF_wild_card,2022.2.4,MacIntel,60.0024001,5c3121af8c6d820001abed8e,64d2fd46c836a06233681665,64dc7af7af547a8081be8950,,,,,,,sngl,resources/Empty.png,resources/DG.BMP,Door3,0.291601563,-0.015802228,1,0,0,0.6471,optionRight,70,10950,5,25,0,25,0,1,,,,,,,,,,,,,,,,,,,,,,,,,,,,,,,,,,,,,,,
,,,,,,,,2023-08-16_08h30.11.489,HF_wild_card,2022.2.4,MacIntel,60.0024001,5c3121af8c6d820001abed8e,64d2fd46c836a06233681665,64dc7af7af547a8081be8950,,,,,,,decisionTrl,resources/DY.BMP,resources/DB.BMP,Door2,-0.345844184,0.008572049,1,0,0,1.1611,optionLeft,20,10970,5,26,0,26,0,1,,,,,,,,,,,,,,,,,,,,,,,,,,,,,,,,,,,,,,,
,,,,,,,,2023-08-16_08h30.11.489,HF_wild_card,2022.2.4,MacIntel,60.0024001,5c3121af8c6d820001abed8e,64d2fd46c836a06233681665,64dc7af7af547a8081be8950,,,,,,,sngl,resources/Empty.png,resources/DBN.BMP,WildCard_Ex,0.346983507,-0.005656829,1,0,0,0.6128,optionRight,45,11015,5,27,0,27,0,1,,,,,,,,,,,,,,,,,,,,,,,,,,,,,,,,,,,,,,,
,,,,,,,,2023-08-16_08h30.11.489,HF_wild_card,2022.2.4,MacIntel,60.0024001,5c3121af8c6d820001abed8e,64d2fd46c836a06233681665,64dc7af7af547a8081be8950,,,,,,,decisionTrl,resources/DY.BMP,resources/DB.BMP,Door1,0.301085069,-0.01895978,1,0,0,0.6296,optionRight,30,11045,5,28,0,28,0,1,,,,,,,,,,,,,,,,,,,,,,,,,,,,,,,,,,,,,,,
,,,,,,,,2023-08-16_08h30.11.489,HF_wild_card,2022.2.4,MacIntel,60.0024001,5c3121af8c6d820001abed8e,64d2fd46c836a06233681665,64dc7af7af547a8081be8950,,,,,,,ctch,resources/DG.BMP,resources/DY.BMP,Door3,-0.302307581,0.016496672,1,0,0,0.7948,optionLeft,70,11115,5,29,0,29,0,1,,,,,,,,,,,,,,,,,,,,,,,,,,,,,,,,,,,,,,,
,,,,,,,,2023-08-16_08h30.11.489,HF_wild_card,2022.2.4,MacIntel,60.0024001,5c3121af8c6d820001abed8e,64d2fd46c836a06233681665,64dc7af7af547a8081be8950,,,,,,,sngl,resources/Empty.png,resources/DY.BMP,Door2,0.284581163,-0.014301215,1,0,0,0.6311,optionRight,20,11135,5,30,0,30,0,1,,,,,,,,,,,,,,,,,,,,,,,,,,,,,,,,,,,,,,,
,,,,,,,,2023-08-16_08h30.11.489,HF_wild_card,2022.2.4,MacIntel,60.0024001,5c3121af8c6d820001abed8e,64d2fd46c836a06233681665,64dc7af7af547a8081be8950,,,,,,,decisionTrl,resources/DG.BMP,resources/DR.BMP,Door4,0.328978588,-0.004604311,1,0,0,3.2501,optionRight,60,11195,5,31,0,31,0,1,,,,,,,,,,,,,,,,,,,,,,,,,,,,,,,,,,,,,,,
,,,,,,,,2023-08-16_08h30.11.489,HF_wild_card,2022.2.4,MacIntel,60.0024001,5c3121af8c6d820001abed8e,64d2fd46c836a06233681665,64dc7af7af547a8081be8950,,,,,,,decisionTrl,resources/DB.BMP,resources/DY.BMP,Door1,-0.295616319,0.045978009,1,0,0,1.2309,optionLeft,30,11225,5,32,0,32,0,1,,,,,,,,,,,,,,,,,,,,,,,,,,,,,,,,,,,,,,,
,,,,,,,,2023-08-16_08h30.11.489,HF_wild_card,2022.2.4,MacIntel,60.0024001,5c3121af8c6d820001abed8e,64d2fd46c836a06233681665,64dc7af7af547a8081be8950,,,,,,,ctch,resources/DY.BMP,resources/DG.BMP,Door3,0.321549479,0.026030816,1,0,0,0.781,optionRight,70,11295,5,33,0,33,0,1,,,,,,,,,,,,,,,,,,,,,,,,,,,,,,,,,,,,,,,
,,,,,,,,2023-08-16_08h30.11.489,HF_wild_card,2022.2.4,MacIntel,60.0024001,5c3121af8c6d820001abed8e,64d2fd46c836a06233681665,64dc7af7af547a8081be8950,,,,,,,decisionTrl,resources/DBN.BMP,resources/DB.BMP,WildCard_Ex,-0.29401765,0.074403212,1,0,0,1.6627,optionLeft,55,11350,5,34,0,34,0,1,,,,,,,,,,,,,,,,,,,,,,,,,,,,,,,,,,,,,,,
,,,,,,,,2023-08-16_08h30.11.489,HF_wild_card,2022.2.4,MacIntel,60.0024001,5c3121af8c6d820001abed8e,64d2fd46c836a06233681665,64dc7af7af547a8081be8950,,,,,,,decisionTrl,resources/DG.BMP,resources/DBN.BMP,Door3,-0.449034288,-0.070489728,1,0,0,1.398,optionLeft,70,11420,5,35,0,35,0,1,,,,,,,,,,,,,,,,,,,,,,,,,,,,,,,,,,,,,,,
,,,,,,,,2023-08-16_08h30.11.489,HF_wild_card,2022.2.4,MacIntel,60.0024001,5c3121af8c6d820001abed8e,64d2fd46c836a06233681665,64dc7af7af547a8081be8950,,,,,,,decisionTrl,resources/DR.BMP,resources/DG.BMP,Door3,0.344086372,-0.026660156,1,0,0,1.1648,optionRight,70,11490,5,36,0,36,0,1,,,,,,,,,,,,,,,,,,,,,,,,,,,,,,,,,,,,,,,
,,,,,,,,2023-08-16_08h30.11.489,HF_wild_card,2022.2.4,MacIntel,60.0024001,5c3121af8c6d820001abed8e,64d2fd46c836a06233681665,64dc7af7af547a8081be8950,,,,,,,decisionTrl,resources/DG.BMP,resources/DR.BMP,Door3,-0.350614873,0.006767216,1,0,0,0.7162,optionLeft,70,11560,5,37,0,37,0,1,,,,,,,,,,,,,,,,,,,,,,,,,,,,,,,,,,,,,,,
,,,,,,,,2023-08-16_08h30.11.489,HF_wild_card,2022.2.4,MacIntel,60.0024001,5c3121af8c6d820001abed8e,64d2fd46c836a06233681665,64dc7af7af547a8081be8950,,,,,,,decisionTrl,resources/DR.BMP,resources/DG.BMP,Door3,0.363422309,-0.008951823,1,0,0,0.6139,optionRight,70,11630,5,38,0,38,0,1,,,,,,,,,,,,,,,,,,,,,,,,,,,,,,,,,,,,,,,
,,,,,,,,2023-08-16_08h30.11.489,HF_wild_card,2022.2.4,MacIntel,60.0024001,5c3121af8c6d820001abed8e,64d2fd46c836a06233681665,64dc7af7af547a8081be8950,,,,,,,decisionTrl,resources/DB.BMP,resources/DBN.BMP,WildCard_Ex,0.33526114,-0.027524595,1,0,0,0.8464,optionRight,45,11675,5,39,0,39,0,1,,,,,,,,,,,,,,,,,,,,,,,,,,,,,,,,,,,,,,,
,,,,,,,,2023-08-16_08h30.11.489,HF_wild_card,2022.2.4,MacIntel,60.0024001,5c3121af8c6d820001abed8e,64d2fd46c836a06233681665,64dc7af7af547a8081be8950,,,,,,,decisionTrl,resources/DBN.BMP,resources/DG.BMP,Door3,0.358814381,-0.03479456,1,0,0,0.9658,optionRight,70,11745,5,40,0,40,0,1,,,,,,,,,,,,,,,,,,,,,,,,,,,,,,,,,,,,,,,
,,,,,,,,2023-08-16_08h30.11.489,HF_wild_card,2022.2.4,MacIntel,60.0024001,5c3121af8c6d820001abed8e,64d2fd46c836a06233681665,64dc7af7af547a8081be8950,,,,,,,sngl,resources/DBN.BMP,resources/Empty.png,WildCard_Ex,-0.275198929,-0.00099103,1,0,0,0.6811,optionLeft,45,11790,5,41,0,41,0,1,,,,,,,,,,,,,,,,,,,,,,,,,,,,,,,,,,,,,,,
,,,,,,,,2023-08-16_08h30.11.489,HF_wild_card,2022.2.4,MacIntel,60.0024001,5c3121af8c6d820001abed8e,64d2fd46c836a06233681665,64dc7af7af547a8081be8950,,,,,,,decisionTrl,resources/DB.BMP,resources/DY.BMP,Door1,-0.362424045,0.015769676,1,0,0,1.0963,optionLeft,30,11820,5,42,0,42,0,1,,,,,,,,,,,,,,,,,,,,,,,,,,,,,,,,,,,,,,,
,,,,,,,,2023-08-16_08h30.11.489,HF_wild_card,2022.2.4,MacIntel,60.0024001,5c3121af8c6d820001abed8e,64d2fd46c836a06233681665,64dc7af7af547a8081be8950,,,,,,,decisionTrl,resources/DB.BMP,resources/DY.BMP,Door1,-0.336013455,-0.006260851,1,0,0,0.7159,optionLeft,30,11850,5,43,0,43,0,1,,,,,,,,,,,,,,,,,,,,,,,,,,,,,,,,,,,,,,,
,,,,,,,,2023-08-16_08h30.11.489,HF_wild_card,2022.2.4,MacIntel,60.0024001,5c3121af8c6d820001abed8e,64d2fd46c836a06233681665,64dc7af7af547a8081be8950,,,,,,,,,,,,,,,,,,,,,,,,,,4,0,4,0,1,,,,,,,,,,,,,,,,,,,,,,,,,,,,,,,,,,
,,,,,,,,2023-08-16_08h30.11.489,HF_wild_card,2022.2.4,MacIntel,60.0024001,5c3121af8c6d820001abed8e,64d2fd46c836a06233681665,64dc7af7af547a8081be8950,,,,,,,ctch,resources/DY.BMP,resources/DG.BMP,Door3,0.422945602,-0.018764468,1,0,0,1.0341,optionRight,70,11920,6,0,0,0,0,1,,,,,,,,,,,,,,,,,,,,,,,,,,,,,,,,,,,,,,,
,,,,,,,,2023-08-16_08h30.11.489,HF_wild_card,2022.2.4,MacIntel,60.0024001,5c3121af8c6d820001abed8e,64d2fd46c836a06233681665,64dc7af7af547a8081be8950,,,,,,,sngl,resources/Empty.png,resources/DBN.BMP,WildCard_Ex,0.298936632,-0.006022135,1,0,0,0.5105,optionRight,45,11965,6,1,0,1,0,1,,,,,,,,,,,,,,,,,,,,,,,,,,,,,,,,,,,,,,,
,,,,,,,,2023-08-16_08h30.11.489,HF_wild_card,2022.2.4,MacIntel,60.0024001,5c3121af8c6d820001abed8e,64d2fd46c836a06233681665,64dc7af7af547a8081be8950,,,,,,,ctch,resources/DB.BMP,resources/DR.BMP,Door4,0.297822627,-0.032009549,1,0,0,0.6452,optionRight,60,12025,6,2,0,2,0,1,,,,,,,,,,,,,,,,,,,,,,,,,,,,,,,,,,,,,,,
,,,,,,,,2023-08-16_08h30.11.489,HF_wild_card,2022.2.4,MacIntel,60.0024001,5c3121af8c6d820001abed8e,64d2fd46c836a06233681665,64dc7af7af547a8081be8950,,,,,,,decisionTrl,resources/DR.BMP,resources/DG.BMP,Door3,0.327766927,-0.036266638,1,0,0,0.5951,optionRight,70,12095,6,3,0,3,0,1,,,,,,,,,,,,,,,,,,,,,,,,,,,,,,,,,,,,,,,
,,,,,,,,2023-08-16_08h30.11.489,HF_wild_card,2022.2.4,MacIntel,60.0024001,5c3121af8c6d820001abed8e,64d2fd46c836a06233681665,64dc7af7af547a8081be8950,,,,,,,ctch,resources/DR.BMP,resources/DB.BMP,Door4,-0.327007378,-0.000292969,1,0,0,0.746,optionLeft,60,12155,6,4,0,4,0,1,,,,,,,,,,,,,,,,,,,,,,,,,,,,,,,,,,,,,,,
,,,,,,,,2023-08-16_08h30.11.489,HF_wild_card,2022.2.4,MacIntel,60.0024001,5c3121af8c6d820001abed8e,64d2fd46c836a06233681665,64dc7af7af547a8081be8950,,,,,,,decisionTrl,resources/DG.BMP,resources/DR.BMP,Door4,0.223383247,-0.008170573,1,0,0,0.5657,optionRight,80,12235,6,5,0,5,0,1,,,,,,,,,,,,,,,,,,,,,,,,,,,,,,,,,,,,,,,
,,,,,,,,2023-08-16_08h30.11.489,HF_wild_card,2022.2.4,MacIntel,60.0024001,5c3121af8c6d820001abed8e,64d2fd46c836a06233681665,64dc7af7af547a8081be8950,,,,,,,sngl,resources/DBN.BMP,resources/Empty.png,WildCard_Ex,-0.297739439,0.017534722,1,0,0,0.6125,optionLeft,55,12290,6,6,0,6,0,1,,,,,,,,,,,,,,,,,,,,,,,,,,,,,,,,,,,,,,,
,,,,,,,,2023-08-16_08h30.11.489,HF_wild_card,2022.2.4,MacIntel,60.0024001,5c3121af8c6d820001abed8e,64d2fd46c836a06233681665,64dc7af7af547a8081be8950,,,,,,,sngl,resources/Empty.png,resources/DB.BMP,Door1,0.259367766,0.005740017,1,0,0,0.5635,optionRight,30,12320,6,7,0,7,0,1,,,,,,,,,,,,,,,,,,,,,,,,,,,,,,,,,,,,,,,
,,,,,,,,2023-08-16_08h30.11.489,HF_wild_card,2022.2.4,MacIntel,60.0024001,5c3121af8c6d820001abed8e,64d2fd46c836a06233681665,64dc7af7af547a8081be8950,,,,,,,decisionTrl,resources/DR.BMP,resources/DG.BMP,Door4,-0.295033999,0.001341869,1,0,0,0.666,optionLeft,80,12400,6,8,0,8,0,1,,,,,,,,,,,,,,,,,,,,,,,,,,,,,,,,,,,,,,,
,,,,,,,,2023-08-16_08h30.11.489,HF_wild_card,2022.2.4,MacIntel,60.0024001,5c3121af8c6d820001abed8e,64d2fd46c836a06233681665,64dc7af7af547a8081be8950,,,,,,,ctch,resources/DY.BMP,resources/DG.BMP,Door3,0.331470631,-0.02156033,1,0,0,0.68,optionRight,70,12470,6,9,0,9,0,1,,,,,,,,,,,,,,,,,,,,,,,,,,,,,,,,,,,,,,,
,,,,,,,,2023-08-16_08h30.11.489,HF_wild_card,2022.2.4,MacIntel,60.0024001,5c3121af8c6d820001abed8e,64d2fd46c836a06233681665,64dc7af7af547a8081be8950,,,,,,,decisionTrl,resources/DBN.BMP,resources/DY.BMP,Door2,0.317104311,-0.012044271,1,0,0,0.6487,optionRight,40,12510,6,10,0,10,0,1,,,,,,,,,,,,,,,,,,,,,,,,,,,,,,,,,,,,,,,
,,,,,,,,2023-08-16_08h30.11.489,HF_wild_card,2022.2.4,MacIntel,60.0024001,5c3121af8c6d820001abed8e,64d2fd46c836a06233681665,64dc7af7af547a8081be8950,,,,,,,decisionTrl,resources/DY.BMP,resources/DBN.BMP,WildCard_Ex,0.382215712,-0.005139612,1,0,0,0.6793,optionRight,55,12565,6,11,0,11,0,1,,,,,,,,,,,,,,,,,,,,,,,,,,,,,,,,,,,,,,,
,,,,,,,,2023-08-16_08h30.11.489,HF_wild_card,2022.2.4,MacIntel,60.0024001,5c3121af8c6d820001abed8e,64d2fd46c836a06233681665,64dc7af7af547a8081be8950,,,,,,,decisionTrl,resources/DBN.BMP,resources/DG.BMP,Door3,0.45485026,-0.019842303,1,0,0,1.1484,optionRight,70,12635,6,12,0,12,0,1,,,,,,,,,,,,,,,,,,,,,,,,,,,,,,,,,,,,,,,
,,,,,,,,2023-08-16_08h30.11.489,HF_wild_card,2022.2.4,MacIntel,60.0024001,5c3121af8c6d820001abed8e,64d2fd46c836a06233681665,64dc7af7af547a8081be8950,,,,,,,decisionTrl,resources/DG.BMP,resources/DR.BMP,Door4,0.390223524,-0.020384838,1,0,0,0.9963,optionRight,80,12715,6,13,0,13,0,1,,,,,,,,,,,,,,,,,,,,,,,,,,,,,,,,,,,,,,,
,,,,,,,,2023-08-16_08h30.11.489,HF_wild_card,2022.2.4,MacIntel,60.0024001,5c3121af8c6d820001abed8e,64d2fd46c836a06233681665,64dc7af7af547a8081be8950,,,,,,,decisionTrl,resources/DB.BMP,resources/DBN.BMP,WildCard_Ex,0.35853588,-0.014641204,1,0,0,0.8644,optionRight,45,12760,6,14,0,14,0,1,,,,,,,,,,,,,,,,,,,,,,,,,,,,,,,,,,,,,,,
,,,,,,,,2023-08-16_08h30.11.489,HF_wild_card,2022.2.4,MacIntel,60.0024001,5c3121af8c6d820001abed8e,64d2fd46c836a06233681665,64dc7af7af547a8081be8950,,,,,,,sngl,resources/Empty.png,resources/DBN.BMP,WildCard_Ex,0.349338108,-0.021462674,1,0,0,0.5462,optionRight,55,12815,6,15,0,15,0,1,,,,,,,,,,,,,,,,,,,,,,,,,,,,,,,,,,,,,,,
,,,,,,,,2023-08-16_08h30.11.489,HF_wild_card,2022.2.4,MacIntel,60.0024001,5c3121af8c6d820001abed8e,64d2fd46c836a06233681665,64dc7af7af547a8081be8950,,,,,,,ctch,resources/DB.BMP,resources/DR.BMP,Door4,0.264055266,-0.016771557,1,0,0,0.5655,optionRight,80,12895,6,16,0,16,0,1,,,,,,,,,,,,,,,,,,,,,,,,,,,,,,,,,,,,,,,
,,,,,,,,2023-08-16_08h30.11.489,HF_wild_card,2022.2.4,MacIntel,60.0024001,5c3121af8c6d820001abed8e,64d2fd46c836a06233681665,64dc7af7af547a8081be8950,,,,,,,decisionTrl,resources/DR.BMP,resources/DG.BMP,Door3,0.319093605,0.011635561,1,0,0,0.6821,optionRight,70,12965,6,17,0,17,0,1,,,,,,,,,,,,,,,,,,,,,,,,,,,,,,,,,,,,,,,
,,,,,,,,2023-08-16_08h30.11.489,HF_wild_card,2022.2.4,MacIntel,60.0024001,5c3121af8c6d820001abed8e,64d2fd46c836a06233681665,64dc7af7af547a8081be8950,,,,,,,ctch,resources/DG.BMP,resources/DY.BMP,Door3,-0.34932364,0.038661024,1,0,0,0.8295,optionLeft,70,13035,6,18,0,18,0,1,,,,,,,,,,,,,,,,,,,,,,,,,,,,,,,,,,,,,,,
,,,,,,,,2023-08-16_08h30.11.489,HF_wild_card,2022.2.4,MacIntel,60.0024001,5c3121af8c6d820001abed8e,64d2fd46c836a06233681665,64dc7af7af547a8081be8950,,,,,,,decisionTrl,resources/DG.BMP,resources/DR.BMP,Door4,0.271299913,-0.006532118,1,0,0,0.8278,optionRight,80,13115,6,19,0,19,0,1,,,,,,,,,,,,,,,,,,,,,,,,,,,,,,,,,,,,,,,
,,,,,,,,2023-08-16_08h30.11.489,HF_wild_card,2022.2.4,MacIntel,60.0024001,5c3121af8c6d820001abed8e,64d2fd46c836a06233681665,64dc7af7af547a8081be8950,,,,,,,decisionTrl,resources/DY.BMP,resources/DB.BMP,Door2,-0.346679688,0.018185764,1,0,0,0.6644,optionLeft,20,13135,6,20,0,20,0,1,,,,,,,,,,,,,,,,,,,,,,,,,,,,,,,,,,,,,,,
,,,,,,,,2023-08-16_08h30.11.489,HF_wild_card,2022.2.4,MacIntel,60.0024001,5c3121af8c6d820001abed8e,64d2fd46c836a06233681665,64dc7af7af547a8081be8950,,,,,,,decisionTrl,resources/DB.BMP,resources/DY.BMP,Door1,-0.352365451,0.022392216,1,0,0,0.7469,optionLeft,30,13165,6,21,0,21,0,1,,,,,,,,,,,,,,,,,,,,,,,,,,,,,,,,,,,,,,,
,,,,,,,,2023-08-16_08h30.11.489,HF_wild_card,2022.2.4,MacIntel,60.0024001,5c3121af8c6d820001abed8e,64d2fd46c836a06233681665,64dc7af7af547a8081be8950,,,,,,,sngl,resources/DB.BMP,resources/Empty.png,Door1,-0.326171875,0.009016927,1,0,0,0.6965,optionLeft,30,13195,6,22,0,22,0,1,,,,,,,,,,,,,,,,,,,,,,,,,,,,,,,,,,,,,,,
,,,,,,,,2023-08-16_08h30.11.489,HF_wild_card,2022.2.4,MacIntel,60.0024001,5c3121af8c6d820001abed8e,64d2fd46c836a06233681665,64dc7af7af547a8081be8950,,,,,,,sngl,resources/DR.BMP,resources/Empty.png,Door4,-0.332776331,0.011791088,1,0,0,0.6477,optionLeft,60,13255,6,23,0,23,0,1,,,,,,,,,,,,,,,,,,,,,,,,,,,,,,,,,,,,,,,
,,,,,,,,2023-08-16_08h30.11.489,HF_wild_card,2022.2.4,MacIntel,60.0024001,5c3121af8c6d820001abed8e,64d2fd46c836a06233681665,64dc7af7af547a8081be8950,,,,,,,ctch,resources/DR.BMP,resources/DB.BMP,Door4,-0.274352575,0.00265842,1,0,0,0.9802,optionLeft,60,13315,6,24,0,24,0,1,,,,,,,,,,,,,,,,,,,,,,,,,,,,,,,,,,,,,,,
,,,,,,,,2023-08-16_08h30.11.489,HF_wild_card,2022.2.4,MacIntel,60.0024001,5c3121af8c6d820001abed8e,64d2fd46c836a06233681665,64dc7af7af547a8081be8950,,,,,,,ctch,resources/DG.BMP,resources/DY.BMP,Door3,-0.282794416,0.022439236,1,0,0,0.9466,optionLeft,70,13385,6,25,0,25,0,1,,,,,,,,,,,,,,,,,,,,,,,,,,,,,,,,,,,,,,,
,,,,,,,,2023-08-16_08h30.11.489,HF_wild_card,2022.2.4,MacIntel,60.0024001,5c3121af8c6d820001abed8e,64d2fd46c836a06233681665,64dc7af7af547a8081be8950,,,,,,,sngl,resources/DG.BMP,resources/Empty.png,Door3,-0.256380208,0.013635706,1,0,0,0.5492,optionLeft,70,13455,6,26,0,26,0,1,,,,,,,,,,,,,,,,,,,,,,,,,,,,,,,,,,,,,,,
,,,,,,,,2023-08-16_08h30.11.489,HF_wild_card,2022.2.4,MacIntel,60.0024001,5c3121af8c6d820001abed8e,64d2fd46c836a06233681665,64dc7af7af547a8081be8950,,,,,,,decisionTrl,resources/DR.BMP,resources/DG.BMP,Door4,-0.28427011,0.003757957,1,0,0,1.2957,optionLeft,60,13515,6,27,0,27,0,1,,,,,,,,,,,,,,,,,,,,,,,,,,,,,,,,,,,,,,,
,,,,,,,,2023-08-16_08h30.11.489,HF_wild_card,2022.2.4,MacIntel,60.0024001,5c3121af8c6d820001abed8e,64d2fd46c836a06233681665,64dc7af7af547a8081be8950,,,,,,,decisionTrl,resources/DR.BMP,resources/DBN.BMP,Door4,-0.331579138,0.006372975,1,0,0,0.696,optionLeft,60,13575,6,28,0,28,0,1,,,,,,,,,,,,,,,,,,,,,,,,,,,,,,,,,,,,,,,
,,,,,,,,2023-08-16_08h30.11.489,HF_wild_card,2022.2.4,MacIntel,60.0024001,5c3121af8c6d820001abed8e,64d2fd46c836a06233681665,64dc7af7af547a8081be8950,,,,,,,decisionTrl,resources/DBN.BMP,resources/DB.BMP,WildCard_Ex,-0.323625579,0.024963831,1,0,0,1.3809,optionLeft,55,13630,6,29,0,29,0,1,,,,,,,,,,,,,,,,,,,,,,,,,,,,,,,,,,,,,,,
,,,,,,,,2023-08-16_08h30.11.489,HF_wild_card,2022.2.4,MacIntel,60.0024001,5c3121af8c6d820001abed8e,64d2fd46c836a06233681665,64dc7af7af547a8081be8950,,,,,,,decisionTrl,resources/DB.BMP,resources/DY.BMP,Door1,-0.301595052,0.015581597,1,0,0,1.2472,optionLeft,30,13660,6,30,0,30,0,1,,,,,,,,,,,,,,,,,,,,,,,,,,,,,,,,,,,,,,,
,,,,,,,,2023-08-16_08h30.11.489,HF_wild_card,2022.2.4,MacIntel,60.0024001,5c3121af8c6d820001abed8e,64d2fd46c836a06233681665,64dc7af7af547a8081be8950,,,,,,,decisionTrl,resources/DY.BMP,resources/DB.BMP,Door2,-0.254770689,0.022417535,1,0,0,0.6149,optionLeft,40,13700,6,31,0,31,0,1,,,,,,,,,,,,,,,,,,,,,,,,,,,,,,,,,,,,,,,
,,,,,,,,2023-08-16_08h30.11.489,HF_wild_card,2022.2.4,MacIntel,60.0024001,5c3121af8c6d820001abed8e,64d2fd46c836a06233681665,64dc7af7af547a8081be8950,,,,,,,decisionTrl,resources/DBN.BMP,resources/DR.BMP,Door4,0.263675492,-0.030461516,1,0,0,0.6972,optionRight,60,13760,6,32,0,32,0,1,,,,,,,,,,,,,,,,,,,,,,,,,,,,,,,,,,,,,,,
,,,,,,,,2023-08-16_08h30.11.489,HF_wild_card,2022.2.4,MacIntel,60.0024001,5c3121af8c6d820001abed8e,64d2fd46c836a06233681665,64dc7af7af547a8081be8950,,,,,,,decisionTrl,resources/DG.BMP,resources/DR.BMP,Door4,0.211762153,-0.006405527,1,0,0,1.4489,optionRight,80,13840,6,33,0,33,0,1,,,,,,,,,,,,,,,,,,,,,,,,,,,,,,,,,,,,,,,
,,,,,,,,2023-08-16_08h30.11.489,HF_wild_card,2022.2.4,MacIntel,60.0024001,5c3121af8c6d820001abed8e,64d2fd46c836a06233681665,64dc7af7af547a8081be8950,,,,,,,decisionTrl,resources/DG.BMP,resources/DBN.BMP,Door3,-0.298640046,0.013729745,1,0,0,1.0466,optionLeft,70,13910,6,34,0,34,0,1,,,,,,,,,,,,,,,,,,,,,,,,,,,,,,,,,,,,,,,
,,,,,,,,2023-08-16_08h30.11.489,HF_wild_card,2022.2.4,MacIntel,60.0024001,5c3121af8c6d820001abed8e,64d2fd46c836a06233681665,64dc7af7af547a8081be8950,,,,,,,sngl,resources/Empty.png,resources/DY.BMP,Door2,0.278540943,-0.016102431,1,0,0,0.7299,optionRight,40,13950,6,35,0,35,0,1,,,,,,,,,,,,,,,,,,,,,,,,,,,,,,,,,,,,,,,
,,,,,,,,2023-08-16_08h30.11.489,HF_wild_card,2022.2.4,MacIntel,60.0024001,5c3121af8c6d820001abed8e,64d2fd46c836a06233681665,64dc7af7af547a8081be8950,,,,,,,decisionTrl,resources/DY.BMP,resources/DB.BMP,Door2,-0.334472656,-0.003059896,1,0,0,0.7971,optionLeft,20,13970,6,36,0,36,0,1,,,,,,,,,,,,,,,,,,,,,,,,,,,,,,,,,,,,,,,
,,,,,,,,2023-08-16_08h30.11.489,HF_wild_card,2022.2.4,MacIntel,60.0024001,5c3121af8c6d820001abed8e,64d2fd46c836a06233681665,64dc7af7af547a8081be8950,,,,,,,decisionTrl,resources/DB.BMP,resources/DY.BMP,Door1,-0.307751013,0.007071036,1,0,0,0.8137,optionLeft,30,14000,6,37,0,37,0,1,,,,,,,,,,,,,,,,,,,,,,,,,,,,,,,,,,,,,,,
,,,,,,,,2023-08-16_08h30.11.489,HF_wild_card,2022.2.4,MacIntel,60.0024001,5c3121af8c6d820001abed8e,64d2fd46c836a06233681665,64dc7af7af547a8081be8950,,,,,,,decisionTrl,resources/DY.BMP,resources/DB.BMP,Door1,0.24968533,-0.012084057,1,0,0,0.6648,optionRight,30,14030,6,38,0,38,0,1,,,,,,,,,,,,,,,,,,,,,,,,,,,,,,,,,,,,,,,
,,,,,,,,2023-08-16_08h30.11.489,HF_wild_card,2022.2.4,MacIntel,60.0024001,5c3121af8c6d820001abed8e,64d2fd46c836a06233681665,64dc7af7af547a8081be8950,,,,,,,sngl,resources/DBN.BMP,resources/Empty.png,WildCard_Ex,-0.277141204,0.006000434,1,0,0,0.7132,optionLeft,45,14075,6,39,0,39,0,1,,,,,,,,,,,,,,,,,,,,,,,,,,,,,,,,,,,,,,,
,,,,,,,,2023-08-16_08h30.11.489,HF_wild_card,2022.2.4,MacIntel,60.0024001,5c3121af8c6d820001abed8e,64d2fd46c836a06233681665,64dc7af7af547a8081be8950,,,,,,,decisionTrl,resources/DB.BMP,resources/DY.BMP,Door1,-0.308561198,-0.005548322,1,0,0,1.2135,optionLeft,30,14105,6,40,0,40,0,1,,,,,,,,,,,,,,,,,,,,,,,,,,,,,,,,,,,,,,,
,,,,,,,,2023-08-16_08h30.11.489,HF_wild_card,2022.2.4,MacIntel,60.0024001,5c3121af8c6d820001abed8e,64d2fd46c836a06233681665,64dc7af7af547a8081be8950,,,,,,,sngl,resources/Empty.png,resources/DR.BMP,Door4,0.270793547,-0.010557726,1,0,0,0.6823,optionRight,80,14185,6,41,0,41,0,1,,,,,,,,,,,,,,,,,,,,,,,,,,,,,,,,,,,,,,,
,,,,,,,,2023-08-16_08h30.11.489,HF_wild_card,2022.2.4,MacIntel,60.0024001,5c3121af8c6d820001abed8e,64d2fd46c836a06233681665,64dc7af7af547a8081be8950,,,,,,,sngl,resources/Empty.png,resources/DG.BMP,Door3,0.348057726,-0.009845197,1,0,0,0.6472,optionRight,70,14255,6,42,0,42,0,1,,,,,,,,,,,,,,,,,,,,,,,,,,,,,,,,,,,,,,,
,,,,,,,,2023-08-16_08h30.11.489,HF_wild_card,2022.2.4,MacIntel,60.0024001,5c3121af8c6d820001abed8e,64d2fd46c836a06233681665,64dc7af7af547a8081be8950,,,,,,,sngl,resources/DY.BMP,resources/Empty.png,Door2,-0.282049334,0.012738715,1,0,0,0.6976,optionLeft,20,14275,6,43,0,43,0,1,,,,,,,,,,,,,,,,,,,,,,,,,,,,,,,,,,,,,,,
,,,,,,,,2023-08-16_08h30.11.489,HF_wild_card,2022.2.4,MacIntel,60.0024001,5c3121af8c6d820001abed8e,64d2fd46c836a06233681665,64dc7af7af547a8081be8950,,,,,,,,,,,,,,,,,,,,,,,,,,5,0,5,0,1,,,,,,,,,,,,,,,,,,,,,,,,,,,,,,,,,,
,,,,,,,,2023-08-16_08h30.11.489,HF_wild_card,2022.2.4,MacIntel,60.0024001,5c3121af8c6d820001abed8e,64d2fd46c836a06233681665,64dc7af7af547a8081be8950,,,,,,,decisionTrl,resources/DB.BMP,resources/DY.BMP,Door1,-0.289185475,0.003088831,1,0,0,1.2477,optionLeft,30,14305,7,0,0,0,0,1,,,,,,,,,,,,,,,,,,,,,,,,,,,,,,,,,,,,,,,
,,,,,,,,2023-08-16_08h30.11.489,HF_wild_card,2022.2.4,MacIntel,60.0024001,5c3121af8c6d820001abed8e,64d2fd46c836a06233681665,64dc7af7af547a8081be8950,,,,,,,ctch,resources/DR.BMP,resources/DB.BMP,Door4,-0.335810909,0.007429109,1,0,0,0.8649,optionLeft,60,14365,7,1,0,1,0,1,,,,,,,,,,,,,,,,,,,,,,,,,,,,,,,,,,,,,,,
,,,,,,,,2023-08-16_08h30.11.489,HF_wild_card,2022.2.4,MacIntel,60.0024001,5c3121af8c6d820001abed8e,64d2fd46c836a06233681665,64dc7af7af547a8081be8950,,,,,,,ctch,resources/DB.BMP,resources/DR.BMP,Door4,0.366988571,-0.022099248,1,0,0,0.7814,optionRight,80,14445,7,2,0,2,0,1,,,,,,,,,,,,,,,,,,,,,,,,,,,,,,,,,,,,,,,
,,,,,,,,2023-08-16_08h30.11.489,HF_wild_card,2022.2.4,MacIntel,60.0024001,5c3121af8c6d820001abed8e,64d2fd46c836a06233681665,64dc7af7af547a8081be8950,,,,,,,ctch,resources/DB.BMP,resources/DR.BMP,Door4,0.306770833,-0.030877459,1,0,0,0.8301,optionRight,60,14505,7,3,0,3,0,1,,,,,,,,,,,,,,,,,,,,,,,,,,,,,,,,,,,,,,,
,,,,,,,,2023-08-16_08h30.11.489,HF_wild_card,2022.2.4,MacIntel,60.0024001,5c3121af8c6d820001abed8e,64d2fd46c836a06233681665,64dc7af7af547a8081be8950,,,,,,,decisionTrl,resources/DY.BMP,resources/DB.BMP,Door1,0.416203704,-0.042191117,1,0,0,1.0977,optionRight,30,14535,7,4,0,4,0,1,,,,,,,,,,,,,,,,,,,,,,,,,,,,,,,,,,,,,,,
,,,,,,,,2023-08-16_08h30.11.489,HF_wild_card,2022.2.4,MacIntel,60.0024001,5c3121af8c6d820001abed8e,64d2fd46c836a06233681665,64dc7af7af547a8081be8950,,,,,,,decisionTrl,resources/DY.BMP,resources/DB.BMP,Door1,0.314142072,-0.022139034,1,0,0,0.6475,optionRight,30,14565,7,5,0,5,0,1,,,,,,,,,,,,,,,,,,,,,,,,,,,,,,,,,,,,,,,
,,,,,,,,2023-08-16_08h30.11.489,HF_wild_card,2022.2.4,MacIntel,60.0024001,5c3121af8c6d820001abed8e,64d2fd46c836a06233681665,64dc7af7af547a8081be8950,,,,,,,decisionTrl,resources/DB.BMP,resources/DY.BMP,Door1,-0.264764178,0.01448206,1,0,0,1.0472,optionLeft,30,14595,7,6,0,6,0,1,,,,,,,,,,,,,,,,,,,,,,,,,,,,,,,,,,,,,,,
,,,,,,,,2023-08-16_08h30.11.489,HF_wild_card,2022.2.4,MacIntel,60.0024001,5c3121af8c6d820001abed8e,64d2fd46c836a06233681665,64dc7af7af547a8081be8950,,,,,,,ctch,resources/DY.BMP,resources/DG.BMP,Door3,0.386046007,-0.021480758,1,0,0,0.7123,optionRight,70,14665,7,7,0,7,0,1,,,,,,,,,,,,,,,,,,,,,,,,,,,,,,,,,,,,,,,
,,,,,,,,2023-08-16_08h30.11.489,HF_wild_card,2022.2.4,MacIntel,60.0024001,5c3121af8c6d820001abed8e,64d2fd46c836a06233681665,64dc7af7af547a8081be8950,,,,,,,ctch,resources/DG.BMP,resources/DY.BMP,Door3,-0.257931858,0.022876881,1,0,0,1.1152,optionLeft,70,14735,7,8,0,8,0,1,,,,,,,,,,,,,,,,,,,,,,,,,,,,,,,,,,,,,,,
,,,,,,,,2023-08-16_08h30.11.489,HF_wild_card,2022.2.4,MacIntel,60.0024001,5c3121af8c6d820001abed8e,64d2fd46c836a06233681665,64dc7af7af547a8081be8950,,,,,,,decisionTrl,resources/DG.BMP,resources/DR.BMP,Door4,0.308619068,0.011378762,1,0,0,1.0312,optionRight,60,14795,7,9,0,9,0,1,,,,,,,,,,,,,,,,,,,,,,,,,,,,,,,,,,,,,,,
,,,,,,,,2023-08-16_08h30.11.489,HF_wild_card,2022.2.4,MacIntel,60.0024001,5c3121af8c6d820001abed8e,64d2fd46c836a06233681665,64dc7af7af547a8081be8950,,,,,,,decisionTrl,resources/DG.BMP,resources/DR.BMP,Door4,0.348517072,-0.050488281,1,0,0,0.6511,optionRight,60,14855,7,10,0,10,0,1,,,,,,,,,,,,,,,,,,,,,,,,,,,,,,,,,,,,,,,
,,,,,,,,2023-08-16_08h30.11.489,HF_wild_card,2022.2.4,MacIntel,60.0024001,5c3121af8c6d820001abed8e,64d2fd46c836a06233681665,64dc7af7af547a8081be8950,,,,,,,decisionTrl,resources/DY.BMP,resources/DB.BMP,Door1,0.432761863,-0.031170428,1,0,0,2.9804,optionRight,30,14885,7,11,0,11,0,1,,,,,,,,,,,,,,,,,,,,,,,,,,,,,,,,,,,,,,,
,,,,,,,,2023-08-16_08h30.11.489,HF_wild_card,2022.2.4,MacIntel,60.0024001,5c3121af8c6d820001abed8e,64d2fd46c836a06233681665,64dc7af7af547a8081be8950,,,,,,,decisionTrl,resources/DG.BMP,resources/DR.BMP,Door4,0.326316551,-0.011892361,1,0,0,0.899,optionRight,60,14945,7,12,0,12,0,1,,,,,,,,,,,,,,,,,,,,,,,,,,,,,,,,,,,,,,,
,,,,,,,,2023-08-16_08h30.11.489,HF_wild_card,2022.2.4,MacIntel,60.0024001,5c3121af8c6d820001abed8e,64d2fd46c836a06233681665,64dc7af7af547a8081be8950,,,,,,,ctch,resources/DG.BMP,resources/DY.BMP,Door3,-0.349327257,0.023321759,1,0,0,1.6473,optionLeft,70,15015,7,13,0,13,0,1,,,,,,,,,,,,,,,,,,,,,,,,,,,,,,,,,,,,,,,
,,,,,,,,2023-08-16_08h30.11.489,HF_wild_card,2022.2.4,MacIntel,60.0024001,5c3121af8c6d820001abed8e,64d2fd46c836a06233681665,64dc7af7af547a8081be8950,,,,,,,decisionTrl,resources/DG.BMP,resources/DR.BMP,Door4,0.27505787,-0.022149884,1,0,0,1.4141,optionRight,60,15075,7,14,0,14,0,1,,,,,,,,,,,,,,,,,,,,,,,,,,,,,,,,,,,,,,,
,,,,,,,,2023-08-16_08h30.11.489,HF_wild_card,2022.2.4,MacIntel,60.0024001,5c3121af8c6d820001abed8e,64d2fd46c836a06233681665,64dc7af7af547a8081be8950,,,,,,,decisionTrl,resources/DY.BMP,resources/DB.BMP,Door1,0.287022569,-0.031170428,1,0,0,1.3828,optionRight,30,15105,7,15,0,15,0,1,,,,,,,,,,,,,,,,,,,,,,,,,,,,,,,,,,,,,,,
,,,,,,,,2023-08-16_08h30.11.489,HF_wild_card,2022.2.4,MacIntel,60.0024001,5c3121af8c6d820001abed8e,64d2fd46c836a06233681665,64dc7af7af547a8081be8950,,,,,,,ctch,resources/DB.BMP,resources/DR.BMP,Door4,0.306430845,-0.043019387,1,0,0,0.8163,optionRight,60,15165,7,16,0,16,0,1,,,,,,,,,,,,,,,,,,,,,,,,,,,,,,,,,,,,,,,
,,,,,,,,2023-08-16_08h30.11.489,HF_wild_card,2022.2.4,MacIntel,60.0024001,5c3121af8c6d820001abed8e,64d2fd46c836a06233681665,64dc7af7af547a8081be8950,,,,,,,decisionTrl,resources/DY.BMP,resources/DB.BMP,Door1,0.265002894,-0.036917679,1,0,0,1.3501,optionRight,30,15195,7,17,0,17,0,1,,,,,,,,,,,,,,,,,,,,,,,,,,,,,,,,,,,,,,,
,,,,,,,,2023-08-16_08h30.11.489,HF_wild_card,2022.2.4,MacIntel,60.0024001,5c3121af8c6d820001abed8e,64d2fd46c836a06233681665,64dc7af7af547a8081be8950,,,,,,,ctch,resources/DR.BMP,resources/DB.BMP,Door4,-0.307432726,0.013288484,1,0,0,1.3307,optionLeft,80,15275,7,18,0,18,0,1,,,,,,,,,,,,,,,,,,,,,,,,,,,,,,,,,,,,,,,
,,,,,,,,2023-08-16_08h30.11.489,HF_wild_card,2022.2.4,MacIntel,60.0024001,5c3121af8c6d820001abed8e,64d2fd46c836a06233681665,64dc7af7af547a8081be8950,,,,,,,decisionTrl,resources/DR.BMP,resources/DG.BMP,Door4,-0.305862992,0.017820457,1,0,0,1.2296,optionLeft,60,15335,7,19,0,19,0,1,,,,,,,,,,,,,,,,,,,,,,,,,,,,,,,,,,,,,,,
,,,,,,,,2023-08-16_08h30.11.489,HF_wild_card,2022.2.4,MacIntel,60.0024001,5c3121af8c6d820001abed8e,64d2fd46c836a06233681665,64dc7af7af547a8081be8950,,,,,,,decisionTrl,resources/DB.BMP,resources/DY.BMP,Door1,-0.337373409,-0.000126591,1,0,0,1.0641,optionLeft,30,15365,7,20,0,20,0,1,,,,,,,,,,,,,,,,,,,,,,,,,,,,,,,,,,,,,,,
,,,,,,,,2023-08-16_08h30.11.489,HF_wild_card,2022.2.4,MacIntel,60.0024001,5c3121af8c6d820001abed8e,64d2fd46c836a06233681665,64dc7af7af547a8081be8950,,,,,,,decisionTrl,resources/DR.BMP,resources/DG.BMP,Door4,-0.34391276,0.003837529,1,0,0,1.199,optionLeft,80,15445,7,21,0,21,0,1,,,,,,,,,,,,,,,,,,,,,,,,,,,,,,,,,,,,,,,
,,,,,,,,2023-08-16_08h30.11.489,HF_wild_card,2022.2.4,MacIntel,60.0024001,5c3121af8c6d820001abed8e,64d2fd46c836a06233681665,64dc7af7af547a8081be8950,,,,,,,decisionTrl,resources/DG.BMP,resources/DR.BMP,Door4,0.311628328,-0.025166377,1,0,0,0.7136,optionRight,60,15505,7,22,0,22,0,1,,,,,,,,,,,,,,,,,,,,,,,,,,,,,,,,,,,,,,,
,,,,,,,,2023-08-16_08h30.11.489,HF_wild_card,2022.2.4,MacIntel,60.0024001,5c3121af8c6d820001abed8e,64d2fd46c836a06233681665,64dc7af7af547a8081be8950,,,,,,,decisionTrl,resources/DB.BMP,resources/DY.BMP,Door1,-0.276938657,0.005870226,1,0,0,1.1984,optionLeft,30,15535,7,23,0,23,0,1,,,,,,,,,,,,,,,,,,,,,,,,,,,,,,,,,,,,,,,
,,,,,,,,2023-08-16_08h30.11.489,HF_wild_card,2022.2.4,MacIntel,60.0024001,5c3121af8c6d820001abed8e,64d2fd46c836a06233681665,64dc7af7af547a8081be8950,,,,,,,decisionTrl,resources/DR.BMP,resources/DG.BMP,Door4,-0.340285012,0.000607639,1,0,0,1.1316,optionLeft,80,15615,7,24,0,24,0,1,,,,,,,,,,,,,,,,,,,,,,,,,,,,,,,,,,,,,,,
,,,,,,,,2023-08-16_08h30.11.489,HF_wild_card,2022.2.4,MacIntel,60.0024001,5c3121af8c6d820001abed8e,64d2fd46c836a06233681665,64dc7af7af547a8081be8950,,,,,,,ctch,resources/DY.BMP,resources/DG.BMP,Door3,0.356105324,-0.027426939,1,0,0,0.6497,optionRight,70,15685,7,25,0,25,0,1,,,,,,,,,,,,,,,,,,,,,,,,,,,,,,,,,,,,,,,
,,,,,,,,2023-08-16_08h30.11.489,HF_wild_card,2022.2.4,MacIntel,60.0024001,5c3121af8c6d820001abed8e,64d2fd46c836a06233681665,64dc7af7af547a8081be8950,,,,,,,decisionTrl,resources/DR.BMP,resources/DG.BMP,Door3,0.32505787,-0.031539352,1,0,0,0.7168,optionRight,70,15755,7,26,0,26,0,1,,,,,,,,,,,,,,,,,,,,,,,,,,,,,,,,,,,,,,,
,,,,,,,,2023-08-16_08h30.11.489,HF_wild_card,2022.2.4,MacIntel,60.0024001,5c3121af8c6d820001abed8e,64d2fd46c836a06233681665,64dc7af7af547a8081be8950,,,,,,,decisionTrl,resources/DB.BMP,resources/DY.BMP,Door1,-0.283582899,-0.004691117,1,0,0,0.9461,optionLeft,30,15785,7,27,0,27,0,1,,,,,,,,,,,,,,,,,,,,,,,,,,,,,,,,,,,,,,,
,,,,,,,,2023-08-16_08h30.11.489,HF_wild_card,2022.2.4,MacIntel,60.0024001,5c3121af8c6d820001abed8e,64d2fd46c836a06233681665,64dc7af7af547a8081be8950,,,,,,,decisionTrl,resources/DY.BMP,resources/DB.BMP,Door1,0.375622106,-0.050538918,1,0,0,1.0505,optionRight,30,15815,7,28,0,28,0,1,,,,,,,,,,,,,,,,,,,,,,,,,,,,,,,,,,,,,,,
,,,,,,,,2023-08-16_08h30.11.489,HF_wild_card,2022.2.4,MacIntel,60.0024001,5c3121af8c6d820001abed8e,64d2fd46c836a06233681665,64dc7af7af547a8081be8950,,,,,,,decisionTrl,resources/DB.BMP,resources/DY.BMP,Door1,-0.279170284,-0.018164063,1,0,0,1.0318,optionLeft,30,15845,7,29,0,29,0,1,,,,,,,,,,,,,,,,,,,,,,,,,,,,,,,,,,,,,,,
,,,,,,,,2023-08-16_08h30.11.489,HF_wild_card,2022.2.4,MacIntel,60.0024001,5c3121af8c6d820001abed8e,64d2fd46c836a06233681665,64dc7af7af547a8081be8950,,,,,,,ctch,resources/DR.BMP,resources/DB.BMP,Door4,-0.335640914,-0.002376302,1,0,0,0.8652,optionLeft,80,15925,7,30,0,30,0,1,,,,,,,,,,,,,,,,,,,,,,,,,,,,,,,,,,,,,,,
,,,,,,,,2023-08-16_08h30.11.489,HF_wild_card,2022.2.4,MacIntel,60.0024001,5c3121af8c6d820001abed8e,64d2fd46c836a06233681665,64dc7af7af547a8081be8950,,,,,,,ctch,resources/DG.BMP,resources/DY.BMP,Door3,-0.25698423,-0.00546875,1,0,0,1.2475,optionLeft,70,15995,7,31,0,31,0,1,,,,,,,,,,,,,,,,,,,,,,,,,,,,,,,,,,,,,,,
,,,,,,,,2023-08-16_08h30.11.489,HF_wild_card,2022.2.4,MacIntel,60.0024001,5c3121af8c6d820001abed8e,64d2fd46c836a06233681665,64dc7af7af547a8081be8950,,,,,,,decisionTrl,resources/DR.BMP,resources/DG.BMP,Door4,-0.261820023,0.004141348,1,0,0,1.3627,optionLeft,80,16075,7,32,0,32,0,1,,,,,,,,,,,,,,,,,,,,,,,,,,,,,,,,,,,,,,,
,,,,,,,,2023-08-16_08h30.11.489,HF_wild_card,2022.2.4,MacIntel,60.0024001,5c3121af8c6d820001abed8e,64d2fd46c836a06233681665,64dc7af7af547a8081be8950,,,,,,,decisionTrl,resources/DR.BMP,resources/DG.BMP,Door4,-0.375300203,-0.001522714,1,0,0,0.6522,optionLeft,60,16135,7,33,0,33,0,1,,,,,,,,,,,,,,,,,,,,,,,,,,,,,,,,,,,,,,,
,,,,,,,,2023-08-16_08h30.11.489,HF_wild_card,2022.2.4,MacIntel,60.0024001,5c3121af8c6d820001abed8e,64d2fd46c836a06233681665,64dc7af7af547a8081be8950,,,,,,,decisionTrl,resources/DG.BMP,resources/DR.BMP,Door4,0.325477431,-0.041493056,1,0,0,0.9481,optionRight,80,16215,7,34,0,34,0,1,,,,,,,,,,,,,,,,,,,,,,,,,,,,,,,,,,,,,,,
,,,,,,,,2023-08-16_08h30.11.489,HF_wild_card,2022.2.4,MacIntel,60.0024001,5c3121af8c6d820001abed8e,64d2fd46c836a06233681665,64dc7af7af547a8081be8950,,,,,,,ctch,resources/DY.BMP,resources/DG.BMP,Door3,0.386809172,-0.030483218,1,0,0,1.0474,optionRight,70,16285,7,35,0,35,0,1,,,,,,,,,,,,,,,,,,,,,,,,,,,,,,,,,,,,,,,
,,,,,,,,2023-08-16_08h30.11.489,HF_wild_card,2022.2.4,MacIntel,60.0024001,5c3121af8c6d820001abed8e,64d2fd46c836a06233681665,64dc7af7af547a8081be8950,,,,,,,,,,,,,,,,,,,,,,,,,,6,0,6,0,1,,,,,,,,,,,,,,,,,,,,,,,,,,,,,,,,,,
,,,,,,,,2023-08-16_08h30.11.489,HF_wild_card,2022.2.4,MacIntel,60.0024001,5c3121af8c6d820001abed8e,64d2fd46c836a06233681665,64dc7af7af547a8081be8950,,,,,,,,,,,,,,,,,,,,,,,,,,,,,,,4,,,,,,,,,,,,,,,,,,,,,,,,,,,,,,,,,
,,,,,,,,2023-08-16_08h30.11.489,HF_wild_card,2022.2.4,MacIntel,60.0024001,5c3121af8c6d820001abed8e,64d2fd46c836a06233681665,64dc7af7af547a8081be8950,,,,,,,,,,,,,,,,,,,,,,,,,,,,,,,,,,,,,,,,,,,,,,,,,,,,,,,,,,,,,,,,
,,,,,,,,2023-08-16_08h30.11.489,HF_wild_card,2022.2.4,MacIntel,60.0024001,5c3121af8c6d820001abed8e,64d2fd46c836a06233681665,64dc7af7af547a8081be8950,,,,,,,,,,,,,,,,,,,,,,,,,,,,,,,,20,Door2,resources/DY.BMP,0,0,0,0,1,,,,,,,,,,,,,,,,,,,,,,,,,
,,,,,,,,2023-08-16_08h30.11.489,HF_wild_card,2022.2.4,MacIntel,60.0024001,5c3121af8c6d820001abed8e,64d2fd46c836a06233681665,64dc7af7af547a8081be8950,,,,,,,,,,,,,,,,,,,,,,,,,,,,,,,,40,Door1,resources/DB.BMP,1,0,1,0,1,,,,,,,,,,,,,,,,,,,,,,,,,
,,,,,,,,2023-08-16_08h30.11.489,HF_wild_card,2022.2.4,MacIntel,60.0024001,5c3121af8c6d820001abed8e,64d2fd46c836a06233681665,64dc7af7af547a8081be8950,,,,,,,,,,,,,,,,,,,,,,,,,,,,,,,,70,Door3,resources/DG.BMP,2,0,2,0,1,,,,,,,,,,,,,,,,,,,,,,,,,
,,,,,,,,2023-08-16_08h30.11.489,HF_wild_card,2022.2.4,MacIntel,60.0024001,5c3121af8c6d820001abed8e,64d2fd46c836a06233681665,64dc7af7af547a8081be8950,,,,,,,,,,,,,,,,,,,,,,,,,,,,,,,,55,WC_nonExtreme,resources/DP.BMP,3,0,3,0,1,,,,,,,,,,,,,,,,,,,,,,,,,
