Condition,Low fixed image (Door1),Low risky image (Door2),High fixed image (Door3),High risky image (Door4),Extreme Wild Card,NonExtreme Wild Card,,date,expName,psychopyVersion,OS,frameRate,PROLIFIC_PID,STUDY_ID,SESSION_ID,mouse_2.x,mouse_2.y,mouse_2.leftButton,mouse_2.midButton,mouse_2.rightButton,mouse_2.clicked_name,Trial Type,Left Option Image,Right Option Image,Chosen Door,mouse.x,mouse.y,mouse.leftButton,mouse.midButton,mouse.rightButton,mouse.time,mouse.clicked_name,Feedback,Cumulative Reward,Block,trial.thisRepN,trial.thisTrialN,trial.thisN,trial.thisIndex,trial.ran,blocks.thisRepN,blocks.thisTrialN,blocks.thisN,blocks.thisIndex,blocks.ran,Money conversion,First Outcome Reported,Shown Door (First Outcome),Displayed Image (First Outcome),outcomes.thisRepN,outcomes.thisTrialN,outcomes.thisN,outcomes.thisIndex,outcomes.ran,judgments.thisRepN,judgments.thisTrialN,judgments.thisN,judgments.thisIndex,judgments.ran,freqMouse.x,freqMouse.y,freqMouse.leftButton,freqMouse.midButton,freqMouse.rightButton,freqMouse.clicked_name,FQJ for first outcome,FQJ for second outcome,Shown Door,Displayed Image,trials.thisRepN,trials.thisTrialN,trials.thisN,trials.thisIndex,trials.ran,judgBlock.thisRepN,judgBlock.thisTrialN,judgBlock.thisN,judgBlock.thisIndex,judgBlock.ran
0,resources/DR.BMP,resources/DBN.BMP,resources/DP.BMP,resources/DB.BMP,resources/DY.BMP,resources/DG.BMP,,2023-08-16_08h41.44.582,HF_wild_card,2022.2.4,Win32,59.93407252,636a30e7ba4faca50bd10fcf,64d2fd46c836a06233681665,64dc7da1e5aeabc44b864767,,,,,,,,,,,,,,,,,,,,,,,,,,,,,,,,,,,,,,,,,,,,,,,,,,,,,,,,,,,,,,,,
,,,,,,,,2023-08-16_08h41.44.582,HF_wild_card,2022.2.4,Win32,59.93407252,636a30e7ba4faca50bd10fcf,64d2fd46c836a06233681665,64dc7da1e5aeabc44b864767,0.016875,-0.42125,1,0,0,agree,,,,,,,,,,,,,,,,,,,,,,,,,,,,,,,,,,,,,,,,,,,,,,,,,,,,,,,,,,
,,,,,,,,2023-08-16_08h41.44.582,HF_wild_card,2022.2.4,Win32,59.93407252,636a30e7ba4faca50bd10fcf,64d2fd46c836a06233681665,64dc7da1e5aeabc44b864767,,,,,,,,,,,,,,,,,,,,,,,,,,,,,,,,,,,,,,,,,,,,,,,,,,,,,,,,,,,,,,,,
,,,,,,,,2023-08-16_08h41.44.582,HF_wild_card,2022.2.4,Win32,59.93407252,636a30e7ba4faca50bd10fcf,64d2fd46c836a06233681665,64dc7da1e5aeabc44b864767,,,,,,,sngl,resources/Empty.png,resources/DY.BMP,WildCard_Ex,0.423125,-0.015,1,0,0,6.0327,optionRight,95,95,1,0,0,0,0,1,,,,,,,,,,,,,,,,,,,,,,,,,,,,,,,,,,,,,,,
,,,,,,,,2023-08-16_08h41.44.582,HF_wild_card,2022.2.4,Win32,59.93407252,636a30e7ba4faca50bd10fcf,64d2fd46c836a06233681665,64dc7da1e5aeabc44b864767,,,,,,,decisionTrl,resources/DBN.BMP,resources/DR.BMP,Door1,0.3175,0.0025,1,0,0,6.5407,optionRight,30,125,1,1,0,1,0,1,,,,,,,,,,,,,,,,,,,,,,,,,,,,,,,,,,,,,,,
,,,,,,,,2023-08-16_08h41.44.582,HF_wild_card,2022.2.4,Win32,59.93407252,636a30e7ba4faca50bd10fcf,64d2fd46c836a06233681665,64dc7da1e5aeabc44b864767,,,,,,,decisionTrl,resources/DB.BMP,resources/DP.BMP,Door3,0.309375,-0.059375,1,0,0,3.4527,optionRight,70,195,1,2,0,2,0,1,,,,,,,,,,,,,,,,,,,,,,,,,,,,,,,,,,,,,,,
,,,,,,,,2023-08-16_08h41.44.582,HF_wild_card,2022.2.4,Win32,59.93407252,636a30e7ba4faca50bd10fcf,64d2fd46c836a06233681665,64dc7da1e5aeabc44b864767,,,,,,,ctch,resources/DR.BMP,resources/DB.BMP,Door1,-0.299375,-0.02125,1,0,0,4.2454,optionLeft,30,225,1,3,0,3,0,1,,,,,,,,,,,,,,,,,,,,,,,,,,,,,,,,,,,,,,,
,,,,,,,,2023-08-16_08h41.44.582,HF_wild_card,2022.2.4,Win32,59.93407252,636a30e7ba4faca50bd10fcf,64d2fd46c836a06233681665,64dc7da1e5aeabc44b864767,,,,,,,decisionTrl,resources/DR.BMP,resources/DBN.BMP,Door1,-0.334375,-0.058125,1,0,0,2.1619,optionLeft,30,255,1,4,0,4,0,1,,,,,,,,,,,,,,,,,,,,,,,,,,,,,,,,,,,,,,,
,,,,,,,,2023-08-16_08h41.44.582,HF_wild_card,2022.2.4,Win32,59.93407252,636a30e7ba4faca50bd10fcf,64d2fd46c836a06233681665,64dc7da1e5aeabc44b864767,,,,,,,decisionTrl,resources/DBN.BMP,resources/DR.BMP,Door1,0.31125,-0.054375,1,0,0,2.512,optionRight,30,285,1,5,0,5,0,1,,,,,,,,,,,,,,,,,,,,,,,,,,,,,,,,,,,,,,,
,,,,,,,,2023-08-16_08h41.44.582,HF_wild_card,2022.2.4,Win32,59.93407252,636a30e7ba4faca50bd10fcf,64d2fd46c836a06233681665,64dc7da1e5aeabc44b864767,,,,,,,decisionTrl,resources/DB.BMP,resources/DY.BMP,WildCard_Ex,0.28375,0.005625,1,0,0,1.6612,optionRight,5,290,1,6,0,6,0,1,,,,,,,,,,,,,,,,,,,,,,,,,,,,,,,,,,,,,,,
,,,,,,,,2023-08-16_08h41.44.582,HF_wild_card,2022.2.4,Win32,59.93407252,636a30e7ba4faca50bd10fcf,64d2fd46c836a06233681665,64dc7da1e5aeabc44b864767,,,,,,,sngl,resources/DBN.BMP,resources/Empty.png,Door2,-0.41625,-0.011875,1,0,0,1.8446,optionLeft,40,330,1,7,0,7,0,1,,,,,,,,,,,,,,,,,,,,,,,,,,,,,,,,,,,,,,,
,,,,,,,,2023-08-16_08h41.44.582,HF_wild_card,2022.2.4,Win32,59.93407252,636a30e7ba4faca50bd10fcf,64d2fd46c836a06233681665,64dc7da1e5aeabc44b864767,,,,,,,decisionTrl,resources/DY.BMP,resources/DP.BMP,Door3,0.38,-0.025625,1,0,0,3.1121,optionRight,70,400,1,8,0,8,0,1,,,,,,,,,,,,,,,,,,,,,,,,,,,,,,,,,,,,,,,
,,,,,,,,2023-08-16_08h41.44.582,HF_wild_card,2022.2.4,Win32,59.93407252,636a30e7ba4faca50bd10fcf,64d2fd46c836a06233681665,64dc7da1e5aeabc44b864767,,,,,,,sngl,resources/Empty.png,resources/DR.BMP,Door1,0.17375,-0.015,1,0,0,1.5954,optionRight,30,430,1,9,0,9,0,1,,,,,,,,,,,,,,,,,,,,,,,,,,,,,,,,,,,,,,,
,,,,,,,,2023-08-16_08h41.44.582,HF_wild_card,2022.2.4,Win32,59.93407252,636a30e7ba4faca50bd10fcf,64d2fd46c836a06233681665,64dc7da1e5aeabc44b864767,,,,,,,decisionTrl,resources/DB.BMP,resources/DP.BMP,Door3,0.268125,-0.01375,1,0,0,1.8226,optionRight,70,500,1,10,0,10,0,1,,,,,,,,,,,,,,,,,,,,,,,,,,,,,,,,,,,,,,,
,,,,,,,,2023-08-16_08h41.44.582,HF_wild_card,2022.2.4,Win32,59.93407252,636a30e7ba4faca50bd10fcf,64d2fd46c836a06233681665,64dc7da1e5aeabc44b864767,,,,,,,decisionTrl,resources/DB.BMP,resources/DP.BMP,Door3,0.315625,-0.044375,1,0,0,1.1752,optionRight,70,570,1,11,0,11,0,1,,,,,,,,,,,,,,,,,,,,,,,,,,,,,,,,,,,,,,,
,,,,,,,,2023-08-16_08h41.44.582,HF_wild_card,2022.2.4,Win32,59.93407252,636a30e7ba4faca50bd10fcf,64d2fd46c836a06233681665,64dc7da1e5aeabc44b864767,,,,,,,decisionTrl,resources/DB.BMP,resources/DP.BMP,Door3,0.361875,-0.053125,1,0,0,1.0628,optionRight,70,640,1,12,0,12,0,1,,,,,,,,,,,,,,,,,,,,,,,,,,,,,,,,,,,,,,,
,,,,,,,,2023-08-16_08h41.44.582,HF_wild_card,2022.2.4,Win32,59.93407252,636a30e7ba4faca50bd10fcf,64d2fd46c836a06233681665,64dc7da1e5aeabc44b864767,,,,,,,decisionTrl,resources/DP.BMP,resources/DB.BMP,Door3,-0.40625,-0.053125,1,0,0,1.5808,optionLeft,70,710,1,13,0,13,0,1,,,,,,,,,,,,,,,,,,,,,,,,,,,,,,,,,,,,,,,
,,,,,,,,2023-08-16_08h41.44.582,HF_wild_card,2022.2.4,Win32,59.93407252,636a30e7ba4faca50bd10fcf,64d2fd46c836a06233681665,64dc7da1e5aeabc44b864767,,,,,,,sngl,resources/DB.BMP,resources/Empty.png,Door4,-0.321875,-0.041875,1,0,0,1.6387,optionLeft,80,790,1,14,0,14,0,1,,,,,,,,,,,,,,,,,,,,,,,,,,,,,,,,,,,,,,,
,,,,,,,,2023-08-16_08h41.44.582,HF_wild_card,2022.2.4,Win32,59.93407252,636a30e7ba4faca50bd10fcf,64d2fd46c836a06233681665,64dc7da1e5aeabc44b864767,,,,,,,decisionTrl,resources/DP.BMP,resources/DY.BMP,WildCard_Ex,0.380625,0.00125,1,0,0,3.6314,optionRight,95,885,1,15,0,15,0,1,,,,,,,,,,,,,,,,,,,,,,,,,,,,,,,,,,,,,,,
,,,,,,,,2023-08-16_08h41.44.582,HF_wild_card,2022.2.4,Win32,59.93407252,636a30e7ba4faca50bd10fcf,64d2fd46c836a06233681665,64dc7da1e5aeabc44b864767,,,,,,,decisionTrl,resources/DR.BMP,resources/DBN.BMP,Door1,-0.35875,-0.03875,1,0,0,3.618,optionLeft,30,915,1,16,0,16,0,1,,,,,,,,,,,,,,,,,,,,,,,,,,,,,,,,,,,,,,,
,,,,,,,,2023-08-16_08h41.44.582,HF_wild_card,2022.2.4,Win32,59.93407252,636a30e7ba4faca50bd10fcf,64d2fd46c836a06233681665,64dc7da1e5aeabc44b864767,,,,,,,sngl,resources/Empty.png,resources/DBN.BMP,Door2,0.27625,0.016875,1,0,0,1.2116,optionRight,20,935,1,17,0,17,0,1,,,,,,,,,,,,,,,,,,,,,,,,,,,,,,,,,,,,,,,
,,,,,,,,2023-08-16_08h41.44.582,HF_wild_card,2022.2.4,Win32,59.93407252,636a30e7ba4faca50bd10fcf,64d2fd46c836a06233681665,64dc7da1e5aeabc44b864767,,,,,,,sngl,resources/Empty.png,resources/DB.BMP,Door4,0.21375,-0.015,1,0,0,1.5308,optionRight,60,995,1,18,0,18,0,1,,,,,,,,,,,,,,,,,,,,,,,,,,,,,,,,,,,,,,,
,,,,,,,,2023-08-16_08h41.44.582,HF_wild_card,2022.2.4,Win32,59.93407252,636a30e7ba4faca50bd10fcf,64d2fd46c836a06233681665,64dc7da1e5aeabc44b864767,,,,,,,decisionTrl,resources/DBN.BMP,resources/DR.BMP,Door2,-0.33125,-0.0025,1,0,0,1.7999,optionLeft,40,1035,1,19,0,19,0,1,,,,,,,,,,,,,,,,,,,,,,,,,,,,,,,,,,,,,,,
,,,,,,,,2023-08-16_08h41.44.582,HF_wild_card,2022.2.4,Win32,59.93407252,636a30e7ba4faca50bd10fcf,64d2fd46c836a06233681665,64dc7da1e5aeabc44b864767,,,,,,,ctch,resources/DB.BMP,resources/DR.BMP,Door4,-0.303125,-0.035,1,0,0,4.2824,optionLeft,80,1115,1,20,0,20,0,1,,,,,,,,,,,,,,,,,,,,,,,,,,,,,,,,,,,,,,,
,,,,,,,,2023-08-16_08h41.44.582,HF_wild_card,2022.2.4,Win32,59.93407252,636a30e7ba4faca50bd10fcf,64d2fd46c836a06233681665,64dc7da1e5aeabc44b864767,,,,,,,decisionTrl,resources/DBN.BMP,resources/DR.BMP,Door1,0.22375,-0.01,1,0,0,3.8097,optionRight,30,1145,1,21,0,21,0,1,,,,,,,,,,,,,,,,,,,,,,,,,,,,,,,,,,,,,,,
,,,,,,,,2023-08-16_08h41.44.582,HF_wild_card,2022.2.4,Win32,59.93407252,636a30e7ba4faca50bd10fcf,64d2fd46c836a06233681665,64dc7da1e5aeabc44b864767,,,,,,,decisionTrl,resources/DP.BMP,resources/DB.BMP,Door3,-0.41375,-0.02875,1,0,0,1.434,optionLeft,70,1215,1,22,0,22,0,1,,,,,,,,,,,,,,,,,,,,,,,,,,,,,,,,,,,,,,,
,,,,,,,,2023-08-16_08h41.44.582,HF_wild_card,2022.2.4,Win32,59.93407252,636a30e7ba4faca50bd10fcf,64d2fd46c836a06233681665,64dc7da1e5aeabc44b864767,,,,,,,decisionTrl,resources/DR.BMP,resources/DY.BMP,WildCard_Ex,0.425625,0.006875,1,0,0,5.1403,optionRight,5,1220,1,23,0,23,0,1,,,,,,,,,,,,,,,,,,,,,,,,,,,,,,,,,,,,,,,
,,,,,,,,2023-08-16_08h41.44.582,HF_wild_card,2022.2.4,Win32,59.93407252,636a30e7ba4faca50bd10fcf,64d2fd46c836a06233681665,64dc7da1e5aeabc44b864767,,,,,,,decisionTrl,resources/DY.BMP,resources/DB.BMP,WildCard_Ex,-0.336875,-0.033125,1,0,0,2.727,optionLeft,95,1315,1,24,0,24,0,1,,,,,,,,,,,,,,,,,,,,,,,,,,,,,,,,,,,,,,,
,,,,,,,,2023-08-16_08h41.44.582,HF_wild_card,2022.2.4,Win32,59.93407252,636a30e7ba4faca50bd10fcf,64d2fd46c836a06233681665,64dc7da1e5aeabc44b864767,,,,,,,decisionTrl,resources/DR.BMP,resources/DBN.BMP,Door1,-0.29625,-0.035,1,0,0,3.811,optionLeft,30,1345,1,25,0,25,0,1,,,,,,,,,,,,,,,,,,,,,,,,,,,,,,,,,,,,,,,
,,,,,,,,2023-08-16_08h41.44.582,HF_wild_card,2022.2.4,Win32,59.93407252,636a30e7ba4faca50bd10fcf,64d2fd46c836a06233681665,64dc7da1e5aeabc44b864767,,,,,,,decisionTrl,resources/DY.BMP,resources/DBN.BMP,WildCard_Ex,-0.275,-0.04375,1,0,0,1.7607,optionLeft,5,1350,1,26,0,26,0,1,,,,,,,,,,,,,,,,,,,,,,,,,,,,,,,,,,,,,,,
,,,,,,,,2023-08-16_08h41.44.582,HF_wild_card,2022.2.4,Win32,59.93407252,636a30e7ba4faca50bd10fcf,64d2fd46c836a06233681665,64dc7da1e5aeabc44b864767,,,,,,,ctch,resources/DBN.BMP,resources/DP.BMP,Door3,0.314375,-0.000625,1,0,0,1.5443,optionRight,70,1420,1,27,0,27,0,1,,,,,,,,,,,,,,,,,,,,,,,,,,,,,,,,,,,,,,,
,,,,,,,,2023-08-16_08h41.44.582,HF_wild_card,2022.2.4,Win32,59.93407252,636a30e7ba4faca50bd10fcf,64d2fd46c836a06233681665,64dc7da1e5aeabc44b864767,,,,,,,ctch,resources/DP.BMP,resources/DBN.BMP,Door2,0.18125,-0.005,1,0,0,1.7795,optionRight,40,1460,1,28,0,28,0,1,,,,,,,,,,,,,,,,,,,,,,,,,,,,,,,,,,,,,,,
,,,,,,,,2023-08-16_08h41.44.582,HF_wild_card,2022.2.4,Win32,59.93407252,636a30e7ba4faca50bd10fcf,64d2fd46c836a06233681665,64dc7da1e5aeabc44b864767,,,,,,,decisionTrl,resources/DP.BMP,resources/DB.BMP,Door4,0.239375,0.003125,1,0,0,2.4298,optionRight,80,1540,1,29,0,29,0,1,,,,,,,,,,,,,,,,,,,,,,,,,,,,,,,,,,,,,,,
,,,,,,,,2023-08-16_08h41.44.582,HF_wild_card,2022.2.4,Win32,59.93407252,636a30e7ba4faca50bd10fcf,64d2fd46c836a06233681665,64dc7da1e5aeabc44b864767,,,,,,,ctch,resources/DR.BMP,resources/DB.BMP,Door4,0.376875,0.025625,1,0,0,1.8854,optionRight,60,1600,1,30,0,30,0,1,,,,,,,,,,,,,,,,,,,,,,,,,,,,,,,,,,,,,,,
,,,,,,,,2023-08-16_08h41.44.582,HF_wild_card,2022.2.4,Win32,59.93407252,636a30e7ba4faca50bd10fcf,64d2fd46c836a06233681665,64dc7da1e5aeabc44b864767,,,,,,,sngl,resources/DY.BMP,resources/Empty.png,WildCard_Ex,-0.358125,-0.028125,1,0,0,1.095,optionLeft,95,1695,1,31,0,31,0,1,,,,,,,,,,,,,,,,,,,,,,,,,,,,,,,,,,,,,,,
,,,,,,,,2023-08-16_08h41.44.582,HF_wild_card,2022.2.4,Win32,59.93407252,636a30e7ba4faca50bd10fcf,64d2fd46c836a06233681665,64dc7da1e5aeabc44b864767,,,,,,,sngl,resources/DY.BMP,resources/Empty.png,WildCard_Ex,-0.2725,-0.029375,1,0,0,0.9802,optionLeft,5,1700,1,32,0,32,0,1,,,,,,,,,,,,,,,,,,,,,,,,,,,,,,,,,,,,,,,
,,,,,,,,2023-08-16_08h41.44.582,HF_wild_card,2022.2.4,Win32,59.93407252,636a30e7ba4faca50bd10fcf,64d2fd46c836a06233681665,64dc7da1e5aeabc44b864767,,,,,,,decisionTrl,resources/DBN.BMP,resources/DY.BMP,WildCard_Ex,0.253125,0.030625,1,0,0,1.7704,optionRight,95,1795,1,33,0,33,0,1,,,,,,,,,,,,,,,,,,,,,,,,,,,,,,,,,,,,,,,
,,,,,,,,2023-08-16_08h41.44.582,HF_wild_card,2022.2.4,Win32,59.93407252,636a30e7ba4faca50bd10fcf,64d2fd46c836a06233681665,64dc7da1e5aeabc44b864767,,,,,,,ctch,resources/DBN.BMP,resources/DP.BMP,Door2,-0.288125,-0.018125,1,0,0,2.0931,optionLeft,20,1815,1,34,0,34,0,1,,,,,,,,,,,,,,,,,,,,,,,,,,,,,,,,,,,,,,,
,,,,,,,,2023-08-16_08h41.44.582,HF_wild_card,2022.2.4,Win32,59.93407252,636a30e7ba4faca50bd10fcf,64d2fd46c836a06233681665,64dc7da1e5aeabc44b864767,,,,,,,sngl,resources/Empty.png,resources/DP.BMP,Door3,0.326875,-0.01375,1,0,0,1.1456,optionRight,70,1885,1,35,0,35,0,1,,,,,,,,,,,,,,,,,,,,,,,,,,,,,,,,,,,,,,,
,,,,,,,,2023-08-16_08h41.44.582,HF_wild_card,2022.2.4,Win32,59.93407252,636a30e7ba4faca50bd10fcf,64d2fd46c836a06233681665,64dc7da1e5aeabc44b864767,,,,,,,decisionTrl,resources/DY.BMP,resources/DR.BMP,Door1,0.11,-0.0175,1,0,0,2.5305,optionRight,30,1915,1,36,0,36,0,1,,,,,,,,,,,,,,,,,,,,,,,,,,,,,,,,,,,,,,,
,,,,,,,,2023-08-16_08h41.44.582,HF_wild_card,2022.2.4,Win32,59.93407252,636a30e7ba4faca50bd10fcf,64d2fd46c836a06233681665,64dc7da1e5aeabc44b864767,,,,,,,ctch,resources/DB.BMP,resources/DR.BMP,Door1,0.24375,0.006875,1,0,0,2.1618,optionRight,30,1945,1,37,0,37,0,1,,,,,,,,,,,,,,,,,,,,,,,,,,,,,,,,,,,,,,,
,,,,,,,,2023-08-16_08h41.44.582,HF_wild_card,2022.2.4,Win32,59.93407252,636a30e7ba4faca50bd10fcf,64d2fd46c836a06233681665,64dc7da1e5aeabc44b864767,,,,,,,decisionTrl,resources/DR.BMP,resources/DBN.BMP,Door1,-0.341875,-0.020625,1,0,0,1.814,optionLeft,30,1975,1,38,0,38,0,1,,,,,,,,,,,,,,,,,,,,,,,,,,,,,,,,,,,,,,,
,,,,,,,,2023-08-16_08h41.44.582,HF_wild_card,2022.2.4,Win32,59.93407252,636a30e7ba4faca50bd10fcf,64d2fd46c836a06233681665,64dc7da1e5aeabc44b864767,,,,,,,sngl,resources/DR.BMP,resources/Empty.png,Door1,-0.384375,-0.0325,1,0,0,1.069,optionLeft,30,2005,1,39,0,39,0,1,,,,,,,,,,,,,,,,,,,,,,,,,,,,,,,,,,,,,,,
,,,,,,,,2023-08-16_08h41.44.582,HF_wild_card,2022.2.4,Win32,59.93407252,636a30e7ba4faca50bd10fcf,64d2fd46c836a06233681665,64dc7da1e5aeabc44b864767,,,,,,,sngl,resources/Empty.png,resources/DY.BMP,WildCard_Ex,0.15875,-0.01,1,0,0,0.8964,optionRight,5,2010,1,40,0,40,0,1,,,,,,,,,,,,,,,,,,,,,,,,,,,,,,,,,,,,,,,
,,,,,,,,2023-08-16_08h41.44.582,HF_wild_card,2022.2.4,Win32,59.93407252,636a30e7ba4faca50bd10fcf,64d2fd46c836a06233681665,64dc7da1e5aeabc44b864767,,,,,,,sngl,resources/DP.BMP,resources/Empty.png,Door3,-0.32625,-0.021875,1,0,0,0.9611,optionLeft,70,2080,1,41,0,41,0,1,,,,,,,,,,,,,,,,,,,,,,,,,,,,,,,,,,,,,,,
,,,,,,,,2023-08-16_08h41.44.582,HF_wild_card,2022.2.4,Win32,59.93407252,636a30e7ba4faca50bd10fcf,64d2fd46c836a06233681665,64dc7da1e5aeabc44b864767,,,,,,,ctch,resources/DP.BMP,resources/DBN.BMP,Door3,-0.3725,-0.03875,1,0,0,3.3195,optionLeft,70,2150,1,42,0,42,0,1,,,,,,,,,,,,,,,,,,,,,,,,,,,,,,,,,,,,,,,
,,,,,,,,2023-08-16_08h41.44.582,HF_wild_card,2022.2.4,Win32,59.93407252,636a30e7ba4faca50bd10fcf,64d2fd46c836a06233681665,64dc7da1e5aeabc44b864767,,,,,,,decisionTrl,resources/DP.BMP,resources/DB.BMP,Door4,0.254375,-0.010625,1,0,0,1.8464,optionRight,60,2210,1,43,0,43,0,1,,,,,,,,,,,,,,,,,,,,,,,,,,,,,,,,,,,,,,,
,,,,,,,,2023-08-16_08h41.44.582,HF_wild_card,2022.2.4,Win32,59.93407252,636a30e7ba4faca50bd10fcf,64d2fd46c836a06233681665,64dc7da1e5aeabc44b864767,,,,,,,,,,,,,,,,,,,,,,,,,,0,0,0,0,1,,,,,,,,,,,,,,,,,,,,,,,,,,,,,,,,,,
,,,,,,,,2023-08-16_08h41.44.582,HF_wild_card,2022.2.4,Win32,59.93407252,636a30e7ba4faca50bd10fcf,64d2fd46c836a06233681665,64dc7da1e5aeabc44b864767,,,,,,,ctch,resources/DP.BMP,resources/DBN.BMP,Door2,0.324375,-0.046875,1,0,0,3.2333,optionRight,40,2250,2,0,0,0,0,1,,,,,,,,,,,,,,,,,,,,,,,,,,,,,,,,,,,,,,,
,,,,,,,,2023-08-16_08h41.44.582,HF_wild_card,2022.2.4,Win32,59.93407252,636a30e7ba4faca50bd10fcf,64d2fd46c836a06233681665,64dc7da1e5aeabc44b864767,,,,,,,sngl,resources/Empty.png,resources/DR.BMP,Door1,0.41,0.015625,1,0,0,1.1125,optionRight,30,2280,2,1,0,1,0,1,,,,,,,,,,,,,,,,,,,,,,,,,,,,,,,,,,,,,,,
,,,,,,,,2023-08-16_08h41.44.582,HF_wild_card,2022.2.4,Win32,59.93407252,636a30e7ba4faca50bd10fcf,64d2fd46c836a06233681665,64dc7da1e5aeabc44b864767,,,,,,,decisionTrl,resources/DR.BMP,resources/DY.BMP,WildCard_Ex,0.231875,0.0075,1,0,0,2.2346,optionRight,5,2285,2,2,0,2,0,1,,,,,,,,,,,,,,,,,,,,,,,,,,,,,,,,,,,,,,,
,,,,,,,,2023-08-16_08h41.44.582,HF_wild_card,2022.2.4,Win32,59.93407252,636a30e7ba4faca50bd10fcf,64d2fd46c836a06233681665,64dc7da1e5aeabc44b864767,,,,,,,decisionTrl,resources/DR.BMP,resources/DBN.BMP,Door1,-0.26625,-0.049375,1,0,0,1.6295,optionLeft,30,2315,2,3,0,3,0,1,,,,,,,,,,,,,,,,,,,,,,,,,,,,,,,,,,,,,,,
,,,,,,,,2023-08-16_08h41.44.582,HF_wild_card,2022.2.4,Win32,59.93407252,636a30e7ba4faca50bd10fcf,64d2fd46c836a06233681665,64dc7da1e5aeabc44b864767,,,,,,,sngl,resources/DR.BMP,resources/Empty.png,Door1,-0.215625,-0.035625,1,0,0,1.7796,optionLeft,30,2345,2,4,0,4,0,1,,,,,,,,,,,,,,,,,,,,,,,,,,,,,,,,,,,,,,,
,,,,,,,,2023-08-16_08h41.44.582,HF_wild_card,2022.2.4,Win32,59.93407252,636a30e7ba4faca50bd10fcf,64d2fd46c836a06233681665,64dc7da1e5aeabc44b864767,,,,,,,decisionTrl,resources/DBN.BMP,resources/DR.BMP,Door2,-0.36875,0.005,1,0,0,2.5297,optionLeft,40,2385,2,5,0,5,0,1,,,,,,,,,,,,,,,,,,,,,,,,,,,,,,,,,,,,,,,
,,,,,,,,2023-08-16_08h41.44.582,HF_wild_card,2022.2.4,Win32,59.93407252,636a30e7ba4faca50bd10fcf,64d2fd46c836a06233681665,64dc7da1e5aeabc44b864767,,,,,,,decisionTrl,resources/DP.BMP,resources/DB.BMP,Door4,0.26625,0.000625,1,0,0,2.3303,optionRight,60,2445,2,6,0,6,0,1,,,,,,,,,,,,,,,,,,,,,,,,,,,,,,,,,,,,,,,
,,,,,,,,2023-08-16_08h41.44.582,HF_wild_card,2022.2.4,Win32,59.93407252,636a30e7ba4faca50bd10fcf,64d2fd46c836a06233681665,64dc7da1e5aeabc44b864767,,,,,,,ctch,resources/DP.BMP,resources/DBN.BMP,Door3,-0.359375,0.0325,1,0,0,1.5723,optionLeft,70,2515,2,7,0,7,0,1,,,,,,,,,,,,,,,,,,,,,,,,,,,,,,,,,,,,,,,
,,,,,,,,2023-08-16_08h41.44.582,HF_wild_card,2022.2.4,Win32,59.93407252,636a30e7ba4faca50bd10fcf,64d2fd46c836a06233681665,64dc7da1e5aeabc44b864767,,,,,,,decisionTrl,resources/DY.BMP,resources/DP.BMP,Door3,0.329375,-0.025625,1,0,0,1.0111,optionRight,70,2585,2,8,0,8,0,1,,,,,,,,,,,,,,,,,,,,,,,,,,,,,,,,,,,,,,,
,,,,,,,,2023-08-16_08h41.44.582,HF_wild_card,2022.2.4,Win32,59.93407252,636a30e7ba4faca50bd10fcf,64d2fd46c836a06233681665,64dc7da1e5aeabc44b864767,,,,,,,sngl,resources/DY.BMP,resources/Empty.png,WildCard_Ex,-0.3375,0.04,1,0,0,0.8974,optionLeft,5,2590,2,9,0,9,0,1,,,,,,,,,,,,,,,,,,,,,,,,,,,,,,,,,,,,,,,
,,,,,,,,2023-08-16_08h41.44.582,HF_wild_card,2022.2.4,Win32,59.93407252,636a30e7ba4faca50bd10fcf,64d2fd46c836a06233681665,64dc7da1e5aeabc44b864767,,,,,,,sngl,resources/Empty.png,resources/DY.BMP,WildCard_Ex,0.27375,0.020625,1,0,0,1.3643,optionRight,5,2595,2,10,0,10,0,1,,,,,,,,,,,,,,,,,,,,,,,,,,,,,,,,,,,,,,,
,,,,,,,,2023-08-16_08h41.44.582,HF_wild_card,2022.2.4,Win32,59.93407252,636a30e7ba4faca50bd10fcf,64d2fd46c836a06233681665,64dc7da1e5aeabc44b864767,,,,,,,sngl,resources/DBN.BMP,resources/Empty.png,Door2,-0.313125,0.050625,1,0,0,1.114,optionLeft,20,2615,2,11,0,11,0,1,,,,,,,,,,,,,,,,,,,,,,,,,,,,,,,,,,,,,,,
,,,,,,,,2023-08-16_08h41.44.582,HF_wild_card,2022.2.4,Win32,59.93407252,636a30e7ba4faca50bd10fcf,64d2fd46c836a06233681665,64dc7da1e5aeabc44b864767,,,,,,,decisionTrl,resources/DBN.BMP,resources/DR.BMP,Door1,0.30625,0.03,1,0,0,1.5634,optionRight,30,2645,2,12,0,12,0,1,,,,,,,,,,,,,,,,,,,,,,,,,,,,,,,,,,,,,,,
,,,,,,,,2023-08-16_08h41.44.582,HF_wild_card,2022.2.4,Win32,59.93407252,636a30e7ba4faca50bd10fcf,64d2fd46c836a06233681665,64dc7da1e5aeabc44b864767,,,,,,,decisionTrl,resources/DB.BMP,resources/DP.BMP,Door3,0.21625,0.015,1,0,0,1.3137,optionRight,70,2715,2,13,0,13,0,1,,,,,,,,,,,,,,,,,,,,,,,,,,,,,,,,,,,,,,,
,,,,,,,,2023-08-16_08h41.44.582,HF_wild_card,2022.2.4,Win32,59.93407252,636a30e7ba4faca50bd10fcf,64d2fd46c836a06233681665,64dc7da1e5aeabc44b864767,,,,,,,decisionTrl,resources/DP.BMP,resources/DB.BMP,Door3,-0.37625,-0.004375,1,0,0,1.0142,optionLeft,70,2785,2,14,0,14,0,1,,,,,,,,,,,,,,,,,,,,,,,,,,,,,,,,,,,,,,,
,,,,,,,,2023-08-16_08h41.44.582,HF_wild_card,2022.2.4,Win32,59.93407252,636a30e7ba4faca50bd10fcf,64d2fd46c836a06233681665,64dc7da1e5aeabc44b864767,,,,,,,sngl,resources/DB.BMP,resources/Empty.png,Door4,-0.205,0.008125,1,0,0,1.3147,optionLeft,60,2845,2,15,0,15,0,1,,,,,,,,,,,,,,,,,,,,,,,,,,,,,,,,,,,,,,,
,,,,,,,,2023-08-16_08h41.44.582,HF_wild_card,2022.2.4,Win32,59.93407252,636a30e7ba4faca50bd10fcf,64d2fd46c836a06233681665,64dc7da1e5aeabc44b864767,,,,,,,decisionTrl,resources/DBN.BMP,resources/DR.BMP,Door1,0.40625,0.01625,1,0,0,2.7455,optionRight,30,2875,2,16,0,16,0,1,,,,,,,,,,,,,,,,,,,,,,,,,,,,,,,,,,,,,,,
,,,,,,,,2023-08-16_08h41.44.582,HF_wild_card,2022.2.4,Win32,59.93407252,636a30e7ba4faca50bd10fcf,64d2fd46c836a06233681665,64dc7da1e5aeabc44b864767,,,,,,,decisionTrl,resources/DR.BMP,resources/DBN.BMP,Door2,0.4,0.02875,1,0,0,1.9307,optionRight,40,2915,2,17,0,17,0,1,,,,,,,,,,,,,,,,,,,,,,,,,,,,,,,,,,,,,,,
,,,,,,,,2023-08-16_08h41.44.582,HF_wild_card,2022.2.4,Win32,59.93407252,636a30e7ba4faca50bd10fcf,64d2fd46c836a06233681665,64dc7da1e5aeabc44b864767,,,,,,,sngl,resources/DY.BMP,resources/Empty.png,WildCard_Ex,-0.365625,0.011875,1,0,0,1.1437,optionLeft,95,3010,2,18,0,18,0,1,,,,,,,,,,,,,,,,,,,,,,,,,,,,,,,,,,,,,,,
,,,,,,,,2023-08-16_08h41.44.582,HF_wild_card,2022.2.4,Win32,59.93407252,636a30e7ba4faca50bd10fcf,64d2fd46c836a06233681665,64dc7da1e5aeabc44b864767,,,,,,,ctch,resources/DBN.BMP,resources/DP.BMP,Door2,-0.284375,0.013125,1,0,0,1.9124,optionLeft,20,3030,2,19,0,19,0,1,,,,,,,,,,,,,,,,,,,,,,,,,,,,,,,,,,,,,,,
,,,,,,,,2023-08-16_08h41.44.582,HF_wild_card,2022.2.4,Win32,59.93407252,636a30e7ba4faca50bd10fcf,64d2fd46c836a06233681665,64dc7da1e5aeabc44b864767,,,,,,,decisionTrl,resources/DP.BMP,resources/DB.BMP,Door4,0.245,-0.019375,1,0,0,1.5277,optionRight,80,3110,2,20,0,20,0,1,,,,,,,,,,,,,,,,,,,,,,,,,,,,,,,,,,,,,,,
,,,,,,,,2023-08-16_08h41.44.582,HF_wild_card,2022.2.4,Win32,59.93407252,636a30e7ba4faca50bd10fcf,64d2fd46c836a06233681665,64dc7da1e5aeabc44b864767,,,,,,,decisionTrl,resources/DY.BMP,resources/DB.BMP,WildCard_Ex,-0.348125,0.008125,1,0,0,1.9945,optionLeft,5,3115,2,21,0,21,0,1,,,,,,,,,,,,,,,,,,,,,,,,,,,,,,,,,,,,,,,
,,,,,,,,2023-08-16_08h41.44.582,HF_wild_card,2022.2.4,Win32,59.93407252,636a30e7ba4faca50bd10fcf,64d2fd46c836a06233681665,64dc7da1e5aeabc44b864767,,,,,,,decisionTrl,resources/DBN.BMP,resources/DR.BMP,Door2,-0.3975,0.04875,1,0,0,1.0604,optionLeft,20,3135,2,22,0,22,0,1,,,,,,,,,,,,,,,,,,,,,,,,,,,,,,,,,,,,,,,
,,,,,,,,2023-08-16_08h41.44.582,HF_wild_card,2022.2.4,Win32,59.93407252,636a30e7ba4faca50bd10fcf,64d2fd46c836a06233681665,64dc7da1e5aeabc44b864767,,,,,,,decisionTrl,resources/DB.BMP,resources/DP.BMP,Door4,-0.345625,0.00875,1,0,0,1.7451,optionLeft,80,3215,2,23,0,23,0,1,,,,,,,,,,,,,,,,,,,,,,,,,,,,,,,,,,,,,,,
,,,,,,,,2023-08-16_08h41.44.582,HF_wild_card,2022.2.4,Win32,59.93407252,636a30e7ba4faca50bd10fcf,64d2fd46c836a06233681665,64dc7da1e5aeabc44b864767,,,,,,,decisionTrl,resources/DB.BMP,resources/DY.BMP,WildCard_Ex,0.304375,0.00875,1,0,0,1.0118,optionRight,95,3310,2,24,0,24,0,1,,,,,,,,,,,,,,,,,,,,,,,,,,,,,,,,,,,,,,,
,,,,,,,,2023-08-16_08h41.44.582,HF_wild_card,2022.2.4,Win32,59.93407252,636a30e7ba4faca50bd10fcf,64d2fd46c836a06233681665,64dc7da1e5aeabc44b864767,,,,,,,decisionTrl,resources/DB.BMP,resources/DP.BMP,Door4,-0.38625,0.015625,1,0,0,1.8448,optionLeft,60,3370,2,25,0,25,0,1,,,,,,,,,,,,,,,,,,,,,,,,,,,,,,,,,,,,,,,
,,,,,,,,2023-08-16_08h41.44.582,HF_wild_card,2022.2.4,Win32,59.93407252,636a30e7ba4faca50bd10fcf,64d2fd46c836a06233681665,64dc7da1e5aeabc44b864767,,,,,,,ctch,resources/DBN.BMP,resources/DP.BMP,Door3,0.326875,0.00375,1,0,0,1.7778,optionRight,70,3440,2,26,0,26,0,1,,,,,,,,,,,,,,,,,,,,,,,,,,,,,,,,,,,,,,,
,,,,,,,,2023-08-16_08h41.44.582,HF_wild_card,2022.2.4,Win32,59.93407252,636a30e7ba4faca50bd10fcf,64d2fd46c836a06233681665,64dc7da1e5aeabc44b864767,,,,,,,decisionTrl,resources/DP.BMP,resources/DY.BMP,Door3,-0.41,0.01875,1,0,0,1.5787,optionLeft,70,3510,2,27,0,27,0,1,,,,,,,,,,,,,,,,,,,,,,,,,,,,,,,,,,,,,,,
,,,,,,,,2023-08-16_08h41.44.582,HF_wild_card,2022.2.4,Win32,59.93407252,636a30e7ba4faca50bd10fcf,64d2fd46c836a06233681665,64dc7da1e5aeabc44b864767,,,,,,,ctch,resources/DB.BMP,resources/DR.BMP,Door1,0.41125,0.068125,1,0,0,1.1788,optionRight,30,3540,2,28,0,28,0,1,,,,,,,,,,,,,,,,,,,,,,,,,,,,,,,,,,,,,,,
,,,,,,,,2023-08-16_08h41.44.582,HF_wild_card,2022.2.4,Win32,59.93407252,636a30e7ba4faca50bd10fcf,64d2fd46c836a06233681665,64dc7da1e5aeabc44b864767,,,,,,,decisionTrl,resources/DR.BMP,resources/DBN.BMP,Door2,0.439375,0.06125,1,0,0,0.9896,optionRight,40,3580,2,29,0,29,0,1,,,,,,,,,,,,,,,,,,,,,,,,,,,,,,,,,,,,,,,
,,,,,,,,2023-08-16_08h41.44.582,HF_wild_card,2022.2.4,Win32,59.93407252,636a30e7ba4faca50bd10fcf,64d2fd46c836a06233681665,64dc7da1e5aeabc44b864767,,,,,,,ctch,resources/DR.BMP,resources/DB.BMP,Door1,-0.3325,0.026875,1,0,0,2.7964,optionLeft,30,3610,2,30,0,30,0,1,,,,,,,,,,,,,,,,,,,,,,,,,,,,,,,,,,,,,,,
,,,,,,,,2023-08-16_08h41.44.582,HF_wild_card,2022.2.4,Win32,59.93407252,636a30e7ba4faca50bd10fcf,64d2fd46c836a06233681665,64dc7da1e5aeabc44b864767,,,,,,,decisionTrl,resources/DR.BMP,resources/DBN.BMP,Door2,0.351875,0.0625,1,0,0,1.8978,optionRight,40,3650,2,31,0,31,0,1,,,,,,,,,,,,,,,,,,,,,,,,,,,,,,,,,,,,,,,
,,,,,,,,2023-08-16_08h41.44.582,HF_wild_card,2022.2.4,Win32,59.93407252,636a30e7ba4faca50bd10fcf,64d2fd46c836a06233681665,64dc7da1e5aeabc44b864767,,,,,,,sngl,resources/Empty.png,resources/DB.BMP,Door4,0.214375,0.005625,1,0,0,1.2784,optionRight,80,3730,2,32,0,32,0,1,,,,,,,,,,,,,,,,,,,,,,,,,,,,,,,,,,,,,,,
,,,,,,,,2023-08-16_08h41.44.582,HF_wild_card,2022.2.4,Win32,59.93407252,636a30e7ba4faca50bd10fcf,64d2fd46c836a06233681665,64dc7da1e5aeabc44b864767,,,,,,,decisionTrl,resources/DY.BMP,resources/DR.BMP,Door1,0.424375,0.04125,1,0,0,3.5792,optionRight,30,3760,2,33,0,33,0,1,,,,,,,,,,,,,,,,,,,,,,,,,,,,,,,,,,,,,,,
,,,,,,,,2023-08-16_08h41.44.582,HF_wild_card,2022.2.4,Win32,59.93407252,636a30e7ba4faca50bd10fcf,64d2fd46c836a06233681665,64dc7da1e5aeabc44b864767,,,,,,,sngl,resources/Empty.png,resources/DP.BMP,Door3,0.33375,0.015,1,0,0,3.1287,optionRight,70,3830,2,34,0,34,0,1,,,,,,,,,,,,,,,,,,,,,,,,,,,,,,,,,,,,,,,
,,,,,,,,2023-08-16_08h41.44.582,HF_wild_card,2022.2.4,Win32,59.93407252,636a30e7ba4faca50bd10fcf,64d2fd46c836a06233681665,64dc7da1e5aeabc44b864767,,,,,,,sngl,resources/DP.BMP,resources/Empty.png,Door3,-0.30125,-0.01375,1,0,0,1.2151,optionLeft,70,3900,2,35,0,35,0,1,,,,,,,,,,,,,,,,,,,,,,,,,,,,,,,,,,,,,,,
,,,,,,,,2023-08-16_08h41.44.582,HF_wild_card,2022.2.4,Win32,59.93407252,636a30e7ba4faca50bd10fcf,64d2fd46c836a06233681665,64dc7da1e5aeabc44b864767,,,,,,,decisionTrl,resources/DP.BMP,resources/DB.BMP,Door3,-0.314375,-0.015625,1,0,0,1.9193,optionLeft,70,3970,2,36,0,36,0,1,,,,,,,,,,,,,,,,,,,,,,,,,,,,,,,,,,,,,,,
,,,,,,,,2023-08-16_08h41.44.582,HF_wild_card,2022.2.4,Win32,59.93407252,636a30e7ba4faca50bd10fcf,64d2fd46c836a06233681665,64dc7da1e5aeabc44b864767,,,,,,,decisionTrl,resources/DB.BMP,resources/DP.BMP,Door3,0.26125,0.026875,1,0,0,1.1789,optionRight,70,4040,2,37,0,37,0,1,,,,,,,,,,,,,,,,,,,,,,,,,,,,,,,,,,,,,,,
,,,,,,,,2023-08-16_08h41.44.582,HF_wild_card,2022.2.4,Win32,59.93407252,636a30e7ba4faca50bd10fcf,64d2fd46c836a06233681665,64dc7da1e5aeabc44b864767,,,,,,,ctch,resources/DB.BMP,resources/DR.BMP,Door4,-0.2875,-0.014375,1,0,0,2.6737,optionLeft,60,4100,2,38,0,38,0,1,,,,,,,,,,,,,,,,,,,,,,,,,,,,,,,,,,,,,,,
,,,,,,,,2023-08-16_08h41.44.582,HF_wild_card,2022.2.4,Win32,59.93407252,636a30e7ba4faca50bd10fcf,64d2fd46c836a06233681665,64dc7da1e5aeabc44b864767,,,,,,,ctch,resources/DR.BMP,resources/DB.BMP,Door1,-0.320625,-0.034375,1,0,0,1.4579,optionLeft,30,4130,2,39,0,39,0,1,,,,,,,,,,,,,,,,,,,,,,,,,,,,,,,,,,,,,,,
,,,,,,,,2023-08-16_08h41.44.582,HF_wild_card,2022.2.4,Win32,59.93407252,636a30e7ba4faca50bd10fcf,64d2fd46c836a06233681665,64dc7da1e5aeabc44b864767,,,,,,,sngl,resources/Empty.png,resources/DBN.BMP,Door2,0.269375,-0.011875,1,0,0,1.286,optionRight,40,4170,2,40,0,40,0,1,,,,,,,,,,,,,,,,,,,,,,,,,,,,,,,,,,,,,,,
,,,,,,,,2023-08-16_08h41.44.582,HF_wild_card,2022.2.4,Win32,59.93407252,636a30e7ba4faca50bd10fcf,64d2fd46c836a06233681665,64dc7da1e5aeabc44b864767,,,,,,,sngl,resources/Empty.png,resources/DY.BMP,WildCard_Ex,0.360625,0.0525,1,0,0,2.5053,optionRight,95,4265,2,41,0,41,0,1,,,,,,,,,,,,,,,,,,,,,,,,,,,,,,,,,,,,,,,
,,,,,,,,2023-08-16_08h41.44.582,HF_wild_card,2022.2.4,Win32,59.93407252,636a30e7ba4faca50bd10fcf,64d2fd46c836a06233681665,64dc7da1e5aeabc44b864767,,,,,,,decisionTrl,resources/DBN.BMP,resources/DY.BMP,WildCard_Ex,0.298125,0.043125,1,0,0,2.3993,optionRight,5,4270,2,42,0,42,0,1,,,,,,,,,,,,,,,,,,,,,,,,,,,,,,,,,,,,,,,
,,,,,,,,2023-08-16_08h41.44.582,HF_wild_card,2022.2.4,Win32,59.93407252,636a30e7ba4faca50bd10fcf,64d2fd46c836a06233681665,64dc7da1e5aeabc44b864767,,,,,,,decisionTrl,resources/DY.BMP,resources/DBN.BMP,Door2,0.3525,0.060625,1,0,0,1.33,optionRight,20,4290,2,43,0,43,0,1,,,,,,,,,,,,,,,,,,,,,,,,,,,,,,,,,,,,,,,
,,,,,,,,2023-08-16_08h41.44.582,HF_wild_card,2022.2.4,Win32,59.93407252,636a30e7ba4faca50bd10fcf,64d2fd46c836a06233681665,64dc7da1e5aeabc44b864767,,,,,,,,,,,,,,,,,,,,,,,,,,1,0,1,0,1,,,,,,,,,,,,,,,,,,,,,,,,,,,,,,,,,,
,,,,,,,,2023-08-16_08h41.44.582,HF_wild_card,2022.2.4,Win32,59.93407252,636a30e7ba4faca50bd10fcf,64d2fd46c836a06233681665,64dc7da1e5aeabc44b864767,,,,,,,sngl,resources/DY.BMP,resources/Empty.png,WildCard_Ex,-0.365,-0.07375,1,0,0,1.5312,optionLeft,5,4295,3,0,0,0,0,1,,,,,,,,,,,,,,,,,,,,,,,,,,,,,,,,,,,,,,,
,,,,,,,,2023-08-16_08h41.44.582,HF_wild_card,2022.2.4,Win32,59.93407252,636a30e7ba4faca50bd10fcf,64d2fd46c836a06233681665,64dc7da1e5aeabc44b864767,,,,,,,decisionTrl,resources/DP.BMP,resources/DY.BMP,WildCard_Ex,0.35625,-0.00375,1,0,0,5.7588,optionRight,95,4390,3,1,0,1,0,1,,,,,,,,,,,,,,,,,,,,,,,,,,,,,,,,,,,,,,,
,,,,,,,,2023-08-16_08h41.44.582,HF_wild_card,2022.2.4,Win32,59.93407252,636a30e7ba4faca50bd10fcf,64d2fd46c836a06233681665,64dc7da1e5aeabc44b864767,,,,,,,decisionTrl,resources/DBN.BMP,resources/DY.BMP,Door2,-0.395625,0.0825,1,0,0,2.5211,optionLeft,20,4410,3,2,0,2,0,1,,,,,,,,,,,,,,,,,,,,,,,,,,,,,,,,,,,,,,,
,,,,,,,,2023-08-16_08h41.44.582,HF_wild_card,2022.2.4,Win32,59.93407252,636a30e7ba4faca50bd10fcf,64d2fd46c836a06233681665,64dc7da1e5aeabc44b864767,,,,,,,decisionTrl,resources/DP.BMP,resources/DB.BMP,Door3,-0.25,0.04125,1,0,0,2.3955,optionLeft,70,4480,3,3,0,3,0,1,,,,,,,,,,,,,,,,,,,,,,,,,,,,,,,,,,,,,,,
,,,,,,,,2023-08-16_08h41.44.582,HF_wild_card,2022.2.4,Win32,59.93407252,636a30e7ba4faca50bd10fcf,64d2fd46c836a06233681665,64dc7da1e5aeabc44b864767,,,,,,,sngl,resources/DBN.BMP,resources/Empty.png,Door2,-0.35625,0.04375,1,0,0,1.2973,optionLeft,40,4520,3,4,0,4,0,1,,,,,,,,,,,,,,,,,,,,,,,,,,,,,,,,,,,,,,,
,,,,,,,,2023-08-16_08h41.44.582,HF_wild_card,2022.2.4,Win32,59.93407252,636a30e7ba4faca50bd10fcf,64d2fd46c836a06233681665,64dc7da1e5aeabc44b864767,,,,,,,ctch,resources/DP.BMP,resources/DBN.BMP,Door2,0.443125,0.049375,1,0,0,1.1835,optionRight,20,4540,3,5,0,5,0,1,,,,,,,,,,,,,,,,,,,,,,,,,,,,,,,,,,,,,,,
,,,,,,,,2023-08-16_08h41.44.582,HF_wild_card,2022.2.4,Win32,59.93407252,636a30e7ba4faca50bd10fcf,64d2fd46c836a06233681665,64dc7da1e5aeabc44b864767,,,,,,,ctch,resources/DP.BMP,resources/DBN.BMP,Door2,0.4325,0.08625,1,0,0,5.7981,optionRight,20,4560,3,6,0,6,0,1,,,,,,,,,,,,,,,,,,,,,,,,,,,,,,,,,,,,,,,
,,,,,,,,2023-08-16_08h41.44.582,HF_wild_card,2022.2.4,Win32,59.93407252,636a30e7ba4faca50bd10fcf,64d2fd46c836a06233681665,64dc7da1e5aeabc44b864767,,,,,,,decisionTrl,resources/DBN.BMP,resources/DR.BMP,Door2,-0.32875,0.055,1,0,0,2.3721,optionLeft,20,4580,3,7,0,7,0,1,,,,,,,,,,,,,,,,,,,,,,,,,,,,,,,,,,,,,,,
,,,,,,,,2023-08-16_08h41.44.582,HF_wild_card,2022.2.4,Win32,59.93407252,636a30e7ba4faca50bd10fcf,64d2fd46c836a06233681665,64dc7da1e5aeabc44b864767,,,,,,,sngl,resources/Empty.png,resources/DY.BMP,WildCard_Ex,0.30625,0.03625,1,0,0,1.313,optionRight,95,4675,3,8,0,8,0,1,,,,,,,,,,,,,,,,,,,,,,,,,,,,,,,,,,,,,,,
,,,,,,,,2023-08-16_08h41.44.582,HF_wild_card,2022.2.4,Win32,59.93407252,636a30e7ba4faca50bd10fcf,64d2fd46c836a06233681665,64dc7da1e5aeabc44b864767,,,,,,,decisionTrl,resources/DP.BMP,resources/DB.BMP,Door3,-0.43625,-0.011875,1,0,0,1.8007,optionLeft,70,4745,3,9,0,9,0,1,,,,,,,,,,,,,,,,,,,,,,,,,,,,,,,,,,,,,,,
,,,,,,,,2023-08-16_08h41.44.582,HF_wild_card,2022.2.4,Win32,59.93407252,636a30e7ba4faca50bd10fcf,64d2fd46c836a06233681665,64dc7da1e5aeabc44b864767,,,,,,,decisionTrl,resources/DY.BMP,resources/DBN.BMP,WildCard_Ex,-0.315625,0.014375,1,0,0,1.5875,optionLeft,95,4840,3,10,0,10,0,1,,,,,,,,,,,,,,,,,,,,,,,,,,,,,,,,,,,,,,,
,,,,,,,,2023-08-16_08h41.44.582,HF_wild_card,2022.2.4,Win32,59.93407252,636a30e7ba4faca50bd10fcf,64d2fd46c836a06233681665,64dc7da1e5aeabc44b864767,,,,,,,decisionTrl,resources/DB.BMP,resources/DP.BMP,Door3,0.325,0.03625,1,0,0,3.0798,optionRight,70,4910,3,11,0,11,0,1,,,,,,,,,,,,,,,,,,,,,,,,,,,,,,,,,,,,,,,
,,,,,,,,2023-08-16_08h41.44.582,HF_wild_card,2022.2.4,Win32,59.93407252,636a30e7ba4faca50bd10fcf,64d2fd46c836a06233681665,64dc7da1e5aeabc44b864767,,,,,,,decisionTrl,resources/DBN.BMP,resources/DR.BMP,Door1,0.306875,0.03125,1,0,0,2.1969,optionRight,30,4940,3,12,0,12,0,1,,,,,,,,,,,,,,,,,,,,,,,,,,,,,,,,,,,,,,,
,,,,,,,,2023-08-16_08h41.44.582,HF_wild_card,2022.2.4,Win32,59.93407252,636a30e7ba4faca50bd10fcf,64d2fd46c836a06233681665,64dc7da1e5aeabc44b864767,,,,,,,decisionTrl,resources/DB.BMP,resources/DY.BMP,WildCard_Ex,0.28625,0.039375,1,0,0,1.0688,optionRight,95,5035,3,13,0,13,0,1,,,,,,,,,,,,,,,,,,,,,,,,,,,,,,,,,,,,,,,
,,,,,,,,2023-08-16_08h41.44.582,HF_wild_card,2022.2.4,Win32,59.93407252,636a30e7ba4faca50bd10fcf,64d2fd46c836a06233681665,64dc7da1e5aeabc44b864767,,,,,,,decisionTrl,resources/DY.BMP,resources/DR.BMP,WildCard_Ex,-0.31625,0.01875,1,0,0,1.6616,optionLeft,5,5040,3,14,0,14,0,1,,,,,,,,,,,,,,,,,,,,,,,,,,,,,,,,,,,,,,,
,,,,,,,,2023-08-16_08h41.44.582,HF_wild_card,2022.2.4,Win32,59.93407252,636a30e7ba4faca50bd10fcf,64d2fd46c836a06233681665,64dc7da1e5aeabc44b864767,,,,,,,sngl,resources/Empty.png,resources/DB.BMP,Door4,0.2775,0.00875,1,0,0,1.371,optionRight,60,5100,3,15,0,15,0,1,,,,,,,,,,,,,,,,,,,,,,,,,,,,,,,,,,,,,,,
,,,,,,,,2023-08-16_08h41.44.582,HF_wild_card,2022.2.4,Win32,59.93407252,636a30e7ba4faca50bd10fcf,64d2fd46c836a06233681665,64dc7da1e5aeabc44b864767,,,,,,,ctch,resources/DB.BMP,resources/DR.BMP,Door4,-0.318125,0.001875,1,0,0,2.6468,optionLeft,80,5180,3,16,0,16,0,1,,,,,,,,,,,,,,,,,,,,,,,,,,,,,,,,,,,,,,,
,,,,,,,,2023-08-16_08h41.44.582,HF_wild_card,2022.2.4,Win32,59.93407252,636a30e7ba4faca50bd10fcf,64d2fd46c836a06233681665,64dc7da1e5aeabc44b864767,,,,,,,sngl,resources/DP.BMP,resources/Empty.png,Door3,-0.33125,-0.000625,1,0,0,1.196,optionLeft,70,5250,3,17,0,17,0,1,,,,,,,,,,,,,,,,,,,,,,,,,,,,,,,,,,,,,,,
,,,,,,,,2023-08-16_08h41.44.582,HF_wild_card,2022.2.4,Win32,59.93407252,636a30e7ba4faca50bd10fcf,64d2fd46c836a06233681665,64dc7da1e5aeabc44b864767,,,,,,,decisionTrl,resources/DR.BMP,resources/DBN.BMP,Door1,-0.348125,-0.0025,1,0,0,1.6628,optionLeft,30,5280,3,18,0,18,0,1,,,,,,,,,,,,,,,,,,,,,,,,,,,,,,,,,,,,,,,
,,,,,,,,2023-08-16_08h41.44.582,HF_wild_card,2022.2.4,Win32,59.93407252,636a30e7ba4faca50bd10fcf,64d2fd46c836a06233681665,64dc7da1e5aeabc44b864767,,,,,,,sngl,resources/DR.BMP,resources/Empty.png,Door1,-0.3475,-0.015,1,0,0,1.097,optionLeft,30,5310,3,19,0,19,0,1,,,,,,,,,,,,,,,,,,,,,,,,,,,,,,,,,,,,,,,
,,,,,,,,2023-08-16_08h41.44.582,HF_wild_card,2022.2.4,Win32,59.93407252,636a30e7ba4faca50bd10fcf,64d2fd46c836a06233681665,64dc7da1e5aeabc44b864767,,,,,,,decisionTrl,resources/DB.BMP,resources/DP.BMP,Door3,0.3325,0.0175,1,0,0,2.5637,optionRight,70,5380,3,20,0,20,0,1,,,,,,,,,,,,,,,,,,,,,,,,,,,,,,,,,,,,,,,
,,,,,,,,2023-08-16_08h41.44.582,HF_wild_card,2022.2.4,Win32,59.93407252,636a30e7ba4faca50bd10fcf,64d2fd46c836a06233681665,64dc7da1e5aeabc44b864767,,,,,,,decisionTrl,resources/DR.BMP,resources/DY.BMP,WildCard_Ex,0.323125,-0.010625,1,0,0,1.6481,optionRight,5,5385,3,21,0,21,0,1,,,,,,,,,,,,,,,,,,,,,,,,,,,,,,,,,,,,,,,
,,,,,,,,2023-08-16_08h41.44.582,HF_wild_card,2022.2.4,Win32,59.93407252,636a30e7ba4faca50bd10fcf,64d2fd46c836a06233681665,64dc7da1e5aeabc44b864767,,,,,,,decisionTrl,resources/DR.BMP,resources/DBN.BMP,Door1,-0.345625,0.000625,1,0,0,2.5637,optionLeft,30,5415,3,22,0,22,0,1,,,,,,,,,,,,,,,,,,,,,,,,,,,,,,,,,,,,,,,
,,,,,,,,2023-08-16_08h41.44.582,HF_wild_card,2022.2.4,Win32,59.93407252,636a30e7ba4faca50bd10fcf,64d2fd46c836a06233681665,64dc7da1e5aeabc44b864767,,,,,,,decisionTrl,resources/DBN.BMP,resources/DR.BMP,Door1,0.239375,0.0025,1,0,0,2.3134,optionRight,30,5445,3,23,0,23,0,1,,,,,,,,,,,,,,,,,,,,,,,,,,,,,,,,,,,,,,,
,,,,,,,,2023-08-16_08h41.44.582,HF_wild_card,2022.2.4,Win32,59.93407252,636a30e7ba4faca50bd10fcf,64d2fd46c836a06233681665,64dc7da1e5aeabc44b864767,,,,,,,sngl,resources/Empty.png,resources/DY.BMP,WildCard_Ex,0.255,-0.014375,1,0,0,0.9558,optionRight,5,5450,3,24,0,24,0,1,,,,,,,,,,,,,,,,,,,,,,,,,,,,,,,,,,,,,,,
,,,,,,,,2023-08-16_08h41.44.582,HF_wild_card,2022.2.4,Win32,59.93407252,636a30e7ba4faca50bd10fcf,64d2fd46c836a06233681665,64dc7da1e5aeabc44b864767,,,,,,,sngl,resources/DB.BMP,resources/Empty.png,Door4,-0.289375,-0.00125,1,0,0,1.23,optionLeft,80,5530,3,25,0,25,0,1,,,,,,,,,,,,,,,,,,,,,,,,,,,,,,,,,,,,,,,
,,,,,,,,2023-08-16_08h41.44.582,HF_wild_card,2022.2.4,Win32,59.93407252,636a30e7ba4faca50bd10fcf,64d2fd46c836a06233681665,64dc7da1e5aeabc44b864767,,,,,,,sngl,resources/DY.BMP,resources/Empty.png,WildCard_Ex,-0.305625,0.014375,1,0,0,1.1638,optionLeft,95,5625,3,26,0,26,0,1,,,,,,,,,,,,,,,,,,,,,,,,,,,,,,,,,,,,,,,
,,,,,,,,2023-08-16_08h41.44.582,HF_wild_card,2022.2.4,Win32,59.93407252,636a30e7ba4faca50bd10fcf,64d2fd46c836a06233681665,64dc7da1e5aeabc44b864767,,,,,,,decisionTrl,resources/DP.BMP,resources/DB.BMP,Door3,-0.344375,-0.034375,1,0,0,1.9133,optionLeft,70,5695,3,27,0,27,0,1,,,,,,,,,,,,,,,,,,,,,,,,,,,,,,,,,,,,,,,
,,,,,,,,2023-08-16_08h41.44.582,HF_wild_card,2022.2.4,Win32,59.93407252,636a30e7ba4faca50bd10fcf,64d2fd46c836a06233681665,64dc7da1e5aeabc44b864767,,,,,,,decisionTrl,resources/DY.BMP,resources/DB.BMP,Door4,0.214375,-0.00625,1,0,0,1.664,optionRight,60,5755,3,28,0,28,0,1,,,,,,,,,,,,,,,,,,,,,,,,,,,,,,,,,,,,,,,
,,,,,,,,2023-08-16_08h41.44.582,HF_wild_card,2022.2.4,Win32,59.93407252,636a30e7ba4faca50bd10fcf,64d2fd46c836a06233681665,64dc7da1e5aeabc44b864767,,,,,,,decisionTrl,resources/DBN.BMP,resources/DR.BMP,Door1,0.323125,0.016875,1,0,0,2.1796,optionRight,30,5785,3,29,0,29,0,1,,,,,,,,,,,,,,,,,,,,,,,,,,,,,,,,,,,,,,,
,,,,,,,,2023-08-16_08h41.44.582,HF_wild_card,2022.2.4,Win32,59.93407252,636a30e7ba4faca50bd10fcf,64d2fd46c836a06233681665,64dc7da1e5aeabc44b864767,,,,,,,ctch,resources/DB.BMP,resources/DR.BMP,Door4,-0.26125,0.005625,1,0,0,2.0164,optionLeft,80,5865,3,30,0,30,0,1,,,,,,,,,,,,,,,,,,,,,,,,,,,,,,,,,,,,,,,
,,,,,,,,2023-08-16_08h41.44.582,HF_wild_card,2022.2.4,Win32,59.93407252,636a30e7ba4faca50bd10fcf,64d2fd46c836a06233681665,64dc7da1e5aeabc44b864767,,,,,,,sngl,resources/Empty.png,resources/DBN.BMP,Door2,0.341875,0.010625,1,0,0,1.0966,optionRight,20,5885,3,31,0,31,0,1,,,,,,,,,,,,,,,,,,,,,,,,,,,,,,,,,,,,,,,
,,,,,,,,2023-08-16_08h41.44.582,HF_wild_card,2022.2.4,Win32,59.93407252,636a30e7ba4faca50bd10fcf,64d2fd46c836a06233681665,64dc7da1e5aeabc44b864767,,,,,,,decisionTrl,resources/DB.BMP,resources/DP.BMP,Door4,-0.294375,-0.025625,1,0,0,5.0548,optionLeft,80,5965,3,32,0,32,0,1,,,,,,,,,,,,,,,,,,,,,,,,,,,,,,,,,,,,,,,
,,,,,,,,2023-08-16_08h41.44.582,HF_wild_card,2022.2.4,Win32,59.93407252,636a30e7ba4faca50bd10fcf,64d2fd46c836a06233681665,64dc7da1e5aeabc44b864767,,,,,,,ctch,resources/DR.BMP,resources/DB.BMP,Door1,-0.334375,0.0025,1,0,0,1.7306,optionLeft,30,5995,3,33,0,33,0,1,,,,,,,,,,,,,,,,,,,,,,,,,,,,,,,,,,,,,,,
,,,,,,,,2023-08-16_08h41.44.582,HF_wild_card,2022.2.4,Win32,59.93407252,636a30e7ba4faca50bd10fcf,64d2fd46c836a06233681665,64dc7da1e5aeabc44b864767,,,,,,,sngl,resources/Empty.png,resources/DR.BMP,Door1,0.390625,0.00875,1,0,0,0.99,optionRight,30,6025,3,34,0,34,0,1,,,,,,,,,,,,,,,,,,,,,,,,,,,,,,,,,,,,,,,
,,,,,,,,2023-08-16_08h41.44.582,HF_wild_card,2022.2.4,Win32,59.93407252,636a30e7ba4faca50bd10fcf,64d2fd46c836a06233681665,64dc7da1e5aeabc44b864767,,,,,,,decisionTrl,resources/DP.BMP,resources/DB.BMP,Door4,0.114375,-0.011875,1,0,0,4.5641,optionRight,80,6105,3,35,0,35,0,1,,,,,,,,,,,,,,,,,,,,,,,,,,,,,,,,,,,,,,,
,,,,,,,,2023-08-16_08h41.44.582,HF_wild_card,2022.2.4,Win32,59.93407252,636a30e7ba4faca50bd10fcf,64d2fd46c836a06233681665,64dc7da1e5aeabc44b864767,,,,,,,ctch,resources/DBN.BMP,resources/DP.BMP,Door2,-0.210625,-0.001875,1,0,0,3.6645,optionLeft,20,6125,3,36,0,36,0,1,,,,,,,,,,,,,,,,,,,,,,,,,,,,,,,,,,,,,,,
,,,,,,,,2023-08-16_08h41.44.582,HF_wild_card,2022.2.4,Win32,59.93407252,636a30e7ba4faca50bd10fcf,64d2fd46c836a06233681665,64dc7da1e5aeabc44b864767,,,,,,,decisionTrl,resources/DY.BMP,resources/DP.BMP,Door3,0.1625,-0.001875,1,0,0,4.7305,optionRight,70,6195,3,37,0,37,0,1,,,,,,,,,,,,,,,,,,,,,,,,,,,,,,,,,,,,,,,
,,,,,,,,2023-08-16_08h41.44.582,HF_wild_card,2022.2.4,Win32,59.93407252,636a30e7ba4faca50bd10fcf,64d2fd46c836a06233681665,64dc7da1e5aeabc44b864767,,,,,,,decisionTrl,resources/DB.BMP,resources/DP.BMP,Door4,-0.259375,-0.015625,1,0,0,2.1077,optionLeft,60,6255,3,38,0,38,0,1,,,,,,,,,,,,,,,,,,,,,,,,,,,,,,,,,,,,,,,
,,,,,,,,2023-08-16_08h41.44.582,HF_wild_card,2022.2.4,Win32,59.93407252,636a30e7ba4faca50bd10fcf,64d2fd46c836a06233681665,64dc7da1e5aeabc44b864767,,,,,,,decisionTrl,resources/DR.BMP,resources/DBN.BMP,Door2,0.12375,0.00625,1,0,0,3.2542,optionRight,20,6275,3,39,0,39,0,1,,,,,,,,,,,,,,,,,,,,,,,,,,,,,,,,,,,,,,,
,,,,,,,,2023-08-16_08h41.44.582,HF_wild_card,2022.2.4,Win32,59.93407252,636a30e7ba4faca50bd10fcf,64d2fd46c836a06233681665,64dc7da1e5aeabc44b864767,,,,,,,ctch,resources/DBN.BMP,resources/DP.BMP,Door3,0.2325,0.028125,1,0,0,1.7625,optionRight,70,6345,3,40,0,40,0,1,,,,,,,,,,,,,,,,,,,,,,,,,,,,,,,,,,,,,,,
,,,,,,,,2023-08-16_08h41.44.582,HF_wild_card,2022.2.4,Win32,59.93407252,636a30e7ba4faca50bd10fcf,64d2fd46c836a06233681665,64dc7da1e5aeabc44b864767,,,,,,,sngl,resources/Empty.png,resources/DP.BMP,Door3,0.1375,0.019375,1,0,0,1.0368,optionRight,70,6415,3,41,0,41,0,1,,,,,,,,,,,,,,,,,,,,,,,,,,,,,,,,,,,,,,,
,,,,,,,,2023-08-16_08h41.44.582,HF_wild_card,2022.2.4,Win32,59.93407252,636a30e7ba4faca50bd10fcf,64d2fd46c836a06233681665,64dc7da1e5aeabc44b864767,,,,,,,ctch,resources/DR.BMP,resources/DB.BMP,Door1,-0.296875,-0.031875,1,0,0,1.7809,optionLeft,30,6445,3,42,0,42,0,1,,,,,,,,,,,,,,,,,,,,,,,,,,,,,,,,,,,,,,,
,,,,,,,,2023-08-16_08h41.44.582,HF_wild_card,2022.2.4,Win32,59.93407252,636a30e7ba4faca50bd10fcf,64d2fd46c836a06233681665,64dc7da1e5aeabc44b864767,,,,,,,decisionTrl,resources/DR.BMP,resources/DBN.BMP,Door2,0.29,0.01125,1,0,0,1.3051,optionRight,40,6485,3,43,0,43,0,1,,,,,,,,,,,,,,,,,,,,,,,,,,,,,,,,,,,,,,,
,,,,,,,,2023-08-16_08h41.44.582,HF_wild_card,2022.2.4,Win32,59.93407252,636a30e7ba4faca50bd10fcf,64d2fd46c836a06233681665,64dc7da1e5aeabc44b864767,,,,,,,,,,,,,,,,,,,,,,,,,,2,0,2,0,1,,,,,,,,,,,,,,,,,,,,,,,,,,,,,,,,,,
,,,,,,,,2023-08-16_08h41.44.582,HF_wild_card,2022.2.4,Win32,59.93407252,636a30e7ba4faca50bd10fcf,64d2fd46c836a06233681665,64dc7da1e5aeabc44b864767,,,,,,,sngl,resources/DB.BMP,resources/Empty.png,Door4,-0.335625,-0.0275,1,0,0,2.1837,optionLeft,60,6545,4,0,0,0,0,1,,,,,,,,,,,,,,,,,,,,,,,,,,,,,,,,,,,,,,,
,,,,,,,,2023-08-16_08h41.44.582,HF_wild_card,2022.2.4,Win32,59.93407252,636a30e7ba4faca50bd10fcf,64d2fd46c836a06233681665,64dc7da1e5aeabc44b864767,,,,,,,decisionTrl,resources/DP.BMP,resources/DB.BMP,Door3,-0.190625,0.003125,1,0,0,4.8384,optionLeft,70,6615,4,1,0,1,0,1,,,,,,,,,,,,,,,,,,,,,,,,,,,,,,,,,,,,,,,
,,,,,,,,2023-08-16_08h41.44.582,HF_wild_card,2022.2.4,Win32,59.93407252,636a30e7ba4faca50bd10fcf,64d2fd46c836a06233681665,64dc7da1e5aeabc44b864767,,,,,,,decisionTrl,resources/DP.BMP,resources/DB.BMP,Door4,0.155625,-0.014375,1,0,0,1.2143,optionRight,80,6695,4,2,0,2,0,1,,,,,,,,,,,,,,,,,,,,,,,,,,,,,,,,,,,,,,,
,,,,,,,,2023-08-16_08h41.44.582,HF_wild_card,2022.2.4,Win32,59.93407252,636a30e7ba4faca50bd10fcf,64d2fd46c836a06233681665,64dc7da1e5aeabc44b864767,,,,,,,decisionTrl,resources/DR.BMP,resources/DBN.BMP,Door1,-0.26125,-0.00375,1,0,0,1.5384,optionLeft,30,6725,4,3,0,3,0,1,,,,,,,,,,,,,,,,,,,,,,,,,,,,,,,,,,,,,,,
,,,,,,,,2023-08-16_08h41.44.582,HF_wild_card,2022.2.4,Win32,59.93407252,636a30e7ba4faca50bd10fcf,64d2fd46c836a06233681665,64dc7da1e5aeabc44b864767,,,,,,,sngl,resources/Empty.png,resources/DR.BMP,Door1,0.221875,0.00375,1,0,0,1.0311,optionRight,30,6755,4,4,0,4,0,1,,,,,,,,,,,,,,,,,,,,,,,,,,,,,,,,,,,,,,,
,,,,,,,,2023-08-16_08h41.44.582,HF_wild_card,2022.2.4,Win32,59.93407252,636a30e7ba4faca50bd10fcf,64d2fd46c836a06233681665,64dc7da1e5aeabc44b864767,,,,,,,decisionTrl,resources/DG.BMP,resources/DR.BMP,WildCard_NonEx,-0.306875,-0.020625,1,0,0,1.4086,optionLeft,55,6810,4,5,0,5,0,1,,,,,,,,,,,,,,,,,,,,,,,,,,,,,,,,,,,,,,,
,,,,,,,,2023-08-16_08h41.44.582,HF_wild_card,2022.2.4,Win32,59.93407252,636a30e7ba4faca50bd10fcf,64d2fd46c836a06233681665,64dc7da1e5aeabc44b864767,,,,,,,decisionTrl,resources/DB.BMP,resources/DP.BMP,Door3,0.184375,-0.015,1,0,0,1.3702,optionRight,70,6880,4,6,0,6,0,1,,,,,,,,,,,,,,,,,,,,,,,,,,,,,,,,,,,,,,,
,,,,,,,,2023-08-16_08h41.44.582,HF_wild_card,2022.2.4,Win32,59.93407252,636a30e7ba4faca50bd10fcf,64d2fd46c836a06233681665,64dc7da1e5aeabc44b864767,,,,,,,decisionTrl,resources/DR.BMP,resources/DBN.BMP,Door2,0.30125,0.055625,1,0,0,3.1759,optionRight,40,6920,4,7,0,7,0,1,,,,,,,,,,,,,,,,,,,,,,,,,,,,,,,,,,,,,,,
,,,,,,,,2023-08-16_08h41.44.582,HF_wild_card,2022.2.4,Win32,59.93407252,636a30e7ba4faca50bd10fcf,64d2fd46c836a06233681665,64dc7da1e5aeabc44b864767,,,,,,,decisionTrl,resources/DBN.BMP,resources/DG.BMP,WildCard_NonEx,0.18625,0.0375,1,0,0,4.538,optionRight,55,6975,4,8,0,8,0,1,,,,,,,,,,,,,,,,,,,,,,,,,,,,,,,,,,,,,,,
,,,,,,,,2023-08-16_08h41.44.582,HF_wild_card,2022.2.4,Win32,59.93407252,636a30e7ba4faca50bd10fcf,64d2fd46c836a06233681665,64dc7da1e5aeabc44b864767,,,,,,,ctch,resources/DR.BMP,resources/DB.BMP,Door1,-0.31375,-0.0225,1,0,0,1.6466,optionLeft,30,7005,4,9,0,9,0,1,,,,,,,,,,,,,,,,,,,,,,,,,,,,,,,,,,,,,,,
,,,,,,,,2023-08-16_08h41.44.582,HF_wild_card,2022.2.4,Win32,59.93407252,636a30e7ba4faca50bd10fcf,64d2fd46c836a06233681665,64dc7da1e5aeabc44b864767,,,,,,,sngl,resources/DP.BMP,resources/Empty.png,Door3,-0.341875,-0.03125,1,0,0,1.0466,optionLeft,70,7075,4,10,0,10,0,1,,,,,,,,,,,,,,,,,,,,,,,,,,,,,,,,,,,,,,,
,,,,,,,,2023-08-16_08h41.44.582,HF_wild_card,2022.2.4,Win32,59.93407252,636a30e7ba4faca50bd10fcf,64d2fd46c836a06233681665,64dc7da1e5aeabc44b864767,,,,,,,sngl,resources/Empty.png,resources/DP.BMP,Door3,0.245,0.021875,1,0,0,0.956,optionRight,70,7145,4,11,0,11,0,1,,,,,,,,,,,,,,,,,,,,,,,,,,,,,,,,,,,,,,,
,,,,,,,,2023-08-16_08h41.44.582,HF_wild_card,2022.2.4,Win32,59.93407252,636a30e7ba4faca50bd10fcf,64d2fd46c836a06233681665,64dc7da1e5aeabc44b864767,,,,,,,sngl,resources/DG.BMP,resources/Empty.png,WildCard_NonEx,-0.398125,-0.051875,1,0,0,1.4481,optionLeft,45,7190,4,12,0,12,0,1,,,,,,,,,,,,,,,,,,,,,,,,,,,,,,,,,,,,,,,
,,,,,,,,2023-08-16_08h41.44.582,HF_wild_card,2022.2.4,Win32,59.93407252,636a30e7ba4faca50bd10fcf,64d2fd46c836a06233681665,64dc7da1e5aeabc44b864767,,,,,,,sngl,resources/Empty.png,resources/DB.BMP,Door4,0.174375,-0.0175,1,0,0,1.0538,optionRight,80,7270,4,13,0,13,0,1,,,,,,,,,,,,,,,,,,,,,,,,,,,,,,,,,,,,,,,
,,,,,,,,2023-08-16_08h41.44.582,HF_wild_card,2022.2.4,Win32,59.93407252,636a30e7ba4faca50bd10fcf,64d2fd46c836a06233681665,64dc7da1e5aeabc44b864767,,,,,,,sngl,resources/DBN.BMP,resources/Empty.png,Door2,-0.323125,-0.01125,1,0,0,1.0117,optionLeft,20,7290,4,14,0,14,0,1,,,,,,,,,,,,,,,,,,,,,,,,,,,,,,,,,,,,,,,
,,,,,,,,2023-08-16_08h41.44.582,HF_wild_card,2022.2.4,Win32,59.93407252,636a30e7ba4faca50bd10fcf,64d2fd46c836a06233681665,64dc7da1e5aeabc44b864767,,,,,,,decisionTrl,resources/DR.BMP,resources/DBN.BMP,Door2,0.26875,0.036875,1,0,0,1.5524,optionRight,20,7310,4,15,0,15,0,1,,,,,,,,,,,,,,,,,,,,,,,,,,,,,,,,,,,,,,,
,,,,,,,,2023-08-16_08h41.44.582,HF_wild_card,2022.2.4,Win32,59.93407252,636a30e7ba4faca50bd10fcf,64d2fd46c836a06233681665,64dc7da1e5aeabc44b864767,,,,,,,ctch,resources/DB.BMP,resources/DR.BMP,Door1,0.31125,0.048125,1,0,0,3.0361,optionRight,30,7340,4,16,0,16,0,1,,,,,,,,,,,,,,,,,,,,,,,,,,,,,,,,,,,,,,,
,,,,,,,,2023-08-16_08h41.44.582,HF_wild_card,2022.2.4,Win32,59.93407252,636a30e7ba4faca50bd10fcf,64d2fd46c836a06233681665,64dc7da1e5aeabc44b864767,,,,,,,decisionTrl,resources/DP.BMP,resources/DB.BMP,Door3,-0.314375,-0.055625,1,0,0,1.465,optionLeft,70,7410,4,17,0,17,0,1,,,,,,,,,,,,,,,,,,,,,,,,,,,,,,,,,,,,,,,
,,,,,,,,2023-08-16_08h41.44.582,HF_wild_card,2022.2.4,Win32,59.93407252,636a30e7ba4faca50bd10fcf,64d2fd46c836a06233681665,64dc7da1e5aeabc44b864767,,,,,,,sngl,resources/Empty.png,resources/DG.BMP,WildCard_NonEx,0.29625,0.02875,1,0,0,1.0642,optionRight,55,7465,4,18,0,18,0,1,,,,,,,,,,,,,,,,,,,,,,,,,,,,,,,,,,,,,,,
,,,,,,,,2023-08-16_08h41.44.582,HF_wild_card,2022.2.4,Win32,59.93407252,636a30e7ba4faca50bd10fcf,64d2fd46c836a06233681665,64dc7da1e5aeabc44b864767,,,,,,,decisionTrl,resources/DR.BMP,resources/DG.BMP,Door1,-0.315,-0.029375,1,0,0,1.4865,optionLeft,30,7495,4,19,0,19,0,1,,,,,,,,,,,,,,,,,,,,,,,,,,,,,,,,,,,,,,,
,,,,,,,,2023-08-16_08h41.44.582,HF_wild_card,2022.2.4,Win32,59.93407252,636a30e7ba4faca50bd10fcf,64d2fd46c836a06233681665,64dc7da1e5aeabc44b864767,,,,,,,sngl,resources/DR.BMP,resources/Empty.png,Door1,-0.370625,0.00625,1,0,0,1.0515,optionLeft,30,7525,4,20,0,20,0,1,,,,,,,,,,,,,,,,,,,,,,,,,,,,,,,,,,,,,,,
,,,,,,,,2023-08-16_08h41.44.582,HF_wild_card,2022.2.4,Win32,59.93407252,636a30e7ba4faca50bd10fcf,64d2fd46c836a06233681665,64dc7da1e5aeabc44b864767,,,,,,,ctch,resources/DBN.BMP,resources/DP.BMP,Door3,0.2525,0.00875,1,0,0,1.6032,optionRight,70,7595,4,21,0,21,0,1,,,,,,,,,,,,,,,,,,,,,,,,,,,,,,,,,,,,,,,
,,,,,,,,2023-08-16_08h41.44.582,HF_wild_card,2022.2.4,Win32,59.93407252,636a30e7ba4faca50bd10fcf,64d2fd46c836a06233681665,64dc7da1e5aeabc44b864767,,,,,,,ctch,resources/DB.BMP,resources/DR.BMP,Door1,0.173125,-0.003125,1,0,0,1.8798,optionRight,30,7625,4,22,0,22,0,1,,,,,,,,,,,,,,,,,,,,,,,,,,,,,,,,,,,,,,,
,,,,,,,,2023-08-16_08h41.44.582,HF_wild_card,2022.2.4,Win32,59.93407252,636a30e7ba4faca50bd10fcf,64d2fd46c836a06233681665,64dc7da1e5aeabc44b864767,,,,,,,ctch,resources/DP.BMP,resources/DBN.BMP,Door2,0.351875,0.058125,1,0,0,1.5786,optionRight,40,7665,4,23,0,23,0,1,,,,,,,,,,,,,,,,,,,,,,,,,,,,,,,,,,,,,,,
,,,,,,,,2023-08-16_08h41.44.582,HF_wild_card,2022.2.4,Win32,59.93407252,636a30e7ba4faca50bd10fcf,64d2fd46c836a06233681665,64dc7da1e5aeabc44b864767,,,,,,,decisionTrl,resources/DBN.BMP,resources/DR.BMP,Door2,-0.285,0.011875,1,0,0,1.8469,optionLeft,20,7685,4,24,0,24,0,1,,,,,,,,,,,,,,,,,,,,,,,,,,,,,,,,,,,,,,,
,,,,,,,,2023-08-16_08h41.44.582,HF_wild_card,2022.2.4,Win32,59.93407252,636a30e7ba4faca50bd10fcf,64d2fd46c836a06233681665,64dc7da1e5aeabc44b864767,,,,,,,sngl,resources/DG.BMP,resources/Empty.png,WildCard_NonEx,-0.3625,-0.021875,1,0,0,1.1464,optionLeft,55,7740,4,25,0,25,0,1,,,,,,,,,,,,,,,,,,,,,,,,,,,,,,,,,,,,,,,
,,,,,,,,2023-08-16_08h41.44.582,HF_wild_card,2022.2.4,Win32,59.93407252,636a30e7ba4faca50bd10fcf,64d2fd46c836a06233681665,64dc7da1e5aeabc44b864767,,,,,,,decisionTrl,resources/DBN.BMP,resources/DR.BMP,Door1,0.191875,-0.009375,1,0,0,1.9903,optionRight,30,7770,4,26,0,26,0,1,,,,,,,,,,,,,,,,,,,,,,,,,,,,,,,,,,,,,,,
,,,,,,,,2023-08-16_08h41.44.582,HF_wild_card,2022.2.4,Win32,59.93407252,636a30e7ba4faca50bd10fcf,64d2fd46c836a06233681665,64dc7da1e5aeabc44b864767,,,,,,,decisionTrl,resources/DB.BMP,resources/DP.BMP,Door3,0.348125,-0.009375,1,0,0,3.8311,optionRight,70,7840,4,27,0,27,0,1,,,,,,,,,,,,,,,,,,,,,,,,,,,,,,,,,,,,,,,
,,,,,,,,2023-08-16_08h41.44.582,HF_wild_card,2022.2.4,Win32,59.93407252,636a30e7ba4faca50bd10fcf,64d2fd46c836a06233681665,64dc7da1e5aeabc44b864767,,,,,,,decisionTrl,resources/DG.BMP,resources/DBN.BMP,WildCard_NonEx,-0.376875,-0.016875,1,0,0,1.4813,optionLeft,55,7895,4,28,0,28,0,1,,,,,,,,,,,,,,,,,,,,,,,,,,,,,,,,,,,,,,,
,,,,,,,,2023-08-16_08h41.44.582,HF_wild_card,2022.2.4,Win32,59.93407252,636a30e7ba4faca50bd10fcf,64d2fd46c836a06233681665,64dc7da1e5aeabc44b864767,,,,,,,sngl,resources/Empty.png,resources/DBN.BMP,Door2,0.43375,0.074375,1,0,0,1.047,optionRight,40,7935,4,29,0,29,0,1,,,,,,,,,,,,,,,,,,,,,,,,,,,,,,,,,,,,,,,
,,,,,,,,2023-08-16_08h41.44.582,HF_wild_card,2022.2.4,Win32,59.93407252,636a30e7ba4faca50bd10fcf,64d2fd46c836a06233681665,64dc7da1e5aeabc44b864767,,,,,,,decisionTrl,resources/DP.BMP,resources/DB.BMP,Door3,-0.3225,-0.011875,1,0,0,1.3547,optionLeft,70,8005,4,30,0,30,0,1,,,,,,,,,,,,,,,,,,,,,,,,,,,,,,,,,,,,,,,
,,,,,,,,2023-08-16_08h41.44.582,HF_wild_card,2022.2.4,Win32,59.93407252,636a30e7ba4faca50bd10fcf,64d2fd46c836a06233681665,64dc7da1e5aeabc44b864767,,,,,,,decisionTrl,resources/DG.BMP,resources/DP.BMP,WildCard_NonEx,-0.37375,-0.045,1,0,0,2.1299,optionLeft,45,8050,4,31,0,31,0,1,,,,,,,,,,,,,,,,,,,,,,,,,,,,,,,,,,,,,,,
,,,,,,,,2023-08-16_08h41.44.582,HF_wild_card,2022.2.4,Win32,59.93407252,636a30e7ba4faca50bd10fcf,64d2fd46c836a06233681665,64dc7da1e5aeabc44b864767,,,,,,,ctch,resources/DR.BMP,resources/DB.BMP,Door1,-0.330625,-0.006875,1,0,0,1.3131,optionLeft,30,8080,4,32,0,32,0,1,,,,,,,,,,,,,,,,,,,,,,,,,,,,,,,,,,,,,,,
,,,,,,,,2023-08-16_08h41.44.582,HF_wild_card,2022.2.4,Win32,59.93407252,636a30e7ba4faca50bd10fcf,64d2fd46c836a06233681665,64dc7da1e5aeabc44b864767,,,,,,,decisionTrl,resources/DR.BMP,resources/DBN.BMP,Door2,0.454375,0.059375,1,0,0,1.0809,optionRight,40,8120,4,33,0,33,0,1,,,,,,,,,,,,,,,,,,,,,,,,,,,,,,,,,,,,,,,
,,,,,,,,2023-08-16_08h41.44.582,HF_wild_card,2022.2.4,Win32,59.93407252,636a30e7ba4faca50bd10fcf,64d2fd46c836a06233681665,64dc7da1e5aeabc44b864767,,,,,,,decisionTrl,resources/DB.BMP,resources/DG.BMP,Door4,-0.3575,-0.049375,1,0,0,1.3617,optionLeft,60,8180,4,34,0,34,0,1,,,,,,,,,,,,,,,,,,,,,,,,,,,,,,,,,,,,,,,
,,,,,,,,2023-08-16_08h41.44.582,HF_wild_card,2022.2.4,Win32,59.93407252,636a30e7ba4faca50bd10fcf,64d2fd46c836a06233681665,64dc7da1e5aeabc44b864767,,,,,,,decisionTrl,resources/DB.BMP,resources/DP.BMP,Door3,0.3925,0.014375,1,0,0,2.4634,optionRight,70,8250,4,35,0,35,0,1,,,,,,,,,,,,,,,,,,,,,,,,,,,,,,,,,,,,,,,
,,,,,,,,2023-08-16_08h41.44.582,HF_wild_card,2022.2.4,Win32,59.93407252,636a30e7ba4faca50bd10fcf,64d2fd46c836a06233681665,64dc7da1e5aeabc44b864767,,,,,,,ctch,resources/DBN.BMP,resources/DP.BMP,Door3,0.219375,-0.015,1,0,0,1.4975,optionRight,70,8320,4,36,0,36,0,1,,,,,,,,,,,,,,,,,,,,,,,,,,,,,,,,,,,,,,,
,,,,,,,,2023-08-16_08h41.44.582,HF_wild_card,2022.2.4,Win32,59.93407252,636a30e7ba4faca50bd10fcf,64d2fd46c836a06233681665,64dc7da1e5aeabc44b864767,,,,,,,decisionTrl,resources/DBN.BMP,resources/DR.BMP,Door1,0.18875,-0.01375,1,0,0,3.554,optionRight,30,8350,4,37,0,37,0,1,,,,,,,,,,,,,,,,,,,,,,,,,,,,,,,,,,,,,,,
,,,,,,,,2023-08-16_08h41.44.582,HF_wild_card,2022.2.4,Win32,59.93407252,636a30e7ba4faca50bd10fcf,64d2fd46c836a06233681665,64dc7da1e5aeabc44b864767,,,,,,,ctch,resources/DP.BMP,resources/DBN.BMP,Door2,0.320625,0.076875,1,0,0,1.6146,optionRight,20,8370,4,38,0,38,0,1,,,,,,,,,,,,,,,,,,,,,,,,,,,,,,,,,,,,,,,
,,,,,,,,2023-08-16_08h41.44.582,HF_wild_card,2022.2.4,Win32,59.93407252,636a30e7ba4faca50bd10fcf,64d2fd46c836a06233681665,64dc7da1e5aeabc44b864767,,,,,,,decisionTrl,resources/DG.BMP,resources/DB.BMP,WildCard_NonEx,-0.35375,0.005625,1,0,0,1.6128,optionLeft,55,8425,4,39,0,39,0,1,,,,,,,,,,,,,,,,,,,,,,,,,,,,,,,,,,,,,,,
,,,,,,,,2023-08-16_08h41.44.582,HF_wild_card,2022.2.4,Win32,59.93407252,636a30e7ba4faca50bd10fcf,64d2fd46c836a06233681665,64dc7da1e5aeabc44b864767,,,,,,,decisionTrl,resources/DBN.BMP,resources/DR.BMP,Door1,0.4925,0.01875,1,0,0,1.3899,optionRight,30,8455,4,40,0,40,0,1,,,,,,,,,,,,,,,,,,,,,,,,,,,,,,,,,,,,,,,
,,,,,,,,2023-08-16_08h41.44.582,HF_wild_card,2022.2.4,Win32,59.93407252,636a30e7ba4faca50bd10fcf,64d2fd46c836a06233681665,64dc7da1e5aeabc44b864767,,,,,,,decisionTrl,resources/DP.BMP,resources/DG.BMP,Door3,-0.25125,-0.02625,1,0,0,2.2966,optionLeft,70,8525,4,41,0,41,0,1,,,,,,,,,,,,,,,,,,,,,,,,,,,,,,,,,,,,,,,
,,,,,,,,2023-08-16_08h41.44.582,HF_wild_card,2022.2.4,Win32,59.93407252,636a30e7ba4faca50bd10fcf,64d2fd46c836a06233681665,64dc7da1e5aeabc44b864767,,,,,,,sngl,resources/Empty.png,resources/DG.BMP,WildCard_NonEx,0.236875,-0.000625,1,0,0,0.9735,optionRight,45,8570,4,42,0,42,0,1,,,,,,,,,,,,,,,,,,,,,,,,,,,,,,,,,,,,,,,
,,,,,,,,2023-08-16_08h41.44.582,HF_wild_card,2022.2.4,Win32,59.93407252,636a30e7ba4faca50bd10fcf,64d2fd46c836a06233681665,64dc7da1e5aeabc44b864767,,,,,,,decisionTrl,resources/DB.BMP,resources/DP.BMP,Door3,0.330625,0.03375,1,0,0,2.7288,optionRight,70,8640,4,43,0,43,0,1,,,,,,,,,,,,,,,,,,,,,,,,,,,,,,,,,,,,,,,
,,,,,,,,2023-08-16_08h41.44.582,HF_wild_card,2022.2.4,Win32,59.93407252,636a30e7ba4faca50bd10fcf,64d2fd46c836a06233681665,64dc7da1e5aeabc44b864767,,,,,,,,,,,,,,,,,,,,,,,,,,3,0,3,0,1,,,,,,,,,,,,,,,,,,,,,,,,,,,,,,,,,,
,,,,,,,,2023-08-16_08h41.44.582,HF_wild_card,2022.2.4,Win32,59.93407252,636a30e7ba4faca50bd10fcf,64d2fd46c836a06233681665,64dc7da1e5aeabc44b864767,,,,,,,decisionTrl,resources/DB.BMP,resources/DP.BMP,Door3,0.375625,-0.125625,1,0,0,3.4334,optionRight,70,8710,5,0,0,0,0,1,,,,,,,,,,,,,,,,,,,,,,,,,,,,,,,,,,,,,,,
,,,,,,,,2023-08-16_08h41.44.582,HF_wild_card,2022.2.4,Win32,59.93407252,636a30e7ba4faca50bd10fcf,64d2fd46c836a06233681665,64dc7da1e5aeabc44b864767,,,,,,,sngl,resources/Empty.png,resources/DR.BMP,Door1,0.395625,0.024375,1,0,0,1.2386,optionRight,30,8740,5,1,0,1,0,1,,,,,,,,,,,,,,,,,,,,,,,,,,,,,,,,,,,,,,,
,,,,,,,,2023-08-16_08h41.44.582,HF_wild_card,2022.2.4,Win32,59.93407252,636a30e7ba4faca50bd10fcf,64d2fd46c836a06233681665,64dc7da1e5aeabc44b864767,,,,,,,decisionTrl,resources/DP.BMP,resources/DB.BMP,Door4,0.268125,-0.019375,1,0,0,1.6556,optionRight,80,8820,5,2,0,2,0,1,,,,,,,,,,,,,,,,,,,,,,,,,,,,,,,,,,,,,,,
,,,,,,,,2023-08-16_08h41.44.582,HF_wild_card,2022.2.4,Win32,59.93407252,636a30e7ba4faca50bd10fcf,64d2fd46c836a06233681665,64dc7da1e5aeabc44b864767,,,,,,,decisionTrl,resources/DB.BMP,resources/DG.BMP,Door4,-0.2825,-0.008125,1,0,0,3.3647,optionLeft,60,8880,5,3,0,3,0,1,,,,,,,,,,,,,,,,,,,,,,,,,,,,,,,,,,,,,,,
,,,,,,,,2023-08-16_08h41.44.582,HF_wild_card,2022.2.4,Win32,59.93407252,636a30e7ba4faca50bd10fcf,64d2fd46c836a06233681665,64dc7da1e5aeabc44b864767,,,,,,,sngl,resources/DG.BMP,resources/Empty.png,WildCard_NonEx,-0.275625,-0.011875,1,0,0,1.1138,optionLeft,45,8925,5,4,0,4,0,1,,,,,,,,,,,,,,,,,,,,,,,,,,,,,,,,,,,,,,,
,,,,,,,,2023-08-16_08h41.44.582,HF_wild_card,2022.2.4,Win32,59.93407252,636a30e7ba4faca50bd10fcf,64d2fd46c836a06233681665,64dc7da1e5aeabc44b864767,,,,,,,sngl,resources/Empty.png,resources/DG.BMP,WildCard_NonEx,0.285,-0.0175,1,0,0,0.9797,optionRight,45,8970,5,5,0,5,0,1,,,,,,,,,,,,,,,,,,,,,,,,,,,,,,,,,,,,,,,
,,,,,,,,2023-08-16_08h41.44.582,HF_wild_card,2022.2.4,Win32,59.93407252,636a30e7ba4faca50bd10fcf,64d2fd46c836a06233681665,64dc7da1e5aeabc44b864767,,,,,,,decisionTrl,resources/DG.BMP,resources/DP.BMP,Door3,0.215625,0.00625,1,0,0,4.2702,optionRight,70,9040,5,6,0,6,0,1,,,,,,,,,,,,,,,,,,,,,,,,,,,,,,,,,,,,,,,
,,,,,,,,2023-08-16_08h41.44.582,HF_wild_card,2022.2.4,Win32,59.93407252,636a30e7ba4faca50bd10fcf,64d2fd46c836a06233681665,64dc7da1e5aeabc44b864767,,,,,,,sngl,resources/DG.BMP,resources/Empty.png,WildCard_NonEx,-0.298125,0.005,1,0,0,1.113,optionLeft,55,9095,5,7,0,7,0,1,,,,,,,,,,,,,,,,,,,,,,,,,,,,,,,,,,,,,,,
,,,,,,,,2023-08-16_08h41.44.582,HF_wild_card,2022.2.4,Win32,59.93407252,636a30e7ba4faca50bd10fcf,64d2fd46c836a06233681665,64dc7da1e5aeabc44b864767,,,,,,,sngl,resources/DBN.BMP,resources/Empty.png,Door2,-0.315,0.01125,1,0,0,1.0964,optionLeft,40,9135,5,8,0,8,0,1,,,,,,,,,,,,,,,,,,,,,,,,,,,,,,,,,,,,,,,
,,,,,,,,2023-08-16_08h41.44.582,HF_wild_card,2022.2.4,Win32,59.93407252,636a30e7ba4faca50bd10fcf,64d2fd46c836a06233681665,64dc7da1e5aeabc44b864767,,,,,,,sngl,resources/DB.BMP,resources/Empty.png,Door4,-0.268125,0,1,0,0,1.0618,optionLeft,80,9215,5,9,0,9,0,1,,,,,,,,,,,,,,,,,,,,,,,,,,,,,,,,,,,,,,,
,,,,,,,,2023-08-16_08h41.44.582,HF_wild_card,2022.2.4,Win32,59.93407252,636a30e7ba4faca50bd10fcf,64d2fd46c836a06233681665,64dc7da1e5aeabc44b864767,,,,,,,decisionTrl,resources/DP.BMP,resources/DB.BMP,Door4,0.106875,-0.00375,1,0,0,4.5727,optionRight,60,9275,5,10,0,10,0,1,,,,,,,,,,,,,,,,,,,,,,,,,,,,,,,,,,,,,,,
,,,,,,,,2023-08-16_08h41.44.582,HF_wild_card,2022.2.4,Win32,59.93407252,636a30e7ba4faca50bd10fcf,64d2fd46c836a06233681665,64dc7da1e5aeabc44b864767,,,,,,,decisionTrl,resources/DBN.BMP,resources/DG.BMP,Door2,-0.306875,-0.009375,1,0,0,1.5861,optionLeft,40,9315,5,11,0,11,0,1,,,,,,,,,,,,,,,,,,,,,,,,,,,,,,,,,,,,,,,
,,,,,,,,2023-08-16_08h41.44.582,HF_wild_card,2022.2.4,Win32,59.93407252,636a30e7ba4faca50bd10fcf,64d2fd46c836a06233681665,64dc7da1e5aeabc44b864767,,,,,,,decisionTrl,resources/DB.BMP,resources/DP.BMP,Door4,-0.343125,-0.033125,1,0,0,2.1111,optionLeft,60,9375,5,12,0,12,0,1,,,,,,,,,,,,,,,,,,,,,,,,,,,,,,,,,,,,,,,
,,,,,,,,2023-08-16_08h41.44.582,HF_wild_card,2022.2.4,Win32,59.93407252,636a30e7ba4faca50bd10fcf,64d2fd46c836a06233681665,64dc7da1e5aeabc44b864767,,,,,,,sngl,resources/DR.BMP,resources/Empty.png,Door1,-0.26375,-0.02125,1,0,0,1.0623,optionLeft,30,9405,5,13,0,13,0,1,,,,,,,,,,,,,,,,,,,,,,,,,,,,,,,,,,,,,,,
,,,,,,,,2023-08-16_08h41.44.582,HF_wild_card,2022.2.4,Win32,59.93407252,636a30e7ba4faca50bd10fcf,64d2fd46c836a06233681665,64dc7da1e5aeabc44b864767,,,,,,,decisionTrl,resources/DP.BMP,resources/DG.BMP,WildCard_NonEx,0.165625,-0.0025,1,0,0,1.664,optionRight,55,9460,5,14,0,14,0,1,,,,,,,,,,,,,,,,,,,,,,,,,,,,,,,,,,,,,,,
,,,,,,,,2023-08-16_08h41.44.582,HF_wild_card,2022.2.4,Win32,59.93407252,636a30e7ba4faca50bd10fcf,64d2fd46c836a06233681665,64dc7da1e5aeabc44b864767,,,,,,,decisionTrl,resources/DP.BMP,resources/DB.BMP,Door3,-0.328125,-0.030625,1,0,0,2.812,optionLeft,70,9530,5,15,0,15,0,1,,,,,,,,,,,,,,,,,,,,,,,,,,,,,,,,,,,,,,,
,,,,,,,,2023-08-16_08h41.44.582,HF_wild_card,2022.2.4,Win32,59.93407252,636a30e7ba4faca50bd10fcf,64d2fd46c836a06233681665,64dc7da1e5aeabc44b864767,,,,,,,sngl,resources/Empty.png,resources/DB.BMP,Door4,0.27125,0.005625,1,0,0,1.1556,optionRight,60,9590,5,16,0,16,0,1,,,,,,,,,,,,,,,,,,,,,,,,,,,,,,,,,,,,,,,
,,,,,,,,2023-08-16_08h41.44.582,HF_wild_card,2022.2.4,Win32,59.93407252,636a30e7ba4faca50bd10fcf,64d2fd46c836a06233681665,64dc7da1e5aeabc44b864767,,,,,,,decisionTrl,resources/DB.BMP,resources/DP.BMP,Door4,-0.2775,-0.010625,1,0,0,1.218,optionLeft,60,9650,5,17,0,17,0,1,,,,,,,,,,,,,,,,,,,,,,,,,,,,,,,,,,,,,,,
,,,,,,,,2023-08-16_08h41.44.582,HF_wild_card,2022.2.4,Win32,59.93407252,636a30e7ba4faca50bd10fcf,64d2fd46c836a06233681665,64dc7da1e5aeabc44b864767,,,,,,,decisionTrl,resources/DG.BMP,resources/DBN.BMP,Door2,0.279375,0.0625,1,0,0,2.4137,optionRight,40,9690,5,18,0,18,0,1,,,,,,,,,,,,,,,,,,,,,,,,,,,,,,,,,,,,,,,
,,,,,,,,2023-08-16_08h41.44.582,HF_wild_card,2022.2.4,Win32,59.93407252,636a30e7ba4faca50bd10fcf,64d2fd46c836a06233681665,64dc7da1e5aeabc44b864767,,,,,,,ctch,resources/DBN.BMP,resources/DP.BMP,Door3,0.3725,0.051875,1,0,0,1.4299,optionRight,70,9760,5,19,0,19,0,1,,,,,,,,,,,,,,,,,,,,,,,,,,,,,,,,,,,,,,,
,,,,,,,,2023-08-16_08h41.44.582,HF_wild_card,2022.2.4,Win32,59.93407252,636a30e7ba4faca50bd10fcf,64d2fd46c836a06233681665,64dc7da1e5aeabc44b864767,,,,,,,ctch,resources/DBN.BMP,resources/DP.BMP,Door2,-0.264375,-0.03625,1,0,0,1.8467,optionLeft,20,9780,5,20,0,20,0,1,,,,,,,,,,,,,,,,,,,,,,,,,,,,,,,,,,,,,,,
,,,,,,,,2023-08-16_08h41.44.582,HF_wild_card,2022.2.4,Win32,59.93407252,636a30e7ba4faca50bd10fcf,64d2fd46c836a06233681665,64dc7da1e5aeabc44b864767,,,,,,,decisionTrl,resources/DBN.BMP,resources/DR.BMP,Door1,0.369375,0.060625,1,0,0,3.1684,optionRight,30,9810,5,21,0,21,0,1,,,,,,,,,,,,,,,,,,,,,,,,,,,,,,,,,,,,,,,
,,,,,,,,2023-08-16_08h41.44.582,HF_wild_card,2022.2.4,Win32,59.93407252,636a30e7ba4faca50bd10fcf,64d2fd46c836a06233681665,64dc7da1e5aeabc44b864767,,,,,,,decisionTrl,resources/DBN.BMP,resources/DR.BMP,Door2,-0.229375,-0.04375,1,0,0,2.0053,optionLeft,20,9830,5,22,0,22,0,1,,,,,,,,,,,,,,,,,,,,,,,,,,,,,,,,,,,,,,,
,,,,,,,,2023-08-16_08h41.44.582,HF_wild_card,2022.2.4,Win32,59.93407252,636a30e7ba4faca50bd10fcf,64d2fd46c836a06233681665,64dc7da1e5aeabc44b864767,,,,,,,decisionTrl,resources/DP.BMP,resources/DB.BMP,Door3,-0.310625,-0.026875,1,0,0,3.2467,optionLeft,70,9900,5,23,0,23,0,1,,,,,,,,,,,,,,,,,,,,,,,,,,,,,,,,,,,,,,,
,,,,,,,,2023-08-16_08h41.44.582,HF_wild_card,2022.2.4,Win32,59.93407252,636a30e7ba4faca50bd10fcf,64d2fd46c836a06233681665,64dc7da1e5aeabc44b864767,,,,,,,sngl,resources/Empty.png,resources/DP.BMP,Door3,0.120625,-0.01375,1,0,0,1.0182,optionRight,70,9970,5,24,0,24,0,1,,,,,,,,,,,,,,,,,,,,,,,,,,,,,,,,,,,,,,,
,,,,,,,,2023-08-16_08h41.44.582,HF_wild_card,2022.2.4,Win32,59.93407252,636a30e7ba4faca50bd10fcf,64d2fd46c836a06233681665,64dc7da1e5aeabc44b864767,,,,,,,decisionTrl,resources/DBN.BMP,resources/DR.BMP,Door1,0.155625,0.015,1,0,0,2.3128,optionRight,30,10000,5,25,0,25,0,1,,,,,,,,,,,,,,,,,,,,,,,,,,,,,,,,,,,,,,,
,,,,,,,,2023-08-16_08h41.44.582,HF_wild_card,2022.2.4,Win32,59.93407252,636a30e7ba4faca50bd10fcf,64d2fd46c836a06233681665,64dc7da1e5aeabc44b864767,,,,,,,decisionTrl,resources/DG.BMP,resources/DB.BMP,Door4,0.161875,0.001875,1,0,0,3.0048,optionRight,80,10080,5,26,0,26,0,1,,,,,,,,,,,,,,,,,,,,,,,,,,,,,,,,,,,,,,,
,,,,,,,,2023-08-16_08h41.44.582,HF_wild_card,2022.2.4,Win32,59.93407252,636a30e7ba4faca50bd10fcf,64d2fd46c836a06233681665,64dc7da1e5aeabc44b864767,,,,,,,sngl,resources/DP.BMP,resources/Empty.png,Door3,-0.31125,-0.04,1,0,0,1.144,optionLeft,70,10150,5,27,0,27,0,1,,,,,,,,,,,,,,,,,,,,,,,,,,,,,,,,,,,,,,,
,,,,,,,,2023-08-16_08h41.44.582,HF_wild_card,2022.2.4,Win32,59.93407252,636a30e7ba4faca50bd10fcf,64d2fd46c836a06233681665,64dc7da1e5aeabc44b864767,,,,,,,decisionTrl,resources/DBN.BMP,resources/DR.BMP,Door1,0.219375,0.048125,1,0,0,1.4787,optionRight,30,10180,5,28,0,28,0,1,,,,,,,,,,,,,,,,,,,,,,,,,,,,,,,,,,,,,,,
,,,,,,,,2023-08-16_08h41.44.582,HF_wild_card,2022.2.4,Win32,59.93407252,636a30e7ba4faca50bd10fcf,64d2fd46c836a06233681665,64dc7da1e5aeabc44b864767,,,,,,,sngl,resources/Empty.png,resources/DG.BMP,WildCard_NonEx,0.18875,0.0025,1,0,0,1.094,optionRight,55,10235,5,29,0,29,0,1,,,,,,,,,,,,,,,,,,,,,,,,,,,,,,,,,,,,,,,
,,,,,,,,2023-08-16_08h41.44.582,HF_wild_card,2022.2.4,Win32,59.93407252,636a30e7ba4faca50bd10fcf,64d2fd46c836a06233681665,64dc7da1e5aeabc44b864767,,,,,,,ctch,resources/DP.BMP,resources/DBN.BMP,Door3,-0.25875,-0.028125,1,0,0,3.1374,optionLeft,70,10305,5,30,0,30,0,1,,,,,,,,,,,,,,,,,,,,,,,,,,,,,,,,,,,,,,,
,,,,,,,,2023-08-16_08h41.44.582,HF_wild_card,2022.2.4,Win32,59.93407252,636a30e7ba4faca50bd10fcf,64d2fd46c836a06233681665,64dc7da1e5aeabc44b864767,,,,,,,ctch,resources/DB.BMP,resources/DR.BMP,Door1,0.116875,-0.01,1,0,0,1.7474,optionRight,30,10335,5,31,0,31,0,1,,,,,,,,,,,,,,,,,,,,,,,,,,,,,,,,,,,,,,,
,,,,,,,,2023-08-16_08h41.44.582,HF_wild_card,2022.2.4,Win32,59.93407252,636a30e7ba4faca50bd10fcf,64d2fd46c836a06233681665,64dc7da1e5aeabc44b864767,,,,,,,ctch,resources/DB.BMP,resources/DR.BMP,Door4,-0.303125,-0.053125,1,0,0,1.1147,optionLeft,80,10415,5,32,0,32,0,1,,,,,,,,,,,,,,,,,,,,,,,,,,,,,,,,,,,,,,,
,,,,,,,,2023-08-16_08h41.44.582,HF_wild_card,2022.2.4,Win32,59.93407252,636a30e7ba4faca50bd10fcf,64d2fd46c836a06233681665,64dc7da1e5aeabc44b864767,,,,,,,ctch,resources/DR.BMP,resources/DB.BMP,Door1,-0.26,-0.008125,1,0,0,1.6043,optionLeft,30,10445,5,33,0,33,0,1,,,,,,,,,,,,,,,,,,,,,,,,,,,,,,,,,,,,,,,
,,,,,,,,2023-08-16_08h41.44.582,HF_wild_card,2022.2.4,Win32,59.93407252,636a30e7ba4faca50bd10fcf,64d2fd46c836a06233681665,64dc7da1e5aeabc44b864767,,,,,,,decisionTrl,resources/DR.BMP,resources/DBN.BMP,Door2,0.136875,0.00875,1,0,0,3.0452,optionRight,20,10465,5,34,0,34,0,1,,,,,,,,,,,,,,,,,,,,,,,,,,,,,,,,,,,,,,,
,,,,,,,,2023-08-16_08h41.44.582,HF_wild_card,2022.2.4,Win32,59.93407252,636a30e7ba4faca50bd10fcf,64d2fd46c836a06233681665,64dc7da1e5aeabc44b864767,,,,,,,sngl,resources/Empty.png,resources/DBN.BMP,Door2,0.225625,0.016875,1,0,0,0.9961,optionRight,20,10485,5,35,0,35,0,1,,,,,,,,,,,,,,,,,,,,,,,,,,,,,,,,,,,,,,,
,,,,,,,,2023-08-16_08h41.44.582,HF_wild_card,2022.2.4,Win32,59.93407252,636a30e7ba4faca50bd10fcf,64d2fd46c836a06233681665,64dc7da1e5aeabc44b864767,,,,,,,ctch,resources/DR.BMP,resources/DB.BMP,Door1,-0.285625,-0.034375,1,0,0,3.2301,optionLeft,30,10515,5,36,0,36,0,1,,,,,,,,,,,,,,,,,,,,,,,,,,,,,,,,,,,,,,,
,,,,,,,,2023-08-16_08h41.44.582,HF_wild_card,2022.2.4,Win32,59.93407252,636a30e7ba4faca50bd10fcf,64d2fd46c836a06233681665,64dc7da1e5aeabc44b864767,,,,,,,decisionTrl,resources/DR.BMP,resources/DBN.BMP,Door2,0.35125,0.07375,1,0,0,4.4638,optionRight,20,10535,5,37,0,37,0,1,,,,,,,,,,,,,,,,,,,,,,,,,,,,,,,,,,,,,,,
,,,,,,,,2023-08-16_08h41.44.582,HF_wild_card,2022.2.4,Win32,59.93407252,636a30e7ba4faca50bd10fcf,64d2fd46c836a06233681665,64dc7da1e5aeabc44b864767,,,,,,,decisionTrl,resources/DR.BMP,resources/DBN.BMP,Door1,-0.23375,-0.03375,1,0,0,1.3528,optionLeft,30,10565,5,38,0,38,0,1,,,,,,,,,,,,,,,,,,,,,,,,,,,,,,,,,,,,,,,
,,,,,,,,2023-08-16_08h41.44.582,HF_wild_card,2022.2.4,Win32,59.93407252,636a30e7ba4faca50bd10fcf,64d2fd46c836a06233681665,64dc7da1e5aeabc44b864767,,,,,,,ctch,resources/DP.BMP,resources/DBN.BMP,Door3,-0.3,-0.04,1,0,0,1.7122,optionLeft,70,10635,5,39,0,39,0,1,,,,,,,,,,,,,,,,,,,,,,,,,,,,,,,,,,,,,,,
,,,,,,,,2023-08-16_08h41.44.582,HF_wild_card,2022.2.4,Win32,59.93407252,636a30e7ba4faca50bd10fcf,64d2fd46c836a06233681665,64dc7da1e5aeabc44b864767,,,,,,,decisionTrl,resources/DR.BMP,resources/DBN.BMP,Door1,-0.21625,-0.03125,1,0,0,2.2628,optionLeft,30,10665,5,40,0,40,0,1,,,,,,,,,,,,,,,,,,,,,,,,,,,,,,,,,,,,,,,
,,,,,,,,2023-08-16_08h41.44.582,HF_wild_card,2022.2.4,Win32,59.93407252,636a30e7ba4faca50bd10fcf,64d2fd46c836a06233681665,64dc7da1e5aeabc44b864767,,,,,,,decisionTrl,resources/DR.BMP,resources/DG.BMP,WildCard_NonEx,0.30875,0.0375,1,0,0,1.4303,optionRight,55,10720,5,41,0,41,0,1,,,,,,,,,,,,,,,,,,,,,,,,,,,,,,,,,,,,,,,
,,,,,,,,2023-08-16_08h41.44.582,HF_wild_card,2022.2.4,Win32,59.93407252,636a30e7ba4faca50bd10fcf,64d2fd46c836a06233681665,64dc7da1e5aeabc44b864767,,,,,,,decisionTrl,resources/DG.BMP,resources/DR.BMP,WildCard_NonEx,-0.2475,-0.01375,1,0,0,1.6891,optionLeft,45,10765,5,42,0,42,0,1,,,,,,,,,,,,,,,,,,,,,,,,,,,,,,,,,,,,,,,
,,,,,,,,2023-08-16_08h41.44.582,HF_wild_card,2022.2.4,Win32,59.93407252,636a30e7ba4faca50bd10fcf,64d2fd46c836a06233681665,64dc7da1e5aeabc44b864767,,,,,,,decisionTrl,resources/DB.BMP,resources/DP.BMP,Door3,0.1575,0.01375,1,0,0,2.7406,optionRight,70,10835,5,43,0,43,0,1,,,,,,,,,,,,,,,,,,,,,,,,,,,,,,,,,,,,,,,
,,,,,,,,2023-08-16_08h41.44.582,HF_wild_card,2022.2.4,Win32,59.93407252,636a30e7ba4faca50bd10fcf,64d2fd46c836a06233681665,64dc7da1e5aeabc44b864767,,,,,,,,,,,,,,,,,,,,,,,,,,4,0,4,0,1,,,,,,,,,,,,,,,,,,,,,,,,,,,,,,,,,,
,,,,,,,,2023-08-16_08h41.44.582,HF_wild_card,2022.2.4,Win32,59.93407252,636a30e7ba4faca50bd10fcf,64d2fd46c836a06233681665,64dc7da1e5aeabc44b864767,,,,,,,decisionTrl,resources/DP.BMP,resources/DB.BMP,Door3,-0.2325,-0.15625,1,0,0,7.9003,optionLeft,70,10905,6,0,0,0,0,1,,,,,,,,,,,,,,,,,,,,,,,,,,,,,,,,,,,,,,,
,,,,,,,,2023-08-16_08h41.44.582,HF_wild_card,2022.2.4,Win32,59.93407252,636a30e7ba4faca50bd10fcf,64d2fd46c836a06233681665,64dc7da1e5aeabc44b864767,,,,,,,decisionTrl,resources/DBN.BMP,resources/DR.BMP,Door1,0.170625,-0.011875,1,0,0,2.2132,optionRight,30,10935,6,1,0,1,0,1,,,,,,,,,,,,,,,,,,,,,,,,,,,,,,,,,,,,,,,
,,,,,,,,2023-08-16_08h41.44.582,HF_wild_card,2022.2.4,Win32,59.93407252,636a30e7ba4faca50bd10fcf,64d2fd46c836a06233681665,64dc7da1e5aeabc44b864767,,,,,,,sngl,resources/Empty.png,resources/DP.BMP,Door3,0.279375,0.044375,1,0,0,1.1018,optionRight,70,11005,6,2,0,2,0,1,,,,,,,,,,,,,,,,,,,,,,,,,,,,,,,,,,,,,,,
,,,,,,,,2023-08-16_08h41.44.582,HF_wild_card,2022.2.4,Win32,59.93407252,636a30e7ba4faca50bd10fcf,64d2fd46c836a06233681665,64dc7da1e5aeabc44b864767,,,,,,,decisionTrl,resources/DB.BMP,resources/DP.BMP,Door4,-0.346875,-0.03625,1,0,0,2.5803,optionLeft,60,11065,6,3,0,3,0,1,,,,,,,,,,,,,,,,,,,,,,,,,,,,,,,,,,,,,,,
,,,,,,,,2023-08-16_08h41.44.582,HF_wild_card,2022.2.4,Win32,59.93407252,636a30e7ba4faca50bd10fcf,64d2fd46c836a06233681665,64dc7da1e5aeabc44b864767,,,,,,,ctch,resources/DP.BMP,resources/DBN.BMP,Door2,0.356875,0.08,1,0,0,2.1801,optionRight,20,11085,6,4,0,4,0,1,,,,,,,,,,,,,,,,,,,,,,,,,,,,,,,,,,,,,,,
,,,,,,,,2023-08-16_08h41.44.582,HF_wild_card,2022.2.4,Win32,59.93407252,636a30e7ba4faca50bd10fcf,64d2fd46c836a06233681665,64dc7da1e5aeabc44b864767,,,,,,,decisionTrl,resources/DG.BMP,resources/DP.BMP,WildCard_NonEx,-0.29625,-0.031875,1,0,0,2.214,optionLeft,55,11140,6,5,0,5,0,1,,,,,,,,,,,,,,,,,,,,,,,,,,,,,,,,,,,,,,,
,,,,,,,,2023-08-16_08h41.44.582,HF_wild_card,2022.2.4,Win32,59.93407252,636a30e7ba4faca50bd10fcf,64d2fd46c836a06233681665,64dc7da1e5aeabc44b864767,,,,,,,decisionTrl,resources/DG.BMP,resources/DR.BMP,Door1,0.38,0.0725,1,0,0,1.2966,optionRight,30,11170,6,6,0,6,0,1,,,,,,,,,,,,,,,,,,,,,,,,,,,,,,,,,,,,,,,
,,,,,,,,2023-08-16_08h41.44.582,HF_wild_card,2022.2.4,Win32,59.93407252,636a30e7ba4faca50bd10fcf,64d2fd46c836a06233681665,64dc7da1e5aeabc44b864767,,,,,,,sngl,resources/Empty.png,resources/DG.BMP,WildCard_NonEx,0.274375,0.055625,1,0,0,0.9454,optionRight,55,11225,6,7,0,7,0,1,,,,,,,,,,,,,,,,,,,,,,,,,,,,,,,,,,,,,,,
,,,,,,,,2023-08-16_08h41.44.582,HF_wild_card,2022.2.4,Win32,59.93407252,636a30e7ba4faca50bd10fcf,64d2fd46c836a06233681665,64dc7da1e5aeabc44b864767,,,,,,,decisionTrl,resources/DR.BMP,resources/DBN.BMP,Door2,0.13625,0.02625,1,0,0,1.9955,optionRight,40,11265,6,8,0,8,0,1,,,,,,,,,,,,,,,,,,,,,,,,,,,,,,,,,,,,,,,
,,,,,,,,2023-08-16_08h41.44.582,HF_wild_card,2022.2.4,Win32,59.93407252,636a30e7ba4faca50bd10fcf,64d2fd46c836a06233681665,64dc7da1e5aeabc44b864767,,,,,,,decisionTrl,resources/DP.BMP,resources/DB.BMP,Door4,0.116875,0.033125,1,0,0,2.0392,optionRight,60,11325,6,9,0,9,0,1,,,,,,,,,,,,,,,,,,,,,,,,,,,,,,,,,,,,,,,
,,,,,,,,2023-08-16_08h41.44.582,HF_wild_card,2022.2.4,Win32,59.93407252,636a30e7ba4faca50bd10fcf,64d2fd46c836a06233681665,64dc7da1e5aeabc44b864767,,,,,,,decisionTrl,resources/DP.BMP,resources/DB.BMP,Door3,-0.133125,-0.011875,1,0,0,1.1311,optionLeft,70,11395,6,10,0,10,0,1,,,,,,,,,,,,,,,,,,,,,,,,,,,,,,,,,,,,,,,
,,,,,,,,2023-08-16_08h41.44.582,HF_wild_card,2022.2.4,Win32,59.93407252,636a30e7ba4faca50bd10fcf,64d2fd46c836a06233681665,64dc7da1e5aeabc44b864767,,,,,,,sngl,resources/Empty.png,resources/DBN.BMP,Door2,0.121875,0.025625,1,0,0,1.7885,optionRight,40,11435,6,11,0,11,0,1,,,,,,,,,,,,,,,,,,,,,,,,,,,,,,,,,,,,,,,
,,,,,,,,2023-08-16_08h41.44.582,HF_wild_card,2022.2.4,Win32,59.93407252,636a30e7ba4faca50bd10fcf,64d2fd46c836a06233681665,64dc7da1e5aeabc44b864767,,,,,,,decisionTrl,resources/DR.BMP,resources/DBN.BMP,Door2,0.1225,0.031875,1,0,0,4.5137,optionRight,40,11475,6,12,0,12,0,1,,,,,,,,,,,,,,,,,,,,,,,,,,,,,,,,,,,,,,,
,,,,,,,,2023-08-16_08h41.44.582,HF_wild_card,2022.2.4,Win32,59.93407252,636a30e7ba4faca50bd10fcf,64d2fd46c836a06233681665,64dc7da1e5aeabc44b864767,,,,,,,sngl,resources/DB.BMP,resources/Empty.png,Door4,-0.120625,-0.018125,1,0,0,1.3395,optionLeft,60,11535,6,13,0,13,0,1,,,,,,,,,,,,,,,,,,,,,,,,,,,,,,,,,,,,,,,
,,,,,,,,2023-08-16_08h41.44.582,HF_wild_card,2022.2.4,Win32,59.93407252,636a30e7ba4faca50bd10fcf,64d2fd46c836a06233681665,64dc7da1e5aeabc44b864767,,,,,,,decisionTrl,resources/DR.BMP,resources/DG.BMP,Door1,-0.13,-0.006875,1,0,0,2.7221,optionLeft,30,11565,6,14,0,14,0,1,,,,,,,,,,,,,,,,,,,,,,,,,,,,,,,,,,,,,,,
,,,,,,,,2023-08-16_08h41.44.582,HF_wild_card,2022.2.4,Win32,59.93407252,636a30e7ba4faca50bd10fcf,64d2fd46c836a06233681665,64dc7da1e5aeabc44b864767,,,,,,,sngl,resources/DR.BMP,resources/Empty.png,Door1,-0.12875,-0.008125,1,0,0,1.2002,optionLeft,30,11595,6,15,0,15,0,1,,,,,,,,,,,,,,,,,,,,,,,,,,,,,,,,,,,,,,,
,,,,,,,,2023-08-16_08h41.44.582,HF_wild_card,2022.2.4,Win32,59.93407252,636a30e7ba4faca50bd10fcf,64d2fd46c836a06233681665,64dc7da1e5aeabc44b864767,,,,,,,ctch,resources/DB.BMP,resources/DR.BMP,Door1,0.1225,0.0275,1,0,0,3.3623,optionRight,30,11625,6,16,0,16,0,1,,,,,,,,,,,,,,,,,,,,,,,,,,,,,,,,,,,,,,,
,,,,,,,,2023-08-16_08h41.44.582,HF_wild_card,2022.2.4,Win32,59.93407252,636a30e7ba4faca50bd10fcf,64d2fd46c836a06233681665,64dc7da1e5aeabc44b864767,,,,,,,decisionTrl,resources/DG.BMP,resources/DB.BMP,WildCard_NonEx,-0.128125,0.00125,1,0,0,1.9394,optionLeft,45,11670,6,17,0,17,0,1,,,,,,,,,,,,,,,,,,,,,,,,,,,,,,,,,,,,,,,
,,,,,,,,2023-08-16_08h41.44.582,HF_wild_card,2022.2.4,Win32,59.93407252,636a30e7ba4faca50bd10fcf,64d2fd46c836a06233681665,64dc7da1e5aeabc44b864767,,,,,,,sngl,resources/DG.BMP,resources/Empty.png,WildCard_NonEx,-0.118125,0.00125,1,0,0,1.4127,optionLeft,55,11725,6,18,0,18,0,1,,,,,,,,,,,,,,,,,,,,,,,,,,,,,,,,,,,,,,,
,,,,,,,,2023-08-16_08h41.44.582,HF_wild_card,2022.2.4,Win32,59.93407252,636a30e7ba4faca50bd10fcf,64d2fd46c836a06233681665,64dc7da1e5aeabc44b864767,,,,,,,decisionTrl,resources/DR.BMP,resources/DBN.BMP,Door1,-0.125625,0.0125,1,0,0,3.4791,optionLeft,30,11755,6,19,0,19,0,1,,,,,,,,,,,,,,,,,,,,,,,,,,,,,,,,,,,,,,,
,,,,,,,,2023-08-16_08h41.44.582,HF_wild_card,2022.2.4,Win32,59.93407252,636a30e7ba4faca50bd10fcf,64d2fd46c836a06233681665,64dc7da1e5aeabc44b864767,,,,,,,ctch,resources/DBN.BMP,resources/DP.BMP,Door2,-0.11625,-0.004375,1,0,0,1.9538,optionLeft,20,11775,6,20,0,20,0,1,,,,,,,,,,,,,,,,,,,,,,,,,,,,,,,,,,,,,,,
,,,,,,,,2023-08-16_08h41.44.582,HF_wild_card,2022.2.4,Win32,59.93407252,636a30e7ba4faca50bd10fcf,64d2fd46c836a06233681665,64dc7da1e5aeabc44b864767,,,,,,,sngl,resources/DG.BMP,resources/Empty.png,WildCard_NonEx,-0.11375,0,1,0,0,1.2798,optionLeft,45,11820,6,21,0,21,0,1,,,,,,,,,,,,,,,,,,,,,,,,,,,,,,,,,,,,,,,
,,,,,,,,2023-08-16_08h41.44.582,HF_wild_card,2022.2.4,Win32,59.93407252,636a30e7ba4faca50bd10fcf,64d2fd46c836a06233681665,64dc7da1e5aeabc44b864767,,,,,,,decisionTrl,resources/DB.BMP,resources/DP.BMP,Door3,0.135625,0.015625,1,0,0,1.7066,optionRight,70,11890,6,22,0,22,0,1,,,,,,,,,,,,,,,,,,,,,,,,,,,,,,,,,,,,,,,
,,,,,,,,2023-08-16_08h41.44.582,HF_wild_card,2022.2.4,Win32,59.93407252,636a30e7ba4faca50bd10fcf,64d2fd46c836a06233681665,64dc7da1e5aeabc44b864767,,,,,,,decisionTrl,resources/DR.BMP,resources/DBN.BMP,Door1,-0.11875,0.009375,1,0,0,2.7318,optionLeft,30,11920,6,23,0,23,0,1,,,,,,,,,,,,,,,,,,,,,,,,,,,,,,,,,,,,,,,
,,,,,,,,2023-08-16_08h41.44.582,HF_wild_card,2022.2.4,Win32,59.93407252,636a30e7ba4faca50bd10fcf,64d2fd46c836a06233681665,64dc7da1e5aeabc44b864767,,,,,,,decisionTrl,resources/DP.BMP,resources/DG.BMP,WildCard_NonEx,0.113125,0.025,1,0,0,1.9638,optionRight,55,11975,6,24,0,24,0,1,,,,,,,,,,,,,,,,,,,,,,,,,,,,,,,,,,,,,,,
,,,,,,,,2023-08-16_08h41.44.582,HF_wild_card,2022.2.4,Win32,59.93407252,636a30e7ba4faca50bd10fcf,64d2fd46c836a06233681665,64dc7da1e5aeabc44b864767,,,,,,,decisionTrl,resources/DG.BMP,resources/DBN.BMP,Door2,0.1175,0.0175,1,0,0,1.664,optionRight,40,12015,6,25,0,25,0,1,,,,,,,,,,,,,,,,,,,,,,,,,,,,,,,,,,,,,,,
,,,,,,,,2023-08-16_08h41.44.582,HF_wild_card,2022.2.4,Win32,59.93407252,636a30e7ba4faca50bd10fcf,64d2fd46c836a06233681665,64dc7da1e5aeabc44b864767,,,,,,,decisionTrl,resources/DB.BMP,resources/DP.BMP,Door4,-0.1175,-0.00875,1,0,0,2.3958,optionLeft,80,12095,6,26,0,26,0,1,,,,,,,,,,,,,,,,,,,,,,,,,,,,,,,,,,,,,,,
,,,,,,,,2023-08-16_08h41.44.582,HF_wild_card,2022.2.4,Win32,59.93407252,636a30e7ba4faca50bd10fcf,64d2fd46c836a06233681665,64dc7da1e5aeabc44b864767,,,,,,,ctch,resources/DR.BMP,resources/DB.BMP,Door4,0.134375,0.01625,1,0,0,2.1472,optionRight,60,12155,6,27,0,27,0,1,,,,,,,,,,,,,,,,,,,,,,,,,,,,,,,,,,,,,,,
,,,,,,,,2023-08-16_08h41.44.582,HF_wild_card,2022.2.4,Win32,59.93407252,636a30e7ba4faca50bd10fcf,64d2fd46c836a06233681665,64dc7da1e5aeabc44b864767,,,,,,,ctch,resources/DB.BMP,resources/DR.BMP,Door1,0.1025,0.02125,1,0,0,1.7788,optionRight,30,12185,6,28,0,28,0,1,,,,,,,,,,,,,,,,,,,,,,,,,,,,,,,,,,,,,,,
,,,,,,,,2023-08-16_08h41.44.582,HF_wild_card,2022.2.4,Win32,59.93407252,636a30e7ba4faca50bd10fcf,64d2fd46c836a06233681665,64dc7da1e5aeabc44b864767,,,,,,,sngl,resources/Empty.png,resources/DG.BMP,WildCard_NonEx,0.12,0.013125,1,0,0,1.3183,optionRight,45,12230,6,29,0,29,0,1,,,,,,,,,,,,,,,,,,,,,,,,,,,,,,,,,,,,,,,
,,,,,,,,2023-08-16_08h41.44.582,HF_wild_card,2022.2.4,Win32,59.93407252,636a30e7ba4faca50bd10fcf,64d2fd46c836a06233681665,64dc7da1e5aeabc44b864767,,,,,,,decisionTrl,resources/DBN.BMP,resources/DR.BMP,Door1,0.135625,0.01,1,0,0,1.8493,optionRight,30,12260,6,30,0,30,0,1,,,,,,,,,,,,,,,,,,,,,,,,,,,,,,,,,,,,,,,
,,,,,,,,2023-08-16_08h41.44.582,HF_wild_card,2022.2.4,Win32,59.93407252,636a30e7ba4faca50bd10fcf,64d2fd46c836a06233681665,64dc7da1e5aeabc44b864767,,,,,,,sngl,resources/DP.BMP,resources/Empty.png,Door3,-0.15625,0.006875,1,0,0,1.2386,optionLeft,70,12330,6,31,0,31,0,1,,,,,,,,,,,,,,,,,,,,,,,,,,,,,,,,,,,,,,,
,,,,,,,,2023-08-16_08h41.44.582,HF_wild_card,2022.2.4,Win32,59.93407252,636a30e7ba4faca50bd10fcf,64d2fd46c836a06233681665,64dc7da1e5aeabc44b864767,,,,,,,decisionTrl,resources/DBN.BMP,resources/DR.BMP,Door2,-0.124375,0.003125,1,0,0,2.0792,optionLeft,40,12370,6,32,0,32,0,1,,,,,,,,,,,,,,,,,,,,,,,,,,,,,,,,,,,,,,,
,,,,,,,,2023-08-16_08h41.44.582,HF_wild_card,2022.2.4,Win32,59.93407252,636a30e7ba4faca50bd10fcf,64d2fd46c836a06233681665,64dc7da1e5aeabc44b864767,,,,,,,ctch,resources/DR.BMP,resources/DB.BMP,Door4,0.1275,0.01,1,0,0,2.0631,optionRight,80,12450,6,33,0,33,0,1,,,,,,,,,,,,,,,,,,,,,,,,,,,,,,,,,,,,,,,
,,,,,,,,2023-08-16_08h41.44.582,HF_wild_card,2022.2.4,Win32,59.93407252,636a30e7ba4faca50bd10fcf,64d2fd46c836a06233681665,64dc7da1e5aeabc44b864767,,,,,,,decisionTrl,resources/DB.BMP,resources/DG.BMP,Door4,-0.125,-0.0175,1,0,0,2.2127,optionLeft,80,12530,6,34,0,34,0,1,,,,,,,,,,,,,,,,,,,,,,,,,,,,,,,,,,,,,,,
,,,,,,,,2023-08-16_08h41.44.582,HF_wild_card,2022.2.4,Win32,59.93407252,636a30e7ba4faca50bd10fcf,64d2fd46c836a06233681665,64dc7da1e5aeabc44b864767,,,,,,,ctch,resources/DBN.BMP,resources/DP.BMP,Door3,0.114375,0.020625,1,0,0,1.1794,optionRight,70,12600,6,35,0,35,0,1,,,,,,,,,,,,,,,,,,,,,,,,,,,,,,,,,,,,,,,
,,,,,,,,2023-08-16_08h41.44.582,HF_wild_card,2022.2.4,Win32,59.93407252,636a30e7ba4faca50bd10fcf,64d2fd46c836a06233681665,64dc7da1e5aeabc44b864767,,,,,,,decisionTrl,resources/DBN.BMP,resources/DG.BMP,Door2,-0.12125,-0.01,1,0,0,1.4142,optionLeft,20,12620,6,36,0,36,0,1,,,,,,,,,,,,,,,,,,,,,,,,,,,,,,,,,,,,,,,
,,,,,,,,2023-08-16_08h41.44.582,HF_wild_card,2022.2.4,Win32,59.93407252,636a30e7ba4faca50bd10fcf,64d2fd46c836a06233681665,64dc7da1e5aeabc44b864767,,,,,,,sngl,resources/DBN.BMP,resources/Empty.png,Door2,-0.12125,0.001875,1,0,0,1.0965,optionLeft,20,12640,6,37,0,37,0,1,,,,,,,,,,,,,,,,,,,,,,,,,,,,,,,,,,,,,,,
,,,,,,,,2023-08-16_08h41.44.582,HF_wild_card,2022.2.4,Win32,59.93407252,636a30e7ba4faca50bd10fcf,64d2fd46c836a06233681665,64dc7da1e5aeabc44b864767,,,,,,,decisionTrl,resources/DB.BMP,resources/DP.BMP,Door4,-0.13625,0.0025,1,0,0,1.6296,optionLeft,80,12720,6,38,0,38,0,1,,,,,,,,,,,,,,,,,,,,,,,,,,,,,,,,,,,,,,,
,,,,,,,,2023-08-16_08h41.44.582,HF_wild_card,2022.2.4,Win32,59.93407252,636a30e7ba4faca50bd10fcf,64d2fd46c836a06233681665,64dc7da1e5aeabc44b864767,,,,,,,sngl,resources/Empty.png,resources/DR.BMP,Door1,0.118125,0.01,1,0,0,1.2467,optionRight,30,12750,6,39,0,39,0,1,,,,,,,,,,,,,,,,,,,,,,,,,,,,,,,,,,,,,,,
,,,,,,,,2023-08-16_08h41.44.582,HF_wild_card,2022.2.4,Win32,59.93407252,636a30e7ba4faca50bd10fcf,64d2fd46c836a06233681665,64dc7da1e5aeabc44b864767,,,,,,,decisionTrl,resources/DBN.BMP,resources/DR.BMP,Door2,-0.13625,-0.011875,1,0,0,1.2187,optionLeft,20,12770,6,40,0,40,0,1,,,,,,,,,,,,,,,,,,,,,,,,,,,,,,,,,,,,,,,
,,,,,,,,2023-08-16_08h41.44.582,HF_wild_card,2022.2.4,Win32,59.93407252,636a30e7ba4faca50bd10fcf,64d2fd46c836a06233681665,64dc7da1e5aeabc44b864767,,,,,,,sngl,resources/Empty.png,resources/DB.BMP,Door4,0.12125,0.01,1,0,0,1.2833,optionRight,80,12850,6,41,0,41,0,1,,,,,,,,,,,,,,,,,,,,,,,,,,,,,,,,,,,,,,,
,,,,,,,,2023-08-16_08h41.44.582,HF_wild_card,2022.2.4,Win32,59.93407252,636a30e7ba4faca50bd10fcf,64d2fd46c836a06233681665,64dc7da1e5aeabc44b864767,,,,,,,decisionTrl,resources/DP.BMP,resources/DB.BMP,Door4,0.126875,0.003125,1,0,0,3.0306,optionRight,80,12930,6,42,0,42,0,1,,,,,,,,,,,,,,,,,,,,,,,,,,,,,,,,,,,,,,,
,,,,,,,,2023-08-16_08h41.44.582,HF_wild_card,2022.2.4,Win32,59.93407252,636a30e7ba4faca50bd10fcf,64d2fd46c836a06233681665,64dc7da1e5aeabc44b864767,,,,,,,ctch,resources/DP.BMP,resources/DBN.BMP,Door3,-0.131875,-0.020625,1,0,0,1.2804,optionLeft,70,13000,6,43,0,43,0,1,,,,,,,,,,,,,,,,,,,,,,,,,,,,,,,,,,,,,,,
,,,,,,,,2023-08-16_08h41.44.582,HF_wild_card,2022.2.4,Win32,59.93407252,636a30e7ba4faca50bd10fcf,64d2fd46c836a06233681665,64dc7da1e5aeabc44b864767,,,,,,,,,,,,,,,,,,,,,,,,,,5,0,5,0,1,,,,,,,,,,,,,,,,,,,,,,,,,,,,,,,,,,
,,,,,,,,2023-08-16_08h41.44.582,HF_wild_card,2022.2.4,Win32,59.93407252,636a30e7ba4faca50bd10fcf,64d2fd46c836a06233681665,64dc7da1e5aeabc44b864767,,,,,,,ctch,resources/DP.BMP,resources/DBN.BMP,Door3,-0.148125,0.0225,1,0,0,5.5566,optionLeft,70,13070,7,0,0,0,0,1,,,,,,,,,,,,,,,,,,,,,,,,,,,,,,,,,,,,,,,
,,,,,,,,2023-08-16_08h41.44.582,HF_wild_card,2022.2.4,Win32,59.93407252,636a30e7ba4faca50bd10fcf,64d2fd46c836a06233681665,64dc7da1e5aeabc44b864767,,,,,,,decisionTrl,resources/DBN.BMP,resources/DR.BMP,Door1,0.13375,0.0375,1,0,0,5.6043,optionRight,30,13100,7,1,0,1,0,1,,,,,,,,,,,,,,,,,,,,,,,,,,,,,,,,,,,,,,,
,,,,,,,,2023-08-16_08h41.44.582,HF_wild_card,2022.2.4,Win32,59.93407252,636a30e7ba4faca50bd10fcf,64d2fd46c836a06233681665,64dc7da1e5aeabc44b864767,,,,,,,ctch,resources/DB.BMP,resources/DR.BMP,Door4,-0.165,0.023125,1,0,0,2.8231,optionLeft,80,13180,7,2,0,2,0,1,,,,,,,,,,,,,,,,,,,,,,,,,,,,,,,,,,,,,,,
,,,,,,,,2023-08-16_08h41.44.582,HF_wild_card,2022.2.4,Win32,59.93407252,636a30e7ba4faca50bd10fcf,64d2fd46c836a06233681665,64dc7da1e5aeabc44b864767,,,,,,,ctch,resources/DBN.BMP,resources/DP.BMP,Door2,-0.17375,-0.010625,1,0,0,1.5891,optionLeft,40,13220,7,3,0,3,0,1,,,,,,,,,,,,,,,,,,,,,,,,,,,,,,,,,,,,,,,
,,,,,,,,2023-08-16_08h41.44.582,HF_wild_card,2022.2.4,Win32,59.93407252,636a30e7ba4faca50bd10fcf,64d2fd46c836a06233681665,64dc7da1e5aeabc44b864767,,,,,,,decisionTrl,resources/DB.BMP,resources/DP.BMP,Door3,0.130625,0.000625,1,0,0,1.1804,optionRight,70,13290,7,4,0,4,0,1,,,,,,,,,,,,,,,,,,,,,,,,,,,,,,,,,,,,,,,
,,,,,,,,2023-08-16_08h41.44.582,HF_wild_card,2022.2.4,Win32,59.93407252,636a30e7ba4faca50bd10fcf,64d2fd46c836a06233681665,64dc7da1e5aeabc44b864767,,,,,,,ctch,resources/DP.BMP,resources/DBN.BMP,Door3,-0.153125,0.00125,1,0,0,1.9149,optionLeft,70,13360,7,5,0,5,0,1,,,,,,,,,,,,,,,,,,,,,,,,,,,,,,,,,,,,,,,
,,,,,,,,2023-08-16_08h41.44.582,HF_wild_card,2022.2.4,Win32,59.93407252,636a30e7ba4faca50bd10fcf,64d2fd46c836a06233681665,64dc7da1e5aeabc44b864767,,,,,,,decisionTrl,resources/DB.BMP,resources/DP.BMP,Door3,0.146875,-0.040625,1,0,0,3.2489,optionRight,70,13430,7,6,0,6,0,1,,,,,,,,,,,,,,,,,,,,,,,,,,,,,,,,,,,,,,,
,,,,,,,,2023-08-16_08h41.44.582,HF_wild_card,2022.2.4,Win32,59.93407252,636a30e7ba4faca50bd10fcf,64d2fd46c836a06233681665,64dc7da1e5aeabc44b864767,,,,,,,decisionTrl,resources/DR.BMP,resources/DBN.BMP,Door1,-0.13375,0.000625,1,0,0,1.64,optionLeft,30,13460,7,7,0,7,0,1,,,,,,,,,,,,,,,,,,,,,,,,,,,,,,,,,,,,,,,
,,,,,,,,2023-08-16_08h41.44.582,HF_wild_card,2022.2.4,Win32,59.93407252,636a30e7ba4faca50bd10fcf,64d2fd46c836a06233681665,64dc7da1e5aeabc44b864767,,,,,,,decisionTrl,resources/DBN.BMP,resources/DR.BMP,Door2,-0.14875,-0.028125,1,0,0,2.5987,optionLeft,40,13500,7,8,0,8,0,1,,,,,,,,,,,,,,,,,,,,,,,,,,,,,,,,,,,,,,,
,,,,,,,,2023-08-16_08h41.44.582,HF_wild_card,2022.2.4,Win32,59.93407252,636a30e7ba4faca50bd10fcf,64d2fd46c836a06233681665,64dc7da1e5aeabc44b864767,,,,,,,ctch,resources/DBN.BMP,resources/DP.BMP,Door3,0.1575,-0.01125,1,0,0,1.0491,optionRight,70,13570,7,9,0,9,0,1,,,,,,,,,,,,,,,,,,,,,,,,,,,,,,,,,,,,,,,
,,,,,,,,2023-08-16_08h41.44.582,HF_wild_card,2022.2.4,Win32,59.93407252,636a30e7ba4faca50bd10fcf,64d2fd46c836a06233681665,64dc7da1e5aeabc44b864767,,,,,,,decisionTrl,resources/DP.BMP,resources/DB.BMP,Door3,-0.14875,0,1,0,0,1.3322,optionLeft,70,13640,7,10,0,10,0,1,,,,,,,,,,,,,,,,,,,,,,,,,,,,,,,,,,,,,,,
,,,,,,,,2023-08-16_08h41.44.582,HF_wild_card,2022.2.4,Win32,59.93407252,636a30e7ba4faca50bd10fcf,64d2fd46c836a06233681665,64dc7da1e5aeabc44b864767,,,,,,,decisionTrl,resources/DBN.BMP,resources/DR.BMP,Door1,0.14375,-0.014375,1,0,0,2.4325,optionRight,30,13670,7,11,0,11,0,1,,,,,,,,,,,,,,,,,,,,,,,,,,,,,,,,,,,,,,,
,,,,,,,,2023-08-16_08h41.44.582,HF_wild_card,2022.2.4,Win32,59.93407252,636a30e7ba4faca50bd10fcf,64d2fd46c836a06233681665,64dc7da1e5aeabc44b864767,,,,,,,decisionTrl,resources/DR.BMP,resources/DBN.BMP,Door2,0.149375,0.00125,1,0,0,2.7424,optionRight,40,13710,7,12,0,12,0,1,,,,,,,,,,,,,,,,,,,,,,,,,,,,,,,,,,,,,,,
,,,,,,,,2023-08-16_08h41.44.582,HF_wild_card,2022.2.4,Win32,59.93407252,636a30e7ba4faca50bd10fcf,64d2fd46c836a06233681665,64dc7da1e5aeabc44b864767,,,,,,,ctch,resources/DR.BMP,resources/DB.BMP,Door1,-0.150625,-0.014375,1,0,0,1.5984,optionLeft,30,13740,7,13,0,13,0,1,,,,,,,,,,,,,,,,,,,,,,,,,,,,,,,,,,,,,,,
,,,,,,,,2023-08-16_08h41.44.582,HF_wild_card,2022.2.4,Win32,59.93407252,636a30e7ba4faca50bd10fcf,64d2fd46c836a06233681665,64dc7da1e5aeabc44b864767,,,,,,,decisionTrl,resources/DBN.BMP,resources/DR.BMP,Door1,0.14875,-0.004375,1,0,0,2.9745,optionRight,30,13770,7,14,0,14,0,1,,,,,,,,,,,,,,,,,,,,,,,,,,,,,,,,,,,,,,,
,,,,,,,,2023-08-16_08h41.44.582,HF_wild_card,2022.2.4,Win32,59.93407252,636a30e7ba4faca50bd10fcf,64d2fd46c836a06233681665,64dc7da1e5aeabc44b864767,,,,,,,ctch,resources/DB.BMP,resources/DR.BMP,Door4,-0.145625,-0.02,1,0,0,1.516,optionLeft,80,13850,7,15,0,15,0,1,,,,,,,,,,,,,,,,,,,,,,,,,,,,,,,,,,,,,,,
,,,,,,,,2023-08-16_08h41.44.582,HF_wild_card,2022.2.4,Win32,59.93407252,636a30e7ba4faca50bd10fcf,64d2fd46c836a06233681665,64dc7da1e5aeabc44b864767,,,,,,,decisionTrl,resources/DBN.BMP,resources/DR.BMP,Door1,0.15625,-0.031875,1,0,0,3.6654,optionRight,30,13880,7,16,0,16,0,1,,,,,,,,,,,,,,,,,,,,,,,,,,,,,,,,,,,,,,,
,,,,,,,,2023-08-16_08h41.44.582,HF_wild_card,2022.2.4,Win32,59.93407252,636a30e7ba4faca50bd10fcf,64d2fd46c836a06233681665,64dc7da1e5aeabc44b864767,,,,,,,decisionTrl,resources/DBN.BMP,resources/DR.BMP,Door2,-0.139375,-0.03125,1,0,0,1.3989,optionLeft,40,13920,7,17,0,17,0,1,,,,,,,,,,,,,,,,,,,,,,,,,,,,,,,,,,,,,,,
,,,,,,,,2023-08-16_08h41.44.582,HF_wild_card,2022.2.4,Win32,59.93407252,636a30e7ba4faca50bd10fcf,64d2fd46c836a06233681665,64dc7da1e5aeabc44b864767,,,,,,,ctch,resources/DR.BMP,resources/DB.BMP,Door4,0.124375,-0.0325,1,0,0,1.9613,optionRight,80,14000,7,18,0,18,0,1,,,,,,,,,,,,,,,,,,,,,,,,,,,,,,,,,,,,,,,
,,,,,,,,2023-08-16_08h41.44.582,HF_wild_card,2022.2.4,Win32,59.93407252,636a30e7ba4faca50bd10fcf,64d2fd46c836a06233681665,64dc7da1e5aeabc44b864767,,,,,,,decisionTrl,resources/DR.BMP,resources/DBN.BMP,Door1,-0.14875,-0.019375,1,0,0,2.2884,optionLeft,30,14030,7,19,0,19,0,1,,,,,,,,,,,,,,,,,,,,,,,,,,,,,,,,,,,,,,,
,,,,,,,,2023-08-16_08h41.44.582,HF_wild_card,2022.2.4,Win32,59.93407252,636a30e7ba4faca50bd10fcf,64d2fd46c836a06233681665,64dc7da1e5aeabc44b864767,,,,,,,ctch,resources/DR.BMP,resources/DB.BMP,Door4,0.125,-0.02625,1,0,0,2.1231,optionRight,80,14110,7,20,0,20,0,1,,,,,,,,,,,,,,,,,,,,,,,,,,,,,,,,,,,,,,,
,,,,,,,,2023-08-16_08h41.44.582,HF_wild_card,2022.2.4,Win32,59.93407252,636a30e7ba4faca50bd10fcf,64d2fd46c836a06233681665,64dc7da1e5aeabc44b864767,,,,,,,decisionTrl,resources/DB.BMP,resources/DP.BMP,Door4,-0.136875,-0.028125,1,0,0,2.1732,optionLeft,80,14190,7,21,0,21,0,1,,,,,,,,,,,,,,,,,,,,,,,,,,,,,,,,,,,,,,,
,,,,,,,,2023-08-16_08h41.44.582,HF_wild_card,2022.2.4,Win32,59.93407252,636a30e7ba4faca50bd10fcf,64d2fd46c836a06233681665,64dc7da1e5aeabc44b864767,,,,,,,decisionTrl,resources/DR.BMP,resources/DBN.BMP,Door2,0.140625,-0.0225,1,0,0,1.6357,optionRight,40,14230,7,22,0,22,0,1,,,,,,,,,,,,,,,,,,,,,,,,,,,,,,,,,,,,,,,
,,,,,,,,2023-08-16_08h41.44.582,HF_wild_card,2022.2.4,Win32,59.93407252,636a30e7ba4faca50bd10fcf,64d2fd46c836a06233681665,64dc7da1e5aeabc44b864767,,,,,,,decisionTrl,resources/DP.BMP,resources/DB.BMP,Door4,0.1475,-0.0025,1,0,0,2.6165,optionRight,60,14290,7,23,0,23,0,1,,,,,,,,,,,,,,,,,,,,,,,,,,,,,,,,,,,,,,,
,,,,,,,,2023-08-16_08h41.44.582,HF_wild_card,2022.2.4,Win32,59.93407252,636a30e7ba4faca50bd10fcf,64d2fd46c836a06233681665,64dc7da1e5aeabc44b864767,,,,,,,decisionTrl,resources/DR.BMP,resources/DBN.BMP,Door1,-0.14,-0.028125,1,0,0,2.3665,optionLeft,30,14320,7,24,0,24,0,1,,,,,,,,,,,,,,,,,,,,,,,,,,,,,,,,,,,,,,,
,,,,,,,,2023-08-16_08h41.44.582,HF_wild_card,2022.2.4,Win32,59.93407252,636a30e7ba4faca50bd10fcf,64d2fd46c836a06233681665,64dc7da1e5aeabc44b864767,,,,,,,decisionTrl,resources/DB.BMP,resources/DP.BMP,Door3,0.131875,-0.0275,1,0,0,1.8817,optionRight,70,14390,7,25,0,25,0,1,,,,,,,,,,,,,,,,,,,,,,,,,,,,,,,,,,,,,,,
,,,,,,,,2023-08-16_08h41.44.582,HF_wild_card,2022.2.4,Win32,59.93407252,636a30e7ba4faca50bd10fcf,64d2fd46c836a06233681665,64dc7da1e5aeabc44b864767,,,,,,,ctch,resources/DP.BMP,resources/DBN.BMP,Door2,0.12875,-0.019375,1,0,0,2.2906,optionRight,20,14410,7,26,0,26,0,1,,,,,,,,,,,,,,,,,,,,,,,,,,,,,,,,,,,,,,,
,,,,,,,,2023-08-16_08h41.44.582,HF_wild_card,2022.2.4,Win32,59.93407252,636a30e7ba4faca50bd10fcf,64d2fd46c836a06233681665,64dc7da1e5aeabc44b864767,,,,,,,ctch,resources/DB.BMP,resources/DR.BMP,Door4,-0.126875,-0.02375,1,0,0,2.1525,optionLeft,60,14470,7,27,0,27,0,1,,,,,,,,,,,,,,,,,,,,,,,,,,,,,,,,,,,,,,,
,,,,,,,,2023-08-16_08h41.44.582,HF_wild_card,2022.2.4,Win32,59.93407252,636a30e7ba4faca50bd10fcf,64d2fd46c836a06233681665,64dc7da1e5aeabc44b864767,,,,,,,decisionTrl,resources/DP.BMP,resources/DB.BMP,Door4,0.1225,-0.019375,1,0,0,2.4814,optionRight,60,14530,7,28,0,28,0,1,,,,,,,,,,,,,,,,,,,,,,,,,,,,,,,,,,,,,,,
,,,,,,,,2023-08-16_08h41.44.582,HF_wild_card,2022.2.4,Win32,59.93407252,636a30e7ba4faca50bd10fcf,64d2fd46c836a06233681665,64dc7da1e5aeabc44b864767,,,,,,,ctch,resources/DBN.BMP,resources/DP.BMP,Door2,-0.1475,-0.01125,1,0,0,2.2646,optionLeft,20,14550,7,29,0,29,0,1,,,,,,,,,,,,,,,,,,,,,,,,,,,,,,,,,,,,,,,
,,,,,,,,2023-08-16_08h41.44.582,HF_wild_card,2022.2.4,Win32,59.93407252,636a30e7ba4faca50bd10fcf,64d2fd46c836a06233681665,64dc7da1e5aeabc44b864767,,,,,,,decisionTrl,resources/DP.BMP,resources/DB.BMP,Door3,-0.1325,-0.025625,1,0,0,2.3978,optionLeft,70,14620,7,30,0,30,0,1,,,,,,,,,,,,,,,,,,,,,,,,,,,,,,,,,,,,,,,
,,,,,,,,2023-08-16_08h41.44.582,HF_wild_card,2022.2.4,Win32,59.93407252,636a30e7ba4faca50bd10fcf,64d2fd46c836a06233681665,64dc7da1e5aeabc44b864767,,,,,,,decisionTrl,resources/DP.BMP,resources/DB.BMP,Door4,0.15375,-0.03,1,0,0,1.333,optionRight,60,14680,7,31,0,31,0,1,,,,,,,,,,,,,,,,,,,,,,,,,,,,,,,,,,,,,,,
,,,,,,,,2023-08-16_08h41.44.582,HF_wild_card,2022.2.4,Win32,59.93407252,636a30e7ba4faca50bd10fcf,64d2fd46c836a06233681665,64dc7da1e5aeabc44b864767,,,,,,,decisionTrl,resources/DR.BMP,resources/DBN.BMP,Door2,0.1275,-0.0225,1,0,0,2.0652,optionRight,20,14700,7,32,0,32,0,1,,,,,,,,,,,,,,,,,,,,,,,,,,,,,,,,,,,,,,,
,,,,,,,,2023-08-16_08h41.44.582,HF_wild_card,2022.2.4,Win32,59.93407252,636a30e7ba4faca50bd10fcf,64d2fd46c836a06233681665,64dc7da1e5aeabc44b864767,,,,,,,decisionTrl,resources/DP.BMP,resources/DB.BMP,Door3,-0.13625,-0.043125,1,0,0,1.6496,optionLeft,70,14770,7,33,0,33,0,1,,,,,,,,,,,,,,,,,,,,,,,,,,,,,,,,,,,,,,,
,,,,,,,,2023-08-16_08h41.44.582,HF_wild_card,2022.2.4,Win32,59.93407252,636a30e7ba4faca50bd10fcf,64d2fd46c836a06233681665,64dc7da1e5aeabc44b864767,,,,,,,decisionTrl,resources/DB.BMP,resources/DP.BMP,Door3,0.1475,-0.033125,1,0,0,2.2485,optionRight,70,14840,7,34,0,34,0,1,,,,,,,,,,,,,,,,,,,,,,,,,,,,,,,,,,,,,,,
,,,,,,,,2023-08-16_08h41.44.582,HF_wild_card,2022.2.4,Win32,59.93407252,636a30e7ba4faca50bd10fcf,64d2fd46c836a06233681665,64dc7da1e5aeabc44b864767,,,,,,,decisionTrl,resources/DB.BMP,resources/DP.BMP,Door4,-0.14125,-0.03,1,0,0,1.8742,optionLeft,60,14900,7,35,0,35,0,1,,,,,,,,,,,,,,,,,,,,,,,,,,,,,,,,,,,,,,,
,,,,,,,,2023-08-16_08h41.44.582,HF_wild_card,2022.2.4,Win32,59.93407252,636a30e7ba4faca50bd10fcf,64d2fd46c836a06233681665,64dc7da1e5aeabc44b864767,,,,,,,,,,,,,,,,,,,,,,,,,,6,0,6,0,1,,,,,,,,,,,,,,,,,,,,,,,,,,,,,,,,,,
,,,,,,,,2023-08-16_08h41.44.582,HF_wild_card,2022.2.4,Win32,59.93407252,636a30e7ba4faca50bd10fcf,64d2fd46c836a06233681665,64dc7da1e5aeabc44b864767,,,,,,,,,,,,,,,,,,,,,,,,,,,,,,,3,,,,,,,,,,,,,,,,,,,,,,,,,,,,,,,,,
,,,,,,,,2023-08-16_08h41.44.582,HF_wild_card,2022.2.4,Win32,59.93407252,636a30e7ba4faca50bd10fcf,64d2fd46c836a06233681665,64dc7da1e5aeabc44b864767,,,,,,,,,,,,,,,,,,,,,,,,,,,,,,,,,,,,,,,,,,,,,,,,,,,,,,,,,,,,,,,,
,,,,,,,,2023-08-16_08h41.44.582,HF_wild_card,2022.2.4,Win32,59.93407252,636a30e7ba4faca50bd10fcf,64d2fd46c836a06233681665,64dc7da1e5aeabc44b864767,,,,,,,,,,,,,,,,,,,,,,,,,,,,,,,,40,Door2,resources/DBN.BMP,0,0,0,0,1,,,,,,,,,,,,,,,,,,,,,,,,,
,,,,,,,,2023-08-16_08h41.44.582,HF_wild_card,2022.2.4,Win32,59.93407252,636a30e7ba4faca50bd10fcf,64d2fd46c836a06233681665,64dc7da1e5aeabc44b864767,,,,,,,,,,,,,,,,,,,,,,,,,,,,,,,,50,WC_extreme,resources/DY.BMP,1,0,1,0,1,,,,,,,,,,,,,,,,,,,,,,,,,
,,,,,,,,2023-08-16_08h41.44.582,HF_wild_card,2022.2.4,Win32,59.93407252,636a30e7ba4faca50bd10fcf,64d2fd46c836a06233681665,64dc7da1e5aeabc44b864767,,,,,,,,,,,,,,,,,,,,,,,,,,,,,,,,75,WC_nonExtreme,resources/DG.BMP,2,0,2,0,1,,,,,,,,,,,,,,,,,,,,,,,,,
,,,,,,,,2023-08-16_08h41.44.582,HF_wild_card,2022.2.4,Win32,59.93407252,636a30e7ba4faca50bd10fcf,64d2fd46c836a06233681665,64dc7da1e5aeabc44b864767,,,,,,,,,,,,,,,,,,,,,,,,,,,,,,,,45,Door1,resources/DR.BMP,3,0,3,0,1,,,,,,,,,,,,,,,,,,,,,,,,,
,,,,,,,,2023-08-16_08h41.44.582,HF_wild_card,2022.2.4,Win32,59.93407252,636a30e7ba4faca50bd10fcf,64d2fd46c836a06233681665,64dc7da1e5aeabc44b864767,,,,,,,,,,,,,,,,,,,,,,,,,,,,,,,,30,Door4,resources/DB.BMP,4,0,4,0,1,,,,,,,,,,,,,,,,,,,,,,,,,
,,,,,,,,2023-08-16_08h41.44.582,HF_wild_card,2022.2.4,Win32,59.93407252,636a30e7ba4faca50bd10fcf,64d2fd46c836a06233681665,64dc7da1e5aeabc44b864767,,,,,,,,,,,,,,,,,,,,,,,,,,,,,,,,70,Door3,resources/DP.BMP,5,0,5,0,1,,,,,,,,,,,,,,,,,,,,,,,,,
,,,,,,,,2023-08-16_08h41.44.582,HF_wild_card,2022.2.4,Win32,59.93407252,636a30e7ba4faca50bd10fcf,64d2fd46c836a06233681665,64dc7da1e5aeabc44b864767,,,,,,,,,,,,,,,,,,,,,,,,,,,,,,,,,,,,,,,,,,,,,,,,,,,,,,,,,,,,,,,,
,,,,,,,,2023-08-16_08h41.44.582,HF_wild_card,2022.2.4,Win32,59.93407252,636a30e7ba4faca50bd10fcf,64d2fd46c836a06233681665,64dc7da1e5aeabc44b864767,,,,,,,,,,,,,,,,,,,,,,,,,,,,,,,,,,,,,,,,0,0,0,0,1,,,,,,,,,,,,,,,,,,,,
,,,,,,,,2023-08-16_08h41.44.582,HF_wild_card,2022.2.4,Win32,59.93407252,636a30e7ba4faca50bd10fcf,64d2fd46c836a06233681665,64dc7da1e5aeabc44b864767,,,,,,,,,,,,,,,,,,,,,,,,,,,,,,,,,,,,,,,,1,0,1,0,1,,,,,,,,,,,,,,,,,,,,
,,,,,,,,2023-08-16_08h41.44.582,HF_wild_card,2022.2.4,Win32,59.93407252,636a30e7ba4faca50bd10fcf,64d2fd46c836a06233681665,64dc7da1e5aeabc44b864767,,,,,,,,,,,,,,,,,,,,,,,,,,,,,,,,,,,,,,,,,,,,,-0.25,-0.405,1,0,0,yes,35%,40%,Door2,resources/DBN.BMP,0,0,0,0,1,,,,,
,,,,,,,,2023-08-16_08h41.44.582,HF_wild_card,2022.2.4,Win32,59.93407252,636a30e7ba4faca50bd10fcf,64d2fd46c836a06233681665,64dc7da1e5aeabc44b864767,,,,,,,,,,,,,,,,,,,,,,,,,,,,,,,,,,,,,,,,,,,,,,,,,,,,,,,,,,,,0,0,0,0,1
,,,,,,,,2023-08-16_08h41.44.582,HF_wild_card,2022.2.4,Win32,59.93407252,636a30e7ba4faca50bd10fcf,64d2fd46c836a06233681665,64dc7da1e5aeabc44b864767,,,,,,,,,,,,,,,,,,,,,,,,,,,,,,,,,,,,,,,,0,0,0,0,1,,,,,,,,,,,,,,,,,,,,
,,,,,,,,2023-08-16_08h41.44.582,HF_wild_card,2022.2.4,Win32,59.93407252,636a30e7ba4faca50bd10fcf,64d2fd46c836a06233681665,64dc7da1e5aeabc44b864767,,,,,,,,,,,,,,,,,,,,,,,,,,,,,,,,,,,,,,,,1,0,1,0,1,,,,,,,,,,,,,,,,,,,,
,,,,,,,,2023-08-16_08h41.44.582,HF_wild_card,2022.2.4,Win32,59.93407252,636a30e7ba4faca50bd10fcf,64d2fd46c836a06233681665,64dc7da1e5aeabc44b864767,,,,,,,,,,,,,,,,,,,,,,,,,,,,,,,,,,,,,,,,,,,,,-0.28,-0.414375,1,0,0,yes,30%,25%,Door4,resources/DB.BMP,0,0,0,0,1,,,,,
,,,,,,,,2023-08-16_08h41.44.582,HF_wild_card,2022.2.4,Win32,59.93407252,636a30e7ba4faca50bd10fcf,64d2fd46c836a06233681665,64dc7da1e5aeabc44b864767,,,,,,,,,,,,,,,,,,,,,,,,,,,,,,,,,,,,,,,,,,,,,,,,,,,,,,,,,,,,1,0,1,0,1
,,,,,,,,2023-08-16_08h41.44.582,HF_wild_card,2022.2.4,Win32,59.93407252,636a30e7ba4faca50bd10fcf,64d2fd46c836a06233681665,64dc7da1e5aeabc44b864767,,,,,,,,,,,,,,,,,,,,,,,,,,,,,,,,,,,,,,,,0,0,0,0,1,,,,,,,,,,,,,,,,,,,,
,,,,,,,,2023-08-16_08h41.44.582,HF_wild_card,2022.2.4,Win32,59.93407252,636a30e7ba4faca50bd10fcf,64d2fd46c836a06233681665,64dc7da1e5aeabc44b864767,,,,,,,,,,,,,,,,,,,,,,,,,,,,,,,,,,,,,,,,1,0,1,0,1,,,,,,,,,,,,,,,,,,,,
