Condition,Low fixed image (Door1),Low risky image (Door2),High fixed image (Door3),High risky image (Door4),Extreme Wild Card,NonExtreme Wild Card,,date,expName,psychopyVersion,OS,frameRate,PROLIFIC_PID,STUDY_ID,SESSION_ID,mouse_2.x,mouse_2.y,mouse_2.leftButton,mouse_2.midButton,mouse_2.rightButton,mouse_2.clicked_name,Trial Type,Left Option Image,Right Option Image,Chosen Door,mouse.x,mouse.y,mouse.leftButton,mouse.midButton,mouse.rightButton,mouse.time,mouse.clicked_name,Feedback,Cumulative Reward,Block,trial.thisRepN,trial.thisTrialN,trial.thisN,trial.thisIndex,trial.ran,blocks.thisRepN,blocks.thisTrialN,blocks.thisN,blocks.thisIndex,blocks.ran,Money conversion,First Outcome Reported,Shown Door (First Outcome),Displayed Image (First Outcome),outcomes.thisRepN,outcomes.thisTrialN,outcomes.thisN,outcomes.thisIndex,outcomes.ran,judgments.thisRepN,judgments.thisTrialN,judgments.thisN,judgments.thisIndex,judgments.ran,freqMouse.x,freqMouse.y,freqMouse.leftButton,freqMouse.midButton,freqMouse.rightButton,freqMouse.clicked_name,FQJ for first outcome,FQJ for second outcome,Shown Door,Displayed Image,trials.thisRepN,trials.thisTrialN,trials.thisN,trials.thisIndex,trials.ran,judgBlock.thisRepN,judgBlock.thisTrialN,judgBlock.thisN,judgBlock.thisIndex,judgBlock.ran
0,resources/DP.BMP,resources/DY.BMP,resources/DBN.BMP,resources/DB.BMP,resources/DG.BMP,resources/DR.BMP,,2023-08-16_08h46.05.982,HF_wild_card,2022.2.4,Win32,59.98080614,6097c0f1b17aabadc9369fc5,64d2fd46c836a06233681665,64dc7eb3c002480885e295da,,,,,,,,,,,,,,,,,,,,,,,,,,,,,,,,,,,,,,,,,,,,,,,,,,,,,,,,,,,,,,,,
,,,,,,,,2023-08-16_08h46.05.982,HF_wild_card,2022.2.4,Win32,59.98080614,6097c0f1b17aabadc9369fc5,64d2fd46c836a06233681665,64dc7eb3c002480885e295da,0.00462963,-0.412037037,1,0,0,agree,,,,,,,,,,,,,,,,,,,,,,,,,,,,,,,,,,,,,,,,,,,,,,,,,,,,,,,,,,
,,,,,,,,2023-08-16_08h46.05.982,HF_wild_card,2022.2.4,Win32,59.98080614,6097c0f1b17aabadc9369fc5,64d2fd46c836a06233681665,64dc7eb3c002480885e295da,,,,,,,,,,,,,,,,,,,,,,,,,,,,,,,,,,,,,,,,,,,,,,,,,,,,,,,,,,,,,,,,
,,,,,,,,2023-08-16_08h46.05.982,HF_wild_card,2022.2.4,Win32,59.98080614,6097c0f1b17aabadc9369fc5,64d2fd46c836a06233681665,64dc7eb3c002480885e295da,,,,,,,decisionTrl,resources/DY.BMP,resources/DG.BMP,Door2,-0.300925926,-0.031481481,1,0,0,1.2749,optionLeft,40,40,1,0,0,0,0,1,,,,,,,,,,,,,,,,,,,,,,,,,,,,,,,,,,,,,,,
,,,,,,,,2023-08-16_08h46.05.982,HF_wild_card,2022.2.4,Win32,59.98080614,6097c0f1b17aabadc9369fc5,64d2fd46c836a06233681665,64dc7eb3c002480885e295da,,,,,,,decisionTrl,resources/DBN.BMP,resources/DB.BMP,Door3,-0.286111111,0.023148148,1,0,0,1.5833,optionLeft,70,110,1,1,0,1,0,1,,,,,,,,,,,,,,,,,,,,,,,,,,,,,,,,,,,,,,,
,,,,,,,,2023-08-16_08h46.05.982,HF_wild_card,2022.2.4,Win32,59.98080614,6097c0f1b17aabadc9369fc5,64d2fd46c836a06233681665,64dc7eb3c002480885e295da,,,,,,,sngl,resources/Empty.png,resources/DB.BMP,Door4,0.467592593,0.017592593,1,0,0,0.7767,optionRight,60,170,1,2,0,2,0,1,,,,,,,,,,,,,,,,,,,,,,,,,,,,,,,,,,,,,,,
,,,,,,,,2023-08-16_08h46.05.982,HF_wild_card,2022.2.4,Win32,59.98080614,6097c0f1b17aabadc9369fc5,64d2fd46c836a06233681665,64dc7eb3c002480885e295da,,,,,,,decisionTrl,resources/DP.BMP,resources/DY.BMP,Door1,-0.424074074,0.027777778,1,0,0,1.2933,optionLeft,30,200,1,3,0,3,0,1,,,,,,,,,,,,,,,,,,,,,,,,,,,,,,,,,,,,,,,
,,,,,,,,2023-08-16_08h46.05.982,HF_wild_card,2022.2.4,Win32,59.98080614,6097c0f1b17aabadc9369fc5,64d2fd46c836a06233681665,64dc7eb3c002480885e295da,,,,,,,decisionTrl,resources/DB.BMP,resources/DBN.BMP,Door3,0.337962963,0.037037037,1,0,0,2.5099,optionRight,70,270,1,4,0,4,0,1,,,,,,,,,,,,,,,,,,,,,,,,,,,,,,,,,,,,,,,
,,,,,,,,2023-08-16_08h46.05.982,HF_wild_card,2022.2.4,Win32,59.98080614,6097c0f1b17aabadc9369fc5,64d2fd46c836a06233681665,64dc7eb3c002480885e295da,,,,,,,decisionTrl,resources/DY.BMP,resources/DP.BMP,Door2,-0.449074074,0.018518519,1,0,0,1.6279,optionLeft,20,290,1,5,0,5,0,1,,,,,,,,,,,,,,,,,,,,,,,,,,,,,,,,,,,,,,,
,,,,,,,,2023-08-16_08h46.05.982,HF_wild_card,2022.2.4,Win32,59.98080614,6097c0f1b17aabadc9369fc5,64d2fd46c836a06233681665,64dc7eb3c002480885e295da,,,,,,,sngl,resources/Empty.png,resources/DBN.BMP,Door3,0.493518519,0.115740741,1,0,0,0.9261,optionRight,70,360,1,6,0,6,0,1,,,,,,,,,,,,,,,,,,,,,,,,,,,,,,,,,,,,,,,
,,,,,,,,2023-08-16_08h46.05.982,HF_wild_card,2022.2.4,Win32,59.98080614,6097c0f1b17aabadc9369fc5,64d2fd46c836a06233681665,64dc7eb3c002480885e295da,,,,,,,sngl,resources/Empty.png,resources/DY.BMP,Door2,0.436111111,0.00462963,1,0,0,1.2253,optionRight,20,380,1,7,0,7,0,1,,,,,,,,,,,,,,,,,,,,,,,,,,,,,,,,,,,,,,,
,,,,,,,,2023-08-16_08h46.05.982,HF_wild_card,2022.2.4,Win32,59.98080614,6097c0f1b17aabadc9369fc5,64d2fd46c836a06233681665,64dc7eb3c002480885e295da,,,,,,,ctch,resources/DP.BMP,resources/DB.BMP,Door1,-0.347222222,0.012037037,1,0,0,1.3435,optionLeft,30,410,1,8,0,8,0,1,,,,,,,,,,,,,,,,,,,,,,,,,,,,,,,,,,,,,,,
,,,,,,,,2023-08-16_08h46.05.982,HF_wild_card,2022.2.4,Win32,59.98080614,6097c0f1b17aabadc9369fc5,64d2fd46c836a06233681665,64dc7eb3c002480885e295da,,,,,,,decisionTrl,resources/DP.BMP,resources/DY.BMP,Door2,0.414814815,-0.009259259,1,0,0,1.6274,optionRight,40,450,1,9,0,9,0,1,,,,,,,,,,,,,,,,,,,,,,,,,,,,,,,,,,,,,,,
,,,,,,,,2023-08-16_08h46.05.982,HF_wild_card,2022.2.4,Win32,59.98080614,6097c0f1b17aabadc9369fc5,64d2fd46c836a06233681665,64dc7eb3c002480885e295da,,,,,,,decisionTrl,resources/DBN.BMP,resources/DB.BMP,Door3,-0.331481481,0.033333333,1,0,0,1.0947,optionLeft,70,520,1,10,0,10,0,1,,,,,,,,,,,,,,,,,,,,,,,,,,,,,,,,,,,,,,,
,,,,,,,,2023-08-16_08h46.05.982,HF_wild_card,2022.2.4,Win32,59.98080614,6097c0f1b17aabadc9369fc5,64d2fd46c836a06233681665,64dc7eb3c002480885e295da,,,,,,,decisionTrl,resources/DY.BMP,resources/DP.BMP,Door2,-0.340740741,0.025,1,0,0,1.1857,optionLeft,40,560,1,11,0,11,0,1,,,,,,,,,,,,,,,,,,,,,,,,,,,,,,,,,,,,,,,
,,,,,,,,2023-08-16_08h46.05.982,HF_wild_card,2022.2.4,Win32,59.98080614,6097c0f1b17aabadc9369fc5,64d2fd46c836a06233681665,64dc7eb3c002480885e295da,,,,,,,decisionTrl,resources/DB.BMP,resources/DBN.BMP,Door3,0.356481481,0.048148148,1,0,0,1.2769,optionRight,70,630,1,12,0,12,0,1,,,,,,,,,,,,,,,,,,,,,,,,,,,,,,,,,,,,,,,
,,,,,,,,2023-08-16_08h46.05.982,HF_wild_card,2022.2.4,Win32,59.98080614,6097c0f1b17aabadc9369fc5,64d2fd46c836a06233681665,64dc7eb3c002480885e295da,,,,,,,decisionTrl,resources/DG.BMP,resources/DB.BMP,WildCard_Ex,-0.315740741,-0.010185185,1,0,0,1.1701,optionLeft,95,725,1,13,0,13,0,1,,,,,,,,,,,,,,,,,,,,,,,,,,,,,,,,,,,,,,,
,,,,,,,,2023-08-16_08h46.05.982,HF_wild_card,2022.2.4,Win32,59.98080614,6097c0f1b17aabadc9369fc5,64d2fd46c836a06233681665,64dc7eb3c002480885e295da,,,,,,,decisionTrl,resources/DB.BMP,resources/DBN.BMP,Door3,0.314814815,-0.025,1,0,0,3.2121,optionRight,70,795,1,14,0,14,0,1,,,,,,,,,,,,,,,,,,,,,,,,,,,,,,,,,,,,,,,
,,,,,,,,2023-08-16_08h46.05.982,HF_wild_card,2022.2.4,Win32,59.98080614,6097c0f1b17aabadc9369fc5,64d2fd46c836a06233681665,64dc7eb3c002480885e295da,,,,,,,sngl,resources/DY.BMP,resources/Empty.png,Door2,-0.412962963,0.012037037,1,0,0,0.8103,optionLeft,40,835,1,15,0,15,0,1,,,,,,,,,,,,,,,,,,,,,,,,,,,,,,,,,,,,,,,
,,,,,,,,2023-08-16_08h46.05.982,HF_wild_card,2022.2.4,Win32,59.98080614,6097c0f1b17aabadc9369fc5,64d2fd46c836a06233681665,64dc7eb3c002480885e295da,,,,,,,ctch,resources/DP.BMP,resources/DB.BMP,Door1,-0.330555556,-0.006481481,1,0,0,1.9604,optionLeft,30,865,1,16,0,16,0,1,,,,,,,,,,,,,,,,,,,,,,,,,,,,,,,,,,,,,,,
,,,,,,,,2023-08-16_08h46.05.982,HF_wild_card,2022.2.4,Win32,59.98080614,6097c0f1b17aabadc9369fc5,64d2fd46c836a06233681665,64dc7eb3c002480885e295da,,,,,,,sngl,resources/Empty.png,resources/DG.BMP,WildCard_Ex,0.461111111,-0.02037037,1,0,0,2.507,optionRight,95,960,1,17,0,17,0,1,,,,,,,,,,,,,,,,,,,,,,,,,,,,,,,,,,,,,,,
,,,,,,,,2023-08-16_08h46.05.982,HF_wild_card,2022.2.4,Win32,59.98080614,6097c0f1b17aabadc9369fc5,64d2fd46c836a06233681665,64dc7eb3c002480885e295da,,,,,,,decisionTrl,resources/DBN.BMP,resources/DB.BMP,Door3,-0.275925926,-0.003703704,1,0,0,1.9439,optionLeft,70,1030,1,18,0,18,0,1,,,,,,,,,,,,,,,,,,,,,,,,,,,,,,,,,,,,,,,
,,,,,,,,2023-08-16_08h46.05.982,HF_wild_card,2022.2.4,Win32,59.98080614,6097c0f1b17aabadc9369fc5,64d2fd46c836a06233681665,64dc7eb3c002480885e295da,,,,,,,sngl,resources/DG.BMP,resources/Empty.png,WildCard_Ex,-0.392592593,-0.007407407,1,0,0,0.6596,optionLeft,5,1035,1,19,0,19,0,1,,,,,,,,,,,,,,,,,,,,,,,,,,,,,,,,,,,,,,,
,,,,,,,,2023-08-16_08h46.05.982,HF_wild_card,2022.2.4,Win32,59.98080614,6097c0f1b17aabadc9369fc5,64d2fd46c836a06233681665,64dc7eb3c002480885e295da,,,,,,,decisionTrl,resources/DP.BMP,resources/DG.BMP,Door1,-0.287037037,0.012962963,1,0,0,0.7039,optionLeft,30,1065,1,20,0,20,0,1,,,,,,,,,,,,,,,,,,,,,,,,,,,,,,,,,,,,,,,
,,,,,,,,2023-08-16_08h46.05.982,HF_wild_card,2022.2.4,Win32,59.98080614,6097c0f1b17aabadc9369fc5,64d2fd46c836a06233681665,64dc7eb3c002480885e295da,,,,,,,sngl,resources/Empty.png,resources/DG.BMP,WildCard_Ex,0.430555556,-0.04537037,1,0,0,3.1444,optionRight,5,1070,1,21,0,21,0,1,,,,,,,,,,,,,,,,,,,,,,,,,,,,,,,,,,,,,,,
,,,,,,,,2023-08-16_08h46.05.982,HF_wild_card,2022.2.4,Win32,59.98080614,6097c0f1b17aabadc9369fc5,64d2fd46c836a06233681665,64dc7eb3c002480885e295da,,,,,,,decisionTrl,resources/DY.BMP,resources/DP.BMP,Door1,0.487962963,-0.034259259,1,0,0,1.1048,optionRight,30,1100,1,22,0,22,0,1,,,,,,,,,,,,,,,,,,,,,,,,,,,,,,,,,,,,,,,
,,,,,,,,2023-08-16_08h46.05.982,HF_wild_card,2022.2.4,Win32,59.98080614,6097c0f1b17aabadc9369fc5,64d2fd46c836a06233681665,64dc7eb3c002480885e295da,,,,,,,sngl,resources/DG.BMP,resources/Empty.png,WildCard_Ex,-0.374074074,0.000925926,1,0,0,0.5928,optionLeft,95,1195,1,23,0,23,0,1,,,,,,,,,,,,,,,,,,,,,,,,,,,,,,,,,,,,,,,
,,,,,,,,2023-08-16_08h46.05.982,HF_wild_card,2022.2.4,Win32,59.98080614,6097c0f1b17aabadc9369fc5,64d2fd46c836a06233681665,64dc7eb3c002480885e295da,,,,,,,ctch,resources/DY.BMP,resources/DBN.BMP,Door2,-0.387037037,0.047222222,1,0,0,0.8124,optionLeft,40,1235,1,24,0,24,0,1,,,,,,,,,,,,,,,,,,,,,,,,,,,,,,,,,,,,,,,
,,,,,,,,2023-08-16_08h46.05.982,HF_wild_card,2022.2.4,Win32,59.98080614,6097c0f1b17aabadc9369fc5,64d2fd46c836a06233681665,64dc7eb3c002480885e295da,,,,,,,ctch,resources/DB.BMP,resources/DP.BMP,Door4,-0.213888889,0.010185185,1,0,0,1.2127,optionLeft,60,1295,1,25,0,25,0,1,,,,,,,,,,,,,,,,,,,,,,,,,,,,,,,,,,,,,,,
,,,,,,,,2023-08-16_08h46.05.982,HF_wild_card,2022.2.4,Win32,59.98080614,6097c0f1b17aabadc9369fc5,64d2fd46c836a06233681665,64dc7eb3c002480885e295da,,,,,,,sngl,resources/Empty.png,resources/DP.BMP,Door1,0.506481481,-0.024074074,1,0,0,0.6106,optionRight,30,1325,1,26,0,26,0,1,,,,,,,,,,,,,,,,,,,,,,,,,,,,,,,,,,,,,,,
,,,,,,,,2023-08-16_08h46.05.982,HF_wild_card,2022.2.4,Win32,59.98080614,6097c0f1b17aabadc9369fc5,64d2fd46c836a06233681665,64dc7eb3c002480885e295da,,,,,,,ctch,resources/DBN.BMP,resources/DY.BMP,Door3,-0.353703704,0.015740741,1,0,0,0.91,optionLeft,70,1395,1,27,0,27,0,1,,,,,,,,,,,,,,,,,,,,,,,,,,,,,,,,,,,,,,,
,,,,,,,,2023-08-16_08h46.05.982,HF_wild_card,2022.2.4,Win32,59.98080614,6097c0f1b17aabadc9369fc5,64d2fd46c836a06233681665,64dc7eb3c002480885e295da,,,,,,,sngl,resources/DB.BMP,resources/Empty.png,Door4,-0.528703704,0.012037037,1,0,0,0.6611,optionLeft,80,1475,1,28,0,28,0,1,,,,,,,,,,,,,,,,,,,,,,,,,,,,,,,,,,,,,,,
,,,,,,,,2023-08-16_08h46.05.982,HF_wild_card,2022.2.4,Win32,59.98080614,6097c0f1b17aabadc9369fc5,64d2fd46c836a06233681665,64dc7eb3c002480885e295da,,,,,,,decisionTrl,resources/DY.BMP,resources/DP.BMP,Door1,0.330555556,-0.033333333,1,0,0,1.8501,optionRight,30,1505,1,29,0,29,0,1,,,,,,,,,,,,,,,,,,,,,,,,,,,,,,,,,,,,,,,
,,,,,,,,2023-08-16_08h46.05.982,HF_wild_card,2022.2.4,Win32,59.98080614,6097c0f1b17aabadc9369fc5,64d2fd46c836a06233681665,64dc7eb3c002480885e295da,,,,,,,decisionTrl,resources/DB.BMP,resources/DG.BMP,Door4,-0.218518519,0.013888889,1,0,0,1.1353,optionLeft,60,1565,1,30,0,30,0,1,,,,,,,,,,,,,,,,,,,,,,,,,,,,,,,,,,,,,,,
,,,,,,,,2023-08-16_08h46.05.982,HF_wild_card,2022.2.4,Win32,59.98080614,6097c0f1b17aabadc9369fc5,64d2fd46c836a06233681665,64dc7eb3c002480885e295da,,,,,,,decisionTrl,resources/DB.BMP,resources/DBN.BMP,Door3,0.340740741,-0.061111111,1,0,0,2.4764,optionRight,70,1635,1,31,0,31,0,1,,,,,,,,,,,,,,,,,,,,,,,,,,,,,,,,,,,,,,,
,,,,,,,,2023-08-16_08h46.05.982,HF_wild_card,2022.2.4,Win32,59.98080614,6097c0f1b17aabadc9369fc5,64d2fd46c836a06233681665,64dc7eb3c002480885e295da,,,,,,,decisionTrl,resources/DP.BMP,resources/DY.BMP,Door1,-0.239814815,-0.008333333,1,0,0,1.0046,optionLeft,30,1665,1,32,0,32,0,1,,,,,,,,,,,,,,,,,,,,,,,,,,,,,,,,,,,,,,,
,,,,,,,,2023-08-16_08h46.05.982,HF_wild_card,2022.2.4,Win32,59.98080614,6097c0f1b17aabadc9369fc5,64d2fd46c836a06233681665,64dc7eb3c002480885e295da,,,,,,,decisionTrl,resources/DP.BMP,resources/DY.BMP,Door2,0.400925926,-0.012962963,1,0,0,4.0242,optionRight,20,1685,1,33,0,33,0,1,,,,,,,,,,,,,,,,,,,,,,,,,,,,,,,,,,,,,,,
,,,,,,,,2023-08-16_08h46.05.982,HF_wild_card,2022.2.4,Win32,59.98080614,6097c0f1b17aabadc9369fc5,64d2fd46c836a06233681665,64dc7eb3c002480885e295da,,,,,,,decisionTrl,resources/DBN.BMP,resources/DB.BMP,Door3,-0.257407407,0.018518519,1,0,0,0.8179,optionLeft,70,1755,1,34,0,34,0,1,,,,,,,,,,,,,,,,,,,,,,,,,,,,,,,,,,,,,,,
,,,,,,,,2023-08-16_08h46.05.982,HF_wild_card,2022.2.4,Win32,59.98080614,6097c0f1b17aabadc9369fc5,64d2fd46c836a06233681665,64dc7eb3c002480885e295da,,,,,,,ctch,resources/DY.BMP,resources/DBN.BMP,Door2,-0.286111111,0.028703704,1,0,0,1.0349,optionLeft,40,1795,1,35,0,35,0,1,,,,,,,,,,,,,,,,,,,,,,,,,,,,,,,,,,,,,,,
,,,,,,,,2023-08-16_08h46.05.982,HF_wild_card,2022.2.4,Win32,59.98080614,6097c0f1b17aabadc9369fc5,64d2fd46c836a06233681665,64dc7eb3c002480885e295da,,,,,,,decisionTrl,resources/DG.BMP,resources/DP.BMP,Door1,0.362962963,-0.034259259,1,0,0,1.4287,optionRight,30,1825,1,36,0,36,0,1,,,,,,,,,,,,,,,,,,,,,,,,,,,,,,,,,,,,,,,
,,,,,,,,2023-08-16_08h46.05.982,HF_wild_card,2022.2.4,Win32,59.98080614,6097c0f1b17aabadc9369fc5,64d2fd46c836a06233681665,64dc7eb3c002480885e295da,,,,,,,ctch,resources/DBN.BMP,resources/DY.BMP,Door3,-0.162037037,-0.006481481,1,0,0,1.3512,optionLeft,70,1895,1,37,0,37,0,1,,,,,,,,,,,,,,,,,,,,,,,,,,,,,,,,,,,,,,,
,,,,,,,,2023-08-16_08h46.05.982,HF_wild_card,2022.2.4,Win32,59.98080614,6097c0f1b17aabadc9369fc5,64d2fd46c836a06233681665,64dc7eb3c002480885e295da,,,,,,,sngl,resources/DBN.BMP,resources/Empty.png,Door3,-0.248148148,0.007407407,1,0,0,0.7265,optionLeft,70,1965,1,38,0,38,0,1,,,,,,,,,,,,,,,,,,,,,,,,,,,,,,,,,,,,,,,
,,,,,,,,2023-08-16_08h46.05.982,HF_wild_card,2022.2.4,Win32,59.98080614,6097c0f1b17aabadc9369fc5,64d2fd46c836a06233681665,64dc7eb3c002480885e295da,,,,,,,decisionTrl,resources/DBN.BMP,resources/DG.BMP,Door3,-0.184259259,-0.002777778,1,0,0,1.6968,optionLeft,70,2035,1,39,0,39,0,1,,,,,,,,,,,,,,,,,,,,,,,,,,,,,,,,,,,,,,,
,,,,,,,,2023-08-16_08h46.05.982,HF_wild_card,2022.2.4,Win32,59.98080614,6097c0f1b17aabadc9369fc5,64d2fd46c836a06233681665,64dc7eb3c002480885e295da,,,,,,,ctch,resources/DB.BMP,resources/DP.BMP,Door4,-0.359259259,-0.048148148,1,0,0,10.2872,optionLeft,60,2095,1,40,0,40,0,1,,,,,,,,,,,,,,,,,,,,,,,,,,,,,,,,,,,,,,,
,,,,,,,,2023-08-16_08h46.05.982,HF_wild_card,2022.2.4,Win32,59.98080614,6097c0f1b17aabadc9369fc5,64d2fd46c836a06233681665,64dc7eb3c002480885e295da,,,,,,,decisionTrl,resources/DG.BMP,resources/DBN.BMP,Door3,0.365740741,-0.051851852,1,0,0,0.9866,optionRight,70,2165,1,41,0,41,0,1,,,,,,,,,,,,,,,,,,,,,,,,,,,,,,,,,,,,,,,
,,,,,,,,2023-08-16_08h46.05.982,HF_wild_card,2022.2.4,Win32,59.98080614,6097c0f1b17aabadc9369fc5,64d2fd46c836a06233681665,64dc7eb3c002480885e295da,,,,,,,decisionTrl,resources/DG.BMP,resources/DY.BMP,WildCard_Ex,-0.181481481,-0.039814815,1,0,0,0.5627,optionLeft,95,2260,1,42,0,42,0,1,,,,,,,,,,,,,,,,,,,,,,,,,,,,,,,,,,,,,,,
,,,,,,,,2023-08-16_08h46.05.982,HF_wild_card,2022.2.4,Win32,59.98080614,6097c0f1b17aabadc9369fc5,64d2fd46c836a06233681665,64dc7eb3c002480885e295da,,,,,,,sngl,resources/DP.BMP,resources/Empty.png,Door1,-0.182407407,-0.011111111,1,0,0,0.5026,optionLeft,30,2290,1,43,0,43,0,1,,,,,,,,,,,,,,,,,,,,,,,,,,,,,,,,,,,,,,,
,,,,,,,,2023-08-16_08h46.05.982,HF_wild_card,2022.2.4,Win32,59.98080614,6097c0f1b17aabadc9369fc5,64d2fd46c836a06233681665,64dc7eb3c002480885e295da,,,,,,,,,,,,,,,,,,,,,,,,,,0,0,0,0,1,,,,,,,,,,,,,,,,,,,,,,,,,,,,,,,,,,
,,,,,,,,2023-08-16_08h46.05.982,HF_wild_card,2022.2.4,Win32,59.98080614,6097c0f1b17aabadc9369fc5,64d2fd46c836a06233681665,64dc7eb3c002480885e295da,,,,,,,decisionTrl,resources/DB.BMP,resources/DG.BMP,WildCard_Ex,0.313888889,-0.047222222,1,0,0,0.6604,optionRight,95,2385,2,0,0,0,0,1,,,,,,,,,,,,,,,,,,,,,,,,,,,,,,,,,,,,,,,
,,,,,,,,2023-08-16_08h46.05.982,HF_wild_card,2022.2.4,Win32,59.98080614,6097c0f1b17aabadc9369fc5,64d2fd46c836a06233681665,64dc7eb3c002480885e295da,,,,,,,sngl,resources/DG.BMP,resources/Empty.png,WildCard_Ex,-0.210185185,-0.009259259,1,0,0,0.4633,optionLeft,95,2480,2,1,0,1,0,1,,,,,,,,,,,,,,,,,,,,,,,,,,,,,,,,,,,,,,,
,,,,,,,,2023-08-16_08h46.05.982,HF_wild_card,2022.2.4,Win32,59.98080614,6097c0f1b17aabadc9369fc5,64d2fd46c836a06233681665,64dc7eb3c002480885e295da,,,,,,,decisionTrl,resources/DY.BMP,resources/DG.BMP,WildCard_Ex,0.297222222,0.02962963,1,0,0,0.8573,optionRight,5,2485,2,2,0,2,0,1,,,,,,,,,,,,,,,,,,,,,,,,,,,,,,,,,,,,,,,
,,,,,,,,2023-08-16_08h46.05.982,HF_wild_card,2022.2.4,Win32,59.98080614,6097c0f1b17aabadc9369fc5,64d2fd46c836a06233681665,64dc7eb3c002480885e295da,,,,,,,decisionTrl,resources/DY.BMP,resources/DP.BMP,Door2,-0.268518519,-0.012962963,1,0,0,0.872,optionLeft,20,2505,2,3,0,3,0,1,,,,,,,,,,,,,,,,,,,,,,,,,,,,,,,,,,,,,,,
,,,,,,,,2023-08-16_08h46.05.982,HF_wild_card,2022.2.4,Win32,59.98080614,6097c0f1b17aabadc9369fc5,64d2fd46c836a06233681665,64dc7eb3c002480885e295da,,,,,,,decisionTrl,resources/DBN.BMP,resources/DG.BMP,Door3,-0.25462963,-0.003703704,1,0,0,1.1905,optionLeft,70,2575,2,4,0,4,0,1,,,,,,,,,,,,,,,,,,,,,,,,,,,,,,,,,,,,,,,
,,,,,,,,2023-08-16_08h46.05.982,HF_wild_card,2022.2.4,Win32,59.98080614,6097c0f1b17aabadc9369fc5,64d2fd46c836a06233681665,64dc7eb3c002480885e295da,,,,,,,ctch,resources/DBN.BMP,resources/DY.BMP,Door3,-0.437962963,0.035185185,1,0,0,0.8616,optionLeft,70,2645,2,5,0,5,0,1,,,,,,,,,,,,,,,,,,,,,,,,,,,,,,,,,,,,,,,
,,,,,,,,2023-08-16_08h46.05.982,HF_wild_card,2022.2.4,Win32,59.98080614,6097c0f1b17aabadc9369fc5,64d2fd46c836a06233681665,64dc7eb3c002480885e295da,,,,,,,decisionTrl,resources/DY.BMP,resources/DP.BMP,Door2,-0.25462963,-0.009259259,1,0,0,1.51,optionLeft,40,2685,2,6,0,6,0,1,,,,,,,,,,,,,,,,,,,,,,,,,,,,,,,,,,,,,,,
,,,,,,,,2023-08-16_08h46.05.982,HF_wild_card,2022.2.4,Win32,59.98080614,6097c0f1b17aabadc9369fc5,64d2fd46c836a06233681665,64dc7eb3c002480885e295da,,,,,,,sngl,resources/DG.BMP,resources/Empty.png,WildCard_Ex,-0.332407407,0.02037037,1,0,0,0.922,optionLeft,5,2690,2,7,0,7,0,1,,,,,,,,,,,,,,,,,,,,,,,,,,,,,,,,,,,,,,,
,,,,,,,,2023-08-16_08h46.05.982,HF_wild_card,2022.2.4,Win32,59.98080614,6097c0f1b17aabadc9369fc5,64d2fd46c836a06233681665,64dc7eb3c002480885e295da,,,,,,,sngl,resources/Empty.png,resources/DP.BMP,Door1,0.319444444,-0.009259259,1,0,0,0.7939,optionRight,30,2720,2,8,0,8,0,1,,,,,,,,,,,,,,,,,,,,,,,,,,,,,,,,,,,,,,,
,,,,,,,,2023-08-16_08h46.05.982,HF_wild_card,2022.2.4,Win32,59.98080614,6097c0f1b17aabadc9369fc5,64d2fd46c836a06233681665,64dc7eb3c002480885e295da,,,,,,,decisionTrl,resources/DP.BMP,resources/DY.BMP,Door1,-0.37037037,0.026851852,1,0,0,0.7265,optionLeft,30,2750,2,9,0,9,0,1,,,,,,,,,,,,,,,,,,,,,,,,,,,,,,,,,,,,,,,
,,,,,,,,2023-08-16_08h46.05.982,HF_wild_card,2022.2.4,Win32,59.98080614,6097c0f1b17aabadc9369fc5,64d2fd46c836a06233681665,64dc7eb3c002480885e295da,,,,,,,decisionTrl,resources/DBN.BMP,resources/DB.BMP,Door3,-0.477777778,0.04537037,1,0,0,0.6963,optionLeft,70,2820,2,10,0,10,0,1,,,,,,,,,,,,,,,,,,,,,,,,,,,,,,,,,,,,,,,
,,,,,,,,2023-08-16_08h46.05.982,HF_wild_card,2022.2.4,Win32,59.98080614,6097c0f1b17aabadc9369fc5,64d2fd46c836a06233681665,64dc7eb3c002480885e295da,,,,,,,decisionTrl,resources/DP.BMP,resources/DG.BMP,Door1,-0.293518519,0.047222222,1,0,0,1.7378,optionLeft,30,2850,2,11,0,11,0,1,,,,,,,,,,,,,,,,,,,,,,,,,,,,,,,,,,,,,,,
,,,,,,,,2023-08-16_08h46.05.982,HF_wild_card,2022.2.4,Win32,59.98080614,6097c0f1b17aabadc9369fc5,64d2fd46c836a06233681665,64dc7eb3c002480885e295da,,,,,,,ctch,resources/DP.BMP,resources/DB.BMP,Door1,-0.301851852,-0.008333333,1,0,0,5.0854,optionLeft,30,2880,2,12,0,12,0,1,,,,,,,,,,,,,,,,,,,,,,,,,,,,,,,,,,,,,,,
,,,,,,,,2023-08-16_08h46.05.982,HF_wild_card,2022.2.4,Win32,59.98080614,6097c0f1b17aabadc9369fc5,64d2fd46c836a06233681665,64dc7eb3c002480885e295da,,,,,,,decisionTrl,resources/DB.BMP,resources/DBN.BMP,Door3,0.456481481,0.006481481,1,0,0,0.7773,optionRight,70,2950,2,13,0,13,0,1,,,,,,,,,,,,,,,,,,,,,,,,,,,,,,,,,,,,,,,
,,,,,,,,2023-08-16_08h46.05.982,HF_wild_card,2022.2.4,Win32,59.98080614,6097c0f1b17aabadc9369fc5,64d2fd46c836a06233681665,64dc7eb3c002480885e295da,,,,,,,sngl,resources/DP.BMP,resources/Empty.png,Door1,-0.225925926,0.001851852,1,0,0,0.6437,optionLeft,30,2980,2,14,0,14,0,1,,,,,,,,,,,,,,,,,,,,,,,,,,,,,,,,,,,,,,,
,,,,,,,,2023-08-16_08h46.05.982,HF_wild_card,2022.2.4,Win32,59.98080614,6097c0f1b17aabadc9369fc5,64d2fd46c836a06233681665,64dc7eb3c002480885e295da,,,,,,,decisionTrl,resources/DBN.BMP,resources/DB.BMP,Door3,-0.158333333,-0.017592593,1,0,0,0.6933,optionLeft,70,3050,2,15,0,15,0,1,,,,,,,,,,,,,,,,,,,,,,,,,,,,,,,,,,,,,,,
,,,,,,,,2023-08-16_08h46.05.982,HF_wild_card,2022.2.4,Win32,59.98080614,6097c0f1b17aabadc9369fc5,64d2fd46c836a06233681665,64dc7eb3c002480885e295da,,,,,,,decisionTrl,resources/DB.BMP,resources/DBN.BMP,Door3,0.171296296,-0.021296296,1,0,0,0.7437,optionRight,70,3120,2,16,0,16,0,1,,,,,,,,,,,,,,,,,,,,,,,,,,,,,,,,,,,,,,,
,,,,,,,,2023-08-16_08h46.05.982,HF_wild_card,2022.2.4,Win32,59.98080614,6097c0f1b17aabadc9369fc5,64d2fd46c836a06233681665,64dc7eb3c002480885e295da,,,,,,,decisionTrl,resources/DG.BMP,resources/DP.BMP,WildCard_Ex,-0.374074074,0.00462963,1,0,0,0.8269,optionLeft,5,3125,2,17,0,17,0,1,,,,,,,,,,,,,,,,,,,,,,,,,,,,,,,,,,,,,,,
,,,,,,,,2023-08-16_08h46.05.982,HF_wild_card,2022.2.4,Win32,59.98080614,6097c0f1b17aabadc9369fc5,64d2fd46c836a06233681665,64dc7eb3c002480885e295da,,,,,,,sngl,resources/Empty.png,resources/DB.BMP,Door4,0.427777778,-0.00462963,1,0,0,0.5453,optionRight,80,3205,2,18,0,18,0,1,,,,,,,,,,,,,,,,,,,,,,,,,,,,,,,,,,,,,,,
,,,,,,,,2023-08-16_08h46.05.982,HF_wild_card,2022.2.4,Win32,59.98080614,6097c0f1b17aabadc9369fc5,64d2fd46c836a06233681665,64dc7eb3c002480885e295da,,,,,,,sngl,resources/Empty.png,resources/DG.BMP,WildCard_Ex,0.342592593,0.037037037,1,0,0,0.9944,optionRight,5,3210,2,19,0,19,0,1,,,,,,,,,,,,,,,,,,,,,,,,,,,,,,,,,,,,,,,
,,,,,,,,2023-08-16_08h46.05.982,HF_wild_card,2022.2.4,Win32,59.98080614,6097c0f1b17aabadc9369fc5,64d2fd46c836a06233681665,64dc7eb3c002480885e295da,,,,,,,decisionTrl,resources/DB.BMP,resources/DBN.BMP,Door3,0.300925926,-0.033333333,1,0,0,1.0265,optionRight,70,3280,2,20,0,20,0,1,,,,,,,,,,,,,,,,,,,,,,,,,,,,,,,,,,,,,,,
,,,,,,,,2023-08-16_08h46.05.982,HF_wild_card,2022.2.4,Win32,59.98080614,6097c0f1b17aabadc9369fc5,64d2fd46c836a06233681665,64dc7eb3c002480885e295da,,,,,,,ctch,resources/DP.BMP,resources/DB.BMP,Door1,-0.427777778,0.031481481,1,0,0,1.6368,optionLeft,30,3310,2,21,0,21,0,1,,,,,,,,,,,,,,,,,,,,,,,,,,,,,,,,,,,,,,,
,,,,,,,,2023-08-16_08h46.05.982,HF_wild_card,2022.2.4,Win32,59.98080614,6097c0f1b17aabadc9369fc5,64d2fd46c836a06233681665,64dc7eb3c002480885e295da,,,,,,,decisionTrl,resources/DB.BMP,resources/DBN.BMP,Door3,0.310185185,0.100925926,1,0,0,3.3514,optionRight,70,3380,2,22,0,22,0,1,,,,,,,,,,,,,,,,,,,,,,,,,,,,,,,,,,,,,,,
,,,,,,,,2023-08-16_08h46.05.982,HF_wild_card,2022.2.4,Win32,59.98080614,6097c0f1b17aabadc9369fc5,64d2fd46c836a06233681665,64dc7eb3c002480885e295da,,,,,,,decisionTrl,resources/DP.BMP,resources/DY.BMP,Door1,-0.24537037,0.013888889,1,0,0,0.6193,optionLeft,30,3410,2,23,0,23,0,1,,,,,,,,,,,,,,,,,,,,,,,,,,,,,,,,,,,,,,,
,,,,,,,,2023-08-16_08h46.05.982,HF_wild_card,2022.2.4,Win32,59.98080614,6097c0f1b17aabadc9369fc5,64d2fd46c836a06233681665,64dc7eb3c002480885e295da,,,,,,,decisionTrl,resources/DY.BMP,resources/DP.BMP,Door1,0.44537037,0.053703704,1,0,0,0.4935,optionRight,30,3440,2,24,0,24,0,1,,,,,,,,,,,,,,,,,,,,,,,,,,,,,,,,,,,,,,,
,,,,,,,,2023-08-16_08h46.05.982,HF_wild_card,2022.2.4,Win32,59.98080614,6097c0f1b17aabadc9369fc5,64d2fd46c836a06233681665,64dc7eb3c002480885e295da,,,,,,,sngl,resources/DBN.BMP,resources/Empty.png,Door3,-0.453703704,0.009259259,1,0,0,0.5941,optionLeft,70,3510,2,25,0,25,0,1,,,,,,,,,,,,,,,,,,,,,,,,,,,,,,,,,,,,,,,
,,,,,,,,2023-08-16_08h46.05.982,HF_wild_card,2022.2.4,Win32,59.98080614,6097c0f1b17aabadc9369fc5,64d2fd46c836a06233681665,64dc7eb3c002480885e295da,,,,,,,decisionTrl,resources/DG.BMP,resources/DY.BMP,Door2,0.449074074,0.013888889,1,0,0,3.1839,optionRight,20,3530,2,26,0,26,0,1,,,,,,,,,,,,,,,,,,,,,,,,,,,,,,,,,,,,,,,
,,,,,,,,2023-08-16_08h46.05.982,HF_wild_card,2022.2.4,Win32,59.98080614,6097c0f1b17aabadc9369fc5,64d2fd46c836a06233681665,64dc7eb3c002480885e295da,,,,,,,ctch,resources/DBN.BMP,resources/DY.BMP,Door3,-0.19537037,-0.062037037,1,0,0,1.1245,optionLeft,70,3600,2,27,0,27,0,1,,,,,,,,,,,,,,,,,,,,,,,,,,,,,,,,,,,,,,,
,,,,,,,,2023-08-16_08h46.05.982,HF_wild_card,2022.2.4,Win32,59.98080614,6097c0f1b17aabadc9369fc5,64d2fd46c836a06233681665,64dc7eb3c002480885e295da,,,,,,,decisionTrl,resources/DG.BMP,resources/DBN.BMP,Door3,0.377777778,0.000925926,1,0,0,1.0104,optionRight,70,3670,2,28,0,28,0,1,,,,,,,,,,,,,,,,,,,,,,,,,,,,,,,,,,,,,,,
,,,,,,,,2023-08-16_08h46.05.982,HF_wild_card,2022.2.4,Win32,59.98080614,6097c0f1b17aabadc9369fc5,64d2fd46c836a06233681665,64dc7eb3c002480885e295da,,,,,,,decisionTrl,resources/DBN.BMP,resources/DB.BMP,Door3,-0.130555556,-0.034259259,1,0,0,1.1598,optionLeft,70,3740,2,29,0,29,0,1,,,,,,,,,,,,,,,,,,,,,,,,,,,,,,,,,,,,,,,
,,,,,,,,2023-08-16_08h46.05.982,HF_wild_card,2022.2.4,Win32,59.98080614,6097c0f1b17aabadc9369fc5,64d2fd46c836a06233681665,64dc7eb3c002480885e295da,,,,,,,sngl,resources/Empty.png,resources/DBN.BMP,Door3,0.412962963,0.024074074,1,0,0,0.5429,optionRight,70,3810,2,30,0,30,0,1,,,,,,,,,,,,,,,,,,,,,,,,,,,,,,,,,,,,,,,
,,,,,,,,2023-08-16_08h46.05.982,HF_wild_card,2022.2.4,Win32,59.98080614,6097c0f1b17aabadc9369fc5,64d2fd46c836a06233681665,64dc7eb3c002480885e295da,,,,,,,ctch,resources/DY.BMP,resources/DBN.BMP,Door3,0.50462963,-0.037037037,1,0,0,0.7374,optionRight,70,3880,2,31,0,31,0,1,,,,,,,,,,,,,,,,,,,,,,,,,,,,,,,,,,,,,,,
,,,,,,,,2023-08-16_08h46.05.982,HF_wild_card,2022.2.4,Win32,59.98080614,6097c0f1b17aabadc9369fc5,64d2fd46c836a06233681665,64dc7eb3c002480885e295da,,,,,,,sngl,resources/DY.BMP,resources/Empty.png,Door2,-0.15,-0.024074074,1,0,0,1.4103,optionLeft,20,3900,2,32,0,32,0,1,,,,,,,,,,,,,,,,,,,,,,,,,,,,,,,,,,,,,,,
,,,,,,,,2023-08-16_08h46.05.982,HF_wild_card,2022.2.4,Win32,59.98080614,6097c0f1b17aabadc9369fc5,64d2fd46c836a06233681665,64dc7eb3c002480885e295da,,,,,,,decisionTrl,resources/DG.BMP,resources/DB.BMP,Door4,0.35,-0.008333333,1,0,0,1.3099,optionRight,60,3960,2,33,0,33,0,1,,,,,,,,,,,,,,,,,,,,,,,,,,,,,,,,,,,,,,,
,,,,,,,,2023-08-16_08h46.05.982,HF_wild_card,2022.2.4,Win32,59.98080614,6097c0f1b17aabadc9369fc5,64d2fd46c836a06233681665,64dc7eb3c002480885e295da,,,,,,,decisionTrl,resources/DBN.BMP,resources/DB.BMP,Door3,-0.302777778,0.000925926,1,0,0,0.6602,optionLeft,70,4030,2,34,0,34,0,1,,,,,,,,,,,,,,,,,,,,,,,,,,,,,,,,,,,,,,,
,,,,,,,,2023-08-16_08h46.05.982,HF_wild_card,2022.2.4,Win32,59.98080614,6097c0f1b17aabadc9369fc5,64d2fd46c836a06233681665,64dc7eb3c002480885e295da,,,,,,,sngl,resources/DB.BMP,resources/Empty.png,Door4,-0.256481481,0.026851852,1,0,0,0.5603,optionLeft,60,4090,2,35,0,35,0,1,,,,,,,,,,,,,,,,,,,,,,,,,,,,,,,,,,,,,,,
,,,,,,,,2023-08-16_08h46.05.982,HF_wild_card,2022.2.4,Win32,59.98080614,6097c0f1b17aabadc9369fc5,64d2fd46c836a06233681665,64dc7eb3c002480885e295da,,,,,,,decisionTrl,resources/DP.BMP,resources/DY.BMP,Door2,0.412037037,0.000925926,1,0,0,1.1437,optionRight,40,4130,2,36,0,36,0,1,,,,,,,,,,,,,,,,,,,,,,,,,,,,,,,,,,,,,,,
,,,,,,,,2023-08-16_08h46.05.982,HF_wild_card,2022.2.4,Win32,59.98080614,6097c0f1b17aabadc9369fc5,64d2fd46c836a06233681665,64dc7eb3c002480885e295da,,,,,,,ctch,resources/DY.BMP,resources/DBN.BMP,Door3,0.253703704,-0.002777778,1,0,0,2.1095,optionRight,70,4200,2,37,0,37,0,1,,,,,,,,,,,,,,,,,,,,,,,,,,,,,,,,,,,,,,,
,,,,,,,,2023-08-16_08h46.05.982,HF_wild_card,2022.2.4,Win32,59.98080614,6097c0f1b17aabadc9369fc5,64d2fd46c836a06233681665,64dc7eb3c002480885e295da,,,,,,,decisionTrl,resources/DY.BMP,resources/DP.BMP,Door1,0.537037037,-0.077777778,1,0,0,1.0609,optionRight,30,4230,2,38,0,38,0,1,,,,,,,,,,,,,,,,,,,,,,,,,,,,,,,,,,,,,,,
,,,,,,,,2023-08-16_08h46.05.982,HF_wild_card,2022.2.4,Win32,59.98080614,6097c0f1b17aabadc9369fc5,64d2fd46c836a06233681665,64dc7eb3c002480885e295da,,,,,,,sngl,resources/Empty.png,resources/DG.BMP,WildCard_Ex,0.256481481,0.030555556,1,0,0,0.6448,optionRight,95,4325,2,39,0,39,0,1,,,,,,,,,,,,,,,,,,,,,,,,,,,,,,,,,,,,,,,
,,,,,,,,2023-08-16_08h46.05.982,HF_wild_card,2022.2.4,Win32,59.98080614,6097c0f1b17aabadc9369fc5,64d2fd46c836a06233681665,64dc7eb3c002480885e295da,,,,,,,ctch,resources/DB.BMP,resources/DP.BMP,Door4,-0.234259259,-0.037962963,1,0,0,0.638,optionLeft,80,4405,2,40,0,40,0,1,,,,,,,,,,,,,,,,,,,,,,,,,,,,,,,,,,,,,,,
,,,,,,,,2023-08-16_08h46.05.982,HF_wild_card,2022.2.4,Win32,59.98080614,6097c0f1b17aabadc9369fc5,64d2fd46c836a06233681665,64dc7eb3c002480885e295da,,,,,,,ctch,resources/DB.BMP,resources/DP.BMP,Door1,0.401851852,-0.021296296,1,0,0,0.7394,optionRight,30,4435,2,41,0,41,0,1,,,,,,,,,,,,,,,,,,,,,,,,,,,,,,,,,,,,,,,
,,,,,,,,2023-08-16_08h46.05.982,HF_wild_card,2022.2.4,Win32,59.98080614,6097c0f1b17aabadc9369fc5,64d2fd46c836a06233681665,64dc7eb3c002480885e295da,,,,,,,decisionTrl,resources/DP.BMP,resources/DY.BMP,Door1,-0.217592593,-0.028703704,1,0,0,0.6298,optionLeft,30,4465,2,42,0,42,0,1,,,,,,,,,,,,,,,,,,,,,,,,,,,,,,,,,,,,,,,
,,,,,,,,2023-08-16_08h46.05.982,HF_wild_card,2022.2.4,Win32,59.98080614,6097c0f1b17aabadc9369fc5,64d2fd46c836a06233681665,64dc7eb3c002480885e295da,,,,,,,sngl,resources/Empty.png,resources/DY.BMP,Door2,0.365740741,0.015740741,1,0,0,0.7004,optionRight,40,4505,2,43,0,43,0,1,,,,,,,,,,,,,,,,,,,,,,,,,,,,,,,,,,,,,,,
,,,,,,,,2023-08-16_08h46.05.982,HF_wild_card,2022.2.4,Win32,59.98080614,6097c0f1b17aabadc9369fc5,64d2fd46c836a06233681665,64dc7eb3c002480885e295da,,,,,,,,,,,,,,,,,,,,,,,,,,1,0,1,0,1,,,,,,,,,,,,,,,,,,,,,,,,,,,,,,,,,,
,,,,,,,,2023-08-16_08h46.05.982,HF_wild_card,2022.2.4,Win32,59.98080614,6097c0f1b17aabadc9369fc5,64d2fd46c836a06233681665,64dc7eb3c002480885e295da,,,,,,,ctch,resources/DBN.BMP,resources/DY.BMP,Door3,-0.263888889,-0.093518519,1,0,0,0.7537,optionLeft,70,4575,3,0,0,0,0,1,,,,,,,,,,,,,,,,,,,,,,,,,,,,,,,,,,,,,,,
,,,,,,,,2023-08-16_08h46.05.982,HF_wild_card,2022.2.4,Win32,59.98080614,6097c0f1b17aabadc9369fc5,64d2fd46c836a06233681665,64dc7eb3c002480885e295da,,,,,,,ctch,resources/DY.BMP,resources/DBN.BMP,Door3,0.277777778,0.042592593,1,0,0,0.4593,optionRight,70,4645,3,1,0,1,0,1,,,,,,,,,,,,,,,,,,,,,,,,,,,,,,,,,,,,,,,
,,,,,,,,2023-08-16_08h46.05.982,HF_wild_card,2022.2.4,Win32,59.98080614,6097c0f1b17aabadc9369fc5,64d2fd46c836a06233681665,64dc7eb3c002480885e295da,,,,,,,decisionTrl,resources/DB.BMP,resources/DBN.BMP,Door3,0.305555556,0.025,1,0,0,0.6772,optionRight,70,4715,3,2,0,2,0,1,,,,,,,,,,,,,,,,,,,,,,,,,,,,,,,,,,,,,,,
,,,,,,,,2023-08-16_08h46.05.982,HF_wild_card,2022.2.4,Win32,59.98080614,6097c0f1b17aabadc9369fc5,64d2fd46c836a06233681665,64dc7eb3c002480885e295da,,,,,,,ctch,resources/DBN.BMP,resources/DY.BMP,Door2,0.331481481,-0.006481481,1,0,0,0.677,optionRight,40,4755,3,3,0,3,0,1,,,,,,,,,,,,,,,,,,,,,,,,,,,,,,,,,,,,,,,
,,,,,,,,2023-08-16_08h46.05.982,HF_wild_card,2022.2.4,Win32,59.98080614,6097c0f1b17aabadc9369fc5,64d2fd46c836a06233681665,64dc7eb3c002480885e295da,,,,,,,sngl,resources/DP.BMP,resources/Empty.png,Door1,-0.143518519,0.012037037,1,0,0,0.5125,optionLeft,30,4785,3,4,0,4,0,1,,,,,,,,,,,,,,,,,,,,,,,,,,,,,,,,,,,,,,,
,,,,,,,,2023-08-16_08h46.05.982,HF_wild_card,2022.2.4,Win32,59.98080614,6097c0f1b17aabadc9369fc5,64d2fd46c836a06233681665,64dc7eb3c002480885e295da,,,,,,,sngl,resources/DBN.BMP,resources/Empty.png,Door3,-0.300925926,0.055555556,1,0,0,0.5441,optionLeft,70,4855,3,5,0,5,0,1,,,,,,,,,,,,,,,,,,,,,,,,,,,,,,,,,,,,,,,
,,,,,,,,2023-08-16_08h46.05.982,HF_wild_card,2022.2.4,Win32,59.98080614,6097c0f1b17aabadc9369fc5,64d2fd46c836a06233681665,64dc7eb3c002480885e295da,,,,,,,sngl,resources/Empty.png,resources/DP.BMP,Door1,0.349074074,-0.037037037,1,0,0,0.847,optionRight,30,4885,3,6,0,6,0,1,,,,,,,,,,,,,,,,,,,,,,,,,,,,,,,,,,,,,,,
,,,,,,,,2023-08-16_08h46.05.982,HF_wild_card,2022.2.4,Win32,59.98080614,6097c0f1b17aabadc9369fc5,64d2fd46c836a06233681665,64dc7eb3c002480885e295da,,,,,,,sngl,resources/DG.BMP,resources/Empty.png,WildCard_Ex,-0.332407407,0.037037037,1,0,0,0.5437,optionLeft,5,4890,3,7,0,7,0,1,,,,,,,,,,,,,,,,,,,,,,,,,,,,,,,,,,,,,,,
,,,,,,,,2023-08-16_08h46.05.982,HF_wild_card,2022.2.4,Win32,59.98080614,6097c0f1b17aabadc9369fc5,64d2fd46c836a06233681665,64dc7eb3c002480885e295da,,,,,,,decisionTrl,resources/DY.BMP,resources/DP.BMP,Door2,-0.363888889,0.071296296,1,0,0,1.6437,optionLeft,40,4930,3,8,0,8,0,1,,,,,,,,,,,,,,,,,,,,,,,,,,,,,,,,,,,,,,,
,,,,,,,,2023-08-16_08h46.05.982,HF_wild_card,2022.2.4,Win32,59.98080614,6097c0f1b17aabadc9369fc5,64d2fd46c836a06233681665,64dc7eb3c002480885e295da,,,,,,,decisionTrl,resources/DP.BMP,resources/DY.BMP,Door2,0.32962963,-0.034259259,1,0,0,0.7658,optionRight,20,4950,3,9,0,9,0,1,,,,,,,,,,,,,,,,,,,,,,,,,,,,,,,,,,,,,,,
,,,,,,,,2023-08-16_08h46.05.982,HF_wild_card,2022.2.4,Win32,59.98080614,6097c0f1b17aabadc9369fc5,64d2fd46c836a06233681665,64dc7eb3c002480885e295da,,,,,,,sngl,resources/Empty.png,resources/DBN.BMP,Door3,0.402777778,-0.013888889,1,0,0,0.7045,optionRight,70,5020,3,10,0,10,0,1,,,,,,,,,,,,,,,,,,,,,,,,,,,,,,,,,,,,,,,
,,,,,,,,2023-08-16_08h46.05.982,HF_wild_card,2022.2.4,Win32,59.98080614,6097c0f1b17aabadc9369fc5,64d2fd46c836a06233681665,64dc7eb3c002480885e295da,,,,,,,decisionTrl,resources/DBN.BMP,resources/DB.BMP,Door3,-0.261111111,-0.015740741,1,0,0,0.719,optionLeft,70,5090,3,11,0,11,0,1,,,,,,,,,,,,,,,,,,,,,,,,,,,,,,,,,,,,,,,
,,,,,,,,2023-08-16_08h46.05.982,HF_wild_card,2022.2.4,Win32,59.98080614,6097c0f1b17aabadc9369fc5,64d2fd46c836a06233681665,64dc7eb3c002480885e295da,,,,,,,sngl,resources/Empty.png,resources/DY.BMP,Door2,0.376851852,0.05462963,1,0,0,0.9963,optionRight,20,5110,3,12,0,12,0,1,,,,,,,,,,,,,,,,,,,,,,,,,,,,,,,,,,,,,,,
,,,,,,,,2023-08-16_08h46.05.982,HF_wild_card,2022.2.4,Win32,59.98080614,6097c0f1b17aabadc9369fc5,64d2fd46c836a06233681665,64dc7eb3c002480885e295da,,,,,,,decisionTrl,resources/DG.BMP,resources/DB.BMP,Door4,0.477777778,-0.062962963,1,0,0,1.1896,optionRight,60,5170,3,13,0,13,0,1,,,,,,,,,,,,,,,,,,,,,,,,,,,,,,,,,,,,,,,
,,,,,,,,2023-08-16_08h46.05.982,HF_wild_card,2022.2.4,Win32,59.98080614,6097c0f1b17aabadc9369fc5,64d2fd46c836a06233681665,64dc7eb3c002480885e295da,,,,,,,decisionTrl,resources/DBN.BMP,resources/DB.BMP,Door3,-0.450925926,0.052777778,1,0,0,0.588,optionLeft,70,5240,3,14,0,14,0,1,,,,,,,,,,,,,,,,,,,,,,,,,,,,,,,,,,,,,,,
,,,,,,,,2023-08-16_08h46.05.982,HF_wild_card,2022.2.4,Win32,59.98080614,6097c0f1b17aabadc9369fc5,64d2fd46c836a06233681665,64dc7eb3c002480885e295da,,,,,,,decisionTrl,resources/DB.BMP,resources/DBN.BMP,Door3,0.226851852,0.014814815,1,0,0,0.6126,optionRight,70,5310,3,15,0,15,0,1,,,,,,,,,,,,,,,,,,,,,,,,,,,,,,,,,,,,,,,
,,,,,,,,2023-08-16_08h46.05.982,HF_wild_card,2022.2.4,Win32,59.98080614,6097c0f1b17aabadc9369fc5,64d2fd46c836a06233681665,64dc7eb3c002480885e295da,,,,,,,decisionTrl,resources/DB.BMP,resources/DG.BMP,Door4,-0.236111111,-0.022222222,1,0,0,0.8298,optionLeft,80,5390,3,16,0,16,0,1,,,,,,,,,,,,,,,,,,,,,,,,,,,,,,,,,,,,,,,
,,,,,,,,2023-08-16_08h46.05.982,HF_wild_card,2022.2.4,Win32,59.98080614,6097c0f1b17aabadc9369fc5,64d2fd46c836a06233681665,64dc7eb3c002480885e295da,,,,,,,decisionTrl,resources/DP.BMP,resources/DY.BMP,Door1,-0.362962963,0.057407407,1,0,0,0.8612,optionLeft,30,5420,3,17,0,17,0,1,,,,,,,,,,,,,,,,,,,,,,,,,,,,,,,,,,,,,,,
,,,,,,,,2023-08-16_08h46.05.982,HF_wild_card,2022.2.4,Win32,59.98080614,6097c0f1b17aabadc9369fc5,64d2fd46c836a06233681665,64dc7eb3c002480885e295da,,,,,,,ctch,resources/DP.BMP,resources/DB.BMP,Door1,-0.292592593,0.02037037,1,0,0,0.5966,optionLeft,30,5450,3,18,0,18,0,1,,,,,,,,,,,,,,,,,,,,,,,,,,,,,,,,,,,,,,,
,,,,,,,,2023-08-16_08h46.05.982,HF_wild_card,2022.2.4,Win32,59.98080614,6097c0f1b17aabadc9369fc5,64d2fd46c836a06233681665,64dc7eb3c002480885e295da,,,,,,,decisionTrl,resources/DBN.BMP,resources/DG.BMP,Door3,-0.362037037,0.052777778,1,0,0,0.9109,optionLeft,70,5520,3,19,0,19,0,1,,,,,,,,,,,,,,,,,,,,,,,,,,,,,,,,,,,,,,,
,,,,,,,,2023-08-16_08h46.05.982,HF_wild_card,2022.2.4,Win32,59.98080614,6097c0f1b17aabadc9369fc5,64d2fd46c836a06233681665,64dc7eb3c002480885e295da,,,,,,,decisionTrl,resources/DP.BMP,resources/DY.BMP,Door1,-0.316666667,0.027777778,1,0,0,0.8176,optionLeft,30,5550,3,20,0,20,0,1,,,,,,,,,,,,,,,,,,,,,,,,,,,,,,,,,,,,,,,
,,,,,,,,2023-08-16_08h46.05.982,HF_wild_card,2022.2.4,Win32,59.98080614,6097c0f1b17aabadc9369fc5,64d2fd46c836a06233681665,64dc7eb3c002480885e295da,,,,,,,decisionTrl,resources/DBN.BMP,resources/DB.BMP,Door3,-0.20462963,0.011111111,1,0,0,0.8878,optionLeft,70,5620,3,21,0,21,0,1,,,,,,,,,,,,,,,,,,,,,,,,,,,,,,,,,,,,,,,
,,,,,,,,2023-08-16_08h46.05.982,HF_wild_card,2022.2.4,Win32,59.98080614,6097c0f1b17aabadc9369fc5,64d2fd46c836a06233681665,64dc7eb3c002480885e295da,,,,,,,sngl,resources/DG.BMP,resources/Empty.png,WildCard_Ex,-0.25462963,0.027777778,1,0,0,0.5349,optionLeft,95,5715,3,22,0,22,0,1,,,,,,,,,,,,,,,,,,,,,,,,,,,,,,,,,,,,,,,
,,,,,,,,2023-08-16_08h46.05.982,HF_wild_card,2022.2.4,Win32,59.98080614,6097c0f1b17aabadc9369fc5,64d2fd46c836a06233681665,64dc7eb3c002480885e295da,,,,,,,ctch,resources/DY.BMP,resources/DBN.BMP,Door3,0.348148148,-0.002777778,1,0,0,0.7966,optionRight,70,5785,3,23,0,23,0,1,,,,,,,,,,,,,,,,,,,,,,,,,,,,,,,,,,,,,,,
,,,,,,,,2023-08-16_08h46.05.982,HF_wild_card,2022.2.4,Win32,59.98080614,6097c0f1b17aabadc9369fc5,64d2fd46c836a06233681665,64dc7eb3c002480885e295da,,,,,,,decisionTrl,resources/DP.BMP,resources/DY.BMP,Door2,0.355555556,0.021296296,1,0,0,0.9297,optionRight,20,5805,3,24,0,24,0,1,,,,,,,,,,,,,,,,,,,,,,,,,,,,,,,,,,,,,,,
,,,,,,,,2023-08-16_08h46.05.982,HF_wild_card,2022.2.4,Win32,59.98080614,6097c0f1b17aabadc9369fc5,64d2fd46c836a06233681665,64dc7eb3c002480885e295da,,,,,,,decisionTrl,resources/DY.BMP,resources/DP.BMP,Door1,0.469444444,-0.038888889,1,0,0,0.8686,optionRight,30,5835,3,25,0,25,0,1,,,,,,,,,,,,,,,,,,,,,,,,,,,,,,,,,,,,,,,
,,,,,,,,2023-08-16_08h46.05.982,HF_wild_card,2022.2.4,Win32,59.98080614,6097c0f1b17aabadc9369fc5,64d2fd46c836a06233681665,64dc7eb3c002480885e295da,,,,,,,decisionTrl,resources/DB.BMP,resources/DBN.BMP,Door3,0.276851852,-0.013888889,1,0,0,0.9962,optionRight,70,5905,3,26,0,26,0,1,,,,,,,,,,,,,,,,,,,,,,,,,,,,,,,,,,,,,,,
,,,,,,,,2023-08-16_08h46.05.982,HF_wild_card,2022.2.4,Win32,59.98080614,6097c0f1b17aabadc9369fc5,64d2fd46c836a06233681665,64dc7eb3c002480885e295da,,,,,,,sngl,resources/Empty.png,resources/DG.BMP,WildCard_Ex,0.305555556,-0.000925926,1,0,0,0.7411,optionRight,95,6000,3,27,0,27,0,1,,,,,,,,,,,,,,,,,,,,,,,,,,,,,,,,,,,,,,,
,,,,,,,,2023-08-16_08h46.05.982,HF_wild_card,2022.2.4,Win32,59.98080614,6097c0f1b17aabadc9369fc5,64d2fd46c836a06233681665,64dc7eb3c002480885e295da,,,,,,,decisionTrl,resources/DY.BMP,resources/DP.BMP,Door2,-0.342592593,-0.013888889,1,0,0,1.0909,optionLeft,20,6020,3,28,0,28,0,1,,,,,,,,,,,,,,,,,,,,,,,,,,,,,,,,,,,,,,,
,,,,,,,,2023-08-16_08h46.05.982,HF_wild_card,2022.2.4,Win32,59.98080614,6097c0f1b17aabadc9369fc5,64d2fd46c836a06233681665,64dc7eb3c002480885e295da,,,,,,,sngl,resources/Empty.png,resources/DB.BMP,Door4,0.337962963,-0.051851852,1,0,0,0.5881,optionRight,60,6080,3,29,0,29,0,1,,,,,,,,,,,,,,,,,,,,,,,,,,,,,,,,,,,,,,,
,,,,,,,,2023-08-16_08h46.05.982,HF_wild_card,2022.2.4,Win32,59.98080614,6097c0f1b17aabadc9369fc5,64d2fd46c836a06233681665,64dc7eb3c002480885e295da,,,,,,,sngl,resources/DB.BMP,resources/Empty.png,Door4,-0.30462963,0.050925926,1,0,0,0.6206,optionLeft,80,6160,3,30,0,30,0,1,,,,,,,,,,,,,,,,,,,,,,,,,,,,,,,,,,,,,,,
,,,,,,,,2023-08-16_08h46.05.982,HF_wild_card,2022.2.4,Win32,59.98080614,6097c0f1b17aabadc9369fc5,64d2fd46c836a06233681665,64dc7eb3c002480885e295da,,,,,,,ctch,resources/DP.BMP,resources/DB.BMP,Door4,0.384259259,-0.003703704,1,0,0,1.6789,optionRight,80,6240,3,31,0,31,0,1,,,,,,,,,,,,,,,,,,,,,,,,,,,,,,,,,,,,,,,
,,,,,,,,2023-08-16_08h46.05.982,HF_wild_card,2022.2.4,Win32,59.98080614,6097c0f1b17aabadc9369fc5,64d2fd46c836a06233681665,64dc7eb3c002480885e295da,,,,,,,decisionTrl,resources/DY.BMP,resources/DG.BMP,Door2,-0.272222222,0.02962963,1,0,0,1.3386,optionLeft,20,6260,3,32,0,32,0,1,,,,,,,,,,,,,,,,,,,,,,,,,,,,,,,,,,,,,,,
,,,,,,,,2023-08-16_08h46.05.982,HF_wild_card,2022.2.4,Win32,59.98080614,6097c0f1b17aabadc9369fc5,64d2fd46c836a06233681665,64dc7eb3c002480885e295da,,,,,,,decisionTrl,resources/DG.BMP,resources/DY.BMP,WildCard_Ex,-0.214814815,0.015740741,1,0,0,0.5464,optionLeft,5,6265,3,33,0,33,0,1,,,,,,,,,,,,,,,,,,,,,,,,,,,,,,,,,,,,,,,
,,,,,,,,2023-08-16_08h46.05.982,HF_wild_card,2022.2.4,Win32,59.98080614,6097c0f1b17aabadc9369fc5,64d2fd46c836a06233681665,64dc7eb3c002480885e295da,,,,,,,ctch,resources/DB.BMP,resources/DP.BMP,Door1,0.356481481,-0.033333333,1,0,0,1.8632,optionRight,30,6295,3,34,0,34,0,1,,,,,,,,,,,,,,,,,,,,,,,,,,,,,,,,,,,,,,,
,,,,,,,,2023-08-16_08h46.05.982,HF_wild_card,2022.2.4,Win32,59.98080614,6097c0f1b17aabadc9369fc5,64d2fd46c836a06233681665,64dc7eb3c002480885e295da,,,,,,,ctch,resources/DB.BMP,resources/DP.BMP,Door4,-0.200925926,-0.001851852,1,0,0,0.8444,optionLeft,80,6375,3,35,0,35,0,1,,,,,,,,,,,,,,,,,,,,,,,,,,,,,,,,,,,,,,,
,,,,,,,,2023-08-16_08h46.05.982,HF_wild_card,2022.2.4,Win32,59.98080614,6097c0f1b17aabadc9369fc5,64d2fd46c836a06233681665,64dc7eb3c002480885e295da,,,,,,,sngl,resources/DY.BMP,resources/Empty.png,Door2,-0.312962963,-0.075,1,0,0,2.5432,optionLeft,40,6415,3,36,0,36,0,1,,,,,,,,,,,,,,,,,,,,,,,,,,,,,,,,,,,,,,,
,,,,,,,,2023-08-16_08h46.05.982,HF_wild_card,2022.2.4,Win32,59.98080614,6097c0f1b17aabadc9369fc5,64d2fd46c836a06233681665,64dc7eb3c002480885e295da,,,,,,,decisionTrl,resources/DP.BMP,resources/DG.BMP,WildCard_Ex,0.265740741,-0.069444444,1,0,0,2.5765,optionRight,5,6420,3,37,0,37,0,1,,,,,,,,,,,,,,,,,,,,,,,,,,,,,,,,,,,,,,,
,,,,,,,,2023-08-16_08h46.05.982,HF_wild_card,2022.2.4,Win32,59.98080614,6097c0f1b17aabadc9369fc5,64d2fd46c836a06233681665,64dc7eb3c002480885e295da,,,,,,,sngl,resources/Empty.png,resources/DG.BMP,WildCard_Ex,0.440740741,-0.066666667,1,0,0,0.5257,optionRight,5,6425,3,38,0,38,0,1,,,,,,,,,,,,,,,,,,,,,,,,,,,,,,,,,,,,,,,
,,,,,,,,2023-08-16_08h46.05.982,HF_wild_card,2022.2.4,Win32,59.98080614,6097c0f1b17aabadc9369fc5,64d2fd46c836a06233681665,64dc7eb3c002480885e295da,,,,,,,decisionTrl,resources/DBN.BMP,resources/DB.BMP,Door3,-0.272222222,0.024074074,1,0,0,0.6358,optionLeft,70,6495,3,39,0,39,0,1,,,,,,,,,,,,,,,,,,,,,,,,,,,,,,,,,,,,,,,
,,,,,,,,2023-08-16_08h46.05.982,HF_wild_card,2022.2.4,Win32,59.98080614,6097c0f1b17aabadc9369fc5,64d2fd46c836a06233681665,64dc7eb3c002480885e295da,,,,,,,decisionTrl,resources/DY.BMP,resources/DP.BMP,Door1,0.439814815,0.025925926,1,0,0,3.2046,optionRight,30,6525,3,40,0,40,0,1,,,,,,,,,,,,,,,,,,,,,,,,,,,,,,,,,,,,,,,
,,,,,,,,2023-08-16_08h46.05.982,HF_wild_card,2022.2.4,Win32,59.98080614,6097c0f1b17aabadc9369fc5,64d2fd46c836a06233681665,64dc7eb3c002480885e295da,,,,,,,decisionTrl,resources/DB.BMP,resources/DBN.BMP,Door4,-0.384259259,0.058333333,1,0,0,2.0609,optionLeft,80,6605,3,41,0,41,0,1,,,,,,,,,,,,,,,,,,,,,,,,,,,,,,,,,,,,,,,
,,,,,,,,2023-08-16_08h46.05.982,HF_wild_card,2022.2.4,Win32,59.98080614,6097c0f1b17aabadc9369fc5,64d2fd46c836a06233681665,64dc7eb3c002480885e295da,,,,,,,decisionTrl,resources/DG.BMP,resources/DBN.BMP,Door3,0.339814815,-0.000925926,1,0,0,0.6451,optionRight,70,6675,3,42,0,42,0,1,,,,,,,,,,,,,,,,,,,,,,,,,,,,,,,,,,,,,,,
,,,,,,,,2023-08-16_08h46.05.982,HF_wild_card,2022.2.4,Win32,59.98080614,6097c0f1b17aabadc9369fc5,64d2fd46c836a06233681665,64dc7eb3c002480885e295da,,,,,,,decisionTrl,resources/DG.BMP,resources/DP.BMP,WildCard_Ex,-0.34537037,0.013888889,1,0,0,1.144,optionLeft,95,6770,3,43,0,43,0,1,,,,,,,,,,,,,,,,,,,,,,,,,,,,,,,,,,,,,,,
,,,,,,,,2023-08-16_08h46.05.982,HF_wild_card,2022.2.4,Win32,59.98080614,6097c0f1b17aabadc9369fc5,64d2fd46c836a06233681665,64dc7eb3c002480885e295da,,,,,,,,,,,,,,,,,,,,,,,,,,2,0,2,0,1,,,,,,,,,,,,,,,,,,,,,,,,,,,,,,,,,,
,,,,,,,,2023-08-16_08h46.05.982,HF_wild_card,2022.2.4,Win32,59.98080614,6097c0f1b17aabadc9369fc5,64d2fd46c836a06233681665,64dc7eb3c002480885e295da,,,,,,,decisionTrl,resources/DY.BMP,resources/DP.BMP,Door1,0.480555556,-0.080555556,1,0,0,0.7716,optionRight,30,6800,4,0,0,0,0,1,,,,,,,,,,,,,,,,,,,,,,,,,,,,,,,,,,,,,,,
,,,,,,,,2023-08-16_08h46.05.982,HF_wild_card,2022.2.4,Win32,59.98080614,6097c0f1b17aabadc9369fc5,64d2fd46c836a06233681665,64dc7eb3c002480885e295da,,,,,,,decisionTrl,resources/DR.BMP,resources/DP.BMP,WildCard_NonEx,-0.236111111,-0.015740741,1,0,0,0.6613,optionLeft,55,6855,4,1,0,1,0,1,,,,,,,,,,,,,,,,,,,,,,,,,,,,,,,,,,,,,,,
,,,,,,,,2023-08-16_08h46.05.982,HF_wild_card,2022.2.4,Win32,59.98080614,6097c0f1b17aabadc9369fc5,64d2fd46c836a06233681665,64dc7eb3c002480885e295da,,,,,,,sngl,resources/Empty.png,resources/DR.BMP,WildCard_NonEx,0.266666667,0.02962963,1,0,0,0.4599,optionRight,45,6900,4,2,0,2,0,1,,,,,,,,,,,,,,,,,,,,,,,,,,,,,,,,,,,,,,,
,,,,,,,,2023-08-16_08h46.05.982,HF_wild_card,2022.2.4,Win32,59.98080614,6097c0f1b17aabadc9369fc5,64d2fd46c836a06233681665,64dc7eb3c002480885e295da,,,,,,,decisionTrl,resources/DP.BMP,resources/DY.BMP,Door1,-0.364814815,0.031481481,1,0,0,0.4763,optionLeft,30,6930,4,3,0,3,0,1,,,,,,,,,,,,,,,,,,,,,,,,,,,,,,,,,,,,,,,
,,,,,,,,2023-08-16_08h46.05.982,HF_wild_card,2022.2.4,Win32,59.98080614,6097c0f1b17aabadc9369fc5,64d2fd46c836a06233681665,64dc7eb3c002480885e295da,,,,,,,ctch,resources/DP.BMP,resources/DB.BMP,Door4,0.491666667,0.047222222,1,0,0,1.0438,optionRight,80,7010,4,4,0,4,0,1,,,,,,,,,,,,,,,,,,,,,,,,,,,,,,,,,,,,,,,
,,,,,,,,2023-08-16_08h46.05.982,HF_wild_card,2022.2.4,Win32,59.98080614,6097c0f1b17aabadc9369fc5,64d2fd46c836a06233681665,64dc7eb3c002480885e295da,,,,,,,ctch,resources/DY.BMP,resources/DBN.BMP,Door3,0.402777778,0.024074074,1,0,0,0.8715,optionRight,70,7080,4,5,0,5,0,1,,,,,,,,,,,,,,,,,,,,,,,,,,,,,,,,,,,,,,,
,,,,,,,,2023-08-16_08h46.05.982,HF_wild_card,2022.2.4,Win32,59.98080614,6097c0f1b17aabadc9369fc5,64d2fd46c836a06233681665,64dc7eb3c002480885e295da,,,,,,,sngl,resources/DB.BMP,resources/Empty.png,Door4,-0.347222222,0.033333333,1,0,0,0.5252,optionLeft,60,7140,4,6,0,6,0,1,,,,,,,,,,,,,,,,,,,,,,,,,,,,,,,,,,,,,,,
,,,,,,,,2023-08-16_08h46.05.982,HF_wild_card,2022.2.4,Win32,59.98080614,6097c0f1b17aabadc9369fc5,64d2fd46c836a06233681665,64dc7eb3c002480885e295da,,,,,,,sngl,resources/DBN.BMP,resources/Empty.png,Door3,-0.426851852,0.055555556,1,0,0,0.7383,optionLeft,70,7210,4,7,0,7,0,1,,,,,,,,,,,,,,,,,,,,,,,,,,,,,,,,,,,,,,,
,,,,,,,,2023-08-16_08h46.05.982,HF_wild_card,2022.2.4,Win32,59.98080614,6097c0f1b17aabadc9369fc5,64d2fd46c836a06233681665,64dc7eb3c002480885e295da,,,,,,,sngl,resources/DY.BMP,resources/Empty.png,Door2,-0.346296296,-0.001851852,1,0,0,0.4963,optionLeft,20,7230,4,8,0,8,0,1,,,,,,,,,,,,,,,,,,,,,,,,,,,,,,,,,,,,,,,
,,,,,,,,2023-08-16_08h46.05.982,HF_wild_card,2022.2.4,Win32,59.98080614,6097c0f1b17aabadc9369fc5,64d2fd46c836a06233681665,64dc7eb3c002480885e295da,,,,,,,decisionTrl,resources/DR.BMP,resources/DBN.BMP,Door3,0.383333333,0.018518519,1,0,0,0.5264,optionRight,70,7300,4,9,0,9,0,1,,,,,,,,,,,,,,,,,,,,,,,,,,,,,,,,,,,,,,,
,,,,,,,,2023-08-16_08h46.05.982,HF_wild_card,2022.2.4,Win32,59.98080614,6097c0f1b17aabadc9369fc5,64d2fd46c836a06233681665,64dc7eb3c002480885e295da,,,,,,,decisionTrl,resources/DP.BMP,resources/DR.BMP,Door1,-0.290740741,0.036111111,1,0,0,0.88,optionLeft,30,7330,4,10,0,10,0,1,,,,,,,,,,,,,,,,,,,,,,,,,,,,,,,,,,,,,,,
,,,,,,,,2023-08-16_08h46.05.982,HF_wild_card,2022.2.4,Win32,59.98080614,6097c0f1b17aabadc9369fc5,64d2fd46c836a06233681665,64dc7eb3c002480885e295da,,,,,,,sngl,resources/DR.BMP,resources/Empty.png,WildCard_NonEx,-0.218518519,0.021296296,1,0,0,0.5789,optionLeft,45,7375,4,11,0,11,0,1,,,,,,,,,,,,,,,,,,,,,,,,,,,,,,,,,,,,,,,
,,,,,,,,2023-08-16_08h46.05.982,HF_wild_card,2022.2.4,Win32,59.98080614,6097c0f1b17aabadc9369fc5,64d2fd46c836a06233681665,64dc7eb3c002480885e295da,,,,,,,decisionTrl,resources/DB.BMP,resources/DBN.BMP,Door3,0.347222222,0.017592593,1,0,0,0.5711,optionRight,70,7445,4,12,0,12,0,1,,,,,,,,,,,,,,,,,,,,,,,,,,,,,,,,,,,,,,,
,,,,,,,,2023-08-16_08h46.05.982,HF_wild_card,2022.2.4,Win32,59.98080614,6097c0f1b17aabadc9369fc5,64d2fd46c836a06233681665,64dc7eb3c002480885e295da,,,,,,,decisionTrl,resources/DP.BMP,resources/DY.BMP,Door2,0.342592593,0.02037037,1,0,0,4.3068,optionRight,20,7465,4,13,0,13,0,1,,,,,,,,,,,,,,,,,,,,,,,,,,,,,,,,,,,,,,,
,,,,,,,,2023-08-16_08h46.05.982,HF_wild_card,2022.2.4,Win32,59.98080614,6097c0f1b17aabadc9369fc5,64d2fd46c836a06233681665,64dc7eb3c002480885e295da,,,,,,,decisionTrl,resources/DB.BMP,resources/DBN.BMP,Door4,-0.278703704,0.018518519,1,0,0,1.0797,optionLeft,80,7545,4,14,0,14,0,1,,,,,,,,,,,,,,,,,,,,,,,,,,,,,,,,,,,,,,,
,,,,,,,,2023-08-16_08h46.05.982,HF_wild_card,2022.2.4,Win32,59.98080614,6097c0f1b17aabadc9369fc5,64d2fd46c836a06233681665,64dc7eb3c002480885e295da,,,,,,,ctch,resources/DY.BMP,resources/DBN.BMP,Door3,0.324074074,0.056481481,1,0,0,1.5302,optionRight,70,7615,4,15,0,15,0,1,,,,,,,,,,,,,,,,,,,,,,,,,,,,,,,,,,,,,,,
,,,,,,,,2023-08-16_08h46.05.982,HF_wild_card,2022.2.4,Win32,59.98080614,6097c0f1b17aabadc9369fc5,64d2fd46c836a06233681665,64dc7eb3c002480885e295da,,,,,,,decisionTrl,resources/DY.BMP,resources/DP.BMP,Door2,-0.37037037,0.017592593,1,0,0,1.7137,optionLeft,40,7655,4,16,0,16,0,1,,,,,,,,,,,,,,,,,,,,,,,,,,,,,,,,,,,,,,,
,,,,,,,,2023-08-16_08h46.05.982,HF_wild_card,2022.2.4,Win32,59.98080614,6097c0f1b17aabadc9369fc5,64d2fd46c836a06233681665,64dc7eb3c002480885e295da,,,,,,,decisionTrl,resources/DB.BMP,resources/DBN.BMP,Door4,-0.340740741,0.02037037,1,0,0,1.0302,optionLeft,80,7735,4,17,0,17,0,1,,,,,,,,,,,,,,,,,,,,,,,,,,,,,,,,,,,,,,,
,,,,,,,,2023-08-16_08h46.05.982,HF_wild_card,2022.2.4,Win32,59.98080614,6097c0f1b17aabadc9369fc5,64d2fd46c836a06233681665,64dc7eb3c002480885e295da,,,,,,,decisionTrl,resources/DP.BMP,resources/DY.BMP,Door2,0.471296296,-0.021296296,1,0,0,1.5082,optionRight,40,7775,4,18,0,18,0,1,,,,,,,,,,,,,,,,,,,,,,,,,,,,,,,,,,,,,,,
,,,,,,,,2023-08-16_08h46.05.982,HF_wild_card,2022.2.4,Win32,59.98080614,6097c0f1b17aabadc9369fc5,64d2fd46c836a06233681665,64dc7eb3c002480885e295da,,,,,,,sngl,resources/Empty.png,resources/DR.BMP,WildCard_NonEx,0.343518519,0.012962963,1,0,0,0.6527,optionRight,55,7830,4,19,0,19,0,1,,,,,,,,,,,,,,,,,,,,,,,,,,,,,,,,,,,,,,,
,,,,,,,,2023-08-16_08h46.05.982,HF_wild_card,2022.2.4,Win32,59.98080614,6097c0f1b17aabadc9369fc5,64d2fd46c836a06233681665,64dc7eb3c002480885e295da,,,,,,,decisionTrl,resources/DB.BMP,resources/DR.BMP,Door4,-0.324074074,0.019444444,1,0,0,1.0649,optionLeft,60,7890,4,20,0,20,0,1,,,,,,,,,,,,,,,,,,,,,,,,,,,,,,,,,,,,,,,
,,,,,,,,2023-08-16_08h46.05.982,HF_wild_card,2022.2.4,Win32,59.98080614,6097c0f1b17aabadc9369fc5,64d2fd46c836a06233681665,64dc7eb3c002480885e295da,,,,,,,sngl,resources/DP.BMP,resources/Empty.png,Door1,-0.487037037,0.002777778,1,0,0,0.5274,optionLeft,30,7920,4,21,0,21,0,1,,,,,,,,,,,,,,,,,,,,,,,,,,,,,,,,,,,,,,,
,,,,,,,,2023-08-16_08h46.05.982,HF_wild_card,2022.2.4,Win32,59.98080614,6097c0f1b17aabadc9369fc5,64d2fd46c836a06233681665,64dc7eb3c002480885e295da,,,,,,,sngl,resources/Empty.png,resources/DB.BMP,Door4,0.496296296,0.001851852,1,0,0,0.4776,optionRight,80,8000,4,22,0,22,0,1,,,,,,,,,,,,,,,,,,,,,,,,,,,,,,,,,,,,,,,
,,,,,,,,2023-08-16_08h46.05.982,HF_wild_card,2022.2.4,Win32,59.98080614,6097c0f1b17aabadc9369fc5,64d2fd46c836a06233681665,64dc7eb3c002480885e295da,,,,,,,decisionTrl,resources/DP.BMP,resources/DY.BMP,Door1,-0.300925926,0.027777778,1,0,0,1.0957,optionLeft,30,8030,4,23,0,23,0,1,,,,,,,,,,,,,,,,,,,,,,,,,,,,,,,,,,,,,,,
,,,,,,,,2023-08-16_08h46.05.982,HF_wild_card,2022.2.4,Win32,59.98080614,6097c0f1b17aabadc9369fc5,64d2fd46c836a06233681665,64dc7eb3c002480885e295da,,,,,,,sngl,resources/Empty.png,resources/DP.BMP,Door1,0.45462963,-0.012037037,1,0,0,0.6929,optionRight,30,8060,4,24,0,24,0,1,,,,,,,,,,,,,,,,,,,,,,,,,,,,,,,,,,,,,,,
,,,,,,,,2023-08-16_08h46.05.982,HF_wild_card,2022.2.4,Win32,59.98080614,6097c0f1b17aabadc9369fc5,64d2fd46c836a06233681665,64dc7eb3c002480885e295da,,,,,,,sngl,resources/DR.BMP,resources/Empty.png,WildCard_NonEx,-0.286111111,0.012962963,1,0,0,0.6456,optionLeft,55,8115,4,25,0,25,0,1,,,,,,,,,,,,,,,,,,,,,,,,,,,,,,,,,,,,,,,
,,,,,,,,2023-08-16_08h46.05.982,HF_wild_card,2022.2.4,Win32,59.98080614,6097c0f1b17aabadc9369fc5,64d2fd46c836a06233681665,64dc7eb3c002480885e295da,,,,,,,ctch,resources/DP.BMP,resources/DB.BMP,Door4,0.384259259,0.012037037,1,0,0,1.1935,optionRight,80,8195,4,26,0,26,0,1,,,,,,,,,,,,,,,,,,,,,,,,,,,,,,,,,,,,,,,
,,,,,,,,2023-08-16_08h46.05.982,HF_wild_card,2022.2.4,Win32,59.98080614,6097c0f1b17aabadc9369fc5,64d2fd46c836a06233681665,64dc7eb3c002480885e295da,,,,,,,decisionTrl,resources/DR.BMP,resources/DY.BMP,WildCard_NonEx,-0.205555556,0.042592593,1,0,0,1.5104,optionLeft,45,8240,4,27,0,27,0,1,,,,,,,,,,,,,,,,,,,,,,,,,,,,,,,,,,,,,,,
,,,,,,,,2023-08-16_08h46.05.982,HF_wild_card,2022.2.4,Win32,59.98080614,6097c0f1b17aabadc9369fc5,64d2fd46c836a06233681665,64dc7eb3c002480885e295da,,,,,,,decisionTrl,resources/DB.BMP,resources/DBN.BMP,Door3,0.319444444,-0.034259259,1,0,0,0.8562,optionRight,70,8310,4,28,0,28,0,1,,,,,,,,,,,,,,,,,,,,,,,,,,,,,,,,,,,,,,,
,,,,,,,,2023-08-16_08h46.05.982,HF_wild_card,2022.2.4,Win32,59.98080614,6097c0f1b17aabadc9369fc5,64d2fd46c836a06233681665,64dc7eb3c002480885e295da,,,,,,,ctch,resources/DBN.BMP,resources/DY.BMP,Door3,-0.218518519,0.008333333,1,0,0,0.7273,optionLeft,70,8380,4,29,0,29,0,1,,,,,,,,,,,,,,,,,,,,,,,,,,,,,,,,,,,,,,,
,,,,,,,,2023-08-16_08h46.05.982,HF_wild_card,2022.2.4,Win32,59.98080614,6097c0f1b17aabadc9369fc5,64d2fd46c836a06233681665,64dc7eb3c002480885e295da,,,,,,,decisionTrl,resources/DBN.BMP,resources/DB.BMP,Door4,0.290740741,0.025925926,1,0,0,0.9438,optionRight,80,8460,4,30,0,30,0,1,,,,,,,,,,,,,,,,,,,,,,,,,,,,,,,,,,,,,,,
,,,,,,,,2023-08-16_08h46.05.982,HF_wild_card,2022.2.4,Win32,59.98080614,6097c0f1b17aabadc9369fc5,64d2fd46c836a06233681665,64dc7eb3c002480885e295da,,,,,,,decisionTrl,resources/DBN.BMP,resources/DR.BMP,Door3,-0.369444444,0.060185185,1,0,0,2.3442,optionLeft,70,8530,4,31,0,31,0,1,,,,,,,,,,,,,,,,,,,,,,,,,,,,,,,,,,,,,,,
,,,,,,,,2023-08-16_08h46.05.982,HF_wild_card,2022.2.4,Win32,59.98080614,6097c0f1b17aabadc9369fc5,64d2fd46c836a06233681665,64dc7eb3c002480885e295da,,,,,,,decisionTrl,resources/DY.BMP,resources/DP.BMP,Door2,-0.218518519,0,1,0,0,1.3145,optionLeft,40,8570,4,32,0,32,0,1,,,,,,,,,,,,,,,,,,,,,,,,,,,,,,,,,,,,,,,
,,,,,,,,2023-08-16_08h46.05.982,HF_wild_card,2022.2.4,Win32,59.98080614,6097c0f1b17aabadc9369fc5,64d2fd46c836a06233681665,64dc7eb3c002480885e295da,,,,,,,decisionTrl,resources/DBN.BMP,resources/DB.BMP,Door4,0.443518519,-0.074074074,1,0,0,1.0605,optionRight,80,8650,4,33,0,33,0,1,,,,,,,,,,,,,,,,,,,,,,,,,,,,,,,,,,,,,,,
,,,,,,,,2023-08-16_08h46.05.982,HF_wild_card,2022.2.4,Win32,59.98080614,6097c0f1b17aabadc9369fc5,64d2fd46c836a06233681665,64dc7eb3c002480885e295da,,,,,,,decisionTrl,resources/DBN.BMP,resources/DB.BMP,Door4,0.357407407,-0.023148148,1,0,0,0.9772,optionRight,80,8730,4,34,0,34,0,1,,,,,,,,,,,,,,,,,,,,,,,,,,,,,,,,,,,,,,,
,,,,,,,,2023-08-16_08h46.05.982,HF_wild_card,2022.2.4,Win32,59.98080614,6097c0f1b17aabadc9369fc5,64d2fd46c836a06233681665,64dc7eb3c002480885e295da,,,,,,,decisionTrl,resources/DR.BMP,resources/DB.BMP,Door4,0.369444444,-0.016666667,1,0,0,1.044,optionRight,60,8790,4,35,0,35,0,1,,,,,,,,,,,,,,,,,,,,,,,,,,,,,,,,,,,,,,,
,,,,,,,,2023-08-16_08h46.05.982,HF_wild_card,2022.2.4,Win32,59.98080614,6097c0f1b17aabadc9369fc5,64d2fd46c836a06233681665,64dc7eb3c002480885e295da,,,,,,,decisionTrl,resources/DY.BMP,resources/DR.BMP,Door2,-0.313888889,0.008333333,1,0,0,1.162,optionLeft,20,8810,4,36,0,36,0,1,,,,,,,,,,,,,,,,,,,,,,,,,,,,,,,,,,,,,,,
,,,,,,,,2023-08-16_08h46.05.982,HF_wild_card,2022.2.4,Win32,59.98080614,6097c0f1b17aabadc9369fc5,64d2fd46c836a06233681665,64dc7eb3c002480885e295da,,,,,,,sngl,resources/Empty.png,resources/DBN.BMP,Door3,0.341666667,0.040740741,1,0,0,0.6946,optionRight,70,8880,4,37,0,37,0,1,,,,,,,,,,,,,,,,,,,,,,,,,,,,,,,,,,,,,,,
,,,,,,,,2023-08-16_08h46.05.982,HF_wild_card,2022.2.4,Win32,59.98080614,6097c0f1b17aabadc9369fc5,64d2fd46c836a06233681665,64dc7eb3c002480885e295da,,,,,,,sngl,resources/Empty.png,resources/DY.BMP,Door2,0.362037037,-0.028703704,1,0,0,0.5438,optionRight,40,8920,4,38,0,38,0,1,,,,,,,,,,,,,,,,,,,,,,,,,,,,,,,,,,,,,,,
,,,,,,,,2023-08-16_08h46.05.982,HF_wild_card,2022.2.4,Win32,59.98080614,6097c0f1b17aabadc9369fc5,64d2fd46c836a06233681665,64dc7eb3c002480885e295da,,,,,,,ctch,resources/DB.BMP,resources/DP.BMP,Door4,-0.305555556,-0.007407407,1,0,0,0.7278,optionLeft,60,8980,4,39,0,39,0,1,,,,,,,,,,,,,,,,,,,,,,,,,,,,,,,,,,,,,,,
,,,,,,,,2023-08-16_08h46.05.982,HF_wild_card,2022.2.4,Win32,59.98080614,6097c0f1b17aabadc9369fc5,64d2fd46c836a06233681665,64dc7eb3c002480885e295da,,,,,,,decisionTrl,resources/DBN.BMP,resources/DB.BMP,Door3,-0.341666667,-0.001851852,1,0,0,0.6269,optionLeft,70,9050,4,40,0,40,0,1,,,,,,,,,,,,,,,,,,,,,,,,,,,,,,,,,,,,,,,
,,,,,,,,2023-08-16_08h46.05.982,HF_wild_card,2022.2.4,Win32,59.98080614,6097c0f1b17aabadc9369fc5,64d2fd46c836a06233681665,64dc7eb3c002480885e295da,,,,,,,ctch,resources/DB.BMP,resources/DP.BMP,Door4,-0.287037037,-0.023148148,1,0,0,1.0805,optionLeft,60,9110,4,41,0,41,0,1,,,,,,,,,,,,,,,,,,,,,,,,,,,,,,,,,,,,,,,
,,,,,,,,2023-08-16_08h46.05.982,HF_wild_card,2022.2.4,Win32,59.98080614,6097c0f1b17aabadc9369fc5,64d2fd46c836a06233681665,64dc7eb3c002480885e295da,,,,,,,decisionTrl,resources/DY.BMP,resources/DP.BMP,Door1,0.502777778,0.011111111,1,0,0,0.8109,optionRight,30,9140,4,42,0,42,0,1,,,,,,,,,,,,,,,,,,,,,,,,,,,,,,,,,,,,,,,
,,,,,,,,2023-08-16_08h46.05.982,HF_wild_card,2022.2.4,Win32,59.98080614,6097c0f1b17aabadc9369fc5,64d2fd46c836a06233681665,64dc7eb3c002480885e295da,,,,,,,ctch,resources/DBN.BMP,resources/DY.BMP,Door3,-0.227777778,-0.030555556,1,0,0,0.621,optionLeft,70,9210,4,43,0,43,0,1,,,,,,,,,,,,,,,,,,,,,,,,,,,,,,,,,,,,,,,
,,,,,,,,2023-08-16_08h46.05.982,HF_wild_card,2022.2.4,Win32,59.98080614,6097c0f1b17aabadc9369fc5,64d2fd46c836a06233681665,64dc7eb3c002480885e295da,,,,,,,,,,,,,,,,,,,,,,,,,,3,0,3,0,1,,,,,,,,,,,,,,,,,,,,,,,,,,,,,,,,,,
,,,,,,,,2023-08-16_08h46.05.982,HF_wild_card,2022.2.4,Win32,59.98080614,6097c0f1b17aabadc9369fc5,64d2fd46c836a06233681665,64dc7eb3c002480885e295da,,,,,,,decisionTrl,resources/DY.BMP,resources/DP.BMP,Door2,-0.344444444,-0.025,1,0,0,0.9826,optionLeft,40,9250,5,0,0,0,0,1,,,,,,,,,,,,,,,,,,,,,,,,,,,,,,,,,,,,,,,
,,,,,,,,2023-08-16_08h46.05.982,HF_wild_card,2022.2.4,Win32,59.98080614,6097c0f1b17aabadc9369fc5,64d2fd46c836a06233681665,64dc7eb3c002480885e295da,,,,,,,decisionTrl,resources/DP.BMP,resources/DR.BMP,WildCard_NonEx,0.302777778,-0.040740741,1,0,0,1.0438,optionRight,45,9295,5,1,0,1,0,1,,,,,,,,,,,,,,,,,,,,,,,,,,,,,,,,,,,,,,,
,,,,,,,,2023-08-16_08h46.05.982,HF_wild_card,2022.2.4,Win32,59.98080614,6097c0f1b17aabadc9369fc5,64d2fd46c836a06233681665,64dc7eb3c002480885e295da,,,,,,,decisionTrl,resources/DR.BMP,resources/DBN.BMP,Door3,0.32962963,0.00462963,1,0,0,0.7774,optionRight,70,9365,5,2,0,2,0,1,,,,,,,,,,,,,,,,,,,,,,,,,,,,,,,,,,,,,,,
,,,,,,,,2023-08-16_08h46.05.982,HF_wild_card,2022.2.4,Win32,59.98080614,6097c0f1b17aabadc9369fc5,64d2fd46c836a06233681665,64dc7eb3c002480885e295da,,,,,,,decisionTrl,resources/DB.BMP,resources/DBN.BMP,Door3,0.405555556,0.010185185,1,0,0,0.5107,optionRight,70,9435,5,3,0,3,0,1,,,,,,,,,,,,,,,,,,,,,,,,,,,,,,,,,,,,,,,
,,,,,,,,2023-08-16_08h46.05.982,HF_wild_card,2022.2.4,Win32,59.98080614,6097c0f1b17aabadc9369fc5,64d2fd46c836a06233681665,64dc7eb3c002480885e295da,,,,,,,sngl,resources/DR.BMP,resources/Empty.png,WildCard_NonEx,-0.35462963,0.041666667,1,0,0,0.4452,optionLeft,45,9480,5,4,0,4,0,1,,,,,,,,,,,,,,,,,,,,,,,,,,,,,,,,,,,,,,,
,,,,,,,,2023-08-16_08h46.05.982,HF_wild_card,2022.2.4,Win32,59.98080614,6097c0f1b17aabadc9369fc5,64d2fd46c836a06233681665,64dc7eb3c002480885e295da,,,,,,,sngl,resources/DY.BMP,resources/Empty.png,Door2,-0.313888889,0.026851852,1,0,0,0.4759,optionLeft,40,9520,5,5,0,5,0,1,,,,,,,,,,,,,,,,,,,,,,,,,,,,,,,,,,,,,,,
,,,,,,,,2023-08-16_08h46.05.982,HF_wild_card,2022.2.4,Win32,59.98080614,6097c0f1b17aabadc9369fc5,64d2fd46c836a06233681665,64dc7eb3c002480885e295da,,,,,,,sngl,resources/Empty.png,resources/DR.BMP,WildCard_NonEx,0.536111111,-0.04537037,1,0,0,0.5612,optionRight,55,9575,5,6,0,6,0,1,,,,,,,,,,,,,,,,,,,,,,,,,,,,,,,,,,,,,,,
,,,,,,,,2023-08-16_08h46.05.982,HF_wild_card,2022.2.4,Win32,59.98080614,6097c0f1b17aabadc9369fc5,64d2fd46c836a06233681665,64dc7eb3c002480885e295da,,,,,,,sngl,resources/Empty.png,resources/DY.BMP,Door2,0.358333333,-0.002777778,1,0,0,1.8432,optionRight,20,9595,5,7,0,7,0,1,,,,,,,,,,,,,,,,,,,,,,,,,,,,,,,,,,,,,,,
,,,,,,,,2023-08-16_08h46.05.982,HF_wild_card,2022.2.4,Win32,59.98080614,6097c0f1b17aabadc9369fc5,64d2fd46c836a06233681665,64dc7eb3c002480885e295da,,,,,,,decisionTrl,resources/DB.BMP,resources/DR.BMP,Door4,-0.228703704,-0.057407407,1,0,0,1.2418,optionLeft,80,9675,5,8,0,8,0,1,,,,,,,,,,,,,,,,,,,,,,,,,,,,,,,,,,,,,,,
,,,,,,,,2023-08-16_08h46.05.982,HF_wild_card,2022.2.4,Win32,59.98080614,6097c0f1b17aabadc9369fc5,64d2fd46c836a06233681665,64dc7eb3c002480885e295da,,,,,,,sngl,resources/DB.BMP,resources/Empty.png,Door4,-0.167592593,-0.016666667,1,0,0,0.5672,optionLeft,80,9755,5,9,0,9,0,1,,,,,,,,,,,,,,,,,,,,,,,,,,,,,,,,,,,,,,,
,,,,,,,,2023-08-16_08h46.05.982,HF_wild_card,2022.2.4,Win32,59.98080614,6097c0f1b17aabadc9369fc5,64d2fd46c836a06233681665,64dc7eb3c002480885e295da,,,,,,,sngl,resources/DBN.BMP,resources/Empty.png,Door3,-0.192592593,0.001851852,1,0,0,0.6606,optionLeft,70,9825,5,10,0,10,0,1,,,,,,,,,,,,,,,,,,,,,,,,,,,,,,,,,,,,,,,
,,,,,,,,2023-08-16_08h46.05.982,HF_wild_card,2022.2.4,Win32,59.98080614,6097c0f1b17aabadc9369fc5,64d2fd46c836a06233681665,64dc7eb3c002480885e295da,,,,,,,decisionTrl,resources/DY.BMP,resources/DR.BMP,Door2,-0.202777778,-0.022222222,1,0,0,1.1427,optionLeft,40,9865,5,11,0,11,0,1,,,,,,,,,,,,,,,,,,,,,,,,,,,,,,,,,,,,,,,
,,,,,,,,2023-08-16_08h46.05.982,HF_wild_card,2022.2.4,Win32,59.98080614,6097c0f1b17aabadc9369fc5,64d2fd46c836a06233681665,64dc7eb3c002480885e295da,,,,,,,decisionTrl,resources/DB.BMP,resources/DBN.BMP,Door4,-0.226851852,-0.023148148,1,0,0,1.0772,optionLeft,60,9925,5,12,0,12,0,1,,,,,,,,,,,,,,,,,,,,,,,,,,,,,,,,,,,,,,,
,,,,,,,,2023-08-16_08h46.05.982,HF_wild_card,2022.2.4,Win32,59.98080614,6097c0f1b17aabadc9369fc5,64d2fd46c836a06233681665,64dc7eb3c002480885e295da,,,,,,,decisionTrl,resources/DBN.BMP,resources/DB.BMP,Door3,-0.226851852,-0.025,1,0,0,0.8938,optionLeft,70,9995,5,13,0,13,0,1,,,,,,,,,,,,,,,,,,,,,,,,,,,,,,,,,,,,,,,
,,,,,,,,2023-08-16_08h46.05.982,HF_wild_card,2022.2.4,Win32,59.98080614,6097c0f1b17aabadc9369fc5,64d2fd46c836a06233681665,64dc7eb3c002480885e295da,,,,,,,sngl,resources/Empty.png,resources/DB.BMP,Door4,0.317592593,0.031481481,1,0,0,0.6682,optionRight,60,10055,5,14,0,14,0,1,,,,,,,,,,,,,,,,,,,,,,,,,,,,,,,,,,,,,,,
,,,,,,,,2023-08-16_08h46.05.982,HF_wild_card,2022.2.4,Win32,59.98080614,6097c0f1b17aabadc9369fc5,64d2fd46c836a06233681665,64dc7eb3c002480885e295da,,,,,,,decisionTrl,resources/DR.BMP,resources/DP.BMP,Door1,0.346296296,0.008333333,1,0,0,2.4441,optionRight,30,10085,5,15,0,15,0,1,,,,,,,,,,,,,,,,,,,,,,,,,,,,,,,,,,,,,,,
,,,,,,,,2023-08-16_08h46.05.982,HF_wild_card,2022.2.4,Win32,59.98080614,6097c0f1b17aabadc9369fc5,64d2fd46c836a06233681665,64dc7eb3c002480885e295da,,,,,,,decisionTrl,resources/DBN.BMP,resources/DB.BMP,Door4,0.350925926,-0.07037037,1,0,0,1.2087,optionRight,60,10145,5,16,0,16,0,1,,,,,,,,,,,,,,,,,,,,,,,,,,,,,,,,,,,,,,,
,,,,,,,,2023-08-16_08h46.05.982,HF_wild_card,2022.2.4,Win32,59.98080614,6097c0f1b17aabadc9369fc5,64d2fd46c836a06233681665,64dc7eb3c002480885e295da,,,,,,,decisionTrl,resources/DR.BMP,resources/DY.BMP,WildCard_NonEx,-0.358333333,0.025925926,1,0,0,2.6438,optionLeft,45,10190,5,17,0,17,0,1,,,,,,,,,,,,,,,,,,,,,,,,,,,,,,,,,,,,,,,
,,,,,,,,2023-08-16_08h46.05.982,HF_wild_card,2022.2.4,Win32,59.98080614,6097c0f1b17aabadc9369fc5,64d2fd46c836a06233681665,64dc7eb3c002480885e295da,,,,,,,ctch,resources/DBN.BMP,resources/DY.BMP,Door3,-0.310185185,0.007407407,1,0,0,0.6722,optionLeft,70,10260,5,18,0,18,0,1,,,,,,,,,,,,,,,,,,,,,,,,,,,,,,,,,,,,,,,
,,,,,,,,2023-08-16_08h46.05.982,HF_wild_card,2022.2.4,Win32,59.98080614,6097c0f1b17aabadc9369fc5,64d2fd46c836a06233681665,64dc7eb3c002480885e295da,,,,,,,decisionTrl,resources/DBN.BMP,resources/DB.BMP,Door3,-0.227777778,0.023148148,1,0,0,1.3304,optionLeft,70,10330,5,19,0,19,0,1,,,,,,,,,,,,,,,,,,,,,,,,,,,,,,,,,,,,,,,
,,,,,,,,2023-08-16_08h46.05.982,HF_wild_card,2022.2.4,Win32,59.98080614,6097c0f1b17aabadc9369fc5,64d2fd46c836a06233681665,64dc7eb3c002480885e295da,,,,,,,sngl,resources/Empty.png,resources/DR.BMP,WildCard_NonEx,0.343518519,-0.012037037,1,0,0,0.5225,optionRight,45,10375,5,20,0,20,0,1,,,,,,,,,,,,,,,,,,,,,,,,,,,,,,,,,,,,,,,
,,,,,,,,2023-08-16_08h46.05.982,HF_wild_card,2022.2.4,Win32,59.98080614,6097c0f1b17aabadc9369fc5,64d2fd46c836a06233681665,64dc7eb3c002480885e295da,,,,,,,decisionTrl,resources/DP.BMP,resources/DY.BMP,Door2,0.430555556,-0.002777778,1,0,0,0.8466,optionRight,40,10415,5,21,0,21,0,1,,,,,,,,,,,,,,,,,,,,,,,,,,,,,,,,,,,,,,,
,,,,,,,,2023-08-16_08h46.05.982,HF_wild_card,2022.2.4,Win32,59.98080614,6097c0f1b17aabadc9369fc5,64d2fd46c836a06233681665,64dc7eb3c002480885e295da,,,,,,,sngl,resources/DP.BMP,resources/Empty.png,Door1,-0.309259259,0.025,1,0,0,0.4942,optionLeft,30,10445,5,22,0,22,0,1,,,,,,,,,,,,,,,,,,,,,,,,,,,,,,,,,,,,,,,
,,,,,,,,2023-08-16_08h46.05.982,HF_wild_card,2022.2.4,Win32,59.98080614,6097c0f1b17aabadc9369fc5,64d2fd46c836a06233681665,64dc7eb3c002480885e295da,,,,,,,ctch,resources/DBN.BMP,resources/DY.BMP,Door3,-0.286111111,0.013888889,1,0,0,0.6127,optionLeft,70,10515,5,23,0,23,0,1,,,,,,,,,,,,,,,,,,,,,,,,,,,,,,,,,,,,,,,
,,,,,,,,2023-08-16_08h46.05.982,HF_wild_card,2022.2.4,Win32,59.98080614,6097c0f1b17aabadc9369fc5,64d2fd46c836a06233681665,64dc7eb3c002480885e295da,,,,,,,decisionTrl,resources/DP.BMP,resources/DY.BMP,Door2,0.390740741,0.030555556,1,0,0,1.2545,optionRight,40,10555,5,24,0,24,0,1,,,,,,,,,,,,,,,,,,,,,,,,,,,,,,,,,,,,,,,
,,,,,,,,2023-08-16_08h46.05.982,HF_wild_card,2022.2.4,Win32,59.98080614,6097c0f1b17aabadc9369fc5,64d2fd46c836a06233681665,64dc7eb3c002480885e295da,,,,,,,decisionTrl,resources/DB.BMP,resources/DBN.BMP,Door3,0.428703704,0.046296296,1,0,0,0.9197,optionRight,70,10625,5,25,0,25,0,1,,,,,,,,,,,,,,,,,,,,,,,,,,,,,,,,,,,,,,,
,,,,,,,,2023-08-16_08h46.05.982,HF_wild_card,2022.2.4,Win32,59.98080614,6097c0f1b17aabadc9369fc5,64d2fd46c836a06233681665,64dc7eb3c002480885e295da,,,,,,,ctch,resources/DY.BMP,resources/DBN.BMP,Door3,0.426851852,0.012037037,1,0,0,0.6126,optionRight,70,10695,5,26,0,26,0,1,,,,,,,,,,,,,,,,,,,,,,,,,,,,,,,,,,,,,,,
,,,,,,,,2023-08-16_08h46.05.982,HF_wild_card,2022.2.4,Win32,59.98080614,6097c0f1b17aabadc9369fc5,64d2fd46c836a06233681665,64dc7eb3c002480885e295da,,,,,,,decisionTrl,resources/DP.BMP,resources/DY.BMP,Door1,-0.19537037,0.001851852,1,0,0,1.5393,optionLeft,30,10725,5,27,0,27,0,1,,,,,,,,,,,,,,,,,,,,,,,,,,,,,,,,,,,,,,,
,,,,,,,,2023-08-16_08h46.05.982,HF_wild_card,2022.2.4,Win32,59.98080614,6097c0f1b17aabadc9369fc5,64d2fd46c836a06233681665,64dc7eb3c002480885e295da,,,,,,,decisionTrl,resources/DB.BMP,resources/DBN.BMP,Door3,0.451851852,-0.048148148,1,0,0,0.6899,optionRight,70,10795,5,28,0,28,0,1,,,,,,,,,,,,,,,,,,,,,,,,,,,,,,,,,,,,,,,
,,,,,,,,2023-08-16_08h46.05.982,HF_wild_card,2022.2.4,Win32,59.98080614,6097c0f1b17aabadc9369fc5,64d2fd46c836a06233681665,64dc7eb3c002480885e295da,,,,,,,ctch,resources/DB.BMP,resources/DP.BMP,Door4,-0.297222222,-0.038888889,1,0,0,1.5457,optionLeft,80,10875,5,29,0,29,0,1,,,,,,,,,,,,,,,,,,,,,,,,,,,,,,,,,,,,,,,
,,,,,,,,2023-08-16_08h46.05.982,HF_wild_card,2022.2.4,Win32,59.98080614,6097c0f1b17aabadc9369fc5,64d2fd46c836a06233681665,64dc7eb3c002480885e295da,,,,,,,sngl,resources/Empty.png,resources/DBN.BMP,Door3,0.364814815,0.021296296,1,0,0,0.5113,optionRight,70,10945,5,30,0,30,0,1,,,,,,,,,,,,,,,,,,,,,,,,,,,,,,,,,,,,,,,
,,,,,,,,2023-08-16_08h46.05.982,HF_wild_card,2022.2.4,Win32,59.98080614,6097c0f1b17aabadc9369fc5,64d2fd46c836a06233681665,64dc7eb3c002480885e295da,,,,,,,decisionTrl,resources/DP.BMP,resources/DY.BMP,Door1,-0.196296296,-0.02962963,1,0,0,1.7274,optionLeft,30,10975,5,31,0,31,0,1,,,,,,,,,,,,,,,,,,,,,,,,,,,,,,,,,,,,,,,
,,,,,,,,2023-08-16_08h46.05.982,HF_wild_card,2022.2.4,Win32,59.98080614,6097c0f1b17aabadc9369fc5,64d2fd46c836a06233681665,64dc7eb3c002480885e295da,,,,,,,ctch,resources/DB.BMP,resources/DP.BMP,Door4,-0.357407407,-0.008333333,1,0,0,0.8714,optionLeft,60,11035,5,32,0,32,0,1,,,,,,,,,,,,,,,,,,,,,,,,,,,,,,,,,,,,,,,
,,,,,,,,2023-08-16_08h46.05.982,HF_wild_card,2022.2.4,Win32,59.98080614,6097c0f1b17aabadc9369fc5,64d2fd46c836a06233681665,64dc7eb3c002480885e295da,,,,,,,ctch,resources/DY.BMP,resources/DBN.BMP,Door3,0.318518519,0.022222222,1,0,0,0.6102,optionRight,70,11105,5,33,0,33,0,1,,,,,,,,,,,,,,,,,,,,,,,,,,,,,,,,,,,,,,,
,,,,,,,,2023-08-16_08h46.05.982,HF_wild_card,2022.2.4,Win32,59.98080614,6097c0f1b17aabadc9369fc5,64d2fd46c836a06233681665,64dc7eb3c002480885e295da,,,,,,,decisionTrl,resources/DY.BMP,resources/DP.BMP,Door2,-0.251851852,-0.02037037,1,0,0,0.6944,optionLeft,40,11145,5,34,0,34,0,1,,,,,,,,,,,,,,,,,,,,,,,,,,,,,,,,,,,,,,,
,,,,,,,,2023-08-16_08h46.05.982,HF_wild_card,2022.2.4,Win32,59.98080614,6097c0f1b17aabadc9369fc5,64d2fd46c836a06233681665,64dc7eb3c002480885e295da,,,,,,,ctch,resources/DP.BMP,resources/DB.BMP,Door4,0.503703704,-0.019444444,1,0,0,0.9269,optionRight,60,11205,5,35,0,35,0,1,,,,,,,,,,,,,,,,,,,,,,,,,,,,,,,,,,,,,,,
,,,,,,,,2023-08-16_08h46.05.982,HF_wild_card,2022.2.4,Win32,59.98080614,6097c0f1b17aabadc9369fc5,64d2fd46c836a06233681665,64dc7eb3c002480885e295da,,,,,,,ctch,resources/DP.BMP,resources/DB.BMP,Door4,0.259259259,0.021296296,1,0,0,0.5774,optionRight,80,11285,5,36,0,36,0,1,,,,,,,,,,,,,,,,,,,,,,,,,,,,,,,,,,,,,,,
,,,,,,,,2023-08-16_08h46.05.982,HF_wild_card,2022.2.4,Win32,59.98080614,6097c0f1b17aabadc9369fc5,64d2fd46c836a06233681665,64dc7eb3c002480885e295da,,,,,,,decisionTrl,resources/DY.BMP,resources/DP.BMP,Door1,0.337962963,0.010185185,1,0,0,0.7441,optionRight,30,11315,5,37,0,37,0,1,,,,,,,,,,,,,,,,,,,,,,,,,,,,,,,,,,,,,,,
,,,,,,,,2023-08-16_08h46.05.982,HF_wild_card,2022.2.4,Win32,59.98080614,6097c0f1b17aabadc9369fc5,64d2fd46c836a06233681665,64dc7eb3c002480885e295da,,,,,,,decisionTrl,resources/DBN.BMP,resources/DR.BMP,Door3,-0.286111111,0.051851852,1,0,0,0.8593,optionLeft,70,11385,5,38,0,38,0,1,,,,,,,,,,,,,,,,,,,,,,,,,,,,,,,,,,,,,,,
,,,,,,,,2023-08-16_08h46.05.982,HF_wild_card,2022.2.4,Win32,59.98080614,6097c0f1b17aabadc9369fc5,64d2fd46c836a06233681665,64dc7eb3c002480885e295da,,,,,,,sngl,resources/Empty.png,resources/DP.BMP,Door1,0.426851852,-0.087037037,1,0,0,0.5118,optionRight,30,11415,5,39,0,39,0,1,,,,,,,,,,,,,,,,,,,,,,,,,,,,,,,,,,,,,,,
,,,,,,,,2023-08-16_08h46.05.982,HF_wild_card,2022.2.4,Win32,59.98080614,6097c0f1b17aabadc9369fc5,64d2fd46c836a06233681665,64dc7eb3c002480885e295da,,,,,,,sngl,resources/DR.BMP,resources/Empty.png,WildCard_NonEx,-0.307407407,0.002777778,1,0,0,1.0107,optionLeft,55,11470,5,40,0,40,0,1,,,,,,,,,,,,,,,,,,,,,,,,,,,,,,,,,,,,,,,
,,,,,,,,2023-08-16_08h46.05.982,HF_wild_card,2022.2.4,Win32,59.98080614,6097c0f1b17aabadc9369fc5,64d2fd46c836a06233681665,64dc7eb3c002480885e295da,,,,,,,decisionTrl,resources/DR.BMP,resources/DB.BMP,Door4,0.246296296,0.012962963,1,0,0,0.9274,optionRight,60,11530,5,41,0,41,0,1,,,,,,,,,,,,,,,,,,,,,,,,,,,,,,,,,,,,,,,
,,,,,,,,2023-08-16_08h46.05.982,HF_wild_card,2022.2.4,Win32,59.98080614,6097c0f1b17aabadc9369fc5,64d2fd46c836a06233681665,64dc7eb3c002480885e295da,,,,,,,decisionTrl,resources/DY.BMP,resources/DP.BMP,Door2,-0.215740741,-0.010185185,1,0,0,0.994,optionLeft,20,11550,5,42,0,42,0,1,,,,,,,,,,,,,,,,,,,,,,,,,,,,,,,,,,,,,,,
,,,,,,,,2023-08-16_08h46.05.982,HF_wild_card,2022.2.4,Win32,59.98080614,6097c0f1b17aabadc9369fc5,64d2fd46c836a06233681665,64dc7eb3c002480885e295da,,,,,,,decisionTrl,resources/DBN.BMP,resources/DB.BMP,Door3,-0.175,-0.003703704,1,0,0,2.8403,optionLeft,70,11620,5,43,0,43,0,1,,,,,,,,,,,,,,,,,,,,,,,,,,,,,,,,,,,,,,,
,,,,,,,,2023-08-16_08h46.05.982,HF_wild_card,2022.2.4,Win32,59.98080614,6097c0f1b17aabadc9369fc5,64d2fd46c836a06233681665,64dc7eb3c002480885e295da,,,,,,,,,,,,,,,,,,,,,,,,,,4,0,4,0,1,,,,,,,,,,,,,,,,,,,,,,,,,,,,,,,,,,
,,,,,,,,2023-08-16_08h46.05.982,HF_wild_card,2022.2.4,Win32,59.98080614,6097c0f1b17aabadc9369fc5,64d2fd46c836a06233681665,64dc7eb3c002480885e295da,,,,,,,decisionTrl,resources/DB.BMP,resources/DBN.BMP,Door3,0.547222222,-0.137037037,1,0,0,0.8192,optionRight,70,11690,6,0,0,0,0,1,,,,,,,,,,,,,,,,,,,,,,,,,,,,,,,,,,,,,,,
,,,,,,,,2023-08-16_08h46.05.982,HF_wild_card,2022.2.4,Win32,59.98080614,6097c0f1b17aabadc9369fc5,64d2fd46c836a06233681665,64dc7eb3c002480885e295da,,,,,,,decisionTrl,resources/DP.BMP,resources/DY.BMP,Door1,-0.34537037,0.025,1,0,0,0.5093,optionLeft,30,11720,6,1,0,1,0,1,,,,,,,,,,,,,,,,,,,,,,,,,,,,,,,,,,,,,,,
,,,,,,,,2023-08-16_08h46.05.982,HF_wild_card,2022.2.4,Win32,59.98080614,6097c0f1b17aabadc9369fc5,64d2fd46c836a06233681665,64dc7eb3c002480885e295da,,,,,,,decisionTrl,resources/DR.BMP,resources/DY.BMP,WildCard_NonEx,-0.268518519,0.027777778,1,0,0,0.7104,optionLeft,55,11775,6,2,0,2,0,1,,,,,,,,,,,,,,,,,,,,,,,,,,,,,,,,,,,,,,,
,,,,,,,,2023-08-16_08h46.05.982,HF_wild_card,2022.2.4,Win32,59.98080614,6097c0f1b17aabadc9369fc5,64d2fd46c836a06233681665,64dc7eb3c002480885e295da,,,,,,,decisionTrl,resources/DP.BMP,resources/DR.BMP,Door1,-0.310185185,0.035185185,1,0,0,0.6605,optionLeft,30,11805,6,3,0,3,0,1,,,,,,,,,,,,,,,,,,,,,,,,,,,,,,,,,,,,,,,
,,,,,,,,2023-08-16_08h46.05.982,HF_wild_card,2022.2.4,Win32,59.98080614,6097c0f1b17aabadc9369fc5,64d2fd46c836a06233681665,64dc7eb3c002480885e295da,,,,,,,sngl,resources/Empty.png,resources/DR.BMP,WildCard_NonEx,0.348148148,0.000925926,1,0,0,0.4101,optionRight,45,11850,6,4,0,4,0,1,,,,,,,,,,,,,,,,,,,,,,,,,,,,,,,,,,,,,,,
,,,,,,,,2023-08-16_08h46.05.982,HF_wild_card,2022.2.4,Win32,59.98080614,6097c0f1b17aabadc9369fc5,64d2fd46c836a06233681665,64dc7eb3c002480885e295da,,,,,,,decisionTrl,resources/DP.BMP,resources/DY.BMP,Door1,-0.213888889,0.02962963,1,0,0,0.4433,optionLeft,30,11880,6,5,0,5,0,1,,,,,,,,,,,,,,,,,,,,,,,,,,,,,,,,,,,,,,,
,,,,,,,,2023-08-16_08h46.05.982,HF_wild_card,2022.2.4,Win32,59.98080614,6097c0f1b17aabadc9369fc5,64d2fd46c836a06233681665,64dc7eb3c002480885e295da,,,,,,,decisionTrl,resources/DR.BMP,resources/DB.BMP,Door4,0.324074074,-0.025925926,1,0,0,0.6943,optionRight,80,11960,6,6,0,6,0,1,,,,,,,,,,,,,,,,,,,,,,,,,,,,,,,,,,,,,,,
,,,,,,,,2023-08-16_08h46.05.982,HF_wild_card,2022.2.4,Win32,59.98080614,6097c0f1b17aabadc9369fc5,64d2fd46c836a06233681665,64dc7eb3c002480885e295da,,,,,,,ctch,resources/DBN.BMP,resources/DY.BMP,Door3,-0.29537037,0.060185185,1,0,0,0.7437,optionLeft,70,12030,6,7,0,7,0,1,,,,,,,,,,,,,,,,,,,,,,,,,,,,,,,,,,,,,,,
,,,,,,,,2023-08-16_08h46.05.982,HF_wild_card,2022.2.4,Win32,59.98080614,6097c0f1b17aabadc9369fc5,64d2fd46c836a06233681665,64dc7eb3c002480885e295da,,,,,,,decisionTrl,resources/DB.BMP,resources/DBN.BMP,Door3,0.293518519,0.048148148,1,0,0,0.544,optionRight,70,12100,6,8,0,8,0,1,,,,,,,,,,,,,,,,,,,,,,,,,,,,,,,,,,,,,,,
,,,,,,,,2023-08-16_08h46.05.982,HF_wild_card,2022.2.4,Win32,59.98080614,6097c0f1b17aabadc9369fc5,64d2fd46c836a06233681665,64dc7eb3c002480885e295da,,,,,,,decisionTrl,resources/DY.BMP,resources/DP.BMP,Door2,-0.267592593,-0.019444444,1,0,0,1.0608,optionLeft,40,12140,6,9,0,9,0,1,,,,,,,,,,,,,,,,,,,,,,,,,,,,,,,,,,,,,,,
,,,,,,,,2023-08-16_08h46.05.982,HF_wild_card,2022.2.4,Win32,59.98080614,6097c0f1b17aabadc9369fc5,64d2fd46c836a06233681665,64dc7eb3c002480885e295da,,,,,,,sngl,resources/Empty.png,resources/DY.BMP,Door2,0.410185185,0.062962963,1,0,0,0.6777,optionRight,40,12180,6,10,0,10,0,1,,,,,,,,,,,,,,,,,,,,,,,,,,,,,,,,,,,,,,,
,,,,,,,,2023-08-16_08h46.05.982,HF_wild_card,2022.2.4,Win32,59.98080614,6097c0f1b17aabadc9369fc5,64d2fd46c836a06233681665,64dc7eb3c002480885e295da,,,,,,,decisionTrl,resources/DP.BMP,resources/DY.BMP,Door2,0.465740741,-0.090740741,1,0,0,0.8308,optionRight,20,12200,6,11,0,11,0,1,,,,,,,,,,,,,,,,,,,,,,,,,,,,,,,,,,,,,,,
,,,,,,,,2023-08-16_08h46.05.982,HF_wild_card,2022.2.4,Win32,59.98080614,6097c0f1b17aabadc9369fc5,64d2fd46c836a06233681665,64dc7eb3c002480885e295da,,,,,,,sngl,resources/Empty.png,resources/DBN.BMP,Door3,0.35,-0.013888889,1,0,0,0.6267,optionRight,70,12270,6,12,0,12,0,1,,,,,,,,,,,,,,,,,,,,,,,,,,,,,,,,,,,,,,,
,,,,,,,,2023-08-16_08h46.05.982,HF_wild_card,2022.2.4,Win32,59.98080614,6097c0f1b17aabadc9369fc5,64d2fd46c836a06233681665,64dc7eb3c002480885e295da,,,,,,,sngl,resources/DR.BMP,resources/Empty.png,WildCard_NonEx,-0.343518519,0.007407407,1,0,0,0.6774,optionLeft,45,12315,6,13,0,13,0,1,,,,,,,,,,,,,,,,,,,,,,,,,,,,,,,,,,,,,,,
,,,,,,,,2023-08-16_08h46.05.982,HF_wild_card,2022.2.4,Win32,59.98080614,6097c0f1b17aabadc9369fc5,64d2fd46c836a06233681665,64dc7eb3c002480885e295da,,,,,,,decisionTrl,resources/DBN.BMP,resources/DB.BMP,Door3,-0.134259259,0.010185185,1,0,0,0.8104,optionLeft,70,12385,6,14,0,14,0,1,,,,,,,,,,,,,,,,,,,,,,,,,,,,,,,,,,,,,,,
,,,,,,,,2023-08-16_08h46.05.982,HF_wild_card,2022.2.4,Win32,59.98080614,6097c0f1b17aabadc9369fc5,64d2fd46c836a06233681665,64dc7eb3c002480885e295da,,,,,,,decisionTrl,resources/DBN.BMP,resources/DB.BMP,Door3,-0.313888889,0.05,1,0,0,0.8016,optionLeft,70,12455,6,15,0,15,0,1,,,,,,,,,,,,,,,,,,,,,,,,,,,,,,,,,,,,,,,
,,,,,,,,2023-08-16_08h46.05.982,HF_wild_card,2022.2.4,Win32,59.98080614,6097c0f1b17aabadc9369fc5,64d2fd46c836a06233681665,64dc7eb3c002480885e295da,,,,,,,decisionTrl,resources/DBN.BMP,resources/DR.BMP,Door3,-0.236111111,-0.001851852,1,0,0,1.221,optionLeft,70,12525,6,16,0,16,0,1,,,,,,,,,,,,,,,,,,,,,,,,,,,,,,,,,,,,,,,
,,,,,,,,2023-08-16_08h46.05.982,HF_wild_card,2022.2.4,Win32,59.98080614,6097c0f1b17aabadc9369fc5,64d2fd46c836a06233681665,64dc7eb3c002480885e295da,,,,,,,ctch,resources/DP.BMP,resources/DB.BMP,Door4,0.394444444,-0.037037037,1,0,0,1.8938,optionRight,80,12605,6,17,0,17,0,1,,,,,,,,,,,,,,,,,,,,,,,,,,,,,,,,,,,,,,,
,,,,,,,,2023-08-16_08h46.05.982,HF_wild_card,2022.2.4,Win32,59.98080614,6097c0f1b17aabadc9369fc5,64d2fd46c836a06233681665,64dc7eb3c002480885e295da,,,,,,,decisionTrl,resources/DR.BMP,resources/DBN.BMP,Door3,0.412962963,-0.125925926,1,0,0,0.8195,optionRight,70,12675,6,18,0,18,0,1,,,,,,,,,,,,,,,,,,,,,,,,,,,,,,,,,,,,,,,
,,,,,,,,2023-08-16_08h46.05.982,HF_wild_card,2022.2.4,Win32,59.98080614,6097c0f1b17aabadc9369fc5,64d2fd46c836a06233681665,64dc7eb3c002480885e295da,,,,,,,ctch,resources/DB.BMP,resources/DP.BMP,Door4,-0.205555556,0.027777778,1,0,0,2.9105,optionLeft,80,12755,6,19,0,19,0,1,,,,,,,,,,,,,,,,,,,,,,,,,,,,,,,,,,,,,,,
,,,,,,,,2023-08-16_08h46.05.982,HF_wild_card,2022.2.4,Win32,59.98080614,6097c0f1b17aabadc9369fc5,64d2fd46c836a06233681665,64dc7eb3c002480885e295da,,,,,,,sngl,resources/DY.BMP,resources/Empty.png,Door2,-0.401851852,-0.032407407,1,0,0,4.2435,optionLeft,20,12775,6,20,0,20,0,1,,,,,,,,,,,,,,,,,,,,,,,,,,,,,,,,,,,,,,,
,,,,,,,,2023-08-16_08h46.05.982,HF_wild_card,2022.2.4,Win32,59.98080614,6097c0f1b17aabadc9369fc5,64d2fd46c836a06233681665,64dc7eb3c002480885e295da,,,,,,,decisionTrl,resources/DB.BMP,resources/DBN.BMP,Door3,0.338888889,-0.062962963,1,0,0,2.6049,optionRight,70,12845,6,21,0,21,0,1,,,,,,,,,,,,,,,,,,,,,,,,,,,,,,,,,,,,,,,
,,,,,,,,2023-08-16_08h46.05.982,HF_wild_card,2022.2.4,Win32,59.98080614,6097c0f1b17aabadc9369fc5,64d2fd46c836a06233681665,64dc7eb3c002480885e295da,,,,,,,ctch,resources/DBN.BMP,resources/DY.BMP,Door3,-0.259259259,-0.024074074,1,0,0,1.3597,optionLeft,70,12915,6,22,0,22,0,1,,,,,,,,,,,,,,,,,,,,,,,,,,,,,,,,,,,,,,,
,,,,,,,,2023-08-16_08h46.05.982,HF_wild_card,2022.2.4,Win32,59.98080614,6097c0f1b17aabadc9369fc5,64d2fd46c836a06233681665,64dc7eb3c002480885e295da,,,,,,,ctch,resources/DP.BMP,resources/DB.BMP,Door4,0.401851852,-0.042592593,1,0,0,1.1819,optionRight,80,12995,6,23,0,23,0,1,,,,,,,,,,,,,,,,,,,,,,,,,,,,,,,,,,,,,,,
,,,,,,,,2023-08-16_08h46.05.982,HF_wild_card,2022.2.4,Win32,59.98080614,6097c0f1b17aabadc9369fc5,64d2fd46c836a06233681665,64dc7eb3c002480885e295da,,,,,,,sngl,resources/DBN.BMP,resources/Empty.png,Door3,-0.19537037,0.007407407,1,0,0,0.6853,optionLeft,70,13065,6,24,0,24,0,1,,,,,,,,,,,,,,,,,,,,,,,,,,,,,,,,,,,,,,,
,,,,,,,,2023-08-16_08h46.05.982,HF_wild_card,2022.2.4,Win32,59.98080614,6097c0f1b17aabadc9369fc5,64d2fd46c836a06233681665,64dc7eb3c002480885e295da,,,,,,,decisionTrl,resources/DBN.BMP,resources/DB.BMP,Door4,0.249074074,-0.047222222,1,0,0,1.4241,optionRight,60,13125,6,25,0,25,0,1,,,,,,,,,,,,,,,,,,,,,,,,,,,,,,,,,,,,,,,
,,,,,,,,2023-08-16_08h46.05.982,HF_wild_card,2022.2.4,Win32,59.98080614,6097c0f1b17aabadc9369fc5,64d2fd46c836a06233681665,64dc7eb3c002480885e295da,,,,,,,sngl,resources/Empty.png,resources/DR.BMP,WildCard_NonEx,0.409259259,-0.071296296,1,0,0,0.5241,optionRight,55,13180,6,26,0,26,0,1,,,,,,,,,,,,,,,,,,,,,,,,,,,,,,,,,,,,,,,
,,,,,,,,2023-08-16_08h46.05.982,HF_wild_card,2022.2.4,Win32,59.98080614,6097c0f1b17aabadc9369fc5,64d2fd46c836a06233681665,64dc7eb3c002480885e295da,,,,,,,ctch,resources/DB.BMP,resources/DP.BMP,Door4,-0.316666667,-0.010185185,1,0,0,0.7795,optionLeft,60,13240,6,27,0,27,0,1,,,,,,,,,,,,,,,,,,,,,,,,,,,,,,,,,,,,,,,
,,,,,,,,2023-08-16_08h46.05.982,HF_wild_card,2022.2.4,Win32,59.98080614,6097c0f1b17aabadc9369fc5,64d2fd46c836a06233681665,64dc7eb3c002480885e295da,,,,,,,ctch,resources/DY.BMP,resources/DBN.BMP,Door3,0.358333333,-0.026851852,1,0,0,0.8553,optionRight,70,13310,6,28,0,28,0,1,,,,,,,,,,,,,,,,,,,,,,,,,,,,,,,,,,,,,,,
,,,,,,,,2023-08-16_08h46.05.982,HF_wild_card,2022.2.4,Win32,59.98080614,6097c0f1b17aabadc9369fc5,64d2fd46c836a06233681665,64dc7eb3c002480885e295da,,,,,,,decisionTrl,resources/DY.BMP,resources/DP.BMP,Door1,0.385185185,-0.037962963,1,0,0,2.41,optionRight,30,13340,6,29,0,29,0,1,,,,,,,,,,,,,,,,,,,,,,,,,,,,,,,,,,,,,,,
,,,,,,,,2023-08-16_08h46.05.982,HF_wild_card,2022.2.4,Win32,59.98080614,6097c0f1b17aabadc9369fc5,64d2fd46c836a06233681665,64dc7eb3c002480885e295da,,,,,,,sngl,resources/DP.BMP,resources/Empty.png,Door1,-0.323148148,-0.001851852,1,0,0,0.4722,optionLeft,30,13370,6,30,0,30,0,1,,,,,,,,,,,,,,,,,,,,,,,,,,,,,,,,,,,,,,,
,,,,,,,,2023-08-16_08h46.05.982,HF_wild_card,2022.2.4,Win32,59.98080614,6097c0f1b17aabadc9369fc5,64d2fd46c836a06233681665,64dc7eb3c002480885e295da,,,,,,,decisionTrl,resources/DR.BMP,resources/DP.BMP,WildCard_NonEx,-0.25462963,-0.027777778,1,0,0,1.1296,optionLeft,45,13415,6,31,0,31,0,1,,,,,,,,,,,,,,,,,,,,,,,,,,,,,,,,,,,,,,,
,,,,,,,,2023-08-16_08h46.05.982,HF_wild_card,2022.2.4,Win32,59.98080614,6097c0f1b17aabadc9369fc5,64d2fd46c836a06233681665,64dc7eb3c002480885e295da,,,,,,,sngl,resources/Empty.png,resources/DP.BMP,Door1,0.355555556,0.000925926,1,0,0,0.5618,optionRight,30,13445,6,32,0,32,0,1,,,,,,,,,,,,,,,,,,,,,,,,,,,,,,,,,,,,,,,
,,,,,,,,2023-08-16_08h46.05.982,HF_wild_card,2022.2.4,Win32,59.98080614,6097c0f1b17aabadc9369fc5,64d2fd46c836a06233681665,64dc7eb3c002480885e295da,,,,,,,decisionTrl,resources/DY.BMP,resources/DP.BMP,Door2,-0.233333333,0.023148148,1,0,0,0.6772,optionLeft,20,13465,6,33,0,33,0,1,,,,,,,,,,,,,,,,,,,,,,,,,,,,,,,,,,,,,,,
,,,,,,,,2023-08-16_08h46.05.982,HF_wild_card,2022.2.4,Win32,59.98080614,6097c0f1b17aabadc9369fc5,64d2fd46c836a06233681665,64dc7eb3c002480885e295da,,,,,,,decisionTrl,resources/DB.BMP,resources/DBN.BMP,Door3,0.646296296,-0.014814815,1,0,0,0.5775,optionRight,70,13535,6,34,0,34,0,1,,,,,,,,,,,,,,,,,,,,,,,,,,,,,,,,,,,,,,,
,,,,,,,,2023-08-16_08h46.05.982,HF_wild_card,2022.2.4,Win32,59.98080614,6097c0f1b17aabadc9369fc5,64d2fd46c836a06233681665,64dc7eb3c002480885e295da,,,,,,,decisionTrl,resources/DBN.BMP,resources/DB.BMP,Door3,-0.213888889,0.005555556,1,0,0,0.5939,optionLeft,70,13605,6,35,0,35,0,1,,,,,,,,,,,,,,,,,,,,,,,,,,,,,,,,,,,,,,,
,,,,,,,,2023-08-16_08h46.05.982,HF_wild_card,2022.2.4,Win32,59.98080614,6097c0f1b17aabadc9369fc5,64d2fd46c836a06233681665,64dc7eb3c002480885e295da,,,,,,,sngl,resources/DR.BMP,resources/Empty.png,WildCard_NonEx,-0.297222222,0.002777778,1,0,0,0.4438,optionLeft,55,13660,6,36,0,36,0,1,,,,,,,,,,,,,,,,,,,,,,,,,,,,,,,,,,,,,,,
,,,,,,,,2023-08-16_08h46.05.982,HF_wild_card,2022.2.4,Win32,59.98080614,6097c0f1b17aabadc9369fc5,64d2fd46c836a06233681665,64dc7eb3c002480885e295da,,,,,,,ctch,resources/DY.BMP,resources/DBN.BMP,Door3,0.241666667,0.025925926,1,0,0,0.5594,optionRight,70,13730,6,37,0,37,0,1,,,,,,,,,,,,,,,,,,,,,,,,,,,,,,,,,,,,,,,
,,,,,,,,2023-08-16_08h46.05.982,HF_wild_card,2022.2.4,Win32,59.98080614,6097c0f1b17aabadc9369fc5,64d2fd46c836a06233681665,64dc7eb3c002480885e295da,,,,,,,decisionTrl,resources/DP.BMP,resources/DY.BMP,Door1,-0.24537037,0.002777778,1,0,0,1.6766,optionLeft,30,13760,6,38,0,38,0,1,,,,,,,,,,,,,,,,,,,,,,,,,,,,,,,,,,,,,,,
,,,,,,,,2023-08-16_08h46.05.982,HF_wild_card,2022.2.4,Win32,59.98080614,6097c0f1b17aabadc9369fc5,64d2fd46c836a06233681665,64dc7eb3c002480885e295da,,,,,,,sngl,resources/Empty.png,resources/DB.BMP,Door4,0.381481481,0.005555556,1,0,0,0.5083,optionRight,80,13840,6,39,0,39,0,1,,,,,,,,,,,,,,,,,,,,,,,,,,,,,,,,,,,,,,,
,,,,,,,,2023-08-16_08h46.05.982,HF_wild_card,2022.2.4,Win32,59.98080614,6097c0f1b17aabadc9369fc5,64d2fd46c836a06233681665,64dc7eb3c002480885e295da,,,,,,,decisionTrl,resources/DY.BMP,resources/DR.BMP,Door2,-0.237962963,0.019444444,1,0,0,0.861,optionLeft,20,13860,6,40,0,40,0,1,,,,,,,,,,,,,,,,,,,,,,,,,,,,,,,,,,,,,,,
,,,,,,,,2023-08-16_08h46.05.982,HF_wild_card,2022.2.4,Win32,59.98080614,6097c0f1b17aabadc9369fc5,64d2fd46c836a06233681665,64dc7eb3c002480885e295da,,,,,,,sngl,resources/DB.BMP,resources/Empty.png,Door4,-0.274074074,-0.00462963,1,0,0,0.5274,optionLeft,60,13920,6,41,0,41,0,1,,,,,,,,,,,,,,,,,,,,,,,,,,,,,,,,,,,,,,,
,,,,,,,,2023-08-16_08h46.05.982,HF_wild_card,2022.2.4,Win32,59.98080614,6097c0f1b17aabadc9369fc5,64d2fd46c836a06233681665,64dc7eb3c002480885e295da,,,,,,,decisionTrl,resources/DB.BMP,resources/DR.BMP,Door4,-0.181481481,-0.001851852,1,0,0,0.8788,optionLeft,80,14000,6,42,0,42,0,1,,,,,,,,,,,,,,,,,,,,,,,,,,,,,,,,,,,,,,,
,,,,,,,,2023-08-16_08h46.05.982,HF_wild_card,2022.2.4,Win32,59.98080614,6097c0f1b17aabadc9369fc5,64d2fd46c836a06233681665,64dc7eb3c002480885e295da,,,,,,,decisionTrl,resources/DY.BMP,resources/DP.BMP,Door2,-0.272222222,0.000925926,1,0,0,1.3929,optionLeft,20,14020,6,43,0,43,0,1,,,,,,,,,,,,,,,,,,,,,,,,,,,,,,,,,,,,,,,
,,,,,,,,2023-08-16_08h46.05.982,HF_wild_card,2022.2.4,Win32,59.98080614,6097c0f1b17aabadc9369fc5,64d2fd46c836a06233681665,64dc7eb3c002480885e295da,,,,,,,,,,,,,,,,,,,,,,,,,,5,0,5,0,1,,,,,,,,,,,,,,,,,,,,,,,,,,,,,,,,,,
,,,,,,,,2023-08-16_08h46.05.982,HF_wild_card,2022.2.4,Win32,59.98080614,6097c0f1b17aabadc9369fc5,64d2fd46c836a06233681665,64dc7eb3c002480885e295da,,,,,,,decisionTrl,resources/DB.BMP,resources/DBN.BMP,Door4,-0.213888889,-0.080555556,1,0,0,1.0943,optionLeft,80,14100,7,0,0,0,0,1,,,,,,,,,,,,,,,,,,,,,,,,,,,,,,,,,,,,,,,
,,,,,,,,2023-08-16_08h46.05.982,HF_wild_card,2022.2.4,Win32,59.98080614,6097c0f1b17aabadc9369fc5,64d2fd46c836a06233681665,64dc7eb3c002480885e295da,,,,,,,decisionTrl,resources/DBN.BMP,resources/DB.BMP,Door3,-0.318518519,-0.000925926,1,0,0,0.7136,optionLeft,70,14170,7,1,0,1,0,1,,,,,,,,,,,,,,,,,,,,,,,,,,,,,,,,,,,,,,,
,,,,,,,,2023-08-16_08h46.05.982,HF_wild_card,2022.2.4,Win32,59.98080614,6097c0f1b17aabadc9369fc5,64d2fd46c836a06233681665,64dc7eb3c002480885e295da,,,,,,,ctch,resources/DBN.BMP,resources/DY.BMP,Door3,-0.37962963,0.031481481,1,0,0,0.7138,optionLeft,70,14240,7,2,0,2,0,1,,,,,,,,,,,,,,,,,,,,,,,,,,,,,,,,,,,,,,,
,,,,,,,,2023-08-16_08h46.05.982,HF_wild_card,2022.2.4,Win32,59.98080614,6097c0f1b17aabadc9369fc5,64d2fd46c836a06233681665,64dc7eb3c002480885e295da,,,,,,,decisionTrl,resources/DP.BMP,resources/DY.BMP,Door1,-0.37962963,0.009259259,1,0,0,1.1304,optionLeft,30,14270,7,3,0,3,0,1,,,,,,,,,,,,,,,,,,,,,,,,,,,,,,,,,,,,,,,
,,,,,,,,2023-08-16_08h46.05.982,HF_wild_card,2022.2.4,Win32,59.98080614,6097c0f1b17aabadc9369fc5,64d2fd46c836a06233681665,64dc7eb3c002480885e295da,,,,,,,ctch,resources/DY.BMP,resources/DBN.BMP,Door3,0.346296296,0.019444444,1,0,0,0.6298,optionRight,70,14340,7,4,0,4,0,1,,,,,,,,,,,,,,,,,,,,,,,,,,,,,,,,,,,,,,,
,,,,,,,,2023-08-16_08h46.05.982,HF_wild_card,2022.2.4,Win32,59.98080614,6097c0f1b17aabadc9369fc5,64d2fd46c836a06233681665,64dc7eb3c002480885e295da,,,,,,,decisionTrl,resources/DY.BMP,resources/DP.BMP,Door2,-0.335185185,0.006481481,1,0,0,1.6131,optionLeft,40,14380,7,5,0,5,0,1,,,,,,,,,,,,,,,,,,,,,,,,,,,,,,,,,,,,,,,
,,,,,,,,2023-08-16_08h46.05.982,HF_wild_card,2022.2.4,Win32,59.98080614,6097c0f1b17aabadc9369fc5,64d2fd46c836a06233681665,64dc7eb3c002480885e295da,,,,,,,decisionTrl,resources/DP.BMP,resources/DY.BMP,Door2,0.440740741,0.015740741,1,0,0,0.9614,optionRight,20,14400,7,6,0,6,0,1,,,,,,,,,,,,,,,,,,,,,,,,,,,,,,,,,,,,,,,
,,,,,,,,2023-08-16_08h46.05.982,HF_wild_card,2022.2.4,Win32,59.98080614,6097c0f1b17aabadc9369fc5,64d2fd46c836a06233681665,64dc7eb3c002480885e295da,,,,,,,decisionTrl,resources/DP.BMP,resources/DY.BMP,Door2,0.376851852,0.014814815,1,0,0,1.8145,optionRight,20,14420,7,7,0,7,0,1,,,,,,,,,,,,,,,,,,,,,,,,,,,,,,,,,,,,,,,
,,,,,,,,2023-08-16_08h46.05.982,HF_wild_card,2022.2.4,Win32,59.98080614,6097c0f1b17aabadc9369fc5,64d2fd46c836a06233681665,64dc7eb3c002480885e295da,,,,,,,ctch,resources/DP.BMP,resources/DB.BMP,Door4,0.412037037,0.067592593,1,0,0,1.6478,optionRight,80,14500,7,8,0,8,0,1,,,,,,,,,,,,,,,,,,,,,,,,,,,,,,,,,,,,,,,
,,,,,,,,2023-08-16_08h46.05.982,HF_wild_card,2022.2.4,Win32,59.98080614,6097c0f1b17aabadc9369fc5,64d2fd46c836a06233681665,64dc7eb3c002480885e295da,,,,,,,ctch,resources/DBN.BMP,resources/DY.BMP,Door3,-0.306481481,0.039814815,1,0,0,0.6956,optionLeft,70,14570,7,9,0,9,0,1,,,,,,,,,,,,,,,,,,,,,,,,,,,,,,,,,,,,,,,
,,,,,,,,2023-08-16_08h46.05.982,HF_wild_card,2022.2.4,Win32,59.98080614,6097c0f1b17aabadc9369fc5,64d2fd46c836a06233681665,64dc7eb3c002480885e295da,,,,,,,decisionTrl,resources/DB.BMP,resources/DBN.BMP,Door3,0.346296296,0.05,1,0,0,1.2307,optionRight,70,14640,7,10,0,10,0,1,,,,,,,,,,,,,,,,,,,,,,,,,,,,,,,,,,,,,,,
,,,,,,,,2023-08-16_08h46.05.982,HF_wild_card,2022.2.4,Win32,59.98080614,6097c0f1b17aabadc9369fc5,64d2fd46c836a06233681665,64dc7eb3c002480885e295da,,,,,,,ctch,resources/DB.BMP,resources/DP.BMP,Door4,-0.296296296,0.018518519,1,0,0,0.7638,optionLeft,60,14700,7,11,0,11,0,1,,,,,,,,,,,,,,,,,,,,,,,,,,,,,,,,,,,,,,,
,,,,,,,,2023-08-16_08h46.05.982,HF_wild_card,2022.2.4,Win32,59.98080614,6097c0f1b17aabadc9369fc5,64d2fd46c836a06233681665,64dc7eb3c002480885e295da,,,,,,,decisionTrl,resources/DB.BMP,resources/DBN.BMP,Door3,0.40462963,-0.022222222,1,0,0,0.964,optionRight,70,14770,7,12,0,12,0,1,,,,,,,,,,,,,,,,,,,,,,,,,,,,,,,,,,,,,,,
,,,,,,,,2023-08-16_08h46.05.982,HF_wild_card,2022.2.4,Win32,59.98080614,6097c0f1b17aabadc9369fc5,64d2fd46c836a06233681665,64dc7eb3c002480885e295da,,,,,,,decisionTrl,resources/DB.BMP,resources/DBN.BMP,Door3,0.323148148,0.021296296,1,0,0,1.1934,optionRight,70,14840,7,13,0,13,0,1,,,,,,,,,,,,,,,,,,,,,,,,,,,,,,,,,,,,,,,
,,,,,,,,2023-08-16_08h46.05.982,HF_wild_card,2022.2.4,Win32,59.98080614,6097c0f1b17aabadc9369fc5,64d2fd46c836a06233681665,64dc7eb3c002480885e295da,,,,,,,decisionTrl,resources/DY.BMP,resources/DP.BMP,Door1,0.252777778,0.000925926,1,0,0,1.763,optionRight,30,14870,7,14,0,14,0,1,,,,,,,,,,,,,,,,,,,,,,,,,,,,,,,,,,,,,,,
,,,,,,,,2023-08-16_08h46.05.982,HF_wild_card,2022.2.4,Win32,59.98080614,6097c0f1b17aabadc9369fc5,64d2fd46c836a06233681665,64dc7eb3c002480885e295da,,,,,,,decisionTrl,resources/DB.BMP,resources/DBN.BMP,Door3,0.35,0.012962963,1,0,0,1.2969,optionRight,70,14940,7,15,0,15,0,1,,,,,,,,,,,,,,,,,,,,,,,,,,,,,,,,,,,,,,,
,,,,,,,,2023-08-16_08h46.05.982,HF_wild_card,2022.2.4,Win32,59.98080614,6097c0f1b17aabadc9369fc5,64d2fd46c836a06233681665,64dc7eb3c002480885e295da,,,,,,,decisionTrl,resources/DBN.BMP,resources/DB.BMP,Door3,-0.239814815,-0.010185185,1,0,0,0.9206,optionLeft,70,15010,7,16,0,16,0,1,,,,,,,,,,,,,,,,,,,,,,,,,,,,,,,,,,,,,,,
,,,,,,,,2023-08-16_08h46.05.982,HF_wild_card,2022.2.4,Win32,59.98080614,6097c0f1b17aabadc9369fc5,64d2fd46c836a06233681665,64dc7eb3c002480885e295da,,,,,,,decisionTrl,resources/DP.BMP,resources/DY.BMP,Door2,0.311111111,0.014814815,1,0,0,1.0137,optionRight,40,15050,7,17,0,17,0,1,,,,,,,,,,,,,,,,,,,,,,,,,,,,,,,,,,,,,,,
,,,,,,,,2023-08-16_08h46.05.982,HF_wild_card,2022.2.4,Win32,59.98080614,6097c0f1b17aabadc9369fc5,64d2fd46c836a06233681665,64dc7eb3c002480885e295da,,,,,,,ctch,resources/DP.BMP,resources/DB.BMP,Door4,0.284259259,0.02037037,1,0,0,0.9132,optionRight,80,15130,7,18,0,18,0,1,,,,,,,,,,,,,,,,,,,,,,,,,,,,,,,,,,,,,,,
,,,,,,,,2023-08-16_08h46.05.982,HF_wild_card,2022.2.4,Win32,59.98080614,6097c0f1b17aabadc9369fc5,64d2fd46c836a06233681665,64dc7eb3c002480885e295da,,,,,,,decisionTrl,resources/DY.BMP,resources/DP.BMP,Door1,0.396296296,-0.011111111,1,0,0,1.0309,optionRight,30,15160,7,19,0,19,0,1,,,,,,,,,,,,,,,,,,,,,,,,,,,,,,,,,,,,,,,
,,,,,,,,2023-08-16_08h46.05.982,HF_wild_card,2022.2.4,Win32,59.98080614,6097c0f1b17aabadc9369fc5,64d2fd46c836a06233681665,64dc7eb3c002480885e295da,,,,,,,ctch,resources/DY.BMP,resources/DBN.BMP,Door3,0.485185185,0.021296296,1,0,0,0.7303,optionRight,70,15230,7,20,0,20,0,1,,,,,,,,,,,,,,,,,,,,,,,,,,,,,,,,,,,,,,,
,,,,,,,,2023-08-16_08h46.05.982,HF_wild_card,2022.2.4,Win32,59.98080614,6097c0f1b17aabadc9369fc5,64d2fd46c836a06233681665,64dc7eb3c002480885e295da,,,,,,,decisionTrl,resources/DP.BMP,resources/DY.BMP,Door1,-0.27962963,-0.003703704,1,0,0,0.8299,optionLeft,30,15260,7,21,0,21,0,1,,,,,,,,,,,,,,,,,,,,,,,,,,,,,,,,,,,,,,,
,,,,,,,,2023-08-16_08h46.05.982,HF_wild_card,2022.2.4,Win32,59.98080614,6097c0f1b17aabadc9369fc5,64d2fd46c836a06233681665,64dc7eb3c002480885e295da,,,,,,,decisionTrl,resources/DY.BMP,resources/DP.BMP,Door1,0.380555556,-0.012037037,1,0,0,0.6303,optionRight,30,15290,7,22,0,22,0,1,,,,,,,,,,,,,,,,,,,,,,,,,,,,,,,,,,,,,,,
,,,,,,,,2023-08-16_08h46.05.982,HF_wild_card,2022.2.4,Win32,59.98080614,6097c0f1b17aabadc9369fc5,64d2fd46c836a06233681665,64dc7eb3c002480885e295da,,,,,,,decisionTrl,resources/DY.BMP,resources/DP.BMP,Door1,0.308333333,-0.002777778,1,0,0,0.5976,optionRight,30,15320,7,23,0,23,0,1,,,,,,,,,,,,,,,,,,,,,,,,,,,,,,,,,,,,,,,
,,,,,,,,2023-08-16_08h46.05.982,HF_wild_card,2022.2.4,Win32,59.98080614,6097c0f1b17aabadc9369fc5,64d2fd46c836a06233681665,64dc7eb3c002480885e295da,,,,,,,ctch,resources/DB.BMP,resources/DP.BMP,Door4,-0.300925926,0.021296296,1,0,0,0.6629,optionLeft,80,15400,7,24,0,24,0,1,,,,,,,,,,,,,,,,,,,,,,,,,,,,,,,,,,,,,,,
,,,,,,,,2023-08-16_08h46.05.982,HF_wild_card,2022.2.4,Win32,59.98080614,6097c0f1b17aabadc9369fc5,64d2fd46c836a06233681665,64dc7eb3c002480885e295da,,,,,,,decisionTrl,resources/DB.BMP,resources/DBN.BMP,Door3,0.34537037,0,1,0,0,0.8309,optionRight,70,15470,7,25,0,25,0,1,,,,,,,,,,,,,,,,,,,,,,,,,,,,,,,,,,,,,,,
,,,,,,,,2023-08-16_08h46.05.982,HF_wild_card,2022.2.4,Win32,59.98080614,6097c0f1b17aabadc9369fc5,64d2fd46c836a06233681665,64dc7eb3c002480885e295da,,,,,,,decisionTrl,resources/DY.BMP,resources/DP.BMP,Door2,-0.336111111,0.060185185,1,0,0,1.0133,optionLeft,40,15510,7,26,0,26,0,1,,,,,,,,,,,,,,,,,,,,,,,,,,,,,,,,,,,,,,,
,,,,,,,,2023-08-16_08h46.05.982,HF_wild_card,2022.2.4,Win32,59.98080614,6097c0f1b17aabadc9369fc5,64d2fd46c836a06233681665,64dc7eb3c002480885e295da,,,,,,,decisionTrl,resources/DBN.BMP,resources/DB.BMP,Door3,-0.349074074,0.026851852,1,0,0,0.8045,optionLeft,70,15580,7,27,0,27,0,1,,,,,,,,,,,,,,,,,,,,,,,,,,,,,,,,,,,,,,,
,,,,,,,,2023-08-16_08h46.05.982,HF_wild_card,2022.2.4,Win32,59.98080614,6097c0f1b17aabadc9369fc5,64d2fd46c836a06233681665,64dc7eb3c002480885e295da,,,,,,,ctch,resources/DB.BMP,resources/DP.BMP,Door4,-0.203703704,0.009259259,1,0,0,0.7627,optionLeft,60,15640,7,28,0,28,0,1,,,,,,,,,,,,,,,,,,,,,,,,,,,,,,,,,,,,,,,
,,,,,,,,2023-08-16_08h46.05.982,HF_wild_card,2022.2.4,Win32,59.98080614,6097c0f1b17aabadc9369fc5,64d2fd46c836a06233681665,64dc7eb3c002480885e295da,,,,,,,decisionTrl,resources/DBN.BMP,resources/DB.BMP,Door3,-0.334259259,0.026851852,1,0,0,0.747,optionLeft,70,15710,7,29,0,29,0,1,,,,,,,,,,,,,,,,,,,,,,,,,,,,,,,,,,,,,,,
,,,,,,,,2023-08-16_08h46.05.982,HF_wild_card,2022.2.4,Win32,59.98080614,6097c0f1b17aabadc9369fc5,64d2fd46c836a06233681665,64dc7eb3c002480885e295da,,,,,,,decisionTrl,resources/DP.BMP,resources/DY.BMP,Door2,0.472222222,0.07037037,1,0,0,0.9634,optionRight,40,15750,7,30,0,30,0,1,,,,,,,,,,,,,,,,,,,,,,,,,,,,,,,,,,,,,,,
,,,,,,,,2023-08-16_08h46.05.982,HF_wild_card,2022.2.4,Win32,59.98080614,6097c0f1b17aabadc9369fc5,64d2fd46c836a06233681665,64dc7eb3c002480885e295da,,,,,,,decisionTrl,resources/DBN.BMP,resources/DB.BMP,Door3,-0.268518519,-0.003703704,1,0,0,0.5404,optionLeft,70,15820,7,31,0,31,0,1,,,,,,,,,,,,,,,,,,,,,,,,,,,,,,,,,,,,,,,
,,,,,,,,2023-08-16_08h46.05.982,HF_wild_card,2022.2.4,Win32,59.98080614,6097c0f1b17aabadc9369fc5,64d2fd46c836a06233681665,64dc7eb3c002480885e295da,,,,,,,decisionTrl,resources/DBN.BMP,resources/DB.BMP,Door3,-0.306481481,-0.001851852,1,0,0,0.545,optionLeft,70,15890,7,32,0,32,0,1,,,,,,,,,,,,,,,,,,,,,,,,,,,,,,,,,,,,,,,
,,,,,,,,2023-08-16_08h46.05.982,HF_wild_card,2022.2.4,Win32,59.98080614,6097c0f1b17aabadc9369fc5,64d2fd46c836a06233681665,64dc7eb3c002480885e295da,,,,,,,ctch,resources/DY.BMP,resources/DBN.BMP,Door3,0.406481481,0.001851852,1,0,0,0.6555,optionRight,70,15960,7,33,0,33,0,1,,,,,,,,,,,,,,,,,,,,,,,,,,,,,,,,,,,,,,,
,,,,,,,,2023-08-16_08h46.05.982,HF_wild_card,2022.2.4,Win32,59.98080614,6097c0f1b17aabadc9369fc5,64d2fd46c836a06233681665,64dc7eb3c002480885e295da,,,,,,,ctch,resources/DP.BMP,resources/DB.BMP,Door4,0.490740741,0.012037037,1,0,0,0.5466,optionRight,80,16040,7,34,0,34,0,1,,,,,,,,,,,,,,,,,,,,,,,,,,,,,,,,,,,,,,,
,,,,,,,,2023-08-16_08h46.05.982,HF_wild_card,2022.2.4,Win32,59.98080614,6097c0f1b17aabadc9369fc5,64d2fd46c836a06233681665,64dc7eb3c002480885e295da,,,,,,,ctch,resources/DBN.BMP,resources/DY.BMP,Door3,-0.275925926,0.02962963,1,0,0,0.6968,optionLeft,70,16110,7,35,0,35,0,1,,,,,,,,,,,,,,,,,,,,,,,,,,,,,,,,,,,,,,,
,,,,,,,,2023-08-16_08h46.05.982,HF_wild_card,2022.2.4,Win32,59.98080614,6097c0f1b17aabadc9369fc5,64d2fd46c836a06233681665,64dc7eb3c002480885e295da,,,,,,,,,,,,,,,,,,,,,,,,,,6,0,6,0,1,,,,,,,,,,,,,,,,,,,,,,,,,,,,,,,,,,
,,,,,,,,2023-08-16_08h46.05.982,HF_wild_card,2022.2.4,Win32,59.98080614,6097c0f1b17aabadc9369fc5,64d2fd46c836a06233681665,64dc7eb3c002480885e295da,,,,,,,,,,,,,,,,,,,,,,,,,,,,,,,4,,,,,,,,,,,,,,,,,,,,,,,,,,,,,,,,,
,,,,,,,,2023-08-16_08h46.05.982,HF_wild_card,2022.2.4,Win32,59.98080614,6097c0f1b17aabadc9369fc5,64d2fd46c836a06233681665,64dc7eb3c002480885e295da,,,,,,,,,,,,,,,,,,,,,,,,,,,,,,,,,,,,,,,,,,,,,,,,,,,,,,,,,,,,,,,,
,,,,,,,,2023-08-16_08h46.05.982,HF_wild_card,2022.2.4,Win32,59.98080614,6097c0f1b17aabadc9369fc5,64d2fd46c836a06233681665,64dc7eb3c002480885e295da,,,,,,,,,,,,,,,,,,,,,,,,,,,,,,,,70,Door3,resources/DBN.BMP,0,0,0,0,1,,,,,,,,,,,,,,,,,,,,,,,,,
,,,,,,,,2023-08-16_08h46.05.982,HF_wild_card,2022.2.4,Win32,59.98080614,6097c0f1b17aabadc9369fc5,64d2fd46c836a06233681665,64dc7eb3c002480885e295da,,,,,,,,,,,,,,,,,,,,,,,,,,,,,,,,30,Door1,resources/DP.BMP,1,0,1,0,1,,,,,,,,,,,,,,,,,,,,,,,,,
,,,,,,,,2023-08-16_08h46.05.982,HF_wild_card,2022.2.4,Win32,59.98080614,6097c0f1b17aabadc9369fc5,64d2fd46c836a06233681665,64dc7eb3c002480885e295da,,,,,,,,,,,,,,,,,,,,,,,,,,,,,,,,20,Door2,resources/DY.BMP,2,0,2,0,1,,,,,,,,,,,,,,,,,,,,,,,,,
,,,,,,,,2023-08-16_08h46.05.982,HF_wild_card,2022.2.4,Win32,59.98080614,6097c0f1b17aabadc9369fc5,64d2fd46c836a06233681665,64dc7eb3c002480885e295da,,,,,,,,,,,,,,,,,,,,,,,,,,,,,,,,5,WC_nonExtreme,resources/DR.BMP,3,0,3,0,1,,,,,,,,,,,,,,,,,,,,,,,,,
,,,,,,,,2023-08-16_08h46.05.982,HF_wild_card,2022.2.4,Win32,59.98080614,6097c0f1b17aabadc9369fc5,64d2fd46c836a06233681665,64dc7eb3c002480885e295da,,,,,,,,,,,,,,,,,,,,,,,,,,,,,,,,80,Door4,resources/DB.BMP,4,0,4,0,1,,,,,,,,,,,,,,,,,,,,,,,,,
,,,,,,,,2023-08-16_08h46.05.982,HF_wild_card,2022.2.4,Win32,59.98080614,6097c0f1b17aabadc9369fc5,64d2fd46c836a06233681665,64dc7eb3c002480885e295da,,,,,,,,,,,,,,,,,,,,,,,,,,,,,,,,95,WC_extreme,resources/DG.BMP,5,0,5,0,1,,,,,,,,,,,,,,,,,,,,,,,,,
,,,,,,,,2023-08-16_08h46.05.982,HF_wild_card,2022.2.4,Win32,59.98080614,6097c0f1b17aabadc9369fc5,64d2fd46c836a06233681665,64dc7eb3c002480885e295da,,,,,,,,,,,,,,,,,,,,,,,,,,,,,,,,,,,,,,,,,,,,,,,,,,,,,,,,,,,,,,,,
,,,,,,,,2023-08-16_08h46.05.982,HF_wild_card,2022.2.4,Win32,59.98080614,6097c0f1b17aabadc9369fc5,64d2fd46c836a06233681665,64dc7eb3c002480885e295da,,,,,,,,,,,,,,,,,,,,,,,,,,,,,,,,,,,,,,,,0,0,0,0,1,,,,,,,,,,,,,,,,,,,,
