Condition,Low fixed image (Door1),Low risky image (Door2),High fixed image (Door3),High risky image (Door4),Extreme Wild Card,NonExtreme Wild Card,,date,expName,psychopyVersion,OS,frameRate,PROLIFIC_PID,STUDY_ID,SESSION_ID,mouse_2.x,mouse_2.y,mouse_2.leftButton,mouse_2.midButton,mouse_2.rightButton,mouse_2.clicked_name,Trial Type,Left Option Image,Right Option Image,Chosen Door,mouse.x,mouse.y,mouse.leftButton,mouse.midButton,mouse.rightButton,mouse.time,mouse.clicked_name,Feedback,Cumulative Reward,Block,trial.thisRepN,trial.thisTrialN,trial.thisN,trial.thisIndex,trial.ran,blocks.thisRepN,blocks.thisTrialN,blocks.thisN,blocks.thisIndex,blocks.ran,Money conversion,First Outcome Reported,Shown Door (First Outcome),Displayed Image (First Outcome),outcomes.thisRepN,outcomes.thisTrialN,outcomes.thisN,outcomes.thisIndex,outcomes.ran,judgments.thisRepN,judgments.thisTrialN,judgments.thisN,judgments.thisIndex,judgments.ran,freqMouse.x,freqMouse.y,freqMouse.leftButton,freqMouse.midButton,freqMouse.rightButton,freqMouse.clicked_name,FQJ for first outcome,FQJ for second outcome,Shown Door,Displayed Image,trials.thisRepN,trials.thisTrialN,trials.thisN,trials.thisIndex,trials.ran,judgBlock.thisRepN,judgBlock.thisTrialN,judgBlock.thisN,judgBlock.thisIndex,judgBlock.ran
0,resources/DB.BMP,resources/DR.BMP,resources/DP.BMP,resources/DBN.BMP,resources/DG.BMP,resources/DY.BMP,,2023-08-16_08h51.54.697,HF_wild_card,2022.2.4,Win32,60.27364234,5ef660beebde2833d8492e58,64d2fd46c836a06233681665,64dc7f24b4214cff76e6c109,,,,,,,,,,,,,,,,,,,,,,,,,,,,,,,,,,,,,,,,,,,,,,,,,,,,,,,,,,,,,,,,
,,,,,,,,2023-08-16_08h51.54.697,HF_wild_card,2022.2.4,Win32,60.27364234,5ef660beebde2833d8492e58,64d2fd46c836a06233681665,64dc7f24b4214cff76e6c109,0.025000042,-0.419444473,1,0,0,agree,,,,,,,,,,,,,,,,,,,,,,,,,,,,,,,,,,,,,,,,,,,,,,,,,,,,,,,,,,
,,,,,,,,2023-08-16_08h51.54.697,HF_wild_card,2022.2.4,Win32,60.27364234,5ef660beebde2833d8492e58,64d2fd46c836a06233681665,64dc7f24b4214cff76e6c109,,,,,,,,,,,,,,,,,,,,,,,,,,,,,,,,,,,,,,,,,,,,,,,,,,,,,,,,,,,,,,,,
,,,,,,,,2023-08-16_08h51.54.697,HF_wild_card,2022.2.4,Win32,60.27364234,5ef660beebde2833d8492e58,64d2fd46c836a06233681665,64dc7f24b4214cff76e6c109,,,,,,,decisionTrl,resources/DB.BMP,resources/DR.BMP,Door1,-0.297222208,-0.008333347,1,0,0,5.8944,optionLeft,30,30,1,0,0,0,0,1,,,,,,,,,,,,,,,,,,,,,,,,,,,,,,,,,,,,,,,
,,,,,,,,2023-08-16_08h51.54.697,HF_wild_card,2022.2.4,Win32,60.27364234,5ef660beebde2833d8492e58,64d2fd46c836a06233681665,64dc7f24b4214cff76e6c109,,,,,,,sngl,resources/DB.BMP,resources/Empty.png,Door1,-0.412037037,-0.021296289,1,0,0,1.8604,optionLeft,30,60,1,1,0,1,0,1,,,,,,,,,,,,,,,,,,,,,,,,,,,,,,,,,,,,,,,
,,,,,,,,2023-08-16_08h51.54.697,HF_wild_card,2022.2.4,Win32,60.27364234,5ef660beebde2833d8492e58,64d2fd46c836a06233681665,64dc7f24b4214cff76e6c109,,,,,,,sngl,resources/Empty.png,resources/DG.BMP,WildCard_Ex,0.264814801,0.002777771,1,0,0,1.2147,optionRight,5,65,1,2,0,2,0,1,,,,,,,,,,,,,,,,,,,,,,,,,,,,,,,,,,,,,,,
,,,,,,,,2023-08-16_08h51.54.697,HF_wild_card,2022.2.4,Win32,60.27364234,5ef660beebde2833d8492e58,64d2fd46c836a06233681665,64dc7f24b4214cff76e6c109,,,,,,,sngl,resources/DP.BMP,resources/Empty.png,Door3,-0.345370363,-0.005555577,1,0,0,1.0202,optionLeft,70,135,1,3,0,3,0,1,,,,,,,,,,,,,,,,,,,,,,,,,,,,,,,,,,,,,,,
,,,,,,,,2023-08-16_08h51.54.697,HF_wild_card,2022.2.4,Win32,60.27364234,5ef660beebde2833d8492e58,64d2fd46c836a06233681665,64dc7f24b4214cff76e6c109,,,,,,,decisionTrl,resources/DG.BMP,resources/DB.BMP,WildCard_Ex,-0.260185171,-0.00462963,1,0,0,2.8774,optionLeft,95,230,1,4,0,4,0,1,,,,,,,,,,,,,,,,,,,,,,,,,,,,,,,,,,,,,,,
,,,,,,,,2023-08-16_08h51.54.697,HF_wild_card,2022.2.4,Win32,60.27364234,5ef660beebde2833d8492e58,64d2fd46c836a06233681665,64dc7f24b4214cff76e6c109,,,,,,,ctch,resources/DR.BMP,resources/DP.BMP,Door2,-0.321296303,-0.009259259,1,0,0,1.1038,optionLeft,20,250,1,5,0,5,0,1,,,,,,,,,,,,,,,,,,,,,,,,,,,,,,,,,,,,,,,
,,,,,,,,2023-08-16_08h51.54.697,HF_wild_card,2022.2.4,Win32,60.27364234,5ef660beebde2833d8492e58,64d2fd46c836a06233681665,64dc7f24b4214cff76e6c109,,,,,,,decisionTrl,resources/DP.BMP,resources/DBN.BMP,Door4,0.358333305,0.03148146,1,0,0,1.321,optionRight,60,310,1,6,0,6,0,1,,,,,,,,,,,,,,,,,,,,,,,,,,,,,,,,,,,,,,,
,,,,,,,,2023-08-16_08h51.54.697,HF_wild_card,2022.2.4,Win32,60.27364234,5ef660beebde2833d8492e58,64d2fd46c836a06233681665,64dc7f24b4214cff76e6c109,,,,,,,sngl,resources/DG.BMP,resources/Empty.png,WildCard_Ex,-0.276851866,0.002777771,1,0,0,0.8098,optionLeft,95,405,1,7,0,7,0,1,,,,,,,,,,,,,,,,,,,,,,,,,,,,,,,,,,,,,,,
,,,,,,,,2023-08-16_08h51.54.697,HF_wild_card,2022.2.4,Win32,60.27364234,5ef660beebde2833d8492e58,64d2fd46c836a06233681665,64dc7f24b4214cff76e6c109,,,,,,,decisionTrl,resources/DBN.BMP,resources/DP.BMP,Door3,0.462962963,0.01203703,1,0,0,1.7069,optionRight,70,475,1,8,0,8,0,1,,,,,,,,,,,,,,,,,,,,,,,,,,,,,,,,,,,,,,,
,,,,,,,,2023-08-16_08h51.54.697,HF_wild_card,2022.2.4,Win32,60.27364234,5ef660beebde2833d8492e58,64d2fd46c836a06233681665,64dc7f24b4214cff76e6c109,,,,,,,decisionTrl,resources/DB.BMP,resources/DR.BMP,Door1,-0.238888847,-0.006481489,1,0,0,1.7837,optionLeft,30,505,1,9,0,9,0,1,,,,,,,,,,,,,,,,,,,,,,,,,,,,,,,,,,,,,,,
,,,,,,,,2023-08-16_08h51.54.697,HF_wild_card,2022.2.4,Win32,60.27364234,5ef660beebde2833d8492e58,64d2fd46c836a06233681665,64dc7f24b4214cff76e6c109,,,,,,,ctch,resources/DR.BMP,resources/DP.BMP,Door3,0.462037122,0.01944443,1,0,0,1.2954,optionRight,70,575,1,10,0,10,0,1,,,,,,,,,,,,,,,,,,,,,,,,,,,,,,,,,,,,,,,
,,,,,,,,2023-08-16_08h51.54.697,HF_wild_card,2022.2.4,Win32,60.27364234,5ef660beebde2833d8492e58,64d2fd46c836a06233681665,64dc7f24b4214cff76e6c109,,,,,,,sngl,resources/Empty.png,resources/DP.BMP,Door3,0.387963048,0.009259259,1,0,0,0.6299,optionRight,70,645,1,11,0,11,0,1,,,,,,,,,,,,,,,,,,,,,,,,,,,,,,,,,,,,,,,
,,,,,,,,2023-08-16_08h51.54.697,HF_wild_card,2022.2.4,Win32,60.27364234,5ef660beebde2833d8492e58,64d2fd46c836a06233681665,64dc7f24b4214cff76e6c109,,,,,,,decisionTrl,resources/DP.BMP,resources/DG.BMP,WildCard_Ex,0.327777863,0.029629637,1,0,0,1.8136,optionRight,5,650,1,12,0,12,0,1,,,,,,,,,,,,,,,,,,,,,,,,,,,,,,,,,,,,,,,
,,,,,,,,2023-08-16_08h51.54.697,HF_wild_card,2022.2.4,Win32,60.27364234,5ef660beebde2833d8492e58,64d2fd46c836a06233681665,64dc7f24b4214cff76e6c109,,,,,,,sngl,resources/DBN.BMP,resources/Empty.png,Door4,-0.265740712,0.003703683,1,0,0,0.9048,optionLeft,80,730,1,13,0,13,0,1,,,,,,,,,,,,,,,,,,,,,,,,,,,,,,,,,,,,,,,
,,,,,,,,2023-08-16_08h51.54.697,HF_wild_card,2022.2.4,Win32,60.27364234,5ef660beebde2833d8492e58,64d2fd46c836a06233681665,64dc7f24b4214cff76e6c109,,,,,,,sngl,resources/Empty.png,resources/DBN.BMP,Door4,0.40833339,0.014814801,1,0,0,0.6778,optionRight,60,790,1,14,0,14,0,1,,,,,,,,,,,,,,,,,,,,,,,,,,,,,,,,,,,,,,,
,,,,,,,,2023-08-16_08h51.54.697,HF_wild_card,2022.2.4,Win32,60.27364234,5ef660beebde2833d8492e58,64d2fd46c836a06233681665,64dc7f24b4214cff76e6c109,,,,,,,sngl,resources/Empty.png,resources/DR.BMP,Door2,0.349074046,0.002777771,1,0,0,1.2639,optionRight,20,810,1,15,0,15,0,1,,,,,,,,,,,,,,,,,,,,,,,,,,,,,,,,,,,,,,,
,,,,,,,,2023-08-16_08h51.54.697,HF_wild_card,2022.2.4,Win32,60.27364234,5ef660beebde2833d8492e58,64d2fd46c836a06233681665,64dc7f24b4214cff76e6c109,,,,,,,sngl,resources/Empty.png,resources/DB.BMP,Door1,0.368518547,0.003703683,1,0,0,0.6139,optionRight,30,840,1,16,0,16,0,1,,,,,,,,,,,,,,,,,,,,,,,,,,,,,,,,,,,,,,,
,,,,,,,,2023-08-16_08h51.54.697,HF_wild_card,2022.2.4,Win32,60.27364234,5ef660beebde2833d8492e58,64d2fd46c836a06233681665,64dc7f24b4214cff76e6c109,,,,,,,decisionTrl,resources/DP.BMP,resources/DBN.BMP,Door3,-0.549999979,0.012962942,1,0,0,1.9823,optionLeft,70,910,1,17,0,17,0,1,,,,,,,,,,,,,,,,,,,,,,,,,,,,,,,,,,,,,,,
,,,,,,,,2023-08-16_08h51.54.697,HF_wild_card,2022.2.4,Win32,60.27364234,5ef660beebde2833d8492e58,64d2fd46c836a06233681665,64dc7f24b4214cff76e6c109,,,,,,,decisionTrl,resources/DR.BMP,resources/DG.BMP,WildCard_Ex,0.453703704,-0.001851859,1,0,0,2.9487,optionRight,5,915,1,18,0,18,0,1,,,,,,,,,,,,,,,,,,,,,,,,,,,,,,,,,,,,,,,
,,,,,,,,2023-08-16_08h51.54.697,HF_wild_card,2022.2.4,Win32,60.27364234,5ef660beebde2833d8492e58,64d2fd46c836a06233681665,64dc7f24b4214cff76e6c109,,,,,,,decisionTrl,resources/DG.BMP,resources/DR.BMP,Door2,0.295370384,-0.006481489,1,0,0,1.5254,optionRight,20,935,1,19,0,19,0,1,,,,,,,,,,,,,,,,,,,,,,,,,,,,,,,,,,,,,,,
,,,,,,,,2023-08-16_08h51.54.697,HF_wild_card,2022.2.4,Win32,60.27364234,5ef660beebde2833d8492e58,64d2fd46c836a06233681665,64dc7f24b4214cff76e6c109,,,,,,,decisionTrl,resources/DBN.BMP,resources/DP.BMP,Door3,0.509259259,0.067592586,1,0,0,1.284,optionRight,70,1005,1,20,0,20,0,1,,,,,,,,,,,,,,,,,,,,,,,,,,,,,,,,,,,,,,,
,,,,,,,,2023-08-16_08h51.54.697,HF_wild_card,2022.2.4,Win32,60.27364234,5ef660beebde2833d8492e58,64d2fd46c836a06233681665,64dc7f24b4214cff76e6c109,,,,,,,decisionTrl,resources/DR.BMP,resources/DB.BMP,Door1,0.303703732,0.029629637,1,0,0,1.5938,optionRight,30,1035,1,21,0,21,0,1,,,,,,,,,,,,,,,,,,,,,,,,,,,,,,,,,,,,,,,
,,,,,,,,2023-08-16_08h51.54.697,HF_wild_card,2022.2.4,Win32,60.27364234,5ef660beebde2833d8492e58,64d2fd46c836a06233681665,64dc7f24b4214cff76e6c109,,,,,,,decisionTrl,resources/DP.BMP,resources/DBN.BMP,Door3,-0.485185164,-0.018518519,1,0,0,1.149,optionLeft,70,1105,1,22,0,22,0,1,,,,,,,,,,,,,,,,,,,,,,,,,,,,,,,,,,,,,,,
,,,,,,,,2023-08-16_08h51.54.697,HF_wild_card,2022.2.4,Win32,60.27364234,5ef660beebde2833d8492e58,64d2fd46c836a06233681665,64dc7f24b4214cff76e6c109,,,,,,,decisionTrl,resources/DG.BMP,resources/DBN.BMP,Door4,0.352777834,0.003703683,1,0,0,0.8847,optionRight,60,1165,1,23,0,23,0,1,,,,,,,,,,,,,,,,,,,,,,,,,,,,,,,,,,,,,,,
,,,,,,,,2023-08-16_08h51.54.697,HF_wild_card,2022.2.4,Win32,60.27364234,5ef660beebde2833d8492e58,64d2fd46c836a06233681665,64dc7f24b4214cff76e6c109,,,,,,,ctch,resources/DP.BMP,resources/DR.BMP,Door3,-0.470370363,-0.014814836,1,0,0,1.7342,optionLeft,70,1235,1,24,0,24,0,1,,,,,,,,,,,,,,,,,,,,,,,,,,,,,,,,,,,,,,,
,,,,,,,,2023-08-16_08h51.54.697,HF_wild_card,2022.2.4,Win32,60.27364234,5ef660beebde2833d8492e58,64d2fd46c836a06233681665,64dc7f24b4214cff76e6c109,,,,,,,decisionTrl,resources/DBN.BMP,resources/DP.BMP,Door4,-0.282407407,-0.008333347,1,0,0,2.02,optionLeft,80,1315,1,25,0,25,0,1,,,,,,,,,,,,,,,,,,,,,,,,,,,,,,,,,,,,,,,
,,,,,,,,2023-08-16_08h51.54.697,HF_wild_card,2022.2.4,Win32,60.27364234,5ef660beebde2833d8492e58,64d2fd46c836a06233681665,64dc7f24b4214cff76e6c109,,,,,,,decisionTrl,resources/DBN.BMP,resources/DG.BMP,Door4,-0.263888889,-0.006481489,1,0,0,0.7292,optionLeft,60,1375,1,26,0,26,0,1,,,,,,,,,,,,,,,,,,,,,,,,,,,,,,,,,,,,,,,
,,,,,,,,2023-08-16_08h51.54.697,HF_wild_card,2022.2.4,Win32,60.27364234,5ef660beebde2833d8492e58,64d2fd46c836a06233681665,64dc7f24b4214cff76e6c109,,,,,,,decisionTrl,resources/DG.BMP,resources/DP.BMP,Door3,0.20185188,-0.01203703,1,0,0,0.9313,optionRight,70,1445,1,27,0,27,0,1,,,,,,,,,,,,,,,,,,,,,,,,,,,,,,,,,,,,,,,
,,,,,,,,2023-08-16_08h51.54.697,HF_wild_card,2022.2.4,Win32,60.27364234,5ef660beebde2833d8492e58,64d2fd46c836a06233681665,64dc7f24b4214cff76e6c109,,,,,,,sngl,resources/Empty.png,resources/DG.BMP,WildCard_Ex,0.262962977,-0.01203703,1,0,0,0.688,optionRight,95,1540,1,28,0,28,0,1,,,,,,,,,,,,,,,,,,,,,,,,,,,,,,,,,,,,,,,
,,,,,,,,2023-08-16_08h51.54.697,HF_wild_card,2022.2.4,Win32,60.27364234,5ef660beebde2833d8492e58,64d2fd46c836a06233681665,64dc7f24b4214cff76e6c109,,,,,,,ctch,resources/DBN.BMP,resources/DB.BMP,Door4,-0.258333347,0.000925912,1,0,0,0.845,optionLeft,60,1600,1,29,0,29,0,1,,,,,,,,,,,,,,,,,,,,,,,,,,,,,,,,,,,,,,,
,,,,,,,,2023-08-16_08h51.54.697,HF_wild_card,2022.2.4,Win32,60.27364234,5ef660beebde2833d8492e58,64d2fd46c836a06233681665,64dc7f24b4214cff76e6c109,,,,,,,ctch,resources/DBN.BMP,resources/DB.BMP,Door4,-0.511111118,0.018518519,1,0,0,3.15,optionLeft,80,1680,1,30,0,30,0,1,,,,,,,,,,,,,,,,,,,,,,,,,,,,,,,,,,,,,,,
,,,,,,,,2023-08-16_08h51.54.697,HF_wild_card,2022.2.4,Win32,60.27364234,5ef660beebde2833d8492e58,64d2fd46c836a06233681665,64dc7f24b4214cff76e6c109,,,,,,,ctch,resources/DB.BMP,resources/DBN.BMP,Door4,0.273148148,0.02870369,1,0,0,0.7761,optionRight,80,1760,1,31,0,31,0,1,,,,,,,,,,,,,,,,,,,,,,,,,,,,,,,,,,,,,,,
,,,,,,,,2023-08-16_08h51.54.697,HF_wild_card,2022.2.4,Win32,60.27364234,5ef660beebde2833d8492e58,64d2fd46c836a06233681665,64dc7f24b4214cff76e6c109,,,,,,,ctch,resources/DB.BMP,resources/DBN.BMP,Door4,0.280555584,-0.006481489,1,0,0,0.5626,optionRight,60,1820,1,32,0,32,0,1,,,,,,,,,,,,,,,,,,,,,,,,,,,,,,,,,,,,,,,
,,,,,,,,2023-08-16_08h51.54.697,HF_wild_card,2022.2.4,Win32,60.27364234,5ef660beebde2833d8492e58,64d2fd46c836a06233681665,64dc7f24b4214cff76e6c109,,,,,,,sngl,resources/DR.BMP,resources/Empty.png,Door2,-0.464814822,-0.006481489,1,0,0,0.6015,optionLeft,40,1860,1,33,0,33,0,1,,,,,,,,,,,,,,,,,,,,,,,,,,,,,,,,,,,,,,,
,,,,,,,,2023-08-16_08h51.54.697,HF_wild_card,2022.2.4,Win32,60.27364234,5ef660beebde2833d8492e58,64d2fd46c836a06233681665,64dc7f24b4214cff76e6c109,,,,,,,ctch,resources/DP.BMP,resources/DR.BMP,Door3,-0.351851852,-0.01203703,1,0,0,0.9798,optionLeft,70,1930,1,34,0,34,0,1,,,,,,,,,,,,,,,,,,,,,,,,,,,,,,,,,,,,,,,
,,,,,,,,2023-08-16_08h51.54.697,HF_wild_card,2022.2.4,Win32,60.27364234,5ef660beebde2833d8492e58,64d2fd46c836a06233681665,64dc7f24b4214cff76e6c109,,,,,,,decisionTrl,resources/DB.BMP,resources/DR.BMP,Door2,0.265740783,0.011111118,1,0,0,1.0959,optionRight,20,1950,1,35,0,35,0,1,,,,,,,,,,,,,,,,,,,,,,,,,,,,,,,,,,,,,,,
,,,,,,,,2023-08-16_08h51.54.697,HF_wild_card,2022.2.4,Win32,60.27364234,5ef660beebde2833d8492e58,64d2fd46c836a06233681665,64dc7f24b4214cff76e6c109,,,,,,,decisionTrl,resources/DR.BMP,resources/DB.BMP,Door1,0.378703788,0.01203703,1,0,0,2.1561,optionRight,30,1980,1,36,0,36,0,1,,,,,,,,,,,,,,,,,,,,,,,,,,,,,,,,,,,,,,,
,,,,,,,,2023-08-16_08h51.54.697,HF_wild_card,2022.2.4,Win32,60.27364234,5ef660beebde2833d8492e58,64d2fd46c836a06233681665,64dc7f24b4214cff76e6c109,,,,,,,decisionTrl,resources/DP.BMP,resources/DBN.BMP,Door4,0.258333347,0.003703683,1,0,0,0.7885,optionRight,80,2060,1,37,0,37,0,1,,,,,,,,,,,,,,,,,,,,,,,,,,,,,,,,,,,,,,,
,,,,,,,,2023-08-16_08h51.54.697,HF_wild_card,2022.2.4,Win32,60.27364234,5ef660beebde2833d8492e58,64d2fd46c836a06233681665,64dc7f24b4214cff76e6c109,,,,,,,sngl,resources/DG.BMP,resources/Empty.png,WildCard_Ex,-0.387962942,-0.015740748,1,0,0,0.6437,optionLeft,5,2065,1,38,0,38,0,1,,,,,,,,,,,,,,,,,,,,,,,,,,,,,,,,,,,,,,,
,,,,,,,,2023-08-16_08h51.54.697,HF_wild_card,2022.2.4,Win32,60.27364234,5ef660beebde2833d8492e58,64d2fd46c836a06233681665,64dc7f24b4214cff76e6c109,,,,,,,decisionTrl,resources/DR.BMP,resources/DB.BMP,Door1,0.233333376,0.020370377,1,0,0,2.1432,optionRight,30,2095,1,39,0,39,0,1,,,,,,,,,,,,,,,,,,,,,,,,,,,,,,,,,,,,,,,
,,,,,,,,2023-08-16_08h51.54.697,HF_wild_card,2022.2.4,Win32,60.27364234,5ef660beebde2833d8492e58,64d2fd46c836a06233681665,64dc7f24b4214cff76e6c109,,,,,,,decisionTrl,resources/DB.BMP,resources/DG.BMP,Door1,-0.305555556,-0.008333347,1,0,0,1.1826,optionLeft,30,2125,1,40,0,40,0,1,,,,,,,,,,,,,,,,,,,,,,,,,,,,,,,,,,,,,,,
,,,,,,,,2023-08-16_08h51.54.697,HF_wild_card,2022.2.4,Win32,60.27364234,5ef660beebde2833d8492e58,64d2fd46c836a06233681665,64dc7f24b4214cff76e6c109,,,,,,,decisionTrl,resources/DR.BMP,resources/DB.BMP,Door1,0.341666751,0.001851859,1,0,0,1.2869,optionRight,30,2155,1,41,0,41,0,1,,,,,,,,,,,,,,,,,,,,,,,,,,,,,,,,,,,,,,,
,,,,,,,,2023-08-16_08h51.54.697,HF_wild_card,2022.2.4,Win32,60.27364234,5ef660beebde2833d8492e58,64d2fd46c836a06233681665,64dc7f24b4214cff76e6c109,,,,,,,decisionTrl,resources/DB.BMP,resources/DR.BMP,Door1,-0.19259255,-0.000925947,1,0,0,0.8293,optionLeft,30,2185,1,42,0,42,0,1,,,,,,,,,,,,,,,,,,,,,,,,,,,,,,,,,,,,,,,
,,,,,,,,2023-08-16_08h51.54.697,HF_wild_card,2022.2.4,Win32,60.27364234,5ef660beebde2833d8492e58,64d2fd46c836a06233681665,64dc7f24b4214cff76e6c109,,,,,,,decisionTrl,resources/DBN.BMP,resources/DP.BMP,Door4,-0.274999972,0.00462963,1,0,0,1.1332,optionLeft,80,2265,1,43,0,43,0,1,,,,,,,,,,,,,,,,,,,,,,,,,,,,,,,,,,,,,,,
,,,,,,,,2023-08-16_08h51.54.697,HF_wild_card,2022.2.4,Win32,60.27364234,5ef660beebde2833d8492e58,64d2fd46c836a06233681665,64dc7f24b4214cff76e6c109,,,,,,,,,,,,,,,,,,,,,,,,,,0,0,0,0,1,,,,,,,,,,,,,,,,,,,,,,,,,,,,,,,,,,
,,,,,,,,2023-08-16_08h51.54.697,HF_wild_card,2022.2.4,Win32,60.27364234,5ef660beebde2833d8492e58,64d2fd46c836a06233681665,64dc7f24b4214cff76e6c109,,,,,,,ctch,resources/DP.BMP,resources/DR.BMP,Door3,-0.393518519,0.017592571,1,0,0,1.2277,optionLeft,70,2335,2,0,0,0,0,1,,,,,,,,,,,,,,,,,,,,,,,,,,,,,,,,,,,,,,,
,,,,,,,,2023-08-16_08h51.54.697,HF_wild_card,2022.2.4,Win32,60.27364234,5ef660beebde2833d8492e58,64d2fd46c836a06233681665,64dc7f24b4214cff76e6c109,,,,,,,ctch,resources/DBN.BMP,resources/DB.BMP,Door4,-0.282407407,-0.000925947,1,0,0,0.6455,optionLeft,60,2395,2,1,0,1,0,1,,,,,,,,,,,,,,,,,,,,,,,,,,,,,,,,,,,,,,,
,,,,,,,,2023-08-16_08h51.54.697,HF_wild_card,2022.2.4,Win32,60.27364234,5ef660beebde2833d8492e58,64d2fd46c836a06233681665,64dc7f24b4214cff76e6c109,,,,,,,sngl,resources/Empty.png,resources/DG.BMP,WildCard_Ex,0.439814815,-0.0074074,1,0,0,0.6279,optionRight,95,2490,2,2,0,2,0,1,,,,,,,,,,,,,,,,,,,,,,,,,,,,,,,,,,,,,,,
,,,,,,,,2023-08-16_08h51.54.697,HF_wild_card,2022.2.4,Win32,60.27364234,5ef660beebde2833d8492e58,64d2fd46c836a06233681665,64dc7f24b4214cff76e6c109,,,,,,,sngl,resources/Empty.png,resources/DBN.BMP,Door4,0.652777778,0.002777771,1,0,0,0.679,optionRight,80,2570,2,3,0,3,0,1,,,,,,,,,,,,,,,,,,,,,,,,,,,,,,,,,,,,,,,
,,,,,,,,2023-08-16_08h51.54.697,HF_wild_card,2022.2.4,Win32,60.27364234,5ef660beebde2833d8492e58,64d2fd46c836a06233681665,64dc7f24b4214cff76e6c109,,,,,,,decisionTrl,resources/DP.BMP,resources/DBN.BMP,Door4,0.323148233,0.033333319,1,0,0,0.9457,optionRight,80,2650,2,4,0,4,0,1,,,,,,,,,,,,,,,,,,,,,,,,,,,,,,,,,,,,,,,
,,,,,,,,2023-08-16_08h51.54.697,HF_wild_card,2022.2.4,Win32,60.27364234,5ef660beebde2833d8492e58,64d2fd46c836a06233681665,64dc7f24b4214cff76e6c109,,,,,,,decisionTrl,resources/DG.BMP,resources/DBN.BMP,WildCard_Ex,-0.239814829,-0.00462963,1,0,0,1.649,optionLeft,5,2655,2,5,0,5,0,1,,,,,,,,,,,,,,,,,,,,,,,,,,,,,,,,,,,,,,,
,,,,,,,,2023-08-16_08h51.54.697,HF_wild_card,2022.2.4,Win32,60.27364234,5ef660beebde2833d8492e58,64d2fd46c836a06233681665,64dc7f24b4214cff76e6c109,,,,,,,sngl,resources/Empty.png,resources/DB.BMP,Door1,0.476851852,0.015740748,1,0,0,0.9633,optionRight,30,2685,2,6,0,6,0,1,,,,,,,,,,,,,,,,,,,,,,,,,,,,,,,,,,,,,,,
,,,,,,,,2023-08-16_08h51.54.697,HF_wild_card,2022.2.4,Win32,60.27364234,5ef660beebde2833d8492e58,64d2fd46c836a06233681665,64dc7f24b4214cff76e6c109,,,,,,,decisionTrl,resources/DB.BMP,resources/DR.BMP,Door1,-0.296296296,-0.015740748,1,0,0,1.1002,optionLeft,30,2715,2,7,0,7,0,1,,,,,,,,,,,,,,,,,,,,,,,,,,,,,,,,,,,,,,,
,,,,,,,,2023-08-16_08h51.54.697,HF_wild_card,2022.2.4,Win32,60.27364234,5ef660beebde2833d8492e58,64d2fd46c836a06233681665,64dc7f24b4214cff76e6c109,,,,,,,ctch,resources/DB.BMP,resources/DBN.BMP,Door4,0.424074102,0,1,0,0,0.5587,optionRight,80,2795,2,8,0,8,0,1,,,,,,,,,,,,,,,,,,,,,,,,,,,,,,,,,,,,,,,
,,,,,,,,2023-08-16_08h51.54.697,HF_wild_card,2022.2.4,Win32,60.27364234,5ef660beebde2833d8492e58,64d2fd46c836a06233681665,64dc7f24b4214cff76e6c109,,,,,,,sngl,resources/DB.BMP,resources/Empty.png,Door1,-0.348148134,-0.044444437,1,0,0,0.5645,optionLeft,30,2825,2,9,0,9,0,1,,,,,,,,,,,,,,,,,,,,,,,,,,,,,,,,,,,,,,,
,,,,,,,,2023-08-16_08h51.54.697,HF_wild_card,2022.2.4,Win32,60.27364234,5ef660beebde2833d8492e58,64d2fd46c836a06233681665,64dc7f24b4214cff76e6c109,,,,,,,decisionTrl,resources/DB.BMP,resources/DR.BMP,Door1,-0.237037023,-0.015740748,1,0,0,0.906,optionLeft,30,2855,2,10,0,10,0,1,,,,,,,,,,,,,,,,,,,,,,,,,,,,,,,,,,,,,,,
,,,,,,,,2023-08-16_08h51.54.697,HF_wild_card,2022.2.4,Win32,60.27364234,5ef660beebde2833d8492e58,64d2fd46c836a06233681665,64dc7f24b4214cff76e6c109,,,,,,,ctch,resources/DP.BMP,resources/DR.BMP,Door3,-0.357407393,0.000925912,1,0,0,1.2808,optionLeft,70,2925,2,11,0,11,0,1,,,,,,,,,,,,,,,,,,,,,,,,,,,,,,,,,,,,,,,
,,,,,,,,2023-08-16_08h51.54.697,HF_wild_card,2022.2.4,Win32,60.27364234,5ef660beebde2833d8492e58,64d2fd46c836a06233681665,64dc7f24b4214cff76e6c109,,,,,,,decisionTrl,resources/DB.BMP,resources/DR.BMP,Door1,-0.304629608,-0.0074074,1,0,0,1.681,optionLeft,30,2955,2,12,0,12,0,1,,,,,,,,,,,,,,,,,,,,,,,,,,,,,,,,,,,,,,,
,,,,,,,,2023-08-16_08h51.54.697,HF_wild_card,2022.2.4,Win32,60.27364234,5ef660beebde2833d8492e58,64d2fd46c836a06233681665,64dc7f24b4214cff76e6c109,,,,,,,sngl,resources/Empty.png,resources/DR.BMP,Door2,0.604629658,0.011111118,1,0,0,0.5708,optionRight,40,2995,2,13,0,13,0,1,,,,,,,,,,,,,,,,,,,,,,,,,,,,,,,,,,,,,,,
,,,,,,,,2023-08-16_08h51.54.697,HF_wild_card,2022.2.4,Win32,60.27364234,5ef660beebde2833d8492e58,64d2fd46c836a06233681665,64dc7f24b4214cff76e6c109,,,,,,,decisionTrl,resources/DBN.BMP,resources/DP.BMP,Door4,-0.264814801,-0.018518519,1,0,0,0.6159,optionLeft,60,3055,2,14,0,14,0,1,,,,,,,,,,,,,,,,,,,,,,,,,,,,,,,,,,,,,,,
,,,,,,,,2023-08-16_08h51.54.697,HF_wild_card,2022.2.4,Win32,60.27364234,5ef660beebde2833d8492e58,64d2fd46c836a06233681665,64dc7f24b4214cff76e6c109,,,,,,,decisionTrl,resources/DR.BMP,resources/DB.BMP,Door1,0.405555584,0.006481489,1,0,0,1.2837,optionRight,30,3085,2,15,0,15,0,1,,,,,,,,,,,,,,,,,,,,,,,,,,,,,,,,,,,,,,,
,,,,,,,,2023-08-16_08h51.54.697,HF_wild_card,2022.2.4,Win32,60.27364234,5ef660beebde2833d8492e58,64d2fd46c836a06233681665,64dc7f24b4214cff76e6c109,,,,,,,decisionTrl,resources/DBN.BMP,resources/DP.BMP,Door4,-0.26944443,-0.012962977,1,0,0,0.8762,optionLeft,80,3165,2,16,0,16,0,1,,,,,,,,,,,,,,,,,,,,,,,,,,,,,,,,,,,,,,,
,,,,,,,,2023-08-16_08h51.54.697,HF_wild_card,2022.2.4,Win32,60.27364234,5ef660beebde2833d8492e58,64d2fd46c836a06233681665,64dc7f24b4214cff76e6c109,,,,,,,ctch,resources/DR.BMP,resources/DP.BMP,Door3,0.407407407,0.01944443,1,0,0,1.584,optionRight,70,3235,2,17,0,17,0,1,,,,,,,,,,,,,,,,,,,,,,,,,,,,,,,,,,,,,,,
,,,,,,,,2023-08-16_08h51.54.697,HF_wild_card,2022.2.4,Win32,60.27364234,5ef660beebde2833d8492e58,64d2fd46c836a06233681665,64dc7f24b4214cff76e6c109,,,,,,,decisionTrl,resources/DBN.BMP,resources/DG.BMP,Door4,-0.384259259,0.002777771,1,0,0,1.1295,optionLeft,80,3315,2,18,0,18,0,1,,,,,,,,,,,,,,,,,,,,,,,,,,,,,,,,,,,,,,,
,,,,,,,,2023-08-16_08h51.54.697,HF_wild_card,2022.2.4,Win32,60.27364234,5ef660beebde2833d8492e58,64d2fd46c836a06233681665,64dc7f24b4214cff76e6c109,,,,,,,decisionTrl,resources/DP.BMP,resources/DBN.BMP,Door4,0.243518547,0.009259259,1,0,0,1.1625,optionRight,60,3375,2,19,0,19,0,1,,,,,,,,,,,,,,,,,,,,,,,,,,,,,,,,,,,,,,,
,,,,,,,,2023-08-16_08h51.54.697,HF_wild_card,2022.2.4,Win32,60.27364234,5ef660beebde2833d8492e58,64d2fd46c836a06233681665,64dc7f24b4214cff76e6c109,,,,,,,decisionTrl,resources/DP.BMP,resources/DBN.BMP,Door4,0.430555556,0.03148146,1,0,0,0.7419,optionRight,60,3435,2,20,0,20,0,1,,,,,,,,,,,,,,,,,,,,,,,,,,,,,,,,,,,,,,,
,,,,,,,,2023-08-16_08h51.54.697,HF_wild_card,2022.2.4,Win32,60.27364234,5ef660beebde2833d8492e58,64d2fd46c836a06233681665,64dc7f24b4214cff76e6c109,,,,,,,decisionTrl,resources/DG.BMP,resources/DB.BMP,Door1,0.49537037,0.02407406,1,0,0,1.2786,optionRight,30,3465,2,21,0,21,0,1,,,,,,,,,,,,,,,,,,,,,,,,,,,,,,,,,,,,,,,
,,,,,,,,2023-08-16_08h51.54.697,HF_wild_card,2022.2.4,Win32,60.27364234,5ef660beebde2833d8492e58,64d2fd46c836a06233681665,64dc7f24b4214cff76e6c109,,,,,,,ctch,resources/DBN.BMP,resources/DB.BMP,Door4,-0.380555541,-0.011111118,1,0,0,0.8833,optionLeft,60,3525,2,22,0,22,0,1,,,,,,,,,,,,,,,,,,,,,,,,,,,,,,,,,,,,,,,
,,,,,,,,2023-08-16_08h51.54.697,HF_wild_card,2022.2.4,Win32,60.27364234,5ef660beebde2833d8492e58,64d2fd46c836a06233681665,64dc7f24b4214cff76e6c109,,,,,,,sngl,resources/DG.BMP,resources/Empty.png,WildCard_Ex,-0.365740741,-0.054629644,1,0,0,0.6023,optionLeft,95,3620,2,23,0,23,0,1,,,,,,,,,,,,,,,,,,,,,,,,,,,,,,,,,,,,,,,
,,,,,,,,2023-08-16_08h51.54.697,HF_wild_card,2022.2.4,Win32,60.27364234,5ef660beebde2833d8492e58,64d2fd46c836a06233681665,64dc7f24b4214cff76e6c109,,,,,,,decisionTrl,resources/DBN.BMP,resources/DP.BMP,Door4,-0.300925926,-0.022222236,1,0,0,0.8115,optionLeft,60,3680,2,24,0,24,0,1,,,,,,,,,,,,,,,,,,,,,,,,,,,,,,,,,,,,,,,
,,,,,,,,2023-08-16_08h51.54.697,HF_wild_card,2022.2.4,Win32,60.27364234,5ef660beebde2833d8492e58,64d2fd46c836a06233681665,64dc7f24b4214cff76e6c109,,,,,,,decisionTrl,resources/DR.BMP,resources/DB.BMP,Door1,0.327777863,-0.000925947,1,0,0,0.9976,optionRight,30,3710,2,25,0,25,0,1,,,,,,,,,,,,,,,,,,,,,,,,,,,,,,,,,,,,,,,
,,,,,,,,2023-08-16_08h51.54.697,HF_wild_card,2022.2.4,Win32,60.27364234,5ef660beebde2833d8492e58,64d2fd46c836a06233681665,64dc7f24b4214cff76e6c109,,,,,,,sngl,resources/DR.BMP,resources/Empty.png,Door2,-0.340740734,-0.018518519,1,0,0,0.628,optionLeft,20,3730,2,26,0,26,0,1,,,,,,,,,,,,,,,,,,,,,,,,,,,,,,,,,,,,,,,
,,,,,,,,2023-08-16_08h51.54.697,HF_wild_card,2022.2.4,Win32,60.27364234,5ef660beebde2833d8492e58,64d2fd46c836a06233681665,64dc7f24b4214cff76e6c109,,,,,,,decisionTrl,resources/DP.BMP,resources/DBN.BMP,Door4,0.22592594,-0.01203703,1,0,0,2.0895,optionRight,60,3790,2,27,0,27,0,1,,,,,,,,,,,,,,,,,,,,,,,,,,,,,,,,,,,,,,,
,,,,,,,,2023-08-16_08h51.54.697,HF_wild_card,2022.2.4,Win32,60.27364234,5ef660beebde2833d8492e58,64d2fd46c836a06233681665,64dc7f24b4214cff76e6c109,,,,,,,sngl,resources/DP.BMP,resources/Empty.png,Door3,-0.148148148,-0.025000007,1,0,0,0.6304,optionLeft,70,3860,2,28,0,28,0,1,,,,,,,,,,,,,,,,,,,,,,,,,,,,,,,,,,,,,,,
,,,,,,,,2023-08-16_08h51.54.697,HF_wild_card,2022.2.4,Win32,60.27364234,5ef660beebde2833d8492e58,64d2fd46c836a06233681665,64dc7f24b4214cff76e6c109,,,,,,,decisionTrl,resources/DG.BMP,resources/DP.BMP,WildCard_Ex,-0.276851866,-0.001851859,1,0,0,2.8332,optionLeft,5,3865,2,29,0,29,0,1,,,,,,,,,,,,,,,,,,,,,,,,,,,,,,,,,,,,,,,
,,,,,,,,2023-08-16_08h51.54.697,HF_wild_card,2022.2.4,Win32,60.27364234,5ef660beebde2833d8492e58,64d2fd46c836a06233681665,64dc7f24b4214cff76e6c109,,,,,,,sngl,resources/Empty.png,resources/DP.BMP,Door3,0.594444416,-0.000925947,1,0,0,0.9881,optionRight,70,3935,2,30,0,30,0,1,,,,,,,,,,,,,,,,,,,,,,,,,,,,,,,,,,,,,,,
,,,,,,,,2023-08-16_08h51.54.697,HF_wild_card,2022.2.4,Win32,60.27364234,5ef660beebde2833d8492e58,64d2fd46c836a06233681665,64dc7f24b4214cff76e6c109,,,,,,,sngl,resources/DBN.BMP,resources/Empty.png,Door4,-0.291666667,-0.006481489,1,0,0,0.582,optionLeft,60,3995,2,31,0,31,0,1,,,,,,,,,,,,,,,,,,,,,,,,,,,,,,,,,,,,,,,
,,,,,,,,2023-08-16_08h51.54.697,HF_wild_card,2022.2.4,Win32,60.27364234,5ef660beebde2833d8492e58,64d2fd46c836a06233681665,64dc7f24b4214cff76e6c109,,,,,,,decisionTrl,resources/DG.BMP,resources/DR.BMP,WildCard_Ex,-0.227777764,-0.001851859,1,0,0,1.8385,optionLeft,5,4000,2,32,0,32,0,1,,,,,,,,,,,,,,,,,,,,,,,,,,,,,,,,,,,,,,,
,,,,,,,,2023-08-16_08h51.54.697,HF_wild_card,2022.2.4,Win32,60.27364234,5ef660beebde2833d8492e58,64d2fd46c836a06233681665,64dc7f24b4214cff76e6c109,,,,,,,decisionTrl,resources/DR.BMP,resources/DB.BMP,Door1,0.312037009,0.012962942,1,0,0,1.0317,optionRight,30,4030,2,33,0,33,0,1,,,,,,,,,,,,,,,,,,,,,,,,,,,,,,,,,,,,,,,
,,,,,,,,2023-08-16_08h51.54.697,HF_wild_card,2022.2.4,Win32,60.27364234,5ef660beebde2833d8492e58,64d2fd46c836a06233681665,64dc7f24b4214cff76e6c109,,,,,,,sngl,resources/DG.BMP,resources/Empty.png,WildCard_Ex,-0.574074074,-0.053703697,1,0,0,0.6556,optionLeft,5,4035,2,34,0,34,0,1,,,,,,,,,,,,,,,,,,,,,,,,,,,,,,,,,,,,,,,
,,,,,,,,2023-08-16_08h51.54.697,HF_wild_card,2022.2.4,Win32,60.27364234,5ef660beebde2833d8492e58,64d2fd46c836a06233681665,64dc7f24b4214cff76e6c109,,,,,,,decisionTrl,resources/DB.BMP,resources/DG.BMP,Door1,-0.276851866,-0.063888903,1,0,0,1.1972,optionLeft,30,4065,2,35,0,35,0,1,,,,,,,,,,,,,,,,,,,,,,,,,,,,,,,,,,,,,,,
,,,,,,,,2023-08-16_08h51.54.697,HF_wild_card,2022.2.4,Win32,60.27364234,5ef660beebde2833d8492e58,64d2fd46c836a06233681665,64dc7f24b4214cff76e6c109,,,,,,,decisionTrl,resources/DB.BMP,resources/DR.BMP,Door1,-0.509259259,-0.006481489,1,0,0,3.0725,optionLeft,30,4095,2,36,0,36,0,1,,,,,,,,,,,,,,,,,,,,,,,,,,,,,,,,,,,,,,,
,,,,,,,,2023-08-16_08h51.54.697,HF_wild_card,2022.2.4,Win32,60.27364234,5ef660beebde2833d8492e58,64d2fd46c836a06233681665,64dc7f24b4214cff76e6c109,,,,,,,decisionTrl,resources/DBN.BMP,resources/DP.BMP,Door4,-0.332407386,-0.011111118,1,0,0,0.6542,optionLeft,60,4155,2,37,0,37,0,1,,,,,,,,,,,,,,,,,,,,,,,,,,,,,,,,,,,,,,,
,,,,,,,,2023-08-16_08h51.54.697,HF_wild_card,2022.2.4,Win32,60.27364234,5ef660beebde2833d8492e58,64d2fd46c836a06233681665,64dc7f24b4214cff76e6c109,,,,,,,sngl,resources/Empty.png,resources/DG.BMP,WildCard_Ex,0.312037009,-0.002777771,1,0,0,0.7123,optionRight,5,4160,2,38,0,38,0,1,,,,,,,,,,,,,,,,,,,,,,,,,,,,,,,,,,,,,,,
,,,,,,,,2023-08-16_08h51.54.697,HF_wild_card,2022.2.4,Win32,60.27364234,5ef660beebde2833d8492e58,64d2fd46c836a06233681665,64dc7f24b4214cff76e6c109,,,,,,,decisionTrl,resources/DR.BMP,resources/DG.BMP,Door2,-0.25462963,-0.013888889,1,0,0,0.7853,optionLeft,20,4180,2,39,0,39,0,1,,,,,,,,,,,,,,,,,,,,,,,,,,,,,,,,,,,,,,,
,,,,,,,,2023-08-16_08h51.54.697,HF_wild_card,2022.2.4,Win32,60.27364234,5ef660beebde2833d8492e58,64d2fd46c836a06233681665,64dc7f24b4214cff76e6c109,,,,,,,ctch,resources/DR.BMP,resources/DP.BMP,Door3,0.297222279,0.01666666,1,0,0,1.9638,optionRight,70,4250,2,40,0,40,0,1,,,,,,,,,,,,,,,,,,,,,,,,,,,,,,,,,,,,,,,
,,,,,,,,2023-08-16_08h51.54.697,HF_wild_card,2022.2.4,Win32,60.27364234,5ef660beebde2833d8492e58,64d2fd46c836a06233681665,64dc7f24b4214cff76e6c109,,,,,,,decisionTrl,resources/DR.BMP,resources/DB.BMP,Door1,0.387037065,0.025000007,1,0,0,1.164,optionRight,30,4280,2,41,0,41,0,1,,,,,,,,,,,,,,,,,,,,,,,,,,,,,,,,,,,,,,,
,,,,,,,,2023-08-16_08h51.54.697,HF_wild_card,2022.2.4,Win32,60.27364234,5ef660beebde2833d8492e58,64d2fd46c836a06233681665,64dc7f24b4214cff76e6c109,,,,,,,ctch,resources/DB.BMP,resources/DBN.BMP,Door4,0.288888931,0,1,0,0,0.6337,optionRight,80,4360,2,42,0,42,0,1,,,,,,,,,,,,,,,,,,,,,,,,,,,,,,,,,,,,,,,
,,,,,,,,2023-08-16_08h51.54.697,HF_wild_card,2022.2.4,Win32,60.27364234,5ef660beebde2833d8492e58,64d2fd46c836a06233681665,64dc7f24b4214cff76e6c109,,,,,,,decisionTrl,resources/DP.BMP,resources/DG.BMP,Door3,-0.275925884,-0.027777778,1,0,0,1.2659,optionLeft,70,4430,2,43,0,43,0,1,,,,,,,,,,,,,,,,,,,,,,,,,,,,,,,,,,,,,,,
,,,,,,,,2023-08-16_08h51.54.697,HF_wild_card,2022.2.4,Win32,60.27364234,5ef660beebde2833d8492e58,64d2fd46c836a06233681665,64dc7f24b4214cff76e6c109,,,,,,,,,,,,,,,,,,,,,,,,,,1,0,1,0,1,,,,,,,,,,,,,,,,,,,,,,,,,,,,,,,,,,
,,,,,,,,2023-08-16_08h51.54.697,HF_wild_card,2022.2.4,Win32,60.27364234,5ef660beebde2833d8492e58,64d2fd46c836a06233681665,64dc7f24b4214cff76e6c109,,,,,,,decisionTrl,resources/DBN.BMP,resources/DP.BMP,Door4,-0.257407365,-0.038888896,1,0,0,0.6793,optionLeft,80,4510,3,0,0,0,0,1,,,,,,,,,,,,,,,,,,,,,,,,,,,,,,,,,,,,,,,
,,,,,,,,2023-08-16_08h51.54.697,HF_wild_card,2022.2.4,Win32,60.27364234,5ef660beebde2833d8492e58,64d2fd46c836a06233681665,64dc7f24b4214cff76e6c109,,,,,,,sngl,resources/DBN.BMP,resources/Empty.png,Door4,-0.257407365,-0.024074095,1,0,0,0.5482,optionLeft,80,4590,3,1,0,1,0,1,,,,,,,,,,,,,,,,,,,,,,,,,,,,,,,,,,,,,,,
,,,,,,,,2023-08-16_08h51.54.697,HF_wild_card,2022.2.4,Win32,60.27364234,5ef660beebde2833d8492e58,64d2fd46c836a06233681665,64dc7f24b4214cff76e6c109,,,,,,,ctch,resources/DP.BMP,resources/DR.BMP,Door3,-0.246296282,-0.011111118,1,0,0,1.478,optionLeft,70,4660,3,2,0,2,0,1,,,,,,,,,,,,,,,,,,,,,,,,,,,,,,,,,,,,,,,
,,,,,,,,2023-08-16_08h51.54.697,HF_wild_card,2022.2.4,Win32,60.27364234,5ef660beebde2833d8492e58,64d2fd46c836a06233681665,64dc7f24b4214cff76e6c109,,,,,,,sngl,resources/Empty.png,resources/DBN.BMP,Door4,0.210185228,0.015740748,1,0,0,0.5805,optionRight,60,4720,3,3,0,3,0,1,,,,,,,,,,,,,,,,,,,,,,,,,,,,,,,,,,,,,,,
,,,,,,,,2023-08-16_08h51.54.697,HF_wild_card,2022.2.4,Win32,60.27364234,5ef660beebde2833d8492e58,64d2fd46c836a06233681665,64dc7f24b4214cff76e6c109,,,,,,,decisionTrl,resources/DR.BMP,resources/DB.BMP,Door1,0.52870376,0.030555548,1,0,0,0.8954,optionRight,30,4750,3,4,0,4,0,1,,,,,,,,,,,,,,,,,,,,,,,,,,,,,,,,,,,,,,,
,,,,,,,,2023-08-16_08h51.54.697,HF_wild_card,2022.2.4,Win32,60.27364234,5ef660beebde2833d8492e58,64d2fd46c836a06233681665,64dc7f24b4214cff76e6c109,,,,,,,sngl,resources/DP.BMP,resources/Empty.png,Door3,-0.362037023,-0.036111125,1,0,0,0.6044,optionLeft,70,4820,3,5,0,5,0,1,,,,,,,,,,,,,,,,,,,,,,,,,,,,,,,,,,,,,,,
,,,,,,,,2023-08-16_08h51.54.697,HF_wild_card,2022.2.4,Win32,60.27364234,5ef660beebde2833d8492e58,64d2fd46c836a06233681665,64dc7f24b4214cff76e6c109,,,,,,,decisionTrl,resources/DBN.BMP,resources/DP.BMP,Door4,-0.430555556,-0.003703718,1,0,0,0.6694,optionLeft,60,4880,3,6,0,6,0,1,,,,,,,,,,,,,,,,,,,,,,,,,,,,,,,,,,,,,,,
,,,,,,,,2023-08-16_08h51.54.697,HF_wild_card,2022.2.4,Win32,60.27364234,5ef660beebde2833d8492e58,64d2fd46c836a06233681665,64dc7f24b4214cff76e6c109,,,,,,,decisionTrl,resources/DR.BMP,resources/DB.BMP,Door1,0.432407379,0.04074072,1,0,0,0.7829,optionRight,30,4910,3,7,0,7,0,1,,,,,,,,,,,,,,,,,,,,,,,,,,,,,,,,,,,,,,,
,,,,,,,,2023-08-16_08h51.54.697,HF_wild_card,2022.2.4,Win32,60.27364234,5ef660beebde2833d8492e58,64d2fd46c836a06233681665,64dc7f24b4214cff76e6c109,,,,,,,decisionTrl,resources/DP.BMP,resources/DBN.BMP,Door4,0.199999986,0.010185171,1,0,0,0.7181,optionRight,80,4990,3,8,0,8,0,1,,,,,,,,,,,,,,,,,,,,,,,,,,,,,,,,,,,,,,,
,,,,,,,,2023-08-16_08h51.54.697,HF_wild_card,2022.2.4,Win32,60.27364234,5ef660beebde2833d8492e58,64d2fd46c836a06233681665,64dc7f24b4214cff76e6c109,,,,,,,decisionTrl,resources/DBN.BMP,resources/DP.BMP,Door4,-0.264814801,-0.043518526,1,0,0,0.6578,optionLeft,80,5070,3,9,0,9,0,1,,,,,,,,,,,,,,,,,,,,,,,,,,,,,,,,,,,,,,,
,,,,,,,,2023-08-16_08h51.54.697,HF_wild_card,2022.2.4,Win32,60.27364234,5ef660beebde2833d8492e58,64d2fd46c836a06233681665,64dc7f24b4214cff76e6c109,,,,,,,decisionTrl,resources/DB.BMP,resources/DR.BMP,Door1,-0.171296296,-0.027777778,1,0,0,1.1645,optionLeft,30,5100,3,10,0,10,0,1,,,,,,,,,,,,,,,,,,,,,,,,,,,,,,,,,,,,,,,
,,,,,,,,2023-08-16_08h51.54.697,HF_wild_card,2022.2.4,Win32,60.27364234,5ef660beebde2833d8492e58,64d2fd46c836a06233681665,64dc7f24b4214cff76e6c109,,,,,,,decisionTrl,resources/DP.BMP,resources/DBN.BMP,Door4,0.20648151,-0.00462963,1,0,0,0.694,optionRight,60,5160,3,11,0,11,0,1,,,,,,,,,,,,,,,,,,,,,,,,,,,,,,,,,,,,,,,
,,,,,,,,2023-08-16_08h51.54.697,HF_wild_card,2022.2.4,Win32,60.27364234,5ef660beebde2833d8492e58,64d2fd46c836a06233681665,64dc7f24b4214cff76e6c109,,,,,,,sngl,resources/DB.BMP,resources/Empty.png,Door1,-0.349999993,-0.052777785,1,0,0,0.8006,optionLeft,30,5190,3,12,0,12,0,1,,,,,,,,,,,,,,,,,,,,,,,,,,,,,,,,,,,,,,,
,,,,,,,,2023-08-16_08h51.54.697,HF_wild_card,2022.2.4,Win32,60.27364234,5ef660beebde2833d8492e58,64d2fd46c836a06233681665,64dc7f24b4214cff76e6c109,,,,,,,decisionTrl,resources/DB.BMP,resources/DR.BMP,Door1,-0.137036995,-0.029629637,1,0,0,0.7597,optionLeft,30,5220,3,13,0,13,0,1,,,,,,,,,,,,,,,,,,,,,,,,,,,,,,,,,,,,,,,
,,,,,,,,2023-08-16_08h51.54.697,HF_wild_card,2022.2.4,Win32,60.27364234,5ef660beebde2833d8492e58,64d2fd46c836a06233681665,64dc7f24b4214cff76e6c109,,,,,,,decisionTrl,resources/DP.BMP,resources/DBN.BMP,Door4,0.530555584,0.035185178,1,0,0,0.7055,optionRight,80,5300,3,14,0,14,0,1,,,,,,,,,,,,,,,,,,,,,,,,,,,,,,,,,,,,,,,
,,,,,,,,2023-08-16_08h51.54.697,HF_wild_card,2022.2.4,Win32,60.27364234,5ef660beebde2833d8492e58,64d2fd46c836a06233681665,64dc7f24b4214cff76e6c109,,,,,,,decisionTrl,resources/DBN.BMP,resources/DP.BMP,Door4,-0.331481474,-0.000925947,1,0,0,0.5735,optionLeft,60,5360,3,15,0,15,0,1,,,,,,,,,,,,,,,,,,,,,,,,,,,,,,,,,,,,,,,
,,,,,,,,2023-08-16_08h51.54.697,HF_wild_card,2022.2.4,Win32,60.27364234,5ef660beebde2833d8492e58,64d2fd46c836a06233681665,64dc7f24b4214cff76e6c109,,,,,,,decisionTrl,resources/DR.BMP,resources/DG.BMP,WildCard_Ex,0.297222279,0.005555541,1,0,0,0.9239,optionRight,5,5365,3,16,0,16,0,1,,,,,,,,,,,,,,,,,,,,,,,,,,,,,,,,,,,,,,,
,,,,,,,,2023-08-16_08h51.54.697,HF_wild_card,2022.2.4,Win32,60.27364234,5ef660beebde2833d8492e58,64d2fd46c836a06233681665,64dc7f24b4214cff76e6c109,,,,,,,ctch,resources/DR.BMP,resources/DP.BMP,Door3,0.181481467,0,1,0,0,0.9071,optionRight,70,5435,3,17,0,17,0,1,,,,,,,,,,,,,,,,,,,,,,,,,,,,,,,,,,,,,,,
,,,,,,,,2023-08-16_08h51.54.697,HF_wild_card,2022.2.4,Win32,60.27364234,5ef660beebde2833d8492e58,64d2fd46c836a06233681665,64dc7f24b4214cff76e6c109,,,,,,,decisionTrl,resources/DR.BMP,resources/DB.BMP,Door1,0.190740727,0.011111118,1,0,0,1.3124,optionRight,30,5465,3,18,0,18,0,1,,,,,,,,,,,,,,,,,,,,,,,,,,,,,,,,,,,,,,,
,,,,,,,,2023-08-16_08h51.54.697,HF_wild_card,2022.2.4,Win32,60.27364234,5ef660beebde2833d8492e58,64d2fd46c836a06233681665,64dc7f24b4214cff76e6c109,,,,,,,decisionTrl,resources/DB.BMP,resources/DG.BMP,Door1,-0.215740698,-0.002777771,1,0,0,1.1151,optionLeft,30,5495,3,19,0,19,0,1,,,,,,,,,,,,,,,,,,,,,,,,,,,,,,,,,,,,,,,
,,,,,,,,2023-08-16_08h51.54.697,HF_wild_card,2022.2.4,Win32,60.27364234,5ef660beebde2833d8492e58,64d2fd46c836a06233681665,64dc7f24b4214cff76e6c109,,,,,,,ctch,resources/DB.BMP,resources/DBN.BMP,Door4,0.160185213,0.013888889,1,0,0,0.6668,optionRight,60,5555,3,20,0,20,0,1,,,,,,,,,,,,,,,,,,,,,,,,,,,,,,,,,,,,,,,
,,,,,,,,2023-08-16_08h51.54.697,HF_wild_card,2022.2.4,Win32,60.27364234,5ef660beebde2833d8492e58,64d2fd46c836a06233681665,64dc7f24b4214cff76e6c109,,,,,,,decisionTrl,resources/DG.BMP,resources/DR.BMP,Door2,0.190740727,0.02407406,1,0,0,0.9212,optionRight,20,5575,3,21,0,21,0,1,,,,,,,,,,,,,,,,,,,,,,,,,,,,,,,,,,,,,,,
,,,,,,,,2023-08-16_08h51.54.697,HF_wild_card,2022.2.4,Win32,60.27364234,5ef660beebde2833d8492e58,64d2fd46c836a06233681665,64dc7f24b4214cff76e6c109,,,,,,,ctch,resources/DBN.BMP,resources/DB.BMP,Door4,-0.196296268,-0.011111118,1,0,0,0.656,optionLeft,80,5655,3,22,0,22,0,1,,,,,,,,,,,,,,,,,,,,,,,,,,,,,,,,,,,,,,,
,,,,,,,,2023-08-16_08h51.54.697,HF_wild_card,2022.2.4,Win32,60.27364234,5ef660beebde2833d8492e58,64d2fd46c836a06233681665,64dc7f24b4214cff76e6c109,,,,,,,sngl,resources/Empty.png,resources/DR.BMP,Door2,0.319444444,0.002777771,1,0,0,0.6288,optionRight,20,5675,3,23,0,23,0,1,,,,,,,,,,,,,,,,,,,,,,,,,,,,,,,,,,,,,,,
,,,,,,,,2023-08-16_08h51.54.697,HF_wild_card,2022.2.4,Win32,60.27364234,5ef660beebde2833d8492e58,64d2fd46c836a06233681665,64dc7f24b4214cff76e6c109,,,,,,,decisionTrl,resources/DP.BMP,resources/DG.BMP,Door3,-0.174074032,-0.008333347,1,0,0,1.2519,optionLeft,70,5745,3,24,0,24,0,1,,,,,,,,,,,,,,,,,,,,,,,,,,,,,,,,,,,,,,,
,,,,,,,,2023-08-16_08h51.54.697,HF_wild_card,2022.2.4,Win32,60.27364234,5ef660beebde2833d8492e58,64d2fd46c836a06233681665,64dc7f24b4214cff76e6c109,,,,,,,decisionTrl,resources/DG.BMP,resources/DB.BMP,WildCard_Ex,-0.26944443,-0.003703718,1,0,0,1.6651,optionLeft,5,5750,3,25,0,25,0,1,,,,,,,,,,,,,,,,,,,,,,,,,,,,,,,,,,,,,,,
,,,,,,,,2023-08-16_08h51.54.697,HF_wild_card,2022.2.4,Win32,60.27364234,5ef660beebde2833d8492e58,64d2fd46c836a06233681665,64dc7f24b4214cff76e6c109,,,,,,,sngl,resources/DG.BMP,resources/Empty.png,WildCard_Ex,-0.289814772,-0.045370384,1,0,0,0.6354,optionLeft,95,5845,3,26,0,26,0,1,,,,,,,,,,,,,,,,,,,,,,,,,,,,,,,,,,,,,,,
,,,,,,,,2023-08-16_08h51.54.697,HF_wild_card,2022.2.4,Win32,60.27364234,5ef660beebde2833d8492e58,64d2fd46c836a06233681665,64dc7f24b4214cff76e6c109,,,,,,,decisionTrl,resources/DB.BMP,resources/DR.BMP,Door1,-0.244444459,0,1,0,0,0.9821,optionLeft,30,5875,3,27,0,27,0,1,,,,,,,,,,,,,,,,,,,,,,,,,,,,,,,,,,,,,,,
,,,,,,,,2023-08-16_08h51.54.697,HF_wild_card,2022.2.4,Win32,60.27364234,5ef660beebde2833d8492e58,64d2fd46c836a06233681665,64dc7f24b4214cff76e6c109,,,,,,,sngl,resources/DG.BMP,resources/Empty.png,WildCard_Ex,-0.217592593,-0.010185206,1,0,0,0.6471,optionLeft,5,5880,3,28,0,28,0,1,,,,,,,,,,,,,,,,,,,,,,,,,,,,,,,,,,,,,,,
,,,,,,,,2023-08-16_08h51.54.697,HF_wild_card,2022.2.4,Win32,60.27364234,5ef660beebde2833d8492e58,64d2fd46c836a06233681665,64dc7f24b4214cff76e6c109,,,,,,,ctch,resources/DR.BMP,resources/DP.BMP,Door3,0.244444459,-0.005555577,1,0,0,0.9136,optionRight,70,5950,3,29,0,29,0,1,,,,,,,,,,,,,,,,,,,,,,,,,,,,,,,,,,,,,,,
,,,,,,,,2023-08-16_08h51.54.697,HF_wild_card,2022.2.4,Win32,60.27364234,5ef660beebde2833d8492e58,64d2fd46c836a06233681665,64dc7f24b4214cff76e6c109,,,,,,,sngl,resources/Empty.png,resources/DG.BMP,WildCard_Ex,0.333333333,0.02870369,1,0,0,0.5506,optionRight,5,5955,3,30,0,30,0,1,,,,,,,,,,,,,,,,,,,,,,,,,,,,,,,,,,,,,,,
,,,,,,,,2023-08-16_08h51.54.697,HF_wild_card,2022.2.4,Win32,60.27364234,5ef660beebde2833d8492e58,64d2fd46c836a06233681665,64dc7f24b4214cff76e6c109,,,,,,,sngl,resources/Empty.png,resources/DG.BMP,WildCard_Ex,0.555555556,0.0074074,1,0,0,0.5234,optionRight,95,6050,3,31,0,31,0,1,,,,,,,,,,,,,,,,,,,,,,,,,,,,,,,,,,,,,,,
,,,,,,,,2023-08-16_08h51.54.697,HF_wild_card,2022.2.4,Win32,60.27364234,5ef660beebde2833d8492e58,64d2fd46c836a06233681665,64dc7f24b4214cff76e6c109,,,,,,,decisionTrl,resources/DBN.BMP,resources/DG.BMP,Door4,-0.416666667,-0.0074074,1,0,0,0.5706,optionLeft,80,6130,3,32,0,32,0,1,,,,,,,,,,,,,,,,,,,,,,,,,,,,,,,,,,,,,,,
,,,,,,,,2023-08-16_08h51.54.697,HF_wild_card,2022.2.4,Win32,60.27364234,5ef660beebde2833d8492e58,64d2fd46c836a06233681665,64dc7f24b4214cff76e6c109,,,,,,,ctch,resources/DBN.BMP,resources/DB.BMP,Door4,-0.273148148,-0.010185206,1,0,0,0.6177,optionLeft,60,6190,3,33,0,33,0,1,,,,,,,,,,,,,,,,,,,,,,,,,,,,,,,,,,,,,,,
,,,,,,,,2023-08-16_08h51.54.697,HF_wild_card,2022.2.4,Win32,60.27364234,5ef660beebde2833d8492e58,64d2fd46c836a06233681665,64dc7f24b4214cff76e6c109,,,,,,,ctch,resources/DP.BMP,resources/DR.BMP,Door3,-0.357407393,-0.002777771,1,0,0,1.4963,optionLeft,70,6260,3,34,0,34,0,1,,,,,,,,,,,,,,,,,,,,,,,,,,,,,,,,,,,,,,,
,,,,,,,,2023-08-16_08h51.54.697,HF_wild_card,2022.2.4,Win32,60.27364234,5ef660beebde2833d8492e58,64d2fd46c836a06233681665,64dc7f24b4214cff76e6c109,,,,,,,ctch,resources/DB.BMP,resources/DBN.BMP,Door4,0.171296296,0.009259259,1,0,0,1.0756,optionRight,80,6340,3,35,0,35,0,1,,,,,,,,,,,,,,,,,,,,,,,,,,,,,,,,,,,,,,,
,,,,,,,,2023-08-16_08h51.54.697,HF_wild_card,2022.2.4,Win32,60.27364234,5ef660beebde2833d8492e58,64d2fd46c836a06233681665,64dc7f24b4214cff76e6c109,,,,,,,decisionTrl,resources/DG.BMP,resources/DP.BMP,Door3,0.27870369,-0.008333347,1,0,0,1.0768,optionRight,70,6410,3,36,0,36,0,1,,,,,,,,,,,,,,,,,,,,,,,,,,,,,,,,,,,,,,,
,,,,,,,,2023-08-16_08h51.54.697,HF_wild_card,2022.2.4,Win32,60.27364234,5ef660beebde2833d8492e58,64d2fd46c836a06233681665,64dc7f24b4214cff76e6c109,,,,,,,sngl,resources/Empty.png,resources/DB.BMP,Door1,0.210185228,0.022222201,1,0,0,0.6672,optionRight,30,6440,3,37,0,37,0,1,,,,,,,,,,,,,,,,,,,,,,,,,,,,,,,,,,,,,,,
,,,,,,,,2023-08-16_08h51.54.697,HF_wild_card,2022.2.4,Win32,60.27364234,5ef660beebde2833d8492e58,64d2fd46c836a06233681665,64dc7f24b4214cff76e6c109,,,,,,,decisionTrl,resources/DG.BMP,resources/DBN.BMP,Door4,0.25462963,0.002777771,1,0,0,0.6063,optionRight,80,6520,3,38,0,38,0,1,,,,,,,,,,,,,,,,,,,,,,,,,,,,,,,,,,,,,,,
,,,,,,,,2023-08-16_08h51.54.697,HF_wild_card,2022.2.4,Win32,60.27364234,5ef660beebde2833d8492e58,64d2fd46c836a06233681665,64dc7f24b4214cff76e6c109,,,,,,,sngl,resources/Empty.png,resources/DP.BMP,Door3,0.482407464,0.005555541,1,0,0,0.4998,optionRight,70,6590,3,39,0,39,0,1,,,,,,,,,,,,,,,,,,,,,,,,,,,,,,,,,,,,,,,
,,,,,,,,2023-08-16_08h51.54.697,HF_wild_card,2022.2.4,Win32,60.27364234,5ef660beebde2833d8492e58,64d2fd46c836a06233681665,64dc7f24b4214cff76e6c109,,,,,,,decisionTrl,resources/DP.BMP,resources/DBN.BMP,Door4,0.178703732,-0.001851859,1,0,0,0.6229,optionRight,60,6650,3,40,0,40,0,1,,,,,,,,,,,,,,,,,,,,,,,,,,,,,,,,,,,,,,,
,,,,,,,,2023-08-16_08h51.54.697,HF_wild_card,2022.2.4,Win32,60.27364234,5ef660beebde2833d8492e58,64d2fd46c836a06233681665,64dc7f24b4214cff76e6c109,,,,,,,decisionTrl,resources/DR.BMP,resources/DB.BMP,Door1,0.417592649,0.012962942,1,0,0,1.1622,optionRight,30,6680,3,41,0,41,0,1,,,,,,,,,,,,,,,,,,,,,,,,,,,,,,,,,,,,,,,
,,,,,,,,2023-08-16_08h51.54.697,HF_wild_card,2022.2.4,Win32,60.27364234,5ef660beebde2833d8492e58,64d2fd46c836a06233681665,64dc7f24b4214cff76e6c109,,,,,,,sngl,resources/DR.BMP,resources/Empty.png,Door2,-0.199074074,-0.010185206,1,0,0,0.5908,optionLeft,40,6720,3,42,0,42,0,1,,,,,,,,,,,,,,,,,,,,,,,,,,,,,,,,,,,,,,,
,,,,,,,,2023-08-16_08h51.54.697,HF_wild_card,2022.2.4,Win32,60.27364234,5ef660beebde2833d8492e58,64d2fd46c836a06233681665,64dc7f24b4214cff76e6c109,,,,,,,decisionTrl,resources/DB.BMP,resources/DR.BMP,Door1,-0.542592578,0.030555548,1,0,0,1.7919,optionLeft,30,6750,3,43,0,43,0,1,,,,,,,,,,,,,,,,,,,,,,,,,,,,,,,,,,,,,,,
,,,,,,,,2023-08-16_08h51.54.697,HF_wild_card,2022.2.4,Win32,60.27364234,5ef660beebde2833d8492e58,64d2fd46c836a06233681665,64dc7f24b4214cff76e6c109,,,,,,,,,,,,,,,,,,,,,,,,,,2,0,2,0,1,,,,,,,,,,,,,,,,,,,,,,,,,,,,,,,,,,
,,,,,,,,2023-08-16_08h51.54.697,HF_wild_card,2022.2.4,Win32,60.27364234,5ef660beebde2833d8492e58,64d2fd46c836a06233681665,64dc7f24b4214cff76e6c109,,,,,,,decisionTrl,resources/DY.BMP,resources/DBN.BMP,WildCard_NonEx,-0.396296289,0.01944443,1,0,0,1.1169,optionLeft,55,6805,4,0,0,0,0,1,,,,,,,,,,,,,,,,,,,,,,,,,,,,,,,,,,,,,,,
,,,,,,,,2023-08-16_08h51.54.697,HF_wild_card,2022.2.4,Win32,60.27364234,5ef660beebde2833d8492e58,64d2fd46c836a06233681665,64dc7f24b4214cff76e6c109,,,,,,,decisionTrl,resources/DP.BMP,resources/DBN.BMP,Door4,0.24537037,0.01203703,1,0,0,0.8842,optionRight,60,6865,4,1,0,1,0,1,,,,,,,,,,,,,,,,,,,,,,,,,,,,,,,,,,,,,,,
,,,,,,,,2023-08-16_08h51.54.697,HF_wild_card,2022.2.4,Win32,60.27364234,5ef660beebde2833d8492e58,64d2fd46c836a06233681665,64dc7f24b4214cff76e6c109,,,,,,,sngl,resources/DP.BMP,resources/Empty.png,Door3,-0.215740698,0.008333312,1,0,0,0.6268,optionLeft,70,6935,4,2,0,2,0,1,,,,,,,,,,,,,,,,,,,,,,,,,,,,,,,,,,,,,,,
,,,,,,,,2023-08-16_08h51.54.697,HF_wild_card,2022.2.4,Win32,60.27364234,5ef660beebde2833d8492e58,64d2fd46c836a06233681665,64dc7f24b4214cff76e6c109,,,,,,,decisionTrl,resources/DY.BMP,resources/DB.BMP,WildCard_NonEx,-0.355555534,-0.008333347,1,0,0,0.8993,optionLeft,45,6980,4,3,0,3,0,1,,,,,,,,,,,,,,,,,,,,,,,,,,,,,,,,,,,,,,,
,,,,,,,,2023-08-16_08h51.54.697,HF_wild_card,2022.2.4,Win32,60.27364234,5ef660beebde2833d8492e58,64d2fd46c836a06233681665,64dc7f24b4214cff76e6c109,,,,,,,ctch,resources/DB.BMP,resources/DBN.BMP,Door4,0.223148134,0.006481489,1,0,0,0.7786,optionRight,60,7040,4,4,0,4,0,1,,,,,,,,,,,,,,,,,,,,,,,,,,,,,,,,,,,,,,,
,,,,,,,,2023-08-16_08h51.54.697,HF_wild_card,2022.2.4,Win32,60.27364234,5ef660beebde2833d8492e58,64d2fd46c836a06233681665,64dc7f24b4214cff76e6c109,,,,,,,decisionTrl,resources/DB.BMP,resources/DR.BMP,Door1,-0.209259245,0.018518519,1,0,0,1.3197,optionLeft,30,7070,4,5,0,5,0,1,,,,,,,,,,,,,,,,,,,,,,,,,,,,,,,,,,,,,,,
,,,,,,,,2023-08-16_08h51.54.697,HF_wild_card,2022.2.4,Win32,60.27364234,5ef660beebde2833d8492e58,64d2fd46c836a06233681665,64dc7f24b4214cff76e6c109,,,,,,,decisionTrl,resources/DP.BMP,resources/DBN.BMP,Door4,0.262962977,0.013888889,1,0,0,0.7018,optionRight,60,7130,4,6,0,6,0,1,,,,,,,,,,,,,,,,,,,,,,,,,,,,,,,,,,,,,,,
,,,,,,,,2023-08-16_08h51.54.697,HF_wild_card,2022.2.4,Win32,60.27364234,5ef660beebde2833d8492e58,64d2fd46c836a06233681665,64dc7f24b4214cff76e6c109,,,,,,,decisionTrl,resources/DBN.BMP,resources/DP.BMP,Door4,-0.190740727,-0.012962977,1,0,0,0.7482,optionLeft,60,7190,4,7,0,7,0,1,,,,,,,,,,,,,,,,,,,,,,,,,,,,,,,,,,,,,,,
,,,,,,,,2023-08-16_08h51.54.697,HF_wild_card,2022.2.4,Win32,60.27364234,5ef660beebde2833d8492e58,64d2fd46c836a06233681665,64dc7f24b4214cff76e6c109,,,,,,,sngl,resources/Empty.png,resources/DP.BMP,Door3,0.336111139,0.008333312,1,0,0,0.5682,optionRight,70,7260,4,8,0,8,0,1,,,,,,,,,,,,,,,,,,,,,,,,,,,,,,,,,,,,,,,
,,,,,,,,2023-08-16_08h51.54.697,HF_wild_card,2022.2.4,Win32,60.27364234,5ef660beebde2833d8492e58,64d2fd46c836a06233681665,64dc7f24b4214cff76e6c109,,,,,,,sngl,resources/DY.BMP,resources/Empty.png,WildCard_NonEx,-0.184259273,-0.005555577,1,0,0,0.6052,optionLeft,45,7305,4,9,0,9,0,1,,,,,,,,,,,,,,,,,,,,,,,,,,,,,,,,,,,,,,,
,,,,,,,,2023-08-16_08h51.54.697,HF_wild_card,2022.2.4,Win32,60.27364234,5ef660beebde2833d8492e58,64d2fd46c836a06233681665,64dc7f24b4214cff76e6c109,,,,,,,decisionTrl,resources/DR.BMP,resources/DB.BMP,Door1,0.382407436,0.050925926,1,0,0,0.9202,optionRight,30,7335,4,10,0,10,0,1,,,,,,,,,,,,,,,,,,,,,,,,,,,,,,,,,,,,,,,
,,,,,,,,2023-08-16_08h51.54.697,HF_wild_card,2022.2.4,Win32,60.27364234,5ef660beebde2833d8492e58,64d2fd46c836a06233681665,64dc7f24b4214cff76e6c109,,,,,,,ctch,resources/DBN.BMP,resources/DB.BMP,Door4,-0.395370377,0.023148148,1,0,0,1.0797,optionLeft,80,7415,4,11,0,11,0,1,,,,,,,,,,,,,,,,,,,,,,,,,,,,,,,,,,,,,,,
,,,,,,,,2023-08-16_08h51.54.697,HF_wild_card,2022.2.4,Win32,60.27364234,5ef660beebde2833d8492e58,64d2fd46c836a06233681665,64dc7f24b4214cff76e6c109,,,,,,,decisionTrl,resources/DY.BMP,resources/DP.BMP,Door3,0.259259259,0,1,0,0,1.5159,optionRight,70,7485,4,12,0,12,0,1,,,,,,,,,,,,,,,,,,,,,,,,,,,,,,,,,,,,,,,
,,,,,,,,2023-08-16_08h51.54.697,HF_wild_card,2022.2.4,Win32,60.27364234,5ef660beebde2833d8492e58,64d2fd46c836a06233681665,64dc7f24b4214cff76e6c109,,,,,,,sngl,resources/Empty.png,resources/DB.BMP,Door1,0.420370455,0.002777771,1,0,0,0.568,optionRight,30,7515,4,13,0,13,0,1,,,,,,,,,,,,,,,,,,,,,,,,,,,,,,,,,,,,,,,
,,,,,,,,2023-08-16_08h51.54.697,HF_wild_card,2022.2.4,Win32,60.27364234,5ef660beebde2833d8492e58,64d2fd46c836a06233681665,64dc7f24b4214cff76e6c109,,,,,,,sngl,resources/DR.BMP,resources/Empty.png,Door2,-0.262962977,-0.017592607,1,0,0,0.4918,optionLeft,20,7535,4,14,0,14,0,1,,,,,,,,,,,,,,,,,,,,,,,,,,,,,,,,,,,,,,,
,,,,,,,,2023-08-16_08h51.54.697,HF_wild_card,2022.2.4,Win32,60.27364234,5ef660beebde2833d8492e58,64d2fd46c836a06233681665,64dc7f24b4214cff76e6c109,,,,,,,ctch,resources/DB.BMP,resources/DBN.BMP,Door4,0.265740783,-0.000925947,1,0,0,0.5062,optionRight,80,7615,4,15,0,15,0,1,,,,,,,,,,,,,,,,,,,,,,,,,,,,,,,,,,,,,,,
,,,,,,,,2023-08-16_08h51.54.697,HF_wild_card,2022.2.4,Win32,60.27364234,5ef660beebde2833d8492e58,64d2fd46c836a06233681665,64dc7f24b4214cff76e6c109,,,,,,,decisionTrl,resources/DY.BMP,resources/DR.BMP,WildCard_NonEx,-0.40648146,-0.030555548,1,0,0,1.3398,optionLeft,55,7670,4,16,0,16,0,1,,,,,,,,,,,,,,,,,,,,,,,,,,,,,,,,,,,,,,,
,,,,,,,,2023-08-16_08h51.54.697,HF_wild_card,2022.2.4,Win32,60.27364234,5ef660beebde2833d8492e58,64d2fd46c836a06233681665,64dc7f24b4214cff76e6c109,,,,,,,ctch,resources/DBN.BMP,resources/DB.BMP,Door4,-0.149999972,-0.000925947,1,0,0,0.591,optionLeft,60,7730,4,17,0,17,0,1,,,,,,,,,,,,,,,,,,,,,,,,,,,,,,,,,,,,,,,
,,,,,,,,2023-08-16_08h51.54.697,HF_wild_card,2022.2.4,Win32,60.27364234,5ef660beebde2833d8492e58,64d2fd46c836a06233681665,64dc7f24b4214cff76e6c109,,,,,,,decisionTrl,resources/DB.BMP,resources/DR.BMP,Door1,-0.235185199,-0.006481489,1,0,0,1.3968,optionLeft,30,7760,4,18,0,18,0,1,,,,,,,,,,,,,,,,,,,,,,,,,,,,,,,,,,,,,,,
,,,,,,,,2023-08-16_08h51.54.697,HF_wild_card,2022.2.4,Win32,60.27364234,5ef660beebde2833d8492e58,64d2fd46c836a06233681665,64dc7f24b4214cff76e6c109,,,,,,,sngl,resources/Empty.png,resources/DR.BMP,Door2,0.183333362,0.006481489,1,0,0,0.8289,optionRight,40,7800,4,19,0,19,0,1,,,,,,,,,,,,,,,,,,,,,,,,,,,,,,,,,,,,,,,
,,,,,,,,2023-08-16_08h51.54.697,HF_wild_card,2022.2.4,Win32,60.27364234,5ef660beebde2833d8492e58,64d2fd46c836a06233681665,64dc7f24b4214cff76e6c109,,,,,,,sngl,resources/DBN.BMP,resources/Empty.png,Door4,-0.334259245,-0.005555577,1,0,0,0.4887,optionLeft,60,7860,4,20,0,20,0,1,,,,,,,,,,,,,,,,,,,,,,,,,,,,,,,,,,,,,,,
,,,,,,,,2023-08-16_08h51.54.697,HF_wild_card,2022.2.4,Win32,60.27364234,5ef660beebde2833d8492e58,64d2fd46c836a06233681665,64dc7f24b4214cff76e6c109,,,,,,,sngl,resources/DY.BMP,resources/Empty.png,WildCard_NonEx,-0.39444443,-0.015740748,1,0,0,0.4828,optionLeft,55,7915,4,21,0,21,0,1,,,,,,,,,,,,,,,,,,,,,,,,,,,,,,,,,,,,,,,
,,,,,,,,2023-08-16_08h51.54.697,HF_wild_card,2022.2.4,Win32,60.27364234,5ef660beebde2833d8492e58,64d2fd46c836a06233681665,64dc7f24b4214cff76e6c109,,,,,,,decisionTrl,resources/DBN.BMP,resources/DP.BMP,Door4,-0.267592607,-0.00462963,1,0,0,1.3181,optionLeft,60,7975,4,22,0,22,0,1,,,,,,,,,,,,,,,,,,,,,,,,,,,,,,,,,,,,,,,
,,,,,,,,2023-08-16_08h51.54.697,HF_wild_card,2022.2.4,Win32,60.27364234,5ef660beebde2833d8492e58,64d2fd46c836a06233681665,64dc7f24b4214cff76e6c109,,,,,,,sngl,resources/DB.BMP,resources/Empty.png,Door1,-0.408333319,-0.022222236,1,0,0,0.5056,optionLeft,30,8005,4,23,0,23,0,1,,,,,,,,,,,,,,,,,,,,,,,,,,,,,,,,,,,,,,,
,,,,,,,,2023-08-16_08h51.54.697,HF_wild_card,2022.2.4,Win32,60.27364234,5ef660beebde2833d8492e58,64d2fd46c836a06233681665,64dc7f24b4214cff76e6c109,,,,,,,ctch,resources/DP.BMP,resources/DR.BMP,Door3,-0.435185185,0.008333312,1,0,0,1.2568,optionLeft,70,8075,4,24,0,24,0,1,,,,,,,,,,,,,,,,,,,,,,,,,,,,,,,,,,,,,,,
,,,,,,,,2023-08-16_08h51.54.697,HF_wild_card,2022.2.4,Win32,60.27364234,5ef660beebde2833d8492e58,64d2fd46c836a06233681665,64dc7f24b4214cff76e6c109,,,,,,,ctch,resources/DR.BMP,resources/DP.BMP,Door3,0.213888875,0.00462963,1,0,0,1.5017,optionRight,70,8145,4,25,0,25,0,1,,,,,,,,,,,,,,,,,,,,,,,,,,,,,,,,,,,,,,,
,,,,,,,,2023-08-16_08h51.54.697,HF_wild_card,2022.2.4,Win32,60.27364234,5ef660beebde2833d8492e58,64d2fd46c836a06233681665,64dc7f24b4214cff76e6c109,,,,,,,decisionTrl,resources/DP.BMP,resources/DBN.BMP,Door4,0.173148191,0.009259259,1,0,0,0.8034,optionRight,60,8205,4,26,0,26,0,1,,,,,,,,,,,,,,,,,,,,,,,,,,,,,,,,,,,,,,,
,,,,,,,,2023-08-16_08h51.54.697,HF_wild_card,2022.2.4,Win32,60.27364234,5ef660beebde2833d8492e58,64d2fd46c836a06233681665,64dc7f24b4214cff76e6c109,,,,,,,decisionTrl,resources/DP.BMP,resources/DBN.BMP,Door3,-0.445370356,-0.026851866,1,0,0,0.9166,optionLeft,70,8275,4,27,0,27,0,1,,,,,,,,,,,,,,,,,,,,,,,,,,,,,,,,,,,,,,,
,,,,,,,,2023-08-16_08h51.54.697,HF_wild_card,2022.2.4,Win32,60.27364234,5ef660beebde2833d8492e58,64d2fd46c836a06233681665,64dc7f24b4214cff76e6c109,,,,,,,decisionTrl,resources/DBN.BMP,resources/DY.BMP,Door4,-0.538888896,-0.011111118,1,0,0,1.3361,optionLeft,60,8335,4,28,0,28,0,1,,,,,,,,,,,,,,,,,,,,,,,,,,,,,,,,,,,,,,,
,,,,,,,,2023-08-16_08h51.54.697,HF_wild_card,2022.2.4,Win32,60.27364234,5ef660beebde2833d8492e58,64d2fd46c836a06233681665,64dc7f24b4214cff76e6c109,,,,,,,decisionTrl,resources/DP.BMP,resources/DY.BMP,Door3,-0.545370349,-0.051851873,1,0,0,1.7112,optionLeft,70,8405,4,29,0,29,0,1,,,,,,,,,,,,,,,,,,,,,,,,,,,,,,,,,,,,,,,
,,,,,,,,2023-08-16_08h51.54.697,HF_wild_card,2022.2.4,Win32,60.27364234,5ef660beebde2833d8492e58,64d2fd46c836a06233681665,64dc7f24b4214cff76e6c109,,,,,,,decisionTrl,resources/DB.BMP,resources/DR.BMP,Door1,-0.5074074,-0.019444466,1,0,0,1.1713,optionLeft,30,8435,4,30,0,30,0,1,,,,,,,,,,,,,,,,,,,,,,,,,,,,,,,,,,,,,,,
,,,,,,,,2023-08-16_08h51.54.697,HF_wild_card,2022.2.4,Win32,60.27364234,5ef660beebde2833d8492e58,64d2fd46c836a06233681665,64dc7f24b4214cff76e6c109,,,,,,,ctch,resources/DR.BMP,resources/DP.BMP,Door3,0.222222222,0.017592571,1,0,0,0.8741,optionRight,70,8505,4,31,0,31,0,1,,,,,,,,,,,,,,,,,,,,,,,,,,,,,,,,,,,,,,,
,,,,,,,,2023-08-16_08h51.54.697,HF_wild_card,2022.2.4,Win32,60.27364234,5ef660beebde2833d8492e58,64d2fd46c836a06233681665,64dc7f24b4214cff76e6c109,,,,,,,decisionTrl,resources/DB.BMP,resources/DR.BMP,Door1,-0.206481439,-0.025925919,1,0,0,0.7371,optionLeft,30,8535,4,32,0,32,0,1,,,,,,,,,,,,,,,,,,,,,,,,,,,,,,,,,,,,,,,
,,,,,,,,2023-08-16_08h51.54.697,HF_wild_card,2022.2.4,Win32,60.27364234,5ef660beebde2833d8492e58,64d2fd46c836a06233681665,64dc7f24b4214cff76e6c109,,,,,,,decisionTrl,resources/DR.BMP,resources/DB.BMP,Door1,0.253703718,0.0074074,1,0,0,0.8874,optionRight,30,8565,4,33,0,33,0,1,,,,,,,,,,,,,,,,,,,,,,,,,,,,,,,,,,,,,,,
,,,,,,,,2023-08-16_08h51.54.697,HF_wild_card,2022.2.4,Win32,60.27364234,5ef660beebde2833d8492e58,64d2fd46c836a06233681665,64dc7f24b4214cff76e6c109,,,,,,,sngl,resources/Empty.png,resources/DY.BMP,WildCard_NonEx,0.404629601,-0.012962977,1,0,0,0.608,optionRight,45,8610,4,34,0,34,0,1,,,,,,,,,,,,,,,,,,,,,,,,,,,,,,,,,,,,,,,
,,,,,,,,2023-08-16_08h51.54.697,HF_wild_card,2022.2.4,Win32,60.27364234,5ef660beebde2833d8492e58,64d2fd46c836a06233681665,64dc7f24b4214cff76e6c109,,,,,,,decisionTrl,resources/DBN.BMP,resources/DP.BMP,Door3,0.429629714,0.011111118,1,0,0,1.2724,optionRight,70,8680,4,35,0,35,0,1,,,,,,,,,,,,,,,,,,,,,,,,,,,,,,,,,,,,,,,
,,,,,,,,2023-08-16_08h51.54.697,HF_wild_card,2022.2.4,Win32,60.27364234,5ef660beebde2833d8492e58,64d2fd46c836a06233681665,64dc7f24b4214cff76e6c109,,,,,,,ctch,resources/DP.BMP,resources/DR.BMP,Door3,-0.311111097,-0.003703718,1,0,0,0.5965,optionLeft,70,8750,4,36,0,36,0,1,,,,,,,,,,,,,,,,,,,,,,,,,,,,,,,,,,,,,,,
,,,,,,,,2023-08-16_08h51.54.697,HF_wild_card,2022.2.4,Win32,60.27364234,5ef660beebde2833d8492e58,64d2fd46c836a06233681665,64dc7f24b4214cff76e6c109,,,,,,,decisionTrl,resources/DR.BMP,resources/DB.BMP,Door1,0.314814815,0.032407407,1,0,0,1.3464,optionRight,30,8780,4,37,0,37,0,1,,,,,,,,,,,,,,,,,,,,,,,,,,,,,,,,,,,,,,,
,,,,,,,,2023-08-16_08h51.54.697,HF_wild_card,2022.2.4,Win32,60.27364234,5ef660beebde2833d8492e58,64d2fd46c836a06233681665,64dc7f24b4214cff76e6c109,,,,,,,decisionTrl,resources/DR.BMP,resources/DB.BMP,Door1,0.513888889,0.042592578,1,0,0,0.8476,optionRight,30,8810,4,38,0,38,0,1,,,,,,,,,,,,,,,,,,,,,,,,,,,,,,,,,,,,,,,
,,,,,,,,2023-08-16_08h51.54.697,HF_wild_card,2022.2.4,Win32,60.27364234,5ef660beebde2833d8492e58,64d2fd46c836a06233681665,64dc7f24b4214cff76e6c109,,,,,,,decisionTrl,resources/DBN.BMP,resources/DP.BMP,Door3,0.527777778,0.047222208,1,0,0,1.2107,optionRight,70,8880,4,39,0,39,0,1,,,,,,,,,,,,,,,,,,,,,,,,,,,,,,,,,,,,,,,
,,,,,,,,2023-08-16_08h51.54.697,HF_wild_card,2022.2.4,Win32,60.27364234,5ef660beebde2833d8492e58,64d2fd46c836a06233681665,64dc7f24b4214cff76e6c109,,,,,,,sngl,resources/Empty.png,resources/DY.BMP,WildCard_NonEx,0.068518533,-0.011111118,1,0,0,0.6248,optionRight,55,8935,4,40,0,40,0,1,,,,,,,,,,,,,,,,,,,,,,,,,,,,,,,,,,,,,,,
,,,,,,,,2023-08-16_08h51.54.697,HF_wild_card,2022.2.4,Win32,60.27364234,5ef660beebde2833d8492e58,64d2fd46c836a06233681665,64dc7f24b4214cff76e6c109,,,,,,,sngl,resources/Empty.png,resources/DBN.BMP,Door4,0.330555527,-0.002777771,1,0,0,1.4802,optionRight,80,9015,4,41,0,41,0,1,,,,,,,,,,,,,,,,,,,,,,,,,,,,,,,,,,,,,,,
,,,,,,,,2023-08-16_08h51.54.697,HF_wild_card,2022.2.4,Win32,60.27364234,5ef660beebde2833d8492e58,64d2fd46c836a06233681665,64dc7f24b4214cff76e6c109,,,,,,,decisionTrl,resources/DB.BMP,resources/DY.BMP,WildCard_NonEx,0.216666681,-0.003703718,1,0,0,1.2445,optionRight,45,9060,4,42,0,42,0,1,,,,,,,,,,,,,,,,,,,,,,,,,,,,,,,,,,,,,,,
,,,,,,,,2023-08-16_08h51.54.697,HF_wild_card,2022.2.4,Win32,60.27364234,5ef660beebde2833d8492e58,64d2fd46c836a06233681665,64dc7f24b4214cff76e6c109,,,,,,,decisionTrl,resources/DR.BMP,resources/DY.BMP,WildCard_NonEx,0.292592578,0.003703683,1,0,0,0.8267,optionRight,55,9115,4,43,0,43,0,1,,,,,,,,,,,,,,,,,,,,,,,,,,,,,,,,,,,,,,,
,,,,,,,,2023-08-16_08h51.54.697,HF_wild_card,2022.2.4,Win32,60.27364234,5ef660beebde2833d8492e58,64d2fd46c836a06233681665,64dc7f24b4214cff76e6c109,,,,,,,,,,,,,,,,,,,,,,,,,,3,0,3,0,1,,,,,,,,,,,,,,,,,,,,,,,,,,,,,,,,,,
,,,,,,,,2023-08-16_08h51.54.697,HF_wild_card,2022.2.4,Win32,60.27364234,5ef660beebde2833d8492e58,64d2fd46c836a06233681665,64dc7f24b4214cff76e6c109,,,,,,,sngl,resources/Empty.png,resources/DR.BMP,Door2,0.339814787,-0.055555556,1,0,0,0.5966,optionRight,20,9135,5,0,0,0,0,1,,,,,,,,,,,,,,,,,,,,,,,,,,,,,,,,,,,,,,,
,,,,,,,,2023-08-16_08h51.54.697,HF_wild_card,2022.2.4,Win32,60.27364234,5ef660beebde2833d8492e58,64d2fd46c836a06233681665,64dc7f24b4214cff76e6c109,,,,,,,decisionTrl,resources/DR.BMP,resources/DB.BMP,Door1,0.409259231,0.01944443,1,0,0,1.0501,optionRight,30,9165,5,1,0,1,0,1,,,,,,,,,,,,,,,,,,,,,,,,,,,,,,,,,,,,,,,
,,,,,,,,2023-08-16_08h51.54.697,HF_wild_card,2022.2.4,Win32,60.27364234,5ef660beebde2833d8492e58,64d2fd46c836a06233681665,64dc7f24b4214cff76e6c109,,,,,,,decisionTrl,resources/DP.BMP,resources/DBN.BMP,Door4,0.248148176,0.01944443,1,0,0,0.6282,optionRight,60,9225,5,2,0,2,0,1,,,,,,,,,,,,,,,,,,,,,,,,,,,,,,,,,,,,,,,
,,,,,,,,2023-08-16_08h51.54.697,HF_wild_card,2022.2.4,Win32,60.27364234,5ef660beebde2833d8492e58,64d2fd46c836a06233681665,64dc7f24b4214cff76e6c109,,,,,,,decisionTrl,resources/DBN.BMP,resources/DP.BMP,Door3,0.252777806,0.005555541,1,0,0,0.7005,optionRight,70,9295,5,3,0,3,0,1,,,,,,,,,,,,,,,,,,,,,,,,,,,,,,,,,,,,,,,
,,,,,,,,2023-08-16_08h51.54.697,HF_wild_card,2022.2.4,Win32,60.27364234,5ef660beebde2833d8492e58,64d2fd46c836a06233681665,64dc7f24b4214cff76e6c109,,,,,,,sngl,resources/DBN.BMP,resources/Empty.png,Door4,-0.484259252,-0.025925919,1,0,0,0.5985,optionLeft,80,9375,5,4,0,4,0,1,,,,,,,,,,,,,,,,,,,,,,,,,,,,,,,,,,,,,,,
,,,,,,,,2023-08-16_08h51.54.697,HF_wild_card,2022.2.4,Win32,60.27364234,5ef660beebde2833d8492e58,64d2fd46c836a06233681665,64dc7f24b4214cff76e6c109,,,,,,,sngl,resources/DY.BMP,resources/Empty.png,WildCard_NonEx,-0.3675926,-0.012962977,1,0,0,0.4971,optionLeft,45,9420,5,5,0,5,0,1,,,,,,,,,,,,,,,,,,,,,,,,,,,,,,,,,,,,,,,
,,,,,,,,2023-08-16_08h51.54.697,HF_wild_card,2022.2.4,Win32,60.27364234,5ef660beebde2833d8492e58,64d2fd46c836a06233681665,64dc7f24b4214cff76e6c109,,,,,,,sngl,resources/Empty.png,resources/DY.BMP,WildCard_NonEx,0.466666751,0.054629608,1,0,0,0.5132,optionRight,45,9465,5,6,0,6,0,1,,,,,,,,,,,,,,,,,,,,,,,,,,,,,,,,,,,,,,,
,,,,,,,,2023-08-16_08h51.54.697,HF_wild_card,2022.2.4,Win32,60.27364234,5ef660beebde2833d8492e58,64d2fd46c836a06233681665,64dc7f24b4214cff76e6c109,,,,,,,decisionTrl,resources/DP.BMP,resources/DBN.BMP,Door3,-0.253703718,0.003703683,1,0,0,0.9615,optionLeft,70,9535,5,7,0,7,0,1,,,,,,,,,,,,,,,,,,,,,,,,,,,,,,,,,,,,,,,
,,,,,,,,2023-08-16_08h51.54.697,HF_wild_card,2022.2.4,Win32,60.27364234,5ef660beebde2833d8492e58,64d2fd46c836a06233681665,64dc7f24b4214cff76e6c109,,,,,,,decisionTrl,resources/DP.BMP,resources/DBN.BMP,Door3,-0.175925926,0,1,0,0,0.6305,optionLeft,70,9605,5,8,0,8,0,1,,,,,,,,,,,,,,,,,,,,,,,,,,,,,,,,,,,,,,,
,,,,,,,,2023-08-16_08h51.54.697,HF_wild_card,2022.2.4,Win32,60.27364234,5ef660beebde2833d8492e58,64d2fd46c836a06233681665,64dc7f24b4214cff76e6c109,,,,,,,ctch,resources/DB.BMP,resources/DBN.BMP,Door4,0.612962935,0.00462963,1,0,0,0.8453,optionRight,60,9665,5,9,0,9,0,1,,,,,,,,,,,,,,,,,,,,,,,,,,,,,,,,,,,,,,,
,,,,,,,,2023-08-16_08h51.54.697,HF_wild_card,2022.2.4,Win32,60.27364234,5ef660beebde2833d8492e58,64d2fd46c836a06233681665,64dc7f24b4214cff76e6c109,,,,,,,ctch,resources/DBN.BMP,resources/DB.BMP,Door4,-0.306481467,0.018518519,1,0,0,1.0312,optionLeft,80,9745,5,10,0,10,0,1,,,,,,,,,,,,,,,,,,,,,,,,,,,,,,,,,,,,,,,
,,,,,,,,2023-08-16_08h51.54.697,HF_wild_card,2022.2.4,Win32,60.27364234,5ef660beebde2833d8492e58,64d2fd46c836a06233681665,64dc7f24b4214cff76e6c109,,,,,,,decisionTrl,resources/DBN.BMP,resources/DP.BMP,Door4,-0.255555541,0.00462963,1,0,0,0.9102,optionLeft,80,9825,5,11,0,11,0,1,,,,,,,,,,,,,,,,,,,,,,,,,,,,,,,,,,,,,,,
,,,,,,,,2023-08-16_08h51.54.697,HF_wild_card,2022.2.4,Win32,60.27364234,5ef660beebde2833d8492e58,64d2fd46c836a06233681665,64dc7f24b4214cff76e6c109,,,,,,,decisionTrl,resources/DR.BMP,resources/DB.BMP,Door1,0.40370376,0.008333312,1,0,0,0.8457,optionRight,30,9855,5,12,0,12,0,1,,,,,,,,,,,,,,,,,,,,,,,,,,,,,,,,,,,,,,,
,,,,,,,,2023-08-16_08h51.54.697,HF_wild_card,2022.2.4,Win32,60.27364234,5ef660beebde2833d8492e58,64d2fd46c836a06233681665,64dc7f24b4214cff76e6c109,,,,,,,decisionTrl,resources/DY.BMP,resources/DR.BMP,WildCard_NonEx,-0.268518519,-0.000925947,1,0,0,1.0454,optionLeft,45,9900,5,13,0,13,0,1,,,,,,,,,,,,,,,,,,,,,,,,,,,,,,,,,,,,,,,
,,,,,,,,2023-08-16_08h51.54.697,HF_wild_card,2022.2.4,Win32,60.27364234,5ef660beebde2833d8492e58,64d2fd46c836a06233681665,64dc7f24b4214cff76e6c109,,,,,,,decisionTrl,resources/DBN.BMP,resources/DP.BMP,Door3,0.758333418,-0.009259259,1,0,0,0.9954,optionRight,70,9970,5,14,0,14,0,1,,,,,,,,,,,,,,,,,,,,,,,,,,,,,,,,,,,,,,,
,,,,,,,,2023-08-16_08h51.54.697,HF_wild_card,2022.2.4,Win32,60.27364234,5ef660beebde2833d8492e58,64d2fd46c836a06233681665,64dc7f24b4214cff76e6c109,,,,,,,sngl,resources/Empty.png,resources/DBN.BMP,Door4,0.316666638,0.012962942,1,0,0,0.5568,optionRight,60,10030,5,15,0,15,0,1,,,,,,,,,,,,,,,,,,,,,,,,,,,,,,,,,,,,,,,
,,,,,,,,2023-08-16_08h51.54.697,HF_wild_card,2022.2.4,Win32,60.27364234,5ef660beebde2833d8492e58,64d2fd46c836a06233681665,64dc7f24b4214cff76e6c109,,,,,,,decisionTrl,resources/DB.BMP,resources/DR.BMP,Door1,-0.206481439,0.01666666,1,0,0,1.2766,optionLeft,30,10060,5,16,0,16,0,1,,,,,,,,,,,,,,,,,,,,,,,,,,,,,,,,,,,,,,,
,,,,,,,,2023-08-16_08h51.54.697,HF_wild_card,2022.2.4,Win32,60.27364234,5ef660beebde2833d8492e58,64d2fd46c836a06233681665,64dc7f24b4214cff76e6c109,,,,,,,sngl,resources/DP.BMP,resources/Empty.png,Door3,-0.232407393,-0.006481489,1,0,0,0.5633,optionLeft,70,10130,5,17,0,17,0,1,,,,,,,,,,,,,,,,,,,,,,,,,,,,,,,,,,,,,,,
,,,,,,,,2023-08-16_08h51.54.697,HF_wild_card,2022.2.4,Win32,60.27364234,5ef660beebde2833d8492e58,64d2fd46c836a06233681665,64dc7f24b4214cff76e6c109,,,,,,,decisionTrl,resources/DR.BMP,resources/DB.BMP,Door1,0.238888917,0.029629637,1,0,0,0.8964,optionRight,30,10160,5,18,0,18,0,1,,,,,,,,,,,,,,,,,,,,,,,,,,,,,,,,,,,,,,,
,,,,,,,,2023-08-16_08h51.54.697,HF_wild_card,2022.2.4,Win32,60.27364234,5ef660beebde2833d8492e58,64d2fd46c836a06233681665,64dc7f24b4214cff76e6c109,,,,,,,ctch,resources/DR.BMP,resources/DP.BMP,Door3,0.267592607,-0.006481489,1,0,0,1.1069,optionRight,70,10230,5,19,0,19,0,1,,,,,,,,,,,,,,,,,,,,,,,,,,,,,,,,,,,,,,,
,,,,,,,,2023-08-16_08h51.54.697,HF_wild_card,2022.2.4,Win32,60.27364234,5ef660beebde2833d8492e58,64d2fd46c836a06233681665,64dc7f24b4214cff76e6c109,,,,,,,decisionTrl,resources/DBN.BMP,resources/DY.BMP,Door4,-0.194444444,0.005555541,1,0,0,0.8634,optionLeft,80,10310,5,20,0,20,0,1,,,,,,,,,,,,,,,,,,,,,,,,,,,,,,,,,,,,,,,
,,,,,,,,2023-08-16_08h51.54.697,HF_wild_card,2022.2.4,Win32,60.27364234,5ef660beebde2833d8492e58,64d2fd46c836a06233681665,64dc7f24b4214cff76e6c109,,,,,,,decisionTrl,resources/DY.BMP,resources/DB.BMP,WildCard_NonEx,-0.161111125,0.001851859,1,0,0,0.7606,optionLeft,55,10365,5,21,0,21,0,1,,,,,,,,,,,,,,,,,,,,,,,,,,,,,,,,,,,,,,,
,,,,,,,,2023-08-16_08h51.54.697,HF_wild_card,2022.2.4,Win32,60.27364234,5ef660beebde2833d8492e58,64d2fd46c836a06233681665,64dc7f24b4214cff76e6c109,,,,,,,decisionTrl,resources/DB.BMP,resources/DR.BMP,Door1,-0.162962949,-0.012962977,1,0,0,1.2956,optionLeft,30,10395,5,22,0,22,0,1,,,,,,,,,,,,,,,,,,,,,,,,,,,,,,,,,,,,,,,
,,,,,,,,2023-08-16_08h51.54.697,HF_wild_card,2022.2.4,Win32,60.27364234,5ef660beebde2833d8492e58,64d2fd46c836a06233681665,64dc7f24b4214cff76e6c109,,,,,,,ctch,resources/DP.BMP,resources/DR.BMP,Door3,-0.400925919,-0.003703718,1,0,0,0.9444,optionLeft,70,10465,5,23,0,23,0,1,,,,,,,,,,,,,,,,,,,,,,,,,,,,,,,,,,,,,,,
,,,,,,,,2023-08-16_08h51.54.697,HF_wild_card,2022.2.4,Win32,60.27364234,5ef660beebde2833d8492e58,64d2fd46c836a06233681665,64dc7f24b4214cff76e6c109,,,,,,,decisionTrl,resources/DY.BMP,resources/DBN.BMP,Door4,0.327777863,0.01944443,1,0,0,0.7796,optionRight,80,10545,5,24,0,24,0,1,,,,,,,,,,,,,,,,,,,,,,,,,,,,,,,,,,,,,,,
,,,,,,,,2023-08-16_08h51.54.697,HF_wild_card,2022.2.4,Win32,60.27364234,5ef660beebde2833d8492e58,64d2fd46c836a06233681665,64dc7f24b4214cff76e6c109,,,,,,,decisionTrl,resources/DY.BMP,resources/DP.BMP,Door3,0.471296381,0.012962942,1,0,0,1.5407,optionRight,70,10615,5,25,0,25,0,1,,,,,,,,,,,,,,,,,,,,,,,,,,,,,,,,,,,,,,,
,,,,,,,,2023-08-16_08h51.54.697,HF_wild_card,2022.2.4,Win32,60.27364234,5ef660beebde2833d8492e58,64d2fd46c836a06233681665,64dc7f24b4214cff76e6c109,,,,,,,sngl,resources/Empty.png,resources/DP.BMP,Door3,0.498148176,0.01203703,1,0,0,0.7001,optionRight,70,10685,5,26,0,26,0,1,,,,,,,,,,,,,,,,,,,,,,,,,,,,,,,,,,,,,,,
,,,,,,,,2023-08-16_08h51.54.697,HF_wild_card,2022.2.4,Win32,60.27364234,5ef660beebde2833d8492e58,64d2fd46c836a06233681665,64dc7f24b4214cff76e6c109,,,,,,,decisionTrl,resources/DP.BMP,resources/DBN.BMP,Door3,-0.202777792,-0.010185206,1,0,0,1.4222,optionLeft,70,10755,5,27,0,27,0,1,,,,,,,,,,,,,,,,,,,,,,,,,,,,,,,,,,,,,,,
,,,,,,,,2023-08-16_08h51.54.697,HF_wild_card,2022.2.4,Win32,60.27364234,5ef660beebde2833d8492e58,64d2fd46c836a06233681665,64dc7f24b4214cff76e6c109,,,,,,,ctch,resources/DP.BMP,resources/DR.BMP,Door3,-0.200925898,-0.01203703,1,0,0,0.708,optionLeft,70,10825,5,28,0,28,0,1,,,,,,,,,,,,,,,,,,,,,,,,,,,,,,,,,,,,,,,
,,,,,,,,2023-08-16_08h51.54.697,HF_wild_card,2022.2.4,Win32,60.27364234,5ef660beebde2833d8492e58,64d2fd46c836a06233681665,64dc7f24b4214cff76e6c109,,,,,,,ctch,resources/DBN.BMP,resources/DB.BMP,Door4,-0.258333347,-0.018518519,1,0,0,0.7761,optionLeft,80,10905,5,29,0,29,0,1,,,,,,,,,,,,,,,,,,,,,,,,,,,,,,,,,,,,,,,
,,,,,,,,2023-08-16_08h51.54.697,HF_wild_card,2022.2.4,Win32,60.27364234,5ef660beebde2833d8492e58,64d2fd46c836a06233681665,64dc7f24b4214cff76e6c109,,,,,,,decisionTrl,resources/DB.BMP,resources/DY.BMP,WildCard_NonEx,0.353703675,-0.006481489,1,0,0,0.7737,optionRight,45,10950,5,30,0,30,0,1,,,,,,,,,,,,,,,,,,,,,,,,,,,,,,,,,,,,,,,
,,,,,,,,2023-08-16_08h51.54.697,HF_wild_card,2022.2.4,Win32,60.27364234,5ef660beebde2833d8492e58,64d2fd46c836a06233681665,64dc7f24b4214cff76e6c109,,,,,,,decisionTrl,resources/DP.BMP,resources/DY.BMP,Door3,-0.155555513,-0.014814836,1,0,0,0.8214,optionLeft,70,11020,5,31,0,31,0,1,,,,,,,,,,,,,,,,,,,,,,,,,,,,,,,,,,,,,,,
,,,,,,,,2023-08-16_08h51.54.697,HF_wild_card,2022.2.4,Win32,60.27364234,5ef660beebde2833d8492e58,64d2fd46c836a06233681665,64dc7f24b4214cff76e6c109,,,,,,,decisionTrl,resources/DB.BMP,resources/DR.BMP,Door1,-0.458333333,-0.003703718,1,0,0,1.1895,optionLeft,30,11050,5,32,0,32,0,1,,,,,,,,,,,,,,,,,,,,,,,,,,,,,,,,,,,,,,,
,,,,,,,,2023-08-16_08h51.54.697,HF_wild_card,2022.2.4,Win32,60.27364234,5ef660beebde2833d8492e58,64d2fd46c836a06233681665,64dc7f24b4214cff76e6c109,,,,,,,ctch,resources/DB.BMP,resources/DBN.BMP,Door4,0.42314812,-0.006481489,1,0,0,0.7489,optionRight,80,11130,5,33,0,33,0,1,,,,,,,,,,,,,,,,,,,,,,,,,,,,,,,,,,,,,,,
,,,,,,,,2023-08-16_08h51.54.697,HF_wild_card,2022.2.4,Win32,60.27364234,5ef660beebde2833d8492e58,64d2fd46c836a06233681665,64dc7f24b4214cff76e6c109,,,,,,,sngl,resources/DY.BMP,resources/Empty.png,WildCard_NonEx,-0.400000007,-0.025000007,1,0,0,0.5868,optionLeft,55,11185,5,34,0,34,0,1,,,,,,,,,,,,,,,,,,,,,,,,,,,,,,,,,,,,,,,
,,,,,,,,2023-08-16_08h51.54.697,HF_wild_card,2022.2.4,Win32,60.27364234,5ef660beebde2833d8492e58,64d2fd46c836a06233681665,64dc7f24b4214cff76e6c109,,,,,,,sngl,resources/DR.BMP,resources/Empty.png,Door2,-0.445370356,-0.062962956,1,0,0,0.7137,optionLeft,40,11225,5,35,0,35,0,1,,,,,,,,,,,,,,,,,,,,,,,,,,,,,,,,,,,,,,,
,,,,,,,,2023-08-16_08h51.54.697,HF_wild_card,2022.2.4,Win32,60.27364234,5ef660beebde2833d8492e58,64d2fd46c836a06233681665,64dc7f24b4214cff76e6c109,,,,,,,sngl,resources/Empty.png,resources/DB.BMP,Door1,0.01944443,-0.009259259,1,0,0,0.625,optionRight,30,11255,5,36,0,36,0,1,,,,,,,,,,,,,,,,,,,,,,,,,,,,,,,,,,,,,,,
,,,,,,,,2023-08-16_08h51.54.697,HF_wild_card,2022.2.4,Win32,60.27364234,5ef660beebde2833d8492e58,64d2fd46c836a06233681665,64dc7f24b4214cff76e6c109,,,,,,,decisionTrl,resources/DR.BMP,resources/DY.BMP,WildCard_NonEx,0.345370399,-0.01203703,1,0,0,1.1217,optionRight,45,11300,5,37,0,37,0,1,,,,,,,,,,,,,,,,,,,,,,,,,,,,,,,,,,,,,,,
,,,,,,,,2023-08-16_08h51.54.697,HF_wild_card,2022.2.4,Win32,60.27364234,5ef660beebde2833d8492e58,64d2fd46c836a06233681665,64dc7f24b4214cff76e6c109,,,,,,,ctch,resources/DR.BMP,resources/DP.BMP,Door3,0.378703788,0.003703683,1,0,0,0.8822,optionRight,70,11370,5,38,0,38,0,1,,,,,,,,,,,,,,,,,,,,,,,,,,,,,,,,,,,,,,,
,,,,,,,,2023-08-16_08h51.54.697,HF_wild_card,2022.2.4,Win32,60.27364234,5ef660beebde2833d8492e58,64d2fd46c836a06233681665,64dc7f24b4214cff76e6c109,,,,,,,decisionTrl,resources/DR.BMP,resources/DB.BMP,Door2,-0.291666667,-0.036111125,1,0,0,1.0217,optionLeft,40,11410,5,39,0,39,0,1,,,,,,,,,,,,,,,,,,,,,,,,,,,,,,,,,,,,,,,
,,,,,,,,2023-08-16_08h51.54.697,HF_wild_card,2022.2.4,Win32,60.27364234,5ef660beebde2833d8492e58,64d2fd46c836a06233681665,64dc7f24b4214cff76e6c109,,,,,,,decisionTrl,resources/DB.BMP,resources/DR.BMP,Door2,0.260185171,-0.018518519,1,0,0,0.9285,optionRight,40,11450,5,40,0,40,0,1,,,,,,,,,,,,,,,,,,,,,,,,,,,,,,,,,,,,,,,
,,,,,,,,2023-08-16_08h51.54.697,HF_wild_card,2022.2.4,Win32,60.27364234,5ef660beebde2833d8492e58,64d2fd46c836a06233681665,64dc7f24b4214cff76e6c109,,,,,,,decisionTrl,resources/DBN.BMP,resources/DP.BMP,Door4,-0.199999986,-0.002777771,1,0,0,1.2782,optionLeft,80,11530,5,41,0,41,0,1,,,,,,,,,,,,,,,,,,,,,,,,,,,,,,,,,,,,,,,
,,,,,,,,2023-08-16_08h51.54.697,HF_wild_card,2022.2.4,Win32,60.27364234,5ef660beebde2833d8492e58,64d2fd46c836a06233681665,64dc7f24b4214cff76e6c109,,,,,,,sngl,resources/Empty.png,resources/DY.BMP,WildCard_NonEx,0.315740797,-0.012962977,1,0,0,0.6686,optionRight,55,11585,5,42,0,42,0,1,,,,,,,,,,,,,,,,,,,,,,,,,,,,,,,,,,,,,,,
,,,,,,,,2023-08-16_08h51.54.697,HF_wild_card,2022.2.4,Win32,60.27364234,5ef660beebde2833d8492e58,64d2fd46c836a06233681665,64dc7f24b4214cff76e6c109,,,,,,,sngl,resources/DB.BMP,resources/Empty.png,Door1,-0.262962977,-0.01203703,1,0,0,0.4918,optionLeft,30,11615,5,43,0,43,0,1,,,,,,,,,,,,,,,,,,,,,,,,,,,,,,,,,,,,,,,
,,,,,,,,2023-08-16_08h51.54.697,HF_wild_card,2022.2.4,Win32,60.27364234,5ef660beebde2833d8492e58,64d2fd46c836a06233681665,64dc7f24b4214cff76e6c109,,,,,,,,,,,,,,,,,,,,,,,,,,4,0,4,0,1,,,,,,,,,,,,,,,,,,,,,,,,,,,,,,,,,,
,,,,,,,,2023-08-16_08h51.54.697,HF_wild_card,2022.2.4,Win32,60.27364234,5ef660beebde2833d8492e58,64d2fd46c836a06233681665,64dc7f24b4214cff76e6c109,,,,,,,ctch,resources/DP.BMP,resources/DR.BMP,Door3,-0.222222222,-0.021296289,1,0,0,1.522,optionLeft,70,11685,6,0,0,0,0,1,,,,,,,,,,,,,,,,,,,,,,,,,,,,,,,,,,,,,,,
,,,,,,,,2023-08-16_08h51.54.697,HF_wild_card,2022.2.4,Win32,60.27364234,5ef660beebde2833d8492e58,64d2fd46c836a06233681665,64dc7f24b4214cff76e6c109,,,,,,,sngl,resources/Empty.png,resources/DP.BMP,Door3,0.464814787,0.010185171,1,0,0,0.5169,optionRight,70,11755,6,1,0,1,0,1,,,,,,,,,,,,,,,,,,,,,,,,,,,,,,,,,,,,,,,
,,,,,,,,2023-08-16_08h51.54.697,HF_wild_card,2022.2.4,Win32,60.27364234,5ef660beebde2833d8492e58,64d2fd46c836a06233681665,64dc7f24b4214cff76e6c109,,,,,,,decisionTrl,resources/DBN.BMP,resources/DY.BMP,Door4,-0.430555556,-0.022222236,1,0,0,0.7731,optionLeft,80,11835,6,2,0,2,0,1,,,,,,,,,,,,,,,,,,,,,,,,,,,,,,,,,,,,,,,
,,,,,,,,2023-08-16_08h51.54.697,HF_wild_card,2022.2.4,Win32,60.27364234,5ef660beebde2833d8492e58,64d2fd46c836a06233681665,64dc7f24b4214cff76e6c109,,,,,,,sngl,resources/DY.BMP,resources/Empty.png,WildCard_NonEx,-0.17314812,-0.010185206,1,0,0,0.483,optionLeft,45,11880,6,3,0,3,0,1,,,,,,,,,,,,,,,,,,,,,,,,,,,,,,,,,,,,,,,
,,,,,,,,2023-08-16_08h51.54.697,HF_wild_card,2022.2.4,Win32,60.27364234,5ef660beebde2833d8492e58,64d2fd46c836a06233681665,64dc7f24b4214cff76e6c109,,,,,,,decisionTrl,resources/DBN.BMP,resources/DP.BMP,Door3,0.071296339,-0.000925947,1,0,0,1.2253,optionRight,70,11950,6,4,0,4,0,1,,,,,,,,,,,,,,,,,,,,,,,,,,,,,,,,,,,,,,,
,,,,,,,,2023-08-16_08h51.54.697,HF_wild_card,2022.2.4,Win32,60.27364234,5ef660beebde2833d8492e58,64d2fd46c836a06233681665,64dc7f24b4214cff76e6c109,,,,,,,decisionTrl,resources/DR.BMP,resources/DB.BMP,Door1,0.421296296,-0.005555577,1,0,0,1.088,optionRight,30,11980,6,5,0,5,0,1,,,,,,,,,,,,,,,,,,,,,,,,,,,,,,,,,,,,,,,
,,,,,,,,2023-08-16_08h51.54.697,HF_wild_card,2022.2.4,Win32,60.27364234,5ef660beebde2833d8492e58,64d2fd46c836a06233681665,64dc7f24b4214cff76e6c109,,,,,,,decisionTrl,resources/DR.BMP,resources/DB.BMP,Door2,-0.291666667,-0.013888889,1,0,0,0.513,optionLeft,40,12020,6,6,0,6,0,1,,,,,,,,,,,,,,,,,,,,,,,,,,,,,,,,,,,,,,,
,,,,,,,,2023-08-16_08h51.54.697,HF_wild_card,2022.2.4,Win32,60.27364234,5ef660beebde2833d8492e58,64d2fd46c836a06233681665,64dc7f24b4214cff76e6c109,,,,,,,sngl,resources/Empty.png,resources/DR.BMP,Door2,0.363888917,0.015740748,1,0,0,0.5018,optionRight,40,12060,6,7,0,7,0,1,,,,,,,,,,,,,,,,,,,,,,,,,,,,,,,,,,,,,,,
,,,,,,,,2023-08-16_08h51.54.697,HF_wild_card,2022.2.4,Win32,60.27364234,5ef660beebde2833d8492e58,64d2fd46c836a06233681665,64dc7f24b4214cff76e6c109,,,,,,,decisionTrl,resources/DR.BMP,resources/DB.BMP,Door2,-0.287037037,0.009259259,1,0,0,0.5027,optionLeft,20,12080,6,8,0,8,0,1,,,,,,,,,,,,,,,,,,,,,,,,,,,,,,,,,,,,,,,
,,,,,,,,2023-08-16_08h51.54.697,HF_wild_card,2022.2.4,Win32,60.27364234,5ef660beebde2833d8492e58,64d2fd46c836a06233681665,64dc7f24b4214cff76e6c109,,,,,,,sngl,resources/DB.BMP,resources/Empty.png,Door1,-0.430555556,-0.019444466,1,0,0,0.5867,optionLeft,30,12110,6,9,0,9,0,1,,,,,,,,,,,,,,,,,,,,,,,,,,,,,,,,,,,,,,,
,,,,,,,,2023-08-16_08h51.54.697,HF_wild_card,2022.2.4,Win32,60.27364234,5ef660beebde2833d8492e58,64d2fd46c836a06233681665,64dc7f24b4214cff76e6c109,,,,,,,decisionTrl,resources/DP.BMP,resources/DBN.BMP,Door4,0.310185185,0.011111118,1,0,0,1.2481,optionRight,80,12190,6,10,0,10,0,1,,,,,,,,,,,,,,,,,,,,,,,,,,,,,,,,,,,,,,,
,,,,,,,,2023-08-16_08h51.54.697,HF_wild_card,2022.2.4,Win32,60.27364234,5ef660beebde2833d8492e58,64d2fd46c836a06233681665,64dc7f24b4214cff76e6c109,,,,,,,ctch,resources/DB.BMP,resources/DBN.BMP,Door4,0.404629601,-0.011111118,1,0,0,0.8791,optionRight,60,12250,6,11,0,11,0,1,,,,,,,,,,,,,,,,,,,,,,,,,,,,,,,,,,,,,,,
,,,,,,,,2023-08-16_08h51.54.697,HF_wild_card,2022.2.4,Win32,60.27364234,5ef660beebde2833d8492e58,64d2fd46c836a06233681665,64dc7f24b4214cff76e6c109,,,,,,,sngl,resources/DBN.BMP,resources/Empty.png,Door4,-0.209259245,-0.00462963,1,0,0,0.5535,optionLeft,60,12310,6,12,0,12,0,1,,,,,,,,,,,,,,,,,,,,,,,,,,,,,,,,,,,,,,,
,,,,,,,,2023-08-16_08h51.54.697,HF_wild_card,2022.2.4,Win32,60.27364234,5ef660beebde2833d8492e58,64d2fd46c836a06233681665,64dc7f24b4214cff76e6c109,,,,,,,decisionTrl,resources/DB.BMP,resources/DR.BMP,Door2,0.386111083,0.013888889,1,0,0,1.5555,optionRight,20,12330,6,13,0,13,0,1,,,,,,,,,,,,,,,,,,,,,,,,,,,,,,,,,,,,,,,
,,,,,,,,2023-08-16_08h51.54.697,HF_wild_card,2022.2.4,Win32,60.27364234,5ef660beebde2833d8492e58,64d2fd46c836a06233681665,64dc7f24b4214cff76e6c109,,,,,,,sngl,resources/Empty.png,resources/DBN.BMP,Door4,0.237963005,-0.01203703,1,0,0,0.5961,optionRight,80,12410,6,14,0,14,0,1,,,,,,,,,,,,,,,,,,,,,,,,,,,,,,,,,,,,,,,
,,,,,,,,2023-08-16_08h51.54.697,HF_wild_card,2022.2.4,Win32,60.27364234,5ef660beebde2833d8492e58,64d2fd46c836a06233681665,64dc7f24b4214cff76e6c109,,,,,,,decisionTrl,resources/DP.BMP,resources/DBN.BMP,Door4,0.509259259,0,1,0,0,0.7098,optionRight,80,12490,6,15,0,15,0,1,,,,,,,,,,,,,,,,,,,,,,,,,,,,,,,,,,,,,,,
,,,,,,,,2023-08-16_08h51.54.697,HF_wild_card,2022.2.4,Win32,60.27364234,5ef660beebde2833d8492e58,64d2fd46c836a06233681665,64dc7f24b4214cff76e6c109,,,,,,,decisionTrl,resources/DY.BMP,resources/DB.BMP,WildCard_NonEx,-0.256481453,0.006481489,1,0,0,1.4097,optionLeft,55,12545,6,16,0,16,0,1,,,,,,,,,,,,,,,,,,,,,,,,,,,,,,,,,,,,,,,
,,,,,,,,2023-08-16_08h51.54.697,HF_wild_card,2022.2.4,Win32,60.27364234,5ef660beebde2833d8492e58,64d2fd46c836a06233681665,64dc7f24b4214cff76e6c109,,,,,,,decisionTrl,resources/DBN.BMP,resources/DP.BMP,Door4,-0.316666674,0.008333312,1,0,0,0.6758,optionLeft,80,12625,6,17,0,17,0,1,,,,,,,,,,,,,,,,,,,,,,,,,,,,,,,,,,,,,,,
,,,,,,,,2023-08-16_08h51.54.697,HF_wild_card,2022.2.4,Win32,60.27364234,5ef660beebde2833d8492e58,64d2fd46c836a06233681665,64dc7f24b4214cff76e6c109,,,,,,,ctch,resources/DBN.BMP,resources/DB.BMP,Door4,-0.365740741,0.003703683,1,0,0,0.4799,optionLeft,60,12685,6,18,0,18,0,1,,,,,,,,,,,,,,,,,,,,,,,,,,,,,,,,,,,,,,,
,,,,,,,,2023-08-16_08h51.54.697,HF_wild_card,2022.2.4,Win32,60.27364234,5ef660beebde2833d8492e58,64d2fd46c836a06233681665,64dc7f24b4214cff76e6c109,,,,,,,sngl,resources/DY.BMP,resources/Empty.png,WildCard_NonEx,-0.3824074,0,1,0,0,0.4412,optionLeft,55,12740,6,19,0,19,0,1,,,,,,,,,,,,,,,,,,,,,,,,,,,,,,,,,,,,,,,
,,,,,,,,2023-08-16_08h51.54.697,HF_wild_card,2022.2.4,Win32,60.27364234,5ef660beebde2833d8492e58,64d2fd46c836a06233681665,64dc7f24b4214cff76e6c109,,,,,,,sngl,resources/DP.BMP,resources/Empty.png,Door3,-0.16851849,0.000925912,1,0,0,0.4481,optionLeft,70,12810,6,20,0,20,0,1,,,,,,,,,,,,,,,,,,,,,,,,,,,,,,,,,,,,,,,
,,,,,,,,2023-08-16_08h51.54.697,HF_wild_card,2022.2.4,Win32,60.27364234,5ef660beebde2833d8492e58,64d2fd46c836a06233681665,64dc7f24b4214cff76e6c109,,,,,,,decisionTrl,resources/DB.BMP,resources/DR.BMP,Door1,-0.283333319,0.014814801,1,0,0,0.5775,optionLeft,30,12840,6,21,0,21,0,1,,,,,,,,,,,,,,,,,,,,,,,,,,,,,,,,,,,,,,,
,,,,,,,,2023-08-16_08h51.54.697,HF_wild_card,2022.2.4,Win32,60.27364234,5ef660beebde2833d8492e58,64d2fd46c836a06233681665,64dc7f24b4214cff76e6c109,,,,,,,decisionTrl,resources/DB.BMP,resources/DR.BMP,Door1,-0.251851824,-0.014814836,1,0,0,0.5079,optionLeft,30,12870,6,22,0,22,0,1,,,,,,,,,,,,,,,,,,,,,,,,,,,,,,,,,,,,,,,
,,,,,,,,2023-08-16_08h51.54.697,HF_wild_card,2022.2.4,Win32,60.27364234,5ef660beebde2833d8492e58,64d2fd46c836a06233681665,64dc7f24b4214cff76e6c109,,,,,,,decisionTrl,resources/DR.BMP,resources/DB.BMP,Door2,-0.306481467,-0.01666666,1,0,0,1.1079,optionLeft,40,12910,6,23,0,23,0,1,,,,,,,,,,,,,,,,,,,,,,,,,,,,,,,,,,,,,,,
,,,,,,,,2023-08-16_08h51.54.697,HF_wild_card,2022.2.4,Win32,60.27364234,5ef660beebde2833d8492e58,64d2fd46c836a06233681665,64dc7f24b4214cff76e6c109,,,,,,,ctch,resources/DBN.BMP,resources/DB.BMP,Door4,-0.170370384,-0.006481489,1,0,0,0.7734,optionLeft,80,12990,6,24,0,24,0,1,,,,,,,,,,,,,,,,,,,,,,,,,,,,,,,,,,,,,,,
,,,,,,,,2023-08-16_08h51.54.697,HF_wild_card,2022.2.4,Win32,60.27364234,5ef660beebde2833d8492e58,64d2fd46c836a06233681665,64dc7f24b4214cff76e6c109,,,,,,,decisionTrl,resources/DY.BMP,resources/DBN.BMP,Door4,0.397222307,-0.025000007,1,0,0,1.1987,optionRight,80,13070,6,25,0,25,0,1,,,,,,,,,,,,,,,,,,,,,,,,,,,,,,,,,,,,,,,
,,,,,,,,2023-08-16_08h51.54.697,HF_wild_card,2022.2.4,Win32,60.27364234,5ef660beebde2833d8492e58,64d2fd46c836a06233681665,64dc7f24b4214cff76e6c109,,,,,,,ctch,resources/DR.BMP,resources/DP.BMP,Door2,-0.169444402,-0.015740748,1,0,0,0.8293,optionLeft,20,13090,6,26,0,26,0,1,,,,,,,,,,,,,,,,,,,,,,,,,,,,,,,,,,,,,,,
,,,,,,,,2023-08-16_08h51.54.697,HF_wild_card,2022.2.4,Win32,60.27364234,5ef660beebde2833d8492e58,64d2fd46c836a06233681665,64dc7f24b4214cff76e6c109,,,,,,,sngl,resources/Empty.png,resources/DY.BMP,WildCard_NonEx,0.490740741,-0.003703718,1,0,0,0.5262,optionRight,55,13145,6,27,0,27,0,1,,,,,,,,,,,,,,,,,,,,,,,,,,,,,,,,,,,,,,,
,,,,,,,,2023-08-16_08h51.54.697,HF_wild_card,2022.2.4,Win32,60.27364234,5ef660beebde2833d8492e58,64d2fd46c836a06233681665,64dc7f24b4214cff76e6c109,,,,,,,decisionTrl,resources/DP.BMP,resources/DY.BMP,Door3,-0.155555513,0.001851859,1,0,0,1.0402,optionLeft,70,13215,6,28,0,28,0,1,,,,,,,,,,,,,,,,,,,,,,,,,,,,,,,,,,,,,,,
,,,,,,,,2023-08-16_08h51.54.697,HF_wild_card,2022.2.4,Win32,60.27364234,5ef660beebde2833d8492e58,64d2fd46c836a06233681665,64dc7f24b4214cff76e6c109,,,,,,,ctch,resources/DB.BMP,resources/DBN.BMP,Door4,0.327777863,0.015740748,1,0,0,0.8712,optionRight,80,13295,6,29,0,29,0,1,,,,,,,,,,,,,,,,,,,,,,,,,,,,,,,,,,,,,,,
,,,,,,,,2023-08-16_08h51.54.697,HF_wild_card,2022.2.4,Win32,60.27364234,5ef660beebde2833d8492e58,64d2fd46c836a06233681665,64dc7f24b4214cff76e6c109,,,,,,,sngl,resources/Empty.png,resources/DB.BMP,Door1,0.219444487,0.014814801,1,0,0,0.5242,optionRight,30,13325,6,30,0,30,0,1,,,,,,,,,,,,,,,,,,,,,,,,,,,,,,,,,,,,,,,
,,,,,,,,2023-08-16_08h51.54.697,HF_wild_card,2022.2.4,Win32,60.27364234,5ef660beebde2833d8492e58,64d2fd46c836a06233681665,64dc7f24b4214cff76e6c109,,,,,,,decisionTrl,resources/DP.BMP,resources/DBN.BMP,Door4,0.324074074,-0.010185206,1,0,0,0.7222,optionRight,60,13385,6,31,0,31,0,1,,,,,,,,,,,,,,,,,,,,,,,,,,,,,,,,,,,,,,,
,,,,,,,,2023-08-16_08h51.54.697,HF_wild_card,2022.2.4,Win32,60.27364234,5ef660beebde2833d8492e58,64d2fd46c836a06233681665,64dc7f24b4214cff76e6c109,,,,,,,decisionTrl,resources/DBN.BMP,resources/DP.BMP,Door4,-0.285185143,-0.028703725,1,0,0,0.5311,optionLeft,60,13445,6,32,0,32,0,1,,,,,,,,,,,,,,,,,,,,,,,,,,,,,,,,,,,,,,,
,,,,,,,,2023-08-16_08h51.54.697,HF_wild_card,2022.2.4,Win32,60.27364234,5ef660beebde2833d8492e58,64d2fd46c836a06233681665,64dc7f24b4214cff76e6c109,,,,,,,sngl,resources/Empty.png,resources/DY.BMP,WildCard_NonEx,0.255555541,-0.009259259,1,0,0,0.5432,optionRight,45,13490,6,33,0,33,0,1,,,,,,,,,,,,,,,,,,,,,,,,,,,,,,,,,,,,,,,
,,,,,,,,2023-08-16_08h51.54.697,HF_wild_card,2022.2.4,Win32,60.27364234,5ef660beebde2833d8492e58,64d2fd46c836a06233681665,64dc7f24b4214cff76e6c109,,,,,,,decisionTrl,resources/DR.BMP,resources/DY.BMP,Door2,-0.163888861,0,1,0,0,0.7972,optionLeft,40,13530,6,34,0,34,0,1,,,,,,,,,,,,,,,,,,,,,,,,,,,,,,,,,,,,,,,
,,,,,,,,2023-08-16_08h51.54.697,HF_wild_card,2022.2.4,Win32,60.27364234,5ef660beebde2833d8492e58,64d2fd46c836a06233681665,64dc7f24b4214cff76e6c109,,,,,,,decisionTrl,resources/DY.BMP,resources/DR.BMP,WildCard_NonEx,-0.310185185,-0.027777778,1,0,0,1.1964,optionLeft,45,13575,6,35,0,35,0,1,,,,,,,,,,,,,,,,,,,,,,,,,,,,,,,,,,,,,,,
,,,,,,,,2023-08-16_08h51.54.697,HF_wild_card,2022.2.4,Win32,60.27364234,5ef660beebde2833d8492e58,64d2fd46c836a06233681665,64dc7f24b4214cff76e6c109,,,,,,,decisionTrl,resources/DP.BMP,resources/DBN.BMP,Door4,0.30277775,0.03611109,1,0,0,0.6976,optionRight,80,13655,6,36,0,36,0,1,,,,,,,,,,,,,,,,,,,,,,,,,,,,,,,,,,,,,,,
,,,,,,,,2023-08-16_08h51.54.697,HF_wild_card,2022.2.4,Win32,60.27364234,5ef660beebde2833d8492e58,64d2fd46c836a06233681665,64dc7f24b4214cff76e6c109,,,,,,,decisionTrl,resources/DY.BMP,resources/DP.BMP,Door3,0.385185242,0.012962942,1,0,0,0.8052,optionRight,70,13725,6,37,0,37,0,1,,,,,,,,,,,,,,,,,,,,,,,,,,,,,,,,,,,,,,,
,,,,,,,,2023-08-16_08h51.54.697,HF_wild_card,2022.2.4,Win32,60.27364234,5ef660beebde2833d8492e58,64d2fd46c836a06233681665,64dc7f24b4214cff76e6c109,,,,,,,ctch,resources/DR.BMP,resources/DP.BMP,Door3,0.323148233,0,1,0,0,0.5543,optionRight,70,13795,6,38,0,38,0,1,,,,,,,,,,,,,,,,,,,,,,,,,,,,,,,,,,,,,,,
,,,,,,,,2023-08-16_08h51.54.697,HF_wild_card,2022.2.4,Win32,60.27364234,5ef660beebde2833d8492e58,64d2fd46c836a06233681665,64dc7f24b4214cff76e6c109,,,,,,,ctch,resources/DP.BMP,resources/DR.BMP,Door3,-0.286111125,-0.020370377,1,0,0,0.625,optionLeft,70,13865,6,39,0,39,0,1,,,,,,,,,,,,,,,,,,,,,,,,,,,,,,,,,,,,,,,
,,,,,,,,2023-08-16_08h51.54.697,HF_wild_card,2022.2.4,Win32,60.27364234,5ef660beebde2833d8492e58,64d2fd46c836a06233681665,64dc7f24b4214cff76e6c109,,,,,,,sngl,resources/DR.BMP,resources/Empty.png,Door2,-0.154629601,-0.022222236,1,0,0,0.5103,optionLeft,20,13885,6,40,0,40,0,1,,,,,,,,,,,,,,,,,,,,,,,,,,,,,,,,,,,,,,,
,,,,,,,,2023-08-16_08h51.54.697,HF_wild_card,2022.2.4,Win32,60.27364234,5ef660beebde2833d8492e58,64d2fd46c836a06233681665,64dc7f24b4214cff76e6c109,,,,,,,decisionTrl,resources/DB.BMP,resources/DR.BMP,Door2,0.30277775,-0.001851859,1,0,0,1.0777,optionRight,20,13905,6,41,0,41,0,1,,,,,,,,,,,,,,,,,,,,,,,,,,,,,,,,,,,,,,,
,,,,,,,,2023-08-16_08h51.54.697,HF_wild_card,2022.2.4,Win32,60.27364234,5ef660beebde2833d8492e58,64d2fd46c836a06233681665,64dc7f24b4214cff76e6c109,,,,,,,decisionTrl,resources/DBN.BMP,resources/DP.BMP,Door4,-0.231481481,-0.005555577,1,0,0,0.5593,optionLeft,80,13985,6,42,0,42,0,1,,,,,,,,,,,,,,,,,,,,,,,,,,,,,,,,,,,,,,,
,,,,,,,,2023-08-16_08h51.54.697,HF_wild_card,2022.2.4,Win32,60.27364234,5ef660beebde2833d8492e58,64d2fd46c836a06233681665,64dc7f24b4214cff76e6c109,,,,,,,decisionTrl,resources/DB.BMP,resources/DY.BMP,WildCard_NonEx,0.497222194,-0.002777771,1,0,0,0.8719,optionRight,45,14030,6,43,0,43,0,1,,,,,,,,,,,,,,,,,,,,,,,,,,,,,,,,,,,,,,,
,,,,,,,,2023-08-16_08h51.54.697,HF_wild_card,2022.2.4,Win32,60.27364234,5ef660beebde2833d8492e58,64d2fd46c836a06233681665,64dc7f24b4214cff76e6c109,,,,,,,,,,,,,,,,,,,,,,,,,,5,0,5,0,1,,,,,,,,,,,,,,,,,,,,,,,,,,,,,,,,,,
,,,,,,,,2023-08-16_08h51.54.697,HF_wild_card,2022.2.4,Win32,60.27364234,5ef660beebde2833d8492e58,64d2fd46c836a06233681665,64dc7f24b4214cff76e6c109,,,,,,,decisionTrl,resources/DB.BMP,resources/DR.BMP,Door2,0.259259259,-0.104629658,1,0,0,1.1885,optionRight,20,14050,7,0,0,0,0,1,,,,,,,,,,,,,,,,,,,,,,,,,,,,,,,,,,,,,,,
,,,,,,,,2023-08-16_08h51.54.697,HF_wild_card,2022.2.4,Win32,60.27364234,5ef660beebde2833d8492e58,64d2fd46c836a06233681665,64dc7f24b4214cff76e6c109,,,,,,,ctch,resources/DR.BMP,resources/DP.BMP,Door3,0.358333305,-0.024074095,1,0,0,0.6848,optionRight,70,14120,7,1,0,1,0,1,,,,,,,,,,,,,,,,,,,,,,,,,,,,,,,,,,,,,,,
,,,,,,,,2023-08-16_08h51.54.697,HF_wild_card,2022.2.4,Win32,60.27364234,5ef660beebde2833d8492e58,64d2fd46c836a06233681665,64dc7f24b4214cff76e6c109,,,,,,,decisionTrl,resources/DP.BMP,resources/DBN.BMP,Door4,0.475926011,-0.00462963,1,0,0,0.9389,optionRight,60,14180,7,2,0,2,0,1,,,,,,,,,,,,,,,,,,,,,,,,,,,,,,,,,,,,,,,
,,,,,,,,2023-08-16_08h51.54.697,HF_wild_card,2022.2.4,Win32,60.27364234,5ef660beebde2833d8492e58,64d2fd46c836a06233681665,64dc7f24b4214cff76e6c109,,,,,,,decisionTrl,resources/DBN.BMP,resources/DP.BMP,Door4,-0.205555527,-0.0074074,1,0,0,0.6513,optionLeft,80,14260,7,3,0,3,0,1,,,,,,,,,,,,,,,,,,,,,,,,,,,,,,,,,,,,,,,
,,,,,,,,2023-08-16_08h51.54.697,HF_wild_card,2022.2.4,Win32,60.27364234,5ef660beebde2833d8492e58,64d2fd46c836a06233681665,64dc7f24b4214cff76e6c109,,,,,,,decisionTrl,resources/DB.BMP,resources/DR.BMP,Door2,0.378703788,0.003703683,1,0,0,0.6793,optionRight,20,14280,7,4,0,4,0,1,,,,,,,,,,,,,,,,,,,,,,,,,,,,,,,,,,,,,,,
,,,,,,,,2023-08-16_08h51.54.697,HF_wild_card,2022.2.4,Win32,60.27364234,5ef660beebde2833d8492e58,64d2fd46c836a06233681665,64dc7f24b4214cff76e6c109,,,,,,,ctch,resources/DP.BMP,resources/DR.BMP,Door3,-0.349999993,-0.008333347,1,0,0,1.1502,optionLeft,70,14350,7,5,0,5,0,1,,,,,,,,,,,,,,,,,,,,,,,,,,,,,,,,,,,,,,,
,,,,,,,,2023-08-16_08h51.54.697,HF_wild_card,2022.2.4,Win32,60.27364234,5ef660beebde2833d8492e58,64d2fd46c836a06233681665,64dc7f24b4214cff76e6c109,,,,,,,ctch,resources/DBN.BMP,resources/DB.BMP,Door4,-0.232407393,-0.000925947,1,0,0,0.6213,optionLeft,80,14430,7,6,0,6,0,1,,,,,,,,,,,,,,,,,,,,,,,,,,,,,,,,,,,,,,,
,,,,,,,,2023-08-16_08h51.54.697,HF_wild_card,2022.2.4,Win32,60.27364234,5ef660beebde2833d8492e58,64d2fd46c836a06233681665,64dc7f24b4214cff76e6c109,,,,,,,ctch,resources/DR.BMP,resources/DP.BMP,Door3,0.23055557,0.011111118,1,0,0,0.7462,optionRight,70,14500,7,7,0,7,0,1,,,,,,,,,,,,,,,,,,,,,,,,,,,,,,,,,,,,,,,
,,,,,,,,2023-08-16_08h51.54.697,HF_wild_card,2022.2.4,Win32,60.27364234,5ef660beebde2833d8492e58,64d2fd46c836a06233681665,64dc7f24b4214cff76e6c109,,,,,,,decisionTrl,resources/DR.BMP,resources/DB.BMP,Door1,0.185185185,0.005555541,1,0,0,1.252,optionRight,30,14530,7,8,0,8,0,1,,,,,,,,,,,,,,,,,,,,,,,,,,,,,,,,,,,,,,,
,,,,,,,,2023-08-16_08h51.54.697,HF_wild_card,2022.2.4,Win32,60.27364234,5ef660beebde2833d8492e58,64d2fd46c836a06233681665,64dc7f24b4214cff76e6c109,,,,,,,decisionTrl,resources/DP.BMP,resources/DBN.BMP,Door4,0.200925968,0.006481489,1,0,0,0.8622,optionRight,80,14610,7,9,0,9,0,1,,,,,,,,,,,,,,,,,,,,,,,,,,,,,,,,,,,,,,,
,,,,,,,,2023-08-16_08h51.54.697,HF_wild_card,2022.2.4,Win32,60.27364234,5ef660beebde2833d8492e58,64d2fd46c836a06233681665,64dc7f24b4214cff76e6c109,,,,,,,decisionTrl,resources/DP.BMP,resources/DBN.BMP,Door4,0.438888974,-0.0074074,1,0,0,0.6939,optionRight,80,14690,7,10,0,10,0,1,,,,,,,,,,,,,,,,,,,,,,,,,,,,,,,,,,,,,,,
,,,,,,,,2023-08-16_08h51.54.697,HF_wild_card,2022.2.4,Win32,60.27364234,5ef660beebde2833d8492e58,64d2fd46c836a06233681665,64dc7f24b4214cff76e6c109,,,,,,,ctch,resources/DB.BMP,resources/DBN.BMP,Door4,0.310185185,-0.000925947,1,0,0,0.6802,optionRight,80,14770,7,11,0,11,0,1,,,,,,,,,,,,,,,,,,,,,,,,,,,,,,,,,,,,,,,
,,,,,,,,2023-08-16_08h51.54.697,HF_wild_card,2022.2.4,Win32,60.27364234,5ef660beebde2833d8492e58,64d2fd46c836a06233681665,64dc7f24b4214cff76e6c109,,,,,,,decisionTrl,resources/DR.BMP,resources/DB.BMP,Door2,-0.337962963,-0.022222236,1,0,0,0.764,optionLeft,40,14810,7,12,0,12,0,1,,,,,,,,,,,,,,,,,,,,,,,,,,,,,,,,,,,,,,,
,,,,,,,,2023-08-16_08h51.54.697,HF_wild_card,2022.2.4,Win32,60.27364234,5ef660beebde2833d8492e58,64d2fd46c836a06233681665,64dc7f24b4214cff76e6c109,,,,,,,ctch,resources/DBN.BMP,resources/DB.BMP,Door4,-0.389814801,-0.011111118,1,0,0,0.605,optionLeft,80,14890,7,13,0,13,0,1,,,,,,,,,,,,,,,,,,,,,,,,,,,,,,,,,,,,,,,
,,,,,,,,2023-08-16_08h51.54.697,HF_wild_card,2022.2.4,Win32,60.27364234,5ef660beebde2833d8492e58,64d2fd46c836a06233681665,64dc7f24b4214cff76e6c109,,,,,,,decisionTrl,resources/DB.BMP,resources/DR.BMP,Door2,0.300000085,0.01203703,1,0,0,1.3303,optionRight,40,14930,7,14,0,14,0,1,,,,,,,,,,,,,,,,,,,,,,,,,,,,,,,,,,,,,,,
,,,,,,,,2023-08-16_08h51.54.697,HF_wild_card,2022.2.4,Win32,60.27364234,5ef660beebde2833d8492e58,64d2fd46c836a06233681665,64dc7f24b4214cff76e6c109,,,,,,,decisionTrl,resources/DBN.BMP,resources/DP.BMP,Door4,-0.257407365,0.0074074,1,0,0,0.5796,optionLeft,80,15010,7,15,0,15,0,1,,,,,,,,,,,,,,,,,,,,,,,,,,,,,,,,,,,,,,,
,,,,,,,,2023-08-16_08h51.54.697,HF_wild_card,2022.2.4,Win32,60.27364234,5ef660beebde2833d8492e58,64d2fd46c836a06233681665,64dc7f24b4214cff76e6c109,,,,,,,ctch,resources/DBN.BMP,resources/DB.BMP,Door4,-0.283333319,-0.001851859,1,0,0,0.6156,optionLeft,60,15070,7,16,0,16,0,1,,,,,,,,,,,,,,,,,,,,,,,,,,,,,,,,,,,,,,,
,,,,,,,,2023-08-16_08h51.54.697,HF_wild_card,2022.2.4,Win32,60.27364234,5ef660beebde2833d8492e58,64d2fd46c836a06233681665,64dc7f24b4214cff76e6c109,,,,,,,decisionTrl,resources/DBN.BMP,resources/DP.BMP,Door3,0.551851908,-0.01666666,1,0,0,0.7848,optionRight,70,15140,7,17,0,17,0,1,,,,,,,,,,,,,,,,,,,,,,,,,,,,,,,,,,,,,,,
,,,,,,,,2023-08-16_08h51.54.697,HF_wild_card,2022.2.4,Win32,60.27364234,5ef660beebde2833d8492e58,64d2fd46c836a06233681665,64dc7f24b4214cff76e6c109,,,,,,,decisionTrl,resources/DBN.BMP,resources/DP.BMP,Door3,0.409259231,0.023148148,1,0,0,0.8078,optionRight,70,15210,7,18,0,18,0,1,,,,,,,,,,,,,,,,,,,,,,,,,,,,,,,,,,,,,,,
,,,,,,,,2023-08-16_08h51.54.697,HF_wild_card,2022.2.4,Win32,60.27364234,5ef660beebde2833d8492e58,64d2fd46c836a06233681665,64dc7f24b4214cff76e6c109,,,,,,,ctch,resources/DB.BMP,resources/DBN.BMP,Door4,0.300000085,-0.002777771,1,0,0,0.6607,optionRight,80,15290,7,19,0,19,0,1,,,,,,,,,,,,,,,,,,,,,,,,,,,,,,,,,,,,,,,
,,,,,,,,2023-08-16_08h51.54.697,HF_wild_card,2022.2.4,Win32,60.27364234,5ef660beebde2833d8492e58,64d2fd46c836a06233681665,64dc7f24b4214cff76e6c109,,,,,,,decisionTrl,resources/DR.BMP,resources/DB.BMP,Door2,-0.19259255,-0.00462963,1,0,0,0.8103,optionLeft,20,15310,7,20,0,20,0,1,,,,,,,,,,,,,,,,,,,,,,,,,,,,,,,,,,,,,,,
,,,,,,,,2023-08-16_08h51.54.697,HF_wild_card,2022.2.4,Win32,60.27364234,5ef660beebde2833d8492e58,64d2fd46c836a06233681665,64dc7f24b4214cff76e6c109,,,,,,,decisionTrl,resources/DP.BMP,resources/DBN.BMP,Door4,0.390740712,0.012962942,1,0,0,0.8406,optionRight,80,15390,7,21,0,21,0,1,,,,,,,,,,,,,,,,,,,,,,,,,,,,,,,,,,,,,,,
,,,,,,,,2023-08-16_08h51.54.697,HF_wild_card,2022.2.4,Win32,60.27364234,5ef660beebde2833d8492e58,64d2fd46c836a06233681665,64dc7f24b4214cff76e6c109,,,,,,,ctch,resources/DP.BMP,resources/DR.BMP,Door3,-0.16851849,-0.000925947,1,0,0,0.6462,optionLeft,70,15460,7,22,0,22,0,1,,,,,,,,,,,,,,,,,,,,,,,,,,,,,,,,,,,,,,,
,,,,,,,,2023-08-16_08h51.54.697,HF_wild_card,2022.2.4,Win32,60.27364234,5ef660beebde2833d8492e58,64d2fd46c836a06233681665,64dc7f24b4214cff76e6c109,,,,,,,decisionTrl,resources/DP.BMP,resources/DBN.BMP,Door3,-0.149999972,0.0074074,1,0,0,0.6412,optionLeft,70,15530,7,23,0,23,0,1,,,,,,,,,,,,,,,,,,,,,,,,,,,,,,,,,,,,,,,
,,,,,,,,2023-08-16_08h51.54.697,HF_wild_card,2022.2.4,Win32,60.27364234,5ef660beebde2833d8492e58,64d2fd46c836a06233681665,64dc7f24b4214cff76e6c109,,,,,,,decisionTrl,resources/DBN.BMP,resources/DP.BMP,Door3,0.29814812,0.0074074,1,0,0,0.7424,optionRight,70,15600,7,24,0,24,0,1,,,,,,,,,,,,,,,,,,,,,,,,,,,,,,,,,,,,,,,
,,,,,,,,2023-08-16_08h51.54.697,HF_wild_card,2022.2.4,Win32,60.27364234,5ef660beebde2833d8492e58,64d2fd46c836a06233681665,64dc7f24b4214cff76e6c109,,,,,,,decisionTrl,resources/DR.BMP,resources/DB.BMP,Door2,-0.287037037,-0.012962977,1,0,0,0.834,optionLeft,20,15620,7,25,0,25,0,1,,,,,,,,,,,,,,,,,,,,,,,,,,,,,,,,,,,,,,,
,,,,,,,,2023-08-16_08h51.54.697,HF_wild_card,2022.2.4,Win32,60.27364234,5ef660beebde2833d8492e58,64d2fd46c836a06233681665,64dc7f24b4214cff76e6c109,,,,,,,decisionTrl,resources/DR.BMP,resources/DB.BMP,Door2,-0.259259259,-0.006481489,1,0,0,0.5675,optionLeft,20,15640,7,26,0,26,0,1,,,,,,,,,,,,,,,,,,,,,,,,,,,,,,,,,,,,,,,
,,,,,,,,2023-08-16_08h51.54.697,HF_wild_card,2022.2.4,Win32,60.27364234,5ef660beebde2833d8492e58,64d2fd46c836a06233681665,64dc7f24b4214cff76e6c109,,,,,,,ctch,resources/DR.BMP,resources/DP.BMP,Door2,-0.227777764,-0.010185206,1,0,0,0.5776,optionLeft,40,15680,7,27,0,27,0,1,,,,,,,,,,,,,,,,,,,,,,,,,,,,,,,,,,,,,,,
,,,,,,,,2023-08-16_08h51.54.697,HF_wild_card,2022.2.4,Win32,60.27364234,5ef660beebde2833d8492e58,64d2fd46c836a06233681665,64dc7f24b4214cff76e6c109,,,,,,,decisionTrl,resources/DB.BMP,resources/DR.BMP,Door2,0.261111153,-0.001851859,1,0,0,0.9127,optionRight,20,15700,7,28,0,28,0,1,,,,,,,,,,,,,,,,,,,,,,,,,,,,,,,,,,,,,,,
,,,,,,,,2023-08-16_08h51.54.697,HF_wild_card,2022.2.4,Win32,60.27364234,5ef660beebde2833d8492e58,64d2fd46c836a06233681665,64dc7f24b4214cff76e6c109,,,,,,,decisionTrl,resources/DB.BMP,resources/DR.BMP,Door1,-0.289814772,0.001851859,1,0,0,1.0871,optionLeft,30,15730,7,29,0,29,0,1,,,,,,,,,,,,,,,,,,,,,,,,,,,,,,,,,,,,,,,
,,,,,,,,2023-08-16_08h51.54.697,HF_wild_card,2022.2.4,Win32,60.27364234,5ef660beebde2833d8492e58,64d2fd46c836a06233681665,64dc7f24b4214cff76e6c109,,,,,,,decisionTrl,resources/DP.BMP,resources/DBN.BMP,Door4,0.250925912,0.026851831,1,0,0,0.748,optionRight,80,15810,7,30,0,30,0,1,,,,,,,,,,,,,,,,,,,,,,,,,,,,,,,,,,,,,,,
,,,,,,,,2023-08-16_08h51.54.697,HF_wild_card,2022.2.4,Win32,60.27364234,5ef660beebde2833d8492e58,64d2fd46c836a06233681665,64dc7f24b4214cff76e6c109,,,,,,,ctch,resources/DP.BMP,resources/DR.BMP,Door3,-0.222222222,0.003703683,1,0,0,0.7267,optionLeft,70,15880,7,31,0,31,0,1,,,,,,,,,,,,,,,,,,,,,,,,,,,,,,,,,,,,,,,
,,,,,,,,2023-08-16_08h51.54.697,HF_wild_card,2022.2.4,Win32,60.27364234,5ef660beebde2833d8492e58,64d2fd46c836a06233681665,64dc7f24b4214cff76e6c109,,,,,,,decisionTrl,resources/DB.BMP,resources/DR.BMP,Door2,0.287037037,0.005555541,1,0,0,1.1583,optionRight,40,15920,7,32,0,32,0,1,,,,,,,,,,,,,,,,,,,,,,,,,,,,,,,,,,,,,,,
,,,,,,,,2023-08-16_08h51.54.697,HF_wild_card,2022.2.4,Win32,60.27364234,5ef660beebde2833d8492e58,64d2fd46c836a06233681665,64dc7f24b4214cff76e6c109,,,,,,,ctch,resources/DB.BMP,resources/DBN.BMP,Door4,0.258333347,-0.000925947,1,0,0,0.6887,optionRight,80,16000,7,33,0,33,0,1,,,,,,,,,,,,,,,,,,,,,,,,,,,,,,,,,,,,,,,
,,,,,,,,2023-08-16_08h51.54.697,HF_wild_card,2022.2.4,Win32,60.27364234,5ef660beebde2833d8492e58,64d2fd46c836a06233681665,64dc7f24b4214cff76e6c109,,,,,,,decisionTrl,resources/DR.BMP,resources/DB.BMP,Door1,0.262037065,-0.002777771,1,0,0,1.062,optionRight,30,16030,7,34,0,34,0,1,,,,,,,,,,,,,,,,,,,,,,,,,,,,,,,,,,,,,,,
,,,,,,,,2023-08-16_08h51.54.697,HF_wild_card,2022.2.4,Win32,60.27364234,5ef660beebde2833d8492e58,64d2fd46c836a06233681665,64dc7f24b4214cff76e6c109,,,,,,,decisionTrl,resources/DBN.BMP,resources/DP.BMP,Door4,-0.355555534,-0.012962977,1,0,0,0.7183,optionLeft,80,16110,7,35,0,35,0,1,,,,,,,,,,,,,,,,,,,,,,,,,,,,,,,,,,,,,,,
,,,,,,,,2023-08-16_08h51.54.697,HF_wild_card,2022.2.4,Win32,60.27364234,5ef660beebde2833d8492e58,64d2fd46c836a06233681665,64dc7f24b4214cff76e6c109,,,,,,,,,,,,,,,,,,,,,,,,,,6,0,6,0,1,,,,,,,,,,,,,,,,,,,,,,,,,,,,,,,,,,
,,,,,,,,2023-08-16_08h51.54.697,HF_wild_card,2022.2.4,Win32,60.27364234,5ef660beebde2833d8492e58,64d2fd46c836a06233681665,64dc7f24b4214cff76e6c109,,,,,,,,,,,,,,,,,,,,,,,,,,,,,,,4,,,,,,,,,,,,,,,,,,,,,,,,,,,,,,,,,
,,,,,,,,2023-08-16_08h51.54.697,HF_wild_card,2022.2.4,Win32,60.27364234,5ef660beebde2833d8492e58,64d2fd46c836a06233681665,64dc7f24b4214cff76e6c109,,,,,,,,,,,,,,,,,,,,,,,,,,,,,,,,,,,,,,,,,,,,,,,,,,,,,,,,,,,,,,,,
,,,,,,,,2023-08-16_08h51.54.697,HF_wild_card,2022.2.4,Win32,60.27364234,5ef660beebde2833d8492e58,64d2fd46c836a06233681665,64dc7f24b4214cff76e6c109,,,,,,,,,,,,,,,,,,,,,,,,,,,,,,,,5,WC_extreme,resources/DG.BMP,0,0,0,0,1,,,,,,,,,,,,,,,,,,,,,,,,,
,,,,,,,,2023-08-16_08h51.54.697,HF_wild_card,2022.2.4,Win32,60.27364234,5ef660beebde2833d8492e58,64d2fd46c836a06233681665,64dc7f24b4214cff76e6c109,,,,,,,,,,,,,,,,,,,,,,,,,,,,,,,,80,Door4,resources/DBN.BMP,1,0,1,0,1,,,,,,,,,,,,,,,,,,,,,,,,,
,,,,,,,,2023-08-16_08h51.54.697,HF_wild_card,2022.2.4,Win32,60.27364234,5ef660beebde2833d8492e58,64d2fd46c836a06233681665,64dc7f24b4214cff76e6c109,,,,,,,,,,,,,,,,,,,,,,,,,,,,,,,,20,Door1,resources/DB.BMP,2,0,2,0,1,,,,,,,,,,,,,,,,,,,,,,,,,
,,,,,,,,2023-08-16_08h51.54.697,HF_wild_card,2022.2.4,Win32,60.27364234,5ef660beebde2833d8492e58,64d2fd46c836a06233681665,64dc7f24b4214cff76e6c109,,,,,,,,,,,,,,,,,,,,,,,,,,,,,,,,55,WC_nonExtreme,resources/DY.BMP,3,0,3,0,1,,,,,,,,,,,,,,,,,,,,,,,,,
,,,,,,,,2023-08-16_08h51.54.697,HF_wild_card,2022.2.4,Win32,60.27364234,5ef660beebde2833d8492e58,64d2fd46c836a06233681665,64dc7f24b4214cff76e6c109,,,,,,,,,,,,,,,,,,,,,,,,,,,,,,,,30,Door2,resources/DR.BMP,4,0,4,0,1,,,,,,,,,,,,,,,,,,,,,,,,,
,,,,,,,,2023-08-16_08h51.54.697,HF_wild_card,2022.2.4,Win32,60.27364234,5ef660beebde2833d8492e58,64d2fd46c836a06233681665,64dc7f24b4214cff76e6c109,,,,,,,,,,,,,,,,,,,,,,,,,,,,,,,,70,Door3,resources/DP.BMP,5,0,5,0,1,,,,,,,,,,,,,,,,,,,,,,,,,
,,,,,,,,2023-08-16_08h51.54.697,HF_wild_card,2022.2.4,Win32,60.27364234,5ef660beebde2833d8492e58,64d2fd46c836a06233681665,64dc7f24b4214cff76e6c109,,,,,,,,,,,,,,,,,,,,,,,,,,,,,,,,,,,,,,,,,,,,,,,,,,,,,,,,,,,,,,,,
,,,,,,,,2023-08-16_08h51.54.697,HF_wild_card,2022.2.4,Win32,60.27364234,5ef660beebde2833d8492e58,64d2fd46c836a06233681665,64dc7f24b4214cff76e6c109,,,,,,,,,,,,,,,,,,,,,,,,,,,,,,,,,,,,,,,,0,0,0,0,1,,,,,,,,,,,,,,,,,,,,
