Condition,Low fixed image (Door1),Low risky image (Door2),High fixed image (Door3),High risky image (Door4),Extreme Wild Card,NonExtreme Wild Card,,date,expName,psychopyVersion,OS,frameRate,PROLIFIC_PID,STUDY_ID,SESSION_ID,mouse_2.x,mouse_2.y,mouse_2.leftButton,mouse_2.midButton,mouse_2.rightButton,mouse_2.clicked_name,Trial Type,Left Option Image,Right Option Image,Chosen Door,mouse.x,mouse.y,mouse.leftButton,mouse.midButton,mouse.rightButton,mouse.time,mouse.clicked_name,Feedback,Cumulative Reward,Block,trial.thisRepN,trial.thisTrialN,trial.thisN,trial.thisIndex,trial.ran,blocks.thisRepN,blocks.thisTrialN,blocks.thisN,blocks.thisIndex,blocks.ran,Money conversion,First Outcome Reported,Shown Door (First Outcome),Displayed Image (First Outcome),outcomes.thisRepN,outcomes.thisTrialN,outcomes.thisN,outcomes.thisIndex,outcomes.ran,judgments.thisRepN,judgments.thisTrialN,judgments.thisN,judgments.thisIndex,judgments.ran,freqMouse.x,freqMouse.y,freqMouse.leftButton,freqMouse.midButton,freqMouse.rightButton,freqMouse.clicked_name,FQJ for first outcome,FQJ for second outcome,Shown Door,Displayed Image,trials.thisRepN,trials.thisTrialN,trials.thisN,trials.thisIndex,trials.ran,judgBlock.thisRepN,judgBlock.thisTrialN,judgBlock.thisN,judgBlock.thisIndex,judgBlock.ran
1,resources/DB.BMP,resources/DR.BMP,resources/DY.BMP,resources/DP.BMP,resources/DBN.BMP,resources/DG.BMP,,2023-08-16_08h43.37.936,HF_wild_card,2022.2.4,Win32,62.37135907,636a64b9de83082028122c63,64d2fd46c836a06233681665,64dc7e07bd8f1d06ebe1fce1,,,,,,,,,,,,,,,,,,,,,,,,,,,,,,,,,,,,,,,,,,,,,,,,,,,,,,,,,,,,,,,,
,,,,,,,,2023-08-16_08h43.37.936,HF_wild_card,2022.2.4,Win32,62.37135907,636a64b9de83082028122c63,64d2fd46c836a06233681665,64dc7e07bd8f1d06ebe1fce1,0.006510417,-0.42578125,1,0,0,agree,,,,,,,,,,,,,,,,,,,,,,,,,,,,,,,,,,,,,,,,,,,,,,,,,,,,,,,,,,
,,,,,,,,2023-08-16_08h43.37.936,HF_wild_card,2022.2.4,Win32,62.37135907,636a64b9de83082028122c63,64d2fd46c836a06233681665,64dc7e07bd8f1d06ebe1fce1,,,,,,,,,,,,,,,,,,,,,,,,,,,,,,,,,,,,,,,,,,,,,,,,,,,,,,,,,,,,,,,,
,,,,,,,,2023-08-16_08h43.37.936,HF_wild_card,2022.2.4,Win32,62.37135907,636a64b9de83082028122c63,64d2fd46c836a06233681665,64dc7e07bd8f1d06ebe1fce1,,,,,,,sngl,resources/DG.BMP,resources/Empty.png,WildCard_NonEx,-0.223958333,-0.1328125,1,0,0,3.5349,optionLeft,45,45,1,0,0,0,0,1,,,,,,,,,,,,,,,,,,,,,,,,,,,,,,,,,,,,,,,
,,,,,,,,2023-08-16_08h43.37.936,HF_wild_card,2022.2.4,Win32,62.37135907,636a64b9de83082028122c63,64d2fd46c836a06233681665,64dc7e07bd8f1d06ebe1fce1,,,,,,,sngl,resources/DR.BMP,resources/Empty.png,Door2,-0.223958333,-0.005208333,1,0,0,1.5284,optionLeft,40,85,1,1,0,1,0,1,,,,,,,,,,,,,,,,,,,,,,,,,,,,,,,,,,,,,,,
,,,,,,,,2023-08-16_08h43.37.936,HF_wild_card,2022.2.4,Win32,62.37135907,636a64b9de83082028122c63,64d2fd46c836a06233681665,64dc7e07bd8f1d06ebe1fce1,,,,,,,sngl,resources/Empty.png,resources/DG.BMP,WildCard_NonEx,0.328125,-0.052083333,1,0,0,1.2659,optionRight,45,130,1,2,0,2,0,1,,,,,,,,,,,,,,,,,,,,,,,,,,,,,,,,,,,,,,,
,,,,,,,,2023-08-16_08h43.37.936,HF_wild_card,2022.2.4,Win32,62.37135907,636a64b9de83082028122c63,64d2fd46c836a06233681665,64dc7e07bd8f1d06ebe1fce1,,,,,,,ctch,resources/DP.BMP,resources/DB.BMP,Door1,0.307291667,-0.052083333,1,0,0,1.8312,optionRight,30,160,1,3,0,3,0,1,,,,,,,,,,,,,,,,,,,,,,,,,,,,,,,,,,,,,,,
,,,,,,,,2023-08-16_08h43.37.936,HF_wild_card,2022.2.4,Win32,62.37135907,636a64b9de83082028122c63,64d2fd46c836a06233681665,64dc7e07bd8f1d06ebe1fce1,,,,,,,ctch,resources/DR.BMP,resources/DY.BMP,Door3,0.290364583,-0.024739583,1,0,0,2.0034,optionRight,70,230,1,4,0,4,0,1,,,,,,,,,,,,,,,,,,,,,,,,,,,,,,,,,,,,,,,
,,,,,,,,2023-08-16_08h43.37.936,HF_wild_card,2022.2.4,Win32,62.37135907,636a64b9de83082028122c63,64d2fd46c836a06233681665,64dc7e07bd8f1d06ebe1fce1,,,,,,,ctch,resources/DB.BMP,resources/DP.BMP,Door4,0.395833333,-0.135416667,1,0,0,3.242,optionRight,80,310,1,5,0,5,0,1,,,,,,,,,,,,,,,,,,,,,,,,,,,,,,,,,,,,,,,
,,,,,,,,2023-08-16_08h43.37.936,HF_wild_card,2022.2.4,Win32,62.37135907,636a64b9de83082028122c63,64d2fd46c836a06233681665,64dc7e07bd8f1d06ebe1fce1,,,,,,,decisionTrl,resources/DR.BMP,resources/DB.BMP,Door1,0.27734375,-0.036458333,1,0,0,2.4081,optionRight,30,340,1,6,0,6,0,1,,,,,,,,,,,,,,,,,,,,,,,,,,,,,,,,,,,,,,,
,,,,,,,,2023-08-16_08h43.37.936,HF_wild_card,2022.2.4,Win32,62.37135907,636a64b9de83082028122c63,64d2fd46c836a06233681665,64dc7e07bd8f1d06ebe1fce1,,,,,,,decisionTrl,resources/DB.BMP,resources/DR.BMP,Door2,0.389322917,-0.0234375,1,0,0,2.3051,optionRight,20,360,1,7,0,7,0,1,,,,,,,,,,,,,,,,,,,,,,,,,,,,,,,,,,,,,,,
,,,,,,,,2023-08-16_08h43.37.936,HF_wild_card,2022.2.4,Win32,62.37135907,636a64b9de83082028122c63,64d2fd46c836a06233681665,64dc7e07bd8f1d06ebe1fce1,,,,,,,ctch,resources/DB.BMP,resources/DP.BMP,Door1,-0.303385417,-0.001302083,1,0,0,1.961,optionLeft,30,390,1,8,0,8,0,1,,,,,,,,,,,,,,,,,,,,,,,,,,,,,,,,,,,,,,,
,,,,,,,,2023-08-16_08h43.37.936,HF_wild_card,2022.2.4,Win32,62.37135907,636a64b9de83082028122c63,64d2fd46c836a06233681665,64dc7e07bd8f1d06ebe1fce1,,,,,,,decisionTrl,resources/DY.BMP,resources/DP.BMP,Door3,-0.264322917,0.014322917,1,0,0,1.7932,optionLeft,70,460,1,9,0,9,0,1,,,,,,,,,,,,,,,,,,,,,,,,,,,,,,,,,,,,,,,
,,,,,,,,2023-08-16_08h43.37.936,HF_wild_card,2022.2.4,Win32,62.37135907,636a64b9de83082028122c63,64d2fd46c836a06233681665,64dc7e07bd8f1d06ebe1fce1,,,,,,,decisionTrl,resources/DG.BMP,resources/DB.BMP,WildCard_NonEx,-0.321614583,0.014322917,1,0,0,1.6243,optionLeft,45,505,1,10,0,10,0,1,,,,,,,,,,,,,,,,,,,,,,,,,,,,,,,,,,,,,,,
,,,,,,,,2023-08-16_08h43.37.936,HF_wild_card,2022.2.4,Win32,62.37135907,636a64b9de83082028122c63,64d2fd46c836a06233681665,64dc7e07bd8f1d06ebe1fce1,,,,,,,decisionTrl,resources/DB.BMP,resources/DG.BMP,WildCard_NonEx,0.319010417,-0.016927083,1,0,0,1.5962,optionRight,55,560,1,11,0,11,0,1,,,,,,,,,,,,,,,,,,,,,,,,,,,,,,,,,,,,,,,
,,,,,,,,2023-08-16_08h43.37.936,HF_wild_card,2022.2.4,Win32,62.37135907,636a64b9de83082028122c63,64d2fd46c836a06233681665,64dc7e07bd8f1d06ebe1fce1,,,,,,,decisionTrl,resources/DR.BMP,resources/DB.BMP,Door2,-0.272135417,0.002604167,1,0,0,1.6097,optionLeft,20,580,1,12,0,12,0,1,,,,,,,,,,,,,,,,,,,,,,,,,,,,,,,,,,,,,,,
,,,,,,,,2023-08-16_08h43.37.936,HF_wild_card,2022.2.4,Win32,62.37135907,636a64b9de83082028122c63,64d2fd46c836a06233681665,64dc7e07bd8f1d06ebe1fce1,,,,,,,decisionTrl,resources/DB.BMP,resources/DR.BMP,Door1,-0.317708333,-0.020833333,1,0,0,1.6581,optionLeft,30,610,1,13,0,13,0,1,,,,,,,,,,,,,,,,,,,,,,,,,,,,,,,,,,,,,,,
,,,,,,,,2023-08-16_08h43.37.936,HF_wild_card,2022.2.4,Win32,62.37135907,636a64b9de83082028122c63,64d2fd46c836a06233681665,64dc7e07bd8f1d06ebe1fce1,,,,,,,sngl,resources/Empty.png,resources/DY.BMP,Door3,0.3203125,-0.022135417,1,0,0,1.4413,optionRight,70,680,1,14,0,14,0,1,,,,,,,,,,,,,,,,,,,,,,,,,,,,,,,,,,,,,,,
,,,,,,,,2023-08-16_08h43.37.936,HF_wild_card,2022.2.4,Win32,62.37135907,636a64b9de83082028122c63,64d2fd46c836a06233681665,64dc7e07bd8f1d06ebe1fce1,,,,,,,sngl,resources/Empty.png,resources/DR.BMP,Door2,0.283854167,-0.040364583,1,0,0,1.2508,optionRight,20,700,1,15,0,15,0,1,,,,,,,,,,,,,,,,,,,,,,,,,,,,,,,,,,,,,,,
,,,,,,,,2023-08-16_08h43.37.936,HF_wild_card,2022.2.4,Win32,62.37135907,636a64b9de83082028122c63,64d2fd46c836a06233681665,64dc7e07bd8f1d06ebe1fce1,,,,,,,sngl,resources/DP.BMP,resources/Empty.png,Door4,-0.317708333,-0.015625,1,0,0,1.2925,optionLeft,80,780,1,16,0,16,0,1,,,,,,,,,,,,,,,,,,,,,,,,,,,,,,,,,,,,,,,
,,,,,,,,2023-08-16_08h43.37.936,HF_wild_card,2022.2.4,Win32,62.37135907,636a64b9de83082028122c63,64d2fd46c836a06233681665,64dc7e07bd8f1d06ebe1fce1,,,,,,,decisionTrl,resources/DG.BMP,resources/DY.BMP,Door3,0.287760417,-0.03125,1,0,0,1.7572,optionRight,70,850,1,17,0,17,0,1,,,,,,,,,,,,,,,,,,,,,,,,,,,,,,,,,,,,,,,
,,,,,,,,2023-08-16_08h43.37.936,HF_wild_card,2022.2.4,Win32,62.37135907,636a64b9de83082028122c63,64d2fd46c836a06233681665,64dc7e07bd8f1d06ebe1fce1,,,,,,,decisionTrl,resources/DR.BMP,resources/DB.BMP,Door2,-0.330729167,-0.0234375,1,0,0,1.5502,optionLeft,40,890,1,18,0,18,0,1,,,,,,,,,,,,,,,,,,,,,,,,,,,,,,,,,,,,,,,
,,,,,,,,2023-08-16_08h43.37.936,HF_wild_card,2022.2.4,Win32,62.37135907,636a64b9de83082028122c63,64d2fd46c836a06233681665,64dc7e07bd8f1d06ebe1fce1,,,,,,,decisionTrl,resources/DR.BMP,resources/DG.BMP,WildCard_NonEx,0.364583333,0.00390625,1,0,0,1.5335,optionRight,55,945,1,19,0,19,0,1,,,,,,,,,,,,,,,,,,,,,,,,,,,,,,,,,,,,,,,
,,,,,,,,2023-08-16_08h43.37.936,HF_wild_card,2022.2.4,Win32,62.37135907,636a64b9de83082028122c63,64d2fd46c836a06233681665,64dc7e07bd8f1d06ebe1fce1,,,,,,,decisionTrl,resources/DP.BMP,resources/DY.BMP,Door3,0.381510417,-0.0859375,1,0,0,1.6514,optionRight,70,1015,1,20,0,20,0,1,,,,,,,,,,,,,,,,,,,,,,,,,,,,,,,,,,,,,,,
,,,,,,,,2023-08-16_08h43.37.936,HF_wild_card,2022.2.4,Win32,62.37135907,636a64b9de83082028122c63,64d2fd46c836a06233681665,64dc7e07bd8f1d06ebe1fce1,,,,,,,decisionTrl,resources/DR.BMP,resources/DB.BMP,Door2,-0.264322917,-0.005208333,1,0,0,1.4152,optionLeft,20,1035,1,21,0,21,0,1,,,,,,,,,,,,,,,,,,,,,,,,,,,,,,,,,,,,,,,
,,,,,,,,2023-08-16_08h43.37.936,HF_wild_card,2022.2.4,Win32,62.37135907,636a64b9de83082028122c63,64d2fd46c836a06233681665,64dc7e07bd8f1d06ebe1fce1,,,,,,,ctch,resources/DP.BMP,resources/DB.BMP,Door4,-0.24609375,-0.013020833,1,0,0,1.7906,optionLeft,80,1115,1,22,0,22,0,1,,,,,,,,,,,,,,,,,,,,,,,,,,,,,,,,,,,,,,,
,,,,,,,,2023-08-16_08h43.37.936,HF_wild_card,2022.2.4,Win32,62.37135907,636a64b9de83082028122c63,64d2fd46c836a06233681665,64dc7e07bd8f1d06ebe1fce1,,,,,,,decisionTrl,resources/DY.BMP,resources/DG.BMP,WildCard_NonEx,0.272135417,-0.0546875,1,0,0,1.718,optionRight,55,1170,1,23,0,23,0,1,,,,,,,,,,,,,,,,,,,,,,,,,,,,,,,,,,,,,,,
,,,,,,,,2023-08-16_08h43.37.936,HF_wild_card,2022.2.4,Win32,62.37135907,636a64b9de83082028122c63,64d2fd46c836a06233681665,64dc7e07bd8f1d06ebe1fce1,,,,,,,ctch,resources/DR.BMP,resources/DY.BMP,Door3,0.326822917,-0.036458333,1,0,0,1.512,optionRight,70,1240,1,24,0,24,0,1,,,,,,,,,,,,,,,,,,,,,,,,,,,,,,,,,,,,,,,
,,,,,,,,2023-08-16_08h43.37.936,HF_wild_card,2022.2.4,Win32,62.37135907,636a64b9de83082028122c63,64d2fd46c836a06233681665,64dc7e07bd8f1d06ebe1fce1,,,,,,,ctch,resources/DY.BMP,resources/DR.BMP,Door3,-0.302083333,-0.014322917,1,0,0,1.7411,optionLeft,70,1310,1,25,0,25,0,1,,,,,,,,,,,,,,,,,,,,,,,,,,,,,,,,,,,,,,,
,,,,,,,,2023-08-16_08h43.37.936,HF_wild_card,2022.2.4,Win32,62.37135907,636a64b9de83082028122c63,64d2fd46c836a06233681665,64dc7e07bd8f1d06ebe1fce1,,,,,,,decisionTrl,resources/DP.BMP,resources/DY.BMP,Door3,0.319010417,-0.041666667,1,0,0,1.3997,optionRight,70,1380,1,26,0,26,0,1,,,,,,,,,,,,,,,,,,,,,,,,,,,,,,,,,,,,,,,
,,,,,,,,2023-08-16_08h43.37.936,HF_wild_card,2022.2.4,Win32,62.37135907,636a64b9de83082028122c63,64d2fd46c836a06233681665,64dc7e07bd8f1d06ebe1fce1,,,,,,,decisionTrl,resources/DB.BMP,resources/DR.BMP,Door2,0.346354167,-0.045572917,1,0,0,1.6272,optionRight,40,1420,1,27,0,27,0,1,,,,,,,,,,,,,,,,,,,,,,,,,,,,,,,,,,,,,,,
,,,,,,,,2023-08-16_08h43.37.936,HF_wild_card,2022.2.4,Win32,62.37135907,636a64b9de83082028122c63,64d2fd46c836a06233681665,64dc7e07bd8f1d06ebe1fce1,,,,,,,sngl,resources/Empty.png,resources/DB.BMP,Door1,0.274739583,-0.024739583,1,0,0,1.2714,optionRight,30,1450,1,28,0,28,0,1,,,,,,,,,,,,,,,,,,,,,,,,,,,,,,,,,,,,,,,
,,,,,,,,2023-08-16_08h43.37.936,HF_wild_card,2022.2.4,Win32,62.37135907,636a64b9de83082028122c63,64d2fd46c836a06233681665,64dc7e07bd8f1d06ebe1fce1,,,,,,,decisionTrl,resources/DB.BMP,resources/DR.BMP,Door2,0.227864583,-0.01171875,1,0,0,1.3468,optionRight,40,1490,1,29,0,29,0,1,,,,,,,,,,,,,,,,,,,,,,,,,,,,,,,,,,,,,,,
,,,,,,,,2023-08-16_08h43.37.936,HF_wild_card,2022.2.4,Win32,62.37135907,636a64b9de83082028122c63,64d2fd46c836a06233681665,64dc7e07bd8f1d06ebe1fce1,,,,,,,decisionTrl,resources/DY.BMP,resources/DP.BMP,Door3,-0.321614583,-0.026041667,1,0,0,1.3536,optionLeft,70,1560,1,30,0,30,0,1,,,,,,,,,,,,,,,,,,,,,,,,,,,,,,,,,,,,,,,
,,,,,,,,2023-08-16_08h43.37.936,HF_wild_card,2022.2.4,Win32,62.37135907,636a64b9de83082028122c63,64d2fd46c836a06233681665,64dc7e07bd8f1d06ebe1fce1,,,,,,,sngl,resources/Empty.png,resources/DG.BMP,WildCard_NonEx,0.25,-0.036458333,1,0,0,1.3272,optionRight,55,1615,1,31,0,31,0,1,,,,,,,,,,,,,,,,,,,,,,,,,,,,,,,,,,,,,,,
,,,,,,,,2023-08-16_08h43.37.936,HF_wild_card,2022.2.4,Win32,62.37135907,636a64b9de83082028122c63,64d2fd46c836a06233681665,64dc7e07bd8f1d06ebe1fce1,,,,,,,sngl,resources/DY.BMP,resources/Empty.png,Door3,-0.342447917,0,1,0,0,1.2238,optionLeft,70,1685,1,32,0,32,0,1,,,,,,,,,,,,,,,,,,,,,,,,,,,,,,,,,,,,,,,
,,,,,,,,2023-08-16_08h43.37.936,HF_wild_card,2022.2.4,Win32,62.37135907,636a64b9de83082028122c63,64d2fd46c836a06233681665,64dc7e07bd8f1d06ebe1fce1,,,,,,,sngl,resources/DB.BMP,resources/Empty.png,Door1,-0.264322917,0.00390625,1,0,0,1.3346,optionLeft,30,1715,1,33,0,33,0,1,,,,,,,,,,,,,,,,,,,,,,,,,,,,,,,,,,,,,,,
,,,,,,,,2023-08-16_08h43.37.936,HF_wild_card,2022.2.4,Win32,62.37135907,636a64b9de83082028122c63,64d2fd46c836a06233681665,64dc7e07bd8f1d06ebe1fce1,,,,,,,decisionTrl,resources/DP.BMP,resources/DY.BMP,Door3,0.321614583,-0.0625,1,0,0,1.3608,optionRight,70,1785,1,34,0,34,0,1,,,,,,,,,,,,,,,,,,,,,,,,,,,,,,,,,,,,,,,
,,,,,,,,2023-08-16_08h43.37.936,HF_wild_card,2022.2.4,Win32,62.37135907,636a64b9de83082028122c63,64d2fd46c836a06233681665,64dc7e07bd8f1d06ebe1fce1,,,,,,,sngl,resources/Empty.png,resources/DP.BMP,Door4,0.294270833,-0.057291667,1,0,0,1.3936,optionRight,60,1845,1,35,0,35,0,1,,,,,,,,,,,,,,,,,,,,,,,,,,,,,,,,,,,,,,,
,,,,,,,,2023-08-16_08h43.37.936,HF_wild_card,2022.2.4,Win32,62.37135907,636a64b9de83082028122c63,64d2fd46c836a06233681665,64dc7e07bd8f1d06ebe1fce1,,,,,,,decisionTrl,resources/DP.BMP,resources/DG.BMP,WildCard_NonEx,0.266927083,-0.0625,1,0,0,1.6881,optionRight,45,1890,1,36,0,36,0,1,,,,,,,,,,,,,,,,,,,,,,,,,,,,,,,,,,,,,,,
,,,,,,,,2023-08-16_08h43.37.936,HF_wild_card,2022.2.4,Win32,62.37135907,636a64b9de83082028122c63,64d2fd46c836a06233681665,64dc7e07bd8f1d06ebe1fce1,,,,,,,sngl,resources/DG.BMP,resources/Empty.png,WildCard_NonEx,-0.23046875,0.001302083,1,0,0,1.27,optionLeft,55,1945,1,37,0,37,0,1,,,,,,,,,,,,,,,,,,,,,,,,,,,,,,,,,,,,,,,
,,,,,,,,2023-08-16_08h43.37.936,HF_wild_card,2022.2.4,Win32,62.37135907,636a64b9de83082028122c63,64d2fd46c836a06233681665,64dc7e07bd8f1d06ebe1fce1,,,,,,,decisionTrl,resources/DG.BMP,resources/DP.BMP,WildCard_NonEx,-0.1953125,-0.002604167,1,0,0,1.5227,optionLeft,45,1990,1,38,0,38,0,1,,,,,,,,,,,,,,,,,,,,,,,,,,,,,,,,,,,,,,,
,,,,,,,,2023-08-16_08h43.37.936,HF_wild_card,2022.2.4,Win32,62.37135907,636a64b9de83082028122c63,64d2fd46c836a06233681665,64dc7e07bd8f1d06ebe1fce1,,,,,,,decisionTrl,resources/DP.BMP,resources/DY.BMP,Door3,0.36328125,-0.0234375,1,0,0,1.3193,optionRight,70,2060,1,39,0,39,0,1,,,,,,,,,,,,,,,,,,,,,,,,,,,,,,,,,,,,,,,
,,,,,,,,2023-08-16_08h43.37.936,HF_wild_card,2022.2.4,Win32,62.37135907,636a64b9de83082028122c63,64d2fd46c836a06233681665,64dc7e07bd8f1d06ebe1fce1,,,,,,,decisionTrl,resources/DY.BMP,resources/DP.BMP,Door3,-0.299479167,-0.00390625,1,0,0,1.4282,optionLeft,70,2130,1,40,0,40,0,1,,,,,,,,,,,,,,,,,,,,,,,,,,,,,,,,,,,,,,,
,,,,,,,,2023-08-16_08h43.37.936,HF_wild_card,2022.2.4,Win32,62.37135907,636a64b9de83082028122c63,64d2fd46c836a06233681665,64dc7e07bd8f1d06ebe1fce1,,,,,,,decisionTrl,resources/DY.BMP,resources/DP.BMP,Door4,0.266927083,-0.015625,1,0,0,1.4278,optionRight,80,2210,1,41,0,41,0,1,,,,,,,,,,,,,,,,,,,,,,,,,,,,,,,,,,,,,,,
,,,,,,,,2023-08-16_08h43.37.936,HF_wild_card,2022.2.4,Win32,62.37135907,636a64b9de83082028122c63,64d2fd46c836a06233681665,64dc7e07bd8f1d06ebe1fce1,,,,,,,decisionTrl,resources/DG.BMP,resources/DR.BMP,WildCard_NonEx,-0.399739583,0.006510417,1,0,0,1.2285,optionLeft,55,2265,1,42,0,42,0,1,,,,,,,,,,,,,,,,,,,,,,,,,,,,,,,,,,,,,,,
,,,,,,,,2023-08-16_08h43.37.936,HF_wild_card,2022.2.4,Win32,62.37135907,636a64b9de83082028122c63,64d2fd46c836a06233681665,64dc7e07bd8f1d06ebe1fce1,,,,,,,ctch,resources/DY.BMP,resources/DR.BMP,Door3,-0.227864583,-0.005208333,1,0,0,1.8884,optionLeft,70,2335,1,43,0,43,0,1,,,,,,,,,,,,,,,,,,,,,,,,,,,,,,,,,,,,,,,
,,,,,,,,2023-08-16_08h43.37.936,HF_wild_card,2022.2.4,Win32,62.37135907,636a64b9de83082028122c63,64d2fd46c836a06233681665,64dc7e07bd8f1d06ebe1fce1,,,,,,,,,,,,,,,,,,,,,,,,,,0,0,0,0,1,,,,,,,,,,,,,,,,,,,,,,,,,,,,,,,,,,
,,,,,,,,2023-08-16_08h43.37.936,HF_wild_card,2022.2.4,Win32,62.37135907,636a64b9de83082028122c63,64d2fd46c836a06233681665,64dc7e07bd8f1d06ebe1fce1,,,,,,,decisionTrl,resources/DG.BMP,resources/DY.BMP,Door3,0.174479167,-0.029947917,1,0,0,1.6973,optionRight,70,2405,2,0,0,0,0,1,,,,,,,,,,,,,,,,,,,,,,,,,,,,,,,,,,,,,,,
,,,,,,,,2023-08-16_08h43.37.936,HF_wild_card,2022.2.4,Win32,62.37135907,636a64b9de83082028122c63,64d2fd46c836a06233681665,64dc7e07bd8f1d06ebe1fce1,,,,,,,decisionTrl,resources/DR.BMP,resources/DG.BMP,WildCard_NonEx,0.3671875,-0.01171875,1,0,0,1.4844,optionRight,45,2450,2,1,0,1,0,1,,,,,,,,,,,,,,,,,,,,,,,,,,,,,,,,,,,,,,,
,,,,,,,,2023-08-16_08h43.37.936,HF_wild_card,2022.2.4,Win32,62.37135907,636a64b9de83082028122c63,64d2fd46c836a06233681665,64dc7e07bd8f1d06ebe1fce1,,,,,,,decisionTrl,resources/DY.BMP,resources/DP.BMP,Door3,-0.256510417,0.01171875,1,0,0,1.2503,optionLeft,70,2520,2,2,0,2,0,1,,,,,,,,,,,,,,,,,,,,,,,,,,,,,,,,,,,,,,,
,,,,,,,,2023-08-16_08h43.37.936,HF_wild_card,2022.2.4,Win32,62.37135907,636a64b9de83082028122c63,64d2fd46c836a06233681665,64dc7e07bd8f1d06ebe1fce1,,,,,,,ctch,resources/DR.BMP,resources/DY.BMP,Door3,0.346354167,-0.009114583,1,0,0,1.2786,optionRight,70,2590,2,3,0,3,0,1,,,,,,,,,,,,,,,,,,,,,,,,,,,,,,,,,,,,,,,
,,,,,,,,2023-08-16_08h43.37.936,HF_wild_card,2022.2.4,Win32,62.37135907,636a64b9de83082028122c63,64d2fd46c836a06233681665,64dc7e07bd8f1d06ebe1fce1,,,,,,,decisionTrl,resources/DY.BMP,resources/DG.BMP,Door3,-0.283854167,0.036458333,1,0,0,1.5632,optionLeft,70,2660,2,4,0,4,0,1,,,,,,,,,,,,,,,,,,,,,,,,,,,,,,,,,,,,,,,
,,,,,,,,2023-08-16_08h43.37.936,HF_wild_card,2022.2.4,Win32,62.37135907,636a64b9de83082028122c63,64d2fd46c836a06233681665,64dc7e07bd8f1d06ebe1fce1,,,,,,,decisionTrl,resources/DG.BMP,resources/DP.BMP,WildCard_NonEx,-0.321614583,0.020833333,1,0,0,1.7879,optionLeft,45,2705,2,5,0,5,0,1,,,,,,,,,,,,,,,,,,,,,,,,,,,,,,,,,,,,,,,
,,,,,,,,2023-08-16_08h43.37.936,HF_wild_card,2022.2.4,Win32,62.37135907,636a64b9de83082028122c63,64d2fd46c836a06233681665,64dc7e07bd8f1d06ebe1fce1,,,,,,,decisionTrl,resources/DY.BMP,resources/DP.BMP,Door3,-0.220052083,0.013020833,1,0,0,1.3047,optionLeft,70,2775,2,6,0,6,0,1,,,,,,,,,,,,,,,,,,,,,,,,,,,,,,,,,,,,,,,
,,,,,,,,2023-08-16_08h43.37.936,HF_wild_card,2022.2.4,Win32,62.37135907,636a64b9de83082028122c63,64d2fd46c836a06233681665,64dc7e07bd8f1d06ebe1fce1,,,,,,,ctch,resources/DP.BMP,resources/DB.BMP,Door4,-0.34765625,-0.049479167,1,0,0,1.8469,optionLeft,60,2835,2,7,0,7,0,1,,,,,,,,,,,,,,,,,,,,,,,,,,,,,,,,,,,,,,,
,,,,,,,,2023-08-16_08h43.37.936,HF_wild_card,2022.2.4,Win32,62.37135907,636a64b9de83082028122c63,64d2fd46c836a06233681665,64dc7e07bd8f1d06ebe1fce1,,,,,,,sngl,resources/Empty.png,resources/DP.BMP,Door4,0.24609375,-0.016927083,1,0,0,1.2046,optionRight,80,2915,2,8,0,8,0,1,,,,,,,,,,,,,,,,,,,,,,,,,,,,,,,,,,,,,,,
,,,,,,,,2023-08-16_08h43.37.936,HF_wild_card,2022.2.4,Win32,62.37135907,636a64b9de83082028122c63,64d2fd46c836a06233681665,64dc7e07bd8f1d06ebe1fce1,,,,,,,sngl,resources/DG.BMP,resources/Empty.png,WildCard_NonEx,-0.247395833,0.010416667,1,0,0,1.1603,optionLeft,55,2970,2,9,0,9,0,1,,,,,,,,,,,,,,,,,,,,,,,,,,,,,,,,,,,,,,,
,,,,,,,,2023-08-16_08h43.37.936,HF_wild_card,2022.2.4,Win32,62.37135907,636a64b9de83082028122c63,64d2fd46c836a06233681665,64dc7e07bd8f1d06ebe1fce1,,,,,,,sngl,resources/DR.BMP,resources/Empty.png,Door2,-0.326822917,-0.014322917,1,0,0,1.1911,optionLeft,20,2990,2,10,0,10,0,1,,,,,,,,,,,,,,,,,,,,,,,,,,,,,,,,,,,,,,,
,,,,,,,,2023-08-16_08h43.37.936,HF_wild_card,2022.2.4,Win32,62.37135907,636a64b9de83082028122c63,64d2fd46c836a06233681665,64dc7e07bd8f1d06ebe1fce1,,,,,,,sngl,resources/Empty.png,resources/DR.BMP,Door2,0.358072917,-0.00390625,1,0,0,1.491,optionRight,40,3030,2,11,0,11,0,1,,,,,,,,,,,,,,,,,,,,,,,,,,,,,,,,,,,,,,,
,,,,,,,,2023-08-16_08h43.37.936,HF_wild_card,2022.2.4,Win32,62.37135907,636a64b9de83082028122c63,64d2fd46c836a06233681665,64dc7e07bd8f1d06ebe1fce1,,,,,,,decisionTrl,resources/DP.BMP,resources/DY.BMP,Door3,0.19921875,-0.01171875,1,0,0,1.5588,optionRight,70,3100,2,12,0,12,0,1,,,,,,,,,,,,,,,,,,,,,,,,,,,,,,,,,,,,,,,
,,,,,,,,2023-08-16_08h43.37.936,HF_wild_card,2022.2.4,Win32,62.37135907,636a64b9de83082028122c63,64d2fd46c836a06233681665,64dc7e07bd8f1d06ebe1fce1,,,,,,,sngl,resources/Empty.png,resources/DG.BMP,WildCard_NonEx,0.322916667,-0.020833333,1,0,0,1.3252,optionRight,45,3145,2,13,0,13,0,1,,,,,,,,,,,,,,,,,,,,,,,,,,,,,,,,,,,,,,,
,,,,,,,,2023-08-16_08h43.37.936,HF_wild_card,2022.2.4,Win32,62.37135907,636a64b9de83082028122c63,64d2fd46c836a06233681665,64dc7e07bd8f1d06ebe1fce1,,,,,,,sngl,resources/DP.BMP,resources/Empty.png,Door4,-0.2890625,-0.013020833,1,0,0,1.1764,optionLeft,60,3205,2,14,0,14,0,1,,,,,,,,,,,,,,,,,,,,,,,,,,,,,,,,,,,,,,,
,,,,,,,,2023-08-16_08h43.37.936,HF_wild_card,2022.2.4,Win32,62.37135907,636a64b9de83082028122c63,64d2fd46c836a06233681665,64dc7e07bd8f1d06ebe1fce1,,,,,,,sngl,resources/Empty.png,resources/DG.BMP,WildCard_NonEx,0.361979167,-0.022135417,1,0,0,1.1945,optionRight,55,3260,2,15,0,15,0,1,,,,,,,,,,,,,,,,,,,,,,,,,,,,,,,,,,,,,,,
,,,,,,,,2023-08-16_08h43.37.936,HF_wild_card,2022.2.4,Win32,62.37135907,636a64b9de83082028122c63,64d2fd46c836a06233681665,64dc7e07bd8f1d06ebe1fce1,,,,,,,sngl,resources/Empty.png,resources/DB.BMP,Door1,0.337239583,-0.059895833,1,0,0,1.267,optionRight,30,3290,2,16,0,16,0,1,,,,,,,,,,,,,,,,,,,,,,,,,,,,,,,,,,,,,,,
,,,,,,,,2023-08-16_08h43.37.936,HF_wild_card,2022.2.4,Win32,62.37135907,636a64b9de83082028122c63,64d2fd46c836a06233681665,64dc7e07bd8f1d06ebe1fce1,,,,,,,decisionTrl,resources/DR.BMP,resources/DB.BMP,Door1,0.2421875,-0.037760417,1,0,0,1.8412,optionRight,30,3320,2,17,0,17,0,1,,,,,,,,,,,,,,,,,,,,,,,,,,,,,,,,,,,,,,,
,,,,,,,,2023-08-16_08h43.37.936,HF_wild_card,2022.2.4,Win32,62.37135907,636a64b9de83082028122c63,64d2fd46c836a06233681665,64dc7e07bd8f1d06ebe1fce1,,,,,,,ctch,resources/DP.BMP,resources/DB.BMP,Door4,-0.296875,-0.005208333,1,0,0,1.2517,optionLeft,80,3400,2,18,0,18,0,1,,,,,,,,,,,,,,,,,,,,,,,,,,,,,,,,,,,,,,,
,,,,,,,,2023-08-16_08h43.37.936,HF_wild_card,2022.2.4,Win32,62.37135907,636a64b9de83082028122c63,64d2fd46c836a06233681665,64dc7e07bd8f1d06ebe1fce1,,,,,,,ctch,resources/DY.BMP,resources/DR.BMP,Door3,-0.204427083,-0.010416667,1,0,0,1.4792,optionLeft,70,3470,2,19,0,19,0,1,,,,,,,,,,,,,,,,,,,,,,,,,,,,,,,,,,,,,,,
,,,,,,,,2023-08-16_08h43.37.936,HF_wild_card,2022.2.4,Win32,62.37135907,636a64b9de83082028122c63,64d2fd46c836a06233681665,64dc7e07bd8f1d06ebe1fce1,,,,,,,sngl,resources/DB.BMP,resources/Empty.png,Door1,-0.283854167,-0.0078125,1,0,0,1.1899,optionLeft,30,3500,2,20,0,20,0,1,,,,,,,,,,,,,,,,,,,,,,,,,,,,,,,,,,,,,,,
,,,,,,,,2023-08-16_08h43.37.936,HF_wild_card,2022.2.4,Win32,62.37135907,636a64b9de83082028122c63,64d2fd46c836a06233681665,64dc7e07bd8f1d06ebe1fce1,,,,,,,ctch,resources/DR.BMP,resources/DY.BMP,Door3,0.221354167,-0.018229167,1,0,0,1.3096,optionRight,70,3570,2,21,0,21,0,1,,,,,,,,,,,,,,,,,,,,,,,,,,,,,,,,,,,,,,,
,,,,,,,,2023-08-16_08h43.37.936,HF_wild_card,2022.2.4,Win32,62.37135907,636a64b9de83082028122c63,64d2fd46c836a06233681665,64dc7e07bd8f1d06ebe1fce1,,,,,,,decisionTrl,resources/DY.BMP,resources/DP.BMP,Door3,-0.265625,0.005208333,1,0,0,1.2283,optionLeft,70,3640,2,22,0,22,0,1,,,,,,,,,,,,,,,,,,,,,,,,,,,,,,,,,,,,,,,
,,,,,,,,2023-08-16_08h43.37.936,HF_wild_card,2022.2.4,Win32,62.37135907,636a64b9de83082028122c63,64d2fd46c836a06233681665,64dc7e07bd8f1d06ebe1fce1,,,,,,,ctch,resources/DB.BMP,resources/DP.BMP,Door4,0.247395833,-0.026041667,1,0,0,1.4021,optionRight,80,3720,2,23,0,23,0,1,,,,,,,,,,,,,,,,,,,,,,,,,,,,,,,,,,,,,,,
,,,,,,,,2023-08-16_08h43.37.936,HF_wild_card,2022.2.4,Win32,62.37135907,636a64b9de83082028122c63,64d2fd46c836a06233681665,64dc7e07bd8f1d06ebe1fce1,,,,,,,decisionTrl,resources/DB.BMP,resources/DR.BMP,Door2,0.22265625,-0.033854167,1,0,0,1.7823,optionRight,40,3760,2,24,0,24,0,1,,,,,,,,,,,,,,,,,,,,,,,,,,,,,,,,,,,,,,,
,,,,,,,,2023-08-16_08h43.37.936,HF_wild_card,2022.2.4,Win32,62.37135907,636a64b9de83082028122c63,64d2fd46c836a06233681665,64dc7e07bd8f1d06ebe1fce1,,,,,,,sngl,resources/Empty.png,resources/DY.BMP,Door3,0.337239583,0.053385417,1,0,0,1.5214,optionRight,70,3830,2,25,0,25,0,1,,,,,,,,,,,,,,,,,,,,,,,,,,,,,,,,,,,,,,,
,,,,,,,,2023-08-16_08h43.37.936,HF_wild_card,2022.2.4,Win32,62.37135907,636a64b9de83082028122c63,64d2fd46c836a06233681665,64dc7e07bd8f1d06ebe1fce1,,,,,,,decisionTrl,resources/DR.BMP,resources/DB.BMP,Door2,-0.302083333,-0.0078125,1,0,0,1.4084,optionLeft,40,3870,2,26,0,26,0,1,,,,,,,,,,,,,,,,,,,,,,,,,,,,,,,,,,,,,,,
,,,,,,,,2023-08-16_08h43.37.936,HF_wild_card,2022.2.4,Win32,62.37135907,636a64b9de83082028122c63,64d2fd46c836a06233681665,64dc7e07bd8f1d06ebe1fce1,,,,,,,decisionTrl,resources/DG.BMP,resources/DR.BMP,WildCard_NonEx,-0.153645833,-0.0078125,1,0,0,1.9865,optionLeft,55,3925,2,27,0,27,0,1,,,,,,,,,,,,,,,,,,,,,,,,,,,,,,,,,,,,,,,
,,,,,,,,2023-08-16_08h43.37.936,HF_wild_card,2022.2.4,Win32,62.37135907,636a64b9de83082028122c63,64d2fd46c836a06233681665,64dc7e07bd8f1d06ebe1fce1,,,,,,,decisionTrl,resources/DR.BMP,resources/DB.BMP,Door2,-0.23046875,0,1,0,0,1.4612,optionLeft,20,3945,2,28,0,28,0,1,,,,,,,,,,,,,,,,,,,,,,,,,,,,,,,,,,,,,,,
,,,,,,,,2023-08-16_08h43.37.936,HF_wild_card,2022.2.4,Win32,62.37135907,636a64b9de83082028122c63,64d2fd46c836a06233681665,64dc7e07bd8f1d06ebe1fce1,,,,,,,decisionTrl,resources/DR.BMP,resources/DB.BMP,Door2,-0.200520833,0.002604167,1,0,0,1.5583,optionLeft,40,3985,2,29,0,29,0,1,,,,,,,,,,,,,,,,,,,,,,,,,,,,,,,,,,,,,,,
,,,,,,,,2023-08-16_08h43.37.936,HF_wild_card,2022.2.4,Win32,62.37135907,636a64b9de83082028122c63,64d2fd46c836a06233681665,64dc7e07bd8f1d06ebe1fce1,,,,,,,decisionTrl,resources/DB.BMP,resources/DR.BMP,Door2,0.2421875,0.01171875,1,0,0,1.6526,optionRight,40,4025,2,30,0,30,0,1,,,,,,,,,,,,,,,,,,,,,,,,,,,,,,,,,,,,,,,
,,,,,,,,2023-08-16_08h43.37.936,HF_wild_card,2022.2.4,Win32,62.37135907,636a64b9de83082028122c63,64d2fd46c836a06233681665,64dc7e07bd8f1d06ebe1fce1,,,,,,,decisionTrl,resources/DB.BMP,resources/DR.BMP,Door1,-0.203125,0.005208333,1,0,0,1.2592,optionLeft,30,4055,2,31,0,31,0,1,,,,,,,,,,,,,,,,,,,,,,,,,,,,,,,,,,,,,,,
,,,,,,,,2023-08-16_08h43.37.936,HF_wild_card,2022.2.4,Win32,62.37135907,636a64b9de83082028122c63,64d2fd46c836a06233681665,64dc7e07bd8f1d06ebe1fce1,,,,,,,decisionTrl,resources/DB.BMP,resources/DR.BMP,Door1,-0.2578125,0.006510417,1,0,0,1.6612,optionLeft,30,4085,2,32,0,32,0,1,,,,,,,,,,,,,,,,,,,,,,,,,,,,,,,,,,,,,,,
,,,,,,,,2023-08-16_08h43.37.936,HF_wild_card,2022.2.4,Win32,62.37135907,636a64b9de83082028122c63,64d2fd46c836a06233681665,64dc7e07bd8f1d06ebe1fce1,,,,,,,sngl,resources/DY.BMP,resources/Empty.png,Door3,-0.233072917,0.010416667,1,0,0,1.2436,optionLeft,70,4155,2,33,0,33,0,1,,,,,,,,,,,,,,,,,,,,,,,,,,,,,,,,,,,,,,,
,,,,,,,,2023-08-16_08h43.37.936,HF_wild_card,2022.2.4,Win32,62.37135907,636a64b9de83082028122c63,64d2fd46c836a06233681665,64dc7e07bd8f1d06ebe1fce1,,,,,,,ctch,resources/DY.BMP,resources/DR.BMP,Door3,-0.25,0.02734375,1,0,0,1.2601,optionLeft,70,4225,2,34,0,34,0,1,,,,,,,,,,,,,,,,,,,,,,,,,,,,,,,,,,,,,,,
,,,,,,,,2023-08-16_08h43.37.936,HF_wild_card,2022.2.4,Win32,62.37135907,636a64b9de83082028122c63,64d2fd46c836a06233681665,64dc7e07bd8f1d06ebe1fce1,,,,,,,decisionTrl,resources/DG.BMP,resources/DB.BMP,WildCard_NonEx,-0.2421875,0.009114583,1,0,0,1.2277,optionLeft,55,4280,2,35,0,35,0,1,,,,,,,,,,,,,,,,,,,,,,,,,,,,,,,,,,,,,,,
,,,,,,,,2023-08-16_08h43.37.936,HF_wild_card,2022.2.4,Win32,62.37135907,636a64b9de83082028122c63,64d2fd46c836a06233681665,64dc7e07bd8f1d06ebe1fce1,,,,,,,ctch,resources/DB.BMP,resources/DP.BMP,Door1,-0.217447917,-0.005208333,1,0,0,1.2968,optionLeft,30,4310,2,36,0,36,0,1,,,,,,,,,,,,,,,,,,,,,,,,,,,,,,,,,,,,,,,
,,,,,,,,2023-08-16_08h43.37.936,HF_wild_card,2022.2.4,Win32,62.37135907,636a64b9de83082028122c63,64d2fd46c836a06233681665,64dc7e07bd8f1d06ebe1fce1,,,,,,,decisionTrl,resources/DP.BMP,resources/DY.BMP,Door3,0.283854167,0.013020833,1,0,0,1.4467,optionRight,70,4380,2,37,0,37,0,1,,,,,,,,,,,,,,,,,,,,,,,,,,,,,,,,,,,,,,,
,,,,,,,,2023-08-16_08h43.37.936,HF_wild_card,2022.2.4,Win32,62.37135907,636a64b9de83082028122c63,64d2fd46c836a06233681665,64dc7e07bd8f1d06ebe1fce1,,,,,,,decisionTrl,resources/DP.BMP,resources/DY.BMP,Door3,0.177083333,-0.045572917,1,0,0,1.5711,optionRight,70,4450,2,38,0,38,0,1,,,,,,,,,,,,,,,,,,,,,,,,,,,,,,,,,,,,,,,
,,,,,,,,2023-08-16_08h43.37.936,HF_wild_card,2022.2.4,Win32,62.37135907,636a64b9de83082028122c63,64d2fd46c836a06233681665,64dc7e07bd8f1d06ebe1fce1,,,,,,,decisionTrl,resources/DY.BMP,resources/DP.BMP,Door3,-0.272135417,-0.006510417,1,0,0,1.2983,optionLeft,70,4520,2,39,0,39,0,1,,,,,,,,,,,,,,,,,,,,,,,,,,,,,,,,,,,,,,,
,,,,,,,,2023-08-16_08h43.37.936,HF_wild_card,2022.2.4,Win32,62.37135907,636a64b9de83082028122c63,64d2fd46c836a06233681665,64dc7e07bd8f1d06ebe1fce1,,,,,,,decisionTrl,resources/DP.BMP,resources/DG.BMP,WildCard_NonEx,0.197916667,-0.03125,1,0,0,1.6259,optionRight,45,4565,2,40,0,40,0,1,,,,,,,,,,,,,,,,,,,,,,,,,,,,,,,,,,,,,,,
,,,,,,,,2023-08-16_08h43.37.936,HF_wild_card,2022.2.4,Win32,62.37135907,636a64b9de83082028122c63,64d2fd46c836a06233681665,64dc7e07bd8f1d06ebe1fce1,,,,,,,sngl,resources/DG.BMP,resources/Empty.png,WildCard_NonEx,-0.265625,0.01953125,1,0,0,1.3858,optionLeft,45,4610,2,41,0,41,0,1,,,,,,,,,,,,,,,,,,,,,,,,,,,,,,,,,,,,,,,
,,,,,,,,2023-08-16_08h43.37.936,HF_wild_card,2022.2.4,Win32,62.37135907,636a64b9de83082028122c63,64d2fd46c836a06233681665,64dc7e07bd8f1d06ebe1fce1,,,,,,,decisionTrl,resources/DB.BMP,resources/DG.BMP,WildCard_NonEx,0.270833333,0,1,0,0,1.5838,optionRight,45,4655,2,42,0,42,0,1,,,,,,,,,,,,,,,,,,,,,,,,,,,,,,,,,,,,,,,
,,,,,,,,2023-08-16_08h43.37.936,HF_wild_card,2022.2.4,Win32,62.37135907,636a64b9de83082028122c63,64d2fd46c836a06233681665,64dc7e07bd8f1d06ebe1fce1,,,,,,,decisionTrl,resources/DP.BMP,resources/DY.BMP,Door3,0.2734375,-0.053385417,1,0,0,1.7567,optionRight,70,4725,2,43,0,43,0,1,,,,,,,,,,,,,,,,,,,,,,,,,,,,,,,,,,,,,,,
,,,,,,,,2023-08-16_08h43.37.936,HF_wild_card,2022.2.4,Win32,62.37135907,636a64b9de83082028122c63,64d2fd46c836a06233681665,64dc7e07bd8f1d06ebe1fce1,,,,,,,,,,,,,,,,,,,,,,,,,,1,0,1,0,1,,,,,,,,,,,,,,,,,,,,,,,,,,,,,,,,,,
,,,,,,,,2023-08-16_08h43.37.936,HF_wild_card,2022.2.4,Win32,62.37135907,636a64b9de83082028122c63,64d2fd46c836a06233681665,64dc7e07bd8f1d06ebe1fce1,,,,,,,decisionTrl,resources/DY.BMP,resources/DP.BMP,Door3,-0.18359375,-0.0859375,1,0,0,1.797,optionLeft,70,4795,3,0,0,0,0,1,,,,,,,,,,,,,,,,,,,,,,,,,,,,,,,,,,,,,,,
,,,,,,,,2023-08-16_08h43.37.936,HF_wild_card,2022.2.4,Win32,62.37135907,636a64b9de83082028122c63,64d2fd46c836a06233681665,64dc7e07bd8f1d06ebe1fce1,,,,,,,decisionTrl,resources/DB.BMP,resources/DG.BMP,WildCard_NonEx,0.309895833,-0.022135417,1,0,0,1.754,optionRight,45,4840,3,1,0,1,0,1,,,,,,,,,,,,,,,,,,,,,,,,,,,,,,,,,,,,,,,
,,,,,,,,2023-08-16_08h43.37.936,HF_wild_card,2022.2.4,Win32,62.37135907,636a64b9de83082028122c63,64d2fd46c836a06233681665,64dc7e07bd8f1d06ebe1fce1,,,,,,,decisionTrl,resources/DB.BMP,resources/DR.BMP,Door2,0.178385417,-0.024739583,1,0,0,1.4753,optionRight,40,4880,3,2,0,2,0,1,,,,,,,,,,,,,,,,,,,,,,,,,,,,,,,,,,,,,,,
,,,,,,,,2023-08-16_08h43.37.936,HF_wild_card,2022.2.4,Win32,62.37135907,636a64b9de83082028122c63,64d2fd46c836a06233681665,64dc7e07bd8f1d06ebe1fce1,,,,,,,sngl,resources/Empty.png,resources/DY.BMP,Door3,0.23828125,-0.015625,1,0,0,1.2144,optionRight,70,4950,3,3,0,3,0,1,,,,,,,,,,,,,,,,,,,,,,,,,,,,,,,,,,,,,,,
,,,,,,,,2023-08-16_08h43.37.936,HF_wild_card,2022.2.4,Win32,62.37135907,636a64b9de83082028122c63,64d2fd46c836a06233681665,64dc7e07bd8f1d06ebe1fce1,,,,,,,sngl,resources/Empty.png,resources/DB.BMP,Door1,0.260416667,-0.009114583,1,0,0,1.277,optionRight,30,4980,3,4,0,4,0,1,,,,,,,,,,,,,,,,,,,,,,,,,,,,,,,,,,,,,,,
,,,,,,,,2023-08-16_08h43.37.936,HF_wild_card,2022.2.4,Win32,62.37135907,636a64b9de83082028122c63,64d2fd46c836a06233681665,64dc7e07bd8f1d06ebe1fce1,,,,,,,decisionTrl,resources/DR.BMP,resources/DB.BMP,Door2,-0.295572917,0.032552083,1,0,0,1.2167,optionLeft,20,5000,3,5,0,5,0,1,,,,,,,,,,,,,,,,,,,,,,,,,,,,,,,,,,,,,,,
,,,,,,,,2023-08-16_08h43.37.936,HF_wild_card,2022.2.4,Win32,62.37135907,636a64b9de83082028122c63,64d2fd46c836a06233681665,64dc7e07bd8f1d06ebe1fce1,,,,,,,decisionTrl,resources/DG.BMP,resources/DY.BMP,WildCard_NonEx,-0.131510417,0.00390625,1,0,0,1.7071,optionLeft,55,5055,3,6,0,6,0,1,,,,,,,,,,,,,,,,,,,,,,,,,,,,,,,,,,,,,,,
,,,,,,,,2023-08-16_08h43.37.936,HF_wild_card,2022.2.4,Win32,62.37135907,636a64b9de83082028122c63,64d2fd46c836a06233681665,64dc7e07bd8f1d06ebe1fce1,,,,,,,sngl,resources/Empty.png,resources/DG.BMP,WildCard_NonEx,0.204427083,-0.018229167,1,0,0,1.1782,optionRight,55,5110,3,7,0,7,0,1,,,,,,,,,,,,,,,,,,,,,,,,,,,,,,,,,,,,,,,
,,,,,,,,2023-08-16_08h43.37.936,HF_wild_card,2022.2.4,Win32,62.37135907,636a64b9de83082028122c63,64d2fd46c836a06233681665,64dc7e07bd8f1d06ebe1fce1,,,,,,,decisionTrl,resources/DY.BMP,resources/DP.BMP,Door3,-0.235677083,0.0078125,1,0,0,1.1116,optionLeft,70,5180,3,8,0,8,0,1,,,,,,,,,,,,,,,,,,,,,,,,,,,,,,,,,,,,,,,
,,,,,,,,2023-08-16_08h43.37.936,HF_wild_card,2022.2.4,Win32,62.37135907,636a64b9de83082028122c63,64d2fd46c836a06233681665,64dc7e07bd8f1d06ebe1fce1,,,,,,,sngl,resources/DB.BMP,resources/Empty.png,Door1,-0.169270833,0.009114583,1,0,0,1.178,optionLeft,30,5210,3,9,0,9,0,1,,,,,,,,,,,,,,,,,,,,,,,,,,,,,,,,,,,,,,,
,,,,,,,,2023-08-16_08h43.37.936,HF_wild_card,2022.2.4,Win32,62.37135907,636a64b9de83082028122c63,64d2fd46c836a06233681665,64dc7e07bd8f1d06ebe1fce1,,,,,,,decisionTrl,resources/DP.BMP,resources/DG.BMP,WildCard_NonEx,0.209635417,-0.006510417,1,0,0,2.2809,optionRight,55,5265,3,10,0,10,0,1,,,,,,,,,,,,,,,,,,,,,,,,,,,,,,,,,,,,,,,
,,,,,,,,2023-08-16_08h43.37.936,HF_wild_card,2022.2.4,Win32,62.37135907,636a64b9de83082028122c63,64d2fd46c836a06233681665,64dc7e07bd8f1d06ebe1fce1,,,,,,,ctch,resources/DR.BMP,resources/DY.BMP,Door3,0.197916667,-0.0078125,1,0,0,1.9674,optionRight,70,5335,3,11,0,11,0,1,,,,,,,,,,,,,,,,,,,,,,,,,,,,,,,,,,,,,,,
,,,,,,,,2023-08-16_08h43.37.936,HF_wild_card,2022.2.4,Win32,62.37135907,636a64b9de83082028122c63,64d2fd46c836a06233681665,64dc7e07bd8f1d06ebe1fce1,,,,,,,sngl,resources/Empty.png,resources/DP.BMP,Door4,0.18359375,-0.024739583,1,0,0,1.3444,optionRight,60,5395,3,12,0,12,0,1,,,,,,,,,,,,,,,,,,,,,,,,,,,,,,,,,,,,,,,
,,,,,,,,2023-08-16_08h43.37.936,HF_wild_card,2022.2.4,Win32,62.37135907,636a64b9de83082028122c63,64d2fd46c836a06233681665,64dc7e07bd8f1d06ebe1fce1,,,,,,,decisionTrl,resources/DR.BMP,resources/DB.BMP,Door2,-0.391927083,-0.009114583,1,0,0,1.2558,optionLeft,20,5415,3,13,0,13,0,1,,,,,,,,,,,,,,,,,,,,,,,,,,,,,,,,,,,,,,,
,,,,,,,,2023-08-16_08h43.37.936,HF_wild_card,2022.2.4,Win32,62.37135907,636a64b9de83082028122c63,64d2fd46c836a06233681665,64dc7e07bd8f1d06ebe1fce1,,,,,,,decisionTrl,resources/DP.BMP,resources/DY.BMP,Door3,0.2109375,-0.033854167,1,0,0,1.6101,optionRight,70,5485,3,14,0,14,0,1,,,,,,,,,,,,,,,,,,,,,,,,,,,,,,,,,,,,,,,
,,,,,,,,2023-08-16_08h43.37.936,HF_wild_card,2022.2.4,Win32,62.37135907,636a64b9de83082028122c63,64d2fd46c836a06233681665,64dc7e07bd8f1d06ebe1fce1,,,,,,,decisionTrl,resources/DR.BMP,resources/DG.BMP,Door2,-0.309895833,0.0078125,1,0,0,1.5836,optionLeft,20,5505,3,15,0,15,0,1,,,,,,,,,,,,,,,,,,,,,,,,,,,,,,,,,,,,,,,
,,,,,,,,2023-08-16_08h43.37.936,HF_wild_card,2022.2.4,Win32,62.37135907,636a64b9de83082028122c63,64d2fd46c836a06233681665,64dc7e07bd8f1d06ebe1fce1,,,,,,,decisionTrl,resources/DP.BMP,resources/DY.BMP,Door3,0.263020833,-0.037760417,1,0,0,1.5254,optionRight,70,5575,3,16,0,16,0,1,,,,,,,,,,,,,,,,,,,,,,,,,,,,,,,,,,,,,,,
,,,,,,,,2023-08-16_08h43.37.936,HF_wild_card,2022.2.4,Win32,62.37135907,636a64b9de83082028122c63,64d2fd46c836a06233681665,64dc7e07bd8f1d06ebe1fce1,,,,,,,sngl,resources/Empty.png,resources/DR.BMP,Door2,0.196614583,-0.03515625,1,0,0,1.2775,optionRight,20,5595,3,17,0,17,0,1,,,,,,,,,,,,,,,,,,,,,,,,,,,,,,,,,,,,,,,
,,,,,,,,2023-08-16_08h43.37.936,HF_wild_card,2022.2.4,Win32,62.37135907,636a64b9de83082028122c63,64d2fd46c836a06233681665,64dc7e07bd8f1d06ebe1fce1,,,,,,,ctch,resources/DR.BMP,resources/DY.BMP,Door3,0.21875,-0.080729167,1,0,0,1.8384,optionRight,70,5665,3,18,0,18,0,1,,,,,,,,,,,,,,,,,,,,,,,,,,,,,,,,,,,,,,,
,,,,,,,,2023-08-16_08h43.37.936,HF_wild_card,2022.2.4,Win32,62.37135907,636a64b9de83082028122c63,64d2fd46c836a06233681665,64dc7e07bd8f1d06ebe1fce1,,,,,,,ctch,resources/DP.BMP,resources/DB.BMP,Door4,-0.15234375,0.00390625,1,0,0,1.3481,optionLeft,80,5745,3,19,0,19,0,1,,,,,,,,,,,,,,,,,,,,,,,,,,,,,,,,,,,,,,,
,,,,,,,,2023-08-16_08h43.37.936,HF_wild_card,2022.2.4,Win32,62.37135907,636a64b9de83082028122c63,64d2fd46c836a06233681665,64dc7e07bd8f1d06ebe1fce1,,,,,,,decisionTrl,resources/DP.BMP,resources/DY.BMP,Door3,0.173177083,-0.013020833,1,0,0,1.6034,optionRight,70,5815,3,20,0,20,0,1,,,,,,,,,,,,,,,,,,,,,,,,,,,,,,,,,,,,,,,
,,,,,,,,2023-08-16_08h43.37.936,HF_wild_card,2022.2.4,Win32,62.37135907,636a64b9de83082028122c63,64d2fd46c836a06233681665,64dc7e07bd8f1d06ebe1fce1,,,,,,,sngl,resources/Empty.png,resources/DG.BMP,WildCard_NonEx,0.143229167,-0.03515625,1,0,0,1.1774,optionRight,45,5860,3,21,0,21,0,1,,,,,,,,,,,,,,,,,,,,,,,,,,,,,,,,,,,,,,,
,,,,,,,,2023-08-16_08h43.37.936,HF_wild_card,2022.2.4,Win32,62.37135907,636a64b9de83082028122c63,64d2fd46c836a06233681665,64dc7e07bd8f1d06ebe1fce1,,,,,,,sngl,resources/DP.BMP,resources/Empty.png,Door4,-0.209635417,-0.016927083,1,0,0,1.1028,optionLeft,80,5940,3,22,0,22,0,1,,,,,,,,,,,,,,,,,,,,,,,,,,,,,,,,,,,,,,,
,,,,,,,,2023-08-16_08h43.37.936,HF_wild_card,2022.2.4,Win32,62.37135907,636a64b9de83082028122c63,64d2fd46c836a06233681665,64dc7e07bd8f1d06ebe1fce1,,,,,,,decisionTrl,resources/DB.BMP,resources/DR.BMP,Door2,0.16796875,-0.045572917,1,0,0,1.3486,optionRight,40,5980,3,23,0,23,0,1,,,,,,,,,,,,,,,,,,,,,,,,,,,,,,,,,,,,,,,
,,,,,,,,2023-08-16_08h43.37.936,HF_wild_card,2022.2.4,Win32,62.37135907,636a64b9de83082028122c63,64d2fd46c836a06233681665,64dc7e07bd8f1d06ebe1fce1,,,,,,,ctch,resources/DB.BMP,resources/DP.BMP,Door1,-0.235677083,0,1,0,0,1.318,optionLeft,30,6010,3,24,0,24,0,1,,,,,,,,,,,,,,,,,,,,,,,,,,,,,,,,,,,,,,,
,,,,,,,,2023-08-16_08h43.37.936,HF_wild_card,2022.2.4,Win32,62.37135907,636a64b9de83082028122c63,64d2fd46c836a06233681665,64dc7e07bd8f1d06ebe1fce1,,,,,,,decisionTrl,resources/DY.BMP,resources/DG.BMP,Door3,-0.200520833,0.013020833,1,0,0,2.4043,optionLeft,70,6080,3,25,0,25,0,1,,,,,,,,,,,,,,,,,,,,,,,,,,,,,,,,,,,,,,,
,,,,,,,,2023-08-16_08h43.37.936,HF_wild_card,2022.2.4,Win32,62.37135907,636a64b9de83082028122c63,64d2fd46c836a06233681665,64dc7e07bd8f1d06ebe1fce1,,,,,,,decisionTrl,resources/DR.BMP,resources/DB.BMP,Door2,-0.177083333,-0.002604167,1,0,0,2.3909,optionLeft,20,6100,3,26,0,26,0,1,,,,,,,,,,,,,,,,,,,,,,,,,,,,,,,,,,,,,,,
,,,,,,,,2023-08-16_08h43.37.936,HF_wild_card,2022.2.4,Win32,62.37135907,636a64b9de83082028122c63,64d2fd46c836a06233681665,64dc7e07bd8f1d06ebe1fce1,,,,,,,decisionTrl,resources/DG.BMP,resources/DR.BMP,WildCard_NonEx,-0.184895833,0.005208333,1,0,0,1.2114,optionLeft,45,6145,3,27,0,27,0,1,,,,,,,,,,,,,,,,,,,,,,,,,,,,,,,,,,,,,,,
,,,,,,,,2023-08-16_08h43.37.936,HF_wild_card,2022.2.4,Win32,62.37135907,636a64b9de83082028122c63,64d2fd46c836a06233681665,64dc7e07bd8f1d06ebe1fce1,,,,,,,ctch,resources/DB.BMP,resources/DP.BMP,Door4,0.18359375,-0.016927083,1,0,0,1.4939,optionRight,80,6225,3,28,0,28,0,1,,,,,,,,,,,,,,,,,,,,,,,,,,,,,,,,,,,,,,,
,,,,,,,,2023-08-16_08h43.37.936,HF_wild_card,2022.2.4,Win32,62.37135907,636a64b9de83082028122c63,64d2fd46c836a06233681665,64dc7e07bd8f1d06ebe1fce1,,,,,,,decisionTrl,resources/DB.BMP,resources/DR.BMP,Door2,0.197916667,-0.037760417,1,0,0,1.6333,optionRight,20,6245,3,29,0,29,0,1,,,,,,,,,,,,,,,,,,,,,,,,,,,,,,,,,,,,,,,
,,,,,,,,2023-08-16_08h43.37.936,HF_wild_card,2022.2.4,Win32,62.37135907,636a64b9de83082028122c63,64d2fd46c836a06233681665,64dc7e07bd8f1d06ebe1fce1,,,,,,,sngl,resources/DY.BMP,resources/Empty.png,Door3,-0.282552083,-0.006510417,1,0,0,1.2626,optionLeft,70,6315,3,30,0,30,0,1,,,,,,,,,,,,,,,,,,,,,,,,,,,,,,,,,,,,,,,
,,,,,,,,2023-08-16_08h43.37.936,HF_wild_card,2022.2.4,Win32,62.37135907,636a64b9de83082028122c63,64d2fd46c836a06233681665,64dc7e07bd8f1d06ebe1fce1,,,,,,,decisionTrl,resources/DG.BMP,resources/DP.BMP,WildCard_NonEx,-0.31640625,0.005208333,1,0,0,1.9218,optionLeft,55,6370,3,31,0,31,0,1,,,,,,,,,,,,,,,,,,,,,,,,,,,,,,,,,,,,,,,
,,,,,,,,2023-08-16_08h43.37.936,HF_wild_card,2022.2.4,Win32,62.37135907,636a64b9de83082028122c63,64d2fd46c836a06233681665,64dc7e07bd8f1d06ebe1fce1,,,,,,,sngl,resources/DG.BMP,resources/Empty.png,WildCard_NonEx,-0.197916667,-0.006510417,1,0,0,2.2571,optionLeft,55,6425,3,32,0,32,0,1,,,,,,,,,,,,,,,,,,,,,,,,,,,,,,,,,,,,,,,
,,,,,,,,2023-08-16_08h43.37.936,HF_wild_card,2022.2.4,Win32,62.37135907,636a64b9de83082028122c63,64d2fd46c836a06233681665,64dc7e07bd8f1d06ebe1fce1,,,,,,,sngl,resources/DR.BMP,resources/Empty.png,Door2,-0.276041667,0,1,0,0,1.7368,optionLeft,40,6465,3,33,0,33,0,1,,,,,,,,,,,,,,,,,,,,,,,,,,,,,,,,,,,,,,,
,,,,,,,,2023-08-16_08h43.37.936,HF_wild_card,2022.2.4,Win32,62.37135907,636a64b9de83082028122c63,64d2fd46c836a06233681665,64dc7e07bd8f1d06ebe1fce1,,,,,,,ctch,resources/DY.BMP,resources/DR.BMP,Door3,-0.209635417,-0.016927083,1,0,0,1.3163,optionLeft,70,6535,3,34,0,34,0,1,,,,,,,,,,,,,,,,,,,,,,,,,,,,,,,,,,,,,,,
,,,,,,,,2023-08-16_08h43.37.936,HF_wild_card,2022.2.4,Win32,62.37135907,636a64b9de83082028122c63,64d2fd46c836a06233681665,64dc7e07bd8f1d06ebe1fce1,,,,,,,decisionTrl,resources/DR.BMP,resources/DB.BMP,Door2,-0.270833333,-0.041666667,1,0,0,1.2955,optionLeft,40,6575,3,35,0,35,0,1,,,,,,,,,,,,,,,,,,,,,,,,,,,,,,,,,,,,,,,
,,,,,,,,2023-08-16_08h43.37.936,HF_wild_card,2022.2.4,Win32,62.37135907,636a64b9de83082028122c63,64d2fd46c836a06233681665,64dc7e07bd8f1d06ebe1fce1,,,,,,,decisionTrl,resources/DB.BMP,resources/DR.BMP,Door2,0.19921875,0.010416667,1,0,0,1.7597,optionRight,40,6615,3,36,0,36,0,1,,,,,,,,,,,,,,,,,,,,,,,,,,,,,,,,,,,,,,,
,,,,,,,,2023-08-16_08h43.37.936,HF_wild_card,2022.2.4,Win32,62.37135907,636a64b9de83082028122c63,64d2fd46c836a06233681665,64dc7e07bd8f1d06ebe1fce1,,,,,,,decisionTrl,resources/DG.BMP,resources/DB.BMP,WildCard_NonEx,-0.186197917,0,1,0,0,1.4942,optionLeft,55,6670,3,37,0,37,0,1,,,,,,,,,,,,,,,,,,,,,,,,,,,,,,,,,,,,,,,
,,,,,,,,2023-08-16_08h43.37.936,HF_wild_card,2022.2.4,Win32,62.37135907,636a64b9de83082028122c63,64d2fd46c836a06233681665,64dc7e07bd8f1d06ebe1fce1,,,,,,,ctch,resources/DP.BMP,resources/DB.BMP,Door4,-0.157552083,-0.005208333,1,0,0,2.4852,optionLeft,80,6750,3,38,0,38,0,1,,,,,,,,,,,,,,,,,,,,,,,,,,,,,,,,,,,,,,,
,,,,,,,,2023-08-16_08h43.37.936,HF_wild_card,2022.2.4,Win32,62.37135907,636a64b9de83082028122c63,64d2fd46c836a06233681665,64dc7e07bd8f1d06ebe1fce1,,,,,,,ctch,resources/DY.BMP,resources/DR.BMP,Door3,-0.287760417,0.014322917,1,0,0,1.1804,optionLeft,70,6820,3,39,0,39,0,1,,,,,,,,,,,,,,,,,,,,,,,,,,,,,,,,,,,,,,,
,,,,,,,,2023-08-16_08h43.37.936,HF_wild_card,2022.2.4,Win32,62.37135907,636a64b9de83082028122c63,64d2fd46c836a06233681665,64dc7e07bd8f1d06ebe1fce1,,,,,,,decisionTrl,resources/DP.BMP,resources/DY.BMP,Door3,0.225260417,-0.026041667,1,0,0,1.5478,optionRight,70,6890,3,40,0,40,0,1,,,,,,,,,,,,,,,,,,,,,,,,,,,,,,,,,,,,,,,
,,,,,,,,2023-08-16_08h43.37.936,HF_wild_card,2022.2.4,Win32,62.37135907,636a64b9de83082028122c63,64d2fd46c836a06233681665,64dc7e07bd8f1d06ebe1fce1,,,,,,,decisionTrl,resources/DY.BMP,resources/DP.BMP,Door3,-0.1953125,0.0078125,1,0,0,1.4766,optionLeft,70,6960,3,41,0,41,0,1,,,,,,,,,,,,,,,,,,,,,,,,,,,,,,,,,,,,,,,
,,,,,,,,2023-08-16_08h43.37.936,HF_wild_card,2022.2.4,Win32,62.37135907,636a64b9de83082028122c63,64d2fd46c836a06233681665,64dc7e07bd8f1d06ebe1fce1,,,,,,,sngl,resources/DG.BMP,resources/Empty.png,WildCard_NonEx,-0.350260417,0.00390625,1,0,0,1.2278,optionLeft,45,7005,3,42,0,42,0,1,,,,,,,,,,,,,,,,,,,,,,,,,,,,,,,,,,,,,,,
,,,,,,,,2023-08-16_08h43.37.936,HF_wild_card,2022.2.4,Win32,62.37135907,636a64b9de83082028122c63,64d2fd46c836a06233681665,64dc7e07bd8f1d06ebe1fce1,,,,,,,decisionTrl,resources/DY.BMP,resources/DP.BMP,Door3,-0.25,0.024739583,1,0,0,0.9427,optionLeft,70,7075,3,43,0,43,0,1,,,,,,,,,,,,,,,,,,,,,,,,,,,,,,,,,,,,,,,
,,,,,,,,2023-08-16_08h43.37.936,HF_wild_card,2022.2.4,Win32,62.37135907,636a64b9de83082028122c63,64d2fd46c836a06233681665,64dc7e07bd8f1d06ebe1fce1,,,,,,,,,,,,,,,,,,,,,,,,,,2,0,2,0,1,,,,,,,,,,,,,,,,,,,,,,,,,,,,,,,,,,
,,,,,,,,2023-08-16_08h43.37.936,HF_wild_card,2022.2.4,Win32,62.37135907,636a64b9de83082028122c63,64d2fd46c836a06233681665,64dc7e07bd8f1d06ebe1fce1,,,,,,,sngl,resources/DB.BMP,resources/Empty.png,Door1,-0.127604167,-0.186197917,1,0,0,1.8021,optionLeft,30,7105,4,0,0,0,0,1,,,,,,,,,,,,,,,,,,,,,,,,,,,,,,,,,,,,,,,
,,,,,,,,2023-08-16_08h43.37.936,HF_wild_card,2022.2.4,Win32,62.37135907,636a64b9de83082028122c63,64d2fd46c836a06233681665,64dc7e07bd8f1d06ebe1fce1,,,,,,,decisionTrl,resources/DBN.BMP,resources/DY.BMP,Door3,0.325520833,-0.02734375,1,0,0,1.477,optionRight,70,7175,4,1,0,1,0,1,,,,,,,,,,,,,,,,,,,,,,,,,,,,,,,,,,,,,,,
,,,,,,,,2023-08-16_08h43.37.936,HF_wild_card,2022.2.4,Win32,62.37135907,636a64b9de83082028122c63,64d2fd46c836a06233681665,64dc7e07bd8f1d06ebe1fce1,,,,,,,sngl,resources/Empty.png,resources/DP.BMP,Door4,0.225260417,-0.0234375,1,0,0,1.0734,optionRight,80,7255,4,2,0,2,0,1,,,,,,,,,,,,,,,,,,,,,,,,,,,,,,,,,,,,,,,
,,,,,,,,2023-08-16_08h43.37.936,HF_wild_card,2022.2.4,Win32,62.37135907,636a64b9de83082028122c63,64d2fd46c836a06233681665,64dc7e07bd8f1d06ebe1fce1,,,,,,,decisionTrl,resources/DP.BMP,resources/DBN.BMP,Door4,-0.302083333,-0.009114583,1,0,0,1.3043,optionLeft,60,7315,4,3,0,3,0,1,,,,,,,,,,,,,,,,,,,,,,,,,,,,,,,,,,,,,,,
,,,,,,,,2023-08-16_08h43.37.936,HF_wild_card,2022.2.4,Win32,62.37135907,636a64b9de83082028122c63,64d2fd46c836a06233681665,64dc7e07bd8f1d06ebe1fce1,,,,,,,sngl,resources/DBN.BMP,resources/Empty.png,WildCard_Ex,-0.225260417,0.009114583,1,0,0,1.0258,optionLeft,95,7410,4,4,0,4,0,1,,,,,,,,,,,,,,,,,,,,,,,,,,,,,,,,,,,,,,,
,,,,,,,,2023-08-16_08h43.37.936,HF_wild_card,2022.2.4,Win32,62.37135907,636a64b9de83082028122c63,64d2fd46c836a06233681665,64dc7e07bd8f1d06ebe1fce1,,,,,,,decisionTrl,resources/DR.BMP,resources/DB.BMP,Door2,-0.2890625,0.013020833,1,0,0,1.1632,optionLeft,20,7430,4,5,0,5,0,1,,,,,,,,,,,,,,,,,,,,,,,,,,,,,,,,,,,,,,,
,,,,,,,,2023-08-16_08h43.37.936,HF_wild_card,2022.2.4,Win32,62.37135907,636a64b9de83082028122c63,64d2fd46c836a06233681665,64dc7e07bd8f1d06ebe1fce1,,,,,,,sngl,resources/Empty.png,resources/DBN.BMP,WildCard_Ex,0.251302083,-0.022135417,1,0,0,1.0371,optionRight,95,7525,4,6,0,6,0,1,,,,,,,,,,,,,,,,,,,,,,,,,,,,,,,,,,,,,,,
,,,,,,,,2023-08-16_08h43.37.936,HF_wild_card,2022.2.4,Win32,62.37135907,636a64b9de83082028122c63,64d2fd46c836a06233681665,64dc7e07bd8f1d06ebe1fce1,,,,,,,decisionTrl,resources/DBN.BMP,resources/DP.BMP,WildCard_Ex,-0.29296875,0.053385417,1,0,0,0.9673,optionLeft,95,7620,4,7,0,7,0,1,,,,,,,,,,,,,,,,,,,,,,,,,,,,,,,,,,,,,,,
,,,,,,,,2023-08-16_08h43.37.936,HF_wild_card,2022.2.4,Win32,62.37135907,636a64b9de83082028122c63,64d2fd46c836a06233681665,64dc7e07bd8f1d06ebe1fce1,,,,,,,ctch,resources/DP.BMP,resources/DB.BMP,Door4,-0.169270833,0.015625,1,0,0,1.4772,optionLeft,80,7700,4,8,0,8,0,1,,,,,,,,,,,,,,,,,,,,,,,,,,,,,,,,,,,,,,,
,,,,,,,,2023-08-16_08h43.37.936,HF_wild_card,2022.2.4,Win32,62.37135907,636a64b9de83082028122c63,64d2fd46c836a06233681665,64dc7e07bd8f1d06ebe1fce1,,,,,,,sngl,resources/Empty.png,resources/DY.BMP,Door3,0.270833333,-0.006510417,1,0,0,1.1241,optionRight,70,7770,4,9,0,9,0,1,,,,,,,,,,,,,,,,,,,,,,,,,,,,,,,,,,,,,,,
,,,,,,,,2023-08-16_08h43.37.936,HF_wild_card,2022.2.4,Win32,62.37135907,636a64b9de83082028122c63,64d2fd46c836a06233681665,64dc7e07bd8f1d06ebe1fce1,,,,,,,decisionTrl,resources/DR.BMP,resources/DBN.BMP,WildCard_Ex,0.248697917,-0.002604167,1,0,0,1.4385,optionRight,5,7775,4,10,0,10,0,1,,,,,,,,,,,,,,,,,,,,,,,,,,,,,,,,,,,,,,,
,,,,,,,,2023-08-16_08h43.37.936,HF_wild_card,2022.2.4,Win32,62.37135907,636a64b9de83082028122c63,64d2fd46c836a06233681665,64dc7e07bd8f1d06ebe1fce1,,,,,,,decisionTrl,resources/DR.BMP,resources/DB.BMP,Door2,-0.25390625,0.006510417,1,0,0,1.0358,optionLeft,40,7815,4,11,0,11,0,1,,,,,,,,,,,,,,,,,,,,,,,,,,,,,,,,,,,,,,,
,,,,,,,,2023-08-16_08h43.37.936,HF_wild_card,2022.2.4,Win32,62.37135907,636a64b9de83082028122c63,64d2fd46c836a06233681665,64dc7e07bd8f1d06ebe1fce1,,,,,,,sngl,resources/Empty.png,resources/DB.BMP,Door1,0.227864583,-0.01953125,1,0,0,1.1209,optionRight,30,7845,4,12,0,12,0,1,,,,,,,,,,,,,,,,,,,,,,,,,,,,,,,,,,,,,,,
,,,,,,,,2023-08-16_08h43.37.936,HF_wild_card,2022.2.4,Win32,62.37135907,636a64b9de83082028122c63,64d2fd46c836a06233681665,64dc7e07bd8f1d06ebe1fce1,,,,,,,decisionTrl,resources/DY.BMP,resources/DP.BMP,Door3,-0.223958333,0.015625,1,0,0,0.9929,optionLeft,70,7915,4,13,0,13,0,1,,,,,,,,,,,,,,,,,,,,,,,,,,,,,,,,,,,,,,,
,,,,,,,,2023-08-16_08h43.37.936,HF_wild_card,2022.2.4,Win32,62.37135907,636a64b9de83082028122c63,64d2fd46c836a06233681665,64dc7e07bd8f1d06ebe1fce1,,,,,,,decisionTrl,resources/DP.BMP,resources/DY.BMP,Door3,0.165364583,-0.026041667,1,0,0,1.1077,optionRight,70,7985,4,14,0,14,0,1,,,,,,,,,,,,,,,,,,,,,,,,,,,,,,,,,,,,,,,
,,,,,,,,2023-08-16_08h43.37.936,HF_wild_card,2022.2.4,Win32,62.37135907,636a64b9de83082028122c63,64d2fd46c836a06233681665,64dc7e07bd8f1d06ebe1fce1,,,,,,,decisionTrl,resources/DB.BMP,resources/DBN.BMP,WildCard_Ex,0.169270833,-0.016927083,1,0,0,1.2588,optionRight,95,8080,4,15,0,15,0,1,,,,,,,,,,,,,,,,,,,,,,,,,,,,,,,,,,,,,,,
,,,,,,,,2023-08-16_08h43.37.936,HF_wild_card,2022.2.4,Win32,62.37135907,636a64b9de83082028122c63,64d2fd46c836a06233681665,64dc7e07bd8f1d06ebe1fce1,,,,,,,ctch,resources/DY.BMP,resources/DR.BMP,Door3,-0.225260417,0.0078125,1,0,0,1.003,optionLeft,70,8150,4,16,0,16,0,1,,,,,,,,,,,,,,,,,,,,,,,,,,,,,,,,,,,,,,,
,,,,,,,,2023-08-16_08h43.37.936,HF_wild_card,2022.2.4,Win32,62.37135907,636a64b9de83082028122c63,64d2fd46c836a06233681665,64dc7e07bd8f1d06ebe1fce1,,,,,,,ctch,resources/DP.BMP,resources/DB.BMP,Door4,-0.161458333,0.0078125,1,0,0,1.0642,optionLeft,80,8230,4,17,0,17,0,1,,,,,,,,,,,,,,,,,,,,,,,,,,,,,,,,,,,,,,,
,,,,,,,,2023-08-16_08h43.37.936,HF_wild_card,2022.2.4,Win32,62.37135907,636a64b9de83082028122c63,64d2fd46c836a06233681665,64dc7e07bd8f1d06ebe1fce1,,,,,,,ctch,resources/DB.BMP,resources/DP.BMP,Door4,0.135416667,-0.048177083,1,0,0,1.2675,optionRight,60,8290,4,18,0,18,0,1,,,,,,,,,,,,,,,,,,,,,,,,,,,,,,,,,,,,,,,
,,,,,,,,2023-08-16_08h43.37.936,HF_wild_card,2022.2.4,Win32,62.37135907,636a64b9de83082028122c63,64d2fd46c836a06233681665,64dc7e07bd8f1d06ebe1fce1,,,,,,,sngl,resources/DR.BMP,resources/Empty.png,Door2,-0.255208333,0.006510417,1,0,0,1.0287,optionLeft,20,8310,4,19,0,19,0,1,,,,,,,,,,,,,,,,,,,,,,,,,,,,,,,,,,,,,,,
,,,,,,,,2023-08-16_08h43.37.936,HF_wild_card,2022.2.4,Win32,62.37135907,636a64b9de83082028122c63,64d2fd46c836a06233681665,64dc7e07bd8f1d06ebe1fce1,,,,,,,ctch,resources/DB.BMP,resources/DP.BMP,Door4,0.231770833,-0.03515625,1,0,0,1.2202,optionRight,60,8370,4,20,0,20,0,1,,,,,,,,,,,,,,,,,,,,,,,,,,,,,,,,,,,,,,,
,,,,,,,,2023-08-16_08h43.37.936,HF_wild_card,2022.2.4,Win32,62.37135907,636a64b9de83082028122c63,64d2fd46c836a06233681665,64dc7e07bd8f1d06ebe1fce1,,,,,,,decisionTrl,resources/DP.BMP,resources/DY.BMP,Door3,0.19921875,-0.0390625,1,0,0,1.2687,optionRight,70,8440,4,21,0,21,0,1,,,,,,,,,,,,,,,,,,,,,,,,,,,,,,,,,,,,,,,
,,,,,,,,2023-08-16_08h43.37.936,HF_wild_card,2022.2.4,Win32,62.37135907,636a64b9de83082028122c63,64d2fd46c836a06233681665,64dc7e07bd8f1d06ebe1fce1,,,,,,,decisionTrl,resources/DY.BMP,resources/DP.BMP,Door3,-0.188802083,0.01953125,1,0,0,1.1678,optionLeft,70,8510,4,22,0,22,0,1,,,,,,,,,,,,,,,,,,,,,,,,,,,,,,,,,,,,,,,
,,,,,,,,2023-08-16_08h43.37.936,HF_wild_card,2022.2.4,Win32,62.37135907,636a64b9de83082028122c63,64d2fd46c836a06233681665,64dc7e07bd8f1d06ebe1fce1,,,,,,,decisionTrl,resources/DB.BMP,resources/DR.BMP,Door2,0.1953125,-0.033854167,1,0,0,1.6506,optionRight,40,8550,4,23,0,23,0,1,,,,,,,,,,,,,,,,,,,,,,,,,,,,,,,,,,,,,,,
,,,,,,,,2023-08-16_08h43.37.936,HF_wild_card,2022.2.4,Win32,62.37135907,636a64b9de83082028122c63,64d2fd46c836a06233681665,64dc7e07bd8f1d06ebe1fce1,,,,,,,decisionTrl,resources/DY.BMP,resources/DBN.BMP,WildCard_Ex,0.158854167,0.0078125,1,0,0,1.2819,optionRight,5,8555,4,24,0,24,0,1,,,,,,,,,,,,,,,,,,,,,,,,,,,,,,,,,,,,,,,
,,,,,,,,2023-08-16_08h43.37.936,HF_wild_card,2022.2.4,Win32,62.37135907,636a64b9de83082028122c63,64d2fd46c836a06233681665,64dc7e07bd8f1d06ebe1fce1,,,,,,,sngl,resources/DBN.BMP,resources/Empty.png,WildCard_Ex,-0.240885417,0.009114583,1,0,0,0.9861,optionLeft,5,8560,4,25,0,25,0,1,,,,,,,,,,,,,,,,,,,,,,,,,,,,,,,,,,,,,,,
,,,,,,,,2023-08-16_08h43.37.936,HF_wild_card,2022.2.4,Win32,62.37135907,636a64b9de83082028122c63,64d2fd46c836a06233681665,64dc7e07bd8f1d06ebe1fce1,,,,,,,decisionTrl,resources/DB.BMP,resources/DR.BMP,Door1,-0.2578125,0.010416667,1,0,0,1.4249,optionLeft,30,8590,4,26,0,26,0,1,,,,,,,,,,,,,,,,,,,,,,,,,,,,,,,,,,,,,,,
,,,,,,,,2023-08-16_08h43.37.936,HF_wild_card,2022.2.4,Win32,62.37135907,636a64b9de83082028122c63,64d2fd46c836a06233681665,64dc7e07bd8f1d06ebe1fce1,,,,,,,decisionTrl,resources/DB.BMP,resources/DR.BMP,Door2,0.235677083,0.014322917,1,0,0,1.0208,optionRight,20,8610,4,27,0,27,0,1,,,,,,,,,,,,,,,,,,,,,,,,,,,,,,,,,,,,,,,
,,,,,,,,2023-08-16_08h43.37.936,HF_wild_card,2022.2.4,Win32,62.37135907,636a64b9de83082028122c63,64d2fd46c836a06233681665,64dc7e07bd8f1d06ebe1fce1,,,,,,,ctch,resources/DR.BMP,resources/DY.BMP,Door3,0.197916667,-0.014322917,1,0,0,1.243,optionRight,70,8680,4,28,0,28,0,1,,,,,,,,,,,,,,,,,,,,,,,,,,,,,,,,,,,,,,,
,,,,,,,,2023-08-16_08h43.37.936,HF_wild_card,2022.2.4,Win32,62.37135907,636a64b9de83082028122c63,64d2fd46c836a06233681665,64dc7e07bd8f1d06ebe1fce1,,,,,,,decisionTrl,resources/DBN.BMP,resources/DB.BMP,WildCard_Ex,-0.2578125,0.0390625,1,0,0,1.0427,optionLeft,95,8775,4,29,0,29,0,1,,,,,,,,,,,,,,,,,,,,,,,,,,,,,,,,,,,,,,,
,,,,,,,,2023-08-16_08h43.37.936,HF_wild_card,2022.2.4,Win32,62.37135907,636a64b9de83082028122c63,64d2fd46c836a06233681665,64dc7e07bd8f1d06ebe1fce1,,,,,,,decisionTrl,resources/DBN.BMP,resources/DR.BMP,WildCard_Ex,-0.100260417,0.002604167,1,0,0,1.1005,optionLeft,5,8780,4,30,0,30,0,1,,,,,,,,,,,,,,,,,,,,,,,,,,,,,,,,,,,,,,,
,,,,,,,,2023-08-16_08h43.37.936,HF_wild_card,2022.2.4,Win32,62.37135907,636a64b9de83082028122c63,64d2fd46c836a06233681665,64dc7e07bd8f1d06ebe1fce1,,,,,,,decisionTrl,resources/DP.BMP,resources/DY.BMP,Door3,0.14453125,-0.01953125,1,0,0,1.2113,optionRight,70,8850,4,31,0,31,0,1,,,,,,,,,,,,,,,,,,,,,,,,,,,,,,,,,,,,,,,
,,,,,,,,2023-08-16_08h43.37.936,HF_wild_card,2022.2.4,Win32,62.37135907,636a64b9de83082028122c63,64d2fd46c836a06233681665,64dc7e07bd8f1d06ebe1fce1,,,,,,,decisionTrl,resources/DB.BMP,resources/DR.BMP,Door1,-0.225260417,-0.006510417,1,0,0,1.4099,optionLeft,30,8880,4,32,0,32,0,1,,,,,,,,,,,,,,,,,,,,,,,,,,,,,,,,,,,,,,,
,,,,,,,,2023-08-16_08h43.37.936,HF_wild_card,2022.2.4,Win32,62.37135907,636a64b9de83082028122c63,64d2fd46c836a06233681665,64dc7e07bd8f1d06ebe1fce1,,,,,,,decisionTrl,resources/DP.BMP,resources/DY.BMP,Door3,0.23046875,-0.0234375,1,0,0,1.2128,optionRight,70,8950,4,33,0,33,0,1,,,,,,,,,,,,,,,,,,,,,,,,,,,,,,,,,,,,,,,
,,,,,,,,2023-08-16_08h43.37.936,HF_wild_card,2022.2.4,Win32,62.37135907,636a64b9de83082028122c63,64d2fd46c836a06233681665,64dc7e07bd8f1d06ebe1fce1,,,,,,,ctch,resources/DY.BMP,resources/DR.BMP,Door3,-0.21875,0.018229167,1,0,0,1.031,optionLeft,70,9020,4,34,0,34,0,1,,,,,,,,,,,,,,,,,,,,,,,,,,,,,,,,,,,,,,,
,,,,,,,,2023-08-16_08h43.37.936,HF_wild_card,2022.2.4,Win32,62.37135907,636a64b9de83082028122c63,64d2fd46c836a06233681665,64dc7e07bd8f1d06ebe1fce1,,,,,,,decisionTrl,resources/DY.BMP,resources/DP.BMP,Door3,-0.178385417,0.018229167,1,0,0,1.0511,optionLeft,70,9090,4,35,0,35,0,1,,,,,,,,,,,,,,,,,,,,,,,,,,,,,,,,,,,,,,,
,,,,,,,,2023-08-16_08h43.37.936,HF_wild_card,2022.2.4,Win32,62.37135907,636a64b9de83082028122c63,64d2fd46c836a06233681665,64dc7e07bd8f1d06ebe1fce1,,,,,,,sngl,resources/DY.BMP,resources/Empty.png,Door3,-0.173177083,0.026041667,1,0,0,1.0372,optionLeft,70,9160,4,36,0,36,0,1,,,,,,,,,,,,,,,,,,,,,,,,,,,,,,,,,,,,,,,
,,,,,,,,2023-08-16_08h43.37.936,HF_wild_card,2022.2.4,Win32,62.37135907,636a64b9de83082028122c63,64d2fd46c836a06233681665,64dc7e07bd8f1d06ebe1fce1,,,,,,,decisionTrl,resources/DR.BMP,resources/DB.BMP,Door2,-0.151041667,0.015625,1,0,0,1.5221,optionLeft,40,9200,4,37,0,37,0,1,,,,,,,,,,,,,,,,,,,,,,,,,,,,,,,,,,,,,,,
,,,,,,,,2023-08-16_08h43.37.936,HF_wild_card,2022.2.4,Win32,62.37135907,636a64b9de83082028122c63,64d2fd46c836a06233681665,64dc7e07bd8f1d06ebe1fce1,,,,,,,sngl,resources/Empty.png,resources/DBN.BMP,WildCard_Ex,0.291666667,-0.009114583,1,0,0,1.0243,optionRight,5,9205,4,38,0,38,0,1,,,,,,,,,,,,,,,,,,,,,,,,,,,,,,,,,,,,,,,
,,,,,,,,2023-08-16_08h43.37.936,HF_wild_card,2022.2.4,Win32,62.37135907,636a64b9de83082028122c63,64d2fd46c836a06233681665,64dc7e07bd8f1d06ebe1fce1,,,,,,,sngl,resources/Empty.png,resources/DR.BMP,Door2,0.23046875,-0.015625,1,0,0,1.1213,optionRight,40,9245,4,39,0,39,0,1,,,,,,,,,,,,,,,,,,,,,,,,,,,,,,,,,,,,,,,
,,,,,,,,2023-08-16_08h43.37.936,HF_wild_card,2022.2.4,Win32,62.37135907,636a64b9de83082028122c63,64d2fd46c836a06233681665,64dc7e07bd8f1d06ebe1fce1,,,,,,,decisionTrl,resources/DY.BMP,resources/DP.BMP,Door3,-0.240885417,0.032552083,1,0,0,0.9651,optionLeft,70,9315,4,40,0,40,0,1,,,,,,,,,,,,,,,,,,,,,,,,,,,,,,,,,,,,,,,
,,,,,,,,2023-08-16_08h43.37.936,HF_wild_card,2022.2.4,Win32,62.37135907,636a64b9de83082028122c63,64d2fd46c836a06233681665,64dc7e07bd8f1d06ebe1fce1,,,,,,,sngl,resources/DP.BMP,resources/Empty.png,Door4,-0.236979167,0.04296875,1,0,0,0.9417,optionLeft,60,9375,4,41,0,41,0,1,,,,,,,,,,,,,,,,,,,,,,,,,,,,,,,,,,,,,,,
,,,,,,,,2023-08-16_08h43.37.936,HF_wild_card,2022.2.4,Win32,62.37135907,636a64b9de83082028122c63,64d2fd46c836a06233681665,64dc7e07bd8f1d06ebe1fce1,,,,,,,decisionTrl,resources/DR.BMP,resources/DB.BMP,Door2,-0.201822917,0.0390625,1,0,0,1.0448,optionLeft,20,9395,4,42,0,42,0,1,,,,,,,,,,,,,,,,,,,,,,,,,,,,,,,,,,,,,,,
,,,,,,,,2023-08-16_08h43.37.936,HF_wild_card,2022.2.4,Win32,62.37135907,636a64b9de83082028122c63,64d2fd46c836a06233681665,64dc7e07bd8f1d06ebe1fce1,,,,,,,ctch,resources/DR.BMP,resources/DY.BMP,Door3,0.255208333,0.01953125,1,0,0,1.2166,optionRight,70,9465,4,43,0,43,0,1,,,,,,,,,,,,,,,,,,,,,,,,,,,,,,,,,,,,,,,
,,,,,,,,2023-08-16_08h43.37.936,HF_wild_card,2022.2.4,Win32,62.37135907,636a64b9de83082028122c63,64d2fd46c836a06233681665,64dc7e07bd8f1d06ebe1fce1,,,,,,,,,,,,,,,,,,,,,,,,,,3,0,3,0,1,,,,,,,,,,,,,,,,,,,,,,,,,,,,,,,,,,
,,,,,,,,2023-08-16_08h43.37.936,HF_wild_card,2022.2.4,Win32,62.37135907,636a64b9de83082028122c63,64d2fd46c836a06233681665,64dc7e07bd8f1d06ebe1fce1,,,,,,,sngl,resources/DP.BMP,resources/Empty.png,Door4,-0.279947917,-0.05078125,1,0,0,1.3369,optionLeft,80,9545,5,0,0,0,0,1,,,,,,,,,,,,,,,,,,,,,,,,,,,,,,,,,,,,,,,
,,,,,,,,2023-08-16_08h43.37.936,HF_wild_card,2022.2.4,Win32,62.37135907,636a64b9de83082028122c63,64d2fd46c836a06233681665,64dc7e07bd8f1d06ebe1fce1,,,,,,,decisionTrl,resources/DBN.BMP,resources/DR.BMP,WildCard_Ex,-0.19921875,0.010416667,1,0,0,1.062,optionLeft,95,9640,5,1,0,1,0,1,,,,,,,,,,,,,,,,,,,,,,,,,,,,,,,,,,,,,,,
,,,,,,,,2023-08-16_08h43.37.936,HF_wild_card,2022.2.4,Win32,62.37135907,636a64b9de83082028122c63,64d2fd46c836a06233681665,64dc7e07bd8f1d06ebe1fce1,,,,,,,ctch,resources/DB.BMP,resources/DP.BMP,Door4,0.200520833,-0.046875,1,0,0,1.7411,optionRight,80,9720,5,2,0,2,0,1,,,,,,,,,,,,,,,,,,,,,,,,,,,,,,,,,,,,,,,
,,,,,,,,2023-08-16_08h43.37.936,HF_wild_card,2022.2.4,Win32,62.37135907,636a64b9de83082028122c63,64d2fd46c836a06233681665,64dc7e07bd8f1d06ebe1fce1,,,,,,,ctch,resources/DY.BMP,resources/DR.BMP,Door3,-0.145833333,0.013020833,1,0,0,1.1847,optionLeft,70,9790,5,3,0,3,0,1,,,,,,,,,,,,,,,,,,,,,,,,,,,,,,,,,,,,,,,
,,,,,,,,2023-08-16_08h43.37.936,HF_wild_card,2022.2.4,Win32,62.37135907,636a64b9de83082028122c63,64d2fd46c836a06233681665,64dc7e07bd8f1d06ebe1fce1,,,,,,,decisionTrl,resources/DR.BMP,resources/DB.BMP,Door2,-0.225260417,0.04296875,1,0,0,1.2136,optionLeft,40,9830,5,4,0,4,0,1,,,,,,,,,,,,,,,,,,,,,,,,,,,,,,,,,,,,,,,
,,,,,,,,2023-08-16_08h43.37.936,HF_wild_card,2022.2.4,Win32,62.37135907,636a64b9de83082028122c63,64d2fd46c836a06233681665,64dc7e07bd8f1d06ebe1fce1,,,,,,,ctch,resources/DB.BMP,resources/DP.BMP,Door4,0.1640625,0.013020833,1,0,0,1.4103,optionRight,60,9890,5,5,0,5,0,1,,,,,,,,,,,,,,,,,,,,,,,,,,,,,,,,,,,,,,,
,,,,,,,,2023-08-16_08h43.37.936,HF_wild_card,2022.2.4,Win32,62.37135907,636a64b9de83082028122c63,64d2fd46c836a06233681665,64dc7e07bd8f1d06ebe1fce1,,,,,,,ctch,resources/DP.BMP,resources/DB.BMP,Door4,-0.1875,0.02734375,1,0,0,1.0823,optionLeft,80,9970,5,6,0,6,0,1,,,,,,,,,,,,,,,,,,,,,,,,,,,,,,,,,,,,,,,
,,,,,,,,2023-08-16_08h43.37.936,HF_wild_card,2022.2.4,Win32,62.37135907,636a64b9de83082028122c63,64d2fd46c836a06233681665,64dc7e07bd8f1d06ebe1fce1,,,,,,,sngl,resources/Empty.png,resources/DP.BMP,Door4,0.18359375,-0.00390625,1,0,0,1.1527,optionRight,60,10030,5,7,0,7,0,1,,,,,,,,,,,,,,,,,,,,,,,,,,,,,,,,,,,,,,,
,,,,,,,,2023-08-16_08h43.37.936,HF_wild_card,2022.2.4,Win32,62.37135907,636a64b9de83082028122c63,64d2fd46c836a06233681665,64dc7e07bd8f1d06ebe1fce1,,,,,,,decisionTrl,resources/DR.BMP,resources/DB.BMP,Door2,-0.235677083,0.048177083,1,0,0,0.9918,optionLeft,40,10070,5,8,0,8,0,1,,,,,,,,,,,,,,,,,,,,,,,,,,,,,,,,,,,,,,,
,,,,,,,,2023-08-16_08h43.37.936,HF_wild_card,2022.2.4,Win32,62.37135907,636a64b9de83082028122c63,64d2fd46c836a06233681665,64dc7e07bd8f1d06ebe1fce1,,,,,,,sngl,resources/Empty.png,resources/DBN.BMP,WildCard_Ex,0.239583333,-0.00390625,1,0,0,1.0132,optionRight,5,10075,5,9,0,9,0,1,,,,,,,,,,,,,,,,,,,,,,,,,,,,,,,,,,,,,,,
,,,,,,,,2023-08-16_08h43.37.936,HF_wild_card,2022.2.4,Win32,62.37135907,636a64b9de83082028122c63,64d2fd46c836a06233681665,64dc7e07bd8f1d06ebe1fce1,,,,,,,sngl,resources/DB.BMP,resources/Empty.png,Door1,-0.24609375,0.032552083,1,0,0,0.9451,optionLeft,30,10105,5,10,0,10,0,1,,,,,,,,,,,,,,,,,,,,,,,,,,,,,,,,,,,,,,,
,,,,,,,,2023-08-16_08h43.37.936,HF_wild_card,2022.2.4,Win32,62.37135907,636a64b9de83082028122c63,64d2fd46c836a06233681665,64dc7e07bd8f1d06ebe1fce1,,,,,,,sngl,resources/DY.BMP,resources/Empty.png,Door3,-0.192708333,0.041666667,1,0,0,0.9783,optionLeft,70,10175,5,11,0,11,0,1,,,,,,,,,,,,,,,,,,,,,,,,,,,,,,,,,,,,,,,
,,,,,,,,2023-08-16_08h43.37.936,HF_wild_card,2022.2.4,Win32,62.37135907,636a64b9de83082028122c63,64d2fd46c836a06233681665,64dc7e07bd8f1d06ebe1fce1,,,,,,,sngl,resources/Empty.png,resources/DR.BMP,Door2,0.209635417,0.002604167,1,0,0,0.9997,optionRight,20,10195,5,12,0,12,0,1,,,,,,,,,,,,,,,,,,,,,,,,,,,,,,,,,,,,,,,
,,,,,,,,2023-08-16_08h43.37.936,HF_wild_card,2022.2.4,Win32,62.37135907,636a64b9de83082028122c63,64d2fd46c836a06233681665,64dc7e07bd8f1d06ebe1fce1,,,,,,,ctch,resources/DR.BMP,resources/DY.BMP,Door3,0.18359375,-0.01953125,1,0,0,1.4055,optionRight,70,10265,5,13,0,13,0,1,,,,,,,,,,,,,,,,,,,,,,,,,,,,,,,,,,,,,,,
,,,,,,,,2023-08-16_08h43.37.936,HF_wild_card,2022.2.4,Win32,62.37135907,636a64b9de83082028122c63,64d2fd46c836a06233681665,64dc7e07bd8f1d06ebe1fce1,,,,,,,sngl,resources/Empty.png,resources/DY.BMP,Door3,0.208333333,0.001302083,1,0,0,1.136,optionRight,70,10335,5,14,0,14,0,1,,,,,,,,,,,,,,,,,,,,,,,,,,,,,,,,,,,,,,,
,,,,,,,,2023-08-16_08h43.37.936,HF_wild_card,2022.2.4,Win32,62.37135907,636a64b9de83082028122c63,64d2fd46c836a06233681665,64dc7e07bd8f1d06ebe1fce1,,,,,,,decisionTrl,resources/DB.BMP,resources/DR.BMP,Door1,-0.16796875,0.014322917,1,0,0,1.3315,optionLeft,30,10365,5,15,0,15,0,1,,,,,,,,,,,,,,,,,,,,,,,,,,,,,,,,,,,,,,,
,,,,,,,,2023-08-16_08h43.37.936,HF_wild_card,2022.2.4,Win32,62.37135907,636a64b9de83082028122c63,64d2fd46c836a06233681665,64dc7e07bd8f1d06ebe1fce1,,,,,,,decisionTrl,resources/DY.BMP,resources/DBN.BMP,WildCard_Ex,0.2265625,0.001302083,1,0,0,1.2133,optionRight,5,10370,5,16,0,16,0,1,,,,,,,,,,,,,,,,,,,,,,,,,,,,,,,,,,,,,,,
,,,,,,,,2023-08-16_08h43.37.936,HF_wild_card,2022.2.4,Win32,62.37135907,636a64b9de83082028122c63,64d2fd46c836a06233681665,64dc7e07bd8f1d06ebe1fce1,,,,,,,decisionTrl,resources/DY.BMP,resources/DP.BMP,Door3,-0.2109375,0.03515625,1,0,0,1.1426,optionLeft,70,10440,5,17,0,17,0,1,,,,,,,,,,,,,,,,,,,,,,,,,,,,,,,,,,,,,,,
,,,,,,,,2023-08-16_08h43.37.936,HF_wild_card,2022.2.4,Win32,62.37135907,636a64b9de83082028122c63,64d2fd46c836a06233681665,64dc7e07bd8f1d06ebe1fce1,,,,,,,decisionTrl,resources/DR.BMP,resources/DB.BMP,Door1,0.407552083,-0.0078125,1,0,0,1.4634,optionRight,30,10470,5,18,0,18,0,1,,,,,,,,,,,,,,,,,,,,,,,,,,,,,,,,,,,,,,,
,,,,,,,,2023-08-16_08h43.37.936,HF_wild_card,2022.2.4,Win32,62.37135907,636a64b9de83082028122c63,64d2fd46c836a06233681665,64dc7e07bd8f1d06ebe1fce1,,,,,,,decisionTrl,resources/DB.BMP,resources/DR.BMP,Door1,-0.171875,0.02734375,1,0,0,1.2215,optionLeft,30,10500,5,19,0,19,0,1,,,,,,,,,,,,,,,,,,,,,,,,,,,,,,,,,,,,,,,
,,,,,,,,2023-08-16_08h43.37.936,HF_wild_card,2022.2.4,Win32,62.37135907,636a64b9de83082028122c63,64d2fd46c836a06233681665,64dc7e07bd8f1d06ebe1fce1,,,,,,,decisionTrl,resources/DB.BMP,resources/DR.BMP,Door1,-0.15234375,0.024739583,1,0,0,0.9693,optionLeft,30,10530,5,20,0,20,0,1,,,,,,,,,,,,,,,,,,,,,,,,,,,,,,,,,,,,,,,
,,,,,,,,2023-08-16_08h43.37.936,HF_wild_card,2022.2.4,Win32,62.37135907,636a64b9de83082028122c63,64d2fd46c836a06233681665,64dc7e07bd8f1d06ebe1fce1,,,,,,,decisionTrl,resources/DP.BMP,resources/DBN.BMP,WildCard_Ex,0.174479167,0.03515625,1,0,0,1.1788,optionRight,95,10625,5,21,0,21,0,1,,,,,,,,,,,,,,,,,,,,,,,,,,,,,,,,,,,,,,,
,,,,,,,,2023-08-16_08h43.37.936,HF_wild_card,2022.2.4,Win32,62.37135907,636a64b9de83082028122c63,64d2fd46c836a06233681665,64dc7e07bd8f1d06ebe1fce1,,,,,,,ctch,resources/DP.BMP,resources/DB.BMP,Door4,-0.255208333,0.053385417,1,0,0,1.3011,optionLeft,80,10705,5,22,0,22,0,1,,,,,,,,,,,,,,,,,,,,,,,,,,,,,,,,,,,,,,,
,,,,,,,,2023-08-16_08h43.37.936,HF_wild_card,2022.2.4,Win32,62.37135907,636a64b9de83082028122c63,64d2fd46c836a06233681665,64dc7e07bd8f1d06ebe1fce1,,,,,,,decisionTrl,resources/DB.BMP,resources/DR.BMP,Door1,-0.147135417,0.03125,1,0,0,1.3697,optionLeft,30,10735,5,23,0,23,0,1,,,,,,,,,,,,,,,,,,,,,,,,,,,,,,,,,,,,,,,
,,,,,,,,2023-08-16_08h43.37.936,HF_wild_card,2022.2.4,Win32,62.37135907,636a64b9de83082028122c63,64d2fd46c836a06233681665,64dc7e07bd8f1d06ebe1fce1,,,,,,,decisionTrl,resources/DP.BMP,resources/DY.BMP,Door3,0.16015625,-0.028645833,1,0,0,1.9661,optionRight,70,10805,5,24,0,24,0,1,,,,,,,,,,,,,,,,,,,,,,,,,,,,,,,,,,,,,,,
,,,,,,,,2023-08-16_08h43.37.936,HF_wild_card,2022.2.4,Win32,62.37135907,636a64b9de83082028122c63,64d2fd46c836a06233681665,64dc7e07bd8f1d06ebe1fce1,,,,,,,decisionTrl,resources/DR.BMP,resources/DBN.BMP,WildCard_Ex,0.260416667,-0.026041667,1,0,0,1.391,optionRight,95,10900,5,25,0,25,0,1,,,,,,,,,,,,,,,,,,,,,,,,,,,,,,,,,,,,,,,
,,,,,,,,2023-08-16_08h43.37.936,HF_wild_card,2022.2.4,Win32,62.37135907,636a64b9de83082028122c63,64d2fd46c836a06233681665,64dc7e07bd8f1d06ebe1fce1,,,,,,,decisionTrl,resources/DP.BMP,resources/DY.BMP,Door3,0.1484375,-0.010416667,1,0,0,1.5794,optionRight,70,10970,5,26,0,26,0,1,,,,,,,,,,,,,,,,,,,,,,,,,,,,,,,,,,,,,,,
,,,,,,,,2023-08-16_08h43.37.936,HF_wild_card,2022.2.4,Win32,62.37135907,636a64b9de83082028122c63,64d2fd46c836a06233681665,64dc7e07bd8f1d06ebe1fce1,,,,,,,decisionTrl,resources/DR.BMP,resources/DB.BMP,Door1,0.153645833,0.028645833,1,0,0,1.3407,optionRight,30,11000,5,27,0,27,0,1,,,,,,,,,,,,,,,,,,,,,,,,,,,,,,,,,,,,,,,
,,,,,,,,2023-08-16_08h43.37.936,HF_wild_card,2022.2.4,Win32,62.37135907,636a64b9de83082028122c63,64d2fd46c836a06233681665,64dc7e07bd8f1d06ebe1fce1,,,,,,,decisionTrl,resources/DP.BMP,resources/DY.BMP,Door3,0.158854167,0.005208333,1,0,0,1.3633,optionRight,70,11070,5,28,0,28,0,1,,,,,,,,,,,,,,,,,,,,,,,,,,,,,,,,,,,,,,,
,,,,,,,,2023-08-16_08h43.37.936,HF_wild_card,2022.2.4,Win32,62.37135907,636a64b9de83082028122c63,64d2fd46c836a06233681665,64dc7e07bd8f1d06ebe1fce1,,,,,,,sngl,resources/DBN.BMP,resources/Empty.png,WildCard_Ex,-0.272135417,0.022135417,1,0,0,1.1452,optionLeft,95,11165,5,29,0,29,0,1,,,,,,,,,,,,,,,,,,,,,,,,,,,,,,,,,,,,,,,
,,,,,,,,2023-08-16_08h43.37.936,HF_wild_card,2022.2.4,Win32,62.37135907,636a64b9de83082028122c63,64d2fd46c836a06233681665,64dc7e07bd8f1d06ebe1fce1,,,,,,,decisionTrl,resources/DP.BMP,resources/DY.BMP,Door3,0.194010417,0.001302083,1,0,0,1.4415,optionRight,70,11235,5,30,0,30,0,1,,,,,,,,,,,,,,,,,,,,,,,,,,,,,,,,,,,,,,,
,,,,,,,,2023-08-16_08h43.37.936,HF_wild_card,2022.2.4,Win32,62.37135907,636a64b9de83082028122c63,64d2fd46c836a06233681665,64dc7e07bd8f1d06ebe1fce1,,,,,,,ctch,resources/DY.BMP,resources/DR.BMP,Door3,-0.170572917,0.020833333,1,0,0,1.4595,optionLeft,70,11305,5,31,0,31,0,1,,,,,,,,,,,,,,,,,,,,,,,,,,,,,,,,,,,,,,,
,,,,,,,,2023-08-16_08h43.37.936,HF_wild_card,2022.2.4,Win32,62.37135907,636a64b9de83082028122c63,64d2fd46c836a06233681665,64dc7e07bd8f1d06ebe1fce1,,,,,,,decisionTrl,resources/DY.BMP,resources/DP.BMP,Door3,-0.1484375,0.028645833,1,0,0,1.4085,optionLeft,70,11375,5,32,0,32,0,1,,,,,,,,,,,,,,,,,,,,,,,,,,,,,,,,,,,,,,,
,,,,,,,,2023-08-16_08h43.37.936,HF_wild_card,2022.2.4,Win32,62.37135907,636a64b9de83082028122c63,64d2fd46c836a06233681665,64dc7e07bd8f1d06ebe1fce1,,,,,,,decisionTrl,resources/DY.BMP,resources/DP.BMP,Door3,-0.1875,0.05078125,1,0,0,2.0367,optionLeft,70,11445,5,33,0,33,0,1,,,,,,,,,,,,,,,,,,,,,,,,,,,,,,,,,,,,,,,
,,,,,,,,2023-08-16_08h43.37.936,HF_wild_card,2022.2.4,Win32,62.37135907,636a64b9de83082028122c63,64d2fd46c836a06233681665,64dc7e07bd8f1d06ebe1fce1,,,,,,,decisionTrl,resources/DY.BMP,resources/DP.BMP,Door3,-0.264322917,0.048177083,1,0,0,1.9418,optionLeft,70,11515,5,34,0,34,0,1,,,,,,,,,,,,,,,,,,,,,,,,,,,,,,,,,,,,,,,
,,,,,,,,2023-08-16_08h43.37.936,HF_wild_card,2022.2.4,Win32,62.37135907,636a64b9de83082028122c63,64d2fd46c836a06233681665,64dc7e07bd8f1d06ebe1fce1,,,,,,,decisionTrl,resources/DBN.BMP,resources/DY.BMP,Door3,0.319010417,0.01953125,1,0,0,1.5714,optionRight,70,11585,5,35,0,35,0,1,,,,,,,,,,,,,,,,,,,,,,,,,,,,,,,,,,,,,,,
,,,,,,,,2023-08-16_08h43.37.936,HF_wild_card,2022.2.4,Win32,62.37135907,636a64b9de83082028122c63,64d2fd46c836a06233681665,64dc7e07bd8f1d06ebe1fce1,,,,,,,decisionTrl,resources/DBN.BMP,resources/DP.BMP,WildCard_Ex,-0.303385417,0.03515625,1,0,0,1.3462,optionLeft,95,11680,5,36,0,36,0,1,,,,,,,,,,,,,,,,,,,,,,,,,,,,,,,,,,,,,,,
,,,,,,,,2023-08-16_08h43.37.936,HF_wild_card,2022.2.4,Win32,62.37135907,636a64b9de83082028122c63,64d2fd46c836a06233681665,64dc7e07bd8f1d06ebe1fce1,,,,,,,decisionTrl,resources/DB.BMP,resources/DBN.BMP,WildCard_Ex,0.194010417,-0.005208333,1,0,0,1.4571,optionRight,5,11685,5,37,0,37,0,1,,,,,,,,,,,,,,,,,,,,,,,,,,,,,,,,,,,,,,,
,,,,,,,,2023-08-16_08h43.37.936,HF_wild_card,2022.2.4,Win32,62.37135907,636a64b9de83082028122c63,64d2fd46c836a06233681665,64dc7e07bd8f1d06ebe1fce1,,,,,,,ctch,resources/DR.BMP,resources/DY.BMP,Door3,0.21484375,-0.010416667,1,0,0,1.1942,optionRight,70,11755,5,38,0,38,0,1,,,,,,,,,,,,,,,,,,,,,,,,,,,,,,,,,,,,,,,
,,,,,,,,2023-08-16_08h43.37.936,HF_wild_card,2022.2.4,Win32,62.37135907,636a64b9de83082028122c63,64d2fd46c836a06233681665,64dc7e07bd8f1d06ebe1fce1,,,,,,,sngl,resources/Empty.png,resources/DB.BMP,Door1,0.165364583,-0.016927083,1,0,0,1.0864,optionRight,30,11785,5,39,0,39,0,1,,,,,,,,,,,,,,,,,,,,,,,,,,,,,,,,,,,,,,,
,,,,,,,,2023-08-16_08h43.37.936,HF_wild_card,2022.2.4,Win32,62.37135907,636a64b9de83082028122c63,64d2fd46c836a06233681665,64dc7e07bd8f1d06ebe1fce1,,,,,,,sngl,resources/DR.BMP,resources/Empty.png,Door2,-0.212239583,-0.002604167,1,0,0,1.1247,optionLeft,40,11825,5,40,0,40,0,1,,,,,,,,,,,,,,,,,,,,,,,,,,,,,,,,,,,,,,,
,,,,,,,,2023-08-16_08h43.37.936,HF_wild_card,2022.2.4,Win32,62.37135907,636a64b9de83082028122c63,64d2fd46c836a06233681665,64dc7e07bd8f1d06ebe1fce1,,,,,,,decisionTrl,resources/DBN.BMP,resources/DB.BMP,WildCard_Ex,-0.1953125,-0.010416667,1,0,0,1.7565,optionLeft,95,11920,5,41,0,41,0,1,,,,,,,,,,,,,,,,,,,,,,,,,,,,,,,,,,,,,,,
,,,,,,,,2023-08-16_08h43.37.936,HF_wild_card,2022.2.4,Win32,62.37135907,636a64b9de83082028122c63,64d2fd46c836a06233681665,64dc7e07bd8f1d06ebe1fce1,,,,,,,sngl,resources/DBN.BMP,resources/Empty.png,WildCard_Ex,-0.243489583,-0.001302083,1,0,0,0.9895,optionLeft,5,11925,5,42,0,42,0,1,,,,,,,,,,,,,,,,,,,,,,,,,,,,,,,,,,,,,,,
,,,,,,,,2023-08-16_08h43.37.936,HF_wild_card,2022.2.4,Win32,62.37135907,636a64b9de83082028122c63,64d2fd46c836a06233681665,64dc7e07bd8f1d06ebe1fce1,,,,,,,sngl,resources/Empty.png,resources/DBN.BMP,WildCard_Ex,0.278645833,-0.005208333,1,0,0,1.4318,optionRight,95,12020,5,43,0,43,0,1,,,,,,,,,,,,,,,,,,,,,,,,,,,,,,,,,,,,,,,
,,,,,,,,2023-08-16_08h43.37.936,HF_wild_card,2022.2.4,Win32,62.37135907,636a64b9de83082028122c63,64d2fd46c836a06233681665,64dc7e07bd8f1d06ebe1fce1,,,,,,,,,,,,,,,,,,,,,,,,,,4,0,4,0,1,,,,,,,,,,,,,,,,,,,,,,,,,,,,,,,,,,
,,,,,,,,2023-08-16_08h43.37.936,HF_wild_card,2022.2.4,Win32,62.37135907,636a64b9de83082028122c63,64d2fd46c836a06233681665,64dc7e07bd8f1d06ebe1fce1,,,,,,,decisionTrl,resources/DR.BMP,resources/DBN.BMP,WildCard_Ex,0.266927083,-0.125,1,0,0,1.3116,optionRight,5,12025,6,0,0,0,0,1,,,,,,,,,,,,,,,,,,,,,,,,,,,,,,,,,,,,,,,
,,,,,,,,2023-08-16_08h43.37.936,HF_wild_card,2022.2.4,Win32,62.37135907,636a64b9de83082028122c63,64d2fd46c836a06233681665,64dc7e07bd8f1d06ebe1fce1,,,,,,,decisionTrl,resources/DB.BMP,resources/DR.BMP,Door1,-0.153645833,0.009114583,1,0,0,1.1006,optionLeft,30,12055,6,1,0,1,0,1,,,,,,,,,,,,,,,,,,,,,,,,,,,,,,,,,,,,,,,
,,,,,,,,2023-08-16_08h43.37.936,HF_wild_card,2022.2.4,Win32,62.37135907,636a64b9de83082028122c63,64d2fd46c836a06233681665,64dc7e07bd8f1d06ebe1fce1,,,,,,,decisionTrl,resources/DY.BMP,resources/DP.BMP,Door3,-0.135416667,0.0234375,1,0,0,1.1865,optionLeft,70,12125,6,2,0,2,0,1,,,,,,,,,,,,,,,,,,,,,,,,,,,,,,,,,,,,,,,
,,,,,,,,2023-08-16_08h43.37.936,HF_wild_card,2022.2.4,Win32,62.37135907,636a64b9de83082028122c63,64d2fd46c836a06233681665,64dc7e07bd8f1d06ebe1fce1,,,,,,,decisionTrl,resources/DY.BMP,resources/DP.BMP,Door3,-0.225260417,0.029947917,1,0,0,1.1203,optionLeft,70,12195,6,3,0,3,0,1,,,,,,,,,,,,,,,,,,,,,,,,,,,,,,,,,,,,,,,
,,,,,,,,2023-08-16_08h43.37.936,HF_wild_card,2022.2.4,Win32,62.37135907,636a64b9de83082028122c63,64d2fd46c836a06233681665,64dc7e07bd8f1d06ebe1fce1,,,,,,,decisionTrl,resources/DP.BMP,resources/DY.BMP,Door3,0.244791667,0.016927083,1,0,0,1.1977,optionRight,70,12265,6,4,0,4,0,1,,,,,,,,,,,,,,,,,,,,,,,,,,,,,,,,,,,,,,,
,,,,,,,,2023-08-16_08h43.37.936,HF_wild_card,2022.2.4,Win32,62.37135907,636a64b9de83082028122c63,64d2fd46c836a06233681665,64dc7e07bd8f1d06ebe1fce1,,,,,,,sngl,resources/Empty.png,resources/DB.BMP,Door1,0.192708333,-0.0078125,1,0,0,1.2553,optionRight,30,12295,6,5,0,5,0,1,,,,,,,,,,,,,,,,,,,,,,,,,,,,,,,,,,,,,,,
,,,,,,,,2023-08-16_08h43.37.936,HF_wild_card,2022.2.4,Win32,62.37135907,636a64b9de83082028122c63,64d2fd46c836a06233681665,64dc7e07bd8f1d06ebe1fce1,,,,,,,decisionTrl,resources/DR.BMP,resources/DB.BMP,Door1,0.203125,0.0234375,1,0,0,1.3174,optionRight,30,12325,6,6,0,6,0,1,,,,,,,,,,,,,,,,,,,,,,,,,,,,,,,,,,,,,,,
,,,,,,,,2023-08-16_08h43.37.936,HF_wild_card,2022.2.4,Win32,62.37135907,636a64b9de83082028122c63,64d2fd46c836a06233681665,64dc7e07bd8f1d06ebe1fce1,,,,,,,decisionTrl,resources/DB.BMP,resources/DBN.BMP,WildCard_Ex,0.21484375,0.026041667,1,0,0,1.2188,optionRight,95,12420,6,7,0,7,0,1,,,,,,,,,,,,,,,,,,,,,,,,,,,,,,,,,,,,,,,
,,,,,,,,2023-08-16_08h43.37.936,HF_wild_card,2022.2.4,Win32,62.37135907,636a64b9de83082028122c63,64d2fd46c836a06233681665,64dc7e07bd8f1d06ebe1fce1,,,,,,,ctch,resources/DP.BMP,resources/DB.BMP,Door1,0.162760417,0.01953125,1,0,0,1.2522,optionRight,30,12450,6,8,0,8,0,1,,,,,,,,,,,,,,,,,,,,,,,,,,,,,,,,,,,,,,,
,,,,,,,,2023-08-16_08h43.37.936,HF_wild_card,2022.2.4,Win32,62.37135907,636a64b9de83082028122c63,64d2fd46c836a06233681665,64dc7e07bd8f1d06ebe1fce1,,,,,,,decisionTrl,resources/DBN.BMP,resources/DB.BMP,WildCard_Ex,-0.208333333,0.03125,1,0,0,1.2961,optionLeft,5,12455,6,9,0,9,0,1,,,,,,,,,,,,,,,,,,,,,,,,,,,,,,,,,,,,,,,
,,,,,,,,2023-08-16_08h43.37.936,HF_wild_card,2022.2.4,Win32,62.37135907,636a64b9de83082028122c63,64d2fd46c836a06233681665,64dc7e07bd8f1d06ebe1fce1,,,,,,,sngl,resources/Empty.png,resources/DBN.BMP,WildCard_Ex,0.25,0.001302083,1,0,0,1.1449,optionRight,5,12460,6,10,0,10,0,1,,,,,,,,,,,,,,,,,,,,,,,,,,,,,,,,,,,,,,,
,,,,,,,,2023-08-16_08h43.37.936,HF_wild_card,2022.2.4,Win32,62.37135907,636a64b9de83082028122c63,64d2fd46c836a06233681665,64dc7e07bd8f1d06ebe1fce1,,,,,,,decisionTrl,resources/DB.BMP,resources/DR.BMP,Door1,-0.180989583,0.010416667,1,0,0,1.1107,optionLeft,30,12490,6,11,0,11,0,1,,,,,,,,,,,,,,,,,,,,,,,,,,,,,,,,,,,,,,,
,,,,,,,,2023-08-16_08h43.37.936,HF_wild_card,2022.2.4,Win32,62.37135907,636a64b9de83082028122c63,64d2fd46c836a06233681665,64dc7e07bd8f1d06ebe1fce1,,,,,,,ctch,resources/DB.BMP,resources/DP.BMP,Door1,-0.229166667,0.013020833,1,0,0,1.5245,optionLeft,30,12520,6,12,0,12,0,1,,,,,,,,,,,,,,,,,,,,,,,,,,,,,,,,,,,,,,,
,,,,,,,,2023-08-16_08h43.37.936,HF_wild_card,2022.2.4,Win32,62.37135907,636a64b9de83082028122c63,64d2fd46c836a06233681665,64dc7e07bd8f1d06ebe1fce1,,,,,,,decisionTrl,resources/DP.BMP,resources/DY.BMP,Door3,0.209635417,0.02734375,1,0,0,1.4779,optionRight,70,12590,6,13,0,13,0,1,,,,,,,,,,,,,,,,,,,,,,,,,,,,,,,,,,,,,,,
,,,,,,,,2023-08-16_08h43.37.936,HF_wild_card,2022.2.4,Win32,62.37135907,636a64b9de83082028122c63,64d2fd46c836a06233681665,64dc7e07bd8f1d06ebe1fce1,,,,,,,sngl,resources/Empty.png,resources/DBN.BMP,WildCard_Ex,0.2109375,0.006510417,1,0,0,1.3573,optionRight,95,12685,6,14,0,14,0,1,,,,,,,,,,,,,,,,,,,,,,,,,,,,,,,,,,,,,,,
,,,,,,,,2023-08-16_08h43.37.936,HF_wild_card,2022.2.4,Win32,62.37135907,636a64b9de83082028122c63,64d2fd46c836a06233681665,64dc7e07bd8f1d06ebe1fce1,,,,,,,sngl,resources/DB.BMP,resources/Empty.png,Door1,-0.348958333,0.01171875,1,0,0,1.1272,optionLeft,30,12715,6,15,0,15,0,1,,,,,,,,,,,,,,,,,,,,,,,,,,,,,,,,,,,,,,,
,,,,,,,,2023-08-16_08h43.37.936,HF_wild_card,2022.2.4,Win32,62.37135907,636a64b9de83082028122c63,64d2fd46c836a06233681665,64dc7e07bd8f1d06ebe1fce1,,,,,,,decisionTrl,resources/DBN.BMP,resources/DY.BMP,WildCard_Ex,-0.200520833,0.032552083,1,0,0,1.1453,optionLeft,5,12720,6,16,0,16,0,1,,,,,,,,,,,,,,,,,,,,,,,,,,,,,,,,,,,,,,,
,,,,,,,,2023-08-16_08h43.37.936,HF_wild_card,2022.2.4,Win32,62.37135907,636a64b9de83082028122c63,64d2fd46c836a06233681665,64dc7e07bd8f1d06ebe1fce1,,,,,,,ctch,resources/DP.BMP,resources/DB.BMP,Door1,0.208333333,-0.036458333,1,0,0,1.7179,optionRight,30,12750,6,17,0,17,0,1,,,,,,,,,,,,,,,,,,,,,,,,,,,,,,,,,,,,,,,
,,,,,,,,2023-08-16_08h43.37.936,HF_wild_card,2022.2.4,Win32,62.37135907,636a64b9de83082028122c63,64d2fd46c836a06233681665,64dc7e07bd8f1d06ebe1fce1,,,,,,,decisionTrl,resources/DR.BMP,resources/DB.BMP,Door1,0.227864583,-0.065104167,1,0,0,1.3769,optionRight,30,12780,6,18,0,18,0,1,,,,,,,,,,,,,,,,,,,,,,,,,,,,,,,,,,,,,,,
,,,,,,,,2023-08-16_08h43.37.936,HF_wild_card,2022.2.4,Win32,62.37135907,636a64b9de83082028122c63,64d2fd46c836a06233681665,64dc7e07bd8f1d06ebe1fce1,,,,,,,decisionTrl,resources/DR.BMP,resources/DB.BMP,Door1,0.13671875,-0.006510417,1,0,0,1.7183,optionRight,30,12810,6,19,0,19,0,1,,,,,,,,,,,,,,,,,,,,,,,,,,,,,,,,,,,,,,,
,,,,,,,,2023-08-16_08h43.37.936,HF_wild_card,2022.2.4,Win32,62.37135907,636a64b9de83082028122c63,64d2fd46c836a06233681665,64dc7e07bd8f1d06ebe1fce1,,,,,,,decisionTrl,resources/DP.BMP,resources/DY.BMP,Door3,0.182291667,-0.044270833,1,0,0,1.5285,optionRight,70,12880,6,20,0,20,0,1,,,,,,,,,,,,,,,,,,,,,,,,,,,,,,,,,,,,,,,
,,,,,,,,2023-08-16_08h43.37.936,HF_wild_card,2022.2.4,Win32,62.37135907,636a64b9de83082028122c63,64d2fd46c836a06233681665,64dc7e07bd8f1d06ebe1fce1,,,,,,,sngl,resources/DP.BMP,resources/Empty.png,Door4,-0.217447917,0.01171875,1,0,0,1.1799,optionLeft,60,12940,6,21,0,21,0,1,,,,,,,,,,,,,,,,,,,,,,,,,,,,,,,,,,,,,,,
,,,,,,,,2023-08-16_08h43.37.936,HF_wild_card,2022.2.4,Win32,62.37135907,636a64b9de83082028122c63,64d2fd46c836a06233681665,64dc7e07bd8f1d06ebe1fce1,,,,,,,decisionTrl,resources/DR.BMP,resources/DB.BMP,Door1,0.151041667,0.00390625,1,0,0,1.2965,optionRight,30,12970,6,22,0,22,0,1,,,,,,,,,,,,,,,,,,,,,,,,,,,,,,,,,,,,,,,
,,,,,,,,2023-08-16_08h43.37.936,HF_wild_card,2022.2.4,Win32,62.37135907,636a64b9de83082028122c63,64d2fd46c836a06233681665,64dc7e07bd8f1d06ebe1fce1,,,,,,,ctch,resources/DB.BMP,resources/DP.BMP,Door4,0.1796875,0.028645833,1,0,0,2.0933,optionRight,60,13030,6,23,0,23,0,1,,,,,,,,,,,,,,,,,,,,,,,,,,,,,,,,,,,,,,,
,,,,,,,,2023-08-16_08h43.37.936,HF_wild_card,2022.2.4,Win32,62.37135907,636a64b9de83082028122c63,64d2fd46c836a06233681665,64dc7e07bd8f1d06ebe1fce1,,,,,,,sngl,resources/DBN.BMP,resources/Empty.png,WildCard_Ex,-0.31640625,0.055989583,1,0,0,1.0971,optionLeft,95,13125,6,24,0,24,0,1,,,,,,,,,,,,,,,,,,,,,,,,,,,,,,,,,,,,,,,
,,,,,,,,2023-08-16_08h43.37.936,HF_wild_card,2022.2.4,Win32,62.37135907,636a64b9de83082028122c63,64d2fd46c836a06233681665,64dc7e07bd8f1d06ebe1fce1,,,,,,,decisionTrl,resources/DY.BMP,resources/DP.BMP,Door3,-0.135416667,-0.01171875,1,0,0,1.288,optionLeft,70,13195,6,25,0,25,0,1,,,,,,,,,,,,,,,,,,,,,,,,,,,,,,,,,,,,,,,
,,,,,,,,2023-08-16_08h43.37.936,HF_wild_card,2022.2.4,Win32,62.37135907,636a64b9de83082028122c63,64d2fd46c836a06233681665,64dc7e07bd8f1d06ebe1fce1,,,,,,,sngl,resources/Empty.png,resources/DP.BMP,Door4,0.23046875,-0.028645833,1,0,0,1.1022,optionRight,80,13275,6,26,0,26,0,1,,,,,,,,,,,,,,,,,,,,,,,,,,,,,,,,,,,,,,,
,,,,,,,,2023-08-16_08h43.37.936,HF_wild_card,2022.2.4,Win32,62.37135907,636a64b9de83082028122c63,64d2fd46c836a06233681665,64dc7e07bd8f1d06ebe1fce1,,,,,,,sngl,resources/Empty.png,resources/DY.BMP,Door3,0.1953125,0.006510417,1,0,0,1.1171,optionRight,70,13345,6,27,0,27,0,1,,,,,,,,,,,,,,,,,,,,,,,,,,,,,,,,,,,,,,,
,,,,,,,,2023-08-16_08h43.37.936,HF_wild_card,2022.2.4,Win32,62.37135907,636a64b9de83082028122c63,64d2fd46c836a06233681665,64dc7e07bd8f1d06ebe1fce1,,,,,,,sngl,resources/DBN.BMP,resources/Empty.png,WildCard_Ex,-0.234375,0.0078125,1,0,0,0.9802,optionLeft,5,13350,6,28,0,28,0,1,,,,,,,,,,,,,,,,,,,,,,,,,,,,,,,,,,,,,,,
,,,,,,,,2023-08-16_08h43.37.936,HF_wild_card,2022.2.4,Win32,62.37135907,636a64b9de83082028122c63,64d2fd46c836a06233681665,64dc7e07bd8f1d06ebe1fce1,,,,,,,decisionTrl,resources/DB.BMP,resources/DR.BMP,Door1,-0.205729167,0.036458333,1,0,0,1.2514,optionLeft,30,13380,6,29,0,29,0,1,,,,,,,,,,,,,,,,,,,,,,,,,,,,,,,,,,,,,,,
,,,,,,,,2023-08-16_08h43.37.936,HF_wild_card,2022.2.4,Win32,62.37135907,636a64b9de83082028122c63,64d2fd46c836a06233681665,64dc7e07bd8f1d06ebe1fce1,,,,,,,decisionTrl,resources/DY.BMP,resources/DP.BMP,Door3,-0.274739583,0.05859375,1,0,0,1.3119,optionLeft,70,13450,6,30,0,30,0,1,,,,,,,,,,,,,,,,,,,,,,,,,,,,,,,,,,,,,,,
,,,,,,,,2023-08-16_08h43.37.936,HF_wild_card,2022.2.4,Win32,62.37135907,636a64b9de83082028122c63,64d2fd46c836a06233681665,64dc7e07bd8f1d06ebe1fce1,,,,,,,decisionTrl,resources/DP.BMP,resources/DY.BMP,Door3,0.223958333,-0.014322917,1,0,0,1.2234,optionRight,70,13520,6,31,0,31,0,1,,,,,,,,,,,,,,,,,,,,,,,,,,,,,,,,,,,,,,,
,,,,,,,,2023-08-16_08h43.37.936,HF_wild_card,2022.2.4,Win32,62.37135907,636a64b9de83082028122c63,64d2fd46c836a06233681665,64dc7e07bd8f1d06ebe1fce1,,,,,,,ctch,resources/DR.BMP,resources/DY.BMP,Door3,0.162760417,0.001302083,1,0,0,1.385,optionRight,70,13590,6,32,0,32,0,1,,,,,,,,,,,,,,,,,,,,,,,,,,,,,,,,,,,,,,,
,,,,,,,,2023-08-16_08h43.37.936,HF_wild_card,2022.2.4,Win32,62.37135907,636a64b9de83082028122c63,64d2fd46c836a06233681665,64dc7e07bd8f1d06ebe1fce1,,,,,,,decisionTrl,resources/DY.BMP,resources/DBN.BMP,WildCard_Ex,0.147135417,0.045572917,1,0,0,1.3463,optionRight,5,13595,6,33,0,33,0,1,,,,,,,,,,,,,,,,,,,,,,,,,,,,,,,,,,,,,,,
,,,,,,,,2023-08-16_08h43.37.936,HF_wild_card,2022.2.4,Win32,62.37135907,636a64b9de83082028122c63,64d2fd46c836a06233681665,64dc7e07bd8f1d06ebe1fce1,,,,,,,decisionTrl,resources/DBN.BMP,resources/DP.BMP,WildCard_Ex,-0.248697917,0.046875,1,0,0,1.1204,optionLeft,5,13600,6,34,0,34,0,1,,,,,,,,,,,,,,,,,,,,,,,,,,,,,,,,,,,,,,,
,,,,,,,,2023-08-16_08h43.37.936,HF_wild_card,2022.2.4,Win32,62.37135907,636a64b9de83082028122c63,64d2fd46c836a06233681665,64dc7e07bd8f1d06ebe1fce1,,,,,,,sngl,resources/DR.BMP,resources/Empty.png,Door2,-0.270833333,0.046875,1,0,0,1.0022,optionLeft,20,13620,6,35,0,35,0,1,,,,,,,,,,,,,,,,,,,,,,,,,,,,,,,,,,,,,,,
,,,,,,,,2023-08-16_08h43.37.936,HF_wild_card,2022.2.4,Win32,62.37135907,636a64b9de83082028122c63,64d2fd46c836a06233681665,64dc7e07bd8f1d06ebe1fce1,,,,,,,ctch,resources/DR.BMP,resources/DY.BMP,Door3,0.223958333,-0.013020833,1,0,0,1.2047,optionRight,70,13690,6,36,0,36,0,1,,,,,,,,,,,,,,,,,,,,,,,,,,,,,,,,,,,,,,,
,,,,,,,,2023-08-16_08h43.37.936,HF_wild_card,2022.2.4,Win32,62.37135907,636a64b9de83082028122c63,64d2fd46c836a06233681665,64dc7e07bd8f1d06ebe1fce1,,,,,,,ctch,resources/DY.BMP,resources/DR.BMP,Door3,-0.221354167,0.022135417,1,0,0,1.1119,optionLeft,70,13760,6,37,0,37,0,1,,,,,,,,,,,,,,,,,,,,,,,,,,,,,,,,,,,,,,,
,,,,,,,,2023-08-16_08h43.37.936,HF_wild_card,2022.2.4,Win32,62.37135907,636a64b9de83082028122c63,64d2fd46c836a06233681665,64dc7e07bd8f1d06ebe1fce1,,,,,,,decisionTrl,resources/DP.BMP,resources/DBN.BMP,WildCard_Ex,0.169270833,0.010416667,1,0,0,1.2264,optionRight,95,13855,6,38,0,38,0,1,,,,,,,,,,,,,,,,,,,,,,,,,,,,,,,,,,,,,,,
,,,,,,,,2023-08-16_08h43.37.936,HF_wild_card,2022.2.4,Win32,62.37135907,636a64b9de83082028122c63,64d2fd46c836a06233681665,64dc7e07bd8f1d06ebe1fce1,,,,,,,ctch,resources/DY.BMP,resources/DR.BMP,Door3,-0.223958333,0.026041667,1,0,0,1.1999,optionLeft,70,13925,6,39,0,39,0,1,,,,,,,,,,,,,,,,,,,,,,,,,,,,,,,,,,,,,,,
,,,,,,,,2023-08-16_08h43.37.936,HF_wild_card,2022.2.4,Win32,62.37135907,636a64b9de83082028122c63,64d2fd46c836a06233681665,64dc7e07bd8f1d06ebe1fce1,,,,,,,decisionTrl,resources/DB.BMP,resources/DR.BMP,Door1,-0.18359375,0.036458333,1,0,0,1.6757,optionLeft,30,13955,6,40,0,40,0,1,,,,,,,,,,,,,,,,,,,,,,,,,,,,,,,,,,,,,,,
,,,,,,,,2023-08-16_08h43.37.936,HF_wild_card,2022.2.4,Win32,62.37135907,636a64b9de83082028122c63,64d2fd46c836a06233681665,64dc7e07bd8f1d06ebe1fce1,,,,,,,sngl,resources/DY.BMP,resources/Empty.png,Door3,-0.140625,0.0390625,1,0,0,1.0725,optionLeft,70,14025,6,41,0,41,0,1,,,,,,,,,,,,,,,,,,,,,,,,,,,,,,,,,,,,,,,
,,,,,,,,2023-08-16_08h43.37.936,HF_wild_card,2022.2.4,Win32,62.37135907,636a64b9de83082028122c63,64d2fd46c836a06233681665,64dc7e07bd8f1d06ebe1fce1,,,,,,,sngl,resources/Empty.png,resources/DR.BMP,Door2,0.188802083,0.0078125,1,0,0,1.1478,optionRight,40,14065,6,42,0,42,0,1,,,,,,,,,,,,,,,,,,,,,,,,,,,,,,,,,,,,,,,
,,,,,,,,2023-08-16_08h43.37.936,HF_wild_card,2022.2.4,Win32,62.37135907,636a64b9de83082028122c63,64d2fd46c836a06233681665,64dc7e07bd8f1d06ebe1fce1,,,,,,,decisionTrl,resources/DBN.BMP,resources/DR.BMP,WildCard_Ex,-0.161458333,0.044270833,1,0,0,1.0288,optionLeft,95,14160,6,43,0,43,0,1,,,,,,,,,,,,,,,,,,,,,,,,,,,,,,,,,,,,,,,
,,,,,,,,2023-08-16_08h43.37.936,HF_wild_card,2022.2.4,Win32,62.37135907,636a64b9de83082028122c63,64d2fd46c836a06233681665,64dc7e07bd8f1d06ebe1fce1,,,,,,,,,,,,,,,,,,,,,,,,,,5,0,5,0,1,,,,,,,,,,,,,,,,,,,,,,,,,,,,,,,,,,
,,,,,,,,2023-08-16_08h43.37.936,HF_wild_card,2022.2.4,Win32,62.37135907,636a64b9de83082028122c63,64d2fd46c836a06233681665,64dc7e07bd8f1d06ebe1fce1,,,,,,,ctch,resources/DY.BMP,resources/DR.BMP,Door3,-0.221354167,-0.1015625,1,0,0,1.3375,optionLeft,70,14230,7,0,0,0,0,1,,,,,,,,,,,,,,,,,,,,,,,,,,,,,,,,,,,,,,,
,,,,,,,,2023-08-16_08h43.37.936,HF_wild_card,2022.2.4,Win32,62.37135907,636a64b9de83082028122c63,64d2fd46c836a06233681665,64dc7e07bd8f1d06ebe1fce1,,,,,,,ctch,resources/DB.BMP,resources/DP.BMP,Door4,0.287760417,-0.006510417,1,0,0,1.8175,optionRight,60,14290,7,1,0,1,0,1,,,,,,,,,,,,,,,,,,,,,,,,,,,,,,,,,,,,,,,
,,,,,,,,2023-08-16_08h43.37.936,HF_wild_card,2022.2.4,Win32,62.37135907,636a64b9de83082028122c63,64d2fd46c836a06233681665,64dc7e07bd8f1d06ebe1fce1,,,,,,,ctch,resources/DP.BMP,resources/DB.BMP,Door4,-0.177083333,0.018229167,1,0,0,1.332,optionLeft,60,14350,7,2,0,2,0,1,,,,,,,,,,,,,,,,,,,,,,,,,,,,,,,,,,,,,,,
,,,,,,,,2023-08-16_08h43.37.936,HF_wild_card,2022.2.4,Win32,62.37135907,636a64b9de83082028122c63,64d2fd46c836a06233681665,64dc7e07bd8f1d06ebe1fce1,,,,,,,ctch,resources/DY.BMP,resources/DR.BMP,Door3,-0.169270833,0.033854167,1,0,0,1.138,optionLeft,70,14420,7,3,0,3,0,1,,,,,,,,,,,,,,,,,,,,,,,,,,,,,,,,,,,,,,,
,,,,,,,,2023-08-16_08h43.37.936,HF_wild_card,2022.2.4,Win32,62.37135907,636a64b9de83082028122c63,64d2fd46c836a06233681665,64dc7e07bd8f1d06ebe1fce1,,,,,,,decisionTrl,resources/DB.BMP,resources/DR.BMP,Door1,-0.153645833,0.04296875,1,0,0,1.1597,optionLeft,30,14450,7,4,0,4,0,1,,,,,,,,,,,,,,,,,,,,,,,,,,,,,,,,,,,,,,,
,,,,,,,,2023-08-16_08h43.37.936,HF_wild_card,2022.2.4,Win32,62.37135907,636a64b9de83082028122c63,64d2fd46c836a06233681665,64dc7e07bd8f1d06ebe1fce1,,,,,,,ctch,resources/DY.BMP,resources/DR.BMP,Door3,-0.171875,0.033854167,1,0,0,1.358,optionLeft,70,14520,7,5,0,5,0,1,,,,,,,,,,,,,,,,,,,,,,,,,,,,,,,,,,,,,,,
,,,,,,,,2023-08-16_08h43.37.936,HF_wild_card,2022.2.4,Win32,62.37135907,636a64b9de83082028122c63,64d2fd46c836a06233681665,64dc7e07bd8f1d06ebe1fce1,,,,,,,decisionTrl,resources/DR.BMP,resources/DB.BMP,Door1,0.209635417,0.020833333,1,0,0,1.391,optionRight,30,14550,7,6,0,6,0,1,,,,,,,,,,,,,,,,,,,,,,,,,,,,,,,,,,,,,,,
,,,,,,,,2023-08-16_08h43.37.936,HF_wild_card,2022.2.4,Win32,62.37135907,636a64b9de83082028122c63,64d2fd46c836a06233681665,64dc7e07bd8f1d06ebe1fce1,,,,,,,decisionTrl,resources/DP.BMP,resources/DY.BMP,Door3,0.178385417,0.037760417,1,0,0,1.3373,optionRight,70,14620,7,7,0,7,0,1,,,,,,,,,,,,,,,,,,,,,,,,,,,,,,,,,,,,,,,
,,,,,,,,2023-08-16_08h43.37.936,HF_wild_card,2022.2.4,Win32,62.37135907,636a64b9de83082028122c63,64d2fd46c836a06233681665,64dc7e07bd8f1d06ebe1fce1,,,,,,,ctch,resources/DB.BMP,resources/DP.BMP,Door4,0.19140625,-0.0078125,1,0,0,1.4763,optionRight,60,14680,7,8,0,8,0,1,,,,,,,,,,,,,,,,,,,,,,,,,,,,,,,,,,,,,,,
,,,,,,,,2023-08-16_08h43.37.936,HF_wild_card,2022.2.4,Win32,62.37135907,636a64b9de83082028122c63,64d2fd46c836a06233681665,64dc7e07bd8f1d06ebe1fce1,,,,,,,ctch,resources/DR.BMP,resources/DY.BMP,Door3,0.131510417,-0.002604167,1,0,0,1.2729,optionRight,70,14750,7,9,0,9,0,1,,,,,,,,,,,,,,,,,,,,,,,,,,,,,,,,,,,,,,,
,,,,,,,,2023-08-16_08h43.37.936,HF_wild_card,2022.2.4,Win32,62.37135907,636a64b9de83082028122c63,64d2fd46c836a06233681665,64dc7e07bd8f1d06ebe1fce1,,,,,,,decisionTrl,resources/DP.BMP,resources/DY.BMP,Door3,0.205729167,0.014322917,1,0,0,1.4398,optionRight,70,14820,7,10,0,10,0,1,,,,,,,,,,,,,,,,,,,,,,,,,,,,,,,,,,,,,,,
,,,,,,,,2023-08-16_08h43.37.936,HF_wild_card,2022.2.4,Win32,62.37135907,636a64b9de83082028122c63,64d2fd46c836a06233681665,64dc7e07bd8f1d06ebe1fce1,,,,,,,decisionTrl,resources/DR.BMP,resources/DB.BMP,Door1,0.126302083,0.001302083,1,0,0,1.5367,optionRight,30,14850,7,11,0,11,0,1,,,,,,,,,,,,,,,,,,,,,,,,,,,,,,,,,,,,,,,
,,,,,,,,2023-08-16_08h43.37.936,HF_wild_card,2022.2.4,Win32,62.37135907,636a64b9de83082028122c63,64d2fd46c836a06233681665,64dc7e07bd8f1d06ebe1fce1,,,,,,,decisionTrl,resources/DP.BMP,resources/DY.BMP,Door3,0.161458333,0.005208333,1,0,0,1.6178,optionRight,70,14920,7,12,0,12,0,1,,,,,,,,,,,,,,,,,,,,,,,,,,,,,,,,,,,,,,,
,,,,,,,,2023-08-16_08h43.37.936,HF_wild_card,2022.2.4,Win32,62.37135907,636a64b9de83082028122c63,64d2fd46c836a06233681665,64dc7e07bd8f1d06ebe1fce1,,,,,,,decisionTrl,resources/DY.BMP,resources/DP.BMP,Door3,-0.1953125,0.015625,1,0,0,1.275,optionLeft,70,14990,7,13,0,13,0,1,,,,,,,,,,,,,,,,,,,,,,,,,,,,,,,,,,,,,,,
,,,,,,,,2023-08-16_08h43.37.936,HF_wild_card,2022.2.4,Win32,62.37135907,636a64b9de83082028122c63,64d2fd46c836a06233681665,64dc7e07bd8f1d06ebe1fce1,,,,,,,ctch,resources/DB.BMP,resources/DP.BMP,Door4,0.265625,0,1,0,0,1.6356,optionRight,80,15070,7,14,0,14,0,1,,,,,,,,,,,,,,,,,,,,,,,,,,,,,,,,,,,,,,,
,,,,,,,,2023-08-16_08h43.37.936,HF_wild_card,2022.2.4,Win32,62.37135907,636a64b9de83082028122c63,64d2fd46c836a06233681665,64dc7e07bd8f1d06ebe1fce1,,,,,,,ctch,resources/DP.BMP,resources/DB.BMP,Door4,-0.1484375,0.010416667,1,0,0,1.5021,optionLeft,60,15130,7,15,0,15,0,1,,,,,,,,,,,,,,,,,,,,,,,,,,,,,,,,,,,,,,,
,,,,,,,,2023-08-16_08h43.37.936,HF_wild_card,2022.2.4,Win32,62.37135907,636a64b9de83082028122c63,64d2fd46c836a06233681665,64dc7e07bd8f1d06ebe1fce1,,,,,,,decisionTrl,resources/DR.BMP,resources/DB.BMP,Door1,0.208333333,0.006510417,1,0,0,1.7718,optionRight,30,15160,7,16,0,16,0,1,,,,,,,,,,,,,,,,,,,,,,,,,,,,,,,,,,,,,,,
,,,,,,,,2023-08-16_08h43.37.936,HF_wild_card,2022.2.4,Win32,62.37135907,636a64b9de83082028122c63,64d2fd46c836a06233681665,64dc7e07bd8f1d06ebe1fce1,,,,,,,decisionTrl,resources/DP.BMP,resources/DY.BMP,Door3,0.194010417,0.0078125,1,0,0,1.2385,optionRight,70,15230,7,17,0,17,0,1,,,,,,,,,,,,,,,,,,,,,,,,,,,,,,,,,,,,,,,
,,,,,,,,2023-08-16_08h43.37.936,HF_wild_card,2022.2.4,Win32,62.37135907,636a64b9de83082028122c63,64d2fd46c836a06233681665,64dc7e07bd8f1d06ebe1fce1,,,,,,,decisionTrl,resources/DY.BMP,resources/DP.BMP,Door3,-0.22265625,0.032552083,1,0,0,1.4029,optionLeft,70,15300,7,18,0,18,0,1,,,,,,,,,,,,,,,,,,,,,,,,,,,,,,,,,,,,,,,
,,,,,,,,2023-08-16_08h43.37.936,HF_wild_card,2022.2.4,Win32,62.37135907,636a64b9de83082028122c63,64d2fd46c836a06233681665,64dc7e07bd8f1d06ebe1fce1,,,,,,,decisionTrl,resources/DY.BMP,resources/DP.BMP,Door3,-0.196614583,0.037760417,1,0,0,1.4838,optionLeft,70,15370,7,19,0,19,0,1,,,,,,,,,,,,,,,,,,,,,,,,,,,,,,,,,,,,,,,
,,,,,,,,2023-08-16_08h43.37.936,HF_wild_card,2022.2.4,Win32,62.37135907,636a64b9de83082028122c63,64d2fd46c836a06233681665,64dc7e07bd8f1d06ebe1fce1,,,,,,,decisionTrl,resources/DR.BMP,resources/DB.BMP,Door1,0.263020833,0.028645833,1,0,0,1.5488,optionRight,30,15400,7,20,0,20,0,1,,,,,,,,,,,,,,,,,,,,,,,,,,,,,,,,,,,,,,,
,,,,,,,,2023-08-16_08h43.37.936,HF_wild_card,2022.2.4,Win32,62.37135907,636a64b9de83082028122c63,64d2fd46c836a06233681665,64dc7e07bd8f1d06ebe1fce1,,,,,,,decisionTrl,resources/DB.BMP,resources/DR.BMP,Door1,-0.169270833,0.026041667,1,0,0,1.3541,optionLeft,30,15430,7,21,0,21,0,1,,,,,,,,,,,,,,,,,,,,,,,,,,,,,,,,,,,,,,,
,,,,,,,,2023-08-16_08h43.37.936,HF_wild_card,2022.2.4,Win32,62.37135907,636a64b9de83082028122c63,64d2fd46c836a06233681665,64dc7e07bd8f1d06ebe1fce1,,,,,,,decisionTrl,resources/DP.BMP,resources/DY.BMP,Door3,0.201822917,0.00390625,1,0,0,1.6557,optionRight,70,15500,7,22,0,22,0,1,,,,,,,,,,,,,,,,,,,,,,,,,,,,,,,,,,,,,,,
,,,,,,,,2023-08-16_08h43.37.936,HF_wild_card,2022.2.4,Win32,62.37135907,636a64b9de83082028122c63,64d2fd46c836a06233681665,64dc7e07bd8f1d06ebe1fce1,,,,,,,decisionTrl,resources/DB.BMP,resources/DR.BMP,Door1,-0.20703125,0.013020833,1,0,0,1.2714,optionLeft,30,15530,7,23,0,23,0,1,,,,,,,,,,,,,,,,,,,,,,,,,,,,,,,,,,,,,,,
,,,,,,,,2023-08-16_08h43.37.936,HF_wild_card,2022.2.4,Win32,62.37135907,636a64b9de83082028122c63,64d2fd46c836a06233681665,64dc7e07bd8f1d06ebe1fce1,,,,,,,decisionTrl,resources/DR.BMP,resources/DB.BMP,Door1,0.1640625,-0.01953125,1,0,0,1.4921,optionRight,30,15560,7,24,0,24,0,1,,,,,,,,,,,,,,,,,,,,,,,,,,,,,,,,,,,,,,,
,,,,,,,,2023-08-16_08h43.37.936,HF_wild_card,2022.2.4,Win32,62.37135907,636a64b9de83082028122c63,64d2fd46c836a06233681665,64dc7e07bd8f1d06ebe1fce1,,,,,,,decisionTrl,resources/DY.BMP,resources/DP.BMP,Door3,-0.223958333,0.006510417,1,0,0,1.3253,optionLeft,70,15630,7,25,0,25,0,1,,,,,,,,,,,,,,,,,,,,,,,,,,,,,,,,,,,,,,,
,,,,,,,,2023-08-16_08h43.37.936,HF_wild_card,2022.2.4,Win32,62.37135907,636a64b9de83082028122c63,64d2fd46c836a06233681665,64dc7e07bd8f1d06ebe1fce1,,,,,,,decisionTrl,resources/DB.BMP,resources/DR.BMP,Door1,-0.27734375,0.0234375,1,0,0,1.3708,optionLeft,30,15660,7,26,0,26,0,1,,,,,,,,,,,,,,,,,,,,,,,,,,,,,,,,,,,,,,,
,,,,,,,,2023-08-16_08h43.37.936,HF_wild_card,2022.2.4,Win32,62.37135907,636a64b9de83082028122c63,64d2fd46c836a06233681665,64dc7e07bd8f1d06ebe1fce1,,,,,,,decisionTrl,resources/DB.BMP,resources/DR.BMP,Door1,-0.151041667,0.026041667,1,0,0,1.2847,optionLeft,30,15690,7,27,0,27,0,1,,,,,,,,,,,,,,,,,,,,,,,,,,,,,,,,,,,,,,,
,,,,,,,,2023-08-16_08h43.37.936,HF_wild_card,2022.2.4,Win32,62.37135907,636a64b9de83082028122c63,64d2fd46c836a06233681665,64dc7e07bd8f1d06ebe1fce1,,,,,,,ctch,resources/DP.BMP,resources/DB.BMP,Door4,-0.131510417,0.04296875,1,0,0,2.0045,optionLeft,60,15750,7,28,0,28,0,1,,,,,,,,,,,,,,,,,,,,,,,,,,,,,,,,,,,,,,,
,,,,,,,,2023-08-16_08h43.37.936,HF_wild_card,2022.2.4,Win32,62.37135907,636a64b9de83082028122c63,64d2fd46c836a06233681665,64dc7e07bd8f1d06ebe1fce1,,,,,,,decisionTrl,resources/DY.BMP,resources/DP.BMP,Door3,-0.1875,0.022135417,1,0,0,1.2564,optionLeft,70,15820,7,29,0,29,0,1,,,,,,,,,,,,,,,,,,,,,,,,,,,,,,,,,,,,,,,
,,,,,,,,2023-08-16_08h43.37.936,HF_wild_card,2022.2.4,Win32,62.37135907,636a64b9de83082028122c63,64d2fd46c836a06233681665,64dc7e07bd8f1d06ebe1fce1,,,,,,,decisionTrl,resources/DR.BMP,resources/DB.BMP,Door1,0.173177083,-0.009114583,1,0,0,1.7396,optionRight,30,15850,7,30,0,30,0,1,,,,,,,,,,,,,,,,,,,,,,,,,,,,,,,,,,,,,,,
,,,,,,,,2023-08-16_08h43.37.936,HF_wild_card,2022.2.4,Win32,62.37135907,636a64b9de83082028122c63,64d2fd46c836a06233681665,64dc7e07bd8f1d06ebe1fce1,,,,,,,ctch,resources/DR.BMP,resources/DY.BMP,Door3,0.169270833,-0.0078125,1,0,0,1.8021,optionRight,70,15920,7,31,0,31,0,1,,,,,,,,,,,,,,,,,,,,,,,,,,,,,,,,,,,,,,,
,,,,,,,,2023-08-16_08h43.37.936,HF_wild_card,2022.2.4,Win32,62.37135907,636a64b9de83082028122c63,64d2fd46c836a06233681665,64dc7e07bd8f1d06ebe1fce1,,,,,,,decisionTrl,resources/DP.BMP,resources/DY.BMP,Door3,0.158854167,-0.015625,1,0,0,1.3238,optionRight,70,15990,7,32,0,32,0,1,,,,,,,,,,,,,,,,,,,,,,,,,,,,,,,,,,,,,,,
,,,,,,,,2023-08-16_08h43.37.936,HF_wild_card,2022.2.4,Win32,62.37135907,636a64b9de83082028122c63,64d2fd46c836a06233681665,64dc7e07bd8f1d06ebe1fce1,,,,,,,ctch,resources/DR.BMP,resources/DY.BMP,Door3,0.151041667,-0.01953125,1,0,0,1.3541,optionRight,70,16060,7,33,0,33,0,1,,,,,,,,,,,,,,,,,,,,,,,,,,,,,,,,,,,,,,,
,,,,,,,,2023-08-16_08h43.37.936,HF_wild_card,2022.2.4,Win32,62.37135907,636a64b9de83082028122c63,64d2fd46c836a06233681665,64dc7e07bd8f1d06ebe1fce1,,,,,,,decisionTrl,resources/DY.BMP,resources/DP.BMP,Door3,-0.15625,0.002604167,1,0,0,1.2932,optionLeft,70,16130,7,34,0,34,0,1,,,,,,,,,,,,,,,,,,,,,,,,,,,,,,,,,,,,,,,
,,,,,,,,2023-08-16_08h43.37.936,HF_wild_card,2022.2.4,Win32,62.37135907,636a64b9de83082028122c63,64d2fd46c836a06233681665,64dc7e07bd8f1d06ebe1fce1,,,,,,,decisionTrl,resources/DB.BMP,resources/DR.BMP,Door1,-0.15234375,0.018229167,1,0,0,1.6061,optionLeft,30,16160,7,35,0,35,0,1,,,,,,,,,,,,,,,,,,,,,,,,,,,,,,,,,,,,,,,
,,,,,,,,2023-08-16_08h43.37.936,HF_wild_card,2022.2.4,Win32,62.37135907,636a64b9de83082028122c63,64d2fd46c836a06233681665,64dc7e07bd8f1d06ebe1fce1,,,,,,,,,,,,,,,,,,,,,,,,,,6,0,6,0,1,,,,,,,,,,,,,,,,,,,,,,,,,,,,,,,,,,
,,,,,,,,2023-08-16_08h43.37.936,HF_wild_card,2022.2.4,Win32,62.37135907,636a64b9de83082028122c63,64d2fd46c836a06233681665,64dc7e07bd8f1d06ebe1fce1,,,,,,,,,,,,,,,,,,,,,,,,,,,,,,,4,,,,,,,,,,,,,,,,,,,,,,,,,,,,,,,,,
,,,,,,,,2023-08-16_08h43.37.936,HF_wild_card,2022.2.4,Win32,62.37135907,636a64b9de83082028122c63,64d2fd46c836a06233681665,64dc7e07bd8f1d06ebe1fce1,,,,,,,,,,,,,,,,,,,,,,,,,,,,,,,,,,,,,,,,,,,,,,,,,,,,,,,,,,,,,,,,
,,,,,,,,2023-08-16_08h43.37.936,HF_wild_card,2022.2.4,Win32,62.37135907,636a64b9de83082028122c63,64d2fd46c836a06233681665,64dc7e07bd8f1d06ebe1fce1,,,,,,,,,,,,,,,,,,,,,,,,,,,,,,,,95,WC_extreme,resources/DBN.BMP,0,0,0,0,1,,,,,,,,,,,,,,,,,,,,,,,,,
,,,,,,,,2023-08-16_08h43.37.936,HF_wild_card,2022.2.4,Win32,62.37135907,636a64b9de83082028122c63,64d2fd46c836a06233681665,64dc7e07bd8f1d06ebe1fce1,,,,,,,,,,,,,,,,,,,,,,,,,,,,,,,,70,Door4,resources/DP.BMP,1,0,1,0,1,,,,,,,,,,,,,,,,,,,,,,,,,
,,,,,,,,2023-08-16_08h43.37.936,HF_wild_card,2022.2.4,Win32,62.37135907,636a64b9de83082028122c63,64d2fd46c836a06233681665,64dc7e07bd8f1d06ebe1fce1,,,,,,,,,,,,,,,,,,,,,,,,,,,,,,,,30,Door1,resources/DB.BMP,2,0,2,0,1,,,,,,,,,,,,,,,,,,,,,,,,,
,,,,,,,,2023-08-16_08h43.37.936,HF_wild_card,2022.2.4,Win32,62.37135907,636a64b9de83082028122c63,64d2fd46c836a06233681665,64dc7e07bd8f1d06ebe1fce1,,,,,,,,,,,,,,,,,,,,,,,,,,,,,,,,70,Door3,resources/DY.BMP,3,0,3,0,1,,,,,,,,,,,,,,,,,,,,,,,,,
,,,,,,,,2023-08-16_08h43.37.936,HF_wild_card,2022.2.4,Win32,62.37135907,636a64b9de83082028122c63,64d2fd46c836a06233681665,64dc7e07bd8f1d06ebe1fce1,,,,,,,,,,,,,,,,,,,,,,,,,,,,,,,,40,WC_nonExtreme,resources/DG.BMP,4,0,4,0,1,,,,,,,,,,,,,,,,,,,,,,,,,
,,,,,,,,2023-08-16_08h43.37.936,HF_wild_card,2022.2.4,Win32,62.37135907,636a64b9de83082028122c63,64d2fd46c836a06233681665,64dc7e07bd8f1d06ebe1fce1,,,,,,,,,,,,,,,,,,,,,,,,,,,,,,,,20,Door2,resources/DR.BMP,5,0,5,0,1,,,,,,,,,,,,,,,,,,,,,,,,,
,,,,,,,,2023-08-16_08h43.37.936,HF_wild_card,2022.2.4,Win32,62.37135907,636a64b9de83082028122c63,64d2fd46c836a06233681665,64dc7e07bd8f1d06ebe1fce1,,,,,,,,,,,,,,,,,,,,,,,,,,,,,,,,,,,,,,,,,,,,,,,,,,,,,,,,,,,,,,,,
,,,,,,,,2023-08-16_08h43.37.936,HF_wild_card,2022.2.4,Win32,62.37135907,636a64b9de83082028122c63,64d2fd46c836a06233681665,64dc7e07bd8f1d06ebe1fce1,,,,,,,,,,,,,,,,,,,,,,,,,,,,,,,,,,,,,,,,0,0,0,0,1,,,,,,,,,,,,,,,,,,,,
,,,,,,,,2023-08-16_08h43.37.936,HF_wild_card,2022.2.4,Win32,62.37135907,636a64b9de83082028122c63,64d2fd46c836a06233681665,64dc7e07bd8f1d06ebe1fce1,,,,,,,,,,,,,,,,,,,,,,,,,,,,,,,,,,,,,,,,1,0,1,0,1,,,,,,,,,,,,,,,,,,,,
