Condition,Low fixed image (Door1),Low risky image (Door2),High fixed image (Door3),High risky image (Door4),Extreme Wild Card,NonExtreme Wild Card,,date,expName,psychopyVersion,OS,frameRate,PROLIFIC_PID,STUDY_ID,SESSION_ID,mouse_2.x,mouse_2.y,mouse_2.leftButton,mouse_2.midButton,mouse_2.rightButton,mouse_2.clicked_name,Trial Type,Left Option Image,Right Option Image,Chosen Door,mouse.x,mouse.y,mouse.leftButton,mouse.midButton,mouse.rightButton,mouse.time,mouse.clicked_name,Feedback,Cumulative Reward,Block,trial.thisRepN,trial.thisTrialN,trial.thisN,trial.thisIndex,trial.ran,blocks.thisRepN,blocks.thisTrialN,blocks.thisN,blocks.thisIndex,blocks.ran,Money conversion,First Outcome Reported,Shown Door (First Outcome),Displayed Image (First Outcome),outcomes.thisRepN,outcomes.thisTrialN,outcomes.thisN,outcomes.thisIndex,outcomes.ran,judgments.thisRepN,judgments.thisTrialN,judgments.thisN,judgments.thisIndex,judgments.ran,freqMouse.x,freqMouse.y,freqMouse.leftButton,freqMouse.midButton,freqMouse.rightButton,freqMouse.clicked_name,trials.thisRepN,trials.thisTrialN,trials.thisN,trials.thisIndex,trials.ran,FQJ for first outcome,FQJ for second outcome,Shown Door,Displayed Image,judgBlock.thisRepN,judgBlock.thisTrialN,judgBlock.thisN,judgBlock.thisIndex,judgBlock.ran
1,resources/DP.BMP,resources/DR.BMP,resources/DY.BMP,resources/DG.BMP,resources/DBN.BMP,resources/DB.BMP,,2023-08-16_08h48.00.669,HF_wild_card,2022.2.4,Win32,60.0132029,622e282986d38f7f8fb74e93,64d2fd46c836a06233681665,64dc7eda82aaae7350779d4c,,,,,,,,,,,,,,,,,,,,,,,,,,,,,,,,,,,,,,,,,,,,,,,,,,,,,,,,,,,,,,,,
,,,,,,,,2023-08-16_08h48.00.669,HF_wild_card,2022.2.4,Win32,60.0132029,622e282986d38f7f8fb74e93,64d2fd46c836a06233681665,64dc7eda82aaae7350779d4c,0.009114583,-0.4140625,1,0,0,agree,,,,,,,,,,,,,,,,,,,,,,,,,,,,,,,,,,,,,,,,,,,,,,,,,,,,,,,,,,
,,,,,,,,2023-08-16_08h48.00.669,HF_wild_card,2022.2.4,Win32,60.0132029,622e282986d38f7f8fb74e93,64d2fd46c836a06233681665,64dc7eda82aaae7350779d4c,,,,,,,,,,,,,,,,,,,,,,,,,,,,,,,,,,,,,,,,,,,,,,,,,,,,,,,,,,,,,,,,
,,,,,,,,2023-08-16_08h48.00.669,HF_wild_card,2022.2.4,Win32,60.0132029,622e282986d38f7f8fb74e93,64d2fd46c836a06233681665,64dc7eda82aaae7350779d4c,,,,,,,sngl,resources/DP.BMP,resources/Empty.png,Door1,0.15625,-0.002604167,1,0,0,4.2513,optionLeft,30,30,1,0,0,0,0,1,,,,,,,,,,,,,,,,,,,,,,,,,,,,,,,,,,,,,,,
,,,,,,,,2023-08-16_08h48.00.669,HF_wild_card,2022.2.4,Win32,60.0132029,622e282986d38f7f8fb74e93,64d2fd46c836a06233681665,64dc7eda82aaae7350779d4c,,,,,,,sngl,resources/DB.BMP,resources/Empty.png,WildCard_NonEx,-0.334635417,-0.0859375,1,0,0,2.1864,optionLeft,55,85,1,1,0,1,0,1,,,,,,,,,,,,,,,,,,,,,,,,,,,,,,,,,,,,,,,
,,,,,,,,2023-08-16_08h48.00.669,HF_wild_card,2022.2.4,Win32,60.0132029,622e282986d38f7f8fb74e93,64d2fd46c836a06233681665,64dc7eda82aaae7350779d4c,,,,,,,decisionTrl,resources/DP.BMP,resources/DR.BMP,Door1,-0.244791667,-0.059895833,1,0,0,3.2925,optionLeft,30,115,1,2,0,2,0,1,,,,,,,,,,,,,,,,,,,,,,,,,,,,,,,,,,,,,,,
,,,,,,,,2023-08-16_08h48.00.669,HF_wild_card,2022.2.4,Win32,60.0132029,622e282986d38f7f8fb74e93,64d2fd46c836a06233681665,64dc7eda82aaae7350779d4c,,,,,,,ctch,resources/DP.BMP,resources/DG.BMP,Door1,-0.4609375,-0.0703125,1,0,0,1.6489,optionLeft,30,145,1,3,0,3,0,1,,,,,,,,,,,,,,,,,,,,,,,,,,,,,,,,,,,,,,,
,,,,,,,,2023-08-16_08h48.00.669,HF_wild_card,2022.2.4,Win32,60.0132029,622e282986d38f7f8fb74e93,64d2fd46c836a06233681665,64dc7eda82aaae7350779d4c,,,,,,,sngl,resources/DR.BMP,resources/Empty.png,Door2,-0.401041667,-0.026041667,1,0,0,1.3232,optionLeft,40,185,1,4,0,4,0,1,,,,,,,,,,,,,,,,,,,,,,,,,,,,,,,,,,,,,,,
,,,,,,,,2023-08-16_08h48.00.669,HF_wild_card,2022.2.4,Win32,60.0132029,622e282986d38f7f8fb74e93,64d2fd46c836a06233681665,64dc7eda82aaae7350779d4c,,,,,,,decisionTrl,resources/DY.BMP,resources/DG.BMP,Door3,-0.305989583,-0.033854167,1,0,0,1.99,optionLeft,70,255,1,5,0,5,0,1,,,,,,,,,,,,,,,,,,,,,,,,,,,,,,,,,,,,,,,
,,,,,,,,2023-08-16_08h48.00.669,HF_wild_card,2022.2.4,Win32,60.0132029,622e282986d38f7f8fb74e93,64d2fd46c836a06233681665,64dc7eda82aaae7350779d4c,,,,,,,sngl,resources/Empty.png,resources/DP.BMP,Door1,0.256510417,-0.018229167,1,0,0,1.6428,optionRight,30,285,1,6,0,6,0,1,,,,,,,,,,,,,,,,,,,,,,,,,,,,,,,,,,,,,,,
,,,,,,,,2023-08-16_08h48.00.669,HF_wild_card,2022.2.4,Win32,60.0132029,622e282986d38f7f8fb74e93,64d2fd46c836a06233681665,64dc7eda82aaae7350779d4c,,,,,,,sngl,resources/Empty.png,resources/DY.BMP,Door3,0.354166667,0.014322917,1,0,0,1.2319,optionRight,70,355,1,7,0,7,0,1,,,,,,,,,,,,,,,,,,,,,,,,,,,,,,,,,,,,,,,
,,,,,,,,2023-08-16_08h48.00.669,HF_wild_card,2022.2.4,Win32,60.0132029,622e282986d38f7f8fb74e93,64d2fd46c836a06233681665,64dc7eda82aaae7350779d4c,,,,,,,decisionTrl,resources/DP.BMP,resources/DR.BMP,Door2,0.328125,0.036458333,1,0,0,2.651,optionRight,40,395,1,8,0,8,0,1,,,,,,,,,,,,,,,,,,,,,,,,,,,,,,,,,,,,,,,
,,,,,,,,2023-08-16_08h48.00.669,HF_wild_card,2022.2.4,Win32,60.0132029,622e282986d38f7f8fb74e93,64d2fd46c836a06233681665,64dc7eda82aaae7350779d4c,,,,,,,decisionTrl,resources/DB.BMP,resources/DY.BMP,Door3,0.295572917,-0.0390625,1,0,0,1.9027,optionRight,70,465,1,9,0,9,0,1,,,,,,,,,,,,,,,,,,,,,,,,,,,,,,,,,,,,,,,
,,,,,,,,2023-08-16_08h48.00.669,HF_wild_card,2022.2.4,Win32,60.0132029,622e282986d38f7f8fb74e93,64d2fd46c836a06233681665,64dc7eda82aaae7350779d4c,,,,,,,sngl,resources/DG.BMP,resources/Empty.png,Door4,-0.34765625,-0.040364583,1,0,0,1.2817,optionLeft,80,545,1,10,0,10,0,1,,,,,,,,,,,,,,,,,,,,,,,,,,,,,,,,,,,,,,,
,,,,,,,,2023-08-16_08h48.00.669,HF_wild_card,2022.2.4,Win32,60.0132029,622e282986d38f7f8fb74e93,64d2fd46c836a06233681665,64dc7eda82aaae7350779d4c,,,,,,,ctch,resources/DG.BMP,resources/DP.BMP,Door4,-0.266927083,-0.07421875,1,0,0,2.7864,optionLeft,60,605,1,11,0,11,0,1,,,,,,,,,,,,,,,,,,,,,,,,,,,,,,,,,,,,,,,
,,,,,,,,2023-08-16_08h48.00.669,HF_wild_card,2022.2.4,Win32,60.0132029,622e282986d38f7f8fb74e93,64d2fd46c836a06233681665,64dc7eda82aaae7350779d4c,,,,,,,sngl,resources/DY.BMP,resources/Empty.png,Door3,-0.328125,-0.048177083,1,0,0,1.1323,optionLeft,70,675,1,12,0,12,0,1,,,,,,,,,,,,,,,,,,,,,,,,,,,,,,,,,,,,,,,
,,,,,,,,2023-08-16_08h48.00.669,HF_wild_card,2022.2.4,Win32,60.0132029,622e282986d38f7f8fb74e93,64d2fd46c836a06233681665,64dc7eda82aaae7350779d4c,,,,,,,decisionTrl,resources/DY.BMP,resources/DG.BMP,Door3,-0.428385417,-0.033854167,1,0,0,1.0657,optionLeft,70,745,1,13,0,13,0,1,,,,,,,,,,,,,,,,,,,,,,,,,,,,,,,,,,,,,,,
,,,,,,,,2023-08-16_08h48.00.669,HF_wild_card,2022.2.4,Win32,60.0132029,622e282986d38f7f8fb74e93,64d2fd46c836a06233681665,64dc7eda82aaae7350779d4c,,,,,,,decisionTrl,resources/DP.BMP,resources/DB.BMP,Door1,-0.342447917,-0.029947917,1,0,0,1.6187,optionLeft,30,775,1,14,0,14,0,1,,,,,,,,,,,,,,,,,,,,,,,,,,,,,,,,,,,,,,,
,,,,,,,,2023-08-16_08h48.00.669,HF_wild_card,2022.2.4,Win32,60.0132029,622e282986d38f7f8fb74e93,64d2fd46c836a06233681665,64dc7eda82aaae7350779d4c,,,,,,,decisionTrl,resources/DP.BMP,resources/DR.BMP,Door1,-0.235677083,-0.057291667,1,0,0,1.9551,optionLeft,30,805,1,15,0,15,0,1,,,,,,,,,,,,,,,,,,,,,,,,,,,,,,,,,,,,,,,
,,,,,,,,2023-08-16_08h48.00.669,HF_wild_card,2022.2.4,Win32,60.0132029,622e282986d38f7f8fb74e93,64d2fd46c836a06233681665,64dc7eda82aaae7350779d4c,,,,,,,sngl,resources/DB.BMP,resources/Empty.png,WildCard_NonEx,-0.3828125,-0.03125,1,0,0,1.1171,optionLeft,45,850,1,16,0,16,0,1,,,,,,,,,,,,,,,,,,,,,,,,,,,,,,,,,,,,,,,
,,,,,,,,2023-08-16_08h48.00.669,HF_wild_card,2022.2.4,Win32,60.0132029,622e282986d38f7f8fb74e93,64d2fd46c836a06233681665,64dc7eda82aaae7350779d4c,,,,,,,sngl,resources/Empty.png,resources/DG.BMP,Door4,0.369791667,-0.010416667,1,0,0,1.1757,optionRight,60,910,1,17,0,17,0,1,,,,,,,,,,,,,,,,,,,,,,,,,,,,,,,,,,,,,,,
,,,,,,,,2023-08-16_08h48.00.669,HF_wild_card,2022.2.4,Win32,60.0132029,622e282986d38f7f8fb74e93,64d2fd46c836a06233681665,64dc7eda82aaae7350779d4c,,,,,,,decisionTrl,resources/DB.BMP,resources/DG.BMP,WildCard_NonEx,-0.244791667,-0.006510417,1,0,0,3.0208,optionLeft,55,965,1,18,0,18,0,1,,,,,,,,,,,,,,,,,,,,,,,,,,,,,,,,,,,,,,,
,,,,,,,,2023-08-16_08h48.00.669,HF_wild_card,2022.2.4,Win32,60.0132029,622e282986d38f7f8fb74e93,64d2fd46c836a06233681665,64dc7eda82aaae7350779d4c,,,,,,,decisionTrl,resources/DR.BMP,resources/DP.BMP,Door2,-0.279947917,-0.040364583,1,0,0,1.8362,optionLeft,40,1005,1,19,0,19,0,1,,,,,,,,,,,,,,,,,,,,,,,,,,,,,,,,,,,,,,,
,,,,,,,,2023-08-16_08h48.00.669,HF_wild_card,2022.2.4,Win32,60.0132029,622e282986d38f7f8fb74e93,64d2fd46c836a06233681665,64dc7eda82aaae7350779d4c,,,,,,,decisionTrl,resources/DY.BMP,resources/DB.BMP,Door3,-0.317708333,-0.0078125,1,0,0,1.6002,optionLeft,70,1075,1,20,0,20,0,1,,,,,,,,,,,,,,,,,,,,,,,,,,,,,,,,,,,,,,,
,,,,,,,,2023-08-16_08h48.00.669,HF_wild_card,2022.2.4,Win32,60.0132029,622e282986d38f7f8fb74e93,64d2fd46c836a06233681665,64dc7eda82aaae7350779d4c,,,,,,,decisionTrl,resources/DR.BMP,resources/DP.BMP,Door1,0.333333333,-0.02734375,1,0,0,1.7999,optionRight,30,1105,1,21,0,21,0,1,,,,,,,,,,,,,,,,,,,,,,,,,,,,,,,,,,,,,,,
,,,,,,,,2023-08-16_08h48.00.669,HF_wild_card,2022.2.4,Win32,60.0132029,622e282986d38f7f8fb74e93,64d2fd46c836a06233681665,64dc7eda82aaae7350779d4c,,,,,,,decisionTrl,resources/DY.BMP,resources/DG.BMP,Door3,-0.28515625,-0.020833333,1,0,0,1.0325,optionLeft,70,1175,1,22,0,22,0,1,,,,,,,,,,,,,,,,,,,,,,,,,,,,,,,,,,,,,,,
,,,,,,,,2023-08-16_08h48.00.669,HF_wild_card,2022.2.4,Win32,60.0132029,622e282986d38f7f8fb74e93,64d2fd46c836a06233681665,64dc7eda82aaae7350779d4c,,,,,,,decisionTrl,resources/DR.BMP,resources/DP.BMP,Door2,-0.334635417,0.013020833,1,0,0,1.8211,optionLeft,40,1215,1,23,0,23,0,1,,,,,,,,,,,,,,,,,,,,,,,,,,,,,,,,,,,,,,,
,,,,,,,,2023-08-16_08h48.00.669,HF_wild_card,2022.2.4,Win32,60.0132029,622e282986d38f7f8fb74e93,64d2fd46c836a06233681665,64dc7eda82aaae7350779d4c,,,,,,,sngl,resources/Empty.png,resources/DB.BMP,WildCard_NonEx,0.364583333,-0.0078125,1,0,0,1.1835,optionRight,45,1260,1,24,0,24,0,1,,,,,,,,,,,,,,,,,,,,,,,,,,,,,,,,,,,,,,,
,,,,,,,,2023-08-16_08h48.00.669,HF_wild_card,2022.2.4,Win32,60.0132029,622e282986d38f7f8fb74e93,64d2fd46c836a06233681665,64dc7eda82aaae7350779d4c,,,,,,,decisionTrl,resources/DY.BMP,resources/DG.BMP,Door3,-0.305989583,-0.028645833,1,0,0,1.1602,optionLeft,70,1330,1,25,0,25,0,1,,,,,,,,,,,,,,,,,,,,,,,,,,,,,,,,,,,,,,,
,,,,,,,,2023-08-16_08h48.00.669,HF_wild_card,2022.2.4,Win32,60.0132029,622e282986d38f7f8fb74e93,64d2fd46c836a06233681665,64dc7eda82aaae7350779d4c,,,,,,,decisionTrl,resources/DB.BMP,resources/DR.BMP,WildCard_NonEx,-0.252604167,-0.014322917,1,0,0,2.0138,optionLeft,55,1385,1,26,0,26,0,1,,,,,,,,,,,,,,,,,,,,,,,,,,,,,,,,,,,,,,,
,,,,,,,,2023-08-16_08h48.00.669,HF_wild_card,2022.2.4,Win32,60.0132029,622e282986d38f7f8fb74e93,64d2fd46c836a06233681665,64dc7eda82aaae7350779d4c,,,,,,,ctch,resources/DR.BMP,resources/DY.BMP,Door3,0.345052083,-0.040364583,1,0,0,1.3939,optionRight,70,1455,1,27,0,27,0,1,,,,,,,,,,,,,,,,,,,,,,,,,,,,,,,,,,,,,,,
,,,,,,,,2023-08-16_08h48.00.669,HF_wild_card,2022.2.4,Win32,60.0132029,622e282986d38f7f8fb74e93,64d2fd46c836a06233681665,64dc7eda82aaae7350779d4c,,,,,,,decisionTrl,resources/DR.BMP,resources/DP.BMP,Door1,0.328125,-0.0078125,1,0,0,1.3938,optionRight,30,1485,1,28,0,28,0,1,,,,,,,,,,,,,,,,,,,,,,,,,,,,,,,,,,,,,,,
,,,,,,,,2023-08-16_08h48.00.669,HF_wild_card,2022.2.4,Win32,60.0132029,622e282986d38f7f8fb74e93,64d2fd46c836a06233681665,64dc7eda82aaae7350779d4c,,,,,,,decisionTrl,resources/DG.BMP,resources/DY.BMP,Door3,0.278645833,-0.006510417,1,0,0,1.4785,optionRight,70,1555,1,29,0,29,0,1,,,,,,,,,,,,,,,,,,,,,,,,,,,,,,,,,,,,,,,
,,,,,,,,2023-08-16_08h48.00.669,HF_wild_card,2022.2.4,Win32,60.0132029,622e282986d38f7f8fb74e93,64d2fd46c836a06233681665,64dc7eda82aaae7350779d4c,,,,,,,decisionTrl,resources/DP.BMP,resources/DR.BMP,Door1,-0.2734375,-0.01171875,1,0,0,2.0447,optionLeft,30,1585,1,30,0,30,0,1,,,,,,,,,,,,,,,,,,,,,,,,,,,,,,,,,,,,,,,
,,,,,,,,2023-08-16_08h48.00.669,HF_wild_card,2022.2.4,Win32,60.0132029,622e282986d38f7f8fb74e93,64d2fd46c836a06233681665,64dc7eda82aaae7350779d4c,,,,,,,ctch,resources/DP.BMP,resources/DG.BMP,Door4,0.26953125,0.04296875,1,0,0,1.7585,optionRight,80,1665,1,31,0,31,0,1,,,,,,,,,,,,,,,,,,,,,,,,,,,,,,,,,,,,,,,
,,,,,,,,2023-08-16_08h48.00.669,HF_wild_card,2022.2.4,Win32,60.0132029,622e282986d38f7f8fb74e93,64d2fd46c836a06233681665,64dc7eda82aaae7350779d4c,,,,,,,ctch,resources/DR.BMP,resources/DY.BMP,Door3,0.342447917,-0.001302083,1,0,0,1.1155,optionRight,70,1735,1,32,0,32,0,1,,,,,,,,,,,,,,,,,,,,,,,,,,,,,,,,,,,,,,,
,,,,,,,,2023-08-16_08h48.00.669,HF_wild_card,2022.2.4,Win32,60.0132029,622e282986d38f7f8fb74e93,64d2fd46c836a06233681665,64dc7eda82aaae7350779d4c,,,,,,,decisionTrl,resources/DG.BMP,resources/DB.BMP,WildCard_NonEx,0.389322917,0.020833333,1,0,0,3.5341,optionRight,55,1790,1,33,0,33,0,1,,,,,,,,,,,,,,,,,,,,,,,,,,,,,,,,,,,,,,,
,,,,,,,,2023-08-16_08h48.00.669,HF_wild_card,2022.2.4,Win32,60.0132029,622e282986d38f7f8fb74e93,64d2fd46c836a06233681665,64dc7eda82aaae7350779d4c,,,,,,,ctch,resources/DY.BMP,resources/DR.BMP,Door3,-0.358072917,-0.016927083,1,0,0,1.043,optionLeft,70,1860,1,34,0,34,0,1,,,,,,,,,,,,,,,,,,,,,,,,,,,,,,,,,,,,,,,
,,,,,,,,2023-08-16_08h48.00.669,HF_wild_card,2022.2.4,Win32,60.0132029,622e282986d38f7f8fb74e93,64d2fd46c836a06233681665,64dc7eda82aaae7350779d4c,,,,,,,ctch,resources/DY.BMP,resources/DR.BMP,Door3,-0.393229167,0.001302083,1,0,0,0.8131,optionLeft,70,1930,1,35,0,35,0,1,,,,,,,,,,,,,,,,,,,,,,,,,,,,,,,,,,,,,,,
,,,,,,,,2023-08-16_08h48.00.669,HF_wild_card,2022.2.4,Win32,60.0132029,622e282986d38f7f8fb74e93,64d2fd46c836a06233681665,64dc7eda82aaae7350779d4c,,,,,,,decisionTrl,resources/DR.BMP,resources/DB.BMP,Door2,-0.330729167,-0.0078125,1,0,0,3.4452,optionLeft,20,1950,1,36,0,36,0,1,,,,,,,,,,,,,,,,,,,,,,,,,,,,,,,,,,,,,,,
,,,,,,,,2023-08-16_08h48.00.669,HF_wild_card,2022.2.4,Win32,60.0132029,622e282986d38f7f8fb74e93,64d2fd46c836a06233681665,64dc7eda82aaae7350779d4c,,,,,,,decisionTrl,resources/DG.BMP,resources/DY.BMP,Door3,0.352864583,-0.01953125,1,0,0,0.9039,optionRight,70,2020,1,37,0,37,0,1,,,,,,,,,,,,,,,,,,,,,,,,,,,,,,,,,,,,,,,
,,,,,,,,2023-08-16_08h48.00.669,HF_wild_card,2022.2.4,Win32,60.0132029,622e282986d38f7f8fb74e93,64d2fd46c836a06233681665,64dc7eda82aaae7350779d4c,,,,,,,ctch,resources/DG.BMP,resources/DP.BMP,Door4,-0.296875,0.0078125,1,0,0,0.9388,optionLeft,80,2100,1,38,0,38,0,1,,,,,,,,,,,,,,,,,,,,,,,,,,,,,,,,,,,,,,,
,,,,,,,,2023-08-16_08h48.00.669,HF_wild_card,2022.2.4,Win32,60.0132029,622e282986d38f7f8fb74e93,64d2fd46c836a06233681665,64dc7eda82aaae7350779d4c,,,,,,,sngl,resources/Empty.png,resources/DR.BMP,Door2,0.263020833,-0.016927083,1,0,0,1.2347,optionRight,20,2120,1,39,0,39,0,1,,,,,,,,,,,,,,,,,,,,,,,,,,,,,,,,,,,,,,,
,,,,,,,,2023-08-16_08h48.00.669,HF_wild_card,2022.2.4,Win32,60.0132029,622e282986d38f7f8fb74e93,64d2fd46c836a06233681665,64dc7eda82aaae7350779d4c,,,,,,,decisionTrl,resources/DB.BMP,resources/DP.BMP,WildCard_NonEx,-0.255208333,0.01171875,1,0,0,1.6633,optionLeft,55,2175,1,40,0,40,0,1,,,,,,,,,,,,,,,,,,,,,,,,,,,,,,,,,,,,,,,
,,,,,,,,2023-08-16_08h48.00.669,HF_wild_card,2022.2.4,Win32,60.0132029,622e282986d38f7f8fb74e93,64d2fd46c836a06233681665,64dc7eda82aaae7350779d4c,,,,,,,decisionTrl,resources/DG.BMP,resources/DY.BMP,Door4,-0.225260417,-0.059895833,1,0,0,1.7976,optionLeft,80,2255,1,41,0,41,0,1,,,,,,,,,,,,,,,,,,,,,,,,,,,,,,,,,,,,,,,
,,,,,,,,2023-08-16_08h48.00.669,HF_wild_card,2022.2.4,Win32,60.0132029,622e282986d38f7f8fb74e93,64d2fd46c836a06233681665,64dc7eda82aaae7350779d4c,,,,,,,sngl,resources/Empty.png,resources/DB.BMP,WildCard_NonEx,0.296875,0,1,0,0,0.9592,optionRight,55,2310,1,42,0,42,0,1,,,,,,,,,,,,,,,,,,,,,,,,,,,,,,,,,,,,,,,
,,,,,,,,2023-08-16_08h48.00.669,HF_wild_card,2022.2.4,Win32,60.0132029,622e282986d38f7f8fb74e93,64d2fd46c836a06233681665,64dc7eda82aaae7350779d4c,,,,,,,decisionTrl,resources/DG.BMP,resources/DY.BMP,Door3,0.326822917,0.006510417,1,0,0,1.2167,optionRight,70,2380,1,43,0,43,0,1,,,,,,,,,,,,,,,,,,,,,,,,,,,,,,,,,,,,,,,
,,,,,,,,2023-08-16_08h48.00.669,HF_wild_card,2022.2.4,Win32,60.0132029,622e282986d38f7f8fb74e93,64d2fd46c836a06233681665,64dc7eda82aaae7350779d4c,,,,,,,,,,,,,,,,,,,,,,,,,,0,0,0,0,1,,,,,,,,,,,,,,,,,,,,,,,,,,,,,,,,,,
,,,,,,,,2023-08-16_08h48.00.669,HF_wild_card,2022.2.4,Win32,60.0132029,622e282986d38f7f8fb74e93,64d2fd46c836a06233681665,64dc7eda82aaae7350779d4c,,,,,,,decisionTrl,resources/DG.BMP,resources/DB.BMP,Door4,-0.3359375,-0.057291667,1,0,0,1.6422,optionLeft,80,2460,2,0,0,0,0,1,,,,,,,,,,,,,,,,,,,,,,,,,,,,,,,,,,,,,,,
,,,,,,,,2023-08-16_08h48.00.669,HF_wild_card,2022.2.4,Win32,60.0132029,622e282986d38f7f8fb74e93,64d2fd46c836a06233681665,64dc7eda82aaae7350779d4c,,,,,,,sngl,resources/DR.BMP,resources/Empty.png,Door2,-0.3984375,0.020833333,1,0,0,1.1321,optionLeft,20,2480,2,1,0,1,0,1,,,,,,,,,,,,,,,,,,,,,,,,,,,,,,,,,,,,,,,
,,,,,,,,2023-08-16_08h48.00.669,HF_wild_card,2022.2.4,Win32,60.0132029,622e282986d38f7f8fb74e93,64d2fd46c836a06233681665,64dc7eda82aaae7350779d4c,,,,,,,decisionTrl,resources/DB.BMP,resources/DR.BMP,Door2,0.3046875,-0.040364583,1,0,0,3.1958,optionRight,40,2520,2,2,0,2,0,1,,,,,,,,,,,,,,,,,,,,,,,,,,,,,,,,,,,,,,,
,,,,,,,,2023-08-16_08h48.00.669,HF_wild_card,2022.2.4,Win32,60.0132029,622e282986d38f7f8fb74e93,64d2fd46c836a06233681665,64dc7eda82aaae7350779d4c,,,,,,,decisionTrl,resources/DR.BMP,resources/DP.BMP,Door1,0.315104167,-0.00390625,1,0,0,1.4639,optionRight,30,2550,2,3,0,3,0,1,,,,,,,,,,,,,,,,,,,,,,,,,,,,,,,,,,,,,,,
,,,,,,,,2023-08-16_08h48.00.669,HF_wild_card,2022.2.4,Win32,60.0132029,622e282986d38f7f8fb74e93,64d2fd46c836a06233681665,64dc7eda82aaae7350779d4c,,,,,,,ctch,resources/DY.BMP,resources/DR.BMP,Door3,-0.37890625,0.036458333,1,0,0,1.0268,optionLeft,70,2620,2,4,0,4,0,1,,,,,,,,,,,,,,,,,,,,,,,,,,,,,,,,,,,,,,,
,,,,,,,,2023-08-16_08h48.00.669,HF_wild_card,2022.2.4,Win32,60.0132029,622e282986d38f7f8fb74e93,64d2fd46c836a06233681665,64dc7eda82aaae7350779d4c,,,,,,,decisionTrl,resources/DB.BMP,resources/DP.BMP,WildCard_NonEx,-0.294270833,-0.01171875,1,0,0,2.3481,optionLeft,45,2665,2,5,0,5,0,1,,,,,,,,,,,,,,,,,,,,,,,,,,,,,,,,,,,,,,,
,,,,,,,,2023-08-16_08h48.00.669,HF_wild_card,2022.2.4,Win32,60.0132029,622e282986d38f7f8fb74e93,64d2fd46c836a06233681665,64dc7eda82aaae7350779d4c,,,,,,,decisionTrl,resources/DY.BMP,resources/DB.BMP,Door3,-0.333333333,-0.009114583,1,0,0,0.9305,optionLeft,70,2735,2,6,0,6,0,1,,,,,,,,,,,,,,,,,,,,,,,,,,,,,,,,,,,,,,,
,,,,,,,,2023-08-16_08h48.00.669,HF_wild_card,2022.2.4,Win32,60.0132029,622e282986d38f7f8fb74e93,64d2fd46c836a06233681665,64dc7eda82aaae7350779d4c,,,,,,,ctch,resources/DG.BMP,resources/DP.BMP,Door4,-0.265625,-0.009114583,1,0,0,1.0607,optionLeft,60,2795,2,7,0,7,0,1,,,,,,,,,,,,,,,,,,,,,,,,,,,,,,,,,,,,,,,
,,,,,,,,2023-08-16_08h48.00.669,HF_wild_card,2022.2.4,Win32,60.0132029,622e282986d38f7f8fb74e93,64d2fd46c836a06233681665,64dc7eda82aaae7350779d4c,,,,,,,decisionTrl,resources/DB.BMP,resources/DG.BMP,Door4,0.369791667,0.00390625,1,0,0,1.447,optionRight,80,2875,2,8,0,8,0,1,,,,,,,,,,,,,,,,,,,,,,,,,,,,,,,,,,,,,,,
,,,,,,,,2023-08-16_08h48.00.669,HF_wild_card,2022.2.4,Win32,60.0132029,622e282986d38f7f8fb74e93,64d2fd46c836a06233681665,64dc7eda82aaae7350779d4c,,,,,,,decisionTrl,resources/DR.BMP,resources/DP.BMP,Door1,0.345052083,-0.05078125,1,0,0,1.7634,optionRight,30,2905,2,9,0,9,0,1,,,,,,,,,,,,,,,,,,,,,,,,,,,,,,,,,,,,,,,
,,,,,,,,2023-08-16_08h48.00.669,HF_wild_card,2022.2.4,Win32,60.0132029,622e282986d38f7f8fb74e93,64d2fd46c836a06233681665,64dc7eda82aaae7350779d4c,,,,,,,sngl,resources/Empty.png,resources/DB.BMP,WildCard_NonEx,0.384114583,-0.0234375,1,0,0,1.2127,optionRight,45,2950,2,10,0,10,0,1,,,,,,,,,,,,,,,,,,,,,,,,,,,,,,,,,,,,,,,
,,,,,,,,2023-08-16_08h48.00.669,HF_wild_card,2022.2.4,Win32,60.0132029,622e282986d38f7f8fb74e93,64d2fd46c836a06233681665,64dc7eda82aaae7350779d4c,,,,,,,sngl,resources/Empty.png,resources/DB.BMP,WildCard_NonEx,0.330729167,-0.005208333,1,0,0,0.901,optionRight,55,3005,2,11,0,11,0,1,,,,,,,,,,,,,,,,,,,,,,,,,,,,,,,,,,,,,,,
,,,,,,,,2023-08-16_08h48.00.669,HF_wild_card,2022.2.4,Win32,60.0132029,622e282986d38f7f8fb74e93,64d2fd46c836a06233681665,64dc7eda82aaae7350779d4c,,,,,,,decisionTrl,resources/DP.BMP,resources/DR.BMP,Door1,-0.356770833,-0.083333333,1,0,0,1.9039,optionLeft,30,3035,2,12,0,12,0,1,,,,,,,,,,,,,,,,,,,,,,,,,,,,,,,,,,,,,,,
,,,,,,,,2023-08-16_08h48.00.669,HF_wild_card,2022.2.4,Win32,60.0132029,622e282986d38f7f8fb74e93,64d2fd46c836a06233681665,64dc7eda82aaae7350779d4c,,,,,,,sngl,resources/Empty.png,resources/DR.BMP,Door2,0.32421875,-0.009114583,1,0,0,0.8075,optionRight,40,3075,2,13,0,13,0,1,,,,,,,,,,,,,,,,,,,,,,,,,,,,,,,,,,,,,,,
,,,,,,,,2023-08-16_08h48.00.669,HF_wild_card,2022.2.4,Win32,60.0132029,622e282986d38f7f8fb74e93,64d2fd46c836a06233681665,64dc7eda82aaae7350779d4c,,,,,,,decisionTrl,resources/DY.BMP,resources/DG.BMP,Door3,-0.303385417,-0.049479167,1,0,0,1.0771,optionLeft,70,3145,2,14,0,14,0,1,,,,,,,,,,,,,,,,,,,,,,,,,,,,,,,,,,,,,,,
,,,,,,,,2023-08-16_08h48.00.669,HF_wild_card,2022.2.4,Win32,60.0132029,622e282986d38f7f8fb74e93,64d2fd46c836a06233681665,64dc7eda82aaae7350779d4c,,,,,,,decisionTrl,resources/DR.BMP,resources/DP.BMP,Door1,0.270833333,-0.041666667,1,0,0,3.3998,optionRight,30,3175,2,15,0,15,0,1,,,,,,,,,,,,,,,,,,,,,,,,,,,,,,,,,,,,,,,
,,,,,,,,2023-08-16_08h48.00.669,HF_wild_card,2022.2.4,Win32,60.0132029,622e282986d38f7f8fb74e93,64d2fd46c836a06233681665,64dc7eda82aaae7350779d4c,,,,,,,sngl,resources/DB.BMP,resources/Empty.png,WildCard_NonEx,-0.266927083,-0.024739583,1,0,0,1.0034,optionLeft,55,3230,2,16,0,16,0,1,,,,,,,,,,,,,,,,,,,,,,,,,,,,,,,,,,,,,,,
,,,,,,,,2023-08-16_08h48.00.669,HF_wild_card,2022.2.4,Win32,60.0132029,622e282986d38f7f8fb74e93,64d2fd46c836a06233681665,64dc7eda82aaae7350779d4c,,,,,,,sngl,resources/DP.BMP,resources/Empty.png,Door1,-0.389322917,-0.006510417,1,0,0,0.8695,optionLeft,30,3260,2,17,0,17,0,1,,,,,,,,,,,,,,,,,,,,,,,,,,,,,,,,,,,,,,,
,,,,,,,,2023-08-16_08h48.00.669,HF_wild_card,2022.2.4,Win32,60.0132029,622e282986d38f7f8fb74e93,64d2fd46c836a06233681665,64dc7eda82aaae7350779d4c,,,,,,,ctch,resources/DY.BMP,resources/DR.BMP,Door3,-0.377604167,-0.048177083,1,0,0,1.5198,optionLeft,70,3330,2,18,0,18,0,1,,,,,,,,,,,,,,,,,,,,,,,,,,,,,,,,,,,,,,,
,,,,,,,,2023-08-16_08h48.00.669,HF_wild_card,2022.2.4,Win32,60.0132029,622e282986d38f7f8fb74e93,64d2fd46c836a06233681665,64dc7eda82aaae7350779d4c,,,,,,,ctch,resources/DR.BMP,resources/DY.BMP,Door3,0.393229167,-0.010416667,1,0,0,1.1376,optionRight,70,3400,2,19,0,19,0,1,,,,,,,,,,,,,,,,,,,,,,,,,,,,,,,,,,,,,,,
,,,,,,,,2023-08-16_08h48.00.669,HF_wild_card,2022.2.4,Win32,60.0132029,622e282986d38f7f8fb74e93,64d2fd46c836a06233681665,64dc7eda82aaae7350779d4c,,,,,,,sngl,resources/DY.BMP,resources/Empty.png,Door3,-0.26953125,-0.002604167,1,0,0,0.9287,optionLeft,70,3470,2,20,0,20,0,1,,,,,,,,,,,,,,,,,,,,,,,,,,,,,,,,,,,,,,,
,,,,,,,,2023-08-16_08h48.00.669,HF_wild_card,2022.2.4,Win32,60.0132029,622e282986d38f7f8fb74e93,64d2fd46c836a06233681665,64dc7eda82aaae7350779d4c,,,,,,,decisionTrl,resources/DR.BMP,resources/DP.BMP,Door2,-0.283854167,-0.001302083,1,0,0,1.7284,optionLeft,40,3510,2,21,0,21,0,1,,,,,,,,,,,,,,,,,,,,,,,,,,,,,,,,,,,,,,,
,,,,,,,,2023-08-16_08h48.00.669,HF_wild_card,2022.2.4,Win32,60.0132029,622e282986d38f7f8fb74e93,64d2fd46c836a06233681665,64dc7eda82aaae7350779d4c,,,,,,,decisionTrl,resources/DG.BMP,resources/DY.BMP,Door4,-0.239583333,-0.087239583,1,0,0,1.9826,optionLeft,80,3590,2,22,0,22,0,1,,,,,,,,,,,,,,,,,,,,,,,,,,,,,,,,,,,,,,,
,,,,,,,,2023-08-16_08h48.00.669,HF_wild_card,2022.2.4,Win32,60.0132029,622e282986d38f7f8fb74e93,64d2fd46c836a06233681665,64dc7eda82aaae7350779d4c,,,,,,,decisionTrl,resources/DG.BMP,resources/DY.BMP,Door4,-0.350260417,-0.033854167,1,0,0,0.7795,optionLeft,60,3650,2,23,0,23,0,1,,,,,,,,,,,,,,,,,,,,,,,,,,,,,,,,,,,,,,,
,,,,,,,,2023-08-16_08h48.00.669,HF_wild_card,2022.2.4,Win32,60.0132029,622e282986d38f7f8fb74e93,64d2fd46c836a06233681665,64dc7eda82aaae7350779d4c,,,,,,,sngl,resources/Empty.png,resources/DP.BMP,Door1,0.341145833,-0.06640625,1,0,0,1.2443,optionRight,30,3680,2,24,0,24,0,1,,,,,,,,,,,,,,,,,,,,,,,,,,,,,,,,,,,,,,,
,,,,,,,,2023-08-16_08h48.00.669,HF_wild_card,2022.2.4,Win32,60.0132029,622e282986d38f7f8fb74e93,64d2fd46c836a06233681665,64dc7eda82aaae7350779d4c,,,,,,,ctch,resources/DR.BMP,resources/DY.BMP,Door3,0.3359375,0.020833333,1,0,0,0.9959,optionRight,70,3750,2,25,0,25,0,1,,,,,,,,,,,,,,,,,,,,,,,,,,,,,,,,,,,,,,,
,,,,,,,,2023-08-16_08h48.00.669,HF_wild_card,2022.2.4,Win32,60.0132029,622e282986d38f7f8fb74e93,64d2fd46c836a06233681665,64dc7eda82aaae7350779d4c,,,,,,,decisionTrl,resources/DY.BMP,resources/DG.BMP,Door4,0.360677083,-0.045572917,1,0,0,1.5131,optionRight,60,3810,2,26,0,26,0,1,,,,,,,,,,,,,,,,,,,,,,,,,,,,,,,,,,,,,,,
,,,,,,,,2023-08-16_08h48.00.669,HF_wild_card,2022.2.4,Win32,60.0132029,622e282986d38f7f8fb74e93,64d2fd46c836a06233681665,64dc7eda82aaae7350779d4c,,,,,,,decisionTrl,resources/DP.BMP,resources/DR.BMP,Door1,-0.274739583,-0.024739583,1,0,0,2.9618,optionLeft,30,3840,2,27,0,27,0,1,,,,,,,,,,,,,,,,,,,,,,,,,,,,,,,,,,,,,,,
,,,,,,,,2023-08-16_08h48.00.669,HF_wild_card,2022.2.4,Win32,60.0132029,622e282986d38f7f8fb74e93,64d2fd46c836a06233681665,64dc7eda82aaae7350779d4c,,,,,,,sngl,resources/DG.BMP,resources/Empty.png,Door4,-0.309895833,-0.0234375,1,0,0,0.9771,optionLeft,60,3900,2,28,0,28,0,1,,,,,,,,,,,,,,,,,,,,,,,,,,,,,,,,,,,,,,,
,,,,,,,,2023-08-16_08h48.00.669,HF_wild_card,2022.2.4,Win32,60.0132029,622e282986d38f7f8fb74e93,64d2fd46c836a06233681665,64dc7eda82aaae7350779d4c,,,,,,,ctch,resources/DG.BMP,resources/DP.BMP,Door4,-0.248697917,-0.036458333,1,0,0,1.1631,optionLeft,60,3960,2,29,0,29,0,1,,,,,,,,,,,,,,,,,,,,,,,,,,,,,,,,,,,,,,,
,,,,,,,,2023-08-16_08h48.00.669,HF_wild_card,2022.2.4,Win32,60.0132029,622e282986d38f7f8fb74e93,64d2fd46c836a06233681665,64dc7eda82aaae7350779d4c,,,,,,,sngl,resources/Empty.png,resources/DG.BMP,Door4,0.268229167,-0.001302083,1,0,0,1.1723,optionRight,80,4040,2,30,0,30,0,1,,,,,,,,,,,,,,,,,,,,,,,,,,,,,,,,,,,,,,,
,,,,,,,,2023-08-16_08h48.00.669,HF_wild_card,2022.2.4,Win32,60.0132029,622e282986d38f7f8fb74e93,64d2fd46c836a06233681665,64dc7eda82aaae7350779d4c,,,,,,,ctch,resources/DP.BMP,resources/DG.BMP,Door4,0.29296875,0.018229167,1,0,0,1.2552,optionRight,80,4120,2,31,0,31,0,1,,,,,,,,,,,,,,,,,,,,,,,,,,,,,,,,,,,,,,,
,,,,,,,,2023-08-16_08h48.00.669,HF_wild_card,2022.2.4,Win32,60.0132029,622e282986d38f7f8fb74e93,64d2fd46c836a06233681665,64dc7eda82aaae7350779d4c,,,,,,,decisionTrl,resources/DR.BMP,resources/DB.BMP,WildCard_NonEx,0.434895833,-0.005208333,1,0,0,5.6334,optionRight,45,4165,2,32,0,32,0,1,,,,,,,,,,,,,,,,,,,,,,,,,,,,,,,,,,,,,,,
,,,,,,,,2023-08-16_08h48.00.669,HF_wild_card,2022.2.4,Win32,60.0132029,622e282986d38f7f8fb74e93,64d2fd46c836a06233681665,64dc7eda82aaae7350779d4c,,,,,,,decisionTrl,resources/DY.BMP,resources/DG.BMP,Door3,-0.290364583,-0.037760417,1,0,0,0.8961,optionLeft,70,4235,2,33,0,33,0,1,,,,,,,,,,,,,,,,,,,,,,,,,,,,,,,,,,,,,,,
,,,,,,,,2023-08-16_08h48.00.669,HF_wild_card,2022.2.4,Win32,60.0132029,622e282986d38f7f8fb74e93,64d2fd46c836a06233681665,64dc7eda82aaae7350779d4c,,,,,,,decisionTrl,resources/DP.BMP,resources/DR.BMP,Door1,-0.231770833,-0.006510417,1,0,0,4.4649,optionLeft,30,4265,2,34,0,34,0,1,,,,,,,,,,,,,,,,,,,,,,,,,,,,,,,,,,,,,,,
,,,,,,,,2023-08-16_08h48.00.669,HF_wild_card,2022.2.4,Win32,60.0132029,622e282986d38f7f8fb74e93,64d2fd46c836a06233681665,64dc7eda82aaae7350779d4c,,,,,,,sngl,resources/DB.BMP,resources/Empty.png,WildCard_NonEx,-0.290364583,-0.071614583,1,0,0,0.9657,optionLeft,45,4310,2,35,0,35,0,1,,,,,,,,,,,,,,,,,,,,,,,,,,,,,,,,,,,,,,,
,,,,,,,,2023-08-16_08h48.00.669,HF_wild_card,2022.2.4,Win32,60.0132029,622e282986d38f7f8fb74e93,64d2fd46c836a06233681665,64dc7eda82aaae7350779d4c,,,,,,,decisionTrl,resources/DP.BMP,resources/DR.BMP,Door1,-0.299479167,-0.05078125,1,0,0,5.9183,optionLeft,30,4340,2,36,0,36,0,1,,,,,,,,,,,,,,,,,,,,,,,,,,,,,,,,,,,,,,,
,,,,,,,,2023-08-16_08h48.00.669,HF_wild_card,2022.2.4,Win32,60.0132029,622e282986d38f7f8fb74e93,64d2fd46c836a06233681665,64dc7eda82aaae7350779d4c,,,,,,,decisionTrl,resources/DY.BMP,resources/DG.BMP,Door4,0.26953125,0.001302083,1,0,0,1.297,optionRight,80,4420,2,37,0,37,0,1,,,,,,,,,,,,,,,,,,,,,,,,,,,,,,,,,,,,,,,
,,,,,,,,2023-08-16_08h48.00.669,HF_wild_card,2022.2.4,Win32,60.0132029,622e282986d38f7f8fb74e93,64d2fd46c836a06233681665,64dc7eda82aaae7350779d4c,,,,,,,decisionTrl,resources/DP.BMP,resources/DB.BMP,WildCard_NonEx,0.302083333,-0.002604167,1,0,0,2.4486,optionRight,45,4465,2,38,0,38,0,1,,,,,,,,,,,,,,,,,,,,,,,,,,,,,,,,,,,,,,,
,,,,,,,,2023-08-16_08h48.00.669,HF_wild_card,2022.2.4,Win32,60.0132029,622e282986d38f7f8fb74e93,64d2fd46c836a06233681665,64dc7eda82aaae7350779d4c,,,,,,,decisionTrl,resources/DB.BMP,resources/DY.BMP,Door3,0.328125,-0.029947917,1,0,0,1.2291,optionRight,70,4535,2,39,0,39,0,1,,,,,,,,,,,,,,,,,,,,,,,,,,,,,,,,,,,,,,,
,,,,,,,,2023-08-16_08h48.00.669,HF_wild_card,2022.2.4,Win32,60.0132029,622e282986d38f7f8fb74e93,64d2fd46c836a06233681665,64dc7eda82aaae7350779d4c,,,,,,,decisionTrl,resources/DG.BMP,resources/DY.BMP,Door4,-0.30078125,-0.037760417,1,0,0,1.0255,optionLeft,60,4595,2,40,0,40,0,1,,,,,,,,,,,,,,,,,,,,,,,,,,,,,,,,,,,,,,,
,,,,,,,,2023-08-16_08h48.00.669,HF_wild_card,2022.2.4,Win32,60.0132029,622e282986d38f7f8fb74e93,64d2fd46c836a06233681665,64dc7eda82aaae7350779d4c,,,,,,,ctch,resources/DP.BMP,resources/DG.BMP,Door4,0.279947917,0.022135417,1,0,0,1.5968,optionRight,60,4655,2,41,0,41,0,1,,,,,,,,,,,,,,,,,,,,,,,,,,,,,,,,,,,,,,,
,,,,,,,,2023-08-16_08h48.00.669,HF_wild_card,2022.2.4,Win32,60.0132029,622e282986d38f7f8fb74e93,64d2fd46c836a06233681665,64dc7eda82aaae7350779d4c,,,,,,,decisionTrl,resources/DG.BMP,resources/DY.BMP,Door3,0.3125,-0.052083333,1,0,0,0.9454,optionRight,70,4725,2,42,0,42,0,1,,,,,,,,,,,,,,,,,,,,,,,,,,,,,,,,,,,,,,,
,,,,,,,,2023-08-16_08h48.00.669,HF_wild_card,2022.2.4,Win32,60.0132029,622e282986d38f7f8fb74e93,64d2fd46c836a06233681665,64dc7eda82aaae7350779d4c,,,,,,,sngl,resources/Empty.png,resources/DY.BMP,Door3,0.2734375,-0.016927083,1,0,0,1.1283,optionRight,70,4795,2,43,0,43,0,1,,,,,,,,,,,,,,,,,,,,,,,,,,,,,,,,,,,,,,,
,,,,,,,,2023-08-16_08h48.00.669,HF_wild_card,2022.2.4,Win32,60.0132029,622e282986d38f7f8fb74e93,64d2fd46c836a06233681665,64dc7eda82aaae7350779d4c,,,,,,,,,,,,,,,,,,,,,,,,,,1,0,1,0,1,,,,,,,,,,,,,,,,,,,,,,,,,,,,,,,,,,
,,,,,,,,2023-08-16_08h48.00.669,HF_wild_card,2022.2.4,Win32,60.0132029,622e282986d38f7f8fb74e93,64d2fd46c836a06233681665,64dc7eda82aaae7350779d4c,,,,,,,sngl,resources/DG.BMP,resources/Empty.png,Door4,-0.360677083,-0.069010417,1,0,0,1.837,optionLeft,80,4875,3,0,0,0,0,1,,,,,,,,,,,,,,,,,,,,,,,,,,,,,,,,,,,,,,,
,,,,,,,,2023-08-16_08h48.00.669,HF_wild_card,2022.2.4,Win32,60.0132029,622e282986d38f7f8fb74e93,64d2fd46c836a06233681665,64dc7eda82aaae7350779d4c,,,,,,,sngl,resources/Empty.png,resources/DR.BMP,Door2,0.393229167,-0.026041667,1,0,0,0.9933,optionRight,20,4895,3,1,0,1,0,1,,,,,,,,,,,,,,,,,,,,,,,,,,,,,,,,,,,,,,,
,,,,,,,,2023-08-16_08h48.00.669,HF_wild_card,2022.2.4,Win32,60.0132029,622e282986d38f7f8fb74e93,64d2fd46c836a06233681665,64dc7eda82aaae7350779d4c,,,,,,,sngl,resources/DB.BMP,resources/Empty.png,WildCard_NonEx,-0.299479167,-0.005208333,1,0,0,0.913,optionLeft,55,4950,3,2,0,2,0,1,,,,,,,,,,,,,,,,,,,,,,,,,,,,,,,,,,,,,,,
,,,,,,,,2023-08-16_08h48.00.669,HF_wild_card,2022.2.4,Win32,60.0132029,622e282986d38f7f8fb74e93,64d2fd46c836a06233681665,64dc7eda82aaae7350779d4c,,,,,,,decisionTrl,resources/DR.BMP,resources/DP.BMP,Door1,0.201822917,-0.020833333,1,0,0,2.232,optionRight,30,4980,3,3,0,3,0,1,,,,,,,,,,,,,,,,,,,,,,,,,,,,,,,,,,,,,,,
,,,,,,,,2023-08-16_08h48.00.669,HF_wild_card,2022.2.4,Win32,60.0132029,622e282986d38f7f8fb74e93,64d2fd46c836a06233681665,64dc7eda82aaae7350779d4c,,,,,,,decisionTrl,resources/DP.BMP,resources/DR.BMP,Door2,0.279947917,-0.015625,1,0,0,1.4471,optionRight,20,5000,3,4,0,4,0,1,,,,,,,,,,,,,,,,,,,,,,,,,,,,,,,,,,,,,,,
,,,,,,,,2023-08-16_08h48.00.669,HF_wild_card,2022.2.4,Win32,60.0132029,622e282986d38f7f8fb74e93,64d2fd46c836a06233681665,64dc7eda82aaae7350779d4c,,,,,,,ctch,resources/DR.BMP,resources/DY.BMP,Door3,0.44140625,-0.04296875,1,0,0,1.3292,optionRight,70,5070,3,5,0,5,0,1,,,,,,,,,,,,,,,,,,,,,,,,,,,,,,,,,,,,,,,
,,,,,,,,2023-08-16_08h48.00.669,HF_wild_card,2022.2.4,Win32,60.0132029,622e282986d38f7f8fb74e93,64d2fd46c836a06233681665,64dc7eda82aaae7350779d4c,,,,,,,sngl,resources/Empty.png,resources/DY.BMP,Door3,0.32421875,-0.01171875,1,0,0,0.9101,optionRight,70,5140,3,6,0,6,0,1,,,,,,,,,,,,,,,,,,,,,,,,,,,,,,,,,,,,,,,
,,,,,,,,2023-08-16_08h48.00.669,HF_wild_card,2022.2.4,Win32,60.0132029,622e282986d38f7f8fb74e93,64d2fd46c836a06233681665,64dc7eda82aaae7350779d4c,,,,,,,decisionTrl,resources/DP.BMP,resources/DB.BMP,Door1,-0.287760417,-0.0546875,1,0,0,2.9309,optionLeft,30,5170,3,7,0,7,0,1,,,,,,,,,,,,,,,,,,,,,,,,,,,,,,,,,,,,,,,
,,,,,,,,2023-08-16_08h48.00.669,HF_wild_card,2022.2.4,Win32,60.0132029,622e282986d38f7f8fb74e93,64d2fd46c836a06233681665,64dc7eda82aaae7350779d4c,,,,,,,decisionTrl,resources/DY.BMP,resources/DG.BMP,Door4,0.32421875,0.0234375,1,0,0,1.528,optionRight,80,5250,3,8,0,8,0,1,,,,,,,,,,,,,,,,,,,,,,,,,,,,,,,,,,,,,,,
,,,,,,,,2023-08-16_08h48.00.669,HF_wild_card,2022.2.4,Win32,60.0132029,622e282986d38f7f8fb74e93,64d2fd46c836a06233681665,64dc7eda82aaae7350779d4c,,,,,,,decisionTrl,resources/DR.BMP,resources/DB.BMP,WildCard_NonEx,0.305989583,-0.028645833,1,0,0,2.7977,optionRight,55,5305,3,9,0,9,0,1,,,,,,,,,,,,,,,,,,,,,,,,,,,,,,,,,,,,,,,
,,,,,,,,2023-08-16_08h48.00.669,HF_wild_card,2022.2.4,Win32,60.0132029,622e282986d38f7f8fb74e93,64d2fd46c836a06233681665,64dc7eda82aaae7350779d4c,,,,,,,decisionTrl,resources/DR.BMP,resources/DP.BMP,Door1,0.259114583,-0.036458333,1,0,0,2.464,optionRight,30,5335,3,10,0,10,0,1,,,,,,,,,,,,,,,,,,,,,,,,,,,,,,,,,,,,,,,
,,,,,,,,2023-08-16_08h48.00.669,HF_wild_card,2022.2.4,Win32,60.0132029,622e282986d38f7f8fb74e93,64d2fd46c836a06233681665,64dc7eda82aaae7350779d4c,,,,,,,decisionTrl,resources/DB.BMP,resources/DY.BMP,Door3,0.3515625,-0.045572917,1,0,0,1.3348,optionRight,70,5405,3,11,0,11,0,1,,,,,,,,,,,,,,,,,,,,,,,,,,,,,,,,,,,,,,,
,,,,,,,,2023-08-16_08h48.00.669,HF_wild_card,2022.2.4,Win32,60.0132029,622e282986d38f7f8fb74e93,64d2fd46c836a06233681665,64dc7eda82aaae7350779d4c,,,,,,,decisionTrl,resources/DR.BMP,resources/DP.BMP,Door1,0.317708333,-0.03125,1,0,0,1.4282,optionRight,30,5435,3,12,0,12,0,1,,,,,,,,,,,,,,,,,,,,,,,,,,,,,,,,,,,,,,,
,,,,,,,,2023-08-16_08h48.00.669,HF_wild_card,2022.2.4,Win32,60.0132029,622e282986d38f7f8fb74e93,64d2fd46c836a06233681665,64dc7eda82aaae7350779d4c,,,,,,,sngl,resources/Empty.png,resources/DB.BMP,WildCard_NonEx,0.244791667,-0.010416667,1,0,0,1.1452,optionRight,55,5490,3,13,0,13,0,1,,,,,,,,,,,,,,,,,,,,,,,,,,,,,,,,,,,,,,,
,,,,,,,,2023-08-16_08h48.00.669,HF_wild_card,2022.2.4,Win32,60.0132029,622e282986d38f7f8fb74e93,64d2fd46c836a06233681665,64dc7eda82aaae7350779d4c,,,,,,,decisionTrl,resources/DY.BMP,resources/DG.BMP,Door4,0.3125,0.001302083,1,0,0,1.8964,optionRight,80,5570,3,14,0,14,0,1,,,,,,,,,,,,,,,,,,,,,,,,,,,,,,,,,,,,,,,
,,,,,,,,2023-08-16_08h48.00.669,HF_wild_card,2022.2.4,Win32,60.0132029,622e282986d38f7f8fb74e93,64d2fd46c836a06233681665,64dc7eda82aaae7350779d4c,,,,,,,sngl,resources/DB.BMP,resources/Empty.png,WildCard_NonEx,-0.299479167,-0.018229167,1,0,0,0.9964,optionLeft,45,5615,3,15,0,15,0,1,,,,,,,,,,,,,,,,,,,,,,,,,,,,,,,,,,,,,,,
,,,,,,,,2023-08-16_08h48.00.669,HF_wild_card,2022.2.4,Win32,60.0132029,622e282986d38f7f8fb74e93,64d2fd46c836a06233681665,64dc7eda82aaae7350779d4c,,,,,,,decisionTrl,resources/DG.BMP,resources/DY.BMP,Door4,-0.376302083,-0.010416667,1,0,0,1.4131,optionLeft,60,5675,3,16,0,16,0,1,,,,,,,,,,,,,,,,,,,,,,,,,,,,,,,,,,,,,,,
,,,,,,,,2023-08-16_08h48.00.669,HF_wild_card,2022.2.4,Win32,60.0132029,622e282986d38f7f8fb74e93,64d2fd46c836a06233681665,64dc7eda82aaae7350779d4c,,,,,,,decisionTrl,resources/DP.BMP,resources/DR.BMP,Door2,0.32421875,-0.0546875,1,0,0,3.9013,optionRight,20,5695,3,17,0,17,0,1,,,,,,,,,,,,,,,,,,,,,,,,,,,,,,,,,,,,,,,
,,,,,,,,2023-08-16_08h48.00.669,HF_wild_card,2022.2.4,Win32,60.0132029,622e282986d38f7f8fb74e93,64d2fd46c836a06233681665,64dc7eda82aaae7350779d4c,,,,,,,decisionTrl,resources/DR.BMP,resources/DP.BMP,Door1,0.359375,-0.01171875,1,0,0,1.613,optionRight,30,5725,3,18,0,18,0,1,,,,,,,,,,,,,,,,,,,,,,,,,,,,,,,,,,,,,,,
,,,,,,,,2023-08-16_08h48.00.669,HF_wild_card,2022.2.4,Win32,60.0132029,622e282986d38f7f8fb74e93,64d2fd46c836a06233681665,64dc7eda82aaae7350779d4c,,,,,,,decisionTrl,resources/DP.BMP,resources/DR.BMP,Door1,-0.278645833,-0.028645833,1,0,0,1.8775,optionLeft,30,5755,3,19,0,19,0,1,,,,,,,,,,,,,,,,,,,,,,,,,,,,,,,,,,,,,,,
,,,,,,,,2023-08-16_08h48.00.669,HF_wild_card,2022.2.4,Win32,60.0132029,622e282986d38f7f8fb74e93,64d2fd46c836a06233681665,64dc7eda82aaae7350779d4c,,,,,,,decisionTrl,resources/DG.BMP,resources/DY.BMP,Door3,0.305989583,-0.045572917,1,0,0,2.0466,optionRight,70,5825,3,20,0,20,0,1,,,,,,,,,,,,,,,,,,,,,,,,,,,,,,,,,,,,,,,
,,,,,,,,2023-08-16_08h48.00.669,HF_wild_card,2022.2.4,Win32,60.0132029,622e282986d38f7f8fb74e93,64d2fd46c836a06233681665,64dc7eda82aaae7350779d4c,,,,,,,decisionTrl,resources/DY.BMP,resources/DG.BMP,Door3,-0.3515625,0.0078125,1,0,0,2.0094,optionLeft,70,5895,3,21,0,21,0,1,,,,,,,,,,,,,,,,,,,,,,,,,,,,,,,,,,,,,,,
,,,,,,,,2023-08-16_08h48.00.669,HF_wild_card,2022.2.4,Win32,60.0132029,622e282986d38f7f8fb74e93,64d2fd46c836a06233681665,64dc7eda82aaae7350779d4c,,,,,,,ctch,resources/DY.BMP,resources/DR.BMP,Door3,-0.3046875,-0.002604167,1,0,0,0.9269,optionLeft,70,5965,3,22,0,22,0,1,,,,,,,,,,,,,,,,,,,,,,,,,,,,,,,,,,,,,,,
,,,,,,,,2023-08-16_08h48.00.669,HF_wild_card,2022.2.4,Win32,60.0132029,622e282986d38f7f8fb74e93,64d2fd46c836a06233681665,64dc7eda82aaae7350779d4c,,,,,,,ctch,resources/DP.BMP,resources/DG.BMP,Door4,0.389322917,-0.001302083,1,0,0,1.0138,optionRight,80,6045,3,23,0,23,0,1,,,,,,,,,,,,,,,,,,,,,,,,,,,,,,,,,,,,,,,
,,,,,,,,2023-08-16_08h48.00.669,HF_wild_card,2022.2.4,Win32,60.0132029,622e282986d38f7f8fb74e93,64d2fd46c836a06233681665,64dc7eda82aaae7350779d4c,,,,,,,decisionTrl,resources/DB.BMP,resources/DR.BMP,WildCard_NonEx,-0.236979167,-0.018229167,1,0,0,3.0147,optionLeft,55,6100,3,24,0,24,0,1,,,,,,,,,,,,,,,,,,,,,,,,,,,,,,,,,,,,,,,
,,,,,,,,2023-08-16_08h48.00.669,HF_wild_card,2022.2.4,Win32,60.0132029,622e282986d38f7f8fb74e93,64d2fd46c836a06233681665,64dc7eda82aaae7350779d4c,,,,,,,sngl,resources/Empty.png,resources/DP.BMP,Door1,0.326822917,0.005208333,1,0,0,1.0117,optionRight,30,6130,3,25,0,25,0,1,,,,,,,,,,,,,,,,,,,,,,,,,,,,,,,,,,,,,,,
,,,,,,,,2023-08-16_08h48.00.669,HF_wild_card,2022.2.4,Win32,60.0132029,622e282986d38f7f8fb74e93,64d2fd46c836a06233681665,64dc7eda82aaae7350779d4c,,,,,,,decisionTrl,resources/DB.BMP,resources/DP.BMP,WildCard_NonEx,-0.291666667,-0.04296875,1,0,0,3.3801,optionLeft,45,6175,3,26,0,26,0,1,,,,,,,,,,,,,,,,,,,,,,,,,,,,,,,,,,,,,,,
,,,,,,,,2023-08-16_08h48.00.669,HF_wild_card,2022.2.4,Win32,60.0132029,622e282986d38f7f8fb74e93,64d2fd46c836a06233681665,64dc7eda82aaae7350779d4c,,,,,,,decisionTrl,resources/DG.BMP,resources/DB.BMP,Door4,-0.208333333,-0.040364583,1,0,0,2.4323,optionLeft,80,6255,3,27,0,27,0,1,,,,,,,,,,,,,,,,,,,,,,,,,,,,,,,,,,,,,,,
,,,,,,,,2023-08-16_08h48.00.669,HF_wild_card,2022.2.4,Win32,60.0132029,622e282986d38f7f8fb74e93,64d2fd46c836a06233681665,64dc7eda82aaae7350779d4c,,,,,,,decisionTrl,resources/DY.BMP,resources/DG.BMP,Door4,0.30859375,-0.026041667,1,0,0,1.046,optionRight,80,6335,3,28,0,28,0,1,,,,,,,,,,,,,,,,,,,,,,,,,,,,,,,,,,,,,,,
,,,,,,,,2023-08-16_08h48.00.669,HF_wild_card,2022.2.4,Win32,60.0132029,622e282986d38f7f8fb74e93,64d2fd46c836a06233681665,64dc7eda82aaae7350779d4c,,,,,,,ctch,resources/DR.BMP,resources/DY.BMP,Door3,0.341145833,-0.001302083,1,0,0,1.2104,optionRight,70,6405,3,29,0,29,0,1,,,,,,,,,,,,,,,,,,,,,,,,,,,,,,,,,,,,,,,
,,,,,,,,2023-08-16_08h48.00.669,HF_wild_card,2022.2.4,Win32,60.0132029,622e282986d38f7f8fb74e93,64d2fd46c836a06233681665,64dc7eda82aaae7350779d4c,,,,,,,ctch,resources/DG.BMP,resources/DP.BMP,Door4,-0.28515625,-0.015625,1,0,0,2.863,optionLeft,60,6465,3,30,0,30,0,1,,,,,,,,,,,,,,,,,,,,,,,,,,,,,,,,,,,,,,,
,,,,,,,,2023-08-16_08h48.00.669,HF_wild_card,2022.2.4,Win32,60.0132029,622e282986d38f7f8fb74e93,64d2fd46c836a06233681665,64dc7eda82aaae7350779d4c,,,,,,,ctch,resources/DP.BMP,resources/DG.BMP,Door4,0.338541667,0.005208333,1,0,0,0.8285,optionRight,60,6525,3,31,0,31,0,1,,,,,,,,,,,,,,,,,,,,,,,,,,,,,,,,,,,,,,,
,,,,,,,,2023-08-16_08h48.00.669,HF_wild_card,2022.2.4,Win32,60.0132029,622e282986d38f7f8fb74e93,64d2fd46c836a06233681665,64dc7eda82aaae7350779d4c,,,,,,,ctch,resources/DY.BMP,resources/DR.BMP,Door3,-0.34375,0.0234375,1,0,0,1.0114,optionLeft,70,6595,3,32,0,32,0,1,,,,,,,,,,,,,,,,,,,,,,,,,,,,,,,,,,,,,,,
,,,,,,,,2023-08-16_08h48.00.669,HF_wild_card,2022.2.4,Win32,60.0132029,622e282986d38f7f8fb74e93,64d2fd46c836a06233681665,64dc7eda82aaae7350779d4c,,,,,,,sngl,resources/DR.BMP,resources/Empty.png,Door2,-0.26953125,-0.033854167,1,0,0,1.2431,optionLeft,40,6635,3,33,0,33,0,1,,,,,,,,,,,,,,,,,,,,,,,,,,,,,,,,,,,,,,,
,,,,,,,,2023-08-16_08h48.00.669,HF_wild_card,2022.2.4,Win32,60.0132029,622e282986d38f7f8fb74e93,64d2fd46c836a06233681665,64dc7eda82aaae7350779d4c,,,,,,,decisionTrl,resources/DP.BMP,resources/DR.BMP,Door1,-0.3046875,-0.022135417,1,0,0,3.0492,optionLeft,30,6665,3,34,0,34,0,1,,,,,,,,,,,,,,,,,,,,,,,,,,,,,,,,,,,,,,,
,,,,,,,,2023-08-16_08h48.00.669,HF_wild_card,2022.2.4,Win32,60.0132029,622e282986d38f7f8fb74e93,64d2fd46c836a06233681665,64dc7eda82aaae7350779d4c,,,,,,,sngl,resources/DP.BMP,resources/Empty.png,Door1,-0.31640625,-0.020833333,1,0,0,0.8443,optionLeft,30,6695,3,35,0,35,0,1,,,,,,,,,,,,,,,,,,,,,,,,,,,,,,,,,,,,,,,
,,,,,,,,2023-08-16_08h48.00.669,HF_wild_card,2022.2.4,Win32,60.0132029,622e282986d38f7f8fb74e93,64d2fd46c836a06233681665,64dc7eda82aaae7350779d4c,,,,,,,decisionTrl,resources/DG.BMP,resources/DY.BMP,Door3,0.287760417,0.01171875,1,0,0,3.0325,optionRight,70,6765,3,36,0,36,0,1,,,,,,,,,,,,,,,,,,,,,,,,,,,,,,,,,,,,,,,
,,,,,,,,2023-08-16_08h48.00.669,HF_wild_card,2022.2.4,Win32,60.0132029,622e282986d38f7f8fb74e93,64d2fd46c836a06233681665,64dc7eda82aaae7350779d4c,,,,,,,decisionTrl,resources/DB.BMP,resources/DG.BMP,Door4,0.317708333,-0.013020833,1,0,0,1.0795,optionRight,80,6845,3,37,0,37,0,1,,,,,,,,,,,,,,,,,,,,,,,,,,,,,,,,,,,,,,,
,,,,,,,,2023-08-16_08h48.00.669,HF_wild_card,2022.2.4,Win32,60.0132029,622e282986d38f7f8fb74e93,64d2fd46c836a06233681665,64dc7eda82aaae7350779d4c,,,,,,,ctch,resources/DG.BMP,resources/DP.BMP,Door4,-0.227864583,-0.0078125,1,0,0,3.1176,optionLeft,80,6925,3,38,0,38,0,1,,,,,,,,,,,,,,,,,,,,,,,,,,,,,,,,,,,,,,,
,,,,,,,,2023-08-16_08h48.00.669,HF_wild_card,2022.2.4,Win32,60.0132029,622e282986d38f7f8fb74e93,64d2fd46c836a06233681665,64dc7eda82aaae7350779d4c,,,,,,,decisionTrl,resources/DG.BMP,resources/DY.BMP,Door3,0.373697917,0.010416667,1,0,0,1.8224,optionRight,70,6995,3,39,0,39,0,1,,,,,,,,,,,,,,,,,,,,,,,,,,,,,,,,,,,,,,,
,,,,,,,,2023-08-16_08h48.00.669,HF_wild_card,2022.2.4,Win32,60.0132029,622e282986d38f7f8fb74e93,64d2fd46c836a06233681665,64dc7eda82aaae7350779d4c,,,,,,,decisionTrl,resources/DY.BMP,resources/DB.BMP,Door3,-0.209635417,-0.026041667,1,0,0,1.652,optionLeft,70,7065,3,40,0,40,0,1,,,,,,,,,,,,,,,,,,,,,,,,,,,,,,,,,,,,,,,
,,,,,,,,2023-08-16_08h48.00.669,HF_wild_card,2022.2.4,Win32,60.0132029,622e282986d38f7f8fb74e93,64d2fd46c836a06233681665,64dc7eda82aaae7350779d4c,,,,,,,sngl,resources/DY.BMP,resources/Empty.png,Door3,-0.286458333,-0.02734375,1,0,0,0.7097,optionLeft,70,7135,3,41,0,41,0,1,,,,,,,,,,,,,,,,,,,,,,,,,,,,,,,,,,,,,,,
,,,,,,,,2023-08-16_08h48.00.669,HF_wild_card,2022.2.4,Win32,60.0132029,622e282986d38f7f8fb74e93,64d2fd46c836a06233681665,64dc7eda82aaae7350779d4c,,,,,,,sngl,resources/Empty.png,resources/DB.BMP,WildCard_NonEx,0.346354167,-0.005208333,1,0,0,0.9259,optionRight,45,7180,3,42,0,42,0,1,,,,,,,,,,,,,,,,,,,,,,,,,,,,,,,,,,,,,,,
,,,,,,,,2023-08-16_08h48.00.669,HF_wild_card,2022.2.4,Win32,60.0132029,622e282986d38f7f8fb74e93,64d2fd46c836a06233681665,64dc7eda82aaae7350779d4c,,,,,,,sngl,resources/Empty.png,resources/DG.BMP,Door4,0.361979167,0.009114583,1,0,0,0.8967,optionRight,60,7240,3,43,0,43,0,1,,,,,,,,,,,,,,,,,,,,,,,,,,,,,,,,,,,,,,,
,,,,,,,,2023-08-16_08h48.00.669,HF_wild_card,2022.2.4,Win32,60.0132029,622e282986d38f7f8fb74e93,64d2fd46c836a06233681665,64dc7eda82aaae7350779d4c,,,,,,,,,,,,,,,,,,,,,,,,,,2,0,2,0,1,,,,,,,,,,,,,,,,,,,,,,,,,,,,,,,,,,
,,,,,,,,2023-08-16_08h48.00.669,HF_wild_card,2022.2.4,Win32,60.0132029,622e282986d38f7f8fb74e93,64d2fd46c836a06233681665,64dc7eda82aaae7350779d4c,,,,,,,decisionTrl,resources/DR.BMP,resources/DP.BMP,Door1,0.270833333,-0.13671875,1,0,0,2.3595,optionRight,30,7270,4,0,0,0,0,1,,,,,,,,,,,,,,,,,,,,,,,,,,,,,,,,,,,,,,,
,,,,,,,,2023-08-16_08h48.00.669,HF_wild_card,2022.2.4,Win32,60.0132029,622e282986d38f7f8fb74e93,64d2fd46c836a06233681665,64dc7eda82aaae7350779d4c,,,,,,,decisionTrl,resources/DP.BMP,resources/DR.BMP,Door1,-0.270833333,-0.00390625,1,0,0,1.4136,optionLeft,30,7300,4,1,0,1,0,1,,,,,,,,,,,,,,,,,,,,,,,,,,,,,,,,,,,,,,,
,,,,,,,,2023-08-16_08h48.00.669,HF_wild_card,2022.2.4,Win32,60.0132029,622e282986d38f7f8fb74e93,64d2fd46c836a06233681665,64dc7eda82aaae7350779d4c,,,,,,,sngl,resources/Empty.png,resources/DBN.BMP,WildCard_Ex,0.36328125,0.01953125,1,0,0,1.6797,optionRight,5,7305,4,2,0,2,0,1,,,,,,,,,,,,,,,,,,,,,,,,,,,,,,,,,,,,,,,
,,,,,,,,2023-08-16_08h48.00.669,HF_wild_card,2022.2.4,Win32,60.0132029,622e282986d38f7f8fb74e93,64d2fd46c836a06233681665,64dc7eda82aaae7350779d4c,,,,,,,ctch,resources/DG.BMP,resources/DP.BMP,Door4,-0.295572917,-0.016927083,1,0,0,2.6702,optionLeft,60,7365,4,3,0,3,0,1,,,,,,,,,,,,,,,,,,,,,,,,,,,,,,,,,,,,,,,
,,,,,,,,2023-08-16_08h48.00.669,HF_wild_card,2022.2.4,Win32,60.0132029,622e282986d38f7f8fb74e93,64d2fd46c836a06233681665,64dc7eda82aaae7350779d4c,,,,,,,ctch,resources/DY.BMP,resources/DR.BMP,Door3,-0.265625,-0.00390625,1,0,0,1.1498,optionLeft,70,7435,4,4,0,4,0,1,,,,,,,,,,,,,,,,,,,,,,,,,,,,,,,,,,,,,,,
,,,,,,,,2023-08-16_08h48.00.669,HF_wild_card,2022.2.4,Win32,60.0132029,622e282986d38f7f8fb74e93,64d2fd46c836a06233681665,64dc7eda82aaae7350779d4c,,,,,,,sngl,resources/DBN.BMP,resources/Empty.png,WildCard_Ex,-0.307291667,-0.020833333,1,0,0,1.2489,optionLeft,95,7530,4,5,0,5,0,1,,,,,,,,,,,,,,,,,,,,,,,,,,,,,,,,,,,,,,,
,,,,,,,,2023-08-16_08h48.00.669,HF_wild_card,2022.2.4,Win32,60.0132029,622e282986d38f7f8fb74e93,64d2fd46c836a06233681665,64dc7eda82aaae7350779d4c,,,,,,,decisionTrl,resources/DG.BMP,resources/DY.BMP,Door3,0.3203125,0.015625,1,0,0,5.5507,optionRight,70,7600,4,6,0,6,0,1,,,,,,,,,,,,,,,,,,,,,,,,,,,,,,,,,,,,,,,
,,,,,,,,2023-08-16_08h48.00.669,HF_wild_card,2022.2.4,Win32,60.0132029,622e282986d38f7f8fb74e93,64d2fd46c836a06233681665,64dc7eda82aaae7350779d4c,,,,,,,decisionTrl,resources/DG.BMP,resources/DBN.BMP,WildCard_Ex,0.393229167,0.084635417,1,0,0,1.613,optionRight,5,7605,4,7,0,7,0,1,,,,,,,,,,,,,,,,,,,,,,,,,,,,,,,,,,,,,,,
,,,,,,,,2023-08-16_08h48.00.669,HF_wild_card,2022.2.4,Win32,60.0132029,622e282986d38f7f8fb74e93,64d2fd46c836a06233681665,64dc7eda82aaae7350779d4c,,,,,,,sngl,resources/DR.BMP,resources/Empty.png,Door2,-0.30078125,-0.022135417,1,0,0,0.9158,optionLeft,20,7625,4,8,0,8,0,1,,,,,,,,,,,,,,,,,,,,,,,,,,,,,,,,,,,,,,,
,,,,,,,,2023-08-16_08h48.00.669,HF_wild_card,2022.2.4,Win32,60.0132029,622e282986d38f7f8fb74e93,64d2fd46c836a06233681665,64dc7eda82aaae7350779d4c,,,,,,,decisionTrl,resources/DR.BMP,resources/DP.BMP,Door2,-0.22265625,0.010416667,1,0,0,1.4368,optionLeft,20,7645,4,9,0,9,0,1,,,,,,,,,,,,,,,,,,,,,,,,,,,,,,,,,,,,,,,
,,,,,,,,2023-08-16_08h48.00.669,HF_wild_card,2022.2.4,Win32,60.0132029,622e282986d38f7f8fb74e93,64d2fd46c836a06233681665,64dc7eda82aaae7350779d4c,,,,,,,decisionTrl,resources/DG.BMP,resources/DY.BMP,Door4,-0.334635417,-0.001302083,1,0,0,1.4171,optionLeft,60,7705,4,10,0,10,0,1,,,,,,,,,,,,,,,,,,,,,,,,,,,,,,,,,,,,,,,
,,,,,,,,2023-08-16_08h48.00.669,HF_wild_card,2022.2.4,Win32,60.0132029,622e282986d38f7f8fb74e93,64d2fd46c836a06233681665,64dc7eda82aaae7350779d4c,,,,,,,decisionTrl,resources/DR.BMP,resources/DP.BMP,Door2,-0.28125,-0.015625,1,0,0,1.2198,optionLeft,40,7745,4,11,0,11,0,1,,,,,,,,,,,,,,,,,,,,,,,,,,,,,,,,,,,,,,,
,,,,,,,,2023-08-16_08h48.00.669,HF_wild_card,2022.2.4,Win32,60.0132029,622e282986d38f7f8fb74e93,64d2fd46c836a06233681665,64dc7eda82aaae7350779d4c,,,,,,,decisionTrl,resources/DR.BMP,resources/DP.BMP,Door2,-0.34375,-0.018229167,1,0,0,1.1804,optionLeft,40,7785,4,12,0,12,0,1,,,,,,,,,,,,,,,,,,,,,,,,,,,,,,,,,,,,,,,
,,,,,,,,2023-08-16_08h48.00.669,HF_wild_card,2022.2.4,Win32,60.0132029,622e282986d38f7f8fb74e93,64d2fd46c836a06233681665,64dc7eda82aaae7350779d4c,,,,,,,decisionTrl,resources/DP.BMP,resources/DR.BMP,Door1,-0.244791667,-0.015625,1,0,0,1.2768,optionLeft,30,7815,4,13,0,13,0,1,,,,,,,,,,,,,,,,,,,,,,,,,,,,,,,,,,,,,,,
,,,,,,,,2023-08-16_08h48.00.669,HF_wild_card,2022.2.4,Win32,60.0132029,622e282986d38f7f8fb74e93,64d2fd46c836a06233681665,64dc7eda82aaae7350779d4c,,,,,,,sngl,resources/DG.BMP,resources/Empty.png,Door4,-0.286458333,0.001302083,1,0,0,1.0959,optionLeft,60,7875,4,14,0,14,0,1,,,,,,,,,,,,,,,,,,,,,,,,,,,,,,,,,,,,,,,
,,,,,,,,2023-08-16_08h48.00.669,HF_wild_card,2022.2.4,Win32,60.0132029,622e282986d38f7f8fb74e93,64d2fd46c836a06233681665,64dc7eda82aaae7350779d4c,,,,,,,ctch,resources/DP.BMP,resources/DG.BMP,Door4,0.352864583,-0.016927083,1,0,0,1.6108,optionRight,60,7935,4,15,0,15,0,1,,,,,,,,,,,,,,,,,,,,,,,,,,,,,,,,,,,,,,,
,,,,,,,,2023-08-16_08h48.00.669,HF_wild_card,2022.2.4,Win32,60.0132029,622e282986d38f7f8fb74e93,64d2fd46c836a06233681665,64dc7eda82aaae7350779d4c,,,,,,,sngl,resources/DY.BMP,resources/Empty.png,Door3,-0.264322917,-0.0078125,1,0,0,0.9582,optionLeft,70,8005,4,16,0,16,0,1,,,,,,,,,,,,,,,,,,,,,,,,,,,,,,,,,,,,,,,
,,,,,,,,2023-08-16_08h48.00.669,HF_wild_card,2022.2.4,Win32,60.0132029,622e282986d38f7f8fb74e93,64d2fd46c836a06233681665,64dc7eda82aaae7350779d4c,,,,,,,sngl,resources/Empty.png,resources/DP.BMP,Door1,0.263020833,-0.022135417,1,0,0,1.1314,optionRight,30,8035,4,17,0,17,0,1,,,,,,,,,,,,,,,,,,,,,,,,,,,,,,,,,,,,,,,
,,,,,,,,2023-08-16_08h48.00.669,HF_wild_card,2022.2.4,Win32,60.0132029,622e282986d38f7f8fb74e93,64d2fd46c836a06233681665,64dc7eda82aaae7350779d4c,,,,,,,decisionTrl,resources/DR.BMP,resources/DBN.BMP,WildCard_Ex,0.2578125,0.036458333,1,0,0,1.4662,optionRight,5,8040,4,18,0,18,0,1,,,,,,,,,,,,,,,,,,,,,,,,,,,,,,,,,,,,,,,
,,,,,,,,2023-08-16_08h48.00.669,HF_wild_card,2022.2.4,Win32,60.0132029,622e282986d38f7f8fb74e93,64d2fd46c836a06233681665,64dc7eda82aaae7350779d4c,,,,,,,decisionTrl,resources/DBN.BMP,resources/DY.BMP,WildCard_Ex,-0.221354167,0.01171875,1,0,0,0.9614,optionLeft,5,8045,4,19,0,19,0,1,,,,,,,,,,,,,,,,,,,,,,,,,,,,,,,,,,,,,,,
,,,,,,,,2023-08-16_08h48.00.669,HF_wild_card,2022.2.4,Win32,60.0132029,622e282986d38f7f8fb74e93,64d2fd46c836a06233681665,64dc7eda82aaae7350779d4c,,,,,,,decisionTrl,resources/DG.BMP,resources/DY.BMP,Door4,-0.256510417,-0.006510417,1,0,0,3.0487,optionLeft,80,8125,4,20,0,20,0,1,,,,,,,,,,,,,,,,,,,,,,,,,,,,,,,,,,,,,,,
,,,,,,,,2023-08-16_08h48.00.669,HF_wild_card,2022.2.4,Win32,60.0132029,622e282986d38f7f8fb74e93,64d2fd46c836a06233681665,64dc7eda82aaae7350779d4c,,,,,,,decisionTrl,resources/DP.BMP,resources/DR.BMP,Door1,-0.255208333,-0.018229167,1,0,0,1.6668,optionLeft,30,8155,4,21,0,21,0,1,,,,,,,,,,,,,,,,,,,,,,,,,,,,,,,,,,,,,,,
,,,,,,,,2023-08-16_08h48.00.669,HF_wild_card,2022.2.4,Win32,60.0132029,622e282986d38f7f8fb74e93,64d2fd46c836a06233681665,64dc7eda82aaae7350779d4c,,,,,,,decisionTrl,resources/DY.BMP,resources/DG.BMP,Door4,0.358072917,-0.033854167,1,0,0,1.4633,optionRight,60,8215,4,22,0,22,0,1,,,,,,,,,,,,,,,,,,,,,,,,,,,,,,,,,,,,,,,
,,,,,,,,2023-08-16_08h48.00.669,HF_wild_card,2022.2.4,Win32,60.0132029,622e282986d38f7f8fb74e93,64d2fd46c836a06233681665,64dc7eda82aaae7350779d4c,,,,,,,sngl,resources/DBN.BMP,resources/Empty.png,WildCard_Ex,-0.2734375,0.020833333,1,0,0,1.0421,optionLeft,5,8220,4,23,0,23,0,1,,,,,,,,,,,,,,,,,,,,,,,,,,,,,,,,,,,,,,,
,,,,,,,,2023-08-16_08h48.00.669,HF_wild_card,2022.2.4,Win32,60.0132029,622e282986d38f7f8fb74e93,64d2fd46c836a06233681665,64dc7eda82aaae7350779d4c,,,,,,,sngl,resources/Empty.png,resources/DG.BMP,Door4,0.24609375,-0.00390625,1,0,0,0.8552,optionRight,80,8300,4,24,0,24,0,1,,,,,,,,,,,,,,,,,,,,,,,,,,,,,,,,,,,,,,,
,,,,,,,,2023-08-16_08h48.00.669,HF_wild_card,2022.2.4,Win32,60.0132029,622e282986d38f7f8fb74e93,64d2fd46c836a06233681665,64dc7eda82aaae7350779d4c,,,,,,,sngl,resources/Empty.png,resources/DY.BMP,Door3,0.298177083,0.0078125,1,0,0,0.9681,optionRight,70,8370,4,25,0,25,0,1,,,,,,,,,,,,,,,,,,,,,,,,,,,,,,,,,,,,,,,
,,,,,,,,2023-08-16_08h48.00.669,HF_wild_card,2022.2.4,Win32,60.0132029,622e282986d38f7f8fb74e93,64d2fd46c836a06233681665,64dc7eda82aaae7350779d4c,,,,,,,sngl,resources/Empty.png,resources/DBN.BMP,WildCard_Ex,0.28125,0.045572917,1,0,0,0.9034,optionRight,95,8465,4,26,0,26,0,1,,,,,,,,,,,,,,,,,,,,,,,,,,,,,,,,,,,,,,,
,,,,,,,,2023-08-16_08h48.00.669,HF_wild_card,2022.2.4,Win32,60.0132029,622e282986d38f7f8fb74e93,64d2fd46c836a06233681665,64dc7eda82aaae7350779d4c,,,,,,,decisionTrl,resources/DBN.BMP,resources/DR.BMP,WildCard_Ex,-0.256510417,-0.00390625,1,0,0,1.861,optionLeft,95,8560,4,27,0,27,0,1,,,,,,,,,,,,,,,,,,,,,,,,,,,,,,,,,,,,,,,
,,,,,,,,2023-08-16_08h48.00.669,HF_wild_card,2022.2.4,Win32,60.0132029,622e282986d38f7f8fb74e93,64d2fd46c836a06233681665,64dc7eda82aaae7350779d4c,,,,,,,sngl,resources/DP.BMP,resources/Empty.png,Door1,-0.303385417,-0.010416667,1,0,0,1.1066,optionLeft,30,8590,4,28,0,28,0,1,,,,,,,,,,,,,,,,,,,,,,,,,,,,,,,,,,,,,,,
,,,,,,,,2023-08-16_08h48.00.669,HF_wild_card,2022.2.4,Win32,60.0132029,622e282986d38f7f8fb74e93,64d2fd46c836a06233681665,64dc7eda82aaae7350779d4c,,,,,,,ctch,resources/DY.BMP,resources/DR.BMP,Door3,-0.291666667,0.002604167,1,0,0,1.4102,optionLeft,70,8660,4,29,0,29,0,1,,,,,,,,,,,,,,,,,,,,,,,,,,,,,,,,,,,,,,,
,,,,,,,,2023-08-16_08h48.00.669,HF_wild_card,2022.2.4,Win32,60.0132029,622e282986d38f7f8fb74e93,64d2fd46c836a06233681665,64dc7eda82aaae7350779d4c,,,,,,,decisionTrl,resources/DBN.BMP,resources/DG.BMP,WildCard_Ex,-0.23046875,0.009114583,1,0,0,1.5059,optionLeft,5,8665,4,30,0,30,0,1,,,,,,,,,,,,,,,,,,,,,,,,,,,,,,,,,,,,,,,
,,,,,,,,2023-08-16_08h48.00.669,HF_wild_card,2022.2.4,Win32,60.0132029,622e282986d38f7f8fb74e93,64d2fd46c836a06233681665,64dc7eda82aaae7350779d4c,,,,,,,ctch,resources/DR.BMP,resources/DY.BMP,Door3,0.33984375,0.010416667,1,0,0,2.2498,optionRight,70,8735,4,31,0,31,0,1,,,,,,,,,,,,,,,,,,,,,,,,,,,,,,,,,,,,,,,
,,,,,,,,2023-08-16_08h48.00.669,HF_wild_card,2022.2.4,Win32,60.0132029,622e282986d38f7f8fb74e93,64d2fd46c836a06233681665,64dc7eda82aaae7350779d4c,,,,,,,decisionTrl,resources/DG.BMP,resources/DY.BMP,Door4,-0.229166667,-0.00390625,1,0,0,1.8017,optionLeft,80,8815,4,32,0,32,0,1,,,,,,,,,,,,,,,,,,,,,,,,,,,,,,,,,,,,,,,
,,,,,,,,2023-08-16_08h48.00.669,HF_wild_card,2022.2.4,Win32,60.0132029,622e282986d38f7f8fb74e93,64d2fd46c836a06233681665,64dc7eda82aaae7350779d4c,,,,,,,decisionTrl,resources/DY.BMP,resources/DBN.BMP,Door3,-0.333333333,-0.053385417,1,0,0,2.9487,optionLeft,70,8885,4,33,0,33,0,1,,,,,,,,,,,,,,,,,,,,,,,,,,,,,,,,,,,,,,,
,,,,,,,,2023-08-16_08h48.00.669,HF_wild_card,2022.2.4,Win32,60.0132029,622e282986d38f7f8fb74e93,64d2fd46c836a06233681665,64dc7eda82aaae7350779d4c,,,,,,,decisionTrl,resources/DP.BMP,resources/DBN.BMP,WildCard_Ex,0.325520833,0.048177083,1,0,0,1.2203,optionRight,95,8980,4,34,0,34,0,1,,,,,,,,,,,,,,,,,,,,,,,,,,,,,,,,,,,,,,,
,,,,,,,,2023-08-16_08h48.00.669,HF_wild_card,2022.2.4,Win32,60.0132029,622e282986d38f7f8fb74e93,64d2fd46c836a06233681665,64dc7eda82aaae7350779d4c,,,,,,,decisionTrl,resources/DY.BMP,resources/DG.BMP,Door3,-0.32421875,0.05078125,1,0,0,3.1072,optionLeft,70,9050,4,35,0,35,0,1,,,,,,,,,,,,,,,,,,,,,,,,,,,,,,,,,,,,,,,
,,,,,,,,2023-08-16_08h48.00.669,HF_wild_card,2022.2.4,Win32,60.0132029,622e282986d38f7f8fb74e93,64d2fd46c836a06233681665,64dc7eda82aaae7350779d4c,,,,,,,decisionTrl,resources/DBN.BMP,resources/DP.BMP,WildCard_Ex,-0.313802083,-0.006510417,1,0,0,2.654,optionLeft,95,9145,4,36,0,36,0,1,,,,,,,,,,,,,,,,,,,,,,,,,,,,,,,,,,,,,,,
,,,,,,,,2023-08-16_08h48.00.669,HF_wild_card,2022.2.4,Win32,60.0132029,622e282986d38f7f8fb74e93,64d2fd46c836a06233681665,64dc7eda82aaae7350779d4c,,,,,,,decisionTrl,resources/DP.BMP,resources/DR.BMP,Door1,-0.220052083,-0.04296875,1,0,0,2.9071,optionLeft,30,9175,4,37,0,37,0,1,,,,,,,,,,,,,,,,,,,,,,,,,,,,,,,,,,,,,,,
,,,,,,,,2023-08-16_08h48.00.669,HF_wild_card,2022.2.4,Win32,60.0132029,622e282986d38f7f8fb74e93,64d2fd46c836a06233681665,64dc7eda82aaae7350779d4c,,,,,,,decisionTrl,resources/DY.BMP,resources/DG.BMP,Door4,0.220052083,0.00390625,1,0,0,1.8304,optionRight,60,9235,4,38,0,38,0,1,,,,,,,,,,,,,,,,,,,,,,,,,,,,,,,,,,,,,,,
,,,,,,,,2023-08-16_08h48.00.669,HF_wild_card,2022.2.4,Win32,60.0132029,622e282986d38f7f8fb74e93,64d2fd46c836a06233681665,64dc7eda82aaae7350779d4c,,,,,,,ctch,resources/DG.BMP,resources/DP.BMP,Door4,-0.34765625,0.029947917,1,0,0,1.0266,optionLeft,80,9315,4,39,0,39,0,1,,,,,,,,,,,,,,,,,,,,,,,,,,,,,,,,,,,,,,,
,,,,,,,,2023-08-16_08h48.00.669,HF_wild_card,2022.2.4,Win32,60.0132029,622e282986d38f7f8fb74e93,64d2fd46c836a06233681665,64dc7eda82aaae7350779d4c,,,,,,,decisionTrl,resources/DY.BMP,resources/DG.BMP,Door3,-0.26171875,-0.009114583,1,0,0,0.7571,optionLeft,70,9385,4,40,0,40,0,1,,,,,,,,,,,,,,,,,,,,,,,,,,,,,,,,,,,,,,,
,,,,,,,,2023-08-16_08h48.00.669,HF_wild_card,2022.2.4,Win32,60.0132029,622e282986d38f7f8fb74e93,64d2fd46c836a06233681665,64dc7eda82aaae7350779d4c,,,,,,,ctch,resources/DP.BMP,resources/DG.BMP,Door4,0.259114583,0.020833333,1,0,0,2.4639,optionRight,60,9445,4,41,0,41,0,1,,,,,,,,,,,,,,,,,,,,,,,,,,,,,,,,,,,,,,,
,,,,,,,,2023-08-16_08h48.00.669,HF_wild_card,2022.2.4,Win32,60.0132029,622e282986d38f7f8fb74e93,64d2fd46c836a06233681665,64dc7eda82aaae7350779d4c,,,,,,,ctch,resources/DR.BMP,resources/DY.BMP,Door3,0.319010417,0.013020833,1,0,0,1.2123,optionRight,70,9515,4,42,0,42,0,1,,,,,,,,,,,,,,,,,,,,,,,,,,,,,,,,,,,,,,,
,,,,,,,,2023-08-16_08h48.00.669,HF_wild_card,2022.2.4,Win32,60.0132029,622e282986d38f7f8fb74e93,64d2fd46c836a06233681665,64dc7eda82aaae7350779d4c,,,,,,,sngl,resources/Empty.png,resources/DR.BMP,Door2,0.35546875,0,1,0,0,1.126,optionRight,40,9555,4,43,0,43,0,1,,,,,,,,,,,,,,,,,,,,,,,,,,,,,,,,,,,,,,,
,,,,,,,,2023-08-16_08h48.00.669,HF_wild_card,2022.2.4,Win32,60.0132029,622e282986d38f7f8fb74e93,64d2fd46c836a06233681665,64dc7eda82aaae7350779d4c,,,,,,,,,,,,,,,,,,,,,,,,,,3,0,3,0,1,,,,,,,,,,,,,,,,,,,,,,,,,,,,,,,,,,
,,,,,,,,2023-08-16_08h48.00.669,HF_wild_card,2022.2.4,Win32,60.0132029,622e282986d38f7f8fb74e93,64d2fd46c836a06233681665,64dc7eda82aaae7350779d4c,,,,,,,ctch,resources/DG.BMP,resources/DP.BMP,Door4,-0.188802083,-0.092447917,1,0,0,1.7586,optionLeft,60,9615,5,0,0,0,0,1,,,,,,,,,,,,,,,,,,,,,,,,,,,,,,,,,,,,,,,
,,,,,,,,2023-08-16_08h48.00.669,HF_wild_card,2022.2.4,Win32,60.0132029,622e282986d38f7f8fb74e93,64d2fd46c836a06233681665,64dc7eda82aaae7350779d4c,,,,,,,decisionTrl,resources/DP.BMP,resources/DR.BMP,Door1,-0.265625,-0.033854167,1,0,0,2.2798,optionLeft,30,9645,5,1,0,1,0,1,,,,,,,,,,,,,,,,,,,,,,,,,,,,,,,,,,,,,,,
,,,,,,,,2023-08-16_08h48.00.669,HF_wild_card,2022.2.4,Win32,60.0132029,622e282986d38f7f8fb74e93,64d2fd46c836a06233681665,64dc7eda82aaae7350779d4c,,,,,,,sngl,resources/DY.BMP,resources/Empty.png,Door3,-0.329427083,-0.028645833,1,0,0,0.6938,optionLeft,70,9715,5,2,0,2,0,1,,,,,,,,,,,,,,,,,,,,,,,,,,,,,,,,,,,,,,,
,,,,,,,,2023-08-16_08h48.00.669,HF_wild_card,2022.2.4,Win32,60.0132029,622e282986d38f7f8fb74e93,64d2fd46c836a06233681665,64dc7eda82aaae7350779d4c,,,,,,,ctch,resources/DR.BMP,resources/DY.BMP,Door3,0.298177083,-0.005208333,1,0,0,1.1278,optionRight,70,9785,5,3,0,3,0,1,,,,,,,,,,,,,,,,,,,,,,,,,,,,,,,,,,,,,,,
,,,,,,,,2023-08-16_08h48.00.669,HF_wild_card,2022.2.4,Win32,60.0132029,622e282986d38f7f8fb74e93,64d2fd46c836a06233681665,64dc7eda82aaae7350779d4c,,,,,,,ctch,resources/DR.BMP,resources/DY.BMP,Door3,0.279947917,-0.022135417,1,0,0,0.8949,optionRight,70,9855,5,4,0,4,0,1,,,,,,,,,,,,,,,,,,,,,,,,,,,,,,,,,,,,,,,
,,,,,,,,2023-08-16_08h48.00.669,HF_wild_card,2022.2.4,Win32,60.0132029,622e282986d38f7f8fb74e93,64d2fd46c836a06233681665,64dc7eda82aaae7350779d4c,,,,,,,sngl,resources/DR.BMP,resources/Empty.png,Door2,-0.2734375,0.009114583,1,0,0,0.9442,optionLeft,40,9895,5,5,0,5,0,1,,,,,,,,,,,,,,,,,,,,,,,,,,,,,,,,,,,,,,,
,,,,,,,,2023-08-16_08h48.00.669,HF_wild_card,2022.2.4,Win32,60.0132029,622e282986d38f7f8fb74e93,64d2fd46c836a06233681665,64dc7eda82aaae7350779d4c,,,,,,,decisionTrl,resources/DP.BMP,resources/DR.BMP,Door2,0.309895833,0.001302083,1,0,0,2.549,optionRight,40,9935,5,6,0,6,0,1,,,,,,,,,,,,,,,,,,,,,,,,,,,,,,,,,,,,,,,
,,,,,,,,2023-08-16_08h48.00.669,HF_wild_card,2022.2.4,Win32,60.0132029,622e282986d38f7f8fb74e93,64d2fd46c836a06233681665,64dc7eda82aaae7350779d4c,,,,,,,decisionTrl,resources/DY.BMP,resources/DG.BMP,Door4,0.244791667,0.014322917,1,0,0,1.8292,optionRight,60,9995,5,7,0,7,0,1,,,,,,,,,,,,,,,,,,,,,,,,,,,,,,,,,,,,,,,
,,,,,,,,2023-08-16_08h48.00.669,HF_wild_card,2022.2.4,Win32,60.0132029,622e282986d38f7f8fb74e93,64d2fd46c836a06233681665,64dc7eda82aaae7350779d4c,,,,,,,decisionTrl,resources/DR.BMP,resources/DP.BMP,Door2,-0.3984375,0.018229167,1,0,0,2.3278,optionLeft,40,10035,5,8,0,8,0,1,,,,,,,,,,,,,,,,,,,,,,,,,,,,,,,,,,,,,,,
,,,,,,,,2023-08-16_08h48.00.669,HF_wild_card,2022.2.4,Win32,60.0132029,622e282986d38f7f8fb74e93,64d2fd46c836a06233681665,64dc7eda82aaae7350779d4c,,,,,,,decisionTrl,resources/DY.BMP,resources/DG.BMP,Door3,-0.360677083,0.001302083,1,0,0,0.9435,optionLeft,70,10105,5,9,0,9,0,1,,,,,,,,,,,,,,,,,,,,,,,,,,,,,,,,,,,,,,,
,,,,,,,,2023-08-16_08h48.00.669,HF_wild_card,2022.2.4,Win32,60.0132029,622e282986d38f7f8fb74e93,64d2fd46c836a06233681665,64dc7eda82aaae7350779d4c,,,,,,,ctch,resources/DP.BMP,resources/DG.BMP,Door4,0.40234375,0.032552083,1,0,0,0.9768,optionRight,80,10185,5,10,0,10,0,1,,,,,,,,,,,,,,,,,,,,,,,,,,,,,,,,,,,,,,,
,,,,,,,,2023-08-16_08h48.00.669,HF_wild_card,2022.2.4,Win32,60.0132029,622e282986d38f7f8fb74e93,64d2fd46c836a06233681665,64dc7eda82aaae7350779d4c,,,,,,,sngl,resources/Empty.png,resources/DBN.BMP,WildCard_Ex,0.3515625,0.048177083,1,0,0,1.0122,optionRight,5,10190,5,11,0,11,0,1,,,,,,,,,,,,,,,,,,,,,,,,,,,,,,,,,,,,,,,
,,,,,,,,2023-08-16_08h48.00.669,HF_wild_card,2022.2.4,Win32,60.0132029,622e282986d38f7f8fb74e93,64d2fd46c836a06233681665,64dc7eda82aaae7350779d4c,,,,,,,decisionTrl,resources/DY.BMP,resources/DG.BMP,Door4,0.31640625,0.069010417,1,0,0,2.0954,optionRight,80,10270,5,12,0,12,0,1,,,,,,,,,,,,,,,,,,,,,,,,,,,,,,,,,,,,,,,
,,,,,,,,2023-08-16_08h48.00.669,HF_wild_card,2022.2.4,Win32,60.0132029,622e282986d38f7f8fb74e93,64d2fd46c836a06233681665,64dc7eda82aaae7350779d4c,,,,,,,decisionTrl,resources/DR.BMP,resources/DP.BMP,Door2,-0.22265625,-0.046875,1,0,0,4.4328,optionLeft,40,10310,5,13,0,13,0,1,,,,,,,,,,,,,,,,,,,,,,,,,,,,,,,,,,,,,,,
,,,,,,,,2023-08-16_08h48.00.669,HF_wild_card,2022.2.4,Win32,60.0132029,622e282986d38f7f8fb74e93,64d2fd46c836a06233681665,64dc7eda82aaae7350779d4c,,,,,,,decisionTrl,resources/DG.BMP,resources/DBN.BMP,WildCard_Ex,0.263020833,0.0234375,1,0,0,1.0944,optionRight,95,10405,5,14,0,14,0,1,,,,,,,,,,,,,,,,,,,,,,,,,,,,,,,,,,,,,,,
,,,,,,,,2023-08-16_08h48.00.669,HF_wild_card,2022.2.4,Win32,60.0132029,622e282986d38f7f8fb74e93,64d2fd46c836a06233681665,64dc7eda82aaae7350779d4c,,,,,,,sngl,resources/DBN.BMP,resources/Empty.png,WildCard_Ex,-0.34375,0.02734375,1,0,0,0.878,optionLeft,5,10410,5,15,0,15,0,1,,,,,,,,,,,,,,,,,,,,,,,,,,,,,,,,,,,,,,,
,,,,,,,,2023-08-16_08h48.00.669,HF_wild_card,2022.2.4,Win32,60.0132029,622e282986d38f7f8fb74e93,64d2fd46c836a06233681665,64dc7eda82aaae7350779d4c,,,,,,,sngl,resources/Empty.png,resources/DY.BMP,Door3,0.299479167,-0.03125,1,0,0,0.8217,optionRight,70,10480,5,16,0,16,0,1,,,,,,,,,,,,,,,,,,,,,,,,,,,,,,,,,,,,,,,
,,,,,,,,2023-08-16_08h48.00.669,HF_wild_card,2022.2.4,Win32,60.0132029,622e282986d38f7f8fb74e93,64d2fd46c836a06233681665,64dc7eda82aaae7350779d4c,,,,,,,sngl,resources/Empty.png,resources/DR.BMP,Door2,0.268229167,0.015625,1,0,0,1.0375,optionRight,20,10500,5,17,0,17,0,1,,,,,,,,,,,,,,,,,,,,,,,,,,,,,,,,,,,,,,,
,,,,,,,,2023-08-16_08h48.00.669,HF_wild_card,2022.2.4,Win32,60.0132029,622e282986d38f7f8fb74e93,64d2fd46c836a06233681665,64dc7eda82aaae7350779d4c,,,,,,,decisionTrl,resources/DG.BMP,resources/DY.BMP,Door4,-0.231770833,0.028645833,1,0,0,1.7866,optionLeft,60,10560,5,18,0,18,0,1,,,,,,,,,,,,,,,,,,,,,,,,,,,,,,,,,,,,,,,
,,,,,,,,2023-08-16_08h48.00.669,HF_wild_card,2022.2.4,Win32,60.0132029,622e282986d38f7f8fb74e93,64d2fd46c836a06233681665,64dc7eda82aaae7350779d4c,,,,,,,sngl,resources/Empty.png,resources/DG.BMP,Door4,0.29296875,0.009114583,1,0,0,0.9528,optionRight,60,10620,5,19,0,19,0,1,,,,,,,,,,,,,,,,,,,,,,,,,,,,,,,,,,,,,,,
,,,,,,,,2023-08-16_08h48.00.669,HF_wild_card,2022.2.4,Win32,60.0132029,622e282986d38f7f8fb74e93,64d2fd46c836a06233681665,64dc7eda82aaae7350779d4c,,,,,,,decisionTrl,resources/DP.BMP,resources/DR.BMP,Door1,-0.298177083,-0.009114583,1,0,0,4.2925,optionLeft,30,10650,5,20,0,20,0,1,,,,,,,,,,,,,,,,,,,,,,,,,,,,,,,,,,,,,,,
,,,,,,,,2023-08-16_08h48.00.669,HF_wild_card,2022.2.4,Win32,60.0132029,622e282986d38f7f8fb74e93,64d2fd46c836a06233681665,64dc7eda82aaae7350779d4c,,,,,,,decisionTrl,resources/DR.BMP,resources/DP.BMP,Door2,-0.264322917,0.005208333,1,0,0,1.2124,optionLeft,40,10690,5,21,0,21,0,1,,,,,,,,,,,,,,,,,,,,,,,,,,,,,,,,,,,,,,,
,,,,,,,,2023-08-16_08h48.00.669,HF_wild_card,2022.2.4,Win32,60.0132029,622e282986d38f7f8fb74e93,64d2fd46c836a06233681665,64dc7eda82aaae7350779d4c,,,,,,,ctch,resources/DY.BMP,resources/DR.BMP,Door3,-0.26171875,-0.036458333,1,0,0,1.1934,optionLeft,70,10760,5,22,0,22,0,1,,,,,,,,,,,,,,,,,,,,,,,,,,,,,,,,,,,,,,,
,,,,,,,,2023-08-16_08h48.00.669,HF_wild_card,2022.2.4,Win32,60.0132029,622e282986d38f7f8fb74e93,64d2fd46c836a06233681665,64dc7eda82aaae7350779d4c,,,,,,,sngl,resources/Empty.png,resources/DP.BMP,Door1,0.294270833,-0.02734375,1,0,0,1.0595,optionRight,30,10790,5,23,0,23,0,1,,,,,,,,,,,,,,,,,,,,,,,,,,,,,,,,,,,,,,,
,,,,,,,,2023-08-16_08h48.00.669,HF_wild_card,2022.2.4,Win32,60.0132029,622e282986d38f7f8fb74e93,64d2fd46c836a06233681665,64dc7eda82aaae7350779d4c,,,,,,,decisionTrl,resources/DG.BMP,resources/DY.BMP,Door4,-0.29296875,0,1,0,0,2.6989,optionLeft,60,10850,5,24,0,24,0,1,,,,,,,,,,,,,,,,,,,,,,,,,,,,,,,,,,,,,,,
,,,,,,,,2023-08-16_08h48.00.669,HF_wild_card,2022.2.4,Win32,60.0132029,622e282986d38f7f8fb74e93,64d2fd46c836a06233681665,64dc7eda82aaae7350779d4c,,,,,,,sngl,resources/DG.BMP,resources/Empty.png,Door4,-0.227864583,0.028645833,1,0,0,0.852,optionLeft,80,10930,5,25,0,25,0,1,,,,,,,,,,,,,,,,,,,,,,,,,,,,,,,,,,,,,,,
,,,,,,,,2023-08-16_08h48.00.669,HF_wild_card,2022.2.4,Win32,60.0132029,622e282986d38f7f8fb74e93,64d2fd46c836a06233681665,64dc7eda82aaae7350779d4c,,,,,,,sngl,resources/DBN.BMP,resources/Empty.png,WildCard_Ex,-0.30078125,0.018229167,1,0,0,0.8366,optionLeft,95,11025,5,26,0,26,0,1,,,,,,,,,,,,,,,,,,,,,,,,,,,,,,,,,,,,,,,
,,,,,,,,2023-08-16_08h48.00.669,HF_wild_card,2022.2.4,Win32,60.0132029,622e282986d38f7f8fb74e93,64d2fd46c836a06233681665,64dc7eda82aaae7350779d4c,,,,,,,decisionTrl,resources/DG.BMP,resources/DY.BMP,Door3,0.352864583,-0.001302083,1,0,0,2.6142,optionRight,70,11095,5,27,0,27,0,1,,,,,,,,,,,,,,,,,,,,,,,,,,,,,,,,,,,,,,,
,,,,,,,,2023-08-16_08h48.00.669,HF_wild_card,2022.2.4,Win32,60.0132029,622e282986d38f7f8fb74e93,64d2fd46c836a06233681665,64dc7eda82aaae7350779d4c,,,,,,,ctch,resources/DY.BMP,resources/DR.BMP,Door3,-0.276041667,0.010416667,1,0,0,1.1966,optionLeft,70,11165,5,28,0,28,0,1,,,,,,,,,,,,,,,,,,,,,,,,,,,,,,,,,,,,,,,
,,,,,,,,2023-08-16_08h48.00.669,HF_wild_card,2022.2.4,Win32,60.0132029,622e282986d38f7f8fb74e93,64d2fd46c836a06233681665,64dc7eda82aaae7350779d4c,,,,,,,decisionTrl,resources/DP.BMP,resources/DR.BMP,Door2,0.319010417,-0.0234375,1,0,0,2.4914,optionRight,40,11205,5,29,0,29,0,1,,,,,,,,,,,,,,,,,,,,,,,,,,,,,,,,,,,,,,,
,,,,,,,,2023-08-16_08h48.00.669,HF_wild_card,2022.2.4,Win32,60.0132029,622e282986d38f7f8fb74e93,64d2fd46c836a06233681665,64dc7eda82aaae7350779d4c,,,,,,,sngl,resources/Empty.png,resources/DBN.BMP,WildCard_Ex,0.24609375,0.028645833,1,0,0,0.9237,optionRight,95,11300,5,30,0,30,0,1,,,,,,,,,,,,,,,,,,,,,,,,,,,,,,,,,,,,,,,
,,,,,,,,2023-08-16_08h48.00.669,HF_wild_card,2022.2.4,Win32,60.0132029,622e282986d38f7f8fb74e93,64d2fd46c836a06233681665,64dc7eda82aaae7350779d4c,,,,,,,decisionTrl,resources/DY.BMP,resources/DBN.BMP,WildCard_Ex,0.290364583,0.052083333,1,0,0,0.9933,optionRight,5,11305,5,31,0,31,0,1,,,,,,,,,,,,,,,,,,,,,,,,,,,,,,,,,,,,,,,
,,,,,,,,2023-08-16_08h48.00.669,HF_wild_card,2022.2.4,Win32,60.0132029,622e282986d38f7f8fb74e93,64d2fd46c836a06233681665,64dc7eda82aaae7350779d4c,,,,,,,decisionTrl,resources/DG.BMP,resources/DY.BMP,Door3,0.352864583,0.0234375,1,0,0,1.2113,optionRight,70,11375,5,32,0,32,0,1,,,,,,,,,,,,,,,,,,,,,,,,,,,,,,,,,,,,,,,
,,,,,,,,2023-08-16_08h48.00.669,HF_wild_card,2022.2.4,Win32,60.0132029,622e282986d38f7f8fb74e93,64d2fd46c836a06233681665,64dc7eda82aaae7350779d4c,,,,,,,decisionTrl,resources/DBN.BMP,resources/DR.BMP,WildCard_Ex,-0.27734375,0.020833333,1,0,0,1.8273,optionLeft,5,11380,5,33,0,33,0,1,,,,,,,,,,,,,,,,,,,,,,,,,,,,,,,,,,,,,,,
,,,,,,,,2023-08-16_08h48.00.669,HF_wild_card,2022.2.4,Win32,60.0132029,622e282986d38f7f8fb74e93,64d2fd46c836a06233681665,64dc7eda82aaae7350779d4c,,,,,,,decisionTrl,resources/DBN.BMP,resources/DP.BMP,WildCard_Ex,-0.244791667,0.010416667,1,0,0,1.0961,optionLeft,95,11475,5,34,0,34,0,1,,,,,,,,,,,,,,,,,,,,,,,,,,,,,,,,,,,,,,,
,,,,,,,,2023-08-16_08h48.00.669,HF_wild_card,2022.2.4,Win32,60.0132029,622e282986d38f7f8fb74e93,64d2fd46c836a06233681665,64dc7eda82aaae7350779d4c,,,,,,,ctch,resources/DP.BMP,resources/DG.BMP,Door4,0.380208333,0.0390625,1,0,0,1.2135,optionRight,80,11555,5,35,0,35,0,1,,,,,,,,,,,,,,,,,,,,,,,,,,,,,,,,,,,,,,,
,,,,,,,,2023-08-16_08h48.00.669,HF_wild_card,2022.2.4,Win32,60.0132029,622e282986d38f7f8fb74e93,64d2fd46c836a06233681665,64dc7eda82aaae7350779d4c,,,,,,,decisionTrl,resources/DP.BMP,resources/DBN.BMP,WildCard_Ex,0.325520833,0.072916667,1,0,0,1.5797,optionRight,95,11650,5,36,0,36,0,1,,,,,,,,,,,,,,,,,,,,,,,,,,,,,,,,,,,,,,,
,,,,,,,,2023-08-16_08h48.00.669,HF_wild_card,2022.2.4,Win32,60.0132029,622e282986d38f7f8fb74e93,64d2fd46c836a06233681665,64dc7eda82aaae7350779d4c,,,,,,,ctch,resources/DG.BMP,resources/DP.BMP,Door4,-0.236979167,0.029947917,1,0,0,1.7801,optionLeft,60,11710,5,37,0,37,0,1,,,,,,,,,,,,,,,,,,,,,,,,,,,,,,,,,,,,,,,
,,,,,,,,2023-08-16_08h48.00.669,HF_wild_card,2022.2.4,Win32,60.0132029,622e282986d38f7f8fb74e93,64d2fd46c836a06233681665,64dc7eda82aaae7350779d4c,,,,,,,decisionTrl,resources/DBN.BMP,resources/DY.BMP,WildCard_Ex,-0.290364583,0.006510417,1,0,0,1.1606,optionLeft,5,11715,5,38,0,38,0,1,,,,,,,,,,,,,,,,,,,,,,,,,,,,,,,,,,,,,,,
,,,,,,,,2023-08-16_08h48.00.669,HF_wild_card,2022.2.4,Win32,60.0132029,622e282986d38f7f8fb74e93,64d2fd46c836a06233681665,64dc7eda82aaae7350779d4c,,,,,,,decisionTrl,resources/DR.BMP,resources/DP.BMP,Door2,-0.259114583,-0.080729167,1,0,0,2.2121,optionLeft,40,11755,5,39,0,39,0,1,,,,,,,,,,,,,,,,,,,,,,,,,,,,,,,,,,,,,,,
,,,,,,,,2023-08-16_08h48.00.669,HF_wild_card,2022.2.4,Win32,60.0132029,622e282986d38f7f8fb74e93,64d2fd46c836a06233681665,64dc7eda82aaae7350779d4c,,,,,,,sngl,resources/DP.BMP,resources/Empty.png,Door1,-0.270833333,-0.015625,1,0,0,0.8767,optionLeft,30,11785,5,40,0,40,0,1,,,,,,,,,,,,,,,,,,,,,,,,,,,,,,,,,,,,,,,
,,,,,,,,2023-08-16_08h48.00.669,HF_wild_card,2022.2.4,Win32,60.0132029,622e282986d38f7f8fb74e93,64d2fd46c836a06233681665,64dc7eda82aaae7350779d4c,,,,,,,decisionTrl,resources/DBN.BMP,resources/DG.BMP,WildCard_Ex,-0.255208333,-0.063802083,1,0,0,4.2834,optionLeft,95,11880,5,41,0,41,0,1,,,,,,,,,,,,,,,,,,,,,,,,,,,,,,,,,,,,,,,
,,,,,,,,2023-08-16_08h48.00.669,HF_wild_card,2022.2.4,Win32,60.0132029,622e282986d38f7f8fb74e93,64d2fd46c836a06233681665,64dc7eda82aaae7350779d4c,,,,,,,decisionTrl,resources/DR.BMP,resources/DBN.BMP,WildCard_Ex,0.223958333,0.014322917,1,0,0,2.0302,optionRight,95,11975,5,42,0,42,0,1,,,,,,,,,,,,,,,,,,,,,,,,,,,,,,,,,,,,,,,
,,,,,,,,2023-08-16_08h48.00.669,HF_wild_card,2022.2.4,Win32,60.0132029,622e282986d38f7f8fb74e93,64d2fd46c836a06233681665,64dc7eda82aaae7350779d4c,,,,,,,decisionTrl,resources/DY.BMP,resources/DG.BMP,Door3,-0.338541667,-0.0390625,1,0,0,1.8972,optionLeft,70,12045,5,43,0,43,0,1,,,,,,,,,,,,,,,,,,,,,,,,,,,,,,,,,,,,,,,
,,,,,,,,2023-08-16_08h48.00.669,HF_wild_card,2022.2.4,Win32,60.0132029,622e282986d38f7f8fb74e93,64d2fd46c836a06233681665,64dc7eda82aaae7350779d4c,,,,,,,,,,,,,,,,,,,,,,,,,,4,0,4,0,1,,,,,,,,,,,,,,,,,,,,,,,,,,,,,,,,,,
,,,,,,,,2023-08-16_08h48.00.669,HF_wild_card,2022.2.4,Win32,60.0132029,622e282986d38f7f8fb74e93,64d2fd46c836a06233681665,64dc7eda82aaae7350779d4c,,,,,,,decisionTrl,resources/DR.BMP,resources/DP.BMP,Door2,-0.317708333,-0.09765625,1,0,0,2.8139,optionLeft,40,12085,6,0,0,0,0,1,,,,,,,,,,,,,,,,,,,,,,,,,,,,,,,,,,,,,,,
,,,,,,,,2023-08-16_08h48.00.669,HF_wild_card,2022.2.4,Win32,60.0132029,622e282986d38f7f8fb74e93,64d2fd46c836a06233681665,64dc7eda82aaae7350779d4c,,,,,,,ctch,resources/DY.BMP,resources/DR.BMP,Door3,-0.341145833,-0.04296875,1,0,0,1.2464,optionLeft,70,12155,6,1,0,1,0,1,,,,,,,,,,,,,,,,,,,,,,,,,,,,,,,,,,,,,,,
,,,,,,,,2023-08-16_08h48.00.669,HF_wild_card,2022.2.4,Win32,60.0132029,622e282986d38f7f8fb74e93,64d2fd46c836a06233681665,64dc7eda82aaae7350779d4c,,,,,,,ctch,resources/DG.BMP,resources/DP.BMP,Door4,-0.23046875,-0.01171875,1,0,0,1.4608,optionLeft,80,12235,6,2,0,2,0,1,,,,,,,,,,,,,,,,,,,,,,,,,,,,,,,,,,,,,,,
,,,,,,,,2023-08-16_08h48.00.669,HF_wild_card,2022.2.4,Win32,60.0132029,622e282986d38f7f8fb74e93,64d2fd46c836a06233681665,64dc7eda82aaae7350779d4c,,,,,,,sngl,resources/Empty.png,resources/DBN.BMP,WildCard_Ex,0.338541667,0.016927083,1,0,0,0.9298,optionRight,95,12330,6,3,0,3,0,1,,,,,,,,,,,,,,,,,,,,,,,,,,,,,,,,,,,,,,,
,,,,,,,,2023-08-16_08h48.00.669,HF_wild_card,2022.2.4,Win32,60.0132029,622e282986d38f7f8fb74e93,64d2fd46c836a06233681665,64dc7eda82aaae7350779d4c,,,,,,,ctch,resources/DP.BMP,resources/DG.BMP,Door4,0.342447917,0.05078125,1,0,0,1.9466,optionRight,60,12390,6,4,0,4,0,1,,,,,,,,,,,,,,,,,,,,,,,,,,,,,,,,,,,,,,,
,,,,,,,,2023-08-16_08h48.00.669,HF_wild_card,2022.2.4,Win32,60.0132029,622e282986d38f7f8fb74e93,64d2fd46c836a06233681665,64dc7eda82aaae7350779d4c,,,,,,,decisionTrl,resources/DG.BMP,resources/DY.BMP,Door3,0.28125,0.044270833,1,0,0,3.0304,optionRight,70,12460,6,5,0,5,0,1,,,,,,,,,,,,,,,,,,,,,,,,,,,,,,,,,,,,,,,
,,,,,,,,2023-08-16_08h48.00.669,HF_wild_card,2022.2.4,Win32,60.0132029,622e282986d38f7f8fb74e93,64d2fd46c836a06233681665,64dc7eda82aaae7350779d4c,,,,,,,sngl,resources/DY.BMP,resources/Empty.png,Door3,-0.25390625,0.033854167,1,0,0,0.8105,optionLeft,70,12530,6,6,0,6,0,1,,,,,,,,,,,,,,,,,,,,,,,,,,,,,,,,,,,,,,,
,,,,,,,,2023-08-16_08h48.00.669,HF_wild_card,2022.2.4,Win32,60.0132029,622e282986d38f7f8fb74e93,64d2fd46c836a06233681665,64dc7eda82aaae7350779d4c,,,,,,,ctch,resources/DR.BMP,resources/DY.BMP,Door3,0.25390625,0.032552083,1,0,0,1.2101,optionRight,70,12600,6,7,0,7,0,1,,,,,,,,,,,,,,,,,,,,,,,,,,,,,,,,,,,,,,,
,,,,,,,,2023-08-16_08h48.00.669,HF_wild_card,2022.2.4,Win32,60.0132029,622e282986d38f7f8fb74e93,64d2fd46c836a06233681665,64dc7eda82aaae7350779d4c,,,,,,,decisionTrl,resources/DY.BMP,resources/DG.BMP,Door4,0.47265625,0,1,0,0,3.1317,optionRight,80,12680,6,8,0,8,0,1,,,,,,,,,,,,,,,,,,,,,,,,,,,,,,,,,,,,,,,
,,,,,,,,2023-08-16_08h48.00.669,HF_wild_card,2022.2.4,Win32,60.0132029,622e282986d38f7f8fb74e93,64d2fd46c836a06233681665,64dc7eda82aaae7350779d4c,,,,,,,sngl,resources/Empty.png,resources/DG.BMP,Door4,0.338541667,0.005208333,1,0,0,0.8305,optionRight,80,12760,6,9,0,9,0,1,,,,,,,,,,,,,,,,,,,,,,,,,,,,,,,,,,,,,,,
,,,,,,,,2023-08-16_08h48.00.669,HF_wild_card,2022.2.4,Win32,60.0132029,622e282986d38f7f8fb74e93,64d2fd46c836a06233681665,64dc7eda82aaae7350779d4c,,,,,,,sngl,resources/DR.BMP,resources/Empty.png,Door2,-0.345052083,0.02734375,1,0,0,1.0262,optionLeft,20,12780,6,10,0,10,0,1,,,,,,,,,,,,,,,,,,,,,,,,,,,,,,,,,,,,,,,
,,,,,,,,2023-08-16_08h48.00.669,HF_wild_card,2022.2.4,Win32,60.0132029,622e282986d38f7f8fb74e93,64d2fd46c836a06233681665,64dc7eda82aaae7350779d4c,,,,,,,decisionTrl,resources/DG.BMP,resources/DBN.BMP,WildCard_Ex,0.272135417,0.0546875,1,0,0,1.3782,optionRight,5,12785,6,11,0,11,0,1,,,,,,,,,,,,,,,,,,,,,,,,,,,,,,,,,,,,,,,
,,,,,,,,2023-08-16_08h48.00.669,HF_wild_card,2022.2.4,Win32,60.0132029,622e282986d38f7f8fb74e93,64d2fd46c836a06233681665,64dc7eda82aaae7350779d4c,,,,,,,sngl,resources/Empty.png,resources/DBN.BMP,WildCard_Ex,0.334635417,0.03515625,1,0,0,0.9167,optionRight,5,12790,6,12,0,12,0,1,,,,,,,,,,,,,,,,,,,,,,,,,,,,,,,,,,,,,,,
,,,,,,,,2023-08-16_08h48.00.669,HF_wild_card,2022.2.4,Win32,60.0132029,622e282986d38f7f8fb74e93,64d2fd46c836a06233681665,64dc7eda82aaae7350779d4c,,,,,,,ctch,resources/DR.BMP,resources/DY.BMP,Door3,0.25390625,0.01953125,1,0,0,1.195,optionRight,70,12860,6,13,0,13,0,1,,,,,,,,,,,,,,,,,,,,,,,,,,,,,,,,,,,,,,,
,,,,,,,,2023-08-16_08h48.00.669,HF_wild_card,2022.2.4,Win32,60.0132029,622e282986d38f7f8fb74e93,64d2fd46c836a06233681665,64dc7eda82aaae7350779d4c,,,,,,,decisionTrl,resources/DR.BMP,resources/DP.BMP,Door1,0.372395833,0.049479167,1,0,0,2.93,optionRight,30,12890,6,14,0,14,0,1,,,,,,,,,,,,,,,,,,,,,,,,,,,,,,,,,,,,,,,
,,,,,,,,2023-08-16_08h48.00.669,HF_wild_card,2022.2.4,Win32,60.0132029,622e282986d38f7f8fb74e93,64d2fd46c836a06233681665,64dc7eda82aaae7350779d4c,,,,,,,decisionTrl,resources/DY.BMP,resources/DG.BMP,Door4,0.24609375,0,1,0,0,1.6647,optionRight,80,12970,6,15,0,15,0,1,,,,,,,,,,,,,,,,,,,,,,,,,,,,,,,,,,,,,,,
,,,,,,,,2023-08-16_08h48.00.669,HF_wild_card,2022.2.4,Win32,60.0132029,622e282986d38f7f8fb74e93,64d2fd46c836a06233681665,64dc7eda82aaae7350779d4c,,,,,,,decisionTrl,resources/DBN.BMP,resources/DY.BMP,WildCard_Ex,-0.260416667,-0.002604167,1,0,0,1.3122,optionLeft,95,13065,6,16,0,16,0,1,,,,,,,,,,,,,,,,,,,,,,,,,,,,,,,,,,,,,,,
,,,,,,,,2023-08-16_08h48.00.669,HF_wild_card,2022.2.4,Win32,60.0132029,622e282986d38f7f8fb74e93,64d2fd46c836a06233681665,64dc7eda82aaae7350779d4c,,,,,,,decisionTrl,resources/DP.BMP,resources/DR.BMP,Door2,0.274739583,-0.01171875,1,0,0,2.5788,optionRight,20,13085,6,17,0,17,0,1,,,,,,,,,,,,,,,,,,,,,,,,,,,,,,,,,,,,,,,
,,,,,,,,2023-08-16_08h48.00.669,HF_wild_card,2022.2.4,Win32,60.0132029,622e282986d38f7f8fb74e93,64d2fd46c836a06233681665,64dc7eda82aaae7350779d4c,,,,,,,decisionTrl,resources/DBN.BMP,resources/DR.BMP,WildCard_Ex,-0.311197917,-0.0078125,1,0,0,0.9953,optionLeft,95,13180,6,18,0,18,0,1,,,,,,,,,,,,,,,,,,,,,,,,,,,,,,,,,,,,,,,
,,,,,,,,2023-08-16_08h48.00.669,HF_wild_card,2022.2.4,Win32,60.0132029,622e282986d38f7f8fb74e93,64d2fd46c836a06233681665,64dc7eda82aaae7350779d4c,,,,,,,decisionTrl,resources/DR.BMP,resources/DP.BMP,Door1,0.342447917,-0.026041667,1,0,0,2.1787,optionRight,30,13210,6,19,0,19,0,1,,,,,,,,,,,,,,,,,,,,,,,,,,,,,,,,,,,,,,,
,,,,,,,,2023-08-16_08h48.00.669,HF_wild_card,2022.2.4,Win32,60.0132029,622e282986d38f7f8fb74e93,64d2fd46c836a06233681665,64dc7eda82aaae7350779d4c,,,,,,,sngl,resources/DBN.BMP,resources/Empty.png,WildCard_Ex,-0.3671875,0.026041667,1,0,0,0.8783,optionLeft,5,13215,6,20,0,20,0,1,,,,,,,,,,,,,,,,,,,,,,,,,,,,,,,,,,,,,,,
,,,,,,,,2023-08-16_08h48.00.669,HF_wild_card,2022.2.4,Win32,60.0132029,622e282986d38f7f8fb74e93,64d2fd46c836a06233681665,64dc7eda82aaae7350779d4c,,,,,,,ctch,resources/DP.BMP,resources/DG.BMP,Door4,0.334635417,-0.041666667,1,0,0,1.3807,optionRight,60,13275,6,21,0,21,0,1,,,,,,,,,,,,,,,,,,,,,,,,,,,,,,,,,,,,,,,
,,,,,,,,2023-08-16_08h48.00.669,HF_wild_card,2022.2.4,Win32,60.0132029,622e282986d38f7f8fb74e93,64d2fd46c836a06233681665,64dc7eda82aaae7350779d4c,,,,,,,decisionTrl,resources/DY.BMP,resources/DBN.BMP,WildCard_Ex,0.342447917,0.03515625,1,0,0,2.865,optionRight,5,13280,6,22,0,22,0,1,,,,,,,,,,,,,,,,,,,,,,,,,,,,,,,,,,,,,,,
,,,,,,,,2023-08-16_08h48.00.669,HF_wild_card,2022.2.4,Win32,60.0132029,622e282986d38f7f8fb74e93,64d2fd46c836a06233681665,64dc7eda82aaae7350779d4c,,,,,,,decisionTrl,resources/DP.BMP,resources/DBN.BMP,WildCard_Ex,0.227864583,0.006510417,1,0,0,1.2614,optionRight,95,13375,6,23,0,23,0,1,,,,,,,,,,,,,,,,,,,,,,,,,,,,,,,,,,,,,,,
,,,,,,,,2023-08-16_08h48.00.669,HF_wild_card,2022.2.4,Win32,60.0132029,622e282986d38f7f8fb74e93,64d2fd46c836a06233681665,64dc7eda82aaae7350779d4c,,,,,,,ctch,resources/DG.BMP,resources/DP.BMP,Door4,-0.276041667,0,1,0,0,1.2946,optionLeft,80,13455,6,24,0,24,0,1,,,,,,,,,,,,,,,,,,,,,,,,,,,,,,,,,,,,,,,
,,,,,,,,2023-08-16_08h48.00.669,HF_wild_card,2022.2.4,Win32,60.0132029,622e282986d38f7f8fb74e93,64d2fd46c836a06233681665,64dc7eda82aaae7350779d4c,,,,,,,sngl,resources/Empty.png,resources/DP.BMP,Door1,0.352864583,-0.006510417,1,0,0,0.9252,optionRight,30,13485,6,25,0,25,0,1,,,,,,,,,,,,,,,,,,,,,,,,,,,,,,,,,,,,,,,
,,,,,,,,2023-08-16_08h48.00.669,HF_wild_card,2022.2.4,Win32,60.0132029,622e282986d38f7f8fb74e93,64d2fd46c836a06233681665,64dc7eda82aaae7350779d4c,,,,,,,decisionTrl,resources/DR.BMP,resources/DBN.BMP,WildCard_Ex,0.26953125,0.036458333,1,0,0,1.8751,optionRight,95,13580,6,26,0,26,0,1,,,,,,,,,,,,,,,,,,,,,,,,,,,,,,,,,,,,,,,
,,,,,,,,2023-08-16_08h48.00.669,HF_wild_card,2022.2.4,Win32,60.0132029,622e282986d38f7f8fb74e93,64d2fd46c836a06233681665,64dc7eda82aaae7350779d4c,,,,,,,decisionTrl,resources/DG.BMP,resources/DY.BMP,Door3,0.350260417,0.014322917,1,0,0,3.2648,optionRight,70,13650,6,27,0,27,0,1,,,,,,,,,,,,,,,,,,,,,,,,,,,,,,,,,,,,,,,
,,,,,,,,2023-08-16_08h48.00.669,HF_wild_card,2022.2.4,Win32,60.0132029,622e282986d38f7f8fb74e93,64d2fd46c836a06233681665,64dc7eda82aaae7350779d4c,,,,,,,decisionTrl,resources/DG.BMP,resources/DY.BMP,Door3,0.3046875,0.010416667,1,0,0,3.1482,optionRight,70,13720,6,28,0,28,0,1,,,,,,,,,,,,,,,,,,,,,,,,,,,,,,,,,,,,,,,
,,,,,,,,2023-08-16_08h48.00.669,HF_wild_card,2022.2.4,Win32,60.0132029,622e282986d38f7f8fb74e93,64d2fd46c836a06233681665,64dc7eda82aaae7350779d4c,,,,,,,decisionTrl,resources/DR.BMP,resources/DP.BMP,Door1,0.260416667,0.026041667,1,0,0,1.802,optionRight,30,13750,6,29,0,29,0,1,,,,,,,,,,,,,,,,,,,,,,,,,,,,,,,,,,,,,,,
,,,,,,,,2023-08-16_08h48.00.669,HF_wild_card,2022.2.4,Win32,60.0132029,622e282986d38f7f8fb74e93,64d2fd46c836a06233681665,64dc7eda82aaae7350779d4c,,,,,,,decisionTrl,resources/DP.BMP,resources/DR.BMP,Door1,-0.330729167,-0.032552083,1,0,0,2.3992,optionLeft,30,13780,6,30,0,30,0,1,,,,,,,,,,,,,,,,,,,,,,,,,,,,,,,,,,,,,,,
,,,,,,,,2023-08-16_08h48.00.669,HF_wild_card,2022.2.4,Win32,60.0132029,622e282986d38f7f8fb74e93,64d2fd46c836a06233681665,64dc7eda82aaae7350779d4c,,,,,,,decisionTrl,resources/DBN.BMP,resources/DG.BMP,WildCard_Ex,-0.315104167,-0.024739583,1,0,0,1.1946,optionLeft,5,13785,6,31,0,31,0,1,,,,,,,,,,,,,,,,,,,,,,,,,,,,,,,,,,,,,,,
,,,,,,,,2023-08-16_08h48.00.669,HF_wild_card,2022.2.4,Win32,60.0132029,622e282986d38f7f8fb74e93,64d2fd46c836a06233681665,64dc7eda82aaae7350779d4c,,,,,,,ctch,resources/DY.BMP,resources/DR.BMP,Door3,-0.299479167,-0.002604167,1,0,0,1.0786,optionLeft,70,13855,6,32,0,32,0,1,,,,,,,,,,,,,,,,,,,,,,,,,,,,,,,,,,,,,,,
,,,,,,,,2023-08-16_08h48.00.669,HF_wild_card,2022.2.4,Win32,60.0132029,622e282986d38f7f8fb74e93,64d2fd46c836a06233681665,64dc7eda82aaae7350779d4c,,,,,,,decisionTrl,resources/DP.BMP,resources/DR.BMP,Door1,-0.3046875,-0.026041667,1,0,0,1.6617,optionLeft,30,13885,6,33,0,33,0,1,,,,,,,,,,,,,,,,,,,,,,,,,,,,,,,,,,,,,,,
,,,,,,,,2023-08-16_08h48.00.669,HF_wild_card,2022.2.4,Win32,60.0132029,622e282986d38f7f8fb74e93,64d2fd46c836a06233681665,64dc7eda82aaae7350779d4c,,,,,,,sngl,resources/Empty.png,resources/DY.BMP,Door3,0.279947917,0.05859375,1,0,0,0.9115,optionRight,70,13955,6,34,0,34,0,1,,,,,,,,,,,,,,,,,,,,,,,,,,,,,,,,,,,,,,,
,,,,,,,,2023-08-16_08h48.00.669,HF_wild_card,2022.2.4,Win32,60.0132029,622e282986d38f7f8fb74e93,64d2fd46c836a06233681665,64dc7eda82aaae7350779d4c,,,,,,,decisionTrl,resources/DP.BMP,resources/DR.BMP,Door1,-0.25390625,-0.036458333,1,0,0,2.5641,optionLeft,30,13985,6,35,0,35,0,1,,,,,,,,,,,,,,,,,,,,,,,,,,,,,,,,,,,,,,,
,,,,,,,,2023-08-16_08h48.00.669,HF_wild_card,2022.2.4,Win32,60.0132029,622e282986d38f7f8fb74e93,64d2fd46c836a06233681665,64dc7eda82aaae7350779d4c,,,,,,,sngl,resources/DBN.BMP,resources/Empty.png,WildCard_Ex,-0.319010417,0.002604167,1,0,0,0.8104,optionLeft,95,14080,6,36,0,36,0,1,,,,,,,,,,,,,,,,,,,,,,,,,,,,,,,,,,,,,,,
,,,,,,,,2023-08-16_08h48.00.669,HF_wild_card,2022.2.4,Win32,60.0132029,622e282986d38f7f8fb74e93,64d2fd46c836a06233681665,64dc7eda82aaae7350779d4c,,,,,,,decisionTrl,resources/DY.BMP,resources/DG.BMP,Door3,-0.244791667,-0.009114583,1,0,0,1.5781,optionLeft,70,14150,6,37,0,37,0,1,,,,,,,,,,,,,,,,,,,,,,,,,,,,,,,,,,,,,,,
,,,,,,,,2023-08-16_08h48.00.669,HF_wild_card,2022.2.4,Win32,60.0132029,622e282986d38f7f8fb74e93,64d2fd46c836a06233681665,64dc7eda82aaae7350779d4c,,,,,,,sngl,resources/DP.BMP,resources/Empty.png,Door1,-0.26953125,-0.006510417,1,0,0,1.7101,optionLeft,30,14180,6,38,0,38,0,1,,,,,,,,,,,,,,,,,,,,,,,,,,,,,,,,,,,,,,,
,,,,,,,,2023-08-16_08h48.00.669,HF_wild_card,2022.2.4,Win32,60.0132029,622e282986d38f7f8fb74e93,64d2fd46c836a06233681665,64dc7eda82aaae7350779d4c,,,,,,,sngl,resources/Empty.png,resources/DR.BMP,Door2,0.28125,0.018229167,1,0,0,1.1118,optionRight,40,14220,6,39,0,39,0,1,,,,,,,,,,,,,,,,,,,,,,,,,,,,,,,,,,,,,,,
,,,,,,,,2023-08-16_08h48.00.669,HF_wild_card,2022.2.4,Win32,60.0132029,622e282986d38f7f8fb74e93,64d2fd46c836a06233681665,64dc7eda82aaae7350779d4c,,,,,,,sngl,resources/DG.BMP,resources/Empty.png,Door4,-0.236979167,0.020833333,1,0,0,1.3977,optionLeft,60,14280,6,40,0,40,0,1,,,,,,,,,,,,,,,,,,,,,,,,,,,,,,,,,,,,,,,
,,,,,,,,2023-08-16_08h48.00.669,HF_wild_card,2022.2.4,Win32,60.0132029,622e282986d38f7f8fb74e93,64d2fd46c836a06233681665,64dc7eda82aaae7350779d4c,,,,,,,decisionTrl,resources/DBN.BMP,resources/DP.BMP,WildCard_Ex,-0.204427083,-0.020833333,1,0,0,1.7291,optionLeft,95,14375,6,41,0,41,0,1,,,,,,,,,,,,,,,,,,,,,,,,,,,,,,,,,,,,,,,
,,,,,,,,2023-08-16_08h48.00.669,HF_wild_card,2022.2.4,Win32,60.0132029,622e282986d38f7f8fb74e93,64d2fd46c836a06233681665,64dc7eda82aaae7350779d4c,,,,,,,decisionTrl,resources/DG.BMP,resources/DY.BMP,Door3,0.247395833,0.001302083,1,0,0,2.0953,optionRight,70,14445,6,42,0,42,0,1,,,,,,,,,,,,,,,,,,,,,,,,,,,,,,,,,,,,,,,
,,,,,,,,2023-08-16_08h48.00.669,HF_wild_card,2022.2.4,Win32,60.0132029,622e282986d38f7f8fb74e93,64d2fd46c836a06233681665,64dc7eda82aaae7350779d4c,,,,,,,decisionTrl,resources/DY.BMP,resources/DG.BMP,Door3,-0.169270833,0,1,0,0,2.0644,optionLeft,70,14515,6,43,0,43,0,1,,,,,,,,,,,,,,,,,,,,,,,,,,,,,,,,,,,,,,,
,,,,,,,,2023-08-16_08h48.00.669,HF_wild_card,2022.2.4,Win32,60.0132029,622e282986d38f7f8fb74e93,64d2fd46c836a06233681665,64dc7eda82aaae7350779d4c,,,,,,,,,,,,,,,,,,,,,,,,,,5,0,5,0,1,,,,,,,,,,,,,,,,,,,,,,,,,,,,,,,,,,
,,,,,,,,2023-08-16_08h48.00.669,HF_wild_card,2022.2.4,Win32,60.0132029,622e282986d38f7f8fb74e93,64d2fd46c836a06233681665,64dc7eda82aaae7350779d4c,,,,,,,decisionTrl,resources/DG.BMP,resources/DY.BMP,Door3,0.401041667,-0.05859375,1,0,0,1.6862,optionRight,70,14585,7,0,0,0,0,1,,,,,,,,,,,,,,,,,,,,,,,,,,,,,,,,,,,,,,,
,,,,,,,,2023-08-16_08h48.00.669,HF_wild_card,2022.2.4,Win32,60.0132029,622e282986d38f7f8fb74e93,64d2fd46c836a06233681665,64dc7eda82aaae7350779d4c,,,,,,,ctch,resources/DY.BMP,resources/DR.BMP,Door3,-0.311197917,-0.03125,1,0,0,1.0374,optionLeft,70,14655,7,1,0,1,0,1,,,,,,,,,,,,,,,,,,,,,,,,,,,,,,,,,,,,,,,
,,,,,,,,2023-08-16_08h48.00.669,HF_wild_card,2022.2.4,Win32,60.0132029,622e282986d38f7f8fb74e93,64d2fd46c836a06233681665,64dc7eda82aaae7350779d4c,,,,,,,decisionTrl,resources/DP.BMP,resources/DR.BMP,Door1,-0.19140625,-0.040364583,1,0,0,2.1612,optionLeft,30,14685,7,2,0,2,0,1,,,,,,,,,,,,,,,,,,,,,,,,,,,,,,,,,,,,,,,
,,,,,,,,2023-08-16_08h48.00.669,HF_wild_card,2022.2.4,Win32,60.0132029,622e282986d38f7f8fb74e93,64d2fd46c836a06233681665,64dc7eda82aaae7350779d4c,,,,,,,ctch,resources/DG.BMP,resources/DP.BMP,Door4,-0.30078125,-0.033854167,1,0,0,1.3486,optionLeft,80,14765,7,3,0,3,0,1,,,,,,,,,,,,,,,,,,,,,,,,,,,,,,,,,,,,,,,
,,,,,,,,2023-08-16_08h48.00.669,HF_wild_card,2022.2.4,Win32,60.0132029,622e282986d38f7f8fb74e93,64d2fd46c836a06233681665,64dc7eda82aaae7350779d4c,,,,,,,decisionTrl,resources/DY.BMP,resources/DG.BMP,Door3,-0.201822917,-0.036458333,1,0,0,1.382,optionLeft,70,14835,7,4,0,4,0,1,,,,,,,,,,,,,,,,,,,,,,,,,,,,,,,,,,,,,,,
,,,,,,,,2023-08-16_08h48.00.669,HF_wild_card,2022.2.4,Win32,60.0132029,622e282986d38f7f8fb74e93,64d2fd46c836a06233681665,64dc7eda82aaae7350779d4c,,,,,,,decisionTrl,resources/DP.BMP,resources/DR.BMP,Door2,0.328125,-0.001302083,1,0,0,2.2482,optionRight,40,14875,7,5,0,5,0,1,,,,,,,,,,,,,,,,,,,,,,,,,,,,,,,,,,,,,,,
,,,,,,,,2023-08-16_08h48.00.669,HF_wild_card,2022.2.4,Win32,60.0132029,622e282986d38f7f8fb74e93,64d2fd46c836a06233681665,64dc7eda82aaae7350779d4c,,,,,,,ctch,resources/DY.BMP,resources/DR.BMP,Door3,-0.319010417,0.001302083,1,0,0,1.013,optionLeft,70,14945,7,6,0,6,0,1,,,,,,,,,,,,,,,,,,,,,,,,,,,,,,,,,,,,,,,
,,,,,,,,2023-08-16_08h48.00.669,HF_wild_card,2022.2.4,Win32,60.0132029,622e282986d38f7f8fb74e93,64d2fd46c836a06233681665,64dc7eda82aaae7350779d4c,,,,,,,decisionTrl,resources/DG.BMP,resources/DY.BMP,Door3,0.30078125,0.00390625,1,0,0,1.982,optionRight,70,15015,7,7,0,7,0,1,,,,,,,,,,,,,,,,,,,,,,,,,,,,,,,,,,,,,,,
,,,,,,,,2023-08-16_08h48.00.669,HF_wild_card,2022.2.4,Win32,60.0132029,622e282986d38f7f8fb74e93,64d2fd46c836a06233681665,64dc7eda82aaae7350779d4c,,,,,,,decisionTrl,resources/DY.BMP,resources/DG.BMP,Door3,-0.225260417,-0.04296875,1,0,0,4.8339,optionLeft,70,15085,7,8,0,8,0,1,,,,,,,,,,,,,,,,,,,,,,,,,,,,,,,,,,,,,,,
,,,,,,,,2023-08-16_08h48.00.669,HF_wild_card,2022.2.4,Win32,60.0132029,622e282986d38f7f8fb74e93,64d2fd46c836a06233681665,64dc7eda82aaae7350779d4c,,,,,,,decisionTrl,resources/DP.BMP,resources/DR.BMP,Door1,-0.26171875,-0.02734375,1,0,0,1.551,optionLeft,30,15115,7,9,0,9,0,1,,,,,,,,,,,,,,,,,,,,,,,,,,,,,,,,,,,,,,,
,,,,,,,,2023-08-16_08h48.00.669,HF_wild_card,2022.2.4,Win32,60.0132029,622e282986d38f7f8fb74e93,64d2fd46c836a06233681665,64dc7eda82aaae7350779d4c,,,,,,,ctch,resources/DG.BMP,resources/DP.BMP,Door4,-0.240885417,-0.010416667,1,0,0,1.6555,optionLeft,80,15195,7,10,0,10,0,1,,,,,,,,,,,,,,,,,,,,,,,,,,,,,,,,,,,,,,,
,,,,,,,,2023-08-16_08h48.00.669,HF_wild_card,2022.2.4,Win32,60.0132029,622e282986d38f7f8fb74e93,64d2fd46c836a06233681665,64dc7eda82aaae7350779d4c,,,,,,,ctch,resources/DG.BMP,resources/DP.BMP,Door4,-0.342447917,-0.006510417,1,0,0,0.7974,optionLeft,60,15255,7,11,0,11,0,1,,,,,,,,,,,,,,,,,,,,,,,,,,,,,,,,,,,,,,,
,,,,,,,,2023-08-16_08h48.00.669,HF_wild_card,2022.2.4,Win32,60.0132029,622e282986d38f7f8fb74e93,64d2fd46c836a06233681665,64dc7eda82aaae7350779d4c,,,,,,,ctch,resources/DR.BMP,resources/DY.BMP,Door3,0.364583333,0,1,0,0,1.3386,optionRight,70,15325,7,12,0,12,0,1,,,,,,,,,,,,,,,,,,,,,,,,,,,,,,,,,,,,,,,
,,,,,,,,2023-08-16_08h48.00.669,HF_wild_card,2022.2.4,Win32,60.0132029,622e282986d38f7f8fb74e93,64d2fd46c836a06233681665,64dc7eda82aaae7350779d4c,,,,,,,ctch,resources/DP.BMP,resources/DG.BMP,Door4,0.302083333,-0.016927083,1,0,0,1.147,optionRight,60,15385,7,13,0,13,0,1,,,,,,,,,,,,,,,,,,,,,,,,,,,,,,,,,,,,,,,
,,,,,,,,2023-08-16_08h48.00.669,HF_wild_card,2022.2.4,Win32,60.0132029,622e282986d38f7f8fb74e93,64d2fd46c836a06233681665,64dc7eda82aaae7350779d4c,,,,,,,decisionTrl,resources/DG.BMP,resources/DY.BMP,Door3,0.3203125,-0.010416667,1,0,0,1.5444,optionRight,70,15455,7,14,0,14,0,1,,,,,,,,,,,,,,,,,,,,,,,,,,,,,,,,,,,,,,,
,,,,,,,,2023-08-16_08h48.00.669,HF_wild_card,2022.2.4,Win32,60.0132029,622e282986d38f7f8fb74e93,64d2fd46c836a06233681665,64dc7eda82aaae7350779d4c,,,,,,,decisionTrl,resources/DR.BMP,resources/DP.BMP,Door1,0.296875,0.002604167,1,0,0,1.9751,optionRight,30,15485,7,15,0,15,0,1,,,,,,,,,,,,,,,,,,,,,,,,,,,,,,,,,,,,,,,
,,,,,,,,2023-08-16_08h48.00.669,HF_wild_card,2022.2.4,Win32,60.0132029,622e282986d38f7f8fb74e93,64d2fd46c836a06233681665,64dc7eda82aaae7350779d4c,,,,,,,decisionTrl,resources/DR.BMP,resources/DP.BMP,Door1,0.326822917,-0.014322917,1,0,0,1.3997,optionRight,30,15515,7,16,0,16,0,1,,,,,,,,,,,,,,,,,,,,,,,,,,,,,,,,,,,,,,,
,,,,,,,,2023-08-16_08h48.00.669,HF_wild_card,2022.2.4,Win32,60.0132029,622e282986d38f7f8fb74e93,64d2fd46c836a06233681665,64dc7eda82aaae7350779d4c,,,,,,,decisionTrl,resources/DR.BMP,resources/DP.BMP,Door1,0.313802083,-0.022135417,1,0,0,1.1934,optionRight,30,15545,7,17,0,17,0,1,,,,,,,,,,,,,,,,,,,,,,,,,,,,,,,,,,,,,,,
,,,,,,,,2023-08-16_08h48.00.669,HF_wild_card,2022.2.4,Win32,60.0132029,622e282986d38f7f8fb74e93,64d2fd46c836a06233681665,64dc7eda82aaae7350779d4c,,,,,,,decisionTrl,resources/DG.BMP,resources/DY.BMP,Door3,0.27734375,0.009114583,1,0,0,2.4088,optionRight,70,15615,7,18,0,18,0,1,,,,,,,,,,,,,,,,,,,,,,,,,,,,,,,,,,,,,,,
,,,,,,,,2023-08-16_08h48.00.669,HF_wild_card,2022.2.4,Win32,60.0132029,622e282986d38f7f8fb74e93,64d2fd46c836a06233681665,64dc7eda82aaae7350779d4c,,,,,,,decisionTrl,resources/DP.BMP,resources/DR.BMP,Door1,-0.346354167,-0.010416667,1,0,0,1.8141,optionLeft,30,15645,7,19,0,19,0,1,,,,,,,,,,,,,,,,,,,,,,,,,,,,,,,,,,,,,,,
,,,,,,,,2023-08-16_08h48.00.669,HF_wild_card,2022.2.4,Win32,60.0132029,622e282986d38f7f8fb74e93,64d2fd46c836a06233681665,64dc7eda82aaae7350779d4c,,,,,,,decisionTrl,resources/DY.BMP,resources/DG.BMP,Door4,0.290364583,0.083333333,1,0,0,1.4539,optionRight,80,15725,7,20,0,20,0,1,,,,,,,,,,,,,,,,,,,,,,,,,,,,,,,,,,,,,,,
,,,,,,,,2023-08-16_08h48.00.669,HF_wild_card,2022.2.4,Win32,60.0132029,622e282986d38f7f8fb74e93,64d2fd46c836a06233681665,64dc7eda82aaae7350779d4c,,,,,,,decisionTrl,resources/DY.BMP,resources/DG.BMP,Door4,0.235677083,0.01171875,1,0,0,2.0874,optionRight,80,15805,7,21,0,21,0,1,,,,,,,,,,,,,,,,,,,,,,,,,,,,,,,,,,,,,,,
,,,,,,,,2023-08-16_08h48.00.669,HF_wild_card,2022.2.4,Win32,60.0132029,622e282986d38f7f8fb74e93,64d2fd46c836a06233681665,64dc7eda82aaae7350779d4c,,,,,,,decisionTrl,resources/DP.BMP,resources/DR.BMP,Door1,-0.2890625,-0.013020833,1,0,0,1.3299,optionLeft,30,15835,7,22,0,22,0,1,,,,,,,,,,,,,,,,,,,,,,,,,,,,,,,,,,,,,,,
,,,,,,,,2023-08-16_08h48.00.669,HF_wild_card,2022.2.4,Win32,60.0132029,622e282986d38f7f8fb74e93,64d2fd46c836a06233681665,64dc7eda82aaae7350779d4c,,,,,,,decisionTrl,resources/DR.BMP,resources/DP.BMP,Door1,0.307291667,-0.024739583,1,0,0,1.2054,optionRight,30,15865,7,23,0,23,0,1,,,,,,,,,,,,,,,,,,,,,,,,,,,,,,,,,,,,,,,
,,,,,,,,2023-08-16_08h48.00.669,HF_wild_card,2022.2.4,Win32,60.0132029,622e282986d38f7f8fb74e93,64d2fd46c836a06233681665,64dc7eda82aaae7350779d4c,,,,,,,decisionTrl,resources/DR.BMP,resources/DP.BMP,Door2,-0.291666667,0.006510417,1,0,0,0.9809,optionLeft,40,15905,7,24,0,24,0,1,,,,,,,,,,,,,,,,,,,,,,,,,,,,,,,,,,,,,,,
,,,,,,,,2023-08-16_08h48.00.669,HF_wild_card,2022.2.4,Win32,60.0132029,622e282986d38f7f8fb74e93,64d2fd46c836a06233681665,64dc7eda82aaae7350779d4c,,,,,,,decisionTrl,resources/DY.BMP,resources/DG.BMP,Door3,-0.217447917,0.009114583,1,0,0,2.1985,optionLeft,70,15975,7,25,0,25,0,1,,,,,,,,,,,,,,,,,,,,,,,,,,,,,,,,,,,,,,,
,,,,,,,,2023-08-16_08h48.00.669,HF_wild_card,2022.2.4,Win32,60.0132029,622e282986d38f7f8fb74e93,64d2fd46c836a06233681665,64dc7eda82aaae7350779d4c,,,,,,,ctch,resources/DR.BMP,resources/DY.BMP,Door3,0.319010417,0.037760417,1,0,0,1.3133,optionRight,70,16045,7,26,0,26,0,1,,,,,,,,,,,,,,,,,,,,,,,,,,,,,,,,,,,,,,,
,,,,,,,,2023-08-16_08h48.00.669,HF_wild_card,2022.2.4,Win32,60.0132029,622e282986d38f7f8fb74e93,64d2fd46c836a06233681665,64dc7eda82aaae7350779d4c,,,,,,,ctch,resources/DY.BMP,resources/DR.BMP,Door3,-0.279947917,-0.01953125,1,0,0,0.9476,optionLeft,70,16115,7,27,0,27,0,1,,,,,,,,,,,,,,,,,,,,,,,,,,,,,,,,,,,,,,,
,,,,,,,,2023-08-16_08h48.00.669,HF_wild_card,2022.2.4,Win32,60.0132029,622e282986d38f7f8fb74e93,64d2fd46c836a06233681665,64dc7eda82aaae7350779d4c,,,,,,,decisionTrl,resources/DR.BMP,resources/DP.BMP,Door1,0.321614583,0.020833333,1,0,0,2.1492,optionRight,30,16145,7,28,0,28,0,1,,,,,,,,,,,,,,,,,,,,,,,,,,,,,,,,,,,,,,,
,,,,,,,,2023-08-16_08h48.00.669,HF_wild_card,2022.2.4,Win32,60.0132029,622e282986d38f7f8fb74e93,64d2fd46c836a06233681665,64dc7eda82aaae7350779d4c,,,,,,,ctch,resources/DP.BMP,resources/DG.BMP,Door4,0.329427083,0.024739583,1,0,0,1.2642,optionRight,60,16205,7,29,0,29,0,1,,,,,,,,,,,,,,,,,,,,,,,,,,,,,,,,,,,,,,,
,,,,,,,,2023-08-16_08h48.00.669,HF_wild_card,2022.2.4,Win32,60.0132029,622e282986d38f7f8fb74e93,64d2fd46c836a06233681665,64dc7eda82aaae7350779d4c,,,,,,,decisionTrl,resources/DP.BMP,resources/DR.BMP,Door2,0.265625,0.044270833,1,0,0,1.981,optionRight,40,16245,7,30,0,30,0,1,,,,,,,,,,,,,,,,,,,,,,,,,,,,,,,,,,,,,,,
,,,,,,,,2023-08-16_08h48.00.669,HF_wild_card,2022.2.4,Win32,60.0132029,622e282986d38f7f8fb74e93,64d2fd46c836a06233681665,64dc7eda82aaae7350779d4c,,,,,,,decisionTrl,resources/DY.BMP,resources/DG.BMP,Door3,-0.364583333,-0.002604167,1,0,0,0.79,optionLeft,70,16315,7,31,0,31,0,1,,,,,,,,,,,,,,,,,,,,,,,,,,,,,,,,,,,,,,,
,,,,,,,,2023-08-16_08h48.00.669,HF_wild_card,2022.2.4,Win32,60.0132029,622e282986d38f7f8fb74e93,64d2fd46c836a06233681665,64dc7eda82aaae7350779d4c,,,,,,,decisionTrl,resources/DG.BMP,resources/DY.BMP,Door4,-0.266927083,0.001302083,1,0,0,0.9944,optionLeft,60,16375,7,32,0,32,0,1,,,,,,,,,,,,,,,,,,,,,,,,,,,,,,,,,,,,,,,
,,,,,,,,2023-08-16_08h48.00.669,HF_wild_card,2022.2.4,Win32,60.0132029,622e282986d38f7f8fb74e93,64d2fd46c836a06233681665,64dc7eda82aaae7350779d4c,,,,,,,ctch,resources/DP.BMP,resources/DG.BMP,Door4,0.356770833,0.020833333,1,0,0,1.0043,optionRight,60,16435,7,33,0,33,0,1,,,,,,,,,,,,,,,,,,,,,,,,,,,,,,,,,,,,,,,
,,,,,,,,2023-08-16_08h48.00.669,HF_wild_card,2022.2.4,Win32,60.0132029,622e282986d38f7f8fb74e93,64d2fd46c836a06233681665,64dc7eda82aaae7350779d4c,,,,,,,ctch,resources/DR.BMP,resources/DY.BMP,Door3,0.30078125,-0.001302083,1,0,0,1.0894,optionRight,70,16505,7,34,0,34,0,1,,,,,,,,,,,,,,,,,,,,,,,,,,,,,,,,,,,,,,,
,,,,,,,,2023-08-16_08h48.00.669,HF_wild_card,2022.2.4,Win32,60.0132029,622e282986d38f7f8fb74e93,64d2fd46c836a06233681665,64dc7eda82aaae7350779d4c,,,,,,,decisionTrl,resources/DG.BMP,resources/DY.BMP,Door3,0.309895833,0.022135417,1,0,0,1.3714,optionRight,70,16575,7,35,0,35,0,1,,,,,,,,,,,,,,,,,,,,,,,,,,,,,,,,,,,,,,,
,,,,,,,,2023-08-16_08h48.00.669,HF_wild_card,2022.2.4,Win32,60.0132029,622e282986d38f7f8fb74e93,64d2fd46c836a06233681665,64dc7eda82aaae7350779d4c,,,,,,,,,,,,,,,,,,,,,,,,,,6,0,6,0,1,,,,,,,,,,,,,,,,,,,,,,,,,,,,,,,,,,
,,,,,,,,2023-08-16_08h48.00.669,HF_wild_card,2022.2.4,Win32,60.0132029,622e282986d38f7f8fb74e93,64d2fd46c836a06233681665,64dc7eda82aaae7350779d4c,,,,,,,,,,,,,,,,,,,,,,,,,,,,,,,4,,,,,,,,,,,,,,,,,,,,,,,,,,,,,,,,,
,,,,,,,,2023-08-16_08h48.00.669,HF_wild_card,2022.2.4,Win32,60.0132029,622e282986d38f7f8fb74e93,64d2fd46c836a06233681665,64dc7eda82aaae7350779d4c,,,,,,,,,,,,,,,,,,,,,,,,,,,,,,,,,,,,,,,,,,,,,,,,,,,,,,,,,,,,,,,,
,,,,,,,,2023-08-16_08h48.00.669,HF_wild_card,2022.2.4,Win32,60.0132029,622e282986d38f7f8fb74e93,64d2fd46c836a06233681665,64dc7eda82aaae7350779d4c,,,,,,,,,,,,,,,,,,,,,,,,,,,,,,,,70,Door3,resources/DY.BMP,0,0,0,0,1,,,,,,,,,,,,,,,,,,,,,,,,,
,,,,,,,,2023-08-16_08h48.00.669,HF_wild_card,2022.2.4,Win32,60.0132029,622e282986d38f7f8fb74e93,64d2fd46c836a06233681665,64dc7eda82aaae7350779d4c,,,,,,,,,,,,,,,,,,,,,,,,,,,,,,,,30,Door2,resources/DR.BMP,1,0,1,0,1,,,,,,,,,,,,,,,,,,,,,,,,,
,,,,,,,,2023-08-16_08h48.00.669,HF_wild_card,2022.2.4,Win32,60.0132029,622e282986d38f7f8fb74e93,64d2fd46c836a06233681665,64dc7eda82aaae7350779d4c,,,,,,,,,,,,,,,,,,,,,,,,,,,,,,,,95,WC_extreme,resources/DBN.BMP,2,0,2,0,1,,,,,,,,,,,,,,,,,,,,,,,,,
,,,,,,,,2023-08-16_08h48.00.669,HF_wild_card,2022.2.4,Win32,60.0132029,622e282986d38f7f8fb74e93,64d2fd46c836a06233681665,64dc7eda82aaae7350779d4c,,,,,,,,,,,,,,,,,,,,,,,,,,,,,,,,40,Door1,resources/DP.BMP,3,0,3,0,1,,,,,,,,,,,,,,,,,,,,,,,,,
,,,,,,,,2023-08-16_08h48.00.669,HF_wild_card,2022.2.4,Win32,60.0132029,622e282986d38f7f8fb74e93,64d2fd46c836a06233681665,64dc7eda82aaae7350779d4c,,,,,,,,,,,,,,,,,,,,,,,,,,,,,,,,80,Door4,resources/DG.BMP,4,0,4,0,1,,,,,,,,,,,,,,,,,,,,,,,,,
,,,,,,,,2023-08-16_08h48.00.669,HF_wild_card,2022.2.4,Win32,60.0132029,622e282986d38f7f8fb74e93,64d2fd46c836a06233681665,64dc7eda82aaae7350779d4c,,,,,,,,,,,,,,,,,,,,,,,,,,,,,,,,40,WC_nonExtreme,resources/DB.BMP,5,0,5,0,1,,,,,,,,,,,,,,,,,,,,,,,,,
,,,,,,,,2023-08-16_08h48.00.669,HF_wild_card,2022.2.4,Win32,60.0132029,622e282986d38f7f8fb74e93,64d2fd46c836a06233681665,64dc7eda82aaae7350779d4c,,,,,,,,,,,,,,,,,,,,,,,,,,,,,,,,,,,,,,,,,,,,,,,,,,,,,,,,,,,,,,,,
,,,,,,,,2023-08-16_08h48.00.669,HF_wild_card,2022.2.4,Win32,60.0132029,622e282986d38f7f8fb74e93,64d2fd46c836a06233681665,64dc7eda82aaae7350779d4c,,,,,,,,,,,,,,,,,,,,,,,,,,,,,,,,,,,,,,,,0,0,0,0,1,,,,,,,,,,,,,,,,,,,,
,,,,,,,,2023-08-16_08h48.00.669,HF_wild_card,2022.2.4,Win32,60.0132029,622e282986d38f7f8fb74e93,64d2fd46c836a06233681665,64dc7eda82aaae7350779d4c,,,,,,,,,,,,,,,,,,,,,,,,,,,,,,,,,,,,,,,,1,0,1,0,1,,,,,,,,,,,,,,,,,,,,
,,,,,,,,2023-08-16_08h48.00.669,HF_wild_card,2022.2.4,Win32,60.0132029,622e282986d38f7f8fb74e93,64d2fd46c836a06233681665,64dc7eda82aaae7350779d4c,,,,,,,,,,,,,,,,,,,,,,,,,,,,,,,,,,,,,,,,,,,,,0.268229167,-0.37890625,1,0,0,no,0,0,0,0,1,,,,,,,,,
