Condition,Low fixed image (Door1),Low risky image (Door2),High fixed image (Door3),High risky image (Door4),Extreme Wild Card,NonExtreme Wild Card,,date,expName,psychopyVersion,OS,frameRate,PROLIFIC_PID,STUDY_ID,SESSION_ID,mouse_2.x,mouse_2.y,mouse_2.leftButton,mouse_2.midButton,mouse_2.rightButton,mouse_2.clicked_name,Trial Type,Left Option Image,Right Option Image,Chosen Door,mouse.x,mouse.y,mouse.leftButton,mouse.midButton,mouse.rightButton,mouse.time,mouse.clicked_name,Feedback,Cumulative Reward,Block,trial.thisRepN,trial.thisTrialN,trial.thisN,trial.thisIndex,trial.ran,blocks.thisRepN,blocks.thisTrialN,blocks.thisN,blocks.thisIndex,blocks.ran,Money conversion,First Outcome Reported,Shown Door (First Outcome),Displayed Image (First Outcome),outcomes.thisRepN,outcomes.thisTrialN,outcomes.thisN,outcomes.thisIndex,outcomes.ran,judgments.thisRepN,judgments.thisTrialN,judgments.thisN,judgments.thisIndex,judgments.ran,freqMouse.x,freqMouse.y,freqMouse.leftButton,freqMouse.midButton,freqMouse.rightButton,freqMouse.clicked_name,FQJ for first outcome,FQJ for second outcome,Shown Door,Displayed Image,trials.thisRepN,trials.thisTrialN,trials.thisN,trials.thisIndex,trials.ran,judgBlock.thisRepN,judgBlock.thisTrialN,judgBlock.thisN,judgBlock.thisIndex,judgBlock.ran
0,resources/DG.BMP,resources/DY.BMP,resources/DR.BMP,resources/DP.BMP,resources/DB.BMP,resources/DBN.BMP,,2023-08-16_08h39.16.705,HF_wild_card,2022.2.4,Win32,59.97361161,5c3d0637e0ea8200014601a4,64d2fd46c836a06233681665,64dc7d09eb1304cbf1f75c9d,,,,,,,,,,,,,,,,,,,,,,,,,,,,,,,,,,,,,,,,,,,,,,,,,,,,,,,,,,,,,,,,
,,,,,,,,2023-08-16_08h39.16.705,HF_wild_card,2022.2.4,Win32,59.97361161,5c3d0637e0ea8200014601a4,64d2fd46c836a06233681665,64dc7d09eb1304cbf1f75c9d,-0.012962963,-0.42962963,1,0,0,agree,,,,,,,,,,,,,,,,,,,,,,,,,,,,,,,,,,,,,,,,,,,,,,,,,,,,,,,,,,
,,,,,,,,2023-08-16_08h39.16.705,HF_wild_card,2022.2.4,Win32,59.97361161,5c3d0637e0ea8200014601a4,64d2fd46c836a06233681665,64dc7d09eb1304cbf1f75c9d,,,,,,,,,,,,,,,,,,,,,,,,,,,,,,,,,,,,,,,,,,,,,,,,,,,,,,,,,,,,,,,,
,,,,,,,,2023-08-16_08h39.16.705,HF_wild_card,2022.2.4,Win32,59.97361161,5c3d0637e0ea8200014601a4,64d2fd46c836a06233681665,64dc7d09eb1304cbf1f75c9d,,,,,,,ctch,resources/DY.BMP,resources/DR.BMP,Door3,0.332407407,-0.040740741,1,0,0,3.2121,optionRight,70,70,1,0,0,0,0,1,,,,,,,,,,,,,,,,,,,,,,,,,,,,,,,,,,,,,,,
,,,,,,,,2023-08-16_08h39.16.705,HF_wild_card,2022.2.4,Win32,59.97361161,5c3d0637e0ea8200014601a4,64d2fd46c836a06233681665,64dc7d09eb1304cbf1f75c9d,,,,,,,decisionTrl,resources/DP.BMP,resources/DB.BMP,Door4,-0.375925926,-0.109259259,1,0,0,0.6923,optionLeft,80,150,1,1,0,1,0,1,,,,,,,,,,,,,,,,,,,,,,,,,,,,,,,,,,,,,,,
,,,,,,,,2023-08-16_08h39.16.705,HF_wild_card,2022.2.4,Win32,59.97361161,5c3d0637e0ea8200014601a4,64d2fd46c836a06233681665,64dc7d09eb1304cbf1f75c9d,,,,,,,sngl,resources/DY.BMP,resources/Empty.png,Door2,-0.286111111,-0.021296296,1,0,0,0.5831,optionLeft,40,190,1,2,0,2,0,1,,,,,,,,,,,,,,,,,,,,,,,,,,,,,,,,,,,,,,,
,,,,,,,,2023-08-16_08h39.16.705,HF_wild_card,2022.2.4,Win32,59.97361161,5c3d0637e0ea8200014601a4,64d2fd46c836a06233681665,64dc7d09eb1304cbf1f75c9d,,,,,,,decisionTrl,resources/DB.BMP,resources/DG.BMP,Door1,0.357407407,-0.096296296,1,0,0,1.9624,optionRight,30,220,1,3,0,3,0,1,,,,,,,,,,,,,,,,,,,,,,,,,,,,,,,,,,,,,,,
,,,,,,,,2023-08-16_08h39.16.705,HF_wild_card,2022.2.4,Win32,59.97361161,5c3d0637e0ea8200014601a4,64d2fd46c836a06233681665,64dc7d09eb1304cbf1f75c9d,,,,,,,decisionTrl,resources/DP.BMP,resources/DR.BMP,Door4,-0.315740741,-0.085185185,1,0,0,0.8165,optionLeft,80,300,1,4,0,4,0,1,,,,,,,,,,,,,,,,,,,,,,,,,,,,,,,,,,,,,,,
,,,,,,,,2023-08-16_08h39.16.705,HF_wild_card,2022.2.4,Win32,59.97361161,5c3d0637e0ea8200014601a4,64d2fd46c836a06233681665,64dc7d09eb1304cbf1f75c9d,,,,,,,sngl,resources/DB.BMP,resources/Empty.png,WildCard_Ex,-0.225925926,-0.013888889,1,0,0,0.6491,optionLeft,95,395,1,5,0,5,0,1,,,,,,,,,,,,,,,,,,,,,,,,,,,,,,,,,,,,,,,
,,,,,,,,2023-08-16_08h39.16.705,HF_wild_card,2022.2.4,Win32,59.97361161,5c3d0637e0ea8200014601a4,64d2fd46c836a06233681665,64dc7d09eb1304cbf1f75c9d,,,,,,,decisionTrl,resources/DY.BMP,resources/DG.BMP,Door2,-0.256481481,-0.075925926,1,0,0,1.5135,optionLeft,40,435,1,6,0,6,0,1,,,,,,,,,,,,,,,,,,,,,,,,,,,,,,,,,,,,,,,
,,,,,,,,2023-08-16_08h39.16.705,HF_wild_card,2022.2.4,Win32,59.97361161,5c3d0637e0ea8200014601a4,64d2fd46c836a06233681665,64dc7d09eb1304cbf1f75c9d,,,,,,,sngl,resources/Empty.png,resources/DG.BMP,Door1,0.450925926,-0.051851852,1,0,0,0.5996,optionRight,30,465,1,7,0,7,0,1,,,,,,,,,,,,,,,,,,,,,,,,,,,,,,,,,,,,,,,
,,,,,,,,2023-08-16_08h39.16.705,HF_wild_card,2022.2.4,Win32,59.97361161,5c3d0637e0ea8200014601a4,64d2fd46c836a06233681665,64dc7d09eb1304cbf1f75c9d,,,,,,,ctch,resources/DG.BMP,resources/DP.BMP,Door4,0.35,-0.044444444,1,0,0,1.2003,optionRight,80,545,1,8,0,8,0,1,,,,,,,,,,,,,,,,,,,,,,,,,,,,,,,,,,,,,,,
,,,,,,,,2023-08-16_08h39.16.705,HF_wild_card,2022.2.4,Win32,59.97361161,5c3d0637e0ea8200014601a4,64d2fd46c836a06233681665,64dc7d09eb1304cbf1f75c9d,,,,,,,sngl,resources/Empty.png,resources/DB.BMP,WildCard_Ex,0.361111111,-0.094444444,1,0,0,0.8163,optionRight,5,550,1,9,0,9,0,1,,,,,,,,,,,,,,,,,,,,,,,,,,,,,,,,,,,,,,,
,,,,,,,,2023-08-16_08h39.16.705,HF_wild_card,2022.2.4,Win32,59.97361161,5c3d0637e0ea8200014601a4,64d2fd46c836a06233681665,64dc7d09eb1304cbf1f75c9d,,,,,,,decisionTrl,resources/DY.BMP,resources/DG.BMP,Door1,0.407407407,-0.028703704,1,0,0,2.348,optionRight,30,580,1,10,0,10,0,1,,,,,,,,,,,,,,,,,,,,,,,,,,,,,,,,,,,,,,,
,,,,,,,,2023-08-16_08h39.16.705,HF_wild_card,2022.2.4,Win32,59.97361161,5c3d0637e0ea8200014601a4,64d2fd46c836a06233681665,64dc7d09eb1304cbf1f75c9d,,,,,,,decisionTrl,resources/DR.BMP,resources/DP.BMP,Door4,0.318518519,0.015740741,1,0,0,0.9663,optionRight,80,660,1,11,0,11,0,1,,,,,,,,,,,,,,,,,,,,,,,,,,,,,,,,,,,,,,,
,,,,,,,,2023-08-16_08h39.16.705,HF_wild_card,2022.2.4,Win32,59.97361161,5c3d0637e0ea8200014601a4,64d2fd46c836a06233681665,64dc7d09eb1304cbf1f75c9d,,,,,,,ctch,resources/DP.BMP,resources/DG.BMP,Door4,-0.260185185,-0.014814815,1,0,0,0.5502,optionLeft,80,740,1,12,0,12,0,1,,,,,,,,,,,,,,,,,,,,,,,,,,,,,,,,,,,,,,,
,,,,,,,,2023-08-16_08h39.16.705,HF_wild_card,2022.2.4,Win32,59.97361161,5c3d0637e0ea8200014601a4,64d2fd46c836a06233681665,64dc7d09eb1304cbf1f75c9d,,,,,,,decisionTrl,resources/DY.BMP,resources/DG.BMP,Door2,-0.346296296,-0.058333333,1,0,0,0.9635,optionLeft,20,760,1,13,0,13,0,1,,,,,,,,,,,,,,,,,,,,,,,,,,,,,,,,,,,,,,,
,,,,,,,,2023-08-16_08h39.16.705,HF_wild_card,2022.2.4,Win32,59.97361161,5c3d0637e0ea8200014601a4,64d2fd46c836a06233681665,64dc7d09eb1304cbf1f75c9d,,,,,,,ctch,resources/DR.BMP,resources/DY.BMP,Door3,-0.400925926,-0.052777778,1,0,0,1.0289,optionLeft,70,830,1,14,0,14,0,1,,,,,,,,,,,,,,,,,,,,,,,,,,,,,,,,,,,,,,,
,,,,,,,,2023-08-16_08h39.16.705,HF_wild_card,2022.2.4,Win32,59.97361161,5c3d0637e0ea8200014601a4,64d2fd46c836a06233681665,64dc7d09eb1304cbf1f75c9d,,,,,,,decisionTrl,resources/DY.BMP,resources/DG.BMP,Door1,0.37037037,-0.05,1,0,0,1.0961,optionRight,30,860,1,15,0,15,0,1,,,,,,,,,,,,,,,,,,,,,,,,,,,,,,,,,,,,,,,
,,,,,,,,2023-08-16_08h39.16.705,HF_wild_card,2022.2.4,Win32,59.97361161,5c3d0637e0ea8200014601a4,64d2fd46c836a06233681665,64dc7d09eb1304cbf1f75c9d,,,,,,,decisionTrl,resources/DB.BMP,resources/DR.BMP,Door3,0.280555556,0.011111111,1,0,0,1.8475,optionRight,70,930,1,16,0,16,0,1,,,,,,,,,,,,,,,,,,,,,,,,,,,,,,,,,,,,,,,
,,,,,,,,2023-08-16_08h39.16.705,HF_wild_card,2022.2.4,Win32,59.97361161,5c3d0637e0ea8200014601a4,64d2fd46c836a06233681665,64dc7d09eb1304cbf1f75c9d,,,,,,,decisionTrl,resources/DB.BMP,resources/DP.BMP,Door4,0.376851852,-0.027777778,1,0,0,0.6999,optionRight,60,990,1,17,0,17,0,1,,,,,,,,,,,,,,,,,,,,,,,,,,,,,,,,,,,,,,,
,,,,,,,,2023-08-16_08h39.16.705,HF_wild_card,2022.2.4,Win32,59.97361161,5c3d0637e0ea8200014601a4,64d2fd46c836a06233681665,64dc7d09eb1304cbf1f75c9d,,,,,,,sngl,resources/Empty.png,resources/DB.BMP,WildCard_Ex,0.287962963,-0.012962963,1,0,0,1.2991,optionRight,95,1085,1,18,0,18,0,1,,,,,,,,,,,,,,,,,,,,,,,,,,,,,,,,,,,,,,,
,,,,,,,,2023-08-16_08h39.16.705,HF_wild_card,2022.2.4,Win32,59.97361161,5c3d0637e0ea8200014601a4,64d2fd46c836a06233681665,64dc7d09eb1304cbf1f75c9d,,,,,,,decisionTrl,resources/DR.BMP,resources/DP.BMP,Door4,0.421296296,-0.092592593,1,0,0,1.0135,optionRight,80,1165,1,19,0,19,0,1,,,,,,,,,,,,,,,,,,,,,,,,,,,,,,,,,,,,,,,
,,,,,,,,2023-08-16_08h39.16.705,HF_wild_card,2022.2.4,Win32,59.97361161,5c3d0637e0ea8200014601a4,64d2fd46c836a06233681665,64dc7d09eb1304cbf1f75c9d,,,,,,,decisionTrl,resources/DG.BMP,resources/DY.BMP,Door1,-0.288888889,-0.00462963,1,0,0,1.3629,optionLeft,30,1195,1,20,0,20,0,1,,,,,,,,,,,,,,,,,,,,,,,,,,,,,,,,,,,,,,,
,,,,,,,,2023-08-16_08h39.16.705,HF_wild_card,2022.2.4,Win32,59.97361161,5c3d0637e0ea8200014601a4,64d2fd46c836a06233681665,64dc7d09eb1304cbf1f75c9d,,,,,,,sngl,resources/DR.BMP,resources/Empty.png,Door3,-0.288888889,-0.006481481,1,0,0,0.9301,optionLeft,70,1265,1,21,0,21,0,1,,,,,,,,,,,,,,,,,,,,,,,,,,,,,,,,,,,,,,,
,,,,,,,,2023-08-16_08h39.16.705,HF_wild_card,2022.2.4,Win32,59.97361161,5c3d0637e0ea8200014601a4,64d2fd46c836a06233681665,64dc7d09eb1304cbf1f75c9d,,,,,,,ctch,resources/DR.BMP,resources/DY.BMP,Door3,-0.4,-0.060185185,1,0,0,0.6497,optionLeft,70,1335,1,22,0,22,0,1,,,,,,,,,,,,,,,,,,,,,,,,,,,,,,,,,,,,,,,
,,,,,,,,2023-08-16_08h39.16.705,HF_wild_card,2022.2.4,Win32,59.97361161,5c3d0637e0ea8200014601a4,64d2fd46c836a06233681665,64dc7d09eb1304cbf1f75c9d,,,,,,,ctch,resources/DG.BMP,resources/DP.BMP,Door4,0.347222222,-0.014814815,1,0,0,0.6298,optionRight,80,1415,1,23,0,23,0,1,,,,,,,,,,,,,,,,,,,,,,,,,,,,,,,,,,,,,,,
,,,,,,,,2023-08-16_08h39.16.705,HF_wild_card,2022.2.4,Win32,59.97361161,5c3d0637e0ea8200014601a4,64d2fd46c836a06233681665,64dc7d09eb1304cbf1f75c9d,,,,,,,decisionTrl,resources/DB.BMP,resources/DY.BMP,WildCard_Ex,-0.334259259,-0.05,1,0,0,2.5812,optionLeft,95,1510,1,24,0,24,0,1,,,,,,,,,,,,,,,,,,,,,,,,,,,,,,,,,,,,,,,
,,,,,,,,2023-08-16_08h39.16.705,HF_wild_card,2022.2.4,Win32,59.97361161,5c3d0637e0ea8200014601a4,64d2fd46c836a06233681665,64dc7d09eb1304cbf1f75c9d,,,,,,,sngl,resources/DP.BMP,resources/Empty.png,Door4,-0.274074074,-0.058333333,1,0,0,0.7,optionLeft,80,1590,1,25,0,25,0,1,,,,,,,,,,,,,,,,,,,,,,,,,,,,,,,,,,,,,,,
,,,,,,,,2023-08-16_08h39.16.705,HF_wild_card,2022.2.4,Win32,59.97361161,5c3d0637e0ea8200014601a4,64d2fd46c836a06233681665,64dc7d09eb1304cbf1f75c9d,,,,,,,sngl,resources/DG.BMP,resources/Empty.png,Door1,-0.231481481,-0.038888889,1,0,0,0.8959,optionLeft,30,1620,1,26,0,26,0,1,,,,,,,,,,,,,,,,,,,,,,,,,,,,,,,,,,,,,,,
,,,,,,,,2023-08-16_08h39.16.705,HF_wild_card,2022.2.4,Win32,59.97361161,5c3d0637e0ea8200014601a4,64d2fd46c836a06233681665,64dc7d09eb1304cbf1f75c9d,,,,,,,decisionTrl,resources/DG.BMP,resources/DY.BMP,Door1,-0.253703704,-0.039814815,1,0,0,1.7007,optionLeft,30,1650,1,27,0,27,0,1,,,,,,,,,,,,,,,,,,,,,,,,,,,,,,,,,,,,,,,
,,,,,,,,2023-08-16_08h39.16.705,HF_wild_card,2022.2.4,Win32,59.97361161,5c3d0637e0ea8200014601a4,64d2fd46c836a06233681665,64dc7d09eb1304cbf1f75c9d,,,,,,,sngl,resources/Empty.png,resources/DY.BMP,Door2,0.381481481,-0.027777778,1,0,0,0.6995,optionRight,20,1670,1,28,0,28,0,1,,,,,,,,,,,,,,,,,,,,,,,,,,,,,,,,,,,,,,,
,,,,,,,,2023-08-16_08h39.16.705,HF_wild_card,2022.2.4,Win32,59.97361161,5c3d0637e0ea8200014601a4,64d2fd46c836a06233681665,64dc7d09eb1304cbf1f75c9d,,,,,,,ctch,resources/DP.BMP,resources/DG.BMP,Door4,-0.422222222,-0.003703704,1,0,0,1.0135,optionLeft,80,1750,1,29,0,29,0,1,,,,,,,,,,,,,,,,,,,,,,,,,,,,,,,,,,,,,,,
,,,,,,,,2023-08-16_08h39.16.705,HF_wild_card,2022.2.4,Win32,59.97361161,5c3d0637e0ea8200014601a4,64d2fd46c836a06233681665,64dc7d09eb1304cbf1f75c9d,,,,,,,sngl,resources/Empty.png,resources/DP.BMP,Door4,0.362037037,-0.062962963,1,0,0,0.5673,optionRight,60,1810,1,30,0,30,0,1,,,,,,,,,,,,,,,,,,,,,,,,,,,,,,,,,,,,,,,
,,,,,,,,2023-08-16_08h39.16.705,HF_wild_card,2022.2.4,Win32,59.97361161,5c3d0637e0ea8200014601a4,64d2fd46c836a06233681665,64dc7d09eb1304cbf1f75c9d,,,,,,,decisionTrl,resources/DR.BMP,resources/DP.BMP,Door3,-0.407407407,-0.064814815,1,0,0,1.4841,optionLeft,70,1880,1,31,0,31,0,1,,,,,,,,,,,,,,,,,,,,,,,,,,,,,,,,,,,,,,,
,,,,,,,,2023-08-16_08h39.16.705,HF_wild_card,2022.2.4,Win32,59.97361161,5c3d0637e0ea8200014601a4,64d2fd46c836a06233681665,64dc7d09eb1304cbf1f75c9d,,,,,,,decisionTrl,resources/DR.BMP,resources/DB.BMP,WildCard_Ex,0.428703704,-0.088888889,1,0,0,1.2817,optionRight,5,1885,1,32,0,32,0,1,,,,,,,,,,,,,,,,,,,,,,,,,,,,,,,,,,,,,,,
,,,,,,,,2023-08-16_08h39.16.705,HF_wild_card,2022.2.4,Win32,59.97361161,5c3d0637e0ea8200014601a4,64d2fd46c836a06233681665,64dc7d09eb1304cbf1f75c9d,,,,,,,decisionTrl,resources/DP.BMP,resources/DR.BMP,Door4,-0.336111111,-0.048148148,1,0,0,1.1332,optionLeft,80,1965,1,33,0,33,0,1,,,,,,,,,,,,,,,,,,,,,,,,,,,,,,,,,,,,,,,
,,,,,,,,2023-08-16_08h39.16.705,HF_wild_card,2022.2.4,Win32,59.97361161,5c3d0637e0ea8200014601a4,64d2fd46c836a06233681665,64dc7d09eb1304cbf1f75c9d,,,,,,,sngl,resources/Empty.png,resources/DR.BMP,Door3,0.362962963,0.008333333,1,0,0,0.6235,optionRight,70,2035,1,34,0,34,0,1,,,,,,,,,,,,,,,,,,,,,,,,,,,,,,,,,,,,,,,
,,,,,,,,2023-08-16_08h39.16.705,HF_wild_card,2022.2.4,Win32,59.97361161,5c3d0637e0ea8200014601a4,64d2fd46c836a06233681665,64dc7d09eb1304cbf1f75c9d,,,,,,,decisionTrl,resources/DP.BMP,resources/DR.BMP,Door4,-0.253703704,-0.041666667,1,0,0,0.6998,optionLeft,60,2095,1,35,0,35,0,1,,,,,,,,,,,,,,,,,,,,,,,,,,,,,,,,,,,,,,,
,,,,,,,,2023-08-16_08h39.16.705,HF_wild_card,2022.2.4,Win32,59.97361161,5c3d0637e0ea8200014601a4,64d2fd46c836a06233681665,64dc7d09eb1304cbf1f75c9d,,,,,,,decisionTrl,resources/DG.BMP,resources/DB.BMP,WildCard_Ex,0.346296296,-0.023148148,1,0,0,2.7011,optionRight,95,2190,1,36,0,36,0,1,,,,,,,,,,,,,,,,,,,,,,,,,,,,,,,,,,,,,,,
,,,,,,,,2023-08-16_08h39.16.705,HF_wild_card,2022.2.4,Win32,59.97361161,5c3d0637e0ea8200014601a4,64d2fd46c836a06233681665,64dc7d09eb1304cbf1f75c9d,,,,,,,decisionTrl,resources/DY.BMP,resources/DB.BMP,Door2,-0.312037037,-0.059259259,1,0,0,1.6144,optionLeft,20,2210,1,37,0,37,0,1,,,,,,,,,,,,,,,,,,,,,,,,,,,,,,,,,,,,,,,
,,,,,,,,2023-08-16_08h39.16.705,HF_wild_card,2022.2.4,Win32,59.97361161,5c3d0637e0ea8200014601a4,64d2fd46c836a06233681665,64dc7d09eb1304cbf1f75c9d,,,,,,,decisionTrl,resources/DP.BMP,resources/DR.BMP,Door4,-0.34537037,-0.074074074,1,0,0,1.2127,optionLeft,60,2270,1,38,0,38,0,1,,,,,,,,,,,,,,,,,,,,,,,,,,,,,,,,,,,,,,,
,,,,,,,,2023-08-16_08h39.16.705,HF_wild_card,2022.2.4,Win32,59.97361161,5c3d0637e0ea8200014601a4,64d2fd46c836a06233681665,64dc7d09eb1304cbf1f75c9d,,,,,,,decisionTrl,resources/DG.BMP,resources/DY.BMP,Door1,-0.424074074,0.012037037,1,0,0,1.7644,optionLeft,30,2300,1,39,0,39,0,1,,,,,,,,,,,,,,,,,,,,,,,,,,,,,,,,,,,,,,,
,,,,,,,,2023-08-16_08h39.16.705,HF_wild_card,2022.2.4,Win32,59.97361161,5c3d0637e0ea8200014601a4,64d2fd46c836a06233681665,64dc7d09eb1304cbf1f75c9d,,,,,,,decisionTrl,resources/DR.BMP,resources/DP.BMP,Door4,0.323148148,-0.049074074,1,0,0,1.3308,optionRight,60,2360,1,40,0,40,0,1,,,,,,,,,,,,,,,,,,,,,,,,,,,,,,,,,,,,,,,
,,,,,,,,2023-08-16_08h39.16.705,HF_wild_card,2022.2.4,Win32,59.97361161,5c3d0637e0ea8200014601a4,64d2fd46c836a06233681665,64dc7d09eb1304cbf1f75c9d,,,,,,,decisionTrl,resources/DG.BMP,resources/DY.BMP,Door1,-0.261111111,-0.037962963,1,0,0,0.9135,optionLeft,30,2390,1,41,0,41,0,1,,,,,,,,,,,,,,,,,,,,,,,,,,,,,,,,,,,,,,,
,,,,,,,,2023-08-16_08h39.16.705,HF_wild_card,2022.2.4,Win32,59.97361161,5c3d0637e0ea8200014601a4,64d2fd46c836a06233681665,64dc7d09eb1304cbf1f75c9d,,,,,,,ctch,resources/DY.BMP,resources/DR.BMP,Door3,0.312962963,-0.016666667,1,0,0,1.1336,optionRight,70,2460,1,42,0,42,0,1,,,,,,,,,,,,,,,,,,,,,,,,,,,,,,,,,,,,,,,
,,,,,,,,2023-08-16_08h39.16.705,HF_wild_card,2022.2.4,Win32,59.97361161,5c3d0637e0ea8200014601a4,64d2fd46c836a06233681665,64dc7d09eb1304cbf1f75c9d,,,,,,,sngl,resources/DB.BMP,resources/Empty.png,WildCard_Ex,-0.325925926,-0.007407407,1,0,0,0.8466,optionLeft,5,2465,1,43,0,43,0,1,,,,,,,,,,,,,,,,,,,,,,,,,,,,,,,,,,,,,,,
,,,,,,,,2023-08-16_08h39.16.705,HF_wild_card,2022.2.4,Win32,59.97361161,5c3d0637e0ea8200014601a4,64d2fd46c836a06233681665,64dc7d09eb1304cbf1f75c9d,,,,,,,,,,,,,,,,,,,,,,,,,,0,0,0,0,1,,,,,,,,,,,,,,,,,,,,,,,,,,,,,,,,,,
,,,,,,,,2023-08-16_08h39.16.705,HF_wild_card,2022.2.4,Win32,59.97361161,5c3d0637e0ea8200014601a4,64d2fd46c836a06233681665,64dc7d09eb1304cbf1f75c9d,,,,,,,sngl,resources/Empty.png,resources/DG.BMP,Door1,0.422222222,-0.073148148,1,0,0,1.5166,optionRight,30,2495,2,0,0,0,0,1,,,,,,,,,,,,,,,,,,,,,,,,,,,,,,,,,,,,,,,
,,,,,,,,2023-08-16_08h39.16.705,HF_wild_card,2022.2.4,Win32,59.97361161,5c3d0637e0ea8200014601a4,64d2fd46c836a06233681665,64dc7d09eb1304cbf1f75c9d,,,,,,,decisionTrl,resources/DB.BMP,resources/DY.BMP,WildCard_Ex,-0.376851852,-0.047222222,1,0,0,1.2298,optionLeft,95,2590,2,1,0,1,0,1,,,,,,,,,,,,,,,,,,,,,,,,,,,,,,,,,,,,,,,
,,,,,,,,2023-08-16_08h39.16.705,HF_wild_card,2022.2.4,Win32,59.97361161,5c3d0637e0ea8200014601a4,64d2fd46c836a06233681665,64dc7d09eb1304cbf1f75c9d,,,,,,,decisionTrl,resources/DG.BMP,resources/DY.BMP,Door1,-0.361111111,-0.015740741,1,0,0,1.1168,optionLeft,30,2620,2,2,0,2,0,1,,,,,,,,,,,,,,,,,,,,,,,,,,,,,,,,,,,,,,,
,,,,,,,,2023-08-16_08h39.16.705,HF_wild_card,2022.2.4,Win32,59.97361161,5c3d0637e0ea8200014601a4,64d2fd46c836a06233681665,64dc7d09eb1304cbf1f75c9d,,,,,,,decisionTrl,resources/DB.BMP,resources/DP.BMP,Door4,0.366666667,-0.04537037,1,0,0,1.2323,optionRight,80,2700,2,3,0,3,0,1,,,,,,,,,,,,,,,,,,,,,,,,,,,,,,,,,,,,,,,
,,,,,,,,2023-08-16_08h39.16.705,HF_wild_card,2022.2.4,Win32,59.97361161,5c3d0637e0ea8200014601a4,64d2fd46c836a06233681665,64dc7d09eb1304cbf1f75c9d,,,,,,,decisionTrl,resources/DB.BMP,resources/DG.BMP,WildCard_Ex,-0.316666667,-0.039814815,1,0,0,1.2834,optionLeft,95,2795,2,4,0,4,0,1,,,,,,,,,,,,,,,,,,,,,,,,,,,,,,,,,,,,,,,
,,,,,,,,2023-08-16_08h39.16.705,HF_wild_card,2022.2.4,Win32,59.97361161,5c3d0637e0ea8200014601a4,64d2fd46c836a06233681665,64dc7d09eb1304cbf1f75c9d,,,,,,,decisionTrl,resources/DG.BMP,resources/DY.BMP,Door1,-0.391666667,-0.041666667,1,0,0,1.2334,optionLeft,30,2825,2,5,0,5,0,1,,,,,,,,,,,,,,,,,,,,,,,,,,,,,,,,,,,,,,,
,,,,,,,,2023-08-16_08h39.16.705,HF_wild_card,2022.2.4,Win32,59.97361161,5c3d0637e0ea8200014601a4,64d2fd46c836a06233681665,64dc7d09eb1304cbf1f75c9d,,,,,,,sngl,resources/DB.BMP,resources/Empty.png,WildCard_Ex,-0.260185185,-0.026851852,1,0,0,0.542,optionLeft,5,2830,2,6,0,6,0,1,,,,,,,,,,,,,,,,,,,,,,,,,,,,,,,,,,,,,,,
,,,,,,,,2023-08-16_08h39.16.705,HF_wild_card,2022.2.4,Win32,59.97361161,5c3d0637e0ea8200014601a4,64d2fd46c836a06233681665,64dc7d09eb1304cbf1f75c9d,,,,,,,ctch,resources/DY.BMP,resources/DR.BMP,Door3,0.373148148,0.000925926,1,0,0,2.5152,optionRight,70,2900,2,7,0,7,0,1,,,,,,,,,,,,,,,,,,,,,,,,,,,,,,,,,,,,,,,
,,,,,,,,2023-08-16_08h39.16.705,HF_wild_card,2022.2.4,Win32,59.97361161,5c3d0637e0ea8200014601a4,64d2fd46c836a06233681665,64dc7d09eb1304cbf1f75c9d,,,,,,,ctch,resources/DP.BMP,resources/DG.BMP,Door4,-0.303703704,-0.05462963,1,0,0,0.6835,optionLeft,80,2980,2,8,0,8,0,1,,,,,,,,,,,,,,,,,,,,,,,,,,,,,,,,,,,,,,,
,,,,,,,,2023-08-16_08h39.16.705,HF_wild_card,2022.2.4,Win32,59.97361161,5c3d0637e0ea8200014601a4,64d2fd46c836a06233681665,64dc7d09eb1304cbf1f75c9d,,,,,,,decisionTrl,resources/DP.BMP,resources/DB.BMP,WildCard_Ex,0.385185185,-0.023148148,1,0,0,1.5805,optionRight,5,2985,2,9,0,9,0,1,,,,,,,,,,,,,,,,,,,,,,,,,,,,,,,,,,,,,,,
,,,,,,,,2023-08-16_08h39.16.705,HF_wild_card,2022.2.4,Win32,59.97361161,5c3d0637e0ea8200014601a4,64d2fd46c836a06233681665,64dc7d09eb1304cbf1f75c9d,,,,,,,sngl,resources/DG.BMP,resources/Empty.png,Door1,-0.313888889,-0.038888889,1,0,0,0.8165,optionLeft,30,3015,2,10,0,10,0,1,,,,,,,,,,,,,,,,,,,,,,,,,,,,,,,,,,,,,,,
,,,,,,,,2023-08-16_08h39.16.705,HF_wild_card,2022.2.4,Win32,59.97361161,5c3d0637e0ea8200014601a4,64d2fd46c836a06233681665,64dc7d09eb1304cbf1f75c9d,,,,,,,decisionTrl,resources/DR.BMP,resources/DP.BMP,Door4,0.312962963,-0.013888889,1,0,0,0.8829,optionRight,80,3095,2,11,0,11,0,1,,,,,,,,,,,,,,,,,,,,,,,,,,,,,,,,,,,,,,,
,,,,,,,,2023-08-16_08h39.16.705,HF_wild_card,2022.2.4,Win32,59.97361161,5c3d0637e0ea8200014601a4,64d2fd46c836a06233681665,64dc7d09eb1304cbf1f75c9d,,,,,,,ctch,resources/DP.BMP,resources/DG.BMP,Door4,-0.253703704,-0.048148148,1,0,0,0.7127,optionLeft,60,3155,2,12,0,12,0,1,,,,,,,,,,,,,,,,,,,,,,,,,,,,,,,,,,,,,,,
,,,,,,,,2023-08-16_08h39.16.705,HF_wild_card,2022.2.4,Win32,59.97361161,5c3d0637e0ea8200014601a4,64d2fd46c836a06233681665,64dc7d09eb1304cbf1f75c9d,,,,,,,decisionTrl,resources/DR.BMP,resources/DP.BMP,Door3,-0.409259259,-0.048148148,1,0,0,1.6137,optionLeft,70,3225,2,13,0,13,0,1,,,,,,,,,,,,,,,,,,,,,,,,,,,,,,,,,,,,,,,
,,,,,,,,2023-08-16_08h39.16.705,HF_wild_card,2022.2.4,Win32,59.97361161,5c3d0637e0ea8200014601a4,64d2fd46c836a06233681665,64dc7d09eb1304cbf1f75c9d,,,,,,,decisionTrl,resources/DR.BMP,resources/DB.BMP,WildCard_Ex,0.412962963,-0.032407407,1,0,0,1.6673,optionRight,5,3230,2,14,0,14,0,1,,,,,,,,,,,,,,,,,,,,,,,,,,,,,,,,,,,,,,,
,,,,,,,,2023-08-16_08h39.16.705,HF_wild_card,2022.2.4,Win32,59.97361161,5c3d0637e0ea8200014601a4,64d2fd46c836a06233681665,64dc7d09eb1304cbf1f75c9d,,,,,,,ctch,resources/DR.BMP,resources/DY.BMP,Door3,-0.343518519,-0.049074074,1,0,0,1.0295,optionLeft,70,3300,2,15,0,15,0,1,,,,,,,,,,,,,,,,,,,,,,,,,,,,,,,,,,,,,,,
,,,,,,,,2023-08-16_08h39.16.705,HF_wild_card,2022.2.4,Win32,59.97361161,5c3d0637e0ea8200014601a4,64d2fd46c836a06233681665,64dc7d09eb1304cbf1f75c9d,,,,,,,decisionTrl,resources/DR.BMP,resources/DP.BMP,Door4,0.339814815,-0.024074074,1,0,0,1.1161,optionRight,80,3380,2,16,0,16,0,1,,,,,,,,,,,,,,,,,,,,,,,,,,,,,,,,,,,,,,,
,,,,,,,,2023-08-16_08h39.16.705,HF_wild_card,2022.2.4,Win32,59.97361161,5c3d0637e0ea8200014601a4,64d2fd46c836a06233681665,64dc7d09eb1304cbf1f75c9d,,,,,,,decisionTrl,resources/DB.BMP,resources/DR.BMP,WildCard_Ex,-0.32037037,-0.05462963,1,0,0,2.3311,optionLeft,95,3475,2,17,0,17,0,1,,,,,,,,,,,,,,,,,,,,,,,,,,,,,,,,,,,,,,,
,,,,,,,,2023-08-16_08h39.16.705,HF_wild_card,2022.2.4,Win32,59.97361161,5c3d0637e0ea8200014601a4,64d2fd46c836a06233681665,64dc7d09eb1304cbf1f75c9d,,,,,,,decisionTrl,resources/DG.BMP,resources/DY.BMP,Door1,-0.29537037,-0.056481481,1,0,0,3.4025,optionLeft,30,3505,2,18,0,18,0,1,,,,,,,,,,,,,,,,,,,,,,,,,,,,,,,,,,,,,,,
,,,,,,,,2023-08-16_08h39.16.705,HF_wild_card,2022.2.4,Win32,59.97361161,5c3d0637e0ea8200014601a4,64d2fd46c836a06233681665,64dc7d09eb1304cbf1f75c9d,,,,,,,decisionTrl,resources/DY.BMP,resources/DG.BMP,Door1,0.446296296,-0.02962963,1,0,0,0.7673,optionRight,30,3535,2,19,0,19,0,1,,,,,,,,,,,,,,,,,,,,,,,,,,,,,,,,,,,,,,,
,,,,,,,,2023-08-16_08h39.16.705,HF_wild_card,2022.2.4,Win32,59.97361161,5c3d0637e0ea8200014601a4,64d2fd46c836a06233681665,64dc7d09eb1304cbf1f75c9d,,,,,,,ctch,resources/DG.BMP,resources/DP.BMP,Door4,0.412037037,-0.005555556,1,0,0,0.7793,optionRight,60,3595,2,20,0,20,0,1,,,,,,,,,,,,,,,,,,,,,,,,,,,,,,,,,,,,,,,
,,,,,,,,2023-08-16_08h39.16.705,HF_wild_card,2022.2.4,Win32,59.97361161,5c3d0637e0ea8200014601a4,64d2fd46c836a06233681665,64dc7d09eb1304cbf1f75c9d,,,,,,,decisionTrl,resources/DR.BMP,resources/DP.BMP,Door4,0.397222222,0.012037037,1,0,0,0.6331,optionRight,60,3655,2,21,0,21,0,1,,,,,,,,,,,,,,,,,,,,,,,,,,,,,,,,,,,,,,,
,,,,,,,,2023-08-16_08h39.16.705,HF_wild_card,2022.2.4,Win32,59.97361161,5c3d0637e0ea8200014601a4,64d2fd46c836a06233681665,64dc7d09eb1304cbf1f75c9d,,,,,,,decisionTrl,resources/DY.BMP,resources/DB.BMP,WildCard_Ex,0.494444444,0,1,0,0,1.5515,optionRight,5,3660,2,22,0,22,0,1,,,,,,,,,,,,,,,,,,,,,,,,,,,,,,,,,,,,,,,
,,,,,,,,2023-08-16_08h39.16.705,HF_wild_card,2022.2.4,Win32,59.97361161,5c3d0637e0ea8200014601a4,64d2fd46c836a06233681665,64dc7d09eb1304cbf1f75c9d,,,,,,,sngl,resources/Empty.png,resources/DP.BMP,Door4,0.316666667,-0.007407407,1,0,0,0.6635,optionRight,80,3740,2,23,0,23,0,1,,,,,,,,,,,,,,,,,,,,,,,,,,,,,,,,,,,,,,,
,,,,,,,,2023-08-16_08h39.16.705,HF_wild_card,2022.2.4,Win32,59.97361161,5c3d0637e0ea8200014601a4,64d2fd46c836a06233681665,64dc7d09eb1304cbf1f75c9d,,,,,,,decisionTrl,resources/DY.BMP,resources/DG.BMP,Door1,0.328703704,-0.009259259,1,0,0,3.6859,optionRight,30,3770,2,24,0,24,0,1,,,,,,,,,,,,,,,,,,,,,,,,,,,,,,,,,,,,,,,
,,,,,,,,2023-08-16_08h39.16.705,HF_wild_card,2022.2.4,Win32,59.97361161,5c3d0637e0ea8200014601a4,64d2fd46c836a06233681665,64dc7d09eb1304cbf1f75c9d,,,,,,,decisionTrl,resources/DP.BMP,resources/DR.BMP,Door4,-0.341666667,-0.025,1,0,0,0.6968,optionLeft,60,3830,2,25,0,25,0,1,,,,,,,,,,,,,,,,,,,,,,,,,,,,,,,,,,,,,,,
,,,,,,,,2023-08-16_08h39.16.705,HF_wild_card,2022.2.4,Win32,59.97361161,5c3d0637e0ea8200014601a4,64d2fd46c836a06233681665,64dc7d09eb1304cbf1f75c9d,,,,,,,ctch,resources/DG.BMP,resources/DP.BMP,Door4,0.284259259,-0.013888889,1,0,0,0.8003,optionRight,80,3910,2,26,0,26,0,1,,,,,,,,,,,,,,,,,,,,,,,,,,,,,,,,,,,,,,,
,,,,,,,,2023-08-16_08h39.16.705,HF_wild_card,2022.2.4,Win32,59.97361161,5c3d0637e0ea8200014601a4,64d2fd46c836a06233681665,64dc7d09eb1304cbf1f75c9d,,,,,,,sngl,resources/Empty.png,resources/DR.BMP,Door3,0.215740741,-0.014814815,1,0,0,0.6336,optionRight,70,3980,2,27,0,27,0,1,,,,,,,,,,,,,,,,,,,,,,,,,,,,,,,,,,,,,,,
,,,,,,,,2023-08-16_08h39.16.705,HF_wild_card,2022.2.4,Win32,59.97361161,5c3d0637e0ea8200014601a4,64d2fd46c836a06233681665,64dc7d09eb1304cbf1f75c9d,,,,,,,sngl,resources/Empty.png,resources/DB.BMP,WildCard_Ex,0.408333333,0.065740741,1,0,0,0.6782,optionRight,5,3985,2,28,0,28,0,1,,,,,,,,,,,,,,,,,,,,,,,,,,,,,,,,,,,,,,,
,,,,,,,,2023-08-16_08h39.16.705,HF_wild_card,2022.2.4,Win32,59.97361161,5c3d0637e0ea8200014601a4,64d2fd46c836a06233681665,64dc7d09eb1304cbf1f75c9d,,,,,,,decisionTrl,resources/DP.BMP,resources/DR.BMP,Door4,-0.3,0.001851852,1,0,0,0.6139,optionLeft,80,4065,2,29,0,29,0,1,,,,,,,,,,,,,,,,,,,,,,,,,,,,,,,,,,,,,,,
,,,,,,,,2023-08-16_08h39.16.705,HF_wild_card,2022.2.4,Win32,59.97361161,5c3d0637e0ea8200014601a4,64d2fd46c836a06233681665,64dc7d09eb1304cbf1f75c9d,,,,,,,decisionTrl,resources/DY.BMP,resources/DG.BMP,Door1,0.503703704,-0.017592593,1,0,0,2.6981,optionRight,30,4095,2,30,0,30,0,1,,,,,,,,,,,,,,,,,,,,,,,,,,,,,,,,,,,,,,,
,,,,,,,,2023-08-16_08h39.16.705,HF_wild_card,2022.2.4,Win32,59.97361161,5c3d0637e0ea8200014601a4,64d2fd46c836a06233681665,64dc7d09eb1304cbf1f75c9d,,,,,,,sngl,resources/DR.BMP,resources/Empty.png,Door3,-0.280555556,-0.046296296,1,0,0,0.6163,optionLeft,70,4165,2,31,0,31,0,1,,,,,,,,,,,,,,,,,,,,,,,,,,,,,,,,,,,,,,,
,,,,,,,,2023-08-16_08h39.16.705,HF_wild_card,2022.2.4,Win32,59.97361161,5c3d0637e0ea8200014601a4,64d2fd46c836a06233681665,64dc7d09eb1304cbf1f75c9d,,,,,,,ctch,resources/DR.BMP,resources/DY.BMP,Door3,-0.346296296,-0.056481481,1,0,0,0.6829,optionLeft,70,4235,2,32,0,32,0,1,,,,,,,,,,,,,,,,,,,,,,,,,,,,,,,,,,,,,,,
,,,,,,,,2023-08-16_08h39.16.705,HF_wild_card,2022.2.4,Win32,59.97361161,5c3d0637e0ea8200014601a4,64d2fd46c836a06233681665,64dc7d09eb1304cbf1f75c9d,,,,,,,sngl,resources/Empty.png,resources/DB.BMP,WildCard_Ex,0.35,-0.002777778,1,0,0,0.5122,optionRight,95,4330,2,33,0,33,0,1,,,,,,,,,,,,,,,,,,,,,,,,,,,,,,,,,,,,,,,
,,,,,,,,2023-08-16_08h39.16.705,HF_wild_card,2022.2.4,Win32,59.97361161,5c3d0637e0ea8200014601a4,64d2fd46c836a06233681665,64dc7d09eb1304cbf1f75c9d,,,,,,,decisionTrl,resources/DP.BMP,resources/DR.BMP,Door4,-0.339814815,-0.016666667,1,0,0,1.9177,optionLeft,60,4390,2,34,0,34,0,1,,,,,,,,,,,,,,,,,,,,,,,,,,,,,,,,,,,,,,,
,,,,,,,,2023-08-16_08h39.16.705,HF_wild_card,2022.2.4,Win32,59.97361161,5c3d0637e0ea8200014601a4,64d2fd46c836a06233681665,64dc7d09eb1304cbf1f75c9d,,,,,,,sngl,resources/Empty.png,resources/DY.BMP,Door2,0.377777778,-0.00462963,1,0,0,0.8835,optionRight,40,4430,2,35,0,35,0,1,,,,,,,,,,,,,,,,,,,,,,,,,,,,,,,,,,,,,,,
,,,,,,,,2023-08-16_08h39.16.705,HF_wild_card,2022.2.4,Win32,59.97361161,5c3d0637e0ea8200014601a4,64d2fd46c836a06233681665,64dc7d09eb1304cbf1f75c9d,,,,,,,decisionTrl,resources/DY.BMP,resources/DG.BMP,Door1,0.362037037,-0.043518519,1,0,0,1.267,optionRight,30,4460,2,36,0,36,0,1,,,,,,,,,,,,,,,,,,,,,,,,,,,,,,,,,,,,,,,
,,,,,,,,2023-08-16_08h39.16.705,HF_wild_card,2022.2.4,Win32,59.97361161,5c3d0637e0ea8200014601a4,64d2fd46c836a06233681665,64dc7d09eb1304cbf1f75c9d,,,,,,,decisionTrl,resources/DG.BMP,resources/DY.BMP,Door2,0.552777778,-0.056481481,1,0,0,1.3347,optionRight,40,4500,2,37,0,37,0,1,,,,,,,,,,,,,,,,,,,,,,,,,,,,,,,,,,,,,,,
,,,,,,,,2023-08-16_08h39.16.705,HF_wild_card,2022.2.4,Win32,59.97361161,5c3d0637e0ea8200014601a4,64d2fd46c836a06233681665,64dc7d09eb1304cbf1f75c9d,,,,,,,decisionTrl,resources/DG.BMP,resources/DB.BMP,WildCard_Ex,0.44537037,-0.052777778,1,0,0,1.9175,optionRight,5,4505,2,38,0,38,0,1,,,,,,,,,,,,,,,,,,,,,,,,,,,,,,,,,,,,,,,
,,,,,,,,2023-08-16_08h39.16.705,HF_wild_card,2022.2.4,Win32,59.97361161,5c3d0637e0ea8200014601a4,64d2fd46c836a06233681665,64dc7d09eb1304cbf1f75c9d,,,,,,,ctch,resources/DY.BMP,resources/DR.BMP,Door3,0.407407407,-0.049074074,1,0,0,0.8959,optionRight,70,4575,2,39,0,39,0,1,,,,,,,,,,,,,,,,,,,,,,,,,,,,,,,,,,,,,,,
,,,,,,,,2023-08-16_08h39.16.705,HF_wild_card,2022.2.4,Win32,59.97361161,5c3d0637e0ea8200014601a4,64d2fd46c836a06233681665,64dc7d09eb1304cbf1f75c9d,,,,,,,sngl,resources/DP.BMP,resources/Empty.png,Door4,-0.250925926,-0.037962963,1,0,0,0.516,optionLeft,60,4635,2,40,0,40,0,1,,,,,,,,,,,,,,,,,,,,,,,,,,,,,,,,,,,,,,,
,,,,,,,,2023-08-16_08h39.16.705,HF_wild_card,2022.2.4,Win32,59.97361161,5c3d0637e0ea8200014601a4,64d2fd46c836a06233681665,64dc7d09eb1304cbf1f75c9d,,,,,,,decisionTrl,resources/DP.BMP,resources/DR.BMP,Door4,-0.326851852,-0.033333333,1,0,0,0.5802,optionLeft,80,4715,2,41,0,41,0,1,,,,,,,,,,,,,,,,,,,,,,,,,,,,,,,,,,,,,,,
,,,,,,,,2023-08-16_08h39.16.705,HF_wild_card,2022.2.4,Win32,59.97361161,5c3d0637e0ea8200014601a4,64d2fd46c836a06233681665,64dc7d09eb1304cbf1f75c9d,,,,,,,sngl,resources/DY.BMP,resources/Empty.png,Door2,-0.35462963,-0.060185185,1,0,0,0.7339,optionLeft,20,4735,2,42,0,42,0,1,,,,,,,,,,,,,,,,,,,,,,,,,,,,,,,,,,,,,,,
,,,,,,,,2023-08-16_08h39.16.705,HF_wild_card,2022.2.4,Win32,59.97361161,5c3d0637e0ea8200014601a4,64d2fd46c836a06233681665,64dc7d09eb1304cbf1f75c9d,,,,,,,sngl,resources/DB.BMP,resources/Empty.png,WildCard_Ex,-0.261111111,-0.010185185,1,0,0,0.8294,optionLeft,95,4830,2,43,0,43,0,1,,,,,,,,,,,,,,,,,,,,,,,,,,,,,,,,,,,,,,,
,,,,,,,,2023-08-16_08h39.16.705,HF_wild_card,2022.2.4,Win32,59.97361161,5c3d0637e0ea8200014601a4,64d2fd46c836a06233681665,64dc7d09eb1304cbf1f75c9d,,,,,,,,,,,,,,,,,,,,,,,,,,1,0,1,0,1,,,,,,,,,,,,,,,,,,,,,,,,,,,,,,,,,,
,,,,,,,,2023-08-16_08h39.16.705,HF_wild_card,2022.2.4,Win32,59.97361161,5c3d0637e0ea8200014601a4,64d2fd46c836a06233681665,64dc7d09eb1304cbf1f75c9d,,,,,,,decisionTrl,resources/DG.BMP,resources/DY.BMP,Door1,-0.483333333,0.039814815,1,0,0,1.4467,optionLeft,30,4860,3,0,0,0,0,1,,,,,,,,,,,,,,,,,,,,,,,,,,,,,,,,,,,,,,,
,,,,,,,,2023-08-16_08h39.16.705,HF_wild_card,2022.2.4,Win32,59.97361161,5c3d0637e0ea8200014601a4,64d2fd46c836a06233681665,64dc7d09eb1304cbf1f75c9d,,,,,,,sngl,resources/Empty.png,resources/DB.BMP,WildCard_Ex,0.30462963,-0.125,1,0,0,0.6458,optionRight,5,4865,3,1,0,1,0,1,,,,,,,,,,,,,,,,,,,,,,,,,,,,,,,,,,,,,,,
,,,,,,,,2023-08-16_08h39.16.705,HF_wild_card,2022.2.4,Win32,59.97361161,5c3d0637e0ea8200014601a4,64d2fd46c836a06233681665,64dc7d09eb1304cbf1f75c9d,,,,,,,sngl,resources/Empty.png,resources/DY.BMP,Door2,0.389814815,-0.07037037,1,0,0,0.4942,optionRight,20,4885,3,2,0,2,0,1,,,,,,,,,,,,,,,,,,,,,,,,,,,,,,,,,,,,,,,
,,,,,,,,2023-08-16_08h39.16.705,HF_wild_card,2022.2.4,Win32,59.97361161,5c3d0637e0ea8200014601a4,64d2fd46c836a06233681665,64dc7d09eb1304cbf1f75c9d,,,,,,,sngl,resources/Empty.png,resources/DR.BMP,Door3,0.546296296,-0.075,1,0,0,0.4778,optionRight,70,4955,3,3,0,3,0,1,,,,,,,,,,,,,,,,,,,,,,,,,,,,,,,,,,,,,,,
,,,,,,,,2023-08-16_08h39.16.705,HF_wild_card,2022.2.4,Win32,59.97361161,5c3d0637e0ea8200014601a4,64d2fd46c836a06233681665,64dc7d09eb1304cbf1f75c9d,,,,,,,decisionTrl,resources/DR.BMP,resources/DP.BMP,Door4,0.397222222,-0.065740741,1,0,0,1.3619,optionRight,80,5035,3,4,0,4,0,1,,,,,,,,,,,,,,,,,,,,,,,,,,,,,,,,,,,,,,,
,,,,,,,,2023-08-16_08h39.16.705,HF_wild_card,2022.2.4,Win32,59.97361161,5c3d0637e0ea8200014601a4,64d2fd46c836a06233681665,64dc7d09eb1304cbf1f75c9d,,,,,,,ctch,resources/DR.BMP,resources/DY.BMP,Door3,-0.260185185,-0.033333333,1,0,0,0.6518,optionLeft,70,5105,3,5,0,5,0,1,,,,,,,,,,,,,,,,,,,,,,,,,,,,,,,,,,,,,,,
,,,,,,,,2023-08-16_08h39.16.705,HF_wild_card,2022.2.4,Win32,59.97361161,5c3d0637e0ea8200014601a4,64d2fd46c836a06233681665,64dc7d09eb1304cbf1f75c9d,,,,,,,sngl,resources/DG.BMP,resources/Empty.png,Door1,-0.303703704,-0.036111111,1,0,0,0.5663,optionLeft,30,5135,3,6,0,6,0,1,,,,,,,,,,,,,,,,,,,,,,,,,,,,,,,,,,,,,,,
,,,,,,,,2023-08-16_08h39.16.705,HF_wild_card,2022.2.4,Win32,59.97361161,5c3d0637e0ea8200014601a4,64d2fd46c836a06233681665,64dc7d09eb1304cbf1f75c9d,,,,,,,sngl,resources/DR.BMP,resources/Empty.png,Door3,-0.383333333,-0.039814815,1,0,0,0.5165,optionLeft,70,5205,3,7,0,7,0,1,,,,,,,,,,,,,,,,,,,,,,,,,,,,,,,,,,,,,,,
,,,,,,,,2023-08-16_08h39.16.705,HF_wild_card,2022.2.4,Win32,59.97361161,5c3d0637e0ea8200014601a4,64d2fd46c836a06233681665,64dc7d09eb1304cbf1f75c9d,,,,,,,decisionTrl,resources/DB.BMP,resources/DY.BMP,WildCard_Ex,-0.373148148,-0.026851852,1,0,0,2.9633,optionLeft,95,5300,3,8,0,8,0,1,,,,,,,,,,,,,,,,,,,,,,,,,,,,,,,,,,,,,,,
,,,,,,,,2023-08-16_08h39.16.705,HF_wild_card,2022.2.4,Win32,59.97361161,5c3d0637e0ea8200014601a4,64d2fd46c836a06233681665,64dc7d09eb1304cbf1f75c9d,,,,,,,decisionTrl,resources/DP.BMP,resources/DR.BMP,Door4,-0.280555556,0.001851852,1,0,0,0.9172,optionLeft,60,5360,3,9,0,9,0,1,,,,,,,,,,,,,,,,,,,,,,,,,,,,,,,,,,,,,,,
,,,,,,,,2023-08-16_08h39.16.705,HF_wild_card,2022.2.4,Win32,59.97361161,5c3d0637e0ea8200014601a4,64d2fd46c836a06233681665,64dc7d09eb1304cbf1f75c9d,,,,,,,decisionTrl,resources/DG.BMP,resources/DY.BMP,Door1,-0.373148148,-0.00462963,1,0,0,3.0823,optionLeft,30,5390,3,10,0,10,0,1,,,,,,,,,,,,,,,,,,,,,,,,,,,,,,,,,,,,,,,
,,,,,,,,2023-08-16_08h39.16.705,HF_wild_card,2022.2.4,Win32,59.97361161,5c3d0637e0ea8200014601a4,64d2fd46c836a06233681665,64dc7d09eb1304cbf1f75c9d,,,,,,,decisionTrl,resources/DB.BMP,resources/DP.BMP,Door4,0.353703704,-0.030555556,1,0,0,0.5269,optionRight,60,5450,3,11,0,11,0,1,,,,,,,,,,,,,,,,,,,,,,,,,,,,,,,,,,,,,,,
,,,,,,,,2023-08-16_08h39.16.705,HF_wild_card,2022.2.4,Win32,59.97361161,5c3d0637e0ea8200014601a4,64d2fd46c836a06233681665,64dc7d09eb1304cbf1f75c9d,,,,,,,decisionTrl,resources/DP.BMP,resources/DR.BMP,Door4,-0.297222222,-0.016666667,1,0,0,0.5772,optionLeft,80,5530,3,12,0,12,0,1,,,,,,,,,,,,,,,,,,,,,,,,,,,,,,,,,,,,,,,
,,,,,,,,2023-08-16_08h39.16.705,HF_wild_card,2022.2.4,Win32,59.97361161,5c3d0637e0ea8200014601a4,64d2fd46c836a06233681665,64dc7d09eb1304cbf1f75c9d,,,,,,,decisionTrl,resources/DP.BMP,resources/DR.BMP,Door4,-0.412962963,-0.016666667,1,0,0,0.8202,optionLeft,60,5590,3,13,0,13,0,1,,,,,,,,,,,,,,,,,,,,,,,,,,,,,,,,,,,,,,,
,,,,,,,,2023-08-16_08h39.16.705,HF_wild_card,2022.2.4,Win32,59.97361161,5c3d0637e0ea8200014601a4,64d2fd46c836a06233681665,64dc7d09eb1304cbf1f75c9d,,,,,,,decisionTrl,resources/DB.BMP,resources/DR.BMP,WildCard_Ex,-0.339814815,-0.022222222,1,0,0,0.5336,optionLeft,5,5595,3,14,0,14,0,1,,,,,,,,,,,,,,,,,,,,,,,,,,,,,,,,,,,,,,,
,,,,,,,,2023-08-16_08h39.16.705,HF_wild_card,2022.2.4,Win32,59.97361161,5c3d0637e0ea8200014601a4,64d2fd46c836a06233681665,64dc7d09eb1304cbf1f75c9d,,,,,,,sngl,resources/Empty.png,resources/DG.BMP,Door1,0.319444444,-0.037962963,1,0,0,0.556,optionRight,30,5625,3,15,0,15,0,1,,,,,,,,,,,,,,,,,,,,,,,,,,,,,,,,,,,,,,,
,,,,,,,,2023-08-16_08h39.16.705,HF_wild_card,2022.2.4,Win32,59.97361161,5c3d0637e0ea8200014601a4,64d2fd46c836a06233681665,64dc7d09eb1304cbf1f75c9d,,,,,,,sngl,resources/Empty.png,resources/DB.BMP,WildCard_Ex,0.248148148,-0.014814815,1,0,0,0.4892,optionRight,95,5720,3,16,0,16,0,1,,,,,,,,,,,,,,,,,,,,,,,,,,,,,,,,,,,,,,,
,,,,,,,,2023-08-16_08h39.16.705,HF_wild_card,2022.2.4,Win32,59.97361161,5c3d0637e0ea8200014601a4,64d2fd46c836a06233681665,64dc7d09eb1304cbf1f75c9d,,,,,,,decisionTrl,resources/DY.BMP,resources/DG.BMP,Door1,0.364814815,-0.040740741,1,0,0,1.4444,optionRight,30,5750,3,17,0,17,0,1,,,,,,,,,,,,,,,,,,,,,,,,,,,,,,,,,,,,,,,
,,,,,,,,2023-08-16_08h39.16.705,HF_wild_card,2022.2.4,Win32,59.97361161,5c3d0637e0ea8200014601a4,64d2fd46c836a06233681665,64dc7d09eb1304cbf1f75c9d,,,,,,,decisionTrl,resources/DP.BMP,resources/DB.BMP,Door4,-0.323148148,-0.023148148,1,0,0,1.0162,optionLeft,60,5810,3,18,0,18,0,1,,,,,,,,,,,,,,,,,,,,,,,,,,,,,,,,,,,,,,,
,,,,,,,,2023-08-16_08h39.16.705,HF_wild_card,2022.2.4,Win32,59.97361161,5c3d0637e0ea8200014601a4,64d2fd46c836a06233681665,64dc7d09eb1304cbf1f75c9d,,,,,,,sngl,resources/DB.BMP,resources/Empty.png,WildCard_Ex,-0.290740741,-0.02962963,1,0,0,0.7504,optionLeft,5,5815,3,19,0,19,0,1,,,,,,,,,,,,,,,,,,,,,,,,,,,,,,,,,,,,,,,
,,,,,,,,2023-08-16_08h39.16.705,HF_wild_card,2022.2.4,Win32,59.97361161,5c3d0637e0ea8200014601a4,64d2fd46c836a06233681665,64dc7d09eb1304cbf1f75c9d,,,,,,,decisionTrl,resources/DG.BMP,resources/DY.BMP,Door1,-0.340740741,0.003703704,1,0,0,1.2956,optionLeft,30,5845,3,20,0,20,0,1,,,,,,,,,,,,,,,,,,,,,,,,,,,,,,,,,,,,,,,
,,,,,,,,2023-08-16_08h39.16.705,HF_wild_card,2022.2.4,Win32,59.97361161,5c3d0637e0ea8200014601a4,64d2fd46c836a06233681665,64dc7d09eb1304cbf1f75c9d,,,,,,,sngl,resources/DP.BMP,resources/Empty.png,Door4,-0.405555556,-0.005555556,1,0,0,0.6446,optionLeft,80,5925,3,21,0,21,0,1,,,,,,,,,,,,,,,,,,,,,,,,,,,,,,,,,,,,,,,
,,,,,,,,2023-08-16_08h39.16.705,HF_wild_card,2022.2.4,Win32,59.97361161,5c3d0637e0ea8200014601a4,64d2fd46c836a06233681665,64dc7d09eb1304cbf1f75c9d,,,,,,,ctch,resources/DP.BMP,resources/DG.BMP,Door4,-0.337037037,-0.027777778,1,0,0,0.6713,optionLeft,60,5985,3,22,0,22,0,1,,,,,,,,,,,,,,,,,,,,,,,,,,,,,,,,,,,,,,,
,,,,,,,,2023-08-16_08h39.16.705,HF_wild_card,2022.2.4,Win32,59.97361161,5c3d0637e0ea8200014601a4,64d2fd46c836a06233681665,64dc7d09eb1304cbf1f75c9d,,,,,,,decisionTrl,resources/DY.BMP,resources/DG.BMP,Door1,0.317592593,-0.031481481,1,0,0,0.7788,optionRight,30,6015,3,23,0,23,0,1,,,,,,,,,,,,,,,,,,,,,,,,,,,,,,,,,,,,,,,
,,,,,,,,2023-08-16_08h39.16.705,HF_wild_card,2022.2.4,Win32,59.97361161,5c3d0637e0ea8200014601a4,64d2fd46c836a06233681665,64dc7d09eb1304cbf1f75c9d,,,,,,,decisionTrl,resources/DR.BMP,resources/DB.BMP,WildCard_Ex,0.237962963,-0.036111111,1,0,0,0.5455,optionRight,95,6110,3,24,0,24,0,1,,,,,,,,,,,,,,,,,,,,,,,,,,,,,,,,,,,,,,,
,,,,,,,,2023-08-16_08h39.16.705,HF_wild_card,2022.2.4,Win32,59.97361161,5c3d0637e0ea8200014601a4,64d2fd46c836a06233681665,64dc7d09eb1304cbf1f75c9d,,,,,,,decisionTrl,resources/DR.BMP,resources/DP.BMP,Door4,0.327777778,-0.047222222,1,0,0,0.829,optionRight,80,6190,3,25,0,25,0,1,,,,,,,,,,,,,,,,,,,,,,,,,,,,,,,,,,,,,,,
,,,,,,,,2023-08-16_08h39.16.705,HF_wild_card,2022.2.4,Win32,59.97361161,5c3d0637e0ea8200014601a4,64d2fd46c836a06233681665,64dc7d09eb1304cbf1f75c9d,,,,,,,ctch,resources/DY.BMP,resources/DR.BMP,Door3,0.328703704,-0.048148148,1,0,0,1.695,optionRight,70,6260,3,26,0,26,0,1,,,,,,,,,,,,,,,,,,,,,,,,,,,,,,,,,,,,,,,
,,,,,,,,2023-08-16_08h39.16.705,HF_wild_card,2022.2.4,Win32,59.97361161,5c3d0637e0ea8200014601a4,64d2fd46c836a06233681665,64dc7d09eb1304cbf1f75c9d,,,,,,,decisionTrl,resources/DG.BMP,resources/DY.BMP,Door1,-0.359259259,0.002777778,1,0,0,1.0942,optionLeft,30,6290,3,27,0,27,0,1,,,,,,,,,,,,,,,,,,,,,,,,,,,,,,,,,,,,,,,
,,,,,,,,2023-08-16_08h39.16.705,HF_wild_card,2022.2.4,Win32,59.97361161,5c3d0637e0ea8200014601a4,64d2fd46c836a06233681665,64dc7d09eb1304cbf1f75c9d,,,,,,,decisionTrl,resources/DY.BMP,resources/DG.BMP,Door2,-0.344444444,0.000925926,1,0,0,0.7966,optionLeft,20,6310,3,28,0,28,0,1,,,,,,,,,,,,,,,,,,,,,,,,,,,,,,,,,,,,,,,
,,,,,,,,2023-08-16_08h39.16.705,HF_wild_card,2022.2.4,Win32,59.97361161,5c3d0637e0ea8200014601a4,64d2fd46c836a06233681665,64dc7d09eb1304cbf1f75c9d,,,,,,,sngl,resources/DB.BMP,resources/Empty.png,WildCard_Ex,-0.383333333,0.025,1,0,0,0.4829,optionLeft,95,6405,3,29,0,29,0,1,,,,,,,,,,,,,,,,,,,,,,,,,,,,,,,,,,,,,,,
,,,,,,,,2023-08-16_08h39.16.705,HF_wild_card,2022.2.4,Win32,59.97361161,5c3d0637e0ea8200014601a4,64d2fd46c836a06233681665,64dc7d09eb1304cbf1f75c9d,,,,,,,sngl,resources/Empty.png,resources/DP.BMP,Door4,0.430555556,-0.057407407,1,0,0,0.543,optionRight,60,6465,3,30,0,30,0,1,,,,,,,,,,,,,,,,,,,,,,,,,,,,,,,,,,,,,,,
,,,,,,,,2023-08-16_08h39.16.705,HF_wild_card,2022.2.4,Win32,59.97361161,5c3d0637e0ea8200014601a4,64d2fd46c836a06233681665,64dc7d09eb1304cbf1f75c9d,,,,,,,ctch,resources/DY.BMP,resources/DR.BMP,Door3,0.316666667,-0.024074074,1,0,0,1.212,optionRight,70,6535,3,31,0,31,0,1,,,,,,,,,,,,,,,,,,,,,,,,,,,,,,,,,,,,,,,
,,,,,,,,2023-08-16_08h39.16.705,HF_wild_card,2022.2.4,Win32,59.97361161,5c3d0637e0ea8200014601a4,64d2fd46c836a06233681665,64dc7d09eb1304cbf1f75c9d,,,,,,,ctch,resources/DR.BMP,resources/DY.BMP,Door3,-0.443518519,-0.012962963,1,0,0,0.596,optionLeft,70,6605,3,32,0,32,0,1,,,,,,,,,,,,,,,,,,,,,,,,,,,,,,,,,,,,,,,
,,,,,,,,2023-08-16_08h39.16.705,HF_wild_card,2022.2.4,Win32,59.97361161,5c3d0637e0ea8200014601a4,64d2fd46c836a06233681665,64dc7d09eb1304cbf1f75c9d,,,,,,,decisionTrl,resources/DY.BMP,resources/DG.BMP,Door1,0.323148148,-0.021296296,1,0,0,0.8785,optionRight,30,6635,3,33,0,33,0,1,,,,,,,,,,,,,,,,,,,,,,,,,,,,,,,,,,,,,,,
,,,,,,,,2023-08-16_08h39.16.705,HF_wild_card,2022.2.4,Win32,59.97361161,5c3d0637e0ea8200014601a4,64d2fd46c836a06233681665,64dc7d09eb1304cbf1f75c9d,,,,,,,ctch,resources/DG.BMP,resources/DP.BMP,Door4,0.444444444,-0.048148148,1,0,0,0.817,optionRight,80,6715,3,34,0,34,0,1,,,,,,,,,,,,,,,,,,,,,,,,,,,,,,,,,,,,,,,
,,,,,,,,2023-08-16_08h39.16.705,HF_wild_card,2022.2.4,Win32,59.97361161,5c3d0637e0ea8200014601a4,64d2fd46c836a06233681665,64dc7d09eb1304cbf1f75c9d,,,,,,,ctch,resources/DG.BMP,resources/DP.BMP,Door4,0.286111111,-0.012962963,1,0,0,0.4998,optionRight,80,6795,3,35,0,35,0,1,,,,,,,,,,,,,,,,,,,,,,,,,,,,,,,,,,,,,,,
,,,,,,,,2023-08-16_08h39.16.705,HF_wild_card,2022.2.4,Win32,59.97361161,5c3d0637e0ea8200014601a4,64d2fd46c836a06233681665,64dc7d09eb1304cbf1f75c9d,,,,,,,decisionTrl,resources/DB.BMP,resources/DG.BMP,WildCard_Ex,-0.373148148,-0.030555556,1,0,0,0.6002,optionLeft,95,6890,3,36,0,36,0,1,,,,,,,,,,,,,,,,,,,,,,,,,,,,,,,,,,,,,,,
,,,,,,,,2023-08-16_08h39.16.705,HF_wild_card,2022.2.4,Win32,59.97361161,5c3d0637e0ea8200014601a4,64d2fd46c836a06233681665,64dc7d09eb1304cbf1f75c9d,,,,,,,decisionTrl,resources/DR.BMP,resources/DP.BMP,Door4,0.3,-0.037962963,1,0,0,0.4945,optionRight,60,6950,3,37,0,37,0,1,,,,,,,,,,,,,,,,,,,,,,,,,,,,,,,,,,,,,,,
,,,,,,,,2023-08-16_08h39.16.705,HF_wild_card,2022.2.4,Win32,59.97361161,5c3d0637e0ea8200014601a4,64d2fd46c836a06233681665,64dc7d09eb1304cbf1f75c9d,,,,,,,decisionTrl,resources/DR.BMP,resources/DP.BMP,Door4,0.32962963,-0.088888889,1,0,0,0.4827,optionRight,60,7010,3,38,0,38,0,1,,,,,,,,,,,,,,,,,,,,,,,,,,,,,,,,,,,,,,,
,,,,,,,,2023-08-16_08h39.16.705,HF_wild_card,2022.2.4,Win32,59.97361161,5c3d0637e0ea8200014601a4,64d2fd46c836a06233681665,64dc7d09eb1304cbf1f75c9d,,,,,,,decisionTrl,resources/DP.BMP,resources/DR.BMP,Door4,-0.357407407,-0.053703704,1,0,0,0.4658,optionLeft,80,7090,3,39,0,39,0,1,,,,,,,,,,,,,,,,,,,,,,,,,,,,,,,,,,,,,,,
,,,,,,,,2023-08-16_08h39.16.705,HF_wild_card,2022.2.4,Win32,59.97361161,5c3d0637e0ea8200014601a4,64d2fd46c836a06233681665,64dc7d09eb1304cbf1f75c9d,,,,,,,sngl,resources/DY.BMP,resources/Empty.png,Door2,-0.275,-0.063888889,1,0,0,0.4778,optionLeft,40,7130,3,40,0,40,0,1,,,,,,,,,,,,,,,,,,,,,,,,,,,,,,,,,,,,,,,
,,,,,,,,2023-08-16_08h39.16.705,HF_wild_card,2022.2.4,Win32,59.97361161,5c3d0637e0ea8200014601a4,64d2fd46c836a06233681665,64dc7d09eb1304cbf1f75c9d,,,,,,,decisionTrl,resources/DG.BMP,resources/DB.BMP,WildCard_Ex,0.390740741,-0.046296296,1,0,0,1.2576,optionRight,95,7225,3,41,0,41,0,1,,,,,,,,,,,,,,,,,,,,,,,,,,,,,,,,,,,,,,,
,,,,,,,,2023-08-16_08h39.16.705,HF_wild_card,2022.2.4,Win32,59.97361161,5c3d0637e0ea8200014601a4,64d2fd46c836a06233681665,64dc7d09eb1304cbf1f75c9d,,,,,,,decisionTrl,resources/DY.BMP,resources/DB.BMP,WildCard_Ex,0.305555556,-0.075925926,1,0,0,0.7661,optionRight,95,7320,3,42,0,42,0,1,,,,,,,,,,,,,,,,,,,,,,,,,,,,,,,,,,,,,,,
,,,,,,,,2023-08-16_08h39.16.705,HF_wild_card,2022.2.4,Win32,59.97361161,5c3d0637e0ea8200014601a4,64d2fd46c836a06233681665,64dc7d09eb1304cbf1f75c9d,,,,,,,ctch,resources/DP.BMP,resources/DG.BMP,Door4,-0.29537037,-0.051851852,1,0,0,0.5946,optionLeft,80,7400,3,43,0,43,0,1,,,,,,,,,,,,,,,,,,,,,,,,,,,,,,,,,,,,,,,
,,,,,,,,2023-08-16_08h39.16.705,HF_wild_card,2022.2.4,Win32,59.97361161,5c3d0637e0ea8200014601a4,64d2fd46c836a06233681665,64dc7d09eb1304cbf1f75c9d,,,,,,,,,,,,,,,,,,,,,,,,,,2,0,2,0,1,,,,,,,,,,,,,,,,,,,,,,,,,,,,,,,,,,
,,,,,,,,2023-08-16_08h39.16.705,HF_wild_card,2022.2.4,Win32,59.97361161,5c3d0637e0ea8200014601a4,64d2fd46c836a06233681665,64dc7d09eb1304cbf1f75c9d,,,,,,,decisionTrl,resources/DR.BMP,resources/DP.BMP,Door4,0.390740741,-0.161111111,1,0,0,0.8772,optionRight,60,7460,4,0,0,0,0,1,,,,,,,,,,,,,,,,,,,,,,,,,,,,,,,,,,,,,,,
,,,,,,,,2023-08-16_08h39.16.705,HF_wild_card,2022.2.4,Win32,59.97361161,5c3d0637e0ea8200014601a4,64d2fd46c836a06233681665,64dc7d09eb1304cbf1f75c9d,,,,,,,sngl,resources/DBN.BMP,resources/Empty.png,WildCard_NonEx,-0.347222222,-0.000925926,1,0,0,1.9788,optionLeft,45,7505,4,1,0,1,0,1,,,,,,,,,,,,,,,,,,,,,,,,,,,,,,,,,,,,,,,
,,,,,,,,2023-08-16_08h39.16.705,HF_wild_card,2022.2.4,Win32,59.97361161,5c3d0637e0ea8200014601a4,64d2fd46c836a06233681665,64dc7d09eb1304cbf1f75c9d,,,,,,,sngl,resources/DR.BMP,resources/Empty.png,Door3,-0.414814815,-0.016666667,1,0,0,0.5663,optionLeft,70,7575,4,2,0,2,0,1,,,,,,,,,,,,,,,,,,,,,,,,,,,,,,,,,,,,,,,
,,,,,,,,2023-08-16_08h39.16.705,HF_wild_card,2022.2.4,Win32,59.97361161,5c3d0637e0ea8200014601a4,64d2fd46c836a06233681665,64dc7d09eb1304cbf1f75c9d,,,,,,,ctch,resources/DP.BMP,resources/DG.BMP,Door4,-0.494444444,-0.093518519,1,0,0,0.7554,optionLeft,60,7635,4,3,0,3,0,1,,,,,,,,,,,,,,,,,,,,,,,,,,,,,,,,,,,,,,,
,,,,,,,,2023-08-16_08h39.16.705,HF_wild_card,2022.2.4,Win32,59.97361161,5c3d0637e0ea8200014601a4,64d2fd46c836a06233681665,64dc7d09eb1304cbf1f75c9d,,,,,,,ctch,resources/DP.BMP,resources/DG.BMP,Door4,-0.287037037,-0.07037037,1,0,0,0.6411,optionLeft,80,7715,4,4,0,4,0,1,,,,,,,,,,,,,,,,,,,,,,,,,,,,,,,,,,,,,,,
,,,,,,,,2023-08-16_08h39.16.705,HF_wild_card,2022.2.4,Win32,59.97361161,5c3d0637e0ea8200014601a4,64d2fd46c836a06233681665,64dc7d09eb1304cbf1f75c9d,,,,,,,decisionTrl,resources/DBN.BMP,resources/DG.BMP,WildCard_NonEx,-0.293518519,-0.066666667,1,0,0,0.7167,optionLeft,55,7770,4,5,0,5,0,1,,,,,,,,,,,,,,,,,,,,,,,,,,,,,,,,,,,,,,,
,,,,,,,,2023-08-16_08h39.16.705,HF_wild_card,2022.2.4,Win32,59.97361161,5c3d0637e0ea8200014601a4,64d2fd46c836a06233681665,64dc7d09eb1304cbf1f75c9d,,,,,,,decisionTrl,resources/DG.BMP,resources/DY.BMP,Door1,-0.333333333,-0.060185185,1,0,0,0.895,optionLeft,30,7800,4,6,0,6,0,1,,,,,,,,,,,,,,,,,,,,,,,,,,,,,,,,,,,,,,,
,,,,,,,,2023-08-16_08h39.16.705,HF_wild_card,2022.2.4,Win32,59.97361161,5c3d0637e0ea8200014601a4,64d2fd46c836a06233681665,64dc7d09eb1304cbf1f75c9d,,,,,,,decisionTrl,resources/DR.BMP,resources/DP.BMP,Door4,0.318518519,-0.034259259,1,0,0,0.5854,optionRight,60,7860,4,7,0,7,0,1,,,,,,,,,,,,,,,,,,,,,,,,,,,,,,,,,,,,,,,
,,,,,,,,2023-08-16_08h39.16.705,HF_wild_card,2022.2.4,Win32,59.97361161,5c3d0637e0ea8200014601a4,64d2fd46c836a06233681665,64dc7d09eb1304cbf1f75c9d,,,,,,,decisionTrl,resources/DR.BMP,resources/DP.BMP,Door4,0.260185185,-0.019444444,1,0,0,0.5306,optionRight,60,7920,4,8,0,8,0,1,,,,,,,,,,,,,,,,,,,,,,,,,,,,,,,,,,,,,,,
,,,,,,,,2023-08-16_08h39.16.705,HF_wild_card,2022.2.4,Win32,59.97361161,5c3d0637e0ea8200014601a4,64d2fd46c836a06233681665,64dc7d09eb1304cbf1f75c9d,,,,,,,sngl,resources/Empty.png,resources/DP.BMP,Door4,0.218518519,-0.013888889,1,0,0,0.5223,optionRight,80,8000,4,9,0,9,0,1,,,,,,,,,,,,,,,,,,,,,,,,,,,,,,,,,,,,,,,
,,,,,,,,2023-08-16_08h39.16.705,HF_wild_card,2022.2.4,Win32,59.97361161,5c3d0637e0ea8200014601a4,64d2fd46c836a06233681665,64dc7d09eb1304cbf1f75c9d,,,,,,,sngl,resources/Empty.png,resources/DR.BMP,Door3,0.342592593,-0.014814815,1,0,0,2.0844,optionRight,70,8070,4,10,0,10,0,1,,,,,,,,,,,,,,,,,,,,,,,,,,,,,,,,,,,,,,,
,,,,,,,,2023-08-16_08h39.16.705,HF_wild_card,2022.2.4,Win32,59.97361161,5c3d0637e0ea8200014601a4,64d2fd46c836a06233681665,64dc7d09eb1304cbf1f75c9d,,,,,,,decisionTrl,resources/DG.BMP,resources/DY.BMP,Door1,-0.269444444,-0.046296296,1,0,0,1.0836,optionLeft,30,8100,4,11,0,11,0,1,,,,,,,,,,,,,,,,,,,,,,,,,,,,,,,,,,,,,,,
,,,,,,,,2023-08-16_08h39.16.705,HF_wild_card,2022.2.4,Win32,59.97361161,5c3d0637e0ea8200014601a4,64d2fd46c836a06233681665,64dc7d09eb1304cbf1f75c9d,,,,,,,decisionTrl,resources/DY.BMP,resources/DG.BMP,Door1,0.331481481,-0.103703704,1,0,0,1.7227,optionRight,30,8130,4,12,0,12,0,1,,,,,,,,,,,,,,,,,,,,,,,,,,,,,,,,,,,,,,,
,,,,,,,,2023-08-16_08h39.16.705,HF_wild_card,2022.2.4,Win32,59.97361161,5c3d0637e0ea8200014601a4,64d2fd46c836a06233681665,64dc7d09eb1304cbf1f75c9d,,,,,,,ctch,resources/DY.BMP,resources/DR.BMP,Door3,0.373148148,-0.040740741,1,0,0,3.3858,optionRight,70,8200,4,13,0,13,0,1,,,,,,,,,,,,,,,,,,,,,,,,,,,,,,,,,,,,,,,
,,,,,,,,2023-08-16_08h39.16.705,HF_wild_card,2022.2.4,Win32,59.97361161,5c3d0637e0ea8200014601a4,64d2fd46c836a06233681665,64dc7d09eb1304cbf1f75c9d,,,,,,,ctch,resources/DR.BMP,resources/DY.BMP,Door3,-0.386111111,-0.015740741,1,0,0,0.6818,optionLeft,70,8270,4,14,0,14,0,1,,,,,,,,,,,,,,,,,,,,,,,,,,,,,,,,,,,,,,,
,,,,,,,,2023-08-16_08h39.16.705,HF_wild_card,2022.2.4,Win32,59.97361161,5c3d0637e0ea8200014601a4,64d2fd46c836a06233681665,64dc7d09eb1304cbf1f75c9d,,,,,,,ctch,resources/DR.BMP,resources/DY.BMP,Door3,-0.381481481,0.003703704,1,0,0,0.533,optionLeft,70,8340,4,15,0,15,0,1,,,,,,,,,,,,,,,,,,,,,,,,,,,,,,,,,,,,,,,
,,,,,,,,2023-08-16_08h39.16.705,HF_wild_card,2022.2.4,Win32,59.97361161,5c3d0637e0ea8200014601a4,64d2fd46c836a06233681665,64dc7d09eb1304cbf1f75c9d,,,,,,,decisionTrl,resources/DR.BMP,resources/DP.BMP,Door3,-0.430555556,-0.05462963,1,0,0,0.5951,optionLeft,70,8410,4,16,0,16,0,1,,,,,,,,,,,,,,,,,,,,,,,,,,,,,,,,,,,,,,,
,,,,,,,,2023-08-16_08h39.16.705,HF_wild_card,2022.2.4,Win32,59.97361161,5c3d0637e0ea8200014601a4,64d2fd46c836a06233681665,64dc7d09eb1304cbf1f75c9d,,,,,,,sngl,resources/Empty.png,resources/DBN.BMP,WildCard_NonEx,0.382407407,-0.003703704,1,0,0,0.9452,optionRight,55,8465,4,17,0,17,0,1,,,,,,,,,,,,,,,,,,,,,,,,,,,,,,,,,,,,,,,
,,,,,,,,2023-08-16_08h39.16.705,HF_wild_card,2022.2.4,Win32,59.97361161,5c3d0637e0ea8200014601a4,64d2fd46c836a06233681665,64dc7d09eb1304cbf1f75c9d,,,,,,,decisionTrl,resources/DR.BMP,resources/DBN.BMP,WildCard_NonEx,0.332407407,-0.038888889,1,0,0,0.9155,optionRight,45,8510,4,18,0,18,0,1,,,,,,,,,,,,,,,,,,,,,,,,,,,,,,,,,,,,,,,
,,,,,,,,2023-08-16_08h39.16.705,HF_wild_card,2022.2.4,Win32,59.97361161,5c3d0637e0ea8200014601a4,64d2fd46c836a06233681665,64dc7d09eb1304cbf1f75c9d,,,,,,,sngl,resources/Empty.png,resources/DBN.BMP,WildCard_NonEx,0.394444444,-0.05462963,1,0,0,0.5187,optionRight,45,8555,4,19,0,19,0,1,,,,,,,,,,,,,,,,,,,,,,,,,,,,,,,,,,,,,,,
,,,,,,,,2023-08-16_08h39.16.705,HF_wild_card,2022.2.4,Win32,59.97361161,5c3d0637e0ea8200014601a4,64d2fd46c836a06233681665,64dc7d09eb1304cbf1f75c9d,,,,,,,decisionTrl,resources/DG.BMP,resources/DBN.BMP,WildCard_NonEx,0.397222222,-0.064814815,1,0,0,0.5778,optionRight,55,8610,4,20,0,20,0,1,,,,,,,,,,,,,,,,,,,,,,,,,,,,,,,,,,,,,,,
,,,,,,,,2023-08-16_08h39.16.705,HF_wild_card,2022.2.4,Win32,59.97361161,5c3d0637e0ea8200014601a4,64d2fd46c836a06233681665,64dc7d09eb1304cbf1f75c9d,,,,,,,decisionTrl,resources/DP.BMP,resources/DBN.BMP,Door4,-0.387962963,-0.026851852,1,0,0,0.9054,optionLeft,60,8670,4,21,0,21,0,1,,,,,,,,,,,,,,,,,,,,,,,,,,,,,,,,,,,,,,,
,,,,,,,,2023-08-16_08h39.16.705,HF_wild_card,2022.2.4,Win32,59.97361161,5c3d0637e0ea8200014601a4,64d2fd46c836a06233681665,64dc7d09eb1304cbf1f75c9d,,,,,,,sngl,resources/Empty.png,resources/DG.BMP,Door1,0.328703704,-0.041666667,1,0,0,0.6405,optionRight,30,8700,4,22,0,22,0,1,,,,,,,,,,,,,,,,,,,,,,,,,,,,,,,,,,,,,,,
,,,,,,,,2023-08-16_08h39.16.705,HF_wild_card,2022.2.4,Win32,59.97361161,5c3d0637e0ea8200014601a4,64d2fd46c836a06233681665,64dc7d09eb1304cbf1f75c9d,,,,,,,sngl,resources/DG.BMP,resources/Empty.png,Door1,-0.307407407,-0.037962963,1,0,0,0.5233,optionLeft,30,8730,4,23,0,23,0,1,,,,,,,,,,,,,,,,,,,,,,,,,,,,,,,,,,,,,,,
,,,,,,,,2023-08-16_08h39.16.705,HF_wild_card,2022.2.4,Win32,59.97361161,5c3d0637e0ea8200014601a4,64d2fd46c836a06233681665,64dc7d09eb1304cbf1f75c9d,,,,,,,decisionTrl,resources/DY.BMP,resources/DG.BMP,Door1,0.406481481,-0.023148148,1,0,0,16.1348,optionRight,30,8760,4,24,0,24,0,1,,,,,,,,,,,,,,,,,,,,,,,,,,,,,,,,,,,,,,,
,,,,,,,,2023-08-16_08h39.16.705,HF_wild_card,2022.2.4,Win32,59.97361161,5c3d0637e0ea8200014601a4,64d2fd46c836a06233681665,64dc7d09eb1304cbf1f75c9d,,,,,,,decisionTrl,resources/DY.BMP,resources/DG.BMP,Door1,0.313888889,0.006481481,1,0,0,1.7818,optionRight,30,8790,4,25,0,25,0,1,,,,,,,,,,,,,,,,,,,,,,,,,,,,,,,,,,,,,,,
,,,,,,,,2023-08-16_08h39.16.705,HF_wild_card,2022.2.4,Win32,59.97361161,5c3d0637e0ea8200014601a4,64d2fd46c836a06233681665,64dc7d09eb1304cbf1f75c9d,,,,,,,sngl,resources/DP.BMP,resources/Empty.png,Door4,-0.30462963,-0.033333333,1,0,0,0.783,optionLeft,60,8850,4,26,0,26,0,1,,,,,,,,,,,,,,,,,,,,,,,,,,,,,,,,,,,,,,,
,,,,,,,,2023-08-16_08h39.16.705,HF_wild_card,2022.2.4,Win32,59.97361161,5c3d0637e0ea8200014601a4,64d2fd46c836a06233681665,64dc7d09eb1304cbf1f75c9d,,,,,,,ctch,resources/DY.BMP,resources/DR.BMP,Door3,0.423148148,-0.037037037,1,0,0,4.7381,optionRight,70,8920,4,27,0,27,0,1,,,,,,,,,,,,,,,,,,,,,,,,,,,,,,,,,,,,,,,
,,,,,,,,2023-08-16_08h39.16.705,HF_wild_card,2022.2.4,Win32,59.97361161,5c3d0637e0ea8200014601a4,64d2fd46c836a06233681665,64dc7d09eb1304cbf1f75c9d,,,,,,,decisionTrl,resources/DP.BMP,resources/DR.BMP,Door4,-0.426851852,-0.00462963,1,0,0,0.8541,optionLeft,80,9000,4,28,0,28,0,1,,,,,,,,,,,,,,,,,,,,,,,,,,,,,,,,,,,,,,,
,,,,,,,,2023-08-16_08h39.16.705,HF_wild_card,2022.2.4,Win32,59.97361161,5c3d0637e0ea8200014601a4,64d2fd46c836a06233681665,64dc7d09eb1304cbf1f75c9d,,,,,,,decisionTrl,resources/DBN.BMP,resources/DY.BMP,WildCard_NonEx,-0.437037037,-0.026851852,1,0,0,4.4161,optionLeft,45,9045,4,29,0,29,0,1,,,,,,,,,,,,,,,,,,,,,,,,,,,,,,,,,,,,,,,
,,,,,,,,2023-08-16_08h39.16.705,HF_wild_card,2022.2.4,Win32,59.97361161,5c3d0637e0ea8200014601a4,64d2fd46c836a06233681665,64dc7d09eb1304cbf1f75c9d,,,,,,,decisionTrl,resources/DP.BMP,resources/DR.BMP,Door4,-0.352777778,-0.032407407,1,0,0,0.6322,optionLeft,60,9105,4,30,0,30,0,1,,,,,,,,,,,,,,,,,,,,,,,,,,,,,,,,,,,,,,,
,,,,,,,,2023-08-16_08h39.16.705,HF_wild_card,2022.2.4,Win32,59.97361161,5c3d0637e0ea8200014601a4,64d2fd46c836a06233681665,64dc7d09eb1304cbf1f75c9d,,,,,,,decisionTrl,resources/DG.BMP,resources/DY.BMP,Door1,-0.309259259,-0.012962963,1,0,0,2.5911,optionLeft,30,9135,4,31,0,31,0,1,,,,,,,,,,,,,,,,,,,,,,,,,,,,,,,,,,,,,,,
,,,,,,,,2023-08-16_08h39.16.705,HF_wild_card,2022.2.4,Win32,59.97361161,5c3d0637e0ea8200014601a4,64d2fd46c836a06233681665,64dc7d09eb1304cbf1f75c9d,,,,,,,decisionTrl,resources/DG.BMP,resources/DY.BMP,Door1,-0.275925926,-0.024074074,1,0,0,1.3168,optionLeft,30,9165,4,32,0,32,0,1,,,,,,,,,,,,,,,,,,,,,,,,,,,,,,,,,,,,,,,
,,,,,,,,2023-08-16_08h39.16.705,HF_wild_card,2022.2.4,Win32,59.97361161,5c3d0637e0ea8200014601a4,64d2fd46c836a06233681665,64dc7d09eb1304cbf1f75c9d,,,,,,,ctch,resources/DG.BMP,resources/DP.BMP,Door4,0.359259259,-0.060185185,1,0,0,0.68,optionRight,60,9225,4,33,0,33,0,1,,,,,,,,,,,,,,,,,,,,,,,,,,,,,,,,,,,,,,,
,,,,,,,,2023-08-16_08h39.16.705,HF_wild_card,2022.2.4,Win32,59.97361161,5c3d0637e0ea8200014601a4,64d2fd46c836a06233681665,64dc7d09eb1304cbf1f75c9d,,,,,,,decisionTrl,resources/DP.BMP,resources/DR.BMP,Door4,-0.268518519,-0.019444444,1,0,0,0.5699,optionLeft,60,9285,4,34,0,34,0,1,,,,,,,,,,,,,,,,,,,,,,,,,,,,,,,,,,,,,,,
,,,,,,,,2023-08-16_08h39.16.705,HF_wild_card,2022.2.4,Win32,59.97361161,5c3d0637e0ea8200014601a4,64d2fd46c836a06233681665,64dc7d09eb1304cbf1f75c9d,,,,,,,decisionTrl,resources/DY.BMP,resources/DBN.BMP,WildCard_NonEx,0.285185185,-0.062962963,1,0,0,0.6206,optionRight,55,9340,4,35,0,35,0,1,,,,,,,,,,,,,,,,,,,,,,,,,,,,,,,,,,,,,,,
,,,,,,,,2023-08-16_08h39.16.705,HF_wild_card,2022.2.4,Win32,59.97361161,5c3d0637e0ea8200014601a4,64d2fd46c836a06233681665,64dc7d09eb1304cbf1f75c9d,,,,,,,sngl,resources/DBN.BMP,resources/Empty.png,WildCard_NonEx,-0.284259259,-0.065740741,1,0,0,0.463,optionLeft,55,9395,4,36,0,36,0,1,,,,,,,,,,,,,,,,,,,,,,,,,,,,,,,,,,,,,,,
,,,,,,,,2023-08-16_08h39.16.705,HF_wild_card,2022.2.4,Win32,59.97361161,5c3d0637e0ea8200014601a4,64d2fd46c836a06233681665,64dc7d09eb1304cbf1f75c9d,,,,,,,sngl,resources/Empty.png,resources/DY.BMP,Door2,0.316666667,-0.030555556,1,0,0,0.7301,optionRight,40,9435,4,37,0,37,0,1,,,,,,,,,,,,,,,,,,,,,,,,,,,,,,,,,,,,,,,
,,,,,,,,2023-08-16_08h39.16.705,HF_wild_card,2022.2.4,Win32,59.97361161,5c3d0637e0ea8200014601a4,64d2fd46c836a06233681665,64dc7d09eb1304cbf1f75c9d,,,,,,,decisionTrl,resources/DBN.BMP,resources/DR.BMP,WildCard_NonEx,-0.310185185,-0.024074074,1,0,0,0.5732,optionLeft,55,9490,4,38,0,38,0,1,,,,,,,,,,,,,,,,,,,,,,,,,,,,,,,,,,,,,,,
,,,,,,,,2023-08-16_08h39.16.705,HF_wild_card,2022.2.4,Win32,59.97361161,5c3d0637e0ea8200014601a4,64d2fd46c836a06233681665,64dc7d09eb1304cbf1f75c9d,,,,,,,decisionTrl,resources/DY.BMP,resources/DG.BMP,Door1,0.471296296,-0.074074074,1,0,0,1.5843,optionRight,30,9520,4,39,0,39,0,1,,,,,,,,,,,,,,,,,,,,,,,,,,,,,,,,,,,,,,,
,,,,,,,,2023-08-16_08h39.16.705,HF_wild_card,2022.2.4,Win32,59.97361161,5c3d0637e0ea8200014601a4,64d2fd46c836a06233681665,64dc7d09eb1304cbf1f75c9d,,,,,,,decisionTrl,resources/DBN.BMP,resources/DP.BMP,Door4,0.387037037,-0.077777778,1,0,0,0.9174,optionRight,80,9600,4,40,0,40,0,1,,,,,,,,,,,,,,,,,,,,,,,,,,,,,,,,,,,,,,,
,,,,,,,,2023-08-16_08h39.16.705,HF_wild_card,2022.2.4,Win32,59.97361161,5c3d0637e0ea8200014601a4,64d2fd46c836a06233681665,64dc7d09eb1304cbf1f75c9d,,,,,,,decisionTrl,resources/DP.BMP,resources/DR.BMP,Door3,0.386111111,-0.056481481,1,0,0,0.7112,optionRight,70,9670,4,41,0,41,0,1,,,,,,,,,,,,,,,,,,,,,,,,,,,,,,,,,,,,,,,
,,,,,,,,2023-08-16_08h39.16.705,HF_wild_card,2022.2.4,Win32,59.97361161,5c3d0637e0ea8200014601a4,64d2fd46c836a06233681665,64dc7d09eb1304cbf1f75c9d,,,,,,,ctch,resources/DG.BMP,resources/DP.BMP,Door4,0.384259259,-0.061111111,1,0,0,0.6738,optionRight,80,9750,4,42,0,42,0,1,,,,,,,,,,,,,,,,,,,,,,,,,,,,,,,,,,,,,,,
,,,,,,,,2023-08-16_08h39.16.705,HF_wild_card,2022.2.4,Win32,59.97361161,5c3d0637e0ea8200014601a4,64d2fd46c836a06233681665,64dc7d09eb1304cbf1f75c9d,,,,,,,sngl,resources/DY.BMP,resources/Empty.png,Door2,-0.273148148,-0.006481481,1,0,0,0.74,optionLeft,20,9770,4,43,0,43,0,1,,,,,,,,,,,,,,,,,,,,,,,,,,,,,,,,,,,,,,,
,,,,,,,,2023-08-16_08h39.16.705,HF_wild_card,2022.2.4,Win32,59.97361161,5c3d0637e0ea8200014601a4,64d2fd46c836a06233681665,64dc7d09eb1304cbf1f75c9d,,,,,,,,,,,,,,,,,,,,,,,,,,3,0,3,0,1,,,,,,,,,,,,,,,,,,,,,,,,,,,,,,,,,,
,,,,,,,,2023-08-16_08h39.16.705,HF_wild_card,2022.2.4,Win32,59.97361161,5c3d0637e0ea8200014601a4,64d2fd46c836a06233681665,64dc7d09eb1304cbf1f75c9d,,,,,,,decisionTrl,resources/DY.BMP,resources/DG.BMP,Door1,0.350925926,-0.058333333,1,0,0,1.1954,optionRight,30,9800,5,0,0,0,0,1,,,,,,,,,,,,,,,,,,,,,,,,,,,,,,,,,,,,,,,
,,,,,,,,2023-08-16_08h39.16.705,HF_wild_card,2022.2.4,Win32,59.97361161,5c3d0637e0ea8200014601a4,64d2fd46c836a06233681665,64dc7d09eb1304cbf1f75c9d,,,,,,,sngl,resources/Empty.png,resources/DR.BMP,Door3,0.275,-0.025,1,0,0,1.8461,optionRight,70,9870,5,1,0,1,0,1,,,,,,,,,,,,,,,,,,,,,,,,,,,,,,,,,,,,,,,
,,,,,,,,2023-08-16_08h39.16.705,HF_wild_card,2022.2.4,Win32,59.97361161,5c3d0637e0ea8200014601a4,64d2fd46c836a06233681665,64dc7d09eb1304cbf1f75c9d,,,,,,,decisionTrl,resources/DBN.BMP,resources/DP.BMP,Door4,0.425925926,-0.103703704,1,0,0,1.1487,optionRight,80,9950,5,2,0,2,0,1,,,,,,,,,,,,,,,,,,,,,,,,,,,,,,,,,,,,,,,
,,,,,,,,2023-08-16_08h39.16.705,HF_wild_card,2022.2.4,Win32,59.97361161,5c3d0637e0ea8200014601a4,64d2fd46c836a06233681665,64dc7d09eb1304cbf1f75c9d,,,,,,,sngl,resources/DBN.BMP,resources/Empty.png,WildCard_NonEx,-0.293518519,-0.037037037,1,0,0,0.6231,optionLeft,45,9995,5,3,0,3,0,1,,,,,,,,,,,,,,,,,,,,,,,,,,,,,,,,,,,,,,,
,,,,,,,,2023-08-16_08h39.16.705,HF_wild_card,2022.2.4,Win32,59.97361161,5c3d0637e0ea8200014601a4,64d2fd46c836a06233681665,64dc7d09eb1304cbf1f75c9d,,,,,,,sngl,resources/Empty.png,resources/DBN.BMP,WildCard_NonEx,0.364814815,-0.041666667,1,0,0,0.5396,optionRight,45,10040,5,4,0,4,0,1,,,,,,,,,,,,,,,,,,,,,,,,,,,,,,,,,,,,,,,
,,,,,,,,2023-08-16_08h39.16.705,HF_wild_card,2022.2.4,Win32,59.97361161,5c3d0637e0ea8200014601a4,64d2fd46c836a06233681665,64dc7d09eb1304cbf1f75c9d,,,,,,,decisionTrl,resources/DY.BMP,resources/DG.BMP,Door1,0.59537037,-0.082407407,1,0,0,1.0006,optionRight,30,10070,5,5,0,5,0,1,,,,,,,,,,,,,,,,,,,,,,,,,,,,,,,,,,,,,,,
,,,,,,,,2023-08-16_08h39.16.705,HF_wild_card,2022.2.4,Win32,59.97361161,5c3d0637e0ea8200014601a4,64d2fd46c836a06233681665,64dc7d09eb1304cbf1f75c9d,,,,,,,ctch,resources/DR.BMP,resources/DY.BMP,Door3,-0.42962963,0,1,0,0,0.8474,optionLeft,70,10140,5,6,0,6,0,1,,,,,,,,,,,,,,,,,,,,,,,,,,,,,,,,,,,,,,,
,,,,,,,,2023-08-16_08h39.16.705,HF_wild_card,2022.2.4,Win32,59.97361161,5c3d0637e0ea8200014601a4,64d2fd46c836a06233681665,64dc7d09eb1304cbf1f75c9d,,,,,,,sngl,resources/DY.BMP,resources/Empty.png,Door2,-0.260185185,-0.027777778,1,0,0,0.7184,optionLeft,40,10180,5,7,0,7,0,1,,,,,,,,,,,,,,,,,,,,,,,,,,,,,,,,,,,,,,,
,,,,,,,,2023-08-16_08h39.16.705,HF_wild_card,2022.2.4,Win32,59.97361161,5c3d0637e0ea8200014601a4,64d2fd46c836a06233681665,64dc7d09eb1304cbf1f75c9d,,,,,,,sngl,resources/DP.BMP,resources/Empty.png,Door4,-0.326851852,-0.023148148,1,0,0,0.5853,optionLeft,80,10260,5,8,0,8,0,1,,,,,,,,,,,,,,,,,,,,,,,,,,,,,,,,,,,,,,,
,,,,,,,,2023-08-16_08h39.16.705,HF_wild_card,2022.2.4,Win32,59.97361161,5c3d0637e0ea8200014601a4,64d2fd46c836a06233681665,64dc7d09eb1304cbf1f75c9d,,,,,,,sngl,resources/Empty.png,resources/DY.BMP,Door2,0.447222222,-0.055555556,1,0,0,0.8568,optionRight,20,10280,5,9,0,9,0,1,,,,,,,,,,,,,,,,,,,,,,,,,,,,,,,,,,,,,,,
,,,,,,,,2023-08-16_08h39.16.705,HF_wild_card,2022.2.4,Win32,59.97361161,5c3d0637e0ea8200014601a4,64d2fd46c836a06233681665,64dc7d09eb1304cbf1f75c9d,,,,,,,decisionTrl,resources/DP.BMP,resources/DR.BMP,Door4,-0.356481481,-0.00462963,1,0,0,1.3664,optionLeft,80,10360,5,10,0,10,0,1,,,,,,,,,,,,,,,,,,,,,,,,,,,,,,,,,,,,,,,
,,,,,,,,2023-08-16_08h39.16.705,HF_wild_card,2022.2.4,Win32,59.97361161,5c3d0637e0ea8200014601a4,64d2fd46c836a06233681665,64dc7d09eb1304cbf1f75c9d,,,,,,,decisionTrl,resources/DP.BMP,resources/DBN.BMP,Door4,-0.327777778,-0.060185185,1,0,0,1.1727,optionLeft,60,10420,5,11,0,11,0,1,,,,,,,,,,,,,,,,,,,,,,,,,,,,,,,,,,,,,,,
,,,,,,,,2023-08-16_08h39.16.705,HF_wild_card,2022.2.4,Win32,59.97361161,5c3d0637e0ea8200014601a4,64d2fd46c836a06233681665,64dc7d09eb1304cbf1f75c9d,,,,,,,sngl,resources/Empty.png,resources/DBN.BMP,WildCard_NonEx,0.434259259,-0.048148148,1,0,0,0.5634,optionRight,55,10475,5,12,0,12,0,1,,,,,,,,,,,,,,,,,,,,,,,,,,,,,,,,,,,,,,,
,,,,,,,,2023-08-16_08h39.16.705,HF_wild_card,2022.2.4,Win32,59.97361161,5c3d0637e0ea8200014601a4,64d2fd46c836a06233681665,64dc7d09eb1304cbf1f75c9d,,,,,,,decisionTrl,resources/DG.BMP,resources/DY.BMP,Door1,-0.301851852,-0.026851852,1,0,0,1.0488,optionLeft,30,10505,5,13,0,13,0,1,,,,,,,,,,,,,,,,,,,,,,,,,,,,,,,,,,,,,,,
,,,,,,,,2023-08-16_08h39.16.705,HF_wild_card,2022.2.4,Win32,59.97361161,5c3d0637e0ea8200014601a4,64d2fd46c836a06233681665,64dc7d09eb1304cbf1f75c9d,,,,,,,decisionTrl,resources/DR.BMP,resources/DP.BMP,Door4,0.32962963,-0.022222222,1,0,0,1.2673,optionRight,60,10565,5,14,0,14,0,1,,,,,,,,,,,,,,,,,,,,,,,,,,,,,,,,,,,,,,,
,,,,,,,,2023-08-16_08h39.16.705,HF_wild_card,2022.2.4,Win32,59.97361161,5c3d0637e0ea8200014601a4,64d2fd46c836a06233681665,64dc7d09eb1304cbf1f75c9d,,,,,,,decisionTrl,resources/DY.BMP,resources/DG.BMP,Door1,0.30462963,-0.060185185,1,0,0,2.0327,optionRight,30,10595,5,15,0,15,0,1,,,,,,,,,,,,,,,,,,,,,,,,,,,,,,,,,,,,,,,
,,,,,,,,2023-08-16_08h39.16.705,HF_wild_card,2022.2.4,Win32,59.97361161,5c3d0637e0ea8200014601a4,64d2fd46c836a06233681665,64dc7d09eb1304cbf1f75c9d,,,,,,,ctch,resources/DG.BMP,resources/DP.BMP,Door4,0.325,-0.086111111,1,0,0,0.8837,optionRight,60,10655,5,16,0,16,0,1,,,,,,,,,,,,,,,,,,,,,,,,,,,,,,,,,,,,,,,
,,,,,,,,2023-08-16_08h39.16.705,HF_wild_card,2022.2.4,Win32,59.97361161,5c3d0637e0ea8200014601a4,64d2fd46c836a06233681665,64dc7d09eb1304cbf1f75c9d,,,,,,,decisionTrl,resources/DBN.BMP,resources/DY.BMP,WildCard_NonEx,-0.312962963,-0.037962963,1,0,0,1.0293,optionLeft,55,10710,5,17,0,17,0,1,,,,,,,,,,,,,,,,,,,,,,,,,,,,,,,,,,,,,,,
,,,,,,,,2023-08-16_08h39.16.705,HF_wild_card,2022.2.4,Win32,59.97361161,5c3d0637e0ea8200014601a4,64d2fd46c836a06233681665,64dc7d09eb1304cbf1f75c9d,,,,,,,decisionTrl,resources/DG.BMP,resources/DY.BMP,Door1,-0.378703704,-0.086111111,1,0,0,3.6477,optionLeft,30,10740,5,18,0,18,0,1,,,,,,,,,,,,,,,,,,,,,,,,,,,,,,,,,,,,,,,
,,,,,,,,2023-08-16_08h39.16.705,HF_wild_card,2022.2.4,Win32,59.97361161,5c3d0637e0ea8200014601a4,64d2fd46c836a06233681665,64dc7d09eb1304cbf1f75c9d,,,,,,,decisionTrl,resources/DP.BMP,resources/DR.BMP,Door4,-0.312962963,-0.043518519,1,0,0,0.9493,optionLeft,80,10820,5,19,0,19,0,1,,,,,,,,,,,,,,,,,,,,,,,,,,,,,,,,,,,,,,,
,,,,,,,,2023-08-16_08h39.16.705,HF_wild_card,2022.2.4,Win32,59.97361161,5c3d0637e0ea8200014601a4,64d2fd46c836a06233681665,64dc7d09eb1304cbf1f75c9d,,,,,,,ctch,resources/DY.BMP,resources/DR.BMP,Door3,0.305555556,-0.002777778,1,0,0,0.6659,optionRight,70,10890,5,20,0,20,0,1,,,,,,,,,,,,,,,,,,,,,,,,,,,,,,,,,,,,,,,
,,,,,,,,2023-08-16_08h39.16.705,HF_wild_card,2022.2.4,Win32,59.97361161,5c3d0637e0ea8200014601a4,64d2fd46c836a06233681665,64dc7d09eb1304cbf1f75c9d,,,,,,,sngl,resources/DG.BMP,resources/Empty.png,Door1,-0.359259259,-0.044444444,1,0,0,0.6464,optionLeft,30,10920,5,21,0,21,0,1,,,,,,,,,,,,,,,,,,,,,,,,,,,,,,,,,,,,,,,
,,,,,,,,2023-08-16_08h39.16.705,HF_wild_card,2022.2.4,Win32,59.97361161,5c3d0637e0ea8200014601a4,64d2fd46c836a06233681665,64dc7d09eb1304cbf1f75c9d,,,,,,,decisionTrl,resources/DG.BMP,resources/DY.BMP,Door1,-0.393518519,-0.034259259,1,0,0,0.8495,optionLeft,30,10950,5,22,0,22,0,1,,,,,,,,,,,,,,,,,,,,,,,,,,,,,,,,,,,,,,,
,,,,,,,,2023-08-16_08h39.16.705,HF_wild_card,2022.2.4,Win32,59.97361161,5c3d0637e0ea8200014601a4,64d2fd46c836a06233681665,64dc7d09eb1304cbf1f75c9d,,,,,,,decisionTrl,resources/DP.BMP,resources/DR.BMP,Door4,-0.34537037,-0.028703704,1,0,0,0.8733,optionLeft,60,11010,5,23,0,23,0,1,,,,,,,,,,,,,,,,,,,,,,,,,,,,,,,,,,,,,,,
,,,,,,,,2023-08-16_08h39.16.705,HF_wild_card,2022.2.4,Win32,59.97361161,5c3d0637e0ea8200014601a4,64d2fd46c836a06233681665,64dc7d09eb1304cbf1f75c9d,,,,,,,decisionTrl,resources/DBN.BMP,resources/DR.BMP,Door3,0.414814815,-0.012037037,1,0,0,1.0995,optionRight,70,11080,5,24,0,24,0,1,,,,,,,,,,,,,,,,,,,,,,,,,,,,,,,,,,,,,,,
,,,,,,,,2023-08-16_08h39.16.705,HF_wild_card,2022.2.4,Win32,59.97361161,5c3d0637e0ea8200014601a4,64d2fd46c836a06233681665,64dc7d09eb1304cbf1f75c9d,,,,,,,decisionTrl,resources/DY.BMP,resources/DBN.BMP,WildCard_NonEx,0.280555556,-0.009259259,1,0,0,0.6502,optionRight,55,11135,5,25,0,25,0,1,,,,,,,,,,,,,,,,,,,,,,,,,,,,,,,,,,,,,,,
,,,,,,,,2023-08-16_08h39.16.705,HF_wild_card,2022.2.4,Win32,59.97361161,5c3d0637e0ea8200014601a4,64d2fd46c836a06233681665,64dc7d09eb1304cbf1f75c9d,,,,,,,decisionTrl,resources/DP.BMP,resources/DR.BMP,Door4,-0.335185185,-0.048148148,1,0,0,0.6127,optionLeft,60,11195,5,26,0,26,0,1,,,,,,,,,,,,,,,,,,,,,,,,,,,,,,,,,,,,,,,
,,,,,,,,2023-08-16_08h39.16.705,HF_wild_card,2022.2.4,Win32,59.97361161,5c3d0637e0ea8200014601a4,64d2fd46c836a06233681665,64dc7d09eb1304cbf1f75c9d,,,,,,,ctch,resources/DP.BMP,resources/DG.BMP,Door4,-0.24537037,-0.025,1,0,0,0.6325,optionLeft,80,11275,5,27,0,27,0,1,,,,,,,,,,,,,,,,,,,,,,,,,,,,,,,,,,,,,,,
,,,,,,,,2023-08-16_08h39.16.705,HF_wild_card,2022.2.4,Win32,59.97361161,5c3d0637e0ea8200014601a4,64d2fd46c836a06233681665,64dc7d09eb1304cbf1f75c9d,,,,,,,decisionTrl,resources/DR.BMP,resources/DP.BMP,Door4,0.333333333,-0.028703704,1,0,0,0.864,optionRight,80,11355,5,28,0,28,0,1,,,,,,,,,,,,,,,,,,,,,,,,,,,,,,,,,,,,,,,
,,,,,,,,2023-08-16_08h39.16.705,HF_wild_card,2022.2.4,Win32,59.97361161,5c3d0637e0ea8200014601a4,64d2fd46c836a06233681665,64dc7d09eb1304cbf1f75c9d,,,,,,,decisionTrl,resources/DBN.BMP,resources/DG.BMP,WildCard_NonEx,-0.406481481,-0.042592593,1,0,0,5.1375,optionLeft,55,11410,5,29,0,29,0,1,,,,,,,,,,,,,,,,,,,,,,,,,,,,,,,,,,,,,,,
,,,,,,,,2023-08-16_08h39.16.705,HF_wild_card,2022.2.4,Win32,59.97361161,5c3d0637e0ea8200014601a4,64d2fd46c836a06233681665,64dc7d09eb1304cbf1f75c9d,,,,,,,decisionTrl,resources/DG.BMP,resources/DY.BMP,Door1,-0.35462963,-0.025925926,1,0,0,4.5984,optionLeft,30,11440,5,30,0,30,0,1,,,,,,,,,,,,,,,,,,,,,,,,,,,,,,,,,,,,,,,
,,,,,,,,2023-08-16_08h39.16.705,HF_wild_card,2022.2.4,Win32,59.97361161,5c3d0637e0ea8200014601a4,64d2fd46c836a06233681665,64dc7d09eb1304cbf1f75c9d,,,,,,,ctch,resources/DP.BMP,resources/DG.BMP,Door4,-0.444444444,-0.040740741,1,0,0,0.8795,optionLeft,80,11520,5,31,0,31,0,1,,,,,,,,,,,,,,,,,,,,,,,,,,,,,,,,,,,,,,,
,,,,,,,,2023-08-16_08h39.16.705,HF_wild_card,2022.2.4,Win32,59.97361161,5c3d0637e0ea8200014601a4,64d2fd46c836a06233681665,64dc7d09eb1304cbf1f75c9d,,,,,,,decisionTrl,resources/DR.BMP,resources/DP.BMP,Door4,0.348148148,-0.019444444,1,0,0,0.7826,optionRight,80,11600,5,32,0,32,0,1,,,,,,,,,,,,,,,,,,,,,,,,,,,,,,,,,,,,,,,
,,,,,,,,2023-08-16_08h39.16.705,HF_wild_card,2022.2.4,Win32,59.97361161,5c3d0637e0ea8200014601a4,64d2fd46c836a06233681665,64dc7d09eb1304cbf1f75c9d,,,,,,,sngl,resources/Empty.png,resources/DP.BMP,Door4,0.35462963,-0.003703704,1,0,0,0.5416,optionRight,60,11660,5,33,0,33,0,1,,,,,,,,,,,,,,,,,,,,,,,,,,,,,,,,,,,,,,,
,,,,,,,,2023-08-16_08h39.16.705,HF_wild_card,2022.2.4,Win32,59.97361161,5c3d0637e0ea8200014601a4,64d2fd46c836a06233681665,64dc7d09eb1304cbf1f75c9d,,,,,,,ctch,resources/DY.BMP,resources/DR.BMP,Door3,0.362037037,-0.025,1,0,0,1.1994,optionRight,70,11730,5,34,0,34,0,1,,,,,,,,,,,,,,,,,,,,,,,,,,,,,,,,,,,,,,,
,,,,,,,,2023-08-16_08h39.16.705,HF_wild_card,2022.2.4,Win32,59.97361161,5c3d0637e0ea8200014601a4,64d2fd46c836a06233681665,64dc7d09eb1304cbf1f75c9d,,,,,,,decisionTrl,resources/DG.BMP,resources/DBN.BMP,WildCard_NonEx,0.399074074,-0.025925926,1,0,0,5.8163,optionRight,45,11775,5,35,0,35,0,1,,,,,,,,,,,,,,,,,,,,,,,,,,,,,,,,,,,,,,,
,,,,,,,,2023-08-16_08h39.16.705,HF_wild_card,2022.2.4,Win32,59.97361161,5c3d0637e0ea8200014601a4,64d2fd46c836a06233681665,64dc7d09eb1304cbf1f75c9d,,,,,,,ctch,resources/DR.BMP,resources/DY.BMP,Door3,-0.360185185,-0.036111111,1,0,0,6.4721,optionLeft,70,11845,5,36,0,36,0,1,,,,,,,,,,,,,,,,,,,,,,,,,,,,,,,,,,,,,,,
,,,,,,,,2023-08-16_08h39.16.705,HF_wild_card,2022.2.4,Win32,59.97361161,5c3d0637e0ea8200014601a4,64d2fd46c836a06233681665,64dc7d09eb1304cbf1f75c9d,,,,,,,sngl,resources/DBN.BMP,resources/Empty.png,WildCard_NonEx,-0.468518519,0.112962963,1,0,0,1.4576,optionLeft,55,11900,5,37,0,37,0,1,,,,,,,,,,,,,,,,,,,,,,,,,,,,,,,,,,,,,,,
,,,,,,,,2023-08-16_08h39.16.705,HF_wild_card,2022.2.4,Win32,59.97361161,5c3d0637e0ea8200014601a4,64d2fd46c836a06233681665,64dc7d09eb1304cbf1f75c9d,,,,,,,decisionTrl,resources/DR.BMP,resources/DP.BMP,Door4,0.215740741,-0.012962963,1,0,0,8.4121,optionRight,60,11960,5,38,0,38,0,1,,,,,,,,,,,,,,,,,,,,,,,,,,,,,,,,,,,,,,,
,,,,,,,,2023-08-16_08h39.16.705,HF_wild_card,2022.2.4,Win32,59.97361161,5c3d0637e0ea8200014601a4,64d2fd46c836a06233681665,64dc7d09eb1304cbf1f75c9d,,,,,,,sngl,resources/Empty.png,resources/DG.BMP,Door1,0.272222222,-0.014814815,1,0,0,0.9781,optionRight,30,11990,5,39,0,39,0,1,,,,,,,,,,,,,,,,,,,,,,,,,,,,,,,,,,,,,,,
,,,,,,,,2023-08-16_08h39.16.705,HF_wild_card,2022.2.4,Win32,59.97361161,5c3d0637e0ea8200014601a4,64d2fd46c836a06233681665,64dc7d09eb1304cbf1f75c9d,,,,,,,sngl,resources/DR.BMP,resources/Empty.png,Door3,-0.268518519,-0.007407407,1,0,0,0.544,optionLeft,70,12060,5,40,0,40,0,1,,,,,,,,,,,,,,,,,,,,,,,,,,,,,,,,,,,,,,,
,,,,,,,,2023-08-16_08h39.16.705,HF_wild_card,2022.2.4,Win32,59.97361161,5c3d0637e0ea8200014601a4,64d2fd46c836a06233681665,64dc7d09eb1304cbf1f75c9d,,,,,,,decisionTrl,resources/DY.BMP,resources/DG.BMP,Door1,0.358333333,-0.118518519,1,0,0,6.483,optionRight,30,12090,5,41,0,41,0,1,,,,,,,,,,,,,,,,,,,,,,,,,,,,,,,,,,,,,,,
,,,,,,,,2023-08-16_08h39.16.705,HF_wild_card,2022.2.4,Win32,59.97361161,5c3d0637e0ea8200014601a4,64d2fd46c836a06233681665,64dc7d09eb1304cbf1f75c9d,,,,,,,decisionTrl,resources/DR.BMP,resources/DBN.BMP,Door3,-0.349074074,-0.05,1,0,0,1.3409,optionLeft,70,12160,5,42,0,42,0,1,,,,,,,,,,,,,,,,,,,,,,,,,,,,,,,,,,,,,,,
,,,,,,,,2023-08-16_08h39.16.705,HF_wild_card,2022.2.4,Win32,59.97361161,5c3d0637e0ea8200014601a4,64d2fd46c836a06233681665,64dc7d09eb1304cbf1f75c9d,,,,,,,ctch,resources/DG.BMP,resources/DP.BMP,Door4,0.3,-0.07037037,1,0,0,0.6827,optionRight,80,12240,5,43,0,43,0,1,,,,,,,,,,,,,,,,,,,,,,,,,,,,,,,,,,,,,,,
,,,,,,,,2023-08-16_08h39.16.705,HF_wild_card,2022.2.4,Win32,59.97361161,5c3d0637e0ea8200014601a4,64d2fd46c836a06233681665,64dc7d09eb1304cbf1f75c9d,,,,,,,,,,,,,,,,,,,,,,,,,,4,0,4,0,1,,,,,,,,,,,,,,,,,,,,,,,,,,,,,,,,,,
,,,,,,,,2023-08-16_08h39.16.705,HF_wild_card,2022.2.4,Win32,59.97361161,5c3d0637e0ea8200014601a4,64d2fd46c836a06233681665,64dc7d09eb1304cbf1f75c9d,,,,,,,decisionTrl,resources/DR.BMP,resources/DBN.BMP,Door3,-0.233333333,-0.078703704,1,0,0,1.0939,optionLeft,70,12310,6,0,0,0,0,1,,,,,,,,,,,,,,,,,,,,,,,,,,,,,,,,,,,,,,,
,,,,,,,,2023-08-16_08h39.16.705,HF_wild_card,2022.2.4,Win32,59.97361161,5c3d0637e0ea8200014601a4,64d2fd46c836a06233681665,64dc7d09eb1304cbf1f75c9d,,,,,,,ctch,resources/DR.BMP,resources/DY.BMP,Door3,-0.282407407,-0.037962963,1,0,0,0.8719,optionLeft,70,12380,6,1,0,1,0,1,,,,,,,,,,,,,,,,,,,,,,,,,,,,,,,,,,,,,,,
,,,,,,,,2023-08-16_08h39.16.705,HF_wild_card,2022.2.4,Win32,59.97361161,5c3d0637e0ea8200014601a4,64d2fd46c836a06233681665,64dc7d09eb1304cbf1f75c9d,,,,,,,sngl,resources/DP.BMP,resources/Empty.png,Door4,-0.317592593,-0.011111111,1,0,0,0.5498,optionLeft,60,12440,6,2,0,2,0,1,,,,,,,,,,,,,,,,,,,,,,,,,,,,,,,,,,,,,,,
,,,,,,,,2023-08-16_08h39.16.705,HF_wild_card,2022.2.4,Win32,59.97361161,5c3d0637e0ea8200014601a4,64d2fd46c836a06233681665,64dc7d09eb1304cbf1f75c9d,,,,,,,decisionTrl,resources/DY.BMP,resources/DG.BMP,Door1,0.302777778,-0.025925926,1,0,0,1.1183,optionRight,30,12470,6,3,0,3,0,1,,,,,,,,,,,,,,,,,,,,,,,,,,,,,,,,,,,,,,,
,,,,,,,,2023-08-16_08h39.16.705,HF_wild_card,2022.2.4,Win32,59.97361161,5c3d0637e0ea8200014601a4,64d2fd46c836a06233681665,64dc7d09eb1304cbf1f75c9d,,,,,,,decisionTrl,resources/DBN.BMP,resources/DR.BMP,Door3,0.305555556,-0.025,1,0,0,1.114,optionRight,70,12540,6,4,0,4,0,1,,,,,,,,,,,,,,,,,,,,,,,,,,,,,,,,,,,,,,,
,,,,,,,,2023-08-16_08h39.16.705,HF_wild_card,2022.2.4,Win32,59.97361161,5c3d0637e0ea8200014601a4,64d2fd46c836a06233681665,64dc7d09eb1304cbf1f75c9d,,,,,,,ctch,resources/DP.BMP,resources/DG.BMP,Door4,-0.312962963,-0.015740741,1,0,0,1.4171,optionLeft,60,12600,6,5,0,5,0,1,,,,,,,,,,,,,,,,,,,,,,,,,,,,,,,,,,,,,,,
,,,,,,,,2023-08-16_08h39.16.705,HF_wild_card,2022.2.4,Win32,59.97361161,5c3d0637e0ea8200014601a4,64d2fd46c836a06233681665,64dc7d09eb1304cbf1f75c9d,,,,,,,decisionTrl,resources/DR.BMP,resources/DP.BMP,Door4,0.419444444,-0.074074074,1,0,0,1.0334,optionRight,80,12680,6,6,0,6,0,1,,,,,,,,,,,,,,,,,,,,,,,,,,,,,,,,,,,,,,,
,,,,,,,,2023-08-16_08h39.16.705,HF_wild_card,2022.2.4,Win32,59.97361161,5c3d0637e0ea8200014601a4,64d2fd46c836a06233681665,64dc7d09eb1304cbf1f75c9d,,,,,,,ctch,resources/DP.BMP,resources/DG.BMP,Door4,-0.234259259,-0.036111111,1,0,0,0.4698,optionLeft,80,12760,6,7,0,7,0,1,,,,,,,,,,,,,,,,,,,,,,,,,,,,,,,,,,,,,,,
,,,,,,,,2023-08-16_08h39.16.705,HF_wild_card,2022.2.4,Win32,59.97361161,5c3d0637e0ea8200014601a4,64d2fd46c836a06233681665,64dc7d09eb1304cbf1f75c9d,,,,,,,sngl,resources/DY.BMP,resources/Empty.png,Door2,-0.282407407,-0.059259259,1,0,0,0.5496,optionLeft,20,12780,6,8,0,8,0,1,,,,,,,,,,,,,,,,,,,,,,,,,,,,,,,,,,,,,,,
,,,,,,,,2023-08-16_08h39.16.705,HF_wild_card,2022.2.4,Win32,59.97361161,5c3d0637e0ea8200014601a4,64d2fd46c836a06233681665,64dc7d09eb1304cbf1f75c9d,,,,,,,sngl,resources/Empty.png,resources/DY.BMP,Door2,0.386111111,-0.017592593,1,0,0,0.5074,optionRight,40,12820,6,9,0,9,0,1,,,,,,,,,,,,,,,,,,,,,,,,,,,,,,,,,,,,,,,
,,,,,,,,2023-08-16_08h39.16.705,HF_wild_card,2022.2.4,Win32,59.97361161,5c3d0637e0ea8200014601a4,64d2fd46c836a06233681665,64dc7d09eb1304cbf1f75c9d,,,,,,,decisionTrl,resources/DR.BMP,resources/DP.BMP,Door4,0.330555556,-0.05,1,0,0,0.6852,optionRight,80,12900,6,10,0,10,0,1,,,,,,,,,,,,,,,,,,,,,,,,,,,,,,,,,,,,,,,
,,,,,,,,2023-08-16_08h39.16.705,HF_wild_card,2022.2.4,Win32,59.97361161,5c3d0637e0ea8200014601a4,64d2fd46c836a06233681665,64dc7d09eb1304cbf1f75c9d,,,,,,,decisionTrl,resources/DG.BMP,resources/DY.BMP,Door1,-0.322222222,-0.014814815,1,0,0,0.9462,optionLeft,30,12930,6,11,0,11,0,1,,,,,,,,,,,,,,,,,,,,,,,,,,,,,,,,,,,,,,,
,,,,,,,,2023-08-16_08h39.16.705,HF_wild_card,2022.2.4,Win32,59.97361161,5c3d0637e0ea8200014601a4,64d2fd46c836a06233681665,64dc7d09eb1304cbf1f75c9d,,,,,,,decisionTrl,resources/DBN.BMP,resources/DP.BMP,Door4,0.42962963,-0.043518519,1,0,0,1.6312,optionRight,60,12990,6,12,0,12,0,1,,,,,,,,,,,,,,,,,,,,,,,,,,,,,,,,,,,,,,,
,,,,,,,,2023-08-16_08h39.16.705,HF_wild_card,2022.2.4,Win32,59.97361161,5c3d0637e0ea8200014601a4,64d2fd46c836a06233681665,64dc7d09eb1304cbf1f75c9d,,,,,,,decisionTrl,resources/DG.BMP,resources/DY.BMP,Door1,-0.293518519,-0.009259259,1,0,0,0.7481,optionLeft,30,13020,6,13,0,13,0,1,,,,,,,,,,,,,,,,,,,,,,,,,,,,,,,,,,,,,,,
,,,,,,,,2023-08-16_08h39.16.705,HF_wild_card,2022.2.4,Win32,59.97361161,5c3d0637e0ea8200014601a4,64d2fd46c836a06233681665,64dc7d09eb1304cbf1f75c9d,,,,,,,decisionTrl,resources/DR.BMP,resources/DP.BMP,Door4,0.262037037,-0.038888889,1,0,0,1.3638,optionRight,60,13080,6,14,0,14,0,1,,,,,,,,,,,,,,,,,,,,,,,,,,,,,,,,,,,,,,,
,,,,,,,,2023-08-16_08h39.16.705,HF_wild_card,2022.2.4,Win32,59.97361161,5c3d0637e0ea8200014601a4,64d2fd46c836a06233681665,64dc7d09eb1304cbf1f75c9d,,,,,,,decisionTrl,resources/DP.BMP,resources/DR.BMP,Door4,-0.294444444,-0.039814815,1,0,0,0.5649,optionLeft,60,13140,6,15,0,15,0,1,,,,,,,,,,,,,,,,,,,,,,,,,,,,,,,,,,,,,,,
,,,,,,,,2023-08-16_08h39.16.705,HF_wild_card,2022.2.4,Win32,59.97361161,5c3d0637e0ea8200014601a4,64d2fd46c836a06233681665,64dc7d09eb1304cbf1f75c9d,,,,,,,ctch,resources/DR.BMP,resources/DY.BMP,Door3,-0.275925926,-0.015740741,1,0,0,2.1522,optionLeft,70,13210,6,16,0,16,0,1,,,,,,,,,,,,,,,,,,,,,,,,,,,,,,,,,,,,,,,
,,,,,,,,2023-08-16_08h39.16.705,HF_wild_card,2022.2.4,Win32,59.97361161,5c3d0637e0ea8200014601a4,64d2fd46c836a06233681665,64dc7d09eb1304cbf1f75c9d,,,,,,,decisionTrl,resources/DG.BMP,resources/DY.BMP,Door1,-0.32962963,-0.011111111,1,0,0,0.7716,optionLeft,30,13240,6,17,0,17,0,1,,,,,,,,,,,,,,,,,,,,,,,,,,,,,,,,,,,,,,,
,,,,,,,,2023-08-16_08h39.16.705,HF_wild_card,2022.2.4,Win32,59.97361161,5c3d0637e0ea8200014601a4,64d2fd46c836a06233681665,64dc7d09eb1304cbf1f75c9d,,,,,,,decisionTrl,resources/DR.BMP,resources/DP.BMP,Door4,0.357407407,-0.038888889,1,0,0,0.6636,optionRight,60,13300,6,18,0,18,0,1,,,,,,,,,,,,,,,,,,,,,,,,,,,,,,,,,,,,,,,
,,,,,,,,2023-08-16_08h39.16.705,HF_wild_card,2022.2.4,Win32,59.97361161,5c3d0637e0ea8200014601a4,64d2fd46c836a06233681665,64dc7d09eb1304cbf1f75c9d,,,,,,,decisionTrl,resources/DP.BMP,resources/DR.BMP,Door4,-0.362037037,-0.027777778,1,0,0,0.6329,optionLeft,60,13360,6,19,0,19,0,1,,,,,,,,,,,,,,,,,,,,,,,,,,,,,,,,,,,,,,,
,,,,,,,,2023-08-16_08h39.16.705,HF_wild_card,2022.2.4,Win32,59.97361161,5c3d0637e0ea8200014601a4,64d2fd46c836a06233681665,64dc7d09eb1304cbf1f75c9d,,,,,,,ctch,resources/DY.BMP,resources/DR.BMP,Door3,0.32962963,-0.035185185,1,0,0,2.7647,optionRight,70,13430,6,20,0,20,0,1,,,,,,,,,,,,,,,,,,,,,,,,,,,,,,,,,,,,,,,
,,,,,,,,2023-08-16_08h39.16.705,HF_wild_card,2022.2.4,Win32,59.97361161,5c3d0637e0ea8200014601a4,64d2fd46c836a06233681665,64dc7d09eb1304cbf1f75c9d,,,,,,,sngl,resources/DG.BMP,resources/Empty.png,Door1,-0.293518519,0.00462963,1,0,0,0.5802,optionLeft,30,13460,6,21,0,21,0,1,,,,,,,,,,,,,,,,,,,,,,,,,,,,,,,,,,,,,,,
,,,,,,,,2023-08-16_08h39.16.705,HF_wild_card,2022.2.4,Win32,59.97361161,5c3d0637e0ea8200014601a4,64d2fd46c836a06233681665,64dc7d09eb1304cbf1f75c9d,,,,,,,sngl,resources/Empty.png,resources/DBN.BMP,WildCard_NonEx,0.294444444,-0.044444444,1,0,0,2.0513,optionRight,55,13515,6,22,0,22,0,1,,,,,,,,,,,,,,,,,,,,,,,,,,,,,,,,,,,,,,,
,,,,,,,,2023-08-16_08h39.16.705,HF_wild_card,2022.2.4,Win32,59.97361161,5c3d0637e0ea8200014601a4,64d2fd46c836a06233681665,64dc7d09eb1304cbf1f75c9d,,,,,,,sngl,resources/Empty.png,resources/DG.BMP,Door1,0.353703704,-0.04537037,1,0,0,0.6448,optionRight,30,13545,6,23,0,23,0,1,,,,,,,,,,,,,,,,,,,,,,,,,,,,,,,,,,,,,,,
,,,,,,,,2023-08-16_08h39.16.705,HF_wild_card,2022.2.4,Win32,59.97361161,5c3d0637e0ea8200014601a4,64d2fd46c836a06233681665,64dc7d09eb1304cbf1f75c9d,,,,,,,ctch,resources/DY.BMP,resources/DR.BMP,Door3,0.337037037,-0.043518519,1,0,0,1.0971,optionRight,70,13615,6,24,0,24,0,1,,,,,,,,,,,,,,,,,,,,,,,,,,,,,,,,,,,,,,,
,,,,,,,,2023-08-16_08h39.16.705,HF_wild_card,2022.2.4,Win32,59.97361161,5c3d0637e0ea8200014601a4,64d2fd46c836a06233681665,64dc7d09eb1304cbf1f75c9d,,,,,,,sngl,resources/Empty.png,resources/DP.BMP,Door4,0.286111111,-0.049074074,1,0,0,0.5666,optionRight,80,13695,6,25,0,25,0,1,,,,,,,,,,,,,,,,,,,,,,,,,,,,,,,,,,,,,,,
,,,,,,,,2023-08-16_08h39.16.705,HF_wild_card,2022.2.4,Win32,59.97361161,5c3d0637e0ea8200014601a4,64d2fd46c836a06233681665,64dc7d09eb1304cbf1f75c9d,,,,,,,decisionTrl,resources/DY.BMP,resources/DBN.BMP,WildCard_NonEx,0.4,0.005555556,1,0,0,0.9974,optionRight,55,13750,6,26,0,26,0,1,,,,,,,,,,,,,,,,,,,,,,,,,,,,,,,,,,,,,,,
,,,,,,,,2023-08-16_08h39.16.705,HF_wild_card,2022.2.4,Win32,59.97361161,5c3d0637e0ea8200014601a4,64d2fd46c836a06233681665,64dc7d09eb1304cbf1f75c9d,,,,,,,ctch,resources/DG.BMP,resources/DP.BMP,Door4,0.360185185,-0.052777778,1,0,0,0.6828,optionRight,80,13830,6,27,0,27,0,1,,,,,,,,,,,,,,,,,,,,,,,,,,,,,,,,,,,,,,,
,,,,,,,,2023-08-16_08h39.16.705,HF_wild_card,2022.2.4,Win32,59.97361161,5c3d0637e0ea8200014601a4,64d2fd46c836a06233681665,64dc7d09eb1304cbf1f75c9d,,,,,,,decisionTrl,resources/DY.BMP,resources/DG.BMP,Door1,0.322222222,-0.055555556,1,0,0,1.6681,optionRight,30,13860,6,28,0,28,0,1,,,,,,,,,,,,,,,,,,,,,,,,,,,,,,,,,,,,,,,
,,,,,,,,2023-08-16_08h39.16.705,HF_wild_card,2022.2.4,Win32,59.97361161,5c3d0637e0ea8200014601a4,64d2fd46c836a06233681665,64dc7d09eb1304cbf1f75c9d,,,,,,,decisionTrl,resources/DBN.BMP,resources/DY.BMP,WildCard_NonEx,-0.413888889,-0.000925926,1,0,0,1.0312,optionLeft,45,13905,6,29,0,29,0,1,,,,,,,,,,,,,,,,,,,,,,,,,,,,,,,,,,,,,,,
,,,,,,,,2023-08-16_08h39.16.705,HF_wild_card,2022.2.4,Win32,59.97361161,5c3d0637e0ea8200014601a4,64d2fd46c836a06233681665,64dc7d09eb1304cbf1f75c9d,,,,,,,decisionTrl,resources/DG.BMP,resources/DY.BMP,Door1,-0.247222222,-0.052777778,1,0,0,1.3837,optionLeft,30,13935,6,30,0,30,0,1,,,,,,,,,,,,,,,,,,,,,,,,,,,,,,,,,,,,,,,
,,,,,,,,2023-08-16_08h39.16.705,HF_wild_card,2022.2.4,Win32,59.97361161,5c3d0637e0ea8200014601a4,64d2fd46c836a06233681665,64dc7d09eb1304cbf1f75c9d,,,,,,,sngl,resources/DBN.BMP,resources/Empty.png,WildCard_NonEx,-0.493518519,0.034259259,1,0,0,0.5662,optionLeft,55,13990,6,31,0,31,0,1,,,,,,,,,,,,,,,,,,,,,,,,,,,,,,,,,,,,,,,
,,,,,,,,2023-08-16_08h39.16.705,HF_wild_card,2022.2.4,Win32,59.97361161,5c3d0637e0ea8200014601a4,64d2fd46c836a06233681665,64dc7d09eb1304cbf1f75c9d,,,,,,,sngl,resources/Empty.png,resources/DBN.BMP,WildCard_NonEx,0.431481481,0.002777778,1,0,0,1.3669,optionRight,45,14035,6,32,0,32,0,1,,,,,,,,,,,,,,,,,,,,,,,,,,,,,,,,,,,,,,,
,,,,,,,,2023-08-16_08h39.16.705,HF_wild_card,2022.2.4,Win32,59.97361161,5c3d0637e0ea8200014601a4,64d2fd46c836a06233681665,64dc7d09eb1304cbf1f75c9d,,,,,,,ctch,resources/DG.BMP,resources/DP.BMP,Door4,0.369444444,-0.074074074,1,0,0,0.7498,optionRight,80,14115,6,33,0,33,0,1,,,,,,,,,,,,,,,,,,,,,,,,,,,,,,,,,,,,,,,
,,,,,,,,2023-08-16_08h39.16.705,HF_wild_card,2022.2.4,Win32,59.97361161,5c3d0637e0ea8200014601a4,64d2fd46c836a06233681665,64dc7d09eb1304cbf1f75c9d,,,,,,,sngl,resources/DR.BMP,resources/Empty.png,Door3,-0.341666667,-0.044444444,1,0,0,0.5828,optionLeft,70,14185,6,34,0,34,0,1,,,,,,,,,,,,,,,,,,,,,,,,,,,,,,,,,,,,,,,
,,,,,,,,2023-08-16_08h39.16.705,HF_wild_card,2022.2.4,Win32,59.97361161,5c3d0637e0ea8200014601a4,64d2fd46c836a06233681665,64dc7d09eb1304cbf1f75c9d,,,,,,,decisionTrl,resources/DY.BMP,resources/DG.BMP,Door1,0.372222222,-0.082407407,1,0,0,0.6795,optionRight,30,14215,6,35,0,35,0,1,,,,,,,,,,,,,,,,,,,,,,,,,,,,,,,,,,,,,,,
,,,,,,,,2023-08-16_08h39.16.705,HF_wild_card,2022.2.4,Win32,59.97361161,5c3d0637e0ea8200014601a4,64d2fd46c836a06233681665,64dc7d09eb1304cbf1f75c9d,,,,,,,decisionTrl,resources/DG.BMP,resources/DBN.BMP,WildCard_NonEx,0.387962963,-0.051851852,1,0,0,0.9328,optionRight,55,14270,6,36,0,36,0,1,,,,,,,,,,,,,,,,,,,,,,,,,,,,,,,,,,,,,,,
,,,,,,,,2023-08-16_08h39.16.705,HF_wild_card,2022.2.4,Win32,59.97361161,5c3d0637e0ea8200014601a4,64d2fd46c836a06233681665,64dc7d09eb1304cbf1f75c9d,,,,,,,decisionTrl,resources/DP.BMP,resources/DR.BMP,Door4,-0.291666667,-0.041666667,1,0,0,0.6684,optionLeft,80,14350,6,37,0,37,0,1,,,,,,,,,,,,,,,,,,,,,,,,,,,,,,,,,,,,,,,
,,,,,,,,2023-08-16_08h39.16.705,HF_wild_card,2022.2.4,Win32,59.97361161,5c3d0637e0ea8200014601a4,64d2fd46c836a06233681665,64dc7d09eb1304cbf1f75c9d,,,,,,,decisionTrl,resources/DY.BMP,resources/DG.BMP,Door1,0.330555556,-0.026851852,1,0,0,0.8669,optionRight,30,14380,6,38,0,38,0,1,,,,,,,,,,,,,,,,,,,,,,,,,,,,,,,,,,,,,,,
,,,,,,,,2023-08-16_08h39.16.705,HF_wild_card,2022.2.4,Win32,59.97361161,5c3d0637e0ea8200014601a4,64d2fd46c836a06233681665,64dc7d09eb1304cbf1f75c9d,,,,,,,decisionTrl,resources/DBN.BMP,resources/DG.BMP,WildCard_NonEx,-0.308333333,0.008333333,1,0,0,0.9827,optionLeft,45,14425,6,39,0,39,0,1,,,,,,,,,,,,,,,,,,,,,,,,,,,,,,,,,,,,,,,
,,,,,,,,2023-08-16_08h39.16.705,HF_wild_card,2022.2.4,Win32,59.97361161,5c3d0637e0ea8200014601a4,64d2fd46c836a06233681665,64dc7d09eb1304cbf1f75c9d,,,,,,,sngl,resources/DBN.BMP,resources/Empty.png,WildCard_NonEx,-0.266666667,-0.002777778,1,0,0,0.4974,optionLeft,45,14470,6,40,0,40,0,1,,,,,,,,,,,,,,,,,,,,,,,,,,,,,,,,,,,,,,,
,,,,,,,,2023-08-16_08h39.16.705,HF_wild_card,2022.2.4,Win32,59.97361161,5c3d0637e0ea8200014601a4,64d2fd46c836a06233681665,64dc7d09eb1304cbf1f75c9d,,,,,,,decisionTrl,resources/DP.BMP,resources/DBN.BMP,Door4,-0.296296296,-0.027777778,1,0,0,0.697,optionLeft,80,14550,6,41,0,41,0,1,,,,,,,,,,,,,,,,,,,,,,,,,,,,,,,,,,,,,,,
,,,,,,,,2023-08-16_08h39.16.705,HF_wild_card,2022.2.4,Win32,59.97361161,5c3d0637e0ea8200014601a4,64d2fd46c836a06233681665,64dc7d09eb1304cbf1f75c9d,,,,,,,decisionTrl,resources/DP.BMP,resources/DR.BMP,Door4,-0.255555556,-0.037962963,1,0,0,0.5503,optionLeft,80,14630,6,42,0,42,0,1,,,,,,,,,,,,,,,,,,,,,,,,,,,,,,,,,,,,,,,
,,,,,,,,2023-08-16_08h39.16.705,HF_wild_card,2022.2.4,Win32,59.97361161,5c3d0637e0ea8200014601a4,64d2fd46c836a06233681665,64dc7d09eb1304cbf1f75c9d,,,,,,,sngl,resources/Empty.png,resources/DR.BMP,Door3,0.281481481,-0.003703704,1,0,0,0.6637,optionRight,70,14700,6,43,0,43,0,1,,,,,,,,,,,,,,,,,,,,,,,,,,,,,,,,,,,,,,,
,,,,,,,,2023-08-16_08h39.16.705,HF_wild_card,2022.2.4,Win32,59.97361161,5c3d0637e0ea8200014601a4,64d2fd46c836a06233681665,64dc7d09eb1304cbf1f75c9d,,,,,,,,,,,,,,,,,,,,,,,,,,5,0,5,0,1,,,,,,,,,,,,,,,,,,,,,,,,,,,,,,,,,,
,,,,,,,,2023-08-16_08h39.16.705,HF_wild_card,2022.2.4,Win32,59.97361161,5c3d0637e0ea8200014601a4,64d2fd46c836a06233681665,64dc7d09eb1304cbf1f75c9d,,,,,,,decisionTrl,resources/DP.BMP,resources/DR.BMP,Door4,-0.330555556,-0.092592593,1,0,0,0.7905,optionLeft,60,14760,7,0,0,0,0,1,,,,,,,,,,,,,,,,,,,,,,,,,,,,,,,,,,,,,,,
,,,,,,,,2023-08-16_08h39.16.705,HF_wild_card,2022.2.4,Win32,59.97361161,5c3d0637e0ea8200014601a4,64d2fd46c836a06233681665,64dc7d09eb1304cbf1f75c9d,,,,,,,ctch,resources/DP.BMP,resources/DG.BMP,Door4,-0.402777778,-0.077777778,1,0,0,0.6664,optionLeft,60,14820,7,1,0,1,0,1,,,,,,,,,,,,,,,,,,,,,,,,,,,,,,,,,,,,,,,
,,,,,,,,2023-08-16_08h39.16.705,HF_wild_card,2022.2.4,Win32,59.97361161,5c3d0637e0ea8200014601a4,64d2fd46c836a06233681665,64dc7d09eb1304cbf1f75c9d,,,,,,,ctch,resources/DG.BMP,resources/DP.BMP,Door4,0.52962963,-0.080555556,1,0,0,0.6152,optionRight,80,14900,7,2,0,2,0,1,,,,,,,,,,,,,,,,,,,,,,,,,,,,,,,,,,,,,,,
,,,,,,,,2023-08-16_08h39.16.705,HF_wild_card,2022.2.4,Win32,59.97361161,5c3d0637e0ea8200014601a4,64d2fd46c836a06233681665,64dc7d09eb1304cbf1f75c9d,,,,,,,decisionTrl,resources/DR.BMP,resources/DP.BMP,Door4,0.365740741,-0.037962963,1,0,0,0.6841,optionRight,60,14960,7,3,0,3,0,1,,,,,,,,,,,,,,,,,,,,,,,,,,,,,,,,,,,,,,,
,,,,,,,,2023-08-16_08h39.16.705,HF_wild_card,2022.2.4,Win32,59.97361161,5c3d0637e0ea8200014601a4,64d2fd46c836a06233681665,64dc7d09eb1304cbf1f75c9d,,,,,,,decisionTrl,resources/DY.BMP,resources/DG.BMP,Door1,0.475925926,-0.047222222,1,0,0,0.7337,optionRight,30,14990,7,4,0,4,0,1,,,,,,,,,,,,,,,,,,,,,,,,,,,,,,,,,,,,,,,
,,,,,,,,2023-08-16_08h39.16.705,HF_wild_card,2022.2.4,Win32,59.97361161,5c3d0637e0ea8200014601a4,64d2fd46c836a06233681665,64dc7d09eb1304cbf1f75c9d,,,,,,,ctch,resources/DY.BMP,resources/DR.BMP,Door3,0.336111111,-0.019444444,1,0,0,0.7896,optionRight,70,15060,7,5,0,5,0,1,,,,,,,,,,,,,,,,,,,,,,,,,,,,,,,,,,,,,,,
,,,,,,,,2023-08-16_08h39.16.705,HF_wild_card,2022.2.4,Win32,59.97361161,5c3d0637e0ea8200014601a4,64d2fd46c836a06233681665,64dc7d09eb1304cbf1f75c9d,,,,,,,decisionTrl,resources/DR.BMP,resources/DP.BMP,Door4,0.34537037,-0.02962963,1,0,0,0.7153,optionRight,80,15140,7,6,0,6,0,1,,,,,,,,,,,,,,,,,,,,,,,,,,,,,,,,,,,,,,,
,,,,,,,,2023-08-16_08h39.16.705,HF_wild_card,2022.2.4,Win32,59.97361161,5c3d0637e0ea8200014601a4,64d2fd46c836a06233681665,64dc7d09eb1304cbf1f75c9d,,,,,,,decisionTrl,resources/DP.BMP,resources/DR.BMP,Door4,-0.409259259,0.007407407,1,0,0,0.5164,optionLeft,80,15220,7,7,0,7,0,1,,,,,,,,,,,,,,,,,,,,,,,,,,,,,,,,,,,,,,,
,,,,,,,,2023-08-16_08h39.16.705,HF_wild_card,2022.2.4,Win32,59.97361161,5c3d0637e0ea8200014601a4,64d2fd46c836a06233681665,64dc7d09eb1304cbf1f75c9d,,,,,,,decisionTrl,resources/DP.BMP,resources/DR.BMP,Door4,-0.348148148,-0.00462963,1,0,0,0.5186,optionLeft,80,15300,7,8,0,8,0,1,,,,,,,,,,,,,,,,,,,,,,,,,,,,,,,,,,,,,,,
,,,,,,,,2023-08-16_08h39.16.705,HF_wild_card,2022.2.4,Win32,59.97361161,5c3d0637e0ea8200014601a4,64d2fd46c836a06233681665,64dc7d09eb1304cbf1f75c9d,,,,,,,decisionTrl,resources/DG.BMP,resources/DY.BMP,Door1,-0.533333333,-0.021296296,1,0,0,0.931,optionLeft,30,15330,7,9,0,9,0,1,,,,,,,,,,,,,,,,,,,,,,,,,,,,,,,,,,,,,,,
,,,,,,,,2023-08-16_08h39.16.705,HF_wild_card,2022.2.4,Win32,59.97361161,5c3d0637e0ea8200014601a4,64d2fd46c836a06233681665,64dc7d09eb1304cbf1f75c9d,,,,,,,decisionTrl,resources/DY.BMP,resources/DG.BMP,Door1,0.425,-0.038888889,1,0,0,0.5671,optionRight,30,15360,7,10,0,10,0,1,,,,,,,,,,,,,,,,,,,,,,,,,,,,,,,,,,,,,,,
,,,,,,,,2023-08-16_08h39.16.705,HF_wild_card,2022.2.4,Win32,59.97361161,5c3d0637e0ea8200014601a4,64d2fd46c836a06233681665,64dc7d09eb1304cbf1f75c9d,,,,,,,decisionTrl,resources/DR.BMP,resources/DP.BMP,Door4,0.356481481,-0.063888889,1,0,0,0.5918,optionRight,60,15420,7,11,0,11,0,1,,,,,,,,,,,,,,,,,,,,,,,,,,,,,,,,,,,,,,,
,,,,,,,,2023-08-16_08h39.16.705,HF_wild_card,2022.2.4,Win32,59.97361161,5c3d0637e0ea8200014601a4,64d2fd46c836a06233681665,64dc7d09eb1304cbf1f75c9d,,,,,,,decisionTrl,resources/DR.BMP,resources/DP.BMP,Door4,0.359259259,-0.044444444,1,0,0,0.8003,optionRight,60,15480,7,12,0,12,0,1,,,,,,,,,,,,,,,,,,,,,,,,,,,,,,,,,,,,,,,
,,,,,,,,2023-08-16_08h39.16.705,HF_wild_card,2022.2.4,Win32,59.97361161,5c3d0637e0ea8200014601a4,64d2fd46c836a06233681665,64dc7d09eb1304cbf1f75c9d,,,,,,,decisionTrl,resources/DY.BMP,resources/DG.BMP,Door1,0.361111111,-0.044444444,1,0,0,0.7178,optionRight,30,15510,7,13,0,13,0,1,,,,,,,,,,,,,,,,,,,,,,,,,,,,,,,,,,,,,,,
,,,,,,,,2023-08-16_08h39.16.705,HF_wild_card,2022.2.4,Win32,59.97361161,5c3d0637e0ea8200014601a4,64d2fd46c836a06233681665,64dc7d09eb1304cbf1f75c9d,,,,,,,decisionTrl,resources/DY.BMP,resources/DG.BMP,Door1,0.407407407,-0.028703704,1,0,0,0.5855,optionRight,30,15540,7,14,0,14,0,1,,,,,,,,,,,,,,,,,,,,,,,,,,,,,,,,,,,,,,,
,,,,,,,,2023-08-16_08h39.16.705,HF_wild_card,2022.2.4,Win32,59.97361161,5c3d0637e0ea8200014601a4,64d2fd46c836a06233681665,64dc7d09eb1304cbf1f75c9d,,,,,,,decisionTrl,resources/DG.BMP,resources/DY.BMP,Door1,-0.4,0.005555556,1,0,0,0.5985,optionLeft,30,15570,7,15,0,15,0,1,,,,,,,,,,,,,,,,,,,,,,,,,,,,,,,,,,,,,,,
,,,,,,,,2023-08-16_08h39.16.705,HF_wild_card,2022.2.4,Win32,59.97361161,5c3d0637e0ea8200014601a4,64d2fd46c836a06233681665,64dc7d09eb1304cbf1f75c9d,,,,,,,ctch,resources/DR.BMP,resources/DY.BMP,Door3,-0.386111111,-0.031481481,1,0,0,1.5415,optionLeft,70,15640,7,16,0,16,0,1,,,,,,,,,,,,,,,,,,,,,,,,,,,,,,,,,,,,,,,
,,,,,,,,2023-08-16_08h39.16.705,HF_wild_card,2022.2.4,Win32,59.97361161,5c3d0637e0ea8200014601a4,64d2fd46c836a06233681665,64dc7d09eb1304cbf1f75c9d,,,,,,,decisionTrl,resources/DY.BMP,resources/DG.BMP,Door1,0.387037037,-0.068518519,1,0,0,0.8667,optionRight,30,15670,7,17,0,17,0,1,,,,,,,,,,,,,,,,,,,,,,,,,,,,,,,,,,,,,,,
,,,,,,,,2023-08-16_08h39.16.705,HF_wild_card,2022.2.4,Win32,59.97361161,5c3d0637e0ea8200014601a4,64d2fd46c836a06233681665,64dc7d09eb1304cbf1f75c9d,,,,,,,decisionTrl,resources/DG.BMP,resources/DY.BMP,Door1,-0.277777778,0.012037037,1,0,0,0.8615,optionLeft,30,15700,7,18,0,18,0,1,,,,,,,,,,,,,,,,,,,,,,,,,,,,,,,,,,,,,,,
,,,,,,,,2023-08-16_08h39.16.705,HF_wild_card,2022.2.4,Win32,59.97361161,5c3d0637e0ea8200014601a4,64d2fd46c836a06233681665,64dc7d09eb1304cbf1f75c9d,,,,,,,decisionTrl,resources/DG.BMP,resources/DY.BMP,Door1,-0.271296296,0.013888889,1,0,0,0.5018,optionLeft,30,15730,7,19,0,19,0,1,,,,,,,,,,,,,,,,,,,,,,,,,,,,,,,,,,,,,,,
,,,,,,,,2023-08-16_08h39.16.705,HF_wild_card,2022.2.4,Win32,59.97361161,5c3d0637e0ea8200014601a4,64d2fd46c836a06233681665,64dc7d09eb1304cbf1f75c9d,,,,,,,ctch,resources/DG.BMP,resources/DP.BMP,Door4,0.375,-0.018518519,1,0,0,0.4941,optionRight,80,15810,7,20,0,20,0,1,,,,,,,,,,,,,,,,,,,,,,,,,,,,,,,,,,,,,,,
,,,,,,,,2023-08-16_08h39.16.705,HF_wild_card,2022.2.4,Win32,59.97361161,5c3d0637e0ea8200014601a4,64d2fd46c836a06233681665,64dc7d09eb1304cbf1f75c9d,,,,,,,decisionTrl,resources/DY.BMP,resources/DG.BMP,Door1,0.335185185,-0.052777778,1,0,0,0.8646,optionRight,30,15840,7,21,0,21,0,1,,,,,,,,,,,,,,,,,,,,,,,,,,,,,,,,,,,,,,,
,,,,,,,,2023-08-16_08h39.16.705,HF_wild_card,2022.2.4,Win32,59.97361161,5c3d0637e0ea8200014601a4,64d2fd46c836a06233681665,64dc7d09eb1304cbf1f75c9d,,,,,,,ctch,resources/DR.BMP,resources/DY.BMP,Door3,-0.236111111,-0.021296296,1,0,0,0.6153,optionLeft,70,15910,7,22,0,22,0,1,,,,,,,,,,,,,,,,,,,,,,,,,,,,,,,,,,,,,,,
,,,,,,,,2023-08-16_08h39.16.705,HF_wild_card,2022.2.4,Win32,59.97361161,5c3d0637e0ea8200014601a4,64d2fd46c836a06233681665,64dc7d09eb1304cbf1f75c9d,,,,,,,decisionTrl,resources/DR.BMP,resources/DP.BMP,Door4,0.314814815,-0.026851852,1,0,0,0.5493,optionRight,80,15990,7,23,0,23,0,1,,,,,,,,,,,,,,,,,,,,,,,,,,,,,,,,,,,,,,,
,,,,,,,,2023-08-16_08h39.16.705,HF_wild_card,2022.2.4,Win32,59.97361161,5c3d0637e0ea8200014601a4,64d2fd46c836a06233681665,64dc7d09eb1304cbf1f75c9d,,,,,,,decisionTrl,resources/DG.BMP,resources/DY.BMP,Door1,-0.238888889,-0.014814815,1,0,0,0.5149,optionLeft,30,16020,7,24,0,24,0,1,,,,,,,,,,,,,,,,,,,,,,,,,,,,,,,,,,,,,,,
,,,,,,,,2023-08-16_08h39.16.705,HF_wild_card,2022.2.4,Win32,59.97361161,5c3d0637e0ea8200014601a4,64d2fd46c836a06233681665,64dc7d09eb1304cbf1f75c9d,,,,,,,decisionTrl,resources/DP.BMP,resources/DR.BMP,Door4,-0.338888889,-0.024074074,1,0,0,0.5903,optionLeft,60,16080,7,25,0,25,0,1,,,,,,,,,,,,,,,,,,,,,,,,,,,,,,,,,,,,,,,
,,,,,,,,2023-08-16_08h39.16.705,HF_wild_card,2022.2.4,Win32,59.97361161,5c3d0637e0ea8200014601a4,64d2fd46c836a06233681665,64dc7d09eb1304cbf1f75c9d,,,,,,,ctch,resources/DG.BMP,resources/DP.BMP,Door4,0.397222222,-0.038888889,1,0,0,0.4486,optionRight,60,16140,7,26,0,26,0,1,,,,,,,,,,,,,,,,,,,,,,,,,,,,,,,,,,,,,,,
,,,,,,,,2023-08-16_08h39.16.705,HF_wild_card,2022.2.4,Win32,59.97361161,5c3d0637e0ea8200014601a4,64d2fd46c836a06233681665,64dc7d09eb1304cbf1f75c9d,,,,,,,ctch,resources/DY.BMP,resources/DR.BMP,Door3,0.375,-0.021296296,1,0,0,2.6441,optionRight,70,16210,7,27,0,27,0,1,,,,,,,,,,,,,,,,,,,,,,,,,,,,,,,,,,,,,,,
,,,,,,,,2023-08-16_08h39.16.705,HF_wild_card,2022.2.4,Win32,59.97361161,5c3d0637e0ea8200014601a4,64d2fd46c836a06233681665,64dc7d09eb1304cbf1f75c9d,,,,,,,ctch,resources/DP.BMP,resources/DG.BMP,Door4,-0.286111111,0.023148148,1,0,0,0.4661,optionLeft,60,16270,7,28,0,28,0,1,,,,,,,,,,,,,,,,,,,,,,,,,,,,,,,,,,,,,,,
,,,,,,,,2023-08-16_08h39.16.705,HF_wild_card,2022.2.4,Win32,59.97361161,5c3d0637e0ea8200014601a4,64d2fd46c836a06233681665,64dc7d09eb1304cbf1f75c9d,,,,,,,ctch,resources/DY.BMP,resources/DR.BMP,Door3,0.264814815,-0.02037037,1,0,0,0.6976,optionRight,70,16340,7,29,0,29,0,1,,,,,,,,,,,,,,,,,,,,,,,,,,,,,,,,,,,,,,,
,,,,,,,,2023-08-16_08h39.16.705,HF_wild_card,2022.2.4,Win32,59.97361161,5c3d0637e0ea8200014601a4,64d2fd46c836a06233681665,64dc7d09eb1304cbf1f75c9d,,,,,,,decisionTrl,resources/DG.BMP,resources/DY.BMP,Door1,-0.291666667,0.003703704,1,0,0,1.3678,optionLeft,30,16370,7,30,0,30,0,1,,,,,,,,,,,,,,,,,,,,,,,,,,,,,,,,,,,,,,,
,,,,,,,,2023-08-16_08h39.16.705,HF_wild_card,2022.2.4,Win32,59.97361161,5c3d0637e0ea8200014601a4,64d2fd46c836a06233681665,64dc7d09eb1304cbf1f75c9d,,,,,,,ctch,resources/DR.BMP,resources/DY.BMP,Door3,-0.456481481,-0.025,1,0,0,3.9868,optionLeft,70,16440,7,31,0,31,0,1,,,,,,,,,,,,,,,,,,,,,,,,,,,,,,,,,,,,,,,
,,,,,,,,2023-08-16_08h39.16.705,HF_wild_card,2022.2.4,Win32,59.97361161,5c3d0637e0ea8200014601a4,64d2fd46c836a06233681665,64dc7d09eb1304cbf1f75c9d,,,,,,,decisionTrl,resources/DP.BMP,resources/DR.BMP,Door3,0.361111111,-0.011111111,1,0,0,0.4381,optionRight,70,16510,7,32,0,32,0,1,,,,,,,,,,,,,,,,,,,,,,,,,,,,,,,,,,,,,,,
,,,,,,,,2023-08-16_08h39.16.705,HF_wild_card,2022.2.4,Win32,59.97361161,5c3d0637e0ea8200014601a4,64d2fd46c836a06233681665,64dc7d09eb1304cbf1f75c9d,,,,,,,decisionTrl,resources/DP.BMP,resources/DR.BMP,Door4,-0.20462963,-0.040740741,1,0,0,0.6551,optionLeft,60,16570,7,33,0,33,0,1,,,,,,,,,,,,,,,,,,,,,,,,,,,,,,,,,,,,,,,
,,,,,,,,2023-08-16_08h39.16.705,HF_wild_card,2022.2.4,Win32,59.97361161,5c3d0637e0ea8200014601a4,64d2fd46c836a06233681665,64dc7d09eb1304cbf1f75c9d,,,,,,,ctch,resources/DP.BMP,resources/DG.BMP,Door4,-0.357407407,-0.071296296,1,0,0,0.4901,optionLeft,60,16630,7,34,0,34,0,1,,,,,,,,,,,,,,,,,,,,,,,,,,,,,,,,,,,,,,,
,,,,,,,,2023-08-16_08h39.16.705,HF_wild_card,2022.2.4,Win32,59.97361161,5c3d0637e0ea8200014601a4,64d2fd46c836a06233681665,64dc7d09eb1304cbf1f75c9d,,,,,,,decisionTrl,resources/DR.BMP,resources/DP.BMP,Door4,0.288888889,-0.066666667,1,0,0,0.4825,optionRight,60,16690,7,35,0,35,0,1,,,,,,,,,,,,,,,,,,,,,,,,,,,,,,,,,,,,,,,
,,,,,,,,2023-08-16_08h39.16.705,HF_wild_card,2022.2.4,Win32,59.97361161,5c3d0637e0ea8200014601a4,64d2fd46c836a06233681665,64dc7d09eb1304cbf1f75c9d,,,,,,,,,,,,,,,,,,,,,,,,,,6,0,6,0,1,,,,,,,,,,,,,,,,,,,,,,,,,,,,,,,,,,
,,,,,,,,2023-08-16_08h39.16.705,HF_wild_card,2022.2.4,Win32,59.97361161,5c3d0637e0ea8200014601a4,64d2fd46c836a06233681665,64dc7d09eb1304cbf1f75c9d,,,,,,,,,,,,,,,,,,,,,,,,,,,,,,,4,,,,,,,,,,,,,,,,,,,,,,,,,,,,,,,,,
,,,,,,,,2023-08-16_08h39.16.705,HF_wild_card,2022.2.4,Win32,59.97361161,5c3d0637e0ea8200014601a4,64d2fd46c836a06233681665,64dc7d09eb1304cbf1f75c9d,,,,,,,,,,,,,,,,,,,,,,,,,,,,,,,,,,,,,,,,,,,,,,,,,,,,,,,,,,,,,,,,
,,,,,,,,2023-08-16_08h39.16.705,HF_wild_card,2022.2.4,Win32,59.97361161,5c3d0637e0ea8200014601a4,64d2fd46c836a06233681665,64dc7d09eb1304cbf1f75c9d,,,,,,,,,,,,,,,,,,,,,,,,,,,,,,,,45,WC_nonExtreme,resources/DBN.BMP,0,0,0,0,1,,,,,,,,,,,,,,,,,,,,,,,,,
,,,,,,,,2023-08-16_08h39.16.705,HF_wild_card,2022.2.4,Win32,59.97361161,5c3d0637e0ea8200014601a4,64d2fd46c836a06233681665,64dc7d09eb1304cbf1f75c9d,,,,,,,,,,,,,,,,,,,,,,,,,,,,,,,,80,Door4,resources/DP.BMP,1,0,1,0,1,,,,,,,,,,,,,,,,,,,,,,,,,
,,,,,,,,2023-08-16_08h39.16.705,HF_wild_card,2022.2.4,Win32,59.97361161,5c3d0637e0ea8200014601a4,64d2fd46c836a06233681665,64dc7d09eb1304cbf1f75c9d,,,,,,,,,,,,,,,,,,,,,,,,,,,,,,,,95,WC_extreme,resources/DB.BMP,2,0,2,0,1,,,,,,,,,,,,,,,,,,,,,,,,,
,,,,,,,,2023-08-16_08h39.16.705,HF_wild_card,2022.2.4,Win32,59.97361161,5c3d0637e0ea8200014601a4,64d2fd46c836a06233681665,64dc7d09eb1304cbf1f75c9d,,,,,,,,,,,,,,,,,,,,,,,,,,,,,,,,70,Door3,resources/DR.BMP,3,0,3,0,1,,,,,,,,,,,,,,,,,,,,,,,,,
,,,,,,,,2023-08-16_08h39.16.705,HF_wild_card,2022.2.4,Win32,59.97361161,5c3d0637e0ea8200014601a4,64d2fd46c836a06233681665,64dc7d09eb1304cbf1f75c9d,,,,,,,,,,,,,,,,,,,,,,,,,,,,,,,,20,Door2,resources/DY.BMP,4,0,4,0,1,,,,,,,,,,,,,,,,,,,,,,,,,
,,,,,,,,2023-08-16_08h39.16.705,HF_wild_card,2022.2.4,Win32,59.97361161,5c3d0637e0ea8200014601a4,64d2fd46c836a06233681665,64dc7d09eb1304cbf1f75c9d,,,,,,,,,,,,,,,,,,,,,,,,,,,,,,,,30,Door1,resources/DG.BMP,5,0,5,0,1,,,,,,,,,,,,,,,,,,,,,,,,,
,,,,,,,,2023-08-16_08h39.16.705,HF_wild_card,2022.2.4,Win32,59.97361161,5c3d0637e0ea8200014601a4,64d2fd46c836a06233681665,64dc7d09eb1304cbf1f75c9d,,,,,,,,,,,,,,,,,,,,,,,,,,,,,,,,,,,,,,,,,,,,,,,,,,,,,,,,,,,,,,,,
