Condition,Low fixed image (Door1),Low risky image (Door2),High fixed image (Door3),High risky image (Door4),Extreme Wild Card,NonExtreme Wild Card,,date,expName,psychopyVersion,OS,frameRate,PROLIFIC_PID,STUDY_ID,SESSION_ID,mouse_2.x,mouse_2.y,mouse_2.leftButton,mouse_2.midButton,mouse_2.rightButton,mouse_2.clicked_name,Trial Type,Left Option Image,Right Option Image,Chosen Door,mouse.x,mouse.y,mouse.leftButton,mouse.midButton,mouse.rightButton,mouse.time,mouse.clicked_name,Feedback,Cumulative Reward,Block,trial.thisRepN,trial.thisTrialN,trial.thisN,trial.thisIndex,trial.ran,blocks.thisRepN,blocks.thisTrialN,blocks.thisN,blocks.thisIndex,blocks.ran,Money conversion,First Outcome Reported,Shown Door (First Outcome),Displayed Image (First Outcome),outcomes.thisRepN,outcomes.thisTrialN,outcomes.thisN,outcomes.thisIndex,outcomes.ran,judgments.thisRepN,judgments.thisTrialN,judgments.thisN,judgments.thisIndex,judgments.ran,freqMouse.x,freqMouse.y,freqMouse.leftButton,freqMouse.midButton,freqMouse.rightButton,freqMouse.clicked_name,FQJ for first outcome,FQJ for second outcome,Shown Door,Displayed Image,trials.thisRepN,trials.thisTrialN,trials.thisN,trials.thisIndex,trials.ran,judgBlock.thisRepN,judgBlock.thisTrialN,judgBlock.thisN,judgBlock.thisIndex,judgBlock.ran
0,resources/DB.BMP,resources/DG.BMP,resources/DR.BMP,resources/DP.BMP,resources/DBN.BMP,resources/DY.BMP,,2023-08-16_08h40.57.742,HF_wild_card,2022.2.4,Win32,59.94485074,58545249cceb5b0001e4875a,64d2fd46c836a06233681665,64dc7e6dbd8f1d06ebe1fcfd,,,,,,,,,,,,,,,,,,,,,,,,,,,,,,,,,,,,,,,,,,,,,,,,,,,,,,,,,,,,,,,,
,,,,,,,,2023-08-16_08h40.57.742,HF_wild_card,2022.2.4,Win32,59.94485074,58545249cceb5b0001e4875a,64d2fd46c836a06233681665,64dc7e6dbd8f1d06ebe1fcfd,0.002323384,-0.420316969,1,0,0,agree,,,,,,,,,,,,,,,,,,,,,,,,,,,,,,,,,,,,,,,,,,,,,,,,,,,,,,,,,,
,,,,,,,,2023-08-16_08h40.57.742,HF_wild_card,2022.2.4,Win32,59.94485074,58545249cceb5b0001e4875a,64d2fd46c836a06233681665,64dc7e6dbd8f1d06ebe1fcfd,,,,,,,,,,,,,,,,,,,,,,,,,,,,,,,,,,,,,,,,,,,,,,,,,,,,,,,,,,,,,,,,
,,,,,,,,2023-08-16_08h40.57.742,HF_wild_card,2022.2.4,Win32,59.94485074,58545249cceb5b0001e4875a,64d2fd46c836a06233681665,64dc7e6dbd8f1d06ebe1fcfd,,,,,,,sngl,resources/DBN.BMP,resources/Empty.png,WildCard_Ex,-0.282350929,0.015143725,1,0,0,2.3231,optionLeft,5,5,1,0,0,0,0,1,,,,,,,,,,,,,,,,,,,,,,,,,,,,,,,,,,,,,,,
,,,,,,,,2023-08-16_08h40.57.742,HF_wild_card,2022.2.4,Win32,59.94485074,58545249cceb5b0001e4875a,64d2fd46c836a06233681665,64dc7e6dbd8f1d06ebe1fcfd,,,,,,,decisionTrl,resources/DP.BMP,resources/DR.BMP,Door4,-0.288850278,-0.026452512,1,0,0,1.2989,optionLeft,60,65,1,1,0,1,0,1,,,,,,,,,,,,,,,,,,,,,,,,,,,,,,,,,,,,,,,
,,,,,,,,2023-08-16_08h40.57.742,HF_wild_card,2022.2.4,Win32,59.94485074,58545249cceb5b0001e4875a,64d2fd46c836a06233681665,64dc7e6dbd8f1d06ebe1fcfd,,,,,,,sngl,resources/Empty.png,resources/DBN.BMP,WildCard_Ex,0.37409,0.050240575,1,0,0,1.3032,optionRight,5,70,1,2,0,2,0,1,,,,,,,,,,,,,,,,,,,,,,,,,,,,,,,,,,,,,,,
,,,,,,,,2023-08-16_08h40.57.742,HF_wild_card,2022.2.4,Win32,59.94485074,58545249cceb5b0001e4875a,64d2fd46c836a06233681665,64dc7e6dbd8f1d06ebe1fcfd,,,,,,,sngl,resources/DR.BMP,resources/Empty.png,Door3,-0.248553918,-0.010853981,1,0,0,0.7979,optionLeft,70,140,1,3,0,3,0,1,,,,,,,,,,,,,,,,,,,,,,,,,,,,,,,,,,,,,,,
,,,,,,,,2023-08-16_08h40.57.742,HF_wild_card,2022.2.4,Win32,59.94485074,58545249cceb5b0001e4875a,64d2fd46c836a06233681665,64dc7e6dbd8f1d06ebe1fcfd,,,,,,,decisionTrl,resources/DR.BMP,resources/DBN.BMP,Door3,-0.269352037,0.000845033,1,0,0,1.0141,optionLeft,70,210,1,4,0,4,0,1,,,,,,,,,,,,,,,,,,,,,,,,,,,,,,,,,,,,,,,
,,,,,,,,2023-08-16_08h40.57.742,HF_wild_card,2022.2.4,Win32,59.94485074,58545249cceb5b0001e4875a,64d2fd46c836a06233681665,64dc7e6dbd8f1d06ebe1fcfd,,,,,,,decisionTrl,resources/DB.BMP,resources/DG.BMP,Door2,0.307795855,-0.018653286,1,0,0,1.129,optionRight,40,250,1,5,0,5,0,1,,,,,,,,,,,,,,,,,,,,,,,,,,,,,,,,,,,,,,,
,,,,,,,,2023-08-16_08h40.57.742,HF_wild_card,2022.2.4,Win32,59.94485074,58545249cceb5b0001e4875a,64d2fd46c836a06233681665,64dc7e6dbd8f1d06ebe1fcfd,,,,,,,decisionTrl,resources/DBN.BMP,resources/DP.BMP,Door4,0.328593974,-0.009554104,1,0,0,0.8321,optionRight,60,310,1,6,0,6,0,1,,,,,,,,,,,,,,,,,,,,,,,,,,,,,,,,,,,,,,,
,,,,,,,,2023-08-16_08h40.57.742,HF_wild_card,2022.2.4,Win32,59.94485074,58545249cceb5b0001e4875a,64d2fd46c836a06233681665,64dc7e6dbd8f1d06ebe1fcfd,,,,,,,decisionTrl,resources/DBN.BMP,resources/DG.BMP,Door2,0.332493607,0.013843848,1,0,0,1.1648,optionRight,20,330,1,7,0,7,0,1,,,,,,,,,,,,,,,,,,,,,,,,,,,,,,,,,,,,,,,
,,,,,,,,2023-08-16_08h40.57.742,HF_wild_card,2022.2.4,Win32,59.94485074,58545249cceb5b0001e4875a,64d2fd46c836a06233681665,64dc7e6dbd8f1d06ebe1fcfd,,,,,,,sngl,resources/DB.BMP,resources/Empty.png,Door1,-0.277151341,-0.040751243,1,0,0,1.2814,optionLeft,30,360,1,8,0,8,0,1,,,,,,,,,,,,,,,,,,,,,,,,,,,,,,,,,,,,,,,
,,,,,,,,2023-08-16_08h40.57.742,HF_wild_card,2022.2.4,Win32,59.94485074,58545249cceb5b0001e4875a,64d2fd46c836a06233681665,64dc7e6dbd8f1d06ebe1fcfd,,,,,,,decisionTrl,resources/DR.BMP,resources/DP.BMP,Door4,0.299996668,0.02294303,1,0,0,0.7816,optionRight,80,440,1,9,0,9,0,1,,,,,,,,,,,,,,,,,,,,,,,,,,,,,,,,,,,,,,,
,,,,,,,,2023-08-16_08h40.57.742,HF_wild_card,2022.2.4,Win32,59.94485074,58545249cceb5b0001e4875a,64d2fd46c836a06233681665,64dc7e6dbd8f1d06ebe1fcfd,,,,,,,sngl,resources/Empty.png,resources/DP.BMP,Door4,0.289597492,0.035941805,1,0,0,0.7172,optionRight,60,500,1,10,0,10,0,1,,,,,,,,,,,,,,,,,,,,,,,,,,,,,,,,,,,,,,,
,,,,,,,,2023-08-16_08h40.57.742,HF_wild_card,2022.2.4,Win32,59.94485074,58545249cceb5b0001e4875a,64d2fd46c836a06233681665,64dc7e6dbd8f1d06ebe1fcfd,,,,,,,ctch,resources/DP.BMP,resources/DB.BMP,Door4,-0.270651915,-0.062849239,1,0,0,0.8129,optionLeft,60,560,1,11,0,11,0,1,,,,,,,,,,,,,,,,,,,,,,,,,,,,,,,,,,,,,,,
,,,,,,,,2023-08-16_08h40.57.742,HF_wild_card,2022.2.4,Win32,59.94485074,58545249cceb5b0001e4875a,64d2fd46c836a06233681665,64dc7e6dbd8f1d06ebe1fcfd,,,,,,,decisionTrl,resources/DB.BMP,resources/DBN.BMP,Door1,-0.191359111,-0.016053453,1,0,0,0.7306,optionLeft,30,590,1,12,0,12,0,1,,,,,,,,,,,,,,,,,,,,,,,,,,,,,,,,,,,,,,,
,,,,,,,,2023-08-16_08h40.57.742,HF_wild_card,2022.2.4,Win32,59.94485074,58545249cceb5b0001e4875a,64d2fd46c836a06233681665,64dc7e6dbd8f1d06ebe1fcfd,,,,,,,decisionTrl,resources/DB.BMP,resources/DG.BMP,Door2,0.279198549,-0.016053453,1,0,0,0.8316,optionRight,40,630,1,13,0,13,0,1,,,,,,,,,,,,,,,,,,,,,,,,,,,,,,,,,,,,,,,
,,,,,,,,2023-08-16_08h40.57.742,HF_wild_card,2022.2.4,Win32,59.94485074,58545249cceb5b0001e4875a,64d2fd46c836a06233681665,64dc7e6dbd8f1d06ebe1fcfd,,,,,,,sngl,resources/Empty.png,resources/DB.BMP,Door1,0.290897369,0.020343274,1,0,0,0.8308,optionRight,30,660,1,14,0,14,0,1,,,,,,,,,,,,,,,,,,,,,,,,,,,,,,,,,,,,,,,
,,,,,,,,2023-08-16_08h40.57.742,HF_wild_card,2022.2.4,Win32,59.94485074,58545249cceb5b0001e4875a,64d2fd46c836a06233681665,64dc7e6dbd8f1d06ebe1fcfd,,,,,,,ctch,resources/DG.BMP,resources/DR.BMP,Door2,-0.19265895,-0.043350998,1,0,0,1.1152,optionLeft,40,700,1,15,0,15,0,1,,,,,,,,,,,,,,,,,,,,,,,,,,,,,,,,,,,,,,,
,,,,,,,,2023-08-16_08h40.57.742,HF_wild_card,2022.2.4,Win32,59.94485074,58545249cceb5b0001e4875a,64d2fd46c836a06233681665,64dc7e6dbd8f1d06ebe1fcfd,,,,,,,sngl,resources/DP.BMP,resources/Empty.png,Door4,-0.214757024,-0.029052345,1,0,0,0.8649,optionLeft,80,780,1,16,0,16,0,1,,,,,,,,,,,,,,,,,,,,,,,,,,,,,,,,,,,,,,,
,,,,,,,,2023-08-16_08h40.57.742,HF_wild_card,2022.2.4,Win32,59.94485074,58545249cceb5b0001e4875a,64d2fd46c836a06233681665,64dc7e6dbd8f1d06ebe1fcfd,,,,,,,ctch,resources/DB.BMP,resources/DP.BMP,Door4,0.34029295,0.091836774,1,0,0,1.2804,optionRight,60,840,1,17,0,17,0,1,,,,,,,,,,,,,,,,,,,,,,,,,,,,,,,,,,,,,,,
,,,,,,,,2023-08-16_08h40.57.742,HF_wild_card,2022.2.4,Win32,59.94485074,58545249cceb5b0001e4875a,64d2fd46c836a06233681665,64dc7e6dbd8f1d06ebe1fcfd,,,,,,,decisionTrl,resources/DP.BMP,resources/DR.BMP,Door4,-0.216056902,-0.081047603,1,0,0,0.9648,optionLeft,60,900,1,18,0,18,0,1,,,,,,,,,,,,,,,,,,,,,,,,,,,,,,,,,,,,,,,
,,,,,,,,2023-08-16_08h40.57.742,HF_wild_card,2022.2.4,Win32,59.94485074,58545249cceb5b0001e4875a,64d2fd46c836a06233681665,64dc7e6dbd8f1d06ebe1fcfd,,,,,,,decisionTrl,resources/DG.BMP,resources/DBN.BMP,Door2,-0.2576531,0.000845033,1,0,0,1.2316,optionLeft,40,940,1,19,0,19,0,1,,,,,,,,,,,,,,,,,,,,,,,,,,,,,,,,,,,,,,,
,,,,,,,,2023-08-16_08h40.57.742,HF_wild_card,2022.2.4,Win32,59.94485074,58545249cceb5b0001e4875a,64d2fd46c836a06233681665,64dc7e6dbd8f1d06ebe1fcfd,,,,,,,decisionTrl,resources/DB.BMP,resources/DG.BMP,Door2,0.281798304,-0.004354516,1,0,0,1.0317,optionRight,20,960,1,20,0,20,0,1,,,,,,,,,,,,,,,,,,,,,,,,,,,,,,,,,,,,,,,
,,,,,,,,2023-08-16_08h40.57.742,HF_wild_card,2022.2.4,Win32,59.94485074,58545249cceb5b0001e4875a,64d2fd46c836a06233681665,64dc7e6dbd8f1d06ebe1fcfd,,,,,,,ctch,resources/DG.BMP,resources/DR.BMP,Door2,-0.213457069,-0.053750058,1,0,0,1.3312,optionLeft,20,980,1,21,0,21,0,1,,,,,,,,,,,,,,,,,,,,,,,,,,,,,,,,,,,,,,,
,,,,,,,,2023-08-16_08h40.57.742,HF_wild_card,2022.2.4,Win32,59.94485074,58545249cceb5b0001e4875a,64d2fd46c836a06233681665,64dc7e6dbd8f1d06ebe1fcfd,,,,,,,sngl,resources/Empty.png,resources/DR.BMP,Door3,0.293497124,0.035941805,1,0,0,0.815,optionRight,70,1050,1,22,0,22,0,1,,,,,,,,,,,,,,,,,,,,,,,,,,,,,,,,,,,,,,,
,,,,,,,,2023-08-16_08h40.57.742,HF_wild_card,2022.2.4,Win32,59.94485074,58545249cceb5b0001e4875a,64d2fd46c836a06233681665,64dc7e6dbd8f1d06ebe1fcfd,,,,,,,ctch,resources/DB.BMP,resources/DP.BMP,Door4,0.289597492,0.016443603,1,0,0,0.6984,optionRight,80,1130,1,23,0,23,0,1,,,,,,,,,,,,,,,,,,,,,,,,,,,,,,,,,,,,,,,
,,,,,,,,2023-08-16_08h40.57.742,HF_wild_card,2022.2.4,Win32,59.94485074,58545249cceb5b0001e4875a,64d2fd46c836a06233681665,64dc7e6dbd8f1d06ebe1fcfd,,,,,,,decisionTrl,resources/DP.BMP,resources/DR.BMP,Door4,-0.112066269,-0.096646212,1,0,0,0.7488,optionLeft,60,1190,1,24,0,24,0,1,,,,,,,,,,,,,,,,,,,,,,,,,,,,,,,,,,,,,,,
,,,,,,,,2023-08-16_08h40.57.742,HF_wild_card,2022.2.4,Win32,59.94485074,58545249cceb5b0001e4875a,64d2fd46c836a06233681665,64dc7e6dbd8f1d06ebe1fcfd,,,,,,,decisionTrl,resources/DP.BMP,resources/DBN.BMP,Door4,-0.242054492,0.024242907,1,0,0,0.7873,optionLeft,60,1250,1,25,0,25,0,1,,,,,,,,,,,,,,,,,,,,,,,,,,,,,,,,,,,,,,,
,,,,,,,,2023-08-16_08h40.57.742,HF_wild_card,2022.2.4,Win32,59.94485074,58545249cceb5b0001e4875a,64d2fd46c836a06233681665,64dc7e6dbd8f1d06ebe1fcfd,,,,,,,ctch,resources/DP.BMP,resources/DB.BMP,Door4,-0.229055716,-0.08754703,1,0,0,0.764,optionLeft,80,1330,1,26,0,26,0,1,,,,,,,,,,,,,,,,,,,,,,,,,,,,,,,,,,,,,,,
,,,,,,,,2023-08-16_08h40.57.742,HF_wild_card,2022.2.4,Win32,59.94485074,58545249cceb5b0001e4875a,64d2fd46c836a06233681665,64dc7e6dbd8f1d06ebe1fcfd,,,,,,,decisionTrl,resources/DBN.BMP,resources/DB.BMP,Door1,0.249301132,0.02294303,1,0,0,0.8481,optionRight,30,1360,1,27,0,27,0,1,,,,,,,,,,,,,,,,,,,,,,,,,,,,,,,,,,,,,,,
,,,,,,,,2023-08-16_08h40.57.742,HF_wild_card,2022.2.4,Win32,59.94485074,58545249cceb5b0001e4875a,64d2fd46c836a06233681665,64dc7e6dbd8f1d06ebe1fcfd,,,,,,,decisionTrl,resources/DR.BMP,resources/DP.BMP,Door4,0.268799373,0.035941805,1,0,0,0.7482,optionRight,60,1420,1,28,0,28,0,1,,,,,,,,,,,,,,,,,,,,,,,,,,,,,,,,,,,,,,,
,,,,,,,,2023-08-16_08h40.57.742,HF_wild_card,2022.2.4,Win32,59.94485074,58545249cceb5b0001e4875a,64d2fd46c836a06233681665,64dc7e6dbd8f1d06ebe1fcfd,,,,,,,decisionTrl,resources/DG.BMP,resources/DB.BMP,Door2,-0.208257597,-0.043350998,1,0,0,1.2119,optionLeft,40,1460,1,29,0,29,0,1,,,,,,,,,,,,,,,,,,,,,,,,,,,,,,,,,,,,,,,
,,,,,,,,2023-08-16_08h40.57.742,HF_wild_card,2022.2.4,Win32,59.94485074,58545249cceb5b0001e4875a,64d2fd46c836a06233681665,64dc7e6dbd8f1d06ebe1fcfd,,,,,,,ctch,resources/DR.BMP,resources/DG.BMP,Door3,-0.226455961,-0.021253002,1,0,0,1.3448,optionLeft,70,1530,1,30,0,30,0,1,,,,,,,,,,,,,,,,,,,,,,,,,,,,,,,,,,,,,,,
,,,,,,,,2023-08-16_08h40.57.742,HF_wild_card,2022.2.4,Win32,59.94485074,58545249cceb5b0001e4875a,64d2fd46c836a06233681665,64dc7e6dbd8f1d06ebe1fcfd,,,,,,,decisionTrl,resources/DP.BMP,resources/DR.BMP,Door4,-0.193958827,-0.065448995,1,0,0,0.7794,optionLeft,80,1610,1,31,0,31,0,1,,,,,,,,,,,,,,,,,,,,,,,,,,,,,,,,,,,,,,,
,,,,,,,,2023-08-16_08h40.57.742,HF_wild_card,2022.2.4,Win32,59.94485074,58545249cceb5b0001e4875a,64d2fd46c836a06233681665,64dc7e6dbd8f1d06ebe1fcfd,,,,,,,sngl,resources/DBN.BMP,resources/Empty.png,WildCard_Ex,-0.173160709,-0.016053453,1,0,0,0.9236,optionLeft,95,1705,1,32,0,32,0,1,,,,,,,,,,,,,,,,,,,,,,,,,,,,,,,,,,,,,,,
,,,,,,,,2023-08-16_08h40.57.742,HF_wild_card,2022.2.4,Win32,59.94485074,58545249cceb5b0001e4875a,64d2fd46c836a06233681665,64dc7e6dbd8f1d06ebe1fcfd,,,,,,,decisionTrl,resources/DR.BMP,resources/DP.BMP,Door4,0.254500642,0.019043319,1,0,0,0.6319,optionRight,80,1785,1,33,0,33,0,1,,,,,,,,,,,,,,,,,,,,,,,,,,,,,,,,,,,,,,,
,,,,,,,,2023-08-16_08h40.57.742,HF_wild_card,2022.2.4,Win32,59.94485074,58545249cceb5b0001e4875a,64d2fd46c836a06233681665,64dc7e6dbd8f1d06ebe1fcfd,,,,,,,ctch,resources/DR.BMP,resources/DG.BMP,Door3,-0.23295531,-0.01735333,1,0,0,1.3306,optionLeft,70,1855,1,34,0,34,0,1,,,,,,,,,,,,,,,,,,,,,,,,,,,,,,,,,,,,,,,
,,,,,,,,2023-08-16_08h40.57.742,HF_wild_card,2022.2.4,Win32,59.94485074,58545249cceb5b0001e4875a,64d2fd46c836a06233681665,64dc7e6dbd8f1d06ebe1fcfd,,,,,,,decisionTrl,resources/DBN.BMP,resources/DR.BMP,Door3,0.267499496,0.029442456,1,0,0,0.7507,optionRight,70,1925,1,35,0,35,0,1,,,,,,,,,,,,,,,,,,,,,,,,,,,,,,,,,,,,,,,
,,,,,,,,2023-08-16_08h40.57.742,HF_wild_card,2022.2.4,Win32,59.94485074,58545249cceb5b0001e4875a,64d2fd46c836a06233681665,64dc7e6dbd8f1d06ebe1fcfd,,,,,,,sngl,resources/Empty.png,resources/DBN.BMP,WildCard_Ex,0.25580052,0.024242907,1,0,0,0.6975,optionRight,95,2020,1,36,0,36,0,1,,,,,,,,,,,,,,,,,,,,,,,,,,,,,,,,,,,,,,,
,,,,,,,,2023-08-16_08h40.57.742,HF_wild_card,2022.2.4,Win32,59.94485074,58545249cceb5b0001e4875a,64d2fd46c836a06233681665,64dc7e6dbd8f1d06ebe1fcfd,,,,,,,sngl,resources/Empty.png,resources/DG.BMP,Door2,0.289597492,0.030742334,1,0,0,0.8654,optionRight,20,2040,1,37,0,37,0,1,,,,,,,,,,,,,,,,,,,,,,,,,,,,,,,,,,,,,,,
,,,,,,,,2023-08-16_08h40.57.742,HF_wild_card,2022.2.4,Win32,59.94485074,58545249cceb5b0001e4875a,64d2fd46c836a06233681665,64dc7e6dbd8f1d06ebe1fcfd,,,,,,,decisionTrl,resources/DG.BMP,resources/DB.BMP,Door2,-0.205657842,-0.042051121,1,0,0,0.9985,optionLeft,40,2080,1,38,0,38,0,1,,,,,,,,,,,,,,,,,,,,,,,,,,,,,,,,,,,,,,,
,,,,,,,,2023-08-16_08h40.57.742,HF_wild_card,2022.2.4,Win32,59.94485074,58545249cceb5b0001e4875a,64d2fd46c836a06233681665,64dc7e6dbd8f1d06ebe1fcfd,,,,,,,decisionTrl,resources/DG.BMP,resources/DB.BMP,Door2,-0.205657842,-0.058949607,1,0,0,1.066,optionLeft,40,2120,1,39,0,39,0,1,,,,,,,,,,,,,,,,,,,,,,,,,,,,,,,,,,,,,,,
,,,,,,,,2023-08-16_08h40.57.742,HF_wild_card,2022.2.4,Win32,59.94485074,58545249cceb5b0001e4875a,64d2fd46c836a06233681665,64dc7e6dbd8f1d06ebe1fcfd,,,,,,,decisionTrl,resources/DG.BMP,resources/DB.BMP,Door2,-0.22255625,-0.056349891,1,0,0,0.9986,optionLeft,40,2160,1,40,0,40,0,1,,,,,,,,,,,,,,,,,,,,,,,,,,,,,,,,,,,,,,,
,,,,,,,,2023-08-16_08h40.57.742,HF_wild_card,2022.2.4,Win32,59.94485074,58545249cceb5b0001e4875a,64d2fd46c836a06233681665,64dc7e6dbd8f1d06ebe1fcfd,,,,,,,sngl,resources/DG.BMP,resources/Empty.png,Door2,-0.19265895,-0.044650876,1,0,0,0.7814,optionLeft,40,2200,1,41,0,41,0,1,,,,,,,,,,,,,,,,,,,,,,,,,,,,,,,,,,,,,,,
,,,,,,,,2023-08-16_08h40.57.742,HF_wild_card,2022.2.4,Win32,59.94485074,58545249cceb5b0001e4875a,64d2fd46c836a06233681665,64dc7e6dbd8f1d06ebe1fcfd,,,,,,,decisionTrl,resources/DR.BMP,resources/DP.BMP,Door4,0.227203136,0.041141393,1,0,0,0.8648,optionRight,80,2280,1,42,0,42,0,1,,,,,,,,,,,,,,,,,,,,,,,,,,,,,,,,,,,,,,,
,,,,,,,,2023-08-16_08h40.57.742,HF_wild_card,2022.2.4,Win32,59.94485074,58545249cceb5b0001e4875a,64d2fd46c836a06233681665,64dc7e6dbd8f1d06ebe1fcfd,,,,,,,decisionTrl,resources/DB.BMP,resources/DG.BMP,Door2,0.253200765,0.077538121,1,0,0,0.865,optionRight,40,2320,1,43,0,43,0,1,,,,,,,,,,,,,,,,,,,,,,,,,,,,,,,,,,,,,,,
,,,,,,,,2023-08-16_08h40.57.742,HF_wild_card,2022.2.4,Win32,59.94485074,58545249cceb5b0001e4875a,64d2fd46c836a06233681665,64dc7e6dbd8f1d06ebe1fcfd,,,,,,,,,,,,,,,,,,,,,,,,,,0,0,0,0,1,,,,,,,,,,,,,,,,,,,,,,,,,,,,,,,,,,
,,,,,,,,2023-08-16_08h40.57.742,HF_wild_card,2022.2.4,Win32,59.94485074,58545249cceb5b0001e4875a,64d2fd46c836a06233681665,64dc7e6dbd8f1d06ebe1fcfd,,,,,,,sngl,resources/DBN.BMP,resources/Empty.png,WildCard_Ex,-0.209557475,-0.029052345,1,0,0,0.8352,optionLeft,95,2415,2,0,0,0,0,1,,,,,,,,,,,,,,,,,,,,,,,,,,,,,,,,,,,,,,,
,,,,,,,,2023-08-16_08h40.57.742,HF_wild_card,2022.2.4,Win32,59.94485074,58545249cceb5b0001e4875a,64d2fd46c836a06233681665,64dc7e6dbd8f1d06ebe1fcfd,,,,,,,decisionTrl,resources/DG.BMP,resources/DBN.BMP,WildCard_Ex,0.262300063,0.065839106,1,0,0,0.665,optionRight,95,2510,2,1,0,1,0,1,,,,,,,,,,,,,,,,,,,,,,,,,,,,,,,,,,,,,,,
,,,,,,,,2023-08-16_08h40.57.742,HF_wild_card,2022.2.4,Win32,59.94485074,58545249cceb5b0001e4875a,64d2fd46c836a06233681665,64dc7e6dbd8f1d06ebe1fcfd,,,,,,,decisionTrl,resources/DBN.BMP,resources/DP.BMP,WildCard_Ex,-0.256353262,-0.062849239,1,0,0,0.7479,optionLeft,5,2515,2,2,0,2,0,1,,,,,,,,,,,,,,,,,,,,,,,,,,,,,,,,,,,,,,,
,,,,,,,,2023-08-16_08h40.57.742,HF_wild_card,2022.2.4,Win32,59.94485074,58545249cceb5b0001e4875a,64d2fd46c836a06233681665,64dc7e6dbd8f1d06ebe1fcfd,,,,,,,ctch,resources/DB.BMP,resources/DP.BMP,Door4,0.257100553,-0.000454922,1,0,0,0.7318,optionRight,80,2595,2,3,0,3,0,1,,,,,,,,,,,,,,,,,,,,,,,,,,,,,,,,,,,,,,,
,,,,,,,,2023-08-16_08h40.57.742,HF_wild_card,2022.2.4,Win32,59.94485074,58545249cceb5b0001e4875a,64d2fd46c836a06233681665,64dc7e6dbd8f1d06ebe1fcfd,,,,,,,ctch,resources/DB.BMP,resources/DP.BMP,Door4,0.286997737,-0.005654393,1,0,0,0.7152,optionRight,60,2655,2,4,0,4,0,1,,,,,,,,,,,,,,,,,,,,,,,,,,,,,,,,,,,,,,,
,,,,,,,,2023-08-16_08h40.57.742,HF_wild_card,2022.2.4,Win32,59.94485074,58545249cceb5b0001e4875a,64d2fd46c836a06233681665,64dc7e6dbd8f1d06ebe1fcfd,,,,,,,sngl,resources/Empty.png,resources/DR.BMP,Door3,0.302596345,0.041141393,1,0,0,0.7321,optionRight,70,2725,2,5,0,5,0,1,,,,,,,,,,,,,,,,,,,,,,,,,,,,,,,,,,,,,,,
,,,,,,,,2023-08-16_08h40.57.742,HF_wild_card,2022.2.4,Win32,59.94485074,58545249cceb5b0001e4875a,64d2fd46c836a06233681665,64dc7e6dbd8f1d06ebe1fcfd,,,,,,,decisionTrl,resources/DBN.BMP,resources/DG.BMP,WildCard_Ex,-0.204357887,-0.000454922,1,0,0,0.8668,optionLeft,95,2820,2,6,0,6,0,1,,,,,,,,,,,,,,,,,,,,,,,,,,,,,,,,,,,,,,,
,,,,,,,,2023-08-16_08h40.57.742,HF_wild_card,2022.2.4,Win32,59.94485074,58545249cceb5b0001e4875a,64d2fd46c836a06233681665,64dc7e6dbd8f1d06ebe1fcfd,,,,,,,decisionTrl,resources/DG.BMP,resources/DB.BMP,Door2,-0.231655432,-0.040751243,1,0,0,0.8809,optionLeft,40,2860,2,7,0,7,0,1,,,,,,,,,,,,,,,,,,,,,,,,,,,,,,,,,,,,,,,
,,,,,,,,2023-08-16_08h40.57.742,HF_wild_card,2022.2.4,Win32,59.94485074,58545249cceb5b0001e4875a,64d2fd46c836a06233681665,64dc7e6dbd8f1d06ebe1fcfd,,,,,,,decisionTrl,resources/DBN.BMP,resources/DR.BMP,WildCard_Ex,-0.195258783,-0.06674895,1,0,0,0.6483,optionLeft,5,2865,2,8,0,8,0,1,,,,,,,,,,,,,,,,,,,,,,,,,,,,,,,,,,,,,,,
,,,,,,,,2023-08-16_08h40.57.742,HF_wild_card,2022.2.4,Win32,59.94485074,58545249cceb5b0001e4875a,64d2fd46c836a06233681665,64dc7e6dbd8f1d06ebe1fcfd,,,,,,,ctch,resources/DR.BMP,resources/DG.BMP,Door2,0.240202067,-0.022552879,1,0,0,0.8822,optionRight,40,2905,2,9,0,9,0,1,,,,,,,,,,,,,,,,,,,,,,,,,,,,,,,,,,,,,,,
,,,,,,,,2023-08-16_08h40.57.742,HF_wild_card,2022.2.4,Win32,59.94485074,58545249cceb5b0001e4875a,64d2fd46c836a06233681665,64dc7e6dbd8f1d06ebe1fcfd,,,,,,,ctch,resources/DP.BMP,resources/DB.BMP,Door4,-0.180960052,-0.126543512,1,0,0,0.6819,optionLeft,60,2965,2,10,0,10,0,1,,,,,,,,,,,,,,,,,,,,,,,,,,,,,,,,,,,,,,,
,,,,,,,,2023-08-16_08h40.57.742,HF_wild_card,2022.2.4,Win32,59.94485074,58545249cceb5b0001e4875a,64d2fd46c836a06233681665,64dc7e6dbd8f1d06ebe1fcfd,,,,,,,decisionTrl,resources/DB.BMP,resources/DG.BMP,Door1,-0.188759356,-0.094046418,1,0,0,1.0152,optionLeft,30,2995,2,11,0,11,0,1,,,,,,,,,,,,,,,,,,,,,,,,,,,,,,,,,,,,,,,
,,,,,,,,2023-08-16_08h40.57.742,HF_wild_card,2022.2.4,Win32,59.94485074,58545249cceb5b0001e4875a,64d2fd46c836a06233681665,64dc7e6dbd8f1d06ebe1fcfd,,,,,,,decisionTrl,resources/DG.BMP,resources/DB.BMP,Door2,-0.188759356,-0.06674895,1,0,0,0.8149,optionLeft,40,3035,2,12,0,12,0,1,,,,,,,,,,,,,,,,,,,,,,,,,,,,,,,,,,,,,,,
,,,,,,,,2023-08-16_08h40.57.742,HF_wild_card,2022.2.4,Win32,59.94485074,58545249cceb5b0001e4875a,64d2fd46c836a06233681665,64dc7e6dbd8f1d06ebe1fcfd,,,,,,,ctch,resources/DG.BMP,resources/DR.BMP,Door3,0.190806408,0.056739924,1,0,0,0.7816,optionRight,70,3105,2,13,0,13,0,1,,,,,,,,,,,,,,,,,,,,,,,,,,,,,,,,,,,,,,,
,,,,,,,,2023-08-16_08h40.57.742,HF_wild_card,2022.2.4,Win32,59.94485074,58545249cceb5b0001e4875a,64d2fd46c836a06233681665,64dc7e6dbd8f1d06ebe1fcfd,,,,,,,decisionTrl,resources/DG.BMP,resources/DB.BMP,Door2,-0.197858538,-0.047250709,1,0,0,1.0321,optionLeft,40,3145,2,14,0,14,0,1,,,,,,,,,,,,,,,,,,,,,,,,,,,,,,,,,,,,,,,
,,,,,,,,2023-08-16_08h40.57.742,HF_wild_card,2022.2.4,Win32,59.94485074,58545249cceb5b0001e4875a,64d2fd46c836a06233681665,64dc7e6dbd8f1d06ebe1fcfd,,,,,,,decisionTrl,resources/DB.BMP,resources/DG.BMP,Door2,0.25840043,0.069738816,1,0,0,0.7652,optionRight,40,3185,2,15,0,15,0,1,,,,,,,,,,,,,,,,,,,,,,,,,,,,,,,,,,,,,,,
,,,,,,,,2023-08-16_08h40.57.742,HF_wild_card,2022.2.4,Win32,59.94485074,58545249cceb5b0001e4875a,64d2fd46c836a06233681665,64dc7e6dbd8f1d06ebe1fcfd,,,,,,,sngl,resources/Empty.png,resources/DBN.BMP,WildCard_Ex,0.293497124,0.077538121,1,0,0,0.7487,optionRight,5,3190,2,16,0,16,0,1,,,,,,,,,,,,,,,,,,,,,,,,,,,,,,,,,,,,,,,
,,,,,,,,2023-08-16_08h40.57.742,HF_wild_card,2022.2.4,Win32,59.94485074,58545249cceb5b0001e4875a,64d2fd46c836a06233681665,64dc7e6dbd8f1d06ebe1fcfd,,,,,,,sngl,resources/Empty.png,resources/DG.BMP,Door2,0.02442138,-0.131743022,1,0,0,0.467,optionRight,40,3230,2,17,0,17,0,1,,,,,,,,,,,,,,,,,,,,,,,,,,,,,,,,,,,,,,,
,,,,,,,,2023-08-16_08h40.57.742,HF_wild_card,2022.2.4,Win32,59.94485074,58545249cceb5b0001e4875a,64d2fd46c836a06233681665,64dc7e6dbd8f1d06ebe1fcfd,,,,,,,sngl,resources/DR.BMP,resources/Empty.png,Door3,-0.173160709,-0.014753575,1,0,0,0.6604,optionLeft,70,3300,2,18,0,18,0,1,,,,,,,,,,,,,,,,,,,,,,,,,,,,,,,,,,,,,,,
,,,,,,,,2023-08-16_08h40.57.742,HF_wild_card,2022.2.4,Win32,59.94485074,58545249cceb5b0001e4875a,64d2fd46c836a06233681665,64dc7e6dbd8f1d06ebe1fcfd,,,,,,,sngl,resources/Empty.png,resources/DP.BMP,Door4,0.314295399,0.112634892,1,0,0,0.5478,optionRight,80,3380,2,19,0,19,0,1,,,,,,,,,,,,,,,,,,,,,,,,,,,,,,,,,,,,,,,
,,,,,,,,2023-08-16_08h40.57.742,HF_wild_card,2022.2.4,Win32,59.94485074,58545249cceb5b0001e4875a,64d2fd46c836a06233681665,64dc7e6dbd8f1d06ebe1fcfd,,,,,,,ctch,resources/DP.BMP,resources/DB.BMP,Door4,-0.138063859,-0.044650876,1,0,0,0.5981,optionLeft,60,3440,2,20,0,20,0,1,,,,,,,,,,,,,,,,,,,,,,,,,,,,,,,,,,,,,,,
,,,,,,,,2023-08-16_08h40.57.742,HF_wild_card,2022.2.4,Win32,59.94485074,58545249cceb5b0001e4875a,64d2fd46c836a06233681665,64dc7e6dbd8f1d06ebe1fcfd,,,,,,,sngl,resources/Empty.png,resources/DB.BMP,Door1,0.322094586,0.060639634,1,0,0,0.6789,optionRight,30,3470,2,21,0,21,0,1,,,,,,,,,,,,,,,,,,,,,,,,,,,,,,,,,,,,,,,
,,,,,,,,2023-08-16_08h40.57.742,HF_wild_card,2022.2.4,Win32,59.94485074,58545249cceb5b0001e4875a,64d2fd46c836a06233681665,64dc7e6dbd8f1d06ebe1fcfd,,,,,,,ctch,resources/DR.BMP,resources/DG.BMP,Door3,-0.210857314,0.021643152,1,0,0,0.9981,optionLeft,70,3540,2,22,0,22,0,1,,,,,,,,,,,,,,,,,,,,,,,,,,,,,,,,,,,,,,,
,,,,,,,,2023-08-16_08h40.57.742,HF_wild_card,2022.2.4,Win32,59.94485074,58545249cceb5b0001e4875a,64d2fd46c836a06233681665,64dc7e6dbd8f1d06ebe1fcfd,,,,,,,sngl,resources/DP.BMP,resources/Empty.png,Door4,-0.1276648,-0.031652061,1,0,0,0.9487,optionLeft,60,3600,2,23,0,23,0,1,,,,,,,,,,,,,,,,,,,,,,,,,,,,,,,,,,,,,,,
,,,,,,,,2023-08-16_08h40.57.742,HF_wild_card,2022.2.4,Win32,59.94485074,58545249cceb5b0001e4875a,64d2fd46c836a06233681665,64dc7e6dbd8f1d06ebe1fcfd,,,,,,,decisionTrl,resources/DP.BMP,resources/DR.BMP,Door4,-0.174460586,-0.018653286,1,0,0,0.6985,optionLeft,80,3680,2,24,0,24,0,1,,,,,,,,,,,,,,,,,,,,,,,,,,,,,,,,,,,,,,,
,,,,,,,,2023-08-16_08h40.57.742,HF_wild_card,2022.2.4,Win32,59.94485074,58545249cceb5b0001e4875a,64d2fd46c836a06233681665,64dc7e6dbd8f1d06ebe1fcfd,,,,,,,decisionTrl,resources/DB.BMP,resources/DG.BMP,Door2,0.272699006,0.042441271,1,0,0,1.0477,optionRight,40,3720,2,25,0,25,0,1,,,,,,,,,,,,,,,,,,,,,,,,,,,,,,,,,,,,,,,
,,,,,,,,2023-08-16_08h40.57.742,HF_wild_card,2022.2.4,Win32,59.94485074,58545249cceb5b0001e4875a,64d2fd46c836a06233681665,64dc7e6dbd8f1d06ebe1fcfd,,,,,,,decisionTrl,resources/DG.BMP,resources/DB.BMP,Door1,0.270099251,0.039841516,1,0,0,1.0651,optionRight,30,3750,2,26,0,26,0,1,,,,,,,,,,,,,,,,,,,,,,,,,,,,,,,,,,,,,,,
,,,,,,,,2023-08-16_08h40.57.742,HF_wild_card,2022.2.4,Win32,59.94485074,58545249cceb5b0001e4875a,64d2fd46c836a06233681665,64dc7e6dbd8f1d06ebe1fcfd,,,,,,,decisionTrl,resources/DR.BMP,resources/DBN.BMP,WildCard_Ex,0.292197247,0.059339757,1,0,0,0.932,optionRight,95,3845,2,27,0,27,0,1,,,,,,,,,,,,,,,,,,,,,,,,,,,,,,,,,,,,,,,
,,,,,,,,2023-08-16_08h40.57.742,HF_wild_card,2022.2.4,Win32,59.94485074,58545249cceb5b0001e4875a,64d2fd46c836a06233681665,64dc7e6dbd8f1d06ebe1fcfd,,,,,,,decisionTrl,resources/DR.BMP,resources/DP.BMP,Door4,0.301296468,0.046340865,1,0,0,0.9295,optionRight,60,3905,2,28,0,28,0,1,,,,,,,,,,,,,,,,,,,,,,,,,,,,,,,,,,,,,,,
,,,,,,,,2023-08-16_08h40.57.742,HF_wild_card,2022.2.4,Win32,59.94485074,58545249cceb5b0001e4875a,64d2fd46c836a06233681665,64dc7e6dbd8f1d06ebe1fcfd,,,,,,,decisionTrl,resources/DR.BMP,resources/DP.BMP,Door4,0.237602312,0.089237057,1,0,0,0.8481,optionRight,60,3965,2,29,0,29,0,1,,,,,,,,,,,,,,,,,,,,,,,,,,,,,,,,,,,,,,,
,,,,,,,,2023-08-16_08h40.57.742,HF_wild_card,2022.2.4,Win32,59.94485074,58545249cceb5b0001e4875a,64d2fd46c836a06233681665,64dc7e6dbd8f1d06ebe1fcfd,,,,,,,sngl,resources/Empty.png,resources/DBN.BMP,WildCard_Ex,0.296097035,0.085337347,1,0,0,0.7333,optionRight,95,4060,2,30,0,30,0,1,,,,,,,,,,,,,,,,,,,,,,,,,,,,,,,,,,,,,,,
,,,,,,,,2023-08-16_08h40.57.742,HF_wild_card,2022.2.4,Win32,59.94485074,58545249cceb5b0001e4875a,64d2fd46c836a06233681665,64dc7e6dbd8f1d06ebe1fcfd,,,,,,,decisionTrl,resources/DB.BMP,resources/DBN.BMP,WildCard_Ex,0.281798304,0.071038694,1,0,0,0.7817,optionRight,5,4065,2,31,0,31,0,1,,,,,,,,,,,,,,,,,,,,,,,,,,,,,,,,,,,,,,,
,,,,,,,,2023-08-16_08h40.57.742,HF_wild_card,2022.2.4,Win32,59.94485074,58545249cceb5b0001e4875a,64d2fd46c836a06233681665,64dc7e6dbd8f1d06ebe1fcfd,,,,,,,sngl,resources/DBN.BMP,resources/Empty.png,WildCard_Ex,-0.186159601,-0.036851572,1,0,0,0.7336,optionLeft,5,4070,2,32,0,32,0,1,,,,,,,,,,,,,,,,,,,,,,,,,,,,,,,,,,,,,,,
,,,,,,,,2023-08-16_08h40.57.742,HF_wild_card,2022.2.4,Win32,59.94485074,58545249cceb5b0001e4875a,64d2fd46c836a06233681665,64dc7e6dbd8f1d06ebe1fcfd,,,,,,,decisionTrl,resources/DR.BMP,resources/DP.BMP,Door4,0.292197247,0.065839106,1,0,0,0.6506,optionRight,60,4130,2,33,0,33,0,1,,,,,,,,,,,,,,,,,,,,,,,,,,,,,,,,,,,,,,,
,,,,,,,,2023-08-16_08h40.57.742,HF_wild_card,2022.2.4,Win32,59.94485074,58545249cceb5b0001e4875a,64d2fd46c836a06233681665,64dc7e6dbd8f1d06ebe1fcfd,,,,,,,decisionTrl,resources/DP.BMP,resources/DR.BMP,Door4,-0.212157191,-0.021253002,1,0,0,0.7481,optionLeft,60,4190,2,34,0,34,0,1,,,,,,,,,,,,,,,,,,,,,,,,,,,,,,,,,,,,,,,
,,,,,,,,2023-08-16_08h40.57.742,HF_wild_card,2022.2.4,Win32,59.94485074,58545249cceb5b0001e4875a,64d2fd46c836a06233681665,64dc7e6dbd8f1d06ebe1fcfd,,,,,,,decisionTrl,resources/DP.BMP,resources/DR.BMP,Door4,-0.16666136,-0.035551694,1,0,0,0.8822,optionLeft,80,4270,2,35,0,35,0,1,,,,,,,,,,,,,,,,,,,,,,,,,,,,,,,,,,,,,,,
,,,,,,,,2023-08-16_08h40.57.742,HF_wild_card,2022.2.4,Win32,59.94485074,58545249cceb5b0001e4875a,64d2fd46c836a06233681665,64dc7e6dbd8f1d06ebe1fcfd,,,,,,,sngl,resources/DB.BMP,resources/Empty.png,Door1,-0.186159601,-0.029052345,1,0,0,0.7603,optionLeft,30,4300,2,36,0,36,0,1,,,,,,,,,,,,,,,,,,,,,,,,,,,,,,,,,,,,,,,
,,,,,,,,2023-08-16_08h40.57.742,HF_wild_card,2022.2.4,Win32,59.94485074,58545249cceb5b0001e4875a,64d2fd46c836a06233681665,64dc7e6dbd8f1d06ebe1fcfd,,,,,,,decisionTrl,resources/DB.BMP,resources/DG.BMP,Door2,0.253200765,0.056739924,1,0,0,1.0141,optionRight,40,4340,2,37,0,37,0,1,,,,,,,,,,,,,,,,,,,,,,,,,,,,,,,,,,,,,,,
,,,,,,,,2023-08-16_08h40.57.742,HF_wild_card,2022.2.4,Win32,59.94485074,58545249cceb5b0001e4875a,64d2fd46c836a06233681665,64dc7e6dbd8f1d06ebe1fcfd,,,,,,,decisionTrl,resources/DP.BMP,resources/DBN.BMP,Door4,-0.156262223,-0.079747726,1,0,0,0.8304,optionLeft,60,4400,2,38,0,38,0,1,,,,,,,,,,,,,,,,,,,,,,,,,,,,,,,,,,,,,,,
,,,,,,,,2023-08-16_08h40.57.742,HF_wild_card,2022.2.4,Win32,59.94485074,58545249cceb5b0001e4875a,64d2fd46c836a06233681665,64dc7e6dbd8f1d06ebe1fcfd,,,,,,,sngl,resources/DG.BMP,resources/Empty.png,Door2,-0.197858538,-0.06674895,1,0,0,0.6316,optionLeft,20,4420,2,39,0,39,0,1,,,,,,,,,,,,,,,,,,,,,,,,,,,,,,,,,,,,,,,
,,,,,,,,2023-08-16_08h40.57.742,HF_wild_card,2022.2.4,Win32,59.94485074,58545249cceb5b0001e4875a,64d2fd46c836a06233681665,64dc7e6dbd8f1d06ebe1fcfd,,,,,,,decisionTrl,resources/DBN.BMP,resources/DB.BMP,WildCard_Ex,-0.251153673,-0.035551694,1,0,0,0.8463,optionLeft,95,4515,2,40,0,40,0,1,,,,,,,,,,,,,,,,,,,,,,,,,,,,,,,,,,,,,,,
,,,,,,,,2023-08-16_08h40.57.742,HF_wild_card,2022.2.4,Win32,59.94485074,58545249cceb5b0001e4875a,64d2fd46c836a06233681665,64dc7e6dbd8f1d06ebe1fcfd,,,,,,,decisionTrl,resources/DP.BMP,resources/DR.BMP,Door4,-0.149762874,-0.029052345,1,0,0,0.8982,optionLeft,60,4575,2,41,0,41,0,1,,,,,,,,,,,,,,,,,,,,,,,,,,,,,,,,,,,,,,,
,,,,,,,,2023-08-16_08h40.57.742,HF_wild_card,2022.2.4,Win32,59.94485074,58545249cceb5b0001e4875a,64d2fd46c836a06233681665,64dc7e6dbd8f1d06ebe1fcfd,,,,,,,ctch,resources/DG.BMP,resources/DR.BMP,Door3,0.227203136,0.01254397,1,0,0,1.2806,optionRight,70,4645,2,42,0,42,0,1,,,,,,,,,,,,,,,,,,,,,,,,,,,,,,,,,,,,,,,
,,,,,,,,2023-08-16_08h40.57.742,HF_wild_card,2022.2.4,Win32,59.94485074,58545249cceb5b0001e4875a,64d2fd46c836a06233681665,64dc7e6dbd8f1d06ebe1fcfd,,,,,,,decisionTrl,resources/DR.BMP,resources/DP.BMP,Door3,-0.17186087,-0.040751243,1,0,0,0.7331,optionLeft,70,4715,2,43,0,43,0,1,,,,,,,,,,,,,,,,,,,,,,,,,,,,,,,,,,,,,,,
,,,,,,,,2023-08-16_08h40.57.742,HF_wild_card,2022.2.4,Win32,59.94485074,58545249cceb5b0001e4875a,64d2fd46c836a06233681665,64dc7e6dbd8f1d06ebe1fcfd,,,,,,,,,,,,,,,,,,,,,,,,,,1,0,1,0,1,,,,,,,,,,,,,,,,,,,,,,,,,,,,,,,,,,
,,,,,,,,2023-08-16_08h40.57.742,HF_wild_card,2022.2.4,Win32,59.94485074,58545249cceb5b0001e4875a,64d2fd46c836a06233681665,64dc7e6dbd8f1d06ebe1fcfd,,,,,,,decisionTrl,resources/DB.BMP,resources/DBN.BMP,WildCard_Ex,0.286997737,0.042441271,1,0,0,0.9454,optionRight,95,4810,3,0,0,0,0,1,,,,,,,,,,,,,,,,,,,,,,,,,,,,,,,,,,,,,,,
,,,,,,,,2023-08-16_08h40.57.742,HF_wild_card,2022.2.4,Win32,59.94485074,58545249cceb5b0001e4875a,64d2fd46c836a06233681665,64dc7e6dbd8f1d06ebe1fcfd,,,,,,,sngl,resources/Empty.png,resources/DP.BMP,Door4,0.286997737,0.093136651,1,0,0,0.6625,optionRight,60,4870,3,1,0,1,0,1,,,,,,,,,,,,,,,,,,,,,,,,,,,,,,,,,,,,,,,
,,,,,,,,2023-08-16_08h40.57.742,HF_wild_card,2022.2.4,Win32,59.94485074,58545249cceb5b0001e4875a,64d2fd46c836a06233681665,64dc7e6dbd8f1d06ebe1fcfd,,,,,,,decisionTrl,resources/DP.BMP,resources/DR.BMP,Door4,-0.213457069,0.017743442,1,0,0,0.8458,optionLeft,60,4930,3,2,0,2,0,1,,,,,,,,,,,,,,,,,,,,,,,,,,,,,,,,,,,,,,,
,,,,,,,,2023-08-16_08h40.57.742,HF_wild_card,2022.2.4,Win32,59.94485074,58545249cceb5b0001e4875a,64d2fd46c836a06233681665,64dc7e6dbd8f1d06ebe1fcfd,,,,,,,decisionTrl,resources/DG.BMP,resources/DB.BMP,Door1,0.218103915,0.043741148,1,0,0,1.6465,optionRight,30,4960,3,3,0,3,0,1,,,,,,,,,,,,,,,,,,,,,,,,,,,,,,,,,,,,,,,
,,,,,,,,2023-08-16_08h40.57.742,HF_wild_card,2022.2.4,Win32,59.94485074,58545249cceb5b0001e4875a,64d2fd46c836a06233681665,64dc7e6dbd8f1d06ebe1fcfd,,,,,,,decisionTrl,resources/DBN.BMP,resources/DG.BMP,WildCard_Ex,-0.178360297,-0.099245967,1,0,0,0.8977,optionLeft,5,4965,3,4,0,4,0,1,,,,,,,,,,,,,,,,,,,,,,,,,,,,,,,,,,,,,,,
,,,,,,,,2023-08-16_08h40.57.742,HF_wild_card,2022.2.4,Win32,59.94485074,58545249cceb5b0001e4875a,64d2fd46c836a06233681665,64dc7e6dbd8f1d06ebe1fcfd,,,,,,,sngl,resources/DP.BMP,resources/Empty.png,Door4,-0.178360297,-0.109645026,1,0,0,0.6631,optionLeft,80,5045,3,5,0,5,0,1,,,,,,,,,,,,,,,,,,,,,,,,,,,,,,,,,,,,,,,
,,,,,,,,2023-08-16_08h40.57.742,HF_wild_card,2022.2.4,Win32,59.94485074,58545249cceb5b0001e4875a,64d2fd46c836a06233681665,64dc7e6dbd8f1d06ebe1fcfd,,,,,,,sngl,resources/Empty.png,resources/DB.BMP,Door1,0.254500642,0.110035176,1,0,0,0.6945,optionRight,30,5075,3,6,0,6,0,1,,,,,,,,,,,,,,,,,,,,,,,,,,,,,,,,,,,,,,,
,,,,,,,,2023-08-16_08h40.57.742,HF_wild_card,2022.2.4,Win32,59.94485074,58545249cceb5b0001e4875a,64d2fd46c836a06233681665,64dc7e6dbd8f1d06ebe1fcfd,,,,,,,ctch,resources/DP.BMP,resources/DB.BMP,Door4,-0.226455961,-0.027752468,1,0,0,0.8154,optionLeft,60,5135,3,7,0,7,0,1,,,,,,,,,,,,,,,,,,,,,,,,,,,,,,,,,,,,,,,
,,,,,,,,2023-08-16_08h40.57.742,HF_wild_card,2022.2.4,Win32,59.94485074,58545249cceb5b0001e4875a,64d2fd46c836a06233681665,64dc7e6dbd8f1d06ebe1fcfd,,,,,,,decisionTrl,resources/DG.BMP,resources/DBN.BMP,WildCard_Ex,0.390988486,0.089237057,1,0,0,0.9129,optionRight,5,5140,3,8,0,8,0,1,,,,,,,,,,,,,,,,,,,,,,,,,,,,,,,,,,,,,,,
,,,,,,,,2023-08-16_08h40.57.742,HF_wild_card,2022.2.4,Win32,59.94485074,58545249cceb5b0001e4875a,64d2fd46c836a06233681665,64dc7e6dbd8f1d06ebe1fcfd,,,,,,,sngl,resources/DBN.BMP,resources/Empty.png,WildCard_Ex,-0.145863163,0.004744666,1,0,0,0.6349,optionLeft,95,5235,3,9,0,9,0,1,,,,,,,,,,,,,,,,,,,,,,,,,,,,,,,,,,,,,,,
,,,,,,,,2023-08-16_08h40.57.742,HF_wild_card,2022.2.4,Win32,59.94485074,58545249cceb5b0001e4875a,64d2fd46c836a06233681665,64dc7e6dbd8f1d06ebe1fcfd,,,,,,,decisionTrl,resources/DR.BMP,resources/DP.BMP,Door4,0.242801822,0.06323939,1,0,0,0.8151,optionRight,60,5295,3,10,0,10,0,1,,,,,,,,,,,,,,,,,,,,,,,,,,,,,,,,,,,,,,,
,,,,,,,,2023-08-16_08h40.57.742,HF_wild_card,2022.2.4,Win32,59.94485074,58545249cceb5b0001e4875a,64d2fd46c836a06233681665,64dc7e6dbd8f1d06ebe1fcfd,,,,,,,decisionTrl,resources/DR.BMP,resources/DP.BMP,Door4,0.251900887,0.029442456,1,0,0,0.7484,optionRight,80,5375,3,11,0,11,0,1,,,,,,,,,,,,,,,,,,,,,,,,,,,,,,,,,,,,,,,
,,,,,,,,2023-08-16_08h40.57.742,HF_wild_card,2022.2.4,Win32,59.94485074,58545249cceb5b0001e4875a,64d2fd46c836a06233681665,64dc7e6dbd8f1d06ebe1fcfd,,,,,,,sngl,resources/DB.BMP,resources/Empty.png,Door1,-0.188759356,-0.032951939,1,0,0,0.6316,optionLeft,30,5405,3,12,0,12,0,1,,,,,,,,,,,,,,,,,,,,,,,,,,,,,,,,,,,,,,,
,,,,,,,,2023-08-16_08h40.57.742,HF_wild_card,2022.2.4,Win32,59.94485074,58545249cceb5b0001e4875a,64d2fd46c836a06233681665,64dc7e6dbd8f1d06ebe1fcfd,,,,,,,decisionTrl,resources/DB.BMP,resources/DG.BMP,Door2,0.3051961,0.002144911,1,0,0,0.7362,optionRight,20,5425,3,13,0,13,0,1,,,,,,,,,,,,,,,,,,,,,,,,,,,,,,,,,,,,,,,
,,,,,,,,2023-08-16_08h40.57.742,HF_wild_card,2022.2.4,Win32,59.94485074,58545249cceb5b0001e4875a,64d2fd46c836a06233681665,64dc7e6dbd8f1d06ebe1fcfd,,,,,,,sngl,resources/Empty.png,resources/DBN.BMP,WildCard_Ex,0.354591759,0.032042211,1,0,0,0.729,optionRight,5,5430,3,14,0,14,0,1,,,,,,,,,,,,,,,,,,,,,,,,,,,,,,,,,,,,,,,
,,,,,,,,2023-08-16_08h40.57.742,HF_wild_card,2022.2.4,Win32,59.94485074,58545249cceb5b0001e4875a,64d2fd46c836a06233681665,64dc7e6dbd8f1d06ebe1fcfd,,,,,,,decisionTrl,resources/DG.BMP,resources/DB.BMP,Door2,-0.235555143,-0.034251816,1,0,0,1.3329,optionLeft,40,5470,3,15,0,15,0,1,,,,,,,,,,,,,,,,,,,,,,,,,,,,,,,,,,,,,,,
,,,,,,,,2023-08-16_08h40.57.742,HF_wild_card,2022.2.4,Win32,59.94485074,58545249cceb5b0001e4875a,64d2fd46c836a06233681665,64dc7e6dbd8f1d06ebe1fcfd,,,,,,,sngl,resources/Empty.png,resources/DR.BMP,Door3,0.276598794,0.059339757,1,0,0,0.6313,optionRight,70,5540,3,16,0,16,0,1,,,,,,,,,,,,,,,,,,,,,,,,,,,,,,,,,,,,,,,
,,,,,,,,2023-08-16_08h40.57.742,HF_wild_card,2022.2.4,Win32,59.94485074,58545249cceb5b0001e4875a,64d2fd46c836a06233681665,64dc7e6dbd8f1d06ebe1fcfd,,,,,,,decisionTrl,resources/DB.BMP,resources/DG.BMP,Door2,0.314295399,0.019043319,1,0,0,0.6817,optionRight,40,5580,3,17,0,17,0,1,,,,,,,,,,,,,,,,,,,,,,,,,,,,,,,,,,,,,,,
,,,,,,,,2023-08-16_08h40.57.742,HF_wild_card,2022.2.4,Win32,59.94485074,58545249cceb5b0001e4875a,64d2fd46c836a06233681665,64dc7e6dbd8f1d06ebe1fcfd,,,,,,,ctch,resources/DB.BMP,resources/DP.BMP,Door4,0.348092215,0.05284033,1,0,0,0.5639,optionRight,80,5660,3,18,0,18,0,1,,,,,,,,,,,,,,,,,,,,,,,,,,,,,,,,,,,,,,,
,,,,,,,,2023-08-16_08h40.57.742,HF_wild_card,2022.2.4,Win32,59.94485074,58545249cceb5b0001e4875a,64d2fd46c836a06233681665,64dc7e6dbd8f1d06ebe1fcfd,,,,,,,ctch,resources/DG.BMP,resources/DR.BMP,Door2,-0.156262223,-0.051150302,1,0,0,2.2012,optionLeft,20,5680,3,19,0,19,0,1,,,,,,,,,,,,,,,,,,,,,,,,,,,,,,,,,,,,,,,
,,,,,,,,2023-08-16_08h40.57.742,HF_wild_card,2022.2.4,Win32,59.94485074,58545249cceb5b0001e4875a,64d2fd46c836a06233681665,64dc7e6dbd8f1d06ebe1fcfd,,,,,,,decisionTrl,resources/DP.BMP,resources/DR.BMP,Door4,-0.279751096,-0.034251816,1,0,0,0.8491,optionLeft,60,5740,3,20,0,20,0,1,,,,,,,,,,,,,,,,,,,,,,,,,,,,,,,,,,,,,,,
,,,,,,,,2023-08-16_08h40.57.742,HF_wild_card,2022.2.4,Win32,59.94485074,58545249cceb5b0001e4875a,64d2fd46c836a06233681665,64dc7e6dbd8f1d06ebe1fcfd,,,,,,,sngl,resources/DR.BMP,resources/Empty.png,Door3,-0.214757024,-0.044650876,1,0,0,0.6656,optionLeft,70,5810,3,21,0,21,0,1,,,,,,,,,,,,,,,,,,,,,,,,,,,,,,,,,,,,,,,
,,,,,,,,2023-08-16_08h40.57.742,HF_wild_card,2022.2.4,Win32,59.94485074,58545249cceb5b0001e4875a,64d2fd46c836a06233681665,64dc7e6dbd8f1d06ebe1fcfd,,,,,,,decisionTrl,resources/DB.BMP,resources/DG.BMP,Door2,0.228503013,0.077538121,1,0,0,0.7985,optionRight,40,5850,3,22,0,22,0,1,,,,,,,,,,,,,,,,,,,,,,,,,,,,,,,,,,,,,,,
,,,,,,,,2023-08-16_08h40.57.742,HF_wild_card,2022.2.4,Win32,59.94485074,58545249cceb5b0001e4875a,64d2fd46c836a06233681665,64dc7e6dbd8f1d06ebe1fcfd,,,,,,,ctch,resources/DG.BMP,resources/DR.BMP,Door2,-0.195258783,-0.019953163,1,0,0,0.7814,optionLeft,20,5870,3,23,0,23,0,1,,,,,,,,,,,,,,,,,,,,,,,,,,,,,,,,,,,,,,,
,,,,,,,,2023-08-16_08h40.57.742,HF_wild_card,2022.2.4,Win32,59.94485074,58545249cceb5b0001e4875a,64d2fd46c836a06233681665,64dc7e6dbd8f1d06ebe1fcfd,,,,,,,decisionTrl,resources/DBN.BMP,resources/DB.BMP,WildCard_Ex,-0.195258783,-0.056349891,1,0,0,0.7482,optionLeft,95,5965,3,24,0,24,0,1,,,,,,,,,,,,,,,,,,,,,,,,,,,,,,,,,,,,,,,
,,,,,,,,2023-08-16_08h40.57.742,HF_wild_card,2022.2.4,Win32,59.94485074,58545249cceb5b0001e4875a,64d2fd46c836a06233681665,64dc7e6dbd8f1d06ebe1fcfd,,,,,,,decisionTrl,resources/DR.BMP,resources/DBN.BMP,WildCard_Ex,0.25580052,0.033342089,1,0,0,0.7836,optionRight,5,5970,3,25,0,25,0,1,,,,,,,,,,,,,,,,,,,,,,,,,,,,,,,,,,,,,,,
,,,,,,,,2023-08-16_08h40.57.742,HF_wild_card,2022.2.4,Win32,59.94485074,58545249cceb5b0001e4875a,64d2fd46c836a06233681665,64dc7e6dbd8f1d06ebe1fcfd,,,,,,,decisionTrl,resources/DP.BMP,resources/DBN.BMP,Door4,-0.216056902,0.085337347,1,0,0,1.2037,optionLeft,60,6030,3,26,0,26,0,1,,,,,,,,,,,,,,,,,,,,,,,,,,,,,,,,,,,,,,,
,,,,,,,,2023-08-16_08h40.57.742,HF_wild_card,2022.2.4,Win32,59.94485074,58545249cceb5b0001e4875a,64d2fd46c836a06233681665,64dc7e6dbd8f1d06ebe1fcfd,,,,,,,decisionTrl,resources/DG.BMP,resources/DB.BMP,Door2,-0.230355555,-0.008254149,1,0,0,1.3643,optionLeft,40,6070,3,27,0,27,0,1,,,,,,,,,,,,,,,,,,,,,,,,,,,,,,,,,,,,,,,
,,,,,,,,2023-08-16_08h40.57.742,HF_wild_card,2022.2.4,Win32,59.94485074,58545249cceb5b0001e4875a,64d2fd46c836a06233681665,64dc7e6dbd8f1d06ebe1fcfd,,,,,,,sngl,resources/Empty.png,resources/DG.BMP,Door2,0.268799373,0.002144911,1,0,0,0.7332,optionRight,20,6090,3,28,0,28,0,1,,,,,,,,,,,,,,,,,,,,,,,,,,,,,,,,,,,,,,,
,,,,,,,,2023-08-16_08h40.57.742,HF_wild_card,2022.2.4,Win32,59.94485074,58545249cceb5b0001e4875a,64d2fd46c836a06233681665,64dc7e6dbd8f1d06ebe1fcfd,,,,,,,decisionTrl,resources/DB.BMP,resources/DG.BMP,Door2,0.194706041,0.011244093,1,0,0,1.0838,optionRight,40,6130,3,29,0,29,0,1,,,,,,,,,,,,,,,,,,,,,,,,,,,,,,,,,,,,,,,
,,,,,,,,2023-08-16_08h40.57.742,HF_wild_card,2022.2.4,Win32,59.94485074,58545249cceb5b0001e4875a,64d2fd46c836a06233681665,64dc7e6dbd8f1d06ebe1fcfd,,,,,,,ctch,resources/DP.BMP,resources/DB.BMP,Door4,-0.229055716,-0.040751243,1,0,0,0.8147,optionLeft,60,6190,3,30,0,30,0,1,,,,,,,,,,,,,,,,,,,,,,,,,,,,,,,,,,,,,,,
,,,,,,,,2023-08-16_08h40.57.742,HF_wild_card,2022.2.4,Win32,59.94485074,58545249cceb5b0001e4875a,64d2fd46c836a06233681665,64dc7e6dbd8f1d06ebe1fcfd,,,,,,,sngl,resources/DG.BMP,resources/Empty.png,Door2,-0.195258783,-0.055049935,1,0,0,0.7155,optionLeft,40,6230,3,31,0,31,0,1,,,,,,,,,,,,,,,,,,,,,,,,,,,,,,,,,,,,,,,
,,,,,,,,2023-08-16_08h40.57.742,HF_wild_card,2022.2.4,Win32,59.94485074,58545249cceb5b0001e4875a,64d2fd46c836a06233681665,64dc7e6dbd8f1d06ebe1fcfd,,,,,,,decisionTrl,resources/DP.BMP,resources/DR.BMP,Door4,-0.235555143,-0.079747726,1,0,0,0.8159,optionLeft,80,6310,3,32,0,32,0,1,,,,,,,,,,,,,,,,,,,,,,,,,,,,,,,,,,,,,,,
,,,,,,,,2023-08-16_08h40.57.742,HF_wild_card,2022.2.4,Win32,59.94485074,58545249cceb5b0001e4875a,64d2fd46c836a06233681665,64dc7e6dbd8f1d06ebe1fcfd,,,,,,,decisionTrl,resources/DR.BMP,resources/DP.BMP,Door4,0.199905707,0.068438939,1,0,0,0.6962,optionRight,60,6370,3,33,0,33,0,1,,,,,,,,,,,,,,,,,,,,,,,,,,,,,,,,,,,,,,,
,,,,,,,,2023-08-16_08h40.57.742,HF_wild_card,2022.2.4,Win32,59.94485074,58545249cceb5b0001e4875a,64d2fd46c836a06233681665,64dc7e6dbd8f1d06ebe1fcfd,,,,,,,decisionTrl,resources/DG.BMP,resources/DB.BMP,Door2,-0.24725408,-0.034251816,1,0,0,1.4314,optionLeft,40,6410,3,34,0,34,0,1,,,,,,,,,,,,,,,,,,,,,,,,,,,,,,,,,,,,,,,
,,,,,,,,2023-08-16_08h40.57.742,HF_wild_card,2022.2.4,Win32,59.94485074,58545249cceb5b0001e4875a,64d2fd46c836a06233681665,64dc7e6dbd8f1d06ebe1fcfd,,,,,,,sngl,resources/DBN.BMP,resources/Empty.png,WildCard_Ex,-0.199158416,-0.003054638,1,0,0,0.7313,optionLeft,5,6415,3,35,0,35,0,1,,,,,,,,,,,,,,,,,,,,,,,,,,,,,,,,,,,,,,,
,,,,,,,,2023-08-16_08h40.57.742,HF_wild_card,2022.2.4,Win32,59.94485074,58545249cceb5b0001e4875a,64d2fd46c836a06233681665,64dc7e6dbd8f1d06ebe1fcfd,,,,,,,sngl,resources/Empty.png,resources/DBN.BMP,WildCard_Ex,0.25840043,0.000845033,1,0,0,0.6813,optionRight,95,6510,3,36,0,36,0,1,,,,,,,,,,,,,,,,,,,,,,,,,,,,,,,,,,,,,,,
,,,,,,,,2023-08-16_08h40.57.742,HF_wild_card,2022.2.4,Win32,59.94485074,58545249cceb5b0001e4875a,64d2fd46c836a06233681665,64dc7e6dbd8f1d06ebe1fcfd,,,,,,,ctch,resources/DR.BMP,resources/DG.BMP,Door3,-0.184859646,-0.068048789,1,0,0,0.863,optionLeft,70,6580,3,37,0,37,0,1,,,,,,,,,,,,,,,,,,,,,,,,,,,,,,,,,,,,,,,
,,,,,,,,2023-08-16_08h40.57.742,HF_wild_card,2022.2.4,Win32,59.94485074,58545249cceb5b0001e4875a,64d2fd46c836a06233681665,64dc7e6dbd8f1d06ebe1fcfd,,,,,,,decisionTrl,resources/DBN.BMP,resources/DP.BMP,WildCard_Ex,-0.182259929,-0.003054638,1,0,0,1.5314,optionLeft,5,6585,3,38,0,38,0,1,,,,,,,,,,,,,,,,,,,,,,,,,,,,,,,,,,,,,,,
,,,,,,,,2023-08-16_08h40.57.742,HF_wild_card,2022.2.4,Win32,59.94485074,58545249cceb5b0001e4875a,64d2fd46c836a06233681665,64dc7e6dbd8f1d06ebe1fcfd,,,,,,,decisionTrl,resources/DP.BMP,resources/DR.BMP,Door4,-0.20695772,-0.082347481,1,0,0,0.698,optionLeft,60,6645,3,39,0,39,0,1,,,,,,,,,,,,,,,,,,,,,,,,,,,,,,,,,,,,,,,
,,,,,,,,2023-08-16_08h40.57.742,HF_wild_card,2022.2.4,Win32,59.94485074,58545249cceb5b0001e4875a,64d2fd46c836a06233681665,64dc7e6dbd8f1d06ebe1fcfd,,,,,,,ctch,resources/DB.BMP,resources/DP.BMP,Door4,0.259700308,0.000845033,1,0,0,0.6137,optionRight,80,6725,3,40,0,40,0,1,,,,,,,,,,,,,,,,,,,,,,,,,,,,,,,,,,,,,,,
,,,,,,,,2023-08-16_08h40.57.742,HF_wild_card,2022.2.4,Win32,59.94485074,58545249cceb5b0001e4875a,64d2fd46c836a06233681665,64dc7e6dbd8f1d06ebe1fcfd,,,,,,,decisionTrl,resources/DBN.BMP,resources/DR.BMP,WildCard_Ex,-0.242054492,-0.112244781,1,0,0,0.6997,optionLeft,95,6820,3,41,0,41,0,1,,,,,,,,,,,,,,,,,,,,,,,,,,,,,,,,,,,,,,,
,,,,,,,,2023-08-16_08h40.57.742,HF_wild_card,2022.2.4,Win32,59.94485074,58545249cceb5b0001e4875a,64d2fd46c836a06233681665,64dc7e6dbd8f1d06ebe1fcfd,,,,,,,ctch,resources/DR.BMP,resources/DG.BMP,Door3,-0.242054492,-0.060249484,1,0,0,0.7645,optionLeft,70,6890,3,42,0,42,0,1,,,,,,,,,,,,,,,,,,,,,,,,,,,,,,,,,,,,,,,
,,,,,,,,2023-08-16_08h40.57.742,HF_wild_card,2022.2.4,Win32,59.94485074,58545249cceb5b0001e4875a,64d2fd46c836a06233681665,64dc7e6dbd8f1d06ebe1fcfd,,,,,,,decisionTrl,resources/DR.BMP,resources/DP.BMP,Door4,0.211604527,0.032042211,1,0,0,0.6649,optionRight,80,6970,3,43,0,43,0,1,,,,,,,,,,,,,,,,,,,,,,,,,,,,,,,,,,,,,,,
,,,,,,,,2023-08-16_08h40.57.742,HF_wild_card,2022.2.4,Win32,59.94485074,58545249cceb5b0001e4875a,64d2fd46c836a06233681665,64dc7e6dbd8f1d06ebe1fcfd,,,,,,,,,,,,,,,,,,,,,,,,,,2,0,2,0,1,,,,,,,,,,,,,,,,,,,,,,,,,,,,,,,,,,
,,,,,,,,2023-08-16_08h40.57.742,HF_wild_card,2022.2.4,Win32,59.94485074,58545249cceb5b0001e4875a,64d2fd46c836a06233681665,64dc7e6dbd8f1d06ebe1fcfd,,,,,,,sngl,resources/Empty.png,resources/DR.BMP,Door3,0.233702523,0.019043319,1,0,0,0.7681,optionRight,70,7040,4,0,0,0,0,1,,,,,,,,,,,,,,,,,,,,,,,,,,,,,,,,,,,,,,,
,,,,,,,,2023-08-16_08h40.57.742,HF_wild_card,2022.2.4,Win32,59.94485074,58545249cceb5b0001e4875a,64d2fd46c836a06233681665,64dc7e6dbd8f1d06ebe1fcfd,,,,,,,decisionTrl,resources/DB.BMP,resources/DG.BMP,Door2,0.285697859,0.028142501,1,0,0,2.8521,optionRight,20,7060,4,1,0,1,0,1,,,,,,,,,,,,,,,,,,,,,,,,,,,,,,,,,,,,,,,
,,,,,,,,2023-08-16_08h40.57.742,HF_wild_card,2022.2.4,Win32,59.94485074,58545249cceb5b0001e4875a,64d2fd46c836a06233681665,64dc7e6dbd8f1d06ebe1fcfd,,,,,,,decisionTrl,resources/DR.BMP,resources/DY.BMP,WildCard_NonEx,0.253200765,-0.0017548,1,0,0,1.1322,optionRight,55,7115,4,2,0,2,0,1,,,,,,,,,,,,,,,,,,,,,,,,,,,,,,,,,,,,,,,
,,,,,,,,2023-08-16_08h40.57.742,HF_wild_card,2022.2.4,Win32,59.94485074,58545249cceb5b0001e4875a,64d2fd46c836a06233681665,64dc7e6dbd8f1d06ebe1fcfd,,,,,,,sngl,resources/Empty.png,resources/DY.BMP,WildCard_NonEx,0.310395611,0.01254397,1,0,0,0.6471,optionRight,55,7170,4,3,0,3,0,1,,,,,,,,,,,,,,,,,,,,,,,,,,,,,,,,,,,,,,,
,,,,,,,,2023-08-16_08h40.57.742,HF_wild_card,2022.2.4,Win32,59.94485074,58545249cceb5b0001e4875a,64d2fd46c836a06233681665,64dc7e6dbd8f1d06ebe1fcfd,,,,,,,decisionTrl,resources/DP.BMP,resources/DY.BMP,WildCard_NonEx,0.312995366,0.003444788,1,0,0,0.5318,optionRight,55,7225,4,4,0,4,0,1,,,,,,,,,,,,,,,,,,,,,,,,,,,,,,,,,,,,,,,
,,,,,,,,2023-08-16_08h40.57.742,HF_wild_card,2022.2.4,Win32,59.94485074,58545249cceb5b0001e4875a,64d2fd46c836a06233681665,64dc7e6dbd8f1d06ebe1fcfd,,,,,,,decisionTrl,resources/DG.BMP,resources/DB.BMP,Door2,-0.279751096,-0.01215382,1,0,0,0.7648,optionLeft,40,7265,4,5,0,5,0,1,,,,,,,,,,,,,,,,,,,,,,,,,,,,,,,,,,,,,,,
,,,,,,,,2023-08-16_08h40.57.742,HF_wild_card,2022.2.4,Win32,59.94485074,58545249cceb5b0001e4875a,64d2fd46c836a06233681665,64dc7e6dbd8f1d06ebe1fcfd,,,,,,,decisionTrl,resources/DG.BMP,resources/DY.BMP,WildCard_NonEx,0.237602312,0.047640742,1,0,0,0.7441,optionRight,55,7320,4,6,0,6,0,1,,,,,,,,,,,,,,,,,,,,,,,,,,,,,,,,,,,,,,,
,,,,,,,,2023-08-16_08h40.57.742,HF_wild_card,2022.2.4,Win32,59.94485074,58545249cceb5b0001e4875a,64d2fd46c836a06233681665,64dc7e6dbd8f1d06ebe1fcfd,,,,,,,decisionTrl,resources/DY.BMP,resources/DP.BMP,Door4,0.236302278,0.090536935,1,0,0,0.7462,optionRight,80,7400,4,7,0,7,0,1,,,,,,,,,,,,,,,,,,,,,,,,,,,,,,,,,,,,,,,
,,,,,,,,2023-08-16_08h40.57.742,HF_wild_card,2022.2.4,Win32,59.94485074,58545249cceb5b0001e4875a,64d2fd46c836a06233681665,64dc7e6dbd8f1d06ebe1fcfd,,,,,,,decisionTrl,resources/DG.BMP,resources/DB.BMP,Door2,-0.273251748,0.017743442,1,0,0,1.3164,optionLeft,20,7420,4,8,0,8,0,1,,,,,,,,,,,,,,,,,,,,,,,,,,,,,,,,,,,,,,,
,,,,,,,,2023-08-16_08h40.57.742,HF_wild_card,2022.2.4,Win32,59.94485074,58545249cceb5b0001e4875a,64d2fd46c836a06233681665,64dc7e6dbd8f1d06ebe1fcfd,,,,,,,sngl,resources/DG.BMP,resources/Empty.png,Door2,-0.227755839,-0.088846907,1,0,0,0.7139,optionLeft,20,7440,4,9,0,9,0,1,,,,,,,,,,,,,,,,,,,,,,,,,,,,,,,,,,,,,,,
,,,,,,,,2023-08-16_08h40.57.742,HF_wild_card,2022.2.4,Win32,59.94485074,58545249cceb5b0001e4875a,64d2fd46c836a06233681665,64dc7e6dbd8f1d06ebe1fcfd,,,,,,,decisionTrl,resources/DB.BMP,resources/DG.BMP,Door2,0.261000186,0.030742334,1,0,0,0.8206,optionRight,20,7460,4,10,0,10,0,1,,,,,,,,,,,,,,,,,,,,,,,,,,,,,,,,,,,,,,,
,,,,,,,,2023-08-16_08h40.57.742,HF_wild_card,2022.2.4,Win32,59.94485074,58545249cceb5b0001e4875a,64d2fd46c836a06233681665,64dc7e6dbd8f1d06ebe1fcfd,,,,,,,sngl,resources/Empty.png,resources/DG.BMP,Door2,0.266199618,0.037241683,1,0,0,0.6815,optionRight,40,7500,4,11,0,11,0,1,,,,,,,,,,,,,,,,,,,,,,,,,,,,,,,,,,,,,,,
,,,,,,,,2023-08-16_08h40.57.742,HF_wild_card,2022.2.4,Win32,59.94485074,58545249cceb5b0001e4875a,64d2fd46c836a06233681665,64dc7e6dbd8f1d06ebe1fcfd,,,,,,,ctch,resources/DP.BMP,resources/DB.BMP,Door4,-0.212157191,-0.035551694,1,0,0,0.7986,optionLeft,80,7580,4,12,0,12,0,1,,,,,,,,,,,,,,,,,,,,,,,,,,,,,,,,,,,,,,,
,,,,,,,,2023-08-16_08h40.57.742,HF_wild_card,2022.2.4,Win32,59.94485074,58545249cceb5b0001e4875a,64d2fd46c836a06233681665,64dc7e6dbd8f1d06ebe1fcfd,,,,,,,sngl,resources/Empty.png,resources/DY.BMP,WildCard_NonEx,0.284397982,0.061939512,1,0,0,0.6664,optionRight,45,7625,4,13,0,13,0,1,,,,,,,,,,,,,,,,,,,,,,,,,,,,,,,,,,,,,,,
,,,,,,,,2023-08-16_08h40.57.742,HF_wild_card,2022.2.4,Win32,59.94485074,58545249cceb5b0001e4875a,64d2fd46c836a06233681665,64dc7e6dbd8f1d06ebe1fcfd,,,,,,,decisionTrl,resources/DP.BMP,resources/DR.BMP,Door4,-0.190059234,0.002144911,1,0,0,0.6976,optionLeft,60,7685,4,14,0,14,0,1,,,,,,,,,,,,,,,,,,,,,,,,,,,,,,,,,,,,,,,
,,,,,,,,2023-08-16_08h40.57.742,HF_wild_card,2022.2.4,Win32,59.94485074,58545249cceb5b0001e4875a,64d2fd46c836a06233681665,64dc7e6dbd8f1d06ebe1fcfd,,,,,,,decisionTrl,resources/DG.BMP,resources/DB.BMP,Door1,0.209004772,0.034641967,1,0,0,0.8147,optionRight,30,7715,4,15,0,15,0,1,,,,,,,,,,,,,,,,,,,,,,,,,,,,,,,,,,,,,,,
,,,,,,,,2023-08-16_08h40.57.742,HF_wild_card,2022.2.4,Win32,59.94485074,58545249cceb5b0001e4875a,64d2fd46c836a06233681665,64dc7e6dbd8f1d06ebe1fcfd,,,,,,,sngl,resources/DY.BMP,resources/Empty.png,WildCard_NonEx,-0.195258783,-0.009554104,1,0,0,0.5642,optionLeft,55,7770,4,16,0,16,0,1,,,,,,,,,,,,,,,,,,,,,,,,,,,,,,,,,,,,,,,
,,,,,,,,2023-08-16_08h40.57.742,HF_wild_card,2022.2.4,Win32,59.94485074,58545249cceb5b0001e4875a,64d2fd46c836a06233681665,64dc7e6dbd8f1d06ebe1fcfd,,,,,,,sngl,resources/DY.BMP,resources/Empty.png,WildCard_NonEx,-0.200458293,-0.019953163,1,0,0,0.5482,optionLeft,45,7815,4,17,0,17,0,1,,,,,,,,,,,,,,,,,,,,,,,,,,,,,,,,,,,,,,,
,,,,,,,,2023-08-16_08h40.57.742,HF_wild_card,2022.2.4,Win32,59.94485074,58545249cceb5b0001e4875a,64d2fd46c836a06233681665,64dc7e6dbd8f1d06ebe1fcfd,,,,,,,decisionTrl,resources/DB.BMP,resources/DG.BMP,Door1,-0.187459479,-0.022552879,1,0,0,0.9958,optionLeft,30,7845,4,18,0,18,0,1,,,,,,,,,,,,,,,,,,,,,,,,,,,,,,,,,,,,,,,
,,,,,,,,2023-08-16_08h40.57.742,HF_wild_card,2022.2.4,Win32,59.94485074,58545249cceb5b0001e4875a,64d2fd46c836a06233681665,64dc7e6dbd8f1d06ebe1fcfd,,,,,,,ctch,resources/DG.BMP,resources/DR.BMP,Door3,0.328593974,0.056739924,1,0,0,0.715,optionRight,70,7915,4,19,0,19,0,1,,,,,,,,,,,,,,,,,,,,,,,,,,,,,,,,,,,,,,,
,,,,,,,,2023-08-16_08h40.57.742,HF_wild_card,2022.2.4,Win32,59.94485074,58545249cceb5b0001e4875a,64d2fd46c836a06233681665,64dc7e6dbd8f1d06ebe1fcfd,,,,,,,sngl,resources/DR.BMP,resources/Empty.png,Door3,-0.17186087,-0.009554104,1,0,0,0.6317,optionLeft,70,7985,4,20,0,20,0,1,,,,,,,,,,,,,,,,,,,,,,,,,,,,,,,,,,,,,,,
,,,,,,,,2023-08-16_08h40.57.742,HF_wild_card,2022.2.4,Win32,59.94485074,58545249cceb5b0001e4875a,64d2fd46c836a06233681665,64dc7e6dbd8f1d06ebe1fcfd,,,,,,,sngl,resources/Empty.png,resources/DP.BMP,Door4,0.286997737,0.020343274,1,0,0,0.5501,optionRight,80,8065,4,21,0,21,0,1,,,,,,,,,,,,,,,,,,,,,,,,,,,,,,,,,,,,,,,
,,,,,,,,2023-08-16_08h40.57.742,HF_wild_card,2022.2.4,Win32,59.94485074,58545249cceb5b0001e4875a,64d2fd46c836a06233681665,64dc7e6dbd8f1d06ebe1fcfd,,,,,,,decisionTrl,resources/DB.BMP,resources/DG.BMP,Door2,0.272699006,0.055440046,1,0,0,1.3494,optionRight,40,8105,4,22,0,22,0,1,,,,,,,,,,,,,,,,,,,,,,,,,,,,,,,,,,,,,,,
,,,,,,,,2023-08-16_08h40.57.742,HF_wild_card,2022.2.4,Win32,59.94485074,58545249cceb5b0001e4875a,64d2fd46c836a06233681665,64dc7e6dbd8f1d06ebe1fcfd,,,,,,,sngl,resources/DB.BMP,resources/Empty.png,Door1,-0.188759356,-0.019953163,1,0,0,0.5646,optionLeft,30,8135,4,23,0,23,0,1,,,,,,,,,,,,,,,,,,,,,,,,,,,,,,,,,,,,,,,
,,,,,,,,2023-08-16_08h40.57.742,HF_wild_card,2022.2.4,Win32,59.94485074,58545249cceb5b0001e4875a,64d2fd46c836a06233681665,64dc7e6dbd8f1d06ebe1fcfd,,,,,,,decisionTrl,resources/DY.BMP,resources/DR.BMP,WildCard_NonEx,-0.188759356,0.004744666,1,0,0,1.4654,optionLeft,55,8190,4,24,0,24,0,1,,,,,,,,,,,,,,,,,,,,,,,,,,,,,,,,,,,,,,,
,,,,,,,,2023-08-16_08h40.57.742,HF_wild_card,2022.2.4,Win32,59.94485074,58545249cceb5b0001e4875a,64d2fd46c836a06233681665,64dc7e6dbd8f1d06ebe1fcfd,,,,,,,decisionTrl,resources/DP.BMP,resources/DR.BMP,Door4,-0.210857314,-0.032951939,1,0,0,0.733,optionLeft,60,8250,4,25,0,25,0,1,,,,,,,,,,,,,,,,,,,,,,,,,,,,,,,,,,,,,,,
,,,,,,,,2023-08-16_08h40.57.742,HF_wild_card,2022.2.4,Win32,59.94485074,58545249cceb5b0001e4875a,64d2fd46c836a06233681665,64dc7e6dbd8f1d06ebe1fcfd,,,,,,,sngl,resources/DP.BMP,resources/Empty.png,Door4,-0.210857314,-0.042051121,1,0,0,0.6341,optionLeft,60,8310,4,26,0,26,0,1,,,,,,,,,,,,,,,,,,,,,,,,,,,,,,,,,,,,,,,
,,,,,,,,2023-08-16_08h40.57.742,HF_wild_card,2022.2.4,Win32,59.94485074,58545249cceb5b0001e4875a,64d2fd46c836a06233681665,64dc7e6dbd8f1d06ebe1fcfd,,,,,,,decisionTrl,resources/DB.BMP,resources/DY.BMP,WildCard_NonEx,0.273998883,0.048940697,1,0,0,0.6299,optionRight,55,8365,4,27,0,27,0,1,,,,,,,,,,,,,,,,,,,,,,,,,,,,,,,,,,,,,,,
,,,,,,,,2023-08-16_08h40.57.742,HF_wild_card,2022.2.4,Win32,59.94485074,58545249cceb5b0001e4875a,64d2fd46c836a06233681665,64dc7e6dbd8f1d06ebe1fcfd,,,,,,,decisionTrl,resources/DR.BMP,resources/DP.BMP,Door4,0.241501944,0.126933662,1,0,0,0.6478,optionRight,60,8425,4,28,0,28,0,1,,,,,,,,,,,,,,,,,,,,,,,,,,,,,,,,,,,,,,,
,,,,,,,,2023-08-16_08h40.57.742,HF_wild_card,2022.2.4,Win32,59.94485074,58545249cceb5b0001e4875a,64d2fd46c836a06233681665,64dc7e6dbd8f1d06ebe1fcfd,,,,,,,ctch,resources/DR.BMP,resources/DG.BMP,Door2,0.296097035,0.041141393,1,0,0,0.6502,optionRight,20,8445,4,29,0,29,0,1,,,,,,,,,,,,,,,,,,,,,,,,,,,,,,,,,,,,,,,
,,,,,,,,2023-08-16_08h40.57.742,HF_wild_card,2022.2.4,Win32,59.94485074,58545249cceb5b0001e4875a,64d2fd46c836a06233681665,64dc7e6dbd8f1d06ebe1fcfd,,,,,,,decisionTrl,resources/DP.BMP,resources/DR.BMP,Door4,-0.209557475,-0.086247191,1,0,0,0.5954,optionLeft,60,8505,4,30,0,30,0,1,,,,,,,,,,,,,,,,,,,,,,,,,,,,,,,,,,,,,,,
,,,,,,,,2023-08-16_08h40.57.742,HF_wild_card,2022.2.4,Win32,59.94485074,58545249cceb5b0001e4875a,64d2fd46c836a06233681665,64dc7e6dbd8f1d06ebe1fcfd,,,,,,,decisionTrl,resources/DY.BMP,resources/DG.BMP,WildCard_NonEx,-0.216056902,-0.026452512,1,0,0,1.4147,optionLeft,55,8560,4,31,0,31,0,1,,,,,,,,,,,,,,,,,,,,,,,,,,,,,,,,,,,,,,,
,,,,,,,,2023-08-16_08h40.57.742,HF_wild_card,2022.2.4,Win32,59.94485074,58545249cceb5b0001e4875a,64d2fd46c836a06233681665,64dc7e6dbd8f1d06ebe1fcfd,,,,,,,sngl,resources/Empty.png,resources/DB.BMP,Door1,0.338993073,0.002144911,1,0,0,0.6481,optionRight,30,8590,4,32,0,32,0,1,,,,,,,,,,,,,,,,,,,,,,,,,,,,,,,,,,,,,,,
,,,,,,,,2023-08-16_08h40.57.742,HF_wild_card,2022.2.4,Win32,59.94485074,58545249cceb5b0001e4875a,64d2fd46c836a06233681665,64dc7e6dbd8f1d06ebe1fcfd,,,,,,,decisionTrl,resources/DG.BMP,resources/DB.BMP,Door2,-0.239454737,-0.047250709,1,0,0,1.0322,optionLeft,20,8610,4,33,0,33,0,1,,,,,,,,,,,,,,,,,,,,,,,,,,,,,,,,,,,,,,,
,,,,,,,,2023-08-16_08h40.57.742,HF_wild_card,2022.2.4,Win32,59.94485074,58545249cceb5b0001e4875a,64d2fd46c836a06233681665,64dc7e6dbd8f1d06ebe1fcfd,,,,,,,ctch,resources/DB.BMP,resources/DP.BMP,Door4,0.29869679,-0.009554104,1,0,0,0.5816,optionRight,60,8670,4,34,0,34,0,1,,,,,,,,,,,,,,,,,,,,,,,,,,,,,,,,,,,,,,,
,,,,,,,,2023-08-16_08h40.57.742,HF_wild_card,2022.2.4,Win32,59.94485074,58545249cceb5b0001e4875a,64d2fd46c836a06233681665,64dc7e6dbd8f1d06ebe1fcfd,,,,,,,ctch,resources/DP.BMP,resources/DB.BMP,Door4,-0.162761688,-0.01215382,1,0,0,0.7146,optionLeft,60,8730,4,35,0,35,0,1,,,,,,,,,,,,,,,,,,,,,,,,,,,,,,,,,,,,,,,
,,,,,,,,2023-08-16_08h40.57.742,HF_wild_card,2022.2.4,Win32,59.94485074,58545249cceb5b0001e4875a,64d2fd46c836a06233681665,64dc7e6dbd8f1d06ebe1fcfd,,,,,,,decisionTrl,resources/DR.BMP,resources/DP.BMP,Door4,0.329893852,0.015143725,1,0,0,0.5476,optionRight,80,8810,4,36,0,36,0,1,,,,,,,,,,,,,,,,,,,,,,,,,,,,,,,,,,,,,,,
,,,,,,,,2023-08-16_08h40.57.742,HF_wild_card,2022.2.4,Win32,59.94485074,58545249cceb5b0001e4875a,64d2fd46c836a06233681665,64dc7e6dbd8f1d06ebe1fcfd,,,,,,,decisionTrl,resources/DR.BMP,resources/DP.BMP,Door4,0.279198549,0.021643152,1,0,0,0.6649,optionRight,60,8870,4,37,0,37,0,1,,,,,,,,,,,,,,,,,,,,,,,,,,,,,,,,,,,,,,,
,,,,,,,,2023-08-16_08h40.57.742,HF_wild_card,2022.2.4,Win32,59.94485074,58545249cceb5b0001e4875a,64d2fd46c836a06233681665,64dc7e6dbd8f1d06ebe1fcfd,,,,,,,ctch,resources/DG.BMP,resources/DR.BMP,Door3,0.257100553,0.061939512,1,0,0,0.8818,optionRight,70,8940,4,38,0,38,0,1,,,,,,,,,,,,,,,,,,,,,,,,,,,,,,,,,,,,,,,
,,,,,,,,2023-08-16_08h40.57.742,HF_wild_card,2022.2.4,Win32,59.94485074,58545249cceb5b0001e4875a,64d2fd46c836a06233681665,64dc7e6dbd8f1d06ebe1fcfd,,,,,,,decisionTrl,resources/DR.BMP,resources/DP.BMP,Door4,0.272699006,0.065839106,1,0,0,0.5485,optionRight,60,9000,4,39,0,39,0,1,,,,,,,,,,,,,,,,,,,,,,,,,,,,,,,,,,,,,,,
,,,,,,,,2023-08-16_08h40.57.742,HF_wild_card,2022.2.4,Win32,59.94485074,58545249cceb5b0001e4875a,64d2fd46c836a06233681665,64dc7e6dbd8f1d06ebe1fcfd,,,,,,,decisionTrl,resources/DP.BMP,resources/DR.BMP,Door4,-0.160161933,-0.051150302,1,0,0,0.629,optionLeft,60,9060,4,40,0,40,0,1,,,,,,,,,,,,,,,,,,,,,,,,,,,,,,,,,,,,,,,
,,,,,,,,2023-08-16_08h40.57.742,HF_wild_card,2022.2.4,Win32,59.94485074,58545249cceb5b0001e4875a,64d2fd46c836a06233681665,64dc7e6dbd8f1d06ebe1fcfd,,,,,,,ctch,resources/DR.BMP,resources/DG.BMP,Door3,-0.205657842,-0.013453698,1,0,0,0.8156,optionLeft,70,9130,4,41,0,41,0,1,,,,,,,,,,,,,,,,,,,,,,,,,,,,,,,,,,,,,,,
,,,,,,,,2023-08-16_08h40.57.742,HF_wild_card,2022.2.4,Win32,59.94485074,58545249cceb5b0001e4875a,64d2fd46c836a06233681665,64dc7e6dbd8f1d06ebe1fcfd,,,,,,,ctch,resources/DB.BMP,resources/DP.BMP,Door4,0.292197247,0.034641967,1,0,0,0.5667,optionRight,60,9190,4,42,0,42,0,1,,,,,,,,,,,,,,,,,,,,,,,,,,,,,,,,,,,,,,,
,,,,,,,,2023-08-16_08h40.57.742,HF_wild_card,2022.2.4,Win32,59.94485074,58545249cceb5b0001e4875a,64d2fd46c836a06233681665,64dc7e6dbd8f1d06ebe1fcfd,,,,,,,decisionTrl,resources/DY.BMP,resources/DB.BMP,WildCard_NonEx,-0.210857314,-0.004354516,1,0,0,0.6491,optionLeft,55,9245,4,43,0,43,0,1,,,,,,,,,,,,,,,,,,,,,,,,,,,,,,,,,,,,,,,
,,,,,,,,2023-08-16_08h40.57.742,HF_wild_card,2022.2.4,Win32,59.94485074,58545249cceb5b0001e4875a,64d2fd46c836a06233681665,64dc7e6dbd8f1d06ebe1fcfd,,,,,,,,,,,,,,,,,,,,,,,,,,3,0,3,0,1,,,,,,,,,,,,,,,,,,,,,,,,,,,,,,,,,,
,,,,,,,,2023-08-16_08h40.57.742,HF_wild_card,2022.2.4,Win32,59.94485074,58545249cceb5b0001e4875a,64d2fd46c836a06233681665,64dc7e6dbd8f1d06ebe1fcfd,,,,,,,sngl,resources/Empty.png,resources/DR.BMP,Door3,0.370190212,-0.039451404,1,0,0,0.7046,optionRight,70,9315,5,0,0,0,0,1,,,,,,,,,,,,,,,,,,,,,,,,,,,,,,,,,,,,,,,
,,,,,,,,2023-08-16_08h40.57.742,HF_wild_card,2022.2.4,Win32,59.94485074,58545249cceb5b0001e4875a,64d2fd46c836a06233681665,64dc7e6dbd8f1d06ebe1fcfd,,,,,,,decisionTrl,resources/DP.BMP,resources/DY.BMP,Door4,-0.203058009,-0.036851572,1,0,0,0.6655,optionLeft,60,9375,5,1,0,1,0,1,,,,,,,,,,,,,,,,,,,,,,,,,,,,,,,,,,,,,,,
,,,,,,,,2023-08-16_08h40.57.742,HF_wild_card,2022.2.4,Win32,59.94485074,58545249cceb5b0001e4875a,64d2fd46c836a06233681665,64dc7e6dbd8f1d06ebe1fcfd,,,,,,,sngl,resources/Empty.png,resources/DY.BMP,WildCard_NonEx,0.275298761,0.021643152,1,0,0,0.5151,optionRight,55,9430,5,2,0,2,0,1,,,,,,,,,,,,,,,,,,,,,,,,,,,,,,,,,,,,,,,
,,,,,,,,2023-08-16_08h40.57.742,HF_wild_card,2022.2.4,Win32,59.94485074,58545249cceb5b0001e4875a,64d2fd46c836a06233681665,64dc7e6dbd8f1d06ebe1fcfd,,,,,,,decisionTrl,resources/DR.BMP,resources/DP.BMP,Door4,0.296097035,0.05284033,1,0,0,0.847,optionRight,60,9490,5,3,0,3,0,1,,,,,,,,,,,,,,,,,,,,,,,,,,,,,,,,,,,,,,,
,,,,,,,,2023-08-16_08h40.57.742,HF_wild_card,2022.2.4,Win32,59.94485074,58545249cceb5b0001e4875a,64d2fd46c836a06233681665,64dc7e6dbd8f1d06ebe1fcfd,,,,,,,decisionTrl,resources/DP.BMP,resources/DR.BMP,Door4,-0.230355555,-0.045950753,1,0,0,0.6635,optionLeft,80,9570,5,4,0,4,0,1,,,,,,,,,,,,,,,,,,,,,,,,,,,,,,,,,,,,,,,
,,,,,,,,2023-08-16_08h40.57.742,HF_wild_card,2022.2.4,Win32,59.94485074,58545249cceb5b0001e4875a,64d2fd46c836a06233681665,64dc7e6dbd8f1d06ebe1fcfd,,,,,,,decisionTrl,resources/DB.BMP,resources/DG.BMP,Door2,0.194706041,0.030742334,1,0,0,0.9152,optionRight,20,9590,5,5,0,5,0,1,,,,,,,,,,,,,,,,,,,,,,,,,,,,,,,,,,,,,,,
,,,,,,,,2023-08-16_08h40.57.742,HF_wild_card,2022.2.4,Win32,59.94485074,58545249cceb5b0001e4875a,64d2fd46c836a06233681665,64dc7e6dbd8f1d06ebe1fcfd,,,,,,,decisionTrl,resources/DY.BMP,resources/DR.BMP,WildCard_NonEx,-0.193958827,-0.08754703,1,0,0,0.6824,optionLeft,55,9645,5,6,0,6,0,1,,,,,,,,,,,,,,,,,,,,,,,,,,,,,,,,,,,,,,,
,,,,,,,,2023-08-16_08h40.57.742,HF_wild_card,2022.2.4,Win32,59.94485074,58545249cceb5b0001e4875a,64d2fd46c836a06233681665,64dc7e6dbd8f1d06ebe1fcfd,,,,,,,ctch,resources/DP.BMP,resources/DB.BMP,Door4,-0.20695772,-0.035551694,1,0,0,0.6302,optionLeft,60,9705,5,7,0,7,0,1,,,,,,,,,,,,,,,,,,,,,,,,,,,,,,,,,,,,,,,
,,,,,,,,2023-08-16_08h40.57.742,HF_wild_card,2022.2.4,Win32,59.94485074,58545249cceb5b0001e4875a,64d2fd46c836a06233681665,64dc7e6dbd8f1d06ebe1fcfd,,,,,,,sngl,resources/DG.BMP,resources/Empty.png,Door2,-0.178360297,-0.084947314,1,0,0,0.6648,optionLeft,40,9745,5,8,0,8,0,1,,,,,,,,,,,,,,,,,,,,,,,,,,,,,,,,,,,,,,,
,,,,,,,,2023-08-16_08h40.57.742,HF_wild_card,2022.2.4,Win32,59.94485074,58545249cceb5b0001e4875a,64d2fd46c836a06233681665,64dc7e6dbd8f1d06ebe1fcfd,,,,,,,decisionTrl,resources/DR.BMP,resources/DP.BMP,Door4,0.289597492,0.143832148,1,0,0,0.7153,optionRight,80,9825,5,9,0,9,0,1,,,,,,,,,,,,,,,,,,,,,,,,,,,,,,,,,,,,,,,
,,,,,,,,2023-08-16_08h40.57.742,HF_wild_card,2022.2.4,Win32,59.94485074,58545249cceb5b0001e4875a,64d2fd46c836a06233681665,64dc7e6dbd8f1d06ebe1fcfd,,,,,,,decisionTrl,resources/DR.BMP,resources/DP.BMP,Door4,0.235002401,0.112634892,1,0,0,0.5827,optionRight,60,9885,5,10,0,10,0,1,,,,,,,,,,,,,,,,,,,,,,,,,,,,,,,,,,,,,,,
,,,,,,,,2023-08-16_08h40.57.742,HF_wild_card,2022.2.4,Win32,59.94485074,58545249cceb5b0001e4875a,64d2fd46c836a06233681665,64dc7e6dbd8f1d06ebe1fcfd,,,,,,,decisionTrl,resources/DG.BMP,resources/DB.BMP,Door2,-0.212157191,-0.06674895,1,0,0,1.3151,optionLeft,20,9905,5,11,0,11,0,1,,,,,,,,,,,,,,,,,,,,,,,,,,,,,,,,,,,,,,,
,,,,,,,,2023-08-16_08h40.57.742,HF_wild_card,2022.2.4,Win32,59.94485074,58545249cceb5b0001e4875a,64d2fd46c836a06233681665,64dc7e6dbd8f1d06ebe1fcfd,,,,,,,decisionTrl,resources/DR.BMP,resources/DY.BMP,WildCard_NonEx,0.314295399,0.007344382,1,0,0,0.598,optionRight,55,9960,5,12,0,12,0,1,,,,,,,,,,,,,,,,,,,,,,,,,,,,,,,,,,,,,,,
,,,,,,,,2023-08-16_08h40.57.742,HF_wild_card,2022.2.4,Win32,59.94485074,58545249cceb5b0001e4875a,64d2fd46c836a06233681665,64dc7e6dbd8f1d06ebe1fcfd,,,,,,,sngl,resources/DY.BMP,resources/Empty.png,WildCard_NonEx,-0.170560992,-0.055049935,1,0,0,0.6167,optionLeft,55,10015,5,13,0,13,0,1,,,,,,,,,,,,,,,,,,,,,,,,,,,,,,,,,,,,,,,
,,,,,,,,2023-08-16_08h40.57.742,HF_wild_card,2022.2.4,Win32,59.94485074,58545249cceb5b0001e4875a,64d2fd46c836a06233681665,64dc7e6dbd8f1d06ebe1fcfd,,,,,,,decisionTrl,resources/DP.BMP,resources/DR.BMP,Door4,-0.160161933,-0.029052345,1,0,0,0.5984,optionLeft,60,10075,5,14,0,14,0,1,,,,,,,,,,,,,,,,,,,,,,,,,,,,,,,,,,,,,,,
,,,,,,,,2023-08-16_08h40.57.742,HF_wild_card,2022.2.4,Win32,59.94485074,58545249cceb5b0001e4875a,64d2fd46c836a06233681665,64dc7e6dbd8f1d06ebe1fcfd,,,,,,,sngl,resources/DB.BMP,resources/Empty.png,Door1,-0.187459479,-0.027752468,1,0,0,0.632,optionLeft,30,10105,5,15,0,15,0,1,,,,,,,,,,,,,,,,,,,,,,,,,,,,,,,,,,,,,,,
,,,,,,,,2023-08-16_08h40.57.742,HF_wild_card,2022.2.4,Win32,59.94485074,58545249cceb5b0001e4875a,64d2fd46c836a06233681665,64dc7e6dbd8f1d06ebe1fcfd,,,,,,,sngl,resources/DR.BMP,resources/Empty.png,Door3,-0.175760464,-0.039451404,1,0,0,0.6313,optionLeft,70,10175,5,16,0,16,0,1,,,,,,,,,,,,,,,,,,,,,,,,,,,,,,,,,,,,,,,
,,,,,,,,2023-08-16_08h40.57.742,HF_wild_card,2022.2.4,Win32,59.94485074,58545249cceb5b0001e4875a,64d2fd46c836a06233681665,64dc7e6dbd8f1d06ebe1fcfd,,,,,,,decisionTrl,resources/DY.BMP,resources/DB.BMP,WildCard_NonEx,-0.235555143,-0.042051121,1,0,0,0.9116,optionLeft,45,10220,5,17,0,17,0,1,,,,,,,,,,,,,,,,,,,,,,,,,,,,,,,,,,,,,,,
,,,,,,,,2023-08-16_08h40.57.742,HF_wild_card,2022.2.4,Win32,59.94485074,58545249cceb5b0001e4875a,64d2fd46c836a06233681665,64dc7e6dbd8f1d06ebe1fcfd,,,,,,,decisionTrl,resources/DB.BMP,resources/DG.BMP,Door2,0.318195032,0.090536935,1,0,0,1.2813,optionRight,20,10240,5,18,0,18,0,1,,,,,,,,,,,,,,,,,,,,,,,,,,,,,,,,,,,,,,,
,,,,,,,,2023-08-16_08h40.57.742,HF_wild_card,2022.2.4,Win32,59.94485074,58545249cceb5b0001e4875a,64d2fd46c836a06233681665,64dc7e6dbd8f1d06ebe1fcfd,,,,,,,sngl,resources/Empty.png,resources/DP.BMP,Door4,0.311695488,0.047640742,1,0,0,0.5481,optionRight,60,10300,5,19,0,19,0,1,,,,,,,,,,,,,,,,,,,,,,,,,,,,,,,,,,,,,,,
,,,,,,,,2023-08-16_08h40.57.742,HF_wild_card,2022.2.4,Win32,59.94485074,58545249cceb5b0001e4875a,64d2fd46c836a06233681665,64dc7e6dbd8f1d06ebe1fcfd,,,,,,,decisionTrl,resources/DY.BMP,resources/DG.BMP,WildCard_NonEx,-0.191359111,-0.051150302,1,0,0,0.7148,optionLeft,45,10345,5,20,0,20,0,1,,,,,,,,,,,,,,,,,,,,,,,,,,,,,,,,,,,,,,,
,,,,,,,,2023-08-16_08h40.57.742,HF_wild_card,2022.2.4,Win32,59.94485074,58545249cceb5b0001e4875a,64d2fd46c836a06233681665,64dc7e6dbd8f1d06ebe1fcfd,,,,,,,ctch,resources/DR.BMP,resources/DG.BMP,Door3,-0.226455961,-0.042051121,1,0,0,0.8296,optionLeft,70,10415,5,21,0,21,0,1,,,,,,,,,,,,,,,,,,,,,,,,,,,,,,,,,,,,,,,
,,,,,,,,2023-08-16_08h40.57.742,HF_wild_card,2022.2.4,Win32,59.94485074,58545249cceb5b0001e4875a,64d2fd46c836a06233681665,64dc7e6dbd8f1d06ebe1fcfd,,,,,,,sngl,resources/Empty.png,resources/DY.BMP,WildCard_NonEx,0.322094586,0.056739924,1,0,0,0.4815,optionRight,45,10460,5,22,0,22,0,1,,,,,,,,,,,,,,,,,,,,,,,,,,,,,,,,,,,,,,,
,,,,,,,,2023-08-16_08h40.57.742,HF_wild_card,2022.2.4,Win32,59.94485074,58545249cceb5b0001e4875a,64d2fd46c836a06233681665,64dc7e6dbd8f1d06ebe1fcfd,,,,,,,sngl,resources/DY.BMP,resources/Empty.png,WildCard_NonEx,-0.245954202,-0.043350998,1,0,0,0.5465,optionLeft,45,10505,5,23,0,23,0,1,,,,,,,,,,,,,,,,,,,,,,,,,,,,,,,,,,,,,,,
,,,,,,,,2023-08-16_08h40.57.742,HF_wild_card,2022.2.4,Win32,59.94485074,58545249cceb5b0001e4875a,64d2fd46c836a06233681665,64dc7e6dbd8f1d06ebe1fcfd,,,,,,,decisionTrl,resources/DP.BMP,resources/DR.BMP,Door4,-0.219956495,-0.071948421,1,0,0,0.5986,optionLeft,80,10585,5,24,0,24,0,1,,,,,,,,,,,,,,,,,,,,,,,,,,,,,,,,,,,,,,,
,,,,,,,,2023-08-16_08h40.57.742,HF_wild_card,2022.2.4,Win32,59.94485074,58545249cceb5b0001e4875a,64d2fd46c836a06233681665,64dc7e6dbd8f1d06ebe1fcfd,,,,,,,decisionTrl,resources/DP.BMP,resources/DR.BMP,Door4,-0.219956495,-0.074548176,1,0,0,0.5467,optionLeft,80,10665,5,25,0,25,0,1,,,,,,,,,,,,,,,,,,,,,,,,,,,,,,,,,,,,,,,
,,,,,,,,2023-08-16_08h40.57.742,HF_wild_card,2022.2.4,Win32,59.94485074,58545249cceb5b0001e4875a,64d2fd46c836a06233681665,64dc7e6dbd8f1d06ebe1fcfd,,,,,,,decisionTrl,resources/DB.BMP,resources/DG.BMP,Door2,0.232402646,0.156830963,1,0,0,1.1539,optionRight,20,10685,5,26,0,26,0,1,,,,,,,,,,,,,,,,,,,,,,,,,,,,,,,,,,,,,,,
,,,,,,,,2023-08-16_08h40.57.742,HF_wild_card,2022.2.4,Win32,59.94485074,58545249cceb5b0001e4875a,64d2fd46c836a06233681665,64dc7e6dbd8f1d06ebe1fcfd,,,,,,,decisionTrl,resources/DG.BMP,resources/DY.BMP,WildCard_NonEx,0.266199618,0.130833256,1,0,0,1.0979,optionRight,55,10740,5,27,0,27,0,1,,,,,,,,,,,,,,,,,,,,,,,,,,,,,,,,,,,,,,,
,,,,,,,,2023-08-16_08h40.57.742,HF_wild_card,2022.2.4,Win32,59.94485074,58545249cceb5b0001e4875a,64d2fd46c836a06233681665,64dc7e6dbd8f1d06ebe1fcfd,,,,,,,ctch,resources/DG.BMP,resources/DR.BMP,Door2,-0.195258783,0.003444788,1,0,0,0.6146,optionLeft,20,10760,5,28,0,28,0,1,,,,,,,,,,,,,,,,,,,,,,,,,,,,,,,,,,,,,,,
,,,,,,,,2023-08-16_08h40.57.742,HF_wild_card,2022.2.4,Win32,59.94485074,58545249cceb5b0001e4875a,64d2fd46c836a06233681665,64dc7e6dbd8f1d06ebe1fcfd,,,,,,,ctch,resources/DR.BMP,resources/DG.BMP,Door3,-0.17186087,-0.01735333,1,0,0,0.5817,optionLeft,70,10830,5,29,0,29,0,1,,,,,,,,,,,,,,,,,,,,,,,,,,,,,,,,,,,,,,,
,,,,,,,,2023-08-16_08h40.57.742,HF_wild_card,2022.2.4,Win32,59.94485074,58545249cceb5b0001e4875a,64d2fd46c836a06233681665,64dc7e6dbd8f1d06ebe1fcfd,,,,,,,decisionTrl,resources/DG.BMP,resources/DB.BMP,Door2,-0.218656657,0.029442456,1,0,0,1.115,optionLeft,20,10850,5,30,0,30,0,1,,,,,,,,,,,,,,,,,,,,,,,,,,,,,,,,,,,,,,,
,,,,,,,,2023-08-16_08h40.57.742,HF_wild_card,2022.2.4,Win32,59.94485074,58545249cceb5b0001e4875a,64d2fd46c836a06233681665,64dc7e6dbd8f1d06ebe1fcfd,,,,,,,decisionTrl,resources/DY.BMP,resources/DP.BMP,Door4,0.335093518,0.142532193,1,0,0,1.1811,optionRight,80,10930,5,31,0,31,0,1,,,,,,,,,,,,,,,,,,,,,,,,,,,,,,,,,,,,,,,
,,,,,,,,2023-08-16_08h40.57.742,HF_wild_card,2022.2.4,Win32,59.94485074,58545249cceb5b0001e4875a,64d2fd46c836a06233681665,64dc7e6dbd8f1d06ebe1fcfd,,,,,,,sngl,resources/Empty.png,resources/DB.BMP,Door1,0.348092215,0.098336239,1,0,0,0.6054,optionRight,30,10960,5,32,0,32,0,1,,,,,,,,,,,,,,,,,,,,,,,,,,,,,,,,,,,,,,,
,,,,,,,,2023-08-16_08h40.57.742,HF_wild_card,2022.2.4,Win32,59.94485074,58545249cceb5b0001e4875a,64d2fd46c836a06233681665,64dc7e6dbd8f1d06ebe1fcfd,,,,,,,decisionTrl,resources/DB.BMP,resources/DY.BMP,WildCard_NonEx,0.296097035,0.076238165,1,0,0,0.8152,optionRight,55,11015,5,33,0,33,0,1,,,,,,,,,,,,,,,,,,,,,,,,,,,,,,,,,,,,,,,
,,,,,,,,2023-08-16_08h40.57.742,HF_wild_card,2022.2.4,Win32,59.94485074,58545249cceb5b0001e4875a,64d2fd46c836a06233681665,64dc7e6dbd8f1d06ebe1fcfd,,,,,,,ctch,resources/DP.BMP,resources/DB.BMP,Door4,-0.235555143,-0.019953163,1,0,0,0.7155,optionLeft,80,11095,5,34,0,34,0,1,,,,,,,,,,,,,,,,,,,,,,,,,,,,,,,,,,,,,,,
,,,,,,,,2023-08-16_08h40.57.742,HF_wild_card,2022.2.4,Win32,59.94485074,58545249cceb5b0001e4875a,64d2fd46c836a06233681665,64dc7e6dbd8f1d06ebe1fcfd,,,,,,,decisionTrl,resources/DG.BMP,resources/DB.BMP,Door1,0.393588241,0.015143725,1,0,0,0.7649,optionRight,30,11125,5,35,0,35,0,1,,,,,,,,,,,,,,,,,,,,,,,,,,,,,,,,,,,,,,,
,,,,,,,,2023-08-16_08h40.57.742,HF_wild_card,2022.2.4,Win32,59.94485074,58545249cceb5b0001e4875a,64d2fd46c836a06233681665,64dc7e6dbd8f1d06ebe1fcfd,,,,,,,sngl,resources/DP.BMP,resources/Empty.png,Door4,-0.199158416,-0.065448995,1,0,0,0.6041,optionLeft,80,11205,5,36,0,36,0,1,,,,,,,,,,,,,,,,,,,,,,,,,,,,,,,,,,,,,,,
,,,,,,,,2023-08-16_08h40.57.742,HF_wild_card,2022.2.4,Win32,59.94485074,58545249cceb5b0001e4875a,64d2fd46c836a06233681665,64dc7e6dbd8f1d06ebe1fcfd,,,,,,,ctch,resources/DG.BMP,resources/DR.BMP,Door3,0.351992004,0.02294303,1,0,0,1.0152,optionRight,70,11275,5,37,0,37,0,1,,,,,,,,,,,,,,,,,,,,,,,,,,,,,,,,,,,,,,,
,,,,,,,,2023-08-16_08h40.57.742,HF_wild_card,2022.2.4,Win32,59.94485074,58545249cceb5b0001e4875a,64d2fd46c836a06233681665,64dc7e6dbd8f1d06ebe1fcfd,,,,,,,decisionTrl,resources/DG.BMP,resources/DB.BMP,Door1,0.276598794,0.046340865,1,0,0,0.8962,optionRight,30,11305,5,38,0,38,0,1,,,,,,,,,,,,,,,,,,,,,,,,,,,,,,,,,,,,,,,
,,,,,,,,2023-08-16_08h40.57.742,HF_wild_card,2022.2.4,Win32,59.94485074,58545249cceb5b0001e4875a,64d2fd46c836a06233681665,64dc7e6dbd8f1d06ebe1fcfd,,,,,,,ctch,resources/DB.BMP,resources/DP.BMP,Door4,0.314295399,0.025542785,1,0,0,0.5815,optionRight,60,11365,5,39,0,39,0,1,,,,,,,,,,,,,,,,,,,,,,,,,,,,,,,,,,,,,,,
,,,,,,,,2023-08-16_08h40.57.742,HF_wild_card,2022.2.4,Win32,59.94485074,58545249cceb5b0001e4875a,64d2fd46c836a06233681665,64dc7e6dbd8f1d06ebe1fcfd,,,,,,,ctch,resources/DB.BMP,resources/DP.BMP,Door4,0.26489974,-0.009554104,1,0,0,0.4319,optionRight,60,11425,5,40,0,40,0,1,,,,,,,,,,,,,,,,,,,,,,,,,,,,,,,,,,,,,,,
,,,,,,,,2023-08-16_08h40.57.742,HF_wild_card,2022.2.4,Win32,59.94485074,58545249cceb5b0001e4875a,64d2fd46c836a06233681665,64dc7e6dbd8f1d06ebe1fcfd,,,,,,,decisionTrl,resources/DR.BMP,resources/DP.BMP,Door4,0.337693273,0.004744666,1,0,0,0.4455,optionRight,60,11485,5,41,0,41,0,1,,,,,,,,,,,,,,,,,,,,,,,,,,,,,,,,,,,,,,,
,,,,,,,,2023-08-16_08h40.57.742,HF_wild_card,2022.2.4,Win32,59.94485074,58545249cceb5b0001e4875a,64d2fd46c836a06233681665,64dc7e6dbd8f1d06ebe1fcfd,,,,,,,decisionTrl,resources/DB.BMP,resources/DG.BMP,Door1,-0.231655432,-0.039451404,1,0,0,0.6804,optionLeft,30,11515,5,42,0,42,0,1,,,,,,,,,,,,,,,,,,,,,,,,,,,,,,,,,,,,,,,
,,,,,,,,2023-08-16_08h40.57.742,HF_wild_card,2022.2.4,Win32,59.94485074,58545249cceb5b0001e4875a,64d2fd46c836a06233681665,64dc7e6dbd8f1d06ebe1fcfd,,,,,,,sngl,resources/Empty.png,resources/DG.BMP,Door2,0.338993073,0.030742334,1,0,0,0.6315,optionRight,20,11535,5,43,0,43,0,1,,,,,,,,,,,,,,,,,,,,,,,,,,,,,,,,,,,,,,,
,,,,,,,,2023-08-16_08h40.57.742,HF_wild_card,2022.2.4,Win32,59.94485074,58545249cceb5b0001e4875a,64d2fd46c836a06233681665,64dc7e6dbd8f1d06ebe1fcfd,,,,,,,,,,,,,,,,,,,,,,,,,,4,0,4,0,1,,,,,,,,,,,,,,,,,,,,,,,,,,,,,,,,,,
,,,,,,,,2023-08-16_08h40.57.742,HF_wild_card,2022.2.4,Win32,59.94485074,58545249cceb5b0001e4875a,64d2fd46c836a06233681665,64dc7e6dbd8f1d06ebe1fcfd,,,,,,,decisionTrl,resources/DY.BMP,resources/DP.BMP,Door4,0.315595277,-0.026452512,1,0,0,0.6023,optionRight,60,11595,6,0,0,0,0,1,,,,,,,,,,,,,,,,,,,,,,,,,,,,,,,,,,,,,,,
,,,,,,,,2023-08-16_08h40.57.742,HF_wild_card,2022.2.4,Win32,59.94485074,58545249cceb5b0001e4875a,64d2fd46c836a06233681665,64dc7e6dbd8f1d06ebe1fcfd,,,,,,,decisionTrl,resources/DP.BMP,resources/DR.BMP,Door4,-0.174460586,-0.058949607,1,0,0,0.6981,optionLeft,80,11675,6,1,0,1,0,1,,,,,,,,,,,,,,,,,,,,,,,,,,,,,,,,,,,,,,,
,,,,,,,,2023-08-16_08h40.57.742,HF_wild_card,2022.2.4,Win32,59.94485074,58545249cceb5b0001e4875a,64d2fd46c836a06233681665,64dc7e6dbd8f1d06ebe1fcfd,,,,,,,sngl,resources/Empty.png,resources/DB.BMP,Door1,0.38578882,-0.01215382,1,0,0,1.563,optionRight,30,11705,6,2,0,2,0,1,,,,,,,,,,,,,,,,,,,,,,,,,,,,,,,,,,,,,,,
,,,,,,,,2023-08-16_08h40.57.742,HF_wild_card,2022.2.4,Win32,59.94485074,58545249cceb5b0001e4875a,64d2fd46c836a06233681665,64dc7e6dbd8f1d06ebe1fcfd,,,,,,,decisionTrl,resources/DB.BMP,resources/DG.BMP,Door2,0.277898672,0.158130801,1,0,0,1.1311,optionRight,40,11745,6,3,0,3,0,1,,,,,,,,,,,,,,,,,,,,,,,,,,,,,,,,,,,,,,,
,,,,,,,,2023-08-16_08h40.57.742,HF_wild_card,2022.2.4,Win32,59.94485074,58545249cceb5b0001e4875a,64d2fd46c836a06233681665,64dc7e6dbd8f1d06ebe1fcfd,,,,,,,sngl,resources/DP.BMP,resources/Empty.png,Door4,-0.216056902,-0.038151527,1,0,0,0.531,optionLeft,60,11805,6,4,0,4,0,1,,,,,,,,,,,,,,,,,,,,,,,,,,,,,,,,,,,,,,,
,,,,,,,,2023-08-16_08h40.57.742,HF_wild_card,2022.2.4,Win32,59.94485074,58545249cceb5b0001e4875a,64d2fd46c836a06233681665,64dc7e6dbd8f1d06ebe1fcfd,,,,,,,decisionTrl,resources/DP.BMP,resources/DR.BMP,Door4,-0.214757024,-0.039451404,1,0,0,0.6809,optionLeft,60,11865,6,5,0,5,0,1,,,,,,,,,,,,,,,,,,,,,,,,,,,,,,,,,,,,,,,
,,,,,,,,2023-08-16_08h40.57.742,HF_wild_card,2022.2.4,Win32,59.94485074,58545249cceb5b0001e4875a,64d2fd46c836a06233681665,64dc7e6dbd8f1d06ebe1fcfd,,,,,,,decisionTrl,resources/DP.BMP,resources/DY.BMP,Door4,-0.22255625,-0.030352184,1,0,0,0.5313,optionLeft,80,11945,6,6,0,6,0,1,,,,,,,,,,,,,,,,,,,,,,,,,,,,,,,,,,,,,,,
,,,,,,,,2023-08-16_08h40.57.742,HF_wild_card,2022.2.4,Win32,59.94485074,58545249cceb5b0001e4875a,64d2fd46c836a06233681665,64dc7e6dbd8f1d06ebe1fcfd,,,,,,,decisionTrl,resources/DR.BMP,resources/DY.BMP,WildCard_NonEx,0.302596345,0.033342089,1,0,0,0.9468,optionRight,55,12000,6,7,0,7,0,1,,,,,,,,,,,,,,,,,,,,,,,,,,,,,,,,,,,,,,,
,,,,,,,,2023-08-16_08h40.57.742,HF_wild_card,2022.2.4,Win32,59.94485074,58545249cceb5b0001e4875a,64d2fd46c836a06233681665,64dc7e6dbd8f1d06ebe1fcfd,,,,,,,ctch,resources/DG.BMP,resources/DR.BMP,Door3,0.312995366,0.029442456,1,0,0,1.0319,optionRight,70,12070,6,8,0,8,0,1,,,,,,,,,,,,,,,,,,,,,,,,,,,,,,,,,,,,,,,
,,,,,,,,2023-08-16_08h40.57.742,HF_wild_card,2022.2.4,Win32,59.94485074,58545249cceb5b0001e4875a,64d2fd46c836a06233681665,64dc7e6dbd8f1d06ebe1fcfd,,,,,,,decisionTrl,resources/DR.BMP,resources/DP.BMP,Door4,0.270099251,0.025542785,1,0,0,0.515,optionRight,60,12130,6,9,0,9,0,1,,,,,,,,,,,,,,,,,,,,,,,,,,,,,,,,,,,,,,,
,,,,,,,,2023-08-16_08h40.57.742,HF_wild_card,2022.2.4,Win32,59.94485074,58545249cceb5b0001e4875a,64d2fd46c836a06233681665,64dc7e6dbd8f1d06ebe1fcfd,,,,,,,sngl,resources/Empty.png,resources/DY.BMP,WildCard_NonEx,0.338993073,0.011244093,1,0,0,0.6668,optionRight,55,12185,6,10,0,10,0,1,,,,,,,,,,,,,,,,,,,,,,,,,,,,,,,,,,,,,,,
,,,,,,,,2023-08-16_08h40.57.742,HF_wild_card,2022.2.4,Win32,59.94485074,58545249cceb5b0001e4875a,64d2fd46c836a06233681665,64dc7e6dbd8f1d06ebe1fcfd,,,,,,,sngl,resources/Empty.png,resources/DY.BMP,WildCard_NonEx,0.302596345,0.060639634,1,0,0,0.5379,optionRight,45,12230,6,11,0,11,0,1,,,,,,,,,,,,,,,,,,,,,,,,,,,,,,,,,,,,,,,
,,,,,,,,2023-08-16_08h40.57.742,HF_wild_card,2022.2.4,Win32,59.94485074,58545249cceb5b0001e4875a,64d2fd46c836a06233681665,64dc7e6dbd8f1d06ebe1fcfd,,,,,,,ctch,resources/DB.BMP,resources/DP.BMP,Door4,0.38058931,-0.019953163,1,0,0,0.6149,optionRight,60,12290,6,12,0,12,0,1,,,,,,,,,,,,,,,,,,,,,,,,,,,,,,,,,,,,,,,
,,,,,,,,2023-08-16_08h40.57.742,HF_wild_card,2022.2.4,Win32,59.94485074,58545249cceb5b0001e4875a,64d2fd46c836a06233681665,64dc7e6dbd8f1d06ebe1fcfd,,,,,,,ctch,resources/DR.BMP,resources/DG.BMP,Door2,0.359791191,0.006044544,1,0,0,0.5559,optionRight,20,12310,6,13,0,13,0,1,,,,,,,,,,,,,,,,,,,,,,,,,,,,,,,,,,,,,,,
,,,,,,,,2023-08-16_08h40.57.742,HF_wild_card,2022.2.4,Win32,59.94485074,58545249cceb5b0001e4875a,64d2fd46c836a06233681665,64dc7e6dbd8f1d06ebe1fcfd,,,,,,,decisionTrl,resources/DG.BMP,resources/DB.BMP,Door1,0.342892705,0.047640742,1,0,0,0.5285,optionRight,30,12340,6,14,0,14,0,1,,,,,,,,,,,,,,,,,,,,,,,,,,,,,,,,,,,,,,,
,,,,,,,,2023-08-16_08h40.57.742,HF_wild_card,2022.2.4,Win32,59.94485074,58545249cceb5b0001e4875a,64d2fd46c836a06233681665,64dc7e6dbd8f1d06ebe1fcfd,,,,,,,decisionTrl,resources/DR.BMP,resources/DP.BMP,Door4,0.29869679,0.119134358,1,0,0,0.6309,optionRight,80,12420,6,15,0,15,0,1,,,,,,,,,,,,,,,,,,,,,,,,,,,,,,,,,,,,,,,
,,,,,,,,2023-08-16_08h40.57.742,HF_wild_card,2022.2.4,Win32,59.94485074,58545249cceb5b0001e4875a,64d2fd46c836a06233681665,64dc7e6dbd8f1d06ebe1fcfd,,,,,,,ctch,resources/DB.BMP,resources/DP.BMP,Door4,0.402687306,0.029442456,1,0,0,0.6124,optionRight,60,12480,6,16,0,16,0,1,,,,,,,,,,,,,,,,,,,,,,,,,,,,,,,,,,,,,,,
,,,,,,,,2023-08-16_08h40.57.742,HF_wild_card,2022.2.4,Win32,59.94485074,58545249cceb5b0001e4875a,64d2fd46c836a06233681665,64dc7e6dbd8f1d06ebe1fcfd,,,,,,,sngl,resources/Empty.png,resources/DR.BMP,Door3,0.341592828,0.024242907,1,0,0,0.565,optionRight,70,12550,6,17,0,17,0,1,,,,,,,,,,,,,,,,,,,,,,,,,,,,,,,,,,,,,,,
,,,,,,,,2023-08-16_08h40.57.742,HF_wild_card,2022.2.4,Win32,59.94485074,58545249cceb5b0001e4875a,64d2fd46c836a06233681665,64dc7e6dbd8f1d06ebe1fcfd,,,,,,,sngl,resources/Empty.png,resources/DG.BMP,Door2,0.38058931,0.041141393,1,0,0,0.5812,optionRight,40,12590,6,18,0,18,0,1,,,,,,,,,,,,,,,,,,,,,,,,,,,,,,,,,,,,,,,
,,,,,,,,2023-08-16_08h40.57.742,HF_wild_card,2022.2.4,Win32,59.94485074,58545249cceb5b0001e4875a,64d2fd46c836a06233681665,64dc7e6dbd8f1d06ebe1fcfd,,,,,,,decisionTrl,resources/DB.BMP,resources/DG.BMP,Door2,0.322094586,0.069738816,1,0,0,0.9481,optionRight,40,12630,6,19,0,19,0,1,,,,,,,,,,,,,,,,,,,,,,,,,,,,,,,,,,,,,,,
,,,,,,,,2023-08-16_08h40.57.742,HF_wild_card,2022.2.4,Win32,59.94485074,58545249cceb5b0001e4875a,64d2fd46c836a06233681665,64dc7e6dbd8f1d06ebe1fcfd,,,,,,,sngl,resources/DB.BMP,resources/Empty.png,Door1,-0.197858538,-0.030352184,1,0,0,0.6216,optionLeft,30,12660,6,20,0,20,0,1,,,,,,,,,,,,,,,,,,,,,,,,,,,,,,,,,,,,,,,
,,,,,,,,2023-08-16_08h40.57.742,HF_wild_card,2022.2.4,Win32,59.94485074,58545249cceb5b0001e4875a,64d2fd46c836a06233681665,64dc7e6dbd8f1d06ebe1fcfd,,,,,,,decisionTrl,resources/DP.BMP,resources/DR.BMP,Door4,-0.183559768,-0.022552879,1,0,0,0.6652,optionLeft,60,12720,6,21,0,21,0,1,,,,,,,,,,,,,,,,,,,,,,,,,,,,,,,,,,,,,,,
,,,,,,,,2023-08-16_08h40.57.742,HF_wild_card,2022.2.4,Win32,59.94485074,58545249cceb5b0001e4875a,64d2fd46c836a06233681665,64dc7e6dbd8f1d06ebe1fcfd,,,,,,,decisionTrl,resources/DY.BMP,resources/DR.BMP,WildCard_NonEx,-0.209557475,-0.009554104,1,0,0,1.032,optionLeft,55,12775,6,22,0,22,0,1,,,,,,,,,,,,,,,,,,,,,,,,,,,,,,,,,,,,,,,
,,,,,,,,2023-08-16_08h40.57.742,HF_wild_card,2022.2.4,Win32,59.94485074,58545249cceb5b0001e4875a,64d2fd46c836a06233681665,64dc7e6dbd8f1d06ebe1fcfd,,,,,,,sngl,resources/DG.BMP,resources/Empty.png,Door2,-0.205657842,-0.023852757,1,0,0,0.5982,optionLeft,20,12795,6,23,0,23,0,1,,,,,,,,,,,,,,,,,,,,,,,,,,,,,,,,,,,,,,,
,,,,,,,,2023-08-16_08h40.57.742,HF_wild_card,2022.2.4,Win32,59.94485074,58545249cceb5b0001e4875a,64d2fd46c836a06233681665,64dc7e6dbd8f1d06ebe1fcfd,,,,,,,decisionTrl,resources/DB.BMP,resources/DG.BMP,Door2,0.344192583,0.029442456,1,0,0,0.6479,optionRight,20,12815,6,24,0,24,0,1,,,,,,,,,,,,,,,,,,,,,,,,,,,,,,,,,,,,,,,
,,,,,,,,2023-08-16_08h40.57.742,HF_wild_card,2022.2.4,Win32,59.94485074,58545249cceb5b0001e4875a,64d2fd46c836a06233681665,64dc7e6dbd8f1d06ebe1fcfd,,,,,,,decisionTrl,resources/DG.BMP,resources/DB.BMP,Door1,0.314295399,0.094436529,1,0,0,1.082,optionRight,30,12845,6,25,0,25,0,1,,,,,,,,,,,,,,,,,,,,,,,,,,,,,,,,,,,,,,,
,,,,,,,,2023-08-16_08h40.57.742,HF_wild_card,2022.2.4,Win32,59.94485074,58545249cceb5b0001e4875a,64d2fd46c836a06233681665,64dc7e6dbd8f1d06ebe1fcfd,,,,,,,decisionTrl,resources/DY.BMP,resources/DB.BMP,WildCard_NonEx,-0.210857314,-0.021253002,1,0,0,0.8821,optionLeft,45,12890,6,26,0,26,0,1,,,,,,,,,,,,,,,,,,,,,,,,,,,,,,,,,,,,,,,
,,,,,,,,2023-08-16_08h40.57.742,HF_wild_card,2022.2.4,Win32,59.94485074,58545249cceb5b0001e4875a,64d2fd46c836a06233681665,64dc7e6dbd8f1d06ebe1fcfd,,,,,,,sngl,resources/DY.BMP,resources/Empty.png,WildCard_NonEx,-0.214757024,-0.027752468,1,0,0,0.7,optionLeft,45,12935,6,27,0,27,0,1,,,,,,,,,,,,,,,,,,,,,,,,,,,,,,,,,,,,,,,
,,,,,,,,2023-08-16_08h40.57.742,HF_wild_card,2022.2.4,Win32,59.94485074,58545249cceb5b0001e4875a,64d2fd46c836a06233681665,64dc7e6dbd8f1d06ebe1fcfd,,,,,,,ctch,resources/DG.BMP,resources/DR.BMP,Door3,0.299996668,0.037241683,1,0,0,0.7814,optionRight,70,13005,6,28,0,28,0,1,,,,,,,,,,,,,,,,,,,,,,,,,,,,,,,,,,,,,,,
,,,,,,,,2023-08-16_08h40.57.742,HF_wild_card,2022.2.4,Win32,59.94485074,58545249cceb5b0001e4875a,64d2fd46c836a06233681665,64dc7e6dbd8f1d06ebe1fcfd,,,,,,,decisionTrl,resources/DB.BMP,resources/DY.BMP,WildCard_NonEx,0.383189065,0.015143725,1,0,0,2.2969,optionRight,45,13050,6,29,0,29,0,1,,,,,,,,,,,,,,,,,,,,,,,,,,,,,,,,,,,,,,,
,,,,,,,,2023-08-16_08h40.57.742,HF_wild_card,2022.2.4,Win32,59.94485074,58545249cceb5b0001e4875a,64d2fd46c836a06233681665,64dc7e6dbd8f1d06ebe1fcfd,,,,,,,decisionTrl,resources/DB.BMP,resources/DG.BMP,Door2,0.306495978,0.03854156,1,0,0,0.7482,optionRight,40,13090,6,30,0,30,0,1,,,,,,,,,,,,,,,,,,,,,,,,,,,,,,,,,,,,,,,
,,,,,,,,2023-08-16_08h40.57.742,HF_wild_card,2022.2.4,Win32,59.94485074,58545249cceb5b0001e4875a,64d2fd46c836a06233681665,64dc7e6dbd8f1d06ebe1fcfd,,,,,,,decisionTrl,resources/DG.BMP,resources/DB.BMP,Door1,0.38058931,0.011244093,1,0,0,2.0322,optionRight,30,13120,6,31,0,31,0,1,,,,,,,,,,,,,,,,,,,,,,,,,,,,,,,,,,,,,,,
,,,,,,,,2023-08-16_08h40.57.742,HF_wild_card,2022.2.4,Win32,59.94485074,58545249cceb5b0001e4875a,64d2fd46c836a06233681665,64dc7e6dbd8f1d06ebe1fcfd,,,,,,,decisionTrl,resources/DR.BMP,resources/DP.BMP,Door4,0.267499496,0.094436529,1,0,0,1.0658,optionRight,80,13200,6,32,0,32,0,1,,,,,,,,,,,,,,,,,,,,,,,,,,,,,,,,,,,,,,,
,,,,,,,,2023-08-16_08h40.57.742,HF_wild_card,2022.2.4,Win32,59.94485074,58545249cceb5b0001e4875a,64d2fd46c836a06233681665,64dc7e6dbd8f1d06ebe1fcfd,,,,,,,sngl,resources/DY.BMP,resources/Empty.png,WildCard_NonEx,-0.19655866,-0.048550586,1,0,0,0.5647,optionLeft,55,13255,6,33,0,33,0,1,,,,,,,,,,,,,,,,,,,,,,,,,,,,,,,,,,,,,,,
,,,,,,,,2023-08-16_08h40.57.742,HF_wild_card,2022.2.4,Win32,59.94485074,58545249cceb5b0001e4875a,64d2fd46c836a06233681665,64dc7e6dbd8f1d06ebe1fcfd,,,,,,,sngl,resources/DR.BMP,resources/Empty.png,Door3,-0.199158416,-0.036851572,1,0,0,0.6655,optionLeft,70,13325,6,34,0,34,0,1,,,,,,,,,,,,,,,,,,,,,,,,,,,,,,,,,,,,,,,
,,,,,,,,2023-08-16_08h40.57.742,HF_wild_card,2022.2.4,Win32,59.94485074,58545249cceb5b0001e4875a,64d2fd46c836a06233681665,64dc7e6dbd8f1d06ebe1fcfd,,,,,,,decisionTrl,resources/DG.BMP,resources/DY.BMP,WildCard_NonEx,0.376689677,0.02294303,1,0,0,0.6811,optionRight,55,13380,6,35,0,35,0,1,,,,,,,,,,,,,,,,,,,,,,,,,,,,,,,,,,,,,,,
,,,,,,,,2023-08-16_08h40.57.742,HF_wild_card,2022.2.4,Win32,59.94485074,58545249cceb5b0001e4875a,64d2fd46c836a06233681665,64dc7e6dbd8f1d06ebe1fcfd,,,,,,,ctch,resources/DP.BMP,resources/DB.BMP,Door4,-0.200458293,-0.019953163,1,0,0,0.8317,optionLeft,80,13460,6,36,0,36,0,1,,,,,,,,,,,,,,,,,,,,,,,,,,,,,,,,,,,,,,,
,,,,,,,,2023-08-16_08h40.57.742,HF_wild_card,2022.2.4,Win32,59.94485074,58545249cceb5b0001e4875a,64d2fd46c836a06233681665,64dc7e6dbd8f1d06ebe1fcfd,,,,,,,decisionTrl,resources/DR.BMP,resources/DP.BMP,Door4,0.327294097,-0.008254149,1,0,0,0.5649,optionRight,60,13520,6,37,0,37,0,1,,,,,,,,,,,,,,,,,,,,,,,,,,,,,,,,,,,,,,,
,,,,,,,,2023-08-16_08h40.57.742,HF_wild_card,2022.2.4,Win32,59.94485074,58545249cceb5b0001e4875a,64d2fd46c836a06233681665,64dc7e6dbd8f1d06ebe1fcfd,,,,,,,decisionTrl,resources/DG.BMP,resources/DB.BMP,Door1,0.251900887,0.080137876,1,0,0,1.1811,optionRight,30,13550,6,38,0,38,0,1,,,,,,,,,,,,,,,,,,,,,,,,,,,,,,,,,,,,,,,
,,,,,,,,2023-08-16_08h40.57.742,HF_wild_card,2022.2.4,Win32,59.94485074,58545249cceb5b0001e4875a,64d2fd46c836a06233681665,64dc7e6dbd8f1d06ebe1fcfd,,,,,,,decisionTrl,resources/DP.BMP,resources/DR.BMP,Door4,-0.191359111,-0.048550586,1,0,0,0.6646,optionLeft,80,13630,6,39,0,39,0,1,,,,,,,,,,,,,,,,,,,,,,,,,,,,,,,,,,,,,,,
,,,,,,,,2023-08-16_08h40.57.742,HF_wild_card,2022.2.4,Win32,59.94485074,58545249cceb5b0001e4875a,64d2fd46c836a06233681665,64dc7e6dbd8f1d06ebe1fcfd,,,,,,,sngl,resources/Empty.png,resources/DP.BMP,Door4,0.422185547,-0.021253002,1,0,0,0.6988,optionRight,80,13710,6,40,0,40,0,1,,,,,,,,,,,,,,,,,,,,,,,,,,,,,,,,,,,,,,,
,,,,,,,,2023-08-16_08h40.57.742,HF_wild_card,2022.2.4,Win32,59.94485074,58545249cceb5b0001e4875a,64d2fd46c836a06233681665,64dc7e6dbd8f1d06ebe1fcfd,,,,,,,decisionTrl,resources/DY.BMP,resources/DG.BMP,WildCard_NonEx,-0.212157191,-0.004354516,1,0,0,1.3541,optionLeft,45,13755,6,41,0,41,0,1,,,,,,,,,,,,,,,,,,,,,,,,,,,,,,,,,,,,,,,
,,,,,,,,2023-08-16_08h40.57.742,HF_wild_card,2022.2.4,Win32,59.94485074,58545249cceb5b0001e4875a,64d2fd46c836a06233681665,64dc7e6dbd8f1d06ebe1fcfd,,,,,,,ctch,resources/DR.BMP,resources/DG.BMP,Door3,-0.209557475,-0.040751243,1,0,0,0.9017,optionLeft,70,13825,6,42,0,42,0,1,,,,,,,,,,,,,,,,,,,,,,,,,,,,,,,,,,,,,,,
,,,,,,,,2023-08-16_08h40.57.742,HF_wild_card,2022.2.4,Win32,59.94485074,58545249cceb5b0001e4875a,64d2fd46c836a06233681665,64dc7e6dbd8f1d06ebe1fcfd,,,,,,,ctch,resources/DP.BMP,resources/DB.BMP,Door4,-0.179660174,-0.039451404,1,0,0,0.6382,optionLeft,80,13905,6,43,0,43,0,1,,,,,,,,,,,,,,,,,,,,,,,,,,,,,,,,,,,,,,,
,,,,,,,,2023-08-16_08h40.57.742,HF_wild_card,2022.2.4,Win32,59.94485074,58545249cceb5b0001e4875a,64d2fd46c836a06233681665,64dc7e6dbd8f1d06ebe1fcfd,,,,,,,,,,,,,,,,,,,,,,,,,,5,0,5,0,1,,,,,,,,,,,,,,,,,,,,,,,,,,,,,,,,,,
,,,,,,,,2023-08-16_08h40.57.742,HF_wild_card,2022.2.4,Win32,59.94485074,58545249cceb5b0001e4875a,64d2fd46c836a06233681665,64dc7e6dbd8f1d06ebe1fcfd,,,,,,,decisionTrl,resources/DB.BMP,resources/DG.BMP,Door2,0.329893852,0.056739924,1,0,0,1.2012,optionRight,20,13925,7,0,0,0,0,1,,,,,,,,,,,,,,,,,,,,,,,,,,,,,,,,,,,,,,,
,,,,,,,,2023-08-16_08h40.57.742,HF_wild_card,2022.2.4,Win32,59.94485074,58545249cceb5b0001e4875a,64d2fd46c836a06233681665,64dc7e6dbd8f1d06ebe1fcfd,,,,,,,ctch,resources/DP.BMP,resources/DB.BMP,Door4,-0.208257597,-0.051150302,1,0,0,0.7471,optionLeft,80,14005,7,1,0,1,0,1,,,,,,,,,,,,,,,,,,,,,,,,,,,,,,,,,,,,,,,
,,,,,,,,2023-08-16_08h40.57.742,HF_wild_card,2022.2.4,Win32,59.94485074,58545249cceb5b0001e4875a,64d2fd46c836a06233681665,64dc7e6dbd8f1d06ebe1fcfd,,,,,,,decisionTrl,resources/DR.BMP,resources/DP.BMP,Door4,0.319494909,-0.000454922,1,0,0,0.6656,optionRight,60,14065,7,2,0,2,0,1,,,,,,,,,,,,,,,,,,,,,,,,,,,,,,,,,,,,,,,
,,,,,,,,2023-08-16_08h40.57.742,HF_wild_card,2022.2.4,Win32,59.94485074,58545249cceb5b0001e4875a,64d2fd46c836a06233681665,64dc7e6dbd8f1d06ebe1fcfd,,,,,,,decisionTrl,resources/DG.BMP,resources/DB.BMP,Door2,-0.201758132,-0.01735333,1,0,0,0.7973,optionLeft,20,14085,7,3,0,3,0,1,,,,,,,,,,,,,,,,,,,,,,,,,,,,,,,,,,,,,,,
,,,,,,,,2023-08-16_08h40.57.742,HF_wild_card,2022.2.4,Win32,59.94485074,58545249cceb5b0001e4875a,64d2fd46c836a06233681665,64dc7e6dbd8f1d06ebe1fcfd,,,,,,,decisionTrl,resources/DB.BMP,resources/DG.BMP,Door2,0.211604527,0.108735299,1,0,0,0.7483,optionRight,40,14125,7,4,0,4,0,1,,,,,,,,,,,,,,,,,,,,,,,,,,,,,,,,,,,,,,,
,,,,,,,,2023-08-16_08h40.57.742,HF_wild_card,2022.2.4,Win32,59.94485074,58545249cceb5b0001e4875a,64d2fd46c836a06233681665,64dc7e6dbd8f1d06ebe1fcfd,,,,,,,decisionTrl,resources/DG.BMP,resources/DB.BMP,Door2,-0.19655866,-0.029052345,1,0,0,0.7164,optionLeft,40,14165,7,5,0,5,0,1,,,,,,,,,,,,,,,,,,,,,,,,,,,,,,,,,,,,,,,
,,,,,,,,2023-08-16_08h40.57.742,HF_wild_card,2022.2.4,Win32,59.94485074,58545249cceb5b0001e4875a,64d2fd46c836a06233681665,64dc7e6dbd8f1d06ebe1fcfd,,,,,,,decisionTrl,resources/DR.BMP,resources/DP.BMP,Door4,0.248001254,0.056739924,1,0,0,0.4986,optionRight,80,14245,7,6,0,6,0,1,,,,,,,,,,,,,,,,,,,,,,,,,,,,,,,,,,,,,,,
,,,,,,,,2023-08-16_08h40.57.742,HF_wild_card,2022.2.4,Win32,59.94485074,58545249cceb5b0001e4875a,64d2fd46c836a06233681665,64dc7e6dbd8f1d06ebe1fcfd,,,,,,,ctch,resources/DR.BMP,resources/DG.BMP,Door3,-0.187459479,-0.060249484,1,0,0,0.668,optionLeft,70,14315,7,7,0,7,0,1,,,,,,,,,,,,,,,,,,,,,,,,,,,,,,,,,,,,,,,
,,,,,,,,2023-08-16_08h40.57.742,HF_wild_card,2022.2.4,Win32,59.94485074,58545249cceb5b0001e4875a,64d2fd46c836a06233681665,64dc7e6dbd8f1d06ebe1fcfd,,,,,,,decisionTrl,resources/DB.BMP,resources/DG.BMP,Door2,0.212904405,0.104835588,1,0,0,0.5669,optionRight,40,14355,7,8,0,8,0,1,,,,,,,,,,,,,,,,,,,,,,,,,,,,,,,,,,,,,,,
,,,,,,,,2023-08-16_08h40.57.742,HF_wild_card,2022.2.4,Win32,59.94485074,58545249cceb5b0001e4875a,64d2fd46c836a06233681665,64dc7e6dbd8f1d06ebe1fcfd,,,,,,,ctch,resources/DG.BMP,resources/DR.BMP,Door2,-0.17186087,-0.082347481,1,0,0,0.6636,optionLeft,40,14395,7,9,0,9,0,1,,,,,,,,,,,,,,,,,,,,,,,,,,,,,,,,,,,,,,,
,,,,,,,,2023-08-16_08h40.57.742,HF_wild_card,2022.2.4,Win32,59.94485074,58545249cceb5b0001e4875a,64d2fd46c836a06233681665,64dc7e6dbd8f1d06ebe1fcfd,,,,,,,decisionTrl,resources/DP.BMP,resources/DR.BMP,Door4,-0.175760464,-0.08754703,1,0,0,0.5993,optionLeft,80,14475,7,10,0,10,0,1,,,,,,,,,,,,,,,,,,,,,,,,,,,,,,,,,,,,,,,
,,,,,,,,2023-08-16_08h40.57.742,HF_wild_card,2022.2.4,Win32,59.94485074,58545249cceb5b0001e4875a,64d2fd46c836a06233681665,64dc7e6dbd8f1d06ebe1fcfd,,,,,,,ctch,resources/DG.BMP,resources/DR.BMP,Door3,0.21550416,0.048940697,1,0,0,0.5307,optionRight,70,14545,7,11,0,11,0,1,,,,,,,,,,,,,,,,,,,,,,,,,,,,,,,,,,,,,,,
,,,,,,,,2023-08-16_08h40.57.742,HF_wild_card,2022.2.4,Win32,59.94485074,58545249cceb5b0001e4875a,64d2fd46c836a06233681665,64dc7e6dbd8f1d06ebe1fcfd,,,,,,,decisionTrl,resources/DP.BMP,resources/DR.BMP,Door4,-0.210857314,-0.107045271,1,0,0,0.7492,optionLeft,60,14605,7,12,0,12,0,1,,,,,,,,,,,,,,,,,,,,,,,,,,,,,,,,,,,,,,,
,,,,,,,,2023-08-16_08h40.57.742,HF_wild_card,2022.2.4,Win32,59.94485074,58545249cceb5b0001e4875a,64d2fd46c836a06233681665,64dc7e6dbd8f1d06ebe1fcfd,,,,,,,decisionTrl,resources/DP.BMP,resources/DR.BMP,Door4,-0.190059234,-0.083647358,1,0,0,0.5996,optionLeft,60,14665,7,13,0,13,0,1,,,,,,,,,,,,,,,,,,,,,,,,,,,,,,,,,,,,,,,
,,,,,,,,2023-08-16_08h40.57.742,HF_wild_card,2022.2.4,Win32,59.94485074,58545249cceb5b0001e4875a,64d2fd46c836a06233681665,64dc7e6dbd8f1d06ebe1fcfd,,,,,,,decisionTrl,resources/DB.BMP,resources/DG.BMP,Door1,-0.208257597,-0.056349891,1,0,0,1.0822,optionLeft,30,14695,7,14,0,14,0,1,,,,,,,,,,,,,,,,,,,,,,,,,,,,,,,,,,,,,,,
,,,,,,,,2023-08-16_08h40.57.742,HF_wild_card,2022.2.4,Win32,59.94485074,58545249cceb5b0001e4875a,64d2fd46c836a06233681665,64dc7e6dbd8f1d06ebe1fcfd,,,,,,,decisionTrl,resources/DG.BMP,resources/DB.BMP,Door1,0.299996668,0.090536935,1,0,0,0.8163,optionRight,30,14725,7,15,0,15,0,1,,,,,,,,,,,,,,,,,,,,,,,,,,,,,,,,,,,,,,,
,,,,,,,,2023-08-16_08h40.57.742,HF_wild_card,2022.2.4,Win32,59.94485074,58545249cceb5b0001e4875a,64d2fd46c836a06233681665,64dc7e6dbd8f1d06ebe1fcfd,,,,,,,decisionTrl,resources/DP.BMP,resources/DR.BMP,Door4,-0.223856206,-0.025152635,1,0,0,0.6476,optionLeft,80,14805,7,16,0,16,0,1,,,,,,,,,,,,,,,,,,,,,,,,,,,,,,,,,,,,,,,
,,,,,,,,2023-08-16_08h40.57.742,HF_wild_card,2022.2.4,Win32,59.94485074,58545249cceb5b0001e4875a,64d2fd46c836a06233681665,64dc7e6dbd8f1d06ebe1fcfd,,,,,,,ctch,resources/DR.BMP,resources/DG.BMP,Door3,-0.214757024,-0.032951939,1,0,0,0.7999,optionLeft,70,14875,7,17,0,17,0,1,,,,,,,,,,,,,,,,,,,,,,,,,,,,,,,,,,,,,,,
,,,,,,,,2023-08-16_08h40.57.742,HF_wild_card,2022.2.4,Win32,59.94485074,58545249cceb5b0001e4875a,64d2fd46c836a06233681665,64dc7e6dbd8f1d06ebe1fcfd,,,,,,,ctch,resources/DP.BMP,resources/DB.BMP,Door4,-0.200458293,-0.039451404,1,0,0,0.6328,optionLeft,60,14935,7,18,0,18,0,1,,,,,,,,,,,,,,,,,,,,,,,,,,,,,,,,,,,,,,,
,,,,,,,,2023-08-16_08h40.57.742,HF_wild_card,2022.2.4,Win32,59.94485074,58545249cceb5b0001e4875a,64d2fd46c836a06233681665,64dc7e6dbd8f1d06ebe1fcfd,,,,,,,decisionTrl,resources/DR.BMP,resources/DP.BMP,Door4,0.228503013,0.07363841,1,0,0,0.6988,optionRight,60,14995,7,19,0,19,0,1,,,,,,,,,,,,,,,,,,,,,,,,,,,,,,,,,,,,,,,
,,,,,,,,2023-08-16_08h40.57.742,HF_wild_card,2022.2.4,Win32,59.94485074,58545249cceb5b0001e4875a,64d2fd46c836a06233681665,64dc7e6dbd8f1d06ebe1fcfd,,,,,,,decisionTrl,resources/DB.BMP,resources/DG.BMP,Door1,-0.184859646,-0.021253002,1,0,0,1.2507,optionLeft,30,15025,7,20,0,20,0,1,,,,,,,,,,,,,,,,,,,,,,,,,,,,,,,,,,,,,,,
,,,,,,,,2023-08-16_08h40.57.742,HF_wild_card,2022.2.4,Win32,59.94485074,58545249cceb5b0001e4875a,64d2fd46c836a06233681665,64dc7e6dbd8f1d06ebe1fcfd,,,,,,,decisionTrl,resources/DR.BMP,resources/DP.BMP,Door4,0.272699006,-0.004354516,1,0,0,0.6324,optionRight,60,15085,7,21,0,21,0,1,,,,,,,,,,,,,,,,,,,,,,,,,,,,,,,,,,,,,,,
,,,,,,,,2023-08-16_08h40.57.742,HF_wild_card,2022.2.4,Win32,59.94485074,58545249cceb5b0001e4875a,64d2fd46c836a06233681665,64dc7e6dbd8f1d06ebe1fcfd,,,,,,,decisionTrl,resources/DR.BMP,resources/DP.BMP,Door4,0.34549246,-0.003054638,1,0,0,0.6326,optionRight,80,15165,7,22,0,22,0,1,,,,,,,,,,,,,,,,,,,,,,,,,,,,,,,,,,,,,,,
,,,,,,,,2023-08-16_08h40.57.742,HF_wild_card,2022.2.4,Win32,59.94485074,58545249cceb5b0001e4875a,64d2fd46c836a06233681665,64dc7e6dbd8f1d06ebe1fcfd,,,,,,,decisionTrl,resources/DB.BMP,resources/DG.BMP,Door2,0.332493607,0.095736406,1,0,0,0.8822,optionRight,20,15185,7,23,0,23,0,1,,,,,,,,,,,,,,,,,,,,,,,,,,,,,,,,,,,,,,,
,,,,,,,,2023-08-16_08h40.57.742,HF_wild_card,2022.2.4,Win32,59.94485074,58545249cceb5b0001e4875a,64d2fd46c836a06233681665,64dc7e6dbd8f1d06ebe1fcfd,,,,,,,ctch,resources/DP.BMP,resources/DB.BMP,Door4,-0.193958827,-0.043350998,1,0,0,0.7494,optionLeft,80,15265,7,24,0,24,0,1,,,,,,,,,,,,,,,,,,,,,,,,,,,,,,,,,,,,,,,
,,,,,,,,2023-08-16_08h40.57.742,HF_wild_card,2022.2.4,Win32,59.94485074,58545249cceb5b0001e4875a,64d2fd46c836a06233681665,64dc7e6dbd8f1d06ebe1fcfd,,,,,,,decisionTrl,resources/DP.BMP,resources/DR.BMP,Door4,-0.173160709,-0.040751243,1,0,0,0.6825,optionLeft,60,15325,7,25,0,25,0,1,,,,,,,,,,,,,,,,,,,,,,,,,,,,,,,,,,,,,,,
,,,,,,,,2023-08-16_08h40.57.742,HF_wild_card,2022.2.4,Win32,59.94485074,58545249cceb5b0001e4875a,64d2fd46c836a06233681665,64dc7e6dbd8f1d06ebe1fcfd,,,,,,,ctch,resources/DG.BMP,resources/DR.BMP,Door3,0.272699006,0.126933662,1,0,0,1.2826,optionRight,70,15395,7,26,0,26,0,1,,,,,,,,,,,,,,,,,,,,,,,,,,,,,,,,,,,,,,,
,,,,,,,,2023-08-16_08h40.57.742,HF_wild_card,2022.2.4,Win32,59.94485074,58545249cceb5b0001e4875a,64d2fd46c836a06233681665,64dc7e6dbd8f1d06ebe1fcfd,,,,,,,ctch,resources/DB.BMP,resources/DP.BMP,Door4,0.26489974,0.125633785,1,0,0,0.6159,optionRight,60,15455,7,27,0,27,0,1,,,,,,,,,,,,,,,,,,,,,,,,,,,,,,,,,,,,,,,
,,,,,,,,2023-08-16_08h40.57.742,HF_wild_card,2022.2.4,Win32,59.94485074,58545249cceb5b0001e4875a,64d2fd46c836a06233681665,64dc7e6dbd8f1d06ebe1fcfd,,,,,,,ctch,resources/DB.BMP,resources/DP.BMP,Door4,0.277898672,0.098336239,1,0,0,0.6645,optionRight,80,15535,7,28,0,28,0,1,,,,,,,,,,,,,,,,,,,,,,,,,,,,,,,,,,,,,,,
,,,,,,,,2023-08-16_08h40.57.742,HF_wild_card,2022.2.4,Win32,59.94485074,58545249cceb5b0001e4875a,64d2fd46c836a06233681665,64dc7e6dbd8f1d06ebe1fcfd,,,,,,,ctch,resources/DR.BMP,resources/DG.BMP,Door3,-0.23685502,0.009944137,1,0,0,1.3324,optionLeft,70,15605,7,29,0,29,0,1,,,,,,,,,,,,,,,,,,,,,,,,,,,,,,,,,,,,,,,
,,,,,,,,2023-08-16_08h40.57.742,HF_wild_card,2022.2.4,Win32,59.94485074,58545249cceb5b0001e4875a,64d2fd46c836a06233681665,64dc7e6dbd8f1d06ebe1fcfd,,,,,,,decisionTrl,resources/DR.BMP,resources/DP.BMP,Door4,0.272699006,0.137332722,1,0,0,0.7155,optionRight,60,15665,7,30,0,30,0,1,,,,,,,,,,,,,,,,,,,,,,,,,,,,,,,,,,,,,,,
,,,,,,,,2023-08-16_08h40.57.742,HF_wild_card,2022.2.4,Win32,59.94485074,58545249cceb5b0001e4875a,64d2fd46c836a06233681665,64dc7e6dbd8f1d06ebe1fcfd,,,,,,,ctch,resources/DB.BMP,resources/DP.BMP,Door4,0.276598794,0.091836774,1,0,0,0.6303,optionRight,60,15725,7,31,0,31,0,1,,,,,,,,,,,,,,,,,,,,,,,,,,,,,,,,,,,,,,,
,,,,,,,,2023-08-16_08h40.57.742,HF_wild_card,2022.2.4,Win32,59.94485074,58545249cceb5b0001e4875a,64d2fd46c836a06233681665,64dc7e6dbd8f1d06ebe1fcfd,,,,,,,decisionTrl,resources/DG.BMP,resources/DB.BMP,Door2,-0.210857314,0.003444788,1,0,0,1.0325,optionLeft,20,15745,7,32,0,32,0,1,,,,,,,,,,,,,,,,,,,,,,,,,,,,,,,,,,,,,,,
,,,,,,,,2023-08-16_08h40.57.742,HF_wild_card,2022.2.4,Win32,59.94485074,58545249cceb5b0001e4875a,64d2fd46c836a06233681665,64dc7e6dbd8f1d06ebe1fcfd,,,,,,,decisionTrl,resources/DG.BMP,resources/DB.BMP,Door2,-0.234255265,-0.082347481,1,0,0,1.5826,optionLeft,40,15785,7,33,0,33,0,1,,,,,,,,,,,,,,,,,,,,,,,,,,,,,,,,,,,,,,,
,,,,,,,,2023-08-16_08h40.57.742,HF_wild_card,2022.2.4,Win32,59.94485074,58545249cceb5b0001e4875a,64d2fd46c836a06233681665,64dc7e6dbd8f1d06ebe1fcfd,,,,,,,decisionTrl,resources/DG.BMP,resources/DB.BMP,Door2,-0.255053384,-0.062849239,1,0,0,0.6995,optionLeft,40,15825,7,34,0,34,0,1,,,,,,,,,,,,,,,,,,,,,,,,,,,,,,,,,,,,,,,
,,,,,,,,2023-08-16_08h40.57.742,HF_wild_card,2022.2.4,Win32,59.94485074,58545249cceb5b0001e4875a,64d2fd46c836a06233681665,64dc7e6dbd8f1d06ebe1fcfd,,,,,,,decisionTrl,resources/DP.BMP,resources/DR.BMP,Door4,-0.157562178,-0.070648544,1,0,0,0.6161,optionLeft,80,15905,7,35,0,35,0,1,,,,,,,,,,,,,,,,,,,,,,,,,,,,,,,,,,,,,,,
,,,,,,,,2023-08-16_08h40.57.742,HF_wild_card,2022.2.4,Win32,59.94485074,58545249cceb5b0001e4875a,64d2fd46c836a06233681665,64dc7e6dbd8f1d06ebe1fcfd,,,,,,,,,,,,,,,,,,,,,,,,,,6,0,6,0,1,,,,,,,,,,,,,,,,,,,,,,,,,,,,,,,,,,
,,,,,,,,2023-08-16_08h40.57.742,HF_wild_card,2022.2.4,Win32,59.94485074,58545249cceb5b0001e4875a,64d2fd46c836a06233681665,64dc7e6dbd8f1d06ebe1fcfd,,,,,,,,,,,,,,,,,,,,,,,,,,,,,,,3,,,,,,,,,,,,,,,,,,,,,,,,,,,,,,,,,
,,,,,,,,2023-08-16_08h40.57.742,HF_wild_card,2022.2.4,Win32,59.94485074,58545249cceb5b0001e4875a,64d2fd46c836a06233681665,64dc7e6dbd8f1d06ebe1fcfd,,,,,,,,,,,,,,,,,,,,,,,,,,,,,,,,,,,,,,,,,,,,,,,,,,,,,,,,,,,,,,,,
,,,,,,,,2023-08-16_08h40.57.742,HF_wild_card,2022.2.4,Win32,59.94485074,58545249cceb5b0001e4875a,64d2fd46c836a06233681665,64dc7e6dbd8f1d06ebe1fcfd,,,,,,,,,,,,,,,,,,,,,,,,,,,,,,,,40,Door2,resources/DG.BMP,0,0,0,0,1,,,,,,,,,,,,,,,,,,,,,,,,,
,,,,,,,,2023-08-16_08h40.57.742,HF_wild_card,2022.2.4,Win32,59.94485074,58545249cceb5b0001e4875a,64d2fd46c836a06233681665,64dc7e6dbd8f1d06ebe1fcfd,,,,,,,,,,,,,,,,,,,,,,,,,,,,,,,,95,WC_extreme,resources/DBN.BMP,1,0,1,0,1,,,,,,,,,,,,,,,,,,,,,,,,,
,,,,,,,,2023-08-16_08h40.57.742,HF_wild_card,2022.2.4,Win32,59.94485074,58545249cceb5b0001e4875a,64d2fd46c836a06233681665,64dc7e6dbd8f1d06ebe1fcfd,,,,,,,,,,,,,,,,,,,,,,,,,,,,,,,,55,WC_nonExtreme,resources/DY.BMP,2,0,2,0,1,,,,,,,,,,,,,,,,,,,,,,,,,
,,,,,,,,2023-08-16_08h40.57.742,HF_wild_card,2022.2.4,Win32,59.94485074,58545249cceb5b0001e4875a,64d2fd46c836a06233681665,64dc7e6dbd8f1d06ebe1fcfd,,,,,,,,,,,,,,,,,,,,,,,,,,,,,,,,80,Door4,resources/DP.BMP,3,0,3,0,1,,,,,,,,,,,,,,,,,,,,,,,,,
,,,,,,,,2023-08-16_08h40.57.742,HF_wild_card,2022.2.4,Win32,59.94485074,58545249cceb5b0001e4875a,64d2fd46c836a06233681665,64dc7e6dbd8f1d06ebe1fcfd,,,,,,,,,,,,,,,,,,,,,,,,,,,,,,,,20,Door1,resources/DB.BMP,4,0,4,0,1,,,,,,,,,,,,,,,,,,,,,,,,,
,,,,,,,,2023-08-16_08h40.57.742,HF_wild_card,2022.2.4,Win32,59.94485074,58545249cceb5b0001e4875a,64d2fd46c836a06233681665,64dc7e6dbd8f1d06ebe1fcfd,,,,,,,,,,,,,,,,,,,,,,,,,,,,,,,,70,Door3,resources/DR.BMP,5,0,5,0,1,,,,,,,,,,,,,,,,,,,,,,,,,
,,,,,,,,2023-08-16_08h40.57.742,HF_wild_card,2022.2.4,Win32,59.94485074,58545249cceb5b0001e4875a,64d2fd46c836a06233681665,64dc7e6dbd8f1d06ebe1fcfd,,,,,,,,,,,,,,,,,,,,,,,,,,,,,,,,,,,,,,,,,,,,,,,,,,,,,,,,,,,,,,,,
