Condition,Low fixed image (Door1),Low risky image (Door2),High fixed image (Door3),High risky image (Door4),Extreme Wild Card,NonExtreme Wild Card,,date,expName,psychopyVersion,OS,frameRate,PROLIFIC_PID,STUDY_ID,SESSION_ID,mouse_2.x,mouse_2.y,mouse_2.leftButton,mouse_2.midButton,mouse_2.rightButton,mouse_2.clicked_name,Trial Type,Left Option Image,Right Option Image,Chosen Door,mouse.x,mouse.y,mouse.leftButton,mouse.midButton,mouse.rightButton,mouse.time,mouse.clicked_name,Feedback,Cumulative Reward,Block,trial.thisRepN,trial.thisTrialN,trial.thisN,trial.thisIndex,trial.ran,blocks.thisRepN,blocks.thisTrialN,blocks.thisN,blocks.thisIndex,blocks.ran,Money conversion,First Outcome Reported,Shown Door (First Outcome),Displayed Image (First Outcome),outcomes.thisRepN,outcomes.thisTrialN,outcomes.thisN,outcomes.thisIndex,outcomes.ran,judgments.thisRepN,judgments.thisTrialN,judgments.thisN,judgments.thisIndex,judgments.ran,freqMouse.x,freqMouse.y,freqMouse.leftButton,freqMouse.midButton,freqMouse.rightButton,freqMouse.clicked_name,FQJ for first outcome,FQJ for second outcome,Shown Door,Displayed Image,trials.thisRepN,trials.thisTrialN,trials.thisN,trials.thisIndex,trials.ran,judgBlock.thisRepN,judgBlock.thisTrialN,judgBlock.thisN,judgBlock.thisIndex,judgBlock.ran
1,resources/DBN.BMP,resources/DR.BMP,resources/DG.BMP,resources/DP.BMP,resources/DY.BMP,resources/DB.BMP,,2023-08-24_08h16.07.803,HF_wild_card,2022.2.4,Win32,74.96251874,62966289dc2720a7bbedb8f8,64e63663dbcaf322d2eec8da,64e70360d7ca356bf54da705,,,,,,,,,,,,,,,,,,,,,,,,,,,,,,,,,,,,,,,,,,,,,,,,,,,,,,,,,,,,,,,,
,,,,,,,,2023-08-24_08h16.07.803,HF_wild_card,2022.2.4,Win32,74.96251874,62966289dc2720a7bbedb8f8,64e63663dbcaf322d2eec8da,64e70360d7ca356bf54da705,-0.001302083,-0.415364583,1,0,0,agree,,,,,,,,,,,,,,,,,,,,,,,,,,,,,,,,,,,,,,,,,,,,,,,,,,,,,,,,,,
,,,,,,,,2023-08-24_08h16.07.803,HF_wild_card,2022.2.4,Win32,74.96251874,62966289dc2720a7bbedb8f8,64e63663dbcaf322d2eec8da,64e70360d7ca356bf54da705,,,,,,,,,,,,,,,,,,,,,,,,,,,,,,,,,,,,,,,,,,,,,,,,,,,,,,,,,,,,,,,,
,,,,,,,,2023-08-24_08h16.07.803,HF_wild_card,2022.2.4,Win32,74.96251874,62966289dc2720a7bbedb8f8,64e63663dbcaf322d2eec8da,64e70360d7ca356bf54da705,,,,,,,ctch,resources/DG.BMP,resources/DR.BMP,Door2,0.341145833,-0.03125,1,0,0,3.217,optionRight,20,20,1,0,0,0,0,1,,,,,,,,,,,,,,,,,,,,,,,,,,,,,,,,,,,,,,,
,,,,,,,,2023-08-24_08h16.07.803,HF_wild_card,2022.2.4,Win32,74.96251874,62966289dc2720a7bbedb8f8,64e63663dbcaf322d2eec8da,64e70360d7ca356bf54da705,,,,,,,decisionTrl,resources/DR.BMP,resources/DBN.BMP,Door2,-0.317708333,0.006510417,1,0,0,2.52,optionLeft,40,60,1,1,0,1,0,1,,,,,,,,,,,,,,,,,,,,,,,,,,,,,,,,,,,,,,,
,,,,,,,,2023-08-24_08h16.07.803,HF_wild_card,2022.2.4,Win32,74.96251874,62966289dc2720a7bbedb8f8,64e63663dbcaf322d2eec8da,64e70360d7ca356bf54da705,,,,,,,decisionTrl,resources/DB.BMP,resources/DG.BMP,WildCard_NonEx,-0.31640625,-0.0546875,1,0,0,2.336,optionLeft,45,105,1,2,0,2,0,1,,,,,,,,,,,,,,,,,,,,,,,,,,,,,,,,,,,,,,,
,,,,,,,,2023-08-24_08h16.07.803,HF_wild_card,2022.2.4,Win32,74.96251874,62966289dc2720a7bbedb8f8,64e63663dbcaf322d2eec8da,64e70360d7ca356bf54da705,,,,,,,ctch,resources/DBN.BMP,resources/DP.BMP,Door4,0.337239583,-0.045572917,1,0,0,3.844,optionRight,60,165,1,3,0,3,0,1,,,,,,,,,,,,,,,,,,,,,,,,,,,,,,,,,,,,,,,
,,,,,,,,2023-08-24_08h16.07.803,HF_wild_card,2022.2.4,Win32,74.96251874,62966289dc2720a7bbedb8f8,64e63663dbcaf322d2eec8da,64e70360d7ca356bf54da705,,,,,,,decisionTrl,resources/DP.BMP,resources/DG.BMP,Door4,-0.30859375,-0.055989583,1,0,0,2.367,optionLeft,80,245,1,4,0,4,0,1,,,,,,,,,,,,,,,,,,,,,,,,,,,,,,,,,,,,,,,
,,,,,,,,2023-08-24_08h16.07.803,HF_wild_card,2022.2.4,Win32,74.96251874,62966289dc2720a7bbedb8f8,64e63663dbcaf322d2eec8da,64e70360d7ca356bf54da705,,,,,,,decisionTrl,resources/DR.BMP,resources/DBN.BMP,Door2,-0.365885417,-0.0234375,1,0,0,2.42,optionLeft,20,265,1,5,0,5,0,1,,,,,,,,,,,,,,,,,,,,,,,,,,,,,,,,,,,,,,,
,,,,,,,,2023-08-24_08h16.07.803,HF_wild_card,2022.2.4,Win32,74.96251874,62966289dc2720a7bbedb8f8,64e63663dbcaf322d2eec8da,64e70360d7ca356bf54da705,,,,,,,ctch,resources/DR.BMP,resources/DG.BMP,Door3,0.328125,-0.079427083,1,0,0,1.971,optionRight,70,335,1,6,0,6,0,1,,,,,,,,,,,,,,,,,,,,,,,,,,,,,,,,,,,,,,,
,,,,,,,,2023-08-24_08h16.07.803,HF_wild_card,2022.2.4,Win32,74.96251874,62966289dc2720a7bbedb8f8,64e63663dbcaf322d2eec8da,64e70360d7ca356bf54da705,,,,,,,decisionTrl,resources/DBN.BMP,resources/DR.BMP,Door1,-0.358072917,-0.07421875,1,0,0,2.363,optionLeft,30,365,1,7,0,7,0,1,,,,,,,,,,,,,,,,,,,,,,,,,,,,,,,,,,,,,,,
,,,,,,,,2023-08-24_08h16.07.803,HF_wild_card,2022.2.4,Win32,74.96251874,62966289dc2720a7bbedb8f8,64e63663dbcaf322d2eec8da,64e70360d7ca356bf54da705,,,,,,,decisionTrl,resources/DBN.BMP,resources/DR.BMP,Door2,0.315104167,0.00390625,1,0,0,2.381,optionRight,40,405,1,8,0,8,0,1,,,,,,,,,,,,,,,,,,,,,,,,,,,,,,,,,,,,,,,
,,,,,,,,2023-08-24_08h16.07.803,HF_wild_card,2022.2.4,Win32,74.96251874,62966289dc2720a7bbedb8f8,64e63663dbcaf322d2eec8da,64e70360d7ca356bf54da705,,,,,,,ctch,resources/DBN.BMP,resources/DP.BMP,Door4,0.346354167,-0.0625,1,0,0,2.725,optionRight,80,485,1,9,0,9,0,1,,,,,,,,,,,,,,,,,,,,,,,,,,,,,,,,,,,,,,,
,,,,,,,,2023-08-24_08h16.07.803,HF_wild_card,2022.2.4,Win32,74.96251874,62966289dc2720a7bbedb8f8,64e63663dbcaf322d2eec8da,64e70360d7ca356bf54da705,,,,,,,decisionTrl,resources/DR.BMP,resources/DB.BMP,WildCard_NonEx,0.361979167,-0.059895833,1,0,0,2.593,optionRight,45,530,1,10,0,10,0,1,,,,,,,,,,,,,,,,,,,,,,,,,,,,,,,,,,,,,,,
,,,,,,,,2023-08-24_08h16.07.803,HF_wild_card,2022.2.4,Win32,74.96251874,62966289dc2720a7bbedb8f8,64e63663dbcaf322d2eec8da,64e70360d7ca356bf54da705,,,,,,,decisionTrl,resources/DBN.BMP,resources/DR.BMP,Door2,0.309895833,-0.010416667,1,0,0,1.993,optionRight,20,550,1,11,0,11,0,1,,,,,,,,,,,,,,,,,,,,,,,,,,,,,,,,,,,,,,,
,,,,,,,,2023-08-24_08h16.07.803,HF_wild_card,2022.2.4,Win32,74.96251874,62966289dc2720a7bbedb8f8,64e63663dbcaf322d2eec8da,64e70360d7ca356bf54da705,,,,,,,sngl,resources/DP.BMP,resources/Empty.png,Door4,-0.337239583,-0.04296875,1,0,0,2.514,optionLeft,80,630,1,12,0,12,0,1,,,,,,,,,,,,,,,,,,,,,,,,,,,,,,,,,,,,,,,
,,,,,,,,2023-08-24_08h16.07.803,HF_wild_card,2022.2.4,Win32,74.96251874,62966289dc2720a7bbedb8f8,64e63663dbcaf322d2eec8da,64e70360d7ca356bf54da705,,,,,,,decisionTrl,resources/DP.BMP,resources/DG.BMP,Door4,-0.368489583,-0.06640625,1,0,0,2.19,optionLeft,80,710,1,13,0,13,0,1,,,,,,,,,,,,,,,,,,,,,,,,,,,,,,,,,,,,,,,
,,,,,,,,2023-08-24_08h16.07.803,HF_wild_card,2022.2.4,Win32,74.96251874,62966289dc2720a7bbedb8f8,64e63663dbcaf322d2eec8da,64e70360d7ca356bf54da705,,,,,,,sngl,resources/Empty.png,resources/DBN.BMP,Door1,0.296875,0.016927083,1,0,0,1.683,optionRight,30,740,1,14,0,14,0,1,,,,,,,,,,,,,,,,,,,,,,,,,,,,,,,,,,,,,,,
,,,,,,,,2023-08-24_08h16.07.803,HF_wild_card,2022.2.4,Win32,74.96251874,62966289dc2720a7bbedb8f8,64e63663dbcaf322d2eec8da,64e70360d7ca356bf54da705,,,,,,,decisionTrl,resources/DG.BMP,resources/DP.BMP,Door4,0.287760417,-0.06640625,1,0,0,2.38,optionRight,60,800,1,15,0,15,0,1,,,,,,,,,,,,,,,,,,,,,,,,,,,,,,,,,,,,,,,
,,,,,,,,2023-08-24_08h16.07.803,HF_wild_card,2022.2.4,Win32,74.96251874,62966289dc2720a7bbedb8f8,64e63663dbcaf322d2eec8da,64e70360d7ca356bf54da705,,,,,,,decisionTrl,resources/DB.BMP,resources/DBN.BMP,WildCard_NonEx,-0.364583333,-0.063802083,1,0,0,2.017,optionLeft,45,845,1,16,0,16,0,1,,,,,,,,,,,,,,,,,,,,,,,,,,,,,,,,,,,,,,,
,,,,,,,,2023-08-24_08h16.07.803,HF_wild_card,2022.2.4,Win32,74.96251874,62966289dc2720a7bbedb8f8,64e63663dbcaf322d2eec8da,64e70360d7ca356bf54da705,,,,,,,decisionTrl,resources/DBN.BMP,resources/DR.BMP,Door2,0.295572917,-0.002604167,1,0,0,2.992,optionRight,40,885,1,17,0,17,0,1,,,,,,,,,,,,,,,,,,,,,,,,,,,,,,,,,,,,,,,
,,,,,,,,2023-08-24_08h16.07.803,HF_wild_card,2022.2.4,Win32,74.96251874,62966289dc2720a7bbedb8f8,64e63663dbcaf322d2eec8da,64e70360d7ca356bf54da705,,,,,,,sngl,resources/Empty.png,resources/DR.BMP,Door2,0.337239583,-0.013020833,1,0,0,1.379,optionRight,20,905,1,18,0,18,0,1,,,,,,,,,,,,,,,,,,,,,,,,,,,,,,,,,,,,,,,
,,,,,,,,2023-08-24_08h16.07.803,HF_wild_card,2022.2.4,Win32,74.96251874,62966289dc2720a7bbedb8f8,64e63663dbcaf322d2eec8da,64e70360d7ca356bf54da705,,,,,,,sngl,resources/Empty.png,resources/DB.BMP,WildCard_NonEx,0.33203125,0,1,0,0,2.323,optionRight,55,960,1,19,0,19,0,1,,,,,,,,,,,,,,,,,,,,,,,,,,,,,,,,,,,,,,,
,,,,,,,,2023-08-24_08h16.07.803,HF_wild_card,2022.2.4,Win32,74.96251874,62966289dc2720a7bbedb8f8,64e63663dbcaf322d2eec8da,64e70360d7ca356bf54da705,,,,,,,decisionTrl,resources/DG.BMP,resources/DB.BMP,Door3,-0.37109375,-0.02734375,1,0,0,1.872,optionLeft,70,1030,1,20,0,20,0,1,,,,,,,,,,,,,,,,,,,,,,,,,,,,,,,,,,,,,,,
,,,,,,,,2023-08-24_08h16.07.803,HF_wild_card,2022.2.4,Win32,74.96251874,62966289dc2720a7bbedb8f8,64e63663dbcaf322d2eec8da,64e70360d7ca356bf54da705,,,,,,,sngl,resources/DR.BMP,resources/Empty.png,Door2,-0.299479167,-0.020833333,1,0,0,1.739,optionLeft,40,1070,1,21,0,21,0,1,,,,,,,,,,,,,,,,,,,,,,,,,,,,,,,,,,,,,,,
,,,,,,,,2023-08-24_08h16.07.803,HF_wild_card,2022.2.4,Win32,74.96251874,62966289dc2720a7bbedb8f8,64e63663dbcaf322d2eec8da,64e70360d7ca356bf54da705,,,,,,,decisionTrl,resources/DBN.BMP,resources/DB.BMP,WildCard_NonEx,0.315104167,-0.04296875,1,0,0,1.739,optionRight,55,1125,1,22,0,22,0,1,,,,,,,,,,,,,,,,,,,,,,,,,,,,,,,,,,,,,,,
,,,,,,,,2023-08-24_08h16.07.803,HF_wild_card,2022.2.4,Win32,74.96251874,62966289dc2720a7bbedb8f8,64e63663dbcaf322d2eec8da,64e70360d7ca356bf54da705,,,,,,,decisionTrl,resources/DG.BMP,resources/DP.BMP,Door4,0.302083333,-0.040364583,1,0,0,2.471,optionRight,60,1185,1,23,0,23,0,1,,,,,,,,,,,,,,,,,,,,,,,,,,,,,,,,,,,,,,,
,,,,,,,,2023-08-24_08h16.07.803,HF_wild_card,2022.2.4,Win32,74.96251874,62966289dc2720a7bbedb8f8,64e63663dbcaf322d2eec8da,64e70360d7ca356bf54da705,,,,,,,ctch,resources/DG.BMP,resources/DR.BMP,Door3,-0.305989583,-0.0078125,1,0,0,2.019,optionLeft,70,1255,1,24,0,24,0,1,,,,,,,,,,,,,,,,,,,,,,,,,,,,,,,,,,,,,,,
,,,,,,,,2023-08-24_08h16.07.803,HF_wild_card,2022.2.4,Win32,74.96251874,62966289dc2720a7bbedb8f8,64e63663dbcaf322d2eec8da,64e70360d7ca356bf54da705,,,,,,,decisionTrl,resources/DB.BMP,resources/DP.BMP,Door4,0.315104167,-0.037760417,1,0,0,2.526,optionRight,80,1335,1,25,0,25,0,1,,,,,,,,,,,,,,,,,,,,,,,,,,,,,,,,,,,,,,,
,,,,,,,,2023-08-24_08h16.07.803,HF_wild_card,2022.2.4,Win32,74.96251874,62966289dc2720a7bbedb8f8,64e63663dbcaf322d2eec8da,64e70360d7ca356bf54da705,,,,,,,decisionTrl,resources/DG.BMP,resources/DP.BMP,Door3,-0.30859375,-0.05078125,1,0,0,2.159,optionLeft,70,1405,1,26,0,26,0,1,,,,,,,,,,,,,,,,,,,,,,,,,,,,,,,,,,,,,,,
,,,,,,,,2023-08-24_08h16.07.803,HF_wild_card,2022.2.4,Win32,74.96251874,62966289dc2720a7bbedb8f8,64e63663dbcaf322d2eec8da,64e70360d7ca356bf54da705,,,,,,,decisionTrl,resources/DB.BMP,resources/DR.BMP,WildCard_NonEx,-0.291666667,-0.026041667,1,0,0,2.364,optionLeft,45,1450,1,27,0,27,0,1,,,,,,,,,,,,,,,,,,,,,,,,,,,,,,,,,,,,,,,
,,,,,,,,2023-08-24_08h16.07.803,HF_wild_card,2022.2.4,Win32,74.96251874,62966289dc2720a7bbedb8f8,64e63663dbcaf322d2eec8da,64e70360d7ca356bf54da705,,,,,,,sngl,resources/DG.BMP,resources/Empty.png,Door3,-0.32421875,-0.00390625,1,0,0,1.977,optionLeft,70,1520,1,28,0,28,0,1,,,,,,,,,,,,,,,,,,,,,,,,,,,,,,,,,,,,,,,
,,,,,,,,2023-08-24_08h16.07.803,HF_wild_card,2022.2.4,Win32,74.96251874,62966289dc2720a7bbedb8f8,64e63663dbcaf322d2eec8da,64e70360d7ca356bf54da705,,,,,,,decisionTrl,resources/DP.BMP,resources/DG.BMP,Door3,0.341145833,0.005208333,1,0,0,2.017,optionRight,70,1590,1,29,0,29,0,1,,,,,,,,,,,,,,,,,,,,,,,,,,,,,,,,,,,,,,,
,,,,,,,,2023-08-24_08h16.07.803,HF_wild_card,2022.2.4,Win32,74.96251874,62966289dc2720a7bbedb8f8,64e63663dbcaf322d2eec8da,64e70360d7ca356bf54da705,,,,,,,decisionTrl,resources/DR.BMP,resources/DBN.BMP,Door2,-0.303385417,-0.026041667,1,0,0,3.926,optionLeft,40,1630,1,30,0,30,0,1,,,,,,,,,,,,,,,,,,,,,,,,,,,,,,,,,,,,,,,
,,,,,,,,2023-08-24_08h16.07.803,HF_wild_card,2022.2.4,Win32,74.96251874,62966289dc2720a7bbedb8f8,64e63663dbcaf322d2eec8da,64e70360d7ca356bf54da705,,,,,,,ctch,resources/DR.BMP,resources/DG.BMP,Door3,0.26171875,-0.04296875,1,0,0,1.941,optionRight,70,1700,1,31,0,31,0,1,,,,,,,,,,,,,,,,,,,,,,,,,,,,,,,,,,,,,,,
,,,,,,,,2023-08-24_08h16.07.803,HF_wild_card,2022.2.4,Win32,74.96251874,62966289dc2720a7bbedb8f8,64e63663dbcaf322d2eec8da,64e70360d7ca356bf54da705,,,,,,,ctch,resources/DP.BMP,resources/DBN.BMP,Door4,-0.338541667,-0.044270833,1,0,0,2.089,optionLeft,80,1780,1,32,0,32,0,1,,,,,,,,,,,,,,,,,,,,,,,,,,,,,,,,,,,,,,,
,,,,,,,,2023-08-24_08h16.07.803,HF_wild_card,2022.2.4,Win32,74.96251874,62966289dc2720a7bbedb8f8,64e63663dbcaf322d2eec8da,64e70360d7ca356bf54da705,,,,,,,decisionTrl,resources/DG.BMP,resources/DP.BMP,Door4,0.278645833,-0.029947917,1,0,0,1.95,optionRight,80,1860,1,33,0,33,0,1,,,,,,,,,,,,,,,,,,,,,,,,,,,,,,,,,,,,,,,
,,,,,,,,2023-08-24_08h16.07.803,HF_wild_card,2022.2.4,Win32,74.96251874,62966289dc2720a7bbedb8f8,64e63663dbcaf322d2eec8da,64e70360d7ca356bf54da705,,,,,,,sngl,resources/DBN.BMP,resources/Empty.png,Door1,-0.317708333,-0.026041667,1,0,0,1.939,optionLeft,30,1890,1,34,0,34,0,1,,,,,,,,,,,,,,,,,,,,,,,,,,,,,,,,,,,,,,,
,,,,,,,,2023-08-24_08h16.07.803,HF_wild_card,2022.2.4,Win32,74.96251874,62966289dc2720a7bbedb8f8,64e63663dbcaf322d2eec8da,64e70360d7ca356bf54da705,,,,,,,sngl,resources/DB.BMP,resources/Empty.png,WildCard_NonEx,-0.274739583,-0.03125,1,0,0,2.419,optionLeft,55,1945,1,35,0,35,0,1,,,,,,,,,,,,,,,,,,,,,,,,,,,,,,,,,,,,,,,
,,,,,,,,2023-08-24_08h16.07.803,HF_wild_card,2022.2.4,Win32,74.96251874,62966289dc2720a7bbedb8f8,64e63663dbcaf322d2eec8da,64e70360d7ca356bf54da705,,,,,,,decisionTrl,resources/DP.BMP,resources/DG.BMP,Door3,0.283854167,-0.0234375,1,0,0,3.887,optionRight,70,2015,1,36,0,36,0,1,,,,,,,,,,,,,,,,,,,,,,,,,,,,,,,,,,,,,,,
,,,,,,,,2023-08-24_08h16.07.803,HF_wild_card,2022.2.4,Win32,74.96251874,62966289dc2720a7bbedb8f8,64e63663dbcaf322d2eec8da,64e70360d7ca356bf54da705,,,,,,,sngl,resources/Empty.png,resources/DB.BMP,WildCard_NonEx,0.315104167,-0.0078125,1,0,0,2.058,optionRight,45,2060,1,37,0,37,0,1,,,,,,,,,,,,,,,,,,,,,,,,,,,,,,,,,,,,,,,
,,,,,,,,2023-08-24_08h16.07.803,HF_wild_card,2022.2.4,Win32,74.96251874,62966289dc2720a7bbedb8f8,64e63663dbcaf322d2eec8da,64e70360d7ca356bf54da705,,,,,,,decisionTrl,resources/DP.BMP,resources/DB.BMP,Door4,-0.39453125,-0.028645833,1,0,0,2.234,optionLeft,60,2120,1,38,0,38,0,1,,,,,,,,,,,,,,,,,,,,,,,,,,,,,,,,,,,,,,,
,,,,,,,,2023-08-24_08h16.07.803,HF_wild_card,2022.2.4,Win32,74.96251874,62966289dc2720a7bbedb8f8,64e63663dbcaf322d2eec8da,64e70360d7ca356bf54da705,,,,,,,ctch,resources/DP.BMP,resources/DBN.BMP,Door4,-0.30859375,-0.044270833,1,0,0,1.939,optionLeft,80,2200,1,39,0,39,0,1,,,,,,,,,,,,,,,,,,,,,,,,,,,,,,,,,,,,,,,
,,,,,,,,2023-08-24_08h16.07.803,HF_wild_card,2022.2.4,Win32,74.96251874,62966289dc2720a7bbedb8f8,64e63663dbcaf322d2eec8da,64e70360d7ca356bf54da705,,,,,,,sngl,resources/Empty.png,resources/DP.BMP,Door4,0.36328125,-0.024739583,1,0,0,2.296,optionRight,60,2260,1,40,0,40,0,1,,,,,,,,,,,,,,,,,,,,,,,,,,,,,,,,,,,,,,,
,,,,,,,,2023-08-24_08h16.07.803,HF_wild_card,2022.2.4,Win32,74.96251874,62966289dc2720a7bbedb8f8,64e63663dbcaf322d2eec8da,64e70360d7ca356bf54da705,,,,,,,sngl,resources/Empty.png,resources/DG.BMP,Door3,0.337239583,-0.002604167,1,0,0,1.898,optionRight,70,2330,1,41,0,41,0,1,,,,,,,,,,,,,,,,,,,,,,,,,,,,,,,,,,,,,,,
,,,,,,,,2023-08-24_08h16.07.803,HF_wild_card,2022.2.4,Win32,74.96251874,62966289dc2720a7bbedb8f8,64e63663dbcaf322d2eec8da,64e70360d7ca356bf54da705,,,,,,,decisionTrl,resources/DR.BMP,resources/DBN.BMP,Door1,0.342447917,0.02734375,1,0,0,2.739,optionRight,30,2360,1,42,0,42,0,1,,,,,,,,,,,,,,,,,,,,,,,,,,,,,,,,,,,,,,,
,,,,,,,,2023-08-24_08h16.07.803,HF_wild_card,2022.2.4,Win32,74.96251874,62966289dc2720a7bbedb8f8,64e63663dbcaf322d2eec8da,64e70360d7ca356bf54da705,,,,,,,sngl,resources/DB.BMP,resources/Empty.png,WildCard_NonEx,-0.372395833,-0.029947917,1,0,0,1.992,optionLeft,45,2405,1,43,0,43,0,1,,,,,,,,,,,,,,,,,,,,,,,,,,,,,,,,,,,,,,,
,,,,,,,,2023-08-24_08h16.07.803,HF_wild_card,2022.2.4,Win32,74.96251874,62966289dc2720a7bbedb8f8,64e63663dbcaf322d2eec8da,64e70360d7ca356bf54da705,,,,,,,,,,,,,,,,,,,,,,,,,,0,0,0,0,1,,,,,,,,,,,,,,,,,,,,,,,,,,,,,,,,,,
,,,,,,,,2023-08-24_08h16.07.803,HF_wild_card,2022.2.4,Win32,74.96251874,62966289dc2720a7bbedb8f8,64e63663dbcaf322d2eec8da,64e70360d7ca356bf54da705,,,,,,,decisionTrl,resources/DR.BMP,resources/DBN.BMP,Door2,-0.299479167,-0.053385417,1,0,0,2.119,optionLeft,20,2425,2,0,0,0,0,1,,,,,,,,,,,,,,,,,,,,,,,,,,,,,,,,,,,,,,,
,,,,,,,,2023-08-24_08h16.07.803,HF_wild_card,2022.2.4,Win32,74.96251874,62966289dc2720a7bbedb8f8,64e63663dbcaf322d2eec8da,64e70360d7ca356bf54da705,,,,,,,ctch,resources/DBN.BMP,resources/DP.BMP,Door4,0.309895833,-0.02734375,1,0,0,1.693,optionRight,80,2505,2,1,0,1,0,1,,,,,,,,,,,,,,,,,,,,,,,,,,,,,,,,,,,,,,,
,,,,,,,,2023-08-24_08h16.07.803,HF_wild_card,2022.2.4,Win32,74.96251874,62966289dc2720a7bbedb8f8,64e63663dbcaf322d2eec8da,64e70360d7ca356bf54da705,,,,,,,sngl,resources/Empty.png,resources/DR.BMP,Door2,0.356770833,0.015625,1,0,0,2.215,optionRight,40,2545,2,2,0,2,0,1,,,,,,,,,,,,,,,,,,,,,,,,,,,,,,,,,,,,,,,
,,,,,,,,2023-08-24_08h16.07.803,HF_wild_card,2022.2.4,Win32,74.96251874,62966289dc2720a7bbedb8f8,64e63663dbcaf322d2eec8da,64e70360d7ca356bf54da705,,,,,,,sngl,resources/DP.BMP,resources/Empty.png,Door4,-0.33984375,-0.029947917,1,0,0,3.124,optionLeft,60,2605,2,3,0,3,0,1,,,,,,,,,,,,,,,,,,,,,,,,,,,,,,,,,,,,,,,
,,,,,,,,2023-08-24_08h16.07.803,HF_wild_card,2022.2.4,Win32,74.96251874,62966289dc2720a7bbedb8f8,64e63663dbcaf322d2eec8da,64e70360d7ca356bf54da705,,,,,,,decisionTrl,resources/DB.BMP,resources/DR.BMP,WildCard_NonEx,-0.28515625,-0.013020833,1,0,0,2.325,optionLeft,55,2660,2,4,0,4,0,1,,,,,,,,,,,,,,,,,,,,,,,,,,,,,,,,,,,,,,,
,,,,,,,,2023-08-24_08h16.07.803,HF_wild_card,2022.2.4,Win32,74.96251874,62966289dc2720a7bbedb8f8,64e63663dbcaf322d2eec8da,64e70360d7ca356bf54da705,,,,,,,decisionTrl,resources/DBN.BMP,resources/DR.BMP,Door2,0.319010417,-0.01953125,1,0,0,1.993,optionRight,40,2700,2,5,0,5,0,1,,,,,,,,,,,,,,,,,,,,,,,,,,,,,,,,,,,,,,,
,,,,,,,,2023-08-24_08h16.07.803,HF_wild_card,2022.2.4,Win32,74.96251874,62966289dc2720a7bbedb8f8,64e63663dbcaf322d2eec8da,64e70360d7ca356bf54da705,,,,,,,decisionTrl,resources/DR.BMP,resources/DBN.BMP,Door2,-0.303385417,-0.006510417,1,0,0,2.832,optionLeft,20,2720,2,6,0,6,0,1,,,,,,,,,,,,,,,,,,,,,,,,,,,,,,,,,,,,,,,
,,,,,,,,2023-08-24_08h16.07.803,HF_wild_card,2022.2.4,Win32,74.96251874,62966289dc2720a7bbedb8f8,64e63663dbcaf322d2eec8da,64e70360d7ca356bf54da705,,,,,,,decisionTrl,resources/DP.BMP,resources/DG.BMP,Door4,-0.334635417,-0.05859375,1,0,0,2.075,optionLeft,80,2800,2,7,0,7,0,1,,,,,,,,,,,,,,,,,,,,,,,,,,,,,,,,,,,,,,,
,,,,,,,,2023-08-24_08h16.07.803,HF_wild_card,2022.2.4,Win32,74.96251874,62966289dc2720a7bbedb8f8,64e63663dbcaf322d2eec8da,64e70360d7ca356bf54da705,,,,,,,decisionTrl,resources/DBN.BMP,resources/DR.BMP,Door2,0.299479167,-0.006510417,1,0,0,1.9,optionRight,40,2840,2,8,0,8,0,1,,,,,,,,,,,,,,,,,,,,,,,,,,,,,,,,,,,,,,,
,,,,,,,,2023-08-24_08h16.07.803,HF_wild_card,2022.2.4,Win32,74.96251874,62966289dc2720a7bbedb8f8,64e63663dbcaf322d2eec8da,64e70360d7ca356bf54da705,,,,,,,decisionTrl,resources/DG.BMP,resources/DP.BMP,Door3,-0.313802083,-0.01953125,1,0,0,2.324,optionLeft,70,2910,2,9,0,9,0,1,,,,,,,,,,,,,,,,,,,,,,,,,,,,,,,,,,,,,,,
,,,,,,,,2023-08-24_08h16.07.803,HF_wild_card,2022.2.4,Win32,74.96251874,62966289dc2720a7bbedb8f8,64e63663dbcaf322d2eec8da,64e70360d7ca356bf54da705,,,,,,,decisionTrl,resources/DB.BMP,resources/DP.BMP,WildCard_NonEx,-0.3046875,-0.006510417,1,0,0,2.007,optionLeft,55,2965,2,10,0,10,0,1,,,,,,,,,,,,,,,,,,,,,,,,,,,,,,,,,,,,,,,
,,,,,,,,2023-08-24_08h16.07.803,HF_wild_card,2022.2.4,Win32,74.96251874,62966289dc2720a7bbedb8f8,64e63663dbcaf322d2eec8da,64e70360d7ca356bf54da705,,,,,,,decisionTrl,resources/DP.BMP,resources/DG.BMP,Door4,-0.377604167,-0.03515625,1,0,0,1.805,optionLeft,60,3025,2,11,0,11,0,1,,,,,,,,,,,,,,,,,,,,,,,,,,,,,,,,,,,,,,,
,,,,,,,,2023-08-24_08h16.07.803,HF_wild_card,2022.2.4,Win32,74.96251874,62966289dc2720a7bbedb8f8,64e63663dbcaf322d2eec8da,64e70360d7ca356bf54da705,,,,,,,decisionTrl,resources/DR.BMP,resources/DBN.BMP,Door2,-0.3203125,-0.02734375,1,0,0,2.255,optionLeft,20,3045,2,12,0,12,0,1,,,,,,,,,,,,,,,,,,,,,,,,,,,,,,,,,,,,,,,
,,,,,,,,2023-08-24_08h16.07.803,HF_wild_card,2022.2.4,Win32,74.96251874,62966289dc2720a7bbedb8f8,64e63663dbcaf322d2eec8da,64e70360d7ca356bf54da705,,,,,,,decisionTrl,resources/DBN.BMP,resources/DR.BMP,Door2,0.260416667,0.0078125,1,0,0,2.086,optionRight,20,3065,2,13,0,13,0,1,,,,,,,,,,,,,,,,,,,,,,,,,,,,,,,,,,,,,,,
,,,,,,,,2023-08-24_08h16.07.803,HF_wild_card,2022.2.4,Win32,74.96251874,62966289dc2720a7bbedb8f8,64e63663dbcaf322d2eec8da,64e70360d7ca356bf54da705,,,,,,,decisionTrl,resources/DG.BMP,resources/DP.BMP,Door4,0.364583333,-0.01171875,1,0,0,2.596,optionRight,80,3145,2,14,0,14,0,1,,,,,,,,,,,,,,,,,,,,,,,,,,,,,,,,,,,,,,,
,,,,,,,,2023-08-24_08h16.07.803,HF_wild_card,2022.2.4,Win32,74.96251874,62966289dc2720a7bbedb8f8,64e63663dbcaf322d2eec8da,64e70360d7ca356bf54da705,,,,,,,sngl,resources/DR.BMP,resources/Empty.png,Door2,-0.317708333,0.005208333,1,0,0,1.657,optionLeft,20,3165,2,15,0,15,0,1,,,,,,,,,,,,,,,,,,,,,,,,,,,,,,,,,,,,,,,
,,,,,,,,2023-08-24_08h16.07.803,HF_wild_card,2022.2.4,Win32,74.96251874,62966289dc2720a7bbedb8f8,64e63663dbcaf322d2eec8da,64e70360d7ca356bf54da705,,,,,,,decisionTrl,resources/DB.BMP,resources/DBN.BMP,Door1,0.3203125,0.009114583,1,0,0,2.271,optionRight,30,3195,2,16,0,16,0,1,,,,,,,,,,,,,,,,,,,,,,,,,,,,,,,,,,,,,,,
,,,,,,,,2023-08-24_08h16.07.803,HF_wild_card,2022.2.4,Win32,74.96251874,62966289dc2720a7bbedb8f8,64e63663dbcaf322d2eec8da,64e70360d7ca356bf54da705,,,,,,,decisionTrl,resources/DG.BMP,resources/DP.BMP,Door4,0.361979167,-0.005208333,1,0,0,2.096,optionRight,80,3275,2,17,0,17,0,1,,,,,,,,,,,,,,,,,,,,,,,,,,,,,,,,,,,,,,,
,,,,,,,,2023-08-24_08h16.07.803,HF_wild_card,2022.2.4,Win32,74.96251874,62966289dc2720a7bbedb8f8,64e63663dbcaf322d2eec8da,64e70360d7ca356bf54da705,,,,,,,decisionTrl,resources/DBN.BMP,resources/DR.BMP,Door1,-0.303385417,0.006510417,1,0,0,4.351,optionLeft,30,3305,2,18,0,18,0,1,,,,,,,,,,,,,,,,,,,,,,,,,,,,,,,,,,,,,,,
,,,,,,,,2023-08-24_08h16.07.803,HF_wild_card,2022.2.4,Win32,74.96251874,62966289dc2720a7bbedb8f8,64e63663dbcaf322d2eec8da,64e70360d7ca356bf54da705,,,,,,,ctch,resources/DG.BMP,resources/DR.BMP,Door3,-0.276041667,-0.01953125,1,0,0,2.313,optionLeft,70,3375,2,19,0,19,0,1,,,,,,,,,,,,,,,,,,,,,,,,,,,,,,,,,,,,,,,
,,,,,,,,2023-08-24_08h16.07.803,HF_wild_card,2022.2.4,Win32,74.96251874,62966289dc2720a7bbedb8f8,64e63663dbcaf322d2eec8da,64e70360d7ca356bf54da705,,,,,,,sngl,resources/Empty.png,resources/DBN.BMP,Door1,0.326822917,-0.001302083,1,0,0,1.86,optionRight,30,3405,2,20,0,20,0,1,,,,,,,,,,,,,,,,,,,,,,,,,,,,,,,,,,,,,,,
,,,,,,,,2023-08-24_08h16.07.803,HF_wild_card,2022.2.4,Win32,74.96251874,62966289dc2720a7bbedb8f8,64e63663dbcaf322d2eec8da,64e70360d7ca356bf54da705,,,,,,,decisionTrl,resources/DG.BMP,resources/DP.BMP,Door4,0.385416667,-0.002604167,1,0,0,1.98,optionRight,80,3485,2,21,0,21,0,1,,,,,,,,,,,,,,,,,,,,,,,,,,,,,,,,,,,,,,,
,,,,,,,,2023-08-24_08h16.07.803,HF_wild_card,2022.2.4,Win32,74.96251874,62966289dc2720a7bbedb8f8,64e63663dbcaf322d2eec8da,64e70360d7ca356bf54da705,,,,,,,sngl,resources/Empty.png,resources/DB.BMP,WildCard_NonEx,0.377604167,-0.026041667,1,0,0,2.31,optionRight,45,3530,2,22,0,22,0,1,,,,,,,,,,,,,,,,,,,,,,,,,,,,,,,,,,,,,,,
,,,,,,,,2023-08-24_08h16.07.803,HF_wild_card,2022.2.4,Win32,74.96251874,62966289dc2720a7bbedb8f8,64e63663dbcaf322d2eec8da,64e70360d7ca356bf54da705,,,,,,,ctch,resources/DP.BMP,resources/DBN.BMP,Door4,-0.37890625,-0.013020833,1,0,0,1.99,optionLeft,80,3610,2,23,0,23,0,1,,,,,,,,,,,,,,,,,,,,,,,,,,,,,,,,,,,,,,,
,,,,,,,,2023-08-24_08h16.07.803,HF_wild_card,2022.2.4,Win32,74.96251874,62966289dc2720a7bbedb8f8,64e63663dbcaf322d2eec8da,64e70360d7ca356bf54da705,,,,,,,sngl,resources/DBN.BMP,resources/Empty.png,Door1,-0.311197917,-0.010416667,1,0,0,2.033,optionLeft,30,3640,2,24,0,24,0,1,,,,,,,,,,,,,,,,,,,,,,,,,,,,,,,,,,,,,,,
,,,,,,,,2023-08-24_08h16.07.803,HF_wild_card,2022.2.4,Win32,74.96251874,62966289dc2720a7bbedb8f8,64e63663dbcaf322d2eec8da,64e70360d7ca356bf54da705,,,,,,,decisionTrl,resources/DR.BMP,resources/DB.BMP,WildCard_NonEx,0.380208333,-0.053385417,1,0,0,2.153,optionRight,55,3695,2,25,0,25,0,1,,,,,,,,,,,,,,,,,,,,,,,,,,,,,,,,,,,,,,,
,,,,,,,,2023-08-24_08h16.07.803,HF_wild_card,2022.2.4,Win32,74.96251874,62966289dc2720a7bbedb8f8,64e63663dbcaf322d2eec8da,64e70360d7ca356bf54da705,,,,,,,ctch,resources/DR.BMP,resources/DG.BMP,Door3,0.380208333,-0.00390625,1,0,0,2.378,optionRight,70,3765,2,26,0,26,0,1,,,,,,,,,,,,,,,,,,,,,,,,,,,,,,,,,,,,,,,
,,,,,,,,2023-08-24_08h16.07.803,HF_wild_card,2022.2.4,Win32,74.96251874,62966289dc2720a7bbedb8f8,64e63663dbcaf322d2eec8da,64e70360d7ca356bf54da705,,,,,,,decisionTrl,resources/DP.BMP,resources/DG.BMP,Door4,-0.39453125,-0.055989583,1,0,0,1.687,optionLeft,60,3825,2,27,0,27,0,1,,,,,,,,,,,,,,,,,,,,,,,,,,,,,,,,,,,,,,,
,,,,,,,,2023-08-24_08h16.07.803,HF_wild_card,2022.2.4,Win32,74.96251874,62966289dc2720a7bbedb8f8,64e63663dbcaf322d2eec8da,64e70360d7ca356bf54da705,,,,,,,ctch,resources/DP.BMP,resources/DBN.BMP,Door4,-0.38671875,-0.0078125,1,0,0,3.325,optionLeft,80,3905,2,28,0,28,0,1,,,,,,,,,,,,,,,,,,,,,,,,,,,,,,,,,,,,,,,
,,,,,,,,2023-08-24_08h16.07.803,HF_wild_card,2022.2.4,Win32,74.96251874,62966289dc2720a7bbedb8f8,64e63663dbcaf322d2eec8da,64e70360d7ca356bf54da705,,,,,,,ctch,resources/DG.BMP,resources/DR.BMP,Door3,-0.359375,0.009114583,1,0,0,2.095,optionLeft,70,3975,2,29,0,29,0,1,,,,,,,,,,,,,,,,,,,,,,,,,,,,,,,,,,,,,,,
,,,,,,,,2023-08-24_08h16.07.803,HF_wild_card,2022.2.4,Win32,74.96251874,62966289dc2720a7bbedb8f8,64e63663dbcaf322d2eec8da,64e70360d7ca356bf54da705,,,,,,,decisionTrl,resources/DB.BMP,resources/DG.BMP,Door3,0.37890625,-0.022135417,1,0,0,2.404,optionRight,70,4045,2,30,0,30,0,1,,,,,,,,,,,,,,,,,,,,,,,,,,,,,,,,,,,,,,,
,,,,,,,,2023-08-24_08h16.07.803,HF_wild_card,2022.2.4,Win32,74.96251874,62966289dc2720a7bbedb8f8,64e63663dbcaf322d2eec8da,64e70360d7ca356bf54da705,,,,,,,ctch,resources/DR.BMP,resources/DG.BMP,Door3,0.385416667,-0.0078125,1,0,0,2.165,optionRight,70,4115,2,31,0,31,0,1,,,,,,,,,,,,,,,,,,,,,,,,,,,,,,,,,,,,,,,
,,,,,,,,2023-08-24_08h16.07.803,HF_wild_card,2022.2.4,Win32,74.96251874,62966289dc2720a7bbedb8f8,64e63663dbcaf322d2eec8da,64e70360d7ca356bf54da705,,,,,,,sngl,resources/Empty.png,resources/DP.BMP,Door4,0.380208333,-0.02734375,1,0,0,1.698,optionRight,80,4195,2,32,0,32,0,1,,,,,,,,,,,,,,,,,,,,,,,,,,,,,,,,,,,,,,,
,,,,,,,,2023-08-24_08h16.07.803,HF_wild_card,2022.2.4,Win32,74.96251874,62966289dc2720a7bbedb8f8,64e63663dbcaf322d2eec8da,64e70360d7ca356bf54da705,,,,,,,sngl,resources/DB.BMP,resources/Empty.png,WildCard_NonEx,-0.3515625,-0.018229167,1,0,0,1.751,optionLeft,45,4240,2,33,0,33,0,1,,,,,,,,,,,,,,,,,,,,,,,,,,,,,,,,,,,,,,,
,,,,,,,,2023-08-24_08h16.07.803,HF_wild_card,2022.2.4,Win32,74.96251874,62966289dc2720a7bbedb8f8,64e63663dbcaf322d2eec8da,64e70360d7ca356bf54da705,,,,,,,ctch,resources/DBN.BMP,resources/DP.BMP,Door4,0.412760417,-0.022135417,1,0,0,1.767,optionRight,80,4320,2,34,0,34,0,1,,,,,,,,,,,,,,,,,,,,,,,,,,,,,,,,,,,,,,,
,,,,,,,,2023-08-24_08h16.07.803,HF_wild_card,2022.2.4,Win32,74.96251874,62966289dc2720a7bbedb8f8,64e63663dbcaf322d2eec8da,64e70360d7ca356bf54da705,,,,,,,decisionTrl,resources/DP.BMP,resources/DG.BMP,Door4,-0.365885417,-0.01953125,1,0,0,1.844,optionLeft,80,4400,2,35,0,35,0,1,,,,,,,,,,,,,,,,,,,,,,,,,,,,,,,,,,,,,,,
,,,,,,,,2023-08-24_08h16.07.803,HF_wild_card,2022.2.4,Win32,74.96251874,62966289dc2720a7bbedb8f8,64e63663dbcaf322d2eec8da,64e70360d7ca356bf54da705,,,,,,,sngl,resources/Empty.png,resources/DG.BMP,Door3,0.3828125,-0.014322917,1,0,0,1.591,optionRight,70,4470,2,36,0,36,0,1,,,,,,,,,,,,,,,,,,,,,,,,,,,,,,,,,,,,,,,
,,,,,,,,2023-08-24_08h16.07.803,HF_wild_card,2022.2.4,Win32,74.96251874,62966289dc2720a7bbedb8f8,64e63663dbcaf322d2eec8da,64e70360d7ca356bf54da705,,,,,,,decisionTrl,resources/DP.BMP,resources/DB.BMP,Door4,-0.345052083,-0.015625,1,0,0,3.06,optionLeft,60,4530,2,37,0,37,0,1,,,,,,,,,,,,,,,,,,,,,,,,,,,,,,,,,,,,,,,
,,,,,,,,2023-08-24_08h16.07.803,HF_wild_card,2022.2.4,Win32,74.96251874,62966289dc2720a7bbedb8f8,64e63663dbcaf322d2eec8da,64e70360d7ca356bf54da705,,,,,,,sngl,resources/Empty.png,resources/DB.BMP,WildCard_NonEx,0.390625,-0.01171875,1,0,0,2.271,optionRight,55,4585,2,38,0,38,0,1,,,,,,,,,,,,,,,,,,,,,,,,,,,,,,,,,,,,,,,
,,,,,,,,2023-08-24_08h16.07.803,HF_wild_card,2022.2.4,Win32,74.96251874,62966289dc2720a7bbedb8f8,64e63663dbcaf322d2eec8da,64e70360d7ca356bf54da705,,,,,,,sngl,resources/DG.BMP,resources/Empty.png,Door3,-0.376302083,0.001302083,1,0,0,1.526,optionLeft,70,4655,2,39,0,39,0,1,,,,,,,,,,,,,,,,,,,,,,,,,,,,,,,,,,,,,,,
,,,,,,,,2023-08-24_08h16.07.803,HF_wild_card,2022.2.4,Win32,74.96251874,62966289dc2720a7bbedb8f8,64e63663dbcaf322d2eec8da,64e70360d7ca356bf54da705,,,,,,,decisionTrl,resources/DBN.BMP,resources/DB.BMP,Door1,-0.358072917,0.013020833,1,0,0,2.552,optionLeft,30,4685,2,40,0,40,0,1,,,,,,,,,,,,,,,,,,,,,,,,,,,,,,,,,,,,,,,
,,,,,,,,2023-08-24_08h16.07.803,HF_wild_card,2022.2.4,Win32,74.96251874,62966289dc2720a7bbedb8f8,64e63663dbcaf322d2eec8da,64e70360d7ca356bf54da705,,,,,,,decisionTrl,resources/DG.BMP,resources/DB.BMP,Door3,-0.341145833,-0.02734375,1,0,0,1.807,optionLeft,70,4755,2,41,0,41,0,1,,,,,,,,,,,,,,,,,,,,,,,,,,,,,,,,,,,,,,,
,,,,,,,,2023-08-24_08h16.07.803,HF_wild_card,2022.2.4,Win32,74.96251874,62966289dc2720a7bbedb8f8,64e63663dbcaf322d2eec8da,64e70360d7ca356bf54da705,,,,,,,sngl,resources/DB.BMP,resources/Empty.png,WildCard_NonEx,-0.303385417,-0.018229167,1,0,0,1.848,optionLeft,55,4810,2,42,0,42,0,1,,,,,,,,,,,,,,,,,,,,,,,,,,,,,,,,,,,,,,,
,,,,,,,,2023-08-24_08h16.07.803,HF_wild_card,2022.2.4,Win32,74.96251874,62966289dc2720a7bbedb8f8,64e63663dbcaf322d2eec8da,64e70360d7ca356bf54da705,,,,,,,decisionTrl,resources/DR.BMP,resources/DBN.BMP,Door2,-0.305989583,-0.029947917,1,0,0,2.792,optionLeft,20,4830,2,43,0,43,0,1,,,,,,,,,,,,,,,,,,,,,,,,,,,,,,,,,,,,,,,
,,,,,,,,2023-08-24_08h16.07.803,HF_wild_card,2022.2.4,Win32,74.96251874,62966289dc2720a7bbedb8f8,64e63663dbcaf322d2eec8da,64e70360d7ca356bf54da705,,,,,,,,,,,,,,,,,,,,,,,,,,1,0,1,0,1,,,,,,,,,,,,,,,,,,,,,,,,,,,,,,,,,,
,,,,,,,,2023-08-24_08h16.07.803,HF_wild_card,2022.2.4,Win32,74.96251874,62966289dc2720a7bbedb8f8,64e63663dbcaf322d2eec8da,64e70360d7ca356bf54da705,,,,,,,sngl,resources/Empty.png,resources/DG.BMP,Door3,0.40625,-0.018229167,1,0,0,2.4,optionRight,70,4900,3,0,0,0,0,1,,,,,,,,,,,,,,,,,,,,,,,,,,,,,,,,,,,,,,,
,,,,,,,,2023-08-24_08h16.07.803,HF_wild_card,2022.2.4,Win32,74.96251874,62966289dc2720a7bbedb8f8,64e63663dbcaf322d2eec8da,64e70360d7ca356bf54da705,,,,,,,ctch,resources/DG.BMP,resources/DR.BMP,Door3,-0.35546875,-0.005208333,1,0,0,2.006,optionLeft,70,4970,3,1,0,1,0,1,,,,,,,,,,,,,,,,,,,,,,,,,,,,,,,,,,,,,,,
,,,,,,,,2023-08-24_08h16.07.803,HF_wild_card,2022.2.4,Win32,74.96251874,62966289dc2720a7bbedb8f8,64e63663dbcaf322d2eec8da,64e70360d7ca356bf54da705,,,,,,,ctch,resources/DBN.BMP,resources/DP.BMP,Door4,0.412760417,-0.028645833,1,0,0,1.767,optionRight,80,5050,3,2,0,2,0,1,,,,,,,,,,,,,,,,,,,,,,,,,,,,,,,,,,,,,,,
,,,,,,,,2023-08-24_08h16.07.803,HF_wild_card,2022.2.4,Win32,74.96251874,62966289dc2720a7bbedb8f8,64e63663dbcaf322d2eec8da,64e70360d7ca356bf54da705,,,,,,,decisionTrl,resources/DB.BMP,resources/DG.BMP,Door3,0.408854167,-0.026041667,1,0,0,2.912,optionRight,70,5120,3,3,0,3,0,1,,,,,,,,,,,,,,,,,,,,,,,,,,,,,,,,,,,,,,,
,,,,,,,,2023-08-24_08h16.07.803,HF_wild_card,2022.2.4,Win32,74.96251874,62966289dc2720a7bbedb8f8,64e63663dbcaf322d2eec8da,64e70360d7ca356bf54da705,,,,,,,decisionTrl,resources/DBN.BMP,resources/DR.BMP,Door1,-0.3203125,0.0078125,1,0,0,2.552,optionLeft,30,5150,3,4,0,4,0,1,,,,,,,,,,,,,,,,,,,,,,,,,,,,,,,,,,,,,,,
,,,,,,,,2023-08-24_08h16.07.803,HF_wild_card,2022.2.4,Win32,74.96251874,62966289dc2720a7bbedb8f8,64e63663dbcaf322d2eec8da,64e70360d7ca356bf54da705,,,,,,,sngl,resources/DP.BMP,resources/Empty.png,Door4,-0.369791667,-0.014322917,1,0,0,2.285,optionLeft,80,5230,3,5,0,5,0,1,,,,,,,,,,,,,,,,,,,,,,,,,,,,,,,,,,,,,,,
,,,,,,,,2023-08-24_08h16.07.803,HF_wild_card,2022.2.4,Win32,74.96251874,62966289dc2720a7bbedb8f8,64e63663dbcaf322d2eec8da,64e70360d7ca356bf54da705,,,,,,,sngl,resources/Empty.png,resources/DB.BMP,WildCard_NonEx,0.375,-0.040364583,1,0,0,1.592,optionRight,45,5275,3,6,0,6,0,1,,,,,,,,,,,,,,,,,,,,,,,,,,,,,,,,,,,,,,,
,,,,,,,,2023-08-24_08h16.07.803,HF_wild_card,2022.2.4,Win32,74.96251874,62966289dc2720a7bbedb8f8,64e63663dbcaf322d2eec8da,64e70360d7ca356bf54da705,,,,,,,ctch,resources/DP.BMP,resources/DBN.BMP,Door4,-0.369791667,-0.03125,1,0,0,1.729,optionLeft,80,5355,3,7,0,7,0,1,,,,,,,,,,,,,,,,,,,,,,,,,,,,,,,,,,,,,,,
,,,,,,,,2023-08-24_08h16.07.803,HF_wild_card,2022.2.4,Win32,74.96251874,62966289dc2720a7bbedb8f8,64e63663dbcaf322d2eec8da,64e70360d7ca356bf54da705,,,,,,,decisionTrl,resources/DP.BMP,resources/DG.BMP,Door4,-0.3984375,-0.049479167,1,0,0,1.927,optionLeft,60,5415,3,8,0,8,0,1,,,,,,,,,,,,,,,,,,,,,,,,,,,,,,,,,,,,,,,
,,,,,,,,2023-08-24_08h16.07.803,HF_wild_card,2022.2.4,Win32,74.96251874,62966289dc2720a7bbedb8f8,64e63663dbcaf322d2eec8da,64e70360d7ca356bf54da705,,,,,,,decisionTrl,resources/DR.BMP,resources/DB.BMP,WildCard_NonEx,0.412760417,-0.029947917,1,0,0,1.913,optionRight,45,5460,3,9,0,9,0,1,,,,,,,,,,,,,,,,,,,,,,,,,,,,,,,,,,,,,,,
,,,,,,,,2023-08-24_08h16.07.803,HF_wild_card,2022.2.4,Win32,74.96251874,62966289dc2720a7bbedb8f8,64e63663dbcaf322d2eec8da,64e70360d7ca356bf54da705,,,,,,,sngl,resources/DB.BMP,resources/Empty.png,WildCard_NonEx,-0.407552083,-0.024739583,1,0,0,1.354,optionLeft,45,5505,3,10,0,10,0,1,,,,,,,,,,,,,,,,,,,,,,,,,,,,,,,,,,,,,,,
,,,,,,,,2023-08-24_08h16.07.803,HF_wild_card,2022.2.4,Win32,74.96251874,62966289dc2720a7bbedb8f8,64e63663dbcaf322d2eec8da,64e70360d7ca356bf54da705,,,,,,,decisionTrl,resources/DR.BMP,resources/DBN.BMP,Door1,0.346354167,0.001302083,1,0,0,2.367,optionRight,30,5535,3,11,0,11,0,1,,,,,,,,,,,,,,,,,,,,,,,,,,,,,,,,,,,,,,,
,,,,,,,,2023-08-24_08h16.07.803,HF_wild_card,2022.2.4,Win32,74.96251874,62966289dc2720a7bbedb8f8,64e63663dbcaf322d2eec8da,64e70360d7ca356bf54da705,,,,,,,decisionTrl,resources/DR.BMP,resources/DBN.BMP,Door2,-0.380208333,-0.032552083,1,0,0,1.756,optionLeft,40,5575,3,12,0,12,0,1,,,,,,,,,,,,,,,,,,,,,,,,,,,,,,,,,,,,,,,
,,,,,,,,2023-08-24_08h16.07.803,HF_wild_card,2022.2.4,Win32,74.96251874,62966289dc2720a7bbedb8f8,64e63663dbcaf322d2eec8da,64e70360d7ca356bf54da705,,,,,,,decisionTrl,resources/DB.BMP,resources/DBN.BMP,WildCard_NonEx,-0.3828125,-0.022135417,1,0,0,2.335,optionLeft,55,5630,3,13,0,13,0,1,,,,,,,,,,,,,,,,,,,,,,,,,,,,,,,,,,,,,,,
,,,,,,,,2023-08-24_08h16.07.803,HF_wild_card,2022.2.4,Win32,74.96251874,62966289dc2720a7bbedb8f8,64e63663dbcaf322d2eec8da,64e70360d7ca356bf54da705,,,,,,,decisionTrl,resources/DBN.BMP,resources/DR.BMP,Door2,0.31640625,0.006510417,1,0,0,1.714,optionRight,20,5650,3,14,0,14,0,1,,,,,,,,,,,,,,,,,,,,,,,,,,,,,,,,,,,,,,,
,,,,,,,,2023-08-24_08h16.07.803,HF_wild_card,2022.2.4,Win32,74.96251874,62966289dc2720a7bbedb8f8,64e63663dbcaf322d2eec8da,64e70360d7ca356bf54da705,,,,,,,decisionTrl,resources/DG.BMP,resources/DP.BMP,Door4,0.390625,-0.041666667,1,0,0,1.538,optionRight,60,5710,3,15,0,15,0,1,,,,,,,,,,,,,,,,,,,,,,,,,,,,,,,,,,,,,,,
,,,,,,,,2023-08-24_08h16.07.803,HF_wild_card,2022.2.4,Win32,74.96251874,62966289dc2720a7bbedb8f8,64e63663dbcaf322d2eec8da,64e70360d7ca356bf54da705,,,,,,,sngl,resources/Empty.png,resources/DB.BMP,WildCard_NonEx,0.377604167,-0.04296875,1,0,0,2.591,optionRight,55,5765,3,16,0,16,0,1,,,,,,,,,,,,,,,,,,,,,,,,,,,,,,,,,,,,,,,
,,,,,,,,2023-08-24_08h16.07.803,HF_wild_card,2022.2.4,Win32,74.96251874,62966289dc2720a7bbedb8f8,64e63663dbcaf322d2eec8da,64e70360d7ca356bf54da705,,,,,,,decisionTrl,resources/DP.BMP,resources/DG.BMP,Door4,-0.395833333,-0.046875,1,0,0,1.77,optionLeft,80,5845,3,17,0,17,0,1,,,,,,,,,,,,,,,,,,,,,,,,,,,,,,,,,,,,,,,
,,,,,,,,2023-08-24_08h16.07.803,HF_wild_card,2022.2.4,Win32,74.96251874,62966289dc2720a7bbedb8f8,64e63663dbcaf322d2eec8da,64e70360d7ca356bf54da705,,,,,,,sngl,resources/DBN.BMP,resources/Empty.png,Door1,-0.384114583,-0.00390625,1,0,0,1.433,optionLeft,30,5875,3,18,0,18,0,1,,,,,,,,,,,,,,,,,,,,,,,,,,,,,,,,,,,,,,,
,,,,,,,,2023-08-24_08h16.07.803,HF_wild_card,2022.2.4,Win32,74.96251874,62966289dc2720a7bbedb8f8,64e63663dbcaf322d2eec8da,64e70360d7ca356bf54da705,,,,,,,sngl,resources/Empty.png,resources/DBN.BMP,Door1,0.356770833,-0.001302083,1,0,0,1.507,optionRight,30,5905,3,19,0,19,0,1,,,,,,,,,,,,,,,,,,,,,,,,,,,,,,,,,,,,,,,
,,,,,,,,2023-08-24_08h16.07.803,HF_wild_card,2022.2.4,Win32,74.96251874,62966289dc2720a7bbedb8f8,64e63663dbcaf322d2eec8da,64e70360d7ca356bf54da705,,,,,,,decisionTrl,resources/DR.BMP,resources/DBN.BMP,Door1,0.385416667,0.013020833,1,0,0,2.066,optionRight,30,5935,3,20,0,20,0,1,,,,,,,,,,,,,,,,,,,,,,,,,,,,,,,,,,,,,,,
,,,,,,,,2023-08-24_08h16.07.803,HF_wild_card,2022.2.4,Win32,74.96251874,62966289dc2720a7bbedb8f8,64e63663dbcaf322d2eec8da,64e70360d7ca356bf54da705,,,,,,,decisionTrl,resources/DG.BMP,resources/DP.BMP,Door4,0.373697917,-0.036458333,1,0,0,1.993,optionRight,60,5995,3,21,0,21,0,1,,,,,,,,,,,,,,,,,,,,,,,,,,,,,,,,,,,,,,,
,,,,,,,,2023-08-24_08h16.07.803,HF_wild_card,2022.2.4,Win32,74.96251874,62966289dc2720a7bbedb8f8,64e63663dbcaf322d2eec8da,64e70360d7ca356bf54da705,,,,,,,ctch,resources/DG.BMP,resources/DR.BMP,Door3,-0.390625,-0.01953125,1,0,0,1.659,optionLeft,70,6065,3,22,0,22,0,1,,,,,,,,,,,,,,,,,,,,,,,,,,,,,,,,,,,,,,,
,,,,,,,,2023-08-24_08h16.07.803,HF_wild_card,2022.2.4,Win32,74.96251874,62966289dc2720a7bbedb8f8,64e63663dbcaf322d2eec8da,64e70360d7ca356bf54da705,,,,,,,sngl,resources/DR.BMP,resources/Empty.png,Door2,-0.37109375,-0.02734375,1,0,0,1.17,optionLeft,40,6105,3,23,0,23,0,1,,,,,,,,,,,,,,,,,,,,,,,,,,,,,,,,,,,,,,,
,,,,,,,,2023-08-24_08h16.07.803,HF_wild_card,2022.2.4,Win32,74.96251874,62966289dc2720a7bbedb8f8,64e63663dbcaf322d2eec8da,64e70360d7ca356bf54da705,,,,,,,decisionTrl,resources/DG.BMP,resources/DB.BMP,Door3,-0.389322917,-0.028645833,1,0,0,4.83,optionLeft,70,6175,3,24,0,24,0,1,,,,,,,,,,,,,,,,,,,,,,,,,,,,,,,,,,,,,,,
,,,,,,,,2023-08-24_08h16.07.803,HF_wild_card,2022.2.4,Win32,74.96251874,62966289dc2720a7bbedb8f8,64e63663dbcaf322d2eec8da,64e70360d7ca356bf54da705,,,,,,,ctch,resources/DBN.BMP,resources/DP.BMP,Door4,0.3984375,-0.03515625,1,0,0,1.831,optionRight,80,6255,3,25,0,25,0,1,,,,,,,,,,,,,,,,,,,,,,,,,,,,,,,,,,,,,,,
,,,,,,,,2023-08-24_08h16.07.803,HF_wild_card,2022.2.4,Win32,74.96251874,62966289dc2720a7bbedb8f8,64e63663dbcaf322d2eec8da,64e70360d7ca356bf54da705,,,,,,,sngl,resources/DG.BMP,resources/Empty.png,Door3,-0.375,-0.016927083,1,0,0,1.499,optionLeft,70,6325,3,26,0,26,0,1,,,,,,,,,,,,,,,,,,,,,,,,,,,,,,,,,,,,,,,
,,,,,,,,2023-08-24_08h16.07.803,HF_wild_card,2022.2.4,Win32,74.96251874,62966289dc2720a7bbedb8f8,64e63663dbcaf322d2eec8da,64e70360d7ca356bf54da705,,,,,,,sngl,resources/Empty.png,resources/DR.BMP,Door2,0.348958333,-0.029947917,1,0,0,1.472,optionRight,20,6345,3,27,0,27,0,1,,,,,,,,,,,,,,,,,,,,,,,,,,,,,,,,,,,,,,,
,,,,,,,,2023-08-24_08h16.07.803,HF_wild_card,2022.2.4,Win32,74.96251874,62966289dc2720a7bbedb8f8,64e63663dbcaf322d2eec8da,64e70360d7ca356bf54da705,,,,,,,decisionTrl,resources/DR.BMP,resources/DBN.BMP,Door2,-0.321614583,-0.040364583,1,0,0,1.9,optionLeft,20,6365,3,28,0,28,0,1,,,,,,,,,,,,,,,,,,,,,,,,,,,,,,,,,,,,,,,
,,,,,,,,2023-08-24_08h16.07.803,HF_wild_card,2022.2.4,Win32,74.96251874,62966289dc2720a7bbedb8f8,64e63663dbcaf322d2eec8da,64e70360d7ca356bf54da705,,,,,,,decisionTrl,resources/DBN.BMP,resources/DR.BMP,Door1,-0.319010417,-0.013020833,1,0,0,2.003,optionLeft,30,6395,3,29,0,29,0,1,,,,,,,,,,,,,,,,,,,,,,,,,,,,,,,,,,,,,,,
,,,,,,,,2023-08-24_08h16.07.803,HF_wild_card,2022.2.4,Win32,74.96251874,62966289dc2720a7bbedb8f8,64e63663dbcaf322d2eec8da,64e70360d7ca356bf54da705,,,,,,,decisionTrl,resources/DBN.BMP,resources/DB.BMP,WildCard_NonEx,0.365885417,-0.0546875,1,0,0,1.777,optionRight,55,6450,3,30,0,30,0,1,,,,,,,,,,,,,,,,,,,,,,,,,,,,,,,,,,,,,,,
,,,,,,,,2023-08-24_08h16.07.803,HF_wild_card,2022.2.4,Win32,74.96251874,62966289dc2720a7bbedb8f8,64e63663dbcaf322d2eec8da,64e70360d7ca356bf54da705,,,,,,,decisionTrl,resources/DB.BMP,resources/DP.BMP,Door4,0.39453125,-0.0625,1,0,0,1.762,optionRight,80,6530,3,31,0,31,0,1,,,,,,,,,,,,,,,,,,,,,,,,,,,,,,,,,,,,,,,
,,,,,,,,2023-08-24_08h16.07.803,HF_wild_card,2022.2.4,Win32,74.96251874,62966289dc2720a7bbedb8f8,64e63663dbcaf322d2eec8da,64e70360d7ca356bf54da705,,,,,,,decisionTrl,resources/DP.BMP,resources/DB.BMP,Door4,-0.39453125,-0.05078125,1,0,0,1.725,optionLeft,80,6610,3,32,0,32,0,1,,,,,,,,,,,,,,,,,,,,,,,,,,,,,,,,,,,,,,,
,,,,,,,,2023-08-24_08h16.07.803,HF_wild_card,2022.2.4,Win32,74.96251874,62966289dc2720a7bbedb8f8,64e63663dbcaf322d2eec8da,64e70360d7ca356bf54da705,,,,,,,decisionTrl,resources/DBN.BMP,resources/DR.BMP,Door2,0.294270833,-0.010416667,1,0,0,2.579,optionRight,40,6650,3,33,0,33,0,1,,,,,,,,,,,,,,,,,,,,,,,,,,,,,,,,,,,,,,,
,,,,,,,,2023-08-24_08h16.07.803,HF_wild_card,2022.2.4,Win32,74.96251874,62966289dc2720a7bbedb8f8,64e63663dbcaf322d2eec8da,64e70360d7ca356bf54da705,,,,,,,ctch,resources/DR.BMP,resources/DG.BMP,Door3,0.421875,-0.010416667,1,0,0,1.66,optionRight,70,6720,3,34,0,34,0,1,,,,,,,,,,,,,,,,,,,,,,,,,,,,,,,,,,,,,,,
,,,,,,,,2023-08-24_08h16.07.803,HF_wild_card,2022.2.4,Win32,74.96251874,62966289dc2720a7bbedb8f8,64e63663dbcaf322d2eec8da,64e70360d7ca356bf54da705,,,,,,,decisionTrl,resources/DG.BMP,resources/DP.BMP,Door4,0.390625,-0.061197917,1,0,0,1.753,optionRight,80,6800,3,35,0,35,0,1,,,,,,,,,,,,,,,,,,,,,,,,,,,,,,,,,,,,,,,
,,,,,,,,2023-08-24_08h16.07.803,HF_wild_card,2022.2.4,Win32,74.96251874,62966289dc2720a7bbedb8f8,64e63663dbcaf322d2eec8da,64e70360d7ca356bf54da705,,,,,,,ctch,resources/DP.BMP,resources/DBN.BMP,Door4,-0.39453125,-0.03515625,1,0,0,1.751,optionLeft,60,6860,3,36,0,36,0,1,,,,,,,,,,,,,,,,,,,,,,,,,,,,,,,,,,,,,,,
,,,,,,,,2023-08-24_08h16.07.803,HF_wild_card,2022.2.4,Win32,74.96251874,62966289dc2720a7bbedb8f8,64e63663dbcaf322d2eec8da,64e70360d7ca356bf54da705,,,,,,,decisionTrl,resources/DP.BMP,resources/DG.BMP,Door4,-0.380208333,-0.057291667,1,0,0,2.192,optionLeft,60,6920,3,37,0,37,0,1,,,,,,,,,,,,,,,,,,,,,,,,,,,,,,,,,,,,,,,
,,,,,,,,2023-08-24_08h16.07.803,HF_wild_card,2022.2.4,Win32,74.96251874,62966289dc2720a7bbedb8f8,64e63663dbcaf322d2eec8da,64e70360d7ca356bf54da705,,,,,,,sngl,resources/DB.BMP,resources/Empty.png,WildCard_NonEx,-0.39453125,-0.028645833,1,0,0,2.578,optionLeft,55,6975,3,38,0,38,0,1,,,,,,,,,,,,,,,,,,,,,,,,,,,,,,,,,,,,,,,
,,,,,,,,2023-08-24_08h16.07.803,HF_wild_card,2022.2.4,Win32,74.96251874,62966289dc2720a7bbedb8f8,64e63663dbcaf322d2eec8da,64e70360d7ca356bf54da705,,,,,,,decisionTrl,resources/DB.BMP,resources/DR.BMP,WildCard_NonEx,-0.3828125,-0.01171875,1,0,0,1.529,optionLeft,55,7030,3,39,0,39,0,1,,,,,,,,,,,,,,,,,,,,,,,,,,,,,,,,,,,,,,,
,,,,,,,,2023-08-24_08h16.07.803,HF_wild_card,2022.2.4,Win32,74.96251874,62966289dc2720a7bbedb8f8,64e63663dbcaf322d2eec8da,64e70360d7ca356bf54da705,,,,,,,decisionTrl,resources/DG.BMP,resources/DP.BMP,Door4,0.389322917,-0.03515625,1,0,0,1.553,optionRight,60,7090,3,40,0,40,0,1,,,,,,,,,,,,,,,,,,,,,,,,,,,,,,,,,,,,,,,
,,,,,,,,2023-08-24_08h16.07.803,HF_wild_card,2022.2.4,Win32,74.96251874,62966289dc2720a7bbedb8f8,64e63663dbcaf322d2eec8da,64e70360d7ca356bf54da705,,,,,,,ctch,resources/DR.BMP,resources/DG.BMP,Door3,0.36328125,-0.00390625,1,0,0,1.633,optionRight,70,7160,3,41,0,41,0,1,,,,,,,,,,,,,,,,,,,,,,,,,,,,,,,,,,,,,,,
,,,,,,,,2023-08-24_08h16.07.803,HF_wild_card,2022.2.4,Win32,74.96251874,62966289dc2720a7bbedb8f8,64e63663dbcaf322d2eec8da,64e70360d7ca356bf54da705,,,,,,,sngl,resources/Empty.png,resources/DP.BMP,Door4,0.40625,-0.04296875,1,0,0,2.049,optionRight,60,7220,3,42,0,42,0,1,,,,,,,,,,,,,,,,,,,,,,,,,,,,,,,,,,,,,,,
,,,,,,,,2023-08-24_08h16.07.803,HF_wild_card,2022.2.4,Win32,74.96251874,62966289dc2720a7bbedb8f8,64e63663dbcaf322d2eec8da,64e70360d7ca356bf54da705,,,,,,,decisionTrl,resources/DP.BMP,resources/DG.BMP,Door4,-0.393229167,-0.053385417,1,0,0,1.445,optionLeft,60,7280,3,43,0,43,0,1,,,,,,,,,,,,,,,,,,,,,,,,,,,,,,,,,,,,,,,
,,,,,,,,2023-08-24_08h16.07.803,HF_wild_card,2022.2.4,Win32,74.96251874,62966289dc2720a7bbedb8f8,64e63663dbcaf322d2eec8da,64e70360d7ca356bf54da705,,,,,,,,,,,,,,,,,,,,,,,,,,2,0,2,0,1,,,,,,,,,,,,,,,,,,,,,,,,,,,,,,,,,,
,,,,,,,,2023-08-24_08h16.07.803,HF_wild_card,2022.2.4,Win32,74.96251874,62966289dc2720a7bbedb8f8,64e63663dbcaf322d2eec8da,64e70360d7ca356bf54da705,,,,,,,decisionTrl,resources/DG.BMP,resources/DP.BMP,Door4,0.391927083,-0.087239583,1,0,0,1.747,optionRight,80,7360,4,0,0,0,0,1,,,,,,,,,,,,,,,,,,,,,,,,,,,,,,,,,,,,,,,
,,,,,,,,2023-08-24_08h16.07.803,HF_wild_card,2022.2.4,Win32,74.96251874,62966289dc2720a7bbedb8f8,64e63663dbcaf322d2eec8da,64e70360d7ca356bf54da705,,,,,,,decisionTrl,resources/DP.BMP,resources/DG.BMP,Door4,-0.40625,-0.032552083,1,0,0,1.725,optionLeft,60,7420,4,1,0,1,0,1,,,,,,,,,,,,,,,,,,,,,,,,,,,,,,,,,,,,,,,
,,,,,,,,2023-08-24_08h16.07.803,HF_wild_card,2022.2.4,Win32,74.96251874,62966289dc2720a7bbedb8f8,64e63663dbcaf322d2eec8da,64e70360d7ca356bf54da705,,,,,,,ctch,resources/DP.BMP,resources/DBN.BMP,Door4,-0.40234375,-0.037760417,1,0,0,1.394,optionLeft,60,7480,4,2,0,2,0,1,,,,,,,,,,,,,,,,,,,,,,,,,,,,,,,,,,,,,,,
,,,,,,,,2023-08-24_08h16.07.803,HF_wild_card,2022.2.4,Win32,74.96251874,62966289dc2720a7bbedb8f8,64e63663dbcaf322d2eec8da,64e70360d7ca356bf54da705,,,,,,,sngl,resources/Empty.png,resources/DY.BMP,WildCard_Ex,0.388020833,0.001302083,1,0,0,2.393,optionRight,95,7575,4,3,0,3,0,1,,,,,,,,,,,,,,,,,,,,,,,,,,,,,,,,,,,,,,,
,,,,,,,,2023-08-24_08h16.07.803,HF_wild_card,2022.2.4,Win32,74.96251874,62966289dc2720a7bbedb8f8,64e63663dbcaf322d2eec8da,64e70360d7ca356bf54da705,,,,,,,decisionTrl,resources/DR.BMP,resources/DBN.BMP,Door1,0.290364583,-0.020833333,1,0,0,3.06,optionRight,30,7605,4,4,0,4,0,1,,,,,,,,,,,,,,,,,,,,,,,,,,,,,,,,,,,,,,,
,,,,,,,,2023-08-24_08h16.07.803,HF_wild_card,2022.2.4,Win32,74.96251874,62966289dc2720a7bbedb8f8,64e63663dbcaf322d2eec8da,64e70360d7ca356bf54da705,,,,,,,decisionTrl,resources/DBN.BMP,resources/DR.BMP,Door1,-0.338541667,-0.0078125,1,0,0,1.808,optionLeft,30,7635,4,5,0,5,0,1,,,,,,,,,,,,,,,,,,,,,,,,,,,,,,,,,,,,,,,
,,,,,,,,2023-08-24_08h16.07.803,HF_wild_card,2022.2.4,Win32,74.96251874,62966289dc2720a7bbedb8f8,64e63663dbcaf322d2eec8da,64e70360d7ca356bf54da705,,,,,,,decisionTrl,resources/DP.BMP,resources/DG.BMP,Door4,-0.3828125,-0.045572917,1,0,0,1.688,optionLeft,60,7695,4,6,0,6,0,1,,,,,,,,,,,,,,,,,,,,,,,,,,,,,,,,,,,,,,,
,,,,,,,,2023-08-24_08h16.07.803,HF_wild_card,2022.2.4,Win32,74.96251874,62966289dc2720a7bbedb8f8,64e63663dbcaf322d2eec8da,64e70360d7ca356bf54da705,,,,,,,sngl,resources/Empty.png,resources/DBN.BMP,Door1,0.37109375,-0.002604167,1,0,0,1.154,optionRight,30,7725,4,7,0,7,0,1,,,,,,,,,,,,,,,,,,,,,,,,,,,,,,,,,,,,,,,
,,,,,,,,2023-08-24_08h16.07.803,HF_wild_card,2022.2.4,Win32,74.96251874,62966289dc2720a7bbedb8f8,64e63663dbcaf322d2eec8da,64e70360d7ca356bf54da705,,,,,,,decisionTrl,resources/DY.BMP,resources/DBN.BMP,WildCard_Ex,-0.41796875,-0.005208333,1,0,0,1.433,optionLeft,5,7730,4,8,0,8,0,1,,,,,,,,,,,,,,,,,,,,,,,,,,,,,,,,,,,,,,,
,,,,,,,,2023-08-24_08h16.07.803,HF_wild_card,2022.2.4,Win32,74.96251874,62966289dc2720a7bbedb8f8,64e63663dbcaf322d2eec8da,64e70360d7ca356bf54da705,,,,,,,decisionTrl,resources/DP.BMP,resources/DG.BMP,Door4,-0.389322917,-0.045572917,1,0,0,1.591,optionLeft,60,7790,4,9,0,9,0,1,,,,,,,,,,,,,,,,,,,,,,,,,,,,,,,,,,,,,,,
,,,,,,,,2023-08-24_08h16.07.803,HF_wild_card,2022.2.4,Win32,74.96251874,62966289dc2720a7bbedb8f8,64e63663dbcaf322d2eec8da,64e70360d7ca356bf54da705,,,,,,,decisionTrl,resources/DG.BMP,resources/DY.BMP,WildCard_Ex,0.436197917,-0.03515625,1,0,0,1.379,optionRight,5,7795,4,10,0,10,0,1,,,,,,,,,,,,,,,,,,,,,,,,,,,,,,,,,,,,,,,
,,,,,,,,2023-08-24_08h16.07.803,HF_wild_card,2022.2.4,Win32,74.96251874,62966289dc2720a7bbedb8f8,64e63663dbcaf322d2eec8da,64e70360d7ca356bf54da705,,,,,,,sngl,resources/DBN.BMP,resources/Empty.png,Door1,-0.315104167,-0.01953125,1,0,0,1.34,optionLeft,30,7825,4,11,0,11,0,1,,,,,,,,,,,,,,,,,,,,,,,,,,,,,,,,,,,,,,,
,,,,,,,,2023-08-24_08h16.07.803,HF_wild_card,2022.2.4,Win32,74.96251874,62966289dc2720a7bbedb8f8,64e63663dbcaf322d2eec8da,64e70360d7ca356bf54da705,,,,,,,sngl,resources/DR.BMP,resources/Empty.png,Door2,-0.346354167,-0.009114583,1,0,0,1.273,optionLeft,20,7845,4,12,0,12,0,1,,,,,,,,,,,,,,,,,,,,,,,,,,,,,,,,,,,,,,,
,,,,,,,,2023-08-24_08h16.07.803,HF_wild_card,2022.2.4,Win32,74.96251874,62966289dc2720a7bbedb8f8,64e63663dbcaf322d2eec8da,64e70360d7ca356bf54da705,,,,,,,ctch,resources/DG.BMP,resources/DR.BMP,Door3,-0.377604167,-0.009114583,1,0,0,1.553,optionLeft,70,7915,4,13,0,13,0,1,,,,,,,,,,,,,,,,,,,,,,,,,,,,,,,,,,,,,,,
,,,,,,,,2023-08-24_08h16.07.803,HF_wild_card,2022.2.4,Win32,74.96251874,62966289dc2720a7bbedb8f8,64e63663dbcaf322d2eec8da,64e70360d7ca356bf54da705,,,,,,,decisionTrl,resources/DR.BMP,resources/DBN.BMP,Door1,0.3515625,0.018229167,1,0,0,2.198,optionRight,30,7945,4,14,0,14,0,1,,,,,,,,,,,,,,,,,,,,,,,,,,,,,,,,,,,,,,,
,,,,,,,,2023-08-24_08h16.07.803,HF_wild_card,2022.2.4,Win32,74.96251874,62966289dc2720a7bbedb8f8,64e63663dbcaf322d2eec8da,64e70360d7ca356bf54da705,,,,,,,sngl,resources/DG.BMP,resources/Empty.png,Door3,-0.358072917,-0.024739583,1,0,0,1.89,optionLeft,70,8015,4,15,0,15,0,1,,,,,,,,,,,,,,,,,,,,,,,,,,,,,,,,,,,,,,,
,,,,,,,,2023-08-24_08h16.07.803,HF_wild_card,2022.2.4,Win32,74.96251874,62966289dc2720a7bbedb8f8,64e63663dbcaf322d2eec8da,64e70360d7ca356bf54da705,,,,,,,decisionTrl,resources/DR.BMP,resources/DBN.BMP,Door1,0.27734375,0.016927083,1,0,0,1.978,optionRight,30,8045,4,16,0,16,0,1,,,,,,,,,,,,,,,,,,,,,,,,,,,,,,,,,,,,,,,
,,,,,,,,2023-08-24_08h16.07.803,HF_wild_card,2022.2.4,Win32,74.96251874,62966289dc2720a7bbedb8f8,64e63663dbcaf322d2eec8da,64e70360d7ca356bf54da705,,,,,,,sngl,resources/Empty.png,resources/DY.BMP,WildCard_Ex,0.334635417,-0.016927083,1,0,0,3.405,optionRight,5,8050,4,17,0,17,0,1,,,,,,,,,,,,,,,,,,,,,,,,,,,,,,,,,,,,,,,
,,,,,,,,2023-08-24_08h16.07.803,HF_wild_card,2022.2.4,Win32,74.96251874,62966289dc2720a7bbedb8f8,64e63663dbcaf322d2eec8da,64e70360d7ca356bf54da705,,,,,,,ctch,resources/DP.BMP,resources/DBN.BMP,Door4,-0.401041667,-0.04296875,1,0,0,1.3,optionLeft,80,8130,4,18,0,18,0,1,,,,,,,,,,,,,,,,,,,,,,,,,,,,,,,,,,,,,,,
,,,,,,,,2023-08-24_08h16.07.803,HF_wild_card,2022.2.4,Win32,74.96251874,62966289dc2720a7bbedb8f8,64e63663dbcaf322d2eec8da,64e70360d7ca356bf54da705,,,,,,,decisionTrl,resources/DP.BMP,resources/DY.BMP,Door4,-0.35546875,-0.040364583,1,0,0,1.7,optionLeft,60,8190,4,19,0,19,0,1,,,,,,,,,,,,,,,,,,,,,,,,,,,,,,,,,,,,,,,
,,,,,,,,2023-08-24_08h16.07.803,HF_wild_card,2022.2.4,Win32,74.96251874,62966289dc2720a7bbedb8f8,64e63663dbcaf322d2eec8da,64e70360d7ca356bf54da705,,,,,,,sngl,resources/Empty.png,resources/DR.BMP,Door2,0.329427083,-0.018229167,1,0,0,1.38,optionRight,40,8230,4,20,0,20,0,1,,,,,,,,,,,,,,,,,,,,,,,,,,,,,,,,,,,,,,,
,,,,,,,,2023-08-24_08h16.07.803,HF_wild_card,2022.2.4,Win32,74.96251874,62966289dc2720a7bbedb8f8,64e63663dbcaf322d2eec8da,64e70360d7ca356bf54da705,,,,,,,ctch,resources/DG.BMP,resources/DR.BMP,Door3,-0.372395833,-0.037760417,1,0,0,1.701,optionLeft,70,8300,4,21,0,21,0,1,,,,,,,,,,,,,,,,,,,,,,,,,,,,,,,,,,,,,,,
,,,,,,,,2023-08-24_08h16.07.803,HF_wild_card,2022.2.4,Win32,74.96251874,62966289dc2720a7bbedb8f8,64e63663dbcaf322d2eec8da,64e70360d7ca356bf54da705,,,,,,,decisionTrl,resources/DBN.BMP,resources/DR.BMP,Door2,0.291666667,-0.001302083,1,0,0,2.408,optionRight,20,8320,4,22,0,22,0,1,,,,,,,,,,,,,,,,,,,,,,,,,,,,,,,,,,,,,,,
,,,,,,,,2023-08-24_08h16.07.803,HF_wild_card,2022.2.4,Win32,74.96251874,62966289dc2720a7bbedb8f8,64e63663dbcaf322d2eec8da,64e70360d7ca356bf54da705,,,,,,,decisionTrl,resources/DBN.BMP,resources/DR.BMP,Door1,-0.317708333,-0.009114583,1,0,0,1.355,optionLeft,30,8350,4,23,0,23,0,1,,,,,,,,,,,,,,,,,,,,,,,,,,,,,,,,,,,,,,,
,,,,,,,,2023-08-24_08h16.07.803,HF_wild_card,2022.2.4,Win32,74.96251874,62966289dc2720a7bbedb8f8,64e63663dbcaf322d2eec8da,64e70360d7ca356bf54da705,,,,,,,decisionTrl,resources/DR.BMP,resources/DBN.BMP,Door1,0.294270833,-0.016927083,1,0,0,1.781,optionRight,30,8380,4,24,0,24,0,1,,,,,,,,,,,,,,,,,,,,,,,,,,,,,,,,,,,,,,,
,,,,,,,,2023-08-24_08h16.07.803,HF_wild_card,2022.2.4,Win32,74.96251874,62966289dc2720a7bbedb8f8,64e63663dbcaf322d2eec8da,64e70360d7ca356bf54da705,,,,,,,decisionTrl,resources/DBN.BMP,resources/DY.BMP,Door1,-0.369791667,-0.00390625,1,0,0,1.49,optionLeft,30,8410,4,25,0,25,0,1,,,,,,,,,,,,,,,,,,,,,,,,,,,,,,,,,,,,,,,
,,,,,,,,2023-08-24_08h16.07.803,HF_wild_card,2022.2.4,Win32,74.96251874,62966289dc2720a7bbedb8f8,64e63663dbcaf322d2eec8da,64e70360d7ca356bf54da705,,,,,,,ctch,resources/DR.BMP,resources/DG.BMP,Door3,0.39453125,-0.026041667,1,0,0,1.42,optionRight,70,8480,4,26,0,26,0,1,,,,,,,,,,,,,,,,,,,,,,,,,,,,,,,,,,,,,,,
,,,,,,,,2023-08-24_08h16.07.803,HF_wild_card,2022.2.4,Win32,74.96251874,62966289dc2720a7bbedb8f8,64e63663dbcaf322d2eec8da,64e70360d7ca356bf54da705,,,,,,,sngl,resources/DY.BMP,resources/Empty.png,WildCard_Ex,-0.37890625,-0.01171875,1,0,0,1.367,optionLeft,95,8575,4,27,0,27,0,1,,,,,,,,,,,,,,,,,,,,,,,,,,,,,,,,,,,,,,,
,,,,,,,,2023-08-24_08h16.07.803,HF_wild_card,2022.2.4,Win32,74.96251874,62966289dc2720a7bbedb8f8,64e63663dbcaf322d2eec8da,64e70360d7ca356bf54da705,,,,,,,decisionTrl,resources/DY.BMP,resources/DP.BMP,Door4,0.375,-0.020833333,1,0,0,1.78,optionRight,60,8635,4,28,0,28,0,1,,,,,,,,,,,,,,,,,,,,,,,,,,,,,,,,,,,,,,,
,,,,,,,,2023-08-24_08h16.07.803,HF_wild_card,2022.2.4,Win32,74.96251874,62966289dc2720a7bbedb8f8,64e63663dbcaf322d2eec8da,64e70360d7ca356bf54da705,,,,,,,decisionTrl,resources/DY.BMP,resources/DR.BMP,Door2,0.30859375,-0.0625,1,0,0,2.073,optionRight,20,8655,4,29,0,29,0,1,,,,,,,,,,,,,,,,,,,,,,,,,,,,,,,,,,,,,,,
,,,,,,,,2023-08-24_08h16.07.803,HF_wild_card,2022.2.4,Win32,74.96251874,62966289dc2720a7bbedb8f8,64e63663dbcaf322d2eec8da,64e70360d7ca356bf54da705,,,,,,,sngl,resources/Empty.png,resources/DP.BMP,Door4,0.373697917,-0.00390625,1,0,0,1.668,optionRight,80,8735,4,30,0,30,0,1,,,,,,,,,,,,,,,,,,,,,,,,,,,,,,,,,,,,,,,
,,,,,,,,2023-08-24_08h16.07.803,HF_wild_card,2022.2.4,Win32,74.96251874,62966289dc2720a7bbedb8f8,64e63663dbcaf322d2eec8da,64e70360d7ca356bf54da705,,,,,,,sngl,resources/DY.BMP,resources/Empty.png,WildCard_Ex,-0.377604167,-0.024739583,1,0,0,1.457,optionLeft,5,8740,4,31,0,31,0,1,,,,,,,,,,,,,,,,,,,,,,,,,,,,,,,,,,,,,,,
,,,,,,,,2023-08-24_08h16.07.803,HF_wild_card,2022.2.4,Win32,74.96251874,62966289dc2720a7bbedb8f8,64e63663dbcaf322d2eec8da,64e70360d7ca356bf54da705,,,,,,,decisionTrl,resources/DG.BMP,resources/DP.BMP,Door4,0.385416667,-0.05078125,1,0,0,1.35,optionRight,80,8820,4,32,0,32,0,1,,,,,,,,,,,,,,,,,,,,,,,,,,,,,,,,,,,,,,,
,,,,,,,,2023-08-24_08h16.07.803,HF_wild_card,2022.2.4,Win32,74.96251874,62966289dc2720a7bbedb8f8,64e63663dbcaf322d2eec8da,64e70360d7ca356bf54da705,,,,,,,ctch,resources/DBN.BMP,resources/DP.BMP,Door4,0.408854167,-0.01171875,1,0,0,1.791,optionRight,80,8900,4,33,0,33,0,1,,,,,,,,,,,,,,,,,,,,,,,,,,,,,,,,,,,,,,,
,,,,,,,,2023-08-24_08h16.07.803,HF_wild_card,2022.2.4,Win32,74.96251874,62966289dc2720a7bbedb8f8,64e63663dbcaf322d2eec8da,64e70360d7ca356bf54da705,,,,,,,sngl,resources/DP.BMP,resources/Empty.png,Door4,-0.384114583,-0.037760417,1,0,0,2.607,optionLeft,60,8960,4,34,0,34,0,1,,,,,,,,,,,,,,,,,,,,,,,,,,,,,,,,,,,,,,,
,,,,,,,,2023-08-24_08h16.07.803,HF_wild_card,2022.2.4,Win32,74.96251874,62966289dc2720a7bbedb8f8,64e63663dbcaf322d2eec8da,64e70360d7ca356bf54da705,,,,,,,decisionTrl,resources/DG.BMP,resources/DP.BMP,Door4,0.412760417,-0.018229167,1,0,0,1.699,optionRight,60,9020,4,35,0,35,0,1,,,,,,,,,,,,,,,,,,,,,,,,,,,,,,,,,,,,,,,
,,,,,,,,2023-08-24_08h16.07.803,HF_wild_card,2022.2.4,Win32,74.96251874,62966289dc2720a7bbedb8f8,64e63663dbcaf322d2eec8da,64e70360d7ca356bf54da705,,,,,,,decisionTrl,resources/DR.BMP,resources/DY.BMP,Door2,-0.35546875,-0.024739583,1,0,0,1.844,optionLeft,40,9060,4,36,0,36,0,1,,,,,,,,,,,,,,,,,,,,,,,,,,,,,,,,,,,,,,,
,,,,,,,,2023-08-24_08h16.07.803,HF_wild_card,2022.2.4,Win32,74.96251874,62966289dc2720a7bbedb8f8,64e63663dbcaf322d2eec8da,64e70360d7ca356bf54da705,,,,,,,ctch,resources/DBN.BMP,resources/DP.BMP,Door4,0.37890625,-0.020833333,1,0,0,1.54,optionRight,80,9140,4,37,0,37,0,1,,,,,,,,,,,,,,,,,,,,,,,,,,,,,,,,,,,,,,,
,,,,,,,,2023-08-24_08h16.07.803,HF_wild_card,2022.2.4,Win32,74.96251874,62966289dc2720a7bbedb8f8,64e63663dbcaf322d2eec8da,64e70360d7ca356bf54da705,,,,,,,decisionTrl,resources/DP.BMP,resources/DG.BMP,Door4,-0.389322917,-0.046875,1,0,0,1.635,optionLeft,80,9220,4,38,0,38,0,1,,,,,,,,,,,,,,,,,,,,,,,,,,,,,,,,,,,,,,,
,,,,,,,,2023-08-24_08h16.07.803,HF_wild_card,2022.2.4,Win32,74.96251874,62966289dc2720a7bbedb8f8,64e63663dbcaf322d2eec8da,64e70360d7ca356bf54da705,,,,,,,decisionTrl,resources/DG.BMP,resources/DP.BMP,Door4,0.395833333,-0.03515625,1,0,0,1.339,optionRight,60,9280,4,39,0,39,0,1,,,,,,,,,,,,,,,,,,,,,,,,,,,,,,,,,,,,,,,
,,,,,,,,2023-08-24_08h16.07.803,HF_wild_card,2022.2.4,Win32,74.96251874,62966289dc2720a7bbedb8f8,64e63663dbcaf322d2eec8da,64e70360d7ca356bf54da705,,,,,,,decisionTrl,resources/DY.BMP,resources/DG.BMP,Door3,0.389322917,-0.036458333,1,0,0,1.607,optionRight,70,9350,4,40,0,40,0,1,,,,,,,,,,,,,,,,,,,,,,,,,,,,,,,,,,,,,,,
,,,,,,,,2023-08-24_08h16.07.803,HF_wild_card,2022.2.4,Win32,74.96251874,62966289dc2720a7bbedb8f8,64e63663dbcaf322d2eec8da,64e70360d7ca356bf54da705,,,,,,,decisionTrl,resources/DBN.BMP,resources/DR.BMP,Door1,-0.348958333,-0.014322917,1,0,0,2.017,optionLeft,30,9380,4,41,0,41,0,1,,,,,,,,,,,,,,,,,,,,,,,,,,,,,,,,,,,,,,,
,,,,,,,,2023-08-24_08h16.07.803,HF_wild_card,2022.2.4,Win32,74.96251874,62966289dc2720a7bbedb8f8,64e63663dbcaf322d2eec8da,64e70360d7ca356bf54da705,,,,,,,sngl,resources/Empty.png,resources/DG.BMP,Door3,0.37109375,-0.014322917,1,0,0,1.912,optionRight,70,9450,4,42,0,42,0,1,,,,,,,,,,,,,,,,,,,,,,,,,,,,,,,,,,,,,,,
,,,,,,,,2023-08-24_08h16.07.803,HF_wild_card,2022.2.4,Win32,74.96251874,62966289dc2720a7bbedb8f8,64e63663dbcaf322d2eec8da,64e70360d7ca356bf54da705,,,,,,,ctch,resources/DR.BMP,resources/DG.BMP,Door3,0.420572917,-0.013020833,1,0,0,1.633,optionRight,70,9520,4,43,0,43,0,1,,,,,,,,,,,,,,,,,,,,,,,,,,,,,,,,,,,,,,,
,,,,,,,,2023-08-24_08h16.07.803,HF_wild_card,2022.2.4,Win32,74.96251874,62966289dc2720a7bbedb8f8,64e63663dbcaf322d2eec8da,64e70360d7ca356bf54da705,,,,,,,,,,,,,,,,,,,,,,,,,,3,0,3,0,1,,,,,,,,,,,,,,,,,,,,,,,,,,,,,,,,,,
,,,,,,,,2023-08-24_08h16.07.803,HF_wild_card,2022.2.4,Win32,74.96251874,62966289dc2720a7bbedb8f8,64e63663dbcaf322d2eec8da,64e70360d7ca356bf54da705,,,,,,,ctch,resources/DBN.BMP,resources/DP.BMP,Door4,0.364583333,-0.026041667,1,0,0,1.83,optionRight,80,9600,5,0,0,0,0,1,,,,,,,,,,,,,,,,,,,,,,,,,,,,,,,,,,,,,,,
,,,,,,,,2023-08-24_08h16.07.803,HF_wild_card,2022.2.4,Win32,74.96251874,62966289dc2720a7bbedb8f8,64e63663dbcaf322d2eec8da,64e70360d7ca356bf54da705,,,,,,,sngl,resources/Empty.png,resources/DG.BMP,Door3,0.423177083,-0.013020833,1,0,0,2.052,optionRight,70,9670,5,1,0,1,0,1,,,,,,,,,,,,,,,,,,,,,,,,,,,,,,,,,,,,,,,
,,,,,,,,2023-08-24_08h16.07.803,HF_wild_card,2022.2.4,Win32,74.96251874,62966289dc2720a7bbedb8f8,64e63663dbcaf322d2eec8da,64e70360d7ca356bf54da705,,,,,,,ctch,resources/DR.BMP,resources/DG.BMP,Door3,0.421875,-0.020833333,1,0,0,1.659,optionRight,70,9740,5,2,0,2,0,1,,,,,,,,,,,,,,,,,,,,,,,,,,,,,,,,,,,,,,,
,,,,,,,,2023-08-24_08h16.07.803,HF_wild_card,2022.2.4,Win32,74.96251874,62966289dc2720a7bbedb8f8,64e63663dbcaf322d2eec8da,64e70360d7ca356bf54da705,,,,,,,sngl,resources/DY.BMP,resources/Empty.png,WildCard_Ex,-0.389322917,-0.0390625,1,0,0,1.298,optionLeft,5,9745,5,3,0,3,0,1,,,,,,,,,,,,,,,,,,,,,,,,,,,,,,,,,,,,,,,
,,,,,,,,2023-08-24_08h16.07.803,HF_wild_card,2022.2.4,Win32,74.96251874,62966289dc2720a7bbedb8f8,64e63663dbcaf322d2eec8da,64e70360d7ca356bf54da705,,,,,,,sngl,resources/Empty.png,resources/DBN.BMP,Door1,0.29296875,-0.0078125,1,0,0,1.196,optionRight,30,9775,5,4,0,4,0,1,,,,,,,,,,,,,,,,,,,,,,,,,,,,,,,,,,,,,,,
,,,,,,,,2023-08-24_08h16.07.803,HF_wild_card,2022.2.4,Win32,74.96251874,62966289dc2720a7bbedb8f8,64e63663dbcaf322d2eec8da,64e70360d7ca356bf54da705,,,,,,,decisionTrl,resources/DY.BMP,resources/DBN.BMP,Door1,0.295572917,0.001302083,1,0,0,1.808,optionRight,30,9805,5,5,0,5,0,1,,,,,,,,,,,,,,,,,,,,,,,,,,,,,,,,,,,,,,,
,,,,,,,,2023-08-24_08h16.07.803,HF_wild_card,2022.2.4,Win32,74.96251874,62966289dc2720a7bbedb8f8,64e63663dbcaf322d2eec8da,64e70360d7ca356bf54da705,,,,,,,ctch,resources/DR.BMP,resources/DG.BMP,Door3,0.388020833,0,1,0,0,1.713,optionRight,70,9875,5,6,0,6,0,1,,,,,,,,,,,,,,,,,,,,,,,,,,,,,,,,,,,,,,,
,,,,,,,,2023-08-24_08h16.07.803,HF_wild_card,2022.2.4,Win32,74.96251874,62966289dc2720a7bbedb8f8,64e63663dbcaf322d2eec8da,64e70360d7ca356bf54da705,,,,,,,decisionTrl,resources/DG.BMP,resources/DY.BMP,Door3,-0.38671875,-0.016927083,1,0,0,1.607,optionLeft,70,9945,5,7,0,7,0,1,,,,,,,,,,,,,,,,,,,,,,,,,,,,,,,,,,,,,,,
,,,,,,,,2023-08-24_08h16.07.803,HF_wild_card,2022.2.4,Win32,74.96251874,62966289dc2720a7bbedb8f8,64e63663dbcaf322d2eec8da,64e70360d7ca356bf54da705,,,,,,,decisionTrl,resources/DR.BMP,resources/DY.BMP,Door2,-0.361979167,-0.013020833,1,0,0,1.726,optionLeft,20,9965,5,8,0,8,0,1,,,,,,,,,,,,,,,,,,,,,,,,,,,,,,,,,,,,,,,
,,,,,,,,2023-08-24_08h16.07.803,HF_wild_card,2022.2.4,Win32,74.96251874,62966289dc2720a7bbedb8f8,64e63663dbcaf322d2eec8da,64e70360d7ca356bf54da705,,,,,,,sngl,resources/DY.BMP,resources/Empty.png,WildCard_Ex,-0.372395833,-0.01171875,1,0,0,1.408,optionLeft,95,10060,5,9,0,9,0,1,,,,,,,,,,,,,,,,,,,,,,,,,,,,,,,,,,,,,,,
,,,,,,,,2023-08-24_08h16.07.803,HF_wild_card,2022.2.4,Win32,74.96251874,62966289dc2720a7bbedb8f8,64e63663dbcaf322d2eec8da,64e70360d7ca356bf54da705,,,,,,,decisionTrl,resources/DR.BMP,resources/DBN.BMP,Door1,0.337239583,0.0234375,1,0,0,1.831,optionRight,30,10090,5,10,0,10,0,1,,,,,,,,,,,,,,,,,,,,,,,,,,,,,,,,,,,,,,,
,,,,,,,,2023-08-24_08h16.07.803,HF_wild_card,2022.2.4,Win32,74.96251874,62966289dc2720a7bbedb8f8,64e63663dbcaf322d2eec8da,64e70360d7ca356bf54da705,,,,,,,decisionTrl,resources/DP.BMP,resources/DG.BMP,Door4,-0.407552083,-0.048177083,1,0,0,1.498,optionLeft,80,10170,5,11,0,11,0,1,,,,,,,,,,,,,,,,,,,,,,,,,,,,,,,,,,,,,,,
,,,,,,,,2023-08-24_08h16.07.803,HF_wild_card,2022.2.4,Win32,74.96251874,62966289dc2720a7bbedb8f8,64e63663dbcaf322d2eec8da,64e70360d7ca356bf54da705,,,,,,,decisionTrl,resources/DP.BMP,resources/DG.BMP,Door4,-0.390625,-0.04296875,1,0,0,1.874,optionLeft,80,10250,5,12,0,12,0,1,,,,,,,,,,,,,,,,,,,,,,,,,,,,,,,,,,,,,,,
,,,,,,,,2023-08-24_08h16.07.803,HF_wild_card,2022.2.4,Win32,74.96251874,62966289dc2720a7bbedb8f8,64e63663dbcaf322d2eec8da,64e70360d7ca356bf54da705,,,,,,,decisionTrl,resources/DBN.BMP,resources/DR.BMP,Door1,-0.309895833,-0.03515625,1,0,0,1.54,optionLeft,30,10280,5,13,0,13,0,1,,,,,,,,,,,,,,,,,,,,,,,,,,,,,,,,,,,,,,,
,,,,,,,,2023-08-24_08h16.07.803,HF_wild_card,2022.2.4,Win32,74.96251874,62966289dc2720a7bbedb8f8,64e63663dbcaf322d2eec8da,64e70360d7ca356bf54da705,,,,,,,decisionTrl,resources/DG.BMP,resources/DP.BMP,Door4,0.4140625,-0.033854167,1,0,0,2.005,optionRight,80,10360,5,14,0,14,0,1,,,,,,,,,,,,,,,,,,,,,,,,,,,,,,,,,,,,,,,
,,,,,,,,2023-08-24_08h16.07.803,HF_wild_card,2022.2.4,Win32,74.96251874,62966289dc2720a7bbedb8f8,64e63663dbcaf322d2eec8da,64e70360d7ca356bf54da705,,,,,,,decisionTrl,resources/DG.BMP,resources/DP.BMP,Door4,0.33984375,-0.03125,1,0,0,1.647,optionRight,60,10420,5,15,0,15,0,1,,,,,,,,,,,,,,,,,,,,,,,,,,,,,,,,,,,,,,,
,,,,,,,,2023-08-24_08h16.07.803,HF_wild_card,2022.2.4,Win32,74.96251874,62966289dc2720a7bbedb8f8,64e63663dbcaf322d2eec8da,64e70360d7ca356bf54da705,,,,,,,ctch,resources/DG.BMP,resources/DR.BMP,Door3,-0.375,-0.022135417,1,0,0,1.38,optionLeft,70,10490,5,16,0,16,0,1,,,,,,,,,,,,,,,,,,,,,,,,,,,,,,,,,,,,,,,
,,,,,,,,2023-08-24_08h16.07.803,HF_wild_card,2022.2.4,Win32,74.96251874,62966289dc2720a7bbedb8f8,64e63663dbcaf322d2eec8da,64e70360d7ca356bf54da705,,,,,,,sngl,resources/Empty.png,resources/DY.BMP,WildCard_Ex,0.384114583,-0.041666667,1,0,0,1.367,optionRight,95,10585,5,17,0,17,0,1,,,,,,,,,,,,,,,,,,,,,,,,,,,,,,,,,,,,,,,
,,,,,,,,2023-08-24_08h16.07.803,HF_wild_card,2022.2.4,Win32,74.96251874,62966289dc2720a7bbedb8f8,64e63663dbcaf322d2eec8da,64e70360d7ca356bf54da705,,,,,,,decisionTrl,resources/DP.BMP,resources/DY.BMP,Door4,-0.390625,-0.01171875,1,0,0,2.115,optionLeft,80,10665,5,18,0,18,0,1,,,,,,,,,,,,,,,,,,,,,,,,,,,,,,,,,,,,,,,
,,,,,,,,2023-08-24_08h16.07.803,HF_wild_card,2022.2.4,Win32,74.96251874,62966289dc2720a7bbedb8f8,64e63663dbcaf322d2eec8da,64e70360d7ca356bf54da705,,,,,,,decisionTrl,resources/DP.BMP,resources/DG.BMP,Door4,-0.391927083,-0.03515625,1,0,0,1.605,optionLeft,80,10745,5,19,0,19,0,1,,,,,,,,,,,,,,,,,,,,,,,,,,,,,,,,,,,,,,,
,,,,,,,,2023-08-24_08h16.07.803,HF_wild_card,2022.2.4,Win32,74.96251874,62966289dc2720a7bbedb8f8,64e63663dbcaf322d2eec8da,64e70360d7ca356bf54da705,,,,,,,sngl,resources/Empty.png,resources/DY.BMP,WildCard_Ex,0.36328125,-0.01171875,1,0,0,1.5,optionRight,5,10750,5,20,0,20,0,1,,,,,,,,,,,,,,,,,,,,,,,,,,,,,,,,,,,,,,,
,,,,,,,,2023-08-24_08h16.07.803,HF_wild_card,2022.2.4,Win32,74.96251874,62966289dc2720a7bbedb8f8,64e63663dbcaf322d2eec8da,64e70360d7ca356bf54da705,,,,,,,ctch,resources/DP.BMP,resources/DBN.BMP,Door4,-0.408854167,-0.041666667,1,0,0,1.688,optionLeft,60,10810,5,21,0,21,0,1,,,,,,,,,,,,,,,,,,,,,,,,,,,,,,,,,,,,,,,
,,,,,,,,2023-08-24_08h16.07.803,HF_wild_card,2022.2.4,Win32,74.96251874,62966289dc2720a7bbedb8f8,64e63663dbcaf322d2eec8da,64e70360d7ca356bf54da705,,,,,,,decisionTrl,resources/DBN.BMP,resources/DR.BMP,Door1,-0.404947917,-0.002604167,1,0,0,2.193,optionLeft,30,10840,5,22,0,22,0,1,,,,,,,,,,,,,,,,,,,,,,,,,,,,,,,,,,,,,,,
,,,,,,,,2023-08-24_08h16.07.803,HF_wild_card,2022.2.4,Win32,74.96251874,62966289dc2720a7bbedb8f8,64e63663dbcaf322d2eec8da,64e70360d7ca356bf54da705,,,,,,,ctch,resources/DP.BMP,resources/DBN.BMP,Door4,-0.384114583,-0.028645833,1,0,0,1.25,optionLeft,60,10900,5,23,0,23,0,1,,,,,,,,,,,,,,,,,,,,,,,,,,,,,,,,,,,,,,,
,,,,,,,,2023-08-24_08h16.07.803,HF_wild_card,2022.2.4,Win32,74.96251874,62966289dc2720a7bbedb8f8,64e63663dbcaf322d2eec8da,64e70360d7ca356bf54da705,,,,,,,sngl,resources/DG.BMP,resources/Empty.png,Door3,-0.391927083,-0.028645833,1,0,0,1.831,optionLeft,70,10970,5,24,0,24,0,1,,,,,,,,,,,,,,,,,,,,,,,,,,,,,,,,,,,,,,,
,,,,,,,,2023-08-24_08h16.07.803,HF_wild_card,2022.2.4,Win32,74.96251874,62966289dc2720a7bbedb8f8,64e63663dbcaf322d2eec8da,64e70360d7ca356bf54da705,,,,,,,decisionTrl,resources/DR.BMP,resources/DBN.BMP,Door1,0.401041667,-0.040364583,1,0,0,1.765,optionRight,30,11000,5,25,0,25,0,1,,,,,,,,,,,,,,,,,,,,,,,,,,,,,,,,,,,,,,,
,,,,,,,,2023-08-24_08h16.07.803,HF_wild_card,2022.2.4,Win32,74.96251874,62966289dc2720a7bbedb8f8,64e63663dbcaf322d2eec8da,64e70360d7ca356bf54da705,,,,,,,sngl,resources/DBN.BMP,resources/Empty.png,Door1,-0.37890625,-0.001302083,1,0,0,1.26,optionLeft,30,11030,5,26,0,26,0,1,,,,,,,,,,,,,,,,,,,,,,,,,,,,,,,,,,,,,,,
,,,,,,,,2023-08-24_08h16.07.803,HF_wild_card,2022.2.4,Win32,74.96251874,62966289dc2720a7bbedb8f8,64e63663dbcaf322d2eec8da,64e70360d7ca356bf54da705,,,,,,,decisionTrl,resources/DP.BMP,resources/DG.BMP,Door4,-0.384114583,-0.049479167,1,0,0,1.569,optionLeft,60,11090,5,27,0,27,0,1,,,,,,,,,,,,,,,,,,,,,,,,,,,,,,,,,,,,,,,
,,,,,,,,2023-08-24_08h16.07.803,HF_wild_card,2022.2.4,Win32,74.96251874,62966289dc2720a7bbedb8f8,64e63663dbcaf322d2eec8da,64e70360d7ca356bf54da705,,,,,,,decisionTrl,resources/DG.BMP,resources/DP.BMP,Door4,0.407552083,-0.03125,1,0,0,1.7,optionRight,60,11150,5,28,0,28,0,1,,,,,,,,,,,,,,,,,,,,,,,,,,,,,,,,,,,,,,,
,,,,,,,,2023-08-24_08h16.07.803,HF_wild_card,2022.2.4,Win32,74.96251874,62966289dc2720a7bbedb8f8,64e63663dbcaf322d2eec8da,64e70360d7ca356bf54da705,,,,,,,decisionTrl,resources/DY.BMP,resources/DR.BMP,Door2,0.34765625,-0.016927083,1,0,0,1.713,optionRight,40,11190,5,29,0,29,0,1,,,,,,,,,,,,,,,,,,,,,,,,,,,,,,,,,,,,,,,
,,,,,,,,2023-08-24_08h16.07.803,HF_wild_card,2022.2.4,Win32,74.96251874,62966289dc2720a7bbedb8f8,64e63663dbcaf322d2eec8da,64e70360d7ca356bf54da705,,,,,,,decisionTrl,resources/DY.BMP,resources/DP.BMP,Door4,0.38671875,-0.024739583,1,0,0,1.286,optionRight,80,11270,5,30,0,30,0,1,,,,,,,,,,,,,,,,,,,,,,,,,,,,,,,,,,,,,,,
,,,,,,,,2023-08-24_08h16.07.803,HF_wild_card,2022.2.4,Win32,74.96251874,62966289dc2720a7bbedb8f8,64e63663dbcaf322d2eec8da,64e70360d7ca356bf54da705,,,,,,,sngl,resources/Empty.png,resources/DR.BMP,Door2,0.282552083,-0.01953125,1,0,0,1.217,optionRight,20,11290,5,31,0,31,0,1,,,,,,,,,,,,,,,,,,,,,,,,,,,,,,,,,,,,,,,
,,,,,,,,2023-08-24_08h16.07.803,HF_wild_card,2022.2.4,Win32,74.96251874,62966289dc2720a7bbedb8f8,64e63663dbcaf322d2eec8da,64e70360d7ca356bf54da705,,,,,,,decisionTrl,resources/DBN.BMP,resources/DR.BMP,Door1,-0.341145833,-0.00390625,1,0,0,1.699,optionLeft,30,11320,5,32,0,32,0,1,,,,,,,,,,,,,,,,,,,,,,,,,,,,,,,,,,,,,,,
,,,,,,,,2023-08-24_08h16.07.803,HF_wild_card,2022.2.4,Win32,74.96251874,62966289dc2720a7bbedb8f8,64e63663dbcaf322d2eec8da,64e70360d7ca356bf54da705,,,,,,,decisionTrl,resources/DBN.BMP,resources/DR.BMP,Door1,-0.329427083,-0.02734375,1,0,0,1.632,optionLeft,30,11350,5,33,0,33,0,1,,,,,,,,,,,,,,,,,,,,,,,,,,,,,,,,,,,,,,,
,,,,,,,,2023-08-24_08h16.07.803,HF_wild_card,2022.2.4,Win32,74.96251874,62966289dc2720a7bbedb8f8,64e63663dbcaf322d2eec8da,64e70360d7ca356bf54da705,,,,,,,decisionTrl,resources/DBN.BMP,resources/DY.BMP,Door1,-0.356770833,-0.002604167,1,0,0,1.7,optionLeft,30,11380,5,34,0,34,0,1,,,,,,,,,,,,,,,,,,,,,,,,,,,,,,,,,,,,,,,
,,,,,,,,2023-08-24_08h16.07.803,HF_wild_card,2022.2.4,Win32,74.96251874,62966289dc2720a7bbedb8f8,64e63663dbcaf322d2eec8da,64e70360d7ca356bf54da705,,,,,,,ctch,resources/DG.BMP,resources/DR.BMP,Door3,-0.341145833,-0.0234375,1,0,0,1.633,optionLeft,70,11450,5,35,0,35,0,1,,,,,,,,,,,,,,,,,,,,,,,,,,,,,,,,,,,,,,,
,,,,,,,,2023-08-24_08h16.07.803,HF_wild_card,2022.2.4,Win32,74.96251874,62966289dc2720a7bbedb8f8,64e63663dbcaf322d2eec8da,64e70360d7ca356bf54da705,,,,,,,decisionTrl,resources/DR.BMP,resources/DBN.BMP,Door1,0.364583333,-0.028645833,1,0,0,1.606,optionRight,30,11480,5,36,0,36,0,1,,,,,,,,,,,,,,,,,,,,,,,,,,,,,,,,,,,,,,,
,,,,,,,,2023-08-24_08h16.07.803,HF_wild_card,2022.2.4,Win32,74.96251874,62966289dc2720a7bbedb8f8,64e63663dbcaf322d2eec8da,64e70360d7ca356bf54da705,,,,,,,ctch,resources/DBN.BMP,resources/DP.BMP,Door4,0.39453125,-0.055989583,1,0,0,1.169,optionRight,60,11540,5,37,0,37,0,1,,,,,,,,,,,,,,,,,,,,,,,,,,,,,,,,,,,,,,,
,,,,,,,,2023-08-24_08h16.07.803,HF_wild_card,2022.2.4,Win32,74.96251874,62966289dc2720a7bbedb8f8,64e63663dbcaf322d2eec8da,64e70360d7ca356bf54da705,,,,,,,sngl,resources/Empty.png,resources/DP.BMP,Door4,0.390625,0.002604167,1,0,0,1.303,optionRight,60,11600,5,38,0,38,0,1,,,,,,,,,,,,,,,,,,,,,,,,,,,,,,,,,,,,,,,
,,,,,,,,2023-08-24_08h16.07.803,HF_wild_card,2022.2.4,Win32,74.96251874,62966289dc2720a7bbedb8f8,64e63663dbcaf322d2eec8da,64e70360d7ca356bf54da705,,,,,,,decisionTrl,resources/DY.BMP,resources/DG.BMP,Door3,0.395833333,-0.024739583,1,0,0,2.156,optionRight,70,11670,5,39,0,39,0,1,,,,,,,,,,,,,,,,,,,,,,,,,,,,,,,,,,,,,,,
,,,,,,,,2023-08-24_08h16.07.803,HF_wild_card,2022.2.4,Win32,74.96251874,62966289dc2720a7bbedb8f8,64e63663dbcaf322d2eec8da,64e70360d7ca356bf54da705,,,,,,,decisionTrl,resources/DR.BMP,resources/DBN.BMP,Door1,0.380208333,0.002604167,1,0,0,1.82,optionRight,30,11700,5,40,0,40,0,1,,,,,,,,,,,,,,,,,,,,,,,,,,,,,,,,,,,,,,,
,,,,,,,,2023-08-24_08h16.07.803,HF_wild_card,2022.2.4,Win32,74.96251874,62966289dc2720a7bbedb8f8,64e63663dbcaf322d2eec8da,64e70360d7ca356bf54da705,,,,,,,sngl,resources/DR.BMP,resources/Empty.png,Door2,-0.391927083,-0.045572917,1,0,0,1.794,optionLeft,40,11740,5,41,0,41,0,1,,,,,,,,,,,,,,,,,,,,,,,,,,,,,,,,,,,,,,,
,,,,,,,,2023-08-24_08h16.07.803,HF_wild_card,2022.2.4,Win32,74.96251874,62966289dc2720a7bbedb8f8,64e63663dbcaf322d2eec8da,64e70360d7ca356bf54da705,,,,,,,decisionTrl,resources/DG.BMP,resources/DP.BMP,Door4,0.358072917,-0.01171875,1,0,0,1.553,optionRight,80,11820,5,42,0,42,0,1,,,,,,,,,,,,,,,,,,,,,,,,,,,,,,,,,,,,,,,
,,,,,,,,2023-08-24_08h16.07.803,HF_wild_card,2022.2.4,Win32,74.96251874,62966289dc2720a7bbedb8f8,64e63663dbcaf322d2eec8da,64e70360d7ca356bf54da705,,,,,,,sngl,resources/DP.BMP,resources/Empty.png,Door4,-0.389322917,-0.0390625,1,0,0,1.566,optionLeft,80,11900,5,43,0,43,0,1,,,,,,,,,,,,,,,,,,,,,,,,,,,,,,,,,,,,,,,
,,,,,,,,2023-08-24_08h16.07.803,HF_wild_card,2022.2.4,Win32,74.96251874,62966289dc2720a7bbedb8f8,64e63663dbcaf322d2eec8da,64e70360d7ca356bf54da705,,,,,,,,,,,,,,,,,,,,,,,,,,4,0,4,0,1,,,,,,,,,,,,,,,,,,,,,,,,,,,,,,,,,,
,,,,,,,,2023-08-24_08h16.07.803,HF_wild_card,2022.2.4,Win32,74.96251874,62966289dc2720a7bbedb8f8,64e63663dbcaf322d2eec8da,64e70360d7ca356bf54da705,,,,,,,sngl,resources/DY.BMP,resources/Empty.png,WildCard_Ex,-0.3671875,-0.028645833,1,0,0,1.469,optionLeft,5,11905,6,0,0,0,0,1,,,,,,,,,,,,,,,,,,,,,,,,,,,,,,,,,,,,,,,
,,,,,,,,2023-08-24_08h16.07.803,HF_wild_card,2022.2.4,Win32,74.96251874,62966289dc2720a7bbedb8f8,64e63663dbcaf322d2eec8da,64e70360d7ca356bf54da705,,,,,,,sngl,resources/DR.BMP,resources/Empty.png,Door2,-0.397135417,-0.02734375,1,0,0,1.224,optionLeft,20,11925,6,1,0,1,0,1,,,,,,,,,,,,,,,,,,,,,,,,,,,,,,,,,,,,,,,
,,,,,,,,2023-08-24_08h16.07.803,HF_wild_card,2022.2.4,Win32,74.96251874,62966289dc2720a7bbedb8f8,64e63663dbcaf322d2eec8da,64e70360d7ca356bf54da705,,,,,,,decisionTrl,resources/DY.BMP,resources/DG.BMP,Door3,0.380208333,-0.013020833,1,0,0,1.672,optionRight,70,11995,6,2,0,2,0,1,,,,,,,,,,,,,,,,,,,,,,,,,,,,,,,,,,,,,,,
,,,,,,,,2023-08-24_08h16.07.803,HF_wild_card,2022.2.4,Win32,74.96251874,62966289dc2720a7bbedb8f8,64e63663dbcaf322d2eec8da,64e70360d7ca356bf54da705,,,,,,,decisionTrl,resources/DG.BMP,resources/DP.BMP,Door4,0.372395833,-0.015625,1,0,0,1.672,optionRight,80,12075,6,3,0,3,0,1,,,,,,,,,,,,,,,,,,,,,,,,,,,,,,,,,,,,,,,
,,,,,,,,2023-08-24_08h16.07.803,HF_wild_card,2022.2.4,Win32,74.96251874,62966289dc2720a7bbedb8f8,64e63663dbcaf322d2eec8da,64e70360d7ca356bf54da705,,,,,,,sngl,resources/Empty.png,resources/DG.BMP,Door3,0.403645833,-0.001302083,1,0,0,1.26,optionRight,70,12145,6,4,0,4,0,1,,,,,,,,,,,,,,,,,,,,,,,,,,,,,,,,,,,,,,,
,,,,,,,,2023-08-24_08h16.07.803,HF_wild_card,2022.2.4,Win32,74.96251874,62966289dc2720a7bbedb8f8,64e63663dbcaf322d2eec8da,64e70360d7ca356bf54da705,,,,,,,sngl,resources/DBN.BMP,resources/Empty.png,Door1,-0.38671875,-0.002604167,1,0,0,1.274,optionLeft,30,12175,6,5,0,5,0,1,,,,,,,,,,,,,,,,,,,,,,,,,,,,,,,,,,,,,,,
,,,,,,,,2023-08-24_08h16.07.803,HF_wild_card,2022.2.4,Win32,74.96251874,62966289dc2720a7bbedb8f8,64e63663dbcaf322d2eec8da,64e70360d7ca356bf54da705,,,,,,,decisionTrl,resources/DP.BMP,resources/DG.BMP,Door4,-0.37109375,-0.063802083,1,0,0,1.393,optionLeft,60,12235,6,6,0,6,0,1,,,,,,,,,,,,,,,,,,,,,,,,,,,,,,,,,,,,,,,
,,,,,,,,2023-08-24_08h16.07.803,HF_wild_card,2022.2.4,Win32,74.96251874,62966289dc2720a7bbedb8f8,64e63663dbcaf322d2eec8da,64e70360d7ca356bf54da705,,,,,,,decisionTrl,resources/DY.BMP,resources/DBN.BMP,Door1,0.369791667,-0.014322917,1,0,0,1.347,optionRight,30,12265,6,7,0,7,0,1,,,,,,,,,,,,,,,,,,,,,,,,,,,,,,,,,,,,,,,
,,,,,,,,2023-08-24_08h16.07.803,HF_wild_card,2022.2.4,Win32,74.96251874,62966289dc2720a7bbedb8f8,64e63663dbcaf322d2eec8da,64e70360d7ca356bf54da705,,,,,,,decisionTrl,resources/DR.BMP,resources/DBN.BMP,Door1,0.356770833,0.001302083,1,0,0,1.794,optionRight,30,12295,6,8,0,8,0,1,,,,,,,,,,,,,,,,,,,,,,,,,,,,,,,,,,,,,,,
,,,,,,,,2023-08-24_08h16.07.803,HF_wild_card,2022.2.4,Win32,74.96251874,62966289dc2720a7bbedb8f8,64e63663dbcaf322d2eec8da,64e70360d7ca356bf54da705,,,,,,,sngl,resources/Empty.png,resources/DY.BMP,WildCard_Ex,0.368489583,-0.005208333,1,0,0,1.395,optionRight,5,12300,6,9,0,9,0,1,,,,,,,,,,,,,,,,,,,,,,,,,,,,,,,,,,,,,,,
,,,,,,,,2023-08-24_08h16.07.803,HF_wild_card,2022.2.4,Win32,74.96251874,62966289dc2720a7bbedb8f8,64e63663dbcaf322d2eec8da,64e70360d7ca356bf54da705,,,,,,,decisionTrl,resources/DBN.BMP,resources/DR.BMP,Door1,-0.365885417,-0.015625,1,0,0,1.641,optionLeft,30,12330,6,10,0,10,0,1,,,,,,,,,,,,,,,,,,,,,,,,,,,,,,,,,,,,,,,
,,,,,,,,2023-08-24_08h16.07.803,HF_wild_card,2022.2.4,Win32,74.96251874,62966289dc2720a7bbedb8f8,64e63663dbcaf322d2eec8da,64e70360d7ca356bf54da705,,,,,,,decisionTrl,resources/DBN.BMP,resources/DR.BMP,Door1,-0.3671875,0.00390625,1,0,0,1.674,optionLeft,30,12360,6,11,0,11,0,1,,,,,,,,,,,,,,,,,,,,,,,,,,,,,,,,,,,,,,,
,,,,,,,,2023-08-24_08h16.07.803,HF_wild_card,2022.2.4,Win32,74.96251874,62966289dc2720a7bbedb8f8,64e63663dbcaf322d2eec8da,64e70360d7ca356bf54da705,,,,,,,ctch,resources/DR.BMP,resources/DG.BMP,Door3,0.38671875,-0.013020833,1,0,0,1.621,optionRight,70,12430,6,12,0,12,0,1,,,,,,,,,,,,,,,,,,,,,,,,,,,,,,,,,,,,,,,
,,,,,,,,2023-08-24_08h16.07.803,HF_wild_card,2022.2.4,Win32,74.96251874,62966289dc2720a7bbedb8f8,64e63663dbcaf322d2eec8da,64e70360d7ca356bf54da705,,,,,,,decisionTrl,resources/DR.BMP,resources/DY.BMP,Door2,-0.3515625,-0.024739583,1,0,0,1.609,optionLeft,20,12450,6,13,0,13,0,1,,,,,,,,,,,,,,,,,,,,,,,,,,,,,,,,,,,,,,,
,,,,,,,,2023-08-24_08h16.07.803,HF_wild_card,2022.2.4,Win32,74.96251874,62966289dc2720a7bbedb8f8,64e63663dbcaf322d2eec8da,64e70360d7ca356bf54da705,,,,,,,sngl,resources/Empty.png,resources/DR.BMP,Door2,0.358072917,-0.002604167,1,0,0,2.354,optionRight,40,12490,6,14,0,14,0,1,,,,,,,,,,,,,,,,,,,,,,,,,,,,,,,,,,,,,,,
,,,,,,,,2023-08-24_08h16.07.803,HF_wild_card,2022.2.4,Win32,74.96251874,62966289dc2720a7bbedb8f8,64e63663dbcaf322d2eec8da,64e70360d7ca356bf54da705,,,,,,,decisionTrl,resources/DR.BMP,resources/DBN.BMP,Door2,-0.393229167,-0.048177083,1,0,0,1.927,optionLeft,40,12530,6,15,0,15,0,1,,,,,,,,,,,,,,,,,,,,,,,,,,,,,,,,,,,,,,,
,,,,,,,,2023-08-24_08h16.07.803,HF_wild_card,2022.2.4,Win32,74.96251874,62966289dc2720a7bbedb8f8,64e63663dbcaf322d2eec8da,64e70360d7ca356bf54da705,,,,,,,decisionTrl,resources/DBN.BMP,resources/DR.BMP,Door2,0.389322917,-0.06640625,1,0,0,1.419,optionRight,40,12570,6,16,0,16,0,1,,,,,,,,,,,,,,,,,,,,,,,,,,,,,,,,,,,,,,,
,,,,,,,,2023-08-24_08h16.07.803,HF_wild_card,2022.2.4,Win32,74.96251874,62966289dc2720a7bbedb8f8,64e63663dbcaf322d2eec8da,64e70360d7ca356bf54da705,,,,,,,ctch,resources/DG.BMP,resources/DR.BMP,Door3,-0.354166667,-0.018229167,1,0,0,1.395,optionLeft,70,12640,6,17,0,17,0,1,,,,,,,,,,,,,,,,,,,,,,,,,,,,,,,,,,,,,,,
,,,,,,,,2023-08-24_08h16.07.803,HF_wild_card,2022.2.4,Win32,74.96251874,62966289dc2720a7bbedb8f8,64e63663dbcaf322d2eec8da,64e70360d7ca356bf54da705,,,,,,,ctch,resources/DR.BMP,resources/DG.BMP,Door3,0.389322917,-0.091145833,1,0,0,1.588,optionRight,70,12710,6,18,0,18,0,1,,,,,,,,,,,,,,,,,,,,,,,,,,,,,,,,,,,,,,,
,,,,,,,,2023-08-24_08h16.07.803,HF_wild_card,2022.2.4,Win32,74.96251874,62966289dc2720a7bbedb8f8,64e63663dbcaf322d2eec8da,64e70360d7ca356bf54da705,,,,,,,decisionTrl,resources/DP.BMP,resources/DY.BMP,Door4,-0.369791667,-0.032552083,1,0,0,1.377,optionLeft,60,12770,6,19,0,19,0,1,,,,,,,,,,,,,,,,,,,,,,,,,,,,,,,,,,,,,,,
,,,,,,,,2023-08-24_08h16.07.803,HF_wild_card,2022.2.4,Win32,74.96251874,62966289dc2720a7bbedb8f8,64e63663dbcaf322d2eec8da,64e70360d7ca356bf54da705,,,,,,,sngl,resources/DY.BMP,resources/Empty.png,WildCard_Ex,-0.338541667,-0.013020833,1,0,0,1.114,optionLeft,95,12865,6,20,0,20,0,1,,,,,,,,,,,,,,,,,,,,,,,,,,,,,,,,,,,,,,,
,,,,,,,,2023-08-24_08h16.07.803,HF_wild_card,2022.2.4,Win32,74.96251874,62966289dc2720a7bbedb8f8,64e63663dbcaf322d2eec8da,64e70360d7ca356bf54da705,,,,,,,ctch,resources/DBN.BMP,resources/DP.BMP,Door4,0.375,-0.049479167,1,0,0,1.884,optionRight,60,12925,6,21,0,21,0,1,,,,,,,,,,,,,,,,,,,,,,,,,,,,,,,,,,,,,,,
,,,,,,,,2023-08-24_08h16.07.803,HF_wild_card,2022.2.4,Win32,74.96251874,62966289dc2720a7bbedb8f8,64e63663dbcaf322d2eec8da,64e70360d7ca356bf54da705,,,,,,,decisionTrl,resources/DR.BMP,resources/DBN.BMP,Door2,-0.346354167,-0.05859375,1,0,0,1.459,optionLeft,20,12945,6,22,0,22,0,1,,,,,,,,,,,,,,,,,,,,,,,,,,,,,,,,,,,,,,,
,,,,,,,,2023-08-24_08h16.07.803,HF_wild_card,2022.2.4,Win32,74.96251874,62966289dc2720a7bbedb8f8,64e63663dbcaf322d2eec8da,64e70360d7ca356bf54da705,,,,,,,decisionTrl,resources/DG.BMP,resources/DP.BMP,Door4,0.395833333,-0.045572917,1,0,0,1.791,optionRight,60,13005,6,23,0,23,0,1,,,,,,,,,,,,,,,,,,,,,,,,,,,,,,,,,,,,,,,
,,,,,,,,2023-08-24_08h16.07.803,HF_wild_card,2022.2.4,Win32,74.96251874,62966289dc2720a7bbedb8f8,64e63663dbcaf322d2eec8da,64e70360d7ca356bf54da705,,,,,,,decisionTrl,resources/DP.BMP,resources/DG.BMP,Door4,-0.403645833,-0.032552083,1,0,0,2.167,optionLeft,80,13085,6,24,0,24,0,1,,,,,,,,,,,,,,,,,,,,,,,,,,,,,,,,,,,,,,,
,,,,,,,,2023-08-24_08h16.07.803,HF_wild_card,2022.2.4,Win32,74.96251874,62966289dc2720a7bbedb8f8,64e63663dbcaf322d2eec8da,64e70360d7ca356bf54da705,,,,,,,decisionTrl,resources/DR.BMP,resources/DBN.BMP,Door1,0.34765625,-0.01953125,1,0,0,1.619,optionRight,30,13115,6,25,0,25,0,1,,,,,,,,,,,,,,,,,,,,,,,,,,,,,,,,,,,,,,,
,,,,,,,,2023-08-24_08h16.07.803,HF_wild_card,2022.2.4,Win32,74.96251874,62966289dc2720a7bbedb8f8,64e63663dbcaf322d2eec8da,64e70360d7ca356bf54da705,,,,,,,sngl,resources/DG.BMP,resources/Empty.png,Door3,-0.380208333,-0.01171875,1,0,0,1.776,optionLeft,70,13185,6,26,0,26,0,1,,,,,,,,,,,,,,,,,,,,,,,,,,,,,,,,,,,,,,,
,,,,,,,,2023-08-24_08h16.07.803,HF_wild_card,2022.2.4,Win32,74.96251874,62966289dc2720a7bbedb8f8,64e63663dbcaf322d2eec8da,64e70360d7ca356bf54da705,,,,,,,decisionTrl,resources/DG.BMP,resources/DP.BMP,Door4,0.403645833,-0.05078125,1,0,0,2.07,optionRight,60,13245,6,27,0,27,0,1,,,,,,,,,,,,,,,,,,,,,,,,,,,,,,,,,,,,,,,
,,,,,,,,2023-08-24_08h16.07.803,HF_wild_card,2022.2.4,Win32,74.96251874,62966289dc2720a7bbedb8f8,64e63663dbcaf322d2eec8da,64e70360d7ca356bf54da705,,,,,,,decisionTrl,resources/DBN.BMP,resources/DY.BMP,Door1,-0.337239583,-0.01953125,1,0,0,1.419,optionLeft,30,13275,6,28,0,28,0,1,,,,,,,,,,,,,,,,,,,,,,,,,,,,,,,,,,,,,,,
,,,,,,,,2023-08-24_08h16.07.803,HF_wild_card,2022.2.4,Win32,74.96251874,62966289dc2720a7bbedb8f8,64e63663dbcaf322d2eec8da,64e70360d7ca356bf54da705,,,,,,,decisionTrl,resources/DY.BMP,resources/DR.BMP,Door2,0.393229167,-0.041666667,1,0,0,1.513,optionRight,20,13295,6,29,0,29,0,1,,,,,,,,,,,,,,,,,,,,,,,,,,,,,,,,,,,,,,,
,,,,,,,,2023-08-24_08h16.07.803,HF_wild_card,2022.2.4,Win32,74.96251874,62966289dc2720a7bbedb8f8,64e63663dbcaf322d2eec8da,64e70360d7ca356bf54da705,,,,,,,decisionTrl,resources/DY.BMP,resources/DP.BMP,Door4,0.37890625,-0.020833333,1,0,0,1.432,optionRight,80,13375,6,30,0,30,0,1,,,,,,,,,,,,,,,,,,,,,,,,,,,,,,,,,,,,,,,
,,,,,,,,2023-08-24_08h16.07.803,HF_wild_card,2022.2.4,Win32,74.96251874,62966289dc2720a7bbedb8f8,64e63663dbcaf322d2eec8da,64e70360d7ca356bf54da705,,,,,,,decisionTrl,resources/DG.BMP,resources/DY.BMP,Door3,-0.403645833,-0.01171875,1,0,0,1.446,optionLeft,70,13445,6,31,0,31,0,1,,,,,,,,,,,,,,,,,,,,,,,,,,,,,,,,,,,,,,,
,,,,,,,,2023-08-24_08h16.07.803,HF_wild_card,2022.2.4,Win32,74.96251874,62966289dc2720a7bbedb8f8,64e63663dbcaf322d2eec8da,64e70360d7ca356bf54da705,,,,,,,sngl,resources/DP.BMP,resources/Empty.png,Door4,-0.395833333,-0.015625,1,0,0,1.541,optionLeft,60,13505,6,32,0,32,0,1,,,,,,,,,,,,,,,,,,,,,,,,,,,,,,,,,,,,,,,
,,,,,,,,2023-08-24_08h16.07.803,HF_wild_card,2022.2.4,Win32,74.96251874,62966289dc2720a7bbedb8f8,64e63663dbcaf322d2eec8da,64e70360d7ca356bf54da705,,,,,,,sngl,resources/Empty.png,resources/DBN.BMP,Door1,0.376302083,-0.002604167,1,0,0,1.74,optionRight,30,13535,6,33,0,33,0,1,,,,,,,,,,,,,,,,,,,,,,,,,,,,,,,,,,,,,,,
,,,,,,,,2023-08-24_08h16.07.803,HF_wild_card,2022.2.4,Win32,74.96251874,62966289dc2720a7bbedb8f8,64e63663dbcaf322d2eec8da,64e70360d7ca356bf54da705,,,,,,,ctch,resources/DG.BMP,resources/DR.BMP,Door3,-0.359375,-0.032552083,1,0,0,1.794,optionLeft,70,13605,6,34,0,34,0,1,,,,,,,,,,,,,,,,,,,,,,,,,,,,,,,,,,,,,,,
,,,,,,,,2023-08-24_08h16.07.803,HF_wild_card,2022.2.4,Win32,74.96251874,62966289dc2720a7bbedb8f8,64e63663dbcaf322d2eec8da,64e70360d7ca356bf54da705,,,,,,,sngl,resources/Empty.png,resources/DP.BMP,Door4,0.390625,-0.044270833,1,0,0,2.03,optionRight,80,13685,6,35,0,35,0,1,,,,,,,,,,,,,,,,,,,,,,,,,,,,,,,,,,,,,,,
,,,,,,,,2023-08-24_08h16.07.803,HF_wild_card,2022.2.4,Win32,74.96251874,62966289dc2720a7bbedb8f8,64e63663dbcaf322d2eec8da,64e70360d7ca356bf54da705,,,,,,,ctch,resources/DBN.BMP,resources/DP.BMP,Door4,0.37109375,-0.0703125,1,0,0,1.487,optionRight,60,13745,6,36,0,36,0,1,,,,,,,,,,,,,,,,,,,,,,,,,,,,,,,,,,,,,,,
,,,,,,,,2023-08-24_08h16.07.803,HF_wild_card,2022.2.4,Win32,74.96251874,62966289dc2720a7bbedb8f8,64e63663dbcaf322d2eec8da,64e70360d7ca356bf54da705,,,,,,,decisionTrl,resources/DBN.BMP,resources/DR.BMP,Door1,-0.364583333,-0.0390625,1,0,0,1.913,optionLeft,30,13775,6,37,0,37,0,1,,,,,,,,,,,,,,,,,,,,,,,,,,,,,,,,,,,,,,,
,,,,,,,,2023-08-24_08h16.07.803,HF_wild_card,2022.2.4,Win32,74.96251874,62966289dc2720a7bbedb8f8,64e63663dbcaf322d2eec8da,64e70360d7ca356bf54da705,,,,,,,sngl,resources/Empty.png,resources/DY.BMP,WildCard_Ex,0.415364583,-0.049479167,1,0,0,1.205,optionRight,95,13870,6,38,0,38,0,1,,,,,,,,,,,,,,,,,,,,,,,,,,,,,,,,,,,,,,,
,,,,,,,,2023-08-24_08h16.07.803,HF_wild_card,2022.2.4,Win32,74.96251874,62966289dc2720a7bbedb8f8,64e63663dbcaf322d2eec8da,64e70360d7ca356bf54da705,,,,,,,decisionTrl,resources/DG.BMP,resources/DP.BMP,Door4,0.393229167,-0.052083333,1,0,0,1.701,optionRight,80,13950,6,39,0,39,0,1,,,,,,,,,,,,,,,,,,,,,,,,,,,,,,,,,,,,,,,
,,,,,,,,2023-08-24_08h16.07.803,HF_wild_card,2022.2.4,Win32,74.96251874,62966289dc2720a7bbedb8f8,64e63663dbcaf322d2eec8da,64e70360d7ca356bf54da705,,,,,,,ctch,resources/DP.BMP,resources/DBN.BMP,Door4,-0.403645833,-0.0390625,1,0,0,1.539,optionLeft,60,14010,6,40,0,40,0,1,,,,,,,,,,,,,,,,,,,,,,,,,,,,,,,,,,,,,,,
,,,,,,,,2023-08-24_08h16.07.803,HF_wild_card,2022.2.4,Win32,74.96251874,62966289dc2720a7bbedb8f8,64e63663dbcaf322d2eec8da,64e70360d7ca356bf54da705,,,,,,,decisionTrl,resources/DP.BMP,resources/DG.BMP,Door4,-0.38671875,-0.028645833,1,0,0,1.3,optionLeft,80,14090,6,41,0,41,0,1,,,,,,,,,,,,,,,,,,,,,,,,,,,,,,,,,,,,,,,
,,,,,,,,2023-08-24_08h16.07.803,HF_wild_card,2022.2.4,Win32,74.96251874,62966289dc2720a7bbedb8f8,64e63663dbcaf322d2eec8da,64e70360d7ca356bf54da705,,,,,,,ctch,resources/DP.BMP,resources/DBN.BMP,Door4,-0.38671875,-0.063802083,1,0,0,4.633,optionLeft,60,14150,6,42,0,42,0,1,,,,,,,,,,,,,,,,,,,,,,,,,,,,,,,,,,,,,,,
,,,,,,,,2023-08-24_08h16.07.803,HF_wild_card,2022.2.4,Win32,74.96251874,62966289dc2720a7bbedb8f8,64e63663dbcaf322d2eec8da,64e70360d7ca356bf54da705,,,,,,,decisionTrl,resources/DP.BMP,resources/DG.BMP,Door4,-0.39453125,-0.065104167,1,0,0,1.11,optionLeft,60,14210,6,43,0,43,0,1,,,,,,,,,,,,,,,,,,,,,,,,,,,,,,,,,,,,,,,
,,,,,,,,2023-08-24_08h16.07.803,HF_wild_card,2022.2.4,Win32,74.96251874,62966289dc2720a7bbedb8f8,64e63663dbcaf322d2eec8da,64e70360d7ca356bf54da705,,,,,,,,,,,,,,,,,,,,,,,,,,5,0,5,0,1,,,,,,,,,,,,,,,,,,,,,,,,,,,,,,,,,,
,,,,,,,,2023-08-24_08h16.07.803,HF_wild_card,2022.2.4,Win32,74.96251874,62966289dc2720a7bbedb8f8,64e63663dbcaf322d2eec8da,64e70360d7ca356bf54da705,,,,,,,decisionTrl,resources/DR.BMP,resources/DBN.BMP,Door1,0.393229167,-0.015625,1,0,0,1.507,optionRight,30,14240,7,0,0,0,0,1,,,,,,,,,,,,,,,,,,,,,,,,,,,,,,,,,,,,,,,
,,,,,,,,2023-08-24_08h16.07.803,HF_wild_card,2022.2.4,Win32,74.96251874,62966289dc2720a7bbedb8f8,64e63663dbcaf322d2eec8da,64e70360d7ca356bf54da705,,,,,,,ctch,resources/DG.BMP,resources/DR.BMP,Door3,-0.385416667,-0.018229167,1,0,0,1.875,optionLeft,70,14310,7,1,0,1,0,1,,,,,,,,,,,,,,,,,,,,,,,,,,,,,,,,,,,,,,,
,,,,,,,,2023-08-24_08h16.07.803,HF_wild_card,2022.2.4,Win32,74.96251874,62966289dc2720a7bbedb8f8,64e63663dbcaf322d2eec8da,64e70360d7ca356bf54da705,,,,,,,decisionTrl,resources/DP.BMP,resources/DG.BMP,Door4,-0.40234375,-0.059895833,1,0,0,1.471,optionLeft,80,14390,7,2,0,2,0,1,,,,,,,,,,,,,,,,,,,,,,,,,,,,,,,,,,,,,,,
,,,,,,,,2023-08-24_08h16.07.803,HF_wild_card,2022.2.4,Win32,74.96251874,62966289dc2720a7bbedb8f8,64e63663dbcaf322d2eec8da,64e70360d7ca356bf54da705,,,,,,,decisionTrl,resources/DG.BMP,resources/DP.BMP,Door4,0.381510417,-0.01953125,1,0,0,1.725,optionRight,60,14450,7,3,0,3,0,1,,,,,,,,,,,,,,,,,,,,,,,,,,,,,,,,,,,,,,,
,,,,,,,,2023-08-24_08h16.07.803,HF_wild_card,2022.2.4,Win32,74.96251874,62966289dc2720a7bbedb8f8,64e63663dbcaf322d2eec8da,64e70360d7ca356bf54da705,,,,,,,decisionTrl,resources/DR.BMP,resources/DBN.BMP,Door1,0.364583333,0.00390625,1,0,0,1.567,optionRight,30,14480,7,4,0,4,0,1,,,,,,,,,,,,,,,,,,,,,,,,,,,,,,,,,,,,,,,
,,,,,,,,2023-08-24_08h16.07.803,HF_wild_card,2022.2.4,Win32,74.96251874,62966289dc2720a7bbedb8f8,64e63663dbcaf322d2eec8da,64e70360d7ca356bf54da705,,,,,,,decisionTrl,resources/DBN.BMP,resources/DR.BMP,Door1,-0.33203125,0.006510417,1,0,0,1.622,optionLeft,30,14510,7,5,0,5,0,1,,,,,,,,,,,,,,,,,,,,,,,,,,,,,,,,,,,,,,,
,,,,,,,,2023-08-24_08h16.07.803,HF_wild_card,2022.2.4,Win32,74.96251874,62966289dc2720a7bbedb8f8,64e63663dbcaf322d2eec8da,64e70360d7ca356bf54da705,,,,,,,ctch,resources/DP.BMP,resources/DBN.BMP,Door4,-0.39453125,-0.05859375,1,0,0,2.357,optionLeft,80,14590,7,6,0,6,0,1,,,,,,,,,,,,,,,,,,,,,,,,,,,,,,,,,,,,,,,
,,,,,,,,2023-08-24_08h16.07.803,HF_wild_card,2022.2.4,Win32,74.96251874,62966289dc2720a7bbedb8f8,64e63663dbcaf322d2eec8da,64e70360d7ca356bf54da705,,,,,,,decisionTrl,resources/DG.BMP,resources/DP.BMP,Door4,0.369791667,-0.016927083,1,0,0,1.553,optionRight,60,14650,7,7,0,7,0,1,,,,,,,,,,,,,,,,,,,,,,,,,,,,,,,,,,,,,,,
,,,,,,,,2023-08-24_08h16.07.803,HF_wild_card,2022.2.4,Win32,74.96251874,62966289dc2720a7bbedb8f8,64e63663dbcaf322d2eec8da,64e70360d7ca356bf54da705,,,,,,,ctch,resources/DBN.BMP,resources/DP.BMP,Door4,0.391927083,-0.01953125,1,0,0,1.769,optionRight,60,14710,7,8,0,8,0,1,,,,,,,,,,,,,,,,,,,,,,,,,,,,,,,,,,,,,,,
,,,,,,,,2023-08-24_08h16.07.803,HF_wild_card,2022.2.4,Win32,74.96251874,62966289dc2720a7bbedb8f8,64e63663dbcaf322d2eec8da,64e70360d7ca356bf54da705,,,,,,,decisionTrl,resources/DR.BMP,resources/DBN.BMP,Door1,0.337239583,-0.00390625,1,0,0,1.622,optionRight,30,14740,7,9,0,9,0,1,,,,,,,,,,,,,,,,,,,,,,,,,,,,,,,,,,,,,,,
,,,,,,,,2023-08-24_08h16.07.803,HF_wild_card,2022.2.4,Win32,74.96251874,62966289dc2720a7bbedb8f8,64e63663dbcaf322d2eec8da,64e70360d7ca356bf54da705,,,,,,,decisionTrl,resources/DR.BMP,resources/DBN.BMP,Door1,0.358072917,0.022135417,1,0,0,1.342,optionRight,30,14770,7,10,0,10,0,1,,,,,,,,,,,,,,,,,,,,,,,,,,,,,,,,,,,,,,,
,,,,,,,,2023-08-24_08h16.07.803,HF_wild_card,2022.2.4,Win32,74.96251874,62966289dc2720a7bbedb8f8,64e63663dbcaf322d2eec8da,64e70360d7ca356bf54da705,,,,,,,ctch,resources/DG.BMP,resources/DR.BMP,Door3,-0.391927083,-0.013020833,1,0,0,1.779,optionLeft,70,14840,7,11,0,11,0,1,,,,,,,,,,,,,,,,,,,,,,,,,,,,,,,,,,,,,,,
,,,,,,,,2023-08-24_08h16.07.803,HF_wild_card,2022.2.4,Win32,74.96251874,62966289dc2720a7bbedb8f8,64e63663dbcaf322d2eec8da,64e70360d7ca356bf54da705,,,,,,,decisionTrl,resources/DG.BMP,resources/DP.BMP,Door4,0.40625,-0.046875,1,0,0,2.462,optionRight,80,14920,7,12,0,12,0,1,,,,,,,,,,,,,,,,,,,,,,,,,,,,,,,,,,,,,,,
,,,,,,,,2023-08-24_08h16.07.803,HF_wild_card,2022.2.4,Win32,74.96251874,62966289dc2720a7bbedb8f8,64e63663dbcaf322d2eec8da,64e70360d7ca356bf54da705,,,,,,,decisionTrl,resources/DP.BMP,resources/DG.BMP,Door4,-0.424479167,-0.029947917,1,0,0,1.418,optionLeft,60,14980,7,13,0,13,0,1,,,,,,,,,,,,,,,,,,,,,,,,,,,,,,,,,,,,,,,
,,,,,,,,2023-08-24_08h16.07.803,HF_wild_card,2022.2.4,Win32,74.96251874,62966289dc2720a7bbedb8f8,64e63663dbcaf322d2eec8da,64e70360d7ca356bf54da705,,,,,,,decisionTrl,resources/DR.BMP,resources/DBN.BMP,Door1,0.348958333,-0.016927083,1,0,0,1.582,optionRight,30,15010,7,14,0,14,0,1,,,,,,,,,,,,,,,,,,,,,,,,,,,,,,,,,,,,,,,
,,,,,,,,2023-08-24_08h16.07.803,HF_wild_card,2022.2.4,Win32,74.96251874,62966289dc2720a7bbedb8f8,64e63663dbcaf322d2eec8da,64e70360d7ca356bf54da705,,,,,,,decisionTrl,resources/DBN.BMP,resources/DR.BMP,Door1,-0.350260417,-0.009114583,1,0,0,1.449,optionLeft,30,15040,7,15,0,15,0,1,,,,,,,,,,,,,,,,,,,,,,,,,,,,,,,,,,,,,,,
,,,,,,,,2023-08-24_08h16.07.803,HF_wild_card,2022.2.4,Win32,74.96251874,62966289dc2720a7bbedb8f8,64e63663dbcaf322d2eec8da,64e70360d7ca356bf54da705,,,,,,,ctch,resources/DG.BMP,resources/DR.BMP,Door3,-0.384114583,-0.026041667,1,0,0,2.195,optionLeft,70,15110,7,16,0,16,0,1,,,,,,,,,,,,,,,,,,,,,,,,,,,,,,,,,,,,,,,
,,,,,,,,2023-08-24_08h16.07.803,HF_wild_card,2022.2.4,Win32,74.96251874,62966289dc2720a7bbedb8f8,64e63663dbcaf322d2eec8da,64e70360d7ca356bf54da705,,,,,,,decisionTrl,resources/DP.BMP,resources/DG.BMP,Door4,-0.3984375,-0.049479167,1,0,0,2.206,optionLeft,60,15170,7,17,0,17,0,1,,,,,,,,,,,,,,,,,,,,,,,,,,,,,,,,,,,,,,,
,,,,,,,,2023-08-24_08h16.07.803,HF_wild_card,2022.2.4,Win32,74.96251874,62966289dc2720a7bbedb8f8,64e63663dbcaf322d2eec8da,64e70360d7ca356bf54da705,,,,,,,decisionTrl,resources/DP.BMP,resources/DG.BMP,Door4,-0.3984375,-0.0625,1,0,0,1.437,optionLeft,80,15250,7,18,0,18,0,1,,,,,,,,,,,,,,,,,,,,,,,,,,,,,,,,,,,,,,,
,,,,,,,,2023-08-24_08h16.07.803,HF_wild_card,2022.2.4,Win32,74.96251874,62966289dc2720a7bbedb8f8,64e63663dbcaf322d2eec8da,64e70360d7ca356bf54da705,,,,,,,ctch,resources/DP.BMP,resources/DBN.BMP,Door4,-0.35546875,-0.028645833,1,0,0,1.645,optionLeft,60,15310,7,19,0,19,0,1,,,,,,,,,,,,,,,,,,,,,,,,,,,,,,,,,,,,,,,
,,,,,,,,2023-08-24_08h16.07.803,HF_wild_card,2022.2.4,Win32,74.96251874,62966289dc2720a7bbedb8f8,64e63663dbcaf322d2eec8da,64e70360d7ca356bf54da705,,,,,,,decisionTrl,resources/DBN.BMP,resources/DR.BMP,Door1,-0.352864583,-0.0078125,1,0,0,1.595,optionLeft,30,15340,7,20,0,20,0,1,,,,,,,,,,,,,,,,,,,,,,,,,,,,,,,,,,,,,,,
,,,,,,,,2023-08-24_08h16.07.803,HF_wild_card,2022.2.4,Win32,74.96251874,62966289dc2720a7bbedb8f8,64e63663dbcaf322d2eec8da,64e70360d7ca356bf54da705,,,,,,,decisionTrl,resources/DP.BMP,resources/DG.BMP,Door4,-0.384114583,-0.0390625,1,0,0,1.648,optionLeft,80,15420,7,21,0,21,0,1,,,,,,,,,,,,,,,,,,,,,,,,,,,,,,,,,,,,,,,
,,,,,,,,2023-08-24_08h16.07.803,HF_wild_card,2022.2.4,Win32,74.96251874,62966289dc2720a7bbedb8f8,64e63663dbcaf322d2eec8da,64e70360d7ca356bf54da705,,,,,,,ctch,resources/DR.BMP,resources/DG.BMP,Door3,0.403645833,-0.03125,1,0,0,2.129,optionRight,70,15490,7,22,0,22,0,1,,,,,,,,,,,,,,,,,,,,,,,,,,,,,,,,,,,,,,,
,,,,,,,,2023-08-24_08h16.07.803,HF_wild_card,2022.2.4,Win32,74.96251874,62966289dc2720a7bbedb8f8,64e63663dbcaf322d2eec8da,64e70360d7ca356bf54da705,,,,,,,decisionTrl,resources/DBN.BMP,resources/DR.BMP,Door1,-0.338541667,-0.01171875,1,0,0,1.899,optionLeft,30,15520,7,23,0,23,0,1,,,,,,,,,,,,,,,,,,,,,,,,,,,,,,,,,,,,,,,
,,,,,,,,2023-08-24_08h16.07.803,HF_wild_card,2022.2.4,Win32,74.96251874,62966289dc2720a7bbedb8f8,64e63663dbcaf322d2eec8da,64e70360d7ca356bf54da705,,,,,,,decisionTrl,resources/DP.BMP,resources/DG.BMP,Door4,-0.389322917,-0.04296875,1,0,0,1.275,optionLeft,60,15580,7,24,0,24,0,1,,,,,,,,,,,,,,,,,,,,,,,,,,,,,,,,,,,,,,,
,,,,,,,,2023-08-24_08h16.07.803,HF_wild_card,2022.2.4,Win32,74.96251874,62966289dc2720a7bbedb8f8,64e63663dbcaf322d2eec8da,64e70360d7ca356bf54da705,,,,,,,decisionTrl,resources/DBN.BMP,resources/DR.BMP,Door1,-0.356770833,-0.024739583,1,0,0,1.646,optionLeft,30,15610,7,25,0,25,0,1,,,,,,,,,,,,,,,,,,,,,,,,,,,,,,,,,,,,,,,
,,,,,,,,2023-08-24_08h16.07.803,HF_wild_card,2022.2.4,Win32,74.96251874,62966289dc2720a7bbedb8f8,64e63663dbcaf322d2eec8da,64e70360d7ca356bf54da705,,,,,,,decisionTrl,resources/DG.BMP,resources/DP.BMP,Door4,0.415364583,-0.053385417,1,0,0,1.516,optionRight,80,15690,7,26,0,26,0,1,,,,,,,,,,,,,,,,,,,,,,,,,,,,,,,,,,,,,,,
,,,,,,,,2023-08-24_08h16.07.803,HF_wild_card,2022.2.4,Win32,74.96251874,62966289dc2720a7bbedb8f8,64e63663dbcaf322d2eec8da,64e70360d7ca356bf54da705,,,,,,,ctch,resources/DBN.BMP,resources/DP.BMP,Door4,0.381510417,-0.053385417,1,0,0,1.274,optionRight,60,15750,7,27,0,27,0,1,,,,,,,,,,,,,,,,,,,,,,,,,,,,,,,,,,,,,,,
,,,,,,,,2023-08-24_08h16.07.803,HF_wild_card,2022.2.4,Win32,74.96251874,62966289dc2720a7bbedb8f8,64e63663dbcaf322d2eec8da,64e70360d7ca356bf54da705,,,,,,,ctch,resources/DBN.BMP,resources/DP.BMP,Door4,0.364583333,-0.01953125,1,0,0,1.328,optionRight,80,15830,7,28,0,28,0,1,,,,,,,,,,,,,,,,,,,,,,,,,,,,,,,,,,,,,,,
,,,,,,,,2023-08-24_08h16.07.803,HF_wild_card,2022.2.4,Win32,74.96251874,62966289dc2720a7bbedb8f8,64e63663dbcaf322d2eec8da,64e70360d7ca356bf54da705,,,,,,,decisionTrl,resources/DG.BMP,resources/DP.BMP,Door4,0.356770833,-0.036458333,1,0,0,1.421,optionRight,60,15890,7,29,0,29,0,1,,,,,,,,,,,,,,,,,,,,,,,,,,,,,,,,,,,,,,,
,,,,,,,,2023-08-24_08h16.07.803,HF_wild_card,2022.2.4,Win32,74.96251874,62966289dc2720a7bbedb8f8,64e63663dbcaf322d2eec8da,64e70360d7ca356bf54da705,,,,,,,decisionTrl,resources/DBN.BMP,resources/DR.BMP,Door1,-0.376302083,-0.006510417,1,0,0,1.397,optionLeft,30,15920,7,30,0,30,0,1,,,,,,,,,,,,,,,,,,,,,,,,,,,,,,,,,,,,,,,
,,,,,,,,2023-08-24_08h16.07.803,HF_wild_card,2022.2.4,Win32,74.96251874,62966289dc2720a7bbedb8f8,64e63663dbcaf322d2eec8da,64e70360d7ca356bf54da705,,,,,,,ctch,resources/DR.BMP,resources/DG.BMP,Door3,0.399739583,-0.018229167,1,0,0,1.353,optionRight,70,15990,7,31,0,31,0,1,,,,,,,,,,,,,,,,,,,,,,,,,,,,,,,,,,,,,,,
,,,,,,,,2023-08-24_08h16.07.803,HF_wild_card,2022.2.4,Win32,74.96251874,62966289dc2720a7bbedb8f8,64e63663dbcaf322d2eec8da,64e70360d7ca356bf54da705,,,,,,,decisionTrl,resources/DG.BMP,resources/DP.BMP,Door4,0.388020833,-0.0390625,1,0,0,1.368,optionRight,80,16070,7,32,0,32,0,1,,,,,,,,,,,,,,,,,,,,,,,,,,,,,,,,,,,,,,,
,,,,,,,,2023-08-24_08h16.07.803,HF_wild_card,2022.2.4,Win32,74.96251874,62966289dc2720a7bbedb8f8,64e63663dbcaf322d2eec8da,64e70360d7ca356bf54da705,,,,,,,decisionTrl,resources/DR.BMP,resources/DBN.BMP,Door1,0.40625,0.0078125,1,0,0,1.553,optionRight,30,16100,7,33,0,33,0,1,,,,,,,,,,,,,,,,,,,,,,,,,,,,,,,,,,,,,,,
,,,,,,,,2023-08-24_08h16.07.803,HF_wild_card,2022.2.4,Win32,74.96251874,62966289dc2720a7bbedb8f8,64e63663dbcaf322d2eec8da,64e70360d7ca356bf54da705,,,,,,,ctch,resources/DP.BMP,resources/DBN.BMP,Door4,-0.41015625,-0.036458333,1,0,0,1.757,optionLeft,80,16180,7,34,0,34,0,1,,,,,,,,,,,,,,,,,,,,,,,,,,,,,,,,,,,,,,,
,,,,,,,,2023-08-24_08h16.07.803,HF_wild_card,2022.2.4,Win32,74.96251874,62966289dc2720a7bbedb8f8,64e63663dbcaf322d2eec8da,64e70360d7ca356bf54da705,,,,,,,ctch,resources/DR.BMP,resources/DG.BMP,Door3,0.35546875,-0.002604167,1,0,0,1.331,optionRight,70,16250,7,35,0,35,0,1,,,,,,,,,,,,,,,,,,,,,,,,,,,,,,,,,,,,,,,
,,,,,,,,2023-08-24_08h16.07.803,HF_wild_card,2022.2.4,Win32,74.96251874,62966289dc2720a7bbedb8f8,64e63663dbcaf322d2eec8da,64e70360d7ca356bf54da705,,,,,,,,,,,,,,,,,,,,,,,,,,6,0,6,0,1,,,,,,,,,,,,,,,,,,,,,,,,,,,,,,,,,,
,,,,,,,,2023-08-24_08h16.07.803,HF_wild_card,2022.2.4,Win32,74.96251874,62966289dc2720a7bbedb8f8,64e63663dbcaf322d2eec8da,64e70360d7ca356bf54da705,,,,,,,,,,,,,,,,,,,,,,,,,,,,,,,4,,,,,,,,,,,,,,,,,,,,,,,,,,,,,,,,,
,,,,,,,,2023-08-24_08h16.07.803,HF_wild_card,2022.2.4,Win32,74.96251874,62966289dc2720a7bbedb8f8,64e63663dbcaf322d2eec8da,64e70360d7ca356bf54da705,,,,,,,,,,,,,,,,,,,,,,,,,,,,,,,,,,,,,,,,,,,,,,,,,,,,,,,,,,,,,,,,
,,,,,,,,2023-08-24_08h16.07.803,HF_wild_card,2022.2.4,Win32,74.96251874,62966289dc2720a7bbedb8f8,64e63663dbcaf322d2eec8da,64e70360d7ca356bf54da705,,,,,,,,,,,,,,,,,,,,,,,,,,,,,,,,80,Door4,resources/DP.BMP,0,0,0,0,1,,,,,,,,,,,,,,,,,,,,,,,,,
,,,,,,,,2023-08-24_08h16.07.803,HF_wild_card,2022.2.4,Win32,74.96251874,62966289dc2720a7bbedb8f8,64e63663dbcaf322d2eec8da,64e70360d7ca356bf54da705,,,,,,,,,,,,,,,,,,,,,,,,,,,,,,,,55,WC_nonExtreme,resources/DB.BMP,1,0,1,0,1,,,,,,,,,,,,,,,,,,,,,,,,,
,,,,,,,,2023-08-24_08h16.07.803,HF_wild_card,2022.2.4,Win32,74.96251874,62966289dc2720a7bbedb8f8,64e63663dbcaf322d2eec8da,64e70360d7ca356bf54da705,,,,,,,,,,,,,,,,,,,,,,,,,,,,,,,,70,Door3,resources/DG.BMP,2,0,2,0,1,,,,,,,,,,,,,,,,,,,,,,,,,
,,,,,,,,2023-08-24_08h16.07.803,HF_wild_card,2022.2.4,Win32,74.96251874,62966289dc2720a7bbedb8f8,64e63663dbcaf322d2eec8da,64e70360d7ca356bf54da705,,,,,,,,,,,,,,,,,,,,,,,,,,,,,,,,30,Door1,resources/DBN.BMP,3,0,3,0,1,,,,,,,,,,,,,,,,,,,,,,,,,
,,,,,,,,2023-08-24_08h16.07.803,HF_wild_card,2022.2.4,Win32,74.96251874,62966289dc2720a7bbedb8f8,64e63663dbcaf322d2eec8da,64e70360d7ca356bf54da705,,,,,,,,,,,,,,,,,,,,,,,,,,,,,,,,20,Door2,resources/DR.BMP,4,0,4,0,1,,,,,,,,,,,,,,,,,,,,,,,,,
,,,,,,,,2023-08-24_08h16.07.803,HF_wild_card,2022.2.4,Win32,74.96251874,62966289dc2720a7bbedb8f8,64e63663dbcaf322d2eec8da,64e70360d7ca356bf54da705,,,,,,,,,,,,,,,,,,,,,,,,,,,,,,,,5,WC_extreme,resources/DY.BMP,5,0,5,0,1,,,,,,,,,,,,,,,,,,,,,,,,,
,,,,,,,,2023-08-24_08h16.07.803,HF_wild_card,2022.2.4,Win32,74.96251874,62966289dc2720a7bbedb8f8,64e63663dbcaf322d2eec8da,64e70360d7ca356bf54da705,,,,,,,,,,,,,,,,,,,,,,,,,,,,,,,,,,,,,,,,,,,,,,,,,,,,,,,,,,,,,,,,
,,,,,,,,2023-08-24_08h16.07.803,HF_wild_card,2022.2.4,Win32,74.96251874,62966289dc2720a7bbedb8f8,64e63663dbcaf322d2eec8da,64e70360d7ca356bf54da705,,,,,,,,,,,,,,,,,,,,,,,,,,,,,,,,,,,,,,,,0,0,0,0,1,,,,,,,,,,,,,,,,,,,,
,,,,,,,,2023-08-24_08h16.07.803,HF_wild_card,2022.2.4,Win32,74.96251874,62966289dc2720a7bbedb8f8,64e63663dbcaf322d2eec8da,64e70360d7ca356bf54da705,,,,,,,,,,,,,,,,,,,,,,,,,,,,,,,,,,,,,,,,1,0,1,0,1,,,,,,,,,,,,,,,,,,,,
