Condition,Low fixed image (Door1),Low risky image (Door2),High fixed image (Door3),High risky image (Door4),Extreme Wild Card,NonExtreme Wild Card,,date,expName,psychopyVersion,OS,frameRate,PROLIFIC_PID,STUDY_ID,SESSION_ID,mouse_2.x,mouse_2.y,mouse_2.leftButton,mouse_2.midButton,mouse_2.rightButton,mouse_2.clicked_name,Trial Type,Left Option Image,Right Option Image,Chosen Door,mouse.x,mouse.y,mouse.leftButton,mouse.midButton,mouse.rightButton,mouse.time,mouse.clicked_name,Feedback,Cumulative Reward,Block,trial.thisRepN,trial.thisTrialN,trial.thisN,trial.thisIndex,trial.ran,blocks.thisRepN,blocks.thisTrialN,blocks.thisN,blocks.thisIndex,blocks.ran,Money conversion,First Outcome Reported,Shown Door (First Outcome),Displayed Image (First Outcome),outcomes.thisRepN,outcomes.thisTrialN,outcomes.thisN,outcomes.thisIndex,outcomes.ran,judgments.thisRepN,judgments.thisTrialN,judgments.thisN,judgments.thisIndex,judgments.ran,freqMouse.x,freqMouse.y,freqMouse.leftButton,freqMouse.midButton,freqMouse.rightButton,freqMouse.clicked_name,FQJ for first outcome,FQJ for second outcome,Shown Door,Displayed Image,trials.thisRepN,trials.thisTrialN,trials.thisN,trials.thisIndex,trials.ran,judgBlock.thisRepN,judgBlock.thisTrialN,judgBlock.thisN,judgBlock.thisIndex,judgBlock.ran
0,resources/DBN.BMP,resources/DG.BMP,resources/DB.BMP,resources/DR.BMP,resources/DY.BMP,resources/DP.BMP,,2023-08-16_08h38.24.517,HF_wild_card,2022.2.4,Win32,60.0060006,63160f375a6aad006c2bce9b,64d2fd46c836a06233681665,64dc7c4c847bd98900133bc4,,,,,,,,,,,,,,,,,,,,,,,,,,,,,,,,,,,,,,,,,,,,,,,,,,,,,,,,,,,,,,,,
,,,,,,,,2023-08-16_08h38.24.517,HF_wild_card,2022.2.4,Win32,60.0060006,63160f375a6aad006c2bce9b,64d2fd46c836a06233681665,64dc7c4c847bd98900133bc4,0.017592593,-0.42962963,1,0,0,agree,,,,,,,,,,,,,,,,,,,,,,,,,,,,,,,,,,,,,,,,,,,,,,,,,,,,,,,,,,
,,,,,,,,2023-08-16_08h38.24.517,HF_wild_card,2022.2.4,Win32,60.0060006,63160f375a6aad006c2bce9b,64d2fd46c836a06233681665,64dc7c4c847bd98900133bc4,,,,,,,,,,,,,,,,,,,,,,,,,,,,,,,,,,,,,,,,,,,,,,,,,,,,,,,,,,,,,,,,
,,,,,,,,2023-08-16_08h38.24.517,HF_wild_card,2022.2.4,Win32,60.0060006,63160f375a6aad006c2bce9b,64d2fd46c836a06233681665,64dc7c4c847bd98900133bc4,,,,,,,decisionTrl,resources/DR.BMP,resources/DB.BMP,Door3,0.364814815,-0.081481481,1,0,0,3.175,optionRight,70,70,1,0,0,0,0,1,,,,,,,,,,,,,,,,,,,,,,,,,,,,,,,,,,,,,,,
,,,,,,,,2023-08-16_08h38.24.517,HF_wild_card,2022.2.4,Win32,60.0060006,63160f375a6aad006c2bce9b,64d2fd46c836a06233681665,64dc7c4c847bd98900133bc4,,,,,,,sngl,resources/Empty.png,resources/DBN.BMP,Door1,0.418518519,0.107407407,1,0,0,1.6476,optionRight,30,100,1,1,0,1,0,1,,,,,,,,,,,,,,,,,,,,,,,,,,,,,,,,,,,,,,,
,,,,,,,,2023-08-16_08h38.24.517,HF_wild_card,2022.2.4,Win32,60.0060006,63160f375a6aad006c2bce9b,64d2fd46c836a06233681665,64dc7c4c847bd98900133bc4,,,,,,,sngl,resources/Empty.png,resources/DB.BMP,Door3,0.346296296,-0.025925926,1,0,0,0.7641,optionRight,70,170,1,2,0,2,0,1,,,,,,,,,,,,,,,,,,,,,,,,,,,,,,,,,,,,,,,
,,,,,,,,2023-08-16_08h38.24.517,HF_wild_card,2022.2.4,Win32,60.0060006,63160f375a6aad006c2bce9b,64d2fd46c836a06233681665,64dc7c4c847bd98900133bc4,,,,,,,ctch,resources/DG.BMP,resources/DB.BMP,Door2,-0.305555556,-0.021296296,1,0,0,1.3028,optionLeft,40,210,1,3,0,3,0,1,,,,,,,,,,,,,,,,,,,,,,,,,,,,,,,,,,,,,,,
,,,,,,,,2023-08-16_08h38.24.517,HF_wild_card,2022.2.4,Win32,60.0060006,63160f375a6aad006c2bce9b,64d2fd46c836a06233681665,64dc7c4c847bd98900133bc4,,,,,,,ctch,resources/DBN.BMP,resources/DR.BMP,Door1,-0.40462963,0.066666667,1,0,0,1.5268,optionLeft,30,240,1,4,0,4,0,1,,,,,,,,,,,,,,,,,,,,,,,,,,,,,,,,,,,,,,,
,,,,,,,,2023-08-16_08h38.24.517,HF_wild_card,2022.2.4,Win32,60.0060006,63160f375a6aad006c2bce9b,64d2fd46c836a06233681665,64dc7c4c847bd98900133bc4,,,,,,,decisionTrl,resources/DBN.BMP,resources/DG.BMP,Door2,0.311111111,-0.008333333,1,0,0,2.0327,optionRight,20,260,1,5,0,5,0,1,,,,,,,,,,,,,,,,,,,,,,,,,,,,,,,,,,,,,,,
,,,,,,,,2023-08-16_08h38.24.517,HF_wild_card,2022.2.4,Win32,60.0060006,63160f375a6aad006c2bce9b,64d2fd46c836a06233681665,64dc7c4c847bd98900133bc4,,,,,,,ctch,resources/DB.BMP,resources/DG.BMP,Door3,-0.37037037,-0.025925926,1,0,0,1.1929,optionLeft,70,330,1,6,0,6,0,1,,,,,,,,,,,,,,,,,,,,,,,,,,,,,,,,,,,,,,,
,,,,,,,,2023-08-16_08h38.24.517,HF_wild_card,2022.2.4,Win32,60.0060006,63160f375a6aad006c2bce9b,64d2fd46c836a06233681665,64dc7c4c847bd98900133bc4,,,,,,,decisionTrl,resources/DR.BMP,resources/DY.BMP,WildCard_Ex,0.389814815,0.001851852,1,0,0,1.3161,optionRight,5,335,1,7,0,7,0,1,,,,,,,,,,,,,,,,,,,,,,,,,,,,,,,,,,,,,,,
,,,,,,,,2023-08-16_08h38.24.517,HF_wild_card,2022.2.4,Win32,60.0060006,63160f375a6aad006c2bce9b,64d2fd46c836a06233681665,64dc7c4c847bd98900133bc4,,,,,,,decisionTrl,resources/DG.BMP,resources/DBN.BMP,Door2,-0.312962963,-0.016666667,1,0,0,1.1158,optionLeft,40,375,1,8,0,8,0,1,,,,,,,,,,,,,,,,,,,,,,,,,,,,,,,,,,,,,,,
,,,,,,,,2023-08-16_08h38.24.517,HF_wild_card,2022.2.4,Win32,60.0060006,63160f375a6aad006c2bce9b,64d2fd46c836a06233681665,64dc7c4c847bd98900133bc4,,,,,,,sngl,resources/DB.BMP,resources/Empty.png,Door3,-0.502777778,-0.057407407,1,0,0,0.5766,optionLeft,70,445,1,9,0,9,0,1,,,,,,,,,,,,,,,,,,,,,,,,,,,,,,,,,,,,,,,
,,,,,,,,2023-08-16_08h38.24.517,HF_wild_card,2022.2.4,Win32,60.0060006,63160f375a6aad006c2bce9b,64d2fd46c836a06233681665,64dc7c4c847bd98900133bc4,,,,,,,decisionTrl,resources/DB.BMP,resources/DR.BMP,Door3,-0.475,-0.031481481,1,0,0,0.5828,optionLeft,70,515,1,10,0,10,0,1,,,,,,,,,,,,,,,,,,,,,,,,,,,,,,,,,,,,,,,
,,,,,,,,2023-08-16_08h38.24.517,HF_wild_card,2022.2.4,Win32,60.0060006,63160f375a6aad006c2bce9b,64d2fd46c836a06233681665,64dc7c4c847bd98900133bc4,,,,,,,sngl,resources/DG.BMP,resources/Empty.png,Door2,-0.408333333,-0.02962963,1,0,0,0.7109,optionLeft,40,555,1,11,0,11,0,1,,,,,,,,,,,,,,,,,,,,,,,,,,,,,,,,,,,,,,,
,,,,,,,,2023-08-16_08h38.24.517,HF_wild_card,2022.2.4,Win32,60.0060006,63160f375a6aad006c2bce9b,64d2fd46c836a06233681665,64dc7c4c847bd98900133bc4,,,,,,,decisionTrl,resources/DB.BMP,resources/DR.BMP,Door3,-0.412962963,0.015740741,1,0,0,0.7811,optionLeft,70,625,1,12,0,12,0,1,,,,,,,,,,,,,,,,,,,,,,,,,,,,,,,,,,,,,,,
,,,,,,,,2023-08-16_08h38.24.517,HF_wild_card,2022.2.4,Win32,60.0060006,63160f375a6aad006c2bce9b,64d2fd46c836a06233681665,64dc7c4c847bd98900133bc4,,,,,,,decisionTrl,resources/DBN.BMP,resources/DY.BMP,Door1,-0.397222222,0.016666667,1,0,0,1.3979,optionLeft,30,655,1,13,0,13,0,1,,,,,,,,,,,,,,,,,,,,,,,,,,,,,,,,,,,,,,,
,,,,,,,,2023-08-16_08h38.24.517,HF_wild_card,2022.2.4,Win32,60.0060006,63160f375a6aad006c2bce9b,64d2fd46c836a06233681665,64dc7c4c847bd98900133bc4,,,,,,,sngl,resources/DY.BMP,resources/Empty.png,WildCard_Ex,-0.332407407,-0.018518519,1,0,0,1.0976,optionLeft,5,660,1,14,0,14,0,1,,,,,,,,,,,,,,,,,,,,,,,,,,,,,,,,,,,,,,,
,,,,,,,,2023-08-16_08h38.24.517,HF_wild_card,2022.2.4,Win32,60.0060006,63160f375a6aad006c2bce9b,64d2fd46c836a06233681665,64dc7c4c847bd98900133bc4,,,,,,,sngl,resources/DR.BMP,resources/Empty.png,Door4,-0.32037037,-0.037037037,1,0,0,0.781,optionLeft,80,740,1,15,0,15,0,1,,,,,,,,,,,,,,,,,,,,,,,,,,,,,,,,,,,,,,,
,,,,,,,,2023-08-16_08h38.24.517,HF_wild_card,2022.2.4,Win32,60.0060006,63160f375a6aad006c2bce9b,64d2fd46c836a06233681665,64dc7c4c847bd98900133bc4,,,,,,,decisionTrl,resources/DB.BMP,resources/DY.BMP,Door3,-0.32037037,0.00462963,1,0,0,1.0539,optionLeft,70,810,1,16,0,16,0,1,,,,,,,,,,,,,,,,,,,,,,,,,,,,,,,,,,,,,,,
,,,,,,,,2023-08-16_08h38.24.517,HF_wild_card,2022.2.4,Win32,60.0060006,63160f375a6aad006c2bce9b,64d2fd46c836a06233681665,64dc7c4c847bd98900133bc4,,,,,,,sngl,resources/Empty.png,resources/DR.BMP,Door4,0.332407407,-0.039814815,1,0,0,0.6101,optionRight,60,870,1,17,0,17,0,1,,,,,,,,,,,,,,,,,,,,,,,,,,,,,,,,,,,,,,,
,,,,,,,,2023-08-16_08h38.24.517,HF_wild_card,2022.2.4,Win32,60.0060006,63160f375a6aad006c2bce9b,64d2fd46c836a06233681665,64dc7c4c847bd98900133bc4,,,,,,,decisionTrl,resources/DG.BMP,resources/DY.BMP,Door2,-0.360185185,0.005555556,1,0,0,1.1328,optionLeft,20,890,1,18,0,18,0,1,,,,,,,,,,,,,,,,,,,,,,,,,,,,,,,,,,,,,,,
,,,,,,,,2023-08-16_08h38.24.517,HF_wild_card,2022.2.4,Win32,60.0060006,63160f375a6aad006c2bce9b,64d2fd46c836a06233681665,64dc7c4c847bd98900133bc4,,,,,,,sngl,resources/Empty.png,resources/DG.BMP,Door2,0.351851852,-0.007407407,1,0,0,0.6816,optionRight,20,910,1,19,0,19,0,1,,,,,,,,,,,,,,,,,,,,,,,,,,,,,,,,,,,,,,,
,,,,,,,,2023-08-16_08h38.24.517,HF_wild_card,2022.2.4,Win32,60.0060006,63160f375a6aad006c2bce9b,64d2fd46c836a06233681665,64dc7c4c847bd98900133bc4,,,,,,,decisionTrl,resources/DR.BMP,resources/DB.BMP,Door4,-0.381481481,-0.008333333,1,0,0,1.4651,optionLeft,60,970,1,20,0,20,0,1,,,,,,,,,,,,,,,,,,,,,,,,,,,,,,,,,,,,,,,
,,,,,,,,2023-08-16_08h38.24.517,HF_wild_card,2022.2.4,Win32,60.0060006,63160f375a6aad006c2bce9b,64d2fd46c836a06233681665,64dc7c4c847bd98900133bc4,,,,,,,decisionTrl,resources/DB.BMP,resources/DR.BMP,Door3,-0.623148148,-0.053703704,1,0,0,1.6869,optionLeft,70,1040,1,21,0,21,0,1,,,,,,,,,,,,,,,,,,,,,,,,,,,,,,,,,,,,,,,
,,,,,,,,2023-08-16_08h38.24.517,HF_wild_card,2022.2.4,Win32,60.0060006,63160f375a6aad006c2bce9b,64d2fd46c836a06233681665,64dc7c4c847bd98900133bc4,,,,,,,decisionTrl,resources/DBN.BMP,resources/DG.BMP,Door1,-0.344444444,0.05462963,1,0,0,0.9102,optionLeft,30,1070,1,22,0,22,0,1,,,,,,,,,,,,,,,,,,,,,,,,,,,,,,,,,,,,,,,
,,,,,,,,2023-08-16_08h38.24.517,HF_wild_card,2022.2.4,Win32,60.0060006,63160f375a6aad006c2bce9b,64d2fd46c836a06233681665,64dc7c4c847bd98900133bc4,,,,,,,decisionTrl,resources/DR.BMP,resources/DB.BMP,Door3,0.400925926,-0.012962963,1,0,0,1.5978,optionRight,70,1140,1,23,0,23,0,1,,,,,,,,,,,,,,,,,,,,,,,,,,,,,,,,,,,,,,,
,,,,,,,,2023-08-16_08h38.24.517,HF_wild_card,2022.2.4,Win32,60.0060006,63160f375a6aad006c2bce9b,64d2fd46c836a06233681665,64dc7c4c847bd98900133bc4,,,,,,,decisionTrl,resources/DY.BMP,resources/DG.BMP,Door2,0.409259259,0.024074074,1,0,0,0.8153,optionRight,40,1180,1,24,0,24,0,1,,,,,,,,,,,,,,,,,,,,,,,,,,,,,,,,,,,,,,,
,,,,,,,,2023-08-16_08h38.24.517,HF_wild_card,2022.2.4,Win32,60.0060006,63160f375a6aad006c2bce9b,64d2fd46c836a06233681665,64dc7c4c847bd98900133bc4,,,,,,,decisionTrl,resources/DG.BMP,resources/DBN.BMP,Door1,0.460185185,0.048148148,1,0,0,1.0662,optionRight,30,1210,1,25,0,25,0,1,,,,,,,,,,,,,,,,,,,,,,,,,,,,,,,,,,,,,,,
,,,,,,,,2023-08-16_08h38.24.517,HF_wild_card,2022.2.4,Win32,60.0060006,63160f375a6aad006c2bce9b,64d2fd46c836a06233681665,64dc7c4c847bd98900133bc4,,,,,,,decisionTrl,resources/DG.BMP,resources/DBN.BMP,Door2,-0.286111111,0.024074074,1,0,0,0.9313,optionLeft,40,1250,1,26,0,26,0,1,,,,,,,,,,,,,,,,,,,,,,,,,,,,,,,,,,,,,,,
,,,,,,,,2023-08-16_08h38.24.517,HF_wild_card,2022.2.4,Win32,60.0060006,63160f375a6aad006c2bce9b,64d2fd46c836a06233681665,64dc7c4c847bd98900133bc4,,,,,,,sngl,resources/Empty.png,resources/DY.BMP,WildCard_Ex,0.185185185,-0.003703704,1,0,0,0.9025,optionRight,95,1345,1,27,0,27,0,1,,,,,,,,,,,,,,,,,,,,,,,,,,,,,,,,,,,,,,,
,,,,,,,,2023-08-16_08h38.24.517,HF_wild_card,2022.2.4,Win32,60.0060006,63160f375a6aad006c2bce9b,64d2fd46c836a06233681665,64dc7c4c847bd98900133bc4,,,,,,,ctch,resources/DB.BMP,resources/DG.BMP,Door3,-0.264814815,-0.022222222,1,0,0,0.8611,optionLeft,70,1415,1,28,0,28,0,1,,,,,,,,,,,,,,,,,,,,,,,,,,,,,,,,,,,,,,,
,,,,,,,,2023-08-16_08h38.24.517,HF_wild_card,2022.2.4,Win32,60.0060006,63160f375a6aad006c2bce9b,64d2fd46c836a06233681665,64dc7c4c847bd98900133bc4,,,,,,,ctch,resources/DBN.BMP,resources/DR.BMP,Door4,0.306481481,0.012962963,1,0,0,0.8479,optionRight,60,1475,1,29,0,29,0,1,,,,,,,,,,,,,,,,,,,,,,,,,,,,,,,,,,,,,,,
,,,,,,,,2023-08-16_08h38.24.517,HF_wild_card,2022.2.4,Win32,60.0060006,63160f375a6aad006c2bce9b,64d2fd46c836a06233681665,64dc7c4c847bd98900133bc4,,,,,,,sngl,resources/DBN.BMP,resources/Empty.png,Door1,-0.3,0.003703704,1,0,0,0.5034,optionLeft,30,1505,1,30,0,30,0,1,,,,,,,,,,,,,,,,,,,,,,,,,,,,,,,,,,,,,,,
,,,,,,,,2023-08-16_08h38.24.517,HF_wild_card,2022.2.4,Win32,60.0060006,63160f375a6aad006c2bce9b,64d2fd46c836a06233681665,64dc7c4c847bd98900133bc4,,,,,,,ctch,resources/DR.BMP,resources/DBN.BMP,Door4,-0.318518519,0.010185185,1,0,0,0.781,optionLeft,60,1565,1,31,0,31,0,1,,,,,,,,,,,,,,,,,,,,,,,,,,,,,,,,,,,,,,,
,,,,,,,,2023-08-16_08h38.24.517,HF_wild_card,2022.2.4,Win32,60.0060006,63160f375a6aad006c2bce9b,64d2fd46c836a06233681665,64dc7c4c847bd98900133bc4,,,,,,,decisionTrl,resources/DY.BMP,resources/DR.BMP,Door4,0.336111111,-0.005555556,1,0,0,1.2438,optionRight,60,1625,1,32,0,32,0,1,,,,,,,,,,,,,,,,,,,,,,,,,,,,,,,,,,,,,,,
,,,,,,,,2023-08-16_08h38.24.517,HF_wild_card,2022.2.4,Win32,60.0060006,63160f375a6aad006c2bce9b,64d2fd46c836a06233681665,64dc7c4c847bd98900133bc4,,,,,,,sngl,resources/Empty.png,resources/DY.BMP,WildCard_Ex,0.375,-0.012962963,1,0,0,0.7484,optionRight,5,1630,1,33,0,33,0,1,,,,,,,,,,,,,,,,,,,,,,,,,,,,,,,,,,,,,,,
,,,,,,,,2023-08-16_08h38.24.517,HF_wild_card,2022.2.4,Win32,60.0060006,63160f375a6aad006c2bce9b,64d2fd46c836a06233681665,64dc7c4c847bd98900133bc4,,,,,,,ctch,resources/DG.BMP,resources/DB.BMP,Door3,0.462037037,0.035185185,1,0,0,0.9874,optionRight,70,1700,1,34,0,34,0,1,,,,,,,,,,,,,,,,,,,,,,,,,,,,,,,,,,,,,,,
,,,,,,,,2023-08-16_08h38.24.517,HF_wild_card,2022.2.4,Win32,60.0060006,63160f375a6aad006c2bce9b,64d2fd46c836a06233681665,64dc7c4c847bd98900133bc4,,,,,,,decisionTrl,resources/DBN.BMP,resources/DG.BMP,Door2,0.347222222,0.002777778,1,0,0,0.915,optionRight,20,1720,1,35,0,35,0,1,,,,,,,,,,,,,,,,,,,,,,,,,,,,,,,,,,,,,,,
,,,,,,,,2023-08-16_08h38.24.517,HF_wild_card,2022.2.4,Win32,60.0060006,63160f375a6aad006c2bce9b,64d2fd46c836a06233681665,64dc7c4c847bd98900133bc4,,,,,,,decisionTrl,resources/DBN.BMP,resources/DG.BMP,Door1,-0.237037037,0.010185185,1,0,0,0.8524,optionLeft,30,1750,1,36,0,36,0,1,,,,,,,,,,,,,,,,,,,,,,,,,,,,,,,,,,,,,,,
,,,,,,,,2023-08-16_08h38.24.517,HF_wild_card,2022.2.4,Win32,60.0060006,63160f375a6aad006c2bce9b,64d2fd46c836a06233681665,64dc7c4c847bd98900133bc4,,,,,,,ctch,resources/DR.BMP,resources/DBN.BMP,Door4,-0.337962963,-0.006481481,1,0,0,0.9605,optionLeft,60,1810,1,37,0,37,0,1,,,,,,,,,,,,,,,,,,,,,,,,,,,,,,,,,,,,,,,
,,,,,,,,2023-08-16_08h38.24.517,HF_wild_card,2022.2.4,Win32,60.0060006,63160f375a6aad006c2bce9b,64d2fd46c836a06233681665,64dc7c4c847bd98900133bc4,,,,,,,decisionTrl,resources/DR.BMP,resources/DB.BMP,Door3,0.35,-0.013888889,1,0,0,0.8808,optionRight,70,1880,1,38,0,38,0,1,,,,,,,,,,,,,,,,,,,,,,,,,,,,,,,,,,,,,,,
,,,,,,,,2023-08-16_08h38.24.517,HF_wild_card,2022.2.4,Win32,60.0060006,63160f375a6aad006c2bce9b,64d2fd46c836a06233681665,64dc7c4c847bd98900133bc4,,,,,,,decisionTrl,resources/DG.BMP,resources/DBN.BMP,Door1,0.386111111,0.037037037,1,0,0,1.2532,optionRight,30,1910,1,39,0,39,0,1,,,,,,,,,,,,,,,,,,,,,,,,,,,,,,,,,,,,,,,
,,,,,,,,2023-08-16_08h38.24.517,HF_wild_card,2022.2.4,Win32,60.0060006,63160f375a6aad006c2bce9b,64d2fd46c836a06233681665,64dc7c4c847bd98900133bc4,,,,,,,decisionTrl,resources/DY.BMP,resources/DBN.BMP,Door1,0.301851852,0.010185185,1,0,0,0.9149,optionRight,30,1940,1,40,0,40,0,1,,,,,,,,,,,,,,,,,,,,,,,,,,,,,,,,,,,,,,,
,,,,,,,,2023-08-16_08h38.24.517,HF_wild_card,2022.2.4,Win32,60.0060006,63160f375a6aad006c2bce9b,64d2fd46c836a06233681665,64dc7c4c847bd98900133bc4,,,,,,,sngl,resources/DY.BMP,resources/Empty.png,WildCard_Ex,-0.346296296,-0.001851852,1,0,0,1.0701,optionLeft,95,2035,1,41,0,41,0,1,,,,,,,,,,,,,,,,,,,,,,,,,,,,,,,,,,,,,,,
,,,,,,,,2023-08-16_08h38.24.517,HF_wild_card,2022.2.4,Win32,60.0060006,63160f375a6aad006c2bce9b,64d2fd46c836a06233681665,64dc7c4c847bd98900133bc4,,,,,,,decisionTrl,resources/DY.BMP,resources/DB.BMP,Door3,0.308333333,-0.00462963,1,0,0,0.7811,optionRight,70,2105,1,42,0,42,0,1,,,,,,,,,,,,,,,,,,,,,,,,,,,,,,,,,,,,,,,
,,,,,,,,2023-08-16_08h38.24.517,HF_wild_card,2022.2.4,Win32,60.0060006,63160f375a6aad006c2bce9b,64d2fd46c836a06233681665,64dc7c4c847bd98900133bc4,,,,,,,decisionTrl,resources/DB.BMP,resources/DR.BMP,Door4,0.3,-0.033333333,1,0,0,1.6774,optionRight,80,2185,1,43,0,43,0,1,,,,,,,,,,,,,,,,,,,,,,,,,,,,,,,,,,,,,,,
,,,,,,,,2023-08-16_08h38.24.517,HF_wild_card,2022.2.4,Win32,60.0060006,63160f375a6aad006c2bce9b,64d2fd46c836a06233681665,64dc7c4c847bd98900133bc4,,,,,,,,,,,,,,,,,,,,,,,,,,0,0,0,0,1,,,,,,,,,,,,,,,,,,,,,,,,,,,,,,,,,,
,,,,,,,,2023-08-16_08h38.24.517,HF_wild_card,2022.2.4,Win32,60.0060006,63160f375a6aad006c2bce9b,64d2fd46c836a06233681665,64dc7c4c847bd98900133bc4,,,,,,,decisionTrl,resources/DG.BMP,resources/DBN.BMP,Door1,0.358333333,-0.087962963,1,0,0,1.7636,optionRight,30,2215,2,0,0,0,0,1,,,,,,,,,,,,,,,,,,,,,,,,,,,,,,,,,,,,,,,
,,,,,,,,2023-08-16_08h38.24.517,HF_wild_card,2022.2.4,Win32,60.0060006,63160f375a6aad006c2bce9b,64d2fd46c836a06233681665,64dc7c4c847bd98900133bc4,,,,,,,sngl,resources/DBN.BMP,resources/Empty.png,Door1,-0.281481481,0.013888889,1,0,0,0.3767,optionLeft,30,2245,2,1,0,1,0,1,,,,,,,,,,,,,,,,,,,,,,,,,,,,,,,,,,,,,,,
,,,,,,,,2023-08-16_08h38.24.517,HF_wild_card,2022.2.4,Win32,60.0060006,63160f375a6aad006c2bce9b,64d2fd46c836a06233681665,64dc7c4c847bd98900133bc4,,,,,,,sngl,resources/DY.BMP,resources/Empty.png,WildCard_Ex,0.456481481,-0.023148148,1,0,0,0.8697,optionLeft,95,2340,2,2,0,2,0,1,,,,,,,,,,,,,,,,,,,,,,,,,,,,,,,,,,,,,,,
,,,,,,,,2023-08-16_08h38.24.517,HF_wild_card,2022.2.4,Win32,60.0060006,63160f375a6aad006c2bce9b,64d2fd46c836a06233681665,64dc7c4c847bd98900133bc4,,,,,,,ctch,resources/DBN.BMP,resources/DR.BMP,Door4,0.347222222,-0.018518519,1,0,0,0.9338,optionRight,80,2420,2,3,0,3,0,1,,,,,,,,,,,,,,,,,,,,,,,,,,,,,,,,,,,,,,,
,,,,,,,,2023-08-16_08h38.24.517,HF_wild_card,2022.2.4,Win32,60.0060006,63160f375a6aad006c2bce9b,64d2fd46c836a06233681665,64dc7c4c847bd98900133bc4,,,,,,,sngl,resources/DR.BMP,resources/Empty.png,Door4,-0.331481481,0.05462963,1,0,0,0.481,optionLeft,60,2480,2,4,0,4,0,1,,,,,,,,,,,,,,,,,,,,,,,,,,,,,,,,,,,,,,,
,,,,,,,,2023-08-16_08h38.24.517,HF_wild_card,2022.2.4,Win32,60.0060006,63160f375a6aad006c2bce9b,64d2fd46c836a06233681665,64dc7c4c847bd98900133bc4,,,,,,,sngl,resources/Empty.png,resources/DY.BMP,WildCard_Ex,0.330555556,0.033333333,1,0,0,0.6269,optionRight,5,2485,2,5,0,5,0,1,,,,,,,,,,,,,,,,,,,,,,,,,,,,,,,,,,,,,,,
,,,,,,,,2023-08-16_08h38.24.517,HF_wild_card,2022.2.4,Win32,60.0060006,63160f375a6aad006c2bce9b,64d2fd46c836a06233681665,64dc7c4c847bd98900133bc4,,,,,,,sngl,resources/Empty.png,resources/DB.BMP,Door3,0.393518519,0.002777778,1,0,0,0.5812,optionRight,70,2555,2,6,0,6,0,1,,,,,,,,,,,,,,,,,,,,,,,,,,,,,,,,,,,,,,,
,,,,,,,,2023-08-16_08h38.24.517,HF_wild_card,2022.2.4,Win32,60.0060006,63160f375a6aad006c2bce9b,64d2fd46c836a06233681665,64dc7c4c847bd98900133bc4,,,,,,,sngl,resources/DY.BMP,resources/Empty.png,WildCard_Ex,-0.338888889,0.031481481,1,0,0,0.5641,optionLeft,5,2560,2,7,0,7,0,1,,,,,,,,,,,,,,,,,,,,,,,,,,,,,,,,,,,,,,,
,,,,,,,,2023-08-16_08h38.24.517,HF_wild_card,2022.2.4,Win32,60.0060006,63160f375a6aad006c2bce9b,64d2fd46c836a06233681665,64dc7c4c847bd98900133bc4,,,,,,,decisionTrl,resources/DY.BMP,resources/DBN.BMP,Door1,0.288888889,0.003703704,1,0,0,0.6941,optionRight,30,2590,2,8,0,8,0,1,,,,,,,,,,,,,,,,,,,,,,,,,,,,,,,,,,,,,,,
,,,,,,,,2023-08-16_08h38.24.517,HF_wild_card,2022.2.4,Win32,60.0060006,63160f375a6aad006c2bce9b,64d2fd46c836a06233681665,64dc7c4c847bd98900133bc4,,,,,,,decisionTrl,resources/DG.BMP,resources/DBN.BMP,Door2,-0.431481481,-0.008333333,1,0,0,0.7478,optionLeft,20,2610,2,9,0,9,0,1,,,,,,,,,,,,,,,,,,,,,,,,,,,,,,,,,,,,,,,
,,,,,,,,2023-08-16_08h38.24.517,HF_wild_card,2022.2.4,Win32,60.0060006,63160f375a6aad006c2bce9b,64d2fd46c836a06233681665,64dc7c4c847bd98900133bc4,,,,,,,sngl,resources/Empty.png,resources/DBN.BMP,Door1,0.423148148,-0.006481481,1,0,0,0.7481,optionRight,30,2640,2,10,0,10,0,1,,,,,,,,,,,,,,,,,,,,,,,,,,,,,,,,,,,,,,,
,,,,,,,,2023-08-16_08h38.24.517,HF_wild_card,2022.2.4,Win32,60.0060006,63160f375a6aad006c2bce9b,64d2fd46c836a06233681665,64dc7c4c847bd98900133bc4,,,,,,,decisionTrl,resources/DY.BMP,resources/DR.BMP,Door4,0.311111111,-0.007407407,1,0,0,0.8037,optionRight,80,2720,2,11,0,11,0,1,,,,,,,,,,,,,,,,,,,,,,,,,,,,,,,,,,,,,,,
,,,,,,,,2023-08-16_08h38.24.517,HF_wild_card,2022.2.4,Win32,60.0060006,63160f375a6aad006c2bce9b,64d2fd46c836a06233681665,64dc7c4c847bd98900133bc4,,,,,,,ctch,resources/DB.BMP,resources/DG.BMP,Door3,-0.337037037,-0.033333333,1,0,0,0.8205,optionLeft,70,2790,2,12,0,12,0,1,,,,,,,,,,,,,,,,,,,,,,,,,,,,,,,,,,,,,,,
,,,,,,,,2023-08-16_08h38.24.517,HF_wild_card,2022.2.4,Win32,60.0060006,63160f375a6aad006c2bce9b,64d2fd46c836a06233681665,64dc7c4c847bd98900133bc4,,,,,,,sngl,resources/Empty.png,resources/DG.BMP,Door2,0.348148148,-0.00462963,1,0,0,0.8105,optionRight,40,2830,2,13,0,13,0,1,,,,,,,,,,,,,,,,,,,,,,,,,,,,,,,,,,,,,,,
,,,,,,,,2023-08-16_08h38.24.517,HF_wild_card,2022.2.4,Win32,60.0060006,63160f375a6aad006c2bce9b,64d2fd46c836a06233681665,64dc7c4c847bd98900133bc4,,,,,,,decisionTrl,resources/DR.BMP,resources/DY.BMP,Door4,-0.307407407,0.003703704,1,0,0,0.9437,optionLeft,80,2910,2,14,0,14,0,1,,,,,,,,,,,,,,,,,,,,,,,,,,,,,,,,,,,,,,,
,,,,,,,,2023-08-16_08h38.24.517,HF_wild_card,2022.2.4,Win32,60.0060006,63160f375a6aad006c2bce9b,64d2fd46c836a06233681665,64dc7c4c847bd98900133bc4,,,,,,,decisionTrl,resources/DR.BMP,resources/DB.BMP,Door3,0.327777778,0.016666667,1,0,0,1.1776,optionRight,70,2980,2,15,0,15,0,1,,,,,,,,,,,,,,,,,,,,,,,,,,,,,,,,,,,,,,,
,,,,,,,,2023-08-16_08h38.24.517,HF_wild_card,2022.2.4,Win32,60.0060006,63160f375a6aad006c2bce9b,64d2fd46c836a06233681665,64dc7c4c847bd98900133bc4,,,,,,,decisionTrl,resources/DBN.BMP,resources/DY.BMP,Door1,-0.300925926,0.039814815,1,0,0,0.827,optionLeft,30,3010,2,16,0,16,0,1,,,,,,,,,,,,,,,,,,,,,,,,,,,,,,,,,,,,,,,
,,,,,,,,2023-08-16_08h38.24.517,HF_wild_card,2022.2.4,Win32,60.0060006,63160f375a6aad006c2bce9b,64d2fd46c836a06233681665,64dc7c4c847bd98900133bc4,,,,,,,decisionTrl,resources/DBN.BMP,resources/DG.BMP,Door1,-0.3,0.076851852,1,0,0,1.6647,optionLeft,30,3040,2,17,0,17,0,1,,,,,,,,,,,,,,,,,,,,,,,,,,,,,,,,,,,,,,,
,,,,,,,,2023-08-16_08h38.24.517,HF_wild_card,2022.2.4,Win32,60.0060006,63160f375a6aad006c2bce9b,64d2fd46c836a06233681665,64dc7c4c847bd98900133bc4,,,,,,,ctch,resources/DB.BMP,resources/DG.BMP,Door3,-0.284259259,0.013888889,1,0,0,0.731,optionLeft,70,3110,2,18,0,18,0,1,,,,,,,,,,,,,,,,,,,,,,,,,,,,,,,,,,,,,,,
,,,,,,,,2023-08-16_08h38.24.517,HF_wild_card,2022.2.4,Win32,60.0060006,63160f375a6aad006c2bce9b,64d2fd46c836a06233681665,64dc7c4c847bd98900133bc4,,,,,,,sngl,resources/Empty.png,resources/DY.BMP,WildCard_Ex,0.3,0.001851852,1,0,0,0.7697,optionRight,95,3205,2,19,0,19,0,1,,,,,,,,,,,,,,,,,,,,,,,,,,,,,,,,,,,,,,,
,,,,,,,,2023-08-16_08h38.24.517,HF_wild_card,2022.2.4,Win32,60.0060006,63160f375a6aad006c2bce9b,64d2fd46c836a06233681665,64dc7c4c847bd98900133bc4,,,,,,,ctch,resources/DG.BMP,resources/DB.BMP,Door3,0.356481481,-0.010185185,1,0,0,1.7145,optionRight,70,3275,2,20,0,20,0,1,,,,,,,,,,,,,,,,,,,,,,,,,,,,,,,,,,,,,,,
,,,,,,,,2023-08-16_08h38.24.517,HF_wild_card,2022.2.4,Win32,60.0060006,63160f375a6aad006c2bce9b,64d2fd46c836a06233681665,64dc7c4c847bd98900133bc4,,,,,,,decisionTrl,resources/DB.BMP,resources/DR.BMP,Door4,0.385185185,0.009259259,1,0,0,0.8989,optionRight,60,3335,2,21,0,21,0,1,,,,,,,,,,,,,,,,,,,,,,,,,,,,,,,,,,,,,,,
,,,,,,,,2023-08-16_08h38.24.517,HF_wild_card,2022.2.4,Win32,60.0060006,63160f375a6aad006c2bce9b,64d2fd46c836a06233681665,64dc7c4c847bd98900133bc4,,,,,,,ctch,resources/DR.BMP,resources/DBN.BMP,Door4,-0.326851852,-0.002777778,1,0,0,0.9864,optionLeft,60,3395,2,22,0,22,0,1,,,,,,,,,,,,,,,,,,,,,,,,,,,,,,,,,,,,,,,
,,,,,,,,2023-08-16_08h38.24.517,HF_wild_card,2022.2.4,Win32,60.0060006,63160f375a6aad006c2bce9b,64d2fd46c836a06233681665,64dc7c4c847bd98900133bc4,,,,,,,decisionTrl,resources/DBN.BMP,resources/DG.BMP,Door1,-0.294444444,0.014814815,1,0,0,0.7988,optionLeft,30,3425,2,23,0,23,0,1,,,,,,,,,,,,,,,,,,,,,,,,,,,,,,,,,,,,,,,
,,,,,,,,2023-08-16_08h38.24.517,HF_wild_card,2022.2.4,Win32,60.0060006,63160f375a6aad006c2bce9b,64d2fd46c836a06233681665,64dc7c4c847bd98900133bc4,,,,,,,decisionTrl,resources/DB.BMP,resources/DR.BMP,Door3,-0.390740741,-0.000925926,1,0,0,0.7815,optionLeft,70,3495,2,24,0,24,0,1,,,,,,,,,,,,,,,,,,,,,,,,,,,,,,,,,,,,,,,
,,,,,,,,2023-08-16_08h38.24.517,HF_wild_card,2022.2.4,Win32,60.0060006,63160f375a6aad006c2bce9b,64d2fd46c836a06233681665,64dc7c4c847bd98900133bc4,,,,,,,ctch,resources/DR.BMP,resources/DBN.BMP,Door4,-0.368518519,-0.008333333,1,0,0,0.8643,optionLeft,80,3575,2,25,0,25,0,1,,,,,,,,,,,,,,,,,,,,,,,,,,,,,,,,,,,,,,,
,,,,,,,,2023-08-16_08h38.24.517,HF_wild_card,2022.2.4,Win32,60.0060006,63160f375a6aad006c2bce9b,64d2fd46c836a06233681665,64dc7c4c847bd98900133bc4,,,,,,,decisionTrl,resources/DB.BMP,resources/DR.BMP,Door3,-0.338888889,-0.00462963,1,0,0,0.6773,optionLeft,70,3645,2,26,0,26,0,1,,,,,,,,,,,,,,,,,,,,,,,,,,,,,,,,,,,,,,,
,,,,,,,,2023-08-16_08h38.24.517,HF_wild_card,2022.2.4,Win32,60.0060006,63160f375a6aad006c2bce9b,64d2fd46c836a06233681665,64dc7c4c847bd98900133bc4,,,,,,,decisionTrl,resources/DB.BMP,resources/DR.BMP,Door3,-0.30462963,-0.003703704,1,0,0,0.8603,optionLeft,70,3715,2,27,0,27,0,1,,,,,,,,,,,,,,,,,,,,,,,,,,,,,,,,,,,,,,,
,,,,,,,,2023-08-16_08h38.24.517,HF_wild_card,2022.2.4,Win32,60.0060006,63160f375a6aad006c2bce9b,64d2fd46c836a06233681665,64dc7c4c847bd98900133bc4,,,,,,,ctch,resources/DG.BMP,resources/DB.BMP,Door3,0.287962963,-0.008333333,1,0,0,0.6647,optionRight,70,3785,2,28,0,28,0,1,,,,,,,,,,,,,,,,,,,,,,,,,,,,,,,,,,,,,,,
,,,,,,,,2023-08-16_08h38.24.517,HF_wild_card,2022.2.4,Win32,60.0060006,63160f375a6aad006c2bce9b,64d2fd46c836a06233681665,64dc7c4c847bd98900133bc4,,,,,,,sngl,resources/Empty.png,resources/DR.BMP,Door4,0.325,-0.014814815,1,0,0,0.5868,optionRight,80,3865,2,29,0,29,0,1,,,,,,,,,,,,,,,,,,,,,,,,,,,,,,,,,,,,,,,
,,,,,,,,2023-08-16_08h38.24.517,HF_wild_card,2022.2.4,Win32,60.0060006,63160f375a6aad006c2bce9b,64d2fd46c836a06233681665,64dc7c4c847bd98900133bc4,,,,,,,decisionTrl,resources/DR.BMP,resources/DB.BMP,Door4,-0.30462963,0.010185185,1,0,0,0.8868,optionLeft,60,3925,2,30,0,30,0,1,,,,,,,,,,,,,,,,,,,,,,,,,,,,,,,,,,,,,,,
,,,,,,,,2023-08-16_08h38.24.517,HF_wild_card,2022.2.4,Win32,60.0060006,63160f375a6aad006c2bce9b,64d2fd46c836a06233681665,64dc7c4c847bd98900133bc4,,,,,,,decisionTrl,resources/DY.BMP,resources/DB.BMP,Door3,0.497222222,-0.016666667,1,0,0,0.6933,optionRight,70,3995,2,31,0,31,0,1,,,,,,,,,,,,,,,,,,,,,,,,,,,,,,,,,,,,,,,
,,,,,,,,2023-08-16_08h38.24.517,HF_wild_card,2022.2.4,Win32,60.0060006,63160f375a6aad006c2bce9b,64d2fd46c836a06233681665,64dc7c4c847bd98900133bc4,,,,,,,decisionTrl,resources/DG.BMP,resources/DBN.BMP,Door1,0.361111111,0.013888889,1,0,0,0.8204,optionRight,30,4025,2,32,0,32,0,1,,,,,,,,,,,,,,,,,,,,,,,,,,,,,,,,,,,,,,,
,,,,,,,,2023-08-16_08h38.24.517,HF_wild_card,2022.2.4,Win32,60.0060006,63160f375a6aad006c2bce9b,64d2fd46c836a06233681665,64dc7c4c847bd98900133bc4,,,,,,,decisionTrl,resources/DB.BMP,resources/DY.BMP,Door3,-0.348148148,0.016666667,1,0,0,1.16,optionLeft,70,4095,2,33,0,33,0,1,,,,,,,,,,,,,,,,,,,,,,,,,,,,,,,,,,,,,,,
,,,,,,,,2023-08-16_08h38.24.517,HF_wild_card,2022.2.4,Win32,60.0060006,63160f375a6aad006c2bce9b,64d2fd46c836a06233681665,64dc7c4c847bd98900133bc4,,,,,,,decisionTrl,resources/DBN.BMP,resources/DG.BMP,Door1,-0.35,0.019444444,1,0,0,1.0532,optionLeft,30,4125,2,34,0,34,0,1,,,,,,,,,,,,,,,,,,,,,,,,,,,,,,,,,,,,,,,
,,,,,,,,2023-08-16_08h38.24.517,HF_wild_card,2022.2.4,Win32,60.0060006,63160f375a6aad006c2bce9b,64d2fd46c836a06233681665,64dc7c4c847bd98900133bc4,,,,,,,decisionTrl,resources/DG.BMP,resources/DY.BMP,Door2,-0.352777778,0.013888889,1,0,0,0.8035,optionLeft,40,4165,2,35,0,35,0,1,,,,,,,,,,,,,,,,,,,,,,,,,,,,,,,,,,,,,,,
,,,,,,,,2023-08-16_08h38.24.517,HF_wild_card,2022.2.4,Win32,60.0060006,63160f375a6aad006c2bce9b,64d2fd46c836a06233681665,64dc7c4c847bd98900133bc4,,,,,,,sngl,resources/DG.BMP,resources/Empty.png,Door2,-0.337037037,0.013888889,1,0,0,0.4975,optionLeft,20,4185,2,36,0,36,0,1,,,,,,,,,,,,,,,,,,,,,,,,,,,,,,,,,,,,,,,
,,,,,,,,2023-08-16_08h38.24.517,HF_wild_card,2022.2.4,Win32,60.0060006,63160f375a6aad006c2bce9b,64d2fd46c836a06233681665,64dc7c4c847bd98900133bc4,,,,,,,decisionTrl,resources/DG.BMP,resources/DBN.BMP,Door1,0.29537037,-0.009259259,1,0,0,0.627,optionRight,30,4215,2,37,0,37,0,1,,,,,,,,,,,,,,,,,,,,,,,,,,,,,,,,,,,,,,,
,,,,,,,,2023-08-16_08h38.24.517,HF_wild_card,2022.2.4,Win32,60.0060006,63160f375a6aad006c2bce9b,64d2fd46c836a06233681665,64dc7c4c847bd98900133bc4,,,,,,,ctch,resources/DBN.BMP,resources/DR.BMP,Door4,0.416666667,-0.028703704,1,0,0,0.8978,optionRight,80,4295,2,38,0,38,0,1,,,,,,,,,,,,,,,,,,,,,,,,,,,,,,,,,,,,,,,
,,,,,,,,2023-08-16_08h38.24.517,HF_wild_card,2022.2.4,Win32,60.0060006,63160f375a6aad006c2bce9b,64d2fd46c836a06233681665,64dc7c4c847bd98900133bc4,,,,,,,sngl,resources/DB.BMP,resources/Empty.png,Door3,-0.257407407,0,1,0,0,0.7495,optionLeft,70,4365,2,39,0,39,0,1,,,,,,,,,,,,,,,,,,,,,,,,,,,,,,,,,,,,,,,
,,,,,,,,2023-08-16_08h38.24.517,HF_wild_card,2022.2.4,Win32,60.0060006,63160f375a6aad006c2bce9b,64d2fd46c836a06233681665,64dc7c4c847bd98900133bc4,,,,,,,decisionTrl,resources/DBN.BMP,resources/DG.BMP,Door1,-0.3,0.033333333,1,0,0,1.1711,optionLeft,30,4395,2,40,0,40,0,1,,,,,,,,,,,,,,,,,,,,,,,,,,,,,,,,,,,,,,,
,,,,,,,,2023-08-16_08h38.24.517,HF_wild_card,2022.2.4,Win32,60.0060006,63160f375a6aad006c2bce9b,64d2fd46c836a06233681665,64dc7c4c847bd98900133bc4,,,,,,,decisionTrl,resources/DY.BMP,resources/DG.BMP,Door2,0.396296296,0.002777778,1,0,0,0.7646,optionRight,40,4435,2,41,0,41,0,1,,,,,,,,,,,,,,,,,,,,,,,,,,,,,,,,,,,,,,,
,,,,,,,,2023-08-16_08h38.24.517,HF_wild_card,2022.2.4,Win32,60.0060006,63160f375a6aad006c2bce9b,64d2fd46c836a06233681665,64dc7c4c847bd98900133bc4,,,,,,,decisionTrl,resources/DR.BMP,resources/DB.BMP,Door4,-0.366666667,0.032407407,1,0,0,0.9136,optionLeft,80,4515,2,42,0,42,0,1,,,,,,,,,,,,,,,,,,,,,,,,,,,,,,,,,,,,,,,
,,,,,,,,2023-08-16_08h38.24.517,HF_wild_card,2022.2.4,Win32,60.0060006,63160f375a6aad006c2bce9b,64d2fd46c836a06233681665,64dc7c4c847bd98900133bc4,,,,,,,decisionTrl,resources/DR.BMP,resources/DB.BMP,Door4,-0.382407407,0,1,0,0,0.9485,optionLeft,60,4575,2,43,0,43,0,1,,,,,,,,,,,,,,,,,,,,,,,,,,,,,,,,,,,,,,,
,,,,,,,,2023-08-16_08h38.24.517,HF_wild_card,2022.2.4,Win32,60.0060006,63160f375a6aad006c2bce9b,64d2fd46c836a06233681665,64dc7c4c847bd98900133bc4,,,,,,,,,,,,,,,,,,,,,,,,,,1,0,1,0,1,,,,,,,,,,,,,,,,,,,,,,,,,,,,,,,,,,
,,,,,,,,2023-08-16_08h38.24.517,HF_wild_card,2022.2.4,Win32,60.0060006,63160f375a6aad006c2bce9b,64d2fd46c836a06233681665,64dc7c4c847bd98900133bc4,,,,,,,decisionTrl,resources/DR.BMP,resources/DB.BMP,Door4,-0.338888889,-0.005555556,1,0,0,1.4647,optionLeft,60,4635,3,0,0,0,0,1,,,,,,,,,,,,,,,,,,,,,,,,,,,,,,,,,,,,,,,
,,,,,,,,2023-08-16_08h38.24.517,HF_wild_card,2022.2.4,Win32,60.0060006,63160f375a6aad006c2bce9b,64d2fd46c836a06233681665,64dc7c4c847bd98900133bc4,,,,,,,decisionTrl,resources/DB.BMP,resources/DR.BMP,Door4,0.313888889,-0.003703704,1,0,0,0.8369,optionRight,80,4715,3,1,0,1,0,1,,,,,,,,,,,,,,,,,,,,,,,,,,,,,,,,,,,,,,,
,,,,,,,,2023-08-16_08h38.24.517,HF_wild_card,2022.2.4,Win32,60.0060006,63160f375a6aad006c2bce9b,64d2fd46c836a06233681665,64dc7c4c847bd98900133bc4,,,,,,,decisionTrl,resources/DG.BMP,resources/DBN.BMP,Door1,0.427777778,0.057407407,1,0,0,1.0936,optionRight,30,4745,3,2,0,2,0,1,,,,,,,,,,,,,,,,,,,,,,,,,,,,,,,,,,,,,,,
,,,,,,,,2023-08-16_08h38.24.517,HF_wild_card,2022.2.4,Win32,60.0060006,63160f375a6aad006c2bce9b,64d2fd46c836a06233681665,64dc7c4c847bd98900133bc4,,,,,,,decisionTrl,resources/DG.BMP,resources/DBN.BMP,Door1,0.284259259,0.003703704,1,0,0,0.8482,optionRight,30,4775,3,3,0,3,0,1,,,,,,,,,,,,,,,,,,,,,,,,,,,,,,,,,,,,,,,
,,,,,,,,2023-08-16_08h38.24.517,HF_wild_card,2022.2.4,Win32,60.0060006,63160f375a6aad006c2bce9b,64d2fd46c836a06233681665,64dc7c4c847bd98900133bc4,,,,,,,ctch,resources/DBN.BMP,resources/DR.BMP,Door4,0.407407407,-0.015740741,1,0,0,1.2029,optionRight,80,4855,3,4,0,4,0,1,,,,,,,,,,,,,,,,,,,,,,,,,,,,,,,,,,,,,,,
,,,,,,,,2023-08-16_08h38.24.517,HF_wild_card,2022.2.4,Win32,60.0060006,63160f375a6aad006c2bce9b,64d2fd46c836a06233681665,64dc7c4c847bd98900133bc4,,,,,,,decisionTrl,resources/DG.BMP,resources/DBN.BMP,Door1,0.240740741,0.021296296,1,0,0,1.4495,optionRight,30,4885,3,5,0,5,0,1,,,,,,,,,,,,,,,,,,,,,,,,,,,,,,,,,,,,,,,
,,,,,,,,2023-08-16_08h38.24.517,HF_wild_card,2022.2.4,Win32,60.0060006,63160f375a6aad006c2bce9b,64d2fd46c836a06233681665,64dc7c4c847bd98900133bc4,,,,,,,ctch,resources/DG.BMP,resources/DB.BMP,Door3,0.315740741,-0.001851852,1,0,0,0.8982,optionRight,70,4955,3,6,0,6,0,1,,,,,,,,,,,,,,,,,,,,,,,,,,,,,,,,,,,,,,,
,,,,,,,,2023-08-16_08h38.24.517,HF_wild_card,2022.2.4,Win32,60.0060006,63160f375a6aad006c2bce9b,64d2fd46c836a06233681665,64dc7c4c847bd98900133bc4,,,,,,,sngl,resources/DBN.BMP,resources/Empty.png,Door1,-0.287962963,0.04537037,1,0,0,0.6035,optionLeft,30,4985,3,7,0,7,0,1,,,,,,,,,,,,,,,,,,,,,,,,,,,,,,,,,,,,,,,
,,,,,,,,2023-08-16_08h38.24.517,HF_wild_card,2022.2.4,Win32,60.0060006,63160f375a6aad006c2bce9b,64d2fd46c836a06233681665,64dc7c4c847bd98900133bc4,,,,,,,ctch,resources/DBN.BMP,resources/DR.BMP,Door4,0.37962963,-0.013888889,1,0,0,0.8663,optionRight,60,5045,3,8,0,8,0,1,,,,,,,,,,,,,,,,,,,,,,,,,,,,,,,,,,,,,,,
,,,,,,,,2023-08-16_08h38.24.517,HF_wild_card,2022.2.4,Win32,60.0060006,63160f375a6aad006c2bce9b,64d2fd46c836a06233681665,64dc7c4c847bd98900133bc4,,,,,,,decisionTrl,resources/DBN.BMP,resources/DG.BMP,Door1,-0.299074074,0.05,1,0,0,0.8371,optionLeft,30,5075,3,9,0,9,0,1,,,,,,,,,,,,,,,,,,,,,,,,,,,,,,,,,,,,,,,
,,,,,,,,2023-08-16_08h38.24.517,HF_wild_card,2022.2.4,Win32,60.0060006,63160f375a6aad006c2bce9b,64d2fd46c836a06233681665,64dc7c4c847bd98900133bc4,,,,,,,decisionTrl,resources/DBN.BMP,resources/DY.BMP,Door1,-0.293518519,0.051851852,1,0,0,0.7979,optionLeft,30,5105,3,10,0,10,0,1,,,,,,,,,,,,,,,,,,,,,,,,,,,,,,,,,,,,,,,
,,,,,,,,2023-08-16_08h38.24.517,HF_wild_card,2022.2.4,Win32,60.0060006,63160f375a6aad006c2bce9b,64d2fd46c836a06233681665,64dc7c4c847bd98900133bc4,,,,,,,decisionTrl,resources/DR.BMP,resources/DY.BMP,Door4,-0.398148148,0.050925926,1,0,0,0.7814,optionLeft,60,5165,3,11,0,11,0,1,,,,,,,,,,,,,,,,,,,,,,,,,,,,,,,,,,,,,,,
,,,,,,,,2023-08-16_08h38.24.517,HF_wild_card,2022.2.4,Win32,60.0060006,63160f375a6aad006c2bce9b,64d2fd46c836a06233681665,64dc7c4c847bd98900133bc4,,,,,,,decisionTrl,resources/DG.BMP,resources/DBN.BMP,Door1,0.35,-0.049074074,1,0,0,0.8859,optionRight,30,5195,3,12,0,12,0,1,,,,,,,,,,,,,,,,,,,,,,,,,,,,,,,,,,,,,,,
,,,,,,,,2023-08-16_08h38.24.517,HF_wild_card,2022.2.4,Win32,60.0060006,63160f375a6aad006c2bce9b,64d2fd46c836a06233681665,64dc7c4c847bd98900133bc4,,,,,,,ctch,resources/DR.BMP,resources/DBN.BMP,Door4,-0.375925926,0.016666667,1,0,0,0.92,optionLeft,80,5275,3,13,0,13,0,1,,,,,,,,,,,,,,,,,,,,,,,,,,,,,,,,,,,,,,,
,,,,,,,,2023-08-16_08h38.24.517,HF_wild_card,2022.2.4,Win32,60.0060006,63160f375a6aad006c2bce9b,64d2fd46c836a06233681665,64dc7c4c847bd98900133bc4,,,,,,,decisionTrl,resources/DB.BMP,resources/DY.BMP,Door3,-0.308333333,-0.002777778,1,0,0,0.9481,optionLeft,70,5345,3,14,0,14,0,1,,,,,,,,,,,,,,,,,,,,,,,,,,,,,,,,,,,,,,,
,,,,,,,,2023-08-16_08h38.24.517,HF_wild_card,2022.2.4,Win32,60.0060006,63160f375a6aad006c2bce9b,64d2fd46c836a06233681665,64dc7c4c847bd98900133bc4,,,,,,,sngl,resources/DG.BMP,resources/Empty.png,Door2,-0.312962963,0.005555556,1,0,0,0.697,optionLeft,40,5385,3,15,0,15,0,1,,,,,,,,,,,,,,,,,,,,,,,,,,,,,,,,,,,,,,,
,,,,,,,,2023-08-16_08h38.24.517,HF_wild_card,2022.2.4,Win32,60.0060006,63160f375a6aad006c2bce9b,64d2fd46c836a06233681665,64dc7c4c847bd98900133bc4,,,,,,,sngl,resources/Empty.png,resources/DY.BMP,WildCard_Ex,0.250925926,-0.003703704,1,0,0,0.7495,optionRight,95,5480,3,16,0,16,0,1,,,,,,,,,,,,,,,,,,,,,,,,,,,,,,,,,,,,,,,
,,,,,,,,2023-08-16_08h38.24.517,HF_wild_card,2022.2.4,Win32,60.0060006,63160f375a6aad006c2bce9b,64d2fd46c836a06233681665,64dc7c4c847bd98900133bc4,,,,,,,decisionTrl,resources/DY.BMP,resources/DR.BMP,Door4,0.302777778,0.00462963,1,0,0,0.9163,optionRight,60,5540,3,17,0,17,0,1,,,,,,,,,,,,,,,,,,,,,,,,,,,,,,,,,,,,,,,
,,,,,,,,2023-08-16_08h38.24.517,HF_wild_card,2022.2.4,Win32,60.0060006,63160f375a6aad006c2bce9b,64d2fd46c836a06233681665,64dc7c4c847bd98900133bc4,,,,,,,decisionTrl,resources/DY.BMP,resources/DBN.BMP,Door1,0.291666667,-0.007407407,1,0,0,0.9313,optionRight,30,5570,3,18,0,18,0,1,,,,,,,,,,,,,,,,,,,,,,,,,,,,,,,,,,,,,,,
,,,,,,,,2023-08-16_08h38.24.517,HF_wild_card,2022.2.4,Win32,60.0060006,63160f375a6aad006c2bce9b,64d2fd46c836a06233681665,64dc7c4c847bd98900133bc4,,,,,,,decisionTrl,resources/DBN.BMP,resources/DG.BMP,Door1,-0.298148148,0.034259259,1,0,0,1.9202,optionLeft,30,5600,3,19,0,19,0,1,,,,,,,,,,,,,,,,,,,,,,,,,,,,,,,,,,,,,,,
,,,,,,,,2023-08-16_08h38.24.517,HF_wild_card,2022.2.4,Win32,60.0060006,63160f375a6aad006c2bce9b,64d2fd46c836a06233681665,64dc7c4c847bd98900133bc4,,,,,,,ctch,resources/DR.BMP,resources/DBN.BMP,Door4,-0.338888889,-0.021296296,1,0,0,1.2106,optionLeft,60,5660,3,20,0,20,0,1,,,,,,,,,,,,,,,,,,,,,,,,,,,,,,,,,,,,,,,
,,,,,,,,2023-08-16_08h38.24.517,HF_wild_card,2022.2.4,Win32,60.0060006,63160f375a6aad006c2bce9b,64d2fd46c836a06233681665,64dc7c4c847bd98900133bc4,,,,,,,sngl,resources/Empty.png,resources/DBN.BMP,Door1,0.405555556,-0.009259259,1,0,0,0.6814,optionRight,30,5690,3,21,0,21,0,1,,,,,,,,,,,,,,,,,,,,,,,,,,,,,,,,,,,,,,,
,,,,,,,,2023-08-16_08h38.24.517,HF_wild_card,2022.2.4,Win32,60.0060006,63160f375a6aad006c2bce9b,64d2fd46c836a06233681665,64dc7c4c847bd98900133bc4,,,,,,,sngl,resources/Empty.png,resources/DB.BMP,Door3,0.336111111,-0.007407407,1,0,0,0.6269,optionRight,70,5760,3,22,0,22,0,1,,,,,,,,,,,,,,,,,,,,,,,,,,,,,,,,,,,,,,,
,,,,,,,,2023-08-16_08h38.24.517,HF_wild_card,2022.2.4,Win32,60.0060006,63160f375a6aad006c2bce9b,64d2fd46c836a06233681665,64dc7c4c847bd98900133bc4,,,,,,,decisionTrl,resources/DB.BMP,resources/DR.BMP,Door3,-0.251851852,0.003703704,1,0,0,1.0972,optionLeft,70,5830,3,23,0,23,0,1,,,,,,,,,,,,,,,,,,,,,,,,,,,,,,,,,,,,,,,
,,,,,,,,2023-08-16_08h38.24.517,HF_wild_card,2022.2.4,Win32,60.0060006,63160f375a6aad006c2bce9b,64d2fd46c836a06233681665,64dc7c4c847bd98900133bc4,,,,,,,ctch,resources/DB.BMP,resources/DG.BMP,Door3,-0.337037037,-0.016666667,1,0,0,0.6304,optionLeft,70,5900,3,24,0,24,0,1,,,,,,,,,,,,,,,,,,,,,,,,,,,,,,,,,,,,,,,
,,,,,,,,2023-08-16_08h38.24.517,HF_wild_card,2022.2.4,Win32,60.0060006,63160f375a6aad006c2bce9b,64d2fd46c836a06233681665,64dc7c4c847bd98900133bc4,,,,,,,decisionTrl,resources/DR.BMP,resources/DB.BMP,Door3,0.322222222,-0.015740741,1,0,0,0.953,optionRight,70,5970,3,25,0,25,0,1,,,,,,,,,,,,,,,,,,,,,,,,,,,,,,,,,,,,,,,
,,,,,,,,2023-08-16_08h38.24.517,HF_wild_card,2022.2.4,Win32,60.0060006,63160f375a6aad006c2bce9b,64d2fd46c836a06233681665,64dc7c4c847bd98900133bc4,,,,,,,sngl,resources/Empty.png,resources/DR.BMP,Door4,0.39537037,-0.024074074,1,0,0,0.6142,optionRight,60,6030,3,26,0,26,0,1,,,,,,,,,,,,,,,,,,,,,,,,,,,,,,,,,,,,,,,
,,,,,,,,2023-08-16_08h38.24.517,HF_wild_card,2022.2.4,Win32,60.0060006,63160f375a6aad006c2bce9b,64d2fd46c836a06233681665,64dc7c4c847bd98900133bc4,,,,,,,sngl,resources/DY.BMP,resources/Empty.png,WildCard_Ex,-0.280555556,-0.00462963,1,0,0,0.7271,optionLeft,5,6035,3,27,0,27,0,1,,,,,,,,,,,,,,,,,,,,,,,,,,,,,,,,,,,,,,,
,,,,,,,,2023-08-16_08h38.24.517,HF_wild_card,2022.2.4,Win32,60.0060006,63160f375a6aad006c2bce9b,64d2fd46c836a06233681665,64dc7c4c847bd98900133bc4,,,,,,,ctch,resources/DG.BMP,resources/DB.BMP,Door3,0.267592593,0.011111111,1,0,0,0.7647,optionRight,70,6105,3,28,0,28,0,1,,,,,,,,,,,,,,,,,,,,,,,,,,,,,,,,,,,,,,,
,,,,,,,,2023-08-16_08h38.24.517,HF_wild_card,2022.2.4,Win32,60.0060006,63160f375a6aad006c2bce9b,64d2fd46c836a06233681665,64dc7c4c847bd98900133bc4,,,,,,,sngl,resources/DB.BMP,resources/Empty.png,Door3,-0.275,0.001851852,1,0,0,0.6145,optionLeft,70,6175,3,29,0,29,0,1,,,,,,,,,,,,,,,,,,,,,,,,,,,,,,,,,,,,,,,
,,,,,,,,2023-08-16_08h38.24.517,HF_wild_card,2022.2.4,Win32,60.0060006,63160f375a6aad006c2bce9b,64d2fd46c836a06233681665,64dc7c4c847bd98900133bc4,,,,,,,sngl,resources/DR.BMP,resources/Empty.png,Door4,-0.326851852,0.027777778,1,0,0,0.5986,optionLeft,80,6255,3,30,0,30,0,1,,,,,,,,,,,,,,,,,,,,,,,,,,,,,,,,,,,,,,,
,,,,,,,,2023-08-16_08h38.24.517,HF_wild_card,2022.2.4,Win32,60.0060006,63160f375a6aad006c2bce9b,64d2fd46c836a06233681665,64dc7c4c847bd98900133bc4,,,,,,,decisionTrl,resources/DB.BMP,resources/DR.BMP,Door3,-0.353703704,-0.000925926,1,0,0,1.3607,optionLeft,70,6325,3,31,0,31,0,1,,,,,,,,,,,,,,,,,,,,,,,,,,,,,,,,,,,,,,,
,,,,,,,,2023-08-16_08h38.24.517,HF_wild_card,2022.2.4,Win32,60.0060006,63160f375a6aad006c2bce9b,64d2fd46c836a06233681665,64dc7c4c847bd98900133bc4,,,,,,,decisionTrl,resources/DR.BMP,resources/DB.BMP,Door3,0.310185185,-0.012962963,1,0,0,0.6767,optionRight,70,6395,3,32,0,32,0,1,,,,,,,,,,,,,,,,,,,,,,,,,,,,,,,,,,,,,,,
,,,,,,,,2023-08-16_08h38.24.517,HF_wild_card,2022.2.4,Win32,60.0060006,63160f375a6aad006c2bce9b,64d2fd46c836a06233681665,64dc7c4c847bd98900133bc4,,,,,,,decisionTrl,resources/DR.BMP,resources/DB.BMP,Door4,-0.348148148,-0.001851852,1,0,0,0.7648,optionLeft,60,6455,3,33,0,33,0,1,,,,,,,,,,,,,,,,,,,,,,,,,,,,,,,,,,,,,,,
,,,,,,,,2023-08-16_08h38.24.517,HF_wild_card,2022.2.4,Win32,60.0060006,63160f375a6aad006c2bce9b,64d2fd46c836a06233681665,64dc7c4c847bd98900133bc4,,,,,,,decisionTrl,resources/DG.BMP,resources/DY.BMP,WildCard_Ex,0.418518519,-0.008333333,1,0,0,0.9766,optionRight,5,6460,3,34,0,34,0,1,,,,,,,,,,,,,,,,,,,,,,,,,,,,,,,,,,,,,,,
,,,,,,,,2023-08-16_08h38.24.517,HF_wild_card,2022.2.4,Win32,60.0060006,63160f375a6aad006c2bce9b,64d2fd46c836a06233681665,64dc7c4c847bd98900133bc4,,,,,,,decisionTrl,resources/DBN.BMP,resources/DG.BMP,Door1,-0.348148148,0.034259259,1,0,0,0.8453,optionLeft,30,6490,3,35,0,35,0,1,,,,,,,,,,,,,,,,,,,,,,,,,,,,,,,,,,,,,,,
,,,,,,,,2023-08-16_08h38.24.517,HF_wild_card,2022.2.4,Win32,60.0060006,63160f375a6aad006c2bce9b,64d2fd46c836a06233681665,64dc7c4c847bd98900133bc4,,,,,,,sngl,resources/DY.BMP,resources/Empty.png,WildCard_Ex,-0.266666667,-0.002777778,1,0,0,0.7145,optionLeft,95,6585,3,36,0,36,0,1,,,,,,,,,,,,,,,,,,,,,,,,,,,,,,,,,,,,,,,
,,,,,,,,2023-08-16_08h38.24.517,HF_wild_card,2022.2.4,Win32,60.0060006,63160f375a6aad006c2bce9b,64d2fd46c836a06233681665,64dc7c4c847bd98900133bc4,,,,,,,decisionTrl,resources/DB.BMP,resources/DR.BMP,Door3,-0.322222222,0.02037037,1,0,0,0.8139,optionLeft,70,6655,3,37,0,37,0,1,,,,,,,,,,,,,,,,,,,,,,,,,,,,,,,,,,,,,,,
,,,,,,,,2023-08-16_08h38.24.517,HF_wild_card,2022.2.4,Win32,60.0060006,63160f375a6aad006c2bce9b,64d2fd46c836a06233681665,64dc7c4c847bd98900133bc4,,,,,,,decisionTrl,resources/DY.BMP,resources/DB.BMP,Door3,0.317592593,0.011111111,1,0,0,0.6812,optionRight,70,6725,3,38,0,38,0,1,,,,,,,,,,,,,,,,,,,,,,,,,,,,,,,,,,,,,,,
,,,,,,,,2023-08-16_08h38.24.517,HF_wild_card,2022.2.4,Win32,60.0060006,63160f375a6aad006c2bce9b,64d2fd46c836a06233681665,64dc7c4c847bd98900133bc4,,,,,,,decisionTrl,resources/DY.BMP,resources/DG.BMP,WildCard_Ex,-0.444444444,-0.02037037,1,0,0,0.5271,optionLeft,95,6820,3,39,0,39,0,1,,,,,,,,,,,,,,,,,,,,,,,,,,,,,,,,,,,,,,,
,,,,,,,,2023-08-16_08h38.24.517,HF_wild_card,2022.2.4,Win32,60.0060006,63160f375a6aad006c2bce9b,64d2fd46c836a06233681665,64dc7c4c847bd98900133bc4,,,,,,,ctch,resources/DB.BMP,resources/DG.BMP,Door3,-0.477777778,-0.001851852,1,0,0,0.6602,optionLeft,70,6890,3,40,0,40,0,1,,,,,,,,,,,,,,,,,,,,,,,,,,,,,,,,,,,,,,,
,,,,,,,,2023-08-16_08h38.24.517,HF_wild_card,2022.2.4,Win32,60.0060006,63160f375a6aad006c2bce9b,64d2fd46c836a06233681665,64dc7c4c847bd98900133bc4,,,,,,,sngl,resources/Empty.png,resources/DY.BMP,WildCard_Ex,0.45462963,-0.010185185,1,0,0,1.0493,optionRight,5,6895,3,41,0,41,0,1,,,,,,,,,,,,,,,,,,,,,,,,,,,,,,,,,,,,,,,
,,,,,,,,2023-08-16_08h38.24.517,HF_wild_card,2022.2.4,Win32,60.0060006,63160f375a6aad006c2bce9b,64d2fd46c836a06233681665,64dc7c4c847bd98900133bc4,,,,,,,decisionTrl,resources/DBN.BMP,resources/DG.BMP,Door1,-0.330555556,0.014814815,1,0,0,0.6769,optionLeft,30,6925,3,42,0,42,0,1,,,,,,,,,,,,,,,,,,,,,,,,,,,,,,,,,,,,,,,
,,,,,,,,2023-08-16_08h38.24.517,HF_wild_card,2022.2.4,Win32,60.0060006,63160f375a6aad006c2bce9b,64d2fd46c836a06233681665,64dc7c4c847bd98900133bc4,,,,,,,sngl,resources/Empty.png,resources/DG.BMP,Door2,0.405555556,-0.005555556,1,0,0,0.6154,optionRight,20,6945,3,43,0,43,0,1,,,,,,,,,,,,,,,,,,,,,,,,,,,,,,,,,,,,,,,
,,,,,,,,2023-08-16_08h38.24.517,HF_wild_card,2022.2.4,Win32,60.0060006,63160f375a6aad006c2bce9b,64d2fd46c836a06233681665,64dc7c4c847bd98900133bc4,,,,,,,,,,,,,,,,,,,,,,,,,,2,0,2,0,1,,,,,,,,,,,,,,,,,,,,,,,,,,,,,,,,,,
,,,,,,,,2023-08-16_08h38.24.517,HF_wild_card,2022.2.4,Win32,60.0060006,63160f375a6aad006c2bce9b,64d2fd46c836a06233681665,64dc7c4c847bd98900133bc4,,,,,,,sngl,resources/Empty.png,resources/DB.BMP,Door3,0.502777778,0.080555556,1,0,0,0.6308,optionRight,70,7015,4,0,0,0,0,1,,,,,,,,,,,,,,,,,,,,,,,,,,,,,,,,,,,,,,,
,,,,,,,,2023-08-16_08h38.24.517,HF_wild_card,2022.2.4,Win32,60.0060006,63160f375a6aad006c2bce9b,64d2fd46c836a06233681665,64dc7c4c847bd98900133bc4,,,,,,,sngl,resources/Empty.png,resources/DP.BMP,WildCard_NonEx,0.27037037,0.001851852,1,0,0,0.52,optionRight,55,7070,4,1,0,1,0,1,,,,,,,,,,,,,,,,,,,,,,,,,,,,,,,,,,,,,,,
,,,,,,,,2023-08-16_08h38.24.517,HF_wild_card,2022.2.4,Win32,60.0060006,63160f375a6aad006c2bce9b,64d2fd46c836a06233681665,64dc7c4c847bd98900133bc4,,,,,,,decisionTrl,resources/DP.BMP,resources/DB.BMP,Door3,0.523148148,0.005555556,1,0,0,1.2596,optionRight,70,7140,4,2,0,2,0,1,,,,,,,,,,,,,,,,,,,,,,,,,,,,,,,,,,,,,,,
,,,,,,,,2023-08-16_08h38.24.517,HF_wild_card,2022.2.4,Win32,60.0060006,63160f375a6aad006c2bce9b,64d2fd46c836a06233681665,64dc7c4c847bd98900133bc4,,,,,,,ctch,resources/DG.BMP,resources/DB.BMP,Door3,0.283333333,-0.005555556,1,0,0,0.7479,optionRight,70,7210,4,3,0,3,0,1,,,,,,,,,,,,,,,,,,,,,,,,,,,,,,,,,,,,,,,
,,,,,,,,2023-08-16_08h38.24.517,HF_wild_card,2022.2.4,Win32,60.0060006,63160f375a6aad006c2bce9b,64d2fd46c836a06233681665,64dc7c4c847bd98900133bc4,,,,,,,ctch,resources/DB.BMP,resources/DG.BMP,Door3,-0.328703704,-0.003703704,1,0,0,0.715,optionLeft,70,7280,4,4,0,4,0,1,,,,,,,,,,,,,,,,,,,,,,,,,,,,,,,,,,,,,,,
,,,,,,,,2023-08-16_08h38.24.517,HF_wild_card,2022.2.4,Win32,60.0060006,63160f375a6aad006c2bce9b,64d2fd46c836a06233681665,64dc7c4c847bd98900133bc4,,,,,,,sngl,resources/DP.BMP,resources/Empty.png,WildCard_NonEx,-0.405555556,-0.033333333,1,0,0,0.6275,optionLeft,55,7335,4,5,0,5,0,1,,,,,,,,,,,,,,,,,,,,,,,,,,,,,,,,,,,,,,,
,,,,,,,,2023-08-16_08h38.24.517,HF_wild_card,2022.2.4,Win32,60.0060006,63160f375a6aad006c2bce9b,64d2fd46c836a06233681665,64dc7c4c847bd98900133bc4,,,,,,,decisionTrl,resources/DB.BMP,resources/DR.BMP,Door3,-0.317592593,-0.003703704,1,0,0,1.1476,optionLeft,70,7405,4,6,0,6,0,1,,,,,,,,,,,,,,,,,,,,,,,,,,,,,,,,,,,,,,,
,,,,,,,,2023-08-16_08h38.24.517,HF_wild_card,2022.2.4,Win32,60.0060006,63160f375a6aad006c2bce9b,64d2fd46c836a06233681665,64dc7c4c847bd98900133bc4,,,,,,,decisionTrl,resources/DP.BMP,resources/DBN.BMP,WildCard_NonEx,-0.267592593,-0.017592593,1,0,0,1.2036,optionLeft,55,7460,4,7,0,7,0,1,,,,,,,,,,,,,,,,,,,,,,,,,,,,,,,,,,,,,,,
,,,,,,,,2023-08-16_08h38.24.517,HF_wild_card,2022.2.4,Win32,60.0060006,63160f375a6aad006c2bce9b,64d2fd46c836a06233681665,64dc7c4c847bd98900133bc4,,,,,,,sngl,resources/Empty.png,resources/DBN.BMP,Door1,0.314814815,-0.009259259,1,0,0,0.5644,optionRight,30,7490,4,8,0,8,0,1,,,,,,,,,,,,,,,,,,,,,,,,,,,,,,,,,,,,,,,
,,,,,,,,2023-08-16_08h38.24.517,HF_wild_card,2022.2.4,Win32,60.0060006,63160f375a6aad006c2bce9b,64d2fd46c836a06233681665,64dc7c4c847bd98900133bc4,,,,,,,decisionTrl,resources/DR.BMP,resources/DB.BMP,Door4,-0.327777778,-0.018518519,1,0,0,1.5935,optionLeft,60,7550,4,9,0,9,0,1,,,,,,,,,,,,,,,,,,,,,,,,,,,,,,,,,,,,,,,
,,,,,,,,2023-08-16_08h38.24.517,HF_wild_card,2022.2.4,Win32,60.0060006,63160f375a6aad006c2bce9b,64d2fd46c836a06233681665,64dc7c4c847bd98900133bc4,,,,,,,decisionTrl,resources/DG.BMP,resources/DBN.BMP,Door1,0.410185185,0.047222222,1,0,0,1.4032,optionRight,30,7580,4,10,0,10,0,1,,,,,,,,,,,,,,,,,,,,,,,,,,,,,,,,,,,,,,,
,,,,,,,,2023-08-16_08h38.24.517,HF_wild_card,2022.2.4,Win32,60.0060006,63160f375a6aad006c2bce9b,64d2fd46c836a06233681665,64dc7c4c847bd98900133bc4,,,,,,,decisionTrl,resources/DB.BMP,resources/DR.BMP,Door3,-0.437962963,0.034259259,1,0,0,0.6826,optionLeft,70,7650,4,11,0,11,0,1,,,,,,,,,,,,,,,,,,,,,,,,,,,,,,,,,,,,,,,
,,,,,,,,2023-08-16_08h38.24.517,HF_wild_card,2022.2.4,Win32,60.0060006,63160f375a6aad006c2bce9b,64d2fd46c836a06233681665,64dc7c4c847bd98900133bc4,,,,,,,decisionTrl,resources/DG.BMP,resources/DBN.BMP,Door1,0.365740741,0.017592593,1,0,0,1.237,optionRight,30,7680,4,12,0,12,0,1,,,,,,,,,,,,,,,,,,,,,,,,,,,,,,,,,,,,,,,
,,,,,,,,2023-08-16_08h38.24.517,HF_wild_card,2022.2.4,Win32,60.0060006,63160f375a6aad006c2bce9b,64d2fd46c836a06233681665,64dc7c4c847bd98900133bc4,,,,,,,decisionTrl,resources/DP.BMP,resources/DG.BMP,WildCard_NonEx,-0.342592593,-0.02037037,1,0,0,0.7442,optionLeft,45,7725,4,13,0,13,0,1,,,,,,,,,,,,,,,,,,,,,,,,,,,,,,,,,,,,,,,
,,,,,,,,2023-08-16_08h38.24.517,HF_wild_card,2022.2.4,Win32,60.0060006,63160f375a6aad006c2bce9b,64d2fd46c836a06233681665,64dc7c4c847bd98900133bc4,,,,,,,decisionTrl,resources/DBN.BMP,resources/DG.BMP,Door1,-0.255555556,0.019444444,1,0,0,1.3145,optionLeft,30,7755,4,14,0,14,0,1,,,,,,,,,,,,,,,,,,,,,,,,,,,,,,,,,,,,,,,
,,,,,,,,2023-08-16_08h38.24.517,HF_wild_card,2022.2.4,Win32,60.0060006,63160f375a6aad006c2bce9b,64d2fd46c836a06233681665,64dc7c4c847bd98900133bc4,,,,,,,decisionTrl,resources/DBN.BMP,resources/DG.BMP,Door2,0.443518519,0.013888889,1,0,0,1.0202,optionRight,40,7795,4,15,0,15,0,1,,,,,,,,,,,,,,,,,,,,,,,,,,,,,,,,,,,,,,,
,,,,,,,,2023-08-16_08h38.24.517,HF_wild_card,2022.2.4,Win32,60.0060006,63160f375a6aad006c2bce9b,64d2fd46c836a06233681665,64dc7c4c847bd98900133bc4,,,,,,,sngl,resources/DB.BMP,resources/Empty.png,Door3,-0.232407407,-0.009259259,1,0,0,0.5946,optionLeft,70,7865,4,16,0,16,0,1,,,,,,,,,,,,,,,,,,,,,,,,,,,,,,,,,,,,,,,
,,,,,,,,2023-08-16_08h38.24.517,HF_wild_card,2022.2.4,Win32,60.0060006,63160f375a6aad006c2bce9b,64d2fd46c836a06233681665,64dc7c4c847bd98900133bc4,,,,,,,decisionTrl,resources/DR.BMP,resources/DB.BMP,Door3,0.341666667,0.013888889,1,0,0,0.9645,optionRight,70,7935,4,17,0,17,0,1,,,,,,,,,,,,,,,,,,,,,,,,,,,,,,,,,,,,,,,
,,,,,,,,2023-08-16_08h38.24.517,HF_wild_card,2022.2.4,Win32,60.0060006,63160f375a6aad006c2bce9b,64d2fd46c836a06233681665,64dc7c4c847bd98900133bc4,,,,,,,ctch,resources/DB.BMP,resources/DG.BMP,Door3,-0.280555556,-0.003703704,1,0,0,0.6703,optionLeft,70,8005,4,18,0,18,0,1,,,,,,,,,,,,,,,,,,,,,,,,,,,,,,,,,,,,,,,
,,,,,,,,2023-08-16_08h38.24.517,HF_wild_card,2022.2.4,Win32,60.0060006,63160f375a6aad006c2bce9b,64d2fd46c836a06233681665,64dc7c4c847bd98900133bc4,,,,,,,sngl,resources/DR.BMP,resources/Empty.png,Door4,-0.292592593,0.012037037,1,0,0,0.8146,optionLeft,60,8065,4,19,0,19,0,1,,,,,,,,,,,,,,,,,,,,,,,,,,,,,,,,,,,,,,,
,,,,,,,,2023-08-16_08h38.24.517,HF_wild_card,2022.2.4,Win32,60.0060006,63160f375a6aad006c2bce9b,64d2fd46c836a06233681665,64dc7c4c847bd98900133bc4,,,,,,,ctch,resources/DR.BMP,resources/DBN.BMP,Door4,-0.352777778,0.00462963,1,0,0,1.598,optionLeft,60,8125,4,20,0,20,0,1,,,,,,,,,,,,,,,,,,,,,,,,,,,,,,,,,,,,,,,
,,,,,,,,2023-08-16_08h38.24.517,HF_wild_card,2022.2.4,Win32,60.0060006,63160f375a6aad006c2bce9b,64d2fd46c836a06233681665,64dc7c4c847bd98900133bc4,,,,,,,decisionTrl,resources/DBN.BMP,resources/DG.BMP,Door2,0.346296296,-0.007407407,1,0,0,1.015,optionRight,20,8145,4,21,0,21,0,1,,,,,,,,,,,,,,,,,,,,,,,,,,,,,,,,,,,,,,,
,,,,,,,,2023-08-16_08h38.24.517,HF_wild_card,2022.2.4,Win32,60.0060006,63160f375a6aad006c2bce9b,64d2fd46c836a06233681665,64dc7c4c847bd98900133bc4,,,,,,,decisionTrl,resources/DG.BMP,resources/DBN.BMP,Door2,-0.40462963,-0.013888889,1,0,0,0.7977,optionLeft,20,8165,4,22,0,22,0,1,,,,,,,,,,,,,,,,,,,,,,,,,,,,,,,,,,,,,,,
,,,,,,,,2023-08-16_08h38.24.517,HF_wild_card,2022.2.4,Win32,60.0060006,63160f375a6aad006c2bce9b,64d2fd46c836a06233681665,64dc7c4c847bd98900133bc4,,,,,,,decisionTrl,resources/DG.BMP,resources/DBN.BMP,Door2,-0.406481481,0,1,0,0,0.548,optionLeft,40,8205,4,23,0,23,0,1,,,,,,,,,,,,,,,,,,,,,,,,,,,,,,,,,,,,,,,
,,,,,,,,2023-08-16_08h38.24.517,HF_wild_card,2022.2.4,Win32,60.0060006,63160f375a6aad006c2bce9b,64d2fd46c836a06233681665,64dc7c4c847bd98900133bc4,,,,,,,decisionTrl,resources/DB.BMP,resources/DR.BMP,Door3,-0.359259259,0.006481481,1,0,0,1.098,optionLeft,70,8275,4,24,0,24,0,1,,,,,,,,,,,,,,,,,,,,,,,,,,,,,,,,,,,,,,,
,,,,,,,,2023-08-16_08h38.24.517,HF_wild_card,2022.2.4,Win32,60.0060006,63160f375a6aad006c2bce9b,64d2fd46c836a06233681665,64dc7c4c847bd98900133bc4,,,,,,,decisionTrl,resources/DR.BMP,resources/DB.BMP,Door3,0.234259259,-0.007407407,1,0,0,0.6317,optionRight,70,8345,4,25,0,25,0,1,,,,,,,,,,,,,,,,,,,,,,,,,,,,,,,,,,,,,,,
,,,,,,,,2023-08-16_08h38.24.517,HF_wild_card,2022.2.4,Win32,60.0060006,63160f375a6aad006c2bce9b,64d2fd46c836a06233681665,64dc7c4c847bd98900133bc4,,,,,,,sngl,resources/DG.BMP,resources/Empty.png,Door2,-0.333333333,-0.001851852,1,0,0,0.6823,optionLeft,20,8365,4,26,0,26,0,1,,,,,,,,,,,,,,,,,,,,,,,,,,,,,,,,,,,,,,,
,,,,,,,,2023-08-16_08h38.24.517,HF_wild_card,2022.2.4,Win32,60.0060006,63160f375a6aad006c2bce9b,64d2fd46c836a06233681665,64dc7c4c847bd98900133bc4,,,,,,,decisionTrl,resources/DB.BMP,resources/DP.BMP,Door3,-0.337962963,-0.013888889,1,0,0,1.127,optionLeft,70,8435,4,27,0,27,0,1,,,,,,,,,,,,,,,,,,,,,,,,,,,,,,,,,,,,,,,
,,,,,,,,2023-08-16_08h38.24.517,HF_wild_card,2022.2.4,Win32,60.0060006,63160f375a6aad006c2bce9b,64d2fd46c836a06233681665,64dc7c4c847bd98900133bc4,,,,,,,decisionTrl,resources/DG.BMP,resources/DP.BMP,WildCard_NonEx,0.4,-0.006481481,1,0,0,1.2497,optionRight,55,8490,4,28,0,28,0,1,,,,,,,,,,,,,,,,,,,,,,,,,,,,,,,,,,,,,,,
,,,,,,,,2023-08-16_08h38.24.517,HF_wild_card,2022.2.4,Win32,60.0060006,63160f375a6aad006c2bce9b,64d2fd46c836a06233681665,64dc7c4c847bd98900133bc4,,,,,,,sngl,resources/DP.BMP,resources/Empty.png,WildCard_NonEx,-0.367592593,-0.022222222,1,0,0,0.5999,optionLeft,45,8535,4,29,0,29,0,1,,,,,,,,,,,,,,,,,,,,,,,,,,,,,,,,,,,,,,,
,,,,,,,,2023-08-16_08h38.24.517,HF_wild_card,2022.2.4,Win32,60.0060006,63160f375a6aad006c2bce9b,64d2fd46c836a06233681665,64dc7c4c847bd98900133bc4,,,,,,,sngl,resources/Empty.png,resources/DG.BMP,Door2,0.375,-0.00462963,1,0,0,0.5984,optionRight,40,8575,4,30,0,30,0,1,,,,,,,,,,,,,,,,,,,,,,,,,,,,,,,,,,,,,,,
,,,,,,,,2023-08-16_08h38.24.517,HF_wild_card,2022.2.4,Win32,60.0060006,63160f375a6aad006c2bce9b,64d2fd46c836a06233681665,64dc7c4c847bd98900133bc4,,,,,,,decisionTrl,resources/DB.BMP,resources/DR.BMP,Door3,-0.498148148,-0.016666667,1,0,0,0.5938,optionLeft,70,8645,4,31,0,31,0,1,,,,,,,,,,,,,,,,,,,,,,,,,,,,,,,,,,,,,,,
,,,,,,,,2023-08-16_08h38.24.517,HF_wild_card,2022.2.4,Win32,60.0060006,63160f375a6aad006c2bce9b,64d2fd46c836a06233681665,64dc7c4c847bd98900133bc4,,,,,,,decisionTrl,resources/DP.BMP,resources/DR.BMP,Door4,0.40462963,0,1,0,0,1.148,optionRight,60,8705,4,32,0,32,0,1,,,,,,,,,,,,,,,,,,,,,,,,,,,,,,,,,,,,,,,
,,,,,,,,2023-08-16_08h38.24.517,HF_wild_card,2022.2.4,Win32,60.0060006,63160f375a6aad006c2bce9b,64d2fd46c836a06233681665,64dc7c4c847bd98900133bc4,,,,,,,sngl,resources/Empty.png,resources/DR.BMP,Door4,0.315740741,0,1,0,0,0.5768,optionRight,80,8785,4,33,0,33,0,1,,,,,,,,,,,,,,,,,,,,,,,,,,,,,,,,,,,,,,,
,,,,,,,,2023-08-16_08h38.24.517,HF_wild_card,2022.2.4,Win32,60.0060006,63160f375a6aad006c2bce9b,64d2fd46c836a06233681665,64dc7c4c847bd98900133bc4,,,,,,,decisionTrl,resources/DR.BMP,resources/DB.BMP,Door4,-0.465740741,-0.001851852,1,0,0,0.5483,optionLeft,80,8865,4,34,0,34,0,1,,,,,,,,,,,,,,,,,,,,,,,,,,,,,,,,,,,,,,,
,,,,,,,,2023-08-16_08h38.24.517,HF_wild_card,2022.2.4,Win32,60.0060006,63160f375a6aad006c2bce9b,64d2fd46c836a06233681665,64dc7c4c847bd98900133bc4,,,,,,,ctch,resources/DR.BMP,resources/DBN.BMP,Door4,-0.526851852,0,1,0,0,0.5272,optionLeft,60,8925,4,35,0,35,0,1,,,,,,,,,,,,,,,,,,,,,,,,,,,,,,,,,,,,,,,
,,,,,,,,2023-08-16_08h38.24.517,HF_wild_card,2022.2.4,Win32,60.0060006,63160f375a6aad006c2bce9b,64d2fd46c836a06233681665,64dc7c4c847bd98900133bc4,,,,,,,sngl,resources/Empty.png,resources/DP.BMP,WildCard_NonEx,0.396296296,-0.021296296,1,0,0,0.744,optionRight,45,8970,4,36,0,36,0,1,,,,,,,,,,,,,,,,,,,,,,,,,,,,,,,,,,,,,,,
,,,,,,,,2023-08-16_08h38.24.517,HF_wild_card,2022.2.4,Win32,60.0060006,63160f375a6aad006c2bce9b,64d2fd46c836a06233681665,64dc7c4c847bd98900133bc4,,,,,,,ctch,resources/DBN.BMP,resources/DR.BMP,Door4,0.373148148,0.002777778,1,0,0,0.8148,optionRight,80,9050,4,37,0,37,0,1,,,,,,,,,,,,,,,,,,,,,,,,,,,,,,,,,,,,,,,
,,,,,,,,2023-08-16_08h38.24.517,HF_wild_card,2022.2.4,Win32,60.0060006,63160f375a6aad006c2bce9b,64d2fd46c836a06233681665,64dc7c4c847bd98900133bc4,,,,,,,decisionTrl,resources/DBN.BMP,resources/DG.BMP,Door2,0.438888889,0.032407407,1,0,0,1.1808,optionRight,40,9090,4,38,0,38,0,1,,,,,,,,,,,,,,,,,,,,,,,,,,,,,,,,,,,,,,,
,,,,,,,,2023-08-16_08h38.24.517,HF_wild_card,2022.2.4,Win32,60.0060006,63160f375a6aad006c2bce9b,64d2fd46c836a06233681665,64dc7c4c847bd98900133bc4,,,,,,,ctch,resources/DBN.BMP,resources/DR.BMP,Door4,0.326851852,0.027777778,1,0,0,0.831,optionRight,60,9150,4,39,0,39,0,1,,,,,,,,,,,,,,,,,,,,,,,,,,,,,,,,,,,,,,,
,,,,,,,,2023-08-16_08h38.24.517,HF_wild_card,2022.2.4,Win32,60.0060006,63160f375a6aad006c2bce9b,64d2fd46c836a06233681665,64dc7c4c847bd98900133bc4,,,,,,,ctch,resources/DG.BMP,resources/DB.BMP,Door3,0.302777778,0.010185185,1,0,0,0.98,optionRight,70,9220,4,40,0,40,0,1,,,,,,,,,,,,,,,,,,,,,,,,,,,,,,,,,,,,,,,
,,,,,,,,2023-08-16_08h38.24.517,HF_wild_card,2022.2.4,Win32,60.0060006,63160f375a6aad006c2bce9b,64d2fd46c836a06233681665,64dc7c4c847bd98900133bc4,,,,,,,decisionTrl,resources/DR.BMP,resources/DP.BMP,Door4,-0.362037037,0.046296296,1,0,0,1.8164,optionLeft,80,9300,4,41,0,41,0,1,,,,,,,,,,,,,,,,,,,,,,,,,,,,,,,,,,,,,,,
,,,,,,,,2023-08-16_08h38.24.517,HF_wild_card,2022.2.4,Win32,60.0060006,63160f375a6aad006c2bce9b,64d2fd46c836a06233681665,64dc7c4c847bd98900133bc4,,,,,,,decisionTrl,resources/DBN.BMP,resources/DP.BMP,WildCard_NonEx,0.349074074,0.007407407,1,0,0,0.9032,optionRight,55,9355,4,42,0,42,0,1,,,,,,,,,,,,,,,,,,,,,,,,,,,,,,,,,,,,,,,
,,,,,,,,2023-08-16_08h38.24.517,HF_wild_card,2022.2.4,Win32,60.0060006,63160f375a6aad006c2bce9b,64d2fd46c836a06233681665,64dc7c4c847bd98900133bc4,,,,,,,sngl,resources/DBN.BMP,resources/Empty.png,Door1,-0.260185185,0.012037037,1,0,0,0.9203,optionLeft,30,9385,4,43,0,43,0,1,,,,,,,,,,,,,,,,,,,,,,,,,,,,,,,,,,,,,,,
,,,,,,,,2023-08-16_08h38.24.517,HF_wild_card,2022.2.4,Win32,60.0060006,63160f375a6aad006c2bce9b,64d2fd46c836a06233681665,64dc7c4c847bd98900133bc4,,,,,,,,,,,,,,,,,,,,,,,,,,3,0,3,0,1,,,,,,,,,,,,,,,,,,,,,,,,,,,,,,,,,,
,,,,,,,,2023-08-16_08h38.24.517,HF_wild_card,2022.2.4,Win32,60.0060006,63160f375a6aad006c2bce9b,64d2fd46c836a06233681665,64dc7c4c847bd98900133bc4,,,,,,,ctch,resources/DG.BMP,resources/DB.BMP,Door3,0.428703704,0.028703704,1,0,0,0.903,optionRight,70,9455,5,0,0,0,0,1,,,,,,,,,,,,,,,,,,,,,,,,,,,,,,,,,,,,,,,
,,,,,,,,2023-08-16_08h38.24.517,HF_wild_card,2022.2.4,Win32,60.0060006,63160f375a6aad006c2bce9b,64d2fd46c836a06233681665,64dc7c4c847bd98900133bc4,,,,,,,sngl,resources/Empty.png,resources/DG.BMP,Door2,0.399074074,0.011111111,1,0,0,0.5647,optionRight,20,9475,5,1,0,1,0,1,,,,,,,,,,,,,,,,,,,,,,,,,,,,,,,,,,,,,,,
,,,,,,,,2023-08-16_08h38.24.517,HF_wild_card,2022.2.4,Win32,60.0060006,63160f375a6aad006c2bce9b,64d2fd46c836a06233681665,64dc7c4c847bd98900133bc4,,,,,,,decisionTrl,resources/DB.BMP,resources/DR.BMP,Door3,-0.317592593,-0.009259259,1,0,0,1.1933,optionLeft,70,9545,5,2,0,2,0,1,,,,,,,,,,,,,,,,,,,,,,,,,,,,,,,,,,,,,,,
,,,,,,,,2023-08-16_08h38.24.517,HF_wild_card,2022.2.4,Win32,60.0060006,63160f375a6aad006c2bce9b,64d2fd46c836a06233681665,64dc7c4c847bd98900133bc4,,,,,,,sngl,resources/DP.BMP,resources/Empty.png,WildCard_NonEx,-0.398148148,-0.003703704,1,0,0,0.6532,optionLeft,45,9590,5,3,0,3,0,1,,,,,,,,,,,,,,,,,,,,,,,,,,,,,,,,,,,,,,,
,,,,,,,,2023-08-16_08h38.24.517,HF_wild_card,2022.2.4,Win32,60.0060006,63160f375a6aad006c2bce9b,64d2fd46c836a06233681665,64dc7c4c847bd98900133bc4,,,,,,,decisionTrl,resources/DG.BMP,resources/DBN.BMP,Door2,-0.280555556,-0.007407407,1,0,0,1.0481,optionLeft,40,9630,5,4,0,4,0,1,,,,,,,,,,,,,,,,,,,,,,,,,,,,,,,,,,,,,,,
,,,,,,,,2023-08-16_08h38.24.517,HF_wild_card,2022.2.4,Win32,60.0060006,63160f375a6aad006c2bce9b,64d2fd46c836a06233681665,64dc7c4c847bd98900133bc4,,,,,,,decisionTrl,resources/DBN.BMP,resources/DP.BMP,WildCard_NonEx,0.276851852,-0.013888889,1,0,0,0.7649,optionRight,45,9675,5,5,0,5,0,1,,,,,,,,,,,,,,,,,,,,,,,,,,,,,,,,,,,,,,,
,,,,,,,,2023-08-16_08h38.24.517,HF_wild_card,2022.2.4,Win32,60.0060006,63160f375a6aad006c2bce9b,64d2fd46c836a06233681665,64dc7c4c847bd98900133bc4,,,,,,,decisionTrl,resources/DR.BMP,resources/DB.BMP,Door3,0.359259259,-0.012962963,1,0,0,1.1979,optionRight,70,9745,5,6,0,6,0,1,,,,,,,,,,,,,,,,,,,,,,,,,,,,,,,,,,,,,,,
,,,,,,,,2023-08-16_08h38.24.517,HF_wild_card,2022.2.4,Win32,60.0060006,63160f375a6aad006c2bce9b,64d2fd46c836a06233681665,64dc7c4c847bd98900133bc4,,,,,,,sngl,resources/DG.BMP,resources/Empty.png,Door2,-0.262962963,-0.016666667,1,0,0,0.5981,optionLeft,40,9785,5,7,0,7,0,1,,,,,,,,,,,,,,,,,,,,,,,,,,,,,,,,,,,,,,,
,,,,,,,,2023-08-16_08h38.24.517,HF_wild_card,2022.2.4,Win32,60.0060006,63160f375a6aad006c2bce9b,64d2fd46c836a06233681665,64dc7c4c847bd98900133bc4,,,,,,,decisionTrl,resources/DR.BMP,resources/DB.BMP,Door3,0.555555556,-0.008333333,1,0,0,1.0334,optionRight,70,9855,5,8,0,8,0,1,,,,,,,,,,,,,,,,,,,,,,,,,,,,,,,,,,,,,,,
,,,,,,,,2023-08-16_08h38.24.517,HF_wild_card,2022.2.4,Win32,60.0060006,63160f375a6aad006c2bce9b,64d2fd46c836a06233681665,64dc7c4c847bd98900133bc4,,,,,,,decisionTrl,resources/DBN.BMP,resources/DG.BMP,Door2,0.355555556,0.002777778,1,0,0,0.8608,optionRight,40,9895,5,9,0,9,0,1,,,,,,,,,,,,,,,,,,,,,,,,,,,,,,,,,,,,,,,
,,,,,,,,2023-08-16_08h38.24.517,HF_wild_card,2022.2.4,Win32,60.0060006,63160f375a6aad006c2bce9b,64d2fd46c836a06233681665,64dc7c4c847bd98900133bc4,,,,,,,decisionTrl,resources/DG.BMP,resources/DBN.BMP,Door2,-0.361111111,-0.031481481,1,0,0,0.7314,optionLeft,20,9915,5,10,0,10,0,1,,,,,,,,,,,,,,,,,,,,,,,,,,,,,,,,,,,,,,,
,,,,,,,,2023-08-16_08h38.24.517,HF_wild_card,2022.2.4,Win32,60.0060006,63160f375a6aad006c2bce9b,64d2fd46c836a06233681665,64dc7c4c847bd98900133bc4,,,,,,,decisionTrl,resources/DR.BMP,resources/DB.BMP,Door3,0.167592593,-0.009259259,1,0,0,0.7697,optionRight,70,9985,5,11,0,11,0,1,,,,,,,,,,,,,,,,,,,,,,,,,,,,,,,,,,,,,,,
,,,,,,,,2023-08-16_08h38.24.517,HF_wild_card,2022.2.4,Win32,60.0060006,63160f375a6aad006c2bce9b,64d2fd46c836a06233681665,64dc7c4c847bd98900133bc4,,,,,,,ctch,resources/DR.BMP,resources/DBN.BMP,Door4,-0.324074074,-0.033333333,1,0,0,0.6644,optionLeft,60,10045,5,12,0,12,0,1,,,,,,,,,,,,,,,,,,,,,,,,,,,,,,,,,,,,,,,
,,,,,,,,2023-08-16_08h38.24.517,HF_wild_card,2022.2.4,Win32,60.0060006,63160f375a6aad006c2bce9b,64d2fd46c836a06233681665,64dc7c4c847bd98900133bc4,,,,,,,decisionTrl,resources/DBN.BMP,resources/DG.BMP,Door2,0.297222222,-0.007407407,1,0,0,0.7651,optionRight,40,10085,5,13,0,13,0,1,,,,,,,,,,,,,,,,,,,,,,,,,,,,,,,,,,,,,,,
,,,,,,,,2023-08-16_08h38.24.517,HF_wild_card,2022.2.4,Win32,60.0060006,63160f375a6aad006c2bce9b,64d2fd46c836a06233681665,64dc7c4c847bd98900133bc4,,,,,,,decisionTrl,resources/DR.BMP,resources/DP.BMP,Door4,-0.357407407,-0.008333333,1,0,0,0.8646,optionLeft,60,10145,5,14,0,14,0,1,,,,,,,,,,,,,,,,,,,,,,,,,,,,,,,,,,,,,,,
,,,,,,,,2023-08-16_08h38.24.517,HF_wild_card,2022.2.4,Win32,60.0060006,63160f375a6aad006c2bce9b,64d2fd46c836a06233681665,64dc7c4c847bd98900133bc4,,,,,,,decisionTrl,resources/DP.BMP,resources/DG.BMP,WildCard_NonEx,-0.343518519,-0.006481481,1,0,0,1.021,optionLeft,45,10190,5,15,0,15,0,1,,,,,,,,,,,,,,,,,,,,,,,,,,,,,,,,,,,,,,,
,,,,,,,,2023-08-16_08h38.24.517,HF_wild_card,2022.2.4,Win32,60.0060006,63160f375a6aad006c2bce9b,64d2fd46c836a06233681665,64dc7c4c847bd98900133bc4,,,,,,,decisionTrl,resources/DG.BMP,resources/DP.BMP,WildCard_NonEx,0.259259259,-0.027777778,1,0,0,0.9128,optionRight,45,10235,5,16,0,16,0,1,,,,,,,,,,,,,,,,,,,,,,,,,,,,,,,,,,,,,,,
,,,,,,,,2023-08-16_08h38.24.517,HF_wild_card,2022.2.4,Win32,60.0060006,63160f375a6aad006c2bce9b,64d2fd46c836a06233681665,64dc7c4c847bd98900133bc4,,,,,,,decisionTrl,resources/DB.BMP,resources/DR.BMP,Door3,-0.464814815,0.023148148,1,0,0,1.0608,optionLeft,70,10305,5,17,0,17,0,1,,,,,,,,,,,,,,,,,,,,,,,,,,,,,,,,,,,,,,,
,,,,,,,,2023-08-16_08h38.24.517,HF_wild_card,2022.2.4,Win32,60.0060006,63160f375a6aad006c2bce9b,64d2fd46c836a06233681665,64dc7c4c847bd98900133bc4,,,,,,,decisionTrl,resources/DP.BMP,resources/DBN.BMP,WildCard_NonEx,-0.314814815,0.005555556,1,0,0,0.904,optionLeft,55,10360,5,18,0,18,0,1,,,,,,,,,,,,,,,,,,,,,,,,,,,,,,,,,,,,,,,
,,,,,,,,2023-08-16_08h38.24.517,HF_wild_card,2022.2.4,Win32,60.0060006,63160f375a6aad006c2bce9b,64d2fd46c836a06233681665,64dc7c4c847bd98900133bc4,,,,,,,ctch,resources/DB.BMP,resources/DG.BMP,Door3,-0.436111111,0.001851852,1,0,0,0.8105,optionLeft,70,10430,5,19,0,19,0,1,,,,,,,,,,,,,,,,,,,,,,,,,,,,,,,,,,,,,,,
,,,,,,,,2023-08-16_08h38.24.517,HF_wild_card,2022.2.4,Win32,60.0060006,63160f375a6aad006c2bce9b,64d2fd46c836a06233681665,64dc7c4c847bd98900133bc4,,,,,,,decisionTrl,resources/DB.BMP,resources/DR.BMP,Door3,-0.298148148,0.008333333,1,0,0,0.7605,optionLeft,70,10500,5,20,0,20,0,1,,,,,,,,,,,,,,,,,,,,,,,,,,,,,,,,,,,,,,,
,,,,,,,,2023-08-16_08h38.24.517,HF_wild_card,2022.2.4,Win32,60.0060006,63160f375a6aad006c2bce9b,64d2fd46c836a06233681665,64dc7c4c847bd98900133bc4,,,,,,,decisionTrl,resources/DP.BMP,resources/DB.BMP,Door3,0.351851852,0.003703704,1,0,0,1.5145,optionRight,70,10570,5,21,0,21,0,1,,,,,,,,,,,,,,,,,,,,,,,,,,,,,,,,,,,,,,,
,,,,,,,,2023-08-16_08h38.24.517,HF_wild_card,2022.2.4,Win32,60.0060006,63160f375a6aad006c2bce9b,64d2fd46c836a06233681665,64dc7c4c847bd98900133bc4,,,,,,,decisionTrl,resources/DBN.BMP,resources/DG.BMP,Door2,0.290740741,0.007407407,1,0,0,0.783,optionRight,40,10610,5,22,0,22,0,1,,,,,,,,,,,,,,,,,,,,,,,,,,,,,,,,,,,,,,,
,,,,,,,,2023-08-16_08h38.24.517,HF_wild_card,2022.2.4,Win32,60.0060006,63160f375a6aad006c2bce9b,64d2fd46c836a06233681665,64dc7c4c847bd98900133bc4,,,,,,,decisionTrl,resources/DG.BMP,resources/DBN.BMP,Door2,-0.237962963,0.02037037,1,0,0,0.8483,optionLeft,40,10650,5,23,0,23,0,1,,,,,,,,,,,,,,,,,,,,,,,,,,,,,,,,,,,,,,,
,,,,,,,,2023-08-16_08h38.24.517,HF_wild_card,2022.2.4,Win32,60.0060006,63160f375a6aad006c2bce9b,64d2fd46c836a06233681665,64dc7c4c847bd98900133bc4,,,,,,,ctch,resources/DBN.BMP,resources/DR.BMP,Door4,0.399074074,-0.003703704,1,0,0,0.8601,optionRight,80,10730,5,24,0,24,0,1,,,,,,,,,,,,,,,,,,,,,,,,,,,,,,,,,,,,,,,
,,,,,,,,2023-08-16_08h38.24.517,HF_wild_card,2022.2.4,Win32,60.0060006,63160f375a6aad006c2bce9b,64d2fd46c836a06233681665,64dc7c4c847bd98900133bc4,,,,,,,sngl,resources/DP.BMP,resources/Empty.png,WildCard_NonEx,-0.347222222,0.013888889,1,0,0,0.748,optionLeft,55,10785,5,25,0,25,0,1,,,,,,,,,,,,,,,,,,,,,,,,,,,,,,,,,,,,,,,
,,,,,,,,2023-08-16_08h38.24.517,HF_wild_card,2022.2.4,Win32,60.0060006,63160f375a6aad006c2bce9b,64d2fd46c836a06233681665,64dc7c4c847bd98900133bc4,,,,,,,decisionTrl,resources/DB.BMP,resources/DR.BMP,Door3,-0.410185185,0.000925926,1,0,0,0.8655,optionLeft,70,10855,5,26,0,26,0,1,,,,,,,,,,,,,,,,,,,,,,,,,,,,,,,,,,,,,,,
,,,,,,,,2023-08-16_08h38.24.517,HF_wild_card,2022.2.4,Win32,60.0060006,63160f375a6aad006c2bce9b,64d2fd46c836a06233681665,64dc7c4c847bd98900133bc4,,,,,,,sngl,resources/Empty.png,resources/DBN.BMP,Door1,0.418518519,0.02037037,1,0,0,1.2312,optionRight,30,10885,5,27,0,27,0,1,,,,,,,,,,,,,,,,,,,,,,,,,,,,,,,,,,,,,,,
,,,,,,,,2023-08-16_08h38.24.517,HF_wild_card,2022.2.4,Win32,60.0060006,63160f375a6aad006c2bce9b,64d2fd46c836a06233681665,64dc7c4c847bd98900133bc4,,,,,,,sngl,resources/Empty.png,resources/DR.BMP,Door4,0.341666667,0.008333333,1,0,0,0.5936,optionRight,60,10945,5,28,0,28,0,1,,,,,,,,,,,,,,,,,,,,,,,,,,,,,,,,,,,,,,,
,,,,,,,,2023-08-16_08h38.24.517,HF_wild_card,2022.2.4,Win32,60.0060006,63160f375a6aad006c2bce9b,64d2fd46c836a06233681665,64dc7c4c847bd98900133bc4,,,,,,,sngl,resources/DR.BMP,resources/Empty.png,Door4,-0.339814815,0.006481481,1,0,0,0.5661,optionLeft,80,11025,5,29,0,29,0,1,,,,,,,,,,,,,,,,,,,,,,,,,,,,,,,,,,,,,,,
,,,,,,,,2023-08-16_08h38.24.517,HF_wild_card,2022.2.4,Win32,60.0060006,63160f375a6aad006c2bce9b,64d2fd46c836a06233681665,64dc7c4c847bd98900133bc4,,,,,,,sngl,resources/Empty.png,resources/DB.BMP,Door3,0.412962963,-0.00462963,1,0,0,0.5976,optionRight,70,11095,5,30,0,30,0,1,,,,,,,,,,,,,,,,,,,,,,,,,,,,,,,,,,,,,,,
,,,,,,,,2023-08-16_08h38.24.517,HF_wild_card,2022.2.4,Win32,60.0060006,63160f375a6aad006c2bce9b,64d2fd46c836a06233681665,64dc7c4c847bd98900133bc4,,,,,,,decisionTrl,resources/DBN.BMP,resources/DG.BMP,Door2,0.340740741,-0.002777778,1,0,0,0.9101,optionRight,20,11115,5,31,0,31,0,1,,,,,,,,,,,,,,,,,,,,,,,,,,,,,,,,,,,,,,,
,,,,,,,,2023-08-16_08h38.24.517,HF_wild_card,2022.2.4,Win32,60.0060006,63160f375a6aad006c2bce9b,64d2fd46c836a06233681665,64dc7c4c847bd98900133bc4,,,,,,,decisionTrl,resources/DG.BMP,resources/DBN.BMP,Door2,-0.425,0.021296296,1,0,0,1.1652,optionLeft,40,11155,5,32,0,32,0,1,,,,,,,,,,,,,,,,,,,,,,,,,,,,,,,,,,,,,,,
,,,,,,,,2023-08-16_08h38.24.517,HF_wild_card,2022.2.4,Win32,60.0060006,63160f375a6aad006c2bce9b,64d2fd46c836a06233681665,64dc7c4c847bd98900133bc4,,,,,,,ctch,resources/DG.BMP,resources/DB.BMP,Door3,0.37962963,-0.030555556,1,0,0,0.8814,optionRight,70,11225,5,33,0,33,0,1,,,,,,,,,,,,,,,,,,,,,,,,,,,,,,,,,,,,,,,
,,,,,,,,2023-08-16_08h38.24.517,HF_wild_card,2022.2.4,Win32,60.0060006,63160f375a6aad006c2bce9b,64d2fd46c836a06233681665,64dc7c4c847bd98900133bc4,,,,,,,sngl,resources/DBN.BMP,resources/Empty.png,Door1,-0.292592593,-0.014814815,1,0,0,1.0813,optionLeft,30,11255,5,34,0,34,0,1,,,,,,,,,,,,,,,,,,,,,,,,,,,,,,,,,,,,,,,
,,,,,,,,2023-08-16_08h38.24.517,HF_wild_card,2022.2.4,Win32,60.0060006,63160f375a6aad006c2bce9b,64d2fd46c836a06233681665,64dc7c4c847bd98900133bc4,,,,,,,ctch,resources/DBN.BMP,resources/DR.BMP,Door4,0.391666667,-0.011111111,1,0,0,0.6809,optionRight,60,11315,5,35,0,35,0,1,,,,,,,,,,,,,,,,,,,,,,,,,,,,,,,,,,,,,,,
,,,,,,,,2023-08-16_08h38.24.517,HF_wild_card,2022.2.4,Win32,60.0060006,63160f375a6aad006c2bce9b,64d2fd46c836a06233681665,64dc7c4c847bd98900133bc4,,,,,,,sngl,resources/Empty.png,resources/DP.BMP,WildCard_NonEx,0.460185185,-0.028703704,1,0,0,0.6978,optionRight,45,11360,5,36,0,36,0,1,,,,,,,,,,,,,,,,,,,,,,,,,,,,,,,,,,,,,,,
,,,,,,,,2023-08-16_08h38.24.517,HF_wild_card,2022.2.4,Win32,60.0060006,63160f375a6aad006c2bce9b,64d2fd46c836a06233681665,64dc7c4c847bd98900133bc4,,,,,,,ctch,resources/DR.BMP,resources/DBN.BMP,Door4,-0.3,-0.010185185,1,0,0,0.9146,optionLeft,80,11440,5,37,0,37,0,1,,,,,,,,,,,,,,,,,,,,,,,,,,,,,,,,,,,,,,,
,,,,,,,,2023-08-16_08h38.24.517,HF_wild_card,2022.2.4,Win32,60.0060006,63160f375a6aad006c2bce9b,64d2fd46c836a06233681665,64dc7c4c847bd98900133bc4,,,,,,,decisionTrl,resources/DB.BMP,resources/DP.BMP,Door3,-0.401851852,-0.006481481,1,0,0,0.8475,optionLeft,70,11510,5,38,0,38,0,1,,,,,,,,,,,,,,,,,,,,,,,,,,,,,,,,,,,,,,,
,,,,,,,,2023-08-16_08h38.24.517,HF_wild_card,2022.2.4,Win32,60.0060006,63160f375a6aad006c2bce9b,64d2fd46c836a06233681665,64dc7c4c847bd98900133bc4,,,,,,,sngl,resources/Empty.png,resources/DP.BMP,WildCard_NonEx,0.359259259,-0.009259259,1,0,0,0.6827,optionRight,55,11565,5,39,0,39,0,1,,,,,,,,,,,,,,,,,,,,,,,,,,,,,,,,,,,,,,,
,,,,,,,,2023-08-16_08h38.24.517,HF_wild_card,2022.2.4,Win32,60.0060006,63160f375a6aad006c2bce9b,64d2fd46c836a06233681665,64dc7c4c847bd98900133bc4,,,,,,,ctch,resources/DB.BMP,resources/DG.BMP,Door3,-0.275,0.010185185,1,0,0,0.666,optionLeft,70,11635,5,40,0,40,0,1,,,,,,,,,,,,,,,,,,,,,,,,,,,,,,,,,,,,,,,
,,,,,,,,2023-08-16_08h38.24.517,HF_wild_card,2022.2.4,Win32,60.0060006,63160f375a6aad006c2bce9b,64d2fd46c836a06233681665,64dc7c4c847bd98900133bc4,,,,,,,decisionTrl,resources/DP.BMP,resources/DR.BMP,Door4,0.351851852,-0.012037037,1,0,0,1.2644,optionRight,80,11715,5,41,0,41,0,1,,,,,,,,,,,,,,,,,,,,,,,,,,,,,,,,,,,,,,,
,,,,,,,,2023-08-16_08h38.24.517,HF_wild_card,2022.2.4,Win32,60.0060006,63160f375a6aad006c2bce9b,64d2fd46c836a06233681665,64dc7c4c847bd98900133bc4,,,,,,,decisionTrl,resources/DR.BMP,resources/DB.BMP,Door3,0.526851852,-0.008333333,1,0,0,0.7149,optionRight,70,11785,5,42,0,42,0,1,,,,,,,,,,,,,,,,,,,,,,,,,,,,,,,,,,,,,,,
,,,,,,,,2023-08-16_08h38.24.517,HF_wild_card,2022.2.4,Win32,60.0060006,63160f375a6aad006c2bce9b,64d2fd46c836a06233681665,64dc7c4c847bd98900133bc4,,,,,,,sngl,resources/DB.BMP,resources/Empty.png,Door3,-0.375,0.012962963,1,0,0,0.7643,optionLeft,70,11855,5,43,0,43,0,1,,,,,,,,,,,,,,,,,,,,,,,,,,,,,,,,,,,,,,,
,,,,,,,,2023-08-16_08h38.24.517,HF_wild_card,2022.2.4,Win32,60.0060006,63160f375a6aad006c2bce9b,64d2fd46c836a06233681665,64dc7c4c847bd98900133bc4,,,,,,,,,,,,,,,,,,,,,,,,,,4,0,4,0,1,,,,,,,,,,,,,,,,,,,,,,,,,,,,,,,,,,
,,,,,,,,2023-08-16_08h38.24.517,HF_wild_card,2022.2.4,Win32,60.0060006,63160f375a6aad006c2bce9b,64d2fd46c836a06233681665,64dc7c4c847bd98900133bc4,,,,,,,decisionTrl,resources/DP.BMP,resources/DBN.BMP,WildCard_NonEx,-0.327777778,-0.012037037,1,0,0,1.0421,optionLeft,45,11900,6,0,0,0,0,1,,,,,,,,,,,,,,,,,,,,,,,,,,,,,,,,,,,,,,,
,,,,,,,,2023-08-16_08h38.24.517,HF_wild_card,2022.2.4,Win32,60.0060006,63160f375a6aad006c2bce9b,64d2fd46c836a06233681665,64dc7c4c847bd98900133bc4,,,,,,,ctch,resources/DBN.BMP,resources/DR.BMP,Door4,0.365740741,-0.008333333,1,0,0,0.6879,optionRight,60,11960,6,1,0,1,0,1,,,,,,,,,,,,,,,,,,,,,,,,,,,,,,,,,,,,,,,
,,,,,,,,2023-08-16_08h38.24.517,HF_wild_card,2022.2.4,Win32,60.0060006,63160f375a6aad006c2bce9b,64d2fd46c836a06233681665,64dc7c4c847bd98900133bc4,,,,,,,decisionTrl,resources/DG.BMP,resources/DBN.BMP,Door2,-0.401851852,0,1,0,0,0.8317,optionLeft,40,12000,6,2,0,2,0,1,,,,,,,,,,,,,,,,,,,,,,,,,,,,,,,,,,,,,,,
,,,,,,,,2023-08-16_08h38.24.517,HF_wild_card,2022.2.4,Win32,60.0060006,63160f375a6aad006c2bce9b,64d2fd46c836a06233681665,64dc7c4c847bd98900133bc4,,,,,,,decisionTrl,resources/DBN.BMP,resources/DG.BMP,Door2,0.409259259,-0.008333333,1,0,0,0.7148,optionRight,40,12040,6,3,0,3,0,1,,,,,,,,,,,,,,,,,,,,,,,,,,,,,,,,,,,,,,,
,,,,,,,,2023-08-16_08h38.24.517,HF_wild_card,2022.2.4,Win32,60.0060006,63160f375a6aad006c2bce9b,64d2fd46c836a06233681665,64dc7c4c847bd98900133bc4,,,,,,,ctch,resources/DBN.BMP,resources/DR.BMP,Door4,0.359259259,0.00462963,1,0,0,0.7105,optionRight,60,12100,6,4,0,4,0,1,,,,,,,,,,,,,,,,,,,,,,,,,,,,,,,,,,,,,,,
,,,,,,,,2023-08-16_08h38.24.517,HF_wild_card,2022.2.4,Win32,60.0060006,63160f375a6aad006c2bce9b,64d2fd46c836a06233681665,64dc7c4c847bd98900133bc4,,,,,,,decisionTrl,resources/DB.BMP,resources/DR.BMP,Door3,-0.290740741,0.002777778,1,0,0,0.7313,optionLeft,70,12170,6,5,0,5,0,1,,,,,,,,,,,,,,,,,,,,,,,,,,,,,,,,,,,,,,,
,,,,,,,,2023-08-16_08h38.24.517,HF_wild_card,2022.2.4,Win32,60.0060006,63160f375a6aad006c2bce9b,64d2fd46c836a06233681665,64dc7c4c847bd98900133bc4,,,,,,,decisionTrl,resources/DG.BMP,resources/DP.BMP,Door2,-0.269444444,-0.002777778,1,0,0,0.8039,optionLeft,40,12210,6,6,0,6,0,1,,,,,,,,,,,,,,,,,,,,,,,,,,,,,,,,,,,,,,,
,,,,,,,,2023-08-16_08h38.24.517,HF_wild_card,2022.2.4,Win32,60.0060006,63160f375a6aad006c2bce9b,64d2fd46c836a06233681665,64dc7c4c847bd98900133bc4,,,,,,,ctch,resources/DG.BMP,resources/DB.BMP,Door3,0.313888889,0.001851852,1,0,0,0.962,optionRight,70,12280,6,7,0,7,0,1,,,,,,,,,,,,,,,,,,,,,,,,,,,,,,,,,,,,,,,
,,,,,,,,2023-08-16_08h38.24.517,HF_wild_card,2022.2.4,Win32,60.0060006,63160f375a6aad006c2bce9b,64d2fd46c836a06233681665,64dc7c4c847bd98900133bc4,,,,,,,decisionTrl,resources/DB.BMP,resources/DR.BMP,Door3,-0.328703704,-0.005555556,1,0,0,0.7106,optionLeft,70,12350,6,8,0,8,0,1,,,,,,,,,,,,,,,,,,,,,,,,,,,,,,,,,,,,,,,
,,,,,,,,2023-08-16_08h38.24.517,HF_wild_card,2022.2.4,Win32,60.0060006,63160f375a6aad006c2bce9b,64d2fd46c836a06233681665,64dc7c4c847bd98900133bc4,,,,,,,sngl,resources/Empty.png,resources/DP.BMP,WildCard_NonEx,0.274074074,-0.001851852,1,0,0,0.6478,optionRight,45,12395,6,9,0,9,0,1,,,,,,,,,,,,,,,,,,,,,,,,,,,,,,,,,,,,,,,
,,,,,,,,2023-08-16_08h38.24.517,HF_wild_card,2022.2.4,Win32,60.0060006,63160f375a6aad006c2bce9b,64d2fd46c836a06233681665,64dc7c4c847bd98900133bc4,,,,,,,decisionTrl,resources/DP.BMP,resources/DB.BMP,Door3,0.450925926,-0.063888889,1,0,0,1.1367,optionRight,70,12465,6,10,0,10,0,1,,,,,,,,,,,,,,,,,,,,,,,,,,,,,,,,,,,,,,,
,,,,,,,,2023-08-16_08h38.24.517,HF_wild_card,2022.2.4,Win32,60.0060006,63160f375a6aad006c2bce9b,64d2fd46c836a06233681665,64dc7c4c847bd98900133bc4,,,,,,,sngl,resources/Empty.png,resources/DG.BMP,Door2,0.512037037,0.036111111,1,0,0,0.8364,optionRight,40,12505,6,11,0,11,0,1,,,,,,,,,,,,,,,,,,,,,,,,,,,,,,,,,,,,,,,
,,,,,,,,2023-08-16_08h38.24.517,HF_wild_card,2022.2.4,Win32,60.0060006,63160f375a6aad006c2bce9b,64d2fd46c836a06233681665,64dc7c4c847bd98900133bc4,,,,,,,ctch,resources/DB.BMP,resources/DG.BMP,Door3,-0.29537037,0.012037037,1,0,0,0.9504,optionLeft,70,12575,6,12,0,12,0,1,,,,,,,,,,,,,,,,,,,,,,,,,,,,,,,,,,,,,,,
,,,,,,,,2023-08-16_08h38.24.517,HF_wild_card,2022.2.4,Win32,60.0060006,63160f375a6aad006c2bce9b,64d2fd46c836a06233681665,64dc7c4c847bd98900133bc4,,,,,,,decisionTrl,resources/DR.BMP,resources/DB.BMP,Door3,0.434259259,0.033333333,1,0,0,0.9147,optionRight,70,12645,6,13,0,13,0,1,,,,,,,,,,,,,,,,,,,,,,,,,,,,,,,,,,,,,,,
,,,,,,,,2023-08-16_08h38.24.517,HF_wild_card,2022.2.4,Win32,60.0060006,63160f375a6aad006c2bce9b,64d2fd46c836a06233681665,64dc7c4c847bd98900133bc4,,,,,,,sngl,resources/DR.BMP,resources/Empty.png,Door4,-0.475,0.025925926,1,0,0,0.77,optionLeft,60,12705,6,14,0,14,0,1,,,,,,,,,,,,,,,,,,,,,,,,,,,,,,,,,,,,,,,
,,,,,,,,2023-08-16_08h38.24.517,HF_wild_card,2022.2.4,Win32,60.0060006,63160f375a6aad006c2bce9b,64d2fd46c836a06233681665,64dc7c4c847bd98900133bc4,,,,,,,decisionTrl,resources/DBN.BMP,resources/DG.BMP,Door2,0.458333333,0.023148148,1,0,0,0.7818,optionRight,40,12745,6,15,0,15,0,1,,,,,,,,,,,,,,,,,,,,,,,,,,,,,,,,,,,,,,,
,,,,,,,,2023-08-16_08h38.24.517,HF_wild_card,2022.2.4,Win32,60.0060006,63160f375a6aad006c2bce9b,64d2fd46c836a06233681665,64dc7c4c847bd98900133bc4,,,,,,,ctch,resources/DR.BMP,resources/DBN.BMP,Door4,-0.413888889,-0.02962963,1,0,0,0.7783,optionLeft,80,12825,6,16,0,16,0,1,,,,,,,,,,,,,,,,,,,,,,,,,,,,,,,,,,,,,,,
,,,,,,,,2023-08-16_08h38.24.517,HF_wild_card,2022.2.4,Win32,60.0060006,63160f375a6aad006c2bce9b,64d2fd46c836a06233681665,64dc7c4c847bd98900133bc4,,,,,,,sngl,resources/DG.BMP,resources/Empty.png,Door2,-0.278703704,-0.006481481,1,0,0,0.665,optionLeft,20,12845,6,17,0,17,0,1,,,,,,,,,,,,,,,,,,,,,,,,,,,,,,,,,,,,,,,
,,,,,,,,2023-08-16_08h38.24.517,HF_wild_card,2022.2.4,Win32,60.0060006,63160f375a6aad006c2bce9b,64d2fd46c836a06233681665,64dc7c4c847bd98900133bc4,,,,,,,sngl,resources/DB.BMP,resources/Empty.png,Door3,-0.298148148,-0.00462963,1,0,0,0.7599,optionLeft,70,12915,6,18,0,18,0,1,,,,,,,,,,,,,,,,,,,,,,,,,,,,,,,,,,,,,,,
,,,,,,,,2023-08-16_08h38.24.517,HF_wild_card,2022.2.4,Win32,60.0060006,63160f375a6aad006c2bce9b,64d2fd46c836a06233681665,64dc7c4c847bd98900133bc4,,,,,,,decisionTrl,resources/DB.BMP,resources/DR.BMP,Door3,-0.358333333,-0.011111111,1,0,0,1.8938,optionLeft,70,12985,6,19,0,19,0,1,,,,,,,,,,,,,,,,,,,,,,,,,,,,,,,,,,,,,,,
,,,,,,,,2023-08-16_08h38.24.517,HF_wild_card,2022.2.4,Win32,60.0060006,63160f375a6aad006c2bce9b,64d2fd46c836a06233681665,64dc7c4c847bd98900133bc4,,,,,,,decisionTrl,resources/DP.BMP,resources/DR.BMP,Door4,0.337962963,0.003703704,1,0,0,0.844,optionRight,60,13045,6,20,0,20,0,1,,,,,,,,,,,,,,,,,,,,,,,,,,,,,,,,,,,,,,,
,,,,,,,,2023-08-16_08h38.24.517,HF_wild_card,2022.2.4,Win32,60.0060006,63160f375a6aad006c2bce9b,64d2fd46c836a06233681665,64dc7c4c847bd98900133bc4,,,,,,,decisionTrl,resources/DR.BMP,resources/DP.BMP,Door4,-0.35462963,0.007407407,1,0,0,0.704,optionLeft,80,13125,6,21,0,21,0,1,,,,,,,,,,,,,,,,,,,,,,,,,,,,,,,,,,,,,,,
,,,,,,,,2023-08-16_08h38.24.517,HF_wild_card,2022.2.4,Win32,60.0060006,63160f375a6aad006c2bce9b,64d2fd46c836a06233681665,64dc7c4c847bd98900133bc4,,,,,,,sngl,resources/Empty.png,resources/DB.BMP,Door3,0.352777778,-0.008333333,1,0,0,0.5773,optionRight,70,13195,6,22,0,22,0,1,,,,,,,,,,,,,,,,,,,,,,,,,,,,,,,,,,,,,,,
,,,,,,,,2023-08-16_08h38.24.517,HF_wild_card,2022.2.4,Win32,60.0060006,63160f375a6aad006c2bce9b,64d2fd46c836a06233681665,64dc7c4c847bd98900133bc4,,,,,,,decisionTrl,resources/DG.BMP,resources/DBN.BMP,Door2,-0.299074074,-0.002777778,1,0,0,0.81,optionLeft,20,13215,6,23,0,23,0,1,,,,,,,,,,,,,,,,,,,,,,,,,,,,,,,,,,,,,,,
,,,,,,,,2023-08-16_08h38.24.517,HF_wild_card,2022.2.4,Win32,60.0060006,63160f375a6aad006c2bce9b,64d2fd46c836a06233681665,64dc7c4c847bd98900133bc4,,,,,,,decisionTrl,resources/DG.BMP,resources/DBN.BMP,Door2,-0.399074074,-0.010185185,1,0,0,0.615,optionLeft,20,13235,6,24,0,24,0,1,,,,,,,,,,,,,,,,,,,,,,,,,,,,,,,,,,,,,,,
,,,,,,,,2023-08-16_08h38.24.517,HF_wild_card,2022.2.4,Win32,60.0060006,63160f375a6aad006c2bce9b,64d2fd46c836a06233681665,64dc7c4c847bd98900133bc4,,,,,,,ctch,resources/DG.BMP,resources/DB.BMP,Door3,0.272222222,0.02037037,1,0,0,0.704,optionRight,70,13305,6,25,0,25,0,1,,,,,,,,,,,,,,,,,,,,,,,,,,,,,,,,,,,,,,,
,,,,,,,,2023-08-16_08h38.24.517,HF_wild_card,2022.2.4,Win32,60.0060006,63160f375a6aad006c2bce9b,64d2fd46c836a06233681665,64dc7c4c847bd98900133bc4,,,,,,,decisionTrl,resources/DB.BMP,resources/DP.BMP,Door3,-0.288888889,0.005555556,1,0,0,0.848,optionLeft,70,13375,6,26,0,26,0,1,,,,,,,,,,,,,,,,,,,,,,,,,,,,,,,,,,,,,,,
,,,,,,,,2023-08-16_08h38.24.517,HF_wild_card,2022.2.4,Win32,60.0060006,63160f375a6aad006c2bce9b,64d2fd46c836a06233681665,64dc7c4c847bd98900133bc4,,,,,,,sngl,resources/Empty.png,resources/DP.BMP,WildCard_NonEx,0.276851852,-0.006481481,1,0,0,0.5645,optionRight,55,13430,6,27,0,27,0,1,,,,,,,,,,,,,,,,,,,,,,,,,,,,,,,,,,,,,,,
,,,,,,,,2023-08-16_08h38.24.517,HF_wild_card,2022.2.4,Win32,60.0060006,63160f375a6aad006c2bce9b,64d2fd46c836a06233681665,64dc7c4c847bd98900133bc4,,,,,,,sngl,resources/Empty.png,resources/DBN.BMP,Door1,0.335185185,0.02962963,1,0,0,0.5329,optionRight,30,13460,6,28,0,28,0,1,,,,,,,,,,,,,,,,,,,,,,,,,,,,,,,,,,,,,,,
,,,,,,,,2023-08-16_08h38.24.517,HF_wild_card,2022.2.4,Win32,60.0060006,63160f375a6aad006c2bce9b,64d2fd46c836a06233681665,64dc7c4c847bd98900133bc4,,,,,,,decisionTrl,resources/DP.BMP,resources/DG.BMP,WildCard_NonEx,-0.37037037,0.008333333,1,0,0,0.9494,optionLeft,55,13515,6,29,0,29,0,1,,,,,,,,,,,,,,,,,,,,,,,,,,,,,,,,,,,,,,,
,,,,,,,,2023-08-16_08h38.24.517,HF_wild_card,2022.2.4,Win32,60.0060006,63160f375a6aad006c2bce9b,64d2fd46c836a06233681665,64dc7c4c847bd98900133bc4,,,,,,,ctch,resources/DR.BMP,resources/DBN.BMP,Door4,-0.442592593,-0.023148148,1,0,0,0.7144,optionLeft,60,13575,6,30,0,30,0,1,,,,,,,,,,,,,,,,,,,,,,,,,,,,,,,,,,,,,,,
,,,,,,,,2023-08-16_08h38.24.517,HF_wild_card,2022.2.4,Win32,60.0060006,63160f375a6aad006c2bce9b,64d2fd46c836a06233681665,64dc7c4c847bd98900133bc4,,,,,,,decisionTrl,resources/DBN.BMP,resources/DP.BMP,WildCard_NonEx,0.286111111,-0.012037037,1,0,0,0.8105,optionRight,55,13630,6,31,0,31,0,1,,,,,,,,,,,,,,,,,,,,,,,,,,,,,,,,,,,,,,,
,,,,,,,,2023-08-16_08h38.24.517,HF_wild_card,2022.2.4,Win32,60.0060006,63160f375a6aad006c2bce9b,64d2fd46c836a06233681665,64dc7c4c847bd98900133bc4,,,,,,,ctch,resources/DB.BMP,resources/DG.BMP,Door3,-0.339814815,0.003703704,1,0,0,0.6537,optionLeft,70,13700,6,32,0,32,0,1,,,,,,,,,,,,,,,,,,,,,,,,,,,,,,,,,,,,,,,
,,,,,,,,2023-08-16_08h38.24.517,HF_wild_card,2022.2.4,Win32,60.0060006,63160f375a6aad006c2bce9b,64d2fd46c836a06233681665,64dc7c4c847bd98900133bc4,,,,,,,decisionTrl,resources/DG.BMP,resources/DBN.BMP,Door2,-0.416666667,-0.001851852,1,0,0,1.0136,optionLeft,40,13740,6,33,0,33,0,1,,,,,,,,,,,,,,,,,,,,,,,,,,,,,,,,,,,,,,,
,,,,,,,,2023-08-16_08h38.24.517,HF_wild_card,2022.2.4,Win32,60.0060006,63160f375a6aad006c2bce9b,64d2fd46c836a06233681665,64dc7c4c847bd98900133bc4,,,,,,,decisionTrl,resources/DR.BMP,resources/DB.BMP,Door3,0.285185185,-0.023148148,1,0,0,0.9648,optionRight,70,13810,6,34,0,34,0,1,,,,,,,,,,,,,,,,,,,,,,,,,,,,,,,,,,,,,,,
,,,,,,,,2023-08-16_08h38.24.517,HF_wild_card,2022.2.4,Win32,60.0060006,63160f375a6aad006c2bce9b,64d2fd46c836a06233681665,64dc7c4c847bd98900133bc4,,,,,,,decisionTrl,resources/DBN.BMP,resources/DG.BMP,Door2,0.340740741,0.002777778,1,0,0,2.3937,optionRight,20,13830,6,35,0,35,0,1,,,,,,,,,,,,,,,,,,,,,,,,,,,,,,,,,,,,,,,
,,,,,,,,2023-08-16_08h38.24.517,HF_wild_card,2022.2.4,Win32,60.0060006,63160f375a6aad006c2bce9b,64d2fd46c836a06233681665,64dc7c4c847bd98900133bc4,,,,,,,sngl,resources/Empty.png,resources/DR.BMP,Door4,0.377777778,0.000925926,1,0,0,0.8036,optionRight,80,13910,6,36,0,36,0,1,,,,,,,,,,,,,,,,,,,,,,,,,,,,,,,,,,,,,,,
,,,,,,,,2023-08-16_08h38.24.517,HF_wild_card,2022.2.4,Win32,60.0060006,63160f375a6aad006c2bce9b,64d2fd46c836a06233681665,64dc7c4c847bd98900133bc4,,,,,,,decisionTrl,resources/DR.BMP,resources/DB.BMP,Door3,0.5,0.016666667,1,0,0,0.8106,optionRight,70,13980,6,37,0,37,0,1,,,,,,,,,,,,,,,,,,,,,,,,,,,,,,,,,,,,,,,
,,,,,,,,2023-08-16_08h38.24.517,HF_wild_card,2022.2.4,Win32,60.0060006,63160f375a6aad006c2bce9b,64d2fd46c836a06233681665,64dc7c4c847bd98900133bc4,,,,,,,sngl,resources/DBN.BMP,resources/Empty.png,Door1,-0.226851852,0.015740741,1,0,0,1.1432,optionLeft,30,14010,6,38,0,38,0,1,,,,,,,,,,,,,,,,,,,,,,,,,,,,,,,,,,,,,,,
,,,,,,,,2023-08-16_08h38.24.517,HF_wild_card,2022.2.4,Win32,60.0060006,63160f375a6aad006c2bce9b,64d2fd46c836a06233681665,64dc7c4c847bd98900133bc4,,,,,,,decisionTrl,resources/DR.BMP,resources/DB.BMP,Door3,0.382407407,0.005555556,1,0,0,0.6996,optionRight,70,14080,6,39,0,39,0,1,,,,,,,,,,,,,,,,,,,,,,,,,,,,,,,,,,,,,,,
,,,,,,,,2023-08-16_08h38.24.517,HF_wild_card,2022.2.4,Win32,60.0060006,63160f375a6aad006c2bce9b,64d2fd46c836a06233681665,64dc7c4c847bd98900133bc4,,,,,,,decisionTrl,resources/DBN.BMP,resources/DG.BMP,Door2,0.321296296,-0.005555556,1,0,0,0.9272,optionRight,20,14100,6,40,0,40,0,1,,,,,,,,,,,,,,,,,,,,,,,,,,,,,,,,,,,,,,,
,,,,,,,,2023-08-16_08h38.24.517,HF_wild_card,2022.2.4,Win32,60.0060006,63160f375a6aad006c2bce9b,64d2fd46c836a06233681665,64dc7c4c847bd98900133bc4,,,,,,,sngl,resources/DP.BMP,resources/Empty.png,WildCard_NonEx,-0.419444444,-0.052777778,1,0,0,0.9367,optionLeft,45,14145,6,41,0,41,0,1,,,,,,,,,,,,,,,,,,,,,,,,,,,,,,,,,,,,,,,
,,,,,,,,2023-08-16_08h38.24.517,HF_wild_card,2022.2.4,Win32,60.0060006,63160f375a6aad006c2bce9b,64d2fd46c836a06233681665,64dc7c4c847bd98900133bc4,,,,,,,sngl,resources/DP.BMP,resources/Empty.png,WildCard_NonEx,-0.376851852,-0.023148148,1,0,0,0.6196,optionLeft,55,14200,6,42,0,42,0,1,,,,,,,,,,,,,,,,,,,,,,,,,,,,,,,,,,,,,,,
,,,,,,,,2023-08-16_08h38.24.517,HF_wild_card,2022.2.4,Win32,60.0060006,63160f375a6aad006c2bce9b,64d2fd46c836a06233681665,64dc7c4c847bd98900133bc4,,,,,,,decisionTrl,resources/DB.BMP,resources/DR.BMP,Door3,-0.446296296,-0.010185185,1,0,0,0.91,optionLeft,70,14270,6,43,0,43,0,1,,,,,,,,,,,,,,,,,,,,,,,,,,,,,,,,,,,,,,,
,,,,,,,,2023-08-16_08h38.24.517,HF_wild_card,2022.2.4,Win32,60.0060006,63160f375a6aad006c2bce9b,64d2fd46c836a06233681665,64dc7c4c847bd98900133bc4,,,,,,,,,,,,,,,,,,,,,,,,,,5,0,5,0,1,,,,,,,,,,,,,,,,,,,,,,,,,,,,,,,,,,
,,,,,,,,2023-08-16_08h38.24.517,HF_wild_card,2022.2.4,Win32,60.0060006,63160f375a6aad006c2bce9b,64d2fd46c836a06233681665,64dc7c4c847bd98900133bc4,,,,,,,decisionTrl,resources/DG.BMP,resources/DBN.BMP,Door2,-0.392592593,-0.008333333,1,0,0,1.1089,optionLeft,20,14290,7,0,0,0,0,1,,,,,,,,,,,,,,,,,,,,,,,,,,,,,,,,,,,,,,,
,,,,,,,,2023-08-16_08h38.24.517,HF_wild_card,2022.2.4,Win32,60.0060006,63160f375a6aad006c2bce9b,64d2fd46c836a06233681665,64dc7c4c847bd98900133bc4,,,,,,,decisionTrl,resources/DBN.BMP,resources/DG.BMP,Door2,0.380555556,0.006481481,1,0,0,0.7546,optionRight,40,14330,7,1,0,1,0,1,,,,,,,,,,,,,,,,,,,,,,,,,,,,,,,,,,,,,,,
,,,,,,,,2023-08-16_08h38.24.517,HF_wild_card,2022.2.4,Win32,60.0060006,63160f375a6aad006c2bce9b,64d2fd46c836a06233681665,64dc7c4c847bd98900133bc4,,,,,,,ctch,resources/DB.BMP,resources/DG.BMP,Door3,-0.462037037,-0.028703704,1,0,0,0.6712,optionLeft,70,14400,7,2,0,2,0,1,,,,,,,,,,,,,,,,,,,,,,,,,,,,,,,,,,,,,,,
,,,,,,,,2023-08-16_08h38.24.517,HF_wild_card,2022.2.4,Win32,60.0060006,63160f375a6aad006c2bce9b,64d2fd46c836a06233681665,64dc7c4c847bd98900133bc4,,,,,,,ctch,resources/DB.BMP,resources/DG.BMP,Door3,-0.363888889,-0.022222222,1,0,0,0.5327,optionLeft,70,14470,7,3,0,3,0,1,,,,,,,,,,,,,,,,,,,,,,,,,,,,,,,,,,,,,,,
,,,,,,,,2023-08-16_08h38.24.517,HF_wild_card,2022.2.4,Win32,60.0060006,63160f375a6aad006c2bce9b,64d2fd46c836a06233681665,64dc7c4c847bd98900133bc4,,,,,,,decisionTrl,resources/DBN.BMP,resources/DG.BMP,Door2,0.317592593,0.033333333,1,0,0,0.9146,optionRight,40,14510,7,4,0,4,0,1,,,,,,,,,,,,,,,,,,,,,,,,,,,,,,,,,,,,,,,
,,,,,,,,2023-08-16_08h38.24.517,HF_wild_card,2022.2.4,Win32,60.0060006,63160f375a6aad006c2bce9b,64d2fd46c836a06233681665,64dc7c4c847bd98900133bc4,,,,,,,ctch,resources/DG.BMP,resources/DB.BMP,Door3,0.305555556,0.006481481,1,0,0,0.7661,optionRight,70,14580,7,5,0,5,0,1,,,,,,,,,,,,,,,,,,,,,,,,,,,,,,,,,,,,,,,
,,,,,,,,2023-08-16_08h38.24.517,HF_wild_card,2022.2.4,Win32,60.0060006,63160f375a6aad006c2bce9b,64d2fd46c836a06233681665,64dc7c4c847bd98900133bc4,,,,,,,ctch,resources/DR.BMP,resources/DBN.BMP,Door4,-0.283333333,-0.011111111,1,0,0,0.8492,optionLeft,60,14640,7,6,0,6,0,1,,,,,,,,,,,,,,,,,,,,,,,,,,,,,,,,,,,,,,,
,,,,,,,,2023-08-16_08h38.24.517,HF_wild_card,2022.2.4,Win32,60.0060006,63160f375a6aad006c2bce9b,64d2fd46c836a06233681665,64dc7c4c847bd98900133bc4,,,,,,,ctch,resources/DR.BMP,resources/DBN.BMP,Door4,-0.299074074,-0.006481481,1,0,0,0.5996,optionLeft,80,14720,7,7,0,7,0,1,,,,,,,,,,,,,,,,,,,,,,,,,,,,,,,,,,,,,,,
,,,,,,,,2023-08-16_08h38.24.517,HF_wild_card,2022.2.4,Win32,60.0060006,63160f375a6aad006c2bce9b,64d2fd46c836a06233681665,64dc7c4c847bd98900133bc4,,,,,,,decisionTrl,resources/DR.BMP,resources/DB.BMP,Door3,0.336111111,0.000925926,1,0,0,0.6542,optionRight,70,14790,7,8,0,8,0,1,,,,,,,,,,,,,,,,,,,,,,,,,,,,,,,,,,,,,,,
,,,,,,,,2023-08-16_08h38.24.517,HF_wild_card,2022.2.4,Win32,60.0060006,63160f375a6aad006c2bce9b,64d2fd46c836a06233681665,64dc7c4c847bd98900133bc4,,,,,,,decisionTrl,resources/DR.BMP,resources/DB.BMP,Door3,0.438888889,-0.008333333,1,0,0,0.588,optionRight,70,14860,7,9,0,9,0,1,,,,,,,,,,,,,,,,,,,,,,,,,,,,,,,,,,,,,,,
,,,,,,,,2023-08-16_08h38.24.517,HF_wild_card,2022.2.4,Win32,60.0060006,63160f375a6aad006c2bce9b,64d2fd46c836a06233681665,64dc7c4c847bd98900133bc4,,,,,,,decisionTrl,resources/DB.BMP,resources/DR.BMP,Door3,-0.343518519,0,1,0,0,0.8656,optionLeft,70,14930,7,10,0,10,0,1,,,,,,,,,,,,,,,,,,,,,,,,,,,,,,,,,,,,,,,
,,,,,,,,2023-08-16_08h38.24.517,HF_wild_card,2022.2.4,Win32,60.0060006,63160f375a6aad006c2bce9b,64d2fd46c836a06233681665,64dc7c4c847bd98900133bc4,,,,,,,decisionTrl,resources/DG.BMP,resources/DBN.BMP,Door2,-0.412037037,0.002777778,1,0,0,0.7488,optionLeft,40,14970,7,11,0,11,0,1,,,,,,,,,,,,,,,,,,,,,,,,,,,,,,,,,,,,,,,
,,,,,,,,2023-08-16_08h38.24.517,HF_wild_card,2022.2.4,Win32,60.0060006,63160f375a6aad006c2bce9b,64d2fd46c836a06233681665,64dc7c4c847bd98900133bc4,,,,,,,decisionTrl,resources/DBN.BMP,resources/DG.BMP,Door2,0.252777778,-0.003703704,1,0,0,0.6937,optionRight,20,14990,7,12,0,12,0,1,,,,,,,,,,,,,,,,,,,,,,,,,,,,,,,,,,,,,,,
,,,,,,,,2023-08-16_08h38.24.517,HF_wild_card,2022.2.4,Win32,60.0060006,63160f375a6aad006c2bce9b,64d2fd46c836a06233681665,64dc7c4c847bd98900133bc4,,,,,,,decisionTrl,resources/DB.BMP,resources/DR.BMP,Door3,-0.372222222,-0.007407407,1,0,0,1.0325,optionLeft,70,15060,7,13,0,13,0,1,,,,,,,,,,,,,,,,,,,,,,,,,,,,,,,,,,,,,,,
,,,,,,,,2023-08-16_08h38.24.517,HF_wild_card,2022.2.4,Win32,60.0060006,63160f375a6aad006c2bce9b,64d2fd46c836a06233681665,64dc7c4c847bd98900133bc4,,,,,,,decisionTrl,resources/DG.BMP,resources/DBN.BMP,Door2,-0.276851852,-0.006481481,1,0,0,0.6441,optionLeft,20,15080,7,14,0,14,0,1,,,,,,,,,,,,,,,,,,,,,,,,,,,,,,,,,,,,,,,
,,,,,,,,2023-08-16_08h38.24.517,HF_wild_card,2022.2.4,Win32,60.0060006,63160f375a6aad006c2bce9b,64d2fd46c836a06233681665,64dc7c4c847bd98900133bc4,,,,,,,ctch,resources/DG.BMP,resources/DB.BMP,Door3,0.343518519,-0.009259259,1,0,0,0.7211,optionRight,70,15150,7,15,0,15,0,1,,,,,,,,,,,,,,,,,,,,,,,,,,,,,,,,,,,,,,,
,,,,,,,,2023-08-16_08h38.24.517,HF_wild_card,2022.2.4,Win32,60.0060006,63160f375a6aad006c2bce9b,64d2fd46c836a06233681665,64dc7c4c847bd98900133bc4,,,,,,,decisionTrl,resources/DR.BMP,resources/DB.BMP,Door3,0.287962963,0.002777778,1,0,0,0.7442,optionRight,70,15220,7,16,0,16,0,1,,,,,,,,,,,,,,,,,,,,,,,,,,,,,,,,,,,,,,,
,,,,,,,,2023-08-16_08h38.24.517,HF_wild_card,2022.2.4,Win32,60.0060006,63160f375a6aad006c2bce9b,64d2fd46c836a06233681665,64dc7c4c847bd98900133bc4,,,,,,,ctch,resources/DBN.BMP,resources/DR.BMP,Door4,0.321296296,-0.010185185,1,0,0,0.6605,optionRight,60,15280,7,17,0,17,0,1,,,,,,,,,,,,,,,,,,,,,,,,,,,,,,,,,,,,,,,
,,,,,,,,2023-08-16_08h38.24.517,HF_wild_card,2022.2.4,Win32,60.0060006,63160f375a6aad006c2bce9b,64d2fd46c836a06233681665,64dc7c4c847bd98900133bc4,,,,,,,decisionTrl,resources/DG.BMP,resources/DBN.BMP,Door2,-0.361111111,-0.018518519,1,0,0,0.7156,optionLeft,40,15320,7,18,0,18,0,1,,,,,,,,,,,,,,,,,,,,,,,,,,,,,,,,,,,,,,,
,,,,,,,,2023-08-16_08h38.24.517,HF_wild_card,2022.2.4,Win32,60.0060006,63160f375a6aad006c2bce9b,64d2fd46c836a06233681665,64dc7c4c847bd98900133bc4,,,,,,,ctch,resources/DB.BMP,resources/DG.BMP,Door3,-0.328703704,-0.013888889,1,0,0,0.6333,optionLeft,70,15390,7,19,0,19,0,1,,,,,,,,,,,,,,,,,,,,,,,,,,,,,,,,,,,,,,,
,,,,,,,,2023-08-16_08h38.24.517,HF_wild_card,2022.2.4,Win32,60.0060006,63160f375a6aad006c2bce9b,64d2fd46c836a06233681665,64dc7c4c847bd98900133bc4,,,,,,,decisionTrl,resources/DB.BMP,resources/DR.BMP,Door3,-0.341666667,0.021296296,1,0,0,0.8874,optionLeft,70,15460,7,20,0,20,0,1,,,,,,,,,,,,,,,,,,,,,,,,,,,,,,,,,,,,,,,
,,,,,,,,2023-08-16_08h38.24.517,HF_wild_card,2022.2.4,Win32,60.0060006,63160f375a6aad006c2bce9b,64d2fd46c836a06233681665,64dc7c4c847bd98900133bc4,,,,,,,decisionTrl,resources/DG.BMP,resources/DBN.BMP,Door2,-0.34537037,0.00462963,1,0,0,0.6499,optionLeft,40,15500,7,21,0,21,0,1,,,,,,,,,,,,,,,,,,,,,,,,,,,,,,,,,,,,,,,
,,,,,,,,2023-08-16_08h38.24.517,HF_wild_card,2022.2.4,Win32,60.0060006,63160f375a6aad006c2bce9b,64d2fd46c836a06233681665,64dc7c4c847bd98900133bc4,,,,,,,decisionTrl,resources/DBN.BMP,resources/DG.BMP,Door2,0.344444444,0,1,0,0,0.6488,optionRight,20,15520,7,22,0,22,0,1,,,,,,,,,,,,,,,,,,,,,,,,,,,,,,,,,,,,,,,
,,,,,,,,2023-08-16_08h38.24.517,HF_wild_card,2022.2.4,Win32,60.0060006,63160f375a6aad006c2bce9b,64d2fd46c836a06233681665,64dc7c4c847bd98900133bc4,,,,,,,decisionTrl,resources/DB.BMP,resources/DR.BMP,Door3,-0.352777778,-0.030555556,1,0,0,0.5466,optionLeft,70,15590,7,23,0,23,0,1,,,,,,,,,,,,,,,,,,,,,,,,,,,,,,,,,,,,,,,
,,,,,,,,2023-08-16_08h38.24.517,HF_wild_card,2022.2.4,Win32,60.0060006,63160f375a6aad006c2bce9b,64d2fd46c836a06233681665,64dc7c4c847bd98900133bc4,,,,,,,decisionTrl,resources/DBN.BMP,resources/DG.BMP,Door2,0.309259259,0.025,1,0,0,0.7046,optionRight,20,15610,7,24,0,24,0,1,,,,,,,,,,,,,,,,,,,,,,,,,,,,,,,,,,,,,,,
,,,,,,,,2023-08-16_08h38.24.517,HF_wild_card,2022.2.4,Win32,60.0060006,63160f375a6aad006c2bce9b,64d2fd46c836a06233681665,64dc7c4c847bd98900133bc4,,,,,,,ctch,resources/DR.BMP,resources/DBN.BMP,Door4,-0.321296296,-0.006481481,1,0,0,0.7991,optionLeft,80,15690,7,25,0,25,0,1,,,,,,,,,,,,,,,,,,,,,,,,,,,,,,,,,,,,,,,
,,,,,,,,2023-08-16_08h38.24.517,HF_wild_card,2022.2.4,Win32,60.0060006,63160f375a6aad006c2bce9b,64d2fd46c836a06233681665,64dc7c4c847bd98900133bc4,,,,,,,decisionTrl,resources/DB.BMP,resources/DR.BMP,Door3,-0.343518519,-0.034259259,1,0,0,0.6613,optionLeft,70,15760,7,26,0,26,0,1,,,,,,,,,,,,,,,,,,,,,,,,,,,,,,,,,,,,,,,
,,,,,,,,2023-08-16_08h38.24.517,HF_wild_card,2022.2.4,Win32,60.0060006,63160f375a6aad006c2bce9b,64d2fd46c836a06233681665,64dc7c4c847bd98900133bc4,,,,,,,decisionTrl,resources/DB.BMP,resources/DR.BMP,Door3,-0.35462963,-0.012037037,1,0,0,0.716,optionLeft,70,15830,7,27,0,27,0,1,,,,,,,,,,,,,,,,,,,,,,,,,,,,,,,,,,,,,,,
,,,,,,,,2023-08-16_08h38.24.517,HF_wild_card,2022.2.4,Win32,60.0060006,63160f375a6aad006c2bce9b,64d2fd46c836a06233681665,64dc7c4c847bd98900133bc4,,,,,,,decisionTrl,resources/DR.BMP,resources/DB.BMP,Door3,0.332407407,-0.028703704,1,0,0,0.8613,optionRight,70,15900,7,28,0,28,0,1,,,,,,,,,,,,,,,,,,,,,,,,,,,,,,,,,,,,,,,
,,,,,,,,2023-08-16_08h38.24.517,HF_wild_card,2022.2.4,Win32,60.0060006,63160f375a6aad006c2bce9b,64d2fd46c836a06233681665,64dc7c4c847bd98900133bc4,,,,,,,decisionTrl,resources/DR.BMP,resources/DB.BMP,Door3,0.438888889,-0.00462963,1,0,0,0.586,optionRight,70,15970,7,29,0,29,0,1,,,,,,,,,,,,,,,,,,,,,,,,,,,,,,,,,,,,,,,
,,,,,,,,2023-08-16_08h38.24.517,HF_wild_card,2022.2.4,Win32,60.0060006,63160f375a6aad006c2bce9b,64d2fd46c836a06233681665,64dc7c4c847bd98900133bc4,,,,,,,ctch,resources/DG.BMP,resources/DB.BMP,Door3,0.34537037,0.000925926,1,0,0,0.5608,optionRight,70,16040,7,30,0,30,0,1,,,,,,,,,,,,,,,,,,,,,,,,,,,,,,,,,,,,,,,
,,,,,,,,2023-08-16_08h38.24.517,HF_wild_card,2022.2.4,Win32,60.0060006,63160f375a6aad006c2bce9b,64d2fd46c836a06233681665,64dc7c4c847bd98900133bc4,,,,,,,ctch,resources/DBN.BMP,resources/DR.BMP,Door4,0.324074074,-0.003703704,1,0,0,0.7159,optionRight,60,16100,7,31,0,31,0,1,,,,,,,,,,,,,,,,,,,,,,,,,,,,,,,,,,,,,,,
,,,,,,,,2023-08-16_08h38.24.517,HF_wild_card,2022.2.4,Win32,60.0060006,63160f375a6aad006c2bce9b,64d2fd46c836a06233681665,64dc7c4c847bd98900133bc4,,,,,,,decisionTrl,resources/DBN.BMP,resources/DG.BMP,Door2,0.310185185,0.049074074,1,0,0,0.7439,optionRight,40,16140,7,32,0,32,0,1,,,,,,,,,,,,,,,,,,,,,,,,,,,,,,,,,,,,,,,
,,,,,,,,2023-08-16_08h38.24.517,HF_wild_card,2022.2.4,Win32,60.0060006,63160f375a6aad006c2bce9b,64d2fd46c836a06233681665,64dc7c4c847bd98900133bc4,,,,,,,ctch,resources/DBN.BMP,resources/DR.BMP,Door4,0.373148148,0.016666667,1,0,0,0.8327,optionRight,80,16220,7,33,0,33,0,1,,,,,,,,,,,,,,,,,,,,,,,,,,,,,,,,,,,,,,,
,,,,,,,,2023-08-16_08h38.24.517,HF_wild_card,2022.2.4,Win32,60.0060006,63160f375a6aad006c2bce9b,64d2fd46c836a06233681665,64dc7c4c847bd98900133bc4,,,,,,,decisionTrl,resources/DG.BMP,resources/DBN.BMP,Door2,-0.294444444,-0.005555556,1,0,0,0.7161,optionLeft,40,16260,7,34,0,34,0,1,,,,,,,,,,,,,,,,,,,,,,,,,,,,,,,,,,,,,,,
,,,,,,,,2023-08-16_08h38.24.517,HF_wild_card,2022.2.4,Win32,60.0060006,63160f375a6aad006c2bce9b,64d2fd46c836a06233681665,64dc7c4c847bd98900133bc4,,,,,,,decisionTrl,resources/DR.BMP,resources/DB.BMP,Door3,0.410185185,0.001851852,1,0,0,0.6318,optionRight,70,16330,7,35,0,35,0,1,,,,,,,,,,,,,,,,,,,,,,,,,,,,,,,,,,,,,,,
,,,,,,,,2023-08-16_08h38.24.517,HF_wild_card,2022.2.4,Win32,60.0060006,63160f375a6aad006c2bce9b,64d2fd46c836a06233681665,64dc7c4c847bd98900133bc4,,,,,,,,,,,,,,,,,,,,,,,,,,6,0,6,0,1,,,,,,,,,,,,,,,,,,,,,,,,,,,,,,,,,,
,,,,,,,,2023-08-16_08h38.24.517,HF_wild_card,2022.2.4,Win32,60.0060006,63160f375a6aad006c2bce9b,64d2fd46c836a06233681665,64dc7c4c847bd98900133bc4,,,,,,,,,,,,,,,,,,,,,,,,,,,,,,,4,,,,,,,,,,,,,,,,,,,,,,,,,,,,,,,,,
,,,,,,,,2023-08-16_08h38.24.517,HF_wild_card,2022.2.4,Win32,60.0060006,63160f375a6aad006c2bce9b,64d2fd46c836a06233681665,64dc7c4c847bd98900133bc4,,,,,,,,,,,,,,,,,,,,,,,,,,,,,,,,,,,,,,,,,,,,,,,,,,,,,,,,,,,,,,,,
,,,,,,,,2023-08-16_08h38.24.517,HF_wild_card,2022.2.4,Win32,60.0060006,63160f375a6aad006c2bce9b,64d2fd46c836a06233681665,64dc7c4c847bd98900133bc4,,,,,,,,,,,,,,,,,,,,,,,,,,,,,,,,5,WC_extreme,resources/DY.BMP,0,0,0,0,1,,,,,,,,,,,,,,,,,,,,,,,,,
,,,,,,,,2023-08-16_08h38.24.517,HF_wild_card,2022.2.4,Win32,60.0060006,63160f375a6aad006c2bce9b,64d2fd46c836a06233681665,64dc7c4c847bd98900133bc4,,,,,,,,,,,,,,,,,,,,,,,,,,,,,,,,40,Door2,resources/DG.BMP,1,0,1,0,1,,,,,,,,,,,,,,,,,,,,,,,,,
,,,,,,,,2023-08-16_08h38.24.517,HF_wild_card,2022.2.4,Win32,60.0060006,63160f375a6aad006c2bce9b,64d2fd46c836a06233681665,64dc7c4c847bd98900133bc4,,,,,,,,,,,,,,,,,,,,,,,,,,,,,,,,70,Door3,resources/DB.BMP,2,0,2,0,1,,,,,,,,,,,,,,,,,,,,,,,,,
,,,,,,,,2023-08-16_08h38.24.517,HF_wild_card,2022.2.4,Win32,60.0060006,63160f375a6aad006c2bce9b,64d2fd46c836a06233681665,64dc7c4c847bd98900133bc4,,,,,,,,,,,,,,,,,,,,,,,,,,,,,,,,55,WC_nonExtreme,resources/DP.BMP,3,0,3,0,1,,,,,,,,,,,,,,,,,,,,,,,,,
,,,,,,,,2023-08-16_08h38.24.517,HF_wild_card,2022.2.4,Win32,60.0060006,63160f375a6aad006c2bce9b,64d2fd46c836a06233681665,64dc7c4c847bd98900133bc4,,,,,,,,,,,,,,,,,,,,,,,,,,,,,,,,30,Door1,resources/DBN.BMP,4,0,4,0,1,,,,,,,,,,,,,,,,,,,,,,,,,
,,,,,,,,2023-08-16_08h38.24.517,HF_wild_card,2022.2.4,Win32,60.0060006,63160f375a6aad006c2bce9b,64d2fd46c836a06233681665,64dc7c4c847bd98900133bc4,,,,,,,,,,,,,,,,,,,,,,,,,,,,,,,,60,Door4,resources/DR.BMP,5,0,5,0,1,,,,,,,,,,,,,,,,,,,,,,,,,
,,,,,,,,2023-08-16_08h38.24.517,HF_wild_card,2022.2.4,Win32,60.0060006,63160f375a6aad006c2bce9b,64d2fd46c836a06233681665,64dc7c4c847bd98900133bc4,,,,,,,,,,,,,,,,,,,,,,,,,,,,,,,,,,,,,,,,,,,,,,,,,,,,,,,,,,,,,,,,
,,,,,,,,2023-08-16_08h38.24.517,HF_wild_card,2022.2.4,Win32,60.0060006,63160f375a6aad006c2bce9b,64d2fd46c836a06233681665,64dc7c4c847bd98900133bc4,,,,,,,,,,,,,,,,,,,,,,,,,,,,,,,,,,,,,,,,0,0,0,0,1,,,,,,,,,,,,,,,,,,,,
,,,,,,,,2023-08-16_08h38.24.517,HF_wild_card,2022.2.4,Win32,60.0060006,63160f375a6aad006c2bce9b,64d2fd46c836a06233681665,64dc7c4c847bd98900133bc4,,,,,,,,,,,,,,,,,,,,,,,,,,,,,,,,,,,,,,,,1,0,1,0,1,,,,,,,,,,,,,,,,,,,,
,,,,,,,,2023-08-16_08h38.24.517,HF_wild_card,2022.2.4,Win32,60.0060006,63160f375a6aad006c2bce9b,64d2fd46c836a06233681665,64dc7c4c847bd98900133bc4,,,,,,,,,,,,,,,,,,,,,,,,,,,,,,,,,,,,,,,,,,,,,-0.302777778,-0.400925926,1,0,0,yes,0%,100%,WC_nonExtreme,resources/DP.BMP,0,0,0,0,1,,,,,
