Condition,Low fixed image (Door1),Low risky image (Door2),High fixed image (Door3),High risky image (Door4),NonExtreme Wild Card 1,NonExtreme Wild Card 2,,date,expName,psychopyVersion,OS,frameRate,PROLIFIC_PID,STUDY_ID,SESSION_ID,mouse_2.x,mouse_2.y,mouse_2.leftButton,mouse_2.midButton,mouse_2.rightButton,mouse_2.clicked_name,Trial Type,Left Option Image,Right Option Image,Chosen Door,mouse.x,mouse.y,mouse.leftButton,mouse.midButton,mouse.rightButton,mouse.time,mouse.clicked_name,Feedback,Cumulative Reward,Block,trial.thisRepN,trial.thisTrialN,trial.thisN,trial.thisIndex,trial.ran,blocks.thisRepN,blocks.thisTrialN,blocks.thisN,blocks.thisIndex,blocks.ran,Money conversion,First Outcome Reported,Shown Door (First Outcome),Displayed Image (First Outcome),outcomes.thisRepN,outcomes.thisTrialN,outcomes.thisN,outcomes.thisIndex,outcomes.ran,judgments.thisRepN,judgments.thisTrialN,judgments.thisN,judgments.thisIndex,judgments.ran,freqMouse.x,freqMouse.y,freqMouse.leftButton,freqMouse.midButton,freqMouse.rightButton,freqMouse.clicked_name,FQJ for first outcome,FQJ for second outcome,Shown Door,Displayed Image,trials.thisRepN,trials.thisTrialN,trials.thisN,trials.thisIndex,trials.ran,judgBlock.thisRepN,judgBlock.thisTrialN,judgBlock.thisN,judgBlock.thisIndex,judgBlock.ran
2,resources/DG.BMP,resources/DR.BMP,resources/DB.BMP,resources/DP.BMP,resources/DY.BMP,resources/DBN.BMP,,2023-08-16_08h33.03.647,HF_wild_card,2022.2.4,Win32,60.04924038,59b7b72e11212f0001cd0f15,64d2fd46c836a06233681665,64dc7b95215c87190a6f0a89,,,,,,,,,,,,,,,,,,,,,,,,,,,,,,,,,,,,,,,,,,,,,,,,,,,,,,,,,,,,,,,,
,,,,,,,,2023-08-16_08h33.03.647,HF_wild_card,2022.2.4,Win32,60.04924038,59b7b72e11212f0001cd0f15,64d2fd46c836a06233681665,64dc7b95215c87190a6f0a89,0.003703704,-0.415740741,1,0,0,agree,,,,,,,,,,,,,,,,,,,,,,,,,,,,,,,,,,,,,,,,,,,,,,,,,,,,,,,,,,
,,,,,,,,2023-08-16_08h33.03.647,HF_wild_card,2022.2.4,Win32,60.04924038,59b7b72e11212f0001cd0f15,64d2fd46c836a06233681665,64dc7b95215c87190a6f0a89,,,,,,,,,,,,,,,,,,,,,,,,,,,,,,,,,,,,,,,,,,,,,,,,,,,,,,,,,,,,,,,,
,,,,,,,,2023-08-16_08h33.03.647,HF_wild_card,2022.2.4,Win32,60.04924038,59b7b72e11212f0001cd0f15,64d2fd46c836a06233681665,64dc7b95215c87190a6f0a89,,,,,,,decisionTrl,resources/DG.BMP,resources/DBN.BMP,Door1,-0.217592593,-0.067592593,1,0,0,3.2669,optionLeft,30,30,1,0,0,0,0,1,,,,,,,,,,,,,,,,,,,,,,,,,,,,,,,,,,,,,,,
,,,,,,,,2023-08-16_08h33.03.647,HF_wild_card,2022.2.4,Win32,60.04924038,59b7b72e11212f0001cd0f15,64d2fd46c836a06233681665,64dc7b95215c87190a6f0a89,,,,,,,decisionTrl,resources/DBN.BMP,resources/DP.BMP,Door4,0.542592593,-0.100925926,1,0,0,1.0632,optionRight,80,110,1,1,0,1,0,1,,,,,,,,,,,,,,,,,,,,,,,,,,,,,,,,,,,,,,,
,,,,,,,,2023-08-16_08h33.03.647,HF_wild_card,2022.2.4,Win32,60.04924038,59b7b72e11212f0001cd0f15,64d2fd46c836a06233681665,64dc7b95215c87190a6f0a89,,,,,,,sngl,resources/Empty.png,resources/DR.BMP,Door2,0.301851852,0.017592593,1,0,0,1.6135,optionRight,20,130,1,2,0,2,0,1,,,,,,,,,,,,,,,,,,,,,,,,,,,,,,,,,,,,,,,
,,,,,,,,2023-08-16_08h33.03.647,HF_wild_card,2022.2.4,Win32,60.04924038,59b7b72e11212f0001cd0f15,64d2fd46c836a06233681665,64dc7b95215c87190a6f0a89,,,,,,,decisionTrl,resources/DR.BMP,resources/DBN.BMP,Door2,-0.286111111,0.006481481,1,0,0,1.1843,optionLeft,40,170,1,3,0,3,0,1,,,,,,,,,,,,,,,,,,,,,,,,,,,,,,,,,,,,,,,
,,,,,,,,2023-08-16_08h33.03.647,HF_wild_card,2022.2.4,Win32,60.04924038,59b7b72e11212f0001cd0f15,64d2fd46c836a06233681665,64dc7b95215c87190a6f0a89,,,,,,,decisionTrl,resources/DR.BMP,resources/DG.BMP,Door1,0.360185185,-0.04537037,1,0,0,0.9352,optionRight,30,200,1,4,0,4,0,1,,,,,,,,,,,,,,,,,,,,,,,,,,,,,,,,,,,,,,,
,,,,,,,,2023-08-16_08h33.03.647,HF_wild_card,2022.2.4,Win32,60.04924038,59b7b72e11212f0001cd0f15,64d2fd46c836a06233681665,64dc7b95215c87190a6f0a89,,,,,,,decisionTrl,resources/DP.BMP,resources/DBN.BMP,Door4,-0.337037037,0.022222222,1,0,0,0.7344,optionLeft,80,280,1,5,0,5,0,1,,,,,,,,,,,,,,,,,,,,,,,,,,,,,,,,,,,,,,,
,,,,,,,,2023-08-16_08h33.03.647,HF_wild_card,2022.2.4,Win32,60.04924038,59b7b72e11212f0001cd0f15,64d2fd46c836a06233681665,64dc7b95215c87190a6f0a89,,,,,,,decisionTrl,resources/DB.BMP,resources/DBN.BMP,Door3,-0.317592593,-0.031481481,1,0,0,0.913,optionLeft,70,350,1,6,0,6,0,1,,,,,,,,,,,,,,,,,,,,,,,,,,,,,,,,,,,,,,,
,,,,,,,,2023-08-16_08h33.03.647,HF_wild_card,2022.2.4,Win32,60.04924038,59b7b72e11212f0001cd0f15,64d2fd46c836a06233681665,64dc7b95215c87190a6f0a89,,,,,,,decisionTrl,resources/DB.BMP,resources/DP.BMP,Door4,0.330555556,-0.002777778,1,0,0,0.9434,optionRight,80,430,1,7,0,7,0,1,,,,,,,,,,,,,,,,,,,,,,,,,,,,,,,,,,,,,,,
,,,,,,,,2023-08-16_08h33.03.647,HF_wild_card,2022.2.4,Win32,60.04924038,59b7b72e11212f0001cd0f15,64d2fd46c836a06233681665,64dc7b95215c87190a6f0a89,,,,,,,ctch,resources/DG.BMP,resources/DP.BMP,Door4,0.315740741,-0.041666667,1,0,0,0.8348,optionRight,60,490,1,8,0,8,0,1,,,,,,,,,,,,,,,,,,,,,,,,,,,,,,,,,,,,,,,
,,,,,,,,2023-08-16_08h33.03.647,HF_wild_card,2022.2.4,Win32,60.04924038,59b7b72e11212f0001cd0f15,64d2fd46c836a06233681665,64dc7b95215c87190a6f0a89,,,,,,,decisionTrl,resources/DR.BMP,resources/DG.BMP,Door1,0.400925926,-0.055555556,1,0,0,1.0768,optionRight,30,520,1,9,0,9,0,1,,,,,,,,,,,,,,,,,,,,,,,,,,,,,,,,,,,,,,,
,,,,,,,,2023-08-16_08h33.03.647,HF_wild_card,2022.2.4,Win32,60.04924038,59b7b72e11212f0001cd0f15,64d2fd46c836a06233681665,64dc7b95215c87190a6f0a89,,,,,,,decisionTrl,resources/DB.BMP,resources/DP.BMP,Door3,-0.601851852,-0.075,1,0,0,1.5641,optionLeft,70,590,1,10,0,10,0,1,,,,,,,,,,,,,,,,,,,,,,,,,,,,,,,,,,,,,,,
,,,,,,,,2023-08-16_08h33.03.647,HF_wild_card,2022.2.4,Win32,60.04924038,59b7b72e11212f0001cd0f15,64d2fd46c836a06233681665,64dc7b95215c87190a6f0a89,,,,,,,ctch,resources/DP.BMP,resources/DG.BMP,Door4,-0.351851852,0.001851852,1,0,0,0.7771,optionLeft,80,670,1,11,0,11,0,1,,,,,,,,,,,,,,,,,,,,,,,,,,,,,,,,,,,,,,,
,,,,,,,,2023-08-16_08h33.03.647,HF_wild_card,2022.2.4,Win32,60.04924038,59b7b72e11212f0001cd0f15,64d2fd46c836a06233681665,64dc7b95215c87190a6f0a89,,,,,,,decisionTrl,resources/DP.BMP,resources/DB.BMP,Door4,-0.236111111,-0.00462963,1,0,0,1.0015,optionLeft,60,730,1,12,0,12,0,1,,,,,,,,,,,,,,,,,,,,,,,,,,,,,,,,,,,,,,,
,,,,,,,,2023-08-16_08h33.03.647,HF_wild_card,2022.2.4,Win32,60.04924038,59b7b72e11212f0001cd0f15,64d2fd46c836a06233681665,64dc7b95215c87190a6f0a89,,,,,,,decisionTrl,resources/DR.BMP,resources/DG.BMP,Door2,-0.228703704,-0.000925926,1,0,0,1.1185,optionLeft,20,750,1,13,0,13,0,1,,,,,,,,,,,,,,,,,,,,,,,,,,,,,,,,,,,,,,,
,,,,,,,,2023-08-16_08h33.03.647,HF_wild_card,2022.2.4,Win32,60.04924038,59b7b72e11212f0001cd0f15,64d2fd46c836a06233681665,64dc7b95215c87190a6f0a89,,,,,,,sngl,resources/Empty.png,resources/DBN.BMP,WildCard_NonEx,0.353703704,-0.002777778,1,0,0,1.7103,optionRight,45,795,1,14,0,14,0,1,,,,,,,,,,,,,,,,,,,,,,,,,,,,,,,,,,,,,,,
,,,,,,,,2023-08-16_08h33.03.647,HF_wild_card,2022.2.4,Win32,60.04924038,59b7b72e11212f0001cd0f15,64d2fd46c836a06233681665,64dc7b95215c87190a6f0a89,,,,,,,sngl,resources/Empty.png,resources/DP.BMP,Door4,0.39537037,0.018518519,1,0,0,1.6308,optionRight,60,855,1,15,0,15,0,1,,,,,,,,,,,,,,,,,,,,,,,,,,,,,,,,,,,,,,,
,,,,,,,,2023-08-16_08h33.03.647,HF_wild_card,2022.2.4,Win32,60.04924038,59b7b72e11212f0001cd0f15,64d2fd46c836a06233681665,64dc7b95215c87190a6f0a89,,,,,,,decisionTrl,resources/DBN.BMP,resources/DR.BMP,WildCard_NonEx,-0.231481481,-0.012037037,1,0,0,1.2153,optionLeft,45,900,1,16,0,16,0,1,,,,,,,,,,,,,,,,,,,,,,,,,,,,,,,,,,,,,,,
,,,,,,,,2023-08-16_08h33.03.647,HF_wild_card,2022.2.4,Win32,60.04924038,59b7b72e11212f0001cd0f15,64d2fd46c836a06233681665,64dc7b95215c87190a6f0a89,,,,,,,sngl,resources/DBN.BMP,resources/Empty.png,WildCard_NonEx,-0.375,-0.011111111,1,0,0,1.4344,optionLeft,55,955,1,17,0,17,0,1,,,,,,,,,,,,,,,,,,,,,,,,,,,,,,,,,,,,,,,
,,,,,,,,2023-08-16_08h33.03.647,HF_wild_card,2022.2.4,Win32,60.04924038,59b7b72e11212f0001cd0f15,64d2fd46c836a06233681665,64dc7b95215c87190a6f0a89,,,,,,,decisionTrl,resources/DP.BMP,resources/DB.BMP,Door3,0.317592593,-0.002777778,1,0,0,1.4312,optionRight,70,1025,1,18,0,18,0,1,,,,,,,,,,,,,,,,,,,,,,,,,,,,,,,,,,,,,,,
,,,,,,,,2023-08-16_08h33.03.647,HF_wild_card,2022.2.4,Win32,60.04924038,59b7b72e11212f0001cd0f15,64d2fd46c836a06233681665,64dc7b95215c87190a6f0a89,,,,,,,sngl,resources/DB.BMP,resources/Empty.png,Door3,-0.442592593,-0.018518519,1,0,0,1.1069,optionLeft,70,1095,1,19,0,19,0,1,,,,,,,,,,,,,,,,,,,,,,,,,,,,,,,,,,,,,,,
,,,,,,,,2023-08-16_08h33.03.647,HF_wild_card,2022.2.4,Win32,60.04924038,59b7b72e11212f0001cd0f15,64d2fd46c836a06233681665,64dc7b95215c87190a6f0a89,,,,,,,sngl,resources/DR.BMP,resources/Empty.png,Door2,-0.274074074,0.023148148,1,0,0,0.9644,optionLeft,40,1135,1,20,0,20,0,1,,,,,,,,,,,,,,,,,,,,,,,,,,,,,,,,,,,,,,,
,,,,,,,,2023-08-16_08h33.03.647,HF_wild_card,2022.2.4,Win32,60.04924038,59b7b72e11212f0001cd0f15,64d2fd46c836a06233681665,64dc7b95215c87190a6f0a89,,,,,,,sngl,resources/DBN.BMP,resources/Empty.png,WildCard_NonEx,-0.273148148,-0.000925926,1,0,0,1.201,optionLeft,45,1180,1,21,0,21,0,1,,,,,,,,,,,,,,,,,,,,,,,,,,,,,,,,,,,,,,,
,,,,,,,,2023-08-16_08h33.03.647,HF_wild_card,2022.2.4,Win32,60.04924038,59b7b72e11212f0001cd0f15,64d2fd46c836a06233681665,64dc7b95215c87190a6f0a89,,,,,,,decisionTrl,resources/DG.BMP,resources/DR.BMP,Door1,-0.275,-0.013888889,1,0,0,1.2014,optionLeft,30,1210,1,22,0,22,0,1,,,,,,,,,,,,,,,,,,,,,,,,,,,,,,,,,,,,,,,
,,,,,,,,2023-08-16_08h33.03.647,HF_wild_card,2022.2.4,Win32,60.04924038,59b7b72e11212f0001cd0f15,64d2fd46c836a06233681665,64dc7b95215c87190a6f0a89,,,,,,,decisionTrl,resources/DP.BMP,resources/DB.BMP,Door4,-0.275,0.003703704,1,0,0,2.1184,optionLeft,80,1290,1,23,0,23,0,1,,,,,,,,,,,,,,,,,,,,,,,,,,,,,,,,,,,,,,,
,,,,,,,,2023-08-16_08h33.03.647,HF_wild_card,2022.2.4,Win32,60.04924038,59b7b72e11212f0001cd0f15,64d2fd46c836a06233681665,64dc7b95215c87190a6f0a89,,,,,,,decisionTrl,resources/DBN.BMP,resources/DG.BMP,Door1,0.4,-0.025,1,0,0,1.7009,optionRight,30,1320,1,24,0,24,0,1,,,,,,,,,,,,,,,,,,,,,,,,,,,,,,,,,,,,,,,
,,,,,,,,2023-08-16_08h33.03.647,HF_wild_card,2022.2.4,Win32,60.04924038,59b7b72e11212f0001cd0f15,64d2fd46c836a06233681665,64dc7b95215c87190a6f0a89,,,,,,,sngl,resources/Empty.png,resources/DB.BMP,Door3,0.353703704,0.005555556,1,0,0,1.1937,optionRight,70,1390,1,25,0,25,0,1,,,,,,,,,,,,,,,,,,,,,,,,,,,,,,,,,,,,,,,
,,,,,,,,2023-08-16_08h33.03.647,HF_wild_card,2022.2.4,Win32,60.04924038,59b7b72e11212f0001cd0f15,64d2fd46c836a06233681665,64dc7b95215c87190a6f0a89,,,,,,,ctch,resources/DG.BMP,resources/DP.BMP,Door4,0.472222222,-0.087037037,1,0,0,1.447,optionRight,80,1470,1,26,0,26,0,1,,,,,,,,,,,,,,,,,,,,,,,,,,,,,,,,,,,,,,,
,,,,,,,,2023-08-16_08h33.03.647,HF_wild_card,2022.2.4,Win32,60.04924038,59b7b72e11212f0001cd0f15,64d2fd46c836a06233681665,64dc7b95215c87190a6f0a89,,,,,,,decisionTrl,resources/DB.BMP,resources/DP.BMP,Door4,0.287962963,-0.026851852,1,0,0,1.0142,optionRight,60,1530,1,27,0,27,0,1,,,,,,,,,,,,,,,,,,,,,,,,,,,,,,,,,,,,,,,
,,,,,,,,2023-08-16_08h33.03.647,HF_wild_card,2022.2.4,Win32,60.04924038,59b7b72e11212f0001cd0f15,64d2fd46c836a06233681665,64dc7b95215c87190a6f0a89,,,,,,,ctch,resources/DR.BMP,resources/DB.BMP,Door3,0.275,-0.001851852,1,0,0,0.9477,optionRight,70,1600,1,28,0,28,0,1,,,,,,,,,,,,,,,,,,,,,,,,,,,,,,,,,,,,,,,
,,,,,,,,2023-08-16_08h33.03.647,HF_wild_card,2022.2.4,Win32,60.04924038,59b7b72e11212f0001cd0f15,64d2fd46c836a06233681665,64dc7b95215c87190a6f0a89,,,,,,,decisionTrl,resources/DR.BMP,resources/DG.BMP,Door1,0.355555556,0.010185185,1,0,0,2.4643,optionRight,30,1630,1,29,0,29,0,1,,,,,,,,,,,,,,,,,,,,,,,,,,,,,,,,,,,,,,,
,,,,,,,,2023-08-16_08h33.03.647,HF_wild_card,2022.2.4,Win32,60.04924038,59b7b72e11212f0001cd0f15,64d2fd46c836a06233681665,64dc7b95215c87190a6f0a89,,,,,,,ctch,resources/DP.BMP,resources/DG.BMP,Door4,-0.375,-0.003703704,1,0,0,1.5853,optionLeft,80,1710,1,30,0,30,0,1,,,,,,,,,,,,,,,,,,,,,,,,,,,,,,,,,,,,,,,
,,,,,,,,2023-08-16_08h33.03.647,HF_wild_card,2022.2.4,Win32,60.04924038,59b7b72e11212f0001cd0f15,64d2fd46c836a06233681665,64dc7b95215c87190a6f0a89,,,,,,,decisionTrl,resources/DG.BMP,resources/DR.BMP,Door1,-0.423148148,-0.036111111,1,0,0,2.1736,optionLeft,30,1740,1,31,0,31,0,1,,,,,,,,,,,,,,,,,,,,,,,,,,,,,,,,,,,,,,,
,,,,,,,,2023-08-16_08h33.03.647,HF_wild_card,2022.2.4,Win32,60.04924038,59b7b72e11212f0001cd0f15,64d2fd46c836a06233681665,64dc7b95215c87190a6f0a89,,,,,,,decisionTrl,resources/DP.BMP,resources/DB.BMP,Door4,-0.216666667,0.024074074,1,0,0,0.862,optionLeft,80,1820,1,32,0,32,0,1,,,,,,,,,,,,,,,,,,,,,,,,,,,,,,,,,,,,,,,
,,,,,,,,2023-08-16_08h33.03.647,HF_wild_card,2022.2.4,Win32,60.04924038,59b7b72e11212f0001cd0f15,64d2fd46c836a06233681665,64dc7b95215c87190a6f0a89,,,,,,,sngl,resources/DP.BMP,resources/Empty.png,Door4,-0.237962963,0.005555556,1,0,0,1.0851,optionLeft,80,1900,1,33,0,33,0,1,,,,,,,,,,,,,,,,,,,,,,,,,,,,,,,,,,,,,,,
,,,,,,,,2023-08-16_08h33.03.647,HF_wild_card,2022.2.4,Win32,60.04924038,59b7b72e11212f0001cd0f15,64d2fd46c836a06233681665,64dc7b95215c87190a6f0a89,,,,,,,sngl,resources/Empty.png,resources/DG.BMP,Door1,0.449074074,-0.012037037,1,0,0,1.0472,optionRight,30,1930,1,34,0,34,0,1,,,,,,,,,,,,,,,,,,,,,,,,,,,,,,,,,,,,,,,
,,,,,,,,2023-08-16_08h33.03.647,HF_wild_card,2022.2.4,Win32,60.04924038,59b7b72e11212f0001cd0f15,64d2fd46c836a06233681665,64dc7b95215c87190a6f0a89,,,,,,,sngl,resources/Empty.png,resources/DBN.BMP,WildCard_NonEx,0.308333333,0,1,0,0,2.3791,optionRight,55,1985,1,35,0,35,0,1,,,,,,,,,,,,,,,,,,,,,,,,,,,,,,,,,,,,,,,
,,,,,,,,2023-08-16_08h33.03.647,HF_wild_card,2022.2.4,Win32,60.04924038,59b7b72e11212f0001cd0f15,64d2fd46c836a06233681665,64dc7b95215c87190a6f0a89,,,,,,,ctch,resources/DB.BMP,resources/DR.BMP,Door3,-0.224074074,-0.011111111,1,0,0,1.01,optionLeft,70,2055,1,36,0,36,0,1,,,,,,,,,,,,,,,,,,,,,,,,,,,,,,,,,,,,,,,
,,,,,,,,2023-08-16_08h33.03.647,HF_wild_card,2022.2.4,Win32,60.04924038,59b7b72e11212f0001cd0f15,64d2fd46c836a06233681665,64dc7b95215c87190a6f0a89,,,,,,,decisionTrl,resources/DB.BMP,resources/DP.BMP,Door3,-0.277777778,-0.027777778,1,0,0,1.6147,optionLeft,70,2125,1,37,0,37,0,1,,,,,,,,,,,,,,,,,,,,,,,,,,,,,,,,,,,,,,,
,,,,,,,,2023-08-16_08h33.03.647,HF_wild_card,2022.2.4,Win32,60.04924038,59b7b72e11212f0001cd0f15,64d2fd46c836a06233681665,64dc7b95215c87190a6f0a89,,,,,,,sngl,resources/DG.BMP,resources/Empty.png,Door1,-0.374074074,0.012037037,1,0,0,1.5849,optionLeft,30,2155,1,38,0,38,0,1,,,,,,,,,,,,,,,,,,,,,,,,,,,,,,,,,,,,,,,
,,,,,,,,2023-08-16_08h33.03.647,HF_wild_card,2022.2.4,Win32,60.04924038,59b7b72e11212f0001cd0f15,64d2fd46c836a06233681665,64dc7b95215c87190a6f0a89,,,,,,,ctch,resources/DB.BMP,resources/DR.BMP,Door2,0.458333333,0.049074074,1,0,0,1.7933,optionRight,40,2195,1,39,0,39,0,1,,,,,,,,,,,,,,,,,,,,,,,,,,,,,,,,,,,,,,,
,,,,,,,,2023-08-16_08h33.03.647,HF_wild_card,2022.2.4,Win32,60.04924038,59b7b72e11212f0001cd0f15,64d2fd46c836a06233681665,64dc7b95215c87190a6f0a89,,,,,,,decisionTrl,resources/DG.BMP,resources/DR.BMP,Door1,-0.255555556,-0.008333333,1,0,0,1.1062,optionLeft,30,2225,1,40,0,40,0,1,,,,,,,,,,,,,,,,,,,,,,,,,,,,,,,,,,,,,,,
,,,,,,,,2023-08-16_08h33.03.647,HF_wild_card,2022.2.4,Win32,60.04924038,59b7b72e11212f0001cd0f15,64d2fd46c836a06233681665,64dc7b95215c87190a6f0a89,,,,,,,decisionTrl,resources/DBN.BMP,resources/DB.BMP,Door3,0.392592593,-0.042592593,1,0,0,1.0811,optionRight,70,2295,1,41,0,41,0,1,,,,,,,,,,,,,,,,,,,,,,,,,,,,,,,,,,,,,,,
,,,,,,,,2023-08-16_08h33.03.647,HF_wild_card,2022.2.4,Win32,60.04924038,59b7b72e11212f0001cd0f15,64d2fd46c836a06233681665,64dc7b95215c87190a6f0a89,,,,,,,ctch,resources/DR.BMP,resources/DB.BMP,Door3,0.362037037,0.005555556,1,0,0,0.9281,optionRight,70,2365,1,42,0,42,0,1,,,,,,,,,,,,,,,,,,,,,,,,,,,,,,,,,,,,,,,
,,,,,,,,2023-08-16_08h33.03.647,HF_wild_card,2022.2.4,Win32,60.04924038,59b7b72e11212f0001cd0f15,64d2fd46c836a06233681665,64dc7b95215c87190a6f0a89,,,,,,,decisionTrl,resources/DG.BMP,resources/DR.BMP,Door1,-0.505555556,0.051851852,1,0,0,0.9637,optionLeft,30,2395,1,43,0,43,0,1,,,,,,,,,,,,,,,,,,,,,,,,,,,,,,,,,,,,,,,
,,,,,,,,2023-08-16_08h33.03.647,HF_wild_card,2022.2.4,Win32,60.04924038,59b7b72e11212f0001cd0f15,64d2fd46c836a06233681665,64dc7b95215c87190a6f0a89,,,,,,,,,,,,,,,,,,,,,,,,,,0,0,0,0,1,,,,,,,,,,,,,,,,,,,,,,,,,,,,,,,,,,
,,,,,,,,2023-08-16_08h33.03.647,HF_wild_card,2022.2.4,Win32,60.04924038,59b7b72e11212f0001cd0f15,64d2fd46c836a06233681665,64dc7b95215c87190a6f0a89,,,,,,,decisionTrl,resources/DR.BMP,resources/DG.BMP,Door1,0.302777778,-0.009259259,1,0,0,1.7855,optionRight,30,2425,2,0,0,0,0,1,,,,,,,,,,,,,,,,,,,,,,,,,,,,,,,,,,,,,,,
,,,,,,,,2023-08-16_08h33.03.647,HF_wild_card,2022.2.4,Win32,60.04924038,59b7b72e11212f0001cd0f15,64d2fd46c836a06233681665,64dc7b95215c87190a6f0a89,,,,,,,decisionTrl,resources/DP.BMP,resources/DBN.BMP,Door4,-0.349074074,-0.022222222,1,0,0,0.9048,optionLeft,60,2485,2,1,0,1,0,1,,,,,,,,,,,,,,,,,,,,,,,,,,,,,,,,,,,,,,,
,,,,,,,,2023-08-16_08h33.03.647,HF_wild_card,2022.2.4,Win32,60.04924038,59b7b72e11212f0001cd0f15,64d2fd46c836a06233681665,64dc7b95215c87190a6f0a89,,,,,,,sngl,resources/DBN.BMP,resources/Empty.png,WildCard_NonEx,-0.266666667,0.033333333,1,0,0,2.0308,optionLeft,55,2540,2,2,0,2,0,1,,,,,,,,,,,,,,,,,,,,,,,,,,,,,,,,,,,,,,,
,,,,,,,,2023-08-16_08h33.03.647,HF_wild_card,2022.2.4,Win32,60.04924038,59b7b72e11212f0001cd0f15,64d2fd46c836a06233681665,64dc7b95215c87190a6f0a89,,,,,,,decisionTrl,resources/DP.BMP,resources/DB.BMP,Door4,-0.387962963,0.014814815,1,0,0,1.2137,optionLeft,80,2620,2,3,0,3,0,1,,,,,,,,,,,,,,,,,,,,,,,,,,,,,,,,,,,,,,,
,,,,,,,,2023-08-16_08h33.03.647,HF_wild_card,2022.2.4,Win32,60.04924038,59b7b72e11212f0001cd0f15,64d2fd46c836a06233681665,64dc7b95215c87190a6f0a89,,,,,,,sngl,resources/Empty.png,resources/DR.BMP,Door2,0.480555556,0.009259259,1,0,0,0.8979,optionRight,40,2660,2,4,0,4,0,1,,,,,,,,,,,,,,,,,,,,,,,,,,,,,,,,,,,,,,,
,,,,,,,,2023-08-16_08h33.03.647,HF_wild_card,2022.2.4,Win32,60.04924038,59b7b72e11212f0001cd0f15,64d2fd46c836a06233681665,64dc7b95215c87190a6f0a89,,,,,,,sngl,resources/DR.BMP,resources/Empty.png,Door2,-0.413888889,0.017592593,1,0,0,0.5975,optionLeft,20,2680,2,5,0,5,0,1,,,,,,,,,,,,,,,,,,,,,,,,,,,,,,,,,,,,,,,
,,,,,,,,2023-08-16_08h33.03.647,HF_wild_card,2022.2.4,Win32,60.04924038,59b7b72e11212f0001cd0f15,64d2fd46c836a06233681665,64dc7b95215c87190a6f0a89,,,,,,,decisionTrl,resources/DP.BMP,resources/DB.BMP,Door4,-0.312962963,-0.02962963,1,0,0,1.2474,optionLeft,80,2760,2,6,0,6,0,1,,,,,,,,,,,,,,,,,,,,,,,,,,,,,,,,,,,,,,,
,,,,,,,,2023-08-16_08h33.03.647,HF_wild_card,2022.2.4,Win32,60.04924038,59b7b72e11212f0001cd0f15,64d2fd46c836a06233681665,64dc7b95215c87190a6f0a89,,,,,,,decisionTrl,resources/DBN.BMP,resources/DG.BMP,Door1,0.505555556,0.060185185,1,0,0,1.581,optionRight,30,2790,2,7,0,7,0,1,,,,,,,,,,,,,,,,,,,,,,,,,,,,,,,,,,,,,,,
,,,,,,,,2023-08-16_08h33.03.647,HF_wild_card,2022.2.4,Win32,60.04924038,59b7b72e11212f0001cd0f15,64d2fd46c836a06233681665,64dc7b95215c87190a6f0a89,,,,,,,decisionTrl,resources/DR.BMP,resources/DBN.BMP,WildCard_NonEx,0.287037037,-0.007407407,1,0,0,1.0308,optionRight,45,2835,2,8,0,8,0,1,,,,,,,,,,,,,,,,,,,,,,,,,,,,,,,,,,,,,,,
,,,,,,,,2023-08-16_08h33.03.647,HF_wild_card,2022.2.4,Win32,60.04924038,59b7b72e11212f0001cd0f15,64d2fd46c836a06233681665,64dc7b95215c87190a6f0a89,,,,,,,decisionTrl,resources/DR.BMP,resources/DG.BMP,Door1,0.369444444,0.017592593,1,0,0,1.0978,optionRight,30,2865,2,9,0,9,0,1,,,,,,,,,,,,,,,,,,,,,,,,,,,,,,,,,,,,,,,
,,,,,,,,2023-08-16_08h33.03.647,HF_wild_card,2022.2.4,Win32,60.04924038,59b7b72e11212f0001cd0f15,64d2fd46c836a06233681665,64dc7b95215c87190a6f0a89,,,,,,,ctch,resources/DB.BMP,resources/DR.BMP,Door3,-0.472222222,0.012962963,1,0,0,0.9145,optionLeft,70,2935,2,10,0,10,0,1,,,,,,,,,,,,,,,,,,,,,,,,,,,,,,,,,,,,,,,
,,,,,,,,2023-08-16_08h33.03.647,HF_wild_card,2022.2.4,Win32,60.04924038,59b7b72e11212f0001cd0f15,64d2fd46c836a06233681665,64dc7b95215c87190a6f0a89,,,,,,,decisionTrl,resources/DG.BMP,resources/DR.BMP,Door2,0.364814815,-0.032407407,1,0,0,1.681,optionRight,40,2975,2,11,0,11,0,1,,,,,,,,,,,,,,,,,,,,,,,,,,,,,,,,,,,,,,,
,,,,,,,,2023-08-16_08h33.03.647,HF_wild_card,2022.2.4,Win32,60.04924038,59b7b72e11212f0001cd0f15,64d2fd46c836a06233681665,64dc7b95215c87190a6f0a89,,,,,,,sngl,resources/Empty.png,resources/DP.BMP,Door4,0.327777778,-0.044444444,1,0,0,0.6815,optionRight,80,3055,2,12,0,12,0,1,,,,,,,,,,,,,,,,,,,,,,,,,,,,,,,,,,,,,,,
,,,,,,,,2023-08-16_08h33.03.647,HF_wild_card,2022.2.4,Win32,60.04924038,59b7b72e11212f0001cd0f15,64d2fd46c836a06233681665,64dc7b95215c87190a6f0a89,,,,,,,ctch,resources/DP.BMP,resources/DG.BMP,Door4,-0.588888889,0.125925926,1,0,0,0.681,optionLeft,60,3115,2,13,0,13,0,1,,,,,,,,,,,,,,,,,,,,,,,,,,,,,,,,,,,,,,,
,,,,,,,,2023-08-16_08h33.03.647,HF_wild_card,2022.2.4,Win32,60.04924038,59b7b72e11212f0001cd0f15,64d2fd46c836a06233681665,64dc7b95215c87190a6f0a89,,,,,,,decisionTrl,resources/DBN.BMP,resources/DR.BMP,Door2,0.40462963,-0.013888889,1,0,0,2.3971,optionRight,20,3135,2,14,0,14,0,1,,,,,,,,,,,,,,,,,,,,,,,,,,,,,,,,,,,,,,,
,,,,,,,,2023-08-16_08h33.03.647,HF_wild_card,2022.2.4,Win32,60.04924038,59b7b72e11212f0001cd0f15,64d2fd46c836a06233681665,64dc7b95215c87190a6f0a89,,,,,,,decisionTrl,resources/DG.BMP,resources/DR.BMP,Door1,-0.247222222,-0.010185185,1,0,0,1.0481,optionLeft,30,3165,2,15,0,15,0,1,,,,,,,,,,,,,,,,,,,,,,,,,,,,,,,,,,,,,,,
,,,,,,,,2023-08-16_08h33.03.647,HF_wild_card,2022.2.4,Win32,60.04924038,59b7b72e11212f0001cd0f15,64d2fd46c836a06233681665,64dc7b95215c87190a6f0a89,,,,,,,ctch,resources/DG.BMP,resources/DP.BMP,Door4,0.460185185,-0.027777778,1,0,0,0.914,optionRight,60,3225,2,16,0,16,0,1,,,,,,,,,,,,,,,,,,,,,,,,,,,,,,,,,,,,,,,
,,,,,,,,2023-08-16_08h33.03.647,HF_wild_card,2022.2.4,Win32,60.04924038,59b7b72e11212f0001cd0f15,64d2fd46c836a06233681665,64dc7b95215c87190a6f0a89,,,,,,,decisionTrl,resources/DB.BMP,resources/DBN.BMP,Door3,-0.267592593,-0.025925926,1,0,0,0.8639,optionLeft,70,3295,2,17,0,17,0,1,,,,,,,,,,,,,,,,,,,,,,,,,,,,,,,,,,,,,,,
,,,,,,,,2023-08-16_08h33.03.647,HF_wild_card,2022.2.4,Win32,60.04924038,59b7b72e11212f0001cd0f15,64d2fd46c836a06233681665,64dc7b95215c87190a6f0a89,,,,,,,sngl,resources/DBN.BMP,resources/Empty.png,WildCard_NonEx,-0.362962963,0.046296296,1,0,0,0.8643,optionLeft,45,3340,2,18,0,18,0,1,,,,,,,,,,,,,,,,,,,,,,,,,,,,,,,,,,,,,,,
,,,,,,,,2023-08-16_08h33.03.647,HF_wild_card,2022.2.4,Win32,60.04924038,59b7b72e11212f0001cd0f15,64d2fd46c836a06233681665,64dc7b95215c87190a6f0a89,,,,,,,sngl,resources/DP.BMP,resources/Empty.png,Door4,-0.3,-0.041666667,1,0,0,0.6976,optionLeft,60,3400,2,19,0,19,0,1,,,,,,,,,,,,,,,,,,,,,,,,,,,,,,,,,,,,,,,
,,,,,,,,2023-08-16_08h33.03.647,HF_wild_card,2022.2.4,Win32,60.04924038,59b7b72e11212f0001cd0f15,64d2fd46c836a06233681665,64dc7b95215c87190a6f0a89,,,,,,,decisionTrl,resources/DR.BMP,resources/DG.BMP,Door1,0.466666667,0.012962963,1,0,0,1.1812,optionRight,30,3430,2,20,0,20,0,1,,,,,,,,,,,,,,,,,,,,,,,,,,,,,,,,,,,,,,,
,,,,,,,,2023-08-16_08h33.03.647,HF_wild_card,2022.2.4,Win32,60.04924038,59b7b72e11212f0001cd0f15,64d2fd46c836a06233681665,64dc7b95215c87190a6f0a89,,,,,,,sngl,resources/Empty.png,resources/DG.BMP,Door1,0.483333333,0.035185185,1,0,0,0.6978,optionRight,30,3460,2,21,0,21,0,1,,,,,,,,,,,,,,,,,,,,,,,,,,,,,,,,,,,,,,,
,,,,,,,,2023-08-16_08h33.03.647,HF_wild_card,2022.2.4,Win32,60.04924038,59b7b72e11212f0001cd0f15,64d2fd46c836a06233681665,64dc7b95215c87190a6f0a89,,,,,,,ctch,resources/DG.BMP,resources/DP.BMP,Door4,0.442592593,0.027777778,1,0,0,0.7406,optionRight,80,3540,2,22,0,22,0,1,,,,,,,,,,,,,,,,,,,,,,,,,,,,,,,,,,,,,,,
,,,,,,,,2023-08-16_08h33.03.647,HF_wild_card,2022.2.4,Win32,60.04924038,59b7b72e11212f0001cd0f15,64d2fd46c836a06233681665,64dc7b95215c87190a6f0a89,,,,,,,decisionTrl,resources/DB.BMP,resources/DP.BMP,Door4,0.351851852,-0.042592593,1,0,0,1.0144,optionRight,80,3620,2,23,0,23,0,1,,,,,,,,,,,,,,,,,,,,,,,,,,,,,,,,,,,,,,,
,,,,,,,,2023-08-16_08h33.03.647,HF_wild_card,2022.2.4,Win32,60.04924038,59b7b72e11212f0001cd0f15,64d2fd46c836a06233681665,64dc7b95215c87190a6f0a89,,,,,,,decisionTrl,resources/DP.BMP,resources/DB.BMP,Door4,-0.390740741,-0.076851852,1,0,0,1.2148,optionLeft,60,3680,2,24,0,24,0,1,,,,,,,,,,,,,,,,,,,,,,,,,,,,,,,,,,,,,,,
,,,,,,,,2023-08-16_08h33.03.647,HF_wild_card,2022.2.4,Win32,60.04924038,59b7b72e11212f0001cd0f15,64d2fd46c836a06233681665,64dc7b95215c87190a6f0a89,,,,,,,decisionTrl,resources/DG.BMP,resources/DR.BMP,Door1,-0.309259259,-0.005555556,1,0,0,1.0809,optionLeft,30,3710,2,25,0,25,0,1,,,,,,,,,,,,,,,,,,,,,,,,,,,,,,,,,,,,,,,
,,,,,,,,2023-08-16_08h33.03.647,HF_wild_card,2022.2.4,Win32,60.04924038,59b7b72e11212f0001cd0f15,64d2fd46c836a06233681665,64dc7b95215c87190a6f0a89,,,,,,,decisionTrl,resources/DG.BMP,resources/DR.BMP,Door2,0.267592593,-0.016666667,1,0,0,0.7233,optionRight,40,3750,2,26,0,26,0,1,,,,,,,,,,,,,,,,,,,,,,,,,,,,,,,,,,,,,,,
,,,,,,,,2023-08-16_08h33.03.647,HF_wild_card,2022.2.4,Win32,60.04924038,59b7b72e11212f0001cd0f15,64d2fd46c836a06233681665,64dc7b95215c87190a6f0a89,,,,,,,ctch,resources/DR.BMP,resources/DB.BMP,Door3,0.281481481,0.001851852,1,0,0,0.8982,optionRight,70,3820,2,27,0,27,0,1,,,,,,,,,,,,,,,,,,,,,,,,,,,,,,,,,,,,,,,
,,,,,,,,2023-08-16_08h33.03.647,HF_wild_card,2022.2.4,Win32,60.04924038,59b7b72e11212f0001cd0f15,64d2fd46c836a06233681665,64dc7b95215c87190a6f0a89,,,,,,,ctch,resources/DB.BMP,resources/DR.BMP,Door3,-0.326851852,-0.026851852,1,0,0,0.8979,optionLeft,70,3890,2,28,0,28,0,1,,,,,,,,,,,,,,,,,,,,,,,,,,,,,,,,,,,,,,,
,,,,,,,,2023-08-16_08h33.03.647,HF_wild_card,2022.2.4,Win32,60.04924038,59b7b72e11212f0001cd0f15,64d2fd46c836a06233681665,64dc7b95215c87190a6f0a89,,,,,,,sngl,resources/Empty.png,resources/DBN.BMP,WildCard_NonEx,0.251851852,-0.019444444,1,0,0,1.0394,optionRight,45,3935,2,29,0,29,0,1,,,,,,,,,,,,,,,,,,,,,,,,,,,,,,,,,,,,,,,
,,,,,,,,2023-08-16_08h33.03.647,HF_wild_card,2022.2.4,Win32,60.04924038,59b7b72e11212f0001cd0f15,64d2fd46c836a06233681665,64dc7b95215c87190a6f0a89,,,,,,,decisionTrl,resources/DP.BMP,resources/DB.BMP,Door4,-0.294444444,0.012037037,1,0,0,1.4304,optionLeft,80,4015,2,30,0,30,0,1,,,,,,,,,,,,,,,,,,,,,,,,,,,,,,,,,,,,,,,
,,,,,,,,2023-08-16_08h33.03.647,HF_wild_card,2022.2.4,Win32,60.04924038,59b7b72e11212f0001cd0f15,64d2fd46c836a06233681665,64dc7b95215c87190a6f0a89,,,,,,,decisionTrl,resources/DB.BMP,resources/DP.BMP,Door4,0.337962963,-0.006481481,1,0,0,1.3909,optionRight,80,4095,2,31,0,31,0,1,,,,,,,,,,,,,,,,,,,,,,,,,,,,,,,,,,,,,,,
,,,,,,,,2023-08-16_08h33.03.647,HF_wild_card,2022.2.4,Win32,60.04924038,59b7b72e11212f0001cd0f15,64d2fd46c836a06233681665,64dc7b95215c87190a6f0a89,,,,,,,decisionTrl,resources/DR.BMP,resources/DG.BMP,Door2,-0.592592593,-0.001851852,1,0,0,1.8311,optionLeft,40,4135,2,32,0,32,0,1,,,,,,,,,,,,,,,,,,,,,,,,,,,,,,,,,,,,,,,
,,,,,,,,2023-08-16_08h33.03.647,HF_wild_card,2022.2.4,Win32,60.04924038,59b7b72e11212f0001cd0f15,64d2fd46c836a06233681665,64dc7b95215c87190a6f0a89,,,,,,,sngl,resources/Empty.png,resources/DBN.BMP,WildCard_NonEx,0.234259259,-0.026851852,1,0,0,0.9148,optionRight,55,4190,2,33,0,33,0,1,,,,,,,,,,,,,,,,,,,,,,,,,,,,,,,,,,,,,,,
,,,,,,,,2023-08-16_08h33.03.647,HF_wild_card,2022.2.4,Win32,60.04924038,59b7b72e11212f0001cd0f15,64d2fd46c836a06233681665,64dc7b95215c87190a6f0a89,,,,,,,decisionTrl,resources/DG.BMP,resources/DBN.BMP,Door1,-0.347222222,0.010185185,1,0,0,0.8145,optionLeft,30,4220,2,34,0,34,0,1,,,,,,,,,,,,,,,,,,,,,,,,,,,,,,,,,,,,,,,
,,,,,,,,2023-08-16_08h33.03.647,HF_wild_card,2022.2.4,Win32,60.04924038,59b7b72e11212f0001cd0f15,64d2fd46c836a06233681665,64dc7b95215c87190a6f0a89,,,,,,,sngl,resources/DG.BMP,resources/Empty.png,Door1,-0.181481481,0.000925926,1,0,0,0.798,optionLeft,30,4250,2,35,0,35,0,1,,,,,,,,,,,,,,,,,,,,,,,,,,,,,,,,,,,,,,,
,,,,,,,,2023-08-16_08h33.03.647,HF_wild_card,2022.2.4,Win32,60.04924038,59b7b72e11212f0001cd0f15,64d2fd46c836a06233681665,64dc7b95215c87190a6f0a89,,,,,,,ctch,resources/DR.BMP,resources/DB.BMP,Door3,0.316666667,0.028703704,1,0,0,1.7971,optionRight,70,4320,2,36,0,36,0,1,,,,,,,,,,,,,,,,,,,,,,,,,,,,,,,,,,,,,,,
,,,,,,,,2023-08-16_08h33.03.647,HF_wild_card,2022.2.4,Win32,60.04924038,59b7b72e11212f0001cd0f15,64d2fd46c836a06233681665,64dc7b95215c87190a6f0a89,,,,,,,decisionTrl,resources/DBN.BMP,resources/DP.BMP,Door4,0.285185185,-0.011111111,1,0,0,0.8314,optionRight,60,4380,2,37,0,37,0,1,,,,,,,,,,,,,,,,,,,,,,,,,,,,,,,,,,,,,,,
,,,,,,,,2023-08-16_08h33.03.647,HF_wild_card,2022.2.4,Win32,60.04924038,59b7b72e11212f0001cd0f15,64d2fd46c836a06233681665,64dc7b95215c87190a6f0a89,,,,,,,sngl,resources/DB.BMP,resources/Empty.png,Door3,-0.290740741,0.011111111,1,0,0,0.6898,optionLeft,70,4450,2,38,0,38,0,1,,,,,,,,,,,,,,,,,,,,,,,,,,,,,,,,,,,,,,,
,,,,,,,,2023-08-16_08h33.03.647,HF_wild_card,2022.2.4,Win32,60.04924038,59b7b72e11212f0001cd0f15,64d2fd46c836a06233681665,64dc7b95215c87190a6f0a89,,,,,,,decisionTrl,resources/DBN.BMP,resources/DB.BMP,Door3,0.294444444,-0.011111111,1,0,0,0.7811,optionRight,70,4520,2,39,0,39,0,1,,,,,,,,,,,,,,,,,,,,,,,,,,,,,,,,,,,,,,,
,,,,,,,,2023-08-16_08h33.03.647,HF_wild_card,2022.2.4,Win32,60.04924038,59b7b72e11212f0001cd0f15,64d2fd46c836a06233681665,64dc7b95215c87190a6f0a89,,,,,,,sngl,resources/Empty.png,resources/DB.BMP,Door3,0.319444444,-0.006481481,1,0,0,0.6811,optionRight,70,4590,2,40,0,40,0,1,,,,,,,,,,,,,,,,,,,,,,,,,,,,,,,,,,,,,,,
,,,,,,,,2023-08-16_08h33.03.647,HF_wild_card,2022.2.4,Win32,60.04924038,59b7b72e11212f0001cd0f15,64d2fd46c836a06233681665,64dc7b95215c87190a6f0a89,,,,,,,ctch,resources/DP.BMP,resources/DG.BMP,Door4,-0.380555556,0.038888889,1,0,0,0.8982,optionLeft,60,4650,2,41,0,41,0,1,,,,,,,,,,,,,,,,,,,,,,,,,,,,,,,,,,,,,,,
,,,,,,,,2023-08-16_08h33.03.647,HF_wild_card,2022.2.4,Win32,60.04924038,59b7b72e11212f0001cd0f15,64d2fd46c836a06233681665,64dc7b95215c87190a6f0a89,,,,,,,decisionTrl,resources/DB.BMP,resources/DP.BMP,Door4,0.453703704,0.041666667,1,0,0,1.814,optionRight,60,4710,2,42,0,42,0,1,,,,,,,,,,,,,,,,,,,,,,,,,,,,,,,,,,,,,,,
,,,,,,,,2023-08-16_08h33.03.647,HF_wild_card,2022.2.4,Win32,60.04924038,59b7b72e11212f0001cd0f15,64d2fd46c836a06233681665,64dc7b95215c87190a6f0a89,,,,,,,decisionTrl,resources/DB.BMP,resources/DP.BMP,Door4,0.368518519,-0.042592593,1,0,0,1.0976,optionRight,80,4790,2,43,0,43,0,1,,,,,,,,,,,,,,,,,,,,,,,,,,,,,,,,,,,,,,,
,,,,,,,,2023-08-16_08h33.03.647,HF_wild_card,2022.2.4,Win32,60.04924038,59b7b72e11212f0001cd0f15,64d2fd46c836a06233681665,64dc7b95215c87190a6f0a89,,,,,,,,,,,,,,,,,,,,,,,,,,1,0,1,0,1,,,,,,,,,,,,,,,,,,,,,,,,,,,,,,,,,,
,,,,,,,,2023-08-16_08h33.03.647,HF_wild_card,2022.2.4,Win32,60.04924038,59b7b72e11212f0001cd0f15,64d2fd46c836a06233681665,64dc7b95215c87190a6f0a89,,,,,,,decisionTrl,resources/DR.BMP,resources/DG.BMP,Door1,0.510185185,-0.023148148,1,0,0,1.2894,optionRight,30,4820,3,0,0,0,0,1,,,,,,,,,,,,,,,,,,,,,,,,,,,,,,,,,,,,,,,
,,,,,,,,2023-08-16_08h33.03.647,HF_wild_card,2022.2.4,Win32,60.04924038,59b7b72e11212f0001cd0f15,64d2fd46c836a06233681665,64dc7b95215c87190a6f0a89,,,,,,,ctch,resources/DB.BMP,resources/DR.BMP,Door3,-0.251851852,0.012037037,1,0,0,0.5971,optionLeft,70,4890,3,1,0,1,0,1,,,,,,,,,,,,,,,,,,,,,,,,,,,,,,,,,,,,,,,
,,,,,,,,2023-08-16_08h33.03.647,HF_wild_card,2022.2.4,Win32,60.04924038,59b7b72e11212f0001cd0f15,64d2fd46c836a06233681665,64dc7b95215c87190a6f0a89,,,,,,,ctch,resources/DP.BMP,resources/DG.BMP,Door4,-0.293518519,0,1,0,0,0.6474,optionLeft,80,4970,3,2,0,2,0,1,,,,,,,,,,,,,,,,,,,,,,,,,,,,,,,,,,,,,,,
,,,,,,,,2023-08-16_08h33.03.647,HF_wild_card,2022.2.4,Win32,60.04924038,59b7b72e11212f0001cd0f15,64d2fd46c836a06233681665,64dc7b95215c87190a6f0a89,,,,,,,decisionTrl,resources/DBN.BMP,resources/DG.BMP,Door1,0.225,-0.001851852,1,0,0,0.8812,optionRight,30,5000,3,3,0,3,0,1,,,,,,,,,,,,,,,,,,,,,,,,,,,,,,,,,,,,,,,
,,,,,,,,2023-08-16_08h33.03.647,HF_wild_card,2022.2.4,Win32,60.04924038,59b7b72e11212f0001cd0f15,64d2fd46c836a06233681665,64dc7b95215c87190a6f0a89,,,,,,,decisionTrl,resources/DP.BMP,resources/DB.BMP,Door4,-0.32962963,-0.011111111,1,0,0,0.7476,optionLeft,80,5080,3,4,0,4,0,1,,,,,,,,,,,,,,,,,,,,,,,,,,,,,,,,,,,,,,,
,,,,,,,,2023-08-16_08h33.03.647,HF_wild_card,2022.2.4,Win32,60.04924038,59b7b72e11212f0001cd0f15,64d2fd46c836a06233681665,64dc7b95215c87190a6f0a89,,,,,,,decisionTrl,resources/DG.BMP,resources/DR.BMP,Door1,-0.269444444,-0.021296296,1,0,0,1.0981,optionLeft,30,5110,3,5,0,5,0,1,,,,,,,,,,,,,,,,,,,,,,,,,,,,,,,,,,,,,,,
,,,,,,,,2023-08-16_08h33.03.647,HF_wild_card,2022.2.4,Win32,60.04924038,59b7b72e11212f0001cd0f15,64d2fd46c836a06233681665,64dc7b95215c87190a6f0a89,,,,,,,sngl,resources/DBN.BMP,resources/Empty.png,WildCard_NonEx,-0.339814815,0.026851852,1,0,0,0.6644,optionLeft,45,5155,3,6,0,6,0,1,,,,,,,,,,,,,,,,,,,,,,,,,,,,,,,,,,,,,,,
,,,,,,,,2023-08-16_08h33.03.647,HF_wild_card,2022.2.4,Win32,60.04924038,59b7b72e11212f0001cd0f15,64d2fd46c836a06233681665,64dc7b95215c87190a6f0a89,,,,,,,ctch,resources/DG.BMP,resources/DP.BMP,Door4,0.47037037,0.011111111,1,0,0,1.2806,optionRight,80,5235,3,7,0,7,0,1,,,,,,,,,,,,,,,,,,,,,,,,,,,,,,,,,,,,,,,
,,,,,,,,2023-08-16_08h33.03.647,HF_wild_card,2022.2.4,Win32,60.04924038,59b7b72e11212f0001cd0f15,64d2fd46c836a06233681665,64dc7b95215c87190a6f0a89,,,,,,,decisionTrl,resources/DG.BMP,resources/DR.BMP,Door2,0.358333333,0.002777778,1,0,0,3.3975,optionRight,20,5255,3,8,0,8,0,1,,,,,,,,,,,,,,,,,,,,,,,,,,,,,,,,,,,,,,,
,,,,,,,,2023-08-16_08h33.03.647,HF_wild_card,2022.2.4,Win32,60.04924038,59b7b72e11212f0001cd0f15,64d2fd46c836a06233681665,64dc7b95215c87190a6f0a89,,,,,,,decisionTrl,resources/DB.BMP,resources/DP.BMP,Door4,0.380555556,-0.05462963,1,0,0,1.3145,optionRight,80,5335,3,9,0,9,0,1,,,,,,,,,,,,,,,,,,,,,,,,,,,,,,,,,,,,,,,
,,,,,,,,2023-08-16_08h33.03.647,HF_wild_card,2022.2.4,Win32,60.04924038,59b7b72e11212f0001cd0f15,64d2fd46c836a06233681665,64dc7b95215c87190a6f0a89,,,,,,,sngl,resources/DBN.BMP,resources/Empty.png,WildCard_NonEx,-0.487962963,0.065740741,1,0,0,0.6645,optionLeft,55,5390,3,10,0,10,0,1,,,,,,,,,,,,,,,,,,,,,,,,,,,,,,,,,,,,,,,
,,,,,,,,2023-08-16_08h33.03.647,HF_wild_card,2022.2.4,Win32,60.04924038,59b7b72e11212f0001cd0f15,64d2fd46c836a06233681665,64dc7b95215c87190a6f0a89,,,,,,,decisionTrl,resources/DR.BMP,resources/DG.BMP,Door1,0.293518519,-0.025925926,1,0,0,0.7474,optionRight,30,5420,3,11,0,11,0,1,,,,,,,,,,,,,,,,,,,,,,,,,,,,,,,,,,,,,,,
,,,,,,,,2023-08-16_08h33.03.647,HF_wild_card,2022.2.4,Win32,60.04924038,59b7b72e11212f0001cd0f15,64d2fd46c836a06233681665,64dc7b95215c87190a6f0a89,,,,,,,ctch,resources/DG.BMP,resources/DP.BMP,Door4,0.426851852,-0.032407407,1,0,0,0.6478,optionRight,80,5500,3,12,0,12,0,1,,,,,,,,,,,,,,,,,,,,,,,,,,,,,,,,,,,,,,,
,,,,,,,,2023-08-16_08h33.03.647,HF_wild_card,2022.2.4,Win32,60.04924038,59b7b72e11212f0001cd0f15,64d2fd46c836a06233681665,64dc7b95215c87190a6f0a89,,,,,,,decisionTrl,resources/DP.BMP,resources/DB.BMP,Door4,-0.300925926,-0.018518519,1,0,0,1.6312,optionLeft,80,5580,3,13,0,13,0,1,,,,,,,,,,,,,,,,,,,,,,,,,,,,,,,,,,,,,,,
,,,,,,,,2023-08-16_08h33.03.647,HF_wild_card,2022.2.4,Win32,60.04924038,59b7b72e11212f0001cd0f15,64d2fd46c836a06233681665,64dc7b95215c87190a6f0a89,,,,,,,decisionTrl,resources/DP.BMP,resources/DBN.BMP,Door4,-0.40462963,-0.026851852,1,0,0,2.4814,optionLeft,60,5640,3,14,0,14,0,1,,,,,,,,,,,,,,,,,,,,,,,,,,,,,,,,,,,,,,,
,,,,,,,,2023-08-16_08h33.03.647,HF_wild_card,2022.2.4,Win32,60.04924038,59b7b72e11212f0001cd0f15,64d2fd46c836a06233681665,64dc7b95215c87190a6f0a89,,,,,,,sngl,resources/DR.BMP,resources/Empty.png,Door2,-0.435185185,0.000925926,1,0,0,1.0478,optionLeft,40,5680,3,15,0,15,0,1,,,,,,,,,,,,,,,,,,,,,,,,,,,,,,,,,,,,,,,
,,,,,,,,2023-08-16_08h33.03.647,HF_wild_card,2022.2.4,Win32,60.04924038,59b7b72e11212f0001cd0f15,64d2fd46c836a06233681665,64dc7b95215c87190a6f0a89,,,,,,,decisionTrl,resources/DB.BMP,resources/DBN.BMP,Door3,-0.188888889,-0.016666667,1,0,0,0.781,optionLeft,70,5750,3,16,0,16,0,1,,,,,,,,,,,,,,,,,,,,,,,,,,,,,,,,,,,,,,,
,,,,,,,,2023-08-16_08h33.03.647,HF_wild_card,2022.2.4,Win32,60.04924038,59b7b72e11212f0001cd0f15,64d2fd46c836a06233681665,64dc7b95215c87190a6f0a89,,,,,,,decisionTrl,resources/DG.BMP,resources/DBN.BMP,Door1,-0.388888889,-0.018518519,1,0,0,0.7143,optionLeft,30,5780,3,17,0,17,0,1,,,,,,,,,,,,,,,,,,,,,,,,,,,,,,,,,,,,,,,
,,,,,,,,2023-08-16_08h33.03.647,HF_wild_card,2022.2.4,Win32,60.04924038,59b7b72e11212f0001cd0f15,64d2fd46c836a06233681665,64dc7b95215c87190a6f0a89,,,,,,,decisionTrl,resources/DR.BMP,resources/DG.BMP,Door1,0.621296296,-0.014814815,1,0,0,1.5315,optionRight,30,5810,3,18,0,18,0,1,,,,,,,,,,,,,,,,,,,,,,,,,,,,,,,,,,,,,,,
,,,,,,,,2023-08-16_08h33.03.647,HF_wild_card,2022.2.4,Win32,60.04924038,59b7b72e11212f0001cd0f15,64d2fd46c836a06233681665,64dc7b95215c87190a6f0a89,,,,,,,sngl,resources/Empty.png,resources/DBN.BMP,WildCard_NonEx,0.20462963,0.012037037,1,0,0,0.7313,optionRight,45,5855,3,19,0,19,0,1,,,,,,,,,,,,,,,,,,,,,,,,,,,,,,,,,,,,,,,
,,,,,,,,2023-08-16_08h33.03.647,HF_wild_card,2022.2.4,Win32,60.04924038,59b7b72e11212f0001cd0f15,64d2fd46c836a06233681665,64dc7b95215c87190a6f0a89,,,,,,,ctch,resources/DP.BMP,resources/DG.BMP,Door4,-0.261111111,-0.022222222,1,0,0,0.7645,optionLeft,60,5915,3,20,0,20,0,1,,,,,,,,,,,,,,,,,,,,,,,,,,,,,,,,,,,,,,,
,,,,,,,,2023-08-16_08h33.03.647,HF_wild_card,2022.2.4,Win32,60.04924038,59b7b72e11212f0001cd0f15,64d2fd46c836a06233681665,64dc7b95215c87190a6f0a89,,,,,,,ctch,resources/DB.BMP,resources/DR.BMP,Door3,-0.306481481,-0.012037037,1,0,0,0.7147,optionLeft,70,5985,3,21,0,21,0,1,,,,,,,,,,,,,,,,,,,,,,,,,,,,,,,,,,,,,,,
,,,,,,,,2023-08-16_08h33.03.647,HF_wild_card,2022.2.4,Win32,60.04924038,59b7b72e11212f0001cd0f15,64d2fd46c836a06233681665,64dc7b95215c87190a6f0a89,,,,,,,sngl,resources/DG.BMP,resources/Empty.png,Door1,-0.263888889,0.032407407,1,0,0,1.3144,optionLeft,30,6015,3,22,0,22,0,1,,,,,,,,,,,,,,,,,,,,,,,,,,,,,,,,,,,,,,,
,,,,,,,,2023-08-16_08h33.03.647,HF_wild_card,2022.2.4,Win32,60.04924038,59b7b72e11212f0001cd0f15,64d2fd46c836a06233681665,64dc7b95215c87190a6f0a89,,,,,,,sngl,resources/DB.BMP,resources/Empty.png,Door3,-0.419444444,-0.00462963,1,0,0,0.5984,optionLeft,70,6085,3,23,0,23,0,1,,,,,,,,,,,,,,,,,,,,,,,,,,,,,,,,,,,,,,,
,,,,,,,,2023-08-16_08h33.03.647,HF_wild_card,2022.2.4,Win32,60.04924038,59b7b72e11212f0001cd0f15,64d2fd46c836a06233681665,64dc7b95215c87190a6f0a89,,,,,,,sngl,resources/Empty.png,resources/DG.BMP,Door1,0.299074074,-0.049074074,1,0,0,0.6981,optionRight,30,6115,3,24,0,24,0,1,,,,,,,,,,,,,,,,,,,,,,,,,,,,,,,,,,,,,,,
,,,,,,,,2023-08-16_08h33.03.647,HF_wild_card,2022.2.4,Win32,60.04924038,59b7b72e11212f0001cd0f15,64d2fd46c836a06233681665,64dc7b95215c87190a6f0a89,,,,,,,decisionTrl,resources/DR.BMP,resources/DG.BMP,Door1,0.344444444,-0.031481481,1,0,0,1.1977,optionRight,30,6145,3,25,0,25,0,1,,,,,,,,,,,,,,,,,,,,,,,,,,,,,,,,,,,,,,,
,,,,,,,,2023-08-16_08h33.03.647,HF_wild_card,2022.2.4,Win32,60.04924038,59b7b72e11212f0001cd0f15,64d2fd46c836a06233681665,64dc7b95215c87190a6f0a89,,,,,,,decisionTrl,resources/DR.BMP,resources/DBN.BMP,Door2,-0.276851852,-0.024074074,1,0,0,0.9312,optionLeft,40,6185,3,26,0,26,0,1,,,,,,,,,,,,,,,,,,,,,,,,,,,,,,,,,,,,,,,
,,,,,,,,2023-08-16_08h33.03.647,HF_wild_card,2022.2.4,Win32,60.04924038,59b7b72e11212f0001cd0f15,64d2fd46c836a06233681665,64dc7b95215c87190a6f0a89,,,,,,,sngl,resources/DP.BMP,resources/Empty.png,Door4,-0.347222222,-0.010185185,1,0,0,0.6977,optionLeft,80,6265,3,27,0,27,0,1,,,,,,,,,,,,,,,,,,,,,,,,,,,,,,,,,,,,,,,
,,,,,,,,2023-08-16_08h33.03.647,HF_wild_card,2022.2.4,Win32,60.04924038,59b7b72e11212f0001cd0f15,64d2fd46c836a06233681665,64dc7b95215c87190a6f0a89,,,,,,,ctch,resources/DR.BMP,resources/DB.BMP,Door3,0.353703704,-0.025,1,0,0,0.9973,optionRight,70,6335,3,28,0,28,0,1,,,,,,,,,,,,,,,,,,,,,,,,,,,,,,,,,,,,,,,
,,,,,,,,2023-08-16_08h33.03.647,HF_wild_card,2022.2.4,Win32,60.04924038,59b7b72e11212f0001cd0f15,64d2fd46c836a06233681665,64dc7b95215c87190a6f0a89,,,,,,,sngl,resources/Empty.png,resources/DP.BMP,Door4,0.384259259,0.013888889,1,0,0,0.6307,optionRight,60,6395,3,29,0,29,0,1,,,,,,,,,,,,,,,,,,,,,,,,,,,,,,,,,,,,,,,
,,,,,,,,2023-08-16_08h33.03.647,HF_wild_card,2022.2.4,Win32,60.04924038,59b7b72e11212f0001cd0f15,64d2fd46c836a06233681665,64dc7b95215c87190a6f0a89,,,,,,,decisionTrl,resources/DBN.BMP,resources/DR.BMP,Door2,0.34537037,0.040740741,1,0,0,2.1308,optionRight,40,6435,3,30,0,30,0,1,,,,,,,,,,,,,,,,,,,,,,,,,,,,,,,,,,,,,,,
,,,,,,,,2023-08-16_08h33.03.647,HF_wild_card,2022.2.4,Win32,60.04924038,59b7b72e11212f0001cd0f15,64d2fd46c836a06233681665,64dc7b95215c87190a6f0a89,,,,,,,ctch,resources/DR.BMP,resources/DB.BMP,Door3,0.289814815,0.005555556,1,0,0,1.4814,optionRight,70,6505,3,31,0,31,0,1,,,,,,,,,,,,,,,,,,,,,,,,,,,,,,,,,,,,,,,
,,,,,,,,2023-08-16_08h33.03.647,HF_wild_card,2022.2.4,Win32,60.04924038,59b7b72e11212f0001cd0f15,64d2fd46c836a06233681665,64dc7b95215c87190a6f0a89,,,,,,,decisionTrl,resources/DG.BMP,resources/DR.BMP,Door2,0.267592593,0.005555556,1,0,0,1.6312,optionRight,20,6525,3,32,0,32,0,1,,,,,,,,,,,,,,,,,,,,,,,,,,,,,,,,,,,,,,,
,,,,,,,,2023-08-16_08h33.03.647,HF_wild_card,2022.2.4,Win32,60.04924038,59b7b72e11212f0001cd0f15,64d2fd46c836a06233681665,64dc7b95215c87190a6f0a89,,,,,,,sngl,resources/Empty.png,resources/DR.BMP,Door2,0.44537037,-0.032407407,1,0,0,0.7477,optionRight,20,6545,3,33,0,33,0,1,,,,,,,,,,,,,,,,,,,,,,,,,,,,,,,,,,,,,,,
,,,,,,,,2023-08-16_08h33.03.647,HF_wild_card,2022.2.4,Win32,60.04924038,59b7b72e11212f0001cd0f15,64d2fd46c836a06233681665,64dc7b95215c87190a6f0a89,,,,,,,decisionTrl,resources/DG.BMP,resources/DR.BMP,Door1,-0.30462963,0.00462963,1,0,0,0.7644,optionLeft,30,6575,3,34,0,34,0,1,,,,,,,,,,,,,,,,,,,,,,,,,,,,,,,,,,,,,,,
,,,,,,,,2023-08-16_08h33.03.647,HF_wild_card,2022.2.4,Win32,60.04924038,59b7b72e11212f0001cd0f15,64d2fd46c836a06233681665,64dc7b95215c87190a6f0a89,,,,,,,sngl,resources/Empty.png,resources/DB.BMP,Door3,0.581481481,-0.105555556,1,0,0,0.7317,optionRight,70,6645,3,35,0,35,0,1,,,,,,,,,,,,,,,,,,,,,,,,,,,,,,,,,,,,,,,
,,,,,,,,2023-08-16_08h33.03.647,HF_wild_card,2022.2.4,Win32,60.04924038,59b7b72e11212f0001cd0f15,64d2fd46c836a06233681665,64dc7b95215c87190a6f0a89,,,,,,,decisionTrl,resources/DP.BMP,resources/DB.BMP,Door4,-0.284259259,-0.018518519,1,0,0,1.1568,optionLeft,80,6725,3,36,0,36,0,1,,,,,,,,,,,,,,,,,,,,,,,,,,,,,,,,,,,,,,,
,,,,,,,,2023-08-16_08h33.03.647,HF_wild_card,2022.2.4,Win32,60.04924038,59b7b72e11212f0001cd0f15,64d2fd46c836a06233681665,64dc7b95215c87190a6f0a89,,,,,,,decisionTrl,resources/DB.BMP,resources/DP.BMP,Door4,0.344444444,-0.047222222,1,0,0,1.3802,optionRight,60,6785,3,37,0,37,0,1,,,,,,,,,,,,,,,,,,,,,,,,,,,,,,,,,,,,,,,
,,,,,,,,2023-08-16_08h33.03.647,HF_wild_card,2022.2.4,Win32,60.04924038,59b7b72e11212f0001cd0f15,64d2fd46c836a06233681665,64dc7b95215c87190a6f0a89,,,,,,,decisionTrl,resources/DB.BMP,resources/DP.BMP,Door4,0.291666667,-0.048148148,1,0,0,1.0645,optionRight,60,6845,3,38,0,38,0,1,,,,,,,,,,,,,,,,,,,,,,,,,,,,,,,,,,,,,,,
,,,,,,,,2023-08-16_08h33.03.647,HF_wild_card,2022.2.4,Win32,60.04924038,59b7b72e11212f0001cd0f15,64d2fd46c836a06233681665,64dc7b95215c87190a6f0a89,,,,,,,decisionTrl,resources/DBN.BMP,resources/DP.BMP,Door4,0.306481481,-0.073148148,1,0,0,0.8813,optionRight,60,6905,3,39,0,39,0,1,,,,,,,,,,,,,,,,,,,,,,,,,,,,,,,,,,,,,,,
,,,,,,,,2023-08-16_08h33.03.647,HF_wild_card,2022.2.4,Win32,60.04924038,59b7b72e11212f0001cd0f15,64d2fd46c836a06233681665,64dc7b95215c87190a6f0a89,,,,,,,sngl,resources/Empty.png,resources/DBN.BMP,WildCard_NonEx,0.337962963,-0.016666667,1,0,0,0.7477,optionRight,55,6960,3,40,0,40,0,1,,,,,,,,,,,,,,,,,,,,,,,,,,,,,,,,,,,,,,,
,,,,,,,,2023-08-16_08h33.03.647,HF_wild_card,2022.2.4,Win32,60.04924038,59b7b72e11212f0001cd0f15,64d2fd46c836a06233681665,64dc7b95215c87190a6f0a89,,,,,,,decisionTrl,resources/DP.BMP,resources/DB.BMP,Door4,-0.453703704,0.022222222,1,0,0,1.6638,optionLeft,80,7040,3,41,0,41,0,1,,,,,,,,,,,,,,,,,,,,,,,,,,,,,,,,,,,,,,,
,,,,,,,,2023-08-16_08h33.03.647,HF_wild_card,2022.2.4,Win32,60.04924038,59b7b72e11212f0001cd0f15,64d2fd46c836a06233681665,64dc7b95215c87190a6f0a89,,,,,,,decisionTrl,resources/DB.BMP,resources/DP.BMP,Door4,0.491666667,0.001851852,1,0,0,0.7807,optionRight,60,7100,3,42,0,42,0,1,,,,,,,,,,,,,,,,,,,,,,,,,,,,,,,,,,,,,,,
,,,,,,,,2023-08-16_08h33.03.647,HF_wild_card,2022.2.4,Win32,60.04924038,59b7b72e11212f0001cd0f15,64d2fd46c836a06233681665,64dc7b95215c87190a6f0a89,,,,,,,decisionTrl,resources/DBN.BMP,resources/DB.BMP,Door3,0.287962963,0.010185185,1,0,0,1.2309,optionRight,70,7170,3,43,0,43,0,1,,,,,,,,,,,,,,,,,,,,,,,,,,,,,,,,,,,,,,,
,,,,,,,,2023-08-16_08h33.03.647,HF_wild_card,2022.2.4,Win32,60.04924038,59b7b72e11212f0001cd0f15,64d2fd46c836a06233681665,64dc7b95215c87190a6f0a89,,,,,,,,,,,,,,,,,,,,,,,,,,2,0,2,0,1,,,,,,,,,,,,,,,,,,,,,,,,,,,,,,,,,,
,,,,,,,,2023-08-16_08h33.03.647,HF_wild_card,2022.2.4,Win32,60.04924038,59b7b72e11212f0001cd0f15,64d2fd46c836a06233681665,64dc7b95215c87190a6f0a89,,,,,,,decisionTrl,resources/DB.BMP,resources/DP.BMP,Door4,0.505555556,-0.093518519,1,0,0,1.5235,optionRight,60,7230,4,0,0,0,0,1,,,,,,,,,,,,,,,,,,,,,,,,,,,,,,,,,,,,,,,
,,,,,,,,2023-08-16_08h33.03.647,HF_wild_card,2022.2.4,Win32,60.04924038,59b7b72e11212f0001cd0f15,64d2fd46c836a06233681665,64dc7b95215c87190a6f0a89,,,,,,,sngl,resources/Empty.png,resources/DG.BMP,Door1,0.303703704,-0.033333333,1,0,0,0.7057,optionRight,30,7260,4,1,0,1,0,1,,,,,,,,,,,,,,,,,,,,,,,,,,,,,,,,,,,,,,,
,,,,,,,,2023-08-16_08h33.03.647,HF_wild_card,2022.2.4,Win32,60.04924038,59b7b72e11212f0001cd0f15,64d2fd46c836a06233681665,64dc7b95215c87190a6f0a89,,,,,,,ctch,resources/DR.BMP,resources/DB.BMP,Door3,0.430555556,-0.018518519,1,0,0,1.0979,optionRight,70,7330,4,2,0,2,0,1,,,,,,,,,,,,,,,,,,,,,,,,,,,,,,,,,,,,,,,
,,,,,,,,2023-08-16_08h33.03.647,HF_wild_card,2022.2.4,Win32,60.04924038,59b7b72e11212f0001cd0f15,64d2fd46c836a06233681665,64dc7b95215c87190a6f0a89,,,,,,,decisionTrl,resources/DB.BMP,resources/DP.BMP,Door4,0.460185185,0.017592593,1,0,0,2.0895,optionRight,60,7390,4,3,0,3,0,1,,,,,,,,,,,,,,,,,,,,,,,,,,,,,,,,,,,,,,,
,,,,,,,,2023-08-16_08h33.03.647,HF_wild_card,2022.2.4,Win32,60.04924038,59b7b72e11212f0001cd0f15,64d2fd46c836a06233681665,64dc7b95215c87190a6f0a89,,,,,,,decisionTrl,resources/DP.BMP,resources/DB.BMP,Door4,-0.431481481,0.040740741,1,0,0,0.8477,optionLeft,80,7470,4,4,0,4,0,1,,,,,,,,,,,,,,,,,,,,,,,,,,,,,,,,,,,,,,,
,,,,,,,,2023-08-16_08h33.03.647,HF_wild_card,2022.2.4,Win32,60.04924038,59b7b72e11212f0001cd0f15,64d2fd46c836a06233681665,64dc7b95215c87190a6f0a89,,,,,,,decisionTrl,resources/DR.BMP,resources/DG.BMP,Door1,0.477777778,-0.057407407,1,0,0,1.1814,optionRight,30,7500,4,5,0,5,0,1,,,,,,,,,,,,,,,,,,,,,,,,,,,,,,,,,,,,,,,
,,,,,,,,2023-08-16_08h33.03.647,HF_wild_card,2022.2.4,Win32,60.04924038,59b7b72e11212f0001cd0f15,64d2fd46c836a06233681665,64dc7b95215c87190a6f0a89,,,,,,,decisionTrl,resources/DR.BMP,resources/DY.BMP,WildCard_Ex,0.352777778,-0.019444444,1,0,0,1.9979,optionRight,55,7555,4,6,0,6,0,1,,,,,,,,,,,,,,,,,,,,,,,,,,,,,,,,,,,,,,,
,,,,,,,,2023-08-16_08h33.03.647,HF_wild_card,2022.2.4,Win32,60.04924038,59b7b72e11212f0001cd0f15,64d2fd46c836a06233681665,64dc7b95215c87190a6f0a89,,,,,,,decisionTrl,resources/DB.BMP,resources/DP.BMP,Door4,0.475,0.05462963,1,0,0,1.3646,optionRight,60,7615,4,7,0,7,0,1,,,,,,,,,,,,,,,,,,,,,,,,,,,,,,,,,,,,,,,
,,,,,,,,2023-08-16_08h33.03.647,HF_wild_card,2022.2.4,Win32,60.04924038,59b7b72e11212f0001cd0f15,64d2fd46c836a06233681665,64dc7b95215c87190a6f0a89,,,,,,,sngl,resources/Empty.png,resources/DY.BMP,WildCard_Ex,0.399074074,-0.062962963,1,0,0,0.64,optionRight,45,7660,4,8,0,8,0,1,,,,,,,,,,,,,,,,,,,,,,,,,,,,,,,,,,,,,,,
,,,,,,,,2023-08-16_08h33.03.647,HF_wild_card,2022.2.4,Win32,60.04924038,59b7b72e11212f0001cd0f15,64d2fd46c836a06233681665,64dc7b95215c87190a6f0a89,,,,,,,decisionTrl,resources/DG.BMP,resources/DR.BMP,Door1,-0.231481481,0.002777778,1,0,0,2.2309,optionLeft,30,7690,4,9,0,9,0,1,,,,,,,,,,,,,,,,,,,,,,,,,,,,,,,,,,,,,,,
,,,,,,,,2023-08-16_08h33.03.647,HF_wild_card,2022.2.4,Win32,60.04924038,59b7b72e11212f0001cd0f15,64d2fd46c836a06233681665,64dc7b95215c87190a6f0a89,,,,,,,decisionTrl,resources/DY.BMP,resources/DG.BMP,WildCard_Ex,-0.415740741,0.043518519,1,0,0,0.8979,optionLeft,55,7745,4,10,0,10,0,1,,,,,,,,,,,,,,,,,,,,,,,,,,,,,,,,,,,,,,,
,,,,,,,,2023-08-16_08h33.03.647,HF_wild_card,2022.2.4,Win32,60.04924038,59b7b72e11212f0001cd0f15,64d2fd46c836a06233681665,64dc7b95215c87190a6f0a89,,,,,,,ctch,resources/DB.BMP,resources/DR.BMP,Door3,-0.337962963,-0.048148148,1,0,0,1.2473,optionLeft,70,7815,4,11,0,11,0,1,,,,,,,,,,,,,,,,,,,,,,,,,,,,,,,,,,,,,,,
,,,,,,,,2023-08-16_08h33.03.647,HF_wild_card,2022.2.4,Win32,60.04924038,59b7b72e11212f0001cd0f15,64d2fd46c836a06233681665,64dc7b95215c87190a6f0a89,,,,,,,decisionTrl,resources/DB.BMP,resources/DY.BMP,WildCard_Ex,0.407407407,0.034259259,1,0,0,1.9813,optionRight,45,7860,4,12,0,12,0,1,,,,,,,,,,,,,,,,,,,,,,,,,,,,,,,,,,,,,,,
,,,,,,,,2023-08-16_08h33.03.647,HF_wild_card,2022.2.4,Win32,60.04924038,59b7b72e11212f0001cd0f15,64d2fd46c836a06233681665,64dc7b95215c87190a6f0a89,,,,,,,sngl,resources/DY.BMP,resources/Empty.png,WildCard_Ex,-0.326851852,0.049074074,1,0,0,1.048,optionLeft,45,7905,4,13,0,13,0,1,,,,,,,,,,,,,,,,,,,,,,,,,,,,,,,,,,,,,,,
,,,,,,,,2023-08-16_08h33.03.647,HF_wild_card,2022.2.4,Win32,60.04924038,59b7b72e11212f0001cd0f15,64d2fd46c836a06233681665,64dc7b95215c87190a6f0a89,,,,,,,decisionTrl,resources/DG.BMP,resources/DY.BMP,WildCard_Ex,0.337962963,-0.075925926,1,0,0,2.9902,optionRight,45,7950,4,14,0,14,0,1,,,,,,,,,,,,,,,,,,,,,,,,,,,,,,,,,,,,,,,
,,,,,,,,2023-08-16_08h33.03.647,HF_wild_card,2022.2.4,Win32,60.04924038,59b7b72e11212f0001cd0f15,64d2fd46c836a06233681665,64dc7b95215c87190a6f0a89,,,,,,,sngl,resources/Empty.png,resources/DY.BMP,WildCard_Ex,0.237037037,-0.038888889,1,0,0,0.9973,optionRight,55,8005,4,15,0,15,0,1,,,,,,,,,,,,,,,,,,,,,,,,,,,,,,,,,,,,,,,
,,,,,,,,2023-08-16_08h33.03.647,HF_wild_card,2022.2.4,Win32,60.04924038,59b7b72e11212f0001cd0f15,64d2fd46c836a06233681665,64dc7b95215c87190a6f0a89,,,,,,,sngl,resources/Empty.png,resources/DP.BMP,Door4,0.298148148,-0.024074074,1,0,0,0.7648,optionRight,80,8085,4,16,0,16,0,1,,,,,,,,,,,,,,,,,,,,,,,,,,,,,,,,,,,,,,,
,,,,,,,,2023-08-16_08h33.03.647,HF_wild_card,2022.2.4,Win32,60.04924038,59b7b72e11212f0001cd0f15,64d2fd46c836a06233681665,64dc7b95215c87190a6f0a89,,,,,,,decisionTrl,resources/DG.BMP,resources/DR.BMP,Door1,-0.32962963,0.025,1,0,0,1.9975,optionLeft,30,8115,4,17,0,17,0,1,,,,,,,,,,,,,,,,,,,,,,,,,,,,,,,,,,,,,,,
,,,,,,,,2023-08-16_08h33.03.647,HF_wild_card,2022.2.4,Win32,60.04924038,59b7b72e11212f0001cd0f15,64d2fd46c836a06233681665,64dc7b95215c87190a6f0a89,,,,,,,ctch,resources/DP.BMP,resources/DG.BMP,Door4,-0.397222222,-0.018518519,1,0,0,0.7977,optionLeft,80,8195,4,18,0,18,0,1,,,,,,,,,,,,,,,,,,,,,,,,,,,,,,,,,,,,,,,
,,,,,,,,2023-08-16_08h33.03.647,HF_wild_card,2022.2.4,Win32,60.04924038,59b7b72e11212f0001cd0f15,64d2fd46c836a06233681665,64dc7b95215c87190a6f0a89,,,,,,,sngl,resources/DR.BMP,resources/Empty.png,Door2,-0.335185185,0.025,1,0,0,0.6817,optionLeft,20,8215,4,19,0,19,0,1,,,,,,,,,,,,,,,,,,,,,,,,,,,,,,,,,,,,,,,
,,,,,,,,2023-08-16_08h33.03.647,HF_wild_card,2022.2.4,Win32,60.04924038,59b7b72e11212f0001cd0f15,64d2fd46c836a06233681665,64dc7b95215c87190a6f0a89,,,,,,,decisionTrl,resources/DP.BMP,resources/DB.BMP,Door4,-0.27962963,0.000925926,1,0,0,0.8145,optionLeft,80,8295,4,20,0,20,0,1,,,,,,,,,,,,,,,,,,,,,,,,,,,,,,,,,,,,,,,
,,,,,,,,2023-08-16_08h33.03.647,HF_wild_card,2022.2.4,Win32,60.04924038,59b7b72e11212f0001cd0f15,64d2fd46c836a06233681665,64dc7b95215c87190a6f0a89,,,,,,,sngl,resources/DY.BMP,resources/Empty.png,WildCard_Ex,-0.27962963,0.002777778,1,0,0,0.6141,optionLeft,55,8350,4,21,0,21,0,1,,,,,,,,,,,,,,,,,,,,,,,,,,,,,,,,,,,,,,,
,,,,,,,,2023-08-16_08h33.03.647,HF_wild_card,2022.2.4,Win32,60.04924038,59b7b72e11212f0001cd0f15,64d2fd46c836a06233681665,64dc7b95215c87190a6f0a89,,,,,,,ctch,resources/DG.BMP,resources/DP.BMP,Door4,0.382407407,-0.052777778,1,0,0,0.6816,optionRight,80,8430,4,22,0,22,0,1,,,,,,,,,,,,,,,,,,,,,,,,,,,,,,,,,,,,,,,
,,,,,,,,2023-08-16_08h33.03.647,HF_wild_card,2022.2.4,Win32,60.04924038,59b7b72e11212f0001cd0f15,64d2fd46c836a06233681665,64dc7b95215c87190a6f0a89,,,,,,,ctch,resources/DP.BMP,resources/DG.BMP,Door4,-0.257407407,-0.025,1,0,0,0.7646,optionLeft,60,8490,4,23,0,23,0,1,,,,,,,,,,,,,,,,,,,,,,,,,,,,,,,,,,,,,,,
,,,,,,,,2023-08-16_08h33.03.647,HF_wild_card,2022.2.4,Win32,60.04924038,59b7b72e11212f0001cd0f15,64d2fd46c836a06233681665,64dc7b95215c87190a6f0a89,,,,,,,decisionTrl,resources/DY.BMP,resources/DR.BMP,WildCard_Ex,-0.272222222,-0.009259259,1,0,0,1.1143,optionLeft,55,8545,4,24,0,24,0,1,,,,,,,,,,,,,,,,,,,,,,,,,,,,,,,,,,,,,,,
,,,,,,,,2023-08-16_08h33.03.647,HF_wild_card,2022.2.4,Win32,60.04924038,59b7b72e11212f0001cd0f15,64d2fd46c836a06233681665,64dc7b95215c87190a6f0a89,,,,,,,decisionTrl,resources/DR.BMP,resources/DG.BMP,Door1,0.256481481,0.02037037,1,0,0,1.5145,optionRight,30,8575,4,25,0,25,0,1,,,,,,,,,,,,,,,,,,,,,,,,,,,,,,,,,,,,,,,
,,,,,,,,2023-08-16_08h33.03.647,HF_wild_card,2022.2.4,Win32,60.04924038,59b7b72e11212f0001cd0f15,64d2fd46c836a06233681665,64dc7b95215c87190a6f0a89,,,,,,,ctch,resources/DR.BMP,resources/DB.BMP,Door3,0.456481481,0.003703704,1,0,0,0.7474,optionRight,70,8645,4,26,0,26,0,1,,,,,,,,,,,,,,,,,,,,,,,,,,,,,,,,,,,,,,,
,,,,,,,,2023-08-16_08h33.03.647,HF_wild_card,2022.2.4,Win32,60.04924038,59b7b72e11212f0001cd0f15,64d2fd46c836a06233681665,64dc7b95215c87190a6f0a89,,,,,,,decisionTrl,resources/DR.BMP,resources/DG.BMP,Door1,0.375,0.017592593,1,0,0,1.0311,optionRight,30,8675,4,27,0,27,0,1,,,,,,,,,,,,,,,,,,,,,,,,,,,,,,,,,,,,,,,
,,,,,,,,2023-08-16_08h33.03.647,HF_wild_card,2022.2.4,Win32,60.04924038,59b7b72e11212f0001cd0f15,64d2fd46c836a06233681665,64dc7b95215c87190a6f0a89,,,,,,,sngl,resources/Empty.png,resources/DB.BMP,Door3,0.557407407,-0.135185185,1,0,0,0.6978,optionRight,70,8745,4,28,0,28,0,1,,,,,,,,,,,,,,,,,,,,,,,,,,,,,,,,,,,,,,,
,,,,,,,,2023-08-16_08h33.03.647,HF_wild_card,2022.2.4,Win32,60.04924038,59b7b72e11212f0001cd0f15,64d2fd46c836a06233681665,64dc7b95215c87190a6f0a89,,,,,,,sngl,resources/DP.BMP,resources/Empty.png,Door4,-0.402777778,-0.063888889,1,0,0,0.9645,optionLeft,60,8805,4,29,0,29,0,1,,,,,,,,,,,,,,,,,,,,,,,,,,,,,,,,,,,,,,,
,,,,,,,,2023-08-16_08h33.03.647,HF_wild_card,2022.2.4,Win32,60.04924038,59b7b72e11212f0001cd0f15,64d2fd46c836a06233681665,64dc7b95215c87190a6f0a89,,,,,,,ctch,resources/DG.BMP,resources/DP.BMP,Door4,0.289814815,-0.036111111,1,0,0,0.7472,optionRight,60,8865,4,30,0,30,0,1,,,,,,,,,,,,,,,,,,,,,,,,,,,,,,,,,,,,,,,
,,,,,,,,2023-08-16_08h33.03.647,HF_wild_card,2022.2.4,Win32,60.04924038,59b7b72e11212f0001cd0f15,64d2fd46c836a06233681665,64dc7b95215c87190a6f0a89,,,,,,,decisionTrl,resources/DP.BMP,resources/DB.BMP,Door4,-0.302777778,0.023148148,1,0,0,1.0141,optionLeft,80,8945,4,31,0,31,0,1,,,,,,,,,,,,,,,,,,,,,,,,,,,,,,,,,,,,,,,
,,,,,,,,2023-08-16_08h33.03.647,HF_wild_card,2022.2.4,Win32,60.04924038,59b7b72e11212f0001cd0f15,64d2fd46c836a06233681665,64dc7b95215c87190a6f0a89,,,,,,,decisionTrl,resources/DP.BMP,resources/DY.BMP,Door4,-0.356481481,0.02037037,1,0,0,2.2641,optionLeft,60,9005,4,32,0,32,0,1,,,,,,,,,,,,,,,,,,,,,,,,,,,,,,,,,,,,,,,
,,,,,,,,2023-08-16_08h33.03.647,HF_wild_card,2022.2.4,Win32,60.04924038,59b7b72e11212f0001cd0f15,64d2fd46c836a06233681665,64dc7b95215c87190a6f0a89,,,,,,,decisionTrl,resources/DB.BMP,resources/DP.BMP,Door4,0.281481481,-0.017592593,1,0,0,0.8978,optionRight,60,9065,4,33,0,33,0,1,,,,,,,,,,,,,,,,,,,,,,,,,,,,,,,,,,,,,,,
,,,,,,,,2023-08-16_08h33.03.647,HF_wild_card,2022.2.4,Win32,60.04924038,59b7b72e11212f0001cd0f15,64d2fd46c836a06233681665,64dc7b95215c87190a6f0a89,,,,,,,ctch,resources/DB.BMP,resources/DR.BMP,Door3,-0.338888889,0.031481481,1,0,0,1.115,optionLeft,70,9135,4,34,0,34,0,1,,,,,,,,,,,,,,,,,,,,,,,,,,,,,,,,,,,,,,,
,,,,,,,,2023-08-16_08h33.03.647,HF_wild_card,2022.2.4,Win32,60.04924038,59b7b72e11212f0001cd0f15,64d2fd46c836a06233681665,64dc7b95215c87190a6f0a89,,,,,,,decisionTrl,resources/DY.BMP,resources/DP.BMP,Door4,0.442592593,-0.050925926,1,0,0,0.7148,optionRight,80,9215,4,35,0,35,0,1,,,,,,,,,,,,,,,,,,,,,,,,,,,,,,,,,,,,,,,
,,,,,,,,2023-08-16_08h33.03.647,HF_wild_card,2022.2.4,Win32,60.04924038,59b7b72e11212f0001cd0f15,64d2fd46c836a06233681665,64dc7b95215c87190a6f0a89,,,,,,,decisionTrl,resources/DG.BMP,resources/DR.BMP,Door2,0.358333333,-0.035185185,1,0,0,2.4149,optionRight,20,9235,4,36,0,36,0,1,,,,,,,,,,,,,,,,,,,,,,,,,,,,,,,,,,,,,,,
,,,,,,,,2023-08-16_08h33.03.647,HF_wild_card,2022.2.4,Win32,60.04924038,59b7b72e11212f0001cd0f15,64d2fd46c836a06233681665,64dc7b95215c87190a6f0a89,,,,,,,decisionTrl,resources/DP.BMP,resources/DB.BMP,Door4,-0.339814815,-0.007407407,1,0,0,1.7641,optionLeft,60,9295,4,37,0,37,0,1,,,,,,,,,,,,,,,,,,,,,,,,,,,,,,,,,,,,,,,
,,,,,,,,2023-08-16_08h33.03.647,HF_wild_card,2022.2.4,Win32,60.04924038,59b7b72e11212f0001cd0f15,64d2fd46c836a06233681665,64dc7b95215c87190a6f0a89,,,,,,,sngl,resources/DG.BMP,resources/Empty.png,Door1,-0.32962963,-0.005555556,1,0,0,0.8146,optionLeft,30,9325,4,38,0,38,0,1,,,,,,,,,,,,,,,,,,,,,,,,,,,,,,,,,,,,,,,
,,,,,,,,2023-08-16_08h33.03.647,HF_wild_card,2022.2.4,Win32,60.04924038,59b7b72e11212f0001cd0f15,64d2fd46c836a06233681665,64dc7b95215c87190a6f0a89,,,,,,,decisionTrl,resources/DR.BMP,resources/DG.BMP,Door1,0.313888889,0.016666667,1,0,0,0.998,optionRight,30,9355,4,39,0,39,0,1,,,,,,,,,,,,,,,,,,,,,,,,,,,,,,,,,,,,,,,
,,,,,,,,2023-08-16_08h33.03.647,HF_wild_card,2022.2.4,Win32,60.04924038,59b7b72e11212f0001cd0f15,64d2fd46c836a06233681665,64dc7b95215c87190a6f0a89,,,,,,,sngl,resources/DB.BMP,resources/Empty.png,Door3,-0.325925926,0.02037037,1,0,0,0.7313,optionLeft,70,9425,4,40,0,40,0,1,,,,,,,,,,,,,,,,,,,,,,,,,,,,,,,,,,,,,,,
,,,,,,,,2023-08-16_08h33.03.647,HF_wild_card,2022.2.4,Win32,60.04924038,59b7b72e11212f0001cd0f15,64d2fd46c836a06233681665,64dc7b95215c87190a6f0a89,,,,,,,decisionTrl,resources/DG.BMP,resources/DR.BMP,Door1,-0.25,0.030555556,1,0,0,1.3069,optionLeft,30,9455,4,41,0,41,0,1,,,,,,,,,,,,,,,,,,,,,,,,,,,,,,,,,,,,,,,
,,,,,,,,2023-08-16_08h33.03.647,HF_wild_card,2022.2.4,Win32,60.04924038,59b7b72e11212f0001cd0f15,64d2fd46c836a06233681665,64dc7b95215c87190a6f0a89,,,,,,,sngl,resources/Empty.png,resources/DR.BMP,Door2,0.326851852,-0.009259259,1,0,0,0.931,optionRight,40,9495,4,42,0,42,0,1,,,,,,,,,,,,,,,,,,,,,,,,,,,,,,,,,,,,,,,
,,,,,,,,2023-08-16_08h33.03.647,HF_wild_card,2022.2.4,Win32,60.04924038,59b7b72e11212f0001cd0f15,64d2fd46c836a06233681665,64dc7b95215c87190a6f0a89,,,,,,,decisionTrl,resources/DY.BMP,resources/DB.BMP,Door3,0.275,0.034259259,1,0,0,0.9812,optionRight,70,9565,4,43,0,43,0,1,,,,,,,,,,,,,,,,,,,,,,,,,,,,,,,,,,,,,,,
,,,,,,,,2023-08-16_08h33.03.647,HF_wild_card,2022.2.4,Win32,60.04924038,59b7b72e11212f0001cd0f15,64d2fd46c836a06233681665,64dc7b95215c87190a6f0a89,,,,,,,,,,,,,,,,,,,,,,,,,,3,0,3,0,1,,,,,,,,,,,,,,,,,,,,,,,,,,,,,,,,,,
,,,,,,,,2023-08-16_08h33.03.647,HF_wild_card,2022.2.4,Win32,60.04924038,59b7b72e11212f0001cd0f15,64d2fd46c836a06233681665,64dc7b95215c87190a6f0a89,,,,,,,decisionTrl,resources/DY.BMP,resources/DB.BMP,Door3,0.311111111,-0.083333333,1,0,0,1.2058,optionRight,70,9635,5,0,0,0,0,1,,,,,,,,,,,,,,,,,,,,,,,,,,,,,,,,,,,,,,,
,,,,,,,,2023-08-16_08h33.03.647,HF_wild_card,2022.2.4,Win32,60.04924038,59b7b72e11212f0001cd0f15,64d2fd46c836a06233681665,64dc7b95215c87190a6f0a89,,,,,,,ctch,resources/DB.BMP,resources/DR.BMP,Door3,-0.25462963,-0.00462963,1,0,0,0.7811,optionLeft,70,9705,5,1,0,1,0,1,,,,,,,,,,,,,,,,,,,,,,,,,,,,,,,,,,,,,,,
,,,,,,,,2023-08-16_08h33.03.647,HF_wild_card,2022.2.4,Win32,60.04924038,59b7b72e11212f0001cd0f15,64d2fd46c836a06233681665,64dc7b95215c87190a6f0a89,,,,,,,decisionTrl,resources/DP.BMP,resources/DB.BMP,Door4,-0.351851852,-0.076851852,1,0,0,0.8313,optionLeft,80,9785,5,2,0,2,0,1,,,,,,,,,,,,,,,,,,,,,,,,,,,,,,,,,,,,,,,
,,,,,,,,2023-08-16_08h33.03.647,HF_wild_card,2022.2.4,Win32,60.04924038,59b7b72e11212f0001cd0f15,64d2fd46c836a06233681665,64dc7b95215c87190a6f0a89,,,,,,,sngl,resources/DG.BMP,resources/Empty.png,Door1,-0.386111111,0.012962963,1,0,0,0.5737,optionLeft,30,9815,5,3,0,3,0,1,,,,,,,,,,,,,,,,,,,,,,,,,,,,,,,,,,,,,,,
,,,,,,,,2023-08-16_08h33.03.647,HF_wild_card,2022.2.4,Win32,60.04924038,59b7b72e11212f0001cd0f15,64d2fd46c836a06233681665,64dc7b95215c87190a6f0a89,,,,,,,sngl,resources/Empty.png,resources/DP.BMP,Door4,0.233333333,-0.046296296,1,0,0,0.5643,optionRight,60,9875,5,4,0,4,0,1,,,,,,,,,,,,,,,,,,,,,,,,,,,,,,,,,,,,,,,
,,,,,,,,2023-08-16_08h33.03.647,HF_wild_card,2022.2.4,Win32,60.04924038,59b7b72e11212f0001cd0f15,64d2fd46c836a06233681665,64dc7b95215c87190a6f0a89,,,,,,,decisionTrl,resources/DY.BMP,resources/DP.BMP,Door4,0.277777778,-0.059259259,1,0,0,0.614,optionRight,60,9935,5,5,0,5,0,1,,,,,,,,,,,,,,,,,,,,,,,,,,,,,,,,,,,,,,,
,,,,,,,,2023-08-16_08h33.03.647,HF_wild_card,2022.2.4,Win32,60.04924038,59b7b72e11212f0001cd0f15,64d2fd46c836a06233681665,64dc7b95215c87190a6f0a89,,,,,,,ctch,resources/DG.BMP,resources/DP.BMP,Door4,0.309259259,-0.053703704,1,0,0,0.7315,optionRight,60,9995,5,6,0,6,0,1,,,,,,,,,,,,,,,,,,,,,,,,,,,,,,,,,,,,,,,
,,,,,,,,2023-08-16_08h33.03.647,HF_wild_card,2022.2.4,Win32,60.04924038,59b7b72e11212f0001cd0f15,64d2fd46c836a06233681665,64dc7b95215c87190a6f0a89,,,,,,,decisionTrl,resources/DR.BMP,resources/DY.BMP,WildCard_Ex,0.253703704,-0.010185185,1,0,0,1.7072,optionRight,45,10040,5,7,0,7,0,1,,,,,,,,,,,,,,,,,,,,,,,,,,,,,,,,,,,,,,,
,,,,,,,,2023-08-16_08h33.03.647,HF_wild_card,2022.2.4,Win32,60.04924038,59b7b72e11212f0001cd0f15,64d2fd46c836a06233681665,64dc7b95215c87190a6f0a89,,,,,,,decisionTrl,resources/DB.BMP,resources/DP.BMP,Door4,0.405555556,-0.084259259,1,0,0,1.0479,optionRight,60,10100,5,8,0,8,0,1,,,,,,,,,,,,,,,,,,,,,,,,,,,,,,,,,,,,,,,
,,,,,,,,2023-08-16_08h33.03.647,HF_wild_card,2022.2.4,Win32,60.04924038,59b7b72e11212f0001cd0f15,64d2fd46c836a06233681665,64dc7b95215c87190a6f0a89,,,,,,,sngl,resources/Empty.png,resources/DY.BMP,WildCard_Ex,0.196296296,0.012037037,1,0,0,0.9315,optionRight,45,10145,5,9,0,9,0,1,,,,,,,,,,,,,,,,,,,,,,,,,,,,,,,,,,,,,,,
,,,,,,,,2023-08-16_08h33.03.647,HF_wild_card,2022.2.4,Win32,60.04924038,59b7b72e11212f0001cd0f15,64d2fd46c836a06233681665,64dc7b95215c87190a6f0a89,,,,,,,decisionTrl,resources/DB.BMP,resources/DP.BMP,Door4,0.248148148,0.016666667,1,0,0,1.048,optionRight,80,10225,5,10,0,10,0,1,,,,,,,,,,,,,,,,,,,,,,,,,,,,,,,,,,,,,,,
,,,,,,,,2023-08-16_08h33.03.647,HF_wild_card,2022.2.4,Win32,60.04924038,59b7b72e11212f0001cd0f15,64d2fd46c836a06233681665,64dc7b95215c87190a6f0a89,,,,,,,decisionTrl,resources/DG.BMP,resources/DR.BMP,Door2,0.265740741,-0.027777778,1,0,0,1.8143,optionRight,40,10265,5,11,0,11,0,1,,,,,,,,,,,,,,,,,,,,,,,,,,,,,,,,,,,,,,,
,,,,,,,,2023-08-16_08h33.03.647,HF_wild_card,2022.2.4,Win32,60.04924038,59b7b72e11212f0001cd0f15,64d2fd46c836a06233681665,64dc7b95215c87190a6f0a89,,,,,,,decisionTrl,resources/DG.BMP,resources/DY.BMP,WildCard_Ex,0.497222222,-0.005555556,1,0,0,1.5143,optionRight,45,10310,5,12,0,12,0,1,,,,,,,,,,,,,,,,,,,,,,,,,,,,,,,,,,,,,,,
,,,,,,,,2023-08-16_08h33.03.647,HF_wild_card,2022.2.4,Win32,60.04924038,59b7b72e11212f0001cd0f15,64d2fd46c836a06233681665,64dc7b95215c87190a6f0a89,,,,,,,ctch,resources/DR.BMP,resources/DB.BMP,Door3,0.266666667,-0.017592593,1,0,0,1.5312,optionRight,70,10380,5,13,0,13,0,1,,,,,,,,,,,,,,,,,,,,,,,,,,,,,,,,,,,,,,,
,,,,,,,,2023-08-16_08h33.03.647,HF_wild_card,2022.2.4,Win32,60.04924038,59b7b72e11212f0001cd0f15,64d2fd46c836a06233681665,64dc7b95215c87190a6f0a89,,,,,,,decisionTrl,resources/DP.BMP,resources/DY.BMP,Door4,-0.346296296,0.049074074,1,0,0,0.9477,optionLeft,60,10440,5,14,0,14,0,1,,,,,,,,,,,,,,,,,,,,,,,,,,,,,,,,,,,,,,,
,,,,,,,,2023-08-16_08h33.03.647,HF_wild_card,2022.2.4,Win32,60.04924038,59b7b72e11212f0001cd0f15,64d2fd46c836a06233681665,64dc7b95215c87190a6f0a89,,,,,,,decisionTrl,resources/DP.BMP,resources/DB.BMP,Door4,-0.243518519,0.023148148,1,0,0,0.8641,optionLeft,60,10500,5,15,0,15,0,1,,,,,,,,,,,,,,,,,,,,,,,,,,,,,,,,,,,,,,,
,,,,,,,,2023-08-16_08h33.03.647,HF_wild_card,2022.2.4,Win32,60.04924038,59b7b72e11212f0001cd0f15,64d2fd46c836a06233681665,64dc7b95215c87190a6f0a89,,,,,,,decisionTrl,resources/DP.BMP,resources/DB.BMP,Door4,-0.335185185,-0.002777778,1,0,0,0.6484,optionLeft,60,10560,5,16,0,16,0,1,,,,,,,,,,,,,,,,,,,,,,,,,,,,,,,,,,,,,,,
,,,,,,,,2023-08-16_08h33.03.647,HF_wild_card,2022.2.4,Win32,60.04924038,59b7b72e11212f0001cd0f15,64d2fd46c836a06233681665,64dc7b95215c87190a6f0a89,,,,,,,decisionTrl,resources/DG.BMP,resources/DR.BMP,Door1,-0.25,0.000925926,1,0,0,2.7806,optionLeft,30,10590,5,17,0,17,0,1,,,,,,,,,,,,,,,,,,,,,,,,,,,,,,,,,,,,,,,
,,,,,,,,2023-08-16_08h33.03.647,HF_wild_card,2022.2.4,Win32,60.04924038,59b7b72e11212f0001cd0f15,64d2fd46c836a06233681665,64dc7b95215c87190a6f0a89,,,,,,,sngl,resources/Empty.png,resources/DR.BMP,Door2,0.377777778,0.000925926,1,0,0,0.981,optionRight,20,10610,5,18,0,18,0,1,,,,,,,,,,,,,,,,,,,,,,,,,,,,,,,,,,,,,,,
,,,,,,,,2023-08-16_08h33.03.647,HF_wild_card,2022.2.4,Win32,60.04924038,59b7b72e11212f0001cd0f15,64d2fd46c836a06233681665,64dc7b95215c87190a6f0a89,,,,,,,decisionTrl,resources/DB.BMP,resources/DP.BMP,Door4,0.382407407,-0.048148148,1,0,0,1.4644,optionRight,60,10670,5,19,0,19,0,1,,,,,,,,,,,,,,,,,,,,,,,,,,,,,,,,,,,,,,,
,,,,,,,,2023-08-16_08h33.03.647,HF_wild_card,2022.2.4,Win32,60.04924038,59b7b72e11212f0001cd0f15,64d2fd46c836a06233681665,64dc7b95215c87190a6f0a89,,,,,,,ctch,resources/DR.BMP,resources/DB.BMP,Door3,0.301851852,0.001851852,1,0,0,1.0644,optionRight,70,10740,5,20,0,20,0,1,,,,,,,,,,,,,,,,,,,,,,,,,,,,,,,,,,,,,,,
,,,,,,,,2023-08-16_08h33.03.647,HF_wild_card,2022.2.4,Win32,60.04924038,59b7b72e11212f0001cd0f15,64d2fd46c836a06233681665,64dc7b95215c87190a6f0a89,,,,,,,sngl,resources/Empty.png,resources/DY.BMP,WildCard_Ex,0.312962963,0.007407407,1,0,0,0.6813,optionRight,55,10795,5,21,0,21,0,1,,,,,,,,,,,,,,,,,,,,,,,,,,,,,,,,,,,,,,,
,,,,,,,,2023-08-16_08h33.03.647,HF_wild_card,2022.2.4,Win32,60.04924038,59b7b72e11212f0001cd0f15,64d2fd46c836a06233681665,64dc7b95215c87190a6f0a89,,,,,,,ctch,resources/DB.BMP,resources/DR.BMP,Door3,-0.315740741,0.001851852,1,0,0,0.8813,optionLeft,70,10865,5,22,0,22,0,1,,,,,,,,,,,,,,,,,,,,,,,,,,,,,,,,,,,,,,,
,,,,,,,,2023-08-16_08h33.03.647,HF_wild_card,2022.2.4,Win32,60.04924038,59b7b72e11212f0001cd0f15,64d2fd46c836a06233681665,64dc7b95215c87190a6f0a89,,,,,,,decisionTrl,resources/DR.BMP,resources/DG.BMP,Door1,0.35462963,-0.026851852,1,0,0,0.7649,optionRight,30,10895,5,23,0,23,0,1,,,,,,,,,,,,,,,,,,,,,,,,,,,,,,,,,,,,,,,
,,,,,,,,2023-08-16_08h33.03.647,HF_wild_card,2022.2.4,Win32,60.04924038,59b7b72e11212f0001cd0f15,64d2fd46c836a06233681665,64dc7b95215c87190a6f0a89,,,,,,,decisionTrl,resources/DR.BMP,resources/DG.BMP,Door1,0.355555556,-0.062962963,1,0,0,0.6148,optionRight,30,10925,5,24,0,24,0,1,,,,,,,,,,,,,,,,,,,,,,,,,,,,,,,,,,,,,,,
,,,,,,,,2023-08-16_08h33.03.647,HF_wild_card,2022.2.4,Win32,60.04924038,59b7b72e11212f0001cd0f15,64d2fd46c836a06233681665,64dc7b95215c87190a6f0a89,,,,,,,sngl,resources/DY.BMP,resources/Empty.png,WildCard_Ex,-0.291666667,0.053703704,1,0,0,0.6811,optionLeft,45,10970,5,25,0,25,0,1,,,,,,,,,,,,,,,,,,,,,,,,,,,,,,,,,,,,,,,
,,,,,,,,2023-08-16_08h33.03.647,HF_wild_card,2022.2.4,Win32,60.04924038,59b7b72e11212f0001cd0f15,64d2fd46c836a06233681665,64dc7b95215c87190a6f0a89,,,,,,,decisionTrl,resources/DG.BMP,resources/DR.BMP,Door1,-0.222222222,0.022222222,1,0,0,0.7645,optionLeft,30,11000,5,26,0,26,0,1,,,,,,,,,,,,,,,,,,,,,,,,,,,,,,,,,,,,,,,
,,,,,,,,2023-08-16_08h33.03.647,HF_wild_card,2022.2.4,Win32,60.04924038,59b7b72e11212f0001cd0f15,64d2fd46c836a06233681665,64dc7b95215c87190a6f0a89,,,,,,,sngl,resources/DP.BMP,resources/Empty.png,Door4,-0.326851852,0.034259259,1,0,0,0.697,optionLeft,80,11080,5,27,0,27,0,1,,,,,,,,,,,,,,,,,,,,,,,,,,,,,,,,,,,,,,,
,,,,,,,,2023-08-16_08h33.03.647,HF_wild_card,2022.2.4,Win32,60.04924038,59b7b72e11212f0001cd0f15,64d2fd46c836a06233681665,64dc7b95215c87190a6f0a89,,,,,,,sngl,resources/DB.BMP,resources/Empty.png,Door3,-0.372222222,-0.027777778,1,0,0,1.5979,optionLeft,70,11150,5,28,0,28,0,1,,,,,,,,,,,,,,,,,,,,,,,,,,,,,,,,,,,,,,,
,,,,,,,,2023-08-16_08h33.03.647,HF_wild_card,2022.2.4,Win32,60.04924038,59b7b72e11212f0001cd0f15,64d2fd46c836a06233681665,64dc7b95215c87190a6f0a89,,,,,,,ctch,resources/DP.BMP,resources/DG.BMP,Door4,-0.287962963,-0.006481481,1,0,0,0.7981,optionLeft,60,11210,5,29,0,29,0,1,,,,,,,,,,,,,,,,,,,,,,,,,,,,,,,,,,,,,,,
,,,,,,,,2023-08-16_08h33.03.647,HF_wild_card,2022.2.4,Win32,60.04924038,59b7b72e11212f0001cd0f15,64d2fd46c836a06233681665,64dc7b95215c87190a6f0a89,,,,,,,decisionTrl,resources/DP.BMP,resources/DB.BMP,Door4,-0.278703704,0.005555556,1,0,0,0.8143,optionLeft,60,11270,5,30,0,30,0,1,,,,,,,,,,,,,,,,,,,,,,,,,,,,,,,,,,,,,,,
,,,,,,,,2023-08-16_08h33.03.647,HF_wild_card,2022.2.4,Win32,60.04924038,59b7b72e11212f0001cd0f15,64d2fd46c836a06233681665,64dc7b95215c87190a6f0a89,,,,,,,decisionTrl,resources/DY.BMP,resources/DG.BMP,WildCard_Ex,-0.296296296,0.00462963,1,0,0,0.7146,optionLeft,45,11315,5,31,0,31,0,1,,,,,,,,,,,,,,,,,,,,,,,,,,,,,,,,,,,,,,,
,,,,,,,,2023-08-16_08h33.03.647,HF_wild_card,2022.2.4,Win32,60.04924038,59b7b72e11212f0001cd0f15,64d2fd46c836a06233681665,64dc7b95215c87190a6f0a89,,,,,,,sngl,resources/Empty.png,resources/DB.BMP,Door3,0.473148148,-0.077777778,1,0,0,0.6647,optionRight,70,11385,5,32,0,32,0,1,,,,,,,,,,,,,,,,,,,,,,,,,,,,,,,,,,,,,,,
,,,,,,,,2023-08-16_08h33.03.647,HF_wild_card,2022.2.4,Win32,60.04924038,59b7b72e11212f0001cd0f15,64d2fd46c836a06233681665,64dc7b95215c87190a6f0a89,,,,,,,sngl,resources/DR.BMP,resources/Empty.png,Door2,-0.258333333,0.015740741,1,0,0,0.648,optionLeft,40,11425,5,33,0,33,0,1,,,,,,,,,,,,,,,,,,,,,,,,,,,,,,,,,,,,,,,
,,,,,,,,2023-08-16_08h33.03.647,HF_wild_card,2022.2.4,Win32,60.04924038,59b7b72e11212f0001cd0f15,64d2fd46c836a06233681665,64dc7b95215c87190a6f0a89,,,,,,,ctch,resources/DG.BMP,resources/DP.BMP,Door4,0.387962963,-0.096296296,1,0,0,0.6811,optionRight,80,11505,5,34,0,34,0,1,,,,,,,,,,,,,,,,,,,,,,,,,,,,,,,,,,,,,,,
,,,,,,,,2023-08-16_08h33.03.647,HF_wild_card,2022.2.4,Win32,60.04924038,59b7b72e11212f0001cd0f15,64d2fd46c836a06233681665,64dc7b95215c87190a6f0a89,,,,,,,decisionTrl,resources/DR.BMP,resources/DG.BMP,Door1,0.52962963,-0.071296296,1,0,0,1.5146,optionRight,30,11535,5,35,0,35,0,1,,,,,,,,,,,,,,,,,,,,,,,,,,,,,,,,,,,,,,,
,,,,,,,,2023-08-16_08h33.03.647,HF_wild_card,2022.2.4,Win32,60.04924038,59b7b72e11212f0001cd0f15,64d2fd46c836a06233681665,64dc7b95215c87190a6f0a89,,,,,,,ctch,resources/DP.BMP,resources/DG.BMP,Door4,-0.306481481,0.001851852,1,0,0,0.6644,optionLeft,80,11615,5,36,0,36,0,1,,,,,,,,,,,,,,,,,,,,,,,,,,,,,,,,,,,,,,,
,,,,,,,,2023-08-16_08h33.03.647,HF_wild_card,2022.2.4,Win32,60.04924038,59b7b72e11212f0001cd0f15,64d2fd46c836a06233681665,64dc7b95215c87190a6f0a89,,,,,,,decisionTrl,resources/DB.BMP,resources/DP.BMP,Door4,0.526851852,-0.108333333,1,0,0,0.6978,optionRight,80,11695,5,37,0,37,0,1,,,,,,,,,,,,,,,,,,,,,,,,,,,,,,,,,,,,,,,
,,,,,,,,2023-08-16_08h33.03.647,HF_wild_card,2022.2.4,Win32,60.04924038,59b7b72e11212f0001cd0f15,64d2fd46c836a06233681665,64dc7b95215c87190a6f0a89,,,,,,,decisionTrl,resources/DR.BMP,resources/DG.BMP,Door1,0.459259259,-0.018518519,1,0,0,1.2148,optionRight,30,11725,5,38,0,38,0,1,,,,,,,,,,,,,,,,,,,,,,,,,,,,,,,,,,,,,,,
,,,,,,,,2023-08-16_08h33.03.647,HF_wild_card,2022.2.4,Win32,60.04924038,59b7b72e11212f0001cd0f15,64d2fd46c836a06233681665,64dc7b95215c87190a6f0a89,,,,,,,decisionTrl,resources/DG.BMP,resources/DR.BMP,Door1,-0.380555556,0.044444444,1,0,0,0.7312,optionLeft,30,11755,5,39,0,39,0,1,,,,,,,,,,,,,,,,,,,,,,,,,,,,,,,,,,,,,,,
,,,,,,,,2023-08-16_08h33.03.647,HF_wild_card,2022.2.4,Win32,60.04924038,59b7b72e11212f0001cd0f15,64d2fd46c836a06233681665,64dc7b95215c87190a6f0a89,,,,,,,decisionTrl,resources/DB.BMP,resources/DY.BMP,WildCard_Ex,0.225,0.007407407,1,0,0,1.3478,optionRight,45,11800,5,40,0,40,0,1,,,,,,,,,,,,,,,,,,,,,,,,,,,,,,,,,,,,,,,
,,,,,,,,2023-08-16_08h33.03.647,HF_wild_card,2022.2.4,Win32,60.04924038,59b7b72e11212f0001cd0f15,64d2fd46c836a06233681665,64dc7b95215c87190a6f0a89,,,,,,,decisionTrl,resources/DY.BMP,resources/DR.BMP,WildCard_Ex,-0.222222222,0.075925926,1,0,0,0.8981,optionLeft,55,11855,5,41,0,41,0,1,,,,,,,,,,,,,,,,,,,,,,,,,,,,,,,,,,,,,,,
,,,,,,,,2023-08-16_08h33.03.647,HF_wild_card,2022.2.4,Win32,60.04924038,59b7b72e11212f0001cd0f15,64d2fd46c836a06233681665,64dc7b95215c87190a6f0a89,,,,,,,sngl,resources/Empty.png,resources/DG.BMP,Door1,0.291666667,-0.012037037,1,0,0,0.6642,optionRight,30,11885,5,42,0,42,0,1,,,,,,,,,,,,,,,,,,,,,,,,,,,,,,,,,,,,,,,
,,,,,,,,2023-08-16_08h33.03.647,HF_wild_card,2022.2.4,Win32,60.04924038,59b7b72e11212f0001cd0f15,64d2fd46c836a06233681665,64dc7b95215c87190a6f0a89,,,,,,,sngl,resources/DY.BMP,resources/Empty.png,WildCard_Ex,-0.42962963,0.026851852,1,0,0,0.6316,optionLeft,55,11940,5,43,0,43,0,1,,,,,,,,,,,,,,,,,,,,,,,,,,,,,,,,,,,,,,,
,,,,,,,,2023-08-16_08h33.03.647,HF_wild_card,2022.2.4,Win32,60.04924038,59b7b72e11212f0001cd0f15,64d2fd46c836a06233681665,64dc7b95215c87190a6f0a89,,,,,,,,,,,,,,,,,,,,,,,,,,4,0,4,0,1,,,,,,,,,,,,,,,,,,,,,,,,,,,,,,,,,,
,,,,,,,,2023-08-16_08h33.03.647,HF_wild_card,2022.2.4,Win32,60.04924038,59b7b72e11212f0001cd0f15,64d2fd46c836a06233681665,64dc7b95215c87190a6f0a89,,,,,,,sngl,resources/Empty.png,resources/DG.BMP,Door1,0.292592593,-0.09537037,1,0,0,0.905,optionRight,30,11970,6,0,0,0,0,1,,,,,,,,,,,,,,,,,,,,,,,,,,,,,,,,,,,,,,,
,,,,,,,,2023-08-16_08h33.03.647,HF_wild_card,2022.2.4,Win32,60.04924038,59b7b72e11212f0001cd0f15,64d2fd46c836a06233681665,64dc7b95215c87190a6f0a89,,,,,,,sngl,resources/DB.BMP,resources/Empty.png,Door3,-0.608333333,0.055555556,1,0,0,0.5977,optionLeft,70,12040,6,1,0,1,0,1,,,,,,,,,,,,,,,,,,,,,,,,,,,,,,,,,,,,,,,
,,,,,,,,2023-08-16_08h33.03.647,HF_wild_card,2022.2.4,Win32,60.04924038,59b7b72e11212f0001cd0f15,64d2fd46c836a06233681665,64dc7b95215c87190a6f0a89,,,,,,,ctch,resources/DR.BMP,resources/DB.BMP,Door3,0.475925926,-0.069444444,1,0,0,0.6481,optionRight,70,12110,6,2,0,2,0,1,,,,,,,,,,,,,,,,,,,,,,,,,,,,,,,,,,,,,,,
,,,,,,,,2023-08-16_08h33.03.647,HF_wild_card,2022.2.4,Win32,60.04924038,59b7b72e11212f0001cd0f15,64d2fd46c836a06233681665,64dc7b95215c87190a6f0a89,,,,,,,sngl,resources/Empty.png,resources/DY.BMP,WildCard_Ex,0.375,-0.100925926,1,0,0,0.6302,optionRight,45,12155,6,3,0,3,0,1,,,,,,,,,,,,,,,,,,,,,,,,,,,,,,,,,,,,,,,
,,,,,,,,2023-08-16_08h33.03.647,HF_wild_card,2022.2.4,Win32,60.04924038,59b7b72e11212f0001cd0f15,64d2fd46c836a06233681665,64dc7b95215c87190a6f0a89,,,,,,,decisionTrl,resources/DR.BMP,resources/DG.BMP,Door1,0.314814815,-0.047222222,1,0,0,0.9308,optionRight,30,12185,6,4,0,4,0,1,,,,,,,,,,,,,,,,,,,,,,,,,,,,,,,,,,,,,,,
,,,,,,,,2023-08-16_08h33.03.647,HF_wild_card,2022.2.4,Win32,60.04924038,59b7b72e11212f0001cd0f15,64d2fd46c836a06233681665,64dc7b95215c87190a6f0a89,,,,,,,decisionTrl,resources/DR.BMP,resources/DG.BMP,Door1,0.47962963,-0.080555556,1,0,0,0.6317,optionRight,30,12215,6,5,0,5,0,1,,,,,,,,,,,,,,,,,,,,,,,,,,,,,,,,,,,,,,,
,,,,,,,,2023-08-16_08h33.03.647,HF_wild_card,2022.2.4,Win32,60.04924038,59b7b72e11212f0001cd0f15,64d2fd46c836a06233681665,64dc7b95215c87190a6f0a89,,,,,,,ctch,resources/DB.BMP,resources/DR.BMP,Door3,-0.296296296,0.014814815,1,0,0,0.781,optionLeft,70,12285,6,6,0,6,0,1,,,,,,,,,,,,,,,,,,,,,,,,,,,,,,,,,,,,,,,
,,,,,,,,2023-08-16_08h33.03.647,HF_wild_card,2022.2.4,Win32,60.04924038,59b7b72e11212f0001cd0f15,64d2fd46c836a06233681665,64dc7b95215c87190a6f0a89,,,,,,,ctch,resources/DP.BMP,resources/DG.BMP,Door4,-0.332407407,-0.003703704,1,0,0,0.7475,optionLeft,60,12345,6,7,0,7,0,1,,,,,,,,,,,,,,,,,,,,,,,,,,,,,,,,,,,,,,,
,,,,,,,,2023-08-16_08h33.03.647,HF_wild_card,2022.2.4,Win32,60.04924038,59b7b72e11212f0001cd0f15,64d2fd46c836a06233681665,64dc7b95215c87190a6f0a89,,,,,,,ctch,resources/DG.BMP,resources/DP.BMP,Door4,0.498148148,-0.077777778,1,0,0,0.7481,optionRight,80,12425,6,8,0,8,0,1,,,,,,,,,,,,,,,,,,,,,,,,,,,,,,,,,,,,,,,
,,,,,,,,2023-08-16_08h33.03.647,HF_wild_card,2022.2.4,Win32,60.04924038,59b7b72e11212f0001cd0f15,64d2fd46c836a06233681665,64dc7b95215c87190a6f0a89,,,,,,,decisionTrl,resources/DG.BMP,resources/DY.BMP,WildCard_Ex,0.211111111,-0.035185185,1,0,0,0.6978,optionRight,45,12470,6,9,0,9,0,1,,,,,,,,,,,,,,,,,,,,,,,,,,,,,,,,,,,,,,,
,,,,,,,,2023-08-16_08h33.03.647,HF_wild_card,2022.2.4,Win32,60.04924038,59b7b72e11212f0001cd0f15,64d2fd46c836a06233681665,64dc7b95215c87190a6f0a89,,,,,,,ctch,resources/DG.BMP,resources/DP.BMP,Door4,0.374074074,-0.040740741,1,0,0,0.7483,optionRight,80,12550,6,10,0,10,0,1,,,,,,,,,,,,,,,,,,,,,,,,,,,,,,,,,,,,,,,
,,,,,,,,2023-08-16_08h33.03.647,HF_wild_card,2022.2.4,Win32,60.04924038,59b7b72e11212f0001cd0f15,64d2fd46c836a06233681665,64dc7b95215c87190a6f0a89,,,,,,,decisionTrl,resources/DG.BMP,resources/DR.BMP,Door1,-0.351851852,0.027777778,1,0,0,0.8643,optionLeft,30,12580,6,11,0,11,0,1,,,,,,,,,,,,,,,,,,,,,,,,,,,,,,,,,,,,,,,
,,,,,,,,2023-08-16_08h33.03.647,HF_wild_card,2022.2.4,Win32,60.04924038,59b7b72e11212f0001cd0f15,64d2fd46c836a06233681665,64dc7b95215c87190a6f0a89,,,,,,,decisionTrl,resources/DP.BMP,resources/DB.BMP,Door4,-0.275,-0.068518519,1,0,0,1.1811,optionLeft,80,12660,6,12,0,12,0,1,,,,,,,,,,,,,,,,,,,,,,,,,,,,,,,,,,,,,,,
,,,,,,,,2023-08-16_08h33.03.647,HF_wild_card,2022.2.4,Win32,60.04924038,59b7b72e11212f0001cd0f15,64d2fd46c836a06233681665,64dc7b95215c87190a6f0a89,,,,,,,ctch,resources/DP.BMP,resources/DG.BMP,Door4,-0.178703704,0.012962963,1,0,0,0.7141,optionLeft,80,12740,6,13,0,13,0,1,,,,,,,,,,,,,,,,,,,,,,,,,,,,,,,,,,,,,,,
,,,,,,,,2023-08-16_08h33.03.647,HF_wild_card,2022.2.4,Win32,60.04924038,59b7b72e11212f0001cd0f15,64d2fd46c836a06233681665,64dc7b95215c87190a6f0a89,,,,,,,decisionTrl,resources/DY.BMP,resources/DG.BMP,WildCard_Ex,-0.248148148,-0.006481481,1,0,0,0.6316,optionLeft,55,12795,6,14,0,14,0,1,,,,,,,,,,,,,,,,,,,,,,,,,,,,,,,,,,,,,,,
,,,,,,,,2023-08-16_08h33.03.647,HF_wild_card,2022.2.4,Win32,60.04924038,59b7b72e11212f0001cd0f15,64d2fd46c836a06233681665,64dc7b95215c87190a6f0a89,,,,,,,decisionTrl,resources/DY.BMP,resources/DP.BMP,Door4,0.515740741,-0.088888889,1,0,0,1.0978,optionRight,60,12855,6,15,0,15,0,1,,,,,,,,,,,,,,,,,,,,,,,,,,,,,,,,,,,,,,,
,,,,,,,,2023-08-16_08h33.03.647,HF_wild_card,2022.2.4,Win32,60.04924038,59b7b72e11212f0001cd0f15,64d2fd46c836a06233681665,64dc7b95215c87190a6f0a89,,,,,,,decisionTrl,resources/DP.BMP,resources/DY.BMP,Door4,-0.340740741,-0.031481481,1,0,0,0.6311,optionLeft,80,12935,6,16,0,16,0,1,,,,,,,,,,,,,,,,,,,,,,,,,,,,,,,,,,,,,,,
,,,,,,,,2023-08-16_08h33.03.647,HF_wild_card,2022.2.4,Win32,60.04924038,59b7b72e11212f0001cd0f15,64d2fd46c836a06233681665,64dc7b95215c87190a6f0a89,,,,,,,decisionTrl,resources/DP.BMP,resources/DB.BMP,Door4,-0.313888889,0,1,0,0,0.8483,optionLeft,60,12995,6,17,0,17,0,1,,,,,,,,,,,,,,,,,,,,,,,,,,,,,,,,,,,,,,,
,,,,,,,,2023-08-16_08h33.03.647,HF_wild_card,2022.2.4,Win32,60.04924038,59b7b72e11212f0001cd0f15,64d2fd46c836a06233681665,64dc7b95215c87190a6f0a89,,,,,,,sngl,resources/DY.BMP,resources/Empty.png,WildCard_Ex,-0.239814815,0.008333333,1,0,0,0.631,optionLeft,45,13040,6,18,0,18,0,1,,,,,,,,,,,,,,,,,,,,,,,,,,,,,,,,,,,,,,,
,,,,,,,,2023-08-16_08h33.03.647,HF_wild_card,2022.2.4,Win32,60.04924038,59b7b72e11212f0001cd0f15,64d2fd46c836a06233681665,64dc7b95215c87190a6f0a89,,,,,,,decisionTrl,resources/DR.BMP,resources/DY.BMP,WildCard_Ex,0.269444444,0.015740741,1,0,0,1.4977,optionRight,45,13085,6,19,0,19,0,1,,,,,,,,,,,,,,,,,,,,,,,,,,,,,,,,,,,,,,,
,,,,,,,,2023-08-16_08h33.03.647,HF_wild_card,2022.2.4,Win32,60.04924038,59b7b72e11212f0001cd0f15,64d2fd46c836a06233681665,64dc7b95215c87190a6f0a89,,,,,,,decisionTrl,resources/DB.BMP,resources/DP.BMP,Door4,0.278703704,-0.030555556,1,0,0,0.9476,optionRight,80,13165,6,20,0,20,0,1,,,,,,,,,,,,,,,,,,,,,,,,,,,,,,,,,,,,,,,
,,,,,,,,2023-08-16_08h33.03.647,HF_wild_card,2022.2.4,Win32,60.04924038,59b7b72e11212f0001cd0f15,64d2fd46c836a06233681665,64dc7b95215c87190a6f0a89,,,,,,,decisionTrl,resources/DY.BMP,resources/DB.BMP,Door3,0.275925926,-0.02962963,1,0,0,0.8146,optionRight,70,13235,6,21,0,21,0,1,,,,,,,,,,,,,,,,,,,,,,,,,,,,,,,,,,,,,,,
,,,,,,,,2023-08-16_08h33.03.647,HF_wild_card,2022.2.4,Win32,60.04924038,59b7b72e11212f0001cd0f15,64d2fd46c836a06233681665,64dc7b95215c87190a6f0a89,,,,,,,sngl,resources/DG.BMP,resources/Empty.png,Door1,-0.308333333,0.019444444,1,0,0,0.7806,optionLeft,30,13265,6,22,0,22,0,1,,,,,,,,,,,,,,,,,,,,,,,,,,,,,,,,,,,,,,,
,,,,,,,,2023-08-16_08h33.03.647,HF_wild_card,2022.2.4,Win32,60.04924038,59b7b72e11212f0001cd0f15,64d2fd46c836a06233681665,64dc7b95215c87190a6f0a89,,,,,,,decisionTrl,resources/DR.BMP,resources/DG.BMP,Door1,0.397222222,-0.051851852,1,0,0,1.0979,optionRight,30,13295,6,23,0,23,0,1,,,,,,,,,,,,,,,,,,,,,,,,,,,,,,,,,,,,,,,
,,,,,,,,2023-08-16_08h33.03.647,HF_wild_card,2022.2.4,Win32,60.04924038,59b7b72e11212f0001cd0f15,64d2fd46c836a06233681665,64dc7b95215c87190a6f0a89,,,,,,,ctch,resources/DB.BMP,resources/DR.BMP,Door3,-0.377777778,0.024074074,1,0,0,0.798,optionLeft,70,13365,6,24,0,24,0,1,,,,,,,,,,,,,,,,,,,,,,,,,,,,,,,,,,,,,,,
,,,,,,,,2023-08-16_08h33.03.647,HF_wild_card,2022.2.4,Win32,60.04924038,59b7b72e11212f0001cd0f15,64d2fd46c836a06233681665,64dc7b95215c87190a6f0a89,,,,,,,decisionTrl,resources/DY.BMP,resources/DR.BMP,WildCard_Ex,-0.300925926,0.026851852,1,0,0,0.9979,optionLeft,55,13420,6,25,0,25,0,1,,,,,,,,,,,,,,,,,,,,,,,,,,,,,,,,,,,,,,,
,,,,,,,,2023-08-16_08h33.03.647,HF_wild_card,2022.2.4,Win32,60.04924038,59b7b72e11212f0001cd0f15,64d2fd46c836a06233681665,64dc7b95215c87190a6f0a89,,,,,,,sngl,resources/Empty.png,resources/DB.BMP,Door3,0.428703704,0.001851852,1,0,0,0.648,optionRight,70,13490,6,26,0,26,0,1,,,,,,,,,,,,,,,,,,,,,,,,,,,,,,,,,,,,,,,
,,,,,,,,2023-08-16_08h33.03.647,HF_wild_card,2022.2.4,Win32,60.04924038,59b7b72e11212f0001cd0f15,64d2fd46c836a06233681665,64dc7b95215c87190a6f0a89,,,,,,,decisionTrl,resources/DP.BMP,resources/DB.BMP,Door4,-0.316666667,-0.008333333,1,0,0,0.8479,optionLeft,80,13570,6,27,0,27,0,1,,,,,,,,,,,,,,,,,,,,,,,,,,,,,,,,,,,,,,,
,,,,,,,,2023-08-16_08h33.03.647,HF_wild_card,2022.2.4,Win32,60.04924038,59b7b72e11212f0001cd0f15,64d2fd46c836a06233681665,64dc7b95215c87190a6f0a89,,,,,,,sngl,resources/DY.BMP,resources/Empty.png,WildCard_Ex,-0.265740741,-0.010185185,1,0,0,0.5976,optionLeft,55,13625,6,28,0,28,0,1,,,,,,,,,,,,,,,,,,,,,,,,,,,,,,,,,,,,,,,
,,,,,,,,2023-08-16_08h33.03.647,HF_wild_card,2022.2.4,Win32,60.04924038,59b7b72e11212f0001cd0f15,64d2fd46c836a06233681665,64dc7b95215c87190a6f0a89,,,,,,,decisionTrl,resources/DB.BMP,resources/DP.BMP,Door4,0.515740741,-0.037962963,1,0,0,1.2149,optionRight,80,13705,6,29,0,29,0,1,,,,,,,,,,,,,,,,,,,,,,,,,,,,,,,,,,,,,,,
,,,,,,,,2023-08-16_08h33.03.647,HF_wild_card,2022.2.4,Win32,60.04924038,59b7b72e11212f0001cd0f15,64d2fd46c836a06233681665,64dc7b95215c87190a6f0a89,,,,,,,decisionTrl,resources/DP.BMP,resources/DB.BMP,Door4,-0.397222222,-0.02962963,1,0,0,0.6808,optionLeft,80,13785,6,30,0,30,0,1,,,,,,,,,,,,,,,,,,,,,,,,,,,,,,,,,,,,,,,
,,,,,,,,2023-08-16_08h33.03.647,HF_wild_card,2022.2.4,Win32,60.04924038,59b7b72e11212f0001cd0f15,64d2fd46c836a06233681665,64dc7b95215c87190a6f0a89,,,,,,,decisionTrl,resources/DB.BMP,resources/DY.BMP,Door3,-0.382407407,-0.026851852,1,0,0,1.5815,optionLeft,70,13855,6,31,0,31,0,1,,,,,,,,,,,,,,,,,,,,,,,,,,,,,,,,,,,,,,,
,,,,,,,,2023-08-16_08h33.03.647,HF_wild_card,2022.2.4,Win32,60.04924038,59b7b72e11212f0001cd0f15,64d2fd46c836a06233681665,64dc7b95215c87190a6f0a89,,,,,,,sngl,resources/Empty.png,resources/DR.BMP,Door2,0.325,-0.014814815,1,0,0,0.6148,optionRight,40,13895,6,32,0,32,0,1,,,,,,,,,,,,,,,,,,,,,,,,,,,,,,,,,,,,,,,
,,,,,,,,2023-08-16_08h33.03.647,HF_wild_card,2022.2.4,Win32,60.04924038,59b7b72e11212f0001cd0f15,64d2fd46c836a06233681665,64dc7b95215c87190a6f0a89,,,,,,,decisionTrl,resources/DB.BMP,resources/DP.BMP,Door4,0.281481481,-0.075925926,1,0,0,1.1812,optionRight,60,13955,6,33,0,33,0,1,,,,,,,,,,,,,,,,,,,,,,,,,,,,,,,,,,,,,,,
,,,,,,,,2023-08-16_08h33.03.647,HF_wild_card,2022.2.4,Win32,60.04924038,59b7b72e11212f0001cd0f15,64d2fd46c836a06233681665,64dc7b95215c87190a6f0a89,,,,,,,sngl,resources/Empty.png,resources/DP.BMP,Door4,0.324074074,-0.07962963,1,0,0,0.7152,optionRight,80,14035,6,34,0,34,0,1,,,,,,,,,,,,,,,,,,,,,,,,,,,,,,,,,,,,,,,
,,,,,,,,2023-08-16_08h33.03.647,HF_wild_card,2022.2.4,Win32,60.04924038,59b7b72e11212f0001cd0f15,64d2fd46c836a06233681665,64dc7b95215c87190a6f0a89,,,,,,,ctch,resources/DR.BMP,resources/DB.BMP,Door3,0.293518519,-0.025,1,0,0,0.8473,optionRight,70,14105,6,35,0,35,0,1,,,,,,,,,,,,,,,,,,,,,,,,,,,,,,,,,,,,,,,
,,,,,,,,2023-08-16_08h33.03.647,HF_wild_card,2022.2.4,Win32,60.04924038,59b7b72e11212f0001cd0f15,64d2fd46c836a06233681665,64dc7b95215c87190a6f0a89,,,,,,,sngl,resources/DP.BMP,resources/Empty.png,Door4,-0.338888889,-0.053703704,1,0,0,0.7145,optionLeft,60,14165,6,36,0,36,0,1,,,,,,,,,,,,,,,,,,,,,,,,,,,,,,,,,,,,,,,
,,,,,,,,2023-08-16_08h33.03.647,HF_wild_card,2022.2.4,Win32,60.04924038,59b7b72e11212f0001cd0f15,64d2fd46c836a06233681665,64dc7b95215c87190a6f0a89,,,,,,,decisionTrl,resources/DG.BMP,resources/DR.BMP,Door1,-0.294444444,-0.031481481,1,0,0,2.3808,optionLeft,30,14195,6,37,0,37,0,1,,,,,,,,,,,,,,,,,,,,,,,,,,,,,,,,,,,,,,,
,,,,,,,,2023-08-16_08h33.03.647,HF_wild_card,2022.2.4,Win32,60.04924038,59b7b72e11212f0001cd0f15,64d2fd46c836a06233681665,64dc7b95215c87190a6f0a89,,,,,,,sngl,resources/DR.BMP,resources/Empty.png,Door2,-0.390740741,0.035185185,1,0,0,0.7983,optionLeft,20,14215,6,38,0,38,0,1,,,,,,,,,,,,,,,,,,,,,,,,,,,,,,,,,,,,,,,
,,,,,,,,2023-08-16_08h33.03.647,HF_wild_card,2022.2.4,Win32,60.04924038,59b7b72e11212f0001cd0f15,64d2fd46c836a06233681665,64dc7b95215c87190a6f0a89,,,,,,,decisionTrl,resources/DR.BMP,resources/DG.BMP,Door1,0.293518519,0.015740741,1,0,0,1.0407,optionRight,30,14245,6,39,0,39,0,1,,,,,,,,,,,,,,,,,,,,,,,,,,,,,,,,,,,,,,,
,,,,,,,,2023-08-16_08h33.03.647,HF_wild_card,2022.2.4,Win32,60.04924038,59b7b72e11212f0001cd0f15,64d2fd46c836a06233681665,64dc7b95215c87190a6f0a89,,,,,,,decisionTrl,resources/DG.BMP,resources/DR.BMP,Door1,-0.366666667,0.012037037,1,0,0,0.5978,optionLeft,30,14275,6,40,0,40,0,1,,,,,,,,,,,,,,,,,,,,,,,,,,,,,,,,,,,,,,,
,,,,,,,,2023-08-16_08h33.03.647,HF_wild_card,2022.2.4,Win32,60.04924038,59b7b72e11212f0001cd0f15,64d2fd46c836a06233681665,64dc7b95215c87190a6f0a89,,,,,,,decisionTrl,resources/DB.BMP,resources/DP.BMP,Door4,0.423148148,-0.117592593,1,0,0,0.6978,optionRight,60,14335,6,41,0,41,0,1,,,,,,,,,,,,,,,,,,,,,,,,,,,,,,,,,,,,,,,
,,,,,,,,2023-08-16_08h33.03.647,HF_wild_card,2022.2.4,Win32,60.04924038,59b7b72e11212f0001cd0f15,64d2fd46c836a06233681665,64dc7b95215c87190a6f0a89,,,,,,,sngl,resources/Empty.png,resources/DY.BMP,WildCard_Ex,0.335185185,-0.032407407,1,0,0,0.631,optionRight,55,14390,6,42,0,42,0,1,,,,,,,,,,,,,,,,,,,,,,,,,,,,,,,,,,,,,,,
,,,,,,,,2023-08-16_08h33.03.647,HF_wild_card,2022.2.4,Win32,60.04924038,59b7b72e11212f0001cd0f15,64d2fd46c836a06233681665,64dc7b95215c87190a6f0a89,,,,,,,decisionTrl,resources/DG.BMP,resources/DR.BMP,Door1,-0.201851852,-0.05462963,1,0,0,1.8311,optionLeft,30,14420,6,43,0,43,0,1,,,,,,,,,,,,,,,,,,,,,,,,,,,,,,,,,,,,,,,
,,,,,,,,2023-08-16_08h33.03.647,HF_wild_card,2022.2.4,Win32,60.04924038,59b7b72e11212f0001cd0f15,64d2fd46c836a06233681665,64dc7b95215c87190a6f0a89,,,,,,,,,,,,,,,,,,,,,,,,,,5,0,5,0,1,,,,,,,,,,,,,,,,,,,,,,,,,,,,,,,,,,
,,,,,,,,2023-08-16_08h33.03.647,HF_wild_card,2022.2.4,Win32,60.04924038,59b7b72e11212f0001cd0f15,64d2fd46c836a06233681665,64dc7b95215c87190a6f0a89,,,,,,,decisionTrl,resources/DP.BMP,resources/DB.BMP,Door4,-0.486111111,0.059259259,1,0,0,1.105,optionLeft,60,14480,7,0,0,0,0,1,,,,,,,,,,,,,,,,,,,,,,,,,,,,,,,,,,,,,,,
,,,,,,,,2023-08-16_08h33.03.647,HF_wild_card,2022.2.4,Win32,60.04924038,59b7b72e11212f0001cd0f15,64d2fd46c836a06233681665,64dc7b95215c87190a6f0a89,,,,,,,decisionTrl,resources/DP.BMP,resources/DB.BMP,Door4,-0.197222222,-0.015740741,1,0,0,0.9486,optionLeft,60,14540,7,1,0,1,0,1,,,,,,,,,,,,,,,,,,,,,,,,,,,,,,,,,,,,,,,
,,,,,,,,2023-08-16_08h33.03.647,HF_wild_card,2022.2.4,Win32,60.04924038,59b7b72e11212f0001cd0f15,64d2fd46c836a06233681665,64dc7b95215c87190a6f0a89,,,,,,,decisionTrl,resources/DR.BMP,resources/DG.BMP,Door1,0.296296296,-0.04537037,1,0,0,1.2491,optionRight,30,14570,7,2,0,2,0,1,,,,,,,,,,,,,,,,,,,,,,,,,,,,,,,,,,,,,,,
,,,,,,,,2023-08-16_08h33.03.647,HF_wild_card,2022.2.4,Win32,60.04924038,59b7b72e11212f0001cd0f15,64d2fd46c836a06233681665,64dc7b95215c87190a6f0a89,,,,,,,decisionTrl,resources/DP.BMP,resources/DB.BMP,Door4,-0.27962963,-0.012037037,1,0,0,1.0652,optionLeft,80,14650,7,3,0,3,0,1,,,,,,,,,,,,,,,,,,,,,,,,,,,,,,,,,,,,,,,
,,,,,,,,2023-08-16_08h33.03.647,HF_wild_card,2022.2.4,Win32,60.04924038,59b7b72e11212f0001cd0f15,64d2fd46c836a06233681665,64dc7b95215c87190a6f0a89,,,,,,,ctch,resources/DR.BMP,resources/DB.BMP,Door3,0.396296296,-0.050925926,1,0,0,1.1154,optionRight,70,14720,7,4,0,4,0,1,,,,,,,,,,,,,,,,,,,,,,,,,,,,,,,,,,,,,,,
,,,,,,,,2023-08-16_08h33.03.647,HF_wild_card,2022.2.4,Win32,60.04924038,59b7b72e11212f0001cd0f15,64d2fd46c836a06233681665,64dc7b95215c87190a6f0a89,,,,,,,ctch,resources/DB.BMP,resources/DR.BMP,Door3,-0.339814815,0.037962963,1,0,0,0.9489,optionLeft,70,14790,7,5,0,5,0,1,,,,,,,,,,,,,,,,,,,,,,,,,,,,,,,,,,,,,,,
,,,,,,,,2023-08-16_08h33.03.647,HF_wild_card,2022.2.4,Win32,60.04924038,59b7b72e11212f0001cd0f15,64d2fd46c836a06233681665,64dc7b95215c87190a6f0a89,,,,,,,decisionTrl,resources/DR.BMP,resources/DG.BMP,Door1,0.485185185,-0.089814815,1,0,0,0.9658,optionRight,30,14820,7,6,0,6,0,1,,,,,,,,,,,,,,,,,,,,,,,,,,,,,,,,,,,,,,,
,,,,,,,,2023-08-16_08h33.03.647,HF_wild_card,2022.2.4,Win32,60.04924038,59b7b72e11212f0001cd0f15,64d2fd46c836a06233681665,64dc7b95215c87190a6f0a89,,,,,,,decisionTrl,resources/DP.BMP,resources/DB.BMP,Door4,-0.271296296,0.006481481,1,0,0,0.899,optionLeft,80,14900,7,7,0,7,0,1,,,,,,,,,,,,,,,,,,,,,,,,,,,,,,,,,,,,,,,
,,,,,,,,2023-08-16_08h33.03.647,HF_wild_card,2022.2.4,Win32,60.04924038,59b7b72e11212f0001cd0f15,64d2fd46c836a06233681665,64dc7b95215c87190a6f0a89,,,,,,,decisionTrl,resources/DR.BMP,resources/DG.BMP,Door1,0.273148148,-0.053703704,1,0,0,0.8158,optionRight,30,14930,7,8,0,8,0,1,,,,,,,,,,,,,,,,,,,,,,,,,,,,,,,,,,,,,,,
,,,,,,,,2023-08-16_08h33.03.647,HF_wild_card,2022.2.4,Win32,60.04924038,59b7b72e11212f0001cd0f15,64d2fd46c836a06233681665,64dc7b95215c87190a6f0a89,,,,,,,ctch,resources/DB.BMP,resources/DR.BMP,Door3,-0.306481481,0.018518519,1,0,0,1.1488,optionLeft,70,15000,7,9,0,9,0,1,,,,,,,,,,,,,,,,,,,,,,,,,,,,,,,,,,,,,,,
,,,,,,,,2023-08-16_08h33.03.647,HF_wild_card,2022.2.4,Win32,60.04924038,59b7b72e11212f0001cd0f15,64d2fd46c836a06233681665,64dc7b95215c87190a6f0a89,,,,,,,decisionTrl,resources/DR.BMP,resources/DG.BMP,Door1,0.399074074,-0.051851852,1,0,0,0.8159,optionRight,30,15030,7,10,0,10,0,1,,,,,,,,,,,,,,,,,,,,,,,,,,,,,,,,,,,,,,,
,,,,,,,,2023-08-16_08h33.03.647,HF_wild_card,2022.2.4,Win32,60.04924038,59b7b72e11212f0001cd0f15,64d2fd46c836a06233681665,64dc7b95215c87190a6f0a89,,,,,,,decisionTrl,resources/DG.BMP,resources/DR.BMP,Door1,-0.380555556,0.036111111,1,0,0,0.6153,optionLeft,30,15060,7,11,0,11,0,1,,,,,,,,,,,,,,,,,,,,,,,,,,,,,,,,,,,,,,,
,,,,,,,,2023-08-16_08h33.03.647,HF_wild_card,2022.2.4,Win32,60.04924038,59b7b72e11212f0001cd0f15,64d2fd46c836a06233681665,64dc7b95215c87190a6f0a89,,,,,,,decisionTrl,resources/DG.BMP,resources/DR.BMP,Door1,-0.393518519,-0.052777778,1,0,0,0.6661,optionLeft,30,15090,7,12,0,12,0,1,,,,,,,,,,,,,,,,,,,,,,,,,,,,,,,,,,,,,,,
,,,,,,,,2023-08-16_08h33.03.647,HF_wild_card,2022.2.4,Win32,60.04924038,59b7b72e11212f0001cd0f15,64d2fd46c836a06233681665,64dc7b95215c87190a6f0a89,,,,,,,decisionTrl,resources/DB.BMP,resources/DP.BMP,Door4,0.398148148,-0.043518519,1,0,0,0.7482,optionRight,80,15170,7,13,0,13,0,1,,,,,,,,,,,,,,,,,,,,,,,,,,,,,,,,,,,,,,,
,,,,,,,,2023-08-16_08h33.03.647,HF_wild_card,2022.2.4,Win32,60.04924038,59b7b72e11212f0001cd0f15,64d2fd46c836a06233681665,64dc7b95215c87190a6f0a89,,,,,,,decisionTrl,resources/DB.BMP,resources/DP.BMP,Door4,0.402777778,-0.117592593,1,0,0,1.2327,optionRight,80,15250,7,14,0,14,0,1,,,,,,,,,,,,,,,,,,,,,,,,,,,,,,,,,,,,,,,
,,,,,,,,2023-08-16_08h33.03.647,HF_wild_card,2022.2.4,Win32,60.04924038,59b7b72e11212f0001cd0f15,64d2fd46c836a06233681665,64dc7b95215c87190a6f0a89,,,,,,,ctch,resources/DP.BMP,resources/DG.BMP,Door4,-0.427777778,-0.047222222,1,0,0,0.7986,optionLeft,80,15330,7,15,0,15,0,1,,,,,,,,,,,,,,,,,,,,,,,,,,,,,,,,,,,,,,,
,,,,,,,,2023-08-16_08h33.03.647,HF_wild_card,2022.2.4,Win32,60.04924038,59b7b72e11212f0001cd0f15,64d2fd46c836a06233681665,64dc7b95215c87190a6f0a89,,,,,,,ctch,resources/DP.BMP,resources/DG.BMP,Door4,-0.312037037,0.012037037,1,0,0,0.7658,optionLeft,60,15390,7,16,0,16,0,1,,,,,,,,,,,,,,,,,,,,,,,,,,,,,,,,,,,,,,,
,,,,,,,,2023-08-16_08h33.03.647,HF_wild_card,2022.2.4,Win32,60.04924038,59b7b72e11212f0001cd0f15,64d2fd46c836a06233681665,64dc7b95215c87190a6f0a89,,,,,,,ctch,resources/DG.BMP,resources/DP.BMP,Door4,0.42962963,-0.019444444,1,0,0,0.6656,optionRight,80,15470,7,17,0,17,0,1,,,,,,,,,,,,,,,,,,,,,,,,,,,,,,,,,,,,,,,
,,,,,,,,2023-08-16_08h33.03.647,HF_wild_card,2022.2.4,Win32,60.04924038,59b7b72e11212f0001cd0f15,64d2fd46c836a06233681665,64dc7b95215c87190a6f0a89,,,,,,,decisionTrl,resources/DP.BMP,resources/DB.BMP,Door4,-0.367592593,-0.010185185,1,0,0,0.5823,optionLeft,60,15530,7,18,0,18,0,1,,,,,,,,,,,,,,,,,,,,,,,,,,,,,,,,,,,,,,,
,,,,,,,,2023-08-16_08h33.03.647,HF_wild_card,2022.2.4,Win32,60.04924038,59b7b72e11212f0001cd0f15,64d2fd46c836a06233681665,64dc7b95215c87190a6f0a89,,,,,,,decisionTrl,resources/DB.BMP,resources/DP.BMP,Door4,0.386111111,-0.108333333,1,0,0,0.7142,optionRight,60,15590,7,19,0,19,0,1,,,,,,,,,,,,,,,,,,,,,,,,,,,,,,,,,,,,,,,
,,,,,,,,2023-08-16_08h33.03.647,HF_wild_card,2022.2.4,Win32,60.04924038,59b7b72e11212f0001cd0f15,64d2fd46c836a06233681665,64dc7b95215c87190a6f0a89,,,,,,,ctch,resources/DB.BMP,resources/DR.BMP,Door3,-0.324074074,-0.00462963,1,0,0,1.0993,optionLeft,70,15660,7,20,0,20,0,1,,,,,,,,,,,,,,,,,,,,,,,,,,,,,,,,,,,,,,,
,,,,,,,,2023-08-16_08h33.03.647,HF_wild_card,2022.2.4,Win32,60.04924038,59b7b72e11212f0001cd0f15,64d2fd46c836a06233681665,64dc7b95215c87190a6f0a89,,,,,,,decisionTrl,resources/DP.BMP,resources/DB.BMP,Door4,-0.380555556,-0.025925926,1,0,0,1.1477,optionLeft,60,15720,7,21,0,21,0,1,,,,,,,,,,,,,,,,,,,,,,,,,,,,,,,,,,,,,,,
,,,,,,,,2023-08-16_08h33.03.647,HF_wild_card,2022.2.4,Win32,60.04924038,59b7b72e11212f0001cd0f15,64d2fd46c836a06233681665,64dc7b95215c87190a6f0a89,,,,,,,decisionTrl,resources/DB.BMP,resources/DP.BMP,Door4,0.269444444,-0.106481481,1,0,0,0.9327,optionRight,80,15800,7,22,0,22,0,1,,,,,,,,,,,,,,,,,,,,,,,,,,,,,,,,,,,,,,,
,,,,,,,,2023-08-16_08h33.03.647,HF_wild_card,2022.2.4,Win32,60.04924038,59b7b72e11212f0001cd0f15,64d2fd46c836a06233681665,64dc7b95215c87190a6f0a89,,,,,,,decisionTrl,resources/DB.BMP,resources/DP.BMP,Door4,0.231481481,-0.035185185,1,0,0,0.9828,optionRight,80,15880,7,23,0,23,0,1,,,,,,,,,,,,,,,,,,,,,,,,,,,,,,,,,,,,,,,
,,,,,,,,2023-08-16_08h33.03.647,HF_wild_card,2022.2.4,Win32,60.04924038,59b7b72e11212f0001cd0f15,64d2fd46c836a06233681665,64dc7b95215c87190a6f0a89,,,,,,,ctch,resources/DG.BMP,resources/DP.BMP,Door4,0.323148148,-0.088888889,1,0,0,0.8489,optionRight,80,15960,7,24,0,24,0,1,,,,,,,,,,,,,,,,,,,,,,,,,,,,,,,,,,,,,,,
,,,,,,,,2023-08-16_08h33.03.647,HF_wild_card,2022.2.4,Win32,60.04924038,59b7b72e11212f0001cd0f15,64d2fd46c836a06233681665,64dc7b95215c87190a6f0a89,,,,,,,ctch,resources/DR.BMP,resources/DB.BMP,Door3,0.269444444,-0.013888889,1,0,0,1.0992,optionRight,70,16030,7,25,0,25,0,1,,,,,,,,,,,,,,,,,,,,,,,,,,,,,,,,,,,,,,,
,,,,,,,,2023-08-16_08h33.03.647,HF_wild_card,2022.2.4,Win32,60.04924038,59b7b72e11212f0001cd0f15,64d2fd46c836a06233681665,64dc7b95215c87190a6f0a89,,,,,,,decisionTrl,resources/DB.BMP,resources/DP.BMP,Door4,0.466666667,0.003703704,1,0,0,1.1993,optionRight,80,16110,7,26,0,26,0,1,,,,,,,,,,,,,,,,,,,,,,,,,,,,,,,,,,,,,,,
,,,,,,,,2023-08-16_08h33.03.647,HF_wild_card,2022.2.4,Win32,60.04924038,59b7b72e11212f0001cd0f15,64d2fd46c836a06233681665,64dc7b95215c87190a6f0a89,,,,,,,decisionTrl,resources/DG.BMP,resources/DR.BMP,Door1,-0.277777778,-0.014814815,1,0,0,1.1489,optionLeft,30,16140,7,27,0,27,0,1,,,,,,,,,,,,,,,,,,,,,,,,,,,,,,,,,,,,,,,
,,,,,,,,2023-08-16_08h33.03.647,HF_wild_card,2022.2.4,Win32,60.04924038,59b7b72e11212f0001cd0f15,64d2fd46c836a06233681665,64dc7b95215c87190a6f0a89,,,,,,,ctch,resources/DP.BMP,resources/DG.BMP,Door4,-0.412962963,-0.026851852,1,0,0,1.4156,optionLeft,80,16220,7,28,0,28,0,1,,,,,,,,,,,,,,,,,,,,,,,,,,,,,,,,,,,,,,,
,,,,,,,,2023-08-16_08h33.03.647,HF_wild_card,2022.2.4,Win32,60.04924038,59b7b72e11212f0001cd0f15,64d2fd46c836a06233681665,64dc7b95215c87190a6f0a89,,,,,,,ctch,resources/DR.BMP,resources/DB.BMP,Door3,0.256481481,-0.022222222,1,0,0,0.8323,optionRight,70,16290,7,29,0,29,0,1,,,,,,,,,,,,,,,,,,,,,,,,,,,,,,,,,,,,,,,
,,,,,,,,2023-08-16_08h33.03.647,HF_wild_card,2022.2.4,Win32,60.04924038,59b7b72e11212f0001cd0f15,64d2fd46c836a06233681665,64dc7b95215c87190a6f0a89,,,,,,,decisionTrl,resources/DG.BMP,resources/DR.BMP,Door1,-0.344444444,-0.010185185,1,0,0,0.8822,optionLeft,30,16320,7,30,0,30,0,1,,,,,,,,,,,,,,,,,,,,,,,,,,,,,,,,,,,,,,,
,,,,,,,,2023-08-16_08h33.03.647,HF_wild_card,2022.2.4,Win32,60.04924038,59b7b72e11212f0001cd0f15,64d2fd46c836a06233681665,64dc7b95215c87190a6f0a89,,,,,,,decisionTrl,resources/DR.BMP,resources/DG.BMP,Door1,0.239814815,-0.057407407,1,0,0,0.8489,optionRight,30,16350,7,31,0,31,0,1,,,,,,,,,,,,,,,,,,,,,,,,,,,,,,,,,,,,,,,
,,,,,,,,2023-08-16_08h33.03.647,HF_wild_card,2022.2.4,Win32,60.04924038,59b7b72e11212f0001cd0f15,64d2fd46c836a06233681665,64dc7b95215c87190a6f0a89,,,,,,,ctch,resources/DG.BMP,resources/DP.BMP,Door4,0.289814815,-0.04537037,1,0,0,0.8989,optionRight,80,16430,7,32,0,32,0,1,,,,,,,,,,,,,,,,,,,,,,,,,,,,,,,,,,,,,,,
,,,,,,,,2023-08-16_08h33.03.647,HF_wild_card,2022.2.4,Win32,60.04924038,59b7b72e11212f0001cd0f15,64d2fd46c836a06233681665,64dc7b95215c87190a6f0a89,,,,,,,decisionTrl,resources/DG.BMP,resources/DR.BMP,Door1,-0.269444444,0.05,1,0,0,0.8656,optionLeft,30,16460,7,33,0,33,0,1,,,,,,,,,,,,,,,,,,,,,,,,,,,,,,,,,,,,,,,
,,,,,,,,2023-08-16_08h33.03.647,HF_wild_card,2022.2.4,Win32,60.04924038,59b7b72e11212f0001cd0f15,64d2fd46c836a06233681665,64dc7b95215c87190a6f0a89,,,,,,,decisionTrl,resources/DG.BMP,resources/DR.BMP,Door1,-0.247222222,0.02037037,1,0,0,0.7829,optionLeft,30,16490,7,34,0,34,0,1,,,,,,,,,,,,,,,,,,,,,,,,,,,,,,,,,,,,,,,
,,,,,,,,2023-08-16_08h33.03.647,HF_wild_card,2022.2.4,Win32,60.04924038,59b7b72e11212f0001cd0f15,64d2fd46c836a06233681665,64dc7b95215c87190a6f0a89,,,,,,,decisionTrl,resources/DR.BMP,resources/DG.BMP,Door1,0.524074074,-0.128703704,1,0,0,0.7656,optionRight,30,16520,7,35,0,35,0,1,,,,,,,,,,,,,,,,,,,,,,,,,,,,,,,,,,,,,,,
,,,,,,,,2023-08-16_08h33.03.647,HF_wild_card,2022.2.4,Win32,60.04924038,59b7b72e11212f0001cd0f15,64d2fd46c836a06233681665,64dc7b95215c87190a6f0a89,,,,,,,,,,,,,,,,,,,,,,,,,,6,0,6,0,1,,,,,,,,,,,,,,,,,,,,,,,,,,,,,,,,,,
,,,,,,,,2023-08-16_08h33.03.647,HF_wild_card,2022.2.4,Win32,60.04924038,59b7b72e11212f0001cd0f15,64d2fd46c836a06233681665,64dc7b95215c87190a6f0a89,,,,,,,,,,,,,,,,,,,,,,,,,,,,,,,4,,,,,,,,,,,,,,,,,,,,,,,,,,,,,,,,,
,,,,,,,,2023-08-16_08h33.03.647,HF_wild_card,2022.2.4,Win32,60.04924038,59b7b72e11212f0001cd0f15,64d2fd46c836a06233681665,64dc7b95215c87190a6f0a89,,,,,,,,,,,,,,,,,,,,,,,,,,,,,,,,,,,,,,,,,,,,,,,,,,,,,,,,,,,,,,,,
,,,,,,,,2023-08-16_08h33.03.647,HF_wild_card,2022.2.4,Win32,60.04924038,59b7b72e11212f0001cd0f15,64d2fd46c836a06233681665,64dc7b95215c87190a6f0a89,,,,,,,,,,,,,,,,,,,,,,,,,,,,,,,,45,WC_extreme,resources/DY.BMP,0,0,0,0,1,,,,,,,,,,,,,,,,,,,,,,,,,
,,,,,,,,2023-08-16_08h33.03.647,HF_wild_card,2022.2.4,Win32,60.04924038,59b7b72e11212f0001cd0f15,64d2fd46c836a06233681665,64dc7b95215c87190a6f0a89,,,,,,,,,,,,,,,,,,,,,,,,,,,,,,,,25,WC_nonExtreme,resources/DBN.BMP,1,0,1,0,1,,,,,,,,,,,,,,,,,,,,,,,,,
,,,,,,,,2023-08-16_08h33.03.647,HF_wild_card,2022.2.4,Win32,60.04924038,59b7b72e11212f0001cd0f15,64d2fd46c836a06233681665,64dc7b95215c87190a6f0a89,,,,,,,,,,,,,,,,,,,,,,,,,,,,,,,,30,Door1,resources/DG.BMP,2,0,2,0,1,,,,,,,,,,,,,,,,,,,,,,,,,
,,,,,,,,2023-08-16_08h33.03.647,HF_wild_card,2022.2.4,Win32,60.04924038,59b7b72e11212f0001cd0f15,64d2fd46c836a06233681665,64dc7b95215c87190a6f0a89,,,,,,,,,,,,,,,,,,,,,,,,,,,,,,,,70,Door4,resources/DP.BMP,3,0,3,0,1,,,,,,,,,,,,,,,,,,,,,,,,,
,,,,,,,,2023-08-16_08h33.03.647,HF_wild_card,2022.2.4,Win32,60.04924038,59b7b72e11212f0001cd0f15,64d2fd46c836a06233681665,64dc7b95215c87190a6f0a89,,,,,,,,,,,,,,,,,,,,,,,,,,,,,,,,60,Door3,resources/DB.BMP,4,0,4,0,1,,,,,,,,,,,,,,,,,,,,,,,,,
,,,,,,,,2023-08-16_08h33.03.647,HF_wild_card,2022.2.4,Win32,60.04924038,59b7b72e11212f0001cd0f15,64d2fd46c836a06233681665,64dc7b95215c87190a6f0a89,,,,,,,,,,,,,,,,,,,,,,,,,,,,,,,,45,Door2,resources/DR.BMP,5,0,5,0,1,,,,,,,,,,,,,,,,,,,,,,,,,
,,,,,,,,2023-08-16_08h33.03.647,HF_wild_card,2022.2.4,Win32,60.04924038,59b7b72e11212f0001cd0f15,64d2fd46c836a06233681665,64dc7b95215c87190a6f0a89,,,,,,,,,,,,,,,,,,,,,,,,,,,,,,,,,,,,,,,,,,,,,,,,,,,,,,,,,,,,,,,,
,,,,,,,,2023-08-16_08h33.03.647,HF_wild_card,2022.2.4,Win32,60.04924038,59b7b72e11212f0001cd0f15,64d2fd46c836a06233681665,64dc7b95215c87190a6f0a89,,,,,,,,,,,,,,,,,,,,,,,,,,,,,,,,,,,,,,,,0,0,0,0,1,,,,,,,,,,,,,,,,,,,,
