Condition,Low fixed image (Door1),Low risky image (Door2),High fixed image (Door3),High risky image (Door4),Extreme Wild Card,NonExtreme Wild Card,,date,expName,psychopyVersion,OS,frameRate,PROLIFIC_PID,STUDY_ID,SESSION_ID,mouse_2.x,mouse_2.y,mouse_2.leftButton,mouse_2.midButton,mouse_2.rightButton,mouse_2.clicked_name,Trial Type,Left Option Image,Right Option Image,Chosen Door,mouse.x,mouse.y,mouse.leftButton,mouse.midButton,mouse.rightButton,mouse.time,mouse.clicked_name,Feedback,Cumulative Reward,Block,trial.thisRepN,trial.thisTrialN,trial.thisN,trial.thisIndex,trial.ran,blocks.thisRepN,blocks.thisTrialN,blocks.thisN,blocks.thisIndex,blocks.ran,Money conversion,First Outcome Reported,Shown Door (First Outcome),Displayed Image (First Outcome),outcomes.thisRepN,outcomes.thisTrialN,outcomes.thisN,outcomes.thisIndex,outcomes.ran,judgments.thisRepN,judgments.thisTrialN,judgments.thisN,judgments.thisIndex,judgments.ran,freqMouse.x,freqMouse.y,freqMouse.leftButton,freqMouse.midButton,freqMouse.rightButton,freqMouse.clicked_name,FQJ for first outcome,FQJ for second outcome,Shown Door,Displayed Image,trials.thisRepN,trials.thisTrialN,trials.thisN,trials.thisIndex,trials.ran,judgBlock.thisRepN,judgBlock.thisTrialN,judgBlock.thisN,judgBlock.thisIndex,judgBlock.ran
0,resources/DR.BMP,resources/DG.BMP,resources/DB.BMP,resources/DY.BMP,resources/DBN.BMP,resources/DP.BMP,,2023-08-16_08h41.31.167,HF_wild_card,2022.2.4,MacIntel,2.617801047,60d1efc9559f8afb8e315638,64d2fd46c836a06233681665,64dc7d574ff8778d6642da08,,,,,,,,,,,,,,,,,,,,,,,,,,,,,,,,,,,,,,,,,,,,,,,,,,,,,,,,,,,,,,,,
,,,,,,,,2023-08-16_08h41.31.167,HF_wild_card,2022.2.4,MacIntel,2.617801047,60d1efc9559f8afb8e315638,64d2fd46c836a06233681665,64dc7d574ff8778d6642da08,-0.002777778,-0.422222222,1,0,0,agree,,,,,,,,,,,,,,,,,,,,,,,,,,,,,,,,,,,,,,,,,,,,,,,,,,,,,,,,,,
,,,,,,,,2023-08-16_08h41.31.167,HF_wild_card,2022.2.4,MacIntel,2.617801047,60d1efc9559f8afb8e315638,64d2fd46c836a06233681665,64dc7d574ff8778d6642da08,,,,,,,,,,,,,,,,,,,,,,,,,,,,,,,,,,,,,,,,,,,,,,,,,,,,,,,,,,,,,,,,
,,,,,,,,2023-08-16_08h41.31.167,HF_wild_card,2022.2.4,MacIntel,2.617801047,60d1efc9559f8afb8e315638,64d2fd46c836a06233681665,64dc7d574ff8778d6642da08,,,,,,,decisionTrl,resources/DR.BMP,resources/DG.BMP,Door2,0.356944444,0.041666667,1,0,0,4.292,optionRight,40,40,1,0,0,0,0,1,,,,,,,,,,,,,,,,,,,,,,,,,,,,,,,,,,,,,,,
,,,,,,,,2023-08-16_08h41.31.167,HF_wild_card,2022.2.4,MacIntel,2.617801047,60d1efc9559f8afb8e315638,64d2fd46c836a06233681665,64dc7d574ff8778d6642da08,,,,,,,decisionTrl,resources/DY.BMP,resources/DBN.BMP,Door4,-0.306944444,0.084027778,1,0,0,3.515,optionLeft,80,120,1,1,0,1,0,1,,,,,,,,,,,,,,,,,,,,,,,,,,,,,,,,,,,,,,,
,,,,,,,,2023-08-16_08h41.31.167,HF_wild_card,2022.2.4,MacIntel,2.617801047,60d1efc9559f8afb8e315638,64d2fd46c836a06233681665,64dc7d574ff8778d6642da08,,,,,,,decisionTrl,resources/DY.BMP,resources/DB.BMP,Door4,-0.263888889,0.080555556,1,0,0,5.253,optionLeft,80,200,1,2,0,2,0,1,,,,,,,,,,,,,,,,,,,,,,,,,,,,,,,,,,,,,,,
,,,,,,,,2023-08-16_08h41.31.167,HF_wild_card,2022.2.4,MacIntel,2.617801047,60d1efc9559f8afb8e315638,64d2fd46c836a06233681665,64dc7d574ff8778d6642da08,,,,,,,decisionTrl,resources/DG.BMP,resources/DR.BMP,Door1,0.349305556,0.022222222,1,0,0,1.816,optionRight,30,230,1,3,0,3,0,1,,,,,,,,,,,,,,,,,,,,,,,,,,,,,,,,,,,,,,,
,,,,,,,,2023-08-16_08h41.31.167,HF_wild_card,2022.2.4,MacIntel,2.617801047,60d1efc9559f8afb8e315638,64d2fd46c836a06233681665,64dc7d574ff8778d6642da08,,,,,,,ctch,resources/DY.BMP,resources/DR.BMP,Door4,-0.227777778,0.020138889,1,0,0,1.7,optionLeft,60,290,1,4,0,4,0,1,,,,,,,,,,,,,,,,,,,,,,,,,,,,,,,,,,,,,,,
,,,,,,,,2023-08-16_08h41.31.167,HF_wild_card,2022.2.4,MacIntel,2.617801047,60d1efc9559f8afb8e315638,64d2fd46c836a06233681665,64dc7d574ff8778d6642da08,,,,,,,ctch,resources/DG.BMP,resources/DB.BMP,Door2,-0.327083333,-0.011111111,1,0,0,1.932,optionLeft,20,310,1,5,0,5,0,1,,,,,,,,,,,,,,,,,,,,,,,,,,,,,,,,,,,,,,,
,,,,,,,,2023-08-16_08h41.31.167,HF_wild_card,2022.2.4,MacIntel,2.617801047,60d1efc9559f8afb8e315638,64d2fd46c836a06233681665,64dc7d574ff8778d6642da08,,,,,,,sngl,resources/DBN.BMP,resources/Empty.png,WildCard_Ex,-0.389583333,0.065972222,1,0,0,1.599,optionLeft,95,405,1,6,0,6,0,1,,,,,,,,,,,,,,,,,,,,,,,,,,,,,,,,,,,,,,,
,,,,,,,,2023-08-16_08h41.31.167,HF_wild_card,2022.2.4,MacIntel,2.617801047,60d1efc9559f8afb8e315638,64d2fd46c836a06233681665,64dc7d574ff8778d6642da08,,,,,,,ctch,resources/DR.BMP,resources/DY.BMP,Door1,-0.347916667,0.043055556,1,0,0,2.731,optionLeft,30,435,1,7,0,7,0,1,,,,,,,,,,,,,,,,,,,,,,,,,,,,,,,,,,,,,,,
,,,,,,,,2023-08-16_08h41.31.167,HF_wild_card,2022.2.4,MacIntel,2.617801047,60d1efc9559f8afb8e315638,64d2fd46c836a06233681665,64dc7d574ff8778d6642da08,,,,,,,sngl,resources/Empty.png,resources/DG.BMP,Door2,0.479861111,0.016666667,1,0,0,1.064,optionRight,20,455,1,8,0,8,0,1,,,,,,,,,,,,,,,,,,,,,,,,,,,,,,,,,,,,,,,
,,,,,,,,2023-08-16_08h41.31.167,HF_wild_card,2022.2.4,MacIntel,2.617801047,60d1efc9559f8afb8e315638,64d2fd46c836a06233681665,64dc7d574ff8778d6642da08,,,,,,,decisionTrl,resources/DBN.BMP,resources/DG.BMP,Door2,0.340277778,0.000694444,1,0,0,1.565,optionRight,40,495,1,9,0,9,0,1,,,,,,,,,,,,,,,,,,,,,,,,,,,,,,,,,,,,,,,
,,,,,,,,2023-08-16_08h41.31.167,HF_wild_card,2022.2.4,MacIntel,2.617801047,60d1efc9559f8afb8e315638,64d2fd46c836a06233681665,64dc7d574ff8778d6642da08,,,,,,,decisionTrl,resources/DR.BMP,resources/DG.BMP,Door1,-0.302083333,0.001388889,1,0,0,2.149,optionLeft,30,525,1,10,0,10,0,1,,,,,,,,,,,,,,,,,,,,,,,,,,,,,,,,,,,,,,,
,,,,,,,,2023-08-16_08h41.31.167,HF_wild_card,2022.2.4,MacIntel,2.617801047,60d1efc9559f8afb8e315638,64d2fd46c836a06233681665,64dc7d574ff8778d6642da08,,,,,,,decisionTrl,resources/DB.BMP,resources/DY.BMP,Door4,0.375,-0.015277778,1,0,0,2.532,optionRight,60,585,1,11,0,11,0,1,,,,,,,,,,,,,,,,,,,,,,,,,,,,,,,,,,,,,,,
,,,,,,,,2023-08-16_08h41.31.167,HF_wild_card,2022.2.4,MacIntel,2.617801047,60d1efc9559f8afb8e315638,64d2fd46c836a06233681665,64dc7d574ff8778d6642da08,,,,,,,sngl,resources/Empty.png,resources/DB.BMP,Door3,0.401388889,-0.009027778,1,0,0,1.183,optionRight,70,655,1,12,0,12,0,1,,,,,,,,,,,,,,,,,,,,,,,,,,,,,,,,,,,,,,,
,,,,,,,,2023-08-16_08h41.31.167,HF_wild_card,2022.2.4,MacIntel,2.617801047,60d1efc9559f8afb8e315638,64d2fd46c836a06233681665,64dc7d574ff8778d6642da08,,,,,,,sngl,resources/DY.BMP,resources/Empty.png,Door4,-0.25625,-0.00625,1,0,0,1.031,optionLeft,80,735,1,13,0,13,0,1,,,,,,,,,,,,,,,,,,,,,,,,,,,,,,,,,,,,,,,
,,,,,,,,2023-08-16_08h41.31.167,HF_wild_card,2022.2.4,MacIntel,2.617801047,60d1efc9559f8afb8e315638,64d2fd46c836a06233681665,64dc7d574ff8778d6642da08,,,,,,,ctch,resources/DG.BMP,resources/DB.BMP,Door2,-0.413194444,0.028472222,1,0,0,1.415,optionLeft,20,755,1,14,0,14,0,1,,,,,,,,,,,,,,,,,,,,,,,,,,,,,,,,,,,,,,,
,,,,,,,,2023-08-16_08h41.31.167,HF_wild_card,2022.2.4,MacIntel,2.617801047,60d1efc9559f8afb8e315638,64d2fd46c836a06233681665,64dc7d574ff8778d6642da08,,,,,,,decisionTrl,resources/DR.BMP,resources/DBN.BMP,WildCard_Ex,0.375694444,0.013888889,1,0,0,1.199,optionRight,95,850,1,15,0,15,0,1,,,,,,,,,,,,,,,,,,,,,,,,,,,,,,,,,,,,,,,
,,,,,,,,2023-08-16_08h41.31.167,HF_wild_card,2022.2.4,MacIntel,2.617801047,60d1efc9559f8afb8e315638,64d2fd46c836a06233681665,64dc7d574ff8778d6642da08,,,,,,,ctch,resources/DB.BMP,resources/DG.BMP,Door2,0.436805556,-0.03125,1,0,0,1.183,optionRight,20,870,1,16,0,16,0,1,,,,,,,,,,,,,,,,,,,,,,,,,,,,,,,,,,,,,,,
,,,,,,,,2023-08-16_08h41.31.167,HF_wild_card,2022.2.4,MacIntel,2.617801047,60d1efc9559f8afb8e315638,64d2fd46c836a06233681665,64dc7d574ff8778d6642da08,,,,,,,decisionTrl,resources/DB.BMP,resources/DY.BMP,Door3,-0.386111111,0.058333333,1,0,0,1.816,optionLeft,70,940,1,17,0,17,0,1,,,,,,,,,,,,,,,,,,,,,,,,,,,,,,,,,,,,,,,
,,,,,,,,2023-08-16_08h41.31.167,HF_wild_card,2022.2.4,MacIntel,2.617801047,60d1efc9559f8afb8e315638,64d2fd46c836a06233681665,64dc7d574ff8778d6642da08,,,,,,,decisionTrl,resources/DY.BMP,resources/DB.BMP,Door3,0.314583333,0.009027778,1,0,0,1.283,optionRight,70,1010,1,18,0,18,0,1,,,,,,,,,,,,,,,,,,,,,,,,,,,,,,,,,,,,,,,
,,,,,,,,2023-08-16_08h41.31.167,HF_wild_card,2022.2.4,MacIntel,2.617801047,60d1efc9559f8afb8e315638,64d2fd46c836a06233681665,64dc7d574ff8778d6642da08,,,,,,,decisionTrl,resources/DBN.BMP,resources/DY.BMP,WildCard_Ex,-0.315277778,0.044444444,1,0,0,1.248,optionLeft,95,1105,1,19,0,19,0,1,,,,,,,,,,,,,,,,,,,,,,,,,,,,,,,,,,,,,,,
,,,,,,,,2023-08-16_08h41.31.167,HF_wild_card,2022.2.4,MacIntel,2.617801047,60d1efc9559f8afb8e315638,64d2fd46c836a06233681665,64dc7d574ff8778d6642da08,,,,,,,decisionTrl,resources/DY.BMP,resources/DB.BMP,Door3,0.280555556,0.00625,1,0,0,1.432,optionRight,70,1175,1,20,0,20,0,1,,,,,,,,,,,,,,,,,,,,,,,,,,,,,,,,,,,,,,,
,,,,,,,,2023-08-16_08h41.31.167,HF_wild_card,2022.2.4,MacIntel,2.617801047,60d1efc9559f8afb8e315638,64d2fd46c836a06233681665,64dc7d574ff8778d6642da08,,,,,,,decisionTrl,resources/DBN.BMP,resources/DB.BMP,WildCard_Ex,-0.343055556,0.048611111,1,0,0,1.617,optionLeft,5,1180,1,21,0,21,0,1,,,,,,,,,,,,,,,,,,,,,,,,,,,,,,,,,,,,,,,
,,,,,,,,2023-08-16_08h41.31.167,HF_wild_card,2022.2.4,MacIntel,2.617801047,60d1efc9559f8afb8e315638,64d2fd46c836a06233681665,64dc7d574ff8778d6642da08,,,,,,,sngl,resources/DBN.BMP,resources/Empty.png,WildCard_Ex,-0.2625,0.013888889,1,0,0,1.266,optionLeft,5,1185,1,22,0,22,0,1,,,,,,,,,,,,,,,,,,,,,,,,,,,,,,,,,,,,,,,
,,,,,,,,2023-08-16_08h41.31.167,HF_wild_card,2022.2.4,MacIntel,2.617801047,60d1efc9559f8afb8e315638,64d2fd46c836a06233681665,64dc7d574ff8778d6642da08,,,,,,,decisionTrl,resources/DBN.BMP,resources/DR.BMP,Door1,0.356944444,-0.024305556,1,0,0,2.083,optionRight,30,1215,1,23,0,23,0,1,,,,,,,,,,,,,,,,,,,,,,,,,,,,,,,,,,,,,,,
,,,,,,,,2023-08-16_08h41.31.167,HF_wild_card,2022.2.4,MacIntel,2.617801047,60d1efc9559f8afb8e315638,64d2fd46c836a06233681665,64dc7d574ff8778d6642da08,,,,,,,decisionTrl,resources/DY.BMP,resources/DB.BMP,Door4,-0.29375,-0.013888889,1,0,0,1.299,optionLeft,60,1275,1,24,0,24,0,1,,,,,,,,,,,,,,,,,,,,,,,,,,,,,,,,,,,,,,,
,,,,,,,,2023-08-16_08h41.31.167,HF_wild_card,2022.2.4,MacIntel,2.617801047,60d1efc9559f8afb8e315638,64d2fd46c836a06233681665,64dc7d574ff8778d6642da08,,,,,,,ctch,resources/DR.BMP,resources/DY.BMP,Door4,0.425,-0.025,1,0,0,1.132,optionRight,80,1355,1,25,0,25,0,1,,,,,,,,,,,,,,,,,,,,,,,,,,,,,,,,,,,,,,,
,,,,,,,,2023-08-16_08h41.31.167,HF_wild_card,2022.2.4,MacIntel,2.617801047,60d1efc9559f8afb8e315638,64d2fd46c836a06233681665,64dc7d574ff8778d6642da08,,,,,,,sngl,resources/Empty.png,resources/DY.BMP,Door4,0.395138889,-0.005555556,1,0,0,0.781,optionRight,60,1415,1,26,0,26,0,1,,,,,,,,,,,,,,,,,,,,,,,,,,,,,,,,,,,,,,,
,,,,,,,,2023-08-16_08h41.31.167,HF_wild_card,2022.2.4,MacIntel,2.617801047,60d1efc9559f8afb8e315638,64d2fd46c836a06233681665,64dc7d574ff8778d6642da08,,,,,,,decisionTrl,resources/DR.BMP,resources/DG.BMP,Door2,0.271527778,-0.03125,1,0,0,2.2,optionRight,20,1435,1,27,0,27,0,1,,,,,,,,,,,,,,,,,,,,,,,,,,,,,,,,,,,,,,,
,,,,,,,,2023-08-16_08h41.31.167,HF_wild_card,2022.2.4,MacIntel,2.617801047,60d1efc9559f8afb8e315638,64d2fd46c836a06233681665,64dc7d574ff8778d6642da08,,,,,,,decisionTrl,resources/DB.BMP,resources/DBN.BMP,WildCard_Ex,0.41875,-0.01875,1,0,0,1.35,optionRight,5,1440,1,28,0,28,0,1,,,,,,,,,,,,,,,,,,,,,,,,,,,,,,,,,,,,,,,
,,,,,,,,2023-08-16_08h41.31.167,HF_wild_card,2022.2.4,MacIntel,2.617801047,60d1efc9559f8afb8e315638,64d2fd46c836a06233681665,64dc7d574ff8778d6642da08,,,,,,,decisionTrl,resources/DG.BMP,resources/DR.BMP,Door2,-0.283333333,0.002777778,1,0,0,1.349,optionLeft,40,1480,1,29,0,29,0,1,,,,,,,,,,,,,,,,,,,,,,,,,,,,,,,,,,,,,,,
,,,,,,,,2023-08-16_08h41.31.167,HF_wild_card,2022.2.4,MacIntel,2.617801047,60d1efc9559f8afb8e315638,64d2fd46c836a06233681665,64dc7d574ff8778d6642da08,,,,,,,decisionTrl,resources/DB.BMP,resources/DY.BMP,Door4,0.469444444,-0.019444444,1,0,0,3.032,optionRight,80,1560,1,30,0,30,0,1,,,,,,,,,,,,,,,,,,,,,,,,,,,,,,,,,,,,,,,
,,,,,,,,2023-08-16_08h41.31.167,HF_wild_card,2022.2.4,MacIntel,2.617801047,60d1efc9559f8afb8e315638,64d2fd46c836a06233681665,64dc7d574ff8778d6642da08,,,,,,,sngl,resources/Empty.png,resources/DBN.BMP,WildCard_Ex,0.360416667,0.024305556,1,0,0,0.814,optionRight,5,1565,1,31,0,31,0,1,,,,,,,,,,,,,,,,,,,,,,,,,,,,,,,,,,,,,,,
,,,,,,,,2023-08-16_08h41.31.167,HF_wild_card,2022.2.4,MacIntel,2.617801047,60d1efc9559f8afb8e315638,64d2fd46c836a06233681665,64dc7d574ff8778d6642da08,,,,,,,sngl,resources/Empty.png,resources/DR.BMP,Door1,0.234027778,-0.010416667,1,0,0,0.749,optionRight,30,1595,1,32,0,32,0,1,,,,,,,,,,,,,,,,,,,,,,,,,,,,,,,,,,,,,,,
,,,,,,,,2023-08-16_08h41.31.167,HF_wild_card,2022.2.4,MacIntel,2.617801047,60d1efc9559f8afb8e315638,64d2fd46c836a06233681665,64dc7d574ff8778d6642da08,,,,,,,sngl,resources/DB.BMP,resources/Empty.png,Door3,-0.249305556,0.039583333,1,0,0,0.731,optionLeft,70,1665,1,33,0,33,0,1,,,,,,,,,,,,,,,,,,,,,,,,,,,,,,,,,,,,,,,
,,,,,,,,2023-08-16_08h41.31.167,HF_wild_card,2022.2.4,MacIntel,2.617801047,60d1efc9559f8afb8e315638,64d2fd46c836a06233681665,64dc7d574ff8778d6642da08,,,,,,,decisionTrl,resources/DG.BMP,resources/DBN.BMP,Door2,-0.274305556,0.019444444,1,0,0,1.249,optionLeft,40,1705,1,34,0,34,0,1,,,,,,,,,,,,,,,,,,,,,,,,,,,,,,,,,,,,,,,
,,,,,,,,2023-08-16_08h41.31.167,HF_wild_card,2022.2.4,MacIntel,2.617801047,60d1efc9559f8afb8e315638,64d2fd46c836a06233681665,64dc7d574ff8778d6642da08,,,,,,,decisionTrl,resources/DB.BMP,resources/DY.BMP,Door3,-0.254861111,0.015972222,1,0,0,2.297,optionLeft,70,1775,1,35,0,35,0,1,,,,,,,,,,,,,,,,,,,,,,,,,,,,,,,,,,,,,,,
,,,,,,,,2023-08-16_08h41.31.167,HF_wild_card,2022.2.4,MacIntel,2.617801047,60d1efc9559f8afb8e315638,64d2fd46c836a06233681665,64dc7d574ff8778d6642da08,,,,,,,decisionTrl,resources/DR.BMP,resources/DG.BMP,Door1,-0.218055556,0.029861111,1,0,0,1.248,optionLeft,30,1805,1,36,0,36,0,1,,,,,,,,,,,,,,,,,,,,,,,,,,,,,,,,,,,,,,,
,,,,,,,,2023-08-16_08h41.31.167,HF_wild_card,2022.2.4,MacIntel,2.617801047,60d1efc9559f8afb8e315638,64d2fd46c836a06233681665,64dc7d574ff8778d6642da08,,,,,,,sngl,resources/DG.BMP,resources/Empty.png,Door2,-0.200694444,0.025694444,1,0,0,0.664,optionLeft,40,1845,1,37,0,37,0,1,,,,,,,,,,,,,,,,,,,,,,,,,,,,,,,,,,,,,,,
,,,,,,,,2023-08-16_08h41.31.167,HF_wild_card,2022.2.4,MacIntel,2.617801047,60d1efc9559f8afb8e315638,64d2fd46c836a06233681665,64dc7d574ff8778d6642da08,,,,,,,sngl,resources/Empty.png,resources/DBN.BMP,WildCard_Ex,0.384722222,0.031944444,1,0,0,0.715,optionRight,95,1940,1,38,0,38,0,1,,,,,,,,,,,,,,,,,,,,,,,,,,,,,,,,,,,,,,,
,,,,,,,,2023-08-16_08h41.31.167,HF_wild_card,2022.2.4,MacIntel,2.617801047,60d1efc9559f8afb8e315638,64d2fd46c836a06233681665,64dc7d574ff8778d6642da08,,,,,,,ctch,resources/DB.BMP,resources/DG.BMP,Door2,0.369444444,0.017361111,1,0,0,0.899,optionRight,20,1960,1,39,0,39,0,1,,,,,,,,,,,,,,,,,,,,,,,,,,,,,,,,,,,,,,,
,,,,,,,,2023-08-16_08h41.31.167,HF_wild_card,2022.2.4,MacIntel,2.617801047,60d1efc9559f8afb8e315638,64d2fd46c836a06233681665,64dc7d574ff8778d6642da08,,,,,,,sngl,resources/DR.BMP,resources/Empty.png,Door1,-0.219444444,-0.013194444,1,0,0,0.782,optionLeft,30,1990,1,40,0,40,0,1,,,,,,,,,,,,,,,,,,,,,,,,,,,,,,,,,,,,,,,
,,,,,,,,2023-08-16_08h41.31.167,HF_wild_card,2022.2.4,MacIntel,2.617801047,60d1efc9559f8afb8e315638,64d2fd46c836a06233681665,64dc7d574ff8778d6642da08,,,,,,,decisionTrl,resources/DG.BMP,resources/DR.BMP,Door2,-0.149305556,0.022222222,1,0,0,0.915,optionLeft,40,2030,1,41,0,41,0,1,,,,,,,,,,,,,,,,,,,,,,,,,,,,,,,,,,,,,,,
,,,,,,,,2023-08-16_08h41.31.167,HF_wild_card,2022.2.4,MacIntel,2.617801047,60d1efc9559f8afb8e315638,64d2fd46c836a06233681665,64dc7d574ff8778d6642da08,,,,,,,decisionTrl,resources/DG.BMP,resources/DR.BMP,Door1,0.369444444,0.014583333,1,0,0,1.131,optionRight,30,2060,1,42,0,42,0,1,,,,,,,,,,,,,,,,,,,,,,,,,,,,,,,,,,,,,,,
,,,,,,,,2023-08-16_08h41.31.167,HF_wild_card,2022.2.4,MacIntel,2.617801047,60d1efc9559f8afb8e315638,64d2fd46c836a06233681665,64dc7d574ff8778d6642da08,,,,,,,ctch,resources/DY.BMP,resources/DR.BMP,Door4,-0.342361111,0.004861111,1,0,0,1.483,optionLeft,60,2120,1,43,0,43,0,1,,,,,,,,,,,,,,,,,,,,,,,,,,,,,,,,,,,,,,,
,,,,,,,,2023-08-16_08h41.31.167,HF_wild_card,2022.2.4,MacIntel,2.617801047,60d1efc9559f8afb8e315638,64d2fd46c836a06233681665,64dc7d574ff8778d6642da08,,,,,,,,,,,,,,,,,,,,,,,,,,0,0,0,0,1,,,,,,,,,,,,,,,,,,,,,,,,,,,,,,,,,,
,,,,,,,,2023-08-16_08h41.31.167,HF_wild_card,2022.2.4,MacIntel,2.617801047,60d1efc9559f8afb8e315638,64d2fd46c836a06233681665,64dc7d574ff8778d6642da08,,,,,,,decisionTrl,resources/DG.BMP,resources/DR.BMP,Door2,-0.367361111,0.011111111,1,0,0,2.964,optionLeft,20,2140,2,0,0,0,0,1,,,,,,,,,,,,,,,,,,,,,,,,,,,,,,,,,,,,,,,
,,,,,,,,2023-08-16_08h41.31.167,HF_wild_card,2022.2.4,MacIntel,2.617801047,60d1efc9559f8afb8e315638,64d2fd46c836a06233681665,64dc7d574ff8778d6642da08,,,,,,,sngl,resources/DR.BMP,resources/Empty.png,Door1,-0.330555556,-0.009722222,1,0,0,0.627,optionLeft,30,2170,2,1,0,1,0,1,,,,,,,,,,,,,,,,,,,,,,,,,,,,,,,,,,,,,,,
,,,,,,,,2023-08-16_08h41.31.167,HF_wild_card,2022.2.4,MacIntel,2.617801047,60d1efc9559f8afb8e315638,64d2fd46c836a06233681665,64dc7d574ff8778d6642da08,,,,,,,ctch,resources/DG.BMP,resources/DB.BMP,Door3,0.405555556,0.000694444,1,0,0,1.032,optionRight,70,2240,2,2,0,2,0,1,,,,,,,,,,,,,,,,,,,,,,,,,,,,,,,,,,,,,,,
,,,,,,,,2023-08-16_08h41.31.167,HF_wild_card,2022.2.4,MacIntel,2.617801047,60d1efc9559f8afb8e315638,64d2fd46c836a06233681665,64dc7d574ff8778d6642da08,,,,,,,decisionTrl,resources/DB.BMP,resources/DBN.BMP,Door3,-0.422222222,0.004166667,1,0,0,0.765,optionLeft,70,2310,2,3,0,3,0,1,,,,,,,,,,,,,,,,,,,,,,,,,,,,,,,,,,,,,,,
,,,,,,,,2023-08-16_08h41.31.167,HF_wild_card,2022.2.4,MacIntel,2.617801047,60d1efc9559f8afb8e315638,64d2fd46c836a06233681665,64dc7d574ff8778d6642da08,,,,,,,decisionTrl,resources/DR.BMP,resources/DG.BMP,Door1,-0.373611111,0.021527778,1,0,0,1.449,optionLeft,30,2340,2,4,0,4,0,1,,,,,,,,,,,,,,,,,,,,,,,,,,,,,,,,,,,,,,,
,,,,,,,,2023-08-16_08h41.31.167,HF_wild_card,2022.2.4,MacIntel,2.617801047,60d1efc9559f8afb8e315638,64d2fd46c836a06233681665,64dc7d574ff8778d6642da08,,,,,,,decisionTrl,resources/DY.BMP,resources/DB.BMP,Door3,0.325694444,-0.020833333,1,0,0,1.9,optionRight,70,2410,2,5,0,5,0,1,,,,,,,,,,,,,,,,,,,,,,,,,,,,,,,,,,,,,,,
,,,,,,,,2023-08-16_08h41.31.167,HF_wild_card,2022.2.4,MacIntel,2.617801047,60d1efc9559f8afb8e315638,64d2fd46c836a06233681665,64dc7d574ff8778d6642da08,,,,,,,decisionTrl,resources/DY.BMP,resources/DB.BMP,Door4,-0.375694444,0.015277778,1,0,0,0.931,optionLeft,60,2470,2,6,0,6,0,1,,,,,,,,,,,,,,,,,,,,,,,,,,,,,,,,,,,,,,,
,,,,,,,,2023-08-16_08h41.31.167,HF_wild_card,2022.2.4,MacIntel,2.617801047,60d1efc9559f8afb8e315638,64d2fd46c836a06233681665,64dc7d574ff8778d6642da08,,,,,,,sngl,resources/DG.BMP,resources/Empty.png,Door2,-0.259722222,0.020833333,1,0,0,0.882,optionLeft,20,2490,2,7,0,7,0,1,,,,,,,,,,,,,,,,,,,,,,,,,,,,,,,,,,,,,,,
,,,,,,,,2023-08-16_08h41.31.167,HF_wild_card,2022.2.4,MacIntel,2.617801047,60d1efc9559f8afb8e315638,64d2fd46c836a06233681665,64dc7d574ff8778d6642da08,,,,,,,decisionTrl,resources/DG.BMP,resources/DR.BMP,Door2,-0.177777778,0.010416667,1,0,0,1.715,optionLeft,20,2510,2,8,0,8,0,1,,,,,,,,,,,,,,,,,,,,,,,,,,,,,,,,,,,,,,,
,,,,,,,,2023-08-16_08h41.31.167,HF_wild_card,2022.2.4,MacIntel,2.617801047,60d1efc9559f8afb8e315638,64d2fd46c836a06233681665,64dc7d574ff8778d6642da08,,,,,,,ctch,resources/DB.BMP,resources/DG.BMP,Door3,-0.154166667,0.016666667,1,0,0,1.533,optionLeft,70,2580,2,9,0,9,0,1,,,,,,,,,,,,,,,,,,,,,,,,,,,,,,,,,,,,,,,
,,,,,,,,2023-08-16_08h41.31.167,HF_wild_card,2022.2.4,MacIntel,2.617801047,60d1efc9559f8afb8e315638,64d2fd46c836a06233681665,64dc7d574ff8778d6642da08,,,,,,,sngl,resources/Empty.png,resources/DBN.BMP,WildCard_Ex,0.328472222,0.049305556,1,0,0,0.765,optionRight,95,2675,2,10,0,10,0,1,,,,,,,,,,,,,,,,,,,,,,,,,,,,,,,,,,,,,,,
,,,,,,,,2023-08-16_08h41.31.167,HF_wild_card,2022.2.4,MacIntel,2.617801047,60d1efc9559f8afb8e315638,64d2fd46c836a06233681665,64dc7d574ff8778d6642da08,,,,,,,decisionTrl,resources/DBN.BMP,resources/DY.BMP,Door4,0.326388889,0.069444444,1,0,0,0.666,optionRight,60,2735,2,11,0,11,0,1,,,,,,,,,,,,,,,,,,,,,,,,,,,,,,,,,,,,,,,
,,,,,,,,2023-08-16_08h41.31.167,HF_wild_card,2022.2.4,MacIntel,2.617801047,60d1efc9559f8afb8e315638,64d2fd46c836a06233681665,64dc7d574ff8778d6642da08,,,,,,,ctch,resources/DR.BMP,resources/DY.BMP,Door4,0.305555556,0.056944444,1,0,0,1.95,optionRight,80,2815,2,12,0,12,0,1,,,,,,,,,,,,,,,,,,,,,,,,,,,,,,,,,,,,,,,
,,,,,,,,2023-08-16_08h41.31.167,HF_wild_card,2022.2.4,MacIntel,2.617801047,60d1efc9559f8afb8e315638,64d2fd46c836a06233681665,64dc7d574ff8778d6642da08,,,,,,,sngl,resources/Empty.png,resources/DBN.BMP,WildCard_Ex,0.302083333,0.01875,1,0,0,0.815,optionRight,5,2820,2,13,0,13,0,1,,,,,,,,,,,,,,,,,,,,,,,,,,,,,,,,,,,,,,,
,,,,,,,,2023-08-16_08h41.31.167,HF_wild_card,2022.2.4,MacIntel,2.617801047,60d1efc9559f8afb8e315638,64d2fd46c836a06233681665,64dc7d574ff8778d6642da08,,,,,,,decisionTrl,resources/DR.BMP,resources/DBN.BMP,Door1,-0.440277778,0.0125,1,0,0,0.865,optionLeft,30,2850,2,14,0,14,0,1,,,,,,,,,,,,,,,,,,,,,,,,,,,,,,,,,,,,,,,
,,,,,,,,2023-08-16_08h41.31.167,HF_wild_card,2022.2.4,MacIntel,2.617801047,60d1efc9559f8afb8e315638,64d2fd46c836a06233681665,64dc7d574ff8778d6642da08,,,,,,,decisionTrl,resources/DBN.BMP,resources/DR.BMP,WildCard_Ex,-0.319444444,0.048611111,1,0,0,1.616,optionLeft,5,2855,2,15,0,15,0,1,,,,,,,,,,,,,,,,,,,,,,,,,,,,,,,,,,,,,,,
,,,,,,,,2023-08-16_08h41.31.167,HF_wild_card,2022.2.4,MacIntel,2.617801047,60d1efc9559f8afb8e315638,64d2fd46c836a06233681665,64dc7d574ff8778d6642da08,,,,,,,ctch,resources/DY.BMP,resources/DR.BMP,Door1,0.321527778,-0.016666667,1,0,0,0.633,optionRight,30,2885,2,16,0,16,0,1,,,,,,,,,,,,,,,,,,,,,,,,,,,,,,,,,,,,,,,
,,,,,,,,2023-08-16_08h41.31.167,HF_wild_card,2022.2.4,MacIntel,2.617801047,60d1efc9559f8afb8e315638,64d2fd46c836a06233681665,64dc7d574ff8778d6642da08,,,,,,,decisionTrl,resources/DG.BMP,resources/DR.BMP,Door2,-0.404861111,-0.003472222,1,0,0,1.133,optionLeft,40,2925,2,17,0,17,0,1,,,,,,,,,,,,,,,,,,,,,,,,,,,,,,,,,,,,,,,
,,,,,,,,2023-08-16_08h41.31.167,HF_wild_card,2022.2.4,MacIntel,2.617801047,60d1efc9559f8afb8e315638,64d2fd46c836a06233681665,64dc7d574ff8778d6642da08,,,,,,,sngl,resources/DBN.BMP,resources/Empty.png,WildCard_Ex,-0.132638889,0.022222222,1,0,0,0.732,optionLeft,5,2930,2,18,0,18,0,1,,,,,,,,,,,,,,,,,,,,,,,,,,,,,,,,,,,,,,,
,,,,,,,,2023-08-16_08h41.31.167,HF_wild_card,2022.2.4,MacIntel,2.617801047,60d1efc9559f8afb8e315638,64d2fd46c836a06233681665,64dc7d574ff8778d6642da08,,,,,,,decisionTrl,resources/DR.BMP,resources/DG.BMP,Door1,-0.245833333,0.001388889,1,0,0,1.148,optionLeft,30,2960,2,19,0,19,0,1,,,,,,,,,,,,,,,,,,,,,,,,,,,,,,,,,,,,,,,
,,,,,,,,2023-08-16_08h41.31.167,HF_wild_card,2022.2.4,MacIntel,2.617801047,60d1efc9559f8afb8e315638,64d2fd46c836a06233681665,64dc7d574ff8778d6642da08,,,,,,,sngl,resources/Empty.png,resources/DG.BMP,Door2,0.490972222,0,1,0,0,0.582,optionRight,40,3000,2,20,0,20,0,1,,,,,,,,,,,,,,,,,,,,,,,,,,,,,,,,,,,,,,,
,,,,,,,,2023-08-16_08h41.31.167,HF_wild_card,2022.2.4,MacIntel,2.617801047,60d1efc9559f8afb8e315638,64d2fd46c836a06233681665,64dc7d574ff8778d6642da08,,,,,,,decisionTrl,resources/DG.BMP,resources/DR.BMP,Door2,-0.292361111,0.022222222,1,0,0,1.099,optionLeft,40,3040,2,21,0,21,0,1,,,,,,,,,,,,,,,,,,,,,,,,,,,,,,,,,,,,,,,
,,,,,,,,2023-08-16_08h41.31.167,HF_wild_card,2022.2.4,MacIntel,2.617801047,60d1efc9559f8afb8e315638,64d2fd46c836a06233681665,64dc7d574ff8778d6642da08,,,,,,,sngl,resources/DY.BMP,resources/Empty.png,Door4,-0.294444444,0.001388889,1,0,0,0.716,optionLeft,60,3100,2,22,0,22,0,1,,,,,,,,,,,,,,,,,,,,,,,,,,,,,,,,,,,,,,,
,,,,,,,,2023-08-16_08h41.31.167,HF_wild_card,2022.2.4,MacIntel,2.617801047,60d1efc9559f8afb8e315638,64d2fd46c836a06233681665,64dc7d574ff8778d6642da08,,,,,,,sngl,resources/DBN.BMP,resources/Empty.png,WildCard_Ex,-0.275,0.015972222,1,0,0,0.615,optionLeft,95,3195,2,23,0,23,0,1,,,,,,,,,,,,,,,,,,,,,,,,,,,,,,,,,,,,,,,
,,,,,,,,2023-08-16_08h41.31.167,HF_wild_card,2022.2.4,MacIntel,2.617801047,60d1efc9559f8afb8e315638,64d2fd46c836a06233681665,64dc7d574ff8778d6642da08,,,,,,,decisionTrl,resources/DY.BMP,resources/DBN.BMP,Door4,-0.345833333,-0.002083333,1,0,0,1.115,optionLeft,60,3255,2,24,0,24,0,1,,,,,,,,,,,,,,,,,,,,,,,,,,,,,,,,,,,,,,,
,,,,,,,,2023-08-16_08h41.31.167,HF_wild_card,2022.2.4,MacIntel,2.617801047,60d1efc9559f8afb8e315638,64d2fd46c836a06233681665,64dc7d574ff8778d6642da08,,,,,,,sngl,resources/Empty.png,resources/DR.BMP,Door1,0.411805556,0.022916667,1,0,0,0.765,optionRight,30,3285,2,25,0,25,0,1,,,,,,,,,,,,,,,,,,,,,,,,,,,,,,,,,,,,,,,
,,,,,,,,2023-08-16_08h41.31.167,HF_wild_card,2022.2.4,MacIntel,2.617801047,60d1efc9559f8afb8e315638,64d2fd46c836a06233681665,64dc7d574ff8778d6642da08,,,,,,,ctch,resources/DY.BMP,resources/DR.BMP,Door4,-0.263888889,0.020833333,1,0,0,1.065,optionLeft,60,3345,2,26,0,26,0,1,,,,,,,,,,,,,,,,,,,,,,,,,,,,,,,,,,,,,,,
,,,,,,,,2023-08-16_08h41.31.167,HF_wild_card,2022.2.4,MacIntel,2.617801047,60d1efc9559f8afb8e315638,64d2fd46c836a06233681665,64dc7d574ff8778d6642da08,,,,,,,decisionTrl,resources/DB.BMP,resources/DY.BMP,Door4,0.298611111,-0.005555556,1,0,0,0.698,optionRight,60,3405,2,27,0,27,0,1,,,,,,,,,,,,,,,,,,,,,,,,,,,,,,,,,,,,,,,
,,,,,,,,2023-08-16_08h41.31.167,HF_wild_card,2022.2.4,MacIntel,2.617801047,60d1efc9559f8afb8e315638,64d2fd46c836a06233681665,64dc7d574ff8778d6642da08,,,,,,,ctch,resources/DR.BMP,resources/DY.BMP,Door4,0.222916667,0.008333333,1,0,0,1.082,optionRight,60,3465,2,28,0,28,0,1,,,,,,,,,,,,,,,,,,,,,,,,,,,,,,,,,,,,,,,
,,,,,,,,2023-08-16_08h41.31.167,HF_wild_card,2022.2.4,MacIntel,2.617801047,60d1efc9559f8afb8e315638,64d2fd46c836a06233681665,64dc7d574ff8778d6642da08,,,,,,,ctch,resources/DG.BMP,resources/DB.BMP,Door3,0.195138889,-0.002777778,1,0,0,1.683,optionRight,70,3535,2,29,0,29,0,1,,,,,,,,,,,,,,,,,,,,,,,,,,,,,,,,,,,,,,,
,,,,,,,,2023-08-16_08h41.31.167,HF_wild_card,2022.2.4,MacIntel,2.617801047,60d1efc9559f8afb8e315638,64d2fd46c836a06233681665,64dc7d574ff8778d6642da08,,,,,,,decisionTrl,resources/DB.BMP,resources/DY.BMP,Door4,0.250694444,-0.01875,1,0,0,0.932,optionRight,60,3595,2,30,0,30,0,1,,,,,,,,,,,,,,,,,,,,,,,,,,,,,,,,,,,,,,,
,,,,,,,,2023-08-16_08h41.31.167,HF_wild_card,2022.2.4,MacIntel,2.617801047,60d1efc9559f8afb8e315638,64d2fd46c836a06233681665,64dc7d574ff8778d6642da08,,,,,,,sngl,resources/Empty.png,resources/DY.BMP,Door4,0.279166667,0.014583333,1,0,0,0.766,optionRight,80,3675,2,31,0,31,0,1,,,,,,,,,,,,,,,,,,,,,,,,,,,,,,,,,,,,,,,
,,,,,,,,2023-08-16_08h41.31.167,HF_wild_card,2022.2.4,MacIntel,2.617801047,60d1efc9559f8afb8e315638,64d2fd46c836a06233681665,64dc7d574ff8778d6642da08,,,,,,,sngl,resources/DB.BMP,resources/Empty.png,Door3,-0.29375,-0.003472222,1,0,0,0.632,optionLeft,70,3745,2,32,0,32,0,1,,,,,,,,,,,,,,,,,,,,,,,,,,,,,,,,,,,,,,,
,,,,,,,,2023-08-16_08h41.31.167,HF_wild_card,2022.2.4,MacIntel,2.617801047,60d1efc9559f8afb8e315638,64d2fd46c836a06233681665,64dc7d574ff8778d6642da08,,,,,,,decisionTrl,resources/DR.BMP,resources/DG.BMP,Door2,0.284722222,-0.032638889,1,0,0,2.2,optionRight,20,3765,2,33,0,33,0,1,,,,,,,,,,,,,,,,,,,,,,,,,,,,,,,,,,,,,,,
,,,,,,,,2023-08-16_08h41.31.167,HF_wild_card,2022.2.4,MacIntel,2.617801047,60d1efc9559f8afb8e315638,64d2fd46c836a06233681665,64dc7d574ff8778d6642da08,,,,,,,decisionTrl,resources/DR.BMP,resources/DG.BMP,Door1,-0.274305556,0.031944444,1,0,0,0.699,optionLeft,30,3795,2,34,0,34,0,1,,,,,,,,,,,,,,,,,,,,,,,,,,,,,,,,,,,,,,,
,,,,,,,,2023-08-16_08h41.31.167,HF_wild_card,2022.2.4,MacIntel,2.617801047,60d1efc9559f8afb8e315638,64d2fd46c836a06233681665,64dc7d574ff8778d6642da08,,,,,,,decisionTrl,resources/DY.BMP,resources/DB.BMP,Door3,0.408333333,-0.014583333,1,0,0,1.749,optionRight,70,3865,2,35,0,35,0,1,,,,,,,,,,,,,,,,,,,,,,,,,,,,,,,,,,,,,,,
,,,,,,,,2023-08-16_08h41.31.167,HF_wild_card,2022.2.4,MacIntel,2.617801047,60d1efc9559f8afb8e315638,64d2fd46c836a06233681665,64dc7d574ff8778d6642da08,,,,,,,decisionTrl,resources/DG.BMP,resources/DBN.BMP,WildCard_Ex,0.263888889,0.001388889,1,0,0,0.965,optionRight,95,3960,2,36,0,36,0,1,,,,,,,,,,,,,,,,,,,,,,,,,,,,,,,,,,,,,,,
,,,,,,,,2023-08-16_08h41.31.167,HF_wild_card,2022.2.4,MacIntel,2.617801047,60d1efc9559f8afb8e315638,64d2fd46c836a06233681665,64dc7d574ff8778d6642da08,,,,,,,sngl,resources/Empty.png,resources/DB.BMP,Door3,0.386111111,0.023611111,1,0,0,0.698,optionRight,70,4030,2,37,0,37,0,1,,,,,,,,,,,,,,,,,,,,,,,,,,,,,,,,,,,,,,,
,,,,,,,,2023-08-16_08h41.31.167,HF_wild_card,2022.2.4,MacIntel,2.617801047,60d1efc9559f8afb8e315638,64d2fd46c836a06233681665,64dc7d574ff8778d6642da08,,,,,,,decisionTrl,resources/DB.BMP,resources/DY.BMP,Door3,-0.360416667,-0.003472222,1,0,0,1.065,optionLeft,70,4100,2,38,0,38,0,1,,,,,,,,,,,,,,,,,,,,,,,,,,,,,,,,,,,,,,,
,,,,,,,,2023-08-16_08h41.31.167,HF_wild_card,2022.2.4,MacIntel,2.617801047,60d1efc9559f8afb8e315638,64d2fd46c836a06233681665,64dc7d574ff8778d6642da08,,,,,,,decisionTrl,resources/DY.BMP,resources/DB.BMP,Door3,0.336805556,-0.008333333,1,0,0,0.714,optionRight,70,4170,2,39,0,39,0,1,,,,,,,,,,,,,,,,,,,,,,,,,,,,,,,,,,,,,,,
,,,,,,,,2023-08-16_08h41.31.167,HF_wild_card,2022.2.4,MacIntel,2.617801047,60d1efc9559f8afb8e315638,64d2fd46c836a06233681665,64dc7d574ff8778d6642da08,,,,,,,decisionTrl,resources/DBN.BMP,resources/DB.BMP,Door3,0.345833333,0.003472222,1,0,0,0.998,optionRight,70,4240,2,40,0,40,0,1,,,,,,,,,,,,,,,,,,,,,,,,,,,,,,,,,,,,,,,
,,,,,,,,2023-08-16_08h41.31.167,HF_wild_card,2022.2.4,MacIntel,2.617801047,60d1efc9559f8afb8e315638,64d2fd46c836a06233681665,64dc7d574ff8778d6642da08,,,,,,,decisionTrl,resources/DB.BMP,resources/DY.BMP,Door3,-0.397916667,0.066666667,1,0,0,1.633,optionLeft,70,4310,2,41,0,41,0,1,,,,,,,,,,,,,,,,,,,,,,,,,,,,,,,,,,,,,,,
,,,,,,,,2023-08-16_08h41.31.167,HF_wild_card,2022.2.4,MacIntel,2.617801047,60d1efc9559f8afb8e315638,64d2fd46c836a06233681665,64dc7d574ff8778d6642da08,,,,,,,decisionTrl,resources/DBN.BMP,resources/DG.BMP,WildCard_Ex,-0.373611111,0.074305556,1,0,0,0.866,optionLeft,5,4315,2,42,0,42,0,1,,,,,,,,,,,,,,,,,,,,,,,,,,,,,,,,,,,,,,,
,,,,,,,,2023-08-16_08h41.31.167,HF_wild_card,2022.2.4,MacIntel,2.617801047,60d1efc9559f8afb8e315638,64d2fd46c836a06233681665,64dc7d574ff8778d6642da08,,,,,,,ctch,resources/DB.BMP,resources/DG.BMP,Door2,0.370138889,0.038888889,1,0,0,1.365,optionRight,20,4335,2,43,0,43,0,1,,,,,,,,,,,,,,,,,,,,,,,,,,,,,,,,,,,,,,,
,,,,,,,,2023-08-16_08h41.31.167,HF_wild_card,2022.2.4,MacIntel,2.617801047,60d1efc9559f8afb8e315638,64d2fd46c836a06233681665,64dc7d574ff8778d6642da08,,,,,,,,,,,,,,,,,,,,,,,,,,1,0,1,0,1,,,,,,,,,,,,,,,,,,,,,,,,,,,,,,,,,,
,,,,,,,,2023-08-16_08h41.31.167,HF_wild_card,2022.2.4,MacIntel,2.617801047,60d1efc9559f8afb8e315638,64d2fd46c836a06233681665,64dc7d574ff8778d6642da08,,,,,,,decisionTrl,resources/DY.BMP,resources/DB.BMP,Door4,-0.446527778,-0.020138889,1,0,0,1.148,optionLeft,80,4415,3,0,0,0,0,1,,,,,,,,,,,,,,,,,,,,,,,,,,,,,,,,,,,,,,,
,,,,,,,,2023-08-16_08h41.31.167,HF_wild_card,2022.2.4,MacIntel,2.617801047,60d1efc9559f8afb8e315638,64d2fd46c836a06233681665,64dc7d574ff8778d6642da08,,,,,,,ctch,resources/DB.BMP,resources/DG.BMP,Door3,-0.313194444,0.015972222,1,0,0,1.166,optionLeft,70,4485,3,1,0,1,0,1,,,,,,,,,,,,,,,,,,,,,,,,,,,,,,,,,,,,,,,
,,,,,,,,2023-08-16_08h41.31.167,HF_wild_card,2022.2.4,MacIntel,2.617801047,60d1efc9559f8afb8e315638,64d2fd46c836a06233681665,64dc7d574ff8778d6642da08,,,,,,,sngl,resources/DB.BMP,resources/Empty.png,Door3,-0.24375,-0.009722222,1,0,0,0.68,optionLeft,70,4555,3,2,0,2,0,1,,,,,,,,,,,,,,,,,,,,,,,,,,,,,,,,,,,,,,,
,,,,,,,,2023-08-16_08h41.31.167,HF_wild_card,2022.2.4,MacIntel,2.617801047,60d1efc9559f8afb8e315638,64d2fd46c836a06233681665,64dc7d574ff8778d6642da08,,,,,,,decisionTrl,resources/DG.BMP,resources/DBN.BMP,WildCard_Ex,0.402777778,-0.016666667,1,0,0,1.082,optionRight,95,4650,3,3,0,3,0,1,,,,,,,,,,,,,,,,,,,,,,,,,,,,,,,,,,,,,,,
,,,,,,,,2023-08-16_08h41.31.167,HF_wild_card,2022.2.4,MacIntel,2.617801047,60d1efc9559f8afb8e315638,64d2fd46c836a06233681665,64dc7d574ff8778d6642da08,,,,,,,sngl,resources/Empty.png,resources/DG.BMP,Door2,0.246527778,0.004166667,1,0,0,0.832,optionRight,20,4670,3,4,0,4,0,1,,,,,,,,,,,,,,,,,,,,,,,,,,,,,,,,,,,,,,,
,,,,,,,,2023-08-16_08h41.31.167,HF_wild_card,2022.2.4,MacIntel,2.617801047,60d1efc9559f8afb8e315638,64d2fd46c836a06233681665,64dc7d574ff8778d6642da08,,,,,,,sngl,resources/Empty.png,resources/DB.BMP,Door3,0.308333333,-0.001388889,1,0,0,0.7,optionRight,70,4740,3,5,0,5,0,1,,,,,,,,,,,,,,,,,,,,,,,,,,,,,,,,,,,,,,,
,,,,,,,,2023-08-16_08h41.31.167,HF_wild_card,2022.2.4,MacIntel,2.617801047,60d1efc9559f8afb8e315638,64d2fd46c836a06233681665,64dc7d574ff8778d6642da08,,,,,,,ctch,resources/DB.BMP,resources/DG.BMP,Door3,-0.391666667,0.013194444,1,0,0,1.015,optionLeft,70,4810,3,6,0,6,0,1,,,,,,,,,,,,,,,,,,,,,,,,,,,,,,,,,,,,,,,
,,,,,,,,2023-08-16_08h41.31.167,HF_wild_card,2022.2.4,MacIntel,2.617801047,60d1efc9559f8afb8e315638,64d2fd46c836a06233681665,64dc7d574ff8778d6642da08,,,,,,,decisionTrl,resources/DBN.BMP,resources/DR.BMP,WildCard_Ex,-0.352083333,0.014583333,1,0,0,1.215,optionLeft,5,4815,3,7,0,7,0,1,,,,,,,,,,,,,,,,,,,,,,,,,,,,,,,,,,,,,,,
,,,,,,,,2023-08-16_08h41.31.167,HF_wild_card,2022.2.4,MacIntel,2.617801047,60d1efc9559f8afb8e315638,64d2fd46c836a06233681665,64dc7d574ff8778d6642da08,,,,,,,sngl,resources/DR.BMP,resources/Empty.png,Door1,-0.318055556,0.014583333,1,0,0,0.998,optionLeft,30,4845,3,8,0,8,0,1,,,,,,,,,,,,,,,,,,,,,,,,,,,,,,,,,,,,,,,
,,,,,,,,2023-08-16_08h41.31.167,HF_wild_card,2022.2.4,MacIntel,2.617801047,60d1efc9559f8afb8e315638,64d2fd46c836a06233681665,64dc7d574ff8778d6642da08,,,,,,,decisionTrl,resources/DBN.BMP,resources/DB.BMP,WildCard_Ex,-0.284027778,0.002777778,1,0,0,2.233,optionLeft,5,4850,3,9,0,9,0,1,,,,,,,,,,,,,,,,,,,,,,,,,,,,,,,,,,,,,,,
,,,,,,,,2023-08-16_08h41.31.167,HF_wild_card,2022.2.4,MacIntel,2.617801047,60d1efc9559f8afb8e315638,64d2fd46c836a06233681665,64dc7d574ff8778d6642da08,,,,,,,decisionTrl,resources/DG.BMP,resources/DR.BMP,Door1,0.307638889,0.008333333,1,0,0,1.131,optionRight,30,4880,3,10,0,10,0,1,,,,,,,,,,,,,,,,,,,,,,,,,,,,,,,,,,,,,,,
,,,,,,,,2023-08-16_08h41.31.167,HF_wild_card,2022.2.4,MacIntel,2.617801047,60d1efc9559f8afb8e315638,64d2fd46c836a06233681665,64dc7d574ff8778d6642da08,,,,,,,decisionTrl,resources/DB.BMP,resources/DY.BMP,Door3,-0.154166667,0.002083333,1,0,0,1.582,optionLeft,70,4950,3,11,0,11,0,1,,,,,,,,,,,,,,,,,,,,,,,,,,,,,,,,,,,,,,,
,,,,,,,,2023-08-16_08h41.31.167,HF_wild_card,2022.2.4,MacIntel,2.617801047,60d1efc9559f8afb8e315638,64d2fd46c836a06233681665,64dc7d574ff8778d6642da08,,,,,,,ctch,resources/DR.BMP,resources/DY.BMP,Door4,0.388888889,-0.034722222,1,0,0,0.798,optionRight,60,5010,3,12,0,12,0,1,,,,,,,,,,,,,,,,,,,,,,,,,,,,,,,,,,,,,,,
,,,,,,,,2023-08-16_08h41.31.167,HF_wild_card,2022.2.4,MacIntel,2.617801047,60d1efc9559f8afb8e315638,64d2fd46c836a06233681665,64dc7d574ff8778d6642da08,,,,,,,decisionTrl,resources/DR.BMP,resources/DG.BMP,Door1,-0.352777778,0.025694444,1,0,0,1.95,optionLeft,30,5040,3,13,0,13,0,1,,,,,,,,,,,,,,,,,,,,,,,,,,,,,,,,,,,,,,,
,,,,,,,,2023-08-16_08h41.31.167,HF_wild_card,2022.2.4,MacIntel,2.617801047,60d1efc9559f8afb8e315638,64d2fd46c836a06233681665,64dc7d574ff8778d6642da08,,,,,,,decisionTrl,resources/DY.BMP,resources/DB.BMP,Door3,0.336111111,0.008333333,1,0,0,1.333,optionRight,70,5110,3,14,0,14,0,1,,,,,,,,,,,,,,,,,,,,,,,,,,,,,,,,,,,,,,,
,,,,,,,,2023-08-16_08h41.31.167,HF_wild_card,2022.2.4,MacIntel,2.617801047,60d1efc9559f8afb8e315638,64d2fd46c836a06233681665,64dc7d574ff8778d6642da08,,,,,,,decisionTrl,resources/DR.BMP,resources/DBN.BMP,WildCard_Ex,0.407638889,-0.001388889,1,0,0,1.9,optionRight,5,5115,3,15,0,15,0,1,,,,,,,,,,,,,,,,,,,,,,,,,,,,,,,,,,,,,,,
,,,,,,,,2023-08-16_08h41.31.167,HF_wild_card,2022.2.4,MacIntel,2.617801047,60d1efc9559f8afb8e315638,64d2fd46c836a06233681665,64dc7d574ff8778d6642da08,,,,,,,decisionTrl,resources/DB.BMP,resources/DY.BMP,Door3,-0.209722222,0.006944444,1,0,0,1.399,optionLeft,70,5185,3,16,0,16,0,1,,,,,,,,,,,,,,,,,,,,,,,,,,,,,,,,,,,,,,,
,,,,,,,,2023-08-16_08h41.31.167,HF_wild_card,2022.2.4,MacIntel,2.617801047,60d1efc9559f8afb8e315638,64d2fd46c836a06233681665,64dc7d574ff8778d6642da08,,,,,,,ctch,resources/DY.BMP,resources/DR.BMP,Door4,-0.267361111,0.024305556,1,0,0,1.567,optionLeft,80,5265,3,17,0,17,0,1,,,,,,,,,,,,,,,,,,,,,,,,,,,,,,,,,,,,,,,
,,,,,,,,2023-08-16_08h41.31.167,HF_wild_card,2022.2.4,MacIntel,2.617801047,60d1efc9559f8afb8e315638,64d2fd46c836a06233681665,64dc7d574ff8778d6642da08,,,,,,,sngl,resources/DY.BMP,resources/Empty.png,Door4,-0.324305556,0.0125,1,0,0,0.665,optionLeft,80,5345,3,18,0,18,0,1,,,,,,,,,,,,,,,,,,,,,,,,,,,,,,,,,,,,,,,
,,,,,,,,2023-08-16_08h41.31.167,HF_wild_card,2022.2.4,MacIntel,2.617801047,60d1efc9559f8afb8e315638,64d2fd46c836a06233681665,64dc7d574ff8778d6642da08,,,,,,,decisionTrl,resources/DBN.BMP,resources/DY.BMP,WildCard_Ex,-0.213194444,0.016666667,1,0,0,2.05,optionLeft,95,5440,3,19,0,19,0,1,,,,,,,,,,,,,,,,,,,,,,,,,,,,,,,,,,,,,,,
,,,,,,,,2023-08-16_08h41.31.167,HF_wild_card,2022.2.4,MacIntel,2.617801047,60d1efc9559f8afb8e315638,64d2fd46c836a06233681665,64dc7d574ff8778d6642da08,,,,,,,decisionTrl,resources/DY.BMP,resources/DB.BMP,Door3,0.229861111,-0.026388889,1,0,0,1.316,optionRight,70,5510,3,20,0,20,0,1,,,,,,,,,,,,,,,,,,,,,,,,,,,,,,,,,,,,,,,
,,,,,,,,2023-08-16_08h41.31.167,HF_wild_card,2022.2.4,MacIntel,2.617801047,60d1efc9559f8afb8e315638,64d2fd46c836a06233681665,64dc7d574ff8778d6642da08,,,,,,,decisionTrl,resources/DB.BMP,resources/DY.BMP,Door4,0.425,-0.029166667,1,0,0,1.166,optionRight,80,5590,3,21,0,21,0,1,,,,,,,,,,,,,,,,,,,,,,,,,,,,,,,,,,,,,,,
,,,,,,,,2023-08-16_08h41.31.167,HF_wild_card,2022.2.4,MacIntel,2.617801047,60d1efc9559f8afb8e315638,64d2fd46c836a06233681665,64dc7d574ff8778d6642da08,,,,,,,sngl,resources/Empty.png,resources/DBN.BMP,WildCard_Ex,0.336805556,0.002777778,1,0,0,1.498,optionRight,95,5685,3,22,0,22,0,1,,,,,,,,,,,,,,,,,,,,,,,,,,,,,,,,,,,,,,,
,,,,,,,,2023-08-16_08h41.31.167,HF_wild_card,2022.2.4,MacIntel,2.617801047,60d1efc9559f8afb8e315638,64d2fd46c836a06233681665,64dc7d574ff8778d6642da08,,,,,,,sngl,resources/Empty.png,resources/DR.BMP,Door1,0.339583333,-0.027777778,1,0,0,0.783,optionRight,30,5715,3,23,0,23,0,1,,,,,,,,,,,,,,,,,,,,,,,,,,,,,,,,,,,,,,,
,,,,,,,,2023-08-16_08h41.31.167,HF_wild_card,2022.2.4,MacIntel,2.617801047,60d1efc9559f8afb8e315638,64d2fd46c836a06233681665,64dc7d574ff8778d6642da08,,,,,,,sngl,resources/DBN.BMP,resources/Empty.png,WildCard_Ex,-0.315972222,0.01875,1,0,0,0.766,optionLeft,5,5720,3,24,0,24,0,1,,,,,,,,,,,,,,,,,,,,,,,,,,,,,,,,,,,,,,,
,,,,,,,,2023-08-16_08h41.31.167,HF_wild_card,2022.2.4,MacIntel,2.617801047,60d1efc9559f8afb8e315638,64d2fd46c836a06233681665,64dc7d574ff8778d6642da08,,,,,,,decisionTrl,resources/DY.BMP,resources/DB.BMP,Door4,-0.248611111,-0.002777778,1,0,0,2.684,optionLeft,80,5800,3,25,0,25,0,1,,,,,,,,,,,,,,,,,,,,,,,,,,,,,,,,,,,,,,,
,,,,,,,,2023-08-16_08h41.31.167,HF_wild_card,2022.2.4,MacIntel,2.617801047,60d1efc9559f8afb8e315638,64d2fd46c836a06233681665,64dc7d574ff8778d6642da08,,,,,,,sngl,resources/Empty.png,resources/DBN.BMP,WildCard_Ex,0.461111111,-0.0125,1,0,0,1.148,optionRight,5,5805,3,26,0,26,0,1,,,,,,,,,,,,,,,,,,,,,,,,,,,,,,,,,,,,,,,
,,,,,,,,2023-08-16_08h41.31.167,HF_wild_card,2022.2.4,MacIntel,2.617801047,60d1efc9559f8afb8e315638,64d2fd46c836a06233681665,64dc7d574ff8778d6642da08,,,,,,,ctch,resources/DR.BMP,resources/DY.BMP,Door4,0.423611111,-0.045138889,1,0,0,1.366,optionRight,80,5885,3,27,0,27,0,1,,,,,,,,,,,,,,,,,,,,,,,,,,,,,,,,,,,,,,,
,,,,,,,,2023-08-16_08h41.31.167,HF_wild_card,2022.2.4,MacIntel,2.617801047,60d1efc9559f8afb8e315638,64d2fd46c836a06233681665,64dc7d574ff8778d6642da08,,,,,,,decisionTrl,resources/DG.BMP,resources/DR.BMP,Door1,0.407638889,-0.0375,1,0,0,1.566,optionRight,30,5915,3,28,0,28,0,1,,,,,,,,,,,,,,,,,,,,,,,,,,,,,,,,,,,,,,,
,,,,,,,,2023-08-16_08h41.31.167,HF_wild_card,2022.2.4,MacIntel,2.617801047,60d1efc9559f8afb8e315638,64d2fd46c836a06233681665,64dc7d574ff8778d6642da08,,,,,,,decisionTrl,resources/DR.BMP,resources/DG.BMP,Door1,-0.275,0.028472222,1,0,0,1.331,optionLeft,30,5945,3,29,0,29,0,1,,,,,,,,,,,,,,,,,,,,,,,,,,,,,,,,,,,,,,,
,,,,,,,,2023-08-16_08h41.31.167,HF_wild_card,2022.2.4,MacIntel,2.617801047,60d1efc9559f8afb8e315638,64d2fd46c836a06233681665,64dc7d574ff8778d6642da08,,,,,,,sngl,resources/DBN.BMP,resources/Empty.png,WildCard_Ex,-0.229861111,0.029861111,1,0,0,0.698,optionLeft,95,6040,3,30,0,30,0,1,,,,,,,,,,,,,,,,,,,,,,,,,,,,,,,,,,,,,,,
,,,,,,,,2023-08-16_08h41.31.167,HF_wild_card,2022.2.4,MacIntel,2.617801047,60d1efc9559f8afb8e315638,64d2fd46c836a06233681665,64dc7d574ff8778d6642da08,,,,,,,sngl,resources/DG.BMP,resources/Empty.png,Door2,-0.105555556,0.002083333,1,0,0,1.13,optionLeft,40,6080,3,31,0,31,0,1,,,,,,,,,,,,,,,,,,,,,,,,,,,,,,,,,,,,,,,
,,,,,,,,2023-08-16_08h41.31.167,HF_wild_card,2022.2.4,MacIntel,2.617801047,60d1efc9559f8afb8e315638,64d2fd46c836a06233681665,64dc7d574ff8778d6642da08,,,,,,,decisionTrl,resources/DB.BMP,resources/DBN.BMP,WildCard_Ex,0.25,-0.013194444,1,0,0,4.284,optionRight,5,6085,3,32,0,32,0,1,,,,,,,,,,,,,,,,,,,,,,,,,,,,,,,,,,,,,,,
,,,,,,,,2023-08-16_08h41.31.167,HF_wild_card,2022.2.4,MacIntel,2.617801047,60d1efc9559f8afb8e315638,64d2fd46c836a06233681665,64dc7d574ff8778d6642da08,,,,,,,decisionTrl,resources/DBN.BMP,resources/DG.BMP,WildCard_Ex,-0.320138889,0.040277778,1,0,0,0.931,optionLeft,5,6090,3,33,0,33,0,1,,,,,,,,,,,,,,,,,,,,,,,,,,,,,,,,,,,,,,,
,,,,,,,,2023-08-16_08h41.31.167,HF_wild_card,2022.2.4,MacIntel,2.617801047,60d1efc9559f8afb8e315638,64d2fd46c836a06233681665,64dc7d574ff8778d6642da08,,,,,,,decisionTrl,resources/DY.BMP,resources/DBN.BMP,Door4,-0.240277778,0.046527778,1,0,0,2.249,optionLeft,80,6170,3,34,0,34,0,1,,,,,,,,,,,,,,,,,,,,,,,,,,,,,,,,,,,,,,,
,,,,,,,,2023-08-16_08h41.31.167,HF_wild_card,2022.2.4,MacIntel,2.617801047,60d1efc9559f8afb8e315638,64d2fd46c836a06233681665,64dc7d574ff8778d6642da08,,,,,,,decisionTrl,resources/DR.BMP,resources/DG.BMP,Door1,-0.271527778,0.015972222,1,0,0,1.332,optionLeft,30,6200,3,35,0,35,0,1,,,,,,,,,,,,,,,,,,,,,,,,,,,,,,,,,,,,,,,
,,,,,,,,2023-08-16_08h41.31.167,HF_wild_card,2022.2.4,MacIntel,2.617801047,60d1efc9559f8afb8e315638,64d2fd46c836a06233681665,64dc7d574ff8778d6642da08,,,,,,,decisionTrl,resources/DB.BMP,resources/DY.BMP,Door4,0.302083333,-0.020138889,1,0,0,1.366,optionRight,60,6260,3,36,0,36,0,1,,,,,,,,,,,,,,,,,,,,,,,,,,,,,,,,,,,,,,,
,,,,,,,,2023-08-16_08h41.31.167,HF_wild_card,2022.2.4,MacIntel,2.617801047,60d1efc9559f8afb8e315638,64d2fd46c836a06233681665,64dc7d574ff8778d6642da08,,,,,,,decisionTrl,resources/DR.BMP,resources/DG.BMP,Door1,-0.161805556,0.021527778,1,0,0,1.95,optionLeft,30,6290,3,37,0,37,0,1,,,,,,,,,,,,,,,,,,,,,,,,,,,,,,,,,,,,,,,
,,,,,,,,2023-08-16_08h41.31.167,HF_wild_card,2022.2.4,MacIntel,2.617801047,60d1efc9559f8afb8e315638,64d2fd46c836a06233681665,64dc7d574ff8778d6642da08,,,,,,,ctch,resources/DG.BMP,resources/DB.BMP,Door3,0.275694444,0.009027778,1,0,0,1.099,optionRight,70,6360,3,38,0,38,0,1,,,,,,,,,,,,,,,,,,,,,,,,,,,,,,,,,,,,,,,
,,,,,,,,2023-08-16_08h41.31.167,HF_wild_card,2022.2.4,MacIntel,2.617801047,60d1efc9559f8afb8e315638,64d2fd46c836a06233681665,64dc7d574ff8778d6642da08,,,,,,,ctch,resources/DY.BMP,resources/DR.BMP,Door4,-0.190277778,0.008333333,1,0,0,1.166,optionLeft,60,6420,3,39,0,39,0,1,,,,,,,,,,,,,,,,,,,,,,,,,,,,,,,,,,,,,,,
,,,,,,,,2023-08-16_08h41.31.167,HF_wild_card,2022.2.4,MacIntel,2.617801047,60d1efc9559f8afb8e315638,64d2fd46c836a06233681665,64dc7d574ff8778d6642da08,,,,,,,decisionTrl,resources/DG.BMP,resources/DR.BMP,Door2,-0.4,0.022916667,1,0,0,2.25,optionLeft,40,6460,3,40,0,40,0,1,,,,,,,,,,,,,,,,,,,,,,,,,,,,,,,,,,,,,,,
,,,,,,,,2023-08-16_08h41.31.167,HF_wild_card,2022.2.4,MacIntel,2.617801047,60d1efc9559f8afb8e315638,64d2fd46c836a06233681665,64dc7d574ff8778d6642da08,,,,,,,sngl,resources/Empty.png,resources/DY.BMP,Door4,0.228472222,0.029861111,1,0,0,0.797,optionRight,60,6520,3,41,0,41,0,1,,,,,,,,,,,,,,,,,,,,,,,,,,,,,,,,,,,,,,,
,,,,,,,,2023-08-16_08h41.31.167,HF_wild_card,2022.2.4,MacIntel,2.617801047,60d1efc9559f8afb8e315638,64d2fd46c836a06233681665,64dc7d574ff8778d6642da08,,,,,,,decisionTrl,resources/DG.BMP,resources/DR.BMP,Door2,-0.247222222,-0.011111111,1,0,0,1.182,optionLeft,20,6540,3,42,0,42,0,1,,,,,,,,,,,,,,,,,,,,,,,,,,,,,,,,,,,,,,,
,,,,,,,,2023-08-16_08h41.31.167,HF_wild_card,2022.2.4,MacIntel,2.617801047,60d1efc9559f8afb8e315638,64d2fd46c836a06233681665,64dc7d574ff8778d6642da08,,,,,,,ctch,resources/DG.BMP,resources/DB.BMP,Door3,0.288194444,-0.009027778,1,0,0,0.865,optionRight,70,6610,3,43,0,43,0,1,,,,,,,,,,,,,,,,,,,,,,,,,,,,,,,,,,,,,,,
,,,,,,,,2023-08-16_08h41.31.167,HF_wild_card,2022.2.4,MacIntel,2.617801047,60d1efc9559f8afb8e315638,64d2fd46c836a06233681665,64dc7d574ff8778d6642da08,,,,,,,,,,,,,,,,,,,,,,,,,,2,0,2,0,1,,,,,,,,,,,,,,,,,,,,,,,,,,,,,,,,,,
,,,,,,,,2023-08-16_08h41.31.167,HF_wild_card,2022.2.4,MacIntel,2.617801047,60d1efc9559f8afb8e315638,64d2fd46c836a06233681665,64dc7d574ff8778d6642da08,,,,,,,ctch,resources/DR.BMP,resources/DY.BMP,Door4,0.461111111,-0.058333333,1,0,0,1.064,optionRight,60,6670,4,0,0,0,0,1,,,,,,,,,,,,,,,,,,,,,,,,,,,,,,,,,,,,,,,
,,,,,,,,2023-08-16_08h41.31.167,HF_wild_card,2022.2.4,MacIntel,2.617801047,60d1efc9559f8afb8e315638,64d2fd46c836a06233681665,64dc7d574ff8778d6642da08,,,,,,,sngl,resources/DR.BMP,resources/Empty.png,Door1,-0.231944444,0.020833333,1,0,0,0.765,optionLeft,30,6700,4,1,0,1,0,1,,,,,,,,,,,,,,,,,,,,,,,,,,,,,,,,,,,,,,,
,,,,,,,,2023-08-16_08h41.31.167,HF_wild_card,2022.2.4,MacIntel,2.617801047,60d1efc9559f8afb8e315638,64d2fd46c836a06233681665,64dc7d574ff8778d6642da08,,,,,,,decisionTrl,resources/DR.BMP,resources/DP.BMP,WildCard_NonEx,0.364583333,-0.044444444,1,0,0,1.347,optionRight,55,6755,4,2,0,2,0,1,,,,,,,,,,,,,,,,,,,,,,,,,,,,,,,,,,,,,,,
,,,,,,,,2023-08-16_08h41.31.167,HF_wild_card,2022.2.4,MacIntel,2.617801047,60d1efc9559f8afb8e315638,64d2fd46c836a06233681665,64dc7d574ff8778d6642da08,,,,,,,decisionTrl,resources/DG.BMP,resources/DR.BMP,Door2,-0.3125,0.003472222,1,0,0,3.066,optionLeft,20,6775,4,3,0,3,0,1,,,,,,,,,,,,,,,,,,,,,,,,,,,,,,,,,,,,,,,
,,,,,,,,2023-08-16_08h41.31.167,HF_wild_card,2022.2.4,MacIntel,2.617801047,60d1efc9559f8afb8e315638,64d2fd46c836a06233681665,64dc7d574ff8778d6642da08,,,,,,,sngl,resources/Empty.png,resources/DB.BMP,Door3,0.402083333,-0.0125,1,0,0,0.665,optionRight,70,6845,4,4,0,4,0,1,,,,,,,,,,,,,,,,,,,,,,,,,,,,,,,,,,,,,,,
,,,,,,,,2023-08-16_08h41.31.167,HF_wild_card,2022.2.4,MacIntel,2.617801047,60d1efc9559f8afb8e315638,64d2fd46c836a06233681665,64dc7d574ff8778d6642da08,,,,,,,sngl,resources/Empty.png,resources/DP.BMP,WildCard_NonEx,0.336111111,-0.033333333,1,0,0,0.565,optionRight,45,6890,4,5,0,5,0,1,,,,,,,,,,,,,,,,,,,,,,,,,,,,,,,,,,,,,,,
,,,,,,,,2023-08-16_08h41.31.167,HF_wild_card,2022.2.4,MacIntel,2.617801047,60d1efc9559f8afb8e315638,64d2fd46c836a06233681665,64dc7d574ff8778d6642da08,,,,,,,decisionTrl,resources/DP.BMP,resources/DY.BMP,Door4,0.41875,-0.015277778,1,0,0,1.416,optionRight,80,6970,4,6,0,6,0,1,,,,,,,,,,,,,,,,,,,,,,,,,,,,,,,,,,,,,,,
,,,,,,,,2023-08-16_08h41.31.167,HF_wild_card,2022.2.4,MacIntel,2.617801047,60d1efc9559f8afb8e315638,64d2fd46c836a06233681665,64dc7d574ff8778d6642da08,,,,,,,decisionTrl,resources/DY.BMP,resources/DB.BMP,Door4,-0.28125,0.011111111,1,0,0,1.066,optionLeft,60,7030,4,7,0,7,0,1,,,,,,,,,,,,,,,,,,,,,,,,,,,,,,,,,,,,,,,
,,,,,,,,2023-08-16_08h41.31.167,HF_wild_card,2022.2.4,MacIntel,2.617801047,60d1efc9559f8afb8e315638,64d2fd46c836a06233681665,64dc7d574ff8778d6642da08,,,,,,,sngl,resources/Empty.png,resources/DP.BMP,WildCard_NonEx,0.325,0.001388889,1,0,0,0.665,optionRight,55,7085,4,8,0,8,0,1,,,,,,,,,,,,,,,,,,,,,,,,,,,,,,,,,,,,,,,
,,,,,,,,2023-08-16_08h41.31.167,HF_wild_card,2022.2.4,MacIntel,2.617801047,60d1efc9559f8afb8e315638,64d2fd46c836a06233681665,64dc7d574ff8778d6642da08,,,,,,,ctch,resources/DB.BMP,resources/DG.BMP,Door3,-0.380555556,0.031944444,1,0,0,1.767,optionLeft,70,7155,4,9,0,9,0,1,,,,,,,,,,,,,,,,,,,,,,,,,,,,,,,,,,,,,,,
,,,,,,,,2023-08-16_08h41.31.167,HF_wild_card,2022.2.4,MacIntel,2.617801047,60d1efc9559f8afb8e315638,64d2fd46c836a06233681665,64dc7d574ff8778d6642da08,,,,,,,decisionTrl,resources/DB.BMP,resources/DP.BMP,Door3,-0.267361111,0.004166667,1,0,0,1.116,optionLeft,70,7225,4,10,0,10,0,1,,,,,,,,,,,,,,,,,,,,,,,,,,,,,,,,,,,,,,,
,,,,,,,,2023-08-16_08h41.31.167,HF_wild_card,2022.2.4,MacIntel,2.617801047,60d1efc9559f8afb8e315638,64d2fd46c836a06233681665,64dc7d574ff8778d6642da08,,,,,,,decisionTrl,resources/DY.BMP,resources/DB.BMP,Door3,0.317361111,-0.021527778,1,0,0,1.198,optionRight,70,7295,4,11,0,11,0,1,,,,,,,,,,,,,,,,,,,,,,,,,,,,,,,,,,,,,,,
,,,,,,,,2023-08-16_08h41.31.167,HF_wild_card,2022.2.4,MacIntel,2.617801047,60d1efc9559f8afb8e315638,64d2fd46c836a06233681665,64dc7d574ff8778d6642da08,,,,,,,decisionTrl,resources/DY.BMP,resources/DB.BMP,Door3,0.397222222,-0.017361111,1,0,0,0.832,optionRight,70,7365,4,12,0,12,0,1,,,,,,,,,,,,,,,,,,,,,,,,,,,,,,,,,,,,,,,
,,,,,,,,2023-08-16_08h41.31.167,HF_wild_card,2022.2.4,MacIntel,2.617801047,60d1efc9559f8afb8e315638,64d2fd46c836a06233681665,64dc7d574ff8778d6642da08,,,,,,,sngl,resources/Empty.png,resources/DG.BMP,Door2,0.20625,-0.011805556,1,0,0,0.883,optionRight,40,7405,4,13,0,13,0,1,,,,,,,,,,,,,,,,,,,,,,,,,,,,,,,,,,,,,,,
,,,,,,,,2023-08-16_08h41.31.167,HF_wild_card,2022.2.4,MacIntel,2.617801047,60d1efc9559f8afb8e315638,64d2fd46c836a06233681665,64dc7d574ff8778d6642da08,,,,,,,decisionTrl,resources/DG.BMP,resources/DP.BMP,WildCard_NonEx,0.202777778,-0.004166667,1,0,0,1.416,optionRight,45,7450,4,14,0,14,0,1,,,,,,,,,,,,,,,,,,,,,,,,,,,,,,,,,,,,,,,
,,,,,,,,2023-08-16_08h41.31.167,HF_wild_card,2022.2.4,MacIntel,2.617801047,60d1efc9559f8afb8e315638,64d2fd46c836a06233681665,64dc7d574ff8778d6642da08,,,,,,,ctch,resources/DB.BMP,resources/DG.BMP,Door3,-0.36875,0,1,0,0,1.082,optionLeft,70,7520,4,15,0,15,0,1,,,,,,,,,,,,,,,,,,,,,,,,,,,,,,,,,,,,,,,
,,,,,,,,2023-08-16_08h41.31.167,HF_wild_card,2022.2.4,MacIntel,2.617801047,60d1efc9559f8afb8e315638,64d2fd46c836a06233681665,64dc7d574ff8778d6642da08,,,,,,,sngl,resources/DY.BMP,resources/Empty.png,Door4,-0.264583333,0.000694444,1,0,0,0.765,optionLeft,60,7580,4,16,0,16,0,1,,,,,,,,,,,,,,,,,,,,,,,,,,,,,,,,,,,,,,,
,,,,,,,,2023-08-16_08h41.31.167,HF_wild_card,2022.2.4,MacIntel,2.617801047,60d1efc9559f8afb8e315638,64d2fd46c836a06233681665,64dc7d574ff8778d6642da08,,,,,,,decisionTrl,resources/DP.BMP,resources/DG.BMP,WildCard_NonEx,-0.309722222,0.022222222,1,0,0,1.515,optionLeft,45,7625,4,17,0,17,0,1,,,,,,,,,,,,,,,,,,,,,,,,,,,,,,,,,,,,,,,
,,,,,,,,2023-08-16_08h41.31.167,HF_wild_card,2022.2.4,MacIntel,2.617801047,60d1efc9559f8afb8e315638,64d2fd46c836a06233681665,64dc7d574ff8778d6642da08,,,,,,,decisionTrl,resources/DB.BMP,resources/DY.BMP,Door3,-0.301388889,-0.019444444,1,0,0,0.982,optionLeft,70,7695,4,18,0,18,0,1,,,,,,,,,,,,,,,,,,,,,,,,,,,,,,,,,,,,,,,
,,,,,,,,2023-08-16_08h41.31.167,HF_wild_card,2022.2.4,MacIntel,2.617801047,60d1efc9559f8afb8e315638,64d2fd46c836a06233681665,64dc7d574ff8778d6642da08,,,,,,,decisionTrl,resources/DP.BMP,resources/DR.BMP,WildCard_NonEx,-0.269444444,-0.003472222,1,0,0,2.517,optionLeft,45,7740,4,19,0,19,0,1,,,,,,,,,,,,,,,,,,,,,,,,,,,,,,,,,,,,,,,
,,,,,,,,2023-08-16_08h41.31.167,HF_wild_card,2022.2.4,MacIntel,2.617801047,60d1efc9559f8afb8e315638,64d2fd46c836a06233681665,64dc7d574ff8778d6642da08,,,,,,,sngl,resources/DP.BMP,resources/Empty.png,WildCard_NonEx,-0.275,0.042361111,1,0,0,0.817,optionLeft,55,7795,4,20,0,20,0,1,,,,,,,,,,,,,,,,,,,,,,,,,,,,,,,,,,,,,,,
,,,,,,,,2023-08-16_08h41.31.167,HF_wild_card,2022.2.4,MacIntel,2.617801047,60d1efc9559f8afb8e315638,64d2fd46c836a06233681665,64dc7d574ff8778d6642da08,,,,,,,decisionTrl,resources/DG.BMP,resources/DR.BMP,Door1,0.165972222,-0.021527778,1,0,0,3.652,optionRight,30,7825,4,21,0,21,0,1,,,,,,,,,,,,,,,,,,,,,,,,,,,,,,,,,,,,,,,
,,,,,,,,2023-08-16_08h41.31.167,HF_wild_card,2022.2.4,MacIntel,2.617801047,60d1efc9559f8afb8e315638,64d2fd46c836a06233681665,64dc7d574ff8778d6642da08,,,,,,,decisionTrl,resources/DB.BMP,resources/DY.BMP,Door3,-0.296527778,0.022916667,1,0,0,0.798,optionLeft,70,7895,4,22,0,22,0,1,,,,,,,,,,,,,,,,,,,,,,,,,,,,,,,,,,,,,,,
,,,,,,,,2023-08-16_08h41.31.167,HF_wild_card,2022.2.4,MacIntel,2.617801047,60d1efc9559f8afb8e315638,64d2fd46c836a06233681665,64dc7d574ff8778d6642da08,,,,,,,ctch,resources/DY.BMP,resources/DR.BMP,Door4,-0.38125,0.034027778,1,0,0,1.249,optionLeft,60,7955,4,23,0,23,0,1,,,,,,,,,,,,,,,,,,,,,,,,,,,,,,,,,,,,,,,
,,,,,,,,2023-08-16_08h41.31.167,HF_wild_card,2022.2.4,MacIntel,2.617801047,60d1efc9559f8afb8e315638,64d2fd46c836a06233681665,64dc7d574ff8778d6642da08,,,,,,,ctch,resources/DG.BMP,resources/DB.BMP,Door3,0.1875,-0.014583333,1,0,0,1.25,optionRight,70,8025,4,24,0,24,0,1,,,,,,,,,,,,,,,,,,,,,,,,,,,,,,,,,,,,,,,
,,,,,,,,2023-08-16_08h41.31.167,HF_wild_card,2022.2.4,MacIntel,2.617801047,60d1efc9559f8afb8e315638,64d2fd46c836a06233681665,64dc7d574ff8778d6642da08,,,,,,,sngl,resources/DB.BMP,resources/Empty.png,Door3,-0.231944444,0.009027778,1,0,0,0.683,optionLeft,70,8095,4,25,0,25,0,1,,,,,,,,,,,,,,,,,,,,,,,,,,,,,,,,,,,,,,,
,,,,,,,,2023-08-16_08h41.31.167,HF_wild_card,2022.2.4,MacIntel,2.617801047,60d1efc9559f8afb8e315638,64d2fd46c836a06233681665,64dc7d574ff8778d6642da08,,,,,,,decisionTrl,resources/DR.BMP,resources/DG.BMP,Door2,0.351388889,-0.004166667,1,0,0,1.665,optionRight,40,8135,4,26,0,26,0,1,,,,,,,,,,,,,,,,,,,,,,,,,,,,,,,,,,,,,,,
,,,,,,,,2023-08-16_08h41.31.167,HF_wild_card,2022.2.4,MacIntel,2.617801047,60d1efc9559f8afb8e315638,64d2fd46c836a06233681665,64dc7d574ff8778d6642da08,,,,,,,ctch,resources/DY.BMP,resources/DR.BMP,Door4,-0.283333333,0.00625,1,0,0,1.233,optionLeft,80,8215,4,27,0,27,0,1,,,,,,,,,,,,,,,,,,,,,,,,,,,,,,,,,,,,,,,
,,,,,,,,2023-08-16_08h41.31.167,HF_wild_card,2022.2.4,MacIntel,2.617801047,60d1efc9559f8afb8e315638,64d2fd46c836a06233681665,64dc7d574ff8778d6642da08,,,,,,,sngl,resources/DG.BMP,resources/Empty.png,Door2,-0.258333333,-0.035416667,1,0,0,1.014,optionLeft,20,8235,4,28,0,28,0,1,,,,,,,,,,,,,,,,,,,,,,,,,,,,,,,,,,,,,,,
,,,,,,,,2023-08-16_08h41.31.167,HF_wild_card,2022.2.4,MacIntel,2.617801047,60d1efc9559f8afb8e315638,64d2fd46c836a06233681665,64dc7d574ff8778d6642da08,,,,,,,decisionTrl,resources/DY.BMP,resources/DP.BMP,Door4,-0.207638889,-0.025,1,0,0,1.113,optionLeft,80,8315,4,29,0,29,0,1,,,,,,,,,,,,,,,,,,,,,,,,,,,,,,,,,,,,,,,
,,,,,,,,2023-08-16_08h41.31.167,HF_wild_card,2022.2.4,MacIntel,2.617801047,60d1efc9559f8afb8e315638,64d2fd46c836a06233681665,64dc7d574ff8778d6642da08,,,,,,,decisionTrl,resources/DR.BMP,resources/DG.BMP,Door1,-0.359027778,-0.002083333,1,0,0,1.365,optionLeft,30,8345,4,30,0,30,0,1,,,,,,,,,,,,,,,,,,,,,,,,,,,,,,,,,,,,,,,
,,,,,,,,2023-08-16_08h41.31.167,HF_wild_card,2022.2.4,MacIntel,2.617801047,60d1efc9559f8afb8e315638,64d2fd46c836a06233681665,64dc7d574ff8778d6642da08,,,,,,,ctch,resources/DG.BMP,resources/DB.BMP,Door3,0.398611111,-0.028472222,1,0,0,0.715,optionRight,70,8415,4,31,0,31,0,1,,,,,,,,,,,,,,,,,,,,,,,,,,,,,,,,,,,,,,,
,,,,,,,,2023-08-16_08h41.31.167,HF_wild_card,2022.2.4,MacIntel,2.617801047,60d1efc9559f8afb8e315638,64d2fd46c836a06233681665,64dc7d574ff8778d6642da08,,,,,,,decisionTrl,resources/DR.BMP,resources/DG.BMP,Door2,0.421527778,0.008333333,1,0,0,0.748,optionRight,40,8455,4,32,0,32,0,1,,,,,,,,,,,,,,,,,,,,,,,,,,,,,,,,,,,,,,,
,,,,,,,,2023-08-16_08h41.31.167,HF_wild_card,2022.2.4,MacIntel,2.617801047,60d1efc9559f8afb8e315638,64d2fd46c836a06233681665,64dc7d574ff8778d6642da08,,,,,,,sngl,resources/Empty.png,resources/DY.BMP,Door4,0.355555556,0.005555556,1,0,0,0.648,optionRight,80,8535,4,33,0,33,0,1,,,,,,,,,,,,,,,,,,,,,,,,,,,,,,,,,,,,,,,
,,,,,,,,2023-08-16_08h41.31.167,HF_wild_card,2022.2.4,MacIntel,2.617801047,60d1efc9559f8afb8e315638,64d2fd46c836a06233681665,64dc7d574ff8778d6642da08,,,,,,,decisionTrl,resources/DB.BMP,resources/DY.BMP,Door3,-0.386805556,0.009027778,1,0,0,1.75,optionLeft,70,8605,4,34,0,34,0,1,,,,,,,,,,,,,,,,,,,,,,,,,,,,,,,,,,,,,,,
,,,,,,,,2023-08-16_08h41.31.167,HF_wild_card,2022.2.4,MacIntel,2.617801047,60d1efc9559f8afb8e315638,64d2fd46c836a06233681665,64dc7d574ff8778d6642da08,,,,,,,decisionTrl,resources/DG.BMP,resources/DR.BMP,Door1,0.277083333,0.011111111,1,0,0,3.154,optionRight,30,8635,4,35,0,35,0,1,,,,,,,,,,,,,,,,,,,,,,,,,,,,,,,,,,,,,,,
,,,,,,,,2023-08-16_08h41.31.167,HF_wild_card,2022.2.4,MacIntel,2.617801047,60d1efc9559f8afb8e315638,64d2fd46c836a06233681665,64dc7d574ff8778d6642da08,,,,,,,ctch,resources/DR.BMP,resources/DY.BMP,Door4,0.522222222,-0.008333333,1,0,0,0.765,optionRight,60,8695,4,36,0,36,0,1,,,,,,,,,,,,,,,,,,,,,,,,,,,,,,,,,,,,,,,
,,,,,,,,2023-08-16_08h41.31.167,HF_wild_card,2022.2.4,MacIntel,2.617801047,60d1efc9559f8afb8e315638,64d2fd46c836a06233681665,64dc7d574ff8778d6642da08,,,,,,,sngl,resources/Empty.png,resources/DR.BMP,Door1,0.335416667,-0.017361111,1,0,0,0.781,optionRight,30,8725,4,37,0,37,0,1,,,,,,,,,,,,,,,,,,,,,,,,,,,,,,,,,,,,,,,
,,,,,,,,2023-08-16_08h41.31.167,HF_wild_card,2022.2.4,MacIntel,2.617801047,60d1efc9559f8afb8e315638,64d2fd46c836a06233681665,64dc7d574ff8778d6642da08,,,,,,,decisionTrl,resources/DB.BMP,resources/DY.BMP,Door3,-0.415972222,0.026388889,1,0,0,0.783,optionLeft,70,8795,4,38,0,38,0,1,,,,,,,,,,,,,,,,,,,,,,,,,,,,,,,,,,,,,,,
,,,,,,,,2023-08-16_08h41.31.167,HF_wild_card,2022.2.4,MacIntel,2.617801047,60d1efc9559f8afb8e315638,64d2fd46c836a06233681665,64dc7d574ff8778d6642da08,,,,,,,decisionTrl,resources/DP.BMP,resources/DB.BMP,Door3,0.324305556,-0.019444444,1,0,0,0.915,optionRight,70,8865,4,39,0,39,0,1,,,,,,,,,,,,,,,,,,,,,,,,,,,,,,,,,,,,,,,
,,,,,,,,2023-08-16_08h41.31.167,HF_wild_card,2022.2.4,MacIntel,2.617801047,60d1efc9559f8afb8e315638,64d2fd46c836a06233681665,64dc7d574ff8778d6642da08,,,,,,,decisionTrl,resources/DR.BMP,resources/DG.BMP,Door2,0.374305556,-0.002777778,1,0,0,2.55,optionRight,20,8885,4,40,0,40,0,1,,,,,,,,,,,,,,,,,,,,,,,,,,,,,,,,,,,,,,,
,,,,,,,,2023-08-16_08h41.31.167,HF_wild_card,2022.2.4,MacIntel,2.617801047,60d1efc9559f8afb8e315638,64d2fd46c836a06233681665,64dc7d574ff8778d6642da08,,,,,,,decisionTrl,resources/DG.BMP,resources/DR.BMP,Door2,-0.2625,0.006944444,1,0,0,1.4,optionLeft,40,8925,4,41,0,41,0,1,,,,,,,,,,,,,,,,,,,,,,,,,,,,,,,,,,,,,,,
,,,,,,,,2023-08-16_08h41.31.167,HF_wild_card,2022.2.4,MacIntel,2.617801047,60d1efc9559f8afb8e315638,64d2fd46c836a06233681665,64dc7d574ff8778d6642da08,,,,,,,sngl,resources/DP.BMP,resources/Empty.png,WildCard_NonEx,-0.2625,0.034722222,1,0,0,0.715,optionLeft,45,8970,4,42,0,42,0,1,,,,,,,,,,,,,,,,,,,,,,,,,,,,,,,,,,,,,,,
,,,,,,,,2023-08-16_08h41.31.167,HF_wild_card,2022.2.4,MacIntel,2.617801047,60d1efc9559f8afb8e315638,64d2fd46c836a06233681665,64dc7d574ff8778d6642da08,,,,,,,decisionTrl,resources/DY.BMP,resources/DB.BMP,Door3,0.452083333,0.000694444,1,0,0,1.083,optionRight,70,9040,4,43,0,43,0,1,,,,,,,,,,,,,,,,,,,,,,,,,,,,,,,,,,,,,,,
,,,,,,,,2023-08-16_08h41.31.167,HF_wild_card,2022.2.4,MacIntel,2.617801047,60d1efc9559f8afb8e315638,64d2fd46c836a06233681665,64dc7d574ff8778d6642da08,,,,,,,,,,,,,,,,,,,,,,,,,,3,0,3,0,1,,,,,,,,,,,,,,,,,,,,,,,,,,,,,,,,,,
,,,,,,,,2023-08-16_08h41.31.167,HF_wild_card,2022.2.4,MacIntel,2.617801047,60d1efc9559f8afb8e315638,64d2fd46c836a06233681665,64dc7d574ff8778d6642da08,,,,,,,sngl,resources/Empty.png,resources/DB.BMP,Door3,0.1375,-0.220138889,1,0,0,0.729,optionRight,70,9110,5,0,0,0,0,1,,,,,,,,,,,,,,,,,,,,,,,,,,,,,,,,,,,,,,,
,,,,,,,,2023-08-16_08h41.31.167,HF_wild_card,2022.2.4,MacIntel,2.617801047,60d1efc9559f8afb8e315638,64d2fd46c836a06233681665,64dc7d574ff8778d6642da08,,,,,,,decisionTrl,resources/DR.BMP,resources/DG.BMP,Door1,-0.386805556,0.028472222,1,0,0,6.702,optionLeft,30,9140,5,1,0,1,0,1,,,,,,,,,,,,,,,,,,,,,,,,,,,,,,,,,,,,,,,
,,,,,,,,2023-08-16_08h41.31.167,HF_wild_card,2022.2.4,MacIntel,2.617801047,60d1efc9559f8afb8e315638,64d2fd46c836a06233681665,64dc7d574ff8778d6642da08,,,,,,,decisionTrl,resources/DG.BMP,resources/DR.BMP,Door1,0.422222222,-0.0375,1,0,0,0.632,optionRight,30,9170,5,2,0,2,0,1,,,,,,,,,,,,,,,,,,,,,,,,,,,,,,,,,,,,,,,
,,,,,,,,2023-08-16_08h41.31.167,HF_wild_card,2022.2.4,MacIntel,2.617801047,60d1efc9559f8afb8e315638,64d2fd46c836a06233681665,64dc7d574ff8778d6642da08,,,,,,,decisionTrl,resources/DP.BMP,resources/DG.BMP,WildCard_NonEx,-0.211111111,-0.013888889,1,0,0,3.151,optionLeft,55,9225,5,3,0,3,0,1,,,,,,,,,,,,,,,,,,,,,,,,,,,,,,,,,,,,,,,
,,,,,,,,2023-08-16_08h41.31.167,HF_wild_card,2022.2.4,MacIntel,2.617801047,60d1efc9559f8afb8e315638,64d2fd46c836a06233681665,64dc7d574ff8778d6642da08,,,,,,,decisionTrl,resources/DY.BMP,resources/DB.BMP,Door3,0.340277778,-0.011805556,1,0,0,1.682,optionRight,70,9295,5,4,0,4,0,1,,,,,,,,,,,,,,,,,,,,,,,,,,,,,,,,,,,,,,,
,,,,,,,,2023-08-16_08h41.31.167,HF_wild_card,2022.2.4,MacIntel,2.617801047,60d1efc9559f8afb8e315638,64d2fd46c836a06233681665,64dc7d574ff8778d6642da08,,,,,,,sngl,resources/DB.BMP,resources/Empty.png,Door3,-0.248611111,0.011805556,1,0,0,0.598,optionLeft,70,9365,5,5,0,5,0,1,,,,,,,,,,,,,,,,,,,,,,,,,,,,,,,,,,,,,,,
,,,,,,,,2023-08-16_08h41.31.167,HF_wild_card,2022.2.4,MacIntel,2.617801047,60d1efc9559f8afb8e315638,64d2fd46c836a06233681665,64dc7d574ff8778d6642da08,,,,,,,decisionTrl,resources/DG.BMP,resources/DR.BMP,Door1,0.393055556,-0.002083333,1,0,0,1.131,optionRight,30,9395,5,6,0,6,0,1,,,,,,,,,,,,,,,,,,,,,,,,,,,,,,,,,,,,,,,
,,,,,,,,2023-08-16_08h41.31.167,HF_wild_card,2022.2.4,MacIntel,2.617801047,60d1efc9559f8afb8e315638,64d2fd46c836a06233681665,64dc7d574ff8778d6642da08,,,,,,,sngl,resources/Empty.png,resources/DR.BMP,Door1,0.329861111,-0.003472222,1,0,0,0.649,optionRight,30,9425,5,7,0,7,0,1,,,,,,,,,,,,,,,,,,,,,,,,,,,,,,,,,,,,,,,
,,,,,,,,2023-08-16_08h41.31.167,HF_wild_card,2022.2.4,MacIntel,2.617801047,60d1efc9559f8afb8e315638,64d2fd46c836a06233681665,64dc7d574ff8778d6642da08,,,,,,,decisionTrl,resources/DB.BMP,resources/DY.BMP,Door3,-0.197916667,-0.004166667,1,0,0,0.867,optionLeft,70,9495,5,8,0,8,0,1,,,,,,,,,,,,,,,,,,,,,,,,,,,,,,,,,,,,,,,
,,,,,,,,2023-08-16_08h41.31.167,HF_wild_card,2022.2.4,MacIntel,2.617801047,60d1efc9559f8afb8e315638,64d2fd46c836a06233681665,64dc7d574ff8778d6642da08,,,,,,,decisionTrl,resources/DY.BMP,resources/DB.BMP,Door3,0.298611111,0,1,0,0,1.033,optionRight,70,9565,5,9,0,9,0,1,,,,,,,,,,,,,,,,,,,,,,,,,,,,,,,,,,,,,,,
,,,,,,,,2023-08-16_08h41.31.167,HF_wild_card,2022.2.4,MacIntel,2.617801047,60d1efc9559f8afb8e315638,64d2fd46c836a06233681665,64dc7d574ff8778d6642da08,,,,,,,sngl,resources/Empty.png,resources/DY.BMP,Door4,0.3875,0.014583333,1,0,0,0.649,optionRight,60,9625,5,10,0,10,0,1,,,,,,,,,,,,,,,,,,,,,,,,,,,,,,,,,,,,,,,
,,,,,,,,2023-08-16_08h41.31.167,HF_wild_card,2022.2.4,MacIntel,2.617801047,60d1efc9559f8afb8e315638,64d2fd46c836a06233681665,64dc7d574ff8778d6642da08,,,,,,,decisionTrl,resources/DB.BMP,resources/DY.BMP,Door3,-0.252777778,0.044444444,1,0,0,0.666,optionLeft,70,9695,5,11,0,11,0,1,,,,,,,,,,,,,,,,,,,,,,,,,,,,,,,,,,,,,,,
,,,,,,,,2023-08-16_08h41.31.167,HF_wild_card,2022.2.4,MacIntel,2.617801047,60d1efc9559f8afb8e315638,64d2fd46c836a06233681665,64dc7d574ff8778d6642da08,,,,,,,sngl,resources/Empty.png,resources/DP.BMP,WildCard_NonEx,0.278472222,0.022222222,1,0,0,0.732,optionRight,55,9750,5,12,0,12,0,1,,,,,,,,,,,,,,,,,,,,,,,,,,,,,,,,,,,,,,,
,,,,,,,,2023-08-16_08h41.31.167,HF_wild_card,2022.2.4,MacIntel,2.617801047,60d1efc9559f8afb8e315638,64d2fd46c836a06233681665,64dc7d574ff8778d6642da08,,,,,,,decisionTrl,resources/DR.BMP,resources/DP.BMP,WildCard_NonEx,0.231944444,-0.015277778,1,0,0,1.75,optionRight,55,9805,5,13,0,13,0,1,,,,,,,,,,,,,,,,,,,,,,,,,,,,,,,,,,,,,,,
,,,,,,,,2023-08-16_08h41.31.167,HF_wild_card,2022.2.4,MacIntel,2.617801047,60d1efc9559f8afb8e315638,64d2fd46c836a06233681665,64dc7d574ff8778d6642da08,,,,,,,ctch,resources/DR.BMP,resources/DY.BMP,Door4,0.273611111,-0.006944444,1,0,0,1.032,optionRight,60,9865,5,14,0,14,0,1,,,,,,,,,,,,,,,,,,,,,,,,,,,,,,,,,,,,,,,
,,,,,,,,2023-08-16_08h41.31.167,HF_wild_card,2022.2.4,MacIntel,2.617801047,60d1efc9559f8afb8e315638,64d2fd46c836a06233681665,64dc7d574ff8778d6642da08,,,,,,,decisionTrl,resources/DB.BMP,resources/DY.BMP,Door3,-0.238888889,0.008333333,1,0,0,1.849,optionLeft,70,9935,5,15,0,15,0,1,,,,,,,,,,,,,,,,,,,,,,,,,,,,,,,,,,,,,,,
,,,,,,,,2023-08-16_08h41.31.167,HF_wild_card,2022.2.4,MacIntel,2.617801047,60d1efc9559f8afb8e315638,64d2fd46c836a06233681665,64dc7d574ff8778d6642da08,,,,,,,decisionTrl,resources/DG.BMP,resources/DR.BMP,Door2,-0.2125,-0.005555556,1,0,0,1.949,optionLeft,20,9955,5,16,0,16,0,1,,,,,,,,,,,,,,,,,,,,,,,,,,,,,,,,,,,,,,,
,,,,,,,,2023-08-16_08h41.31.167,HF_wild_card,2022.2.4,MacIntel,2.617801047,60d1efc9559f8afb8e315638,64d2fd46c836a06233681665,64dc7d574ff8778d6642da08,,,,,,,ctch,resources/DY.BMP,resources/DR.BMP,Door4,-0.227083333,-0.020833333,1,0,0,1.182,optionLeft,60,10015,5,17,0,17,0,1,,,,,,,,,,,,,,,,,,,,,,,,,,,,,,,,,,,,,,,
,,,,,,,,2023-08-16_08h41.31.167,HF_wild_card,2022.2.4,MacIntel,2.617801047,60d1efc9559f8afb8e315638,64d2fd46c836a06233681665,64dc7d574ff8778d6642da08,,,,,,,sngl,resources/DP.BMP,resources/Empty.png,WildCard_NonEx,-0.197916667,-0.00625,1,0,0,0.631,optionLeft,55,10070,5,18,0,18,0,1,,,,,,,,,,,,,,,,,,,,,,,,,,,,,,,,,,,,,,,
,,,,,,,,2023-08-16_08h41.31.167,HF_wild_card,2022.2.4,MacIntel,2.617801047,60d1efc9559f8afb8e315638,64d2fd46c836a06233681665,64dc7d574ff8778d6642da08,,,,,,,ctch,resources/DB.BMP,resources/DG.BMP,Door3,-0.197222222,-0.001388889,1,0,0,0.966,optionLeft,70,10140,5,19,0,19,0,1,,,,,,,,,,,,,,,,,,,,,,,,,,,,,,,,,,,,,,,
,,,,,,,,2023-08-16_08h41.31.167,HF_wild_card,2022.2.4,MacIntel,2.617801047,60d1efc9559f8afb8e315638,64d2fd46c836a06233681665,64dc7d574ff8778d6642da08,,,,,,,ctch,resources/DY.BMP,resources/DR.BMP,Door4,-0.189583333,-0.000694444,1,0,0,0.899,optionLeft,60,10200,5,20,0,20,0,1,,,,,,,,,,,,,,,,,,,,,,,,,,,,,,,,,,,,,,,
,,,,,,,,2023-08-16_08h41.31.167,HF_wild_card,2022.2.4,MacIntel,2.617801047,60d1efc9559f8afb8e315638,64d2fd46c836a06233681665,64dc7d574ff8778d6642da08,,,,,,,decisionTrl,resources/DY.BMP,resources/DP.BMP,Door4,-0.152777778,-0.004166667,1,0,0,0.933,optionLeft,60,10260,5,21,0,21,0,1,,,,,,,,,,,,,,,,,,,,,,,,,,,,,,,,,,,,,,,
,,,,,,,,2023-08-16_08h41.31.167,HF_wild_card,2022.2.4,MacIntel,2.617801047,60d1efc9559f8afb8e315638,64d2fd46c836a06233681665,64dc7d574ff8778d6642da08,,,,,,,decisionTrl,resources/DP.BMP,resources/DR.BMP,WildCard_NonEx,-0.16875,-0.007638889,1,0,0,0.998,optionLeft,55,10315,5,22,0,22,0,1,,,,,,,,,,,,,,,,,,,,,,,,,,,,,,,,,,,,,,,
,,,,,,,,2023-08-16_08h41.31.167,HF_wild_card,2022.2.4,MacIntel,2.617801047,60d1efc9559f8afb8e315638,64d2fd46c836a06233681665,64dc7d574ff8778d6642da08,,,,,,,decisionTrl,resources/DG.BMP,resources/DP.BMP,WildCard_NonEx,0.358333333,-0.023611111,1,0,0,1.316,optionRight,45,10360,5,23,0,23,0,1,,,,,,,,,,,,,,,,,,,,,,,,,,,,,,,,,,,,,,,
,,,,,,,,2023-08-16_08h41.31.167,HF_wild_card,2022.2.4,MacIntel,2.617801047,60d1efc9559f8afb8e315638,64d2fd46c836a06233681665,64dc7d574ff8778d6642da08,,,,,,,ctch,resources/DR.BMP,resources/DY.BMP,Door4,0.39375,-0.005555556,1,0,0,2.618,optionRight,80,10440,5,24,0,24,0,1,,,,,,,,,,,,,,,,,,,,,,,,,,,,,,,,,,,,,,,
,,,,,,,,2023-08-16_08h41.31.167,HF_wild_card,2022.2.4,MacIntel,2.617801047,60d1efc9559f8afb8e315638,64d2fd46c836a06233681665,64dc7d574ff8778d6642da08,,,,,,,ctch,resources/DG.BMP,resources/DB.BMP,Door3,0.364583333,-0.029166667,1,0,0,1.049,optionRight,70,10510,5,25,0,25,0,1,,,,,,,,,,,,,,,,,,,,,,,,,,,,,,,,,,,,,,,
,,,,,,,,2023-08-16_08h41.31.167,HF_wild_card,2022.2.4,MacIntel,2.617801047,60d1efc9559f8afb8e315638,64d2fd46c836a06233681665,64dc7d574ff8778d6642da08,,,,,,,sngl,resources/DG.BMP,resources/Empty.png,Door2,-0.228472222,0.002777778,1,0,0,0.767,optionLeft,40,10550,5,26,0,26,0,1,,,,,,,,,,,,,,,,,,,,,,,,,,,,,,,,,,,,,,,
,,,,,,,,2023-08-16_08h41.31.167,HF_wild_card,2022.2.4,MacIntel,2.617801047,60d1efc9559f8afb8e315638,64d2fd46c836a06233681665,64dc7d574ff8778d6642da08,,,,,,,sngl,resources/Empty.png,resources/DG.BMP,Door2,0.441666667,-0.023611111,1,0,0,0.898,optionRight,20,10570,5,27,0,27,0,1,,,,,,,,,,,,,,,,,,,,,,,,,,,,,,,,,,,,,,,
,,,,,,,,2023-08-16_08h41.31.167,HF_wild_card,2022.2.4,MacIntel,2.617801047,60d1efc9559f8afb8e315638,64d2fd46c836a06233681665,64dc7d574ff8778d6642da08,,,,,,,ctch,resources/DG.BMP,resources/DB.BMP,Door3,0.241666667,-0.01875,1,0,0,1.116,optionRight,70,10640,5,28,0,28,0,1,,,,,,,,,,,,,,,,,,,,,,,,,,,,,,,,,,,,,,,
,,,,,,,,2023-08-16_08h41.31.167,HF_wild_card,2022.2.4,MacIntel,2.617801047,60d1efc9559f8afb8e315638,64d2fd46c836a06233681665,64dc7d574ff8778d6642da08,,,,,,,sngl,resources/DY.BMP,resources/Empty.png,Door4,-0.182638889,0.004861111,1,0,0,0.797,optionLeft,80,10720,5,29,0,29,0,1,,,,,,,,,,,,,,,,,,,,,,,,,,,,,,,,,,,,,,,
,,,,,,,,2023-08-16_08h41.31.167,HF_wild_card,2022.2.4,MacIntel,2.617801047,60d1efc9559f8afb8e315638,64d2fd46c836a06233681665,64dc7d574ff8778d6642da08,,,,,,,decisionTrl,resources/DY.BMP,resources/DB.BMP,Door3,0.348611111,-0.020138889,1,0,0,1.916,optionRight,70,10790,5,30,0,30,0,1,,,,,,,,,,,,,,,,,,,,,,,,,,,,,,,,,,,,,,,
,,,,,,,,2023-08-16_08h41.31.167,HF_wild_card,2022.2.4,MacIntel,2.617801047,60d1efc9559f8afb8e315638,64d2fd46c836a06233681665,64dc7d574ff8778d6642da08,,,,,,,decisionTrl,resources/DR.BMP,resources/DG.BMP,Door1,-0.288194444,-0.002083333,1,0,0,3.734,optionLeft,30,10820,5,31,0,31,0,1,,,,,,,,,,,,,,,,,,,,,,,,,,,,,,,,,,,,,,,
,,,,,,,,2023-08-16_08h41.31.167,HF_wild_card,2022.2.4,MacIntel,2.617801047,60d1efc9559f8afb8e315638,64d2fd46c836a06233681665,64dc7d574ff8778d6642da08,,,,,,,ctch,resources/DB.BMP,resources/DG.BMP,Door3,-0.357638889,-0.028472222,1,0,0,1.733,optionLeft,70,10890,5,32,0,32,0,1,,,,,,,,,,,,,,,,,,,,,,,,,,,,,,,,,,,,,,,
,,,,,,,,2023-08-16_08h41.31.167,HF_wild_card,2022.2.4,MacIntel,2.617801047,60d1efc9559f8afb8e315638,64d2fd46c836a06233681665,64dc7d574ff8778d6642da08,,,,,,,decisionTrl,resources/DP.BMP,resources/DY.BMP,Door4,0.355555556,-0.008333333,1,0,0,1.099,optionRight,80,10970,5,33,0,33,0,1,,,,,,,,,,,,,,,,,,,,,,,,,,,,,,,,,,,,,,,
,,,,,,,,2023-08-16_08h41.31.167,HF_wild_card,2022.2.4,MacIntel,2.617801047,60d1efc9559f8afb8e315638,64d2fd46c836a06233681665,64dc7d574ff8778d6642da08,,,,,,,sngl,resources/Empty.png,resources/DP.BMP,WildCard_NonEx,0.310416667,-0.068055556,1,0,0,0.814,optionRight,45,11015,5,34,0,34,0,1,,,,,,,,,,,,,,,,,,,,,,,,,,,,,,,,,,,,,,,
,,,,,,,,2023-08-16_08h41.31.167,HF_wild_card,2022.2.4,MacIntel,2.617801047,60d1efc9559f8afb8e315638,64d2fd46c836a06233681665,64dc7d574ff8778d6642da08,,,,,,,sngl,resources/DP.BMP,resources/Empty.png,WildCard_NonEx,-0.167361111,-0.028472222,1,0,0,0.698,optionLeft,45,11060,5,35,0,35,0,1,,,,,,,,,,,,,,,,,,,,,,,,,,,,,,,,,,,,,,,
,,,,,,,,2023-08-16_08h41.31.167,HF_wild_card,2022.2.4,MacIntel,2.617801047,60d1efc9559f8afb8e315638,64d2fd46c836a06233681665,64dc7d574ff8778d6642da08,,,,,,,decisionTrl,resources/DB.BMP,resources/DP.BMP,Door3,-0.307638889,-0.009027778,1,0,0,0.883,optionLeft,70,11130,5,36,0,36,0,1,,,,,,,,,,,,,,,,,,,,,,,,,,,,,,,,,,,,,,,
,,,,,,,,2023-08-16_08h41.31.167,HF_wild_card,2022.2.4,MacIntel,2.617801047,60d1efc9559f8afb8e315638,64d2fd46c836a06233681665,64dc7d574ff8778d6642da08,,,,,,,sngl,resources/DR.BMP,resources/Empty.png,Door1,-0.194444444,-0.014583333,1,0,0,1.216,optionLeft,30,11160,5,37,0,37,0,1,,,,,,,,,,,,,,,,,,,,,,,,,,,,,,,,,,,,,,,
,,,,,,,,2023-08-16_08h41.31.167,HF_wild_card,2022.2.4,MacIntel,2.617801047,60d1efc9559f8afb8e315638,64d2fd46c836a06233681665,64dc7d574ff8778d6642da08,,,,,,,decisionTrl,resources/DR.BMP,resources/DG.BMP,Door2,0.258333333,-0.079861111,1,0,0,1.763,optionRight,20,11180,5,38,0,38,0,1,,,,,,,,,,,,,,,,,,,,,,,,,,,,,,,,,,,,,,,
,,,,,,,,2023-08-16_08h41.31.167,HF_wild_card,2022.2.4,MacIntel,2.617801047,60d1efc9559f8afb8e315638,64d2fd46c836a06233681665,64dc7d574ff8778d6642da08,,,,,,,decisionTrl,resources/DB.BMP,resources/DY.BMP,Door3,-0.234027778,-0.068055556,1,0,0,0.632,optionLeft,70,11250,5,39,0,39,0,1,,,,,,,,,,,,,,,,,,,,,,,,,,,,,,,,,,,,,,,
,,,,,,,,2023-08-16_08h41.31.167,HF_wild_card,2022.2.4,MacIntel,2.617801047,60d1efc9559f8afb8e315638,64d2fd46c836a06233681665,64dc7d574ff8778d6642da08,,,,,,,decisionTrl,resources/DG.BMP,resources/DR.BMP,Door1,0.222916667,-0.0625,1,0,0,1.399,optionRight,30,11280,5,40,0,40,0,1,,,,,,,,,,,,,,,,,,,,,,,,,,,,,,,,,,,,,,,
,,,,,,,,2023-08-16_08h41.31.167,HF_wild_card,2022.2.4,MacIntel,2.617801047,60d1efc9559f8afb8e315638,64d2fd46c836a06233681665,64dc7d574ff8778d6642da08,,,,,,,decisionTrl,resources/DY.BMP,resources/DB.BMP,Door3,0.270138889,-0.064583333,1,0,0,0.999,optionRight,70,11350,5,41,0,41,0,1,,,,,,,,,,,,,,,,,,,,,,,,,,,,,,,,,,,,,,,
,,,,,,,,2023-08-16_08h41.31.167,HF_wild_card,2022.2.4,MacIntel,2.617801047,60d1efc9559f8afb8e315638,64d2fd46c836a06233681665,64dc7d574ff8778d6642da08,,,,,,,decisionTrl,resources/DR.BMP,resources/DG.BMP,Door1,-0.297222222,0.014583333,1,0,0,2.383,optionLeft,30,11380,5,42,0,42,0,1,,,,,,,,,,,,,,,,,,,,,,,,,,,,,,,,,,,,,,,
,,,,,,,,2023-08-16_08h41.31.167,HF_wild_card,2022.2.4,MacIntel,2.617801047,60d1efc9559f8afb8e315638,64d2fd46c836a06233681665,64dc7d574ff8778d6642da08,,,,,,,decisionTrl,resources/DP.BMP,resources/DB.BMP,Door3,0.254861111,-0.041666667,1,0,0,1.784,optionRight,70,11450,5,43,0,43,0,1,,,,,,,,,,,,,,,,,,,,,,,,,,,,,,,,,,,,,,,
,,,,,,,,2023-08-16_08h41.31.167,HF_wild_card,2022.2.4,MacIntel,2.617801047,60d1efc9559f8afb8e315638,64d2fd46c836a06233681665,64dc7d574ff8778d6642da08,,,,,,,,,,,,,,,,,,,,,,,,,,4,0,4,0,1,,,,,,,,,,,,,,,,,,,,,,,,,,,,,,,,,,
,,,,,,,,2023-08-16_08h41.31.167,HF_wild_card,2022.2.4,MacIntel,2.617801047,60d1efc9559f8afb8e315638,64d2fd46c836a06233681665,64dc7d574ff8778d6642da08,,,,,,,decisionTrl,resources/DR.BMP,resources/DG.BMP,Door2,0.368055556,-0.055555556,1,0,0,1.145,optionRight,40,11490,6,0,0,0,0,1,,,,,,,,,,,,,,,,,,,,,,,,,,,,,,,,,,,,,,,
,,,,,,,,2023-08-16_08h41.31.167,HF_wild_card,2022.2.4,MacIntel,2.617801047,60d1efc9559f8afb8e315638,64d2fd46c836a06233681665,64dc7d574ff8778d6642da08,,,,,,,decisionTrl,resources/DY.BMP,resources/DB.BMP,Door3,0.341666667,-0.05,1,0,0,1.682,optionRight,70,11560,6,1,0,1,0,1,,,,,,,,,,,,,,,,,,,,,,,,,,,,,,,,,,,,,,,
,,,,,,,,2023-08-16_08h41.31.167,HF_wild_card,2022.2.4,MacIntel,2.617801047,60d1efc9559f8afb8e315638,64d2fd46c836a06233681665,64dc7d574ff8778d6642da08,,,,,,,sngl,resources/Empty.png,resources/DR.BMP,Door1,0.308333333,-0.031944444,1,0,0,0.682,optionRight,30,11590,6,2,0,2,0,1,,,,,,,,,,,,,,,,,,,,,,,,,,,,,,,,,,,,,,,
,,,,,,,,2023-08-16_08h41.31.167,HF_wild_card,2022.2.4,MacIntel,2.617801047,60d1efc9559f8afb8e315638,64d2fd46c836a06233681665,64dc7d574ff8778d6642da08,,,,,,,ctch,resources/DY.BMP,resources/DR.BMP,Door4,-0.261805556,-0.0125,1,0,0,1.466,optionLeft,80,11670,6,3,0,3,0,1,,,,,,,,,,,,,,,,,,,,,,,,,,,,,,,,,,,,,,,
,,,,,,,,2023-08-16_08h41.31.167,HF_wild_card,2022.2.4,MacIntel,2.617801047,60d1efc9559f8afb8e315638,64d2fd46c836a06233681665,64dc7d574ff8778d6642da08,,,,,,,decisionTrl,resources/DG.BMP,resources/DR.BMP,Door2,-0.204166667,-0.035416667,1,0,0,1.965,optionLeft,40,11710,6,4,0,4,0,1,,,,,,,,,,,,,,,,,,,,,,,,,,,,,,,,,,,,,,,
,,,,,,,,2023-08-16_08h41.31.167,HF_wild_card,2022.2.4,MacIntel,2.617801047,60d1efc9559f8afb8e315638,64d2fd46c836a06233681665,64dc7d574ff8778d6642da08,,,,,,,ctch,resources/DG.BMP,resources/DB.BMP,Door3,0.441666667,0.001388889,1,0,0,1.215,optionRight,70,11780,6,5,0,5,0,1,,,,,,,,,,,,,,,,,,,,,,,,,,,,,,,,,,,,,,,
,,,,,,,,2023-08-16_08h41.31.167,HF_wild_card,2022.2.4,MacIntel,2.617801047,60d1efc9559f8afb8e315638,64d2fd46c836a06233681665,64dc7d574ff8778d6642da08,,,,,,,sngl,resources/Empty.png,resources/DP.BMP,WildCard_NonEx,0.376388889,-0.017361111,1,0,0,0.682,optionRight,45,11825,6,6,0,6,0,1,,,,,,,,,,,,,,,,,,,,,,,,,,,,,,,,,,,,,,,
,,,,,,,,2023-08-16_08h41.31.167,HF_wild_card,2022.2.4,MacIntel,2.617801047,60d1efc9559f8afb8e315638,64d2fd46c836a06233681665,64dc7d574ff8778d6642da08,,,,,,,decisionTrl,resources/DR.BMP,resources/DP.BMP,WildCard_NonEx,0.360416667,0.009722222,1,0,0,0.878,optionRight,45,11870,6,7,0,7,0,1,,,,,,,,,,,,,,,,,,,,,,,,,,,,,,,,,,,,,,,
,,,,,,,,2023-08-16_08h41.31.167,HF_wild_card,2022.2.4,MacIntel,2.617801047,60d1efc9559f8afb8e315638,64d2fd46c836a06233681665,64dc7d574ff8778d6642da08,,,,,,,ctch,resources/DR.BMP,resources/DY.BMP,Door4,0.339583333,-0.015972222,1,0,0,0.815,optionRight,80,11950,6,8,0,8,0,1,,,,,,,,,,,,,,,,,,,,,,,,,,,,,,,,,,,,,,,
,,,,,,,,2023-08-16_08h41.31.167,HF_wild_card,2022.2.4,MacIntel,2.617801047,60d1efc9559f8afb8e315638,64d2fd46c836a06233681665,64dc7d574ff8778d6642da08,,,,,,,sngl,resources/DR.BMP,resources/Empty.png,Door1,-0.295833333,-0.001388889,1,0,0,0.799,optionLeft,30,11980,6,9,0,9,0,1,,,,,,,,,,,,,,,,,,,,,,,,,,,,,,,,,,,,,,,
,,,,,,,,2023-08-16_08h41.31.167,HF_wild_card,2022.2.4,MacIntel,2.617801047,60d1efc9559f8afb8e315638,64d2fd46c836a06233681665,64dc7d574ff8778d6642da08,,,,,,,sngl,resources/DB.BMP,resources/Empty.png,Door3,-0.177777778,0.005555556,1,0,0,0.599,optionLeft,70,12050,6,10,0,10,0,1,,,,,,,,,,,,,,,,,,,,,,,,,,,,,,,,,,,,,,,
,,,,,,,,2023-08-16_08h41.31.167,HF_wild_card,2022.2.4,MacIntel,2.617801047,60d1efc9559f8afb8e315638,64d2fd46c836a06233681665,64dc7d574ff8778d6642da08,,,,,,,sngl,resources/DG.BMP,resources/Empty.png,Door2,-0.353472222,0.00625,1,0,0,0.648,optionLeft,20,12070,6,11,0,11,0,1,,,,,,,,,,,,,,,,,,,,,,,,,,,,,,,,,,,,,,,
,,,,,,,,2023-08-16_08h41.31.167,HF_wild_card,2022.2.4,MacIntel,2.617801047,60d1efc9559f8afb8e315638,64d2fd46c836a06233681665,64dc7d574ff8778d6642da08,,,,,,,sngl,resources/DP.BMP,resources/Empty.png,WildCard_NonEx,-0.331944444,0.01875,1,0,0,0.633,optionLeft,45,12115,6,12,0,12,0,1,,,,,,,,,,,,,,,,,,,,,,,,,,,,,,,,,,,,,,,
,,,,,,,,2023-08-16_08h41.31.167,HF_wild_card,2022.2.4,MacIntel,2.617801047,60d1efc9559f8afb8e315638,64d2fd46c836a06233681665,64dc7d574ff8778d6642da08,,,,,,,decisionTrl,resources/DB.BMP,resources/DY.BMP,Door3,-0.216666667,0.047916667,1,0,0,3.818,optionLeft,70,12185,6,13,0,13,0,1,,,,,,,,,,,,,,,,,,,,,,,,,,,,,,,,,,,,,,,
,,,,,,,,2023-08-16_08h41.31.167,HF_wild_card,2022.2.4,MacIntel,2.617801047,60d1efc9559f8afb8e315638,64d2fd46c836a06233681665,64dc7d574ff8778d6642da08,,,,,,,decisionTrl,resources/DY.BMP,resources/DB.BMP,Door3,0.452083333,0.007638889,1,0,0,0.615,optionRight,70,12255,6,14,0,14,0,1,,,,,,,,,,,,,,,,,,,,,,,,,,,,,,,,,,,,,,,
,,,,,,,,2023-08-16_08h41.31.167,HF_wild_card,2022.2.4,MacIntel,2.617801047,60d1efc9559f8afb8e315638,64d2fd46c836a06233681665,64dc7d574ff8778d6642da08,,,,,,,ctch,resources/DR.BMP,resources/DY.BMP,Door4,0.484722222,0.016666667,1,0,0,1.165,optionRight,60,12315,6,15,0,15,0,1,,,,,,,,,,,,,,,,,,,,,,,,,,,,,,,,,,,,,,,
,,,,,,,,2023-08-16_08h41.31.167,HF_wild_card,2022.2.4,MacIntel,2.617801047,60d1efc9559f8afb8e315638,64d2fd46c836a06233681665,64dc7d574ff8778d6642da08,,,,,,,ctch,resources/DY.BMP,resources/DR.BMP,Door4,-0.266666667,0.059027778,1,0,0,0.967,optionLeft,80,12395,6,16,0,16,0,1,,,,,,,,,,,,,,,,,,,,,,,,,,,,,,,,,,,,,,,
,,,,,,,,2023-08-16_08h41.31.167,HF_wild_card,2022.2.4,MacIntel,2.617801047,60d1efc9559f8afb8e315638,64d2fd46c836a06233681665,64dc7d574ff8778d6642da08,,,,,,,decisionTrl,resources/DG.BMP,resources/DR.BMP,Door2,-0.294444444,0.029166667,1,0,0,1.7,optionLeft,40,12435,6,17,0,17,0,1,,,,,,,,,,,,,,,,,,,,,,,,,,,,,,,,,,,,,,,
,,,,,,,,2023-08-16_08h41.31.167,HF_wild_card,2022.2.4,MacIntel,2.617801047,60d1efc9559f8afb8e315638,64d2fd46c836a06233681665,64dc7d574ff8778d6642da08,,,,,,,decisionTrl,resources/DR.BMP,resources/DG.BMP,Door2,0.420833333,0.026388889,1,0,0,0.683,optionRight,20,12455,6,18,0,18,0,1,,,,,,,,,,,,,,,,,,,,,,,,,,,,,,,,,,,,,,,
,,,,,,,,2023-08-16_08h41.31.167,HF_wild_card,2022.2.4,MacIntel,2.617801047,60d1efc9559f8afb8e315638,64d2fd46c836a06233681665,64dc7d574ff8778d6642da08,,,,,,,sngl,resources/Empty.png,resources/DG.BMP,Door2,0.332638889,0.024305556,1,0,0,0.666,optionRight,40,12495,6,19,0,19,0,1,,,,,,,,,,,,,,,,,,,,,,,,,,,,,,,,,,,,,,,
,,,,,,,,2023-08-16_08h41.31.167,HF_wild_card,2022.2.4,MacIntel,2.617801047,60d1efc9559f8afb8e315638,64d2fd46c836a06233681665,64dc7d574ff8778d6642da08,,,,,,,decisionTrl,resources/DB.BMP,resources/DY.BMP,Door3,-0.152777778,0.120138889,1,0,0,0.748,optionLeft,70,12565,6,20,0,20,0,1,,,,,,,,,,,,,,,,,,,,,,,,,,,,,,,,,,,,,,,
,,,,,,,,2023-08-16_08h41.31.167,HF_wild_card,2022.2.4,MacIntel,2.617801047,60d1efc9559f8afb8e315638,64d2fd46c836a06233681665,64dc7d574ff8778d6642da08,,,,,,,decisionTrl,resources/DP.BMP,resources/DY.BMP,Door4,0.308333333,0.070138889,1,0,0,1.082,optionRight,60,12625,6,21,0,21,0,1,,,,,,,,,,,,,,,,,,,,,,,,,,,,,,,,,,,,,,,
,,,,,,,,2023-08-16_08h41.31.167,HF_wild_card,2022.2.4,MacIntel,2.617801047,60d1efc9559f8afb8e315638,64d2fd46c836a06233681665,64dc7d574ff8778d6642da08,,,,,,,decisionTrl,resources/DR.BMP,resources/DG.BMP,Door1,-0.252083333,0.090277778,1,0,0,2.516,optionLeft,30,12655,6,22,0,22,0,1,,,,,,,,,,,,,,,,,,,,,,,,,,,,,,,,,,,,,,,
,,,,,,,,2023-08-16_08h41.31.167,HF_wild_card,2022.2.4,MacIntel,2.617801047,60d1efc9559f8afb8e315638,64d2fd46c836a06233681665,64dc7d574ff8778d6642da08,,,,,,,decisionTrl,resources/DY.BMP,resources/DP.BMP,Door4,-0.3,0.065972222,1,0,0,1.2,optionLeft,60,12715,6,23,0,23,0,1,,,,,,,,,,,,,,,,,,,,,,,,,,,,,,,,,,,,,,,
,,,,,,,,2023-08-16_08h41.31.167,HF_wild_card,2022.2.4,MacIntel,2.617801047,60d1efc9559f8afb8e315638,64d2fd46c836a06233681665,64dc7d574ff8778d6642da08,,,,,,,decisionTrl,resources/DY.BMP,resources/DB.BMP,Door3,0.343055556,0.013194444,1,0,0,1.548,optionRight,70,12785,6,24,0,24,0,1,,,,,,,,,,,,,,,,,,,,,,,,,,,,,,,,,,,,,,,
,,,,,,,,2023-08-16_08h41.31.167,HF_wild_card,2022.2.4,MacIntel,2.617801047,60d1efc9559f8afb8e315638,64d2fd46c836a06233681665,64dc7d574ff8778d6642da08,,,,,,,decisionTrl,resources/DG.BMP,resources/DR.BMP,Door2,-0.327777778,0.045833333,1,0,0,2.3,optionLeft,40,12825,6,25,0,25,0,1,,,,,,,,,,,,,,,,,,,,,,,,,,,,,,,,,,,,,,,
,,,,,,,,2023-08-16_08h41.31.167,HF_wild_card,2022.2.4,MacIntel,2.617801047,60d1efc9559f8afb8e315638,64d2fd46c836a06233681665,64dc7d574ff8778d6642da08,,,,,,,sngl,resources/DP.BMP,resources/Empty.png,WildCard_NonEx,-0.256944444,0.095138889,1,0,0,0.682,optionLeft,55,12880,6,26,0,26,0,1,,,,,,,,,,,,,,,,,,,,,,,,,,,,,,,,,,,,,,,
,,,,,,,,2023-08-16_08h41.31.167,HF_wild_card,2022.2.4,MacIntel,2.617801047,60d1efc9559f8afb8e315638,64d2fd46c836a06233681665,64dc7d574ff8778d6642da08,,,,,,,ctch,resources/DB.BMP,resources/DG.BMP,Door3,-0.383333333,0.043055556,1,0,0,0.866,optionLeft,70,12950,6,27,0,27,0,1,,,,,,,,,,,,,,,,,,,,,,,,,,,,,,,,,,,,,,,
,,,,,,,,2023-08-16_08h41.31.167,HF_wild_card,2022.2.4,MacIntel,2.617801047,60d1efc9559f8afb8e315638,64d2fd46c836a06233681665,64dc7d574ff8778d6642da08,,,,,,,decisionTrl,resources/DG.BMP,resources/DR.BMP,Door2,-0.171527778,0.009722222,1,0,0,1.799,optionLeft,40,12990,6,28,0,28,0,1,,,,,,,,,,,,,,,,,,,,,,,,,,,,,,,,,,,,,,,
,,,,,,,,2023-08-16_08h41.31.167,HF_wild_card,2022.2.4,MacIntel,2.617801047,60d1efc9559f8afb8e315638,64d2fd46c836a06233681665,64dc7d574ff8778d6642da08,,,,,,,decisionTrl,resources/DB.BMP,resources/DY.BMP,Door3,-0.240277778,-0.008333333,1,0,0,0.914,optionLeft,70,13060,6,29,0,29,0,1,,,,,,,,,,,,,,,,,,,,,,,,,,,,,,,,,,,,,,,
,,,,,,,,2023-08-16_08h41.31.167,HF_wild_card,2022.2.4,MacIntel,2.617801047,60d1efc9559f8afb8e315638,64d2fd46c836a06233681665,64dc7d574ff8778d6642da08,,,,,,,decisionTrl,resources/DB.BMP,resources/DP.BMP,Door3,-0.284027778,0.008333333,1,0,0,1.25,optionLeft,70,13130,6,30,0,30,0,1,,,,,,,,,,,,,,,,,,,,,,,,,,,,,,,,,,,,,,,
,,,,,,,,2023-08-16_08h41.31.167,HF_wild_card,2022.2.4,MacIntel,2.617801047,60d1efc9559f8afb8e315638,64d2fd46c836a06233681665,64dc7d574ff8778d6642da08,,,,,,,decisionTrl,resources/DP.BMP,resources/DB.BMP,Door3,0.426388889,-0.00625,1,0,0,0.698,optionRight,70,13200,6,31,0,31,0,1,,,,,,,,,,,,,,,,,,,,,,,,,,,,,,,,,,,,,,,
,,,,,,,,2023-08-16_08h41.31.167,HF_wild_card,2022.2.4,MacIntel,2.617801047,60d1efc9559f8afb8e315638,64d2fd46c836a06233681665,64dc7d574ff8778d6642da08,,,,,,,decisionTrl,resources/DY.BMP,resources/DB.BMP,Door3,0.392361111,-0.039583333,1,0,0,0.865,optionRight,70,13270,6,32,0,32,0,1,,,,,,,,,,,,,,,,,,,,,,,,,,,,,,,,,,,,,,,
,,,,,,,,2023-08-16_08h41.31.167,HF_wild_card,2022.2.4,MacIntel,2.617801047,60d1efc9559f8afb8e315638,64d2fd46c836a06233681665,64dc7d574ff8778d6642da08,,,,,,,ctch,resources/DB.BMP,resources/DG.BMP,Door3,-0.329166667,-0.0125,1,0,0,0.616,optionLeft,70,13340,6,33,0,33,0,1,,,,,,,,,,,,,,,,,,,,,,,,,,,,,,,,,,,,,,,
,,,,,,,,2023-08-16_08h41.31.167,HF_wild_card,2022.2.4,MacIntel,2.617801047,60d1efc9559f8afb8e315638,64d2fd46c836a06233681665,64dc7d574ff8778d6642da08,,,,,,,sngl,resources/Empty.png,resources/DP.BMP,WildCard_NonEx,0.411805556,-0.029166667,1,0,0,0.714,optionRight,55,13395,6,34,0,34,0,1,,,,,,,,,,,,,,,,,,,,,,,,,,,,,,,,,,,,,,,
,,,,,,,,2023-08-16_08h41.31.167,HF_wild_card,2022.2.4,MacIntel,2.617801047,60d1efc9559f8afb8e315638,64d2fd46c836a06233681665,64dc7d574ff8778d6642da08,,,,,,,decisionTrl,resources/DP.BMP,resources/DG.BMP,WildCard_NonEx,-0.345138889,0.047916667,1,0,0,1.349,optionLeft,55,13450,6,35,0,35,0,1,,,,,,,,,,,,,,,,,,,,,,,,,,,,,,,,,,,,,,,
,,,,,,,,2023-08-16_08h41.31.167,HF_wild_card,2022.2.4,MacIntel,2.617801047,60d1efc9559f8afb8e315638,64d2fd46c836a06233681665,64dc7d574ff8778d6642da08,,,,,,,decisionTrl,resources/DP.BMP,resources/DR.BMP,WildCard_NonEx,-0.329166667,0.052083333,1,0,0,0.599,optionLeft,45,13495,6,36,0,36,0,1,,,,,,,,,,,,,,,,,,,,,,,,,,,,,,,,,,,,,,,
,,,,,,,,2023-08-16_08h41.31.167,HF_wild_card,2022.2.4,MacIntel,2.617801047,60d1efc9559f8afb8e315638,64d2fd46c836a06233681665,64dc7d574ff8778d6642da08,,,,,,,decisionTrl,resources/DB.BMP,resources/DY.BMP,Door3,-0.222222222,0.015277778,1,0,0,1.183,optionLeft,70,13565,6,37,0,37,0,1,,,,,,,,,,,,,,,,,,,,,,,,,,,,,,,,,,,,,,,
,,,,,,,,2023-08-16_08h41.31.167,HF_wild_card,2022.2.4,MacIntel,2.617801047,60d1efc9559f8afb8e315638,64d2fd46c836a06233681665,64dc7d574ff8778d6642da08,,,,,,,sngl,resources/Empty.png,resources/DB.BMP,Door3,0.360416667,0.009027778,1,0,0,0.548,optionRight,70,13635,6,38,0,38,0,1,,,,,,,,,,,,,,,,,,,,,,,,,,,,,,,,,,,,,,,
,,,,,,,,2023-08-16_08h41.31.167,HF_wild_card,2022.2.4,MacIntel,2.617801047,60d1efc9559f8afb8e315638,64d2fd46c836a06233681665,64dc7d574ff8778d6642da08,,,,,,,sngl,resources/Empty.png,resources/DY.BMP,Door4,0.26875,0.011805556,1,0,0,0.583,optionRight,80,13715,6,39,0,39,0,1,,,,,,,,,,,,,,,,,,,,,,,,,,,,,,,,,,,,,,,
,,,,,,,,2023-08-16_08h41.31.167,HF_wild_card,2022.2.4,MacIntel,2.617801047,60d1efc9559f8afb8e315638,64d2fd46c836a06233681665,64dc7d574ff8778d6642da08,,,,,,,decisionTrl,resources/DG.BMP,resources/DP.BMP,WildCard_NonEx,0.215972222,0.01875,1,0,0,1.499,optionRight,45,13760,6,40,0,40,0,1,,,,,,,,,,,,,,,,,,,,,,,,,,,,,,,,,,,,,,,
,,,,,,,,2023-08-16_08h41.31.167,HF_wild_card,2022.2.4,MacIntel,2.617801047,60d1efc9559f8afb8e315638,64d2fd46c836a06233681665,64dc7d574ff8778d6642da08,,,,,,,decisionTrl,resources/DR.BMP,resources/DG.BMP,Door2,0.136111111,-0.015277778,1,0,0,2.867,optionRight,20,13780,6,41,0,41,0,1,,,,,,,,,,,,,,,,,,,,,,,,,,,,,,,,,,,,,,,
,,,,,,,,2023-08-16_08h41.31.167,HF_wild_card,2022.2.4,MacIntel,2.617801047,60d1efc9559f8afb8e315638,64d2fd46c836a06233681665,64dc7d574ff8778d6642da08,,,,,,,sngl,resources/DY.BMP,resources/Empty.png,Door4,-0.253472222,0.022222222,1,0,0,0.766,optionLeft,60,13840,6,42,0,42,0,1,,,,,,,,,,,,,,,,,,,,,,,,,,,,,,,,,,,,,,,
,,,,,,,,2023-08-16_08h41.31.167,HF_wild_card,2022.2.4,MacIntel,2.617801047,60d1efc9559f8afb8e315638,64d2fd46c836a06233681665,64dc7d574ff8778d6642da08,,,,,,,ctch,resources/DG.BMP,resources/DB.BMP,Door3,0.214583333,-0.001388889,1,0,0,1.649,optionRight,70,13910,6,43,0,43,0,1,,,,,,,,,,,,,,,,,,,,,,,,,,,,,,,,,,,,,,,
,,,,,,,,2023-08-16_08h41.31.167,HF_wild_card,2022.2.4,MacIntel,2.617801047,60d1efc9559f8afb8e315638,64d2fd46c836a06233681665,64dc7d574ff8778d6642da08,,,,,,,,,,,,,,,,,,,,,,,,,,5,0,5,0,1,,,,,,,,,,,,,,,,,,,,,,,,,,,,,,,,,,
,,,,,,,,2023-08-16_08h41.31.167,HF_wild_card,2022.2.4,MacIntel,2.617801047,60d1efc9559f8afb8e315638,64d2fd46c836a06233681665,64dc7d574ff8778d6642da08,,,,,,,ctch,resources/DG.BMP,resources/DB.BMP,Door3,0.330555556,0.056944444,1,0,0,0.795,optionRight,70,13980,7,0,0,0,0,1,,,,,,,,,,,,,,,,,,,,,,,,,,,,,,,,,,,,,,,
,,,,,,,,2023-08-16_08h41.31.167,HF_wild_card,2022.2.4,MacIntel,2.617801047,60d1efc9559f8afb8e315638,64d2fd46c836a06233681665,64dc7d574ff8778d6642da08,,,,,,,decisionTrl,resources/DY.BMP,resources/DB.BMP,Door3,0.301388889,0.025694444,1,0,0,0.966,optionRight,70,14050,7,1,0,1,0,1,,,,,,,,,,,,,,,,,,,,,,,,,,,,,,,,,,,,,,,
,,,,,,,,2023-08-16_08h41.31.167,HF_wild_card,2022.2.4,MacIntel,2.617801047,60d1efc9559f8afb8e315638,64d2fd46c836a06233681665,64dc7d574ff8778d6642da08,,,,,,,decisionTrl,resources/DR.BMP,resources/DG.BMP,Door1,-0.257638889,0.136111111,1,0,0,2.235,optionLeft,30,14080,7,2,0,2,0,1,,,,,,,,,,,,,,,,,,,,,,,,,,,,,,,,,,,,,,,
,,,,,,,,2023-08-16_08h41.31.167,HF_wild_card,2022.2.4,MacIntel,2.617801047,60d1efc9559f8afb8e315638,64d2fd46c836a06233681665,64dc7d574ff8778d6642da08,,,,,,,decisionTrl,resources/DY.BMP,resources/DB.BMP,Door3,0.215972222,0.046527778,1,0,0,0.999,optionRight,70,14150,7,3,0,3,0,1,,,,,,,,,,,,,,,,,,,,,,,,,,,,,,,,,,,,,,,
,,,,,,,,2023-08-16_08h41.31.167,HF_wild_card,2022.2.4,MacIntel,2.617801047,60d1efc9559f8afb8e315638,64d2fd46c836a06233681665,64dc7d574ff8778d6642da08,,,,,,,decisionTrl,resources/DR.BMP,resources/DG.BMP,Door1,-0.352777778,0.052777778,1,0,0,1.584,optionLeft,30,14180,7,4,0,4,0,1,,,,,,,,,,,,,,,,,,,,,,,,,,,,,,,,,,,,,,,
,,,,,,,,2023-08-16_08h41.31.167,HF_wild_card,2022.2.4,MacIntel,2.617801047,60d1efc9559f8afb8e315638,64d2fd46c836a06233681665,64dc7d574ff8778d6642da08,,,,,,,decisionTrl,resources/DB.BMP,resources/DY.BMP,Door3,-0.305555556,-0.000694444,1,0,0,1.049,optionLeft,70,14250,7,5,0,5,0,1,,,,,,,,,,,,,,,,,,,,,,,,,,,,,,,,,,,,,,,
,,,,,,,,2023-08-16_08h41.31.167,HF_wild_card,2022.2.4,MacIntel,2.617801047,60d1efc9559f8afb8e315638,64d2fd46c836a06233681665,64dc7d574ff8778d6642da08,,,,,,,ctch,resources/DR.BMP,resources/DY.BMP,Door4,0.320138889,0.025694444,1,0,0,1.217,optionRight,80,14330,7,6,0,6,0,1,,,,,,,,,,,,,,,,,,,,,,,,,,,,,,,,,,,,,,,
,,,,,,,,2023-08-16_08h41.31.167,HF_wild_card,2022.2.4,MacIntel,2.617801047,60d1efc9559f8afb8e315638,64d2fd46c836a06233681665,64dc7d574ff8778d6642da08,,,,,,,decisionTrl,resources/DB.BMP,resources/DY.BMP,Door3,-0.372222222,0.065277778,1,0,0,1.234,optionLeft,70,14400,7,7,0,7,0,1,,,,,,,,,,,,,,,,,,,,,,,,,,,,,,,,,,,,,,,
,,,,,,,,2023-08-16_08h41.31.167,HF_wild_card,2022.2.4,MacIntel,2.617801047,60d1efc9559f8afb8e315638,64d2fd46c836a06233681665,64dc7d574ff8778d6642da08,,,,,,,ctch,resources/DR.BMP,resources/DY.BMP,Door4,0.398611111,0.019444444,1,0,0,1.015,optionRight,80,14480,7,8,0,8,0,1,,,,,,,,,,,,,,,,,,,,,,,,,,,,,,,,,,,,,,,
,,,,,,,,2023-08-16_08h41.31.167,HF_wild_card,2022.2.4,MacIntel,2.617801047,60d1efc9559f8afb8e315638,64d2fd46c836a06233681665,64dc7d574ff8778d6642da08,,,,,,,decisionTrl,resources/DB.BMP,resources/DY.BMP,Door3,-0.133333333,0.009722222,1,0,0,1.685,optionLeft,70,14550,7,9,0,9,0,1,,,,,,,,,,,,,,,,,,,,,,,,,,,,,,,,,,,,,,,
,,,,,,,,2023-08-16_08h41.31.167,HF_wild_card,2022.2.4,MacIntel,2.617801047,60d1efc9559f8afb8e315638,64d2fd46c836a06233681665,64dc7d574ff8778d6642da08,,,,,,,ctch,resources/DY.BMP,resources/DR.BMP,Door4,-0.244444444,0.079166667,1,0,0,1.249,optionLeft,80,14630,7,10,0,10,0,1,,,,,,,,,,,,,,,,,,,,,,,,,,,,,,,,,,,,,,,
,,,,,,,,2023-08-16_08h41.31.167,HF_wild_card,2022.2.4,MacIntel,2.617801047,60d1efc9559f8afb8e315638,64d2fd46c836a06233681665,64dc7d574ff8778d6642da08,,,,,,,ctch,resources/DR.BMP,resources/DY.BMP,Door4,0.29375,0.035416667,1,0,0,0.849,optionRight,80,14710,7,11,0,11,0,1,,,,,,,,,,,,,,,,,,,,,,,,,,,,,,,,,,,,,,,
,,,,,,,,2023-08-16_08h41.31.167,HF_wild_card,2022.2.4,MacIntel,2.617801047,60d1efc9559f8afb8e315638,64d2fd46c836a06233681665,64dc7d574ff8778d6642da08,,,,,,,decisionTrl,resources/DG.BMP,resources/DR.BMP,Door2,-0.2,0.051388889,1,0,0,5.921,optionLeft,40,14750,7,12,0,12,0,1,,,,,,,,,,,,,,,,,,,,,,,,,,,,,,,,,,,,,,,
,,,,,,,,2023-08-16_08h41.31.167,HF_wild_card,2022.2.4,MacIntel,2.617801047,60d1efc9559f8afb8e315638,64d2fd46c836a06233681665,64dc7d574ff8778d6642da08,,,,,,,decisionTrl,resources/DY.BMP,resources/DB.BMP,Door3,0.265277778,0.055555556,1,0,0,1.433,optionRight,70,14820,7,13,0,13,0,1,,,,,,,,,,,,,,,,,,,,,,,,,,,,,,,,,,,,,,,
,,,,,,,,2023-08-16_08h41.31.167,HF_wild_card,2022.2.4,MacIntel,2.617801047,60d1efc9559f8afb8e315638,64d2fd46c836a06233681665,64dc7d574ff8778d6642da08,,,,,,,decisionTrl,resources/DY.BMP,resources/DB.BMP,Door3,0.256944444,0.058333333,1,0,0,0.616,optionRight,70,14890,7,14,0,14,0,1,,,,,,,,,,,,,,,,,,,,,,,,,,,,,,,,,,,,,,,
,,,,,,,,2023-08-16_08h41.31.167,HF_wild_card,2022.2.4,MacIntel,2.617801047,60d1efc9559f8afb8e315638,64d2fd46c836a06233681665,64dc7d574ff8778d6642da08,,,,,,,decisionTrl,resources/DB.BMP,resources/DY.BMP,Door3,-0.359027778,0.109027778,1,0,0,0.95,optionLeft,70,14960,7,15,0,15,0,1,,,,,,,,,,,,,,,,,,,,,,,,,,,,,,,,,,,,,,,
,,,,,,,,2023-08-16_08h41.31.167,HF_wild_card,2022.2.4,MacIntel,2.617801047,60d1efc9559f8afb8e315638,64d2fd46c836a06233681665,64dc7d574ff8778d6642da08,,,,,,,ctch,resources/DB.BMP,resources/DG.BMP,Door3,-0.192361111,0.065972222,1,0,0,0.8,optionLeft,70,15030,7,16,0,16,0,1,,,,,,,,,,,,,,,,,,,,,,,,,,,,,,,,,,,,,,,
,,,,,,,,2023-08-16_08h41.31.167,HF_wild_card,2022.2.4,MacIntel,2.617801047,60d1efc9559f8afb8e315638,64d2fd46c836a06233681665,64dc7d574ff8778d6642da08,,,,,,,decisionTrl,resources/DR.BMP,resources/DG.BMP,Door1,-0.221527778,0.054166667,1,0,0,1.418,optionLeft,30,15060,7,17,0,17,0,1,,,,,,,,,,,,,,,,,,,,,,,,,,,,,,,,,,,,,,,
,,,,,,,,2023-08-16_08h41.31.167,HF_wild_card,2022.2.4,MacIntel,2.617801047,60d1efc9559f8afb8e315638,64d2fd46c836a06233681665,64dc7d574ff8778d6642da08,,,,,,,decisionTrl,resources/DY.BMP,resources/DB.BMP,Door3,0.2375,0.05625,1,0,0,0.967,optionRight,70,15130,7,18,0,18,0,1,,,,,,,,,,,,,,,,,,,,,,,,,,,,,,,,,,,,,,,
,,,,,,,,2023-08-16_08h41.31.167,HF_wild_card,2022.2.4,MacIntel,2.617801047,60d1efc9559f8afb8e315638,64d2fd46c836a06233681665,64dc7d574ff8778d6642da08,,,,,,,ctch,resources/DB.BMP,resources/DG.BMP,Door3,-0.3,0.135416667,1,0,0,0.983,optionLeft,70,15200,7,19,0,19,0,1,,,,,,,,,,,,,,,,,,,,,,,,,,,,,,,,,,,,,,,
,,,,,,,,2023-08-16_08h41.31.167,HF_wild_card,2022.2.4,MacIntel,2.617801047,60d1efc9559f8afb8e315638,64d2fd46c836a06233681665,64dc7d574ff8778d6642da08,,,,,,,decisionTrl,resources/DR.BMP,resources/DG.BMP,Door1,-0.246527778,0.080555556,1,0,0,1.201,optionLeft,30,15230,7,20,0,20,0,1,,,,,,,,,,,,,,,,,,,,,,,,,,,,,,,,,,,,,,,
,,,,,,,,2023-08-16_08h41.31.167,HF_wild_card,2022.2.4,MacIntel,2.617801047,60d1efc9559f8afb8e315638,64d2fd46c836a06233681665,64dc7d574ff8778d6642da08,,,,,,,decisionTrl,resources/DR.BMP,resources/DG.BMP,Door1,-0.260416667,0.09375,1,0,0,0.65,optionLeft,30,15260,7,21,0,21,0,1,,,,,,,,,,,,,,,,,,,,,,,,,,,,,,,,,,,,,,,
,,,,,,,,2023-08-16_08h41.31.167,HF_wild_card,2022.2.4,MacIntel,2.617801047,60d1efc9559f8afb8e315638,64d2fd46c836a06233681665,64dc7d574ff8778d6642da08,,,,,,,decisionTrl,resources/DR.BMP,resources/DG.BMP,Door1,-0.200694444,0.048611111,1,0,0,0.8,optionLeft,30,15290,7,22,0,22,0,1,,,,,,,,,,,,,,,,,,,,,,,,,,,,,,,,,,,,,,,
,,,,,,,,2023-08-16_08h41.31.167,HF_wild_card,2022.2.4,MacIntel,2.617801047,60d1efc9559f8afb8e315638,64d2fd46c836a06233681665,64dc7d574ff8778d6642da08,,,,,,,decisionTrl,resources/DB.BMP,resources/DY.BMP,Door3,-0.168055556,0.025694444,1,0,0,1.534,optionLeft,70,15360,7,23,0,23,0,1,,,,,,,,,,,,,,,,,,,,,,,,,,,,,,,,,,,,,,,
,,,,,,,,2023-08-16_08h41.31.167,HF_wild_card,2022.2.4,MacIntel,2.617801047,60d1efc9559f8afb8e315638,64d2fd46c836a06233681665,64dc7d574ff8778d6642da08,,,,,,,decisionTrl,resources/DG.BMP,resources/DR.BMP,Door1,0.147222222,0.051388889,1,0,0,2.535,optionRight,30,15390,7,24,0,24,0,1,,,,,,,,,,,,,,,,,,,,,,,,,,,,,,,,,,,,,,,
,,,,,,,,2023-08-16_08h41.31.167,HF_wild_card,2022.2.4,MacIntel,2.617801047,60d1efc9559f8afb8e315638,64d2fd46c836a06233681665,64dc7d574ff8778d6642da08,,,,,,,decisionTrl,resources/DG.BMP,resources/DR.BMP,Door1,0.227777778,0.007638889,1,0,0,0.767,optionRight,30,15420,7,25,0,25,0,1,,,,,,,,,,,,,,,,,,,,,,,,,,,,,,,,,,,,,,,
,,,,,,,,2023-08-16_08h41.31.167,HF_wild_card,2022.2.4,MacIntel,2.617801047,60d1efc9559f8afb8e315638,64d2fd46c836a06233681665,64dc7d574ff8778d6642da08,,,,,,,decisionTrl,resources/DB.BMP,resources/DY.BMP,Door3,-0.26875,0.019444444,1,0,0,1.149,optionLeft,70,15490,7,26,0,26,0,1,,,,,,,,,,,,,,,,,,,,,,,,,,,,,,,,,,,,,,,
,,,,,,,,2023-08-16_08h41.31.167,HF_wild_card,2022.2.4,MacIntel,2.617801047,60d1efc9559f8afb8e315638,64d2fd46c836a06233681665,64dc7d574ff8778d6642da08,,,,,,,decisionTrl,resources/DG.BMP,resources/DR.BMP,Door1,0.275,0.0375,1,0,0,1.584,optionRight,30,15520,7,27,0,27,0,1,,,,,,,,,,,,,,,,,,,,,,,,,,,,,,,,,,,,,,,
,,,,,,,,2023-08-16_08h41.31.167,HF_wild_card,2022.2.4,MacIntel,2.617801047,60d1efc9559f8afb8e315638,64d2fd46c836a06233681665,64dc7d574ff8778d6642da08,,,,,,,decisionTrl,resources/DY.BMP,resources/DB.BMP,Door3,0.373611111,0.020138889,1,0,0,1.066,optionRight,70,15590,7,28,0,28,0,1,,,,,,,,,,,,,,,,,,,,,,,,,,,,,,,,,,,,,,,
,,,,,,,,2023-08-16_08h41.31.167,HF_wild_card,2022.2.4,MacIntel,2.617801047,60d1efc9559f8afb8e315638,64d2fd46c836a06233681665,64dc7d574ff8778d6642da08,,,,,,,ctch,resources/DY.BMP,resources/DR.BMP,Door4,-0.152083333,0.011111111,1,0,0,1.368,optionLeft,60,15650,7,29,0,29,0,1,,,,,,,,,,,,,,,,,,,,,,,,,,,,,,,,,,,,,,,
,,,,,,,,2023-08-16_08h41.31.167,HF_wild_card,2022.2.4,MacIntel,2.617801047,60d1efc9559f8afb8e315638,64d2fd46c836a06233681665,64dc7d574ff8778d6642da08,,,,,,,ctch,resources/DG.BMP,resources/DB.BMP,Door3,0.295138889,0.020138889,1,0,0,0.868,optionRight,70,15720,7,30,0,30,0,1,,,,,,,,,,,,,,,,,,,,,,,,,,,,,,,,,,,,,,,
,,,,,,,,2023-08-16_08h41.31.167,HF_wild_card,2022.2.4,MacIntel,2.617801047,60d1efc9559f8afb8e315638,64d2fd46c836a06233681665,64dc7d574ff8778d6642da08,,,,,,,decisionTrl,resources/DG.BMP,resources/DR.BMP,Door1,0.19375,-0.000694444,1,0,0,1.517,optionRight,30,15750,7,31,0,31,0,1,,,,,,,,,,,,,,,,,,,,,,,,,,,,,,,,,,,,,,,
,,,,,,,,2023-08-16_08h41.31.167,HF_wild_card,2022.2.4,MacIntel,2.617801047,60d1efc9559f8afb8e315638,64d2fd46c836a06233681665,64dc7d574ff8778d6642da08,,,,,,,ctch,resources/DY.BMP,resources/DR.BMP,Door4,-0.286111111,-0.008333333,1,0,0,1.002,optionLeft,80,15830,7,32,0,32,0,1,,,,,,,,,,,,,,,,,,,,,,,,,,,,,,,,,,,,,,,
,,,,,,,,2023-08-16_08h41.31.167,HF_wild_card,2022.2.4,MacIntel,2.617801047,60d1efc9559f8afb8e315638,64d2fd46c836a06233681665,64dc7d574ff8778d6642da08,,,,,,,decisionTrl,resources/DG.BMP,resources/DR.BMP,Door1,0.213888889,-0.019444444,1,0,0,1.501,optionRight,30,15860,7,33,0,33,0,1,,,,,,,,,,,,,,,,,,,,,,,,,,,,,,,,,,,,,,,
,,,,,,,,2023-08-16_08h41.31.167,HF_wild_card,2022.2.4,MacIntel,2.617801047,60d1efc9559f8afb8e315638,64d2fd46c836a06233681665,64dc7d574ff8778d6642da08,,,,,,,ctch,resources/DB.BMP,resources/DG.BMP,Door3,-0.320138889,-0.009722222,1,0,0,1.118,optionLeft,70,15930,7,34,0,34,0,1,,,,,,,,,,,,,,,,,,,,,,,,,,,,,,,,,,,,,,,
,,,,,,,,2023-08-16_08h41.31.167,HF_wild_card,2022.2.4,MacIntel,2.617801047,60d1efc9559f8afb8e315638,64d2fd46c836a06233681665,64dc7d574ff8778d6642da08,,,,,,,ctch,resources/DG.BMP,resources/DB.BMP,Door3,0.190277778,0.022916667,1,0,0,0.9,optionRight,70,16000,7,35,0,35,0,1,,,,,,,,,,,,,,,,,,,,,,,,,,,,,,,,,,,,,,,
,,,,,,,,2023-08-16_08h41.31.167,HF_wild_card,2022.2.4,MacIntel,2.617801047,60d1efc9559f8afb8e315638,64d2fd46c836a06233681665,64dc7d574ff8778d6642da08,,,,,,,,,,,,,,,,,,,,,,,,,,6,0,6,0,1,,,,,,,,,,,,,,,,,,,,,,,,,,,,,,,,,,
,,,,,,,,2023-08-16_08h41.31.167,HF_wild_card,2022.2.4,MacIntel,2.617801047,60d1efc9559f8afb8e315638,64d2fd46c836a06233681665,64dc7d574ff8778d6642da08,,,,,,,,,,,,,,,,,,,,,,,,,,,,,,,4,,,,,,,,,,,,,,,,,,,,,,,,,,,,,,,,,
,,,,,,,,2023-08-16_08h41.31.167,HF_wild_card,2022.2.4,MacIntel,2.617801047,60d1efc9559f8afb8e315638,64d2fd46c836a06233681665,64dc7d574ff8778d6642da08,,,,,,,,,,,,,,,,,,,,,,,,,,,,,,,,,,,,,,,,,,,,,,,,,,,,,,,,,,,,,,,,
,,,,,,,,2023-08-16_08h41.31.167,HF_wild_card,2022.2.4,MacIntel,2.617801047,60d1efc9559f8afb8e315638,64d2fd46c836a06233681665,64dc7d574ff8778d6642da08,,,,,,,,,,,,,,,,,,,,,,,,,,,,,,,,55,WC_nonExtreme,resources/DP.BMP,0,0,0,0,1,,,,,,,,,,,,,,,,,,,,,,,,,
,,,,,,,,2023-08-16_08h41.31.167,HF_wild_card,2022.2.4,MacIntel,2.617801047,60d1efc9559f8afb8e315638,64d2fd46c836a06233681665,64dc7d574ff8778d6642da08,,,,,,,,,,,,,,,,,,,,,,,,,,,,,,,,70,Door3,resources/DB.BMP,1,0,1,0,1,,,,,,,,,,,,,,,,,,,,,,,,,
,,,,,,,,2023-08-16_08h41.31.167,HF_wild_card,2022.2.4,MacIntel,2.617801047,60d1efc9559f8afb8e315638,64d2fd46c836a06233681665,64dc7d574ff8778d6642da08,,,,,,,,,,,,,,,,,,,,,,,,,,,,,,,,30,Door1,resources/DR.BMP,2,0,2,0,1,,,,,,,,,,,,,,,,,,,,,,,,,
,,,,,,,,2023-08-16_08h41.31.167,HF_wild_card,2022.2.4,MacIntel,2.617801047,60d1efc9559f8afb8e315638,64d2fd46c836a06233681665,64dc7d574ff8778d6642da08,,,,,,,,,,,,,,,,,,,,,,,,,,,,,,,,20,Door2,resources/DG.BMP,3,0,3,0,1,,,,,,,,,,,,,,,,,,,,,,,,,
,,,,,,,,2023-08-16_08h41.31.167,HF_wild_card,2022.2.4,MacIntel,2.617801047,60d1efc9559f8afb8e315638,64d2fd46c836a06233681665,64dc7d574ff8778d6642da08,,,,,,,,,,,,,,,,,,,,,,,,,,,,,,,,95,WC_extreme,resources/DBN.BMP,4,0,4,0,1,,,,,,,,,,,,,,,,,,,,,,,,,
,,,,,,,,2023-08-16_08h41.31.167,HF_wild_card,2022.2.4,MacIntel,2.617801047,60d1efc9559f8afb8e315638,64d2fd46c836a06233681665,64dc7d574ff8778d6642da08,,,,,,,,,,,,,,,,,,,,,,,,,,,,,,,,60,Door4,resources/DY.BMP,5,0,5,0,1,,,,,,,,,,,,,,,,,,,,,,,,,
