Condition,Low fixed image (Door1),Low risky image (Door2),High fixed image (Door3),High risky image (Door4),Extreme Wild Card,NonExtreme Wild Card,,date,expName,psychopyVersion,OS,frameRate,PROLIFIC_PID,STUDY_ID,SESSION_ID,mouse_2.x,mouse_2.y,mouse_2.leftButton,mouse_2.midButton,mouse_2.rightButton,mouse_2.clicked_name,Trial Type,Left Option Image,Right Option Image,Chosen Door,mouse.x,mouse.y,mouse.leftButton,mouse.midButton,mouse.rightButton,mouse.time,mouse.clicked_name,Feedback,Cumulative Reward,Block,trial.thisRepN,trial.thisTrialN,trial.thisN,trial.thisIndex,trial.ran,blocks.thisRepN,blocks.thisTrialN,blocks.thisN,blocks.thisIndex,blocks.ran,Money conversion,First Outcome Reported,Shown Door (First Outcome),Displayed Image (First Outcome),outcomes.thisRepN,outcomes.thisTrialN,outcomes.thisN,outcomes.thisIndex,outcomes.ran,judgments.thisRepN,judgments.thisTrialN,judgments.thisN,judgments.thisIndex,judgments.ran,freqMouse.x,freqMouse.y,freqMouse.leftButton,freqMouse.midButton,freqMouse.rightButton,freqMouse.clicked_name,FQJ for first outcome,FQJ for second outcome,Shown Door,Displayed Image,trials.thisRepN,trials.thisTrialN,trials.thisN,trials.thisIndex,trials.ran,judgBlock.thisRepN,judgBlock.thisTrialN,judgBlock.thisN,judgBlock.thisIndex,judgBlock.ran
0,resources/DG.BMP,resources/DBN.BMP,resources/DR.BMP,resources/DY.BMP,resources/DP.BMP,resources/DB.BMP,,2023-08-16_08h54.43.681,HF_wild_card,2022.2.4,Win32,59.94485074,63f8b081b083f1e1014cb21a,64d2fd46c836a06233681665,64dc7efc02f60401466f0a71,,,,,,,,,,,,,,,,,,,,,,,,,,,,,,,,,,,,,,,,,,,,,,,,,,,,,,,,,,,,,,,,
,,,,,,,,2023-08-16_08h54.43.681,HF_wild_card,2022.2.4,Win32,59.94485074,63f8b081b083f1e1014cb21a,64d2fd46c836a06233681665,64dc7efc02f60401466f0a71,0.006481524,-0.412037037,1,0,0,agree,,,,,,,,,,,,,,,,,,,,,,,,,,,,,,,,,,,,,,,,,,,,,,,,,,,,,,,,,,
,,,,,,,,2023-08-16_08h54.43.681,HF_wild_card,2022.2.4,Win32,59.94485074,63f8b081b083f1e1014cb21a,64d2fd46c836a06233681665,64dc7efc02f60401466f0a71,,,,,,,,,,,,,,,,,,,,,,,,,,,,,,,,,,,,,,,,,,,,,,,,,,,,,,,,,,,,,,,,
,,,,,,,,2023-08-16_08h54.43.681,HF_wild_card,2022.2.4,Win32,59.94485074,63f8b081b083f1e1014cb21a,64d2fd46c836a06233681665,64dc7efc02f60401466f0a71,,,,,,,sngl,resources/DP.BMP,resources/Empty.png,WildCard_Ex,-0.178703661,-0.158333319,1,0,0,4.1604,optionLeft,5,5,1,0,0,0,0,1,,,,,,,,,,,,,,,,,,,,,,,,,,,,,,,,,,,,,,,
,,,,,,,,2023-08-16_08h54.43.681,HF_wild_card,2022.2.4,Win32,59.94485074,63f8b081b083f1e1014cb21a,64d2fd46c836a06233681665,64dc7efc02f60401466f0a71,,,,,,,ctch,resources/DG.BMP,resources/DY.BMP,Door4,0.417592649,-0.018518519,1,0,0,2.8472,optionRight,80,85,1,1,0,1,0,1,,,,,,,,,,,,,,,,,,,,,,,,,,,,,,,,,,,,,,,
,,,,,,,,2023-08-16_08h54.43.681,HF_wild_card,2022.2.4,Win32,59.94485074,63f8b081b083f1e1014cb21a,64d2fd46c836a06233681665,64dc7efc02f60401466f0a71,,,,,,,sngl,resources/Empty.png,resources/DP.BMP,WildCard_Ex,0.310185185,-0.029629637,1,0,0,1.3817,optionRight,5,90,1,2,0,2,0,1,,,,,,,,,,,,,,,,,,,,,,,,,,,,,,,,,,,,,,,
,,,,,,,,2023-08-16_08h54.43.681,HF_wild_card,2022.2.4,Win32,59.94485074,63f8b081b083f1e1014cb21a,64d2fd46c836a06233681665,64dc7efc02f60401466f0a71,,,,,,,decisionTrl,resources/DY.BMP,resources/DR.BMP,Door4,-0.347222222,-0.025000007,1,0,0,3.0004,optionLeft,60,150,1,3,0,3,0,1,,,,,,,,,,,,,,,,,,,,,,,,,,,,,,,,,,,,,,,
,,,,,,,,2023-08-16_08h54.43.681,HF_wild_card,2022.2.4,Win32,59.94485074,63f8b081b083f1e1014cb21a,64d2fd46c836a06233681665,64dc7efc02f60401466f0a71,,,,,,,decisionTrl,resources/DP.BMP,resources/DG.BMP,Door1,0.339814787,-0.005555577,1,0,0,3.1138,optionRight,30,180,1,4,0,4,0,1,,,,,,,,,,,,,,,,,,,,,,,,,,,,,,,,,,,,,,,
,,,,,,,,2023-08-16_08h54.43.681,HF_wild_card,2022.2.4,Win32,59.94485074,63f8b081b083f1e1014cb21a,64d2fd46c836a06233681665,64dc7efc02f60401466f0a71,,,,,,,decisionTrl,resources/DG.BMP,resources/DP.BMP,WildCard_Ex,0.53333339,-0.08425928,1,0,0,1.268,optionRight,95,275,1,5,0,5,0,1,,,,,,,,,,,,,,,,,,,,,,,,,,,,,,,,,,,,,,,
,,,,,,,,2023-08-16_08h54.43.681,HF_wild_card,2022.2.4,Win32,59.94485074,63f8b081b083f1e1014cb21a,64d2fd46c836a06233681665,64dc7efc02f60401466f0a71,,,,,,,decisionTrl,resources/DR.BMP,resources/DY.BMP,Door4,0.434259344,-0.062037044,1,0,0,0.965,optionRight,60,335,1,6,0,6,0,1,,,,,,,,,,,,,,,,,,,,,,,,,,,,,,,,,,,,,,,
,,,,,,,,2023-08-16_08h54.43.681,HF_wild_card,2022.2.4,Win32,59.94485074,63f8b081b083f1e1014cb21a,64d2fd46c836a06233681665,64dc7efc02f60401466f0a71,,,,,,,decisionTrl,resources/DR.BMP,resources/DY.BMP,Door3,-0.368518511,-0.0074074,1,0,0,0.8308,optionLeft,70,405,1,7,0,7,0,1,,,,,,,,,,,,,,,,,,,,,,,,,,,,,,,,,,,,,,,
,,,,,,,,2023-08-16_08h54.43.681,HF_wild_card,2022.2.4,Win32,59.94485074,63f8b081b083f1e1014cb21a,64d2fd46c836a06233681665,64dc7efc02f60401466f0a71,,,,,,,decisionTrl,resources/DG.BMP,resources/DBN.BMP,Door1,-0.212962963,0.01203703,1,0,0,1.9653,optionLeft,30,435,1,8,0,8,0,1,,,,,,,,,,,,,,,,,,,,,,,,,,,,,,,,,,,,,,,
,,,,,,,,2023-08-16_08h54.43.681,HF_wild_card,2022.2.4,Win32,59.94485074,63f8b081b083f1e1014cb21a,64d2fd46c836a06233681665,64dc7efc02f60401466f0a71,,,,,,,ctch,resources/DY.BMP,resources/DG.BMP,Door4,-0.366666653,-0.020370377,1,0,0,1.0321,optionLeft,60,495,1,9,0,9,0,1,,,,,,,,,,,,,,,,,,,,,,,,,,,,,,,,,,,,,,,
,,,,,,,,2023-08-16_08h54.43.681,HF_wild_card,2022.2.4,Win32,59.94485074,63f8b081b083f1e1014cb21a,64d2fd46c836a06233681665,64dc7efc02f60401466f0a71,,,,,,,sngl,resources/DY.BMP,resources/Empty.png,Door4,-0.223148134,0.025000007,1,0,0,0.8978,optionLeft,80,575,1,10,0,10,0,1,,,,,,,,,,,,,,,,,,,,,,,,,,,,,,,,,,,,,,,
,,,,,,,,2023-08-16_08h54.43.681,HF_wild_card,2022.2.4,Win32,59.94485074,63f8b081b083f1e1014cb21a,64d2fd46c836a06233681665,64dc7efc02f60401466f0a71,,,,,,,ctch,resources/DR.BMP,resources/DBN.BMP,Door3,-0.410185178,-0.048148155,1,0,0,1.2521,optionLeft,70,645,1,11,0,11,0,1,,,,,,,,,,,,,,,,,,,,,,,,,,,,,,,,,,,,,,,
,,,,,,,,2023-08-16_08h54.43.681,HF_wild_card,2022.2.4,Win32,59.94485074,63f8b081b083f1e1014cb21a,64d2fd46c836a06233681665,64dc7efc02f60401466f0a71,,,,,,,sngl,resources/Empty.png,resources/DBN.BMP,Door2,0.45648151,-0.032407407,1,0,0,1.0282,optionRight,20,665,1,12,0,12,0,1,,,,,,,,,,,,,,,,,,,,,,,,,,,,,,,,,,,,,,,
,,,,,,,,2023-08-16_08h54.43.681,HF_wild_card,2022.2.4,Win32,59.94485074,63f8b081b083f1e1014cb21a,64d2fd46c836a06233681665,64dc7efc02f60401466f0a71,,,,,,,decisionTrl,resources/DY.BMP,resources/DR.BMP,Door4,-0.376851859,0.049074067,1,0,0,1.3484,optionLeft,60,725,1,13,0,13,0,1,,,,,,,,,,,,,,,,,,,,,,,,,,,,,,,,,,,,,,,
,,,,,,,,2023-08-16_08h54.43.681,HF_wild_card,2022.2.4,Win32,59.94485074,63f8b081b083f1e1014cb21a,64d2fd46c836a06233681665,64dc7efc02f60401466f0a71,,,,,,,decisionTrl,resources/DBN.BMP,resources/DG.BMP,Door2,-0.330555563,0.035185178,1,0,0,1.4619,optionLeft,20,745,1,14,0,14,0,1,,,,,,,,,,,,,,,,,,,,,,,,,,,,,,,,,,,,,,,
,,,,,,,,2023-08-16_08h54.43.681,HF_wild_card,2022.2.4,Win32,59.94485074,63f8b081b083f1e1014cb21a,64d2fd46c836a06233681665,64dc7efc02f60401466f0a71,,,,,,,ctch,resources/DY.BMP,resources/DG.BMP,Door4,-0.117592564,-0.01203703,1,0,0,0.8336,optionLeft,80,825,1,15,0,15,0,1,,,,,,,,,,,,,,,,,,,,,,,,,,,,,,,,,,,,,,,
,,,,,,,,2023-08-16_08h54.43.681,HF_wild_card,2022.2.4,Win32,59.94485074,63f8b081b083f1e1014cb21a,64d2fd46c836a06233681665,64dc7efc02f60401466f0a71,,,,,,,decisionTrl,resources/DR.BMP,resources/DY.BMP,Door4,0.37962963,-0.035185178,1,0,0,0.9312,optionRight,80,905,1,16,0,16,0,1,,,,,,,,,,,,,,,,,,,,,,,,,,,,,,,,,,,,,,,
,,,,,,,,2023-08-16_08h54.43.681,HF_wild_card,2022.2.4,Win32,59.94485074,63f8b081b083f1e1014cb21a,64d2fd46c836a06233681665,64dc7efc02f60401466f0a71,,,,,,,ctch,resources/DBN.BMP,resources/DR.BMP,Door3,0.367592564,-0.037037037,1,0,0,1.3654,optionRight,70,975,1,17,0,17,0,1,,,,,,,,,,,,,,,,,,,,,,,,,,,,,,,,,,,,,,,
,,,,,,,,2023-08-16_08h54.43.681,HF_wild_card,2022.2.4,Win32,59.94485074,63f8b081b083f1e1014cb21a,64d2fd46c836a06233681665,64dc7efc02f60401466f0a71,,,,,,,sngl,resources/DP.BMP,resources/Empty.png,WildCard_Ex,-0.389814801,-0.019444466,1,0,0,0.8994,optionLeft,95,1070,1,18,0,18,0,1,,,,,,,,,,,,,,,,,,,,,,,,,,,,,,,,,,,,,,,
,,,,,,,,2023-08-16_08h54.43.681,HF_wild_card,2022.2.4,Win32,59.94485074,63f8b081b083f1e1014cb21a,64d2fd46c836a06233681665,64dc7efc02f60401466f0a71,,,,,,,decisionTrl,resources/DG.BMP,resources/DBN.BMP,Door1,-0.154629601,-0.003703718,1,0,0,1.884,optionLeft,30,1100,1,19,0,19,0,1,,,,,,,,,,,,,,,,,,,,,,,,,,,,,,,,,,,,,,,
,,,,,,,,2023-08-16_08h54.43.681,HF_wild_card,2022.2.4,Win32,59.94485074,63f8b081b083f1e1014cb21a,64d2fd46c836a06233681665,64dc7efc02f60401466f0a71,,,,,,,sngl,resources/DG.BMP,resources/Empty.png,Door1,-0.232407393,-0.012962977,1,0,0,0.7693,optionLeft,30,1130,1,20,0,20,0,1,,,,,,,,,,,,,,,,,,,,,,,,,,,,,,,,,,,,,,,
,,,,,,,,2023-08-16_08h54.43.681,HF_wild_card,2022.2.4,Win32,59.94485074,63f8b081b083f1e1014cb21a,64d2fd46c836a06233681665,64dc7efc02f60401466f0a71,,,,,,,decisionTrl,resources/DY.BMP,resources/DR.BMP,Door4,-0.27407406,0.030555548,1,0,0,1.1474,optionLeft,60,1190,1,21,0,21,0,1,,,,,,,,,,,,,,,,,,,,,,,,,,,,,,,,,,,,,,,
,,,,,,,,2023-08-16_08h54.43.681,HF_wild_card,2022.2.4,Win32,59.94485074,63f8b081b083f1e1014cb21a,64d2fd46c836a06233681665,64dc7efc02f60401466f0a71,,,,,,,sngl,resources/DBN.BMP,resources/Empty.png,Door2,0.573148233,0.021296289,1,0,0,1.2106,optionLeft,40,1230,1,22,0,22,0,1,,,,,,,,,,,,,,,,,,,,,,,,,,,,,,,,,,,,,,,
,,,,,,,,2023-08-16_08h54.43.681,HF_wild_card,2022.2.4,Win32,59.94485074,63f8b081b083f1e1014cb21a,64d2fd46c836a06233681665,64dc7efc02f60401466f0a71,,,,,,,sngl,resources/Empty.png,resources/DY.BMP,Door4,0.389814871,0.018518519,1,0,0,1.1498,optionRight,60,1290,1,23,0,23,0,1,,,,,,,,,,,,,,,,,,,,,,,,,,,,,,,,,,,,,,,
,,,,,,,,2023-08-16_08h54.43.681,HF_wild_card,2022.2.4,Win32,59.94485074,63f8b081b083f1e1014cb21a,64d2fd46c836a06233681665,64dc7efc02f60401466f0a71,,,,,,,sngl,resources/Empty.png,resources/DG.BMP,Door1,0.425000085,0.033333319,1,0,0,2.4627,optionRight,30,1320,1,24,0,24,0,1,,,,,,,,,,,,,,,,,,,,,,,,,,,,,,,,,,,,,,,
,,,,,,,,2023-08-16_08h54.43.681,HF_wild_card,2022.2.4,Win32,59.94485074,63f8b081b083f1e1014cb21a,64d2fd46c836a06233681665,64dc7efc02f60401466f0a71,,,,,,,decisionTrl,resources/DR.BMP,resources/DY.BMP,Door4,0.291666667,0.001851859,1,0,0,0.9813,optionRight,80,1400,1,25,0,25,0,1,,,,,,,,,,,,,,,,,,,,,,,,,,,,,,,,,,,,,,,
,,,,,,,,2023-08-16_08h54.43.681,HF_wild_card,2022.2.4,Win32,59.94485074,63f8b081b083f1e1014cb21a,64d2fd46c836a06233681665,64dc7efc02f60401466f0a71,,,,,,,decisionTrl,resources/DBN.BMP,resources/DG.BMP,Door2,-0.402777778,0.193518497,1,0,0,1.3323,optionLeft,20,1420,1,26,0,26,0,1,,,,,,,,,,,,,,,,,,,,,,,,,,,,,,,,,,,,,,,
,,,,,,,,2023-08-16_08h54.43.681,HF_wild_card,2022.2.4,Win32,59.94485074,63f8b081b083f1e1014cb21a,64d2fd46c836a06233681665,64dc7efc02f60401466f0a71,,,,,,,decisionTrl,resources/DBN.BMP,resources/DG.BMP,Door1,0.325925898,0.012962942,1,0,0,5.8319,optionRight,30,1450,1,27,0,27,0,1,,,,,,,,,,,,,,,,,,,,,,,,,,,,,,,,,,,,,,,
,,,,,,,,2023-08-16_08h54.43.681,HF_wild_card,2022.2.4,Win32,59.94485074,63f8b081b083f1e1014cb21a,64d2fd46c836a06233681665,64dc7efc02f60401466f0a71,,,,,,,sngl,resources/DR.BMP,resources/Empty.png,Door3,-0.38703703,-0.027777778,1,0,0,0.9322,optionLeft,70,1520,1,28,0,28,0,1,,,,,,,,,,,,,,,,,,,,,,,,,,,,,,,,,,,,,,,
,,,,,,,,2023-08-16_08h54.43.681,HF_wild_card,2022.2.4,Win32,59.94485074,63f8b081b083f1e1014cb21a,64d2fd46c836a06233681665,64dc7efc02f60401466f0a71,,,,,,,ctch,resources/DG.BMP,resources/DY.BMP,Door4,0.377777806,-0.005555577,1,0,0,0.8151,optionRight,60,1580,1,29,0,29,0,1,,,,,,,,,,,,,,,,,,,,,,,,,,,,,,,,,,,,,,,
,,,,,,,,2023-08-16_08h54.43.681,HF_wild_card,2022.2.4,Win32,59.94485074,63f8b081b083f1e1014cb21a,64d2fd46c836a06233681665,64dc7efc02f60401466f0a71,,,,,,,decisionTrl,resources/DP.BMP,resources/DR.BMP,WildCard_Ex,-0.349074081,-0.003703718,1,0,0,2.4294,optionLeft,5,1585,1,30,0,30,0,1,,,,,,,,,,,,,,,,,,,,,,,,,,,,,,,,,,,,,,,
,,,,,,,,2023-08-16_08h54.43.681,HF_wild_card,2022.2.4,Win32,59.94485074,63f8b081b083f1e1014cb21a,64d2fd46c836a06233681665,64dc7efc02f60401466f0a71,,,,,,,decisionTrl,resources/DG.BMP,resources/DBN.BMP,Door1,-0.363888882,0.078703704,1,0,0,1.1647,optionLeft,30,1615,1,31,0,31,0,1,,,,,,,,,,,,,,,,,,,,,,,,,,,,,,,,,,,,,,,
,,,,,,,,2023-08-16_08h54.43.681,HF_wild_card,2022.2.4,Win32,59.94485074,63f8b081b083f1e1014cb21a,64d2fd46c836a06233681665,64dc7efc02f60401466f0a71,,,,,,,decisionTrl,resources/DP.BMP,resources/DBN.BMP,WildCard_Ex,-0.330555563,-0.020370377,1,0,0,1.4156,optionLeft,5,1620,1,32,0,32,0,1,,,,,,,,,,,,,,,,,,,,,,,,,,,,,,,,,,,,,,,
,,,,,,,,2023-08-16_08h54.43.681,HF_wild_card,2022.2.4,Win32,59.94485074,63f8b081b083f1e1014cb21a,64d2fd46c836a06233681665,64dc7efc02f60401466f0a71,,,,,,,decisionTrl,resources/DG.BMP,resources/DBN.BMP,Door1,-0.337962963,0.006481489,1,0,0,1.2278,optionLeft,30,1650,1,33,0,33,0,1,,,,,,,,,,,,,,,,,,,,,,,,,,,,,,,,,,,,,,,
,,,,,,,,2023-08-16_08h54.43.681,HF_wild_card,2022.2.4,Win32,59.94485074,63f8b081b083f1e1014cb21a,64d2fd46c836a06233681665,64dc7efc02f60401466f0a71,,,,,,,decisionTrl,resources/DBN.BMP,resources/DG.BMP,Door1,0.357407464,-0.005555577,1,0,0,1.019,optionRight,30,1680,1,34,0,34,0,1,,,,,,,,,,,,,,,,,,,,,,,,,,,,,,,,,,,,,,,
,,,,,,,,2023-08-16_08h54.43.681,HF_wild_card,2022.2.4,Win32,59.94485074,63f8b081b083f1e1014cb21a,64d2fd46c836a06233681665,64dc7efc02f60401466f0a71,,,,,,,decisionTrl,resources/DY.BMP,resources/DR.BMP,Door4,-0.465740734,-0.003703718,1,0,0,0.8477,optionLeft,80,1760,1,35,0,35,0,1,,,,,,,,,,,,,,,,,,,,,,,,,,,,,,,,,,,,,,,
,,,,,,,,2023-08-16_08h54.43.681,HF_wild_card,2022.2.4,Win32,59.94485074,63f8b081b083f1e1014cb21a,64d2fd46c836a06233681665,64dc7efc02f60401466f0a71,,,,,,,sngl,resources/Empty.png,resources/DR.BMP,Door3,0.290740755,-0.062037044,1,0,0,0.832,optionRight,70,1830,1,36,0,36,0,1,,,,,,,,,,,,,,,,,,,,,,,,,,,,,,,,,,,,,,,
,,,,,,,,2023-08-16_08h54.43.681,HF_wild_card,2022.2.4,Win32,59.94485074,63f8b081b083f1e1014cb21a,64d2fd46c836a06233681665,64dc7efc02f60401466f0a71,,,,,,,decisionTrl,resources/DR.BMP,resources/DP.BMP,Door3,-0.336111104,0.01666666,1,0,0,1.2648,optionLeft,70,1900,1,37,0,37,0,1,,,,,,,,,,,,,,,,,,,,,,,,,,,,,,,,,,,,,,,
,,,,,,,,2023-08-16_08h54.43.681,HF_wild_card,2022.2.4,Win32,59.94485074,63f8b081b083f1e1014cb21a,64d2fd46c836a06233681665,64dc7efc02f60401466f0a71,,,,,,,ctch,resources/DR.BMP,resources/DBN.BMP,Door3,-0.448148127,0.008333312,1,0,0,0.9148,optionLeft,70,1970,1,38,0,38,0,1,,,,,,,,,,,,,,,,,,,,,,,,,,,,,,,,,,,,,,,
,,,,,,,,2023-08-16_08h54.43.681,HF_wild_card,2022.2.4,Win32,59.94485074,63f8b081b083f1e1014cb21a,64d2fd46c836a06233681665,64dc7efc02f60401466f0a71,,,,,,,sngl,resources/Empty.png,resources/DP.BMP,WildCard_Ex,0.380555612,-0.020370377,1,0,0,0.9291,optionRight,95,2065,1,39,0,39,0,1,,,,,,,,,,,,,,,,,,,,,,,,,,,,,,,,,,,,,,,
,,,,,,,,2023-08-16_08h54.43.681,HF_wild_card,2022.2.4,Win32,59.94485074,63f8b081b083f1e1014cb21a,64d2fd46c836a06233681665,64dc7efc02f60401466f0a71,,,,,,,ctch,resources/DBN.BMP,resources/DR.BMP,Door3,0.390740712,-0.072222215,1,0,0,1.2483,optionRight,70,2135,1,40,0,40,0,1,,,,,,,,,,,,,,,,,,,,,,,,,,,,,,,,,,,,,,,
,,,,,,,,2023-08-16_08h54.43.681,HF_wild_card,2022.2.4,Win32,59.94485074,63f8b081b083f1e1014cb21a,64d2fd46c836a06233681665,64dc7efc02f60401466f0a71,,,,,,,decisionTrl,resources/DY.BMP,resources/DP.BMP,WildCard_Ex,0.35555564,-0.080555563,1,0,0,1.6113,optionRight,5,2140,1,41,0,41,0,1,,,,,,,,,,,,,,,,,,,,,,,,,,,,,,,,,,,,,,,
,,,,,,,,2023-08-16_08h54.43.681,HF_wild_card,2022.2.4,Win32,59.94485074,63f8b081b083f1e1014cb21a,64d2fd46c836a06233681665,64dc7efc02f60401466f0a71,,,,,,,decisionTrl,resources/DBN.BMP,resources/DP.BMP,Door2,-0.187962921,0.0074074,1,0,0,1.6823,optionLeft,40,2180,1,42,0,42,0,1,,,,,,,,,,,,,,,,,,,,,,,,,,,,,,,,,,,,,,,
,,,,,,,,2023-08-16_08h54.43.681,HF_wild_card,2022.2.4,Win32,59.94485074,63f8b081b083f1e1014cb21a,64d2fd46c836a06233681665,64dc7efc02f60401466f0a71,,,,,,,decisionTrl,resources/DP.BMP,resources/DY.BMP,Door4,0.442592621,-0.019444466,1,0,0,1.9616,optionRight,80,2260,1,43,0,43,0,1,,,,,,,,,,,,,,,,,,,,,,,,,,,,,,,,,,,,,,,
,,,,,,,,2023-08-16_08h54.43.681,HF_wild_card,2022.2.4,Win32,59.94485074,63f8b081b083f1e1014cb21a,64d2fd46c836a06233681665,64dc7efc02f60401466f0a71,,,,,,,,,,,,,,,,,,,,,,,,,,0,0,0,0,1,,,,,,,,,,,,,,,,,,,,,,,,,,,,,,,,,,
,,,,,,,,2023-08-16_08h54.43.681,HF_wild_card,2022.2.4,Win32,59.94485074,63f8b081b083f1e1014cb21a,64d2fd46c836a06233681665,64dc7efc02f60401466f0a71,,,,,,,decisionTrl,resources/DBN.BMP,resources/DP.BMP,Door2,-0.476851852,0.112037023,1,0,0,2.4079,optionLeft,40,2300,2,0,0,0,0,1,,,,,,,,,,,,,,,,,,,,,,,,,,,,,,,,,,,,,,,
,,,,,,,,2023-08-16_08h54.43.681,HF_wild_card,2022.2.4,Win32,59.94485074,63f8b081b083f1e1014cb21a,64d2fd46c836a06233681665,64dc7efc02f60401466f0a71,,,,,,,decisionTrl,resources/DR.BMP,resources/DY.BMP,Door4,0.361111111,0.027777778,1,0,0,1.1858,optionRight,60,2360,2,1,0,1,0,1,,,,,,,,,,,,,,,,,,,,,,,,,,,,,,,,,,,,,,,
,,,,,,,,2023-08-16_08h54.43.681,HF_wild_card,2022.2.4,Win32,59.94485074,63f8b081b083f1e1014cb21a,64d2fd46c836a06233681665,64dc7efc02f60401466f0a71,,,,,,,ctch,resources/DBN.BMP,resources/DR.BMP,Door3,0.437962991,0.030555548,1,0,0,0.8764,optionRight,70,2430,2,2,0,2,0,1,,,,,,,,,,,,,,,,,,,,,,,,,,,,,,,,,,,,,,,
,,,,,,,,2023-08-16_08h54.43.681,HF_wild_card,2022.2.4,Win32,59.94485074,63f8b081b083f1e1014cb21a,64d2fd46c836a06233681665,64dc7efc02f60401466f0a71,,,,,,,decisionTrl,resources/DBN.BMP,resources/DG.BMP,Door1,0.511111083,-0.008333347,1,0,0,1.3023,optionRight,30,2460,2,3,0,3,0,1,,,,,,,,,,,,,,,,,,,,,,,,,,,,,,,,,,,,,,,
,,,,,,,,2023-08-16_08h54.43.681,HF_wild_card,2022.2.4,Win32,59.94485074,63f8b081b083f1e1014cb21a,64d2fd46c836a06233681665,64dc7efc02f60401466f0a71,,,,,,,ctch,resources/DY.BMP,resources/DG.BMP,Door4,-0.309259238,0.03148146,1,0,0,1.0461,optionLeft,80,2540,2,4,0,4,0,1,,,,,,,,,,,,,,,,,,,,,,,,,,,,,,,,,,,,,,,
,,,,,,,,2023-08-16_08h54.43.681,HF_wild_card,2022.2.4,Win32,59.94485074,63f8b081b083f1e1014cb21a,64d2fd46c836a06233681665,64dc7efc02f60401466f0a71,,,,,,,sngl,resources/Empty.png,resources/DP.BMP,WildCard_Ex,0.324074074,0.01203703,1,0,0,0.8817,optionRight,95,2635,2,5,0,5,0,1,,,,,,,,,,,,,,,,,,,,,,,,,,,,,,,,,,,,,,,
,,,,,,,,2023-08-16_08h54.43.681,HF_wild_card,2022.2.4,Win32,59.94485074,63f8b081b083f1e1014cb21a,64d2fd46c836a06233681665,64dc7efc02f60401466f0a71,,,,,,,decisionTrl,resources/DP.BMP,resources/DBN.BMP,Door2,0.333333333,0.10833334,1,0,0,1.2993,optionRight,40,2675,2,6,0,6,0,1,,,,,,,,,,,,,,,,,,,,,,,,,,,,,,,,,,,,,,,
,,,,,,,,2023-08-16_08h54.43.681,HF_wild_card,2022.2.4,Win32,59.94485074,63f8b081b083f1e1014cb21a,64d2fd46c836a06233681665,64dc7efc02f60401466f0a71,,,,,,,sngl,resources/Empty.png,resources/DP.BMP,WildCard_Ex,0.239814829,-0.020370377,1,0,0,0.7986,optionRight,5,2680,2,7,0,7,0,1,,,,,,,,,,,,,,,,,,,,,,,,,,,,,,,,,,,,,,,
,,,,,,,,2023-08-16_08h54.43.681,HF_wild_card,2022.2.4,Win32,59.94485074,63f8b081b083f1e1014cb21a,64d2fd46c836a06233681665,64dc7efc02f60401466f0a71,,,,,,,decisionTrl,resources/DG.BMP,resources/DBN.BMP,Door1,-0.356481481,0.085185192,1,0,0,3.7348,optionLeft,30,2710,2,8,0,8,0,1,,,,,,,,,,,,,,,,,,,,,,,,,,,,,,,,,,,,,,,
,,,,,,,,2023-08-16_08h54.43.681,HF_wild_card,2022.2.4,Win32,59.94485074,63f8b081b083f1e1014cb21a,64d2fd46c836a06233681665,64dc7efc02f60401466f0a71,,,,,,,ctch,resources/DR.BMP,resources/DBN.BMP,Door3,-0.335185192,-0.051851873,1,0,0,1.098,optionLeft,70,2780,2,9,0,9,0,1,,,,,,,,,,,,,,,,,,,,,,,,,,,,,,,,,,,,,,,
,,,,,,,,2023-08-16_08h54.43.681,HF_wild_card,2022.2.4,Win32,59.94485074,63f8b081b083f1e1014cb21a,64d2fd46c836a06233681665,64dc7efc02f60401466f0a71,,,,,,,decisionTrl,resources/DG.BMP,resources/DBN.BMP,Door1,-0.412962949,-0.037962984,1,0,0,1.2146,optionLeft,30,2810,2,10,0,10,0,1,,,,,,,,,,,,,,,,,,,,,,,,,,,,,,,,,,,,,,,
,,,,,,,,2023-08-16_08h54.43.681,HF_wild_card,2022.2.4,Win32,59.94485074,63f8b081b083f1e1014cb21a,64d2fd46c836a06233681665,64dc7efc02f60401466f0a71,,,,,,,decisionTrl,resources/DBN.BMP,resources/DG.BMP,Door1,0.336111139,-0.025000007,1,0,0,0.9137,optionRight,30,2840,2,11,0,11,0,1,,,,,,,,,,,,,,,,,,,,,,,,,,,,,,,,,,,,,,,
,,,,,,,,2023-08-16_08h54.43.681,HF_wild_card,2022.2.4,Win32,59.94485074,63f8b081b083f1e1014cb21a,64d2fd46c836a06233681665,64dc7efc02f60401466f0a71,,,,,,,ctch,resources/DY.BMP,resources/DG.BMP,Door4,-0.368518511,-0.01666666,1,0,0,0.8692,optionLeft,60,2900,2,12,0,12,0,1,,,,,,,,,,,,,,,,,,,,,,,,,,,,,,,,,,,,,,,
,,,,,,,,2023-08-16_08h54.43.681,HF_wild_card,2022.2.4,Win32,59.94485074,63f8b081b083f1e1014cb21a,64d2fd46c836a06233681665,64dc7efc02f60401466f0a71,,,,,,,decisionTrl,resources/DY.BMP,resources/DR.BMP,Door4,-0.385185171,-0.000925947,1,0,0,1.6653,optionLeft,60,2960,2,13,0,13,0,1,,,,,,,,,,,,,,,,,,,,,,,,,,,,,,,,,,,,,,,
,,,,,,,,2023-08-16_08h54.43.681,HF_wild_card,2022.2.4,Win32,59.94485074,63f8b081b083f1e1014cb21a,64d2fd46c836a06233681665,64dc7efc02f60401466f0a71,,,,,,,ctch,resources/DBN.BMP,resources/DR.BMP,Door3,0.389814871,0.049074067,1,0,0,2.2643,optionRight,70,3030,2,14,0,14,0,1,,,,,,,,,,,,,,,,,,,,,,,,,,,,,,,,,,,,,,,
,,,,,,,,2023-08-16_08h54.43.681,HF_wild_card,2022.2.4,Win32,59.94485074,63f8b081b083f1e1014cb21a,64d2fd46c836a06233681665,64dc7efc02f60401466f0a71,,,,,,,decisionTrl,resources/DY.BMP,resources/DP.BMP,Door4,-0.419444437,0.078703704,1,0,0,1.9847,optionLeft,60,3090,2,15,0,15,0,1,,,,,,,,,,,,,,,,,,,,,,,,,,,,,,,,,,,,,,,
,,,,,,,,2023-08-16_08h54.43.681,HF_wild_card,2022.2.4,Win32,59.94485074,63f8b081b083f1e1014cb21a,64d2fd46c836a06233681665,64dc7efc02f60401466f0a71,,,,,,,sngl,resources/Empty.png,resources/DY.BMP,Door4,0.366666723,-0.026851866,1,0,0,0.9188,optionRight,80,3170,2,16,0,16,0,1,,,,,,,,,,,,,,,,,,,,,,,,,,,,,,,,,,,,,,,
,,,,,,,,2023-08-16_08h54.43.681,HF_wild_card,2022.2.4,Win32,59.94485074,63f8b081b083f1e1014cb21a,64d2fd46c836a06233681665,64dc7efc02f60401466f0a71,,,,,,,sngl,resources/DR.BMP,resources/Empty.png,Door3,-0.349999993,0.008333312,1,0,0,0.6811,optionLeft,70,3240,2,17,0,17,0,1,,,,,,,,,,,,,,,,,,,,,,,,,,,,,,,,,,,,,,,
,,,,,,,,2023-08-16_08h54.43.681,HF_wild_card,2022.2.4,Win32,59.94485074,63f8b081b083f1e1014cb21a,64d2fd46c836a06233681665,64dc7efc02f60401466f0a71,,,,,,,decisionTrl,resources/DR.BMP,resources/DY.BMP,Door4,0.342592593,0.01203703,1,0,0,1.881,optionRight,60,3300,2,18,0,18,0,1,,,,,,,,,,,,,,,,,,,,,,,,,,,,,,,,,,,,,,,
,,,,,,,,2023-08-16_08h54.43.681,HF_wild_card,2022.2.4,Win32,59.94485074,63f8b081b083f1e1014cb21a,64d2fd46c836a06233681665,64dc7efc02f60401466f0a71,,,,,,,sngl,resources/Empty.png,resources/DBN.BMP,Door2,0.339814787,0.010185171,1,0,0,0.7642,optionRight,40,3340,2,19,0,19,0,1,,,,,,,,,,,,,,,,,,,,,,,,,,,,,,,,,,,,,,,
,,,,,,,,2023-08-16_08h54.43.681,HF_wild_card,2022.2.4,Win32,59.94485074,63f8b081b083f1e1014cb21a,64d2fd46c836a06233681665,64dc7efc02f60401466f0a71,,,,,,,ctch,resources/DG.BMP,resources/DY.BMP,Door4,0.390740712,0.03148146,1,0,0,1.763,optionRight,80,3420,2,20,0,20,0,1,,,,,,,,,,,,,,,,,,,,,,,,,,,,,,,,,,,,,,,
,,,,,,,,2023-08-16_08h54.43.681,HF_wild_card,2022.2.4,Win32,59.94485074,63f8b081b083f1e1014cb21a,64d2fd46c836a06233681665,64dc7efc02f60401466f0a71,,,,,,,ctch,resources/DR.BMP,resources/DBN.BMP,Door3,-0.344444452,0.047222208,1,0,0,2.4164,optionLeft,70,3490,2,21,0,21,0,1,,,,,,,,,,,,,,,,,,,,,,,,,,,,,,,,,,,,,,,
,,,,,,,,2023-08-16_08h54.43.681,HF_wild_card,2022.2.4,Win32,59.94485074,63f8b081b083f1e1014cb21a,64d2fd46c836a06233681665,64dc7efc02f60401466f0a71,,,,,,,sngl,resources/Empty.png,resources/DR.BMP,Door3,0.365740741,-0.00462963,1,0,0,0.7159,optionRight,70,3560,2,22,0,22,0,1,,,,,,,,,,,,,,,,,,,,,,,,,,,,,,,,,,,,,,,
,,,,,,,,2023-08-16_08h54.43.681,HF_wild_card,2022.2.4,Win32,59.94485074,63f8b081b083f1e1014cb21a,64d2fd46c836a06233681665,64dc7efc02f60401466f0a71,,,,,,,sngl,resources/Empty.png,resources/DG.BMP,Door1,0.345370399,0.01203703,1,0,0,0.7995,optionRight,30,3590,2,23,0,23,0,1,,,,,,,,,,,,,,,,,,,,,,,,,,,,,,,,,,,,,,,
,,,,,,,,2023-08-16_08h54.43.681,HF_wild_card,2022.2.4,Win32,59.94485074,63f8b081b083f1e1014cb21a,64d2fd46c836a06233681665,64dc7efc02f60401466f0a71,,,,,,,decisionTrl,resources/DP.BMP,resources/DY.BMP,Door4,0.383333418,0.01944443,1,0,0,1.6178,optionRight,80,3670,2,24,0,24,0,1,,,,,,,,,,,,,,,,,,,,,,,,,,,,,,,,,,,,,,,
,,,,,,,,2023-08-16_08h54.43.681,HF_wild_card,2022.2.4,Win32,59.94485074,63f8b081b083f1e1014cb21a,64d2fd46c836a06233681665,64dc7efc02f60401466f0a71,,,,,,,decisionTrl,resources/DG.BMP,resources/DP.BMP,WildCard_Ex,0.385185242,0.017592571,1,0,0,1.3985,optionRight,5,3675,2,25,0,25,0,1,,,,,,,,,,,,,,,,,,,,,,,,,,,,,,,,,,,,,,,
,,,,,,,,2023-08-16_08h54.43.681,HF_wild_card,2022.2.4,Win32,59.94485074,63f8b081b083f1e1014cb21a,64d2fd46c836a06233681665,64dc7efc02f60401466f0a71,,,,,,,decisionTrl,resources/DY.BMP,resources/DR.BMP,Door4,-0.359259252,0.046296296,1,0,0,1.1163,optionLeft,80,3755,2,26,0,26,0,1,,,,,,,,,,,,,,,,,,,,,,,,,,,,,,,,,,,,,,,
,,,,,,,,2023-08-16_08h54.43.681,HF_wild_card,2022.2.4,Win32,59.94485074,63f8b081b083f1e1014cb21a,64d2fd46c836a06233681665,64dc7efc02f60401466f0a71,,,,,,,decisionTrl,resources/DR.BMP,resources/DY.BMP,Door4,0.312962991,0.034259266,1,0,0,0.8145,optionRight,60,3815,2,27,0,27,0,1,,,,,,,,,,,,,,,,,,,,,,,,,,,,,,,,,,,,,,,
,,,,,,,,2023-08-16_08h54.43.681,HF_wild_card,2022.2.4,Win32,59.94485074,63f8b081b083f1e1014cb21a,64d2fd46c836a06233681665,64dc7efc02f60401466f0a71,,,,,,,decisionTrl,resources/DR.BMP,resources/DP.BMP,WildCard_Ex,0.35555564,0.002777771,1,0,0,2.9484,optionRight,5,3820,2,28,0,28,0,1,,,,,,,,,,,,,,,,,,,,,,,,,,,,,,,,,,,,,,,
,,,,,,,,2023-08-16_08h54.43.681,HF_wild_card,2022.2.4,Win32,59.94485074,63f8b081b083f1e1014cb21a,64d2fd46c836a06233681665,64dc7efc02f60401466f0a71,,,,,,,decisionTrl,resources/DY.BMP,resources/DR.BMP,Door4,-0.301851838,0.009259259,1,0,0,1.031,optionLeft,80,3900,2,29,0,29,0,1,,,,,,,,,,,,,,,,,,,,,,,,,,,,,,,,,,,,,,,
,,,,,,,,2023-08-16_08h54.43.681,HF_wild_card,2022.2.4,Win32,59.94485074,63f8b081b083f1e1014cb21a,64d2fd46c836a06233681665,64dc7efc02f60401466f0a71,,,,,,,decisionTrl,resources/DG.BMP,resources/DBN.BMP,Door1,-0.255555541,0.037037037,1,0,0,1.4962,optionLeft,30,3930,2,30,0,30,0,1,,,,,,,,,,,,,,,,,,,,,,,,,,,,,,,,,,,,,,,
,,,,,,,,2023-08-16_08h54.43.681,HF_wild_card,2022.2.4,Win32,59.94485074,63f8b081b083f1e1014cb21a,64d2fd46c836a06233681665,64dc7efc02f60401466f0a71,,,,,,,decisionTrl,resources/DP.BMP,resources/DG.BMP,Door1,0.421296296,0.042592578,1,0,0,2.0498,optionRight,30,3960,2,31,0,31,0,1,,,,,,,,,,,,,,,,,,,,,,,,,,,,,,,,,,,,,,,
,,,,,,,,2023-08-16_08h54.43.681,HF_wild_card,2022.2.4,Win32,59.94485074,63f8b081b083f1e1014cb21a,64d2fd46c836a06233681665,64dc7efc02f60401466f0a71,,,,,,,decisionTrl,resources/DY.BMP,resources/DR.BMP,Door4,-0.418518526,0.000925912,1,0,0,1.0721,optionLeft,80,4040,2,32,0,32,0,1,,,,,,,,,,,,,,,,,,,,,,,,,,,,,,,,,,,,,,,
,,,,,,,,2023-08-16_08h54.43.681,HF_wild_card,2022.2.4,Win32,59.94485074,63f8b081b083f1e1014cb21a,64d2fd46c836a06233681665,64dc7efc02f60401466f0a71,,,,,,,decisionTrl,resources/DP.BMP,resources/DR.BMP,Door3,0.337962963,-0.066666674,1,0,0,2.0984,optionRight,70,4110,2,33,0,33,0,1,,,,,,,,,,,,,,,,,,,,,,,,,,,,,,,,,,,,,,,
,,,,,,,,2023-08-16_08h54.43.681,HF_wild_card,2022.2.4,Win32,59.94485074,63f8b081b083f1e1014cb21a,64d2fd46c836a06233681665,64dc7efc02f60401466f0a71,,,,,,,ctch,resources/DG.BMP,resources/DY.BMP,Door4,0.441666638,0.009259259,1,0,0,1.0433,optionRight,60,4170,2,34,0,34,0,1,,,,,,,,,,,,,,,,,,,,,,,,,,,,,,,,,,,,,,,
,,,,,,,,2023-08-16_08h54.43.681,HF_wild_card,2022.2.4,Win32,59.94485074,63f8b081b083f1e1014cb21a,64d2fd46c836a06233681665,64dc7efc02f60401466f0a71,,,,,,,decisionTrl,resources/DG.BMP,resources/DBN.BMP,Door2,0.411111196,0.077777757,1,0,0,2.0764,optionRight,40,4210,2,35,0,35,0,1,,,,,,,,,,,,,,,,,,,,,,,,,,,,,,,,,,,,,,,
,,,,,,,,2023-08-16_08h54.43.681,HF_wild_card,2022.2.4,Win32,59.94485074,63f8b081b083f1e1014cb21a,64d2fd46c836a06233681665,64dc7efc02f60401466f0a71,,,,,,,decisionTrl,resources/DR.BMP,resources/DY.BMP,Door4,0.291666667,0.001851859,1,0,0,1.5981,optionRight,60,4270,2,36,0,36,0,1,,,,,,,,,,,,,,,,,,,,,,,,,,,,,,,,,,,,,,,
,,,,,,,,2023-08-16_08h54.43.681,HF_wild_card,2022.2.4,Win32,59.94485074,63f8b081b083f1e1014cb21a,64d2fd46c836a06233681665,64dc7efc02f60401466f0a71,,,,,,,sngl,resources/DG.BMP,resources/Empty.png,Door1,-0.281481496,-0.01203703,1,0,0,0.7605,optionLeft,30,4300,2,37,0,37,0,1,,,,,,,,,,,,,,,,,,,,,,,,,,,,,,,,,,,,,,,
,,,,,,,,2023-08-16_08h54.43.681,HF_wild_card,2022.2.4,Win32,59.94485074,63f8b081b083f1e1014cb21a,64d2fd46c836a06233681665,64dc7efc02f60401466f0a71,,,,,,,sngl,resources/DY.BMP,resources/Empty.png,Door4,-0.321296303,0.003703683,1,0,0,0.7678,optionLeft,60,4360,2,38,0,38,0,1,,,,,,,,,,,,,,,,,,,,,,,,,,,,,,,,,,,,,,,
,,,,,,,,2023-08-16_08h54.43.681,HF_wild_card,2022.2.4,Win32,59.94485074,63f8b081b083f1e1014cb21a,64d2fd46c836a06233681665,64dc7efc02f60401466f0a71,,,,,,,sngl,resources/DP.BMP,resources/Empty.png,WildCard_Ex,-0.37037037,-0.019444466,1,0,0,0.5785,optionLeft,95,4455,2,39,0,39,0,1,,,,,,,,,,,,,,,,,,,,,,,,,,,,,,,,,,,,,,,
,,,,,,,,2023-08-16_08h54.43.681,HF_wild_card,2022.2.4,Win32,59.94485074,63f8b081b083f1e1014cb21a,64d2fd46c836a06233681665,64dc7efc02f60401466f0a71,,,,,,,sngl,resources/DBN.BMP,resources/Empty.png,Door2,-0.253703718,-0.023148148,1,0,0,0.5667,optionLeft,20,4475,2,40,0,40,0,1,,,,,,,,,,,,,,,,,,,,,,,,,,,,,,,,,,,,,,,
,,,,,,,,2023-08-16_08h54.43.681,HF_wild_card,2022.2.4,Win32,59.94485074,63f8b081b083f1e1014cb21a,64d2fd46c836a06233681665,64dc7efc02f60401466f0a71,,,,,,,sngl,resources/DP.BMP,resources/Empty.png,WildCard_Ex,-0.433333326,-0.033333355,1,0,0,0.4823,optionLeft,5,4480,2,41,0,41,0,1,,,,,,,,,,,,,,,,,,,,,,,,,,,,,,,,,,,,,,,
,,,,,,,,2023-08-16_08h54.43.681,HF_wild_card,2022.2.4,Win32,59.94485074,63f8b081b083f1e1014cb21a,64d2fd46c836a06233681665,64dc7efc02f60401466f0a71,,,,,,,decisionTrl,resources/DBN.BMP,resources/DG.BMP,Door1,0.394444501,-0.00462963,1,0,0,2.061,optionRight,30,4510,2,42,0,42,0,1,,,,,,,,,,,,,,,,,,,,,,,,,,,,,,,,,,,,,,,
,,,,,,,,2023-08-16_08h54.43.681,HF_wild_card,2022.2.4,Win32,59.94485074,63f8b081b083f1e1014cb21a,64d2fd46c836a06233681665,64dc7efc02f60401466f0a71,,,,,,,decisionTrl,resources/DBN.BMP,resources/DG.BMP,Door2,-0.400000007,0.107407393,1,0,0,1.766,optionLeft,40,4550,2,43,0,43,0,1,,,,,,,,,,,,,,,,,,,,,,,,,,,,,,,,,,,,,,,
,,,,,,,,2023-08-16_08h54.43.681,HF_wild_card,2022.2.4,Win32,59.94485074,63f8b081b083f1e1014cb21a,64d2fd46c836a06233681665,64dc7efc02f60401466f0a71,,,,,,,,,,,,,,,,,,,,,,,,,,1,0,1,0,1,,,,,,,,,,,,,,,,,,,,,,,,,,,,,,,,,,
,,,,,,,,2023-08-16_08h54.43.681,HF_wild_card,2022.2.4,Win32,59.94485074,63f8b081b083f1e1014cb21a,64d2fd46c836a06233681665,64dc7efc02f60401466f0a71,,,,,,,sngl,resources/DY.BMP,resources/Empty.png,Door4,-0.246296282,-0.052777785,1,0,0,0.9133,optionLeft,80,4630,3,0,0,0,0,1,,,,,,,,,,,,,,,,,,,,,,,,,,,,,,,,,,,,,,,
,,,,,,,,2023-08-16_08h54.43.681,HF_wild_card,2022.2.4,Win32,59.94485074,63f8b081b083f1e1014cb21a,64d2fd46c836a06233681665,64dc7efc02f60401466f0a71,,,,,,,decisionTrl,resources/DG.BMP,resources/DBN.BMP,Door2,0.263888889,0.075925933,1,0,0,2.8828,optionRight,20,4650,3,1,0,1,0,1,,,,,,,,,,,,,,,,,,,,,,,,,,,,,,,,,,,,,,,
,,,,,,,,2023-08-16_08h54.43.681,HF_wild_card,2022.2.4,Win32,59.94485074,63f8b081b083f1e1014cb21a,64d2fd46c836a06233681665,64dc7efc02f60401466f0a71,,,,,,,decisionTrl,resources/DR.BMP,resources/DY.BMP,Door4,0.436111168,0.022222201,1,0,0,0.8817,optionRight,60,4710,3,2,0,2,0,1,,,,,,,,,,,,,,,,,,,,,,,,,,,,,,,,,,,,,,,
,,,,,,,,2023-08-16_08h54.43.681,HF_wild_card,2022.2.4,Win32,59.94485074,63f8b081b083f1e1014cb21a,64d2fd46c836a06233681665,64dc7efc02f60401466f0a71,,,,,,,decisionTrl,resources/DY.BMP,resources/DR.BMP,Door3,0.416666667,0.044444437,1,0,0,1.8514,optionRight,70,4780,3,3,0,3,0,1,,,,,,,,,,,,,,,,,,,,,,,,,,,,,,,,,,,,,,,
,,,,,,,,2023-08-16_08h54.43.681,HF_wild_card,2022.2.4,Win32,59.94485074,63f8b081b083f1e1014cb21a,64d2fd46c836a06233681665,64dc7efc02f60401466f0a71,,,,,,,sngl,resources/DR.BMP,resources/Empty.png,Door3,-0.402777778,0.013888889,1,0,0,0.6823,optionLeft,70,4850,3,4,0,4,0,1,,,,,,,,,,,,,,,,,,,,,,,,,,,,,,,,,,,,,,,
,,,,,,,,2023-08-16_08h54.43.681,HF_wild_card,2022.2.4,Win32,59.94485074,63f8b081b083f1e1014cb21a,64d2fd46c836a06233681665,64dc7efc02f60401466f0a71,,,,,,,sngl,resources/Empty.png,resources/DP.BMP,WildCard_Ex,0.422222279,-0.002777771,1,0,0,0.6318,optionRight,95,4945,3,5,0,5,0,1,,,,,,,,,,,,,,,,,,,,,,,,,,,,,,,,,,,,,,,
,,,,,,,,2023-08-16_08h54.43.681,HF_wild_card,2022.2.4,Win32,59.94485074,63f8b081b083f1e1014cb21a,64d2fd46c836a06233681665,64dc7efc02f60401466f0a71,,,,,,,decisionTrl,resources/DBN.BMP,resources/DG.BMP,Door2,-0.462037016,0.123148141,1,0,0,1.5806,optionLeft,20,4965,3,6,0,6,0,1,,,,,,,,,,,,,,,,,,,,,,,,,,,,,,,,,,,,,,,
,,,,,,,,2023-08-16_08h54.43.681,HF_wild_card,2022.2.4,Win32,59.94485074,63f8b081b083f1e1014cb21a,64d2fd46c836a06233681665,64dc7efc02f60401466f0a71,,,,,,,ctch,resources/DY.BMP,resources/DG.BMP,Door4,-0.37037037,-0.008333347,1,0,0,1.1114,optionLeft,60,5025,3,7,0,7,0,1,,,,,,,,,,,,,,,,,,,,,,,,,,,,,,,,,,,,,,,
,,,,,,,,2023-08-16_08h54.43.681,HF_wild_card,2022.2.4,Win32,59.94485074,63f8b081b083f1e1014cb21a,64d2fd46c836a06233681665,64dc7efc02f60401466f0a71,,,,,,,decisionTrl,resources/DP.BMP,resources/DBN.BMP,WildCard_Ex,-0.299074067,0.01944443,1,0,0,1.2142,optionLeft,95,5120,3,8,0,8,0,1,,,,,,,,,,,,,,,,,,,,,,,,,,,,,,,,,,,,,,,
,,,,,,,,2023-08-16_08h54.43.681,HF_wild_card,2022.2.4,Win32,59.94485074,63f8b081b083f1e1014cb21a,64d2fd46c836a06233681665,64dc7efc02f60401466f0a71,,,,,,,sngl,resources/Empty.png,resources/DY.BMP,Door4,0.469444416,-0.021296289,1,0,0,0.6631,optionRight,60,5180,3,9,0,9,0,1,,,,,,,,,,,,,,,,,,,,,,,,,,,,,,,,,,,,,,,
,,,,,,,,2023-08-16_08h54.43.681,HF_wild_card,2022.2.4,Win32,59.94485074,63f8b081b083f1e1014cb21a,64d2fd46c836a06233681665,64dc7efc02f60401466f0a71,,,,,,,sngl,resources/DP.BMP,resources/Empty.png,WildCard_Ex,-0.385185171,0.026851831,1,0,0,0.6474,optionLeft,5,5185,3,10,0,10,0,1,,,,,,,,,,,,,,,,,,,,,,,,,,,,,,,,,,,,,,,
,,,,,,,,2023-08-16_08h54.43.681,HF_wild_card,2022.2.4,Win32,59.94485074,63f8b081b083f1e1014cb21a,64d2fd46c836a06233681665,64dc7efc02f60401466f0a71,,,,,,,ctch,resources/DG.BMP,resources/DY.BMP,Door4,0.346296381,0.010185171,1,0,0,6.6208,optionRight,60,5245,3,11,0,11,0,1,,,,,,,,,,,,,,,,,,,,,,,,,,,,,,,,,,,,,,,
,,,,,,,,2023-08-16_08h54.43.681,HF_wild_card,2022.2.4,Win32,59.94485074,63f8b081b083f1e1014cb21a,64d2fd46c836a06233681665,64dc7efc02f60401466f0a71,,,,,,,sngl,resources/DBN.BMP,resources/Empty.png,Door2,-0.344444452,0.034259266,1,0,0,0.7816,optionLeft,40,5285,3,12,0,12,0,1,,,,,,,,,,,,,,,,,,,,,,,,,,,,,,,,,,,,,,,
,,,,,,,,2023-08-16_08h54.43.681,HF_wild_card,2022.2.4,Win32,59.94485074,63f8b081b083f1e1014cb21a,64d2fd46c836a06233681665,64dc7efc02f60401466f0a71,,,,,,,decisionTrl,resources/DP.BMP,resources/DY.BMP,Door4,0.337037122,0.0074074,1,0,0,4.5545,optionRight,60,5345,3,13,0,13,0,1,,,,,,,,,,,,,,,,,,,,,,,,,,,,,,,,,,,,,,,
,,,,,,,,2023-08-16_08h54.43.681,HF_wild_card,2022.2.4,Win32,59.94485074,63f8b081b083f1e1014cb21a,64d2fd46c836a06233681665,64dc7efc02f60401466f0a71,,,,,,,decisionTrl,resources/DBN.BMP,resources/DG.BMP,Door2,-0.287037037,0.119444423,1,0,0,2.2474,optionLeft,20,5365,3,14,0,14,0,1,,,,,,,,,,,,,,,,,,,,,,,,,,,,,,,,,,,,,,,
,,,,,,,,2023-08-16_08h54.43.681,HF_wild_card,2022.2.4,Win32,59.94485074,63f8b081b083f1e1014cb21a,64d2fd46c836a06233681665,64dc7efc02f60401466f0a71,,,,,,,ctch,resources/DBN.BMP,resources/DR.BMP,Door3,0.342592593,0.021296289,1,0,0,1.1645,optionRight,70,5435,3,15,0,15,0,1,,,,,,,,,,,,,,,,,,,,,,,,,,,,,,,,,,,,,,,
,,,,,,,,2023-08-16_08h54.43.681,HF_wild_card,2022.2.4,Win32,59.94485074,63f8b081b083f1e1014cb21a,64d2fd46c836a06233681665,64dc7efc02f60401466f0a71,,,,,,,decisionTrl,resources/DY.BMP,resources/DR.BMP,Door4,-0.330555563,0.069444444,1,0,0,0.982,optionLeft,80,5515,3,16,0,16,0,1,,,,,,,,,,,,,,,,,,,,,,,,,,,,,,,,,,,,,,,
,,,,,,,,2023-08-16_08h54.43.681,HF_wild_card,2022.2.4,Win32,59.94485074,63f8b081b083f1e1014cb21a,64d2fd46c836a06233681665,64dc7efc02f60401466f0a71,,,,,,,ctch,resources/DG.BMP,resources/DY.BMP,Door4,0.440740797,0.027777778,1,0,0,1.6333,optionRight,80,5595,3,17,0,17,0,1,,,,,,,,,,,,,,,,,,,,,,,,,,,,,,,,,,,,,,,
,,,,,,,,2023-08-16_08h54.43.681,HF_wild_card,2022.2.4,Win32,59.94485074,63f8b081b083f1e1014cb21a,64d2fd46c836a06233681665,64dc7efc02f60401466f0a71,,,,,,,ctch,resources/DR.BMP,resources/DBN.BMP,Door3,-0.360185164,0.01944443,1,0,0,1.2825,optionLeft,70,5665,3,18,0,18,0,1,,,,,,,,,,,,,,,,,,,,,,,,,,,,,,,,,,,,,,,
,,,,,,,,2023-08-16_08h54.43.681,HF_wild_card,2022.2.4,Win32,59.94485074,63f8b081b083f1e1014cb21a,64d2fd46c836a06233681665,64dc7efc02f60401466f0a71,,,,,,,decisionTrl,resources/DR.BMP,resources/DP.BMP,WildCard_Ex,0.323148233,-0.005555577,1,0,0,0.8295,optionRight,95,5760,3,19,0,19,0,1,,,,,,,,,,,,,,,,,,,,,,,,,,,,,,,,,,,,,,,
,,,,,,,,2023-08-16_08h54.43.681,HF_wild_card,2022.2.4,Win32,59.94485074,63f8b081b083f1e1014cb21a,64d2fd46c836a06233681665,64dc7efc02f60401466f0a71,,,,,,,decisionTrl,resources/DR.BMP,resources/DY.BMP,Door4,0.317592621,-0.013888889,1,0,0,1.2796,optionRight,60,5820,3,20,0,20,0,1,,,,,,,,,,,,,,,,,,,,,,,,,,,,,,,,,,,,,,,
,,,,,,,,2023-08-16_08h54.43.681,HF_wild_card,2022.2.4,Win32,59.94485074,63f8b081b083f1e1014cb21a,64d2fd46c836a06233681665,64dc7efc02f60401466f0a71,,,,,,,ctch,resources/DBN.BMP,resources/DR.BMP,Door3,0.537963019,-0.014814836,1,0,0,1.411,optionRight,70,5890,3,21,0,21,0,1,,,,,,,,,,,,,,,,,,,,,,,,,,,,,,,,,,,,,,,
,,,,,,,,2023-08-16_08h54.43.681,HF_wild_card,2022.2.4,Win32,59.94485074,63f8b081b083f1e1014cb21a,64d2fd46c836a06233681665,64dc7efc02f60401466f0a71,,,,,,,decisionTrl,resources/DBN.BMP,resources/DG.BMP,Door1,0.390740712,0.050925926,1,0,0,1.5817,optionRight,30,5920,3,22,0,22,0,1,,,,,,,,,,,,,,,,,,,,,,,,,,,,,,,,,,,,,,,
,,,,,,,,2023-08-16_08h54.43.681,HF_wild_card,2022.2.4,Win32,59.94485074,63f8b081b083f1e1014cb21a,64d2fd46c836a06233681665,64dc7efc02f60401466f0a71,,,,,,,decisionTrl,resources/DBN.BMP,resources/DP.BMP,WildCard_Ex,0.344444416,-0.026851866,1,0,0,1.7794,optionRight,5,5925,3,23,0,23,0,1,,,,,,,,,,,,,,,,,,,,,,,,,,,,,,,,,,,,,,,
,,,,,,,,2023-08-16_08h54.43.681,HF_wild_card,2022.2.4,Win32,59.94485074,63f8b081b083f1e1014cb21a,64d2fd46c836a06233681665,64dc7efc02f60401466f0a71,,,,,,,sngl,resources/Empty.png,resources/DBN.BMP,Door2,0.319444444,0.049074067,1,0,0,0.9276,optionRight,20,5945,3,24,0,24,0,1,,,,,,,,,,,,,,,,,,,,,,,,,,,,,,,,,,,,,,,
,,,,,,,,2023-08-16_08h54.43.681,HF_wild_card,2022.2.4,Win32,59.94485074,63f8b081b083f1e1014cb21a,64d2fd46c836a06233681665,64dc7efc02f60401466f0a71,,,,,,,decisionTrl,resources/DG.BMP,resources/DP.BMP,WildCard_Ex,0.296296296,-0.00462963,1,0,0,1.6447,optionRight,5,5950,3,25,0,25,0,1,,,,,,,,,,,,,,,,,,,,,,,,,,,,,,,,,,,,,,,
,,,,,,,,2023-08-16_08h54.43.681,HF_wild_card,2022.2.4,Win32,59.94485074,63f8b081b083f1e1014cb21a,64d2fd46c836a06233681665,64dc7efc02f60401466f0a71,,,,,,,ctch,resources/DY.BMP,resources/DG.BMP,Door4,-0.417592578,0.060185185,1,0,0,1.0613,optionLeft,80,6030,3,26,0,26,0,1,,,,,,,,,,,,,,,,,,,,,,,,,,,,,,,,,,,,,,,
,,,,,,,,2023-08-16_08h54.43.681,HF_wild_card,2022.2.4,Win32,59.94485074,63f8b081b083f1e1014cb21a,64d2fd46c836a06233681665,64dc7efc02f60401466f0a71,,,,,,,decisionTrl,resources/DG.BMP,resources/DBN.BMP,Door1,-0.306481467,0.047222208,1,0,0,1.7355,optionLeft,30,6060,3,27,0,27,0,1,,,,,,,,,,,,,,,,,,,,,,,,,,,,,,,,,,,,,,,
,,,,,,,,2023-08-16_08h54.43.681,HF_wild_card,2022.2.4,Win32,59.94485074,63f8b081b083f1e1014cb21a,64d2fd46c836a06233681665,64dc7efc02f60401466f0a71,,,,,,,decisionTrl,resources/DG.BMP,resources/DBN.BMP,Door1,-0.371296282,-0.006481489,1,0,0,0.8149,optionLeft,30,6090,3,28,0,28,0,1,,,,,,,,,,,,,,,,,,,,,,,,,,,,,,,,,,,,,,,
,,,,,,,,2023-08-16_08h54.43.681,HF_wild_card,2022.2.4,Win32,59.94485074,63f8b081b083f1e1014cb21a,64d2fd46c836a06233681665,64dc7efc02f60401466f0a71,,,,,,,decisionTrl,resources/DY.BMP,resources/DP.BMP,Door4,-0.390740748,0.025000007,1,0,0,1.5151,optionLeft,80,6170,3,29,0,29,0,1,,,,,,,,,,,,,,,,,,,,,,,,,,,,,,,,,,,,,,,
,,,,,,,,2023-08-16_08h54.43.681,HF_wild_card,2022.2.4,Win32,59.94485074,63f8b081b083f1e1014cb21a,64d2fd46c836a06233681665,64dc7efc02f60401466f0a71,,,,,,,decisionTrl,resources/DY.BMP,resources/DR.BMP,Door4,-0.336111104,-0.037962984,1,0,0,0.7485,optionLeft,80,6250,3,30,0,30,0,1,,,,,,,,,,,,,,,,,,,,,,,,,,,,,,,,,,,,,,,
,,,,,,,,2023-08-16_08h54.43.681,HF_wild_card,2022.2.4,Win32,59.94485074,63f8b081b083f1e1014cb21a,64d2fd46c836a06233681665,64dc7efc02f60401466f0a71,,,,,,,sngl,resources/DP.BMP,resources/Empty.png,WildCard_Ex,-0.289814772,-0.027777778,1,0,0,0.6828,optionLeft,95,6345,3,31,0,31,0,1,,,,,,,,,,,,,,,,,,,,,,,,,,,,,,,,,,,,,,,
,,,,,,,,2023-08-16_08h54.43.681,HF_wild_card,2022.2.4,Win32,59.94485074,63f8b081b083f1e1014cb21a,64d2fd46c836a06233681665,64dc7efc02f60401466f0a71,,,,,,,sngl,resources/Empty.png,resources/DR.BMP,Door3,0.233333376,-0.00462963,1,0,0,0.8437,optionRight,70,6415,3,32,0,32,0,1,,,,,,,,,,,,,,,,,,,,,,,,,,,,,,,,,,,,,,,
,,,,,,,,2023-08-16_08h54.43.681,HF_wild_card,2022.2.4,Win32,59.94485074,63f8b081b083f1e1014cb21a,64d2fd46c836a06233681665,64dc7efc02f60401466f0a71,,,,,,,sngl,resources/Empty.png,resources/DG.BMP,Door1,0.362962935,-0.040740755,1,0,0,0.6845,optionRight,30,6445,3,33,0,33,0,1,,,,,,,,,,,,,,,,,,,,,,,,,,,,,,,,,,,,,,,
,,,,,,,,2023-08-16_08h54.43.681,HF_wild_card,2022.2.4,Win32,59.94485074,63f8b081b083f1e1014cb21a,64d2fd46c836a06233681665,64dc7efc02f60401466f0a71,,,,,,,decisionTrl,resources/DBN.BMP,resources/DG.BMP,Door1,0.601851852,0.005555541,1,0,0,1.3485,optionRight,30,6475,3,34,0,34,0,1,,,,,,,,,,,,,,,,,,,,,,,,,,,,,,,,,,,,,,,
,,,,,,,,2023-08-16_08h54.43.681,HF_wild_card,2022.2.4,Win32,59.94485074,63f8b081b083f1e1014cb21a,64d2fd46c836a06233681665,64dc7efc02f60401466f0a71,,,,,,,decisionTrl,resources/DR.BMP,resources/DY.BMP,Door4,0.367592564,0.03611109,1,0,0,1.315,optionRight,80,6555,3,35,0,35,0,1,,,,,,,,,,,,,,,,,,,,,,,,,,,,,,,,,,,,,,,
,,,,,,,,2023-08-16_08h54.43.681,HF_wild_card,2022.2.4,Win32,59.94485074,63f8b081b083f1e1014cb21a,64d2fd46c836a06233681665,64dc7efc02f60401466f0a71,,,,,,,decisionTrl,resources/DY.BMP,resources/DR.BMP,Door4,-0.412962949,0.053703697,1,0,0,1,optionLeft,60,6615,3,36,0,36,0,1,,,,,,,,,,,,,,,,,,,,,,,,,,,,,,,,,,,,,,,
,,,,,,,,2023-08-16_08h54.43.681,HF_wild_card,2022.2.4,Win32,59.94485074,63f8b081b083f1e1014cb21a,64d2fd46c836a06233681665,64dc7efc02f60401466f0a71,,,,,,,decisionTrl,resources/DP.BMP,resources/DR.BMP,WildCard_Ex,-0.264814801,0.0074074,1,0,0,1.0862,optionLeft,95,6710,3,37,0,37,0,1,,,,,,,,,,,,,,,,,,,,,,,,,,,,,,,,,,,,,,,
,,,,,,,,2023-08-16_08h54.43.681,HF_wild_card,2022.2.4,Win32,59.94485074,63f8b081b083f1e1014cb21a,64d2fd46c836a06233681665,64dc7efc02f60401466f0a71,,,,,,,decisionTrl,resources/DR.BMP,resources/DY.BMP,Door4,0.313888974,-0.031481496,1,0,0,0.9314,optionRight,80,6790,3,38,0,38,0,1,,,,,,,,,,,,,,,,,,,,,,,,,,,,,,,,,,,,,,,
,,,,,,,,2023-08-16_08h54.43.681,HF_wild_card,2022.2.4,Win32,59.94485074,63f8b081b083f1e1014cb21a,64d2fd46c836a06233681665,64dc7efc02f60401466f0a71,,,,,,,sngl,resources/DG.BMP,resources/Empty.png,Door1,-0.272222236,0.062037044,1,0,0,0.7773,optionLeft,30,6820,3,39,0,39,0,1,,,,,,,,,,,,,,,,,,,,,,,,,,,,,,,,,,,,,,,
,,,,,,,,2023-08-16_08h54.43.681,HF_wild_card,2022.2.4,Win32,59.94485074,63f8b081b083f1e1014cb21a,64d2fd46c836a06233681665,64dc7efc02f60401466f0a71,,,,,,,decisionTrl,resources/DP.BMP,resources/DG.BMP,WildCard_Ex,-0.342592593,0.047222208,1,0,0,0.8941,optionLeft,95,6915,3,40,0,40,0,1,,,,,,,,,,,,,,,,,,,,,,,,,,,,,,,,,,,,,,,
,,,,,,,,2023-08-16_08h54.43.681,HF_wild_card,2022.2.4,Win32,59.94485074,63f8b081b083f1e1014cb21a,64d2fd46c836a06233681665,64dc7efc02f60401466f0a71,,,,,,,sngl,resources/Empty.png,resources/DP.BMP,WildCard_Ex,0.337962963,-0.027777778,1,0,0,0.5701,optionRight,5,6920,3,41,0,41,0,1,,,,,,,,,,,,,,,,,,,,,,,,,,,,,,,,,,,,,,,
,,,,,,,,2023-08-16_08h54.43.681,HF_wild_card,2022.2.4,Win32,59.94485074,63f8b081b083f1e1014cb21a,64d2fd46c836a06233681665,64dc7efc02f60401466f0a71,,,,,,,decisionTrl,resources/DG.BMP,resources/DBN.BMP,Door1,-0.314814815,0.037962949,1,0,0,0.7329,optionLeft,30,6950,3,42,0,42,0,1,,,,,,,,,,,,,,,,,,,,,,,,,,,,,,,,,,,,,,,
,,,,,,,,2023-08-16_08h54.43.681,HF_wild_card,2022.2.4,Win32,59.94485074,63f8b081b083f1e1014cb21a,64d2fd46c836a06233681665,64dc7efc02f60401466f0a71,,,,,,,ctch,resources/DR.BMP,resources/DBN.BMP,Door3,-0.324074074,-0.030555548,1,0,0,1.0481,optionLeft,70,7020,3,43,0,43,0,1,,,,,,,,,,,,,,,,,,,,,,,,,,,,,,,,,,,,,,,
,,,,,,,,2023-08-16_08h54.43.681,HF_wild_card,2022.2.4,Win32,59.94485074,63f8b081b083f1e1014cb21a,64d2fd46c836a06233681665,64dc7efc02f60401466f0a71,,,,,,,,,,,,,,,,,,,,,,,,,,2,0,2,0,1,,,,,,,,,,,,,,,,,,,,,,,,,,,,,,,,,,
,,,,,,,,2023-08-16_08h54.43.681,HF_wild_card,2022.2.4,Win32,59.94485074,63f8b081b083f1e1014cb21a,64d2fd46c836a06233681665,64dc7efc02f60401466f0a71,,,,,,,sngl,resources/Empty.png,resources/DBN.BMP,Door2,0.362962935,0.0074074,1,0,0,0.7983,optionRight,40,7060,4,0,0,0,0,1,,,,,,,,,,,,,,,,,,,,,,,,,,,,,,,,,,,,,,,
,,,,,,,,2023-08-16_08h54.43.681,HF_wild_card,2022.2.4,Win32,59.94485074,63f8b081b083f1e1014cb21a,64d2fd46c836a06233681665,64dc7efc02f60401466f0a71,,,,,,,decisionTrl,resources/DR.BMP,resources/DB.BMP,WildCard_NonEx,0.272222236,-0.006481489,1,0,0,0.9633,optionRight,45,7105,4,1,0,1,0,1,,,,,,,,,,,,,,,,,,,,,,,,,,,,,,,,,,,,,,,
,,,,,,,,2023-08-16_08h54.43.681,HF_wild_card,2022.2.4,Win32,59.94485074,63f8b081b083f1e1014cb21a,64d2fd46c836a06233681665,64dc7efc02f60401466f0a71,,,,,,,sngl,resources/DB.BMP,resources/Empty.png,WildCard_NonEx,-0.264814801,0.01666666,1,0,0,0.7832,optionLeft,45,7150,4,2,0,2,0,1,,,,,,,,,,,,,,,,,,,,,,,,,,,,,,,,,,,,,,,
,,,,,,,,2023-08-16_08h54.43.681,HF_wild_card,2022.2.4,Win32,59.94485074,63f8b081b083f1e1014cb21a,64d2fd46c836a06233681665,64dc7efc02f60401466f0a71,,,,,,,decisionTrl,resources/DG.BMP,resources/DB.BMP,WildCard_NonEx,0.275000042,-0.033333355,1,0,0,1.2491,optionRight,45,7195,4,3,0,3,0,1,,,,,,,,,,,,,,,,,,,,,,,,,,,,,,,,,,,,,,,
,,,,,,,,2023-08-16_08h54.43.681,HF_wild_card,2022.2.4,Win32,59.94485074,63f8b081b083f1e1014cb21a,64d2fd46c836a06233681665,64dc7efc02f60401466f0a71,,,,,,,ctch,resources/DG.BMP,resources/DY.BMP,Door4,0.341666751,-0.048148155,1,0,0,0.864,optionRight,80,7275,4,4,0,4,0,1,,,,,,,,,,,,,,,,,,,,,,,,,,,,,,,,,,,,,,,
,,,,,,,,2023-08-16_08h54.43.681,HF_wild_card,2022.2.4,Win32,59.94485074,63f8b081b083f1e1014cb21a,64d2fd46c836a06233681665,64dc7efc02f60401466f0a71,,,,,,,decisionTrl,resources/DG.BMP,resources/DBN.BMP,Door1,-0.334259245,-0.001851859,1,0,0,1.0479,optionLeft,30,7305,4,5,0,5,0,1,,,,,,,,,,,,,,,,,,,,,,,,,,,,,,,,,,,,,,,
,,,,,,,,2023-08-16_08h54.43.681,HF_wild_card,2022.2.4,Win32,59.94485074,63f8b081b083f1e1014cb21a,64d2fd46c836a06233681665,64dc7efc02f60401466f0a71,,,,,,,decisionTrl,resources/DB.BMP,resources/DG.BMP,WildCard_NonEx,-0.277777778,0.00462963,1,0,0,0.7489,optionLeft,55,7360,4,6,0,6,0,1,,,,,,,,,,,,,,,,,,,,,,,,,,,,,,,,,,,,,,,
,,,,,,,,2023-08-16_08h54.43.681,HF_wild_card,2022.2.4,Win32,59.94485074,63f8b081b083f1e1014cb21a,64d2fd46c836a06233681665,64dc7efc02f60401466f0a71,,,,,,,ctch,resources/DY.BMP,resources/DG.BMP,Door4,-0.427777785,-0.033333355,1,0,0,0.8833,optionLeft,80,7440,4,7,0,7,0,1,,,,,,,,,,,,,,,,,,,,,,,,,,,,,,,,,,,,,,,
,,,,,,,,2023-08-16_08h54.43.681,HF_wild_card,2022.2.4,Win32,59.94485074,63f8b081b083f1e1014cb21a,64d2fd46c836a06233681665,64dc7efc02f60401466f0a71,,,,,,,decisionTrl,resources/DY.BMP,resources/DB.BMP,Door4,-0.38703703,0.073148127,1,0,0,1.0326,optionLeft,60,7500,4,8,0,8,0,1,,,,,,,,,,,,,,,,,,,,,,,,,,,,,,,,,,,,,,,
,,,,,,,,2023-08-16_08h54.43.681,HF_wild_card,2022.2.4,Win32,59.94485074,63f8b081b083f1e1014cb21a,64d2fd46c836a06233681665,64dc7efc02f60401466f0a71,,,,,,,decisionTrl,resources/DY.BMP,resources/DR.BMP,Door4,-0.281481496,0.010185171,1,0,0,1.026,optionLeft,80,7580,4,9,0,9,0,1,,,,,,,,,,,,,,,,,,,,,,,,,,,,,,,,,,,,,,,
,,,,,,,,2023-08-16_08h54.43.681,HF_wild_card,2022.2.4,Win32,59.94485074,63f8b081b083f1e1014cb21a,64d2fd46c836a06233681665,64dc7efc02f60401466f0a71,,,,,,,decisionTrl,resources/DG.BMP,resources/DBN.BMP,Door1,-0.208333333,0.046296296,1,0,0,1.384,optionLeft,30,7610,4,10,0,10,0,1,,,,,,,,,,,,,,,,,,,,,,,,,,,,,,,,,,,,,,,
,,,,,,,,2023-08-16_08h54.43.681,HF_wild_card,2022.2.4,Win32,59.94485074,63f8b081b083f1e1014cb21a,64d2fd46c836a06233681665,64dc7efc02f60401466f0a71,,,,,,,sngl,resources/Empty.png,resources/DY.BMP,Door4,0.411111196,-0.005555577,1,0,0,0.8279,optionRight,80,7690,4,11,0,11,0,1,,,,,,,,,,,,,,,,,,,,,,,,,,,,,,,,,,,,,,,
,,,,,,,,2023-08-16_08h54.43.681,HF_wild_card,2022.2.4,Win32,59.94485074,63f8b081b083f1e1014cb21a,64d2fd46c836a06233681665,64dc7efc02f60401466f0a71,,,,,,,sngl,resources/DR.BMP,resources/Empty.png,Door3,-0.298148155,0.002777771,1,0,0,0.6148,optionLeft,70,7760,4,12,0,12,0,1,,,,,,,,,,,,,,,,,,,,,,,,,,,,,,,,,,,,,,,
,,,,,,,,2023-08-16_08h54.43.681,HF_wild_card,2022.2.4,Win32,59.94485074,63f8b081b083f1e1014cb21a,64d2fd46c836a06233681665,64dc7efc02f60401466f0a71,,,,,,,decisionTrl,resources/DB.BMP,resources/DY.BMP,Door4,0.328703704,-0.001851859,1,0,0,1.7821,optionRight,60,7820,4,13,0,13,0,1,,,,,,,,,,,,,,,,,,,,,,,,,,,,,,,,,,,,,,,
,,,,,,,,2023-08-16_08h54.43.681,HF_wild_card,2022.2.4,Win32,59.94485074,63f8b081b083f1e1014cb21a,64d2fd46c836a06233681665,64dc7efc02f60401466f0a71,,,,,,,ctch,resources/DR.BMP,resources/DBN.BMP,Door3,-0.3675926,0.022222201,1,0,0,0.6804,optionLeft,70,7890,4,14,0,14,0,1,,,,,,,,,,,,,,,,,,,,,,,,,,,,,,,,,,,,,,,
,,,,,,,,2023-08-16_08h54.43.681,HF_wild_card,2022.2.4,Win32,59.94485074,63f8b081b083f1e1014cb21a,64d2fd46c836a06233681665,64dc7efc02f60401466f0a71,,,,,,,ctch,resources/DBN.BMP,resources/DR.BMP,Door3,0.44722225,-0.036111125,1,0,0,0.7116,optionRight,70,7960,4,15,0,15,0,1,,,,,,,,,,,,,,,,,,,,,,,,,,,,,,,,,,,,,,,
,,,,,,,,2023-08-16_08h54.43.681,HF_wild_card,2022.2.4,Win32,59.94485074,63f8b081b083f1e1014cb21a,64d2fd46c836a06233681665,64dc7efc02f60401466f0a71,,,,,,,decisionTrl,resources/DY.BMP,resources/DR.BMP,Door4,-0.349999993,0.005555541,1,0,0,0.9485,optionLeft,80,8040,4,16,0,16,0,1,,,,,,,,,,,,,,,,,,,,,,,,,,,,,,,,,,,,,,,
,,,,,,,,2023-08-16_08h54.43.681,HF_wild_card,2022.2.4,Win32,59.94485074,63f8b081b083f1e1014cb21a,64d2fd46c836a06233681665,64dc7efc02f60401466f0a71,,,,,,,decisionTrl,resources/DB.BMP,resources/DR.BMP,Door3,0.346296381,-0.054629644,1,0,0,1.5592,optionRight,70,8110,4,17,0,17,0,1,,,,,,,,,,,,,,,,,,,,,,,,,,,,,,,,,,,,,,,
,,,,,,,,2023-08-16_08h54.43.681,HF_wild_card,2022.2.4,Win32,59.94485074,63f8b081b083f1e1014cb21a,64d2fd46c836a06233681665,64dc7efc02f60401466f0a71,,,,,,,sngl,resources/DG.BMP,resources/Empty.png,Door1,-0.421296296,-0.112963005,1,0,0,0.6122,optionLeft,30,8140,4,18,0,18,0,1,,,,,,,,,,,,,,,,,,,,,,,,,,,,,,,,,,,,,,,
,,,,,,,,2023-08-16_08h54.43.681,HF_wild_card,2022.2.4,Win32,59.94485074,63f8b081b083f1e1014cb21a,64d2fd46c836a06233681665,64dc7efc02f60401466f0a71,,,,,,,sngl,resources/Empty.png,resources/DG.BMP,Door1,0.35555564,-0.056481503,1,0,0,0.6312,optionRight,30,8170,4,19,0,19,0,1,,,,,,,,,,,,,,,,,,,,,,,,,,,,,,,,,,,,,,,
,,,,,,,,2023-08-16_08h54.43.681,HF_wild_card,2022.2.4,Win32,59.94485074,63f8b081b083f1e1014cb21a,64d2fd46c836a06233681665,64dc7efc02f60401466f0a71,,,,,,,sngl,resources/Empty.png,resources/DR.BMP,Door3,0.344444416,-0.0074074,1,0,0,0.6016,optionRight,70,8240,4,20,0,20,0,1,,,,,,,,,,,,,,,,,,,,,,,,,,,,,,,,,,,,,,,
,,,,,,,,2023-08-16_08h54.43.681,HF_wild_card,2022.2.4,Win32,59.94485074,63f8b081b083f1e1014cb21a,64d2fd46c836a06233681665,64dc7efc02f60401466f0a71,,,,,,,decisionTrl,resources/DR.BMP,resources/DY.BMP,Door4,0.432407379,0,1,0,0,0.9994,optionRight,80,8320,4,21,0,21,0,1,,,,,,,,,,,,,,,,,,,,,,,,,,,,,,,,,,,,,,,
,,,,,,,,2023-08-16_08h54.43.681,HF_wild_card,2022.2.4,Win32,59.94485074,63f8b081b083f1e1014cb21a,64d2fd46c836a06233681665,64dc7efc02f60401466f0a71,,,,,,,decisionTrl,resources/DR.BMP,resources/DY.BMP,Door4,0.229629658,-0.021296289,1,0,0,0.6313,optionRight,60,8380,4,22,0,22,0,1,,,,,,,,,,,,,,,,,,,,,,,,,,,,,,,,,,,,,,,
,,,,,,,,2023-08-16_08h54.43.681,HF_wild_card,2022.2.4,Win32,59.94485074,63f8b081b083f1e1014cb21a,64d2fd46c836a06233681665,64dc7efc02f60401466f0a71,,,,,,,sngl,resources/Empty.png,resources/DB.BMP,WildCard_NonEx,0.390740712,-0.00462963,1,0,0,0.7158,optionRight,45,8425,4,23,0,23,0,1,,,,,,,,,,,,,,,,,,,,,,,,,,,,,,,,,,,,,,,
,,,,,,,,2023-08-16_08h54.43.681,HF_wild_card,2022.2.4,Win32,59.94485074,63f8b081b083f1e1014cb21a,64d2fd46c836a06233681665,64dc7efc02f60401466f0a71,,,,,,,sngl,resources/DY.BMP,resources/Empty.png,Door4,-0.298148155,-0.025925919,1,0,0,0.6817,optionLeft,60,8485,4,24,0,24,0,1,,,,,,,,,,,,,,,,,,,,,,,,,,,,,,,,,,,,,,,
,,,,,,,,2023-08-16_08h54.43.681,HF_wild_card,2022.2.4,Win32,59.94485074,63f8b081b083f1e1014cb21a,64d2fd46c836a06233681665,64dc7efc02f60401466f0a71,,,,,,,sngl,resources/DB.BMP,resources/Empty.png,WildCard_NonEx,-0.336111104,-0.009259259,1,0,0,0.5615,optionLeft,55,8540,4,25,0,25,0,1,,,,,,,,,,,,,,,,,,,,,,,,,,,,,,,,,,,,,,,
,,,,,,,,2023-08-16_08h54.43.681,HF_wild_card,2022.2.4,Win32,59.94485074,63f8b081b083f1e1014cb21a,64d2fd46c836a06233681665,64dc7efc02f60401466f0a71,,,,,,,decisionTrl,resources/DY.BMP,resources/DR.BMP,Door4,-0.255555541,0.026851831,1,0,0,0.9155,optionLeft,60,8600,4,26,0,26,0,1,,,,,,,,,,,,,,,,,,,,,,,,,,,,,,,,,,,,,,,
,,,,,,,,2023-08-16_08h54.43.681,HF_wild_card,2022.2.4,Win32,59.94485074,63f8b081b083f1e1014cb21a,64d2fd46c836a06233681665,64dc7efc02f60401466f0a71,,,,,,,decisionTrl,resources/DG.BMP,resources/DBN.BMP,Door1,-0.289814772,-0.003703718,1,0,0,0.7446,optionLeft,30,8630,4,27,0,27,0,1,,,,,,,,,,,,,,,,,,,,,,,,,,,,,,,,,,,,,,,
,,,,,,,,2023-08-16_08h54.43.681,HF_wild_card,2022.2.4,Win32,59.94485074,63f8b081b083f1e1014cb21a,64d2fd46c836a06233681665,64dc7efc02f60401466f0a71,,,,,,,decisionTrl,resources/DR.BMP,resources/DY.BMP,Door4,0.325000057,-0.022222236,1,0,0,0.8982,optionRight,80,8710,4,28,0,28,0,1,,,,,,,,,,,,,,,,,,,,,,,,,,,,,,,,,,,,,,,
,,,,,,,,2023-08-16_08h54.43.681,HF_wild_card,2022.2.4,Win32,59.94485074,63f8b081b083f1e1014cb21a,64d2fd46c836a06233681665,64dc7efc02f60401466f0a71,,,,,,,decisionTrl,resources/DY.BMP,resources/DR.BMP,Door4,-0.143518519,-0.022222236,1,0,0,0.6984,optionLeft,60,8770,4,29,0,29,0,1,,,,,,,,,,,,,,,,,,,,,,,,,,,,,,,,,,,,,,,
,,,,,,,,2023-08-16_08h54.43.681,HF_wild_card,2022.2.4,Win32,59.94485074,63f8b081b083f1e1014cb21a,64d2fd46c836a06233681665,64dc7efc02f60401466f0a71,,,,,,,sngl,resources/DBN.BMP,resources/Empty.png,Door2,-0.252777735,-0.050925926,1,0,0,0.7187,optionLeft,20,8790,4,30,0,30,0,1,,,,,,,,,,,,,,,,,,,,,,,,,,,,,,,,,,,,,,,
,,,,,,,,2023-08-16_08h54.43.681,HF_wild_card,2022.2.4,Win32,59.94485074,63f8b081b083f1e1014cb21a,64d2fd46c836a06233681665,64dc7efc02f60401466f0a71,,,,,,,decisionTrl,resources/DBN.BMP,resources/DG.BMP,Door1,0.393518519,0.030555548,1,0,0,1.5649,optionRight,30,8820,4,31,0,31,0,1,,,,,,,,,,,,,,,,,,,,,,,,,,,,,,,,,,,,,,,
,,,,,,,,2023-08-16_08h54.43.681,HF_wild_card,2022.2.4,Win32,59.94485074,63f8b081b083f1e1014cb21a,64d2fd46c836a06233681665,64dc7efc02f60401466f0a71,,,,,,,sngl,resources/Empty.png,resources/DB.BMP,WildCard_NonEx,0.311111168,0.01203703,1,0,0,0.6746,optionRight,55,8875,4,32,0,32,0,1,,,,,,,,,,,,,,,,,,,,,,,,,,,,,,,,,,,,,,,
,,,,,,,,2023-08-16_08h54.43.681,HF_wild_card,2022.2.4,Win32,59.94485074,63f8b081b083f1e1014cb21a,64d2fd46c836a06233681665,64dc7efc02f60401466f0a71,,,,,,,decisionTrl,resources/DB.BMP,resources/DBN.BMP,WildCard_NonEx,-0.395370377,0.049074067,1,0,0,1.0482,optionLeft,45,8920,4,33,0,33,0,1,,,,,,,,,,,,,,,,,,,,,,,,,,,,,,,,,,,,,,,
,,,,,,,,2023-08-16_08h54.43.681,HF_wild_card,2022.2.4,Win32,59.94485074,63f8b081b083f1e1014cb21a,64d2fd46c836a06233681665,64dc7efc02f60401466f0a71,,,,,,,ctch,resources/DY.BMP,resources/DG.BMP,Door4,-0.290740755,-0.027777778,1,0,0,1.2857,optionLeft,60,8980,4,34,0,34,0,1,,,,,,,,,,,,,,,,,,,,,,,,,,,,,,,,,,,,,,,
,,,,,,,,2023-08-16_08h54.43.681,HF_wild_card,2022.2.4,Win32,59.94485074,63f8b081b083f1e1014cb21a,64d2fd46c836a06233681665,64dc7efc02f60401466f0a71,,,,,,,ctch,resources/DBN.BMP,resources/DR.BMP,Door3,0.359259288,-0.025925919,1,0,0,0.9666,optionRight,70,9050,4,35,0,35,0,1,,,,,,,,,,,,,,,,,,,,,,,,,,,,,,,,,,,,,,,
,,,,,,,,2023-08-16_08h54.43.681,HF_wild_card,2022.2.4,Win32,59.94485074,63f8b081b083f1e1014cb21a,64d2fd46c836a06233681665,64dc7efc02f60401466f0a71,,,,,,,ctch,resources/DG.BMP,resources/DY.BMP,Door4,0.316666638,-0.039814808,1,0,0,0.7519,optionRight,60,9110,4,36,0,36,0,1,,,,,,,,,,,,,,,,,,,,,,,,,,,,,,,,,,,,,,,
,,,,,,,,2023-08-16_08h54.43.681,HF_wild_card,2022.2.4,Win32,59.94485074,63f8b081b083f1e1014cb21a,64d2fd46c836a06233681665,64dc7efc02f60401466f0a71,,,,,,,decisionTrl,resources/DBN.BMP,resources/DB.BMP,WildCard_NonEx,0.285185213,-0.019444466,1,0,0,0.7632,optionRight,45,9155,4,37,0,37,0,1,,,,,,,,,,,,,,,,,,,,,,,,,,,,,,,,,,,,,,,
,,,,,,,,2023-08-16_08h54.43.681,HF_wild_card,2022.2.4,Win32,59.94485074,63f8b081b083f1e1014cb21a,64d2fd46c836a06233681665,64dc7efc02f60401466f0a71,,,,,,,decisionTrl,resources/DBN.BMP,resources/DG.BMP,Door1,0.346296381,-0.0074074,1,0,0,1.0657,optionRight,30,9185,4,38,0,38,0,1,,,,,,,,,,,,,,,,,,,,,,,,,,,,,,,,,,,,,,,
,,,,,,,,2023-08-16_08h54.43.681,HF_wild_card,2022.2.4,Win32,59.94485074,63f8b081b083f1e1014cb21a,64d2fd46c836a06233681665,64dc7efc02f60401466f0a71,,,,,,,decisionTrl,resources/DBN.BMP,resources/DG.BMP,Door1,0.477777834,-0.047222243,1,0,0,0.7604,optionRight,30,9215,4,39,0,39,0,1,,,,,,,,,,,,,,,,,,,,,,,,,,,,,,,,,,,,,,,
,,,,,,,,2023-08-16_08h54.43.681,HF_wild_card,2022.2.4,Win32,59.94485074,63f8b081b083f1e1014cb21a,64d2fd46c836a06233681665,64dc7efc02f60401466f0a71,,,,,,,decisionTrl,resources/DR.BMP,resources/DY.BMP,Door4,0.308333362,-0.045370384,1,0,0,0.9984,optionRight,60,9275,4,40,0,40,0,1,,,,,,,,,,,,,,,,,,,,,,,,,,,,,,,,,,,,,,,
,,,,,,,,2023-08-16_08h54.43.681,HF_wild_card,2022.2.4,Win32,59.94485074,63f8b081b083f1e1014cb21a,64d2fd46c836a06233681665,64dc7efc02f60401466f0a71,,,,,,,decisionTrl,resources/DBN.BMP,resources/DG.BMP,Door1,0.324074074,-0.002777771,1,0,0,0.7158,optionRight,30,9305,4,41,0,41,0,1,,,,,,,,,,,,,,,,,,,,,,,,,,,,,,,,,,,,,,,
,,,,,,,,2023-08-16_08h54.43.681,HF_wild_card,2022.2.4,Win32,59.94485074,63f8b081b083f1e1014cb21a,64d2fd46c836a06233681665,64dc7efc02f60401466f0a71,,,,,,,ctch,resources/DR.BMP,resources/DBN.BMP,Door3,-0.313888868,-0.024074095,1,0,0,0.8644,optionLeft,70,9375,4,42,0,42,0,1,,,,,,,,,,,,,,,,,,,,,,,,,,,,,,,,,,,,,,,
,,,,,,,,2023-08-16_08h54.43.681,HF_wild_card,2022.2.4,Win32,59.94485074,63f8b081b083f1e1014cb21a,64d2fd46c836a06233681665,64dc7efc02f60401466f0a71,,,,,,,decisionTrl,resources/DG.BMP,resources/DBN.BMP,Door1,-0.409259266,0.022222201,1,0,0,0.8971,optionLeft,30,9405,4,43,0,43,0,1,,,,,,,,,,,,,,,,,,,,,,,,,,,,,,,,,,,,,,,
,,,,,,,,2023-08-16_08h54.43.681,HF_wild_card,2022.2.4,Win32,59.94485074,63f8b081b083f1e1014cb21a,64d2fd46c836a06233681665,64dc7efc02f60401466f0a71,,,,,,,,,,,,,,,,,,,,,,,,,,3,0,3,0,1,,,,,,,,,,,,,,,,,,,,,,,,,,,,,,,,,,
,,,,,,,,2023-08-16_08h54.43.681,HF_wild_card,2022.2.4,Win32,59.94485074,63f8b081b083f1e1014cb21a,64d2fd46c836a06233681665,64dc7efc02f60401466f0a71,,,,,,,sngl,resources/Empty.png,resources/DY.BMP,Door4,0.339814787,-0.050925926,1,0,0,0.7456,optionRight,60,9465,5,0,0,0,0,1,,,,,,,,,,,,,,,,,,,,,,,,,,,,,,,,,,,,,,,
,,,,,,,,2023-08-16_08h54.43.681,HF_wild_card,2022.2.4,Win32,59.94485074,63f8b081b083f1e1014cb21a,64d2fd46c836a06233681665,64dc7efc02f60401466f0a71,,,,,,,decisionTrl,resources/DY.BMP,resources/DR.BMP,Door4,-0.244444459,-0.018518519,1,0,0,1.1971,optionLeft,60,9525,5,1,0,1,0,1,,,,,,,,,,,,,,,,,,,,,,,,,,,,,,,,,,,,,,,
,,,,,,,,2023-08-16_08h54.43.681,HF_wild_card,2022.2.4,Win32,59.94485074,63f8b081b083f1e1014cb21a,64d2fd46c836a06233681665,64dc7efc02f60401466f0a71,,,,,,,sngl,resources/Empty.png,resources/DR.BMP,Door3,0.377777806,-0.020370377,1,0,0,0.6591,optionRight,70,9595,5,2,0,2,0,1,,,,,,,,,,,,,,,,,,,,,,,,,,,,,,,,,,,,,,,
,,,,,,,,2023-08-16_08h54.43.681,HF_wild_card,2022.2.4,Win32,59.94485074,63f8b081b083f1e1014cb21a,64d2fd46c836a06233681665,64dc7efc02f60401466f0a71,,,,,,,sngl,resources/Empty.png,resources/DB.BMP,WildCard_NonEx,0.392592677,-0.046296296,1,0,0,0.5822,optionRight,55,9650,5,3,0,3,0,1,,,,,,,,,,,,,,,,,,,,,,,,,,,,,,,,,,,,,,,
,,,,,,,,2023-08-16_08h54.43.681,HF_wild_card,2022.2.4,Win32,59.94485074,63f8b081b083f1e1014cb21a,64d2fd46c836a06233681665,64dc7efc02f60401466f0a71,,,,,,,sngl,resources/Empty.png,resources/DBN.BMP,Door2,0.290740755,0.01203703,1,0,0,0.7023,optionRight,20,9670,5,4,0,4,0,1,,,,,,,,,,,,,,,,,,,,,,,,,,,,,,,,,,,,,,,
,,,,,,,,2023-08-16_08h54.43.681,HF_wild_card,2022.2.4,Win32,59.94485074,63f8b081b083f1e1014cb21a,64d2fd46c836a06233681665,64dc7efc02f60401466f0a71,,,,,,,decisionTrl,resources/DBN.BMP,resources/DG.BMP,Door1,0.285185213,-0.038888896,1,0,0,0.9935,optionRight,30,9700,5,5,0,5,0,1,,,,,,,,,,,,,,,,,,,,,,,,,,,,,,,,,,,,,,,
,,,,,,,,2023-08-16_08h54.43.681,HF_wild_card,2022.2.4,Win32,59.94485074,63f8b081b083f1e1014cb21a,64d2fd46c836a06233681665,64dc7efc02f60401466f0a71,,,,,,,decisionTrl,resources/DBN.BMP,resources/DB.BMP,WildCard_NonEx,0.325000057,-0.050925926,1,0,0,0.7944,optionRight,55,9755,5,6,0,6,0,1,,,,,,,,,,,,,,,,,,,,,,,,,,,,,,,,,,,,,,,
,,,,,,,,2023-08-16_08h54.43.681,HF_wild_card,2022.2.4,Win32,59.94485074,63f8b081b083f1e1014cb21a,64d2fd46c836a06233681665,64dc7efc02f60401466f0a71,,,,,,,sngl,resources/DR.BMP,resources/Empty.png,Door3,-0.3824074,0.022222201,1,0,0,0.5996,optionLeft,70,9825,5,7,0,7,0,1,,,,,,,,,,,,,,,,,,,,,,,,,,,,,,,,,,,,,,,
,,,,,,,,2023-08-16_08h54.43.681,HF_wild_card,2022.2.4,Win32,59.94485074,63f8b081b083f1e1014cb21a,64d2fd46c836a06233681665,64dc7efc02f60401466f0a71,,,,,,,decisionTrl,resources/DG.BMP,resources/DBN.BMP,Door1,-0.339814822,-0.033333355,1,0,0,1.0582,optionLeft,30,9855,5,8,0,8,0,1,,,,,,,,,,,,,,,,,,,,,,,,,,,,,,,,,,,,,,,
,,,,,,,,2023-08-16_08h54.43.681,HF_wild_card,2022.2.4,Win32,59.94485074,63f8b081b083f1e1014cb21a,64d2fd46c836a06233681665,64dc7efc02f60401466f0a71,,,,,,,ctch,resources/DY.BMP,resources/DG.BMP,Door4,-0.299074067,-0.00462963,1,0,0,1.1932,optionLeft,60,9915,5,9,0,9,0,1,,,,,,,,,,,,,,,,,,,,,,,,,,,,,,,,,,,,,,,
,,,,,,,,2023-08-16_08h54.43.681,HF_wild_card,2022.2.4,Win32,59.94485074,63f8b081b083f1e1014cb21a,64d2fd46c836a06233681665,64dc7efc02f60401466f0a71,,,,,,,decisionTrl,resources/DY.BMP,resources/DB.BMP,Door4,-0.416666667,0.01944443,1,0,0,1.5419,optionLeft,60,9975,5,10,0,10,0,1,,,,,,,,,,,,,,,,,,,,,,,,,,,,,,,,,,,,,,,
,,,,,,,,2023-08-16_08h54.43.681,HF_wild_card,2022.2.4,Win32,59.94485074,63f8b081b083f1e1014cb21a,64d2fd46c836a06233681665,64dc7efc02f60401466f0a71,,,,,,,ctch,resources/DG.BMP,resources/DY.BMP,Door4,0.33148151,0.002777771,1,0,0,0.731,optionRight,60,10035,5,11,0,11,0,1,,,,,,,,,,,,,,,,,,,,,,,,,,,,,,,,,,,,,,,
,,,,,,,,2023-08-16_08h54.43.681,HF_wild_card,2022.2.4,Win32,59.94485074,63f8b081b083f1e1014cb21a,64d2fd46c836a06233681665,64dc7efc02f60401466f0a71,,,,,,,decisionTrl,resources/DBN.BMP,resources/DG.BMP,Door1,0.252777806,-0.055555556,1,0,0,0.6973,optionRight,30,10065,5,12,0,12,0,1,,,,,,,,,,,,,,,,,,,,,,,,,,,,,,,,,,,,,,,
,,,,,,,,2023-08-16_08h54.43.681,HF_wild_card,2022.2.4,Win32,59.94485074,63f8b081b083f1e1014cb21a,64d2fd46c836a06233681665,64dc7efc02f60401466f0a71,,,,,,,ctch,resources/DR.BMP,resources/DBN.BMP,Door3,-0.454629616,-0.009259259,1,0,0,0.6279,optionLeft,70,10135,5,13,0,13,0,1,,,,,,,,,,,,,,,,,,,,,,,,,,,,,,,,,,,,,,,
,,,,,,,,2023-08-16_08h54.43.681,HF_wild_card,2022.2.4,Win32,59.94485074,63f8b081b083f1e1014cb21a,64d2fd46c836a06233681665,64dc7efc02f60401466f0a71,,,,,,,sngl,resources/DG.BMP,resources/Empty.png,Door1,-0.440740727,-0.005555577,1,0,0,0.5782,optionLeft,30,10165,5,14,0,14,0,1,,,,,,,,,,,,,,,,,,,,,,,,,,,,,,,,,,,,,,,
,,,,,,,,2023-08-16_08h54.43.681,HF_wild_card,2022.2.4,Win32,59.94485074,63f8b081b083f1e1014cb21a,64d2fd46c836a06233681665,64dc7efc02f60401466f0a71,,,,,,,decisionTrl,resources/DB.BMP,resources/DY.BMP,Door4,0.365740741,-0.013888889,1,0,0,1.2304,optionRight,80,10245,5,15,0,15,0,1,,,,,,,,,,,,,,,,,,,,,,,,,,,,,,,,,,,,,,,
,,,,,,,,2023-08-16_08h54.43.681,HF_wild_card,2022.2.4,Win32,59.94485074,63f8b081b083f1e1014cb21a,64d2fd46c836a06233681665,64dc7efc02f60401466f0a71,,,,,,,decisionTrl,resources/DR.BMP,resources/DY.BMP,Door3,-0.362037023,0.002777771,1,0,0,0.8766,optionLeft,70,10315,5,16,0,16,0,1,,,,,,,,,,,,,,,,,,,,,,,,,,,,,,,,,,,,,,,
,,,,,,,,2023-08-16_08h54.43.681,HF_wild_card,2022.2.4,Win32,59.94485074,63f8b081b083f1e1014cb21a,64d2fd46c836a06233681665,64dc7efc02f60401466f0a71,,,,,,,decisionTrl,resources/DY.BMP,resources/DR.BMP,Door3,0.275925954,-0.046296296,1,0,0,0.7522,optionRight,70,10385,5,17,0,17,0,1,,,,,,,,,,,,,,,,,,,,,,,,,,,,,,,,,,,,,,,
,,,,,,,,2023-08-16_08h54.43.681,HF_wild_card,2022.2.4,Win32,59.94485074,63f8b081b083f1e1014cb21a,64d2fd46c836a06233681665,64dc7efc02f60401466f0a71,,,,,,,sngl,resources/Empty.png,resources/DG.BMP,Door1,0.438888974,-0.026851866,1,0,0,0.7771,optionRight,30,10415,5,18,0,18,0,1,,,,,,,,,,,,,,,,,,,,,,,,,,,,,,,,,,,,,,,
,,,,,,,,2023-08-16_08h54.43.681,HF_wild_card,2022.2.4,Win32,59.94485074,63f8b081b083f1e1014cb21a,64d2fd46c836a06233681665,64dc7efc02f60401466f0a71,,,,,,,ctch,resources/DG.BMP,resources/DY.BMP,Door4,0.299074102,-0.029629637,1,0,0,0.765,optionRight,60,10475,5,19,0,19,0,1,,,,,,,,,,,,,,,,,,,,,,,,,,,,,,,,,,,,,,,
,,,,,,,,2023-08-16_08h54.43.681,HF_wild_card,2022.2.4,Win32,59.94485074,63f8b081b083f1e1014cb21a,64d2fd46c836a06233681665,64dc7efc02f60401466f0a71,,,,,,,decisionTrl,resources/DR.BMP,resources/DY.BMP,Door3,-0.362037023,0.023148148,1,0,0,0.6849,optionLeft,70,10545,5,20,0,20,0,1,,,,,,,,,,,,,,,,,,,,,,,,,,,,,,,,,,,,,,,
,,,,,,,,2023-08-16_08h54.43.681,HF_wild_card,2022.2.4,Win32,59.94485074,63f8b081b083f1e1014cb21a,64d2fd46c836a06233681665,64dc7efc02f60401466f0a71,,,,,,,decisionTrl,resources/DB.BMP,resources/DG.BMP,WildCard_NonEx,-0.425925926,0.005555541,1,0,0,1.199,optionLeft,55,10600,5,21,0,21,0,1,,,,,,,,,,,,,,,,,,,,,,,,,,,,,,,,,,,,,,,
,,,,,,,,2023-08-16_08h54.43.681,HF_wild_card,2022.2.4,Win32,59.94485074,63f8b081b083f1e1014cb21a,64d2fd46c836a06233681665,64dc7efc02f60401466f0a71,,,,,,,decisionTrl,resources/DG.BMP,resources/DBN.BMP,Door1,-0.338888875,0.026851831,1,0,0,0.832,optionLeft,30,10630,5,22,0,22,0,1,,,,,,,,,,,,,,,,,,,,,,,,,,,,,,,,,,,,,,,
,,,,,,,,2023-08-16_08h54.43.681,HF_wild_card,2022.2.4,Win32,59.94485074,63f8b081b083f1e1014cb21a,64d2fd46c836a06233681665,64dc7efc02f60401466f0a71,,,,,,,decisionTrl,resources/DY.BMP,resources/DR.BMP,Door3,0.522222307,0.043518526,1,0,0,1.2184,optionRight,70,10700,5,23,0,23,0,1,,,,,,,,,,,,,,,,,,,,,,,,,,,,,,,,,,,,,,,
,,,,,,,,2023-08-16_08h54.43.681,HF_wild_card,2022.2.4,Win32,59.94485074,63f8b081b083f1e1014cb21a,64d2fd46c836a06233681665,64dc7efc02f60401466f0a71,,,,,,,ctch,resources/DBN.BMP,resources/DR.BMP,Door3,0.303703732,-0.037037037,1,0,0,0.8142,optionRight,70,10770,5,24,0,24,0,1,,,,,,,,,,,,,,,,,,,,,,,,,,,,,,,,,,,,,,,
,,,,,,,,2023-08-16_08h54.43.681,HF_wild_card,2022.2.4,Win32,59.94485074,63f8b081b083f1e1014cb21a,64d2fd46c836a06233681665,64dc7efc02f60401466f0a71,,,,,,,decisionTrl,resources/DBN.BMP,resources/DG.BMP,Door1,0.453703704,0.013888889,1,0,0,0.91,optionRight,30,10800,5,25,0,25,0,1,,,,,,,,,,,,,,,,,,,,,,,,,,,,,,,,,,,,,,,
,,,,,,,,2023-08-16_08h54.43.681,HF_wild_card,2022.2.4,Win32,59.94485074,63f8b081b083f1e1014cb21a,64d2fd46c836a06233681665,64dc7efc02f60401466f0a71,,,,,,,decisionTrl,resources/DBN.BMP,resources/DG.BMP,Door1,0.465740769,0.044444437,1,0,0,0.7763,optionRight,30,10830,5,26,0,26,0,1,,,,,,,,,,,,,,,,,,,,,,,,,,,,,,,,,,,,,,,
,,,,,,,,2023-08-16_08h54.43.681,HF_wild_card,2022.2.4,Win32,59.94485074,63f8b081b083f1e1014cb21a,64d2fd46c836a06233681665,64dc7efc02f60401466f0a71,,,,,,,ctch,resources/DBN.BMP,resources/DR.BMP,Door3,0.368518547,-0.019444466,1,0,0,0.7653,optionRight,70,10900,5,27,0,27,0,1,,,,,,,,,,,,,,,,,,,,,,,,,,,,,,,,,,,,,,,
,,,,,,,,2023-08-16_08h54.43.681,HF_wild_card,2022.2.4,Win32,59.94485074,63f8b081b083f1e1014cb21a,64d2fd46c836a06233681665,64dc7efc02f60401466f0a71,,,,,,,decisionTrl,resources/DR.BMP,resources/DY.BMP,Door3,-0.368518511,-0.018518519,1,0,0,0.6942,optionLeft,70,10970,5,28,0,28,0,1,,,,,,,,,,,,,,,,,,,,,,,,,,,,,,,,,,,,,,,
,,,,,,,,2023-08-16_08h54.43.681,HF_wild_card,2022.2.4,Win32,59.94485074,63f8b081b083f1e1014cb21a,64d2fd46c836a06233681665,64dc7efc02f60401466f0a71,,,,,,,sngl,resources/DB.BMP,resources/Empty.png,WildCard_NonEx,-0.29351849,-0.037037037,1,0,0,0.6146,optionLeft,45,11015,5,29,0,29,0,1,,,,,,,,,,,,,,,,,,,,,,,,,,,,,,,,,,,,,,,
,,,,,,,,2023-08-16_08h54.43.681,HF_wild_card,2022.2.4,Win32,59.94485074,63f8b081b083f1e1014cb21a,64d2fd46c836a06233681665,64dc7efc02f60401466f0a71,,,,,,,decisionTrl,resources/DB.BMP,resources/DR.BMP,Door3,0.315740797,-0.025000007,1,0,0,1.4776,optionRight,70,11085,5,30,0,30,0,1,,,,,,,,,,,,,,,,,,,,,,,,,,,,,,,,,,,,,,,
,,,,,,,,2023-08-16_08h54.43.681,HF_wild_card,2022.2.4,Win32,59.94485074,63f8b081b083f1e1014cb21a,64d2fd46c836a06233681665,64dc7efc02f60401466f0a71,,,,,,,sngl,resources/DY.BMP,resources/Empty.png,Door4,-0.360185164,0.005555541,1,0,0,0.7159,optionLeft,80,11165,5,31,0,31,0,1,,,,,,,,,,,,,,,,,,,,,,,,,,,,,,,,,,,,,,,
,,,,,,,,2023-08-16_08h54.43.681,HF_wild_card,2022.2.4,Win32,59.94485074,63f8b081b083f1e1014cb21a,64d2fd46c836a06233681665,64dc7efc02f60401466f0a71,,,,,,,decisionTrl,resources/DG.BMP,resources/DBN.BMP,Door1,-0.3675926,0.018518519,1,0,0,1.3769,optionLeft,30,11195,5,32,0,32,0,1,,,,,,,,,,,,,,,,,,,,,,,,,,,,,,,,,,,,,,,
,,,,,,,,2023-08-16_08h54.43.681,HF_wild_card,2022.2.4,Win32,59.94485074,63f8b081b083f1e1014cb21a,64d2fd46c836a06233681665,64dc7efc02f60401466f0a71,,,,,,,ctch,resources/DY.BMP,resources/DG.BMP,Door1,0.350000028,-0.040740755,1,0,0,0.6013,optionRight,30,11225,5,33,0,33,0,1,,,,,,,,,,,,,,,,,,,,,,,,,,,,,,,,,,,,,,,
,,,,,,,,2023-08-16_08h54.43.681,HF_wild_card,2022.2.4,Win32,59.94485074,63f8b081b083f1e1014cb21a,64d2fd46c836a06233681665,64dc7efc02f60401466f0a71,,,,,,,decisionTrl,resources/DG.BMP,resources/DB.BMP,WildCard_NonEx,0.317592621,-0.005555577,1,0,0,1.9643,optionRight,55,11280,5,34,0,34,0,1,,,,,,,,,,,,,,,,,,,,,,,,,,,,,,,,,,,,,,,
,,,,,,,,2023-08-16_08h54.43.681,HF_wild_card,2022.2.4,Win32,59.94485074,63f8b081b083f1e1014cb21a,64d2fd46c836a06233681665,64dc7efc02f60401466f0a71,,,,,,,sngl,resources/DBN.BMP,resources/Empty.png,Door2,-0.354629623,0.029629637,1,0,0,0.5823,optionLeft,40,11320,5,35,0,35,0,1,,,,,,,,,,,,,,,,,,,,,,,,,,,,,,,,,,,,,,,
,,,,,,,,2023-08-16_08h54.43.681,HF_wild_card,2022.2.4,Win32,59.94485074,63f8b081b083f1e1014cb21a,64d2fd46c836a06233681665,64dc7efc02f60401466f0a71,,,,,,,sngl,resources/Empty.png,resources/DB.BMP,WildCard_NonEx,0.288888931,0,1,0,0,0.6364,optionRight,45,11365,5,36,0,36,0,1,,,,,,,,,,,,,,,,,,,,,,,,,,,,,,,,,,,,,,,
,,,,,,,,2023-08-16_08h54.43.681,HF_wild_card,2022.2.4,Win32,59.94485074,63f8b081b083f1e1014cb21a,64d2fd46c836a06233681665,64dc7efc02f60401466f0a71,,,,,,,ctch,resources/DR.BMP,resources/DBN.BMP,Door3,-0.312962956,-0.010185206,1,0,0,0.9338,optionLeft,70,11435,5,37,0,37,0,1,,,,,,,,,,,,,,,,,,,,,,,,,,,,,,,,,,,,,,,
,,,,,,,,2023-08-16_08h54.43.681,HF_wild_card,2022.2.4,Win32,59.94485074,63f8b081b083f1e1014cb21a,64d2fd46c836a06233681665,64dc7efc02f60401466f0a71,,,,,,,sngl,resources/DB.BMP,resources/Empty.png,WildCard_NonEx,-0.3675926,0.022222201,1,0,0,0.6472,optionLeft,55,11490,5,38,0,38,0,1,,,,,,,,,,,,,,,,,,,,,,,,,,,,,,,,,,,,,,,
,,,,,,,,2023-08-16_08h54.43.681,HF_wild_card,2022.2.4,Win32,59.94485074,63f8b081b083f1e1014cb21a,64d2fd46c836a06233681665,64dc7efc02f60401466f0a71,,,,,,,decisionTrl,resources/DR.BMP,resources/DY.BMP,Door3,-0.252777735,0.025000007,1,0,0,1.2612,optionLeft,70,11560,5,39,0,39,0,1,,,,,,,,,,,,,,,,,,,,,,,,,,,,,,,,,,,,,,,
,,,,,,,,2023-08-16_08h54.43.681,HF_wild_card,2022.2.4,Win32,59.94485074,63f8b081b083f1e1014cb21a,64d2fd46c836a06233681665,64dc7efc02f60401466f0a71,,,,,,,decisionTrl,resources/DB.BMP,resources/DBN.BMP,WildCard_NonEx,-0.366666653,-0.010185206,1,0,0,1.123,optionLeft,55,11615,5,40,0,40,0,1,,,,,,,,,,,,,,,,,,,,,,,,,,,,,,,,,,,,,,,
,,,,,,,,2023-08-16_08h54.43.681,HF_wild_card,2022.2.4,Win32,59.94485074,63f8b081b083f1e1014cb21a,64d2fd46c836a06233681665,64dc7efc02f60401466f0a71,,,,,,,decisionTrl,resources/DY.BMP,resources/DR.BMP,Door3,0.305555556,-0.025925919,1,0,0,1.1537,optionRight,70,11685,5,41,0,41,0,1,,,,,,,,,,,,,,,,,,,,,,,,,,,,,,,,,,,,,,,
,,,,,,,,2023-08-16_08h54.43.681,HF_wild_card,2022.2.4,Win32,59.94485074,63f8b081b083f1e1014cb21a,64d2fd46c836a06233681665,64dc7efc02f60401466f0a71,,,,,,,decisionTrl,resources/DR.BMP,resources/DB.BMP,Door3,-0.36296297,-0.005555577,1,0,0,1.7432,optionLeft,70,11755,5,42,0,42,0,1,,,,,,,,,,,,,,,,,,,,,,,,,,,,,,,,,,,,,,,
,,,,,,,,2023-08-16_08h54.43.681,HF_wild_card,2022.2.4,Win32,59.94485074,63f8b081b083f1e1014cb21a,64d2fd46c836a06233681665,64dc7efc02f60401466f0a71,,,,,,,decisionTrl,resources/DG.BMP,resources/DBN.BMP,Door1,-0.312962956,0,1,0,0,0.9822,optionLeft,30,11785,5,43,0,43,0,1,,,,,,,,,,,,,,,,,,,,,,,,,,,,,,,,,,,,,,,
,,,,,,,,2023-08-16_08h54.43.681,HF_wild_card,2022.2.4,Win32,59.94485074,63f8b081b083f1e1014cb21a,64d2fd46c836a06233681665,64dc7efc02f60401466f0a71,,,,,,,,,,,,,,,,,,,,,,,,,,4,0,4,0,1,,,,,,,,,,,,,,,,,,,,,,,,,,,,,,,,,,
,,,,,,,,2023-08-16_08h54.43.681,HF_wild_card,2022.2.4,Win32,59.94485074,63f8b081b083f1e1014cb21a,64d2fd46c836a06233681665,64dc7efc02f60401466f0a71,,,,,,,decisionTrl,resources/DBN.BMP,resources/DB.BMP,WildCard_NonEx,0.422222279,-0.040740755,1,0,0,0.9962,optionRight,45,11830,6,0,0,0,0,1,,,,,,,,,,,,,,,,,,,,,,,,,,,,,,,,,,,,,,,
,,,,,,,,2023-08-16_08h54.43.681,HF_wild_card,2022.2.4,Win32,59.94485074,63f8b081b083f1e1014cb21a,64d2fd46c836a06233681665,64dc7efc02f60401466f0a71,,,,,,,ctch,resources/DG.BMP,resources/DY.BMP,Door4,0.433333362,-0.01666666,1,0,0,1.5652,optionRight,80,11910,6,1,0,1,0,1,,,,,,,,,,,,,,,,,,,,,,,,,,,,,,,,,,,,,,,
,,,,,,,,2023-08-16_08h54.43.681,HF_wild_card,2022.2.4,Win32,59.94485074,63f8b081b083f1e1014cb21a,64d2fd46c836a06233681665,64dc7efc02f60401466f0a71,,,,,,,decisionTrl,resources/DG.BMP,resources/DBN.BMP,Door1,-0.383333312,-0.040740755,1,0,0,0.7503,optionLeft,30,11940,6,2,0,2,0,1,,,,,,,,,,,,,,,,,,,,,,,,,,,,,,,,,,,,,,,
,,,,,,,,2023-08-16_08h54.43.681,HF_wild_card,2022.2.4,Win32,59.94485074,63f8b081b083f1e1014cb21a,64d2fd46c836a06233681665,64dc7efc02f60401466f0a71,,,,,,,ctch,resources/DR.BMP,resources/DBN.BMP,Door3,-0.484259252,-0.021296289,1,0,0,0.8153,optionLeft,70,12010,6,3,0,3,0,1,,,,,,,,,,,,,,,,,,,,,,,,,,,,,,,,,,,,,,,
,,,,,,,,2023-08-16_08h54.43.681,HF_wild_card,2022.2.4,Win32,59.94485074,63f8b081b083f1e1014cb21a,64d2fd46c836a06233681665,64dc7efc02f60401466f0a71,,,,,,,sngl,resources/Empty.png,resources/DBN.BMP,Door2,0.454629686,-0.050000014,1,0,0,2.082,optionRight,40,12050,6,4,0,4,0,1,,,,,,,,,,,,,,,,,,,,,,,,,,,,,,,,,,,,,,,
,,,,,,,,2023-08-16_08h54.43.681,HF_wild_card,2022.2.4,Win32,59.94485074,63f8b081b083f1e1014cb21a,64d2fd46c836a06233681665,64dc7efc02f60401466f0a71,,,,,,,decisionTrl,resources/DY.BMP,resources/DB.BMP,Door4,-0.408333319,0.013888889,1,0,0,1.1642,optionLeft,60,12110,6,5,0,5,0,1,,,,,,,,,,,,,,,,,,,,,,,,,,,,,,,,,,,,,,,
,,,,,,,,2023-08-16_08h54.43.681,HF_wild_card,2022.2.4,Win32,59.94485074,63f8b081b083f1e1014cb21a,64d2fd46c836a06233681665,64dc7efc02f60401466f0a71,,,,,,,sngl,resources/DB.BMP,resources/Empty.png,WildCard_NonEx,-0.465740734,0.052777785,1,0,0,0.7114,optionLeft,55,12165,6,6,0,6,0,1,,,,,,,,,,,,,,,,,,,,,,,,,,,,,,,,,,,,,,,
,,,,,,,,2023-08-16_08h54.43.681,HF_wild_card,2022.2.4,Win32,59.94485074,63f8b081b083f1e1014cb21a,64d2fd46c836a06233681665,64dc7efc02f60401466f0a71,,,,,,,sngl,resources/Empty.png,resources/DR.BMP,Door3,0.435185185,-0.020370377,1,0,0,0.5648,optionRight,70,12235,6,7,0,7,0,1,,,,,,,,,,,,,,,,,,,,,,,,,,,,,,,,,,,,,,,
,,,,,,,,2023-08-16_08h54.43.681,HF_wild_card,2022.2.4,Win32,59.94485074,63f8b081b083f1e1014cb21a,64d2fd46c836a06233681665,64dc7efc02f60401466f0a71,,,,,,,sngl,resources/DB.BMP,resources/Empty.png,WildCard_NonEx,-0.220370328,-0.031481496,1,0,0,0.6107,optionLeft,45,12280,6,8,0,8,0,1,,,,,,,,,,,,,,,,,,,,,,,,,,,,,,,,,,,,,,,
,,,,,,,,2023-08-16_08h54.43.681,HF_wild_card,2022.2.4,Win32,59.94485074,63f8b081b083f1e1014cb21a,64d2fd46c836a06233681665,64dc7efc02f60401466f0a71,,,,,,,decisionTrl,resources/DY.BMP,resources/DR.BMP,Door3,0.362962935,-0.047222243,1,0,0,1.2818,optionRight,70,12350,6,9,0,9,0,1,,,,,,,,,,,,,,,,,,,,,,,,,,,,,,,,,,,,,,,
,,,,,,,,2023-08-16_08h54.43.681,HF_wild_card,2022.2.4,Win32,59.94485074,63f8b081b083f1e1014cb21a,64d2fd46c836a06233681665,64dc7efc02f60401466f0a71,,,,,,,decisionTrl,resources/DB.BMP,resources/DY.BMP,Door4,0.437037009,-0.061111132,1,0,0,1.2152,optionRight,60,12410,6,10,0,10,0,1,,,,,,,,,,,,,,,,,,,,,,,,,,,,,,,,,,,,,,,
,,,,,,,,2023-08-16_08h54.43.681,HF_wild_card,2022.2.4,Win32,59.94485074,63f8b081b083f1e1014cb21a,64d2fd46c836a06233681665,64dc7efc02f60401466f0a71,,,,,,,decisionTrl,resources/DG.BMP,resources/DBN.BMP,Door1,-0.284259231,-0.032407407,1,0,0,0.7979,optionLeft,30,12440,6,11,0,11,0,1,,,,,,,,,,,,,,,,,,,,,,,,,,,,,,,,,,,,,,,
,,,,,,,,2023-08-16_08h54.43.681,HF_wild_card,2022.2.4,Win32,59.94485074,63f8b081b083f1e1014cb21a,64d2fd46c836a06233681665,64dc7efc02f60401466f0a71,,,,,,,ctch,resources/DY.BMP,resources/DG.BMP,Door4,-0.307407414,0.072222215,1,0,0,0.9818,optionLeft,80,12520,6,12,0,12,0,1,,,,,,,,,,,,,,,,,,,,,,,,,,,,,,,,,,,,,,,
,,,,,,,,2023-08-16_08h54.43.681,HF_wild_card,2022.2.4,Win32,59.94485074,63f8b081b083f1e1014cb21a,64d2fd46c836a06233681665,64dc7efc02f60401466f0a71,,,,,,,decisionTrl,resources/DR.BMP,resources/DY.BMP,Door3,-0.364814794,0.001851859,1,0,0,0.6939,optionLeft,70,12590,6,13,0,13,0,1,,,,,,,,,,,,,,,,,,,,,,,,,,,,,,,,,,,,,,,
,,,,,,,,2023-08-16_08h54.43.681,HF_wild_card,2022.2.4,Win32,59.94485074,63f8b081b083f1e1014cb21a,64d2fd46c836a06233681665,64dc7efc02f60401466f0a71,,,,,,,decisionTrl,resources/DR.BMP,resources/DY.BMP,Door3,-0.408333319,-0.025000007,1,0,0,0.5816,optionLeft,70,12660,6,14,0,14,0,1,,,,,,,,,,,,,,,,,,,,,,,,,,,,,,,,,,,,,,,
,,,,,,,,2023-08-16_08h54.43.681,HF_wild_card,2022.2.4,Win32,59.94485074,63f8b081b083f1e1014cb21a,64d2fd46c836a06233681665,64dc7efc02f60401466f0a71,,,,,,,decisionTrl,resources/DG.BMP,resources/DBN.BMP,Door1,-0.376851859,0.099999993,1,0,0,0.7326,optionLeft,30,12690,6,15,0,15,0,1,,,,,,,,,,,,,,,,,,,,,,,,,,,,,,,,,,,,,,,
,,,,,,,,2023-08-16_08h54.43.681,HF_wild_card,2022.2.4,Win32,59.94485074,63f8b081b083f1e1014cb21a,64d2fd46c836a06233681665,64dc7efc02f60401466f0a71,,,,,,,decisionTrl,resources/DBN.BMP,resources/DG.BMP,Door1,0.362962935,-0.070370392,1,0,0,0.7487,optionRight,30,12720,6,16,0,16,0,1,,,,,,,,,,,,,,,,,,,,,,,,,,,,,,,,,,,,,,,
,,,,,,,,2023-08-16_08h54.43.681,HF_wild_card,2022.2.4,Win32,59.94485074,63f8b081b083f1e1014cb21a,64d2fd46c836a06233681665,64dc7efc02f60401466f0a71,,,,,,,decisionTrl,resources/DG.BMP,resources/DBN.BMP,Door1,-0.326851845,0.001851859,1,0,0,0.5795,optionLeft,30,12750,6,17,0,17,0,1,,,,,,,,,,,,,,,,,,,,,,,,,,,,,,,,,,,,,,,
,,,,,,,,2023-08-16_08h54.43.681,HF_wild_card,2022.2.4,Win32,59.94485074,63f8b081b083f1e1014cb21a,64d2fd46c836a06233681665,64dc7efc02f60401466f0a71,,,,,,,decisionTrl,resources/DBN.BMP,resources/DG.BMP,Door1,0.375,-0.012962977,1,0,0,0.6486,optionRight,30,12780,6,18,0,18,0,1,,,,,,,,,,,,,,,,,,,,,,,,,,,,,,,,,,,,,,,
,,,,,,,,2023-08-16_08h54.43.681,HF_wild_card,2022.2.4,Win32,59.94485074,63f8b081b083f1e1014cb21a,64d2fd46c836a06233681665,64dc7efc02f60401466f0a71,,,,,,,ctch,resources/DBN.BMP,resources/DR.BMP,Door3,0.124074088,0,1,0,0,0.8116,optionRight,70,12850,6,19,0,19,0,1,,,,,,,,,,,,,,,,,,,,,,,,,,,,,,,,,,,,,,,
,,,,,,,,2023-08-16_08h54.43.681,HF_wild_card,2022.2.4,Win32,59.94485074,63f8b081b083f1e1014cb21a,64d2fd46c836a06233681665,64dc7efc02f60401466f0a71,,,,,,,ctch,resources/DG.BMP,resources/DY.BMP,Door4,0.32222225,-0.040740755,1,0,0,1.1199,optionRight,80,12930,6,20,0,20,0,1,,,,,,,,,,,,,,,,,,,,,,,,,,,,,,,,,,,,,,,
,,,,,,,,2023-08-16_08h54.43.681,HF_wild_card,2022.2.4,Win32,59.94485074,63f8b081b083f1e1014cb21a,64d2fd46c836a06233681665,64dc7efc02f60401466f0a71,,,,,,,decisionTrl,resources/DY.BMP,resources/DR.BMP,Door3,0.422222279,-0.072222215,1,0,0,1.5881,optionRight,70,13000,6,21,0,21,0,1,,,,,,,,,,,,,,,,,,,,,,,,,,,,,,,,,,,,,,,
,,,,,,,,2023-08-16_08h54.43.681,HF_wild_card,2022.2.4,Win32,59.94485074,63f8b081b083f1e1014cb21a,64d2fd46c836a06233681665,64dc7efc02f60401466f0a71,,,,,,,decisionTrl,resources/DBN.BMP,resources/DG.BMP,Door1,0.280555584,-0.063888903,1,0,0,0.7109,optionRight,30,13030,6,22,0,22,0,1,,,,,,,,,,,,,,,,,,,,,,,,,,,,,,,,,,,,,,,
,,,,,,,,2023-08-16_08h54.43.681,HF_wild_card,2022.2.4,Win32,59.94485074,63f8b081b083f1e1014cb21a,64d2fd46c836a06233681665,64dc7efc02f60401466f0a71,,,,,,,sngl,resources/Empty.png,resources/DB.BMP,WildCard_NonEx,0.25462963,-0.028703725,1,0,0,0.6092,optionRight,45,13075,6,23,0,23,0,1,,,,,,,,,,,,,,,,,,,,,,,,,,,,,,,,,,,,,,,
,,,,,,,,2023-08-16_08h54.43.681,HF_wild_card,2022.2.4,Win32,59.94485074,63f8b081b083f1e1014cb21a,64d2fd46c836a06233681665,64dc7efc02f60401466f0a71,,,,,,,sngl,resources/Empty.png,resources/DG.BMP,Door1,0.375925982,-0.026851866,1,0,0,0.6649,optionRight,30,13105,6,24,0,24,0,1,,,,,,,,,,,,,,,,,,,,,,,,,,,,,,,,,,,,,,,
,,,,,,,,2023-08-16_08h54.43.681,HF_wild_card,2022.2.4,Win32,59.94485074,63f8b081b083f1e1014cb21a,64d2fd46c836a06233681665,64dc7efc02f60401466f0a71,,,,,,,sngl,resources/Empty.png,resources/DY.BMP,Door4,0.583333333,-0.003703718,1,0,0,0.786,optionRight,80,13185,6,25,0,25,0,1,,,,,,,,,,,,,,,,,,,,,,,,,,,,,,,,,,,,,,,
,,,,,,,,2023-08-16_08h54.43.681,HF_wild_card,2022.2.4,Win32,59.94485074,63f8b081b083f1e1014cb21a,64d2fd46c836a06233681665,64dc7efc02f60401466f0a71,,,,,,,decisionTrl,resources/DY.BMP,resources/DR.BMP,Door3,0.368518547,-0.006481489,1,0,0,1.2317,optionRight,70,13255,6,26,0,26,0,1,,,,,,,,,,,,,,,,,,,,,,,,,,,,,,,,,,,,,,,
,,,,,,,,2023-08-16_08h54.43.681,HF_wild_card,2022.2.4,Win32,59.94485074,63f8b081b083f1e1014cb21a,64d2fd46c836a06233681665,64dc7efc02f60401466f0a71,,,,,,,sngl,resources/DG.BMP,resources/Empty.png,Door1,-0.310185185,-0.024074095,1,0,0,0.6822,optionLeft,30,13285,6,27,0,27,0,1,,,,,,,,,,,,,,,,,,,,,,,,,,,,,,,,,,,,,,,
,,,,,,,,2023-08-16_08h54.43.681,HF_wild_card,2022.2.4,Win32,59.94485074,63f8b081b083f1e1014cb21a,64d2fd46c836a06233681665,64dc7efc02f60401466f0a71,,,,,,,sngl,resources/DBN.BMP,resources/Empty.png,Door2,-0.326851845,0.025000007,1,0,0,0.6823,optionLeft,20,13305,6,28,0,28,0,1,,,,,,,,,,,,,,,,,,,,,,,,,,,,,,,,,,,,,,,
,,,,,,,,2023-08-16_08h54.43.681,HF_wild_card,2022.2.4,Win32,59.94485074,63f8b081b083f1e1014cb21a,64d2fd46c836a06233681665,64dc7efc02f60401466f0a71,,,,,,,decisionTrl,resources/DB.BMP,resources/DG.BMP,WildCard_NonEx,-0.182407379,0.000925912,1,0,0,1.1329,optionLeft,45,13350,6,29,0,29,0,1,,,,,,,,,,,,,,,,,,,,,,,,,,,,,,,,,,,,,,,
,,,,,,,,2023-08-16_08h54.43.681,HF_wild_card,2022.2.4,Win32,59.94485074,63f8b081b083f1e1014cb21a,64d2fd46c836a06233681665,64dc7efc02f60401466f0a71,,,,,,,sngl,resources/Empty.png,resources/DB.BMP,WildCard_NonEx,-0.006481453,-0.009259259,1,0,0,0.3807,optionRight,55,13405,6,30,0,30,0,1,,,,,,,,,,,,,,,,,,,,,,,,,,,,,,,,,,,,,,,
,,,,,,,,2023-08-16_08h54.43.681,HF_wild_card,2022.2.4,Win32,59.94485074,63f8b081b083f1e1014cb21a,64d2fd46c836a06233681665,64dc7efc02f60401466f0a71,,,,,,,ctch,resources/DR.BMP,resources/DBN.BMP,Door3,-0.351851852,0.005555541,1,0,0,0.9993,optionLeft,70,13475,6,31,0,31,0,1,,,,,,,,,,,,,,,,,,,,,,,,,,,,,,,,,,,,,,,
,,,,,,,,2023-08-16_08h54.43.681,HF_wild_card,2022.2.4,Win32,59.94485074,63f8b081b083f1e1014cb21a,64d2fd46c836a06233681665,64dc7efc02f60401466f0a71,,,,,,,sngl,resources/DY.BMP,resources/Empty.png,Door4,-0.202777792,0.008333312,1,0,0,2.0892,optionLeft,60,13535,6,32,0,32,0,1,,,,,,,,,,,,,,,,,,,,,,,,,,,,,,,,,,,,,,,
,,,,,,,,2023-08-16_08h54.43.681,HF_wild_card,2022.2.4,Win32,59.94485074,63f8b081b083f1e1014cb21a,64d2fd46c836a06233681665,64dc7efc02f60401466f0a71,,,,,,,sngl,resources/DR.BMP,resources/Empty.png,Door3,-0.280555513,-0.002777771,1,0,0,0.6554,optionLeft,70,13605,6,33,0,33,0,1,,,,,,,,,,,,,,,,,,,,,,,,,,,,,,,,,,,,,,,
,,,,,,,,2023-08-16_08h54.43.681,HF_wild_card,2022.2.4,Win32,59.94485074,63f8b081b083f1e1014cb21a,64d2fd46c836a06233681665,64dc7efc02f60401466f0a71,,,,,,,ctch,resources/DY.BMP,resources/DG.BMP,Door4,-0.26944443,-0.043518526,1,0,0,1.1012,optionLeft,80,13685,6,34,0,34,0,1,,,,,,,,,,,,,,,,,,,,,,,,,,,,,,,,,,,,,,,
,,,,,,,,2023-08-16_08h54.43.681,HF_wild_card,2022.2.4,Win32,59.94485074,63f8b081b083f1e1014cb21a,64d2fd46c836a06233681665,64dc7efc02f60401466f0a71,,,,,,,ctch,resources/DBN.BMP,resources/DR.BMP,Door3,0.475926011,-0.003703718,1,0,0,0.8173,optionRight,70,13755,6,35,0,35,0,1,,,,,,,,,,,,,,,,,,,,,,,,,,,,,,,,,,,,,,,
,,,,,,,,2023-08-16_08h54.43.681,HF_wild_card,2022.2.4,Win32,59.94485074,63f8b081b083f1e1014cb21a,64d2fd46c836a06233681665,64dc7efc02f60401466f0a71,,,,,,,decisionTrl,resources/DR.BMP,resources/DY.BMP,Door3,-0.312037044,-0.008333347,1,0,0,0.8655,optionLeft,70,13825,6,36,0,36,0,1,,,,,,,,,,,,,,,,,,,,,,,,,,,,,,,,,,,,,,,
,,,,,,,,2023-08-16_08h54.43.681,HF_wild_card,2022.2.4,Win32,59.94485074,63f8b081b083f1e1014cb21a,64d2fd46c836a06233681665,64dc7efc02f60401466f0a71,,,,,,,decisionTrl,resources/DBN.BMP,resources/DG.BMP,Door1,0.356481481,-0.017592607,1,0,0,0.6854,optionRight,30,13855,6,37,0,37,0,1,,,,,,,,,,,,,,,,,,,,,,,,,,,,,,,,,,,,,,,
,,,,,,,,2023-08-16_08h54.43.681,HF_wild_card,2022.2.4,Win32,59.94485074,63f8b081b083f1e1014cb21a,64d2fd46c836a06233681665,64dc7efc02f60401466f0a71,,,,,,,decisionTrl,resources/DR.BMP,resources/DY.BMP,Door3,-0.557407414,-0.136111153,1,0,0,0.999,optionLeft,70,13925,6,38,0,38,0,1,,,,,,,,,,,,,,,,,,,,,,,,,,,,,,,,,,,,,,,
,,,,,,,,2023-08-16_08h54.43.681,HF_wild_card,2022.2.4,Win32,59.94485074,63f8b081b083f1e1014cb21a,64d2fd46c836a06233681665,64dc7efc02f60401466f0a71,,,,,,,decisionTrl,resources/DB.BMP,resources/DR.BMP,Door3,0.339814787,0.021296289,1,0,0,0.8826,optionRight,70,13995,6,39,0,39,0,1,,,,,,,,,,,,,,,,,,,,,,,,,,,,,,,,,,,,,,,
,,,,,,,,2023-08-16_08h54.43.681,HF_wild_card,2022.2.4,Win32,59.94485074,63f8b081b083f1e1014cb21a,64d2fd46c836a06233681665,64dc7efc02f60401466f0a71,,,,,,,decisionTrl,resources/DB.BMP,resources/DBN.BMP,WildCard_NonEx,-0.134259259,0.010185171,1,0,0,0.7982,optionLeft,45,14040,6,40,0,40,0,1,,,,,,,,,,,,,,,,,,,,,,,,,,,,,,,,,,,,,,,
,,,,,,,,2023-08-16_08h54.43.681,HF_wild_card,2022.2.4,Win32,59.94485074,63f8b081b083f1e1014cb21a,64d2fd46c836a06233681665,64dc7efc02f60401466f0a71,,,,,,,decisionTrl,resources/DR.BMP,resources/DB.BMP,Door3,-0.296296296,0.002777771,1,0,0,1.1688,optionLeft,70,14110,6,41,0,41,0,1,,,,,,,,,,,,,,,,,,,,,,,,,,,,,,,,,,,,,,,
,,,,,,,,2023-08-16_08h54.43.681,HF_wild_card,2022.2.4,Win32,59.94485074,63f8b081b083f1e1014cb21a,64d2fd46c836a06233681665,64dc7efc02f60401466f0a71,,,,,,,decisionTrl,resources/DY.BMP,resources/DR.BMP,Door3,0.319444444,0.025000007,1,0,0,1.0332,optionRight,70,14180,6,42,0,42,0,1,,,,,,,,,,,,,,,,,,,,,,,,,,,,,,,,,,,,,,,
,,,,,,,,2023-08-16_08h54.43.681,HF_wild_card,2022.2.4,Win32,59.94485074,63f8b081b083f1e1014cb21a,64d2fd46c836a06233681665,64dc7efc02f60401466f0a71,,,,,,,decisionTrl,resources/DG.BMP,resources/DB.BMP,WildCard_NonEx,0.321296268,-0.032407407,1,0,0,0.8437,optionRight,55,14235,6,43,0,43,0,1,,,,,,,,,,,,,,,,,,,,,,,,,,,,,,,,,,,,,,,
,,,,,,,,2023-08-16_08h54.43.681,HF_wild_card,2022.2.4,Win32,59.94485074,63f8b081b083f1e1014cb21a,64d2fd46c836a06233681665,64dc7efc02f60401466f0a71,,,,,,,,,,,,,,,,,,,,,,,,,,5,0,5,0,1,,,,,,,,,,,,,,,,,,,,,,,,,,,,,,,,,,
,,,,,,,,2023-08-16_08h54.43.681,HF_wild_card,2022.2.4,Win32,59.94485074,63f8b081b083f1e1014cb21a,64d2fd46c836a06233681665,64dc7efc02f60401466f0a71,,,,,,,decisionTrl,resources/DY.BMP,resources/DR.BMP,Door3,0.012037065,-0.080555563,1,0,0,0.3625,optionRight,70,14305,7,0,0,0,0,1,,,,,,,,,,,,,,,,,,,,,,,,,,,,,,,,,,,,,,,
,,,,,,,,2023-08-16_08h54.43.681,HF_wild_card,2022.2.4,Win32,59.94485074,63f8b081b083f1e1014cb21a,64d2fd46c836a06233681665,64dc7efc02f60401466f0a71,,,,,,,decisionTrl,resources/DBN.BMP,resources/DG.BMP,Door1,0.286111125,-0.012962977,1,0,0,0.9468,optionRight,30,14335,7,1,0,1,0,1,,,,,,,,,,,,,,,,,,,,,,,,,,,,,,,,,,,,,,,
,,,,,,,,2023-08-16_08h54.43.681,HF_wild_card,2022.2.4,Win32,59.94485074,63f8b081b083f1e1014cb21a,64d2fd46c836a06233681665,64dc7efc02f60401466f0a71,,,,,,,decisionTrl,resources/DBN.BMP,resources/DG.BMP,Door1,0.359259288,-0.028703725,1,0,0,0.7827,optionRight,30,14365,7,2,0,2,0,1,,,,,,,,,,,,,,,,,,,,,,,,,,,,,,,,,,,,,,,
,,,,,,,,2023-08-16_08h54.43.681,HF_wild_card,2022.2.4,Win32,59.94485074,63f8b081b083f1e1014cb21a,64d2fd46c836a06233681665,64dc7efc02f60401466f0a71,,,,,,,decisionTrl,resources/DBN.BMP,resources/DG.BMP,Door1,0.406481566,-0.000925947,1,0,0,0.649,optionRight,30,14395,7,3,0,3,0,1,,,,,,,,,,,,,,,,,,,,,,,,,,,,,,,,,,,,,,,
,,,,,,,,2023-08-16_08h54.43.681,HF_wild_card,2022.2.4,Win32,59.94485074,63f8b081b083f1e1014cb21a,64d2fd46c836a06233681665,64dc7efc02f60401466f0a71,,,,,,,decisionTrl,resources/DG.BMP,resources/DBN.BMP,Door1,-0.405555548,0.001851859,1,0,0,0.8123,optionLeft,30,14425,7,4,0,4,0,1,,,,,,,,,,,,,,,,,,,,,,,,,,,,,,,,,,,,,,,
,,,,,,,,2023-08-16_08h54.43.681,HF_wild_card,2022.2.4,Win32,59.94485074,63f8b081b083f1e1014cb21a,64d2fd46c836a06233681665,64dc7efc02f60401466f0a71,,,,,,,decisionTrl,resources/DY.BMP,resources/DR.BMP,Door3,0.455555527,-0.040740755,1,0,0,0.9159,optionRight,70,14495,7,5,0,5,0,1,,,,,,,,,,,,,,,,,,,,,,,,,,,,,,,,,,,,,,,
,,,,,,,,2023-08-16_08h54.43.681,HF_wild_card,2022.2.4,Win32,59.94485074,63f8b081b083f1e1014cb21a,64d2fd46c836a06233681665,64dc7efc02f60401466f0a71,,,,,,,decisionTrl,resources/DG.BMP,resources/DBN.BMP,Door1,-0.321296303,0.034259266,1,0,0,0.8329,optionLeft,30,14525,7,6,0,6,0,1,,,,,,,,,,,,,,,,,,,,,,,,,,,,,,,,,,,,,,,
,,,,,,,,2023-08-16_08h54.43.681,HF_wild_card,2022.2.4,Win32,59.94485074,63f8b081b083f1e1014cb21a,64d2fd46c836a06233681665,64dc7efc02f60401466f0a71,,,,,,,ctch,resources/DBN.BMP,resources/DR.BMP,Door3,0.425925926,-0.067592586,1,0,0,0.7121,optionRight,70,14595,7,7,0,7,0,1,,,,,,,,,,,,,,,,,,,,,,,,,,,,,,,,,,,,,,,
,,,,,,,,2023-08-16_08h54.43.681,HF_wild_card,2022.2.4,Win32,59.94485074,63f8b081b083f1e1014cb21a,64d2fd46c836a06233681665,64dc7efc02f60401466f0a71,,,,,,,decisionTrl,resources/DR.BMP,resources/DY.BMP,Door3,-0.475925905,-0.024074095,1,0,0,0.7108,optionLeft,70,14665,7,8,0,8,0,1,,,,,,,,,,,,,,,,,,,,,,,,,,,,,,,,,,,,,,,
,,,,,,,,2023-08-16_08h54.43.681,HF_wild_card,2022.2.4,Win32,59.94485074,63f8b081b083f1e1014cb21a,64d2fd46c836a06233681665,64dc7efc02f60401466f0a71,,,,,,,decisionTrl,resources/DG.BMP,resources/DBN.BMP,Door1,-0.210185157,-0.000925947,1,0,0,0.7685,optionLeft,30,14695,7,9,0,9,0,1,,,,,,,,,,,,,,,,,,,,,,,,,,,,,,,,,,,,,,,
,,,,,,,,2023-08-16_08h54.43.681,HF_wild_card,2022.2.4,Win32,59.94485074,63f8b081b083f1e1014cb21a,64d2fd46c836a06233681665,64dc7efc02f60401466f0a71,,,,,,,decisionTrl,resources/DY.BMP,resources/DR.BMP,Door3,0.264814801,-0.053703697,1,0,0,0.7284,optionRight,70,14765,7,10,0,10,0,1,,,,,,,,,,,,,,,,,,,,,,,,,,,,,,,,,,,,,,,
,,,,,,,,2023-08-16_08h54.43.681,HF_wild_card,2022.2.4,Win32,59.94485074,63f8b081b083f1e1014cb21a,64d2fd46c836a06233681665,64dc7efc02f60401466f0a71,,,,,,,ctch,resources/DY.BMP,resources/DG.BMP,Door4,-0.422222208,0.023148148,1,0,0,1.2452,optionLeft,80,14845,7,11,0,11,0,1,,,,,,,,,,,,,,,,,,,,,,,,,,,,,,,,,,,,,,,
,,,,,,,,2023-08-16_08h54.43.681,HF_wild_card,2022.2.4,Win32,59.94485074,63f8b081b083f1e1014cb21a,64d2fd46c836a06233681665,64dc7efc02f60401466f0a71,,,,,,,decisionTrl,resources/DY.BMP,resources/DR.BMP,Door3,0.345370399,-0.057407414,1,0,0,0.8999,optionRight,70,14915,7,12,0,12,0,1,,,,,,,,,,,,,,,,,,,,,,,,,,,,,,,,,,,,,,,
,,,,,,,,2023-08-16_08h54.43.681,HF_wild_card,2022.2.4,Win32,59.94485074,63f8b081b083f1e1014cb21a,64d2fd46c836a06233681665,64dc7efc02f60401466f0a71,,,,,,,ctch,resources/DR.BMP,resources/DBN.BMP,Door3,-0.287037037,-0.001851859,1,0,0,0.7,optionLeft,70,14985,7,13,0,13,0,1,,,,,,,,,,,,,,,,,,,,,,,,,,,,,,,,,,,,,,,
,,,,,,,,2023-08-16_08h54.43.681,HF_wild_card,2022.2.4,Win32,59.94485074,63f8b081b083f1e1014cb21a,64d2fd46c836a06233681665,64dc7efc02f60401466f0a71,,,,,,,decisionTrl,resources/DG.BMP,resources/DBN.BMP,Door1,-0.376851859,0.060185185,1,0,0,0.7636,optionLeft,30,15015,7,14,0,14,0,1,,,,,,,,,,,,,,,,,,,,,,,,,,,,,,,,,,,,,,,
,,,,,,,,2023-08-16_08h54.43.681,HF_wild_card,2022.2.4,Win32,59.94485074,63f8b081b083f1e1014cb21a,64d2fd46c836a06233681665,64dc7efc02f60401466f0a71,,,,,,,decisionTrl,resources/DR.BMP,resources/DY.BMP,Door3,-0.416666667,-0.028703725,1,0,0,1.086,optionLeft,70,15085,7,15,0,15,0,1,,,,,,,,,,,,,,,,,,,,,,,,,,,,,,,,,,,,,,,
,,,,,,,,2023-08-16_08h54.43.681,HF_wild_card,2022.2.4,Win32,59.94485074,63f8b081b083f1e1014cb21a,64d2fd46c836a06233681665,64dc7efc02f60401466f0a71,,,,,,,ctch,resources/DBN.BMP,resources/DR.BMP,Door3,0.482407464,-0.046296296,1,0,0,0.6158,optionRight,70,15155,7,16,0,16,0,1,,,,,,,,,,,,,,,,,,,,,,,,,,,,,,,,,,,,,,,
,,,,,,,,2023-08-16_08h54.43.681,HF_wild_card,2022.2.4,Win32,59.94485074,63f8b081b083f1e1014cb21a,64d2fd46c836a06233681665,64dc7efc02f60401466f0a71,,,,,,,decisionTrl,resources/DG.BMP,resources/DBN.BMP,Door1,-0.349999993,-0.010185206,1,0,0,0.6652,optionLeft,30,15185,7,17,0,17,0,1,,,,,,,,,,,,,,,,,,,,,,,,,,,,,,,,,,,,,,,
,,,,,,,,2023-08-16_08h54.43.681,HF_wild_card,2022.2.4,Win32,59.94485074,63f8b081b083f1e1014cb21a,64d2fd46c836a06233681665,64dc7efc02f60401466f0a71,,,,,,,decisionTrl,resources/DR.BMP,resources/DY.BMP,Door3,-0.436111097,-0.001851859,1,0,0,1.0188,optionLeft,70,15255,7,18,0,18,0,1,,,,,,,,,,,,,,,,,,,,,,,,,,,,,,,,,,,,,,,
,,,,,,,,2023-08-16_08h54.43.681,HF_wild_card,2022.2.4,Win32,59.94485074,63f8b081b083f1e1014cb21a,64d2fd46c836a06233681665,64dc7efc02f60401466f0a71,,,,,,,decisionTrl,resources/DY.BMP,resources/DR.BMP,Door3,0.369444529,-0.087037051,1,0,0,0.6021,optionRight,70,15325,7,19,0,19,0,1,,,,,,,,,,,,,,,,,,,,,,,,,,,,,,,,,,,,,,,
,,,,,,,,2023-08-16_08h54.43.681,HF_wild_card,2022.2.4,Win32,59.94485074,63f8b081b083f1e1014cb21a,64d2fd46c836a06233681665,64dc7efc02f60401466f0a71,,,,,,,ctch,resources/DG.BMP,resources/DY.BMP,Door1,-0.267592607,-0.022222236,1,0,0,0.6486,optionLeft,30,15355,7,20,0,20,0,1,,,,,,,,,,,,,,,,,,,,,,,,,,,,,,,,,,,,,,,
,,,,,,,,2023-08-16_08h54.43.681,HF_wild_card,2022.2.4,Win32,59.94485074,63f8b081b083f1e1014cb21a,64d2fd46c836a06233681665,64dc7efc02f60401466f0a71,,,,,,,decisionTrl,resources/DY.BMP,resources/DR.BMP,Door3,0.462037122,-0.079629651,1,0,0,0.8431,optionRight,70,15425,7,21,0,21,0,1,,,,,,,,,,,,,,,,,,,,,,,,,,,,,,,,,,,,,,,
,,,,,,,,2023-08-16_08h54.43.681,HF_wild_card,2022.2.4,Win32,59.94485074,63f8b081b083f1e1014cb21a,64d2fd46c836a06233681665,64dc7efc02f60401466f0a71,,,,,,,decisionTrl,resources/DG.BMP,resources/DBN.BMP,Door1,-0.410185178,-0.013888889,1,0,0,0.6651,optionLeft,30,15455,7,22,0,22,0,1,,,,,,,,,,,,,,,,,,,,,,,,,,,,,,,,,,,,,,,
,,,,,,,,2023-08-16_08h54.43.681,HF_wild_card,2022.2.4,Win32,59.94485074,63f8b081b083f1e1014cb21a,64d2fd46c836a06233681665,64dc7efc02f60401466f0a71,,,,,,,ctch,resources/DBN.BMP,resources/DR.BMP,Door3,0.325925898,-0.054629644,1,0,0,0.5831,optionRight,70,15525,7,23,0,23,0,1,,,,,,,,,,,,,,,,,,,,,,,,,,,,,,,,,,,,,,,
,,,,,,,,2023-08-16_08h54.43.681,HF_wild_card,2022.2.4,Win32,59.94485074,63f8b081b083f1e1014cb21a,64d2fd46c836a06233681665,64dc7efc02f60401466f0a71,,,,,,,ctch,resources/DG.BMP,resources/DY.BMP,Door4,0.491666723,-0.035185178,1,0,0,1.1843,optionRight,80,15605,7,24,0,24,0,1,,,,,,,,,,,,,,,,,,,,,,,,,,,,,,,,,,,,,,,
,,,,,,,,2023-08-16_08h54.43.681,HF_wild_card,2022.2.4,Win32,59.94485074,63f8b081b083f1e1014cb21a,64d2fd46c836a06233681665,64dc7efc02f60401466f0a71,,,,,,,ctch,resources/DR.BMP,resources/DBN.BMP,Door3,-0.420370349,-0.011111118,1,0,0,0.8821,optionLeft,70,15675,7,25,0,25,0,1,,,,,,,,,,,,,,,,,,,,,,,,,,,,,,,,,,,,,,,
,,,,,,,,2023-08-16_08h54.43.681,HF_wild_card,2022.2.4,Win32,59.94485074,63f8b081b083f1e1014cb21a,64d2fd46c836a06233681665,64dc7efc02f60401466f0a71,,,,,,,decisionTrl,resources/DBN.BMP,resources/DG.BMP,Door1,0.275000042,0.022222201,1,0,0,0.8132,optionRight,30,15705,7,26,0,26,0,1,,,,,,,,,,,,,,,,,,,,,,,,,,,,,,,,,,,,,,,
,,,,,,,,2023-08-16_08h54.43.681,HF_wild_card,2022.2.4,Win32,59.94485074,63f8b081b083f1e1014cb21a,64d2fd46c836a06233681665,64dc7efc02f60401466f0a71,,,,,,,decisionTrl,resources/DR.BMP,resources/DY.BMP,Door3,-0.355555534,-0.01666666,1,0,0,1.1279,optionLeft,70,15775,7,27,0,27,0,1,,,,,,,,,,,,,,,,,,,,,,,,,,,,,,,,,,,,,,,
,,,,,,,,2023-08-16_08h54.43.681,HF_wild_card,2022.2.4,Win32,59.94485074,63f8b081b083f1e1014cb21a,64d2fd46c836a06233681665,64dc7efc02f60401466f0a71,,,,,,,decisionTrl,resources/DR.BMP,resources/DY.BMP,Door3,-0.260185171,-0.001851859,1,0,0,0.6658,optionLeft,70,15845,7,28,0,28,0,1,,,,,,,,,,,,,,,,,,,,,,,,,,,,,,,,,,,,,,,
,,,,,,,,2023-08-16_08h54.43.681,HF_wild_card,2022.2.4,Win32,59.94485074,63f8b081b083f1e1014cb21a,64d2fd46c836a06233681665,64dc7efc02f60401466f0a71,,,,,,,decisionTrl,resources/DBN.BMP,resources/DG.BMP,Door1,0.399999972,-0.065740762,1,0,0,0.782,optionRight,30,15875,7,29,0,29,0,1,,,,,,,,,,,,,,,,,,,,,,,,,,,,,,,,,,,,,,,
,,,,,,,,2023-08-16_08h54.43.681,HF_wild_card,2022.2.4,Win32,59.94485074,63f8b081b083f1e1014cb21a,64d2fd46c836a06233681665,64dc7efc02f60401466f0a71,,,,,,,ctch,resources/DR.BMP,resources/DBN.BMP,Door3,-0.360185164,0.000925912,1,0,0,1.5383,optionLeft,70,15945,7,30,0,30,0,1,,,,,,,,,,,,,,,,,,,,,,,,,,,,,,,,,,,,,,,
,,,,,,,,2023-08-16_08h54.43.681,HF_wild_card,2022.2.4,Win32,59.94485074,63f8b081b083f1e1014cb21a,64d2fd46c836a06233681665,64dc7efc02f60401466f0a71,,,,,,,ctch,resources/DY.BMP,resources/DG.BMP,Door4,-0.402777778,-0.050925926,1,0,0,1.2196,optionLeft,60,16005,7,31,0,31,0,1,,,,,,,,,,,,,,,,,,,,,,,,,,,,,,,,,,,,,,,
,,,,,,,,2023-08-16_08h54.43.681,HF_wild_card,2022.2.4,Win32,59.94485074,63f8b081b083f1e1014cb21a,64d2fd46c836a06233681665,64dc7efc02f60401466f0a71,,,,,,,ctch,resources/DG.BMP,resources/DY.BMP,Door4,0.291666667,-0.056481503,1,0,0,0.9858,optionRight,60,16065,7,32,0,32,0,1,,,,,,,,,,,,,,,,,,,,,,,,,,,,,,,,,,,,,,,
,,,,,,,,2023-08-16_08h54.43.681,HF_wild_card,2022.2.4,Win32,59.94485074,63f8b081b083f1e1014cb21a,64d2fd46c836a06233681665,64dc7efc02f60401466f0a71,,,,,,,decisionTrl,resources/DR.BMP,resources/DY.BMP,Door3,-0.467592593,-0.024074095,1,0,0,0.7356,optionLeft,70,16135,7,33,0,33,0,1,,,,,,,,,,,,,,,,,,,,,,,,,,,,,,,,,,,,,,,
,,,,,,,,2023-08-16_08h54.43.681,HF_wild_card,2022.2.4,Win32,59.94485074,63f8b081b083f1e1014cb21a,64d2fd46c836a06233681665,64dc7efc02f60401466f0a71,,,,,,,ctch,resources/DY.BMP,resources/DG.BMP,Door4,-0.38703703,-0.031481496,1,0,0,1.0363,optionLeft,80,16215,7,34,0,34,0,1,,,,,,,,,,,,,,,,,,,,,,,,,,,,,,,,,,,,,,,
,,,,,,,,2023-08-16_08h54.43.681,HF_wild_card,2022.2.4,Win32,59.94485074,63f8b081b083f1e1014cb21a,64d2fd46c836a06233681665,64dc7efc02f60401466f0a71,,,,,,,decisionTrl,resources/DBN.BMP,resources/DG.BMP,Door1,0.521296325,-0.028703725,1,0,0,0.8158,optionRight,30,16245,7,35,0,35,0,1,,,,,,,,,,,,,,,,,,,,,,,,,,,,,,,,,,,,,,,
,,,,,,,,2023-08-16_08h54.43.681,HF_wild_card,2022.2.4,Win32,59.94485074,63f8b081b083f1e1014cb21a,64d2fd46c836a06233681665,64dc7efc02f60401466f0a71,,,,,,,,,,,,,,,,,,,,,,,,,,6,0,6,0,1,,,,,,,,,,,,,,,,,,,,,,,,,,,,,,,,,,
,,,,,,,,2023-08-16_08h54.43.681,HF_wild_card,2022.2.4,Win32,59.94485074,63f8b081b083f1e1014cb21a,64d2fd46c836a06233681665,64dc7efc02f60401466f0a71,,,,,,,,,,,,,,,,,,,,,,,,,,,,,,,4,,,,,,,,,,,,,,,,,,,,,,,,,,,,,,,,,
,,,,,,,,2023-08-16_08h54.43.681,HF_wild_card,2022.2.4,Win32,59.94485074,63f8b081b083f1e1014cb21a,64d2fd46c836a06233681665,64dc7efc02f60401466f0a71,,,,,,,,,,,,,,,,,,,,,,,,,,,,,,,,,,,,,,,,,,,,,,,,,,,,,,,,,,,,,,,,
,,,,,,,,2023-08-16_08h54.43.681,HF_wild_card,2022.2.4,Win32,59.94485074,63f8b081b083f1e1014cb21a,64d2fd46c836a06233681665,64dc7efc02f60401466f0a71,,,,,,,,,,,,,,,,,,,,,,,,,,,,,,,,70,Door3,resources/DR.BMP,0,0,0,0,1,,,,,,,,,,,,,,,,,,,,,,,,,
,,,,,,,,2023-08-16_08h54.43.681,HF_wild_card,2022.2.4,Win32,59.94485074,63f8b081b083f1e1014cb21a,64d2fd46c836a06233681665,64dc7efc02f60401466f0a71,,,,,,,,,,,,,,,,,,,,,,,,,,,,,,,,60,Door4,resources/DY.BMP,1,0,1,0,1,,,,,,,,,,,,,,,,,,,,,,,,,
,,,,,,,,2023-08-16_08h54.43.681,HF_wild_card,2022.2.4,Win32,59.94485074,63f8b081b083f1e1014cb21a,64d2fd46c836a06233681665,64dc7efc02f60401466f0a71,,,,,,,,,,,,,,,,,,,,,,,,,,,,,,,,30,Door1,resources/DG.BMP,2,0,2,0,1,,,,,,,,,,,,,,,,,,,,,,,,,
,,,,,,,,2023-08-16_08h54.43.681,HF_wild_card,2022.2.4,Win32,59.94485074,63f8b081b083f1e1014cb21a,64d2fd46c836a06233681665,64dc7efc02f60401466f0a71,,,,,,,,,,,,,,,,,,,,,,,,,,,,,,,,95,WC_extreme,resources/DP.BMP,3,0,3,0,1,,,,,,,,,,,,,,,,,,,,,,,,,
,,,,,,,,2023-08-16_08h54.43.681,HF_wild_card,2022.2.4,Win32,59.94485074,63f8b081b083f1e1014cb21a,64d2fd46c836a06233681665,64dc7efc02f60401466f0a71,,,,,,,,,,,,,,,,,,,,,,,,,,,,,,,,20,Door2,resources/DBN.BMP,4,0,4,0,1,,,,,,,,,,,,,,,,,,,,,,,,,
,,,,,,,,2023-08-16_08h54.43.681,HF_wild_card,2022.2.4,Win32,59.94485074,63f8b081b083f1e1014cb21a,64d2fd46c836a06233681665,64dc7efc02f60401466f0a71,,,,,,,,,,,,,,,,,,,,,,,,,,,,,,,,55,WC_nonExtreme,resources/DB.BMP,5,0,5,0,1,,,,,,,,,,,,,,,,,,,,,,,,,
,,,,,,,,2023-08-16_08h54.43.681,HF_wild_card,2022.2.4,Win32,59.94485074,63f8b081b083f1e1014cb21a,64d2fd46c836a06233681665,64dc7efc02f60401466f0a71,,,,,,,,,,,,,,,,,,,,,,,,,,,,,,,,,,,,,,,,,,,,,,,,,,,,,,,,,,,,,,,,
