Condition,Low fixed image (Door1),Low risky image (Door2),High fixed image (Door3),High risky image (Door4),Extreme Wild Card,NonExtreme Wild Card,,date,expName,psychopyVersion,OS,frameRate,PROLIFIC_PID,STUDY_ID,SESSION_ID,mouse_2.x,mouse_2.y,mouse_2.leftButton,mouse_2.midButton,mouse_2.rightButton,mouse_2.clicked_name,Trial Type,Left Option Image,Right Option Image,Chosen Door,mouse.x,mouse.y,mouse.leftButton,mouse.midButton,mouse.rightButton,mouse.time,mouse.clicked_name,Feedback,Cumulative Reward,Block,trial.thisRepN,trial.thisTrialN,trial.thisN,trial.thisIndex,trial.ran,blocks.thisRepN,blocks.thisTrialN,blocks.thisN,blocks.thisIndex,blocks.ran,Money conversion,First Outcome Reported,Shown Door (First Outcome),Displayed Image (First Outcome),outcomes.thisRepN,outcomes.thisTrialN,outcomes.thisN,outcomes.thisIndex,outcomes.ran,judgments.thisRepN,judgments.thisTrialN,judgments.thisN,judgments.thisIndex,judgments.ran,freqMouse.x,freqMouse.y,freqMouse.leftButton,freqMouse.midButton,freqMouse.rightButton,freqMouse.clicked_name,FQJ for first outcome,FQJ for second outcome,Shown Door,Displayed Image,trials.thisRepN,trials.thisTrialN,trials.thisN,trials.thisIndex,trials.ran,judgBlock.thisRepN,judgBlock.thisTrialN,judgBlock.thisN,judgBlock.thisIndex,judgBlock.ran
1,resources/DG.BMP,resources/DBN.BMP,resources/DY.BMP,resources/DP.BMP,resources/DR.BMP,resources/DB.BMP,,2023-08-16_08h33.08.180,HF_wild_card,2022.2.4,Win32,60.08893162,55e356dac70c7a00052a57ec,64d2fd46c836a06233681665,64dc7ba29f657209751f2160,,,,,,,,,,,,,,,,,,,,,,,,,,,,,,,,,,,,,,,,,,,,,,,,,,,,,,,,,,,,,,,,
,,,,,,,,2023-08-16_08h33.08.180,HF_wild_card,2022.2.4,Win32,60.08893162,55e356dac70c7a00052a57ec,64d2fd46c836a06233681665,64dc7ba29f657209751f2160,-0.002368229,-0.430136211,1,0,0,agree,,,,,,,,,,,,,,,,,,,,,,,,,,,,,,,,,,,,,,,,,,,,,,,,,,,,,,,,,,
,,,,,,,,2023-08-16_08h33.08.180,HF_wild_card,2022.2.4,Win32,60.08893162,55e356dac70c7a00052a57ec,64d2fd46c836a06233681665,64dc7ba29f657209751f2160,,,,,,,,,,,,,,,,,,,,,,,,,,,,,,,,,,,,,,,,,,,,,,,,,,,,,,,,,,,,,,,,
,,,,,,,,2023-08-16_08h33.08.180,HF_wild_card,2022.2.4,Win32,60.08893162,55e356dac70c7a00052a57ec,64d2fd46c836a06233681665,64dc7ba29f657209751f2160,,,,,,,decisionTrl,resources/DP.BMP,resources/DY.BMP,Door4,-0.309058615,-0.176731794,1,0,0,2.2641,optionLeft,60,60,1,0,0,0,0,1,,,,,,,,,,,,,,,,,,,,,,,,,,,,,,,,,,,,,,,
,,,,,,,,2023-08-16_08h33.08.180,HF_wild_card,2022.2.4,Win32,60.08893162,55e356dac70c7a00052a57ec,64d2fd46c836a06233681665,64dc7ba29f657209751f2160,,,,,,,sngl,resources/Empty.png,resources/DG.BMP,Door1,0.3339254,-0.019242173,1,0,0,1.2447,optionRight,30,90,1,1,0,1,0,1,,,,,,,,,,,,,,,,,,,,,,,,,,,,,,,,,,,,,,,
,,,,,,,,2023-08-16_08h33.08.180,HF_wild_card,2022.2.4,Win32,60.08893162,55e356dac70c7a00052a57ec,64d2fd46c836a06233681665,64dc7ba29f657209751f2160,,,,,,,ctch,resources/DBN.BMP,resources/DY.BMP,Door2,-0.291296625,-0.096210812,1,0,0,0.9285,optionLeft,20,110,1,2,0,2,0,1,,,,,,,,,,,,,,,,,,,,,,,,,,,,,,,,,,,,,,,
,,,,,,,,2023-08-16_08h33.08.180,HF_wild_card,2022.2.4,Win32,60.08893162,55e356dac70c7a00052a57ec,64d2fd46c836a06233681665,64dc7ba29f657209751f2160,,,,,,,decisionTrl,resources/DP.BMP,resources/DY.BMP,Door3,0.275902973,-0.022794571,1,0,0,1.2801,optionRight,70,180,1,3,0,3,0,1,,,,,,,,,,,,,,,,,,,,,,,,,,,,,,,,,,,,,,,
,,,,,,,,2023-08-16_08h33.08.180,HF_wild_card,2022.2.4,Win32,60.08893162,55e356dac70c7a00052a57ec,64d2fd46c836a06233681665,64dc7ba29f657209751f2160,,,,,,,sngl,resources/Empty.png,resources/DB.BMP,WildCard_NonEx,0.312611012,-0.013321492,1,0,0,0.8612,optionRight,45,225,1,4,0,4,0,1,,,,,,,,,,,,,,,,,,,,,,,,,,,,,,,,,,,,,,,
,,,,,,,,2023-08-16_08h33.08.180,HF_wild_card,2022.2.4,Win32,60.08893162,55e356dac70c7a00052a57ec,64d2fd46c836a06233681665,64dc7ba29f657209751f2160,,,,,,,decisionTrl,resources/DB.BMP,resources/DP.BMP,WildCard_NonEx,-0.401420959,-0.014505661,1,0,0,1.0584,optionLeft,45,270,1,5,0,5,0,1,,,,,,,,,,,,,,,,,,,,,,,,,,,,,,,,,,,,,,,
,,,,,,,,2023-08-16_08h33.08.180,HF_wild_card,2022.2.4,Win32,60.08893162,55e356dac70c7a00052a57ec,64d2fd46c836a06233681665,64dc7ba29f657209751f2160,,,,,,,decisionTrl,resources/DG.BMP,resources/DBN.BMP,Door2,0.26524578,-0.00858498,1,0,0,0.7916,optionRight,40,310,1,6,0,6,0,1,,,,,,,,,,,,,,,,,,,,,,,,,,,,,,,,,,,,,,,
,,,,,,,,2023-08-16_08h33.08.180,HF_wild_card,2022.2.4,Win32,60.08893162,55e356dac70c7a00052a57ec,64d2fd46c836a06233681665,64dc7ba29f657209751f2160,,,,,,,sngl,resources/DB.BMP,resources/Empty.png,WildCard_NonEx,-0.228537578,-0.025162854,1,0,0,0.7242,optionLeft,45,355,1,7,0,7,0,1,,,,,,,,,,,,,,,,,,,,,,,,,,,,,,,,,,,,,,,
,,,,,,,,2023-08-16_08h33.08.180,HF_wild_card,2022.2.4,Win32,60.08893162,55e356dac70c7a00052a57ec,64d2fd46c836a06233681665,64dc7ba29f657209751f2160,,,,,,,decisionTrl,resources/DBN.BMP,resources/DG.BMP,Door2,-0.304322048,-0.019242173,1,0,0,0.8627,optionLeft,40,395,1,8,0,8,0,1,,,,,,,,,,,,,,,,,,,,,,,,,,,,,,,,,,,,,,,
,,,,,,,,2023-08-16_08h33.08.180,HF_wild_card,2022.2.4,Win32,60.08893162,55e356dac70c7a00052a57ec,64d2fd46c836a06233681665,64dc7ba29f657209751f2160,,,,,,,decisionTrl,resources/DBN.BMP,resources/DG.BMP,Door1,0.246299622,-0.015689775,1,0,0,0.8632,optionRight,30,425,1,9,0,9,0,1,,,,,,,,,,,,,,,,,,,,,,,,,,,,,,,,,,,,,,,
,,,,,,,,2023-08-16_08h33.08.180,HF_wild_card,2022.2.4,Win32,60.08893162,55e356dac70c7a00052a57ec,64d2fd46c836a06233681665,64dc7ba29f657209751f2160,,,,,,,decisionTrl,resources/DB.BMP,resources/DG.BMP,Door1,0.175251664,-0.023978686,1,0,0,1.1665,optionRight,30,455,1,10,0,10,0,1,,,,,,,,,,,,,,,,,,,,,,,,,,,,,,,,,,,,,,,
,,,,,,,,2023-08-16_08h33.08.180,HF_wild_card,2022.2.4,Win32,60.08893162,55e356dac70c7a00052a57ec,64d2fd46c836a06233681665,64dc7ba29f657209751f2160,,,,,,,decisionTrl,resources/DBN.BMP,resources/DG.BMP,Door2,-0.303137933,-0.018058059,1,0,0,0.9623,optionLeft,40,495,1,11,0,11,0,1,,,,,,,,,,,,,,,,,,,,,,,,,,,,,,,,,,,,,,,
,,,,,,,,2023-08-16_08h33.08.180,HF_wild_card,2022.2.4,Win32,60.08893162,55e356dac70c7a00052a57ec,64d2fd46c836a06233681665,64dc7ba29f657209751f2160,,,,,,,decisionTrl,resources/DP.BMP,resources/DY.BMP,Door4,-0.249851965,-0.029899367,1,0,0,1.001,optionLeft,80,575,1,12,0,12,0,1,,,,,,,,,,,,,,,,,,,,,,,,,,,,,,,,,,,,,,,
,,,,,,,,2023-08-16_08h33.08.180,HF_wild_card,2022.2.4,Win32,60.08893162,55e356dac70c7a00052a57ec,64d2fd46c836a06233681665,64dc7ba29f657209751f2160,,,,,,,sngl,resources/Empty.png,resources/DBN.BMP,Door2,0.279455371,-0.015689775,1,0,0,1.3463,optionRight,20,595,1,13,0,13,0,1,,,,,,,,,,,,,,,,,,,,,,,,,,,,,,,,,,,,,,,
,,,,,,,,2023-08-16_08h33.08.180,HF_wild_card,2022.2.4,Win32,60.08893162,55e356dac70c7a00052a57ec,64d2fd46c836a06233681665,64dc7ba29f657209751f2160,,,,,,,decisionTrl,resources/DBN.BMP,resources/DB.BMP,Door2,-0.253404363,-0.022794571,1,0,0,1.6642,optionLeft,20,615,1,14,0,14,0,1,,,,,,,,,,,,,,,,,,,,,,,,,,,,,,,,,,,,,,,
,,,,,,,,2023-08-16_08h33.08.180,HF_wild_card,2022.2.4,Win32,60.08893162,55e356dac70c7a00052a57ec,64d2fd46c836a06233681665,64dc7ba29f657209751f2160,,,,,,,decisionTrl,resources/DY.BMP,resources/DP.BMP,Door4,0.245115453,-0.03226765,1,0,0,1.124,optionRight,80,695,1,15,0,15,0,1,,,,,,,,,,,,,,,,,,,,,,,,,,,,,,,,,,,,,,,
,,,,,,,,2023-08-16_08h33.08.180,HF_wild_card,2022.2.4,Win32,60.08893162,55e356dac70c7a00052a57ec,64d2fd46c836a06233681665,64dc7ba29f657209751f2160,,,,,,,decisionTrl,resources/DP.BMP,resources/DB.BMP,Door4,-0.389579597,-0.01687389,1,0,0,1.2153,optionLeft,60,755,1,16,0,16,0,1,,,,,,,,,,,,,,,,,,,,,,,,,,,,,,,,,,,,,,,
,,,,,,,,2023-08-16_08h33.08.180,HF_wild_card,2022.2.4,Win32,60.08893162,55e356dac70c7a00052a57ec,64d2fd46c836a06233681665,64dc7ba29f657209751f2160,,,,,,,decisionTrl,resources/DBN.BMP,resources/DG.BMP,Door1,0.343398533,-0.009769094,1,0,0,2.1738,optionRight,30,785,1,17,0,17,0,1,,,,,,,,,,,,,,,,,,,,,,,,,,,,,,,,,,,,,,,
,,,,,,,,2023-08-16_08h33.08.180,HF_wild_card,2022.2.4,Win32,60.08893162,55e356dac70c7a00052a57ec,64d2fd46c836a06233681665,64dc7ba29f657209751f2160,,,,,,,decisionTrl,resources/DG.BMP,resources/DBN.BMP,Door1,-0.268798069,-0.005032582,1,0,0,1.4508,optionLeft,30,815,1,18,0,18,0,1,,,,,,,,,,,,,,,,,,,,,,,,,,,,,,,,,,,,,,,
,,,,,,,,2023-08-16_08h33.08.180,HF_wild_card,2022.2.4,Win32,60.08893162,55e356dac70c7a00052a57ec,64d2fd46c836a06233681665,64dc7ba29f657209751f2160,,,,,,,decisionTrl,resources/DG.BMP,resources/DBN.BMP,Door1,-0.202486679,-0.009769094,1,0,0,1.0085,optionLeft,30,845,1,19,0,19,0,1,,,,,,,,,,,,,,,,,,,,,,,,,,,,,,,,,,,,,,,
,,,,,,,,2023-08-16_08h33.08.180,HF_wild_card,2022.2.4,Win32,60.08893162,55e356dac70c7a00052a57ec,64d2fd46c836a06233681665,64dc7ba29f657209751f2160,,,,,,,sngl,resources/DG.BMP,resources/Empty.png,Door1,-0.153937169,-0.019242173,1,0,0,0.7632,optionLeft,30,875,1,20,0,20,0,1,,,,,,,,,,,,,,,,,,,,,,,,,,,,,,,,,,,,,,,
,,,,,,,,2023-08-16_08h33.08.180,HF_wild_card,2022.2.4,Win32,60.08893162,55e356dac70c7a00052a57ec,64d2fd46c836a06233681665,64dc7ba29f657209751f2160,,,,,,,ctch,resources/DY.BMP,resources/DBN.BMP,Door3,-0.241563055,-0.041740675,1,0,0,1.4408,optionLeft,70,945,1,21,0,21,0,1,,,,,,,,,,,,,,,,,,,,,,,,,,,,,,,,,,,,,,,
,,,,,,,,2023-08-16_08h33.08.180,HF_wild_card,2022.2.4,Win32,60.08893162,55e356dac70c7a00052a57ec,64d2fd46c836a06233681665,64dc7ba29f657209751f2160,,,,,,,decisionTrl,resources/DY.BMP,resources/DP.BMP,Door4,0.201302618,-0.005032582,1,0,0,1.8824,optionRight,80,1025,1,22,0,22,0,1,,,,,,,,,,,,,,,,,,,,,,,,,,,,,,,,,,,,,,,
,,,,,,,,2023-08-16_08h33.08.180,HF_wild_card,2022.2.4,Win32,60.08893162,55e356dac70c7a00052a57ec,64d2fd46c836a06233681665,64dc7ba29f657209751f2160,,,,,,,decisionTrl,resources/DY.BMP,resources/DP.BMP,Door4,0.188277087,-0.002664298,1,0,0,0.6924,optionRight,60,1085,1,23,0,23,0,1,,,,,,,,,,,,,,,,,,,,,,,,,,,,,,,,,,,,,,,
,,,,,,,,2023-08-16_08h33.08.180,HF_wild_card,2022.2.4,Win32,60.08893162,55e356dac70c7a00052a57ec,64d2fd46c836a06233681665,64dc7ba29f657209751f2160,,,,,,,sngl,resources/DB.BMP,resources/Empty.png,WildCard_NonEx,-0.191829485,-0.021610457,1,0,0,0.7787,optionLeft,55,1140,1,24,0,24,0,1,,,,,,,,,,,,,,,,,,,,,,,,,,,,,,,,,,,,,,,
,,,,,,,,2023-08-16_08h33.08.180,HF_wild_card,2022.2.4,Win32,60.08893162,55e356dac70c7a00052a57ec,64d2fd46c836a06233681665,64dc7ba29f657209751f2160,,,,,,,decisionTrl,resources/DB.BMP,resources/DY.BMP,Door3,0.252220249,0.002072214,1,0,0,1.1472,optionRight,70,1210,1,25,0,25,0,1,,,,,,,,,,,,,,,,,,,,,,,,,,,,,,,,,,,,,,,
,,,,,,,,2023-08-16_08h33.08.180,HF_wild_card,2022.2.4,Win32,60.08893162,55e356dac70c7a00052a57ec,64d2fd46c836a06233681665,64dc7ba29f657209751f2160,,,,,,,sngl,resources/Empty.png,resources/DP.BMP,Door4,0.219064608,-0.000296069,1,0,0,0.8472,optionRight,60,1270,1,26,0,26,0,1,,,,,,,,,,,,,,,,,,,,,,,,,,,,,,,,,,,,,,,
,,,,,,,,2023-08-16_08h33.08.180,HF_wild_card,2022.2.4,Win32,60.08893162,55e356dac70c7a00052a57ec,64d2fd46c836a06233681665,64dc7ba29f657209751f2160,,,,,,,decisionTrl,resources/DG.BMP,resources/DB.BMP,Door1,-0.203670739,-0.019242173,1,0,0,1.5965,optionLeft,30,1300,1,27,0,27,0,1,,,,,,,,,,,,,,,,,,,,,,,,,,,,,,,,,,,,,,,
,,,,,,,,2023-08-16_08h33.08.180,HF_wild_card,2022.2.4,Win32,60.08893162,55e356dac70c7a00052a57ec,64d2fd46c836a06233681665,64dc7ba29f657209751f2160,,,,,,,sngl,resources/DP.BMP,resources/Empty.png,Door4,-0.223801066,-0.014505661,1,0,0,0.7192,optionLeft,80,1380,1,28,0,28,0,1,,,,,,,,,,,,,,,,,,,,,,,,,,,,,,,,,,,,,,,
,,,,,,,,2023-08-16_08h33.08.180,HF_wild_card,2022.2.4,Win32,60.08893162,55e356dac70c7a00052a57ec,64d2fd46c836a06233681665,64dc7ba29f657209751f2160,,,,,,,ctch,resources/DG.BMP,resources/DP.BMP,Door4,0.296033192,0.000888099,1,0,0,0.7494,optionRight,80,1460,1,29,0,29,0,1,,,,,,,,,,,,,,,,,,,,,,,,,,,,,,,,,,,,,,,
,,,,,,,,2023-08-16_08h33.08.180,HF_wild_card,2022.2.4,Win32,60.08893162,55e356dac70c7a00052a57ec,64d2fd46c836a06233681665,64dc7ba29f657209751f2160,,,,,,,ctch,resources/DP.BMP,resources/DG.BMP,Door4,-0.234458259,-0.028715252,1,0,0,0.6929,optionLeft,60,1520,1,30,0,30,0,1,,,,,,,,,,,,,,,,,,,,,,,,,,,,,,,,,,,,,,,
,,,,,,,,2023-08-16_08h33.08.180,HF_wild_card,2022.2.4,Win32,60.08893162,55e356dac70c7a00052a57ec,64d2fd46c836a06233681665,64dc7ba29f657209751f2160,,,,,,,decisionTrl,resources/DY.BMP,resources/DP.BMP,Door4,0.23209003,0.018650089,1,0,0,1.2122,optionRight,60,1580,1,31,0,31,0,1,,,,,,,,,,,,,,,,,,,,,,,,,,,,,,,,,,,,,,,
,,,,,,,,2023-08-16_08h33.08.180,HF_wild_card,2022.2.4,Win32,60.08893162,55e356dac70c7a00052a57ec,64d2fd46c836a06233681665,64dc7ba29f657209751f2160,,,,,,,sngl,resources/DBN.BMP,resources/Empty.png,Door2,-0.16814676,-0.000296069,1,0,0,0.9515,optionLeft,40,1620,1,32,0,32,0,1,,,,,,,,,,,,,,,,,,,,,,,,,,,,,,,,,,,,,,,
,,,,,,,,2023-08-16_08h33.08.180,HF_wild_card,2022.2.4,Win32,60.08893162,55e356dac70c7a00052a57ec,64d2fd46c836a06233681665,64dc7ba29f657209751f2160,,,,,,,ctch,resources/DY.BMP,resources/DBN.BMP,Door3,-0.176435725,-0.027531083,1,0,0,1.1461,optionLeft,70,1690,1,33,0,33,0,1,,,,,,,,,,,,,,,,,,,,,,,,,,,,,,,,,,,,,,,
,,,,,,,,2023-08-16_08h33.08.180,HF_wild_card,2022.2.4,Win32,60.08893162,55e356dac70c7a00052a57ec,64d2fd46c836a06233681665,64dc7ba29f657209751f2160,,,,,,,decisionTrl,resources/DB.BMP,resources/DBN.BMP,Door2,0.196566052,0.018650089,1,0,0,0.6971,optionRight,40,1730,1,34,0,34,0,1,,,,,,,,,,,,,,,,,,,,,,,,,,,,,,,,,,,,,,,
,,,,,,,,2023-08-16_08h33.08.180,HF_wild_card,2022.2.4,Win32,60.08893162,55e356dac70c7a00052a57ec,64d2fd46c836a06233681665,64dc7ba29f657209751f2160,,,,,,,decisionTrl,resources/DP.BMP,resources/DY.BMP,Door4,-0.20130251,-0.039372446,1,0,0,0.647,optionLeft,60,1790,1,35,0,35,0,1,,,,,,,,,,,,,,,,,,,,,,,,,,,,,,,,,,,,,,,
,,,,,,,,2023-08-16_08h33.08.180,HF_wild_card,2022.2.4,Win32,60.08893162,55e356dac70c7a00052a57ec,64d2fd46c836a06233681665,64dc7ba29f657209751f2160,,,,,,,decisionTrl,resources/DG.BMP,resources/DBN.BMP,Door1,-0.177619893,-0.01687389,1,0,0,0.7252,optionLeft,30,1820,1,36,0,36,0,1,,,,,,,,,,,,,,,,,,,,,,,,,,,,,,,,,,,,,,,
,,,,,,,,2023-08-16_08h33.08.180,HF_wild_card,2022.2.4,Win32,60.08893162,55e356dac70c7a00052a57ec,64d2fd46c836a06233681665,64dc7ba29f657209751f2160,,,,,,,sngl,resources/Empty.png,resources/DB.BMP,WildCard_NonEx,0.194197822,0.00917701,1,0,0,0.6081,optionRight,55,1875,1,37,0,37,0,1,,,,,,,,,,,,,,,,,,,,,,,,,,,,,,,,,,,,,,,
,,,,,,,,2023-08-16_08h33.08.180,HF_wild_card,2022.2.4,Win32,60.08893162,55e356dac70c7a00052a57ec,64d2fd46c836a06233681665,64dc7ba29f657209751f2160,,,,,,,ctch,resources/DBN.BMP,resources/DY.BMP,Door3,0.242747224,-0.003848467,1,0,0,1.2968,optionRight,70,1945,1,38,0,38,0,1,,,,,,,,,,,,,,,,,,,,,,,,,,,,,,,,,,,,,,,
,,,,,,,,2023-08-16_08h33.08.180,HF_wild_card,2022.2.4,Win32,60.08893162,55e356dac70c7a00052a57ec,64d2fd46c836a06233681665,64dc7ba29f657209751f2160,,,,,,,sngl,resources/Empty.png,resources/DY.BMP,Door3,0.223801066,-0.019242173,1,0,0,0.6075,optionRight,70,2015,1,39,0,39,0,1,,,,,,,,,,,,,,,,,,,,,,,,,,,,,,,,,,,,,,,
,,,,,,,,2023-08-16_08h33.08.180,HF_wild_card,2022.2.4,Win32,60.08893162,55e356dac70c7a00052a57ec,64d2fd46c836a06233681665,64dc7ba29f657209751f2160,,,,,,,decisionTrl,resources/DY.BMP,resources/DB.BMP,Door3,-0.174067496,-0.010953263,1,0,0,0.6746,optionLeft,70,2085,1,40,0,40,0,1,,,,,,,,,,,,,,,,,,,,,,,,,,,,,,,,,,,,,,,
,,,,,,,,2023-08-16_08h33.08.180,HF_wild_card,2022.2.4,Win32,60.08893162,55e356dac70c7a00052a57ec,64d2fd46c836a06233681665,64dc7ba29f657209751f2160,,,,,,,ctch,resources/DP.BMP,resources/DG.BMP,Door4,-0.163410302,-0.027531083,1,0,0,0.8701,optionLeft,60,2145,1,41,0,41,0,1,,,,,,,,,,,,,,,,,,,,,,,,,,,,,,,,,,,,,,,
,,,,,,,,2023-08-16_08h33.08.180,HF_wild_card,2022.2.4,Win32,60.08893162,55e356dac70c7a00052a57ec,64d2fd46c836a06233681665,64dc7ba29f657209751f2160,,,,,,,ctch,resources/DG.BMP,resources/DP.BMP,Door1,-0.161041964,-0.015689775,1,0,0,0.7483,optionLeft,30,2175,1,42,0,42,0,1,,,,,,,,,,,,,,,,,,,,,,,,,,,,,,,,,,,,,,,
,,,,,,,,2023-08-16_08h33.08.180,HF_wild_card,2022.2.4,Win32,60.08893162,55e356dac70c7a00052a57ec,64d2fd46c836a06233681665,64dc7ba29f657209751f2160,,,,,,,sngl,resources/DY.BMP,resources/Empty.png,Door3,-0.125517986,0.000888099,1,0,0,0.6979,optionLeft,70,2245,1,43,0,43,0,1,,,,,,,,,,,,,,,,,,,,,,,,,,,,,,,,,,,,,,,
,,,,,,,,2023-08-16_08h33.08.180,HF_wild_card,2022.2.4,Win32,60.08893162,55e356dac70c7a00052a57ec,64d2fd46c836a06233681665,64dc7ba29f657209751f2160,,,,,,,,,,,,,,,,,,,,,,,,,,0,0,0,0,1,,,,,,,,,,,,,,,,,,,,,,,,,,,,,,,,,,
,,,,,,,,2023-08-16_08h33.08.180,HF_wild_card,2022.2.4,Win32,60.08893162,55e356dac70c7a00052a57ec,64d2fd46c836a06233681665,64dc7ba29f657209751f2160,,,,,,,decisionTrl,resources/DBN.BMP,resources/DG.BMP,Door1,0.31497935,-0.047661356,1,0,0,1.862,optionRight,30,2275,2,0,0,0,0,1,,,,,,,,,,,,,,,,,,,,,,,,,,,,,,,,,,,,,,,
,,,,,,,,2023-08-16_08h33.08.180,HF_wild_card,2022.2.4,Win32,60.08893162,55e356dac70c7a00052a57ec,64d2fd46c836a06233681665,64dc7ba29f657209751f2160,,,,,,,ctch,resources/DY.BMP,resources/DBN.BMP,Door3,-0.328004718,-0.034635879,1,0,0,1.0558,optionLeft,70,2345,2,1,0,1,0,1,,,,,,,,,,,,,,,,,,,,,,,,,,,,,,,,,,,,,,,
,,,,,,,,2023-08-16_08h33.08.180,HF_wild_card,2022.2.4,Win32,60.08893162,55e356dac70c7a00052a57ec,64d2fd46c836a06233681665,64dc7ba29f657209751f2160,,,,,,,ctch,resources/DBN.BMP,resources/DY.BMP,Door3,0.288928396,-0.01687389,1,0,0,0.8438,optionRight,70,2415,2,2,0,2,0,1,,,,,,,,,,,,,,,,,,,,,,,,,,,,,,,,,,,,,,,
,,,,,,,,2023-08-16_08h33.08.180,HF_wild_card,2022.2.4,Win32,60.08893162,55e356dac70c7a00052a57ec,64d2fd46c836a06233681665,64dc7ba29f657209751f2160,,,,,,,decisionTrl,resources/DY.BMP,resources/DP.BMP,Door3,-0.235642374,-0.003848467,1,0,0,0.7628,optionLeft,70,2485,2,3,0,3,0,1,,,,,,,,,,,,,,,,,,,,,,,,,,,,,,,,,,,,,,,
,,,,,,,,2023-08-16_08h33.08.180,HF_wild_card,2022.2.4,Win32,60.08893162,55e356dac70c7a00052a57ec,64d2fd46c836a06233681665,64dc7ba29f657209751f2160,,,,,,,sngl,resources/DB.BMP,resources/Empty.png,WildCard_NonEx,-0.144464144,-0.00858498,1,0,0,0.9953,optionLeft,55,2540,2,4,0,4,0,1,,,,,,,,,,,,,,,,,,,,,,,,,,,,,,,,,,,,,,,
,,,,,,,,2023-08-16_08h33.08.180,HF_wild_card,2022.2.4,Win32,60.08893162,55e356dac70c7a00052a57ec,64d2fd46c836a06233681665,64dc7ba29f657209751f2160,,,,,,,ctch,resources/DG.BMP,resources/DP.BMP,Door4,0.255772647,-0.028715252,1,0,0,0.7455,optionRight,80,2620,2,5,0,5,0,1,,,,,,,,,,,,,,,,,,,,,,,,,,,,,,,,,,,,,,,
,,,,,,,,2023-08-16_08h33.08.180,HF_wild_card,2022.2.4,Win32,60.08893162,55e356dac70c7a00052a57ec,64d2fd46c836a06233681665,64dc7ba29f657209751f2160,,,,,,,decisionTrl,resources/DBN.BMP,resources/DG.BMP,Door1,0.288928396,-0.003848467,1,0,0,1.2284,optionRight,30,2650,2,6,0,6,0,1,,,,,,,,,,,,,,,,,,,,,,,,,,,,,,,,,,,,,,,
,,,,,,,,2023-08-16_08h33.08.180,HF_wild_card,2022.2.4,Win32,60.08893162,55e356dac70c7a00052a57ec,64d2fd46c836a06233681665,64dc7ba29f657209751f2160,,,,,,,sngl,resources/DG.BMP,resources/Empty.png,Door1,-0.265245671,-0.01687389,1,0,0,0.7125,optionLeft,30,2680,2,7,0,7,0,1,,,,,,,,,,,,,,,,,,,,,,,,,,,,,,,,,,,,,,,
,,,,,,,,2023-08-16_08h33.08.180,HF_wild_card,2022.2.4,Win32,60.08893162,55e356dac70c7a00052a57ec,64d2fd46c836a06233681665,64dc7ba29f657209751f2160,,,,,,,decisionTrl,resources/DB.BMP,resources/DP.BMP,Door4,0.254588586,-0.027531083,1,0,0,0.761,optionRight,60,2740,2,8,0,8,0,1,,,,,,,,,,,,,,,,,,,,,,,,,,,,,,,,,,,,,,,
,,,,,,,,2023-08-16_08h33.08.180,HF_wild_card,2022.2.4,Win32,60.08893162,55e356dac70c7a00052a57ec,64d2fd46c836a06233681665,64dc7ba29f657209751f2160,,,,,,,decisionTrl,resources/DBN.BMP,resources/DG.BMP,Door1,0.235642428,-0.010953263,1,0,0,0.9121,optionRight,30,2770,2,9,0,9,0,1,,,,,,,,,,,,,,,,,,,,,,,,,,,,,,,,,,,,,,,
,,,,,,,,2023-08-16_08h33.08.180,HF_wild_card,2022.2.4,Win32,60.08893162,55e356dac70c7a00052a57ec,64d2fd46c836a06233681665,64dc7ba29f657209751f2160,,,,,,,decisionTrl,resources/DP.BMP,resources/DY.BMP,Door3,0.262877442,0.047069272,1,0,0,1.1793,optionRight,70,2840,2,10,0,10,0,1,,,,,,,,,,,,,,,,,,,,,,,,,,,,,,,,,,,,,,,
,,,,,,,,2023-08-16_08h33.08.180,HF_wild_card,2022.2.4,Win32,60.08893162,55e356dac70c7a00052a57ec,64d2fd46c836a06233681665,64dc7ba29f657209751f2160,,,,,,,decisionTrl,resources/DG.BMP,resources/DBN.BMP,Door1,-0.329188833,-0.035820048,1,0,0,0.7626,optionLeft,30,2870,2,11,0,11,0,1,,,,,,,,,,,,,,,,,,,,,,,,,,,,,,,,,,,,,,,
,,,,,,,,2023-08-16_08h33.08.180,HF_wild_card,2022.2.4,Win32,60.08893162,55e356dac70c7a00052a57ec,64d2fd46c836a06233681665,64dc7ba29f657209751f2160,,,,,,,decisionTrl,resources/DY.BMP,resources/DP.BMP,Door4,0.187093027,-0.001480184,1,0,0,0.7289,optionRight,60,2930,2,12,0,12,0,1,,,,,,,,,,,,,,,,,,,,,,,,,,,,,,,,,,,,,,,
,,,,,,,,2023-08-16_08h33.08.180,HF_wild_card,2022.2.4,Win32,60.08893162,55e356dac70c7a00052a57ec,64d2fd46c836a06233681665,64dc7ba29f657209751f2160,,,,,,,ctch,resources/DP.BMP,resources/DG.BMP,Door1,0.14920071,-0.003848467,1,0,0,3.296,optionRight,30,2960,2,13,0,13,0,1,,,,,,,,,,,,,,,,,,,,,,,,,,,,,,,,,,,,,,,
,,,,,,,,2023-08-16_08h33.08.180,HF_wild_card,2022.2.4,Win32,60.08893162,55e356dac70c7a00052a57ec,64d2fd46c836a06233681665,64dc7ba29f657209751f2160,,,,,,,sngl,resources/Empty.png,resources/DB.BMP,WildCard_NonEx,0.165778639,0.004440497,1,0,0,0.6782,optionRight,45,3005,2,14,0,14,0,1,,,,,,,,,,,,,,,,,,,,,,,,,,,,,,,,,,,,,,,
,,,,,,,,2023-08-16_08h33.08.180,HF_wild_card,2022.2.4,Win32,60.08893162,55e356dac70c7a00052a57ec,64d2fd46c836a06233681665,64dc7ba29f657209751f2160,,,,,,,decisionTrl,resources/DG.BMP,resources/DBN.BMP,Door1,-0.27471875,-0.018058059,1,0,0,0.7458,optionLeft,30,3035,2,15,0,15,0,1,,,,,,,,,,,,,,,,,,,,,,,,,,,,,,,,,,,,,,,
,,,,,,,,2023-08-16_08h33.08.180,HF_wild_card,2022.2.4,Win32,60.08893162,55e356dac70c7a00052a57ec,64d2fd46c836a06233681665,64dc7ba29f657209751f2160,,,,,,,decisionTrl,resources/DB.BMP,resources/DBN.BMP,Door2,0.268798178,-0.001480184,1,0,0,1.3955,optionRight,20,3055,2,16,0,16,0,1,,,,,,,,,,,,,,,,,,,,,,,,,,,,,,,,,,,,,,,
,,,,,,,,2023-08-16_08h33.08.180,HF_wild_card,2022.2.4,Win32,60.08893162,55e356dac70c7a00052a57ec,64d2fd46c836a06233681665,64dc7ba29f657209751f2160,,,,,,,sngl,resources/DB.BMP,resources/Empty.png,WildCard_NonEx,-0.191829485,-0.018058059,1,0,0,0.662,optionLeft,45,3100,2,17,0,17,0,1,,,,,,,,,,,,,,,,,,,,,,,,,,,,,,,,,,,,,,,
,,,,,,,,2023-08-16_08h33.08.180,HF_wild_card,2022.2.4,Win32,60.08893162,55e356dac70c7a00052a57ec,64d2fd46c836a06233681665,64dc7ba29f657209751f2160,,,,,,,decisionTrl,resources/DP.BMP,resources/DB.BMP,Door4,-0.311426844,-0.021610457,1,0,0,1.0125,optionLeft,80,3180,2,18,0,18,0,1,,,,,,,,,,,,,,,,,,,,,,,,,,,,,,,,,,,,,,,
,,,,,,,,2023-08-16_08h33.08.180,HF_wild_card,2022.2.4,Win32,60.08893162,55e356dac70c7a00052a57ec,64d2fd46c836a06233681665,64dc7ba29f657209751f2160,,,,,,,ctch,resources/DG.BMP,resources/DP.BMP,Door4,0.243931393,-0.007400865,1,0,0,0.7137,optionRight,60,3240,2,19,0,19,0,1,,,,,,,,,,,,,,,,,,,,,,,,,,,,,,,,,,,,,,,
,,,,,,,,2023-08-16_08h33.08.180,HF_wild_card,2022.2.4,Win32,60.08893162,55e356dac70c7a00052a57ec,64d2fd46c836a06233681665,64dc7ba29f657209751f2160,,,,,,,sngl,resources/Empty.png,resources/DP.BMP,Door4,0.274718805,-0.00858498,1,0,0,0.596,optionRight,80,3320,2,20,0,20,0,1,,,,,,,,,,,,,,,,,,,,,,,,,,,,,,,,,,,,,,,
,,,,,,,,2023-08-16_08h33.08.180,HF_wild_card,2022.2.4,Win32,60.08893162,55e356dac70c7a00052a57ec,64d2fd46c836a06233681665,64dc7ba29f657209751f2160,,,,,,,sngl,resources/DP.BMP,resources/Empty.png,Door4,-0.279455263,-0.012137377,1,0,0,0.5632,optionLeft,60,3380,2,21,0,21,0,1,,,,,,,,,,,,,,,,,,,,,,,,,,,,,,,,,,,,,,,
,,,,,,,,2023-08-16_08h33.08.180,HF_wild_card,2022.2.4,Win32,60.08893162,55e356dac70c7a00052a57ec,64d2fd46c836a06233681665,64dc7ba29f657209751f2160,,,,,,,decisionTrl,resources/DP.BMP,resources/DY.BMP,Door3,0.202486679,-0.029899367,1,0,0,2.4292,optionRight,70,3450,2,22,0,22,0,1,,,,,,,,,,,,,,,,,,,,,,,,,,,,,,,,,,,,,,,
,,,,,,,,2023-08-16_08h33.08.180,HF_wild_card,2022.2.4,Win32,60.08893162,55e356dac70c7a00052a57ec,64d2fd46c836a06233681665,64dc7ba29f657209751f2160,,,,,,,decisionTrl,resources/DBN.BMP,resources/DG.BMP,Door1,0.223801066,0.004440497,1,0,0,0.9641,optionRight,30,3480,2,23,0,23,0,1,,,,,,,,,,,,,,,,,,,,,,,,,,,,,,,,,,,,,,,
,,,,,,,,2023-08-16_08h33.08.180,HF_wild_card,2022.2.4,Win32,60.08893162,55e356dac70c7a00052a57ec,64d2fd46c836a06233681665,64dc7ba29f657209751f2160,,,,,,,decisionTrl,resources/DY.BMP,resources/DP.BMP,Door3,-0.248667851,-0.000296069,1,0,0,1.4631,optionLeft,70,3550,2,24,0,24,0,1,,,,,,,,,,,,,,,,,,,,,,,,,,,,,,,,,,,,,,,
,,,,,,,,2023-08-16_08h33.08.180,HF_wild_card,2022.2.4,Win32,60.08893162,55e356dac70c7a00052a57ec,64d2fd46c836a06233681665,64dc7ba29f657209751f2160,,,,,,,decisionTrl,resources/DG.BMP,resources/DBN.BMP,Door1,-0.208407305,-0.009769094,1,0,0,0.9133,optionLeft,30,3580,2,25,0,25,0,1,,,,,,,,,,,,,,,,,,,,,,,,,,,,,,,,,,,,,,,
,,,,,,,,2023-08-16_08h33.08.180,HF_wild_card,2022.2.4,Win32,60.08893162,55e356dac70c7a00052a57ec,64d2fd46c836a06233681665,64dc7ba29f657209751f2160,,,,,,,sngl,resources/Empty.png,resources/DG.BMP,Door1,0.241563055,-0.005032582,1,0,0,0.7463,optionRight,30,3610,2,26,0,26,0,1,,,,,,,,,,,,,,,,,,,,,,,,,,,,,,,,,,,,,,,
,,,,,,,,2023-08-16_08h33.08.180,HF_wild_card,2022.2.4,Win32,60.08893162,55e356dac70c7a00052a57ec,64d2fd46c836a06233681665,64dc7ba29f657209751f2160,,,,,,,ctch,resources/DY.BMP,resources/DBN.BMP,Door3,-0.208407305,-0.009769094,1,0,0,0.9797,optionLeft,70,3680,2,27,0,27,0,1,,,,,,,,,,,,,,,,,,,,,,,,,,,,,,,,,,,,,,,
,,,,,,,,2023-08-16_08h33.08.180,HF_wild_card,2022.2.4,Win32,60.08893162,55e356dac70c7a00052a57ec,64d2fd46c836a06233681665,64dc7ba29f657209751f2160,,,,,,,decisionTrl,resources/DP.BMP,resources/DY.BMP,Door3,0.234458259,0.016281805,1,0,0,3.0797,optionRight,70,3750,2,28,0,28,0,1,,,,,,,,,,,,,,,,,,,,,,,,,,,,,,,,,,,,,,,
,,,,,,,,2023-08-16_08h33.08.180,HF_wild_card,2022.2.4,Win32,60.08893162,55e356dac70c7a00052a57ec,64d2fd46c836a06233681665,64dc7ba29f657209751f2160,,,,,,,sngl,resources/Empty.png,resources/DBN.BMP,Door2,0.158673844,-0.009769094,1,0,0,1.0802,optionRight,40,3790,2,29,0,29,0,1,,,,,,,,,,,,,,,,,,,,,,,,,,,,,,,,,,,,,,,
,,,,,,,,2023-08-16_08h33.08.180,HF_wild_card,2022.2.4,Win32,60.08893162,55e356dac70c7a00052a57ec,64d2fd46c836a06233681665,64dc7ba29f657209751f2160,,,,,,,decisionTrl,resources/DBN.BMP,resources/DB.BMP,WildCard_NonEx,0.157489675,-0.007400865,1,0,0,0.9423,optionRight,45,3835,2,30,0,30,0,1,,,,,,,,,,,,,,,,,,,,,,,,,,,,,,,,,,,,,,,
,,,,,,,,2023-08-16_08h33.08.180,HF_wild_card,2022.2.4,Win32,60.08893162,55e356dac70c7a00052a57ec,64d2fd46c836a06233681665,64dc7ba29f657209751f2160,,,,,,,sngl,resources/DBN.BMP,resources/Empty.png,Door2,-0.1669627,-0.021610457,1,0,0,1.1467,optionLeft,20,3855,2,31,0,31,0,1,,,,,,,,,,,,,,,,,,,,,,,,,,,,,,,,,,,,,,,
,,,,,,,,2023-08-16_08h33.08.180,HF_wild_card,2022.2.4,Win32,60.08893162,55e356dac70c7a00052a57ec,64d2fd46c836a06233681665,64dc7ba29f657209751f2160,,,,,,,sngl,resources/Empty.png,resources/DY.BMP,Door3,0.200118449,0.006808726,1,0,0,0.7298,optionRight,70,3925,2,32,0,32,0,1,,,,,,,,,,,,,,,,,,,,,,,,,,,,,,,,,,,,,,,
,,,,,,,,2023-08-16_08h33.08.180,HF_wild_card,2022.2.4,Win32,60.08893162,55e356dac70c7a00052a57ec,64d2fd46c836a06233681665,64dc7ba29f657209751f2160,,,,,,,decisionTrl,resources/DG.BMP,resources/DB.BMP,Door1,-0.148016542,-0.023978686,1,0,0,2.2459,optionLeft,30,3955,2,33,0,33,0,1,,,,,,,,,,,,,,,,,,,,,,,,,,,,,,,,,,,,,,,
,,,,,,,,2023-08-16_08h33.08.180,HF_wild_card,2022.2.4,Win32,60.08893162,55e356dac70c7a00052a57ec,64d2fd46c836a06233681665,64dc7ba29f657209751f2160,,,,,,,decisionTrl,resources/DB.BMP,resources/DY.BMP,Door3,0.223801066,0.007992895,1,0,0,1.1632,optionRight,70,4025,2,34,0,34,0,1,,,,,,,,,,,,,,,,,,,,,,,,,,,,,,,,,,,,,,,
,,,,,,,,2023-08-16_08h33.08.180,HF_wild_card,2022.2.4,Win32,60.08893162,55e356dac70c7a00052a57ec,64d2fd46c836a06233681665,64dc7ba29f657209751f2160,,,,,,,sngl,resources/DY.BMP,resources/Empty.png,Door3,-0.235642374,-0.023978686,1,0,0,0.7085,optionLeft,70,4095,2,35,0,35,0,1,,,,,,,,,,,,,,,,,,,,,,,,,,,,,,,,,,,,,,,
,,,,,,,,2023-08-16_08h33.08.180,HF_wild_card,2022.2.4,Win32,60.08893162,55e356dac70c7a00052a57ec,64d2fd46c836a06233681665,64dc7ba29f657209751f2160,,,,,,,decisionTrl,resources/DP.BMP,resources/DY.BMP,Door3,0.209591474,-0.002664298,1,0,0,3.4116,optionRight,70,4165,2,36,0,36,0,1,,,,,,,,,,,,,,,,,,,,,,,,,,,,,,,,,,,,,,,
,,,,,,,,2023-08-16_08h33.08.180,HF_wild_card,2022.2.4,Win32,60.08893162,55e356dac70c7a00052a57ec,64d2fd46c836a06233681665,64dc7ba29f657209751f2160,,,,,,,ctch,resources/DP.BMP,resources/DG.BMP,Door4,-0.241563055,-0.009769094,1,0,0,0.767,optionLeft,60,4225,2,37,0,37,0,1,,,,,,,,,,,,,,,,,,,,,,,,,,,,,,,,,,,,,,,
,,,,,,,,2023-08-16_08h33.08.180,HF_wild_card,2022.2.4,Win32,60.08893162,55e356dac70c7a00052a57ec,64d2fd46c836a06233681665,64dc7ba29f657209751f2160,,,,,,,decisionTrl,resources/DB.BMP,resources/DG.BMP,Door1,0.272350576,0.007992895,1,0,0,1.0584,optionRight,30,4255,2,38,0,38,0,1,,,,,,,,,,,,,,,,,,,,,,,,,,,,,,,,,,,,,,,
,,,,,,,,2023-08-16_08h33.08.180,HF_wild_card,2022.2.4,Win32,60.08893162,55e356dac70c7a00052a57ec,64d2fd46c836a06233681665,64dc7ba29f657209751f2160,,,,,,,decisionTrl,resources/DY.BMP,resources/DP.BMP,Door4,0.271166407,-0.005032582,1,0,0,2.0283,optionRight,80,4335,2,39,0,39,0,1,,,,,,,,,,,,,,,,,,,,,,,,,,,,,,,,,,,,,,,
,,,,,,,,2023-08-16_08h33.08.180,HF_wild_card,2022.2.4,Win32,60.08893162,55e356dac70c7a00052a57ec,64d2fd46c836a06233681665,64dc7ba29f657209751f2160,,,,,,,decisionTrl,resources/DG.BMP,resources/DBN.BMP,Door1,-0.286560059,0.00917701,1,0,0,1.1627,optionLeft,30,4365,2,40,0,40,0,1,,,,,,,,,,,,,,,,,,,,,,,,,,,,,,,,,,,,,,,
,,,,,,,,2023-08-16_08h33.08.180,HF_wild_card,2022.2.4,Win32,60.08893162,55e356dac70c7a00052a57ec,64d2fd46c836a06233681665,64dc7ba29f657209751f2160,,,,,,,sngl,resources/Empty.png,resources/DB.BMP,WildCard_NonEx,0.254588586,-0.015689775,1,0,0,0.7679,optionRight,55,4420,2,41,0,41,0,1,,,,,,,,,,,,,,,,,,,,,,,,,,,,,,,,,,,,,,,
,,,,,,,,2023-08-16_08h33.08.180,HF_wild_card,2022.2.4,Win32,60.08893162,55e356dac70c7a00052a57ec,64d2fd46c836a06233681665,64dc7ba29f657209751f2160,,,,,,,decisionTrl,resources/DY.BMP,resources/DB.BMP,Door3,-0.174067496,-0.003848467,1,0,0,1.4577,optionLeft,70,4490,2,42,0,42,0,1,,,,,,,,,,,,,,,,,,,,,,,,,,,,,,,,,,,,,,,
,,,,,,,,2023-08-16_08h33.08.180,HF_wild_card,2022.2.4,Win32,60.08893162,55e356dac70c7a00052a57ec,64d2fd46c836a06233681665,64dc7ba29f657209751f2160,,,,,,,ctch,resources/DBN.BMP,resources/DY.BMP,Door3,0.268798178,-0.001480184,1,0,0,0.7813,optionRight,70,4560,2,43,0,43,0,1,,,,,,,,,,,,,,,,,,,,,,,,,,,,,,,,,,,,,,,
,,,,,,,,2023-08-16_08h33.08.180,HF_wild_card,2022.2.4,Win32,60.08893162,55e356dac70c7a00052a57ec,64d2fd46c836a06233681665,64dc7ba29f657209751f2160,,,,,,,,,,,,,,,,,,,,,,,,,,1,0,1,0,1,,,,,,,,,,,,,,,,,,,,,,,,,,,,,,,,,,
,,,,,,,,2023-08-16_08h33.08.180,HF_wild_card,2022.2.4,Win32,60.08893162,55e356dac70c7a00052a57ec,64d2fd46c836a06233681665,64dc7ba29f657209751f2160,,,,,,,sngl,resources/Empty.png,resources/DP.BMP,Door4,0.563647201,-0.097394926,1,0,0,2.3319,optionRight,60,4620,3,0,0,0,0,1,,,,,,,,,,,,,,,,,,,,,,,,,,,,,,,,,,,,,,,
,,,,,,,,2023-08-16_08h33.08.180,HF_wild_card,2022.2.4,Win32,60.08893162,55e356dac70c7a00052a57ec,64d2fd46c836a06233681665,64dc7ba29f657209751f2160,,,,,,,ctch,resources/DY.BMP,resources/DBN.BMP,Door3,-0.303137933,0.003256329,1,0,0,0.867,optionLeft,70,4690,3,1,0,1,0,1,,,,,,,,,,,,,,,,,,,,,,,,,,,,,,,,,,,,,,,
,,,,,,,,2023-08-16_08h33.08.180,HF_wild_card,2022.2.4,Win32,60.08893162,55e356dac70c7a00052a57ec,64d2fd46c836a06233681665,64dc7ba29f657209751f2160,,,,,,,decisionTrl,resources/DG.BMP,resources/DBN.BMP,Door1,-0.280639432,-0.010953263,1,0,0,0.8972,optionLeft,30,4720,3,2,0,2,0,1,,,,,,,,,,,,,,,,,,,,,,,,,,,,,,,,,,,,,,,
,,,,,,,,2023-08-16_08h33.08.180,HF_wild_card,2022.2.4,Win32,60.08893162,55e356dac70c7a00052a57ec,64d2fd46c836a06233681665,64dc7ba29f657209751f2160,,,,,,,decisionTrl,resources/DY.BMP,resources/DB.BMP,Door3,-0.272350467,-0.00858498,1,0,0,0.9182,optionLeft,70,4790,3,3,0,3,0,1,,,,,,,,,,,,,,,,,,,,,,,,,,,,,,,,,,,,,,,
,,,,,,,,2023-08-16_08h33.08.180,HF_wild_card,2022.2.4,Win32,60.08893162,55e356dac70c7a00052a57ec,64d2fd46c836a06233681665,64dc7ba29f657209751f2160,,,,,,,sngl,resources/Empty.png,resources/DG.BMP,Door1,0.194197822,-0.005032582,1,0,0,0.7419,optionRight,30,4820,3,4,0,4,0,1,,,,,,,,,,,,,,,,,,,,,,,,,,,,,,,,,,,,,,,
,,,,,,,,2023-08-16_08h33.08.180,HF_wild_card,2022.2.4,Win32,60.08893162,55e356dac70c7a00052a57ec,64d2fd46c836a06233681665,64dc7ba29f657209751f2160,,,,,,,decisionTrl,resources/DY.BMP,resources/DP.BMP,Door4,0.255772647,-0.018058059,1,0,0,1.6958,optionRight,80,4900,3,5,0,5,0,1,,,,,,,,,,,,,,,,,,,,,,,,,,,,,,,,,,,,,,,
,,,,,,,,2023-08-16_08h33.08.180,HF_wild_card,2022.2.4,Win32,60.08893162,55e356dac70c7a00052a57ec,64d2fd46c836a06233681665,64dc7ba29f657209751f2160,,,,,,,decisionTrl,resources/DP.BMP,resources/DB.BMP,Door4,-0.262877442,-0.01687389,1,0,0,0.6961,optionLeft,80,4980,3,6,0,6,0,1,,,,,,,,,,,,,,,,,,,,,,,,,,,,,,,,,,,,,,,
,,,,,,,,2023-08-16_08h33.08.180,HF_wild_card,2022.2.4,Win32,60.08893162,55e356dac70c7a00052a57ec,64d2fd46c836a06233681665,64dc7ba29f657209751f2160,,,,,,,decisionTrl,resources/DBN.BMP,resources/DB.BMP,WildCard_NonEx,0.262877442,0.007992895,1,0,0,0.9348,optionRight,45,5025,3,7,0,7,0,1,,,,,,,,,,,,,,,,,,,,,,,,,,,,,,,,,,,,,,,
,,,,,,,,2023-08-16_08h33.08.180,HF_wild_card,2022.2.4,Win32,60.08893162,55e356dac70c7a00052a57ec,64d2fd46c836a06233681665,64dc7ba29f657209751f2160,,,,,,,decisionTrl,resources/DG.BMP,resources/DBN.BMP,Door1,-0.258140876,-0.000296069,1,0,0,0.7794,optionLeft,30,5055,3,8,0,8,0,1,,,,,,,,,,,,,,,,,,,,,,,,,,,,,,,,,,,,,,,
,,,,,,,,2023-08-16_08h33.08.180,HF_wild_card,2022.2.4,Win32,60.08893162,55e356dac70c7a00052a57ec,64d2fd46c836a06233681665,64dc7ba29f657209751f2160,,,,,,,decisionTrl,resources/DBN.BMP,resources/DG.BMP,Door1,0.187093027,0.003256329,1,0,0,0.6795,optionRight,30,5085,3,9,0,9,0,1,,,,,,,,,,,,,,,,,,,,,,,,,,,,,,,,,,,,,,,
,,,,,,,,2023-08-16_08h33.08.180,HF_wild_card,2022.2.4,Win32,60.08893162,55e356dac70c7a00052a57ec,64d2fd46c836a06233681665,64dc7ba29f657209751f2160,,,,,,,sngl,resources/DBN.BMP,resources/Empty.png,Door2,-0.158673735,0.011545293,1,0,0,0.759,optionLeft,40,5125,3,10,0,10,0,1,,,,,,,,,,,,,,,,,,,,,,,,,,,,,,,,,,,,,,,
,,,,,,,,2023-08-16_08h33.08.180,HF_wild_card,2022.2.4,Win32,60.08893162,55e356dac70c7a00052a57ec,64d2fd46c836a06233681665,64dc7ba29f657209751f2160,,,,,,,decisionTrl,resources/DP.BMP,resources/DY.BMP,Door4,-0.210775535,-0.019242173,1,0,0,2.0802,optionLeft,60,5185,3,11,0,11,0,1,,,,,,,,,,,,,,,,,,,,,,,,,,,,,,,,,,,,,,,
,,,,,,,,2023-08-16_08h33.08.180,HF_wild_card,2022.2.4,Win32,60.08893162,55e356dac70c7a00052a57ec,64d2fd46c836a06233681665,64dc7ba29f657209751f2160,,,,,,,decisionTrl,resources/DG.BMP,resources/DB.BMP,WildCard_NonEx,0.163410302,0.00917701,1,0,0,0.9413,optionRight,45,5230,3,12,0,12,0,1,,,,,,,,,,,,,,,,,,,,,,,,,,,,,,,,,,,,,,,
,,,,,,,,2023-08-16_08h33.08.180,HF_wild_card,2022.2.4,Win32,60.08893162,55e356dac70c7a00052a57ec,64d2fd46c836a06233681665,64dc7ba29f657209751f2160,,,,,,,ctch,resources/DG.BMP,resources/DP.BMP,Door4,0.179988231,-0.010953263,1,0,0,0.6655,optionRight,60,5290,3,13,0,13,0,1,,,,,,,,,,,,,,,,,,,,,,,,,,,,,,,,,,,,,,,
,,,,,,,,2023-08-16_08h33.08.180,HF_wild_card,2022.2.4,Win32,60.08893162,55e356dac70c7a00052a57ec,64d2fd46c836a06233681665,64dc7ba29f657209751f2160,,,,,,,sngl,resources/DY.BMP,resources/Empty.png,Door3,-0.229721693,-0.002664298,1,0,0,0.6811,optionLeft,70,5360,3,14,0,14,0,1,,,,,,,,,,,,,,,,,,,,,,,,,,,,,,,,,,,,,,,
,,,,,,,,2023-08-16_08h33.08.180,HF_wild_card,2022.2.4,Win32,60.08893162,55e356dac70c7a00052a57ec,64d2fd46c836a06233681665,64dc7ba29f657209751f2160,,,,,,,sngl,resources/DG.BMP,resources/Empty.png,Door1,-0.197750112,-0.015689775,1,0,0,0.741,optionLeft,30,5390,3,15,0,15,0,1,,,,,,,,,,,,,,,,,,,,,,,,,,,,,,,,,,,,,,,
,,,,,,,,2023-08-16_08h33.08.180,HF_wild_card,2022.2.4,Win32,60.08893162,55e356dac70c7a00052a57ec,64d2fd46c836a06233681665,64dc7ba29f657209751f2160,,,,,,,ctch,resources/DP.BMP,resources/DG.BMP,Door4,-0.198934281,-0.005032582,1,0,0,1.2124,optionLeft,80,5470,3,16,0,16,0,1,,,,,,,,,,,,,,,,,,,,,,,,,,,,,,,,,,,,,,,
,,,,,,,,2023-08-16_08h33.08.180,HF_wild_card,2022.2.4,Win32,60.08893162,55e356dac70c7a00052a57ec,64d2fd46c836a06233681665,64dc7ba29f657209751f2160,,,,,,,decisionTrl,resources/DP.BMP,resources/DY.BMP,Door4,-0.258140876,-0.022794571,1,0,0,0.6754,optionLeft,80,5550,3,17,0,17,0,1,,,,,,,,,,,,,,,,,,,,,,,,,,,,,,,,,,,,,,,
,,,,,,,,2023-08-16_08h33.08.180,HF_wild_card,2022.2.4,Win32,60.08893162,55e356dac70c7a00052a57ec,64d2fd46c836a06233681665,64dc7ba29f657209751f2160,,,,,,,decisionTrl,resources/DB.BMP,resources/DG.BMP,Door1,0.163410302,-0.007400865,1,0,0,1.0138,optionRight,30,5580,3,18,0,18,0,1,,,,,,,,,,,,,,,,,,,,,,,,,,,,,,,,,,,,,,,
,,,,,,,,2023-08-16_08h33.08.180,HF_wild_card,2022.2.4,Win32,60.08893162,55e356dac70c7a00052a57ec,64d2fd46c836a06233681665,64dc7ba29f657209751f2160,,,,,,,ctch,resources/DY.BMP,resources/DBN.BMP,Door3,-0.214327932,-0.027531083,1,0,0,0.9018,optionLeft,70,5650,3,19,0,19,0,1,,,,,,,,,,,,,,,,,,,,,,,,,,,,,,,,,,,,,,,
,,,,,,,,2023-08-16_08h33.08.180,HF_wild_card,2022.2.4,Win32,60.08893162,55e356dac70c7a00052a57ec,64d2fd46c836a06233681665,64dc7ba29f657209751f2160,,,,,,,decisionTrl,resources/DP.BMP,resources/DY.BMP,Door3,0.202486679,-0.031083481,1,0,0,1.5749,optionRight,70,5720,3,20,0,20,0,1,,,,,,,,,,,,,,,,,,,,,,,,,,,,,,,,,,,,,,,
,,,,,,,,2023-08-16_08h33.08.180,HF_wild_card,2022.2.4,Win32,60.08893162,55e356dac70c7a00052a57ec,64d2fd46c836a06233681665,64dc7ba29f657209751f2160,,,,,,,decisionTrl,resources/DY.BMP,resources/DP.BMP,Door3,-0.284191829,-0.018058059,1,0,0,0.5959,optionLeft,70,5790,3,21,0,21,0,1,,,,,,,,,,,,,,,,,,,,,,,,,,,,,,,,,,,,,,,
,,,,,,,,2023-08-16_08h33.08.180,HF_wild_card,2022.2.4,Win32,60.08893162,55e356dac70c7a00052a57ec,64d2fd46c836a06233681665,64dc7ba29f657209751f2160,,,,,,,decisionTrl,resources/DBN.BMP,resources/DG.BMP,Door2,-0.181172291,-0.03226765,1,0,0,1.5954,optionLeft,40,5830,3,22,0,22,0,1,,,,,,,,,,,,,,,,,,,,,,,,,,,,,,,,,,,,,,,
,,,,,,,,2023-08-16_08h33.08.180,HF_wild_card,2022.2.4,Win32,60.08893162,55e356dac70c7a00052a57ec,64d2fd46c836a06233681665,64dc7ba29f657209751f2160,,,,,,,ctch,resources/DBN.BMP,resources/DY.BMP,Door2,-0.158673735,-0.007400865,1,0,0,0.6964,optionLeft,20,5850,3,23,0,23,0,1,,,,,,,,,,,,,,,,,,,,,,,,,,,,,,,,,,,,,,,
,,,,,,,,2023-08-16_08h33.08.180,HF_wild_card,2022.2.4,Win32,60.08893162,55e356dac70c7a00052a57ec,64d2fd46c836a06233681665,64dc7ba29f657209751f2160,,,,,,,ctch,resources/DBN.BMP,resources/DY.BMP,Door3,0.156305506,-0.026346969,1,0,0,0.6291,optionRight,70,5920,3,24,0,24,0,1,,,,,,,,,,,,,,,,,,,,,,,,,,,,,,,,,,,,,,,
,,,,,,,,2023-08-16_08h33.08.180,HF_wild_card,2022.2.4,Win32,60.08893162,55e356dac70c7a00052a57ec,64d2fd46c836a06233681665,64dc7ba29f657209751f2160,,,,,,,sngl,resources/DB.BMP,resources/Empty.png,WildCard_NonEx,-0.119597359,-0.022794571,1,0,0,0.6124,optionLeft,55,5975,3,25,0,25,0,1,,,,,,,,,,,,,,,,,,,,,,,,,,,,,,,,,,,,,,,
,,,,,,,,2023-08-16_08h33.08.180,HF_wild_card,2022.2.4,Win32,60.08893162,55e356dac70c7a00052a57ec,64d2fd46c836a06233681665,64dc7ba29f657209751f2160,,,,,,,decisionTrl,resources/DY.BMP,resources/DP.BMP,Door4,0.169331037,0.004440497,1,0,0,1.1782,optionRight,80,6055,3,26,0,26,0,1,,,,,,,,,,,,,,,,,,,,,,,,,,,,,,,,,,,,,,,
,,,,,,,,2023-08-16_08h33.08.180,HF_wild_card,2022.2.4,Win32,60.08893162,55e356dac70c7a00052a57ec,64d2fd46c836a06233681665,64dc7ba29f657209751f2160,,,,,,,sngl,resources/DB.BMP,resources/Empty.png,WildCard_NonEx,-0.158673735,-0.014505661,1,0,0,0.6284,optionLeft,45,6100,3,27,0,27,0,1,,,,,,,,,,,,,,,,,,,,,,,,,,,,,,,,,,,,,,,
,,,,,,,,2023-08-16_08h33.08.180,HF_wild_card,2022.2.4,Win32,60.08893162,55e356dac70c7a00052a57ec,64d2fd46c836a06233681665,64dc7ba29f657209751f2160,,,,,,,sngl,resources/DP.BMP,resources/Empty.png,Door4,-0.144464144,-0.013321492,1,0,0,0.6965,optionLeft,80,6180,3,28,0,28,0,1,,,,,,,,,,,,,,,,,,,,,,,,,,,,,,,,,,,,,,,
,,,,,,,,2023-08-16_08h33.08.180,HF_wild_card,2022.2.4,Win32,60.08893162,55e356dac70c7a00052a57ec,64d2fd46c836a06233681665,64dc7ba29f657209751f2160,,,,,,,decisionTrl,resources/DP.BMP,resources/DY.BMP,Door3,0.145648313,-0.00858498,1,0,0,0.8629,optionRight,70,6250,3,29,0,29,0,1,,,,,,,,,,,,,,,,,,,,,,,,,,,,,,,,,,,,,,,
,,,,,,,,2023-08-16_08h33.08.180,HF_wild_card,2022.2.4,Win32,60.08893162,55e356dac70c7a00052a57ec,64d2fd46c836a06233681665,64dc7ba29f657209751f2160,,,,,,,ctch,resources/DG.BMP,resources/DP.BMP,Door4,0.119597467,-0.010953263,1,0,0,0.7121,optionRight,80,6330,3,30,0,30,0,1,,,,,,,,,,,,,,,,,,,,,,,,,,,,,,,,,,,,,,,
,,,,,,,,2023-08-16_08h33.08.180,HF_wild_card,2022.2.4,Win32,60.08893162,55e356dac70c7a00052a57ec,64d2fd46c836a06233681665,64dc7ba29f657209751f2160,,,,,,,decisionTrl,resources/DB.BMP,resources/DY.BMP,Door3,0.176435833,-0.001480184,1,0,0,0.6625,optionRight,70,6400,3,31,0,31,0,1,,,,,,,,,,,,,,,,,,,,,,,,,,,,,,,,,,,,,,,
,,,,,,,,2023-08-16_08h33.08.180,HF_wild_card,2022.2.4,Win32,60.08893162,55e356dac70c7a00052a57ec,64d2fd46c836a06233681665,64dc7ba29f657209751f2160,,,,,,,decisionTrl,resources/DBN.BMP,resources/DG.BMP,Door1,0.164594471,0.005624612,1,0,0,0.8132,optionRight,30,6430,3,32,0,32,0,1,,,,,,,,,,,,,,,,,,,,,,,,,,,,,,,,,,,,,,,
,,,,,,,,2023-08-16_08h33.08.180,HF_wild_card,2022.2.4,Win32,60.08893162,55e356dac70c7a00052a57ec,64d2fd46c836a06233681665,64dc7ba29f657209751f2160,,,,,,,sngl,resources/Empty.png,resources/DBN.BMP,Door2,0.165778639,-0.010953263,1,0,0,0.9622,optionRight,20,6450,3,33,0,33,0,1,,,,,,,,,,,,,,,,,,,,,,,,,,,,,,,,,,,,,,,
,,,,,,,,2023-08-16_08h33.08.180,HF_wild_card,2022.2.4,Win32,60.08893162,55e356dac70c7a00052a57ec,64d2fd46c836a06233681665,64dc7ba29f657209751f2160,,,,,,,decisionTrl,resources/DB.BMP,resources/DBN.BMP,WildCard_NonEx,-0.238010657,-0.054766152,1,0,0,1.3946,optionLeft,55,6505,3,34,0,34,0,1,,,,,,,,,,,,,,,,,,,,,,,,,,,,,,,,,,,,,,,
,,,,,,,,2023-08-16_08h33.08.180,HF_wild_card,2022.2.4,Win32,60.08893162,55e356dac70c7a00052a57ec,64d2fd46c836a06233681665,64dc7ba29f657209751f2160,,,,,,,sngl,resources/Empty.png,resources/DB.BMP,WildCard_NonEx,0.255772647,0.026938999,1,0,0,0.7459,optionRight,45,6550,3,35,0,35,0,1,,,,,,,,,,,,,,,,,,,,,,,,,,,,,,,,,,,,,,,
,,,,,,,,2023-08-16_08h33.08.180,HF_wild_card,2022.2.4,Win32,60.08893162,55e356dac70c7a00052a57ec,64d2fd46c836a06233681665,64dc7ba29f657209751f2160,,,,,,,sngl,resources/Empty.png,resources/DY.BMP,Door3,0.209591474,-0.026346969,1,0,0,0.6794,optionRight,70,6620,3,36,0,36,0,1,,,,,,,,,,,,,,,,,,,,,,,,,,,,,,,,,,,,,,,
,,,,,,,,2023-08-16_08h33.08.180,HF_wild_card,2022.2.4,Win32,60.08893162,55e356dac70c7a00052a57ec,64d2fd46c836a06233681665,64dc7ba29f657209751f2160,,,,,,,decisionTrl,resources/DB.BMP,resources/DP.BMP,Door4,0.18235646,-0.01687389,1,0,0,0.8647,optionRight,80,6700,3,37,0,37,0,1,,,,,,,,,,,,,,,,,,,,,,,,,,,,,,,,,,,,,,,
,,,,,,,,2023-08-16_08h33.08.180,HF_wild_card,2022.2.4,Win32,60.08893162,55e356dac70c7a00052a57ec,64d2fd46c836a06233681665,64dc7ba29f657209751f2160,,,,,,,ctch,resources/DP.BMP,resources/DG.BMP,Door4,-0.235642374,-0.028715252,1,0,0,0.68,optionLeft,80,6780,3,38,0,38,0,1,,,,,,,,,,,,,,,,,,,,,,,,,,,,,,,,,,,,,,,
,,,,,,,,2023-08-16_08h33.08.180,HF_wild_card,2022.2.4,Win32,60.08893162,55e356dac70c7a00052a57ec,64d2fd46c836a06233681665,64dc7ba29f657209751f2160,,,,,,,decisionTrl,resources/DBN.BMP,resources/DG.BMP,Door1,0.23209003,0.016281805,1,0,0,0.6634,optionRight,30,6810,3,39,0,39,0,1,,,,,,,,,,,,,,,,,,,,,,,,,,,,,,,,,,,,,,,
,,,,,,,,2023-08-16_08h33.08.180,HF_wild_card,2022.2.4,Win32,60.08893162,55e356dac70c7a00052a57ec,64d2fd46c836a06233681665,64dc7ba29f657209751f2160,,,,,,,sngl,resources/Empty.png,resources/DB.BMP,WildCard_NonEx,0.254588586,-0.014505661,1,0,0,0.8129,optionRight,55,6865,3,40,0,40,0,1,,,,,,,,,,,,,,,,,,,,,,,,,,,,,,,,,,,,,,,
,,,,,,,,2023-08-16_08h33.08.180,HF_wild_card,2022.2.4,Win32,60.08893162,55e356dac70c7a00052a57ec,64d2fd46c836a06233681665,64dc7ba29f657209751f2160,,,,,,,decisionTrl,resources/DY.BMP,resources/DP.BMP,Door4,0.152753108,-0.021610457,1,0,0,1.5785,optionRight,80,6945,3,41,0,41,0,1,,,,,,,,,,,,,,,,,,,,,,,,,,,,,,,,,,,,,,,
,,,,,,,,2023-08-16_08h33.08.180,HF_wild_card,2022.2.4,Win32,60.08893162,55e356dac70c7a00052a57ec,64d2fd46c836a06233681665,64dc7ba29f657209751f2160,,,,,,,decisionTrl,resources/DG.BMP,resources/DBN.BMP,Door1,-0.224985126,0.000888099,1,0,0,1.9462,optionLeft,30,6975,3,42,0,42,0,1,,,,,,,,,,,,,,,,,,,,,,,,,,,,,,,,,,,,,,,
,,,,,,,,2023-08-16_08h33.08.180,HF_wild_card,2022.2.4,Win32,60.08893162,55e356dac70c7a00052a57ec,64d2fd46c836a06233681665,64dc7ba29f657209751f2160,,,,,,,decisionTrl,resources/DG.BMP,resources/DBN.BMP,Door1,-0.236826488,0.003256329,1,0,0,1.0302,optionLeft,30,7005,3,43,0,43,0,1,,,,,,,,,,,,,,,,,,,,,,,,,,,,,,,,,,,,,,,
,,,,,,,,2023-08-16_08h33.08.180,HF_wild_card,2022.2.4,Win32,60.08893162,55e356dac70c7a00052a57ec,64d2fd46c836a06233681665,64dc7ba29f657209751f2160,,,,,,,,,,,,,,,,,,,,,,,,,,2,0,2,0,1,,,,,,,,,,,,,,,,,,,,,,,,,,,,,,,,,,
,,,,,,,,2023-08-16_08h33.08.180,HF_wild_card,2022.2.4,Win32,60.08893162,55e356dac70c7a00052a57ec,64d2fd46c836a06233681665,64dc7ba29f657209751f2160,,,,,,,decisionTrl,resources/DY.BMP,resources/DP.BMP,Door4,0.461811723,-0.067791629,1,0,0,1.8956,optionRight,60,7065,4,0,0,0,0,1,,,,,,,,,,,,,,,,,,,,,,,,,,,,,,,,,,,,,,,
,,,,,,,,2023-08-16_08h33.08.180,HF_wild_card,2022.2.4,Win32,60.08893162,55e356dac70c7a00052a57ec,64d2fd46c836a06233681665,64dc7ba29f657209751f2160,,,,,,,ctch,resources/DG.BMP,resources/DP.BMP,Door4,0.324452375,-0.041740675,1,0,0,0.8304,optionRight,80,7145,4,1,0,1,0,1,,,,,,,,,,,,,,,,,,,,,,,,,,,,,,,,,,,,,,,
,,,,,,,,2023-08-16_08h33.08.180,HF_wild_card,2022.2.4,Win32,60.08893162,55e356dac70c7a00052a57ec,64d2fd46c836a06233681665,64dc7ba29f657209751f2160,,,,,,,sngl,resources/Empty.png,resources/DR.BMP,WildCard_Ex,0.279455371,-0.039372446,1,0,0,1.0797,optionRight,5,7150,4,2,0,2,0,1,,,,,,,,,,,,,,,,,,,,,,,,,,,,,,,,,,,,,,,
,,,,,,,,2023-08-16_08h33.08.180,HF_wild_card,2022.2.4,Win32,60.08893162,55e356dac70c7a00052a57ec,64d2fd46c836a06233681665,64dc7ba29f657209751f2160,,,,,,,decisionTrl,resources/DG.BMP,resources/DBN.BMP,Door1,-0.390763766,-0.00858498,1,0,0,1.3752,optionLeft,30,7180,4,3,0,3,0,1,,,,,,,,,,,,,,,,,,,,,,,,,,,,,,,,,,,,,,,
,,,,,,,,2023-08-16_08h33.08.180,HF_wild_card,2022.2.4,Win32,60.08893162,55e356dac70c7a00052a57ec,64d2fd46c836a06233681665,64dc7ba29f657209751f2160,,,,,,,sngl,resources/Empty.png,resources/DP.BMP,Door4,0.210775643,-0.019242173,1,0,0,0.6757,optionRight,80,7260,4,4,0,4,0,1,,,,,,,,,,,,,,,,,,,,,,,,,,,,,,,,,,,,,,,
,,,,,,,,2023-08-16_08h33.08.180,HF_wild_card,2022.2.4,Win32,60.08893162,55e356dac70c7a00052a57ec,64d2fd46c836a06233681665,64dc7ba29f657209751f2160,,,,,,,ctch,resources/DBN.BMP,resources/DY.BMP,Door3,0.176435833,-0.012137377,1,0,0,0.7805,optionRight,70,7330,4,5,0,5,0,1,,,,,,,,,,,,,,,,,,,,,,,,,,,,,,,,,,,,,,,
,,,,,,,,2023-08-16_08h33.08.180,HF_wild_card,2022.2.4,Win32,60.08893162,55e356dac70c7a00052a57ec,64d2fd46c836a06233681665,64dc7ba29f657209751f2160,,,,,,,sngl,resources/Empty.png,resources/DBN.BMP,Door2,0.251036188,-0.000296069,1,0,0,0.8798,optionRight,40,7370,4,6,0,6,0,1,,,,,,,,,,,,,,,,,,,,,,,,,,,,,,,,,,,,,,,
,,,,,,,,2023-08-16_08h33.08.180,HF_wild_card,2022.2.4,Win32,60.08893162,55e356dac70c7a00052a57ec,64d2fd46c836a06233681665,64dc7ba29f657209751f2160,,,,,,,decisionTrl,resources/DBN.BMP,resources/DR.BMP,Door2,-0.30076965,-0.018058059,1,0,0,1.779,optionLeft,40,7410,4,7,0,7,0,1,,,,,,,,,,,,,,,,,,,,,,,,,,,,,,,,,,,,,,,
,,,,,,,,2023-08-16_08h33.08.180,HF_wild_card,2022.2.4,Win32,60.08893162,55e356dac70c7a00052a57ec,64d2fd46c836a06233681665,64dc7ba29f657209751f2160,,,,,,,ctch,resources/DP.BMP,resources/DG.BMP,Door4,-0.309058615,-0.020426288,1,0,0,1.029,optionLeft,60,7470,4,8,0,8,0,1,,,,,,,,,,,,,,,,,,,,,,,,,,,,,,,,,,,,,,,
,,,,,,,,2023-08-16_08h33.08.180,HF_wild_card,2022.2.4,Win32,60.08893162,55e356dac70c7a00052a57ec,64d2fd46c836a06233681665,64dc7ba29f657209751f2160,,,,,,,ctch,resources/DY.BMP,resources/DBN.BMP,Door3,-0.293664854,-0.013321492,1,0,0,0.712,optionLeft,70,7540,4,9,0,9,0,1,,,,,,,,,,,,,,,,,,,,,,,,,,,,,,,,,,,,,,,
,,,,,,,,2023-08-16_08h33.08.180,HF_wild_card,2022.2.4,Win32,60.08893162,55e356dac70c7a00052a57ec,64d2fd46c836a06233681665,64dc7ba29f657209751f2160,,,,,,,decisionTrl,resources/DBN.BMP,resources/DG.BMP,Door1,0.243931393,0.025754885,1,0,0,1.1296,optionRight,30,7570,4,10,0,10,0,1,,,,,,,,,,,,,,,,,,,,,,,,,,,,,,,,,,,,,,,
,,,,,,,,2023-08-16_08h33.08.180,HF_wild_card,2022.2.4,Win32,60.08893162,55e356dac70c7a00052a57ec,64d2fd46c836a06233681665,64dc7ba29f657209751f2160,,,,,,,ctch,resources/DY.BMP,resources/DBN.BMP,Door3,-0.369449378,0.006808726,1,0,0,0.9966,optionLeft,70,7640,4,11,0,11,0,1,,,,,,,,,,,,,,,,,,,,,,,,,,,,,,,,,,,,,,,
,,,,,,,,2023-08-16_08h33.08.180,HF_wild_card,2022.2.4,Win32,60.08893162,55e356dac70c7a00052a57ec,64d2fd46c836a06233681665,64dc7ba29f657209751f2160,,,,,,,sngl,resources/DY.BMP,resources/Empty.png,Door3,-0.239194772,-0.01687389,1,0,0,0.7467,optionLeft,70,7710,4,12,0,12,0,1,,,,,,,,,,,,,,,,,,,,,,,,,,,,,,,,,,,,,,,
,,,,,,,,2023-08-16_08h33.08.180,HF_wild_card,2022.2.4,Win32,60.08893162,55e356dac70c7a00052a57ec,64d2fd46c836a06233681665,64dc7ba29f657209751f2160,,,,,,,decisionTrl,resources/DBN.BMP,resources/DG.BMP,Door1,0.256956815,-0.010953263,1,0,0,0.7607,optionRight,30,7740,4,13,0,13,0,1,,,,,,,,,,,,,,,,,,,,,,,,,,,,,,,,,,,,,,,
,,,,,,,,2023-08-16_08h33.08.180,HF_wild_card,2022.2.4,Win32,60.08893162,55e356dac70c7a00052a57ec,64d2fd46c836a06233681665,64dc7ba29f657209751f2160,,,,,,,decisionTrl,resources/DY.BMP,resources/DP.BMP,Door4,0.214328041,-0.021610457,1,0,0,1.7112,optionRight,60,7800,4,14,0,14,0,1,,,,,,,,,,,,,,,,,,,,,,,,,,,,,,,,,,,,,,,
,,,,,,,,2023-08-16_08h33.08.180,HF_wild_card,2022.2.4,Win32,60.08893162,55e356dac70c7a00052a57ec,64d2fd46c836a06233681665,64dc7ba29f657209751f2160,,,,,,,sngl,resources/DP.BMP,resources/Empty.png,Door4,-0.285375944,-0.021610457,1,0,0,0.6133,optionLeft,60,7860,4,15,0,15,0,1,,,,,,,,,,,,,,,,,,,,,,,,,,,,,,,,,,,,,,,
,,,,,,,,2023-08-16_08h33.08.180,HF_wild_card,2022.2.4,Win32,60.08893162,55e356dac70c7a00052a57ec,64d2fd46c836a06233681665,64dc7ba29f657209751f2160,,,,,,,decisionTrl,resources/DP.BMP,resources/DY.BMP,Door3,0.214328041,-0.033451765,1,0,0,0.6791,optionRight,70,7930,4,16,0,16,0,1,,,,,,,,,,,,,,,,,,,,,,,,,,,,,,,,,,,,,,,
,,,,,,,,2023-08-16_08h33.08.180,HF_wild_card,2022.2.4,Win32,60.08893162,55e356dac70c7a00052a57ec,64d2fd46c836a06233681665,64dc7ba29f657209751f2160,,,,,,,decisionTrl,resources/DR.BMP,resources/DP.BMP,Door4,0.176435833,-0.018058059,1,0,0,0.6965,optionRight,60,7990,4,17,0,17,0,1,,,,,,,,,,,,,,,,,,,,,,,,,,,,,,,,,,,,,,,
,,,,,,,,2023-08-16_08h33.08.180,HF_wild_card,2022.2.4,Win32,60.08893162,55e356dac70c7a00052a57ec,64d2fd46c836a06233681665,64dc7ba29f657209751f2160,,,,,,,ctch,resources/DP.BMP,resources/DG.BMP,Door4,-0.332741231,-0.010953263,1,0,0,0.9462,optionLeft,60,8050,4,18,0,18,0,1,,,,,,,,,,,,,,,,,,,,,,,,,,,,,,,,,,,,,,,
,,,,,,,,2023-08-16_08h33.08.180,HF_wild_card,2022.2.4,Win32,60.08893162,55e356dac70c7a00052a57ec,64d2fd46c836a06233681665,64dc7ba29f657209751f2160,,,,,,,decisionTrl,resources/DY.BMP,resources/DR.BMP,Door3,-0.200118341,0.007992895,1,0,0,1.2458,optionLeft,70,8120,4,19,0,19,0,1,,,,,,,,,,,,,,,,,,,,,,,,,,,,,,,,,,,,,,,
,,,,,,,,2023-08-16_08h33.08.180,HF_wild_card,2022.2.4,Win32,60.08893162,55e356dac70c7a00052a57ec,64d2fd46c836a06233681665,64dc7ba29f657209751f2160,,,,,,,sngl,resources/DR.BMP,resources/Empty.png,WildCard_Ex,-0.21669627,-0.010953263,1,0,0,1.2295,optionLeft,5,8125,4,20,0,20,0,1,,,,,,,,,,,,,,,,,,,,,,,,,,,,,,,,,,,,,,,
,,,,,,,,2023-08-16_08h33.08.180,HF_wild_card,2022.2.4,Win32,60.08893162,55e356dac70c7a00052a57ec,64d2fd46c836a06233681665,64dc7ba29f657209751f2160,,,,,,,sngl,resources/DG.BMP,resources/Empty.png,Door1,-0.236826488,-0.00858498,1,0,0,0.6289,optionLeft,30,8155,4,21,0,21,0,1,,,,,,,,,,,,,,,,,,,,,,,,,,,,,,,,,,,,,,,
,,,,,,,,2023-08-16_08h33.08.180,HF_wild_card,2022.2.4,Win32,60.08893162,55e356dac70c7a00052a57ec,64d2fd46c836a06233681665,64dc7ba29f657209751f2160,,,,,,,decisionTrl,resources/DR.BMP,resources/DBN.BMP,WildCard_Ex,-0.203670739,-0.010953263,1,0,0,0.9626,optionLeft,95,8250,4,22,0,22,0,1,,,,,,,,,,,,,,,,,,,,,,,,,,,,,,,,,,,,,,,
,,,,,,,,2023-08-16_08h33.08.180,HF_wild_card,2022.2.4,Win32,60.08893162,55e356dac70c7a00052a57ec,64d2fd46c836a06233681665,64dc7ba29f657209751f2160,,,,,,,decisionTrl,resources/DG.BMP,resources/DBN.BMP,Door1,-0.262877442,-0.037004163,1,0,0,1.2787,optionLeft,30,8280,4,23,0,23,0,1,,,,,,,,,,,,,,,,,,,,,,,,,,,,,,,,,,,,,,,
,,,,,,,,2023-08-16_08h33.08.180,HF_wild_card,2022.2.4,Win32,60.08893162,55e356dac70c7a00052a57ec,64d2fd46c836a06233681665,64dc7ba29f657209751f2160,,,,,,,sngl,resources/DR.BMP,resources/Empty.png,WildCard_Ex,-0.233274091,-0.027531083,1,0,0,0.6627,optionLeft,95,8375,4,24,0,24,0,1,,,,,,,,,,,,,,,,,,,,,,,,,,,,,,,,,,,,,,,
,,,,,,,,2023-08-16_08h33.08.180,HF_wild_card,2022.2.4,Win32,60.08893162,55e356dac70c7a00052a57ec,64d2fd46c836a06233681665,64dc7ba29f657209751f2160,,,,,,,sngl,resources/DBN.BMP,resources/Empty.png,Door2,-0.271166353,-0.015689775,1,0,0,0.9299,optionLeft,20,8395,4,25,0,25,0,1,,,,,,,,,,,,,,,,,,,,,,,,,,,,,,,,,,,,,,,
,,,,,,,,2023-08-16_08h33.08.180,HF_wild_card,2022.2.4,Win32,60.08893162,55e356dac70c7a00052a57ec,64d2fd46c836a06233681665,64dc7ba29f657209751f2160,,,,,,,decisionTrl,resources/DP.BMP,resources/DY.BMP,Door4,-0.229721693,-0.033451765,1,0,0,1.6955,optionLeft,60,8455,4,26,0,26,0,1,,,,,,,,,,,,,,,,,,,,,,,,,,,,,,,,,,,,,,,
,,,,,,,,2023-08-16_08h33.08.180,HF_wild_card,2022.2.4,Win32,60.08893162,55e356dac70c7a00052a57ec,64d2fd46c836a06233681665,64dc7ba29f657209751f2160,,,,,,,decisionTrl,resources/DY.BMP,resources/DP.BMP,Door4,0.287744227,0.006808726,1,0,0,1.0295,optionRight,60,8515,4,27,0,27,0,1,,,,,,,,,,,,,,,,,,,,,,,,,,,,,,,,,,,,,,,
,,,,,,,,2023-08-16_08h33.08.180,HF_wild_card,2022.2.4,Win32,60.08893162,55e356dac70c7a00052a57ec,64d2fd46c836a06233681665,64dc7ba29f657209751f2160,,,,,,,decisionTrl,resources/DBN.BMP,resources/DG.BMP,Door1,0.234458259,-0.026346969,1,0,0,0.8461,optionRight,30,8545,4,28,0,28,0,1,,,,,,,,,,,,,,,,,,,,,,,,,,,,,,,,,,,,,,,
,,,,,,,,2023-08-16_08h33.08.180,HF_wild_card,2022.2.4,Win32,60.08893162,55e356dac70c7a00052a57ec,64d2fd46c836a06233681665,64dc7ba29f657209751f2160,,,,,,,decisionTrl,resources/DG.BMP,resources/DBN.BMP,Door2,0.129070492,-0.007400865,1,0,0,1.9283,optionRight,40,8585,4,29,0,29,0,1,,,,,,,,,,,,,,,,,,,,,,,,,,,,,,,,,,,,,,,
,,,,,,,,2023-08-16_08h33.08.180,HF_wild_card,2022.2.4,Win32,60.08893162,55e356dac70c7a00052a57ec,64d2fd46c836a06233681665,64dc7ba29f657209751f2160,,,,,,,sngl,resources/Empty.png,resources/DY.BMP,Door3,0.188277087,-0.006216696,1,0,0,0.5952,optionRight,70,8655,4,30,0,30,0,1,,,,,,,,,,,,,,,,,,,,,,,,,,,,,,,,,,,,,,,
,,,,,,,,2023-08-16_08h33.08.180,HF_wild_card,2022.2.4,Win32,60.08893162,55e356dac70c7a00052a57ec,64d2fd46c836a06233681665,64dc7ba29f657209751f2160,,,,,,,decisionTrl,resources/DR.BMP,resources/DY.BMP,Door3,0.204855016,0.004440497,1,0,0,0.6947,optionRight,70,8725,4,31,0,31,0,1,,,,,,,,,,,,,,,,,,,,,,,,,,,,,,,,,,,,,,,
,,,,,,,,2023-08-16_08h33.08.180,HF_wild_card,2022.2.4,Win32,60.08893162,55e356dac70c7a00052a57ec,64d2fd46c836a06233681665,64dc7ba29f657209751f2160,,,,,,,ctch,resources/DBN.BMP,resources/DY.BMP,Door3,0.271166407,-0.014505661,1,0,0,0.7632,optionRight,70,8795,4,32,0,32,0,1,,,,,,,,,,,,,,,,,,,,,,,,,,,,,,,,,,,,,,,
,,,,,,,,2023-08-16_08h33.08.180,HF_wild_card,2022.2.4,Win32,60.08893162,55e356dac70c7a00052a57ec,64d2fd46c836a06233681665,64dc7ba29f657209751f2160,,,,,,,decisionTrl,resources/DG.BMP,resources/DR.BMP,WildCard_Ex,0.176435833,-0.033451765,1,0,0,0.8112,optionRight,95,8890,4,33,0,33,0,1,,,,,,,,,,,,,,,,,,,,,,,,,,,,,,,,,,,,,,,
,,,,,,,,2023-08-16_08h33.08.180,HF_wild_card,2022.2.4,Win32,60.08893162,55e356dac70c7a00052a57ec,64d2fd46c836a06233681665,64dc7ba29f657209751f2160,,,,,,,sngl,resources/Empty.png,resources/DG.BMP,Door1,0.174067496,-0.006216696,1,0,0,0.6963,optionRight,30,8920,4,34,0,34,0,1,,,,,,,,,,,,,,,,,,,,,,,,,,,,,,,,,,,,,,,
,,,,,,,,2023-08-16_08h33.08.180,HF_wild_card,2022.2.4,Win32,60.08893162,55e356dac70c7a00052a57ec,64d2fd46c836a06233681665,64dc7ba29f657209751f2160,,,,,,,ctch,resources/DG.BMP,resources/DP.BMP,Door4,0.151569048,-0.021610457,1,0,0,0.8956,optionRight,60,8980,4,35,0,35,0,1,,,,,,,,,,,,,,,,,,,,,,,,,,,,,,,,,,,,,,,
,,,,,,,,2023-08-16_08h33.08.180,HF_wild_card,2022.2.4,Win32,60.08893162,55e356dac70c7a00052a57ec,64d2fd46c836a06233681665,64dc7ba29f657209751f2160,,,,,,,sngl,resources/Empty.png,resources/DR.BMP,WildCard_Ex,0.187093027,-0.022794571,1,0,0,0.5785,optionRight,95,9075,4,36,0,36,0,1,,,,,,,,,,,,,,,,,,,,,,,,,,,,,,,,,,,,,,,
,,,,,,,,2023-08-16_08h33.08.180,HF_wild_card,2022.2.4,Win32,60.08893162,55e356dac70c7a00052a57ec,64d2fd46c836a06233681665,64dc7ba29f657209751f2160,,,,,,,decisionTrl,resources/DR.BMP,resources/DG.BMP,WildCard_Ex,-0.311426844,-0.031083481,1,0,0,0.6643,optionLeft,5,9080,4,37,0,37,0,1,,,,,,,,,,,,,,,,,,,,,,,,,,,,,,,,,,,,,,,
,,,,,,,,2023-08-16_08h33.08.180,HF_wild_card,2022.2.4,Win32,60.08893162,55e356dac70c7a00052a57ec,64d2fd46c836a06233681665,64dc7ba29f657209751f2160,,,,,,,decisionTrl,resources/DP.BMP,resources/DY.BMP,Door3,0.150384879,-0.027531083,1,0,0,1.0951,optionRight,70,9150,4,38,0,38,0,1,,,,,,,,,,,,,,,,,,,,,,,,,,,,,,,,,,,,,,,
,,,,,,,,2023-08-16_08h33.08.180,HF_wild_card,2022.2.4,Win32,60.08893162,55e356dac70c7a00052a57ec,64d2fd46c836a06233681665,64dc7ba29f657209751f2160,,,,,,,decisionTrl,resources/DP.BMP,resources/DR.BMP,WildCard_Ex,0.183540629,0.016281805,1,0,0,1.1954,optionRight,5,9155,4,39,0,39,0,1,,,,,,,,,,,,,,,,,,,,,,,,,,,,,,,,,,,,,,,
,,,,,,,,2023-08-16_08h33.08.180,HF_wild_card,2022.2.4,Win32,60.08893162,55e356dac70c7a00052a57ec,64d2fd46c836a06233681665,64dc7ba29f657209751f2160,,,,,,,decisionTrl,resources/DG.BMP,resources/DBN.BMP,Door1,-0.241563055,-0.025162854,1,0,0,1.1296,optionLeft,30,9185,4,40,0,40,0,1,,,,,,,,,,,,,,,,,,,,,,,,,,,,,,,,,,,,,,,
,,,,,,,,2023-08-16_08h33.08.180,HF_wild_card,2022.2.4,Win32,60.08893162,55e356dac70c7a00052a57ec,64d2fd46c836a06233681665,64dc7ba29f657209751f2160,,,,,,,decisionTrl,resources/DBN.BMP,resources/DG.BMP,Door1,0.14920071,-0.010953263,1,0,0,1.3459,optionRight,30,9215,4,41,0,41,0,1,,,,,,,,,,,,,,,,,,,,,,,,,,,,,,,,,,,,,,,
,,,,,,,,2023-08-16_08h33.08.180,HF_wild_card,2022.2.4,Win32,60.08893162,55e356dac70c7a00052a57ec,64d2fd46c836a06233681665,64dc7ba29f657209751f2160,,,,,,,decisionTrl,resources/DP.BMP,resources/DY.BMP,Door4,-0.232089976,-0.039372446,1,0,0,1.4796,optionLeft,80,9295,4,42,0,42,0,1,,,,,,,,,,,,,,,,,,,,,,,,,,,,,,,,,,,,,,,
,,,,,,,,2023-08-16_08h33.08.180,HF_wild_card,2022.2.4,Win32,60.08893162,55e356dac70c7a00052a57ec,64d2fd46c836a06233681665,64dc7ba29f657209751f2160,,,,,,,decisionTrl,resources/DY.BMP,resources/DP.BMP,Door4,0.178804062,-0.023978686,1,0,0,1.5798,optionRight,80,9375,4,43,0,43,0,1,,,,,,,,,,,,,,,,,,,,,,,,,,,,,,,,,,,,,,,
,,,,,,,,2023-08-16_08h33.08.180,HF_wild_card,2022.2.4,Win32,60.08893162,55e356dac70c7a00052a57ec,64d2fd46c836a06233681665,64dc7ba29f657209751f2160,,,,,,,,,,,,,,,,,,,,,,,,,,3,0,3,0,1,,,,,,,,,,,,,,,,,,,,,,,,,,,,,,,,,,
,,,,,,,,2023-08-16_08h33.08.180,HF_wild_card,2022.2.4,Win32,60.08893162,55e356dac70c7a00052a57ec,64d2fd46c836a06233681665,64dc7ba29f657209751f2160,,,,,,,ctch,resources/DY.BMP,resources/DBN.BMP,Door3,-0.416814665,0.031675512,1,0,0,1.3259,optionLeft,70,9445,5,0,0,0,0,1,,,,,,,,,,,,,,,,,,,,,,,,,,,,,,,,,,,,,,,
,,,,,,,,2023-08-16_08h33.08.180,HF_wild_card,2022.2.4,Win32,60.08893162,55e356dac70c7a00052a57ec,64d2fd46c836a06233681665,64dc7ba29f657209751f2160,,,,,,,decisionTrl,resources/DP.BMP,resources/DY.BMP,Door4,-0.253404363,-0.037004163,1,0,0,1.4805,optionLeft,80,9525,5,1,0,1,0,1,,,,,,,,,,,,,,,,,,,,,,,,,,,,,,,,,,,,,,,
,,,,,,,,2023-08-16_08h33.08.180,HF_wild_card,2022.2.4,Win32,60.08893162,55e356dac70c7a00052a57ec,64d2fd46c836a06233681665,64dc7ba29f657209751f2160,,,,,,,decisionTrl,resources/DBN.BMP,resources/DG.BMP,Door2,-0.26642984,0.080224967,1,0,0,2.2283,optionLeft,20,9545,5,2,0,2,0,1,,,,,,,,,,,,,,,,,,,,,,,,,,,,,,,,,,,,,,,
,,,,,,,,2023-08-16_08h33.08.180,HF_wild_card,2022.2.4,Win32,60.08893162,55e356dac70c7a00052a57ec,64d2fd46c836a06233681665,64dc7ba29f657209751f2160,,,,,,,decisionTrl,resources/DY.BMP,resources/DP.BMP,Door4,0.278271203,-0.021610457,1,0,0,1.5793,optionRight,60,9605,5,3,0,3,0,1,,,,,,,,,,,,,,,,,,,,,,,,,,,,,,,,,,,,,,,
,,,,,,,,2023-08-16_08h33.08.180,HF_wild_card,2022.2.4,Win32,60.08893162,55e356dac70c7a00052a57ec,64d2fd46c836a06233681665,64dc7ba29f657209751f2160,,,,,,,ctch,resources/DBN.BMP,resources/DY.BMP,Door3,0.221432837,-0.009769094,1,0,0,0.8615,optionRight,70,9675,5,4,0,4,0,1,,,,,,,,,,,,,,,,,,,,,,,,,,,,,,,,,,,,,,,
,,,,,,,,2023-08-16_08h33.08.180,HF_wild_card,2022.2.4,Win32,60.08893162,55e356dac70c7a00052a57ec,64d2fd46c836a06233681665,64dc7ba29f657209751f2160,,,,,,,ctch,resources/DP.BMP,resources/DG.BMP,Door4,-0.271166353,0.002072214,1,0,0,0.8281,optionLeft,80,9755,5,5,0,5,0,1,,,,,,,,,,,,,,,,,,,,,,,,,,,,,,,,,,,,,,,
,,,,,,,,2023-08-16_08h33.08.180,HF_wild_card,2022.2.4,Win32,60.08893162,55e356dac70c7a00052a57ec,64d2fd46c836a06233681665,64dc7ba29f657209751f2160,,,,,,,decisionTrl,resources/DR.BMP,resources/DY.BMP,WildCard_Ex,-0.288928342,-0.003848467,1,0,0,1.3284,optionLeft,95,9850,5,6,0,6,0,1,,,,,,,,,,,,,,,,,,,,,,,,,,,,,,,,,,,,,,,
,,,,,,,,2023-08-16_08h33.08.180,HF_wild_card,2022.2.4,Win32,60.08893162,55e356dac70c7a00052a57ec,64d2fd46c836a06233681665,64dc7ba29f657209751f2160,,,,,,,ctch,resources/DP.BMP,resources/DG.BMP,Door4,-0.322084037,-0.006216696,1,0,0,1.2451,optionLeft,80,9930,5,7,0,7,0,1,,,,,,,,,,,,,,,,,,,,,,,,,,,,,,,,,,,,,,,
,,,,,,,,2023-08-16_08h33.08.180,HF_wild_card,2022.2.4,Win32,60.08893162,55e356dac70c7a00052a57ec,64d2fd46c836a06233681665,64dc7ba29f657209751f2160,,,,,,,ctch,resources/DY.BMP,resources/DBN.BMP,Door3,-0.301953819,-0.01687389,1,0,0,1.0453,optionLeft,70,10000,5,8,0,8,0,1,,,,,,,,,,,,,,,,,,,,,,,,,,,,,,,,,,,,,,,
,,,,,,,,2023-08-16_08h33.08.180,HF_wild_card,2022.2.4,Win32,60.08893162,55e356dac70c7a00052a57ec,64d2fd46c836a06233681665,64dc7ba29f657209751f2160,,,,,,,decisionTrl,resources/DR.BMP,resources/DG.BMP,WildCard_Ex,-0.27471875,-0.006216696,1,0,0,1.2124,optionLeft,5,10005,5,9,0,9,0,1,,,,,,,,,,,,,,,,,,,,,,,,,,,,,,,,,,,,,,,
,,,,,,,,2023-08-16_08h33.08.180,HF_wild_card,2022.2.4,Win32,60.08893162,55e356dac70c7a00052a57ec,64d2fd46c836a06233681665,64dc7ba29f657209751f2160,,,,,,,decisionTrl,resources/DG.BMP,resources/DBN.BMP,Door1,-0.221432728,0.015097691,1,0,0,1.5789,optionLeft,30,10035,5,10,0,10,0,1,,,,,,,,,,,,,,,,,,,,,,,,,,,,,,,,,,,,,,,
,,,,,,,,2023-08-16_08h33.08.180,HF_wild_card,2022.2.4,Win32,60.08893162,55e356dac70c7a00052a57ec,64d2fd46c836a06233681665,64dc7ba29f657209751f2160,,,,,,,sngl,resources/Empty.png,resources/DBN.BMP,Door2,0.245115453,-0.029899367,1,0,0,0.7454,optionRight,20,10055,5,11,0,11,0,1,,,,,,,,,,,,,,,,,,,,,,,,,,,,,,,,,,,,,,,
,,,,,,,,2023-08-16_08h33.08.180,HF_wild_card,2022.2.4,Win32,60.08893162,55e356dac70c7a00052a57ec,64d2fd46c836a06233681665,64dc7ba29f657209751f2160,,,,,,,decisionTrl,resources/DG.BMP,resources/DBN.BMP,Door1,-0.258140876,-0.009769094,1,0,0,1.0957,optionLeft,30,10085,5,12,0,12,0,1,,,,,,,,,,,,,,,,,,,,,,,,,,,,,,,,,,,,,,,
,,,,,,,,2023-08-16_08h33.08.180,HF_wild_card,2022.2.4,Win32,60.08893162,55e356dac70c7a00052a57ec,64d2fd46c836a06233681665,64dc7ba29f657209751f2160,,,,,,,sngl,resources/DR.BMP,resources/Empty.png,WildCard_Ex,-0.227353464,-0.012137377,1,0,0,0.646,optionLeft,5,10090,5,13,0,13,0,1,,,,,,,,,,,,,,,,,,,,,,,,,,,,,,,,,,,,,,,
,,,,,,,,2023-08-16_08h33.08.180,HF_wild_card,2022.2.4,Win32,60.08893162,55e356dac70c7a00052a57ec,64d2fd46c836a06233681665,64dc7ba29f657209751f2160,,,,,,,sngl,resources/Empty.png,resources/DR.BMP,WildCard_Ex,0.217880439,-0.00858498,1,0,0,0.5781,optionRight,5,10095,5,14,0,14,0,1,,,,,,,,,,,,,,,,,,,,,,,,,,,,,,,,,,,,,,,
,,,,,,,,2023-08-16_08h33.08.180,HF_wild_card,2022.2.4,Win32,60.08893162,55e356dac70c7a00052a57ec,64d2fd46c836a06233681665,64dc7ba29f657209751f2160,,,,,,,sngl,resources/Empty.png,resources/DR.BMP,WildCard_Ex,0.207223245,-0.01687389,1,0,0,0.6805,optionRight,95,10190,5,15,0,15,0,1,,,,,,,,,,,,,,,,,,,,,,,,,,,,,,,,,,,,,,,
,,,,,,,,2023-08-16_08h33.08.180,HF_wild_card,2022.2.4,Win32,60.08893162,55e356dac70c7a00052a57ec,64d2fd46c836a06233681665,64dc7ba29f657209751f2160,,,,,,,decisionTrl,resources/DP.BMP,resources/DR.BMP,WildCard_Ex,0.207223245,-0.020426288,1,0,0,1.2794,optionRight,5,10195,5,16,0,16,0,1,,,,,,,,,,,,,,,,,,,,,,,,,,,,,,,,,,,,,,,
,,,,,,,,2023-08-16_08h33.08.180,HF_wild_card,2022.2.4,Win32,60.08893162,55e356dac70c7a00052a57ec,64d2fd46c836a06233681665,64dc7ba29f657209751f2160,,,,,,,decisionTrl,resources/DG.BMP,resources/DR.BMP,WildCard_Ex,0.143280084,-0.034635879,1,0,0,0.9625,optionRight,95,10290,5,17,0,17,0,1,,,,,,,,,,,,,,,,,,,,,,,,,,,,,,,,,,,,,,,
,,,,,,,,2023-08-16_08h33.08.180,HF_wild_card,2022.2.4,Win32,60.08893162,55e356dac70c7a00052a57ec,64d2fd46c836a06233681665,64dc7ba29f657209751f2160,,,,,,,sngl,resources/DY.BMP,resources/Empty.png,Door3,-0.271166353,-0.013321492,1,0,0,0.6459,optionLeft,70,10360,5,18,0,18,0,1,,,,,,,,,,,,,,,,,,,,,,,,,,,,,,,,,,,,,,,
,,,,,,,,2023-08-16_08h33.08.180,HF_wild_card,2022.2.4,Win32,60.08893162,55e356dac70c7a00052a57ec,64d2fd46c836a06233681665,64dc7ba29f657209751f2160,,,,,,,decisionTrl,resources/DBN.BMP,resources/DG.BMP,Door2,-0.303137933,0.021018318,1,0,0,1.2103,optionLeft,40,10400,5,19,0,19,0,1,,,,,,,,,,,,,,,,,,,,,,,,,,,,,,,,,,,,,,,
,,,,,,,,2023-08-16_08h33.08.180,HF_wild_card,2022.2.4,Win32,60.08893162,55e356dac70c7a00052a57ec,64d2fd46c836a06233681665,64dc7ba29f657209751f2160,,,,,,,sngl,resources/DG.BMP,resources/Empty.png,Door1,-0.223801066,0.00917701,1,0,0,0.6793,optionLeft,30,10430,5,20,0,20,0,1,,,,,,,,,,,,,,,,,,,,,,,,,,,,,,,,,,,,,,,
,,,,,,,,2023-08-16_08h33.08.180,HF_wild_card,2022.2.4,Win32,60.08893162,55e356dac70c7a00052a57ec,64d2fd46c836a06233681665,64dc7ba29f657209751f2160,,,,,,,decisionTrl,resources/DY.BMP,resources/DP.BMP,Door4,0.181172291,-0.031083481,1,0,0,1.2787,optionRight,60,10490,5,21,0,21,0,1,,,,,,,,,,,,,,,,,,,,,,,,,,,,,,,,,,,,,,,
,,,,,,,,2023-08-16_08h33.08.180,HF_wild_card,2022.2.4,Win32,60.08893162,55e356dac70c7a00052a57ec,64d2fd46c836a06233681665,64dc7ba29f657209751f2160,,,,,,,decisionTrl,resources/DY.BMP,resources/DP.BMP,Door3,-0.248667851,-0.015689775,1,0,0,1.0123,optionLeft,70,10560,5,22,0,22,0,1,,,,,,,,,,,,,,,,,,,,,,,,,,,,,,,,,,,,,,,
,,,,,,,,2023-08-16_08h33.08.180,HF_wild_card,2022.2.4,Win32,60.08893162,55e356dac70c7a00052a57ec,64d2fd46c836a06233681665,64dc7ba29f657209751f2160,,,,,,,sngl,resources/Empty.png,resources/DP.BMP,Door4,0.235642428,-0.044108958,1,0,0,0.729,optionRight,60,10620,5,23,0,23,0,1,,,,,,,,,,,,,,,,,,,,,,,,,,,,,,,,,,,,,,,
,,,,,,,,2023-08-16_08h33.08.180,HF_wild_card,2022.2.4,Win32,60.08893162,55e356dac70c7a00052a57ec,64d2fd46c836a06233681665,64dc7ba29f657209751f2160,,,,,,,decisionTrl,resources/DP.BMP,resources/DY.BMP,Door4,-0.260509159,0.002072214,1,0,0,2.8955,optionLeft,60,10680,5,24,0,24,0,1,,,,,,,,,,,,,,,,,,,,,,,,,,,,,,,,,,,,,,,
,,,,,,,,2023-08-16_08h33.08.180,HF_wild_card,2022.2.4,Win32,60.08893162,55e356dac70c7a00052a57ec,64d2fd46c836a06233681665,64dc7ba29f657209751f2160,,,,,,,sngl,resources/DBN.BMP,resources/Empty.png,Door2,-0.15156894,0.024570716,1,0,0,0.7635,optionLeft,40,10720,5,25,0,25,0,1,,,,,,,,,,,,,,,,,,,,,,,,,,,,,,,,,,,,,,,
,,,,,,,,2023-08-16_08h33.08.180,HF_wild_card,2022.2.4,Win32,60.08893162,55e356dac70c7a00052a57ec,64d2fd46c836a06233681665,64dc7ba29f657209751f2160,,,,,,,decisionTrl,resources/DBN.BMP,resources/DG.BMP,Door1,0.156305506,0.000888099,1,0,0,1.0304,optionRight,30,10750,5,26,0,26,0,1,,,,,,,,,,,,,,,,,,,,,,,,,,,,,,,,,,,,,,,
,,,,,,,,2023-08-16_08h33.08.180,HF_wild_card,2022.2.4,Win32,60.08893162,55e356dac70c7a00052a57ec,64d2fd46c836a06233681665,64dc7ba29f657209751f2160,,,,,,,decisionTrl,resources/DBN.BMP,resources/DR.BMP,WildCard_Ex,0.19775022,-0.025162854,1,0,0,0.8638,optionRight,5,10755,5,27,0,27,0,1,,,,,,,,,,,,,,,,,,,,,,,,,,,,,,,,,,,,,,,
,,,,,,,,2023-08-16_08h33.08.180,HF_wild_card,2022.2.4,Win32,60.08893162,55e356dac70c7a00052a57ec,64d2fd46c836a06233681665,64dc7ba29f657209751f2160,,,,,,,decisionTrl,resources/DY.BMP,resources/DP.BMP,Door3,-0.253404363,-0.012137377,1,0,0,0.8466,optionLeft,70,10825,5,28,0,28,0,1,,,,,,,,,,,,,,,,,,,,,,,,,,,,,,,,,,,,,,,
,,,,,,,,2023-08-16_08h33.08.180,HF_wild_card,2022.2.4,Win32,60.08893162,55e356dac70c7a00052a57ec,64d2fd46c836a06233681665,64dc7ba29f657209751f2160,,,,,,,decisionTrl,resources/DR.BMP,resources/DP.BMP,WildCard_Ex,-0.156305506,-0.006216696,1,0,0,0.9113,optionLeft,5,10830,5,29,0,29,0,1,,,,,,,,,,,,,,,,,,,,,,,,,,,,,,,,,,,,,,,
,,,,,,,,2023-08-16_08h33.08.180,HF_wild_card,2022.2.4,Win32,60.08893162,55e356dac70c7a00052a57ec,64d2fd46c836a06233681665,64dc7ba29f657209751f2160,,,,,,,sngl,resources/Empty.png,resources/DY.BMP,Door3,0.255772647,0.002072214,1,0,0,0.6137,optionRight,70,10900,5,30,0,30,0,1,,,,,,,,,,,,,,,,,,,,,,,,,,,,,,,,,,,,,,,
,,,,,,,,2023-08-16_08h33.08.180,HF_wild_card,2022.2.4,Win32,60.08893162,55e356dac70c7a00052a57ec,64d2fd46c836a06233681665,64dc7ba29f657209751f2160,,,,,,,ctch,resources/DG.BMP,resources/DP.BMP,Door4,0.126702263,-0.022794571,1,0,0,0.7977,optionRight,80,10980,5,31,0,31,0,1,,,,,,,,,,,,,,,,,,,,,,,,,,,,,,,,,,,,,,,
,,,,,,,,2023-08-16_08h33.08.180,HF_wild_card,2022.2.4,Win32,60.08893162,55e356dac70c7a00052a57ec,64d2fd46c836a06233681665,64dc7ba29f657209751f2160,,,,,,,ctch,resources/DBN.BMP,resources/DY.BMP,Door3,0.156305506,-0.005032582,1,0,0,0.8627,optionRight,70,11050,5,32,0,32,0,1,,,,,,,,,,,,,,,,,,,,,,,,,,,,,,,,,,,,,,,
,,,,,,,,2023-08-16_08h33.08.180,HF_wild_card,2022.2.4,Win32,60.08893162,55e356dac70c7a00052a57ec,64d2fd46c836a06233681665,64dc7ba29f657209751f2160,,,,,,,decisionTrl,resources/DR.BMP,resources/DBN.BMP,WildCard_Ex,-0.307874446,-0.00858498,1,0,0,1.01,optionLeft,5,11055,5,33,0,33,0,1,,,,,,,,,,,,,,,,,,,,,,,,,,,,,,,,,,,,,,,
,,,,,,,,2023-08-16_08h33.08.180,HF_wild_card,2022.2.4,Win32,60.08893162,55e356dac70c7a00052a57ec,64d2fd46c836a06233681665,64dc7ba29f657209751f2160,,,,,,,sngl,resources/DP.BMP,resources/Empty.png,Door4,-0.175251556,-0.015689775,1,0,0,0.7162,optionLeft,80,11135,5,34,0,34,0,1,,,,,,,,,,,,,,,,,,,,,,,,,,,,,,,,,,,,,,,
,,,,,,,,2023-08-16_08h33.08.180,HF_wild_card,2022.2.4,Win32,60.08893162,55e356dac70c7a00052a57ec,64d2fd46c836a06233681665,64dc7ba29f657209751f2160,,,,,,,decisionTrl,resources/DG.BMP,resources/DBN.BMP,Door2,0.233274199,0.018650089,1,0,0,0.951,optionRight,20,11155,5,35,0,35,0,1,,,,,,,,,,,,,,,,,,,,,,,,,,,,,,,,,,,,,,,
,,,,,,,,2023-08-16_08h33.08.180,HF_wild_card,2022.2.4,Win32,60.08893162,55e356dac70c7a00052a57ec,64d2fd46c836a06233681665,64dc7ba29f657209751f2160,,,,,,,decisionTrl,resources/DP.BMP,resources/DY.BMP,Door4,-0.234458259,-0.00858498,1,0,0,0.7998,optionLeft,60,11215,5,36,0,36,0,1,,,,,,,,,,,,,,,,,,,,,,,,,,,,,,,,,,,,,,,
,,,,,,,,2023-08-16_08h33.08.180,HF_wild_card,2022.2.4,Win32,60.08893162,55e356dac70c7a00052a57ec,64d2fd46c836a06233681665,64dc7ba29f657209751f2160,,,,,,,decisionTrl,resources/DG.BMP,resources/DBN.BMP,Door1,-0.226169295,-0.018058059,1,0,0,0.8928,optionLeft,30,11245,5,37,0,37,0,1,,,,,,,,,,,,,,,,,,,,,,,,,,,,,,,,,,,,,,,
,,,,,,,,2023-08-16_08h33.08.180,HF_wild_card,2022.2.4,Win32,60.08893162,55e356dac70c7a00052a57ec,64d2fd46c836a06233681665,64dc7ba29f657209751f2160,,,,,,,decisionTrl,resources/DBN.BMP,resources/DG.BMP,Door1,0.201302618,0.003256329,1,0,0,0.9463,optionRight,30,11275,5,38,0,38,0,1,,,,,,,,,,,,,,,,,,,,,,,,,,,,,,,,,,,,,,,
,,,,,,,,2023-08-16_08h33.08.180,HF_wild_card,2022.2.4,Win32,60.08893162,55e356dac70c7a00052a57ec,64d2fd46c836a06233681665,64dc7ba29f657209751f2160,,,,,,,sngl,resources/DR.BMP,resources/Empty.png,WildCard_Ex,-0.246299567,-0.00858498,1,0,0,0.71,optionLeft,95,11370,5,39,0,39,0,1,,,,,,,,,,,,,,,,,,,,,,,,,,,,,,,,,,,,,,,
,,,,,,,,2023-08-16_08h33.08.180,HF_wild_card,2022.2.4,Win32,60.08893162,55e356dac70c7a00052a57ec,64d2fd46c836a06233681665,64dc7ba29f657209751f2160,,,,,,,decisionTrl,resources/DP.BMP,resources/DY.BMP,Door3,0.201302618,0.007992895,1,0,0,0.935,optionRight,70,11440,5,40,0,40,0,1,,,,,,,,,,,,,,,,,,,,,,,,,,,,,,,,,,,,,,,
,,,,,,,,2023-08-16_08h33.08.180,HF_wild_card,2022.2.4,Win32,60.08893162,55e356dac70c7a00052a57ec,64d2fd46c836a06233681665,64dc7ba29f657209751f2160,,,,,,,ctch,resources/DG.BMP,resources/DP.BMP,Door4,0.178804062,0.000888099,1,0,0,0.9137,optionRight,80,11520,5,41,0,41,0,1,,,,,,,,,,,,,,,,,,,,,,,,,,,,,,,,,,,,,,,
,,,,,,,,2023-08-16_08h33.08.180,HF_wild_card,2022.2.4,Win32,60.08893162,55e356dac70c7a00052a57ec,64d2fd46c836a06233681665,64dc7ba29f657209751f2160,,,,,,,sngl,resources/Empty.png,resources/DG.BMP,Door1,0.133807059,-0.00858498,1,0,0,0.7316,optionRight,30,11550,5,42,0,42,0,1,,,,,,,,,,,,,,,,,,,,,,,,,,,,,,,,,,,,,,,
,,,,,,,,2023-08-16_08h33.08.180,HF_wild_card,2022.2.4,Win32,60.08893162,55e356dac70c7a00052a57ec,64d2fd46c836a06233681665,64dc7ba29f657209751f2160,,,,,,,decisionTrl,resources/DY.BMP,resources/DR.BMP,WildCard_Ex,0.1669627,-0.018058059,1,0,0,1.0921,optionRight,95,11645,5,43,0,43,0,1,,,,,,,,,,,,,,,,,,,,,,,,,,,,,,,,,,,,,,,
,,,,,,,,2023-08-16_08h33.08.180,HF_wild_card,2022.2.4,Win32,60.08893162,55e356dac70c7a00052a57ec,64d2fd46c836a06233681665,64dc7ba29f657209751f2160,,,,,,,,,,,,,,,,,,,,,,,,,,4,0,4,0,1,,,,,,,,,,,,,,,,,,,,,,,,,,,,,,,,,,
,,,,,,,,2023-08-16_08h33.08.180,HF_wild_card,2022.2.4,Win32,60.08893162,55e356dac70c7a00052a57ec,64d2fd46c836a06233681665,64dc7ba29f657209751f2160,,,,,,,sngl,resources/DG.BMP,resources/Empty.png,Door1,-0.284191829,-0.126998224,1,0,0,3.7727,optionLeft,30,11675,6,0,0,0,0,1,,,,,,,,,,,,,,,,,,,,,,,,,,,,,,,,,,,,,,,
,,,,,,,,2023-08-16_08h33.08.180,HF_wild_card,2022.2.4,Win32,60.08893162,55e356dac70c7a00052a57ec,64d2fd46c836a06233681665,64dc7ba29f657209751f2160,,,,,,,ctch,resources/DY.BMP,resources/DBN.BMP,Door3,-0.253404363,-0.013321492,1,0,0,0.9809,optionLeft,70,11745,6,1,0,1,0,1,,,,,,,,,,,,,,,,,,,,,,,,,,,,,,,,,,,,,,,
,,,,,,,,2023-08-16_08h33.08.180,HF_wild_card,2022.2.4,Win32,60.08893162,55e356dac70c7a00052a57ec,64d2fd46c836a06233681665,64dc7ba29f657209751f2160,,,,,,,sngl,resources/DR.BMP,resources/Empty.png,WildCard_Ex,-0.255772647,-0.013321492,1,0,0,0.729,optionLeft,5,11750,6,2,0,2,0,1,,,,,,,,,,,,,,,,,,,,,,,,,,,,,,,,,,,,,,,
,,,,,,,,2023-08-16_08h33.08.180,HF_wild_card,2022.2.4,Win32,60.08893162,55e356dac70c7a00052a57ec,64d2fd46c836a06233681665,64dc7ba29f657209751f2160,,,,,,,decisionTrl,resources/DY.BMP,resources/DP.BMP,Door4,0.194197822,0.015097691,1,0,0,1.046,optionRight,80,11830,6,3,0,3,0,1,,,,,,,,,,,,,,,,,,,,,,,,,,,,,,,,,,,,,,,
,,,,,,,,2023-08-16_08h33.08.180,HF_wild_card,2022.2.4,Win32,60.08893162,55e356dac70c7a00052a57ec,64d2fd46c836a06233681665,64dc7ba29f657209751f2160,,,,,,,sngl,resources/DBN.BMP,resources/Empty.png,Door2,-0.178803954,-0.018058059,1,0,0,0.9112,optionLeft,20,11850,6,4,0,4,0,1,,,,,,,,,,,,,,,,,,,,,,,,,,,,,,,,,,,,,,,
,,,,,,,,2023-08-16_08h33.08.180,HF_wild_card,2022.2.4,Win32,60.08893162,55e356dac70c7a00052a57ec,64d2fd46c836a06233681665,64dc7ba29f657209751f2160,,,,,,,decisionTrl,resources/DG.BMP,resources/DBN.BMP,Door1,-0.195381883,-0.051213754,1,0,0,1.1461,optionLeft,30,11880,6,5,0,5,0,1,,,,,,,,,,,,,,,,,,,,,,,,,,,,,,,,,,,,,,,
,,,,,,,,2023-08-16_08h33.08.180,HF_wild_card,2022.2.4,Win32,60.08893162,55e356dac70c7a00052a57ec,64d2fd46c836a06233681665,64dc7ba29f657209751f2160,,,,,,,ctch,resources/DP.BMP,resources/DG.BMP,Door4,-0.254588478,-0.053582037,1,0,0,0.8791,optionLeft,80,11960,6,6,0,6,0,1,,,,,,,,,,,,,,,,,,,,,,,,,,,,,,,,,,,,,,,
,,,,,,,,2023-08-16_08h33.08.180,HF_wild_card,2022.2.4,Win32,60.08893162,55e356dac70c7a00052a57ec,64d2fd46c836a06233681665,64dc7ba29f657209751f2160,,,,,,,ctch,resources/DG.BMP,resources/DP.BMP,Door4,0.2818236,-0.028715252,1,0,0,1.4462,optionRight,80,12040,6,7,0,7,0,1,,,,,,,,,,,,,,,,,,,,,,,,,,,,,,,,,,,,,,,
,,,,,,,,2023-08-16_08h33.08.180,HF_wild_card,2022.2.4,Win32,60.08893162,55e356dac70c7a00052a57ec,64d2fd46c836a06233681665,64dc7ba29f657209751f2160,,,,,,,decisionTrl,resources/DY.BMP,resources/DP.BMP,Door4,0.196566052,-0.067791629,1,0,0,0.9814,optionRight,80,12120,6,8,0,8,0,1,,,,,,,,,,,,,,,,,,,,,,,,,,,,,,,,,,,,,,,
,,,,,,,,2023-08-16_08h33.08.180,HF_wild_card,2022.2.4,Win32,60.08893162,55e356dac70c7a00052a57ec,64d2fd46c836a06233681665,64dc7ba29f657209751f2160,,,,,,,decisionTrl,resources/DBN.BMP,resources/DG.BMP,Door1,0.080521091,0.006808726,1,0,0,0.8288,optionRight,30,12150,6,9,0,9,0,1,,,,,,,,,,,,,,,,,,,,,,,,,,,,,,,,,,,,,,,
,,,,,,,,2023-08-16_08h33.08.180,HF_wild_card,2022.2.4,Win32,60.08893162,55e356dac70c7a00052a57ec,64d2fd46c836a06233681665,64dc7ba29f657209751f2160,,,,,,,ctch,resources/DY.BMP,resources/DBN.BMP,Door3,-0.26642984,-0.014505661,1,0,0,0.6461,optionLeft,70,12220,6,10,0,10,0,1,,,,,,,,,,,,,,,,,,,,,,,,,,,,,,,,,,,,,,,
,,,,,,,,2023-08-16_08h33.08.180,HF_wild_card,2022.2.4,Win32,60.08893162,55e356dac70c7a00052a57ec,64d2fd46c836a06233681665,64dc7ba29f657209751f2160,,,,,,,sngl,resources/Empty.png,resources/DY.BMP,Door3,0.1669627,-0.00858498,1,0,0,0.629,optionRight,70,12290,6,11,0,11,0,1,,,,,,,,,,,,,,,,,,,,,,,,,,,,,,,,,,,,,,,
,,,,,,,,2023-08-16_08h33.08.180,HF_wild_card,2022.2.4,Win32,60.08893162,55e356dac70c7a00052a57ec,64d2fd46c836a06233681665,64dc7ba29f657209751f2160,,,,,,,sngl,resources/Empty.png,resources/DR.BMP,WildCard_Ex,0.176435833,-0.015689775,1,0,0,0.7126,optionRight,95,12385,6,12,0,12,0,1,,,,,,,,,,,,,,,,,,,,,,,,,,,,,,,,,,,,,,,
,,,,,,,,2023-08-16_08h33.08.180,HF_wild_card,2022.2.4,Win32,60.08893162,55e356dac70c7a00052a57ec,64d2fd46c836a06233681665,64dc7ba29f657209751f2160,,,,,,,ctch,resources/DBN.BMP,resources/DY.BMP,Door3,0.136175288,-0.025162854,1,0,0,0.7955,optionRight,70,12455,6,13,0,13,0,1,,,,,,,,,,,,,,,,,,,,,,,,,,,,,,,,,,,,,,,
,,,,,,,,2023-08-16_08h33.08.180,HF_wild_card,2022.2.4,Win32,60.08893162,55e356dac70c7a00052a57ec,64d2fd46c836a06233681665,64dc7ba29f657209751f2160,,,,,,,decisionTrl,resources/DP.BMP,resources/DY.BMP,Door3,0.209591474,-0.026346969,1,0,0,0.6295,optionRight,70,12525,6,14,0,14,0,1,,,,,,,,,,,,,,,,,,,,,,,,,,,,,,,,,,,,,,,
,,,,,,,,2023-08-16_08h33.08.180,HF_wild_card,2022.2.4,Win32,60.08893162,55e356dac70c7a00052a57ec,64d2fd46c836a06233681665,64dc7ba29f657209751f2160,,,,,,,sngl,resources/DP.BMP,resources/Empty.png,Door4,-0.26642984,-0.044108958,1,0,0,0.5632,optionLeft,60,12585,6,15,0,15,0,1,,,,,,,,,,,,,,,,,,,,,,,,,,,,,,,,,,,,,,,
,,,,,,,,2023-08-16_08h33.08.180,HF_wild_card,2022.2.4,Win32,60.08893162,55e356dac70c7a00052a57ec,64d2fd46c836a06233681665,64dc7ba29f657209751f2160,,,,,,,decisionTrl,resources/DBN.BMP,resources/DG.BMP,Door1,0.185908858,-0.006216696,1,0,0,0.6135,optionRight,30,12615,6,16,0,16,0,1,,,,,,,,,,,,,,,,,,,,,,,,,,,,,,,,,,,,,,,
,,,,,,,,2023-08-16_08h33.08.180,HF_wild_card,2022.2.4,Win32,60.08893162,55e356dac70c7a00052a57ec,64d2fd46c836a06233681665,64dc7ba29f657209751f2160,,,,,,,sngl,resources/Empty.png,resources/DR.BMP,WildCard_Ex,0.162226242,-0.013321492,1,0,0,0.7294,optionRight,5,12620,6,17,0,17,0,1,,,,,,,,,,,,,,,,,,,,,,,,,,,,,,,,,,,,,,,
,,,,,,,,2023-08-16_08h33.08.180,HF_wild_card,2022.2.4,Win32,60.08893162,55e356dac70c7a00052a57ec,64d2fd46c836a06233681665,64dc7ba29f657209751f2160,,,,,,,ctch,resources/DBN.BMP,resources/DY.BMP,Door3,0.127886323,-0.00858498,1,0,0,1.1952,optionRight,70,12690,6,18,0,18,0,1,,,,,,,,,,,,,,,,,,,,,,,,,,,,,,,,,,,,,,,
,,,,,,,,2023-08-16_08h33.08.180,HF_wild_card,2022.2.4,Win32,60.08893162,55e356dac70c7a00052a57ec,64d2fd46c836a06233681665,64dc7ba29f657209751f2160,,,,,,,sngl,resources/Empty.png,resources/DP.BMP,Door4,0.158673844,-0.015689775,1,0,0,0.6626,optionRight,80,12770,6,19,0,19,0,1,,,,,,,,,,,,,,,,,,,,,,,,,,,,,,,,,,,,,,,
,,,,,,,,2023-08-16_08h33.08.180,HF_wild_card,2022.2.4,Win32,60.08893162,55e356dac70c7a00052a57ec,64d2fd46c836a06233681665,64dc7ba29f657209751f2160,,,,,,,sngl,resources/Empty.png,resources/DBN.BMP,Door2,0.228537632,-0.018058059,1,0,0,0.7791,optionRight,40,12810,6,20,0,20,0,1,,,,,,,,,,,,,,,,,,,,,,,,,,,,,,,,,,,,,,,
,,,,,,,,2023-08-16_08h33.08.180,HF_wild_card,2022.2.4,Win32,60.08893162,55e356dac70c7a00052a57ec,64d2fd46c836a06233681665,64dc7ba29f657209751f2160,,,,,,,decisionTrl,resources/DG.BMP,resources/DBN.BMP,Door1,-0.277087034,-0.022794571,1,0,0,0.713,optionLeft,30,12840,6,21,0,21,0,1,,,,,,,,,,,,,,,,,,,,,,,,,,,,,,,,,,,,,,,
,,,,,,,,2023-08-16_08h33.08.180,HF_wild_card,2022.2.4,Win32,60.08893162,55e356dac70c7a00052a57ec,64d2fd46c836a06233681665,64dc7ba29f657209751f2160,,,,,,,decisionTrl,resources/DR.BMP,resources/DG.BMP,WildCard_Ex,-0.220248668,-0.045293073,1,0,0,1.046,optionLeft,5,12845,6,22,0,22,0,1,,,,,,,,,,,,,,,,,,,,,,,,,,,,,,,,,,,,,,,
,,,,,,,,2023-08-16_08h33.08.180,HF_wild_card,2022.2.4,Win32,60.08893162,55e356dac70c7a00052a57ec,64d2fd46c836a06233681665,64dc7ba29f657209751f2160,,,,,,,decisionTrl,resources/DP.BMP,resources/DY.BMP,Door3,0.176435833,0.002072214,1,0,0,0.6794,optionRight,70,12915,6,23,0,23,0,1,,,,,,,,,,,,,,,,,,,,,,,,,,,,,,,,,,,,,,,
,,,,,,,,2023-08-16_08h33.08.180,HF_wild_card,2022.2.4,Win32,60.08893162,55e356dac70c7a00052a57ec,64d2fd46c836a06233681665,64dc7ba29f657209751f2160,,,,,,,decisionTrl,resources/DR.BMP,resources/DY.BMP,Door3,0.255772647,-0.012137377,1,0,0,0.6626,optionRight,70,12985,6,24,0,24,0,1,,,,,,,,,,,,,,,,,,,,,,,,,,,,,,,,,,,,,,,
,,,,,,,,2023-08-16_08h33.08.180,HF_wild_card,2022.2.4,Win32,60.08893162,55e356dac70c7a00052a57ec,64d2fd46c836a06233681665,64dc7ba29f657209751f2160,,,,,,,ctch,resources/DG.BMP,resources/DP.BMP,Door1,-0.27471875,-0.023978686,1,0,0,0.8623,optionLeft,30,13015,6,25,0,25,0,1,,,,,,,,,,,,,,,,,,,,,,,,,,,,,,,,,,,,,,,
,,,,,,,,2023-08-16_08h33.08.180,HF_wild_card,2022.2.4,Win32,60.08893162,55e356dac70c7a00052a57ec,64d2fd46c836a06233681665,64dc7ba29f657209751f2160,,,,,,,decisionTrl,resources/DR.BMP,resources/DP.BMP,Door4,0.187093027,-0.022794571,1,0,0,0.5794,optionRight,60,13075,6,26,0,26,0,1,,,,,,,,,,,,,,,,,,,,,,,,,,,,,,,,,,,,,,,
,,,,,,,,2023-08-16_08h33.08.180,HF_wild_card,2022.2.4,Win32,60.08893162,55e356dac70c7a00052a57ec,64d2fd46c836a06233681665,64dc7ba29f657209751f2160,,,,,,,sngl,resources/DY.BMP,resources/Empty.png,Door3,-0.202486679,-0.012137377,1,0,0,0.5955,optionLeft,70,13145,6,27,0,27,0,1,,,,,,,,,,,,,,,,,,,,,,,,,,,,,,,,,,,,,,,
,,,,,,,,2023-08-16_08h33.08.180,HF_wild_card,2022.2.4,Win32,60.08893162,55e356dac70c7a00052a57ec,64d2fd46c836a06233681665,64dc7ba29f657209751f2160,,,,,,,decisionTrl,resources/DG.BMP,resources/DR.BMP,WildCard_Ex,0.188277087,0.005624612,1,0,0,0.6109,optionRight,5,13150,6,28,0,28,0,1,,,,,,,,,,,,,,,,,,,,,,,,,,,,,,,,,,,,,,,
,,,,,,,,2023-08-16_08h33.08.180,HF_wild_card,2022.2.4,Win32,60.08893162,55e356dac70c7a00052a57ec,64d2fd46c836a06233681665,64dc7ba29f657209751f2160,,,,,,,decisionTrl,resources/DP.BMP,resources/DY.BMP,Door3,0.176435833,-0.000296069,1,0,0,0.6291,optionRight,70,13220,6,29,0,29,0,1,,,,,,,,,,,,,,,,,,,,,,,,,,,,,,,,,,,,,,,
,,,,,,,,2023-08-16_08h33.08.180,HF_wild_card,2022.2.4,Win32,60.08893162,55e356dac70c7a00052a57ec,64d2fd46c836a06233681665,64dc7ba29f657209751f2160,,,,,,,decisionTrl,resources/DP.BMP,resources/DY.BMP,Door4,-0.24274717,-0.057134435,1,0,0,0.5958,optionLeft,60,13280,6,30,0,30,0,1,,,,,,,,,,,,,,,,,,,,,,,,,,,,,,,,,,,,,,,
,,,,,,,,2023-08-16_08h33.08.180,HF_wild_card,2022.2.4,Win32,60.08893162,55e356dac70c7a00052a57ec,64d2fd46c836a06233681665,64dc7ba29f657209751f2160,,,,,,,decisionTrl,resources/DY.BMP,resources/DR.BMP,WildCard_Ex,0.208407414,-0.005032582,1,0,0,0.6798,optionRight,5,13285,6,31,0,31,0,1,,,,,,,,,,,,,,,,,,,,,,,,,,,,,,,,,,,,,,,
,,,,,,,,2023-08-16_08h33.08.180,HF_wild_card,2022.2.4,Win32,60.08893162,55e356dac70c7a00052a57ec,64d2fd46c836a06233681665,64dc7ba29f657209751f2160,,,,,,,decisionTrl,resources/DBN.BMP,resources/DG.BMP,Door1,0.207223245,0.003256329,1,0,0,0.7627,optionRight,30,13315,6,32,0,32,0,1,,,,,,,,,,,,,,,,,,,,,,,,,,,,,,,,,,,,,,,
,,,,,,,,2023-08-16_08h33.08.180,HF_wild_card,2022.2.4,Win32,60.08893162,55e356dac70c7a00052a57ec,64d2fd46c836a06233681665,64dc7ba29f657209751f2160,,,,,,,decisionTrl,resources/DG.BMP,resources/DBN.BMP,Door2,0.202486679,0.002072214,1,0,0,1.196,optionRight,20,13335,6,33,0,33,0,1,,,,,,,,,,,,,,,,,,,,,,,,,,,,,,,,,,,,,,,
,,,,,,,,2023-08-16_08h33.08.180,HF_wild_card,2022.2.4,Win32,60.08893162,55e356dac70c7a00052a57ec,64d2fd46c836a06233681665,64dc7ba29f657209751f2160,,,,,,,decisionTrl,resources/DY.BMP,resources/DP.BMP,Door3,-0.307874446,-0.031083481,1,0,0,0.645,optionLeft,70,13405,6,34,0,34,0,1,,,,,,,,,,,,,,,,,,,,,,,,,,,,,,,,,,,,,,,
,,,,,,,,2023-08-16_08h33.08.180,HF_wild_card,2022.2.4,Win32,60.08893162,55e356dac70c7a00052a57ec,64d2fd46c836a06233681665,64dc7ba29f657209751f2160,,,,,,,decisionTrl,resources/DBN.BMP,resources/DG.BMP,Door1,0.194197822,0.003256329,1,0,0,0.7285,optionRight,30,13435,6,35,0,35,0,1,,,,,,,,,,,,,,,,,,,,,,,,,,,,,,,,,,,,,,,
,,,,,,,,2023-08-16_08h33.08.180,HF_wild_card,2022.2.4,Win32,60.08893162,55e356dac70c7a00052a57ec,64d2fd46c836a06233681665,64dc7ba29f657209751f2160,,,,,,,sngl,resources/DR.BMP,resources/Empty.png,WildCard_Ex,-0.223801066,-0.042924844,1,0,0,0.663,optionLeft,95,13530,6,36,0,36,0,1,,,,,,,,,,,,,,,,,,,,,,,,,,,,,,,,,,,,,,,
,,,,,,,,2023-08-16_08h33.08.180,HF_wild_card,2022.2.4,Win32,60.08893162,55e356dac70c7a00052a57ec,64d2fd46c836a06233681665,64dc7ba29f657209751f2160,,,,,,,sngl,resources/Empty.png,resources/DG.BMP,Door1,0.171699266,0.011545293,1,0,0,0.6627,optionRight,30,13560,6,37,0,37,0,1,,,,,,,,,,,,,,,,,,,,,,,,,,,,,,,,,,,,,,,
,,,,,,,,2023-08-16_08h33.08.180,HF_wild_card,2022.2.4,Win32,60.08893162,55e356dac70c7a00052a57ec,64d2fd46c836a06233681665,64dc7ba29f657209751f2160,,,,,,,decisionTrl,resources/DY.BMP,resources/DP.BMP,Door4,0.194197822,-0.018058059,1,0,0,0.9117,optionRight,80,13640,6,38,0,38,0,1,,,,,,,,,,,,,,,,,,,,,,,,,,,,,,,,,,,,,,,
,,,,,,,,2023-08-16_08h33.08.180,HF_wild_card,2022.2.4,Win32,60.08893162,55e356dac70c7a00052a57ec,64d2fd46c836a06233681665,64dc7ba29f657209751f2160,,,,,,,ctch,resources/DP.BMP,resources/DG.BMP,Door4,-0.213143872,-0.041740675,1,0,0,0.6463,optionLeft,80,13720,6,39,0,39,0,1,,,,,,,,,,,,,,,,,,,,,,,,,,,,,,,,,,,,,,,
,,,,,,,,2023-08-16_08h33.08.180,HF_wild_card,2022.2.4,Win32,60.08893162,55e356dac70c7a00052a57ec,64d2fd46c836a06233681665,64dc7ba29f657209751f2160,,,,,,,decisionTrl,resources/DG.BMP,resources/DBN.BMP,Door1,-0.188277087,-0.034635879,1,0,0,0.9453,optionLeft,30,13750,6,40,0,40,0,1,,,,,,,,,,,,,,,,,,,,,,,,,,,,,,,,,,,,,,,
,,,,,,,,2023-08-16_08h33.08.180,HF_wild_card,2022.2.4,Win32,60.08893162,55e356dac70c7a00052a57ec,64d2fd46c836a06233681665,64dc7ba29f657209751f2160,,,,,,,decisionTrl,resources/DP.BMP,resources/DR.BMP,WildCard_Ex,0.243931393,-0.001480184,1,0,0,0.7797,optionRight,95,13845,6,41,0,41,0,1,,,,,,,,,,,,,,,,,,,,,,,,,,,,,,,,,,,,,,,
,,,,,,,,2023-08-16_08h33.08.180,HF_wild_card,2022.2.4,Win32,60.08893162,55e356dac70c7a00052a57ec,64d2fd46c836a06233681665,64dc7ba29f657209751f2160,,,,,,,decisionTrl,resources/DR.BMP,resources/DBN.BMP,WildCard_Ex,-0.197750112,-0.029899367,1,0,0,0.8451,optionLeft,5,13850,6,42,0,42,0,1,,,,,,,,,,,,,,,,,,,,,,,,,,,,,,,,,,,,,,,
,,,,,,,,2023-08-16_08h33.08.180,HF_wild_card,2022.2.4,Win32,60.08893162,55e356dac70c7a00052a57ec,64d2fd46c836a06233681665,64dc7ba29f657209751f2160,,,,,,,decisionTrl,resources/DBN.BMP,resources/DR.BMP,WildCard_Ex,0.203670847,-0.009769094,1,0,0,1.6294,optionRight,5,13855,6,43,0,43,0,1,,,,,,,,,,,,,,,,,,,,,,,,,,,,,,,,,,,,,,,
,,,,,,,,2023-08-16_08h33.08.180,HF_wild_card,2022.2.4,Win32,60.08893162,55e356dac70c7a00052a57ec,64d2fd46c836a06233681665,64dc7ba29f657209751f2160,,,,,,,,,,,,,,,,,,,,,,,,,,5,0,5,0,1,,,,,,,,,,,,,,,,,,,,,,,,,,,,,,,,,,
,,,,,,,,2023-08-16_08h33.08.180,HF_wild_card,2022.2.4,Win32,60.08893162,55e356dac70c7a00052a57ec,64d2fd46c836a06233681665,64dc7ba29f657209751f2160,,,,,,,decisionTrl,resources/DBN.BMP,resources/DG.BMP,Door1,0.220248668,-0.038188277,1,0,0,0.9594,optionRight,30,13885,7,0,0,0,0,1,,,,,,,,,,,,,,,,,,,,,,,,,,,,,,,,,,,,,,,
,,,,,,,,2023-08-16_08h33.08.180,HF_wild_card,2022.2.4,Win32,60.08893162,55e356dac70c7a00052a57ec,64d2fd46c836a06233681665,64dc7ba29f657209751f2160,,,,,,,decisionTrl,resources/DY.BMP,resources/DP.BMP,Door4,0.255772647,-0.010953263,1,0,0,0.8974,optionRight,60,13945,7,1,0,1,0,1,,,,,,,,,,,,,,,,,,,,,,,,,,,,,,,,,,,,,,,
,,,,,,,,2023-08-16_08h33.08.180,HF_wild_card,2022.2.4,Win32,60.08893162,55e356dac70c7a00052a57ec,64d2fd46c836a06233681665,64dc7ba29f657209751f2160,,,,,,,ctch,resources/DG.BMP,resources/DP.BMP,Door4,0.210775643,-0.002664298,1,0,0,0.7026,optionRight,60,14005,7,2,0,2,0,1,,,,,,,,,,,,,,,,,,,,,,,,,,,,,,,,,,,,,,,
,,,,,,,,2023-08-16_08h33.08.180,HF_wild_card,2022.2.4,Win32,60.08893162,55e356dac70c7a00052a57ec,64d2fd46c836a06233681665,64dc7ba29f657209751f2160,,,,,,,decisionTrl,resources/DY.BMP,resources/DP.BMP,Door4,0.202486679,-0.010953263,1,0,0,0.7814,optionRight,60,14065,7,3,0,3,0,1,,,,,,,,,,,,,,,,,,,,,,,,,,,,,,,,,,,,,,,
,,,,,,,,2023-08-16_08h33.08.180,HF_wild_card,2022.2.4,Win32,60.08893162,55e356dac70c7a00052a57ec,64d2fd46c836a06233681665,64dc7ba29f657209751f2160,,,,,,,decisionTrl,resources/DBN.BMP,resources/DG.BMP,Door1,0.193013654,0.002072214,1,0,0,0.9316,optionRight,30,14095,7,4,0,4,0,1,,,,,,,,,,,,,,,,,,,,,,,,,,,,,,,,,,,,,,,
,,,,,,,,2023-08-16_08h33.08.180,HF_wild_card,2022.2.4,Win32,60.08893162,55e356dac70c7a00052a57ec,64d2fd46c836a06233681665,64dc7ba29f657209751f2160,,,,,,,decisionTrl,resources/DBN.BMP,resources/DG.BMP,Door1,0.162226242,-0.006216696,1,0,0,0.7696,optionRight,30,14125,7,5,0,5,0,1,,,,,,,,,,,,,,,,,,,,,,,,,,,,,,,,,,,,,,,
,,,,,,,,2023-08-16_08h33.08.180,HF_wild_card,2022.2.4,Win32,60.08893162,55e356dac70c7a00052a57ec,64d2fd46c836a06233681665,64dc7ba29f657209751f2160,,,,,,,decisionTrl,resources/DBN.BMP,resources/DG.BMP,Door1,0.131438721,-0.005032582,1,0,0,0.998,optionRight,30,14155,7,6,0,6,0,1,,,,,,,,,,,,,,,,,,,,,,,,,,,,,,,,,,,,,,,
,,,,,,,,2023-08-16_08h33.08.180,HF_wild_card,2022.2.4,Win32,60.08893162,55e356dac70c7a00052a57ec,64d2fd46c836a06233681665,64dc7ba29f657209751f2160,,,,,,,ctch,resources/DP.BMP,resources/DG.BMP,Door4,-0.27471875,-0.009769094,1,0,0,0.7974,optionLeft,80,14235,7,7,0,7,0,1,,,,,,,,,,,,,,,,,,,,,,,,,,,,,,,,,,,,,,,
,,,,,,,,2023-08-16_08h33.08.180,HF_wild_card,2022.2.4,Win32,60.08893162,55e356dac70c7a00052a57ec,64d2fd46c836a06233681665,64dc7ba29f657209751f2160,,,,,,,ctch,resources/DY.BMP,resources/DBN.BMP,Door3,-0.245115453,-0.002664298,1,0,0,0.9197,optionLeft,70,14305,7,8,0,8,0,1,,,,,,,,,,,,,,,,,,,,,,,,,,,,,,,,,,,,,,,
,,,,,,,,2023-08-16_08h33.08.180,HF_wild_card,2022.2.4,Win32,60.08893162,55e356dac70c7a00052a57ec,64d2fd46c836a06233681665,64dc7ba29f657209751f2160,,,,,,,decisionTrl,resources/DBN.BMP,resources/DG.BMP,Door1,0.157489675,0.026938999,1,0,0,0.9126,optionRight,30,14335,7,9,0,9,0,1,,,,,,,,,,,,,,,,,,,,,,,,,,,,,,,,,,,,,,,
,,,,,,,,2023-08-16_08h33.08.180,HF_wild_card,2022.2.4,Win32,60.08893162,55e356dac70c7a00052a57ec,64d2fd46c836a06233681665,64dc7ba29f657209751f2160,,,,,,,decisionTrl,resources/DY.BMP,resources/DP.BMP,Door4,0.174067496,0.007992895,1,0,0,2.6263,optionRight,60,14395,7,10,0,10,0,1,,,,,,,,,,,,,,,,,,,,,,,,,,,,,,,,,,,,,,,
,,,,,,,,2023-08-16_08h33.08.180,HF_wild_card,2022.2.4,Win32,60.08893162,55e356dac70c7a00052a57ec,64d2fd46c836a06233681665,64dc7ba29f657209751f2160,,,,,,,decisionTrl,resources/DG.BMP,resources/DBN.BMP,Door1,-0.24274717,-0.03226765,1,0,0,0.7425,optionLeft,30,14425,7,11,0,11,0,1,,,,,,,,,,,,,,,,,,,,,,,,,,,,,,,,,,,,,,,
,,,,,,,,2023-08-16_08h33.08.180,HF_wild_card,2022.2.4,Win32,60.08893162,55e356dac70c7a00052a57ec,64d2fd46c836a06233681665,64dc7ba29f657209751f2160,,,,,,,ctch,resources/DG.BMP,resources/DP.BMP,Door4,0.1669627,-0.013321492,1,0,0,0.7309,optionRight,60,14485,7,12,0,12,0,1,,,,,,,,,,,,,,,,,,,,,,,,,,,,,,,,,,,,,,,
,,,,,,,,2023-08-16_08h33.08.180,HF_wild_card,2022.2.4,Win32,60.08893162,55e356dac70c7a00052a57ec,64d2fd46c836a06233681665,64dc7ba29f657209751f2160,,,,,,,decisionTrl,resources/DP.BMP,resources/DY.BMP,Door4,-0.189461147,-0.060686833,1,0,0,1.7475,optionLeft,80,14565,7,13,0,13,0,1,,,,,,,,,,,,,,,,,,,,,,,,,,,,,,,,,,,,,,,
,,,,,,,,2023-08-16_08h33.08.180,HF_wild_card,2022.2.4,Win32,60.08893162,55e356dac70c7a00052a57ec,64d2fd46c836a06233681665,64dc7ba29f657209751f2160,,,,,,,decisionTrl,resources/DP.BMP,resources/DY.BMP,Door3,0.156305506,0.002072214,1,0,0,1.3655,optionRight,70,14635,7,14,0,14,0,1,,,,,,,,,,,,,,,,,,,,,,,,,,,,,,,,,,,,,,,
,,,,,,,,2023-08-16_08h33.08.180,HF_wild_card,2022.2.4,Win32,60.08893162,55e356dac70c7a00052a57ec,64d2fd46c836a06233681665,64dc7ba29f657209751f2160,,,,,,,decisionTrl,resources/DY.BMP,resources/DP.BMP,Door4,0.190645425,-0.001480184,1,0,0,0.6632,optionRight,60,14695,7,15,0,15,0,1,,,,,,,,,,,,,,,,,,,,,,,,,,,,,,,,,,,,,,,
,,,,,,,,2023-08-16_08h33.08.180,HF_wild_card,2022.2.4,Win32,60.08893162,55e356dac70c7a00052a57ec,64d2fd46c836a06233681665,64dc7ba29f657209751f2160,,,,,,,ctch,resources/DBN.BMP,resources/DY.BMP,Door3,0.172883435,-0.01687389,1,0,0,0.7974,optionRight,70,14765,7,16,0,16,0,1,,,,,,,,,,,,,,,,,,,,,,,,,,,,,,,,,,,,,,,
,,,,,,,,2023-08-16_08h33.08.180,HF_wild_card,2022.2.4,Win32,60.08893162,55e356dac70c7a00052a57ec,64d2fd46c836a06233681665,64dc7ba29f657209751f2160,,,,,,,decisionTrl,resources/DBN.BMP,resources/DG.BMP,Door1,0.138543517,-0.020426288,1,0,0,0.6515,optionRight,30,14795,7,17,0,17,0,1,,,,,,,,,,,,,,,,,,,,,,,,,,,,,,,,,,,,,,,
,,,,,,,,2023-08-16_08h33.08.180,HF_wild_card,2022.2.4,Win32,60.08893162,55e356dac70c7a00052a57ec,64d2fd46c836a06233681665,64dc7ba29f657209751f2160,,,,,,,decisionTrl,resources/DY.BMP,resources/DP.BMP,Door4,0.1669627,-0.00858498,1,0,0,2.1021,optionRight,60,14855,7,18,0,18,0,1,,,,,,,,,,,,,,,,,,,,,,,,,,,,,,,,,,,,,,,
,,,,,,,,2023-08-16_08h33.08.180,HF_wild_card,2022.2.4,Win32,60.08893162,55e356dac70c7a00052a57ec,64d2fd46c836a06233681665,64dc7ba29f657209751f2160,,,,,,,decisionTrl,resources/DG.BMP,resources/DBN.BMP,Door1,-0.18354052,-0.029899367,1,0,0,0.8985,optionLeft,30,14885,7,19,0,19,0,1,,,,,,,,,,,,,,,,,,,,,,,,,,,,,,,,,,,,,,,
,,,,,,,,2023-08-16_08h33.08.180,HF_wild_card,2022.2.4,Win32,60.08893162,55e356dac70c7a00052a57ec,64d2fd46c836a06233681665,64dc7ba29f657209751f2160,,,,,,,decisionTrl,resources/DY.BMP,resources/DP.BMP,Door4,0.172883435,-0.006216696,1,0,0,1.9929,optionRight,80,14965,7,20,0,20,0,1,,,,,,,,,,,,,,,,,,,,,,,,,,,,,,,,,,,,,,,
,,,,,,,,2023-08-16_08h33.08.180,HF_wild_card,2022.2.4,Win32,60.08893162,55e356dac70c7a00052a57ec,64d2fd46c836a06233681665,64dc7ba29f657209751f2160,,,,,,,ctch,resources/DP.BMP,resources/DG.BMP,Door4,-0.290112456,-0.027531083,1,0,0,0.7442,optionLeft,80,15045,7,21,0,21,0,1,,,,,,,,,,,,,,,,,,,,,,,,,,,,,,,,,,,,,,,
,,,,,,,,2023-08-16_08h33.08.180,HF_wild_card,2022.2.4,Win32,60.08893162,55e356dac70c7a00052a57ec,64d2fd46c836a06233681665,64dc7ba29f657209751f2160,,,,,,,decisionTrl,resources/DG.BMP,resources/DBN.BMP,Door1,-0.18590875,-0.014505661,1,0,0,1.0262,optionLeft,30,15075,7,22,0,22,0,1,,,,,,,,,,,,,,,,,,,,,,,,,,,,,,,,,,,,,,,
,,,,,,,,2023-08-16_08h33.08.180,HF_wild_card,2022.2.4,Win32,60.08893162,55e356dac70c7a00052a57ec,64d2fd46c836a06233681665,64dc7ba29f657209751f2160,,,,,,,ctch,resources/DY.BMP,resources/DBN.BMP,Door3,-0.307874446,-0.03226765,1,0,0,0.8642,optionLeft,70,15145,7,23,0,23,0,1,,,,,,,,,,,,,,,,,,,,,,,,,,,,,,,,,,,,,,,
,,,,,,,,2023-08-16_08h33.08.180,HF_wild_card,2022.2.4,Win32,60.08893162,55e356dac70c7a00052a57ec,64d2fd46c836a06233681665,64dc7ba29f657209751f2160,,,,,,,ctch,resources/DBN.BMP,resources/DY.BMP,Door3,0.255772647,-0.015689775,1,0,0,0.7365,optionRight,70,15215,7,24,0,24,0,1,,,,,,,,,,,,,,,,,,,,,,,,,,,,,,,,,,,,,,,
,,,,,,,,2023-08-16_08h33.08.180,HF_wild_card,2022.2.4,Win32,60.08893162,55e356dac70c7a00052a57ec,64d2fd46c836a06233681665,64dc7ba29f657209751f2160,,,,,,,ctch,resources/DP.BMP,resources/DG.BMP,Door4,-0.246299567,-0.031083481,1,0,0,0.7937,optionLeft,80,15295,7,25,0,25,0,1,,,,,,,,,,,,,,,,,,,,,,,,,,,,,,,,,,,,,,,
,,,,,,,,2023-08-16_08h33.08.180,HF_wild_card,2022.2.4,Win32,60.08893162,55e356dac70c7a00052a57ec,64d2fd46c836a06233681665,64dc7ba29f657209751f2160,,,,,,,decisionTrl,resources/DG.BMP,resources/DBN.BMP,Door1,-0.227353464,-0.00858498,1,0,0,0.743,optionLeft,30,15325,7,26,0,26,0,1,,,,,,,,,,,,,,,,,,,,,,,,,,,,,,,,,,,,,,,
,,,,,,,,2023-08-16_08h33.08.180,HF_wild_card,2022.2.4,Win32,60.08893162,55e356dac70c7a00052a57ec,64d2fd46c836a06233681665,64dc7ba29f657209751f2160,,,,,,,ctch,resources/DY.BMP,resources/DBN.BMP,Door3,-0.191829485,-0.020426288,1,0,0,0.7517,optionLeft,70,15395,7,27,0,27,0,1,,,,,,,,,,,,,,,,,,,,,,,,,,,,,,,,,,,,,,,
,,,,,,,,2023-08-16_08h33.08.180,HF_wild_card,2022.2.4,Win32,60.08893162,55e356dac70c7a00052a57ec,64d2fd46c836a06233681665,64dc7ba29f657209751f2160,,,,,,,ctch,resources/DG.BMP,resources/DP.BMP,Door1,-0.252220249,-0.060686833,1,0,0,0.7527,optionLeft,30,15425,7,28,0,28,0,1,,,,,,,,,,,,,,,,,,,,,,,,,,,,,,,,,,,,,,,
,,,,,,,,2023-08-16_08h33.08.180,HF_wild_card,2022.2.4,Win32,60.08893162,55e356dac70c7a00052a57ec,64d2fd46c836a06233681665,64dc7ba29f657209751f2160,,,,,,,decisionTrl,resources/DG.BMP,resources/DBN.BMP,Door1,-0.206039076,0.00917701,1,0,0,0.7488,optionLeft,30,15455,7,29,0,29,0,1,,,,,,,,,,,,,,,,,,,,,,,,,,,,,,,,,,,,,,,
,,,,,,,,2023-08-16_08h33.08.180,HF_wild_card,2022.2.4,Win32,60.08893162,55e356dac70c7a00052a57ec,64d2fd46c836a06233681665,64dc7ba29f657209751f2160,,,,,,,decisionTrl,resources/DP.BMP,resources/DY.BMP,Door4,-0.176435725,-0.003848467,1,0,0,2.4478,optionLeft,80,15535,7,30,0,30,0,1,,,,,,,,,,,,,,,,,,,,,,,,,,,,,,,,,,,,,,,
,,,,,,,,2023-08-16_08h33.08.180,HF_wild_card,2022.2.4,Win32,60.08893162,55e356dac70c7a00052a57ec,64d2fd46c836a06233681665,64dc7ba29f657209751f2160,,,,,,,ctch,resources/DBN.BMP,resources/DY.BMP,Door3,0.235642428,-0.001480184,1,0,0,0.6653,optionRight,70,15605,7,31,0,31,0,1,,,,,,,,,,,,,,,,,,,,,,,,,,,,,,,,,,,,,,,
,,,,,,,,2023-08-16_08h33.08.180,HF_wild_card,2022.2.4,Win32,60.08893162,55e356dac70c7a00052a57ec,64d2fd46c836a06233681665,64dc7ba29f657209751f2160,,,,,,,decisionTrl,resources/DG.BMP,resources/DBN.BMP,Door1,-0.238010657,-0.014505661,1,0,0,0.669,optionLeft,30,15635,7,32,0,32,0,1,,,,,,,,,,,,,,,,,,,,,,,,,,,,,,,,,,,,,,,
,,,,,,,,2023-08-16_08h33.08.180,HF_wild_card,2022.2.4,Win32,60.08893162,55e356dac70c7a00052a57ec,64d2fd46c836a06233681665,64dc7ba29f657209751f2160,,,,,,,decisionTrl,resources/DP.BMP,resources/DY.BMP,Door3,0.195381883,0.002072214,1,0,0,1.5927,optionRight,70,15705,7,33,0,33,0,1,,,,,,,,,,,,,,,,,,,,,,,,,,,,,,,,,,,,,,,
,,,,,,,,2023-08-16_08h33.08.180,HF_wild_card,2022.2.4,Win32,60.08893162,55e356dac70c7a00052a57ec,64d2fd46c836a06233681665,64dc7ba29f657209751f2160,,,,,,,decisionTrl,resources/DP.BMP,resources/DY.BMP,Door3,0.11722913,0.002072214,1,0,0,0.644,optionRight,70,15775,7,34,0,34,0,1,,,,,,,,,,,,,,,,,,,,,,,,,,,,,,,,,,,,,,,
,,,,,,,,2023-08-16_08h33.08.180,HF_wild_card,2022.2.4,Win32,60.08893162,55e356dac70c7a00052a57ec,64d2fd46c836a06233681665,64dc7ba29f657209751f2160,,,,,,,decisionTrl,resources/DP.BMP,resources/DY.BMP,Door3,0.129070492,0.000888099,1,0,0,0.6799,optionRight,70,15845,7,35,0,35,0,1,,,,,,,,,,,,,,,,,,,,,,,,,,,,,,,,,,,,,,,
,,,,,,,,2023-08-16_08h33.08.180,HF_wild_card,2022.2.4,Win32,60.08893162,55e356dac70c7a00052a57ec,64d2fd46c836a06233681665,64dc7ba29f657209751f2160,,,,,,,,,,,,,,,,,,,,,,,,,,6,0,6,0,1,,,,,,,,,,,,,,,,,,,,,,,,,,,,,,,,,,
,,,,,,,,2023-08-16_08h33.08.180,HF_wild_card,2022.2.4,Win32,60.08893162,55e356dac70c7a00052a57ec,64d2fd46c836a06233681665,64dc7ba29f657209751f2160,,,,,,,,,,,,,,,,,,,,,,,,,,,,,,,3,,,,,,,,,,,,,,,,,,,,,,,,,,,,,,,,,
,,,,,,,,2023-08-16_08h33.08.180,HF_wild_card,2022.2.4,Win32,60.08893162,55e356dac70c7a00052a57ec,64d2fd46c836a06233681665,64dc7ba29f657209751f2160,,,,,,,,,,,,,,,,,,,,,,,,,,,,,,,,,,,,,,,,,,,,,,,,,,,,,,,,,,,,,,,,
,,,,,,,,2023-08-16_08h33.08.180,HF_wild_card,2022.2.4,Win32,60.08893162,55e356dac70c7a00052a57ec,64d2fd46c836a06233681665,64dc7ba29f657209751f2160,,,,,,,,,,,,,,,,,,,,,,,,,,,,,,,,30,Door1,resources/DG.BMP,0,0,0,0,1,,,,,,,,,,,,,,,,,,,,,,,,,
,,,,,,,,2023-08-16_08h33.08.180,HF_wild_card,2022.2.4,Win32,60.08893162,55e356dac70c7a00052a57ec,64d2fd46c836a06233681665,64dc7ba29f657209751f2160,,,,,,,,,,,,,,,,,,,,,,,,,,,,,,,,20,Door2,resources/DBN.BMP,1,0,1,0,1,,,,,,,,,,,,,,,,,,,,,,,,,
,,,,,,,,2023-08-16_08h33.08.180,HF_wild_card,2022.2.4,Win32,60.08893162,55e356dac70c7a00052a57ec,64d2fd46c836a06233681665,64dc7ba29f657209751f2160,,,,,,,,,,,,,,,,,,,,,,,,,,,,,,,,80,Door4,resources/DP.BMP,2,0,2,0,1,,,,,,,,,,,,,,,,,,,,,,,,,
,,,,,,,,2023-08-16_08h33.08.180,HF_wild_card,2022.2.4,Win32,60.08893162,55e356dac70c7a00052a57ec,64d2fd46c836a06233681665,64dc7ba29f657209751f2160,,,,,,,,,,,,,,,,,,,,,,,,,,,,,,,,45,WC_nonExtreme,resources/DB.BMP,3,0,3,0,1,,,,,,,,,,,,,,,,,,,,,,,,,
,,,,,,,,2023-08-16_08h33.08.180,HF_wild_card,2022.2.4,Win32,60.08893162,55e356dac70c7a00052a57ec,64d2fd46c836a06233681665,64dc7ba29f657209751f2160,,,,,,,,,,,,,,,,,,,,,,,,,,,,,,,,70,Door3,resources/DY.BMP,4,0,4,0,1,,,,,,,,,,,,,,,,,,,,,,,,,
,,,,,,,,2023-08-16_08h33.08.180,HF_wild_card,2022.2.4,Win32,60.08893162,55e356dac70c7a00052a57ec,64d2fd46c836a06233681665,64dc7ba29f657209751f2160,,,,,,,,,,,,,,,,,,,,,,,,,,,,,,,,95,WC_extreme,resources/DR.BMP,5,0,5,0,1,,,,,,,,,,,,,,,,,,,,,,,,,
,,,,,,,,2023-08-16_08h33.08.180,HF_wild_card,2022.2.4,Win32,60.08893162,55e356dac70c7a00052a57ec,64d2fd46c836a06233681665,64dc7ba29f657209751f2160,,,,,,,,,,,,,,,,,,,,,,,,,,,,,,,,,,,,,,,,,,,,,,,,,,,,,,,,,,,,,,,,
