Condition,Low fixed image (Door1),Low risky image (Door2),High fixed image (Door3),High risky image (Door4),Extreme Wild Card,NonExtreme Wild Card,,date,expName,psychopyVersion,OS,frameRate,PROLIFIC_PID,STUDY_ID,SESSION_ID,mouse_2.x,mouse_2.y,mouse_2.leftButton,mouse_2.midButton,mouse_2.rightButton,mouse_2.clicked_name,Trial Type,Left Option Image,Right Option Image,Chosen Door,mouse.x,mouse.y,mouse.leftButton,mouse.midButton,mouse.rightButton,mouse.time,mouse.clicked_name,Feedback,Cumulative Reward,Block,trial.thisRepN,trial.thisTrialN,trial.thisN,trial.thisIndex,trial.ran,blocks.thisRepN,blocks.thisTrialN,blocks.thisN,blocks.thisIndex,blocks.ran,Money conversion,First Outcome Reported,Shown Door (First Outcome),Displayed Image (First Outcome),outcomes.thisRepN,outcomes.thisTrialN,outcomes.thisN,outcomes.thisIndex,outcomes.ran,judgments.thisRepN,judgments.thisTrialN,judgments.thisN,judgments.thisIndex,judgments.ran,freqMouse.x,freqMouse.y,freqMouse.leftButton,freqMouse.midButton,freqMouse.rightButton,freqMouse.clicked_name,FQJ for first outcome,FQJ for second outcome,Shown Door,Displayed Image,trials.thisRepN,trials.thisTrialN,trials.thisN,trials.thisIndex,trials.ran,judgBlock.thisRepN,judgBlock.thisTrialN,judgBlock.thisN,judgBlock.thisIndex,judgBlock.ran
0,resources/DP.BMP,resources/DY.BMP,resources/DG.BMP,resources/DBN.BMP,resources/DR.BMP,resources/DB.BMP,,2023-08-16_08h42.57.111,HF_wild_card,2022.2.4,Win32,29.94280923,6458fe267afe71c7aa4de260,64d2fd46c836a06233681665,64dc7df593b2ef5a07ade390,,,,,,,,,,,,,,,,,,,,,,,,,,,,,,,,,,,,,,,,,,,,,,,,,,,,,,,,,,,,,,,,
,,,,,,,,2023-08-16_08h42.57.111,HF_wild_card,2022.2.4,Win32,29.94280923,6458fe267afe71c7aa4de260,64d2fd46c836a06233681665,64dc7df593b2ef5a07ade390,-0.001851824,-0.427777778,1,0,0,agree,,,,,,,,,,,,,,,,,,,,,,,,,,,,,,,,,,,,,,,,,,,,,,,,,,,,,,,,,,
,,,,,,,,2023-08-16_08h42.57.111,HF_wild_card,2022.2.4,Win32,29.94280923,6458fe267afe71c7aa4de260,64d2fd46c836a06233681665,64dc7df593b2ef5a07ade390,,,,,,,,,,,,,,,,,,,,,,,,,,,,,,,,,,,,,,,,,,,,,,,,,,,,,,,,,,,,,,,,
,,,,,,,,2023-08-16_08h42.57.111,HF_wild_card,2022.2.4,Win32,29.94280923,6458fe267afe71c7aa4de260,64d2fd46c836a06233681665,64dc7df593b2ef5a07ade390,,,,,,,ctch,resources/DG.BMP,resources/DY.BMP,Door2,0.335185242,-0.148148176,1,0,0,2.1401,optionRight,20,20,1,0,0,0,0,1,,,,,,,,,,,,,,,,,,,,,,,,,,,,,,,,,,,,,,,
,,,,,,,,2023-08-16_08h42.57.111,HF_wild_card,2022.2.4,Win32,29.94280923,6458fe267afe71c7aa4de260,64d2fd46c836a06233681665,64dc7df593b2ef5a07ade390,,,,,,,decisionTrl,resources/DBN.BMP,resources/DG.BMP,Door3,0.357407464,-0.005555556,1,0,0,1.6718,optionRight,70,90,1,1,0,1,0,1,,,,,,,,,,,,,,,,,,,,,,,,,,,,,,,,,,,,,,,
,,,,,,,,2023-08-16_08h42.57.111,HF_wild_card,2022.2.4,Win32,29.94280923,6458fe267afe71c7aa4de260,64d2fd46c836a06233681665,64dc7df593b2ef5a07ade390,,,,,,,ctch,resources/DY.BMP,resources/DG.BMP,Door2,-0.355555556,-0.027777778,1,0,0,2.6668,optionLeft,20,110,1,2,0,2,0,1,,,,,,,,,,,,,,,,,,,,,,,,,,,,,,,,,,,,,,,
,,,,,,,,2023-08-16_08h42.57.111,HF_wild_card,2022.2.4,Win32,29.94280923,6458fe267afe71c7aa4de260,64d2fd46c836a06233681665,64dc7df593b2ef5a07ade390,,,,,,,ctch,resources/DBN.BMP,resources/DP.BMP,Door1,0.33148151,-0.004629644,1,0,0,1.3377,optionRight,30,140,1,3,0,3,0,1,,,,,,,,,,,,,,,,,,,,,,,,,,,,,,,,,,,,,,,
,,,,,,,,2023-08-16_08h42.57.111,HF_wild_card,2022.2.4,Win32,29.94280923,6458fe267afe71c7aa4de260,64d2fd46c836a06233681665,64dc7df593b2ef5a07ade390,,,,,,,decisionTrl,resources/DBN.BMP,resources/DG.BMP,Door3,0.289814843,0.00370369,1,0,0,1.2404,optionRight,70,210,1,4,0,4,0,1,,,,,,,,,,,,,,,,,,,,,,,,,,,,,,,,,,,,,,,
,,,,,,,,2023-08-16_08h42.57.111,HF_wild_card,2022.2.4,Win32,29.94280923,6458fe267afe71c7aa4de260,64d2fd46c836a06233681665,64dc7df593b2ef5a07ade390,,,,,,,decisionTrl,resources/DR.BMP,resources/DG.BMP,Door3,0.389814843,0.022222222,1,0,0,1.2784,optionRight,70,280,1,5,0,5,0,1,,,,,,,,,,,,,,,,,,,,,,,,,,,,,,,,,,,,,,,
,,,,,,,,2023-08-16_08h42.57.111,HF_wild_card,2022.2.4,Win32,29.94280923,6458fe267afe71c7aa4de260,64d2fd46c836a06233681665,64dc7df593b2ef5a07ade390,,,,,,,decisionTrl,resources/DY.BMP,resources/DP.BMP,Door1,0.463888889,0.046296268,1,0,0,1.1633,optionRight,30,310,1,6,0,6,0,1,,,,,,,,,,,,,,,,,,,,,,,,,,,,,,,,,,,,,,,
,,,,,,,,2023-08-16_08h42.57.111,HF_wild_card,2022.2.4,Win32,29.94280923,6458fe267afe71c7aa4de260,64d2fd46c836a06233681665,64dc7df593b2ef5a07ade390,,,,,,,sngl,resources/DR.BMP,resources/Empty.png,WildCard_Ex,-0.367592578,-0.012037065,1,0,0,1.4983,optionLeft,5,315,1,7,0,7,0,1,,,,,,,,,,,,,,,,,,,,,,,,,,,,,,,,,,,,,,,
,,,,,,,,2023-08-16_08h42.57.111,HF_wild_card,2022.2.4,Win32,29.94280923,6458fe267afe71c7aa4de260,64d2fd46c836a06233681665,64dc7df593b2ef5a07ade390,,,,,,,ctch,resources/DY.BMP,resources/DG.BMP,Door2,-0.332407379,-0.017592621,1,0,0,1.5045,optionLeft,40,355,1,8,0,8,0,1,,,,,,,,,,,,,,,,,,,,,,,,,,,,,,,,,,,,,,,
,,,,,,,,2023-08-16_08h42.57.111,HF_wild_card,2022.2.4,Win32,29.94280923,6458fe267afe71c7aa4de260,64d2fd46c836a06233681665,64dc7df593b2ef5a07ade390,,,,,,,decisionTrl,resources/DG.BMP,resources/DBN.BMP,Door3,-0.263888889,-0.003703732,1,0,0,1.1798,optionLeft,70,425,1,9,0,9,0,1,,,,,,,,,,,,,,,,,,,,,,,,,,,,,,,,,,,,,,,
,,,,,,,,2023-08-16_08h42.57.111,HF_wild_card,2022.2.4,Win32,29.94280923,6458fe267afe71c7aa4de260,64d2fd46c836a06233681665,64dc7df593b2ef5a07ade390,,,,,,,decisionTrl,resources/DY.BMP,resources/DR.BMP,WildCard_Ex,0.369444444,0.010185157,1,0,0,1.8422,optionRight,95,520,1,10,0,10,0,1,,,,,,,,,,,,,,,,,,,,,,,,,,,,,,,,,,,,,,,
,,,,,,,,2023-08-16_08h42.57.111,HF_wild_card,2022.2.4,Win32,29.94280923,6458fe267afe71c7aa4de260,64d2fd46c836a06233681665,64dc7df593b2ef5a07ade390,,,,,,,decisionTrl,resources/DBN.BMP,resources/DG.BMP,Door3,0.3,0.014814801,1,0,0,1.0461,optionRight,70,590,1,11,0,11,0,1,,,,,,,,,,,,,,,,,,,,,,,,,,,,,,,,,,,,,,,
,,,,,,,,2023-08-16_08h42.57.111,HF_wild_card,2022.2.4,Win32,29.94280923,6458fe267afe71c7aa4de260,64d2fd46c836a06233681665,64dc7df593b2ef5a07ade390,,,,,,,sngl,resources/DP.BMP,resources/Empty.png,Door1,-0.287962935,-0.017592621,1,0,0,0.9453,optionLeft,30,620,1,12,0,12,0,1,,,,,,,,,,,,,,,,,,,,,,,,,,,,,,,,,,,,,,,
,,,,,,,,2023-08-16_08h42.57.111,HF_wild_card,2022.2.4,Win32,29.94280923,6458fe267afe71c7aa4de260,64d2fd46c836a06233681665,64dc7df593b2ef5a07ade390,,,,,,,decisionTrl,resources/DR.BMP,resources/DY.BMP,WildCard_Ex,-0.30370369,-0.000925954,1,0,0,1.3099,optionLeft,95,715,1,13,0,13,0,1,,,,,,,,,,,,,,,,,,,,,,,,,,,,,,,,,,,,,,,
,,,,,,,,2023-08-16_08h42.57.111,HF_wild_card,2022.2.4,Win32,29.94280923,6458fe267afe71c7aa4de260,64d2fd46c836a06233681665,64dc7df593b2ef5a07ade390,,,,,,,decisionTrl,resources/DG.BMP,resources/DBN.BMP,Door4,0.436111111,0.046296268,1,0,0,1.5556,optionRight,80,795,1,14,0,14,0,1,,,,,,,,,,,,,,,,,,,,,,,,,,,,,,,,,,,,,,,
,,,,,,,,2023-08-16_08h42.57.111,HF_wild_card,2022.2.4,Win32,29.94280923,6458fe267afe71c7aa4de260,64d2fd46c836a06233681665,64dc7df593b2ef5a07ade390,,,,,,,decisionTrl,resources/DR.BMP,resources/DP.BMP,WildCard_Ex,-0.363888889,-0.013888889,1,0,0,1.4842,optionLeft,5,800,1,15,0,15,0,1,,,,,,,,,,,,,,,,,,,,,,,,,,,,,,,,,,,,,,,
,,,,,,,,2023-08-16_08h42.57.111,HF_wild_card,2022.2.4,Win32,29.94280923,6458fe267afe71c7aa4de260,64d2fd46c836a06233681665,64dc7df593b2ef5a07ade390,,,,,,,sngl,resources/Empty.png,resources/DP.BMP,Door1,0.299074131,0.006481467,1,0,0,0.831,optionRight,30,830,1,16,0,16,0,1,,,,,,,,,,,,,,,,,,,,,,,,,,,,,,,,,,,,,,,
,,,,,,,,2023-08-16_08h42.57.111,HF_wild_card,2022.2.4,Win32,29.94280923,6458fe267afe71c7aa4de260,64d2fd46c836a06233681665,64dc7df593b2ef5a07ade390,,,,,,,sngl,resources/Empty.png,resources/DR.BMP,WildCard_Ex,0.293518575,0.012037023,1,0,0,0.9086,optionRight,95,925,1,17,0,17,0,1,,,,,,,,,,,,,,,,,,,,,,,,,,,,,,,,,,,,,,,
,,,,,,,,2023-08-16_08h42.57.111,HF_wild_card,2022.2.4,Win32,29.94280923,6458fe267afe71c7aa4de260,64d2fd46c836a06233681665,64dc7df593b2ef5a07ade390,,,,,,,decisionTrl,resources/DP.BMP,resources/DY.BMP,Door2,0.440740797,0.004629601,1,0,0,2.4915,optionRight,40,965,1,18,0,18,0,1,,,,,,,,,,,,,,,,,,,,,,,,,,,,,,,,,,,,,,,
,,,,,,,,2023-08-16_08h42.57.111,HF_wild_card,2022.2.4,Win32,29.94280923,6458fe267afe71c7aa4de260,64d2fd46c836a06233681665,64dc7df593b2ef5a07ade390,,,,,,,decisionTrl,resources/DG.BMP,resources/DBN.BMP,Door4,0.325,0.039814801,1,0,0,1.4062,optionRight,60,1025,1,19,0,19,0,1,,,,,,,,,,,,,,,,,,,,,,,,,,,,,,,,,,,,,,,
,,,,,,,,2023-08-16_08h42.57.111,HF_wild_card,2022.2.4,Win32,29.94280923,6458fe267afe71c7aa4de260,64d2fd46c836a06233681665,64dc7df593b2ef5a07ade390,,,,,,,ctch,resources/DBN.BMP,resources/DP.BMP,Door1,0.317592621,0.045370356,1,0,0,1.1487,optionRight,30,1055,1,20,0,20,0,1,,,,,,,,,,,,,,,,,,,,,,,,,,,,,,,,,,,,,,,
,,,,,,,,2023-08-16_08h42.57.111,HF_wild_card,2022.2.4,Win32,29.94280923,6458fe267afe71c7aa4de260,64d2fd46c836a06233681665,64dc7df593b2ef5a07ade390,,,,,,,decisionTrl,resources/DP.BMP,resources/DY.BMP,Door2,0.372222222,0.05,1,0,0,1.6244,optionRight,40,1095,1,21,0,21,0,1,,,,,,,,,,,,,,,,,,,,,,,,,,,,,,,,,,,,,,,
,,,,,,,,2023-08-16_08h42.57.111,HF_wild_card,2022.2.4,Win32,29.94280923,6458fe267afe71c7aa4de260,64d2fd46c836a06233681665,64dc7df593b2ef5a07ade390,,,,,,,decisionTrl,resources/DBN.BMP,resources/DR.BMP,WildCard_Ex,0.294444444,0.034259245,1,0,0,1.5126,optionRight,95,1190,1,22,0,22,0,1,,,,,,,,,,,,,,,,,,,,,,,,,,,,,,,,,,,,,,,
,,,,,,,,2023-08-16_08h42.57.111,HF_wild_card,2022.2.4,Win32,29.94280923,6458fe267afe71c7aa4de260,64d2fd46c836a06233681665,64dc7df593b2ef5a07ade390,,,,,,,decisionTrl,resources/DP.BMP,resources/DY.BMP,Door2,0.250925954,0.019444444,1,0,0,1.3464,optionRight,20,1210,1,23,0,23,0,1,,,,,,,,,,,,,,,,,,,,,,,,,,,,,,,,,,,,,,,
,,,,,,,,2023-08-16_08h42.57.111,HF_wild_card,2022.2.4,Win32,29.94280923,6458fe267afe71c7aa4de260,64d2fd46c836a06233681665,64dc7df593b2ef5a07ade390,,,,,,,sngl,resources/DR.BMP,resources/Empty.png,WildCard_Ex,-0.3,-0.004629644,1,0,0,1.1416,optionLeft,95,1305,1,24,0,24,0,1,,,,,,,,,,,,,,,,,,,,,,,,,,,,,,,,,,,,,,,
,,,,,,,,2023-08-16_08h42.57.111,HF_wild_card,2022.2.4,Win32,29.94280923,6458fe267afe71c7aa4de260,64d2fd46c836a06233681665,64dc7df593b2ef5a07ade390,,,,,,,ctch,resources/DP.BMP,resources/DBN.BMP,Door4,0.305555556,0.020370356,1,0,0,2.1588,optionRight,60,1365,1,25,0,25,0,1,,,,,,,,,,,,,,,,,,,,,,,,,,,,,,,,,,,,,,,
,,,,,,,,2023-08-16_08h42.57.111,HF_wild_card,2022.2.4,Win32,29.94280923,6458fe267afe71c7aa4de260,64d2fd46c836a06233681665,64dc7df593b2ef5a07ade390,,,,,,,ctch,resources/DG.BMP,resources/DY.BMP,Door3,-0.434259245,-0.020370399,1,0,0,1.4443,optionLeft,70,1435,1,26,0,26,0,1,,,,,,,,,,,,,,,,,,,,,,,,,,,,,,,,,,,,,,,
,,,,,,,,2023-08-16_08h42.57.111,HF_wild_card,2022.2.4,Win32,29.94280923,6458fe267afe71c7aa4de260,64d2fd46c836a06233681665,64dc7df593b2ef5a07ade390,,,,,,,decisionTrl,resources/DY.BMP,resources/DP.BMP,Door2,-0.438888889,0.026851824,1,0,0,1.5822,optionLeft,40,1475,1,27,0,27,0,1,,,,,,,,,,,,,,,,,,,,,,,,,,,,,,,,,,,,,,,
,,,,,,,,2023-08-16_08h42.57.111,HF_wild_card,2022.2.4,Win32,29.94280923,6458fe267afe71c7aa4de260,64d2fd46c836a06233681665,64dc7df593b2ef5a07ade390,,,,,,,ctch,resources/DP.BMP,resources/DBN.BMP,Door1,-0.238888889,0.007407379,1,0,0,1.0137,optionLeft,30,1505,1,28,0,28,0,1,,,,,,,,,,,,,,,,,,,,,,,,,,,,,,,,,,,,,,,
,,,,,,,,2023-08-16_08h42.57.111,HF_wild_card,2022.2.4,Win32,29.94280923,6458fe267afe71c7aa4de260,64d2fd46c836a06233681665,64dc7df593b2ef5a07ade390,,,,,,,decisionTrl,resources/DY.BMP,resources/DP.BMP,Door1,0.395370399,0.019444444,1,0,0,1.1977,optionRight,30,1535,1,29,0,29,0,1,,,,,,,,,,,,,,,,,,,,,,,,,,,,,,,,,,,,,,,
,,,,,,,,2023-08-16_08h42.57.111,HF_wild_card,2022.2.4,Win32,29.94280923,6458fe267afe71c7aa4de260,64d2fd46c836a06233681665,64dc7df593b2ef5a07ade390,,,,,,,decisionTrl,resources/DP.BMP,resources/DR.BMP,WildCard_Ex,0.226851908,0.00370369,1,0,0,1.2705,optionRight,95,1630,1,30,0,30,0,1,,,,,,,,,,,,,,,,,,,,,,,,,,,,,,,,,,,,,,,
,,,,,,,,2023-08-16_08h42.57.111,HF_wild_card,2022.2.4,Win32,29.94280923,6458fe267afe71c7aa4de260,64d2fd46c836a06233681665,64dc7df593b2ef5a07ade390,,,,,,,sngl,resources/Empty.png,resources/DBN.BMP,Door4,0.343518575,0.037037023,1,0,0,1.1898,optionRight,60,1690,1,31,0,31,0,1,,,,,,,,,,,,,,,,,,,,,,,,,,,,,,,,,,,,,,,
,,,,,,,,2023-08-16_08h42.57.111,HF_wild_card,2022.2.4,Win32,29.94280923,6458fe267afe71c7aa4de260,64d2fd46c836a06233681665,64dc7df593b2ef5a07ade390,,,,,,,sngl,resources/DY.BMP,resources/Empty.png,Door2,-0.270370356,0.014814801,1,0,0,0.9605,optionLeft,40,1730,1,32,0,32,0,1,,,,,,,,,,,,,,,,,,,,,,,,,,,,,,,,,,,,,,,
,,,,,,,,2023-08-16_08h42.57.111,HF_wild_card,2022.2.4,Win32,29.94280923,6458fe267afe71c7aa4de260,64d2fd46c836a06233681665,64dc7df593b2ef5a07ade390,,,,,,,sngl,resources/Empty.png,resources/DR.BMP,WildCard_Ex,0.40648151,0.039814801,1,0,0,1.1211,optionRight,5,1735,1,33,0,33,0,1,,,,,,,,,,,,,,,,,,,,,,,,,,,,,,,,,,,,,,,
,,,,,,,,2023-08-16_08h42.57.111,HF_wild_card,2022.2.4,Win32,29.94280923,6458fe267afe71c7aa4de260,64d2fd46c836a06233681665,64dc7df593b2ef5a07ade390,,,,,,,decisionTrl,resources/DR.BMP,resources/DBN.BMP,Door4,0.328703732,0.012037023,1,0,0,2.4084,optionRight,80,1815,1,34,0,34,0,1,,,,,,,,,,,,,,,,,,,,,,,,,,,,,,,,,,,,,,,
,,,,,,,,2023-08-16_08h42.57.111,HF_wild_card,2022.2.4,Win32,29.94280923,6458fe267afe71c7aa4de260,64d2fd46c836a06233681665,64dc7df593b2ef5a07ade390,,,,,,,decisionTrl,resources/DG.BMP,resources/DBN.BMP,Door4,0.419444444,0.059259245,1,0,0,0.9765,optionRight,60,1875,1,35,0,35,0,1,,,,,,,,,,,,,,,,,,,,,,,,,,,,,,,,,,,,,,,
,,,,,,,,2023-08-16_08h42.57.111,HF_wild_card,2022.2.4,Win32,29.94280923,6458fe267afe71c7aa4de260,64d2fd46c836a06233681665,64dc7df593b2ef5a07ade390,,,,,,,sngl,resources/DBN.BMP,resources/Empty.png,Door4,-0.290740712,0.02870369,1,0,0,0.9148,optionLeft,80,1955,1,36,0,36,0,1,,,,,,,,,,,,,,,,,,,,,,,,,,,,,,,,,,,,,,,
,,,,,,,,2023-08-16_08h42.57.111,HF_wild_card,2022.2.4,Win32,29.94280923,6458fe267afe71c7aa4de260,64d2fd46c836a06233681665,64dc7df593b2ef5a07ade390,,,,,,,sngl,resources/Empty.png,resources/DY.BMP,Door2,0.336111111,0.047222222,1,0,0,1.0695,optionRight,20,1975,1,37,0,37,0,1,,,,,,,,,,,,,,,,,,,,,,,,,,,,,,,,,,,,,,,
,,,,,,,,2023-08-16_08h42.57.111,HF_wild_card,2022.2.4,Win32,29.94280923,6458fe267afe71c7aa4de260,64d2fd46c836a06233681665,64dc7df593b2ef5a07ade390,,,,,,,decisionTrl,resources/DP.BMP,resources/DY.BMP,Door2,0.434259288,0.064814801,1,0,0,1.5559,optionRight,20,1995,1,38,0,38,0,1,,,,,,,,,,,,,,,,,,,,,,,,,,,,,,,,,,,,,,,
,,,,,,,,2023-08-16_08h42.57.111,HF_wild_card,2022.2.4,Win32,29.94280923,6458fe267afe71c7aa4de260,64d2fd46c836a06233681665,64dc7df593b2ef5a07ade390,,,,,,,sngl,resources/DG.BMP,resources/Empty.png,Door3,-0.310185157,-0.013888889,1,0,0,0.9076,optionLeft,70,2065,1,39,0,39,0,1,,,,,,,,,,,,,,,,,,,,,,,,,,,,,,,,,,,,,,,
,,,,,,,,2023-08-16_08h42.57.111,HF_wild_card,2022.2.4,Win32,29.94280923,6458fe267afe71c7aa4de260,64d2fd46c836a06233681665,64dc7df593b2ef5a07ade390,,,,,,,decisionTrl,resources/DG.BMP,resources/DR.BMP,WildCard_Ex,0.405555556,0.029629601,1,0,0,1.4259,optionRight,5,2070,1,40,0,40,0,1,,,,,,,,,,,,,,,,,,,,,,,,,,,,,,,,,,,,,,,
,,,,,,,,2023-08-16_08h42.57.111,HF_wild_card,2022.2.4,Win32,29.94280923,6458fe267afe71c7aa4de260,64d2fd46c836a06233681665,64dc7df593b2ef5a07ade390,,,,,,,sngl,resources/Empty.png,resources/DG.BMP,Door3,0.307407464,0.042592578,1,0,0,1.0304,optionRight,70,2140,1,41,0,41,0,1,,,,,,,,,,,,,,,,,,,,,,,,,,,,,,,,,,,,,,,
,,,,,,,,2023-08-16_08h42.57.111,HF_wild_card,2022.2.4,Win32,29.94280923,6458fe267afe71c7aa4de260,64d2fd46c836a06233681665,64dc7df593b2ef5a07ade390,,,,,,,decisionTrl,resources/DBN.BMP,resources/DG.BMP,Door3,0.213888889,0.024074046,1,0,0,0.9991,optionRight,70,2210,1,42,0,42,0,1,,,,,,,,,,,,,,,,,,,,,,,,,,,,,,,,,,,,,,,
,,,,,,,,2023-08-16_08h42.57.111,HF_wild_card,2022.2.4,Win32,29.94280923,6458fe267afe71c7aa4de260,64d2fd46c836a06233681665,64dc7df593b2ef5a07ade390,,,,,,,decisionTrl,resources/DY.BMP,resources/DP.BMP,Door2,-0.383333333,-0.003703732,1,0,0,1.5272,optionLeft,40,2250,1,43,0,43,0,1,,,,,,,,,,,,,,,,,,,,,,,,,,,,,,,,,,,,,,,
,,,,,,,,2023-08-16_08h42.57.111,HF_wild_card,2022.2.4,Win32,29.94280923,6458fe267afe71c7aa4de260,64d2fd46c836a06233681665,64dc7df593b2ef5a07ade390,,,,,,,,,,,,,,,,,,,,,,,,,,0,0,0,0,1,,,,,,,,,,,,,,,,,,,,,,,,,,,,,,,,,,
,,,,,,,,2023-08-16_08h42.57.111,HF_wild_card,2022.2.4,Win32,29.94280923,6458fe267afe71c7aa4de260,64d2fd46c836a06233681665,64dc7df593b2ef5a07ade390,,,,,,,sngl,resources/Empty.png,resources/DBN.BMP,Door4,0.297222222,-0.126851866,1,0,0,1.1356,optionRight,80,2330,2,0,0,0,0,1,,,,,,,,,,,,,,,,,,,,,,,,,,,,,,,,,,,,,,,
,,,,,,,,2023-08-16_08h42.57.111,HF_wild_card,2022.2.4,Win32,29.94280923,6458fe267afe71c7aa4de260,64d2fd46c836a06233681665,64dc7df593b2ef5a07ade390,,,,,,,ctch,resources/DP.BMP,resources/DBN.BMP,Door4,0.283333333,0.026851824,1,0,0,1.3093,optionRight,80,2410,2,1,0,1,0,1,,,,,,,,,,,,,,,,,,,,,,,,,,,,,,,,,,,,,,,
,,,,,,,,2023-08-16_08h42.57.111,HF_wild_card,2022.2.4,Win32,29.94280923,6458fe267afe71c7aa4de260,64d2fd46c836a06233681665,64dc7df593b2ef5a07ade390,,,,,,,decisionTrl,resources/DG.BMP,resources/DBN.BMP,Door4,0.257407464,0.012962935,1,0,0,1.0391,optionRight,80,2490,2,2,0,2,0,1,,,,,,,,,,,,,,,,,,,,,,,,,,,,,,,,,,,,,,,
,,,,,,,,2023-08-16_08h42.57.111,HF_wild_card,2022.2.4,Win32,29.94280923,6458fe267afe71c7aa4de260,64d2fd46c836a06233681665,64dc7df593b2ef5a07ade390,,,,,,,decisionTrl,resources/DBN.BMP,resources/DG.BMP,Door4,-0.302777778,-0.022222222,1,0,0,0.8883,optionLeft,60,2550,2,3,0,3,0,1,,,,,,,,,,,,,,,,,,,,,,,,,,,,,,,,,,,,,,,
,,,,,,,,2023-08-16_08h42.57.111,HF_wild_card,2022.2.4,Win32,29.94280923,6458fe267afe71c7aa4de260,64d2fd46c836a06233681665,64dc7df593b2ef5a07ade390,,,,,,,decisionTrl,resources/DR.BMP,resources/DBN.BMP,Door4,0.324074131,0.060185157,1,0,0,0.9092,optionRight,60,2610,2,4,0,4,0,1,,,,,,,,,,,,,,,,,,,,,,,,,,,,,,,,,,,,,,,
,,,,,,,,2023-08-16_08h42.57.111,HF_wild_card,2022.2.4,Win32,29.94280923,6458fe267afe71c7aa4de260,64d2fd46c836a06233681665,64dc7df593b2ef5a07ade390,,,,,,,decisionTrl,resources/DY.BMP,resources/DP.BMP,Door2,-0.262037023,0.007407379,1,0,0,1.4898,optionLeft,20,2630,2,5,0,5,0,1,,,,,,,,,,,,,,,,,,,,,,,,,,,,,,,,,,,,,,,
,,,,,,,,2023-08-16_08h42.57.111,HF_wild_card,2022.2.4,Win32,29.94280923,6458fe267afe71c7aa4de260,64d2fd46c836a06233681665,64dc7df593b2ef5a07ade390,,,,,,,ctch,resources/DY.BMP,resources/DG.BMP,Door3,0.293518575,0.035185157,1,0,0,1.4143,optionRight,70,2700,2,6,0,6,0,1,,,,,,,,,,,,,,,,,,,,,,,,,,,,,,,,,,,,,,,
,,,,,,,,2023-08-16_08h42.57.111,HF_wild_card,2022.2.4,Win32,29.94280923,6458fe267afe71c7aa4de260,64d2fd46c836a06233681665,64dc7df593b2ef5a07ade390,,,,,,,decisionTrl,resources/DBN.BMP,resources/DR.BMP,Door4,-0.291666667,0.007407379,1,0,0,1.47,optionLeft,60,2760,2,7,0,7,0,1,,,,,,,,,,,,,,,,,,,,,,,,,,,,,,,,,,,,,,,
,,,,,,,,2023-08-16_08h42.57.111,HF_wild_card,2022.2.4,Win32,29.94280923,6458fe267afe71c7aa4de260,64d2fd46c836a06233681665,64dc7df593b2ef5a07ade390,,,,,,,sngl,resources/Empty.png,resources/DP.BMP,Door1,0.273148176,0.027777778,1,0,0,0.9653,optionRight,30,2790,2,8,0,8,0,1,,,,,,,,,,,,,,,,,,,,,,,,,,,,,,,,,,,,,,,
,,,,,,,,2023-08-16_08h42.57.111,HF_wild_card,2022.2.4,Win32,29.94280923,6458fe267afe71c7aa4de260,64d2fd46c836a06233681665,64dc7df593b2ef5a07ade390,,,,,,,sngl,resources/Empty.png,resources/DG.BMP,Door3,0.30648151,0.012037023,1,0,0,0.9404,optionRight,70,2860,2,9,0,9,0,1,,,,,,,,,,,,,,,,,,,,,,,,,,,,,,,,,,,,,,,
,,,,,,,,2023-08-16_08h42.57.111,HF_wild_card,2022.2.4,Win32,29.94280923,6458fe267afe71c7aa4de260,64d2fd46c836a06233681665,64dc7df593b2ef5a07ade390,,,,,,,decisionTrl,resources/DP.BMP,resources/DY.BMP,Door2,0.327777778,0.019444444,1,0,0,1.5626,optionRight,20,2880,2,10,0,10,0,1,,,,,,,,,,,,,,,,,,,,,,,,,,,,,,,,,,,,,,,
,,,,,,,,2023-08-16_08h42.57.111,HF_wild_card,2022.2.4,Win32,29.94280923,6458fe267afe71c7aa4de260,64d2fd46c836a06233681665,64dc7df593b2ef5a07ade390,,,,,,,sngl,resources/DBN.BMP,resources/Empty.png,Door4,-0.422222222,0.026851824,1,0,0,0.9745,optionLeft,60,2940,2,11,0,11,0,1,,,,,,,,,,,,,,,,,,,,,,,,,,,,,,,,,,,,,,,
,,,,,,,,2023-08-16_08h42.57.111,HF_wild_card,2022.2.4,Win32,29.94280923,6458fe267afe71c7aa4de260,64d2fd46c836a06233681665,64dc7df593b2ef5a07ade390,,,,,,,decisionTrl,resources/DP.BMP,resources/DR.BMP,WildCard_Ex,0.311111111,0.032407379,1,0,0,1.3646,optionRight,5,2945,2,12,0,12,0,1,,,,,,,,,,,,,,,,,,,,,,,,,,,,,,,,,,,,,,,
,,,,,,,,2023-08-16_08h42.57.111,HF_wild_card,2022.2.4,Win32,29.94280923,6458fe267afe71c7aa4de260,64d2fd46c836a06233681665,64dc7df593b2ef5a07ade390,,,,,,,sngl,resources/DY.BMP,resources/Empty.png,Door2,-0.35,-0.007407422,1,0,0,0.9517,optionLeft,20,2965,2,13,0,13,0,1,,,,,,,,,,,,,,,,,,,,,,,,,,,,,,,,,,,,,,,
,,,,,,,,2023-08-16_08h42.57.111,HF_wild_card,2022.2.4,Win32,29.94280923,6458fe267afe71c7aa4de260,64d2fd46c836a06233681665,64dc7df593b2ef5a07ade390,,,,,,,decisionTrl,resources/DG.BMP,resources/DR.BMP,WildCard_Ex,0.377777778,0.016666667,1,0,0,1.7958,optionRight,5,2970,2,14,0,14,0,1,,,,,,,,,,,,,,,,,,,,,,,,,,,,,,,,,,,,,,,
,,,,,,,,2023-08-16_08h42.57.111,HF_wild_card,2022.2.4,Win32,29.94280923,6458fe267afe71c7aa4de260,64d2fd46c836a06233681665,64dc7df593b2ef5a07ade390,,,,,,,ctch,resources/DBN.BMP,resources/DP.BMP,Door4,-0.288888889,0.017592578,1,0,0,1.4919,optionLeft,80,3050,2,15,0,15,0,1,,,,,,,,,,,,,,,,,,,,,,,,,,,,,,,,,,,,,,,
,,,,,,,,2023-08-16_08h42.57.111,HF_wild_card,2022.2.4,Win32,29.94280923,6458fe267afe71c7aa4de260,64d2fd46c836a06233681665,64dc7df593b2ef5a07ade390,,,,,,,decisionTrl,resources/DP.BMP,resources/DY.BMP,Door1,-0.207407379,-0.012962977,1,0,0,2.0144,optionLeft,30,3080,2,16,0,16,0,1,,,,,,,,,,,,,,,,,,,,,,,,,,,,,,,,,,,,,,,
,,,,,,,,2023-08-16_08h42.57.111,HF_wild_card,2022.2.4,Win32,29.94280923,6458fe267afe71c7aa4de260,64d2fd46c836a06233681665,64dc7df593b2ef5a07ade390,,,,,,,decisionTrl,resources/DY.BMP,resources/DP.BMP,Door2,-0.35,-0.013888889,1,0,0,1.4762,optionLeft,40,3120,2,17,0,17,0,1,,,,,,,,,,,,,,,,,,,,,,,,,,,,,,,,,,,,,,,
,,,,,,,,2023-08-16_08h42.57.111,HF_wild_card,2022.2.4,Win32,29.94280923,6458fe267afe71c7aa4de260,64d2fd46c836a06233681665,64dc7df593b2ef5a07ade390,,,,,,,decisionTrl,resources/DP.BMP,resources/DY.BMP,Door2,0.355555556,0.050925912,1,0,0,1.0358,optionRight,20,3140,2,18,0,18,0,1,,,,,,,,,,,,,,,,,,,,,,,,,,,,,,,,,,,,,,,
,,,,,,,,2023-08-16_08h42.57.111,HF_wild_card,2022.2.4,Win32,29.94280923,6458fe267afe71c7aa4de260,64d2fd46c836a06233681665,64dc7df593b2ef5a07ade390,,,,,,,decisionTrl,resources/DBN.BMP,resources/DG.BMP,Door4,-0.287962935,0.007407379,1,0,0,1.003,optionLeft,80,3220,2,19,0,19,0,1,,,,,,,,,,,,,,,,,,,,,,,,,,,,,,,,,,,,,,,
,,,,,,,,2023-08-16_08h42.57.111,HF_wild_card,2022.2.4,Win32,29.94280923,6458fe267afe71c7aa4de260,64d2fd46c836a06233681665,64dc7df593b2ef5a07ade390,,,,,,,ctch,resources/DP.BMP,resources/DBN.BMP,Door4,0.392592621,0.055555556,1,0,0,0.9634,optionRight,80,3300,2,20,0,20,0,1,,,,,,,,,,,,,,,,,,,,,,,,,,,,,,,,,,,,,,,
,,,,,,,,2023-08-16_08h42.57.111,HF_wild_card,2022.2.4,Win32,29.94280923,6458fe267afe71c7aa4de260,64d2fd46c836a06233681665,64dc7df593b2ef5a07ade390,,,,,,,sngl,resources/DR.BMP,resources/Empty.png,WildCard_Ex,-0.244444444,-0.008333333,1,0,0,0.901,optionLeft,5,3305,2,21,0,21,0,1,,,,,,,,,,,,,,,,,,,,,,,,,,,,,,,,,,,,,,,
,,,,,,,,2023-08-16_08h42.57.111,HF_wild_card,2022.2.4,Win32,29.94280923,6458fe267afe71c7aa4de260,64d2fd46c836a06233681665,64dc7df593b2ef5a07ade390,,,,,,,decisionTrl,resources/DR.BMP,resources/DG.BMP,Door3,0.294444444,0.031481467,1,0,0,0.9977,optionRight,70,3375,2,22,0,22,0,1,,,,,,,,,,,,,,,,,,,,,,,,,,,,,,,,,,,,,,,
,,,,,,,,2023-08-16_08h42.57.111,HF_wild_card,2022.2.4,Win32,29.94280923,6458fe267afe71c7aa4de260,64d2fd46c836a06233681665,64dc7df593b2ef5a07ade390,,,,,,,ctch,resources/DG.BMP,resources/DY.BMP,Door2,0.286111111,0.017592578,1,0,0,1.6474,optionRight,20,3395,2,23,0,23,0,1,,,,,,,,,,,,,,,,,,,,,,,,,,,,,,,,,,,,,,,
,,,,,,,,2023-08-16_08h42.57.111,HF_wild_card,2022.2.4,Win32,29.94280923,6458fe267afe71c7aa4de260,64d2fd46c836a06233681665,64dc7df593b2ef5a07ade390,,,,,,,sngl,resources/Empty.png,resources/DY.BMP,Door2,0.319444444,0.027777778,1,0,0,0.8981,optionRight,40,3435,2,24,0,24,0,1,,,,,,,,,,,,,,,,,,,,,,,,,,,,,,,,,,,,,,,
,,,,,,,,2023-08-16_08h42.57.111,HF_wild_card,2022.2.4,Win32,29.94280923,6458fe267afe71c7aa4de260,64d2fd46c836a06233681665,64dc7df593b2ef5a07ade390,,,,,,,decisionTrl,resources/DG.BMP,resources/DBN.BMP,Door4,0.344444444,0.06851849,1,0,0,1.2298,optionRight,60,3495,2,25,0,25,0,1,,,,,,,,,,,,,,,,,,,,,,,,,,,,,,,,,,,,,,,
,,,,,,,,2023-08-16_08h42.57.111,HF_wild_card,2022.2.4,Win32,29.94280923,6458fe267afe71c7aa4de260,64d2fd46c836a06233681665,64dc7df593b2ef5a07ade390,,,,,,,decisionTrl,resources/DR.BMP,resources/DP.BMP,Door1,0.191666667,-0.02129631,1,0,0,2.3018,optionRight,30,3525,2,26,0,26,0,1,,,,,,,,,,,,,,,,,,,,,,,,,,,,,,,,,,,,,,,
,,,,,,,,2023-08-16_08h42.57.111,HF_wild_card,2022.2.4,Win32,29.94280923,6458fe267afe71c7aa4de260,64d2fd46c836a06233681665,64dc7df593b2ef5a07ade390,,,,,,,ctch,resources/DG.BMP,resources/DY.BMP,Door2,0.354629686,0.050925912,1,0,0,2.4758,optionRight,20,3545,2,27,0,27,0,1,,,,,,,,,,,,,,,,,,,,,,,,,,,,,,,,,,,,,,,
,,,,,,,,2023-08-16_08h42.57.111,HF_wild_card,2022.2.4,Win32,29.94280923,6458fe267afe71c7aa4de260,64d2fd46c836a06233681665,64dc7df593b2ef5a07ade390,,,,,,,decisionTrl,resources/DBN.BMP,resources/DG.BMP,Door4,-0.263888889,-0.002777778,1,0,0,0.976,optionLeft,80,3625,2,28,0,28,0,1,,,,,,,,,,,,,,,,,,,,,,,,,,,,,,,,,,,,,,,
,,,,,,,,2023-08-16_08h42.57.111,HF_wild_card,2022.2.4,Win32,29.94280923,6458fe267afe71c7aa4de260,64d2fd46c836a06233681665,64dc7df593b2ef5a07ade390,,,,,,,sngl,resources/DR.BMP,resources/Empty.png,WildCard_Ex,-0.235185157,0,1,0,0,0.9643,optionLeft,95,3720,2,29,0,29,0,1,,,,,,,,,,,,,,,,,,,,,,,,,,,,,,,,,,,,,,,
,,,,,,,,2023-08-16_08h42.57.111,HF_wild_card,2022.2.4,Win32,29.94280923,6458fe267afe71c7aa4de260,64d2fd46c836a06233681665,64dc7df593b2ef5a07ade390,,,,,,,sngl,resources/Empty.png,resources/DR.BMP,WildCard_Ex,0.280555556,0.027777778,1,0,0,0.9954,optionRight,5,3725,2,30,0,30,0,1,,,,,,,,,,,,,,,,,,,,,,,,,,,,,,,,,,,,,,,
,,,,,,,,2023-08-16_08h42.57.111,HF_wild_card,2022.2.4,Win32,29.94280923,6458fe267afe71c7aa4de260,64d2fd46c836a06233681665,64dc7df593b2ef5a07ade390,,,,,,,ctch,resources/DBN.BMP,resources/DP.BMP,Door4,-0.341666667,0.032407379,1,0,0,1.2932,optionLeft,60,3785,2,31,0,31,0,1,,,,,,,,,,,,,,,,,,,,,,,,,,,,,,,,,,,,,,,
,,,,,,,,2023-08-16_08h42.57.111,HF_wild_card,2022.2.4,Win32,29.94280923,6458fe267afe71c7aa4de260,64d2fd46c836a06233681665,64dc7df593b2ef5a07ade390,,,,,,,decisionTrl,resources/DY.BMP,resources/DP.BMP,Door1,0.301851908,0.015740712,1,0,0,1.9269,optionRight,30,3815,2,32,0,32,0,1,,,,,,,,,,,,,,,,,,,,,,,,,,,,,,,,,,,,,,,
,,,,,,,,2023-08-16_08h42.57.111,HF_wild_card,2022.2.4,Win32,29.94280923,6458fe267afe71c7aa4de260,64d2fd46c836a06233681665,64dc7df593b2ef5a07ade390,,,,,,,ctch,resources/DY.BMP,resources/DG.BMP,Door3,0.35,0.040740712,1,0,0,1.2925,optionRight,70,3885,2,33,0,33,0,1,,,,,,,,,,,,,,,,,,,,,,,,,,,,,,,,,,,,,,,
,,,,,,,,2023-08-16_08h42.57.111,HF_wild_card,2022.2.4,Win32,29.94280923,6458fe267afe71c7aa4de260,64d2fd46c836a06233681665,64dc7df593b2ef5a07ade390,,,,,,,decisionTrl,resources/DY.BMP,resources/DP.BMP,Door1,0.312963019,0.039814801,1,0,0,1.2187,optionRight,30,3915,2,34,0,34,0,1,,,,,,,,,,,,,,,,,,,,,,,,,,,,,,,,,,,,,,,
,,,,,,,,2023-08-16_08h42.57.111,HF_wild_card,2022.2.4,Win32,29.94280923,6458fe267afe71c7aa4de260,64d2fd46c836a06233681665,64dc7df593b2ef5a07ade390,,,,,,,decisionTrl,resources/DY.BMP,resources/DR.BMP,Door2,-0.281481467,0.002777778,1,0,0,1.4064,optionLeft,40,3955,2,35,0,35,0,1,,,,,,,,,,,,,,,,,,,,,,,,,,,,,,,,,,,,,,,
,,,,,,,,2023-08-16_08h42.57.111,HF_wild_card,2022.2.4,Win32,29.94280923,6458fe267afe71c7aa4de260,64d2fd46c836a06233681665,64dc7df593b2ef5a07ade390,,,,,,,sngl,resources/Empty.png,resources/DR.BMP,WildCard_Ex,0.367592621,0.036111111,1,0,0,0.9117,optionRight,95,4050,2,36,0,36,0,1,,,,,,,,,,,,,,,,,,,,,,,,,,,,,,,,,,,,,,,
,,,,,,,,2023-08-16_08h42.57.111,HF_wild_card,2022.2.4,Win32,29.94280923,6458fe267afe71c7aa4de260,64d2fd46c836a06233681665,64dc7df593b2ef5a07ade390,,,,,,,decisionTrl,resources/DR.BMP,resources/DY.BMP,WildCard_Ex,-0.273148134,-0.004629644,1,0,0,0.9332,optionLeft,95,4145,2,37,0,37,0,1,,,,,,,,,,,,,,,,,,,,,,,,,,,,,,,,,,,,,,,
,,,,,,,,2023-08-16_08h42.57.111,HF_wild_card,2022.2.4,Win32,29.94280923,6458fe267afe71c7aa4de260,64d2fd46c836a06233681665,64dc7df593b2ef5a07ade390,,,,,,,decisionTrl,resources/DG.BMP,resources/DBN.BMP,Door4,0.273148176,0.042592578,1,0,0,0.9854,optionRight,60,4205,2,38,0,38,0,1,,,,,,,,,,,,,,,,,,,,,,,,,,,,,,,,,,,,,,,
,,,,,,,,2023-08-16_08h42.57.111,HF_wild_card,2022.2.4,Win32,29.94280923,6458fe267afe71c7aa4de260,64d2fd46c836a06233681665,64dc7df593b2ef5a07ade390,,,,,,,decisionTrl,resources/DP.BMP,resources/DY.BMP,Door2,0.217592621,0.01851849,1,0,0,1.6752,optionRight,20,4225,2,39,0,39,0,1,,,,,,,,,,,,,,,,,,,,,,,,,,,,,,,,,,,,,,,
,,,,,,,,2023-08-16_08h42.57.111,HF_wild_card,2022.2.4,Win32,29.94280923,6458fe267afe71c7aa4de260,64d2fd46c836a06233681665,64dc7df593b2ef5a07ade390,,,,,,,sngl,resources/DP.BMP,resources/Empty.png,Door1,-0.265740712,-0.023148176,1,0,0,0.8695,optionLeft,30,4255,2,40,0,40,0,1,,,,,,,,,,,,,,,,,,,,,,,,,,,,,,,,,,,,,,,
,,,,,,,,2023-08-16_08h42.57.111,HF_wild_card,2022.2.4,Win32,29.94280923,6458fe267afe71c7aa4de260,64d2fd46c836a06233681665,64dc7df593b2ef5a07ade390,,,,,,,sngl,resources/DG.BMP,resources/Empty.png,Door3,-0.276851824,0,1,0,0,0.9474,optionLeft,70,4325,2,41,0,41,0,1,,,,,,,,,,,,,,,,,,,,,,,,,,,,,,,,,,,,,,,
,,,,,,,,2023-08-16_08h42.57.111,HF_wild_card,2022.2.4,Win32,29.94280923,6458fe267afe71c7aa4de260,64d2fd46c836a06233681665,64dc7df593b2ef5a07ade390,,,,,,,decisionTrl,resources/DBN.BMP,resources/DG.BMP,Door3,0.371296353,0.025925912,1,0,0,1.1747,optionRight,70,4395,2,42,0,42,0,1,,,,,,,,,,,,,,,,,,,,,,,,,,,,,,,,,,,,,,,
,,,,,,,,2023-08-16_08h42.57.111,HF_wild_card,2022.2.4,Win32,29.94280923,6458fe267afe71c7aa4de260,64d2fd46c836a06233681665,64dc7df593b2ef5a07ade390,,,,,,,decisionTrl,resources/DG.BMP,resources/DBN.BMP,Door3,-0.250925912,-0.011111111,1,0,0,1.1169,optionLeft,70,4465,2,43,0,43,0,1,,,,,,,,,,,,,,,,,,,,,,,,,,,,,,,,,,,,,,,
,,,,,,,,2023-08-16_08h42.57.111,HF_wild_card,2022.2.4,Win32,29.94280923,6458fe267afe71c7aa4de260,64d2fd46c836a06233681665,64dc7df593b2ef5a07ade390,,,,,,,,,,,,,,,,,,,,,,,,,,1,0,1,0,1,,,,,,,,,,,,,,,,,,,,,,,,,,,,,,,,,,
,,,,,,,,2023-08-16_08h42.57.111,HF_wild_card,2022.2.4,Win32,29.94280923,6458fe267afe71c7aa4de260,64d2fd46c836a06233681665,64dc7df593b2ef5a07ade390,,,,,,,decisionTrl,resources/DG.BMP,resources/DR.BMP,Door3,-0.261111111,-0.066666667,1,0,0,1.0956,optionLeft,70,4535,3,0,0,0,0,1,,,,,,,,,,,,,,,,,,,,,,,,,,,,,,,,,,,,,,,
,,,,,,,,2023-08-16_08h42.57.111,HF_wild_card,2022.2.4,Win32,29.94280923,6458fe267afe71c7aa4de260,64d2fd46c836a06233681665,64dc7df593b2ef5a07ade390,,,,,,,decisionTrl,resources/DP.BMP,resources/DR.BMP,Door1,-0.277777778,-0.019444444,1,0,0,1.6975,optionLeft,30,4565,3,1,0,1,0,1,,,,,,,,,,,,,,,,,,,,,,,,,,,,,,,,,,,,,,,
,,,,,,,,2023-08-16_08h42.57.111,HF_wild_card,2022.2.4,Win32,29.94280923,6458fe267afe71c7aa4de260,64d2fd46c836a06233681665,64dc7df593b2ef5a07ade390,,,,,,,sngl,resources/DP.BMP,resources/Empty.png,Door1,-0.213888889,0.00370369,1,0,0,0.8456,optionLeft,30,4595,3,2,0,2,0,1,,,,,,,,,,,,,,,,,,,,,,,,,,,,,,,,,,,,,,,
,,,,,,,,2023-08-16_08h42.57.111,HF_wild_card,2022.2.4,Win32,29.94280923,6458fe267afe71c7aa4de260,64d2fd46c836a06233681665,64dc7df593b2ef5a07ade390,,,,,,,ctch,resources/DP.BMP,resources/DBN.BMP,Door4,0.287037065,0.04351849,1,0,0,1.0916,optionRight,80,4675,3,3,0,3,0,1,,,,,,,,,,,,,,,,,,,,,,,,,,,,,,,,,,,,,,,
,,,,,,,,2023-08-16_08h42.57.111,HF_wild_card,2022.2.4,Win32,29.94280923,6458fe267afe71c7aa4de260,64d2fd46c836a06233681665,64dc7df593b2ef5a07ade390,,,,,,,decisionTrl,resources/DBN.BMP,resources/DR.BMP,Door4,-0.314814801,0.020370356,1,0,0,1.0925,optionLeft,80,4755,3,4,0,4,0,1,,,,,,,,,,,,,,,,,,,,,,,,,,,,,,,,,,,,,,,
,,,,,,,,2023-08-16_08h42.57.111,HF_wild_card,2022.2.4,Win32,29.94280923,6458fe267afe71c7aa4de260,64d2fd46c836a06233681665,64dc7df593b2ef5a07ade390,,,,,,,decisionTrl,resources/DG.BMP,resources/DBN.BMP,Door4,0.323148176,0.052777778,1,0,0,0.9389,optionRight,60,4815,3,5,0,5,0,1,,,,,,,,,,,,,,,,,,,,,,,,,,,,,,,,,,,,,,,
,,,,,,,,2023-08-16_08h42.57.111,HF_wild_card,2022.2.4,Win32,29.94280923,6458fe267afe71c7aa4de260,64d2fd46c836a06233681665,64dc7df593b2ef5a07ade390,,,,,,,ctch,resources/DY.BMP,resources/DG.BMP,Door2,-0.282407379,-0.016666667,1,0,0,3.1233,optionLeft,20,4835,3,6,0,6,0,1,,,,,,,,,,,,,,,,,,,,,,,,,,,,,,,,,,,,,,,
,,,,,,,,2023-08-16_08h42.57.111,HF_wild_card,2022.2.4,Win32,29.94280923,6458fe267afe71c7aa4de260,64d2fd46c836a06233681665,64dc7df593b2ef5a07ade390,,,,,,,ctch,resources/DY.BMP,resources/DG.BMP,Door3,0.316666667,0.022222222,1,0,0,1.4629,optionRight,70,4905,3,7,0,7,0,1,,,,,,,,,,,,,,,,,,,,,,,,,,,,,,,,,,,,,,,
,,,,,,,,2023-08-16_08h42.57.111,HF_wild_card,2022.2.4,Win32,29.94280923,6458fe267afe71c7aa4de260,64d2fd46c836a06233681665,64dc7df593b2ef5a07ade390,,,,,,,ctch,resources/DP.BMP,resources/DBN.BMP,Door4,0.287963019,0.042592578,1,0,0,1.2678,optionRight,60,4965,3,8,0,8,0,1,,,,,,,,,,,,,,,,,,,,,,,,,,,,,,,,,,,,,,,
,,,,,,,,2023-08-16_08h42.57.111,HF_wild_card,2022.2.4,Win32,29.94280923,6458fe267afe71c7aa4de260,64d2fd46c836a06233681665,64dc7df593b2ef5a07ade390,,,,,,,sngl,resources/DG.BMP,resources/Empty.png,Door3,-0.317592578,-0.037962977,1,0,0,0.9634,optionLeft,70,5035,3,9,0,9,0,1,,,,,,,,,,,,,,,,,,,,,,,,,,,,,,,,,,,,,,,
,,,,,,,,2023-08-16_08h42.57.111,HF_wild_card,2022.2.4,Win32,29.94280923,6458fe267afe71c7aa4de260,64d2fd46c836a06233681665,64dc7df593b2ef5a07ade390,,,,,,,sngl,resources/DBN.BMP,resources/Empty.png,Door4,-0.207407379,0.006481467,1,0,0,0.9359,optionLeft,80,5115,3,10,0,10,0,1,,,,,,,,,,,,,,,,,,,,,,,,,,,,,,,,,,,,,,,
,,,,,,,,2023-08-16_08h42.57.111,HF_wild_card,2022.2.4,Win32,29.94280923,6458fe267afe71c7aa4de260,64d2fd46c836a06233681665,64dc7df593b2ef5a07ade390,,,,,,,decisionTrl,resources/DBN.BMP,resources/DG.BMP,Door4,-0.327777778,0.025,1,0,0,1.3272,optionLeft,80,5195,3,11,0,11,0,1,,,,,,,,,,,,,,,,,,,,,,,,,,,,,,,,,,,,,,,
,,,,,,,,2023-08-16_08h42.57.111,HF_wild_card,2022.2.4,Win32,29.94280923,6458fe267afe71c7aa4de260,64d2fd46c836a06233681665,64dc7df593b2ef5a07ade390,,,,,,,decisionTrl,resources/DG.BMP,resources/DBN.BMP,Door4,0.405555556,0.044444444,1,0,0,0.8994,optionRight,60,5255,3,12,0,12,0,1,,,,,,,,,,,,,,,,,,,,,,,,,,,,,,,,,,,,,,,
,,,,,,,,2023-08-16_08h42.57.111,HF_wild_card,2022.2.4,Win32,29.94280923,6458fe267afe71c7aa4de260,64d2fd46c836a06233681665,64dc7df593b2ef5a07ade390,,,,,,,ctch,resources/DG.BMP,resources/DY.BMP,Door3,-0.245370356,0.006481467,1,0,0,1.563,optionLeft,70,5325,3,13,0,13,0,1,,,,,,,,,,,,,,,,,,,,,,,,,,,,,,,,,,,,,,,
,,,,,,,,2023-08-16_08h42.57.111,HF_wild_card,2022.2.4,Win32,29.94280923,6458fe267afe71c7aa4de260,64d2fd46c836a06233681665,64dc7df593b2ef5a07ade390,,,,,,,decisionTrl,resources/DY.BMP,resources/DP.BMP,Door2,-0.330555556,-0.00648151,1,0,0,1.5507,optionLeft,20,5345,3,14,0,14,0,1,,,,,,,,,,,,,,,,,,,,,,,,,,,,,,,,,,,,,,,
,,,,,,,,2023-08-16_08h42.57.111,HF_wild_card,2022.2.4,Win32,29.94280923,6458fe267afe71c7aa4de260,64d2fd46c836a06233681665,64dc7df593b2ef5a07ade390,,,,,,,decisionTrl,resources/DR.BMP,resources/DP.BMP,Door1,0.240740797,0.021296268,1,0,0,1.6345,optionRight,30,5375,3,15,0,15,0,1,,,,,,,,,,,,,,,,,,,,,,,,,,,,,,,,,,,,,,,
,,,,,,,,2023-08-16_08h42.57.111,HF_wild_card,2022.2.4,Win32,29.94280923,6458fe267afe71c7aa4de260,64d2fd46c836a06233681665,64dc7df593b2ef5a07ade390,,,,,,,decisionTrl,resources/DP.BMP,resources/DY.BMP,Door1,-0.308333333,-0.028703732,1,0,0,1.682,optionLeft,30,5405,3,16,0,16,0,1,,,,,,,,,,,,,,,,,,,,,,,,,,,,,,,,,,,,,,,
,,,,,,,,2023-08-16_08h42.57.111,HF_wild_card,2022.2.4,Win32,29.94280923,6458fe267afe71c7aa4de260,64d2fd46c836a06233681665,64dc7df593b2ef5a07ade390,,,,,,,ctch,resources/DBN.BMP,resources/DP.BMP,Door4,-0.240740712,0.000925912,1,0,0,1.3348,optionLeft,80,5485,3,17,0,17,0,1,,,,,,,,,,,,,,,,,,,,,,,,,,,,,,,,,,,,,,,
,,,,,,,,2023-08-16_08h42.57.111,HF_wild_card,2022.2.4,Win32,29.94280923,6458fe267afe71c7aa4de260,64d2fd46c836a06233681665,64dc7df593b2ef5a07ade390,,,,,,,sngl,resources/DR.BMP,resources/Empty.png,WildCard_Ex,-0.265740712,-0.017592621,1,0,0,0.9058,optionLeft,95,5580,3,18,0,18,0,1,,,,,,,,,,,,,,,,,,,,,,,,,,,,,,,,,,,,,,,
,,,,,,,,2023-08-16_08h42.57.111,HF_wild_card,2022.2.4,Win32,29.94280923,6458fe267afe71c7aa4de260,64d2fd46c836a06233681665,64dc7df593b2ef5a07ade390,,,,,,,decisionTrl,resources/DR.BMP,resources/DG.BMP,WildCard_Ex,-0.339814801,-0.037962977,1,0,0,0.8448,optionLeft,5,5585,3,19,0,19,0,1,,,,,,,,,,,,,,,,,,,,,,,,,,,,,,,,,,,,,,,
,,,,,,,,2023-08-16_08h42.57.111,HF_wild_card,2022.2.4,Win32,29.94280923,6458fe267afe71c7aa4de260,64d2fd46c836a06233681665,64dc7df593b2ef5a07ade390,,,,,,,decisionTrl,resources/DG.BMP,resources/DBN.BMP,Door4,0.332407464,0.01851849,1,0,0,1.7707,optionRight,60,5645,3,20,0,20,0,1,,,,,,,,,,,,,,,,,,,,,,,,,,,,,,,,,,,,,,,
,,,,,,,,2023-08-16_08h42.57.111,HF_wild_card,2022.2.4,Win32,29.94280923,6458fe267afe71c7aa4de260,64d2fd46c836a06233681665,64dc7df593b2ef5a07ade390,,,,,,,decisionTrl,resources/DBN.BMP,resources/DG.BMP,Door4,-0.356481467,-0.025925954,1,0,0,1.2861,optionLeft,80,5725,3,21,0,21,0,1,,,,,,,,,,,,,,,,,,,,,,,,,,,,,,,,,,,,,,,
,,,,,,,,2023-08-16_08h42.57.111,HF_wild_card,2022.2.4,Win32,29.94280923,6458fe267afe71c7aa4de260,64d2fd46c836a06233681665,64dc7df593b2ef5a07ade390,,,,,,,sngl,resources/Empty.png,resources/DG.BMP,Door3,0.297222222,0.025,1,0,0,0.9212,optionRight,70,5795,3,22,0,22,0,1,,,,,,,,,,,,,,,,,,,,,,,,,,,,,,,,,,,,,,,
,,,,,,,,2023-08-16_08h42.57.111,HF_wild_card,2022.2.4,Win32,29.94280923,6458fe267afe71c7aa4de260,64d2fd46c836a06233681665,64dc7df593b2ef5a07ade390,,,,,,,sngl,resources/Empty.png,resources/DBN.BMP,Door4,0.439814843,0.087037023,1,0,0,0.906,optionRight,60,5855,3,23,0,23,0,1,,,,,,,,,,,,,,,,,,,,,,,,,,,,,,,,,,,,,,,
,,,,,,,,2023-08-16_08h42.57.111,HF_wild_card,2022.2.4,Win32,29.94280923,6458fe267afe71c7aa4de260,64d2fd46c836a06233681665,64dc7df593b2ef5a07ade390,,,,,,,sngl,resources/DY.BMP,resources/Empty.png,Door2,-0.271296268,-0.010185199,1,0,0,0.8856,optionLeft,40,5895,3,24,0,24,0,1,,,,,,,,,,,,,,,,,,,,,,,,,,,,,,,,,,,,,,,
,,,,,,,,2023-08-16_08h42.57.111,HF_wild_card,2022.2.4,Win32,29.94280923,6458fe267afe71c7aa4de260,64d2fd46c836a06233681665,64dc7df593b2ef5a07ade390,,,,,,,decisionTrl,resources/DR.BMP,resources/DY.BMP,Door2,0.395370399,0.038888889,1,0,0,1.3922,optionRight,20,5915,3,25,0,25,0,1,,,,,,,,,,,,,,,,,,,,,,,,,,,,,,,,,,,,,,,
,,,,,,,,2023-08-16_08h42.57.111,HF_wild_card,2022.2.4,Win32,29.94280923,6458fe267afe71c7aa4de260,64d2fd46c836a06233681665,64dc7df593b2ef5a07ade390,,,,,,,sngl,resources/Empty.png,resources/DR.BMP,WildCard_Ex,0.227777778,0.010185157,1,0,0,0.93,optionRight,5,5920,3,26,0,26,0,1,,,,,,,,,,,,,,,,,,,,,,,,,,,,,,,,,,,,,,,
,,,,,,,,2023-08-16_08h42.57.111,HF_wild_card,2022.2.4,Win32,29.94280923,6458fe267afe71c7aa4de260,64d2fd46c836a06233681665,64dc7df593b2ef5a07ade390,,,,,,,sngl,resources/Empty.png,resources/DP.BMP,Door1,0.275,0.010185157,1,0,0,1.0194,optionRight,30,5950,3,27,0,27,0,1,,,,,,,,,,,,,,,,,,,,,,,,,,,,,,,,,,,,,,,
,,,,,,,,2023-08-16_08h42.57.111,HF_wild_card,2022.2.4,Win32,29.94280923,6458fe267afe71c7aa4de260,64d2fd46c836a06233681665,64dc7df593b2ef5a07ade390,,,,,,,decisionTrl,resources/DP.BMP,resources/DY.BMP,Door2,0.437037065,0.085185157,1,0,0,1.9178,optionRight,40,5990,3,28,0,28,0,1,,,,,,,,,,,,,,,,,,,,,,,,,,,,,,,,,,,,,,,
,,,,,,,,2023-08-16_08h42.57.111,HF_wild_card,2022.2.4,Win32,29.94280923,6458fe267afe71c7aa4de260,64d2fd46c836a06233681665,64dc7df593b2ef5a07ade390,,,,,,,decisionTrl,resources/DY.BMP,resources/DP.BMP,Door1,0.325,0.012962935,1,0,0,2.0417,optionRight,30,6020,3,29,0,29,0,1,,,,,,,,,,,,,,,,,,,,,,,,,,,,,,,,,,,,,,,
,,,,,,,,2023-08-16_08h42.57.111,HF_wild_card,2022.2.4,Win32,29.94280923,6458fe267afe71c7aa4de260,64d2fd46c836a06233681665,64dc7df593b2ef5a07ade390,,,,,,,decisionTrl,resources/DBN.BMP,resources/DG.BMP,Door4,-0.237037023,0.059259245,1,0,0,2.2638,optionLeft,60,6080,3,30,0,30,0,1,,,,,,,,,,,,,,,,,,,,,,,,,,,,,,,,,,,,,,,
,,,,,,,,2023-08-16_08h42.57.111,HF_wild_card,2022.2.4,Win32,29.94280923,6458fe267afe71c7aa4de260,64d2fd46c836a06233681665,64dc7df593b2ef5a07ade390,,,,,,,decisionTrl,resources/DY.BMP,resources/DP.BMP,Door2,-0.205555556,-0.010185199,1,0,0,2.6393,optionLeft,20,6100,3,31,0,31,0,1,,,,,,,,,,,,,,,,,,,,,,,,,,,,,,,,,,,,,,,
,,,,,,,,2023-08-16_08h42.57.111,HF_wild_card,2022.2.4,Win32,29.94280923,6458fe267afe71c7aa4de260,64d2fd46c836a06233681665,64dc7df593b2ef5a07ade390,,,,,,,sngl,resources/Empty.png,resources/DY.BMP,Door2,0.285185242,0.012037023,1,0,0,0.8679,optionRight,20,6120,3,32,0,32,0,1,,,,,,,,,,,,,,,,,,,,,,,,,,,,,,,,,,,,,,,
,,,,,,,,2023-08-16_08h42.57.111,HF_wild_card,2022.2.4,Win32,29.94280923,6458fe267afe71c7aa4de260,64d2fd46c836a06233681665,64dc7df593b2ef5a07ade390,,,,,,,decisionTrl,resources/DR.BMP,resources/DBN.BMP,Door4,0.375,0.084259245,1,0,0,1.1841,optionRight,80,6200,3,33,0,33,0,1,,,,,,,,,,,,,,,,,,,,,,,,,,,,,,,,,,,,,,,
,,,,,,,,2023-08-16_08h42.57.111,HF_wild_card,2022.2.4,Win32,29.94280923,6458fe267afe71c7aa4de260,64d2fd46c836a06233681665,64dc7df593b2ef5a07ade390,,,,,,,decisionTrl,resources/DY.BMP,resources/DP.BMP,Door1,0.300925954,0.04351849,1,0,0,1.7965,optionRight,30,6230,3,34,0,34,0,1,,,,,,,,,,,,,,,,,,,,,,,,,,,,,,,,,,,,,,,
,,,,,,,,2023-08-16_08h42.57.111,HF_wild_card,2022.2.4,Win32,29.94280923,6458fe267afe71c7aa4de260,64d2fd46c836a06233681665,64dc7df593b2ef5a07ade390,,,,,,,decisionTrl,resources/DP.BMP,resources/DY.BMP,Door1,-0.260185157,-0.016666667,1,0,0,1.8111,optionLeft,30,6260,3,35,0,35,0,1,,,,,,,,,,,,,,,,,,,,,,,,,,,,,,,,,,,,,,,
,,,,,,,,2023-08-16_08h42.57.111,HF_wild_card,2022.2.4,Win32,29.94280923,6458fe267afe71c7aa4de260,64d2fd46c836a06233681665,64dc7df593b2ef5a07ade390,,,,,,,sngl,resources/Empty.png,resources/DR.BMP,WildCard_Ex,0.308333333,0.023148134,1,0,0,0.9807,optionRight,95,6355,3,36,0,36,0,1,,,,,,,,,,,,,,,,,,,,,,,,,,,,,,,,,,,,,,,
,,,,,,,,2023-08-16_08h42.57.111,HF_wild_card,2022.2.4,Win32,29.94280923,6458fe267afe71c7aa4de260,64d2fd46c836a06233681665,64dc7df593b2ef5a07ade390,,,,,,,ctch,resources/DBN.BMP,resources/DP.BMP,Door4,-0.282407379,0.041666667,1,0,0,1.7579,optionLeft,60,6415,3,37,0,37,0,1,,,,,,,,,,,,,,,,,,,,,,,,,,,,,,,,,,,,,,,
,,,,,,,,2023-08-16_08h42.57.111,HF_wild_card,2022.2.4,Win32,29.94280923,6458fe267afe71c7aa4de260,64d2fd46c836a06233681665,64dc7df593b2ef5a07ade390,,,,,,,decisionTrl,resources/DG.BMP,resources/DBN.BMP,Door4,0.325925954,0.059259245,1,0,0,1.3796,optionRight,80,6495,3,38,0,38,0,1,,,,,,,,,,,,,,,,,,,,,,,,,,,,,,,,,,,,,,,
,,,,,,,,2023-08-16_08h42.57.111,HF_wild_card,2022.2.4,Win32,29.94280923,6458fe267afe71c7aa4de260,64d2fd46c836a06233681665,64dc7df593b2ef5a07ade390,,,,,,,decisionTrl,resources/DBN.BMP,resources/DG.BMP,Door4,-0.239814801,0.030555556,1,0,0,1.366,optionLeft,80,6575,3,39,0,39,0,1,,,,,,,,,,,,,,,,,,,,,,,,,,,,,,,,,,,,,,,
,,,,,,,,2023-08-16_08h42.57.111,HF_wild_card,2022.2.4,Win32,29.94280923,6458fe267afe71c7aa4de260,64d2fd46c836a06233681665,64dc7df593b2ef5a07ade390,,,,,,,ctch,resources/DG.BMP,resources/DY.BMP,Door2,0.271296353,0.049074046,1,0,0,2.0705,optionRight,20,6595,3,40,0,40,0,1,,,,,,,,,,,,,,,,,,,,,,,,,,,,,,,,,,,,,,,
,,,,,,,,2023-08-16_08h42.57.111,HF_wild_card,2022.2.4,Win32,29.94280923,6458fe267afe71c7aa4de260,64d2fd46c836a06233681665,64dc7df593b2ef5a07ade390,,,,,,,sngl,resources/DR.BMP,resources/Empty.png,WildCard_Ex,-0.20370369,-0.017592621,1,0,0,0.9418,optionLeft,5,6600,3,41,0,41,0,1,,,,,,,,,,,,,,,,,,,,,,,,,,,,,,,,,,,,,,,
,,,,,,,,2023-08-16_08h42.57.111,HF_wild_card,2022.2.4,Win32,29.94280923,6458fe267afe71c7aa4de260,64d2fd46c836a06233681665,64dc7df593b2ef5a07ade390,,,,,,,decisionTrl,resources/DP.BMP,resources/DY.BMP,Door2,0.253703732,-0.00648151,1,0,0,2.3784,optionRight,40,6640,3,42,0,42,0,1,,,,,,,,,,,,,,,,,,,,,,,,,,,,,,,,,,,,,,,
,,,,,,,,2023-08-16_08h42.57.111,HF_wild_card,2022.2.4,Win32,29.94280923,6458fe267afe71c7aa4de260,64d2fd46c836a06233681665,64dc7df593b2ef5a07ade390,,,,,,,decisionTrl,resources/DY.BMP,resources/DR.BMP,WildCard_Ex,0.321296353,0.034259245,1,0,0,1.1084,optionRight,5,6645,3,43,0,43,0,1,,,,,,,,,,,,,,,,,,,,,,,,,,,,,,,,,,,,,,,
,,,,,,,,2023-08-16_08h42.57.111,HF_wild_card,2022.2.4,Win32,29.94280923,6458fe267afe71c7aa4de260,64d2fd46c836a06233681665,64dc7df593b2ef5a07ade390,,,,,,,,,,,,,,,,,,,,,,,,,,2,0,2,0,1,,,,,,,,,,,,,,,,,,,,,,,,,,,,,,,,,,
,,,,,,,,2023-08-16_08h42.57.111,HF_wild_card,2022.2.4,Win32,29.94280923,6458fe267afe71c7aa4de260,64d2fd46c836a06233681665,64dc7df593b2ef5a07ade390,,,,,,,ctch,resources/DG.BMP,resources/DY.BMP,Door2,0.345370399,-0.074074088,1,0,0,2.3213,optionRight,40,6685,4,0,0,0,0,1,,,,,,,,,,,,,,,,,,,,,,,,,,,,,,,,,,,,,,,
,,,,,,,,2023-08-16_08h42.57.111,HF_wild_card,2022.2.4,Win32,29.94280923,6458fe267afe71c7aa4de260,64d2fd46c836a06233681665,64dc7df593b2ef5a07ade390,,,,,,,decisionTrl,resources/DG.BMP,resources/DBN.BMP,Door4,0.313888889,0.061111111,1,0,0,1.4783,optionRight,80,6765,4,1,0,1,0,1,,,,,,,,,,,,,,,,,,,,,,,,,,,,,,,,,,,,,,,
,,,,,,,,2023-08-16_08h42.57.111,HF_wild_card,2022.2.4,Win32,29.94280923,6458fe267afe71c7aa4de260,64d2fd46c836a06233681665,64dc7df593b2ef5a07ade390,,,,,,,ctch,resources/DY.BMP,resources/DG.BMP,Door3,0.257407464,0.019444444,1,0,0,1.7612,optionRight,70,6835,4,2,0,2,0,1,,,,,,,,,,,,,,,,,,,,,,,,,,,,,,,,,,,,,,,
,,,,,,,,2023-08-16_08h42.57.111,HF_wild_card,2022.2.4,Win32,29.94280923,6458fe267afe71c7aa4de260,64d2fd46c836a06233681665,64dc7df593b2ef5a07ade390,,,,,,,decisionTrl,resources/DG.BMP,resources/DBN.BMP,Door3,-0.256481467,-0.025,1,0,0,0.942,optionLeft,70,6905,4,3,0,3,0,1,,,,,,,,,,,,,,,,,,,,,,,,,,,,,,,,,,,,,,,
,,,,,,,,2023-08-16_08h42.57.111,HF_wild_card,2022.2.4,Win32,29.94280923,6458fe267afe71c7aa4de260,64d2fd46c836a06233681665,64dc7df593b2ef5a07ade390,,,,,,,decisionTrl,resources/DBN.BMP,resources/DG.BMP,Door3,0.375,0.038888889,1,0,0,2.4436,optionRight,70,6975,4,4,0,4,0,1,,,,,,,,,,,,,,,,,,,,,,,,,,,,,,,,,,,,,,,
,,,,,,,,2023-08-16_08h42.57.111,HF_wild_card,2022.2.4,Win32,29.94280923,6458fe267afe71c7aa4de260,64d2fd46c836a06233681665,64dc7df593b2ef5a07ade390,,,,,,,sngl,resources/DB.BMP,resources/Empty.png,WildCard_NonEx,-0.316666667,-0.044444444,1,0,0,1.3903,optionLeft,55,7030,4,5,0,5,0,1,,,,,,,,,,,,,,,,,,,,,,,,,,,,,,,,,,,,,,,
,,,,,,,,2023-08-16_08h42.57.111,HF_wild_card,2022.2.4,Win32,29.94280923,6458fe267afe71c7aa4de260,64d2fd46c836a06233681665,64dc7df593b2ef5a07ade390,,,,,,,sngl,resources/Empty.png,resources/DP.BMP,Door1,0.273148176,0.011111111,1,0,0,1.002,optionRight,30,7060,4,6,0,6,0,1,,,,,,,,,,,,,,,,,,,,,,,,,,,,,,,,,,,,,,,
,,,,,,,,2023-08-16_08h42.57.111,HF_wild_card,2022.2.4,Win32,29.94280923,6458fe267afe71c7aa4de260,64d2fd46c836a06233681665,64dc7df593b2ef5a07ade390,,,,,,,ctch,resources/DBN.BMP,resources/DP.BMP,Door4,-0.294444444,0,1,0,0,1.4782,optionLeft,60,7120,4,7,0,7,0,1,,,,,,,,,,,,,,,,,,,,,,,,,,,,,,,,,,,,,,,
,,,,,,,,2023-08-16_08h42.57.111,HF_wild_card,2022.2.4,Win32,29.94280923,6458fe267afe71c7aa4de260,64d2fd46c836a06233681665,64dc7df593b2ef5a07ade390,,,,,,,decisionTrl,resources/DBN.BMP,resources/DG.BMP,Door3,0.312963019,0.066666667,1,0,0,2.0603,optionRight,70,7190,4,8,0,8,0,1,,,,,,,,,,,,,,,,,,,,,,,,,,,,,,,,,,,,,,,
,,,,,,,,2023-08-16_08h42.57.111,HF_wild_card,2022.2.4,Win32,29.94280923,6458fe267afe71c7aa4de260,64d2fd46c836a06233681665,64dc7df593b2ef5a07ade390,,,,,,,decisionTrl,resources/DP.BMP,resources/DY.BMP,Door1,-0.235185157,-0.007407422,1,0,0,2.4664,optionLeft,30,7220,4,9,0,9,0,1,,,,,,,,,,,,,,,,,,,,,,,,,,,,,,,,,,,,,,,
,,,,,,,,2023-08-16_08h42.57.111,HF_wild_card,2022.2.4,Win32,29.94280923,6458fe267afe71c7aa4de260,64d2fd46c836a06233681665,64dc7df593b2ef5a07ade390,,,,,,,sngl,resources/Empty.png,resources/DB.BMP,WildCard_NonEx,0.255555556,0.022222222,1,0,0,1.0237,optionRight,45,7265,4,10,0,10,0,1,,,,,,,,,,,,,,,,,,,,,,,,,,,,,,,,,,,,,,,
,,,,,,,,2023-08-16_08h42.57.111,HF_wild_card,2022.2.4,Win32,29.94280923,6458fe267afe71c7aa4de260,64d2fd46c836a06233681665,64dc7df593b2ef5a07ade390,,,,,,,decisionTrl,resources/DY.BMP,resources/DP.BMP,Door1,0.478703732,0.083333333,1,0,0,3.1705,optionRight,30,7295,4,11,0,11,0,1,,,,,,,,,,,,,,,,,,,,,,,,,,,,,,,,,,,,,,,
,,,,,,,,2023-08-16_08h42.57.111,HF_wild_card,2022.2.4,Win32,29.94280923,6458fe267afe71c7aa4de260,64d2fd46c836a06233681665,64dc7df593b2ef5a07ade390,,,,,,,sngl,resources/DG.BMP,resources/Empty.png,Door3,-0.234259245,-0.000925954,1,0,0,0.8314,optionLeft,70,7365,4,12,0,12,0,1,,,,,,,,,,,,,,,,,,,,,,,,,,,,,,,,,,,,,,,
,,,,,,,,2023-08-16_08h42.57.111,HF_wild_card,2022.2.4,Win32,29.94280923,6458fe267afe71c7aa4de260,64d2fd46c836a06233681665,64dc7df593b2ef5a07ade390,,,,,,,decisionTrl,resources/DP.BMP,resources/DY.BMP,Door2,0.325925954,0.033333333,1,0,0,1.0596,optionRight,20,7385,4,13,0,13,0,1,,,,,,,,,,,,,,,,,,,,,,,,,,,,,,,,,,,,,,,
,,,,,,,,2023-08-16_08h42.57.111,HF_wild_card,2022.2.4,Win32,29.94280923,6458fe267afe71c7aa4de260,64d2fd46c836a06233681665,64dc7df593b2ef5a07ade390,,,,,,,ctch,resources/DG.BMP,resources/DY.BMP,Door2,0.058333333,0.010185157,1,0,0,1.9266,optionRight,40,7425,4,14,0,14,0,1,,,,,,,,,,,,,,,,,,,,,,,,,,,,,,,,,,,,,,,
,,,,,,,,2023-08-16_08h42.57.111,HF_wild_card,2022.2.4,Win32,29.94280923,6458fe267afe71c7aa4de260,64d2fd46c836a06233681665,64dc7df593b2ef5a07ade390,,,,,,,sngl,resources/DP.BMP,resources/Empty.png,Door1,-0.247222222,0.008333333,1,0,0,0.7635,optionLeft,30,7455,4,15,0,15,0,1,,,,,,,,,,,,,,,,,,,,,,,,,,,,,,,,,,,,,,,
,,,,,,,,2023-08-16_08h42.57.111,HF_wild_card,2022.2.4,Win32,29.94280923,6458fe267afe71c7aa4de260,64d2fd46c836a06233681665,64dc7df593b2ef5a07ade390,,,,,,,sngl,resources/Empty.png,resources/DG.BMP,Door3,0.315740797,0.039814801,1,0,0,1.4805,optionRight,70,7525,4,16,0,16,0,1,,,,,,,,,,,,,,,,,,,,,,,,,,,,,,,,,,,,,,,
,,,,,,,,2023-08-16_08h42.57.111,HF_wild_card,2022.2.4,Win32,29.94280923,6458fe267afe71c7aa4de260,64d2fd46c836a06233681665,64dc7df593b2ef5a07ade390,,,,,,,decisionTrl,resources/DY.BMP,resources/DP.BMP,Door1,0.370370399,0.040740712,1,0,0,1.5381,optionRight,30,7555,4,17,0,17,0,1,,,,,,,,,,,,,,,,,,,,,,,,,,,,,,,,,,,,,,,
,,,,,,,,2023-08-16_08h42.57.111,HF_wild_card,2022.2.4,Win32,29.94280923,6458fe267afe71c7aa4de260,64d2fd46c836a06233681665,64dc7df593b2ef5a07ade390,,,,,,,decisionTrl,resources/DY.BMP,resources/DP.BMP,Door1,0.278703732,0.050925912,1,0,0,0.9145,optionRight,30,7585,4,18,0,18,0,1,,,,,,,,,,,,,,,,,,,,,,,,,,,,,,,,,,,,,,,
,,,,,,,,2023-08-16_08h42.57.111,HF_wild_card,2022.2.4,Win32,29.94280923,6458fe267afe71c7aa4de260,64d2fd46c836a06233681665,64dc7df593b2ef5a07ade390,,,,,,,sngl,resources/DY.BMP,resources/Empty.png,Door2,-0.462962935,-0.001851866,1,0,0,1.56,optionLeft,20,7605,4,19,0,19,0,1,,,,,,,,,,,,,,,,,,,,,,,,,,,,,,,,,,,,,,,
,,,,,,,,2023-08-16_08h42.57.111,HF_wild_card,2022.2.4,Win32,29.94280923,6458fe267afe71c7aa4de260,64d2fd46c836a06233681665,64dc7df593b2ef5a07ade390,,,,,,,ctch,resources/DBN.BMP,resources/DP.BMP,Door4,-0.186111111,0.005555556,1,0,0,1.4326,optionLeft,80,7685,4,20,0,20,0,1,,,,,,,,,,,,,,,,,,,,,,,,,,,,,,,,,,,,,,,
,,,,,,,,2023-08-16_08h42.57.111,HF_wild_card,2022.2.4,Win32,29.94280923,6458fe267afe71c7aa4de260,64d2fd46c836a06233681665,64dc7df593b2ef5a07ade390,,,,,,,decisionTrl,resources/DBN.BMP,resources/DG.BMP,Door3,0.30648151,0.060185157,1,0,0,2.1845,optionRight,70,7755,4,21,0,21,0,1,,,,,,,,,,,,,,,,,,,,,,,,,,,,,,,,,,,,,,,
,,,,,,,,2023-08-16_08h42.57.111,HF_wild_card,2022.2.4,Win32,29.94280923,6458fe267afe71c7aa4de260,64d2fd46c836a06233681665,64dc7df593b2ef5a07ade390,,,,,,,ctch,resources/DP.BMP,resources/DBN.BMP,Door4,0.235185242,0.034259245,1,0,0,1.0464,optionRight,60,7815,4,22,0,22,0,1,,,,,,,,,,,,,,,,,,,,,,,,,,,,,,,,,,,,,,,
,,,,,,,,2023-08-16_08h42.57.111,HF_wild_card,2022.2.4,Win32,29.94280923,6458fe267afe71c7aa4de260,64d2fd46c836a06233681665,64dc7df593b2ef5a07ade390,,,,,,,decisionTrl,resources/DB.BMP,resources/DY.BMP,WildCard_NonEx,-0.229629601,-0.022222222,1,0,0,1.3308,optionLeft,55,7870,4,23,0,23,0,1,,,,,,,,,,,,,,,,,,,,,,,,,,,,,,,,,,,,,,,
,,,,,,,,2023-08-16_08h42.57.111,HF_wild_card,2022.2.4,Win32,29.94280923,6458fe267afe71c7aa4de260,64d2fd46c836a06233681665,64dc7df593b2ef5a07ade390,,,,,,,decisionTrl,resources/DP.BMP,resources/DY.BMP,Door1,-0.239814801,-0.028703732,1,0,0,2.0643,optionLeft,30,7900,4,24,0,24,0,1,,,,,,,,,,,,,,,,,,,,,,,,,,,,,,,,,,,,,,,
,,,,,,,,2023-08-16_08h42.57.111,HF_wild_card,2022.2.4,Win32,29.94280923,6458fe267afe71c7aa4de260,64d2fd46c836a06233681665,64dc7df593b2ef5a07ade390,,,,,,,sngl,resources/Empty.png,resources/DB.BMP,WildCard_NonEx,0.255555556,0.035185157,1,0,0,0.9049,optionRight,55,7955,4,25,0,25,0,1,,,,,,,,,,,,,,,,,,,,,,,,,,,,,,,,,,,,,,,
,,,,,,,,2023-08-16_08h42.57.111,HF_wild_card,2022.2.4,Win32,29.94280923,6458fe267afe71c7aa4de260,64d2fd46c836a06233681665,64dc7df593b2ef5a07ade390,,,,,,,decisionTrl,resources/DB.BMP,resources/DP.BMP,WildCard_NonEx,-0.299074046,-0.024074088,1,0,0,1.5295,optionLeft,45,8000,4,26,0,26,0,1,,,,,,,,,,,,,,,,,,,,,,,,,,,,,,,,,,,,,,,
,,,,,,,,2023-08-16_08h42.57.111,HF_wild_card,2022.2.4,Win32,29.94280923,6458fe267afe71c7aa4de260,64d2fd46c836a06233681665,64dc7df593b2ef5a07ade390,,,,,,,decisionTrl,resources/DB.BMP,resources/DBN.BMP,Door4,0.372222222,0.047222222,1,0,0,1.2981,optionRight,80,8080,4,27,0,27,0,1,,,,,,,,,,,,,,,,,,,,,,,,,,,,,,,,,,,,,,,
,,,,,,,,2023-08-16_08h42.57.111,HF_wild_card,2022.2.4,Win32,29.94280923,6458fe267afe71c7aa4de260,64d2fd46c836a06233681665,64dc7df593b2ef5a07ade390,,,,,,,decisionTrl,resources/DY.BMP,resources/DB.BMP,WildCard_NonEx,0.324074131,0.01851849,1,0,0,1.3328,optionRight,45,8125,4,28,0,28,0,1,,,,,,,,,,,,,,,,,,,,,,,,,,,,,,,,,,,,,,,
,,,,,,,,2023-08-16_08h42.57.111,HF_wild_card,2022.2.4,Win32,29.94280923,6458fe267afe71c7aa4de260,64d2fd46c836a06233681665,64dc7df593b2ef5a07ade390,,,,,,,decisionTrl,resources/DY.BMP,resources/DP.BMP,Door2,-0.209259245,-0.02129631,1,0,0,1.5421,optionLeft,20,8145,4,29,0,29,0,1,,,,,,,,,,,,,,,,,,,,,,,,,,,,,,,,,,,,,,,
,,,,,,,,2023-08-16_08h42.57.111,HF_wild_card,2022.2.4,Win32,29.94280923,6458fe267afe71c7aa4de260,64d2fd46c836a06233681665,64dc7df593b2ef5a07ade390,,,,,,,decisionTrl,resources/DG.BMP,resources/DB.BMP,WildCard_NonEx,0.386111111,0.027777778,1,0,0,1.1045,optionRight,45,8190,4,30,0,30,0,1,,,,,,,,,,,,,,,,,,,,,,,,,,,,,,,,,,,,,,,
,,,,,,,,2023-08-16_08h42.57.111,HF_wild_card,2022.2.4,Win32,29.94280923,6458fe267afe71c7aa4de260,64d2fd46c836a06233681665,64dc7df593b2ef5a07ade390,,,,,,,decisionTrl,resources/DP.BMP,resources/DB.BMP,WildCard_NonEx,0.405555556,0.040740712,1,0,0,1.2496,optionRight,45,8235,4,31,0,31,0,1,,,,,,,,,,,,,,,,,,,,,,,,,,,,,,,,,,,,,,,
,,,,,,,,2023-08-16_08h42.57.111,HF_wild_card,2022.2.4,Win32,29.94280923,6458fe267afe71c7aa4de260,64d2fd46c836a06233681665,64dc7df593b2ef5a07ade390,,,,,,,sngl,resources/DB.BMP,resources/Empty.png,WildCard_NonEx,-0.265740712,-0.023148176,1,0,0,0.8471,optionLeft,45,8280,4,32,0,32,0,1,,,,,,,,,,,,,,,,,,,,,,,,,,,,,,,,,,,,,,,
,,,,,,,,2023-08-16_08h42.57.111,HF_wild_card,2022.2.4,Win32,29.94280923,6458fe267afe71c7aa4de260,64d2fd46c836a06233681665,64dc7df593b2ef5a07ade390,,,,,,,decisionTrl,resources/DBN.BMP,resources/DB.BMP,Door4,-0.225,0.011111111,1,0,0,1.8074,optionLeft,80,8360,4,33,0,33,0,1,,,,,,,,,,,,,,,,,,,,,,,,,,,,,,,,,,,,,,,
,,,,,,,,2023-08-16_08h42.57.111,HF_wild_card,2022.2.4,Win32,29.94280923,6458fe267afe71c7aa4de260,64d2fd46c836a06233681665,64dc7df593b2ef5a07ade390,,,,,,,sngl,resources/DBN.BMP,resources/Empty.png,Door4,-0.19351849,0.012962935,1,0,0,0.8336,optionLeft,60,8420,4,34,0,34,0,1,,,,,,,,,,,,,,,,,,,,,,,,,,,,,,,,,,,,,,,
,,,,,,,,2023-08-16_08h42.57.111,HF_wild_card,2022.2.4,Win32,29.94280923,6458fe267afe71c7aa4de260,64d2fd46c836a06233681665,64dc7df593b2ef5a07ade390,,,,,,,decisionTrl,resources/DP.BMP,resources/DY.BMP,Door2,0.261111111,0.025925912,1,0,0,1.646,optionRight,20,8440,4,35,0,35,0,1,,,,,,,,,,,,,,,,,,,,,,,,,,,,,,,,,,,,,,,
,,,,,,,,2023-08-16_08h42.57.111,HF_wild_card,2022.2.4,Win32,29.94280923,6458fe267afe71c7aa4de260,64d2fd46c836a06233681665,64dc7df593b2ef5a07ade390,,,,,,,decisionTrl,resources/DG.BMP,resources/DBN.BMP,Door4,0.304629686,0.031481467,1,0,0,1.8566,optionRight,60,8500,4,36,0,36,0,1,,,,,,,,,,,,,,,,,,,,,,,,,,,,,,,,,,,,,,,
,,,,,,,,2023-08-16_08h42.57.111,HF_wild_card,2022.2.4,Win32,29.94280923,6458fe267afe71c7aa4de260,64d2fd46c836a06233681665,64dc7df593b2ef5a07ade390,,,,,,,sngl,resources/Empty.png,resources/DBN.BMP,Door4,0.397222222,0.026851824,1,0,0,0.8761,optionRight,80,8580,4,37,0,37,0,1,,,,,,,,,,,,,,,,,,,,,,,,,,,,,,,,,,,,,,,
,,,,,,,,2023-08-16_08h42.57.111,HF_wild_card,2022.2.4,Win32,29.94280923,6458fe267afe71c7aa4de260,64d2fd46c836a06233681665,64dc7df593b2ef5a07ade390,,,,,,,ctch,resources/DY.BMP,resources/DG.BMP,Door3,0.340740797,0.051851824,1,0,0,1.315,optionRight,70,8650,4,38,0,38,0,1,,,,,,,,,,,,,,,,,,,,,,,,,,,,,,,,,,,,,,,
,,,,,,,,2023-08-16_08h42.57.111,HF_wild_card,2022.2.4,Win32,29.94280923,6458fe267afe71c7aa4de260,64d2fd46c836a06233681665,64dc7df593b2ef5a07ade390,,,,,,,decisionTrl,resources/DBN.BMP,resources/DG.BMP,Door4,-0.2,0.00370369,1,0,0,1.5855,optionLeft,60,8710,4,39,0,39,0,1,,,,,,,,,,,,,,,,,,,,,,,,,,,,,,,,,,,,,,,
,,,,,,,,2023-08-16_08h42.57.111,HF_wild_card,2022.2.4,Win32,29.94280923,6458fe267afe71c7aa4de260,64d2fd46c836a06233681665,64dc7df593b2ef5a07ade390,,,,,,,decisionTrl,resources/DB.BMP,resources/DG.BMP,Door3,0.388888889,0.024074046,1,0,0,1.3378,optionRight,70,8780,4,40,0,40,0,1,,,,,,,,,,,,,,,,,,,,,,,,,,,,,,,,,,,,,,,
,,,,,,,,2023-08-16_08h42.57.111,HF_wild_card,2022.2.4,Win32,29.94280923,6458fe267afe71c7aa4de260,64d2fd46c836a06233681665,64dc7df593b2ef5a07ade390,,,,,,,decisionTrl,resources/DG.BMP,resources/DBN.BMP,Door4,0.498148176,0.10370369,1,0,0,1.2073,optionRight,60,8840,4,41,0,41,0,1,,,,,,,,,,,,,,,,,,,,,,,,,,,,,,,,,,,,,,,
,,,,,,,,2023-08-16_08h42.57.111,HF_wild_card,2022.2.4,Win32,29.94280923,6458fe267afe71c7aa4de260,64d2fd46c836a06233681665,64dc7df593b2ef5a07ade390,,,,,,,ctch,resources/DP.BMP,resources/DBN.BMP,Door4,0.286111111,0.020370356,1,0,0,1.0445,optionRight,80,8920,4,42,0,42,0,1,,,,,,,,,,,,,,,,,,,,,,,,,,,,,,,,,,,,,,,
,,,,,,,,2023-08-16_08h42.57.111,HF_wild_card,2022.2.4,Win32,29.94280923,6458fe267afe71c7aa4de260,64d2fd46c836a06233681665,64dc7df593b2ef5a07ade390,,,,,,,sngl,resources/Empty.png,resources/DY.BMP,Door2,0.361111111,0.025925912,1,0,0,0.8476,optionRight,40,8960,4,43,0,43,0,1,,,,,,,,,,,,,,,,,,,,,,,,,,,,,,,,,,,,,,,
,,,,,,,,2023-08-16_08h42.57.111,HF_wild_card,2022.2.4,Win32,29.94280923,6458fe267afe71c7aa4de260,64d2fd46c836a06233681665,64dc7df593b2ef5a07ade390,,,,,,,,,,,,,,,,,,,,,,,,,,3,0,3,0,1,,,,,,,,,,,,,,,,,,,,,,,,,,,,,,,,,,
,,,,,,,,2023-08-16_08h42.57.111,HF_wild_card,2022.2.4,Win32,29.94280923,6458fe267afe71c7aa4de260,64d2fd46c836a06233681665,64dc7df593b2ef5a07ade390,,,,,,,sngl,resources/DG.BMP,resources/Empty.png,Door3,-0.374074046,-0.093518533,1,0,0,1.0758,optionLeft,70,9030,5,0,0,0,0,1,,,,,,,,,,,,,,,,,,,,,,,,,,,,,,,,,,,,,,,
,,,,,,,,2023-08-16_08h42.57.111,HF_wild_card,2022.2.4,Win32,29.94280923,6458fe267afe71c7aa4de260,64d2fd46c836a06233681665,64dc7df593b2ef5a07ade390,,,,,,,decisionTrl,resources/DB.BMP,resources/DG.BMP,Door3,0.198148176,0.002777778,1,0,0,1.1149,optionRight,70,9100,5,1,0,1,0,1,,,,,,,,,,,,,,,,,,,,,,,,,,,,,,,,,,,,,,,
,,,,,,,,2023-08-16_08h42.57.111,HF_wild_card,2022.2.4,Win32,29.94280923,6458fe267afe71c7aa4de260,64d2fd46c836a06233681665,64dc7df593b2ef5a07ade390,,,,,,,ctch,resources/DG.BMP,resources/DY.BMP,Door3,-0.214814801,-0.007407422,1,0,0,0.929,optionLeft,70,9170,5,2,0,2,0,1,,,,,,,,,,,,,,,,,,,,,,,,,,,,,,,,,,,,,,,
,,,,,,,,2023-08-16_08h42.57.111,HF_wild_card,2022.2.4,Win32,29.94280923,6458fe267afe71c7aa4de260,64d2fd46c836a06233681665,64dc7df593b2ef5a07ade390,,,,,,,decisionTrl,resources/DB.BMP,resources/DP.BMP,WildCard_NonEx,-0.211111111,-0.008333333,1,0,0,1.4729,optionLeft,45,9215,5,3,0,3,0,1,,,,,,,,,,,,,,,,,,,,,,,,,,,,,,,,,,,,,,,
,,,,,,,,2023-08-16_08h42.57.111,HF_wild_card,2022.2.4,Win32,29.94280923,6458fe267afe71c7aa4de260,64d2fd46c836a06233681665,64dc7df593b2ef5a07ade390,,,,,,,ctch,resources/DBN.BMP,resources/DP.BMP,Door4,-0.315740712,0.007407379,1,0,0,1.1856,optionLeft,80,9295,5,4,0,4,0,1,,,,,,,,,,,,,,,,,,,,,,,,,,,,,,,,,,,,,,,
,,,,,,,,2023-08-16_08h42.57.111,HF_wild_card,2022.2.4,Win32,29.94280923,6458fe267afe71c7aa4de260,64d2fd46c836a06233681665,64dc7df593b2ef5a07ade390,,,,,,,decisionTrl,resources/DBN.BMP,resources/DG.BMP,Door4,-0.280555556,0.022222222,1,0,0,0.8049,optionLeft,60,9355,5,5,0,5,0,1,,,,,,,,,,,,,,,,,,,,,,,,,,,,,,,,,,,,,,,
,,,,,,,,2023-08-16_08h42.57.111,HF_wild_card,2022.2.4,Win32,29.94280923,6458fe267afe71c7aa4de260,64d2fd46c836a06233681665,64dc7df593b2ef5a07ade390,,,,,,,sngl,resources/Empty.png,resources/DP.BMP,Door1,0.258333333,0.032407379,1,0,0,1.0482,optionRight,30,9385,5,6,0,6,0,1,,,,,,,,,,,,,,,,,,,,,,,,,,,,,,,,,,,,,,,
,,,,,,,,2023-08-16_08h42.57.111,HF_wild_card,2022.2.4,Win32,29.94280923,6458fe267afe71c7aa4de260,64d2fd46c836a06233681665,64dc7df593b2ef5a07ade390,,,,,,,ctch,resources/DP.BMP,resources/DBN.BMP,Door4,0.355555556,0.06851849,1,0,0,1.1367,optionRight,60,9445,5,7,0,7,0,1,,,,,,,,,,,,,,,,,,,,,,,,,,,,,,,,,,,,,,,
,,,,,,,,2023-08-16_08h42.57.111,HF_wild_card,2022.2.4,Win32,29.94280923,6458fe267afe71c7aa4de260,64d2fd46c836a06233681665,64dc7df593b2ef5a07ade390,,,,,,,sngl,resources/DB.BMP,resources/Empty.png,WildCard_NonEx,-0.252777778,0.004629601,1,0,0,0.8832,optionLeft,45,9490,5,8,0,8,0,1,,,,,,,,,,,,,,,,,,,,,,,,,,,,,,,,,,,,,,,
,,,,,,,,2023-08-16_08h42.57.111,HF_wild_card,2022.2.4,Win32,29.94280923,6458fe267afe71c7aa4de260,64d2fd46c836a06233681665,64dc7df593b2ef5a07ade390,,,,,,,decisionTrl,resources/DB.BMP,resources/DY.BMP,WildCard_NonEx,-0.375,0.007407379,1,0,0,2.4748,optionLeft,55,9545,5,9,0,9,0,1,,,,,,,,,,,,,,,,,,,,,,,,,,,,,,,,,,,,,,,
,,,,,,,,2023-08-16_08h42.57.111,HF_wild_card,2022.2.4,Win32,29.94280923,6458fe267afe71c7aa4de260,64d2fd46c836a06233681665,64dc7df593b2ef5a07ade390,,,,,,,decisionTrl,resources/DG.BMP,resources/DBN.BMP,Door3,-0.227777778,0.062962935,1,0,0,1.9133,optionLeft,70,9615,5,10,0,10,0,1,,,,,,,,,,,,,,,,,,,,,,,,,,,,,,,,,,,,,,,
,,,,,,,,2023-08-16_08h42.57.111,HF_wild_card,2022.2.4,Win32,29.94280923,6458fe267afe71c7aa4de260,64d2fd46c836a06233681665,64dc7df593b2ef5a07ade390,,,,,,,decisionTrl,resources/DP.BMP,resources/DY.BMP,Door2,0.278703732,0.025925912,1,0,0,2.1921,optionRight,20,9635,5,11,0,11,0,1,,,,,,,,,,,,,,,,,,,,,,,,,,,,,,,,,,,,,,,
,,,,,,,,2023-08-16_08h42.57.111,HF_wild_card,2022.2.4,Win32,29.94280923,6458fe267afe71c7aa4de260,64d2fd46c836a06233681665,64dc7df593b2ef5a07ade390,,,,,,,ctch,resources/DBN.BMP,resources/DP.BMP,Door4,-0.263888889,0.016666667,1,0,0,1.287,optionLeft,60,9695,5,12,0,12,0,1,,,,,,,,,,,,,,,,,,,,,,,,,,,,,,,,,,,,,,,
,,,,,,,,2023-08-16_08h42.57.111,HF_wild_card,2022.2.4,Win32,29.94280923,6458fe267afe71c7aa4de260,64d2fd46c836a06233681665,64dc7df593b2ef5a07ade390,,,,,,,ctch,resources/DP.BMP,resources/DBN.BMP,Door4,0.402777778,0.088888889,1,0,0,1.0692,optionRight,60,9755,5,13,0,13,0,1,,,,,,,,,,,,,,,,,,,,,,,,,,,,,,,,,,,,,,,
,,,,,,,,2023-08-16_08h42.57.111,HF_wild_card,2022.2.4,Win32,29.94280923,6458fe267afe71c7aa4de260,64d2fd46c836a06233681665,64dc7df593b2ef5a07ade390,,,,,,,decisionTrl,resources/DP.BMP,resources/DY.BMP,Door2,0.213888889,0.032407379,1,0,0,2.1946,optionRight,20,9775,5,14,0,14,0,1,,,,,,,,,,,,,,,,,,,,,,,,,,,,,,,,,,,,,,,
,,,,,,,,2023-08-16_08h42.57.111,HF_wild_card,2022.2.4,Win32,29.94280923,6458fe267afe71c7aa4de260,64d2fd46c836a06233681665,64dc7df593b2ef5a07ade390,,,,,,,decisionTrl,resources/DG.BMP,resources/DB.BMP,Door3,-0.236111111,0.024074046,1,0,0,1.538,optionLeft,70,9845,5,15,0,15,0,1,,,,,,,,,,,,,,,,,,,,,,,,,,,,,,,,,,,,,,,
,,,,,,,,2023-08-16_08h42.57.111,HF_wild_card,2022.2.4,Win32,29.94280923,6458fe267afe71c7aa4de260,64d2fd46c836a06233681665,64dc7df593b2ef5a07ade390,,,,,,,sngl,resources/Empty.png,resources/DG.BMP,Door3,0.401851908,0.052777778,1,0,0,0.7944,optionRight,70,9915,5,16,0,16,0,1,,,,,,,,,,,,,,,,,,,,,,,,,,,,,,,,,,,,,,,
,,,,,,,,2023-08-16_08h42.57.111,HF_wild_card,2022.2.4,Win32,29.94280923,6458fe267afe71c7aa4de260,64d2fd46c836a06233681665,64dc7df593b2ef5a07ade390,,,,,,,sngl,resources/DBN.BMP,resources/Empty.png,Door4,-0.24351849,0.047222222,1,0,0,0.8209,optionLeft,80,9995,5,17,0,17,0,1,,,,,,,,,,,,,,,,,,,,,,,,,,,,,,,,,,,,,,,
,,,,,,,,2023-08-16_08h42.57.111,HF_wild_card,2022.2.4,Win32,29.94280923,6458fe267afe71c7aa4de260,64d2fd46c836a06233681665,64dc7df593b2ef5a07ade390,,,,,,,decisionTrl,resources/DY.BMP,resources/DP.BMP,Door1,0.271296353,0.067592578,1,0,0,2.3374,optionRight,30,10025,5,18,0,18,0,1,,,,,,,,,,,,,,,,,,,,,,,,,,,,,,,,,,,,,,,
,,,,,,,,2023-08-16_08h42.57.111,HF_wild_card,2022.2.4,Win32,29.94280923,6458fe267afe71c7aa4de260,64d2fd46c836a06233681665,64dc7df593b2ef5a07ade390,,,,,,,decisionTrl,resources/DG.BMP,resources/DBN.BMP,Door3,-0.26851849,0.032407379,1,0,0,1.5802,optionLeft,70,10095,5,19,0,19,0,1,,,,,,,,,,,,,,,,,,,,,,,,,,,,,,,,,,,,,,,
,,,,,,,,2023-08-16_08h42.57.111,HF_wild_card,2022.2.4,Win32,29.94280923,6458fe267afe71c7aa4de260,64d2fd46c836a06233681665,64dc7df593b2ef5a07ade390,,,,,,,decisionTrl,resources/DY.BMP,resources/DP.BMP,Door2,-0.16851849,0.009259245,1,0,0,3.1342,optionLeft,40,10135,5,20,0,20,0,1,,,,,,,,,,,,,,,,,,,,,,,,,,,,,,,,,,,,,,,
,,,,,,,,2023-08-16_08h42.57.111,HF_wild_card,2022.2.4,Win32,29.94280923,6458fe267afe71c7aa4de260,64d2fd46c836a06233681665,64dc7df593b2ef5a07ade390,,,,,,,decisionTrl,resources/DY.BMP,resources/DP.BMP,Door2,-0.165740712,0.000925912,1,0,0,0.8054,optionLeft,40,10175,5,21,0,21,0,1,,,,,,,,,,,,,,,,,,,,,,,,,,,,,,,,,,,,,,,
,,,,,,,,2023-08-16_08h42.57.111,HF_wild_card,2022.2.4,Win32,29.94280923,6458fe267afe71c7aa4de260,64d2fd46c836a06233681665,64dc7df593b2ef5a07ade390,,,,,,,decisionTrl,resources/DP.BMP,resources/DB.BMP,WildCard_NonEx,0.23148151,0.021296268,1,0,0,1.3321,optionRight,45,10220,5,22,0,22,0,1,,,,,,,,,,,,,,,,,,,,,,,,,,,,,,,,,,,,,,,
,,,,,,,,2023-08-16_08h42.57.111,HF_wild_card,2022.2.4,Win32,29.94280923,6458fe267afe71c7aa4de260,64d2fd46c836a06233681665,64dc7df593b2ef5a07ade390,,,,,,,decisionTrl,resources/DY.BMP,resources/DP.BMP,Door2,-0.217592578,0.00370369,1,0,0,1.2618,optionLeft,20,10240,5,23,0,23,0,1,,,,,,,,,,,,,,,,,,,,,,,,,,,,,,,,,,,,,,,
,,,,,,,,2023-08-16_08h42.57.111,HF_wild_card,2022.2.4,Win32,29.94280923,6458fe267afe71c7aa4de260,64d2fd46c836a06233681665,64dc7df593b2ef5a07ade390,,,,,,,ctch,resources/DG.BMP,resources/DY.BMP,Door3,-0.216666667,0.026851824,1,0,0,1.3121,optionLeft,70,10310,5,24,0,24,0,1,,,,,,,,,,,,,,,,,,,,,,,,,,,,,,,,,,,,,,,
,,,,,,,,2023-08-16_08h42.57.111,HF_wild_card,2022.2.4,Win32,29.94280923,6458fe267afe71c7aa4de260,64d2fd46c836a06233681665,64dc7df593b2ef5a07ade390,,,,,,,sngl,resources/Empty.png,resources/DY.BMP,Door2,0.245370399,0.040740712,1,0,0,0.8923,optionRight,20,10330,5,25,0,25,0,1,,,,,,,,,,,,,,,,,,,,,,,,,,,,,,,,,,,,,,,
,,,,,,,,2023-08-16_08h42.57.111,HF_wild_card,2022.2.4,Win32,29.94280923,6458fe267afe71c7aa4de260,64d2fd46c836a06233681665,64dc7df593b2ef5a07ade390,,,,,,,decisionTrl,resources/DP.BMP,resources/DY.BMP,Door1,-0.180555556,-0.005555556,1,0,0,1.1759,optionLeft,30,10360,5,26,0,26,0,1,,,,,,,,,,,,,,,,,,,,,,,,,,,,,,,,,,,,,,,
,,,,,,,,2023-08-16_08h42.57.111,HF_wild_card,2022.2.4,Win32,29.94280923,6458fe267afe71c7aa4de260,64d2fd46c836a06233681665,64dc7df593b2ef5a07ade390,,,,,,,decisionTrl,resources/DG.BMP,resources/DBN.BMP,Door4,0.361111111,0.07870369,1,0,0,2.4376,optionRight,80,10440,5,27,0,27,0,1,,,,,,,,,,,,,,,,,,,,,,,,,,,,,,,,,,,,,,,
,,,,,,,,2023-08-16_08h42.57.111,HF_wild_card,2022.2.4,Win32,29.94280923,6458fe267afe71c7aa4de260,64d2fd46c836a06233681665,64dc7df593b2ef5a07ade390,,,,,,,decisionTrl,resources/DBN.BMP,resources/DG.BMP,Door3,0.255555556,0.034259245,1,0,0,2.0597,optionRight,70,10510,5,28,0,28,0,1,,,,,,,,,,,,,,,,,,,,,,,,,,,,,,,,,,,,,,,
,,,,,,,,2023-08-16_08h42.57.111,HF_wild_card,2022.2.4,Win32,29.94280923,6458fe267afe71c7aa4de260,64d2fd46c836a06233681665,64dc7df593b2ef5a07ade390,,,,,,,sngl,resources/DP.BMP,resources/Empty.png,Door1,-0.212037023,0,1,0,0,0.8472,optionLeft,30,10540,5,29,0,29,0,1,,,,,,,,,,,,,,,,,,,,,,,,,,,,,,,,,,,,,,,
,,,,,,,,2023-08-16_08h42.57.111,HF_wild_card,2022.2.4,Win32,29.94280923,6458fe267afe71c7aa4de260,64d2fd46c836a06233681665,64dc7df593b2ef5a07ade390,,,,,,,sngl,resources/Empty.png,resources/DBN.BMP,Door4,0.230555556,0.042592578,1,0,0,0.841,optionRight,60,10600,5,30,0,30,0,1,,,,,,,,,,,,,,,,,,,,,,,,,,,,,,,,,,,,,,,
,,,,,,,,2023-08-16_08h42.57.111,HF_wild_card,2022.2.4,Win32,29.94280923,6458fe267afe71c7aa4de260,64d2fd46c836a06233681665,64dc7df593b2ef5a07ade390,,,,,,,decisionTrl,resources/DBN.BMP,resources/DG.BMP,Door3,0.280555556,0.054629601,1,0,0,1.7752,optionRight,70,10670,5,31,0,31,0,1,,,,,,,,,,,,,,,,,,,,,,,,,,,,,,,,,,,,,,,
,,,,,,,,2023-08-16_08h42.57.111,HF_wild_card,2022.2.4,Win32,29.94280923,6458fe267afe71c7aa4de260,64d2fd46c836a06233681665,64dc7df593b2ef5a07ade390,,,,,,,sngl,resources/DB.BMP,resources/Empty.png,WildCard_NonEx,-0.186111111,0.012037023,1,0,0,0.8398,optionLeft,55,10725,5,32,0,32,0,1,,,,,,,,,,,,,,,,,,,,,,,,,,,,,,,,,,,,,,,
,,,,,,,,2023-08-16_08h42.57.111,HF_wild_card,2022.2.4,Win32,29.94280923,6458fe267afe71c7aa4de260,64d2fd46c836a06233681665,64dc7df593b2ef5a07ade390,,,,,,,decisionTrl,resources/DP.BMP,resources/DY.BMP,Door2,0.316666667,0.074074046,1,0,0,1.9955,optionRight,20,10745,5,33,0,33,0,1,,,,,,,,,,,,,,,,,,,,,,,,,,,,,,,,,,,,,,,
,,,,,,,,2023-08-16_08h42.57.111,HF_wild_card,2022.2.4,Win32,29.94280923,6458fe267afe71c7aa4de260,64d2fd46c836a06233681665,64dc7df593b2ef5a07ade390,,,,,,,sngl,resources/DY.BMP,resources/Empty.png,Door2,-0.212962935,-0.003703732,1,0,0,0.8874,optionLeft,40,10785,5,34,0,34,0,1,,,,,,,,,,,,,,,,,,,,,,,,,,,,,,,,,,,,,,,
,,,,,,,,2023-08-16_08h42.57.111,HF_wild_card,2022.2.4,Win32,29.94280923,6458fe267afe71c7aa4de260,64d2fd46c836a06233681665,64dc7df593b2ef5a07ade390,,,,,,,decisionTrl,resources/DBN.BMP,resources/DG.BMP,Door4,-0.223148134,0.05,1,0,0,1.7178,optionLeft,80,10865,5,35,0,35,0,1,,,,,,,,,,,,,,,,,,,,,,,,,,,,,,,,,,,,,,,
,,,,,,,,2023-08-16_08h42.57.111,HF_wild_card,2022.2.4,Win32,29.94280923,6458fe267afe71c7aa4de260,64d2fd46c836a06233681665,64dc7df593b2ef5a07ade390,,,,,,,sngl,resources/Empty.png,resources/DB.BMP,WildCard_NonEx,0.200925954,0.015740712,1,0,0,0.9344,optionRight,55,10920,5,36,0,36,0,1,,,,,,,,,,,,,,,,,,,,,,,,,,,,,,,,,,,,,,,
,,,,,,,,2023-08-16_08h42.57.111,HF_wild_card,2022.2.4,Win32,29.94280923,6458fe267afe71c7aa4de260,64d2fd46c836a06233681665,64dc7df593b2ef5a07ade390,,,,,,,sngl,resources/Empty.png,resources/DB.BMP,WildCard_NonEx,0.228703732,0.023148134,1,0,0,0.8858,optionRight,45,10965,5,37,0,37,0,1,,,,,,,,,,,,,,,,,,,,,,,,,,,,,,,,,,,,,,,
,,,,,,,,2023-08-16_08h42.57.111,HF_wild_card,2022.2.4,Win32,29.94280923,6458fe267afe71c7aa4de260,64d2fd46c836a06233681665,64dc7df593b2ef5a07ade390,,,,,,,decisionTrl,resources/DY.BMP,resources/DB.BMP,WildCard_NonEx,0.225925954,0.023148134,1,0,0,1.9972,optionRight,55,11020,5,38,0,38,0,1,,,,,,,,,,,,,,,,,,,,,,,,,,,,,,,,,,,,,,,
,,,,,,,,2023-08-16_08h42.57.111,HF_wild_card,2022.2.4,Win32,29.94280923,6458fe267afe71c7aa4de260,64d2fd46c836a06233681665,64dc7df593b2ef5a07ade390,,,,,,,ctch,resources/DY.BMP,resources/DG.BMP,Door3,0.279629686,0.037962935,1,0,0,1.6704,optionRight,70,11090,5,39,0,39,0,1,,,,,,,,,,,,,,,,,,,,,,,,,,,,,,,,,,,,,,,
,,,,,,,,2023-08-16_08h42.57.111,HF_wild_card,2022.2.4,Win32,29.94280923,6458fe267afe71c7aa4de260,64d2fd46c836a06233681665,64dc7df593b2ef5a07ade390,,,,,,,decisionTrl,resources/DBN.BMP,resources/DB.BMP,Door4,-0.202777778,0.011111111,1,0,0,1.8181,optionLeft,80,11170,5,40,0,40,0,1,,,,,,,,,,,,,,,,,,,,,,,,,,,,,,,,,,,,,,,
,,,,,,,,2023-08-16_08h42.57.111,HF_wild_card,2022.2.4,Win32,29.94280923,6458fe267afe71c7aa4de260,64d2fd46c836a06233681665,64dc7df593b2ef5a07ade390,,,,,,,decisionTrl,resources/DG.BMP,resources/DBN.BMP,Door3,-0.240740712,-0.001851866,1,0,0,1.501,optionLeft,70,11240,5,41,0,41,0,1,,,,,,,,,,,,,,,,,,,,,,,,,,,,,,,,,,,,,,,
,,,,,,,,2023-08-16_08h42.57.111,HF_wild_card,2022.2.4,Win32,29.94280923,6458fe267afe71c7aa4de260,64d2fd46c836a06233681665,64dc7df593b2ef5a07ade390,,,,,,,ctch,resources/DY.BMP,resources/DG.BMP,Door3,0.263888889,0.02870369,1,0,0,1.3734,optionRight,70,11310,5,42,0,42,0,1,,,,,,,,,,,,,,,,,,,,,,,,,,,,,,,,,,,,,,,
,,,,,,,,2023-08-16_08h42.57.111,HF_wild_card,2022.2.4,Win32,29.94280923,6458fe267afe71c7aa4de260,64d2fd46c836a06233681665,64dc7df593b2ef5a07ade390,,,,,,,decisionTrl,resources/DB.BMP,resources/DBN.BMP,Door4,0.414814843,0.056481467,1,0,0,1.2667,optionRight,60,11370,5,43,0,43,0,1,,,,,,,,,,,,,,,,,,,,,,,,,,,,,,,,,,,,,,,
,,,,,,,,2023-08-16_08h42.57.111,HF_wild_card,2022.2.4,Win32,29.94280923,6458fe267afe71c7aa4de260,64d2fd46c836a06233681665,64dc7df593b2ef5a07ade390,,,,,,,,,,,,,,,,,,,,,,,,,,4,0,4,0,1,,,,,,,,,,,,,,,,,,,,,,,,,,,,,,,,,,
,,,,,,,,2023-08-16_08h42.57.111,HF_wild_card,2022.2.4,Win32,29.94280923,6458fe267afe71c7aa4de260,64d2fd46c836a06233681665,64dc7df593b2ef5a07ade390,,,,,,,ctch,resources/DY.BMP,resources/DG.BMP,Door3,0.432407464,-0.061111111,1,0,0,1.1484,optionRight,70,11440,6,0,0,0,0,1,,,,,,,,,,,,,,,,,,,,,,,,,,,,,,,,,,,,,,,
,,,,,,,,2023-08-16_08h42.57.111,HF_wild_card,2022.2.4,Win32,29.94280923,6458fe267afe71c7aa4de260,64d2fd46c836a06233681665,64dc7df593b2ef5a07ade390,,,,,,,decisionTrl,resources/DY.BMP,resources/DP.BMP,Door1,0.296296353,0.052777778,1,0,0,2.3169,optionRight,30,11470,6,1,0,1,0,1,,,,,,,,,,,,,,,,,,,,,,,,,,,,,,,,,,,,,,,
,,,,,,,,2023-08-16_08h42.57.111,HF_wild_card,2022.2.4,Win32,29.94280923,6458fe267afe71c7aa4de260,64d2fd46c836a06233681665,64dc7df593b2ef5a07ade390,,,,,,,sngl,resources/Empty.png,resources/DY.BMP,Door2,0.220370399,0.025,1,0,0,0.8469,optionRight,40,11510,6,2,0,2,0,1,,,,,,,,,,,,,,,,,,,,,,,,,,,,,,,,,,,,,,,
,,,,,,,,2023-08-16_08h42.57.111,HF_wild_card,2022.2.4,Win32,29.94280923,6458fe267afe71c7aa4de260,64d2fd46c836a06233681665,64dc7df593b2ef5a07ade390,,,,,,,decisionTrl,resources/DP.BMP,resources/DY.BMP,Door1,-0.195370356,0.004629601,1,0,0,1.3809,optionLeft,30,11540,6,3,0,3,0,1,,,,,,,,,,,,,,,,,,,,,,,,,,,,,,,,,,,,,,,
,,,,,,,,2023-08-16_08h42.57.111,HF_wild_card,2022.2.4,Win32,29.94280923,6458fe267afe71c7aa4de260,64d2fd46c836a06233681665,64dc7df593b2ef5a07ade390,,,,,,,ctch,resources/DP.BMP,resources/DBN.BMP,Door4,0.416666667,0.115740712,1,0,0,1.3851,optionRight,80,11620,6,4,0,4,0,1,,,,,,,,,,,,,,,,,,,,,,,,,,,,,,,,,,,,,,,
,,,,,,,,2023-08-16_08h42.57.111,HF_wild_card,2022.2.4,Win32,29.94280923,6458fe267afe71c7aa4de260,64d2fd46c836a06233681665,64dc7df593b2ef5a07ade390,,,,,,,sngl,resources/DY.BMP,resources/Empty.png,Door2,-0.207407379,0,1,0,0,0.7634,optionLeft,20,11640,6,5,0,5,0,1,,,,,,,,,,,,,,,,,,,,,,,,,,,,,,,,,,,,,,,
,,,,,,,,2023-08-16_08h42.57.111,HF_wild_card,2022.2.4,Win32,29.94280923,6458fe267afe71c7aa4de260,64d2fd46c836a06233681665,64dc7df593b2ef5a07ade390,,,,,,,ctch,resources/DG.BMP,resources/DY.BMP,Door3,-0.245370356,0,1,0,0,1.2393,optionLeft,70,11710,6,6,0,6,0,1,,,,,,,,,,,,,,,,,,,,,,,,,,,,,,,,,,,,,,,
,,,,,,,,2023-08-16_08h42.57.111,HF_wild_card,2022.2.4,Win32,29.94280923,6458fe267afe71c7aa4de260,64d2fd46c836a06233681665,64dc7df593b2ef5a07ade390,,,,,,,ctch,resources/DG.BMP,resources/DY.BMP,Door3,-0.263888889,-0.003703732,1,0,0,0.8716,optionLeft,70,11780,6,7,0,7,0,1,,,,,,,,,,,,,,,,,,,,,,,,,,,,,,,,,,,,,,,
,,,,,,,,2023-08-16_08h42.57.111,HF_wild_card,2022.2.4,Win32,29.94280923,6458fe267afe71c7aa4de260,64d2fd46c836a06233681665,64dc7df593b2ef5a07ade390,,,,,,,decisionTrl,resources/DY.BMP,resources/DP.BMP,Door1,0.213888889,0.02870369,1,0,0,1.4898,optionRight,30,11810,6,8,0,8,0,1,,,,,,,,,,,,,,,,,,,,,,,,,,,,,,,,,,,,,,,
,,,,,,,,2023-08-16_08h42.57.111,HF_wild_card,2022.2.4,Win32,29.94280923,6458fe267afe71c7aa4de260,64d2fd46c836a06233681665,64dc7df593b2ef5a07ade390,,,,,,,sngl,resources/Empty.png,resources/DB.BMP,WildCard_NonEx,0.200925954,0.037037023,1,0,0,0.853,optionRight,45,11855,6,9,0,9,0,1,,,,,,,,,,,,,,,,,,,,,,,,,,,,,,,,,,,,,,,
,,,,,,,,2023-08-16_08h42.57.111,HF_wild_card,2022.2.4,Win32,29.94280923,6458fe267afe71c7aa4de260,64d2fd46c836a06233681665,64dc7df593b2ef5a07ade390,,,,,,,sngl,resources/DBN.BMP,resources/Empty.png,Door4,-0.245370356,-0.007407422,1,0,0,0.7987,optionLeft,60,11915,6,10,0,10,0,1,,,,,,,,,,,,,,,,,,,,,,,,,,,,,,,,,,,,,,,
,,,,,,,,2023-08-16_08h42.57.111,HF_wild_card,2022.2.4,Win32,29.94280923,6458fe267afe71c7aa4de260,64d2fd46c836a06233681665,64dc7df593b2ef5a07ade390,,,,,,,decisionTrl,resources/DP.BMP,resources/DY.BMP,Door1,-0.207407379,-0.000925954,1,0,0,1.326,optionLeft,30,11945,6,11,0,11,0,1,,,,,,,,,,,,,,,,,,,,,,,,,,,,,,,,,,,,,,,
,,,,,,,,2023-08-16_08h42.57.111,HF_wild_card,2022.2.4,Win32,29.94280923,6458fe267afe71c7aa4de260,64d2fd46c836a06233681665,64dc7df593b2ef5a07ade390,,,,,,,sngl,resources/Empty.png,resources/DP.BMP,Door1,0.251851908,0.042592578,1,0,0,0.8434,optionRight,30,11975,6,12,0,12,0,1,,,,,,,,,,,,,,,,,,,,,,,,,,,,,,,,,,,,,,,
,,,,,,,,2023-08-16_08h42.57.111,HF_wild_card,2022.2.4,Win32,29.94280923,6458fe267afe71c7aa4de260,64d2fd46c836a06233681665,64dc7df593b2ef5a07ade390,,,,,,,ctch,resources/DY.BMP,resources/DG.BMP,Door3,0.302777778,0.050925912,1,0,0,1.1405,optionRight,70,12045,6,13,0,13,0,1,,,,,,,,,,,,,,,,,,,,,,,,,,,,,,,,,,,,,,,
,,,,,,,,2023-08-16_08h42.57.111,HF_wild_card,2022.2.4,Win32,29.94280923,6458fe267afe71c7aa4de260,64d2fd46c836a06233681665,64dc7df593b2ef5a07ade390,,,,,,,decisionTrl,resources/DG.BMP,resources/DBN.BMP,Door4,0.193518575,0.054629601,1,0,0,1.8693,optionRight,80,12125,6,14,0,14,0,1,,,,,,,,,,,,,,,,,,,,,,,,,,,,,,,,,,,,,,,
,,,,,,,,2023-08-16_08h42.57.111,HF_wild_card,2022.2.4,Win32,29.94280923,6458fe267afe71c7aa4de260,64d2fd46c836a06233681665,64dc7df593b2ef5a07ade390,,,,,,,decisionTrl,resources/DP.BMP,resources/DY.BMP,Door1,-0.212037023,-0.000925954,1,0,0,1.4031,optionLeft,30,12155,6,15,0,15,0,1,,,,,,,,,,,,,,,,,,,,,,,,,,,,,,,,,,,,,,,
,,,,,,,,2023-08-16_08h42.57.111,HF_wild_card,2022.2.4,Win32,29.94280923,6458fe267afe71c7aa4de260,64d2fd46c836a06233681665,64dc7df593b2ef5a07ade390,,,,,,,decisionTrl,resources/DG.BMP,resources/DB.BMP,Door3,-0.237037023,0.008333333,1,0,0,2.1418,optionLeft,70,12225,6,16,0,16,0,1,,,,,,,,,,,,,,,,,,,,,,,,,,,,,,,,,,,,,,,
,,,,,,,,2023-08-16_08h42.57.111,HF_wild_card,2022.2.4,Win32,29.94280923,6458fe267afe71c7aa4de260,64d2fd46c836a06233681665,64dc7df593b2ef5a07ade390,,,,,,,decisionTrl,resources/DG.BMP,resources/DBN.BMP,Door3,-0.271296268,0.036111111,1,0,0,1.5487,optionLeft,70,12295,6,17,0,17,0,1,,,,,,,,,,,,,,,,,,,,,,,,,,,,,,,,,,,,,,,
,,,,,,,,2023-08-16_08h42.57.111,HF_wild_card,2022.2.4,Win32,29.94280923,6458fe267afe71c7aa4de260,64d2fd46c836a06233681665,64dc7df593b2ef5a07ade390,,,,,,,decisionTrl,resources/DY.BMP,resources/DP.BMP,Door1,0.273148176,0.020370356,1,0,0,1.2288,optionRight,30,12325,6,18,0,18,0,1,,,,,,,,,,,,,,,,,,,,,,,,,,,,,,,,,,,,,,,
,,,,,,,,2023-08-16_08h42.57.111,HF_wild_card,2022.2.4,Win32,29.94280923,6458fe267afe71c7aa4de260,64d2fd46c836a06233681665,64dc7df593b2ef5a07ade390,,,,,,,decisionTrl,resources/DB.BMP,resources/DP.BMP,WildCard_NonEx,-0.316666667,0.024074046,1,0,0,1.2643,optionLeft,55,12380,6,19,0,19,0,1,,,,,,,,,,,,,,,,,,,,,,,,,,,,,,,,,,,,,,,
,,,,,,,,2023-08-16_08h42.57.111,HF_wild_card,2022.2.4,Win32,29.94280923,6458fe267afe71c7aa4de260,64d2fd46c836a06233681665,64dc7df593b2ef5a07ade390,,,,,,,ctch,resources/DBN.BMP,resources/DP.BMP,Door4,-0.235185157,0.01851849,1,0,0,1.0389,optionLeft,80,12460,6,20,0,20,0,1,,,,,,,,,,,,,,,,,,,,,,,,,,,,,,,,,,,,,,,
,,,,,,,,2023-08-16_08h42.57.111,HF_wild_card,2022.2.4,Win32,29.94280923,6458fe267afe71c7aa4de260,64d2fd46c836a06233681665,64dc7df593b2ef5a07ade390,,,,,,,ctch,resources/DBN.BMP,resources/DP.BMP,Door4,-0.254629601,0.041666667,1,0,0,1.2311,optionLeft,60,12520,6,21,0,21,0,1,,,,,,,,,,,,,,,,,,,,,,,,,,,,,,,,,,,,,,,
,,,,,,,,2023-08-16_08h42.57.111,HF_wild_card,2022.2.4,Win32,29.94280923,6458fe267afe71c7aa4de260,64d2fd46c836a06233681665,64dc7df593b2ef5a07ade390,,,,,,,decisionTrl,resources/DP.BMP,resources/DY.BMP,Door1,-0.262037023,0.00370369,1,0,0,1.5896,optionLeft,30,12550,6,22,0,22,0,1,,,,,,,,,,,,,,,,,,,,,,,,,,,,,,,,,,,,,,,
,,,,,,,,2023-08-16_08h42.57.111,HF_wild_card,2022.2.4,Win32,29.94280923,6458fe267afe71c7aa4de260,64d2fd46c836a06233681665,64dc7df593b2ef5a07ade390,,,,,,,sngl,resources/DG.BMP,resources/Empty.png,Door3,-0.232407379,-0.012962977,1,0,0,0.8241,optionLeft,70,12620,6,23,0,23,0,1,,,,,,,,,,,,,,,,,,,,,,,,,,,,,,,,,,,,,,,
,,,,,,,,2023-08-16_08h42.57.111,HF_wild_card,2022.2.4,Win32,29.94280923,6458fe267afe71c7aa4de260,64d2fd46c836a06233681665,64dc7df593b2ef5a07ade390,,,,,,,decisionTrl,resources/DG.BMP,resources/DBN.BMP,Door4,0.302777778,0.042592578,1,0,0,1.1749,optionRight,80,12700,6,24,0,24,0,1,,,,,,,,,,,,,,,,,,,,,,,,,,,,,,,,,,,,,,,
,,,,,,,,2023-08-16_08h42.57.111,HF_wild_card,2022.2.4,Win32,29.94280923,6458fe267afe71c7aa4de260,64d2fd46c836a06233681665,64dc7df593b2ef5a07ade390,,,,,,,decisionTrl,resources/DBN.BMP,resources/DG.BMP,Door3,0.246296353,0.05,1,0,0,1.2088,optionRight,70,12770,6,25,0,25,0,1,,,,,,,,,,,,,,,,,,,,,,,,,,,,,,,,,,,,,,,
,,,,,,,,2023-08-16_08h42.57.111,HF_wild_card,2022.2.4,Win32,29.94280923,6458fe267afe71c7aa4de260,64d2fd46c836a06233681665,64dc7df593b2ef5a07ade390,,,,,,,sngl,resources/DP.BMP,resources/Empty.png,Door1,-0.223148134,-0.007407422,1,0,0,1.0661,optionLeft,30,12800,6,26,0,26,0,1,,,,,,,,,,,,,,,,,,,,,,,,,,,,,,,,,,,,,,,
,,,,,,,,2023-08-16_08h42.57.111,HF_wild_card,2022.2.4,Win32,29.94280923,6458fe267afe71c7aa4de260,64d2fd46c836a06233681665,64dc7df593b2ef5a07ade390,,,,,,,sngl,resources/Empty.png,resources/DG.BMP,Door3,0.236111111,0.011111111,1,0,0,0.8467,optionRight,70,12870,6,27,0,27,0,1,,,,,,,,,,,,,,,,,,,,,,,,,,,,,,,,,,,,,,,
,,,,,,,,2023-08-16_08h42.57.111,HF_wild_card,2022.2.4,Win32,29.94280923,6458fe267afe71c7aa4de260,64d2fd46c836a06233681665,64dc7df593b2ef5a07ade390,,,,,,,sngl,resources/DB.BMP,resources/Empty.png,WildCard_NonEx,-0.225925912,-0.014814843,1,0,0,0.8719,optionLeft,45,12915,6,28,0,28,0,1,,,,,,,,,,,,,,,,,,,,,,,,,,,,,,,,,,,,,,,
,,,,,,,,2023-08-16_08h42.57.111,HF_wild_card,2022.2.4,Win32,29.94280923,6458fe267afe71c7aa4de260,64d2fd46c836a06233681665,64dc7df593b2ef5a07ade390,,,,,,,decisionTrl,resources/DBN.BMP,resources/DG.BMP,Door3,0.273148176,0.049074046,1,0,0,1.3594,optionRight,70,12985,6,29,0,29,0,1,,,,,,,,,,,,,,,,,,,,,,,,,,,,,,,,,,,,,,,
,,,,,,,,2023-08-16_08h42.57.111,HF_wild_card,2022.2.4,Win32,29.94280923,6458fe267afe71c7aa4de260,64d2fd46c836a06233681665,64dc7df593b2ef5a07ade390,,,,,,,decisionTrl,resources/DBN.BMP,resources/DG.BMP,Door3,0.275,0.064814801,1,0,0,0.8882,optionRight,70,13055,6,30,0,30,0,1,,,,,,,,,,,,,,,,,,,,,,,,,,,,,,,,,,,,,,,
,,,,,,,,2023-08-16_08h42.57.111,HF_wild_card,2022.2.4,Win32,29.94280923,6458fe267afe71c7aa4de260,64d2fd46c836a06233681665,64dc7df593b2ef5a07ade390,,,,,,,decisionTrl,resources/DY.BMP,resources/DB.BMP,WildCard_NonEx,0.253703732,0.054629601,1,0,0,1.1582,optionRight,45,13100,6,31,0,31,0,1,,,,,,,,,,,,,,,,,,,,,,,,,,,,,,,,,,,,,,,
,,,,,,,,2023-08-16_08h42.57.111,HF_wild_card,2022.2.4,Win32,29.94280923,6458fe267afe71c7aa4de260,64d2fd46c836a06233681665,64dc7df593b2ef5a07ade390,,,,,,,sngl,resources/DB.BMP,resources/Empty.png,WildCard_NonEx,-0.170370314,-0.003703732,1,0,0,0.862,optionLeft,55,13155,6,32,0,32,0,1,,,,,,,,,,,,,,,,,,,,,,,,,,,,,,,,,,,,,,,
,,,,,,,,2023-08-16_08h42.57.111,HF_wild_card,2022.2.4,Win32,29.94280923,6458fe267afe71c7aa4de260,64d2fd46c836a06233681665,64dc7df593b2ef5a07ade390,,,,,,,decisionTrl,resources/DY.BMP,resources/DP.BMP,Door1,0.207407464,0.054629601,1,0,0,1.7529,optionRight,30,13185,6,33,0,33,0,1,,,,,,,,,,,,,,,,,,,,,,,,,,,,,,,,,,,,,,,
,,,,,,,,2023-08-16_08h42.57.111,HF_wild_card,2022.2.4,Win32,29.94280923,6458fe267afe71c7aa4de260,64d2fd46c836a06233681665,64dc7df593b2ef5a07ade390,,,,,,,sngl,resources/Empty.png,resources/DB.BMP,WildCard_NonEx,0.254629686,0.030555556,1,0,0,0.8289,optionRight,55,13240,6,34,0,34,0,1,,,,,,,,,,,,,,,,,,,,,,,,,,,,,,,,,,,,,,,
,,,,,,,,2023-08-16_08h42.57.111,HF_wild_card,2022.2.4,Win32,29.94280923,6458fe267afe71c7aa4de260,64d2fd46c836a06233681665,64dc7df593b2ef5a07ade390,,,,,,,decisionTrl,resources/DB.BMP,resources/DG.BMP,Door3,0.138888889,-0.014814843,1,0,0,2.2462,optionRight,70,13310,6,35,0,35,0,1,,,,,,,,,,,,,,,,,,,,,,,,,,,,,,,,,,,,,,,
,,,,,,,,2023-08-16_08h42.57.111,HF_wild_card,2022.2.4,Win32,29.94280923,6458fe267afe71c7aa4de260,64d2fd46c836a06233681665,64dc7df593b2ef5a07ade390,,,,,,,ctch,resources/DP.BMP,resources/DBN.BMP,Door4,0.245370399,0.025,1,0,0,1.1983,optionRight,80,13390,6,36,0,36,0,1,,,,,,,,,,,,,,,,,,,,,,,,,,,,,,,,,,,,,,,
,,,,,,,,2023-08-16_08h42.57.111,HF_wild_card,2022.2.4,Win32,29.94280923,6458fe267afe71c7aa4de260,64d2fd46c836a06233681665,64dc7df593b2ef5a07ade390,,,,,,,decisionTrl,resources/DB.BMP,resources/DY.BMP,WildCard_NonEx,-0.229629601,-0.008333333,1,0,0,1.2212,optionLeft,55,13445,6,37,0,37,0,1,,,,,,,,,,,,,,,,,,,,,,,,,,,,,,,,,,,,,,,
,,,,,,,,2023-08-16_08h42.57.111,HF_wild_card,2022.2.4,Win32,29.94280923,6458fe267afe71c7aa4de260,64d2fd46c836a06233681665,64dc7df593b2ef5a07ade390,,,,,,,decisionTrl,resources/DP.BMP,resources/DB.BMP,WildCard_NonEx,0.217592621,0.033333333,1,0,0,1.4299,optionRight,45,13490,6,38,0,38,0,1,,,,,,,,,,,,,,,,,,,,,,,,,,,,,,,,,,,,,,,
,,,,,,,,2023-08-16_08h42.57.111,HF_wild_card,2022.2.4,Win32,29.94280923,6458fe267afe71c7aa4de260,64d2fd46c836a06233681665,64dc7df593b2ef5a07ade390,,,,,,,decisionTrl,resources/DBN.BMP,resources/DB.BMP,Door4,-0.283333333,-0.00648151,1,0,0,0.9923,optionLeft,60,13550,6,39,0,39,0,1,,,,,,,,,,,,,,,,,,,,,,,,,,,,,,,,,,,,,,,
,,,,,,,,2023-08-16_08h42.57.111,HF_wild_card,2022.2.4,Win32,29.94280923,6458fe267afe71c7aa4de260,64d2fd46c836a06233681665,64dc7df593b2ef5a07ade390,,,,,,,sngl,resources/Empty.png,resources/DBN.BMP,Door4,0.25,0.02870369,1,0,0,0.8103,optionRight,80,13630,6,40,0,40,0,1,,,,,,,,,,,,,,,,,,,,,,,,,,,,,,,,,,,,,,,
,,,,,,,,2023-08-16_08h42.57.111,HF_wild_card,2022.2.4,Win32,29.94280923,6458fe267afe71c7aa4de260,64d2fd46c836a06233681665,64dc7df593b2ef5a07ade390,,,,,,,decisionTrl,resources/DG.BMP,resources/DBN.BMP,Door3,-0.32870369,-0.002777778,1,0,0,2.0203,optionLeft,70,13700,6,41,0,41,0,1,,,,,,,,,,,,,,,,,,,,,,,,,,,,,,,,,,,,,,,
,,,,,,,,2023-08-16_08h42.57.111,HF_wild_card,2022.2.4,Win32,29.94280923,6458fe267afe71c7aa4de260,64d2fd46c836a06233681665,64dc7df593b2ef5a07ade390,,,,,,,decisionTrl,resources/DB.BMP,resources/DBN.BMP,Door4,0.259259288,0.05370369,1,0,0,1.2481,optionRight,60,13760,6,42,0,42,0,1,,,,,,,,,,,,,,,,,,,,,,,,,,,,,,,,,,,,,,,
,,,,,,,,2023-08-16_08h42.57.111,HF_wild_card,2022.2.4,Win32,29.94280923,6458fe267afe71c7aa4de260,64d2fd46c836a06233681665,64dc7df593b2ef5a07ade390,,,,,,,decisionTrl,resources/DBN.BMP,resources/DG.BMP,Door4,-0.197222222,0.011111111,1,0,0,0.8263,optionLeft,60,13820,6,43,0,43,0,1,,,,,,,,,,,,,,,,,,,,,,,,,,,,,,,,,,,,,,,
,,,,,,,,2023-08-16_08h42.57.111,HF_wild_card,2022.2.4,Win32,29.94280923,6458fe267afe71c7aa4de260,64d2fd46c836a06233681665,64dc7df593b2ef5a07ade390,,,,,,,,,,,,,,,,,,,,,,,,,,5,0,5,0,1,,,,,,,,,,,,,,,,,,,,,,,,,,,,,,,,,,
,,,,,,,,2023-08-16_08h42.57.111,HF_wild_card,2022.2.4,Win32,29.94280923,6458fe267afe71c7aa4de260,64d2fd46c836a06233681665,64dc7df593b2ef5a07ade390,,,,,,,decisionTrl,resources/DP.BMP,resources/DY.BMP,Door1,-0.189814801,-0.136111111,1,0,0,1.2663,optionLeft,30,13850,7,0,0,0,0,1,,,,,,,,,,,,,,,,,,,,,,,,,,,,,,,,,,,,,,,
,,,,,,,,2023-08-16_08h42.57.111,HF_wild_card,2022.2.4,Win32,29.94280923,6458fe267afe71c7aa4de260,64d2fd46c836a06233681665,64dc7df593b2ef5a07ade390,,,,,,,ctch,resources/DP.BMP,resources/DBN.BMP,Door4,0.395370399,0.025,1,0,0,1.1026,optionRight,60,13910,7,1,0,1,0,1,,,,,,,,,,,,,,,,,,,,,,,,,,,,,,,,,,,,,,,
,,,,,,,,2023-08-16_08h42.57.111,HF_wild_card,2022.2.4,Win32,29.94280923,6458fe267afe71c7aa4de260,64d2fd46c836a06233681665,64dc7df593b2ef5a07ade390,,,,,,,decisionTrl,resources/DBN.BMP,resources/DG.BMP,Door3,0.30648151,0.088888889,1,0,0,2.1645,optionRight,70,13980,7,2,0,2,0,1,,,,,,,,,,,,,,,,,,,,,,,,,,,,,,,,,,,,,,,
,,,,,,,,2023-08-16_08h42.57.111,HF_wild_card,2022.2.4,Win32,29.94280923,6458fe267afe71c7aa4de260,64d2fd46c836a06233681665,64dc7df593b2ef5a07ade390,,,,,,,ctch,resources/DP.BMP,resources/DBN.BMP,Door4,0.322222222,0.032407379,1,0,0,1.4034,optionRight,60,14040,7,3,0,3,0,1,,,,,,,,,,,,,,,,,,,,,,,,,,,,,,,,,,,,,,,
,,,,,,,,2023-08-16_08h42.57.111,HF_wild_card,2022.2.4,Win32,29.94280923,6458fe267afe71c7aa4de260,64d2fd46c836a06233681665,64dc7df593b2ef5a07ade390,,,,,,,ctch,resources/DG.BMP,resources/DY.BMP,Door3,-0.367592578,-0.001851866,1,0,0,1.5588,optionLeft,70,14110,7,4,0,4,0,1,,,,,,,,,,,,,,,,,,,,,,,,,,,,,,,,,,,,,,,
,,,,,,,,2023-08-16_08h42.57.111,HF_wild_card,2022.2.4,Win32,29.94280923,6458fe267afe71c7aa4de260,64d2fd46c836a06233681665,64dc7df593b2ef5a07ade390,,,,,,,decisionTrl,resources/DG.BMP,resources/DBN.BMP,Door4,0.319444444,0.026851824,1,0,0,1.7874,optionRight,80,14190,7,5,0,5,0,1,,,,,,,,,,,,,,,,,,,,,,,,,,,,,,,,,,,,,,,
,,,,,,,,2023-08-16_08h42.57.111,HF_wild_card,2022.2.4,Win32,29.94280923,6458fe267afe71c7aa4de260,64d2fd46c836a06233681665,64dc7df593b2ef5a07ade390,,,,,,,decisionTrl,resources/DBN.BMP,resources/DG.BMP,Door3,0.358333333,0.035185157,1,0,0,1.4523,optionRight,70,14260,7,6,0,6,0,1,,,,,,,,,,,,,,,,,,,,,,,,,,,,,,,,,,,,,,,
,,,,,,,,2023-08-16_08h42.57.111,HF_wild_card,2022.2.4,Win32,29.94280923,6458fe267afe71c7aa4de260,64d2fd46c836a06233681665,64dc7df593b2ef5a07ade390,,,,,,,ctch,resources/DBN.BMP,resources/DP.BMP,Door4,-0.279629601,-0.002777778,1,0,0,0.9031,optionLeft,80,14340,7,7,0,7,0,1,,,,,,,,,,,,,,,,,,,,,,,,,,,,,,,,,,,,,,,
,,,,,,,,2023-08-16_08h42.57.111,HF_wild_card,2022.2.4,Win32,29.94280923,6458fe267afe71c7aa4de260,64d2fd46c836a06233681665,64dc7df593b2ef5a07ade390,,,,,,,ctch,resources/DG.BMP,resources/DY.BMP,Door3,-0.297222222,-0.015740755,1,0,0,1.0783,optionLeft,70,14410,7,8,0,8,0,1,,,,,,,,,,,,,,,,,,,,,,,,,,,,,,,,,,,,,,,
,,,,,,,,2023-08-16_08h42.57.111,HF_wild_card,2022.2.4,Win32,29.94280923,6458fe267afe71c7aa4de260,64d2fd46c836a06233681665,64dc7df593b2ef5a07ade390,,,,,,,decisionTrl,resources/DP.BMP,resources/DY.BMP,Door1,-0.25,-0.011111111,1,0,0,1.5716,optionLeft,30,14440,7,9,0,9,0,1,,,,,,,,,,,,,,,,,,,,,,,,,,,,,,,,,,,,,,,
,,,,,,,,2023-08-16_08h42.57.111,HF_wild_card,2022.2.4,Win32,29.94280923,6458fe267afe71c7aa4de260,64d2fd46c836a06233681665,64dc7df593b2ef5a07ade390,,,,,,,ctch,resources/DBN.BMP,resources/DP.BMP,Door4,-0.276851824,-0.001851866,1,0,0,1.2127,optionLeft,80,14520,7,10,0,10,0,1,,,,,,,,,,,,,,,,,,,,,,,,,,,,,,,,,,,,,,,
,,,,,,,,2023-08-16_08h42.57.111,HF_wild_card,2022.2.4,Win32,29.94280923,6458fe267afe71c7aa4de260,64d2fd46c836a06233681665,64dc7df593b2ef5a07ade390,,,,,,,decisionTrl,resources/DBN.BMP,resources/DG.BMP,Door4,-0.20370369,0.009259245,1,0,0,0.9059,optionLeft,80,14600,7,11,0,11,0,1,,,,,,,,,,,,,,,,,,,,,,,,,,,,,,,,,,,,,,,
,,,,,,,,2023-08-16_08h42.57.111,HF_wild_card,2022.2.4,Win32,29.94280923,6458fe267afe71c7aa4de260,64d2fd46c836a06233681665,64dc7df593b2ef5a07ade390,,,,,,,ctch,resources/DY.BMP,resources/DG.BMP,Door3,0.342592621,0.060185157,1,0,0,1.0759,optionRight,70,14670,7,12,0,12,0,1,,,,,,,,,,,,,,,,,,,,,,,,,,,,,,,,,,,,,,,
,,,,,,,,2023-08-16_08h42.57.111,HF_wild_card,2022.2.4,Win32,29.94280923,6458fe267afe71c7aa4de260,64d2fd46c836a06233681665,64dc7df593b2ef5a07ade390,,,,,,,decisionTrl,resources/DP.BMP,resources/DY.BMP,Door1,-0.223148134,-0.001851866,1,0,0,1.1801,optionLeft,30,14700,7,13,0,13,0,1,,,,,,,,,,,,,,,,,,,,,,,,,,,,,,,,,,,,,,,
,,,,,,,,2023-08-16_08h42.57.111,HF_wild_card,2022.2.4,Win32,29.94280923,6458fe267afe71c7aa4de260,64d2fd46c836a06233681665,64dc7df593b2ef5a07ade390,,,,,,,decisionTrl,resources/DY.BMP,resources/DP.BMP,Door1,0.233333333,0.023148134,1,0,0,1.0443,optionRight,30,14730,7,14,0,14,0,1,,,,,,,,,,,,,,,,,,,,,,,,,,,,,,,,,,,,,,,
,,,,,,,,2023-08-16_08h42.57.111,HF_wild_card,2022.2.4,Win32,29.94280923,6458fe267afe71c7aa4de260,64d2fd46c836a06233681665,64dc7df593b2ef5a07ade390,,,,,,,ctch,resources/DY.BMP,resources/DG.BMP,Door3,0.234259288,0.021296268,1,0,0,1.4194,optionRight,70,14800,7,15,0,15,0,1,,,,,,,,,,,,,,,,,,,,,,,,,,,,,,,,,,,,,,,
,,,,,,,,2023-08-16_08h42.57.111,HF_wild_card,2022.2.4,Win32,29.94280923,6458fe267afe71c7aa4de260,64d2fd46c836a06233681665,64dc7df593b2ef5a07ade390,,,,,,,decisionTrl,resources/DP.BMP,resources/DY.BMP,Door1,-0.252777778,0.015740712,1,0,0,1.2298,optionLeft,30,14830,7,16,0,16,0,1,,,,,,,,,,,,,,,,,,,,,,,,,,,,,,,,,,,,,,,
,,,,,,,,2023-08-16_08h42.57.111,HF_wild_card,2022.2.4,Win32,29.94280923,6458fe267afe71c7aa4de260,64d2fd46c836a06233681665,64dc7df593b2ef5a07ade390,,,,,,,decisionTrl,resources/DP.BMP,resources/DY.BMP,Door1,-0.233333333,-0.013888889,1,0,0,1.0175,optionLeft,30,14860,7,17,0,17,0,1,,,,,,,,,,,,,,,,,,,,,,,,,,,,,,,,,,,,,,,
,,,,,,,,2023-08-16_08h42.57.111,HF_wild_card,2022.2.4,Win32,29.94280923,6458fe267afe71c7aa4de260,64d2fd46c836a06233681665,64dc7df593b2ef5a07ade390,,,,,,,decisionTrl,resources/DG.BMP,resources/DBN.BMP,Door3,-0.150925869,0.010185157,1,0,0,1.7191,optionLeft,70,14930,7,18,0,18,0,1,,,,,,,,,,,,,,,,,,,,,,,,,,,,,,,,,,,,,,,
,,,,,,,,2023-08-16_08h42.57.111,HF_wild_card,2022.2.4,Win32,29.94280923,6458fe267afe71c7aa4de260,64d2fd46c836a06233681665,64dc7df593b2ef5a07ade390,,,,,,,ctch,resources/DY.BMP,resources/DG.BMP,Door3,0.304629686,0.080555556,1,0,0,1.064,optionRight,70,15000,7,19,0,19,0,1,,,,,,,,,,,,,,,,,,,,,,,,,,,,,,,,,,,,,,,
,,,,,,,,2023-08-16_08h42.57.111,HF_wild_card,2022.2.4,Win32,29.94280923,6458fe267afe71c7aa4de260,64d2fd46c836a06233681665,64dc7df593b2ef5a07ade390,,,,,,,decisionTrl,resources/DBN.BMP,resources/DG.BMP,Door3,0.313888889,0.060185157,1,0,0,1.5968,optionRight,70,15070,7,20,0,20,0,1,,,,,,,,,,,,,,,,,,,,,,,,,,,,,,,,,,,,,,,
,,,,,,,,2023-08-16_08h42.57.111,HF_wild_card,2022.2.4,Win32,29.94280923,6458fe267afe71c7aa4de260,64d2fd46c836a06233681665,64dc7df593b2ef5a07ade390,,,,,,,ctch,resources/DP.BMP,resources/DBN.BMP,Door4,0.219444444,0.061111111,1,0,0,1.0216,optionRight,80,15150,7,21,0,21,0,1,,,,,,,,,,,,,,,,,,,,,,,,,,,,,,,,,,,,,,,
,,,,,,,,2023-08-16_08h42.57.111,HF_wild_card,2022.2.4,Win32,29.94280923,6458fe267afe71c7aa4de260,64d2fd46c836a06233681665,64dc7df593b2ef5a07ade390,,,,,,,decisionTrl,resources/DG.BMP,resources/DBN.BMP,Door3,-0.269444444,-0.000925954,1,0,0,1.1787,optionLeft,70,15220,7,22,0,22,0,1,,,,,,,,,,,,,,,,,,,,,,,,,,,,,,,,,,,,,,,
,,,,,,,,2023-08-16_08h42.57.111,HF_wild_card,2022.2.4,Win32,29.94280923,6458fe267afe71c7aa4de260,64d2fd46c836a06233681665,64dc7df593b2ef5a07ade390,,,,,,,decisionTrl,resources/DG.BMP,resources/DBN.BMP,Door3,-0.215740712,0.006481467,1,0,0,0.8499,optionLeft,70,15290,7,23,0,23,0,1,,,,,,,,,,,,,,,,,,,,,,,,,,,,,,,,,,,,,,,
,,,,,,,,2023-08-16_08h42.57.111,HF_wild_card,2022.2.4,Win32,29.94280923,6458fe267afe71c7aa4de260,64d2fd46c836a06233681665,64dc7df593b2ef5a07ade390,,,,,,,decisionTrl,resources/DG.BMP,resources/DBN.BMP,Door4,0.412037065,0.096296268,1,0,0,1.4382,optionRight,60,15350,7,24,0,24,0,1,,,,,,,,,,,,,,,,,,,,,,,,,,,,,,,,,,,,,,,
,,,,,,,,2023-08-16_08h42.57.111,HF_wild_card,2022.2.4,Win32,29.94280923,6458fe267afe71c7aa4de260,64d2fd46c836a06233681665,64dc7df593b2ef5a07ade390,,,,,,,decisionTrl,resources/DBN.BMP,resources/DG.BMP,Door3,0.263888889,0.033333333,1,0,0,1.2295,optionRight,70,15420,7,25,0,25,0,1,,,,,,,,,,,,,,,,,,,,,,,,,,,,,,,,,,,,,,,
,,,,,,,,2023-08-16_08h42.57.111,HF_wild_card,2022.2.4,Win32,29.94280923,6458fe267afe71c7aa4de260,64d2fd46c836a06233681665,64dc7df593b2ef5a07ade390,,,,,,,decisionTrl,resources/DY.BMP,resources/DP.BMP,Door1,0.243518575,0.014814801,1,0,0,1.3038,optionRight,30,15450,7,26,0,26,0,1,,,,,,,,,,,,,,,,,,,,,,,,,,,,,,,,,,,,,,,
,,,,,,,,2023-08-16_08h42.57.111,HF_wild_card,2022.2.4,Win32,29.94280923,6458fe267afe71c7aa4de260,64d2fd46c836a06233681665,64dc7df593b2ef5a07ade390,,,,,,,decisionTrl,resources/DP.BMP,resources/DY.BMP,Door1,-0.163888889,-0.012962977,1,0,0,1.3299,optionLeft,30,15480,7,27,0,27,0,1,,,,,,,,,,,,,,,,,,,,,,,,,,,,,,,,,,,,,,,
,,,,,,,,2023-08-16_08h42.57.111,HF_wild_card,2022.2.4,Win32,29.94280923,6458fe267afe71c7aa4de260,64d2fd46c836a06233681665,64dc7df593b2ef5a07ade390,,,,,,,decisionTrl,resources/DG.BMP,resources/DBN.BMP,Door3,-0.22870369,0.022222222,1,0,0,1.5517,optionLeft,70,15550,7,28,0,28,0,1,,,,,,,,,,,,,,,,,,,,,,,,,,,,,,,,,,,,,,,
,,,,,,,,2023-08-16_08h42.57.111,HF_wild_card,2022.2.4,Win32,29.94280923,6458fe267afe71c7aa4de260,64d2fd46c836a06233681665,64dc7df593b2ef5a07ade390,,,,,,,decisionTrl,resources/DY.BMP,resources/DP.BMP,Door1,0.178703732,0.012037023,1,0,0,1.3347,optionRight,30,15580,7,29,0,29,0,1,,,,,,,,,,,,,,,,,,,,,,,,,,,,,,,,,,,,,,,
,,,,,,,,2023-08-16_08h42.57.111,HF_wild_card,2022.2.4,Win32,29.94280923,6458fe267afe71c7aa4de260,64d2fd46c836a06233681665,64dc7df593b2ef5a07ade390,,,,,,,decisionTrl,resources/DY.BMP,resources/DP.BMP,Door1,0.162037065,0.006481467,1,0,0,1.5406,optionRight,30,15610,7,30,0,30,0,1,,,,,,,,,,,,,,,,,,,,,,,,,,,,,,,,,,,,,,,
,,,,,,,,2023-08-16_08h42.57.111,HF_wild_card,2022.2.4,Win32,29.94280923,6458fe267afe71c7aa4de260,64d2fd46c836a06233681665,64dc7df593b2ef5a07ade390,,,,,,,ctch,resources/DBN.BMP,resources/DP.BMP,Door4,-0.181481467,0.013888889,1,0,0,1.2286,optionLeft,80,15690,7,31,0,31,0,1,,,,,,,,,,,,,,,,,,,,,,,,,,,,,,,,,,,,,,,
,,,,,,,,2023-08-16_08h42.57.111,HF_wild_card,2022.2.4,Win32,29.94280923,6458fe267afe71c7aa4de260,64d2fd46c836a06233681665,64dc7df593b2ef5a07ade390,,,,,,,decisionTrl,resources/DY.BMP,resources/DP.BMP,Door2,-0.160185157,-0.022222222,1,0,0,1.284,optionLeft,20,15710,7,32,0,32,0,1,,,,,,,,,,,,,,,,,,,,,,,,,,,,,,,,,,,,,,,
,,,,,,,,2023-08-16_08h42.57.111,HF_wild_card,2022.2.4,Win32,29.94280923,6458fe267afe71c7aa4de260,64d2fd46c836a06233681665,64dc7df593b2ef5a07ade390,,,,,,,ctch,resources/DG.BMP,resources/DY.BMP,Door3,-0.255555556,-0.025,1,0,0,1.1294,optionLeft,70,15780,7,33,0,33,0,1,,,,,,,,,,,,,,,,,,,,,,,,,,,,,,,,,,,,,,,
,,,,,,,,2023-08-16_08h42.57.111,HF_wild_card,2022.2.4,Win32,29.94280923,6458fe267afe71c7aa4de260,64d2fd46c836a06233681665,64dc7df593b2ef5a07ade390,,,,,,,decisionTrl,resources/DY.BMP,resources/DP.BMP,Door1,0.164814843,0.004629601,1,0,0,1.2754,optionRight,30,15810,7,34,0,34,0,1,,,,,,,,,,,,,,,,,,,,,,,,,,,,,,,,,,,,,,,
,,,,,,,,2023-08-16_08h42.57.111,HF_wild_card,2022.2.4,Win32,29.94280923,6458fe267afe71c7aa4de260,64d2fd46c836a06233681665,64dc7df593b2ef5a07ade390,,,,,,,decisionTrl,resources/DBN.BMP,resources/DG.BMP,Door3,0.224074131,0.030555556,1,0,0,2.0824,optionRight,70,15880,7,35,0,35,0,1,,,,,,,,,,,,,,,,,,,,,,,,,,,,,,,,,,,,,,,
,,,,,,,,2023-08-16_08h42.57.111,HF_wild_card,2022.2.4,Win32,29.94280923,6458fe267afe71c7aa4de260,64d2fd46c836a06233681665,64dc7df593b2ef5a07ade390,,,,,,,,,,,,,,,,,,,,,,,,,,6,0,6,0,1,,,,,,,,,,,,,,,,,,,,,,,,,,,,,,,,,,
,,,,,,,,2023-08-16_08h42.57.111,HF_wild_card,2022.2.4,Win32,29.94280923,6458fe267afe71c7aa4de260,64d2fd46c836a06233681665,64dc7df593b2ef5a07ade390,,,,,,,,,,,,,,,,,,,,,,,,,,,,,,,3,,,,,,,,,,,,,,,,,,,,,,,,,,,,,,,,,
,,,,,,,,2023-08-16_08h42.57.111,HF_wild_card,2022.2.4,Win32,29.94280923,6458fe267afe71c7aa4de260,64d2fd46c836a06233681665,64dc7df593b2ef5a07ade390,,,,,,,,,,,,,,,,,,,,,,,,,,,,,,,,,,,,,,,,,,,,,,,,,,,,,,,,,,,,,,,,
,,,,,,,,2023-08-16_08h42.57.111,HF_wild_card,2022.2.4,Win32,29.94280923,6458fe267afe71c7aa4de260,64d2fd46c836a06233681665,64dc7df593b2ef5a07ade390,,,,,,,,,,,,,,,,,,,,,,,,,,,,,,,,70,Door3,resources/DG.BMP,0,0,0,0,1,,,,,,,,,,,,,,,,,,,,,,,,,
,,,,,,,,2023-08-16_08h42.57.111,HF_wild_card,2022.2.4,Win32,29.94280923,6458fe267afe71c7aa4de260,64d2fd46c836a06233681665,64dc7df593b2ef5a07ade390,,,,,,,,,,,,,,,,,,,,,,,,,,,,,,,,60,Door4,resources/DBN.BMP,1,0,1,0,1,,,,,,,,,,,,,,,,,,,,,,,,,
,,,,,,,,2023-08-16_08h42.57.111,HF_wild_card,2022.2.4,Win32,29.94280923,6458fe267afe71c7aa4de260,64d2fd46c836a06233681665,64dc7df593b2ef5a07ade390,,,,,,,,,,,,,,,,,,,,,,,,,,,,,,,,55,WC_nonExtreme,resources/DB.BMP,2,0,2,0,1,,,,,,,,,,,,,,,,,,,,,,,,,
,,,,,,,,2023-08-16_08h42.57.111,HF_wild_card,2022.2.4,Win32,29.94280923,6458fe267afe71c7aa4de260,64d2fd46c836a06233681665,64dc7df593b2ef5a07ade390,,,,,,,,,,,,,,,,,,,,,,,,,,,,,,,,30,Door1,resources/DP.BMP,3,0,3,0,1,,,,,,,,,,,,,,,,,,,,,,,,,
,,,,,,,,2023-08-16_08h42.57.111,HF_wild_card,2022.2.4,Win32,29.94280923,6458fe267afe71c7aa4de260,64d2fd46c836a06233681665,64dc7df593b2ef5a07ade390,,,,,,,,,,,,,,,,,,,,,,,,,,,,,,,,20,Door2,resources/DY.BMP,4,0,4,0,1,,,,,,,,,,,,,,,,,,,,,,,,,
,,,,,,,,2023-08-16_08h42.57.111,HF_wild_card,2022.2.4,Win32,29.94280923,6458fe267afe71c7aa4de260,64d2fd46c836a06233681665,64dc7df593b2ef5a07ade390,,,,,,,,,,,,,,,,,,,,,,,,,,,,,,,,5,WC_extreme,resources/DR.BMP,5,0,5,0,1,,,,,,,,,,,,,,,,,,,,,,,,,
,,,,,,,,2023-08-16_08h42.57.111,HF_wild_card,2022.2.4,Win32,29.94280923,6458fe267afe71c7aa4de260,64d2fd46c836a06233681665,64dc7df593b2ef5a07ade390,,,,,,,,,,,,,,,,,,,,,,,,,,,,,,,,,,,,,,,,,,,,,,,,,,,,,,,,,,,,,,,,
,,,,,,,,2023-08-16_08h42.57.111,HF_wild_card,2022.2.4,Win32,29.94280923,6458fe267afe71c7aa4de260,64d2fd46c836a06233681665,64dc7df593b2ef5a07ade390,,,,,,,,,,,,,,,,,,,,,,,,,,,,,,,,,,,,,,,,0,0,0,0,1,,,,,,,,,,,,,,,,,,,,
