Condition,Low fixed image (Door1),Low risky image (Door2),High fixed image (Door3),High risky image (Door4),Extreme Wild Card,NonExtreme Wild Card,,date,expName,psychopyVersion,OS,frameRate,PROLIFIC_PID,STUDY_ID,SESSION_ID,mouse_2.x,mouse_2.y,mouse_2.leftButton,mouse_2.midButton,mouse_2.rightButton,mouse_2.clicked_name,Trial Type,Left Option Image,Right Option Image,Chosen Door,mouse.x,mouse.y,mouse.leftButton,mouse.midButton,mouse.rightButton,mouse.time,mouse.clicked_name,Feedback,Cumulative Reward,Block,trial.thisRepN,trial.thisTrialN,trial.thisN,trial.thisIndex,trial.ran,blocks.thisRepN,blocks.thisTrialN,blocks.thisN,blocks.thisIndex,blocks.ran,Money conversion,First Outcome Reported,Shown Door (First Outcome),Displayed Image (First Outcome),outcomes.thisRepN,outcomes.thisTrialN,outcomes.thisN,outcomes.thisIndex,outcomes.ran,judgments.thisRepN,judgments.thisTrialN,judgments.thisN,judgments.thisIndex,judgments.ran,freqMouse.x,freqMouse.y,freqMouse.leftButton,freqMouse.midButton,freqMouse.rightButton,freqMouse.clicked_name,FQJ for first outcome,FQJ for second outcome,Shown Door,Displayed Image,trials.thisRepN,trials.thisTrialN,trials.thisN,trials.thisIndex,trials.ran,judgBlock.thisRepN,judgBlock.thisTrialN,judgBlock.thisN,judgBlock.thisIndex,judgBlock.ran
0,resources/DBN.BMP,resources/DP.BMP,resources/DG.BMP,resources/DB.BMP,resources/DY.BMP,resources/DR.BMP,,2023-08-16_08h21.58.533,HF_wild_card,2022.2.4,Win32,60.0240096,5ba2a1c8c96df90001ce9159,64d2fd46c836a06233681665,64dc790618b0e316baade395,,,,,,,,,,,,,,,,,,,,,,,,,,,,,,,,,,,,,,,,,,,,,,,,,,,,,,,,,,,,,,,,
,,,,,,,,2023-08-16_08h21.58.533,HF_wild_card,2022.2.4,Win32,60.0240096,5ba2a1c8c96df90001ce9159,64d2fd46c836a06233681665,64dc790618b0e316baade395,-0.006481481,-0.417592593,1,0,0,agree,,,,,,,,,,,,,,,,,,,,,,,,,,,,,,,,,,,,,,,,,,,,,,,,,,,,,,,,,,
,,,,,,,,2023-08-16_08h21.58.533,HF_wild_card,2022.2.4,Win32,60.0240096,5ba2a1c8c96df90001ce9159,64d2fd46c836a06233681665,64dc790618b0e316baade395,,,,,,,,,,,,,,,,,,,,,,,,,,,,,,,,,,,,,,,,,,,,,,,,,,,,,,,,,,,,,,,,
,,,,,,,,2023-08-16_08h21.58.533,HF_wild_card,2022.2.4,Win32,60.0240096,5ba2a1c8c96df90001ce9159,64d2fd46c836a06233681665,64dc790618b0e316baade395,,,,,,,sngl,resources/Empty.png,resources/DP.BMP,Door2,0.388888889,-0.100925926,1,0,0,2.886,optionRight,20,20,1,0,0,0,0,1,,,,,,,,,,,,,,,,,,,,,,,,,,,,,,,,,,,,,,,
,,,,,,,,2023-08-16_08h21.58.533,HF_wild_card,2022.2.4,Win32,60.0240096,5ba2a1c8c96df90001ce9159,64d2fd46c836a06233681665,64dc790618b0e316baade395,,,,,,,sngl,resources/DG.BMP,resources/Empty.png,Door3,-0.394444444,-0.078703704,1,0,0,2.324,optionLeft,70,90,1,1,0,1,0,1,,,,,,,,,,,,,,,,,,,,,,,,,,,,,,,,,,,,,,,
,,,,,,,,2023-08-16_08h21.58.533,HF_wild_card,2022.2.4,Win32,60.0240096,5ba2a1c8c96df90001ce9159,64d2fd46c836a06233681665,64dc790618b0e316baade395,,,,,,,ctch,resources/DG.BMP,resources/DP.BMP,Door2,0.301851852,-0.069444444,1,0,0,1.291,optionRight,40,130,1,2,0,2,0,1,,,,,,,,,,,,,,,,,,,,,,,,,,,,,,,,,,,,,,,
,,,,,,,,2023-08-16_08h21.58.533,HF_wild_card,2022.2.4,Win32,60.0240096,5ba2a1c8c96df90001ce9159,64d2fd46c836a06233681665,64dc790618b0e316baade395,,,,,,,decisionTrl,resources/DG.BMP,resources/DY.BMP,Door3,-0.323148148,-0.043518519,1,0,0,3.509,optionLeft,70,200,1,3,0,3,0,1,,,,,,,,,,,,,,,,,,,,,,,,,,,,,,,,,,,,,,,
,,,,,,,,2023-08-16_08h21.58.533,HF_wild_card,2022.2.4,Win32,60.0240096,5ba2a1c8c96df90001ce9159,64d2fd46c836a06233681665,64dc790618b0e316baade395,,,,,,,sngl,resources/DBN.BMP,resources/Empty.png,Door1,-0.386111111,-0.038888889,1,0,0,2.759,optionLeft,30,230,1,4,0,4,0,1,,,,,,,,,,,,,,,,,,,,,,,,,,,,,,,,,,,,,,,
,,,,,,,,2023-08-16_08h21.58.533,HF_wild_card,2022.2.4,Win32,60.0240096,5ba2a1c8c96df90001ce9159,64d2fd46c836a06233681665,64dc790618b0e316baade395,,,,,,,decisionTrl,resources/DY.BMP,resources/DBN.BMP,WildCard_Ex,-0.376851852,-0.078703704,1,0,0,2.625,optionLeft,95,325,1,5,0,5,0,1,,,,,,,,,,,,,,,,,,,,,,,,,,,,,,,,,,,,,,,
,,,,,,,,2023-08-16_08h21.58.533,HF_wild_card,2022.2.4,Win32,60.0240096,5ba2a1c8c96df90001ce9159,64d2fd46c836a06233681665,64dc790618b0e316baade395,,,,,,,decisionTrl,resources/DB.BMP,resources/DG.BMP,Door3,0.417592593,-0.065740741,1,0,0,1.789,optionRight,70,395,1,6,0,6,0,1,,,,,,,,,,,,,,,,,,,,,,,,,,,,,,,,,,,,,,,
,,,,,,,,2023-08-16_08h21.58.533,HF_wild_card,2022.2.4,Win32,60.0240096,5ba2a1c8c96df90001ce9159,64d2fd46c836a06233681665,64dc790618b0e316baade395,,,,,,,ctch,resources/DB.BMP,resources/DBN.BMP,Door4,-0.280555556,-0.044444444,1,0,0,2.109,optionLeft,80,475,1,7,0,7,0,1,,,,,,,,,,,,,,,,,,,,,,,,,,,,,,,,,,,,,,,
,,,,,,,,2023-08-16_08h21.58.533,HF_wild_card,2022.2.4,Win32,60.0240096,5ba2a1c8c96df90001ce9159,64d2fd46c836a06233681665,64dc790618b0e316baade395,,,,,,,decisionTrl,resources/DBN.BMP,resources/DP.BMP,Door2,0.32037037,-0.037962963,1,0,0,0.909,optionRight,20,495,1,8,0,8,0,1,,,,,,,,,,,,,,,,,,,,,,,,,,,,,,,,,,,,,,,
,,,,,,,,2023-08-16_08h21.58.533,HF_wild_card,2022.2.4,Win32,60.0240096,5ba2a1c8c96df90001ce9159,64d2fd46c836a06233681665,64dc790618b0e316baade395,,,,,,,sngl,resources/DY.BMP,resources/Empty.png,WildCard_Ex,-0.230555556,-0.025925926,1,0,0,1.075,optionLeft,5,500,1,9,0,9,0,1,,,,,,,,,,,,,,,,,,,,,,,,,,,,,,,,,,,,,,,
,,,,,,,,2023-08-16_08h21.58.533,HF_wild_card,2022.2.4,Win32,60.0240096,5ba2a1c8c96df90001ce9159,64d2fd46c836a06233681665,64dc790618b0e316baade395,,,,,,,decisionTrl,resources/DB.BMP,resources/DG.BMP,Door3,0.309259259,-0.026851852,1,0,0,1.408,optionRight,70,570,1,10,0,10,0,1,,,,,,,,,,,,,,,,,,,,,,,,,,,,,,,,,,,,,,,
,,,,,,,,2023-08-16_08h21.58.533,HF_wild_card,2022.2.4,Win32,60.0240096,5ba2a1c8c96df90001ce9159,64d2fd46c836a06233681665,64dc790618b0e316baade395,,,,,,,decisionTrl,resources/DY.BMP,resources/DB.BMP,WildCard_Ex,-0.187962963,-0.048148148,1,0,0,1.808,optionLeft,5,575,1,11,0,11,0,1,,,,,,,,,,,,,,,,,,,,,,,,,,,,,,,,,,,,,,,
,,,,,,,,2023-08-16_08h21.58.533,HF_wild_card,2022.2.4,Win32,60.0240096,5ba2a1c8c96df90001ce9159,64d2fd46c836a06233681665,64dc790618b0e316baade395,,,,,,,sngl,resources/Empty.png,resources/DB.BMP,Door4,0.223148148,-0.011111111,1,0,0,1.01,optionRight,60,635,1,12,0,12,0,1,,,,,,,,,,,,,,,,,,,,,,,,,,,,,,,,,,,,,,,
,,,,,,,,2023-08-16_08h21.58.533,HF_wild_card,2022.2.4,Win32,60.0240096,5ba2a1c8c96df90001ce9159,64d2fd46c836a06233681665,64dc790618b0e316baade395,,,,,,,ctch,resources/DP.BMP,resources/DG.BMP,Door2,-0.35462963,-0.101851852,1,0,0,0.726,optionLeft,40,675,1,13,0,13,0,1,,,,,,,,,,,,,,,,,,,,,,,,,,,,,,,,,,,,,,,
,,,,,,,,2023-08-16_08h21.58.533,HF_wild_card,2022.2.4,Win32,60.0240096,5ba2a1c8c96df90001ce9159,64d2fd46c836a06233681665,64dc790618b0e316baade395,,,,,,,decisionTrl,resources/DG.BMP,resources/DB.BMP,Door3,-0.289814815,-0.042592593,1,0,0,0.994,optionLeft,70,745,1,14,0,14,0,1,,,,,,,,,,,,,,,,,,,,,,,,,,,,,,,,,,,,,,,
,,,,,,,,2023-08-16_08h21.58.533,HF_wild_card,2022.2.4,Win32,60.0240096,5ba2a1c8c96df90001ce9159,64d2fd46c836a06233681665,64dc790618b0e316baade395,,,,,,,decisionTrl,resources/DG.BMP,resources/DB.BMP,Door3,-0.288888889,-0.025925926,1,0,0,2.393,optionLeft,70,815,1,15,0,15,0,1,,,,,,,,,,,,,,,,,,,,,,,,,,,,,,,,,,,,,,,
,,,,,,,,2023-08-16_08h21.58.533,HF_wild_card,2022.2.4,Win32,60.0240096,5ba2a1c8c96df90001ce9159,64d2fd46c836a06233681665,64dc790618b0e316baade395,,,,,,,decisionTrl,resources/DBN.BMP,resources/DP.BMP,Door2,0.282407407,-0.056481481,1,0,0,0.807,optionRight,20,835,1,16,0,16,0,1,,,,,,,,,,,,,,,,,,,,,,,,,,,,,,,,,,,,,,,
,,,,,,,,2023-08-16_08h21.58.533,HF_wild_card,2022.2.4,Win32,60.0240096,5ba2a1c8c96df90001ce9159,64d2fd46c836a06233681665,64dc790618b0e316baade395,,,,,,,decisionTrl,resources/DP.BMP,resources/DBN.BMP,Door2,-0.365740741,-0.112037037,1,0,0,0.924,optionLeft,40,875,1,17,0,17,0,1,,,,,,,,,,,,,,,,,,,,,,,,,,,,,,,,,,,,,,,
,,,,,,,,2023-08-16_08h21.58.533,HF_wild_card,2022.2.4,Win32,60.0240096,5ba2a1c8c96df90001ce9159,64d2fd46c836a06233681665,64dc790618b0e316baade395,,,,,,,sngl,resources/Empty.png,resources/DY.BMP,WildCard_Ex,0.24537037,-0.064814815,1,0,0,0.975,optionRight,5,880,1,18,0,18,0,1,,,,,,,,,,,,,,,,,,,,,,,,,,,,,,,,,,,,,,,
,,,,,,,,2023-08-16_08h21.58.533,HF_wild_card,2022.2.4,Win32,60.0240096,5ba2a1c8c96df90001ce9159,64d2fd46c836a06233681665,64dc790618b0e316baade395,,,,,,,sngl,resources/DP.BMP,resources/Empty.png,Door2,-0.413888889,-0.109259259,1,0,0,0.926,optionLeft,40,920,1,19,0,19,0,1,,,,,,,,,,,,,,,,,,,,,,,,,,,,,,,,,,,,,,,
,,,,,,,,2023-08-16_08h21.58.533,HF_wild_card,2022.2.4,Win32,60.0240096,5ba2a1c8c96df90001ce9159,64d2fd46c836a06233681665,64dc790618b0e316baade395,,,,,,,sngl,resources/Empty.png,resources/DBN.BMP,Door1,0.396296296,-0.027777778,1,0,0,1.042,optionRight,30,950,1,20,0,20,0,1,,,,,,,,,,,,,,,,,,,,,,,,,,,,,,,,,,,,,,,
,,,,,,,,2023-08-16_08h21.58.533,HF_wild_card,2022.2.4,Win32,60.0240096,5ba2a1c8c96df90001ce9159,64d2fd46c836a06233681665,64dc790618b0e316baade395,,,,,,,decisionTrl,resources/DY.BMP,resources/DG.BMP,Door3,0.310185185,-0.073148148,1,0,0,2.026,optionRight,70,1020,1,21,0,21,0,1,,,,,,,,,,,,,,,,,,,,,,,,,,,,,,,,,,,,,,,
,,,,,,,,2023-08-16_08h21.58.533,HF_wild_card,2022.2.4,Win32,60.0240096,5ba2a1c8c96df90001ce9159,64d2fd46c836a06233681665,64dc790618b0e316baade395,,,,,,,ctch,resources/DBN.BMP,resources/DB.BMP,Door4,0.244444444,-0.049074074,1,0,0,1.709,optionRight,60,1080,1,22,0,22,0,1,,,,,,,,,,,,,,,,,,,,,,,,,,,,,,,,,,,,,,,
,,,,,,,,2023-08-16_08h21.58.533,HF_wild_card,2022.2.4,Win32,60.0240096,5ba2a1c8c96df90001ce9159,64d2fd46c836a06233681665,64dc790618b0e316baade395,,,,,,,decisionTrl,resources/DB.BMP,resources/DG.BMP,Door3,0.197222222,-0.052777778,1,0,0,1.384,optionRight,70,1150,1,23,0,23,0,1,,,,,,,,,,,,,,,,,,,,,,,,,,,,,,,,,,,,,,,
,,,,,,,,2023-08-16_08h21.58.533,HF_wild_card,2022.2.4,Win32,60.0240096,5ba2a1c8c96df90001ce9159,64d2fd46c836a06233681665,64dc790618b0e316baade395,,,,,,,decisionTrl,resources/DBN.BMP,resources/DY.BMP,WildCard_Ex,0.249074074,-0.07962963,1,0,0,1.258,optionRight,95,1245,1,24,0,24,0,1,,,,,,,,,,,,,,,,,,,,,,,,,,,,,,,,,,,,,,,
,,,,,,,,2023-08-16_08h21.58.533,HF_wild_card,2022.2.4,Win32,60.0240096,5ba2a1c8c96df90001ce9159,64d2fd46c836a06233681665,64dc790618b0e316baade395,,,,,,,ctch,resources/DB.BMP,resources/DBN.BMP,Door4,-0.398148148,-0.087962963,1,0,0,0.791,optionLeft,80,1325,1,25,0,25,0,1,,,,,,,,,,,,,,,,,,,,,,,,,,,,,,,,,,,,,,,
,,,,,,,,2023-08-16_08h21.58.533,HF_wild_card,2022.2.4,Win32,60.0240096,5ba2a1c8c96df90001ce9159,64d2fd46c836a06233681665,64dc790618b0e316baade395,,,,,,,sngl,resources/Empty.png,resources/DG.BMP,Door3,0.360185185,-0.042592593,1,0,0,0.609,optionRight,70,1395,1,26,0,26,0,1,,,,,,,,,,,,,,,,,,,,,,,,,,,,,,,,,,,,,,,
,,,,,,,,2023-08-16_08h21.58.533,HF_wild_card,2022.2.4,Win32,60.0240096,5ba2a1c8c96df90001ce9159,64d2fd46c836a06233681665,64dc790618b0e316baade395,,,,,,,decisionTrl,resources/DP.BMP,resources/DBN.BMP,Door2,-0.4,-0.1,1,0,0,0.757,optionLeft,40,1435,1,27,0,27,0,1,,,,,,,,,,,,,,,,,,,,,,,,,,,,,,,,,,,,,,,
,,,,,,,,2023-08-16_08h21.58.533,HF_wild_card,2022.2.4,Win32,60.0240096,5ba2a1c8c96df90001ce9159,64d2fd46c836a06233681665,64dc790618b0e316baade395,,,,,,,sngl,resources/DB.BMP,resources/Empty.png,Door4,-0.339814815,-0.065740741,1,0,0,1.109,optionLeft,80,1515,1,28,0,28,0,1,,,,,,,,,,,,,,,,,,,,,,,,,,,,,,,,,,,,,,,
,,,,,,,,2023-08-16_08h21.58.533,HF_wild_card,2022.2.4,Win32,60.0240096,5ba2a1c8c96df90001ce9159,64d2fd46c836a06233681665,64dc790618b0e316baade395,,,,,,,decisionTrl,resources/DG.BMP,resources/DB.BMP,Door3,-0.260185185,-0.085185185,1,0,0,2.558,optionLeft,70,1585,1,29,0,29,0,1,,,,,,,,,,,,,,,,,,,,,,,,,,,,,,,,,,,,,,,
,,,,,,,,2023-08-16_08h21.58.533,HF_wild_card,2022.2.4,Win32,60.0240096,5ba2a1c8c96df90001ce9159,64d2fd46c836a06233681665,64dc790618b0e316baade395,,,,,,,decisionTrl,resources/DP.BMP,resources/DY.BMP,Door2,-0.380555556,-0.074074074,1,0,0,1.041,optionLeft,40,1625,1,30,0,30,0,1,,,,,,,,,,,,,,,,,,,,,,,,,,,,,,,,,,,,,,,
,,,,,,,,2023-08-16_08h21.58.533,HF_wild_card,2022.2.4,Win32,60.0240096,5ba2a1c8c96df90001ce9159,64d2fd46c836a06233681665,64dc790618b0e316baade395,,,,,,,sngl,resources/Empty.png,resources/DY.BMP,WildCard_Ex,0.182407407,-0.007407407,1,0,0,0.709,optionRight,95,1720,1,31,0,31,0,1,,,,,,,,,,,,,,,,,,,,,,,,,,,,,,,,,,,,,,,
,,,,,,,,2023-08-16_08h21.58.533,HF_wild_card,2022.2.4,Win32,60.0240096,5ba2a1c8c96df90001ce9159,64d2fd46c836a06233681665,64dc790618b0e316baade395,,,,,,,decisionTrl,resources/DP.BMP,resources/DBN.BMP,Door2,-0.32962963,-0.084259259,1,0,0,0.725,optionLeft,40,1760,1,32,0,32,0,1,,,,,,,,,,,,,,,,,,,,,,,,,,,,,,,,,,,,,,,
,,,,,,,,2023-08-16_08h21.58.533,HF_wild_card,2022.2.4,Win32,60.0240096,5ba2a1c8c96df90001ce9159,64d2fd46c836a06233681665,64dc790618b0e316baade395,,,,,,,ctch,resources/DBN.BMP,resources/DB.BMP,Door4,0.25462963,-0.042592593,1,0,0,1.091,optionRight,80,1840,1,33,0,33,0,1,,,,,,,,,,,,,,,,,,,,,,,,,,,,,,,,,,,,,,,
,,,,,,,,2023-08-16_08h21.58.533,HF_wild_card,2022.2.4,Win32,60.0240096,5ba2a1c8c96df90001ce9159,64d2fd46c836a06233681665,64dc790618b0e316baade395,,,,,,,decisionTrl,resources/DP.BMP,resources/DBN.BMP,Door2,-0.409259259,-0.102777778,1,0,0,0.542,optionLeft,40,1880,1,34,0,34,0,1,,,,,,,,,,,,,,,,,,,,,,,,,,,,,,,,,,,,,,,
,,,,,,,,2023-08-16_08h21.58.533,HF_wild_card,2022.2.4,Win32,60.0240096,5ba2a1c8c96df90001ce9159,64d2fd46c836a06233681665,64dc790618b0e316baade395,,,,,,,sngl,resources/DY.BMP,resources/Empty.png,WildCard_Ex,-0.273148148,-0.05,1,0,0,1.093,optionLeft,95,1975,1,35,0,35,0,1,,,,,,,,,,,,,,,,,,,,,,,,,,,,,,,,,,,,,,,
,,,,,,,,2023-08-16_08h21.58.533,HF_wild_card,2022.2.4,Win32,60.0240096,5ba2a1c8c96df90001ce9159,64d2fd46c836a06233681665,64dc790618b0e316baade395,,,,,,,decisionTrl,resources/DB.BMP,resources/DG.BMP,Door3,0.249074074,-0.093518519,1,0,0,2.01,optionRight,70,2045,1,36,0,36,0,1,,,,,,,,,,,,,,,,,,,,,,,,,,,,,,,,,,,,,,,
,,,,,,,,2023-08-16_08h21.58.533,HF_wild_card,2022.2.4,Win32,60.0240096,5ba2a1c8c96df90001ce9159,64d2fd46c836a06233681665,64dc790618b0e316baade395,,,,,,,decisionTrl,resources/DBN.BMP,resources/DP.BMP,Door2,0.332407407,-0.049074074,1,0,0,0.659,optionRight,20,2065,1,37,0,37,0,1,,,,,,,,,,,,,,,,,,,,,,,,,,,,,,,,,,,,,,,
,,,,,,,,2023-08-16_08h21.58.533,HF_wild_card,2022.2.4,Win32,60.0240096,5ba2a1c8c96df90001ce9159,64d2fd46c836a06233681665,64dc790618b0e316baade395,,,,,,,ctch,resources/DG.BMP,resources/DP.BMP,Door2,0.262037037,-0.013888889,1,0,0,0.725,optionRight,40,2105,1,38,0,38,0,1,,,,,,,,,,,,,,,,,,,,,,,,,,,,,,,,,,,,,,,
,,,,,,,,2023-08-16_08h21.58.533,HF_wild_card,2022.2.4,Win32,60.0240096,5ba2a1c8c96df90001ce9159,64d2fd46c836a06233681665,64dc790618b0e316baade395,,,,,,,decisionTrl,resources/DB.BMP,resources/DY.BMP,WildCard_Ex,0.231481481,-0.055555556,1,0,0,1.125,optionRight,5,2110,1,39,0,39,0,1,,,,,,,,,,,,,,,,,,,,,,,,,,,,,,,,,,,,,,,
,,,,,,,,2023-08-16_08h21.58.533,HF_wild_card,2022.2.4,Win32,60.0240096,5ba2a1c8c96df90001ce9159,64d2fd46c836a06233681665,64dc790618b0e316baade395,,,,,,,decisionTrl,resources/DY.BMP,resources/DP.BMP,Door2,0.175,-0.042592593,1,0,0,0.808,optionRight,20,2130,1,40,0,40,0,1,,,,,,,,,,,,,,,,,,,,,,,,,,,,,,,,,,,,,,,
,,,,,,,,2023-08-16_08h21.58.533,HF_wild_card,2022.2.4,Win32,60.0240096,5ba2a1c8c96df90001ce9159,64d2fd46c836a06233681665,64dc790618b0e316baade395,,,,,,,decisionTrl,resources/DBN.BMP,resources/DP.BMP,Door2,0.124074074,-0.031481481,1,0,0,0.625,optionRight,40,2170,1,41,0,41,0,1,,,,,,,,,,,,,,,,,,,,,,,,,,,,,,,,,,,,,,,
,,,,,,,,2023-08-16_08h21.58.533,HF_wild_card,2022.2.4,Win32,60.0240096,5ba2a1c8c96df90001ce9159,64d2fd46c836a06233681665,64dc790618b0e316baade395,,,,,,,decisionTrl,resources/DG.BMP,resources/DB.BMP,Door3,-0.361111111,-0.043518519,1,0,0,1.291,optionLeft,70,2240,1,42,0,42,0,1,,,,,,,,,,,,,,,,,,,,,,,,,,,,,,,,,,,,,,,
,,,,,,,,2023-08-16_08h21.58.533,HF_wild_card,2022.2.4,Win32,60.0240096,5ba2a1c8c96df90001ce9159,64d2fd46c836a06233681665,64dc790618b0e316baade395,,,,,,,ctch,resources/DP.BMP,resources/DG.BMP,Door2,-0.194444444,-0.038888889,1,0,0,1.076,optionLeft,40,2280,1,43,0,43,0,1,,,,,,,,,,,,,,,,,,,,,,,,,,,,,,,,,,,,,,,
,,,,,,,,2023-08-16_08h21.58.533,HF_wild_card,2022.2.4,Win32,60.0240096,5ba2a1c8c96df90001ce9159,64d2fd46c836a06233681665,64dc790618b0e316baade395,,,,,,,,,,,,,,,,,,,,,,,,,,0,0,0,0,1,,,,,,,,,,,,,,,,,,,,,,,,,,,,,,,,,,
,,,,,,,,2023-08-16_08h21.58.533,HF_wild_card,2022.2.4,Win32,60.0240096,5ba2a1c8c96df90001ce9159,64d2fd46c836a06233681665,64dc790618b0e316baade395,,,,,,,decisionTrl,resources/DBN.BMP,resources/DP.BMP,Door2,0.293518519,-0.136111111,1,0,0,0.923,optionRight,20,2300,2,0,0,0,0,1,,,,,,,,,,,,,,,,,,,,,,,,,,,,,,,,,,,,,,,
,,,,,,,,2023-08-16_08h21.58.533,HF_wild_card,2022.2.4,Win32,60.0240096,5ba2a1c8c96df90001ce9159,64d2fd46c836a06233681665,64dc790618b0e316baade395,,,,,,,decisionTrl,resources/DG.BMP,resources/DY.BMP,Door3,-0.173148148,-0.027777778,1,0,0,1.593,optionLeft,70,2370,2,1,0,1,0,1,,,,,,,,,,,,,,,,,,,,,,,,,,,,,,,,,,,,,,,
,,,,,,,,2023-08-16_08h21.58.533,HF_wild_card,2022.2.4,Win32,60.0240096,5ba2a1c8c96df90001ce9159,64d2fd46c836a06233681665,64dc790618b0e316baade395,,,,,,,sngl,resources/Empty.png,resources/DP.BMP,Door2,0.212037037,-0.005555556,1,0,0,0.626,optionRight,40,2410,2,2,0,2,0,1,,,,,,,,,,,,,,,,,,,,,,,,,,,,,,,,,,,,,,,
,,,,,,,,2023-08-16_08h21.58.533,HF_wild_card,2022.2.4,Win32,60.0240096,5ba2a1c8c96df90001ce9159,64d2fd46c836a06233681665,64dc790618b0e316baade395,,,,,,,decisionTrl,resources/DBN.BMP,resources/DP.BMP,Door2,0.12037037,-0.023148148,1,0,0,0.875,optionRight,20,2430,2,3,0,3,0,1,,,,,,,,,,,,,,,,,,,,,,,,,,,,,,,,,,,,,,,
,,,,,,,,2023-08-16_08h21.58.533,HF_wild_card,2022.2.4,Win32,60.0240096,5ba2a1c8c96df90001ce9159,64d2fd46c836a06233681665,64dc790618b0e316baade395,,,,,,,ctch,resources/DBN.BMP,resources/DB.BMP,Door4,0.122222222,-0.012037037,1,0,0,1.06,optionRight,80,2510,2,4,0,4,0,1,,,,,,,,,,,,,,,,,,,,,,,,,,,,,,,,,,,,,,,
,,,,,,,,2023-08-16_08h21.58.533,HF_wild_card,2022.2.4,Win32,60.0240096,5ba2a1c8c96df90001ce9159,64d2fd46c836a06233681665,64dc790618b0e316baade395,,,,,,,sngl,resources/Empty.png,resources/DY.BMP,WildCard_Ex,0.097222222,-0.010185185,1,0,0,0.857,optionRight,95,2605,2,5,0,5,0,1,,,,,,,,,,,,,,,,,,,,,,,,,,,,,,,,,,,,,,,
,,,,,,,,2023-08-16_08h21.58.533,HF_wild_card,2022.2.4,Win32,60.0240096,5ba2a1c8c96df90001ce9159,64d2fd46c836a06233681665,64dc790618b0e316baade395,,,,,,,decisionTrl,resources/DG.BMP,resources/DB.BMP,Door3,-0.171296296,-0.043518519,1,0,0,1.092,optionLeft,70,2675,2,6,0,6,0,1,,,,,,,,,,,,,,,,,,,,,,,,,,,,,,,,,,,,,,,
,,,,,,,,2023-08-16_08h21.58.533,HF_wild_card,2022.2.4,Win32,60.0240096,5ba2a1c8c96df90001ce9159,64d2fd46c836a06233681665,64dc790618b0e316baade395,,,,,,,sngl,resources/DY.BMP,resources/Empty.png,WildCard_Ex,-0.160185185,-0.024074074,1,0,0,0.641,optionLeft,5,2680,2,7,0,7,0,1,,,,,,,,,,,,,,,,,,,,,,,,,,,,,,,,,,,,,,,
,,,,,,,,2023-08-16_08h21.58.533,HF_wild_card,2022.2.4,Win32,60.0240096,5ba2a1c8c96df90001ce9159,64d2fd46c836a06233681665,64dc790618b0e316baade395,,,,,,,decisionTrl,resources/DBN.BMP,resources/DY.BMP,WildCard_Ex,0.183333333,-0.044444444,1,0,0,1.161,optionRight,5,2685,2,8,0,8,0,1,,,,,,,,,,,,,,,,,,,,,,,,,,,,,,,,,,,,,,,
,,,,,,,,2023-08-16_08h21.58.533,HF_wild_card,2022.2.4,Win32,60.0240096,5ba2a1c8c96df90001ce9159,64d2fd46c836a06233681665,64dc790618b0e316baade395,,,,,,,sngl,resources/DB.BMP,resources/Empty.png,Door4,-0.35462963,-0.073148148,1,0,0,0.526,optionLeft,60,2745,2,9,0,9,0,1,,,,,,,,,,,,,,,,,,,,,,,,,,,,,,,,,,,,,,,
,,,,,,,,2023-08-16_08h21.58.533,HF_wild_card,2022.2.4,Win32,60.0240096,5ba2a1c8c96df90001ce9159,64d2fd46c836a06233681665,64dc790618b0e316baade395,,,,,,,decisionTrl,resources/DP.BMP,resources/DY.BMP,Door2,-0.365740741,-0.097222222,1,0,0,0.492,optionLeft,20,2765,2,10,0,10,0,1,,,,,,,,,,,,,,,,,,,,,,,,,,,,,,,,,,,,,,,
,,,,,,,,2023-08-16_08h21.58.533,HF_wild_card,2022.2.4,Win32,60.0240096,5ba2a1c8c96df90001ce9159,64d2fd46c836a06233681665,64dc790618b0e316baade395,,,,,,,ctch,resources/DP.BMP,resources/DG.BMP,Door2,-0.268518519,-0.064814815,1,0,0,0.743,optionLeft,20,2785,2,11,0,11,0,1,,,,,,,,,,,,,,,,,,,,,,,,,,,,,,,,,,,,,,,
,,,,,,,,2023-08-16_08h21.58.533,HF_wild_card,2022.2.4,Win32,60.0240096,5ba2a1c8c96df90001ce9159,64d2fd46c836a06233681665,64dc790618b0e316baade395,,,,,,,decisionTrl,resources/DP.BMP,resources/DBN.BMP,Door2,-0.213888889,-0.047222222,1,0,0,0.758,optionLeft,40,2825,2,12,0,12,0,1,,,,,,,,,,,,,,,,,,,,,,,,,,,,,,,,,,,,,,,
,,,,,,,,2023-08-16_08h21.58.533,HF_wild_card,2022.2.4,Win32,60.0240096,5ba2a1c8c96df90001ce9159,64d2fd46c836a06233681665,64dc790618b0e316baade395,,,,,,,sngl,resources/DBN.BMP,resources/Empty.png,Door1,-0.286111111,-0.043518519,1,0,0,0.776,optionLeft,30,2855,2,13,0,13,0,1,,,,,,,,,,,,,,,,,,,,,,,,,,,,,,,,,,,,,,,
,,,,,,,,2023-08-16_08h21.58.533,HF_wild_card,2022.2.4,Win32,60.0240096,5ba2a1c8c96df90001ce9159,64d2fd46c836a06233681665,64dc790618b0e316baade395,,,,,,,ctch,resources/DB.BMP,resources/DBN.BMP,Door4,-0.142592593,-0.071296296,1,0,0,2.675,optionLeft,60,2915,2,14,0,14,0,1,,,,,,,,,,,,,,,,,,,,,,,,,,,,,,,,,,,,,,,
,,,,,,,,2023-08-16_08h21.58.533,HF_wild_card,2022.2.4,Win32,60.0240096,5ba2a1c8c96df90001ce9159,64d2fd46c836a06233681665,64dc790618b0e316baade395,,,,,,,decisionTrl,resources/DG.BMP,resources/DB.BMP,Door3,-0.130555556,-0.02037037,1,0,0,0.991,optionLeft,70,2985,2,15,0,15,0,1,,,,,,,,,,,,,,,,,,,,,,,,,,,,,,,,,,,,,,,
,,,,,,,,2023-08-16_08h21.58.533,HF_wild_card,2022.2.4,Win32,60.0240096,5ba2a1c8c96df90001ce9159,64d2fd46c836a06233681665,64dc790618b0e316baade395,,,,,,,decisionTrl,resources/DP.BMP,resources/DBN.BMP,Door2,-0.151851852,-0.04537037,1,0,0,0.642,optionLeft,20,3005,2,16,0,16,0,1,,,,,,,,,,,,,,,,,,,,,,,,,,,,,,,,,,,,,,,
,,,,,,,,2023-08-16_08h21.58.533,HF_wild_card,2022.2.4,Win32,60.0240096,5ba2a1c8c96df90001ce9159,64d2fd46c836a06233681665,64dc790618b0e316baade395,,,,,,,decisionTrl,resources/DY.BMP,resources/DP.BMP,Door2,0.20462963,-0.086111111,1,0,0,1.041,optionRight,40,3045,2,17,0,17,0,1,,,,,,,,,,,,,,,,,,,,,,,,,,,,,,,,,,,,,,,
,,,,,,,,2023-08-16_08h21.58.533,HF_wild_card,2022.2.4,Win32,60.0240096,5ba2a1c8c96df90001ce9159,64d2fd46c836a06233681665,64dc790618b0e316baade395,,,,,,,sngl,resources/DG.BMP,resources/Empty.png,Door3,-0.12962963,-0.008333333,1,0,0,0.783,optionLeft,70,3115,2,18,0,18,0,1,,,,,,,,,,,,,,,,,,,,,,,,,,,,,,,,,,,,,,,
,,,,,,,,2023-08-16_08h21.58.533,HF_wild_card,2022.2.4,Win32,60.0240096,5ba2a1c8c96df90001ce9159,64d2fd46c836a06233681665,64dc790618b0e316baade395,,,,,,,decisionTrl,resources/DBN.BMP,resources/DP.BMP,Door2,0.218518519,-0.025,1,0,0,0.775,optionRight,40,3155,2,19,0,19,0,1,,,,,,,,,,,,,,,,,,,,,,,,,,,,,,,,,,,,,,,
,,,,,,,,2023-08-16_08h21.58.533,HF_wild_card,2022.2.4,Win32,60.0240096,5ba2a1c8c96df90001ce9159,64d2fd46c836a06233681665,64dc790618b0e316baade395,,,,,,,ctch,resources/DG.BMP,resources/DP.BMP,Door2,0.162962963,-0.047222222,1,0,0,0.891,optionRight,20,3175,2,20,0,20,0,1,,,,,,,,,,,,,,,,,,,,,,,,,,,,,,,,,,,,,,,
,,,,,,,,2023-08-16_08h21.58.533,HF_wild_card,2022.2.4,Win32,60.0240096,5ba2a1c8c96df90001ce9159,64d2fd46c836a06233681665,64dc790618b0e316baade395,,,,,,,decisionTrl,resources/DY.BMP,resources/DB.BMP,WildCard_Ex,-0.143518519,-0.033333333,1,0,0,2.523,optionLeft,95,3270,2,21,0,21,0,1,,,,,,,,,,,,,,,,,,,,,,,,,,,,,,,,,,,,,,,
,,,,,,,,2023-08-16_08h21.58.533,HF_wild_card,2022.2.4,Win32,60.0240096,5ba2a1c8c96df90001ce9159,64d2fd46c836a06233681665,64dc790618b0e316baade395,,,,,,,sngl,resources/DY.BMP,resources/Empty.png,WildCard_Ex,-0.172222222,-0.032407407,1,0,0,0.776,optionLeft,95,3365,2,22,0,22,0,1,,,,,,,,,,,,,,,,,,,,,,,,,,,,,,,,,,,,,,,
,,,,,,,,2023-08-16_08h21.58.533,HF_wild_card,2022.2.4,Win32,60.0240096,5ba2a1c8c96df90001ce9159,64d2fd46c836a06233681665,64dc790618b0e316baade395,,,,,,,decisionTrl,resources/DB.BMP,resources/DG.BMP,Door3,0.201851852,-0.037962963,1,0,0,1.492,optionRight,70,3435,2,23,0,23,0,1,,,,,,,,,,,,,,,,,,,,,,,,,,,,,,,,,,,,,,,
,,,,,,,,2023-08-16_08h21.58.533,HF_wild_card,2022.2.4,Win32,60.0240096,5ba2a1c8c96df90001ce9159,64d2fd46c836a06233681665,64dc790618b0e316baade395,,,,,,,ctch,resources/DP.BMP,resources/DG.BMP,Door2,-0.230555556,-0.038888889,1,0,0,0.694,optionLeft,20,3455,2,24,0,24,0,1,,,,,,,,,,,,,,,,,,,,,,,,,,,,,,,,,,,,,,,
,,,,,,,,2023-08-16_08h21.58.533,HF_wild_card,2022.2.4,Win32,60.0240096,5ba2a1c8c96df90001ce9159,64d2fd46c836a06233681665,64dc790618b0e316baade395,,,,,,,decisionTrl,resources/DY.BMP,resources/DBN.BMP,WildCard_Ex,-0.200925926,-0.033333333,1,0,0,1.559,optionLeft,5,3460,2,25,0,25,0,1,,,,,,,,,,,,,,,,,,,,,,,,,,,,,,,,,,,,,,,
,,,,,,,,2023-08-16_08h21.58.533,HF_wild_card,2022.2.4,Win32,60.0240096,5ba2a1c8c96df90001ce9159,64d2fd46c836a06233681665,64dc790618b0e316baade395,,,,,,,sngl,resources/Empty.png,resources/DY.BMP,WildCard_Ex,0.149074074,-0.009259259,1,0,0,0.509,optionRight,5,3465,2,26,0,26,0,1,,,,,,,,,,,,,,,,,,,,,,,,,,,,,,,,,,,,,,,
,,,,,,,,2023-08-16_08h21.58.533,HF_wild_card,2022.2.4,Win32,60.0240096,5ba2a1c8c96df90001ce9159,64d2fd46c836a06233681665,64dc790618b0e316baade395,,,,,,,decisionTrl,resources/DG.BMP,resources/DB.BMP,Door3,-0.133333333,-0.027777778,1,0,0,1.084,optionLeft,70,3535,2,27,0,27,0,1,,,,,,,,,,,,,,,,,,,,,,,,,,,,,,,,,,,,,,,
,,,,,,,,2023-08-16_08h21.58.533,HF_wild_card,2022.2.4,Win32,60.0240096,5ba2a1c8c96df90001ce9159,64d2fd46c836a06233681665,64dc790618b0e316baade395,,,,,,,decisionTrl,resources/DP.BMP,resources/DBN.BMP,Door2,-0.162037037,-0.039814815,1,0,0,0.792,optionLeft,40,3575,2,28,0,28,0,1,,,,,,,,,,,,,,,,,,,,,,,,,,,,,,,,,,,,,,,
,,,,,,,,2023-08-16_08h21.58.533,HF_wild_card,2022.2.4,Win32,60.0240096,5ba2a1c8c96df90001ce9159,64d2fd46c836a06233681665,64dc790618b0e316baade395,,,,,,,decisionTrl,resources/DB.BMP,resources/DG.BMP,Door3,0.163888889,-0.011111111,1,0,0,1.159,optionRight,70,3645,2,29,0,29,0,1,,,,,,,,,,,,,,,,,,,,,,,,,,,,,,,,,,,,,,,
,,,,,,,,2023-08-16_08h21.58.533,HF_wild_card,2022.2.4,Win32,60.0240096,5ba2a1c8c96df90001ce9159,64d2fd46c836a06233681665,64dc790618b0e316baade395,,,,,,,sngl,resources/DP.BMP,resources/Empty.png,Door2,-0.174074074,-0.022222222,1,0,0,0.823,optionLeft,20,3665,2,30,0,30,0,1,,,,,,,,,,,,,,,,,,,,,,,,,,,,,,,,,,,,,,,
,,,,,,,,2023-08-16_08h21.58.533,HF_wild_card,2022.2.4,Win32,60.0240096,5ba2a1c8c96df90001ce9159,64d2fd46c836a06233681665,64dc790618b0e316baade395,,,,,,,decisionTrl,resources/DB.BMP,resources/DY.BMP,WildCard_Ex,0.132407407,-0.010185185,1,0,0,3.025,optionRight,5,3670,2,31,0,31,0,1,,,,,,,,,,,,,,,,,,,,,,,,,,,,,,,,,,,,,,,
,,,,,,,,2023-08-16_08h21.58.533,HF_wild_card,2022.2.4,Win32,60.0240096,5ba2a1c8c96df90001ce9159,64d2fd46c836a06233681665,64dc790618b0e316baade395,,,,,,,decisionTrl,resources/DB.BMP,resources/DG.BMP,Door3,0.116666667,-0.012962963,1,0,0,1.041,optionRight,70,3740,2,32,0,32,0,1,,,,,,,,,,,,,,,,,,,,,,,,,,,,,,,,,,,,,,,
,,,,,,,,2023-08-16_08h21.58.533,HF_wild_card,2022.2.4,Win32,60.0240096,5ba2a1c8c96df90001ce9159,64d2fd46c836a06233681665,64dc790618b0e316baade395,,,,,,,decisionTrl,resources/DP.BMP,resources/DBN.BMP,Door2,-0.231481481,-0.044444444,1,0,0,0.692,optionLeft,20,3760,2,33,0,33,0,1,,,,,,,,,,,,,,,,,,,,,,,,,,,,,,,,,,,,,,,
,,,,,,,,2023-08-16_08h21.58.533,HF_wild_card,2022.2.4,Win32,60.0240096,5ba2a1c8c96df90001ce9159,64d2fd46c836a06233681665,64dc790618b0e316baade395,,,,,,,sngl,resources/Empty.png,resources/DB.BMP,Door4,0.171296296,-0.033333333,1,0,0,0.625,optionRight,80,3840,2,34,0,34,0,1,,,,,,,,,,,,,,,,,,,,,,,,,,,,,,,,,,,,,,,
,,,,,,,,2023-08-16_08h21.58.533,HF_wild_card,2022.2.4,Win32,60.0240096,5ba2a1c8c96df90001ce9159,64d2fd46c836a06233681665,64dc790618b0e316baade395,,,,,,,decisionTrl,resources/DG.BMP,resources/DB.BMP,Door3,-0.12962963,-0.024074074,1,0,0,1.242,optionLeft,70,3910,2,35,0,35,0,1,,,,,,,,,,,,,,,,,,,,,,,,,,,,,,,,,,,,,,,
,,,,,,,,2023-08-16_08h21.58.533,HF_wild_card,2022.2.4,Win32,60.0240096,5ba2a1c8c96df90001ce9159,64d2fd46c836a06233681665,64dc790618b0e316baade395,,,,,,,ctch,resources/DBN.BMP,resources/DB.BMP,Door4,0.237962963,-0.089814815,1,0,0,1.309,optionRight,80,3990,2,36,0,36,0,1,,,,,,,,,,,,,,,,,,,,,,,,,,,,,,,,,,,,,,,
,,,,,,,,2023-08-16_08h21.58.533,HF_wild_card,2022.2.4,Win32,60.0240096,5ba2a1c8c96df90001ce9159,64d2fd46c836a06233681665,64dc790618b0e316baade395,,,,,,,decisionTrl,resources/DB.BMP,resources/DG.BMP,Door3,0.324074074,-0.110185185,1,0,0,0.991,optionRight,70,4060,2,37,0,37,0,1,,,,,,,,,,,,,,,,,,,,,,,,,,,,,,,,,,,,,,,
,,,,,,,,2023-08-16_08h21.58.533,HF_wild_card,2022.2.4,Win32,60.0240096,5ba2a1c8c96df90001ce9159,64d2fd46c836a06233681665,64dc790618b0e316baade395,,,,,,,sngl,resources/Empty.png,resources/DG.BMP,Door3,0.188888889,-0.02037037,1,0,0,0.792,optionRight,70,4130,2,38,0,38,0,1,,,,,,,,,,,,,,,,,,,,,,,,,,,,,,,,,,,,,,,
,,,,,,,,2023-08-16_08h21.58.533,HF_wild_card,2022.2.4,Win32,60.0240096,5ba2a1c8c96df90001ce9159,64d2fd46c836a06233681665,64dc790618b0e316baade395,,,,,,,sngl,resources/Empty.png,resources/DBN.BMP,Door1,0.134259259,-0.037962963,1,0,0,0.959,optionRight,30,4160,2,39,0,39,0,1,,,,,,,,,,,,,,,,,,,,,,,,,,,,,,,,,,,,,,,
,,,,,,,,2023-08-16_08h21.58.533,HF_wild_card,2022.2.4,Win32,60.0240096,5ba2a1c8c96df90001ce9159,64d2fd46c836a06233681665,64dc790618b0e316baade395,,,,,,,decisionTrl,resources/DBN.BMP,resources/DP.BMP,Door2,0.181481481,-0.058333333,1,0,0,0.776,optionRight,20,4180,2,40,0,40,0,1,,,,,,,,,,,,,,,,,,,,,,,,,,,,,,,,,,,,,,,
,,,,,,,,2023-08-16_08h21.58.533,HF_wild_card,2022.2.4,Win32,60.0240096,5ba2a1c8c96df90001ce9159,64d2fd46c836a06233681665,64dc790618b0e316baade395,,,,,,,ctch,resources/DB.BMP,resources/DBN.BMP,Door4,-0.189814815,-0.046296296,1,0,0,1.509,optionLeft,80,4260,2,41,0,41,0,1,,,,,,,,,,,,,,,,,,,,,,,,,,,,,,,,,,,,,,,
,,,,,,,,2023-08-16_08h21.58.533,HF_wild_card,2022.2.4,Win32,60.0240096,5ba2a1c8c96df90001ce9159,64d2fd46c836a06233681665,64dc790618b0e316baade395,,,,,,,ctch,resources/DG.BMP,resources/DP.BMP,Door2,0.176851852,-0.058333333,1,0,0,1.023,optionRight,20,4280,2,42,0,42,0,1,,,,,,,,,,,,,,,,,,,,,,,,,,,,,,,,,,,,,,,
,,,,,,,,2023-08-16_08h21.58.533,HF_wild_card,2022.2.4,Win32,60.0240096,5ba2a1c8c96df90001ce9159,64d2fd46c836a06233681665,64dc790618b0e316baade395,,,,,,,decisionTrl,resources/DY.BMP,resources/DG.BMP,WildCard_Ex,-0.148148148,-0.064814815,1,0,0,1.025,optionLeft,5,4285,2,43,0,43,0,1,,,,,,,,,,,,,,,,,,,,,,,,,,,,,,,,,,,,,,,
,,,,,,,,2023-08-16_08h21.58.533,HF_wild_card,2022.2.4,Win32,60.0240096,5ba2a1c8c96df90001ce9159,64d2fd46c836a06233681665,64dc790618b0e316baade395,,,,,,,,,,,,,,,,,,,,,,,,,,1,0,1,0,1,,,,,,,,,,,,,,,,,,,,,,,,,,,,,,,,,,
,,,,,,,,2023-08-16_08h21.58.533,HF_wild_card,2022.2.4,Win32,60.0240096,5ba2a1c8c96df90001ce9159,64d2fd46c836a06233681665,64dc790618b0e316baade395,,,,,,,decisionTrl,resources/DP.BMP,resources/DY.BMP,Door2,-0.14537037,-0.151851852,1,0,0,0.891,optionLeft,40,4325,3,0,0,0,0,1,,,,,,,,,,,,,,,,,,,,,,,,,,,,,,,,,,,,,,,
,,,,,,,,2023-08-16_08h21.58.533,HF_wild_card,2022.2.4,Win32,60.0240096,5ba2a1c8c96df90001ce9159,64d2fd46c836a06233681665,64dc790618b0e316baade395,,,,,,,sngl,resources/Empty.png,resources/DB.BMP,Door4,0.207407407,-0.024074074,1,0,0,0.575,optionRight,60,4385,3,1,0,1,0,1,,,,,,,,,,,,,,,,,,,,,,,,,,,,,,,,,,,,,,,
,,,,,,,,2023-08-16_08h21.58.533,HF_wild_card,2022.2.4,Win32,60.0240096,5ba2a1c8c96df90001ce9159,64d2fd46c836a06233681665,64dc790618b0e316baade395,,,,,,,ctch,resources/DBN.BMP,resources/DB.BMP,Door4,0.135185185,-0.074074074,1,0,0,0.858,optionRight,80,4465,3,2,0,2,0,1,,,,,,,,,,,,,,,,,,,,,,,,,,,,,,,,,,,,,,,
,,,,,,,,2023-08-16_08h21.58.533,HF_wild_card,2022.2.4,Win32,60.0240096,5ba2a1c8c96df90001ce9159,64d2fd46c836a06233681665,64dc790618b0e316baade395,,,,,,,decisionTrl,resources/DB.BMP,resources/DG.BMP,Door3,0.196296296,-0.122222222,1,0,0,1.093,optionRight,70,4535,3,3,0,3,0,1,,,,,,,,,,,,,,,,,,,,,,,,,,,,,,,,,,,,,,,
,,,,,,,,2023-08-16_08h21.58.533,HF_wild_card,2022.2.4,Win32,60.0240096,5ba2a1c8c96df90001ce9159,64d2fd46c836a06233681665,64dc790618b0e316baade395,,,,,,,ctch,resources/DG.BMP,resources/DP.BMP,Door2,0.243518519,-0.044444444,1,0,0,1.358,optionRight,20,4555,3,4,0,4,0,1,,,,,,,,,,,,,,,,,,,,,,,,,,,,,,,,,,,,,,,
,,,,,,,,2023-08-16_08h21.58.533,HF_wild_card,2022.2.4,Win32,60.0240096,5ba2a1c8c96df90001ce9159,64d2fd46c836a06233681665,64dc790618b0e316baade395,,,,,,,ctch,resources/DB.BMP,resources/DBN.BMP,Door4,-0.173148148,-0.039814815,1,0,0,1.375,optionLeft,60,4615,3,5,0,5,0,1,,,,,,,,,,,,,,,,,,,,,,,,,,,,,,,,,,,,,,,
,,,,,,,,2023-08-16_08h21.58.533,HF_wild_card,2022.2.4,Win32,60.0240096,5ba2a1c8c96df90001ce9159,64d2fd46c836a06233681665,64dc790618b0e316baade395,,,,,,,decisionTrl,resources/DBN.BMP,resources/DP.BMP,Door2,0.125,-0.035185185,1,0,0,1.209,optionRight,20,4635,3,6,0,6,0,1,,,,,,,,,,,,,,,,,,,,,,,,,,,,,,,,,,,,,,,
,,,,,,,,2023-08-16_08h21.58.533,HF_wild_card,2022.2.4,Win32,60.0240096,5ba2a1c8c96df90001ce9159,64d2fd46c836a06233681665,64dc790618b0e316baade395,,,,,,,ctch,resources/DB.BMP,resources/DBN.BMP,Door4,-0.162962963,-0.038888889,1,0,0,1.175,optionLeft,60,4695,3,7,0,7,0,1,,,,,,,,,,,,,,,,,,,,,,,,,,,,,,,,,,,,,,,
,,,,,,,,2023-08-16_08h21.58.533,HF_wild_card,2022.2.4,Win32,60.0240096,5ba2a1c8c96df90001ce9159,64d2fd46c836a06233681665,64dc790618b0e316baade395,,,,,,,decisionTrl,resources/DP.BMP,resources/DBN.BMP,Door1,0.153703704,-0.030555556,1,0,0,0.793,optionRight,30,4725,3,8,0,8,0,1,,,,,,,,,,,,,,,,,,,,,,,,,,,,,,,,,,,,,,,
,,,,,,,,2023-08-16_08h21.58.533,HF_wild_card,2022.2.4,Win32,60.0240096,5ba2a1c8c96df90001ce9159,64d2fd46c836a06233681665,64dc790618b0e316baade395,,,,,,,decisionTrl,resources/DP.BMP,resources/DBN.BMP,Door1,0.175925926,-0.032407407,1,0,0,0.876,optionRight,30,4755,3,9,0,9,0,1,,,,,,,,,,,,,,,,,,,,,,,,,,,,,,,,,,,,,,,
,,,,,,,,2023-08-16_08h21.58.533,HF_wild_card,2022.2.4,Win32,60.0240096,5ba2a1c8c96df90001ce9159,64d2fd46c836a06233681665,64dc790618b0e316baade395,,,,,,,decisionTrl,resources/DY.BMP,resources/DG.BMP,Door3,0.223148148,-0.048148148,1,0,0,2.643,optionRight,70,4825,3,10,0,10,0,1,,,,,,,,,,,,,,,,,,,,,,,,,,,,,,,,,,,,,,,
,,,,,,,,2023-08-16_08h21.58.533,HF_wild_card,2022.2.4,Win32,60.0240096,5ba2a1c8c96df90001ce9159,64d2fd46c836a06233681665,64dc790618b0e316baade395,,,,,,,ctch,resources/DG.BMP,resources/DP.BMP,Door3,-0.150925926,-0.05,1,0,0,1.641,optionLeft,70,4895,3,11,0,11,0,1,,,,,,,,,,,,,,,,,,,,,,,,,,,,,,,,,,,,,,,
,,,,,,,,2023-08-16_08h21.58.533,HF_wild_card,2022.2.4,Win32,60.0240096,5ba2a1c8c96df90001ce9159,64d2fd46c836a06233681665,64dc790618b0e316baade395,,,,,,,decisionTrl,resources/DG.BMP,resources/DY.BMP,Door3,-0.162037037,-0.037037037,1,0,0,1.392,optionLeft,70,4965,3,12,0,12,0,1,,,,,,,,,,,,,,,,,,,,,,,,,,,,,,,,,,,,,,,
,,,,,,,,2023-08-16_08h21.58.533,HF_wild_card,2022.2.4,Win32,60.0240096,5ba2a1c8c96df90001ce9159,64d2fd46c836a06233681665,64dc790618b0e316baade395,,,,,,,decisionTrl,resources/DG.BMP,resources/DB.BMP,Door3,-0.15,-0.028703704,1,0,0,1.058,optionLeft,70,5035,3,13,0,13,0,1,,,,,,,,,,,,,,,,,,,,,,,,,,,,,,,,,,,,,,,
,,,,,,,,2023-08-16_08h21.58.533,HF_wild_card,2022.2.4,Win32,60.0240096,5ba2a1c8c96df90001ce9159,64d2fd46c836a06233681665,64dc790618b0e316baade395,,,,,,,sngl,resources/DBN.BMP,resources/Empty.png,Door1,-0.115740741,-0.023148148,1,0,0,0.893,optionLeft,30,5065,3,14,0,14,0,1,,,,,,,,,,,,,,,,,,,,,,,,,,,,,,,,,,,,,,,
,,,,,,,,2023-08-16_08h21.58.533,HF_wild_card,2022.2.4,Win32,60.0240096,5ba2a1c8c96df90001ce9159,64d2fd46c836a06233681665,64dc790618b0e316baade395,,,,,,,decisionTrl,resources/DG.BMP,resources/DB.BMP,Door3,-0.12037037,-0.024074074,1,0,0,1.276,optionLeft,70,5135,3,15,0,15,0,1,,,,,,,,,,,,,,,,,,,,,,,,,,,,,,,,,,,,,,,
,,,,,,,,2023-08-16_08h21.58.533,HF_wild_card,2022.2.4,Win32,60.0240096,5ba2a1c8c96df90001ce9159,64d2fd46c836a06233681665,64dc790618b0e316baade395,,,,,,,decisionTrl,resources/DY.BMP,resources/DB.BMP,WildCard_Ex,-0.126851852,-0.025,1,0,0,1.142,optionLeft,5,5140,3,16,0,16,0,1,,,,,,,,,,,,,,,,,,,,,,,,,,,,,,,,,,,,,,,
,,,,,,,,2023-08-16_08h21.58.533,HF_wild_card,2022.2.4,Win32,60.0240096,5ba2a1c8c96df90001ce9159,64d2fd46c836a06233681665,64dc790618b0e316baade395,,,,,,,decisionTrl,resources/DBN.BMP,resources/DP.BMP,Door2,0.167592593,-0.012962963,1,0,0,1.475,optionRight,40,5180,3,17,0,17,0,1,,,,,,,,,,,,,,,,,,,,,,,,,,,,,,,,,,,,,,,
,,,,,,,,2023-08-16_08h21.58.533,HF_wild_card,2022.2.4,Win32,60.0240096,5ba2a1c8c96df90001ce9159,64d2fd46c836a06233681665,64dc790618b0e316baade395,,,,,,,sngl,resources/DP.BMP,resources/Empty.png,Door2,-0.14537037,-0.052777778,1,0,0,0.825,optionLeft,40,5220,3,18,0,18,0,1,,,,,,,,,,,,,,,,,,,,,,,,,,,,,,,,,,,,,,,
,,,,,,,,2023-08-16_08h21.58.533,HF_wild_card,2022.2.4,Win32,60.0240096,5ba2a1c8c96df90001ce9159,64d2fd46c836a06233681665,64dc790618b0e316baade395,,,,,,,ctch,resources/DBN.BMP,resources/DB.BMP,Door4,0.163888889,-0.051851852,1,0,0,1.375,optionRight,60,5280,3,19,0,19,0,1,,,,,,,,,,,,,,,,,,,,,,,,,,,,,,,,,,,,,,,
,,,,,,,,2023-08-16_08h21.58.533,HF_wild_card,2022.2.4,Win32,60.0240096,5ba2a1c8c96df90001ce9159,64d2fd46c836a06233681665,64dc790618b0e316baade395,,,,,,,ctch,resources/DP.BMP,resources/DG.BMP,Door2,-0.17037037,-0.041666667,1,0,0,1.441,optionLeft,20,5300,3,20,0,20,0,1,,,,,,,,,,,,,,,,,,,,,,,,,,,,,,,,,,,,,,,
,,,,,,,,2023-08-16_08h21.58.533,HF_wild_card,2022.2.4,Win32,60.0240096,5ba2a1c8c96df90001ce9159,64d2fd46c836a06233681665,64dc790618b0e316baade395,,,,,,,sngl,resources/DB.BMP,resources/Empty.png,Door4,-0.235185185,-0.065740741,1,0,0,0.639,optionLeft,80,5380,3,21,0,21,0,1,,,,,,,,,,,,,,,,,,,,,,,,,,,,,,,,,,,,,,,
,,,,,,,,2023-08-16_08h21.58.533,HF_wild_card,2022.2.4,Win32,60.0240096,5ba2a1c8c96df90001ce9159,64d2fd46c836a06233681665,64dc790618b0e316baade395,,,,,,,decisionTrl,resources/DBN.BMP,resources/DP.BMP,Door2,0.148148148,-0.048148148,1,0,0,1.225,optionRight,40,5420,3,22,0,22,0,1,,,,,,,,,,,,,,,,,,,,,,,,,,,,,,,,,,,,,,,
,,,,,,,,2023-08-16_08h21.58.533,HF_wild_card,2022.2.4,Win32,60.0240096,5ba2a1c8c96df90001ce9159,64d2fd46c836a06233681665,64dc790618b0e316baade395,,,,,,,sngl,resources/Empty.png,resources/DG.BMP,Door3,0.181481481,0.008333333,1,0,0,1.393,optionRight,70,5490,3,23,0,23,0,1,,,,,,,,,,,,,,,,,,,,,,,,,,,,,,,,,,,,,,,
,,,,,,,,2023-08-16_08h21.58.533,HF_wild_card,2022.2.4,Win32,60.0240096,5ba2a1c8c96df90001ce9159,64d2fd46c836a06233681665,64dc790618b0e316baade395,,,,,,,decisionTrl,resources/DB.BMP,resources/DY.BMP,WildCard_Ex,0.190740741,-0.026851852,1,0,0,1.642,optionRight,5,5495,3,24,0,24,0,1,,,,,,,,,,,,,,,,,,,,,,,,,,,,,,,,,,,,,,,
,,,,,,,,2023-08-16_08h21.58.533,HF_wild_card,2022.2.4,Win32,60.0240096,5ba2a1c8c96df90001ce9159,64d2fd46c836a06233681665,64dc790618b0e316baade395,,,,,,,decisionTrl,resources/DBN.BMP,resources/DY.BMP,Door1,-0.160185185,-0.027777778,1,0,0,0.76,optionLeft,30,5525,3,25,0,25,0,1,,,,,,,,,,,,,,,,,,,,,,,,,,,,,,,,,,,,,,,
,,,,,,,,2023-08-16_08h21.58.533,HF_wild_card,2022.2.4,Win32,60.0240096,5ba2a1c8c96df90001ce9159,64d2fd46c836a06233681665,64dc790618b0e316baade395,,,,,,,decisionTrl,resources/DG.BMP,resources/DB.BMP,Door3,-0.152777778,-0.02962963,1,0,0,1.025,optionLeft,70,5595,3,26,0,26,0,1,,,,,,,,,,,,,,,,,,,,,,,,,,,,,,,,,,,,,,,
,,,,,,,,2023-08-16_08h21.58.533,HF_wild_card,2022.2.4,Win32,60.0240096,5ba2a1c8c96df90001ce9159,64d2fd46c836a06233681665,64dc790618b0e316baade395,,,,,,,sngl,resources/Empty.png,resources/DY.BMP,WildCard_Ex,0.110185185,-0.026851852,1,0,0,0.776,optionRight,95,5690,3,27,0,27,0,1,,,,,,,,,,,,,,,,,,,,,,,,,,,,,,,,,,,,,,,
,,,,,,,,2023-08-16_08h21.58.533,HF_wild_card,2022.2.4,Win32,60.0240096,5ba2a1c8c96df90001ce9159,64d2fd46c836a06233681665,64dc790618b0e316baade395,,,,,,,decisionTrl,resources/DP.BMP,resources/DBN.BMP,Door2,-0.136111111,-0.026851852,1,0,0,1.609,optionLeft,20,5710,3,28,0,28,0,1,,,,,,,,,,,,,,,,,,,,,,,,,,,,,,,,,,,,,,,
,,,,,,,,2023-08-16_08h21.58.533,HF_wild_card,2022.2.4,Win32,60.0240096,5ba2a1c8c96df90001ce9159,64d2fd46c836a06233681665,64dc790618b0e316baade395,,,,,,,sngl,resources/Empty.png,resources/DP.BMP,Door2,0.15462963,-0.001851852,1,0,0,0.759,optionRight,20,5730,3,29,0,29,0,1,,,,,,,,,,,,,,,,,,,,,,,,,,,,,,,,,,,,,,,
,,,,,,,,2023-08-16_08h21.58.533,HF_wild_card,2022.2.4,Win32,60.0240096,5ba2a1c8c96df90001ce9159,64d2fd46c836a06233681665,64dc790618b0e316baade395,,,,,,,decisionTrl,resources/DBN.BMP,resources/DP.BMP,Door1,-0.241666667,-0.05462963,1,0,0,0.625,optionLeft,30,5760,3,30,0,30,0,1,,,,,,,,,,,,,,,,,,,,,,,,,,,,,,,,,,,,,,,
,,,,,,,,2023-08-16_08h21.58.533,HF_wild_card,2022.2.4,Win32,60.0240096,5ba2a1c8c96df90001ce9159,64d2fd46c836a06233681665,64dc790618b0e316baade395,,,,,,,sngl,resources/DY.BMP,resources/Empty.png,WildCard_Ex,-0.138888889,-0.030555556,1,0,0,0.741,optionLeft,5,5765,3,31,0,31,0,1,,,,,,,,,,,,,,,,,,,,,,,,,,,,,,,,,,,,,,,
,,,,,,,,2023-08-16_08h21.58.533,HF_wild_card,2022.2.4,Win32,60.0240096,5ba2a1c8c96df90001ce9159,64d2fd46c836a06233681665,64dc790618b0e316baade395,,,,,,,sngl,resources/Empty.png,resources/DBN.BMP,Door1,0.244444444,-0.022222222,1,0,0,0.659,optionRight,30,5795,3,32,0,32,0,1,,,,,,,,,,,,,,,,,,,,,,,,,,,,,,,,,,,,,,,
,,,,,,,,2023-08-16_08h21.58.533,HF_wild_card,2022.2.4,Win32,60.0240096,5ba2a1c8c96df90001ce9159,64d2fd46c836a06233681665,64dc790618b0e316baade395,,,,,,,sngl,resources/Empty.png,resources/DY.BMP,WildCard_Ex,0.221296296,-0.018518519,1,0,0,0.723,optionRight,5,5800,3,33,0,33,0,1,,,,,,,,,,,,,,,,,,,,,,,,,,,,,,,,,,,,,,,
,,,,,,,,2023-08-16_08h21.58.533,HF_wild_card,2022.2.4,Win32,60.0240096,5ba2a1c8c96df90001ce9159,64d2fd46c836a06233681665,64dc790618b0e316baade395,,,,,,,decisionTrl,resources/DB.BMP,resources/DG.BMP,Door3,0.186111111,-0.014814815,1,0,0,1.559,optionRight,70,5870,3,34,0,34,0,1,,,,,,,,,,,,,,,,,,,,,,,,,,,,,,,,,,,,,,,
,,,,,,,,2023-08-16_08h21.58.533,HF_wild_card,2022.2.4,Win32,60.0240096,5ba2a1c8c96df90001ce9159,64d2fd46c836a06233681665,64dc790618b0e316baade395,,,,,,,decisionTrl,resources/DY.BMP,resources/DBN.BMP,Door1,0.187037037,-0.042592593,1,0,0,1.958,optionRight,30,5900,3,35,0,35,0,1,,,,,,,,,,,,,,,,,,,,,,,,,,,,,,,,,,,,,,,
,,,,,,,,2023-08-16_08h21.58.533,HF_wild_card,2022.2.4,Win32,60.0240096,5ba2a1c8c96df90001ce9159,64d2fd46c836a06233681665,64dc790618b0e316baade395,,,,,,,sngl,resources/DY.BMP,resources/Empty.png,WildCard_Ex,-0.201851852,-0.064814815,1,0,0,0.709,optionLeft,95,5995,3,36,0,36,0,1,,,,,,,,,,,,,,,,,,,,,,,,,,,,,,,,,,,,,,,
,,,,,,,,2023-08-16_08h21.58.533,HF_wild_card,2022.2.4,Win32,60.0240096,5ba2a1c8c96df90001ce9159,64d2fd46c836a06233681665,64dc790618b0e316baade395,,,,,,,decisionTrl,resources/DP.BMP,resources/DBN.BMP,Door2,-0.131481481,-0.041666667,1,0,0,1.609,optionLeft,20,6015,3,37,0,37,0,1,,,,,,,,,,,,,,,,,,,,,,,,,,,,,,,,,,,,,,,
,,,,,,,,2023-08-16_08h21.58.533,HF_wild_card,2022.2.4,Win32,60.0240096,5ba2a1c8c96df90001ce9159,64d2fd46c836a06233681665,64dc790618b0e316baade395,,,,,,,sngl,resources/DG.BMP,resources/Empty.png,Door3,-0.15,-0.05,1,0,0,0.724,optionLeft,70,6085,3,38,0,38,0,1,,,,,,,,,,,,,,,,,,,,,,,,,,,,,,,,,,,,,,,
,,,,,,,,2023-08-16_08h21.58.533,HF_wild_card,2022.2.4,Win32,60.0240096,5ba2a1c8c96df90001ce9159,64d2fd46c836a06233681665,64dc790618b0e316baade395,,,,,,,decisionTrl,resources/DB.BMP,resources/DG.BMP,Door3,0.193518519,-0.051851852,1,0,0,0.859,optionRight,70,6155,3,39,0,39,0,1,,,,,,,,,,,,,,,,,,,,,,,,,,,,,,,,,,,,,,,
,,,,,,,,2023-08-16_08h21.58.533,HF_wild_card,2022.2.4,Win32,60.0240096,5ba2a1c8c96df90001ce9159,64d2fd46c836a06233681665,64dc790618b0e316baade395,,,,,,,decisionTrl,resources/DG.BMP,resources/DB.BMP,Door3,-0.263888889,-0.05,1,0,0,0.692,optionLeft,70,6225,3,40,0,40,0,1,,,,,,,,,,,,,,,,,,,,,,,,,,,,,,,,,,,,,,,
,,,,,,,,2023-08-16_08h21.58.533,HF_wild_card,2022.2.4,Win32,60.0240096,5ba2a1c8c96df90001ce9159,64d2fd46c836a06233681665,64dc790618b0e316baade395,,,,,,,decisionTrl,resources/DB.BMP,resources/DG.BMP,Door3,0.307407407,-0.001851852,1,0,0,0.626,optionRight,70,6295,3,41,0,41,0,1,,,,,,,,,,,,,,,,,,,,,,,,,,,,,,,,,,,,,,,
,,,,,,,,2023-08-16_08h21.58.533,HF_wild_card,2022.2.4,Win32,60.0240096,5ba2a1c8c96df90001ce9159,64d2fd46c836a06233681665,64dc790618b0e316baade395,,,,,,,ctch,resources/DP.BMP,resources/DG.BMP,Door3,0.160185185,-0.013888889,1,0,0,1.243,optionRight,70,6365,3,42,0,42,0,1,,,,,,,,,,,,,,,,,,,,,,,,,,,,,,,,,,,,,,,
,,,,,,,,2023-08-16_08h21.58.533,HF_wild_card,2022.2.4,Win32,60.0240096,5ba2a1c8c96df90001ce9159,64d2fd46c836a06233681665,64dc790618b0e316baade395,,,,,,,decisionTrl,resources/DY.BMP,resources/DP.BMP,Door2,0.192592593,-0.002777778,1,0,0,1.243,optionRight,40,6405,3,43,0,43,0,1,,,,,,,,,,,,,,,,,,,,,,,,,,,,,,,,,,,,,,,
,,,,,,,,2023-08-16_08h21.58.533,HF_wild_card,2022.2.4,Win32,60.0240096,5ba2a1c8c96df90001ce9159,64d2fd46c836a06233681665,64dc790618b0e316baade395,,,,,,,,,,,,,,,,,,,,,,,,,,2,0,2,0,1,,,,,,,,,,,,,,,,,,,,,,,,,,,,,,,,,,
,,,,,,,,2023-08-16_08h21.58.533,HF_wild_card,2022.2.4,Win32,60.0240096,5ba2a1c8c96df90001ce9159,64d2fd46c836a06233681665,64dc790618b0e316baade395,,,,,,,sngl,resources/DR.BMP,resources/Empty.png,WildCard_NonEx,-0.214814815,-0.063888889,1,0,0,1.875,optionLeft,55,6460,4,0,0,0,0,1,,,,,,,,,,,,,,,,,,,,,,,,,,,,,,,,,,,,,,,
,,,,,,,,2023-08-16_08h21.58.533,HF_wild_card,2022.2.4,Win32,60.0240096,5ba2a1c8c96df90001ce9159,64d2fd46c836a06233681665,64dc790618b0e316baade395,,,,,,,sngl,resources/DBN.BMP,resources/Empty.png,Door1,-0.173148148,-0.037962963,1,0,0,0.689,optionLeft,30,6490,4,1,0,1,0,1,,,,,,,,,,,,,,,,,,,,,,,,,,,,,,,,,,,,,,,
,,,,,,,,2023-08-16_08h21.58.533,HF_wild_card,2022.2.4,Win32,60.0240096,5ba2a1c8c96df90001ce9159,64d2fd46c836a06233681665,64dc790618b0e316baade395,,,,,,,decisionTrl,resources/DP.BMP,resources/DR.BMP,WildCard_NonEx,0.199074074,-0.061111111,1,0,0,0.942,optionRight,55,6545,4,2,0,2,0,1,,,,,,,,,,,,,,,,,,,,,,,,,,,,,,,,,,,,,,,
,,,,,,,,2023-08-16_08h21.58.533,HF_wild_card,2022.2.4,Win32,60.0240096,5ba2a1c8c96df90001ce9159,64d2fd46c836a06233681665,64dc790618b0e316baade395,,,,,,,decisionTrl,resources/DR.BMP,resources/DG.BMP,Door3,0.133333333,-0.009259259,1,0,0,1.79,optionRight,70,6615,4,3,0,3,0,1,,,,,,,,,,,,,,,,,,,,,,,,,,,,,,,,,,,,,,,
,,,,,,,,2023-08-16_08h21.58.533,HF_wild_card,2022.2.4,Win32,60.0240096,5ba2a1c8c96df90001ce9159,64d2fd46c836a06233681665,64dc790618b0e316baade395,,,,,,,decisionTrl,resources/DR.BMP,resources/DBN.BMP,WildCard_NonEx,-0.178703704,-0.043518519,1,0,0,1.41,optionLeft,55,6670,4,4,0,4,0,1,,,,,,,,,,,,,,,,,,,,,,,,,,,,,,,,,,,,,,,
,,,,,,,,2023-08-16_08h21.58.533,HF_wild_card,2022.2.4,Win32,60.0240096,5ba2a1c8c96df90001ce9159,64d2fd46c836a06233681665,64dc790618b0e316baade395,,,,,,,decisionTrl,resources/DBN.BMP,resources/DP.BMP,Door1,-0.183333333,-0.030555556,1,0,0,2.025,optionLeft,30,6700,4,5,0,5,0,1,,,,,,,,,,,,,,,,,,,,,,,,,,,,,,,,,,,,,,,
,,,,,,,,2023-08-16_08h21.58.533,HF_wild_card,2022.2.4,Win32,60.0240096,5ba2a1c8c96df90001ce9159,64d2fd46c836a06233681665,64dc790618b0e316baade395,,,,,,,decisionTrl,resources/DBN.BMP,resources/DR.BMP,WildCard_NonEx,0.203703704,-0.014814815,1,0,0,0.758,optionRight,45,6745,4,6,0,6,0,1,,,,,,,,,,,,,,,,,,,,,,,,,,,,,,,,,,,,,,,
,,,,,,,,2023-08-16_08h21.58.533,HF_wild_card,2022.2.4,Win32,60.0240096,5ba2a1c8c96df90001ce9159,64d2fd46c836a06233681665,64dc790618b0e316baade395,,,,,,,sngl,resources/DB.BMP,resources/Empty.png,Door4,-0.182407407,-0.031481481,1,0,0,0.693,optionLeft,60,6805,4,7,0,7,0,1,,,,,,,,,,,,,,,,,,,,,,,,,,,,,,,,,,,,,,,
,,,,,,,,2023-08-16_08h21.58.533,HF_wild_card,2022.2.4,Win32,60.0240096,5ba2a1c8c96df90001ce9159,64d2fd46c836a06233681665,64dc790618b0e316baade395,,,,,,,decisionTrl,resources/DG.BMP,resources/DB.BMP,Door4,0.143518519,-0.022222222,1,0,0,0.992,optionRight,60,6865,4,8,0,8,0,1,,,,,,,,,,,,,,,,,,,,,,,,,,,,,,,,,,,,,,,
,,,,,,,,2023-08-16_08h21.58.533,HF_wild_card,2022.2.4,Win32,60.0240096,5ba2a1c8c96df90001ce9159,64d2fd46c836a06233681665,64dc790618b0e316baade395,,,,,,,sngl,resources/Empty.png,resources/DR.BMP,WildCard_NonEx,0.176851852,0.001851852,1,0,0,0.625,optionRight,55,6920,4,9,0,9,0,1,,,,,,,,,,,,,,,,,,,,,,,,,,,,,,,,,,,,,,,
,,,,,,,,2023-08-16_08h21.58.533,HF_wild_card,2022.2.4,Win32,60.0240096,5ba2a1c8c96df90001ce9159,64d2fd46c836a06233681665,64dc790618b0e316baade395,,,,,,,ctch,resources/DG.BMP,resources/DP.BMP,Door3,-0.098148148,-0.030555556,1,0,0,1.825,optionLeft,70,6990,4,10,0,10,0,1,,,,,,,,,,,,,,,,,,,,,,,,,,,,,,,,,,,,,,,
,,,,,,,,2023-08-16_08h21.58.533,HF_wild_card,2022.2.4,Win32,60.0240096,5ba2a1c8c96df90001ce9159,64d2fd46c836a06233681665,64dc790618b0e316baade395,,,,,,,sngl,resources/DG.BMP,resources/Empty.png,Door3,-0.193518519,-0.042592593,1,0,0,0.575,optionLeft,70,7060,4,11,0,11,0,1,,,,,,,,,,,,,,,,,,,,,,,,,,,,,,,,,,,,,,,
,,,,,,,,2023-08-16_08h21.58.533,HF_wild_card,2022.2.4,Win32,60.0240096,5ba2a1c8c96df90001ce9159,64d2fd46c836a06233681665,64dc790618b0e316baade395,,,,,,,sngl,resources/Empty.png,resources/DP.BMP,Door2,0.081481481,-0.021296296,1,0,0,0.676,optionRight,40,7100,4,12,0,12,0,1,,,,,,,,,,,,,,,,,,,,,,,,,,,,,,,,,,,,,,,
,,,,,,,,2023-08-16_08h21.58.533,HF_wild_card,2022.2.4,Win32,60.0240096,5ba2a1c8c96df90001ce9159,64d2fd46c836a06233681665,64dc790618b0e316baade395,,,,,,,decisionTrl,resources/DB.BMP,resources/DG.BMP,Door3,0.17962963,-0.028703704,1,0,0,1.292,optionRight,70,7170,4,13,0,13,0,1,,,,,,,,,,,,,,,,,,,,,,,,,,,,,,,,,,,,,,,
,,,,,,,,2023-08-16_08h21.58.533,HF_wild_card,2022.2.4,Win32,60.0240096,5ba2a1c8c96df90001ce9159,64d2fd46c836a06233681665,64dc790618b0e316baade395,,,,,,,decisionTrl,resources/DP.BMP,resources/DBN.BMP,Door1,0.200925926,-0.024074074,1,0,0,2.125,optionRight,30,7200,4,14,0,14,0,1,,,,,,,,,,,,,,,,,,,,,,,,,,,,,,,,,,,,,,,
,,,,,,,,2023-08-16_08h21.58.533,HF_wild_card,2022.2.4,Win32,60.0240096,5ba2a1c8c96df90001ce9159,64d2fd46c836a06233681665,64dc790618b0e316baade395,,,,,,,decisionTrl,resources/DBN.BMP,resources/DP.BMP,Door2,0.225925926,-0.002777778,1,0,0,0.575,optionRight,40,7240,4,15,0,15,0,1,,,,,,,,,,,,,,,,,,,,,,,,,,,,,,,,,,,,,,,
,,,,,,,,2023-08-16_08h21.58.533,HF_wild_card,2022.2.4,Win32,60.0240096,5ba2a1c8c96df90001ce9159,64d2fd46c836a06233681665,64dc790618b0e316baade395,,,,,,,decisionTrl,resources/DB.BMP,resources/DG.BMP,Door3,0.169444444,-0.014814815,1,0,0,1.176,optionRight,70,7310,4,16,0,16,0,1,,,,,,,,,,,,,,,,,,,,,,,,,,,,,,,,,,,,,,,
,,,,,,,,2023-08-16_08h21.58.533,HF_wild_card,2022.2.4,Win32,60.0240096,5ba2a1c8c96df90001ce9159,64d2fd46c836a06233681665,64dc790618b0e316baade395,,,,,,,ctch,resources/DG.BMP,resources/DP.BMP,Door3,-0.150925926,-0.05,1,0,0,1.009,optionLeft,70,7380,4,17,0,17,0,1,,,,,,,,,,,,,,,,,,,,,,,,,,,,,,,,,,,,,,,
,,,,,,,,2023-08-16_08h21.58.533,HF_wild_card,2022.2.4,Win32,60.0240096,5ba2a1c8c96df90001ce9159,64d2fd46c836a06233681665,64dc790618b0e316baade395,,,,,,,decisionTrl,resources/DR.BMP,resources/DP.BMP,WildCard_NonEx,-0.172222222,-0.040740741,1,0,0,1.308,optionLeft,45,7425,4,18,0,18,0,1,,,,,,,,,,,,,,,,,,,,,,,,,,,,,,,,,,,,,,,
,,,,,,,,2023-08-16_08h21.58.533,HF_wild_card,2022.2.4,Win32,60.0240096,5ba2a1c8c96df90001ce9159,64d2fd46c836a06233681665,64dc790618b0e316baade395,,,,,,,ctch,resources/DB.BMP,resources/DBN.BMP,Door1,0.212962963,0.007407407,1,0,0,1.593,optionRight,30,7455,4,19,0,19,0,1,,,,,,,,,,,,,,,,,,,,,,,,,,,,,,,,,,,,,,,
,,,,,,,,2023-08-16_08h21.58.533,HF_wild_card,2022.2.4,Win32,60.0240096,5ba2a1c8c96df90001ce9159,64d2fd46c836a06233681665,64dc790618b0e316baade395,,,,,,,sngl,resources/Empty.png,resources/DR.BMP,WildCard_NonEx,0.22962963,-0.012962963,1,0,0,0.658,optionRight,45,7500,4,20,0,20,0,1,,,,,,,,,,,,,,,,,,,,,,,,,,,,,,,,,,,,,,,
,,,,,,,,2023-08-16_08h21.58.533,HF_wild_card,2022.2.4,Win32,60.0240096,5ba2a1c8c96df90001ce9159,64d2fd46c836a06233681665,64dc790618b0e316baade395,,,,,,,decisionTrl,resources/DB.BMP,resources/DR.BMP,WildCard_NonEx,0.263888889,-0.016666667,1,0,0,1.192,optionRight,55,7555,4,21,0,21,0,1,,,,,,,,,,,,,,,,,,,,,,,,,,,,,,,,,,,,,,,
,,,,,,,,2023-08-16_08h21.58.533,HF_wild_card,2022.2.4,Win32,60.0240096,5ba2a1c8c96df90001ce9159,64d2fd46c836a06233681665,64dc790618b0e316baade395,,,,,,,sngl,resources/DR.BMP,resources/Empty.png,WildCard_NonEx,-0.174074074,-0.044444444,1,0,0,0.642,optionLeft,45,7600,4,22,0,22,0,1,,,,,,,,,,,,,,,,,,,,,,,,,,,,,,,,,,,,,,,
,,,,,,,,2023-08-16_08h21.58.533,HF_wild_card,2022.2.4,Win32,60.0240096,5ba2a1c8c96df90001ce9159,64d2fd46c836a06233681665,64dc790618b0e316baade395,,,,,,,decisionTrl,resources/DB.BMP,resources/DG.BMP,Door3,0.171296296,-0.008333333,1,0,0,1.076,optionRight,70,7670,4,23,0,23,0,1,,,,,,,,,,,,,,,,,,,,,,,,,,,,,,,,,,,,,,,
,,,,,,,,2023-08-16_08h21.58.533,HF_wild_card,2022.2.4,Win32,60.0240096,5ba2a1c8c96df90001ce9159,64d2fd46c836a06233681665,64dc790618b0e316baade395,,,,,,,decisionTrl,resources/DBN.BMP,resources/DP.BMP,Door1,-0.172222222,-0.041666667,1,0,0,1.776,optionLeft,30,7700,4,24,0,24,0,1,,,,,,,,,,,,,,,,,,,,,,,,,,,,,,,,,,,,,,,
,,,,,,,,2023-08-16_08h21.58.533,HF_wild_card,2022.2.4,Win32,60.0240096,5ba2a1c8c96df90001ce9159,64d2fd46c836a06233681665,64dc790618b0e316baade395,,,,,,,decisionTrl,resources/DB.BMP,resources/DG.BMP,Door3,0.146296296,-0.012037037,1,0,0,1.057,optionRight,70,7770,4,25,0,25,0,1,,,,,,,,,,,,,,,,,,,,,,,,,,,,,,,,,,,,,,,
,,,,,,,,2023-08-16_08h21.58.533,HF_wild_card,2022.2.4,Win32,60.0240096,5ba2a1c8c96df90001ce9159,64d2fd46c836a06233681665,64dc790618b0e316baade395,,,,,,,decisionTrl,resources/DR.BMP,resources/DB.BMP,WildCard_NonEx,-0.240740741,-0.047222222,1,0,0,1.008,optionLeft,55,7825,4,26,0,26,0,1,,,,,,,,,,,,,,,,,,,,,,,,,,,,,,,,,,,,,,,
,,,,,,,,2023-08-16_08h21.58.533,HF_wild_card,2022.2.4,Win32,60.0240096,5ba2a1c8c96df90001ce9159,64d2fd46c836a06233681665,64dc790618b0e316baade395,,,,,,,decisionTrl,resources/DBN.BMP,resources/DP.BMP,Door1,-0.185185185,-0.057407407,1,0,0,0.942,optionLeft,30,7855,4,27,0,27,0,1,,,,,,,,,,,,,,,,,,,,,,,,,,,,,,,,,,,,,,,
,,,,,,,,2023-08-16_08h21.58.533,HF_wild_card,2022.2.4,Win32,60.0240096,5ba2a1c8c96df90001ce9159,64d2fd46c836a06233681665,64dc790618b0e316baade395,,,,,,,decisionTrl,resources/DG.BMP,resources/DB.BMP,Door3,-0.224074074,-0.060185185,1,0,0,0.927,optionLeft,70,7925,4,28,0,28,0,1,,,,,,,,,,,,,,,,,,,,,,,,,,,,,,,,,,,,,,,
,,,,,,,,2023-08-16_08h21.58.533,HF_wild_card,2022.2.4,Win32,60.0240096,5ba2a1c8c96df90001ce9159,64d2fd46c836a06233681665,64dc790618b0e316baade395,,,,,,,decisionTrl,resources/DP.BMP,resources/DBN.BMP,Door1,0.110185185,-0.040740741,1,0,0,1.608,optionRight,30,7955,4,29,0,29,0,1,,,,,,,,,,,,,,,,,,,,,,,,,,,,,,,,,,,,,,,
,,,,,,,,2023-08-16_08h21.58.533,HF_wild_card,2022.2.4,Win32,60.0240096,5ba2a1c8c96df90001ce9159,64d2fd46c836a06233681665,64dc790618b0e316baade395,,,,,,,decisionTrl,resources/DP.BMP,resources/DBN.BMP,Door2,-0.296296296,-0.075,1,0,0,0.493,optionLeft,40,7995,4,30,0,30,0,1,,,,,,,,,,,,,,,,,,,,,,,,,,,,,,,,,,,,,,,
,,,,,,,,2023-08-16_08h21.58.533,HF_wild_card,2022.2.4,Win32,60.0240096,5ba2a1c8c96df90001ce9159,64d2fd46c836a06233681665,64dc790618b0e316baade395,,,,,,,sngl,resources/Empty.png,resources/DBN.BMP,Door1,0.107407407,-0.050925926,1,0,0,0.761,optionRight,30,8025,4,31,0,31,0,1,,,,,,,,,,,,,,,,,,,,,,,,,,,,,,,,,,,,,,,
,,,,,,,,2023-08-16_08h21.58.533,HF_wild_card,2022.2.4,Win32,60.0240096,5ba2a1c8c96df90001ce9159,64d2fd46c836a06233681665,64dc790618b0e316baade395,,,,,,,ctch,resources/DBN.BMP,resources/DB.BMP,Door4,0.108333333,-0.057407407,1,0,0,1.309,optionRight,60,8085,4,32,0,32,0,1,,,,,,,,,,,,,,,,,,,,,,,,,,,,,,,,,,,,,,,
,,,,,,,,2023-08-16_08h21.58.533,HF_wild_card,2022.2.4,Win32,60.0240096,5ba2a1c8c96df90001ce9159,64d2fd46c836a06233681665,64dc790618b0e316baade395,,,,,,,ctch,resources/DBN.BMP,resources/DB.BMP,Door4,0.20462963,-0.065740741,1,0,0,0.692,optionRight,80,8165,4,33,0,33,0,1,,,,,,,,,,,,,,,,,,,,,,,,,,,,,,,,,,,,,,,
,,,,,,,,2023-08-16_08h21.58.533,HF_wild_card,2022.2.4,Win32,60.0240096,5ba2a1c8c96df90001ce9159,64d2fd46c836a06233681665,64dc790618b0e316baade395,,,,,,,sngl,resources/Empty.png,resources/DG.BMP,Door3,0.319444444,-0.05,1,0,0,0.643,optionRight,70,8235,4,34,0,34,0,1,,,,,,,,,,,,,,,,,,,,,,,,,,,,,,,,,,,,,,,
,,,,,,,,2023-08-16_08h21.58.533,HF_wild_card,2022.2.4,Win32,60.0240096,5ba2a1c8c96df90001ce9159,64d2fd46c836a06233681665,64dc790618b0e316baade395,,,,,,,sngl,resources/Empty.png,resources/DB.BMP,Door4,0.275,-0.053703704,1,0,0,0.576,optionRight,80,8315,4,35,0,35,0,1,,,,,,,,,,,,,,,,,,,,,,,,,,,,,,,,,,,,,,,
,,,,,,,,2023-08-16_08h21.58.533,HF_wild_card,2022.2.4,Win32,60.0240096,5ba2a1c8c96df90001ce9159,64d2fd46c836a06233681665,64dc790618b0e316baade395,,,,,,,decisionTrl,resources/DP.BMP,resources/DBN.BMP,Door2,-0.17037037,-0.069444444,1,0,0,1.693,optionLeft,20,8335,4,36,0,36,0,1,,,,,,,,,,,,,,,,,,,,,,,,,,,,,,,,,,,,,,,
,,,,,,,,2023-08-16_08h21.58.533,HF_wild_card,2022.2.4,Win32,60.0240096,5ba2a1c8c96df90001ce9159,64d2fd46c836a06233681665,64dc790618b0e316baade395,,,,,,,ctch,resources/DB.BMP,resources/DBN.BMP,Door4,-0.165740741,-0.064814815,1,0,0,1.641,optionLeft,60,8395,4,37,0,37,0,1,,,,,,,,,,,,,,,,,,,,,,,,,,,,,,,,,,,,,,,
,,,,,,,,2023-08-16_08h21.58.533,HF_wild_card,2022.2.4,Win32,60.0240096,5ba2a1c8c96df90001ce9159,64d2fd46c836a06233681665,64dc790618b0e316baade395,,,,,,,ctch,resources/DP.BMP,resources/DG.BMP,Door3,0.200925926,-0.042592593,1,0,0,1.608,optionRight,70,8465,4,38,0,38,0,1,,,,,,,,,,,,,,,,,,,,,,,,,,,,,,,,,,,,,,,
,,,,,,,,2023-08-16_08h21.58.533,HF_wild_card,2022.2.4,Win32,60.0240096,5ba2a1c8c96df90001ce9159,64d2fd46c836a06233681665,64dc790618b0e316baade395,,,,,,,decisionTrl,resources/DG.BMP,resources/DB.BMP,Door3,-0.171296296,-0.055555556,1,0,0,0.745,optionLeft,70,8535,4,39,0,39,0,1,,,,,,,,,,,,,,,,,,,,,,,,,,,,,,,,,,,,,,,
,,,,,,,,2023-08-16_08h21.58.533,HF_wild_card,2022.2.4,Win32,60.0240096,5ba2a1c8c96df90001ce9159,64d2fd46c836a06233681665,64dc790618b0e316baade395,,,,,,,decisionTrl,resources/DG.BMP,resources/DB.BMP,Door3,-0.197222222,-0.062037037,1,0,0,0.725,optionLeft,70,8605,4,40,0,40,0,1,,,,,,,,,,,,,,,,,,,,,,,,,,,,,,,,,,,,,,,
,,,,,,,,2023-08-16_08h21.58.533,HF_wild_card,2022.2.4,Win32,60.0240096,5ba2a1c8c96df90001ce9159,64d2fd46c836a06233681665,64dc790618b0e316baade395,,,,,,,sngl,resources/DP.BMP,resources/Empty.png,Door2,-0.282407407,-0.081481481,1,0,0,1.276,optionLeft,20,8625,4,41,0,41,0,1,,,,,,,,,,,,,,,,,,,,,,,,,,,,,,,,,,,,,,,
,,,,,,,,2023-08-16_08h21.58.533,HF_wild_card,2022.2.4,Win32,60.0240096,5ba2a1c8c96df90001ce9159,64d2fd46c836a06233681665,64dc790618b0e316baade395,,,,,,,ctch,resources/DP.BMP,resources/DG.BMP,Door3,0.326851852,-0.034259259,1,0,0,0.559,optionRight,70,8695,4,42,0,42,0,1,,,,,,,,,,,,,,,,,,,,,,,,,,,,,,,,,,,,,,,
,,,,,,,,2023-08-16_08h21.58.533,HF_wild_card,2022.2.4,Win32,60.0240096,5ba2a1c8c96df90001ce9159,64d2fd46c836a06233681665,64dc790618b0e316baade395,,,,,,,decisionTrl,resources/DG.BMP,resources/DR.BMP,Door3,-0.122222222,-0.017592593,1,0,0,1.258,optionLeft,70,8765,4,43,0,43,0,1,,,,,,,,,,,,,,,,,,,,,,,,,,,,,,,,,,,,,,,
,,,,,,,,2023-08-16_08h21.58.533,HF_wild_card,2022.2.4,Win32,60.0240096,5ba2a1c8c96df90001ce9159,64d2fd46c836a06233681665,64dc790618b0e316baade395,,,,,,,,,,,,,,,,,,,,,,,,,,3,0,3,0,1,,,,,,,,,,,,,,,,,,,,,,,,,,,,,,,,,,
,,,,,,,,2023-08-16_08h21.58.533,HF_wild_card,2022.2.4,Win32,60.0240096,5ba2a1c8c96df90001ce9159,64d2fd46c836a06233681665,64dc790618b0e316baade395,,,,,,,decisionTrl,resources/DBN.BMP,resources/DP.BMP,Door1,-0.206481481,-0.124074074,1,0,0,1.074,optionLeft,30,8795,5,0,0,0,0,1,,,,,,,,,,,,,,,,,,,,,,,,,,,,,,,,,,,,,,,
,,,,,,,,2023-08-16_08h21.58.533,HF_wild_card,2022.2.4,Win32,60.0240096,5ba2a1c8c96df90001ce9159,64d2fd46c836a06233681665,64dc790618b0e316baade395,,,,,,,decisionTrl,resources/DB.BMP,resources/DG.BMP,Door3,0.199074074,-0.062962963,1,0,0,1.342,optionRight,70,8865,5,1,0,1,0,1,,,,,,,,,,,,,,,,,,,,,,,,,,,,,,,,,,,,,,,
,,,,,,,,2023-08-16_08h21.58.533,HF_wild_card,2022.2.4,Win32,60.0240096,5ba2a1c8c96df90001ce9159,64d2fd46c836a06233681665,64dc790618b0e316baade395,,,,,,,decisionTrl,resources/DBN.BMP,resources/DP.BMP,Door2,0.215740741,-0.062037037,1,0,0,1.259,optionRight,20,8885,5,2,0,2,0,1,,,,,,,,,,,,,,,,,,,,,,,,,,,,,,,,,,,,,,,
,,,,,,,,2023-08-16_08h21.58.533,HF_wild_card,2022.2.4,Win32,60.0240096,5ba2a1c8c96df90001ce9159,64d2fd46c836a06233681665,64dc790618b0e316baade395,,,,,,,sngl,resources/Empty.png,resources/DR.BMP,WildCard_NonEx,0.366666667,-0.061111111,1,0,0,0.559,optionRight,55,8940,5,3,0,3,0,1,,,,,,,,,,,,,,,,,,,,,,,,,,,,,,,,,,,,,,,
,,,,,,,,2023-08-16_08h21.58.533,HF_wild_card,2022.2.4,Win32,60.0240096,5ba2a1c8c96df90001ce9159,64d2fd46c836a06233681665,64dc790618b0e316baade395,,,,,,,decisionTrl,resources/DP.BMP,resources/DBN.BMP,Door1,0.169444444,-0.026851852,1,0,0,1.329,optionRight,30,8970,5,4,0,4,0,1,,,,,,,,,,,,,,,,,,,,,,,,,,,,,,,,,,,,,,,
,,,,,,,,2023-08-16_08h21.58.533,HF_wild_card,2022.2.4,Win32,60.0240096,5ba2a1c8c96df90001ce9159,64d2fd46c836a06233681665,64dc790618b0e316baade395,,,,,,,ctch,resources/DG.BMP,resources/DP.BMP,Door3,-0.152777778,-0.035185185,1,0,0,1.11,optionLeft,70,9040,5,5,0,5,0,1,,,,,,,,,,,,,,,,,,,,,,,,,,,,,,,,,,,,,,,
,,,,,,,,2023-08-16_08h21.58.533,HF_wild_card,2022.2.4,Win32,60.0240096,5ba2a1c8c96df90001ce9159,64d2fd46c836a06233681665,64dc790618b0e316baade395,,,,,,,sngl,resources/Empty.png,resources/DP.BMP,Door2,0.183333333,-0.02037037,1,0,0,0.639,optionRight,20,9060,5,6,0,6,0,1,,,,,,,,,,,,,,,,,,,,,,,,,,,,,,,,,,,,,,,
,,,,,,,,2023-08-16_08h21.58.533,HF_wild_card,2022.2.4,Win32,60.0240096,5ba2a1c8c96df90001ce9159,64d2fd46c836a06233681665,64dc790618b0e316baade395,,,,,,,ctch,resources/DB.BMP,resources/DBN.BMP,Door4,-0.158333333,-0.043518519,1,0,0,1.241,optionLeft,60,9120,5,7,0,7,0,1,,,,,,,,,,,,,,,,,,,,,,,,,,,,,,,,,,,,,,,
,,,,,,,,2023-08-16_08h21.58.533,HF_wild_card,2022.2.4,Win32,60.0240096,5ba2a1c8c96df90001ce9159,64d2fd46c836a06233681665,64dc790618b0e316baade395,,,,,,,ctch,resources/DB.BMP,resources/DBN.BMP,Door4,-0.241666667,-0.062962963,1,0,0,0.576,optionLeft,80,9200,5,8,0,8,0,1,,,,,,,,,,,,,,,,,,,,,,,,,,,,,,,,,,,,,,,
,,,,,,,,2023-08-16_08h21.58.533,HF_wild_card,2022.2.4,Win32,60.0240096,5ba2a1c8c96df90001ce9159,64d2fd46c836a06233681665,64dc790618b0e316baade395,,,,,,,decisionTrl,resources/DB.BMP,resources/DG.BMP,Door4,-0.264814815,-0.076851852,1,0,0,0.742,optionLeft,80,9280,5,9,0,9,0,1,,,,,,,,,,,,,,,,,,,,,,,,,,,,,,,,,,,,,,,
,,,,,,,,2023-08-16_08h21.58.533,HF_wild_card,2022.2.4,Win32,60.0240096,5ba2a1c8c96df90001ce9159,64d2fd46c836a06233681665,64dc790618b0e316baade395,,,,,,,ctch,resources/DBN.BMP,resources/DB.BMP,Door4,0.208333333,-0.012962963,1,0,0,0.742,optionRight,80,9360,5,10,0,10,0,1,,,,,,,,,,,,,,,,,,,,,,,,,,,,,,,,,,,,,,,
,,,,,,,,2023-08-16_08h21.58.533,HF_wild_card,2022.2.4,Win32,60.0240096,5ba2a1c8c96df90001ce9159,64d2fd46c836a06233681665,64dc790618b0e316baade395,,,,,,,decisionTrl,resources/DB.BMP,resources/DR.BMP,Door4,-0.200925926,-0.048148148,1,0,0,1.142,optionLeft,80,9440,5,11,0,11,0,1,,,,,,,,,,,,,,,,,,,,,,,,,,,,,,,,,,,,,,,
,,,,,,,,2023-08-16_08h21.58.533,HF_wild_card,2022.2.4,Win32,60.0240096,5ba2a1c8c96df90001ce9159,64d2fd46c836a06233681665,64dc790618b0e316baade395,,,,,,,sngl,resources/DP.BMP,resources/Empty.png,Door2,-0.188888889,-0.050925926,1,0,0,0.909,optionLeft,40,9480,5,12,0,12,0,1,,,,,,,,,,,,,,,,,,,,,,,,,,,,,,,,,,,,,,,
,,,,,,,,2023-08-16_08h21.58.533,HF_wild_card,2022.2.4,Win32,60.0240096,5ba2a1c8c96df90001ce9159,64d2fd46c836a06233681665,64dc790618b0e316baade395,,,,,,,sngl,resources/DR.BMP,resources/Empty.png,WildCard_NonEx,-0.164814815,-0.076851852,1,0,0,0.576,optionLeft,45,9525,5,13,0,13,0,1,,,,,,,,,,,,,,,,,,,,,,,,,,,,,,,,,,,,,,,
,,,,,,,,2023-08-16_08h21.58.533,HF_wild_card,2022.2.4,Win32,60.0240096,5ba2a1c8c96df90001ce9159,64d2fd46c836a06233681665,64dc790618b0e316baade395,,,,,,,sngl,resources/Empty.png,resources/DB.BMP,Door4,0.250925926,-0.030555556,1,0,0,0.525,optionRight,60,9585,5,14,0,14,0,1,,,,,,,,,,,,,,,,,,,,,,,,,,,,,,,,,,,,,,,
,,,,,,,,2023-08-16_08h21.58.533,HF_wild_card,2022.2.4,Win32,60.0240096,5ba2a1c8c96df90001ce9159,64d2fd46c836a06233681665,64dc790618b0e316baade395,,,,,,,decisionTrl,resources/DBN.BMP,resources/DP.BMP,Door1,-0.124074074,-0.055555556,1,0,0,1.808,optionLeft,30,9615,5,15,0,15,0,1,,,,,,,,,,,,,,,,,,,,,,,,,,,,,,,,,,,,,,,
,,,,,,,,2023-08-16_08h21.58.533,HF_wild_card,2022.2.4,Win32,60.0240096,5ba2a1c8c96df90001ce9159,64d2fd46c836a06233681665,64dc790618b0e316baade395,,,,,,,ctch,resources/DBN.BMP,resources/DB.BMP,Door4,0.282407407,-0.002777778,1,0,0,1.625,optionRight,80,9695,5,16,0,16,0,1,,,,,,,,,,,,,,,,,,,,,,,,,,,,,,,,,,,,,,,
,,,,,,,,2023-08-16_08h21.58.533,HF_wild_card,2022.2.4,Win32,60.0240096,5ba2a1c8c96df90001ce9159,64d2fd46c836a06233681665,64dc790618b0e316baade395,,,,,,,decisionTrl,resources/DG.BMP,resources/DB.BMP,Door4,0.242592593,-0.030555556,1,0,0,1.558,optionRight,80,9775,5,17,0,17,0,1,,,,,,,,,,,,,,,,,,,,,,,,,,,,,,,,,,,,,,,
,,,,,,,,2023-08-16_08h21.58.533,HF_wild_card,2022.2.4,Win32,60.0240096,5ba2a1c8c96df90001ce9159,64d2fd46c836a06233681665,64dc790618b0e316baade395,,,,,,,sngl,resources/Empty.png,resources/DBN.BMP,Door1,0.211111111,-0.002777778,1,0,0,0.626,optionRight,30,9805,5,18,0,18,0,1,,,,,,,,,,,,,,,,,,,,,,,,,,,,,,,,,,,,,,,
,,,,,,,,2023-08-16_08h21.58.533,HF_wild_card,2022.2.4,Win32,60.0240096,5ba2a1c8c96df90001ce9159,64d2fd46c836a06233681665,64dc790618b0e316baade395,,,,,,,decisionTrl,resources/DR.BMP,resources/DB.BMP,Door4,0.139814815,-0.00462963,1,0,0,0.973,optionRight,80,9885,5,19,0,19,0,1,,,,,,,,,,,,,,,,,,,,,,,,,,,,,,,,,,,,,,,
,,,,,,,,2023-08-16_08h21.58.533,HF_wild_card,2022.2.4,Win32,60.0240096,5ba2a1c8c96df90001ce9159,64d2fd46c836a06233681665,64dc790618b0e316baade395,,,,,,,decisionTrl,resources/DB.BMP,resources/DG.BMP,Door4,-0.12962963,-0.061111111,1,0,0,1.075,optionLeft,60,9945,5,20,0,20,0,1,,,,,,,,,,,,,,,,,,,,,,,,,,,,,,,,,,,,,,,
,,,,,,,,2023-08-16_08h21.58.533,HF_wild_card,2022.2.4,Win32,60.0240096,5ba2a1c8c96df90001ce9159,64d2fd46c836a06233681665,64dc790618b0e316baade395,,,,,,,ctch,resources/DP.BMP,resources/DG.BMP,Door3,0.219444444,-0.012962963,1,0,0,0.525,optionRight,70,10015,5,21,0,21,0,1,,,,,,,,,,,,,,,,,,,,,,,,,,,,,,,,,,,,,,,
,,,,,,,,2023-08-16_08h21.58.533,HF_wild_card,2022.2.4,Win32,60.0240096,5ba2a1c8c96df90001ce9159,64d2fd46c836a06233681665,64dc790618b0e316baade395,,,,,,,decisionTrl,resources/DG.BMP,resources/DB.BMP,Door3,-0.399074074,-0.062962963,1,0,0,0.626,optionLeft,70,10085,5,22,0,22,0,1,,,,,,,,,,,,,,,,,,,,,,,,,,,,,,,,,,,,,,,
,,,,,,,,2023-08-16_08h21.58.533,HF_wild_card,2022.2.4,Win32,60.0240096,5ba2a1c8c96df90001ce9159,64d2fd46c836a06233681665,64dc790618b0e316baade395,,,,,,,sngl,resources/DB.BMP,resources/Empty.png,Door4,-0.282407407,-0.085185185,1,0,0,0.742,optionLeft,80,10165,5,23,0,23,0,1,,,,,,,,,,,,,,,,,,,,,,,,,,,,,,,,,,,,,,,
,,,,,,,,2023-08-16_08h21.58.533,HF_wild_card,2022.2.4,Win32,60.0240096,5ba2a1c8c96df90001ce9159,64d2fd46c836a06233681665,64dc790618b0e316baade395,,,,,,,decisionTrl,resources/DG.BMP,resources/DR.BMP,Door3,-0.169444444,-0.043518519,1,0,0,1.558,optionLeft,70,10235,5,24,0,24,0,1,,,,,,,,,,,,,,,,,,,,,,,,,,,,,,,,,,,,,,,
,,,,,,,,2023-08-16_08h21.58.533,HF_wild_card,2022.2.4,Win32,60.0240096,5ba2a1c8c96df90001ce9159,64d2fd46c836a06233681665,64dc790618b0e316baade395,,,,,,,ctch,resources/DG.BMP,resources/DP.BMP,Door3,-0.268518519,-0.062962963,1,0,0,0.943,optionLeft,70,10305,5,25,0,25,0,1,,,,,,,,,,,,,,,,,,,,,,,,,,,,,,,,,,,,,,,
,,,,,,,,2023-08-16_08h21.58.533,HF_wild_card,2022.2.4,Win32,60.0240096,5ba2a1c8c96df90001ce9159,64d2fd46c836a06233681665,64dc790618b0e316baade395,,,,,,,sngl,resources/DBN.BMP,resources/Empty.png,Door1,-0.226851852,-0.049074074,1,0,0,0.776,optionLeft,30,10335,5,26,0,26,0,1,,,,,,,,,,,,,,,,,,,,,,,,,,,,,,,,,,,,,,,
,,,,,,,,2023-08-16_08h21.58.533,HF_wild_card,2022.2.4,Win32,60.0240096,5ba2a1c8c96df90001ce9159,64d2fd46c836a06233681665,64dc790618b0e316baade395,,,,,,,decisionTrl,resources/DBN.BMP,resources/DP.BMP,Door1,-0.210185185,-0.048148148,1,0,0,0.926,optionLeft,30,10365,5,27,0,27,0,1,,,,,,,,,,,,,,,,,,,,,,,,,,,,,,,,,,,,,,,
,,,,,,,,2023-08-16_08h21.58.533,HF_wild_card,2022.2.4,Win32,60.0240096,5ba2a1c8c96df90001ce9159,64d2fd46c836a06233681665,64dc790618b0e316baade395,,,,,,,decisionTrl,resources/DP.BMP,resources/DBN.BMP,Door1,0.178703704,-0.010185185,1,0,0,0.692,optionRight,30,10395,5,28,0,28,0,1,,,,,,,,,,,,,,,,,,,,,,,,,,,,,,,,,,,,,,,
,,,,,,,,2023-08-16_08h21.58.533,HF_wild_card,2022.2.4,Win32,60.0240096,5ba2a1c8c96df90001ce9159,64d2fd46c836a06233681665,64dc790618b0e316baade395,,,,,,,decisionTrl,resources/DR.BMP,resources/DBN.BMP,WildCard_NonEx,-0.221296296,-0.043518519,1,0,0,1.509,optionLeft,55,10450,5,29,0,29,0,1,,,,,,,,,,,,,,,,,,,,,,,,,,,,,,,,,,,,,,,
,,,,,,,,2023-08-16_08h21.58.533,HF_wild_card,2022.2.4,Win32,60.0240096,5ba2a1c8c96df90001ce9159,64d2fd46c836a06233681665,64dc790618b0e316baade395,,,,,,,sngl,resources/DG.BMP,resources/Empty.png,Door3,-0.275,-0.032407407,1,0,0,0.655,optionLeft,70,10520,5,30,0,30,0,1,,,,,,,,,,,,,,,,,,,,,,,,,,,,,,,,,,,,,,,
,,,,,,,,2023-08-16_08h21.58.533,HF_wild_card,2022.2.4,Win32,60.0240096,5ba2a1c8c96df90001ce9159,64d2fd46c836a06233681665,64dc790618b0e316baade395,,,,,,,decisionTrl,resources/DR.BMP,resources/DP.BMP,WildCard_NonEx,-0.153703704,-0.046296296,1,0,0,1.292,optionLeft,55,10575,5,31,0,31,0,1,,,,,,,,,,,,,,,,,,,,,,,,,,,,,,,,,,,,,,,
,,,,,,,,2023-08-16_08h21.58.533,HF_wild_card,2022.2.4,Win32,60.0240096,5ba2a1c8c96df90001ce9159,64d2fd46c836a06233681665,64dc790618b0e316baade395,,,,,,,sngl,resources/Empty.png,resources/DG.BMP,Door3,0.141666667,-0.058333333,1,0,0,0.66,optionRight,70,10645,5,32,0,32,0,1,,,,,,,,,,,,,,,,,,,,,,,,,,,,,,,,,,,,,,,
,,,,,,,,2023-08-16_08h21.58.533,HF_wild_card,2022.2.4,Win32,60.0240096,5ba2a1c8c96df90001ce9159,64d2fd46c836a06233681665,64dc790618b0e316baade395,,,,,,,decisionTrl,resources/DB.BMP,resources/DG.BMP,Door4,-0.187037037,-0.102777778,1,0,0,1.442,optionLeft,60,10705,5,33,0,33,0,1,,,,,,,,,,,,,,,,,,,,,,,,,,,,,,,,,,,,,,,
,,,,,,,,2023-08-16_08h21.58.533,HF_wild_card,2022.2.4,Win32,60.0240096,5ba2a1c8c96df90001ce9159,64d2fd46c836a06233681665,64dc790618b0e316baade395,,,,,,,decisionTrl,resources/DBN.BMP,resources/DR.BMP,WildCard_NonEx,0.118518519,-0.036111111,1,0,0,1.09,optionRight,45,10750,5,34,0,34,0,1,,,,,,,,,,,,,,,,,,,,,,,,,,,,,,,,,,,,,,,
,,,,,,,,2023-08-16_08h21.58.533,HF_wild_card,2022.2.4,Win32,60.0240096,5ba2a1c8c96df90001ce9159,64d2fd46c836a06233681665,64dc790618b0e316baade395,,,,,,,sngl,resources/DR.BMP,resources/Empty.png,WildCard_NonEx,-0.17037037,-0.043518519,1,0,0,0.509,optionLeft,55,10805,5,35,0,35,0,1,,,,,,,,,,,,,,,,,,,,,,,,,,,,,,,,,,,,,,,
,,,,,,,,2023-08-16_08h21.58.533,HF_wild_card,2022.2.4,Win32,60.0240096,5ba2a1c8c96df90001ce9159,64d2fd46c836a06233681665,64dc790618b0e316baade395,,,,,,,ctch,resources/DP.BMP,resources/DG.BMP,Door3,0.174074074,-0.030555556,1,0,0,0.997,optionRight,70,10875,5,36,0,36,0,1,,,,,,,,,,,,,,,,,,,,,,,,,,,,,,,,,,,,,,,
,,,,,,,,2023-08-16_08h21.58.533,HF_wild_card,2022.2.4,Win32,60.0240096,5ba2a1c8c96df90001ce9159,64d2fd46c836a06233681665,64dc790618b0e316baade395,,,,,,,decisionTrl,resources/DG.BMP,resources/DB.BMP,Door3,-0.225925926,-0.051851852,1,0,0,0.876,optionLeft,70,10945,5,37,0,37,0,1,,,,,,,,,,,,,,,,,,,,,,,,,,,,,,,,,,,,,,,
,,,,,,,,2023-08-16_08h21.58.533,HF_wild_card,2022.2.4,Win32,60.0240096,5ba2a1c8c96df90001ce9159,64d2fd46c836a06233681665,64dc790618b0e316baade395,,,,,,,sngl,resources/Empty.png,resources/DR.BMP,WildCard_NonEx,0.263888889,-0.005555556,1,0,0,0.591,optionRight,45,10990,5,38,0,38,0,1,,,,,,,,,,,,,,,,,,,,,,,,,,,,,,,,,,,,,,,
,,,,,,,,2023-08-16_08h21.58.533,HF_wild_card,2022.2.4,Win32,60.0240096,5ba2a1c8c96df90001ce9159,64d2fd46c836a06233681665,64dc790618b0e316baade395,,,,,,,decisionTrl,resources/DP.BMP,resources/DBN.BMP,Door1,0.143518519,-0.025,1,0,0,0.842,optionRight,30,11020,5,39,0,39,0,1,,,,,,,,,,,,,,,,,,,,,,,,,,,,,,,,,,,,,,,
,,,,,,,,2023-08-16_08h21.58.533,HF_wild_card,2022.2.4,Win32,60.0240096,5ba2a1c8c96df90001ce9159,64d2fd46c836a06233681665,64dc790618b0e316baade395,,,,,,,decisionTrl,resources/DP.BMP,resources/DBN.BMP,Door1,0.17037037,-0.02962963,1,0,0,0.744,optionRight,30,11050,5,40,0,40,0,1,,,,,,,,,,,,,,,,,,,,,,,,,,,,,,,,,,,,,,,
,,,,,,,,2023-08-16_08h21.58.533,HF_wild_card,2022.2.4,Win32,60.0240096,5ba2a1c8c96df90001ce9159,64d2fd46c836a06233681665,64dc790618b0e316baade395,,,,,,,decisionTrl,resources/DG.BMP,resources/DB.BMP,Door3,-0.139814815,-0.036111111,1,0,0,1.558,optionLeft,70,11120,5,41,0,41,0,1,,,,,,,,,,,,,,,,,,,,,,,,,,,,,,,,,,,,,,,
,,,,,,,,2023-08-16_08h21.58.533,HF_wild_card,2022.2.4,Win32,60.0240096,5ba2a1c8c96df90001ce9159,64d2fd46c836a06233681665,64dc790618b0e316baade395,,,,,,,decisionTrl,resources/DR.BMP,resources/DG.BMP,Door3,0.142592593,-0.012037037,1,0,0,0.626,optionRight,70,11190,5,42,0,42,0,1,,,,,,,,,,,,,,,,,,,,,,,,,,,,,,,,,,,,,,,
,,,,,,,,2023-08-16_08h21.58.533,HF_wild_card,2022.2.4,Win32,60.0240096,5ba2a1c8c96df90001ce9159,64d2fd46c836a06233681665,64dc790618b0e316baade395,,,,,,,decisionTrl,resources/DP.BMP,resources/DR.BMP,WildCard_NonEx,0.284259259,0.001851852,1,0,0,0.741,optionRight,45,11235,5,43,0,43,0,1,,,,,,,,,,,,,,,,,,,,,,,,,,,,,,,,,,,,,,,
,,,,,,,,2023-08-16_08h21.58.533,HF_wild_card,2022.2.4,Win32,60.0240096,5ba2a1c8c96df90001ce9159,64d2fd46c836a06233681665,64dc790618b0e316baade395,,,,,,,,,,,,,,,,,,,,,,,,,,4,0,4,0,1,,,,,,,,,,,,,,,,,,,,,,,,,,,,,,,,,,
,,,,,,,,2023-08-16_08h21.58.533,HF_wild_card,2022.2.4,Win32,60.0240096,5ba2a1c8c96df90001ce9159,64d2fd46c836a06233681665,64dc790618b0e316baade395,,,,,,,decisionTrl,resources/DBN.BMP,resources/DR.BMP,WildCard_NonEx,0.409259259,-0.107407407,1,0,0,1.091,optionRight,45,11280,6,0,0,0,0,1,,,,,,,,,,,,,,,,,,,,,,,,,,,,,,,,,,,,,,,
,,,,,,,,2023-08-16_08h21.58.533,HF_wild_card,2022.2.4,Win32,60.0240096,5ba2a1c8c96df90001ce9159,64d2fd46c836a06233681665,64dc790618b0e316baade395,,,,,,,ctch,resources/DBN.BMP,resources/DB.BMP,Door4,0.152777778,-0.021296296,1,0,0,2.808,optionRight,60,11340,6,1,0,1,0,1,,,,,,,,,,,,,,,,,,,,,,,,,,,,,,,,,,,,,,,
,,,,,,,,2023-08-16_08h21.58.533,HF_wild_card,2022.2.4,Win32,60.0240096,5ba2a1c8c96df90001ce9159,64d2fd46c836a06233681665,64dc790618b0e316baade395,,,,,,,sngl,resources/DB.BMP,resources/Empty.png,Door4,-0.239814815,-0.064814815,1,0,0,0.925,optionLeft,60,11400,6,2,0,2,0,1,,,,,,,,,,,,,,,,,,,,,,,,,,,,,,,,,,,,,,,
,,,,,,,,2023-08-16_08h21.58.533,HF_wild_card,2022.2.4,Win32,60.0240096,5ba2a1c8c96df90001ce9159,64d2fd46c836a06233681665,64dc790618b0e316baade395,,,,,,,ctch,resources/DP.BMP,resources/DG.BMP,Door3,0.189814815,-0.068518519,1,0,0,0.909,optionRight,70,11470,6,3,0,3,0,1,,,,,,,,,,,,,,,,,,,,,,,,,,,,,,,,,,,,,,,
,,,,,,,,2023-08-16_08h21.58.533,HF_wild_card,2022.2.4,Win32,60.0240096,5ba2a1c8c96df90001ce9159,64d2fd46c836a06233681665,64dc790618b0e316baade395,,,,,,,sngl,resources/DP.BMP,resources/Empty.png,Door2,-0.22962963,-0.047222222,1,0,0,0.642,optionLeft,20,11490,6,4,0,4,0,1,,,,,,,,,,,,,,,,,,,,,,,,,,,,,,,,,,,,,,,
,,,,,,,,2023-08-16_08h21.58.533,HF_wild_card,2022.2.4,Win32,60.0240096,5ba2a1c8c96df90001ce9159,64d2fd46c836a06233681665,64dc790618b0e316baade395,,,,,,,sngl,resources/DR.BMP,resources/Empty.png,WildCard_NonEx,-0.298148148,-0.07037037,1,0,0,0.593,optionLeft,45,11535,6,5,0,5,0,1,,,,,,,,,,,,,,,,,,,,,,,,,,,,,,,,,,,,,,,
,,,,,,,,2023-08-16_08h21.58.533,HF_wild_card,2022.2.4,Win32,60.0240096,5ba2a1c8c96df90001ce9159,64d2fd46c836a06233681665,64dc790618b0e316baade395,,,,,,,sngl,resources/DR.BMP,resources/Empty.png,WildCard_NonEx,-0.244444444,-0.040740741,1,0,0,0.526,optionLeft,55,11590,6,6,0,6,0,1,,,,,,,,,,,,,,,,,,,,,,,,,,,,,,,,,,,,,,,
,,,,,,,,2023-08-16_08h21.58.533,HF_wild_card,2022.2.4,Win32,60.0240096,5ba2a1c8c96df90001ce9159,64d2fd46c836a06233681665,64dc790618b0e316baade395,,,,,,,decisionTrl,resources/DP.BMP,resources/DBN.BMP,Door1,0.300925926,-0.05,1,0,0,1.759,optionRight,30,11620,6,7,0,7,0,1,,,,,,,,,,,,,,,,,,,,,,,,,,,,,,,,,,,,,,,
,,,,,,,,2023-08-16_08h21.58.533,HF_wild_card,2022.2.4,Win32,60.0240096,5ba2a1c8c96df90001ce9159,64d2fd46c836a06233681665,64dc790618b0e316baade395,,,,,,,decisionTrl,resources/DG.BMP,resources/DB.BMP,Door3,-0.156481481,-0.02962963,1,0,0,1.109,optionLeft,70,11690,6,8,0,8,0,1,,,,,,,,,,,,,,,,,,,,,,,,,,,,,,,,,,,,,,,
,,,,,,,,2023-08-16_08h21.58.533,HF_wild_card,2022.2.4,Win32,60.0240096,5ba2a1c8c96df90001ce9159,64d2fd46c836a06233681665,64dc790618b0e316baade395,,,,,,,decisionTrl,resources/DBN.BMP,resources/DP.BMP,Door1,-0.139814815,-0.072222222,1,0,0,3.291,optionLeft,30,11720,6,9,0,9,0,1,,,,,,,,,,,,,,,,,,,,,,,,,,,,,,,,,,,,,,,
,,,,,,,,2023-08-16_08h21.58.533,HF_wild_card,2022.2.4,Win32,60.0240096,5ba2a1c8c96df90001ce9159,64d2fd46c836a06233681665,64dc790618b0e316baade395,,,,,,,decisionTrl,resources/DBN.BMP,resources/DP.BMP,Door1,-0.215740741,-0.037962963,1,0,0,0.673,optionLeft,30,11750,6,10,0,10,0,1,,,,,,,,,,,,,,,,,,,,,,,,,,,,,,,,,,,,,,,
,,,,,,,,2023-08-16_08h21.58.533,HF_wild_card,2022.2.4,Win32,60.0240096,5ba2a1c8c96df90001ce9159,64d2fd46c836a06233681665,64dc790618b0e316baade395,,,,,,,decisionTrl,resources/DBN.BMP,resources/DP.BMP,Door1,-0.17962963,-0.062037037,1,0,0,0.476,optionLeft,30,11780,6,11,0,11,0,1,,,,,,,,,,,,,,,,,,,,,,,,,,,,,,,,,,,,,,,
,,,,,,,,2023-08-16_08h21.58.533,HF_wild_card,2022.2.4,Win32,60.0240096,5ba2a1c8c96df90001ce9159,64d2fd46c836a06233681665,64dc790618b0e316baade395,,,,,,,sngl,resources/Empty.png,resources/DP.BMP,Door2,0.237962963,-0.02037037,1,0,0,0.543,optionRight,40,11820,6,12,0,12,0,1,,,,,,,,,,,,,,,,,,,,,,,,,,,,,,,,,,,,,,,
,,,,,,,,2023-08-16_08h21.58.533,HF_wild_card,2022.2.4,Win32,60.0240096,5ba2a1c8c96df90001ce9159,64d2fd46c836a06233681665,64dc790618b0e316baade395,,,,,,,sngl,resources/Empty.png,resources/DR.BMP,WildCard_NonEx,0.212037037,-0.012037037,1,0,0,0.576,optionRight,45,11865,6,13,0,13,0,1,,,,,,,,,,,,,,,,,,,,,,,,,,,,,,,,,,,,,,,
,,,,,,,,2023-08-16_08h21.58.533,HF_wild_card,2022.2.4,Win32,60.0240096,5ba2a1c8c96df90001ce9159,64d2fd46c836a06233681665,64dc790618b0e316baade395,,,,,,,decisionTrl,resources/DP.BMP,resources/DBN.BMP,Door2,-0.201851852,-0.030555556,1,0,0,0.959,optionLeft,20,11885,6,14,0,14,0,1,,,,,,,,,,,,,,,,,,,,,,,,,,,,,,,,,,,,,,,
,,,,,,,,2023-08-16_08h21.58.533,HF_wild_card,2022.2.4,Win32,60.0240096,5ba2a1c8c96df90001ce9159,64d2fd46c836a06233681665,64dc790618b0e316baade395,,,,,,,ctch,resources/DP.BMP,resources/DG.BMP,Door3,0.199074074,-0.022222222,1,0,0,0.908,optionRight,70,11955,6,15,0,15,0,1,,,,,,,,,,,,,,,,,,,,,,,,,,,,,,,,,,,,,,,
,,,,,,,,2023-08-16_08h21.58.533,HF_wild_card,2022.2.4,Win32,60.0240096,5ba2a1c8c96df90001ce9159,64d2fd46c836a06233681665,64dc790618b0e316baade395,,,,,,,ctch,resources/DBN.BMP,resources/DB.BMP,Door4,0.108333333,-0.030555556,1,0,0,1.575,optionRight,80,12035,6,16,0,16,0,1,,,,,,,,,,,,,,,,,,,,,,,,,,,,,,,,,,,,,,,
,,,,,,,,2023-08-16_08h21.58.533,HF_wild_card,2022.2.4,Win32,60.0240096,5ba2a1c8c96df90001ce9159,64d2fd46c836a06233681665,64dc790618b0e316baade395,,,,,,,ctch,resources/DB.BMP,resources/DBN.BMP,Door4,-0.291666667,-0.061111111,1,0,0,1.626,optionLeft,80,12115,6,17,0,17,0,1,,,,,,,,,,,,,,,,,,,,,,,,,,,,,,,,,,,,,,,
,,,,,,,,2023-08-16_08h21.58.533,HF_wild_card,2022.2.4,Win32,60.0240096,5ba2a1c8c96df90001ce9159,64d2fd46c836a06233681665,64dc790618b0e316baade395,,,,,,,decisionTrl,resources/DP.BMP,resources/DR.BMP,WildCard_NonEx,0.227777778,-0.023148148,1,0,0,1.026,optionRight,55,12170,6,18,0,18,0,1,,,,,,,,,,,,,,,,,,,,,,,,,,,,,,,,,,,,,,,
,,,,,,,,2023-08-16_08h21.58.533,HF_wild_card,2022.2.4,Win32,60.0240096,5ba2a1c8c96df90001ce9159,64d2fd46c836a06233681665,64dc790618b0e316baade395,,,,,,,decisionTrl,resources/DR.BMP,resources/DBN.BMP,WildCard_NonEx,-0.213888889,-0.036111111,1,0,0,1.082,optionLeft,55,12225,6,19,0,19,0,1,,,,,,,,,,,,,,,,,,,,,,,,,,,,,,,,,,,,,,,
,,,,,,,,2023-08-16_08h21.58.533,HF_wild_card,2022.2.4,Win32,60.0240096,5ba2a1c8c96df90001ce9159,64d2fd46c836a06233681665,64dc790618b0e316baade395,,,,,,,decisionTrl,resources/DBN.BMP,resources/DP.BMP,Door1,-0.139814815,-0.036111111,1,0,0,1.375,optionLeft,30,12255,6,20,0,20,0,1,,,,,,,,,,,,,,,,,,,,,,,,,,,,,,,,,,,,,,,
,,,,,,,,2023-08-16_08h21.58.533,HF_wild_card,2022.2.4,Win32,60.0240096,5ba2a1c8c96df90001ce9159,64d2fd46c836a06233681665,64dc790618b0e316baade395,,,,,,,sngl,resources/Empty.png,resources/DBN.BMP,Door1,0.171296296,-0.023148148,1,0,0,0.559,optionRight,30,12285,6,21,0,21,0,1,,,,,,,,,,,,,,,,,,,,,,,,,,,,,,,,,,,,,,,
,,,,,,,,2023-08-16_08h21.58.533,HF_wild_card,2022.2.4,Win32,60.0240096,5ba2a1c8c96df90001ce9159,64d2fd46c836a06233681665,64dc790618b0e316baade395,,,,,,,decisionTrl,resources/DG.BMP,resources/DB.BMP,Door4,0.15,-0.043518519,1,0,0,1.423,optionRight,60,12345,6,22,0,22,0,1,,,,,,,,,,,,,,,,,,,,,,,,,,,,,,,,,,,,,,,
,,,,,,,,2023-08-16_08h21.58.533,HF_wild_card,2022.2.4,Win32,60.0240096,5ba2a1c8c96df90001ce9159,64d2fd46c836a06233681665,64dc790618b0e316baade395,,,,,,,sngl,resources/Empty.png,resources/DB.BMP,Door4,0.153703704,-0.034259259,1,0,0,0.558,optionRight,80,12425,6,23,0,23,0,1,,,,,,,,,,,,,,,,,,,,,,,,,,,,,,,,,,,,,,,
,,,,,,,,2023-08-16_08h21.58.533,HF_wild_card,2022.2.4,Win32,60.0240096,5ba2a1c8c96df90001ce9159,64d2fd46c836a06233681665,64dc790618b0e316baade395,,,,,,,sngl,resources/Empty.png,resources/DG.BMP,Door3,0.187962963,-0.023148148,1,0,0,0.575,optionRight,70,12495,6,24,0,24,0,1,,,,,,,,,,,,,,,,,,,,,,,,,,,,,,,,,,,,,,,
,,,,,,,,2023-08-16_08h21.58.533,HF_wild_card,2022.2.4,Win32,60.0240096,5ba2a1c8c96df90001ce9159,64d2fd46c836a06233681665,64dc790618b0e316baade395,,,,,,,ctch,resources/DG.BMP,resources/DP.BMP,Door3,-0.149074074,-0.037962963,1,0,0,0.841,optionLeft,70,12565,6,25,0,25,0,1,,,,,,,,,,,,,,,,,,,,,,,,,,,,,,,,,,,,,,,
,,,,,,,,2023-08-16_08h21.58.533,HF_wild_card,2022.2.4,Win32,60.0240096,5ba2a1c8c96df90001ce9159,64d2fd46c836a06233681665,64dc790618b0e316baade395,,,,,,,decisionTrl,resources/DB.BMP,resources/DG.BMP,Door4,-0.193518519,-0.064814815,1,0,0,1.908,optionLeft,80,12645,6,26,0,26,0,1,,,,,,,,,,,,,,,,,,,,,,,,,,,,,,,,,,,,,,,
,,,,,,,,2023-08-16_08h21.58.533,HF_wild_card,2022.2.4,Win32,60.0240096,5ba2a1c8c96df90001ce9159,64d2fd46c836a06233681665,64dc790618b0e316baade395,,,,,,,ctch,resources/DG.BMP,resources/DP.BMP,Door3,-0.271296296,-0.083333333,1,0,0,0.728,optionLeft,70,12715,6,27,0,27,0,1,,,,,,,,,,,,,,,,,,,,,,,,,,,,,,,,,,,,,,,
,,,,,,,,2023-08-16_08h21.58.533,HF_wild_card,2022.2.4,Win32,60.0240096,5ba2a1c8c96df90001ce9159,64d2fd46c836a06233681665,64dc790618b0e316baade395,,,,,,,decisionTrl,resources/DG.BMP,resources/DB.BMP,Door3,-0.323148148,-0.069444444,1,0,0,0.576,optionLeft,70,12785,6,28,0,28,0,1,,,,,,,,,,,,,,,,,,,,,,,,,,,,,,,,,,,,,,,
,,,,,,,,2023-08-16_08h21.58.533,HF_wild_card,2022.2.4,Win32,60.0240096,5ba2a1c8c96df90001ce9159,64d2fd46c836a06233681665,64dc790618b0e316baade395,,,,,,,decisionTrl,resources/DB.BMP,resources/DG.BMP,Door3,0.235185185,-0.036111111,1,0,0,0.842,optionRight,70,12855,6,29,0,29,0,1,,,,,,,,,,,,,,,,,,,,,,,,,,,,,,,,,,,,,,,
,,,,,,,,2023-08-16_08h21.58.533,HF_wild_card,2022.2.4,Win32,60.0240096,5ba2a1c8c96df90001ce9159,64d2fd46c836a06233681665,64dc790618b0e316baade395,,,,,,,decisionTrl,resources/DB.BMP,resources/DR.BMP,Door4,-0.590740741,-0.131481481,1,0,0,0.492,optionLeft,60,12915,6,30,0,30,0,1,,,,,,,,,,,,,,,,,,,,,,,,,,,,,,,,,,,,,,,
,,,,,,,,2023-08-16_08h21.58.533,HF_wild_card,2022.2.4,Win32,60.0240096,5ba2a1c8c96df90001ce9159,64d2fd46c836a06233681665,64dc790618b0e316baade395,,,,,,,decisionTrl,resources/DR.BMP,resources/DP.BMP,WildCard_NonEx,-0.182407407,-0.025,1,0,0,0.908,optionLeft,55,12970,6,31,0,31,0,1,,,,,,,,,,,,,,,,,,,,,,,,,,,,,,,,,,,,,,,
,,,,,,,,2023-08-16_08h21.58.533,HF_wild_card,2022.2.4,Win32,60.0240096,5ba2a1c8c96df90001ce9159,64d2fd46c836a06233681665,64dc790618b0e316baade395,,,,,,,decisionTrl,resources/DG.BMP,resources/DB.BMP,Door3,-0.20462963,-0.04537037,1,0,0,0.926,optionLeft,70,13040,6,32,0,32,0,1,,,,,,,,,,,,,,,,,,,,,,,,,,,,,,,,,,,,,,,
,,,,,,,,2023-08-16_08h21.58.533,HF_wild_card,2022.2.4,Win32,60.0240096,5ba2a1c8c96df90001ce9159,64d2fd46c836a06233681665,64dc790618b0e316baade395,,,,,,,decisionTrl,resources/DP.BMP,resources/DBN.BMP,Door1,0.25462963,-0.013888889,1,0,0,0.809,optionRight,30,13070,6,33,0,33,0,1,,,,,,,,,,,,,,,,,,,,,,,,,,,,,,,,,,,,,,,
,,,,,,,,2023-08-16_08h21.58.533,HF_wild_card,2022.2.4,Win32,60.0240096,5ba2a1c8c96df90001ce9159,64d2fd46c836a06233681665,64dc790618b0e316baade395,,,,,,,sngl,resources/DG.BMP,resources/Empty.png,Door3,-0.246296296,-0.052777778,1,0,0,0.608,optionLeft,70,13140,6,34,0,34,0,1,,,,,,,,,,,,,,,,,,,,,,,,,,,,,,,,,,,,,,,
,,,,,,,,2023-08-16_08h21.58.533,HF_wild_card,2022.2.4,Win32,60.0240096,5ba2a1c8c96df90001ce9159,64d2fd46c836a06233681665,64dc790618b0e316baade395,,,,,,,decisionTrl,resources/DR.BMP,resources/DG.BMP,Door3,0.260185185,-0.017592593,1,0,0,0.755,optionRight,70,13210,6,35,0,35,0,1,,,,,,,,,,,,,,,,,,,,,,,,,,,,,,,,,,,,,,,
,,,,,,,,2023-08-16_08h21.58.533,HF_wild_card,2022.2.4,Win32,60.0240096,5ba2a1c8c96df90001ce9159,64d2fd46c836a06233681665,64dc790618b0e316baade395,,,,,,,decisionTrl,resources/DB.BMP,resources/DG.BMP,Door4,-0.192592593,-0.035185185,1,0,0,0.758,optionLeft,60,13270,6,36,0,36,0,1,,,,,,,,,,,,,,,,,,,,,,,,,,,,,,,,,,,,,,,
,,,,,,,,2023-08-16_08h21.58.533,HF_wild_card,2022.2.4,Win32,60.0240096,5ba2a1c8c96df90001ce9159,64d2fd46c836a06233681665,64dc790618b0e316baade395,,,,,,,decisionTrl,resources/DP.BMP,resources/DBN.BMP,Door1,0.164814815,-0.008333333,1,0,0,1.093,optionRight,30,13300,6,37,0,37,0,1,,,,,,,,,,,,,,,,,,,,,,,,,,,,,,,,,,,,,,,
,,,,,,,,2023-08-16_08h21.58.533,HF_wild_card,2022.2.4,Win32,60.0240096,5ba2a1c8c96df90001ce9159,64d2fd46c836a06233681665,64dc790618b0e316baade395,,,,,,,sngl,resources/Empty.png,resources/DR.BMP,WildCard_NonEx,0.231481481,-0.013888889,1,0,0,0.526,optionRight,55,13355,6,38,0,38,0,1,,,,,,,,,,,,,,,,,,,,,,,,,,,,,,,,,,,,,,,
,,,,,,,,2023-08-16_08h21.58.533,HF_wild_card,2022.2.4,Win32,60.0240096,5ba2a1c8c96df90001ce9159,64d2fd46c836a06233681665,64dc790618b0e316baade395,,,,,,,sngl,resources/DBN.BMP,resources/Empty.png,Door1,-0.216666667,-0.042592593,1,0,0,0.561,optionLeft,30,13385,6,39,0,39,0,1,,,,,,,,,,,,,,,,,,,,,,,,,,,,,,,,,,,,,,,
,,,,,,,,2023-08-16_08h21.58.533,HF_wild_card,2022.2.4,Win32,60.0240096,5ba2a1c8c96df90001ce9159,64d2fd46c836a06233681665,64dc790618b0e316baade395,,,,,,,decisionTrl,resources/DG.BMP,resources/DR.BMP,Door3,-0.125925926,-0.02037037,1,0,0,1.325,optionLeft,70,13455,6,40,0,40,0,1,,,,,,,,,,,,,,,,,,,,,,,,,,,,,,,,,,,,,,,
,,,,,,,,2023-08-16_08h21.58.533,HF_wild_card,2022.2.4,Win32,60.0240096,5ba2a1c8c96df90001ce9159,64d2fd46c836a06233681665,64dc790618b0e316baade395,,,,,,,decisionTrl,resources/DR.BMP,resources/DB.BMP,WildCard_NonEx,-0.136111111,-0.024074074,1,0,0,0.925,optionLeft,45,13500,6,41,0,41,0,1,,,,,,,,,,,,,,,,,,,,,,,,,,,,,,,,,,,,,,,
,,,,,,,,2023-08-16_08h21.58.533,HF_wild_card,2022.2.4,Win32,60.0240096,5ba2a1c8c96df90001ce9159,64d2fd46c836a06233681665,64dc790618b0e316baade395,,,,,,,ctch,resources/DB.BMP,resources/DBN.BMP,Door4,-0.234259259,-0.041666667,1,0,0,0.542,optionLeft,60,13560,6,42,0,42,0,1,,,,,,,,,,,,,,,,,,,,,,,,,,,,,,,,,,,,,,,
,,,,,,,,2023-08-16_08h21.58.533,HF_wild_card,2022.2.4,Win32,60.0240096,5ba2a1c8c96df90001ce9159,64d2fd46c836a06233681665,64dc790618b0e316baade395,,,,,,,decisionTrl,resources/DB.BMP,resources/DG.BMP,Door3,0.255555556,-0.011111111,1,0,0,1.592,optionRight,70,13630,6,43,0,43,0,1,,,,,,,,,,,,,,,,,,,,,,,,,,,,,,,,,,,,,,,
,,,,,,,,2023-08-16_08h21.58.533,HF_wild_card,2022.2.4,Win32,60.0240096,5ba2a1c8c96df90001ce9159,64d2fd46c836a06233681665,64dc790618b0e316baade395,,,,,,,,,,,,,,,,,,,,,,,,,,5,0,5,0,1,,,,,,,,,,,,,,,,,,,,,,,,,,,,,,,,,,
,,,,,,,,2023-08-16_08h21.58.533,HF_wild_card,2022.2.4,Win32,60.0240096,5ba2a1c8c96df90001ce9159,64d2fd46c836a06233681665,64dc790618b0e316baade395,,,,,,,ctch,resources/DG.BMP,resources/DP.BMP,Door3,-0.167592593,-0.103703704,1,0,0,1.339,optionLeft,70,13700,7,0,0,0,0,1,,,,,,,,,,,,,,,,,,,,,,,,,,,,,,,,,,,,,,,
,,,,,,,,2023-08-16_08h21.58.533,HF_wild_card,2022.2.4,Win32,60.0240096,5ba2a1c8c96df90001ce9159,64d2fd46c836a06233681665,64dc790618b0e316baade395,,,,,,,decisionTrl,resources/DP.BMP,resources/DBN.BMP,Door1,0.146296296,-0.068518519,1,0,0,1.193,optionRight,30,13730,7,1,0,1,0,1,,,,,,,,,,,,,,,,,,,,,,,,,,,,,,,,,,,,,,,
,,,,,,,,2023-08-16_08h21.58.533,HF_wild_card,2022.2.4,Win32,60.0240096,5ba2a1c8c96df90001ce9159,64d2fd46c836a06233681665,64dc790618b0e316baade395,,,,,,,decisionTrl,resources/DG.BMP,resources/DB.BMP,Door4,0.176851852,-0.032407407,1,0,0,1.575,optionRight,60,13790,7,2,0,2,0,1,,,,,,,,,,,,,,,,,,,,,,,,,,,,,,,,,,,,,,,
,,,,,,,,2023-08-16_08h21.58.533,HF_wild_card,2022.2.4,Win32,60.0240096,5ba2a1c8c96df90001ce9159,64d2fd46c836a06233681665,64dc790618b0e316baade395,,,,,,,ctch,resources/DBN.BMP,resources/DB.BMP,Door4,0.228703704,-0.094444444,1,0,0,1.01,optionRight,80,13870,7,3,0,3,0,1,,,,,,,,,,,,,,,,,,,,,,,,,,,,,,,,,,,,,,,
,,,,,,,,2023-08-16_08h21.58.533,HF_wild_card,2022.2.4,Win32,60.0240096,5ba2a1c8c96df90001ce9159,64d2fd46c836a06233681665,64dc790618b0e316baade395,,,,,,,decisionTrl,resources/DB.BMP,resources/DG.BMP,Door4,-0.162037037,-0.047222222,1,0,0,1.094,optionLeft,60,13930,7,4,0,4,0,1,,,,,,,,,,,,,,,,,,,,,,,,,,,,,,,,,,,,,,,
,,,,,,,,2023-08-16_08h21.58.533,HF_wild_card,2022.2.4,Win32,60.0240096,5ba2a1c8c96df90001ce9159,64d2fd46c836a06233681665,64dc790618b0e316baade395,,,,,,,decisionTrl,resources/DP.BMP,resources/DBN.BMP,Door1,0.212962963,-0.013888889,1,0,0,0.728,optionRight,30,13960,7,5,0,5,0,1,,,,,,,,,,,,,,,,,,,,,,,,,,,,,,,,,,,,,,,
,,,,,,,,2023-08-16_08h21.58.533,HF_wild_card,2022.2.4,Win32,60.0240096,5ba2a1c8c96df90001ce9159,64d2fd46c836a06233681665,64dc790618b0e316baade395,,,,,,,decisionTrl,resources/DP.BMP,resources/DBN.BMP,Door1,0.262037037,0.013888889,1,0,0,0.996,optionRight,30,13990,7,6,0,6,0,1,,,,,,,,,,,,,,,,,,,,,,,,,,,,,,,,,,,,,,,
,,,,,,,,2023-08-16_08h21.58.533,HF_wild_card,2022.2.4,Win32,60.0240096,5ba2a1c8c96df90001ce9159,64d2fd46c836a06233681665,64dc790618b0e316baade395,,,,,,,decisionTrl,resources/DB.BMP,resources/DG.BMP,Door4,-0.139814815,-0.031481481,1,0,0,1.411,optionLeft,60,14050,7,7,0,7,0,1,,,,,,,,,,,,,,,,,,,,,,,,,,,,,,,,,,,,,,,
,,,,,,,,2023-08-16_08h21.58.533,HF_wild_card,2022.2.4,Win32,60.0240096,5ba2a1c8c96df90001ce9159,64d2fd46c836a06233681665,64dc790618b0e316baade395,,,,,,,decisionTrl,resources/DP.BMP,resources/DBN.BMP,Door1,0.321296296,0.003703704,1,0,0,0.745,optionRight,30,14080,7,8,0,8,0,1,,,,,,,,,,,,,,,,,,,,,,,,,,,,,,,,,,,,,,,
,,,,,,,,2023-08-16_08h21.58.533,HF_wild_card,2022.2.4,Win32,60.0240096,5ba2a1c8c96df90001ce9159,64d2fd46c836a06233681665,64dc790618b0e316baade395,,,,,,,decisionTrl,resources/DG.BMP,resources/DB.BMP,Door4,0.153703704,-0.051851852,1,0,0,1.392,optionRight,80,14160,7,9,0,9,0,1,,,,,,,,,,,,,,,,,,,,,,,,,,,,,,,,,,,,,,,
,,,,,,,,2023-08-16_08h21.58.533,HF_wild_card,2022.2.4,Win32,60.0240096,5ba2a1c8c96df90001ce9159,64d2fd46c836a06233681665,64dc790618b0e316baade395,,,,,,,ctch,resources/DBN.BMP,resources/DB.BMP,Door4,0.158333333,-0.015740741,1,0,0,1.078,optionRight,80,14240,7,10,0,10,0,1,,,,,,,,,,,,,,,,,,,,,,,,,,,,,,,,,,,,,,,
,,,,,,,,2023-08-16_08h21.58.533,HF_wild_card,2022.2.4,Win32,60.0240096,5ba2a1c8c96df90001ce9159,64d2fd46c836a06233681665,64dc790618b0e316baade395,,,,,,,decisionTrl,resources/DG.BMP,resources/DB.BMP,Door3,-0.158333333,-0.037037037,1,0,0,1.062,optionLeft,70,14310,7,11,0,11,0,1,,,,,,,,,,,,,,,,,,,,,,,,,,,,,,,,,,,,,,,
,,,,,,,,2023-08-16_08h21.58.533,HF_wild_card,2022.2.4,Win32,60.0240096,5ba2a1c8c96df90001ce9159,64d2fd46c836a06233681665,64dc790618b0e316baade395,,,,,,,ctch,resources/DB.BMP,resources/DBN.BMP,Door4,-0.153703704,-0.009259259,1,0,0,0.926,optionLeft,80,14390,7,12,0,12,0,1,,,,,,,,,,,,,,,,,,,,,,,,,,,,,,,,,,,,,,,
,,,,,,,,2023-08-16_08h21.58.533,HF_wild_card,2022.2.4,Win32,60.0240096,5ba2a1c8c96df90001ce9159,64d2fd46c836a06233681665,64dc790618b0e316baade395,,,,,,,decisionTrl,resources/DG.BMP,resources/DB.BMP,Door3,-0.177777778,-0.02037037,1,0,0,1.224,optionLeft,70,14460,7,13,0,13,0,1,,,,,,,,,,,,,,,,,,,,,,,,,,,,,,,,,,,,,,,
,,,,,,,,2023-08-16_08h21.58.533,HF_wild_card,2022.2.4,Win32,60.0240096,5ba2a1c8c96df90001ce9159,64d2fd46c836a06233681665,64dc790618b0e316baade395,,,,,,,decisionTrl,resources/DG.BMP,resources/DB.BMP,Door4,0.193518519,0.000925926,1,0,0,0.695,optionRight,60,14520,7,14,0,14,0,1,,,,,,,,,,,,,,,,,,,,,,,,,,,,,,,,,,,,,,,
,,,,,,,,2023-08-16_08h21.58.533,HF_wild_card,2022.2.4,Win32,60.0240096,5ba2a1c8c96df90001ce9159,64d2fd46c836a06233681665,64dc790618b0e316baade395,,,,,,,decisionTrl,resources/DB.BMP,resources/DG.BMP,Door4,-0.183333333,-0.048148148,1,0,0,0.877,optionLeft,60,14580,7,15,0,15,0,1,,,,,,,,,,,,,,,,,,,,,,,,,,,,,,,,,,,,,,,
,,,,,,,,2023-08-16_08h21.58.533,HF_wild_card,2022.2.4,Win32,60.0240096,5ba2a1c8c96df90001ce9159,64d2fd46c836a06233681665,64dc790618b0e316baade395,,,,,,,decisionTrl,resources/DBN.BMP,resources/DP.BMP,Door1,-0.185185185,-0.037962963,1,0,0,1.226,optionLeft,30,14610,7,16,0,16,0,1,,,,,,,,,,,,,,,,,,,,,,,,,,,,,,,,,,,,,,,
,,,,,,,,2023-08-16_08h21.58.533,HF_wild_card,2022.2.4,Win32,60.0240096,5ba2a1c8c96df90001ce9159,64d2fd46c836a06233681665,64dc790618b0e316baade395,,,,,,,decisionTrl,resources/DBN.BMP,resources/DP.BMP,Door1,-0.3,-0.066666667,1,0,0,0.947,optionLeft,30,14640,7,17,0,17,0,1,,,,,,,,,,,,,,,,,,,,,,,,,,,,,,,,,,,,,,,
,,,,,,,,2023-08-16_08h21.58.533,HF_wild_card,2022.2.4,Win32,60.0240096,5ba2a1c8c96df90001ce9159,64d2fd46c836a06233681665,64dc790618b0e316baade395,,,,,,,decisionTrl,resources/DBN.BMP,resources/DP.BMP,Door1,-0.414814815,-0.035185185,1,0,0,0.595,optionLeft,30,14670,7,18,0,18,0,1,,,,,,,,,,,,,,,,,,,,,,,,,,,,,,,,,,,,,,,
,,,,,,,,2023-08-16_08h21.58.533,HF_wild_card,2022.2.4,Win32,60.0240096,5ba2a1c8c96df90001ce9159,64d2fd46c836a06233681665,64dc790618b0e316baade395,,,,,,,decisionTrl,resources/DB.BMP,resources/DG.BMP,Door4,-0.133333333,-0.014814815,1,0,0,1.177,optionLeft,60,14730,7,19,0,19,0,1,,,,,,,,,,,,,,,,,,,,,,,,,,,,,,,,,,,,,,,
,,,,,,,,2023-08-16_08h21.58.533,HF_wild_card,2022.2.4,Win32,60.0240096,5ba2a1c8c96df90001ce9159,64d2fd46c836a06233681665,64dc790618b0e316baade395,,,,,,,ctch,resources/DB.BMP,resources/DBN.BMP,Door4,-0.140740741,-0.030555556,1,0,0,0.61,optionLeft,80,14810,7,20,0,20,0,1,,,,,,,,,,,,,,,,,,,,,,,,,,,,,,,,,,,,,,,
,,,,,,,,2023-08-16_08h21.58.533,HF_wild_card,2022.2.4,Win32,60.0240096,5ba2a1c8c96df90001ce9159,64d2fd46c836a06233681665,64dc790618b0e316baade395,,,,,,,decisionTrl,resources/DP.BMP,resources/DBN.BMP,Door1,0.277777778,0.002777778,1,0,0,1.045,optionRight,30,14840,7,21,0,21,0,1,,,,,,,,,,,,,,,,,,,,,,,,,,,,,,,,,,,,,,,
,,,,,,,,2023-08-16_08h21.58.533,HF_wild_card,2022.2.4,Win32,60.0240096,5ba2a1c8c96df90001ce9159,64d2fd46c836a06233681665,64dc790618b0e316baade395,,,,,,,decisionTrl,resources/DBN.BMP,resources/DP.BMP,Door1,-0.358333333,-0.056481481,1,0,0,0.875,optionLeft,30,14870,7,22,0,22,0,1,,,,,,,,,,,,,,,,,,,,,,,,,,,,,,,,,,,,,,,
,,,,,,,,2023-08-16_08h21.58.533,HF_wild_card,2022.2.4,Win32,60.0240096,5ba2a1c8c96df90001ce9159,64d2fd46c836a06233681665,64dc790618b0e316baade395,,,,,,,decisionTrl,resources/DG.BMP,resources/DB.BMP,Door4,0.175,-0.019444444,1,0,0,1.611,optionRight,60,14930,7,23,0,23,0,1,,,,,,,,,,,,,,,,,,,,,,,,,,,,,,,,,,,,,,,
,,,,,,,,2023-08-16_08h21.58.533,HF_wild_card,2022.2.4,Win32,60.0240096,5ba2a1c8c96df90001ce9159,64d2fd46c836a06233681665,64dc790618b0e316baade395,,,,,,,ctch,resources/DG.BMP,resources/DP.BMP,Door3,-0.185185185,-0.049074074,1,0,0,0.867,optionLeft,70,15000,7,24,0,24,0,1,,,,,,,,,,,,,,,,,,,,,,,,,,,,,,,,,,,,,,,
,,,,,,,,2023-08-16_08h21.58.533,HF_wild_card,2022.2.4,Win32,60.0240096,5ba2a1c8c96df90001ce9159,64d2fd46c836a06233681665,64dc790618b0e316baade395,,,,,,,decisionTrl,resources/DBN.BMP,resources/DP.BMP,Door1,-0.189814815,-0.034259259,1,0,0,0.86,optionLeft,30,15030,7,25,0,25,0,1,,,,,,,,,,,,,,,,,,,,,,,,,,,,,,,,,,,,,,,
,,,,,,,,2023-08-16_08h21.58.533,HF_wild_card,2022.2.4,Win32,60.0240096,5ba2a1c8c96df90001ce9159,64d2fd46c836a06233681665,64dc790618b0e316baade395,,,,,,,ctch,resources/DBN.BMP,resources/DB.BMP,Door4,0.167592593,-0.077777778,1,0,0,0.979,optionRight,60,15090,7,26,0,26,0,1,,,,,,,,,,,,,,,,,,,,,,,,,,,,,,,,,,,,,,,
,,,,,,,,2023-08-16_08h21.58.533,HF_wild_card,2022.2.4,Win32,60.0240096,5ba2a1c8c96df90001ce9159,64d2fd46c836a06233681665,64dc790618b0e316baade395,,,,,,,ctch,resources/DG.BMP,resources/DP.BMP,Door3,-0.321296296,-0.066666667,1,0,0,0.819,optionLeft,70,15160,7,27,0,27,0,1,,,,,,,,,,,,,,,,,,,,,,,,,,,,,,,,,,,,,,,
,,,,,,,,2023-08-16_08h21.58.533,HF_wild_card,2022.2.4,Win32,60.0240096,5ba2a1c8c96df90001ce9159,64d2fd46c836a06233681665,64dc790618b0e316baade395,,,,,,,decisionTrl,resources/DB.BMP,resources/DG.BMP,Door4,-0.205555556,-0.016666667,1,0,0,0.942,optionLeft,80,15240,7,28,0,28,0,1,,,,,,,,,,,,,,,,,,,,,,,,,,,,,,,,,,,,,,,
,,,,,,,,2023-08-16_08h21.58.533,HF_wild_card,2022.2.4,Win32,60.0240096,5ba2a1c8c96df90001ce9159,64d2fd46c836a06233681665,64dc790618b0e316baade395,,,,,,,ctch,resources/DP.BMP,resources/DG.BMP,Door3,0.192592593,-0.033333333,1,0,0,0.777,optionRight,70,15310,7,29,0,29,0,1,,,,,,,,,,,,,,,,,,,,,,,,,,,,,,,,,,,,,,,
,,,,,,,,2023-08-16_08h21.58.533,HF_wild_card,2022.2.4,Win32,60.0240096,5ba2a1c8c96df90001ce9159,64d2fd46c836a06233681665,64dc790618b0e316baade395,,,,,,,decisionTrl,resources/DP.BMP,resources/DBN.BMP,Door1,0.22962963,-0.030555556,1,0,0,1.028,optionRight,30,15340,7,30,0,30,0,1,,,,,,,,,,,,,,,,,,,,,,,,,,,,,,,,,,,,,,,
,,,,,,,,2023-08-16_08h21.58.533,HF_wild_card,2022.2.4,Win32,60.0240096,5ba2a1c8c96df90001ce9159,64d2fd46c836a06233681665,64dc790618b0e316baade395,,,,,,,ctch,resources/DB.BMP,resources/DBN.BMP,Door4,-0.22037037,-0.038888889,1,0,0,0.844,optionLeft,80,15420,7,31,0,31,0,1,,,,,,,,,,,,,,,,,,,,,,,,,,,,,,,,,,,,,,,
,,,,,,,,2023-08-16_08h21.58.533,HF_wild_card,2022.2.4,Win32,60.0240096,5ba2a1c8c96df90001ce9159,64d2fd46c836a06233681665,64dc790618b0e316baade395,,,,,,,ctch,resources/DP.BMP,resources/DG.BMP,Door3,0.219444444,-0.041666667,1,0,0,0.81,optionRight,70,15490,7,32,0,32,0,1,,,,,,,,,,,,,,,,,,,,,,,,,,,,,,,,,,,,,,,
,,,,,,,,2023-08-16_08h21.58.533,HF_wild_card,2022.2.4,Win32,60.0240096,5ba2a1c8c96df90001ce9159,64d2fd46c836a06233681665,64dc790618b0e316baade395,,,,,,,decisionTrl,resources/DB.BMP,resources/DG.BMP,Door4,-0.158333333,-0.047222222,1,0,0,0.945,optionLeft,80,15570,7,33,0,33,0,1,,,,,,,,,,,,,,,,,,,,,,,,,,,,,,,,,,,,,,,
,,,,,,,,2023-08-16_08h21.58.533,HF_wild_card,2022.2.4,Win32,60.0240096,5ba2a1c8c96df90001ce9159,64d2fd46c836a06233681665,64dc790618b0e316baade395,,,,,,,decisionTrl,resources/DBN.BMP,resources/DP.BMP,Door1,-0.174074074,-0.025,1,0,0,0.844,optionLeft,30,15600,7,34,0,34,0,1,,,,,,,,,,,,,,,,,,,,,,,,,,,,,,,,,,,,,,,
,,,,,,,,2023-08-16_08h21.58.533,HF_wild_card,2022.2.4,Win32,60.0240096,5ba2a1c8c96df90001ce9159,64d2fd46c836a06233681665,64dc790618b0e316baade395,,,,,,,ctch,resources/DP.BMP,resources/DG.BMP,Door3,0.146296296,-0.051851852,1,0,0,0.826,optionRight,70,15670,7,35,0,35,0,1,,,,,,,,,,,,,,,,,,,,,,,,,,,,,,,,,,,,,,,
,,,,,,,,2023-08-16_08h21.58.533,HF_wild_card,2022.2.4,Win32,60.0240096,5ba2a1c8c96df90001ce9159,64d2fd46c836a06233681665,64dc790618b0e316baade395,,,,,,,,,,,,,,,,,,,,,,,,,,6,0,6,0,1,,,,,,,,,,,,,,,,,,,,,,,,,,,,,,,,,,
,,,,,,,,2023-08-16_08h21.58.533,HF_wild_card,2022.2.4,Win32,60.0240096,5ba2a1c8c96df90001ce9159,64d2fd46c836a06233681665,64dc790618b0e316baade395,,,,,,,,,,,,,,,,,,,,,,,,,,,,,,,3,,,,,,,,,,,,,,,,,,,,,,,,,,,,,,,,,
,,,,,,,,2023-08-16_08h21.58.533,HF_wild_card,2022.2.4,Win32,60.0240096,5ba2a1c8c96df90001ce9159,64d2fd46c836a06233681665,64dc790618b0e316baade395,,,,,,,,,,,,,,,,,,,,,,,,,,,,,,,,,,,,,,,,,,,,,,,,,,,,,,,,,,,,,,,,
,,,,,,,,2023-08-16_08h21.58.533,HF_wild_card,2022.2.4,Win32,60.0240096,5ba2a1c8c96df90001ce9159,64d2fd46c836a06233681665,64dc790618b0e316baade395,,,,,,,,,,,,,,,,,,,,,,,,,,,,,,,,30,Door1,resources/DBN.BMP,0,0,0,0,1,,,,,,,,,,,,,,,,,,,,,,,,,
,,,,,,,,2023-08-16_08h21.58.533,HF_wild_card,2022.2.4,Win32,60.0240096,5ba2a1c8c96df90001ce9159,64d2fd46c836a06233681665,64dc790618b0e316baade395,,,,,,,,,,,,,,,,,,,,,,,,,,,,,,,,20,Door2,resources/DP.BMP,1,0,1,0,1,,,,,,,,,,,,,,,,,,,,,,,,,
,,,,,,,,2023-08-16_08h21.58.533,HF_wild_card,2022.2.4,Win32,60.0240096,5ba2a1c8c96df90001ce9159,64d2fd46c836a06233681665,64dc790618b0e316baade395,,,,,,,,,,,,,,,,,,,,,,,,,,,,,,,,5,WC_extreme,resources/DY.BMP,2,0,2,0,1,,,,,,,,,,,,,,,,,,,,,,,,,
,,,,,,,,2023-08-16_08h21.58.533,HF_wild_card,2022.2.4,Win32,60.0240096,5ba2a1c8c96df90001ce9159,64d2fd46c836a06233681665,64dc790618b0e316baade395,,,,,,,,,,,,,,,,,,,,,,,,,,,,,,,,60,Door4,resources/DB.BMP,3,0,3,0,1,,,,,,,,,,,,,,,,,,,,,,,,,
,,,,,,,,2023-08-16_08h21.58.533,HF_wild_card,2022.2.4,Win32,60.0240096,5ba2a1c8c96df90001ce9159,64d2fd46c836a06233681665,64dc790618b0e316baade395,,,,,,,,,,,,,,,,,,,,,,,,,,,,,,,,45,WC_nonExtreme,resources/DR.BMP,4,0,4,0,1,,,,,,,,,,,,,,,,,,,,,,,,,
,,,,,,,,2023-08-16_08h21.58.533,HF_wild_card,2022.2.4,Win32,60.0240096,5ba2a1c8c96df90001ce9159,64d2fd46c836a06233681665,64dc790618b0e316baade395,,,,,,,,,,,,,,,,,,,,,,,,,,,,,,,,70,Door3,resources/DG.BMP,5,0,5,0,1,,,,,,,,,,,,,,,,,,,,,,,,,
,,,,,,,,2023-08-16_08h21.58.533,HF_wild_card,2022.2.4,Win32,60.0240096,5ba2a1c8c96df90001ce9159,64d2fd46c836a06233681665,64dc790618b0e316baade395,,,,,,,,,,,,,,,,,,,,,,,,,,,,,,,,,,,,,,,,,,,,,,,,,,,,,,,,,,,,,,,,
,,,,,,,,2023-08-16_08h21.58.533,HF_wild_card,2022.2.4,Win32,60.0240096,5ba2a1c8c96df90001ce9159,64d2fd46c836a06233681665,64dc790618b0e316baade395,,,,,,,,,,,,,,,,,,,,,,,,,,,,,,,,,,,,,,,,0,0,0,0,1,,,,,,,,,,,,,,,,,,,,
,,,,,,,,2023-08-16_08h21.58.533,HF_wild_card,2022.2.4,Win32,60.0240096,5ba2a1c8c96df90001ce9159,64d2fd46c836a06233681665,64dc790618b0e316baade395,,,,,,,,,,,,,,,,,,,,,,,,,,,,,,,,,,,,,,,,1,0,1,0,1,,,,,,,,,,,,,,,,,,,,
