Condition,Low fixed image (Door1),Low risky image (Door2),High fixed image (Door3),High risky image (Door4),Extreme Wild Card,NonExtreme Wild Card,,date,expName,psychopyVersion,OS,frameRate,PROLIFIC_PID,STUDY_ID,SESSION_ID,mouse_2.x,mouse_2.y,mouse_2.leftButton,mouse_2.midButton,mouse_2.rightButton,mouse_2.clicked_name,Trial Type,Left Option Image,Right Option Image,Chosen Door,mouse.x,mouse.y,mouse.leftButton,mouse.midButton,mouse.rightButton,mouse.time,mouse.clicked_name,Feedback,Cumulative Reward,Block,trial.thisRepN,trial.thisTrialN,trial.thisN,trial.thisIndex,trial.ran,blocks.thisRepN,blocks.thisTrialN,blocks.thisN,blocks.thisIndex,blocks.ran,Money conversion,First Outcome Reported,Shown Door (First Outcome),Displayed Image (First Outcome),outcomes.thisRepN,outcomes.thisTrialN,outcomes.thisN,outcomes.thisIndex,outcomes.ran,judgments.thisRepN,judgments.thisTrialN,judgments.thisN,judgments.thisIndex,judgments.ran,freqMouse.x,freqMouse.y,freqMouse.leftButton,freqMouse.midButton,freqMouse.rightButton,freqMouse.clicked_name,FQJ for first outcome,FQJ for second outcome,Shown Door,Displayed Image,trials.thisRepN,trials.thisTrialN,trials.thisN,trials.thisIndex,trials.ran,judgBlock.thisRepN,judgBlock.thisTrialN,judgBlock.thisN,judgBlock.thisIndex,judgBlock.ran
0,resources/DG.BMP,resources/DY.BMP,resources/DB.BMP,resources/DR.BMP,resources/DBN.BMP,resources/DP.BMP,,2023-08-16_08h47.38.217,HF_wild_card,2022.2.4,Win32,60.0276127,6074b1a4765dd68a61e40bb4,64d2fd46c836a06233681665,64dc7f05d511e4427e42da2a,,,,,,,,,,,,,,,,,,,,,,,,,,,,,,,,,,,,,,,,,,,,,,,,,,,,,,,,,,,,,,,,
,,,,,,,,2023-08-16_08h47.38.217,HF_wild_card,2022.2.4,Win32,60.0276127,6074b1a4765dd68a61e40bb4,64d2fd46c836a06233681665,64dc7f05d511e4427e42da2a,0.009259288,-0.417592621,1,0,0,agree,,,,,,,,,,,,,,,,,,,,,,,,,,,,,,,,,,,,,,,,,,,,,,,,,,,,,,,,,,
,,,,,,,,2023-08-16_08h47.38.217,HF_wild_card,2022.2.4,Win32,60.0276127,6074b1a4765dd68a61e40bb4,64d2fd46c836a06233681665,64dc7f05d511e4427e42da2a,,,,,,,,,,,,,,,,,,,,,,,,,,,,,,,,,,,,,,,,,,,,,,,,,,,,,,,,,,,,,,,,
,,,,,,,,2023-08-16_08h47.38.217,HF_wild_card,2022.2.4,Win32,60.0276127,6074b1a4765dd68a61e40bb4,64d2fd46c836a06233681665,64dc7f05d511e4427e42da2a,,,,,,,decisionTrl,resources/DR.BMP,resources/DB.BMP,Door4,-0.211111111,-0.134259288,1,0,0,10.155,optionLeft,80,80,1,0,0,0,0,1,,,,,,,,,,,,,,,,,,,,,,,,,,,,,,,,,,,,,,,
,,,,,,,,2023-08-16_08h47.38.217,HF_wild_card,2022.2.4,Win32,60.0276127,6074b1a4765dd68a61e40bb4,64d2fd46c836a06233681665,64dc7f05d511e4427e42da2a,,,,,,,decisionTrl,resources/DR.BMP,resources/DB.BMP,Door4,-0.212962935,-0.045370399,1,0,0,2.356,optionLeft,60,140,1,1,0,1,0,1,,,,,,,,,,,,,,,,,,,,,,,,,,,,,,,,,,,,,,,
,,,,,,,,2023-08-16_08h47.38.217,HF_wild_card,2022.2.4,Win32,60.0276127,6074b1a4765dd68a61e40bb4,64d2fd46c836a06233681665,64dc7f05d511e4427e42da2a,,,,,,,decisionTrl,resources/DG.BMP,resources/DBN.BMP,Door1,-0.225925912,-0.003703732,1,0,0,1.9915,optionLeft,30,170,1,2,0,2,0,1,,,,,,,,,,,,,,,,,,,,,,,,,,,,,,,,,,,,,,,
,,,,,,,,2023-08-16_08h47.38.217,HF_wild_card,2022.2.4,Win32,60.0276127,6074b1a4765dd68a61e40bb4,64d2fd46c836a06233681665,64dc7f05d511e4427e42da2a,,,,,,,decisionTrl,resources/DB.BMP,resources/DR.BMP,Door4,0.3,-0.003703732,1,0,0,1.0777,optionRight,60,230,1,3,0,3,0,1,,,,,,,,,,,,,,,,,,,,,,,,,,,,,,,,,,,,,,,
,,,,,,,,2023-08-16_08h47.38.217,HF_wild_card,2022.2.4,Win32,60.0276127,6074b1a4765dd68a61e40bb4,64d2fd46c836a06233681665,64dc7f05d511e4427e42da2a,,,,,,,ctch,resources/DR.BMP,resources/DG.BMP,Door1,0.301851908,-0.063888889,1,0,0,2.5814,optionRight,30,260,1,4,0,4,0,1,,,,,,,,,,,,,,,,,,,,,,,,,,,,,,,,,,,,,,,
,,,,,,,,2023-08-16_08h47.38.217,HF_wild_card,2022.2.4,Win32,60.0276127,6074b1a4765dd68a61e40bb4,64d2fd46c836a06233681665,64dc7f05d511e4427e42da2a,,,,,,,decisionTrl,resources/DG.BMP,resources/DY.BMP,Door1,-0.184259245,-0.000925954,1,0,0,1.1579,optionLeft,30,290,1,5,0,5,0,1,,,,,,,,,,,,,,,,,,,,,,,,,,,,,,,,,,,,,,,
,,,,,,,,2023-08-16_08h47.38.217,HF_wild_card,2022.2.4,Win32,60.0276127,6074b1a4765dd68a61e40bb4,64d2fd46c836a06233681665,64dc7f05d511e4427e42da2a,,,,,,,decisionTrl,resources/DR.BMP,resources/DB.BMP,Door3,0.320370399,-0.02129631,1,0,0,0.7901,optionRight,70,360,1,6,0,6,0,1,,,,,,,,,,,,,,,,,,,,,,,,,,,,,,,,,,,,,,,
,,,,,,,,2023-08-16_08h47.38.217,HF_wild_card,2022.2.4,Win32,60.0276127,6074b1a4765dd68a61e40bb4,64d2fd46c836a06233681665,64dc7f05d511e4427e42da2a,,,,,,,sngl,resources/DBN.BMP,resources/Empty.png,WildCard_Ex,-0.153703647,0.038888889,1,0,0,2.1953,optionLeft,95,455,1,7,0,7,0,1,,,,,,,,,,,,,,,,,,,,,,,,,,,,,,,,,,,,,,,
,,,,,,,,2023-08-16_08h47.38.217,HF_wild_card,2022.2.4,Win32,60.0276127,6074b1a4765dd68a61e40bb4,64d2fd46c836a06233681665,64dc7f05d511e4427e42da2a,,,,,,,decisionTrl,resources/DY.BMP,resources/DG.BMP,Door2,-0.192592578,-0.013888889,1,0,0,1.5491,optionLeft,20,475,1,8,0,8,0,1,,,,,,,,,,,,,,,,,,,,,,,,,,,,,,,,,,,,,,,
,,,,,,,,2023-08-16_08h47.38.217,HF_wild_card,2022.2.4,Win32,60.0276127,6074b1a4765dd68a61e40bb4,64d2fd46c836a06233681665,64dc7f05d511e4427e42da2a,,,,,,,decisionTrl,resources/DG.BMP,resources/DY.BMP,Door2,0.295370399,-0.017592621,1,0,0,0.7905,optionRight,20,495,1,9,0,9,0,1,,,,,,,,,,,,,,,,,,,,,,,,,,,,,,,,,,,,,,,
,,,,,,,,2023-08-16_08h47.38.217,HF_wild_card,2022.2.4,Win32,60.0276127,6074b1a4765dd68a61e40bb4,64d2fd46c836a06233681665,64dc7f05d511e4427e42da2a,,,,,,,sngl,resources/DB.BMP,resources/Empty.png,Door3,-0.287962935,-0.012962977,1,0,0,1.9498,optionLeft,70,565,1,10,0,10,0,1,,,,,,,,,,,,,,,,,,,,,,,,,,,,,,,,,,,,,,,
,,,,,,,,2023-08-16_08h47.38.217,HF_wild_card,2022.2.4,Win32,60.0276127,6074b1a4765dd68a61e40bb4,64d2fd46c836a06233681665,64dc7f05d511e4427e42da2a,,,,,,,decisionTrl,resources/DY.BMP,resources/DBN.BMP,Door2,-0.112036981,0.047222222,1,0,0,2.8318,optionLeft,20,585,1,11,0,11,0,1,,,,,,,,,,,,,,,,,,,,,,,,,,,,,,,,,,,,,,,
,,,,,,,,2023-08-16_08h47.38.217,HF_wild_card,2022.2.4,Win32,60.0276127,6074b1a4765dd68a61e40bb4,64d2fd46c836a06233681665,64dc7f05d511e4427e42da2a,,,,,,,sngl,resources/DY.BMP,resources/Empty.png,Door2,-0.165740712,-0.030555556,1,0,0,1.1597,optionLeft,40,625,1,12,0,12,0,1,,,,,,,,,,,,,,,,,,,,,,,,,,,,,,,,,,,,,,,
,,,,,,,,2023-08-16_08h47.38.217,HF_wild_card,2022.2.4,Win32,60.0276127,6074b1a4765dd68a61e40bb4,64d2fd46c836a06233681665,64dc7f05d511e4427e42da2a,,,,,,,sngl,resources/DBN.BMP,resources/Empty.png,WildCard_Ex,-0.166666667,-0.051851866,1,0,0,0.9911,optionLeft,5,630,1,13,0,13,0,1,,,,,,,,,,,,,,,,,,,,,,,,,,,,,,,,,,,,,,,
,,,,,,,,2023-08-16_08h47.38.217,HF_wild_card,2022.2.4,Win32,60.0276127,6074b1a4765dd68a61e40bb4,64d2fd46c836a06233681665,64dc7f05d511e4427e42da2a,,,,,,,decisionTrl,resources/DG.BMP,resources/DY.BMP,Door1,-0.144444444,-0.038888889,1,0,0,1.6552,optionLeft,30,660,1,14,0,14,0,1,,,,,,,,,,,,,,,,,,,,,,,,,,,,,,,,,,,,,,,
,,,,,,,,2023-08-16_08h47.38.217,HF_wild_card,2022.2.4,Win32,60.0276127,6074b1a4765dd68a61e40bb4,64d2fd46c836a06233681665,64dc7f05d511e4427e42da2a,,,,,,,decisionTrl,resources/DB.BMP,resources/DR.BMP,Door4,0.203703732,-0.012962977,1,0,0,1.1101,optionRight,60,720,1,15,0,15,0,1,,,,,,,,,,,,,,,,,,,,,,,,,,,,,,,,,,,,,,,
,,,,,,,,2023-08-16_08h47.38.217,HF_wild_card,2022.2.4,Win32,60.0276127,6074b1a4765dd68a61e40bb4,64d2fd46c836a06233681665,64dc7f05d511e4427e42da2a,,,,,,,sngl,resources/Empty.png,resources/DG.BMP,Door1,0.332407464,-0.047222222,1,0,0,38.9036,optionRight,30,750,1,16,0,16,0,1,,,,,,,,,,,,,,,,,,,,,,,,,,,,,,,,,,,,,,,
,,,,,,,,2023-08-16_08h47.38.217,HF_wild_card,2022.2.4,Win32,60.0276127,6074b1a4765dd68a61e40bb4,64d2fd46c836a06233681665,64dc7f05d511e4427e42da2a,,,,,,,sngl,resources/Empty.png,resources/DBN.BMP,WildCard_Ex,0.282407464,-0.065740755,1,0,0,0.9854,optionRight,95,845,1,17,0,17,0,1,,,,,,,,,,,,,,,,,,,,,,,,,,,,,,,,,,,,,,,
,,,,,,,,2023-08-16_08h47.38.217,HF_wild_card,2022.2.4,Win32,60.0276127,6074b1a4765dd68a61e40bb4,64d2fd46c836a06233681665,64dc7f05d511e4427e42da2a,,,,,,,ctch,resources/DY.BMP,resources/DB.BMP,Door2,-0.316666667,-0.009259288,1,0,0,0.8851,optionLeft,40,885,1,18,0,18,0,1,,,,,,,,,,,,,,,,,,,,,,,,,,,,,,,,,,,,,,,
,,,,,,,,2023-08-16_08h47.38.217,HF_wild_card,2022.2.4,Win32,60.0276127,6074b1a4765dd68a61e40bb4,64d2fd46c836a06233681665,64dc7f05d511e4427e42da2a,,,,,,,sngl,resources/Empty.png,resources/DB.BMP,Door3,0.293518575,-0.018518533,1,0,0,0.8772,optionRight,70,955,1,19,0,19,0,1,,,,,,,,,,,,,,,,,,,,,,,,,,,,,,,,,,,,,,,
,,,,,,,,2023-08-16_08h47.38.217,HF_wild_card,2022.2.4,Win32,60.0276127,6074b1a4765dd68a61e40bb4,64d2fd46c836a06233681665,64dc7f05d511e4427e42da2a,,,,,,,decisionTrl,resources/DBN.BMP,resources/DR.BMP,Door4,0.342592621,-0.049074088,1,0,0,1.0424,optionRight,60,1015,1,20,0,20,0,1,,,,,,,,,,,,,,,,,,,,,,,,,,,,,,,,,,,,,,,
,,,,,,,,2023-08-16_08h47.38.217,HF_wild_card,2022.2.4,Win32,60.0276127,6074b1a4765dd68a61e40bb4,64d2fd46c836a06233681665,64dc7f05d511e4427e42da2a,,,,,,,sngl,resources/Empty.png,resources/DY.BMP,Door2,0.320370399,-0.024074088,1,0,0,1.0762,optionRight,20,1035,1,21,0,21,0,1,,,,,,,,,,,,,,,,,,,,,,,,,,,,,,,,,,,,,,,
,,,,,,,,2023-08-16_08h47.38.217,HF_wild_card,2022.2.4,Win32,60.0276127,6074b1a4765dd68a61e40bb4,64d2fd46c836a06233681665,64dc7f05d511e4427e42da2a,,,,,,,ctch,resources/DG.BMP,resources/DR.BMP,Door1,-0.242592578,-0.027777778,1,0,0,1.2932,optionLeft,30,1065,1,22,0,22,0,1,,,,,,,,,,,,,,,,,,,,,,,,,,,,,,,,,,,,,,,
,,,,,,,,2023-08-16_08h47.38.217,HF_wild_card,2022.2.4,Win32,60.0276127,6074b1a4765dd68a61e40bb4,64d2fd46c836a06233681665,64dc7f05d511e4427e42da2a,,,,,,,ctch,resources/DG.BMP,resources/DR.BMP,Door4,0.248148176,-0.03148151,1,0,0,0.8946,optionRight,60,1125,1,23,0,23,0,1,,,,,,,,,,,,,,,,,,,,,,,,,,,,,,,,,,,,,,,
,,,,,,,,2023-08-16_08h47.38.217,HF_wild_card,2022.2.4,Win32,60.0276127,6074b1a4765dd68a61e40bb4,64d2fd46c836a06233681665,64dc7f05d511e4427e42da2a,,,,,,,decisionTrl,resources/DB.BMP,resources/DBN.BMP,Door3,-0.341666667,-0.016666667,1,0,0,1.0837,optionLeft,70,1195,1,24,0,24,0,1,,,,,,,,,,,,,,,,,,,,,,,,,,,,,,,,,,,,,,,
,,,,,,,,2023-08-16_08h47.38.217,HF_wild_card,2022.2.4,Win32,60.0276127,6074b1a4765dd68a61e40bb4,64d2fd46c836a06233681665,64dc7f05d511e4427e42da2a,,,,,,,decisionTrl,resources/DR.BMP,resources/DB.BMP,Door4,-0.191666667,-0.040740755,1,0,0,1.0432,optionLeft,80,1275,1,25,0,25,0,1,,,,,,,,,,,,,,,,,,,,,,,,,,,,,,,,,,,,,,,
,,,,,,,,2023-08-16_08h47.38.217,HF_wild_card,2022.2.4,Win32,60.0276127,6074b1a4765dd68a61e40bb4,64d2fd46c836a06233681665,64dc7f05d511e4427e42da2a,,,,,,,sngl,resources/DR.BMP,resources/Empty.png,Door4,-0.269444444,-0.005555556,1,0,0,0.777,optionLeft,80,1355,1,26,0,26,0,1,,,,,,,,,,,,,,,,,,,,,,,,,,,,,,,,,,,,,,,
,,,,,,,,2023-08-16_08h47.38.217,HF_wild_card,2022.2.4,Win32,60.0276127,6074b1a4765dd68a61e40bb4,64d2fd46c836a06233681665,64dc7f05d511e4427e42da2a,,,,,,,decisionTrl,resources/DB.BMP,resources/DR.BMP,Door4,0.243518575,-0.016666667,1,0,0,1.6777,optionRight,60,1415,1,27,0,27,0,1,,,,,,,,,,,,,,,,,,,,,,,,,,,,,,,,,,,,,,,
,,,,,,,,2023-08-16_08h47.38.217,HF_wild_card,2022.2.4,Win32,60.0276127,6074b1a4765dd68a61e40bb4,64d2fd46c836a06233681665,64dc7f05d511e4427e42da2a,,,,,,,decisionTrl,resources/DY.BMP,resources/DG.BMP,Door1,0.316666667,-0.030555556,1,0,0,1.3458,optionRight,30,1445,1,28,0,28,0,1,,,,,,,,,,,,,,,,,,,,,,,,,,,,,,,,,,,,,,,
,,,,,,,,2023-08-16_08h47.38.217,HF_wild_card,2022.2.4,Win32,60.0276127,6074b1a4765dd68a61e40bb4,64d2fd46c836a06233681665,64dc7f05d511e4427e42da2a,,,,,,,sngl,resources/DG.BMP,resources/Empty.png,Door1,-0.367592578,-0.04629631,1,0,0,0.6952,optionLeft,30,1475,1,29,0,29,0,1,,,,,,,,,,,,,,,,,,,,,,,,,,,,,,,,,,,,,,,
,,,,,,,,2023-08-16_08h47.38.217,HF_wild_card,2022.2.4,Win32,60.0276127,6074b1a4765dd68a61e40bb4,64d2fd46c836a06233681665,64dc7f05d511e4427e42da2a,,,,,,,ctch,resources/DR.BMP,resources/DG.BMP,Door4,-0.244444444,-0.025925954,1,0,0,0.8953,optionLeft,80,1555,1,30,0,30,0,1,,,,,,,,,,,,,,,,,,,,,,,,,,,,,,,,,,,,,,,
,,,,,,,,2023-08-16_08h47.38.217,HF_wild_card,2022.2.4,Win32,60.0276127,6074b1a4765dd68a61e40bb4,64d2fd46c836a06233681665,64dc7f05d511e4427e42da2a,,,,,,,decisionTrl,resources/DBN.BMP,resources/DB.BMP,Door3,0.313888889,-0.018518533,1,0,0,1.1114,optionRight,70,1625,1,31,0,31,0,1,,,,,,,,,,,,,,,,,,,,,,,,,,,,,,,,,,,,,,,
,,,,,,,,2023-08-16_08h47.38.217,HF_wild_card,2022.2.4,Win32,60.0276127,6074b1a4765dd68a61e40bb4,64d2fd46c836a06233681665,64dc7f05d511e4427e42da2a,,,,,,,decisionTrl,resources/DY.BMP,resources/DG.BMP,Door2,-0.281481467,-0.050925954,1,0,0,2.8767,optionLeft,20,1645,1,32,0,32,0,1,,,,,,,,,,,,,,,,,,,,,,,,,,,,,,,,,,,,,,,
,,,,,,,,2023-08-16_08h47.38.217,HF_wild_card,2022.2.4,Win32,60.0276127,6074b1a4765dd68a61e40bb4,64d2fd46c836a06233681665,64dc7f05d511e4427e42da2a,,,,,,,decisionTrl,resources/DY.BMP,resources/DG.BMP,Door1,0.242592621,-0.025,1,0,0,0.8109,optionRight,30,1675,1,33,0,33,0,1,,,,,,,,,,,,,,,,,,,,,,,,,,,,,,,,,,,,,,,
,,,,,,,,2023-08-16_08h47.38.217,HF_wild_card,2022.2.4,Win32,60.0276127,6074b1a4765dd68a61e40bb4,64d2fd46c836a06233681665,64dc7f05d511e4427e42da2a,,,,,,,decisionTrl,resources/DB.BMP,resources/DR.BMP,Door4,0.308333333,-0.036111111,1,0,0,0.8434,optionRight,60,1735,1,34,0,34,0,1,,,,,,,,,,,,,,,,,,,,,,,,,,,,,,,,,,,,,,,
,,,,,,,,2023-08-16_08h47.38.217,HF_wild_card,2022.2.4,Win32,60.0276127,6074b1a4765dd68a61e40bb4,64d2fd46c836a06233681665,64dc7f05d511e4427e42da2a,,,,,,,ctch,resources/DB.BMP,resources/DY.BMP,Door2,0.267592621,-0.060185199,1,0,0,1.1594,optionRight,40,1775,1,35,0,35,0,1,,,,,,,,,,,,,,,,,,,,,,,,,,,,,,,,,,,,,,,
,,,,,,,,2023-08-16_08h47.38.217,HF_wild_card,2022.2.4,Win32,60.0276127,6074b1a4765dd68a61e40bb4,64d2fd46c836a06233681665,64dc7f05d511e4427e42da2a,,,,,,,decisionTrl,resources/DR.BMP,resources/DBN.BMP,Door4,-0.297222222,-0.015740755,1,0,0,0.9894,optionLeft,60,1835,1,36,0,36,0,1,,,,,,,,,,,,,,,,,,,,,,,,,,,,,,,,,,,,,,,
,,,,,,,,2023-08-16_08h47.38.217,HF_wild_card,2022.2.4,Win32,60.0276127,6074b1a4765dd68a61e40bb4,64d2fd46c836a06233681665,64dc7f05d511e4427e42da2a,,,,,,,decisionTrl,resources/DBN.BMP,resources/DY.BMP,Door2,0.295370399,-0.016666667,1,0,0,1.0982,optionRight,40,1875,1,37,0,37,0,1,,,,,,,,,,,,,,,,,,,,,,,,,,,,,,,,,,,,,,,
,,,,,,,,2023-08-16_08h47.38.217,HF_wild_card,2022.2.4,Win32,60.0276127,6074b1a4765dd68a61e40bb4,64d2fd46c836a06233681665,64dc7f05d511e4427e42da2a,,,,,,,sngl,resources/Empty.png,resources/DR.BMP,Door4,0.264814843,0.037962935,1,0,0,0.9285,optionRight,60,1935,1,38,0,38,0,1,,,,,,,,,,,,,,,,,,,,,,,,,,,,,,,,,,,,,,,
,,,,,,,,2023-08-16_08h47.38.217,HF_wild_card,2022.2.4,Win32,60.0276127,6074b1a4765dd68a61e40bb4,64d2fd46c836a06233681665,64dc7f05d511e4427e42da2a,,,,,,,decisionTrl,resources/DG.BMP,resources/DY.BMP,Door1,-0.22870369,0,1,0,0,0.9296,optionLeft,30,1965,1,39,0,39,0,1,,,,,,,,,,,,,,,,,,,,,,,,,,,,,,,,,,,,,,,
,,,,,,,,2023-08-16_08h47.38.217,HF_wild_card,2022.2.4,Win32,60.0276127,6074b1a4765dd68a61e40bb4,64d2fd46c836a06233681665,64dc7f05d511e4427e42da2a,,,,,,,decisionTrl,resources/DBN.BMP,resources/DG.BMP,Door1,0.195370399,-0.008333333,1,0,0,1.4949,optionRight,30,1995,1,40,0,40,0,1,,,,,,,,,,,,,,,,,,,,,,,,,,,,,,,,,,,,,,,
,,,,,,,,2023-08-16_08h47.38.217,HF_wild_card,2022.2.4,Win32,60.0276127,6074b1a4765dd68a61e40bb4,64d2fd46c836a06233681665,64dc7f05d511e4427e42da2a,,,,,,,ctch,resources/DB.BMP,resources/DY.BMP,Door3,-0.25,0.008333333,1,0,0,1.1453,optionLeft,70,2065,1,41,0,41,0,1,,,,,,,,,,,,,,,,,,,,,,,,,,,,,,,,,,,,,,,
,,,,,,,,2023-08-16_08h47.38.217,HF_wild_card,2022.2.4,Win32,60.0276127,6074b1a4765dd68a61e40bb4,64d2fd46c836a06233681665,64dc7f05d511e4427e42da2a,,,,,,,sngl,resources/Empty.png,resources/DBN.BMP,WildCard_Ex,0.208333333,0.008333333,1,0,0,1.0119,optionRight,5,2070,1,42,0,42,0,1,,,,,,,,,,,,,,,,,,,,,,,,,,,,,,,,,,,,,,,
,,,,,,,,2023-08-16_08h47.38.217,HF_wild_card,2022.2.4,Win32,60.0276127,6074b1a4765dd68a61e40bb4,64d2fd46c836a06233681665,64dc7f05d511e4427e42da2a,,,,,,,ctch,resources/DY.BMP,resources/DB.BMP,Door3,0.384259288,0.017592578,1,0,0,1.1786,optionRight,70,2140,1,43,0,43,0,1,,,,,,,,,,,,,,,,,,,,,,,,,,,,,,,,,,,,,,,
,,,,,,,,2023-08-16_08h47.38.217,HF_wild_card,2022.2.4,Win32,60.0276127,6074b1a4765dd68a61e40bb4,64d2fd46c836a06233681665,64dc7f05d511e4427e42da2a,,,,,,,,,,,,,,,,,,,,,,,,,,0,0,0,0,1,,,,,,,,,,,,,,,,,,,,,,,,,,,,,,,,,,
,,,,,,,,2023-08-16_08h47.38.217,HF_wild_card,2022.2.4,Win32,60.0276127,6074b1a4765dd68a61e40bb4,64d2fd46c836a06233681665,64dc7f05d511e4427e42da2a,,,,,,,decisionTrl,resources/DY.BMP,resources/DBN.BMP,Door2,-0.239814801,-0.062962977,1,0,0,1.3958,optionLeft,40,2180,2,0,0,0,0,1,,,,,,,,,,,,,,,,,,,,,,,,,,,,,,,,,,,,,,,
,,,,,,,,2023-08-16_08h47.38.217,HF_wild_card,2022.2.4,Win32,60.0276127,6074b1a4765dd68a61e40bb4,64d2fd46c836a06233681665,64dc7f05d511e4427e42da2a,,,,,,,decisionTrl,resources/DR.BMP,resources/DB.BMP,Door4,-0.216666667,-0.010185199,1,0,0,1.5512,optionLeft,80,2260,2,1,0,1,0,1,,,,,,,,,,,,,,,,,,,,,,,,,,,,,,,,,,,,,,,
,,,,,,,,2023-08-16_08h47.38.217,HF_wild_card,2022.2.4,Win32,60.0276127,6074b1a4765dd68a61e40bb4,64d2fd46c836a06233681665,64dc7f05d511e4427e42da2a,,,,,,,ctch,resources/DR.BMP,resources/DG.BMP,Door4,-0.224074046,-0.008333333,1,0,0,1.0788,optionLeft,80,2340,2,2,0,2,0,1,,,,,,,,,,,,,,,,,,,,,,,,,,,,,,,,,,,,,,,
,,,,,,,,2023-08-16_08h47.38.217,HF_wild_card,2022.2.4,Win32,60.0276127,6074b1a4765dd68a61e40bb4,64d2fd46c836a06233681665,64dc7f05d511e4427e42da2a,,,,,,,decisionTrl,resources/DG.BMP,resources/DY.BMP,Door2,0.371296353,-0.012962977,1,0,0,1.3621,optionRight,40,2380,2,3,0,3,0,1,,,,,,,,,,,,,,,,,,,,,,,,,,,,,,,,,,,,,,,
,,,,,,,,2023-08-16_08h47.38.217,HF_wild_card,2022.2.4,Win32,60.0276127,6074b1a4765dd68a61e40bb4,64d2fd46c836a06233681665,64dc7f05d511e4427e42da2a,,,,,,,decisionTrl,resources/DY.BMP,resources/DG.BMP,Door2,-0.216666667,-0.000925954,1,0,0,0.8286,optionLeft,20,2400,2,4,0,4,0,1,,,,,,,,,,,,,,,,,,,,,,,,,,,,,,,,,,,,,,,
,,,,,,,,2023-08-16_08h47.38.217,HF_wild_card,2022.2.4,Win32,60.0276127,6074b1a4765dd68a61e40bb4,64d2fd46c836a06233681665,64dc7f05d511e4427e42da2a,,,,,,,sngl,resources/DG.BMP,resources/Empty.png,Door1,-0.25370369,0.007407379,1,0,0,0.8091,optionLeft,30,2430,2,5,0,5,0,1,,,,,,,,,,,,,,,,,,,,,,,,,,,,,,,,,,,,,,,
,,,,,,,,2023-08-16_08h47.38.217,HF_wild_card,2022.2.4,Win32,60.0276127,6074b1a4765dd68a61e40bb4,64d2fd46c836a06233681665,64dc7f05d511e4427e42da2a,,,,,,,sngl,resources/DY.BMP,resources/Empty.png,Door2,-0.244444444,-0.013888889,1,0,0,0.795,optionLeft,20,2450,2,6,0,6,0,1,,,,,,,,,,,,,,,,,,,,,,,,,,,,,,,,,,,,,,,
,,,,,,,,2023-08-16_08h47.38.217,HF_wild_card,2022.2.4,Win32,60.0276127,6074b1a4765dd68a61e40bb4,64d2fd46c836a06233681665,64dc7f05d511e4427e42da2a,,,,,,,decisionTrl,resources/DB.BMP,resources/DR.BMP,Door4,0.285185242,-0.043518533,1,0,0,0.9445,optionRight,60,2510,2,7,0,7,0,1,,,,,,,,,,,,,,,,,,,,,,,,,,,,,,,,,,,,,,,
,,,,,,,,2023-08-16_08h47.38.217,HF_wild_card,2022.2.4,Win32,60.0276127,6074b1a4765dd68a61e40bb4,64d2fd46c836a06233681665,64dc7f05d511e4427e42da2a,,,,,,,sngl,resources/DBN.BMP,resources/Empty.png,WildCard_Ex,-0.244444444,-0.034259288,1,0,0,0.8441,optionLeft,95,2605,2,8,0,8,0,1,,,,,,,,,,,,,,,,,,,,,,,,,,,,,,,,,,,,,,,
,,,,,,,,2023-08-16_08h47.38.217,HF_wild_card,2022.2.4,Win32,60.0276127,6074b1a4765dd68a61e40bb4,64d2fd46c836a06233681665,64dc7f05d511e4427e42da2a,,,,,,,decisionTrl,resources/DG.BMP,resources/DY.BMP,Door2,0.258333333,-0.027777778,1,0,0,0.8929,optionRight,40,2645,2,9,0,9,0,1,,,,,,,,,,,,,,,,,,,,,,,,,,,,,,,,,,,,,,,
,,,,,,,,2023-08-16_08h47.38.217,HF_wild_card,2022.2.4,Win32,60.0276127,6074b1a4765dd68a61e40bb4,64d2fd46c836a06233681665,64dc7f05d511e4427e42da2a,,,,,,,decisionTrl,resources/DY.BMP,resources/DG.BMP,Door2,-0.22870369,-0.004629644,1,0,0,0.7958,optionLeft,40,2685,2,10,0,10,0,1,,,,,,,,,,,,,,,,,,,,,,,,,,,,,,,,,,,,,,,
,,,,,,,,2023-08-16_08h47.38.217,HF_wild_card,2022.2.4,Win32,60.0276127,6074b1a4765dd68a61e40bb4,64d2fd46c836a06233681665,64dc7f05d511e4427e42da2a,,,,,,,decisionTrl,resources/DG.BMP,resources/DY.BMP,Door2,0.255555556,-0.028703732,1,0,0,0.8796,optionRight,20,2705,2,11,0,11,0,1,,,,,,,,,,,,,,,,,,,,,,,,,,,,,,,,,,,,,,,
,,,,,,,,2023-08-16_08h47.38.217,HF_wild_card,2022.2.4,Win32,60.0276127,6074b1a4765dd68a61e40bb4,64d2fd46c836a06233681665,64dc7f05d511e4427e42da2a,,,,,,,decisionTrl,resources/DR.BMP,resources/DBN.BMP,Door4,-0.245370356,-0.033333333,1,0,0,0.9266,optionLeft,80,2785,2,12,0,12,0,1,,,,,,,,,,,,,,,,,,,,,,,,,,,,,,,,,,,,,,,
,,,,,,,,2023-08-16_08h47.38.217,HF_wild_card,2022.2.4,Win32,60.0276127,6074b1a4765dd68a61e40bb4,64d2fd46c836a06233681665,64dc7f05d511e4427e42da2a,,,,,,,decisionTrl,resources/DG.BMP,resources/DBN.BMP,Door1,-0.297222222,-0.02129631,1,0,0,1.0792,optionLeft,30,2815,2,13,0,13,0,1,,,,,,,,,,,,,,,,,,,,,,,,,,,,,,,,,,,,,,,
,,,,,,,,2023-08-16_08h47.38.217,HF_wild_card,2022.2.4,Win32,60.0276127,6074b1a4765dd68a61e40bb4,64d2fd46c836a06233681665,64dc7f05d511e4427e42da2a,,,,,,,sngl,resources/Empty.png,resources/DR.BMP,Door4,0.195370399,0.001851824,1,0,0,1.0277,optionRight,80,2895,2,14,0,14,0,1,,,,,,,,,,,,,,,,,,,,,,,,,,,,,,,,,,,,,,,
,,,,,,,,2023-08-16_08h47.38.217,HF_wild_card,2022.2.4,Win32,60.0276127,6074b1a4765dd68a61e40bb4,64d2fd46c836a06233681665,64dc7f05d511e4427e42da2a,,,,,,,ctch,resources/DG.BMP,resources/DR.BMP,Door4,0.385185242,0.007407379,1,0,0,1.9124,optionRight,60,2955,2,15,0,15,0,1,,,,,,,,,,,,,,,,,,,,,,,,,,,,,,,,,,,,,,,
,,,,,,,,2023-08-16_08h47.38.217,HF_wild_card,2022.2.4,Win32,60.0276127,6074b1a4765dd68a61e40bb4,64d2fd46c836a06233681665,64dc7f05d511e4427e42da2a,,,,,,,decisionTrl,resources/DB.BMP,resources/DR.BMP,Door3,-0.157407379,-0.022222222,1,0,0,1.1436,optionLeft,70,3025,2,16,0,16,0,1,,,,,,,,,,,,,,,,,,,,,,,,,,,,,,,,,,,,,,,
,,,,,,,,2023-08-16_08h47.38.217,HF_wild_card,2022.2.4,Win32,60.0276127,6074b1a4765dd68a61e40bb4,64d2fd46c836a06233681665,64dc7f05d511e4427e42da2a,,,,,,,decisionTrl,resources/DY.BMP,resources/DG.BMP,Door1,0.225,-0.023148176,1,0,0,1.2765,optionRight,30,3055,2,17,0,17,0,1,,,,,,,,,,,,,,,,,,,,,,,,,,,,,,,,,,,,,,,
,,,,,,,,2023-08-16_08h47.38.217,HF_wild_card,2022.2.4,Win32,60.0276127,6074b1a4765dd68a61e40bb4,64d2fd46c836a06233681665,64dc7f05d511e4427e42da2a,,,,,,,ctch,resources/DY.BMP,resources/DB.BMP,Door2,-0.199074046,0.002777778,1,0,0,1.25,optionLeft,20,3075,2,18,0,18,0,1,,,,,,,,,,,,,,,,,,,,,,,,,,,,,,,,,,,,,,,
,,,,,,,,2023-08-16_08h47.38.217,HF_wild_card,2022.2.4,Win32,60.0276127,6074b1a4765dd68a61e40bb4,64d2fd46c836a06233681665,64dc7f05d511e4427e42da2a,,,,,,,decisionTrl,resources/DBN.BMP,resources/DB.BMP,Door3,0.240740797,0.006481467,1,0,0,0.9689,optionRight,70,3145,2,19,0,19,0,1,,,,,,,,,,,,,,,,,,,,,,,,,,,,,,,,,,,,,,,
,,,,,,,,2023-08-16_08h47.38.217,HF_wild_card,2022.2.4,Win32,60.0276127,6074b1a4765dd68a61e40bb4,64d2fd46c836a06233681665,64dc7f05d511e4427e42da2a,,,,,,,decisionTrl,resources/DR.BMP,resources/DB.BMP,Door3,0.308333333,0.006481467,1,0,0,0.9862,optionRight,70,3215,2,20,0,20,0,1,,,,,,,,,,,,,,,,,,,,,,,,,,,,,,,,,,,,,,,
,,,,,,,,2023-08-16_08h47.38.217,HF_wild_card,2022.2.4,Win32,60.0276127,6074b1a4765dd68a61e40bb4,64d2fd46c836a06233681665,64dc7f05d511e4427e42da2a,,,,,,,sngl,resources/DB.BMP,resources/Empty.png,Door3,-0.190740712,-0.007407422,1,0,0,0.8148,optionLeft,70,3285,2,21,0,21,0,1,,,,,,,,,,,,,,,,,,,,,,,,,,,,,,,,,,,,,,,
,,,,,,,,2023-08-16_08h47.38.217,HF_wild_card,2022.2.4,Win32,60.0276127,6074b1a4765dd68a61e40bb4,64d2fd46c836a06233681665,64dc7f05d511e4427e42da2a,,,,,,,decisionTrl,resources/DG.BMP,resources/DY.BMP,Door1,-0.188888889,-0.009259288,1,0,0,1.2417,optionLeft,30,3315,2,22,0,22,0,1,,,,,,,,,,,,,,,,,,,,,,,,,,,,,,,,,,,,,,,
,,,,,,,,2023-08-16_08h47.38.217,HF_wild_card,2022.2.4,Win32,60.0276127,6074b1a4765dd68a61e40bb4,64d2fd46c836a06233681665,64dc7f05d511e4427e42da2a,,,,,,,ctch,resources/DB.BMP,resources/DY.BMP,Door2,0.254629686,-0.000925954,1,0,0,0.9971,optionRight,40,3355,2,23,0,23,0,1,,,,,,,,,,,,,,,,,,,,,,,,,,,,,,,,,,,,,,,
,,,,,,,,2023-08-16_08h47.38.217,HF_wild_card,2022.2.4,Win32,60.0276127,6074b1a4765dd68a61e40bb4,64d2fd46c836a06233681665,64dc7f05d511e4427e42da2a,,,,,,,decisionTrl,resources/DY.BMP,resources/DG.BMP,Door2,-0.237037023,-0.030555556,1,0,0,0.9626,optionLeft,20,3375,2,24,0,24,0,1,,,,,,,,,,,,,,,,,,,,,,,,,,,,,,,,,,,,,,,
,,,,,,,,2023-08-16_08h47.38.217,HF_wild_card,2022.2.4,Win32,60.0276127,6074b1a4765dd68a61e40bb4,64d2fd46c836a06233681665,64dc7f05d511e4427e42da2a,,,,,,,ctch,resources/DB.BMP,resources/DY.BMP,Door2,0.227777778,-0.008333333,1,0,0,0.7779,optionRight,40,3415,2,25,0,25,0,1,,,,,,,,,,,,,,,,,,,,,,,,,,,,,,,,,,,,,,,
,,,,,,,,2023-08-16_08h47.38.217,HF_wild_card,2022.2.4,Win32,60.0276127,6074b1a4765dd68a61e40bb4,64d2fd46c836a06233681665,64dc7f05d511e4427e42da2a,,,,,,,decisionTrl,resources/DBN.BMP,resources/DG.BMP,Door1,0.352777778,0.006481467,1,0,0,1.1433,optionRight,30,3445,2,26,0,26,0,1,,,,,,,,,,,,,,,,,,,,,,,,,,,,,,,,,,,,,,,
,,,,,,,,2023-08-16_08h47.38.217,HF_wild_card,2022.2.4,Win32,60.0276127,6074b1a4765dd68a61e40bb4,64d2fd46c836a06233681665,64dc7f05d511e4427e42da2a,,,,,,,sngl,resources/DR.BMP,resources/Empty.png,Door4,-0.206481467,-0.002777778,1,0,0,0.91,optionLeft,60,3505,2,27,0,27,0,1,,,,,,,,,,,,,,,,,,,,,,,,,,,,,,,,,,,,,,,
,,,,,,,,2023-08-16_08h47.38.217,HF_wild_card,2022.2.4,Win32,60.0276127,6074b1a4765dd68a61e40bb4,64d2fd46c836a06233681665,64dc7f05d511e4427e42da2a,,,,,,,decisionTrl,resources/DB.BMP,resources/DBN.BMP,Door3,-0.182407379,0.000925912,1,0,0,1.022,optionLeft,70,3575,2,28,0,28,0,1,,,,,,,,,,,,,,,,,,,,,,,,,,,,,,,,,,,,,,,
,,,,,,,,2023-08-16_08h47.38.217,HF_wild_card,2022.2.4,Win32,60.0276127,6074b1a4765dd68a61e40bb4,64d2fd46c836a06233681665,64dc7f05d511e4427e42da2a,,,,,,,decisionTrl,resources/DBN.BMP,resources/DR.BMP,Door4,0.296296353,-0.008333333,1,0,0,1.2763,optionRight,80,3655,2,29,0,29,0,1,,,,,,,,,,,,,,,,,,,,,,,,,,,,,,,,,,,,,,,
,,,,,,,,2023-08-16_08h47.38.217,HF_wild_card,2022.2.4,Win32,60.0276127,6074b1a4765dd68a61e40bb4,64d2fd46c836a06233681665,64dc7f05d511e4427e42da2a,,,,,,,ctch,resources/DG.BMP,resources/DR.BMP,Door1,-0.246296268,-0.02129631,1,0,0,0.9616,optionLeft,30,3685,2,30,0,30,0,1,,,,,,,,,,,,,,,,,,,,,,,,,,,,,,,,,,,,,,,
,,,,,,,,2023-08-16_08h47.38.217,HF_wild_card,2022.2.4,Win32,60.0276127,6074b1a4765dd68a61e40bb4,64d2fd46c836a06233681665,64dc7f05d511e4427e42da2a,,,,,,,sngl,resources/DBN.BMP,resources/Empty.png,WildCard_Ex,-0.197222222,0.005555556,1,0,0,0.9618,optionLeft,5,3690,2,31,0,31,0,1,,,,,,,,,,,,,,,,,,,,,,,,,,,,,,,,,,,,,,,
,,,,,,,,2023-08-16_08h47.38.217,HF_wild_card,2022.2.4,Win32,60.0276127,6074b1a4765dd68a61e40bb4,64d2fd46c836a06233681665,64dc7f05d511e4427e42da2a,,,,,,,decisionTrl,resources/DR.BMP,resources/DB.BMP,Door3,0.316666667,0.001851824,1,0,0,0.8272,optionRight,70,3760,2,32,0,32,0,1,,,,,,,,,,,,,,,,,,,,,,,,,,,,,,,,,,,,,,,
,,,,,,,,2023-08-16_08h47.38.217,HF_wild_card,2022.2.4,Win32,60.0276127,6074b1a4765dd68a61e40bb4,64d2fd46c836a06233681665,64dc7f05d511e4427e42da2a,,,,,,,decisionTrl,resources/DBN.BMP,resources/DY.BMP,Door2,0.385185242,0.037962935,1,0,0,0.7785,optionRight,40,3800,2,33,0,33,0,1,,,,,,,,,,,,,,,,,,,,,,,,,,,,,,,,,,,,,,,
,,,,,,,,2023-08-16_08h47.38.217,HF_wild_card,2022.2.4,Win32,60.0276127,6074b1a4765dd68a61e40bb4,64d2fd46c836a06233681665,64dc7f05d511e4427e42da2a,,,,,,,sngl,resources/Empty.png,resources/DBN.BMP,WildCard_Ex,0.278703732,-0.007407422,1,0,0,0.6451,optionRight,5,3805,2,34,0,34,0,1,,,,,,,,,,,,,,,,,,,,,,,,,,,,,,,,,,,,,,,
,,,,,,,,2023-08-16_08h47.38.217,HF_wild_card,2022.2.4,Win32,60.0276127,6074b1a4765dd68a61e40bb4,64d2fd46c836a06233681665,64dc7f05d511e4427e42da2a,,,,,,,decisionTrl,resources/DR.BMP,resources/DB.BMP,Door4,-0.165740712,-0.025,1,0,0,0.9607,optionLeft,80,3885,2,35,0,35,0,1,,,,,,,,,,,,,,,,,,,,,,,,,,,,,,,,,,,,,,,
,,,,,,,,2023-08-16_08h47.38.217,HF_wild_card,2022.2.4,Win32,60.0276127,6074b1a4765dd68a61e40bb4,64d2fd46c836a06233681665,64dc7f05d511e4427e42da2a,,,,,,,ctch,resources/DY.BMP,resources/DB.BMP,Door2,-0.212962935,-0.004629644,1,0,0,0.9281,optionLeft,20,3905,2,36,0,36,0,1,,,,,,,,,,,,,,,,,,,,,,,,,,,,,,,,,,,,,,,
,,,,,,,,2023-08-16_08h47.38.217,HF_wild_card,2022.2.4,Win32,60.0276127,6074b1a4765dd68a61e40bb4,64d2fd46c836a06233681665,64dc7f05d511e4427e42da2a,,,,,,,ctch,resources/DR.BMP,resources/DG.BMP,Door4,-0.24351849,0.001851824,1,0,0,1.0283,optionLeft,60,3965,2,37,0,37,0,1,,,,,,,,,,,,,,,,,,,,,,,,,,,,,,,,,,,,,,,
,,,,,,,,2023-08-16_08h47.38.217,HF_wild_card,2022.2.4,Win32,60.0276127,6074b1a4765dd68a61e40bb4,64d2fd46c836a06233681665,64dc7f05d511e4427e42da2a,,,,,,,sngl,resources/Empty.png,resources/DB.BMP,Door3,0.292592621,-0.018518533,1,0,0,0.9453,optionRight,70,4035,2,38,0,38,0,1,,,,,,,,,,,,,,,,,,,,,,,,,,,,,,,,,,,,,,,
,,,,,,,,2023-08-16_08h47.38.217,HF_wild_card,2022.2.4,Win32,60.0276127,6074b1a4765dd68a61e40bb4,64d2fd46c836a06233681665,64dc7f05d511e4427e42da2a,,,,,,,decisionTrl,resources/DB.BMP,resources/DR.BMP,Door3,-0.237037023,-0.014814843,1,0,0,0.8773,optionLeft,70,4105,2,39,0,39,0,1,,,,,,,,,,,,,,,,,,,,,,,,,,,,,,,,,,,,,,,
,,,,,,,,2023-08-16_08h47.38.217,HF_wild_card,2022.2.4,Win32,60.0276127,6074b1a4765dd68a61e40bb4,64d2fd46c836a06233681665,64dc7f05d511e4427e42da2a,,,,,,,sngl,resources/Empty.png,resources/DBN.BMP,WildCard_Ex,0.226851908,-0.015740755,1,0,0,0.8286,optionRight,95,4200,2,40,0,40,0,1,,,,,,,,,,,,,,,,,,,,,,,,,,,,,,,,,,,,,,,
,,,,,,,,2023-08-16_08h47.38.217,HF_wild_card,2022.2.4,Win32,60.0276127,6074b1a4765dd68a61e40bb4,64d2fd46c836a06233681665,64dc7f05d511e4427e42da2a,,,,,,,sngl,resources/Empty.png,resources/DG.BMP,Door1,0.179629686,0.013888889,1,0,0,0.9788,optionRight,30,4230,2,41,0,41,0,1,,,,,,,,,,,,,,,,,,,,,,,,,,,,,,,,,,,,,,,
,,,,,,,,2023-08-16_08h47.38.217,HF_wild_card,2022.2.4,Win32,60.0276127,6074b1a4765dd68a61e40bb4,64d2fd46c836a06233681665,64dc7f05d511e4427e42da2a,,,,,,,decisionTrl,resources/DB.BMP,resources/DR.BMP,Door3,-0.246296268,-0.024074088,1,0,0,0.8619,optionLeft,70,4300,2,42,0,42,0,1,,,,,,,,,,,,,,,,,,,,,,,,,,,,,,,,,,,,,,,
,,,,,,,,2023-08-16_08h47.38.217,HF_wild_card,2022.2.4,Win32,60.0276127,6074b1a4765dd68a61e40bb4,64d2fd46c836a06233681665,64dc7f05d511e4427e42da2a,,,,,,,sngl,resources/Empty.png,resources/DY.BMP,Door2,0.15648151,0.005555556,1,0,0,0.9282,optionRight,40,4340,2,43,0,43,0,1,,,,,,,,,,,,,,,,,,,,,,,,,,,,,,,,,,,,,,,
,,,,,,,,2023-08-16_08h47.38.217,HF_wild_card,2022.2.4,Win32,60.0276127,6074b1a4765dd68a61e40bb4,64d2fd46c836a06233681665,64dc7f05d511e4427e42da2a,,,,,,,,,,,,,,,,,,,,,,,,,,1,0,1,0,1,,,,,,,,,,,,,,,,,,,,,,,,,,,,,,,,,,
,,,,,,,,2023-08-16_08h47.38.217,HF_wild_card,2022.2.4,Win32,60.0276127,6074b1a4765dd68a61e40bb4,64d2fd46c836a06233681665,64dc7f05d511e4427e42da2a,,,,,,,ctch,resources/DG.BMP,resources/DR.BMP,Door4,0.265740797,-0.109259288,1,0,0,1.4952,optionRight,60,4400,3,0,0,0,0,1,,,,,,,,,,,,,,,,,,,,,,,,,,,,,,,,,,,,,,,
,,,,,,,,2023-08-16_08h47.38.217,HF_wild_card,2022.2.4,Win32,60.0276127,6074b1a4765dd68a61e40bb4,64d2fd46c836a06233681665,64dc7f05d511e4427e42da2a,,,,,,,sngl,resources/DY.BMP,resources/Empty.png,Door2,-0.213888889,0.005555556,1,0,0,0.8355,optionLeft,40,4440,3,1,0,1,0,1,,,,,,,,,,,,,,,,,,,,,,,,,,,,,,,,,,,,,,,
,,,,,,,,2023-08-16_08h47.38.217,HF_wild_card,2022.2.4,Win32,60.0276127,6074b1a4765dd68a61e40bb4,64d2fd46c836a06233681665,64dc7f05d511e4427e42da2a,,,,,,,sngl,resources/DB.BMP,resources/Empty.png,Door3,-0.240740712,-0.00648151,1,0,0,0.8289,optionLeft,70,4510,3,2,0,2,0,1,,,,,,,,,,,,,,,,,,,,,,,,,,,,,,,,,,,,,,,
,,,,,,,,2023-08-16_08h47.38.217,HF_wild_card,2022.2.4,Win32,60.0276127,6074b1a4765dd68a61e40bb4,64d2fd46c836a06233681665,64dc7f05d511e4427e42da2a,,,,,,,decisionTrl,resources/DBN.BMP,resources/DR.BMP,Door4,0.382407464,0.039814801,1,0,0,3.5417,optionRight,80,4590,3,3,0,3,0,1,,,,,,,,,,,,,,,,,,,,,,,,,,,,,,,,,,,,,,,
,,,,,,,,2023-08-16_08h47.38.217,HF_wild_card,2022.2.4,Win32,60.0276127,6074b1a4765dd68a61e40bb4,64d2fd46c836a06233681665,64dc7f05d511e4427e42da2a,,,,,,,decisionTrl,resources/DG.BMP,resources/DY.BMP,Door1,-0.254629601,-0.025925954,1,0,0,2.1929,optionLeft,30,4620,3,4,0,4,0,1,,,,,,,,,,,,,,,,,,,,,,,,,,,,,,,,,,,,,,,
,,,,,,,,2023-08-16_08h47.38.217,HF_wild_card,2022.2.4,Win32,60.0276127,6074b1a4765dd68a61e40bb4,64d2fd46c836a06233681665,64dc7f05d511e4427e42da2a,,,,,,,sngl,resources/Empty.png,resources/DY.BMP,Door2,0.265740797,0.022222222,1,0,0,0.7997,optionRight,20,4640,3,5,0,5,0,1,,,,,,,,,,,,,,,,,,,,,,,,,,,,,,,,,,,,,,,
,,,,,,,,2023-08-16_08h47.38.217,HF_wild_card,2022.2.4,Win32,60.0276127,6074b1a4765dd68a61e40bb4,64d2fd46c836a06233681665,64dc7f05d511e4427e42da2a,,,,,,,decisionTrl,resources/DR.BMP,resources/DB.BMP,Door4,-0.200925912,-0.013888889,1,0,0,0.943,optionLeft,60,4700,3,6,0,6,0,1,,,,,,,,,,,,,,,,,,,,,,,,,,,,,,,,,,,,,,,
,,,,,,,,2023-08-16_08h47.38.217,HF_wild_card,2022.2.4,Win32,60.0276127,6074b1a4765dd68a61e40bb4,64d2fd46c836a06233681665,64dc7f05d511e4427e42da2a,,,,,,,decisionTrl,resources/DB.BMP,resources/DR.BMP,Door4,0.249074131,0.07870369,1,0,0,3.4206,optionRight,60,4760,3,7,0,7,0,1,,,,,,,,,,,,,,,,,,,,,,,,,,,,,,,,,,,,,,,
,,,,,,,,2023-08-16_08h47.38.217,HF_wild_card,2022.2.4,Win32,60.0276127,6074b1a4765dd68a61e40bb4,64d2fd46c836a06233681665,64dc7f05d511e4427e42da2a,,,,,,,decisionTrl,resources/DR.BMP,resources/DBN.BMP,Door4,-0.296296268,-0.032407422,1,0,0,0.7282,optionLeft,80,4840,3,8,0,8,0,1,,,,,,,,,,,,,,,,,,,,,,,,,,,,,,,,,,,,,,,
,,,,,,,,2023-08-16_08h47.38.217,HF_wild_card,2022.2.4,Win32,60.0276127,6074b1a4765dd68a61e40bb4,64d2fd46c836a06233681665,64dc7f05d511e4427e42da2a,,,,,,,sngl,resources/Empty.png,resources/DBN.BMP,WildCard_Ex,0.198148176,0.022222222,1,0,0,0.9272,optionRight,5,4845,3,9,0,9,0,1,,,,,,,,,,,,,,,,,,,,,,,,,,,,,,,,,,,,,,,
,,,,,,,,2023-08-16_08h47.38.217,HF_wild_card,2022.2.4,Win32,60.0276127,6074b1a4765dd68a61e40bb4,64d2fd46c836a06233681665,64dc7f05d511e4427e42da2a,,,,,,,decisionTrl,resources/DR.BMP,resources/DB.BMP,Door4,-0.236111111,-0.057407422,1,0,0,0.8434,optionLeft,60,4905,3,10,0,10,0,1,,,,,,,,,,,,,,,,,,,,,,,,,,,,,,,,,,,,,,,
,,,,,,,,2023-08-16_08h47.38.217,HF_wild_card,2022.2.4,Win32,60.0276127,6074b1a4765dd68a61e40bb4,64d2fd46c836a06233681665,64dc7f05d511e4427e42da2a,,,,,,,sngl,resources/DBN.BMP,resources/Empty.png,WildCard_Ex,0.203703732,0.04351849,1,0,0,1.0583,optionLeft,5,4910,3,11,0,11,0,1,,,,,,,,,,,,,,,,,,,,,,,,,,,,,,,,,,,,,,,
,,,,,,,,2023-08-16_08h47.38.217,HF_wild_card,2022.2.4,Win32,60.0276127,6074b1a4765dd68a61e40bb4,64d2fd46c836a06233681665,64dc7f05d511e4427e42da2a,,,,,,,sngl,resources/DBN.BMP,resources/Empty.png,WildCard_Ex,-0.225,-0.051851866,1,0,0,0.8717,optionLeft,95,5005,3,12,0,12,0,1,,,,,,,,,,,,,,,,,,,,,,,,,,,,,,,,,,,,,,,
,,,,,,,,2023-08-16_08h47.38.217,HF_wild_card,2022.2.4,Win32,60.0276127,6074b1a4765dd68a61e40bb4,64d2fd46c836a06233681665,64dc7f05d511e4427e42da2a,,,,,,,decisionTrl,resources/DY.BMP,resources/DG.BMP,Door1,0.275,0.010185157,1,0,0,1.1792,optionRight,30,5035,3,13,0,13,0,1,,,,,,,,,,,,,,,,,,,,,,,,,,,,,,,,,,,,,,,
,,,,,,,,2023-08-16_08h47.38.217,HF_wild_card,2022.2.4,Win32,60.0276127,6074b1a4765dd68a61e40bb4,64d2fd46c836a06233681665,64dc7f05d511e4427e42da2a,,,,,,,decisionTrl,resources/DG.BMP,resources/DY.BMP,Door2,0.399074131,0.080555556,1,0,0,8.124,optionRight,20,5055,3,14,0,14,0,1,,,,,,,,,,,,,,,,,,,,,,,,,,,,,,,,,,,,,,,
,,,,,,,,2023-08-16_08h47.38.217,HF_wild_card,2022.2.4,Win32,60.0276127,6074b1a4765dd68a61e40bb4,64d2fd46c836a06233681665,64dc7f05d511e4427e42da2a,,,,,,,decisionTrl,resources/DY.BMP,resources/DBN.BMP,Door2,-0.210185157,-0.088888889,1,0,0,0.9279,optionLeft,40,5095,3,15,0,15,0,1,,,,,,,,,,,,,,,,,,,,,,,,,,,,,,,,,,,,,,,
,,,,,,,,2023-08-16_08h47.38.217,HF_wild_card,2022.2.4,Win32,60.0276127,6074b1a4765dd68a61e40bb4,64d2fd46c836a06233681665,64dc7f05d511e4427e42da2a,,,,,,,decisionTrl,resources/DY.BMP,resources/DG.BMP,Door1,0.269444444,0.01851849,1,0,0,0.7783,optionRight,30,5125,3,16,0,16,0,1,,,,,,,,,,,,,,,,,,,,,,,,,,,,,,,,,,,,,,,
,,,,,,,,2023-08-16_08h47.38.217,HF_wild_card,2022.2.4,Win32,60.0276127,6074b1a4765dd68a61e40bb4,64d2fd46c836a06233681665,64dc7f05d511e4427e42da2a,,,,,,,sngl,resources/DG.BMP,resources/Empty.png,Door1,-0.16851849,-0.066666667,1,0,0,0.9262,optionLeft,30,5155,3,17,0,17,0,1,,,,,,,,,,,,,,,,,,,,,,,,,,,,,,,,,,,,,,,
,,,,,,,,2023-08-16_08h47.38.217,HF_wild_card,2022.2.4,Win32,60.0276127,6074b1a4765dd68a61e40bb4,64d2fd46c836a06233681665,64dc7f05d511e4427e42da2a,,,,,,,ctch,resources/DR.BMP,resources/DG.BMP,Door1,0.254629686,-0.005555556,1,0,0,0.9556,optionRight,30,5185,3,18,0,18,0,1,,,,,,,,,,,,,,,,,,,,,,,,,,,,,,,,,,,,,,,
,,,,,,,,2023-08-16_08h47.38.217,HF_wild_card,2022.2.4,Win32,60.0276127,6074b1a4765dd68a61e40bb4,64d2fd46c836a06233681665,64dc7f05d511e4427e42da2a,,,,,,,decisionTrl,resources/DBN.BMP,resources/DY.BMP,Door2,0.237037065,0.027777778,1,0,0,1.1957,optionRight,20,5205,3,19,0,19,0,1,,,,,,,,,,,,,,,,,,,,,,,,,,,,,,,,,,,,,,,
,,,,,,,,2023-08-16_08h47.38.217,HF_wild_card,2022.2.4,Win32,60.0276127,6074b1a4765dd68a61e40bb4,64d2fd46c836a06233681665,64dc7f05d511e4427e42da2a,,,,,,,ctch,resources/DY.BMP,resources/DB.BMP,Door2,-0.200925912,-0.019444444,1,0,0,0.7448,optionLeft,40,5245,3,20,0,20,0,1,,,,,,,,,,,,,,,,,,,,,,,,,,,,,,,,,,,,,,,
,,,,,,,,2023-08-16_08h47.38.217,HF_wild_card,2022.2.4,Win32,60.0276127,6074b1a4765dd68a61e40bb4,64d2fd46c836a06233681665,64dc7f05d511e4427e42da2a,,,,,,,ctch,resources/DR.BMP,resources/DG.BMP,Door1,0.193518575,0.013888889,1,0,0,0.888,optionRight,30,5275,3,21,0,21,0,1,,,,,,,,,,,,,,,,,,,,,,,,,,,,,,,,,,,,,,,
,,,,,,,,2023-08-16_08h47.38.217,HF_wild_card,2022.2.4,Win32,60.0276127,6074b1a4765dd68a61e40bb4,64d2fd46c836a06233681665,64dc7f05d511e4427e42da2a,,,,,,,ctch,resources/DB.BMP,resources/DY.BMP,Door3,-0.356481467,-0.036111111,1,0,0,0.7603,optionLeft,70,5345,3,22,0,22,0,1,,,,,,,,,,,,,,,,,,,,,,,,,,,,,,,,,,,,,,,
,,,,,,,,2023-08-16_08h47.38.217,HF_wild_card,2022.2.4,Win32,60.0276127,6074b1a4765dd68a61e40bb4,64d2fd46c836a06233681665,64dc7f05d511e4427e42da2a,,,,,,,decisionTrl,resources/DY.BMP,resources/DG.BMP,Door1,0.246296353,0.034259245,1,0,0,0.9265,optionRight,30,5375,3,23,0,23,0,1,,,,,,,,,,,,,,,,,,,,,,,,,,,,,,,,,,,,,,,
,,,,,,,,2023-08-16_08h47.38.217,HF_wild_card,2022.2.4,Win32,60.0276127,6074b1a4765dd68a61e40bb4,64d2fd46c836a06233681665,64dc7f05d511e4427e42da2a,,,,,,,decisionTrl,resources/DR.BMP,resources/DB.BMP,Door4,-0.302777778,-0.04629631,1,0,0,0.9263,optionLeft,60,5435,3,24,0,24,0,1,,,,,,,,,,,,,,,,,,,,,,,,,,,,,,,,,,,,,,,
,,,,,,,,2023-08-16_08h47.38.217,HF_wild_card,2022.2.4,Win32,60.0276127,6074b1a4765dd68a61e40bb4,64d2fd46c836a06233681665,64dc7f05d511e4427e42da2a,,,,,,,sngl,resources/Empty.png,resources/DBN.BMP,WildCard_Ex,0.274074131,0.047222222,1,0,0,0.8022,optionRight,95,5530,3,25,0,25,0,1,,,,,,,,,,,,,,,,,,,,,,,,,,,,,,,,,,,,,,,
,,,,,,,,2023-08-16_08h47.38.217,HF_wild_card,2022.2.4,Win32,60.0276127,6074b1a4765dd68a61e40bb4,64d2fd46c836a06233681665,64dc7f05d511e4427e42da2a,,,,,,,decisionTrl,resources/DG.BMP,resources/DY.BMP,Door1,-0.210185157,-0.045370399,1,0,0,1.5749,optionLeft,30,5560,3,26,0,26,0,1,,,,,,,,,,,,,,,,,,,,,,,,,,,,,,,,,,,,,,,
,,,,,,,,2023-08-16_08h47.38.217,HF_wild_card,2022.2.4,Win32,60.0276127,6074b1a4765dd68a61e40bb4,64d2fd46c836a06233681665,64dc7f05d511e4427e42da2a,,,,,,,decisionTrl,resources/DBN.BMP,resources/DB.BMP,Door3,0.242592621,-0.010185199,1,0,0,0.8597,optionRight,70,5630,3,27,0,27,0,1,,,,,,,,,,,,,,,,,,,,,,,,,,,,,,,,,,,,,,,
,,,,,,,,2023-08-16_08h47.38.217,HF_wild_card,2022.2.4,Win32,60.0276127,6074b1a4765dd68a61e40bb4,64d2fd46c836a06233681665,64dc7f05d511e4427e42da2a,,,,,,,decisionTrl,resources/DB.BMP,resources/DR.BMP,Door3,-0.281481467,-0.086111111,1,0,0,0.9932,optionLeft,70,5700,3,28,0,28,0,1,,,,,,,,,,,,,,,,,,,,,,,,,,,,,,,,,,,,,,,
,,,,,,,,2023-08-16_08h47.38.217,HF_wild_card,2022.2.4,Win32,60.0276127,6074b1a4765dd68a61e40bb4,64d2fd46c836a06233681665,64dc7f05d511e4427e42da2a,,,,,,,decisionTrl,resources/DB.BMP,resources/DR.BMP,Door4,0.312037065,0.001851824,1,0,0,0.7569,optionRight,60,5760,3,29,0,29,0,1,,,,,,,,,,,,,,,,,,,,,,,,,,,,,,,,,,,,,,,
,,,,,,,,2023-08-16_08h47.38.217,HF_wild_card,2022.2.4,Win32,60.0276127,6074b1a4765dd68a61e40bb4,64d2fd46c836a06233681665,64dc7f05d511e4427e42da2a,,,,,,,ctch,resources/DB.BMP,resources/DY.BMP,Door3,-0.244444444,-0.023148176,1,0,0,0.7449,optionLeft,70,5830,3,30,0,30,0,1,,,,,,,,,,,,,,,,,,,,,,,,,,,,,,,,,,,,,,,
,,,,,,,,2023-08-16_08h47.38.217,HF_wild_card,2022.2.4,Win32,60.0276127,6074b1a4765dd68a61e40bb4,64d2fd46c836a06233681665,64dc7f05d511e4427e42da2a,,,,,,,sngl,resources/Empty.png,resources/DR.BMP,Door4,0.251851908,-0.005555556,1,0,0,0.8093,optionRight,60,5890,3,31,0,31,0,1,,,,,,,,,,,,,,,,,,,,,,,,,,,,,,,,,,,,,,,
,,,,,,,,2023-08-16_08h47.38.217,HF_wild_card,2022.2.4,Win32,60.0276127,6074b1a4765dd68a61e40bb4,64d2fd46c836a06233681665,64dc7f05d511e4427e42da2a,,,,,,,decisionTrl,resources/DB.BMP,resources/DBN.BMP,Door3,-0.189814801,-0.029629644,1,0,0,0.8418,optionLeft,70,5960,3,32,0,32,0,1,,,,,,,,,,,,,,,,,,,,,,,,,,,,,,,,,,,,,,,
,,,,,,,,2023-08-16_08h47.38.217,HF_wild_card,2022.2.4,Win32,60.0276127,6074b1a4765dd68a61e40bb4,64d2fd46c836a06233681665,64dc7f05d511e4427e42da2a,,,,,,,decisionTrl,resources/DG.BMP,resources/DY.BMP,Door2,0.268518575,-0.025,1,0,0,0.9462,optionRight,40,6000,3,33,0,33,0,1,,,,,,,,,,,,,,,,,,,,,,,,,,,,,,,,,,,,,,,
,,,,,,,,2023-08-16_08h47.38.217,HF_wild_card,2022.2.4,Win32,60.0276127,6074b1a4765dd68a61e40bb4,64d2fd46c836a06233681665,64dc7f05d511e4427e42da2a,,,,,,,decisionTrl,resources/DY.BMP,resources/DG.BMP,Door1,0.319444444,0.046296268,1,0,0,0.8225,optionRight,30,6030,3,34,0,34,0,1,,,,,,,,,,,,,,,,,,,,,,,,,,,,,,,,,,,,,,,
,,,,,,,,2023-08-16_08h47.38.217,HF_wild_card,2022.2.4,Win32,60.0276127,6074b1a4765dd68a61e40bb4,64d2fd46c836a06233681665,64dc7f05d511e4427e42da2a,,,,,,,decisionTrl,resources/DB.BMP,resources/DR.BMP,Door4,0.285185242,0.030555556,1,0,0,0.6617,optionRight,60,6090,3,35,0,35,0,1,,,,,,,,,,,,,,,,,,,,,,,,,,,,,,,,,,,,,,,
,,,,,,,,2023-08-16_08h47.38.217,HF_wild_card,2022.2.4,Win32,60.0276127,6074b1a4765dd68a61e40bb4,64d2fd46c836a06233681665,64dc7f05d511e4427e42da2a,,,,,,,sngl,resources/DR.BMP,resources/Empty.png,Door4,-0.237962935,-0.062962977,1,0,0,0.909,optionLeft,80,6170,3,36,0,36,0,1,,,,,,,,,,,,,,,,,,,,,,,,,,,,,,,,,,,,,,,
,,,,,,,,2023-08-16_08h47.38.217,HF_wild_card,2022.2.4,Win32,60.0276127,6074b1a4765dd68a61e40bb4,64d2fd46c836a06233681665,64dc7f05d511e4427e42da2a,,,,,,,ctch,resources/DY.BMP,resources/DB.BMP,Door2,-0.300925912,-0.07129631,1,0,0,0.9101,optionLeft,20,6190,3,37,0,37,0,1,,,,,,,,,,,,,,,,,,,,,,,,,,,,,,,,,,,,,,,
,,,,,,,,2023-08-16_08h47.38.217,HF_wild_card,2022.2.4,Win32,60.0276127,6074b1a4765dd68a61e40bb4,64d2fd46c836a06233681665,64dc7f05d511e4427e42da2a,,,,,,,ctch,resources/DG.BMP,resources/DR.BMP,Door4,0.282407464,0.00370369,1,0,0,0.7764,optionRight,80,6270,3,38,0,38,0,1,,,,,,,,,,,,,,,,,,,,,,,,,,,,,,,,,,,,,,,
,,,,,,,,2023-08-16_08h47.38.217,HF_wild_card,2022.2.4,Win32,60.0276127,6074b1a4765dd68a61e40bb4,64d2fd46c836a06233681665,64dc7f05d511e4427e42da2a,,,,,,,sngl,resources/Empty.png,resources/DG.BMP,Door1,0.196296353,0.000925912,1,0,0,0.8626,optionRight,30,6300,3,39,0,39,0,1,,,,,,,,,,,,,,,,,,,,,,,,,,,,,,,,,,,,,,,
,,,,,,,,2023-08-16_08h47.38.217,HF_wild_card,2022.2.4,Win32,60.0276127,6074b1a4765dd68a61e40bb4,64d2fd46c836a06233681665,64dc7f05d511e4427e42da2a,,,,,,,sngl,resources/Empty.png,resources/DB.BMP,Door3,0.246296353,-0.007407422,1,0,0,0.7933,optionRight,70,6370,3,40,0,40,0,1,,,,,,,,,,,,,,,,,,,,,,,,,,,,,,,,,,,,,,,
,,,,,,,,2023-08-16_08h47.38.217,HF_wild_card,2022.2.4,Win32,60.0276127,6074b1a4765dd68a61e40bb4,64d2fd46c836a06233681665,64dc7f05d511e4427e42da2a,,,,,,,decisionTrl,resources/DBN.BMP,resources/DG.BMP,Door1,0.275925954,0.037037023,1,0,0,1.007,optionRight,30,6400,3,41,0,41,0,1,,,,,,,,,,,,,,,,,,,,,,,,,,,,,,,,,,,,,,,
,,,,,,,,2023-08-16_08h47.38.217,HF_wild_card,2022.2.4,Win32,60.0276127,6074b1a4765dd68a61e40bb4,64d2fd46c836a06233681665,64dc7f05d511e4427e42da2a,,,,,,,decisionTrl,resources/DR.BMP,resources/DB.BMP,Door3,0.194444444,-0.007407422,1,0,0,0.9595,optionRight,70,6470,3,42,0,42,0,1,,,,,,,,,,,,,,,,,,,,,,,,,,,,,,,,,,,,,,,
,,,,,,,,2023-08-16_08h47.38.217,HF_wild_card,2022.2.4,Win32,60.0276127,6074b1a4765dd68a61e40bb4,64d2fd46c836a06233681665,64dc7f05d511e4427e42da2a,,,,,,,decisionTrl,resources/DG.BMP,resources/DBN.BMP,WildCard_Ex,0.249074131,0.023148134,1,0,0,1.16,optionRight,5,6475,3,43,0,43,0,1,,,,,,,,,,,,,,,,,,,,,,,,,,,,,,,,,,,,,,,
,,,,,,,,2023-08-16_08h47.38.217,HF_wild_card,2022.2.4,Win32,60.0276127,6074b1a4765dd68a61e40bb4,64d2fd46c836a06233681665,64dc7f05d511e4427e42da2a,,,,,,,,,,,,,,,,,,,,,,,,,,2,0,2,0,1,,,,,,,,,,,,,,,,,,,,,,,,,,,,,,,,,,
,,,,,,,,2023-08-16_08h47.38.217,HF_wild_card,2022.2.4,Win32,60.0276127,6074b1a4765dd68a61e40bb4,64d2fd46c836a06233681665,64dc7f05d511e4427e42da2a,,,,,,,ctch,resources/DY.BMP,resources/DB.BMP,Door3,0.303703732,-0.125,1,0,0,1.0654,optionRight,70,6545,4,0,0,0,0,1,,,,,,,,,,,,,,,,,,,,,,,,,,,,,,,,,,,,,,,
,,,,,,,,2023-08-16_08h47.38.217,HF_wild_card,2022.2.4,Win32,60.0276127,6074b1a4765dd68a61e40bb4,64d2fd46c836a06233681665,64dc7f05d511e4427e42da2a,,,,,,,decisionTrl,resources/DY.BMP,resources/DG.BMP,Door2,-0.408333333,-0.066666667,1,0,0,4.7093,optionLeft,20,6565,4,1,0,1,0,1,,,,,,,,,,,,,,,,,,,,,,,,,,,,,,,,,,,,,,,
,,,,,,,,2023-08-16_08h47.38.217,HF_wild_card,2022.2.4,Win32,60.0276127,6074b1a4765dd68a61e40bb4,64d2fd46c836a06233681665,64dc7f05d511e4427e42da2a,,,,,,,decisionTrl,resources/DG.BMP,resources/DY.BMP,Door2,0.184259288,-0.007407422,1,0,0,1.1137,optionRight,20,6585,4,2,0,2,0,1,,,,,,,,,,,,,,,,,,,,,,,,,,,,,,,,,,,,,,,
,,,,,,,,2023-08-16_08h47.38.217,HF_wild_card,2022.2.4,Win32,60.0276127,6074b1a4765dd68a61e40bb4,64d2fd46c836a06233681665,64dc7f05d511e4427e42da2a,,,,,,,ctch,resources/DY.BMP,resources/DB.BMP,Door2,-0.212037023,-0.017592621,1,0,0,0.8469,optionLeft,40,6625,4,3,0,3,0,1,,,,,,,,,,,,,,,,,,,,,,,,,,,,,,,,,,,,,,,
,,,,,,,,2023-08-16_08h47.38.217,HF_wild_card,2022.2.4,Win32,60.0276127,6074b1a4765dd68a61e40bb4,64d2fd46c836a06233681665,64dc7f05d511e4427e42da2a,,,,,,,sngl,resources/Empty.png,resources/DR.BMP,Door4,0.213888889,0.035185157,1,0,0,0.7294,optionRight,80,6705,4,4,0,4,0,1,,,,,,,,,,,,,,,,,,,,,,,,,,,,,,,,,,,,,,,
,,,,,,,,2023-08-16_08h47.38.217,HF_wild_card,2022.2.4,Win32,60.0276127,6074b1a4765dd68a61e40bb4,64d2fd46c836a06233681665,64dc7f05d511e4427e42da2a,,,,,,,decisionTrl,resources/DY.BMP,resources/DP.BMP,Door2,-0.308333333,-0.138888889,1,0,0,0.9283,optionLeft,40,6745,4,5,0,5,0,1,,,,,,,,,,,,,,,,,,,,,,,,,,,,,,,,,,,,,,,
,,,,,,,,2023-08-16_08h47.38.217,HF_wild_card,2022.2.4,Win32,60.0276127,6074b1a4765dd68a61e40bb4,64d2fd46c836a06233681665,64dc7f05d511e4427e42da2a,,,,,,,ctch,resources/DB.BMP,resources/DY.BMP,Door2,0.310185242,0.060185157,1,0,0,0.8424,optionRight,40,6785,4,6,0,6,0,1,,,,,,,,,,,,,,,,,,,,,,,,,,,,,,,,,,,,,,,
,,,,,,,,2023-08-16_08h47.38.217,HF_wild_card,2022.2.4,Win32,60.0276127,6074b1a4765dd68a61e40bb4,64d2fd46c836a06233681665,64dc7f05d511e4427e42da2a,,,,,,,decisionTrl,resources/DR.BMP,resources/DB.BMP,Door4,-0.288888889,-0.064814843,1,0,0,0.8224,optionLeft,60,6845,4,7,0,7,0,1,,,,,,,,,,,,,,,,,,,,,,,,,,,,,,,,,,,,,,,
,,,,,,,,2023-08-16_08h47.38.217,HF_wild_card,2022.2.4,Win32,60.0276127,6074b1a4765dd68a61e40bb4,64d2fd46c836a06233681665,64dc7f05d511e4427e42da2a,,,,,,,sngl,resources/DG.BMP,resources/Empty.png,Door1,-0.211111111,-0.065740755,1,0,0,1.0109,optionLeft,30,6875,4,8,0,8,0,1,,,,,,,,,,,,,,,,,,,,,,,,,,,,,,,,,,,,,,,
,,,,,,,,2023-08-16_08h47.38.217,HF_wild_card,2022.2.4,Win32,60.0276127,6074b1a4765dd68a61e40bb4,64d2fd46c836a06233681665,64dc7f05d511e4427e42da2a,,,,,,,decisionTrl,resources/DR.BMP,resources/DB.BMP,Door3,0.142592621,-0.00648151,1,0,0,0.9334,optionRight,70,6945,4,9,0,9,0,1,,,,,,,,,,,,,,,,,,,,,,,,,,,,,,,,,,,,,,,
,,,,,,,,2023-08-16_08h47.38.217,HF_wild_card,2022.2.4,Win32,60.0276127,6074b1a4765dd68a61e40bb4,64d2fd46c836a06233681665,64dc7f05d511e4427e42da2a,,,,,,,sngl,resources/Empty.png,resources/DP.BMP,WildCard_NonEx,0.250925954,0.024074046,1,0,0,0.9979,optionRight,45,6990,4,10,0,10,0,1,,,,,,,,,,,,,,,,,,,,,,,,,,,,,,,,,,,,,,,
,,,,,,,,2023-08-16_08h47.38.217,HF_wild_card,2022.2.4,Win32,60.0276127,6074b1a4765dd68a61e40bb4,64d2fd46c836a06233681665,64dc7f05d511e4427e42da2a,,,,,,,decisionTrl,resources/DR.BMP,resources/DB.BMP,Door4,-0.213888889,-0.110185199,1,0,0,1.0496,optionLeft,80,7070,4,11,0,11,0,1,,,,,,,,,,,,,,,,,,,,,,,,,,,,,,,,,,,,,,,
,,,,,,,,2023-08-16_08h47.38.217,HF_wild_card,2022.2.4,Win32,60.0276127,6074b1a4765dd68a61e40bb4,64d2fd46c836a06233681665,64dc7f05d511e4427e42da2a,,,,,,,decisionTrl,resources/DY.BMP,resources/DG.BMP,Door2,-0.321296268,-0.138888889,1,0,0,0.9204,optionLeft,20,7090,4,12,0,12,0,1,,,,,,,,,,,,,,,,,,,,,,,,,,,,,,,,,,,,,,,
,,,,,,,,2023-08-16_08h47.38.217,HF_wild_card,2022.2.4,Win32,60.0276127,6074b1a4765dd68a61e40bb4,64d2fd46c836a06233681665,64dc7f05d511e4427e42da2a,,,,,,,decisionTrl,resources/DG.BMP,resources/DP.BMP,WildCard_NonEx,0.184259288,0.008333333,1,0,0,1.1112,optionRight,45,7135,4,13,0,13,0,1,,,,,,,,,,,,,,,,,,,,,,,,,,,,,,,,,,,,,,,
,,,,,,,,2023-08-16_08h47.38.217,HF_wild_card,2022.2.4,Win32,60.0276127,6074b1a4765dd68a61e40bb4,64d2fd46c836a06233681665,64dc7f05d511e4427e42da2a,,,,,,,sngl,resources/DB.BMP,resources/Empty.png,Door3,-0.298148134,-0.067592621,1,0,0,0.8302,optionLeft,70,7205,4,14,0,14,0,1,,,,,,,,,,,,,,,,,,,,,,,,,,,,,,,,,,,,,,,
,,,,,,,,2023-08-16_08h47.38.217,HF_wild_card,2022.2.4,Win32,60.0276127,6074b1a4765dd68a61e40bb4,64d2fd46c836a06233681665,64dc7f05d511e4427e42da2a,,,,,,,ctch,resources/DG.BMP,resources/DR.BMP,Door4,0.251851908,0.022222222,1,0,0,0.8455,optionRight,80,7285,4,15,0,15,0,1,,,,,,,,,,,,,,,,,,,,,,,,,,,,,,,,,,,,,,,
,,,,,,,,2023-08-16_08h47.38.217,HF_wild_card,2022.2.4,Win32,60.0276127,6074b1a4765dd68a61e40bb4,64d2fd46c836a06233681665,64dc7f05d511e4427e42da2a,,,,,,,decisionTrl,resources/DB.BMP,resources/DR.BMP,Door3,-0.226851824,-0.107407422,1,0,0,0.8771,optionLeft,70,7355,4,16,0,16,0,1,,,,,,,,,,,,,,,,,,,,,,,,,,,,,,,,,,,,,,,
,,,,,,,,2023-08-16_08h47.38.217,HF_wild_card,2022.2.4,Win32,60.0276127,6074b1a4765dd68a61e40bb4,64d2fd46c836a06233681665,64dc7f05d511e4427e42da2a,,,,,,,ctch,resources/DG.BMP,resources/DR.BMP,Door4,0.265740797,0.040740712,1,0,0,1.4334,optionRight,60,7415,4,17,0,17,0,1,,,,,,,,,,,,,,,,,,,,,,,,,,,,,,,,,,,,,,,
,,,,,,,,2023-08-16_08h47.38.217,HF_wild_card,2022.2.4,Win32,60.0276127,6074b1a4765dd68a61e40bb4,64d2fd46c836a06233681665,64dc7f05d511e4427e42da2a,,,,,,,decisionTrl,resources/DB.BMP,resources/DR.BMP,Door3,-0.135185157,-0.068518533,1,0,0,1.0056,optionLeft,70,7485,4,18,0,18,0,1,,,,,,,,,,,,,,,,,,,,,,,,,,,,,,,,,,,,,,,
,,,,,,,,2023-08-16_08h47.38.217,HF_wild_card,2022.2.4,Win32,60.0276127,6074b1a4765dd68a61e40bb4,64d2fd46c836a06233681665,64dc7f05d511e4427e42da2a,,,,,,,sngl,resources/Empty.png,resources/DP.BMP,WildCard_NonEx,0.122222222,0.016666667,1,0,0,1.1347,optionRight,55,7540,4,19,0,19,0,1,,,,,,,,,,,,,,,,,,,,,,,,,,,,,,,,,,,,,,,
,,,,,,,,2023-08-16_08h47.38.217,HF_wild_card,2022.2.4,Win32,60.0276127,6074b1a4765dd68a61e40bb4,64d2fd46c836a06233681665,64dc7f05d511e4427e42da2a,,,,,,,sngl,resources/DP.BMP,resources/Empty.png,WildCard_NonEx,-0.298148134,-0.086111111,1,0,0,0.7938,optionLeft,45,7585,4,20,0,20,0,1,,,,,,,,,,,,,,,,,,,,,,,,,,,,,,,,,,,,,,,
,,,,,,,,2023-08-16_08h47.38.217,HF_wild_card,2022.2.4,Win32,60.0276127,6074b1a4765dd68a61e40bb4,64d2fd46c836a06233681665,64dc7f05d511e4427e42da2a,,,,,,,sngl,resources/Empty.png,resources/DG.BMP,Door1,0.180555556,0.026851824,1,0,0,0.8185,optionRight,30,7615,4,21,0,21,0,1,,,,,,,,,,,,,,,,,,,,,,,,,,,,,,,,,,,,,,,
,,,,,,,,2023-08-16_08h47.38.217,HF_wild_card,2022.2.4,Win32,60.0276127,6074b1a4765dd68a61e40bb4,64d2fd46c836a06233681665,64dc7f05d511e4427e42da2a,,,,,,,sngl,resources/DP.BMP,resources/Empty.png,WildCard_NonEx,-0.230555556,-0.063888889,1,0,0,0.7765,optionLeft,55,7670,4,22,0,22,0,1,,,,,,,,,,,,,,,,,,,,,,,,,,,,,,,,,,,,,,,
,,,,,,,,2023-08-16_08h47.38.217,HF_wild_card,2022.2.4,Win32,60.0276127,6074b1a4765dd68a61e40bb4,64d2fd46c836a06233681665,64dc7f05d511e4427e42da2a,,,,,,,decisionTrl,resources/DG.BMP,resources/DY.BMP,Door2,0.249074131,0.044444444,1,0,0,0.7102,optionRight,20,7690,4,23,0,23,0,1,,,,,,,,,,,,,,,,,,,,,,,,,,,,,,,,,,,,,,,
,,,,,,,,2023-08-16_08h47.38.217,HF_wild_card,2022.2.4,Win32,60.0276127,6074b1a4765dd68a61e40bb4,64d2fd46c836a06233681665,64dc7f05d511e4427e42da2a,,,,,,,decisionTrl,resources/DB.BMP,resources/DP.BMP,Door3,-0.282407379,-0.087037065,1,0,0,0.9261,optionLeft,70,7760,4,24,0,24,0,1,,,,,,,,,,,,,,,,,,,,,,,,,,,,,,,,,,,,,,,
,,,,,,,,2023-08-16_08h47.38.217,HF_wild_card,2022.2.4,Win32,60.0276127,6074b1a4765dd68a61e40bb4,64d2fd46c836a06233681665,64dc7f05d511e4427e42da2a,,,,,,,decisionTrl,resources/DR.BMP,resources/DP.BMP,WildCard_NonEx,0.168518575,0.010185157,1,0,0,0.8182,optionRight,55,7815,4,25,0,25,0,1,,,,,,,,,,,,,,,,,,,,,,,,,,,,,,,,,,,,,,,
,,,,,,,,2023-08-16_08h47.38.217,HF_wild_card,2022.2.4,Win32,60.0276127,6074b1a4765dd68a61e40bb4,64d2fd46c836a06233681665,64dc7f05d511e4427e42da2a,,,,,,,sngl,resources/Empty.png,resources/DY.BMP,Door2,0.389814843,0.089814801,1,0,0,0.6974,optionRight,40,7855,4,26,0,26,0,1,,,,,,,,,,,,,,,,,,,,,,,,,,,,,,,,,,,,,,,
,,,,,,,,2023-08-16_08h47.38.217,HF_wild_card,2022.2.4,Win32,60.0276127,6074b1a4765dd68a61e40bb4,64d2fd46c836a06233681665,64dc7f05d511e4427e42da2a,,,,,,,decisionTrl,resources/DG.BMP,resources/DY.BMP,Door2,0.263888889,0.080555556,1,0,0,0.8955,optionRight,40,7895,4,27,0,27,0,1,,,,,,,,,,,,,,,,,,,,,,,,,,,,,,,,,,,,,,,
,,,,,,,,2023-08-16_08h47.38.217,HF_wild_card,2022.2.4,Win32,60.0276127,6074b1a4765dd68a61e40bb4,64d2fd46c836a06233681665,64dc7f05d511e4427e42da2a,,,,,,,decisionTrl,resources/DG.BMP,resources/DY.BMP,Door1,-0.282407379,-0.054629644,1,0,0,0.8964,optionLeft,30,7925,4,28,0,28,0,1,,,,,,,,,,,,,,,,,,,,,,,,,,,,,,,,,,,,,,,
,,,,,,,,2023-08-16_08h47.38.217,HF_wild_card,2022.2.4,Win32,60.0276127,6074b1a4765dd68a61e40bb4,64d2fd46c836a06233681665,64dc7f05d511e4427e42da2a,,,,,,,decisionTrl,resources/DY.BMP,resources/DG.BMP,Door2,-0.341666667,-0.099074088,1,0,0,0.943,optionLeft,20,7945,4,29,0,29,0,1,,,,,,,,,,,,,,,,,,,,,,,,,,,,,,,,,,,,,,,
,,,,,,,,2023-08-16_08h47.38.217,HF_wild_card,2022.2.4,Win32,60.0276127,6074b1a4765dd68a61e40bb4,64d2fd46c836a06233681665,64dc7f05d511e4427e42da2a,,,,,,,ctch,resources/DR.BMP,resources/DG.BMP,Door1,0.273148176,0.048148134,1,0,0,0.7444,optionRight,30,7975,4,30,0,30,0,1,,,,,,,,,,,,,,,,,,,,,,,,,,,,,,,,,,,,,,,
,,,,,,,,2023-08-16_08h47.38.217,HF_wild_card,2022.2.4,Win32,60.0276127,6074b1a4765dd68a61e40bb4,64d2fd46c836a06233681665,64dc7f05d511e4427e42da2a,,,,,,,decisionTrl,resources/DP.BMP,resources/DB.BMP,WildCard_NonEx,-0.213888889,-0.086111111,1,0,0,0.9297,optionLeft,55,8030,4,31,0,31,0,1,,,,,,,,,,,,,,,,,,,,,,,,,,,,,,,,,,,,,,,
,,,,,,,,2023-08-16_08h47.38.217,HF_wild_card,2022.2.4,Win32,60.0276127,6074b1a4765dd68a61e40bb4,64d2fd46c836a06233681665,64dc7f05d511e4427e42da2a,,,,,,,sngl,resources/Empty.png,resources/DB.BMP,Door3,0.301851908,0.076851824,1,0,0,0.9461,optionRight,70,8100,4,32,0,32,0,1,,,,,,,,,,,,,,,,,,,,,,,,,,,,,,,,,,,,,,,
,,,,,,,,2023-08-16_08h47.38.217,HF_wild_card,2022.2.4,Win32,60.0276127,6074b1a4765dd68a61e40bb4,64d2fd46c836a06233681665,64dc7f05d511e4427e42da2a,,,,,,,ctch,resources/DR.BMP,resources/DG.BMP,Door1,0.246296353,0.069444444,1,0,0,0.8593,optionRight,30,8130,4,33,0,33,0,1,,,,,,,,,,,,,,,,,,,,,,,,,,,,,,,,,,,,,,,
,,,,,,,,2023-08-16_08h47.38.217,HF_wild_card,2022.2.4,Win32,60.0276127,6074b1a4765dd68a61e40bb4,64d2fd46c836a06233681665,64dc7f05d511e4427e42da2a,,,,,,,ctch,resources/DB.BMP,resources/DY.BMP,Door2,0.339814843,0.099074046,1,0,0,0.8599,optionRight,20,8150,4,34,0,34,0,1,,,,,,,,,,,,,,,,,,,,,,,,,,,,,,,,,,,,,,,
,,,,,,,,2023-08-16_08h47.38.217,HF_wild_card,2022.2.4,Win32,60.0276127,6074b1a4765dd68a61e40bb4,64d2fd46c836a06233681665,64dc7f05d511e4427e42da2a,,,,,,,decisionTrl,resources/DP.BMP,resources/DG.BMP,WildCard_NonEx,-0.235185157,-0.100925954,1,0,0,0.8436,optionLeft,45,8195,4,35,0,35,0,1,,,,,,,,,,,,,,,,,,,,,,,,,,,,,,,,,,,,,,,
,,,,,,,,2023-08-16_08h47.38.217,HF_wild_card,2022.2.4,Win32,60.0276127,6074b1a4765dd68a61e40bb4,64d2fd46c836a06233681665,64dc7f05d511e4427e42da2a,,,,,,,decisionTrl,resources/DP.BMP,resources/DY.BMP,WildCard_NonEx,-0.173148092,-0.057407422,1,0,0,0.9266,optionLeft,45,8240,4,36,0,36,0,1,,,,,,,,,,,,,,,,,,,,,,,,,,,,,,,,,,,,,,,
,,,,,,,,2023-08-16_08h47.38.217,HF_wild_card,2022.2.4,Win32,60.0276127,6074b1a4765dd68a61e40bb4,64d2fd46c836a06233681665,64dc7f05d511e4427e42da2a,,,,,,,sngl,resources/DR.BMP,resources/Empty.png,Door4,-0.229629601,-0.091666667,1,0,0,0.7771,optionLeft,60,8300,4,37,0,37,0,1,,,,,,,,,,,,,,,,,,,,,,,,,,,,,,,,,,,,,,,
,,,,,,,,2023-08-16_08h47.38.217,HF_wild_card,2022.2.4,Win32,60.0276127,6074b1a4765dd68a61e40bb4,64d2fd46c836a06233681665,64dc7f05d511e4427e42da2a,,,,,,,decisionTrl,resources/DB.BMP,resources/DR.BMP,Door4,0.198148176,0.025,1,0,0,0.9738,optionRight,60,8360,4,38,0,38,0,1,,,,,,,,,,,,,,,,,,,,,,,,,,,,,,,,,,,,,,,
,,,,,,,,2023-08-16_08h47.38.217,HF_wild_card,2022.2.4,Win32,60.0276127,6074b1a4765dd68a61e40bb4,64d2fd46c836a06233681665,64dc7f05d511e4427e42da2a,,,,,,,decisionTrl,resources/DR.BMP,resources/DB.BMP,Door4,-0.227777778,-0.072222222,1,0,0,1.0955,optionLeft,80,8440,4,39,0,39,0,1,,,,,,,,,,,,,,,,,,,,,,,,,,,,,,,,,,,,,,,
,,,,,,,,2023-08-16_08h47.38.217,HF_wild_card,2022.2.4,Win32,60.0276127,6074b1a4765dd68a61e40bb4,64d2fd46c836a06233681665,64dc7f05d511e4427e42da2a,,,,,,,decisionTrl,resources/DP.BMP,resources/DR.BMP,Door4,0.192592621,0.026851824,1,0,0,1.0615,optionRight,60,8500,4,40,0,40,0,1,,,,,,,,,,,,,,,,,,,,,,,,,,,,,,,,,,,,,,,
,,,,,,,,2023-08-16_08h47.38.217,HF_wild_card,2022.2.4,Win32,60.0276127,6074b1a4765dd68a61e40bb4,64d2fd46c836a06233681665,64dc7f05d511e4427e42da2a,,,,,,,decisionTrl,resources/DB.BMP,resources/DR.BMP,Door3,-0.260185157,-0.080555556,1,0,0,0.7614,optionLeft,70,8570,4,41,0,41,0,1,,,,,,,,,,,,,,,,,,,,,,,,,,,,,,,,,,,,,,,
,,,,,,,,2023-08-16_08h47.38.217,HF_wild_card,2022.2.4,Win32,60.0276127,6074b1a4765dd68a61e40bb4,64d2fd46c836a06233681665,64dc7f05d511e4427e42da2a,,,,,,,decisionTrl,resources/DY.BMP,resources/DG.BMP,Door1,0.215740797,0.064814801,1,0,0,0.828,optionRight,30,8600,4,42,0,42,0,1,,,,,,,,,,,,,,,,,,,,,,,,,,,,,,,,,,,,,,,
,,,,,,,,2023-08-16_08h47.38.217,HF_wild_card,2022.2.4,Win32,60.0276127,6074b1a4765dd68a61e40bb4,64d2fd46c836a06233681665,64dc7f05d511e4427e42da2a,,,,,,,sngl,resources/DY.BMP,resources/Empty.png,Door2,-0.204629601,-0.038888889,1,0,0,0.6278,optionLeft,20,8620,4,43,0,43,0,1,,,,,,,,,,,,,,,,,,,,,,,,,,,,,,,,,,,,,,,
,,,,,,,,2023-08-16_08h47.38.217,HF_wild_card,2022.2.4,Win32,60.0276127,6074b1a4765dd68a61e40bb4,64d2fd46c836a06233681665,64dc7f05d511e4427e42da2a,,,,,,,,,,,,,,,,,,,,,,,,,,3,0,3,0,1,,,,,,,,,,,,,,,,,,,,,,,,,,,,,,,,,,
,,,,,,,,2023-08-16_08h47.38.217,HF_wild_card,2022.2.4,Win32,60.0276127,6074b1a4765dd68a61e40bb4,64d2fd46c836a06233681665,64dc7f05d511e4427e42da2a,,,,,,,sngl,resources/DG.BMP,resources/Empty.png,Door1,-0.314814801,-0.150925954,1,0,0,2.5804,optionLeft,30,8650,5,0,0,0,0,1,,,,,,,,,,,,,,,,,,,,,,,,,,,,,,,,,,,,,,,
,,,,,,,,2023-08-16_08h47.38.217,HF_wild_card,2022.2.4,Win32,60.0276127,6074b1a4765dd68a61e40bb4,64d2fd46c836a06233681665,64dc7f05d511e4427e42da2a,,,,,,,decisionTrl,resources/DY.BMP,resources/DP.BMP,Door2,-0.182407379,-0.084259288,1,0,0,0.7432,optionLeft,20,8670,5,1,0,1,0,1,,,,,,,,,,,,,,,,,,,,,,,,,,,,,,,,,,,,,,,
,,,,,,,,2023-08-16_08h47.38.217,HF_wild_card,2022.2.4,Win32,60.0276127,6074b1a4765dd68a61e40bb4,64d2fd46c836a06233681665,64dc7f05d511e4427e42da2a,,,,,,,decisionTrl,resources/DR.BMP,resources/DB.BMP,Door3,0.140740797,0.030555556,1,0,0,0.8791,optionRight,70,8740,5,2,0,2,0,1,,,,,,,,,,,,,,,,,,,,,,,,,,,,,,,,,,,,,,,
,,,,,,,,2023-08-16_08h47.38.217,HF_wild_card,2022.2.4,Win32,60.0276127,6074b1a4765dd68a61e40bb4,64d2fd46c836a06233681665,64dc7f05d511e4427e42da2a,,,,,,,decisionTrl,resources/DY.BMP,resources/DG.BMP,Door1,0.225,0.027777778,1,0,0,0.5793,optionRight,30,8770,5,3,0,3,0,1,,,,,,,,,,,,,,,,,,,,,,,,,,,,,,,,,,,,,,,
,,,,,,,,2023-08-16_08h47.38.217,HF_wild_card,2022.2.4,Win32,60.0276127,6074b1a4765dd68a61e40bb4,64d2fd46c836a06233681665,64dc7f05d511e4427e42da2a,,,,,,,decisionTrl,resources/DG.BMP,resources/DY.BMP,Door2,0.189814843,-0.024074088,1,0,0,0.6774,optionRight,40,8810,5,4,0,4,0,1,,,,,,,,,,,,,,,,,,,,,,,,,,,,,,,,,,,,,,,
,,,,,,,,2023-08-16_08h47.38.217,HF_wild_card,2022.2.4,Win32,60.0276127,6074b1a4765dd68a61e40bb4,64d2fd46c836a06233681665,64dc7f05d511e4427e42da2a,,,,,,,ctch,resources/DR.BMP,resources/DG.BMP,Door4,-0.106481425,-0.015740755,1,0,0,3.1608,optionLeft,60,8870,5,5,0,5,0,1,,,,,,,,,,,,,,,,,,,,,,,,,,,,,,,,,,,,,,,
,,,,,,,,2023-08-16_08h47.38.217,HF_wild_card,2022.2.4,Win32,60.0276127,6074b1a4765dd68a61e40bb4,64d2fd46c836a06233681665,64dc7f05d511e4427e42da2a,,,,,,,decisionTrl,resources/DP.BMP,resources/DR.BMP,Door4,0.125925954,0.005555556,1,0,0,0.9114,optionRight,80,8950,5,6,0,6,0,1,,,,,,,,,,,,,,,,,,,,,,,,,,,,,,,,,,,,,,,
,,,,,,,,2023-08-16_08h47.38.217,HF_wild_card,2022.2.4,Win32,60.0276127,6074b1a4765dd68a61e40bb4,64d2fd46c836a06233681665,64dc7f05d511e4427e42da2a,,,,,,,decisionTrl,resources/DR.BMP,resources/DB.BMP,Door4,-0.202777778,-0.025,1,0,0,0.7105,optionLeft,60,9010,5,7,0,7,0,1,,,,,,,,,,,,,,,,,,,,,,,,,,,,,,,,,,,,,,,
,,,,,,,,2023-08-16_08h47.38.217,HF_wild_card,2022.2.4,Win32,60.0276127,6074b1a4765dd68a61e40bb4,64d2fd46c836a06233681665,64dc7f05d511e4427e42da2a,,,,,,,sngl,resources/Empty.png,resources/DY.BMP,Door2,0.235185242,0.009259245,1,0,0,0.6083,optionRight,20,9030,5,8,0,8,0,1,,,,,,,,,,,,,,,,,,,,,,,,,,,,,,,,,,,,,,,
,,,,,,,,2023-08-16_08h47.38.217,HF_wild_card,2022.2.4,Win32,60.0276127,6074b1a4765dd68a61e40bb4,64d2fd46c836a06233681665,64dc7f05d511e4427e42da2a,,,,,,,decisionTrl,resources/DP.BMP,resources/DY.BMP,Door2,0.205555556,0.025925912,1,0,0,1.0459,optionRight,40,9070,5,9,0,9,0,1,,,,,,,,,,,,,,,,,,,,,,,,,,,,,,,,,,,,,,,
,,,,,,,,2023-08-16_08h47.38.217,HF_wild_card,2022.2.4,Win32,60.0276127,6074b1a4765dd68a61e40bb4,64d2fd46c836a06233681665,64dc7f05d511e4427e42da2a,,,,,,,sngl,resources/DP.BMP,resources/Empty.png,WildCard_NonEx,-0.311111111,-0.077777778,1,0,0,0.8445,optionLeft,45,9115,5,10,0,10,0,1,,,,,,,,,,,,,,,,,,,,,,,,,,,,,,,,,,,,,,,
,,,,,,,,2023-08-16_08h47.38.217,HF_wild_card,2022.2.4,Win32,60.0276127,6074b1a4765dd68a61e40bb4,64d2fd46c836a06233681665,64dc7f05d511e4427e42da2a,,,,,,,sngl,resources/Empty.png,resources/DP.BMP,WildCard_NonEx,0.186111111,0.027777778,1,0,0,0.6788,optionRight,45,9160,5,11,0,11,0,1,,,,,,,,,,,,,,,,,,,,,,,,,,,,,,,,,,,,,,,
,,,,,,,,2023-08-16_08h47.38.217,HF_wild_card,2022.2.4,Win32,60.0276127,6074b1a4765dd68a61e40bb4,64d2fd46c836a06233681665,64dc7f05d511e4427e42da2a,,,,,,,decisionTrl,resources/DG.BMP,resources/DY.BMP,Door2,0.182407464,0.024074046,1,0,0,0.8617,optionRight,40,9200,5,12,0,12,0,1,,,,,,,,,,,,,,,,,,,,,,,,,,,,,,,,,,,,,,,
,,,,,,,,2023-08-16_08h47.38.217,HF_wild_card,2022.2.4,Win32,60.0276127,6074b1a4765dd68a61e40bb4,64d2fd46c836a06233681665,64dc7f05d511e4427e42da2a,,,,,,,decisionTrl,resources/DB.BMP,resources/DR.BMP,Door4,0.186111111,-0.009259288,1,0,0,0.6595,optionRight,80,9280,5,13,0,13,0,1,,,,,,,,,,,,,,,,,,,,,,,,,,,,,,,,,,,,,,,
,,,,,,,,2023-08-16_08h47.38.217,HF_wild_card,2022.2.4,Win32,60.0276127,6074b1a4765dd68a61e40bb4,64d2fd46c836a06233681665,64dc7f05d511e4427e42da2a,,,,,,,decisionTrl,resources/DG.BMP,resources/DY.BMP,Door2,0.238888889,-0.018518533,1,0,0,0.6433,optionRight,20,9300,5,14,0,14,0,1,,,,,,,,,,,,,,,,,,,,,,,,,,,,,,,,,,,,,,,
,,,,,,,,2023-08-16_08h47.38.217,HF_wild_card,2022.2.4,Win32,60.0276127,6074b1a4765dd68a61e40bb4,64d2fd46c836a06233681665,64dc7f05d511e4427e42da2a,,,,,,,decisionTrl,resources/DY.BMP,resources/DG.BMP,Door1,0.274074131,0.022222222,1,0,0,0.8702,optionRight,30,9330,5,15,0,15,0,1,,,,,,,,,,,,,,,,,,,,,,,,,,,,,,,,,,,,,,,
,,,,,,,,2023-08-16_08h47.38.217,HF_wild_card,2022.2.4,Win32,60.0276127,6074b1a4765dd68a61e40bb4,64d2fd46c836a06233681665,64dc7f05d511e4427e42da2a,,,,,,,decisionTrl,resources/DB.BMP,resources/DR.BMP,Door4,0.234259288,0.029629601,1,0,0,0.6606,optionRight,80,9410,5,16,0,16,0,1,,,,,,,,,,,,,,,,,,,,,,,,,,,,,,,,,,,,,,,
,,,,,,,,2023-08-16_08h47.38.217,HF_wild_card,2022.2.4,Win32,60.0276127,6074b1a4765dd68a61e40bb4,64d2fd46c836a06233681665,64dc7f05d511e4427e42da2a,,,,,,,ctch,resources/DB.BMP,resources/DY.BMP,Door2,0.154629686,-0.019444444,1,0,0,0.6936,optionRight,40,9450,5,17,0,17,0,1,,,,,,,,,,,,,,,,,,,,,,,,,,,,,,,,,,,,,,,
,,,,,,,,2023-08-16_08h47.38.217,HF_wild_card,2022.2.4,Win32,60.0276127,6074b1a4765dd68a61e40bb4,64d2fd46c836a06233681665,64dc7f05d511e4427e42da2a,,,,,,,ctch,resources/DY.BMP,resources/DB.BMP,Door2,-0.52870369,-0.160185199,1,0,0,0.7595,optionLeft,20,9470,5,18,0,18,0,1,,,,,,,,,,,,,,,,,,,,,,,,,,,,,,,,,,,,,,,
,,,,,,,,2023-08-16_08h47.38.217,HF_wild_card,2022.2.4,Win32,60.0276127,6074b1a4765dd68a61e40bb4,64d2fd46c836a06233681665,64dc7f05d511e4427e42da2a,,,,,,,sngl,resources/DB.BMP,resources/Empty.png,Door3,-0.155555556,-0.058333333,1,0,0,0.8932,optionLeft,70,9540,5,19,0,19,0,1,,,,,,,,,,,,,,,,,,,,,,,,,,,,,,,,,,,,,,,
,,,,,,,,2023-08-16_08h47.38.217,HF_wild_card,2022.2.4,Win32,60.0276127,6074b1a4765dd68a61e40bb4,64d2fd46c836a06233681665,64dc7f05d511e4427e42da2a,,,,,,,ctch,resources/DG.BMP,resources/DR.BMP,Door1,-0.172222222,-0.050925954,1,0,0,0.8905,optionLeft,30,9570,5,20,0,20,0,1,,,,,,,,,,,,,,,,,,,,,,,,,,,,,,,,,,,,,,,
,,,,,,,,2023-08-16_08h47.38.217,HF_wild_card,2022.2.4,Win32,60.0276127,6074b1a4765dd68a61e40bb4,64d2fd46c836a06233681665,64dc7f05d511e4427e42da2a,,,,,,,decisionTrl,resources/DG.BMP,resources/DP.BMP,Door1,-0.171296268,-0.049074088,1,0,0,1.0388,optionLeft,30,9600,5,21,0,21,0,1,,,,,,,,,,,,,,,,,,,,,,,,,,,,,,,,,,,,,,,
,,,,,,,,2023-08-16_08h47.38.217,HF_wild_card,2022.2.4,Win32,60.0276127,6074b1a4765dd68a61e40bb4,64d2fd46c836a06233681665,64dc7f05d511e4427e42da2a,,,,,,,sngl,resources/DY.BMP,resources/Empty.png,Door2,-0.125925869,-0.043518533,1,0,0,0.8604,optionLeft,40,9640,5,22,0,22,0,1,,,,,,,,,,,,,,,,,,,,,,,,,,,,,,,,,,,,,,,
,,,,,,,,2023-08-16_08h47.38.217,HF_wild_card,2022.2.4,Win32,60.0276127,6074b1a4765dd68a61e40bb4,64d2fd46c836a06233681665,64dc7f05d511e4427e42da2a,,,,,,,decisionTrl,resources/DB.BMP,resources/DP.BMP,WildCard_NonEx,0.185185242,0.00370369,1,0,0,0.7433,optionRight,45,9685,5,23,0,23,0,1,,,,,,,,,,,,,,,,,,,,,,,,,,,,,,,,,,,,,,,
,,,,,,,,2023-08-16_08h47.38.217,HF_wild_card,2022.2.4,Win32,60.0276127,6074b1a4765dd68a61e40bb4,64d2fd46c836a06233681665,64dc7f05d511e4427e42da2a,,,,,,,decisionTrl,resources/DB.BMP,resources/DR.BMP,Door4,0.275,0.036111111,1,0,0,0.7262,optionRight,80,9765,5,24,0,24,0,1,,,,,,,,,,,,,,,,,,,,,,,,,,,,,,,,,,,,,,,
,,,,,,,,2023-08-16_08h47.38.217,HF_wild_card,2022.2.4,Win32,60.0276127,6074b1a4765dd68a61e40bb4,64d2fd46c836a06233681665,64dc7f05d511e4427e42da2a,,,,,,,decisionTrl,resources/DB.BMP,resources/DR.BMP,Door4,0.175,-0.016666667,1,0,0,0.7388,optionRight,80,9845,5,25,0,25,0,1,,,,,,,,,,,,,,,,,,,,,,,,,,,,,,,,,,,,,,,
,,,,,,,,2023-08-16_08h47.38.217,HF_wild_card,2022.2.4,Win32,60.0276127,6074b1a4765dd68a61e40bb4,64d2fd46c836a06233681665,64dc7f05d511e4427e42da2a,,,,,,,decisionTrl,resources/DY.BMP,resources/DG.BMP,Door2,-0.231481467,-0.052777778,1,0,0,0.877,optionLeft,20,9865,5,26,0,26,0,1,,,,,,,,,,,,,,,,,,,,,,,,,,,,,,,,,,,,,,,
,,,,,,,,2023-08-16_08h47.38.217,HF_wild_card,2022.2.4,Win32,60.0276127,6074b1a4765dd68a61e40bb4,64d2fd46c836a06233681665,64dc7f05d511e4427e42da2a,,,,,,,ctch,resources/DY.BMP,resources/DB.BMP,Door3,0.217592621,-0.001851866,1,0,0,0.6615,optionRight,70,9935,5,27,0,27,0,1,,,,,,,,,,,,,,,,,,,,,,,,,,,,,,,,,,,,,,,
,,,,,,,,2023-08-16_08h47.38.217,HF_wild_card,2022.2.4,Win32,60.0276127,6074b1a4765dd68a61e40bb4,64d2fd46c836a06233681665,64dc7f05d511e4427e42da2a,,,,,,,decisionTrl,resources/DR.BMP,resources/DB.BMP,Door3,0.263888889,-0.004629644,1,0,0,0.6203,optionRight,70,10005,5,28,0,28,0,1,,,,,,,,,,,,,,,,,,,,,,,,,,,,,,,,,,,,,,,
,,,,,,,,2023-08-16_08h47.38.217,HF_wild_card,2022.2.4,Win32,60.0276127,6074b1a4765dd68a61e40bb4,64d2fd46c836a06233681665,64dc7f05d511e4427e42da2a,,,,,,,ctch,resources/DR.BMP,resources/DG.BMP,Door1,0.330555556,0.058333333,1,0,0,0.6446,optionRight,30,10035,5,29,0,29,0,1,,,,,,,,,,,,,,,,,,,,,,,,,,,,,,,,,,,,,,,
,,,,,,,,2023-08-16_08h47.38.217,HF_wild_card,2022.2.4,Win32,60.0276127,6074b1a4765dd68a61e40bb4,64d2fd46c836a06233681665,64dc7f05d511e4427e42da2a,,,,,,,sngl,resources/DP.BMP,resources/Empty.png,WildCard_NonEx,-0.173148092,-0.043518533,1,0,0,0.8181,optionLeft,55,10090,5,30,0,30,0,1,,,,,,,,,,,,,,,,,,,,,,,,,,,,,,,,,,,,,,,
,,,,,,,,2023-08-16_08h47.38.217,HF_wild_card,2022.2.4,Win32,60.0276127,6074b1a4765dd68a61e40bb4,64d2fd46c836a06233681665,64dc7f05d511e4427e42da2a,,,,,,,sngl,resources/DR.BMP,resources/Empty.png,Door4,-0.173148092,-0.086111111,1,0,0,0.821,optionLeft,80,10170,5,31,0,31,0,1,,,,,,,,,,,,,,,,,,,,,,,,,,,,,,,,,,,,,,,
,,,,,,,,2023-08-16_08h47.38.217,HF_wild_card,2022.2.4,Win32,60.0276127,6074b1a4765dd68a61e40bb4,64d2fd46c836a06233681665,64dc7f05d511e4427e42da2a,,,,,,,ctch,resources/DB.BMP,resources/DY.BMP,Door2,0.178703732,0.030555556,1,0,0,0.7945,optionRight,40,10210,5,32,0,32,0,1,,,,,,,,,,,,,,,,,,,,,,,,,,,,,,,,,,,,,,,
,,,,,,,,2023-08-16_08h47.38.217,HF_wild_card,2022.2.4,Win32,60.0276127,6074b1a4765dd68a61e40bb4,64d2fd46c836a06233681665,64dc7f05d511e4427e42da2a,,,,,,,decisionTrl,resources/DR.BMP,resources/DP.BMP,Door4,-0.133333333,-0.036111111,1,0,0,0.8941,optionLeft,80,10290,5,33,0,33,0,1,,,,,,,,,,,,,,,,,,,,,,,,,,,,,,,,,,,,,,,
,,,,,,,,2023-08-16_08h47.38.217,HF_wild_card,2022.2.4,Win32,60.0276127,6074b1a4765dd68a61e40bb4,64d2fd46c836a06233681665,64dc7f05d511e4427e42da2a,,,,,,,sngl,resources/Empty.png,resources/DG.BMP,Door1,0.230555556,-0.000925954,1,0,0,0.6283,optionRight,30,10320,5,34,0,34,0,1,,,,,,,,,,,,,,,,,,,,,,,,,,,,,,,,,,,,,,,
,,,,,,,,2023-08-16_08h47.38.217,HF_wild_card,2022.2.4,Win32,60.0276127,6074b1a4765dd68a61e40bb4,64d2fd46c836a06233681665,64dc7f05d511e4427e42da2a,,,,,,,sngl,resources/Empty.png,resources/DP.BMP,WildCard_NonEx,0.232407464,0.058333333,1,0,0,2.4122,optionRight,55,10375,5,35,0,35,0,1,,,,,,,,,,,,,,,,,,,,,,,,,,,,,,,,,,,,,,,
,,,,,,,,2023-08-16_08h47.38.217,HF_wild_card,2022.2.4,Win32,60.0276127,6074b1a4765dd68a61e40bb4,64d2fd46c836a06233681665,64dc7f05d511e4427e42da2a,,,,,,,sngl,resources/Empty.png,resources/DB.BMP,Door3,0.189814843,0.010185157,1,0,0,0.7772,optionRight,70,10445,5,36,0,36,0,1,,,,,,,,,,,,,,,,,,,,,,,,,,,,,,,,,,,,,,,
,,,,,,,,2023-08-16_08h47.38.217,HF_wild_card,2022.2.4,Win32,60.0276127,6074b1a4765dd68a61e40bb4,64d2fd46c836a06233681665,64dc7f05d511e4427e42da2a,,,,,,,decisionTrl,resources/DY.BMP,resources/DG.BMP,Door2,-0.232407379,-0.012037065,1,0,0,0.7426,optionLeft,40,10485,5,37,0,37,0,1,,,,,,,,,,,,,,,,,,,,,,,,,,,,,,,,,,,,,,,
,,,,,,,,2023-08-16_08h47.38.217,HF_wild_card,2022.2.4,Win32,60.0276127,6074b1a4765dd68a61e40bb4,64d2fd46c836a06233681665,64dc7f05d511e4427e42da2a,,,,,,,ctch,resources/DG.BMP,resources/DR.BMP,Door4,0.199074131,-0.019444444,1,0,0,0.6932,optionRight,60,10545,5,38,0,38,0,1,,,,,,,,,,,,,,,,,,,,,,,,,,,,,,,,,,,,,,,
,,,,,,,,2023-08-16_08h47.38.217,HF_wild_card,2022.2.4,Win32,60.0276127,6074b1a4765dd68a61e40bb4,64d2fd46c836a06233681665,64dc7f05d511e4427e42da2a,,,,,,,decisionTrl,resources/DP.BMP,resources/DB.BMP,WildCard_NonEx,-0.165740712,0.000925912,1,0,0,0.7259,optionLeft,45,10590,5,39,0,39,0,1,,,,,,,,,,,,,,,,,,,,,,,,,,,,,,,,,,,,,,,
,,,,,,,,2023-08-16_08h47.38.217,HF_wild_card,2022.2.4,Win32,60.0276127,6074b1a4765dd68a61e40bb4,64d2fd46c836a06233681665,64dc7f05d511e4427e42da2a,,,,,,,decisionTrl,resources/DR.BMP,resources/DB.BMP,Door3,0.160185242,-0.016666667,1,0,0,0.81,optionRight,70,10660,5,40,0,40,0,1,,,,,,,,,,,,,,,,,,,,,,,,,,,,,,,,,,,,,,,
,,,,,,,,2023-08-16_08h47.38.217,HF_wild_card,2022.2.4,Win32,60.0276127,6074b1a4765dd68a61e40bb4,64d2fd46c836a06233681665,64dc7f05d511e4427e42da2a,,,,,,,decisionTrl,resources/DP.BMP,resources/DG.BMP,WildCard_NonEx,-0.152777778,-0.036111111,1,0,0,0.8374,optionLeft,55,10715,5,41,0,41,0,1,,,,,,,,,,,,,,,,,,,,,,,,,,,,,,,,,,,,,,,
,,,,,,,,2023-08-16_08h47.38.217,HF_wild_card,2022.2.4,Win32,60.0276127,6074b1a4765dd68a61e40bb4,64d2fd46c836a06233681665,64dc7f05d511e4427e42da2a,,,,,,,decisionTrl,resources/DG.BMP,resources/DY.BMP,Door2,0.144444444,-0.02129631,1,0,0,0.7798,optionRight,20,10735,5,42,0,42,0,1,,,,,,,,,,,,,,,,,,,,,,,,,,,,,,,,,,,,,,,
,,,,,,,,2023-08-16_08h47.38.217,HF_wild_card,2022.2.4,Win32,60.0276127,6074b1a4765dd68a61e40bb4,64d2fd46c836a06233681665,64dc7f05d511e4427e42da2a,,,,,,,sngl,resources/Empty.png,resources/DR.BMP,Door4,0.219444444,-0.014814843,1,0,0,0.8593,optionRight,60,10795,5,43,0,43,0,1,,,,,,,,,,,,,,,,,,,,,,,,,,,,,,,,,,,,,,,
,,,,,,,,2023-08-16_08h47.38.217,HF_wild_card,2022.2.4,Win32,60.0276127,6074b1a4765dd68a61e40bb4,64d2fd46c836a06233681665,64dc7f05d511e4427e42da2a,,,,,,,,,,,,,,,,,,,,,,,,,,4,0,4,0,1,,,,,,,,,,,,,,,,,,,,,,,,,,,,,,,,,,
,,,,,,,,2023-08-16_08h47.38.217,HF_wild_card,2022.2.4,Win32,60.0276127,6074b1a4765dd68a61e40bb4,64d2fd46c836a06233681665,64dc7f05d511e4427e42da2a,,,,,,,sngl,resources/Empty.png,resources/DB.BMP,Door3,0.412963019,-0.095370399,1,0,0,1.2969,optionRight,70,10865,6,0,0,0,0,1,,,,,,,,,,,,,,,,,,,,,,,,,,,,,,,,,,,,,,,
,,,,,,,,2023-08-16_08h47.38.217,HF_wild_card,2022.2.4,Win32,60.0276127,6074b1a4765dd68a61e40bb4,64d2fd46c836a06233681665,64dc7f05d511e4427e42da2a,,,,,,,decisionTrl,resources/DG.BMP,resources/DP.BMP,WildCard_NonEx,0.138888889,-0.03148151,1,0,0,0.7063,optionRight,55,10920,6,1,0,1,0,1,,,,,,,,,,,,,,,,,,,,,,,,,,,,,,,,,,,,,,,
,,,,,,,,2023-08-16_08h47.38.217,HF_wild_card,2022.2.4,Win32,60.0276127,6074b1a4765dd68a61e40bb4,64d2fd46c836a06233681665,64dc7f05d511e4427e42da2a,,,,,,,decisionTrl,resources/DB.BMP,resources/DR.BMP,Door4,0.25,0.014814801,1,0,0,0.626,optionRight,60,10980,6,2,0,2,0,1,,,,,,,,,,,,,,,,,,,,,,,,,,,,,,,,,,,,,,,
,,,,,,,,2023-08-16_08h47.38.217,HF_wild_card,2022.2.4,Win32,60.0276127,6074b1a4765dd68a61e40bb4,64d2fd46c836a06233681665,64dc7f05d511e4427e42da2a,,,,,,,sngl,resources/DG.BMP,resources/Empty.png,Door1,-0.155555556,-0.019444444,1,0,0,2.1035,optionLeft,30,11010,6,3,0,3,0,1,,,,,,,,,,,,,,,,,,,,,,,,,,,,,,,,,,,,,,,
,,,,,,,,2023-08-16_08h47.38.217,HF_wild_card,2022.2.4,Win32,60.0276127,6074b1a4765dd68a61e40bb4,64d2fd46c836a06233681665,64dc7f05d511e4427e42da2a,,,,,,,decisionTrl,resources/DR.BMP,resources/DP.BMP,Door4,-0.220370356,-0.036111111,1,0,0,0.7747,optionLeft,60,11070,6,4,0,4,0,1,,,,,,,,,,,,,,,,,,,,,,,,,,,,,,,,,,,,,,,
,,,,,,,,2023-08-16_08h47.38.217,HF_wild_card,2022.2.4,Win32,60.0276127,6074b1a4765dd68a61e40bb4,64d2fd46c836a06233681665,64dc7f05d511e4427e42da2a,,,,,,,sngl,resources/Empty.png,resources/DP.BMP,WildCard_NonEx,0.216666667,-0.005555556,1,0,0,0.6938,optionRight,55,11125,6,5,0,5,0,1,,,,,,,,,,,,,,,,,,,,,,,,,,,,,,,,,,,,,,,
,,,,,,,,2023-08-16_08h47.38.217,HF_wild_card,2022.2.4,Win32,60.0276127,6074b1a4765dd68a61e40bb4,64d2fd46c836a06233681665,64dc7f05d511e4427e42da2a,,,,,,,decisionTrl,resources/DG.BMP,resources/DY.BMP,Door2,0.202777778,0.000925912,1,0,0,0.9917,optionRight,20,11145,6,6,0,6,0,1,,,,,,,,,,,,,,,,,,,,,,,,,,,,,,,,,,,,,,,
,,,,,,,,2023-08-16_08h47.38.217,HF_wild_card,2022.2.4,Win32,60.0276127,6074b1a4765dd68a61e40bb4,64d2fd46c836a06233681665,64dc7f05d511e4427e42da2a,,,,,,,decisionTrl,resources/DG.BMP,resources/DY.BMP,Door1,-0.133333333,-0.035185199,1,0,0,0.8729,optionLeft,30,11175,6,7,0,7,0,1,,,,,,,,,,,,,,,,,,,,,,,,,,,,,,,,,,,,,,,
,,,,,,,,2023-08-16_08h47.38.217,HF_wild_card,2022.2.4,Win32,60.0276127,6074b1a4765dd68a61e40bb4,64d2fd46c836a06233681665,64dc7f05d511e4427e42da2a,,,,,,,sngl,resources/DP.BMP,resources/Empty.png,WildCard_NonEx,-0.180555556,-0.026851866,1,0,0,0.7273,optionLeft,55,11230,6,8,0,8,0,1,,,,,,,,,,,,,,,,,,,,,,,,,,,,,,,,,,,,,,,
,,,,,,,,2023-08-16_08h47.38.217,HF_wild_card,2022.2.4,Win32,60.0276127,6074b1a4765dd68a61e40bb4,64d2fd46c836a06233681665,64dc7f05d511e4427e42da2a,,,,,,,decisionTrl,resources/DY.BMP,resources/DG.BMP,Door2,-0.176851824,-0.025925954,1,0,0,0.7759,optionLeft,40,11270,6,9,0,9,0,1,,,,,,,,,,,,,,,,,,,,,,,,,,,,,,,,,,,,,,,
,,,,,,,,2023-08-16_08h47.38.217,HF_wild_card,2022.2.4,Win32,60.0276127,6074b1a4765dd68a61e40bb4,64d2fd46c836a06233681665,64dc7f05d511e4427e42da2a,,,,,,,sngl,resources/Empty.png,resources/DY.BMP,Door2,0.109259288,-0.008333333,1,0,0,0.7769,optionRight,40,11310,6,10,0,10,0,1,,,,,,,,,,,,,,,,,,,,,,,,,,,,,,,,,,,,,,,
,,,,,,,,2023-08-16_08h47.38.217,HF_wild_card,2022.2.4,Win32,60.0276127,6074b1a4765dd68a61e40bb4,64d2fd46c836a06233681665,64dc7f05d511e4427e42da2a,,,,,,,decisionTrl,resources/DP.BMP,resources/DG.BMP,WildCard_NonEx,-0.259259245,-0.011111111,1,0,0,0.8773,optionLeft,45,11355,6,11,0,11,0,1,,,,,,,,,,,,,,,,,,,,,,,,,,,,,,,,,,,,,,,
,,,,,,,,2023-08-16_08h47.38.217,HF_wild_card,2022.2.4,Win32,60.0276127,6074b1a4765dd68a61e40bb4,64d2fd46c836a06233681665,64dc7f05d511e4427e42da2a,,,,,,,ctch,resources/DG.BMP,resources/DR.BMP,Door4,0.200925954,-0.000925954,1,0,0,0.7601,optionRight,80,11435,6,12,0,12,0,1,,,,,,,,,,,,,,,,,,,,,,,,,,,,,,,,,,,,,,,
,,,,,,,,2023-08-16_08h47.38.217,HF_wild_card,2022.2.4,Win32,60.0276127,6074b1a4765dd68a61e40bb4,64d2fd46c836a06233681665,64dc7f05d511e4427e42da2a,,,,,,,decisionTrl,resources/DP.BMP,resources/DR.BMP,WildCard_NonEx,-0.138888889,0.004629601,1,0,0,0.7111,optionLeft,55,11490,6,13,0,13,0,1,,,,,,,,,,,,,,,,,,,,,,,,,,,,,,,,,,,,,,,
,,,,,,,,2023-08-16_08h47.38.217,HF_wild_card,2022.2.4,Win32,60.0276127,6074b1a4765dd68a61e40bb4,64d2fd46c836a06233681665,64dc7f05d511e4427e42da2a,,,,,,,ctch,resources/DY.BMP,resources/DB.BMP,Door2,-0.244444444,0.00370369,1,0,0,0.8595,optionLeft,40,11530,6,14,0,14,0,1,,,,,,,,,,,,,,,,,,,,,,,,,,,,,,,,,,,,,,,
,,,,,,,,2023-08-16_08h47.38.217,HF_wild_card,2022.2.4,Win32,60.0276127,6074b1a4765dd68a61e40bb4,64d2fd46c836a06233681665,64dc7f05d511e4427e42da2a,,,,,,,ctch,resources/DR.BMP,resources/DG.BMP,Door1,0.182407464,0.002777778,1,0,0,0.9283,optionRight,30,11560,6,15,0,15,0,1,,,,,,,,,,,,,,,,,,,,,,,,,,,,,,,,,,,,,,,
,,,,,,,,2023-08-16_08h47.38.217,HF_wild_card,2022.2.4,Win32,60.0276127,6074b1a4765dd68a61e40bb4,64d2fd46c836a06233681665,64dc7f05d511e4427e42da2a,,,,,,,sngl,resources/Empty.png,resources/DP.BMP,WildCard_NonEx,0.154629686,-0.002777778,1,0,0,0.8467,optionRight,45,11605,6,16,0,16,0,1,,,,,,,,,,,,,,,,,,,,,,,,,,,,,,,,,,,,,,,
,,,,,,,,2023-08-16_08h47.38.217,HF_wild_card,2022.2.4,Win32,60.0276127,6074b1a4765dd68a61e40bb4,64d2fd46c836a06233681665,64dc7f05d511e4427e42da2a,,,,,,,decisionTrl,resources/DY.BMP,resources/DG.BMP,Door2,-0.181481467,-0.018518533,1,0,0,0.8104,optionLeft,20,11625,6,17,0,17,0,1,,,,,,,,,,,,,,,,,,,,,,,,,,,,,,,,,,,,,,,
,,,,,,,,2023-08-16_08h47.38.217,HF_wild_card,2022.2.4,Win32,60.0276127,6074b1a4765dd68a61e40bb4,64d2fd46c836a06233681665,64dc7f05d511e4427e42da2a,,,,,,,decisionTrl,resources/DP.BMP,resources/DY.BMP,Door2,0.342592621,-0.001851866,1,0,0,0.7108,optionRight,40,11665,6,18,0,18,0,1,,,,,,,,,,,,,,,,,,,,,,,,,,,,,,,,,,,,,,,
,,,,,,,,2023-08-16_08h47.38.217,HF_wild_card,2022.2.4,Win32,60.0276127,6074b1a4765dd68a61e40bb4,64d2fd46c836a06233681665,64dc7f05d511e4427e42da2a,,,,,,,ctch,resources/DB.BMP,resources/DY.BMP,Door3,-0.156481425,0.002777778,1,0,0,0.7968,optionLeft,70,11735,6,19,0,19,0,1,,,,,,,,,,,,,,,,,,,,,,,,,,,,,,,,,,,,,,,
,,,,,,,,2023-08-16_08h47.38.217,HF_wild_card,2022.2.4,Win32,60.0276127,6074b1a4765dd68a61e40bb4,64d2fd46c836a06233681665,64dc7f05d511e4427e42da2a,,,,,,,decisionTrl,resources/DR.BMP,resources/DB.BMP,Door3,0.164814843,-0.003703732,1,0,0,0.8939,optionRight,70,11805,6,20,0,20,0,1,,,,,,,,,,,,,,,,,,,,,,,,,,,,,,,,,,,,,,,
,,,,,,,,2023-08-16_08h47.38.217,HF_wild_card,2022.2.4,Win32,60.0276127,6074b1a4765dd68a61e40bb4,64d2fd46c836a06233681665,64dc7f05d511e4427e42da2a,,,,,,,ctch,resources/DG.BMP,resources/DR.BMP,Door1,-0.187037023,-0.030555556,1,0,0,0.7108,optionLeft,30,11835,6,21,0,21,0,1,,,,,,,,,,,,,,,,,,,,,,,,,,,,,,,,,,,,,,,
,,,,,,,,2023-08-16_08h47.38.217,HF_wild_card,2022.2.4,Win32,60.0276127,6074b1a4765dd68a61e40bb4,64d2fd46c836a06233681665,64dc7f05d511e4427e42da2a,,,,,,,decisionTrl,resources/DB.BMP,resources/DP.BMP,WildCard_NonEx,0.23148151,0.027777778,1,0,0,0.8287,optionRight,45,11880,6,22,0,22,0,1,,,,,,,,,,,,,,,,,,,,,,,,,,,,,,,,,,,,,,,
,,,,,,,,2023-08-16_08h47.38.217,HF_wild_card,2022.2.4,Win32,60.0276127,6074b1a4765dd68a61e40bb4,64d2fd46c836a06233681665,64dc7f05d511e4427e42da2a,,,,,,,decisionTrl,resources/DG.BMP,resources/DY.BMP,Door2,0.18148151,-0.00648151,1,0,0,0.6059,optionRight,20,11900,6,23,0,23,0,1,,,,,,,,,,,,,,,,,,,,,,,,,,,,,,,,,,,,,,,
,,,,,,,,2023-08-16_08h47.38.217,HF_wild_card,2022.2.4,Win32,60.0276127,6074b1a4765dd68a61e40bb4,64d2fd46c836a06233681665,64dc7f05d511e4427e42da2a,,,,,,,decisionTrl,resources/DB.BMP,resources/DR.BMP,Door4,0.213888889,0.002777778,1,0,0,0.5783,optionRight,60,11960,6,24,0,24,0,1,,,,,,,,,,,,,,,,,,,,,,,,,,,,,,,,,,,,,,,
,,,,,,,,2023-08-16_08h47.38.217,HF_wild_card,2022.2.4,Win32,60.0276127,6074b1a4765dd68a61e40bb4,64d2fd46c836a06233681665,64dc7f05d511e4427e42da2a,,,,,,,ctch,resources/DR.BMP,resources/DG.BMP,Door4,-0.175925869,-0.015740755,1,0,0,0.976,optionLeft,60,12020,6,25,0,25,0,1,,,,,,,,,,,,,,,,,,,,,,,,,,,,,,,,,,,,,,,
,,,,,,,,2023-08-16_08h47.38.217,HF_wild_card,2022.2.4,Win32,60.0276127,6074b1a4765dd68a61e40bb4,64d2fd46c836a06233681665,64dc7f05d511e4427e42da2a,,,,,,,decisionTrl,resources/DB.BMP,resources/DR.BMP,Door4,0.123148176,-0.05648151,1,0,0,0.8961,optionRight,60,12080,6,26,0,26,0,1,,,,,,,,,,,,,,,,,,,,,,,,,,,,,,,,,,,,,,,
,,,,,,,,2023-08-16_08h47.38.217,HF_wild_card,2022.2.4,Win32,60.0276127,6074b1a4765dd68a61e40bb4,64d2fd46c836a06233681665,64dc7f05d511e4427e42da2a,,,,,,,decisionTrl,resources/DR.BMP,resources/DB.BMP,Door3,0.191666667,0.001851824,1,0,0,1.2501,optionRight,70,12150,6,27,0,27,0,1,,,,,,,,,,,,,,,,,,,,,,,,,,,,,,,,,,,,,,,
,,,,,,,,2023-08-16_08h47.38.217,HF_wild_card,2022.2.4,Win32,60.0276127,6074b1a4765dd68a61e40bb4,64d2fd46c836a06233681665,64dc7f05d511e4427e42da2a,,,,,,,sngl,resources/Empty.png,resources/DR.BMP,Door4,0.170370399,-0.013888889,1,0,0,0.9271,optionRight,80,12230,6,28,0,28,0,1,,,,,,,,,,,,,,,,,,,,,,,,,,,,,,,,,,,,,,,
,,,,,,,,2023-08-16_08h47.38.217,HF_wild_card,2022.2.4,Win32,60.0276127,6074b1a4765dd68a61e40bb4,64d2fd46c836a06233681665,64dc7f05d511e4427e42da2a,,,,,,,sngl,resources/Empty.png,resources/DG.BMP,Door1,0.194444444,0.040740712,1,0,0,0.7603,optionRight,30,12260,6,29,0,29,0,1,,,,,,,,,,,,,,,,,,,,,,,,,,,,,,,,,,,,,,,
,,,,,,,,2023-08-16_08h47.38.217,HF_wild_card,2022.2.4,Win32,60.0276127,6074b1a4765dd68a61e40bb4,64d2fd46c836a06233681665,64dc7f05d511e4427e42da2a,,,,,,,sngl,resources/DB.BMP,resources/Empty.png,Door3,-0.339814801,-0.067592621,1,0,0,0.7602,optionLeft,70,12330,6,30,0,30,0,1,,,,,,,,,,,,,,,,,,,,,,,,,,,,,,,,,,,,,,,
,,,,,,,,2023-08-16_08h47.38.217,HF_wild_card,2022.2.4,Win32,60.0276127,6074b1a4765dd68a61e40bb4,64d2fd46c836a06233681665,64dc7f05d511e4427e42da2a,,,,,,,decisionTrl,resources/DR.BMP,resources/DB.BMP,Door3,0.338888889,0.06851849,1,0,0,0.81,optionRight,70,12400,6,31,0,31,0,1,,,,,,,,,,,,,,,,,,,,,,,,,,,,,,,,,,,,,,,
,,,,,,,,2023-08-16_08h47.38.217,HF_wild_card,2022.2.4,Win32,60.0276127,6074b1a4765dd68a61e40bb4,64d2fd46c836a06233681665,64dc7f05d511e4427e42da2a,,,,,,,decisionTrl,resources/DY.BMP,resources/DG.BMP,Door2,-0.14351849,0.041666667,1,0,0,1.3698,optionLeft,40,12440,6,32,0,32,0,1,,,,,,,,,,,,,,,,,,,,,,,,,,,,,,,,,,,,,,,
,,,,,,,,2023-08-16_08h47.38.217,HF_wild_card,2022.2.4,Win32,60.0276127,6074b1a4765dd68a61e40bb4,64d2fd46c836a06233681665,64dc7f05d511e4427e42da2a,,,,,,,decisionTrl,resources/DR.BMP,resources/DB.BMP,Door3,0.278703732,-0.011111111,1,0,0,0.7434,optionRight,70,12510,6,33,0,33,0,1,,,,,,,,,,,,,,,,,,,,,,,,,,,,,,,,,,,,,,,
,,,,,,,,2023-08-16_08h47.38.217,HF_wild_card,2022.2.4,Win32,60.0276127,6074b1a4765dd68a61e40bb4,64d2fd46c836a06233681665,64dc7f05d511e4427e42da2a,,,,,,,sngl,resources/DP.BMP,resources/Empty.png,WildCard_NonEx,-0.173148092,-0.037037065,1,0,0,0.7771,optionLeft,45,12555,6,34,0,34,0,1,,,,,,,,,,,,,,,,,,,,,,,,,,,,,,,,,,,,,,,
,,,,,,,,2023-08-16_08h47.38.217,HF_wild_card,2022.2.4,Win32,60.0276127,6074b1a4765dd68a61e40bb4,64d2fd46c836a06233681665,64dc7f05d511e4427e42da2a,,,,,,,decisionTrl,resources/DP.BMP,resources/DB.BMP,Door3,0.267592621,-0.003703732,1,0,0,0.6789,optionRight,70,12625,6,35,0,35,0,1,,,,,,,,,,,,,,,,,,,,,,,,,,,,,,,,,,,,,,,
,,,,,,,,2023-08-16_08h47.38.217,HF_wild_card,2022.2.4,Win32,60.0276127,6074b1a4765dd68a61e40bb4,64d2fd46c836a06233681665,64dc7f05d511e4427e42da2a,,,,,,,sngl,resources/DY.BMP,resources/Empty.png,Door2,-0.252777778,-0.053703732,1,0,0,0.7277,optionLeft,20,12645,6,36,0,36,0,1,,,,,,,,,,,,,,,,,,,,,,,,,,,,,,,,,,,,,,,
,,,,,,,,2023-08-16_08h47.38.217,HF_wild_card,2022.2.4,Win32,60.0276127,6074b1a4765dd68a61e40bb4,64d2fd46c836a06233681665,64dc7f05d511e4427e42da2a,,,,,,,ctch,resources/DB.BMP,resources/DY.BMP,Door2,0.210185242,-0.012962977,1,0,0,0.6763,optionRight,40,12685,6,37,0,37,0,1,,,,,,,,,,,,,,,,,,,,,,,,,,,,,,,,,,,,,,,
,,,,,,,,2023-08-16_08h47.38.217,HF_wild_card,2022.2.4,Win32,60.0276127,6074b1a4765dd68a61e40bb4,64d2fd46c836a06233681665,64dc7f05d511e4427e42da2a,,,,,,,decisionTrl,resources/DY.BMP,resources/DG.BMP,Door2,-0.21851849,-0.02129631,1,0,0,0.6707,optionLeft,20,12705,6,38,0,38,0,1,,,,,,,,,,,,,,,,,,,,,,,,,,,,,,,,,,,,,,,
,,,,,,,,2023-08-16_08h47.38.217,HF_wild_card,2022.2.4,Win32,60.0276127,6074b1a4765dd68a61e40bb4,64d2fd46c836a06233681665,64dc7f05d511e4427e42da2a,,,,,,,decisionTrl,resources/DG.BMP,resources/DY.BMP,Door1,-0.207407379,-0.008333333,1,0,0,0.9091,optionLeft,30,12735,6,39,0,39,0,1,,,,,,,,,,,,,,,,,,,,,,,,,,,,,,,,,,,,,,,
,,,,,,,,2023-08-16_08h47.38.217,HF_wild_card,2022.2.4,Win32,60.0276127,6074b1a4765dd68a61e40bb4,64d2fd46c836a06233681665,64dc7f05d511e4427e42da2a,,,,,,,ctch,resources/DY.BMP,resources/DB.BMP,Door3,0.23148151,-0.009259288,1,0,0,1.0603,optionRight,70,12805,6,40,0,40,0,1,,,,,,,,,,,,,,,,,,,,,,,,,,,,,,,,,,,,,,,
,,,,,,,,2023-08-16_08h47.38.217,HF_wild_card,2022.2.4,Win32,60.0276127,6074b1a4765dd68a61e40bb4,64d2fd46c836a06233681665,64dc7f05d511e4427e42da2a,,,,,,,decisionTrl,resources/DY.BMP,resources/DP.BMP,WildCard_NonEx,0.146296353,0.019444444,1,0,0,1.1086,optionRight,55,12860,6,41,0,41,0,1,,,,,,,,,,,,,,,,,,,,,,,,,,,,,,,,,,,,,,,
,,,,,,,,2023-08-16_08h47.38.217,HF_wild_card,2022.2.4,Win32,60.0276127,6074b1a4765dd68a61e40bb4,64d2fd46c836a06233681665,64dc7f05d511e4427e42da2a,,,,,,,decisionTrl,resources/DB.BMP,resources/DR.BMP,Door4,0.265740797,0.054629601,1,0,0,1.0432,optionRight,80,12940,6,42,0,42,0,1,,,,,,,,,,,,,,,,,,,,,,,,,,,,,,,,,,,,,,,
,,,,,,,,2023-08-16_08h47.38.217,HF_wild_card,2022.2.4,Win32,60.0276127,6074b1a4765dd68a61e40bb4,64d2fd46c836a06233681665,64dc7f05d511e4427e42da2a,,,,,,,sngl,resources/DR.BMP,resources/Empty.png,Door4,-0.316666667,-0.043518533,1,0,0,0.8111,optionLeft,60,13000,6,43,0,43,0,1,,,,,,,,,,,,,,,,,,,,,,,,,,,,,,,,,,,,,,,
,,,,,,,,2023-08-16_08h47.38.217,HF_wild_card,2022.2.4,Win32,60.0276127,6074b1a4765dd68a61e40bb4,64d2fd46c836a06233681665,64dc7f05d511e4427e42da2a,,,,,,,,,,,,,,,,,,,,,,,,,,5,0,5,0,1,,,,,,,,,,,,,,,,,,,,,,,,,,,,,,,,,,
,,,,,,,,2023-08-16_08h47.38.217,HF_wild_card,2022.2.4,Win32,60.0276127,6074b1a4765dd68a61e40bb4,64d2fd46c836a06233681665,64dc7f05d511e4427e42da2a,,,,,,,decisionTrl,resources/DY.BMP,resources/DG.BMP,Door1,0.271296353,-0.057407422,1,0,0,1.5811,optionRight,30,13030,7,0,0,0,0,1,,,,,,,,,,,,,,,,,,,,,,,,,,,,,,,,,,,,,,,
,,,,,,,,2023-08-16_08h47.38.217,HF_wild_card,2022.2.4,Win32,60.0276127,6074b1a4765dd68a61e40bb4,64d2fd46c836a06233681665,64dc7f05d511e4427e42da2a,,,,,,,decisionTrl,resources/DY.BMP,resources/DG.BMP,Door1,0.247222222,0.029629601,1,0,0,1.5291,optionRight,30,13060,7,1,0,1,0,1,,,,,,,,,,,,,,,,,,,,,,,,,,,,,,,,,,,,,,,
,,,,,,,,2023-08-16_08h47.38.217,HF_wild_card,2022.2.4,Win32,60.0276127,6074b1a4765dd68a61e40bb4,64d2fd46c836a06233681665,64dc7f05d511e4427e42da2a,,,,,,,decisionTrl,resources/DG.BMP,resources/DY.BMP,Door1,-0.346296268,-0.032407422,1,0,0,1.3601,optionLeft,30,13090,7,2,0,2,0,1,,,,,,,,,,,,,,,,,,,,,,,,,,,,,,,,,,,,,,,
,,,,,,,,2023-08-16_08h47.38.217,HF_wild_card,2022.2.4,Win32,60.0276127,6074b1a4765dd68a61e40bb4,64d2fd46c836a06233681665,64dc7f05d511e4427e42da2a,,,,,,,decisionTrl,resources/DB.BMP,resources/DR.BMP,Door4,0.208333333,0.031481467,1,0,0,5.3788,optionRight,80,13170,7,3,0,3,0,1,,,,,,,,,,,,,,,,,,,,,,,,,,,,,,,,,,,,,,,
,,,,,,,,2023-08-16_08h47.38.217,HF_wild_card,2022.2.4,Win32,60.0276127,6074b1a4765dd68a61e40bb4,64d2fd46c836a06233681665,64dc7f05d511e4427e42da2a,,,,,,,decisionTrl,resources/DR.BMP,resources/DB.BMP,Door4,-0.240740712,-0.042592621,1,0,0,0.8453,optionLeft,60,13230,7,4,0,4,0,1,,,,,,,,,,,,,,,,,,,,,,,,,,,,,,,,,,,,,,,
,,,,,,,,2023-08-16_08h47.38.217,HF_wild_card,2022.2.4,Win32,60.0276127,6074b1a4765dd68a61e40bb4,64d2fd46c836a06233681665,64dc7f05d511e4427e42da2a,,,,,,,decisionTrl,resources/DR.BMP,resources/DB.BMP,Door3,0.285185242,-0.011111111,1,0,0,1.166,optionRight,70,13300,7,5,0,5,0,1,,,,,,,,,,,,,,,,,,,,,,,,,,,,,,,,,,,,,,,
,,,,,,,,2023-08-16_08h47.38.217,HF_wild_card,2022.2.4,Win32,60.0276127,6074b1a4765dd68a61e40bb4,64d2fd46c836a06233681665,64dc7f05d511e4427e42da2a,,,,,,,ctch,resources/DY.BMP,resources/DB.BMP,Door3,0.322222222,0.016666667,1,0,0,0.9809,optionRight,70,13370,7,6,0,6,0,1,,,,,,,,,,,,,,,,,,,,,,,,,,,,,,,,,,,,,,,
,,,,,,,,2023-08-16_08h47.38.217,HF_wild_card,2022.2.4,Win32,60.0276127,6074b1a4765dd68a61e40bb4,64d2fd46c836a06233681665,64dc7f05d511e4427e42da2a,,,,,,,ctch,resources/DB.BMP,resources/DY.BMP,Door3,-0.163888889,-0.061111111,1,0,0,1.1462,optionLeft,70,13440,7,7,0,7,0,1,,,,,,,,,,,,,,,,,,,,,,,,,,,,,,,,,,,,,,,
,,,,,,,,2023-08-16_08h47.38.217,HF_wild_card,2022.2.4,Win32,60.0276127,6074b1a4765dd68a61e40bb4,64d2fd46c836a06233681665,64dc7f05d511e4427e42da2a,,,,,,,decisionTrl,resources/DG.BMP,resources/DY.BMP,Door1,-0.157407379,-0.019444444,1,0,0,1.0138,optionLeft,30,13470,7,8,0,8,0,1,,,,,,,,,,,,,,,,,,,,,,,,,,,,,,,,,,,,,,,
,,,,,,,,2023-08-16_08h47.38.217,HF_wild_card,2022.2.4,Win32,60.0276127,6074b1a4765dd68a61e40bb4,64d2fd46c836a06233681665,64dc7f05d511e4427e42da2a,,,,,,,decisionTrl,resources/DG.BMP,resources/DY.BMP,Door1,-0.319444444,-0.051851866,1,0,0,2.0878,optionLeft,30,13500,7,9,0,9,0,1,,,,,,,,,,,,,,,,,,,,,,,,,,,,,,,,,,,,,,,
,,,,,,,,2023-08-16_08h47.38.217,HF_wild_card,2022.2.4,Win32,60.0276127,6074b1a4765dd68a61e40bb4,64d2fd46c836a06233681665,64dc7f05d511e4427e42da2a,,,,,,,ctch,resources/DR.BMP,resources/DG.BMP,Door1,0.242592621,-0.025925954,1,0,0,0.8644,optionRight,30,13530,7,10,0,10,0,1,,,,,,,,,,,,,,,,,,,,,,,,,,,,,,,,,,,,,,,
,,,,,,,,2023-08-16_08h47.38.217,HF_wild_card,2022.2.4,Win32,60.0276127,6074b1a4765dd68a61e40bb4,64d2fd46c836a06233681665,64dc7f05d511e4427e42da2a,,,,,,,decisionTrl,resources/DY.BMP,resources/DG.BMP,Door1,0.312037065,-0.004629644,1,0,0,0.8302,optionRight,30,13560,7,11,0,11,0,1,,,,,,,,,,,,,,,,,,,,,,,,,,,,,,,,,,,,,,,
,,,,,,,,2023-08-16_08h47.38.217,HF_wild_card,2022.2.4,Win32,60.0276127,6074b1a4765dd68a61e40bb4,64d2fd46c836a06233681665,64dc7f05d511e4427e42da2a,,,,,,,ctch,resources/DB.BMP,resources/DY.BMP,Door2,0.186111111,-0.000925954,1,0,0,6.1302,optionRight,40,13600,7,12,0,12,0,1,,,,,,,,,,,,,,,,,,,,,,,,,,,,,,,,,,,,,,,
,,,,,,,,2023-08-16_08h47.38.217,HF_wild_card,2022.2.4,Win32,60.0276127,6074b1a4765dd68a61e40bb4,64d2fd46c836a06233681665,64dc7f05d511e4427e42da2a,,,,,,,decisionTrl,resources/DB.BMP,resources/DR.BMP,Door4,0.144444444,-0.029629644,1,0,0,3.3796,optionRight,60,13660,7,13,0,13,0,1,,,,,,,,,,,,,,,,,,,,,,,,,,,,,,,,,,,,,,,
,,,,,,,,2023-08-16_08h47.38.217,HF_wild_card,2022.2.4,Win32,60.0276127,6074b1a4765dd68a61e40bb4,64d2fd46c836a06233681665,64dc7f05d511e4427e42da2a,,,,,,,decisionTrl,resources/DY.BMP,resources/DG.BMP,Door1,0.212037065,0.004629601,1,0,0,1.1213,optionRight,30,13690,7,14,0,14,0,1,,,,,,,,,,,,,,,,,,,,,,,,,,,,,,,,,,,,,,,
,,,,,,,,2023-08-16_08h47.38.217,HF_wild_card,2022.2.4,Win32,60.0276127,6074b1a4765dd68a61e40bb4,64d2fd46c836a06233681665,64dc7f05d511e4427e42da2a,,,,,,,decisionTrl,resources/DY.BMP,resources/DG.BMP,Door1,0.252777778,-0.029629644,1,0,0,0.7656,optionRight,30,13720,7,15,0,15,0,1,,,,,,,,,,,,,,,,,,,,,,,,,,,,,,,,,,,,,,,
,,,,,,,,2023-08-16_08h47.38.217,HF_wild_card,2022.2.4,Win32,60.0276127,6074b1a4765dd68a61e40bb4,64d2fd46c836a06233681665,64dc7f05d511e4427e42da2a,,,,,,,decisionTrl,resources/DY.BMP,resources/DG.BMP,Door1,0.280555556,-0.043518533,1,0,0,0.7656,optionRight,30,13750,7,16,0,16,0,1,,,,,,,,,,,,,,,,,,,,,,,,,,,,,,,,,,,,,,,
,,,,,,,,2023-08-16_08h47.38.217,HF_wild_card,2022.2.4,Win32,60.0276127,6074b1a4765dd68a61e40bb4,64d2fd46c836a06233681665,64dc7f05d511e4427e42da2a,,,,,,,decisionTrl,resources/DR.BMP,resources/DB.BMP,Door4,-0.340740712,0.002777778,1,0,0,1.5631,optionLeft,60,13810,7,17,0,17,0,1,,,,,,,,,,,,,,,,,,,,,,,,,,,,,,,,,,,,,,,
,,,,,,,,2023-08-16_08h47.38.217,HF_wild_card,2022.2.4,Win32,60.0276127,6074b1a4765dd68a61e40bb4,64d2fd46c836a06233681665,64dc7f05d511e4427e42da2a,,,,,,,ctch,resources/DY.BMP,resources/DB.BMP,Door3,0.224074131,0.058333333,1,0,0,1.4319,optionRight,70,13880,7,18,0,18,0,1,,,,,,,,,,,,,,,,,,,,,,,,,,,,,,,,,,,,,,,
,,,,,,,,2023-08-16_08h47.38.217,HF_wild_card,2022.2.4,Win32,60.0276127,6074b1a4765dd68a61e40bb4,64d2fd46c836a06233681665,64dc7f05d511e4427e42da2a,,,,,,,ctch,resources/DG.BMP,resources/DR.BMP,Door4,0.199074131,0.001851824,1,0,0,1.3986,optionRight,60,13940,7,19,0,19,0,1,,,,,,,,,,,,,,,,,,,,,,,,,,,,,,,,,,,,,,,
,,,,,,,,2023-08-16_08h47.38.217,HF_wild_card,2022.2.4,Win32,60.0276127,6074b1a4765dd68a61e40bb4,64d2fd46c836a06233681665,64dc7f05d511e4427e42da2a,,,,,,,ctch,resources/DR.BMP,resources/DG.BMP,Door4,-0.324074046,0.025,1,0,0,1.265,optionLeft,80,14020,7,20,0,20,0,1,,,,,,,,,,,,,,,,,,,,,,,,,,,,,,,,,,,,,,,
,,,,,,,,2023-08-16_08h47.38.217,HF_wild_card,2022.2.4,Win32,60.0276127,6074b1a4765dd68a61e40bb4,64d2fd46c836a06233681665,64dc7f05d511e4427e42da2a,,,,,,,decisionTrl,resources/DB.BMP,resources/DR.BMP,Door4,0.265740797,-0.020370399,1,0,0,1.3649,optionRight,60,14080,7,21,0,21,0,1,,,,,,,,,,,,,,,,,,,,,,,,,,,,,,,,,,,,,,,
,,,,,,,,2023-08-16_08h47.38.217,HF_wild_card,2022.2.4,Win32,60.0276127,6074b1a4765dd68a61e40bb4,64d2fd46c836a06233681665,64dc7f05d511e4427e42da2a,,,,,,,ctch,resources/DR.BMP,resources/DG.BMP,Door4,-0.275,-0.038888889,1,0,0,0.9986,optionLeft,80,14160,7,22,0,22,0,1,,,,,,,,,,,,,,,,,,,,,,,,,,,,,,,,,,,,,,,
,,,,,,,,2023-08-16_08h47.38.217,HF_wild_card,2022.2.4,Win32,60.0276127,6074b1a4765dd68a61e40bb4,64d2fd46c836a06233681665,64dc7f05d511e4427e42da2a,,,,,,,decisionTrl,resources/DR.BMP,resources/DB.BMP,Door4,-0.374074046,-0.097222222,1,0,0,1.0476,optionLeft,80,14240,7,23,0,23,0,1,,,,,,,,,,,,,,,,,,,,,,,,,,,,,,,,,,,,,,,
,,,,,,,,2023-08-16_08h47.38.217,HF_wild_card,2022.2.4,Win32,60.0276127,6074b1a4765dd68a61e40bb4,64d2fd46c836a06233681665,64dc7f05d511e4427e42da2a,,,,,,,ctch,resources/DG.BMP,resources/DR.BMP,Door1,-0.326851824,-0.024074088,1,0,0,0.7475,optionLeft,30,14270,7,24,0,24,0,1,,,,,,,,,,,,,,,,,,,,,,,,,,,,,,,,,,,,,,,
,,,,,,,,2023-08-16_08h47.38.217,HF_wild_card,2022.2.4,Win32,60.0276127,6074b1a4765dd68a61e40bb4,64d2fd46c836a06233681665,64dc7f05d511e4427e42da2a,,,,,,,decisionTrl,resources/DB.BMP,resources/DR.BMP,Door3,-0.182407379,-0.030555556,1,0,0,1.1321,optionLeft,70,14340,7,25,0,25,0,1,,,,,,,,,,,,,,,,,,,,,,,,,,,,,,,,,,,,,,,
,,,,,,,,2023-08-16_08h47.38.217,HF_wild_card,2022.2.4,Win32,60.0276127,6074b1a4765dd68a61e40bb4,64d2fd46c836a06233681665,64dc7f05d511e4427e42da2a,,,,,,,ctch,resources/DG.BMP,resources/DR.BMP,Door4,0.254629686,0.010185157,1,0,0,1.3304,optionRight,60,14400,7,26,0,26,0,1,,,,,,,,,,,,,,,,,,,,,,,,,,,,,,,,,,,,,,,
,,,,,,,,2023-08-16_08h47.38.217,HF_wild_card,2022.2.4,Win32,60.0276127,6074b1a4765dd68a61e40bb4,64d2fd46c836a06233681665,64dc7f05d511e4427e42da2a,,,,,,,ctch,resources/DB.BMP,resources/DY.BMP,Door3,-0.21851849,-0.025,1,0,0,1.0636,optionLeft,70,14470,7,27,0,27,0,1,,,,,,,,,,,,,,,,,,,,,,,,,,,,,,,,,,,,,,,
,,,,,,,,2023-08-16_08h47.38.217,HF_wild_card,2022.2.4,Win32,60.0276127,6074b1a4765dd68a61e40bb4,64d2fd46c836a06233681665,64dc7f05d511e4427e42da2a,,,,,,,ctch,resources/DY.BMP,resources/DB.BMP,Door3,0.225,-0.025925954,1,0,0,2.1807,optionRight,70,14540,7,28,0,28,0,1,,,,,,,,,,,,,,,,,,,,,,,,,,,,,,,,,,,,,,,
,,,,,,,,2023-08-16_08h47.38.217,HF_wild_card,2022.2.4,Win32,60.0276127,6074b1a4765dd68a61e40bb4,64d2fd46c836a06233681665,64dc7f05d511e4427e42da2a,,,,,,,decisionTrl,resources/DR.BMP,resources/DB.BMP,Door4,-0.209259245,0.012962935,1,0,0,1.2478,optionLeft,80,14620,7,29,0,29,0,1,,,,,,,,,,,,,,,,,,,,,,,,,,,,,,,,,,,,,,,
,,,,,,,,2023-08-16_08h47.38.217,HF_wild_card,2022.2.4,Win32,60.0276127,6074b1a4765dd68a61e40bb4,64d2fd46c836a06233681665,64dc7f05d511e4427e42da2a,,,,,,,decisionTrl,resources/DB.BMP,resources/DR.BMP,Door4,0.226851908,0.002777778,1,0,0,1.1387,optionRight,60,14680,7,30,0,30,0,1,,,,,,,,,,,,,,,,,,,,,,,,,,,,,,,,,,,,,,,
,,,,,,,,2023-08-16_08h47.38.217,HF_wild_card,2022.2.4,Win32,60.0276127,6074b1a4765dd68a61e40bb4,64d2fd46c836a06233681665,64dc7f05d511e4427e42da2a,,,,,,,decisionTrl,resources/DR.BMP,resources/DB.BMP,Door3,0.210185242,-0.029629644,1,0,0,0.8292,optionRight,70,14750,7,31,0,31,0,1,,,,,,,,,,,,,,,,,,,,,,,,,,,,,,,,,,,,,,,
,,,,,,,,2023-08-16_08h47.38.217,HF_wild_card,2022.2.4,Win32,60.0276127,6074b1a4765dd68a61e40bb4,64d2fd46c836a06233681665,64dc7f05d511e4427e42da2a,,,,,,,decisionTrl,resources/DB.BMP,resources/DR.BMP,Door4,0.304629686,-0.025925954,1,0,0,1.5296,optionRight,80,14830,7,32,0,32,0,1,,,,,,,,,,,,,,,,,,,,,,,,,,,,,,,,,,,,,,,
,,,,,,,,2023-08-16_08h47.38.217,HF_wild_card,2022.2.4,Win32,60.0276127,6074b1a4765dd68a61e40bb4,64d2fd46c836a06233681665,64dc7f05d511e4427e42da2a,,,,,,,decisionTrl,resources/DG.BMP,resources/DY.BMP,Door1,-0.34351849,-0.055555556,1,0,0,1.1315,optionLeft,30,14860,7,33,0,33,0,1,,,,,,,,,,,,,,,,,,,,,,,,,,,,,,,,,,,,,,,
,,,,,,,,2023-08-16_08h47.38.217,HF_wild_card,2022.2.4,Win32,60.0276127,6074b1a4765dd68a61e40bb4,64d2fd46c836a06233681665,64dc7f05d511e4427e42da2a,,,,,,,decisionTrl,resources/DG.BMP,resources/DY.BMP,Door1,-0.285185157,-0.076851866,1,0,0,2.2148,optionLeft,30,14890,7,34,0,34,0,1,,,,,,,,,,,,,,,,,,,,,,,,,,,,,,,,,,,,,,,
,,,,,,,,2023-08-16_08h47.38.217,HF_wild_card,2022.2.4,Win32,60.0276127,6074b1a4765dd68a61e40bb4,64d2fd46c836a06233681665,64dc7f05d511e4427e42da2a,,,,,,,decisionTrl,resources/DG.BMP,resources/DY.BMP,Door1,-0.25,-0.053703732,1,0,0,0.8292,optionLeft,30,14920,7,35,0,35,0,1,,,,,,,,,,,,,,,,,,,,,,,,,,,,,,,,,,,,,,,
,,,,,,,,2023-08-16_08h47.38.217,HF_wild_card,2022.2.4,Win32,60.0276127,6074b1a4765dd68a61e40bb4,64d2fd46c836a06233681665,64dc7f05d511e4427e42da2a,,,,,,,,,,,,,,,,,,,,,,,,,,6,0,6,0,1,,,,,,,,,,,,,,,,,,,,,,,,,,,,,,,,,,
,,,,,,,,2023-08-16_08h47.38.217,HF_wild_card,2022.2.4,Win32,60.0276127,6074b1a4765dd68a61e40bb4,64d2fd46c836a06233681665,64dc7f05d511e4427e42da2a,,,,,,,,,,,,,,,,,,,,,,,,,,,,,,,3,,,,,,,,,,,,,,,,,,,,,,,,,,,,,,,,,
,,,,,,,,2023-08-16_08h47.38.217,HF_wild_card,2022.2.4,Win32,60.0276127,6074b1a4765dd68a61e40bb4,64d2fd46c836a06233681665,64dc7f05d511e4427e42da2a,,,,,,,,,,,,,,,,,,,,,,,,,,,,,,,,,,,,,,,,,,,,,,,,,,,,,,,,,,,,,,,,
,,,,,,,,2023-08-16_08h47.38.217,HF_wild_card,2022.2.4,Win32,60.0276127,6074b1a4765dd68a61e40bb4,64d2fd46c836a06233681665,64dc7f05d511e4427e42da2a,,,,,,,,,,,,,,,,,,,,,,,,,,,,,,,,39,Door1,resources/DG.BMP,0,0,0,0,1,,,,,,,,,,,,,,,,,,,,,,,,,
,,,,,,,,2023-08-16_08h47.38.217,HF_wild_card,2022.2.4,Win32,60.0276127,6074b1a4765dd68a61e40bb4,64d2fd46c836a06233681665,64dc7f05d511e4427e42da2a,,,,,,,,,,,,,,,,,,,,,,,,,,,,,,,,25,Door4,resources/DR.BMP,1,0,1,0,1,,,,,,,,,,,,,,,,,,,,,,,,,
,,,,,,,,2023-08-16_08h47.38.217,HF_wild_card,2022.2.4,Win32,60.0276127,6074b1a4765dd68a61e40bb4,64d2fd46c836a06233681665,64dc7f05d511e4427e42da2a,,,,,,,,,,,,,,,,,,,,,,,,,,,,,,,,80,WC_nonExtreme,resources/DP.BMP,2,0,2,0,1,,,,,,,,,,,,,,,,,,,,,,,,,
,,,,,,,,2023-08-16_08h47.38.217,HF_wild_card,2022.2.4,Win32,60.0276127,6074b1a4765dd68a61e40bb4,64d2fd46c836a06233681665,64dc7f05d511e4427e42da2a,,,,,,,,,,,,,,,,,,,,,,,,,,,,,,,,60,Door3,resources/DB.BMP,3,0,3,0,1,,,,,,,,,,,,,,,,,,,,,,,,,
,,,,,,,,2023-08-16_08h47.38.217,HF_wild_card,2022.2.4,Win32,60.0276127,6074b1a4765dd68a61e40bb4,64d2fd46c836a06233681665,64dc7f05d511e4427e42da2a,,,,,,,,,,,,,,,,,,,,,,,,,,,,,,,,20,WC_extreme,resources/DBN.BMP,4,0,4,0,1,,,,,,,,,,,,,,,,,,,,,,,,,
,,,,,,,,2023-08-16_08h47.38.217,HF_wild_card,2022.2.4,Win32,60.0276127,6074b1a4765dd68a61e40bb4,64d2fd46c836a06233681665,64dc7f05d511e4427e42da2a,,,,,,,,,,,,,,,,,,,,,,,,,,,,,,,,40,Door2,resources/DY.BMP,5,0,5,0,1,,,,,,,,,,,,,,,,,,,,,,,,,
,,,,,,,,2023-08-16_08h47.38.217,HF_wild_card,2022.2.4,Win32,60.0276127,6074b1a4765dd68a61e40bb4,64d2fd46c836a06233681665,64dc7f05d511e4427e42da2a,,,,,,,,,,,,,,,,,,,,,,,,,,,,,,,,,,,,,,,,,,,,,,,,,,,,,,,,,,,,,,,,
,,,,,,,,2023-08-16_08h47.38.217,HF_wild_card,2022.2.4,Win32,60.0276127,6074b1a4765dd68a61e40bb4,64d2fd46c836a06233681665,64dc7f05d511e4427e42da2a,,,,,,,,,,,,,,,,,,,,,,,,,,,,,,,,,,,,,,,,0,0,0,0,1,,,,,,,,,,,,,,,,,,,,
,,,,,,,,2023-08-16_08h47.38.217,HF_wild_card,2022.2.4,Win32,60.0276127,6074b1a4765dd68a61e40bb4,64d2fd46c836a06233681665,64dc7f05d511e4427e42da2a,,,,,,,,,,,,,,,,,,,,,,,,,,,,,,,,,,,,,,,,1,0,1,0,1,,,,,,,,,,,,,,,,,,,,
