Condition,Low fixed image (Door1),Low risky image (Door2),High fixed image (Door3),High risky image (Door4),NonExtreme Wild Card 1,NonExtreme Wild Card 2,,date,expName,psychopyVersion,OS,frameRate,PROLIFIC_PID,STUDY_ID,SESSION_ID,mouse_2.x,mouse_2.y,mouse_2.leftButton,mouse_2.midButton,mouse_2.rightButton,mouse_2.clicked_name,Trial Type,Left Option Image,Right Option Image,Chosen Door,mouse.x,mouse.y,mouse.leftButton,mouse.midButton,mouse.rightButton,mouse.time,mouse.clicked_name,Feedback,Cumulative Reward,Block,trial.thisRepN,trial.thisTrialN,trial.thisN,trial.thisIndex,trial.ran,blocks.thisRepN,blocks.thisTrialN,blocks.thisN,blocks.thisIndex,blocks.ran,Money conversion,First Outcome Reported,Shown Door (First Outcome),Displayed Image (First Outcome),outcomes.thisRepN,outcomes.thisTrialN,outcomes.thisN,outcomes.thisIndex,outcomes.ran,judgments.thisRepN,judgments.thisTrialN,judgments.thisN,judgments.thisIndex,judgments.ran,freqMouse.x,freqMouse.y,freqMouse.leftButton,freqMouse.midButton,freqMouse.rightButton,freqMouse.clicked_name,trials.thisRepN,trials.thisTrialN,trials.thisN,trials.thisIndex,trials.ran,FQJ for first outcome,FQJ for second outcome,Shown Door,Displayed Image,judgBlock.thisRepN,judgBlock.thisTrialN,judgBlock.thisN,judgBlock.thisIndex,judgBlock.ran
2,resources/DY.BMP,resources/DBN.BMP,resources/DB.BMP,resources/DR.BMP,resources/DP.BMP,resources/DG.BMP,,2023-08-16_08h46.11.712,HF_wild_card,2022.2.4,Win32,60.0132029,5f9eab308e503705011ad793,64d2fd46c836a06233681665,64dc7e971272034764be896c,,,,,,,,,,,,,,,,,,,,,,,,,,,,,,,,,,,,,,,,,,,,,,,,,,,,,,,,,,,,,,,,
,,,,,,,,2023-08-16_08h46.11.712,HF_wild_card,2022.2.4,Win32,60.0132029,5f9eab308e503705011ad793,64d2fd46c836a06233681665,64dc7e971272034764be896c,-0.004629601,-0.416666667,1,0,0,agree,,,,,,,,,,,,,,,,,,,,,,,,,,,,,,,,,,,,,,,,,,,,,,,,,,,,,,,,,,
,,,,,,,,2023-08-16_08h46.11.712,HF_wild_card,2022.2.4,Win32,60.0132029,5f9eab308e503705011ad793,64d2fd46c836a06233681665,64dc7e971272034764be896c,,,,,,,,,,,,,,,,,,,,,,,,,,,,,,,,,,,,,,,,,,,,,,,,,,,,,,,,,,,,,,,,
,,,,,,,,2023-08-16_08h46.11.712,HF_wild_card,2022.2.4,Win32,60.0132029,5f9eab308e503705011ad793,64d2fd46c836a06233681665,64dc7e971272034764be896c,,,,,,,decisionTrl,resources/DB.BMP,resources/DR.BMP,Door3,-0.305555556,-0.05648151,1,0,0,3.0227,optionLeft,70,70,1,0,0,0,0,1,,,,,,,,,,,,,,,,,,,,,,,,,,,,,,,,,,,,,,,
,,,,,,,,2023-08-16_08h46.11.712,HF_wild_card,2022.2.4,Win32,60.0132029,5f9eab308e503705011ad793,64d2fd46c836a06233681665,64dc7e971272034764be896c,,,,,,,sngl,resources/DBN.BMP,resources/Empty.png,Door2,-0.346296268,-0.022222222,1,0,0,1.2367,optionLeft,40,110,1,1,0,1,0,1,,,,,,,,,,,,,,,,,,,,,,,,,,,,,,,,,,,,,,,
,,,,,,,,2023-08-16_08h46.11.712,HF_wild_card,2022.2.4,Win32,60.0132029,5f9eab308e503705011ad793,64d2fd46c836a06233681665,64dc7e971272034764be896c,,,,,,,sngl,resources/Empty.png,resources/DB.BMP,Door3,0.420370399,-0.076851866,1,0,0,1.1135,optionRight,70,180,1,2,0,2,0,1,,,,,,,,,,,,,,,,,,,,,,,,,,,,,,,,,,,,,,,
,,,,,,,,2023-08-16_08h46.11.712,HF_wild_card,2022.2.4,Win32,60.0132029,5f9eab308e503705011ad793,64d2fd46c836a06233681665,64dc7e971272034764be896c,,,,,,,sngl,resources/Empty.png,resources/DBN.BMP,Door2,0.362963019,0.016666667,1,0,0,0.9443,optionRight,20,200,1,3,0,3,0,1,,,,,,,,,,,,,,,,,,,,,,,,,,,,,,,,,,,,,,,
,,,,,,,,2023-08-16_08h46.11.712,HF_wild_card,2022.2.4,Win32,60.0132029,5f9eab308e503705011ad793,64d2fd46c836a06233681665,64dc7e971272034764be896c,,,,,,,ctch,resources/DBN.BMP,resources/DB.BMP,Door3,0.261111111,0.016666667,1,0,0,0.961,optionRight,70,270,1,4,0,4,0,1,,,,,,,,,,,,,,,,,,,,,,,,,,,,,,,,,,,,,,,
,,,,,,,,2023-08-16_08h46.11.712,HF_wild_card,2022.2.4,Win32,60.0132029,5f9eab308e503705011ad793,64d2fd46c836a06233681665,64dc7e971272034764be896c,,,,,,,decisionTrl,resources/DY.BMP,resources/DBN.BMP,Door1,-0.321296268,-0.028703732,1,0,0,0.8792,optionLeft,30,300,1,5,0,5,0,1,,,,,,,,,,,,,,,,,,,,,,,,,,,,,,,,,,,,,,,
,,,,,,,,2023-08-16_08h46.11.712,HF_wild_card,2022.2.4,Win32,60.0132029,5f9eab308e503705011ad793,64d2fd46c836a06233681665,64dc7e971272034764be896c,,,,,,,sngl,resources/Empty.png,resources/DG.BMP,WildCard_NonEx,0.428703732,0.015740712,1,0,0,0.7466,optionRight,55,355,1,6,0,6,0,1,,,,,,,,,,,,,,,,,,,,,,,,,,,,,,,,,,,,,,,
,,,,,,,,2023-08-16_08h46.11.712,HF_wild_card,2022.2.4,Win32,60.0132029,5f9eab308e503705011ad793,64d2fd46c836a06233681665,64dc7e971272034764be896c,,,,,,,decisionTrl,resources/DB.BMP,resources/DR.BMP,Door4,0.437963019,0.011111111,1,0,0,1.295,optionRight,60,415,1,7,0,7,0,1,,,,,,,,,,,,,,,,,,,,,,,,,,,,,,,,,,,,,,,
,,,,,,,,2023-08-16_08h46.11.712,HF_wild_card,2022.2.4,Win32,60.0132029,5f9eab308e503705011ad793,64d2fd46c836a06233681665,64dc7e971272034764be896c,,,,,,,sngl,resources/DB.BMP,resources/Empty.png,Door3,-0.319444444,0.011111111,1,0,0,0.6618,optionLeft,70,485,1,8,0,8,0,1,,,,,,,,,,,,,,,,,,,,,,,,,,,,,,,,,,,,,,,
,,,,,,,,2023-08-16_08h46.11.712,HF_wild_card,2022.2.4,Win32,60.0132029,5f9eab308e503705011ad793,64d2fd46c836a06233681665,64dc7e971272034764be896c,,,,,,,sngl,resources/DG.BMP,resources/Empty.png,WildCard_NonEx,-0.261111111,0.010185157,1,0,0,0.8938,optionLeft,55,540,1,9,0,9,0,1,,,,,,,,,,,,,,,,,,,,,,,,,,,,,,,,,,,,,,,
,,,,,,,,2023-08-16_08h46.11.712,HF_wild_card,2022.2.4,Win32,60.0132029,5f9eab308e503705011ad793,64d2fd46c836a06233681665,64dc7e971272034764be896c,,,,,,,sngl,resources/Empty.png,resources/DY.BMP,Door1,0.368518575,-0.010185199,1,0,0,0.7463,optionRight,30,570,1,10,0,10,0,1,,,,,,,,,,,,,,,,,,,,,,,,,,,,,,,,,,,,,,,
,,,,,,,,2023-08-16_08h46.11.712,HF_wild_card,2022.2.4,Win32,60.0132029,5f9eab308e503705011ad793,64d2fd46c836a06233681665,64dc7e971272034764be896c,,,,,,,decisionTrl,resources/DR.BMP,resources/DB.BMP,Door3,0.403703732,-0.03148151,1,0,0,0.7772,optionRight,70,640,1,11,0,11,0,1,,,,,,,,,,,,,,,,,,,,,,,,,,,,,,,,,,,,,,,
,,,,,,,,2023-08-16_08h46.11.712,HF_wild_card,2022.2.4,Win32,60.0132029,5f9eab308e503705011ad793,64d2fd46c836a06233681665,64dc7e971272034764be896c,,,,,,,sngl,resources/Empty.png,resources/DR.BMP,Door4,0.352777778,-0.025925954,1,0,0,0.7104,optionRight,60,700,1,12,0,12,0,1,,,,,,,,,,,,,,,,,,,,,,,,,,,,,,,,,,,,,,,
,,,,,,,,2023-08-16_08h46.11.712,HF_wild_card,2022.2.4,Win32,60.0132029,5f9eab308e503705011ad793,64d2fd46c836a06233681665,64dc7e971272034764be896c,,,,,,,decisionTrl,resources/DBN.BMP,resources/DY.BMP,Door1,0.454629686,-0.004629644,1,0,0,0.9837,optionRight,30,730,1,13,0,13,0,1,,,,,,,,,,,,,,,,,,,,,,,,,,,,,,,,,,,,,,,
,,,,,,,,2023-08-16_08h46.11.712,HF_wild_card,2022.2.4,Win32,60.0132029,5f9eab308e503705011ad793,64d2fd46c836a06233681665,64dc7e971272034764be896c,,,,,,,decisionTrl,resources/DG.BMP,resources/DY.BMP,WildCard_NonEx,-0.317592578,-0.015740755,1,0,0,1.0478,optionLeft,55,785,1,14,0,14,0,1,,,,,,,,,,,,,,,,,,,,,,,,,,,,,,,,,,,,,,,
,,,,,,,,2023-08-16_08h46.11.712,HF_wild_card,2022.2.4,Win32,60.0132029,5f9eab308e503705011ad793,64d2fd46c836a06233681665,64dc7e971272034764be896c,,,,,,,sngl,resources/DY.BMP,resources/Empty.png,Door1,-0.325,0.019444444,1,0,0,0.8293,optionLeft,30,815,1,15,0,15,0,1,,,,,,,,,,,,,,,,,,,,,,,,,,,,,,,,,,,,,,,
,,,,,,,,2023-08-16_08h46.11.712,HF_wild_card,2022.2.4,Win32,60.0132029,5f9eab308e503705011ad793,64d2fd46c836a06233681665,64dc7e971272034764be896c,,,,,,,decisionTrl,resources/DB.BMP,resources/DR.BMP,Door3,-0.348148134,0.008333333,1,0,0,0.8107,optionLeft,70,885,1,16,0,16,0,1,,,,,,,,,,,,,,,,,,,,,,,,,,,,,,,,,,,,,,,
,,,,,,,,2023-08-16_08h46.11.712,HF_wild_card,2022.2.4,Win32,60.0132029,5f9eab308e503705011ad793,64d2fd46c836a06233681665,64dc7e971272034764be896c,,,,,,,sngl,resources/DG.BMP,resources/Empty.png,WildCard_NonEx,-0.388888889,0.061111111,1,0,0,0.797,optionLeft,45,930,1,17,0,17,0,1,,,,,,,,,,,,,,,,,,,,,,,,,,,,,,,,,,,,,,,
,,,,,,,,2023-08-16_08h46.11.712,HF_wild_card,2022.2.4,Win32,60.0132029,5f9eab308e503705011ad793,64d2fd46c836a06233681665,64dc7e971272034764be896c,,,,,,,ctch,resources/DR.BMP,resources/DY.BMP,Door4,-0.357407379,0.030555556,1,0,0,2.8311,optionLeft,80,1010,1,18,0,18,0,1,,,,,,,,,,,,,,,,,,,,,,,,,,,,,,,,,,,,,,,
,,,,,,,,2023-08-16_08h46.11.712,HF_wild_card,2022.2.4,Win32,60.0132029,5f9eab308e503705011ad793,64d2fd46c836a06233681665,64dc7e971272034764be896c,,,,,,,decisionTrl,resources/DY.BMP,resources/DG.BMP,WildCard_NonEx,0.334259288,-0.025,1,0,0,3.3889,optionRight,45,1055,1,19,0,19,0,1,,,,,,,,,,,,,,,,,,,,,,,,,,,,,,,,,,,,,,,
,,,,,,,,2023-08-16_08h46.11.712,HF_wild_card,2022.2.4,Win32,60.0132029,5f9eab308e503705011ad793,64d2fd46c836a06233681665,64dc7e971272034764be896c,,,,,,,decisionTrl,resources/DG.BMP,resources/DB.BMP,Door3,0.349074131,-0.012037065,1,0,0,1.0274,optionRight,70,1125,1,20,0,20,0,1,,,,,,,,,,,,,,,,,,,,,,,,,,,,,,,,,,,,,,,
,,,,,,,,2023-08-16_08h46.11.712,HF_wild_card,2022.2.4,Win32,60.0132029,5f9eab308e503705011ad793,64d2fd46c836a06233681665,64dc7e971272034764be896c,,,,,,,decisionTrl,resources/DB.BMP,resources/DG.BMP,Door3,-0.332407379,0.013888889,1,0,0,1.0128,optionLeft,70,1195,1,21,0,21,0,1,,,,,,,,,,,,,,,,,,,,,,,,,,,,,,,,,,,,,,,
,,,,,,,,2023-08-16_08h46.11.712,HF_wild_card,2022.2.4,Win32,60.0132029,5f9eab308e503705011ad793,64d2fd46c836a06233681665,64dc7e971272034764be896c,,,,,,,decisionTrl,resources/DB.BMP,resources/DR.BMP,Door4,0.40648151,-0.040740755,1,0,0,0.731,optionRight,60,1255,1,22,0,22,0,1,,,,,,,,,,,,,,,,,,,,,,,,,,,,,,,,,,,,,,,
,,,,,,,,2023-08-16_08h46.11.712,HF_wild_card,2022.2.4,Win32,60.0132029,5f9eab308e503705011ad793,64d2fd46c836a06233681665,64dc7e971272034764be896c,,,,,,,sngl,resources/DR.BMP,resources/Empty.png,Door4,-0.315740712,0.002777778,1,0,0,0.8446,optionLeft,80,1335,1,23,0,23,0,1,,,,,,,,,,,,,,,,,,,,,,,,,,,,,,,,,,,,,,,
,,,,,,,,2023-08-16_08h46.11.712,HF_wild_card,2022.2.4,Win32,60.0132029,5f9eab308e503705011ad793,64d2fd46c836a06233681665,64dc7e971272034764be896c,,,,,,,ctch,resources/DB.BMP,resources/DBN.BMP,Door3,-0.385185157,0.009259245,1,0,0,0.907,optionLeft,70,1405,1,24,0,24,0,1,,,,,,,,,,,,,,,,,,,,,,,,,,,,,,,,,,,,,,,
,,,,,,,,2023-08-16_08h46.11.712,HF_wild_card,2022.2.4,Win32,60.0132029,5f9eab308e503705011ad793,64d2fd46c836a06233681665,64dc7e971272034764be896c,,,,,,,decisionTrl,resources/DY.BMP,resources/DBN.BMP,Door1,-0.380555556,-0.027777778,1,0,0,1.3787,optionLeft,30,1435,1,25,0,25,0,1,,,,,,,,,,,,,,,,,,,,,,,,,,,,,,,,,,,,,,,
,,,,,,,,2023-08-16_08h46.11.712,HF_wild_card,2022.2.4,Win32,60.0132029,5f9eab308e503705011ad793,64d2fd46c836a06233681665,64dc7e971272034764be896c,,,,,,,ctch,resources/DY.BMP,resources/DR.BMP,Door4,0.365740797,-0.037962977,1,0,0,1.2643,optionRight,80,1515,1,26,0,26,0,1,,,,,,,,,,,,,,,,,,,,,,,,,,,,,,,,,,,,,,,
,,,,,,,,2023-08-16_08h46.11.712,HF_wild_card,2022.2.4,Win32,60.0132029,5f9eab308e503705011ad793,64d2fd46c836a06233681665,64dc7e971272034764be896c,,,,,,,decisionTrl,resources/DG.BMP,resources/DR.BMP,Door4,0.393518575,-0.041666667,1,0,0,0.8769,optionRight,80,1595,1,27,0,27,0,1,,,,,,,,,,,,,,,,,,,,,,,,,,,,,,,,,,,,,,,
,,,,,,,,2023-08-16_08h46.11.712,HF_wild_card,2022.2.4,Win32,60.0132029,5f9eab308e503705011ad793,64d2fd46c836a06233681665,64dc7e971272034764be896c,,,,,,,decisionTrl,resources/DY.BMP,resources/DBN.BMP,Door1,-0.367592578,0.048148134,1,0,0,1.3134,optionLeft,30,1625,1,28,0,28,0,1,,,,,,,,,,,,,,,,,,,,,,,,,,,,,,,,,,,,,,,
,,,,,,,,2023-08-16_08h46.11.712,HF_wild_card,2022.2.4,Win32,60.0132029,5f9eab308e503705011ad793,64d2fd46c836a06233681665,64dc7e971272034764be896c,,,,,,,decisionTrl,resources/DG.BMP,resources/DBN.BMP,WildCard_NonEx,-0.251851824,-0.029629644,1,0,0,1.1946,optionLeft,55,1680,1,29,0,29,0,1,,,,,,,,,,,,,,,,,,,,,,,,,,,,,,,,,,,,,,,
,,,,,,,,2023-08-16_08h46.11.712,HF_wild_card,2022.2.4,Win32,60.0132029,5f9eab308e503705011ad793,64d2fd46c836a06233681665,64dc7e971272034764be896c,,,,,,,ctch,resources/DR.BMP,resources/DY.BMP,Door4,-0.320370356,-0.005555556,1,0,0,1.7436,optionLeft,80,1760,1,30,0,30,0,1,,,,,,,,,,,,,,,,,,,,,,,,,,,,,,,,,,,,,,,
,,,,,,,,2023-08-16_08h46.11.712,HF_wild_card,2022.2.4,Win32,60.0132029,5f9eab308e503705011ad793,64d2fd46c836a06233681665,64dc7e971272034764be896c,,,,,,,decisionTrl,resources/DBN.BMP,resources/DY.BMP,Door2,-0.326851824,0.012037023,1,0,0,1.7284,optionLeft,40,1800,1,31,0,31,0,1,,,,,,,,,,,,,,,,,,,,,,,,,,,,,,,,,,,,,,,
,,,,,,,,2023-08-16_08h46.11.712,HF_wild_card,2022.2.4,Win32,60.0132029,5f9eab308e503705011ad793,64d2fd46c836a06233681665,64dc7e971272034764be896c,,,,,,,ctch,resources/DBN.BMP,resources/DB.BMP,Door3,0.283333333,-0.025925954,1,0,0,1.3075,optionRight,70,1870,1,32,0,32,0,1,,,,,,,,,,,,,,,,,,,,,,,,,,,,,,,,,,,,,,,
,,,,,,,,2023-08-16_08h46.11.712,HF_wild_card,2022.2.4,Win32,60.0132029,5f9eab308e503705011ad793,64d2fd46c836a06233681665,64dc7e971272034764be896c,,,,,,,ctch,resources/DY.BMP,resources/DR.BMP,Door4,0.398148176,-0.019444444,1,0,0,2.0415,optionRight,60,1930,1,33,0,33,0,1,,,,,,,,,,,,,,,,,,,,,,,,,,,,,,,,,,,,,,,
,,,,,,,,2023-08-16_08h46.11.712,HF_wild_card,2022.2.4,Win32,60.0132029,5f9eab308e503705011ad793,64d2fd46c836a06233681665,64dc7e971272034764be896c,,,,,,,sngl,resources/Empty.png,resources/DG.BMP,WildCard_NonEx,0.312963019,-0.037037065,1,0,0,0.8992,optionRight,45,1975,1,34,0,34,0,1,,,,,,,,,,,,,,,,,,,,,,,,,,,,,,,,,,,,,,,
,,,,,,,,2023-08-16_08h46.11.712,HF_wild_card,2022.2.4,Win32,60.0132029,5f9eab308e503705011ad793,64d2fd46c836a06233681665,64dc7e971272034764be896c,,,,,,,decisionTrl,resources/DY.BMP,resources/DBN.BMP,Door1,-0.270370356,-0.02129631,1,0,0,1.5422,optionLeft,30,2005,1,35,0,35,0,1,,,,,,,,,,,,,,,,,,,,,,,,,,,,,,,,,,,,,,,
,,,,,,,,2023-08-16_08h46.11.712,HF_wild_card,2022.2.4,Win32,60.0132029,5f9eab308e503705011ad793,64d2fd46c836a06233681665,64dc7e971272034764be896c,,,,,,,decisionTrl,resources/DR.BMP,resources/DG.BMP,Door4,-0.408333333,0.00370369,1,0,0,0.8816,optionLeft,60,2065,1,36,0,36,0,1,,,,,,,,,,,,,,,,,,,,,,,,,,,,,,,,,,,,,,,
,,,,,,,,2023-08-16_08h46.11.712,HF_wild_card,2022.2.4,Win32,60.0132029,5f9eab308e503705011ad793,64d2fd46c836a06233681665,64dc7e971272034764be896c,,,,,,,ctch,resources/DB.BMP,resources/DBN.BMP,Door3,-0.310185157,-0.034259288,1,0,0,0.7115,optionLeft,70,2135,1,37,0,37,0,1,,,,,,,,,,,,,,,,,,,,,,,,,,,,,,,,,,,,,,,
,,,,,,,,2023-08-16_08h46.11.712,HF_wild_card,2022.2.4,Win32,60.0132029,5f9eab308e503705011ad793,64d2fd46c836a06233681665,64dc7e971272034764be896c,,,,,,,decisionTrl,resources/DR.BMP,resources/DB.BMP,Door4,-0.341666667,-0.001851866,1,0,0,2.6119,optionLeft,60,2195,1,38,0,38,0,1,,,,,,,,,,,,,,,,,,,,,,,,,,,,,,,,,,,,,,,
,,,,,,,,2023-08-16_08h46.11.712,HF_wild_card,2022.2.4,Win32,60.0132029,5f9eab308e503705011ad793,64d2fd46c836a06233681665,64dc7e971272034764be896c,,,,,,,decisionTrl,resources/DR.BMP,resources/DB.BMP,Door4,-0.276851824,-0.025925954,1,0,0,1.494,optionLeft,80,2275,1,39,0,39,0,1,,,,,,,,,,,,,,,,,,,,,,,,,,,,,,,,,,,,,,,
,,,,,,,,2023-08-16_08h46.11.712,HF_wild_card,2022.2.4,Win32,60.0132029,5f9eab308e503705011ad793,64d2fd46c836a06233681665,64dc7e971272034764be896c,,,,,,,decisionTrl,resources/DBN.BMP,resources/DG.BMP,WildCard_NonEx,0.334259288,-0.024074088,1,0,0,0.9268,optionRight,55,2330,1,40,0,40,0,1,,,,,,,,,,,,,,,,,,,,,,,,,,,,,,,,,,,,,,,
,,,,,,,,2023-08-16_08h46.11.712,HF_wild_card,2022.2.4,Win32,60.0132029,5f9eab308e503705011ad793,64d2fd46c836a06233681665,64dc7e971272034764be896c,,,,,,,decisionTrl,resources/DBN.BMP,resources/DY.BMP,Door2,-0.320370356,0.008333333,1,0,0,1.5952,optionLeft,20,2350,1,41,0,41,0,1,,,,,,,,,,,,,,,,,,,,,,,,,,,,,,,,,,,,,,,
,,,,,,,,2023-08-16_08h46.11.712,HF_wild_card,2022.2.4,Win32,60.0132029,5f9eab308e503705011ad793,64d2fd46c836a06233681665,64dc7e971272034764be896c,,,,,,,decisionTrl,resources/DR.BMP,resources/DB.BMP,Door4,-0.362037023,0.075,1,0,0,3.1299,optionLeft,80,2430,1,42,0,42,0,1,,,,,,,,,,,,,,,,,,,,,,,,,,,,,,,,,,,,,,,
,,,,,,,,2023-08-16_08h46.11.712,HF_wild_card,2022.2.4,Win32,60.0132029,5f9eab308e503705011ad793,64d2fd46c836a06233681665,64dc7e971272034764be896c,,,,,,,decisionTrl,resources/DBN.BMP,resources/DY.BMP,Door1,0.466666667,-0.037962977,1,0,0,1.2445,optionRight,30,2460,1,43,0,43,0,1,,,,,,,,,,,,,,,,,,,,,,,,,,,,,,,,,,,,,,,
,,,,,,,,2023-08-16_08h46.11.712,HF_wild_card,2022.2.4,Win32,60.0132029,5f9eab308e503705011ad793,64d2fd46c836a06233681665,64dc7e971272034764be896c,,,,,,,,,,,,,,,,,,,,,,,,,,0,0,0,0,1,,,,,,,,,,,,,,,,,,,,,,,,,,,,,,,,,,
,,,,,,,,2023-08-16_08h46.11.712,HF_wild_card,2022.2.4,Win32,60.0132029,5f9eab308e503705011ad793,64d2fd46c836a06233681665,64dc7e971272034764be896c,,,,,,,decisionTrl,resources/DB.BMP,resources/DR.BMP,Door4,0.442592621,-0.067592621,1,0,0,1.9069,optionRight,60,2520,2,0,0,0,0,1,,,,,,,,,,,,,,,,,,,,,,,,,,,,,,,,,,,,,,,
,,,,,,,,2023-08-16_08h46.11.712,HF_wild_card,2022.2.4,Win32,60.0132029,5f9eab308e503705011ad793,64d2fd46c836a06233681665,64dc7e971272034764be896c,,,,,,,ctch,resources/DR.BMP,resources/DY.BMP,Door4,-0.336111111,0.005555556,1,0,0,0.8957,optionLeft,60,2580,2,1,0,1,0,1,,,,,,,,,,,,,,,,,,,,,,,,,,,,,,,,,,,,,,,
,,,,,,,,2023-08-16_08h46.11.712,HF_wild_card,2022.2.4,Win32,60.0132029,5f9eab308e503705011ad793,64d2fd46c836a06233681665,64dc7e971272034764be896c,,,,,,,decisionTrl,resources/DR.BMP,resources/DB.BMP,Door3,0.33148151,-0.034259288,1,0,0,0.6281,optionRight,70,2650,2,2,0,2,0,1,,,,,,,,,,,,,,,,,,,,,,,,,,,,,,,,,,,,,,,
,,,,,,,,2023-08-16_08h46.11.712,HF_wild_card,2022.2.4,Win32,60.0132029,5f9eab308e503705011ad793,64d2fd46c836a06233681665,64dc7e971272034764be896c,,,,,,,decisionTrl,resources/DY.BMP,resources/DBN.BMP,Door1,-0.362962935,-0.025925954,1,0,0,1.131,optionLeft,30,2680,2,3,0,3,0,1,,,,,,,,,,,,,,,,,,,,,,,,,,,,,,,,,,,,,,,
,,,,,,,,2023-08-16_08h46.11.712,HF_wild_card,2022.2.4,Win32,60.0132029,5f9eab308e503705011ad793,64d2fd46c836a06233681665,64dc7e971272034764be896c,,,,,,,sngl,resources/Empty.png,resources/DBN.BMP,Door2,0.446296353,-0.032407422,1,0,0,0.8791,optionRight,40,2720,2,4,0,4,0,1,,,,,,,,,,,,,,,,,,,,,,,,,,,,,,,,,,,,,,,
,,,,,,,,2023-08-16_08h46.11.712,HF_wild_card,2022.2.4,Win32,60.0132029,5f9eab308e503705011ad793,64d2fd46c836a06233681665,64dc7e971272034764be896c,,,,,,,sngl,resources/DY.BMP,resources/Empty.png,Door1,-0.429629601,0.056481467,1,0,0,0.6602,optionLeft,30,2750,2,5,0,5,0,1,,,,,,,,,,,,,,,,,,,,,,,,,,,,,,,,,,,,,,,
,,,,,,,,2023-08-16_08h46.11.712,HF_wild_card,2022.2.4,Win32,60.0132029,5f9eab308e503705011ad793,64d2fd46c836a06233681665,64dc7e971272034764be896c,,,,,,,decisionTrl,resources/DBN.BMP,resources/DY.BMP,Door2,-0.327777778,-0.007407422,1,0,0,1.0432,optionLeft,20,2770,2,6,0,6,0,1,,,,,,,,,,,,,,,,,,,,,,,,,,,,,,,,,,,,,,,
,,,,,,,,2023-08-16_08h46.11.712,HF_wild_card,2022.2.4,Win32,60.0132029,5f9eab308e503705011ad793,64d2fd46c836a06233681665,64dc7e971272034764be896c,,,,,,,ctch,resources/DBN.BMP,resources/DB.BMP,Door3,0.420370399,-0.008333333,1,0,0,1.079,optionRight,70,2840,2,7,0,7,0,1,,,,,,,,,,,,,,,,,,,,,,,,,,,,,,,,,,,,,,,
,,,,,,,,2023-08-16_08h46.11.712,HF_wild_card,2022.2.4,Win32,60.0132029,5f9eab308e503705011ad793,64d2fd46c836a06233681665,64dc7e971272034764be896c,,,,,,,ctch,resources/DBN.BMP,resources/DB.BMP,Door3,0.450925954,-0.026851866,1,0,0,0.6799,optionRight,70,2910,2,8,0,8,0,1,,,,,,,,,,,,,,,,,,,,,,,,,,,,,,,,,,,,,,,
,,,,,,,,2023-08-16_08h46.11.712,HF_wild_card,2022.2.4,Win32,60.0132029,5f9eab308e503705011ad793,64d2fd46c836a06233681665,64dc7e971272034764be896c,,,,,,,sngl,resources/DG.BMP,resources/Empty.png,WildCard_NonEx,-0.287037023,0.011111111,1,0,0,0.7795,optionLeft,45,2955,2,9,0,9,0,1,,,,,,,,,,,,,,,,,,,,,,,,,,,,,,,,,,,,,,,
,,,,,,,,2023-08-16_08h46.11.712,HF_wild_card,2022.2.4,Win32,60.0132029,5f9eab308e503705011ad793,64d2fd46c836a06233681665,64dc7e971272034764be896c,,,,,,,decisionTrl,resources/DR.BMP,resources/DG.BMP,Door4,-0.361111111,0.031481467,1,0,0,1.0112,optionLeft,60,3015,2,10,0,10,0,1,,,,,,,,,,,,,,,,,,,,,,,,,,,,,,,,,,,,,,,
,,,,,,,,2023-08-16_08h46.11.712,HF_wild_card,2022.2.4,Win32,60.0132029,5f9eab308e503705011ad793,64d2fd46c836a06233681665,64dc7e971272034764be896c,,,,,,,decisionTrl,resources/DBN.BMP,resources/DY.BMP,Door1,0.311111111,-0.004629644,1,0,0,0.9963,optionRight,30,3045,2,11,0,11,0,1,,,,,,,,,,,,,,,,,,,,,,,,,,,,,,,,,,,,,,,
,,,,,,,,2023-08-16_08h46.11.712,HF_wild_card,2022.2.4,Win32,60.0132029,5f9eab308e503705011ad793,64d2fd46c836a06233681665,64dc7e971272034764be896c,,,,,,,decisionTrl,resources/DY.BMP,resources/DG.BMP,WildCard_NonEx,0.360185242,-0.033333333,1,0,0,1.4922,optionRight,55,3100,2,12,0,12,0,1,,,,,,,,,,,,,,,,,,,,,,,,,,,,,,,,,,,,,,,
,,,,,,,,2023-08-16_08h46.11.712,HF_wild_card,2022.2.4,Win32,60.0132029,5f9eab308e503705011ad793,64d2fd46c836a06233681665,64dc7e971272034764be896c,,,,,,,sngl,resources/Empty.png,resources/DY.BMP,Door1,0.325925954,-0.047222222,1,0,0,0.6776,optionRight,30,3130,2,13,0,13,0,1,,,,,,,,,,,,,,,,,,,,,,,,,,,,,,,,,,,,,,,
,,,,,,,,2023-08-16_08h46.11.712,HF_wild_card,2022.2.4,Win32,60.0132029,5f9eab308e503705011ad793,64d2fd46c836a06233681665,64dc7e971272034764be896c,,,,,,,decisionTrl,resources/DR.BMP,resources/DB.BMP,Door3,0.303703732,-0.000925954,1,0,0,1.6458,optionRight,70,3200,2,14,0,14,0,1,,,,,,,,,,,,,,,,,,,,,,,,,,,,,,,,,,,,,,,
,,,,,,,,2023-08-16_08h46.11.712,HF_wild_card,2022.2.4,Win32,60.0132029,5f9eab308e503705011ad793,64d2fd46c836a06233681665,64dc7e971272034764be896c,,,,,,,decisionTrl,resources/DY.BMP,resources/DBN.BMP,Door1,-0.259259245,-0.02129631,1,0,0,1.3282,optionLeft,30,3230,2,15,0,15,0,1,,,,,,,,,,,,,,,,,,,,,,,,,,,,,,,,,,,,,,,
,,,,,,,,2023-08-16_08h46.11.712,HF_wild_card,2022.2.4,Win32,60.0132029,5f9eab308e503705011ad793,64d2fd46c836a06233681665,64dc7e971272034764be896c,,,,,,,sngl,resources/Empty.png,resources/DR.BMP,Door4,0.273148176,0.002777778,1,0,0,0.7276,optionRight,80,3310,2,16,0,16,0,1,,,,,,,,,,,,,,,,,,,,,,,,,,,,,,,,,,,,,,,
,,,,,,,,2023-08-16_08h46.11.712,HF_wild_card,2022.2.4,Win32,60.0132029,5f9eab308e503705011ad793,64d2fd46c836a06233681665,64dc7e971272034764be896c,,,,,,,decisionTrl,resources/DBN.BMP,resources/DY.BMP,Door1,0.278703732,0.01851849,1,0,0,1.3996,optionRight,30,3340,2,17,0,17,0,1,,,,,,,,,,,,,,,,,,,,,,,,,,,,,,,,,,,,,,,
,,,,,,,,2023-08-16_08h46.11.712,HF_wild_card,2022.2.4,Win32,60.0132029,5f9eab308e503705011ad793,64d2fd46c836a06233681665,64dc7e971272034764be896c,,,,,,,ctch,resources/DY.BMP,resources/DR.BMP,Door4,0.349074131,-0.011111111,1,0,0,1.2686,optionRight,60,3400,2,18,0,18,0,1,,,,,,,,,,,,,,,,,,,,,,,,,,,,,,,,,,,,,,,
,,,,,,,,2023-08-16_08h46.11.712,HF_wild_card,2022.2.4,Win32,60.0132029,5f9eab308e503705011ad793,64d2fd46c836a06233681665,64dc7e971272034764be896c,,,,,,,ctch,resources/DY.BMP,resources/DR.BMP,Door4,0.320370399,-0.010185199,1,0,0,1.0287,optionRight,80,3480,2,19,0,19,0,1,,,,,,,,,,,,,,,,,,,,,,,,,,,,,,,,,,,,,,,
,,,,,,,,2023-08-16_08h46.11.712,HF_wild_card,2022.2.4,Win32,60.0132029,5f9eab308e503705011ad793,64d2fd46c836a06233681665,64dc7e971272034764be896c,,,,,,,decisionTrl,resources/DBN.BMP,resources/DG.BMP,WildCard_NonEx,0.35,-0.000925954,1,0,0,0.8451,optionRight,45,3525,2,20,0,20,0,1,,,,,,,,,,,,,,,,,,,,,,,,,,,,,,,,,,,,,,,
,,,,,,,,2023-08-16_08h46.11.712,HF_wild_card,2022.2.4,Win32,60.0132029,5f9eab308e503705011ad793,64d2fd46c836a06233681665,64dc7e971272034764be896c,,,,,,,decisionTrl,resources/DBN.BMP,resources/DY.BMP,Door1,0.400925954,0.014814801,1,0,0,0.813,optionRight,30,3555,2,21,0,21,0,1,,,,,,,,,,,,,,,,,,,,,,,,,,,,,,,,,,,,,,,
,,,,,,,,2023-08-16_08h46.11.712,HF_wild_card,2022.2.4,Win32,60.0132029,5f9eab308e503705011ad793,64d2fd46c836a06233681665,64dc7e971272034764be896c,,,,,,,sngl,resources/DBN.BMP,resources/Empty.png,Door2,-0.464814801,0.085185157,1,0,0,0.6619,optionLeft,20,3575,2,22,0,22,0,1,,,,,,,,,,,,,,,,,,,,,,,,,,,,,,,,,,,,,,,
,,,,,,,,2023-08-16_08h46.11.712,HF_wild_card,2022.2.4,Win32,60.0132029,5f9eab308e503705011ad793,64d2fd46c836a06233681665,64dc7e971272034764be896c,,,,,,,decisionTrl,resources/DB.BMP,resources/DR.BMP,Door3,-0.286111111,-0.003703732,1,0,0,0.6804,optionLeft,70,3645,2,23,0,23,0,1,,,,,,,,,,,,,,,,,,,,,,,,,,,,,,,,,,,,,,,
,,,,,,,,2023-08-16_08h46.11.712,HF_wild_card,2022.2.4,Win32,60.0132029,5f9eab308e503705011ad793,64d2fd46c836a06233681665,64dc7e971272034764be896c,,,,,,,decisionTrl,resources/DG.BMP,resources/DY.BMP,WildCard_NonEx,-0.267592578,0.007407379,1,0,0,2.3639,optionLeft,45,3690,2,24,0,24,0,1,,,,,,,,,,,,,,,,,,,,,,,,,,,,,,,,,,,,,,,
,,,,,,,,2023-08-16_08h46.11.712,HF_wild_card,2022.2.4,Win32,60.0132029,5f9eab308e503705011ad793,64d2fd46c836a06233681665,64dc7e971272034764be896c,,,,,,,decisionTrl,resources/DY.BMP,resources/DBN.BMP,Door1,-0.246296268,-0.012037065,1,0,0,1.1958,optionLeft,30,3720,2,25,0,25,0,1,,,,,,,,,,,,,,,,,,,,,,,,,,,,,,,,,,,,,,,
,,,,,,,,2023-08-16_08h46.11.712,HF_wild_card,2022.2.4,Win32,60.0132029,5f9eab308e503705011ad793,64d2fd46c836a06233681665,64dc7e971272034764be896c,,,,,,,decisionTrl,resources/DB.BMP,resources/DR.BMP,Door3,-0.247222222,-0.045370399,1,0,0,1.0487,optionLeft,70,3790,2,26,0,26,0,1,,,,,,,,,,,,,,,,,,,,,,,,,,,,,,,,,,,,,,,
,,,,,,,,2023-08-16_08h46.11.712,HF_wild_card,2022.2.4,Win32,60.0132029,5f9eab308e503705011ad793,64d2fd46c836a06233681665,64dc7e971272034764be896c,,,,,,,sngl,resources/DG.BMP,resources/Empty.png,WildCard_NonEx,-0.35,0.034259245,1,0,0,0.729,optionLeft,55,3845,2,27,0,27,0,1,,,,,,,,,,,,,,,,,,,,,,,,,,,,,,,,,,,,,,,
,,,,,,,,2023-08-16_08h46.11.712,HF_wild_card,2022.2.4,Win32,60.0132029,5f9eab308e503705011ad793,64d2fd46c836a06233681665,64dc7e971272034764be896c,,,,,,,decisionTrl,resources/DG.BMP,resources/DB.BMP,Door3,0.336111111,0.012037023,1,0,0,0.7464,optionRight,70,3915,2,28,0,28,0,1,,,,,,,,,,,,,,,,,,,,,,,,,,,,,,,,,,,,,,,
,,,,,,,,2023-08-16_08h46.11.712,HF_wild_card,2022.2.4,Win32,60.0132029,5f9eab308e503705011ad793,64d2fd46c836a06233681665,64dc7e971272034764be896c,,,,,,,decisionTrl,resources/DB.BMP,resources/DG.BMP,Door3,-0.342592578,-0.014814843,1,0,0,0.6449,optionLeft,70,3985,2,29,0,29,0,1,,,,,,,,,,,,,,,,,,,,,,,,,,,,,,,,,,,,,,,
,,,,,,,,2023-08-16_08h46.11.712,HF_wild_card,2022.2.4,Win32,60.0132029,5f9eab308e503705011ad793,64d2fd46c836a06233681665,64dc7e971272034764be896c,,,,,,,decisionTrl,resources/DG.BMP,resources/DBN.BMP,WildCard_NonEx,-0.280555556,0.032407379,1,0,0,1.1781,optionLeft,55,4040,2,30,0,30,0,1,,,,,,,,,,,,,,,,,,,,,,,,,,,,,,,,,,,,,,,
,,,,,,,,2023-08-16_08h46.11.712,HF_wild_card,2022.2.4,Win32,60.0132029,5f9eab308e503705011ad793,64d2fd46c836a06233681665,64dc7e971272034764be896c,,,,,,,decisionTrl,resources/DR.BMP,resources/DB.BMP,Door3,0.337037065,-0.009259288,1,0,0,0.8599,optionRight,70,4110,2,31,0,31,0,1,,,,,,,,,,,,,,,,,,,,,,,,,,,,,,,,,,,,,,,
,,,,,,,,2023-08-16_08h46.11.712,HF_wild_card,2022.2.4,Win32,60.0132029,5f9eab308e503705011ad793,64d2fd46c836a06233681665,64dc7e971272034764be896c,,,,,,,ctch,resources/DR.BMP,resources/DY.BMP,Door4,-0.36851849,-0.007407422,1,0,0,0.8317,optionLeft,60,4170,2,32,0,32,0,1,,,,,,,,,,,,,,,,,,,,,,,,,,,,,,,,,,,,,,,
,,,,,,,,2023-08-16_08h46.11.712,HF_wild_card,2022.2.4,Win32,60.0132029,5f9eab308e503705011ad793,64d2fd46c836a06233681665,64dc7e971272034764be896c,,,,,,,decisionTrl,resources/DR.BMP,resources/DB.BMP,Door3,0.372222222,-0.029629644,1,0,0,1.1457,optionRight,70,4240,2,33,0,33,0,1,,,,,,,,,,,,,,,,,,,,,,,,,,,,,,,,,,,,,,,
,,,,,,,,2023-08-16_08h46.11.712,HF_wild_card,2022.2.4,Win32,60.0132029,5f9eab308e503705011ad793,64d2fd46c836a06233681665,64dc7e971272034764be896c,,,,,,,decisionTrl,resources/DB.BMP,resources/DR.BMP,Door3,-0.323148134,0.00370369,1,0,0,0.6449,optionLeft,70,4310,2,34,0,34,0,1,,,,,,,,,,,,,,,,,,,,,,,,,,,,,,,,,,,,,,,
,,,,,,,,2023-08-16_08h46.11.712,HF_wild_card,2022.2.4,Win32,60.0132029,5f9eab308e503705011ad793,64d2fd46c836a06233681665,64dc7e971272034764be896c,,,,,,,decisionTrl,resources/DG.BMP,resources/DR.BMP,Door4,0.319444444,-0.042592621,1,0,0,1.7482,optionRight,60,4370,2,35,0,35,0,1,,,,,,,,,,,,,,,,,,,,,,,,,,,,,,,,,,,,,,,
,,,,,,,,2023-08-16_08h46.11.712,HF_wild_card,2022.2.4,Win32,60.0132029,5f9eab308e503705011ad793,64d2fd46c836a06233681665,64dc7e971272034764be896c,,,,,,,ctch,resources/DB.BMP,resources/DBN.BMP,Door3,-0.273148134,-0.040740755,1,0,0,0.7472,optionLeft,70,4440,2,36,0,36,0,1,,,,,,,,,,,,,,,,,,,,,,,,,,,,,,,,,,,,,,,
,,,,,,,,2023-08-16_08h46.11.712,HF_wild_card,2022.2.4,Win32,60.0132029,5f9eab308e503705011ad793,64d2fd46c836a06233681665,64dc7e971272034764be896c,,,,,,,sngl,resources/Empty.png,resources/DB.BMP,Door3,0.410185242,-0.016666667,1,0,0,0.6627,optionRight,70,4510,2,37,0,37,0,1,,,,,,,,,,,,,,,,,,,,,,,,,,,,,,,,,,,,,,,
,,,,,,,,2023-08-16_08h46.11.712,HF_wild_card,2022.2.4,Win32,60.0132029,5f9eab308e503705011ad793,64d2fd46c836a06233681665,64dc7e971272034764be896c,,,,,,,ctch,resources/DB.BMP,resources/DBN.BMP,Door3,-0.406481467,0.020370356,1,0,0,0.5308,optionLeft,70,4580,2,38,0,38,0,1,,,,,,,,,,,,,,,,,,,,,,,,,,,,,,,,,,,,,,,
,,,,,,,,2023-08-16_08h46.11.712,HF_wild_card,2022.2.4,Win32,60.0132029,5f9eab308e503705011ad793,64d2fd46c836a06233681665,64dc7e971272034764be896c,,,,,,,decisionTrl,resources/DY.BMP,resources/DBN.BMP,Door1,-0.380555556,0.024074046,1,0,0,0.9545,optionLeft,30,4610,2,39,0,39,0,1,,,,,,,,,,,,,,,,,,,,,,,,,,,,,,,,,,,,,,,
,,,,,,,,2023-08-16_08h46.11.712,HF_wild_card,2022.2.4,Win32,60.0132029,5f9eab308e503705011ad793,64d2fd46c836a06233681665,64dc7e971272034764be896c,,,,,,,sngl,resources/DR.BMP,resources/Empty.png,Door4,-0.29351849,-0.023148176,1,0,0,1.0116,optionLeft,60,4670,2,40,0,40,0,1,,,,,,,,,,,,,,,,,,,,,,,,,,,,,,,,,,,,,,,
,,,,,,,,2023-08-16_08h46.11.712,HF_wild_card,2022.2.4,Win32,60.0132029,5f9eab308e503705011ad793,64d2fd46c836a06233681665,64dc7e971272034764be896c,,,,,,,sngl,resources/Empty.png,resources/DG.BMP,WildCard_NonEx,0.337037065,-0.030555556,1,0,0,0.7255,optionRight,55,4725,2,41,0,41,0,1,,,,,,,,,,,,,,,,,,,,,,,,,,,,,,,,,,,,,,,
,,,,,,,,2023-08-16_08h46.11.712,HF_wild_card,2022.2.4,Win32,60.0132029,5f9eab308e503705011ad793,64d2fd46c836a06233681665,64dc7e971272034764be896c,,,,,,,sngl,resources/DB.BMP,resources/Empty.png,Door3,-0.45,0.074074046,1,0,0,1.0934,optionLeft,70,4795,2,42,0,42,0,1,,,,,,,,,,,,,,,,,,,,,,,,,,,,,,,,,,,,,,,
,,,,,,,,2023-08-16_08h46.11.712,HF_wild_card,2022.2.4,Win32,60.0132029,5f9eab308e503705011ad793,64d2fd46c836a06233681665,64dc7e971272034764be896c,,,,,,,sngl,resources/Empty.png,resources/DG.BMP,WildCard_NonEx,0.284259288,-0.007407422,1,0,0,0.5636,optionRight,45,4840,2,43,0,43,0,1,,,,,,,,,,,,,,,,,,,,,,,,,,,,,,,,,,,,,,,
,,,,,,,,2023-08-16_08h46.11.712,HF_wild_card,2022.2.4,Win32,60.0132029,5f9eab308e503705011ad793,64d2fd46c836a06233681665,64dc7e971272034764be896c,,,,,,,,,,,,,,,,,,,,,,,,,,1,0,1,0,1,,,,,,,,,,,,,,,,,,,,,,,,,,,,,,,,,,
,,,,,,,,2023-08-16_08h46.11.712,HF_wild_card,2022.2.4,Win32,60.0132029,5f9eab308e503705011ad793,64d2fd46c836a06233681665,64dc7e971272034764be896c,,,,,,,ctch,resources/DY.BMP,resources/DR.BMP,Door4,0.366666667,-0.054629644,1,0,0,1.1925,optionRight,80,4920,3,0,0,0,0,1,,,,,,,,,,,,,,,,,,,,,,,,,,,,,,,,,,,,,,,
,,,,,,,,2023-08-16_08h46.11.712,HF_wild_card,2022.2.4,Win32,60.0132029,5f9eab308e503705011ad793,64d2fd46c836a06233681665,64dc7e971272034764be896c,,,,,,,decisionTrl,resources/DY.BMP,resources/DBN.BMP,Door1,-0.439814801,0.01851849,1,0,0,0.8128,optionLeft,30,4950,3,1,0,1,0,1,,,,,,,,,,,,,,,,,,,,,,,,,,,,,,,,,,,,,,,
,,,,,,,,2023-08-16_08h46.11.712,HF_wild_card,2022.2.4,Win32,60.0132029,5f9eab308e503705011ad793,64d2fd46c836a06233681665,64dc7e971272034764be896c,,,,,,,sngl,resources/Empty.png,resources/DR.BMP,Door4,0.467592621,-0.004629644,1,0,0,0.5286,optionRight,60,5010,3,2,0,2,0,1,,,,,,,,,,,,,,,,,,,,,,,,,,,,,,,,,,,,,,,
,,,,,,,,2023-08-16_08h46.11.712,HF_wild_card,2022.2.4,Win32,60.0132029,5f9eab308e503705011ad793,64d2fd46c836a06233681665,64dc7e971272034764be896c,,,,,,,sngl,resources/DB.BMP,resources/Empty.png,Door3,-0.376851824,0.040740712,1,0,0,0.5454,optionLeft,70,5080,3,3,0,3,0,1,,,,,,,,,,,,,,,,,,,,,,,,,,,,,,,,,,,,,,,
,,,,,,,,2023-08-16_08h46.11.712,HF_wild_card,2022.2.4,Win32,60.0132029,5f9eab308e503705011ad793,64d2fd46c836a06233681665,64dc7e971272034764be896c,,,,,,,ctch,resources/DB.BMP,resources/DBN.BMP,Door3,-0.29351849,-0.003703732,1,0,0,1.0143,optionLeft,70,5150,3,4,0,4,0,1,,,,,,,,,,,,,,,,,,,,,,,,,,,,,,,,,,,,,,,
,,,,,,,,2023-08-16_08h46.11.712,HF_wild_card,2022.2.4,Win32,60.0132029,5f9eab308e503705011ad793,64d2fd46c836a06233681665,64dc7e971272034764be896c,,,,,,,decisionTrl,resources/DB.BMP,resources/DR.BMP,Door3,-0.245370356,0.007407379,1,0,0,0.7931,optionLeft,70,5220,3,5,0,5,0,1,,,,,,,,,,,,,,,,,,,,,,,,,,,,,,,,,,,,,,,
,,,,,,,,2023-08-16_08h46.11.712,HF_wild_card,2022.2.4,Win32,60.0132029,5f9eab308e503705011ad793,64d2fd46c836a06233681665,64dc7e971272034764be896c,,,,,,,decisionTrl,resources/DY.BMP,resources/DBN.BMP,Door2,0.389814843,-0.00648151,1,0,0,1.1609,optionRight,40,5260,3,6,0,6,0,1,,,,,,,,,,,,,,,,,,,,,,,,,,,,,,,,,,,,,,,
,,,,,,,,2023-08-16_08h46.11.712,HF_wild_card,2022.2.4,Win32,60.0132029,5f9eab308e503705011ad793,64d2fd46c836a06233681665,64dc7e971272034764be896c,,,,,,,sngl,resources/Empty.png,resources/DBN.BMP,Door2,0.230555556,-0.042592621,1,0,0,0.5461,optionRight,20,5280,3,7,0,7,0,1,,,,,,,,,,,,,,,,,,,,,,,,,,,,,,,,,,,,,,,
,,,,,,,,2023-08-16_08h46.11.712,HF_wild_card,2022.2.4,Win32,60.0132029,5f9eab308e503705011ad793,64d2fd46c836a06233681665,64dc7e971272034764be896c,,,,,,,decisionTrl,resources/DBN.BMP,resources/DY.BMP,Door1,0.311111111,0.011111111,1,0,0,0.8425,optionRight,30,5310,3,8,0,8,0,1,,,,,,,,,,,,,,,,,,,,,,,,,,,,,,,,,,,,,,,
,,,,,,,,2023-08-16_08h46.11.712,HF_wild_card,2022.2.4,Win32,60.0132029,5f9eab308e503705011ad793,64d2fd46c836a06233681665,64dc7e971272034764be896c,,,,,,,sngl,resources/DG.BMP,resources/Empty.png,WildCard_NonEx,-0.366666667,-0.002777778,1,0,0,0.5613,optionLeft,55,5365,3,9,0,9,0,1,,,,,,,,,,,,,,,,,,,,,,,,,,,,,,,,,,,,,,,
,,,,,,,,2023-08-16_08h46.11.712,HF_wild_card,2022.2.4,Win32,60.0132029,5f9eab308e503705011ad793,64d2fd46c836a06233681665,64dc7e971272034764be896c,,,,,,,decisionTrl,resources/DG.BMP,resources/DB.BMP,Door3,0.345370399,0.01851849,1,0,0,0.945,optionRight,70,5435,3,10,0,10,0,1,,,,,,,,,,,,,,,,,,,,,,,,,,,,,,,,,,,,,,,
,,,,,,,,2023-08-16_08h46.11.712,HF_wild_card,2022.2.4,Win32,60.0132029,5f9eab308e503705011ad793,64d2fd46c836a06233681665,64dc7e971272034764be896c,,,,,,,decisionTrl,resources/DBN.BMP,resources/DY.BMP,Door1,0.312963019,-0.009259288,1,0,0,0.8975,optionRight,30,5465,3,11,0,11,0,1,,,,,,,,,,,,,,,,,,,,,,,,,,,,,,,,,,,,,,,
,,,,,,,,2023-08-16_08h46.11.712,HF_wild_card,2022.2.4,Win32,60.0132029,5f9eab308e503705011ad793,64d2fd46c836a06233681665,64dc7e971272034764be896c,,,,,,,ctch,resources/DB.BMP,resources/DBN.BMP,Door3,-0.25,-0.001851866,1,0,0,0.744,optionLeft,70,5535,3,12,0,12,0,1,,,,,,,,,,,,,,,,,,,,,,,,,,,,,,,,,,,,,,,
,,,,,,,,2023-08-16_08h46.11.712,HF_wild_card,2022.2.4,Win32,60.0132029,5f9eab308e503705011ad793,64d2fd46c836a06233681665,64dc7e971272034764be896c,,,,,,,decisionTrl,resources/DR.BMP,resources/DB.BMP,Door3,0.489814843,-0.053703732,1,0,0,0.8099,optionRight,70,5605,3,13,0,13,0,1,,,,,,,,,,,,,,,,,,,,,,,,,,,,,,,,,,,,,,,
,,,,,,,,2023-08-16_08h46.11.712,HF_wild_card,2022.2.4,Win32,60.0132029,5f9eab308e503705011ad793,64d2fd46c836a06233681665,64dc7e971272034764be896c,,,,,,,decisionTrl,resources/DR.BMP,resources/DB.BMP,Door3,0.189814843,-0.045370399,1,0,0,0.6151,optionRight,70,5675,3,14,0,14,0,1,,,,,,,,,,,,,,,,,,,,,,,,,,,,,,,,,,,,,,,
,,,,,,,,2023-08-16_08h46.11.712,HF_wild_card,2022.2.4,Win32,60.0132029,5f9eab308e503705011ad793,64d2fd46c836a06233681665,64dc7e971272034764be896c,,,,,,,sngl,resources/DBN.BMP,resources/Empty.png,Door2,-0.251851824,-0.003703732,1,0,0,0.5777,optionLeft,40,5715,3,15,0,15,0,1,,,,,,,,,,,,,,,,,,,,,,,,,,,,,,,,,,,,,,,
,,,,,,,,2023-08-16_08h46.11.712,HF_wild_card,2022.2.4,Win32,60.0132029,5f9eab308e503705011ad793,64d2fd46c836a06233681665,64dc7e971272034764be896c,,,,,,,decisionTrl,resources/DB.BMP,resources/DG.BMP,Door3,-0.217592578,0.012962935,1,0,0,0.7465,optionLeft,70,5785,3,16,0,16,0,1,,,,,,,,,,,,,,,,,,,,,,,,,,,,,,,,,,,,,,,
,,,,,,,,2023-08-16_08h46.11.712,HF_wild_card,2022.2.4,Win32,60.0132029,5f9eab308e503705011ad793,64d2fd46c836a06233681665,64dc7e971272034764be896c,,,,,,,decisionTrl,resources/DBN.BMP,resources/DY.BMP,Door1,0.142592621,0.002777778,1,0,0,1.227,optionRight,30,5815,3,17,0,17,0,1,,,,,,,,,,,,,,,,,,,,,,,,,,,,,,,,,,,,,,,
,,,,,,,,2023-08-16_08h46.11.712,HF_wild_card,2022.2.4,Win32,60.0132029,5f9eab308e503705011ad793,64d2fd46c836a06233681665,64dc7e971272034764be896c,,,,,,,decisionTrl,resources/DB.BMP,resources/DR.BMP,Door3,-0.260185157,-0.011111111,1,0,0,0.5935,optionLeft,70,5885,3,18,0,18,0,1,,,,,,,,,,,,,,,,,,,,,,,,,,,,,,,,,,,,,,,
,,,,,,,,2023-08-16_08h46.11.712,HF_wild_card,2022.2.4,Win32,60.0132029,5f9eab308e503705011ad793,64d2fd46c836a06233681665,64dc7e971272034764be896c,,,,,,,sngl,resources/Empty.png,resources/DG.BMP,WildCard_NonEx,0.158333333,0.002777778,1,0,0,0.5454,optionRight,45,5930,3,19,0,19,0,1,,,,,,,,,,,,,,,,,,,,,,,,,,,,,,,,,,,,,,,
,,,,,,,,2023-08-16_08h46.11.712,HF_wild_card,2022.2.4,Win32,60.0132029,5f9eab308e503705011ad793,64d2fd46c836a06233681665,64dc7e971272034764be896c,,,,,,,decisionTrl,resources/DG.BMP,resources/DBN.BMP,WildCard_NonEx,-0.223148134,0.026851824,1,0,0,0.9451,optionLeft,55,5985,3,20,0,20,0,1,,,,,,,,,,,,,,,,,,,,,,,,,,,,,,,,,,,,,,,
,,,,,,,,2023-08-16_08h46.11.712,HF_wild_card,2022.2.4,Win32,60.0132029,5f9eab308e503705011ad793,64d2fd46c836a06233681665,64dc7e971272034764be896c,,,,,,,ctch,resources/DY.BMP,resources/DR.BMP,Door4,0.412037065,-0.015740755,1,0,0,1.2444,optionRight,60,6045,3,21,0,21,0,1,,,,,,,,,,,,,,,,,,,,,,,,,,,,,,,,,,,,,,,
,,,,,,,,2023-08-16_08h46.11.712,HF_wild_card,2022.2.4,Win32,60.0132029,5f9eab308e503705011ad793,64d2fd46c836a06233681665,64dc7e971272034764be896c,,,,,,,ctch,resources/DR.BMP,resources/DY.BMP,Door4,-0.214814801,0.016666667,1,0,0,0.7278,optionLeft,60,6105,3,22,0,22,0,1,,,,,,,,,,,,,,,,,,,,,,,,,,,,,,,,,,,,,,,
,,,,,,,,2023-08-16_08h46.11.712,HF_wild_card,2022.2.4,Win32,60.0132029,5f9eab308e503705011ad793,64d2fd46c836a06233681665,64dc7e971272034764be896c,,,,,,,decisionTrl,resources/DY.BMP,resources/DBN.BMP,Door1,-0.139814758,0.013888889,1,0,0,1.1932,optionLeft,30,6135,3,23,0,23,0,1,,,,,,,,,,,,,,,,,,,,,,,,,,,,,,,,,,,,,,,
,,,,,,,,2023-08-16_08h46.11.712,HF_wild_card,2022.2.4,Win32,60.0132029,5f9eab308e503705011ad793,64d2fd46c836a06233681665,64dc7e971272034764be896c,,,,,,,decisionTrl,resources/DY.BMP,resources/DG.BMP,WildCard_NonEx,0.369444444,-0.013888889,1,0,0,1.5289,optionRight,45,6180,3,24,0,24,0,1,,,,,,,,,,,,,,,,,,,,,,,,,,,,,,,,,,,,,,,
,,,,,,,,2023-08-16_08h46.11.712,HF_wild_card,2022.2.4,Win32,60.0132029,5f9eab308e503705011ad793,64d2fd46c836a06233681665,64dc7e971272034764be896c,,,,,,,decisionTrl,resources/DY.BMP,resources/DBN.BMP,Door1,-0.241666667,0.009259245,1,0,0,1.0775,optionLeft,30,6210,3,25,0,25,0,1,,,,,,,,,,,,,,,,,,,,,,,,,,,,,,,,,,,,,,,
,,,,,,,,2023-08-16_08h46.11.712,HF_wild_card,2022.2.4,Win32,60.0132029,5f9eab308e503705011ad793,64d2fd46c836a06233681665,64dc7e971272034764be896c,,,,,,,decisionTrl,resources/DG.BMP,resources/DR.BMP,Door4,0.340740797,-0.049074088,1,0,0,1.0611,optionRight,60,6270,3,26,0,26,0,1,,,,,,,,,,,,,,,,,,,,,,,,,,,,,,,,,,,,,,,
,,,,,,,,2023-08-16_08h46.11.712,HF_wild_card,2022.2.4,Win32,60.0132029,5f9eab308e503705011ad793,64d2fd46c836a06233681665,64dc7e971272034764be896c,,,,,,,sngl,resources/DG.BMP,resources/Empty.png,WildCard_NonEx,-0.162036981,0.001851824,1,0,0,0.5953,optionLeft,45,6315,3,27,0,27,0,1,,,,,,,,,,,,,,,,,,,,,,,,,,,,,,,,,,,,,,,
,,,,,,,,2023-08-16_08h46.11.712,HF_wild_card,2022.2.4,Win32,60.0132029,5f9eab308e503705011ad793,64d2fd46c836a06233681665,64dc7e971272034764be896c,,,,,,,sngl,resources/DY.BMP,resources/Empty.png,Door1,-0.171296268,-0.007407422,1,0,0,0.8476,optionLeft,30,6345,3,28,0,28,0,1,,,,,,,,,,,,,,,,,,,,,,,,,,,,,,,,,,,,,,,
,,,,,,,,2023-08-16_08h46.11.712,HF_wild_card,2022.2.4,Win32,60.0132029,5f9eab308e503705011ad793,64d2fd46c836a06233681665,64dc7e971272034764be896c,,,,,,,sngl,resources/Empty.png,resources/DG.BMP,WildCard_NonEx,0.190740797,-0.019444444,1,0,0,0.5625,optionRight,55,6400,3,29,0,29,0,1,,,,,,,,,,,,,,,,,,,,,,,,,,,,,,,,,,,,,,,
,,,,,,,,2023-08-16_08h46.11.712,HF_wild_card,2022.2.4,Win32,60.0132029,5f9eab308e503705011ad793,64d2fd46c836a06233681665,64dc7e971272034764be896c,,,,,,,sngl,resources/Empty.png,resources/DB.BMP,Door3,0.168518575,-0.018518533,1,0,0,0.6135,optionRight,70,6470,3,30,0,30,0,1,,,,,,,,,,,,,,,,,,,,,,,,,,,,,,,,,,,,,,,
,,,,,,,,2023-08-16_08h46.11.712,HF_wild_card,2022.2.4,Win32,60.0132029,5f9eab308e503705011ad793,64d2fd46c836a06233681665,64dc7e971272034764be896c,,,,,,,sngl,resources/Empty.png,resources/DY.BMP,Door1,0.161111111,-0.011111111,1,0,0,0.6605,optionRight,30,6500,3,31,0,31,0,1,,,,,,,,,,,,,,,,,,,,,,,,,,,,,,,,,,,,,,,
,,,,,,,,2023-08-16_08h46.11.712,HF_wild_card,2022.2.4,Win32,60.0132029,5f9eab308e503705011ad793,64d2fd46c836a06233681665,64dc7e971272034764be896c,,,,,,,decisionTrl,resources/DR.BMP,resources/DB.BMP,Door3,0.174074131,-0.013888889,1,0,0,0.9659,optionRight,70,6570,3,32,0,32,0,1,,,,,,,,,,,,,,,,,,,,,,,,,,,,,,,,,,,,,,,
,,,,,,,,2023-08-16_08h46.11.712,HF_wild_card,2022.2.4,Win32,60.0132029,5f9eab308e503705011ad793,64d2fd46c836a06233681665,64dc7e971272034764be896c,,,,,,,ctch,resources/DBN.BMP,resources/DB.BMP,Door3,0.204629686,-0.012962977,1,0,0,0.844,optionRight,70,6640,3,33,0,33,0,1,,,,,,,,,,,,,,,,,,,,,,,,,,,,,,,,,,,,,,,
,,,,,,,,2023-08-16_08h46.11.712,HF_wild_card,2022.2.4,Win32,60.0132029,5f9eab308e503705011ad793,64d2fd46c836a06233681665,64dc7e971272034764be896c,,,,,,,decisionTrl,resources/DBN.BMP,resources/DG.BMP,WildCard_NonEx,0.200925954,0.012962935,1,0,0,0.7447,optionRight,55,6695,3,34,0,34,0,1,,,,,,,,,,,,,,,,,,,,,,,,,,,,,,,,,,,,,,,
,,,,,,,,2023-08-16_08h46.11.712,HF_wild_card,2022.2.4,Win32,60.0132029,5f9eab308e503705011ad793,64d2fd46c836a06233681665,64dc7e971272034764be896c,,,,,,,decisionTrl,resources/DB.BMP,resources/DR.BMP,Door3,-0.162036981,0.01851849,1,0,0,1.0307,optionLeft,70,6765,3,35,0,35,0,1,,,,,,,,,,,,,,,,,,,,,,,,,,,,,,,,,,,,,,,
,,,,,,,,2023-08-16_08h46.11.712,HF_wild_card,2022.2.4,Win32,60.0132029,5f9eab308e503705011ad793,64d2fd46c836a06233681665,64dc7e971272034764be896c,,,,,,,decisionTrl,resources/DBN.BMP,resources/DY.BMP,Door1,0.278703732,-0.002777778,1,0,0,0.9116,optionRight,30,6795,3,36,0,36,0,1,,,,,,,,,,,,,,,,,,,,,,,,,,,,,,,,,,,,,,,
,,,,,,,,2023-08-16_08h46.11.712,HF_wild_card,2022.2.4,Win32,60.0132029,5f9eab308e503705011ad793,64d2fd46c836a06233681665,64dc7e971272034764be896c,,,,,,,decisionTrl,resources/DR.BMP,resources/DB.BMP,Door3,0.211111111,0.002777778,1,0,0,1.2629,optionRight,70,6865,3,37,0,37,0,1,,,,,,,,,,,,,,,,,,,,,,,,,,,,,,,,,,,,,,,
,,,,,,,,2023-08-16_08h46.11.712,HF_wild_card,2022.2.4,Win32,60.0132029,5f9eab308e503705011ad793,64d2fd46c836a06233681665,64dc7e971272034764be896c,,,,,,,decisionTrl,resources/DB.BMP,resources/DR.BMP,Door3,-0.299074046,-0.000925954,1,0,0,0.6768,optionLeft,70,6935,3,38,0,38,0,1,,,,,,,,,,,,,,,,,,,,,,,,,,,,,,,,,,,,,,,
,,,,,,,,2023-08-16_08h46.11.712,HF_wild_card,2022.2.4,Win32,60.0132029,5f9eab308e503705011ad793,64d2fd46c836a06233681665,64dc7e971272034764be896c,,,,,,,ctch,resources/DR.BMP,resources/DY.BMP,Door4,-0.20370369,-0.00648151,1,0,0,2.1116,optionLeft,60,6995,3,39,0,39,0,1,,,,,,,,,,,,,,,,,,,,,,,,,,,,,,,,,,,,,,,
,,,,,,,,2023-08-16_08h46.11.712,HF_wild_card,2022.2.4,Win32,60.0132029,5f9eab308e503705011ad793,64d2fd46c836a06233681665,64dc7e971272034764be896c,,,,,,,sngl,resources/DR.BMP,resources/Empty.png,Door4,-0.145370314,0.007407379,1,0,0,0.6621,optionLeft,80,7075,3,40,0,40,0,1,,,,,,,,,,,,,,,,,,,,,,,,,,,,,,,,,,,,,,,
,,,,,,,,2023-08-16_08h46.11.712,HF_wild_card,2022.2.4,Win32,60.0132029,5f9eab308e503705011ad793,64d2fd46c836a06233681665,64dc7e971272034764be896c,,,,,,,decisionTrl,resources/DG.BMP,resources/DY.BMP,WildCard_NonEx,-0.120370314,-0.007407422,1,0,0,1.4946,optionLeft,55,7130,3,41,0,41,0,1,,,,,,,,,,,,,,,,,,,,,,,,,,,,,,,,,,,,,,,
,,,,,,,,2023-08-16_08h46.11.712,HF_wild_card,2022.2.4,Win32,60.0132029,5f9eab308e503705011ad793,64d2fd46c836a06233681665,64dc7e971272034764be896c,,,,,,,ctch,resources/DBN.BMP,resources/DB.BMP,Door3,0.215740797,0.008333333,1,0,0,0.8102,optionRight,70,7200,3,42,0,42,0,1,,,,,,,,,,,,,,,,,,,,,,,,,,,,,,,,,,,,,,,
,,,,,,,,2023-08-16_08h46.11.712,HF_wild_card,2022.2.4,Win32,60.0132029,5f9eab308e503705011ad793,64d2fd46c836a06233681665,64dc7e971272034764be896c,,,,,,,decisionTrl,resources/DR.BMP,resources/DG.BMP,Door4,-0.148148092,0.021296268,1,0,0,0.6763,optionLeft,80,7280,3,43,0,43,0,1,,,,,,,,,,,,,,,,,,,,,,,,,,,,,,,,,,,,,,,
,,,,,,,,2023-08-16_08h46.11.712,HF_wild_card,2022.2.4,Win32,60.0132029,5f9eab308e503705011ad793,64d2fd46c836a06233681665,64dc7e971272034764be896c,,,,,,,,,,,,,,,,,,,,,,,,,,2,0,2,0,1,,,,,,,,,,,,,,,,,,,,,,,,,,,,,,,,,,
,,,,,,,,2023-08-16_08h46.11.712,HF_wild_card,2022.2.4,Win32,60.0132029,5f9eab308e503705011ad793,64d2fd46c836a06233681665,64dc7e971272034764be896c,,,,,,,decisionTrl,resources/DBN.BMP,resources/DP.BMP,WildCard_Ex,0.216666667,-0.023148176,1,0,0,1.2857,optionRight,45,7325,4,0,0,0,0,1,,,,,,,,,,,,,,,,,,,,,,,,,,,,,,,,,,,,,,,
,,,,,,,,2023-08-16_08h46.11.712,HF_wild_card,2022.2.4,Win32,60.0132029,5f9eab308e503705011ad793,64d2fd46c836a06233681665,64dc7e971272034764be896c,,,,,,,decisionTrl,resources/DY.BMP,resources/DP.BMP,WildCard_Ex,0.121296353,-0.023148176,1,0,0,5.5282,optionRight,45,7370,4,1,0,1,0,1,,,,,,,,,,,,,,,,,,,,,,,,,,,,,,,,,,,,,,,
,,,,,,,,2023-08-16_08h46.11.712,HF_wild_card,2022.2.4,Win32,60.0132029,5f9eab308e503705011ad793,64d2fd46c836a06233681665,64dc7e971272034764be896c,,,,,,,ctch,resources/DR.BMP,resources/DY.BMP,Door4,-0.116666667,-0.002777778,1,0,0,1.4581,optionLeft,60,7430,4,2,0,2,0,1,,,,,,,,,,,,,,,,,,,,,,,,,,,,,,,,,,,,,,,
,,,,,,,,2023-08-16_08h46.11.712,HF_wild_card,2022.2.4,Win32,60.0132029,5f9eab308e503705011ad793,64d2fd46c836a06233681665,64dc7e971272034764be896c,,,,,,,sngl,resources/Empty.png,resources/DBN.BMP,Door2,0.171296353,-0.009259288,1,0,0,0.793,optionRight,40,7470,4,3,0,3,0,1,,,,,,,,,,,,,,,,,,,,,,,,,,,,,,,,,,,,,,,
,,,,,,,,2023-08-16_08h46.11.712,HF_wild_card,2022.2.4,Win32,60.0132029,5f9eab308e503705011ad793,64d2fd46c836a06233681665,64dc7e971272034764be896c,,,,,,,decisionTrl,resources/DB.BMP,resources/DR.BMP,Door3,-0.175925869,-0.004629644,1,0,0,1.4609,optionLeft,70,7540,4,4,0,4,0,1,,,,,,,,,,,,,,,,,,,,,,,,,,,,,,,,,,,,,,,
,,,,,,,,2023-08-16_08h46.11.712,HF_wild_card,2022.2.4,Win32,60.0132029,5f9eab308e503705011ad793,64d2fd46c836a06233681665,64dc7e971272034764be896c,,,,,,,decisionTrl,resources/DR.BMP,resources/DB.BMP,Door3,0.168518575,-0.020370399,1,0,0,0.7952,optionRight,70,7610,4,5,0,5,0,1,,,,,,,,,,,,,,,,,,,,,,,,,,,,,,,,,,,,,,,
,,,,,,,,2023-08-16_08h46.11.712,HF_wild_card,2022.2.4,Win32,60.0132029,5f9eab308e503705011ad793,64d2fd46c836a06233681665,64dc7e971272034764be896c,,,,,,,decisionTrl,resources/DY.BMP,resources/DBN.BMP,Door1,-0.186111111,-0.008333333,1,0,0,1.0309,optionLeft,30,7640,4,6,0,6,0,1,,,,,,,,,,,,,,,,,,,,,,,,,,,,,,,,,,,,,,,
,,,,,,,,2023-08-16_08h46.11.712,HF_wild_card,2022.2.4,Win32,60.0132029,5f9eab308e503705011ad793,64d2fd46c836a06233681665,64dc7e971272034764be896c,,,,,,,ctch,resources/DBN.BMP,resources/DB.BMP,Door3,0.225,-0.028703732,1,0,0,1.1464,optionRight,70,7710,4,7,0,7,0,1,,,,,,,,,,,,,,,,,,,,,,,,,,,,,,,,,,,,,,,
,,,,,,,,2023-08-16_08h46.11.712,HF_wild_card,2022.2.4,Win32,60.0132029,5f9eab308e503705011ad793,64d2fd46c836a06233681665,64dc7e971272034764be896c,,,,,,,decisionTrl,resources/DY.BMP,resources/DBN.BMP,Door1,-0.226851824,-0.012037065,1,0,0,1.0284,optionLeft,30,7740,4,8,0,8,0,1,,,,,,,,,,,,,,,,,,,,,,,,,,,,,,,,,,,,,,,
,,,,,,,,2023-08-16_08h46.11.712,HF_wild_card,2022.2.4,Win32,60.0132029,5f9eab308e503705011ad793,64d2fd46c836a06233681665,64dc7e971272034764be896c,,,,,,,decisionTrl,resources/DP.BMP,resources/DR.BMP,Door4,0.310185242,-0.011111111,1,0,0,1.6451,optionRight,80,7820,4,9,0,9,0,1,,,,,,,,,,,,,,,,,,,,,,,,,,,,,,,,,,,,,,,
,,,,,,,,2023-08-16_08h46.11.712,HF_wild_card,2022.2.4,Win32,60.0132029,5f9eab308e503705011ad793,64d2fd46c836a06233681665,64dc7e971272034764be896c,,,,,,,sngl,resources/Empty.png,resources/DB.BMP,Door3,0.186111111,-0.022222222,1,0,0,0.5912,optionRight,70,7890,4,10,0,10,0,1,,,,,,,,,,,,,,,,,,,,,,,,,,,,,,,,,,,,,,,
,,,,,,,,2023-08-16_08h46.11.712,HF_wild_card,2022.2.4,Win32,60.0132029,5f9eab308e503705011ad793,64d2fd46c836a06233681665,64dc7e971272034764be896c,,,,,,,decisionTrl,resources/DBN.BMP,resources/DY.BMP,Door1,0.116666667,0.002777778,1,0,0,0.7121,optionRight,30,7920,4,11,0,11,0,1,,,,,,,,,,,,,,,,,,,,,,,,,,,,,,,,,,,,,,,
,,,,,,,,2023-08-16_08h46.11.712,HF_wild_card,2022.2.4,Win32,60.0132029,5f9eab308e503705011ad793,64d2fd46c836a06233681665,64dc7e971272034764be896c,,,,,,,decisionTrl,resources/DB.BMP,resources/DR.BMP,Door3,-0.200925912,-0.029629644,1,0,0,1.0265,optionLeft,70,7990,4,12,0,12,0,1,,,,,,,,,,,,,,,,,,,,,,,,,,,,,,,,,,,,,,,
,,,,,,,,2023-08-16_08h46.11.712,HF_wild_card,2022.2.4,Win32,60.0132029,5f9eab308e503705011ad793,64d2fd46c836a06233681665,64dc7e971272034764be896c,,,,,,,decisionTrl,resources/DR.BMP,resources/DB.BMP,Door3,0.186111111,0.004629601,1,0,0,0.6958,optionRight,70,8060,4,13,0,13,0,1,,,,,,,,,,,,,,,,,,,,,,,,,,,,,,,,,,,,,,,
,,,,,,,,2023-08-16_08h46.11.712,HF_wild_card,2022.2.4,Win32,60.0132029,5f9eab308e503705011ad793,64d2fd46c836a06233681665,64dc7e971272034764be896c,,,,,,,decisionTrl,resources/DR.BMP,resources/DB.BMP,Door3,0.129629686,0.00370369,1,0,0,0.8142,optionRight,70,8130,4,14,0,14,0,1,,,,,,,,,,,,,,,,,,,,,,,,,,,,,,,,,,,,,,,
,,,,,,,,2023-08-16_08h46.11.712,HF_wild_card,2022.2.4,Win32,60.0132029,5f9eab308e503705011ad793,64d2fd46c836a06233681665,64dc7e971272034764be896c,,,,,,,ctch,resources/DY.BMP,resources/DR.BMP,Door4,0.160185242,0.00370369,1,0,0,1.0133,optionRight,80,8210,4,15,0,15,0,1,,,,,,,,,,,,,,,,,,,,,,,,,,,,,,,,,,,,,,,
,,,,,,,,2023-08-16_08h46.11.712,HF_wild_card,2022.2.4,Win32,60.0132029,5f9eab308e503705011ad793,64d2fd46c836a06233681665,64dc7e971272034764be896c,,,,,,,sngl,resources/Empty.png,resources/DP.BMP,WildCard_Ex,0.124074131,0.002777778,1,0,0,0.846,optionRight,55,8265,4,16,0,16,0,1,,,,,,,,,,,,,,,,,,,,,,,,,,,,,,,,,,,,,,,
,,,,,,,,2023-08-16_08h46.11.712,HF_wild_card,2022.2.4,Win32,60.0132029,5f9eab308e503705011ad793,64d2fd46c836a06233681665,64dc7e971272034764be896c,,,,,,,decisionTrl,resources/DR.BMP,resources/DP.BMP,Door4,-0.136111111,-0.015740755,1,0,0,1.2312,optionLeft,60,8325,4,17,0,17,0,1,,,,,,,,,,,,,,,,,,,,,,,,,,,,,,,,,,,,,,,
,,,,,,,,2023-08-16_08h46.11.712,HF_wild_card,2022.2.4,Win32,60.0132029,5f9eab308e503705011ad793,64d2fd46c836a06233681665,64dc7e971272034764be896c,,,,,,,sngl,resources/DP.BMP,resources/Empty.png,WildCard_Ex,-0.248148134,0.013888889,1,0,0,0.8437,optionLeft,45,8370,4,18,0,18,0,1,,,,,,,,,,,,,,,,,,,,,,,,,,,,,,,,,,,,,,,
,,,,,,,,2023-08-16_08h46.11.712,HF_wild_card,2022.2.4,Win32,60.0132029,5f9eab308e503705011ad793,64d2fd46c836a06233681665,64dc7e971272034764be896c,,,,,,,sngl,resources/Empty.png,resources/DY.BMP,Door1,0.155555556,-0.003703732,1,0,0,0.5938,optionRight,30,8400,4,19,0,19,0,1,,,,,,,,,,,,,,,,,,,,,,,,,,,,,,,,,,,,,,,
,,,,,,,,2023-08-16_08h46.11.712,HF_wild_card,2022.2.4,Win32,60.0132029,5f9eab308e503705011ad793,64d2fd46c836a06233681665,64dc7e971272034764be896c,,,,,,,decisionTrl,resources/DB.BMP,resources/DR.BMP,Door3,-0.177777778,0.016666667,1,0,0,0.7964,optionLeft,70,8470,4,20,0,20,0,1,,,,,,,,,,,,,,,,,,,,,,,,,,,,,,,,,,,,,,,
,,,,,,,,2023-08-16_08h46.11.712,HF_wild_card,2022.2.4,Win32,60.0132029,5f9eab308e503705011ad793,64d2fd46c836a06233681665,64dc7e971272034764be896c,,,,,,,sngl,resources/DB.BMP,resources/Empty.png,Door3,-0.197222222,-0.010185199,1,0,0,0.5484,optionLeft,70,8540,4,21,0,21,0,1,,,,,,,,,,,,,,,,,,,,,,,,,,,,,,,,,,,,,,,
,,,,,,,,2023-08-16_08h46.11.712,HF_wild_card,2022.2.4,Win32,60.0132029,5f9eab308e503705011ad793,64d2fd46c836a06233681665,64dc7e971272034764be896c,,,,,,,sngl,resources/Empty.png,resources/DR.BMP,Door4,0.255555556,-0.012962977,1,0,0,0.5434,optionRight,80,8620,4,22,0,22,0,1,,,,,,,,,,,,,,,,,,,,,,,,,,,,,,,,,,,,,,,
,,,,,,,,2023-08-16_08h46.11.712,HF_wild_card,2022.2.4,Win32,60.0132029,5f9eab308e503705011ad793,64d2fd46c836a06233681665,64dc7e971272034764be896c,,,,,,,decisionTrl,resources/DR.BMP,resources/DB.BMP,Door3,0.311111111,0.005555556,1,0,0,1.1449,optionRight,70,8690,4,23,0,23,0,1,,,,,,,,,,,,,,,,,,,,,,,,,,,,,,,,,,,,,,,
,,,,,,,,2023-08-16_08h46.11.712,HF_wild_card,2022.2.4,Win32,60.0132029,5f9eab308e503705011ad793,64d2fd46c836a06233681665,64dc7e971272034764be896c,,,,,,,decisionTrl,resources/DP.BMP,resources/DY.BMP,WildCard_Ex,-0.263888889,0.024074046,1,0,0,1.0139,optionLeft,55,8745,4,24,0,24,0,1,,,,,,,,,,,,,,,,,,,,,,,,,,,,,,,,,,,,,,,
,,,,,,,,2023-08-16_08h46.11.712,HF_wild_card,2022.2.4,Win32,60.0132029,5f9eab308e503705011ad793,64d2fd46c836a06233681665,64dc7e971272034764be896c,,,,,,,ctch,resources/DBN.BMP,resources/DB.BMP,Door3,0.247222222,0.012037023,1,0,0,0.6764,optionRight,70,8815,4,25,0,25,0,1,,,,,,,,,,,,,,,,,,,,,,,,,,,,,,,,,,,,,,,
,,,,,,,,2023-08-16_08h46.11.712,HF_wild_card,2022.2.4,Win32,60.0132029,5f9eab308e503705011ad793,64d2fd46c836a06233681665,64dc7e971272034764be896c,,,,,,,decisionTrl,resources/DBN.BMP,resources/DY.BMP,Door1,0.137037065,0.019444444,1,0,0,0.7125,optionRight,30,8845,4,26,0,26,0,1,,,,,,,,,,,,,,,,,,,,,,,,,,,,,,,,,,,,,,,
,,,,,,,,2023-08-16_08h46.11.712,HF_wild_card,2022.2.4,Win32,60.0132029,5f9eab308e503705011ad793,64d2fd46c836a06233681665,64dc7e971272034764be896c,,,,,,,sngl,resources/DR.BMP,resources/Empty.png,Door4,-0.194444444,0.013888889,1,0,0,0.5917,optionLeft,60,8905,4,27,0,27,0,1,,,,,,,,,,,,,,,,,,,,,,,,,,,,,,,,,,,,,,,
,,,,,,,,2023-08-16_08h46.11.712,HF_wild_card,2022.2.4,Win32,60.0132029,5f9eab308e503705011ad793,64d2fd46c836a06233681665,64dc7e971272034764be896c,,,,,,,decisionTrl,resources/DBN.BMP,resources/DY.BMP,Door1,0.187963019,-0.009259288,1,0,0,0.8614,optionRight,30,8935,4,28,0,28,0,1,,,,,,,,,,,,,,,,,,,,,,,,,,,,,,,,,,,,,,,
,,,,,,,,2023-08-16_08h46.11.712,HF_wild_card,2022.2.4,Win32,60.0132029,5f9eab308e503705011ad793,64d2fd46c836a06233681665,64dc7e971272034764be896c,,,,,,,decisionTrl,resources/DY.BMP,resources/DBN.BMP,Door1,-0.225,-0.003703732,1,0,0,0.7787,optionLeft,30,8965,4,29,0,29,0,1,,,,,,,,,,,,,,,,,,,,,,,,,,,,,,,,,,,,,,,
,,,,,,,,2023-08-16_08h46.11.712,HF_wild_card,2022.2.4,Win32,60.0132029,5f9eab308e503705011ad793,64d2fd46c836a06233681665,64dc7e971272034764be896c,,,,,,,decisionTrl,resources/DBN.BMP,resources/DY.BMP,Door1,0.151851908,0.008333333,1,0,0,0.7446,optionRight,30,8995,4,30,0,30,0,1,,,,,,,,,,,,,,,,,,,,,,,,,,,,,,,,,,,,,,,
,,,,,,,,2023-08-16_08h46.11.712,HF_wild_card,2022.2.4,Win32,60.0132029,5f9eab308e503705011ad793,64d2fd46c836a06233681665,64dc7e971272034764be896c,,,,,,,decisionTrl,resources/DY.BMP,resources/DBN.BMP,Door1,-0.162036981,0.006481467,1,0,0,0.6306,optionLeft,30,9025,4,31,0,31,0,1,,,,,,,,,,,,,,,,,,,,,,,,,,,,,,,,,,,,,,,
,,,,,,,,2023-08-16_08h46.11.712,HF_wild_card,2022.2.4,Win32,60.0132029,5f9eab308e503705011ad793,64d2fd46c836a06233681665,64dc7e971272034764be896c,,,,,,,ctch,resources/DB.BMP,resources/DBN.BMP,Door3,-0.187037023,0.005555556,1,0,0,0.7111,optionLeft,70,9095,4,32,0,32,0,1,,,,,,,,,,,,,,,,,,,,,,,,,,,,,,,,,,,,,,,
,,,,,,,,2023-08-16_08h46.11.712,HF_wild_card,2022.2.4,Win32,60.0132029,5f9eab308e503705011ad793,64d2fd46c836a06233681665,64dc7e971272034764be896c,,,,,,,ctch,resources/DB.BMP,resources/DBN.BMP,Door3,-0.113888889,-0.025925954,1,0,0,0.6316,optionLeft,70,9165,4,33,0,33,0,1,,,,,,,,,,,,,,,,,,,,,,,,,,,,,,,,,,,,,,,
,,,,,,,,2023-08-16_08h46.11.712,HF_wild_card,2022.2.4,Win32,60.0132029,5f9eab308e503705011ad793,64d2fd46c836a06233681665,64dc7e971272034764be896c,,,,,,,sngl,resources/DBN.BMP,resources/Empty.png,Door2,-0.138888889,-0.036111111,1,0,0,0.6275,optionLeft,20,9185,4,34,0,34,0,1,,,,,,,,,,,,,,,,,,,,,,,,,,,,,,,,,,,,,,,
,,,,,,,,2023-08-16_08h46.11.712,HF_wild_card,2022.2.4,Win32,60.0132029,5f9eab308e503705011ad793,64d2fd46c836a06233681665,64dc7e971272034764be896c,,,,,,,ctch,resources/DY.BMP,resources/DR.BMP,Door1,-0.169444444,-0.034259288,1,0,0,0.6481,optionLeft,30,9215,4,35,0,35,0,1,,,,,,,,,,,,,,,,,,,,,,,,,,,,,,,,,,,,,,,
,,,,,,,,2023-08-16_08h46.11.712,HF_wild_card,2022.2.4,Win32,60.0132029,5f9eab308e503705011ad793,64d2fd46c836a06233681665,64dc7e971272034764be896c,,,,,,,decisionTrl,resources/DB.BMP,resources/DP.BMP,Door3,-0.125925869,-0.028703732,1,0,0,1.1282,optionLeft,70,9285,4,36,0,36,0,1,,,,,,,,,,,,,,,,,,,,,,,,,,,,,,,,,,,,,,,
,,,,,,,,2023-08-16_08h46.11.712,HF_wild_card,2022.2.4,Win32,60.0132029,5f9eab308e503705011ad793,64d2fd46c836a06233681665,64dc7e971272034764be896c,,,,,,,decisionTrl,resources/DP.BMP,resources/DB.BMP,Door3,0.152777778,-0.001851866,1,0,0,1.0104,optionRight,70,9355,4,37,0,37,0,1,,,,,,,,,,,,,,,,,,,,,,,,,,,,,,,,,,,,,,,
,,,,,,,,2023-08-16_08h46.11.712,HF_wild_card,2022.2.4,Win32,60.0132029,5f9eab308e503705011ad793,64d2fd46c836a06233681665,64dc7e971272034764be896c,,,,,,,sngl,resources/DY.BMP,resources/Empty.png,Door1,-0.20370369,-0.001851866,1,0,0,0.6141,optionLeft,30,9385,4,38,0,38,0,1,,,,,,,,,,,,,,,,,,,,,,,,,,,,,,,,,,,,,,,
,,,,,,,,2023-08-16_08h46.11.712,HF_wild_card,2022.2.4,Win32,60.0132029,5f9eab308e503705011ad793,64d2fd46c836a06233681665,64dc7e971272034764be896c,,,,,,,decisionTrl,resources/DP.BMP,resources/DBN.BMP,WildCard_Ex,-0.17870369,-0.013888889,1,0,0,0.9604,optionLeft,55,9440,4,39,0,39,0,1,,,,,,,,,,,,,,,,,,,,,,,,,,,,,,,,,,,,,,,
,,,,,,,,2023-08-16_08h46.11.712,HF_wild_card,2022.2.4,Win32,60.0132029,5f9eab308e503705011ad793,64d2fd46c836a06233681665,64dc7e971272034764be896c,,,,,,,sngl,resources/DP.BMP,resources/Empty.png,WildCard_Ex,-0.112962935,-0.024074088,1,0,0,0.5616,optionLeft,55,9495,4,40,0,40,0,1,,,,,,,,,,,,,,,,,,,,,,,,,,,,,,,,,,,,,,,
,,,,,,,,2023-08-16_08h46.11.712,HF_wild_card,2022.2.4,Win32,60.0132029,5f9eab308e503705011ad793,64d2fd46c836a06233681665,64dc7e971272034764be896c,,,,,,,sngl,resources/Empty.png,resources/DP.BMP,WildCard_Ex,0.185185242,-0.014814843,1,0,0,0.5617,optionRight,45,9540,4,41,0,41,0,1,,,,,,,,,,,,,,,,,,,,,,,,,,,,,,,,,,,,,,,
,,,,,,,,2023-08-16_08h46.11.712,HF_wild_card,2022.2.4,Win32,60.0132029,5f9eab308e503705011ad793,64d2fd46c836a06233681665,64dc7e971272034764be896c,,,,,,,ctch,resources/DR.BMP,resources/DY.BMP,Door4,-0.175925869,0.004629601,1,0,0,0.9438,optionLeft,80,9620,4,42,0,42,0,1,,,,,,,,,,,,,,,,,,,,,,,,,,,,,,,,,,,,,,,
,,,,,,,,2023-08-16_08h46.11.712,HF_wild_card,2022.2.4,Win32,60.0132029,5f9eab308e503705011ad793,64d2fd46c836a06233681665,64dc7e971272034764be896c,,,,,,,decisionTrl,resources/DB.BMP,resources/DR.BMP,Door3,-0.150925869,0.019444444,1,0,0,0.7301,optionLeft,70,9690,4,43,0,43,0,1,,,,,,,,,,,,,,,,,,,,,,,,,,,,,,,,,,,,,,,
,,,,,,,,2023-08-16_08h46.11.712,HF_wild_card,2022.2.4,Win32,60.0132029,5f9eab308e503705011ad793,64d2fd46c836a06233681665,64dc7e971272034764be896c,,,,,,,,,,,,,,,,,,,,,,,,,,3,0,3,0,1,,,,,,,,,,,,,,,,,,,,,,,,,,,,,,,,,,
,,,,,,,,2023-08-16_08h46.11.712,HF_wild_card,2022.2.4,Win32,60.0132029,5f9eab308e503705011ad793,64d2fd46c836a06233681665,64dc7e971272034764be896c,,,,,,,decisionTrl,resources/DP.BMP,resources/DY.BMP,WildCard_Ex,-0.195370356,-0.033333333,1,0,0,1.2371,optionLeft,45,9735,5,0,0,0,0,1,,,,,,,,,,,,,,,,,,,,,,,,,,,,,,,,,,,,,,,
,,,,,,,,2023-08-16_08h46.11.712,HF_wild_card,2022.2.4,Win32,60.0132029,5f9eab308e503705011ad793,64d2fd46c836a06233681665,64dc7e971272034764be896c,,,,,,,decisionTrl,resources/DY.BMP,resources/DBN.BMP,Door1,-0.114814758,-0.009259288,1,0,0,0.5959,optionLeft,30,9765,5,1,0,1,0,1,,,,,,,,,,,,,,,,,,,,,,,,,,,,,,,,,,,,,,,
,,,,,,,,2023-08-16_08h46.11.712,HF_wild_card,2022.2.4,Win32,60.0132029,5f9eab308e503705011ad793,64d2fd46c836a06233681665,64dc7e971272034764be896c,,,,,,,decisionTrl,resources/DP.BMP,resources/DB.BMP,WildCard_Ex,-0.099074046,0.006481467,1,0,0,0.677,optionLeft,45,9810,5,2,0,2,0,1,,,,,,,,,,,,,,,,,,,,,,,,,,,,,,,,,,,,,,,
,,,,,,,,2023-08-16_08h46.11.712,HF_wild_card,2022.2.4,Win32,60.0132029,5f9eab308e503705011ad793,64d2fd46c836a06233681665,64dc7e971272034764be896c,,,,,,,decisionTrl,resources/DP.BMP,resources/DBN.BMP,WildCard_Ex,-0.225925912,-0.00648151,1,0,0,0.9333,optionLeft,45,9855,5,3,0,3,0,1,,,,,,,,,,,,,,,,,,,,,,,,,,,,,,,,,,,,,,,
,,,,,,,,2023-08-16_08h46.11.712,HF_wild_card,2022.2.4,Win32,60.0132029,5f9eab308e503705011ad793,64d2fd46c836a06233681665,64dc7e971272034764be896c,,,,,,,decisionTrl,resources/DY.BMP,resources/DBN.BMP,Door1,-0.190740712,-0.013888889,1,0,0,0.6594,optionLeft,30,9885,5,4,0,4,0,1,,,,,,,,,,,,,,,,,,,,,,,,,,,,,,,,,,,,,,,
,,,,,,,,2023-08-16_08h46.11.712,HF_wild_card,2022.2.4,Win32,60.0132029,5f9eab308e503705011ad793,64d2fd46c836a06233681665,64dc7e971272034764be896c,,,,,,,ctch,resources/DB.BMP,resources/DBN.BMP,Door3,-0.127777778,-0.024074088,1,0,0,0.7282,optionLeft,70,9955,5,5,0,5,0,1,,,,,,,,,,,,,,,,,,,,,,,,,,,,,,,,,,,,,,,
,,,,,,,,2023-08-16_08h46.11.712,HF_wild_card,2022.2.4,Win32,60.0132029,5f9eab308e503705011ad793,64d2fd46c836a06233681665,64dc7e971272034764be896c,,,,,,,decisionTrl,resources/DY.BMP,resources/DBN.BMP,Door1,-0.121296268,-0.008333333,1,0,0,0.9972,optionLeft,30,9985,5,6,0,6,0,1,,,,,,,,,,,,,,,,,,,,,,,,,,,,,,,,,,,,,,,
,,,,,,,,2023-08-16_08h46.11.712,HF_wild_card,2022.2.4,Win32,60.0132029,5f9eab308e503705011ad793,64d2fd46c836a06233681665,64dc7e971272034764be896c,,,,,,,decisionTrl,resources/DBN.BMP,resources/DY.BMP,Door1,0.208333333,0.022222222,1,0,0,0.8483,optionRight,30,10015,5,7,0,7,0,1,,,,,,,,,,,,,,,,,,,,,,,,,,,,,,,,,,,,,,,
,,,,,,,,2023-08-16_08h46.11.712,HF_wild_card,2022.2.4,Win32,60.0132029,5f9eab308e503705011ad793,64d2fd46c836a06233681665,64dc7e971272034764be896c,,,,,,,sngl,resources/Empty.png,resources/DP.BMP,WildCard_Ex,0.146296353,0.00370369,1,0,0,0.6136,optionRight,55,10070,5,8,0,8,0,1,,,,,,,,,,,,,,,,,,,,,,,,,,,,,,,,,,,,,,,
,,,,,,,,2023-08-16_08h46.11.712,HF_wild_card,2022.2.4,Win32,60.0132029,5f9eab308e503705011ad793,64d2fd46c836a06233681665,64dc7e971272034764be896c,,,,,,,ctch,resources/DR.BMP,resources/DY.BMP,Door4,-0.248148134,-0.005555556,1,0,0,0.8491,optionLeft,60,10130,5,9,0,9,0,1,,,,,,,,,,,,,,,,,,,,,,,,,,,,,,,,,,,,,,,
,,,,,,,,2023-08-16_08h46.11.712,HF_wild_card,2022.2.4,Win32,60.0132029,5f9eab308e503705011ad793,64d2fd46c836a06233681665,64dc7e971272034764be896c,,,,,,,decisionTrl,resources/DB.BMP,resources/DP.BMP,Door3,-0.259259245,-0.001851866,1,0,0,0.9318,optionLeft,70,10200,5,10,0,10,0,1,,,,,,,,,,,,,,,,,,,,,,,,,,,,,,,,,,,,,,,
,,,,,,,,2023-08-16_08h46.11.712,HF_wild_card,2022.2.4,Win32,60.0132029,5f9eab308e503705011ad793,64d2fd46c836a06233681665,64dc7e971272034764be896c,,,,,,,ctch,resources/DB.BMP,resources/DBN.BMP,Door3,-0.146296268,-0.001851866,1,0,0,0.6452,optionLeft,70,10270,5,11,0,11,0,1,,,,,,,,,,,,,,,,,,,,,,,,,,,,,,,,,,,,,,,
,,,,,,,,2023-08-16_08h46.11.712,HF_wild_card,2022.2.4,Win32,60.0132029,5f9eab308e503705011ad793,64d2fd46c836a06233681665,64dc7e971272034764be896c,,,,,,,decisionTrl,resources/DB.BMP,resources/DR.BMP,Door3,-0.127777778,-0.059259288,1,0,0,1.594,optionLeft,70,10340,5,12,0,12,0,1,,,,,,,,,,,,,,,,,,,,,,,,,,,,,,,,,,,,,,,
,,,,,,,,2023-08-16_08h46.11.712,HF_wild_card,2022.2.4,Win32,60.0132029,5f9eab308e503705011ad793,64d2fd46c836a06233681665,64dc7e971272034764be896c,,,,,,,ctch,resources/DR.BMP,resources/DY.BMP,Door4,-0.128703647,0.023148134,1,0,0,0.8971,optionLeft,60,10400,5,13,0,13,0,1,,,,,,,,,,,,,,,,,,,,,,,,,,,,,,,,,,,,,,,
,,,,,,,,2023-08-16_08h46.11.712,HF_wild_card,2022.2.4,Win32,60.0132029,5f9eab308e503705011ad793,64d2fd46c836a06233681665,64dc7e971272034764be896c,,,,,,,decisionTrl,resources/DR.BMP,resources/DB.BMP,Door3,0.144444444,-0.026851866,1,0,0,2.6308,optionRight,70,10470,5,14,0,14,0,1,,,,,,,,,,,,,,,,,,,,,,,,,,,,,,,,,,,,,,,
,,,,,,,,2023-08-16_08h46.11.712,HF_wild_card,2022.2.4,Win32,60.0132029,5f9eab308e503705011ad793,64d2fd46c836a06233681665,64dc7e971272034764be896c,,,,,,,sngl,resources/DP.BMP,resources/Empty.png,WildCard_Ex,-0.198148134,-0.005555556,1,0,0,0.5441,optionLeft,55,10525,5,15,0,15,0,1,,,,,,,,,,,,,,,,,,,,,,,,,,,,,,,,,,,,,,,
,,,,,,,,2023-08-16_08h46.11.712,HF_wild_card,2022.2.4,Win32,60.0132029,5f9eab308e503705011ad793,64d2fd46c836a06233681665,64dc7e971272034764be896c,,,,,,,sngl,resources/Empty.png,resources/DBN.BMP,Door2,0.151851908,-0.015740755,1,0,0,0.7274,optionRight,20,10545,5,16,0,16,0,1,,,,,,,,,,,,,,,,,,,,,,,,,,,,,,,,,,,,,,,
,,,,,,,,2023-08-16_08h46.11.712,HF_wild_card,2022.2.4,Win32,60.0132029,5f9eab308e503705011ad793,64d2fd46c836a06233681665,64dc7e971272034764be896c,,,,,,,decisionTrl,resources/DB.BMP,resources/DR.BMP,Door3,-0.158333333,-0.007407422,1,0,0,0.7125,optionLeft,70,10615,5,17,0,17,0,1,,,,,,,,,,,,,,,,,,,,,,,,,,,,,,,,,,,,,,,
,,,,,,,,2023-08-16_08h46.11.712,HF_wild_card,2022.2.4,Win32,60.0132029,5f9eab308e503705011ad793,64d2fd46c836a06233681665,64dc7e971272034764be896c,,,,,,,decisionTrl,resources/DR.BMP,resources/DB.BMP,Door3,0.209259288,-0.00648151,1,0,0,1.4104,optionRight,70,10685,5,18,0,18,0,1,,,,,,,,,,,,,,,,,,,,,,,,,,,,,,,,,,,,,,,
,,,,,,,,2023-08-16_08h46.11.712,HF_wild_card,2022.2.4,Win32,60.0132029,5f9eab308e503705011ad793,64d2fd46c836a06233681665,64dc7e971272034764be896c,,,,,,,decisionTrl,resources/DY.BMP,resources/DBN.BMP,Door1,-0.137962935,-0.008333333,1,0,0,1.3957,optionLeft,30,10715,5,19,0,19,0,1,,,,,,,,,,,,,,,,,,,,,,,,,,,,,,,,,,,,,,,
,,,,,,,,2023-08-16_08h46.11.712,HF_wild_card,2022.2.4,Win32,60.0132029,5f9eab308e503705011ad793,64d2fd46c836a06233681665,64dc7e971272034764be896c,,,,,,,ctch,resources/DBN.BMP,resources/DB.BMP,Door3,0.141666667,-0.008333333,1,0,0,0.7688,optionRight,70,10785,5,20,0,20,0,1,,,,,,,,,,,,,,,,,,,,,,,,,,,,,,,,,,,,,,,
,,,,,,,,2023-08-16_08h46.11.712,HF_wild_card,2022.2.4,Win32,60.0132029,5f9eab308e503705011ad793,64d2fd46c836a06233681665,64dc7e971272034764be896c,,,,,,,sngl,resources/Empty.png,resources/DR.BMP,Door4,0.164814843,0.032407379,1,0,0,0.5601,optionRight,60,10845,5,21,0,21,0,1,,,,,,,,,,,,,,,,,,,,,,,,,,,,,,,,,,,,,,,
,,,,,,,,2023-08-16_08h46.11.712,HF_wild_card,2022.2.4,Win32,60.0132029,5f9eab308e503705011ad793,64d2fd46c836a06233681665,64dc7e971272034764be896c,,,,,,,sngl,resources/DBN.BMP,resources/Empty.png,Door2,-0.186111111,0.005555556,1,0,0,0.5805,optionLeft,40,10885,5,22,0,22,0,1,,,,,,,,,,,,,,,,,,,,,,,,,,,,,,,,,,,,,,,
,,,,,,,,2023-08-16_08h46.11.712,HF_wild_card,2022.2.4,Win32,60.0132029,5f9eab308e503705011ad793,64d2fd46c836a06233681665,64dc7e971272034764be896c,,,,,,,sngl,resources/DP.BMP,resources/Empty.png,WildCard_Ex,-0.11851849,-0.004629644,1,0,0,0.614,optionLeft,45,10930,5,23,0,23,0,1,,,,,,,,,,,,,,,,,,,,,,,,,,,,,,,,,,,,,,,
,,,,,,,,2023-08-16_08h46.11.712,HF_wild_card,2022.2.4,Win32,60.0132029,5f9eab308e503705011ad793,64d2fd46c836a06233681665,64dc7e971272034764be896c,,,,,,,sngl,resources/DB.BMP,resources/Empty.png,Door3,-0.147222222,-0.002777778,1,0,0,0.5285,optionLeft,70,11000,5,24,0,24,0,1,,,,,,,,,,,,,,,,,,,,,,,,,,,,,,,,,,,,,,,
,,,,,,,,2023-08-16_08h46.11.712,HF_wild_card,2022.2.4,Win32,60.0132029,5f9eab308e503705011ad793,64d2fd46c836a06233681665,64dc7e971272034764be896c,,,,,,,decisionTrl,resources/DP.BMP,resources/DR.BMP,Door4,0.3,0.004629601,1,0,0,0.9954,optionRight,60,11060,5,25,0,25,0,1,,,,,,,,,,,,,,,,,,,,,,,,,,,,,,,,,,,,,,,
,,,,,,,,2023-08-16_08h46.11.712,HF_wild_card,2022.2.4,Win32,60.0132029,5f9eab308e503705011ad793,64d2fd46c836a06233681665,64dc7e971272034764be896c,,,,,,,decisionTrl,resources/DY.BMP,resources/DP.BMP,WildCard_Ex,0.180555556,0.005555556,1,0,0,1.0487,optionRight,45,11105,5,26,0,26,0,1,,,,,,,,,,,,,,,,,,,,,,,,,,,,,,,,,,,,,,,
,,,,,,,,2023-08-16_08h46.11.712,HF_wild_card,2022.2.4,Win32,60.0132029,5f9eab308e503705011ad793,64d2fd46c836a06233681665,64dc7e971272034764be896c,,,,,,,ctch,resources/DBN.BMP,resources/DB.BMP,Door3,0.138888889,-0.009259288,1,0,0,0.5979,optionRight,70,11175,5,27,0,27,0,1,,,,,,,,,,,,,,,,,,,,,,,,,,,,,,,,,,,,,,,
,,,,,,,,2023-08-16_08h46.11.712,HF_wild_card,2022.2.4,Win32,60.0132029,5f9eab308e503705011ad793,64d2fd46c836a06233681665,64dc7e971272034764be896c,,,,,,,decisionTrl,resources/DBN.BMP,resources/DY.BMP,Door1,0.163888889,-0.00648151,1,0,0,0.8688,optionRight,30,11205,5,28,0,28,0,1,,,,,,,,,,,,,,,,,,,,,,,,,,,,,,,,,,,,,,,
,,,,,,,,2023-08-16_08h46.11.712,HF_wild_card,2022.2.4,Win32,60.0132029,5f9eab308e503705011ad793,64d2fd46c836a06233681665,64dc7e971272034764be896c,,,,,,,decisionTrl,resources/DR.BMP,resources/DB.BMP,Door3,0.212963019,-0.009259288,1,0,0,1.1982,optionRight,70,11275,5,29,0,29,0,1,,,,,,,,,,,,,,,,,,,,,,,,,,,,,,,,,,,,,,,
,,,,,,,,2023-08-16_08h46.11.712,HF_wild_card,2022.2.4,Win32,60.0132029,5f9eab308e503705011ad793,64d2fd46c836a06233681665,64dc7e971272034764be896c,,,,,,,sngl,resources/Empty.png,resources/DY.BMP,Door1,0.13148151,-0.012962977,1,0,0,0.5474,optionRight,30,11305,5,30,0,30,0,1,,,,,,,,,,,,,,,,,,,,,,,,,,,,,,,,,,,,,,,
,,,,,,,,2023-08-16_08h46.11.712,HF_wild_card,2022.2.4,Win32,60.0132029,5f9eab308e503705011ad793,64d2fd46c836a06233681665,64dc7e971272034764be896c,,,,,,,ctch,resources/DY.BMP,resources/DR.BMP,Door4,0.13148151,-0.012962977,1,0,0,0.5972,optionRight,80,11385,5,31,0,31,0,1,,,,,,,,,,,,,,,,,,,,,,,,,,,,,,,,,,,,,,,
,,,,,,,,2023-08-16_08h46.11.712,HF_wild_card,2022.2.4,Win32,60.0132029,5f9eab308e503705011ad793,64d2fd46c836a06233681665,64dc7e971272034764be896c,,,,,,,decisionTrl,resources/DR.BMP,resources/DP.BMP,Door4,-0.107407379,-0.005555556,1,0,0,0.8788,optionLeft,60,11445,5,32,0,32,0,1,,,,,,,,,,,,,,,,,,,,,,,,,,,,,,,,,,,,,,,
,,,,,,,,2023-08-16_08h46.11.712,HF_wild_card,2022.2.4,Win32,60.0132029,5f9eab308e503705011ad793,64d2fd46c836a06233681665,64dc7e971272034764be896c,,,,,,,decisionTrl,resources/DBN.BMP,resources/DY.BMP,Door1,0.120370399,0.00370369,1,0,0,0.6291,optionRight,30,11475,5,33,0,33,0,1,,,,,,,,,,,,,,,,,,,,,,,,,,,,,,,,,,,,,,,
,,,,,,,,2023-08-16_08h46.11.712,HF_wild_card,2022.2.4,Win32,60.0132029,5f9eab308e503705011ad793,64d2fd46c836a06233681665,64dc7e971272034764be896c,,,,,,,ctch,resources/DY.BMP,resources/DR.BMP,Door4,0.114814843,-0.005555556,1,0,0,0.5639,optionRight,60,11535,5,34,0,34,0,1,,,,,,,,,,,,,,,,,,,,,,,,,,,,,,,,,,,,,,,
,,,,,,,,2023-08-16_08h46.11.712,HF_wild_card,2022.2.4,Win32,60.0132029,5f9eab308e503705011ad793,64d2fd46c836a06233681665,64dc7e971272034764be896c,,,,,,,decisionTrl,resources/DBN.BMP,resources/DP.BMP,WildCard_Ex,0.097222222,-0.003703732,1,0,0,0.6132,optionRight,55,11590,5,35,0,35,0,1,,,,,,,,,,,,,,,,,,,,,,,,,,,,,,,,,,,,,,,
,,,,,,,,2023-08-16_08h46.11.712,HF_wild_card,2022.2.4,Win32,60.0132029,5f9eab308e503705011ad793,64d2fd46c836a06233681665,64dc7e971272034764be896c,,,,,,,sngl,resources/Empty.png,resources/DB.BMP,Door3,0.117592621,-0.000925954,1,0,0,0.5613,optionRight,70,11660,5,36,0,36,0,1,,,,,,,,,,,,,,,,,,,,,,,,,,,,,,,,,,,,,,,
,,,,,,,,2023-08-16_08h46.11.712,HF_wild_card,2022.2.4,Win32,60.0132029,5f9eab308e503705011ad793,64d2fd46c836a06233681665,64dc7e971272034764be896c,,,,,,,decisionTrl,resources/DBN.BMP,resources/DY.BMP,Door1,0.113888889,-0.001851866,1,0,0,0.7132,optionRight,30,11690,5,37,0,37,0,1,,,,,,,,,,,,,,,,,,,,,,,,,,,,,,,,,,,,,,,
,,,,,,,,2023-08-16_08h46.11.712,HF_wild_card,2022.2.4,Win32,60.0132029,5f9eab308e503705011ad793,64d2fd46c836a06233681665,64dc7e971272034764be896c,,,,,,,decisionTrl,resources/DB.BMP,resources/DR.BMP,Door3,-0.169444444,-0.015740755,1,0,0,0.7615,optionLeft,70,11760,5,38,0,38,0,1,,,,,,,,,,,,,,,,,,,,,,,,,,,,,,,,,,,,,,,
,,,,,,,,2023-08-16_08h46.11.712,HF_wild_card,2022.2.4,Win32,60.0132029,5f9eab308e503705011ad793,64d2fd46c836a06233681665,64dc7e971272034764be896c,,,,,,,sngl,resources/DY.BMP,resources/Empty.png,Door1,-0.14351849,0.006481467,1,0,0,0.5774,optionLeft,30,11790,5,39,0,39,0,1,,,,,,,,,,,,,,,,,,,,,,,,,,,,,,,,,,,,,,,
,,,,,,,,2023-08-16_08h46.11.712,HF_wild_card,2022.2.4,Win32,60.0132029,5f9eab308e503705011ad793,64d2fd46c836a06233681665,64dc7e971272034764be896c,,,,,,,decisionTrl,resources/DB.BMP,resources/DR.BMP,Door3,-0.169444444,0.00370369,1,0,0,0.6273,optionLeft,70,11860,5,40,0,40,0,1,,,,,,,,,,,,,,,,,,,,,,,,,,,,,,,,,,,,,,,
,,,,,,,,2023-08-16_08h46.11.712,HF_wild_card,2022.2.4,Win32,60.0132029,5f9eab308e503705011ad793,64d2fd46c836a06233681665,64dc7e971272034764be896c,,,,,,,sngl,resources/DR.BMP,resources/Empty.png,Door4,-0.112036981,0,1,0,0,0.5272,optionLeft,80,11940,5,41,0,41,0,1,,,,,,,,,,,,,,,,,,,,,,,,,,,,,,,,,,,,,,,
,,,,,,,,2023-08-16_08h46.11.712,HF_wild_card,2022.2.4,Win32,60.0132029,5f9eab308e503705011ad793,64d2fd46c836a06233681665,64dc7e971272034764be896c,,,,,,,decisionTrl,resources/DR.BMP,resources/DB.BMP,Door3,0.184259288,0.00370369,1,0,0,0.7273,optionRight,70,12010,5,42,0,42,0,1,,,,,,,,,,,,,,,,,,,,,,,,,,,,,,,,,,,,,,,
,,,,,,,,2023-08-16_08h46.11.712,HF_wild_card,2022.2.4,Win32,60.0132029,5f9eab308e503705011ad793,64d2fd46c836a06233681665,64dc7e971272034764be896c,,,,,,,sngl,resources/Empty.png,resources/DP.BMP,WildCard_Ex,0.117592621,-0.005555556,1,0,0,0.5464,optionRight,45,12055,5,43,0,43,0,1,,,,,,,,,,,,,,,,,,,,,,,,,,,,,,,,,,,,,,,
,,,,,,,,2023-08-16_08h46.11.712,HF_wild_card,2022.2.4,Win32,60.0132029,5f9eab308e503705011ad793,64d2fd46c836a06233681665,64dc7e971272034764be896c,,,,,,,,,,,,,,,,,,,,,,,,,,4,0,4,0,1,,,,,,,,,,,,,,,,,,,,,,,,,,,,,,,,,,
,,,,,,,,2023-08-16_08h46.11.712,HF_wild_card,2022.2.4,Win32,60.0132029,5f9eab308e503705011ad793,64d2fd46c836a06233681665,64dc7e971272034764be896c,,,,,,,decisionTrl,resources/DP.BMP,resources/DR.BMP,Door4,0.250925954,-0.054629644,1,0,0,1.3623,optionRight,80,12135,6,0,0,0,0,1,,,,,,,,,,,,,,,,,,,,,,,,,,,,,,,,,,,,,,,
,,,,,,,,2023-08-16_08h46.11.712,HF_wild_card,2022.2.4,Win32,60.0132029,5f9eab308e503705011ad793,64d2fd46c836a06233681665,64dc7e971272034764be896c,,,,,,,ctch,resources/DR.BMP,resources/DY.BMP,Door4,-0.190740712,-0.008333333,1,0,0,0.7269,optionLeft,60,12195,6,1,0,1,0,1,,,,,,,,,,,,,,,,,,,,,,,,,,,,,,,,,,,,,,,
,,,,,,,,2023-08-16_08h46.11.712,HF_wild_card,2022.2.4,Win32,60.0132029,5f9eab308e503705011ad793,64d2fd46c836a06233681665,64dc7e971272034764be896c,,,,,,,decisionTrl,resources/DB.BMP,resources/DP.BMP,Door3,-0.21851849,0.008333333,1,0,0,1.1803,optionLeft,70,12265,6,2,0,2,0,1,,,,,,,,,,,,,,,,,,,,,,,,,,,,,,,,,,,,,,,
,,,,,,,,2023-08-16_08h46.11.712,HF_wild_card,2022.2.4,Win32,60.0132029,5f9eab308e503705011ad793,64d2fd46c836a06233681665,64dc7e971272034764be896c,,,,,,,ctch,resources/DB.BMP,resources/DBN.BMP,Door3,-0.220370356,0.020370356,1,0,0,0.7466,optionLeft,70,12335,6,3,0,3,0,1,,,,,,,,,,,,,,,,,,,,,,,,,,,,,,,,,,,,,,,
,,,,,,,,2023-08-16_08h46.11.712,HF_wild_card,2022.2.4,Win32,60.0132029,5f9eab308e503705011ad793,64d2fd46c836a06233681665,64dc7e971272034764be896c,,,,,,,sngl,resources/DP.BMP,resources/Empty.png,WildCard_Ex,-0.210185157,-0.013888889,1,0,0,0.5615,optionLeft,55,12390,6,4,0,4,0,1,,,,,,,,,,,,,,,,,,,,,,,,,,,,,,,,,,,,,,,
,,,,,,,,2023-08-16_08h46.11.712,HF_wild_card,2022.2.4,Win32,60.0132029,5f9eab308e503705011ad793,64d2fd46c836a06233681665,64dc7e971272034764be896c,,,,,,,decisionTrl,resources/DBN.BMP,resources/DY.BMP,Door1,0.159259288,0.017592578,1,0,0,0.9293,optionRight,30,12420,6,5,0,5,0,1,,,,,,,,,,,,,,,,,,,,,,,,,,,,,,,,,,,,,,,
,,,,,,,,2023-08-16_08h46.11.712,HF_wild_card,2022.2.4,Win32,60.0132029,5f9eab308e503705011ad793,64d2fd46c836a06233681665,64dc7e971272034764be896c,,,,,,,decisionTrl,resources/DP.BMP,resources/DBN.BMP,WildCard_Ex,-0.140740712,0,1,0,0,0.7809,optionLeft,55,12475,6,6,0,6,0,1,,,,,,,,,,,,,,,,,,,,,,,,,,,,,,,,,,,,,,,
,,,,,,,,2023-08-16_08h46.11.712,HF_wild_card,2022.2.4,Win32,60.0132029,5f9eab308e503705011ad793,64d2fd46c836a06233681665,64dc7e971272034764be896c,,,,,,,sngl,resources/DBN.BMP,resources/Empty.png,Door2,-0.326851824,-0.012037065,1,0,0,0.4975,optionLeft,20,12495,6,7,0,7,0,1,,,,,,,,,,,,,,,,,,,,,,,,,,,,,,,,,,,,,,,
,,,,,,,,2023-08-16_08h46.11.712,HF_wild_card,2022.2.4,Win32,60.0132029,5f9eab308e503705011ad793,64d2fd46c836a06233681665,64dc7e971272034764be896c,,,,,,,decisionTrl,resources/DY.BMP,resources/DBN.BMP,Door1,-0.204629601,-0.009259288,1,0,0,0.7449,optionLeft,30,12525,6,8,0,8,0,1,,,,,,,,,,,,,,,,,,,,,,,,,,,,,,,,,,,,,,,
,,,,,,,,2023-08-16_08h46.11.712,HF_wild_card,2022.2.4,Win32,60.0132029,5f9eab308e503705011ad793,64d2fd46c836a06233681665,64dc7e971272034764be896c,,,,,,,sngl,resources/DP.BMP,resources/Empty.png,WildCard_Ex,-0.133333333,-0.016666667,1,0,0,0.5165,optionLeft,45,12570,6,9,0,9,0,1,,,,,,,,,,,,,,,,,,,,,,,,,,,,,,,,,,,,,,,
,,,,,,,,2023-08-16_08h46.11.712,HF_wild_card,2022.2.4,Win32,60.0132029,5f9eab308e503705011ad793,64d2fd46c836a06233681665,64dc7e971272034764be896c,,,,,,,decisionTrl,resources/DB.BMP,resources/DR.BMP,Door3,-0.175925869,-0.007407422,1,0,0,1.3988,optionLeft,70,12640,6,10,0,10,0,1,,,,,,,,,,,,,,,,,,,,,,,,,,,,,,,,,,,,,,,
,,,,,,,,2023-08-16_08h46.11.712,HF_wild_card,2022.2.4,Win32,60.0132029,5f9eab308e503705011ad793,64d2fd46c836a06233681665,64dc7e971272034764be896c,,,,,,,decisionTrl,resources/DP.BMP,resources/DY.BMP,WildCard_Ex,-0.166666667,0.006481467,1,0,0,0.9599,optionLeft,55,12695,6,11,0,11,0,1,,,,,,,,,,,,,,,,,,,,,,,,,,,,,,,,,,,,,,,
,,,,,,,,2023-08-16_08h46.11.712,HF_wild_card,2022.2.4,Win32,60.0132029,5f9eab308e503705011ad793,64d2fd46c836a06233681665,64dc7e971272034764be896c,,,,,,,sngl,resources/Empty.png,resources/DP.BMP,WildCard_Ex,0.432407464,-0.055555556,1,0,0,0.5324,optionRight,55,12750,6,12,0,12,0,1,,,,,,,,,,,,,,,,,,,,,,,,,,,,,,,,,,,,,,,
,,,,,,,,2023-08-16_08h46.11.712,HF_wild_card,2022.2.4,Win32,60.0132029,5f9eab308e503705011ad793,64d2fd46c836a06233681665,64dc7e971272034764be896c,,,,,,,sngl,resources/DR.BMP,resources/Empty.png,Door4,-0.190740712,-0.010185199,1,0,0,0.4947,optionLeft,60,12810,6,13,0,13,0,1,,,,,,,,,,,,,,,,,,,,,,,,,,,,,,,,,,,,,,,
,,,,,,,,2023-08-16_08h46.11.712,HF_wild_card,2022.2.4,Win32,60.0132029,5f9eab308e503705011ad793,64d2fd46c836a06233681665,64dc7e971272034764be896c,,,,,,,decisionTrl,resources/DY.BMP,resources/DP.BMP,WildCard_Ex,0.212037065,0.009259245,1,0,0,0.9803,optionRight,55,12865,6,14,0,14,0,1,,,,,,,,,,,,,,,,,,,,,,,,,,,,,,,,,,,,,,,
,,,,,,,,2023-08-16_08h46.11.712,HF_wild_card,2022.2.4,Win32,60.0132029,5f9eab308e503705011ad793,64d2fd46c836a06233681665,64dc7e971272034764be896c,,,,,,,decisionTrl,resources/DBN.BMP,resources/DY.BMP,Door1,0.15648151,0.01851849,1,0,0,0.6455,optionRight,30,12895,6,15,0,15,0,1,,,,,,,,,,,,,,,,,,,,,,,,,,,,,,,,,,,,,,,
,,,,,,,,2023-08-16_08h46.11.712,HF_wild_card,2022.2.4,Win32,60.0132029,5f9eab308e503705011ad793,64d2fd46c836a06233681665,64dc7e971272034764be896c,,,,,,,ctch,resources/DY.BMP,resources/DR.BMP,Door4,0.127777778,0.017592578,1,0,0,0.8849,optionRight,60,12955,6,16,0,16,0,1,,,,,,,,,,,,,,,,,,,,,,,,,,,,,,,,,,,,,,,
,,,,,,,,2023-08-16_08h46.11.712,HF_wild_card,2022.2.4,Win32,60.0132029,5f9eab308e503705011ad793,64d2fd46c836a06233681665,64dc7e971272034764be896c,,,,,,,decisionTrl,resources/DR.BMP,resources/DB.BMP,Door3,0.126851908,0.014814801,1,0,0,1.0108,optionRight,70,13025,6,17,0,17,0,1,,,,,,,,,,,,,,,,,,,,,,,,,,,,,,,,,,,,,,,
,,,,,,,,2023-08-16_08h46.11.712,HF_wild_card,2022.2.4,Win32,60.0132029,5f9eab308e503705011ad793,64d2fd46c836a06233681665,64dc7e971272034764be896c,,,,,,,ctch,resources/DBN.BMP,resources/DB.BMP,Door3,0.312037065,-0.012962977,1,0,0,0.6948,optionRight,70,13095,6,18,0,18,0,1,,,,,,,,,,,,,,,,,,,,,,,,,,,,,,,,,,,,,,,
,,,,,,,,2023-08-16_08h46.11.712,HF_wild_card,2022.2.4,Win32,60.0132029,5f9eab308e503705011ad793,64d2fd46c836a06233681665,64dc7e971272034764be896c,,,,,,,decisionTrl,resources/DR.BMP,resources/DP.BMP,Door4,-0.162036981,0.027777778,1,0,0,0.9635,optionLeft,60,13155,6,19,0,19,0,1,,,,,,,,,,,,,,,,,,,,,,,,,,,,,,,,,,,,,,,
,,,,,,,,2023-08-16_08h46.11.712,HF_wild_card,2022.2.4,Win32,60.0132029,5f9eab308e503705011ad793,64d2fd46c836a06233681665,64dc7e971272034764be896c,,,,,,,decisionTrl,resources/DR.BMP,resources/DB.BMP,Door3,0.420370399,-0.107407422,1,0,0,1.5128,optionRight,70,13225,6,20,0,20,0,1,,,,,,,,,,,,,,,,,,,,,,,,,,,,,,,,,,,,,,,
,,,,,,,,2023-08-16_08h46.11.712,HF_wild_card,2022.2.4,Win32,60.0132029,5f9eab308e503705011ad793,64d2fd46c836a06233681665,64dc7e971272034764be896c,,,,,,,decisionTrl,resources/DB.BMP,resources/DR.BMP,Door3,-0.140740712,0.026851824,1,0,0,1.6456,optionLeft,70,13295,6,21,0,21,0,1,,,,,,,,,,,,,,,,,,,,,,,,,,,,,,,,,,,,,,,
,,,,,,,,2023-08-16_08h46.11.712,HF_wild_card,2022.2.4,Win32,60.0132029,5f9eab308e503705011ad793,64d2fd46c836a06233681665,64dc7e971272034764be896c,,,,,,,decisionTrl,resources/DR.BMP,resources/DB.BMP,Door3,0.224074131,-0.026851866,1,0,0,0.8132,optionRight,70,13365,6,22,0,22,0,1,,,,,,,,,,,,,,,,,,,,,,,,,,,,,,,,,,,,,,,
,,,,,,,,2023-08-16_08h46.11.712,HF_wild_card,2022.2.4,Win32,60.0132029,5f9eab308e503705011ad793,64d2fd46c836a06233681665,64dc7e971272034764be896c,,,,,,,sngl,resources/Empty.png,resources/DP.BMP,WildCard_Ex,0.139814843,-0.005555556,1,0,0,0.4778,optionRight,45,13410,6,23,0,23,0,1,,,,,,,,,,,,,,,,,,,,,,,,,,,,,,,,,,,,,,,
,,,,,,,,2023-08-16_08h46.11.712,HF_wild_card,2022.2.4,Win32,60.0132029,5f9eab308e503705011ad793,64d2fd46c836a06233681665,64dc7e971272034764be896c,,,,,,,decisionTrl,resources/DY.BMP,resources/DBN.BMP,Door1,-0.312962935,0.013888889,1,0,0,0.9932,optionLeft,30,13440,6,24,0,24,0,1,,,,,,,,,,,,,,,,,,,,,,,,,,,,,,,,,,,,,,,
,,,,,,,,2023-08-16_08h46.11.712,HF_wild_card,2022.2.4,Win32,60.0132029,5f9eab308e503705011ad793,64d2fd46c836a06233681665,64dc7e971272034764be896c,,,,,,,decisionTrl,resources/DBN.BMP,resources/DY.BMP,Door1,0.162963019,-0.017592621,1,0,0,0.8649,optionRight,30,13470,6,25,0,25,0,1,,,,,,,,,,,,,,,,,,,,,,,,,,,,,,,,,,,,,,,
,,,,,,,,2023-08-16_08h46.11.712,HF_wild_card,2022.2.4,Win32,60.0132029,5f9eab308e503705011ad793,64d2fd46c836a06233681665,64dc7e971272034764be896c,,,,,,,ctch,resources/DB.BMP,resources/DBN.BMP,Door3,-0.151851824,-0.005555556,1,0,0,0.6307,optionLeft,70,13540,6,26,0,26,0,1,,,,,,,,,,,,,,,,,,,,,,,,,,,,,,,,,,,,,,,
,,,,,,,,2023-08-16_08h46.11.712,HF_wild_card,2022.2.4,Win32,60.0132029,5f9eab308e503705011ad793,64d2fd46c836a06233681665,64dc7e971272034764be896c,,,,,,,sngl,resources/Empty.png,resources/DY.BMP,Door1,0.134259288,-0.012037065,1,0,0,0.4774,optionRight,30,13570,6,27,0,27,0,1,,,,,,,,,,,,,,,,,,,,,,,,,,,,,,,,,,,,,,,
,,,,,,,,2023-08-16_08h46.11.712,HF_wild_card,2022.2.4,Win32,60.0132029,5f9eab308e503705011ad793,64d2fd46c836a06233681665,64dc7e971272034764be896c,,,,,,,sngl,resources/Empty.png,resources/DBN.BMP,Door2,0.129629686,-0.014814843,1,0,0,0.529,optionRight,40,13610,6,28,0,28,0,1,,,,,,,,,,,,,,,,,,,,,,,,,,,,,,,,,,,,,,,
,,,,,,,,2023-08-16_08h46.11.712,HF_wild_card,2022.2.4,Win32,60.0132029,5f9eab308e503705011ad793,64d2fd46c836a06233681665,64dc7e971272034764be896c,,,,,,,decisionTrl,resources/DB.BMP,resources/DR.BMP,Door3,-0.144444444,0.008333333,1,0,0,0.7812,optionLeft,70,13680,6,29,0,29,0,1,,,,,,,,,,,,,,,,,,,,,,,,,,,,,,,,,,,,,,,
,,,,,,,,2023-08-16_08h46.11.712,HF_wild_card,2022.2.4,Win32,60.0132029,5f9eab308e503705011ad793,64d2fd46c836a06233681665,64dc7e971272034764be896c,,,,,,,ctch,resources/DR.BMP,resources/DY.BMP,Door4,-0.167592536,0.027777778,1,0,0,1.5477,optionLeft,80,13760,6,30,0,30,0,1,,,,,,,,,,,,,,,,,,,,,,,,,,,,,,,,,,,,,,,
,,,,,,,,2023-08-16_08h46.11.712,HF_wild_card,2022.2.4,Win32,60.0132029,5f9eab308e503705011ad793,64d2fd46c836a06233681665,64dc7e971272034764be896c,,,,,,,decisionTrl,resources/DBN.BMP,resources/DP.BMP,WildCard_Ex,0.195370399,-0.007407422,1,0,0,0.7134,optionRight,55,13815,6,31,0,31,0,1,,,,,,,,,,,,,,,,,,,,,,,,,,,,,,,,,,,,,,,
,,,,,,,,2023-08-16_08h46.11.712,HF_wild_card,2022.2.4,Win32,60.0132029,5f9eab308e503705011ad793,64d2fd46c836a06233681665,64dc7e971272034764be896c,,,,,,,decisionTrl,resources/DR.BMP,resources/DB.BMP,Door3,0.136111111,-0.000925954,1,0,0,0.7606,optionRight,70,13885,6,32,0,32,0,1,,,,,,,,,,,,,,,,,,,,,,,,,,,,,,,,,,,,,,,
,,,,,,,,2023-08-16_08h46.11.712,HF_wild_card,2022.2.4,Win32,60.0132029,5f9eab308e503705011ad793,64d2fd46c836a06233681665,64dc7e971272034764be896c,,,,,,,ctch,resources/DBN.BMP,resources/DB.BMP,Door3,0.160185242,0.000925912,1,0,0,0.5436,optionRight,70,13955,6,33,0,33,0,1,,,,,,,,,,,,,,,,,,,,,,,,,,,,,,,,,,,,,,,
,,,,,,,,2023-08-16_08h46.11.712,HF_wild_card,2022.2.4,Win32,60.0132029,5f9eab308e503705011ad793,64d2fd46c836a06233681665,64dc7e971272034764be896c,,,,,,,sngl,resources/DY.BMP,resources/Empty.png,Door1,-0.11851849,-0.010185199,1,0,0,0.5823,optionLeft,30,13985,6,34,0,34,0,1,,,,,,,,,,,,,,,,,,,,,,,,,,,,,,,,,,,,,,,
,,,,,,,,2023-08-16_08h46.11.712,HF_wild_card,2022.2.4,Win32,60.0132029,5f9eab308e503705011ad793,64d2fd46c836a06233681665,64dc7e971272034764be896c,,,,,,,decisionTrl,resources/DBN.BMP,resources/DY.BMP,Door1,0.258333333,-0.019444444,1,0,0,0.6747,optionRight,30,14015,6,35,0,35,0,1,,,,,,,,,,,,,,,,,,,,,,,,,,,,,,,,,,,,,,,
,,,,,,,,2023-08-16_08h46.11.712,HF_wild_card,2022.2.4,Win32,60.0132029,5f9eab308e503705011ad793,64d2fd46c836a06233681665,64dc7e971272034764be896c,,,,,,,sngl,resources/DB.BMP,resources/Empty.png,Door3,-0.162036981,0.00370369,1,0,0,0.5318,optionLeft,70,14085,6,36,0,36,0,1,,,,,,,,,,,,,,,,,,,,,,,,,,,,,,,,,,,,,,,
,,,,,,,,2023-08-16_08h46.11.712,HF_wild_card,2022.2.4,Win32,60.0132029,5f9eab308e503705011ad793,64d2fd46c836a06233681665,64dc7e971272034764be896c,,,,,,,sngl,resources/Empty.png,resources/DB.BMP,Door3,0.310185242,-0.002777778,1,0,0,0.6303,optionRight,70,14155,6,37,0,37,0,1,,,,,,,,,,,,,,,,,,,,,,,,,,,,,,,,,,,,,,,
,,,,,,,,2023-08-16_08h46.11.712,HF_wild_card,2022.2.4,Win32,60.0132029,5f9eab308e503705011ad793,64d2fd46c836a06233681665,64dc7e971272034764be896c,,,,,,,decisionTrl,resources/DP.BMP,resources/DB.BMP,Door3,0.152777778,0.000925912,1,0,0,1.1289,optionRight,70,14225,6,38,0,38,0,1,,,,,,,,,,,,,,,,,,,,,,,,,,,,,,,,,,,,,,,
,,,,,,,,2023-08-16_08h46.11.712,HF_wild_card,2022.2.4,Win32,60.0132029,5f9eab308e503705011ad793,64d2fd46c836a06233681665,64dc7e971272034764be896c,,,,,,,sngl,resources/Empty.png,resources/DR.BMP,Door4,0.130555556,0.004629601,1,0,0,0.5283,optionRight,80,14305,6,39,0,39,0,1,,,,,,,,,,,,,,,,,,,,,,,,,,,,,,,,,,,,,,,
,,,,,,,,2023-08-16_08h46.11.712,HF_wild_card,2022.2.4,Win32,60.0132029,5f9eab308e503705011ad793,64d2fd46c836a06233681665,64dc7e971272034764be896c,,,,,,,decisionTrl,resources/DY.BMP,resources/DBN.BMP,Door1,-0.175,0.000925912,1,0,0,1.1126,optionLeft,30,14335,6,40,0,40,0,1,,,,,,,,,,,,,,,,,,,,,,,,,,,,,,,,,,,,,,,
,,,,,,,,2023-08-16_08h46.11.712,HF_wild_card,2022.2.4,Win32,60.0132029,5f9eab308e503705011ad793,64d2fd46c836a06233681665,64dc7e971272034764be896c,,,,,,,ctch,resources/DY.BMP,resources/DR.BMP,Door4,0.204629686,-0.012037065,1,0,0,0.7939,optionRight,80,14415,6,41,0,41,0,1,,,,,,,,,,,,,,,,,,,,,,,,,,,,,,,,,,,,,,,
,,,,,,,,2023-08-16_08h46.11.712,HF_wild_card,2022.2.4,Win32,60.0132029,5f9eab308e503705011ad793,64d2fd46c836a06233681665,64dc7e971272034764be896c,,,,,,,decisionTrl,resources/DY.BMP,resources/DBN.BMP,Door1,-0.136111111,-0.00648151,1,0,0,0.6291,optionLeft,30,14445,6,42,0,42,0,1,,,,,,,,,,,,,,,,,,,,,,,,,,,,,,,,,,,,,,,
,,,,,,,,2023-08-16_08h46.11.712,HF_wild_card,2022.2.4,Win32,60.0132029,5f9eab308e503705011ad793,64d2fd46c836a06233681665,64dc7e971272034764be896c,,,,,,,decisionTrl,resources/DB.BMP,resources/DR.BMP,Door3,-0.211111111,0.014814801,1,0,0,1.7479,optionLeft,70,14515,6,43,0,43,0,1,,,,,,,,,,,,,,,,,,,,,,,,,,,,,,,,,,,,,,,
,,,,,,,,2023-08-16_08h46.11.712,HF_wild_card,2022.2.4,Win32,60.0132029,5f9eab308e503705011ad793,64d2fd46c836a06233681665,64dc7e971272034764be896c,,,,,,,,,,,,,,,,,,,,,,,,,,5,0,5,0,1,,,,,,,,,,,,,,,,,,,,,,,,,,,,,,,,,,
,,,,,,,,2023-08-16_08h46.11.712,HF_wild_card,2022.2.4,Win32,60.0132029,5f9eab308e503705011ad793,64d2fd46c836a06233681665,64dc7e971272034764be896c,,,,,,,decisionTrl,resources/DR.BMP,resources/DB.BMP,Door3,0.129629686,-0.039814843,1,0,0,0.9715,optionRight,70,14585,7,0,0,0,0,1,,,,,,,,,,,,,,,,,,,,,,,,,,,,,,,,,,,,,,,
,,,,,,,,2023-08-16_08h46.11.712,HF_wild_card,2022.2.4,Win32,60.0132029,5f9eab308e503705011ad793,64d2fd46c836a06233681665,64dc7e971272034764be896c,,,,,,,decisionTrl,resources/DY.BMP,resources/DBN.BMP,Door1,-0.194444444,-0.008333333,1,0,0,0.8279,optionLeft,30,14615,7,1,0,1,0,1,,,,,,,,,,,,,,,,,,,,,,,,,,,,,,,,,,,,,,,
,,,,,,,,2023-08-16_08h46.11.712,HF_wild_card,2022.2.4,Win32,60.0132029,5f9eab308e503705011ad793,64d2fd46c836a06233681665,64dc7e971272034764be896c,,,,,,,decisionTrl,resources/DB.BMP,resources/DR.BMP,Door3,-0.150925869,-0.012962977,1,0,0,0.7157,optionLeft,70,14685,7,2,0,2,0,1,,,,,,,,,,,,,,,,,,,,,,,,,,,,,,,,,,,,,,,
,,,,,,,,2023-08-16_08h46.11.712,HF_wild_card,2022.2.4,Win32,60.0132029,5f9eab308e503705011ad793,64d2fd46c836a06233681665,64dc7e971272034764be896c,,,,,,,ctch,resources/DBN.BMP,resources/DB.BMP,Door3,0.142592621,0.001851824,1,0,0,0.5464,optionRight,70,14755,7,3,0,3,0,1,,,,,,,,,,,,,,,,,,,,,,,,,,,,,,,,,,,,,,,
,,,,,,,,2023-08-16_08h46.11.712,HF_wild_card,2022.2.4,Win32,60.0132029,5f9eab308e503705011ad793,64d2fd46c836a06233681665,64dc7e971272034764be896c,,,,,,,decisionTrl,resources/DBN.BMP,resources/DY.BMP,Door1,0.148148176,0.012962935,1,0,0,0.648,optionRight,30,14785,7,4,0,4,0,1,,,,,,,,,,,,,,,,,,,,,,,,,,,,,,,,,,,,,,,
,,,,,,,,2023-08-16_08h46.11.712,HF_wild_card,2022.2.4,Win32,60.0132029,5f9eab308e503705011ad793,64d2fd46c836a06233681665,64dc7e971272034764be896c,,,,,,,decisionTrl,resources/DB.BMP,resources/DR.BMP,Door3,-0.22870369,0.020370356,1,0,0,0.7147,optionLeft,70,14855,7,5,0,5,0,1,,,,,,,,,,,,,,,,,,,,,,,,,,,,,,,,,,,,,,,
,,,,,,,,2023-08-16_08h46.11.712,HF_wild_card,2022.2.4,Win32,60.0132029,5f9eab308e503705011ad793,64d2fd46c836a06233681665,64dc7e971272034764be896c,,,,,,,ctch,resources/DR.BMP,resources/DY.BMP,Door4,-0.145370314,0.005555556,1,0,0,0.6456,optionLeft,60,14915,7,6,0,6,0,1,,,,,,,,,,,,,,,,,,,,,,,,,,,,,,,,,,,,,,,
,,,,,,,,2023-08-16_08h46.11.712,HF_wild_card,2022.2.4,Win32,60.0132029,5f9eab308e503705011ad793,64d2fd46c836a06233681665,64dc7e971272034764be896c,,,,,,,decisionTrl,resources/DR.BMP,resources/DB.BMP,Door3,0.149074131,0.005555556,1,0,0,0.6972,optionRight,70,14985,7,7,0,7,0,1,,,,,,,,,,,,,,,,,,,,,,,,,,,,,,,,,,,,,,,
,,,,,,,,2023-08-16_08h46.11.712,HF_wild_card,2022.2.4,Win32,60.0132029,5f9eab308e503705011ad793,64d2fd46c836a06233681665,64dc7e971272034764be896c,,,,,,,decisionTrl,resources/DY.BMP,resources/DBN.BMP,Door1,-0.134259203,-0.003703732,1,0,0,0.6478,optionLeft,30,15015,7,8,0,8,0,1,,,,,,,,,,,,,,,,,,,,,,,,,,,,,,,,,,,,,,,
,,,,,,,,2023-08-16_08h46.11.712,HF_wild_card,2022.2.4,Win32,60.0132029,5f9eab308e503705011ad793,64d2fd46c836a06233681665,64dc7e971272034764be896c,,,,,,,ctch,resources/DBN.BMP,resources/DB.BMP,Door3,0.174074131,-0.001851866,1,0,0,0.6159,optionRight,70,15085,7,9,0,9,0,1,,,,,,,,,,,,,,,,,,,,,,,,,,,,,,,,,,,,,,,
,,,,,,,,2023-08-16_08h46.11.712,HF_wild_card,2022.2.4,Win32,60.0132029,5f9eab308e503705011ad793,64d2fd46c836a06233681665,64dc7e971272034764be896c,,,,,,,ctch,resources/DB.BMP,resources/DBN.BMP,Door3,-0.144444444,0.014814801,1,0,0,0.5108,optionLeft,70,15155,7,10,0,10,0,1,,,,,,,,,,,,,,,,,,,,,,,,,,,,,,,,,,,,,,,
,,,,,,,,2023-08-16_08h46.11.712,HF_wild_card,2022.2.4,Win32,60.0132029,5f9eab308e503705011ad793,64d2fd46c836a06233681665,64dc7e971272034764be896c,,,,,,,decisionTrl,resources/DB.BMP,resources/DR.BMP,Door3,-0.165740712,-0.005555556,1,0,0,0.8672,optionLeft,70,15225,7,11,0,11,0,1,,,,,,,,,,,,,,,,,,,,,,,,,,,,,,,,,,,,,,,
,,,,,,,,2023-08-16_08h46.11.712,HF_wild_card,2022.2.4,Win32,60.0132029,5f9eab308e503705011ad793,64d2fd46c836a06233681665,64dc7e971272034764be896c,,,,,,,decisionTrl,resources/DR.BMP,resources/DB.BMP,Door3,0.10648151,0.002777778,1,0,0,0.6317,optionRight,70,15295,7,12,0,12,0,1,,,,,,,,,,,,,,,,,,,,,,,,,,,,,,,,,,,,,,,
,,,,,,,,2023-08-16_08h46.11.712,HF_wild_card,2022.2.4,Win32,60.0132029,5f9eab308e503705011ad793,64d2fd46c836a06233681665,64dc7e971272034764be896c,,,,,,,ctch,resources/DY.BMP,resources/DR.BMP,Door4,0.141666667,-0.009259288,1,0,0,0.5809,optionRight,80,15375,7,13,0,13,0,1,,,,,,,,,,,,,,,,,,,,,,,,,,,,,,,,,,,,,,,
,,,,,,,,2023-08-16_08h46.11.712,HF_wild_card,2022.2.4,Win32,60.0132029,5f9eab308e503705011ad793,64d2fd46c836a06233681665,64dc7e971272034764be896c,,,,,,,decisionTrl,resources/DR.BMP,resources/DB.BMP,Door3,0.153703732,-0.022222222,1,0,0,0.9486,optionRight,70,15445,7,14,0,14,0,1,,,,,,,,,,,,,,,,,,,,,,,,,,,,,,,,,,,,,,,
,,,,,,,,2023-08-16_08h46.11.712,HF_wild_card,2022.2.4,Win32,60.0132029,5f9eab308e503705011ad793,64d2fd46c836a06233681665,64dc7e971272034764be896c,,,,,,,decisionTrl,resources/DY.BMP,resources/DBN.BMP,Door1,-0.146296268,0.000925912,1,0,0,0.5821,optionLeft,30,15475,7,15,0,15,0,1,,,,,,,,,,,,,,,,,,,,,,,,,,,,,,,,,,,,,,,
,,,,,,,,2023-08-16_08h46.11.712,HF_wild_card,2022.2.4,Win32,60.0132029,5f9eab308e503705011ad793,64d2fd46c836a06233681665,64dc7e971272034764be896c,,,,,,,ctch,resources/DY.BMP,resources/DR.BMP,Door4,0.158333333,-0.010185199,1,0,0,0.7601,optionRight,80,15555,7,16,0,16,0,1,,,,,,,,,,,,,,,,,,,,,,,,,,,,,,,,,,,,,,,
,,,,,,,,2023-08-16_08h46.11.712,HF_wild_card,2022.2.4,Win32,60.0132029,5f9eab308e503705011ad793,64d2fd46c836a06233681665,64dc7e971272034764be896c,,,,,,,decisionTrl,resources/DY.BMP,resources/DBN.BMP,Door1,-0.20370369,0.004629601,1,0,0,0.5821,optionLeft,30,15585,7,17,0,17,0,1,,,,,,,,,,,,,,,,,,,,,,,,,,,,,,,,,,,,,,,
,,,,,,,,2023-08-16_08h46.11.712,HF_wild_card,2022.2.4,Win32,60.0132029,5f9eab308e503705011ad793,64d2fd46c836a06233681665,64dc7e971272034764be896c,,,,,,,ctch,resources/DB.BMP,resources/DBN.BMP,Door3,-0.112962935,0.005555556,1,0,0,0.5639,optionLeft,70,15655,7,18,0,18,0,1,,,,,,,,,,,,,,,,,,,,,,,,,,,,,,,,,,,,,,,
,,,,,,,,2023-08-16_08h46.11.712,HF_wild_card,2022.2.4,Win32,60.0132029,5f9eab308e503705011ad793,64d2fd46c836a06233681665,64dc7e971272034764be896c,,,,,,,decisionTrl,resources/DB.BMP,resources/DR.BMP,Door3,-0.151851824,0.000925912,1,0,0,0.9301,optionLeft,70,15725,7,19,0,19,0,1,,,,,,,,,,,,,,,,,,,,,,,,,,,,,,,,,,,,,,,
,,,,,,,,2023-08-16_08h46.11.712,HF_wild_card,2022.2.4,Win32,60.0132029,5f9eab308e503705011ad793,64d2fd46c836a06233681665,64dc7e971272034764be896c,,,,,,,decisionTrl,resources/DY.BMP,resources/DBN.BMP,Door1,-0.138888889,0.001851824,1,0,0,0.5789,optionLeft,30,15755,7,20,0,20,0,1,,,,,,,,,,,,,,,,,,,,,,,,,,,,,,,,,,,,,,,
,,,,,,,,2023-08-16_08h46.11.712,HF_wild_card,2022.2.4,Win32,60.0132029,5f9eab308e503705011ad793,64d2fd46c836a06233681665,64dc7e971272034764be896c,,,,,,,ctch,resources/DB.BMP,resources/DBN.BMP,Door3,-0.135185157,-0.002777778,1,0,0,0.5954,optionLeft,70,15825,7,21,0,21,0,1,,,,,,,,,,,,,,,,,,,,,,,,,,,,,,,,,,,,,,,
,,,,,,,,2023-08-16_08h46.11.712,HF_wild_card,2022.2.4,Win32,60.0132029,5f9eab308e503705011ad793,64d2fd46c836a06233681665,64dc7e971272034764be896c,,,,,,,decisionTrl,resources/DY.BMP,resources/DBN.BMP,Door1,-0.109259203,-0.001851866,1,0,0,0.5486,optionLeft,30,15855,7,22,0,22,0,1,,,,,,,,,,,,,,,,,,,,,,,,,,,,,,,,,,,,,,,
,,,,,,,,2023-08-16_08h46.11.712,HF_wild_card,2022.2.4,Win32,60.0132029,5f9eab308e503705011ad793,64d2fd46c836a06233681665,64dc7e971272034764be896c,,,,,,,decisionTrl,resources/DBN.BMP,resources/DY.BMP,Door1,0.134259288,-0.004629644,1,0,0,0.9988,optionRight,30,15885,7,23,0,23,0,1,,,,,,,,,,,,,,,,,,,,,,,,,,,,,,,,,,,,,,,
,,,,,,,,2023-08-16_08h46.11.712,HF_wild_card,2022.2.4,Win32,60.0132029,5f9eab308e503705011ad793,64d2fd46c836a06233681665,64dc7e971272034764be896c,,,,,,,decisionTrl,resources/DBN.BMP,resources/DY.BMP,Door1,0.132407464,0.00370369,1,0,0,0.6494,optionRight,30,15915,7,24,0,24,0,1,,,,,,,,,,,,,,,,,,,,,,,,,,,,,,,,,,,,,,,
,,,,,,,,2023-08-16_08h46.11.712,HF_wild_card,2022.2.4,Win32,60.0132029,5f9eab308e503705011ad793,64d2fd46c836a06233681665,64dc7e971272034764be896c,,,,,,,ctch,resources/DR.BMP,resources/DY.BMP,Door4,-0.170370314,0.022222222,1,0,0,0.696,optionLeft,80,15995,7,25,0,25,0,1,,,,,,,,,,,,,,,,,,,,,,,,,,,,,,,,,,,,,,,
,,,,,,,,2023-08-16_08h46.11.712,HF_wild_card,2022.2.4,Win32,60.0132029,5f9eab308e503705011ad793,64d2fd46c836a06233681665,64dc7e971272034764be896c,,,,,,,decisionTrl,resources/DR.BMP,resources/DB.BMP,Door3,0.205555556,0.001851824,1,0,0,1.1169,optionRight,70,16065,7,26,0,26,0,1,,,,,,,,,,,,,,,,,,,,,,,,,,,,,,,,,,,,,,,
,,,,,,,,2023-08-16_08h46.11.712,HF_wild_card,2022.2.4,Win32,60.0132029,5f9eab308e503705011ad793,64d2fd46c836a06233681665,64dc7e971272034764be896c,,,,,,,ctch,resources/DBN.BMP,resources/DB.BMP,Door3,0.190740797,-0.000925954,1,0,0,0.5952,optionRight,70,16135,7,27,0,27,0,1,,,,,,,,,,,,,,,,,,,,,,,,,,,,,,,,,,,,,,,
,,,,,,,,2023-08-16_08h46.11.712,HF_wild_card,2022.2.4,Win32,60.0132029,5f9eab308e503705011ad793,64d2fd46c836a06233681665,64dc7e971272034764be896c,,,,,,,decisionTrl,resources/DB.BMP,resources/DR.BMP,Door3,-0.115740712,0.013888889,1,0,0,0.7621,optionLeft,70,16205,7,28,0,28,0,1,,,,,,,,,,,,,,,,,,,,,,,,,,,,,,,,,,,,,,,
,,,,,,,,2023-08-16_08h46.11.712,HF_wild_card,2022.2.4,Win32,60.0132029,5f9eab308e503705011ad793,64d2fd46c836a06233681665,64dc7e971272034764be896c,,,,,,,ctch,resources/DY.BMP,resources/DR.BMP,Door4,0.119444444,0.015740712,1,0,0,0.5634,optionRight,60,16265,7,29,0,29,0,1,,,,,,,,,,,,,,,,,,,,,,,,,,,,,,,,,,,,,,,
,,,,,,,,2023-08-16_08h46.11.712,HF_wild_card,2022.2.4,Win32,60.0132029,5f9eab308e503705011ad793,64d2fd46c836a06233681665,64dc7e971272034764be896c,,,,,,,decisionTrl,resources/DBN.BMP,resources/DY.BMP,Door1,0.146296353,0.007407379,1,0,0,0.6317,optionRight,30,16295,7,30,0,30,0,1,,,,,,,,,,,,,,,,,,,,,,,,,,,,,,,,,,,,,,,
,,,,,,,,2023-08-16_08h46.11.712,HF_wild_card,2022.2.4,Win32,60.0132029,5f9eab308e503705011ad793,64d2fd46c836a06233681665,64dc7e971272034764be896c,,,,,,,ctch,resources/DR.BMP,resources/DY.BMP,Door4,-0.100925869,0.02870369,1,0,0,0.7787,optionLeft,60,16355,7,31,0,31,0,1,,,,,,,,,,,,,,,,,,,,,,,,,,,,,,,,,,,,,,,
,,,,,,,,2023-08-16_08h46.11.712,HF_wild_card,2022.2.4,Win32,60.0132029,5f9eab308e503705011ad793,64d2fd46c836a06233681665,64dc7e971272034764be896c,,,,,,,decisionTrl,resources/DB.BMP,resources/DR.BMP,Door3,-0.100925869,0.025925912,1,0,0,0.6805,optionLeft,70,16425,7,32,0,32,0,1,,,,,,,,,,,,,,,,,,,,,,,,,,,,,,,,,,,,,,,
,,,,,,,,2023-08-16_08h46.11.712,HF_wild_card,2022.2.4,Win32,60.0132029,5f9eab308e503705011ad793,64d2fd46c836a06233681665,64dc7e971272034764be896c,,,,,,,decisionTrl,resources/DBN.BMP,resources/DY.BMP,Door1,0.213888889,0.012962935,1,0,0,0.7111,optionRight,30,16455,7,33,0,33,0,1,,,,,,,,,,,,,,,,,,,,,,,,,,,,,,,,,,,,,,,
,,,,,,,,2023-08-16_08h46.11.712,HF_wild_card,2022.2.4,Win32,60.0132029,5f9eab308e503705011ad793,64d2fd46c836a06233681665,64dc7e971272034764be896c,,,,,,,decisionTrl,resources/DBN.BMP,resources/DY.BMP,Door1,0.202777778,-0.002777778,1,0,0,0.5488,optionRight,30,16485,7,34,0,34,0,1,,,,,,,,,,,,,,,,,,,,,,,,,,,,,,,,,,,,,,,
,,,,,,,,2023-08-16_08h46.11.712,HF_wild_card,2022.2.4,Win32,60.0132029,5f9eab308e503705011ad793,64d2fd46c836a06233681665,64dc7e971272034764be896c,,,,,,,decisionTrl,resources/DR.BMP,resources/DB.BMP,Door3,0.151851908,-0.00648151,1,0,0,0.8297,optionRight,70,16555,7,35,0,35,0,1,,,,,,,,,,,,,,,,,,,,,,,,,,,,,,,,,,,,,,,
,,,,,,,,2023-08-16_08h46.11.712,HF_wild_card,2022.2.4,Win32,60.0132029,5f9eab308e503705011ad793,64d2fd46c836a06233681665,64dc7e971272034764be896c,,,,,,,,,,,,,,,,,,,,,,,,,,6,0,6,0,1,,,,,,,,,,,,,,,,,,,,,,,,,,,,,,,,,,
,,,,,,,,2023-08-16_08h46.11.712,HF_wild_card,2022.2.4,Win32,60.0132029,5f9eab308e503705011ad793,64d2fd46c836a06233681665,64dc7e971272034764be896c,,,,,,,,,,,,,,,,,,,,,,,,,,,,,,,4,,,,,,,,,,,,,,,,,,,,,,,,,,,,,,,,,
,,,,,,,,2023-08-16_08h46.11.712,HF_wild_card,2022.2.4,Win32,60.0132029,5f9eab308e503705011ad793,64d2fd46c836a06233681665,64dc7e971272034764be896c,,,,,,,,,,,,,,,,,,,,,,,,,,,,,,,,,,,,,,,,,,,,,,,,,,,,,,,,,,,,,,,,
,,,,,,,,2023-08-16_08h46.11.712,HF_wild_card,2022.2.4,Win32,60.0132029,5f9eab308e503705011ad793,64d2fd46c836a06233681665,64dc7e971272034764be896c,,,,,,,,,,,,,,,,,,,,,,,,,,,,,,,,55,WC_extreme,resources/DP.BMP,0,0,0,0,1,,,,,,,,,,,,,,,,,,,,,,,,,
,,,,,,,,2023-08-16_08h46.11.712,HF_wild_card,2022.2.4,Win32,60.0132029,5f9eab308e503705011ad793,64d2fd46c836a06233681665,64dc7e971272034764be896c,,,,,,,,,,,,,,,,,,,,,,,,,,,,,,,,80,Door4,resources/DR.BMP,1,0,1,0,1,,,,,,,,,,,,,,,,,,,,,,,,,
,,,,,,,,2023-08-16_08h46.11.712,HF_wild_card,2022.2.4,Win32,60.0132029,5f9eab308e503705011ad793,64d2fd46c836a06233681665,64dc7e971272034764be896c,,,,,,,,,,,,,,,,,,,,,,,,,,,,,,,,45,WC_nonExtreme,resources/DG.BMP,2,0,2,0,1,,,,,,,,,,,,,,,,,,,,,,,,,
,,,,,,,,2023-08-16_08h46.11.712,HF_wild_card,2022.2.4,Win32,60.0132029,5f9eab308e503705011ad793,64d2fd46c836a06233681665,64dc7e971272034764be896c,,,,,,,,,,,,,,,,,,,,,,,,,,,,,,,,20,Door2,resources/DBN.BMP,3,0,3,0,1,,,,,,,,,,,,,,,,,,,,,,,,,
,,,,,,,,2023-08-16_08h46.11.712,HF_wild_card,2022.2.4,Win32,60.0132029,5f9eab308e503705011ad793,64d2fd46c836a06233681665,64dc7e971272034764be896c,,,,,,,,,,,,,,,,,,,,,,,,,,,,,,,,30,Door1,resources/DY.BMP,4,0,4,0,1,,,,,,,,,,,,,,,,,,,,,,,,,
,,,,,,,,2023-08-16_08h46.11.712,HF_wild_card,2022.2.4,Win32,60.0132029,5f9eab308e503705011ad793,64d2fd46c836a06233681665,64dc7e971272034764be896c,,,,,,,,,,,,,,,,,,,,,,,,,,,,,,,,70,Door3,resources/DB.BMP,5,0,5,0,1,,,,,,,,,,,,,,,,,,,,,,,,,
,,,,,,,,2023-08-16_08h46.11.712,HF_wild_card,2022.2.4,Win32,60.0132029,5f9eab308e503705011ad793,64d2fd46c836a06233681665,64dc7e971272034764be896c,,,,,,,,,,,,,,,,,,,,,,,,,,,,,,,,,,,,,,,,,,,,,,,,,,,,,,,,,,,,,,,,
,,,,,,,,2023-08-16_08h46.11.712,HF_wild_card,2022.2.4,Win32,60.0132029,5f9eab308e503705011ad793,64d2fd46c836a06233681665,64dc7e971272034764be896c,,,,,,,,,,,,,,,,,,,,,,,,,,,,,,,,,,,,,,,,0,0,0,0,1,,,,,,,,,,,,,,,,,,,,
,,,,,,,,2023-08-16_08h46.11.712,HF_wild_card,2022.2.4,Win32,60.0132029,5f9eab308e503705011ad793,64d2fd46c836a06233681665,64dc7e971272034764be896c,,,,,,,,,,,,,,,,,,,,,,,,,,,,,,,,,,,,,,,,1,0,1,0,1,,,,,,,,,,,,,,,,,,,,
