Condition,Low fixed image (Door1),Low risky image (Door2),High fixed image (Door3),High risky image (Door4),NonExtreme Wild Card 1,NonExtreme Wild Card 2,,date,expName,psychopyVersion,OS,frameRate,PROLIFIC_PID,STUDY_ID,SESSION_ID,mouse_2.x,mouse_2.y,mouse_2.leftButton,mouse_2.midButton,mouse_2.rightButton,mouse_2.clicked_name,Trial Type,Left Option Image,Right Option Image,Chosen Door,mouse.x,mouse.y,mouse.leftButton,mouse.midButton,mouse.rightButton,mouse.time,mouse.clicked_name,Feedback,Cumulative Reward,Block,trial.thisRepN,trial.thisTrialN,trial.thisN,trial.thisIndex,trial.ran,blocks.thisRepN,blocks.thisTrialN,blocks.thisN,blocks.thisIndex,blocks.ran,Money conversion,First Outcome Reported,Shown Door (First Outcome),Displayed Image (First Outcome),outcomes.thisRepN,outcomes.thisTrialN,outcomes.thisN,outcomes.thisIndex,outcomes.ran,judgments.thisRepN,judgments.thisTrialN,judgments.thisN,judgments.thisIndex,judgments.ran,freqMouse.x,freqMouse.y,freqMouse.leftButton,freqMouse.midButton,freqMouse.rightButton,freqMouse.clicked_name,FQJ for first outcome,FQJ for second outcome,Shown Door,Displayed Image,trials.thisRepN,trials.thisTrialN,trials.thisN,trials.thisIndex,trials.ran,judgBlock.thisRepN,judgBlock.thisTrialN,judgBlock.thisN,judgBlock.thisIndex,judgBlock.ran
2,resources/DY.BMP,resources/DB.BMP,resources/DBN.BMP,resources/DG.BMP,resources/DR.BMP,resources/DP.BMP,,2023-08-16_08h42.02.895,HF_wild_card,2022.2.4,Linux x86_64,60.00960154,57fde8979c39b3000179e347,64d2fd46c836a06233681665,64dc7db68c715a9620739a84,,,,,,,,,,,,,,,,,,,,,,,,,,,,,,,,,,,,,,,,,,,,,,,,,,,,,,,,,,,,,,,,
,,,,,,,,2023-08-16_08h42.02.895,HF_wild_card,2022.2.4,Linux x86_64,60.00960154,57fde8979c39b3000179e347,64d2fd46c836a06233681665,64dc7db68c715a9620739a84,0.004855896,-0.415483463,1,0,0,agree,,,,,,,,,,,,,,,,,,,,,,,,,,,,,,,,,,,,,,,,,,,,,,,,,,,,,,,,,,
,,,,,,,,2023-08-16_08h42.02.895,HF_wild_card,2022.2.4,Linux x86_64,60.00960154,57fde8979c39b3000179e347,64d2fd46c836a06233681665,64dc7db68c715a9620739a84,,,,,,,,,,,,,,,,,,,,,,,,,,,,,,,,,,,,,,,,,,,,,,,,,,,,,,,,,,,,,,,,
,,,,,,,,2023-08-16_08h42.02.895,HF_wild_card,2022.2.4,Linux x86_64,60.00960154,57fde8979c39b3000179e347,64d2fd46c836a06233681665,64dc7db68c715a9620739a84,,,,,,,decisionTrl,resources/DBN.BMP,resources/DG.BMP,Door3,-0.461909134,-0.003235337,1,0,0,2.2906,optionLeft,70,70,1,0,0,0,0,1,,,,,,,,,,,,,,,,,,,,,,,,,,,,,,,,,,,,,,,
,,,,,,,,2023-08-16_08h42.02.895,HF_wild_card,2022.2.4,Linux x86_64,60.00960154,57fde8979c39b3000179e347,64d2fd46c836a06233681665,64dc7db68c715a9620739a84,,,,,,,decisionTrl,resources/DP.BMP,resources/DG.BMP,WildCard_NonEx,-0.308449881,-0.010154203,1,0,0,1.6957,optionLeft,55,125,1,1,0,1,0,1,,,,,,,,,,,,,,,,,,,,,,,,,,,,,,,,,,,,,,,
,,,,,,,,2023-08-16_08h42.02.895,HF_wild_card,2022.2.4,Linux x86_64,60.00960154,57fde8979c39b3000179e347,64d2fd46c836a06233681665,64dc7db68c715a9620739a84,,,,,,,ctch,resources/DY.BMP,resources/DG.BMP,Door1,-0.376690314,-0.015101225,1,0,0,1.7296,optionLeft,30,155,1,2,0,2,0,1,,,,,,,,,,,,,,,,,,,,,,,,,,,,,,,,,,,,,,,
,,,,,,,,2023-08-16_08h42.02.895,HF_wild_card,2022.2.4,Linux x86_64,60.00960154,57fde8979c39b3000179e347,64d2fd46c836a06233681665,64dc7db68c715a9620739a84,,,,,,,decisionTrl,resources/DY.BMP,resources/DB.BMP,Door2,0.400577995,0.003770106,1,0,0,1.2782,optionRight,20,175,1,3,0,3,0,1,,,,,,,,,,,,,,,,,,,,,,,,,,,,,,,,,,,,,,,
,,,,,,,,2023-08-16_08h42.02.895,HF_wild_card,2022.2.4,Linux x86_64,60.00960154,57fde8979c39b3000179e347,64d2fd46c836a06233681665,64dc7db68c715a9620739a84,,,,,,,decisionTrl,resources/DBN.BMP,resources/DG.BMP,Door3,-0.301912106,0.008601124,1,0,0,1.1965,optionLeft,70,245,1,4,0,4,0,1,,,,,,,,,,,,,,,,,,,,,,,,,,,,,,,,,,,,,,,
,,,,,,,,2023-08-16_08h42.02.895,HF_wild_card,2022.2.4,Linux x86_64,60.00960154,57fde8979c39b3000179e347,64d2fd46c836a06233681665,64dc7db68c715a9620739a84,,,,,,,sngl,resources/DB.BMP,resources/Empty.png,Door2,-0.216001238,0.015480421,1,0,0,1.2136,optionLeft,40,285,1,5,0,5,0,1,,,,,,,,,,,,,,,,,,,,,,,,,,,,,,,,,,,,,,,
,,,,,,,,2023-08-16_08h42.02.895,HF_wild_card,2022.2.4,Linux x86_64,60.00960154,57fde8979c39b3000179e347,64d2fd46c836a06233681665,64dc7db68c715a9620739a84,,,,,,,decisionTrl,resources/DG.BMP,resources/DBN.BMP,Door3,0.322734288,-0.004044432,1,0,0,1.3103,optionRight,70,355,1,6,0,6,0,1,,,,,,,,,,,,,,,,,,,,,,,,,,,,,,,,,,,,,,,
,,,,,,,,2023-08-16_08h42.02.895,HF_wild_card,2022.2.4,Linux x86_64,60.00960154,57fde8979c39b3000179e347,64d2fd46c836a06233681665,64dc7db68c715a9620739a84,,,,,,,decisionTrl,resources/DY.BMP,resources/DP.BMP,WildCard_NonEx,0.436334551,-0.006296336,1,0,0,1.6967,optionRight,45,400,1,7,0,7,0,1,,,,,,,,,,,,,,,,,,,,,,,,,,,,,,,,,,,,,,,
,,,,,,,,2023-08-16_08h42.02.895,HF_wild_card,2022.2.4,Linux x86_64,60.00960154,57fde8979c39b3000179e347,64d2fd46c836a06233681665,64dc7db68c715a9620739a84,,,,,,,decisionTrl,resources/DP.BMP,resources/DBN.BMP,Door3,0.435850155,-0.011356757,1,0,0,1.8197,optionRight,70,470,1,8,0,8,0,1,,,,,,,,,,,,,,,,,,,,,,,,,,,,,,,,,,,,,,,
,,,,,,,,2023-08-16_08h42.02.895,HF_wild_card,2022.2.4,Linux x86_64,60.00960154,57fde8979c39b3000179e347,64d2fd46c836a06233681665,64dc7db68c715a9620739a84,,,,,,,sngl,resources/Empty.png,resources/DY.BMP,Door1,0.23059717,0.004851158,1,0,0,1.1303,optionRight,30,500,1,9,0,9,0,1,,,,,,,,,,,,,,,,,,,,,,,,,,,,,,,,,,,,,,,
,,,,,,,,2023-08-16_08h42.02.895,HF_wild_card,2022.2.4,Linux x86_64,60.00960154,57fde8979c39b3000179e347,64d2fd46c836a06233681665,64dc7db68c715a9620739a84,,,,,,,decisionTrl,resources/DB.BMP,resources/DP.BMP,WildCard_NonEx,0.25468388,0.003621403,1,0,0,1.5123,optionRight,55,555,1,10,0,10,0,1,,,,,,,,,,,,,,,,,,,,,,,,,,,,,,,,,,,,,,,
,,,,,,,,2023-08-16_08h42.02.895,HF_wild_card,2022.2.4,Linux x86_64,60.00960154,57fde8979c39b3000179e347,64d2fd46c836a06233681665,64dc7db68c715a9620739a84,,,,,,,ctch,resources/DY.BMP,resources/DG.BMP,Door4,0.185626202,0.010115108,1,0,0,1.6126,optionRight,60,615,1,11,0,11,0,1,,,,,,,,,,,,,,,,,,,,,,,,,,,,,,,,,,,,,,,
,,,,,,,,2023-08-16_08h42.02.895,HF_wild_card,2022.2.4,Linux x86_64,60.00960154,57fde8979c39b3000179e347,64d2fd46c836a06233681665,64dc7db68c715a9620739a84,,,,,,,decisionTrl,resources/DG.BMP,resources/DBN.BMP,Door3,0.391278664,-0.001144599,1,0,0,1.0298,optionRight,70,685,1,12,0,12,0,1,,,,,,,,,,,,,,,,,,,,,,,,,,,,,,,,,,,,,,,
,,,,,,,,2023-08-16_08h42.02.895,HF_wild_card,2022.2.4,Linux x86_64,60.00960154,57fde8979c39b3000179e347,64d2fd46c836a06233681665,64dc7db68c715a9620739a84,,,,,,,ctch,resources/DB.BMP,resources/DBN.BMP,Door3,0.366767931,0.006571041,1,0,0,1.0289,optionRight,70,755,1,13,0,13,0,1,,,,,,,,,,,,,,,,,,,,,,,,,,,,,,,,,,,,,,,
,,,,,,,,2023-08-16_08h42.02.895,HF_wild_card,2022.2.4,Linux x86_64,60.00960154,57fde8979c39b3000179e347,64d2fd46c836a06233681665,64dc7db68c715a9620739a84,,,,,,,ctch,resources/DB.BMP,resources/DBN.BMP,Door3,0.50843176,0.023491427,1,0,0,0.9298,optionRight,70,825,1,14,0,14,0,1,,,,,,,,,,,,,,,,,,,,,,,,,,,,,,,,,,,,,,,
,,,,,,,,2023-08-16_08h42.02.895,HF_wild_card,2022.2.4,Linux x86_64,60.00960154,57fde8979c39b3000179e347,64d2fd46c836a06233681665,64dc7db68c715a9620739a84,,,,,,,decisionTrl,resources/DY.BMP,resources/DB.BMP,Door2,0.368900844,-0.01792268,1,0,0,1.4967,optionRight,20,845,1,15,0,15,0,1,,,,,,,,,,,,,,,,,,,,,,,,,,,,,,,,,,,,,,,
,,,,,,,,2023-08-16_08h42.02.895,HF_wild_card,2022.2.4,Linux x86_64,60.00960154,57fde8979c39b3000179e347,64d2fd46c836a06233681665,64dc7db68c715a9620739a84,,,,,,,sngl,resources/DBN.BMP,resources/Empty.png,Door3,-0.380452079,0.042983772,1,0,0,0.8804,optionLeft,70,915,1,16,0,16,0,1,,,,,,,,,,,,,,,,,,,,,,,,,,,,,,,,,,,,,,,
,,,,,,,,2023-08-16_08h42.02.895,HF_wild_card,2022.2.4,Linux x86_64,60.00960154,57fde8979c39b3000179e347,64d2fd46c836a06233681665,64dc7db68c715a9620739a84,,,,,,,ctch,resources/DG.BMP,resources/DY.BMP,Door4,-0.302187618,0.03085602,1,0,0,1.5873,optionLeft,80,995,1,17,0,17,0,1,,,,,,,,,,,,,,,,,,,,,,,,,,,,,,,,,,,,,,,
,,,,,,,,2023-08-16_08h42.02.895,HF_wild_card,2022.2.4,Linux x86_64,60.00960154,57fde8979c39b3000179e347,64d2fd46c836a06233681665,64dc7db68c715a9620739a84,,,,,,,ctch,resources/DBN.BMP,resources/DB.BMP,Door3,-0.309803222,0.028272404,1,0,0,1.2802,optionLeft,70,1065,1,18,0,18,0,1,,,,,,,,,,,,,,,,,,,,,,,,,,,,,,,,,,,,,,,
,,,,,,,,2023-08-16_08h42.02.895,HF_wild_card,2022.2.4,Linux x86_64,60.00960154,57fde8979c39b3000179e347,64d2fd46c836a06233681665,64dc7db68c715a9620739a84,,,,,,,decisionTrl,resources/DY.BMP,resources/DB.BMP,Door1,-0.248685185,0.010536431,1,0,0,1.6303,optionLeft,30,1095,1,19,0,19,0,1,,,,,,,,,,,,,,,,,,,,,,,,,,,,,,,,,,,,,,,
,,,,,,,,2023-08-16_08h42.02.895,HF_wild_card,2022.2.4,Linux x86_64,60.00960154,57fde8979c39b3000179e347,64d2fd46c836a06233681665,64dc7db68c715a9620739a84,,,,,,,sngl,resources/DP.BMP,resources/Empty.png,WildCard_NonEx,-0.325787278,-0.00115455,1,0,0,0.8964,optionLeft,45,1140,1,20,0,20,0,1,,,,,,,,,,,,,,,,,,,,,,,,,,,,,,,,,,,,,,,
,,,,,,,,2023-08-16_08h42.02.895,HF_wild_card,2022.2.4,Linux x86_64,60.00960154,57fde8979c39b3000179e347,64d2fd46c836a06233681665,64dc7db68c715a9620739a84,,,,,,,sngl,resources/Empty.png,resources/DB.BMP,Door2,0.508235766,0.007266832,1,0,0,1.0292,optionRight,20,1160,1,21,0,21,0,1,,,,,,,,,,,,,,,,,,,,,,,,,,,,,,,,,,,,,,,
,,,,,,,,2023-08-16_08h42.02.895,HF_wild_card,2022.2.4,Linux x86_64,60.00960154,57fde8979c39b3000179e347,64d2fd46c836a06233681665,64dc7db68c715a9620739a84,,,,,,,decisionTrl,resources/DB.BMP,resources/DY.BMP,Door1,0.394696064,-0.002529831,1,0,0,1.0811,optionRight,30,1190,1,22,0,22,0,1,,,,,,,,,,,,,,,,,,,,,,,,,,,,,,,,,,,,,,,
,,,,,,,,2023-08-16_08h42.02.895,HF_wild_card,2022.2.4,Linux x86_64,60.00960154,57fde8979c39b3000179e347,64d2fd46c836a06233681665,64dc7db68c715a9620739a84,,,,,,,decisionTrl,resources/DG.BMP,resources/DP.BMP,Door4,-0.313007521,0.006831673,1,0,0,1.2097,optionLeft,60,1250,1,23,0,23,0,1,,,,,,,,,,,,,,,,,,,,,,,,,,,,,,,,,,,,,,,
,,,,,,,,2023-08-16_08h42.02.895,HF_wild_card,2022.2.4,Linux x86_64,60.00960154,57fde8979c39b3000179e347,64d2fd46c836a06233681665,64dc7db68c715a9620739a84,,,,,,,decisionTrl,resources/DY.BMP,resources/DB.BMP,Door1,-0.154594753,0.025271066,1,0,0,1.4299,optionLeft,30,1280,1,24,0,24,0,1,,,,,,,,,,,,,,,,,,,,,,,,,,,,,,,,,,,,,,,
,,,,,,,,2023-08-16_08h42.02.895,HF_wild_card,2022.2.4,Linux x86_64,60.00960154,57fde8979c39b3000179e347,64d2fd46c836a06233681665,64dc7db68c715a9620739a84,,,,,,,sngl,resources/DG.BMP,resources/Empty.png,Door4,-0.248191597,0.027367065,1,0,0,1.0617,optionLeft,80,1360,1,25,0,25,0,1,,,,,,,,,,,,,,,,,,,,,,,,,,,,,,,,,,,,,,,
,,,,,,,,2023-08-16_08h42.02.895,HF_wild_card,2022.2.4,Linux x86_64,60.00960154,57fde8979c39b3000179e347,64d2fd46c836a06233681665,64dc7db68c715a9620739a84,,,,,,,decisionTrl,resources/DB.BMP,resources/DY.BMP,Door1,0.306072922,0.009300801,1,0,0,1.6848,optionRight,30,1390,1,26,0,26,0,1,,,,,,,,,,,,,,,,,,,,,,,,,,,,,,,,,,,,,,,
,,,,,,,,2023-08-16_08h42.02.895,HF_wild_card,2022.2.4,Linux x86_64,60.00960154,57fde8979c39b3000179e347,64d2fd46c836a06233681665,64dc7db68c715a9620739a84,,,,,,,sngl,resources/Empty.png,resources/DP.BMP,WildCard_NonEx,0.416105472,0.017935854,1,0,0,1.0311,optionRight,45,1435,1,27,0,27,0,1,,,,,,,,,,,,,,,,,,,,,,,,,,,,,,,,,,,,,,,
,,,,,,,,2023-08-16_08h42.02.895,HF_wild_card,2022.2.4,Linux x86_64,60.00960154,57fde8979c39b3000179e347,64d2fd46c836a06233681665,64dc7db68c715a9620739a84,,,,,,,sngl,resources/DP.BMP,resources/Empty.png,WildCard_NonEx,-0.503612732,0.006102615,1,0,0,0.9296,optionLeft,55,1490,1,28,0,28,0,1,,,,,,,,,,,,,,,,,,,,,,,,,,,,,,,,,,,,,,,
,,,,,,,,2023-08-16_08h42.02.895,HF_wild_card,2022.2.4,Linux x86_64,60.00960154,57fde8979c39b3000179e347,64d2fd46c836a06233681665,64dc7db68c715a9620739a84,,,,,,,decisionTrl,resources/DBN.BMP,resources/DG.BMP,Door3,-0.403539433,0.005368772,1,0,0,0.8356,optionLeft,70,1560,1,29,0,29,0,1,,,,,,,,,,,,,,,,,,,,,,,,,,,,,,,,,,,,,,,
,,,,,,,,2023-08-16_08h42.02.895,HF_wild_card,2022.2.4,Linux x86_64,60.00960154,57fde8979c39b3000179e347,64d2fd46c836a06233681665,64dc7db68c715a9620739a84,,,,,,,sngl,resources/DY.BMP,resources/Empty.png,Door1,-0.283793526,0.019313267,1,0,0,0.9299,optionLeft,30,1590,1,30,0,30,0,1,,,,,,,,,,,,,,,,,,,,,,,,,,,,,,,,,,,,,,,
,,,,,,,,2023-08-16_08h42.02.895,HF_wild_card,2022.2.4,Linux x86_64,60.00960154,57fde8979c39b3000179e347,64d2fd46c836a06233681665,64dc7db68c715a9620739a84,,,,,,,decisionTrl,resources/DBN.BMP,resources/DG.BMP,Door4,0.416200721,0.01288818,1,0,0,0.9318,optionRight,60,1650,1,31,0,31,0,1,,,,,,,,,,,,,,,,,,,,,,,,,,,,,,,,,,,,,,,
,,,,,,,,2023-08-16_08h42.02.895,HF_wild_card,2022.2.4,Linux x86_64,60.00960154,57fde8979c39b3000179e347,64d2fd46c836a06233681665,64dc7db68c715a9620739a84,,,,,,,sngl,resources/Empty.png,resources/DBN.BMP,Door3,0.414227883,0.022120174,1,0,0,0.8462,optionRight,70,1720,1,32,0,32,0,1,,,,,,,,,,,,,,,,,,,,,,,,,,,,,,,,,,,,,,,
,,,,,,,,2023-08-16_08h42.02.895,HF_wild_card,2022.2.4,Linux x86_64,60.00960154,57fde8979c39b3000179e347,64d2fd46c836a06233681665,64dc7db68c715a9620739a84,,,,,,,sngl,resources/Empty.png,resources/DP.BMP,WildCard_NonEx,0.342059212,-0.019130778,1,0,0,0.9626,optionRight,55,1775,1,33,0,33,0,1,,,,,,,,,,,,,,,,,,,,,,,,,,,,,,,,,,,,,,,
,,,,,,,,2023-08-16_08h42.02.895,HF_wild_card,2022.2.4,Linux x86_64,60.00960154,57fde8979c39b3000179e347,64d2fd46c836a06233681665,64dc7db68c715a9620739a84,,,,,,,decisionTrl,resources/DBN.BMP,resources/DP.BMP,Door3,-0.468713417,0.045920425,1,0,0,0.7966,optionLeft,70,1845,1,34,0,34,0,1,,,,,,,,,,,,,,,,,,,,,,,,,,,,,,,,,,,,,,,
,,,,,,,,2023-08-16_08h42.02.895,HF_wild_card,2022.2.4,Linux x86_64,60.00960154,57fde8979c39b3000179e347,64d2fd46c836a06233681665,64dc7db68c715a9620739a84,,,,,,,decisionTrl,resources/DB.BMP,resources/DY.BMP,Door1,0.529607927,0.001740355,1,0,0,1.896,optionRight,30,1875,1,35,0,35,0,1,,,,,,,,,,,,,,,,,,,,,,,,,,,,,,,,,,,,,,,
,,,,,,,,2023-08-16_08h42.02.895,HF_wild_card,2022.2.4,Linux x86_64,60.00960154,57fde8979c39b3000179e347,64d2fd46c836a06233681665,64dc7db68c715a9620739a84,,,,,,,ctch,resources/DG.BMP,resources/DY.BMP,Door4,-0.368944061,0.013693673,1,0,0,1.2956,optionLeft,60,1935,1,36,0,36,0,1,,,,,,,,,,,,,,,,,,,,,,,,,,,,,,,,,,,,,,,
,,,,,,,,2023-08-16_08h42.02.895,HF_wild_card,2022.2.4,Linux x86_64,60.00960154,57fde8979c39b3000179e347,64d2fd46c836a06233681665,64dc7db68c715a9620739a84,,,,,,,decisionTrl,resources/DG.BMP,resources/DBN.BMP,Door3,0.409411792,-0.06609008,1,0,0,1.7135,optionRight,70,2005,1,37,0,37,0,1,,,,,,,,,,,,,,,,,,,,,,,,,,,,,,,,,,,,,,,
,,,,,,,,2023-08-16_08h42.02.895,HF_wild_card,2022.2.4,Linux x86_64,60.00960154,57fde8979c39b3000179e347,64d2fd46c836a06233681665,64dc7db68c715a9620739a84,,,,,,,decisionTrl,resources/DG.BMP,resources/DBN.BMP,Door3,0.370174716,-0.000136002,1,0,0,0.8305,optionRight,70,2075,1,38,0,38,0,1,,,,,,,,,,,,,,,,,,,,,,,,,,,,,,,,,,,,,,,
,,,,,,,,2023-08-16_08h42.02.895,HF_wild_card,2022.2.4,Linux x86_64,60.00960154,57fde8979c39b3000179e347,64d2fd46c836a06233681665,64dc7db68c715a9620739a84,,,,,,,decisionTrl,resources/DB.BMP,resources/DY.BMP,Door1,0.353072078,0.032331858,1,0,0,1.9469,optionRight,30,2105,1,39,0,39,0,1,,,,,,,,,,,,,,,,,,,,,,,,,,,,,,,,,,,,,,,
,,,,,,,,2023-08-16_08h42.02.895,HF_wild_card,2022.2.4,Linux x86_64,60.00960154,57fde8979c39b3000179e347,64d2fd46c836a06233681665,64dc7db68c715a9620739a84,,,,,,,ctch,resources/DBN.BMP,resources/DB.BMP,Door3,-0.432573164,-0.003414746,1,0,0,1.3459,optionLeft,70,2175,1,40,0,40,0,1,,,,,,,,,,,,,,,,,,,,,,,,,,,,,,,,,,,,,,,
,,,,,,,,2023-08-16_08h42.02.895,HF_wild_card,2022.2.4,Linux x86_64,60.00960154,57fde8979c39b3000179e347,64d2fd46c836a06233681665,64dc7db68c715a9620739a84,,,,,,,decisionTrl,resources/DP.BMP,resources/DY.BMP,Door1,0.346507765,0.013705662,1,0,0,2.1626,optionRight,30,2205,1,41,0,41,0,1,,,,,,,,,,,,,,,,,,,,,,,,,,,,,,,,,,,,,,,
,,,,,,,,2023-08-16_08h42.02.895,HF_wild_card,2022.2.4,Linux x86_64,60.00960154,57fde8979c39b3000179e347,64d2fd46c836a06233681665,64dc7db68c715a9620739a84,,,,,,,decisionTrl,resources/DP.BMP,resources/DB.BMP,WildCard_NonEx,-0.34845601,0.000615185,1,0,0,1.4129,optionLeft,45,2250,1,42,0,42,0,1,,,,,,,,,,,,,,,,,,,,,,,,,,,,,,,,,,,,,,,
,,,,,,,,2023-08-16_08h42.02.895,HF_wild_card,2022.2.4,Linux x86_64,60.00960154,57fde8979c39b3000179e347,64d2fd46c836a06233681665,64dc7db68c715a9620739a84,,,,,,,sngl,resources/Empty.png,resources/DG.BMP,Door4,0.350776625,-0.004678335,1,0,0,0.9449,optionRight,60,2310,1,43,0,43,0,1,,,,,,,,,,,,,,,,,,,,,,,,,,,,,,,,,,,,,,,
,,,,,,,,2023-08-16_08h42.02.895,HF_wild_card,2022.2.4,Linux x86_64,60.00960154,57fde8979c39b3000179e347,64d2fd46c836a06233681665,64dc7db68c715a9620739a84,,,,,,,,,,,,,,,,,,,,,,,,,,0,0,0,0,1,,,,,,,,,,,,,,,,,,,,,,,,,,,,,,,,,,
,,,,,,,,2023-08-16_08h42.02.895,HF_wild_card,2022.2.4,Linux x86_64,60.00960154,57fde8979c39b3000179e347,64d2fd46c836a06233681665,64dc7db68c715a9620739a84,,,,,,,decisionTrl,resources/DY.BMP,resources/DB.BMP,Door1,-0.198550775,-0.022307307,1,0,0,2.0577,optionLeft,30,2340,2,0,0,0,0,1,,,,,,,,,,,,,,,,,,,,,,,,,,,,,,,,,,,,,,,
,,,,,,,,2023-08-16_08h42.02.895,HF_wild_card,2022.2.4,Linux x86_64,60.00960154,57fde8979c39b3000179e347,64d2fd46c836a06233681665,64dc7db68c715a9620739a84,,,,,,,ctch,resources/DB.BMP,resources/DBN.BMP,Door3,0.50638405,-0.013426881,1,0,0,1.1255,optionRight,70,2410,2,1,0,1,0,1,,,,,,,,,,,,,,,,,,,,,,,,,,,,,,,,,,,,,,,
,,,,,,,,2023-08-16_08h42.02.895,HF_wild_card,2022.2.4,Linux x86_64,60.00960154,57fde8979c39b3000179e347,64d2fd46c836a06233681665,64dc7db68c715a9620739a84,,,,,,,decisionTrl,resources/DBN.BMP,resources/DG.BMP,Door4,0.294606558,4.36913E-05,1,0,0,1.3303,optionRight,80,2490,2,2,0,2,0,1,,,,,,,,,,,,,,,,,,,,,,,,,,,,,,,,,,,,,,,
,,,,,,,,2023-08-16_08h42.02.895,HF_wild_card,2022.2.4,Linux x86_64,60.00960154,57fde8979c39b3000179e347,64d2fd46c836a06233681665,64dc7db68c715a9620739a84,,,,,,,decisionTrl,resources/DY.BMP,resources/DB.BMP,Door1,-0.300943552,0.019929732,1,0,0,1.3465,optionLeft,30,2520,2,3,0,3,0,1,,,,,,,,,,,,,,,,,,,,,,,,,,,,,,,,,,,,,,,
,,,,,,,,2023-08-16_08h42.02.895,HF_wild_card,2022.2.4,Linux x86_64,60.00960154,57fde8979c39b3000179e347,64d2fd46c836a06233681665,64dc7db68c715a9620739a84,,,,,,,decisionTrl,resources/DG.BMP,resources/DP.BMP,Door4,-0.37850611,0.043808884,1,0,0,1.5627,optionLeft,80,2600,2,4,0,4,0,1,,,,,,,,,,,,,,,,,,,,,,,,,,,,,,,,,,,,,,,
,,,,,,,,2023-08-16_08h42.02.895,HF_wild_card,2022.2.4,Linux x86_64,60.00960154,57fde8979c39b3000179e347,64d2fd46c836a06233681665,64dc7db68c715a9620739a84,,,,,,,decisionTrl,resources/DB.BMP,resources/DY.BMP,Door2,-0.283908868,-0.003670023,1,0,0,1.7293,optionLeft,20,2620,2,5,0,5,0,1,,,,,,,,,,,,,,,,,,,,,,,,,,,,,,,,,,,,,,,
,,,,,,,,2023-08-16_08h42.02.895,HF_wild_card,2022.2.4,Linux x86_64,60.00960154,57fde8979c39b3000179e347,64d2fd46c836a06233681665,64dc7db68c715a9620739a84,,,,,,,ctch,resources/DBN.BMP,resources/DB.BMP,Door3,-0.252317251,0.014788136,1,0,0,1.0773,optionLeft,70,2690,2,6,0,6,0,1,,,,,,,,,,,,,,,,,,,,,,,,,,,,,,,,,,,,,,,
,,,,,,,,2023-08-16_08h42.02.895,HF_wild_card,2022.2.4,Linux x86_64,60.00960154,57fde8979c39b3000179e347,64d2fd46c836a06233681665,64dc7db68c715a9620739a84,,,,,,,decisionTrl,resources/DG.BMP,resources/DBN.BMP,Door4,-0.408179905,0.03325672,1,0,0,1.3615,optionLeft,80,2770,2,7,0,7,0,1,,,,,,,,,,,,,,,,,,,,,,,,,,,,,,,,,,,,,,,
,,,,,,,,2023-08-16_08h42.02.895,HF_wild_card,2022.2.4,Linux x86_64,60.00960154,57fde8979c39b3000179e347,64d2fd46c836a06233681665,64dc7db68c715a9620739a84,,,,,,,decisionTrl,resources/DB.BMP,resources/DP.BMP,WildCard_NonEx,0.347495511,-0.011669183,1,0,0,1.6794,optionRight,45,2815,2,8,0,8,0,1,,,,,,,,,,,,,,,,,,,,,,,,,,,,,,,,,,,,,,,
,,,,,,,,2023-08-16_08h42.02.895,HF_wild_card,2022.2.4,Linux x86_64,60.00960154,57fde8979c39b3000179e347,64d2fd46c836a06233681665,64dc7db68c715a9620739a84,,,,,,,sngl,resources/Empty.png,resources/DP.BMP,WildCard_NonEx,0.328805201,0.009893334,1,0,0,0.9807,optionRight,55,2870,2,9,0,9,0,1,,,,,,,,,,,,,,,,,,,,,,,,,,,,,,,,,,,,,,,
,,,,,,,,2023-08-16_08h42.02.895,HF_wild_card,2022.2.4,Linux x86_64,60.00960154,57fde8979c39b3000179e347,64d2fd46c836a06233681665,64dc7db68c715a9620739a84,,,,,,,sngl,resources/Empty.png,resources/DB.BMP,Door2,0.360585088,-0.007995416,1,0,0,1.1302,optionRight,40,2910,2,10,0,10,0,1,,,,,,,,,,,,,,,,,,,,,,,,,,,,,,,,,,,,,,,
,,,,,,,,2023-08-16_08h42.02.895,HF_wild_card,2022.2.4,Linux x86_64,60.00960154,57fde8979c39b3000179e347,64d2fd46c836a06233681665,64dc7db68c715a9620739a84,,,,,,,decisionTrl,resources/DBN.BMP,resources/DP.BMP,Door3,-0.261962891,0.014441022,1,0,0,1.446,optionLeft,70,2980,2,11,0,11,0,1,,,,,,,,,,,,,,,,,,,,,,,,,,,,,,,,,,,,,,,
,,,,,,,,2023-08-16_08h42.02.895,HF_wild_card,2022.2.4,Linux x86_64,60.00960154,57fde8979c39b3000179e347,64d2fd46c836a06233681665,64dc7db68c715a9620739a84,,,,,,,sngl,resources/DB.BMP,resources/Empty.png,Door2,-0.502986742,-0.006110719,1,0,0,0.9298,optionLeft,20,3000,2,12,0,12,0,1,,,,,,,,,,,,,,,,,,,,,,,,,,,,,,,,,,,,,,,
,,,,,,,,2023-08-16_08h42.02.895,HF_wild_card,2022.2.4,Linux x86_64,60.00960154,57fde8979c39b3000179e347,64d2fd46c836a06233681665,64dc7db68c715a9620739a84,,,,,,,decisionTrl,resources/DY.BMP,resources/DP.BMP,WildCard_NonEx,0.198918218,-0.014875661,1,0,0,1.9311,optionRight,55,3055,2,13,0,13,0,1,,,,,,,,,,,,,,,,,,,,,,,,,,,,,,,,,,,,,,,
,,,,,,,,2023-08-16_08h42.02.895,HF_wild_card,2022.2.4,Linux x86_64,60.00960154,57fde8979c39b3000179e347,64d2fd46c836a06233681665,64dc7db68c715a9620739a84,,,,,,,decisionTrl,resources/DP.BMP,resources/DB.BMP,WildCard_NonEx,-0.366443895,-0.006902943,1,0,0,1.3636,optionLeft,55,3110,2,14,0,14,0,1,,,,,,,,,,,,,,,,,,,,,,,,,,,,,,,,,,,,,,,
,,,,,,,,2023-08-16_08h42.02.895,HF_wild_card,2022.2.4,Linux x86_64,60.00960154,57fde8979c39b3000179e347,64d2fd46c836a06233681665,64dc7db68c715a9620739a84,,,,,,,decisionTrl,resources/DP.BMP,resources/DG.BMP,Door4,0.466293998,-0.018761961,1,0,0,1.0802,optionRight,80,3190,2,15,0,15,0,1,,,,,,,,,,,,,,,,,,,,,,,,,,,,,,,,,,,,,,,
,,,,,,,,2023-08-16_08h42.02.895,HF_wild_card,2022.2.4,Linux x86_64,60.00960154,57fde8979c39b3000179e347,64d2fd46c836a06233681665,64dc7db68c715a9620739a84,,,,,,,decisionTrl,resources/DG.BMP,resources/DBN.BMP,Door4,-0.327802575,0.019299051,1,0,0,1.1964,optionLeft,80,3270,2,16,0,16,0,1,,,,,,,,,,,,,,,,,,,,,,,,,,,,,,,,,,,,,,,
,,,,,,,,2023-08-16_08h42.02.895,HF_wild_card,2022.2.4,Linux x86_64,60.00960154,57fde8979c39b3000179e347,64d2fd46c836a06233681665,64dc7db68c715a9620739a84,,,,,,,ctch,resources/DY.BMP,resources/DG.BMP,Door4,0.466819337,0.014900255,1,0,0,1.0963,optionRight,80,3350,2,17,0,17,0,1,,,,,,,,,,,,,,,,,,,,,,,,,,,,,,,,,,,,,,,
,,,,,,,,2023-08-16_08h42.02.895,HF_wild_card,2022.2.4,Linux x86_64,60.00960154,57fde8979c39b3000179e347,64d2fd46c836a06233681665,64dc7db68c715a9620739a84,,,,,,,sngl,resources/DG.BMP,resources/Empty.png,Door4,-0.321260725,0.037618791,1,0,0,0.8628,optionLeft,60,3410,2,18,0,18,0,1,,,,,,,,,,,,,,,,,,,,,,,,,,,,,,,,,,,,,,,
,,,,,,,,2023-08-16_08h42.02.895,HF_wild_card,2022.2.4,Linux x86_64,60.00960154,57fde8979c39b3000179e347,64d2fd46c836a06233681665,64dc7db68c715a9620739a84,,,,,,,sngl,resources/Empty.png,resources/DBN.BMP,Door3,0.478914154,0.006451861,1,0,0,0.8969,optionRight,70,3480,2,19,0,19,0,1,,,,,,,,,,,,,,,,,,,,,,,,,,,,,,,,,,,,,,,
,,,,,,,,2023-08-16_08h42.02.895,HF_wild_card,2022.2.4,Linux x86_64,60.00960154,57fde8979c39b3000179e347,64d2fd46c836a06233681665,64dc7db68c715a9620739a84,,,,,,,decisionTrl,resources/DY.BMP,resources/DB.BMP,Door1,-0.296133622,0.012835532,1,0,0,1.2591,optionLeft,30,3510,2,20,0,20,0,1,,,,,,,,,,,,,,,,,,,,,,,,,,,,,,,,,,,,,,,
,,,,,,,,2023-08-16_08h42.02.895,HF_wild_card,2022.2.4,Linux x86_64,60.00960154,57fde8979c39b3000179e347,64d2fd46c836a06233681665,64dc7db68c715a9620739a84,,,,,,,decisionTrl,resources/DP.BMP,resources/DBN.BMP,Door3,0.227618484,-0.013825553,1,0,0,1.4473,optionRight,70,3580,2,21,0,21,0,1,,,,,,,,,,,,,,,,,,,,,,,,,,,,,,,,,,,,,,,
,,,,,,,,2023-08-16_08h42.02.895,HF_wild_card,2022.2.4,Linux x86_64,60.00960154,57fde8979c39b3000179e347,64d2fd46c836a06233681665,64dc7db68c715a9620739a84,,,,,,,sngl,resources/Empty.png,resources/DY.BMP,Door1,0.375469421,0.019633654,1,0,0,1.0139,optionRight,30,3610,2,22,0,22,0,1,,,,,,,,,,,,,,,,,,,,,,,,,,,,,,,,,,,,,,,
,,,,,,,,2023-08-16_08h42.02.895,HF_wild_card,2022.2.4,Linux x86_64,60.00960154,57fde8979c39b3000179e347,64d2fd46c836a06233681665,64dc7db68c715a9620739a84,,,,,,,decisionTrl,resources/DB.BMP,resources/DY.BMP,Door1,0.298984978,0.00527049,1,0,0,1.4199,optionRight,30,3640,2,23,0,23,0,1,,,,,,,,,,,,,,,,,,,,,,,,,,,,,,,,,,,,,,,
,,,,,,,,2023-08-16_08h42.02.895,HF_wild_card,2022.2.4,Linux x86_64,60.00960154,57fde8979c39b3000179e347,64d2fd46c836a06233681665,64dc7db68c715a9620739a84,,,,,,,ctch,resources/DB.BMP,resources/DBN.BMP,Door3,0.349616294,0.007545092,1,0,0,1.4969,optionRight,70,3710,2,24,0,24,0,1,,,,,,,,,,,,,,,,,,,,,,,,,,,,,,,,,,,,,,,
,,,,,,,,2023-08-16_08h42.02.895,HF_wild_card,2022.2.4,Linux x86_64,60.00960154,57fde8979c39b3000179e347,64d2fd46c836a06233681665,64dc7db68c715a9620739a84,,,,,,,sngl,resources/Empty.png,resources/DP.BMP,WildCard_NonEx,0.365497376,0.031170768,1,0,0,0.9971,optionRight,45,3755,2,25,0,25,0,1,,,,,,,,,,,,,,,,,,,,,,,,,,,,,,,,,,,,,,,
,,,,,,,,2023-08-16_08h42.02.895,HF_wild_card,2022.2.4,Linux x86_64,60.00960154,57fde8979c39b3000179e347,64d2fd46c836a06233681665,64dc7db68c715a9620739a84,,,,,,,decisionTrl,resources/DBN.BMP,resources/DG.BMP,Door4,0.263748832,0.000862595,1,0,0,1.5634,optionRight,60,3815,2,26,0,26,0,1,,,,,,,,,,,,,,,,,,,,,,,,,,,,,,,,,,,,,,,
,,,,,,,,2023-08-16_08h42.02.895,HF_wild_card,2022.2.4,Linux x86_64,60.00960154,57fde8979c39b3000179e347,64d2fd46c836a06233681665,64dc7db68c715a9620739a84,,,,,,,ctch,resources/DY.BMP,resources/DG.BMP,Door4,0.425049871,0.009974178,1,0,0,1.4638,optionRight,60,3875,2,27,0,27,0,1,,,,,,,,,,,,,,,,,,,,,,,,,,,,,,,,,,,,,,,
,,,,,,,,2023-08-16_08h42.02.895,HF_wild_card,2022.2.4,Linux x86_64,60.00960154,57fde8979c39b3000179e347,64d2fd46c836a06233681665,64dc7db68c715a9620739a84,,,,,,,sngl,resources/DP.BMP,resources/Empty.png,WildCard_NonEx,-0.294541353,0.021871389,1,0,0,1.0296,optionLeft,45,3920,2,28,0,28,0,1,,,,,,,,,,,,,,,,,,,,,,,,,,,,,,,,,,,,,,,
,,,,,,,,2023-08-16_08h42.02.895,HF_wild_card,2022.2.4,Linux x86_64,60.00960154,57fde8979c39b3000179e347,64d2fd46c836a06233681665,64dc7db68c715a9620739a84,,,,,,,sngl,resources/DY.BMP,resources/Empty.png,Door1,-0.339299457,-0.000170879,1,0,0,0.9299,optionLeft,30,3950,2,29,0,29,0,1,,,,,,,,,,,,,,,,,,,,,,,,,,,,,,,,,,,,,,,
,,,,,,,,2023-08-16_08h42.02.895,HF_wild_card,2022.2.4,Linux x86_64,60.00960154,57fde8979c39b3000179e347,64d2fd46c836a06233681665,64dc7db68c715a9620739a84,,,,,,,decisionTrl,resources/DG.BMP,resources/DBN.BMP,Door4,-0.325022064,0.013970843,1,0,0,1.3138,optionLeft,60,4010,2,30,0,30,0,1,,,,,,,,,,,,,,,,,,,,,,,,,,,,,,,,,,,,,,,
,,,,,,,,2023-08-16_08h42.02.895,HF_wild_card,2022.2.4,Linux x86_64,60.00960154,57fde8979c39b3000179e347,64d2fd46c836a06233681665,64dc7db68c715a9620739a84,,,,,,,decisionTrl,resources/DB.BMP,resources/DY.BMP,Door1,0.36878683,-0.010915815,1,0,0,1.2131,optionRight,30,4040,2,31,0,31,0,1,,,,,,,,,,,,,,,,,,,,,,,,,,,,,,,,,,,,,,,
,,,,,,,,2023-08-16_08h42.02.895,HF_wild_card,2022.2.4,Linux x86_64,60.00960154,57fde8979c39b3000179e347,64d2fd46c836a06233681665,64dc7db68c715a9620739a84,,,,,,,decisionTrl,resources/DBN.BMP,resources/DG.BMP,Door4,0.369380216,0.001792244,1,0,0,1.4468,optionRight,80,4120,2,32,0,32,0,1,,,,,,,,,,,,,,,,,,,,,,,,,,,,,,,,,,,,,,,
,,,,,,,,2023-08-16_08h42.02.895,HF_wild_card,2022.2.4,Linux x86_64,60.00960154,57fde8979c39b3000179e347,64d2fd46c836a06233681665,64dc7db68c715a9620739a84,,,,,,,sngl,resources/DBN.BMP,resources/Empty.png,Door3,-0.413945737,0.043452814,1,0,0,0.8465,optionLeft,70,4190,2,33,0,33,0,1,,,,,,,,,,,,,,,,,,,,,,,,,,,,,,,,,,,,,,,
,,,,,,,,2023-08-16_08h42.02.895,HF_wild_card,2022.2.4,Linux x86_64,60.00960154,57fde8979c39b3000179e347,64d2fd46c836a06233681665,64dc7db68c715a9620739a84,,,,,,,decisionTrl,resources/DB.BMP,resources/DY.BMP,Door1,0.335338142,-0.010500227,1,0,0,1.7158,optionRight,30,4220,2,34,0,34,0,1,,,,,,,,,,,,,,,,,,,,,,,,,,,,,,,,,,,,,,,
,,,,,,,,2023-08-16_08h42.02.895,HF_wild_card,2022.2.4,Linux x86_64,60.00960154,57fde8979c39b3000179e347,64d2fd46c836a06233681665,64dc7db68c715a9620739a84,,,,,,,ctch,resources/DBN.BMP,resources/DB.BMP,Door3,-0.306077708,0.007688629,1,0,0,1.3306,optionLeft,70,4290,2,35,0,35,0,1,,,,,,,,,,,,,,,,,,,,,,,,,,,,,,,,,,,,,,,
,,,,,,,,2023-08-16_08h42.02.895,HF_wild_card,2022.2.4,Linux x86_64,60.00960154,57fde8979c39b3000179e347,64d2fd46c836a06233681665,64dc7db68c715a9620739a84,,,,,,,ctch,resources/DG.BMP,resources/DY.BMP,Door4,-0.366188334,0.002552672,1,0,0,1.1953,optionLeft,60,4350,2,36,0,36,0,1,,,,,,,,,,,,,,,,,,,,,,,,,,,,,,,,,,,,,,,
,,,,,,,,2023-08-16_08h42.02.895,HF_wild_card,2022.2.4,Linux x86_64,60.00960154,57fde8979c39b3000179e347,64d2fd46c836a06233681665,64dc7db68c715a9620739a84,,,,,,,decisionTrl,resources/DY.BMP,resources/DB.BMP,Door1,-0.315939625,0.004163422,1,0,0,1.1465,optionLeft,30,4380,2,37,0,37,0,1,,,,,,,,,,,,,,,,,,,,,,,,,,,,,,,,,,,,,,,
,,,,,,,,2023-08-16_08h42.02.895,HF_wild_card,2022.2.4,Linux x86_64,60.00960154,57fde8979c39b3000179e347,64d2fd46c836a06233681665,64dc7db68c715a9620739a84,,,,,,,decisionTrl,resources/DG.BMP,resources/DBN.BMP,Door4,-0.433017565,-0.029341609,1,0,0,1.2622,optionLeft,60,4440,2,38,0,38,0,1,,,,,,,,,,,,,,,,,,,,,,,,,,,,,,,,,,,,,,,
,,,,,,,,2023-08-16_08h42.02.895,HF_wild_card,2022.2.4,Linux x86_64,60.00960154,57fde8979c39b3000179e347,64d2fd46c836a06233681665,64dc7db68c715a9620739a84,,,,,,,decisionTrl,resources/DBN.BMP,resources/DG.BMP,Door4,0.605416624,-0.018606387,1,0,0,1.6449,optionRight,80,4520,2,39,0,39,0,1,,,,,,,,,,,,,,,,,,,,,,,,,,,,,,,,,,,,,,,
,,,,,,,,2023-08-16_08h42.02.895,HF_wild_card,2022.2.4,Linux x86_64,60.00960154,57fde8979c39b3000179e347,64d2fd46c836a06233681665,64dc7db68c715a9620739a84,,,,,,,sngl,resources/Empty.png,resources/DG.BMP,Door4,0.500456721,0.072193406,1,0,0,0.9975,optionRight,80,4600,2,40,0,40,0,1,,,,,,,,,,,,,,,,,,,,,,,,,,,,,,,,,,,,,,,
,,,,,,,,2023-08-16_08h42.02.895,HF_wild_card,2022.2.4,Linux x86_64,60.00960154,57fde8979c39b3000179e347,64d2fd46c836a06233681665,64dc7db68c715a9620739a84,,,,,,,decisionTrl,resources/DP.BMP,resources/DY.BMP,WildCard_NonEx,-0.342232177,-0.001629847,1,0,0,1.4286,optionLeft,45,4645,2,41,0,41,0,1,,,,,,,,,,,,,,,,,,,,,,,,,,,,,,,,,,,,,,,
,,,,,,,,2023-08-16_08h42.02.895,HF_wild_card,2022.2.4,Linux x86_64,60.00960154,57fde8979c39b3000179e347,64d2fd46c836a06233681665,64dc7db68c715a9620739a84,,,,,,,ctch,resources/DG.BMP,resources/DY.BMP,Door4,-0.296785864,-0.007297729,1,0,0,1.1301,optionLeft,60,4705,2,42,0,42,0,1,,,,,,,,,,,,,,,,,,,,,,,,,,,,,,,,,,,,,,,
,,,,,,,,2023-08-16_08h42.02.895,HF_wild_card,2022.2.4,Linux x86_64,60.00960154,57fde8979c39b3000179e347,64d2fd46c836a06233681665,64dc7db68c715a9620739a84,,,,,,,sngl,resources/DP.BMP,resources/Empty.png,WildCard_NonEx,-0.377898696,0.011994877,1,0,0,0.9465,optionLeft,55,4760,2,43,0,43,0,1,,,,,,,,,,,,,,,,,,,,,,,,,,,,,,,,,,,,,,,
,,,,,,,,2023-08-16_08h42.02.895,HF_wild_card,2022.2.4,Linux x86_64,60.00960154,57fde8979c39b3000179e347,64d2fd46c836a06233681665,64dc7db68c715a9620739a84,,,,,,,,,,,,,,,,,,,,,,,,,,1,0,1,0,1,,,,,,,,,,,,,,,,,,,,,,,,,,,,,,,,,,
,,,,,,,,2023-08-16_08h42.02.895,HF_wild_card,2022.2.4,Linux x86_64,60.00960154,57fde8979c39b3000179e347,64d2fd46c836a06233681665,64dc7db68c715a9620739a84,,,,,,,decisionTrl,resources/DG.BMP,resources/DBN.BMP,Door4,-0.268523364,-0.127422688,1,0,0,2.0186,optionLeft,80,4840,3,0,0,0,0,1,,,,,,,,,,,,,,,,,,,,,,,,,,,,,,,,,,,,,,,
,,,,,,,,2023-08-16_08h42.02.895,HF_wild_card,2022.2.4,Linux x86_64,60.00960154,57fde8979c39b3000179e347,64d2fd46c836a06233681665,64dc7db68c715a9620739a84,,,,,,,decisionTrl,resources/DY.BMP,resources/DB.BMP,Door1,-0.256343581,0.017595564,1,0,0,1.2589,optionLeft,30,4870,3,1,0,1,0,1,,,,,,,,,,,,,,,,,,,,,,,,,,,,,,,,,,,,,,,
,,,,,,,,2023-08-16_08h42.02.895,HF_wild_card,2022.2.4,Linux x86_64,60.00960154,57fde8979c39b3000179e347,64d2fd46c836a06233681665,64dc7db68c715a9620739a84,,,,,,,decisionTrl,resources/DY.BMP,resources/DB.BMP,Door1,-0.413484988,0.015751146,1,0,0,1.381,optionLeft,30,4900,3,2,0,2,0,1,,,,,,,,,,,,,,,,,,,,,,,,,,,,,,,,,,,,,,,
,,,,,,,,2023-08-16_08h42.02.895,HF_wild_card,2022.2.4,Linux x86_64,60.00960154,57fde8979c39b3000179e347,64d2fd46c836a06233681665,64dc7db68c715a9620739a84,,,,,,,sngl,resources/Empty.png,resources/DY.BMP,Door1,0.451172159,0.019607307,1,0,0,0.93,optionRight,30,4930,3,3,0,3,0,1,,,,,,,,,,,,,,,,,,,,,,,,,,,,,,,,,,,,,,,
,,,,,,,,2023-08-16_08h42.02.895,HF_wild_card,2022.2.4,Linux x86_64,60.00960154,57fde8979c39b3000179e347,64d2fd46c836a06233681665,64dc7db68c715a9620739a84,,,,,,,decisionTrl,resources/DY.BMP,resources/DP.BMP,WildCard_NonEx,0.254075139,-0.010359865,1,0,0,1.3632,optionRight,45,4975,3,4,0,4,0,1,,,,,,,,,,,,,,,,,,,,,,,,,,,,,,,,,,,,,,,
,,,,,,,,2023-08-16_08h42.02.895,HF_wild_card,2022.2.4,Linux x86_64,60.00960154,57fde8979c39b3000179e347,64d2fd46c836a06233681665,64dc7db68c715a9620739a84,,,,,,,decisionTrl,resources/DBN.BMP,resources/DG.BMP,Door3,-0.448544283,-0.017674653,1,0,0,1.895,optionLeft,70,5045,3,5,0,5,0,1,,,,,,,,,,,,,,,,,,,,,,,,,,,,,,,,,,,,,,,
,,,,,,,,2023-08-16_08h42.02.895,HF_wild_card,2022.2.4,Linux x86_64,60.00960154,57fde8979c39b3000179e347,64d2fd46c836a06233681665,64dc7db68c715a9620739a84,,,,,,,decisionTrl,resources/DB.BMP,resources/DY.BMP,Door1,0.228612296,-0.01592648,1,0,0,1.7973,optionRight,30,5075,3,6,0,6,0,1,,,,,,,,,,,,,,,,,,,,,,,,,,,,,,,,,,,,,,,
,,,,,,,,2023-08-16_08h42.02.895,HF_wild_card,2022.2.4,Linux x86_64,60.00960154,57fde8979c39b3000179e347,64d2fd46c836a06233681665,64dc7db68c715a9620739a84,,,,,,,decisionTrl,resources/DP.BMP,resources/DB.BMP,WildCard_NonEx,-0.327857876,0.004595265,1,0,0,1.2122,optionLeft,45,5120,3,7,0,7,0,1,,,,,,,,,,,,,,,,,,,,,,,,,,,,,,,,,,,,,,,
,,,,,,,,2023-08-16_08h42.02.895,HF_wild_card,2022.2.4,Linux x86_64,60.00960154,57fde8979c39b3000179e347,64d2fd46c836a06233681665,64dc7db68c715a9620739a84,,,,,,,decisionTrl,resources/DP.BMP,resources/DBN.BMP,Door3,0.399302797,-0.002719429,1,0,0,1.1127,optionRight,70,5190,3,8,0,8,0,1,,,,,,,,,,,,,,,,,,,,,,,,,,,,,,,,,,,,,,,
,,,,,,,,2023-08-16_08h42.02.895,HF_wild_card,2022.2.4,Linux x86_64,60.00960154,57fde8979c39b3000179e347,64d2fd46c836a06233681665,64dc7db68c715a9620739a84,,,,,,,decisionTrl,resources/DB.BMP,resources/DP.BMP,WildCard_NonEx,0.28371927,-0.013960133,1,0,0,1.6266,optionRight,55,5245,3,9,0,9,0,1,,,,,,,,,,,,,,,,,,,,,,,,,,,,,,,,,,,,,,,
,,,,,,,,2023-08-16_08h42.02.895,HF_wild_card,2022.2.4,Linux x86_64,60.00960154,57fde8979c39b3000179e347,64d2fd46c836a06233681665,64dc7db68c715a9620739a84,,,,,,,sngl,resources/DBN.BMP,resources/Empty.png,Door3,-0.451189124,0.014169112,1,0,0,0.9453,optionLeft,70,5315,3,10,0,10,0,1,,,,,,,,,,,,,,,,,,,,,,,,,,,,,,,,,,,,,,,
,,,,,,,,2023-08-16_08h42.02.895,HF_wild_card,2022.2.4,Linux x86_64,60.00960154,57fde8979c39b3000179e347,64d2fd46c836a06233681665,64dc7db68c715a9620739a84,,,,,,,sngl,resources/Empty.png,resources/DP.BMP,WildCard_NonEx,0.339408732,-0.026914466,1,0,0,0.9632,optionRight,45,5360,3,11,0,11,0,1,,,,,,,,,,,,,,,,,,,,,,,,,,,,,,,,,,,,,,,
,,,,,,,,2023-08-16_08h42.02.895,HF_wild_card,2022.2.4,Linux x86_64,60.00960154,57fde8979c39b3000179e347,64d2fd46c836a06233681665,64dc7db68c715a9620739a84,,,,,,,decisionTrl,resources/DBN.BMP,resources/DG.BMP,Door4,0.298198629,-0.012565945,1,0,0,1.4298,optionRight,80,5440,3,12,0,12,0,1,,,,,,,,,,,,,,,,,,,,,,,,,,,,,,,,,,,,,,,
,,,,,,,,2023-08-16_08h42.02.895,HF_wild_card,2022.2.4,Linux x86_64,60.00960154,57fde8979c39b3000179e347,64d2fd46c836a06233681665,64dc7db68c715a9620739a84,,,,,,,sngl,resources/Empty.png,resources/DB.BMP,Door2,0.365170023,-0.014264409,1,0,0,1.0298,optionRight,20,5460,3,13,0,13,0,1,,,,,,,,,,,,,,,,,,,,,,,,,,,,,,,,,,,,,,,
,,,,,,,,2023-08-16_08h42.02.895,HF_wild_card,2022.2.4,Linux x86_64,60.00960154,57fde8979c39b3000179e347,64d2fd46c836a06233681665,64dc7db68c715a9620739a84,,,,,,,sngl,resources/DY.BMP,resources/Empty.png,Door1,-0.343151353,0.040937436,1,0,0,0.8635,optionLeft,30,5490,3,14,0,14,0,1,,,,,,,,,,,,,,,,,,,,,,,,,,,,,,,,,,,,,,,
,,,,,,,,2023-08-16_08h42.02.895,HF_wild_card,2022.2.4,Linux x86_64,60.00960154,57fde8979c39b3000179e347,64d2fd46c836a06233681665,64dc7db68c715a9620739a84,,,,,,,decisionTrl,resources/DB.BMP,resources/DY.BMP,Door1,0.347632367,0.018548243,1,0,0,1.2299,optionRight,30,5520,3,15,0,15,0,1,,,,,,,,,,,,,,,,,,,,,,,,,,,,,,,,,,,,,,,
,,,,,,,,2023-08-16_08h42.02.895,HF_wild_card,2022.2.4,Linux x86_64,60.00960154,57fde8979c39b3000179e347,64d2fd46c836a06233681665,64dc7db68c715a9620739a84,,,,,,,decisionTrl,resources/DG.BMP,resources/DP.BMP,Door4,-0.333627831,0.029522298,1,0,0,1.2965,optionLeft,80,5600,3,16,0,16,0,1,,,,,,,,,,,,,,,,,,,,,,,,,,,,,,,,,,,,,,,
,,,,,,,,2023-08-16_08h42.02.895,HF_wild_card,2022.2.4,Linux x86_64,60.00960154,57fde8979c39b3000179e347,64d2fd46c836a06233681665,64dc7db68c715a9620739a84,,,,,,,sngl,resources/DP.BMP,resources/Empty.png,WildCard_NonEx,-0.299844019,0.016472621,1,0,0,0.9127,optionLeft,45,5645,3,17,0,17,0,1,,,,,,,,,,,,,,,,,,,,,,,,,,,,,,,,,,,,,,,
,,,,,,,,2023-08-16_08h42.02.895,HF_wild_card,2022.2.4,Linux x86_64,60.00960154,57fde8979c39b3000179e347,64d2fd46c836a06233681665,64dc7db68c715a9620739a84,,,,,,,sngl,resources/DB.BMP,resources/Empty.png,Door2,-0.374247675,0.007600014,1,0,0,0.8637,optionLeft,40,5685,3,18,0,18,0,1,,,,,,,,,,,,,,,,,,,,,,,,,,,,,,,,,,,,,,,
,,,,,,,,2023-08-16_08h42.02.895,HF_wild_card,2022.2.4,Linux x86_64,60.00960154,57fde8979c39b3000179e347,64d2fd46c836a06233681665,64dc7db68c715a9620739a84,,,,,,,decisionTrl,resources/DB.BMP,resources/DY.BMP,Door2,-0.282119182,0.029775916,1,0,0,2.0804,optionLeft,40,5725,3,19,0,19,0,1,,,,,,,,,,,,,,,,,,,,,,,,,,,,,,,,,,,,,,,
,,,,,,,,2023-08-16_08h42.02.895,HF_wild_card,2022.2.4,Linux x86_64,60.00960154,57fde8979c39b3000179e347,64d2fd46c836a06233681665,64dc7db68c715a9620739a84,,,,,,,decisionTrl,resources/DG.BMP,resources/DBN.BMP,Door4,-0.240719718,-0.016639425,1,0,0,1.3441,optionLeft,60,5785,3,20,0,20,0,1,,,,,,,,,,,,,,,,,,,,,,,,,,,,,,,,,,,,,,,
,,,,,,,,2023-08-16_08h42.02.895,HF_wild_card,2022.2.4,Linux x86_64,60.00960154,57fde8979c39b3000179e347,64d2fd46c836a06233681665,64dc7db68c715a9620739a84,,,,,,,sngl,resources/Empty.png,resources/DBN.BMP,Door3,0.446947086,0.017538556,1,0,0,0.8295,optionRight,70,5855,3,21,0,21,0,1,,,,,,,,,,,,,,,,,,,,,,,,,,,,,,,,,,,,,,,
,,,,,,,,2023-08-16_08h42.02.895,HF_wild_card,2022.2.4,Linux x86_64,60.00960154,57fde8979c39b3000179e347,64d2fd46c836a06233681665,64dc7db68c715a9620739a84,,,,,,,sngl,resources/DP.BMP,resources/Empty.png,WildCard_NonEx,-0.402920456,0.018938621,1,0,0,0.8616,optionLeft,55,5910,3,22,0,22,0,1,,,,,,,,,,,,,,,,,,,,,,,,,,,,,,,,,,,,,,,
,,,,,,,,2023-08-16_08h42.02.895,HF_wild_card,2022.2.4,Linux x86_64,60.00960154,57fde8979c39b3000179e347,64d2fd46c836a06233681665,64dc7db68c715a9620739a84,,,,,,,ctch,resources/DG.BMP,resources/DY.BMP,Door4,-0.297203585,0.010040236,1,0,0,1.0966,optionLeft,80,5990,3,23,0,23,0,1,,,,,,,,,,,,,,,,,,,,,,,,,,,,,,,,,,,,,,,
,,,,,,,,2023-08-16_08h42.02.895,HF_wild_card,2022.2.4,Linux x86_64,60.00960154,57fde8979c39b3000179e347,64d2fd46c836a06233681665,64dc7db68c715a9620739a84,,,,,,,decisionTrl,resources/DG.BMP,resources/DBN.BMP,Door3,0.353612106,0.001343958,1,0,0,1.2467,optionRight,70,6060,3,24,0,24,0,1,,,,,,,,,,,,,,,,,,,,,,,,,,,,,,,,,,,,,,,
,,,,,,,,2023-08-16_08h42.02.895,HF_wild_card,2022.2.4,Linux x86_64,60.00960154,57fde8979c39b3000179e347,64d2fd46c836a06233681665,64dc7db68c715a9620739a84,,,,,,,sngl,resources/Empty.png,resources/DP.BMP,WildCard_NonEx,0.235269013,0.001808214,1,0,0,0.947,optionRight,55,6115,3,25,0,25,0,1,,,,,,,,,,,,,,,,,,,,,,,,,,,,,,,,,,,,,,,
,,,,,,,,2023-08-16_08h42.02.895,HF_wild_card,2022.2.4,Linux x86_64,60.00960154,57fde8979c39b3000179e347,64d2fd46c836a06233681665,64dc7db68c715a9620739a84,,,,,,,ctch,resources/DB.BMP,resources/DBN.BMP,Door3,0.297999222,-0.014355061,1,0,0,1.1465,optionRight,70,6185,3,26,0,26,0,1,,,,,,,,,,,,,,,,,,,,,,,,,,,,,,,,,,,,,,,
,,,,,,,,2023-08-16_08h42.02.895,HF_wild_card,2022.2.4,Linux x86_64,60.00960154,57fde8979c39b3000179e347,64d2fd46c836a06233681665,64dc7db68c715a9620739a84,,,,,,,decisionTrl,resources/DY.BMP,resources/DB.BMP,Door1,-0.328503295,0.001442477,1,0,0,1.5466,optionLeft,30,6215,3,27,0,27,0,1,,,,,,,,,,,,,,,,,,,,,,,,,,,,,,,,,,,,,,,
,,,,,,,,2023-08-16_08h42.02.895,HF_wild_card,2022.2.4,Linux x86_64,60.00960154,57fde8979c39b3000179e347,64d2fd46c836a06233681665,64dc7db68c715a9620739a84,,,,,,,ctch,resources/DBN.BMP,resources/DB.BMP,Door3,-0.388208614,0.002455765,1,0,0,1.0795,optionLeft,70,6285,3,28,0,28,0,1,,,,,,,,,,,,,,,,,,,,,,,,,,,,,,,,,,,,,,,
,,,,,,,,2023-08-16_08h42.02.895,HF_wild_card,2022.2.4,Linux x86_64,60.00960154,57fde8979c39b3000179e347,64d2fd46c836a06233681665,64dc7db68c715a9620739a84,,,,,,,ctch,resources/DB.BMP,resources/DBN.BMP,Door3,0.285499241,0.044819234,1,0,0,1.0804,optionRight,70,6355,3,29,0,29,0,1,,,,,,,,,,,,,,,,,,,,,,,,,,,,,,,,,,,,,,,
,,,,,,,,2023-08-16_08h42.02.895,HF_wild_card,2022.2.4,Linux x86_64,60.00960154,57fde8979c39b3000179e347,64d2fd46c836a06233681665,64dc7db68c715a9620739a84,,,,,,,decisionTrl,resources/DP.BMP,resources/DG.BMP,Door4,0.431135853,0.015503498,1,0,0,1.3632,optionRight,80,6435,3,30,0,30,0,1,,,,,,,,,,,,,,,,,,,,,,,,,,,,,,,,,,,,,,,
,,,,,,,,2023-08-16_08h42.02.895,HF_wild_card,2022.2.4,Linux x86_64,60.00960154,57fde8979c39b3000179e347,64d2fd46c836a06233681665,64dc7db68c715a9620739a84,,,,,,,decisionTrl,resources/DB.BMP,resources/DY.BMP,Door1,0.319699684,-0.015497338,1,0,0,1.2629,optionRight,30,6465,3,31,0,31,0,1,,,,,,,,,,,,,,,,,,,,,,,,,,,,,,,,,,,,,,,
,,,,,,,,2023-08-16_08h42.02.895,HF_wild_card,2022.2.4,Linux x86_64,60.00960154,57fde8979c39b3000179e347,64d2fd46c836a06233681665,64dc7db68c715a9620739a84,,,,,,,decisionTrl,resources/DBN.BMP,resources/DG.BMP,Door4,0.362723972,0.002353929,1,0,0,1.6789,optionRight,80,6545,3,32,0,32,0,1,,,,,,,,,,,,,,,,,,,,,,,,,,,,,,,,,,,,,,,
,,,,,,,,2023-08-16_08h42.02.895,HF_wild_card,2022.2.4,Linux x86_64,60.00960154,57fde8979c39b3000179e347,64d2fd46c836a06233681665,64dc7db68c715a9620739a84,,,,,,,decisionTrl,resources/DP.BMP,resources/DY.BMP,WildCard_NonEx,-0.363653811,-0.000644186,1,0,0,1.5298,optionLeft,55,6600,3,33,0,33,0,1,,,,,,,,,,,,,,,,,,,,,,,,,,,,,,,,,,,,,,,
,,,,,,,,2023-08-16_08h42.02.895,HF_wild_card,2022.2.4,Linux x86_64,60.00960154,57fde8979c39b3000179e347,64d2fd46c836a06233681665,64dc7db68c715a9620739a84,,,,,,,ctch,resources/DY.BMP,resources/DG.BMP,Door4,0.406352641,-0.03038513,1,0,0,1.2781,optionRight,60,6660,3,34,0,34,0,1,,,,,,,,,,,,,,,,,,,,,,,,,,,,,,,,,,,,,,,
,,,,,,,,2023-08-16_08h42.02.895,HF_wild_card,2022.2.4,Linux x86_64,60.00960154,57fde8979c39b3000179e347,64d2fd46c836a06233681665,64dc7db68c715a9620739a84,,,,,,,decisionTrl,resources/DBN.BMP,resources/DG.BMP,Door3,-0.323443016,0.008103981,1,0,0,1.0136,optionLeft,70,6730,3,35,0,35,0,1,,,,,,,,,,,,,,,,,,,,,,,,,,,,,,,,,,,,,,,
,,,,,,,,2023-08-16_08h42.02.895,HF_wild_card,2022.2.4,Linux x86_64,60.00960154,57fde8979c39b3000179e347,64d2fd46c836a06233681665,64dc7db68c715a9620739a84,,,,,,,decisionTrl,resources/DY.BMP,resources/DB.BMP,Door1,-0.29358801,0.030693528,1,0,0,1.3805,optionLeft,30,6760,3,36,0,36,0,1,,,,,,,,,,,,,,,,,,,,,,,,,,,,,,,,,,,,,,,
,,,,,,,,2023-08-16_08h42.02.895,HF_wild_card,2022.2.4,Linux x86_64,60.00960154,57fde8979c39b3000179e347,64d2fd46c836a06233681665,64dc7db68c715a9620739a84,,,,,,,sngl,resources/Empty.png,resources/DG.BMP,Door4,0.373984674,-0.027804926,1,0,0,0.9292,optionRight,60,6820,3,37,0,37,0,1,,,,,,,,,,,,,,,,,,,,,,,,,,,,,,,,,,,,,,,
,,,,,,,,2023-08-16_08h42.02.895,HF_wild_card,2022.2.4,Linux x86_64,60.00960154,57fde8979c39b3000179e347,64d2fd46c836a06233681665,64dc7db68c715a9620739a84,,,,,,,sngl,resources/DG.BMP,resources/Empty.png,Door4,-0.385212869,0.001168624,1,0,0,0.8638,optionLeft,80,6900,3,38,0,38,0,1,,,,,,,,,,,,,,,,,,,,,,,,,,,,,,,,,,,,,,,
,,,,,,,,2023-08-16_08h42.02.895,HF_wild_card,2022.2.4,Linux x86_64,60.00960154,57fde8979c39b3000179e347,64d2fd46c836a06233681665,64dc7db68c715a9620739a84,,,,,,,ctch,resources/DG.BMP,resources/DY.BMP,Door4,-0.40731712,-0.0062344,1,0,0,1.1303,optionLeft,60,6960,3,39,0,39,0,1,,,,,,,,,,,,,,,,,,,,,,,,,,,,,,,,,,,,,,,
,,,,,,,,2023-08-16_08h42.02.895,HF_wild_card,2022.2.4,Linux x86_64,60.00960154,57fde8979c39b3000179e347,64d2fd46c836a06233681665,64dc7db68c715a9620739a84,,,,,,,ctch,resources/DY.BMP,resources/DG.BMP,Door4,0.432301397,-0.031798606,1,0,0,1.3471,optionRight,60,7020,3,40,0,40,0,1,,,,,,,,,,,,,,,,,,,,,,,,,,,,,,,,,,,,,,,
,,,,,,,,2023-08-16_08h42.02.895,HF_wild_card,2022.2.4,Linux x86_64,60.00960154,57fde8979c39b3000179e347,64d2fd46c836a06233681665,64dc7db68c715a9620739a84,,,,,,,decisionTrl,resources/DBN.BMP,resources/DP.BMP,Door3,-0.397774785,0.015522216,1,0,0,1.1807,optionLeft,70,7090,3,41,0,41,0,1,,,,,,,,,,,,,,,,,,,,,,,,,,,,,,,,,,,,,,,
,,,,,,,,2023-08-16_08h42.02.895,HF_wild_card,2022.2.4,Linux x86_64,60.00960154,57fde8979c39b3000179e347,64d2fd46c836a06233681665,64dc7db68c715a9620739a84,,,,,,,decisionTrl,resources/DG.BMP,resources/DBN.BMP,Door3,0.404063065,-0.016804666,1,0,0,1.8474,optionRight,70,7160,3,42,0,42,0,1,,,,,,,,,,,,,,,,,,,,,,,,,,,,,,,,,,,,,,,
,,,,,,,,2023-08-16_08h42.02.895,HF_wild_card,2022.2.4,Linux x86_64,60.00960154,57fde8979c39b3000179e347,64d2fd46c836a06233681665,64dc7db68c715a9620739a84,,,,,,,ctch,resources/DBN.BMP,resources/DB.BMP,Door3,-0.298099352,0.004352498,1,0,0,1.1966,optionLeft,70,7230,3,43,0,43,0,1,,,,,,,,,,,,,,,,,,,,,,,,,,,,,,,,,,,,,,,
,,,,,,,,2023-08-16_08h42.02.895,HF_wild_card,2022.2.4,Linux x86_64,60.00960154,57fde8979c39b3000179e347,64d2fd46c836a06233681665,64dc7db68c715a9620739a84,,,,,,,,,,,,,,,,,,,,,,,,,,2,0,2,0,1,,,,,,,,,,,,,,,,,,,,,,,,,,,,,,,,,,
,,,,,,,,2023-08-16_08h42.02.895,HF_wild_card,2022.2.4,Linux x86_64,60.00960154,57fde8979c39b3000179e347,64d2fd46c836a06233681665,64dc7db68c715a9620739a84,,,,,,,sngl,resources/Empty.png,resources/DR.BMP,WildCard_Ex,0.318275783,-0.134214697,1,0,0,1.1674,optionRight,45,7275,4,0,0,0,0,1,,,,,,,,,,,,,,,,,,,,,,,,,,,,,,,,,,,,,,,
,,,,,,,,2023-08-16_08h42.02.895,HF_wild_card,2022.2.4,Linux x86_64,60.00960154,57fde8979c39b3000179e347,64d2fd46c836a06233681665,64dc7db68c715a9620739a84,,,,,,,sngl,resources/Empty.png,resources/DBN.BMP,Door3,0.18329445,-0.014043962,1,0,0,0.9132,optionRight,70,7345,4,1,0,1,0,1,,,,,,,,,,,,,,,,,,,,,,,,,,,,,,,,,,,,,,,
,,,,,,,,2023-08-16_08h42.02.895,HF_wild_card,2022.2.4,Linux x86_64,60.00960154,57fde8979c39b3000179e347,64d2fd46c836a06233681665,64dc7db68c715a9620739a84,,,,,,,sngl,resources/DG.BMP,resources/Empty.png,Door4,-0.426811645,0.004295586,1,0,0,0.8627,optionLeft,60,7405,4,2,0,2,0,1,,,,,,,,,,,,,,,,,,,,,,,,,,,,,,,,,,,,,,,
,,,,,,,,2023-08-16_08h42.02.895,HF_wild_card,2022.2.4,Linux x86_64,60.00960154,57fde8979c39b3000179e347,64d2fd46c836a06233681665,64dc7db68c715a9620739a84,,,,,,,decisionTrl,resources/DG.BMP,resources/DBN.BMP,Door3,0.301075148,0.000681196,1,0,0,1.6803,optionRight,70,7475,4,3,0,3,0,1,,,,,,,,,,,,,,,,,,,,,,,,,,,,,,,,,,,,,,,
,,,,,,,,2023-08-16_08h42.02.895,HF_wild_card,2022.2.4,Linux x86_64,60.00960154,57fde8979c39b3000179e347,64d2fd46c836a06233681665,64dc7db68c715a9620739a84,,,,,,,sngl,resources/Empty.png,resources/DB.BMP,Door2,0.429984051,0.000538939,1,0,0,0.9082,optionRight,40,7515,4,4,0,4,0,1,,,,,,,,,,,,,,,,,,,,,,,,,,,,,,,,,,,,,,,
,,,,,,,,2023-08-16_08h42.02.895,HF_wild_card,2022.2.4,Linux x86_64,60.00960154,57fde8979c39b3000179e347,64d2fd46c836a06233681665,64dc7db68c715a9620739a84,,,,,,,sngl,resources/Empty.png,resources/DY.BMP,Door1,0.433863006,0.000879323,1,0,0,0.8634,optionRight,30,7545,4,5,0,5,0,1,,,,,,,,,,,,,,,,,,,,,,,,,,,,,,,,,,,,,,,
,,,,,,,,2023-08-16_08h42.02.895,HF_wild_card,2022.2.4,Linux x86_64,60.00960154,57fde8979c39b3000179e347,64d2fd46c836a06233681665,64dc7db68c715a9620739a84,,,,,,,decisionTrl,resources/DY.BMP,resources/DB.BMP,Door2,0.263510473,-0.002626549,1,0,0,1.0975,optionRight,20,7565,4,6,0,6,0,1,,,,,,,,,,,,,,,,,,,,,,,,,,,,,,,,,,,,,,,
,,,,,,,,2023-08-16_08h42.02.895,HF_wild_card,2022.2.4,Linux x86_64,60.00960154,57fde8979c39b3000179e347,64d2fd46c836a06233681665,64dc7db68c715a9620739a84,,,,,,,decisionTrl,resources/DG.BMP,resources/DR.BMP,Door4,-0.349477022,-0.012072451,1,0,0,1.3296,optionLeft,80,7645,4,7,0,7,0,1,,,,,,,,,,,,,,,,,,,,,,,,,,,,,,,,,,,,,,,
,,,,,,,,2023-08-16_08h42.02.895,HF_wild_card,2022.2.4,Linux x86_64,60.00960154,57fde8979c39b3000179e347,64d2fd46c836a06233681665,64dc7db68c715a9620739a84,,,,,,,decisionTrl,resources/DG.BMP,resources/DBN.BMP,Door4,-0.337966635,0.04770286,1,0,0,2.1302,optionLeft,60,7705,4,8,0,8,0,1,,,,,,,,,,,,,,,,,,,,,,,,,,,,,,,,,,,,,,,
,,,,,,,,2023-08-16_08h42.02.895,HF_wild_card,2022.2.4,Linux x86_64,60.00960154,57fde8979c39b3000179e347,64d2fd46c836a06233681665,64dc7db68c715a9620739a84,,,,,,,decisionTrl,resources/DG.BMP,resources/DBN.BMP,Door3,0.340527931,0.002360042,1,0,0,1.4143,optionRight,70,7775,4,9,0,9,0,1,,,,,,,,,,,,,,,,,,,,,,,,,,,,,,,,,,,,,,,
,,,,,,,,2023-08-16_08h42.02.895,HF_wild_card,2022.2.4,Linux x86_64,60.00960154,57fde8979c39b3000179e347,64d2fd46c836a06233681665,64dc7db68c715a9620739a84,,,,,,,ctch,resources/DG.BMP,resources/DY.BMP,Door4,-0.425829064,-0.039994518,1,0,0,1.2963,optionLeft,80,7855,4,10,0,10,0,1,,,,,,,,,,,,,,,,,,,,,,,,,,,,,,,,,,,,,,,
,,,,,,,,2023-08-16_08h42.02.895,HF_wild_card,2022.2.4,Linux x86_64,60.00960154,57fde8979c39b3000179e347,64d2fd46c836a06233681665,64dc7db68c715a9620739a84,,,,,,,decisionTrl,resources/DB.BMP,resources/DY.BMP,Door1,0.400353284,-0.02859625,1,0,0,1.3133,optionRight,30,7885,4,11,0,11,0,1,,,,,,,,,,,,,,,,,,,,,,,,,,,,,,,,,,,,,,,
,,,,,,,,2023-08-16_08h42.02.895,HF_wild_card,2022.2.4,Linux x86_64,60.00960154,57fde8979c39b3000179e347,64d2fd46c836a06233681665,64dc7db68c715a9620739a84,,,,,,,ctch,resources/DB.BMP,resources/DBN.BMP,Door3,0.39645272,0.02816,1,0,0,1.0634,optionRight,70,7955,4,12,0,12,0,1,,,,,,,,,,,,,,,,,,,,,,,,,,,,,,,,,,,,,,,
,,,,,,,,2023-08-16_08h42.02.895,HF_wild_card,2022.2.4,Linux x86_64,60.00960154,57fde8979c39b3000179e347,64d2fd46c836a06233681665,64dc7db68c715a9620739a84,,,,,,,decisionTrl,resources/DB.BMP,resources/DR.BMP,WildCard_Ex,0.375547042,0.031527312,1,0,0,1.3631,optionRight,45,8000,4,13,0,13,0,1,,,,,,,,,,,,,,,,,,,,,,,,,,,,,,,,,,,,,,,
,,,,,,,,2023-08-16_08h42.02.895,HF_wild_card,2022.2.4,Linux x86_64,60.00960154,57fde8979c39b3000179e347,64d2fd46c836a06233681665,64dc7db68c715a9620739a84,,,,,,,decisionTrl,resources/DR.BMP,resources/DG.BMP,Door4,0.277759718,-0.01051558,1,0,0,1.214,optionRight,60,8060,4,14,0,14,0,1,,,,,,,,,,,,,,,,,,,,,,,,,,,,,,,,,,,,,,,
,,,,,,,,2023-08-16_08h42.02.895,HF_wild_card,2022.2.4,Linux x86_64,60.00960154,57fde8979c39b3000179e347,64d2fd46c836a06233681665,64dc7db68c715a9620739a84,,,,,,,sngl,resources/DBN.BMP,resources/Empty.png,Door3,-0.303005195,0.02875097,1,0,0,0.8963,optionLeft,70,8130,4,15,0,15,0,1,,,,,,,,,,,,,,,,,,,,,,,,,,,,,,,,,,,,,,,
,,,,,,,,2023-08-16_08h42.02.895,HF_wild_card,2022.2.4,Linux x86_64,60.00960154,57fde8979c39b3000179e347,64d2fd46c836a06233681665,64dc7db68c715a9620739a84,,,,,,,decisionTrl,resources/DR.BMP,resources/DBN.BMP,Door3,0.375139319,-0.003599368,1,0,0,1.0132,optionRight,70,8200,4,16,0,16,0,1,,,,,,,,,,,,,,,,,,,,,,,,,,,,,,,,,,,,,,,
,,,,,,,,2023-08-16_08h42.02.895,HF_wild_card,2022.2.4,Linux x86_64,60.00960154,57fde8979c39b3000179e347,64d2fd46c836a06233681665,64dc7db68c715a9620739a84,,,,,,,decisionTrl,resources/DR.BMP,resources/DB.BMP,WildCard_Ex,-0.357542808,-7.89476E-05,1,0,0,1.5291,optionLeft,55,8255,4,17,0,17,0,1,,,,,,,,,,,,,,,,,,,,,,,,,,,,,,,,,,,,,,,
,,,,,,,,2023-08-16_08h42.02.895,HF_wild_card,2022.2.4,Linux x86_64,60.00960154,57fde8979c39b3000179e347,64d2fd46c836a06233681665,64dc7db68c715a9620739a84,,,,,,,ctch,resources/DY.BMP,resources/DG.BMP,Door4,0.373108479,-0.03891612,1,0,0,1.0966,optionRight,80,8335,4,18,0,18,0,1,,,,,,,,,,,,,,,,,,,,,,,,,,,,,,,,,,,,,,,
,,,,,,,,2023-08-16_08h42.02.895,HF_wild_card,2022.2.4,Linux x86_64,60.00960154,57fde8979c39b3000179e347,64d2fd46c836a06233681665,64dc7db68c715a9620739a84,,,,,,,decisionTrl,resources/DY.BMP,resources/DB.BMP,Door1,-0.453464627,0.003525728,1,0,0,1.1298,optionLeft,30,8365,4,19,0,19,0,1,,,,,,,,,,,,,,,,,,,,,,,,,,,,,,,,,,,,,,,
,,,,,,,,2023-08-16_08h42.02.895,HF_wild_card,2022.2.4,Linux x86_64,60.00960154,57fde8979c39b3000179e347,64d2fd46c836a06233681665,64dc7db68c715a9620739a84,,,,,,,ctch,resources/DBN.BMP,resources/DB.BMP,Door3,-0.341005882,0.01015643,1,0,0,0.9477,optionLeft,70,8435,4,20,0,20,0,1,,,,,,,,,,,,,,,,,,,,,,,,,,,,,,,,,,,,,,,
,,,,,,,,2023-08-16_08h42.02.895,HF_wild_card,2022.2.4,Linux x86_64,60.00960154,57fde8979c39b3000179e347,64d2fd46c836a06233681665,64dc7db68c715a9620739a84,,,,,,,decisionTrl,resources/DBN.BMP,resources/DR.BMP,Door3,-0.343238783,-0.001920807,1,0,0,0.9464,optionLeft,70,8505,4,21,0,21,0,1,,,,,,,,,,,,,,,,,,,,,,,,,,,,,,,,,,,,,,,
,,,,,,,,2023-08-16_08h42.02.895,HF_wild_card,2022.2.4,Linux x86_64,60.00960154,57fde8979c39b3000179e347,64d2fd46c836a06233681665,64dc7db68c715a9620739a84,,,,,,,decisionTrl,resources/DY.BMP,resources/DB.BMP,Door2,0.289834822,-0.034157036,1,0,0,1.4961,optionRight,40,8545,4,22,0,22,0,1,,,,,,,,,,,,,,,,,,,,,,,,,,,,,,,,,,,,,,,
,,,,,,,,2023-08-16_08h42.02.895,HF_wild_card,2022.2.4,Linux x86_64,60.00960154,57fde8979c39b3000179e347,64d2fd46c836a06233681665,64dc7db68c715a9620739a84,,,,,,,decisionTrl,resources/DB.BMP,resources/DY.BMP,Door1,0.236210035,-0.02746999,1,0,0,1.1797,optionRight,30,8575,4,23,0,23,0,1,,,,,,,,,,,,,,,,,,,,,,,,,,,,,,,,,,,,,,,
,,,,,,,,2023-08-16_08h42.02.895,HF_wild_card,2022.2.4,Linux x86_64,60.00960154,57fde8979c39b3000179e347,64d2fd46c836a06233681665,64dc7db68c715a9620739a84,,,,,,,sngl,resources/DR.BMP,resources/Empty.png,WildCard_Ex,-0.320288948,0.004107505,1,0,0,0.8135,optionLeft,55,8630,4,24,0,24,0,1,,,,,,,,,,,,,,,,,,,,,,,,,,,,,,,,,,,,,,,
,,,,,,,,2023-08-16_08h42.02.895,HF_wild_card,2022.2.4,Linux x86_64,60.00960154,57fde8979c39b3000179e347,64d2fd46c836a06233681665,64dc7db68c715a9620739a84,,,,,,,decisionTrl,resources/DBN.BMP,resources/DG.BMP,Door4,0.310490768,-0.002053918,1,0,0,1.3802,optionRight,80,8710,4,25,0,25,0,1,,,,,,,,,,,,,,,,,,,,,,,,,,,,,,,,,,,,,,,
,,,,,,,,2023-08-16_08h42.02.895,HF_wild_card,2022.2.4,Linux x86_64,60.00960154,57fde8979c39b3000179e347,64d2fd46c836a06233681665,64dc7db68c715a9620739a84,,,,,,,decisionTrl,resources/DBN.BMP,resources/DG.BMP,Door3,-0.384083529,-0.009473102,1,0,0,0.9636,optionLeft,70,8780,4,26,0,26,0,1,,,,,,,,,,,,,,,,,,,,,,,,,,,,,,,,,,,,,,,
,,,,,,,,2023-08-16_08h42.02.895,HF_wild_card,2022.2.4,Linux x86_64,60.00960154,57fde8979c39b3000179e347,64d2fd46c836a06233681665,64dc7db68c715a9620739a84,,,,,,,ctch,resources/DBN.BMP,resources/DB.BMP,Door3,-0.352859355,0.016493187,1,0,0,1.0142,optionLeft,70,8850,4,27,0,27,0,1,,,,,,,,,,,,,,,,,,,,,,,,,,,,,,,,,,,,,,,
,,,,,,,,2023-08-16_08h42.02.895,HF_wild_card,2022.2.4,Linux x86_64,60.00960154,57fde8979c39b3000179e347,64d2fd46c836a06233681665,64dc7db68c715a9620739a84,,,,,,,decisionTrl,resources/DBN.BMP,resources/DG.BMP,Door4,0.339698175,-0.003775745,1,0,0,1.1971,optionRight,80,8930,4,28,0,28,0,1,,,,,,,,,,,,,,,,,,,,,,,,,,,,,,,,,,,,,,,
,,,,,,,,2023-08-16_08h42.02.895,HF_wild_card,2022.2.4,Linux x86_64,60.00960154,57fde8979c39b3000179e347,64d2fd46c836a06233681665,64dc7db68c715a9620739a84,,,,,,,sngl,resources/DR.BMP,resources/Empty.png,WildCard_Ex,-0.417565529,0.005761141,1,0,0,0.8125,optionLeft,45,8975,4,29,0,29,0,1,,,,,,,,,,,,,,,,,,,,,,,,,,,,,,,,,,,,,,,
,,,,,,,,2023-08-16_08h42.02.895,HF_wild_card,2022.2.4,Linux x86_64,60.00960154,57fde8979c39b3000179e347,64d2fd46c836a06233681665,64dc7db68c715a9620739a84,,,,,,,decisionTrl,resources/DB.BMP,resources/DY.BMP,Door2,-0.371030203,0.054566567,1,0,0,2.2132,optionLeft,20,8995,4,30,0,30,0,1,,,,,,,,,,,,,,,,,,,,,,,,,,,,,,,,,,,,,,,
,,,,,,,,2023-08-16_08h42.02.895,HF_wild_card,2022.2.4,Linux x86_64,60.00960154,57fde8979c39b3000179e347,64d2fd46c836a06233681665,64dc7db68c715a9620739a84,,,,,,,decisionTrl,resources/DY.BMP,resources/DB.BMP,Door1,-0.229698797,0.004152523,1,0,0,1.1282,optionLeft,30,9025,4,31,0,31,0,1,,,,,,,,,,,,,,,,,,,,,,,,,,,,,,,,,,,,,,,
,,,,,,,,2023-08-16_08h42.02.895,HF_wild_card,2022.2.4,Linux x86_64,60.00960154,57fde8979c39b3000179e347,64d2fd46c836a06233681665,64dc7db68c715a9620739a84,,,,,,,decisionTrl,resources/DG.BMP,resources/DBN.BMP,Door3,0.547527242,-0.01873149,1,0,0,1.8131,optionRight,70,9095,4,32,0,32,0,1,,,,,,,,,,,,,,,,,,,,,,,,,,,,,,,,,,,,,,,
,,,,,,,,2023-08-16_08h42.02.895,HF_wild_card,2022.2.4,Linux x86_64,60.00960154,57fde8979c39b3000179e347,64d2fd46c836a06233681665,64dc7db68c715a9620739a84,,,,,,,sngl,resources/Empty.png,resources/DR.BMP,WildCard_Ex,0.441800325,0.024283036,1,0,0,0.8969,optionRight,55,9150,4,33,0,33,0,1,,,,,,,,,,,,,,,,,,,,,,,,,,,,,,,,,,,,,,,
,,,,,,,,2023-08-16_08h42.02.895,HF_wild_card,2022.2.4,Linux x86_64,60.00960154,57fde8979c39b3000179e347,64d2fd46c836a06233681665,64dc7db68c715a9620739a84,,,,,,,sngl,resources/Empty.png,resources/DG.BMP,Door4,0.262766678,-0.002427522,1,0,0,0.8794,optionRight,80,9230,4,34,0,34,0,1,,,,,,,,,,,,,,,,,,,,,,,,,,,,,,,,,,,,,,,
,,,,,,,,2023-08-16_08h42.02.895,HF_wild_card,2022.2.4,Linux x86_64,60.00960154,57fde8979c39b3000179e347,64d2fd46c836a06233681665,64dc7db68c715a9620739a84,,,,,,,ctch,resources/DB.BMP,resources/DBN.BMP,Door3,0.21630158,0.005123589,1,0,0,1.2805,optionRight,70,9300,4,35,0,35,0,1,,,,,,,,,,,,,,,,,,,,,,,,,,,,,,,,,,,,,,,
,,,,,,,,2023-08-16_08h42.02.895,HF_wild_card,2022.2.4,Linux x86_64,60.00960154,57fde8979c39b3000179e347,64d2fd46c836a06233681665,64dc7db68c715a9620739a84,,,,,,,sngl,resources/DB.BMP,resources/Empty.png,Door2,-0.41953524,0.002393166,1,0,0,0.8799,optionLeft,20,9320,4,36,0,36,0,1,,,,,,,,,,,,,,,,,,,,,,,,,,,,,,,,,,,,,,,
,,,,,,,,2023-08-16_08h42.02.895,HF_wild_card,2022.2.4,Linux x86_64,60.00960154,57fde8979c39b3000179e347,64d2fd46c836a06233681665,64dc7db68c715a9620739a84,,,,,,,decisionTrl,resources/DY.BMP,resources/DR.BMP,WildCard_Ex,0.316976417,0.006503703,1,0,0,1.7301,optionRight,45,9365,4,37,0,37,0,1,,,,,,,,,,,,,,,,,,,,,,,,,,,,,,,,,,,,,,,
,,,,,,,,2023-08-16_08h42.02.895,HF_wild_card,2022.2.4,Linux x86_64,60.00960154,57fde8979c39b3000179e347,64d2fd46c836a06233681665,64dc7db68c715a9620739a84,,,,,,,decisionTrl,resources/DB.BMP,resources/DY.BMP,Door1,0.365454727,-0.015317076,1,0,0,1.1632,optionRight,30,9395,4,38,0,38,0,1,,,,,,,,,,,,,,,,,,,,,,,,,,,,,,,,,,,,,,,
,,,,,,,,2023-08-16_08h42.02.895,HF_wild_card,2022.2.4,Linux x86_64,60.00960154,57fde8979c39b3000179e347,64d2fd46c836a06233681665,64dc7db68c715a9620739a84,,,,,,,ctch,resources/DY.BMP,resources/DG.BMP,Door4,0.315619048,-0.014828984,1,0,0,0.9802,optionRight,60,9455,4,39,0,39,0,1,,,,,,,,,,,,,,,,,,,,,,,,,,,,,,,,,,,,,,,
,,,,,,,,2023-08-16_08h42.02.895,HF_wild_card,2022.2.4,Linux x86_64,60.00960154,57fde8979c39b3000179e347,64d2fd46c836a06233681665,64dc7db68c715a9620739a84,,,,,,,decisionTrl,resources/DR.BMP,resources/DY.BMP,WildCard_Ex,-0.237771265,0.024297679,1,0,0,1.5138,optionLeft,55,9510,4,40,0,40,0,1,,,,,,,,,,,,,,,,,,,,,,,,,,,,,,,,,,,,,,,
,,,,,,,,2023-08-16_08h42.02.895,HF_wild_card,2022.2.4,Linux x86_64,60.00960154,57fde8979c39b3000179e347,64d2fd46c836a06233681665,64dc7db68c715a9620739a84,,,,,,,sngl,resources/DY.BMP,resources/Empty.png,Door1,-0.301864908,-0.00646423,1,0,0,0.8795,optionLeft,30,9540,4,41,0,41,0,1,,,,,,,,,,,,,,,,,,,,,,,,,,,,,,,,,,,,,,,
,,,,,,,,2023-08-16_08h42.02.895,HF_wild_card,2022.2.4,Linux x86_64,60.00960154,57fde8979c39b3000179e347,64d2fd46c836a06233681665,64dc7db68c715a9620739a84,,,,,,,ctch,resources/DG.BMP,resources/DY.BMP,Door4,-0.55931096,-0.026632889,1,0,0,1.1629,optionLeft,60,9600,4,42,0,42,0,1,,,,,,,,,,,,,,,,,,,,,,,,,,,,,,,,,,,,,,,
,,,,,,,,2023-08-16_08h42.02.895,HF_wild_card,2022.2.4,Linux x86_64,60.00960154,57fde8979c39b3000179e347,64d2fd46c836a06233681665,64dc7db68c715a9620739a84,,,,,,,decisionTrl,resources/DBN.BMP,resources/DG.BMP,Door4,0.393209422,-0.007032169,1,0,0,1.4968,optionRight,80,9680,4,43,0,43,0,1,,,,,,,,,,,,,,,,,,,,,,,,,,,,,,,,,,,,,,,
,,,,,,,,2023-08-16_08h42.02.895,HF_wild_card,2022.2.4,Linux x86_64,60.00960154,57fde8979c39b3000179e347,64d2fd46c836a06233681665,64dc7db68c715a9620739a84,,,,,,,,,,,,,,,,,,,,,,,,,,3,0,3,0,1,,,,,,,,,,,,,,,,,,,,,,,,,,,,,,,,,,
,,,,,,,,2023-08-16_08h42.02.895,HF_wild_card,2022.2.4,Linux x86_64,60.00960154,57fde8979c39b3000179e347,64d2fd46c836a06233681665,64dc7db68c715a9620739a84,,,,,,,decisionTrl,resources/DY.BMP,resources/DB.BMP,Door2,0.280447918,-0.113265328,1,0,0,1.8432,optionRight,40,9720,5,0,0,0,0,1,,,,,,,,,,,,,,,,,,,,,,,,,,,,,,,,,,,,,,,
,,,,,,,,2023-08-16_08h42.02.895,HF_wild_card,2022.2.4,Linux x86_64,60.00960154,57fde8979c39b3000179e347,64d2fd46c836a06233681665,64dc7db68c715a9620739a84,,,,,,,decisionTrl,resources/DY.BMP,resources/DR.BMP,WildCard_Ex,0.242341604,-0.021888212,1,0,0,1.2631,optionRight,55,9775,5,1,0,1,0,1,,,,,,,,,,,,,,,,,,,,,,,,,,,,,,,,,,,,,,,
,,,,,,,,2023-08-16_08h42.02.895,HF_wild_card,2022.2.4,Linux x86_64,60.00960154,57fde8979c39b3000179e347,64d2fd46c836a06233681665,64dc7db68c715a9620739a84,,,,,,,decisionTrl,resources/DBN.BMP,resources/DG.BMP,Door4,0.192746938,-0.022424591,1,0,0,1.3601,optionRight,80,9855,5,2,0,2,0,1,,,,,,,,,,,,,,,,,,,,,,,,,,,,,,,,,,,,,,,
,,,,,,,,2023-08-16_08h42.02.895,HF_wild_card,2022.2.4,Linux x86_64,60.00960154,57fde8979c39b3000179e347,64d2fd46c836a06233681665,64dc7db68c715a9620739a84,,,,,,,decisionTrl,resources/DB.BMP,resources/DY.BMP,Door1,0.318962808,-0.030709972,1,0,0,1.7292,optionRight,30,9885,5,3,0,3,0,1,,,,,,,,,,,,,,,,,,,,,,,,,,,,,,,,,,,,,,,
,,,,,,,,2023-08-16_08h42.02.895,HF_wild_card,2022.2.4,Linux x86_64,60.00960154,57fde8979c39b3000179e347,64d2fd46c836a06233681665,64dc7db68c715a9620739a84,,,,,,,sngl,resources/Empty.png,resources/DY.BMP,Door1,0.366577622,-0.006979948,1,0,0,0.8966,optionRight,30,9915,5,4,0,4,0,1,,,,,,,,,,,,,,,,,,,,,,,,,,,,,,,,,,,,,,,
,,,,,,,,2023-08-16_08h42.02.895,HF_wild_card,2022.2.4,Linux x86_64,60.00960154,57fde8979c39b3000179e347,64d2fd46c836a06233681665,64dc7db68c715a9620739a84,,,,,,,ctch,resources/DG.BMP,resources/DY.BMP,Door4,-0.26216732,0.007466097,1,0,0,1.0974,optionLeft,80,9995,5,5,0,5,0,1,,,,,,,,,,,,,,,,,,,,,,,,,,,,,,,,,,,,,,,
,,,,,,,,2023-08-16_08h42.02.895,HF_wild_card,2022.2.4,Linux x86_64,60.00960154,57fde8979c39b3000179e347,64d2fd46c836a06233681665,64dc7db68c715a9620739a84,,,,,,,sngl,resources/DR.BMP,resources/Empty.png,WildCard_Ex,-0.419930973,-0.025643153,1,0,0,0.9139,optionLeft,55,10050,5,6,0,6,0,1,,,,,,,,,,,,,,,,,,,,,,,,,,,,,,,,,,,,,,,
,,,,,,,,2023-08-16_08h42.02.895,HF_wild_card,2022.2.4,Linux x86_64,60.00960154,57fde8979c39b3000179e347,64d2fd46c836a06233681665,64dc7db68c715a9620739a84,,,,,,,decisionTrl,resources/DG.BMP,resources/DBN.BMP,Door3,0.42566098,-0.01560287,1,0,0,1.3968,optionRight,70,10120,5,7,0,7,0,1,,,,,,,,,,,,,,,,,,,,,,,,,,,,,,,,,,,,,,,
,,,,,,,,2023-08-16_08h42.02.895,HF_wild_card,2022.2.4,Linux x86_64,60.00960154,57fde8979c39b3000179e347,64d2fd46c836a06233681665,64dc7db68c715a9620739a84,,,,,,,decisionTrl,resources/DG.BMP,resources/DBN.BMP,Door4,-0.380993956,0.012180684,1,0,0,1.2642,optionLeft,80,10200,5,8,0,8,0,1,,,,,,,,,,,,,,,,,,,,,,,,,,,,,,,,,,,,,,,
,,,,,,,,2023-08-16_08h42.02.895,HF_wild_card,2022.2.4,Linux x86_64,60.00960154,57fde8979c39b3000179e347,64d2fd46c836a06233681665,64dc7db68c715a9620739a84,,,,,,,ctch,resources/DB.BMP,resources/DBN.BMP,Door3,0.428843528,-0.00584459,1,0,0,1.1462,optionRight,70,10270,5,9,0,9,0,1,,,,,,,,,,,,,,,,,,,,,,,,,,,,,,,,,,,,,,,
,,,,,,,,2023-08-16_08h42.02.895,HF_wild_card,2022.2.4,Linux x86_64,60.00960154,57fde8979c39b3000179e347,64d2fd46c836a06233681665,64dc7db68c715a9620739a84,,,,,,,decisionTrl,resources/DBN.BMP,resources/DG.BMP,Door4,0.309749532,-0.020289688,1,0,0,1.4137,optionRight,80,10350,5,10,0,10,0,1,,,,,,,,,,,,,,,,,,,,,,,,,,,,,,,,,,,,,,,
,,,,,,,,2023-08-16_08h42.02.895,HF_wild_card,2022.2.4,Linux x86_64,60.00960154,57fde8979c39b3000179e347,64d2fd46c836a06233681665,64dc7db68c715a9620739a84,,,,,,,ctch,resources/DBN.BMP,resources/DB.BMP,Door3,-0.366863843,-0.017952487,1,0,0,0.9803,optionLeft,70,10420,5,11,0,11,0,1,,,,,,,,,,,,,,,,,,,,,,,,,,,,,,,,,,,,,,,
,,,,,,,,2023-08-16_08h42.02.895,HF_wild_card,2022.2.4,Linux x86_64,60.00960154,57fde8979c39b3000179e347,64d2fd46c836a06233681665,64dc7db68c715a9620739a84,,,,,,,decisionTrl,resources/DG.BMP,resources/DBN.BMP,Door3,0.386802626,-0.00219319,1,0,0,1.7286,optionRight,70,10490,5,12,0,12,0,1,,,,,,,,,,,,,,,,,,,,,,,,,,,,,,,,,,,,,,,
,,,,,,,,2023-08-16_08h42.02.895,HF_wild_card,2022.2.4,Linux x86_64,60.00960154,57fde8979c39b3000179e347,64d2fd46c836a06233681665,64dc7db68c715a9620739a84,,,,,,,decisionTrl,resources/DY.BMP,resources/DB.BMP,Door1,-0.303682884,-0.003592023,1,0,0,1.6127,optionLeft,30,10520,5,13,0,13,0,1,,,,,,,,,,,,,,,,,,,,,,,,,,,,,,,,,,,,,,,
,,,,,,,,2023-08-16_08h42.02.895,HF_wild_card,2022.2.4,Linux x86_64,60.00960154,57fde8979c39b3000179e347,64d2fd46c836a06233681665,64dc7db68c715a9620739a84,,,,,,,ctch,resources/DB.BMP,resources/DBN.BMP,Door3,0.32553546,0.013207524,1,0,0,1.2129,optionRight,70,10590,5,14,0,14,0,1,,,,,,,,,,,,,,,,,,,,,,,,,,,,,,,,,,,,,,,
,,,,,,,,2023-08-16_08h42.02.895,HF_wild_card,2022.2.4,Linux x86_64,60.00960154,57fde8979c39b3000179e347,64d2fd46c836a06233681665,64dc7db68c715a9620739a84,,,,,,,decisionTrl,resources/DR.BMP,resources/DBN.BMP,Door3,0.250691763,-0.007656453,1,0,0,1.0958,optionRight,70,10660,5,15,0,15,0,1,,,,,,,,,,,,,,,,,,,,,,,,,,,,,,,,,,,,,,,
,,,,,,,,2023-08-16_08h42.02.895,HF_wild_card,2022.2.4,Linux x86_64,60.00960154,57fde8979c39b3000179e347,64d2fd46c836a06233681665,64dc7db68c715a9620739a84,,,,,,,ctch,resources/DY.BMP,resources/DG.BMP,Door4,0.390421518,-0.010668358,1,0,0,1.0944,optionRight,60,10720,5,16,0,16,0,1,,,,,,,,,,,,,,,,,,,,,,,,,,,,,,,,,,,,,,,
,,,,,,,,2023-08-16_08h42.02.895,HF_wild_card,2022.2.4,Linux x86_64,60.00960154,57fde8979c39b3000179e347,64d2fd46c836a06233681665,64dc7db68c715a9620739a84,,,,,,,ctch,resources/DG.BMP,resources/DY.BMP,Door4,-0.419704982,-0.03758453,1,0,0,1.1807,optionLeft,60,10780,5,17,0,17,0,1,,,,,,,,,,,,,,,,,,,,,,,,,,,,,,,,,,,,,,,
,,,,,,,,2023-08-16_08h42.02.895,HF_wild_card,2022.2.4,Linux x86_64,60.00960154,57fde8979c39b3000179e347,64d2fd46c836a06233681665,64dc7db68c715a9620739a84,,,,,,,decisionTrl,resources/DBN.BMP,resources/DR.BMP,Door3,-0.319191927,-0.008918857,1,0,0,0.9302,optionLeft,70,10850,5,18,0,18,0,1,,,,,,,,,,,,,,,,,,,,,,,,,,,,,,,,,,,,,,,
,,,,,,,,2023-08-16_08h42.02.895,HF_wild_card,2022.2.4,Linux x86_64,60.00960154,57fde8979c39b3000179e347,64d2fd46c836a06233681665,64dc7db68c715a9620739a84,,,,,,,sngl,resources/Empty.png,resources/DG.BMP,Door4,0.358947943,-0.018523412,1,0,0,0.8967,optionRight,60,10910,5,19,0,19,0,1,,,,,,,,,,,,,,,,,,,,,,,,,,,,,,,,,,,,,,,
,,,,,,,,2023-08-16_08h42.02.895,HF_wild_card,2022.2.4,Linux x86_64,60.00960154,57fde8979c39b3000179e347,64d2fd46c836a06233681665,64dc7db68c715a9620739a84,,,,,,,decisionTrl,resources/DG.BMP,resources/DR.BMP,Door4,-0.293302311,0.003511322,1,0,0,1.0295,optionLeft,60,10970,5,20,0,20,0,1,,,,,,,,,,,,,,,,,,,,,,,,,,,,,,,,,,,,,,,
,,,,,,,,2023-08-16_08h42.02.895,HF_wild_card,2022.2.4,Linux x86_64,60.00960154,57fde8979c39b3000179e347,64d2fd46c836a06233681665,64dc7db68c715a9620739a84,,,,,,,decisionTrl,resources/DB.BMP,resources/DY.BMP,Door1,0.467884324,0.00501981,1,0,0,1.5967,optionRight,30,11000,5,21,0,21,0,1,,,,,,,,,,,,,,,,,,,,,,,,,,,,,,,,,,,,,,,
,,,,,,,,2023-08-16_08h42.02.895,HF_wild_card,2022.2.4,Linux x86_64,60.00960154,57fde8979c39b3000179e347,64d2fd46c836a06233681665,64dc7db68c715a9620739a84,,,,,,,ctch,resources/DBN.BMP,resources/DB.BMP,Door3,-0.247900163,-0.002734214,1,0,0,0.8867,optionLeft,70,11070,5,22,0,22,0,1,,,,,,,,,,,,,,,,,,,,,,,,,,,,,,,,,,,,,,,
,,,,,,,,2023-08-16_08h42.02.895,HF_wild_card,2022.2.4,Linux x86_64,60.00960154,57fde8979c39b3000179e347,64d2fd46c836a06233681665,64dc7db68c715a9620739a84,,,,,,,decisionTrl,resources/DR.BMP,resources/DB.BMP,WildCard_Ex,-0.375732943,-0.011120103,1,0,0,1.3964,optionLeft,45,11115,5,23,0,23,0,1,,,,,,,,,,,,,,,,,,,,,,,,,,,,,,,,,,,,,,,
,,,,,,,,2023-08-16_08h42.02.895,HF_wild_card,2022.2.4,Linux x86_64,60.00960154,57fde8979c39b3000179e347,64d2fd46c836a06233681665,64dc7db68c715a9620739a84,,,,,,,sngl,resources/DG.BMP,resources/Empty.png,Door4,-0.504310229,-0.014825193,1,0,0,0.8307,optionLeft,80,11195,5,24,0,24,0,1,,,,,,,,,,,,,,,,,,,,,,,,,,,,,,,,,,,,,,,
,,,,,,,,2023-08-16_08h42.02.895,HF_wild_card,2022.2.4,Linux x86_64,60.00960154,57fde8979c39b3000179e347,64d2fd46c836a06233681665,64dc7db68c715a9620739a84,,,,,,,decisionTrl,resources/DG.BMP,resources/DBN.BMP,Door4,-0.302427067,-0.021582846,1,0,0,1.6303,optionLeft,60,11255,5,25,0,25,0,1,,,,,,,,,,,,,,,,,,,,,,,,,,,,,,,,,,,,,,,
,,,,,,,,2023-08-16_08h42.02.895,HF_wild_card,2022.2.4,Linux x86_64,60.00960154,57fde8979c39b3000179e347,64d2fd46c836a06233681665,64dc7db68c715a9620739a84,,,,,,,sngl,resources/DB.BMP,resources/Empty.png,Door2,-0.305957581,-0.008219085,1,0,0,0.8628,optionLeft,40,11295,5,26,0,26,0,1,,,,,,,,,,,,,,,,,,,,,,,,,,,,,,,,,,,,,,,
,,,,,,,,2023-08-16_08h42.02.895,HF_wild_card,2022.2.4,Linux x86_64,60.00960154,57fde8979c39b3000179e347,64d2fd46c836a06233681665,64dc7db68c715a9620739a84,,,,,,,sngl,resources/Empty.png,resources/DR.BMP,WildCard_Ex,0.268267519,-0.026655967,1,0,0,0.8974,optionRight,55,11350,5,27,0,27,0,1,,,,,,,,,,,,,,,,,,,,,,,,,,,,,,,,,,,,,,,
,,,,,,,,2023-08-16_08h42.02.895,HF_wild_card,2022.2.4,Linux x86_64,60.00960154,57fde8979c39b3000179e347,64d2fd46c836a06233681665,64dc7db68c715a9620739a84,,,,,,,decisionTrl,resources/DBN.BMP,resources/DG.BMP,Door3,-0.259215835,-0.009498122,1,0,0,1.0463,optionLeft,70,11420,5,28,0,28,0,1,,,,,,,,,,,,,,,,,,,,,,,,,,,,,,,,,,,,,,,
,,,,,,,,2023-08-16_08h42.02.895,HF_wild_card,2022.2.4,Linux x86_64,60.00960154,57fde8979c39b3000179e347,64d2fd46c836a06233681665,64dc7db68c715a9620739a84,,,,,,,decisionTrl,resources/DR.BMP,resources/DY.BMP,WildCard_Ex,-0.199155061,-0.006684771,1,0,0,1.0622,optionLeft,45,11465,5,29,0,29,0,1,,,,,,,,,,,,,,,,,,,,,,,,,,,,,,,,,,,,,,,
,,,,,,,,2023-08-16_08h42.02.895,HF_wild_card,2022.2.4,Linux x86_64,60.00960154,57fde8979c39b3000179e347,64d2fd46c836a06233681665,64dc7db68c715a9620739a84,,,,,,,decisionTrl,resources/DB.BMP,resources/DR.BMP,WildCard_Ex,0.267663517,-0.007208641,1,0,0,1.0979,optionRight,55,11520,5,30,0,30,0,1,,,,,,,,,,,,,,,,,,,,,,,,,,,,,,,,,,,,,,,
,,,,,,,,2023-08-16_08h42.02.895,HF_wild_card,2022.2.4,Linux x86_64,60.00960154,57fde8979c39b3000179e347,64d2fd46c836a06233681665,64dc7db68c715a9620739a84,,,,,,,decisionTrl,resources/DR.BMP,resources/DG.BMP,Door4,0.310704676,-0.004233414,1,0,0,1.0308,optionRight,80,11600,5,31,0,31,0,1,,,,,,,,,,,,,,,,,,,,,,,,,,,,,,,,,,,,,,,
,,,,,,,,2023-08-16_08h42.02.895,HF_wild_card,2022.2.4,Linux x86_64,60.00960154,57fde8979c39b3000179e347,64d2fd46c836a06233681665,64dc7db68c715a9620739a84,,,,,,,sngl,resources/Empty.png,resources/DR.BMP,WildCard_Ex,0.342651652,-0.012690574,1,0,0,0.9132,optionRight,45,11645,5,32,0,32,0,1,,,,,,,,,,,,,,,,,,,,,,,,,,,,,,,,,,,,,,,
,,,,,,,,2023-08-16_08h42.02.895,HF_wild_card,2022.2.4,Linux x86_64,60.00960154,57fde8979c39b3000179e347,64d2fd46c836a06233681665,64dc7db68c715a9620739a84,,,,,,,ctch,resources/DY.BMP,resources/DG.BMP,Door4,0.304530079,-0.009007614,1,0,0,1.0302,optionRight,60,11705,5,33,0,33,0,1,,,,,,,,,,,,,,,,,,,,,,,,,,,,,,,,,,,,,,,
,,,,,,,,2023-08-16_08h42.02.895,HF_wild_card,2022.2.4,Linux x86_64,60.00960154,57fde8979c39b3000179e347,64d2fd46c836a06233681665,64dc7db68c715a9620739a84,,,,,,,sngl,resources/Empty.png,resources/DBN.BMP,Door3,0.399407239,0.018165541,1,0,0,0.88,optionRight,70,11775,5,34,0,34,0,1,,,,,,,,,,,,,,,,,,,,,,,,,,,,,,,,,,,,,,,
,,,,,,,,2023-08-16_08h42.02.895,HF_wild_card,2022.2.4,Linux x86_64,60.00960154,57fde8979c39b3000179e347,64d2fd46c836a06233681665,64dc7db68c715a9620739a84,,,,,,,decisionTrl,resources/DB.BMP,resources/DY.BMP,Door1,0.445244451,0.003196432,1,0,0,1.6304,optionRight,30,11805,5,35,0,35,0,1,,,,,,,,,,,,,,,,,,,,,,,,,,,,,,,,,,,,,,,
,,,,,,,,2023-08-16_08h42.02.895,HF_wild_card,2022.2.4,Linux x86_64,60.00960154,57fde8979c39b3000179e347,64d2fd46c836a06233681665,64dc7db68c715a9620739a84,,,,,,,decisionTrl,resources/DY.BMP,resources/DB.BMP,Door2,0.247184611,0.007359902,1,0,0,2.014,optionRight,20,11825,5,36,0,36,0,1,,,,,,,,,,,,,,,,,,,,,,,,,,,,,,,,,,,,,,,
,,,,,,,,2023-08-16_08h42.02.895,HF_wild_card,2022.2.4,Linux x86_64,60.00960154,57fde8979c39b3000179e347,64d2fd46c836a06233681665,64dc7db68c715a9620739a84,,,,,,,decisionTrl,resources/DB.BMP,resources/DY.BMP,Door1,0.326491267,0.025541649,1,0,0,1.2298,optionRight,30,11855,5,37,0,37,0,1,,,,,,,,,,,,,,,,,,,,,,,,,,,,,,,,,,,,,,,
,,,,,,,,2023-08-16_08h42.02.895,HF_wild_card,2022.2.4,Linux x86_64,60.00960154,57fde8979c39b3000179e347,64d2fd46c836a06233681665,64dc7db68c715a9620739a84,,,,,,,sngl,resources/DBN.BMP,resources/Empty.png,Door3,-0.39333244,0.014561718,1,0,0,0.8288,optionLeft,70,11925,5,38,0,38,0,1,,,,,,,,,,,,,,,,,,,,,,,,,,,,,,,,,,,,,,,
,,,,,,,,2023-08-16_08h42.02.895,HF_wild_card,2022.2.4,Linux x86_64,60.00960154,57fde8979c39b3000179e347,64d2fd46c836a06233681665,64dc7db68c715a9620739a84,,,,,,,decisionTrl,resources/DBN.BMP,resources/DG.BMP,Door4,0.342745005,0.002551203,1,0,0,1.3134,optionRight,80,12005,5,39,0,39,0,1,,,,,,,,,,,,,,,,,,,,,,,,,,,,,,,,,,,,,,,
,,,,,,,,2023-08-16_08h42.02.895,HF_wild_card,2022.2.4,Linux x86_64,60.00960154,57fde8979c39b3000179e347,64d2fd46c836a06233681665,64dc7db68c715a9620739a84,,,,,,,sngl,resources/DY.BMP,resources/Empty.png,Door1,-0.292269405,0.01354644,1,0,0,0.8636,optionLeft,30,12035,5,40,0,40,0,1,,,,,,,,,,,,,,,,,,,,,,,,,,,,,,,,,,,,,,,
,,,,,,,,2023-08-16_08h42.02.895,HF_wild_card,2022.2.4,Linux x86_64,60.00960154,57fde8979c39b3000179e347,64d2fd46c836a06233681665,64dc7db68c715a9620739a84,,,,,,,sngl,resources/DR.BMP,resources/Empty.png,WildCard_Ex,-0.395843127,0.014026144,1,0,0,0.8805,optionLeft,45,12080,5,41,0,41,0,1,,,,,,,,,,,,,,,,,,,,,,,,,,,,,,,,,,,,,,,
,,,,,,,,2023-08-16_08h42.02.895,HF_wild_card,2022.2.4,Linux x86_64,60.00960154,57fde8979c39b3000179e347,64d2fd46c836a06233681665,64dc7db68c715a9620739a84,,,,,,,sngl,resources/Empty.png,resources/DB.BMP,Door2,0.260701339,-0.02177178,1,0,0,0.9302,optionRight,20,12100,5,42,0,42,0,1,,,,,,,,,,,,,,,,,,,,,,,,,,,,,,,,,,,,,,,
,,,,,,,,2023-08-16_08h42.02.895,HF_wild_card,2022.2.4,Linux x86_64,60.00960154,57fde8979c39b3000179e347,64d2fd46c836a06233681665,64dc7db68c715a9620739a84,,,,,,,decisionTrl,resources/DY.BMP,resources/DB.BMP,Door1,-0.252754922,-0.019731984,1,0,0,1.5297,optionLeft,30,12130,5,43,0,43,0,1,,,,,,,,,,,,,,,,,,,,,,,,,,,,,,,,,,,,,,,
,,,,,,,,2023-08-16_08h42.02.895,HF_wild_card,2022.2.4,Linux x86_64,60.00960154,57fde8979c39b3000179e347,64d2fd46c836a06233681665,64dc7db68c715a9620739a84,,,,,,,,,,,,,,,,,,,,,,,,,,4,0,4,0,1,,,,,,,,,,,,,,,,,,,,,,,,,,,,,,,,,,
,,,,,,,,2023-08-16_08h42.02.895,HF_wild_card,2022.2.4,Linux x86_64,60.00960154,57fde8979c39b3000179e347,64d2fd46c836a06233681665,64dc7db68c715a9620739a84,,,,,,,decisionTrl,resources/DBN.BMP,resources/DG.BMP,Door4,0.344776035,-0.119555266,1,0,0,1.5131,optionRight,60,12190,6,0,0,0,0,1,,,,,,,,,,,,,,,,,,,,,,,,,,,,,,,,,,,,,,,
,,,,,,,,2023-08-16_08h42.02.895,HF_wild_card,2022.2.4,Linux x86_64,60.00960154,57fde8979c39b3000179e347,64d2fd46c836a06233681665,64dc7db68c715a9620739a84,,,,,,,ctch,resources/DB.BMP,resources/DBN.BMP,Door3,0.3127485,-0.030214866,1,0,0,0.9096,optionRight,70,12260,6,1,0,1,0,1,,,,,,,,,,,,,,,,,,,,,,,,,,,,,,,,,,,,,,,
,,,,,,,,2023-08-16_08h42.02.895,HF_wild_card,2022.2.4,Linux x86_64,60.00960154,57fde8979c39b3000179e347,64d2fd46c836a06233681665,64dc7db68c715a9620739a84,,,,,,,ctch,resources/DB.BMP,resources/DBN.BMP,Door3,0.288303636,-0.006819352,1,0,0,0.9452,optionRight,70,12330,6,2,0,2,0,1,,,,,,,,,,,,,,,,,,,,,,,,,,,,,,,,,,,,,,,
,,,,,,,,2023-08-16_08h42.02.895,HF_wild_card,2022.2.4,Linux x86_64,60.00960154,57fde8979c39b3000179e347,64d2fd46c836a06233681665,64dc7db68c715a9620739a84,,,,,,,decisionTrl,resources/DBN.BMP,resources/DR.BMP,Door3,-0.308885089,-0.014813062,1,0,0,1.203,optionLeft,70,12400,6,3,0,3,0,1,,,,,,,,,,,,,,,,,,,,,,,,,,,,,,,,,,,,,,,
,,,,,,,,2023-08-16_08h42.02.895,HF_wild_card,2022.2.4,Linux x86_64,60.00960154,57fde8979c39b3000179e347,64d2fd46c836a06233681665,64dc7db68c715a9620739a84,,,,,,,ctch,resources/DY.BMP,resources/DG.BMP,Door4,0.426473392,0.004628247,1,0,0,1.0122,optionRight,60,12460,6,4,0,4,0,1,,,,,,,,,,,,,,,,,,,,,,,,,,,,,,,,,,,,,,,
,,,,,,,,2023-08-16_08h42.02.895,HF_wild_card,2022.2.4,Linux x86_64,60.00960154,57fde8979c39b3000179e347,64d2fd46c836a06233681665,64dc7db68c715a9620739a84,,,,,,,decisionTrl,resources/DG.BMP,resources/DBN.BMP,Door3,0.32208034,-0.033952512,1,0,0,1.2393,optionRight,70,12530,6,5,0,5,0,1,,,,,,,,,,,,,,,,,,,,,,,,,,,,,,,,,,,,,,,
,,,,,,,,2023-08-16_08h42.02.895,HF_wild_card,2022.2.4,Linux x86_64,60.00960154,57fde8979c39b3000179e347,64d2fd46c836a06233681665,64dc7db68c715a9620739a84,,,,,,,decisionTrl,resources/DBN.BMP,resources/DG.BMP,Door4,0.277483069,0.011198103,1,0,0,1.0623,optionRight,60,12590,6,6,0,6,0,1,,,,,,,,,,,,,,,,,,,,,,,,,,,,,,,,,,,,,,,
,,,,,,,,2023-08-16_08h42.02.895,HF_wild_card,2022.2.4,Linux x86_64,60.00960154,57fde8979c39b3000179e347,64d2fd46c836a06233681665,64dc7db68c715a9620739a84,,,,,,,sngl,resources/DG.BMP,resources/Empty.png,Door4,-0.255906857,0.025090757,1,0,0,0.8452,optionLeft,60,12650,6,7,0,7,0,1,,,,,,,,,,,,,,,,,,,,,,,,,,,,,,,,,,,,,,,
,,,,,,,,2023-08-16_08h42.02.895,HF_wild_card,2022.2.4,Linux x86_64,60.00960154,57fde8979c39b3000179e347,64d2fd46c836a06233681665,64dc7db68c715a9620739a84,,,,,,,decisionTrl,resources/DY.BMP,resources/DB.BMP,Door1,-0.283093044,-0.001073186,1,0,0,1.5638,optionLeft,30,12680,6,8,0,8,0,1,,,,,,,,,,,,,,,,,,,,,,,,,,,,,,,,,,,,,,,
,,,,,,,,2023-08-16_08h42.02.895,HF_wild_card,2022.2.4,Linux x86_64,60.00960154,57fde8979c39b3000179e347,64d2fd46c836a06233681665,64dc7db68c715a9620739a84,,,,,,,sngl,resources/DR.BMP,resources/Empty.png,WildCard_Ex,-0.462180191,0.001135785,1,0,0,0.8791,optionLeft,45,12725,6,9,0,9,0,1,,,,,,,,,,,,,,,,,,,,,,,,,,,,,,,,,,,,,,,
,,,,,,,,2023-08-16_08h42.02.895,HF_wild_card,2022.2.4,Linux x86_64,60.00960154,57fde8979c39b3000179e347,64d2fd46c836a06233681665,64dc7db68c715a9620739a84,,,,,,,sngl,resources/Empty.png,resources/DB.BMP,Door2,0.497813065,-0.003401573,1,0,0,0.9203,optionRight,40,12765,6,10,0,10,0,1,,,,,,,,,,,,,,,,,,,,,,,,,,,,,,,,,,,,,,,
,,,,,,,,2023-08-16_08h42.02.895,HF_wild_card,2022.2.4,Linux x86_64,60.00960154,57fde8979c39b3000179e347,64d2fd46c836a06233681665,64dc7db68c715a9620739a84,,,,,,,sngl,resources/Empty.png,resources/DBN.BMP,Door3,0.431786673,-0.014554373,1,0,0,0.8872,optionRight,70,12835,6,11,0,11,0,1,,,,,,,,,,,,,,,,,,,,,,,,,,,,,,,,,,,,,,,
,,,,,,,,2023-08-16_08h42.02.895,HF_wild_card,2022.2.4,Linux x86_64,60.00960154,57fde8979c39b3000179e347,64d2fd46c836a06233681665,64dc7db68c715a9620739a84,,,,,,,decisionTrl,resources/DY.BMP,resources/DB.BMP,Door1,-0.385727782,-0.001870765,1,0,0,1.3027,optionLeft,30,12865,6,12,0,12,0,1,,,,,,,,,,,,,,,,,,,,,,,,,,,,,,,,,,,,,,,
,,,,,,,,2023-08-16_08h42.02.895,HF_wild_card,2022.2.4,Linux x86_64,60.00960154,57fde8979c39b3000179e347,64d2fd46c836a06233681665,64dc7db68c715a9620739a84,,,,,,,decisionTrl,resources/DBN.BMP,resources/DG.BMP,Door3,-0.291481397,0.003970555,1,0,0,1.0787,optionLeft,70,12935,6,13,0,13,0,1,,,,,,,,,,,,,,,,,,,,,,,,,,,,,,,,,,,,,,,
,,,,,,,,2023-08-16_08h42.02.895,HF_wild_card,2022.2.4,Linux x86_64,60.00960154,57fde8979c39b3000179e347,64d2fd46c836a06233681665,64dc7db68c715a9620739a84,,,,,,,decisionTrl,resources/DB.BMP,resources/DY.BMP,Door1,0.255875866,-0.009566171,1,0,0,1.3712,optionRight,30,12965,6,14,0,14,0,1,,,,,,,,,,,,,,,,,,,,,,,,,,,,,,,,,,,,,,,
,,,,,,,,2023-08-16_08h42.02.895,HF_wild_card,2022.2.4,Linux x86_64,60.00960154,57fde8979c39b3000179e347,64d2fd46c836a06233681665,64dc7db68c715a9620739a84,,,,,,,decisionTrl,resources/DB.BMP,resources/DR.BMP,WildCard_Ex,0.386484561,-0.03178112,1,0,0,1.2521,optionRight,55,13020,6,15,0,15,0,1,,,,,,,,,,,,,,,,,,,,,,,,,,,,,,,,,,,,,,,
,,,,,,,,2023-08-16_08h42.02.895,HF_wild_card,2022.2.4,Linux x86_64,60.00960154,57fde8979c39b3000179e347,64d2fd46c836a06233681665,64dc7db68c715a9620739a84,,,,,,,sngl,resources/DR.BMP,resources/Empty.png,WildCard_Ex,-0.345145658,-0.021254877,1,0,0,0.8216,optionLeft,55,13075,6,16,0,16,0,1,,,,,,,,,,,,,,,,,,,,,,,,,,,,,,,,,,,,,,,
,,,,,,,,2023-08-16_08h42.02.895,HF_wild_card,2022.2.4,Linux x86_64,60.00960154,57fde8979c39b3000179e347,64d2fd46c836a06233681665,64dc7db68c715a9620739a84,,,,,,,ctch,resources/DG.BMP,resources/DY.BMP,Door4,-0.402227556,0.009128973,1,0,0,1.0229,optionLeft,60,13135,6,17,0,17,0,1,,,,,,,,,,,,,,,,,,,,,,,,,,,,,,,,,,,,,,,
,,,,,,,,2023-08-16_08h42.02.895,HF_wild_card,2022.2.4,Linux x86_64,60.00960154,57fde8979c39b3000179e347,64d2fd46c836a06233681665,64dc7db68c715a9620739a84,,,,,,,decisionTrl,resources/DY.BMP,resources/DB.BMP,Door2,0.20057574,-0.014616925,1,0,0,1.5479,optionRight,20,13155,6,18,0,18,0,1,,,,,,,,,,,,,,,,,,,,,,,,,,,,,,,,,,,,,,,
,,,,,,,,2023-08-16_08h42.02.895,HF_wild_card,2022.2.4,Linux x86_64,60.00960154,57fde8979c39b3000179e347,64d2fd46c836a06233681665,64dc7db68c715a9620739a84,,,,,,,decisionTrl,resources/DG.BMP,resources/DBN.BMP,Door3,0.467055801,0.033887164,1,0,0,1.1955,optionRight,70,13225,6,19,0,19,0,1,,,,,,,,,,,,,,,,,,,,,,,,,,,,,,,,,,,,,,,
,,,,,,,,2023-08-16_08h42.02.895,HF_wild_card,2022.2.4,Linux x86_64,60.00960154,57fde8979c39b3000179e347,64d2fd46c836a06233681665,64dc7db68c715a9620739a84,,,,,,,decisionTrl,resources/DG.BMP,resources/DBN.BMP,Door4,-0.302385934,0.012071219,1,0,0,0.8878,optionLeft,60,13285,6,20,0,20,0,1,,,,,,,,,,,,,,,,,,,,,,,,,,,,,,,,,,,,,,,
,,,,,,,,2023-08-16_08h42.02.895,HF_wild_card,2022.2.4,Linux x86_64,60.00960154,57fde8979c39b3000179e347,64d2fd46c836a06233681665,64dc7db68c715a9620739a84,,,,,,,sngl,resources/DBN.BMP,resources/Empty.png,Door3,-0.415605628,0.024748761,1,0,0,0.8471,optionLeft,70,13355,6,21,0,21,0,1,,,,,,,,,,,,,,,,,,,,,,,,,,,,,,,,,,,,,,,
,,,,,,,,2023-08-16_08h42.02.895,HF_wild_card,2022.2.4,Linux x86_64,60.00960154,57fde8979c39b3000179e347,64d2fd46c836a06233681665,64dc7db68c715a9620739a84,,,,,,,ctch,resources/DBN.BMP,resources/DB.BMP,Door3,-0.278940852,0.008674953,1,0,0,0.9153,optionLeft,70,13425,6,22,0,22,0,1,,,,,,,,,,,,,,,,,,,,,,,,,,,,,,,,,,,,,,,
,,,,,,,,2023-08-16_08h42.02.895,HF_wild_card,2022.2.4,Linux x86_64,60.00960154,57fde8979c39b3000179e347,64d2fd46c836a06233681665,64dc7db68c715a9620739a84,,,,,,,sngl,resources/DY.BMP,resources/Empty.png,Door1,-0.33489232,-0.007140971,1,0,0,0.8801,optionLeft,30,13455,6,23,0,23,0,1,,,,,,,,,,,,,,,,,,,,,,,,,,,,,,,,,,,,,,,
,,,,,,,,2023-08-16_08h42.02.895,HF_wild_card,2022.2.4,Linux x86_64,60.00960154,57fde8979c39b3000179e347,64d2fd46c836a06233681665,64dc7db68c715a9620739a84,,,,,,,decisionTrl,resources/DY.BMP,resources/DB.BMP,Door1,-0.402294988,0.008263487,1,0,0,1.256,optionLeft,30,13485,6,24,0,24,0,1,,,,,,,,,,,,,,,,,,,,,,,,,,,,,,,,,,,,,,,
,,,,,,,,2023-08-16_08h42.02.895,HF_wild_card,2022.2.4,Linux x86_64,60.00960154,57fde8979c39b3000179e347,64d2fd46c836a06233681665,64dc7db68c715a9620739a84,,,,,,,sngl,resources/Empty.png,resources/DR.BMP,WildCard_Ex,0.387874248,-0.007642947,1,0,0,0.9144,optionRight,45,13530,6,25,0,25,0,1,,,,,,,,,,,,,,,,,,,,,,,,,,,,,,,,,,,,,,,
,,,,,,,,2023-08-16_08h42.02.895,HF_wild_card,2022.2.4,Linux x86_64,60.00960154,57fde8979c39b3000179e347,64d2fd46c836a06233681665,64dc7db68c715a9620739a84,,,,,,,sngl,resources/Empty.png,resources/DY.BMP,Door1,0.403997196,-0.015434455,1,0,0,0.9303,optionRight,30,13560,6,26,0,26,0,1,,,,,,,,,,,,,,,,,,,,,,,,,,,,,,,,,,,,,,,
,,,,,,,,2023-08-16_08h42.02.895,HF_wild_card,2022.2.4,Linux x86_64,60.00960154,57fde8979c39b3000179e347,64d2fd46c836a06233681665,64dc7db68c715a9620739a84,,,,,,,sngl,resources/Empty.png,resources/DR.BMP,WildCard_Ex,0.393313769,0.00861188,1,0,0,0.8645,optionRight,55,13615,6,27,0,27,0,1,,,,,,,,,,,,,,,,,,,,,,,,,,,,,,,,,,,,,,,
,,,,,,,,2023-08-16_08h42.02.895,HF_wild_card,2022.2.4,Linux x86_64,60.00960154,57fde8979c39b3000179e347,64d2fd46c836a06233681665,64dc7db68c715a9620739a84,,,,,,,decisionTrl,resources/DR.BMP,resources/DG.BMP,Door4,0.425995347,0.039526708,1,0,0,1.18,optionRight,60,13675,6,28,0,28,0,1,,,,,,,,,,,,,,,,,,,,,,,,,,,,,,,,,,,,,,,
,,,,,,,,2023-08-16_08h42.02.895,HF_wild_card,2022.2.4,Linux x86_64,60.00960154,57fde8979c39b3000179e347,64d2fd46c836a06233681665,64dc7db68c715a9620739a84,,,,,,,ctch,resources/DG.BMP,resources/DY.BMP,Door4,-0.303708047,0.023906637,1,0,0,1.1223,optionLeft,60,13735,6,29,0,29,0,1,,,,,,,,,,,,,,,,,,,,,,,,,,,,,,,,,,,,,,,
,,,,,,,,2023-08-16_08h42.02.895,HF_wild_card,2022.2.4,Linux x86_64,60.00960154,57fde8979c39b3000179e347,64d2fd46c836a06233681665,64dc7db68c715a9620739a84,,,,,,,decisionTrl,resources/DY.BMP,resources/DR.BMP,WildCard_Ex,0.30650794,0.020570364,1,0,0,1.4723,optionRight,55,13790,6,30,0,30,0,1,,,,,,,,,,,,,,,,,,,,,,,,,,,,,,,,,,,,,,,
,,,,,,,,2023-08-16_08h42.02.895,HF_wild_card,2022.2.4,Linux x86_64,60.00960154,57fde8979c39b3000179e347,64d2fd46c836a06233681665,64dc7db68c715a9620739a84,,,,,,,decisionTrl,resources/DBN.BMP,resources/DG.BMP,Door4,0.330917737,0.038014098,1,0,0,1.4712,optionRight,60,13850,6,31,0,31,0,1,,,,,,,,,,,,,,,,,,,,,,,,,,,,,,,,,,,,,,,
,,,,,,,,2023-08-16_08h42.02.895,HF_wild_card,2022.2.4,Linux x86_64,60.00960154,57fde8979c39b3000179e347,64d2fd46c836a06233681665,64dc7db68c715a9620739a84,,,,,,,decisionTrl,resources/DR.BMP,resources/DBN.BMP,Door3,0.382408853,0.066404402,1,0,0,0.8858,optionRight,70,13920,6,32,0,32,0,1,,,,,,,,,,,,,,,,,,,,,,,,,,,,,,,,,,,,,,,
,,,,,,,,2023-08-16_08h42.02.895,HF_wild_card,2022.2.4,Linux x86_64,60.00960154,57fde8979c39b3000179e347,64d2fd46c836a06233681665,64dc7db68c715a9620739a84,,,,,,,decisionTrl,resources/DG.BMP,resources/DR.BMP,Door4,-0.329672014,0.012982576,1,0,0,0.9456,optionLeft,60,13980,6,33,0,33,0,1,,,,,,,,,,,,,,,,,,,,,,,,,,,,,,,,,,,,,,,
,,,,,,,,2023-08-16_08h42.02.895,HF_wild_card,2022.2.4,Linux x86_64,60.00960154,57fde8979c39b3000179e347,64d2fd46c836a06233681665,64dc7db68c715a9620739a84,,,,,,,decisionTrl,resources/DB.BMP,resources/DY.BMP,Door1,0.305924599,0.009959961,1,0,0,1.8284,optionRight,30,14010,6,34,0,34,0,1,,,,,,,,,,,,,,,,,,,,,,,,,,,,,,,,,,,,,,,
,,,,,,,,2023-08-16_08h42.02.895,HF_wild_card,2022.2.4,Linux x86_64,60.00960154,57fde8979c39b3000179e347,64d2fd46c836a06233681665,64dc7db68c715a9620739a84,,,,,,,decisionTrl,resources/DR.BMP,resources/DY.BMP,WildCard_Ex,-0.381037789,-0.003040527,1,0,0,1.5296,optionLeft,45,14055,6,35,0,35,0,1,,,,,,,,,,,,,,,,,,,,,,,,,,,,,,,,,,,,,,,
,,,,,,,,2023-08-16_08h42.02.895,HF_wild_card,2022.2.4,Linux x86_64,60.00960154,57fde8979c39b3000179e347,64d2fd46c836a06233681665,64dc7db68c715a9620739a84,,,,,,,decisionTrl,resources/DR.BMP,resources/DB.BMP,WildCard_Ex,-0.305269798,0.004580717,1,0,0,1.3393,optionLeft,45,14100,6,36,0,36,0,1,,,,,,,,,,,,,,,,,,,,,,,,,,,,,,,,,,,,,,,
,,,,,,,,2023-08-16_08h42.02.895,HF_wild_card,2022.2.4,Linux x86_64,60.00960154,57fde8979c39b3000179e347,64d2fd46c836a06233681665,64dc7db68c715a9620739a84,,,,,,,ctch,resources/DY.BMP,resources/DG.BMP,Door4,0.413148963,0.008480949,1,0,0,1.2215,optionRight,60,14160,6,37,0,37,0,1,,,,,,,,,,,,,,,,,,,,,,,,,,,,,,,,,,,,,,,
,,,,,,,,2023-08-16_08h42.02.895,HF_wild_card,2022.2.4,Linux x86_64,60.00960154,57fde8979c39b3000179e347,64d2fd46c836a06233681665,64dc7db68c715a9620739a84,,,,,,,decisionTrl,resources/DG.BMP,resources/DBN.BMP,Door3,0.233344605,-0.021672172,1,0,0,1.1722,optionRight,70,14230,6,38,0,38,0,1,,,,,,,,,,,,,,,,,,,,,,,,,,,,,,,,,,,,,,,
,,,,,,,,2023-08-16_08h42.02.895,HF_wild_card,2022.2.4,Linux x86_64,60.00960154,57fde8979c39b3000179e347,64d2fd46c836a06233681665,64dc7db68c715a9620739a84,,,,,,,sngl,resources/DB.BMP,resources/Empty.png,Door2,-0.369693543,-0.004600999,1,0,0,0.8551,optionLeft,20,14250,6,39,0,39,0,1,,,,,,,,,,,,,,,,,,,,,,,,,,,,,,,,,,,,,,,
,,,,,,,,2023-08-16_08h42.02.895,HF_wild_card,2022.2.4,Linux x86_64,60.00960154,57fde8979c39b3000179e347,64d2fd46c836a06233681665,64dc7db68c715a9620739a84,,,,,,,decisionTrl,resources/DB.BMP,resources/DY.BMP,Door1,0.231627755,-0.01256983,1,0,0,1.1052,optionRight,30,14280,6,40,0,40,0,1,,,,,,,,,,,,,,,,,,,,,,,,,,,,,,,,,,,,,,,
,,,,,,,,2023-08-16_08h42.02.895,HF_wild_card,2022.2.4,Linux x86_64,60.00960154,57fde8979c39b3000179e347,64d2fd46c836a06233681665,64dc7db68c715a9620739a84,,,,,,,sngl,resources/Empty.png,resources/DG.BMP,Door4,0.342112192,-0.020170129,1,0,0,0.9463,optionRight,80,14360,6,41,0,41,0,1,,,,,,,,,,,,,,,,,,,,,,,,,,,,,,,,,,,,,,,
,,,,,,,,2023-08-16_08h42.02.895,HF_wild_card,2022.2.4,Linux x86_64,60.00960154,57fde8979c39b3000179e347,64d2fd46c836a06233681665,64dc7db68c715a9620739a84,,,,,,,ctch,resources/DBN.BMP,resources/DB.BMP,Door3,-0.318353404,0.017591488,1,0,0,1.0975,optionLeft,70,14430,6,42,0,42,0,1,,,,,,,,,,,,,,,,,,,,,,,,,,,,,,,,,,,,,,,
,,,,,,,,2023-08-16_08h42.02.895,HF_wild_card,2022.2.4,Linux x86_64,60.00960154,57fde8979c39b3000179e347,64d2fd46c836a06233681665,64dc7db68c715a9620739a84,,,,,,,decisionTrl,resources/DB.BMP,resources/DY.BMP,Door1,0.211297361,0.0029204,1,0,0,1.7442,optionRight,30,14460,6,43,0,43,0,1,,,,,,,,,,,,,,,,,,,,,,,,,,,,,,,,,,,,,,,
,,,,,,,,2023-08-16_08h42.02.895,HF_wild_card,2022.2.4,Linux x86_64,60.00960154,57fde8979c39b3000179e347,64d2fd46c836a06233681665,64dc7db68c715a9620739a84,,,,,,,,,,,,,,,,,,,,,,,,,,5,0,5,0,1,,,,,,,,,,,,,,,,,,,,,,,,,,,,,,,,,,
,,,,,,,,2023-08-16_08h42.02.895,HF_wild_card,2022.2.4,Linux x86_64,60.00960154,57fde8979c39b3000179e347,64d2fd46c836a06233681665,64dc7db68c715a9620739a84,,,,,,,decisionTrl,resources/DY.BMP,resources/DB.BMP,Door1,-0.320567066,-0.052826733,1,0,0,2.2463,optionLeft,30,14490,7,0,0,0,0,1,,,,,,,,,,,,,,,,,,,,,,,,,,,,,,,,,,,,,,,
,,,,,,,,2023-08-16_08h42.02.895,HF_wild_card,2022.2.4,Linux x86_64,60.00960154,57fde8979c39b3000179e347,64d2fd46c836a06233681665,64dc7db68c715a9620739a84,,,,,,,ctch,resources/DY.BMP,resources/DG.BMP,Door4,0.36076753,-0.018272021,1,0,0,1.0643,optionRight,80,14570,7,1,0,1,0,1,,,,,,,,,,,,,,,,,,,,,,,,,,,,,,,,,,,,,,,
,,,,,,,,2023-08-16_08h42.02.895,HF_wild_card,2022.2.4,Linux x86_64,60.00960154,57fde8979c39b3000179e347,64d2fd46c836a06233681665,64dc7db68c715a9620739a84,,,,,,,decisionTrl,resources/DBN.BMP,resources/DG.BMP,Door4,0.271136835,-0.013394563,1,0,0,1.3476,optionRight,80,14650,7,2,0,2,0,1,,,,,,,,,,,,,,,,,,,,,,,,,,,,,,,,,,,,,,,
,,,,,,,,2023-08-16_08h42.02.895,HF_wild_card,2022.2.4,Linux x86_64,60.00960154,57fde8979c39b3000179e347,64d2fd46c836a06233681665,64dc7db68c715a9620739a84,,,,,,,ctch,resources/DBN.BMP,resources/DB.BMP,Door3,-0.298342924,0.028988477,1,0,0,0.8481,optionLeft,70,14720,7,3,0,3,0,1,,,,,,,,,,,,,,,,,,,,,,,,,,,,,,,,,,,,,,,
,,,,,,,,2023-08-16_08h42.02.895,HF_wild_card,2022.2.4,Linux x86_64,60.00960154,57fde8979c39b3000179e347,64d2fd46c836a06233681665,64dc7db68c715a9620739a84,,,,,,,decisionTrl,resources/DBN.BMP,resources/DG.BMP,Door4,0.370729245,0.02159621,1,0,0,1.3867,optionRight,80,14800,7,4,0,4,0,1,,,,,,,,,,,,,,,,,,,,,,,,,,,,,,,,,,,,,,,
,,,,,,,,2023-08-16_08h42.02.895,HF_wild_card,2022.2.4,Linux x86_64,60.00960154,57fde8979c39b3000179e347,64d2fd46c836a06233681665,64dc7db68c715a9620739a84,,,,,,,ctch,resources/DB.BMP,resources/DBN.BMP,Door3,0.354554455,0.01175448,1,0,0,0.848,optionRight,70,14870,7,5,0,5,0,1,,,,,,,,,,,,,,,,,,,,,,,,,,,,,,,,,,,,,,,
,,,,,,,,2023-08-16_08h42.02.895,HF_wild_card,2022.2.4,Linux x86_64,60.00960154,57fde8979c39b3000179e347,64d2fd46c836a06233681665,64dc7db68c715a9620739a84,,,,,,,decisionTrl,resources/DG.BMP,resources/DBN.BMP,Door3,0.293746948,0.009572852,1,0,0,1.4979,optionRight,70,14940,7,6,0,6,0,1,,,,,,,,,,,,,,,,,,,,,,,,,,,,,,,,,,,,,,,
,,,,,,,,2023-08-16_08h42.02.895,HF_wild_card,2022.2.4,Linux x86_64,60.00960154,57fde8979c39b3000179e347,64d2fd46c836a06233681665,64dc7db68c715a9620739a84,,,,,,,ctch,resources/DG.BMP,resources/DY.BMP,Door4,-0.190404098,0.006772817,1,0,0,1.4383,optionLeft,60,15000,7,7,0,7,0,1,,,,,,,,,,,,,,,,,,,,,,,,,,,,,,,,,,,,,,,
,,,,,,,,2023-08-16_08h42.02.895,HF_wild_card,2022.2.4,Linux x86_64,60.00960154,57fde8979c39b3000179e347,64d2fd46c836a06233681665,64dc7db68c715a9620739a84,,,,,,,ctch,resources/DB.BMP,resources/DBN.BMP,Door3,0.325953608,0.013575678,1,0,0,0.9622,optionRight,70,15070,7,8,0,8,0,1,,,,,,,,,,,,,,,,,,,,,,,,,,,,,,,,,,,,,,,
,,,,,,,,2023-08-16_08h42.02.895,HF_wild_card,2022.2.4,Linux x86_64,60.00960154,57fde8979c39b3000179e347,64d2fd46c836a06233681665,64dc7db68c715a9620739a84,,,,,,,ctch,resources/DBN.BMP,resources/DB.BMP,Door3,-0.406084712,0.024255456,1,0,0,0.949,optionLeft,70,15140,7,9,0,9,0,1,,,,,,,,,,,,,,,,,,,,,,,,,,,,,,,,,,,,,,,
,,,,,,,,2023-08-16_08h42.02.895,HF_wild_card,2022.2.4,Linux x86_64,60.00960154,57fde8979c39b3000179e347,64d2fd46c836a06233681665,64dc7db68c715a9620739a84,,,,,,,ctch,resources/DB.BMP,resources/DBN.BMP,Door3,0.362784155,0.007368953,1,0,0,0.8651,optionRight,70,15210,7,10,0,10,0,1,,,,,,,,,,,,,,,,,,,,,,,,,,,,,,,,,,,,,,,
,,,,,,,,2023-08-16_08h42.02.895,HF_wild_card,2022.2.4,Linux x86_64,60.00960154,57fde8979c39b3000179e347,64d2fd46c836a06233681665,64dc7db68c715a9620739a84,,,,,,,decisionTrl,resources/DB.BMP,resources/DY.BMP,Door1,0.366995296,0.008740538,1,0,0,1.8789,optionRight,30,15240,7,11,0,11,0,1,,,,,,,,,,,,,,,,,,,,,,,,,,,,,,,,,,,,,,,
,,,,,,,,2023-08-16_08h42.02.895,HF_wild_card,2022.2.4,Linux x86_64,60.00960154,57fde8979c39b3000179e347,64d2fd46c836a06233681665,64dc7db68c715a9620739a84,,,,,,,decisionTrl,resources/DB.BMP,resources/DY.BMP,Door1,0.43926348,0.00342285,1,0,0,1.2982,optionRight,30,15270,7,12,0,12,0,1,,,,,,,,,,,,,,,,,,,,,,,,,,,,,,,,,,,,,,,
,,,,,,,,2023-08-16_08h42.02.895,HF_wild_card,2022.2.4,Linux x86_64,60.00960154,57fde8979c39b3000179e347,64d2fd46c836a06233681665,64dc7db68c715a9620739a84,,,,,,,decisionTrl,resources/DG.BMP,resources/DBN.BMP,Door3,0.314689305,0.027535954,1,0,0,1.4984,optionRight,70,15340,7,13,0,13,0,1,,,,,,,,,,,,,,,,,,,,,,,,,,,,,,,,,,,,,,,
,,,,,,,,2023-08-16_08h42.02.895,HF_wild_card,2022.2.4,Linux x86_64,60.00960154,57fde8979c39b3000179e347,64d2fd46c836a06233681665,64dc7db68c715a9620739a84,,,,,,,decisionTrl,resources/DG.BMP,resources/DBN.BMP,Door3,0.432516157,0.044869654,1,0,0,1.2165,optionRight,70,15410,7,14,0,14,0,1,,,,,,,,,,,,,,,,,,,,,,,,,,,,,,,,,,,,,,,
,,,,,,,,2023-08-16_08h42.02.895,HF_wild_card,2022.2.4,Linux x86_64,60.00960154,57fde8979c39b3000179e347,64d2fd46c836a06233681665,64dc7db68c715a9620739a84,,,,,,,decisionTrl,resources/DB.BMP,resources/DY.BMP,Door1,0.310250039,-0.015460992,1,0,0,1.1868,optionRight,30,15440,7,15,0,15,0,1,,,,,,,,,,,,,,,,,,,,,,,,,,,,,,,,,,,,,,,
,,,,,,,,2023-08-16_08h42.02.895,HF_wild_card,2022.2.4,Linux x86_64,60.00960154,57fde8979c39b3000179e347,64d2fd46c836a06233681665,64dc7db68c715a9620739a84,,,,,,,decisionTrl,resources/DG.BMP,resources/DBN.BMP,Door4,-0.341482269,0.003598989,1,0,0,1.3646,optionLeft,80,15520,7,16,0,16,0,1,,,,,,,,,,,,,,,,,,,,,,,,,,,,,,,,,,,,,,,
,,,,,,,,2023-08-16_08h42.02.895,HF_wild_card,2022.2.4,Linux x86_64,60.00960154,57fde8979c39b3000179e347,64d2fd46c836a06233681665,64dc7db68c715a9620739a84,,,,,,,ctch,resources/DY.BMP,resources/DG.BMP,Door4,0.402019524,0.010121411,1,0,0,0.998,optionRight,80,15600,7,17,0,17,0,1,,,,,,,,,,,,,,,,,,,,,,,,,,,,,,,,,,,,,,,
,,,,,,,,2023-08-16_08h42.02.895,HF_wild_card,2022.2.4,Linux x86_64,60.00960154,57fde8979c39b3000179e347,64d2fd46c836a06233681665,64dc7db68c715a9620739a84,,,,,,,decisionTrl,resources/DG.BMP,resources/DBN.BMP,Door3,0.372123102,0.038261224,1,0,0,0.8637,optionRight,70,15670,7,18,0,18,0,1,,,,,,,,,,,,,,,,,,,,,,,,,,,,,,,,,,,,,,,
,,,,,,,,2023-08-16_08h42.02.895,HF_wild_card,2022.2.4,Linux x86_64,60.00960154,57fde8979c39b3000179e347,64d2fd46c836a06233681665,64dc7db68c715a9620739a84,,,,,,,decisionTrl,resources/DBN.BMP,resources/DG.BMP,Door4,0.385992299,0.01236578,1,0,0,1.266,optionRight,80,15750,7,19,0,19,0,1,,,,,,,,,,,,,,,,,,,,,,,,,,,,,,,,,,,,,,,
,,,,,,,,2023-08-16_08h42.02.895,HF_wild_card,2022.2.4,Linux x86_64,60.00960154,57fde8979c39b3000179e347,64d2fd46c836a06233681665,64dc7db68c715a9620739a84,,,,,,,decisionTrl,resources/DY.BMP,resources/DB.BMP,Door1,-0.267317351,0.050556159,1,0,0,1.8652,optionLeft,30,15780,7,20,0,20,0,1,,,,,,,,,,,,,,,,,,,,,,,,,,,,,,,,,,,,,,,
,,,,,,,,2023-08-16_08h42.02.895,HF_wild_card,2022.2.4,Linux x86_64,60.00960154,57fde8979c39b3000179e347,64d2fd46c836a06233681665,64dc7db68c715a9620739a84,,,,,,,decisionTrl,resources/DY.BMP,resources/DB.BMP,Door1,-0.268640412,0.0299975,1,0,0,1.2489,optionLeft,30,15810,7,21,0,21,0,1,,,,,,,,,,,,,,,,,,,,,,,,,,,,,,,,,,,,,,,
,,,,,,,,2023-08-16_08h42.02.895,HF_wild_card,2022.2.4,Linux x86_64,60.00960154,57fde8979c39b3000179e347,64d2fd46c836a06233681665,64dc7db68c715a9620739a84,,,,,,,decisionTrl,resources/DB.BMP,resources/DY.BMP,Door1,0.334562787,0.008500378,1,0,0,1.1632,optionRight,30,15840,7,22,0,22,0,1,,,,,,,,,,,,,,,,,,,,,,,,,,,,,,,,,,,,,,,
,,,,,,,,2023-08-16_08h42.02.895,HF_wild_card,2022.2.4,Linux x86_64,60.00960154,57fde8979c39b3000179e347,64d2fd46c836a06233681665,64dc7db68c715a9620739a84,,,,,,,decisionTrl,resources/DY.BMP,resources/DB.BMP,Door1,-0.283315433,-0.001079062,1,0,0,1.1489,optionLeft,30,15870,7,23,0,23,0,1,,,,,,,,,,,,,,,,,,,,,,,,,,,,,,,,,,,,,,,
,,,,,,,,2023-08-16_08h42.02.895,HF_wild_card,2022.2.4,Linux x86_64,60.00960154,57fde8979c39b3000179e347,64d2fd46c836a06233681665,64dc7db68c715a9620739a84,,,,,,,decisionTrl,resources/DB.BMP,resources/DY.BMP,Door1,0.350657303,0.012930165,1,0,0,1.1311,optionRight,30,15900,7,24,0,24,0,1,,,,,,,,,,,,,,,,,,,,,,,,,,,,,,,,,,,,,,,
,,,,,,,,2023-08-16_08h42.02.895,HF_wild_card,2022.2.4,Linux x86_64,60.00960154,57fde8979c39b3000179e347,64d2fd46c836a06233681665,64dc7db68c715a9620739a84,,,,,,,ctch,resources/DG.BMP,resources/DY.BMP,Door4,-0.331409478,0.009249101,1,0,0,1.0141,optionLeft,60,15960,7,25,0,25,0,1,,,,,,,,,,,,,,,,,,,,,,,,,,,,,,,,,,,,,,,
,,,,,,,,2023-08-16_08h42.02.895,HF_wild_card,2022.2.4,Linux x86_64,60.00960154,57fde8979c39b3000179e347,64d2fd46c836a06233681665,64dc7db68c715a9620739a84,,,,,,,ctch,resources/DBN.BMP,resources/DB.BMP,Door3,-0.246548291,0.024292893,1,0,0,1.0135,optionLeft,70,16030,7,26,0,26,0,1,,,,,,,,,,,,,,,,,,,,,,,,,,,,,,,,,,,,,,,
,,,,,,,,2023-08-16_08h42.02.895,HF_wild_card,2022.2.4,Linux x86_64,60.00960154,57fde8979c39b3000179e347,64d2fd46c836a06233681665,64dc7db68c715a9620739a84,,,,,,,ctch,resources/DY.BMP,resources/DG.BMP,Door4,0.32105639,-0.024242188,1,0,0,1.2809,optionRight,60,16090,7,27,0,27,0,1,,,,,,,,,,,,,,,,,,,,,,,,,,,,,,,,,,,,,,,
,,,,,,,,2023-08-16_08h42.02.895,HF_wild_card,2022.2.4,Linux x86_64,60.00960154,57fde8979c39b3000179e347,64d2fd46c836a06233681665,64dc7db68c715a9620739a84,,,,,,,decisionTrl,resources/DY.BMP,resources/DB.BMP,Door1,-0.402176045,0.032752233,1,0,0,1.0488,optionLeft,30,16120,7,28,0,28,0,1,,,,,,,,,,,,,,,,,,,,,,,,,,,,,,,,,,,,,,,
,,,,,,,,2023-08-16_08h42.02.895,HF_wild_card,2022.2.4,Linux x86_64,60.00960154,57fde8979c39b3000179e347,64d2fd46c836a06233681665,64dc7db68c715a9620739a84,,,,,,,ctch,resources/DG.BMP,resources/DY.BMP,Door4,-0.405005603,0.02926721,1,0,0,0.9384,optionLeft,80,16200,7,29,0,29,0,1,,,,,,,,,,,,,,,,,,,,,,,,,,,,,,,,,,,,,,,
,,,,,,,,2023-08-16_08h42.02.895,HF_wild_card,2022.2.4,Linux x86_64,60.00960154,57fde8979c39b3000179e347,64d2fd46c836a06233681665,64dc7db68c715a9620739a84,,,,,,,decisionTrl,resources/DY.BMP,resources/DB.BMP,Door1,-0.265738114,0.000980022,1,0,0,1.3975,optionLeft,30,16230,7,30,0,30,0,1,,,,,,,,,,,,,,,,,,,,,,,,,,,,,,,,,,,,,,,
,,,,,,,,2023-08-16_08h42.02.895,HF_wild_card,2022.2.4,Linux x86_64,60.00960154,57fde8979c39b3000179e347,64d2fd46c836a06233681665,64dc7db68c715a9620739a84,,,,,,,decisionTrl,resources/DB.BMP,resources/DY.BMP,Door1,0.412577374,0.000823596,1,0,0,1.082,optionRight,30,16260,7,31,0,31,0,1,,,,,,,,,,,,,,,,,,,,,,,,,,,,,,,,,,,,,,,
,,,,,,,,2023-08-16_08h42.02.895,HF_wild_card,2022.2.4,Linux x86_64,60.00960154,57fde8979c39b3000179e347,64d2fd46c836a06233681665,64dc7db68c715a9620739a84,,,,,,,decisionTrl,resources/DBN.BMP,resources/DG.BMP,Door4,0.315138065,0.013979941,1,0,0,1.4649,optionRight,60,16320,7,32,0,32,0,1,,,,,,,,,,,,,,,,,,,,,,,,,,,,,,,,,,,,,,,
,,,,,,,,2023-08-16_08h42.02.895,HF_wild_card,2022.2.4,Linux x86_64,60.00960154,57fde8979c39b3000179e347,64d2fd46c836a06233681665,64dc7db68c715a9620739a84,,,,,,,decisionTrl,resources/DG.BMP,resources/DBN.BMP,Door4,-0.303605737,0.017421462,1,0,0,1.1322,optionLeft,80,16400,7,33,0,33,0,1,,,,,,,,,,,,,,,,,,,,,,,,,,,,,,,,,,,,,,,
,,,,,,,,2023-08-16_08h42.02.895,HF_wild_card,2022.2.4,Linux x86_64,60.00960154,57fde8979c39b3000179e347,64d2fd46c836a06233681665,64dc7db68c715a9620739a84,,,,,,,decisionTrl,resources/DBN.BMP,resources/DG.BMP,Door3,-0.289364359,0.011059115,1,0,0,1.1318,optionLeft,70,16470,7,34,0,34,0,1,,,,,,,,,,,,,,,,,,,,,,,,,,,,,,,,,,,,,,,
,,,,,,,,2023-08-16_08h42.02.895,HF_wild_card,2022.2.4,Linux x86_64,60.00960154,57fde8979c39b3000179e347,64d2fd46c836a06233681665,64dc7db68c715a9620739a84,,,,,,,decisionTrl,resources/DBN.BMP,resources/DG.BMP,Door4,0.296167978,0.017202484,1,0,0,1.0157,optionRight,80,16550,7,35,0,35,0,1,,,,,,,,,,,,,,,,,,,,,,,,,,,,,,,,,,,,,,,
,,,,,,,,2023-08-16_08h42.02.895,HF_wild_card,2022.2.4,Linux x86_64,60.00960154,57fde8979c39b3000179e347,64d2fd46c836a06233681665,64dc7db68c715a9620739a84,,,,,,,,,,,,,,,,,,,,,,,,,,6,0,6,0,1,,,,,,,,,,,,,,,,,,,,,,,,,,,,,,,,,,
