Condition,Low fixed image (Door1),Low risky image (Door2),High fixed image (Door3),High risky image (Door4),Extreme Wild Card,NonExtreme Wild Card,,date,expName,psychopyVersion,OS,frameRate,PROLIFIC_PID,STUDY_ID,SESSION_ID,mouse_2.x,mouse_2.y,mouse_2.leftButton,mouse_2.midButton,mouse_2.rightButton,mouse_2.clicked_name,Trial Type,Left Option Image,Right Option Image,Chosen Door,mouse.x,mouse.y,mouse.leftButton,mouse.midButton,mouse.rightButton,mouse.time,mouse.clicked_name,Feedback,Cumulative Reward,Block,trial.thisRepN,trial.thisTrialN,trial.thisN,trial.thisIndex,trial.ran,blocks.thisRepN,blocks.thisTrialN,blocks.thisN,blocks.thisIndex,blocks.ran,Money conversion,First Outcome Reported,Shown Door (First Outcome),Displayed Image (First Outcome),outcomes.thisRepN,outcomes.thisTrialN,outcomes.thisN,outcomes.thisIndex,outcomes.ran,judgments.thisRepN,judgments.thisTrialN,judgments.thisN,judgments.thisIndex,judgments.ran,freqMouse.x,freqMouse.y,freqMouse.leftButton,freqMouse.midButton,freqMouse.rightButton,freqMouse.clicked_name,FQJ for first outcome,FQJ for second outcome,Shown Door,Displayed Image,trials.thisRepN,trials.thisTrialN,trials.thisN,trials.thisIndex,trials.ran,judgBlock.thisRepN,judgBlock.thisTrialN,judgBlock.thisN,judgBlock.thisIndex,judgBlock.ran
0,resources/DBN.BMP,resources/DR.BMP,resources/DB.BMP,resources/DG.BMP,resources/DY.BMP,resources/DP.BMP,,2023-08-16_08h47.06.060,HF_wild_card,2022.2.4,Win32,60.59504333,6060b2cead1daacd69adb31f,64d2fd46c836a06233681665,64dc7eedad91d76cb42eb0fc,,,,,,,,,,,,,,,,,,,,,,,,,,,,,,,,,,,,,,,,,,,,,,,,,,,,,,,,,,,,,,,,
,,,,,,,,2023-08-16_08h47.06.060,HF_wild_card,2022.2.4,Win32,60.59504333,6060b2cead1daacd69adb31f,64d2fd46c836a06233681665,64dc7eedad91d76cb42eb0fc,0.014814801,-0.417592578,1,0,0,agree,,,,,,,,,,,,,,,,,,,,,,,,,,,,,,,,,,,,,,,,,,,,,,,,,,,,,,,,,,
,,,,,,,,2023-08-16_08h47.06.060,HF_wild_card,2022.2.4,Win32,60.59504333,6060b2cead1daacd69adb31f,64d2fd46c836a06233681665,64dc7eedad91d76cb42eb0fc,,,,,,,,,,,,,,,,,,,,,,,,,,,,,,,,,,,,,,,,,,,,,,,,,,,,,,,,,,,,,,,,
,,,,,,,,2023-08-16_08h47.06.060,HF_wild_card,2022.2.4,Win32,60.59504333,6060b2cead1daacd69adb31f,64d2fd46c836a06233681665,64dc7eedad91d76cb42eb0fc,,,,,,,ctch,resources/DG.BMP,resources/DBN.BMP,Door1,0.375,-0.068518533,1,0,0,3.2121,optionRight,30,30,1,0,0,0,0,1,,,,,,,,,,,,,,,,,,,,,,,,,,,,,,,,,,,,,,,
,,,,,,,,2023-08-16_08h47.06.060,HF_wild_card,2022.2.4,Win32,60.59504333,6060b2cead1daacd69adb31f,64d2fd46c836a06233681665,64dc7eedad91d76cb42eb0fc,,,,,,,ctch,resources/DBN.BMP,resources/DG.BMP,Door1,-0.390740748,-0.031481496,1,0,0,1.3741,optionLeft,30,60,1,1,0,1,0,1,,,,,,,,,,,,,,,,,,,,,,,,,,,,,,,,,,,,,,,
,,,,,,,,2023-08-16_08h47.06.060,HF_wild_card,2022.2.4,Win32,60.59504333,6060b2cead1daacd69adb31f,64d2fd46c836a06233681665,64dc7eedad91d76cb42eb0fc,,,,,,,decisionTrl,resources/DB.BMP,resources/DY.BMP,Door3,-0.266666624,-0.022222236,1,0,0,1.6912,optionLeft,70,130,1,2,0,2,0,1,,,,,,,,,,,,,,,,,,,,,,,,,,,,,,,,,,,,,,,
,,,,,,,,2023-08-16_08h47.06.060,HF_wild_card,2022.2.4,Win32,60.59504333,6060b2cead1daacd69adb31f,64d2fd46c836a06233681665,64dc7eedad91d76cb42eb0fc,,,,,,,decisionTrl,resources/DR.BMP,resources/DBN.BMP,Door2,-0.599074063,-0.024074095,1,0,0,1.176,optionLeft,20,150,1,3,0,3,0,1,,,,,,,,,,,,,,,,,,,,,,,,,,,,,,,,,,,,,,,
,,,,,,,,2023-08-16_08h47.06.060,HF_wild_card,2022.2.4,Win32,60.59504333,6060b2cead1daacd69adb31f,64d2fd46c836a06233681665,64dc7eedad91d76cb42eb0fc,,,,,,,sngl,resources/Empty.png,resources/DY.BMP,WildCard_Ex,0.257407436,-0.014814836,1,0,0,1.7758,optionRight,5,155,1,4,0,4,0,1,,,,,,,,,,,,,,,,,,,,,,,,,,,,,,,,,,,,,,,
,,,,,,,,2023-08-16_08h47.06.060,HF_wild_card,2022.2.4,Win32,60.59504333,6060b2cead1daacd69adb31f,64d2fd46c836a06233681665,64dc7eedad91d76cb42eb0fc,,,,,,,sngl,resources/Empty.png,resources/DR.BMP,Door2,0.450000057,-0.005555577,1,0,0,0.8658,optionRight,20,175,1,5,0,5,0,1,,,,,,,,,,,,,,,,,,,,,,,,,,,,,,,,,,,,,,,
,,,,,,,,2023-08-16_08h47.06.060,HF_wild_card,2022.2.4,Win32,60.59504333,6060b2cead1daacd69adb31f,64d2fd46c836a06233681665,64dc7eedad91d76cb42eb0fc,,,,,,,decisionTrl,resources/DG.BMP,resources/DB.BMP,Door4,-0.276851866,-0.01203703,1,0,0,1.8594,optionLeft,60,235,1,6,0,6,0,1,,,,,,,,,,,,,,,,,,,,,,,,,,,,,,,,,,,,,,,
,,,,,,,,2023-08-16_08h47.06.060,HF_wild_card,2022.2.4,Win32,60.59504333,6060b2cead1daacd69adb31f,64d2fd46c836a06233681665,64dc7eedad91d76cb42eb0fc,,,,,,,decisionTrl,resources/DG.BMP,resources/DB.BMP,Door4,-0.331481474,-0.009259259,1,0,0,0.8781,optionLeft,60,295,1,7,0,7,0,1,,,,,,,,,,,,,,,,,,,,,,,,,,,,,,,,,,,,,,,
,,,,,,,,2023-08-16_08h47.06.060,HF_wild_card,2022.2.4,Win32,60.59504333,6060b2cead1daacd69adb31f,64d2fd46c836a06233681665,64dc7eedad91d76cb42eb0fc,,,,,,,decisionTrl,resources/DB.BMP,resources/DG.BMP,Door3,-0.337037016,-0.000925947,1,0,0,1.0617,optionLeft,70,365,1,8,0,8,0,1,,,,,,,,,,,,,,,,,,,,,,,,,,,,,,,,,,,,,,,
,,,,,,,,2023-08-16_08h47.06.060,HF_wild_card,2022.2.4,Win32,60.59504333,6060b2cead1daacd69adb31f,64d2fd46c836a06233681665,64dc7eedad91d76cb42eb0fc,,,,,,,sngl,resources/DY.BMP,resources/Empty.png,WildCard_Ex,0.257407436,0.009259259,1,0,0,0.9937,optionLeft,95,460,1,9,0,9,0,1,,,,,,,,,,,,,,,,,,,,,,,,,,,,,,,,,,,,,,,
,,,,,,,,2023-08-16_08h47.06.060,HF_wild_card,2022.2.4,Win32,60.59504333,6060b2cead1daacd69adb31f,64d2fd46c836a06233681665,64dc7eedad91d76cb42eb0fc,,,,,,,decisionTrl,resources/DBN.BMP,resources/DR.BMP,Door1,-0.294444402,0.025000007,1,0,0,1.4926,optionLeft,30,490,1,10,0,10,0,1,,,,,,,,,,,,,,,,,,,,,,,,,,,,,,,,,,,,,,,
,,,,,,,,2023-08-16_08h47.06.060,HF_wild_card,2022.2.4,Win32,60.59504333,6060b2cead1daacd69adb31f,64d2fd46c836a06233681665,64dc7eedad91d76cb42eb0fc,,,,,,,decisionTrl,resources/DY.BMP,resources/DR.BMP,WildCard_Ex,-0.255555541,0.038888896,1,0,0,1.8261,optionLeft,95,585,1,11,0,11,0,1,,,,,,,,,,,,,,,,,,,,,,,,,,,,,,,,,,,,,,,
,,,,,,,,2023-08-16_08h47.06.060,HF_wild_card,2022.2.4,Win32,60.59504333,6060b2cead1daacd69adb31f,64d2fd46c836a06233681665,64dc7eedad91d76cb42eb0fc,,,,,,,decisionTrl,resources/DB.BMP,resources/DG.BMP,Door3,-0.354629623,0.027777778,1,0,0,1.9259,optionLeft,70,655,1,12,0,12,0,1,,,,,,,,,,,,,,,,,,,,,,,,,,,,,,,,,,,,,,,
,,,,,,,,2023-08-16_08h47.06.060,HF_wild_card,2022.2.4,Win32,60.59504333,6060b2cead1daacd69adb31f,64d2fd46c836a06233681665,64dc7eedad91d76cb42eb0fc,,,,,,,ctch,resources/DG.BMP,resources/DBN.BMP,Door4,-0.401851831,0.079629616,1,0,0,2.3735,optionLeft,60,715,1,13,0,13,0,1,,,,,,,,,,,,,,,,,,,,,,,,,,,,,,,,,,,,,,,
,,,,,,,,2023-08-16_08h47.06.060,HF_wild_card,2022.2.4,Win32,60.59504333,6060b2cead1daacd69adb31f,64d2fd46c836a06233681665,64dc7eedad91d76cb42eb0fc,,,,,,,decisionTrl,resources/DBN.BMP,resources/DR.BMP,Door2,0.432407379,0.077777757,1,0,0,1.3432,optionRight,20,735,1,14,0,14,0,1,,,,,,,,,,,,,,,,,,,,,,,,,,,,,,,,,,,,,,,
,,,,,,,,2023-08-16_08h47.06.060,HF_wild_card,2022.2.4,Win32,60.59504333,6060b2cead1daacd69adb31f,64d2fd46c836a06233681665,64dc7eedad91d76cb42eb0fc,,,,,,,decisionTrl,resources/DR.BMP,resources/DBN.BMP,Door1,0.387963048,0.066666674,1,0,0,0.9436,optionRight,30,765,1,15,0,15,0,1,,,,,,,,,,,,,,,,,,,,,,,,,,,,,,,,,,,,,,,
,,,,,,,,2023-08-16_08h47.06.060,HF_wild_card,2022.2.4,Win32,60.59504333,6060b2cead1daacd69adb31f,64d2fd46c836a06233681665,64dc7eedad91d76cb42eb0fc,,,,,,,decisionTrl,resources/DBN.BMP,resources/DR.BMP,Door2,0.362962935,0.037962949,1,0,0,1.5427,optionRight,40,805,1,16,0,16,0,1,,,,,,,,,,,,,,,,,,,,,,,,,,,,,,,,,,,,,,,
,,,,,,,,2023-08-16_08h47.06.060,HF_wild_card,2022.2.4,Win32,60.59504333,6060b2cead1daacd69adb31f,64d2fd46c836a06233681665,64dc7eedad91d76cb42eb0fc,,,,,,,decisionTrl,resources/DY.BMP,resources/DB.BMP,Door3,0.374074159,0.048148155,1,0,0,1.3396,optionRight,70,875,1,17,0,17,0,1,,,,,,,,,,,,,,,,,,,,,,,,,,,,,,,,,,,,,,,
,,,,,,,,2023-08-16_08h47.06.060,HF_wild_card,2022.2.4,Win32,60.59504333,6060b2cead1daacd69adb31f,64d2fd46c836a06233681665,64dc7eedad91d76cb42eb0fc,,,,,,,sngl,resources/Empty.png,resources/DB.BMP,Door3,0.301851908,0.035185178,1,0,0,0.7933,optionRight,70,945,1,18,0,18,0,1,,,,,,,,,,,,,,,,,,,,,,,,,,,,,,,,,,,,,,,
,,,,,,,,2023-08-16_08h47.06.060,HF_wild_card,2022.2.4,Win32,60.59504333,6060b2cead1daacd69adb31f,64d2fd46c836a06233681665,64dc7eedad91d76cb42eb0fc,,,,,,,ctch,resources/DBN.BMP,resources/DG.BMP,Door1,-0.299999979,0.082407386,1,0,0,2.1239,optionLeft,30,975,1,19,0,19,0,1,,,,,,,,,,,,,,,,,,,,,,,,,,,,,,,,,,,,,,,
,,,,,,,,2023-08-16_08h47.06.060,HF_wild_card,2022.2.4,Win32,60.59504333,6060b2cead1daacd69adb31f,64d2fd46c836a06233681665,64dc7eedad91d76cb42eb0fc,,,,,,,decisionTrl,resources/DR.BMP,resources/DBN.BMP,Door1,0.321296268,0.109259252,1,0,0,1.8579,optionRight,30,1005,1,20,0,20,0,1,,,,,,,,,,,,,,,,,,,,,,,,,,,,,,,,,,,,,,,
,,,,,,,,2023-08-16_08h47.06.060,HF_wild_card,2022.2.4,Win32,60.59504333,6060b2cead1daacd69adb31f,64d2fd46c836a06233681665,64dc7eedad91d76cb42eb0fc,,,,,,,sngl,resources/DB.BMP,resources/Empty.png,Door3,-0.362037023,0.014814801,1,0,0,0.8423,optionLeft,70,1075,1,21,0,21,0,1,,,,,,,,,,,,,,,,,,,,,,,,,,,,,,,,,,,,,,,
,,,,,,,,2023-08-16_08h47.06.060,HF_wild_card,2022.2.4,Win32,60.59504333,6060b2cead1daacd69adb31f,64d2fd46c836a06233681665,64dc7eedad91d76cb42eb0fc,,,,,,,ctch,resources/DB.BMP,resources/DR.BMP,Door3,-0.271296254,0.025925919,1,0,0,1.4922,optionLeft,70,1145,1,22,0,22,0,1,,,,,,,,,,,,,,,,,,,,,,,,,,,,,,,,,,,,,,,
,,,,,,,,2023-08-16_08h47.06.060,HF_wild_card,2022.2.4,Win32,60.59504333,6060b2cead1daacd69adb31f,64d2fd46c836a06233681665,64dc7eedad91d76cb42eb0fc,,,,,,,decisionTrl,resources/DY.BMP,resources/DBN.BMP,WildCard_Ex,-0.375925912,0.027777778,1,0,0,1.3425,optionLeft,95,1240,1,23,0,23,0,1,,,,,,,,,,,,,,,,,,,,,,,,,,,,,,,,,,,,,,,
,,,,,,,,2023-08-16_08h47.06.060,HF_wild_card,2022.2.4,Win32,60.59504333,6060b2cead1daacd69adb31f,64d2fd46c836a06233681665,64dc7eedad91d76cb42eb0fc,,,,,,,decisionTrl,resources/DY.BMP,resources/DG.BMP,WildCard_Ex,-0.354629623,0.074999986,1,0,0,1.4421,optionLeft,95,1335,1,24,0,24,0,1,,,,,,,,,,,,,,,,,,,,,,,,,,,,,,,,,,,,,,,
,,,,,,,,2023-08-16_08h47.06.060,HF_wild_card,2022.2.4,Win32,60.59504333,6060b2cead1daacd69adb31f,64d2fd46c836a06233681665,64dc7eedad91d76cb42eb0fc,,,,,,,sngl,resources/DR.BMP,resources/Empty.png,Door2,-0.36296297,0.046296296,1,0,0,0.8769,optionLeft,40,1375,1,25,0,25,0,1,,,,,,,,,,,,,,,,,,,,,,,,,,,,,,,,,,,,,,,
,,,,,,,,2023-08-16_08h47.06.060,HF_wild_card,2022.2.4,Win32,60.59504333,6060b2cead1daacd69adb31f,64d2fd46c836a06233681665,64dc7eedad91d76cb42eb0fc,,,,,,,decisionTrl,resources/DB.BMP,resources/DG.BMP,Door3,-0.387962942,0.042592578,1,0,0,1.5753,optionLeft,70,1445,1,26,0,26,0,1,,,,,,,,,,,,,,,,,,,,,,,,,,,,,,,,,,,,,,,
,,,,,,,,2023-08-16_08h47.06.060,HF_wild_card,2022.2.4,Win32,60.59504333,6060b2cead1daacd69adb31f,64d2fd46c836a06233681665,64dc7eedad91d76cb42eb0fc,,,,,,,sngl,resources/Empty.png,resources/DG.BMP,Door4,0.458333333,0.02407406,1,0,0,1.3764,optionRight,60,1505,1,27,0,27,0,1,,,,,,,,,,,,,,,,,,,,,,,,,,,,,,,,,,,,,,,
,,,,,,,,2023-08-16_08h47.06.060,HF_wild_card,2022.2.4,Win32,60.59504333,6060b2cead1daacd69adb31f,64d2fd46c836a06233681665,64dc7eedad91d76cb42eb0fc,,,,,,,decisionTrl,resources/DG.BMP,resources/DB.BMP,Door4,-0.333333333,0.043518526,1,0,0,0.7926,optionLeft,80,1585,1,28,0,28,0,1,,,,,,,,,,,,,,,,,,,,,,,,,,,,,,,,,,,,,,,
,,,,,,,,2023-08-16_08h47.06.060,HF_wild_card,2022.2.4,Win32,60.59504333,6060b2cead1daacd69adb31f,64d2fd46c836a06233681665,64dc7eedad91d76cb42eb0fc,,,,,,,ctch,resources/DR.BMP,resources/DB.BMP,Door3,0.361111111,0.062962956,1,0,0,1.5583,optionRight,70,1655,1,29,0,29,0,1,,,,,,,,,,,,,,,,,,,,,,,,,,,,,,,,,,,,,,,
,,,,,,,,2023-08-16_08h47.06.060,HF_wild_card,2022.2.4,Win32,60.59504333,6060b2cead1daacd69adb31f,64d2fd46c836a06233681665,64dc7eedad91d76cb42eb0fc,,,,,,,decisionTrl,resources/DBN.BMP,resources/DR.BMP,Door2,0.386111083,0.069444444,1,0,0,1.4094,optionRight,20,1675,1,30,0,30,0,1,,,,,,,,,,,,,,,,,,,,,,,,,,,,,,,,,,,,,,,
,,,,,,,,2023-08-16_08h47.06.060,HF_wild_card,2022.2.4,Win32,60.59504333,6060b2cead1daacd69adb31f,64d2fd46c836a06233681665,64dc7eedad91d76cb42eb0fc,,,,,,,decisionTrl,resources/DR.BMP,resources/DBN.BMP,Door1,0.484259288,0.094444452,1,0,0,1.0429,optionRight,30,1705,1,31,0,31,0,1,,,,,,,,,,,,,,,,,,,,,,,,,,,,,,,,,,,,,,,
,,,,,,,,2023-08-16_08h47.06.060,HF_wild_card,2022.2.4,Win32,60.59504333,6060b2cead1daacd69adb31f,64d2fd46c836a06233681665,64dc7eedad91d76cb42eb0fc,,,,,,,sngl,resources/DY.BMP,resources/Empty.png,WildCard_Ex,-0.392592571,0.049999979,1,0,0,0.911,optionLeft,5,1710,1,32,0,32,0,1,,,,,,,,,,,,,,,,,,,,,,,,,,,,,,,,,,,,,,,
,,,,,,,,2023-08-16_08h47.06.060,HF_wild_card,2022.2.4,Win32,60.59504333,6060b2cead1daacd69adb31f,64d2fd46c836a06233681665,64dc7eedad91d76cb42eb0fc,,,,,,,sngl,resources/Empty.png,resources/DBN.BMP,Door1,0.467592593,0.027777778,1,0,0,1.0272,optionRight,30,1740,1,33,0,33,0,1,,,,,,,,,,,,,,,,,,,,,,,,,,,,,,,,,,,,,,,
,,,,,,,,2023-08-16_08h47.06.060,HF_wild_card,2022.2.4,Win32,60.59504333,6060b2cead1daacd69adb31f,64d2fd46c836a06233681665,64dc7eedad91d76cb42eb0fc,,,,,,,decisionTrl,resources/DR.BMP,resources/DY.BMP,Door2,-0.300925926,0.01944443,1,0,0,1.7095,optionLeft,40,1780,1,34,0,34,0,1,,,,,,,,,,,,,,,,,,,,,,,,,,,,,,,,,,,,,,,
,,,,,,,,2023-08-16_08h47.06.060,HF_wild_card,2022.2.4,Win32,60.59504333,6060b2cead1daacd69adb31f,64d2fd46c836a06233681665,64dc7eedad91d76cb42eb0fc,,,,,,,decisionTrl,resources/DG.BMP,resources/DY.BMP,Door4,-0.330555563,0.017592571,1,0,0,0.9105,optionLeft,60,1840,1,35,0,35,0,1,,,,,,,,,,,,,,,,,,,,,,,,,,,,,,,,,,,,,,,
,,,,,,,,2023-08-16_08h47.06.060,HF_wild_card,2022.2.4,Win32,60.59504333,6060b2cead1daacd69adb31f,64d2fd46c836a06233681665,64dc7eedad91d76cb42eb0fc,,,,,,,sngl,resources/Empty.png,resources/DY.BMP,WildCard_Ex,0.258333347,0.00462963,1,0,0,0.8264,optionRight,95,1935,1,36,0,36,0,1,,,,,,,,,,,,,,,,,,,,,,,,,,,,,,,,,,,,,,,
,,,,,,,,2023-08-16_08h47.06.060,HF_wild_card,2022.2.4,Win32,60.59504333,6060b2cead1daacd69adb31f,64d2fd46c836a06233681665,64dc7eedad91d76cb42eb0fc,,,,,,,sngl,resources/DG.BMP,resources/Empty.png,Door4,-0.255555541,-0.003703718,1,0,0,0.9104,optionLeft,80,2015,1,37,0,37,0,1,,,,,,,,,,,,,,,,,,,,,,,,,,,,,,,,,,,,,,,
,,,,,,,,2023-08-16_08h47.06.060,HF_wild_card,2022.2.4,Win32,60.59504333,6060b2cead1daacd69adb31f,64d2fd46c836a06233681665,64dc7eedad91d76cb42eb0fc,,,,,,,decisionTrl,resources/DBN.BMP,resources/DY.BMP,WildCard_Ex,0.392592677,0.006481489,1,0,0,0.8608,optionRight,95,2110,1,38,0,38,0,1,,,,,,,,,,,,,,,,,,,,,,,,,,,,,,,,,,,,,,,
,,,,,,,,2023-08-16_08h47.06.060,HF_wild_card,2022.2.4,Win32,60.59504333,6060b2cead1daacd69adb31f,64d2fd46c836a06233681665,64dc7eedad91d76cb42eb0fc,,,,,,,decisionTrl,resources/DG.BMP,resources/DB.BMP,Door4,-0.288888861,0.021296289,1,0,0,1.8764,optionLeft,80,2190,1,39,0,39,0,1,,,,,,,,,,,,,,,,,,,,,,,,,,,,,,,,,,,,,,,
,,,,,,,,2023-08-16_08h47.06.060,HF_wild_card,2022.2.4,Win32,60.59504333,6060b2cead1daacd69adb31f,64d2fd46c836a06233681665,64dc7eedad91d76cb42eb0fc,,,,,,,sngl,resources/DBN.BMP,resources/Empty.png,Door1,-0.24537037,0.02407406,1,0,0,0.9939,optionLeft,30,2220,1,40,0,40,0,1,,,,,,,,,,,,,,,,,,,,,,,,,,,,,,,,,,,,,,,
,,,,,,,,2023-08-16_08h47.06.060,HF_wild_card,2022.2.4,Win32,60.59504333,6060b2cead1daacd69adb31f,64d2fd46c836a06233681665,64dc7eedad91d76cb42eb0fc,,,,,,,ctch,resources/DR.BMP,resources/DB.BMP,Door3,0.424074102,0.015740748,1,0,0,1.5434,optionRight,70,2290,1,41,0,41,0,1,,,,,,,,,,,,,,,,,,,,,,,,,,,,,,,,,,,,,,,
,,,,,,,,2023-08-16_08h47.06.060,HF_wild_card,2022.2.4,Win32,60.59504333,6060b2cead1daacd69adb31f,64d2fd46c836a06233681665,64dc7eedad91d76cb42eb0fc,,,,,,,decisionTrl,resources/DB.BMP,resources/DG.BMP,Door4,0.318518603,0.025000007,1,0,0,1.6595,optionRight,80,2370,1,42,0,42,0,1,,,,,,,,,,,,,,,,,,,,,,,,,,,,,,,,,,,,,,,
,,,,,,,,2023-08-16_08h47.06.060,HF_wild_card,2022.2.4,Win32,60.59504333,6060b2cead1daacd69adb31f,64d2fd46c836a06233681665,64dc7eedad91d76cb42eb0fc,,,,,,,ctch,resources/DB.BMP,resources/DR.BMP,Door3,-0.376851859,0.01944443,1,0,0,1.3768,optionLeft,70,2440,1,43,0,43,0,1,,,,,,,,,,,,,,,,,,,,,,,,,,,,,,,,,,,,,,,
,,,,,,,,2023-08-16_08h47.06.060,HF_wild_card,2022.2.4,Win32,60.59504333,6060b2cead1daacd69adb31f,64d2fd46c836a06233681665,64dc7eedad91d76cb42eb0fc,,,,,,,,,,,,,,,,,,,,,,,,,,0,0,0,0,1,,,,,,,,,,,,,,,,,,,,,,,,,,,,,,,,,,
,,,,,,,,2023-08-16_08h47.06.060,HF_wild_card,2022.2.4,Win32,60.59504333,6060b2cead1daacd69adb31f,64d2fd46c836a06233681665,64dc7eedad91d76cb42eb0fc,,,,,,,ctch,resources/DR.BMP,resources/DB.BMP,Door3,0.37962963,0.025000007,1,0,0,1.6664,optionRight,70,2510,2,0,0,0,0,1,,,,,,,,,,,,,,,,,,,,,,,,,,,,,,,,,,,,,,,
,,,,,,,,2023-08-16_08h47.06.060,HF_wild_card,2022.2.4,Win32,60.59504333,6060b2cead1daacd69adb31f,64d2fd46c836a06233681665,64dc7eedad91d76cb42eb0fc,,,,,,,decisionTrl,resources/DBN.BMP,resources/DR.BMP,Door2,0.499074159,0.02407406,1,0,0,2.1257,optionRight,40,2550,2,1,0,1,0,1,,,,,,,,,,,,,,,,,,,,,,,,,,,,,,,,,,,,,,,
,,,,,,,,2023-08-16_08h47.06.060,HF_wild_card,2022.2.4,Win32,60.59504333,6060b2cead1daacd69adb31f,64d2fd46c836a06233681665,64dc7eedad91d76cb42eb0fc,,,,,,,sngl,resources/DB.BMP,resources/Empty.png,Door3,-0.35833334,-0.035185178,1,0,0,0.9932,optionLeft,70,2620,2,2,0,2,0,1,,,,,,,,,,,,,,,,,,,,,,,,,,,,,,,,,,,,,,,
,,,,,,,,2023-08-16_08h47.06.060,HF_wild_card,2022.2.4,Win32,60.59504333,6060b2cead1daacd69adb31f,64d2fd46c836a06233681665,64dc7eedad91d76cb42eb0fc,,,,,,,decisionTrl,resources/DG.BMP,resources/DB.BMP,Door3,0.341666751,0.001851859,1,0,0,0.9936,optionRight,70,2690,2,3,0,3,0,1,,,,,,,,,,,,,,,,,,,,,,,,,,,,,,,,,,,,,,,
,,,,,,,,2023-08-16_08h47.06.060,HF_wild_card,2022.2.4,Win32,60.59504333,6060b2cead1daacd69adb31f,64d2fd46c836a06233681665,64dc7eedad91d76cb42eb0fc,,,,,,,decisionTrl,resources/DR.BMP,resources/DBN.BMP,Door2,-0.282407407,0,1,0,0,2.6258,optionLeft,40,2730,2,4,0,4,0,1,,,,,,,,,,,,,,,,,,,,,,,,,,,,,,,,,,,,,,,
,,,,,,,,2023-08-16_08h47.06.060,HF_wild_card,2022.2.4,Win32,60.59504333,6060b2cead1daacd69adb31f,64d2fd46c836a06233681665,64dc7eedad91d76cb42eb0fc,,,,,,,sngl,resources/DBN.BMP,resources/Empty.png,Door1,-0.378703683,-0.011111118,1,0,0,0.6938,optionLeft,30,2760,2,5,0,5,0,1,,,,,,,,,,,,,,,,,,,,,,,,,,,,,,,,,,,,,,,
,,,,,,,,2023-08-16_08h47.06.060,HF_wild_card,2022.2.4,Win32,60.59504333,6060b2cead1daacd69adb31f,64d2fd46c836a06233681665,64dc7eedad91d76cb42eb0fc,,,,,,,decisionTrl,resources/DB.BMP,resources/DG.BMP,Door4,0.314814815,0.032407407,1,0,0,1.8094,optionRight,60,2820,2,6,0,6,0,1,,,,,,,,,,,,,,,,,,,,,,,,,,,,,,,,,,,,,,,
,,,,,,,,2023-08-16_08h47.06.060,HF_wild_card,2022.2.4,Win32,60.59504333,6060b2cead1daacd69adb31f,64d2fd46c836a06233681665,64dc7eedad91d76cb42eb0fc,,,,,,,decisionTrl,resources/DBN.BMP,resources/DR.BMP,Door2,0.42314812,0.005555541,1,0,0,1.5604,optionRight,40,2860,2,7,0,7,0,1,,,,,,,,,,,,,,,,,,,,,,,,,,,,,,,,,,,,,,,
,,,,,,,,2023-08-16_08h47.06.060,HF_wild_card,2022.2.4,Win32,60.59504333,6060b2cead1daacd69adb31f,64d2fd46c836a06233681665,64dc7eedad91d76cb42eb0fc,,,,,,,ctch,resources/DB.BMP,resources/DR.BMP,Door3,-0.371296282,-0.020370377,1,0,0,1.3605,optionLeft,70,2930,2,8,0,8,0,1,,,,,,,,,,,,,,,,,,,,,,,,,,,,,,,,,,,,,,,
,,,,,,,,2023-08-16_08h47.06.060,HF_wild_card,2022.2.4,Win32,60.59504333,6060b2cead1daacd69adb31f,64d2fd46c836a06233681665,64dc7eedad91d76cb42eb0fc,,,,,,,ctch,resources/DB.BMP,resources/DR.BMP,Door3,-0.477777764,0.0074074,1,0,0,1.1602,optionLeft,70,3000,2,9,0,9,0,1,,,,,,,,,,,,,,,,,,,,,,,,,,,,,,,,,,,,,,,
,,,,,,,,2023-08-16_08h47.06.060,HF_wild_card,2022.2.4,Win32,60.59504333,6060b2cead1daacd69adb31f,64d2fd46c836a06233681665,64dc7eedad91d76cb42eb0fc,,,,,,,decisionTrl,resources/DG.BMP,resources/DB.BMP,Door4,-0.312037044,0.025925919,1,0,0,1.743,optionLeft,60,3060,2,10,0,10,0,1,,,,,,,,,,,,,,,,,,,,,,,,,,,,,,,,,,,,,,,
,,,,,,,,2023-08-16_08h47.06.060,HF_wild_card,2022.2.4,Win32,60.59504333,6060b2cead1daacd69adb31f,64d2fd46c836a06233681665,64dc7eedad91d76cb42eb0fc,,,,,,,sngl,resources/Empty.png,resources/DB.BMP,Door3,0.33148151,-0.011111118,1,0,0,0.7264,optionRight,70,3130,2,11,0,11,0,1,,,,,,,,,,,,,,,,,,,,,,,,,,,,,,,,,,,,,,,
,,,,,,,,2023-08-16_08h47.06.060,HF_wild_card,2022.2.4,Win32,60.59504333,6060b2cead1daacd69adb31f,64d2fd46c836a06233681665,64dc7eedad91d76cb42eb0fc,,,,,,,ctch,resources/DBN.BMP,resources/DG.BMP,Door4,0.291666667,0.03611109,1,0,0,1.4243,optionRight,60,3190,2,12,0,12,0,1,,,,,,,,,,,,,,,,,,,,,,,,,,,,,,,,,,,,,,,
,,,,,,,,2023-08-16_08h47.06.060,HF_wild_card,2022.2.4,Win32,60.59504333,6060b2cead1daacd69adb31f,64d2fd46c836a06233681665,64dc7eedad91d76cb42eb0fc,,,,,,,decisionTrl,resources/DBN.BMP,resources/DR.BMP,Door2,0.398148148,0.059259238,1,0,0,2.1913,optionRight,20,3210,2,13,0,13,0,1,,,,,,,,,,,,,,,,,,,,,,,,,,,,,,,,,,,,,,,
,,,,,,,,2023-08-16_08h47.06.060,HF_wild_card,2022.2.4,Win32,60.59504333,6060b2cead1daacd69adb31f,64d2fd46c836a06233681665,64dc7eedad91d76cb42eb0fc,,,,,,,sngl,resources/Empty.png,resources/DG.BMP,Door4,0.365740741,0.002777771,1,0,0,0.7605,optionRight,80,3290,2,14,0,14,0,1,,,,,,,,,,,,,,,,,,,,,,,,,,,,,,,,,,,,,,,
,,,,,,,,2023-08-16_08h47.06.060,HF_wild_card,2022.2.4,Win32,60.59504333,6060b2cead1daacd69adb31f,64d2fd46c836a06233681665,64dc7eedad91d76cb42eb0fc,,,,,,,sngl,resources/Empty.png,resources/DY.BMP,WildCard_Ex,0.52870376,0.000925912,1,0,0,0.6097,optionRight,95,3385,2,15,0,15,0,1,,,,,,,,,,,,,,,,,,,,,,,,,,,,,,,,,,,,,,,
,,,,,,,,2023-08-16_08h47.06.060,HF_wild_card,2022.2.4,Win32,60.59504333,6060b2cead1daacd69adb31f,64d2fd46c836a06233681665,64dc7eedad91d76cb42eb0fc,,,,,,,decisionTrl,resources/DR.BMP,resources/DBN.BMP,Door1,0.398148148,0.050925926,1,0,0,1.5257,optionRight,30,3415,2,16,0,16,0,1,,,,,,,,,,,,,,,,,,,,,,,,,,,,,,,,,,,,,,,
,,,,,,,,2023-08-16_08h47.06.060,HF_wild_card,2022.2.4,Win32,60.59504333,6060b2cead1daacd69adb31f,64d2fd46c836a06233681665,64dc7eedad91d76cb42eb0fc,,,,,,,decisionTrl,resources/DBN.BMP,resources/DR.BMP,Door1,-0.174074032,0.006481489,1,0,0,1.092,optionLeft,30,3445,2,17,0,17,0,1,,,,,,,,,,,,,,,,,,,,,,,,,,,,,,,,,,,,,,,
,,,,,,,,2023-08-16_08h47.06.060,HF_wild_card,2022.2.4,Win32,60.59504333,6060b2cead1daacd69adb31f,64d2fd46c836a06233681665,64dc7eedad91d76cb42eb0fc,,,,,,,decisionTrl,resources/DR.BMP,resources/DBN.BMP,Door2,-0.234259217,0.003703683,1,0,0,2.592,optionLeft,40,3485,2,18,0,18,0,1,,,,,,,,,,,,,,,,,,,,,,,,,,,,,,,,,,,,,,,
,,,,,,,,2023-08-16_08h47.06.060,HF_wild_card,2022.2.4,Win32,60.59504333,6060b2cead1daacd69adb31f,64d2fd46c836a06233681665,64dc7eedad91d76cb42eb0fc,,,,,,,decisionTrl,resources/DB.BMP,resources/DY.BMP,WildCard_Ex,0.314814815,0.042592578,1,0,0,1.6917,optionRight,95,3580,2,19,0,19,0,1,,,,,,,,,,,,,,,,,,,,,,,,,,,,,,,,,,,,,,,
,,,,,,,,2023-08-16_08h47.06.060,HF_wild_card,2022.2.4,Win32,60.59504333,6060b2cead1daacd69adb31f,64d2fd46c836a06233681665,64dc7eedad91d76cb42eb0fc,,,,,,,sngl,resources/Empty.png,resources/DR.BMP,Door2,0.412037037,0.013888889,1,0,0,0.9124,optionRight,40,3620,2,20,0,20,0,1,,,,,,,,,,,,,,,,,,,,,,,,,,,,,,,,,,,,,,,
,,,,,,,,2023-08-16_08h47.06.060,HF_wild_card,2022.2.4,Win32,60.59504333,6060b2cead1daacd69adb31f,64d2fd46c836a06233681665,64dc7eedad91d76cb42eb0fc,,,,,,,decisionTrl,resources/DB.BMP,resources/DG.BMP,Door4,0.325925898,0.042592578,1,0,0,2.0094,optionRight,80,3700,2,21,0,21,0,1,,,,,,,,,,,,,,,,,,,,,,,,,,,,,,,,,,,,,,,
,,,,,,,,2023-08-16_08h47.06.060,HF_wild_card,2022.2.4,Win32,60.59504333,6060b2cead1daacd69adb31f,64d2fd46c836a06233681665,64dc7eedad91d76cb42eb0fc,,,,,,,ctch,resources/DR.BMP,resources/DB.BMP,Door3,0.393518519,0.03611109,1,0,0,1.3422,optionRight,70,3770,2,22,0,22,0,1,,,,,,,,,,,,,,,,,,,,,,,,,,,,,,,,,,,,,,,
,,,,,,,,2023-08-16_08h47.06.060,HF_wild_card,2022.2.4,Win32,60.59504333,6060b2cead1daacd69adb31f,64d2fd46c836a06233681665,64dc7eedad91d76cb42eb0fc,,,,,,,decisionTrl,resources/DY.BMP,resources/DR.BMP,WildCard_Ex,-0.303703697,0.037037037,1,0,0,1.0762,optionLeft,95,3865,2,23,0,23,0,1,,,,,,,,,,,,,,,,,,,,,,,,,,,,,,,,,,,,,,,
,,,,,,,,2023-08-16_08h47.06.060,HF_wild_card,2022.2.4,Win32,60.59504333,6060b2cead1daacd69adb31f,64d2fd46c836a06233681665,64dc7eedad91d76cb42eb0fc,,,,,,,sngl,resources/DY.BMP,resources/Empty.png,WildCard_Ex,-0.330555563,0.052777785,1,0,0,0.6084,optionLeft,5,3870,2,24,0,24,0,1,,,,,,,,,,,,,,,,,,,,,,,,,,,,,,,,,,,,,,,
,,,,,,,,2023-08-16_08h47.06.060,HF_wild_card,2022.2.4,Win32,60.59504333,6060b2cead1daacd69adb31f,64d2fd46c836a06233681665,64dc7eedad91d76cb42eb0fc,,,,,,,ctch,resources/DG.BMP,resources/DBN.BMP,Door4,-0.224074046,0.010185171,1,0,0,1.7087,optionLeft,60,3930,2,25,0,25,0,1,,,,,,,,,,,,,,,,,,,,,,,,,,,,,,,,,,,,,,,
,,,,,,,,2023-08-16_08h47.06.060,HF_wild_card,2022.2.4,Win32,60.59504333,6060b2cead1daacd69adb31f,64d2fd46c836a06233681665,64dc7eedad91d76cb42eb0fc,,,,,,,ctch,resources/DG.BMP,resources/DBN.BMP,Door4,-0.158333319,0.022222201,1,0,0,1.7423,optionLeft,80,4010,2,26,0,26,0,1,,,,,,,,,,,,,,,,,,,,,,,,,,,,,,,,,,,,,,,
,,,,,,,,2023-08-16_08h47.06.060,HF_wild_card,2022.2.4,Win32,60.59504333,6060b2cead1daacd69adb31f,64d2fd46c836a06233681665,64dc7eedad91d76cb42eb0fc,,,,,,,sngl,resources/DR.BMP,resources/Empty.png,Door2,-0.346296275,0.047222208,1,0,0,0.7932,optionLeft,20,4030,2,27,0,27,0,1,,,,,,,,,,,,,,,,,,,,,,,,,,,,,,,,,,,,,,,
,,,,,,,,2023-08-16_08h47.06.060,HF_wild_card,2022.2.4,Win32,60.59504333,6060b2cead1daacd69adb31f,64d2fd46c836a06233681665,64dc7eedad91d76cb42eb0fc,,,,,,,decisionTrl,resources/DBN.BMP,resources/DY.BMP,Door1,-0.335185192,0.046296296,1,0,0,1.6084,optionLeft,30,4060,2,28,0,28,0,1,,,,,,,,,,,,,,,,,,,,,,,,,,,,,,,,,,,,,,,
,,,,,,,,2023-08-16_08h47.06.060,HF_wild_card,2022.2.4,Win32,60.59504333,6060b2cead1daacd69adb31f,64d2fd46c836a06233681665,64dc7eedad91d76cb42eb0fc,,,,,,,decisionTrl,resources/DG.BMP,resources/DB.BMP,Door3,0.362962935,0.046296296,1,0,0,2.8745,optionRight,70,4130,2,29,0,29,0,1,,,,,,,,,,,,,,,,,,,,,,,,,,,,,,,,,,,,,,,
,,,,,,,,2023-08-16_08h47.06.060,HF_wild_card,2022.2.4,Win32,60.59504333,6060b2cead1daacd69adb31f,64d2fd46c836a06233681665,64dc7eedad91d76cb42eb0fc,,,,,,,decisionTrl,resources/DB.BMP,resources/DG.BMP,Door3,-0.266666624,0.047222208,1,0,0,1.9752,optionLeft,70,4200,2,30,0,30,0,1,,,,,,,,,,,,,,,,,,,,,,,,,,,,,,,,,,,,,,,
,,,,,,,,2023-08-16_08h47.06.060,HF_wild_card,2022.2.4,Win32,60.59504333,6060b2cead1daacd69adb31f,64d2fd46c836a06233681665,64dc7eedad91d76cb42eb0fc,,,,,,,decisionTrl,resources/DB.BMP,resources/DG.BMP,Door3,-0.207407422,0.013888889,1,0,0,1.0097,optionLeft,70,4270,2,31,0,31,0,1,,,,,,,,,,,,,,,,,,,,,,,,,,,,,,,,,,,,,,,
,,,,,,,,2023-08-16_08h47.06.060,HF_wild_card,2022.2.4,Win32,60.59504333,6060b2cead1daacd69adb31f,64d2fd46c836a06233681665,64dc7eedad91d76cb42eb0fc,,,,,,,decisionTrl,resources/DG.BMP,resources/DB.BMP,Door4,-0.294444402,0.037962949,1,0,0,3.4396,optionLeft,80,4350,2,32,0,32,0,1,,,,,,,,,,,,,,,,,,,,,,,,,,,,,,,,,,,,,,,
,,,,,,,,2023-08-16_08h47.06.060,HF_wild_card,2022.2.4,Win32,60.59504333,6060b2cead1daacd69adb31f,64d2fd46c836a06233681665,64dc7eedad91d76cb42eb0fc,,,,,,,decisionTrl,resources/DG.BMP,resources/DY.BMP,Door4,-0.286111125,0.042592578,1,0,0,0.7465,optionLeft,80,4430,2,33,0,33,0,1,,,,,,,,,,,,,,,,,,,,,,,,,,,,,,,,,,,,,,,
,,,,,,,,2023-08-16_08h47.06.060,HF_wild_card,2022.2.4,Win32,60.59504333,6060b2cead1daacd69adb31f,64d2fd46c836a06233681665,64dc7eedad91d76cb42eb0fc,,,,,,,sngl,resources/Empty.png,resources/DY.BMP,WildCard_Ex,0.337037122,0.01944443,1,0,0,0.8962,optionRight,5,4435,2,34,0,34,0,1,,,,,,,,,,,,,,,,,,,,,,,,,,,,,,,,,,,,,,,
,,,,,,,,2023-08-16_08h47.06.060,HF_wild_card,2022.2.4,Win32,60.59504333,6060b2cead1daacd69adb31f,64d2fd46c836a06233681665,64dc7eedad91d76cb42eb0fc,,,,,,,decisionTrl,resources/DR.BMP,resources/DY.BMP,Door2,-0.295370384,0.034259266,1,0,0,1.3426,optionLeft,20,4455,2,35,0,35,0,1,,,,,,,,,,,,,,,,,,,,,,,,,,,,,,,,,,,,,,,
,,,,,,,,2023-08-16_08h47.06.060,HF_wild_card,2022.2.4,Win32,60.59504333,6060b2cead1daacd69adb31f,64d2fd46c836a06233681665,64dc7eedad91d76cb42eb0fc,,,,,,,decisionTrl,resources/DR.BMP,resources/DBN.BMP,Door1,0.404629601,0.061111097,1,0,0,2.4735,optionRight,30,4485,2,36,0,36,0,1,,,,,,,,,,,,,,,,,,,,,,,,,,,,,,,,,,,,,,,
,,,,,,,,2023-08-16_08h47.06.060,HF_wild_card,2022.2.4,Win32,60.59504333,6060b2cead1daacd69adb31f,64d2fd46c836a06233681665,64dc7eedad91d76cb42eb0fc,,,,,,,decisionTrl,resources/DY.BMP,resources/DBN.BMP,Door1,0.402777778,0.038888896,1,0,0,1.6254,optionRight,30,4515,2,37,0,37,0,1,,,,,,,,,,,,,,,,,,,,,,,,,,,,,,,,,,,,,,,
,,,,,,,,2023-08-16_08h47.06.060,HF_wild_card,2022.2.4,Win32,60.59504333,6060b2cead1daacd69adb31f,64d2fd46c836a06233681665,64dc7eedad91d76cb42eb0fc,,,,,,,sngl,resources/Empty.png,resources/DBN.BMP,Door1,0.448148233,0.02870369,1,0,0,0.6434,optionRight,30,4545,2,38,0,38,0,1,,,,,,,,,,,,,,,,,,,,,,,,,,,,,,,,,,,,,,,
,,,,,,,,2023-08-16_08h47.06.060,HF_wild_card,2022.2.4,Win32,60.59504333,6060b2cead1daacd69adb31f,64d2fd46c836a06233681665,64dc7eedad91d76cb42eb0fc,,,,,,,ctch,resources/DBN.BMP,resources/DG.BMP,Door4,0.347222222,0.050925926,1,0,0,1.5934,optionRight,60,4605,2,39,0,39,0,1,,,,,,,,,,,,,,,,,,,,,,,,,,,,,,,,,,,,,,,
,,,,,,,,2023-08-16_08h47.06.060,HF_wild_card,2022.2.4,Win32,60.59504333,6060b2cead1daacd69adb31f,64d2fd46c836a06233681665,64dc7eedad91d76cb42eb0fc,,,,,,,decisionTrl,resources/DY.BMP,resources/DB.BMP,Door3,0.389814871,0.049999979,1,0,0,1.3762,optionRight,70,4675,2,40,0,40,0,1,,,,,,,,,,,,,,,,,,,,,,,,,,,,,,,,,,,,,,,
,,,,,,,,2023-08-16_08h47.06.060,HF_wild_card,2022.2.4,Win32,60.59504333,6060b2cead1daacd69adb31f,64d2fd46c836a06233681665,64dc7eedad91d76cb42eb0fc,,,,,,,sngl,resources/DY.BMP,resources/Empty.png,WildCard_Ex,-0.340740734,0.075925933,1,0,0,0.7424,optionLeft,95,4770,2,41,0,41,0,1,,,,,,,,,,,,,,,,,,,,,,,,,,,,,,,,,,,,,,,
,,,,,,,,2023-08-16_08h47.06.060,HF_wild_card,2022.2.4,Win32,60.59504333,6060b2cead1daacd69adb31f,64d2fd46c836a06233681665,64dc7eedad91d76cb42eb0fc,,,,,,,sngl,resources/DG.BMP,resources/Empty.png,Door4,-0.186111097,0.039814808,1,0,0,0.96,optionLeft,60,4830,2,42,0,42,0,1,,,,,,,,,,,,,,,,,,,,,,,,,,,,,,,,,,,,,,,
,,,,,,,,2023-08-16_08h47.06.060,HF_wild_card,2022.2.4,Win32,60.59504333,6060b2cead1daacd69adb31f,64d2fd46c836a06233681665,64dc7eedad91d76cb42eb0fc,,,,,,,decisionTrl,resources/DY.BMP,resources/DG.BMP,WildCard_Ex,-0.329629616,0.065740727,1,0,0,1.2254,optionLeft,95,4925,2,43,0,43,0,1,,,,,,,,,,,,,,,,,,,,,,,,,,,,,,,,,,,,,,,
,,,,,,,,2023-08-16_08h47.06.060,HF_wild_card,2022.2.4,Win32,60.59504333,6060b2cead1daacd69adb31f,64d2fd46c836a06233681665,64dc7eedad91d76cb42eb0fc,,,,,,,,,,,,,,,,,,,,,,,,,,1,0,1,0,1,,,,,,,,,,,,,,,,,,,,,,,,,,,,,,,,,,
,,,,,,,,2023-08-16_08h47.06.060,HF_wild_card,2022.2.4,Win32,60.59504333,6060b2cead1daacd69adb31f,64d2fd46c836a06233681665,64dc7eedad91d76cb42eb0fc,,,,,,,decisionTrl,resources/DR.BMP,resources/DBN.BMP,Door2,-0.329629616,0.074999986,1,0,0,2.2754,optionLeft,40,4965,3,0,0,0,0,1,,,,,,,,,,,,,,,,,,,,,,,,,,,,,,,,,,,,,,,
,,,,,,,,2023-08-16_08h47.06.060,HF_wild_card,2022.2.4,Win32,60.59504333,6060b2cead1daacd69adb31f,64d2fd46c836a06233681665,64dc7eedad91d76cb42eb0fc,,,,,,,ctch,resources/DB.BMP,resources/DR.BMP,Door3,-0.267592607,0.042592578,1,0,0,1.729,optionLeft,70,5035,3,1,0,1,0,1,,,,,,,,,,,,,,,,,,,,,,,,,,,,,,,,,,,,,,,
,,,,,,,,2023-08-16_08h47.06.060,HF_wild_card,2022.2.4,Win32,60.59504333,6060b2cead1daacd69adb31f,64d2fd46c836a06233681665,64dc7eedad91d76cb42eb0fc,,,,,,,decisionTrl,resources/DY.BMP,resources/DG.BMP,WildCard_Ex,-0.321296303,0.043518526,1,0,0,1.1174,optionLeft,95,5130,3,2,0,2,0,1,,,,,,,,,,,,,,,,,,,,,,,,,,,,,,,,,,,,,,,
,,,,,,,,2023-08-16_08h47.06.060,HF_wild_card,2022.2.4,Win32,60.59504333,6060b2cead1daacd69adb31f,64d2fd46c836a06233681665,64dc7eedad91d76cb42eb0fc,,,,,,,ctch,resources/DR.BMP,resources/DB.BMP,Door3,0.309259344,0.02870369,1,0,0,1.9419,optionRight,70,5200,3,3,0,3,0,1,,,,,,,,,,,,,,,,,,,,,,,,,,,,,,,,,,,,,,,
,,,,,,,,2023-08-16_08h47.06.060,HF_wild_card,2022.2.4,Win32,60.59504333,6060b2cead1daacd69adb31f,64d2fd46c836a06233681665,64dc7eedad91d76cb42eb0fc,,,,,,,decisionTrl,resources/DG.BMP,resources/DY.BMP,WildCard_Ex,0.321296268,0.030555548,1,0,0,1.4769,optionRight,95,5295,3,4,0,4,0,1,,,,,,,,,,,,,,,,,,,,,,,,,,,,,,,,,,,,,,,
,,,,,,,,2023-08-16_08h47.06.060,HF_wild_card,2022.2.4,Win32,60.59504333,6060b2cead1daacd69adb31f,64d2fd46c836a06233681665,64dc7eedad91d76cb42eb0fc,,,,,,,decisionTrl,resources/DR.BMP,resources/DY.BMP,WildCard_Ex,0.386111083,0.017592571,1,0,0,0.9964,optionRight,95,5390,3,5,0,5,0,1,,,,,,,,,,,,,,,,,,,,,,,,,,,,,,,,,,,,,,,
,,,,,,,,2023-08-16_08h47.06.060,HF_wild_card,2022.2.4,Win32,60.59504333,6060b2cead1daacd69adb31f,64d2fd46c836a06233681665,64dc7eedad91d76cb42eb0fc,,,,,,,decisionTrl,resources/DG.BMP,resources/DB.BMP,Door3,0.281481496,0.04074072,1,0,0,3.4924,optionRight,70,5460,3,6,0,6,0,1,,,,,,,,,,,,,,,,,,,,,,,,,,,,,,,,,,,,,,,
,,,,,,,,2023-08-16_08h47.06.060,HF_wild_card,2022.2.4,Win32,60.59504333,6060b2cead1daacd69adb31f,64d2fd46c836a06233681665,64dc7eedad91d76cb42eb0fc,,,,,,,decisionTrl,resources/DG.BMP,resources/DB.BMP,Door4,-0.182407379,0.032407407,1,0,0,0.7444,optionLeft,60,5520,3,7,0,7,0,1,,,,,,,,,,,,,,,,,,,,,,,,,,,,,,,,,,,,,,,
,,,,,,,,2023-08-16_08h47.06.060,HF_wild_card,2022.2.4,Win32,60.59504333,6060b2cead1daacd69adb31f,64d2fd46c836a06233681665,64dc7eedad91d76cb42eb0fc,,,,,,,sngl,resources/DG.BMP,resources/Empty.png,Door4,-0.150925884,0.023148148,1,0,0,0.9088,optionLeft,80,5600,3,8,0,8,0,1,,,,,,,,,,,,,,,,,,,,,,,,,,,,,,,,,,,,,,,
,,,,,,,,2023-08-16_08h47.06.060,HF_wild_card,2022.2.4,Win32,60.59504333,6060b2cead1daacd69adb31f,64d2fd46c836a06233681665,64dc7eedad91d76cb42eb0fc,,,,,,,decisionTrl,resources/DBN.BMP,resources/DR.BMP,Door2,0.3648149,0.048148155,1,0,0,1.674,optionRight,20,5620,3,9,0,9,0,1,,,,,,,,,,,,,,,,,,,,,,,,,,,,,,,,,,,,,,,
,,,,,,,,2023-08-16_08h47.06.060,HF_wild_card,2022.2.4,Win32,60.59504333,6060b2cead1daacd69adb31f,64d2fd46c836a06233681665,64dc7eedad91d76cb42eb0fc,,,,,,,sngl,resources/Empty.png,resources/DBN.BMP,Door1,0.37037037,0.053703697,1,0,0,0.7766,optionRight,30,5650,3,10,0,10,0,1,,,,,,,,,,,,,,,,,,,,,,,,,,,,,,,,,,,,,,,
,,,,,,,,2023-08-16_08h47.06.060,HF_wild_card,2022.2.4,Win32,60.59504333,6060b2cead1daacd69adb31f,64d2fd46c836a06233681665,64dc7eedad91d76cb42eb0fc,,,,,,,sngl,resources/DY.BMP,resources/Empty.png,WildCard_Ex,-0.235185199,0.008333312,1,0,0,0.8099,optionLeft,95,5745,3,11,0,11,0,1,,,,,,,,,,,,,,,,,,,,,,,,,,,,,,,,,,,,,,,
,,,,,,,,2023-08-16_08h47.06.060,HF_wild_card,2022.2.4,Win32,60.59504333,6060b2cead1daacd69adb31f,64d2fd46c836a06233681665,64dc7eedad91d76cb42eb0fc,,,,,,,decisionTrl,resources/DB.BMP,resources/DG.BMP,Door3,-0.163888861,0.013888889,1,0,0,2.2746,optionLeft,70,5815,3,12,0,12,0,1,,,,,,,,,,,,,,,,,,,,,,,,,,,,,,,,,,,,,,,
,,,,,,,,2023-08-16_08h47.06.060,HF_wild_card,2022.2.4,Win32,60.59504333,6060b2cead1daacd69adb31f,64d2fd46c836a06233681665,64dc7eedad91d76cb42eb0fc,,,,,,,sngl,resources/Empty.png,resources/DG.BMP,Door4,0.367592564,0.009259259,1,0,0,0.709,optionRight,60,5875,3,13,0,13,0,1,,,,,,,,,,,,,,,,,,,,,,,,,,,,,,,,,,,,,,,
,,,,,,,,2023-08-16_08h47.06.060,HF_wild_card,2022.2.4,Win32,60.59504333,6060b2cead1daacd69adb31f,64d2fd46c836a06233681665,64dc7eedad91d76cb42eb0fc,,,,,,,decisionTrl,resources/DY.BMP,resources/DB.BMP,WildCard_Ex,-0.260185171,0.044444437,1,0,0,1.4247,optionLeft,5,5880,3,14,0,14,0,1,,,,,,,,,,,,,,,,,,,,,,,,,,,,,,,,,,,,,,,
,,,,,,,,2023-08-16_08h47.06.060,HF_wild_card,2022.2.4,Win32,60.59504333,6060b2cead1daacd69adb31f,64d2fd46c836a06233681665,64dc7eedad91d76cb42eb0fc,,,,,,,decisionTrl,resources/DB.BMP,resources/DG.BMP,Door3,-0.187037009,0.02407406,1,0,0,1.4585,optionLeft,70,5950,3,15,0,15,0,1,,,,,,,,,,,,,,,,,,,,,,,,,,,,,,,,,,,,,,,
,,,,,,,,2023-08-16_08h47.06.060,HF_wild_card,2022.2.4,Win32,60.59504333,6060b2cead1daacd69adb31f,64d2fd46c836a06233681665,64dc7eedad91d76cb42eb0fc,,,,,,,sngl,resources/DB.BMP,resources/Empty.png,Door3,-0.270370342,0.03148146,1,0,0,0.7596,optionLeft,70,6020,3,16,0,16,0,1,,,,,,,,,,,,,,,,,,,,,,,,,,,,,,,,,,,,,,,
,,,,,,,,2023-08-16_08h47.06.060,HF_wild_card,2022.2.4,Win32,60.59504333,6060b2cead1daacd69adb31f,64d2fd46c836a06233681665,64dc7eedad91d76cb42eb0fc,,,,,,,decisionTrl,resources/DBN.BMP,resources/DY.BMP,WildCard_Ex,0.287962949,0.03148146,1,0,0,1.1592,optionRight,95,6115,3,17,0,17,0,1,,,,,,,,,,,,,,,,,,,,,,,,,,,,,,,,,,,,,,,
,,,,,,,,2023-08-16_08h47.06.060,HF_wild_card,2022.2.4,Win32,60.59504333,6060b2cead1daacd69adb31f,64d2fd46c836a06233681665,64dc7eedad91d76cb42eb0fc,,,,,,,decisionTrl,resources/DB.BMP,resources/DG.BMP,Door3,-0.208333333,0.035185178,1,0,0,2.6081,optionLeft,70,6185,3,18,0,18,0,1,,,,,,,,,,,,,,,,,,,,,,,,,,,,,,,,,,,,,,,
,,,,,,,,2023-08-16_08h47.06.060,HF_wild_card,2022.2.4,Win32,60.59504333,6060b2cead1daacd69adb31f,64d2fd46c836a06233681665,64dc7eedad91d76cb42eb0fc,,,,,,,decisionTrl,resources/DBN.BMP,resources/DR.BMP,Door2,0.291666667,0.064814815,1,0,0,1.6922,optionRight,20,6205,3,19,0,19,0,1,,,,,,,,,,,,,,,,,,,,,,,,,,,,,,,,,,,,,,,
,,,,,,,,2023-08-16_08h47.06.060,HF_wild_card,2022.2.4,Win32,60.59504333,6060b2cead1daacd69adb31f,64d2fd46c836a06233681665,64dc7eedad91d76cb42eb0fc,,,,,,,decisionTrl,resources/DG.BMP,resources/DB.BMP,Door4,-0.077777792,0.076851845,1,0,0,2.5572,optionLeft,80,6285,3,20,0,20,0,1,,,,,,,,,,,,,,,,,,,,,,,,,,,,,,,,,,,,,,,
,,,,,,,,2023-08-16_08h47.06.060,HF_wild_card,2022.2.4,Win32,60.59504333,6060b2cead1daacd69adb31f,64d2fd46c836a06233681665,64dc7eedad91d76cb42eb0fc,,,,,,,ctch,resources/DG.BMP,resources/DBN.BMP,Door4,-0.27407406,0.067592586,1,0,0,0.7643,optionLeft,80,6365,3,21,0,21,0,1,,,,,,,,,,,,,,,,,,,,,,,,,,,,,,,,,,,,,,,
,,,,,,,,2023-08-16_08h47.06.060,HF_wild_card,2022.2.4,Win32,60.59504333,6060b2cead1daacd69adb31f,64d2fd46c836a06233681665,64dc7eedad91d76cb42eb0fc,,,,,,,sngl,resources/Empty.png,resources/DY.BMP,WildCard_Ex,0.362962935,0.044444437,1,0,0,0.648,optionRight,95,6460,3,22,0,22,0,1,,,,,,,,,,,,,,,,,,,,,,,,,,,,,,,,,,,,,,,
,,,,,,,,2023-08-16_08h47.06.060,HF_wild_card,2022.2.4,Win32,60.59504333,6060b2cead1daacd69adb31f,64d2fd46c836a06233681665,64dc7eedad91d76cb42eb0fc,,,,,,,decisionTrl,resources/DY.BMP,resources/DR.BMP,WildCard_Ex,-0.227777764,0.077777757,1,0,0,1.143,optionLeft,5,6465,3,23,0,23,0,1,,,,,,,,,,,,,,,,,,,,,,,,,,,,,,,,,,,,,,,
,,,,,,,,2023-08-16_08h47.06.060,HF_wild_card,2022.2.4,Win32,60.59504333,6060b2cead1daacd69adb31f,64d2fd46c836a06233681665,64dc7eedad91d76cb42eb0fc,,,,,,,decisionTrl,resources/DR.BMP,resources/DBN.BMP,Door2,-0.128703718,0.065740727,1,0,0,1.3599,optionLeft,40,6505,3,24,0,24,0,1,,,,,,,,,,,,,,,,,,,,,,,,,,,,,,,,,,,,,,,
,,,,,,,,2023-08-16_08h47.06.060,HF_wild_card,2022.2.4,Win32,60.59504333,6060b2cead1daacd69adb31f,64d2fd46c836a06233681665,64dc7eedad91d76cb42eb0fc,,,,,,,ctch,resources/DR.BMP,resources/DB.BMP,Door3,0.37037037,0.082407386,1,0,0,1.2425,optionRight,70,6575,3,25,0,25,0,1,,,,,,,,,,,,,,,,,,,,,,,,,,,,,,,,,,,,,,,
,,,,,,,,2023-08-16_08h47.06.060,HF_wild_card,2022.2.4,Win32,60.59504333,6060b2cead1daacd69adb31f,64d2fd46c836a06233681665,64dc7eedad91d76cb42eb0fc,,,,,,,decisionTrl,resources/DG.BMP,resources/DB.BMP,Door4,-0.175000014,0.071296303,1,0,0,2.1592,optionLeft,60,6635,3,26,0,26,0,1,,,,,,,,,,,,,,,,,,,,,,,,,,,,,,,,,,,,,,,
,,,,,,,,2023-08-16_08h47.06.060,HF_wild_card,2022.2.4,Win32,60.59504333,6060b2cead1daacd69adb31f,64d2fd46c836a06233681665,64dc7eedad91d76cb42eb0fc,,,,,,,sngl,resources/DBN.BMP,resources/Empty.png,Door1,-0.145370342,0.044444437,1,0,0,0.8104,optionLeft,30,6665,3,27,0,27,0,1,,,,,,,,,,,,,,,,,,,,,,,,,,,,,,,,,,,,,,,
,,,,,,,,2023-08-16_08h47.06.060,HF_wild_card,2022.2.4,Win32,60.59504333,6060b2cead1daacd69adb31f,64d2fd46c836a06233681665,64dc7eedad91d76cb42eb0fc,,,,,,,decisionTrl,resources/DBN.BMP,resources/DR.BMP,Door1,-0.193518533,0.037037037,1,0,0,1.642,optionLeft,30,6695,3,28,0,28,0,1,,,,,,,,,,,,,,,,,,,,,,,,,,,,,,,,,,,,,,,
,,,,,,,,2023-08-16_08h47.06.060,HF_wild_card,2022.2.4,Win32,60.59504333,6060b2cead1daacd69adb31f,64d2fd46c836a06233681665,64dc7eedad91d76cb42eb0fc,,,,,,,ctch,resources/DBN.BMP,resources/DG.BMP,Door4,0.375,0.066666674,1,0,0,1.0264,optionRight,80,6775,3,29,0,29,0,1,,,,,,,,,,,,,,,,,,,,,,,,,,,,,,,,,,,,,,,
,,,,,,,,2023-08-16_08h47.06.060,HF_wild_card,2022.2.4,Win32,60.59504333,6060b2cead1daacd69adb31f,64d2fd46c836a06233681665,64dc7eedad91d76cb42eb0fc,,,,,,,decisionTrl,resources/DB.BMP,resources/DY.BMP,WildCard_Ex,0.434259344,0.074999986,1,0,0,0.9755,optionRight,95,6870,3,30,0,30,0,1,,,,,,,,,,,,,,,,,,,,,,,,,,,,,,,,,,,,,,,
,,,,,,,,2023-08-16_08h47.06.060,HF_wild_card,2022.2.4,Win32,60.59504333,6060b2cead1daacd69adb31f,64d2fd46c836a06233681665,64dc7eedad91d76cb42eb0fc,,,,,,,sngl,resources/Empty.png,resources/DB.BMP,Door3,0.312962991,0.049999979,1,0,0,0.7096,optionRight,70,6940,3,31,0,31,0,1,,,,,,,,,,,,,,,,,,,,,,,,,,,,,,,,,,,,,,,
,,,,,,,,2023-08-16_08h47.06.060,HF_wild_card,2022.2.4,Win32,60.59504333,6060b2cead1daacd69adb31f,64d2fd46c836a06233681665,64dc7eedad91d76cb42eb0fc,,,,,,,decisionTrl,resources/DBN.BMP,resources/DR.BMP,Door2,0.342592593,0.04074072,1,0,0,2.0253,optionRight,40,6980,3,32,0,32,0,1,,,,,,,,,,,,,,,,,,,,,,,,,,,,,,,,,,,,,,,
,,,,,,,,2023-08-16_08h47.06.060,HF_wild_card,2022.2.4,Win32,60.59504333,6060b2cead1daacd69adb31f,64d2fd46c836a06233681665,64dc7eedad91d76cb42eb0fc,,,,,,,sngl,resources/Empty.png,resources/DR.BMP,Door2,0.334259316,0.027777778,1,0,0,0.6764,optionRight,20,7000,3,33,0,33,0,1,,,,,,,,,,,,,,,,,,,,,,,,,,,,,,,,,,,,,,,
,,,,,,,,2023-08-16_08h47.06.060,HF_wild_card,2022.2.4,Win32,60.59504333,6060b2cead1daacd69adb31f,64d2fd46c836a06233681665,64dc7eedad91d76cb42eb0fc,,,,,,,ctch,resources/DG.BMP,resources/DBN.BMP,Door4,-0.375,0.029629637,1,0,0,1.2902,optionLeft,80,7080,3,34,0,34,0,1,,,,,,,,,,,,,,,,,,,,,,,,,,,,,,,,,,,,,,,
,,,,,,,,2023-08-16_08h47.06.060,HF_wild_card,2022.2.4,Win32,60.59504333,6060b2cead1daacd69adb31f,64d2fd46c836a06233681665,64dc7eedad91d76cb42eb0fc,,,,,,,sngl,resources/Empty.png,resources/DY.BMP,WildCard_Ex,0.469444416,0.029629637,1,0,0,0.7264,optionRight,5,7085,3,35,0,35,0,1,,,,,,,,,,,,,,,,,,,,,,,,,,,,,,,,,,,,,,,
,,,,,,,,2023-08-16_08h47.06.060,HF_wild_card,2022.2.4,Win32,60.59504333,6060b2cead1daacd69adb31f,64d2fd46c836a06233681665,64dc7eedad91d76cb42eb0fc,,,,,,,sngl,resources/DY.BMP,resources/Empty.png,WildCard_Ex,-0.199074074,0.03148146,1,0,0,0.6769,optionLeft,5,7090,3,36,0,36,0,1,,,,,,,,,,,,,,,,,,,,,,,,,,,,,,,,,,,,,,,
,,,,,,,,2023-08-16_08h47.06.060,HF_wild_card,2022.2.4,Win32,60.59504333,6060b2cead1daacd69adb31f,64d2fd46c836a06233681665,64dc7eedad91d76cb42eb0fc,,,,,,,decisionTrl,resources/DR.BMP,resources/DBN.BMP,Door1,0.33148151,0.066666674,1,0,0,2.6247,optionRight,30,7120,3,37,0,37,0,1,,,,,,,,,,,,,,,,,,,,,,,,,,,,,,,,,,,,,,,
,,,,,,,,2023-08-16_08h47.06.060,HF_wild_card,2022.2.4,Win32,60.59504333,6060b2cead1daacd69adb31f,64d2fd46c836a06233681665,64dc7eedad91d76cb42eb0fc,,,,,,,ctch,resources/DB.BMP,resources/DR.BMP,Door3,-0.272222236,0.049999979,1,0,0,1.2761,optionLeft,70,7190,3,38,0,38,0,1,,,,,,,,,,,,,,,,,,,,,,,,,,,,,,,,,,,,,,,
,,,,,,,,2023-08-16_08h47.06.060,HF_wild_card,2022.2.4,Win32,60.59504333,6060b2cead1daacd69adb31f,64d2fd46c836a06233681665,64dc7eedad91d76cb42eb0fc,,,,,,,ctch,resources/DBN.BMP,resources/DG.BMP,Door4,0.211111139,0.070370356,1,0,0,2.8092,optionRight,60,7250,3,39,0,39,0,1,,,,,,,,,,,,,,,,,,,,,,,,,,,,,,,,,,,,,,,
,,,,,,,,2023-08-16_08h47.06.060,HF_wild_card,2022.2.4,Win32,60.59504333,6060b2cead1daacd69adb31f,64d2fd46c836a06233681665,64dc7eedad91d76cb42eb0fc,,,,,,,decisionTrl,resources/DR.BMP,resources/DBN.BMP,Door1,0.273148148,0.039814808,1,0,0,1.6089,optionRight,30,7280,3,40,0,40,0,1,,,,,,,,,,,,,,,,,,,,,,,,,,,,,,,,,,,,,,,
,,,,,,,,2023-08-16_08h47.06.060,HF_wild_card,2022.2.4,Win32,60.59504333,6060b2cead1daacd69adb31f,64d2fd46c836a06233681665,64dc7eedad91d76cb42eb0fc,,,,,,,decisionTrl,resources/DY.BMP,resources/DBN.BMP,WildCard_Ex,-0.320370356,0.029629637,1,0,0,1.9588,optionLeft,5,7285,3,41,0,41,0,1,,,,,,,,,,,,,,,,,,,,,,,,,,,,,,,,,,,,,,,
,,,,,,,,2023-08-16_08h47.06.060,HF_wild_card,2022.2.4,Win32,60.59504333,6060b2cead1daacd69adb31f,64d2fd46c836a06233681665,64dc7eedad91d76cb42eb0fc,,,,,,,decisionTrl,resources/DB.BMP,resources/DG.BMP,Door4,0.363888917,0.035185178,1,0,0,1.3927,optionRight,80,7365,3,42,0,42,0,1,,,,,,,,,,,,,,,,,,,,,,,,,,,,,,,,,,,,,,,
,,,,,,,,2023-08-16_08h47.06.060,HF_wild_card,2022.2.4,Win32,60.59504333,6060b2cead1daacd69adb31f,64d2fd46c836a06233681665,64dc7eedad91d76cb42eb0fc,,,,,,,sngl,resources/DR.BMP,resources/Empty.png,Door2,-0.261111083,-0.005555577,1,0,0,0.6842,optionLeft,40,7405,3,43,0,43,0,1,,,,,,,,,,,,,,,,,,,,,,,,,,,,,,,,,,,,,,,
,,,,,,,,2023-08-16_08h47.06.060,HF_wild_card,2022.2.4,Win32,60.59504333,6060b2cead1daacd69adb31f,64d2fd46c836a06233681665,64dc7eedad91d76cb42eb0fc,,,,,,,,,,,,,,,,,,,,,,,,,,2,0,2,0,1,,,,,,,,,,,,,,,,,,,,,,,,,,,,,,,,,,
,,,,,,,,2023-08-16_08h47.06.060,HF_wild_card,2022.2.4,Win32,60.59504333,6060b2cead1daacd69adb31f,64d2fd46c836a06233681665,64dc7eedad91d76cb42eb0fc,,,,,,,decisionTrl,resources/DBN.BMP,resources/DP.BMP,WildCard_NonEx,0.324074074,-0.070370392,1,0,0,1.0529,optionRight,55,7460,4,0,0,0,0,1,,,,,,,,,,,,,,,,,,,,,,,,,,,,,,,,,,,,,,,
,,,,,,,,2023-08-16_08h47.06.060,HF_wild_card,2022.2.4,Win32,60.59504333,6060b2cead1daacd69adb31f,64d2fd46c836a06233681665,64dc7eedad91d76cb42eb0fc,,,,,,,sngl,resources/DR.BMP,resources/Empty.png,Door2,-0.444444444,-0.022222236,1,0,0,0.6262,optionLeft,20,7480,4,1,0,1,0,1,,,,,,,,,,,,,,,,,,,,,,,,,,,,,,,,,,,,,,,
,,,,,,,,2023-08-16_08h47.06.060,HF_wild_card,2022.2.4,Win32,60.59504333,6060b2cead1daacd69adb31f,64d2fd46c836a06233681665,64dc7eedad91d76cb42eb0fc,,,,,,,sngl,resources/DG.BMP,resources/Empty.png,Door4,-0.292592578,-0.008333347,1,0,0,0.6434,optionLeft,60,7540,4,2,0,2,0,1,,,,,,,,,,,,,,,,,,,,,,,,,,,,,,,,,,,,,,,
,,,,,,,,2023-08-16_08h47.06.060,HF_wild_card,2022.2.4,Win32,60.59504333,6060b2cead1daacd69adb31f,64d2fd46c836a06233681665,64dc7eedad91d76cb42eb0fc,,,,,,,sngl,resources/DBN.BMP,resources/Empty.png,Door1,-0.330555563,-0.010185206,1,0,0,0.6268,optionLeft,30,7570,4,3,0,3,0,1,,,,,,,,,,,,,,,,,,,,,,,,,,,,,,,,,,,,,,,
,,,,,,,,2023-08-16_08h47.06.060,HF_wild_card,2022.2.4,Win32,60.59504333,6060b2cead1daacd69adb31f,64d2fd46c836a06233681665,64dc7eedad91d76cb42eb0fc,,,,,,,decisionTrl,resources/DBN.BMP,resources/DR.BMP,Door2,0.295370384,0.015740748,1,0,0,1.3424,optionRight,20,7590,4,4,0,4,0,1,,,,,,,,,,,,,,,,,,,,,,,,,,,,,,,,,,,,,,,
,,,,,,,,2023-08-16_08h47.06.060,HF_wild_card,2022.2.4,Win32,60.59504333,6060b2cead1daacd69adb31f,64d2fd46c836a06233681665,64dc7eedad91d76cb42eb0fc,,,,,,,decisionTrl,resources/DG.BMP,resources/DB.BMP,Door3,0.362962935,0.039814808,1,0,0,1.4418,optionRight,70,7660,4,5,0,5,0,1,,,,,,,,,,,,,,,,,,,,,,,,,,,,,,,,,,,,,,,
,,,,,,,,2023-08-16_08h47.06.060,HF_wild_card,2022.2.4,Win32,60.59504333,6060b2cead1daacd69adb31f,64d2fd46c836a06233681665,64dc7eedad91d76cb42eb0fc,,,,,,,sngl,resources/Empty.png,resources/DP.BMP,WildCard_NonEx,0.259259259,0.022222201,1,0,0,0.6604,optionRight,45,7705,4,6,0,6,0,1,,,,,,,,,,,,,,,,,,,,,,,,,,,,,,,,,,,,,,,
,,,,,,,,2023-08-16_08h47.06.060,HF_wild_card,2022.2.4,Win32,60.59504333,6060b2cead1daacd69adb31f,64d2fd46c836a06233681665,64dc7eedad91d76cb42eb0fc,,,,,,,ctch,resources/DR.BMP,resources/DB.BMP,Door3,0.32222225,0.0074074,1,0,0,1.8428,optionRight,70,7775,4,7,0,7,0,1,,,,,,,,,,,,,,,,,,,,,,,,,,,,,,,,,,,,,,,
,,,,,,,,2023-08-16_08h47.06.060,HF_wild_card,2022.2.4,Win32,60.59504333,6060b2cead1daacd69adb31f,64d2fd46c836a06233681665,64dc7eedad91d76cb42eb0fc,,,,,,,sngl,resources/Empty.png,resources/DB.BMP,Door3,0.40833339,0.002777771,1,0,0,0.5435,optionRight,70,7845,4,8,0,8,0,1,,,,,,,,,,,,,,,,,,,,,,,,,,,,,,,,,,,,,,,
,,,,,,,,2023-08-16_08h47.06.060,HF_wild_card,2022.2.4,Win32,60.59504333,6060b2cead1daacd69adb31f,64d2fd46c836a06233681665,64dc7eedad91d76cb42eb0fc,,,,,,,ctch,resources/DB.BMP,resources/DR.BMP,Door3,-0.426851838,0.01203703,1,0,0,1.4081,optionLeft,70,7915,4,9,0,9,0,1,,,,,,,,,,,,,,,,,,,,,,,,,,,,,,,,,,,,,,,
,,,,,,,,2023-08-16_08h47.06.060,HF_wild_card,2022.2.4,Win32,60.59504333,6060b2cead1daacd69adb31f,64d2fd46c836a06233681665,64dc7eedad91d76cb42eb0fc,,,,,,,decisionTrl,resources/DR.BMP,resources/DP.BMP,WildCard_NonEx,0.399999972,0.009259259,1,0,0,2.0404,optionRight,45,7960,4,10,0,10,0,1,,,,,,,,,,,,,,,,,,,,,,,,,,,,,,,,,,,,,,,
,,,,,,,,2023-08-16_08h47.06.060,HF_wild_card,2022.2.4,Win32,60.59504333,6060b2cead1daacd69adb31f,64d2fd46c836a06233681665,64dc7eedad91d76cb42eb0fc,,,,,,,ctch,resources/DG.BMP,resources/DBN.BMP,Door4,-0.372222229,-0.011111118,1,0,0,1.6087,optionLeft,80,8040,4,11,0,11,0,1,,,,,,,,,,,,,,,,,,,,,,,,,,,,,,,,,,,,,,,
,,,,,,,,2023-08-16_08h47.06.060,HF_wild_card,2022.2.4,Win32,60.59504333,6060b2cead1daacd69adb31f,64d2fd46c836a06233681665,64dc7eedad91d76cb42eb0fc,,,,,,,decisionTrl,resources/DG.BMP,resources/DB.BMP,Door3,0.443518603,0.026851831,1,0,0,1.2255,optionRight,70,8110,4,12,0,12,0,1,,,,,,,,,,,,,,,,,,,,,,,,,,,,,,,,,,,,,,,
,,,,,,,,2023-08-16_08h47.06.060,HF_wild_card,2022.2.4,Win32,60.59504333,6060b2cead1daacd69adb31f,64d2fd46c836a06233681665,64dc7eedad91d76cb42eb0fc,,,,,,,decisionTrl,resources/DR.BMP,resources/DBN.BMP,Door2,-0.262962977,0.037037037,1,0,0,2.4586,optionLeft,40,8150,4,13,0,13,0,1,,,,,,,,,,,,,,,,,,,,,,,,,,,,,,,,,,,,,,,
,,,,,,,,2023-08-16_08h47.06.060,HF_wild_card,2022.2.4,Win32,60.59504333,6060b2cead1daacd69adb31f,64d2fd46c836a06233681665,64dc7eedad91d76cb42eb0fc,,,,,,,decisionTrl,resources/DB.BMP,resources/DG.BMP,Door3,-0.336111104,0.000925912,1,0,0,1.4921,optionLeft,70,8220,4,14,0,14,0,1,,,,,,,,,,,,,,,,,,,,,,,,,,,,,,,,,,,,,,,
,,,,,,,,2023-08-16_08h47.06.060,HF_wild_card,2022.2.4,Win32,60.59504333,6060b2cead1daacd69adb31f,64d2fd46c836a06233681665,64dc7eedad91d76cb42eb0fc,,,,,,,decisionTrl,resources/DB.BMP,resources/DP.BMP,Door3,-0.432407414,0.003703683,1,0,0,1.4263,optionLeft,70,8290,4,15,0,15,0,1,,,,,,,,,,,,,,,,,,,,,,,,,,,,,,,,,,,,,,,
,,,,,,,,2023-08-16_08h47.06.060,HF_wild_card,2022.2.4,Win32,60.59504333,6060b2cead1daacd69adb31f,64d2fd46c836a06233681665,64dc7eedad91d76cb42eb0fc,,,,,,,decisionTrl,resources/DP.BMP,resources/DG.BMP,Door4,0.416666667,0.037037037,1,0,0,2.125,optionRight,80,8370,4,16,0,16,0,1,,,,,,,,,,,,,,,,,,,,,,,,,,,,,,,,,,,,,,,
,,,,,,,,2023-08-16_08h47.06.060,HF_wild_card,2022.2.4,Win32,60.59504333,6060b2cead1daacd69adb31f,64d2fd46c836a06233681665,64dc7eedad91d76cb42eb0fc,,,,,,,ctch,resources/DR.BMP,resources/DB.BMP,Door3,0.327777863,0.030555548,1,0,0,1.9244,optionRight,70,8440,4,17,0,17,0,1,,,,,,,,,,,,,,,,,,,,,,,,,,,,,,,,,,,,,,,
,,,,,,,,2023-08-16_08h47.06.060,HF_wild_card,2022.2.4,Win32,60.59504333,6060b2cead1daacd69adb31f,64d2fd46c836a06233681665,64dc7eedad91d76cb42eb0fc,,,,,,,decisionTrl,resources/DR.BMP,resources/DBN.BMP,Door1,0.286111125,0.005555541,1,0,0,2.3421,optionRight,30,8470,4,18,0,18,0,1,,,,,,,,,,,,,,,,,,,,,,,,,,,,,,,,,,,,,,,
,,,,,,,,2023-08-16_08h47.06.060,HF_wild_card,2022.2.4,Win32,60.59504333,6060b2cead1daacd69adb31f,64d2fd46c836a06233681665,64dc7eedad91d76cb42eb0fc,,,,,,,sngl,resources/DB.BMP,resources/Empty.png,Door3,-0.296296296,0.001851859,1,0,0,0.6428,optionLeft,70,8540,4,19,0,19,0,1,,,,,,,,,,,,,,,,,,,,,,,,,,,,,,,,,,,,,,,
,,,,,,,,2023-08-16_08h47.06.060,HF_wild_card,2022.2.4,Win32,60.59504333,6060b2cead1daacd69adb31f,64d2fd46c836a06233681665,64dc7eedad91d76cb42eb0fc,,,,,,,sngl,resources/Empty.png,resources/DP.BMP,WildCard_NonEx,0.33148151,-0.00462963,1,0,0,0.593,optionRight,55,8595,4,20,0,20,0,1,,,,,,,,,,,,,,,,,,,,,,,,,,,,,,,,,,,,,,,
,,,,,,,,2023-08-16_08h47.06.060,HF_wild_card,2022.2.4,Win32,60.59504333,6060b2cead1daacd69adb31f,64d2fd46c836a06233681665,64dc7eedad91d76cb42eb0fc,,,,,,,decisionTrl,resources/DP.BMP,resources/DB.BMP,Door3,0.351851852,0.013888889,1,0,0,1.3763,optionRight,70,8665,4,21,0,21,0,1,,,,,,,,,,,,,,,,,,,,,,,,,,,,,,,,,,,,,,,
,,,,,,,,2023-08-16_08h47.06.060,HF_wild_card,2022.2.4,Win32,60.59504333,6060b2cead1daacd69adb31f,64d2fd46c836a06233681665,64dc7eedad91d76cb42eb0fc,,,,,,,decisionTrl,resources/DR.BMP,resources/DBN.BMP,Door2,-0.211111069,0.022222201,1,0,0,1.7422,optionLeft,40,8705,4,22,0,22,0,1,,,,,,,,,,,,,,,,,,,,,,,,,,,,,,,,,,,,,,,
,,,,,,,,2023-08-16_08h47.06.060,HF_wild_card,2022.2.4,Win32,60.59504333,6060b2cead1daacd69adb31f,64d2fd46c836a06233681665,64dc7eedad91d76cb42eb0fc,,,,,,,decisionTrl,resources/DB.BMP,resources/DG.BMP,Door3,-0.285185143,0.02407406,1,0,0,2.3579,optionLeft,70,8775,4,23,0,23,0,1,,,,,,,,,,,,,,,,,,,,,,,,,,,,,,,,,,,,,,,
,,,,,,,,2023-08-16_08h47.06.060,HF_wild_card,2022.2.4,Win32,60.59504333,6060b2cead1daacd69adb31f,64d2fd46c836a06233681665,64dc7eedad91d76cb42eb0fc,,,,,,,ctch,resources/DB.BMP,resources/DR.BMP,Door3,-0.369444423,0.034259266,1,0,0,0.9437,optionLeft,70,8845,4,24,0,24,0,1,,,,,,,,,,,,,,,,,,,,,,,,,,,,,,,,,,,,,,,
,,,,,,,,2023-08-16_08h47.06.060,HF_wild_card,2022.2.4,Win32,60.59504333,6060b2cead1daacd69adb31f,64d2fd46c836a06233681665,64dc7eedad91d76cb42eb0fc,,,,,,,sngl,resources/DP.BMP,resources/Empty.png,WildCard_NonEx,-0.287962949,0.009259259,1,0,0,0.7932,optionLeft,55,8900,4,25,0,25,0,1,,,,,,,,,,,,,,,,,,,,,,,,,,,,,,,,,,,,,,,
,,,,,,,,2023-08-16_08h47.06.060,HF_wild_card,2022.2.4,Win32,60.59504333,6060b2cead1daacd69adb31f,64d2fd46c836a06233681665,64dc7eedad91d76cb42eb0fc,,,,,,,decisionTrl,resources/DBN.BMP,resources/DR.BMP,Door1,-0.283333319,0.074999986,1,0,0,2.0249,optionLeft,30,8930,4,26,0,26,0,1,,,,,,,,,,,,,,,,,,,,,,,,,,,,,,,,,,,,,,,
,,,,,,,,2023-08-16_08h47.06.060,HF_wild_card,2022.2.4,Win32,60.59504333,6060b2cead1daacd69adb31f,64d2fd46c836a06233681665,64dc7eedad91d76cb42eb0fc,,,,,,,decisionTrl,resources/DR.BMP,resources/DBN.BMP,Door2,-0.276851866,0.032407407,1,0,0,0.7261,optionLeft,40,8970,4,27,0,27,0,1,,,,,,,,,,,,,,,,,,,,,,,,,,,,,,,,,,,,,,,
,,,,,,,,2023-08-16_08h47.06.060,HF_wild_card,2022.2.4,Win32,60.59504333,6060b2cead1daacd69adb31f,64d2fd46c836a06233681665,64dc7eedad91d76cb42eb0fc,,,,,,,ctch,resources/DBN.BMP,resources/DG.BMP,Door4,0.377777806,0.039814808,1,0,0,1.5761,optionRight,80,9050,4,28,0,28,0,1,,,,,,,,,,,,,,,,,,,,,,,,,,,,,,,,,,,,,,,
,,,,,,,,2023-08-16_08h47.06.060,HF_wild_card,2022.2.4,Win32,60.59504333,6060b2cead1daacd69adb31f,64d2fd46c836a06233681665,64dc7eedad91d76cb42eb0fc,,,,,,,decisionTrl,resources/DB.BMP,resources/DG.BMP,Door4,0.365740741,0.033333319,1,0,0,2.8659,optionRight,80,9130,4,29,0,29,0,1,,,,,,,,,,,,,,,,,,,,,,,,,,,,,,,,,,,,,,,
,,,,,,,,2023-08-16_08h47.06.060,HF_wild_card,2022.2.4,Win32,60.59504333,6060b2cead1daacd69adb31f,64d2fd46c836a06233681665,64dc7eedad91d76cb42eb0fc,,,,,,,sngl,resources/DP.BMP,resources/Empty.png,WildCard_NonEx,-0.336111104,0.02870369,1,0,0,0.6464,optionLeft,45,9175,4,30,0,30,0,1,,,,,,,,,,,,,,,,,,,,,,,,,,,,,,,,,,,,,,,
,,,,,,,,2023-08-16_08h47.06.060,HF_wild_card,2022.2.4,Win32,60.59504333,6060b2cead1daacd69adb31f,64d2fd46c836a06233681665,64dc7eedad91d76cb42eb0fc,,,,,,,decisionTrl,resources/DB.BMP,resources/DG.BMP,Door4,0.324074074,0.027777778,1,0,0,2.146,optionRight,80,9255,4,31,0,31,0,1,,,,,,,,,,,,,,,,,,,,,,,,,,,,,,,,,,,,,,,
,,,,,,,,2023-08-16_08h47.06.060,HF_wild_card,2022.2.4,Win32,60.59504333,6060b2cead1daacd69adb31f,64d2fd46c836a06233681665,64dc7eedad91d76cb42eb0fc,,,,,,,ctch,resources/DBN.BMP,resources/DG.BMP,Door4,0.417592649,0.030555548,1,0,0,0.8927,optionRight,60,9315,4,32,0,32,0,1,,,,,,,,,,,,,,,,,,,,,,,,,,,,,,,,,,,,,,,
,,,,,,,,2023-08-16_08h47.06.060,HF_wild_card,2022.2.4,Win32,60.59504333,6060b2cead1daacd69adb31f,64d2fd46c836a06233681665,64dc7eedad91d76cb42eb0fc,,,,,,,sngl,resources/Empty.png,resources/DR.BMP,Door2,0.328703704,0.001851859,1,0,0,0.7422,optionRight,40,9355,4,33,0,33,0,1,,,,,,,,,,,,,,,,,,,,,,,,,,,,,,,,,,,,,,,
,,,,,,,,2023-08-16_08h47.06.060,HF_wild_card,2022.2.4,Win32,60.59504333,6060b2cead1daacd69adb31f,64d2fd46c836a06233681665,64dc7eedad91d76cb42eb0fc,,,,,,,decisionTrl,resources/DG.BMP,resources/DB.BMP,Door3,0.36018527,0.011111118,1,0,0,1.8571,optionRight,70,9425,4,34,0,34,0,1,,,,,,,,,,,,,,,,,,,,,,,,,,,,,,,,,,,,,,,
,,,,,,,,2023-08-16_08h47.06.060,HF_wild_card,2022.2.4,Win32,60.59504333,6060b2cead1daacd69adb31f,64d2fd46c836a06233681665,64dc7eedad91d76cb42eb0fc,,,,,,,decisionTrl,resources/DG.BMP,resources/DP.BMP,Door4,-0.404629637,-0.00462963,1,0,0,0.627,optionLeft,80,9505,4,35,0,35,0,1,,,,,,,,,,,,,,,,,,,,,,,,,,,,,,,,,,,,,,,
,,,,,,,,2023-08-16_08h47.06.060,HF_wild_card,2022.2.4,Win32,60.59504333,6060b2cead1daacd69adb31f,64d2fd46c836a06233681665,64dc7eedad91d76cb42eb0fc,,,,,,,decisionTrl,resources/DP.BMP,resources/DR.BMP,WildCard_NonEx,-0.296296296,0.002777771,1,0,0,1.609,optionLeft,45,9550,4,36,0,36,0,1,,,,,,,,,,,,,,,,,,,,,,,,,,,,,,,,,,,,,,,
,,,,,,,,2023-08-16_08h47.06.060,HF_wild_card,2022.2.4,Win32,60.59504333,6060b2cead1daacd69adb31f,64d2fd46c836a06233681665,64dc7eedad91d76cb42eb0fc,,,,,,,decisionTrl,resources/DG.BMP,resources/DB.BMP,Door4,-0.219444416,0.000925912,1,0,0,1.9081,optionLeft,60,9610,4,37,0,37,0,1,,,,,,,,,,,,,,,,,,,,,,,,,,,,,,,,,,,,,,,
,,,,,,,,2023-08-16_08h47.06.060,HF_wild_card,2022.2.4,Win32,60.59504333,6060b2cead1daacd69adb31f,64d2fd46c836a06233681665,64dc7eedad91d76cb42eb0fc,,,,,,,decisionTrl,resources/DBN.BMP,resources/DR.BMP,Door2,0.288888931,0.037962949,1,0,0,2.958,optionRight,20,9630,4,38,0,38,0,1,,,,,,,,,,,,,,,,,,,,,,,,,,,,,,,,,,,,,,,
,,,,,,,,2023-08-16_08h47.06.060,HF_wild_card,2022.2.4,Win32,60.59504333,6060b2cead1daacd69adb31f,64d2fd46c836a06233681665,64dc7eedad91d76cb42eb0fc,,,,,,,decisionTrl,resources/DP.BMP,resources/DBN.BMP,WildCard_NonEx,-0.212037051,0.002777771,1,0,0,1.1419,optionLeft,55,9685,4,39,0,39,0,1,,,,,,,,,,,,,,,,,,,,,,,,,,,,,,,,,,,,,,,
,,,,,,,,2023-08-16_08h47.06.060,HF_wild_card,2022.2.4,Win32,60.59504333,6060b2cead1daacd69adb31f,64d2fd46c836a06233681665,64dc7eedad91d76cb42eb0fc,,,,,,,decisionTrl,resources/DBN.BMP,resources/DR.BMP,Door1,-0.298148155,0.059259238,1,0,0,2.8244,optionLeft,30,9715,4,40,0,40,0,1,,,,,,,,,,,,,,,,,,,,,,,,,,,,,,,,,,,,,,,
,,,,,,,,2023-08-16_08h47.06.060,HF_wild_card,2022.2.4,Win32,60.59504333,6060b2cead1daacd69adb31f,64d2fd46c836a06233681665,64dc7eedad91d76cb42eb0fc,,,,,,,ctch,resources/DG.BMP,resources/DBN.BMP,Door4,-0.377777771,0.02407406,1,0,0,1.1791,optionLeft,80,9795,4,41,0,41,0,1,,,,,,,,,,,,,,,,,,,,,,,,,,,,,,,,,,,,,,,
,,,,,,,,2023-08-16_08h47.06.060,HF_wild_card,2022.2.4,Win32,60.59504333,6060b2cead1daacd69adb31f,64d2fd46c836a06233681665,64dc7eedad91d76cb42eb0fc,,,,,,,sngl,resources/Empty.png,resources/DBN.BMP,Door1,0.270370413,0.034259266,1,0,0,0.7457,optionRight,30,9825,4,42,0,42,0,1,,,,,,,,,,,,,,,,,,,,,,,,,,,,,,,,,,,,,,,
,,,,,,,,2023-08-16_08h47.06.060,HF_wild_card,2022.2.4,Win32,60.59504333,6060b2cead1daacd69adb31f,64d2fd46c836a06233681665,64dc7eedad91d76cb42eb0fc,,,,,,,sngl,resources/Empty.png,resources/DG.BMP,Door4,0.410185213,0.03148146,1,0,0,0.6757,optionRight,80,9905,4,43,0,43,0,1,,,,,,,,,,,,,,,,,,,,,,,,,,,,,,,,,,,,,,,
,,,,,,,,2023-08-16_08h47.06.060,HF_wild_card,2022.2.4,Win32,60.59504333,6060b2cead1daacd69adb31f,64d2fd46c836a06233681665,64dc7eedad91d76cb42eb0fc,,,,,,,,,,,,,,,,,,,,,,,,,,3,0,3,0,1,,,,,,,,,,,,,,,,,,,,,,,,,,,,,,,,,,
,,,,,,,,2023-08-16_08h47.06.060,HF_wild_card,2022.2.4,Win32,60.59504333,6060b2cead1daacd69adb31f,64d2fd46c836a06233681665,64dc7eedad91d76cb42eb0fc,,,,,,,decisionTrl,resources/DP.BMP,resources/DR.BMP,WildCard_NonEx,-0.182407379,-0.045370384,1,0,0,1.1418,optionLeft,45,9950,5,0,0,0,0,1,,,,,,,,,,,,,,,,,,,,,,,,,,,,,,,,,,,,,,,
,,,,,,,,2023-08-16_08h47.06.060,HF_wild_card,2022.2.4,Win32,60.59504333,6060b2cead1daacd69adb31f,64d2fd46c836a06233681665,64dc7eedad91d76cb42eb0fc,,,,,,,sngl,resources/DP.BMP,resources/Empty.png,WildCard_NonEx,-0.287037037,0.025925919,1,0,0,0.6763,optionLeft,45,9995,5,1,0,1,0,1,,,,,,,,,,,,,,,,,,,,,,,,,,,,,,,,,,,,,,,
,,,,,,,,2023-08-16_08h47.06.060,HF_wild_card,2022.2.4,Win32,60.59504333,6060b2cead1daacd69adb31f,64d2fd46c836a06233681665,64dc7eedad91d76cb42eb0fc,,,,,,,ctch,resources/DG.BMP,resources/DBN.BMP,Door4,-0.523148148,-0.011111118,1,0,0,0.7933,optionLeft,60,10055,5,2,0,2,0,1,,,,,,,,,,,,,,,,,,,,,,,,,,,,,,,,,,,,,,,
,,,,,,,,2023-08-16_08h47.06.060,HF_wild_card,2022.2.4,Win32,60.59504333,6060b2cead1daacd69adb31f,64d2fd46c836a06233681665,64dc7eedad91d76cb42eb0fc,,,,,,,decisionTrl,resources/DR.BMP,resources/DBN.BMP,Door2,-0.200925898,-0.00462963,1,0,0,1.2429,optionLeft,20,10075,5,3,0,3,0,1,,,,,,,,,,,,,,,,,,,,,,,,,,,,,,,,,,,,,,,
,,,,,,,,2023-08-16_08h47.06.060,HF_wild_card,2022.2.4,Win32,60.59504333,6060b2cead1daacd69adb31f,64d2fd46c836a06233681665,64dc7eedad91d76cb42eb0fc,,,,,,,decisionTrl,resources/DR.BMP,resources/DBN.BMP,Door1,0.244444459,0.020370377,1,0,0,0.9933,optionRight,30,10105,5,4,0,4,0,1,,,,,,,,,,,,,,,,,,,,,,,,,,,,,,,,,,,,,,,
,,,,,,,,2023-08-16_08h47.06.060,HF_wild_card,2022.2.4,Win32,60.59504333,6060b2cead1daacd69adb31f,64d2fd46c836a06233681665,64dc7eedad91d76cb42eb0fc,,,,,,,sngl,resources/Empty.png,resources/DP.BMP,WildCard_NonEx,0.371296353,-0.003703718,1,0,0,0.6768,optionRight,45,10150,5,5,0,5,0,1,,,,,,,,,,,,,,,,,,,,,,,,,,,,,,,,,,,,,,,
,,,,,,,,2023-08-16_08h47.06.060,HF_wild_card,2022.2.4,Win32,60.59504333,6060b2cead1daacd69adb31f,64d2fd46c836a06233681665,64dc7eedad91d76cb42eb0fc,,,,,,,ctch,resources/DG.BMP,resources/DBN.BMP,Door4,-0.234259217,0.01944443,1,0,0,1.1097,optionLeft,60,10210,5,6,0,6,0,1,,,,,,,,,,,,,,,,,,,,,,,,,,,,,,,,,,,,,,,
,,,,,,,,2023-08-16_08h47.06.060,HF_wild_card,2022.2.4,Win32,60.59504333,6060b2cead1daacd69adb31f,64d2fd46c836a06233681665,64dc7eedad91d76cb42eb0fc,,,,,,,decisionTrl,resources/DBN.BMP,resources/DR.BMP,Door2,0.310185185,0.033333319,1,0,0,1.6749,optionRight,40,10250,5,7,0,7,0,1,,,,,,,,,,,,,,,,,,,,,,,,,,,,,,,,,,,,,,,
,,,,,,,,2023-08-16_08h47.06.060,HF_wild_card,2022.2.4,Win32,60.59504333,6060b2cead1daacd69adb31f,64d2fd46c836a06233681665,64dc7eedad91d76cb42eb0fc,,,,,,,decisionTrl,resources/DG.BMP,resources/DB.BMP,Door4,-0.337037016,0.067592586,1,0,0,2.2087,optionLeft,80,10330,5,8,0,8,0,1,,,,,,,,,,,,,,,,,,,,,,,,,,,,,,,,,,,,,,,
,,,,,,,,2023-08-16_08h47.06.060,HF_wild_card,2022.2.4,Win32,60.59504333,6060b2cead1daacd69adb31f,64d2fd46c836a06233681665,64dc7eedad91d76cb42eb0fc,,,,,,,decisionTrl,resources/DB.BMP,resources/DG.BMP,Door3,-0.555555556,-0.000925947,1,0,0,0.5774,optionLeft,70,10400,5,9,0,9,0,1,,,,,,,,,,,,,,,,,,,,,,,,,,,,,,,,,,,,,,,
,,,,,,,,2023-08-16_08h47.06.060,HF_wild_card,2022.2.4,Win32,60.59504333,6060b2cead1daacd69adb31f,64d2fd46c836a06233681665,64dc7eedad91d76cb42eb0fc,,,,,,,decisionTrl,resources/DP.BMP,resources/DG.BMP,Door4,0.327777863,0.014814801,1,0,0,1.5261,optionRight,60,10460,5,10,0,10,0,1,,,,,,,,,,,,,,,,,,,,,,,,,,,,,,,,,,,,,,,
,,,,,,,,2023-08-16_08h47.06.060,HF_wild_card,2022.2.4,Win32,60.59504333,6060b2cead1daacd69adb31f,64d2fd46c836a06233681665,64dc7eedad91d76cb42eb0fc,,,,,,,decisionTrl,resources/DR.BMP,resources/DBN.BMP,Door2,-0.298148155,0.045370349,1,0,0,1.9251,optionLeft,40,10500,5,11,0,11,0,1,,,,,,,,,,,,,,,,,,,,,,,,,,,,,,,,,,,,,,,
,,,,,,,,2023-08-16_08h47.06.060,HF_wild_card,2022.2.4,Win32,60.59504333,6060b2cead1daacd69adb31f,64d2fd46c836a06233681665,64dc7eedad91d76cb42eb0fc,,,,,,,decisionTrl,resources/DBN.BMP,resources/DR.BMP,Door2,0.55277775,0.014814801,1,0,0,1.2268,optionRight,20,10520,5,12,0,12,0,1,,,,,,,,,,,,,,,,,,,,,,,,,,,,,,,,,,,,,,,
,,,,,,,,2023-08-16_08h47.06.060,HF_wild_card,2022.2.4,Win32,60.59504333,6060b2cead1daacd69adb31f,64d2fd46c836a06233681665,64dc7eedad91d76cb42eb0fc,,,,,,,sngl,resources/DG.BMP,resources/Empty.png,Door4,-0.263888889,0.00462963,1,0,0,0.7257,optionLeft,80,10600,5,13,0,13,0,1,,,,,,,,,,,,,,,,,,,,,,,,,,,,,,,,,,,,,,,
,,,,,,,,2023-08-16_08h47.06.060,HF_wild_card,2022.2.4,Win32,60.59504333,6060b2cead1daacd69adb31f,64d2fd46c836a06233681665,64dc7eedad91d76cb42eb0fc,,,,,,,ctch,resources/DBN.BMP,resources/DG.BMP,Door4,0.339814787,0.00462963,1,0,0,0.7432,optionRight,60,10660,5,14,0,14,0,1,,,,,,,,,,,,,,,,,,,,,,,,,,,,,,,,,,,,,,,
,,,,,,,,2023-08-16_08h47.06.060,HF_wild_card,2022.2.4,Win32,60.59504333,6060b2cead1daacd69adb31f,64d2fd46c836a06233681665,64dc7eedad91d76cb42eb0fc,,,,,,,sngl,resources/Empty.png,resources/DP.BMP,WildCard_NonEx,0.354629658,0.00462963,1,0,0,0.9428,optionRight,55,10715,5,15,0,15,0,1,,,,,,,,,,,,,,,,,,,,,,,,,,,,,,,,,,,,,,,
,,,,,,,,2023-08-16_08h47.06.060,HF_wild_card,2022.2.4,Win32,60.59504333,6060b2cead1daacd69adb31f,64d2fd46c836a06233681665,64dc7eedad91d76cb42eb0fc,,,,,,,decisionTrl,resources/DG.BMP,resources/DB.BMP,Door3,0.372222194,0.015740748,1,0,0,3.5077,optionRight,70,10785,5,16,0,16,0,1,,,,,,,,,,,,,,,,,,,,,,,,,,,,,,,,,,,,,,,
,,,,,,,,2023-08-16_08h47.06.060,HF_wild_card,2022.2.4,Win32,60.59504333,6060b2cead1daacd69adb31f,64d2fd46c836a06233681665,64dc7eedad91d76cb42eb0fc,,,,,,,decisionTrl,resources/DBN.BMP,resources/DP.BMP,WildCard_NonEx,0.352777834,0.042592578,1,0,0,1.2927,optionRight,45,10830,5,17,0,17,0,1,,,,,,,,,,,,,,,,,,,,,,,,,,,,,,,,,,,,,,,
,,,,,,,,2023-08-16_08h47.06.060,HF_wild_card,2022.2.4,Win32,60.59504333,6060b2cead1daacd69adb31f,64d2fd46c836a06233681665,64dc7eedad91d76cb42eb0fc,,,,,,,decisionTrl,resources/DG.BMP,resources/DB.BMP,Door4,-0.280555513,0.023148148,1,0,0,0.8601,optionLeft,80,10910,5,18,0,18,0,1,,,,,,,,,,,,,,,,,,,,,,,,,,,,,,,,,,,,,,,
,,,,,,,,2023-08-16_08h47.06.060,HF_wild_card,2022.2.4,Win32,60.59504333,6060b2cead1daacd69adb31f,64d2fd46c836a06233681665,64dc7eedad91d76cb42eb0fc,,,,,,,decisionTrl,resources/DB.BMP,resources/DG.BMP,Door4,0.544444473,0.03611109,1,0,0,0.9593,optionRight,60,10970,5,19,0,19,0,1,,,,,,,,,,,,,,,,,,,,,,,,,,,,,,,,,,,,,,,
,,,,,,,,2023-08-16_08h47.06.060,HF_wild_card,2022.2.4,Win32,60.59504333,6060b2cead1daacd69adb31f,64d2fd46c836a06233681665,64dc7eedad91d76cb42eb0fc,,,,,,,decisionTrl,resources/DR.BMP,resources/DBN.BMP,Door2,-0.152777778,0.035185178,1,0,0,1.6252,optionLeft,40,11010,5,20,0,20,0,1,,,,,,,,,,,,,,,,,,,,,,,,,,,,,,,,,,,,,,,
,,,,,,,,2023-08-16_08h47.06.060,HF_wild_card,2022.2.4,Win32,60.59504333,6060b2cead1daacd69adb31f,64d2fd46c836a06233681665,64dc7eedad91d76cb42eb0fc,,,,,,,ctch,resources/DB.BMP,resources/DR.BMP,Door3,-0.39166666,0.072222215,1,0,0,1.5917,optionLeft,70,11080,5,21,0,21,0,1,,,,,,,,,,,,,,,,,,,,,,,,,,,,,,,,,,,,,,,
,,,,,,,,2023-08-16_08h47.06.060,HF_wild_card,2022.2.4,Win32,60.59504333,6060b2cead1daacd69adb31f,64d2fd46c836a06233681665,64dc7eedad91d76cb42eb0fc,,,,,,,sngl,resources/Empty.png,resources/DB.BMP,Door3,0.300925926,0.061111097,1,0,0,0.7276,optionRight,70,11150,5,22,0,22,0,1,,,,,,,,,,,,,,,,,,,,,,,,,,,,,,,,,,,,,,,
,,,,,,,,2023-08-16_08h47.06.060,HF_wild_card,2022.2.4,Win32,60.59504333,6060b2cead1daacd69adb31f,64d2fd46c836a06233681665,64dc7eedad91d76cb42eb0fc,,,,,,,decisionTrl,resources/DB.BMP,resources/DG.BMP,Door4,0.174074102,0.131481489,1,0,0,2.3412,optionRight,60,11210,5,23,0,23,0,1,,,,,,,,,,,,,,,,,,,,,,,,,,,,,,,,,,,,,,,
,,,,,,,,2023-08-16_08h47.06.060,HF_wild_card,2022.2.4,Win32,60.59504333,6060b2cead1daacd69adb31f,64d2fd46c836a06233681665,64dc7eedad91d76cb42eb0fc,,,,,,,decisionTrl,resources/DB.BMP,resources/DG.BMP,Door3,-0.216666681,0.044444437,1,0,0,0.7429,optionLeft,70,11280,5,24,0,24,0,1,,,,,,,,,,,,,,,,,,,,,,,,,,,,,,,,,,,,,,,
,,,,,,,,2023-08-16_08h47.06.060,HF_wild_card,2022.2.4,Win32,60.59504333,6060b2cead1daacd69adb31f,64d2fd46c836a06233681665,64dc7eedad91d76cb42eb0fc,,,,,,,sngl,resources/DR.BMP,resources/Empty.png,Door2,-0.205555527,0.043518526,1,0,0,0.8103,optionLeft,40,11320,5,25,0,25,0,1,,,,,,,,,,,,,,,,,,,,,,,,,,,,,,,,,,,,,,,
,,,,,,,,2023-08-16_08h47.06.060,HF_wild_card,2022.2.4,Win32,60.59504333,6060b2cead1daacd69adb31f,64d2fd46c836a06233681665,64dc7eedad91d76cb42eb0fc,,,,,,,ctch,resources/DR.BMP,resources/DB.BMP,Door3,0.356481481,0.046296296,1,0,0,1.4931,optionRight,70,11390,5,26,0,26,0,1,,,,,,,,,,,,,,,,,,,,,,,,,,,,,,,,,,,,,,,
,,,,,,,,2023-08-16_08h47.06.060,HF_wild_card,2022.2.4,Win32,60.59504333,6060b2cead1daacd69adb31f,64d2fd46c836a06233681665,64dc7eedad91d76cb42eb0fc,,,,,,,sngl,resources/DB.BMP,resources/Empty.png,Door3,-0.211111069,0.035185178,1,0,0,0.6932,optionLeft,70,11460,5,27,0,27,0,1,,,,,,,,,,,,,,,,,,,,,,,,,,,,,,,,,,,,,,,
,,,,,,,,2023-08-16_08h47.06.060,HF_wild_card,2022.2.4,Win32,60.59504333,6060b2cead1daacd69adb31f,64d2fd46c836a06233681665,64dc7eedad91d76cb42eb0fc,,,,,,,sngl,resources/DP.BMP,resources/Empty.png,WildCard_NonEx,-0.175925926,0.01203703,1,0,0,0.9922,optionLeft,55,11515,5,28,0,28,0,1,,,,,,,,,,,,,,,,,,,,,,,,,,,,,,,,,,,,,,,
,,,,,,,,2023-08-16_08h47.06.060,HF_wild_card,2022.2.4,Win32,60.59504333,6060b2cead1daacd69adb31f,64d2fd46c836a06233681665,64dc7eedad91d76cb42eb0fc,,,,,,,sngl,resources/DBN.BMP,resources/Empty.png,Door1,-0.150925884,0.022222201,1,0,0,0.726,optionLeft,30,11545,5,29,0,29,0,1,,,,,,,,,,,,,,,,,,,,,,,,,,,,,,,,,,,,,,,
,,,,,,,,2023-08-16_08h47.06.060,HF_wild_card,2022.2.4,Win32,60.59504333,6060b2cead1daacd69adb31f,64d2fd46c836a06233681665,64dc7eedad91d76cb42eb0fc,,,,,,,sngl,resources/Empty.png,resources/DBN.BMP,Door1,0.304629714,0.020370377,1,0,0,0.6106,optionRight,30,11575,5,30,0,30,0,1,,,,,,,,,,,,,,,,,,,,,,,,,,,,,,,,,,,,,,,
,,,,,,,,2023-08-16_08h47.06.060,HF_wild_card,2022.2.4,Win32,60.59504333,6060b2cead1daacd69adb31f,64d2fd46c836a06233681665,64dc7eedad91d76cb42eb0fc,,,,,,,ctch,resources/DB.BMP,resources/DR.BMP,Door3,-0.263888889,0.069444444,1,0,0,1.2258,optionLeft,70,11645,5,31,0,31,0,1,,,,,,,,,,,,,,,,,,,,,,,,,,,,,,,,,,,,,,,
,,,,,,,,2023-08-16_08h47.06.060,HF_wild_card,2022.2.4,Win32,60.59504333,6060b2cead1daacd69adb31f,64d2fd46c836a06233681665,64dc7eedad91d76cb42eb0fc,,,,,,,sngl,resources/Empty.png,resources/DG.BMP,Door4,0.307407379,0.044444437,1,0,0,0.8762,optionRight,60,11705,5,32,0,32,0,1,,,,,,,,,,,,,,,,,,,,,,,,,,,,,,,,,,,,,,,
,,,,,,,,2023-08-16_08h47.06.060,HF_wild_card,2022.2.4,Win32,60.59504333,6060b2cead1daacd69adb31f,64d2fd46c836a06233681665,64dc7eedad91d76cb42eb0fc,,,,,,,decisionTrl,resources/DBN.BMP,resources/DR.BMP,Door2,0.35555564,0.033333319,1,0,0,1.1759,optionRight,40,11745,5,33,0,33,0,1,,,,,,,,,,,,,,,,,,,,,,,,,,,,,,,,,,,,,,,
,,,,,,,,2023-08-16_08h47.06.060,HF_wild_card,2022.2.4,Win32,60.59504333,6060b2cead1daacd69adb31f,64d2fd46c836a06233681665,64dc7eedad91d76cb42eb0fc,,,,,,,sngl,resources/Empty.png,resources/DR.BMP,Door2,0.396296325,0.009259259,1,0,0,0.5929,optionRight,20,11765,5,34,0,34,0,1,,,,,,,,,,,,,,,,,,,,,,,,,,,,,,,,,,,,,,,
,,,,,,,,2023-08-16_08h47.06.060,HF_wild_card,2022.2.4,Win32,60.59504333,6060b2cead1daacd69adb31f,64d2fd46c836a06233681665,64dc7eedad91d76cb42eb0fc,,,,,,,decisionTrl,resources/DP.BMP,resources/DB.BMP,Door3,0.377777806,0.050925926,1,0,0,1.3426,optionRight,70,11835,5,35,0,35,0,1,,,,,,,,,,,,,,,,,,,,,,,,,,,,,,,,,,,,,,,
,,,,,,,,2023-08-16_08h47.06.060,HF_wild_card,2022.2.4,Win32,60.59504333,6060b2cead1daacd69adb31f,64d2fd46c836a06233681665,64dc7eedad91d76cb42eb0fc,,,,,,,ctch,resources/DBN.BMP,resources/DG.BMP,Door4,0.395370342,0.078703704,1,0,0,1.5252,optionRight,60,11895,5,36,0,36,0,1,,,,,,,,,,,,,,,,,,,,,,,,,,,,,,,,,,,,,,,
,,,,,,,,2023-08-16_08h47.06.060,HF_wild_card,2022.2.4,Win32,60.59504333,6060b2cead1daacd69adb31f,64d2fd46c836a06233681665,64dc7eedad91d76cb42eb0fc,,,,,,,ctch,resources/DR.BMP,resources/DB.BMP,Door3,0.444444444,0.026851831,1,0,0,1.2933,optionRight,70,11965,5,37,0,37,0,1,,,,,,,,,,,,,,,,,,,,,,,,,,,,,,,,,,,,,,,
,,,,,,,,2023-08-16_08h47.06.060,HF_wild_card,2022.2.4,Win32,60.59504333,6060b2cead1daacd69adb31f,64d2fd46c836a06233681665,64dc7eedad91d76cb42eb0fc,,,,,,,decisionTrl,resources/DR.BMP,resources/DP.BMP,WildCard_NonEx,0.24537037,0.068518497,1,0,0,2.4242,optionRight,55,12020,5,38,0,38,0,1,,,,,,,,,,,,,,,,,,,,,,,,,,,,,,,,,,,,,,,
,,,,,,,,2023-08-16_08h47.06.060,HF_wild_card,2022.2.4,Win32,60.59504333,6060b2cead1daacd69adb31f,64d2fd46c836a06233681665,64dc7eedad91d76cb42eb0fc,,,,,,,decisionTrl,resources/DG.BMP,resources/DB.BMP,Door3,0.361111111,0.005555541,1,0,0,0.9588,optionRight,70,12090,5,39,0,39,0,1,,,,,,,,,,,,,,,,,,,,,,,,,,,,,,,,,,,,,,,
,,,,,,,,2023-08-16_08h47.06.060,HF_wild_card,2022.2.4,Win32,60.59504333,6060b2cead1daacd69adb31f,64d2fd46c836a06233681665,64dc7eedad91d76cb42eb0fc,,,,,,,decisionTrl,resources/DG.BMP,resources/DP.BMP,Door4,-0.272222236,-0.008333347,1,0,0,1.1142,optionLeft,80,12170,5,40,0,40,0,1,,,,,,,,,,,,,,,,,,,,,,,,,,,,,,,,,,,,,,,
,,,,,,,,2023-08-16_08h47.06.060,HF_wild_card,2022.2.4,Win32,60.59504333,6060b2cead1daacd69adb31f,64d2fd46c836a06233681665,64dc7eedad91d76cb42eb0fc,,,,,,,decisionTrl,resources/DBN.BMP,resources/DR.BMP,Door1,-0.345370363,0.011111118,1,0,0,1.2425,optionLeft,30,12200,5,41,0,41,0,1,,,,,,,,,,,,,,,,,,,,,,,,,,,,,,,,,,,,,,,
,,,,,,,,2023-08-16_08h47.06.060,HF_wild_card,2022.2.4,Win32,60.59504333,6060b2cead1daacd69adb31f,64d2fd46c836a06233681665,64dc7eedad91d76cb42eb0fc,,,,,,,decisionTrl,resources/DB.BMP,resources/DP.BMP,Door3,-0.226851852,-0.003703718,1,0,0,1.2928,optionLeft,70,12270,5,42,0,42,0,1,,,,,,,,,,,,,,,,,,,,,,,,,,,,,,,,,,,,,,,
,,,,,,,,2023-08-16_08h47.06.060,HF_wild_card,2022.2.4,Win32,60.59504333,6060b2cead1daacd69adb31f,64d2fd46c836a06233681665,64dc7eedad91d76cb42eb0fc,,,,,,,decisionTrl,resources/DP.BMP,resources/DBN.BMP,WildCard_NonEx,-0.226851852,-0.01203703,1,0,0,1.2436,optionLeft,45,12315,5,43,0,43,0,1,,,,,,,,,,,,,,,,,,,,,,,,,,,,,,,,,,,,,,,
,,,,,,,,2023-08-16_08h47.06.060,HF_wild_card,2022.2.4,Win32,60.59504333,6060b2cead1daacd69adb31f,64d2fd46c836a06233681665,64dc7eedad91d76cb42eb0fc,,,,,,,,,,,,,,,,,,,,,,,,,,4,0,4,0,1,,,,,,,,,,,,,,,,,,,,,,,,,,,,,,,,,,
,,,,,,,,2023-08-16_08h47.06.060,HF_wild_card,2022.2.4,Win32,60.59504333,6060b2cead1daacd69adb31f,64d2fd46c836a06233681665,64dc7eedad91d76cb42eb0fc,,,,,,,decisionTrl,resources/DBN.BMP,resources/DR.BMP,Door1,-0.268518519,-0.045370384,1,0,0,1.7733,optionLeft,30,12345,6,0,0,0,0,1,,,,,,,,,,,,,,,,,,,,,,,,,,,,,,,,,,,,,,,
,,,,,,,,2023-08-16_08h47.06.060,HF_wild_card,2022.2.4,Win32,60.59504333,6060b2cead1daacd69adb31f,64d2fd46c836a06233681665,64dc7eedad91d76cb42eb0fc,,,,,,,decisionTrl,resources/DB.BMP,resources/DG.BMP,Door4,0.328703704,-0.047222243,1,0,0,1.7421,optionRight,60,12405,6,1,0,1,0,1,,,,,,,,,,,,,,,,,,,,,,,,,,,,,,,,,,,,,,,
,,,,,,,,2023-08-16_08h47.06.060,HF_wild_card,2022.2.4,Win32,60.59504333,6060b2cead1daacd69adb31f,64d2fd46c836a06233681665,64dc7eedad91d76cb42eb0fc,,,,,,,sngl,resources/Empty.png,resources/DP.BMP,WildCard_NonEx,0.29814812,-0.015740748,1,0,0,0.6761,optionRight,55,12460,6,2,0,2,0,1,,,,,,,,,,,,,,,,,,,,,,,,,,,,,,,,,,,,,,,
,,,,,,,,2023-08-16_08h47.06.060,HF_wild_card,2022.2.4,Win32,60.59504333,6060b2cead1daacd69adb31f,64d2fd46c836a06233681665,64dc7eedad91d76cb42eb0fc,,,,,,,decisionTrl,resources/DR.BMP,resources/DBN.BMP,Door2,-0.252777735,-0.009259259,1,0,0,1.2589,optionLeft,20,12480,6,3,0,3,0,1,,,,,,,,,,,,,,,,,,,,,,,,,,,,,,,,,,,,,,,
,,,,,,,,2023-08-16_08h47.06.060,HF_wild_card,2022.2.4,Win32,60.59504333,6060b2cead1daacd69adb31f,64d2fd46c836a06233681665,64dc7eedad91d76cb42eb0fc,,,,,,,decisionTrl,resources/DP.BMP,resources/DB.BMP,Door3,0.398148148,0.04074072,1,0,0,1.093,optionRight,70,12550,6,4,0,4,0,1,,,,,,,,,,,,,,,,,,,,,,,,,,,,,,,,,,,,,,,
,,,,,,,,2023-08-16_08h47.06.060,HF_wild_card,2022.2.4,Win32,60.59504333,6060b2cead1daacd69adb31f,64d2fd46c836a06233681665,64dc7eedad91d76cb42eb0fc,,,,,,,sngl,resources/DP.BMP,resources/Empty.png,WildCard_NonEx,-0.279629601,-0.015740748,1,0,0,0.6796,optionLeft,45,12595,6,5,0,5,0,1,,,,,,,,,,,,,,,,,,,,,,,,,,,,,,,,,,,,,,,
,,,,,,,,2023-08-16_08h47.06.060,HF_wild_card,2022.2.4,Win32,60.59504333,6060b2cead1daacd69adb31f,64d2fd46c836a06233681665,64dc7eedad91d76cb42eb0fc,,,,,,,sngl,resources/Empty.png,resources/DBN.BMP,Door1,0.325000057,-0.017592607,1,0,0,0.6501,optionRight,30,12625,6,6,0,6,0,1,,,,,,,,,,,,,,,,,,,,,,,,,,,,,,,,,,,,,,,
,,,,,,,,2023-08-16_08h47.06.060,HF_wild_card,2022.2.4,Win32,60.59504333,6060b2cead1daacd69adb31f,64d2fd46c836a06233681665,64dc7eedad91d76cb42eb0fc,,,,,,,decisionTrl,resources/DBN.BMP,resources/DP.BMP,WildCard_NonEx,0.293518561,-0.012962977,1,0,0,1.7425,optionRight,45,12670,6,7,0,7,0,1,,,,,,,,,,,,,,,,,,,,,,,,,,,,,,,,,,,,,,,
,,,,,,,,2023-08-16_08h47.06.060,HF_wild_card,2022.2.4,Win32,60.59504333,6060b2cead1daacd69adb31f,64d2fd46c836a06233681665,64dc7eedad91d76cb42eb0fc,,,,,,,ctch,resources/DB.BMP,resources/DR.BMP,Door3,-0.300925926,0.017592571,1,0,0,1.9749,optionLeft,70,12740,6,8,0,8,0,1,,,,,,,,,,,,,,,,,,,,,,,,,,,,,,,,,,,,,,,
,,,,,,,,2023-08-16_08h47.06.060,HF_wild_card,2022.2.4,Win32,60.59504333,6060b2cead1daacd69adb31f,64d2fd46c836a06233681665,64dc7eedad91d76cb42eb0fc,,,,,,,ctch,resources/DBN.BMP,resources/DG.BMP,Door4,0.363888917,-0.000925947,1,0,0,1.0926,optionRight,60,12800,6,9,0,9,0,1,,,,,,,,,,,,,,,,,,,,,,,,,,,,,,,,,,,,,,,
,,,,,,,,2023-08-16_08h47.06.060,HF_wild_card,2022.2.4,Win32,60.59504333,6060b2cead1daacd69adb31f,64d2fd46c836a06233681665,64dc7eedad91d76cb42eb0fc,,,,,,,sngl,resources/Empty.png,resources/DB.BMP,Door3,0.311111168,0.001851859,1,0,0,0.6766,optionRight,70,12870,6,10,0,10,0,1,,,,,,,,,,,,,,,,,,,,,,,,,,,,,,,,,,,,,,,
,,,,,,,,2023-08-16_08h47.06.060,HF_wild_card,2022.2.4,Win32,60.59504333,6060b2cead1daacd69adb31f,64d2fd46c836a06233681665,64dc7eedad91d76cb42eb0fc,,,,,,,sngl,resources/Empty.png,resources/DG.BMP,Door4,0.343518575,0,1,0,0,0.5932,optionRight,80,12950,6,11,0,11,0,1,,,,,,,,,,,,,,,,,,,,,,,,,,,,,,,,,,,,,,,
,,,,,,,,2023-08-16_08h47.06.060,HF_wild_card,2022.2.4,Win32,60.59504333,6060b2cead1daacd69adb31f,64d2fd46c836a06233681665,64dc7eedad91d76cb42eb0fc,,,,,,,ctch,resources/DB.BMP,resources/DR.BMP,Door3,-0.202777792,0.005555541,1,0,0,0.9603,optionLeft,70,13020,6,12,0,12,0,1,,,,,,,,,,,,,,,,,,,,,,,,,,,,,,,,,,,,,,,
,,,,,,,,2023-08-16_08h47.06.060,HF_wild_card,2022.2.4,Win32,60.59504333,6060b2cead1daacd69adb31f,64d2fd46c836a06233681665,64dc7eedad91d76cb42eb0fc,,,,,,,sngl,resources/Empty.png,resources/DR.BMP,Door2,0.332407492,0,1,0,0,0.7103,optionRight,40,13060,6,13,0,13,0,1,,,,,,,,,,,,,,,,,,,,,,,,,,,,,,,,,,,,,,,
,,,,,,,,2023-08-16_08h47.06.060,HF_wild_card,2022.2.4,Win32,60.59504333,6060b2cead1daacd69adb31f,64d2fd46c836a06233681665,64dc7eedad91d76cb42eb0fc,,,,,,,decisionTrl,resources/DBN.BMP,resources/DR.BMP,Door2,0.319444444,0.029629637,1,0,0,1.0438,optionRight,20,13080,6,14,0,14,0,1,,,,,,,,,,,,,,,,,,,,,,,,,,,,,,,,,,,,,,,
,,,,,,,,2023-08-16_08h47.06.060,HF_wild_card,2022.2.4,Win32,60.59504333,6060b2cead1daacd69adb31f,64d2fd46c836a06233681665,64dc7eedad91d76cb42eb0fc,,,,,,,sngl,resources/DP.BMP,resources/Empty.png,WildCard_NonEx,-0.178703661,0.002777771,1,0,0,0.7097,optionLeft,55,13135,6,15,0,15,0,1,,,,,,,,,,,,,,,,,,,,,,,,,,,,,,,,,,,,,,,
,,,,,,,,2023-08-16_08h47.06.060,HF_wild_card,2022.2.4,Win32,60.59504333,6060b2cead1daacd69adb31f,64d2fd46c836a06233681665,64dc7eedad91d76cb42eb0fc,,,,,,,decisionTrl,resources/DR.BMP,resources/DBN.BMP,Door2,-0.24537037,0.005555541,1,0,0,3.2582,optionLeft,40,13175,6,16,0,16,0,1,,,,,,,,,,,,,,,,,,,,,,,,,,,,,,,,,,,,,,,
,,,,,,,,2023-08-16_08h47.06.060,HF_wild_card,2022.2.4,Win32,60.59504333,6060b2cead1daacd69adb31f,64d2fd46c836a06233681665,64dc7eedad91d76cb42eb0fc,,,,,,,ctch,resources/DG.BMP,resources/DBN.BMP,Door4,-0.292592578,0.052777785,1,0,0,1.3263,optionLeft,80,13255,6,17,0,17,0,1,,,,,,,,,,,,,,,,,,,,,,,,,,,,,,,,,,,,,,,
,,,,,,,,2023-08-16_08h47.06.060,HF_wild_card,2022.2.4,Win32,60.59504333,6060b2cead1daacd69adb31f,64d2fd46c836a06233681665,64dc7eedad91d76cb42eb0fc,,,,,,,decisionTrl,resources/DP.BMP,resources/DG.BMP,Door4,0.371296353,0.000925912,1,0,0,1.3761,optionRight,60,13315,6,18,0,18,0,1,,,,,,,,,,,,,,,,,,,,,,,,,,,,,,,,,,,,,,,
,,,,,,,,2023-08-16_08h47.06.060,HF_wild_card,2022.2.4,Win32,60.59504333,6060b2cead1daacd69adb31f,64d2fd46c836a06233681665,64dc7eedad91d76cb42eb0fc,,,,,,,sngl,resources/DBN.BMP,resources/Empty.png,Door1,-0.187962921,0.01666666,1,0,0,0.7264,optionLeft,30,13345,6,19,0,19,0,1,,,,,,,,,,,,,,,,,,,,,,,,,,,,,,,,,,,,,,,
,,,,,,,,2023-08-16_08h47.06.060,HF_wild_card,2022.2.4,Win32,60.59504333,6060b2cead1daacd69adb31f,64d2fd46c836a06233681665,64dc7eedad91d76cb42eb0fc,,,,,,,decisionTrl,resources/DP.BMP,resources/DR.BMP,WildCard_NonEx,-0.359259252,0.046296296,1,0,0,1.8091,optionLeft,45,13390,6,20,0,20,0,1,,,,,,,,,,,,,,,,,,,,,,,,,,,,,,,,,,,,,,,
,,,,,,,,2023-08-16_08h47.06.060,HF_wild_card,2022.2.4,Win32,60.59504333,6060b2cead1daacd69adb31f,64d2fd46c836a06233681665,64dc7eedad91d76cb42eb0fc,,,,,,,sngl,resources/DG.BMP,resources/Empty.png,Door4,-0.27407406,0.012962942,1,0,0,0.7106,optionLeft,60,13450,6,21,0,21,0,1,,,,,,,,,,,,,,,,,,,,,,,,,,,,,,,,,,,,,,,
,,,,,,,,2023-08-16_08h47.06.060,HF_wild_card,2022.2.4,Win32,60.59504333,6060b2cead1daacd69adb31f,64d2fd46c836a06233681665,64dc7eedad91d76cb42eb0fc,,,,,,,sngl,resources/Empty.png,resources/DP.BMP,WildCard_NonEx,0.338888945,0.002777771,1,0,0,0.7437,optionRight,45,13495,6,22,0,22,0,1,,,,,,,,,,,,,,,,,,,,,,,,,,,,,,,,,,,,,,,
,,,,,,,,2023-08-16_08h47.06.060,HF_wild_card,2022.2.4,Win32,60.59504333,6060b2cead1daacd69adb31f,64d2fd46c836a06233681665,64dc7eedad91d76cb42eb0fc,,,,,,,ctch,resources/DBN.BMP,resources/DG.BMP,Door4,0.386111083,0.001851859,1,0,0,0.9262,optionRight,60,13555,6,23,0,23,0,1,,,,,,,,,,,,,,,,,,,,,,,,,,,,,,,,,,,,,,,
,,,,,,,,2023-08-16_08h47.06.060,HF_wild_card,2022.2.4,Win32,60.59504333,6060b2cead1daacd69adb31f,64d2fd46c836a06233681665,64dc7eedad91d76cb42eb0fc,,,,,,,sngl,resources/DB.BMP,resources/Empty.png,Door3,-0.238888847,0.009259259,1,0,0,0.6768,optionLeft,70,13625,6,24,0,24,0,1,,,,,,,,,,,,,,,,,,,,,,,,,,,,,,,,,,,,,,,
,,,,,,,,2023-08-16_08h47.06.060,HF_wild_card,2022.2.4,Win32,60.59504333,6060b2cead1daacd69adb31f,64d2fd46c836a06233681665,64dc7eedad91d76cb42eb0fc,,,,,,,ctch,resources/DR.BMP,resources/DB.BMP,Door3,0.380555612,0.001851859,1,0,0,0.8761,optionRight,70,13695,6,25,0,25,0,1,,,,,,,,,,,,,,,,,,,,,,,,,,,,,,,,,,,,,,,
,,,,,,,,2023-08-16_08h47.06.060,HF_wild_card,2022.2.4,Win32,60.59504333,6060b2cead1daacd69adb31f,64d2fd46c836a06233681665,64dc7eedad91d76cb42eb0fc,,,,,,,decisionTrl,resources/DB.BMP,resources/DG.BMP,Door3,-0.132407365,-0.012962977,1,0,0,2.3251,optionLeft,70,13765,6,26,0,26,0,1,,,,,,,,,,,,,,,,,,,,,,,,,,,,,,,,,,,,,,,
,,,,,,,,2023-08-16_08h47.06.060,HF_wild_card,2022.2.4,Win32,60.59504333,6060b2cead1daacd69adb31f,64d2fd46c836a06233681665,64dc7eedad91d76cb42eb0fc,,,,,,,ctch,resources/DR.BMP,resources/DB.BMP,Door3,0.346296381,0.002777771,1,0,0,0.9932,optionRight,70,13835,6,27,0,27,0,1,,,,,,,,,,,,,,,,,,,,,,,,,,,,,,,,,,,,,,,
,,,,,,,,2023-08-16_08h47.06.060,HF_wild_card,2022.2.4,Win32,60.59504333,6060b2cead1daacd69adb31f,64d2fd46c836a06233681665,64dc7eedad91d76cb42eb0fc,,,,,,,decisionTrl,resources/DG.BMP,resources/DB.BMP,Door3,0.304629714,0,1,0,0,1.227,optionRight,70,13905,6,28,0,28,0,1,,,,,,,,,,,,,,,,,,,,,,,,,,,,,,,,,,,,,,,
,,,,,,,,2023-08-16_08h47.06.060,HF_wild_card,2022.2.4,Win32,60.59504333,6060b2cead1daacd69adb31f,64d2fd46c836a06233681665,64dc7eedad91d76cb42eb0fc,,,,,,,decisionTrl,resources/DG.BMP,resources/DB.BMP,Door3,0.383333418,0,1,0,0,0.8434,optionRight,70,13975,6,29,0,29,0,1,,,,,,,,,,,,,,,,,,,,,,,,,,,,,,,,,,,,,,,
,,,,,,,,2023-08-16_08h47.06.060,HF_wild_card,2022.2.4,Win32,60.59504333,6060b2cead1daacd69adb31f,64d2fd46c836a06233681665,64dc7eedad91d76cb42eb0fc,,,,,,,decisionTrl,resources/DR.BMP,resources/DBN.BMP,Door2,-0.378703683,0.018518519,1,0,0,2.6416,optionLeft,20,13995,6,30,0,30,0,1,,,,,,,,,,,,,,,,,,,,,,,,,,,,,,,,,,,,,,,
,,,,,,,,2023-08-16_08h47.06.060,HF_wild_card,2022.2.4,Win32,60.59504333,6060b2cead1daacd69adb31f,64d2fd46c836a06233681665,64dc7eedad91d76cb42eb0fc,,,,,,,decisionTrl,resources/DG.BMP,resources/DP.BMP,Door4,-0.236111111,0.025000007,1,0,0,1.5755,optionLeft,80,14075,6,31,0,31,0,1,,,,,,,,,,,,,,,,,,,,,,,,,,,,,,,,,,,,,,,
,,,,,,,,2023-08-16_08h47.06.060,HF_wild_card,2022.2.4,Win32,60.59504333,6060b2cead1daacd69adb31f,64d2fd46c836a06233681665,64dc7eedad91d76cb42eb0fc,,,,,,,decisionTrl,resources/DB.BMP,resources/DG.BMP,Door4,0.392592677,0.02407406,1,0,0,1.3095,optionRight,60,14135,6,32,0,32,0,1,,,,,,,,,,,,,,,,,,,,,,,,,,,,,,,,,,,,,,,
,,,,,,,,2023-08-16_08h47.06.060,HF_wild_card,2022.2.4,Win32,60.59504333,6060b2cead1daacd69adb31f,64d2fd46c836a06233681665,64dc7eedad91d76cb42eb0fc,,,,,,,decisionTrl,resources/DR.BMP,resources/DP.BMP,WildCard_NonEx,0.399074131,0.047222208,1,0,0,2.3756,optionRight,55,14190,6,33,0,33,0,1,,,,,,,,,,,,,,,,,,,,,,,,,,,,,,,,,,,,,,,
,,,,,,,,2023-08-16_08h47.06.060,HF_wild_card,2022.2.4,Win32,60.59504333,6060b2cead1daacd69adb31f,64d2fd46c836a06233681665,64dc7eedad91d76cb42eb0fc,,,,,,,decisionTrl,resources/DG.BMP,resources/DB.BMP,Door3,0.412037037,0.015740748,1,0,0,1.5252,optionRight,70,14260,6,34,0,34,0,1,,,,,,,,,,,,,,,,,,,,,,,,,,,,,,,,,,,,,,,
,,,,,,,,2023-08-16_08h47.06.060,HF_wild_card,2022.2.4,Win32,60.59504333,6060b2cead1daacd69adb31f,64d2fd46c836a06233681665,64dc7eedad91d76cb42eb0fc,,,,,,,decisionTrl,resources/DG.BMP,resources/DB.BMP,Door3,0.270370413,0.01944443,1,0,0,1.1758,optionRight,70,14330,6,35,0,35,0,1,,,,,,,,,,,,,,,,,,,,,,,,,,,,,,,,,,,,,,,
,,,,,,,,2023-08-16_08h47.06.060,HF_wild_card,2022.2.4,Win32,60.59504333,6060b2cead1daacd69adb31f,64d2fd46c836a06233681665,64dc7eedad91d76cb42eb0fc,,,,,,,decisionTrl,resources/DB.BMP,resources/DP.BMP,Door3,-0.318518497,0.025000007,1,0,0,1.4425,optionLeft,70,14400,6,36,0,36,0,1,,,,,,,,,,,,,,,,,,,,,,,,,,,,,,,,,,,,,,,
,,,,,,,,2023-08-16_08h47.06.060,HF_wild_card,2022.2.4,Win32,60.59504333,6060b2cead1daacd69adb31f,64d2fd46c836a06233681665,64dc7eedad91d76cb42eb0fc,,,,,,,decisionTrl,resources/DR.BMP,resources/DBN.BMP,Door1,0.248148176,0.01666666,1,0,0,1.5592,optionRight,30,14430,6,37,0,37,0,1,,,,,,,,,,,,,,,,,,,,,,,,,,,,,,,,,,,,,,,
,,,,,,,,2023-08-16_08h47.06.060,HF_wild_card,2022.2.4,Win32,60.59504333,6060b2cead1daacd69adb31f,64d2fd46c836a06233681665,64dc7eedad91d76cb42eb0fc,,,,,,,decisionTrl,resources/DP.BMP,resources/DBN.BMP,WildCard_NonEx,-0.36296297,0.046296296,1,0,0,1.7926,optionLeft,55,14485,6,38,0,38,0,1,,,,,,,,,,,,,,,,,,,,,,,,,,,,,,,,,,,,,,,
,,,,,,,,2023-08-16_08h47.06.060,HF_wild_card,2022.2.4,Win32,60.59504333,6060b2cead1daacd69adb31f,64d2fd46c836a06233681665,64dc7eedad91d76cb42eb0fc,,,,,,,decisionTrl,resources/DB.BMP,resources/DG.BMP,Door4,0.337962963,0.033333319,1,0,0,1.9421,optionRight,60,14545,6,39,0,39,0,1,,,,,,,,,,,,,,,,,,,,,,,,,,,,,,,,,,,,,,,
,,,,,,,,2023-08-16_08h47.06.060,HF_wild_card,2022.2.4,Win32,60.59504333,6060b2cead1daacd69adb31f,64d2fd46c836a06233681665,64dc7eedad91d76cb42eb0fc,,,,,,,decisionTrl,resources/DBN.BMP,resources/DR.BMP,Door1,-0.214814787,0.038888896,1,0,0,3.8238,optionLeft,30,14575,6,40,0,40,0,1,,,,,,,,,,,,,,,,,,,,,,,,,,,,,,,,,,,,,,,
,,,,,,,,2023-08-16_08h47.06.060,HF_wild_card,2022.2.4,Win32,60.59504333,6060b2cead1daacd69adb31f,64d2fd46c836a06233681665,64dc7eedad91d76cb42eb0fc,,,,,,,sngl,resources/DR.BMP,resources/Empty.png,Door2,-0.285185143,0.041666667,1,0,0,0.6605,optionLeft,20,14595,6,41,0,41,0,1,,,,,,,,,,,,,,,,,,,,,,,,,,,,,,,,,,,,,,,
,,,,,,,,2023-08-16_08h47.06.060,HF_wild_card,2022.2.4,Win32,60.59504333,6060b2cead1daacd69adb31f,64d2fd46c836a06233681665,64dc7eedad91d76cb42eb0fc,,,,,,,decisionTrl,resources/DBN.BMP,resources/DR.BMP,Door2,0.292592578,0.030555548,1,0,0,1.9253,optionRight,20,14615,6,42,0,42,0,1,,,,,,,,,,,,,,,,,,,,,,,,,,,,,,,,,,,,,,,
,,,,,,,,2023-08-16_08h47.06.060,HF_wild_card,2022.2.4,Win32,60.59504333,6060b2cead1daacd69adb31f,64d2fd46c836a06233681665,64dc7eedad91d76cb42eb0fc,,,,,,,ctch,resources/DG.BMP,resources/DBN.BMP,Door4,-0.289814772,0.065740727,1,0,0,0.8926,optionLeft,60,14675,6,43,0,43,0,1,,,,,,,,,,,,,,,,,,,,,,,,,,,,,,,,,,,,,,,
,,,,,,,,2023-08-16_08h47.06.060,HF_wild_card,2022.2.4,Win32,60.59504333,6060b2cead1daacd69adb31f,64d2fd46c836a06233681665,64dc7eedad91d76cb42eb0fc,,,,,,,,,,,,,,,,,,,,,,,,,,5,0,5,0,1,,,,,,,,,,,,,,,,,,,,,,,,,,,,,,,,,,
,,,,,,,,2023-08-16_08h47.06.060,HF_wild_card,2022.2.4,Win32,60.59504333,6060b2cead1daacd69adb31f,64d2fd46c836a06233681665,64dc7eedad91d76cb42eb0fc,,,,,,,decisionTrl,resources/DBN.BMP,resources/DR.BMP,Door1,-0.17777775,-0.010185206,1,0,0,1.4891,optionLeft,30,14705,7,0,0,0,0,1,,,,,,,,,,,,,,,,,,,,,,,,,,,,,,,,,,,,,,,
,,,,,,,,2023-08-16_08h47.06.060,HF_wild_card,2022.2.4,Win32,60.59504333,6060b2cead1daacd69adb31f,64d2fd46c836a06233681665,64dc7eedad91d76cb42eb0fc,,,,,,,decisionTrl,resources/DBN.BMP,resources/DR.BMP,Door1,-0.228703675,-0.0074074,1,0,0,1.5135,optionLeft,30,14735,7,1,0,1,0,1,,,,,,,,,,,,,,,,,,,,,,,,,,,,,,,,,,,,,,,
,,,,,,,,2023-08-16_08h47.06.060,HF_wild_card,2022.2.4,Win32,60.59504333,6060b2cead1daacd69adb31f,64d2fd46c836a06233681665,64dc7eedad91d76cb42eb0fc,,,,,,,ctch,resources/DR.BMP,resources/DB.BMP,Door3,0.319444444,-0.013888889,1,0,0,0.9459,optionRight,70,14805,7,2,0,2,0,1,,,,,,,,,,,,,,,,,,,,,,,,,,,,,,,,,,,,,,,
,,,,,,,,2023-08-16_08h47.06.060,HF_wild_card,2022.2.4,Win32,60.59504333,6060b2cead1daacd69adb31f,64d2fd46c836a06233681665,64dc7eedad91d76cb42eb0fc,,,,,,,decisionTrl,resources/DB.BMP,resources/DG.BMP,Door3,-0.347222222,-0.017592607,1,0,0,1.1943,optionLeft,70,14875,7,3,0,3,0,1,,,,,,,,,,,,,,,,,,,,,,,,,,,,,,,,,,,,,,,
,,,,,,,,2023-08-16_08h47.06.060,HF_wild_card,2022.2.4,Win32,60.59504333,6060b2cead1daacd69adb31f,64d2fd46c836a06233681665,64dc7eedad91d76cb42eb0fc,,,,,,,decisionTrl,resources/DBN.BMP,resources/DR.BMP,Door1,-0.29351849,-0.01666666,1,0,0,1.5116,optionLeft,30,14905,7,4,0,4,0,1,,,,,,,,,,,,,,,,,,,,,,,,,,,,,,,,,,,,,,,
,,,,,,,,2023-08-16_08h47.06.060,HF_wild_card,2022.2.4,Win32,60.59504333,6060b2cead1daacd69adb31f,64d2fd46c836a06233681665,64dc7eedad91d76cb42eb0fc,,,,,,,ctch,resources/DBN.BMP,resources/DG.BMP,Door4,0.3648149,-0.025000007,1,0,0,0.7963,optionRight,80,14985,7,5,0,5,0,1,,,,,,,,,,,,,,,,,,,,,,,,,,,,,,,,,,,,,,,
,,,,,,,,2023-08-16_08h47.06.060,HF_wild_card,2022.2.4,Win32,60.59504333,6060b2cead1daacd69adb31f,64d2fd46c836a06233681665,64dc7eedad91d76cb42eb0fc,,,,,,,ctch,resources/DB.BMP,resources/DR.BMP,Door3,-0.357407393,-0.022222236,1,0,0,0.8133,optionLeft,70,15055,7,6,0,6,0,1,,,,,,,,,,,,,,,,,,,,,,,,,,,,,,,,,,,,,,,
,,,,,,,,2023-08-16_08h47.06.060,HF_wild_card,2022.2.4,Win32,60.59504333,6060b2cead1daacd69adb31f,64d2fd46c836a06233681665,64dc7eedad91d76cb42eb0fc,,,,,,,decisionTrl,resources/DR.BMP,resources/DBN.BMP,Door1,0.387037065,-0.014814836,1,0,0,1.2128,optionRight,30,15085,7,7,0,7,0,1,,,,,,,,,,,,,,,,,,,,,,,,,,,,,,,,,,,,,,,
,,,,,,,,2023-08-16_08h47.06.060,HF_wild_card,2022.2.4,Win32,60.59504333,6060b2cead1daacd69adb31f,64d2fd46c836a06233681665,64dc7eedad91d76cb42eb0fc,,,,,,,decisionTrl,resources/DR.BMP,resources/DBN.BMP,Door1,0.318518603,0.010185171,1,0,0,0.9638,optionRight,30,15115,7,8,0,8,0,1,,,,,,,,,,,,,,,,,,,,,,,,,,,,,,,,,,,,,,,
,,,,,,,,2023-08-16_08h47.06.060,HF_wild_card,2022.2.4,Win32,60.59504333,6060b2cead1daacd69adb31f,64d2fd46c836a06233681665,64dc7eedad91d76cb42eb0fc,,,,,,,decisionTrl,resources/DB.BMP,resources/DG.BMP,Door3,-0.38703703,-0.020370377,1,0,0,0.8966,optionLeft,70,15185,7,9,0,9,0,1,,,,,,,,,,,,,,,,,,,,,,,,,,,,,,,,,,,,,,,
,,,,,,,,2023-08-16_08h47.06.060,HF_wild_card,2022.2.4,Win32,60.59504333,6060b2cead1daacd69adb31f,64d2fd46c836a06233681665,64dc7eedad91d76cb42eb0fc,,,,,,,decisionTrl,resources/DB.BMP,resources/DG.BMP,Door3,-0.311111097,-0.013888889,1,0,0,0.6976,optionLeft,70,15255,7,10,0,10,0,1,,,,,,,,,,,,,,,,,,,,,,,,,,,,,,,,,,,,,,,
,,,,,,,,2023-08-16_08h47.06.060,HF_wild_card,2022.2.4,Win32,60.59504333,6060b2cead1daacd69adb31f,64d2fd46c836a06233681665,64dc7eedad91d76cb42eb0fc,,,,,,,ctch,resources/DBN.BMP,resources/DG.BMP,Door4,0.329629686,-0.012962977,1,0,0,1.0632,optionRight,60,15315,7,11,0,11,0,1,,,,,,,,,,,,,,,,,,,,,,,,,,,,,,,,,,,,,,,
,,,,,,,,2023-08-16_08h47.06.060,HF_wild_card,2022.2.4,Win32,60.59504333,6060b2cead1daacd69adb31f,64d2fd46c836a06233681665,64dc7eedad91d76cb42eb0fc,,,,,,,decisionTrl,resources/DG.BMP,resources/DB.BMP,Door3,0.412037037,0.006481489,1,0,0,0.9111,optionRight,70,15385,7,12,0,12,0,1,,,,,,,,,,,,,,,,,,,,,,,,,,,,,,,,,,,,,,,
,,,,,,,,2023-08-16_08h47.06.060,HF_wild_card,2022.2.4,Win32,60.59504333,6060b2cead1daacd69adb31f,64d2fd46c836a06233681665,64dc7eedad91d76cb42eb0fc,,,,,,,decisionTrl,resources/DB.BMP,resources/DG.BMP,Door3,-0.284259231,0.010185171,1,0,0,0.8793,optionLeft,70,15455,7,13,0,13,0,1,,,,,,,,,,,,,,,,,,,,,,,,,,,,,,,,,,,,,,,
,,,,,,,,2023-08-16_08h47.06.060,HF_wild_card,2022.2.4,Win32,60.59504333,6060b2cead1daacd69adb31f,64d2fd46c836a06233681665,64dc7eedad91d76cb42eb0fc,,,,,,,ctch,resources/DG.BMP,resources/DBN.BMP,Door4,-0.201851809,0.001851859,1,0,0,0.9615,optionLeft,80,15535,7,14,0,14,0,1,,,,,,,,,,,,,,,,,,,,,,,,,,,,,,,,,,,,,,,
,,,,,,,,2023-08-16_08h47.06.060,HF_wild_card,2022.2.4,Win32,60.59504333,6060b2cead1daacd69adb31f,64d2fd46c836a06233681665,64dc7eedad91d76cb42eb0fc,,,,,,,ctch,resources/DR.BMP,resources/DB.BMP,Door3,0.329629686,0.009259259,1,0,0,1.7779,optionRight,70,15605,7,15,0,15,0,1,,,,,,,,,,,,,,,,,,,,,,,,,,,,,,,,,,,,,,,
,,,,,,,,2023-08-16_08h47.06.060,HF_wild_card,2022.2.4,Win32,60.59504333,6060b2cead1daacd69adb31f,64d2fd46c836a06233681665,64dc7eedad91d76cb42eb0fc,,,,,,,decisionTrl,resources/DR.BMP,resources/DBN.BMP,Door1,0.42314812,0.025925919,1,0,0,1.7119,optionRight,30,15635,7,16,0,16,0,1,,,,,,,,,,,,,,,,,,,,,,,,,,,,,,,,,,,,,,,
,,,,,,,,2023-08-16_08h47.06.060,HF_wild_card,2022.2.4,Win32,60.59504333,6060b2cead1daacd69adb31f,64d2fd46c836a06233681665,64dc7eedad91d76cb42eb0fc,,,,,,,ctch,resources/DB.BMP,resources/DR.BMP,Door3,-0.362037023,0.023148148,1,0,0,1.0454,optionLeft,70,15705,7,17,0,17,0,1,,,,,,,,,,,,,,,,,,,,,,,,,,,,,,,,,,,,,,,
,,,,,,,,2023-08-16_08h47.06.060,HF_wild_card,2022.2.4,Win32,60.59504333,6060b2cead1daacd69adb31f,64d2fd46c836a06233681665,64dc7eedad91d76cb42eb0fc,,,,,,,ctch,resources/DG.BMP,resources/DBN.BMP,Door4,-0.468518504,0.074999986,1,0,0,0.7979,optionLeft,80,15785,7,18,0,18,0,1,,,,,,,,,,,,,,,,,,,,,,,,,,,,,,,,,,,,,,,
,,,,,,,,2023-08-16_08h47.06.060,HF_wild_card,2022.2.4,Win32,60.59504333,6060b2cead1daacd69adb31f,64d2fd46c836a06233681665,64dc7eedad91d76cb42eb0fc,,,,,,,decisionTrl,resources/DR.BMP,resources/DBN.BMP,Door1,0.441666638,0.051851838,1,0,0,2.1432,optionRight,30,15815,7,19,0,19,0,1,,,,,,,,,,,,,,,,,,,,,,,,,,,,,,,,,,,,,,,
,,,,,,,,2023-08-16_08h47.06.060,HF_wild_card,2022.2.4,Win32,60.59504333,6060b2cead1daacd69adb31f,64d2fd46c836a06233681665,64dc7eedad91d76cb42eb0fc,,,,,,,decisionTrl,resources/DBN.BMP,resources/DR.BMP,Door1,-0.3824074,0.073148127,1,0,0,1.7287,optionLeft,30,15845,7,20,0,20,0,1,,,,,,,,,,,,,,,,,,,,,,,,,,,,,,,,,,,,,,,
,,,,,,,,2023-08-16_08h47.06.060,HF_wild_card,2022.2.4,Win32,60.59504333,6060b2cead1daacd69adb31f,64d2fd46c836a06233681665,64dc7eedad91d76cb42eb0fc,,,,,,,decisionTrl,resources/DG.BMP,resources/DB.BMP,Door3,0.371296353,0.065740727,1,0,0,0.9131,optionRight,70,15915,7,21,0,21,0,1,,,,,,,,,,,,,,,,,,,,,,,,,,,,,,,,,,,,,,,
,,,,,,,,2023-08-16_08h47.06.060,HF_wild_card,2022.2.4,Win32,60.59504333,6060b2cead1daacd69adb31f,64d2fd46c836a06233681665,64dc7eedad91d76cb42eb0fc,,,,,,,ctch,resources/DG.BMP,resources/DBN.BMP,Door4,-0.282407407,0.059259238,1,0,0,0.9305,optionLeft,60,15975,7,22,0,22,0,1,,,,,,,,,,,,,,,,,,,,,,,,,,,,,,,,,,,,,,,
,,,,,,,,2023-08-16_08h47.06.060,HF_wild_card,2022.2.4,Win32,60.59504333,6060b2cead1daacd69adb31f,64d2fd46c836a06233681665,64dc7eedad91d76cb42eb0fc,,,,,,,decisionTrl,resources/DG.BMP,resources/DB.BMP,Door3,0.362962935,0.068518497,1,0,0,0.7801,optionRight,70,16045,7,23,0,23,0,1,,,,,,,,,,,,,,,,,,,,,,,,,,,,,,,,,,,,,,,
,,,,,,,,2023-08-16_08h47.06.060,HF_wild_card,2022.2.4,Win32,60.59504333,6060b2cead1daacd69adb31f,64d2fd46c836a06233681665,64dc7eedad91d76cb42eb0fc,,,,,,,ctch,resources/DBN.BMP,resources/DG.BMP,Door4,0.368518547,0.085185192,1,0,0,0.7128,optionRight,80,16125,7,24,0,24,0,1,,,,,,,,,,,,,,,,,,,,,,,,,,,,,,,,,,,,,,,
,,,,,,,,2023-08-16_08h47.06.060,HF_wild_card,2022.2.4,Win32,60.59504333,6060b2cead1daacd69adb31f,64d2fd46c836a06233681665,64dc7eedad91d76cb42eb0fc,,,,,,,decisionTrl,resources/DBN.BMP,resources/DR.BMP,Door1,-0.247222194,0.106481481,1,0,0,1.1964,optionLeft,30,16155,7,25,0,25,0,1,,,,,,,,,,,,,,,,,,,,,,,,,,,,,,,,,,,,,,,
,,,,,,,,2023-08-16_08h47.06.060,HF_wild_card,2022.2.4,Win32,60.59504333,6060b2cead1daacd69adb31f,64d2fd46c836a06233681665,64dc7eedad91d76cb42eb0fc,,,,,,,decisionTrl,resources/DBN.BMP,resources/DR.BMP,Door1,-0.323148127,0.135185171,1,0,0,0.9972,optionLeft,30,16185,7,26,0,26,0,1,,,,,,,,,,,,,,,,,,,,,,,,,,,,,,,,,,,,,,,
,,,,,,,,2023-08-16_08h47.06.060,HF_wild_card,2022.2.4,Win32,60.59504333,6060b2cead1daacd69adb31f,64d2fd46c836a06233681665,64dc7eedad91d76cb42eb0fc,,,,,,,ctch,resources/DB.BMP,resources/DR.BMP,Door3,-0.499074053,0.112037023,1,0,0,1.0964,optionLeft,70,16255,7,27,0,27,0,1,,,,,,,,,,,,,,,,,,,,,,,,,,,,,,,,,,,,,,,
,,,,,,,,2023-08-16_08h47.06.060,HF_wild_card,2022.2.4,Win32,60.59504333,6060b2cead1daacd69adb31f,64d2fd46c836a06233681665,64dc7eedad91d76cb42eb0fc,,,,,,,decisionTrl,resources/DG.BMP,resources/DB.BMP,Door3,0.340740769,0.099999993,1,0,0,1.4462,optionRight,70,16325,7,28,0,28,0,1,,,,,,,,,,,,,,,,,,,,,,,,,,,,,,,,,,,,,,,
,,,,,,,,2023-08-16_08h47.06.060,HF_wild_card,2022.2.4,Win32,60.59504333,6060b2cead1daacd69adb31f,64d2fd46c836a06233681665,64dc7eedad91d76cb42eb0fc,,,,,,,decisionTrl,resources/DB.BMP,resources/DG.BMP,Door3,-0.29351849,0.105555534,1,0,0,0.8635,optionLeft,70,16395,7,29,0,29,0,1,,,,,,,,,,,,,,,,,,,,,,,,,,,,,,,,,,,,,,,
,,,,,,,,2023-08-16_08h47.06.060,HF_wild_card,2022.2.4,Win32,60.59504333,6060b2cead1daacd69adb31f,64d2fd46c836a06233681665,64dc7eedad91d76cb42eb0fc,,,,,,,decisionTrl,resources/DB.BMP,resources/DG.BMP,Door3,-0.267592607,0.133333312,1,0,0,0.7801,optionLeft,70,16465,7,30,0,30,0,1,,,,,,,,,,,,,,,,,,,,,,,,,,,,,,,,,,,,,,,
,,,,,,,,2023-08-16_08h47.06.060,HF_wild_card,2022.2.4,Win32,60.59504333,6060b2cead1daacd69adb31f,64d2fd46c836a06233681665,64dc7eedad91d76cb42eb0fc,,,,,,,decisionTrl,resources/DG.BMP,resources/DB.BMP,Door3,0.442592621,0.078703704,1,0,0,0.8299,optionRight,70,16535,7,31,0,31,0,1,,,,,,,,,,,,,,,,,,,,,,,,,,,,,,,,,,,,,,,
,,,,,,,,2023-08-16_08h47.06.060,HF_wild_card,2022.2.4,Win32,60.59504333,6060b2cead1daacd69adb31f,64d2fd46c836a06233681665,64dc7eedad91d76cb42eb0fc,,,,,,,ctch,resources/DR.BMP,resources/DB.BMP,Door3,0.399074131,0.030555548,1,0,0,0.8124,optionRight,70,16605,7,32,0,32,0,1,,,,,,,,,,,,,,,,,,,,,,,,,,,,,,,,,,,,,,,
,,,,,,,,2023-08-16_08h47.06.060,HF_wild_card,2022.2.4,Win32,60.59504333,6060b2cead1daacd69adb31f,64d2fd46c836a06233681665,64dc7eedad91d76cb42eb0fc,,,,,,,decisionTrl,resources/DR.BMP,resources/DBN.BMP,Door1,0.323148233,0.090740734,1,0,0,1.2128,optionRight,30,16635,7,33,0,33,0,1,,,,,,,,,,,,,,,,,,,,,,,,,,,,,,,,,,,,,,,
,,,,,,,,2023-08-16_08h47.06.060,HF_wild_card,2022.2.4,Win32,60.59504333,6060b2cead1daacd69adb31f,64d2fd46c836a06233681665,64dc7eedad91d76cb42eb0fc,,,,,,,decisionTrl,resources/DG.BMP,resources/DB.BMP,Door3,0.37037037,0.046296296,1,0,0,0.7789,optionRight,70,16705,7,34,0,34,0,1,,,,,,,,,,,,,,,,,,,,,,,,,,,,,,,,,,,,,,,
,,,,,,,,2023-08-16_08h47.06.060,HF_wild_card,2022.2.4,Win32,60.59504333,6060b2cead1daacd69adb31f,64d2fd46c836a06233681665,64dc7eedad91d76cb42eb0fc,,,,,,,decisionTrl,resources/DR.BMP,resources/DBN.BMP,Door2,-0.237962935,0.009259259,1,0,0,1.3958,optionLeft,40,16745,7,35,0,35,0,1,,,,,,,,,,,,,,,,,,,,,,,,,,,,,,,,,,,,,,,
,,,,,,,,2023-08-16_08h47.06.060,HF_wild_card,2022.2.4,Win32,60.59504333,6060b2cead1daacd69adb31f,64d2fd46c836a06233681665,64dc7eedad91d76cb42eb0fc,,,,,,,,,,,,,,,,,,,,,,,,,,6,0,6,0,1,,,,,,,,,,,,,,,,,,,,,,,,,,,,,,,,,,
,,,,,,,,2023-08-16_08h47.06.060,HF_wild_card,2022.2.4,Win32,60.59504333,6060b2cead1daacd69adb31f,64d2fd46c836a06233681665,64dc7eedad91d76cb42eb0fc,,,,,,,,,,,,,,,,,,,,,,,,,,,,,,,4,,,,,,,,,,,,,,,,,,,,,,,,,,,,,,,,,
,,,,,,,,2023-08-16_08h47.06.060,HF_wild_card,2022.2.4,Win32,60.59504333,6060b2cead1daacd69adb31f,64d2fd46c836a06233681665,64dc7eedad91d76cb42eb0fc,,,,,,,,,,,,,,,,,,,,,,,,,,,,,,,,,,,,,,,,,,,,,,,,,,,,,,,,,,,,,,,,
,,,,,,,,2023-08-16_08h47.06.060,HF_wild_card,2022.2.4,Win32,60.59504333,6060b2cead1daacd69adb31f,64d2fd46c836a06233681665,64dc7eedad91d76cb42eb0fc,,,,,,,,,,,,,,,,,,,,,,,,,,,,,,,,40,Door2,resources/DR.BMP,0,0,0,0,1,,,,,,,,,,,,,,,,,,,,,,,,,
,,,,,,,,2023-08-16_08h47.06.060,HF_wild_card,2022.2.4,Win32,60.59504333,6060b2cead1daacd69adb31f,64d2fd46c836a06233681665,64dc7eedad91d76cb42eb0fc,,,,,,,,,,,,,,,,,,,,,,,,,,,,,,,,30,Door1,resources/DBN.BMP,1,0,1,0,1,,,,,,,,,,,,,,,,,,,,,,,,,
,,,,,,,,2023-08-16_08h47.06.060,HF_wild_card,2022.2.4,Win32,60.59504333,6060b2cead1daacd69adb31f,64d2fd46c836a06233681665,64dc7eedad91d76cb42eb0fc,,,,,,,,,,,,,,,,,,,,,,,,,,,,,,,,95,WC_extreme,resources/DY.BMP,2,0,2,0,1,,,,,,,,,,,,,,,,,,,,,,,,,
,,,,,,,,2023-08-16_08h47.06.060,HF_wild_card,2022.2.4,Win32,60.59504333,6060b2cead1daacd69adb31f,64d2fd46c836a06233681665,64dc7eedad91d76cb42eb0fc,,,,,,,,,,,,,,,,,,,,,,,,,,,,,,,,70,Door3,resources/DB.BMP,3,0,3,0,1,,,,,,,,,,,,,,,,,,,,,,,,,
,,,,,,,,2023-08-16_08h47.06.060,HF_wild_card,2022.2.4,Win32,60.59504333,6060b2cead1daacd69adb31f,64d2fd46c836a06233681665,64dc7eedad91d76cb42eb0fc,,,,,,,,,,,,,,,,,,,,,,,,,,,,,,,,60,Door4,resources/DG.BMP,4,0,4,0,1,,,,,,,,,,,,,,,,,,,,,,,,,
,,,,,,,,2023-08-16_08h47.06.060,HF_wild_card,2022.2.4,Win32,60.59504333,6060b2cead1daacd69adb31f,64d2fd46c836a06233681665,64dc7eedad91d76cb42eb0fc,,,,,,,,,,,,,,,,,,,,,,,,,,,,,,,,45,WC_nonExtreme,resources/DP.BMP,5,0,5,0,1,,,,,,,,,,,,,,,,,,,,,,,,,
,,,,,,,,2023-08-16_08h47.06.060,HF_wild_card,2022.2.4,Win32,60.59504333,6060b2cead1daacd69adb31f,64d2fd46c836a06233681665,64dc7eedad91d76cb42eb0fc,,,,,,,,,,,,,,,,,,,,,,,,,,,,,,,,,,,,,,,,,,,,,,,,,,,,,,,,,,,,,,,,
,,,,,,,,2023-08-16_08h47.06.060,HF_wild_card,2022.2.4,Win32,60.59504333,6060b2cead1daacd69adb31f,64d2fd46c836a06233681665,64dc7eedad91d76cb42eb0fc,,,,,,,,,,,,,,,,,,,,,,,,,,,,,,,,,,,,,,,,0,0,0,0,1,,,,,,,,,,,,,,,,,,,,
