Condition,Low fixed image (Door1),Low risky image (Door2),High fixed image (Door3),High risky image (Door4),Extreme Wild Card,NonExtreme Wild Card,,date,expName,psychopyVersion,OS,frameRate,PROLIFIC_PID,STUDY_ID,SESSION_ID,mouse_2.x,mouse_2.y,mouse_2.leftButton,mouse_2.midButton,mouse_2.rightButton,mouse_2.clicked_name,Trial Type,Left Option Image,Right Option Image,Chosen Door,mouse.x,mouse.y,mouse.leftButton,mouse.midButton,mouse.rightButton,mouse.time,mouse.clicked_name,Feedback,Cumulative Reward,Block,trial.thisRepN,trial.thisTrialN,trial.thisN,trial.thisIndex,trial.ran,blocks.thisRepN,blocks.thisTrialN,blocks.thisN,blocks.thisIndex,blocks.ran,Money conversion,First Outcome Reported,Shown Door (First Outcome),Displayed Image (First Outcome),outcomes.thisRepN,outcomes.thisTrialN,outcomes.thisN,outcomes.thisIndex,outcomes.ran,judgments.thisRepN,judgments.thisTrialN,judgments.thisN,judgments.thisIndex,judgments.ran,freqMouse.x,freqMouse.y,freqMouse.leftButton,freqMouse.midButton,freqMouse.rightButton,freqMouse.clicked_name,FQJ for first outcome,FQJ for second outcome,Shown Door,Displayed Image,trials.thisRepN,trials.thisTrialN,trials.thisN,trials.thisIndex,trials.ran,judgBlock.thisRepN,judgBlock.thisTrialN,judgBlock.thisN,judgBlock.thisIndex,judgBlock.ran
1,resources/DB.BMP,resources/DG.BMP,resources/DBN.BMP,resources/DR.BMP,resources/DY.BMP,resources/DP.BMP,,2023-08-16_08h37.57.234,HF_wild_card,2022.2.4,Linux x86_64,60.06006006,62729ff6b6e5922c7cc5f2dd,64d2fd46c836a06233681665,64dc7cc11d0cef07606f0a3c,,,,,,,,,,,,,,,,,,,,,,,,,,,,,,,,,,,,,,,,,,,,,,,,,,,,,,,,,,,,,,,,
,,,,,,,,2023-08-16_08h37.57.234,HF_wild_card,2022.2.4,Linux x86_64,60.06006006,62729ff6b6e5922c7cc5f2dd,64d2fd46c836a06233681665,64dc7cc11d0cef07606f0a3c,-0.002639294,-0.427635431,1,0,0,agree,,,,,,,,,,,,,,,,,,,,,,,,,,,,,,,,,,,,,,,,,,,,,,,,,,,,,,,,,,
,,,,,,,,2023-08-16_08h37.57.234,HF_wild_card,2022.2.4,Linux x86_64,60.06006006,62729ff6b6e5922c7cc5f2dd,64d2fd46c836a06233681665,64dc7cc11d0cef07606f0a3c,,,,,,,,,,,,,,,,,,,,,,,,,,,,,,,,,,,,,,,,,,,,,,,,,,,,,,,,,,,,,,,,
,,,,,,,,2023-08-16_08h37.57.234,HF_wild_card,2022.2.4,Linux x86_64,60.06006006,62729ff6b6e5922c7cc5f2dd,64d2fd46c836a06233681665,64dc7cc11d0cef07606f0a3c,,,,,,,ctch,resources/DR.BMP,resources/DB.BMP,Door4,-0.395510872,-0.097887834,1,0,0,7.8207,optionLeft,80,80,1,0,0,0,0,1,,,,,,,,,,,,,,,,,,,,,,,,,,,,,,,,,,,,,,,
,,,,,,,,2023-08-16_08h37.57.234,HF_wild_card,2022.2.4,Linux x86_64,60.06006006,62729ff6b6e5922c7cc5f2dd,64d2fd46c836a06233681665,64dc7cc11d0cef07606f0a3c,,,,,,,sngl,resources/Empty.png,resources/DR.BMP,Door4,0.399492025,-0.0713528,1,0,0,1.7585,optionRight,60,140,1,1,0,1,0,1,,,,,,,,,,,,,,,,,,,,,,,,,,,,,,,,,,,,,,,
,,,,,,,,2023-08-16_08h37.57.234,HF_wild_card,2022.2.4,Linux x86_64,60.06006006,62729ff6b6e5922c7cc5f2dd,64d2fd46c836a06233681665,64dc7cc11d0cef07606f0a3c,,,,,,,sngl,resources/DB.BMP,resources/Empty.png,Door1,-0.400749405,-0.038256605,1,0,0,1.6722,optionLeft,30,170,1,2,0,2,0,1,,,,,,,,,,,,,,,,,,,,,,,,,,,,,,,,,,,,,,,
,,,,,,,,2023-08-16_08h37.57.234,HF_wild_card,2022.2.4,Linux x86_64,60.06006006,62729ff6b6e5922c7cc5f2dd,64d2fd46c836a06233681665,64dc7cc11d0cef07606f0a3c,,,,,,,ctch,resources/DG.BMP,resources/DBN.BMP,Door3,0.386120955,-0.041490396,1,0,0,2.3562,optionRight,70,240,1,3,0,3,0,1,,,,,,,,,,,,,,,,,,,,,,,,,,,,,,,,,,,,,,,
,,,,,,,,2023-08-16_08h37.57.234,HF_wild_card,2022.2.4,Linux x86_64,60.06006006,62729ff6b6e5922c7cc5f2dd,64d2fd46c836a06233681665,64dc7cc11d0cef07606f0a3c,,,,,,,ctch,resources/DB.BMP,resources/DR.BMP,Door4,0.388196548,-0.083593567,1,0,0,5.2862,optionRight,80,320,1,4,0,4,0,1,,,,,,,,,,,,,,,,,,,,,,,,,,,,,,,,,,,,,,,
,,,,,,,,2023-08-16_08h37.57.234,HF_wild_card,2022.2.4,Linux x86_64,60.06006006,62729ff6b6e5922c7cc5f2dd,64d2fd46c836a06233681665,64dc7cc11d0cef07606f0a3c,,,,,,,decisionTrl,resources/DR.BMP,resources/DBN.BMP,Door3,0.358573198,-0.065751632,1,0,0,2.6743,optionRight,70,390,1,5,0,5,0,1,,,,,,,,,,,,,,,,,,,,,,,,,,,,,,,,,,,,,,,
,,,,,,,,2023-08-16_08h37.57.234,HF_wild_card,2022.2.4,Linux x86_64,60.06006006,62729ff6b6e5922c7cc5f2dd,64d2fd46c836a06233681665,64dc7cc11d0cef07606f0a3c,,,,,,,decisionTrl,resources/DG.BMP,resources/DB.BMP,Door1,0.384850661,-0.041249911,1,0,0,3.4237,optionRight,30,420,1,6,0,6,0,1,,,,,,,,,,,,,,,,,,,,,,,,,,,,,,,,,,,,,,,
,,,,,,,,2023-08-16_08h37.57.234,HF_wild_card,2022.2.4,Linux x86_64,60.06006006,62729ff6b6e5922c7cc5f2dd,64d2fd46c836a06233681665,64dc7cc11d0cef07606f0a3c,,,,,,,decisionTrl,resources/DR.BMP,resources/DBN.BMP,Door3,0.446848869,-0.02430594,1,0,0,2.3054,optionRight,70,490,1,7,0,7,0,1,,,,,,,,,,,,,,,,,,,,,,,,,,,,,,,,,,,,,,,
,,,,,,,,2023-08-16_08h37.57.234,HF_wild_card,2022.2.4,Linux x86_64,60.06006006,62729ff6b6e5922c7cc5f2dd,64d2fd46c836a06233681665,64dc7cc11d0cef07606f0a3c,,,,,,,sngl,resources/DBN.BMP,resources/Empty.png,Door3,-0.40097932,-0.055016796,1,0,0,1.3038,optionLeft,70,560,1,8,0,8,0,1,,,,,,,,,,,,,,,,,,,,,,,,,,,,,,,,,,,,,,,
,,,,,,,,2023-08-16_08h37.57.234,HF_wild_card,2022.2.4,Linux x86_64,60.06006006,62729ff6b6e5922c7cc5f2dd,64d2fd46c836a06233681665,64dc7cc11d0cef07606f0a3c,,,,,,,decisionTrl,resources/DB.BMP,resources/DG.BMP,Door2,0.415066878,-0.002372861,1,0,0,1.9503,optionRight,20,580,1,9,0,9,0,1,,,,,,,,,,,,,,,,,,,,,,,,,,,,,,,,,,,,,,,
,,,,,,,,2023-08-16_08h37.57.234,HF_wild_card,2022.2.4,Linux x86_64,60.06006006,62729ff6b6e5922c7cc5f2dd,64d2fd46c836a06233681665,64dc7cc11d0cef07606f0a3c,,,,,,,sngl,resources/Empty.png,resources/DP.BMP,WildCard_NonEx,0.308147907,-0.068223079,1,0,0,1.2908,optionRight,55,635,1,10,0,10,0,1,,,,,,,,,,,,,,,,,,,,,,,,,,,,,,,,,,,,,,,
,,,,,,,,2023-08-16_08h37.57.234,HF_wild_card,2022.2.4,Linux x86_64,60.06006006,62729ff6b6e5922c7cc5f2dd,64d2fd46c836a06233681665,64dc7cc11d0cef07606f0a3c,,,,,,,decisionTrl,resources/DR.BMP,resources/DBN.BMP,Door4,-0.449960868,-0.027766188,1,0,0,1.403,optionLeft,80,715,1,11,0,11,0,1,,,,,,,,,,,,,,,,,,,,,,,,,,,,,,,,,,,,,,,
,,,,,,,,2023-08-16_08h37.57.234,HF_wild_card,2022.2.4,Linux x86_64,60.06006006,62729ff6b6e5922c7cc5f2dd,64d2fd46c836a06233681665,64dc7cc11d0cef07606f0a3c,,,,,,,decisionTrl,resources/DG.BMP,resources/DB.BMP,Door1,0.35858353,-0.038843234,1,0,0,3.135,optionRight,30,745,1,12,0,12,0,1,,,,,,,,,,,,,,,,,,,,,,,,,,,,,,,,,,,,,,,
,,,,,,,,2023-08-16_08h37.57.234,HF_wild_card,2022.2.4,Linux x86_64,60.06006006,62729ff6b6e5922c7cc5f2dd,64d2fd46c836a06233681665,64dc7cc11d0cef07606f0a3c,,,,,,,decisionTrl,resources/DB.BMP,resources/DP.BMP,WildCard_NonEx,0.384883006,-0.060532173,1,0,0,1.4217,optionRight,45,790,1,13,0,13,0,1,,,,,,,,,,,,,,,,,,,,,,,,,,,,,,,,,,,,,,,
,,,,,,,,2023-08-16_08h37.57.234,HF_wild_card,2022.2.4,Linux x86_64,60.06006006,62729ff6b6e5922c7cc5f2dd,64d2fd46c836a06233681665,64dc7cc11d0cef07606f0a3c,,,,,,,decisionTrl,resources/DB.BMP,resources/DG.BMP,Door1,-0.391252438,-0.072486202,1,0,0,1.5778,optionLeft,30,820,1,14,0,14,0,1,,,,,,,,,,,,,,,,,,,,,,,,,,,,,,,,,,,,,,,
,,,,,,,,2023-08-16_08h37.57.234,HF_wild_card,2022.2.4,Linux x86_64,60.06006006,62729ff6b6e5922c7cc5f2dd,64d2fd46c836a06233681665,64dc7cc11d0cef07606f0a3c,,,,,,,ctch,resources/DBN.BMP,resources/DG.BMP,Door3,-0.321221749,-0.035803835,1,0,0,1.6401,optionLeft,70,890,1,15,0,15,0,1,,,,,,,,,,,,,,,,,,,,,,,,,,,,,,,,,,,,,,,
,,,,,,,,2023-08-16_08h37.57.234,HF_wild_card,2022.2.4,Linux x86_64,60.06006006,62729ff6b6e5922c7cc5f2dd,64d2fd46c836a06233681665,64dc7cc11d0cef07606f0a3c,,,,,,,decisionTrl,resources/DG.BMP,resources/DP.BMP,WildCard_NonEx,0.364952008,-0.061014374,1,0,0,1.6961,optionRight,45,935,1,16,0,16,0,1,,,,,,,,,,,,,,,,,,,,,,,,,,,,,,,,,,,,,,,
,,,,,,,,2023-08-16_08h37.57.234,HF_wild_card,2022.2.4,Linux x86_64,60.06006006,62729ff6b6e5922c7cc5f2dd,64d2fd46c836a06233681665,64dc7cc11d0cef07606f0a3c,,,,,,,decisionTrl,resources/DG.BMP,resources/DB.BMP,Door1,0.412607431,-0.042878707,1,0,0,1.8582,optionRight,30,965,1,17,0,17,0,1,,,,,,,,,,,,,,,,,,,,,,,,,,,,,,,,,,,,,,,
,,,,,,,,2023-08-16_08h37.57.234,HF_wild_card,2022.2.4,Linux x86_64,60.06006006,62729ff6b6e5922c7cc5f2dd,64d2fd46c836a06233681665,64dc7cc11d0cef07606f0a3c,,,,,,,decisionTrl,resources/DG.BMP,resources/DB.BMP,Door1,0.378874222,-0.037262082,1,0,0,1.2224,optionRight,30,995,1,18,0,18,0,1,,,,,,,,,,,,,,,,,,,,,,,,,,,,,,,,,,,,,,,
,,,,,,,,2023-08-16_08h37.57.234,HF_wild_card,2022.2.4,Linux x86_64,60.06006006,62729ff6b6e5922c7cc5f2dd,64d2fd46c836a06233681665,64dc7cc11d0cef07606f0a3c,,,,,,,decisionTrl,resources/DP.BMP,resources/DBN.BMP,Door3,0.392390251,-0.037170291,1,0,0,1.3338,optionRight,70,1065,1,19,0,19,0,1,,,,,,,,,,,,,,,,,,,,,,,,,,,,,,,,,,,,,,,
,,,,,,,,2023-08-16_08h37.57.234,HF_wild_card,2022.2.4,Linux x86_64,60.06006006,62729ff6b6e5922c7cc5f2dd,64d2fd46c836a06233681665,64dc7cc11d0cef07606f0a3c,,,,,,,decisionTrl,resources/DBN.BMP,resources/DR.BMP,Door3,-0.426965038,-0.021942973,1,0,0,1.9893,optionLeft,70,1135,1,20,0,20,0,1,,,,,,,,,,,,,,,,,,,,,,,,,,,,,,,,,,,,,,,
,,,,,,,,2023-08-16_08h37.57.234,HF_wild_card,2022.2.4,Linux x86_64,60.06006006,62729ff6b6e5922c7cc5f2dd,64d2fd46c836a06233681665,64dc7cc11d0cef07606f0a3c,,,,,,,sngl,resources/Empty.png,resources/DG.BMP,Door2,0.365954558,-0.042018731,1,0,0,1.1905,optionRight,20,1155,1,21,0,21,0,1,,,,,,,,,,,,,,,,,,,,,,,,,,,,,,,,,,,,,,,
,,,,,,,,2023-08-16_08h37.57.234,HF_wild_card,2022.2.4,Linux x86_64,60.06006006,62729ff6b6e5922c7cc5f2dd,64d2fd46c836a06233681665,64dc7cc11d0cef07606f0a3c,,,,,,,decisionTrl,resources/DBN.BMP,resources/DP.BMP,Door3,-0.409014225,-0.011151075,1,0,0,1.5772,optionLeft,70,1225,1,22,0,22,0,1,,,,,,,,,,,,,,,,,,,,,,,,,,,,,,,,,,,,,,,
,,,,,,,,2023-08-16_08h37.57.234,HF_wild_card,2022.2.4,Linux x86_64,60.06006006,62729ff6b6e5922c7cc5f2dd,64d2fd46c836a06233681665,64dc7cc11d0cef07606f0a3c,,,,,,,sngl,resources/DG.BMP,resources/Empty.png,Door2,-0.363927643,-0.05246675,1,0,0,1.2554,optionLeft,40,1265,1,23,0,23,0,1,,,,,,,,,,,,,,,,,,,,,,,,,,,,,,,,,,,,,,,
,,,,,,,,2023-08-16_08h37.57.234,HF_wild_card,2022.2.4,Linux x86_64,60.06006006,62729ff6b6e5922c7cc5f2dd,64d2fd46c836a06233681665,64dc7cc11d0cef07606f0a3c,,,,,,,ctch,resources/DG.BMP,resources/DBN.BMP,Door3,0.389201244,-0.018189152,1,0,0,1.5083,optionRight,70,1335,1,24,0,24,0,1,,,,,,,,,,,,,,,,,,,,,,,,,,,,,,,,,,,,,,,
,,,,,,,,2023-08-16_08h37.57.234,HF_wild_card,2022.2.4,Linux x86_64,60.06006006,62729ff6b6e5922c7cc5f2dd,64d2fd46c836a06233681665,64dc7cc11d0cef07606f0a3c,,,,,,,decisionTrl,resources/DB.BMP,resources/DG.BMP,Door1,-0.399695992,-0.023299495,1,0,0,2.4868,optionLeft,30,1365,1,25,0,25,0,1,,,,,,,,,,,,,,,,,,,,,,,,,,,,,,,,,,,,,,,
,,,,,,,,2023-08-16_08h37.57.234,HF_wild_card,2022.2.4,Linux x86_64,60.06006006,62729ff6b6e5922c7cc5f2dd,64d2fd46c836a06233681665,64dc7cc11d0cef07606f0a3c,,,,,,,sngl,resources/DR.BMP,resources/Empty.png,Door4,-0.33940649,-0.075843771,1,0,0,1.1487,optionLeft,80,1445,1,26,0,26,0,1,,,,,,,,,,,,,,,,,,,,,,,,,,,,,,,,,,,,,,,
,,,,,,,,2023-08-16_08h37.57.234,HF_wild_card,2022.2.4,Linux x86_64,60.06006006,62729ff6b6e5922c7cc5f2dd,64d2fd46c836a06233681665,64dc7cc11d0cef07606f0a3c,,,,,,,decisionTrl,resources/DR.BMP,resources/DBN.BMP,Door4,-0.405869126,-0.028211991,1,0,0,0.9639,optionLeft,80,1525,1,27,0,27,0,1,,,,,,,,,,,,,,,,,,,,,,,,,,,,,,,,,,,,,,,
,,,,,,,,2023-08-16_08h37.57.234,HF_wild_card,2022.2.4,Linux x86_64,60.06006006,62729ff6b6e5922c7cc5f2dd,64d2fd46c836a06233681665,64dc7cc11d0cef07606f0a3c,,,,,,,ctch,resources/DB.BMP,resources/DR.BMP,Door4,0.322060188,-0.019490083,1,0,0,1.244,optionRight,80,1605,1,28,0,28,0,1,,,,,,,,,,,,,,,,,,,,,,,,,,,,,,,,,,,,,,,
,,,,,,,,2023-08-16_08h37.57.234,HF_wild_card,2022.2.4,Linux x86_64,60.06006006,62729ff6b6e5922c7cc5f2dd,64d2fd46c836a06233681665,64dc7cc11d0cef07606f0a3c,,,,,,,decisionTrl,resources/DB.BMP,resources/DG.BMP,Door1,-0.380960743,-0.052403609,1,0,0,1.7947,optionLeft,30,1635,1,29,0,29,0,1,,,,,,,,,,,,,,,,,,,,,,,,,,,,,,,,,,,,,,,
,,,,,,,,2023-08-16_08h37.57.234,HF_wild_card,2022.2.4,Linux x86_64,60.06006006,62729ff6b6e5922c7cc5f2dd,64d2fd46c836a06233681665,64dc7cc11d0cef07606f0a3c,,,,,,,ctch,resources/DR.BMP,resources/DB.BMP,Door4,-0.434189558,-0.057011406,1,0,0,1.3664,optionLeft,60,1695,1,30,0,30,0,1,,,,,,,,,,,,,,,,,,,,,,,,,,,,,,,,,,,,,,,
,,,,,,,,2023-08-16_08h37.57.234,HF_wild_card,2022.2.4,Linux x86_64,60.06006006,62729ff6b6e5922c7cc5f2dd,64d2fd46c836a06233681665,64dc7cc11d0cef07606f0a3c,,,,,,,sngl,resources/Empty.png,resources/DBN.BMP,Door3,0.361201207,-0.009322127,1,0,0,1.0997,optionRight,70,1765,1,31,0,31,0,1,,,,,,,,,,,,,,,,,,,,,,,,,,,,,,,,,,,,,,,
,,,,,,,,2023-08-16_08h37.57.234,HF_wild_card,2022.2.4,Linux x86_64,60.06006006,62729ff6b6e5922c7cc5f2dd,64d2fd46c836a06233681665,64dc7cc11d0cef07606f0a3c,,,,,,,sngl,resources/DP.BMP,resources/Empty.png,WildCard_NonEx,-0.406543136,-0.057223399,1,0,0,1.1455,optionLeft,55,1820,1,32,0,32,0,1,,,,,,,,,,,,,,,,,,,,,,,,,,,,,,,,,,,,,,,
,,,,,,,,2023-08-16_08h37.57.234,HF_wild_card,2022.2.4,Linux x86_64,60.06006006,62729ff6b6e5922c7cc5f2dd,64d2fd46c836a06233681665,64dc7cc11d0cef07606f0a3c,,,,,,,ctch,resources/DBN.BMP,resources/DG.BMP,Door3,-0.315108617,-0.032677571,1,0,0,1.5022,optionLeft,70,1890,1,33,0,33,0,1,,,,,,,,,,,,,,,,,,,,,,,,,,,,,,,,,,,,,,,
,,,,,,,,2023-08-16_08h37.57.234,HF_wild_card,2022.2.4,Linux x86_64,60.06006006,62729ff6b6e5922c7cc5f2dd,64d2fd46c836a06233681665,64dc7cc11d0cef07606f0a3c,,,,,,,sngl,resources/Empty.png,resources/DB.BMP,Door1,0.340662718,-0.037796179,1,0,0,0.9391,optionRight,30,1920,1,34,0,34,0,1,,,,,,,,,,,,,,,,,,,,,,,,,,,,,,,,,,,,,,,
,,,,,,,,2023-08-16_08h37.57.234,HF_wild_card,2022.2.4,Linux x86_64,60.06006006,62729ff6b6e5922c7cc5f2dd,64d2fd46c836a06233681665,64dc7cc11d0cef07606f0a3c,,,,,,,decisionTrl,resources/DBN.BMP,resources/DR.BMP,Door4,0.422638973,-0.034382661,1,0,0,1.9932,optionRight,80,2000,1,35,0,35,0,1,,,,,,,,,,,,,,,,,,,,,,,,,,,,,,,,,,,,,,,
,,,,,,,,2023-08-16_08h37.57.234,HF_wild_card,2022.2.4,Linux x86_64,60.06006006,62729ff6b6e5922c7cc5f2dd,64d2fd46c836a06233681665,64dc7cc11d0cef07606f0a3c,,,,,,,decisionTrl,resources/DR.BMP,resources/DP.BMP,Door4,-0.345634023,-0.065617204,1,0,0,1.0672,optionLeft,80,2080,1,36,0,36,0,1,,,,,,,,,,,,,,,,,,,,,,,,,,,,,,,,,,,,,,,
,,,,,,,,2023-08-16_08h37.57.234,HF_wild_card,2022.2.4,Linux x86_64,60.06006006,62729ff6b6e5922c7cc5f2dd,64d2fd46c836a06233681665,64dc7cc11d0cef07606f0a3c,,,,,,,sngl,resources/Empty.png,resources/DP.BMP,WildCard_NonEx,0.461037318,-0.052033106,1,0,0,0.9803,optionRight,45,2125,1,37,0,37,0,1,,,,,,,,,,,,,,,,,,,,,,,,,,,,,,,,,,,,,,,
,,,,,,,,2023-08-16_08h37.57.234,HF_wild_card,2022.2.4,Linux x86_64,60.06006006,62729ff6b6e5922c7cc5f2dd,64d2fd46c836a06233681665,64dc7cc11d0cef07606f0a3c,,,,,,,decisionTrl,resources/DP.BMP,resources/DG.BMP,WildCard_NonEx,-0.333816369,-0.068591078,1,0,0,1.42,optionLeft,45,2170,1,38,0,38,0,1,,,,,,,,,,,,,,,,,,,,,,,,,,,,,,,,,,,,,,,
,,,,,,,,2023-08-16_08h37.57.234,HF_wild_card,2022.2.4,Linux x86_64,60.06006006,62729ff6b6e5922c7cc5f2dd,64d2fd46c836a06233681665,64dc7cc11d0cef07606f0a3c,,,,,,,decisionTrl,resources/DBN.BMP,resources/DR.BMP,Door4,0.34815534,-0.065586766,1,0,0,1.2354,optionRight,60,2230,1,39,0,39,0,1,,,,,,,,,,,,,,,,,,,,,,,,,,,,,,,,,,,,,,,
,,,,,,,,2023-08-16_08h37.57.234,HF_wild_card,2022.2.4,Linux x86_64,60.06006006,62729ff6b6e5922c7cc5f2dd,64d2fd46c836a06233681665,64dc7cc11d0cef07606f0a3c,,,,,,,sngl,resources/DP.BMP,resources/Empty.png,WildCard_NonEx,-0.285846313,-0.052033146,1,0,0,1.152,optionLeft,45,2275,1,40,0,40,0,1,,,,,,,,,,,,,,,,,,,,,,,,,,,,,,,,,,,,,,,
,,,,,,,,2023-08-16_08h37.57.234,HF_wild_card,2022.2.4,Linux x86_64,60.06006006,62729ff6b6e5922c7cc5f2dd,64d2fd46c836a06233681665,64dc7cc11d0cef07606f0a3c,,,,,,,decisionTrl,resources/DP.BMP,resources/DB.BMP,WildCard_NonEx,-0.384869099,-0.046107252,1,0,0,1.9214,optionLeft,45,2320,1,41,0,41,0,1,,,,,,,,,,,,,,,,,,,,,,,,,,,,,,,,,,,,,,,
,,,,,,,,2023-08-16_08h37.57.234,HF_wild_card,2022.2.4,Linux x86_64,60.06006006,62729ff6b6e5922c7cc5f2dd,64d2fd46c836a06233681665,64dc7cc11d0cef07606f0a3c,,,,,,,decisionTrl,resources/DP.BMP,resources/DR.BMP,Door4,0.447963556,-0.038263877,1,0,0,1.2956,optionRight,60,2380,1,42,0,42,0,1,,,,,,,,,,,,,,,,,,,,,,,,,,,,,,,,,,,,,,,
,,,,,,,,2023-08-16_08h37.57.234,HF_wild_card,2022.2.4,Linux x86_64,60.06006006,62729ff6b6e5922c7cc5f2dd,64d2fd46c836a06233681665,64dc7cc11d0cef07606f0a3c,,,,,,,decisionTrl,resources/DBN.BMP,resources/DR.BMP,Door3,-0.449576735,-0.030688604,1,0,0,4.1681,optionLeft,70,2450,1,43,0,43,0,1,,,,,,,,,,,,,,,,,,,,,,,,,,,,,,,,,,,,,,,
,,,,,,,,2023-08-16_08h37.57.234,HF_wild_card,2022.2.4,Linux x86_64,60.06006006,62729ff6b6e5922c7cc5f2dd,64d2fd46c836a06233681665,64dc7cc11d0cef07606f0a3c,,,,,,,,,,,,,,,,,,,,,,,,,,0,0,0,0,1,,,,,,,,,,,,,,,,,,,,,,,,,,,,,,,,,,
,,,,,,,,2023-08-16_08h37.57.234,HF_wild_card,2022.2.4,Linux x86_64,60.06006006,62729ff6b6e5922c7cc5f2dd,64d2fd46c836a06233681665,64dc7cc11d0cef07606f0a3c,,,,,,,decisionTrl,resources/DG.BMP,resources/DB.BMP,Door1,0.331720114,-0.014021794,1,0,0,1.485,optionRight,30,2480,2,0,0,0,0,1,,,,,,,,,,,,,,,,,,,,,,,,,,,,,,,,,,,,,,,
,,,,,,,,2023-08-16_08h37.57.234,HF_wild_card,2022.2.4,Linux x86_64,60.06006006,62729ff6b6e5922c7cc5f2dd,64d2fd46c836a06233681665,64dc7cc11d0cef07606f0a3c,,,,,,,ctch,resources/DR.BMP,resources/DB.BMP,Door4,-0.502208273,-0.063786785,1,0,0,0.9531,optionLeft,60,2540,2,1,0,1,0,1,,,,,,,,,,,,,,,,,,,,,,,,,,,,,,,,,,,,,,,
,,,,,,,,2023-08-16_08h37.57.234,HF_wild_card,2022.2.4,Linux x86_64,60.06006006,62729ff6b6e5922c7cc5f2dd,64d2fd46c836a06233681665,64dc7cc11d0cef07606f0a3c,,,,,,,decisionTrl,resources/DB.BMP,resources/DP.BMP,WildCard_NonEx,0.390582641,-0.041791399,1,0,0,1.9521,optionRight,55,2595,2,2,0,2,0,1,,,,,,,,,,,,,,,,,,,,,,,,,,,,,,,,,,,,,,,
,,,,,,,,2023-08-16_08h37.57.234,HF_wild_card,2022.2.4,Linux x86_64,60.06006006,62729ff6b6e5922c7cc5f2dd,64d2fd46c836a06233681665,64dc7cc11d0cef07606f0a3c,,,,,,,ctch,resources/DR.BMP,resources/DB.BMP,Door4,-0.328074892,-0.061778982,1,0,0,1.0355,optionLeft,60,2655,2,3,0,3,0,1,,,,,,,,,,,,,,,,,,,,,,,,,,,,,,,,,,,,,,,
,,,,,,,,2023-08-16_08h37.57.234,HF_wild_card,2022.2.4,Linux x86_64,60.06006006,62729ff6b6e5922c7cc5f2dd,64d2fd46c836a06233681665,64dc7cc11d0cef07606f0a3c,,,,,,,decisionTrl,resources/DG.BMP,resources/DB.BMP,Door1,0.35530146,-0.07138284,1,0,0,1.2487,optionRight,30,2685,2,4,0,4,0,1,,,,,,,,,,,,,,,,,,,,,,,,,,,,,,,,,,,,,,,
,,,,,,,,2023-08-16_08h37.57.234,HF_wild_card,2022.2.4,Linux x86_64,60.06006006,62729ff6b6e5922c7cc5f2dd,64d2fd46c836a06233681665,64dc7cc11d0cef07606f0a3c,,,,,,,ctch,resources/DG.BMP,resources/DBN.BMP,Door3,0.33942612,-0.025856853,1,0,0,1.0651,optionRight,70,2755,2,5,0,5,0,1,,,,,,,,,,,,,,,,,,,,,,,,,,,,,,,,,,,,,,,
,,,,,,,,2023-08-16_08h37.57.234,HF_wild_card,2022.2.4,Linux x86_64,60.06006006,62729ff6b6e5922c7cc5f2dd,64d2fd46c836a06233681665,64dc7cc11d0cef07606f0a3c,,,,,,,decisionTrl,resources/DBN.BMP,resources/DR.BMP,Door3,-0.413401683,-0.033582966,1,0,0,0.7686,optionLeft,70,2825,2,6,0,6,0,1,,,,,,,,,,,,,,,,,,,,,,,,,,,,,,,,,,,,,,,
,,,,,,,,2023-08-16_08h37.57.234,HF_wild_card,2022.2.4,Linux x86_64,60.06006006,62729ff6b6e5922c7cc5f2dd,64d2fd46c836a06233681665,64dc7cc11d0cef07606f0a3c,,,,,,,decisionTrl,resources/DB.BMP,resources/DG.BMP,Door1,-0.351471225,-0.039786617,1,0,0,1.5678,optionLeft,30,2855,2,7,0,7,0,1,,,,,,,,,,,,,,,,,,,,,,,,,,,,,,,,,,,,,,,
,,,,,,,,2023-08-16_08h37.57.234,HF_wild_card,2022.2.4,Linux x86_64,60.06006006,62729ff6b6e5922c7cc5f2dd,64d2fd46c836a06233681665,64dc7cc11d0cef07606f0a3c,,,,,,,sngl,resources/Empty.png,resources/DBN.BMP,Door3,0.385337591,-0.042257627,1,0,0,0.8316,optionRight,70,2925,2,8,0,8,0,1,,,,,,,,,,,,,,,,,,,,,,,,,,,,,,,,,,,,,,,
,,,,,,,,2023-08-16_08h37.57.234,HF_wild_card,2022.2.4,Linux x86_64,60.06006006,62729ff6b6e5922c7cc5f2dd,64d2fd46c836a06233681665,64dc7cc11d0cef07606f0a3c,,,,,,,decisionTrl,resources/DBN.BMP,resources/DR.BMP,Door3,-0.368197044,-0.061055541,1,0,0,0.7354,optionLeft,70,2995,2,9,0,9,0,1,,,,,,,,,,,,,,,,,,,,,,,,,,,,,,,,,,,,,,,
,,,,,,,,2023-08-16_08h37.57.234,HF_wild_card,2022.2.4,Linux x86_64,60.06006006,62729ff6b6e5922c7cc5f2dd,64d2fd46c836a06233681665,64dc7cc11d0cef07606f0a3c,,,,,,,decisionTrl,resources/DG.BMP,resources/DP.BMP,WildCard_NonEx,0.358585278,-0.036795457,1,0,0,2.5689,optionRight,45,3040,2,10,0,10,0,1,,,,,,,,,,,,,,,,,,,,,,,,,,,,,,,,,,,,,,,
,,,,,,,,2023-08-16_08h37.57.234,HF_wild_card,2022.2.4,Linux x86_64,60.06006006,62729ff6b6e5922c7cc5f2dd,64d2fd46c836a06233681665,64dc7cc11d0cef07606f0a3c,,,,,,,decisionTrl,resources/DR.BMP,resources/DBN.BMP,Door3,0.401453654,-0.053336581,1,0,0,0.8539,optionRight,70,3110,2,11,0,11,0,1,,,,,,,,,,,,,,,,,,,,,,,,,,,,,,,,,,,,,,,
,,,,,,,,2023-08-16_08h37.57.234,HF_wild_card,2022.2.4,Linux x86_64,60.06006006,62729ff6b6e5922c7cc5f2dd,64d2fd46c836a06233681665,64dc7cc11d0cef07606f0a3c,,,,,,,decisionTrl,resources/DP.BMP,resources/DB.BMP,WildCard_NonEx,-0.34639132,-0.050548355,1,0,0,1.561,optionLeft,45,3155,2,12,0,12,0,1,,,,,,,,,,,,,,,,,,,,,,,,,,,,,,,,,,,,,,,
,,,,,,,,2023-08-16_08h37.57.234,HF_wild_card,2022.2.4,Linux x86_64,60.06006006,62729ff6b6e5922c7cc5f2dd,64d2fd46c836a06233681665,64dc7cc11d0cef07606f0a3c,,,,,,,decisionTrl,resources/DBN.BMP,resources/DR.BMP,Door3,-0.312540452,-0.042835037,1,0,0,1.3076,optionLeft,70,3225,2,13,0,13,0,1,,,,,,,,,,,,,,,,,,,,,,,,,,,,,,,,,,,,,,,
,,,,,,,,2023-08-16_08h37.57.234,HF_wild_card,2022.2.4,Linux x86_64,60.06006006,62729ff6b6e5922c7cc5f2dd,64d2fd46c836a06233681665,64dc7cc11d0cef07606f0a3c,,,,,,,sngl,resources/Empty.png,resources/DP.BMP,WildCard_NonEx,0.465745449,-0.06423223,1,0,0,0.7815,optionRight,55,3280,2,14,0,14,0,1,,,,,,,,,,,,,,,,,,,,,,,,,,,,,,,,,,,,,,,
,,,,,,,,2023-08-16_08h37.57.234,HF_wild_card,2022.2.4,Linux x86_64,60.06006006,62729ff6b6e5922c7cc5f2dd,64d2fd46c836a06233681665,64dc7cc11d0cef07606f0a3c,,,,,,,decisionTrl,resources/DR.BMP,resources/DP.BMP,Door4,-0.338946819,-0.033198078,1,0,0,1.2383,optionLeft,80,3360,2,15,0,15,0,1,,,,,,,,,,,,,,,,,,,,,,,,,,,,,,,,,,,,,,,
,,,,,,,,2023-08-16_08h37.57.234,HF_wild_card,2022.2.4,Linux x86_64,60.06006006,62729ff6b6e5922c7cc5f2dd,64d2fd46c836a06233681665,64dc7cc11d0cef07606f0a3c,,,,,,,decisionTrl,resources/DBN.BMP,resources/DP.BMP,Door3,-0.343123515,-0.032805999,1,0,0,1.339,optionLeft,70,3430,2,16,0,16,0,1,,,,,,,,,,,,,,,,,,,,,,,,,,,,,,,,,,,,,,,
,,,,,,,,2023-08-16_08h37.57.234,HF_wild_card,2022.2.4,Linux x86_64,60.06006006,62729ff6b6e5922c7cc5f2dd,64d2fd46c836a06233681665,64dc7cc11d0cef07606f0a3c,,,,,,,ctch,resources/DG.BMP,resources/DBN.BMP,Door3,0.366660515,-0.029139638,1,0,0,1.0586,optionRight,70,3500,2,17,0,17,0,1,,,,,,,,,,,,,,,,,,,,,,,,,,,,,,,,,,,,,,,
,,,,,,,,2023-08-16_08h37.57.234,HF_wild_card,2022.2.4,Linux x86_64,60.06006006,62729ff6b6e5922c7cc5f2dd,64d2fd46c836a06233681665,64dc7cc11d0cef07606f0a3c,,,,,,,ctch,resources/DBN.BMP,resources/DG.BMP,Door3,-0.348703742,-0.041702906,1,0,0,0.9015,optionLeft,70,3570,2,18,0,18,0,1,,,,,,,,,,,,,,,,,,,,,,,,,,,,,,,,,,,,,,,
,,,,,,,,2023-08-16_08h37.57.234,HF_wild_card,2022.2.4,Linux x86_64,60.06006006,62729ff6b6e5922c7cc5f2dd,64d2fd46c836a06233681665,64dc7cc11d0cef07606f0a3c,,,,,,,sngl,resources/DR.BMP,resources/Empty.png,Door4,-0.360294541,-0.05982554,1,0,0,1.0003,optionLeft,60,3630,2,19,0,19,0,1,,,,,,,,,,,,,,,,,,,,,,,,,,,,,,,,,,,,,,,
,,,,,,,,2023-08-16_08h37.57.234,HF_wild_card,2022.2.4,Linux x86_64,60.06006006,62729ff6b6e5922c7cc5f2dd,64d2fd46c836a06233681665,64dc7cc11d0cef07606f0a3c,,,,,,,sngl,resources/DB.BMP,resources/Empty.png,Door1,-0.342271566,-0.064555407,1,0,0,0.9565,optionLeft,30,3660,2,20,0,20,0,1,,,,,,,,,,,,,,,,,,,,,,,,,,,,,,,,,,,,,,,
,,,,,,,,2023-08-16_08h37.57.234,HF_wild_card,2022.2.4,Linux x86_64,60.06006006,62729ff6b6e5922c7cc5f2dd,64d2fd46c836a06233681665,64dc7cc11d0cef07606f0a3c,,,,,,,sngl,resources/DG.BMP,resources/Empty.png,Door2,-0.301267823,-0.038723111,1,0,0,1.0782,optionLeft,20,3680,2,21,0,21,0,1,,,,,,,,,,,,,,,,,,,,,,,,,,,,,,,,,,,,,,,
,,,,,,,,2023-08-16_08h37.57.234,HF_wild_card,2022.2.4,Linux x86_64,60.06006006,62729ff6b6e5922c7cc5f2dd,64d2fd46c836a06233681665,64dc7cc11d0cef07606f0a3c,,,,,,,ctch,resources/DBN.BMP,resources/DG.BMP,Door3,-0.346223195,0.004630526,1,0,0,1.422,optionLeft,70,3750,2,22,0,22,0,1,,,,,,,,,,,,,,,,,,,,,,,,,,,,,,,,,,,,,,,
,,,,,,,,2023-08-16_08h37.57.234,HF_wild_card,2022.2.4,Linux x86_64,60.06006006,62729ff6b6e5922c7cc5f2dd,64d2fd46c836a06233681665,64dc7cc11d0cef07606f0a3c,,,,,,,sngl,resources/DBN.BMP,resources/Empty.png,Door3,-0.344403267,-0.05053997,1,0,0,0.9361,optionLeft,70,3820,2,23,0,23,0,1,,,,,,,,,,,,,,,,,,,,,,,,,,,,,,,,,,,,,,,
,,,,,,,,2023-08-16_08h37.57.234,HF_wild_card,2022.2.4,Linux x86_64,60.06006006,62729ff6b6e5922c7cc5f2dd,64d2fd46c836a06233681665,64dc7cc11d0cef07606f0a3c,,,,,,,decisionTrl,resources/DR.BMP,resources/DBN.BMP,Door4,-0.379648646,-0.022314628,1,0,0,2.1253,optionLeft,60,3880,2,24,0,24,0,1,,,,,,,,,,,,,,,,,,,,,,,,,,,,,,,,,,,,,,,
,,,,,,,,2023-08-16_08h37.57.234,HF_wild_card,2022.2.4,Linux x86_64,60.06006006,62729ff6b6e5922c7cc5f2dd,64d2fd46c836a06233681665,64dc7cc11d0cef07606f0a3c,,,,,,,sngl,resources/Empty.png,resources/DR.BMP,Door4,0.370491584,-0.067735155,1,0,0,0.9614,optionRight,80,3960,2,25,0,25,0,1,,,,,,,,,,,,,,,,,,,,,,,,,,,,,,,,,,,,,,,
,,,,,,,,2023-08-16_08h37.57.234,HF_wild_card,2022.2.4,Linux x86_64,60.06006006,62729ff6b6e5922c7cc5f2dd,64d2fd46c836a06233681665,64dc7cc11d0cef07606f0a3c,,,,,,,sngl,resources/Empty.png,resources/DB.BMP,Door1,0.385076364,-0.064325611,1,0,0,0.7735,optionRight,30,3990,2,26,0,26,0,1,,,,,,,,,,,,,,,,,,,,,,,,,,,,,,,,,,,,,,,
,,,,,,,,2023-08-16_08h37.57.234,HF_wild_card,2022.2.4,Linux x86_64,60.06006006,62729ff6b6e5922c7cc5f2dd,64d2fd46c836a06233681665,64dc7cc11d0cef07606f0a3c,,,,,,,decisionTrl,resources/DR.BMP,resources/DBN.BMP,Door3,0.365244945,-0.031011303,1,0,0,1.0202,optionRight,70,4060,2,27,0,27,0,1,,,,,,,,,,,,,,,,,,,,,,,,,,,,,,,,,,,,,,,
,,,,,,,,2023-08-16_08h37.57.234,HF_wild_card,2022.2.4,Linux x86_64,60.06006006,62729ff6b6e5922c7cc5f2dd,64d2fd46c836a06233681665,64dc7cc11d0cef07606f0a3c,,,,,,,decisionTrl,resources/DP.BMP,resources/DR.BMP,Door4,0.382603486,-0.062721173,1,0,0,0.9339,optionRight,60,4120,2,28,0,28,0,1,,,,,,,,,,,,,,,,,,,,,,,,,,,,,,,,,,,,,,,
,,,,,,,,2023-08-16_08h37.57.234,HF_wild_card,2022.2.4,Linux x86_64,60.06006006,62729ff6b6e5922c7cc5f2dd,64d2fd46c836a06233681665,64dc7cc11d0cef07606f0a3c,,,,,,,decisionTrl,resources/DG.BMP,resources/DB.BMP,Door1,0.38227272,-0.06291763,1,0,0,1.4595,optionRight,30,4150,2,29,0,29,0,1,,,,,,,,,,,,,,,,,,,,,,,,,,,,,,,,,,,,,,,
,,,,,,,,2023-08-16_08h37.57.234,HF_wild_card,2022.2.4,Linux x86_64,60.06006006,62729ff6b6e5922c7cc5f2dd,64d2fd46c836a06233681665,64dc7cc11d0cef07606f0a3c,,,,,,,ctch,resources/DB.BMP,resources/DR.BMP,Door4,0.390750726,-0.050758362,1,0,0,0.8819,optionRight,80,4230,2,30,0,30,0,1,,,,,,,,,,,,,,,,,,,,,,,,,,,,,,,,,,,,,,,
,,,,,,,,2023-08-16_08h37.57.234,HF_wild_card,2022.2.4,Linux x86_64,60.06006006,62729ff6b6e5922c7cc5f2dd,64d2fd46c836a06233681665,64dc7cc11d0cef07606f0a3c,,,,,,,decisionTrl,resources/DB.BMP,resources/DG.BMP,Door1,-0.36222597,-0.043271422,1,0,0,1.3211,optionLeft,30,4260,2,31,0,31,0,1,,,,,,,,,,,,,,,,,,,,,,,,,,,,,,,,,,,,,,,
,,,,,,,,2023-08-16_08h37.57.234,HF_wild_card,2022.2.4,Linux x86_64,60.06006006,62729ff6b6e5922c7cc5f2dd,64d2fd46c836a06233681665,64dc7cc11d0cef07606f0a3c,,,,,,,ctch,resources/DB.BMP,resources/DR.BMP,Door4,0.348078012,-0.028964082,1,0,0,0.9415,optionRight,60,4320,2,32,0,32,0,1,,,,,,,,,,,,,,,,,,,,,,,,,,,,,,,,,,,,,,,
,,,,,,,,2023-08-16_08h37.57.234,HF_wild_card,2022.2.4,Linux x86_64,60.06006006,62729ff6b6e5922c7cc5f2dd,64d2fd46c836a06233681665,64dc7cc11d0cef07606f0a3c,,,,,,,decisionTrl,resources/DP.BMP,resources/DBN.BMP,Door3,0.471516609,-0.030615528,1,0,0,0.8465,optionRight,70,4390,2,33,0,33,0,1,,,,,,,,,,,,,,,,,,,,,,,,,,,,,,,,,,,,,,,
,,,,,,,,2023-08-16_08h37.57.234,HF_wild_card,2022.2.4,Linux x86_64,60.06006006,62729ff6b6e5922c7cc5f2dd,64d2fd46c836a06233681665,64dc7cc11d0cef07606f0a3c,,,,,,,decisionTrl,resources/DB.BMP,resources/DG.BMP,Door1,-0.402435422,-0.038609664,1,0,0,1.3163,optionLeft,30,4420,2,34,0,34,0,1,,,,,,,,,,,,,,,,,,,,,,,,,,,,,,,,,,,,,,,
,,,,,,,,2023-08-16_08h37.57.234,HF_wild_card,2022.2.4,Linux x86_64,60.06006006,62729ff6b6e5922c7cc5f2dd,64d2fd46c836a06233681665,64dc7cc11d0cef07606f0a3c,,,,,,,sngl,resources/DP.BMP,resources/Empty.png,WildCard_NonEx,-0.333815257,-0.065770149,1,0,0,0.8955,optionLeft,55,4475,2,35,0,35,0,1,,,,,,,,,,,,,,,,,,,,,,,,,,,,,,,,,,,,,,,
,,,,,,,,2023-08-16_08h37.57.234,HF_wild_card,2022.2.4,Linux x86_64,60.06006006,62729ff6b6e5922c7cc5f2dd,64d2fd46c836a06233681665,64dc7cc11d0cef07606f0a3c,,,,,,,decisionTrl,resources/DP.BMP,resources/DG.BMP,WildCard_NonEx,-0.389232755,-0.054070155,1,0,0,0.9217,optionLeft,45,4520,2,36,0,36,0,1,,,,,,,,,,,,,,,,,,,,,,,,,,,,,,,,,,,,,,,
,,,,,,,,2023-08-16_08h37.57.234,HF_wild_card,2022.2.4,Linux x86_64,60.06006006,62729ff6b6e5922c7cc5f2dd,64d2fd46c836a06233681665,64dc7cc11d0cef07606f0a3c,,,,,,,sngl,resources/Empty.png,resources/DP.BMP,WildCard_NonEx,0.366655747,-0.046841661,1,0,0,0.7168,optionRight,45,4565,2,37,0,37,0,1,,,,,,,,,,,,,,,,,,,,,,,,,,,,,,,,,,,,,,,
,,,,,,,,2023-08-16_08h37.57.234,HF_wild_card,2022.2.4,Linux x86_64,60.06006006,62729ff6b6e5922c7cc5f2dd,64d2fd46c836a06233681665,64dc7cc11d0cef07606f0a3c,,,,,,,sngl,resources/Empty.png,resources/DG.BMP,Door2,0.387978633,-0.048934857,1,0,0,0.9423,optionRight,40,4605,2,38,0,38,0,1,,,,,,,,,,,,,,,,,,,,,,,,,,,,,,,,,,,,,,,
,,,,,,,,2023-08-16_08h37.57.234,HF_wild_card,2022.2.4,Linux x86_64,60.06006006,62729ff6b6e5922c7cc5f2dd,64d2fd46c836a06233681665,64dc7cc11d0cef07606f0a3c,,,,,,,decisionTrl,resources/DB.BMP,resources/DG.BMP,Door2,0.407108784,-0.052743395,1,0,0,2.9713,optionRight,40,4645,2,39,0,39,0,1,,,,,,,,,,,,,,,,,,,,,,,,,,,,,,,,,,,,,,,
,,,,,,,,2023-08-16_08h37.57.234,HF_wild_card,2022.2.4,Linux x86_64,60.06006006,62729ff6b6e5922c7cc5f2dd,64d2fd46c836a06233681665,64dc7cc11d0cef07606f0a3c,,,,,,,decisionTrl,resources/DR.BMP,resources/DBN.BMP,Door3,0.371402661,-0.026063204,1,0,0,1.582,optionRight,70,4715,2,40,0,40,0,1,,,,,,,,,,,,,,,,,,,,,,,,,,,,,,,,,,,,,,,
,,,,,,,,2023-08-16_08h37.57.234,HF_wild_card,2022.2.4,Linux x86_64,60.06006006,62729ff6b6e5922c7cc5f2dd,64d2fd46c836a06233681665,64dc7cc11d0cef07606f0a3c,,,,,,,decisionTrl,resources/DG.BMP,resources/DB.BMP,Door1,0.316249927,-0.059900284,1,0,0,2.7955,optionRight,30,4745,2,41,0,41,0,1,,,,,,,,,,,,,,,,,,,,,,,,,,,,,,,,,,,,,,,
,,,,,,,,2023-08-16_08h37.57.234,HF_wild_card,2022.2.4,Linux x86_64,60.06006006,62729ff6b6e5922c7cc5f2dd,64d2fd46c836a06233681665,64dc7cc11d0cef07606f0a3c,,,,,,,decisionTrl,resources/DBN.BMP,resources/DR.BMP,Door3,-0.393772562,-0.041212956,1,0,0,1.8699,optionLeft,70,4815,2,42,0,42,0,1,,,,,,,,,,,,,,,,,,,,,,,,,,,,,,,,,,,,,,,
,,,,,,,,2023-08-16_08h37.57.234,HF_wild_card,2022.2.4,Linux x86_64,60.06006006,62729ff6b6e5922c7cc5f2dd,64d2fd46c836a06233681665,64dc7cc11d0cef07606f0a3c,,,,,,,sngl,resources/DP.BMP,resources/Empty.png,WildCard_NonEx,-0.370452642,-0.072369099,1,0,0,0.7811,optionLeft,45,4860,2,43,0,43,0,1,,,,,,,,,,,,,,,,,,,,,,,,,,,,,,,,,,,,,,,
,,,,,,,,2023-08-16_08h37.57.234,HF_wild_card,2022.2.4,Linux x86_64,60.06006006,62729ff6b6e5922c7cc5f2dd,64d2fd46c836a06233681665,64dc7cc11d0cef07606f0a3c,,,,,,,,,,,,,,,,,,,,,,,,,,1,0,1,0,1,,,,,,,,,,,,,,,,,,,,,,,,,,,,,,,,,,
,,,,,,,,2023-08-16_08h37.57.234,HF_wild_card,2022.2.4,Linux x86_64,60.06006006,62729ff6b6e5922c7cc5f2dd,64d2fd46c836a06233681665,64dc7cc11d0cef07606f0a3c,,,,,,,decisionTrl,resources/DR.BMP,resources/DBN.BMP,Door3,0.356810331,0.013734659,1,0,0,1.1195,optionRight,70,4930,3,0,0,0,0,1,,,,,,,,,,,,,,,,,,,,,,,,,,,,,,,,,,,,,,,
,,,,,,,,2023-08-16_08h37.57.234,HF_wild_card,2022.2.4,Linux x86_64,60.06006006,62729ff6b6e5922c7cc5f2dd,64d2fd46c836a06233681665,64dc7cc11d0cef07606f0a3c,,,,,,,decisionTrl,resources/DR.BMP,resources/DBN.BMP,Door3,0.366383553,-0.014959693,1,0,0,0.8168,optionRight,70,5000,3,1,0,1,0,1,,,,,,,,,,,,,,,,,,,,,,,,,,,,,,,,,,,,,,,
,,,,,,,,2023-08-16_08h37.57.234,HF_wild_card,2022.2.4,Linux x86_64,60.06006006,62729ff6b6e5922c7cc5f2dd,64d2fd46c836a06233681665,64dc7cc11d0cef07606f0a3c,,,,,,,sngl,resources/Empty.png,resources/DB.BMP,Door1,0.349608024,-0.040612022,1,0,0,0.8089,optionRight,30,5030,3,2,0,2,0,1,,,,,,,,,,,,,,,,,,,,,,,,,,,,,,,,,,,,,,,
,,,,,,,,2023-08-16_08h37.57.234,HF_wild_card,2022.2.4,Linux x86_64,60.06006006,62729ff6b6e5922c7cc5f2dd,64d2fd46c836a06233681665,64dc7cc11d0cef07606f0a3c,,,,,,,decisionTrl,resources/DB.BMP,resources/DG.BMP,Door2,0.417451938,-0.035818418,1,0,0,1.2525,optionRight,20,5050,3,3,0,3,0,1,,,,,,,,,,,,,,,,,,,,,,,,,,,,,,,,,,,,,,,
,,,,,,,,2023-08-16_08h37.57.234,HF_wild_card,2022.2.4,Linux x86_64,60.06006006,62729ff6b6e5922c7cc5f2dd,64d2fd46c836a06233681665,64dc7cc11d0cef07606f0a3c,,,,,,,decisionTrl,resources/DB.BMP,resources/DP.BMP,WildCard_NonEx,0.418837865,-0.054216981,1,0,0,1.2415,optionRight,55,5105,3,4,0,4,0,1,,,,,,,,,,,,,,,,,,,,,,,,,,,,,,,,,,,,,,,
,,,,,,,,2023-08-16_08h37.57.234,HF_wild_card,2022.2.4,Linux x86_64,60.06006006,62729ff6b6e5922c7cc5f2dd,64d2fd46c836a06233681665,64dc7cc11d0cef07606f0a3c,,,,,,,sngl,resources/Empty.png,resources/DP.BMP,WildCard_NonEx,0.445647558,-0.081134001,1,0,0,0.7284,optionRight,45,5150,3,5,0,5,0,1,,,,,,,,,,,,,,,,,,,,,,,,,,,,,,,,,,,,,,,
,,,,,,,,2023-08-16_08h37.57.234,HF_wild_card,2022.2.4,Linux x86_64,60.06006006,62729ff6b6e5922c7cc5f2dd,64d2fd46c836a06233681665,64dc7cc11d0cef07606f0a3c,,,,,,,decisionTrl,resources/DP.BMP,resources/DB.BMP,WildCard_NonEx,-0.361617247,-0.073630889,1,0,0,0.9229,optionLeft,55,5205,3,6,0,6,0,1,,,,,,,,,,,,,,,,,,,,,,,,,,,,,,,,,,,,,,,
,,,,,,,,2023-08-16_08h37.57.234,HF_wild_card,2022.2.4,Linux x86_64,60.06006006,62729ff6b6e5922c7cc5f2dd,64d2fd46c836a06233681665,64dc7cc11d0cef07606f0a3c,,,,,,,decisionTrl,resources/DBN.BMP,resources/DR.BMP,Door3,-0.383298159,-0.019343336,1,0,0,2.0392,optionLeft,70,5275,3,7,0,7,0,1,,,,,,,,,,,,,,,,,,,,,,,,,,,,,,,,,,,,,,,
,,,,,,,,2023-08-16_08h37.57.234,HF_wild_card,2022.2.4,Linux x86_64,60.06006006,62729ff6b6e5922c7cc5f2dd,64d2fd46c836a06233681665,64dc7cc11d0cef07606f0a3c,,,,,,,ctch,resources/DG.BMP,resources/DBN.BMP,Door3,0.42105341,-0.060937961,1,0,0,1.1566,optionRight,70,5345,3,8,0,8,0,1,,,,,,,,,,,,,,,,,,,,,,,,,,,,,,,,,,,,,,,
,,,,,,,,2023-08-16_08h37.57.234,HF_wild_card,2022.2.4,Linux x86_64,60.06006006,62729ff6b6e5922c7cc5f2dd,64d2fd46c836a06233681665,64dc7cc11d0cef07606f0a3c,,,,,,,decisionTrl,resources/DP.BMP,resources/DR.BMP,Door4,0.41431729,-0.051485658,1,0,0,1.599,optionRight,80,5425,3,9,0,9,0,1,,,,,,,,,,,,,,,,,,,,,,,,,,,,,,,,,,,,,,,
,,,,,,,,2023-08-16_08h37.57.234,HF_wild_card,2022.2.4,Linux x86_64,60.06006006,62729ff6b6e5922c7cc5f2dd,64d2fd46c836a06233681665,64dc7cc11d0cef07606f0a3c,,,,,,,ctch,resources/DR.BMP,resources/DB.BMP,Door4,-0.33681492,-0.060332656,1,0,0,0.9669,optionLeft,60,5485,3,10,0,10,0,1,,,,,,,,,,,,,,,,,,,,,,,,,,,,,,,,,,,,,,,
,,,,,,,,2023-08-16_08h37.57.234,HF_wild_card,2022.2.4,Linux x86_64,60.06006006,62729ff6b6e5922c7cc5f2dd,64d2fd46c836a06233681665,64dc7cc11d0cef07606f0a3c,,,,,,,sngl,resources/Empty.png,resources/DR.BMP,Door4,0.398284753,-0.055064996,1,0,0,0.7745,optionRight,60,5545,3,11,0,11,0,1,,,,,,,,,,,,,,,,,,,,,,,,,,,,,,,,,,,,,,,
,,,,,,,,2023-08-16_08h37.57.234,HF_wild_card,2022.2.4,Linux x86_64,60.06006006,62729ff6b6e5922c7cc5f2dd,64d2fd46c836a06233681665,64dc7cc11d0cef07606f0a3c,,,,,,,ctch,resources/DR.BMP,resources/DB.BMP,Door4,-0.381277402,-0.069485863,1,0,0,0.8703,optionLeft,60,5605,3,12,0,12,0,1,,,,,,,,,,,,,,,,,,,,,,,,,,,,,,,,,,,,,,,
,,,,,,,,2023-08-16_08h37.57.234,HF_wild_card,2022.2.4,Linux x86_64,60.06006006,62729ff6b6e5922c7cc5f2dd,64d2fd46c836a06233681665,64dc7cc11d0cef07606f0a3c,,,,,,,sngl,resources/DP.BMP,resources/Empty.png,WildCard_NonEx,-0.338122249,-0.074086467,1,0,0,0.8984,optionLeft,45,5650,3,13,0,13,0,1,,,,,,,,,,,,,,,,,,,,,,,,,,,,,,,,,,,,,,,
,,,,,,,,2023-08-16_08h37.57.234,HF_wild_card,2022.2.4,Linux x86_64,60.06006006,62729ff6b6e5922c7cc5f2dd,64d2fd46c836a06233681665,64dc7cc11d0cef07606f0a3c,,,,,,,ctch,resources/DG.BMP,resources/DBN.BMP,Door3,0.365181605,-0.062212507,1,0,0,0.8,optionRight,70,5720,3,14,0,14,0,1,,,,,,,,,,,,,,,,,,,,,,,,,,,,,,,,,,,,,,,
,,,,,,,,2023-08-16_08h37.57.234,HF_wild_card,2022.2.4,Linux x86_64,60.06006006,62729ff6b6e5922c7cc5f2dd,64d2fd46c836a06233681665,64dc7cc11d0cef07606f0a3c,,,,,,,decisionTrl,resources/DG.BMP,resources/DB.BMP,Door2,-0.409914533,-0.02418832,1,0,0,2.1648,optionLeft,40,5760,3,15,0,15,0,1,,,,,,,,,,,,,,,,,,,,,,,,,,,,,,,,,,,,,,,
,,,,,,,,2023-08-16_08h37.57.234,HF_wild_card,2022.2.4,Linux x86_64,60.06006006,62729ff6b6e5922c7cc5f2dd,64d2fd46c836a06233681665,64dc7cc11d0cef07606f0a3c,,,,,,,decisionTrl,resources/DB.BMP,resources/DG.BMP,Door2,0.365104198,-0.060460369,1,0,0,1.004,optionRight,40,5800,3,16,0,16,0,1,,,,,,,,,,,,,,,,,,,,,,,,,,,,,,,,,,,,,,,
,,,,,,,,2023-08-16_08h37.57.234,HF_wild_card,2022.2.4,Linux x86_64,60.06006006,62729ff6b6e5922c7cc5f2dd,64d2fd46c836a06233681665,64dc7cc11d0cef07606f0a3c,,,,,,,decisionTrl,resources/DBN.BMP,resources/DR.BMP,Door3,-0.416736325,-0.025709391,1,0,0,0.6988,optionLeft,70,5870,3,17,0,17,0,1,,,,,,,,,,,,,,,,,,,,,,,,,,,,,,,,,,,,,,,
,,,,,,,,2023-08-16_08h37.57.234,HF_wild_card,2022.2.4,Linux x86_64,60.06006006,62729ff6b6e5922c7cc5f2dd,64d2fd46c836a06233681665,64dc7cc11d0cef07606f0a3c,,,,,,,decisionTrl,resources/DB.BMP,resources/DG.BMP,Door2,0.367261807,-0.027552923,1,0,0,1.4314,optionRight,20,5890,3,18,0,18,0,1,,,,,,,,,,,,,,,,,,,,,,,,,,,,,,,,,,,,,,,
,,,,,,,,2023-08-16_08h37.57.234,HF_wild_card,2022.2.4,Linux x86_64,60.06006006,62729ff6b6e5922c7cc5f2dd,64d2fd46c836a06233681665,64dc7cc11d0cef07606f0a3c,,,,,,,decisionTrl,resources/DBN.BMP,resources/DR.BMP,Door3,-0.457939426,-0.003950636,1,0,0,0.7225,optionLeft,70,5960,3,19,0,19,0,1,,,,,,,,,,,,,,,,,,,,,,,,,,,,,,,,,,,,,,,
,,,,,,,,2023-08-16_08h37.57.234,HF_wild_card,2022.2.4,Linux x86_64,60.06006006,62729ff6b6e5922c7cc5f2dd,64d2fd46c836a06233681665,64dc7cc11d0cef07606f0a3c,,,,,,,ctch,resources/DBN.BMP,resources/DG.BMP,Door3,-0.443202972,-0.025731484,1,0,0,0.7967,optionLeft,70,6030,3,20,0,20,0,1,,,,,,,,,,,,,,,,,,,,,,,,,,,,,,,,,,,,,,,
,,,,,,,,2023-08-16_08h37.57.234,HF_wild_card,2022.2.4,Linux x86_64,60.06006006,62729ff6b6e5922c7cc5f2dd,64d2fd46c836a06233681665,64dc7cc11d0cef07606f0a3c,,,,,,,sngl,resources/Empty.png,resources/DBN.BMP,Door3,0.324527343,-0.07557706,1,0,0,0.9699,optionRight,70,6100,3,21,0,21,0,1,,,,,,,,,,,,,,,,,,,,,,,,,,,,,,,,,,,,,,,
,,,,,,,,2023-08-16_08h37.57.234,HF_wild_card,2022.2.4,Linux x86_64,60.06006006,62729ff6b6e5922c7cc5f2dd,64d2fd46c836a06233681665,64dc7cc11d0cef07606f0a3c,,,,,,,decisionTrl,resources/DBN.BMP,resources/DP.BMP,Door3,-0.37177062,-0.022046804,1,0,0,1.1964,optionLeft,70,6170,3,22,0,22,0,1,,,,,,,,,,,,,,,,,,,,,,,,,,,,,,,,,,,,,,,
,,,,,,,,2023-08-16_08h37.57.234,HF_wild_card,2022.2.4,Linux x86_64,60.06006006,62729ff6b6e5922c7cc5f2dd,64d2fd46c836a06233681665,64dc7cc11d0cef07606f0a3c,,,,,,,sngl,resources/DR.BMP,resources/Empty.png,Door4,-0.442772468,-0.055137912,1,0,0,0.9301,optionLeft,80,6250,3,23,0,23,0,1,,,,,,,,,,,,,,,,,,,,,,,,,,,,,,,,,,,,,,,
,,,,,,,,2023-08-16_08h37.57.234,HF_wild_card,2022.2.4,Linux x86_64,60.06006006,62729ff6b6e5922c7cc5f2dd,64d2fd46c836a06233681665,64dc7cc11d0cef07606f0a3c,,,,,,,sngl,resources/DBN.BMP,resources/Empty.png,Door3,-0.401942531,-0.024818023,1,0,0,0.6711,optionLeft,70,6320,3,24,0,24,0,1,,,,,,,,,,,,,,,,,,,,,,,,,,,,,,,,,,,,,,,
,,,,,,,,2023-08-16_08h37.57.234,HF_wild_card,2022.2.4,Linux x86_64,60.06006006,62729ff6b6e5922c7cc5f2dd,64d2fd46c836a06233681665,64dc7cc11d0cef07606f0a3c,,,,,,,sngl,resources/DP.BMP,resources/Empty.png,WildCard_NonEx,-0.39725105,-0.018101056,1,0,0,0.7182,optionLeft,55,6375,3,25,0,25,0,1,,,,,,,,,,,,,,,,,,,,,,,,,,,,,,,,,,,,,,,
,,,,,,,,2023-08-16_08h37.57.234,HF_wild_card,2022.2.4,Linux x86_64,60.06006006,62729ff6b6e5922c7cc5f2dd,64d2fd46c836a06233681665,64dc7cc11d0cef07606f0a3c,,,,,,,decisionTrl,resources/DG.BMP,resources/DB.BMP,Door1,0.356088241,-0.075788379,1,0,0,1.5541,optionRight,30,6405,3,26,0,26,0,1,,,,,,,,,,,,,,,,,,,,,,,,,,,,,,,,,,,,,,,
,,,,,,,,2023-08-16_08h37.57.234,HF_wild_card,2022.2.4,Linux x86_64,60.06006006,62729ff6b6e5922c7cc5f2dd,64d2fd46c836a06233681665,64dc7cc11d0cef07606f0a3c,,,,,,,decisionTrl,resources/DP.BMP,resources/DBN.BMP,Door3,0.327874422,-0.046362638,1,0,0,1.3876,optionRight,70,6475,3,27,0,27,0,1,,,,,,,,,,,,,,,,,,,,,,,,,,,,,,,,,,,,,,,
,,,,,,,,2023-08-16_08h37.57.234,HF_wild_card,2022.2.4,Linux x86_64,60.06006006,62729ff6b6e5922c7cc5f2dd,64d2fd46c836a06233681665,64dc7cc11d0cef07606f0a3c,,,,,,,sngl,resources/DB.BMP,resources/Empty.png,Door1,-0.414936225,-0.040640354,1,0,0,0.6591,optionLeft,30,6505,3,28,0,28,0,1,,,,,,,,,,,,,,,,,,,,,,,,,,,,,,,,,,,,,,,
,,,,,,,,2023-08-16_08h37.57.234,HF_wild_card,2022.2.4,Linux x86_64,60.06006006,62729ff6b6e5922c7cc5f2dd,64d2fd46c836a06233681665,64dc7cc11d0cef07606f0a3c,,,,,,,ctch,resources/DB.BMP,resources/DR.BMP,Door4,0.344614665,-0.06616052,1,0,0,0.9701,optionRight,60,6565,3,29,0,29,0,1,,,,,,,,,,,,,,,,,,,,,,,,,,,,,,,,,,,,,,,
,,,,,,,,2023-08-16_08h37.57.234,HF_wild_card,2022.2.4,Linux x86_64,60.06006006,62729ff6b6e5922c7cc5f2dd,64d2fd46c836a06233681665,64dc7cc11d0cef07606f0a3c,,,,,,,sngl,resources/Empty.png,resources/DG.BMP,Door2,0.4262712,-0.059954127,1,0,0,0.8147,optionRight,20,6585,3,30,0,30,0,1,,,,,,,,,,,,,,,,,,,,,,,,,,,,,,,,,,,,,,,
,,,,,,,,2023-08-16_08h37.57.234,HF_wild_card,2022.2.4,Linux x86_64,60.06006006,62729ff6b6e5922c7cc5f2dd,64d2fd46c836a06233681665,64dc7cc11d0cef07606f0a3c,,,,,,,decisionTrl,resources/DG.BMP,resources/DB.BMP,Door2,-0.341669957,0.00709033,1,0,0,1.6115,optionLeft,40,6625,3,31,0,31,0,1,,,,,,,,,,,,,,,,,,,,,,,,,,,,,,,,,,,,,,,
,,,,,,,,2023-08-16_08h37.57.234,HF_wild_card,2022.2.4,Linux x86_64,60.06006006,62729ff6b6e5922c7cc5f2dd,64d2fd46c836a06233681665,64dc7cc11d0cef07606f0a3c,,,,,,,decisionTrl,resources/DG.BMP,resources/DP.BMP,WildCard_NonEx,0.398344994,-0.052745461,1,0,0,1.1201,optionRight,45,6670,3,32,0,32,0,1,,,,,,,,,,,,,,,,,,,,,,,,,,,,,,,,,,,,,,,
,,,,,,,,2023-08-16_08h37.57.234,HF_wild_card,2022.2.4,Linux x86_64,60.06006006,62729ff6b6e5922c7cc5f2dd,64d2fd46c836a06233681665,64dc7cc11d0cef07606f0a3c,,,,,,,sngl,resources/Empty.png,resources/DP.BMP,WildCard_NonEx,0.392508427,-0.046027184,1,0,0,0.6754,optionRight,55,6725,3,33,0,33,0,1,,,,,,,,,,,,,,,,,,,,,,,,,,,,,,,,,,,,,,,
,,,,,,,,2023-08-16_08h37.57.234,HF_wild_card,2022.2.4,Linux x86_64,60.06006006,62729ff6b6e5922c7cc5f2dd,64d2fd46c836a06233681665,64dc7cc11d0cef07606f0a3c,,,,,,,decisionTrl,resources/DP.BMP,resources/DG.BMP,WildCard_NonEx,-0.376494845,-0.044975122,1,0,0,0.8654,optionLeft,55,6780,3,34,0,34,0,1,,,,,,,,,,,,,,,,,,,,,,,,,,,,,,,,,,,,,,,
,,,,,,,,2023-08-16_08h37.57.234,HF_wild_card,2022.2.4,Linux x86_64,60.06006006,62729ff6b6e5922c7cc5f2dd,64d2fd46c836a06233681665,64dc7cc11d0cef07606f0a3c,,,,,,,decisionTrl,resources/DR.BMP,resources/DBN.BMP,Door3,0.364727974,-0.022200386,1,0,0,0.8438,optionRight,70,6850,3,35,0,35,0,1,,,,,,,,,,,,,,,,,,,,,,,,,,,,,,,,,,,,,,,
,,,,,,,,2023-08-16_08h37.57.234,HF_wild_card,2022.2.4,Linux x86_64,60.06006006,62729ff6b6e5922c7cc5f2dd,64d2fd46c836a06233681665,64dc7cc11d0cef07606f0a3c,,,,,,,decisionTrl,resources/DB.BMP,resources/DG.BMP,Door2,0.416731358,-0.03095909,1,0,0,1.3442,optionRight,20,6870,3,36,0,36,0,1,,,,,,,,,,,,,,,,,,,,,,,,,,,,,,,,,,,,,,,
,,,,,,,,2023-08-16_08h37.57.234,HF_wild_card,2022.2.4,Linux x86_64,60.06006006,62729ff6b6e5922c7cc5f2dd,64d2fd46c836a06233681665,64dc7cc11d0cef07606f0a3c,,,,,,,sngl,resources/DG.BMP,resources/Empty.png,Door2,-0.342986544,-0.044412613,1,0,0,0.7494,optionLeft,40,6910,3,37,0,37,0,1,,,,,,,,,,,,,,,,,,,,,,,,,,,,,,,,,,,,,,,
,,,,,,,,2023-08-16_08h37.57.234,HF_wild_card,2022.2.4,Linux x86_64,60.06006006,62729ff6b6e5922c7cc5f2dd,64d2fd46c836a06233681665,64dc7cc11d0cef07606f0a3c,,,,,,,decisionTrl,resources/DR.BMP,resources/DP.BMP,WildCard_NonEx,0.391370217,-0.031502247,1,0,0,1.0063,optionRight,45,6955,3,38,0,38,0,1,,,,,,,,,,,,,,,,,,,,,,,,,,,,,,,,,,,,,,,
,,,,,,,,2023-08-16_08h37.57.234,HF_wild_card,2022.2.4,Linux x86_64,60.06006006,62729ff6b6e5922c7cc5f2dd,64d2fd46c836a06233681665,64dc7cc11d0cef07606f0a3c,,,,,,,decisionTrl,resources/DR.BMP,resources/DBN.BMP,Door3,0.424285173,-0.026226203,1,0,0,1.0804,optionRight,70,7025,3,39,0,39,0,1,,,,,,,,,,,,,,,,,,,,,,,,,,,,,,,,,,,,,,,
,,,,,,,,2023-08-16_08h37.57.234,HF_wild_card,2022.2.4,Linux x86_64,60.06006006,62729ff6b6e5922c7cc5f2dd,64d2fd46c836a06233681665,64dc7cc11d0cef07606f0a3c,,,,,,,decisionTrl,resources/DBN.BMP,resources/DR.BMP,Door3,-0.365259449,-0.041228414,1,0,0,0.7742,optionLeft,70,7095,3,40,0,40,0,1,,,,,,,,,,,,,,,,,,,,,,,,,,,,,,,,,,,,,,,
,,,,,,,,2023-08-16_08h37.57.234,HF_wild_card,2022.2.4,Linux x86_64,60.06006006,62729ff6b6e5922c7cc5f2dd,64d2fd46c836a06233681665,64dc7cc11d0cef07606f0a3c,,,,,,,decisionTrl,resources/DG.BMP,resources/DB.BMP,Door1,0.406073173,-0.028117379,1,0,0,1.8956,optionRight,30,7125,3,41,0,41,0,1,,,,,,,,,,,,,,,,,,,,,,,,,,,,,,,,,,,,,,,
,,,,,,,,2023-08-16_08h37.57.234,HF_wild_card,2022.2.4,Linux x86_64,60.06006006,62729ff6b6e5922c7cc5f2dd,64d2fd46c836a06233681665,64dc7cc11d0cef07606f0a3c,,,,,,,ctch,resources/DBN.BMP,resources/DG.BMP,Door3,-0.343414346,-0.034371773,1,0,0,0.7164,optionLeft,70,7195,3,42,0,42,0,1,,,,,,,,,,,,,,,,,,,,,,,,,,,,,,,,,,,,,,,
,,,,,,,,2023-08-16_08h37.57.234,HF_wild_card,2022.2.4,Linux x86_64,60.06006006,62729ff6b6e5922c7cc5f2dd,64d2fd46c836a06233681665,64dc7cc11d0cef07606f0a3c,,,,,,,ctch,resources/DB.BMP,resources/DR.BMP,Door4,0.411470254,-0.052172224,1,0,0,0.9957,optionRight,60,7255,3,43,0,43,0,1,,,,,,,,,,,,,,,,,,,,,,,,,,,,,,,,,,,,,,,
,,,,,,,,2023-08-16_08h37.57.234,HF_wild_card,2022.2.4,Linux x86_64,60.06006006,62729ff6b6e5922c7cc5f2dd,64d2fd46c836a06233681665,64dc7cc11d0cef07606f0a3c,,,,,,,,,,,,,,,,,,,,,,,,,,2,0,2,0,1,,,,,,,,,,,,,,,,,,,,,,,,,,,,,,,,,,
,,,,,,,,2023-08-16_08h37.57.234,HF_wild_card,2022.2.4,Linux x86_64,60.06006006,62729ff6b6e5922c7cc5f2dd,64d2fd46c836a06233681665,64dc7cc11d0cef07606f0a3c,,,,,,,sngl,resources/Empty.png,resources/DR.BMP,Door4,0.426337481,-0.014823953,1,0,0,1.8777,optionRight,80,7335,4,0,0,0,0,1,,,,,,,,,,,,,,,,,,,,,,,,,,,,,,,,,,,,,,,
,,,,,,,,2023-08-16_08h37.57.234,HF_wild_card,2022.2.4,Linux x86_64,60.06006006,62729ff6b6e5922c7cc5f2dd,64d2fd46c836a06233681665,64dc7cc11d0cef07606f0a3c,,,,,,,decisionTrl,resources/DR.BMP,resources/DBN.BMP,Door3,0.362574895,-0.016826948,1,0,0,1.6795,optionRight,70,7405,4,1,0,1,0,1,,,,,,,,,,,,,,,,,,,,,,,,,,,,,,,,,,,,,,,
,,,,,,,,2023-08-16_08h37.57.234,HF_wild_card,2022.2.4,Linux x86_64,60.06006006,62729ff6b6e5922c7cc5f2dd,64d2fd46c836a06233681665,64dc7cc11d0cef07606f0a3c,,,,,,,decisionTrl,resources/DBN.BMP,resources/DR.BMP,Door3,-0.387370666,-0.00519069,1,0,0,1.0146,optionLeft,70,7475,4,2,0,2,0,1,,,,,,,,,,,,,,,,,,,,,,,,,,,,,,,,,,,,,,,
,,,,,,,,2023-08-16_08h37.57.234,HF_wild_card,2022.2.4,Linux x86_64,60.06006006,62729ff6b6e5922c7cc5f2dd,64d2fd46c836a06233681665,64dc7cc11d0cef07606f0a3c,,,,,,,ctch,resources/DG.BMP,resources/DBN.BMP,Door3,0.350545088,-0.034793536,1,0,0,0.992,optionRight,70,7545,4,3,0,3,0,1,,,,,,,,,,,,,,,,,,,,,,,,,,,,,,,,,,,,,,,
,,,,,,,,2023-08-16_08h37.57.234,HF_wild_card,2022.2.4,Linux x86_64,60.06006006,62729ff6b6e5922c7cc5f2dd,64d2fd46c836a06233681665,64dc7cc11d0cef07606f0a3c,,,,,,,decisionTrl,resources/DY.BMP,resources/DB.BMP,WildCard_Ex,-0.415679097,-0.044517795,1,0,0,1.6346,optionLeft,95,7640,4,4,0,4,0,1,,,,,,,,,,,,,,,,,,,,,,,,,,,,,,,,,,,,,,,
,,,,,,,,2023-08-16_08h37.57.234,HF_wild_card,2022.2.4,Linux x86_64,60.06006006,62729ff6b6e5922c7cc5f2dd,64d2fd46c836a06233681665,64dc7cc11d0cef07606f0a3c,,,,,,,decisionTrl,resources/DG.BMP,resources/DB.BMP,Door2,-0.393544674,-0.026560942,1,0,0,2.5464,optionLeft,20,7660,4,5,0,5,0,1,,,,,,,,,,,,,,,,,,,,,,,,,,,,,,,,,,,,,,,
,,,,,,,,2023-08-16_08h37.57.234,HF_wild_card,2022.2.4,Linux x86_64,60.06006006,62729ff6b6e5922c7cc5f2dd,64d2fd46c836a06233681665,64dc7cc11d0cef07606f0a3c,,,,,,,decisionTrl,resources/DBN.BMP,resources/DR.BMP,Door3,-0.385924737,0.00050048,1,0,0,0.884,optionLeft,70,7730,4,6,0,6,0,1,,,,,,,,,,,,,,,,,,,,,,,,,,,,,,,,,,,,,,,
,,,,,,,,2023-08-16_08h37.57.234,HF_wild_card,2022.2.4,Linux x86_64,60.06006006,62729ff6b6e5922c7cc5f2dd,64d2fd46c836a06233681665,64dc7cc11d0cef07606f0a3c,,,,,,,decisionTrl,resources/DB.BMP,resources/DG.BMP,Door1,-0.464456638,-0.015818199,1,0,0,1.8712,optionLeft,30,7760,4,7,0,7,0,1,,,,,,,,,,,,,,,,,,,,,,,,,,,,,,,,,,,,,,,
,,,,,,,,2023-08-16_08h37.57.234,HF_wild_card,2022.2.4,Linux x86_64,60.06006006,62729ff6b6e5922c7cc5f2dd,64d2fd46c836a06233681665,64dc7cc11d0cef07606f0a3c,,,,,,,ctch,resources/DB.BMP,resources/DR.BMP,Door4,0.347590049,-0.026221156,1,0,0,1.0485,optionRight,80,7840,4,8,0,8,0,1,,,,,,,,,,,,,,,,,,,,,,,,,,,,,,,,,,,,,,,
,,,,,,,,2023-08-16_08h37.57.234,HF_wild_card,2022.2.4,Linux x86_64,60.06006006,62729ff6b6e5922c7cc5f2dd,64d2fd46c836a06233681665,64dc7cc11d0cef07606f0a3c,,,,,,,decisionTrl,resources/DG.BMP,resources/DB.BMP,Door1,0.364591281,-0.034206788,1,0,0,1.4639,optionRight,30,7870,4,9,0,9,0,1,,,,,,,,,,,,,,,,,,,,,,,,,,,,,,,,,,,,,,,
,,,,,,,,2023-08-16_08h37.57.234,HF_wild_card,2022.2.4,Linux x86_64,60.06006006,62729ff6b6e5922c7cc5f2dd,64d2fd46c836a06233681665,64dc7cc11d0cef07606f0a3c,,,,,,,decisionTrl,resources/DBN.BMP,resources/DR.BMP,Door3,-0.441445986,-0.014513453,1,0,0,0.8501,optionLeft,70,7940,4,10,0,10,0,1,,,,,,,,,,,,,,,,,,,,,,,,,,,,,,,,,,,,,,,
,,,,,,,,2023-08-16_08h37.57.234,HF_wild_card,2022.2.4,Linux x86_64,60.06006006,62729ff6b6e5922c7cc5f2dd,64d2fd46c836a06233681665,64dc7cc11d0cef07606f0a3c,,,,,,,ctch,resources/DBN.BMP,resources/DG.BMP,Door3,-0.421345989,0.012684385,1,0,0,0.8404,optionLeft,70,8010,4,11,0,11,0,1,,,,,,,,,,,,,,,,,,,,,,,,,,,,,,,,,,,,,,,
,,,,,,,,2023-08-16_08h37.57.234,HF_wild_card,2022.2.4,Linux x86_64,60.06006006,62729ff6b6e5922c7cc5f2dd,64d2fd46c836a06233681665,64dc7cc11d0cef07606f0a3c,,,,,,,ctch,resources/DR.BMP,resources/DB.BMP,Door4,-0.339880466,-0.035828114,1,0,0,1.008,optionLeft,60,8070,4,12,0,12,0,1,,,,,,,,,,,,,,,,,,,,,,,,,,,,,,,,,,,,,,,
,,,,,,,,2023-08-16_08h37.57.234,HF_wild_card,2022.2.4,Linux x86_64,60.06006006,62729ff6b6e5922c7cc5f2dd,64d2fd46c836a06233681665,64dc7cc11d0cef07606f0a3c,,,,,,,decisionTrl,resources/DB.BMP,resources/DG.BMP,Door2,0.407100439,-0.029157003,1,0,0,2.541,optionRight,20,8090,4,13,0,13,0,1,,,,,,,,,,,,,,,,,,,,,,,,,,,,,,,,,,,,,,,
,,,,,,,,2023-08-16_08h37.57.234,HF_wild_card,2022.2.4,Linux x86_64,60.06006006,62729ff6b6e5922c7cc5f2dd,64d2fd46c836a06233681665,64dc7cc11d0cef07606f0a3c,,,,,,,decisionTrl,resources/DG.BMP,resources/DY.BMP,WildCard_Ex,0.452134768,-0.049457113,1,0,0,1.0631,optionRight,5,8095,4,14,0,14,0,1,,,,,,,,,,,,,,,,,,,,,,,,,,,,,,,,,,,,,,,
,,,,,,,,2023-08-16_08h37.57.234,HF_wild_card,2022.2.4,Linux x86_64,60.06006006,62729ff6b6e5922c7cc5f2dd,64d2fd46c836a06233681665,64dc7cc11d0cef07606f0a3c,,,,,,,decisionTrl,resources/DB.BMP,resources/DG.BMP,Door1,-0.435589552,-0.046823184,1,0,0,1.6684,optionLeft,30,8125,4,15,0,15,0,1,,,,,,,,,,,,,,,,,,,,,,,,,,,,,,,,,,,,,,,
,,,,,,,,2023-08-16_08h37.57.234,HF_wild_card,2022.2.4,Linux x86_64,60.06006006,62729ff6b6e5922c7cc5f2dd,64d2fd46c836a06233681665,64dc7cc11d0cef07606f0a3c,,,,,,,sngl,resources/Empty.png,resources/DY.BMP,WildCard_Ex,0.364210049,-0.026473284,1,0,0,0.9305,optionRight,5,8130,4,16,0,16,0,1,,,,,,,,,,,,,,,,,,,,,,,,,,,,,,,,,,,,,,,
,,,,,,,,2023-08-16_08h37.57.234,HF_wild_card,2022.2.4,Linux x86_64,60.06006006,62729ff6b6e5922c7cc5f2dd,64d2fd46c836a06233681665,64dc7cc11d0cef07606f0a3c,,,,,,,ctch,resources/DB.BMP,resources/DR.BMP,Door4,0.349040906,-0.0409923,1,0,0,0.9965,optionRight,60,8190,4,17,0,17,0,1,,,,,,,,,,,,,,,,,,,,,,,,,,,,,,,,,,,,,,,
,,,,,,,,2023-08-16_08h37.57.234,HF_wild_card,2022.2.4,Linux x86_64,60.06006006,62729ff6b6e5922c7cc5f2dd,64d2fd46c836a06233681665,64dc7cc11d0cef07606f0a3c,,,,,,,sngl,resources/Empty.png,resources/DG.BMP,Door2,0.533159574,-0.053518335,1,0,0,0.9743,optionRight,40,8230,4,18,0,18,0,1,,,,,,,,,,,,,,,,,,,,,,,,,,,,,,,,,,,,,,,
,,,,,,,,2023-08-16_08h37.57.234,HF_wild_card,2022.2.4,Linux x86_64,60.06006006,62729ff6b6e5922c7cc5f2dd,64d2fd46c836a06233681665,64dc7cc11d0cef07606f0a3c,,,,,,,ctch,resources/DR.BMP,resources/DB.BMP,Door4,-0.37223959,-0.050764879,1,0,0,1.0538,optionLeft,80,8310,4,19,0,19,0,1,,,,,,,,,,,,,,,,,,,,,,,,,,,,,,,,,,,,,,,
,,,,,,,,2023-08-16_08h37.57.234,HF_wild_card,2022.2.4,Linux x86_64,60.06006006,62729ff6b6e5922c7cc5f2dd,64d2fd46c836a06233681665,64dc7cc11d0cef07606f0a3c,,,,,,,decisionTrl,resources/DB.BMP,resources/DG.BMP,Door1,-0.347524563,-0.064966718,1,0,0,1.9385,optionLeft,30,8340,4,20,0,20,0,1,,,,,,,,,,,,,,,,,,,,,,,,,,,,,,,,,,,,,,,
,,,,,,,,2023-08-16_08h37.57.234,HF_wild_card,2022.2.4,Linux x86_64,60.06006006,62729ff6b6e5922c7cc5f2dd,64d2fd46c836a06233681665,64dc7cc11d0cef07606f0a3c,,,,,,,ctch,resources/DBN.BMP,resources/DG.BMP,Door3,-0.370397846,-0.010239283,1,0,0,0.8164,optionLeft,70,8410,4,21,0,21,0,1,,,,,,,,,,,,,,,,,,,,,,,,,,,,,,,,,,,,,,,
,,,,,,,,2023-08-16_08h37.57.234,HF_wild_card,2022.2.4,Linux x86_64,60.06006006,62729ff6b6e5922c7cc5f2dd,64d2fd46c836a06233681665,64dc7cc11d0cef07606f0a3c,,,,,,,sngl,resources/DG.BMP,resources/Empty.png,Door2,-0.406781475,-0.02313598,1,0,0,0.6904,optionLeft,20,8430,4,22,0,22,0,1,,,,,,,,,,,,,,,,,,,,,,,,,,,,,,,,,,,,,,,
,,,,,,,,2023-08-16_08h37.57.234,HF_wild_card,2022.2.4,Linux x86_64,60.06006006,62729ff6b6e5922c7cc5f2dd,64d2fd46c836a06233681665,64dc7cc11d0cef07606f0a3c,,,,,,,decisionTrl,resources/DY.BMP,resources/DR.BMP,WildCard_Ex,-0.399617314,-0.02653865,1,0,0,5.7738,optionLeft,95,8525,4,23,0,23,0,1,,,,,,,,,,,,,,,,,,,,,,,,,,,,,,,,,,,,,,,
,,,,,,,,2023-08-16_08h37.57.234,HF_wild_card,2022.2.4,Linux x86_64,60.06006006,62729ff6b6e5922c7cc5f2dd,64d2fd46c836a06233681665,64dc7cc11d0cef07606f0a3c,,,,,,,decisionTrl,resources/DG.BMP,resources/DB.BMP,Door1,0.380646308,-0.051981091,1,0,0,1.1703,optionRight,30,8555,4,24,0,24,0,1,,,,,,,,,,,,,,,,,,,,,,,,,,,,,,,,,,,,,,,
,,,,,,,,2023-08-16_08h37.57.234,HF_wild_card,2022.2.4,Linux x86_64,60.06006006,62729ff6b6e5922c7cc5f2dd,64d2fd46c836a06233681665,64dc7cc11d0cef07606f0a3c,,,,,,,sngl,resources/DB.BMP,resources/Empty.png,Door1,-0.351214449,-0.045653423,1,0,0,0.785,optionLeft,30,8585,4,25,0,25,0,1,,,,,,,,,,,,,,,,,,,,,,,,,,,,,,,,,,,,,,,
,,,,,,,,2023-08-16_08h37.57.234,HF_wild_card,2022.2.4,Linux x86_64,60.06006006,62729ff6b6e5922c7cc5f2dd,64d2fd46c836a06233681665,64dc7cc11d0cef07606f0a3c,,,,,,,sngl,resources/Empty.png,resources/DY.BMP,WildCard_Ex,0.376110236,-0.051299373,1,0,0,1.0364,optionRight,95,8680,4,26,0,26,0,1,,,,,,,,,,,,,,,,,,,,,,,,,,,,,,,,,,,,,,,
,,,,,,,,2023-08-16_08h37.57.234,HF_wild_card,2022.2.4,Linux x86_64,60.06006006,62729ff6b6e5922c7cc5f2dd,64d2fd46c836a06233681665,64dc7cc11d0cef07606f0a3c,,,,,,,decisionTrl,resources/DR.BMP,resources/DBN.BMP,Door3,0.361000458,-0.046308676,1,0,0,1.2457,optionRight,70,8750,4,27,0,27,0,1,,,,,,,,,,,,,,,,,,,,,,,,,,,,,,,,,,,,,,,
,,,,,,,,2023-08-16_08h37.57.234,HF_wild_card,2022.2.4,Linux x86_64,60.06006006,62729ff6b6e5922c7cc5f2dd,64d2fd46c836a06233681665,64dc7cc11d0cef07606f0a3c,,,,,,,decisionTrl,resources/DBN.BMP,resources/DR.BMP,Door3,-0.410387993,-0.033358773,1,0,0,0.9854,optionLeft,70,8820,4,28,0,28,0,1,,,,,,,,,,,,,,,,,,,,,,,,,,,,,,,,,,,,,,,
,,,,,,,,2023-08-16_08h37.57.234,HF_wild_card,2022.2.4,Linux x86_64,60.06006006,62729ff6b6e5922c7cc5f2dd,64d2fd46c836a06233681665,64dc7cc11d0cef07606f0a3c,,,,,,,decisionTrl,resources/DR.BMP,resources/DBN.BMP,Door3,0.366122882,-0.037961443,1,0,0,0.9159,optionRight,70,8890,4,29,0,29,0,1,,,,,,,,,,,,,,,,,,,,,,,,,,,,,,,,,,,,,,,
,,,,,,,,2023-08-16_08h37.57.234,HF_wild_card,2022.2.4,Linux x86_64,60.06006006,62729ff6b6e5922c7cc5f2dd,64d2fd46c836a06233681665,64dc7cc11d0cef07606f0a3c,,,,,,,sngl,resources/Empty.png,resources/DBN.BMP,Door3,0.366252899,-0.046424111,1,0,0,0.8029,optionRight,70,8960,4,30,0,30,0,1,,,,,,,,,,,,,,,,,,,,,,,,,,,,,,,,,,,,,,,
,,,,,,,,2023-08-16_08h37.57.234,HF_wild_card,2022.2.4,Linux x86_64,60.06006006,62729ff6b6e5922c7cc5f2dd,64d2fd46c836a06233681665,64dc7cc11d0cef07606f0a3c,,,,,,,decisionTrl,resources/DY.BMP,resources/DG.BMP,WildCard_Ex,-0.359024723,-0.04901437,1,0,0,1.0732,optionLeft,95,9055,4,31,0,31,0,1,,,,,,,,,,,,,,,,,,,,,,,,,,,,,,,,,,,,,,,
,,,,,,,,2023-08-16_08h37.57.234,HF_wild_card,2022.2.4,Linux x86_64,60.06006006,62729ff6b6e5922c7cc5f2dd,64d2fd46c836a06233681665,64dc7cc11d0cef07606f0a3c,,,,,,,sngl,resources/DY.BMP,resources/Empty.png,WildCard_Ex,-0.322824121,-0.053288062,1,0,0,0.9562,optionLeft,5,9060,4,32,0,32,0,1,,,,,,,,,,,,,,,,,,,,,,,,,,,,,,,,,,,,,,,
,,,,,,,,2023-08-16_08h37.57.234,HF_wild_card,2022.2.4,Linux x86_64,60.06006006,62729ff6b6e5922c7cc5f2dd,64d2fd46c836a06233681665,64dc7cc11d0cef07606f0a3c,,,,,,,sngl,resources/DR.BMP,resources/Empty.png,Door4,-0.361269673,-0.034459313,1,0,0,0.9055,optionLeft,60,9120,4,33,0,33,0,1,,,,,,,,,,,,,,,,,,,,,,,,,,,,,,,,,,,,,,,
,,,,,,,,2023-08-16_08h37.57.234,HF_wild_card,2022.2.4,Linux x86_64,60.06006006,62729ff6b6e5922c7cc5f2dd,64d2fd46c836a06233681665,64dc7cc11d0cef07606f0a3c,,,,,,,decisionTrl,resources/DR.BMP,resources/DBN.BMP,Door3,0.398021619,-0.047641913,1,0,0,0.7737,optionRight,70,9190,4,34,0,34,0,1,,,,,,,,,,,,,,,,,,,,,,,,,,,,,,,,,,,,,,,
,,,,,,,,2023-08-16_08h37.57.234,HF_wild_card,2022.2.4,Linux x86_64,60.06006006,62729ff6b6e5922c7cc5f2dd,64d2fd46c836a06233681665,64dc7cc11d0cef07606f0a3c,,,,,,,sngl,resources/DY.BMP,resources/Empty.png,WildCard_Ex,-0.393966556,-0.044548988,1,0,0,1.0537,optionLeft,95,9285,4,35,0,35,0,1,,,,,,,,,,,,,,,,,,,,,,,,,,,,,,,,,,,,,,,
,,,,,,,,2023-08-16_08h37.57.234,HF_wild_card,2022.2.4,Linux x86_64,60.06006006,62729ff6b6e5922c7cc5f2dd,64d2fd46c836a06233681665,64dc7cc11d0cef07606f0a3c,,,,,,,sngl,resources/Empty.png,resources/DB.BMP,Door1,0.419614474,-0.046108365,1,0,0,0.8634,optionRight,30,9315,4,36,0,36,0,1,,,,,,,,,,,,,,,,,,,,,,,,,,,,,,,,,,,,,,,
,,,,,,,,2023-08-16_08h37.57.234,HF_wild_card,2022.2.4,Linux x86_64,60.06006006,62729ff6b6e5922c7cc5f2dd,64d2fd46c836a06233681665,64dc7cc11d0cef07606f0a3c,,,,,,,decisionTrl,resources/DG.BMP,resources/DB.BMP,Door1,0.390815258,-0.042458336,1,0,0,1.5247,optionRight,30,9345,4,37,0,37,0,1,,,,,,,,,,,,,,,,,,,,,,,,,,,,,,,,,,,,,,,
,,,,,,,,2023-08-16_08h37.57.234,HF_wild_card,2022.2.4,Linux x86_64,60.06006006,62729ff6b6e5922c7cc5f2dd,64d2fd46c836a06233681665,64dc7cc11d0cef07606f0a3c,,,,,,,decisionTrl,resources/DR.BMP,resources/DY.BMP,WildCard_Ex,0.412885825,-0.036301931,1,0,0,1.3313,optionRight,95,9440,4,38,0,38,0,1,,,,,,,,,,,,,,,,,,,,,,,,,,,,,,,,,,,,,,,
,,,,,,,,2023-08-16_08h37.57.234,HF_wild_card,2022.2.4,Linux x86_64,60.06006006,62729ff6b6e5922c7cc5f2dd,64d2fd46c836a06233681665,64dc7cc11d0cef07606f0a3c,,,,,,,sngl,resources/DBN.BMP,resources/Empty.png,Door3,-0.340456764,-0.016861558,1,0,0,0.8501,optionLeft,70,9510,4,39,0,39,0,1,,,,,,,,,,,,,,,,,,,,,,,,,,,,,,,,,,,,,,,
,,,,,,,,2023-08-16_08h37.57.234,HF_wild_card,2022.2.4,Linux x86_64,60.06006006,62729ff6b6e5922c7cc5f2dd,64d2fd46c836a06233681665,64dc7cc11d0cef07606f0a3c,,,,,,,decisionTrl,resources/DB.BMP,resources/DY.BMP,WildCard_Ex,0.406371991,-0.022535841,1,0,0,1.0664,optionRight,95,9605,4,40,0,40,0,1,,,,,,,,,,,,,,,,,,,,,,,,,,,,,,,,,,,,,,,
,,,,,,,,2023-08-16_08h37.57.234,HF_wild_card,2022.2.4,Linux x86_64,60.06006006,62729ff6b6e5922c7cc5f2dd,64d2fd46c836a06233681665,64dc7cc11d0cef07606f0a3c,,,,,,,decisionTrl,resources/DBN.BMP,resources/DY.BMP,WildCard_Ex,0.450604916,-0.044328173,1,0,0,1.2829,optionRight,95,9700,4,41,0,41,0,1,,,,,,,,,,,,,,,,,,,,,,,,,,,,,,,,,,,,,,,
,,,,,,,,2023-08-16_08h37.57.234,HF_wild_card,2022.2.4,Linux x86_64,60.06006006,62729ff6b6e5922c7cc5f2dd,64d2fd46c836a06233681665,64dc7cc11d0cef07606f0a3c,,,,,,,decisionTrl,resources/DY.BMP,resources/DBN.BMP,WildCard_Ex,-0.369360884,-0.062212149,1,0,0,1.9861,optionLeft,5,9705,4,42,0,42,0,1,,,,,,,,,,,,,,,,,,,,,,,,,,,,,,,,,,,,,,,
,,,,,,,,2023-08-16_08h37.57.234,HF_wild_card,2022.2.4,Linux x86_64,60.06006006,62729ff6b6e5922c7cc5f2dd,64d2fd46c836a06233681665,64dc7cc11d0cef07606f0a3c,,,,,,,ctch,resources/DG.BMP,resources/DBN.BMP,Door3,0.463305632,-0.022412896,1,0,0,0.7047,optionRight,70,9775,4,43,0,43,0,1,,,,,,,,,,,,,,,,,,,,,,,,,,,,,,,,,,,,,,,
,,,,,,,,2023-08-16_08h37.57.234,HF_wild_card,2022.2.4,Linux x86_64,60.06006006,62729ff6b6e5922c7cc5f2dd,64d2fd46c836a06233681665,64dc7cc11d0cef07606f0a3c,,,,,,,,,,,,,,,,,,,,,,,,,,3,0,3,0,1,,,,,,,,,,,,,,,,,,,,,,,,,,,,,,,,,,
,,,,,,,,2023-08-16_08h37.57.234,HF_wild_card,2022.2.4,Linux x86_64,60.06006006,62729ff6b6e5922c7cc5f2dd,64d2fd46c836a06233681665,64dc7cc11d0cef07606f0a3c,,,,,,,ctch,resources/DR.BMP,resources/DB.BMP,Door4,-0.459829966,-0.040966272,1,0,0,1.1751,optionLeft,60,9835,5,0,0,0,0,1,,,,,,,,,,,,,,,,,,,,,,,,,,,,,,,,,,,,,,,
,,,,,,,,2023-08-16_08h37.57.234,HF_wild_card,2022.2.4,Linux x86_64,60.06006006,62729ff6b6e5922c7cc5f2dd,64d2fd46c836a06233681665,64dc7cc11d0cef07606f0a3c,,,,,,,decisionTrl,resources/DY.BMP,resources/DB.BMP,Door1,0.372166157,-0.042287747,1,0,0,1.4309,optionRight,30,9865,5,1,0,1,0,1,,,,,,,,,,,,,,,,,,,,,,,,,,,,,,,,,,,,,,,
,,,,,,,,2023-08-16_08h37.57.234,HF_wild_card,2022.2.4,Linux x86_64,60.06006006,62729ff6b6e5922c7cc5f2dd,64d2fd46c836a06233681665,64dc7cc11d0cef07606f0a3c,,,,,,,decisionTrl,resources/DG.BMP,resources/DB.BMP,Door1,0.384133498,-0.061062296,1,0,0,1.4183,optionRight,30,9895,5,2,0,2,0,1,,,,,,,,,,,,,,,,,,,,,,,,,,,,,,,,,,,,,,,
,,,,,,,,2023-08-16_08h37.57.234,HF_wild_card,2022.2.4,Linux x86_64,60.06006006,62729ff6b6e5922c7cc5f2dd,64d2fd46c836a06233681665,64dc7cc11d0cef07606f0a3c,,,,,,,decisionTrl,resources/DB.BMP,resources/DY.BMP,WildCard_Ex,0.389074961,-0.060912927,1,0,0,0.7743,optionRight,95,9990,5,3,0,3,0,1,,,,,,,,,,,,,,,,,,,,,,,,,,,,,,,,,,,,,,,
,,,,,,,,2023-08-16_08h37.57.234,HF_wild_card,2022.2.4,Linux x86_64,60.06006006,62729ff6b6e5922c7cc5f2dd,64d2fd46c836a06233681665,64dc7cc11d0cef07606f0a3c,,,,,,,ctch,resources/DG.BMP,resources/DBN.BMP,Door3,0.450497627,-0.078875264,1,0,0,0.8038,optionRight,70,10060,5,4,0,4,0,1,,,,,,,,,,,,,,,,,,,,,,,,,,,,,,,,,,,,,,,
,,,,,,,,2023-08-16_08h37.57.234,HF_wild_card,2022.2.4,Linux x86_64,60.06006006,62729ff6b6e5922c7cc5f2dd,64d2fd46c836a06233681665,64dc7cc11d0cef07606f0a3c,,,,,,,sngl,resources/Empty.png,resources/DB.BMP,Door1,0.367761691,-0.052728971,1,0,0,0.7967,optionRight,30,10090,5,5,0,5,0,1,,,,,,,,,,,,,,,,,,,,,,,,,,,,,,,,,,,,,,,
,,,,,,,,2023-08-16_08h37.57.234,HF_wild_card,2022.2.4,Linux x86_64,60.06006006,62729ff6b6e5922c7cc5f2dd,64d2fd46c836a06233681665,64dc7cc11d0cef07606f0a3c,,,,,,,decisionTrl,resources/DR.BMP,resources/DBN.BMP,Door3,0.414951404,-0.052877665,1,0,0,0.8792,optionRight,70,10160,5,6,0,6,0,1,,,,,,,,,,,,,,,,,,,,,,,,,,,,,,,,,,,,,,,
,,,,,,,,2023-08-16_08h37.57.234,HF_wild_card,2022.2.4,Linux x86_64,60.06006006,62729ff6b6e5922c7cc5f2dd,64d2fd46c836a06233681665,64dc7cc11d0cef07606f0a3c,,,,,,,decisionTrl,resources/DBN.BMP,resources/DR.BMP,Door3,-0.501828353,-0.009743452,1,0,0,1.1869,optionLeft,70,10230,5,7,0,7,0,1,,,,,,,,,,,,,,,,,,,,,,,,,,,,,,,,,,,,,,,
,,,,,,,,2023-08-16_08h37.57.234,HF_wild_card,2022.2.4,Linux x86_64,60.06006006,62729ff6b6e5922c7cc5f2dd,64d2fd46c836a06233681665,64dc7cc11d0cef07606f0a3c,,,,,,,sngl,resources/Empty.png,resources/DBN.BMP,Door3,0.336319208,-0.087268273,1,0,0,0.6387,optionRight,70,10300,5,8,0,8,0,1,,,,,,,,,,,,,,,,,,,,,,,,,,,,,,,,,,,,,,,
,,,,,,,,2023-08-16_08h37.57.234,HF_wild_card,2022.2.4,Linux x86_64,60.06006006,62729ff6b6e5922c7cc5f2dd,64d2fd46c836a06233681665,64dc7cc11d0cef07606f0a3c,,,,,,,decisionTrl,resources/DB.BMP,resources/DG.BMP,Door1,-0.433731556,-0.025129914,1,0,0,1.4732,optionLeft,30,10330,5,9,0,9,0,1,,,,,,,,,,,,,,,,,,,,,,,,,,,,,,,,,,,,,,,
,,,,,,,,2023-08-16_08h37.57.234,HF_wild_card,2022.2.4,Linux x86_64,60.06006006,62729ff6b6e5922c7cc5f2dd,64d2fd46c836a06233681665,64dc7cc11d0cef07606f0a3c,,,,,,,ctch,resources/DB.BMP,resources/DR.BMP,Door4,0.359498262,-0.064384619,1,0,0,1.0284,optionRight,60,10390,5,10,0,10,0,1,,,,,,,,,,,,,,,,,,,,,,,,,,,,,,,,,,,,,,,
,,,,,,,,2023-08-16_08h37.57.234,HF_wild_card,2022.2.4,Linux x86_64,60.06006006,62729ff6b6e5922c7cc5f2dd,64d2fd46c836a06233681665,64dc7cc11d0cef07606f0a3c,,,,,,,decisionTrl,resources/DB.BMP,resources/DG.BMP,Door1,-0.457501054,-0.046568036,1,0,0,1.2808,optionLeft,30,10420,5,11,0,11,0,1,,,,,,,,,,,,,,,,,,,,,,,,,,,,,,,,,,,,,,,
,,,,,,,,2023-08-16_08h37.57.234,HF_wild_card,2022.2.4,Linux x86_64,60.06006006,62729ff6b6e5922c7cc5f2dd,64d2fd46c836a06233681665,64dc7cc11d0cef07606f0a3c,,,,,,,decisionTrl,resources/DG.BMP,resources/DB.BMP,Door2,-0.364229441,-0.045107206,1,0,0,1.8761,optionLeft,20,10440,5,12,0,12,0,1,,,,,,,,,,,,,,,,,,,,,,,,,,,,,,,,,,,,,,,
,,,,,,,,2023-08-16_08h37.57.234,HF_wild_card,2022.2.4,Linux x86_64,60.06006006,62729ff6b6e5922c7cc5f2dd,64d2fd46c836a06233681665,64dc7cc11d0cef07606f0a3c,,,,,,,ctch,resources/DB.BMP,resources/DR.BMP,Door4,0.401803255,-0.038714528,1,0,0,0.8541,optionRight,80,10520,5,13,0,13,0,1,,,,,,,,,,,,,,,,,,,,,,,,,,,,,,,,,,,,,,,
,,,,,,,,2023-08-16_08h37.57.234,HF_wild_card,2022.2.4,Linux x86_64,60.06006006,62729ff6b6e5922c7cc5f2dd,64d2fd46c836a06233681665,64dc7cc11d0cef07606f0a3c,,,,,,,ctch,resources/DR.BMP,resources/DB.BMP,Door4,-0.355635842,-0.023108999,1,0,0,0.9179,optionLeft,60,10580,5,14,0,14,0,1,,,,,,,,,,,,,,,,,,,,,,,,,,,,,,,,,,,,,,,
,,,,,,,,2023-08-16_08h37.57.234,HF_wild_card,2022.2.4,Linux x86_64,60.06006006,62729ff6b6e5922c7cc5f2dd,64d2fd46c836a06233681665,64dc7cc11d0cef07606f0a3c,,,,,,,decisionTrl,resources/DR.BMP,resources/DBN.BMP,Door4,-0.378947179,-0.034987052,1,0,0,0.9171,optionLeft,60,10640,5,15,0,15,0,1,,,,,,,,,,,,,,,,,,,,,,,,,,,,,,,,,,,,,,,
,,,,,,,,2023-08-16_08h37.57.234,HF_wild_card,2022.2.4,Linux x86_64,60.06006006,62729ff6b6e5922c7cc5f2dd,64d2fd46c836a06233681665,64dc7cc11d0cef07606f0a3c,,,,,,,decisionTrl,resources/DBN.BMP,resources/DR.BMP,Door3,-0.359286467,0.022398949,1,0,0,1.06,optionLeft,70,10710,5,16,0,16,0,1,,,,,,,,,,,,,,,,,,,,,,,,,,,,,,,,,,,,,,,
,,,,,,,,2023-08-16_08h37.57.234,HF_wild_card,2022.2.4,Linux x86_64,60.06006006,62729ff6b6e5922c7cc5f2dd,64d2fd46c836a06233681665,64dc7cc11d0cef07606f0a3c,,,,,,,decisionTrl,resources/DBN.BMP,resources/DR.BMP,Door4,0.325545629,-0.049738646,1,0,0,0.9532,optionRight,60,10770,5,17,0,17,0,1,,,,,,,,,,,,,,,,,,,,,,,,,,,,,,,,,,,,,,,
,,,,,,,,2023-08-16_08h37.57.234,HF_wild_card,2022.2.4,Linux x86_64,60.06006006,62729ff6b6e5922c7cc5f2dd,64d2fd46c836a06233681665,64dc7cc11d0cef07606f0a3c,,,,,,,decisionTrl,resources/DG.BMP,resources/DB.BMP,Door1,0.418530623,-0.060509125,1,0,0,2.2922,optionRight,30,10800,5,18,0,18,0,1,,,,,,,,,,,,,,,,,,,,,,,,,,,,,,,,,,,,,,,
,,,,,,,,2023-08-16_08h37.57.234,HF_wild_card,2022.2.4,Linux x86_64,60.06006006,62729ff6b6e5922c7cc5f2dd,64d2fd46c836a06233681665,64dc7cc11d0cef07606f0a3c,,,,,,,sngl,resources/DY.BMP,resources/Empty.png,WildCard_Ex,-0.406423608,-0.02701803,1,0,0,2.4806,optionLeft,5,10805,5,19,0,19,0,1,,,,,,,,,,,,,,,,,,,,,,,,,,,,,,,,,,,,,,,
,,,,,,,,2023-08-16_08h37.57.234,HF_wild_card,2022.2.4,Linux x86_64,60.06006006,62729ff6b6e5922c7cc5f2dd,64d2fd46c836a06233681665,64dc7cc11d0cef07606f0a3c,,,,,,,sngl,resources/DB.BMP,resources/Empty.png,Door1,-0.446397463,-0.006535053,1,0,0,0.7457,optionLeft,30,10835,5,20,0,20,0,1,,,,,,,,,,,,,,,,,,,,,,,,,,,,,,,,,,,,,,,
,,,,,,,,2023-08-16_08h37.57.234,HF_wild_card,2022.2.4,Linux x86_64,60.06006006,62729ff6b6e5922c7cc5f2dd,64d2fd46c836a06233681665,64dc7cc11d0cef07606f0a3c,,,,,,,sngl,resources/Empty.png,resources/DY.BMP,WildCard_Ex,0.365039825,-0.034320911,1,0,0,0.6251,optionRight,5,10840,5,21,0,21,0,1,,,,,,,,,,,,,,,,,,,,,,,,,,,,,,,,,,,,,,,
,,,,,,,,2023-08-16_08h37.57.234,HF_wild_card,2022.2.4,Linux x86_64,60.06006006,62729ff6b6e5922c7cc5f2dd,64d2fd46c836a06233681665,64dc7cc11d0cef07606f0a3c,,,,,,,decisionTrl,resources/DBN.BMP,resources/DR.BMP,Door3,-0.438210289,0.005925894,1,0,0,0.9179,optionLeft,70,10910,5,22,0,22,0,1,,,,,,,,,,,,,,,,,,,,,,,,,,,,,,,,,,,,,,,
,,,,,,,,2023-08-16_08h37.57.234,HF_wild_card,2022.2.4,Linux x86_64,60.06006006,62729ff6b6e5922c7cc5f2dd,64d2fd46c836a06233681665,64dc7cc11d0cef07606f0a3c,,,,,,,decisionTrl,resources/DY.BMP,resources/DR.BMP,Door4,0.42275238,-0.064333399,1,0,0,1.7547,optionRight,60,10970,5,23,0,23,0,1,,,,,,,,,,,,,,,,,,,,,,,,,,,,,,,,,,,,,,,
,,,,,,,,2023-08-16_08h37.57.234,HF_wild_card,2022.2.4,Linux x86_64,60.06006006,62729ff6b6e5922c7cc5f2dd,64d2fd46c836a06233681665,64dc7cc11d0cef07606f0a3c,,,,,,,decisionTrl,resources/DR.BMP,resources/DBN.BMP,Door3,0.439708869,-0.042821169,1,0,0,0.8196,optionRight,70,11040,5,24,0,24,0,1,,,,,,,,,,,,,,,,,,,,,,,,,,,,,,,,,,,,,,,
,,,,,,,,2023-08-16_08h37.57.234,HF_wild_card,2022.2.4,Linux x86_64,60.06006006,62729ff6b6e5922c7cc5f2dd,64d2fd46c836a06233681665,64dc7cc11d0cef07606f0a3c,,,,,,,sngl,resources/DG.BMP,resources/Empty.png,Door2,-0.315429091,-0.04111735,1,0,0,0.6984,optionLeft,40,11080,5,25,0,25,0,1,,,,,,,,,,,,,,,,,,,,,,,,,,,,,,,,,,,,,,,
,,,,,,,,2023-08-16_08h37.57.234,HF_wild_card,2022.2.4,Linux x86_64,60.06006006,62729ff6b6e5922c7cc5f2dd,64d2fd46c836a06233681665,64dc7cc11d0cef07606f0a3c,,,,,,,decisionTrl,resources/DY.BMP,resources/DG.BMP,Door2,0.410168886,-0.040137808,1,0,0,1.3067,optionRight,20,11100,5,26,0,26,0,1,,,,,,,,,,,,,,,,,,,,,,,,,,,,,,,,,,,,,,,
,,,,,,,,2023-08-16_08h37.57.234,HF_wild_card,2022.2.4,Linux x86_64,60.06006006,62729ff6b6e5922c7cc5f2dd,64d2fd46c836a06233681665,64dc7cc11d0cef07606f0a3c,,,,,,,decisionTrl,resources/DR.BMP,resources/DY.BMP,WildCard_Ex,0.413036426,-0.051638206,1,0,0,0.6687,optionRight,95,11195,5,27,0,27,0,1,,,,,,,,,,,,,,,,,,,,,,,,,,,,,,,,,,,,,,,
,,,,,,,,2023-08-16_08h37.57.234,HF_wild_card,2022.2.4,Linux x86_64,60.06006006,62729ff6b6e5922c7cc5f2dd,64d2fd46c836a06233681665,64dc7cc11d0cef07606f0a3c,,,,,,,sngl,resources/Empty.png,resources/DY.BMP,WildCard_Ex,0.468020439,-0.053989609,1,0,0,0.6455,optionRight,95,11290,5,28,0,28,0,1,,,,,,,,,,,,,,,,,,,,,,,,,,,,,,,,,,,,,,,
,,,,,,,,2023-08-16_08h37.57.234,HF_wild_card,2022.2.4,Linux x86_64,60.06006006,62729ff6b6e5922c7cc5f2dd,64d2fd46c836a06233681665,64dc7cc11d0cef07606f0a3c,,,,,,,decisionTrl,resources/DR.BMP,resources/DBN.BMP,Door3,0.421552261,-0.051438093,1,0,0,0.6475,optionRight,70,11360,5,29,0,29,0,1,,,,,,,,,,,,,,,,,,,,,,,,,,,,,,,,,,,,,,,
,,,,,,,,2023-08-16_08h37.57.234,HF_wild_card,2022.2.4,Linux x86_64,60.06006006,62729ff6b6e5922c7cc5f2dd,64d2fd46c836a06233681665,64dc7cc11d0cef07606f0a3c,,,,,,,ctch,resources/DBN.BMP,resources/DG.BMP,Door3,-0.374997417,-0.016751846,1,0,0,0.8616,optionLeft,70,11430,5,30,0,30,0,1,,,,,,,,,,,,,,,,,,,,,,,,,,,,,,,,,,,,,,,
,,,,,,,,2023-08-16_08h37.57.234,HF_wild_card,2022.2.4,Linux x86_64,60.06006006,62729ff6b6e5922c7cc5f2dd,64d2fd46c836a06233681665,64dc7cc11d0cef07606f0a3c,,,,,,,decisionTrl,resources/DG.BMP,resources/DB.BMP,Door1,0.450064818,-0.048903346,1,0,0,1.0525,optionRight,30,11460,5,31,0,31,0,1,,,,,,,,,,,,,,,,,,,,,,,,,,,,,,,,,,,,,,,
,,,,,,,,2023-08-16_08h37.57.234,HF_wild_card,2022.2.4,Linux x86_64,60.06006006,62729ff6b6e5922c7cc5f2dd,64d2fd46c836a06233681665,64dc7cc11d0cef07606f0a3c,,,,,,,sngl,resources/Empty.png,resources/DR.BMP,Door4,0.398307085,-0.044852972,1,0,0,0.6204,optionRight,60,11520,5,32,0,32,0,1,,,,,,,,,,,,,,,,,,,,,,,,,,,,,,,,,,,,,,,
,,,,,,,,2023-08-16_08h37.57.234,HF_wild_card,2022.2.4,Linux x86_64,60.06006006,62729ff6b6e5922c7cc5f2dd,64d2fd46c836a06233681665,64dc7cc11d0cef07606f0a3c,,,,,,,ctch,resources/DBN.BMP,resources/DG.BMP,Door3,-0.291040262,-0.024578333,1,0,0,1.0754,optionLeft,70,11590,5,33,0,33,0,1,,,,,,,,,,,,,,,,,,,,,,,,,,,,,,,,,,,,,,,
,,,,,,,,2023-08-16_08h37.57.234,HF_wild_card,2022.2.4,Linux x86_64,60.06006006,62729ff6b6e5922c7cc5f2dd,64d2fd46c836a06233681665,64dc7cc11d0cef07606f0a3c,,,,,,,sngl,resources/DR.BMP,resources/Empty.png,Door4,-0.357414842,-0.037834406,1,0,0,0.6563,optionLeft,80,11670,5,34,0,34,0,1,,,,,,,,,,,,,,,,,,,,,,,,,,,,,,,,,,,,,,,
,,,,,,,,2023-08-16_08h37.57.234,HF_wild_card,2022.2.4,Linux x86_64,60.06006006,62729ff6b6e5922c7cc5f2dd,64d2fd46c836a06233681665,64dc7cc11d0cef07606f0a3c,,,,,,,ctch,resources/DG.BMP,resources/DBN.BMP,Door3,0.536228021,-0.048676054,1,0,0,0.6799,optionRight,70,11740,5,35,0,35,0,1,,,,,,,,,,,,,,,,,,,,,,,,,,,,,,,,,,,,,,,
,,,,,,,,2023-08-16_08h37.57.234,HF_wild_card,2022.2.4,Linux x86_64,60.06006006,62729ff6b6e5922c7cc5f2dd,64d2fd46c836a06233681665,64dc7cc11d0cef07606f0a3c,,,,,,,decisionTrl,resources/DG.BMP,resources/DY.BMP,WildCard_Ex,0.435268084,-0.056442539,1,0,0,1.1506,optionRight,95,11835,5,36,0,36,0,1,,,,,,,,,,,,,,,,,,,,,,,,,,,,,,,,,,,,,,,
,,,,,,,,2023-08-16_08h37.57.234,HF_wild_card,2022.2.4,Linux x86_64,60.06006006,62729ff6b6e5922c7cc5f2dd,64d2fd46c836a06233681665,64dc7cc11d0cef07606f0a3c,,,,,,,sngl,resources/DY.BMP,resources/Empty.png,WildCard_Ex,-0.308447361,-0.047410885,1,0,0,0.9234,optionLeft,95,11930,5,37,0,37,0,1,,,,,,,,,,,,,,,,,,,,,,,,,,,,,,,,,,,,,,,
,,,,,,,,2023-08-16_08h37.57.234,HF_wild_card,2022.2.4,Linux x86_64,60.06006006,62729ff6b6e5922c7cc5f2dd,64d2fd46c836a06233681665,64dc7cc11d0cef07606f0a3c,,,,,,,sngl,resources/DBN.BMP,resources/Empty.png,Door3,-0.385847648,-0.046351194,1,0,0,1.0729,optionLeft,70,12000,5,38,0,38,0,1,,,,,,,,,,,,,,,,,,,,,,,,,,,,,,,,,,,,,,,
,,,,,,,,2023-08-16_08h37.57.234,HF_wild_card,2022.2.4,Linux x86_64,60.06006006,62729ff6b6e5922c7cc5f2dd,64d2fd46c836a06233681665,64dc7cc11d0cef07606f0a3c,,,,,,,decisionTrl,resources/DY.BMP,resources/DBN.BMP,WildCard_Ex,-0.358675281,-0.027424375,1,0,0,0.6858,optionLeft,95,12095,5,39,0,39,0,1,,,,,,,,,,,,,,,,,,,,,,,,,,,,,,,,,,,,,,,
,,,,,,,,2023-08-16_08h37.57.234,HF_wild_card,2022.2.4,Linux x86_64,60.06006006,62729ff6b6e5922c7cc5f2dd,64d2fd46c836a06233681665,64dc7cc11d0cef07606f0a3c,,,,,,,decisionTrl,resources/DBN.BMP,resources/DY.BMP,WildCard_Ex,0.388812939,-0.058285634,1,0,0,0.7331,optionRight,5,12100,5,40,0,40,0,1,,,,,,,,,,,,,,,,,,,,,,,,,,,,,,,,,,,,,,,
,,,,,,,,2023-08-16_08h37.57.234,HF_wild_card,2022.2.4,Linux x86_64,60.06006006,62729ff6b6e5922c7cc5f2dd,64d2fd46c836a06233681665,64dc7cc11d0cef07606f0a3c,,,,,,,decisionTrl,resources/DB.BMP,resources/DG.BMP,Door1,-0.332164884,-0.070667823,1,0,0,1.0133,optionLeft,30,12130,5,41,0,41,0,1,,,,,,,,,,,,,,,,,,,,,,,,,,,,,,,,,,,,,,,
,,,,,,,,2023-08-16_08h37.57.234,HF_wild_card,2022.2.4,Linux x86_64,60.06006006,62729ff6b6e5922c7cc5f2dd,64d2fd46c836a06233681665,64dc7cc11d0cef07606f0a3c,,,,,,,decisionTrl,resources/DB.BMP,resources/DG.BMP,Door1,-0.324669639,-0.047855179,1,0,0,1.0596,optionLeft,30,12160,5,42,0,42,0,1,,,,,,,,,,,,,,,,,,,,,,,,,,,,,,,,,,,,,,,
,,,,,,,,2023-08-16_08h37.57.234,HF_wild_card,2022.2.4,Linux x86_64,60.06006006,62729ff6b6e5922c7cc5f2dd,64d2fd46c836a06233681665,64dc7cc11d0cef07606f0a3c,,,,,,,sngl,resources/Empty.png,resources/DG.BMP,Door2,0.414014419,-0.037832141,1,0,0,0.6464,optionRight,20,12180,5,43,0,43,0,1,,,,,,,,,,,,,,,,,,,,,,,,,,,,,,,,,,,,,,,
,,,,,,,,2023-08-16_08h37.57.234,HF_wild_card,2022.2.4,Linux x86_64,60.06006006,62729ff6b6e5922c7cc5f2dd,64d2fd46c836a06233681665,64dc7cc11d0cef07606f0a3c,,,,,,,,,,,,,,,,,,,,,,,,,,4,0,4,0,1,,,,,,,,,,,,,,,,,,,,,,,,,,,,,,,,,,
,,,,,,,,2023-08-16_08h37.57.234,HF_wild_card,2022.2.4,Linux x86_64,60.06006006,62729ff6b6e5922c7cc5f2dd,64d2fd46c836a06233681665,64dc7cc11d0cef07606f0a3c,,,,,,,decisionTrl,resources/DY.BMP,resources/DBN.BMP,WildCard_Ex,-0.352636536,-0.072375099,1,0,0,3.8705,optionLeft,95,12275,6,0,0,0,0,1,,,,,,,,,,,,,,,,,,,,,,,,,,,,,,,,,,,,,,,
,,,,,,,,2023-08-16_08h37.57.234,HF_wild_card,2022.2.4,Linux x86_64,60.06006006,62729ff6b6e5922c7cc5f2dd,64d2fd46c836a06233681665,64dc7cc11d0cef07606f0a3c,,,,,,,ctch,resources/DB.BMP,resources/DR.BMP,Door4,0.408816576,-0.076589187,1,0,0,1.0286,optionRight,80,12355,6,1,0,1,0,1,,,,,,,,,,,,,,,,,,,,,,,,,,,,,,,,,,,,,,,
,,,,,,,,2023-08-16_08h37.57.234,HF_wild_card,2022.2.4,Linux x86_64,60.06006006,62729ff6b6e5922c7cc5f2dd,64d2fd46c836a06233681665,64dc7cc11d0cef07606f0a3c,,,,,,,decisionTrl,resources/DBN.BMP,resources/DR.BMP,Door4,0.373880863,-0.082352956,1,0,0,2.8443,optionRight,60,12415,6,2,0,2,0,1,,,,,,,,,,,,,,,,,,,,,,,,,,,,,,,,,,,,,,,
,,,,,,,,2023-08-16_08h37.57.234,HF_wild_card,2022.2.4,Linux x86_64,60.06006006,62729ff6b6e5922c7cc5f2dd,64d2fd46c836a06233681665,64dc7cc11d0cef07606f0a3c,,,,,,,decisionTrl,resources/DBN.BMP,resources/DY.BMP,WildCard_Ex,0.396838586,-0.073907693,1,0,0,1.4987,optionRight,5,12420,6,3,0,3,0,1,,,,,,,,,,,,,,,,,,,,,,,,,,,,,,,,,,,,,,,
,,,,,,,,2023-08-16_08h37.57.234,HF_wild_card,2022.2.4,Linux x86_64,60.06006006,62729ff6b6e5922c7cc5f2dd,64d2fd46c836a06233681665,64dc7cc11d0cef07606f0a3c,,,,,,,sngl,resources/Empty.png,resources/DY.BMP,WildCard_Ex,0.356369336,-0.021974683,1,0,0,0.7731,optionRight,95,12515,6,4,0,4,0,1,,,,,,,,,,,,,,,,,,,,,,,,,,,,,,,,,,,,,,,
,,,,,,,,2023-08-16_08h37.57.234,HF_wild_card,2022.2.4,Linux x86_64,60.06006006,62729ff6b6e5922c7cc5f2dd,64d2fd46c836a06233681665,64dc7cc11d0cef07606f0a3c,,,,,,,decisionTrl,resources/DG.BMP,resources/DB.BMP,Door1,0.328519742,-0.034280419,1,0,0,1.3859,optionRight,30,12545,6,5,0,5,0,1,,,,,,,,,,,,,,,,,,,,,,,,,,,,,,,,,,,,,,,
,,,,,,,,2023-08-16_08h37.57.234,HF_wild_card,2022.2.4,Linux x86_64,60.06006006,62729ff6b6e5922c7cc5f2dd,64d2fd46c836a06233681665,64dc7cc11d0cef07606f0a3c,,,,,,,decisionTrl,resources/DG.BMP,resources/DY.BMP,Door2,-0.35617888,-0.03579545,1,0,0,1.4377,optionLeft,20,12565,6,6,0,6,0,1,,,,,,,,,,,,,,,,,,,,,,,,,,,,,,,,,,,,,,,
,,,,,,,,2023-08-16_08h37.57.234,HF_wild_card,2022.2.4,Linux x86_64,60.06006006,62729ff6b6e5922c7cc5f2dd,64d2fd46c836a06233681665,64dc7cc11d0cef07606f0a3c,,,,,,,sngl,resources/DR.BMP,resources/Empty.png,Door4,-0.394328952,-0.030222932,1,0,0,0.8005,optionLeft,60,12625,6,7,0,7,0,1,,,,,,,,,,,,,,,,,,,,,,,,,,,,,,,,,,,,,,,
,,,,,,,,2023-08-16_08h37.57.234,HF_wild_card,2022.2.4,Linux x86_64,60.06006006,62729ff6b6e5922c7cc5f2dd,64d2fd46c836a06233681665,64dc7cc11d0cef07606f0a3c,,,,,,,ctch,resources/DBN.BMP,resources/DG.BMP,Door3,-0.402565281,-0.004319469,1,0,0,0.7724,optionLeft,70,12695,6,8,0,8,0,1,,,,,,,,,,,,,,,,,,,,,,,,,,,,,,,,,,,,,,,
,,,,,,,,2023-08-16_08h37.57.234,HF_wild_card,2022.2.4,Linux x86_64,60.06006006,62729ff6b6e5922c7cc5f2dd,64d2fd46c836a06233681665,64dc7cc11d0cef07606f0a3c,,,,,,,sngl,resources/DB.BMP,resources/Empty.png,Door1,-0.344675342,-0.049770872,1,0,0,0.7413,optionLeft,30,12725,6,9,0,9,0,1,,,,,,,,,,,,,,,,,,,,,,,,,,,,,,,,,,,,,,,
,,,,,,,,2023-08-16_08h37.57.234,HF_wild_card,2022.2.4,Linux x86_64,60.06006006,62729ff6b6e5922c7cc5f2dd,64d2fd46c836a06233681665,64dc7cc11d0cef07606f0a3c,,,,,,,decisionTrl,resources/DR.BMP,resources/DY.BMP,WildCard_Ex,0.390769243,-0.070369562,1,0,0,2.6477,optionRight,5,12730,6,10,0,10,0,1,,,,,,,,,,,,,,,,,,,,,,,,,,,,,,,,,,,,,,,
,,,,,,,,2023-08-16_08h37.57.234,HF_wild_card,2022.2.4,Linux x86_64,60.06006006,62729ff6b6e5922c7cc5f2dd,64d2fd46c836a06233681665,64dc7cc11d0cef07606f0a3c,,,,,,,decisionTrl,resources/DG.BMP,resources/DB.BMP,Door1,0.463703473,-0.05621322,1,0,0,1.0879,optionRight,30,12760,6,11,0,11,0,1,,,,,,,,,,,,,,,,,,,,,,,,,,,,,,,,,,,,,,,
,,,,,,,,2023-08-16_08h37.57.234,HF_wild_card,2022.2.4,Linux x86_64,60.06006006,62729ff6b6e5922c7cc5f2dd,64d2fd46c836a06233681665,64dc7cc11d0cef07606f0a3c,,,,,,,sngl,resources/DBN.BMP,resources/Empty.png,Door3,-0.396024028,-0.045474648,1,0,0,0.6422,optionLeft,70,12830,6,12,0,12,0,1,,,,,,,,,,,,,,,,,,,,,,,,,,,,,,,,,,,,,,,
,,,,,,,,2023-08-16_08h37.57.234,HF_wild_card,2022.2.4,Linux x86_64,60.06006006,62729ff6b6e5922c7cc5f2dd,64d2fd46c836a06233681665,64dc7cc11d0cef07606f0a3c,,,,,,,sngl,resources/DY.BMP,resources/Empty.png,WildCard_Ex,-0.366210659,-0.047982732,1,0,0,0.7246,optionLeft,95,12925,6,13,0,13,0,1,,,,,,,,,,,,,,,,,,,,,,,,,,,,,,,,,,,,,,,
,,,,,,,,2023-08-16_08h37.57.234,HF_wild_card,2022.2.4,Linux x86_64,60.06006006,62729ff6b6e5922c7cc5f2dd,64d2fd46c836a06233681665,64dc7cc11d0cef07606f0a3c,,,,,,,ctch,resources/DB.BMP,resources/DR.BMP,Door4,0.426157236,-0.070363084,1,0,0,0.786,optionRight,60,12985,6,14,0,14,0,1,,,,,,,,,,,,,,,,,,,,,,,,,,,,,,,,,,,,,,,
,,,,,,,,2023-08-16_08h37.57.234,HF_wild_card,2022.2.4,Linux x86_64,60.06006006,62729ff6b6e5922c7cc5f2dd,64d2fd46c836a06233681665,64dc7cc11d0cef07606f0a3c,,,,,,,ctch,resources/DBN.BMP,resources/DG.BMP,Door3,-0.329132915,-0.038207928,1,0,0,0.7825,optionLeft,70,13055,6,15,0,15,0,1,,,,,,,,,,,,,,,,,,,,,,,,,,,,,,,,,,,,,,,
,,,,,,,,2023-08-16_08h37.57.234,HF_wild_card,2022.2.4,Linux x86_64,60.06006006,62729ff6b6e5922c7cc5f2dd,64d2fd46c836a06233681665,64dc7cc11d0cef07606f0a3c,,,,,,,decisionTrl,resources/DR.BMP,resources/DBN.BMP,Door3,0.385482947,-0.071440339,1,0,0,0.7979,optionRight,70,13125,6,16,0,16,0,1,,,,,,,,,,,,,,,,,,,,,,,,,,,,,,,,,,,,,,,
,,,,,,,,2023-08-16_08h37.57.234,HF_wild_card,2022.2.4,Linux x86_64,60.06006006,62729ff6b6e5922c7cc5f2dd,64d2fd46c836a06233681665,64dc7cc11d0cef07606f0a3c,,,,,,,sngl,resources/Empty.png,resources/DB.BMP,Door1,0.408995946,-0.083756725,1,0,0,0.7944,optionRight,30,13155,6,17,0,17,0,1,,,,,,,,,,,,,,,,,,,,,,,,,,,,,,,,,,,,,,,
,,,,,,,,2023-08-16_08h37.57.234,HF_wild_card,2022.2.4,Linux x86_64,60.06006006,62729ff6b6e5922c7cc5f2dd,64d2fd46c836a06233681665,64dc7cc11d0cef07606f0a3c,,,,,,,ctch,resources/DR.BMP,resources/DB.BMP,Door4,-0.344168742,-0.060377677,1,0,0,1.0924,optionLeft,60,13215,6,18,0,18,0,1,,,,,,,,,,,,,,,,,,,,,,,,,,,,,,,,,,,,,,,
,,,,,,,,2023-08-16_08h37.57.234,HF_wild_card,2022.2.4,Linux x86_64,60.06006006,62729ff6b6e5922c7cc5f2dd,64d2fd46c836a06233681665,64dc7cc11d0cef07606f0a3c,,,,,,,decisionTrl,resources/DR.BMP,resources/DBN.BMP,Door3,0.396978617,-0.089147369,1,0,0,0.872,optionRight,70,13285,6,19,0,19,0,1,,,,,,,,,,,,,,,,,,,,,,,,,,,,,,,,,,,,,,,
,,,,,,,,2023-08-16_08h37.57.234,HF_wild_card,2022.2.4,Linux x86_64,60.06006006,62729ff6b6e5922c7cc5f2dd,64d2fd46c836a06233681665,64dc7cc11d0cef07606f0a3c,,,,,,,decisionTrl,resources/DB.BMP,resources/DY.BMP,WildCard_Ex,0.392368555,-0.043934425,1,0,0,1.0085,optionRight,5,13290,6,20,0,20,0,1,,,,,,,,,,,,,,,,,,,,,,,,,,,,,,,,,,,,,,,
,,,,,,,,2023-08-16_08h37.57.234,HF_wild_card,2022.2.4,Linux x86_64,60.06006006,62729ff6b6e5922c7cc5f2dd,64d2fd46c836a06233681665,64dc7cc11d0cef07606f0a3c,,,,,,,decisionTrl,resources/DG.BMP,resources/DB.BMP,Door1,0.355718454,-0.046090643,1,0,0,1.2466,optionRight,30,13320,6,21,0,21,0,1,,,,,,,,,,,,,,,,,,,,,,,,,,,,,,,,,,,,,,,
,,,,,,,,2023-08-16_08h37.57.234,HF_wild_card,2022.2.4,Linux x86_64,60.06006006,62729ff6b6e5922c7cc5f2dd,64d2fd46c836a06233681665,64dc7cc11d0cef07606f0a3c,,,,,,,decisionTrl,resources/DR.BMP,resources/DBN.BMP,Door3,0.411159277,-0.033516606,1,0,0,0.641,optionRight,70,13390,6,22,0,22,0,1,,,,,,,,,,,,,,,,,,,,,,,,,,,,,,,,,,,,,,,
,,,,,,,,2023-08-16_08h37.57.234,HF_wild_card,2022.2.4,Linux x86_64,60.06006006,62729ff6b6e5922c7cc5f2dd,64d2fd46c836a06233681665,64dc7cc11d0cef07606f0a3c,,,,,,,sngl,resources/Empty.png,resources/DBN.BMP,Door3,0.342090686,-0.033323089,1,0,0,0.5918,optionRight,70,13460,6,23,0,23,0,1,,,,,,,,,,,,,,,,,,,,,,,,,,,,,,,,,,,,,,,
,,,,,,,,2023-08-16_08h37.57.234,HF_wild_card,2022.2.4,Linux x86_64,60.06006006,62729ff6b6e5922c7cc5f2dd,64d2fd46c836a06233681665,64dc7cc11d0cef07606f0a3c,,,,,,,sngl,resources/Empty.png,resources/DG.BMP,Door2,0.401593049,-0.042252302,1,0,0,0.7975,optionRight,40,13500,6,24,0,24,0,1,,,,,,,,,,,,,,,,,,,,,,,,,,,,,,,,,,,,,,,
,,,,,,,,2023-08-16_08h37.57.234,HF_wild_card,2022.2.4,Linux x86_64,60.06006006,62729ff6b6e5922c7cc5f2dd,64d2fd46c836a06233681665,64dc7cc11d0cef07606f0a3c,,,,,,,sngl,resources/DG.BMP,resources/Empty.png,Door2,-0.345841448,-0.036860307,1,0,0,0.7149,optionLeft,20,13520,6,25,0,25,0,1,,,,,,,,,,,,,,,,,,,,,,,,,,,,,,,,,,,,,,,
,,,,,,,,2023-08-16_08h37.57.234,HF_wild_card,2022.2.4,Linux x86_64,60.06006006,62729ff6b6e5922c7cc5f2dd,64d2fd46c836a06233681665,64dc7cc11d0cef07606f0a3c,,,,,,,sngl,resources/DY.BMP,resources/Empty.png,WildCard_Ex,-0.348515113,-0.059530298,1,0,0,1.1531,optionLeft,5,13525,6,26,0,26,0,1,,,,,,,,,,,,,,,,,,,,,,,,,,,,,,,,,,,,,,,
,,,,,,,,2023-08-16_08h37.57.234,HF_wild_card,2022.2.4,Linux x86_64,60.06006006,62729ff6b6e5922c7cc5f2dd,64d2fd46c836a06233681665,64dc7cc11d0cef07606f0a3c,,,,,,,ctch,resources/DG.BMP,resources/DBN.BMP,Door3,0.413706303,-0.060397625,1,0,0,0.7138,optionRight,70,13595,6,27,0,27,0,1,,,,,,,,,,,,,,,,,,,,,,,,,,,,,,,,,,,,,,,
,,,,,,,,2023-08-16_08h37.57.234,HF_wild_card,2022.2.4,Linux x86_64,60.06006006,62729ff6b6e5922c7cc5f2dd,64d2fd46c836a06233681665,64dc7cc11d0cef07606f0a3c,,,,,,,decisionTrl,resources/DG.BMP,resources/DB.BMP,Door1,0.379783154,-0.072977026,1,0,0,0.9383,optionRight,30,13625,6,28,0,28,0,1,,,,,,,,,,,,,,,,,,,,,,,,,,,,,,,,,,,,,,,
,,,,,,,,2023-08-16_08h37.57.234,HF_wild_card,2022.2.4,Linux x86_64,60.06006006,62729ff6b6e5922c7cc5f2dd,64d2fd46c836a06233681665,64dc7cc11d0cef07606f0a3c,,,,,,,ctch,resources/DG.BMP,resources/DBN.BMP,Door3,0.387096405,-0.051562389,1,0,0,0.5909,optionRight,70,13695,6,29,0,29,0,1,,,,,,,,,,,,,,,,,,,,,,,,,,,,,,,,,,,,,,,
,,,,,,,,2023-08-16_08h37.57.234,HF_wild_card,2022.2.4,Linux x86_64,60.06006006,62729ff6b6e5922c7cc5f2dd,64d2fd46c836a06233681665,64dc7cc11d0cef07606f0a3c,,,,,,,decisionTrl,resources/DB.BMP,resources/DG.BMP,Door1,-0.378311435,-0.031475703,1,0,0,1.4842,optionLeft,30,13725,6,30,0,30,0,1,,,,,,,,,,,,,,,,,,,,,,,,,,,,,,,,,,,,,,,
,,,,,,,,2023-08-16_08h37.57.234,HF_wild_card,2022.2.4,Linux x86_64,60.06006006,62729ff6b6e5922c7cc5f2dd,64d2fd46c836a06233681665,64dc7cc11d0cef07606f0a3c,,,,,,,decisionTrl,resources/DB.BMP,resources/DG.BMP,Door1,-0.370941639,-0.047913909,1,0,0,1.0208,optionLeft,30,13755,6,31,0,31,0,1,,,,,,,,,,,,,,,,,,,,,,,,,,,,,,,,,,,,,,,
,,,,,,,,2023-08-16_08h37.57.234,HF_wild_card,2022.2.4,Linux x86_64,60.06006006,62729ff6b6e5922c7cc5f2dd,64d2fd46c836a06233681665,64dc7cc11d0cef07606f0a3c,,,,,,,decisionTrl,resources/DB.BMP,resources/DG.BMP,Door1,-0.413368742,-0.059995254,1,0,0,0.9241,optionLeft,30,13785,6,32,0,32,0,1,,,,,,,,,,,,,,,,,,,,,,,,,,,,,,,,,,,,,,,
,,,,,,,,2023-08-16_08h37.57.234,HF_wild_card,2022.2.4,Linux x86_64,60.06006006,62729ff6b6e5922c7cc5f2dd,64d2fd46c836a06233681665,64dc7cc11d0cef07606f0a3c,,,,,,,decisionTrl,resources/DBN.BMP,resources/DR.BMP,Door3,-0.417116682,-0.05907317,1,0,0,0.8352,optionLeft,70,13855,6,33,0,33,0,1,,,,,,,,,,,,,,,,,,,,,,,,,,,,,,,,,,,,,,,
,,,,,,,,2023-08-16_08h37.57.234,HF_wild_card,2022.2.4,Linux x86_64,60.06006006,62729ff6b6e5922c7cc5f2dd,64d2fd46c836a06233681665,64dc7cc11d0cef07606f0a3c,,,,,,,decisionTrl,resources/DY.BMP,resources/DR.BMP,WildCard_Ex,-0.326793035,-0.033665697,1,0,0,1.2211,optionLeft,5,13860,6,34,0,34,0,1,,,,,,,,,,,,,,,,,,,,,,,,,,,,,,,,,,,,,,,
,,,,,,,,2023-08-16_08h37.57.234,HF_wild_card,2022.2.4,Linux x86_64,60.06006006,62729ff6b6e5922c7cc5f2dd,64d2fd46c836a06233681665,64dc7cc11d0cef07606f0a3c,,,,,,,decisionTrl,resources/DY.BMP,resources/DB.BMP,WildCard_Ex,-0.340807438,-0.051778634,1,0,0,0.641,optionLeft,5,13865,6,35,0,35,0,1,,,,,,,,,,,,,,,,,,,,,,,,,,,,,,,,,,,,,,,
,,,,,,,,2023-08-16_08h37.57.234,HF_wild_card,2022.2.4,Linux x86_64,60.06006006,62729ff6b6e5922c7cc5f2dd,64d2fd46c836a06233681665,64dc7cc11d0cef07606f0a3c,,,,,,,decisionTrl,resources/DY.BMP,resources/DG.BMP,Door2,0.407117128,-0.087899248,1,0,0,1.467,optionRight,40,13905,6,36,0,36,0,1,,,,,,,,,,,,,,,,,,,,,,,,,,,,,,,,,,,,,,,
,,,,,,,,2023-08-16_08h37.57.234,HF_wild_card,2022.2.4,Linux x86_64,60.06006006,62729ff6b6e5922c7cc5f2dd,64d2fd46c836a06233681665,64dc7cc11d0cef07606f0a3c,,,,,,,ctch,resources/DR.BMP,resources/DB.BMP,Door4,-0.325426499,-0.056162596,1,0,0,0.7983,optionLeft,80,13985,6,37,0,37,0,1,,,,,,,,,,,,,,,,,,,,,,,,,,,,,,,,,,,,,,,
,,,,,,,,2023-08-16_08h37.57.234,HF_wild_card,2022.2.4,Linux x86_64,60.06006006,62729ff6b6e5922c7cc5f2dd,64d2fd46c836a06233681665,64dc7cc11d0cef07606f0a3c,,,,,,,decisionTrl,resources/DR.BMP,resources/DBN.BMP,Door3,0.370825211,-0.029815276,1,0,0,0.7265,optionRight,70,14055,6,38,0,38,0,1,,,,,,,,,,,,,,,,,,,,,,,,,,,,,,,,,,,,,,,
,,,,,,,,2023-08-16_08h37.57.234,HF_wild_card,2022.2.4,Linux x86_64,60.06006006,62729ff6b6e5922c7cc5f2dd,64d2fd46c836a06233681665,64dc7cc11d0cef07606f0a3c,,,,,,,decisionTrl,resources/DBN.BMP,resources/DR.BMP,Door3,-0.340393345,-0.043769916,1,0,0,0.8281,optionLeft,70,14125,6,39,0,39,0,1,,,,,,,,,,,,,,,,,,,,,,,,,,,,,,,,,,,,,,,
,,,,,,,,2023-08-16_08h37.57.234,HF_wild_card,2022.2.4,Linux x86_64,60.06006006,62729ff6b6e5922c7cc5f2dd,64d2fd46c836a06233681665,64dc7cc11d0cef07606f0a3c,,,,,,,decisionTrl,resources/DB.BMP,resources/DG.BMP,Door1,-0.432623506,-0.058428884,1,0,0,1.2643,optionLeft,30,14155,6,40,0,40,0,1,,,,,,,,,,,,,,,,,,,,,,,,,,,,,,,,,,,,,,,
,,,,,,,,2023-08-16_08h37.57.234,HF_wild_card,2022.2.4,Linux x86_64,60.06006006,62729ff6b6e5922c7cc5f2dd,64d2fd46c836a06233681665,64dc7cc11d0cef07606f0a3c,,,,,,,sngl,resources/Empty.png,resources/DR.BMP,Door4,0.312606255,-0.064192891,1,0,0,0.7557,optionRight,80,14235,6,41,0,41,0,1,,,,,,,,,,,,,,,,,,,,,,,,,,,,,,,,,,,,,,,
,,,,,,,,2023-08-16_08h37.57.234,HF_wild_card,2022.2.4,Linux x86_64,60.06006006,62729ff6b6e5922c7cc5f2dd,64d2fd46c836a06233681665,64dc7cc11d0cef07606f0a3c,,,,,,,sngl,resources/Empty.png,resources/DY.BMP,WildCard_Ex,0.388222059,-0.077537974,1,0,0,0.8263,optionRight,5,14240,6,42,0,42,0,1,,,,,,,,,,,,,,,,,,,,,,,,,,,,,,,,,,,,,,,
,,,,,,,,2023-08-16_08h37.57.234,HF_wild_card,2022.2.4,Linux x86_64,60.06006006,62729ff6b6e5922c7cc5f2dd,64d2fd46c836a06233681665,64dc7cc11d0cef07606f0a3c,,,,,,,decisionTrl,resources/DBN.BMP,resources/DR.BMP,Door3,-0.371031284,-0.047433098,1,0,0,0.8144,optionLeft,70,14310,6,43,0,43,0,1,,,,,,,,,,,,,,,,,,,,,,,,,,,,,,,,,,,,,,,
,,,,,,,,2023-08-16_08h37.57.234,HF_wild_card,2022.2.4,Linux x86_64,60.06006006,62729ff6b6e5922c7cc5f2dd,64d2fd46c836a06233681665,64dc7cc11d0cef07606f0a3c,,,,,,,,,,,,,,,,,,,,,,,,,,5,0,5,0,1,,,,,,,,,,,,,,,,,,,,,,,,,,,,,,,,,,
,,,,,,,,2023-08-16_08h37.57.234,HF_wild_card,2022.2.4,Linux x86_64,60.06006006,62729ff6b6e5922c7cc5f2dd,64d2fd46c836a06233681665,64dc7cc11d0cef07606f0a3c,,,,,,,ctch,resources/DB.BMP,resources/DR.BMP,Door4,0.389964342,-0.038794955,1,0,0,1.2619,optionRight,60,14370,7,0,0,0,0,1,,,,,,,,,,,,,,,,,,,,,,,,,,,,,,,,,,,,,,,
,,,,,,,,2023-08-16_08h37.57.234,HF_wild_card,2022.2.4,Linux x86_64,60.06006006,62729ff6b6e5922c7cc5f2dd,64d2fd46c836a06233681665,64dc7cc11d0cef07606f0a3c,,,,,,,decisionTrl,resources/DR.BMP,resources/DBN.BMP,Door3,0.364481608,-0.015146732,1,0,0,2.1292,optionRight,70,14440,7,1,0,1,0,1,,,,,,,,,,,,,,,,,,,,,,,,,,,,,,,,,,,,,,,
,,,,,,,,2023-08-16_08h37.57.234,HF_wild_card,2022.2.4,Linux x86_64,60.06006006,62729ff6b6e5922c7cc5f2dd,64d2fd46c836a06233681665,64dc7cc11d0cef07606f0a3c,,,,,,,ctch,resources/DG.BMP,resources/DBN.BMP,Door3,0.433128198,-0.03732729,1,0,0,0.6822,optionRight,70,14510,7,2,0,2,0,1,,,,,,,,,,,,,,,,,,,,,,,,,,,,,,,,,,,,,,,
,,,,,,,,2023-08-16_08h37.57.234,HF_wild_card,2022.2.4,Linux x86_64,60.06006006,62729ff6b6e5922c7cc5f2dd,64d2fd46c836a06233681665,64dc7cc11d0cef07606f0a3c,,,,,,,decisionTrl,resources/DR.BMP,resources/DBN.BMP,Door3,0.416634003,-0.040024718,1,0,0,0.628,optionRight,70,14580,7,3,0,3,0,1,,,,,,,,,,,,,,,,,,,,,,,,,,,,,,,,,,,,,,,
,,,,,,,,2023-08-16_08h37.57.234,HF_wild_card,2022.2.4,Linux x86_64,60.06006006,62729ff6b6e5922c7cc5f2dd,64d2fd46c836a06233681665,64dc7cc11d0cef07606f0a3c,,,,,,,ctch,resources/DB.BMP,resources/DR.BMP,Door4,0.353682518,-0.052704612,1,0,0,0.8091,optionRight,60,14640,7,4,0,4,0,1,,,,,,,,,,,,,,,,,,,,,,,,,,,,,,,,,,,,,,,
,,,,,,,,2023-08-16_08h37.57.234,HF_wild_card,2022.2.4,Linux x86_64,60.06006006,62729ff6b6e5922c7cc5f2dd,64d2fd46c836a06233681665,64dc7cc11d0cef07606f0a3c,,,,,,,decisionTrl,resources/DB.BMP,resources/DG.BMP,Door1,-0.418151538,-0.043583949,1,0,0,1.1185,optionLeft,30,14670,7,5,0,5,0,1,,,,,,,,,,,,,,,,,,,,,,,,,,,,,,,,,,,,,,,
,,,,,,,,2023-08-16_08h37.57.234,HF_wild_card,2022.2.4,Linux x86_64,60.06006006,62729ff6b6e5922c7cc5f2dd,64d2fd46c836a06233681665,64dc7cc11d0cef07606f0a3c,,,,,,,ctch,resources/DR.BMP,resources/DB.BMP,Door4,-0.374728759,-0.053815365,1,0,0,0.6922,optionLeft,60,14730,7,6,0,6,0,1,,,,,,,,,,,,,,,,,,,,,,,,,,,,,,,,,,,,,,,
,,,,,,,,2023-08-16_08h37.57.234,HF_wild_card,2022.2.4,Linux x86_64,60.06006006,62729ff6b6e5922c7cc5f2dd,64d2fd46c836a06233681665,64dc7cc11d0cef07606f0a3c,,,,,,,ctch,resources/DBN.BMP,resources/DG.BMP,Door3,-0.380190849,-0.042062839,1,0,0,0.6606,optionLeft,70,14800,7,7,0,7,0,1,,,,,,,,,,,,,,,,,,,,,,,,,,,,,,,,,,,,,,,
,,,,,,,,2023-08-16_08h37.57.234,HF_wild_card,2022.2.4,Linux x86_64,60.06006006,62729ff6b6e5922c7cc5f2dd,64d2fd46c836a06233681665,64dc7cc11d0cef07606f0a3c,,,,,,,decisionTrl,resources/DB.BMP,resources/DG.BMP,Door1,-0.370051861,-0.054242293,1,0,0,1.2218,optionLeft,30,14830,7,8,0,8,0,1,,,,,,,,,,,,,,,,,,,,,,,,,,,,,,,,,,,,,,,
,,,,,,,,2023-08-16_08h37.57.234,HF_wild_card,2022.2.4,Linux x86_64,60.06006006,62729ff6b6e5922c7cc5f2dd,64d2fd46c836a06233681665,64dc7cc11d0cef07606f0a3c,,,,,,,decisionTrl,resources/DR.BMP,resources/DBN.BMP,Door3,0.315826813,-0.067895889,1,0,0,0.7128,optionRight,70,14900,7,9,0,9,0,1,,,,,,,,,,,,,,,,,,,,,,,,,,,,,,,,,,,,,,,
,,,,,,,,2023-08-16_08h37.57.234,HF_wild_card,2022.2.4,Linux x86_64,60.06006006,62729ff6b6e5922c7cc5f2dd,64d2fd46c836a06233681665,64dc7cc11d0cef07606f0a3c,,,,,,,decisionTrl,resources/DG.BMP,resources/DB.BMP,Door1,0.462396304,-0.073945403,1,0,0,1.1453,optionRight,30,14930,7,10,0,10,0,1,,,,,,,,,,,,,,,,,,,,,,,,,,,,,,,,,,,,,,,
,,,,,,,,2023-08-16_08h37.57.234,HF_wild_card,2022.2.4,Linux x86_64,60.06006006,62729ff6b6e5922c7cc5f2dd,64d2fd46c836a06233681665,64dc7cc11d0cef07606f0a3c,,,,,,,decisionTrl,resources/DG.BMP,resources/DB.BMP,Door1,0.408127308,-0.068099817,1,0,0,0.9984,optionRight,30,14960,7,11,0,11,0,1,,,,,,,,,,,,,,,,,,,,,,,,,,,,,,,,,,,,,,,
,,,,,,,,2023-08-16_08h37.57.234,HF_wild_card,2022.2.4,Linux x86_64,60.06006006,62729ff6b6e5922c7cc5f2dd,64d2fd46c836a06233681665,64dc7cc11d0cef07606f0a3c,,,,,,,ctch,resources/DR.BMP,resources/DB.BMP,Door4,-0.353321989,-0.068952243,1,0,0,0.7615,optionLeft,80,15040,7,12,0,12,0,1,,,,,,,,,,,,,,,,,,,,,,,,,,,,,,,,,,,,,,,
,,,,,,,,2023-08-16_08h37.57.234,HF_wild_card,2022.2.4,Linux x86_64,60.06006006,62729ff6b6e5922c7cc5f2dd,64d2fd46c836a06233681665,64dc7cc11d0cef07606f0a3c,,,,,,,ctch,resources/DR.BMP,resources/DB.BMP,Door4,-0.392800291,-0.056076447,1,0,0,1.1427,optionLeft,60,15100,7,13,0,13,0,1,,,,,,,,,,,,,,,,,,,,,,,,,,,,,,,,,,,,,,,
,,,,,,,,2023-08-16_08h37.57.234,HF_wild_card,2022.2.4,Linux x86_64,60.06006006,62729ff6b6e5922c7cc5f2dd,64d2fd46c836a06233681665,64dc7cc11d0cef07606f0a3c,,,,,,,decisionTrl,resources/DBN.BMP,resources/DR.BMP,Door3,-0.359962225,-0.02386423,1,0,0,0.9405,optionLeft,70,15170,7,14,0,14,0,1,,,,,,,,,,,,,,,,,,,,,,,,,,,,,,,,,,,,,,,
,,,,,,,,2023-08-16_08h37.57.234,HF_wild_card,2022.2.4,Linux x86_64,60.06006006,62729ff6b6e5922c7cc5f2dd,64d2fd46c836a06233681665,64dc7cc11d0cef07606f0a3c,,,,,,,decisionTrl,resources/DG.BMP,resources/DB.BMP,Door1,0.390324354,-0.068542918,1,0,0,0.9962,optionRight,30,15200,7,15,0,15,0,1,,,,,,,,,,,,,,,,,,,,,,,,,,,,,,,,,,,,,,,
,,,,,,,,2023-08-16_08h37.57.234,HF_wild_card,2022.2.4,Linux x86_64,60.06006006,62729ff6b6e5922c7cc5f2dd,64d2fd46c836a06233681665,64dc7cc11d0cef07606f0a3c,,,,,,,decisionTrl,resources/DB.BMP,resources/DG.BMP,Door1,-0.312416196,-0.04248782,1,0,0,1.2044,optionLeft,30,15230,7,16,0,16,0,1,,,,,,,,,,,,,,,,,,,,,,,,,,,,,,,,,,,,,,,
,,,,,,,,2023-08-16_08h37.57.234,HF_wild_card,2022.2.4,Linux x86_64,60.06006006,62729ff6b6e5922c7cc5f2dd,64d2fd46c836a06233681665,64dc7cc11d0cef07606f0a3c,,,,,,,ctch,resources/DB.BMP,resources/DR.BMP,Door4,0.346153339,-0.076487939,1,0,0,0.8831,optionRight,60,15290,7,17,0,17,0,1,,,,,,,,,,,,,,,,,,,,,,,,,,,,,,,,,,,,,,,
,,,,,,,,2023-08-16_08h37.57.234,HF_wild_card,2022.2.4,Linux x86_64,60.06006006,62729ff6b6e5922c7cc5f2dd,64d2fd46c836a06233681665,64dc7cc11d0cef07606f0a3c,,,,,,,ctch,resources/DBN.BMP,resources/DG.BMP,Door3,-0.300695181,-0.057703535,1,0,0,0.6775,optionLeft,70,15360,7,18,0,18,0,1,,,,,,,,,,,,,,,,,,,,,,,,,,,,,,,,,,,,,,,
,,,,,,,,2023-08-16_08h37.57.234,HF_wild_card,2022.2.4,Linux x86_64,60.06006006,62729ff6b6e5922c7cc5f2dd,64d2fd46c836a06233681665,64dc7cc11d0cef07606f0a3c,,,,,,,decisionTrl,resources/DR.BMP,resources/DBN.BMP,Door3,0.40594991,-0.074724515,1,0,0,0.7805,optionRight,70,15430,7,19,0,19,0,1,,,,,,,,,,,,,,,,,,,,,,,,,,,,,,,,,,,,,,,
,,,,,,,,2023-08-16_08h37.57.234,HF_wild_card,2022.2.4,Linux x86_64,60.06006006,62729ff6b6e5922c7cc5f2dd,64d2fd46c836a06233681665,64dc7cc11d0cef07606f0a3c,,,,,,,decisionTrl,resources/DB.BMP,resources/DG.BMP,Door1,-0.326415062,-0.058323661,1,0,0,0.9371,optionLeft,30,15460,7,20,0,20,0,1,,,,,,,,,,,,,,,,,,,,,,,,,,,,,,,,,,,,,,,
,,,,,,,,2023-08-16_08h37.57.234,HF_wild_card,2022.2.4,Linux x86_64,60.06006006,62729ff6b6e5922c7cc5f2dd,64d2fd46c836a06233681665,64dc7cc11d0cef07606f0a3c,,,,,,,decisionTrl,resources/DG.BMP,resources/DB.BMP,Door1,0.328322172,-0.071856499,1,0,0,1.1661,optionRight,30,15490,7,21,0,21,0,1,,,,,,,,,,,,,,,,,,,,,,,,,,,,,,,,,,,,,,,
,,,,,,,,2023-08-16_08h37.57.234,HF_wild_card,2022.2.4,Linux x86_64,60.06006006,62729ff6b6e5922c7cc5f2dd,64d2fd46c836a06233681665,64dc7cc11d0cef07606f0a3c,,,,,,,ctch,resources/DG.BMP,resources/DBN.BMP,Door3,0.332183202,-0.064001044,1,0,0,1.0191,optionRight,70,15560,7,22,0,22,0,1,,,,,,,,,,,,,,,,,,,,,,,,,,,,,,,,,,,,,,,
,,,,,,,,2023-08-16_08h37.57.234,HF_wild_card,2022.2.4,Linux x86_64,60.06006006,62729ff6b6e5922c7cc5f2dd,64d2fd46c836a06233681665,64dc7cc11d0cef07606f0a3c,,,,,,,decisionTrl,resources/DG.BMP,resources/DB.BMP,Door1,0.40215524,-0.075576742,1,0,0,0.9375,optionRight,30,15590,7,23,0,23,0,1,,,,,,,,,,,,,,,,,,,,,,,,,,,,,,,,,,,,,,,
,,,,,,,,2023-08-16_08h37.57.234,HF_wild_card,2022.2.4,Linux x86_64,60.06006006,62729ff6b6e5922c7cc5f2dd,64d2fd46c836a06233681665,64dc7cc11d0cef07606f0a3c,,,,,,,ctch,resources/DG.BMP,resources/DBN.BMP,Door3,0.369147142,-0.074088891,1,0,0,0.6494,optionRight,70,15660,7,24,0,24,0,1,,,,,,,,,,,,,,,,,,,,,,,,,,,,,,,,,,,,,,,
,,,,,,,,2023-08-16_08h37.57.234,HF_wild_card,2022.2.4,Linux x86_64,60.06006006,62729ff6b6e5922c7cc5f2dd,64d2fd46c836a06233681665,64dc7cc11d0cef07606f0a3c,,,,,,,decisionTrl,resources/DBN.BMP,resources/DR.BMP,Door3,-0.378881494,-0.022733132,1,0,0,0.868,optionLeft,70,15730,7,25,0,25,0,1,,,,,,,,,,,,,,,,,,,,,,,,,,,,,,,,,,,,,,,
,,,,,,,,2023-08-16_08h37.57.234,HF_wild_card,2022.2.4,Linux x86_64,60.06006006,62729ff6b6e5922c7cc5f2dd,64d2fd46c836a06233681665,64dc7cc11d0cef07606f0a3c,,,,,,,decisionTrl,resources/DBN.BMP,resources/DR.BMP,Door3,-0.39216129,-0.035458406,1,0,0,0.7828,optionLeft,70,15800,7,26,0,26,0,1,,,,,,,,,,,,,,,,,,,,,,,,,,,,,,,,,,,,,,,
,,,,,,,,2023-08-16_08h37.57.234,HF_wild_card,2022.2.4,Linux x86_64,60.06006006,62729ff6b6e5922c7cc5f2dd,64d2fd46c836a06233681665,64dc7cc11d0cef07606f0a3c,,,,,,,decisionTrl,resources/DBN.BMP,resources/DR.BMP,Door3,-0.434361498,-0.029188514,1,0,0,0.6637,optionLeft,70,15870,7,27,0,27,0,1,,,,,,,,,,,,,,,,,,,,,,,,,,,,,,,,,,,,,,,
,,,,,,,,2023-08-16_08h37.57.234,HF_wild_card,2022.2.4,Linux x86_64,60.06006006,62729ff6b6e5922c7cc5f2dd,64d2fd46c836a06233681665,64dc7cc11d0cef07606f0a3c,,,,,,,decisionTrl,resources/DB.BMP,resources/DG.BMP,Door1,-0.327313105,-0.053249478,1,0,0,1.4416,optionLeft,30,15900,7,28,0,28,0,1,,,,,,,,,,,,,,,,,,,,,,,,,,,,,,,,,,,,,,,
,,,,,,,,2023-08-16_08h37.57.234,HF_wild_card,2022.2.4,Linux x86_64,60.06006006,62729ff6b6e5922c7cc5f2dd,64d2fd46c836a06233681665,64dc7cc11d0cef07606f0a3c,,,,,,,decisionTrl,resources/DBN.BMP,resources/DR.BMP,Door3,-0.405049125,-0.010214965,1,0,0,0.6752,optionLeft,70,15970,7,29,0,29,0,1,,,,,,,,,,,,,,,,,,,,,,,,,,,,,,,,,,,,,,,
,,,,,,,,2023-08-16_08h37.57.234,HF_wild_card,2022.2.4,Linux x86_64,60.06006006,62729ff6b6e5922c7cc5f2dd,64d2fd46c836a06233681665,64dc7cc11d0cef07606f0a3c,,,,,,,decisionTrl,resources/DR.BMP,resources/DBN.BMP,Door3,0.307207425,-0.036216577,1,0,0,0.9453,optionRight,70,16040,7,30,0,30,0,1,,,,,,,,,,,,,,,,,,,,,,,,,,,,,,,,,,,,,,,
,,,,,,,,2023-08-16_08h37.57.234,HF_wild_card,2022.2.4,Linux x86_64,60.06006006,62729ff6b6e5922c7cc5f2dd,64d2fd46c836a06233681665,64dc7cc11d0cef07606f0a3c,,,,,,,ctch,resources/DBN.BMP,resources/DG.BMP,Door3,-0.352756699,0.001906951,1,0,0,0.5896,optionLeft,70,16110,7,31,0,31,0,1,,,,,,,,,,,,,,,,,,,,,,,,,,,,,,,,,,,,,,,
,,,,,,,,2023-08-16_08h37.57.234,HF_wild_card,2022.2.4,Linux x86_64,60.06006006,62729ff6b6e5922c7cc5f2dd,64d2fd46c836a06233681665,64dc7cc11d0cef07606f0a3c,,,,,,,decisionTrl,resources/DBN.BMP,resources/DR.BMP,Door3,-0.427200437,0.015064597,1,0,0,0.696,optionLeft,70,16180,7,32,0,32,0,1,,,,,,,,,,,,,,,,,,,,,,,,,,,,,,,,,,,,,,,
,,,,,,,,2023-08-16_08h37.57.234,HF_wild_card,2022.2.4,Linux x86_64,60.06006006,62729ff6b6e5922c7cc5f2dd,64d2fd46c836a06233681665,64dc7cc11d0cef07606f0a3c,,,,,,,decisionTrl,resources/DG.BMP,resources/DB.BMP,Door1,0.378662268,-0.0767289,1,0,0,0.9493,optionRight,30,16210,7,33,0,33,0,1,,,,,,,,,,,,,,,,,,,,,,,,,,,,,,,,,,,,,,,
,,,,,,,,2023-08-16_08h37.57.234,HF_wild_card,2022.2.4,Linux x86_64,60.06006006,62729ff6b6e5922c7cc5f2dd,64d2fd46c836a06233681665,64dc7cc11d0cef07606f0a3c,,,,,,,decisionTrl,resources/DB.BMP,resources/DG.BMP,Door1,-0.348743876,-0.05021294,1,0,0,1.265,optionLeft,30,16240,7,34,0,34,0,1,,,,,,,,,,,,,,,,,,,,,,,,,,,,,,,,,,,,,,,
,,,,,,,,2023-08-16_08h37.57.234,HF_wild_card,2022.2.4,Linux x86_64,60.06006006,62729ff6b6e5922c7cc5f2dd,64d2fd46c836a06233681665,64dc7cc11d0cef07606f0a3c,,,,,,,decisionTrl,resources/DR.BMP,resources/DBN.BMP,Door3,0.345249494,0.020995935,1,0,0,0.8895,optionRight,70,16310,7,35,0,35,0,1,,,,,,,,,,,,,,,,,,,,,,,,,,,,,,,,,,,,,,,
