Condition,Low fixed image (Door1),Low risky image (Door2),High fixed image (Door3),High risky image (Door4),Extreme Wild Card,NonExtreme Wild Card,,date,expName,psychopyVersion,OS,frameRate,PROLIFIC_PID,STUDY_ID,SESSION_ID,mouse_2.x,mouse_2.y,mouse_2.leftButton,mouse_2.midButton,mouse_2.rightButton,mouse_2.clicked_name,Trial Type,Left Option Image,Right Option Image,Chosen Door,mouse.x,mouse.y,mouse.leftButton,mouse.midButton,mouse.rightButton,mouse.time,mouse.clicked_name,Feedback,Cumulative Reward,Block,trial.thisRepN,trial.thisTrialN,trial.thisN,trial.thisIndex,trial.ran,blocks.thisRepN,blocks.thisTrialN,blocks.thisN,blocks.thisIndex,blocks.ran,Money conversion,First Outcome Reported,Shown Door (First Outcome),Displayed Image (First Outcome),outcomes.thisRepN,outcomes.thisTrialN,outcomes.thisN,outcomes.thisIndex,outcomes.ran,judgments.thisRepN,judgments.thisTrialN,judgments.thisN,judgments.thisIndex,judgments.ran,freqMouse.x,freqMouse.y,freqMouse.leftButton,freqMouse.midButton,freqMouse.rightButton,freqMouse.clicked_name,FQJ for first outcome,FQJ for second outcome,Shown Door,Displayed Image,trials.thisRepN,trials.thisTrialN,trials.thisN,trials.thisIndex,trials.ran,judgBlock.thisRepN,judgBlock.thisTrialN,judgBlock.thisN,judgBlock.thisIndex,judgBlock.ran
1,resources/DB.BMP,resources/DP.BMP,resources/DBN.BMP,resources/DR.BMP,resources/DY.BMP,resources/DG.BMP,,2023-08-16_08h39.58.221,HF_wild_card,2022.2.4,Win32,59.99880002,5f1acaacc1b4612139b0619f,64d2fd46c836a06233681665,64dc7cdc1b80bd7d356f0a83,,,,,,,,,,,,,,,,,,,,,,,,,,,,,,,,,,,,,,,,,,,,,,,,,,,,,,,,,,,,,,,,
,,,,,,,,2023-08-16_08h39.58.221,HF_wild_card,2022.2.4,Win32,59.99880002,5f1acaacc1b4612139b0619f,64d2fd46c836a06233681665,64dc7cdc1b80bd7d356f0a83,0,-0.425,1,0,0,agree,,,,,,,,,,,,,,,,,,,,,,,,,,,,,,,,,,,,,,,,,,,,,,,,,,,,,,,,,,
,,,,,,,,2023-08-16_08h39.58.221,HF_wild_card,2022.2.4,Win32,59.99880002,5f1acaacc1b4612139b0619f,64d2fd46c836a06233681665,64dc7cdc1b80bd7d356f0a83,,,,,,,,,,,,,,,,,,,,,,,,,,,,,,,,,,,,,,,,,,,,,,,,,,,,,,,,,,,,,,,,
,,,,,,,,2023-08-16_08h39.58.221,HF_wild_card,2022.2.4,Win32,59.99880002,5f1acaacc1b4612139b0619f,64d2fd46c836a06233681665,64dc7cdc1b80bd7d356f0a83,,,,,,,sngl,resources/DBN.BMP,resources/Empty.png,Door3,-0.344444444,-0.112962963,1,0,0,1.9803,optionLeft,70,70,1,0,0,0,0,1,,,,,,,,,,,,,,,,,,,,,,,,,,,,,,,,,,,,,,,
,,,,,,,,2023-08-16_08h39.58.221,HF_wild_card,2022.2.4,Win32,59.99880002,5f1acaacc1b4612139b0619f,64d2fd46c836a06233681665,64dc7cdc1b80bd7d356f0a83,,,,,,,decisionTrl,resources/DP.BMP,resources/DB.BMP,Door1,0.32962963,-0.006481481,1,0,0,2.3989,optionRight,30,100,1,1,0,1,0,1,,,,,,,,,,,,,,,,,,,,,,,,,,,,,,,,,,,,,,,
,,,,,,,,2023-08-16_08h39.58.221,HF_wild_card,2022.2.4,Win32,59.99880002,5f1acaacc1b4612139b0619f,64d2fd46c836a06233681665,64dc7cdc1b80bd7d356f0a83,,,,,,,decisionTrl,resources/DR.BMP,resources/DBN.BMP,Door3,0.337037037,0,1,0,0,1.2594,optionRight,70,170,1,2,0,2,0,1,,,,,,,,,,,,,,,,,,,,,,,,,,,,,,,,,,,,,,,
,,,,,,,,2023-08-16_08h39.58.221,HF_wild_card,2022.2.4,Win32,59.99880002,5f1acaacc1b4612139b0619f,64d2fd46c836a06233681665,64dc7cdc1b80bd7d356f0a83,,,,,,,decisionTrl,resources/DP.BMP,resources/DB.BMP,Door2,-0.391666667,-0.040740741,1,0,0,1.1491,optionLeft,20,190,1,3,0,3,0,1,,,,,,,,,,,,,,,,,,,,,,,,,,,,,,,,,,,,,,,
,,,,,,,,2023-08-16_08h39.58.221,HF_wild_card,2022.2.4,Win32,59.99880002,5f1acaacc1b4612139b0619f,64d2fd46c836a06233681665,64dc7cdc1b80bd7d356f0a83,,,,,,,sngl,resources/DR.BMP,resources/Empty.png,Door4,-0.350925926,-0.008333333,1,0,0,0.8804,optionLeft,80,270,1,4,0,4,0,1,,,,,,,,,,,,,,,,,,,,,,,,,,,,,,,,,,,,,,,
,,,,,,,,2023-08-16_08h39.58.221,HF_wild_card,2022.2.4,Win32,59.99880002,5f1acaacc1b4612139b0619f,64d2fd46c836a06233681665,64dc7cdc1b80bd7d356f0a83,,,,,,,decisionTrl,resources/DG.BMP,resources/DBN.BMP,Door3,0.367592593,0.008333333,1,0,0,1.8325,optionRight,70,340,1,5,0,5,0,1,,,,,,,,,,,,,,,,,,,,,,,,,,,,,,,,,,,,,,,
,,,,,,,,2023-08-16_08h39.58.221,HF_wild_card,2022.2.4,Win32,59.99880002,5f1acaacc1b4612139b0619f,64d2fd46c836a06233681665,64dc7cdc1b80bd7d356f0a83,,,,,,,sngl,resources/DG.BMP,resources/Empty.png,WildCard_NonEx,-0.331481481,-0.008333333,1,0,0,0.9314,optionLeft,55,395,1,6,0,6,0,1,,,,,,,,,,,,,,,,,,,,,,,,,,,,,,,,,,,,,,,
,,,,,,,,2023-08-16_08h39.58.221,HF_wild_card,2022.2.4,Win32,59.99880002,5f1acaacc1b4612139b0619f,64d2fd46c836a06233681665,64dc7cdc1b80bd7d356f0a83,,,,,,,sngl,resources/DB.BMP,resources/Empty.png,Door1,-0.318518519,-0.007407407,1,0,0,1.0314,optionLeft,30,425,1,7,0,7,0,1,,,,,,,,,,,,,,,,,,,,,,,,,,,,,,,,,,,,,,,
,,,,,,,,2023-08-16_08h39.58.221,HF_wild_card,2022.2.4,Win32,59.99880002,5f1acaacc1b4612139b0619f,64d2fd46c836a06233681665,64dc7cdc1b80bd7d356f0a83,,,,,,,decisionTrl,resources/DP.BMP,resources/DB.BMP,Door1,0.352777778,-0.003703704,1,0,0,2.5653,optionRight,30,455,1,8,0,8,0,1,,,,,,,,,,,,,,,,,,,,,,,,,,,,,,,,,,,,,,,
,,,,,,,,2023-08-16_08h39.58.221,HF_wild_card,2022.2.4,Win32,59.99880002,5f1acaacc1b4612139b0619f,64d2fd46c836a06233681665,64dc7cdc1b80bd7d356f0a83,,,,,,,decisionTrl,resources/DG.BMP,resources/DR.BMP,Door4,0.366666667,-0.007407407,1,0,0,1.2442,optionRight,80,535,1,9,0,9,0,1,,,,,,,,,,,,,,,,,,,,,,,,,,,,,,,,,,,,,,,
,,,,,,,,2023-08-16_08h39.58.221,HF_wild_card,2022.2.4,Win32,59.99880002,5f1acaacc1b4612139b0619f,64d2fd46c836a06233681665,64dc7cdc1b80bd7d356f0a83,,,,,,,sngl,resources/Empty.png,resources/DBN.BMP,Door3,0.373148148,0.04537037,1,0,0,0.8268,optionRight,70,605,1,10,0,10,0,1,,,,,,,,,,,,,,,,,,,,,,,,,,,,,,,,,,,,,,,
,,,,,,,,2023-08-16_08h39.58.221,HF_wild_card,2022.2.4,Win32,59.99880002,5f1acaacc1b4612139b0619f,64d2fd46c836a06233681665,64dc7cdc1b80bd7d356f0a83,,,,,,,sngl,resources/Empty.png,resources/DP.BMP,Door2,0.294444444,0.009259259,1,0,0,0.9774,optionRight,20,625,1,11,0,11,0,1,,,,,,,,,,,,,,,,,,,,,,,,,,,,,,,,,,,,,,,
,,,,,,,,2023-08-16_08h39.58.221,HF_wild_card,2022.2.4,Win32,59.99880002,5f1acaacc1b4612139b0619f,64d2fd46c836a06233681665,64dc7cdc1b80bd7d356f0a83,,,,,,,decisionTrl,resources/DB.BMP,resources/DP.BMP,Door1,-0.301851852,-0.00462963,1,0,0,1.2611,optionLeft,30,655,1,12,0,12,0,1,,,,,,,,,,,,,,,,,,,,,,,,,,,,,,,,,,,,,,,
,,,,,,,,2023-08-16_08h39.58.221,HF_wild_card,2022.2.4,Win32,59.99880002,5f1acaacc1b4612139b0619f,64d2fd46c836a06233681665,64dc7cdc1b80bd7d356f0a83,,,,,,,sngl,resources/Empty.png,resources/DG.BMP,WildCard_NonEx,0.356481481,-0.014814815,1,0,0,0.9611,optionRight,45,700,1,13,0,13,0,1,,,,,,,,,,,,,,,,,,,,,,,,,,,,,,,,,,,,,,,
,,,,,,,,2023-08-16_08h39.58.221,HF_wild_card,2022.2.4,Win32,59.99880002,5f1acaacc1b4612139b0619f,64d2fd46c836a06233681665,64dc7cdc1b80bd7d356f0a83,,,,,,,ctch,resources/DP.BMP,resources/DBN.BMP,Door3,0.292592593,-0.006481481,1,0,0,1.1777,optionRight,70,770,1,14,0,14,0,1,,,,,,,,,,,,,,,,,,,,,,,,,,,,,,,,,,,,,,,
,,,,,,,,2023-08-16_08h39.58.221,HF_wild_card,2022.2.4,Win32,59.99880002,5f1acaacc1b4612139b0619f,64d2fd46c836a06233681665,64dc7cdc1b80bd7d356f0a83,,,,,,,decisionTrl,resources/DP.BMP,resources/DG.BMP,WildCard_NonEx,0.374074074,-0.025,1,0,0,1.794,optionRight,45,815,1,15,0,15,0,1,,,,,,,,,,,,,,,,,,,,,,,,,,,,,,,,,,,,,,,
,,,,,,,,2023-08-16_08h39.58.221,HF_wild_card,2022.2.4,Win32,59.99880002,5f1acaacc1b4612139b0619f,64d2fd46c836a06233681665,64dc7cdc1b80bd7d356f0a83,,,,,,,sngl,resources/Empty.png,resources/DG.BMP,WildCard_NonEx,0.315740741,0.002777778,1,0,0,0.9772,optionRight,55,870,1,16,0,16,0,1,,,,,,,,,,,,,,,,,,,,,,,,,,,,,,,,,,,,,,,
,,,,,,,,2023-08-16_08h39.58.221,HF_wild_card,2022.2.4,Win32,59.99880002,5f1acaacc1b4612139b0619f,64d2fd46c836a06233681665,64dc7cdc1b80bd7d356f0a83,,,,,,,ctch,resources/DBN.BMP,resources/DP.BMP,Door3,-0.351851852,-0.008333333,1,0,0,0.9275,optionLeft,70,940,1,17,0,17,0,1,,,,,,,,,,,,,,,,,,,,,,,,,,,,,,,,,,,,,,,
,,,,,,,,2023-08-16_08h39.58.221,HF_wild_card,2022.2.4,Win32,59.99880002,5f1acaacc1b4612139b0619f,64d2fd46c836a06233681665,64dc7cdc1b80bd7d356f0a83,,,,,,,decisionTrl,resources/DB.BMP,resources/DP.BMP,Door2,0.308333333,-0.001851852,1,0,0,0.7613,optionRight,40,980,1,18,0,18,0,1,,,,,,,,,,,,,,,,,,,,,,,,,,,,,,,,,,,,,,,
,,,,,,,,2023-08-16_08h39.58.221,HF_wild_card,2022.2.4,Win32,59.99880002,5f1acaacc1b4612139b0619f,64d2fd46c836a06233681665,64dc7cdc1b80bd7d356f0a83,,,,,,,decisionTrl,resources/DB.BMP,resources/DP.BMP,Door1,-0.384259259,-0.032407407,1,0,0,1.2777,optionLeft,30,1010,1,19,0,19,0,1,,,,,,,,,,,,,,,,,,,,,,,,,,,,,,,,,,,,,,,
,,,,,,,,2023-08-16_08h39.58.221,HF_wild_card,2022.2.4,Win32,59.99880002,5f1acaacc1b4612139b0619f,64d2fd46c836a06233681665,64dc7cdc1b80bd7d356f0a83,,,,,,,decisionTrl,resources/DBN.BMP,resources/DR.BMP,Door3,-0.411111111,-0.002777778,1,0,0,0.8776,optionLeft,70,1080,1,20,0,20,0,1,,,,,,,,,,,,,,,,,,,,,,,,,,,,,,,,,,,,,,,
,,,,,,,,2023-08-16_08h39.58.221,HF_wild_card,2022.2.4,Win32,59.99880002,5f1acaacc1b4612139b0619f,64d2fd46c836a06233681665,64dc7cdc1b80bd7d356f0a83,,,,,,,sngl,resources/DG.BMP,resources/Empty.png,WildCard_NonEx,-0.390740741,0.000925926,1,0,0,0.7109,optionLeft,45,1125,1,21,0,21,0,1,,,,,,,,,,,,,,,,,,,,,,,,,,,,,,,,,,,,,,,
,,,,,,,,2023-08-16_08h39.58.221,HF_wild_card,2022.2.4,Win32,59.99880002,5f1acaacc1b4612139b0619f,64d2fd46c836a06233681665,64dc7cdc1b80bd7d356f0a83,,,,,,,decisionTrl,resources/DR.BMP,resources/DG.BMP,Door4,-0.293518519,-0.00462963,1,0,0,1.8773,optionLeft,60,1185,1,22,0,22,0,1,,,,,,,,,,,,,,,,,,,,,,,,,,,,,,,,,,,,,,,
,,,,,,,,2023-08-16_08h39.58.221,HF_wild_card,2022.2.4,Win32,59.99880002,5f1acaacc1b4612139b0619f,64d2fd46c836a06233681665,64dc7cdc1b80bd7d356f0a83,,,,,,,ctch,resources/DR.BMP,resources/DB.BMP,Door4,-0.326851852,-0.008333333,1,0,0,1.176,optionLeft,60,1245,1,23,0,23,0,1,,,,,,,,,,,,,,,,,,,,,,,,,,,,,,,,,,,,,,,
,,,,,,,,2023-08-16_08h39.58.221,HF_wild_card,2022.2.4,Win32,59.99880002,5f1acaacc1b4612139b0619f,64d2fd46c836a06233681665,64dc7cdc1b80bd7d356f0a83,,,,,,,sngl,resources/Empty.png,resources/DB.BMP,Door1,0.385185185,-0.014814815,1,0,0,0.7612,optionRight,30,1275,1,24,0,24,0,1,,,,,,,,,,,,,,,,,,,,,,,,,,,,,,,,,,,,,,,
,,,,,,,,2023-08-16_08h39.58.221,HF_wild_card,2022.2.4,Win32,59.99880002,5f1acaacc1b4612139b0619f,64d2fd46c836a06233681665,64dc7cdc1b80bd7d356f0a83,,,,,,,decisionTrl,resources/DG.BMP,resources/DP.BMP,WildCard_NonEx,-0.372222222,-0.010185185,1,0,0,1.0965,optionLeft,55,1330,1,25,0,25,0,1,,,,,,,,,,,,,,,,,,,,,,,,,,,,,,,,,,,,,,,
,,,,,,,,2023-08-16_08h39.58.221,HF_wild_card,2022.2.4,Win32,59.99880002,5f1acaacc1b4612139b0619f,64d2fd46c836a06233681665,64dc7cdc1b80bd7d356f0a83,,,,,,,sngl,resources/Empty.png,resources/DR.BMP,Door4,0.487037037,-0.005555556,1,0,0,0.7434,optionRight,60,1390,1,26,0,26,0,1,,,,,,,,,,,,,,,,,,,,,,,,,,,,,,,,,,,,,,,
,,,,,,,,2023-08-16_08h39.58.221,HF_wild_card,2022.2.4,Win32,59.99880002,5f1acaacc1b4612139b0619f,64d2fd46c836a06233681665,64dc7cdc1b80bd7d356f0a83,,,,,,,decisionTrl,resources/DBN.BMP,resources/DR.BMP,Door3,-0.355555556,-0.012037037,1,0,0,0.8608,optionLeft,70,1460,1,27,0,27,0,1,,,,,,,,,,,,,,,,,,,,,,,,,,,,,,,,,,,,,,,
,,,,,,,,2023-08-16_08h39.58.221,HF_wild_card,2022.2.4,Win32,59.99880002,5f1acaacc1b4612139b0619f,64d2fd46c836a06233681665,64dc7cdc1b80bd7d356f0a83,,,,,,,decisionTrl,resources/DB.BMP,resources/DP.BMP,Door2,0.252777778,-0.001851852,1,0,0,1.0444,optionRight,40,1500,1,28,0,28,0,1,,,,,,,,,,,,,,,,,,,,,,,,,,,,,,,,,,,,,,,
,,,,,,,,2023-08-16_08h39.58.221,HF_wild_card,2022.2.4,Win32,59.99880002,5f1acaacc1b4612139b0619f,64d2fd46c836a06233681665,64dc7cdc1b80bd7d356f0a83,,,,,,,ctch,resources/DP.BMP,resources/DBN.BMP,Door3,0.262037037,-0.008333333,1,0,0,0.9461,optionRight,70,1570,1,29,0,29,0,1,,,,,,,,,,,,,,,,,,,,,,,,,,,,,,,,,,,,,,,
,,,,,,,,2023-08-16_08h39.58.221,HF_wild_card,2022.2.4,Win32,59.99880002,5f1acaacc1b4612139b0619f,64d2fd46c836a06233681665,64dc7cdc1b80bd7d356f0a83,,,,,,,ctch,resources/DB.BMP,resources/DR.BMP,Door4,0.25462963,-0.009259259,1,0,0,1.1606,optionRight,60,1630,1,30,0,30,0,1,,,,,,,,,,,,,,,,,,,,,,,,,,,,,,,,,,,,,,,
,,,,,,,,2023-08-16_08h39.58.221,HF_wild_card,2022.2.4,Win32,59.99880002,5f1acaacc1b4612139b0619f,64d2fd46c836a06233681665,64dc7cdc1b80bd7d356f0a83,,,,,,,decisionTrl,resources/DR.BMP,resources/DBN.BMP,Door3,0.280555556,0.024074074,1,0,0,1.1441,optionRight,70,1700,1,31,0,31,0,1,,,,,,,,,,,,,,,,,,,,,,,,,,,,,,,,,,,,,,,
,,,,,,,,2023-08-16_08h39.58.221,HF_wild_card,2022.2.4,Win32,59.99880002,5f1acaacc1b4612139b0619f,64d2fd46c836a06233681665,64dc7cdc1b80bd7d356f0a83,,,,,,,sngl,resources/DP.BMP,resources/Empty.png,Door2,-0.286111111,0,1,0,0,0.7773,optionLeft,40,1740,1,32,0,32,0,1,,,,,,,,,,,,,,,,,,,,,,,,,,,,,,,,,,,,,,,
,,,,,,,,2023-08-16_08h39.58.221,HF_wild_card,2022.2.4,Win32,59.99880002,5f1acaacc1b4612139b0619f,64d2fd46c836a06233681665,64dc7cdc1b80bd7d356f0a83,,,,,,,decisionTrl,resources/DG.BMP,resources/DB.BMP,WildCard_NonEx,-0.250925926,-0.017592593,1,0,0,1.7271,optionLeft,45,1785,1,33,0,33,0,1,,,,,,,,,,,,,,,,,,,,,,,,,,,,,,,,,,,,,,,
,,,,,,,,2023-08-16_08h39.58.221,HF_wild_card,2022.2.4,Win32,59.99880002,5f1acaacc1b4612139b0619f,64d2fd46c836a06233681665,64dc7cdc1b80bd7d356f0a83,,,,,,,decisionTrl,resources/DBN.BMP,resources/DR.BMP,Door3,-0.239814815,-0.007407407,1,0,0,0.8105,optionLeft,70,1855,1,34,0,34,0,1,,,,,,,,,,,,,,,,,,,,,,,,,,,,,,,,,,,,,,,
,,,,,,,,2023-08-16_08h39.58.221,HF_wild_card,2022.2.4,Win32,59.99880002,5f1acaacc1b4612139b0619f,64d2fd46c836a06233681665,64dc7cdc1b80bd7d356f0a83,,,,,,,decisionTrl,resources/DB.BMP,resources/DG.BMP,Door1,-0.280555556,-0.023148148,1,0,0,2.8266,optionLeft,30,1885,1,35,0,35,0,1,,,,,,,,,,,,,,,,,,,,,,,,,,,,,,,,,,,,,,,
,,,,,,,,2023-08-16_08h39.58.221,HF_wild_card,2022.2.4,Win32,59.99880002,5f1acaacc1b4612139b0619f,64d2fd46c836a06233681665,64dc7cdc1b80bd7d356f0a83,,,,,,,ctch,resources/DR.BMP,resources/DB.BMP,Door4,-0.301851852,0.008333333,1,0,0,1.0438,optionLeft,60,1945,1,36,0,36,0,1,,,,,,,,,,,,,,,,,,,,,,,,,,,,,,,,,,,,,,,
,,,,,,,,2023-08-16_08h39.58.221,HF_wild_card,2022.2.4,Win32,59.99880002,5f1acaacc1b4612139b0619f,64d2fd46c836a06233681665,64dc7cdc1b80bd7d356f0a83,,,,,,,ctch,resources/DB.BMP,resources/DR.BMP,Door4,0.437037037,0.00462963,1,0,0,0.7291,optionRight,60,2005,1,37,0,37,0,1,,,,,,,,,,,,,,,,,,,,,,,,,,,,,,,,,,,,,,,
,,,,,,,,2023-08-16_08h39.58.221,HF_wild_card,2022.2.4,Win32,59.99880002,5f1acaacc1b4612139b0619f,64d2fd46c836a06233681665,64dc7cdc1b80bd7d356f0a83,,,,,,,decisionTrl,resources/DR.BMP,resources/DBN.BMP,Door3,0.29537037,0.012962963,1,0,0,0.8126,optionRight,70,2075,1,38,0,38,0,1,,,,,,,,,,,,,,,,,,,,,,,,,,,,,,,,,,,,,,,
,,,,,,,,2023-08-16_08h39.58.221,HF_wild_card,2022.2.4,Win32,59.99880002,5f1acaacc1b4612139b0619f,64d2fd46c836a06233681665,64dc7cdc1b80bd7d356f0a83,,,,,,,decisionTrl,resources/DP.BMP,resources/DB.BMP,Door2,-0.296296296,-0.025,1,0,0,1.0771,optionLeft,20,2095,1,39,0,39,0,1,,,,,,,,,,,,,,,,,,,,,,,,,,,,,,,,,,,,,,,
,,,,,,,,2023-08-16_08h39.58.221,HF_wild_card,2022.2.4,Win32,59.99880002,5f1acaacc1b4612139b0619f,64d2fd46c836a06233681665,64dc7cdc1b80bd7d356f0a83,,,,,,,decisionTrl,resources/DR.BMP,resources/DBN.BMP,Door3,0.431481481,0.012962963,1,0,0,0.8103,optionRight,70,2165,1,40,0,40,0,1,,,,,,,,,,,,,,,,,,,,,,,,,,,,,,,,,,,,,,,
,,,,,,,,2023-08-16_08h39.58.221,HF_wild_card,2022.2.4,Win32,59.99880002,5f1acaacc1b4612139b0619f,64d2fd46c836a06233681665,64dc7cdc1b80bd7d356f0a83,,,,,,,ctch,resources/DBN.BMP,resources/DP.BMP,Door3,-0.274074074,0.006481481,1,0,0,1.0269,optionLeft,70,2235,1,41,0,41,0,1,,,,,,,,,,,,,,,,,,,,,,,,,,,,,,,,,,,,,,,
,,,,,,,,2023-08-16_08h39.58.221,HF_wild_card,2022.2.4,Win32,59.99880002,5f1acaacc1b4612139b0619f,64d2fd46c836a06233681665,64dc7cdc1b80bd7d356f0a83,,,,,,,decisionTrl,resources/DBN.BMP,resources/DG.BMP,Door3,-0.214814815,-0.012962963,1,0,0,0.7279,optionLeft,70,2305,1,42,0,42,0,1,,,,,,,,,,,,,,,,,,,,,,,,,,,,,,,,,,,,,,,
,,,,,,,,2023-08-16_08h39.58.221,HF_wild_card,2022.2.4,Win32,59.99880002,5f1acaacc1b4612139b0619f,64d2fd46c836a06233681665,64dc7cdc1b80bd7d356f0a83,,,,,,,decisionTrl,resources/DBN.BMP,resources/DR.BMP,Door3,-0.399074074,-0.018518519,1,0,0,0.71,optionLeft,70,2375,1,43,0,43,0,1,,,,,,,,,,,,,,,,,,,,,,,,,,,,,,,,,,,,,,,
,,,,,,,,2023-08-16_08h39.58.221,HF_wild_card,2022.2.4,Win32,59.99880002,5f1acaacc1b4612139b0619f,64d2fd46c836a06233681665,64dc7cdc1b80bd7d356f0a83,,,,,,,,,,,,,,,,,,,,,,,,,,0,0,0,0,1,,,,,,,,,,,,,,,,,,,,,,,,,,,,,,,,,,
,,,,,,,,2023-08-16_08h39.58.221,HF_wild_card,2022.2.4,Win32,59.99880002,5f1acaacc1b4612139b0619f,64d2fd46c836a06233681665,64dc7cdc1b80bd7d356f0a83,,,,,,,decisionTrl,resources/DP.BMP,resources/DB.BMP,Door2,-0.412037037,-0.024074074,1,0,0,2.2025,optionLeft,20,2395,2,0,0,0,0,1,,,,,,,,,,,,,,,,,,,,,,,,,,,,,,,,,,,,,,,
,,,,,,,,2023-08-16_08h39.58.221,HF_wild_card,2022.2.4,Win32,59.99880002,5f1acaacc1b4612139b0619f,64d2fd46c836a06233681665,64dc7cdc1b80bd7d356f0a83,,,,,,,decisionTrl,resources/DB.BMP,resources/DP.BMP,Door1,-0.316666667,-0.015740741,1,0,0,1.1109,optionLeft,30,2425,2,1,0,1,0,1,,,,,,,,,,,,,,,,,,,,,,,,,,,,,,,,,,,,,,,
,,,,,,,,2023-08-16_08h39.58.221,HF_wild_card,2022.2.4,Win32,59.99880002,5f1acaacc1b4612139b0619f,64d2fd46c836a06233681665,64dc7cdc1b80bd7d356f0a83,,,,,,,decisionTrl,resources/DP.BMP,resources/DB.BMP,Door1,0.260185185,0.002777778,1,0,0,0.8276,optionRight,30,2455,2,2,0,2,0,1,,,,,,,,,,,,,,,,,,,,,,,,,,,,,,,,,,,,,,,
,,,,,,,,2023-08-16_08h39.58.221,HF_wild_card,2022.2.4,Win32,59.99880002,5f1acaacc1b4612139b0619f,64d2fd46c836a06233681665,64dc7cdc1b80bd7d356f0a83,,,,,,,decisionTrl,resources/DP.BMP,resources/DB.BMP,Door1,0.234259259,-0.013888889,1,0,0,0.6959,optionRight,30,2485,2,3,0,3,0,1,,,,,,,,,,,,,,,,,,,,,,,,,,,,,,,,,,,,,,,
,,,,,,,,2023-08-16_08h39.58.221,HF_wild_card,2022.2.4,Win32,59.99880002,5f1acaacc1b4612139b0619f,64d2fd46c836a06233681665,64dc7cdc1b80bd7d356f0a83,,,,,,,decisionTrl,resources/DBN.BMP,resources/DR.BMP,Door3,-0.357407407,0.001851852,1,0,0,0.9109,optionLeft,70,2555,2,4,0,4,0,1,,,,,,,,,,,,,,,,,,,,,,,,,,,,,,,,,,,,,,,
,,,,,,,,2023-08-16_08h39.58.221,HF_wild_card,2022.2.4,Win32,59.99880002,5f1acaacc1b4612139b0619f,64d2fd46c836a06233681665,64dc7cdc1b80bd7d356f0a83,,,,,,,sngl,resources/DG.BMP,resources/Empty.png,WildCard_NonEx,-0.385185185,0.003703704,1,0,0,0.8265,optionLeft,45,2600,2,5,0,5,0,1,,,,,,,,,,,,,,,,,,,,,,,,,,,,,,,,,,,,,,,
,,,,,,,,2023-08-16_08h39.58.221,HF_wild_card,2022.2.4,Win32,59.99880002,5f1acaacc1b4612139b0619f,64d2fd46c836a06233681665,64dc7cdc1b80bd7d356f0a83,,,,,,,decisionTrl,resources/DBN.BMP,resources/DR.BMP,Door3,-0.612962963,-0.001851852,1,0,0,0.7776,optionLeft,70,2670,2,6,0,6,0,1,,,,,,,,,,,,,,,,,,,,,,,,,,,,,,,,,,,,,,,
,,,,,,,,2023-08-16_08h39.58.221,HF_wild_card,2022.2.4,Win32,59.99880002,5f1acaacc1b4612139b0619f,64d2fd46c836a06233681665,64dc7cdc1b80bd7d356f0a83,,,,,,,decisionTrl,resources/DBN.BMP,resources/DR.BMP,Door3,-0.464814815,0.000925926,1,0,0,0.7613,optionLeft,70,2740,2,7,0,7,0,1,,,,,,,,,,,,,,,,,,,,,,,,,,,,,,,,,,,,,,,
,,,,,,,,2023-08-16_08h39.58.221,HF_wild_card,2022.2.4,Win32,59.99880002,5f1acaacc1b4612139b0619f,64d2fd46c836a06233681665,64dc7cdc1b80bd7d356f0a83,,,,,,,decisionTrl,resources/DR.BMP,resources/DBN.BMP,Door3,0.325925926,0.008333333,1,0,0,0.6941,optionRight,70,2810,2,8,0,8,0,1,,,,,,,,,,,,,,,,,,,,,,,,,,,,,,,,,,,,,,,
,,,,,,,,2023-08-16_08h39.58.221,HF_wild_card,2022.2.4,Win32,59.99880002,5f1acaacc1b4612139b0619f,64d2fd46c836a06233681665,64dc7cdc1b80bd7d356f0a83,,,,,,,ctch,resources/DBN.BMP,resources/DP.BMP,Door3,-0.218518519,0.002777778,1,0,0,0.6942,optionLeft,70,2880,2,9,0,9,0,1,,,,,,,,,,,,,,,,,,,,,,,,,,,,,,,,,,,,,,,
,,,,,,,,2023-08-16_08h39.58.221,HF_wild_card,2022.2.4,Win32,59.99880002,5f1acaacc1b4612139b0619f,64d2fd46c836a06233681665,64dc7cdc1b80bd7d356f0a83,,,,,,,decisionTrl,resources/DB.BMP,resources/DP.BMP,Door2,0.361111111,-0.032407407,1,0,0,1.5945,optionRight,20,2900,2,10,0,10,0,1,,,,,,,,,,,,,,,,,,,,,,,,,,,,,,,,,,,,,,,
,,,,,,,,2023-08-16_08h39.58.221,HF_wild_card,2022.2.4,Win32,59.99880002,5f1acaacc1b4612139b0619f,64d2fd46c836a06233681665,64dc7cdc1b80bd7d356f0a83,,,,,,,decisionTrl,resources/DR.BMP,resources/DG.BMP,Door4,-0.364814815,-0.007407407,1,0,0,1.8944,optionLeft,60,2960,2,11,0,11,0,1,,,,,,,,,,,,,,,,,,,,,,,,,,,,,,,,,,,,,,,
,,,,,,,,2023-08-16_08h39.58.221,HF_wild_card,2022.2.4,Win32,59.99880002,5f1acaacc1b4612139b0619f,64d2fd46c836a06233681665,64dc7cdc1b80bd7d356f0a83,,,,,,,sngl,resources/Empty.png,resources/DR.BMP,Door4,0.347222222,-0.012962963,1,0,0,0.6102,optionRight,80,3040,2,12,0,12,0,1,,,,,,,,,,,,,,,,,,,,,,,,,,,,,,,,,,,,,,,
,,,,,,,,2023-08-16_08h39.58.221,HF_wild_card,2022.2.4,Win32,59.99880002,5f1acaacc1b4612139b0619f,64d2fd46c836a06233681665,64dc7cdc1b80bd7d356f0a83,,,,,,,sngl,resources/Empty.png,resources/DB.BMP,Door1,0.298148148,-0.012962963,1,0,0,0.6444,optionRight,30,3070,2,13,0,13,0,1,,,,,,,,,,,,,,,,,,,,,,,,,,,,,,,,,,,,,,,
,,,,,,,,2023-08-16_08h39.58.221,HF_wild_card,2022.2.4,Win32,59.99880002,5f1acaacc1b4612139b0619f,64d2fd46c836a06233681665,64dc7cdc1b80bd7d356f0a83,,,,,,,sngl,resources/Empty.png,resources/DG.BMP,WildCard_NonEx,0.285185185,-0.012962963,1,0,0,0.6277,optionRight,45,3115,2,14,0,14,0,1,,,,,,,,,,,,,,,,,,,,,,,,,,,,,,,,,,,,,,,
,,,,,,,,2023-08-16_08h39.58.221,HF_wild_card,2022.2.4,Win32,59.99880002,5f1acaacc1b4612139b0619f,64d2fd46c836a06233681665,64dc7cdc1b80bd7d356f0a83,,,,,,,sngl,resources/DB.BMP,resources/Empty.png,Door1,-0.24537037,-0.02037037,1,0,0,0.5972,optionLeft,30,3145,2,15,0,15,0,1,,,,,,,,,,,,,,,,,,,,,,,,,,,,,,,,,,,,,,,
,,,,,,,,2023-08-16_08h39.58.221,HF_wild_card,2022.2.4,Win32,59.99880002,5f1acaacc1b4612139b0619f,64d2fd46c836a06233681665,64dc7cdc1b80bd7d356f0a83,,,,,,,decisionTrl,resources/DB.BMP,resources/DG.BMP,Door1,-0.22037037,-0.017592593,1,0,0,2.6446,optionLeft,30,3175,2,16,0,16,0,1,,,,,,,,,,,,,,,,,,,,,,,,,,,,,,,,,,,,,,,
,,,,,,,,2023-08-16_08h39.58.221,HF_wild_card,2022.2.4,Win32,59.99880002,5f1acaacc1b4612139b0619f,64d2fd46c836a06233681665,64dc7cdc1b80bd7d356f0a83,,,,,,,decisionTrl,resources/DP.BMP,resources/DG.BMP,Door2,-0.247222222,-0.019444444,1,0,0,0.8437,optionLeft,40,3215,2,17,0,17,0,1,,,,,,,,,,,,,,,,,,,,,,,,,,,,,,,,,,,,,,,
,,,,,,,,2023-08-16_08h39.58.221,HF_wild_card,2022.2.4,Win32,59.99880002,5f1acaacc1b4612139b0619f,64d2fd46c836a06233681665,64dc7cdc1b80bd7d356f0a83,,,,,,,decisionTrl,resources/DB.BMP,resources/DP.BMP,Door2,0.224074074,-0.034259259,1,0,0,1.8778,optionRight,40,3255,2,18,0,18,0,1,,,,,,,,,,,,,,,,,,,,,,,,,,,,,,,,,,,,,,,
,,,,,,,,2023-08-16_08h39.58.221,HF_wild_card,2022.2.4,Win32,59.99880002,5f1acaacc1b4612139b0619f,64d2fd46c836a06233681665,64dc7cdc1b80bd7d356f0a83,,,,,,,sngl,resources/Empty.png,resources/DBN.BMP,Door3,0.191666667,0.016666667,1,0,0,1.2301,optionRight,70,3325,2,19,0,19,0,1,,,,,,,,,,,,,,,,,,,,,,,,,,,,,,,,,,,,,,,
,,,,,,,,2023-08-16_08h39.58.221,HF_wild_card,2022.2.4,Win32,59.99880002,5f1acaacc1b4612139b0619f,64d2fd46c836a06233681665,64dc7cdc1b80bd7d356f0a83,,,,,,,ctch,resources/DP.BMP,resources/DBN.BMP,Door3,0.234259259,0.00462963,1,0,0,0.6835,optionRight,70,3395,2,20,0,20,0,1,,,,,,,,,,,,,,,,,,,,,,,,,,,,,,,,,,,,,,,
,,,,,,,,2023-08-16_08h39.58.221,HF_wild_card,2022.2.4,Win32,59.99880002,5f1acaacc1b4612139b0619f,64d2fd46c836a06233681665,64dc7cdc1b80bd7d356f0a83,,,,,,,sngl,resources/DR.BMP,resources/Empty.png,Door4,-0.267592593,-0.010185185,1,0,0,0.6278,optionLeft,60,3455,2,21,0,21,0,1,,,,,,,,,,,,,,,,,,,,,,,,,,,,,,,,,,,,,,,
,,,,,,,,2023-08-16_08h39.58.221,HF_wild_card,2022.2.4,Win32,59.99880002,5f1acaacc1b4612139b0619f,64d2fd46c836a06233681665,64dc7cdc1b80bd7d356f0a83,,,,,,,decisionTrl,resources/DP.BMP,resources/DB.BMP,Door2,-0.177777778,-0.027777778,1,0,0,1.2091,optionLeft,20,3475,2,22,0,22,0,1,,,,,,,,,,,,,,,,,,,,,,,,,,,,,,,,,,,,,,,
,,,,,,,,2023-08-16_08h39.58.221,HF_wild_card,2022.2.4,Win32,59.99880002,5f1acaacc1b4612139b0619f,64d2fd46c836a06233681665,64dc7cdc1b80bd7d356f0a83,,,,,,,ctch,resources/DB.BMP,resources/DR.BMP,Door4,0.397222222,-0.02962963,1,0,0,1.3276,optionRight,80,3555,2,23,0,23,0,1,,,,,,,,,,,,,,,,,,,,,,,,,,,,,,,,,,,,,,,
,,,,,,,,2023-08-16_08h39.58.221,HF_wild_card,2022.2.4,Win32,59.99880002,5f1acaacc1b4612139b0619f,64d2fd46c836a06233681665,64dc7cdc1b80bd7d356f0a83,,,,,,,decisionTrl,resources/DR.BMP,resources/DBN.BMP,Door3,0.325,0.017592593,1,0,0,1.6444,optionRight,70,3625,2,24,0,24,0,1,,,,,,,,,,,,,,,,,,,,,,,,,,,,,,,,,,,,,,,
,,,,,,,,2023-08-16_08h39.58.221,HF_wild_card,2022.2.4,Win32,59.99880002,5f1acaacc1b4612139b0619f,64d2fd46c836a06233681665,64dc7cdc1b80bd7d356f0a83,,,,,,,decisionTrl,resources/DB.BMP,resources/DP.BMP,Door1,-0.288888889,0,1,0,0,1.5109,optionLeft,30,3655,2,25,0,25,0,1,,,,,,,,,,,,,,,,,,,,,,,,,,,,,,,,,,,,,,,
,,,,,,,,2023-08-16_08h39.58.221,HF_wild_card,2022.2.4,Win32,59.99880002,5f1acaacc1b4612139b0619f,64d2fd46c836a06233681665,64dc7cdc1b80bd7d356f0a83,,,,,,,ctch,resources/DR.BMP,resources/DB.BMP,Door4,-0.312962963,0.003703704,1,0,0,1.7611,optionLeft,60,3715,2,26,0,26,0,1,,,,,,,,,,,,,,,,,,,,,,,,,,,,,,,,,,,,,,,
,,,,,,,,2023-08-16_08h39.58.221,HF_wild_card,2022.2.4,Win32,59.99880002,5f1acaacc1b4612139b0619f,64d2fd46c836a06233681665,64dc7cdc1b80bd7d356f0a83,,,,,,,decisionTrl,resources/DBN.BMP,resources/DR.BMP,Door3,-0.419444444,0.010185185,1,0,0,0.7278,optionLeft,70,3785,2,27,0,27,0,1,,,,,,,,,,,,,,,,,,,,,,,,,,,,,,,,,,,,,,,
,,,,,,,,2023-08-16_08h39.58.221,HF_wild_card,2022.2.4,Win32,59.99880002,5f1acaacc1b4612139b0619f,64d2fd46c836a06233681665,64dc7cdc1b80bd7d356f0a83,,,,,,,decisionTrl,resources/DBN.BMP,resources/DG.BMP,Door3,-0.390740741,0.011111111,1,0,0,0.7442,optionLeft,70,3855,2,28,0,28,0,1,,,,,,,,,,,,,,,,,,,,,,,,,,,,,,,,,,,,,,,
,,,,,,,,2023-08-16_08h39.58.221,HF_wild_card,2022.2.4,Win32,59.99880002,5f1acaacc1b4612139b0619f,64d2fd46c836a06233681665,64dc7cdc1b80bd7d356f0a83,,,,,,,sngl,resources/Empty.png,resources/DP.BMP,Door2,0.380555556,-0.012962963,1,0,0,0.6611,optionRight,40,3895,2,29,0,29,0,1,,,,,,,,,,,,,,,,,,,,,,,,,,,,,,,,,,,,,,,
,,,,,,,,2023-08-16_08h39.58.221,HF_wild_card,2022.2.4,Win32,59.99880002,5f1acaacc1b4612139b0619f,64d2fd46c836a06233681665,64dc7cdc1b80bd7d356f0a83,,,,,,,ctch,resources/DR.BMP,resources/DB.BMP,Door4,-0.275,0.001851852,1,0,0,0.9764,optionLeft,60,3955,2,30,0,30,0,1,,,,,,,,,,,,,,,,,,,,,,,,,,,,,,,,,,,,,,,
,,,,,,,,2023-08-16_08h39.58.221,HF_wild_card,2022.2.4,Win32,59.99880002,5f1acaacc1b4612139b0619f,64d2fd46c836a06233681665,64dc7cdc1b80bd7d356f0a83,,,,,,,decisionTrl,resources/DG.BMP,resources/DR.BMP,Door4,0.257407407,-0.013888889,1,0,0,0.8611,optionRight,60,4015,2,31,0,31,0,1,,,,,,,,,,,,,,,,,,,,,,,,,,,,,,,,,,,,,,,
,,,,,,,,2023-08-16_08h39.58.221,HF_wild_card,2022.2.4,Win32,59.99880002,5f1acaacc1b4612139b0619f,64d2fd46c836a06233681665,64dc7cdc1b80bd7d356f0a83,,,,,,,sngl,resources/DG.BMP,resources/Empty.png,WildCard_NonEx,-0.20462963,0.001851852,1,0,0,0.6782,optionLeft,55,4070,2,32,0,32,0,1,,,,,,,,,,,,,,,,,,,,,,,,,,,,,,,,,,,,,,,
,,,,,,,,2023-08-16_08h39.58.221,HF_wild_card,2022.2.4,Win32,59.99880002,5f1acaacc1b4612139b0619f,64d2fd46c836a06233681665,64dc7cdc1b80bd7d356f0a83,,,,,,,decisionTrl,resources/DR.BMP,resources/DBN.BMP,Door4,-0.255555556,0.013888889,1,0,0,1.6609,optionLeft,60,4130,2,33,0,33,0,1,,,,,,,,,,,,,,,,,,,,,,,,,,,,,,,,,,,,,,,
,,,,,,,,2023-08-16_08h39.58.221,HF_wild_card,2022.2.4,Win32,59.99880002,5f1acaacc1b4612139b0619f,64d2fd46c836a06233681665,64dc7cdc1b80bd7d356f0a83,,,,,,,decisionTrl,resources/DR.BMP,resources/DBN.BMP,Door3,0.334259259,0.002777778,1,0,0,0.7114,optionRight,70,4200,2,34,0,34,0,1,,,,,,,,,,,,,,,,,,,,,,,,,,,,,,,,,,,,,,,
,,,,,,,,2023-08-16_08h39.58.221,HF_wild_card,2022.2.4,Win32,59.99880002,5f1acaacc1b4612139b0619f,64d2fd46c836a06233681665,64dc7cdc1b80bd7d356f0a83,,,,,,,decisionTrl,resources/DG.BMP,resources/DP.BMP,WildCard_NonEx,-0.312037037,0.011111111,1,0,0,2.3611,optionLeft,55,4255,2,35,0,35,0,1,,,,,,,,,,,,,,,,,,,,,,,,,,,,,,,,,,,,,,,
,,,,,,,,2023-08-16_08h39.58.221,HF_wild_card,2022.2.4,Win32,59.99880002,5f1acaacc1b4612139b0619f,64d2fd46c836a06233681665,64dc7cdc1b80bd7d356f0a83,,,,,,,ctch,resources/DP.BMP,resources/DBN.BMP,Door3,0.374074074,0.002777778,1,0,0,0.8111,optionRight,70,4325,2,36,0,36,0,1,,,,,,,,,,,,,,,,,,,,,,,,,,,,,,,,,,,,,,,
,,,,,,,,2023-08-16_08h39.58.221,HF_wild_card,2022.2.4,Win32,59.99880002,5f1acaacc1b4612139b0619f,64d2fd46c836a06233681665,64dc7cdc1b80bd7d356f0a83,,,,,,,sngl,resources/DP.BMP,resources/Empty.png,Door2,-0.231481481,0.016666667,1,0,0,0.6613,optionLeft,20,4345,2,37,0,37,0,1,,,,,,,,,,,,,,,,,,,,,,,,,,,,,,,,,,,,,,,
,,,,,,,,2023-08-16_08h39.58.221,HF_wild_card,2022.2.4,Win32,59.99880002,5f1acaacc1b4612139b0619f,64d2fd46c836a06233681665,64dc7cdc1b80bd7d356f0a83,,,,,,,decisionTrl,resources/DG.BMP,resources/DB.BMP,WildCard_NonEx,-0.192592593,-0.007407407,1,0,0,2.0777,optionLeft,55,4400,2,38,0,38,0,1,,,,,,,,,,,,,,,,,,,,,,,,,,,,,,,,,,,,,,,
,,,,,,,,2023-08-16_08h39.58.221,HF_wild_card,2022.2.4,Win32,59.99880002,5f1acaacc1b4612139b0619f,64d2fd46c836a06233681665,64dc7cdc1b80bd7d356f0a83,,,,,,,ctch,resources/DB.BMP,resources/DR.BMP,Door4,0.363888889,0.002777778,1,0,0,1.0443,optionRight,80,4480,2,39,0,39,0,1,,,,,,,,,,,,,,,,,,,,,,,,,,,,,,,,,,,,,,,
,,,,,,,,2023-08-16_08h39.58.221,HF_wild_card,2022.2.4,Win32,59.99880002,5f1acaacc1b4612139b0619f,64d2fd46c836a06233681665,64dc7cdc1b80bd7d356f0a83,,,,,,,sngl,resources/DBN.BMP,resources/Empty.png,Door3,-0.292592593,0.00462963,1,0,0,0.7276,optionLeft,70,4550,2,40,0,40,0,1,,,,,,,,,,,,,,,,,,,,,,,,,,,,,,,,,,,,,,,
,,,,,,,,2023-08-16_08h39.58.221,HF_wild_card,2022.2.4,Win32,59.99880002,5f1acaacc1b4612139b0619f,64d2fd46c836a06233681665,64dc7cdc1b80bd7d356f0a83,,,,,,,sngl,resources/Empty.png,resources/DG.BMP,WildCard_NonEx,0.332407407,-0.003703704,1,0,0,0.6109,optionRight,55,4605,2,41,0,41,0,1,,,,,,,,,,,,,,,,,,,,,,,,,,,,,,,,,,,,,,,
,,,,,,,,2023-08-16_08h39.58.221,HF_wild_card,2022.2.4,Win32,59.99880002,5f1acaacc1b4612139b0619f,64d2fd46c836a06233681665,64dc7cdc1b80bd7d356f0a83,,,,,,,ctch,resources/DBN.BMP,resources/DP.BMP,Door3,-0.253703704,0.000925926,1,0,0,0.6776,optionLeft,70,4675,2,42,0,42,0,1,,,,,,,,,,,,,,,,,,,,,,,,,,,,,,,,,,,,,,,
,,,,,,,,2023-08-16_08h39.58.221,HF_wild_card,2022.2.4,Win32,59.99880002,5f1acaacc1b4612139b0619f,64d2fd46c836a06233681665,64dc7cdc1b80bd7d356f0a83,,,,,,,decisionTrl,resources/DG.BMP,resources/DBN.BMP,Door3,0.343518519,0.002777778,1,0,0,0.7111,optionRight,70,4745,2,43,0,43,0,1,,,,,,,,,,,,,,,,,,,,,,,,,,,,,,,,,,,,,,,
,,,,,,,,2023-08-16_08h39.58.221,HF_wild_card,2022.2.4,Win32,59.99880002,5f1acaacc1b4612139b0619f,64d2fd46c836a06233681665,64dc7cdc1b80bd7d356f0a83,,,,,,,,,,,,,,,,,,,,,,,,,,1,0,1,0,1,,,,,,,,,,,,,,,,,,,,,,,,,,,,,,,,,,
,,,,,,,,2023-08-16_08h39.58.221,HF_wild_card,2022.2.4,Win32,59.99880002,5f1acaacc1b4612139b0619f,64d2fd46c836a06233681665,64dc7cdc1b80bd7d356f0a83,,,,,,,decisionTrl,resources/DG.BMP,resources/DB.BMP,WildCard_NonEx,-0.322222222,-0.078703704,1,0,0,1.5551,optionLeft,45,4790,3,0,0,0,0,1,,,,,,,,,,,,,,,,,,,,,,,,,,,,,,,,,,,,,,,
,,,,,,,,2023-08-16_08h39.58.221,HF_wild_card,2022.2.4,Win32,59.99880002,5f1acaacc1b4612139b0619f,64d2fd46c836a06233681665,64dc7cdc1b80bd7d356f0a83,,,,,,,decisionTrl,resources/DBN.BMP,resources/DR.BMP,Door3,-0.212962963,0.027777778,1,0,0,0.9444,optionLeft,70,4860,3,1,0,1,0,1,,,,,,,,,,,,,,,,,,,,,,,,,,,,,,,,,,,,,,,
,,,,,,,,2023-08-16_08h39.58.221,HF_wild_card,2022.2.4,Win32,59.99880002,5f1acaacc1b4612139b0619f,64d2fd46c836a06233681665,64dc7cdc1b80bd7d356f0a83,,,,,,,decisionTrl,resources/DB.BMP,resources/DG.BMP,WildCard_NonEx,0.266666667,0.013888889,1,0,0,1.1773,optionRight,45,4905,3,2,0,2,0,1,,,,,,,,,,,,,,,,,,,,,,,,,,,,,,,,,,,,,,,
,,,,,,,,2023-08-16_08h39.58.221,HF_wild_card,2022.2.4,Win32,59.99880002,5f1acaacc1b4612139b0619f,64d2fd46c836a06233681665,64dc7cdc1b80bd7d356f0a83,,,,,,,decisionTrl,resources/DBN.BMP,resources/DR.BMP,Door3,-0.27037037,-0.007407407,1,0,0,0.7108,optionLeft,70,4975,3,3,0,3,0,1,,,,,,,,,,,,,,,,,,,,,,,,,,,,,,,,,,,,,,,
,,,,,,,,2023-08-16_08h39.58.221,HF_wild_card,2022.2.4,Win32,59.99880002,5f1acaacc1b4612139b0619f,64d2fd46c836a06233681665,64dc7cdc1b80bd7d356f0a83,,,,,,,sngl,resources/Empty.png,resources/DG.BMP,WildCard_NonEx,0.393518519,-0.025,1,0,0,0.627,optionRight,45,5020,3,4,0,4,0,1,,,,,,,,,,,,,,,,,,,,,,,,,,,,,,,,,,,,,,,
,,,,,,,,2023-08-16_08h39.58.221,HF_wild_card,2022.2.4,Win32,59.99880002,5f1acaacc1b4612139b0619f,64d2fd46c836a06233681665,64dc7cdc1b80bd7d356f0a83,,,,,,,decisionTrl,resources/DP.BMP,resources/DB.BMP,Door2,-0.232407407,-0.00462963,1,0,0,0.8609,optionLeft,20,5040,3,5,0,5,0,1,,,,,,,,,,,,,,,,,,,,,,,,,,,,,,,,,,,,,,,
,,,,,,,,2023-08-16_08h39.58.221,HF_wild_card,2022.2.4,Win32,59.99880002,5f1acaacc1b4612139b0619f,64d2fd46c836a06233681665,64dc7cdc1b80bd7d356f0a83,,,,,,,decisionTrl,resources/DG.BMP,resources/DP.BMP,WildCard_NonEx,-0.275925926,-0.000925926,1,0,0,1.3276,optionLeft,55,5095,3,6,0,6,0,1,,,,,,,,,,,,,,,,,,,,,,,,,,,,,,,,,,,,,,,
,,,,,,,,2023-08-16_08h39.58.221,HF_wild_card,2022.2.4,Win32,59.99880002,5f1acaacc1b4612139b0619f,64d2fd46c836a06233681665,64dc7cdc1b80bd7d356f0a83,,,,,,,sngl,resources/DBN.BMP,resources/Empty.png,Door3,-0.328703704,0.000925926,1,0,0,0.6279,optionLeft,70,5165,3,7,0,7,0,1,,,,,,,,,,,,,,,,,,,,,,,,,,,,,,,,,,,,,,,
,,,,,,,,2023-08-16_08h39.58.221,HF_wild_card,2022.2.4,Win32,59.99880002,5f1acaacc1b4612139b0619f,64d2fd46c836a06233681665,64dc7cdc1b80bd7d356f0a83,,,,,,,decisionTrl,resources/DG.BMP,resources/DBN.BMP,Door3,0.443518519,-0.012962963,1,0,0,0.8775,optionRight,70,5235,3,8,0,8,0,1,,,,,,,,,,,,,,,,,,,,,,,,,,,,,,,,,,,,,,,
,,,,,,,,2023-08-16_08h39.58.221,HF_wild_card,2022.2.4,Win32,59.99880002,5f1acaacc1b4612139b0619f,64d2fd46c836a06233681665,64dc7cdc1b80bd7d356f0a83,,,,,,,decisionTrl,resources/DG.BMP,resources/DR.BMP,Door4,0.300925926,-0.005555556,1,0,0,1.0943,optionRight,60,5295,3,9,0,9,0,1,,,,,,,,,,,,,,,,,,,,,,,,,,,,,,,,,,,,,,,
,,,,,,,,2023-08-16_08h39.58.221,HF_wild_card,2022.2.4,Win32,59.99880002,5f1acaacc1b4612139b0619f,64d2fd46c836a06233681665,64dc7cdc1b80bd7d356f0a83,,,,,,,ctch,resources/DP.BMP,resources/DBN.BMP,Door3,0.301851852,-0.015740741,1,0,0,0.7945,optionRight,70,5365,3,10,0,10,0,1,,,,,,,,,,,,,,,,,,,,,,,,,,,,,,,,,,,,,,,
,,,,,,,,2023-08-16_08h39.58.221,HF_wild_card,2022.2.4,Win32,59.99880002,5f1acaacc1b4612139b0619f,64d2fd46c836a06233681665,64dc7cdc1b80bd7d356f0a83,,,,,,,decisionTrl,resources/DR.BMP,resources/DBN.BMP,Door3,0.384259259,-0.007407407,1,0,0,0.7111,optionRight,70,5435,3,11,0,11,0,1,,,,,,,,,,,,,,,,,,,,,,,,,,,,,,,,,,,,,,,
,,,,,,,,2023-08-16_08h39.58.221,HF_wild_card,2022.2.4,Win32,59.99880002,5f1acaacc1b4612139b0619f,64d2fd46c836a06233681665,64dc7cdc1b80bd7d356f0a83,,,,,,,decisionTrl,resources/DP.BMP,resources/DB.BMP,Door1,0.276851852,0.001851852,1,0,0,0.9778,optionRight,30,5465,3,12,0,12,0,1,,,,,,,,,,,,,,,,,,,,,,,,,,,,,,,,,,,,,,,
,,,,,,,,2023-08-16_08h39.58.221,HF_wild_card,2022.2.4,Win32,59.99880002,5f1acaacc1b4612139b0619f,64d2fd46c836a06233681665,64dc7cdc1b80bd7d356f0a83,,,,,,,ctch,resources/DR.BMP,resources/DB.BMP,Door4,-0.290740741,-0.006481481,1,0,0,1.5108,optionLeft,80,5545,3,13,0,13,0,1,,,,,,,,,,,,,,,,,,,,,,,,,,,,,,,,,,,,,,,
,,,,,,,,2023-08-16_08h39.58.221,HF_wild_card,2022.2.4,Win32,59.99880002,5f1acaacc1b4612139b0619f,64d2fd46c836a06233681665,64dc7cdc1b80bd7d356f0a83,,,,,,,sngl,resources/DG.BMP,resources/Empty.png,WildCard_NonEx,-0.258333333,-0.001851852,1,0,0,0.6968,optionLeft,55,5600,3,14,0,14,0,1,,,,,,,,,,,,,,,,,,,,,,,,,,,,,,,,,,,,,,,
,,,,,,,,2023-08-16_08h39.58.221,HF_wild_card,2022.2.4,Win32,59.99880002,5f1acaacc1b4612139b0619f,64d2fd46c836a06233681665,64dc7cdc1b80bd7d356f0a83,,,,,,,sngl,resources/DG.BMP,resources/Empty.png,WildCard_NonEx,-0.280555556,0.005555556,1,0,0,0.7778,optionLeft,45,5645,3,15,0,15,0,1,,,,,,,,,,,,,,,,,,,,,,,,,,,,,,,,,,,,,,,
,,,,,,,,2023-08-16_08h39.58.221,HF_wild_card,2022.2.4,Win32,59.99880002,5f1acaacc1b4612139b0619f,64d2fd46c836a06233681665,64dc7cdc1b80bd7d356f0a83,,,,,,,sngl,resources/DB.BMP,resources/Empty.png,Door1,-0.369444444,0.003703704,1,0,0,0.6444,optionLeft,30,5675,3,16,0,16,0,1,,,,,,,,,,,,,,,,,,,,,,,,,,,,,,,,,,,,,,,
,,,,,,,,2023-08-16_08h39.58.221,HF_wild_card,2022.2.4,Win32,59.99880002,5f1acaacc1b4612139b0619f,64d2fd46c836a06233681665,64dc7cdc1b80bd7d356f0a83,,,,,,,decisionTrl,resources/DB.BMP,resources/DP.BMP,Door1,-0.185185185,0.009259259,1,0,0,1.2107,optionLeft,30,5705,3,17,0,17,0,1,,,,,,,,,,,,,,,,,,,,,,,,,,,,,,,,,,,,,,,
,,,,,,,,2023-08-16_08h39.58.221,HF_wild_card,2022.2.4,Win32,59.99880002,5f1acaacc1b4612139b0619f,64d2fd46c836a06233681665,64dc7cdc1b80bd7d356f0a83,,,,,,,sngl,resources/DP.BMP,resources/Empty.png,Door2,-0.277777778,0.005555556,1,0,0,0.6936,optionLeft,40,5745,3,18,0,18,0,1,,,,,,,,,,,,,,,,,,,,,,,,,,,,,,,,,,,,,,,
,,,,,,,,2023-08-16_08h39.58.221,HF_wild_card,2022.2.4,Win32,59.99880002,5f1acaacc1b4612139b0619f,64d2fd46c836a06233681665,64dc7cdc1b80bd7d356f0a83,,,,,,,decisionTrl,resources/DB.BMP,resources/DP.BMP,Door1,-0.257407407,0.006481481,1,0,0,1.0777,optionLeft,30,5775,3,19,0,19,0,1,,,,,,,,,,,,,,,,,,,,,,,,,,,,,,,,,,,,,,,
,,,,,,,,2023-08-16_08h39.58.221,HF_wild_card,2022.2.4,Win32,59.99880002,5f1acaacc1b4612139b0619f,64d2fd46c836a06233681665,64dc7cdc1b80bd7d356f0a83,,,,,,,decisionTrl,resources/DR.BMP,resources/DBN.BMP,Door3,0.250925926,-0.005555556,1,0,0,0.7799,optionRight,70,5845,3,20,0,20,0,1,,,,,,,,,,,,,,,,,,,,,,,,,,,,,,,,,,,,,,,
,,,,,,,,2023-08-16_08h39.58.221,HF_wild_card,2022.2.4,Win32,59.99880002,5f1acaacc1b4612139b0619f,64d2fd46c836a06233681665,64dc7cdc1b80bd7d356f0a83,,,,,,,decisionTrl,resources/DBN.BMP,resources/DG.BMP,Door3,-0.494444444,0.012962963,1,0,0,0.6273,optionLeft,70,5915,3,21,0,21,0,1,,,,,,,,,,,,,,,,,,,,,,,,,,,,,,,,,,,,,,,
,,,,,,,,2023-08-16_08h39.58.221,HF_wild_card,2022.2.4,Win32,59.99880002,5f1acaacc1b4612139b0619f,64d2fd46c836a06233681665,64dc7cdc1b80bd7d356f0a83,,,,,,,sngl,resources/Empty.png,resources/DBN.BMP,Door3,0.237037037,0,1,0,0,0.6105,optionRight,70,5985,3,22,0,22,0,1,,,,,,,,,,,,,,,,,,,,,,,,,,,,,,,,,,,,,,,
,,,,,,,,2023-08-16_08h39.58.221,HF_wild_card,2022.2.4,Win32,59.99880002,5f1acaacc1b4612139b0619f,64d2fd46c836a06233681665,64dc7cdc1b80bd7d356f0a83,,,,,,,decisionTrl,resources/DR.BMP,resources/DBN.BMP,Door3,0.246296296,-0.008333333,1,0,0,0.6617,optionRight,70,6055,3,23,0,23,0,1,,,,,,,,,,,,,,,,,,,,,,,,,,,,,,,,,,,,,,,
,,,,,,,,2023-08-16_08h39.58.221,HF_wild_card,2022.2.4,Win32,59.99880002,5f1acaacc1b4612139b0619f,64d2fd46c836a06233681665,64dc7cdc1b80bd7d356f0a83,,,,,,,ctch,resources/DB.BMP,resources/DR.BMP,Door4,0.374074074,-0.010185185,1,0,0,1.6277,optionRight,60,6115,3,24,0,24,0,1,,,,,,,,,,,,,,,,,,,,,,,,,,,,,,,,,,,,,,,
,,,,,,,,2023-08-16_08h39.58.221,HF_wild_card,2022.2.4,Win32,59.99880002,5f1acaacc1b4612139b0619f,64d2fd46c836a06233681665,64dc7cdc1b80bd7d356f0a83,,,,,,,sngl,resources/Empty.png,resources/DB.BMP,Door1,0.15,0,1,0,0,0.6778,optionRight,30,6145,3,25,0,25,0,1,,,,,,,,,,,,,,,,,,,,,,,,,,,,,,,,,,,,,,,
,,,,,,,,2023-08-16_08h39.58.221,HF_wild_card,2022.2.4,Win32,59.99880002,5f1acaacc1b4612139b0619f,64d2fd46c836a06233681665,64dc7cdc1b80bd7d356f0a83,,,,,,,decisionTrl,resources/DP.BMP,resources/DB.BMP,Door2,-0.268518519,0.010185185,1,0,0,1.6277,optionLeft,20,6165,3,26,0,26,0,1,,,,,,,,,,,,,,,,,,,,,,,,,,,,,,,,,,,,,,,
,,,,,,,,2023-08-16_08h39.58.221,HF_wild_card,2022.2.4,Win32,59.99880002,5f1acaacc1b4612139b0619f,64d2fd46c836a06233681665,64dc7cdc1b80bd7d356f0a83,,,,,,,ctch,resources/DP.BMP,resources/DBN.BMP,Door3,0.180555556,0.012037037,1,0,0,0.8302,optionRight,70,6235,3,27,0,27,0,1,,,,,,,,,,,,,,,,,,,,,,,,,,,,,,,,,,,,,,,
,,,,,,,,2023-08-16_08h39.58.221,HF_wild_card,2022.2.4,Win32,59.99880002,5f1acaacc1b4612139b0619f,64d2fd46c836a06233681665,64dc7cdc1b80bd7d356f0a83,,,,,,,decisionTrl,resources/DB.BMP,resources/DP.BMP,Door1,-0.22037037,-0.019444444,1,0,0,1.3944,optionLeft,30,6265,3,28,0,28,0,1,,,,,,,,,,,,,,,,,,,,,,,,,,,,,,,,,,,,,,,
,,,,,,,,2023-08-16_08h39.58.221,HF_wild_card,2022.2.4,Win32,59.99880002,5f1acaacc1b4612139b0619f,64d2fd46c836a06233681665,64dc7cdc1b80bd7d356f0a83,,,,,,,decisionTrl,resources/DBN.BMP,resources/DR.BMP,Door3,-0.188888889,-0.014814815,1,0,0,0.7777,optionLeft,70,6335,3,29,0,29,0,1,,,,,,,,,,,,,,,,,,,,,,,,,,,,,,,,,,,,,,,
,,,,,,,,2023-08-16_08h39.58.221,HF_wild_card,2022.2.4,Win32,59.99880002,5f1acaacc1b4612139b0619f,64d2fd46c836a06233681665,64dc7cdc1b80bd7d356f0a83,,,,,,,decisionTrl,resources/DP.BMP,resources/DB.BMP,Door1,0.316666667,0.003703704,1,0,0,1.51,optionRight,30,6365,3,30,0,30,0,1,,,,,,,,,,,,,,,,,,,,,,,,,,,,,,,,,,,,,,,
,,,,,,,,2023-08-16_08h39.58.221,HF_wild_card,2022.2.4,Win32,59.99880002,5f1acaacc1b4612139b0619f,64d2fd46c836a06233681665,64dc7cdc1b80bd7d356f0a83,,,,,,,sngl,resources/Empty.png,resources/DR.BMP,Door4,0.297222222,0.002777778,1,0,0,0.6937,optionRight,60,6425,3,31,0,31,0,1,,,,,,,,,,,,,,,,,,,,,,,,,,,,,,,,,,,,,,,
,,,,,,,,2023-08-16_08h39.58.221,HF_wild_card,2022.2.4,Win32,59.99880002,5f1acaacc1b4612139b0619f,64d2fd46c836a06233681665,64dc7cdc1b80bd7d356f0a83,,,,,,,ctch,resources/DR.BMP,resources/DB.BMP,Door4,-0.121296296,-0.013888889,1,0,0,0.7939,optionLeft,80,6505,3,32,0,32,0,1,,,,,,,,,,,,,,,,,,,,,,,,,,,,,,,,,,,,,,,
,,,,,,,,2023-08-16_08h39.58.221,HF_wild_card,2022.2.4,Win32,59.99880002,5f1acaacc1b4612139b0619f,64d2fd46c836a06233681665,64dc7cdc1b80bd7d356f0a83,,,,,,,decisionTrl,resources/DR.BMP,resources/DG.BMP,Door4,-0.174074074,-0.024074074,1,0,0,1.2778,optionLeft,80,6585,3,33,0,33,0,1,,,,,,,,,,,,,,,,,,,,,,,,,,,,,,,,,,,,,,,
,,,,,,,,2023-08-16_08h39.58.221,HF_wild_card,2022.2.4,Win32,59.99880002,5f1acaacc1b4612139b0619f,64d2fd46c836a06233681665,64dc7cdc1b80bd7d356f0a83,,,,,,,decisionTrl,resources/DB.BMP,resources/DP.BMP,Door1,-0.280555556,-0.007407407,1,0,0,1.0938,optionLeft,30,6615,3,34,0,34,0,1,,,,,,,,,,,,,,,,,,,,,,,,,,,,,,,,,,,,,,,
,,,,,,,,2023-08-16_08h39.58.221,HF_wild_card,2022.2.4,Win32,59.99880002,5f1acaacc1b4612139b0619f,64d2fd46c836a06233681665,64dc7cdc1b80bd7d356f0a83,,,,,,,sngl,resources/Empty.png,resources/DG.BMP,WildCard_NonEx,0.362037037,0.001851852,1,0,0,0.6819,optionRight,55,6670,3,35,0,35,0,1,,,,,,,,,,,,,,,,,,,,,,,,,,,,,,,,,,,,,,,
,,,,,,,,2023-08-16_08h39.58.221,HF_wild_card,2022.2.4,Win32,59.99880002,5f1acaacc1b4612139b0619f,64d2fd46c836a06233681665,64dc7cdc1b80bd7d356f0a83,,,,,,,ctch,resources/DBN.BMP,resources/DP.BMP,Door3,-0.198148148,-0.006481481,1,0,0,0.816,optionLeft,70,6740,3,36,0,36,0,1,,,,,,,,,,,,,,,,,,,,,,,,,,,,,,,,,,,,,,,
,,,,,,,,2023-08-16_08h39.58.221,HF_wild_card,2022.2.4,Win32,59.99880002,5f1acaacc1b4612139b0619f,64d2fd46c836a06233681665,64dc7cdc1b80bd7d356f0a83,,,,,,,sngl,resources/Empty.png,resources/DP.BMP,Door2,0.251851852,0.012037037,1,0,0,0.6155,optionRight,20,6760,3,37,0,37,0,1,,,,,,,,,,,,,,,,,,,,,,,,,,,,,,,,,,,,,,,
,,,,,,,,2023-08-16_08h39.58.221,HF_wild_card,2022.2.4,Win32,59.99880002,5f1acaacc1b4612139b0619f,64d2fd46c836a06233681665,64dc7cdc1b80bd7d356f0a83,,,,,,,decisionTrl,resources/DP.BMP,resources/DG.BMP,WildCard_NonEx,0.387962963,0.011111111,1,0,0,0.8659,optionRight,45,6805,3,38,0,38,0,1,,,,,,,,,,,,,,,,,,,,,,,,,,,,,,,,,,,,,,,
,,,,,,,,2023-08-16_08h39.58.221,HF_wild_card,2022.2.4,Win32,59.99880002,5f1acaacc1b4612139b0619f,64d2fd46c836a06233681665,64dc7cdc1b80bd7d356f0a83,,,,,,,decisionTrl,resources/DR.BMP,resources/DBN.BMP,Door3,0.267592593,0.00462963,1,0,0,1.0991,optionRight,70,6875,3,39,0,39,0,1,,,,,,,,,,,,,,,,,,,,,,,,,,,,,,,,,,,,,,,
,,,,,,,,2023-08-16_08h39.58.221,HF_wild_card,2022.2.4,Win32,59.99880002,5f1acaacc1b4612139b0619f,64d2fd46c836a06233681665,64dc7cdc1b80bd7d356f0a83,,,,,,,sngl,resources/DR.BMP,resources/Empty.png,Door4,-0.215740741,-0.007407407,1,0,0,0.7151,optionLeft,80,6955,3,40,0,40,0,1,,,,,,,,,,,,,,,,,,,,,,,,,,,,,,,,,,,,,,,
,,,,,,,,2023-08-16_08h39.58.221,HF_wild_card,2022.2.4,Win32,59.99880002,5f1acaacc1b4612139b0619f,64d2fd46c836a06233681665,64dc7cdc1b80bd7d356f0a83,,,,,,,ctch,resources/DBN.BMP,resources/DP.BMP,Door3,-0.17037037,-0.012037037,1,0,0,0.7327,optionLeft,70,7025,3,41,0,41,0,1,,,,,,,,,,,,,,,,,,,,,,,,,,,,,,,,,,,,,,,
,,,,,,,,2023-08-16_08h39.58.221,HF_wild_card,2022.2.4,Win32,59.99880002,5f1acaacc1b4612139b0619f,64d2fd46c836a06233681665,64dc7cdc1b80bd7d356f0a83,,,,,,,ctch,resources/DB.BMP,resources/DR.BMP,Door4,0.368518519,-0.018518519,1,0,0,1.6489,optionRight,80,7105,3,42,0,42,0,1,,,,,,,,,,,,,,,,,,,,,,,,,,,,,,,,,,,,,,,
,,,,,,,,2023-08-16_08h39.58.221,HF_wild_card,2022.2.4,Win32,59.99880002,5f1acaacc1b4612139b0619f,64d2fd46c836a06233681665,64dc7cdc1b80bd7d356f0a83,,,,,,,decisionTrl,resources/DBN.BMP,resources/DR.BMP,Door3,-0.249074074,-0.014814815,1,0,0,0.6993,optionLeft,70,7175,3,43,0,43,0,1,,,,,,,,,,,,,,,,,,,,,,,,,,,,,,,,,,,,,,,
,,,,,,,,2023-08-16_08h39.58.221,HF_wild_card,2022.2.4,Win32,59.99880002,5f1acaacc1b4612139b0619f,64d2fd46c836a06233681665,64dc7cdc1b80bd7d356f0a83,,,,,,,,,,,,,,,,,,,,,,,,,,2,0,2,0,1,,,,,,,,,,,,,,,,,,,,,,,,,,,,,,,,,,
,,,,,,,,2023-08-16_08h39.58.221,HF_wild_card,2022.2.4,Win32,59.99880002,5f1acaacc1b4612139b0619f,64d2fd46c836a06233681665,64dc7cdc1b80bd7d356f0a83,,,,,,,decisionTrl,resources/DR.BMP,resources/DY.BMP,WildCard_Ex,0.356481481,-0.02037037,1,0,0,1.6047,optionRight,95,7270,4,0,0,0,0,1,,,,,,,,,,,,,,,,,,,,,,,,,,,,,,,,,,,,,,,
,,,,,,,,2023-08-16_08h39.58.221,HF_wild_card,2022.2.4,Win32,59.99880002,5f1acaacc1b4612139b0619f,64d2fd46c836a06233681665,64dc7cdc1b80bd7d356f0a83,,,,,,,decisionTrl,resources/DB.BMP,resources/DY.BMP,WildCard_Ex,0.262962963,0.010185185,1,0,0,0.9161,optionRight,5,7275,4,1,0,1,0,1,,,,,,,,,,,,,,,,,,,,,,,,,,,,,,,,,,,,,,,
,,,,,,,,2023-08-16_08h39.58.221,HF_wild_card,2022.2.4,Win32,59.99880002,5f1acaacc1b4612139b0619f,64d2fd46c836a06233681665,64dc7cdc1b80bd7d356f0a83,,,,,,,sngl,resources/DB.BMP,resources/Empty.png,Door1,-0.34537037,-0.002777778,1,0,0,0.6987,optionLeft,30,7305,4,2,0,2,0,1,,,,,,,,,,,,,,,,,,,,,,,,,,,,,,,,,,,,,,,
,,,,,,,,2023-08-16_08h39.58.221,HF_wild_card,2022.2.4,Win32,59.99880002,5f1acaacc1b4612139b0619f,64d2fd46c836a06233681665,64dc7cdc1b80bd7d356f0a83,,,,,,,ctch,resources/DP.BMP,resources/DBN.BMP,Door3,0.42962963,0.008333333,1,0,0,0.8995,optionRight,70,7375,4,3,0,3,0,1,,,,,,,,,,,,,,,,,,,,,,,,,,,,,,,,,,,,,,,
,,,,,,,,2023-08-16_08h39.58.221,HF_wild_card,2022.2.4,Win32,59.99880002,5f1acaacc1b4612139b0619f,64d2fd46c836a06233681665,64dc7cdc1b80bd7d356f0a83,,,,,,,sngl,resources/Empty.png,resources/DBN.BMP,Door3,0.30462963,0.000925926,1,0,0,0.5987,optionRight,70,7445,4,4,0,4,0,1,,,,,,,,,,,,,,,,,,,,,,,,,,,,,,,,,,,,,,,
,,,,,,,,2023-08-16_08h39.58.221,HF_wild_card,2022.2.4,Win32,59.99880002,5f1acaacc1b4612139b0619f,64d2fd46c836a06233681665,64dc7cdc1b80bd7d356f0a83,,,,,,,decisionTrl,resources/DB.BMP,resources/DP.BMP,Door1,-0.292592593,-0.034259259,1,0,0,1.2494,optionLeft,30,7475,4,5,0,5,0,1,,,,,,,,,,,,,,,,,,,,,,,,,,,,,,,,,,,,,,,
,,,,,,,,2023-08-16_08h39.58.221,HF_wild_card,2022.2.4,Win32,59.99880002,5f1acaacc1b4612139b0619f,64d2fd46c836a06233681665,64dc7cdc1b80bd7d356f0a83,,,,,,,decisionTrl,resources/DY.BMP,resources/DR.BMP,WildCard_Ex,-0.242592593,-0.025925926,1,0,0,1.3827,optionLeft,95,7570,4,6,0,6,0,1,,,,,,,,,,,,,,,,,,,,,,,,,,,,,,,,,,,,,,,
,,,,,,,,2023-08-16_08h39.58.221,HF_wild_card,2022.2.4,Win32,59.99880002,5f1acaacc1b4612139b0619f,64d2fd46c836a06233681665,64dc7cdc1b80bd7d356f0a83,,,,,,,decisionTrl,resources/DP.BMP,resources/DB.BMP,Door1,0.269444444,0.009259259,1,0,0,0.949,optionRight,30,7600,4,7,0,7,0,1,,,,,,,,,,,,,,,,,,,,,,,,,,,,,,,,,,,,,,,
,,,,,,,,2023-08-16_08h39.58.221,HF_wild_card,2022.2.4,Win32,59.99880002,5f1acaacc1b4612139b0619f,64d2fd46c836a06233681665,64dc7cdc1b80bd7d356f0a83,,,,,,,decisionTrl,resources/DY.BMP,resources/DBN.BMP,Door3,0.390740741,0.018518519,1,0,0,0.8822,optionRight,70,7670,4,8,0,8,0,1,,,,,,,,,,,,,,,,,,,,,,,,,,,,,,,,,,,,,,,
,,,,,,,,2023-08-16_08h39.58.221,HF_wild_card,2022.2.4,Win32,59.99880002,5f1acaacc1b4612139b0619f,64d2fd46c836a06233681665,64dc7cdc1b80bd7d356f0a83,,,,,,,decisionTrl,resources/DBN.BMP,resources/DR.BMP,Door3,-0.271296296,-0.015740741,1,0,0,0.749,optionLeft,70,7740,4,9,0,9,0,1,,,,,,,,,,,,,,,,,,,,,,,,,,,,,,,,,,,,,,,
,,,,,,,,2023-08-16_08h39.58.221,HF_wild_card,2022.2.4,Win32,59.99880002,5f1acaacc1b4612139b0619f,64d2fd46c836a06233681665,64dc7cdc1b80bd7d356f0a83,,,,,,,decisionTrl,resources/DP.BMP,resources/DY.BMP,WildCard_Ex,0.263888889,0.012037037,1,0,0,0.6825,optionRight,5,7745,4,10,0,10,0,1,,,,,,,,,,,,,,,,,,,,,,,,,,,,,,,,,,,,,,,
,,,,,,,,2023-08-16_08h39.58.221,HF_wild_card,2022.2.4,Win32,59.99880002,5f1acaacc1b4612139b0619f,64d2fd46c836a06233681665,64dc7cdc1b80bd7d356f0a83,,,,,,,decisionTrl,resources/DP.BMP,resources/DB.BMP,Door1,0.246296296,0.015740741,1,0,0,0.8821,optionRight,30,7775,4,11,0,11,0,1,,,,,,,,,,,,,,,,,,,,,,,,,,,,,,,,,,,,,,,
,,,,,,,,2023-08-16_08h39.58.221,HF_wild_card,2022.2.4,Win32,59.99880002,5f1acaacc1b4612139b0619f,64d2fd46c836a06233681665,64dc7cdc1b80bd7d356f0a83,,,,,,,decisionTrl,resources/DBN.BMP,resources/DY.BMP,Door3,-0.25,0.000925926,1,0,0,0.9326,optionLeft,70,7845,4,12,0,12,0,1,,,,,,,,,,,,,,,,,,,,,,,,,,,,,,,,,,,,,,,
,,,,,,,,2023-08-16_08h39.58.221,HF_wild_card,2022.2.4,Win32,59.99880002,5f1acaacc1b4612139b0619f,64d2fd46c836a06233681665,64dc7cdc1b80bd7d356f0a83,,,,,,,decisionTrl,resources/DBN.BMP,resources/DR.BMP,Door3,-0.287037037,-0.006481481,1,0,0,0.732,optionLeft,70,7915,4,13,0,13,0,1,,,,,,,,,,,,,,,,,,,,,,,,,,,,,,,,,,,,,,,
,,,,,,,,2023-08-16_08h39.58.221,HF_wild_card,2022.2.4,Win32,59.99880002,5f1acaacc1b4612139b0619f,64d2fd46c836a06233681665,64dc7cdc1b80bd7d356f0a83,,,,,,,decisionTrl,resources/DP.BMP,resources/DB.BMP,Door1,0.236111111,-0.001851852,1,0,0,2.2162,optionRight,30,7945,4,14,0,14,0,1,,,,,,,,,,,,,,,,,,,,,,,,,,,,,,,,,,,,,,,
,,,,,,,,2023-08-16_08h39.58.221,HF_wild_card,2022.2.4,Win32,59.99880002,5f1acaacc1b4612139b0619f,64d2fd46c836a06233681665,64dc7cdc1b80bd7d356f0a83,,,,,,,sngl,resources/Empty.png,resources/DR.BMP,Door4,0.3,0.012037037,1,0,0,0.9657,optionRight,80,8025,4,15,0,15,0,1,,,,,,,,,,,,,,,,,,,,,,,,,,,,,,,,,,,,,,,
,,,,,,,,2023-08-16_08h39.58.221,HF_wild_card,2022.2.4,Win32,59.99880002,5f1acaacc1b4612139b0619f,64d2fd46c836a06233681665,64dc7cdc1b80bd7d356f0a83,,,,,,,decisionTrl,resources/DBN.BMP,resources/DR.BMP,Door3,-0.285185185,-0.000925926,1,0,0,0.8156,optionLeft,70,8095,4,16,0,16,0,1,,,,,,,,,,,,,,,,,,,,,,,,,,,,,,,,,,,,,,,
,,,,,,,,2023-08-16_08h39.58.221,HF_wild_card,2022.2.4,Win32,59.99880002,5f1acaacc1b4612139b0619f,64d2fd46c836a06233681665,64dc7cdc1b80bd7d356f0a83,,,,,,,ctch,resources/DBN.BMP,resources/DP.BMP,Door3,-0.393518519,0.000925926,1,0,0,0.6827,optionLeft,70,8165,4,17,0,17,0,1,,,,,,,,,,,,,,,,,,,,,,,,,,,,,,,,,,,,,,,
,,,,,,,,2023-08-16_08h39.58.221,HF_wild_card,2022.2.4,Win32,59.99880002,5f1acaacc1b4612139b0619f,64d2fd46c836a06233681665,64dc7cdc1b80bd7d356f0a83,,,,,,,sngl,resources/DY.BMP,resources/Empty.png,WildCard_Ex,-0.32962963,0.002777778,1,0,0,0.7114,optionLeft,5,8170,4,18,0,18,0,1,,,,,,,,,,,,,,,,,,,,,,,,,,,,,,,,,,,,,,,
,,,,,,,,2023-08-16_08h39.58.221,HF_wild_card,2022.2.4,Win32,59.99880002,5f1acaacc1b4612139b0619f,64d2fd46c836a06233681665,64dc7cdc1b80bd7d356f0a83,,,,,,,decisionTrl,resources/DP.BMP,resources/DB.BMP,Door2,-0.198148148,-0.002777778,1,0,0,0.9125,optionLeft,40,8210,4,19,0,19,0,1,,,,,,,,,,,,,,,,,,,,,,,,,,,,,,,,,,,,,,,
,,,,,,,,2023-08-16_08h39.58.221,HF_wild_card,2022.2.4,Win32,59.99880002,5f1acaacc1b4612139b0619f,64d2fd46c836a06233681665,64dc7cdc1b80bd7d356f0a83,,,,,,,decisionTrl,resources/DY.BMP,resources/DB.BMP,WildCard_Ex,-0.265740741,-0.002777778,1,0,0,1.229,optionLeft,95,8305,4,20,0,20,0,1,,,,,,,,,,,,,,,,,,,,,,,,,,,,,,,,,,,,,,,
,,,,,,,,2023-08-16_08h39.58.221,HF_wild_card,2022.2.4,Win32,59.99880002,5f1acaacc1b4612139b0619f,64d2fd46c836a06233681665,64dc7cdc1b80bd7d356f0a83,,,,,,,sngl,resources/Empty.png,resources/DP.BMP,Door2,0.224074074,0.001851852,1,0,0,0.6623,optionRight,40,8345,4,21,0,21,0,1,,,,,,,,,,,,,,,,,,,,,,,,,,,,,,,,,,,,,,,
,,,,,,,,2023-08-16_08h39.58.221,HF_wild_card,2022.2.4,Win32,59.99880002,5f1acaacc1b4612139b0619f,64d2fd46c836a06233681665,64dc7cdc1b80bd7d356f0a83,,,,,,,sngl,resources/Empty.png,resources/DY.BMP,WildCard_Ex,0.243518519,0.001851852,1,0,0,0.6289,optionRight,95,8440,4,22,0,22,0,1,,,,,,,,,,,,,,,,,,,,,,,,,,,,,,,,,,,,,,,
,,,,,,,,2023-08-16_08h39.58.221,HF_wild_card,2022.2.4,Win32,59.99880002,5f1acaacc1b4612139b0619f,64d2fd46c836a06233681665,64dc7cdc1b80bd7d356f0a83,,,,,,,ctch,resources/DR.BMP,resources/DB.BMP,Door4,-0.273148148,-0.005555556,1,0,0,1.3124,optionLeft,80,8520,4,23,0,23,0,1,,,,,,,,,,,,,,,,,,,,,,,,,,,,,,,,,,,,,,,
,,,,,,,,2023-08-16_08h39.58.221,HF_wild_card,2022.2.4,Win32,59.99880002,5f1acaacc1b4612139b0619f,64d2fd46c836a06233681665,64dc7cdc1b80bd7d356f0a83,,,,,,,decisionTrl,resources/DY.BMP,resources/DP.BMP,WildCard_Ex,-0.244444444,-0.017592593,1,0,0,0.9957,optionLeft,5,8525,4,24,0,24,0,1,,,,,,,,,,,,,,,,,,,,,,,,,,,,,,,,,,,,,,,
,,,,,,,,2023-08-16_08h39.58.221,HF_wild_card,2022.2.4,Win32,59.99880002,5f1acaacc1b4612139b0619f,64d2fd46c836a06233681665,64dc7cdc1b80bd7d356f0a83,,,,,,,sngl,resources/DBN.BMP,resources/Empty.png,Door3,-0.321296296,-0.008333333,1,0,0,0.6476,optionLeft,70,8595,4,25,0,25,0,1,,,,,,,,,,,,,,,,,,,,,,,,,,,,,,,,,,,,,,,
,,,,,,,,2023-08-16_08h39.58.221,HF_wild_card,2022.2.4,Win32,59.99880002,5f1acaacc1b4612139b0619f,64d2fd46c836a06233681665,64dc7cdc1b80bd7d356f0a83,,,,,,,decisionTrl,resources/DR.BMP,resources/DBN.BMP,Door3,0.503703704,0.008333333,1,0,0,0.9956,optionRight,70,8665,4,26,0,26,0,1,,,,,,,,,,,,,,,,,,,,,,,,,,,,,,,,,,,,,,,
,,,,,,,,2023-08-16_08h39.58.221,HF_wild_card,2022.2.4,Win32,59.99880002,5f1acaacc1b4612139b0619f,64d2fd46c836a06233681665,64dc7cdc1b80bd7d356f0a83,,,,,,,decisionTrl,resources/DBN.BMP,resources/DR.BMP,Door3,-0.171296296,-0.016666667,1,0,0,0.9623,optionLeft,70,8735,4,27,0,27,0,1,,,,,,,,,,,,,,,,,,,,,,,,,,,,,,,,,,,,,,,
,,,,,,,,2023-08-16_08h39.58.221,HF_wild_card,2022.2.4,Win32,59.99880002,5f1acaacc1b4612139b0619f,64d2fd46c836a06233681665,64dc7cdc1b80bd7d356f0a83,,,,,,,ctch,resources/DP.BMP,resources/DBN.BMP,Door3,0.335185185,0.010185185,1,0,0,0.7617,optionRight,70,8805,4,28,0,28,0,1,,,,,,,,,,,,,,,,,,,,,,,,,,,,,,,,,,,,,,,
,,,,,,,,2023-08-16_08h39.58.221,HF_wild_card,2022.2.4,Win32,59.99880002,5f1acaacc1b4612139b0619f,64d2fd46c836a06233681665,64dc7cdc1b80bd7d356f0a83,,,,,,,decisionTrl,resources/DR.BMP,resources/DBN.BMP,Door3,0.298148148,0.009259259,1,0,0,1.2116,optionRight,70,8875,4,29,0,29,0,1,,,,,,,,,,,,,,,,,,,,,,,,,,,,,,,,,,,,,,,
,,,,,,,,2023-08-16_08h39.58.221,HF_wild_card,2022.2.4,Win32,59.99880002,5f1acaacc1b4612139b0619f,64d2fd46c836a06233681665,64dc7cdc1b80bd7d356f0a83,,,,,,,sngl,resources/Empty.png,resources/DB.BMP,Door1,0.226851852,-0.009259259,1,0,0,0.7293,optionRight,30,8905,4,30,0,30,0,1,,,,,,,,,,,,,,,,,,,,,,,,,,,,,,,,,,,,,,,
,,,,,,,,2023-08-16_08h39.58.221,HF_wild_card,2022.2.4,Win32,59.99880002,5f1acaacc1b4612139b0619f,64d2fd46c836a06233681665,64dc7cdc1b80bd7d356f0a83,,,,,,,ctch,resources/DB.BMP,resources/DR.BMP,Door4,0.258333333,0.012037037,1,0,0,1.1953,optionRight,80,8985,4,31,0,31,0,1,,,,,,,,,,,,,,,,,,,,,,,,,,,,,,,,,,,,,,,
,,,,,,,,2023-08-16_08h39.58.221,HF_wild_card,2022.2.4,Win32,59.99880002,5f1acaacc1b4612139b0619f,64d2fd46c836a06233681665,64dc7cdc1b80bd7d356f0a83,,,,,,,decisionTrl,resources/DR.BMP,resources/DBN.BMP,Door3,0.262037037,0.024074074,1,0,0,0.8621,optionRight,70,9055,4,32,0,32,0,1,,,,,,,,,,,,,,,,,,,,,,,,,,,,,,,,,,,,,,,
,,,,,,,,2023-08-16_08h39.58.221,HF_wild_card,2022.2.4,Win32,59.99880002,5f1acaacc1b4612139b0619f,64d2fd46c836a06233681665,64dc7cdc1b80bd7d356f0a83,,,,,,,decisionTrl,resources/DB.BMP,resources/DP.BMP,Door2,0.312962963,0.008333333,1,0,0,1.6783,optionRight,20,9075,4,33,0,33,0,1,,,,,,,,,,,,,,,,,,,,,,,,,,,,,,,,,,,,,,,
,,,,,,,,2023-08-16_08h39.58.221,HF_wild_card,2022.2.4,Win32,59.99880002,5f1acaacc1b4612139b0619f,64d2fd46c836a06233681665,64dc7cdc1b80bd7d356f0a83,,,,,,,sngl,resources/Empty.png,resources/DY.BMP,WildCard_Ex,0.223148148,0.005555556,1,0,0,0.7623,optionRight,5,9080,4,34,0,34,0,1,,,,,,,,,,,,,,,,,,,,,,,,,,,,,,,,,,,,,,,
,,,,,,,,2023-08-16_08h39.58.221,HF_wild_card,2022.2.4,Win32,59.99880002,5f1acaacc1b4612139b0619f,64d2fd46c836a06233681665,64dc7cdc1b80bd7d356f0a83,,,,,,,decisionTrl,resources/DB.BMP,resources/DP.BMP,Door1,-0.258333333,-0.015740741,1,0,0,1.197,optionLeft,30,9110,4,35,0,35,0,1,,,,,,,,,,,,,,,,,,,,,,,,,,,,,,,,,,,,,,,
,,,,,,,,2023-08-16_08h39.58.221,HF_wild_card,2022.2.4,Win32,59.99880002,5f1acaacc1b4612139b0619f,64d2fd46c836a06233681665,64dc7cdc1b80bd7d356f0a83,,,,,,,sngl,resources/DR.BMP,resources/Empty.png,Door4,-0.190740741,-0.009259259,1,0,0,0.6629,optionLeft,60,9170,4,36,0,36,0,1,,,,,,,,,,,,,,,,,,,,,,,,,,,,,,,,,,,,,,,
,,,,,,,,2023-08-16_08h39.58.221,HF_wild_card,2022.2.4,Win32,59.99880002,5f1acaacc1b4612139b0619f,64d2fd46c836a06233681665,64dc7cdc1b80bd7d356f0a83,,,,,,,sngl,resources/DP.BMP,resources/Empty.png,Door2,-0.215740741,0.001851852,1,0,0,0.5957,optionLeft,20,9190,4,37,0,37,0,1,,,,,,,,,,,,,,,,,,,,,,,,,,,,,,,,,,,,,,,
,,,,,,,,2023-08-16_08h39.58.221,HF_wild_card,2022.2.4,Win32,59.99880002,5f1acaacc1b4612139b0619f,64d2fd46c836a06233681665,64dc7cdc1b80bd7d356f0a83,,,,,,,ctch,resources/DBN.BMP,resources/DP.BMP,Door3,-0.302777778,0.017592593,1,0,0,0.8298,optionLeft,70,9260,4,38,0,38,0,1,,,,,,,,,,,,,,,,,,,,,,,,,,,,,,,,,,,,,,,
,,,,,,,,2023-08-16_08h39.58.221,HF_wild_card,2022.2.4,Win32,59.99880002,5f1acaacc1b4612139b0619f,64d2fd46c836a06233681665,64dc7cdc1b80bd7d356f0a83,,,,,,,ctch,resources/DB.BMP,resources/DR.BMP,Door4,0.306481481,0.02962963,1,0,0,0.9788,optionRight,80,9340,4,39,0,39,0,1,,,,,,,,,,,,,,,,,,,,,,,,,,,,,,,,,,,,,,,
,,,,,,,,2023-08-16_08h39.58.221,HF_wild_card,2022.2.4,Win32,59.99880002,5f1acaacc1b4612139b0619f,64d2fd46c836a06233681665,64dc7cdc1b80bd7d356f0a83,,,,,,,decisionTrl,resources/DB.BMP,resources/DP.BMP,Door2,0.238888889,0.031481481,1,0,0,1.1951,optionRight,20,9360,4,40,0,40,0,1,,,,,,,,,,,,,,,,,,,,,,,,,,,,,,,,,,,,,,,
,,,,,,,,2023-08-16_08h39.58.221,HF_wild_card,2022.2.4,Win32,59.99880002,5f1acaacc1b4612139b0619f,64d2fd46c836a06233681665,64dc7cdc1b80bd7d356f0a83,,,,,,,decisionTrl,resources/DR.BMP,resources/DBN.BMP,Door3,0.371296296,0.030555556,1,0,0,0.9958,optionRight,70,9430,4,41,0,41,0,1,,,,,,,,,,,,,,,,,,,,,,,,,,,,,,,,,,,,,,,
,,,,,,,,2023-08-16_08h39.58.221,HF_wild_card,2022.2.4,Win32,59.99880002,5f1acaacc1b4612139b0619f,64d2fd46c836a06233681665,64dc7cdc1b80bd7d356f0a83,,,,,,,sngl,resources/DY.BMP,resources/Empty.png,WildCard_Ex,-0.412037037,0.003703704,1,0,0,0.5951,optionLeft,95,9525,4,42,0,42,0,1,,,,,,,,,,,,,,,,,,,,,,,,,,,,,,,,,,,,,,,
,,,,,,,,2023-08-16_08h39.58.221,HF_wild_card,2022.2.4,Win32,59.99880002,5f1acaacc1b4612139b0619f,64d2fd46c836a06233681665,64dc7cdc1b80bd7d356f0a83,,,,,,,ctch,resources/DR.BMP,resources/DB.BMP,Door4,-0.278703704,0.003703704,1,0,0,0.7287,optionLeft,80,9605,4,43,0,43,0,1,,,,,,,,,,,,,,,,,,,,,,,,,,,,,,,,,,,,,,,
,,,,,,,,2023-08-16_08h39.58.221,HF_wild_card,2022.2.4,Win32,59.99880002,5f1acaacc1b4612139b0619f,64d2fd46c836a06233681665,64dc7cdc1b80bd7d356f0a83,,,,,,,,,,,,,,,,,,,,,,,,,,3,0,3,0,1,,,,,,,,,,,,,,,,,,,,,,,,,,,,,,,,,,
,,,,,,,,2023-08-16_08h39.58.221,HF_wild_card,2022.2.4,Win32,59.99880002,5f1acaacc1b4612139b0619f,64d2fd46c836a06233681665,64dc7cdc1b80bd7d356f0a83,,,,,,,sngl,resources/DY.BMP,resources/Empty.png,WildCard_Ex,-0.236111111,-0.047222222,1,0,0,1.22,optionLeft,5,9610,5,0,0,0,0,1,,,,,,,,,,,,,,,,,,,,,,,,,,,,,,,,,,,,,,,
,,,,,,,,2023-08-16_08h39.58.221,HF_wild_card,2022.2.4,Win32,59.99880002,5f1acaacc1b4612139b0619f,64d2fd46c836a06233681665,64dc7cdc1b80bd7d356f0a83,,,,,,,ctch,resources/DBN.BMP,resources/DP.BMP,Door3,-0.191666667,-0.024074074,1,0,0,0.9828,optionLeft,70,9680,5,1,0,1,0,1,,,,,,,,,,,,,,,,,,,,,,,,,,,,,,,,,,,,,,,
,,,,,,,,2023-08-16_08h39.58.221,HF_wild_card,2022.2.4,Win32,59.99880002,5f1acaacc1b4612139b0619f,64d2fd46c836a06233681665,64dc7cdc1b80bd7d356f0a83,,,,,,,decisionTrl,resources/DY.BMP,resources/DP.BMP,WildCard_Ex,-0.22962963,-0.037962963,1,0,0,1.6327,optionLeft,5,9685,5,2,0,2,0,1,,,,,,,,,,,,,,,,,,,,,,,,,,,,,,,,,,,,,,,
,,,,,,,,2023-08-16_08h39.58.221,HF_wild_card,2022.2.4,Win32,59.99880002,5f1acaacc1b4612139b0619f,64d2fd46c836a06233681665,64dc7cdc1b80bd7d356f0a83,,,,,,,decisionTrl,resources/DBN.BMP,resources/DR.BMP,Door3,-0.140740741,-0.034259259,1,0,0,0.6491,optionLeft,70,9755,5,3,0,3,0,1,,,,,,,,,,,,,,,,,,,,,,,,,,,,,,,,,,,,,,,
,,,,,,,,2023-08-16_08h39.58.221,HF_wild_card,2022.2.4,Win32,59.99880002,5f1acaacc1b4612139b0619f,64d2fd46c836a06233681665,64dc7cdc1b80bd7d356f0a83,,,,,,,decisionTrl,resources/DB.BMP,resources/DP.BMP,Door1,-0.22962963,-0.005555556,1,0,0,1.5825,optionLeft,30,9785,5,4,0,4,0,1,,,,,,,,,,,,,,,,,,,,,,,,,,,,,,,,,,,,,,,
,,,,,,,,2023-08-16_08h39.58.221,HF_wild_card,2022.2.4,Win32,59.99880002,5f1acaacc1b4612139b0619f,64d2fd46c836a06233681665,64dc7cdc1b80bd7d356f0a83,,,,,,,decisionTrl,resources/DB.BMP,resources/DP.BMP,Door1,-0.249074074,-0.009259259,1,0,0,0.7158,optionLeft,30,9815,5,5,0,5,0,1,,,,,,,,,,,,,,,,,,,,,,,,,,,,,,,,,,,,,,,
,,,,,,,,2023-08-16_08h39.58.221,HF_wild_card,2022.2.4,Win32,59.99880002,5f1acaacc1b4612139b0619f,64d2fd46c836a06233681665,64dc7cdc1b80bd7d356f0a83,,,,,,,ctch,resources/DBN.BMP,resources/DP.BMP,Door3,-0.253703704,-0.00462963,1,0,0,0.6821,optionLeft,70,9885,5,6,0,6,0,1,,,,,,,,,,,,,,,,,,,,,,,,,,,,,,,,,,,,,,,
,,,,,,,,2023-08-16_08h39.58.221,HF_wild_card,2022.2.4,Win32,59.99880002,5f1acaacc1b4612139b0619f,64d2fd46c836a06233681665,64dc7cdc1b80bd7d356f0a83,,,,,,,ctch,resources/DB.BMP,resources/DR.BMP,Door4,0.361111111,-0.016666667,1,0,0,1.2155,optionRight,80,9965,5,7,0,7,0,1,,,,,,,,,,,,,,,,,,,,,,,,,,,,,,,,,,,,,,,
,,,,,,,,2023-08-16_08h39.58.221,HF_wild_card,2022.2.4,Win32,59.99880002,5f1acaacc1b4612139b0619f,64d2fd46c836a06233681665,64dc7cdc1b80bd7d356f0a83,,,,,,,sngl,resources/Empty.png,resources/DB.BMP,Door1,0.189814815,-0.006481481,1,0,0,0.6823,optionRight,30,9995,5,8,0,8,0,1,,,,,,,,,,,,,,,,,,,,,,,,,,,,,,,,,,,,,,,
,,,,,,,,2023-08-16_08h39.58.221,HF_wild_card,2022.2.4,Win32,59.99880002,5f1acaacc1b4612139b0619f,64d2fd46c836a06233681665,64dc7cdc1b80bd7d356f0a83,,,,,,,decisionTrl,resources/DB.BMP,resources/DP.BMP,Door2,0.289814815,-0.012962963,1,0,0,0.7325,optionRight,40,10035,5,9,0,9,0,1,,,,,,,,,,,,,,,,,,,,,,,,,,,,,,,,,,,,,,,
,,,,,,,,2023-08-16_08h39.58.221,HF_wild_card,2022.2.4,Win32,59.99880002,5f1acaacc1b4612139b0619f,64d2fd46c836a06233681665,64dc7cdc1b80bd7d356f0a83,,,,,,,decisionTrl,resources/DR.BMP,resources/DBN.BMP,Door3,0.249074074,-0.000925926,1,0,0,1.0491,optionRight,70,10105,5,10,0,10,0,1,,,,,,,,,,,,,,,,,,,,,,,,,,,,,,,,,,,,,,,
,,,,,,,,2023-08-16_08h39.58.221,HF_wild_card,2022.2.4,Win32,59.99880002,5f1acaacc1b4612139b0619f,64d2fd46c836a06233681665,64dc7cdc1b80bd7d356f0a83,,,,,,,ctch,resources/DR.BMP,resources/DB.BMP,Door4,-0.3,-0.013888889,1,0,0,0.766,optionLeft,60,10165,5,11,0,11,0,1,,,,,,,,,,,,,,,,,,,,,,,,,,,,,,,,,,,,,,,
,,,,,,,,2023-08-16_08h39.58.221,HF_wild_card,2022.2.4,Win32,59.99880002,5f1acaacc1b4612139b0619f,64d2fd46c836a06233681665,64dc7cdc1b80bd7d356f0a83,,,,,,,decisionTrl,resources/DR.BMP,resources/DBN.BMP,Door3,0.318518519,-0.005555556,1,0,0,0.7327,optionRight,70,10235,5,12,0,12,0,1,,,,,,,,,,,,,,,,,,,,,,,,,,,,,,,,,,,,,,,
,,,,,,,,2023-08-16_08h39.58.221,HF_wild_card,2022.2.4,Win32,59.99880002,5f1acaacc1b4612139b0619f,64d2fd46c836a06233681665,64dc7cdc1b80bd7d356f0a83,,,,,,,decisionTrl,resources/DY.BMP,resources/DR.BMP,WildCard_Ex,-0.237962963,-0.012962963,1,0,0,0.7828,optionLeft,5,10240,5,13,0,13,0,1,,,,,,,,,,,,,,,,,,,,,,,,,,,,,,,,,,,,,,,
,,,,,,,,2023-08-16_08h39.58.221,HF_wild_card,2022.2.4,Win32,59.99880002,5f1acaacc1b4612139b0619f,64d2fd46c836a06233681665,64dc7cdc1b80bd7d356f0a83,,,,,,,ctch,resources/DP.BMP,resources/DBN.BMP,Door3,0.357407407,-0.001851852,1,0,0,0.8327,optionRight,70,10310,5,14,0,14,0,1,,,,,,,,,,,,,,,,,,,,,,,,,,,,,,,,,,,,,,,
,,,,,,,,2023-08-16_08h39.58.221,HF_wild_card,2022.2.4,Win32,59.99880002,5f1acaacc1b4612139b0619f,64d2fd46c836a06233681665,64dc7cdc1b80bd7d356f0a83,,,,,,,sngl,resources/Empty.png,resources/DY.BMP,WildCard_Ex,0.337037037,0.000925926,1,0,0,0.5985,optionRight,95,10405,5,15,0,15,0,1,,,,,,,,,,,,,,,,,,,,,,,,,,,,,,,,,,,,,,,
,,,,,,,,2023-08-16_08h39.58.221,HF_wild_card,2022.2.4,Win32,59.99880002,5f1acaacc1b4612139b0619f,64d2fd46c836a06233681665,64dc7cdc1b80bd7d356f0a83,,,,,,,decisionTrl,resources/DP.BMP,resources/DY.BMP,WildCard_Ex,0.25,-0.00462963,1,0,0,1.2826,optionRight,95,10500,5,16,0,16,0,1,,,,,,,,,,,,,,,,,,,,,,,,,,,,,,,,,,,,,,,
,,,,,,,,2023-08-16_08h39.58.221,HF_wild_card,2022.2.4,Win32,59.99880002,5f1acaacc1b4612139b0619f,64d2fd46c836a06233681665,64dc7cdc1b80bd7d356f0a83,,,,,,,sngl,resources/DY.BMP,resources/Empty.png,WildCard_Ex,-0.17962963,-0.014814815,1,0,0,0.6314,optionLeft,95,10595,5,17,0,17,0,1,,,,,,,,,,,,,,,,,,,,,,,,,,,,,,,,,,,,,,,
,,,,,,,,2023-08-16_08h39.58.221,HF_wild_card,2022.2.4,Win32,59.99880002,5f1acaacc1b4612139b0619f,64d2fd46c836a06233681665,64dc7cdc1b80bd7d356f0a83,,,,,,,decisionTrl,resources/DY.BMP,resources/DBN.BMP,Door3,0.351851852,-0.012962963,1,0,0,0.9326,optionRight,70,10665,5,18,0,18,0,1,,,,,,,,,,,,,,,,,,,,,,,,,,,,,,,,,,,,,,,
,,,,,,,,2023-08-16_08h39.58.221,HF_wild_card,2022.2.4,Win32,59.99880002,5f1acaacc1b4612139b0619f,64d2fd46c836a06233681665,64dc7cdc1b80bd7d356f0a83,,,,,,,sngl,resources/DB.BMP,resources/Empty.png,Door1,-0.219444444,-0.014814815,1,0,0,0.6656,optionLeft,30,10695,5,19,0,19,0,1,,,,,,,,,,,,,,,,,,,,,,,,,,,,,,,,,,,,,,,
,,,,,,,,2023-08-16_08h39.58.221,HF_wild_card,2022.2.4,Win32,59.99880002,5f1acaacc1b4612139b0619f,64d2fd46c836a06233681665,64dc7cdc1b80bd7d356f0a83,,,,,,,decisionTrl,resources/DBN.BMP,resources/DR.BMP,Door3,-0.255555556,-0.021296296,1,0,0,0.7826,optionLeft,70,10765,5,20,0,20,0,1,,,,,,,,,,,,,,,,,,,,,,,,,,,,,,,,,,,,,,,
,,,,,,,,2023-08-16_08h39.58.221,HF_wild_card,2022.2.4,Win32,59.99880002,5f1acaacc1b4612139b0619f,64d2fd46c836a06233681665,64dc7cdc1b80bd7d356f0a83,,,,,,,decisionTrl,resources/DR.BMP,resources/DY.BMP,WildCard_Ex,0.348148148,-0.005555556,1,0,0,1.1657,optionRight,5,10770,5,21,0,21,0,1,,,,,,,,,,,,,,,,,,,,,,,,,,,,,,,,,,,,,,,
,,,,,,,,2023-08-16_08h39.58.221,HF_wild_card,2022.2.4,Win32,59.99880002,5f1acaacc1b4612139b0619f,64d2fd46c836a06233681665,64dc7cdc1b80bd7d356f0a83,,,,,,,decisionTrl,resources/DP.BMP,resources/DB.BMP,Door1,0.271296296,-0.012037037,1,0,0,2.4652,optionRight,30,10800,5,22,0,22,0,1,,,,,,,,,,,,,,,,,,,,,,,,,,,,,,,,,,,,,,,
,,,,,,,,2023-08-16_08h39.58.221,HF_wild_card,2022.2.4,Win32,59.99880002,5f1acaacc1b4612139b0619f,64d2fd46c836a06233681665,64dc7cdc1b80bd7d356f0a83,,,,,,,decisionTrl,resources/DP.BMP,resources/DB.BMP,Door2,-0.260185185,-0.022222222,1,0,0,0.7327,optionLeft,40,10840,5,23,0,23,0,1,,,,,,,,,,,,,,,,,,,,,,,,,,,,,,,,,,,,,,,
,,,,,,,,2023-08-16_08h39.58.221,HF_wild_card,2022.2.4,Win32,59.99880002,5f1acaacc1b4612139b0619f,64d2fd46c836a06233681665,64dc7cdc1b80bd7d356f0a83,,,,,,,ctch,resources/DR.BMP,resources/DB.BMP,Door4,-0.118518519,-0.012962963,1,0,0,1.0327,optionLeft,60,10900,5,24,0,24,0,1,,,,,,,,,,,,,,,,,,,,,,,,,,,,,,,,,,,,,,,
,,,,,,,,2023-08-16_08h39.58.221,HF_wild_card,2022.2.4,Win32,59.99880002,5f1acaacc1b4612139b0619f,64d2fd46c836a06233681665,64dc7cdc1b80bd7d356f0a83,,,,,,,decisionTrl,resources/DB.BMP,resources/DP.BMP,Door1,-0.130555556,-0.000925926,1,0,0,1.4327,optionLeft,30,10930,5,25,0,25,0,1,,,,,,,,,,,,,,,,,,,,,,,,,,,,,,,,,,,,,,,
,,,,,,,,2023-08-16_08h39.58.221,HF_wild_card,2022.2.4,Win32,59.99880002,5f1acaacc1b4612139b0619f,64d2fd46c836a06233681665,64dc7cdc1b80bd7d356f0a83,,,,,,,decisionTrl,resources/DBN.BMP,resources/DR.BMP,Door3,-0.207407407,-0.000925926,1,0,0,0.7323,optionLeft,70,11000,5,26,0,26,0,1,,,,,,,,,,,,,,,,,,,,,,,,,,,,,,,,,,,,,,,
,,,,,,,,2023-08-16_08h39.58.221,HF_wild_card,2022.2.4,Win32,59.99880002,5f1acaacc1b4612139b0619f,64d2fd46c836a06233681665,64dc7cdc1b80bd7d356f0a83,,,,,,,decisionTrl,resources/DB.BMP,resources/DY.BMP,WildCard_Ex,0.282407407,0.013888889,1,0,0,0.9695,optionRight,5,11005,5,27,0,27,0,1,,,,,,,,,,,,,,,,,,,,,,,,,,,,,,,,,,,,,,,
,,,,,,,,2023-08-16_08h39.58.221,HF_wild_card,2022.2.4,Win32,59.99880002,5f1acaacc1b4612139b0619f,64d2fd46c836a06233681665,64dc7cdc1b80bd7d356f0a83,,,,,,,sngl,resources/Empty.png,resources/DY.BMP,WildCard_Ex,0.388888889,0.010185185,1,0,0,0.5967,optionRight,5,11010,5,28,0,28,0,1,,,,,,,,,,,,,,,,,,,,,,,,,,,,,,,,,,,,,,,
,,,,,,,,2023-08-16_08h39.58.221,HF_wild_card,2022.2.4,Win32,59.99880002,5f1acaacc1b4612139b0619f,64d2fd46c836a06233681665,64dc7cdc1b80bd7d356f0a83,,,,,,,ctch,resources/DB.BMP,resources/DR.BMP,Door4,0.373148148,-0.000925926,1,0,0,0.9441,optionRight,60,11070,5,29,0,29,0,1,,,,,,,,,,,,,,,,,,,,,,,,,,,,,,,,,,,,,,,
,,,,,,,,2023-08-16_08h39.58.221,HF_wild_card,2022.2.4,Win32,59.99880002,5f1acaacc1b4612139b0619f,64d2fd46c836a06233681665,64dc7cdc1b80bd7d356f0a83,,,,,,,decisionTrl,resources/DBN.BMP,resources/DR.BMP,Door3,-0.221296296,-0.023148148,1,0,0,0.8436,optionLeft,70,11140,5,30,0,30,0,1,,,,,,,,,,,,,,,,,,,,,,,,,,,,,,,,,,,,,,,
,,,,,,,,2023-08-16_08h39.58.221,HF_wild_card,2022.2.4,Win32,59.99880002,5f1acaacc1b4612139b0619f,64d2fd46c836a06233681665,64dc7cdc1b80bd7d356f0a83,,,,,,,decisionTrl,resources/DR.BMP,resources/DBN.BMP,Door3,0.256481481,0.046296296,1,0,0,0.844,optionRight,70,11210,5,31,0,31,0,1,,,,,,,,,,,,,,,,,,,,,,,,,,,,,,,,,,,,,,,
,,,,,,,,2023-08-16_08h39.58.221,HF_wild_card,2022.2.4,Win32,59.99880002,5f1acaacc1b4612139b0619f,64d2fd46c836a06233681665,64dc7cdc1b80bd7d356f0a83,,,,,,,decisionTrl,resources/DBN.BMP,resources/DY.BMP,Door3,-0.216666667,0.009259259,1,0,0,0.9939,optionLeft,70,11280,5,32,0,32,0,1,,,,,,,,,,,,,,,,,,,,,,,,,,,,,,,,,,,,,,,
,,,,,,,,2023-08-16_08h39.58.221,HF_wild_card,2022.2.4,Win32,59.99880002,5f1acaacc1b4612139b0619f,64d2fd46c836a06233681665,64dc7cdc1b80bd7d356f0a83,,,,,,,decisionTrl,resources/DP.BMP,resources/DB.BMP,Door1,0.197222222,0.02037037,1,0,0,1.0944,optionRight,30,11310,5,33,0,33,0,1,,,,,,,,,,,,,,,,,,,,,,,,,,,,,,,,,,,,,,,
,,,,,,,,2023-08-16_08h39.58.221,HF_wild_card,2022.2.4,Win32,59.99880002,5f1acaacc1b4612139b0619f,64d2fd46c836a06233681665,64dc7cdc1b80bd7d356f0a83,,,,,,,decisionTrl,resources/DY.BMP,resources/DB.BMP,WildCard_Ex,-0.216666667,-0.010185185,1,0,0,0.7778,optionLeft,5,11315,5,34,0,34,0,1,,,,,,,,,,,,,,,,,,,,,,,,,,,,,,,,,,,,,,,
,,,,,,,,2023-08-16_08h39.58.221,HF_wild_card,2022.2.4,Win32,59.99880002,5f1acaacc1b4612139b0619f,64d2fd46c836a06233681665,64dc7cdc1b80bd7d356f0a83,,,,,,,sngl,resources/DP.BMP,resources/Empty.png,Door2,-0.302777778,-0.017592593,1,0,0,0.5943,optionLeft,40,11355,5,35,0,35,0,1,,,,,,,,,,,,,,,,,,,,,,,,,,,,,,,,,,,,,,,
,,,,,,,,2023-08-16_08h39.58.221,HF_wild_card,2022.2.4,Win32,59.99880002,5f1acaacc1b4612139b0619f,64d2fd46c836a06233681665,64dc7cdc1b80bd7d356f0a83,,,,,,,sngl,resources/DR.BMP,resources/Empty.png,Door4,-0.232407407,-0.010185185,1,0,0,0.6107,optionLeft,80,11435,5,36,0,36,0,1,,,,,,,,,,,,,,,,,,,,,,,,,,,,,,,,,,,,,,,
,,,,,,,,2023-08-16_08h39.58.221,HF_wild_card,2022.2.4,Win32,59.99880002,5f1acaacc1b4612139b0619f,64d2fd46c836a06233681665,64dc7cdc1b80bd7d356f0a83,,,,,,,decisionTrl,resources/DR.BMP,resources/DBN.BMP,Door3,0.389814815,0.019444444,1,0,0,1.4937,optionRight,70,11505,5,37,0,37,0,1,,,,,,,,,,,,,,,,,,,,,,,,,,,,,,,,,,,,,,,
,,,,,,,,2023-08-16_08h39.58.221,HF_wild_card,2022.2.4,Win32,59.99880002,5f1acaacc1b4612139b0619f,64d2fd46c836a06233681665,64dc7cdc1b80bd7d356f0a83,,,,,,,sngl,resources/Empty.png,resources/DBN.BMP,Door3,0.237962963,0.017592593,1,0,0,0.5944,optionRight,70,11575,5,38,0,38,0,1,,,,,,,,,,,,,,,,,,,,,,,,,,,,,,,,,,,,,,,
,,,,,,,,2023-08-16_08h39.58.221,HF_wild_card,2022.2.4,Win32,59.99880002,5f1acaacc1b4612139b0619f,64d2fd46c836a06233681665,64dc7cdc1b80bd7d356f0a83,,,,,,,sngl,resources/Empty.png,resources/DR.BMP,Door4,0.202777778,0.010185185,1,0,0,0.6443,optionRight,60,11635,5,39,0,39,0,1,,,,,,,,,,,,,,,,,,,,,,,,,,,,,,,,,,,,,,,
,,,,,,,,2023-08-16_08h39.58.221,HF_wild_card,2022.2.4,Win32,59.99880002,5f1acaacc1b4612139b0619f,64d2fd46c836a06233681665,64dc7cdc1b80bd7d356f0a83,,,,,,,ctch,resources/DP.BMP,resources/DBN.BMP,Door3,0.206481481,0.022222222,1,0,0,0.7797,optionRight,70,11705,5,40,0,40,0,1,,,,,,,,,,,,,,,,,,,,,,,,,,,,,,,,,,,,,,,
,,,,,,,,2023-08-16_08h39.58.221,HF_wild_card,2022.2.4,Win32,59.99880002,5f1acaacc1b4612139b0619f,64d2fd46c836a06233681665,64dc7cdc1b80bd7d356f0a83,,,,,,,sngl,resources/DBN.BMP,resources/Empty.png,Door3,-0.256481481,-0.012037037,1,0,0,0.5431,optionLeft,70,11775,5,41,0,41,0,1,,,,,,,,,,,,,,,,,,,,,,,,,,,,,,,,,,,,,,,
,,,,,,,,2023-08-16_08h39.58.221,HF_wild_card,2022.2.4,Win32,59.99880002,5f1acaacc1b4612139b0619f,64d2fd46c836a06233681665,64dc7cdc1b80bd7d356f0a83,,,,,,,sngl,resources/Empty.png,resources/DP.BMP,Door2,0.417592593,0.02962963,1,0,0,1.2609,optionRight,20,11795,5,42,0,42,0,1,,,,,,,,,,,,,,,,,,,,,,,,,,,,,,,,,,,,,,,
,,,,,,,,2023-08-16_08h39.58.221,HF_wild_card,2022.2.4,Win32,59.99880002,5f1acaacc1b4612139b0619f,64d2fd46c836a06233681665,64dc7cdc1b80bd7d356f0a83,,,,,,,decisionTrl,resources/DP.BMP,resources/DB.BMP,Door1,0.253703704,0.02962963,1,0,0,1.1111,optionRight,30,11825,5,43,0,43,0,1,,,,,,,,,,,,,,,,,,,,,,,,,,,,,,,,,,,,,,,
,,,,,,,,2023-08-16_08h39.58.221,HF_wild_card,2022.2.4,Win32,59.99880002,5f1acaacc1b4612139b0619f,64d2fd46c836a06233681665,64dc7cdc1b80bd7d356f0a83,,,,,,,,,,,,,,,,,,,,,,,,,,4,0,4,0,1,,,,,,,,,,,,,,,,,,,,,,,,,,,,,,,,,,
,,,,,,,,2023-08-16_08h39.58.221,HF_wild_card,2022.2.4,Win32,59.99880002,5f1acaacc1b4612139b0619f,64d2fd46c836a06233681665,64dc7cdc1b80bd7d356f0a83,,,,,,,decisionTrl,resources/DY.BMP,resources/DB.BMP,WildCard_Ex,-0.276851852,-0.052777778,1,0,0,1.172,optionLeft,5,11830,6,0,0,0,0,1,,,,,,,,,,,,,,,,,,,,,,,,,,,,,,,,,,,,,,,
,,,,,,,,2023-08-16_08h39.58.221,HF_wild_card,2022.2.4,Win32,59.99880002,5f1acaacc1b4612139b0619f,64d2fd46c836a06233681665,64dc7cdc1b80bd7d356f0a83,,,,,,,decisionTrl,resources/DB.BMP,resources/DY.BMP,WildCard_Ex,0.290740741,-0.011111111,1,0,0,0.6235,optionRight,95,11925,6,1,0,1,0,1,,,,,,,,,,,,,,,,,,,,,,,,,,,,,,,,,,,,,,,
,,,,,,,,2023-08-16_08h39.58.221,HF_wild_card,2022.2.4,Win32,59.99880002,5f1acaacc1b4612139b0619f,64d2fd46c836a06233681665,64dc7cdc1b80bd7d356f0a83,,,,,,,ctch,resources/DR.BMP,resources/DB.BMP,Door4,-0.272222222,-0.015740741,1,0,0,1.3658,optionLeft,60,11985,6,2,0,2,0,1,,,,,,,,,,,,,,,,,,,,,,,,,,,,,,,,,,,,,,,
,,,,,,,,2023-08-16_08h39.58.221,HF_wild_card,2022.2.4,Win32,59.99880002,5f1acaacc1b4612139b0619f,64d2fd46c836a06233681665,64dc7cdc1b80bd7d356f0a83,,,,,,,decisionTrl,resources/DP.BMP,resources/DB.BMP,Door1,0.151851852,0.007407407,1,0,0,1.0827,optionRight,30,12015,6,3,0,3,0,1,,,,,,,,,,,,,,,,,,,,,,,,,,,,,,,,,,,,,,,
,,,,,,,,2023-08-16_08h39.58.221,HF_wild_card,2022.2.4,Win32,59.99880002,5f1acaacc1b4612139b0619f,64d2fd46c836a06233681665,64dc7cdc1b80bd7d356f0a83,,,,,,,decisionTrl,resources/DB.BMP,resources/DP.BMP,Door2,0.198148148,-0.030555556,1,0,0,1.1324,optionRight,20,12035,6,4,0,4,0,1,,,,,,,,,,,,,,,,,,,,,,,,,,,,,,,,,,,,,,,
,,,,,,,,2023-08-16_08h39.58.221,HF_wild_card,2022.2.4,Win32,59.99880002,5f1acaacc1b4612139b0619f,64d2fd46c836a06233681665,64dc7cdc1b80bd7d356f0a83,,,,,,,decisionTrl,resources/DP.BMP,resources/DB.BMP,Door1,0.380555556,0.014814815,1,0,0,0.8997,optionRight,30,12065,6,5,0,5,0,1,,,,,,,,,,,,,,,,,,,,,,,,,,,,,,,,,,,,,,,
,,,,,,,,2023-08-16_08h39.58.221,HF_wild_card,2022.2.4,Win32,59.99880002,5f1acaacc1b4612139b0619f,64d2fd46c836a06233681665,64dc7cdc1b80bd7d356f0a83,,,,,,,decisionTrl,resources/DBN.BMP,resources/DR.BMP,Door3,-0.223148148,-0.013888889,1,0,0,0.8488,optionLeft,70,12135,6,6,0,6,0,1,,,,,,,,,,,,,,,,,,,,,,,,,,,,,,,,,,,,,,,
,,,,,,,,2023-08-16_08h39.58.221,HF_wild_card,2022.2.4,Win32,59.99880002,5f1acaacc1b4612139b0619f,64d2fd46c836a06233681665,64dc7cdc1b80bd7d356f0a83,,,,,,,sngl,resources/DR.BMP,resources/Empty.png,Door4,-0.159259259,0.003703704,1,0,0,0.8496,optionLeft,60,12195,6,7,0,7,0,1,,,,,,,,,,,,,,,,,,,,,,,,,,,,,,,,,,,,,,,
,,,,,,,,2023-08-16_08h39.58.221,HF_wild_card,2022.2.4,Win32,59.99880002,5f1acaacc1b4612139b0619f,64d2fd46c836a06233681665,64dc7cdc1b80bd7d356f0a83,,,,,,,decisionTrl,resources/DP.BMP,resources/DB.BMP,Door2,-0.169444444,-0.014814815,1,0,0,1.1826,optionLeft,40,12235,6,8,0,8,0,1,,,,,,,,,,,,,,,,,,,,,,,,,,,,,,,,,,,,,,,
,,,,,,,,2023-08-16_08h39.58.221,HF_wild_card,2022.2.4,Win32,59.99880002,5f1acaacc1b4612139b0619f,64d2fd46c836a06233681665,64dc7cdc1b80bd7d356f0a83,,,,,,,decisionTrl,resources/DBN.BMP,resources/DR.BMP,Door3,-0.29537037,-0.009259259,1,0,0,0.6327,optionLeft,70,12305,6,9,0,9,0,1,,,,,,,,,,,,,,,,,,,,,,,,,,,,,,,,,,,,,,,
,,,,,,,,2023-08-16_08h39.58.221,HF_wild_card,2022.2.4,Win32,59.99880002,5f1acaacc1b4612139b0619f,64d2fd46c836a06233681665,64dc7cdc1b80bd7d356f0a83,,,,,,,sngl,resources/Empty.png,resources/DY.BMP,WildCard_Ex,0.34537037,-0.001851852,1,0,0,0.5992,optionRight,5,12310,6,10,0,10,0,1,,,,,,,,,,,,,,,,,,,,,,,,,,,,,,,,,,,,,,,
,,,,,,,,2023-08-16_08h39.58.221,HF_wild_card,2022.2.4,Win32,59.99880002,5f1acaacc1b4612139b0619f,64d2fd46c836a06233681665,64dc7cdc1b80bd7d356f0a83,,,,,,,decisionTrl,resources/DR.BMP,resources/DBN.BMP,Door3,0.230555556,0.007407407,1,0,0,0.7321,optionRight,70,12380,6,11,0,11,0,1,,,,,,,,,,,,,,,,,,,,,,,,,,,,,,,,,,,,,,,
,,,,,,,,2023-08-16_08h39.58.221,HF_wild_card,2022.2.4,Win32,59.99880002,5f1acaacc1b4612139b0619f,64d2fd46c836a06233681665,64dc7cdc1b80bd7d356f0a83,,,,,,,ctch,resources/DR.BMP,resources/DB.BMP,Door4,-0.433333333,-0.012037037,1,0,0,0.7164,optionLeft,60,12440,6,12,0,12,0,1,,,,,,,,,,,,,,,,,,,,,,,,,,,,,,,,,,,,,,,
,,,,,,,,2023-08-16_08h39.58.221,HF_wild_card,2022.2.4,Win32,59.99880002,5f1acaacc1b4612139b0619f,64d2fd46c836a06233681665,64dc7cdc1b80bd7d356f0a83,,,,,,,decisionTrl,resources/DBN.BMP,resources/DY.BMP,Door3,-0.15462963,0.011111111,1,0,0,0.8485,optionLeft,70,12510,6,13,0,13,0,1,,,,,,,,,,,,,,,,,,,,,,,,,,,,,,,,,,,,,,,
,,,,,,,,2023-08-16_08h39.58.221,HF_wild_card,2022.2.4,Win32,59.99880002,5f1acaacc1b4612139b0619f,64d2fd46c836a06233681665,64dc7cdc1b80bd7d356f0a83,,,,,,,decisionTrl,resources/DB.BMP,resources/DP.BMP,Door1,-0.209259259,0.007407407,1,0,0,1.3326,optionLeft,30,12540,6,14,0,14,0,1,,,,,,,,,,,,,,,,,,,,,,,,,,,,,,,,,,,,,,,
,,,,,,,,2023-08-16_08h39.58.221,HF_wild_card,2022.2.4,Win32,59.99880002,5f1acaacc1b4612139b0619f,64d2fd46c836a06233681665,64dc7cdc1b80bd7d356f0a83,,,,,,,decisionTrl,resources/DP.BMP,resources/DB.BMP,Door1,0.306481481,-0.000925926,1,0,0,0.9661,optionRight,30,12570,6,15,0,15,0,1,,,,,,,,,,,,,,,,,,,,,,,,,,,,,,,,,,,,,,,
,,,,,,,,2023-08-16_08h39.58.221,HF_wild_card,2022.2.4,Win32,59.99880002,5f1acaacc1b4612139b0619f,64d2fd46c836a06233681665,64dc7cdc1b80bd7d356f0a83,,,,,,,decisionTrl,resources/DR.BMP,resources/DBN.BMP,Door3,0.244444444,0.014814815,1,0,0,0.9156,optionRight,70,12640,6,16,0,16,0,1,,,,,,,,,,,,,,,,,,,,,,,,,,,,,,,,,,,,,,,
,,,,,,,,2023-08-16_08h39.58.221,HF_wild_card,2022.2.4,Win32,59.99880002,5f1acaacc1b4612139b0619f,64d2fd46c836a06233681665,64dc7cdc1b80bd7d356f0a83,,,,,,,ctch,resources/DB.BMP,resources/DR.BMP,Door4,0.32037037,-0.010185185,1,0,0,0.949,optionRight,60,12700,6,17,0,17,0,1,,,,,,,,,,,,,,,,,,,,,,,,,,,,,,,,,,,,,,,
,,,,,,,,2023-08-16_08h39.58.221,HF_wild_card,2022.2.4,Win32,59.99880002,5f1acaacc1b4612139b0619f,64d2fd46c836a06233681665,64dc7cdc1b80bd7d356f0a83,,,,,,,sngl,resources/Empty.png,resources/DY.BMP,WildCard_Ex,0.32962963,0.008333333,1,0,0,0.6494,optionRight,95,12795,6,18,0,18,0,1,,,,,,,,,,,,,,,,,,,,,,,,,,,,,,,,,,,,,,,
,,,,,,,,2023-08-16_08h39.58.221,HF_wild_card,2022.2.4,Win32,59.99880002,5f1acaacc1b4612139b0619f,64d2fd46c836a06233681665,64dc7cdc1b80bd7d356f0a83,,,,,,,sngl,resources/DY.BMP,resources/Empty.png,WildCard_Ex,-0.344444444,0.003703704,1,0,0,0.6151,optionLeft,5,12800,6,19,0,19,0,1,,,,,,,,,,,,,,,,,,,,,,,,,,,,,,,,,,,,,,,
,,,,,,,,2023-08-16_08h39.58.221,HF_wild_card,2022.2.4,Win32,59.99880002,5f1acaacc1b4612139b0619f,64d2fd46c836a06233681665,64dc7cdc1b80bd7d356f0a83,,,,,,,decisionTrl,resources/DR.BMP,resources/DBN.BMP,Door3,0.238888889,-0.00462963,1,0,0,0.7995,optionRight,70,12870,6,20,0,20,0,1,,,,,,,,,,,,,,,,,,,,,,,,,,,,,,,,,,,,,,,
,,,,,,,,2023-08-16_08h39.58.221,HF_wild_card,2022.2.4,Win32,59.99880002,5f1acaacc1b4612139b0619f,64d2fd46c836a06233681665,64dc7cdc1b80bd7d356f0a83,,,,,,,decisionTrl,resources/DR.BMP,resources/DY.BMP,WildCard_Ex,0.215740741,0.008333333,1,0,0,0.7323,optionRight,5,12875,6,21,0,21,0,1,,,,,,,,,,,,,,,,,,,,,,,,,,,,,,,,,,,,,,,
,,,,,,,,2023-08-16_08h39.58.221,HF_wild_card,2022.2.4,Win32,59.99880002,5f1acaacc1b4612139b0619f,64d2fd46c836a06233681665,64dc7cdc1b80bd7d356f0a83,,,,,,,sngl,resources/DP.BMP,resources/Empty.png,Door2,-0.296296296,-0.00462963,1,0,0,0.5827,optionLeft,20,12895,6,22,0,22,0,1,,,,,,,,,,,,,,,,,,,,,,,,,,,,,,,,,,,,,,,
,,,,,,,,2023-08-16_08h39.58.221,HF_wild_card,2022.2.4,Win32,59.99880002,5f1acaacc1b4612139b0619f,64d2fd46c836a06233681665,64dc7cdc1b80bd7d356f0a83,,,,,,,sngl,resources/DBN.BMP,resources/Empty.png,Door3,-0.19537037,-0.00462963,1,0,0,0.5651,optionLeft,70,12965,6,23,0,23,0,1,,,,,,,,,,,,,,,,,,,,,,,,,,,,,,,,,,,,,,,
,,,,,,,,2023-08-16_08h39.58.221,HF_wild_card,2022.2.4,Win32,59.99880002,5f1acaacc1b4612139b0619f,64d2fd46c836a06233681665,64dc7cdc1b80bd7d356f0a83,,,,,,,decisionTrl,resources/DB.BMP,resources/DP.BMP,Door2,0.398148148,0.001851852,1,0,0,0.6819,optionRight,40,13005,6,24,0,24,0,1,,,,,,,,,,,,,,,,,,,,,,,,,,,,,,,,,,,,,,,
,,,,,,,,2023-08-16_08h39.58.221,HF_wild_card,2022.2.4,Win32,59.99880002,5f1acaacc1b4612139b0619f,64d2fd46c836a06233681665,64dc7cdc1b80bd7d356f0a83,,,,,,,sngl,resources/Empty.png,resources/DBN.BMP,Door3,0.180555556,0.010185185,1,0,0,0.549,optionRight,70,13075,6,25,0,25,0,1,,,,,,,,,,,,,,,,,,,,,,,,,,,,,,,,,,,,,,,
,,,,,,,,2023-08-16_08h39.58.221,HF_wild_card,2022.2.4,Win32,59.99880002,5f1acaacc1b4612139b0619f,64d2fd46c836a06233681665,64dc7cdc1b80bd7d356f0a83,,,,,,,sngl,resources/Empty.png,resources/DR.BMP,Door4,0.202777778,-0.001851852,1,0,0,0.5331,optionRight,80,13155,6,26,0,26,0,1,,,,,,,,,,,,,,,,,,,,,,,,,,,,,,,,,,,,,,,
,,,,,,,,2023-08-16_08h39.58.221,HF_wild_card,2022.2.4,Win32,59.99880002,5f1acaacc1b4612139b0619f,64d2fd46c836a06233681665,64dc7cdc1b80bd7d356f0a83,,,,,,,decisionTrl,resources/DB.BMP,resources/DP.BMP,Door1,-0.142592593,-0.017592593,1,0,0,0.9829,optionLeft,30,13185,6,27,0,27,0,1,,,,,,,,,,,,,,,,,,,,,,,,,,,,,,,,,,,,,,,
,,,,,,,,2023-08-16_08h39.58.221,HF_wild_card,2022.2.4,Win32,59.99880002,5f1acaacc1b4612139b0619f,64d2fd46c836a06233681665,64dc7cdc1b80bd7d356f0a83,,,,,,,decisionTrl,resources/DY.BMP,resources/DP.BMP,WildCard_Ex,-0.124074074,-0.007407407,1,0,0,0.9326,optionLeft,95,13280,6,28,0,28,0,1,,,,,,,,,,,,,,,,,,,,,,,,,,,,,,,,,,,,,,,
,,,,,,,,2023-08-16_08h39.58.221,HF_wild_card,2022.2.4,Win32,59.99880002,5f1acaacc1b4612139b0619f,64d2fd46c836a06233681665,64dc7cdc1b80bd7d356f0a83,,,,,,,sngl,resources/DY.BMP,resources/Empty.png,WildCard_Ex,-0.102777778,0.003703704,1,0,0,0.5822,optionLeft,95,13375,6,29,0,29,0,1,,,,,,,,,,,,,,,,,,,,,,,,,,,,,,,,,,,,,,,
,,,,,,,,2023-08-16_08h39.58.221,HF_wild_card,2022.2.4,Win32,59.99880002,5f1acaacc1b4612139b0619f,64d2fd46c836a06233681665,64dc7cdc1b80bd7d356f0a83,,,,,,,decisionTrl,resources/DBN.BMP,resources/DR.BMP,Door3,-0.144444444,-0.006481481,1,0,0,0.7495,optionLeft,70,13445,6,30,0,30,0,1,,,,,,,,,,,,,,,,,,,,,,,,,,,,,,,,,,,,,,,
,,,,,,,,2023-08-16_08h39.58.221,HF_wild_card,2022.2.4,Win32,59.99880002,5f1acaacc1b4612139b0619f,64d2fd46c836a06233681665,64dc7cdc1b80bd7d356f0a83,,,,,,,decisionTrl,resources/DY.BMP,resources/DBN.BMP,Door3,0.307407407,0.009259259,1,0,0,0.9993,optionRight,70,13515,6,31,0,31,0,1,,,,,,,,,,,,,,,,,,,,,,,,,,,,,,,,,,,,,,,
,,,,,,,,2023-08-16_08h39.58.221,HF_wild_card,2022.2.4,Win32,59.99880002,5f1acaacc1b4612139b0619f,64d2fd46c836a06233681665,64dc7cdc1b80bd7d356f0a83,,,,,,,ctch,resources/DB.BMP,resources/DR.BMP,Door4,0.311111111,-0.006481481,1,0,0,1.1326,optionRight,60,13575,6,32,0,32,0,1,,,,,,,,,,,,,,,,,,,,,,,,,,,,,,,,,,,,,,,
,,,,,,,,2023-08-16_08h39.58.221,HF_wild_card,2022.2.4,Win32,59.99880002,5f1acaacc1b4612139b0619f,64d2fd46c836a06233681665,64dc7cdc1b80bd7d356f0a83,,,,,,,ctch,resources/DP.BMP,resources/DBN.BMP,Door3,0.421296296,0.007407407,1,0,0,0.8485,optionRight,70,13645,6,33,0,33,0,1,,,,,,,,,,,,,,,,,,,,,,,,,,,,,,,,,,,,,,,
,,,,,,,,2023-08-16_08h39.58.221,HF_wild_card,2022.2.4,Win32,59.99880002,5f1acaacc1b4612139b0619f,64d2fd46c836a06233681665,64dc7cdc1b80bd7d356f0a83,,,,,,,decisionTrl,resources/DY.BMP,resources/DR.BMP,WildCard_Ex,-0.219444444,-0.011111111,1,0,0,0.5993,optionLeft,5,13650,6,34,0,34,0,1,,,,,,,,,,,,,,,,,,,,,,,,,,,,,,,,,,,,,,,
,,,,,,,,2023-08-16_08h39.58.221,HF_wild_card,2022.2.4,Win32,59.99880002,5f1acaacc1b4612139b0619f,64d2fd46c836a06233681665,64dc7cdc1b80bd7d356f0a83,,,,,,,decisionTrl,resources/DP.BMP,resources/DY.BMP,WildCard_Ex,0.325,-0.019444444,1,0,0,0.5827,optionRight,95,13745,6,35,0,35,0,1,,,,,,,,,,,,,,,,,,,,,,,,,,,,,,,,,,,,,,,
,,,,,,,,2023-08-16_08h39.58.221,HF_wild_card,2022.2.4,Win32,59.99880002,5f1acaacc1b4612139b0619f,64d2fd46c836a06233681665,64dc7cdc1b80bd7d356f0a83,,,,,,,sngl,resources/Empty.png,resources/DB.BMP,Door1,0.22037037,-0.001851852,1,0,0,0.5989,optionRight,30,13775,6,36,0,36,0,1,,,,,,,,,,,,,,,,,,,,,,,,,,,,,,,,,,,,,,,
,,,,,,,,2023-08-16_08h39.58.221,HF_wild_card,2022.2.4,Win32,59.99880002,5f1acaacc1b4612139b0619f,64d2fd46c836a06233681665,64dc7cdc1b80bd7d356f0a83,,,,,,,decisionTrl,resources/DR.BMP,resources/DBN.BMP,Door3,0.214814815,-0.010185185,1,0,0,0.6988,optionRight,70,13845,6,37,0,37,0,1,,,,,,,,,,,,,,,,,,,,,,,,,,,,,,,,,,,,,,,
,,,,,,,,2023-08-16_08h39.58.221,HF_wild_card,2022.2.4,Win32,59.99880002,5f1acaacc1b4612139b0619f,64d2fd46c836a06233681665,64dc7cdc1b80bd7d356f0a83,,,,,,,ctch,resources/DBN.BMP,resources/DP.BMP,Door3,-0.132407407,0.003703704,1,0,0,0.582,optionLeft,70,13915,6,38,0,38,0,1,,,,,,,,,,,,,,,,,,,,,,,,,,,,,,,,,,,,,,,
,,,,,,,,2023-08-16_08h39.58.221,HF_wild_card,2022.2.4,Win32,59.99880002,5f1acaacc1b4612139b0619f,64d2fd46c836a06233681665,64dc7cdc1b80bd7d356f0a83,,,,,,,decisionTrl,resources/DBN.BMP,resources/DR.BMP,Door3,-0.156481481,-0.019444444,1,0,0,0.5991,optionLeft,70,13985,6,39,0,39,0,1,,,,,,,,,,,,,,,,,,,,,,,,,,,,,,,,,,,,,,,
,,,,,,,,2023-08-16_08h39.58.221,HF_wild_card,2022.2.4,Win32,59.99880002,5f1acaacc1b4612139b0619f,64d2fd46c836a06233681665,64dc7cdc1b80bd7d356f0a83,,,,,,,sngl,resources/DB.BMP,resources/Empty.png,Door1,-0.202777778,-0.001851852,1,0,0,0.616,optionLeft,30,14015,6,40,0,40,0,1,,,,,,,,,,,,,,,,,,,,,,,,,,,,,,,,,,,,,,,
,,,,,,,,2023-08-16_08h39.58.221,HF_wild_card,2022.2.4,Win32,59.99880002,5f1acaacc1b4612139b0619f,64d2fd46c836a06233681665,64dc7cdc1b80bd7d356f0a83,,,,,,,ctch,resources/DBN.BMP,resources/DP.BMP,Door3,-0.182407407,0.005555556,1,0,0,0.75,optionLeft,70,14085,6,41,0,41,0,1,,,,,,,,,,,,,,,,,,,,,,,,,,,,,,,,,,,,,,,
,,,,,,,,2023-08-16_08h39.58.221,HF_wild_card,2022.2.4,Win32,59.99880002,5f1acaacc1b4612139b0619f,64d2fd46c836a06233681665,64dc7cdc1b80bd7d356f0a83,,,,,,,sngl,resources/Empty.png,resources/DP.BMP,Door2,0.287962963,-0.016666667,1,0,0,0.6157,optionRight,40,14125,6,42,0,42,0,1,,,,,,,,,,,,,,,,,,,,,,,,,,,,,,,,,,,,,,,
,,,,,,,,2023-08-16_08h39.58.221,HF_wild_card,2022.2.4,Win32,59.99880002,5f1acaacc1b4612139b0619f,64d2fd46c836a06233681665,64dc7cdc1b80bd7d356f0a83,,,,,,,ctch,resources/DP.BMP,resources/DBN.BMP,Door3,0.275,-0.006481481,1,0,0,0.766,optionRight,70,14195,6,43,0,43,0,1,,,,,,,,,,,,,,,,,,,,,,,,,,,,,,,,,,,,,,,
,,,,,,,,2023-08-16_08h39.58.221,HF_wild_card,2022.2.4,Win32,59.99880002,5f1acaacc1b4612139b0619f,64d2fd46c836a06233681665,64dc7cdc1b80bd7d356f0a83,,,,,,,,,,,,,,,,,,,,,,,,,,5,0,5,0,1,,,,,,,,,,,,,,,,,,,,,,,,,,,,,,,,,,
,,,,,,,,2023-08-16_08h39.58.221,HF_wild_card,2022.2.4,Win32,59.99880002,5f1acaacc1b4612139b0619f,64d2fd46c836a06233681665,64dc7cdc1b80bd7d356f0a83,,,,,,,decisionTrl,resources/DB.BMP,resources/DP.BMP,Door1,-0.294444444,0.033333333,1,0,0,1.3747,optionLeft,30,14225,7,0,0,0,0,1,,,,,,,,,,,,,,,,,,,,,,,,,,,,,,,,,,,,,,,
,,,,,,,,2023-08-16_08h39.58.221,HF_wild_card,2022.2.4,Win32,59.99880002,5f1acaacc1b4612139b0619f,64d2fd46c836a06233681665,64dc7cdc1b80bd7d356f0a83,,,,,,,decisionTrl,resources/DR.BMP,resources/DBN.BMP,Door3,0.328703704,-0.027777778,1,0,0,0.7637,optionRight,70,14295,7,1,0,1,0,1,,,,,,,,,,,,,,,,,,,,,,,,,,,,,,,,,,,,,,,
,,,,,,,,2023-08-16_08h39.58.221,HF_wild_card,2022.2.4,Win32,59.99880002,5f1acaacc1b4612139b0619f,64d2fd46c836a06233681665,64dc7cdc1b80bd7d356f0a83,,,,,,,decisionTrl,resources/DP.BMP,resources/DB.BMP,Door1,0.412037037,-0.064814815,1,0,0,1.2972,optionRight,30,14325,7,2,0,2,0,1,,,,,,,,,,,,,,,,,,,,,,,,,,,,,,,,,,,,,,,
,,,,,,,,2023-08-16_08h39.58.221,HF_wild_card,2022.2.4,Win32,59.99880002,5f1acaacc1b4612139b0619f,64d2fd46c836a06233681665,64dc7cdc1b80bd7d356f0a83,,,,,,,decisionTrl,resources/DR.BMP,resources/DBN.BMP,Door3,0.17962963,-0.015740741,1,0,0,0.7133,optionRight,70,14395,7,3,0,3,0,1,,,,,,,,,,,,,,,,,,,,,,,,,,,,,,,,,,,,,,,
,,,,,,,,2023-08-16_08h39.58.221,HF_wild_card,2022.2.4,Win32,59.99880002,5f1acaacc1b4612139b0619f,64d2fd46c836a06233681665,64dc7cdc1b80bd7d356f0a83,,,,,,,ctch,resources/DBN.BMP,resources/DP.BMP,Door3,-0.233333333,-0.010185185,1,0,0,0.5974,optionLeft,70,14465,7,4,0,4,0,1,,,,,,,,,,,,,,,,,,,,,,,,,,,,,,,,,,,,,,,
,,,,,,,,2023-08-16_08h39.58.221,HF_wild_card,2022.2.4,Win32,59.99880002,5f1acaacc1b4612139b0619f,64d2fd46c836a06233681665,64dc7cdc1b80bd7d356f0a83,,,,,,,decisionTrl,resources/DR.BMP,resources/DBN.BMP,Door3,0.387037037,-0.023148148,1,0,0,0.7617,optionRight,70,14535,7,5,0,5,0,1,,,,,,,,,,,,,,,,,,,,,,,,,,,,,,,,,,,,,,,
,,,,,,,,2023-08-16_08h39.58.221,HF_wild_card,2022.2.4,Win32,59.99880002,5f1acaacc1b4612139b0619f,64d2fd46c836a06233681665,64dc7cdc1b80bd7d356f0a83,,,,,,,decisionTrl,resources/DBN.BMP,resources/DR.BMP,Door3,-0.193518519,-0.006481481,1,0,0,0.6972,optionLeft,70,14605,7,6,0,6,0,1,,,,,,,,,,,,,,,,,,,,,,,,,,,,,,,,,,,,,,,
,,,,,,,,2023-08-16_08h39.58.221,HF_wild_card,2022.2.4,Win32,59.99880002,5f1acaacc1b4612139b0619f,64d2fd46c836a06233681665,64dc7cdc1b80bd7d356f0a83,,,,,,,decisionTrl,resources/DB.BMP,resources/DP.BMP,Door1,-0.233333333,-0.008333333,1,0,0,1.1133,optionLeft,30,14635,7,7,0,7,0,1,,,,,,,,,,,,,,,,,,,,,,,,,,,,,,,,,,,,,,,
,,,,,,,,2023-08-16_08h39.58.221,HF_wild_card,2022.2.4,Win32,59.99880002,5f1acaacc1b4612139b0619f,64d2fd46c836a06233681665,64dc7cdc1b80bd7d356f0a83,,,,,,,decisionTrl,resources/DB.BMP,resources/DP.BMP,Door1,-0.174074074,-0.013888889,1,0,0,0.8475,optionLeft,30,14665,7,8,0,8,0,1,,,,,,,,,,,,,,,,,,,,,,,,,,,,,,,,,,,,,,,
,,,,,,,,2023-08-16_08h39.58.221,HF_wild_card,2022.2.4,Win32,59.99880002,5f1acaacc1b4612139b0619f,64d2fd46c836a06233681665,64dc7cdc1b80bd7d356f0a83,,,,,,,decisionTrl,resources/DR.BMP,resources/DBN.BMP,Door3,0.398148148,-0.019444444,1,0,0,0.6968,optionRight,70,14735,7,9,0,9,0,1,,,,,,,,,,,,,,,,,,,,,,,,,,,,,,,,,,,,,,,
,,,,,,,,2023-08-16_08h39.58.221,HF_wild_card,2022.2.4,Win32,59.99880002,5f1acaacc1b4612139b0619f,64d2fd46c836a06233681665,64dc7cdc1b80bd7d356f0a83,,,,,,,ctch,resources/DR.BMP,resources/DB.BMP,Door4,-0.256481481,-0.007407407,1,0,0,1.264,optionLeft,80,14815,7,10,0,10,0,1,,,,,,,,,,,,,,,,,,,,,,,,,,,,,,,,,,,,,,,
,,,,,,,,2023-08-16_08h39.58.221,HF_wild_card,2022.2.4,Win32,59.99880002,5f1acaacc1b4612139b0619f,64d2fd46c836a06233681665,64dc7cdc1b80bd7d356f0a83,,,,,,,decisionTrl,resources/DB.BMP,resources/DP.BMP,Door1,-0.163888889,-0.007407407,1,0,0,1.1471,optionLeft,30,14845,7,11,0,11,0,1,,,,,,,,,,,,,,,,,,,,,,,,,,,,,,,,,,,,,,,
,,,,,,,,2023-08-16_08h39.58.221,HF_wild_card,2022.2.4,Win32,59.99880002,5f1acaacc1b4612139b0619f,64d2fd46c836a06233681665,64dc7cdc1b80bd7d356f0a83,,,,,,,decisionTrl,resources/DB.BMP,resources/DP.BMP,Door1,-0.17962963,-0.016666667,1,0,0,0.6643,optionLeft,30,14875,7,12,0,12,0,1,,,,,,,,,,,,,,,,,,,,,,,,,,,,,,,,,,,,,,,
,,,,,,,,2023-08-16_08h39.58.221,HF_wild_card,2022.2.4,Win32,59.99880002,5f1acaacc1b4612139b0619f,64d2fd46c836a06233681665,64dc7cdc1b80bd7d356f0a83,,,,,,,decisionTrl,resources/DP.BMP,resources/DB.BMP,Door1,0.246296296,-0.011111111,1,0,0,1.2805,optionRight,30,14905,7,13,0,13,0,1,,,,,,,,,,,,,,,,,,,,,,,,,,,,,,,,,,,,,,,
,,,,,,,,2023-08-16_08h39.58.221,HF_wild_card,2022.2.4,Win32,59.99880002,5f1acaacc1b4612139b0619f,64d2fd46c836a06233681665,64dc7cdc1b80bd7d356f0a83,,,,,,,decisionTrl,resources/DBN.BMP,resources/DR.BMP,Door3,-0.125925926,-0.014814815,1,0,0,0.8637,optionLeft,70,14975,7,14,0,14,0,1,,,,,,,,,,,,,,,,,,,,,,,,,,,,,,,,,,,,,,,
,,,,,,,,2023-08-16_08h39.58.221,HF_wild_card,2022.2.4,Win32,59.99880002,5f1acaacc1b4612139b0619f,64d2fd46c836a06233681665,64dc7cdc1b80bd7d356f0a83,,,,,,,decisionTrl,resources/DR.BMP,resources/DBN.BMP,Door3,0.289814815,-0.009259259,1,0,0,0.7137,optionRight,70,15045,7,15,0,15,0,1,,,,,,,,,,,,,,,,,,,,,,,,,,,,,,,,,,,,,,,
,,,,,,,,2023-08-16_08h39.58.221,HF_wild_card,2022.2.4,Win32,59.99880002,5f1acaacc1b4612139b0619f,64d2fd46c836a06233681665,64dc7cdc1b80bd7d356f0a83,,,,,,,ctch,resources/DBN.BMP,resources/DP.BMP,Door3,-0.126851852,0.02962963,1,0,0,0.9137,optionLeft,70,15115,7,16,0,16,0,1,,,,,,,,,,,,,,,,,,,,,,,,,,,,,,,,,,,,,,,
,,,,,,,,2023-08-16_08h39.58.221,HF_wild_card,2022.2.4,Win32,59.99880002,5f1acaacc1b4612139b0619f,64d2fd46c836a06233681665,64dc7cdc1b80bd7d356f0a83,,,,,,,decisionTrl,resources/DBN.BMP,resources/DR.BMP,Door3,-0.202777778,0.017592593,1,0,0,0.6307,optionLeft,70,15185,7,17,0,17,0,1,,,,,,,,,,,,,,,,,,,,,,,,,,,,,,,,,,,,,,,
,,,,,,,,2023-08-16_08h39.58.221,HF_wild_card,2022.2.4,Win32,59.99880002,5f1acaacc1b4612139b0619f,64d2fd46c836a06233681665,64dc7cdc1b80bd7d356f0a83,,,,,,,ctch,resources/DP.BMP,resources/DBN.BMP,Door3,0.307407407,-0.010185185,1,0,0,0.6485,optionRight,70,15255,7,18,0,18,0,1,,,,,,,,,,,,,,,,,,,,,,,,,,,,,,,,,,,,,,,
,,,,,,,,2023-08-16_08h39.58.221,HF_wild_card,2022.2.4,Win32,59.99880002,5f1acaacc1b4612139b0619f,64d2fd46c836a06233681665,64dc7cdc1b80bd7d356f0a83,,,,,,,decisionTrl,resources/DBN.BMP,resources/DR.BMP,Door3,-0.22037037,0.012962963,1,0,0,0.6297,optionLeft,70,15325,7,19,0,19,0,1,,,,,,,,,,,,,,,,,,,,,,,,,,,,,,,,,,,,,,,
,,,,,,,,2023-08-16_08h39.58.221,HF_wild_card,2022.2.4,Win32,59.99880002,5f1acaacc1b4612139b0619f,64d2fd46c836a06233681665,64dc7cdc1b80bd7d356f0a83,,,,,,,decisionTrl,resources/DP.BMP,resources/DB.BMP,Door2,-0.200925926,0.024074074,1,0,0,1.2971,optionLeft,40,15365,7,20,0,20,0,1,,,,,,,,,,,,,,,,,,,,,,,,,,,,,,,,,,,,,,,
,,,,,,,,2023-08-16_08h39.58.221,HF_wild_card,2022.2.4,Win32,59.99880002,5f1acaacc1b4612139b0619f,64d2fd46c836a06233681665,64dc7cdc1b80bd7d356f0a83,,,,,,,decisionTrl,resources/DP.BMP,resources/DB.BMP,Door2,-0.193518519,0.012962963,1,0,0,0.6477,optionLeft,20,15385,7,21,0,21,0,1,,,,,,,,,,,,,,,,,,,,,,,,,,,,,,,,,,,,,,,
,,,,,,,,2023-08-16_08h39.58.221,HF_wild_card,2022.2.4,Win32,59.99880002,5f1acaacc1b4612139b0619f,64d2fd46c836a06233681665,64dc7cdc1b80bd7d356f0a83,,,,,,,ctch,resources/DBN.BMP,resources/DP.BMP,Door3,-0.194444444,0.001851852,1,0,0,0.6785,optionLeft,70,15455,7,22,0,22,0,1,,,,,,,,,,,,,,,,,,,,,,,,,,,,,,,,,,,,,,,
,,,,,,,,2023-08-16_08h39.58.221,HF_wild_card,2022.2.4,Win32,59.99880002,5f1acaacc1b4612139b0619f,64d2fd46c836a06233681665,64dc7cdc1b80bd7d356f0a83,,,,,,,decisionTrl,resources/DBN.BMP,resources/DR.BMP,Door3,-0.205555556,0.002777778,1,0,0,0.6638,optionLeft,70,15525,7,23,0,23,0,1,,,,,,,,,,,,,,,,,,,,,,,,,,,,,,,,,,,,,,,
,,,,,,,,2023-08-16_08h39.58.221,HF_wild_card,2022.2.4,Win32,59.99880002,5f1acaacc1b4612139b0619f,64d2fd46c836a06233681665,64dc7cdc1b80bd7d356f0a83,,,,,,,ctch,resources/DB.BMP,resources/DR.BMP,Door4,0.3,-0.02037037,1,0,0,0.8289,optionRight,60,15585,7,24,0,24,0,1,,,,,,,,,,,,,,,,,,,,,,,,,,,,,,,,,,,,,,,
,,,,,,,,2023-08-16_08h39.58.221,HF_wild_card,2022.2.4,Win32,59.99880002,5f1acaacc1b4612139b0619f,64d2fd46c836a06233681665,64dc7cdc1b80bd7d356f0a83,,,,,,,ctch,resources/DB.BMP,resources/DR.BMP,Door4,0.261111111,-0.012962963,1,0,0,0.631,optionRight,80,15665,7,25,0,25,0,1,,,,,,,,,,,,,,,,,,,,,,,,,,,,,,,,,,,,,,,
,,,,,,,,2023-08-16_08h39.58.221,HF_wild_card,2022.2.4,Win32,59.99880002,5f1acaacc1b4612139b0619f,64d2fd46c836a06233681665,64dc7cdc1b80bd7d356f0a83,,,,,,,ctch,resources/DP.BMP,resources/DBN.BMP,Door3,0.326851852,-0.009259259,1,0,0,0.729,optionRight,70,15735,7,26,0,26,0,1,,,,,,,,,,,,,,,,,,,,,,,,,,,,,,,,,,,,,,,
,,,,,,,,2023-08-16_08h39.58.221,HF_wild_card,2022.2.4,Win32,59.99880002,5f1acaacc1b4612139b0619f,64d2fd46c836a06233681665,64dc7cdc1b80bd7d356f0a83,,,,,,,ctch,resources/DR.BMP,resources/DB.BMP,Door4,-0.299074074,0.005555556,1,0,0,0.8139,optionLeft,80,15815,7,27,0,27,0,1,,,,,,,,,,,,,,,,,,,,,,,,,,,,,,,,,,,,,,,
,,,,,,,,2023-08-16_08h39.58.221,HF_wild_card,2022.2.4,Win32,59.99880002,5f1acaacc1b4612139b0619f,64d2fd46c836a06233681665,64dc7cdc1b80bd7d356f0a83,,,,,,,ctch,resources/DB.BMP,resources/DR.BMP,Door4,0.209259259,-0.006481481,1,0,0,0.7113,optionRight,60,15875,7,28,0,28,0,1,,,,,,,,,,,,,,,,,,,,,,,,,,,,,,,,,,,,,,,
,,,,,,,,2023-08-16_08h39.58.221,HF_wild_card,2022.2.4,Win32,59.99880002,5f1acaacc1b4612139b0619f,64d2fd46c836a06233681665,64dc7cdc1b80bd7d356f0a83,,,,,,,decisionTrl,resources/DB.BMP,resources/DP.BMP,Door1,-0.213888889,-0.010185185,1,0,0,1.2136,optionLeft,30,15905,7,29,0,29,0,1,,,,,,,,,,,,,,,,,,,,,,,,,,,,,,,,,,,,,,,
,,,,,,,,2023-08-16_08h39.58.221,HF_wild_card,2022.2.4,Win32,59.99880002,5f1acaacc1b4612139b0619f,64d2fd46c836a06233681665,64dc7cdc1b80bd7d356f0a83,,,,,,,decisionTrl,resources/DBN.BMP,resources/DR.BMP,Door3,-0.25,0.000925926,1,0,0,0.6803,optionLeft,70,15975,7,30,0,30,0,1,,,,,,,,,,,,,,,,,,,,,,,,,,,,,,,,,,,,,,,
,,,,,,,,2023-08-16_08h39.58.221,HF_wild_card,2022.2.4,Win32,59.99880002,5f1acaacc1b4612139b0619f,64d2fd46c836a06233681665,64dc7cdc1b80bd7d356f0a83,,,,,,,ctch,resources/DP.BMP,resources/DBN.BMP,Door3,0.275925926,-0.003703704,1,0,0,0.711,optionRight,70,16045,7,31,0,31,0,1,,,,,,,,,,,,,,,,,,,,,,,,,,,,,,,,,,,,,,,
,,,,,,,,2023-08-16_08h39.58.221,HF_wild_card,2022.2.4,Win32,59.99880002,5f1acaacc1b4612139b0619f,64d2fd46c836a06233681665,64dc7cdc1b80bd7d356f0a83,,,,,,,ctch,resources/DR.BMP,resources/DB.BMP,Door4,-0.125925926,0.002777778,1,0,0,0.697,optionLeft,80,16125,7,32,0,32,0,1,,,,,,,,,,,,,,,,,,,,,,,,,,,,,,,,,,,,,,,
,,,,,,,,2023-08-16_08h39.58.221,HF_wild_card,2022.2.4,Win32,59.99880002,5f1acaacc1b4612139b0619f,64d2fd46c836a06233681665,64dc7cdc1b80bd7d356f0a83,,,,,,,decisionTrl,resources/DP.BMP,resources/DB.BMP,Door1,0.169444444,-0.008333333,1,0,0,0.9624,optionRight,30,16155,7,33,0,33,0,1,,,,,,,,,,,,,,,,,,,,,,,,,,,,,,,,,,,,,,,
,,,,,,,,2023-08-16_08h39.58.221,HF_wild_card,2022.2.4,Win32,59.99880002,5f1acaacc1b4612139b0619f,64d2fd46c836a06233681665,64dc7cdc1b80bd7d356f0a83,,,,,,,decisionTrl,resources/DR.BMP,resources/DBN.BMP,Door3,0.27037037,-0.002777778,1,0,0,0.8302,optionRight,70,16225,7,34,0,34,0,1,,,,,,,,,,,,,,,,,,,,,,,,,,,,,,,,,,,,,,,
,,,,,,,,2023-08-16_08h39.58.221,HF_wild_card,2022.2.4,Win32,59.99880002,5f1acaacc1b4612139b0619f,64d2fd46c836a06233681665,64dc7cdc1b80bd7d356f0a83,,,,,,,decisionTrl,resources/DP.BMP,resources/DB.BMP,Door2,-0.141666667,-0.017592593,1,0,0,1.2805,optionLeft,40,16265,7,35,0,35,0,1,,,,,,,,,,,,,,,,,,,,,,,,,,,,,,,,,,,,,,,
,,,,,,,,2023-08-16_08h39.58.221,HF_wild_card,2022.2.4,Win32,59.99880002,5f1acaacc1b4612139b0619f,64d2fd46c836a06233681665,64dc7cdc1b80bd7d356f0a83,,,,,,,,,,,,,,,,,,,,,,,,,,6,0,6,0,1,,,,,,,,,,,,,,,,,,,,,,,,,,,,,,,,,,
,,,,,,,,2023-08-16_08h39.58.221,HF_wild_card,2022.2.4,Win32,59.99880002,5f1acaacc1b4612139b0619f,64d2fd46c836a06233681665,64dc7cdc1b80bd7d356f0a83,,,,,,,,,,,,,,,,,,,,,,,,,,,,,,,4,,,,,,,,,,,,,,,,,,,,,,,,,,,,,,,,,
,,,,,,,,2023-08-16_08h39.58.221,HF_wild_card,2022.2.4,Win32,59.99880002,5f1acaacc1b4612139b0619f,64d2fd46c836a06233681665,64dc7cdc1b80bd7d356f0a83,,,,,,,,,,,,,,,,,,,,,,,,,,,,,,,,,,,,,,,,,,,,,,,,,,,,,,,,,,,,,,,,
,,,,,,,,2023-08-16_08h39.58.221,HF_wild_card,2022.2.4,Win32,59.99880002,5f1acaacc1b4612139b0619f,64d2fd46c836a06233681665,64dc7cdc1b80bd7d356f0a83,,,,,,,,,,,,,,,,,,,,,,,,,,,,,,,,95,WC_extreme,resources/DY.BMP,0,0,0,0,1,,,,,,,,,,,,,,,,,,,,,,,,,
,,,,,,,,2023-08-16_08h39.58.221,HF_wild_card,2022.2.4,Win32,59.99880002,5f1acaacc1b4612139b0619f,64d2fd46c836a06233681665,64dc7cdc1b80bd7d356f0a83,,,,,,,,,,,,,,,,,,,,,,,,,,,,,,,,30,Door1,resources/DB.BMP,1,0,1,0,1,,,,,,,,,,,,,,,,,,,,,,,,,
,,,,,,,,2023-08-16_08h39.58.221,HF_wild_card,2022.2.4,Win32,59.99880002,5f1acaacc1b4612139b0619f,64d2fd46c836a06233681665,64dc7cdc1b80bd7d356f0a83,,,,,,,,,,,,,,,,,,,,,,,,,,,,,,,,55,WC_nonExtreme,resources/DG.BMP,2,0,2,0,1,,,,,,,,,,,,,,,,,,,,,,,,,
,,,,,,,,2023-08-16_08h39.58.221,HF_wild_card,2022.2.4,Win32,59.99880002,5f1acaacc1b4612139b0619f,64d2fd46c836a06233681665,64dc7cdc1b80bd7d356f0a83,,,,,,,,,,,,,,,,,,,,,,,,,,,,,,,,60,Door4,resources/DR.BMP,3,0,3,0,1,,,,,,,,,,,,,,,,,,,,,,,,,
,,,,,,,,2023-08-16_08h39.58.221,HF_wild_card,2022.2.4,Win32,59.99880002,5f1acaacc1b4612139b0619f,64d2fd46c836a06233681665,64dc7cdc1b80bd7d356f0a83,,,,,,,,,,,,,,,,,,,,,,,,,,,,,,,,70,Door3,resources/DBN.BMP,4,0,4,0,1,,,,,,,,,,,,,,,,,,,,,,,,,
,,,,,,,,2023-08-16_08h39.58.221,HF_wild_card,2022.2.4,Win32,59.99880002,5f1acaacc1b4612139b0619f,64d2fd46c836a06233681665,64dc7cdc1b80bd7d356f0a83,,,,,,,,,,,,,,,,,,,,,,,,,,,,,,,,45,Door2,resources/DP.BMP,5,0,5,0,1,,,,,,,,,,,,,,,,,,,,,,,,,
,,,,,,,,2023-08-16_08h39.58.221,HF_wild_card,2022.2.4,Win32,59.99880002,5f1acaacc1b4612139b0619f,64d2fd46c836a06233681665,64dc7cdc1b80bd7d356f0a83,,,,,,,,,,,,,,,,,,,,,,,,,,,,,,,,,,,,,,,,,,,,,,,,,,,,,,,,,,,,,,,,
,,,,,,,,2023-08-16_08h39.58.221,HF_wild_card,2022.2.4,Win32,59.99880002,5f1acaacc1b4612139b0619f,64d2fd46c836a06233681665,64dc7cdc1b80bd7d356f0a83,,,,,,,,,,,,,,,,,,,,,,,,,,,,,,,,,,,,,,,,0,0,0,0,1,,,,,,,,,,,,,,,,,,,,
