Condition,Low fixed image (Door1),Low risky image (Door2),High fixed image (Door3),High risky image (Door4),NonExtreme Wild Card 1,NonExtreme Wild Card 2,,date,expName,psychopyVersion,OS,frameRate,PROLIFIC_PID,STUDY_ID,SESSION_ID,mouse_2.x,mouse_2.y,mouse_2.leftButton,mouse_2.midButton,mouse_2.rightButton,mouse_2.clicked_name,Trial Type,Left Option Image,Right Option Image,Chosen Door,mouse.x,mouse.y,mouse.leftButton,mouse.midButton,mouse.rightButton,mouse.time,mouse.clicked_name,Feedback,Cumulative Reward,Block,trial.thisRepN,trial.thisTrialN,trial.thisN,trial.thisIndex,trial.ran,blocks.thisRepN,blocks.thisTrialN,blocks.thisN,blocks.thisIndex,blocks.ran,Money conversion,First Outcome Reported,Shown Door (First Outcome),Displayed Image (First Outcome),outcomes.thisRepN,outcomes.thisTrialN,outcomes.thisN,outcomes.thisIndex,outcomes.ran,judgments.thisRepN,judgments.thisTrialN,judgments.thisN,judgments.thisIndex,judgments.ran,freqMouse.x,freqMouse.y,freqMouse.leftButton,freqMouse.midButton,freqMouse.rightButton,freqMouse.clicked_name,FQJ for first outcome,FQJ for second outcome,Shown Door,Displayed Image,trials.thisRepN,trials.thisTrialN,trials.thisN,trials.thisIndex,trials.ran,judgBlock.thisRepN,judgBlock.thisTrialN,judgBlock.thisN,judgBlock.thisIndex,judgBlock.ran
2,resources/DY.BMP,resources/DBN.BMP,resources/DB.BMP,resources/DP.BMP,resources/DG.BMP,resources/DR.BMP,,2023-08-16_08h36.55.064,HF_wild_card,2022.2.4,Win32,59.86948452,63d650bb391dd8bb01d022ef,64d2fd46c836a06233681665,64dc79ccf9491dfdd0be8962,,,,,,,,,,,,,,,,,,,,,,,,,,,,,,,,,,,,,,,,,,,,,,,,,,,,,,,,,,,,,,,,
,,,,,,,,2023-08-16_08h36.55.064,HF_wild_card,2022.2.4,Win32,59.86948452,63d650bb391dd8bb01d022ef,64d2fd46c836a06233681665,64dc79ccf9491dfdd0be8962,0.011111153,-0.420370384,1,0,0,agree,,,,,,,,,,,,,,,,,,,,,,,,,,,,,,,,,,,,,,,,,,,,,,,,,,,,,,,,,,
,,,,,,,,2023-08-16_08h36.55.064,HF_wild_card,2022.2.4,Win32,59.86948452,63d650bb391dd8bb01d022ef,64d2fd46c836a06233681665,64dc79ccf9491dfdd0be8962,,,,,,,,,,,,,,,,,,,,,,,,,,,,,,,,,,,,,,,,,,,,,,,,,,,,,,,,,,,,,,,,
,,,,,,,,2023-08-16_08h36.55.064,HF_wild_card,2022.2.4,Win32,59.86948452,63d650bb391dd8bb01d022ef,64d2fd46c836a06233681665,64dc79ccf9491dfdd0be8962,,,,,,,sngl,resources/Empty.png,resources/DR.BMP,WildCard_NonEx,0.227777764,-0.043518526,1,0,0,0.8036,optionRight,55,55,1,0,0,0,0,1,,,,,,,,,,,,,,,,,,,,,,,,,,,,,,,,,,,,,,,
,,,,,,,,2023-08-16_08h36.55.064,HF_wild_card,2022.2.4,Win32,59.86948452,63d650bb391dd8bb01d022ef,64d2fd46c836a06233681665,64dc79ccf9491dfdd0be8962,,,,,,,ctch,resources/DP.BMP,resources/DY.BMP,Door4,-0.332407386,-0.046296296,1,0,0,0.5969,optionLeft,60,115,1,1,0,1,0,1,,,,,,,,,,,,,,,,,,,,,,,,,,,,,,,,,,,,,,,
,,,,,,,,2023-08-16_08h36.55.064,HF_wild_card,2022.2.4,Win32,59.86948452,63d650bb391dd8bb01d022ef,64d2fd46c836a06233681665,64dc79ccf9491dfdd0be8962,,,,,,,sngl,resources/Empty.png,resources/DR.BMP,WildCard_NonEx,0.250925912,-0.065740762,1,0,0,0.3972,optionRight,45,160,1,2,0,2,0,1,,,,,,,,,,,,,,,,,,,,,,,,,,,,,,,,,,,,,,,
,,,,,,,,2023-08-16_08h36.55.064,HF_wild_card,2022.2.4,Win32,59.86948452,63d650bb391dd8bb01d022ef,64d2fd46c836a06233681665,64dc79ccf9491dfdd0be8962,,,,,,,ctch,resources/DY.BMP,resources/DP.BMP,Door1,-0.262962977,-0.017592607,1,0,0,0.3978,optionLeft,30,190,1,3,0,3,0,1,,,,,,,,,,,,,,,,,,,,,,,,,,,,,,,,,,,,,,,
,,,,,,,,2023-08-16_08h36.55.064,HF_wild_card,2022.2.4,Win32,59.86948452,63d650bb391dd8bb01d022ef,64d2fd46c836a06233681665,64dc79ccf9491dfdd0be8962,,,,,,,ctch,resources/DBN.BMP,resources/DB.BMP,Door3,0.225000028,-0.028703725,1,0,0,0.4142,optionRight,70,260,1,4,0,4,0,1,,,,,,,,,,,,,,,,,,,,,,,,,,,,,,,,,,,,,,,
,,,,,,,,2023-08-16_08h36.55.064,HF_wild_card,2022.2.4,Win32,59.86948452,63d650bb391dd8bb01d022ef,64d2fd46c836a06233681665,64dc79ccf9491dfdd0be8962,,,,,,,ctch,resources/DBN.BMP,resources/DB.BMP,Door2,-0.195370356,-0.069444444,1,0,0,0.4295,optionLeft,20,280,1,5,0,5,0,1,,,,,,,,,,,,,,,,,,,,,,,,,,,,,,,,,,,,,,,
,,,,,,,,2023-08-16_08h36.55.064,HF_wild_card,2022.2.4,Win32,59.86948452,63d650bb391dd8bb01d022ef,64d2fd46c836a06233681665,64dc79ccf9491dfdd0be8962,,,,,,,ctch,resources/DP.BMP,resources/DY.BMP,Door4,-0.310185185,-0.036111125,1,0,0,0.364,optionLeft,60,340,1,6,0,6,0,1,,,,,,,,,,,,,,,,,,,,,,,,,,,,,,,,,,,,,,,
,,,,,,,,2023-08-16_08h36.55.064,HF_wild_card,2022.2.4,Win32,59.86948452,63d650bb391dd8bb01d022ef,64d2fd46c836a06233681665,64dc79ccf9491dfdd0be8962,,,,,,,decisionTrl,resources/DY.BMP,resources/DR.BMP,WildCard_NonEx,0.25462963,-0.011111118,1,0,0,0.3636,optionRight,55,395,1,7,0,7,0,1,,,,,,,,,,,,,,,,,,,,,,,,,,,,,,,,,,,,,,,
,,,,,,,,2023-08-16_08h36.55.064,HF_wild_card,2022.2.4,Win32,59.86948452,63d650bb391dd8bb01d022ef,64d2fd46c836a06233681665,64dc79ccf9491dfdd0be8962,,,,,,,ctch,resources/DB.BMP,resources/DBN.BMP,Door3,-0.271296254,-0.018518519,1,0,0,0.414,optionLeft,70,465,1,8,0,8,0,1,,,,,,,,,,,,,,,,,,,,,,,,,,,,,,,,,,,,,,,
,,,,,,,,2023-08-16_08h36.55.064,HF_wild_card,2022.2.4,Win32,59.86948452,63d650bb391dd8bb01d022ef,64d2fd46c836a06233681665,64dc79ccf9491dfdd0be8962,,,,,,,decisionTrl,resources/DB.BMP,resources/DP.BMP,Door4,0.266666695,-0.033333355,1,0,0,0.381,optionRight,80,545,1,9,0,9,0,1,,,,,,,,,,,,,,,,,,,,,,,,,,,,,,,,,,,,,,,
,,,,,,,,2023-08-16_08h36.55.064,HF_wild_card,2022.2.4,Win32,59.86948452,63d650bb391dd8bb01d022ef,64d2fd46c836a06233681665,64dc79ccf9491dfdd0be8962,,,,,,,sngl,resources/DY.BMP,resources/Empty.png,Door1,-0.210185157,-0.009259259,1,0,0,0.4313,optionLeft,30,575,1,10,0,10,0,1,,,,,,,,,,,,,,,,,,,,,,,,,,,,,,,,,,,,,,,
,,,,,,,,2023-08-16_08h36.55.064,HF_wild_card,2022.2.4,Win32,59.86948452,63d650bb391dd8bb01d022ef,64d2fd46c836a06233681665,64dc79ccf9491dfdd0be8962,,,,,,,decisionTrl,resources/DY.BMP,resources/DBN.BMP,Door2,0.20648151,-0.01666666,1,0,0,0.4297,optionRight,40,615,1,11,0,11,0,1,,,,,,,,,,,,,,,,,,,,,,,,,,,,,,,,,,,,,,,
,,,,,,,,2023-08-16_08h36.55.064,HF_wild_card,2022.2.4,Win32,59.86948452,63d650bb391dd8bb01d022ef,64d2fd46c836a06233681665,64dc79ccf9491dfdd0be8962,,,,,,,sngl,resources/Empty.png,resources/DY.BMP,Door1,0.222222222,-0.006481489,1,0,0,0.3806,optionRight,30,645,1,12,0,12,0,1,,,,,,,,,,,,,,,,,,,,,,,,,,,,,,,,,,,,,,,
,,,,,,,,2023-08-16_08h36.55.064,HF_wild_card,2022.2.4,Win32,59.86948452,63d650bb391dd8bb01d022ef,64d2fd46c836a06233681665,64dc79ccf9491dfdd0be8962,,,,,,,sngl,resources/Empty.png,resources/DB.BMP,Door3,0.213888875,-0.032407407,1,0,0,0.6809,optionRight,70,715,1,13,0,13,0,1,,,,,,,,,,,,,,,,,,,,,,,,,,,,,,,,,,,,,,,
,,,,,,,,2023-08-16_08h36.55.064,HF_wild_card,2022.2.4,Win32,59.86948452,63d650bb391dd8bb01d022ef,64d2fd46c836a06233681665,64dc79ccf9491dfdd0be8962,,,,,,,decisionTrl,resources/DR.BMP,resources/DP.BMP,WildCard_NonEx,-0.262962977,-0.038888896,1,0,0,0.3647,optionLeft,45,760,1,14,0,14,0,1,,,,,,,,,,,,,,,,,,,,,,,,,,,,,,,,,,,,,,,
,,,,,,,,2023-08-16_08h36.55.064,HF_wild_card,2022.2.4,Win32,59.86948452,63d650bb391dd8bb01d022ef,64d2fd46c836a06233681665,64dc79ccf9491dfdd0be8962,,,,,,,decisionTrl,resources/DB.BMP,resources/DP.BMP,Door4,0.018518519,-0.01203703,1,0,0,0.1148,optionRight,60,820,1,15,0,15,0,1,,,,,,,,,,,,,,,,,,,,,,,,,,,,,,,,,,,,,,,
,,,,,,,,2023-08-16_08h36.55.064,HF_wild_card,2022.2.4,Win32,59.86948452,63d650bb391dd8bb01d022ef,64d2fd46c836a06233681665,64dc79ccf9491dfdd0be8962,,,,,,,sngl,resources/DP.BMP,resources/Empty.png,Door4,-0.175000014,-0.027777778,1,0,0,0.4137,optionLeft,80,900,1,16,0,16,0,1,,,,,,,,,,,,,,,,,,,,,,,,,,,,,,,,,,,,,,,
,,,,,,,,2023-08-16_08h36.55.064,HF_wild_card,2022.2.4,Win32,59.86948452,63d650bb391dd8bb01d022ef,64d2fd46c836a06233681665,64dc79ccf9491dfdd0be8962,,,,,,,decisionTrl,resources/DBN.BMP,resources/DY.BMP,Door1,0.131481524,-0.017592607,1,0,0,0.3646,optionRight,30,930,1,17,0,17,0,1,,,,,,,,,,,,,,,,,,,,,,,,,,,,,,,,,,,,,,,
,,,,,,,,2023-08-16_08h36.55.064,HF_wild_card,2022.2.4,Win32,59.86948452,63d650bb391dd8bb01d022ef,64d2fd46c836a06233681665,64dc79ccf9491dfdd0be8962,,,,,,,sngl,resources/Empty.png,resources/DP.BMP,Door4,0.252777806,-0.018518519,1,0,0,0.6813,optionRight,60,990,1,18,0,18,0,1,,,,,,,,,,,,,,,,,,,,,,,,,,,,,,,,,,,,,,,
,,,,,,,,2023-08-16_08h36.55.064,HF_wild_card,2022.2.4,Win32,59.86948452,63d650bb391dd8bb01d022ef,64d2fd46c836a06233681665,64dc79ccf9491dfdd0be8962,,,,,,,decisionTrl,resources/DR.BMP,resources/DBN.BMP,WildCard_NonEx,-0.237037023,-0.040740755,1,0,0,0.4306,optionLeft,55,1045,1,19,0,19,0,1,,,,,,,,,,,,,,,,,,,,,,,,,,,,,,,,,,,,,,,
,,,,,,,,2023-08-16_08h36.55.064,HF_wild_card,2022.2.4,Win32,59.86948452,63d650bb391dd8bb01d022ef,64d2fd46c836a06233681665,64dc79ccf9491dfdd0be8962,,,,,,,decisionTrl,resources/DBN.BMP,resources/DY.BMP,Door1,0.273148148,-0.015740748,1,0,0,0.4963,optionRight,30,1075,1,20,0,20,0,1,,,,,,,,,,,,,,,,,,,,,,,,,,,,,,,,,,,,,,,
,,,,,,,,2023-08-16_08h36.55.064,HF_wild_card,2022.2.4,Win32,59.86948452,63d650bb391dd8bb01d022ef,64d2fd46c836a06233681665,64dc79ccf9491dfdd0be8962,,,,,,,sngl,resources/DR.BMP,resources/Empty.png,WildCard_NonEx,-0.201851809,0.012962942,1,0,0,0.4312,optionLeft,45,1120,1,21,0,21,0,1,,,,,,,,,,,,,,,,,,,,,,,,,,,,,,,,,,,,,,,
,,,,,,,,2023-08-16_08h36.55.064,HF_wild_card,2022.2.4,Win32,59.86948452,63d650bb391dd8bb01d022ef,64d2fd46c836a06233681665,64dc79ccf9491dfdd0be8962,,,,,,,decisionTrl,resources/DY.BMP,resources/DBN.BMP,Door2,0.240740741,-0.057407414,1,0,0,0.4803,optionRight,20,1140,1,22,0,22,0,1,,,,,,,,,,,,,,,,,,,,,,,,,,,,,,,,,,,,,,,
,,,,,,,,2023-08-16_08h36.55.064,HF_wild_card,2022.2.4,Win32,59.86948452,63d650bb391dd8bb01d022ef,64d2fd46c836a06233681665,64dc79ccf9491dfdd0be8962,,,,,,,decisionTrl,resources/DY.BMP,resources/DBN.BMP,Door1,-0.252777735,-0.032407407,1,0,0,0.4479,optionLeft,30,1170,1,23,0,23,0,1,,,,,,,,,,,,,,,,,,,,,,,,,,,,,,,,,,,,,,,
,,,,,,,,2023-08-16_08h36.55.064,HF_wild_card,2022.2.4,Win32,59.86948452,63d650bb391dd8bb01d022ef,64d2fd46c836a06233681665,64dc79ccf9491dfdd0be8962,,,,,,,decisionTrl,resources/DP.BMP,resources/DB.BMP,Door3,0.20185188,-0.055555556,1,0,0,0.4646,optionRight,70,1240,1,24,0,24,0,1,,,,,,,,,,,,,,,,,,,,,,,,,,,,,,,,,,,,,,,
,,,,,,,,2023-08-16_08h36.55.064,HF_wild_card,2022.2.4,Win32,59.86948452,63d650bb391dd8bb01d022ef,64d2fd46c836a06233681665,64dc79ccf9491dfdd0be8962,,,,,,,decisionTrl,resources/DB.BMP,resources/DP.BMP,Door3,-0.206481439,-0.01203703,1,0,0,0.4467,optionLeft,70,1310,1,25,0,25,0,1,,,,,,,,,,,,,,,,,,,,,,,,,,,,,,,,,,,,,,,
,,,,,,,,2023-08-16_08h36.55.064,HF_wild_card,2022.2.4,Win32,59.86948452,63d650bb391dd8bb01d022ef,64d2fd46c836a06233681665,64dc79ccf9491dfdd0be8962,,,,,,,sngl,resources/Empty.png,resources/DBN.BMP,Door2,0.202777792,-0.00462963,1,0,0,0.431,optionRight,20,1330,1,26,0,26,0,1,,,,,,,,,,,,,,,,,,,,,,,,,,,,,,,,,,,,,,,
,,,,,,,,2023-08-16_08h36.55.064,HF_wild_card,2022.2.4,Win32,59.86948452,63d650bb391dd8bb01d022ef,64d2fd46c836a06233681665,64dc79ccf9491dfdd0be8962,,,,,,,decisionTrl,resources/DR.BMP,resources/DY.BMP,WildCard_NonEx,-0.165740755,0.00462963,1,0,0,0.448,optionLeft,55,1385,1,27,0,27,0,1,,,,,,,,,,,,,,,,,,,,,,,,,,,,,,,,,,,,,,,
,,,,,,,,2023-08-16_08h36.55.064,HF_wild_card,2022.2.4,Win32,59.86948452,63d650bb391dd8bb01d022ef,64d2fd46c836a06233681665,64dc79ccf9491dfdd0be8962,,,,,,,decisionTrl,resources/DB.BMP,resources/DP.BMP,Door4,0.14907406,-0.034259266,1,0,0,0.3637,optionRight,80,1465,1,28,0,28,0,1,,,,,,,,,,,,,,,,,,,,,,,,,,,,,,,,,,,,,,,
,,,,,,,,2023-08-16_08h36.55.064,HF_wild_card,2022.2.4,Win32,59.86948452,63d650bb391dd8bb01d022ef,64d2fd46c836a06233681665,64dc79ccf9491dfdd0be8962,,,,,,,ctch,resources/DY.BMP,resources/DP.BMP,Door1,-0.227777764,-0.018518519,1,0,0,0.3984,optionLeft,30,1495,1,29,0,29,0,1,,,,,,,,,,,,,,,,,,,,,,,,,,,,,,,,,,,,,,,
,,,,,,,,2023-08-16_08h36.55.064,HF_wild_card,2022.2.4,Win32,59.86948452,63d650bb391dd8bb01d022ef,64d2fd46c836a06233681665,64dc79ccf9491dfdd0be8962,,,,,,,decisionTrl,resources/DBN.BMP,resources/DY.BMP,Door1,0.088888875,-0.01666666,1,0,0,0.3322,optionRight,30,1525,1,30,0,30,0,1,,,,,,,,,,,,,,,,,,,,,,,,,,,,,,,,,,,,,,,
,,,,,,,,2023-08-16_08h36.55.064,HF_wild_card,2022.2.4,Win32,59.86948452,63d650bb391dd8bb01d022ef,64d2fd46c836a06233681665,64dc79ccf9491dfdd0be8962,,,,,,,decisionTrl,resources/DP.BMP,resources/DB.BMP,Door4,-0.167592578,-0.019444466,1,0,0,0.365,optionLeft,60,1585,1,31,0,31,0,1,,,,,,,,,,,,,,,,,,,,,,,,,,,,,,,,,,,,,,,
,,,,,,,,2023-08-16_08h36.55.064,HF_wild_card,2022.2.4,Win32,59.86948452,63d650bb391dd8bb01d022ef,64d2fd46c836a06233681665,64dc79ccf9491dfdd0be8962,,,,,,,decisionTrl,resources/DY.BMP,resources/DBN.BMP,Door2,0.210185228,-0.042592614,1,0,0,0.5481,optionRight,20,1605,1,32,0,32,0,1,,,,,,,,,,,,,,,,,,,,,,,,,,,,,,,,,,,,,,,
,,,,,,,,2023-08-16_08h36.55.064,HF_wild_card,2022.2.4,Win32,59.86948452,63d650bb391dd8bb01d022ef,64d2fd46c836a06233681665,64dc79ccf9491dfdd0be8962,,,,,,,decisionTrl,resources/DP.BMP,resources/DB.BMP,Door4,-0.207407422,-0.023148148,1,0,0,0.4802,optionLeft,60,1665,1,33,0,33,0,1,,,,,,,,,,,,,,,,,,,,,,,,,,,,,,,,,,,,,,,
,,,,,,,,2023-08-16_08h36.55.064,HF_wild_card,2022.2.4,Win32,59.86948452,63d650bb391dd8bb01d022ef,64d2fd46c836a06233681665,64dc79ccf9491dfdd0be8962,,,,,,,sngl,resources/DR.BMP,resources/Empty.png,WildCard_NonEx,-0.175000014,-0.037037037,1,0,0,0.5639,optionLeft,55,1720,1,34,0,34,0,1,,,,,,,,,,,,,,,,,,,,,,,,,,,,,,,,,,,,,,,
,,,,,,,,2023-08-16_08h36.55.064,HF_wild_card,2022.2.4,Win32,59.86948452,63d650bb391dd8bb01d022ef,64d2fd46c836a06233681665,64dc79ccf9491dfdd0be8962,,,,,,,decisionTrl,resources/DB.BMP,resources/DR.BMP,Door3,-0.265740712,-0.091666681,1,0,0,0.4791,optionLeft,70,1790,1,35,0,35,0,1,,,,,,,,,,,,,,,,,,,,,,,,,,,,,,,,,,,,,,,
,,,,,,,,2023-08-16_08h36.55.064,HF_wild_card,2022.2.4,Win32,59.86948452,63d650bb391dd8bb01d022ef,64d2fd46c836a06233681665,64dc79ccf9491dfdd0be8962,,,,,,,ctch,resources/DB.BMP,resources/DBN.BMP,Door3,-0.251851824,-0.058333326,1,0,0,0.4315,optionLeft,70,1860,1,36,0,36,0,1,,,,,,,,,,,,,,,,,,,,,,,,,,,,,,,,,,,,,,,
,,,,,,,,2023-08-16_08h36.55.064,HF_wild_card,2022.2.4,Win32,59.86948452,63d650bb391dd8bb01d022ef,64d2fd46c836a06233681665,64dc79ccf9491dfdd0be8962,,,,,,,decisionTrl,resources/DR.BMP,resources/DB.BMP,Door3,0.193518533,-0.031481496,1,0,0,0.4311,optionRight,70,1930,1,37,0,37,0,1,,,,,,,,,,,,,,,,,,,,,,,,,,,,,,,,,,,,,,,
,,,,,,,,2023-08-16_08h36.55.064,HF_wild_card,2022.2.4,Win32,59.86948452,63d650bb391dd8bb01d022ef,64d2fd46c836a06233681665,64dc79ccf9491dfdd0be8962,,,,,,,decisionTrl,resources/DBN.BMP,resources/DR.BMP,Door2,-0.299999979,-0.008333347,1,0,0,0.4465,optionLeft,20,1950,1,38,0,38,0,1,,,,,,,,,,,,,,,,,,,,,,,,,,,,,,,,,,,,,,,
,,,,,,,,2023-08-16_08h36.55.064,HF_wild_card,2022.2.4,Win32,59.86948452,63d650bb391dd8bb01d022ef,64d2fd46c836a06233681665,64dc79ccf9491dfdd0be8962,,,,,,,sngl,resources/DB.BMP,resources/Empty.png,Door3,-0.250925912,-0.021296289,1,0,0,0.6637,optionLeft,70,2020,1,39,0,39,0,1,,,,,,,,,,,,,,,,,,,,,,,,,,,,,,,,,,,,,,,
,,,,,,,,2023-08-16_08h36.55.064,HF_wild_card,2022.2.4,Win32,59.86948452,63d650bb391dd8bb01d022ef,64d2fd46c836a06233681665,64dc79ccf9491dfdd0be8962,,,,,,,sngl,resources/DBN.BMP,resources/Empty.png,Door2,-0.324074074,-0.040740755,1,0,0,0.5651,optionLeft,40,2060,1,40,0,40,0,1,,,,,,,,,,,,,,,,,,,,,,,,,,,,,,,,,,,,,,,
,,,,,,,,2023-08-16_08h36.55.064,HF_wild_card,2022.2.4,Win32,59.86948452,63d650bb391dd8bb01d022ef,64d2fd46c836a06233681665,64dc79ccf9491dfdd0be8962,,,,,,,decisionTrl,resources/DP.BMP,resources/DR.BMP,WildCard_NonEx,0.255555541,-0.059259273,1,0,0,0.4147,optionRight,45,2105,1,41,0,41,0,1,,,,,,,,,,,,,,,,,,,,,,,,,,,,,,,,,,,,,,,
,,,,,,,,2023-08-16_08h36.55.064,HF_wild_card,2022.2.4,Win32,59.86948452,63d650bb391dd8bb01d022ef,64d2fd46c836a06233681665,64dc79ccf9491dfdd0be8962,,,,,,,decisionTrl,resources/DBN.BMP,resources/DY.BMP,Door1,0.191666709,-0.012962977,1,0,0,0.3483,optionRight,30,2135,1,42,0,42,0,1,,,,,,,,,,,,,,,,,,,,,,,,,,,,,,,,,,,,,,,
,,,,,,,,2023-08-16_08h36.55.064,HF_wild_card,2022.2.4,Win32,59.86948452,63d650bb391dd8bb01d022ef,64d2fd46c836a06233681665,64dc79ccf9491dfdd0be8962,,,,,,,decisionTrl,resources/DP.BMP,resources/DB.BMP,Door4,-0.220370328,0.003703683,1,0,0,0.4313,optionLeft,60,2195,1,43,0,43,0,1,,,,,,,,,,,,,,,,,,,,,,,,,,,,,,,,,,,,,,,
,,,,,,,,2023-08-16_08h36.55.064,HF_wild_card,2022.2.4,Win32,59.86948452,63d650bb391dd8bb01d022ef,64d2fd46c836a06233681665,64dc79ccf9491dfdd0be8962,,,,,,,,,,,,,,,,,,,,,,,,,,0,0,0,0,1,,,,,,,,,,,,,,,,,,,,,,,,,,,,,,,,,,
,,,,,,,,2023-08-16_08h36.55.064,HF_wild_card,2022.2.4,Win32,59.86948452,63d650bb391dd8bb01d022ef,64d2fd46c836a06233681665,64dc79ccf9491dfdd0be8962,,,,,,,decisionTrl,resources/DP.BMP,resources/DB.BMP,Door4,-0.178703661,-0.086111104,1,0,0,0.6128,optionLeft,60,2255,2,0,0,0,0,1,,,,,,,,,,,,,,,,,,,,,,,,,,,,,,,,,,,,,,,
,,,,,,,,2023-08-16_08h36.55.064,HF_wild_card,2022.2.4,Win32,59.86948452,63d650bb391dd8bb01d022ef,64d2fd46c836a06233681665,64dc79ccf9491dfdd0be8962,,,,,,,ctch,resources/DP.BMP,resources/DY.BMP,Door4,-0.252777735,-0.033333355,1,0,0,0.3813,optionLeft,60,2315,2,1,0,1,0,1,,,,,,,,,,,,,,,,,,,,,,,,,,,,,,,,,,,,,,,
,,,,,,,,2023-08-16_08h36.55.064,HF_wild_card,2022.2.4,Win32,59.86948452,63d650bb391dd8bb01d022ef,64d2fd46c836a06233681665,64dc79ccf9491dfdd0be8962,,,,,,,sngl,resources/DR.BMP,resources/Empty.png,WildCard_NonEx,-0.22592594,-0.009259259,1,0,0,0.3483,optionLeft,45,2360,2,2,0,2,0,1,,,,,,,,,,,,,,,,,,,,,,,,,,,,,,,,,,,,,,,
,,,,,,,,2023-08-16_08h36.55.064,HF_wild_card,2022.2.4,Win32,59.86948452,63d650bb391dd8bb01d022ef,64d2fd46c836a06233681665,64dc79ccf9491dfdd0be8962,,,,,,,ctch,resources/DB.BMP,resources/DBN.BMP,Door2,0.137037065,-0.01203703,1,0,0,0.3318,optionRight,40,2400,2,3,0,3,0,1,,,,,,,,,,,,,,,,,,,,,,,,,,,,,,,,,,,,,,,
,,,,,,,,2023-08-16_08h36.55.064,HF_wild_card,2022.2.4,Win32,59.86948452,63d650bb391dd8bb01d022ef,64d2fd46c836a06233681665,64dc79ccf9491dfdd0be8962,,,,,,,decisionTrl,resources/DP.BMP,resources/DR.BMP,Door4,-0.157407407,-0.032407407,1,0,0,0.3479,optionLeft,80,2480,2,4,0,4,0,1,,,,,,,,,,,,,,,,,,,,,,,,,,,,,,,,,,,,,,,
,,,,,,,,2023-08-16_08h36.55.064,HF_wild_card,2022.2.4,Win32,59.86948452,63d650bb391dd8bb01d022ef,64d2fd46c836a06233681665,64dc79ccf9491dfdd0be8962,,,,,,,decisionTrl,resources/DY.BMP,resources/DBN.BMP,Door1,-0.204629616,-0.031481496,1,0,0,0.2977,optionLeft,30,2510,2,5,0,5,0,1,,,,,,,,,,,,,,,,,,,,,,,,,,,,,,,,,,,,,,,
,,,,,,,,2023-08-16_08h36.55.064,HF_wild_card,2022.2.4,Win32,59.86948452,63d650bb391dd8bb01d022ef,64d2fd46c836a06233681665,64dc79ccf9491dfdd0be8962,,,,,,,decisionTrl,resources/DB.BMP,resources/DP.BMP,Door3,-0.341666645,-0.019444466,1,0,0,0.3816,optionLeft,70,2580,2,6,0,6,0,1,,,,,,,,,,,,,,,,,,,,,,,,,,,,,,,,,,,,,,,
,,,,,,,,2023-08-16_08h36.55.064,HF_wild_card,2022.2.4,Win32,59.86948452,63d650bb391dd8bb01d022ef,64d2fd46c836a06233681665,64dc79ccf9491dfdd0be8962,,,,,,,decisionTrl,resources/DY.BMP,resources/DR.BMP,WildCard_NonEx,0.160185213,0.02870369,1,0,0,0.2982,optionRight,45,2625,2,7,0,7,0,1,,,,,,,,,,,,,,,,,,,,,,,,,,,,,,,,,,,,,,,
,,,,,,,,2023-08-16_08h36.55.064,HF_wild_card,2022.2.4,Win32,59.86948452,63d650bb391dd8bb01d022ef,64d2fd46c836a06233681665,64dc79ccf9491dfdd0be8962,,,,,,,sngl,resources/DB.BMP,resources/Empty.png,Door3,-0.234259217,-0.002777771,1,0,0,0.43,optionLeft,70,2695,2,8,0,8,0,1,,,,,,,,,,,,,,,,,,,,,,,,,,,,,,,,,,,,,,,
,,,,,,,,2023-08-16_08h36.55.064,HF_wild_card,2022.2.4,Win32,59.86948452,63d650bb391dd8bb01d022ef,64d2fd46c836a06233681665,64dc79ccf9491dfdd0be8962,,,,,,,sngl,resources/Empty.png,resources/DR.BMP,WildCard_NonEx,0.202777792,-0.026851866,1,0,0,0.3317,optionRight,55,2750,2,9,0,9,0,1,,,,,,,,,,,,,,,,,,,,,,,,,,,,,,,,,,,,,,,
,,,,,,,,2023-08-16_08h36.55.064,HF_wild_card,2022.2.4,Win32,59.86948452,63d650bb391dd8bb01d022ef,64d2fd46c836a06233681665,64dc79ccf9491dfdd0be8962,,,,,,,decisionTrl,resources/DBN.BMP,resources/DY.BMP,Door2,-0.175925926,-0.040740755,1,0,0,0.3483,optionLeft,40,2790,2,10,0,10,0,1,,,,,,,,,,,,,,,,,,,,,,,,,,,,,,,,,,,,,,,
,,,,,,,,2023-08-16_08h36.55.064,HF_wild_card,2022.2.4,Win32,59.86948452,63d650bb391dd8bb01d022ef,64d2fd46c836a06233681665,64dc79ccf9491dfdd0be8962,,,,,,,sngl,resources/DP.BMP,resources/Empty.png,Door4,-0.223148134,-0.051851873,1,0,0,0.2978,optionLeft,60,2850,2,11,0,11,0,1,,,,,,,,,,,,,,,,,,,,,,,,,,,,,,,,,,,,,,,
,,,,,,,,2023-08-16_08h36.55.064,HF_wild_card,2022.2.4,Win32,59.86948452,63d650bb391dd8bb01d022ef,64d2fd46c836a06233681665,64dc79ccf9491dfdd0be8962,,,,,,,sngl,resources/DR.BMP,resources/Empty.png,WildCard_NonEx,-0.309259238,-0.025000007,1,0,0,0.4315,optionLeft,55,2905,2,12,0,12,0,1,,,,,,,,,,,,,,,,,,,,,,,,,,,,,,,,,,,,,,,
,,,,,,,,2023-08-16_08h36.55.064,HF_wild_card,2022.2.4,Win32,59.86948452,63d650bb391dd8bb01d022ef,64d2fd46c836a06233681665,64dc79ccf9491dfdd0be8962,,,,,,,ctch,resources/DBN.BMP,resources/DB.BMP,Door3,0.111111111,-0.018518519,1,0,0,0.2651,optionRight,70,2975,2,13,0,13,0,1,,,,,,,,,,,,,,,,,,,,,,,,,,,,,,,,,,,,,,,
,,,,,,,,2023-08-16_08h36.55.064,HF_wild_card,2022.2.4,Win32,59.86948452,63d650bb391dd8bb01d022ef,64d2fd46c836a06233681665,64dc79ccf9491dfdd0be8962,,,,,,,decisionTrl,resources/DBN.BMP,resources/DR.BMP,Door2,-0.172222208,-0.01666666,1,0,0,0.2985,optionLeft,20,2995,2,14,0,14,0,1,,,,,,,,,,,,,,,,,,,,,,,,,,,,,,,,,,,,,,,
,,,,,,,,2023-08-16_08h36.55.064,HF_wild_card,2022.2.4,Win32,59.86948452,63d650bb391dd8bb01d022ef,64d2fd46c836a06233681665,64dc79ccf9491dfdd0be8962,,,,,,,sngl,resources/Empty.png,resources/DP.BMP,Door4,-0.014814801,-0.019444466,1,0,0,0.2733,optionRight,80,3075,2,15,0,15,0,1,,,,,,,,,,,,,,,,,,,,,,,,,,,,,,,,,,,,,,,
,,,,,,,,2023-08-16_08h36.55.064,HF_wild_card,2022.2.4,Win32,59.86948452,63d650bb391dd8bb01d022ef,64d2fd46c836a06233681665,64dc79ccf9491dfdd0be8962,,,,,,,sngl,resources/Empty.png,resources/DY.BMP,Door1,0.252777806,-0.011111118,1,0,0,0.6148,optionRight,30,3105,2,16,0,16,0,1,,,,,,,,,,,,,,,,,,,,,,,,,,,,,,,,,,,,,,,
,,,,,,,,2023-08-16_08h36.55.064,HF_wild_card,2022.2.4,Win32,59.86948452,63d650bb391dd8bb01d022ef,64d2fd46c836a06233681665,64dc79ccf9491dfdd0be8962,,,,,,,decisionTrl,resources/DBN.BMP,resources/DY.BMP,Door2,-0.162962949,-0.038888896,1,0,0,0.3455,optionLeft,40,3145,2,17,0,17,0,1,,,,,,,,,,,,,,,,,,,,,,,,,,,,,,,,,,,,,,,
,,,,,,,,2023-08-16_08h36.55.064,HF_wild_card,2022.2.4,Win32,59.86948452,63d650bb391dd8bb01d022ef,64d2fd46c836a06233681665,64dc79ccf9491dfdd0be8962,,,,,,,ctch,resources/DBN.BMP,resources/DB.BMP,Door3,0.170370384,0.001851859,1,0,0,0.3648,optionRight,70,3215,2,18,0,18,0,1,,,,,,,,,,,,,,,,,,,,,,,,,,,,,,,,,,,,,,,
,,,,,,,,2023-08-16_08h36.55.064,HF_wild_card,2022.2.4,Win32,59.86948452,63d650bb391dd8bb01d022ef,64d2fd46c836a06233681665,64dc79ccf9491dfdd0be8962,,,,,,,decisionTrl,resources/DR.BMP,resources/DB.BMP,WildCard_NonEx,-0.274999972,-0.022222236,1,0,0,0.4305,optionLeft,45,3260,2,19,0,19,0,1,,,,,,,,,,,,,,,,,,,,,,,,,,,,,,,,,,,,,,,
,,,,,,,,2023-08-16_08h36.55.064,HF_wild_card,2022.2.4,Win32,59.86948452,63d650bb391dd8bb01d022ef,64d2fd46c836a06233681665,64dc79ccf9491dfdd0be8962,,,,,,,decisionTrl,resources/DY.BMP,resources/DBN.BMP,Door2,0.159259302,-0.01666666,1,0,0,0.3464,optionRight,40,3300,2,20,0,20,0,1,,,,,,,,,,,,,,,,,,,,,,,,,,,,,,,,,,,,,,,
,,,,,,,,2023-08-16_08h36.55.064,HF_wild_card,2022.2.4,Win32,59.86948452,63d650bb391dd8bb01d022ef,64d2fd46c836a06233681665,64dc79ccf9491dfdd0be8962,,,,,,,decisionTrl,resources/DP.BMP,resources/DB.BMP,Door4,-0.213888875,-0.019444466,1,0,0,0.3966,optionLeft,80,3380,2,21,0,21,0,1,,,,,,,,,,,,,,,,,,,,,,,,,,,,,,,,,,,,,,,
,,,,,,,,2023-08-16_08h36.55.064,HF_wild_card,2022.2.4,Win32,59.86948452,63d650bb391dd8bb01d022ef,64d2fd46c836a06233681665,64dc79ccf9491dfdd0be8962,,,,,,,decisionTrl,resources/DB.BMP,resources/DP.BMP,Door3,-0.10092594,-0.047222243,1,0,0,0.4132,optionLeft,70,3450,2,22,0,22,0,1,,,,,,,,,,,,,,,,,,,,,,,,,,,,,,,,,,,,,,,
,,,,,,,,2023-08-16_08h36.55.064,HF_wild_card,2022.2.4,Win32,59.86948452,63d650bb391dd8bb01d022ef,64d2fd46c836a06233681665,64dc79ccf9491dfdd0be8962,,,,,,,decisionTrl,resources/DB.BMP,resources/DR.BMP,WildCard_NonEx,0.007407436,-0.001851859,0,0,1,0.3132,optionRight,55,3505,2,23,0,23,0,1,,,,,,,,,,,,,,,,,,,,,,,,,,,,,,,,,,,,,,,
,,,,,,,,2023-08-16_08h36.55.064,HF_wild_card,2022.2.4,Win32,59.86948452,63d650bb391dd8bb01d022ef,64d2fd46c836a06233681665,64dc79ccf9491dfdd0be8962,,,,,,,decisionTrl,resources/DY.BMP,resources/DBN.BMP,Door1,-0.224999958,0.012962942,1,0,0,0.3915,optionLeft,30,3535,2,24,0,24,0,1,,,,,,,,,,,,,,,,,,,,,,,,,,,,,,,,,,,,,,,
,,,,,,,,2023-08-16_08h36.55.064,HF_wild_card,2022.2.4,Win32,59.86948452,63d650bb391dd8bb01d022ef,64d2fd46c836a06233681665,64dc79ccf9491dfdd0be8962,,,,,,,sngl,resources/DY.BMP,resources/Empty.png,Door1,-0.211111069,-0.009259259,1,0,0,0.5629,optionLeft,30,3565,2,25,0,25,0,1,,,,,,,,,,,,,,,,,,,,,,,,,,,,,,,,,,,,,,,
,,,,,,,,2023-08-16_08h36.55.064,HF_wild_card,2022.2.4,Win32,59.86948452,63d650bb391dd8bb01d022ef,64d2fd46c836a06233681665,64dc79ccf9491dfdd0be8962,,,,,,,decisionTrl,resources/DR.BMP,resources/DY.BMP,WildCard_NonEx,-0.226851852,-0.029629637,1,0,0,0.4233,optionLeft,45,3610,2,26,0,26,0,1,,,,,,,,,,,,,,,,,,,,,,,,,,,,,,,,,,,,,,,
,,,,,,,,2023-08-16_08h36.55.064,HF_wild_card,2022.2.4,Win32,59.86948452,63d650bb391dd8bb01d022ef,64d2fd46c836a06233681665,64dc79ccf9491dfdd0be8962,,,,,,,decisionTrl,resources/DB.BMP,resources/DP.BMP,Door3,-0.328703704,-0.026851866,1,0,0,0.4302,optionLeft,70,3680,2,27,0,27,0,1,,,,,,,,,,,,,,,,,,,,,,,,,,,,,,,,,,,,,,,
,,,,,,,,2023-08-16_08h36.55.064,HF_wild_card,2022.2.4,Win32,59.86948452,63d650bb391dd8bb01d022ef,64d2fd46c836a06233681665,64dc79ccf9491dfdd0be8962,,,,,,,sngl,resources/DBN.BMP,resources/Empty.png,Door2,-0.15370369,-0.039814808,1,0,0,0.5475,optionLeft,20,3700,2,28,0,28,0,1,,,,,,,,,,,,,,,,,,,,,,,,,,,,,,,,,,,,,,,
,,,,,,,,2023-08-16_08h36.55.064,HF_wild_card,2022.2.4,Win32,59.86948452,63d650bb391dd8bb01d022ef,64d2fd46c836a06233681665,64dc79ccf9491dfdd0be8962,,,,,,,decisionTrl,resources/DY.BMP,resources/DBN.BMP,Door2,0.163888931,-0.006481489,1,0,0,0.7632,optionRight,20,3720,2,29,0,29,0,1,,,,,,,,,,,,,,,,,,,,,,,,,,,,,,,,,,,,,,,
,,,,,,,,2023-08-16_08h36.55.064,HF_wild_card,2022.2.4,Win32,59.86948452,63d650bb391dd8bb01d022ef,64d2fd46c836a06233681665,64dc79ccf9491dfdd0be8962,,,,,,,decisionTrl,resources/DP.BMP,resources/DB.BMP,Door4,-0.242592564,-0.042592614,1,0,0,0.5139,optionLeft,60,3780,2,30,0,30,0,1,,,,,,,,,,,,,,,,,,,,,,,,,,,,,,,,,,,,,,,
,,,,,,,,2023-08-16_08h36.55.064,HF_wild_card,2022.2.4,Win32,59.86948452,63d650bb391dd8bb01d022ef,64d2fd46c836a06233681665,64dc79ccf9491dfdd0be8962,,,,,,,decisionTrl,resources/DBN.BMP,resources/DY.BMP,Door1,0.211111139,-0.036111125,1,0,0,0.6137,optionRight,30,3810,2,31,0,31,0,1,,,,,,,,,,,,,,,,,,,,,,,,,,,,,,,,,,,,,,,
,,,,,,,,2023-08-16_08h36.55.064,HF_wild_card,2022.2.4,Win32,59.86948452,63d650bb391dd8bb01d022ef,64d2fd46c836a06233681665,64dc79ccf9491dfdd0be8962,,,,,,,decisionTrl,resources/DR.BMP,resources/DP.BMP,WildCard_NonEx,-0.193518533,-0.018518519,1,0,0,0.4138,optionLeft,45,3855,2,32,0,32,0,1,,,,,,,,,,,,,,,,,,,,,,,,,,,,,,,,,,,,,,,
,,,,,,,,2023-08-16_08h36.55.064,HF_wild_card,2022.2.4,Win32,59.86948452,63d650bb391dd8bb01d022ef,64d2fd46c836a06233681665,64dc79ccf9491dfdd0be8962,,,,,,,decisionTrl,resources/DP.BMP,resources/DB.BMP,Door3,0.189814815,0.0074074,1,0,0,0.4806,optionRight,70,3925,2,33,0,33,0,1,,,,,,,,,,,,,,,,,,,,,,,,,,,,,,,,,,,,,,,
,,,,,,,,2023-08-16_08h36.55.064,HF_wild_card,2022.2.4,Win32,59.86948452,63d650bb391dd8bb01d022ef,64d2fd46c836a06233681665,64dc79ccf9491dfdd0be8962,,,,,,,ctch,resources/DY.BMP,resources/DP.BMP,Door1,-0.22129631,-0.028703725,1,0,0,0.4553,optionLeft,30,3955,2,34,0,34,0,1,,,,,,,,,,,,,,,,,,,,,,,,,,,,,,,,,,,,,,,
,,,,,,,,2023-08-16_08h36.55.064,HF_wild_card,2022.2.4,Win32,59.86948452,63d650bb391dd8bb01d022ef,64d2fd46c836a06233681665,64dc79ccf9491dfdd0be8962,,,,,,,sngl,resources/Empty.png,resources/DB.BMP,Door3,0.277777778,-0.012962977,1,0,0,0.6138,optionRight,70,4025,2,35,0,35,0,1,,,,,,,,,,,,,,,,,,,,,,,,,,,,,,,,,,,,,,,
,,,,,,,,2023-08-16_08h36.55.064,HF_wild_card,2022.2.4,Win32,59.86948452,63d650bb391dd8bb01d022ef,64d2fd46c836a06233681665,64dc79ccf9491dfdd0be8962,,,,,,,decisionTrl,resources/DB.BMP,resources/DP.BMP,Door3,-0.374074053,-0.062037044,1,0,0,0.4804,optionLeft,70,4095,2,36,0,36,0,1,,,,,,,,,,,,,,,,,,,,,,,,,,,,,,,,,,,,,,,
,,,,,,,,2023-08-16_08h36.55.064,HF_wild_card,2022.2.4,Win32,59.86948452,63d650bb391dd8bb01d022ef,64d2fd46c836a06233681665,64dc79ccf9491dfdd0be8962,,,,,,,sngl,resources/Empty.png,resources/DR.BMP,WildCard_NonEx,0.166666667,0.006481489,1,0,0,0.3809,optionRight,45,4140,2,37,0,37,0,1,,,,,,,,,,,,,,,,,,,,,,,,,,,,,,,,,,,,,,,
,,,,,,,,2023-08-16_08h36.55.064,HF_wild_card,2022.2.4,Win32,59.86948452,63d650bb391dd8bb01d022ef,64d2fd46c836a06233681665,64dc79ccf9491dfdd0be8962,,,,,,,ctch,resources/DB.BMP,resources/DBN.BMP,Door3,-0.087037051,-0.018518519,1,0,0,0.5146,optionLeft,70,4210,2,38,0,38,0,1,,,,,,,,,,,,,,,,,,,,,,,,,,,,,,,,,,,,,,,
,,,,,,,,2023-08-16_08h36.55.064,HF_wild_card,2022.2.4,Win32,59.86948452,63d650bb391dd8bb01d022ef,64d2fd46c836a06233681665,64dc79ccf9491dfdd0be8962,,,,,,,ctch,resources/DY.BMP,resources/DP.BMP,Door4,0.275000042,0.009259259,1,0,0,0.4739,optionRight,80,4290,2,39,0,39,0,1,,,,,,,,,,,,,,,,,,,,,,,,,,,,,,,,,,,,,,,
,,,,,,,,2023-08-16_08h36.55.064,HF_wild_card,2022.2.4,Win32,59.86948452,63d650bb391dd8bb01d022ef,64d2fd46c836a06233681665,64dc79ccf9491dfdd0be8962,,,,,,,decisionTrl,resources/DBN.BMP,resources/DY.BMP,Door2,-0.122222194,-0.022222236,1,0,0,0.4145,optionLeft,20,4310,2,40,0,40,0,1,,,,,,,,,,,,,,,,,,,,,,,,,,,,,,,,,,,,,,,
,,,,,,,,2023-08-16_08h36.55.064,HF_wild_card,2022.2.4,Win32,59.86948452,63d650bb391dd8bb01d022ef,64d2fd46c836a06233681665,64dc79ccf9491dfdd0be8962,,,,,,,decisionTrl,resources/DR.BMP,resources/DBN.BMP,Door2,0.231481481,-0.040740755,1,0,0,0.3985,optionRight,20,4330,2,41,0,41,0,1,,,,,,,,,,,,,,,,,,,,,,,,,,,,,,,,,,,,,,,
,,,,,,,,2023-08-16_08h36.55.064,HF_wild_card,2022.2.4,Win32,59.86948452,63d650bb391dd8bb01d022ef,64d2fd46c836a06233681665,64dc79ccf9491dfdd0be8962,,,,,,,ctch,resources/DP.BMP,resources/DY.BMP,Door4,-0.205555527,-0.012962977,1,0,0,0.4813,optionLeft,80,4410,2,42,0,42,0,1,,,,,,,,,,,,,,,,,,,,,,,,,,,,,,,,,,,,,,,
,,,,,,,,2023-08-16_08h36.55.064,HF_wild_card,2022.2.4,Win32,59.86948452,63d650bb391dd8bb01d022ef,64d2fd46c836a06233681665,64dc79ccf9491dfdd0be8962,,,,,,,sngl,resources/Empty.png,resources/DBN.BMP,Door2,0.17777782,0.0074074,1,0,0,0.4987,optionRight,40,4450,2,43,0,43,0,1,,,,,,,,,,,,,,,,,,,,,,,,,,,,,,,,,,,,,,,
,,,,,,,,2023-08-16_08h36.55.064,HF_wild_card,2022.2.4,Win32,59.86948452,63d650bb391dd8bb01d022ef,64d2fd46c836a06233681665,64dc79ccf9491dfdd0be8962,,,,,,,,,,,,,,,,,,,,,,,,,,1,0,1,0,1,,,,,,,,,,,,,,,,,,,,,,,,,,,,,,,,,,
,,,,,,,,2023-08-16_08h36.55.064,HF_wild_card,2022.2.4,Win32,59.86948452,63d650bb391dd8bb01d022ef,64d2fd46c836a06233681665,64dc79ccf9491dfdd0be8962,,,,,,,decisionTrl,resources/DB.BMP,resources/DP.BMP,Door3,-0.124074088,-0.112037023,1,0,0,0.4901,optionLeft,70,4520,3,0,0,0,0,1,,,,,,,,,,,,,,,,,,,,,,,,,,,,,,,,,,,,,,,
,,,,,,,,2023-08-16_08h36.55.064,HF_wild_card,2022.2.4,Win32,59.86948452,63d650bb391dd8bb01d022ef,64d2fd46c836a06233681665,64dc79ccf9491dfdd0be8962,,,,,,,ctch,resources/DBN.BMP,resources/DB.BMP,Door3,0.26944443,-0.027777778,1,0,0,0.4477,optionRight,70,4590,3,1,0,1,0,1,,,,,,,,,,,,,,,,,,,,,,,,,,,,,,,,,,,,,,,
,,,,,,,,2023-08-16_08h36.55.064,HF_wild_card,2022.2.4,Win32,59.86948452,63d650bb391dd8bb01d022ef,64d2fd46c836a06233681665,64dc79ccf9491dfdd0be8962,,,,,,,decisionTrl,resources/DP.BMP,resources/DB.BMP,Door4,-0.239814829,0.00462963,1,0,0,0.3982,optionLeft,60,4650,3,2,0,2,0,1,,,,,,,,,,,,,,,,,,,,,,,,,,,,,,,,,,,,,,,
,,,,,,,,2023-08-16_08h36.55.064,HF_wild_card,2022.2.4,Win32,59.86948452,63d650bb391dd8bb01d022ef,64d2fd46c836a06233681665,64dc79ccf9491dfdd0be8962,,,,,,,decisionTrl,resources/DP.BMP,resources/DB.BMP,Door4,-0.201851809,0,1,0,0,0.4649,optionLeft,80,4730,3,3,0,3,0,1,,,,,,,,,,,,,,,,,,,,,,,,,,,,,,,,,,,,,,,
,,,,,,,,2023-08-16_08h36.55.064,HF_wild_card,2022.2.4,Win32,59.86948452,63d650bb391dd8bb01d022ef,64d2fd46c836a06233681665,64dc79ccf9491dfdd0be8962,,,,,,,decisionTrl,resources/DB.BMP,resources/DP.BMP,Door4,0.135185171,0.008333312,1,0,0,0.2979,optionRight,80,4810,3,4,0,4,0,1,,,,,,,,,,,,,,,,,,,,,,,,,,,,,,,,,,,,,,,
,,,,,,,,2023-08-16_08h36.55.064,HF_wild_card,2022.2.4,Win32,59.86948452,63d650bb391dd8bb01d022ef,64d2fd46c836a06233681665,64dc79ccf9491dfdd0be8962,,,,,,,decisionTrl,resources/DR.BMP,resources/DB.BMP,WildCard_NonEx,-0.268518519,-0.062962956,1,0,0,0.565,optionLeft,45,4855,3,5,0,5,0,1,,,,,,,,,,,,,,,,,,,,,,,,,,,,,,,,,,,,,,,
,,,,,,,,2023-08-16_08h36.55.064,HF_wild_card,2022.2.4,Win32,59.86948452,63d650bb391dd8bb01d022ef,64d2fd46c836a06233681665,64dc79ccf9491dfdd0be8962,,,,,,,decisionTrl,resources/DY.BMP,resources/DBN.BMP,Door1,-0.267592607,-0.066666674,1,0,0,0.665,optionLeft,30,4885,3,6,0,6,0,1,,,,,,,,,,,,,,,,,,,,,,,,,,,,,,,,,,,,,,,
,,,,,,,,2023-08-16_08h36.55.064,HF_wild_card,2022.2.4,Win32,59.86948452,63d650bb391dd8bb01d022ef,64d2fd46c836a06233681665,64dc79ccf9491dfdd0be8962,,,,,,,sngl,resources/DB.BMP,resources/Empty.png,Door3,-0.196296268,-0.044444437,1,0,0,0.5482,optionLeft,70,4955,3,7,0,7,0,1,,,,,,,,,,,,,,,,,,,,,,,,,,,,,,,,,,,,,,,
,,,,,,,,2023-08-16_08h36.55.064,HF_wild_card,2022.2.4,Win32,59.86948452,63d650bb391dd8bb01d022ef,64d2fd46c836a06233681665,64dc79ccf9491dfdd0be8962,,,,,,,decisionTrl,resources/DBN.BMP,resources/DR.BMP,WildCard_NonEx,0.232407393,0.01203703,1,0,0,0.7485,optionRight,45,5000,3,8,0,8,0,1,,,,,,,,,,,,,,,,,,,,,,,,,,,,,,,,,,,,,,,
,,,,,,,,2023-08-16_08h36.55.064,HF_wild_card,2022.2.4,Win32,59.86948452,63d650bb391dd8bb01d022ef,64d2fd46c836a06233681665,64dc79ccf9491dfdd0be8962,,,,,,,decisionTrl,resources/DR.BMP,resources/DP.BMP,Door4,0.237037023,0.074999986,1,0,0,0.8625,optionRight,60,5060,3,9,0,9,0,1,,,,,,,,,,,,,,,,,,,,,,,,,,,,,,,,,,,,,,,
,,,,,,,,2023-08-16_08h36.55.064,HF_wild_card,2022.2.4,Win32,59.86948452,63d650bb391dd8bb01d022ef,64d2fd46c836a06233681665,64dc79ccf9491dfdd0be8962,,,,,,,decisionTrl,resources/DY.BMP,resources/DBN.BMP,Door2,0.196296339,-0.015740748,1,0,0,1.0147,optionRight,40,5100,3,10,0,10,0,1,,,,,,,,,,,,,,,,,,,,,,,,,,,,,,,,,,,,,,,
,,,,,,,,2023-08-16_08h36.55.064,HF_wild_card,2022.2.4,Win32,59.86948452,63d650bb391dd8bb01d022ef,64d2fd46c836a06233681665,64dc79ccf9491dfdd0be8962,,,,,,,decisionTrl,resources/DB.BMP,resources/DR.BMP,WildCard_NonEx,0.271296325,-0.056481503,1,0,0,1.1984,optionRight,55,5155,3,11,0,11,0,1,,,,,,,,,,,,,,,,,,,,,,,,,,,,,,,,,,,,,,,
,,,,,,,,2023-08-16_08h36.55.064,HF_wild_card,2022.2.4,Win32,59.86948452,63d650bb391dd8bb01d022ef,64d2fd46c836a06233681665,64dc79ccf9491dfdd0be8962,,,,,,,decisionTrl,resources/DB.BMP,resources/DP.BMP,Door3,-0.223148134,-0.038888896,1,0,0,0.6146,optionLeft,70,5225,3,12,0,12,0,1,,,,,,,,,,,,,,,,,,,,,,,,,,,,,,,,,,,,,,,
,,,,,,,,2023-08-16_08h36.55.064,HF_wild_card,2022.2.4,Win32,59.86948452,63d650bb391dd8bb01d022ef,64d2fd46c836a06233681665,64dc79ccf9491dfdd0be8962,,,,,,,ctch,resources/DB.BMP,resources/DBN.BMP,Door3,-0.156481496,-0.029629637,1,0,0,0.6142,optionLeft,70,5295,3,13,0,13,0,1,,,,,,,,,,,,,,,,,,,,,,,,,,,,,,,,,,,,,,,
,,,,,,,,2023-08-16_08h36.55.064,HF_wild_card,2022.2.4,Win32,59.86948452,63d650bb391dd8bb01d022ef,64d2fd46c836a06233681665,64dc79ccf9491dfdd0be8962,,,,,,,ctch,resources/DP.BMP,resources/DY.BMP,Door1,0.124074088,-0.01666666,1,0,0,0.9477,optionRight,30,5325,3,14,0,14,0,1,,,,,,,,,,,,,,,,,,,,,,,,,,,,,,,,,,,,,,,
,,,,,,,,2023-08-16_08h36.55.064,HF_wild_card,2022.2.4,Win32,59.86948452,63d650bb391dd8bb01d022ef,64d2fd46c836a06233681665,64dc79ccf9491dfdd0be8962,,,,,,,ctch,resources/DBN.BMP,resources/DB.BMP,Door3,0.239814829,-0.045370384,1,0,0,0.6819,optionRight,70,5395,3,15,0,15,0,1,,,,,,,,,,,,,,,,,,,,,,,,,,,,,,,,,,,,,,,
,,,,,,,,2023-08-16_08h36.55.064,HF_wild_card,2022.2.4,Win32,59.86948452,63d650bb391dd8bb01d022ef,64d2fd46c836a06233681665,64dc79ccf9491dfdd0be8962,,,,,,,sngl,resources/Empty.png,resources/DB.BMP,Door3,0.160185213,-0.036111125,1,0,0,0.6143,optionRight,70,5465,3,16,0,16,0,1,,,,,,,,,,,,,,,,,,,,,,,,,,,,,,,,,,,,,,,
,,,,,,,,2023-08-16_08h36.55.064,HF_wild_card,2022.2.4,Win32,59.86948452,63d650bb391dd8bb01d022ef,64d2fd46c836a06233681665,64dc79ccf9491dfdd0be8962,,,,,,,decisionTrl,resources/DBN.BMP,resources/DY.BMP,Door1,0.289814843,-0.030555548,1,0,0,0.6816,optionRight,30,5495,3,17,0,17,0,1,,,,,,,,,,,,,,,,,,,,,,,,,,,,,,,,,,,,,,,
,,,,,,,,2023-08-16_08h36.55.064,HF_wild_card,2022.2.4,Win32,59.86948452,63d650bb391dd8bb01d022ef,64d2fd46c836a06233681665,64dc79ccf9491dfdd0be8962,,,,,,,decisionTrl,resources/DP.BMP,resources/DB.BMP,Door3,0.436111168,-0.01666666,1,0,0,0.6645,optionRight,70,5565,3,18,0,18,0,1,,,,,,,,,,,,,,,,,,,,,,,,,,,,,,,,,,,,,,,
,,,,,,,,2023-08-16_08h36.55.064,HF_wild_card,2022.2.4,Win32,59.86948452,63d650bb391dd8bb01d022ef,64d2fd46c836a06233681665,64dc79ccf9491dfdd0be8962,,,,,,,sngl,resources/Empty.png,resources/DR.BMP,WildCard_NonEx,0.179629644,-0.042592614,1,0,0,0.665,optionRight,55,5620,3,19,0,19,0,1,,,,,,,,,,,,,,,,,,,,,,,,,,,,,,,,,,,,,,,
,,,,,,,,2023-08-16_08h36.55.064,HF_wild_card,2022.2.4,Win32,59.86948452,63d650bb391dd8bb01d022ef,64d2fd46c836a06233681665,64dc79ccf9491dfdd0be8962,,,,,,,decisionTrl,resources/DP.BMP,resources/DB.BMP,Door3,0.311111168,-0.028703725,1,0,0,1.3144,optionRight,70,5690,3,20,0,20,0,1,,,,,,,,,,,,,,,,,,,,,,,,,,,,,,,,,,,,,,,
,,,,,,,,2023-08-16_08h36.55.064,HF_wild_card,2022.2.4,Win32,59.86948452,63d650bb391dd8bb01d022ef,64d2fd46c836a06233681665,64dc79ccf9491dfdd0be8962,,,,,,,decisionTrl,resources/DR.BMP,resources/DY.BMP,WildCard_NonEx,-0.288888861,-0.050000014,1,0,0,0.6645,optionLeft,45,5735,3,21,0,21,0,1,,,,,,,,,,,,,,,,,,,,,,,,,,,,,,,,,,,,,,,
,,,,,,,,2023-08-16_08h36.55.064,HF_wild_card,2022.2.4,Win32,59.86948452,63d650bb391dd8bb01d022ef,64d2fd46c836a06233681665,64dc79ccf9491dfdd0be8962,,,,,,,sngl,resources/DP.BMP,resources/Empty.png,Door4,-0.187962921,-0.026851866,1,0,0,0.6645,optionLeft,80,5815,3,22,0,22,0,1,,,,,,,,,,,,,,,,,,,,,,,,,,,,,,,,,,,,,,,
,,,,,,,,2023-08-16_08h36.55.064,HF_wild_card,2022.2.4,Win32,59.86948452,63d650bb391dd8bb01d022ef,64d2fd46c836a06233681665,64dc79ccf9491dfdd0be8962,,,,,,,decisionTrl,resources/DP.BMP,resources/DR.BMP,Door4,-0.25462963,-0.043518526,1,0,0,0.5812,optionLeft,80,5895,3,23,0,23,0,1,,,,,,,,,,,,,,,,,,,,,,,,,,,,,,,,,,,,,,,
,,,,,,,,2023-08-16_08h36.55.064,HF_wild_card,2022.2.4,Win32,59.86948452,63d650bb391dd8bb01d022ef,64d2fd46c836a06233681665,64dc79ccf9491dfdd0be8962,,,,,,,ctch,resources/DP.BMP,resources/DY.BMP,Door4,-0.210185157,-0.042592614,1,0,0,0.631,optionLeft,60,5955,3,24,0,24,0,1,,,,,,,,,,,,,,,,,,,,,,,,,,,,,,,,,,,,,,,
,,,,,,,,2023-08-16_08h36.55.064,HF_wild_card,2022.2.4,Win32,59.86948452,63d650bb391dd8bb01d022ef,64d2fd46c836a06233681665,64dc79ccf9491dfdd0be8962,,,,,,,sngl,resources/DBN.BMP,resources/Empty.png,Door2,-0.238888847,-0.061111132,1,0,0,0.5478,optionLeft,40,5995,3,25,0,25,0,1,,,,,,,,,,,,,,,,,,,,,,,,,,,,,,,,,,,,,,,
,,,,,,,,2023-08-16_08h36.55.064,HF_wild_card,2022.2.4,Win32,59.86948452,63d650bb391dd8bb01d022ef,64d2fd46c836a06233681665,64dc79ccf9491dfdd0be8962,,,,,,,ctch,resources/DY.BMP,resources/DP.BMP,Door4,0.162962949,-0.022222236,1,0,0,1.4813,optionRight,80,6075,3,26,0,26,0,1,,,,,,,,,,,,,,,,,,,,,,,,,,,,,,,,,,,,,,,
,,,,,,,,2023-08-16_08h36.55.064,HF_wild_card,2022.2.4,Win32,59.86948452,63d650bb391dd8bb01d022ef,64d2fd46c836a06233681665,64dc79ccf9491dfdd0be8962,,,,,,,decisionTrl,resources/DBN.BMP,resources/DY.BMP,Door2,-0.409259266,0.033333319,1,0,0,1.1807,optionLeft,20,6095,3,27,0,27,0,1,,,,,,,,,,,,,,,,,,,,,,,,,,,,,,,,,,,,,,,
,,,,,,,,2023-08-16_08h36.55.064,HF_wild_card,2022.2.4,Win32,59.86948452,63d650bb391dd8bb01d022ef,64d2fd46c836a06233681665,64dc79ccf9491dfdd0be8962,,,,,,,sngl,resources/DR.BMP,resources/Empty.png,WildCard_NonEx,-0.184259273,-0.030555548,1,0,0,0.5154,optionLeft,55,6150,3,28,0,28,0,1,,,,,,,,,,,,,,,,,,,,,,,,,,,,,,,,,,,,,,,
,,,,,,,,2023-08-16_08h36.55.064,HF_wild_card,2022.2.4,Win32,59.86948452,63d650bb391dd8bb01d022ef,64d2fd46c836a06233681665,64dc79ccf9491dfdd0be8962,,,,,,,sngl,resources/DR.BMP,resources/Empty.png,WildCard_NonEx,-0.212962963,-0.035185178,1,0,0,0.5818,optionLeft,45,6195,3,29,0,29,0,1,,,,,,,,,,,,,,,,,,,,,,,,,,,,,,,,,,,,,,,
,,,,,,,,2023-08-16_08h36.55.064,HF_wild_card,2022.2.4,Win32,59.86948452,63d650bb391dd8bb01d022ef,64d2fd46c836a06233681665,64dc79ccf9491dfdd0be8962,,,,,,,ctch,resources/DB.BMP,resources/DBN.BMP,Door2,0.385185242,-0.018518519,1,0,0,0.5147,optionRight,20,6215,3,30,0,30,0,1,,,,,,,,,,,,,,,,,,,,,,,,,,,,,,,,,,,,,,,
,,,,,,,,2023-08-16_08h36.55.064,HF_wild_card,2022.2.4,Win32,59.86948452,63d650bb391dd8bb01d022ef,64d2fd46c836a06233681665,64dc79ccf9491dfdd0be8962,,,,,,,ctch,resources/DY.BMP,resources/DP.BMP,Door4,0.306481538,-0.028703725,1,0,0,0.8476,optionRight,60,6275,3,31,0,31,0,1,,,,,,,,,,,,,,,,,,,,,,,,,,,,,,,,,,,,,,,
,,,,,,,,2023-08-16_08h36.55.064,HF_wild_card,2022.2.4,Win32,59.86948452,63d650bb391dd8bb01d022ef,64d2fd46c836a06233681665,64dc79ccf9491dfdd0be8962,,,,,,,decisionTrl,resources/DY.BMP,resources/DBN.BMP,Door2,0.333333333,0.011111118,1,0,0,1.0313,optionRight,20,6295,3,32,0,32,0,1,,,,,,,,,,,,,,,,,,,,,,,,,,,,,,,,,,,,,,,
,,,,,,,,2023-08-16_08h36.55.064,HF_wild_card,2022.2.4,Win32,59.86948452,63d650bb391dd8bb01d022ef,64d2fd46c836a06233681665,64dc79ccf9491dfdd0be8962,,,,,,,decisionTrl,resources/DBN.BMP,resources/DY.BMP,Door1,0.262037065,-0.001851859,1,0,0,0.6978,optionRight,30,6325,3,33,0,33,0,1,,,,,,,,,,,,,,,,,,,,,,,,,,,,,,,,,,,,,,,
,,,,,,,,2023-08-16_08h36.55.064,HF_wild_card,2022.2.4,Win32,59.86948452,63d650bb391dd8bb01d022ef,64d2fd46c836a06233681665,64dc79ccf9491dfdd0be8962,,,,,,,sngl,resources/Empty.png,resources/DBN.BMP,Door2,0.244444459,-0.01666666,1,0,0,0.5979,optionRight,20,6345,3,34,0,34,0,1,,,,,,,,,,,,,,,,,,,,,,,,,,,,,,,,,,,,,,,
,,,,,,,,2023-08-16_08h36.55.064,HF_wild_card,2022.2.4,Win32,59.86948452,63d650bb391dd8bb01d022ef,64d2fd46c836a06233681665,64dc79ccf9491dfdd0be8962,,,,,,,decisionTrl,resources/DR.BMP,resources/DBN.BMP,WildCard_NonEx,-0.289814772,-0.025000007,1,0,0,0.6484,optionLeft,45,6390,3,35,0,35,0,1,,,,,,,,,,,,,,,,,,,,,,,,,,,,,,,,,,,,,,,
,,,,,,,,2023-08-16_08h36.55.064,HF_wild_card,2022.2.4,Win32,59.86948452,63d650bb391dd8bb01d022ef,64d2fd46c836a06233681665,64dc79ccf9491dfdd0be8962,,,,,,,decisionTrl,resources/DY.BMP,resources/DBN.BMP,Door1,-0.336111104,-0.001851859,1,0,0,0.6649,optionLeft,30,6420,3,36,0,36,0,1,,,,,,,,,,,,,,,,,,,,,,,,,,,,,,,,,,,,,,,
,,,,,,,,2023-08-16_08h36.55.064,HF_wild_card,2022.2.4,Win32,59.86948452,63d650bb391dd8bb01d022ef,64d2fd46c836a06233681665,64dc79ccf9491dfdd0be8962,,,,,,,decisionTrl,resources/DY.BMP,resources/DR.BMP,WildCard_NonEx,0.246296282,-0.012962977,1,0,0,0.8318,optionRight,45,6465,3,37,0,37,0,1,,,,,,,,,,,,,,,,,,,,,,,,,,,,,,,,,,,,,,,
,,,,,,,,2023-08-16_08h36.55.064,HF_wild_card,2022.2.4,Win32,59.86948452,63d650bb391dd8bb01d022ef,64d2fd46c836a06233681665,64dc79ccf9491dfdd0be8962,,,,,,,sngl,resources/Empty.png,resources/DR.BMP,WildCard_NonEx,0.337962963,-0.051851873,1,0,0,0.5979,optionRight,45,6510,3,38,0,38,0,1,,,,,,,,,,,,,,,,,,,,,,,,,,,,,,,,,,,,,,,
,,,,,,,,2023-08-16_08h36.55.064,HF_wild_card,2022.2.4,Win32,59.86948452,63d650bb391dd8bb01d022ef,64d2fd46c836a06233681665,64dc79ccf9491dfdd0be8962,,,,,,,decisionTrl,resources/DB.BMP,resources/DP.BMP,Door3,-0.381481489,-0.0074074,1,0,0,0.7141,optionLeft,70,6580,3,39,0,39,0,1,,,,,,,,,,,,,,,,,,,,,,,,,,,,,,,,,,,,,,,
,,,,,,,,2023-08-16_08h36.55.064,HF_wild_card,2022.2.4,Win32,59.86948452,63d650bb391dd8bb01d022ef,64d2fd46c836a06233681665,64dc79ccf9491dfdd0be8962,,,,,,,sngl,resources/Empty.png,resources/DY.BMP,Door1,0.22129631,-0.01203703,1,0,0,0.5805,optionRight,30,6610,3,40,0,40,0,1,,,,,,,,,,,,,,,,,,,,,,,,,,,,,,,,,,,,,,,
,,,,,,,,2023-08-16_08h36.55.064,HF_wild_card,2022.2.4,Win32,59.86948452,63d650bb391dd8bb01d022ef,64d2fd46c836a06233681665,64dc79ccf9491dfdd0be8962,,,,,,,decisionTrl,resources/DBN.BMP,resources/DY.BMP,Door1,0.372222194,0.02870369,1,0,0,0.7474,optionRight,30,6640,3,41,0,41,0,1,,,,,,,,,,,,,,,,,,,,,,,,,,,,,,,,,,,,,,,
,,,,,,,,2023-08-16_08h36.55.064,HF_wild_card,2022.2.4,Win32,59.86948452,63d650bb391dd8bb01d022ef,64d2fd46c836a06233681665,64dc79ccf9491dfdd0be8962,,,,,,,sngl,resources/DY.BMP,resources/Empty.png,Door1,-0.290740755,0.002777771,1,0,0,0.5815,optionLeft,30,6670,3,42,0,42,0,1,,,,,,,,,,,,,,,,,,,,,,,,,,,,,,,,,,,,,,,
,,,,,,,,2023-08-16_08h36.55.064,HF_wild_card,2022.2.4,Win32,59.86948452,63d650bb391dd8bb01d022ef,64d2fd46c836a06233681665,64dc79ccf9491dfdd0be8962,,,,,,,sngl,resources/Empty.png,resources/DP.BMP,Door4,0.312962991,-0.021296289,1,0,0,0.881,optionRight,60,6730,3,43,0,43,0,1,,,,,,,,,,,,,,,,,,,,,,,,,,,,,,,,,,,,,,,
,,,,,,,,2023-08-16_08h36.55.064,HF_wild_card,2022.2.4,Win32,59.86948452,63d650bb391dd8bb01d022ef,64d2fd46c836a06233681665,64dc79ccf9491dfdd0be8962,,,,,,,,,,,,,,,,,,,,,,,,,,2,0,2,0,1,,,,,,,,,,,,,,,,,,,,,,,,,,,,,,,,,,
,,,,,,,,2023-08-16_08h36.55.064,HF_wild_card,2022.2.4,Win32,59.86948452,63d650bb391dd8bb01d022ef,64d2fd46c836a06233681665,64dc79ccf9491dfdd0be8962,,,,,,,decisionTrl,resources/DG.BMP,resources/DP.BMP,WildCard_Ex,-0.23055557,-0.106481481,1,0,0,1.3636,optionLeft,55,6785,4,0,0,0,0,1,,,,,,,,,,,,,,,,,,,,,,,,,,,,,,,,,,,,,,,
,,,,,,,,2023-08-16_08h36.55.064,HF_wild_card,2022.2.4,Win32,59.86948452,63d650bb391dd8bb01d022ef,64d2fd46c836a06233681665,64dc79ccf9491dfdd0be8962,,,,,,,ctch,resources/DB.BMP,resources/DBN.BMP,Door3,-0.284259231,-0.053703697,1,0,0,0.6978,optionLeft,70,6855,4,1,0,1,0,1,,,,,,,,,,,,,,,,,,,,,,,,,,,,,,,,,,,,,,,
,,,,,,,,2023-08-16_08h36.55.064,HF_wild_card,2022.2.4,Win32,59.86948452,63d650bb391dd8bb01d022ef,64d2fd46c836a06233681665,64dc79ccf9491dfdd0be8962,,,,,,,decisionTrl,resources/DB.BMP,resources/DP.BMP,Door3,-0.201851809,-0.01666666,1,0,0,0.7968,optionLeft,70,6925,4,2,0,2,0,1,,,,,,,,,,,,,,,,,,,,,,,,,,,,,,,,,,,,,,,
,,,,,,,,2023-08-16_08h36.55.064,HF_wild_card,2022.2.4,Win32,59.86948452,63d650bb391dd8bb01d022ef,64d2fd46c836a06233681665,64dc79ccf9491dfdd0be8962,,,,,,,sngl,resources/DY.BMP,resources/Empty.png,Door1,-0.190740727,-0.029629637,1,0,0,0.5812,optionLeft,30,6955,4,3,0,3,0,1,,,,,,,,,,,,,,,,,,,,,,,,,,,,,,,,,,,,,,,
,,,,,,,,2023-08-16_08h36.55.064,HF_wild_card,2022.2.4,Win32,59.86948452,63d650bb391dd8bb01d022ef,64d2fd46c836a06233681665,64dc79ccf9491dfdd0be8962,,,,,,,sngl,resources/DG.BMP,resources/Empty.png,WildCard_Ex,-0.220370328,-0.031481496,1,0,0,0.5826,optionLeft,45,7000,4,4,0,4,0,1,,,,,,,,,,,,,,,,,,,,,,,,,,,,,,,,,,,,,,,
,,,,,,,,2023-08-16_08h36.55.064,HF_wild_card,2022.2.4,Win32,59.86948452,63d650bb391dd8bb01d022ef,64d2fd46c836a06233681665,64dc79ccf9491dfdd0be8962,,,,,,,sngl,resources/Empty.png,resources/DG.BMP,WildCard_Ex,0.304629714,-0.059259273,1,0,0,0.6145,optionRight,45,7045,4,5,0,5,0,1,,,,,,,,,,,,,,,,,,,,,,,,,,,,,,,,,,,,,,,
,,,,,,,,2023-08-16_08h36.55.064,HF_wild_card,2022.2.4,Win32,59.86948452,63d650bb391dd8bb01d022ef,64d2fd46c836a06233681665,64dc79ccf9491dfdd0be8962,,,,,,,decisionTrl,resources/DBN.BMP,resources/DY.BMP,Door1,0.275000042,-0.043518526,1,0,0,0.8649,optionRight,30,7075,4,6,0,6,0,1,,,,,,,,,,,,,,,,,,,,,,,,,,,,,,,,,,,,,,,
,,,,,,,,2023-08-16_08h36.55.064,HF_wild_card,2022.2.4,Win32,59.86948452,63d650bb391dd8bb01d022ef,64d2fd46c836a06233681665,64dc79ccf9491dfdd0be8962,,,,,,,decisionTrl,resources/DG.BMP,resources/DB.BMP,Door3,0.292592578,-0.008333347,1,0,0,0.899,optionRight,70,7145,4,7,0,7,0,1,,,,,,,,,,,,,,,,,,,,,,,,,,,,,,,,,,,,,,,
,,,,,,,,2023-08-16_08h36.55.064,HF_wild_card,2022.2.4,Win32,59.86948452,63d650bb391dd8bb01d022ef,64d2fd46c836a06233681665,64dc79ccf9491dfdd0be8962,,,,,,,decisionTrl,resources/DY.BMP,resources/DBN.BMP,Door1,-0.445370356,-0.0074074,1,0,0,0.8642,optionLeft,30,7175,4,8,0,8,0,1,,,,,,,,,,,,,,,,,,,,,,,,,,,,,,,,,,,,,,,
,,,,,,,,2023-08-16_08h36.55.064,HF_wild_card,2022.2.4,Win32,59.86948452,63d650bb391dd8bb01d022ef,64d2fd46c836a06233681665,64dc79ccf9491dfdd0be8962,,,,,,,decisionTrl,resources/DB.BMP,resources/DP.BMP,Door3,-0.240740741,-0.034259266,1,0,0,0.7648,optionLeft,70,7245,4,9,0,9,0,1,,,,,,,,,,,,,,,,,,,,,,,,,,,,,,,,,,,,,,,
,,,,,,,,2023-08-16_08h36.55.064,HF_wild_card,2022.2.4,Win32,59.86948452,63d650bb391dd8bb01d022ef,64d2fd46c836a06233681665,64dc79ccf9491dfdd0be8962,,,,,,,decisionTrl,resources/DY.BMP,resources/DBN.BMP,Door1,-0.212962963,-0.020370377,1,0,0,0.9483,optionLeft,30,7275,4,10,0,10,0,1,,,,,,,,,,,,,,,,,,,,,,,,,,,,,,,,,,,,,,,
,,,,,,,,2023-08-16_08h36.55.064,HF_wild_card,2022.2.4,Win32,59.86948452,63d650bb391dd8bb01d022ef,64d2fd46c836a06233681665,64dc79ccf9491dfdd0be8962,,,,,,,ctch,resources/DBN.BMP,resources/DB.BMP,Door3,0.209259245,-0.01203703,1,0,0,0.8982,optionRight,70,7345,4,11,0,11,0,1,,,,,,,,,,,,,,,,,,,,,,,,,,,,,,,,,,,,,,,
,,,,,,,,2023-08-16_08h36.55.064,HF_wild_card,2022.2.4,Win32,59.86948452,63d650bb391dd8bb01d022ef,64d2fd46c836a06233681665,64dc79ccf9491dfdd0be8962,,,,,,,ctch,resources/DY.BMP,resources/DP.BMP,Door4,0.387037065,0.01666666,1,0,0,1.1985,optionRight,80,7425,4,12,0,12,0,1,,,,,,,,,,,,,,,,,,,,,,,,,,,,,,,,,,,,,,,
,,,,,,,,2023-08-16_08h36.55.064,HF_wild_card,2022.2.4,Win32,59.86948452,63d650bb391dd8bb01d022ef,64d2fd46c836a06233681665,64dc79ccf9491dfdd0be8962,,,,,,,ctch,resources/DY.BMP,resources/DP.BMP,Door4,0.226851852,-0.067592586,1,0,0,0.6149,optionRight,60,7485,4,13,0,13,0,1,,,,,,,,,,,,,,,,,,,,,,,,,,,,,,,,,,,,,,,
,,,,,,,,2023-08-16_08h36.55.064,HF_wild_card,2022.2.4,Win32,59.86948452,63d650bb391dd8bb01d022ef,64d2fd46c836a06233681665,64dc79ccf9491dfdd0be8962,,,,,,,sngl,resources/DBN.BMP,resources/Empty.png,Door2,-0.287037037,-0.002777771,1,0,0,0.5811,optionLeft,20,7505,4,14,0,14,0,1,,,,,,,,,,,,,,,,,,,,,,,,,,,,,,,,,,,,,,,
,,,,,,,,2023-08-16_08h36.55.064,HF_wild_card,2022.2.4,Win32,59.86948452,63d650bb391dd8bb01d022ef,64d2fd46c836a06233681665,64dc79ccf9491dfdd0be8962,,,,,,,decisionTrl,resources/DG.BMP,resources/DBN.BMP,WildCard_Ex,-0.295370384,-0.032407407,1,0,0,0.6312,optionLeft,55,7560,4,15,0,15,0,1,,,,,,,,,,,,,,,,,,,,,,,,,,,,,,,,,,,,,,,
,,,,,,,,2023-08-16_08h36.55.064,HF_wild_card,2022.2.4,Win32,59.86948452,63d650bb391dd8bb01d022ef,64d2fd46c836a06233681665,64dc79ccf9491dfdd0be8962,,,,,,,ctch,resources/DBN.BMP,resources/DB.BMP,Door3,0.187037079,-0.018518519,1,0,0,0.6473,optionRight,70,7630,4,16,0,16,0,1,,,,,,,,,,,,,,,,,,,,,,,,,,,,,,,,,,,,,,,
,,,,,,,,2023-08-16_08h36.55.064,HF_wild_card,2022.2.4,Win32,59.86948452,63d650bb391dd8bb01d022ef,64d2fd46c836a06233681665,64dc79ccf9491dfdd0be8962,,,,,,,decisionTrl,resources/DBN.BMP,resources/DY.BMP,Door1,0.305555556,-0.0074074,1,0,0,0.6645,optionRight,30,7660,4,17,0,17,0,1,,,,,,,,,,,,,,,,,,,,,,,,,,,,,,,,,,,,,,,
,,,,,,,,2023-08-16_08h36.55.064,HF_wild_card,2022.2.4,Win32,59.86948452,63d650bb391dd8bb01d022ef,64d2fd46c836a06233681665,64dc79ccf9491dfdd0be8962,,,,,,,sngl,resources/Empty.png,resources/DB.BMP,Door3,0.263888889,-0.006481489,1,0,0,0.5481,optionRight,70,7730,4,18,0,18,0,1,,,,,,,,,,,,,,,,,,,,,,,,,,,,,,,,,,,,,,,
,,,,,,,,2023-08-16_08h36.55.064,HF_wild_card,2022.2.4,Win32,59.86948452,63d650bb391dd8bb01d022ef,64d2fd46c836a06233681665,64dc79ccf9491dfdd0be8962,,,,,,,ctch,resources/DP.BMP,resources/DY.BMP,Door4,-0.320370356,-0.022222236,1,0,0,1.4647,optionLeft,80,7810,4,19,0,19,0,1,,,,,,,,,,,,,,,,,,,,,,,,,,,,,,,,,,,,,,,
,,,,,,,,2023-08-16_08h36.55.064,HF_wild_card,2022.2.4,Win32,59.86948452,63d650bb391dd8bb01d022ef,64d2fd46c836a06233681665,64dc79ccf9491dfdd0be8962,,,,,,,decisionTrl,resources/DY.BMP,resources/DG.BMP,WildCard_Ex,0.233333376,-0.018518519,1,0,0,1.231,optionRight,55,7865,4,20,0,20,0,1,,,,,,,,,,,,,,,,,,,,,,,,,,,,,,,,,,,,,,,
,,,,,,,,2023-08-16_08h36.55.064,HF_wild_card,2022.2.4,Win32,59.86948452,63d650bb391dd8bb01d022ef,64d2fd46c836a06233681665,64dc79ccf9491dfdd0be8962,,,,,,,decisionTrl,resources/DB.BMP,resources/DP.BMP,Door3,-0.284259231,-0.030555548,1,0,0,0.6652,optionLeft,70,7935,4,21,0,21,0,1,,,,,,,,,,,,,,,,,,,,,,,,,,,,,,,,,,,,,,,
,,,,,,,,2023-08-16_08h36.55.064,HF_wild_card,2022.2.4,Win32,59.86948452,63d650bb391dd8bb01d022ef,64d2fd46c836a06233681665,64dc79ccf9491dfdd0be8962,,,,,,,decisionTrl,resources/DBN.BMP,resources/DY.BMP,Door1,0.229629658,-0.006481489,1,0,0,0.6979,optionRight,30,7965,4,22,0,22,0,1,,,,,,,,,,,,,,,,,,,,,,,,,,,,,,,,,,,,,,,
,,,,,,,,2023-08-16_08h36.55.064,HF_wild_card,2022.2.4,Win32,59.86948452,63d650bb391dd8bb01d022ef,64d2fd46c836a06233681665,64dc79ccf9491dfdd0be8962,,,,,,,decisionTrl,resources/DB.BMP,resources/DG.BMP,Door3,-0.263888889,-0.008333347,1,0,0,0.7152,optionLeft,70,8035,4,23,0,23,0,1,,,,,,,,,,,,,,,,,,,,,,,,,,,,,,,,,,,,,,,
,,,,,,,,2023-08-16_08h36.55.064,HF_wild_card,2022.2.4,Win32,59.86948452,63d650bb391dd8bb01d022ef,64d2fd46c836a06233681665,64dc79ccf9491dfdd0be8962,,,,,,,decisionTrl,resources/DBN.BMP,resources/DY.BMP,Door1,0.242592635,0.01944443,1,0,0,0.9479,optionRight,30,8065,4,24,0,24,0,1,,,,,,,,,,,,,,,,,,,,,,,,,,,,,,,,,,,,,,,
,,,,,,,,2023-08-16_08h36.55.064,HF_wild_card,2022.2.4,Win32,59.86948452,63d650bb391dd8bb01d022ef,64d2fd46c836a06233681665,64dc79ccf9491dfdd0be8962,,,,,,,decisionTrl,resources/DP.BMP,resources/DG.BMP,Door4,-0.393518519,0.04074072,1,0,0,1.398,optionLeft,60,8125,4,25,0,25,0,1,,,,,,,,,,,,,,,,,,,,,,,,,,,,,,,,,,,,,,,
,,,,,,,,2023-08-16_08h36.55.064,HF_wild_card,2022.2.4,Win32,59.86948452,63d650bb391dd8bb01d022ef,64d2fd46c836a06233681665,64dc79ccf9491dfdd0be8962,,,,,,,sngl,resources/Empty.png,resources/DY.BMP,Door1,0.275000042,-0.013888889,1,0,0,0.581,optionRight,30,8155,4,26,0,26,0,1,,,,,,,,,,,,,,,,,,,,,,,,,,,,,,,,,,,,,,,
,,,,,,,,2023-08-16_08h36.55.064,HF_wild_card,2022.2.4,Win32,59.86948452,63d650bb391dd8bb01d022ef,64d2fd46c836a06233681665,64dc79ccf9491dfdd0be8962,,,,,,,decisionTrl,resources/DP.BMP,resources/DB.BMP,Door3,0.232407393,-0.020370377,1,0,0,0.7153,optionRight,70,8225,4,27,0,27,0,1,,,,,,,,,,,,,,,,,,,,,,,,,,,,,,,,,,,,,,,
,,,,,,,,2023-08-16_08h36.55.064,HF_wild_card,2022.2.4,Win32,59.86948452,63d650bb391dd8bb01d022ef,64d2fd46c836a06233681665,64dc79ccf9491dfdd0be8962,,,,,,,sngl,resources/DB.BMP,resources/Empty.png,Door3,-0.232407393,-0.034259266,1,0,0,0.5483,optionLeft,70,8295,4,28,0,28,0,1,,,,,,,,,,,,,,,,,,,,,,,,,,,,,,,,,,,,,,,
,,,,,,,,2023-08-16_08h36.55.064,HF_wild_card,2022.2.4,Win32,59.86948452,63d650bb391dd8bb01d022ef,64d2fd46c836a06233681665,64dc79ccf9491dfdd0be8962,,,,,,,sngl,resources/Empty.png,resources/DP.BMP,Door4,0.342592593,0.022222201,1,0,0,0.4812,optionRight,80,8375,4,29,0,29,0,1,,,,,,,,,,,,,,,,,,,,,,,,,,,,,,,,,,,,,,,
,,,,,,,,2023-08-16_08h36.55.064,HF_wild_card,2022.2.4,Win32,59.86948452,63d650bb391dd8bb01d022ef,64d2fd46c836a06233681665,64dc79ccf9491dfdd0be8962,,,,,,,decisionTrl,resources/DP.BMP,resources/DB.BMP,Door4,-0.314814815,0.001851859,1,0,0,0.5812,optionLeft,80,8455,4,30,0,30,0,1,,,,,,,,,,,,,,,,,,,,,,,,,,,,,,,,,,,,,,,
,,,,,,,,2023-08-16_08h36.55.064,HF_wild_card,2022.2.4,Win32,59.86948452,63d650bb391dd8bb01d022ef,64d2fd46c836a06233681665,64dc79ccf9491dfdd0be8962,,,,,,,decisionTrl,resources/DB.BMP,resources/DP.BMP,Door4,0.312962991,-0.050000014,1,0,0,0.6307,optionRight,80,8535,4,31,0,31,0,1,,,,,,,,,,,,,,,,,,,,,,,,,,,,,,,,,,,,,,,
,,,,,,,,2023-08-16_08h36.55.064,HF_wild_card,2022.2.4,Win32,59.86948452,63d650bb391dd8bb01d022ef,64d2fd46c836a06233681665,64dc79ccf9491dfdd0be8962,,,,,,,sngl,resources/DP.BMP,resources/Empty.png,Door4,-0.272222236,-0.046296296,1,0,0,0.5151,optionLeft,60,8595,4,32,0,32,0,1,,,,,,,,,,,,,,,,,,,,,,,,,,,,,,,,,,,,,,,
,,,,,,,,2023-08-16_08h36.55.064,HF_wild_card,2022.2.4,Win32,59.86948452,63d650bb391dd8bb01d022ef,64d2fd46c836a06233681665,64dc79ccf9491dfdd0be8962,,,,,,,sngl,resources/Empty.png,resources/DBN.BMP,Door2,0.300000085,0.011111118,1,0,0,0.7313,optionRight,40,8635,4,33,0,33,0,1,,,,,,,,,,,,,,,,,,,,,,,,,,,,,,,,,,,,,,,
,,,,,,,,2023-08-16_08h36.55.064,HF_wild_card,2022.2.4,Win32,59.86948452,63d650bb391dd8bb01d022ef,64d2fd46c836a06233681665,64dc79ccf9491dfdd0be8962,,,,,,,ctch,resources/DB.BMP,resources/DBN.BMP,Door3,-0.282407407,-0.017592607,1,0,0,0.6486,optionLeft,70,8705,4,34,0,34,0,1,,,,,,,,,,,,,,,,,,,,,,,,,,,,,,,,,,,,,,,
,,,,,,,,2023-08-16_08h36.55.064,HF_wild_card,2022.2.4,Win32,59.86948452,63d650bb391dd8bb01d022ef,64d2fd46c836a06233681665,64dc79ccf9491dfdd0be8962,,,,,,,sngl,resources/Empty.png,resources/DG.BMP,WildCard_Ex,0.252777806,0.030555548,1,0,0,0.5149,optionRight,55,8760,4,35,0,35,0,1,,,,,,,,,,,,,,,,,,,,,,,,,,,,,,,,,,,,,,,
,,,,,,,,2023-08-16_08h36.55.064,HF_wild_card,2022.2.4,Win32,59.86948452,63d650bb391dd8bb01d022ef,64d2fd46c836a06233681665,64dc79ccf9491dfdd0be8962,,,,,,,ctch,resources/DP.BMP,resources/DY.BMP,Door4,-0.220370328,-0.000925947,1,0,0,0.4819,optionLeft,80,8840,4,36,0,36,0,1,,,,,,,,,,,,,,,,,,,,,,,,,,,,,,,,,,,,,,,
,,,,,,,,2023-08-16_08h36.55.064,HF_wild_card,2022.2.4,Win32,59.86948452,63d650bb391dd8bb01d022ef,64d2fd46c836a06233681665,64dc79ccf9491dfdd0be8962,,,,,,,decisionTrl,resources/DBN.BMP,resources/DG.BMP,WildCard_Ex,0.316666638,0.033333319,1,0,0,0.6482,optionRight,55,8895,4,37,0,37,0,1,,,,,,,,,,,,,,,,,,,,,,,,,,,,,,,,,,,,,,,
,,,,,,,,2023-08-16_08h36.55.064,HF_wild_card,2022.2.4,Win32,59.86948452,63d650bb391dd8bb01d022ef,64d2fd46c836a06233681665,64dc79ccf9491dfdd0be8962,,,,,,,decisionTrl,resources/DG.BMP,resources/DY.BMP,WildCard_Ex,-0.228703675,-0.022222236,1,0,0,0.5645,optionLeft,45,8940,4,38,0,38,0,1,,,,,,,,,,,,,,,,,,,,,,,,,,,,,,,,,,,,,,,
,,,,,,,,2023-08-16_08h36.55.064,HF_wild_card,2022.2.4,Win32,59.86948452,63d650bb391dd8bb01d022ef,64d2fd46c836a06233681665,64dc79ccf9491dfdd0be8962,,,,,,,decisionTrl,resources/DY.BMP,resources/DBN.BMP,Door1,-0.369444423,0.013888889,1,0,0,0.8205,optionLeft,30,8970,4,39,0,39,0,1,,,,,,,,,,,,,,,,,,,,,,,,,,,,,,,,,,,,,,,
,,,,,,,,2023-08-16_08h36.55.064,HF_wild_card,2022.2.4,Win32,59.86948452,63d650bb391dd8bb01d022ef,64d2fd46c836a06233681665,64dc79ccf9491dfdd0be8962,,,,,,,decisionTrl,resources/DP.BMP,resources/DB.BMP,Door3,0.276851866,0.052777785,1,0,0,0.998,optionRight,70,9040,4,40,0,40,0,1,,,,,,,,,,,,,,,,,,,,,,,,,,,,,,,,,,,,,,,
,,,,,,,,2023-08-16_08h36.55.064,HF_wild_card,2022.2.4,Win32,59.86948452,63d650bb391dd8bb01d022ef,64d2fd46c836a06233681665,64dc79ccf9491dfdd0be8962,,,,,,,sngl,resources/DG.BMP,resources/Empty.png,WildCard_Ex,-0.298148155,-0.017592607,1,0,0,0.4978,optionLeft,55,9095,4,41,0,41,0,1,,,,,,,,,,,,,,,,,,,,,,,,,,,,,,,,,,,,,,,
,,,,,,,,2023-08-16_08h36.55.064,HF_wild_card,2022.2.4,Win32,59.86948452,63d650bb391dd8bb01d022ef,64d2fd46c836a06233681665,64dc79ccf9491dfdd0be8962,,,,,,,decisionTrl,resources/DP.BMP,resources/DB.BMP,Door4,-0.313888868,0.066666674,1,0,0,1.2149,optionLeft,80,9175,4,42,0,42,0,1,,,,,,,,,,,,,,,,,,,,,,,,,,,,,,,,,,,,,,,
,,,,,,,,2023-08-16_08h36.55.064,HF_wild_card,2022.2.4,Win32,59.86948452,63d650bb391dd8bb01d022ef,64d2fd46c836a06233681665,64dc79ccf9491dfdd0be8962,,,,,,,decisionTrl,resources/DY.BMP,resources/DBN.BMP,Door1,-0.286111125,-0.039814808,1,0,0,0.8479,optionLeft,30,9205,4,43,0,43,0,1,,,,,,,,,,,,,,,,,,,,,,,,,,,,,,,,,,,,,,,
,,,,,,,,2023-08-16_08h36.55.064,HF_wild_card,2022.2.4,Win32,59.86948452,63d650bb391dd8bb01d022ef,64d2fd46c836a06233681665,64dc79ccf9491dfdd0be8962,,,,,,,,,,,,,,,,,,,,,,,,,,3,0,3,0,1,,,,,,,,,,,,,,,,,,,,,,,,,,,,,,,,,,
,,,,,,,,2023-08-16_08h36.55.064,HF_wild_card,2022.2.4,Win32,59.86948452,63d650bb391dd8bb01d022ef,64d2fd46c836a06233681665,64dc79ccf9491dfdd0be8962,,,,,,,decisionTrl,resources/DY.BMP,resources/DG.BMP,WildCard_Ex,0.319444444,-0.021296289,1,0,0,1.1238,optionRight,45,9250,5,0,0,0,0,1,,,,,,,,,,,,,,,,,,,,,,,,,,,,,,,,,,,,,,,
,,,,,,,,2023-08-16_08h36.55.064,HF_wild_card,2022.2.4,Win32,59.86948452,63d650bb391dd8bb01d022ef,64d2fd46c836a06233681665,64dc79ccf9491dfdd0be8962,,,,,,,decisionTrl,resources/DP.BMP,resources/DB.BMP,Door4,-0.317592586,0.03148146,1,0,0,1.1151,optionLeft,80,9330,5,1,0,1,0,1,,,,,,,,,,,,,,,,,,,,,,,,,,,,,,,,,,,,,,,
,,,,,,,,2023-08-16_08h36.55.064,HF_wild_card,2022.2.4,Win32,59.86948452,63d650bb391dd8bb01d022ef,64d2fd46c836a06233681665,64dc79ccf9491dfdd0be8962,,,,,,,sngl,resources/Empty.png,resources/DB.BMP,Door3,0.205555598,-0.025925919,1,0,0,0.5324,optionRight,70,9400,5,2,0,2,0,1,,,,,,,,,,,,,,,,,,,,,,,,,,,,,,,,,,,,,,,
,,,,,,,,2023-08-16_08h36.55.064,HF_wild_card,2022.2.4,Win32,59.86948452,63d650bb391dd8bb01d022ef,64d2fd46c836a06233681665,64dc79ccf9491dfdd0be8962,,,,,,,decisionTrl,resources/DG.BMP,resources/DB.BMP,WildCard_Ex,-0.328703704,0.017592571,1,0,0,0.5314,optionLeft,55,9455,5,3,0,3,0,1,,,,,,,,,,,,,,,,,,,,,,,,,,,,,,,,,,,,,,,
,,,,,,,,2023-08-16_08h36.55.064,HF_wild_card,2022.2.4,Win32,59.86948452,63d650bb391dd8bb01d022ef,64d2fd46c836a06233681665,64dc79ccf9491dfdd0be8962,,,,,,,ctch,resources/DB.BMP,resources/DBN.BMP,Door3,-0.193518533,0.001851859,1,0,0,0.5985,optionLeft,70,9525,5,4,0,4,0,1,,,,,,,,,,,,,,,,,,,,,,,,,,,,,,,,,,,,,,,
,,,,,,,,2023-08-16_08h36.55.064,HF_wild_card,2022.2.4,Win32,59.86948452,63d650bb391dd8bb01d022ef,64d2fd46c836a06233681665,64dc79ccf9491dfdd0be8962,,,,,,,decisionTrl,resources/DB.BMP,resources/DP.BMP,Door4,0.328703704,-0.008333347,1,0,0,0.7309,optionRight,80,9605,5,5,0,5,0,1,,,,,,,,,,,,,,,,,,,,,,,,,,,,,,,,,,,,,,,
,,,,,,,,2023-08-16_08h36.55.064,HF_wild_card,2022.2.4,Win32,59.86948452,63d650bb391dd8bb01d022ef,64d2fd46c836a06233681665,64dc79ccf9491dfdd0be8962,,,,,,,decisionTrl,resources/DBN.BMP,resources/DY.BMP,Door1,0.335185157,-0.0074074,1,0,0,0.7982,optionRight,30,9635,5,6,0,6,0,1,,,,,,,,,,,,,,,,,,,,,,,,,,,,,,,,,,,,,,,
,,,,,,,,2023-08-16_08h36.55.064,HF_wild_card,2022.2.4,Win32,59.86948452,63d650bb391dd8bb01d022ef,64d2fd46c836a06233681665,64dc79ccf9491dfdd0be8962,,,,,,,decisionTrl,resources/DY.BMP,resources/DBN.BMP,Door1,-0.150925884,-0.006481489,1,0,0,0.7316,optionLeft,30,9665,5,7,0,7,0,1,,,,,,,,,,,,,,,,,,,,,,,,,,,,,,,,,,,,,,,
,,,,,,,,2023-08-16_08h36.55.064,HF_wild_card,2022.2.4,Win32,59.86948452,63d650bb391dd8bb01d022ef,64d2fd46c836a06233681665,64dc79ccf9491dfdd0be8962,,,,,,,decisionTrl,resources/DBN.BMP,resources/DY.BMP,Door1,0.189814815,0.022222201,1,0,0,0.5476,optionRight,30,9695,5,8,0,8,0,1,,,,,,,,,,,,,,,,,,,,,,,,,,,,,,,,,,,,,,,
,,,,,,,,2023-08-16_08h36.55.064,HF_wild_card,2022.2.4,Win32,59.86948452,63d650bb391dd8bb01d022ef,64d2fd46c836a06233681665,64dc79ccf9491dfdd0be8962,,,,,,,ctch,resources/DP.BMP,resources/DY.BMP,Door4,-0.290740755,-0.021296289,1,0,0,0.5658,optionLeft,80,9775,5,9,0,9,0,1,,,,,,,,,,,,,,,,,,,,,,,,,,,,,,,,,,,,,,,
,,,,,,,,2023-08-16_08h36.55.064,HF_wild_card,2022.2.4,Win32,59.86948452,63d650bb391dd8bb01d022ef,64d2fd46c836a06233681665,64dc79ccf9491dfdd0be8962,,,,,,,sngl,resources/DG.BMP,resources/Empty.png,WildCard_Ex,-0.199074074,-0.032407407,1,0,0,0.548,optionLeft,55,9830,5,10,0,10,0,1,,,,,,,,,,,,,,,,,,,,,,,,,,,,,,,,,,,,,,,
,,,,,,,,2023-08-16_08h36.55.064,HF_wild_card,2022.2.4,Win32,59.86948452,63d650bb391dd8bb01d022ef,64d2fd46c836a06233681665,64dc79ccf9491dfdd0be8962,,,,,,,decisionTrl,resources/DP.BMP,resources/DB.BMP,Door4,-0.440740727,0.030555548,1,0,0,1.0646,optionLeft,80,9910,5,11,0,11,0,1,,,,,,,,,,,,,,,,,,,,,,,,,,,,,,,,,,,,,,,
,,,,,,,,2023-08-16_08h36.55.064,HF_wild_card,2022.2.4,Win32,59.86948452,63d650bb391dd8bb01d022ef,64d2fd46c836a06233681665,64dc79ccf9491dfdd0be8962,,,,,,,decisionTrl,resources/DBN.BMP,resources/DG.BMP,WildCard_Ex,0.299074102,0.068518497,1,0,0,0.665,optionRight,45,9955,5,12,0,12,0,1,,,,,,,,,,,,,,,,,,,,,,,,,,,,,,,,,,,,,,,
,,,,,,,,2023-08-16_08h36.55.064,HF_wild_card,2022.2.4,Win32,59.86948452,63d650bb391dd8bb01d022ef,64d2fd46c836a06233681665,64dc79ccf9491dfdd0be8962,,,,,,,sngl,resources/DY.BMP,resources/Empty.png,Door1,-0.272222236,-0.027777778,1,0,0,0.4819,optionLeft,30,9985,5,13,0,13,0,1,,,,,,,,,,,,,,,,,,,,,,,,,,,,,,,,,,,,,,,
,,,,,,,,2023-08-16_08h36.55.064,HF_wild_card,2022.2.4,Win32,59.86948452,63d650bb391dd8bb01d022ef,64d2fd46c836a06233681665,64dc79ccf9491dfdd0be8962,,,,,,,sngl,resources/Empty.png,resources/DP.BMP,Door4,0.37962963,0.089814822,1,0,0,0.4986,optionRight,60,10045,5,14,0,14,0,1,,,,,,,,,,,,,,,,,,,,,,,,,,,,,,,,,,,,,,,
,,,,,,,,2023-08-16_08h36.55.064,HF_wild_card,2022.2.4,Win32,59.86948452,63d650bb391dd8bb01d022ef,64d2fd46c836a06233681665,64dc79ccf9491dfdd0be8962,,,,,,,ctch,resources/DY.BMP,resources/DP.BMP,Door4,0.304629714,-0.034259266,1,0,0,1.3483,optionRight,80,10125,5,15,0,15,0,1,,,,,,,,,,,,,,,,,,,,,,,,,,,,,,,,,,,,,,,
,,,,,,,,2023-08-16_08h36.55.064,HF_wild_card,2022.2.4,Win32,59.86948452,63d650bb391dd8bb01d022ef,64d2fd46c836a06233681665,64dc79ccf9491dfdd0be8962,,,,,,,sngl,resources/DB.BMP,resources/Empty.png,Door3,-0.199074074,-0.003703718,1,0,0,0.5488,optionLeft,70,10195,5,16,0,16,0,1,,,,,,,,,,,,,,,,,,,,,,,,,,,,,,,,,,,,,,,
,,,,,,,,2023-08-16_08h36.55.064,HF_wild_card,2022.2.4,Win32,59.86948452,63d650bb391dd8bb01d022ef,64d2fd46c836a06233681665,64dc79ccf9491dfdd0be8962,,,,,,,decisionTrl,resources/DB.BMP,resources/DG.BMP,Door3,-0.317592586,0.0074074,1,0,0,1.4815,optionLeft,70,10265,5,17,0,17,0,1,,,,,,,,,,,,,,,,,,,,,,,,,,,,,,,,,,,,,,,
,,,,,,,,2023-08-16_08h36.55.064,HF_wild_card,2022.2.4,Win32,59.86948452,63d650bb391dd8bb01d022ef,64d2fd46c836a06233681665,64dc79ccf9491dfdd0be8962,,,,,,,sngl,resources/Empty.png,resources/DG.BMP,WildCard_Ex,0.238888917,0.012962942,1,0,0,0.5815,optionRight,55,10320,5,18,0,18,0,1,,,,,,,,,,,,,,,,,,,,,,,,,,,,,,,,,,,,,,,
,,,,,,,,2023-08-16_08h36.55.064,HF_wild_card,2022.2.4,Win32,59.86948452,63d650bb391dd8bb01d022ef,64d2fd46c836a06233681665,64dc79ccf9491dfdd0be8962,,,,,,,decisionTrl,resources/DG.BMP,resources/DP.BMP,Door4,0.328703704,0.066666674,1,0,0,1.9652,optionRight,60,10380,5,19,0,19,0,1,,,,,,,,,,,,,,,,,,,,,,,,,,,,,,,,,,,,,,,
,,,,,,,,2023-08-16_08h36.55.064,HF_wild_card,2022.2.4,Win32,59.86948452,63d650bb391dd8bb01d022ef,64d2fd46c836a06233681665,64dc79ccf9491dfdd0be8962,,,,,,,decisionTrl,resources/DP.BMP,resources/DG.BMP,Door4,-0.306481467,-0.025925919,1,0,0,0.5479,optionLeft,60,10440,5,20,0,20,0,1,,,,,,,,,,,,,,,,,,,,,,,,,,,,,,,,,,,,,,,
,,,,,,,,2023-08-16_08h36.55.064,HF_wild_card,2022.2.4,Win32,59.86948452,63d650bb391dd8bb01d022ef,64d2fd46c836a06233681665,64dc79ccf9491dfdd0be8962,,,,,,,sngl,resources/DG.BMP,resources/Empty.png,WildCard_Ex,-0.196296268,-0.031481496,1,0,0,0.5315,optionLeft,45,10485,5,21,0,21,0,1,,,,,,,,,,,,,,,,,,,,,,,,,,,,,,,,,,,,,,,
,,,,,,,,2023-08-16_08h36.55.064,HF_wild_card,2022.2.4,Win32,59.86948452,63d650bb391dd8bb01d022ef,64d2fd46c836a06233681665,64dc79ccf9491dfdd0be8962,,,,,,,decisionTrl,resources/DP.BMP,resources/DB.BMP,Door4,-0.562962956,0.027777778,1,0,0,1.0311,optionLeft,80,10565,5,22,0,22,0,1,,,,,,,,,,,,,,,,,,,,,,,,,,,,,,,,,,,,,,,
,,,,,,,,2023-08-16_08h36.55.064,HF_wild_card,2022.2.4,Win32,59.86948452,63d650bb391dd8bb01d022ef,64d2fd46c836a06233681665,64dc79ccf9491dfdd0be8962,,,,,,,sngl,resources/DP.BMP,resources/Empty.png,Door4,-0.212962963,-0.014814836,1,0,0,0.5142,optionLeft,80,10645,5,23,0,23,0,1,,,,,,,,,,,,,,,,,,,,,,,,,,,,,,,,,,,,,,,
,,,,,,,,2023-08-16_08h36.55.064,HF_wild_card,2022.2.4,Win32,59.86948452,63d650bb391dd8bb01d022ef,64d2fd46c836a06233681665,64dc79ccf9491dfdd0be8962,,,,,,,sngl,resources/Empty.png,resources/DY.BMP,Door1,0.210185228,-0.013888889,1,0,0,0.5487,optionRight,30,10675,5,24,0,24,0,1,,,,,,,,,,,,,,,,,,,,,,,,,,,,,,,,,,,,,,,
,,,,,,,,2023-08-16_08h36.55.064,HF_wild_card,2022.2.4,Win32,59.86948452,63d650bb391dd8bb01d022ef,64d2fd46c836a06233681665,64dc79ccf9491dfdd0be8962,,,,,,,sngl,resources/Empty.png,resources/DBN.BMP,Door2,0.163888931,-0.00462963,1,0,0,0.5978,optionRight,20,10695,5,25,0,25,0,1,,,,,,,,,,,,,,,,,,,,,,,,,,,,,,,,,,,,,,,
,,,,,,,,2023-08-16_08h36.55.064,HF_wild_card,2022.2.4,Win32,59.86948452,63d650bb391dd8bb01d022ef,64d2fd46c836a06233681665,64dc79ccf9491dfdd0be8962,,,,,,,decisionTrl,resources/DY.BMP,resources/DBN.BMP,Door1,-0.390740748,0.026851831,1,0,0,0.7483,optionLeft,30,10725,5,26,0,26,0,1,,,,,,,,,,,,,,,,,,,,,,,,,,,,,,,,,,,,,,,
,,,,,,,,2023-08-16_08h36.55.064,HF_wild_card,2022.2.4,Win32,59.86948452,63d650bb391dd8bb01d022ef,64d2fd46c836a06233681665,64dc79ccf9491dfdd0be8962,,,,,,,ctch,resources/DBN.BMP,resources/DB.BMP,Door3,0.207407422,-0.042592614,1,0,0,0.7312,optionRight,70,10795,5,27,0,27,0,1,,,,,,,,,,,,,,,,,,,,,,,,,,,,,,,,,,,,,,,
,,,,,,,,2023-08-16_08h36.55.064,HF_wild_card,2022.2.4,Win32,59.86948452,63d650bb391dd8bb01d022ef,64d2fd46c836a06233681665,64dc79ccf9491dfdd0be8962,,,,,,,decisionTrl,resources/DP.BMP,resources/DB.BMP,Door4,-0.354629623,0.001851859,1,0,0,1.198,optionLeft,60,10855,5,28,0,28,0,1,,,,,,,,,,,,,,,,,,,,,,,,,,,,,,,,,,,,,,,
,,,,,,,,2023-08-16_08h36.55.064,HF_wild_card,2022.2.4,Win32,59.86948452,63d650bb391dd8bb01d022ef,64d2fd46c836a06233681665,64dc79ccf9491dfdd0be8962,,,,,,,decisionTrl,resources/DY.BMP,resources/DBN.BMP,Door1,-0.248148106,-0.036111125,1,0,0,0.7816,optionLeft,30,10885,5,29,0,29,0,1,,,,,,,,,,,,,,,,,,,,,,,,,,,,,,,,,,,,,,,
,,,,,,,,2023-08-16_08h36.55.064,HF_wild_card,2022.2.4,Win32,59.86948452,63d650bb391dd8bb01d022ef,64d2fd46c836a06233681665,64dc79ccf9491dfdd0be8962,,,,,,,decisionTrl,resources/DB.BMP,resources/DP.BMP,Door3,-0.273148148,-0.017592607,1,0,0,0.6814,optionLeft,70,10955,5,30,0,30,0,1,,,,,,,,,,,,,,,,,,,,,,,,,,,,,,,,,,,,,,,
,,,,,,,,2023-08-16_08h36.55.064,HF_wild_card,2022.2.4,Win32,59.86948452,63d650bb391dd8bb01d022ef,64d2fd46c836a06233681665,64dc79ccf9491dfdd0be8962,,,,,,,decisionTrl,resources/DG.BMP,resources/DBN.BMP,WildCard_Ex,-0.246296282,0.001851859,1,0,0,1.0149,optionLeft,45,11000,5,31,0,31,0,1,,,,,,,,,,,,,,,,,,,,,,,,,,,,,,,,,,,,,,,
,,,,,,,,2023-08-16_08h36.55.064,HF_wild_card,2022.2.4,Win32,59.86948452,63d650bb391dd8bb01d022ef,64d2fd46c836a06233681665,64dc79ccf9491dfdd0be8962,,,,,,,ctch,resources/DB.BMP,resources/DBN.BMP,Door3,-0.247222194,-0.002777771,1,0,0,0.5143,optionLeft,70,11070,5,32,0,32,0,1,,,,,,,,,,,,,,,,,,,,,,,,,,,,,,,,,,,,,,,
,,,,,,,,2023-08-16_08h36.55.064,HF_wild_card,2022.2.4,Win32,59.86948452,63d650bb391dd8bb01d022ef,64d2fd46c836a06233681665,64dc79ccf9491dfdd0be8962,,,,,,,ctch,resources/DP.BMP,resources/DY.BMP,Door4,-0.284259231,-0.026851866,1,0,0,0.9146,optionLeft,80,11150,5,33,0,33,0,1,,,,,,,,,,,,,,,,,,,,,,,,,,,,,,,,,,,,,,,
,,,,,,,,2023-08-16_08h36.55.064,HF_wild_card,2022.2.4,Win32,59.86948452,63d650bb391dd8bb01d022ef,64d2fd46c836a06233681665,64dc79ccf9491dfdd0be8962,,,,,,,ctch,resources/DY.BMP,resources/DP.BMP,Door4,0.277777778,-0.006481489,1,0,0,1.0982,optionRight,60,11210,5,34,0,34,0,1,,,,,,,,,,,,,,,,,,,,,,,,,,,,,,,,,,,,,,,
,,,,,,,,2023-08-16_08h36.55.064,HF_wild_card,2022.2.4,Win32,59.86948452,63d650bb391dd8bb01d022ef,64d2fd46c836a06233681665,64dc79ccf9491dfdd0be8962,,,,,,,sngl,resources/DBN.BMP,resources/Empty.png,Door2,-0.295370384,-0.015740748,1,0,0,0.4979,optionLeft,40,11250,5,35,0,35,0,1,,,,,,,,,,,,,,,,,,,,,,,,,,,,,,,,,,,,,,,
,,,,,,,,2023-08-16_08h36.55.064,HF_wild_card,2022.2.4,Win32,59.86948452,63d650bb391dd8bb01d022ef,64d2fd46c836a06233681665,64dc79ccf9491dfdd0be8962,,,,,,,ctch,resources/DBN.BMP,resources/DB.BMP,Door3,0.227777764,-0.028703725,1,0,0,0.5979,optionRight,70,11320,5,36,0,36,0,1,,,,,,,,,,,,,,,,,,,,,,,,,,,,,,,,,,,,,,,
,,,,,,,,2023-08-16_08h36.55.064,HF_wild_card,2022.2.4,Win32,59.86948452,63d650bb391dd8bb01d022ef,64d2fd46c836a06233681665,64dc79ccf9491dfdd0be8962,,,,,,,decisionTrl,resources/DG.BMP,resources/DY.BMP,WildCard_Ex,-0.175925926,-0.037962984,1,0,0,1.5984,optionLeft,55,11375,5,37,0,37,0,1,,,,,,,,,,,,,,,,,,,,,,,,,,,,,,,,,,,,,,,
,,,,,,,,2023-08-16_08h36.55.064,HF_wild_card,2022.2.4,Win32,59.86948452,63d650bb391dd8bb01d022ef,64d2fd46c836a06233681665,64dc79ccf9491dfdd0be8962,,,,,,,decisionTrl,resources/DB.BMP,resources/DP.BMP,Door4,0.270370413,-0.041666667,1,0,0,1.0981,optionRight,60,11435,5,38,0,38,0,1,,,,,,,,,,,,,,,,,,,,,,,,,,,,,,,,,,,,,,,
,,,,,,,,2023-08-16_08h36.55.064,HF_wild_card,2022.2.4,Win32,59.86948452,63d650bb391dd8bb01d022ef,64d2fd46c836a06233681665,64dc79ccf9491dfdd0be8962,,,,,,,decisionTrl,resources/DB.BMP,resources/DP.BMP,Door3,-0.316666674,-0.066666674,1,0,0,0.6652,optionLeft,70,11505,5,39,0,39,0,1,,,,,,,,,,,,,,,,,,,,,,,,,,,,,,,,,,,,,,,
,,,,,,,,2023-08-16_08h36.55.064,HF_wild_card,2022.2.4,Win32,59.86948452,63d650bb391dd8bb01d022ef,64d2fd46c836a06233681665,64dc79ccf9491dfdd0be8962,,,,,,,sngl,resources/Empty.png,resources/DG.BMP,WildCard_Ex,0.314814815,0.042592578,1,0,0,0.4642,optionRight,45,11550,5,40,0,40,0,1,,,,,,,,,,,,,,,,,,,,,,,,,,,,,,,,,,,,,,,
,,,,,,,,2023-08-16_08h36.55.064,HF_wild_card,2022.2.4,Win32,59.86948452,63d650bb391dd8bb01d022ef,64d2fd46c836a06233681665,64dc79ccf9491dfdd0be8962,,,,,,,decisionTrl,resources/DBN.BMP,resources/DY.BMP,Door1,0.405555584,0.070370356,1,0,0,0.8153,optionRight,30,11580,5,41,0,41,0,1,,,,,,,,,,,,,,,,,,,,,,,,,,,,,,,,,,,,,,,
,,,,,,,,2023-08-16_08h36.55.064,HF_wild_card,2022.2.4,Win32,59.86948452,63d650bb391dd8bb01d022ef,64d2fd46c836a06233681665,64dc79ccf9491dfdd0be8962,,,,,,,decisionTrl,resources/DY.BMP,resources/DBN.BMP,Door1,-0.268518519,-0.039814808,1,0,0,0.5982,optionLeft,30,11610,5,42,0,42,0,1,,,,,,,,,,,,,,,,,,,,,,,,,,,,,,,,,,,,,,,
,,,,,,,,2023-08-16_08h36.55.064,HF_wild_card,2022.2.4,Win32,59.86948452,63d650bb391dd8bb01d022ef,64d2fd46c836a06233681665,64dc79ccf9491dfdd0be8962,,,,,,,decisionTrl,resources/DBN.BMP,resources/DY.BMP,Door1,0.19722225,-0.010185206,1,0,0,0.6142,optionRight,30,11640,5,43,0,43,0,1,,,,,,,,,,,,,,,,,,,,,,,,,,,,,,,,,,,,,,,
,,,,,,,,2023-08-16_08h36.55.064,HF_wild_card,2022.2.4,Win32,59.86948452,63d650bb391dd8bb01d022ef,64d2fd46c836a06233681665,64dc79ccf9491dfdd0be8962,,,,,,,,,,,,,,,,,,,,,,,,,,4,0,4,0,1,,,,,,,,,,,,,,,,,,,,,,,,,,,,,,,,,,
,,,,,,,,2023-08-16_08h36.55.064,HF_wild_card,2022.2.4,Win32,59.86948452,63d650bb391dd8bb01d022ef,64d2fd46c836a06233681665,64dc79ccf9491dfdd0be8962,,,,,,,decisionTrl,resources/DG.BMP,resources/DP.BMP,Door4,0.313888974,-0.078703704,1,0,0,1.1892,optionRight,60,11700,6,0,0,0,0,1,,,,,,,,,,,,,,,,,,,,,,,,,,,,,,,,,,,,,,,
,,,,,,,,2023-08-16_08h36.55.064,HF_wild_card,2022.2.4,Win32,59.86948452,63d650bb391dd8bb01d022ef,64d2fd46c836a06233681665,64dc79ccf9491dfdd0be8962,,,,,,,decisionTrl,resources/DY.BMP,resources/DBN.BMP,Door1,-0.267592607,-0.040740755,1,0,0,0.5485,optionLeft,30,11730,6,1,0,1,0,1,,,,,,,,,,,,,,,,,,,,,,,,,,,,,,,,,,,,,,,
,,,,,,,,2023-08-16_08h36.55.064,HF_wild_card,2022.2.4,Win32,59.86948452,63d650bb391dd8bb01d022ef,64d2fd46c836a06233681665,64dc79ccf9491dfdd0be8962,,,,,,,decisionTrl,resources/DG.BMP,resources/DB.BMP,Door3,0.275000042,-0.028703725,1,0,0,0.5487,optionRight,70,11800,6,2,0,2,0,1,,,,,,,,,,,,,,,,,,,,,,,,,,,,,,,,,,,,,,,
,,,,,,,,2023-08-16_08h36.55.064,HF_wild_card,2022.2.4,Win32,59.86948452,63d650bb391dd8bb01d022ef,64d2fd46c836a06233681665,64dc79ccf9491dfdd0be8962,,,,,,,decisionTrl,resources/DBN.BMP,resources/DY.BMP,Door1,0.290740755,-0.051851873,1,0,0,0.9481,optionRight,30,11830,6,3,0,3,0,1,,,,,,,,,,,,,,,,,,,,,,,,,,,,,,,,,,,,,,,
,,,,,,,,2023-08-16_08h36.55.064,HF_wild_card,2022.2.4,Win32,59.86948452,63d650bb391dd8bb01d022ef,64d2fd46c836a06233681665,64dc79ccf9491dfdd0be8962,,,,,,,sngl,resources/DP.BMP,resources/Empty.png,Door4,-0.318518497,-0.01203703,1,0,0,0.4325,optionLeft,60,11890,6,4,0,4,0,1,,,,,,,,,,,,,,,,,,,,,,,,,,,,,,,,,,,,,,,
,,,,,,,,2023-08-16_08h36.55.064,HF_wild_card,2022.2.4,Win32,59.86948452,63d650bb391dd8bb01d022ef,64d2fd46c836a06233681665,64dc79ccf9491dfdd0be8962,,,,,,,decisionTrl,resources/DB.BMP,resources/DG.BMP,Door3,-0.328703704,0.083333333,1,0,0,1.1482,optionLeft,70,11960,6,5,0,5,0,1,,,,,,,,,,,,,,,,,,,,,,,,,,,,,,,,,,,,,,,
,,,,,,,,2023-08-16_08h36.55.064,HF_wild_card,2022.2.4,Win32,59.86948452,63d650bb391dd8bb01d022ef,64d2fd46c836a06233681665,64dc79ccf9491dfdd0be8962,,,,,,,sngl,resources/DG.BMP,resources/Empty.png,WildCard_Ex,-0.292592578,-0.044444437,1,0,0,0.4317,optionLeft,55,12015,6,6,0,6,0,1,,,,,,,,,,,,,,,,,,,,,,,,,,,,,,,,,,,,,,,
,,,,,,,,2023-08-16_08h36.55.064,HF_wild_card,2022.2.4,Win32,59.86948452,63d650bb391dd8bb01d022ef,64d2fd46c836a06233681665,64dc79ccf9491dfdd0be8962,,,,,,,sngl,resources/DBN.BMP,resources/Empty.png,Door2,-0.162037037,-0.015740748,1,0,0,0.3823,optionLeft,20,12035,6,7,0,7,0,1,,,,,,,,,,,,,,,,,,,,,,,,,,,,,,,,,,,,,,,
,,,,,,,,2023-08-16_08h36.55.064,HF_wild_card,2022.2.4,Win32,59.86948452,63d650bb391dd8bb01d022ef,64d2fd46c836a06233681665,64dc79ccf9491dfdd0be8962,,,,,,,decisionTrl,resources/DP.BMP,resources/DB.BMP,Door4,-0.437962956,-0.01203703,1,0,0,0.8647,optionLeft,80,12115,6,8,0,8,0,1,,,,,,,,,,,,,,,,,,,,,,,,,,,,,,,,,,,,,,,
,,,,,,,,2023-08-16_08h36.55.064,HF_wild_card,2022.2.4,Win32,59.86948452,63d650bb391dd8bb01d022ef,64d2fd46c836a06233681665,64dc79ccf9491dfdd0be8962,,,,,,,decisionTrl,resources/DBN.BMP,resources/DY.BMP,Door1,0.487037094,0.026851831,1,0,0,0.6477,optionRight,30,12145,6,9,0,9,0,1,,,,,,,,,,,,,,,,,,,,,,,,,,,,,,,,,,,,,,,
,,,,,,,,2023-08-16_08h36.55.064,HF_wild_card,2022.2.4,Win32,59.86948452,63d650bb391dd8bb01d022ef,64d2fd46c836a06233681665,64dc79ccf9491dfdd0be8962,,,,,,,sngl,resources/DB.BMP,resources/Empty.png,Door3,-0.301851838,-0.000925947,1,0,0,0.4647,optionLeft,70,12215,6,10,0,10,0,1,,,,,,,,,,,,,,,,,,,,,,,,,,,,,,,,,,,,,,,
,,,,,,,,2023-08-16_08h36.55.064,HF_wild_card,2022.2.4,Win32,59.86948452,63d650bb391dd8bb01d022ef,64d2fd46c836a06233681665,64dc79ccf9491dfdd0be8962,,,,,,,decisionTrl,resources/DG.BMP,resources/DBN.BMP,WildCard_Ex,-0.397222201,0.008333312,1,0,0,0.7646,optionLeft,55,12270,6,11,0,11,0,1,,,,,,,,,,,,,,,,,,,,,,,,,,,,,,,,,,,,,,,
,,,,,,,,2023-08-16_08h36.55.064,HF_wild_card,2022.2.4,Win32,59.86948452,63d650bb391dd8bb01d022ef,64d2fd46c836a06233681665,64dc79ccf9491dfdd0be8962,,,,,,,sngl,resources/Empty.png,resources/DY.BMP,Door1,0.276851866,-0.025000007,1,0,0,0.4914,optionRight,30,12300,6,12,0,12,0,1,,,,,,,,,,,,,,,,,,,,,,,,,,,,,,,,,,,,,,,
,,,,,,,,2023-08-16_08h36.55.064,HF_wild_card,2022.2.4,Win32,59.86948452,63d650bb391dd8bb01d022ef,64d2fd46c836a06233681665,64dc79ccf9491dfdd0be8962,,,,,,,ctch,resources/DY.BMP,resources/DP.BMP,Door4,0.162962949,0.000925912,1,0,0,1.1976,optionRight,80,12380,6,13,0,13,0,1,,,,,,,,,,,,,,,,,,,,,,,,,,,,,,,,,,,,,,,
,,,,,,,,2023-08-16_08h36.55.064,HF_wild_card,2022.2.4,Win32,59.86948452,63d650bb391dd8bb01d022ef,64d2fd46c836a06233681665,64dc79ccf9491dfdd0be8962,,,,,,,decisionTrl,resources/DBN.BMP,resources/DY.BMP,Door1,0.265740783,0.050925926,1,0,0,0.7649,optionRight,30,12410,6,14,0,14,0,1,,,,,,,,,,,,,,,,,,,,,,,,,,,,,,,,,,,,,,,
,,,,,,,,2023-08-16_08h36.55.064,HF_wild_card,2022.2.4,Win32,59.86948452,63d650bb391dd8bb01d022ef,64d2fd46c836a06233681665,64dc79ccf9491dfdd0be8962,,,,,,,decisionTrl,resources/DY.BMP,resources/DBN.BMP,Door1,-0.300925926,0.010185171,1,0,0,0.4653,optionLeft,30,12440,6,15,0,15,0,1,,,,,,,,,,,,,,,,,,,,,,,,,,,,,,,,,,,,,,,
,,,,,,,,2023-08-16_08h36.55.064,HF_wild_card,2022.2.4,Win32,59.86948452,63d650bb391dd8bb01d022ef,64d2fd46c836a06233681665,64dc79ccf9491dfdd0be8962,,,,,,,sngl,resources/Empty.png,resources/DB.BMP,Door3,0.296296296,0.011111118,1,0,0,0.4817,optionRight,70,12510,6,16,0,16,0,1,,,,,,,,,,,,,,,,,,,,,,,,,,,,,,,,,,,,,,,
,,,,,,,,2023-08-16_08h36.55.064,HF_wild_card,2022.2.4,Win32,59.86948452,63d650bb391dd8bb01d022ef,64d2fd46c836a06233681665,64dc79ccf9491dfdd0be8962,,,,,,,ctch,resources/DY.BMP,resources/DP.BMP,Door4,0.296296296,-0.074074074,1,0,0,1.0972,optionRight,60,12570,6,17,0,17,0,1,,,,,,,,,,,,,,,,,,,,,,,,,,,,,,,,,,,,,,,
,,,,,,,,2023-08-16_08h36.55.064,HF_wild_card,2022.2.4,Win32,59.86948452,63d650bb391dd8bb01d022ef,64d2fd46c836a06233681665,64dc79ccf9491dfdd0be8962,,,,,,,decisionTrl,resources/DB.BMP,resources/DP.BMP,Door3,-0.296296296,-0.020370377,1,0,0,0.6819,optionLeft,70,12640,6,18,0,18,0,1,,,,,,,,,,,,,,,,,,,,,,,,,,,,,,,,,,,,,,,
,,,,,,,,2023-08-16_08h36.55.064,HF_wild_card,2022.2.4,Win32,59.86948452,63d650bb391dd8bb01d022ef,64d2fd46c836a06233681665,64dc79ccf9491dfdd0be8962,,,,,,,decisionTrl,resources/DY.BMP,resources/DBN.BMP,Door1,-0.27407406,-0.052777785,1,0,0,0.6978,optionLeft,30,12670,6,19,0,19,0,1,,,,,,,,,,,,,,,,,,,,,,,,,,,,,,,,,,,,,,,
,,,,,,,,2023-08-16_08h36.55.064,HF_wild_card,2022.2.4,Win32,59.86948452,63d650bb391dd8bb01d022ef,64d2fd46c836a06233681665,64dc79ccf9491dfdd0be8962,,,,,,,decisionTrl,resources/DP.BMP,resources/DB.BMP,Door3,0.394444501,0.074074074,1,0,0,0.9144,optionRight,70,12740,6,20,0,20,0,1,,,,,,,,,,,,,,,,,,,,,,,,,,,,,,,,,,,,,,,
,,,,,,,,2023-08-16_08h36.55.064,HF_wild_card,2022.2.4,Win32,59.86948452,63d650bb391dd8bb01d022ef,64d2fd46c836a06233681665,64dc79ccf9491dfdd0be8962,,,,,,,sngl,resources/Empty.png,resources/DP.BMP,Door4,0.147222236,-0.022222236,1,0,0,0.581,optionRight,80,12820,6,21,0,21,0,1,,,,,,,,,,,,,,,,,,,,,,,,,,,,,,,,,,,,,,,
,,,,,,,,2023-08-16_08h36.55.064,HF_wild_card,2022.2.4,Win32,59.86948452,63d650bb391dd8bb01d022ef,64d2fd46c836a06233681665,64dc79ccf9491dfdd0be8962,,,,,,,sngl,resources/DG.BMP,resources/Empty.png,WildCard_Ex,-0.326851845,-0.000925947,1,0,0,0.449,optionLeft,45,12865,6,22,0,22,0,1,,,,,,,,,,,,,,,,,,,,,,,,,,,,,,,,,,,,,,,
,,,,,,,,2023-08-16_08h36.55.064,HF_wild_card,2022.2.4,Win32,59.86948452,63d650bb391dd8bb01d022ef,64d2fd46c836a06233681665,64dc79ccf9491dfdd0be8962,,,,,,,sngl,resources/DY.BMP,resources/Empty.png,Door1,-0.252777735,-0.0074074,1,0,0,0.498,optionLeft,30,12895,6,23,0,23,0,1,,,,,,,,,,,,,,,,,,,,,,,,,,,,,,,,,,,,,,,
,,,,,,,,2023-08-16_08h36.55.064,HF_wild_card,2022.2.4,Win32,59.86948452,63d650bb391dd8bb01d022ef,64d2fd46c836a06233681665,64dc79ccf9491dfdd0be8962,,,,,,,decisionTrl,resources/DY.BMP,resources/DG.BMP,Door1,-0.193518533,-0.059259273,1,0,0,0.6817,optionLeft,30,12925,6,24,0,24,0,1,,,,,,,,,,,,,,,,,,,,,,,,,,,,,,,,,,,,,,,
,,,,,,,,2023-08-16_08h36.55.064,HF_wild_card,2022.2.4,Win32,59.86948452,63d650bb391dd8bb01d022ef,64d2fd46c836a06233681665,64dc79ccf9491dfdd0be8962,,,,,,,decisionTrl,resources/DG.BMP,resources/DY.BMP,WildCard_Ex,-0.299999979,-0.032407407,1,0,0,0.6487,optionLeft,55,12980,6,25,0,25,0,1,,,,,,,,,,,,,,,,,,,,,,,,,,,,,,,,,,,,,,,
,,,,,,,,2023-08-16_08h36.55.064,HF_wild_card,2022.2.4,Win32,59.86948452,63d650bb391dd8bb01d022ef,64d2fd46c836a06233681665,64dc79ccf9491dfdd0be8962,,,,,,,ctch,resources/DP.BMP,resources/DY.BMP,Door4,-0.421296296,-0.042592614,1,0,0,0.8309,optionLeft,80,13060,6,26,0,26,0,1,,,,,,,,,,,,,,,,,,,,,,,,,,,,,,,,,,,,,,,
,,,,,,,,2023-08-16_08h36.55.064,HF_wild_card,2022.2.4,Win32,59.86948452,63d650bb391dd8bb01d022ef,64d2fd46c836a06233681665,64dc79ccf9491dfdd0be8962,,,,,,,decisionTrl,resources/DB.BMP,resources/DP.BMP,Door4,0.348148205,-0.027777778,1,0,0,1.2315,optionRight,80,13140,6,27,0,27,0,1,,,,,,,,,,,,,,,,,,,,,,,,,,,,,,,,,,,,,,,
,,,,,,,,2023-08-16_08h36.55.064,HF_wild_card,2022.2.4,Win32,59.86948452,63d650bb391dd8bb01d022ef,64d2fd46c836a06233681665,64dc79ccf9491dfdd0be8962,,,,,,,decisionTrl,resources/DY.BMP,resources/DBN.BMP,Door1,-0.251851824,-0.010185206,1,0,0,0.598,optionLeft,30,13170,6,28,0,28,0,1,,,,,,,,,,,,,,,,,,,,,,,,,,,,,,,,,,,,,,,
,,,,,,,,2023-08-16_08h36.55.064,HF_wild_card,2022.2.4,Win32,59.86948452,63d650bb391dd8bb01d022ef,64d2fd46c836a06233681665,64dc79ccf9491dfdd0be8962,,,,,,,decisionTrl,resources/DBN.BMP,resources/DG.BMP,WildCard_Ex,0.289814843,-0.008333347,1,0,0,0.6811,optionRight,55,13225,6,29,0,29,0,1,,,,,,,,,,,,,,,,,,,,,,,,,,,,,,,,,,,,,,,
,,,,,,,,2023-08-16_08h36.55.064,HF_wild_card,2022.2.4,Win32,59.86948452,63d650bb391dd8bb01d022ef,64d2fd46c836a06233681665,64dc79ccf9491dfdd0be8962,,,,,,,decisionTrl,resources/DP.BMP,resources/DB.BMP,Door4,-0.326851845,0.027777778,1,0,0,1.1144,optionLeft,60,13285,6,30,0,30,0,1,,,,,,,,,,,,,,,,,,,,,,,,,,,,,,,,,,,,,,,
,,,,,,,,2023-08-16_08h36.55.064,HF_wild_card,2022.2.4,Win32,59.86948452,63d650bb391dd8bb01d022ef,64d2fd46c836a06233681665,64dc79ccf9491dfdd0be8962,,,,,,,sngl,resources/Empty.png,resources/DBN.BMP,Door2,0.233333376,0.023148148,1,0,0,0.5154,optionRight,40,13325,6,31,0,31,0,1,,,,,,,,,,,,,,,,,,,,,,,,,,,,,,,,,,,,,,,
,,,,,,,,2023-08-16_08h36.55.064,HF_wild_card,2022.2.4,Win32,59.86948452,63d650bb391dd8bb01d022ef,64d2fd46c836a06233681665,64dc79ccf9491dfdd0be8962,,,,,,,decisionTrl,resources/DB.BMP,resources/DP.BMP,Door4,0.261111153,0.01666666,1,0,0,0.9643,optionRight,60,13385,6,32,0,32,0,1,,,,,,,,,,,,,,,,,,,,,,,,,,,,,,,,,,,,,,,
,,,,,,,,2023-08-16_08h36.55.064,HF_wild_card,2022.2.4,Win32,59.86948452,63d650bb391dd8bb01d022ef,64d2fd46c836a06233681665,64dc79ccf9491dfdd0be8962,,,,,,,sngl,resources/Empty.png,resources/DG.BMP,WildCard_Ex,0.190740727,-0.000925947,1,0,0,0.4806,optionRight,55,13440,6,33,0,33,0,1,,,,,,,,,,,,,,,,,,,,,,,,,,,,,,,,,,,,,,,
,,,,,,,,2023-08-16_08h36.55.064,HF_wild_card,2022.2.4,Win32,59.86948452,63d650bb391dd8bb01d022ef,64d2fd46c836a06233681665,64dc79ccf9491dfdd0be8962,,,,,,,ctch,resources/DB.BMP,resources/DBN.BMP,Door3,-0.325925933,-0.013888889,1,0,0,0.5648,optionLeft,70,13510,6,34,0,34,0,1,,,,,,,,,,,,,,,,,,,,,,,,,,,,,,,,,,,,,,,
,,,,,,,,2023-08-16_08h36.55.064,HF_wild_card,2022.2.4,Win32,59.86948452,63d650bb391dd8bb01d022ef,64d2fd46c836a06233681665,64dc79ccf9491dfdd0be8962,,,,,,,decisionTrl,resources/DB.BMP,resources/DP.BMP,Door3,-0.286111125,-0.022222236,1,0,0,0.682,optionLeft,70,13580,6,35,0,35,0,1,,,,,,,,,,,,,,,,,,,,,,,,,,,,,,,,,,,,,,,
,,,,,,,,2023-08-16_08h36.55.064,HF_wild_card,2022.2.4,Win32,59.86948452,63d650bb391dd8bb01d022ef,64d2fd46c836a06233681665,64dc79ccf9491dfdd0be8962,,,,,,,ctch,resources/DB.BMP,resources/DBN.BMP,Door3,-0.19259255,-0.026851866,1,0,0,0.4971,optionLeft,70,13650,6,36,0,36,0,1,,,,,,,,,,,,,,,,,,,,,,,,,,,,,,,,,,,,,,,
,,,,,,,,2023-08-16_08h36.55.064,HF_wild_card,2022.2.4,Win32,59.86948452,63d650bb391dd8bb01d022ef,64d2fd46c836a06233681665,64dc79ccf9491dfdd0be8962,,,,,,,ctch,resources/DBN.BMP,resources/DB.BMP,Door3,0.25462963,-0.035185178,1,0,0,0.5637,optionRight,70,13720,6,37,0,37,0,1,,,,,,,,,,,,,,,,,,,,,,,,,,,,,,,,,,,,,,,
,,,,,,,,2023-08-16_08h36.55.064,HF_wild_card,2022.2.4,Win32,59.86948452,63d650bb391dd8bb01d022ef,64d2fd46c836a06233681665,64dc79ccf9491dfdd0be8962,,,,,,,decisionTrl,resources/DBN.BMP,resources/DY.BMP,Door2,-0.334259245,-0.022222236,1,0,0,0.6153,optionLeft,20,13740,6,38,0,38,0,1,,,,,,,,,,,,,,,,,,,,,,,,,,,,,,,,,,,,,,,
,,,,,,,,2023-08-16_08h36.55.064,HF_wild_card,2022.2.4,Win32,59.86948452,63d650bb391dd8bb01d022ef,64d2fd46c836a06233681665,64dc79ccf9491dfdd0be8962,,,,,,,decisionTrl,resources/DP.BMP,resources/DB.BMP,Door4,-0.346296275,-0.009259259,1,0,0,0.7149,optionLeft,60,13800,6,39,0,39,0,1,,,,,,,,,,,,,,,,,,,,,,,,,,,,,,,,,,,,,,,
,,,,,,,,2023-08-16_08h36.55.064,HF_wild_card,2022.2.4,Win32,59.86948452,63d650bb391dd8bb01d022ef,64d2fd46c836a06233681665,64dc79ccf9491dfdd0be8962,,,,,,,ctch,resources/DP.BMP,resources/DY.BMP,Door4,-0.193518533,-0.056481503,1,0,0,0.5982,optionLeft,80,13880,6,40,0,40,0,1,,,,,,,,,,,,,,,,,,,,,,,,,,,,,,,,,,,,,,,
,,,,,,,,2023-08-16_08h36.55.064,HF_wild_card,2022.2.4,Win32,59.86948452,63d650bb391dd8bb01d022ef,64d2fd46c836a06233681665,64dc79ccf9491dfdd0be8962,,,,,,,decisionTrl,resources/DP.BMP,resources/DG.BMP,Door4,-0.213888875,-0.050000014,1,0,0,0.6656,optionLeft,80,13960,6,41,0,41,0,1,,,,,,,,,,,,,,,,,,,,,,,,,,,,,,,,,,,,,,,
,,,,,,,,2023-08-16_08h36.55.064,HF_wild_card,2022.2.4,Win32,59.86948452,63d650bb391dd8bb01d022ef,64d2fd46c836a06233681665,64dc79ccf9491dfdd0be8962,,,,,,,ctch,resources/DBN.BMP,resources/DB.BMP,Door3,0.338888945,0.012962942,1,0,0,0.5485,optionRight,70,14030,6,42,0,42,0,1,,,,,,,,,,,,,,,,,,,,,,,,,,,,,,,,,,,,,,,
,,,,,,,,2023-08-16_08h36.55.064,HF_wild_card,2022.2.4,Win32,59.86948452,63d650bb391dd8bb01d022ef,64d2fd46c836a06233681665,64dc79ccf9491dfdd0be8962,,,,,,,sngl,resources/Empty.png,resources/DG.BMP,WildCard_Ex,0.224074116,-0.022222236,1,0,0,0.5481,optionRight,45,14075,6,43,0,43,0,1,,,,,,,,,,,,,,,,,,,,,,,,,,,,,,,,,,,,,,,
,,,,,,,,2023-08-16_08h36.55.064,HF_wild_card,2022.2.4,Win32,59.86948452,63d650bb391dd8bb01d022ef,64d2fd46c836a06233681665,64dc79ccf9491dfdd0be8962,,,,,,,,,,,,,,,,,,,,,,,,,,5,0,5,0,1,,,,,,,,,,,,,,,,,,,,,,,,,,,,,,,,,,
,,,,,,,,2023-08-16_08h36.55.064,HF_wild_card,2022.2.4,Win32,59.86948452,63d650bb391dd8bb01d022ef,64d2fd46c836a06233681665,64dc79ccf9491dfdd0be8962,,,,,,,decisionTrl,resources/DB.BMP,resources/DP.BMP,Door4,0.426851908,-0.063888903,1,0,0,0.9709,optionRight,60,14135,7,0,0,0,0,1,,,,,,,,,,,,,,,,,,,,,,,,,,,,,,,,,,,,,,,
,,,,,,,,2023-08-16_08h36.55.064,HF_wild_card,2022.2.4,Win32,59.86948452,63d650bb391dd8bb01d022ef,64d2fd46c836a06233681665,64dc79ccf9491dfdd0be8962,,,,,,,decisionTrl,resources/DBN.BMP,resources/DY.BMP,Door1,0.315740797,0.01203703,1,0,0,0.8487,optionRight,30,14165,7,1,0,1,0,1,,,,,,,,,,,,,,,,,,,,,,,,,,,,,,,,,,,,,,,
,,,,,,,,2023-08-16_08h36.55.064,HF_wild_card,2022.2.4,Win32,59.86948452,63d650bb391dd8bb01d022ef,64d2fd46c836a06233681665,64dc79ccf9491dfdd0be8962,,,,,,,ctch,resources/DY.BMP,resources/DP.BMP,Door4,0.256481524,-0.106481481,1,0,0,0.7077,optionRight,60,14225,7,2,0,2,0,1,,,,,,,,,,,,,,,,,,,,,,,,,,,,,,,,,,,,,,,
,,,,,,,,2023-08-16_08h36.55.064,HF_wild_card,2022.2.4,Win32,59.86948452,63d650bb391dd8bb01d022ef,64d2fd46c836a06233681665,64dc79ccf9491dfdd0be8962,,,,,,,decisionTrl,resources/DBN.BMP,resources/DY.BMP,Door1,0.280555584,-0.065740762,1,0,0,0.5821,optionRight,30,14255,7,3,0,3,0,1,,,,,,,,,,,,,,,,,,,,,,,,,,,,,,,,,,,,,,,
,,,,,,,,2023-08-16_08h36.55.064,HF_wild_card,2022.2.4,Win32,59.86948452,63d650bb391dd8bb01d022ef,64d2fd46c836a06233681665,64dc79ccf9491dfdd0be8962,,,,,,,decisionTrl,resources/DB.BMP,resources/DP.BMP,Door3,-0.267592607,-0.000925947,1,0,0,0.6822,optionLeft,70,14325,7,4,0,4,0,1,,,,,,,,,,,,,,,,,,,,,,,,,,,,,,,,,,,,,,,
,,,,,,,,2023-08-16_08h36.55.064,HF_wild_card,2022.2.4,Win32,59.86948452,63d650bb391dd8bb01d022ef,64d2fd46c836a06233681665,64dc79ccf9491dfdd0be8962,,,,,,,decisionTrl,resources/DY.BMP,resources/DBN.BMP,Door1,-0.362037023,-0.024074095,1,0,0,0.6986,optionLeft,30,14355,7,5,0,5,0,1,,,,,,,,,,,,,,,,,,,,,,,,,,,,,,,,,,,,,,,
,,,,,,,,2023-08-16_08h36.55.064,HF_wild_card,2022.2.4,Win32,59.86948452,63d650bb391dd8bb01d022ef,64d2fd46c836a06233681665,64dc79ccf9491dfdd0be8962,,,,,,,ctch,resources/DY.BMP,resources/DP.BMP,Door4,0.315740797,-0.034259266,1,0,0,1.0323,optionRight,80,14435,7,6,0,6,0,1,,,,,,,,,,,,,,,,,,,,,,,,,,,,,,,,,,,,,,,
,,,,,,,,2023-08-16_08h36.55.064,HF_wild_card,2022.2.4,Win32,59.86948452,63d650bb391dd8bb01d022ef,64d2fd46c836a06233681665,64dc79ccf9491dfdd0be8962,,,,,,,decisionTrl,resources/DBN.BMP,resources/DY.BMP,Door1,0.231481481,-0.037962984,1,0,0,0.6486,optionRight,30,14465,7,7,0,7,0,1,,,,,,,,,,,,,,,,,,,,,,,,,,,,,,,,,,,,,,,
,,,,,,,,2023-08-16_08h36.55.064,HF_wild_card,2022.2.4,Win32,59.86948452,63d650bb391dd8bb01d022ef,64d2fd46c836a06233681665,64dc79ccf9491dfdd0be8962,,,,,,,decisionTrl,resources/DY.BMP,resources/DBN.BMP,Door1,-0.277777778,-0.045370384,1,0,0,0.7161,optionLeft,30,14495,7,8,0,8,0,1,,,,,,,,,,,,,,,,,,,,,,,,,,,,,,,,,,,,,,,
,,,,,,,,2023-08-16_08h36.55.064,HF_wild_card,2022.2.4,Win32,59.86948452,63d650bb391dd8bb01d022ef,64d2fd46c836a06233681665,64dc79ccf9491dfdd0be8962,,,,,,,ctch,resources/DP.BMP,resources/DY.BMP,Door4,-0.161111125,-0.040740755,1,0,0,0.9993,optionLeft,80,14575,7,9,0,9,0,1,,,,,,,,,,,,,,,,,,,,,,,,,,,,,,,,,,,,,,,
,,,,,,,,2023-08-16_08h36.55.064,HF_wild_card,2022.2.4,Win32,59.86948452,63d650bb391dd8bb01d022ef,64d2fd46c836a06233681665,64dc79ccf9491dfdd0be8962,,,,,,,decisionTrl,resources/DP.BMP,resources/DB.BMP,Door3,0.250925912,-0.028703725,1,0,0,0.6989,optionRight,70,14645,7,10,0,10,0,1,,,,,,,,,,,,,,,,,,,,,,,,,,,,,,,,,,,,,,,
,,,,,,,,2023-08-16_08h36.55.064,HF_wild_card,2022.2.4,Win32,59.86948452,63d650bb391dd8bb01d022ef,64d2fd46c836a06233681665,64dc79ccf9491dfdd0be8962,,,,,,,decisionTrl,resources/DY.BMP,resources/DBN.BMP,Door1,-0.413888896,-0.037037037,1,0,0,0.5816,optionLeft,30,14675,7,11,0,11,0,1,,,,,,,,,,,,,,,,,,,,,,,,,,,,,,,,,,,,,,,
,,,,,,,,2023-08-16_08h36.55.064,HF_wild_card,2022.2.4,Win32,59.86948452,63d650bb391dd8bb01d022ef,64d2fd46c836a06233681665,64dc79ccf9491dfdd0be8962,,,,,,,decisionTrl,resources/DY.BMP,resources/DBN.BMP,Door1,-0.315740727,-0.027777778,1,0,0,0.7158,optionLeft,30,14705,7,12,0,12,0,1,,,,,,,,,,,,,,,,,,,,,,,,,,,,,,,,,,,,,,,
,,,,,,,,2023-08-16_08h36.55.064,HF_wild_card,2022.2.4,Win32,59.86948452,63d650bb391dd8bb01d022ef,64d2fd46c836a06233681665,64dc79ccf9491dfdd0be8962,,,,,,,ctch,resources/DBN.BMP,resources/DB.BMP,Door3,0.243518547,0.008333312,1,0,0,0.5153,optionRight,70,14775,7,13,0,13,0,1,,,,,,,,,,,,,,,,,,,,,,,,,,,,,,,,,,,,,,,
,,,,,,,,2023-08-16_08h36.55.064,HF_wild_card,2022.2.4,Win32,59.86948452,63d650bb391dd8bb01d022ef,64d2fd46c836a06233681665,64dc79ccf9491dfdd0be8962,,,,,,,decisionTrl,resources/DBN.BMP,resources/DY.BMP,Door1,0.378703788,0.061111097,1,0,0,0.7154,optionRight,30,14805,7,14,0,14,0,1,,,,,,,,,,,,,,,,,,,,,,,,,,,,,,,,,,,,,,,
,,,,,,,,2023-08-16_08h36.55.064,HF_wild_card,2022.2.4,Win32,59.86948452,63d650bb391dd8bb01d022ef,64d2fd46c836a06233681665,64dc79ccf9491dfdd0be8962,,,,,,,ctch,resources/DBN.BMP,resources/DB.BMP,Door3,0.261111153,-0.028703725,1,0,0,0.6325,optionRight,70,14875,7,15,0,15,0,1,,,,,,,,,,,,,,,,,,,,,,,,,,,,,,,,,,,,,,,
,,,,,,,,2023-08-16_08h36.55.064,HF_wild_card,2022.2.4,Win32,59.86948452,63d650bb391dd8bb01d022ef,64d2fd46c836a06233681665,64dc79ccf9491dfdd0be8962,,,,,,,ctch,resources/DP.BMP,resources/DY.BMP,Door4,-0.285185143,-0.062037044,1,0,0,0.6817,optionLeft,60,14935,7,16,0,16,0,1,,,,,,,,,,,,,,,,,,,,,,,,,,,,,,,,,,,,,,,
,,,,,,,,2023-08-16_08h36.55.064,HF_wild_card,2022.2.4,Win32,59.86948452,63d650bb391dd8bb01d022ef,64d2fd46c836a06233681665,64dc79ccf9491dfdd0be8962,,,,,,,decisionTrl,resources/DB.BMP,resources/DP.BMP,Door4,0.448148233,0.0074074,1,0,0,1.532,optionRight,80,15015,7,17,0,17,0,1,,,,,,,,,,,,,,,,,,,,,,,,,,,,,,,,,,,,,,,
,,,,,,,,2023-08-16_08h36.55.064,HF_wild_card,2022.2.4,Win32,59.86948452,63d650bb391dd8bb01d022ef,64d2fd46c836a06233681665,64dc79ccf9491dfdd0be8962,,,,,,,decisionTrl,resources/DP.BMP,resources/DB.BMP,Door4,-0.360185164,-0.030555548,1,0,0,0.849,optionLeft,60,15075,7,18,0,18,0,1,,,,,,,,,,,,,,,,,,,,,,,,,,,,,,,,,,,,,,,
,,,,,,,,2023-08-16_08h36.55.064,HF_wild_card,2022.2.4,Win32,59.86948452,63d650bb391dd8bb01d022ef,64d2fd46c836a06233681665,64dc79ccf9491dfdd0be8962,,,,,,,ctch,resources/DY.BMP,resources/DP.BMP,Door4,0.341666751,-0.051851873,1,0,0,0.5485,optionRight,60,15135,7,19,0,19,0,1,,,,,,,,,,,,,,,,,,,,,,,,,,,,,,,,,,,,,,,
,,,,,,,,2023-08-16_08h36.55.064,HF_wild_card,2022.2.4,Win32,59.86948452,63d650bb391dd8bb01d022ef,64d2fd46c836a06233681665,64dc79ccf9491dfdd0be8962,,,,,,,decisionTrl,resources/DP.BMP,resources/DB.BMP,Door3,0.270370413,-0.01203703,1,0,0,0.8154,optionRight,70,15205,7,20,0,20,0,1,,,,,,,,,,,,,,,,,,,,,,,,,,,,,,,,,,,,,,,
,,,,,,,,2023-08-16_08h36.55.064,HF_wild_card,2022.2.4,Win32,59.86948452,63d650bb391dd8bb01d022ef,64d2fd46c836a06233681665,64dc79ccf9491dfdd0be8962,,,,,,,decisionTrl,resources/DBN.BMP,resources/DY.BMP,Door1,0.204629616,-0.022222236,1,0,0,0.7323,optionRight,30,15235,7,21,0,21,0,1,,,,,,,,,,,,,,,,,,,,,,,,,,,,,,,,,,,,,,,
,,,,,,,,2023-08-16_08h36.55.064,HF_wild_card,2022.2.4,Win32,59.86948452,63d650bb391dd8bb01d022ef,64d2fd46c836a06233681665,64dc79ccf9491dfdd0be8962,,,,,,,decisionTrl,resources/DBN.BMP,resources/DY.BMP,Door1,0.252777806,-0.047222243,1,0,0,0.7157,optionRight,30,15265,7,22,0,22,0,1,,,,,,,,,,,,,,,,,,,,,,,,,,,,,,,,,,,,,,,
,,,,,,,,2023-08-16_08h36.55.064,HF_wild_card,2022.2.4,Win32,59.86948452,63d650bb391dd8bb01d022ef,64d2fd46c836a06233681665,64dc79ccf9491dfdd0be8962,,,,,,,decisionTrl,resources/DB.BMP,resources/DP.BMP,Door4,0.539814843,-0.025000007,1,0,0,1.0324,optionRight,60,15325,7,23,0,23,0,1,,,,,,,,,,,,,,,,,,,,,,,,,,,,,,,,,,,,,,,
,,,,,,,,2023-08-16_08h36.55.064,HF_wild_card,2022.2.4,Win32,59.86948452,63d650bb391dd8bb01d022ef,64d2fd46c836a06233681665,64dc79ccf9491dfdd0be8962,,,,,,,ctch,resources/DP.BMP,resources/DY.BMP,Door4,-0.303703697,-0.041666667,1,0,0,0.4819,optionLeft,80,15405,7,24,0,24,0,1,,,,,,,,,,,,,,,,,,,,,,,,,,,,,,,,,,,,,,,
,,,,,,,,2023-08-16_08h36.55.064,HF_wild_card,2022.2.4,Win32,59.86948452,63d650bb391dd8bb01d022ef,64d2fd46c836a06233681665,64dc79ccf9491dfdd0be8962,,,,,,,decisionTrl,resources/DP.BMP,resources/DB.BMP,Door3,0.239814829,-0.049074067,1,0,0,0.9318,optionRight,70,15475,7,25,0,25,0,1,,,,,,,,,,,,,,,,,,,,,,,,,,,,,,,,,,,,,,,
,,,,,,,,2023-08-16_08h36.55.064,HF_wild_card,2022.2.4,Win32,59.86948452,63d650bb391dd8bb01d022ef,64d2fd46c836a06233681665,64dc79ccf9491dfdd0be8962,,,,,,,decisionTrl,resources/DB.BMP,resources/DP.BMP,Door4,0.237963005,-0.049074067,1,0,0,1.1995,optionRight,80,15555,7,26,0,26,0,1,,,,,,,,,,,,,,,,,,,,,,,,,,,,,,,,,,,,,,,
,,,,,,,,2023-08-16_08h36.55.064,HF_wild_card,2022.2.4,Win32,59.86948452,63d650bb391dd8bb01d022ef,64d2fd46c836a06233681665,64dc79ccf9491dfdd0be8962,,,,,,,ctch,resources/DB.BMP,resources/DBN.BMP,Door3,-0.316666674,-0.0074074,1,0,0,0.5657,optionLeft,70,15625,7,27,0,27,0,1,,,,,,,,,,,,,,,,,,,,,,,,,,,,,,,,,,,,,,,
,,,,,,,,2023-08-16_08h36.55.064,HF_wild_card,2022.2.4,Win32,59.86948452,63d650bb391dd8bb01d022ef,64d2fd46c836a06233681665,64dc79ccf9491dfdd0be8962,,,,,,,decisionTrl,resources/DY.BMP,resources/DBN.BMP,Door2,0.207407422,-0.005555577,1,0,0,0.7492,optionRight,20,15645,7,28,0,28,0,1,,,,,,,,,,,,,,,,,,,,,,,,,,,,,,,,,,,,,,,
,,,,,,,,2023-08-16_08h36.55.064,HF_wild_card,2022.2.4,Win32,59.86948452,63d650bb391dd8bb01d022ef,64d2fd46c836a06233681665,64dc79ccf9491dfdd0be8962,,,,,,,decisionTrl,resources/DB.BMP,resources/DP.BMP,Door4,0.291666667,-0.013888889,1,0,0,0.8154,optionRight,80,15725,7,29,0,29,0,1,,,,,,,,,,,,,,,,,,,,,,,,,,,,,,,,,,,,,,,
,,,,,,,,2023-08-16_08h36.55.064,HF_wild_card,2022.2.4,Win32,59.86948452,63d650bb391dd8bb01d022ef,64d2fd46c836a06233681665,64dc79ccf9491dfdd0be8962,,,,,,,decisionTrl,resources/DY.BMP,resources/DBN.BMP,Door1,-0.510185171,-0.002777771,1,0,0,0.9651,optionLeft,30,15755,7,30,0,30,0,1,,,,,,,,,,,,,,,,,,,,,,,,,,,,,,,,,,,,,,,
,,,,,,,,2023-08-16_08h36.55.064,HF_wild_card,2022.2.4,Win32,59.86948452,63d650bb391dd8bb01d022ef,64d2fd46c836a06233681665,64dc79ccf9491dfdd0be8962,,,,,,,ctch,resources/DB.BMP,resources/DBN.BMP,Door3,-0.297222208,-0.036111125,1,0,0,0.6994,optionLeft,70,15825,7,31,0,31,0,1,,,,,,,,,,,,,,,,,,,,,,,,,,,,,,,,,,,,,,,
,,,,,,,,2023-08-16_08h36.55.064,HF_wild_card,2022.2.4,Win32,59.86948452,63d650bb391dd8bb01d022ef,64d2fd46c836a06233681665,64dc79ccf9491dfdd0be8962,,,,,,,decisionTrl,resources/DP.BMP,resources/DB.BMP,Door3,0.313888974,-0.012962977,1,0,0,1.1485,optionRight,70,15895,7,32,0,32,0,1,,,,,,,,,,,,,,,,,,,,,,,,,,,,,,,,,,,,,,,
,,,,,,,,2023-08-16_08h36.55.064,HF_wild_card,2022.2.4,Win32,59.86948452,63d650bb391dd8bb01d022ef,64d2fd46c836a06233681665,64dc79ccf9491dfdd0be8962,,,,,,,ctch,resources/DBN.BMP,resources/DB.BMP,Door3,0.301851908,-0.013888889,1,0,0,1.0982,optionRight,70,15965,7,33,0,33,0,1,,,,,,,,,,,,,,,,,,,,,,,,,,,,,,,,,,,,,,,
,,,,,,,,2023-08-16_08h36.55.064,HF_wild_card,2022.2.4,Win32,59.86948452,63d650bb391dd8bb01d022ef,64d2fd46c836a06233681665,64dc79ccf9491dfdd0be8962,,,,,,,decisionTrl,resources/DP.BMP,resources/DB.BMP,Door3,0.306481538,-0.01203703,1,0,0,1.4974,optionRight,70,16035,7,34,0,34,0,1,,,,,,,,,,,,,,,,,,,,,,,,,,,,,,,,,,,,,,,
,,,,,,,,2023-08-16_08h36.55.064,HF_wild_card,2022.2.4,Win32,59.86948452,63d650bb391dd8bb01d022ef,64d2fd46c836a06233681665,64dc79ccf9491dfdd0be8962,,,,,,,ctch,resources/DB.BMP,resources/DBN.BMP,Door3,-0.35833334,-0.000925947,1,0,0,0.6326,optionLeft,70,16105,7,35,0,35,0,1,,,,,,,,,,,,,,,,,,,,,,,,,,,,,,,,,,,,,,,
,,,,,,,,2023-08-16_08h36.55.064,HF_wild_card,2022.2.4,Win32,59.86948452,63d650bb391dd8bb01d022ef,64d2fd46c836a06233681665,64dc79ccf9491dfdd0be8962,,,,,,,,,,,,,,,,,,,,,,,,,,6,0,6,0,1,,,,,,,,,,,,,,,,,,,,,,,,,,,,,,,,,,
,,,,,,,,2023-08-16_08h36.55.064,HF_wild_card,2022.2.4,Win32,59.86948452,63d650bb391dd8bb01d022ef,64d2fd46c836a06233681665,64dc79ccf9491dfdd0be8962,,,,,,,,,,,,,,,,,,,,,,,,,,,,,,,4,,,,,,,,,,,,,,,,,,,,,,,,,,,,,,,,,
,,,,,,,,2023-08-16_08h36.55.064,HF_wild_card,2022.2.4,Win32,59.86948452,63d650bb391dd8bb01d022ef,64d2fd46c836a06233681665,64dc79ccf9491dfdd0be8962,,,,,,,,,,,,,,,,,,,,,,,,,,,,,,,,,,,,,,,,,,,,,,,,,,,,,,,,,,,,,,,,
,,,,,,,,2023-08-16_08h36.55.064,HF_wild_card,2022.2.4,Win32,59.86948452,63d650bb391dd8bb01d022ef,64d2fd46c836a06233681665,64dc79ccf9491dfdd0be8962,,,,,,,,,,,,,,,,,,,,,,,,,,,,,,,,20,Door2,resources/DBN.BMP,0,0,0,0,1,,,,,,,,,,,,,,,,,,,,,,,,,
,,,,,,,,2023-08-16_08h36.55.064,HF_wild_card,2022.2.4,Win32,59.86948452,63d650bb391dd8bb01d022ef,64d2fd46c836a06233681665,64dc79ccf9491dfdd0be8962,,,,,,,,,,,,,,,,,,,,,,,,,,,,,,,,30,WC_extreme,resources/DG.BMP,1,0,1,0,1,,,,,,,,,,,,,,,,,,,,,,,,,
,,,,,,,,2023-08-16_08h36.55.064,HF_wild_card,2022.2.4,Win32,59.86948452,63d650bb391dd8bb01d022ef,64d2fd46c836a06233681665,64dc79ccf9491dfdd0be8962,,,,,,,,,,,,,,,,,,,,,,,,,,,,,,,,80,Door4,resources/DP.BMP,2,0,2,0,1,,,,,,,,,,,,,,,,,,,,,,,,,
,,,,,,,,2023-08-16_08h36.55.064,HF_wild_card,2022.2.4,Win32,59.86948452,63d650bb391dd8bb01d022ef,64d2fd46c836a06233681665,64dc79ccf9491dfdd0be8962,,,,,,,,,,,,,,,,,,,,,,,,,,,,,,,,70,Door3,resources/DB.BMP,3,0,3,0,1,,,,,,,,,,,,,,,,,,,,,,,,,
,,,,,,,,2023-08-16_08h36.55.064,HF_wild_card,2022.2.4,Win32,59.86948452,63d650bb391dd8bb01d022ef,64d2fd46c836a06233681665,64dc79ccf9491dfdd0be8962,,,,,,,,,,,,,,,,,,,,,,,,,,,,,,,,30,Door1,resources/DY.BMP,4,0,4,0,1,,,,,,,,,,,,,,,,,,,,,,,,,
,,,,,,,,2023-08-16_08h36.55.064,HF_wild_card,2022.2.4,Win32,59.86948452,63d650bb391dd8bb01d022ef,64d2fd46c836a06233681665,64dc79ccf9491dfdd0be8962,,,,,,,,,,,,,,,,,,,,,,,,,,,,,,,,45,WC_nonExtreme,resources/DR.BMP,5,0,5,0,1,,,,,,,,,,,,,,,,,,,,,,,,,
