Condition,Low fixed image (Door1),Low risky image (Door2),High fixed image (Door3),High risky image (Door4),Extreme Wild Card,NonExtreme Wild Card,,date,expName,psychopyVersion,OS,frameRate,PROLIFIC_PID,STUDY_ID,SESSION_ID,mouse_2.x,mouse_2.y,mouse_2.leftButton,mouse_2.midButton,mouse_2.rightButton,mouse_2.clicked_name,Trial Type,Left Option Image,Right Option Image,Chosen Door,mouse.x,mouse.y,mouse.leftButton,mouse.midButton,mouse.rightButton,mouse.time,mouse.clicked_name,Feedback,Cumulative Reward,Block,trial.thisRepN,trial.thisTrialN,trial.thisN,trial.thisIndex,trial.ran,blocks.thisRepN,blocks.thisTrialN,blocks.thisN,blocks.thisIndex,blocks.ran,Money conversion,First Outcome Reported,Shown Door (First Outcome),Displayed Image (First Outcome),outcomes.thisRepN,outcomes.thisTrialN,outcomes.thisN,outcomes.thisIndex,outcomes.ran,judgments.thisRepN,judgments.thisTrialN,judgments.thisN,judgments.thisIndex,judgments.ran,freqMouse.x,freqMouse.y,freqMouse.leftButton,freqMouse.midButton,freqMouse.rightButton,freqMouse.clicked_name,FQJ for first outcome,FQJ for second outcome,Shown Door,Displayed Image,trials.thisRepN,trials.thisTrialN,trials.thisN,trials.thisIndex,trials.ran,judgBlock.thisRepN,judgBlock.thisTrialN,judgBlock.thisN,judgBlock.thisIndex,judgBlock.ran
1,resources/DBN.BMP,resources/DG.BMP,resources/DY.BMP,resources/DR.BMP,resources/DP.BMP,resources/DB.BMP,,2023-08-16_08h44.35.569,HF_wild_card,2022.2.4,MacIntel,60.0024001,5ec6e7ee42084e12736ac8d6,64d2fd46c836a06233681665,64dc7e53fbb02c379c4e5772,,,,,,,,,,,,,,,,,,,,,,,,,,,,,,,,,,,,,,,,,,,,,,,,,,,,,,,,,,,,,,,,
,,,,,,,,2023-08-16_08h44.35.569,HF_wild_card,2022.2.4,MacIntel,60.0024001,5ec6e7ee42084e12736ac8d6,64d2fd46c836a06233681665,64dc7e53fbb02c379c4e5772,0.012348633,-0.429790039,1,0,0,agree,,,,,,,,,,,,,,,,,,,,,,,,,,,,,,,,,,,,,,,,,,,,,,,,,,,,,,,,,,
,,,,,,,,2023-08-16_08h44.35.569,HF_wild_card,2022.2.4,MacIntel,60.0024001,5ec6e7ee42084e12736ac8d6,64d2fd46c836a06233681665,64dc7e53fbb02c379c4e5772,,,,,,,,,,,,,,,,,,,,,,,,,,,,,,,,,,,,,,,,,,,,,,,,,,,,,,,,,,,,,,,,
,,,,,,,,2023-08-16_08h44.35.569,HF_wild_card,2022.2.4,MacIntel,60.0024001,5ec6e7ee42084e12736ac8d6,64d2fd46c836a06233681665,64dc7e53fbb02c379c4e5772,,,,,,,decisionTrl,resources/DR.BMP,resources/DY.BMP,Door4,-0.299150391,-0.133115234,1,0,0,1.7059,optionLeft,60,60,1,0,0,0,0,1,,,,,,,,,,,,,,,,,,,,,,,,,,,,,,,,,,,,,,,
,,,,,,,,2023-08-16_08h44.35.569,HF_wild_card,2022.2.4,MacIntel,60.0024001,5ec6e7ee42084e12736ac8d6,64d2fd46c836a06233681665,64dc7e53fbb02c379c4e5772,,,,,,,ctch,resources/DBN.BMP,resources/DR.BMP,Door4,0.355947266,-0.001157227,1,0,0,1.1136,optionRight,80,140,1,1,0,1,0,1,,,,,,,,,,,,,,,,,,,,,,,,,,,,,,,,,,,,,,,
,,,,,,,,2023-08-16_08h44.35.569,HF_wild_card,2022.2.4,MacIntel,60.0024001,5ec6e7ee42084e12736ac8d6,64d2fd46c836a06233681665,64dc7e53fbb02c379c4e5772,,,,,,,sngl,resources/Empty.png,resources/DG.BMP,Door2,0.24449707,0.010322266,1,0,0,0.9671,optionRight,20,160,1,2,0,2,0,1,,,,,,,,,,,,,,,,,,,,,,,,,,,,,,,,,,,,,,,
,,,,,,,,2023-08-16_08h44.35.569,HF_wild_card,2022.2.4,MacIntel,60.0024001,5ec6e7ee42084e12736ac8d6,64d2fd46c836a06233681665,64dc7e53fbb02c379c4e5772,,,,,,,sngl,resources/DG.BMP,resources/Empty.png,Door2,-0.262553711,0.002280273,1,0,0,0.896,optionLeft,40,200,1,3,0,3,0,1,,,,,,,,,,,,,,,,,,,,,,,,,,,,,,,,,,,,,,,
,,,,,,,,2023-08-16_08h44.35.569,HF_wild_card,2022.2.4,MacIntel,60.0024001,5ec6e7ee42084e12736ac8d6,64d2fd46c836a06233681665,64dc7e53fbb02c379c4e5772,,,,,,,decisionTrl,resources/DG.BMP,resources/DBN.BMP,Door2,-0.253461914,-0.011010742,1,0,0,1.0798,optionLeft,40,240,1,4,0,4,0,1,,,,,,,,,,,,,,,,,,,,,,,,,,,,,,,,,,,,,,,
,,,,,,,,2023-08-16_08h44.35.569,HF_wild_card,2022.2.4,MacIntel,60.0024001,5ec6e7ee42084e12736ac8d6,64d2fd46c836a06233681665,64dc7e53fbb02c379c4e5772,,,,,,,decisionTrl,resources/DG.BMP,resources/DB.BMP,WildCard_NonEx,0.349428711,-0.03097168,1,0,0,0.9802,optionRight,45,285,1,5,0,5,0,1,,,,,,,,,,,,,,,,,,,,,,,,,,,,,,,,,,,,,,,
,,,,,,,,2023-08-16_08h44.35.569,HF_wild_card,2022.2.4,MacIntel,60.0024001,5ec6e7ee42084e12736ac8d6,64d2fd46c836a06233681665,64dc7e53fbb02c379c4e5772,,,,,,,decisionTrl,resources/DBN.BMP,resources/DB.BMP,WildCard_NonEx,0.226333008,0.021679687,1,0,0,1.352,optionRight,55,340,1,6,0,6,0,1,,,,,,,,,,,,,,,,,,,,,,,,,,,,,,,,,,,,,,,
,,,,,,,,2023-08-16_08h44.35.569,HF_wild_card,2022.2.4,MacIntel,60.0024001,5ec6e7ee42084e12736ac8d6,64d2fd46c836a06233681665,64dc7e53fbb02c379c4e5772,,,,,,,decisionTrl,resources/DR.BMP,resources/DY.BMP,Door3,0.323500977,0.004682617,1,0,0,0.6653,optionRight,70,410,1,7,0,7,0,1,,,,,,,,,,,,,,,,,,,,,,,,,,,,,,,,,,,,,,,
,,,,,,,,2023-08-16_08h44.35.569,HF_wild_card,2022.2.4,MacIntel,60.0024001,5ec6e7ee42084e12736ac8d6,64d2fd46c836a06233681665,64dc7e53fbb02c379c4e5772,,,,,,,ctch,resources/DBN.BMP,resources/DR.BMP,Door4,0.343964844,-0.009204102,1,0,0,0.581,optionRight,60,470,1,8,0,8,0,1,,,,,,,,,,,,,,,,,,,,,,,,,,,,,,,,,,,,,,,
,,,,,,,,2023-08-16_08h44.35.569,HF_wild_card,2022.2.4,MacIntel,60.0024001,5ec6e7ee42084e12736ac8d6,64d2fd46c836a06233681665,64dc7e53fbb02c379c4e5772,,,,,,,sngl,resources/Empty.png,resources/DB.BMP,WildCard_NonEx,0.339570313,0.01043457,1,0,0,0.5463,optionRight,45,515,1,9,0,9,0,1,,,,,,,,,,,,,,,,,,,,,,,,,,,,,,,,,,,,,,,
,,,,,,,,2023-08-16_08h44.35.569,HF_wild_card,2022.2.4,MacIntel,60.0024001,5ec6e7ee42084e12736ac8d6,64d2fd46c836a06233681665,64dc7e53fbb02c379c4e5772,,,,,,,sngl,resources/DBN.BMP,resources/Empty.png,Door1,-0.275893555,-0.001123047,1,0,0,0.7155,optionLeft,30,545,1,10,0,10,0,1,,,,,,,,,,,,,,,,,,,,,,,,,,,,,,,,,,,,,,,
,,,,,,,,2023-08-16_08h44.35.569,HF_wild_card,2022.2.4,MacIntel,60.0024001,5ec6e7ee42084e12736ac8d6,64d2fd46c836a06233681665,64dc7e53fbb02c379c4e5772,,,,,,,ctch,resources/DY.BMP,resources/DG.BMP,Door2,0.300014648,0.003862305,1,0,0,0.8807,optionRight,20,565,1,11,0,11,0,1,,,,,,,,,,,,,,,,,,,,,,,,,,,,,,,,,,,,,,,
,,,,,,,,2023-08-16_08h44.35.569,HF_wild_card,2022.2.4,MacIntel,60.0024001,5ec6e7ee42084e12736ac8d6,64d2fd46c836a06233681665,64dc7e53fbb02c379c4e5772,,,,,,,decisionTrl,resources/DY.BMP,resources/DR.BMP,Door3,-0.388681641,-0.004887695,1,0,0,0.5164,optionLeft,70,635,1,12,0,12,0,1,,,,,,,,,,,,,,,,,,,,,,,,,,,,,,,,,,,,,,,
,,,,,,,,2023-08-16_08h44.35.569,HF_wild_card,2022.2.4,MacIntel,60.0024001,5ec6e7ee42084e12736ac8d6,64d2fd46c836a06233681665,64dc7e53fbb02c379c4e5772,,,,,,,sngl,resources/Empty.png,resources/DY.BMP,Door3,0.299072266,-0.032138672,1,0,0,0.8487,optionRight,70,705,1,13,0,13,0,1,,,,,,,,,,,,,,,,,,,,,,,,,,,,,,,,,,,,,,,
,,,,,,,,2023-08-16_08h44.35.569,HF_wild_card,2022.2.4,MacIntel,60.0024001,5ec6e7ee42084e12736ac8d6,64d2fd46c836a06233681665,64dc7e53fbb02c379c4e5772,,,,,,,decisionTrl,resources/DBN.BMP,resources/DG.BMP,Door2,0.275429688,0.004726562,1,0,0,0.6488,optionRight,40,745,1,14,0,14,0,1,,,,,,,,,,,,,,,,,,,,,,,,,,,,,,,,,,,,,,,
,,,,,,,,2023-08-16_08h44.35.569,HF_wild_card,2022.2.4,MacIntel,60.0024001,5ec6e7ee42084e12736ac8d6,64d2fd46c836a06233681665,64dc7e53fbb02c379c4e5772,,,,,,,decisionTrl,resources/DR.BMP,resources/DY.BMP,Door3,0.500234375,-0.055913086,1,0,0,0.5481,optionRight,70,815,1,15,0,15,0,1,,,,,,,,,,,,,,,,,,,,,,,,,,,,,,,,,,,,,,,
,,,,,,,,2023-08-16_08h44.35.569,HF_wild_card,2022.2.4,MacIntel,60.0024001,5ec6e7ee42084e12736ac8d6,64d2fd46c836a06233681665,64dc7e53fbb02c379c4e5772,,,,,,,decisionTrl,resources/DBN.BMP,resources/DG.BMP,Door2,0.356826172,0.031938477,1,0,0,0.614,optionRight,20,835,1,16,0,16,0,1,,,,,,,,,,,,,,,,,,,,,,,,,,,,,,,,,,,,,,,
,,,,,,,,2023-08-16_08h44.35.569,HF_wild_card,2022.2.4,MacIntel,60.0024001,5ec6e7ee42084e12736ac8d6,64d2fd46c836a06233681665,64dc7e53fbb02c379c4e5772,,,,,,,sngl,resources/Empty.png,resources/DR.BMP,Door4,0.285083008,0.031264648,1,0,0,0.4956,optionRight,60,895,1,17,0,17,0,1,,,,,,,,,,,,,,,,,,,,,,,,,,,,,,,,,,,,,,,
,,,,,,,,2023-08-16_08h44.35.569,HF_wild_card,2022.2.4,MacIntel,60.0024001,5ec6e7ee42084e12736ac8d6,64d2fd46c836a06233681665,64dc7e53fbb02c379c4e5772,,,,,,,decisionTrl,resources/DB.BMP,resources/DBN.BMP,Door1,0.291889648,0.051948242,1,0,0,0.4993,optionRight,30,925,1,18,0,18,0,1,,,,,,,,,,,,,,,,,,,,,,,,,,,,,,,,,,,,,,,
,,,,,,,,2023-08-16_08h44.35.569,HF_wild_card,2022.2.4,MacIntel,60.0024001,5ec6e7ee42084e12736ac8d6,64d2fd46c836a06233681665,64dc7e53fbb02c379c4e5772,,,,,,,ctch,resources/DR.BMP,resources/DBN.BMP,Door4,-0.357285156,0.00668457,1,0,0,0.4653,optionLeft,60,985,1,19,0,19,0,1,,,,,,,,,,,,,,,,,,,,,,,,,,,,,,,,,,,,,,,
,,,,,,,,2023-08-16_08h44.35.569,HF_wild_card,2022.2.4,MacIntel,60.0024001,5ec6e7ee42084e12736ac8d6,64d2fd46c836a06233681665,64dc7e53fbb02c379c4e5772,,,,,,,decisionTrl,resources/DBN.BMP,resources/DG.BMP,Door1,-0.245810547,-0.012880859,1,0,0,0.6152,optionLeft,30,1015,1,20,0,20,0,1,,,,,,,,,,,,,,,,,,,,,,,,,,,,,,,,,,,,,,,
,,,,,,,,2023-08-16_08h44.35.569,HF_wild_card,2022.2.4,MacIntel,60.0024001,5ec6e7ee42084e12736ac8d6,64d2fd46c836a06233681665,64dc7e53fbb02c379c4e5772,,,,,,,decisionTrl,resources/DBN.BMP,resources/DG.BMP,Door2,0.214936523,-0.014033203,1,0,0,0.5481,optionRight,40,1055,1,21,0,21,0,1,,,,,,,,,,,,,,,,,,,,,,,,,,,,,,,,,,,,,,,
,,,,,,,,2023-08-16_08h44.35.569,HF_wild_card,2022.2.4,MacIntel,60.0024001,5ec6e7ee42084e12736ac8d6,64d2fd46c836a06233681665,64dc7e53fbb02c379c4e5772,,,,,,,sngl,resources/DR.BMP,resources/Empty.png,Door4,-0.325498047,0.031005859,1,0,0,0.5997,optionLeft,80,1135,1,22,0,22,0,1,,,,,,,,,,,,,,,,,,,,,,,,,,,,,,,,,,,,,,,
,,,,,,,,2023-08-16_08h44.35.569,HF_wild_card,2022.2.4,MacIntel,60.0024001,5ec6e7ee42084e12736ac8d6,64d2fd46c836a06233681665,64dc7e53fbb02c379c4e5772,,,,,,,decisionTrl,resources/DY.BMP,resources/DR.BMP,Door3,-0.468198242,0.028583984,1,0,0,0.4992,optionLeft,70,1205,1,23,0,23,0,1,,,,,,,,,,,,,,,,,,,,,,,,,,,,,,,,,,,,,,,
,,,,,,,,2023-08-16_08h44.35.569,HF_wild_card,2022.2.4,MacIntel,60.0024001,5ec6e7ee42084e12736ac8d6,64d2fd46c836a06233681665,64dc7e53fbb02c379c4e5772,,,,,,,ctch,resources/DG.BMP,resources/DY.BMP,Door2,-0.35515625,0.031982422,1,0,0,0.4992,optionLeft,40,1245,1,24,0,24,0,1,,,,,,,,,,,,,,,,,,,,,,,,,,,,,,,,,,,,,,,
,,,,,,,,2023-08-16_08h44.35.569,HF_wild_card,2022.2.4,MacIntel,60.0024001,5ec6e7ee42084e12736ac8d6,64d2fd46c836a06233681665,64dc7e53fbb02c379c4e5772,,,,,,,decisionTrl,resources/DG.BMP,resources/DBN.BMP,Door2,-0.335947266,-0.003227539,1,0,0,0.5481,optionLeft,20,1265,1,25,0,25,0,1,,,,,,,,,,,,,,,,,,,,,,,,,,,,,,,,,,,,,,,
,,,,,,,,2023-08-16_08h44.35.569,HF_wild_card,2022.2.4,MacIntel,60.0024001,5ec6e7ee42084e12736ac8d6,64d2fd46c836a06233681665,64dc7e53fbb02c379c4e5772,,,,,,,sngl,resources/DB.BMP,resources/Empty.png,WildCard_NonEx,-0.186689453,-0.009887695,1,0,0,0.6522,optionLeft,45,1310,1,26,0,26,0,1,,,,,,,,,,,,,,,,,,,,,,,,,,,,,,,,,,,,,,,
,,,,,,,,2023-08-16_08h44.35.569,HF_wild_card,2022.2.4,MacIntel,60.0024001,5ec6e7ee42084e12736ac8d6,64d2fd46c836a06233681665,64dc7e53fbb02c379c4e5772,,,,,,,decisionTrl,resources/DG.BMP,resources/DBN.BMP,Door2,-0.32125,-0.012319336,1,0,0,0.6644,optionLeft,20,1330,1,27,0,27,0,1,,,,,,,,,,,,,,,,,,,,,,,,,,,,,,,,,,,,,,,
,,,,,,,,2023-08-16_08h44.35.569,HF_wild_card,2022.2.4,MacIntel,60.0024001,5ec6e7ee42084e12736ac8d6,64d2fd46c836a06233681665,64dc7e53fbb02c379c4e5772,,,,,,,decisionTrl,resources/DB.BMP,resources/DR.BMP,Door4,0.337646484,-0.015332031,1,0,0,0.5988,optionRight,80,1410,1,28,0,28,0,1,,,,,,,,,,,,,,,,,,,,,,,,,,,,,,,,,,,,,,,
,,,,,,,,2023-08-16_08h44.35.569,HF_wild_card,2022.2.4,MacIntel,60.0024001,5ec6e7ee42084e12736ac8d6,64d2fd46c836a06233681665,64dc7e53fbb02c379c4e5772,,,,,,,decisionTrl,resources/DR.BMP,resources/DB.BMP,WildCard_NonEx,0.185878906,0.001240234,1,0,0,0.5818,optionRight,45,1455,1,29,0,29,0,1,,,,,,,,,,,,,,,,,,,,,,,,,,,,,,,,,,,,,,,
,,,,,,,,2023-08-16_08h44.35.569,HF_wild_card,2022.2.4,MacIntel,60.0024001,5ec6e7ee42084e12736ac8d6,64d2fd46c836a06233681665,64dc7e53fbb02c379c4e5772,,,,,,,decisionTrl,resources/DY.BMP,resources/DR.BMP,Door3,-0.321333008,-0.005131836,1,0,0,0.6166,optionLeft,70,1525,1,30,0,30,0,1,,,,,,,,,,,,,,,,,,,,,,,,,,,,,,,,,,,,,,,
,,,,,,,,2023-08-16_08h44.35.569,HF_wild_card,2022.2.4,MacIntel,60.0024001,5ec6e7ee42084e12736ac8d6,64d2fd46c836a06233681665,64dc7e53fbb02c379c4e5772,,,,,,,decisionTrl,resources/DY.BMP,resources/DR.BMP,Door3,-0.377172852,0.001621094,1,0,0,0.6006,optionLeft,70,1595,1,31,0,31,0,1,,,,,,,,,,,,,,,,,,,,,,,,,,,,,,,,,,,,,,,
,,,,,,,,2023-08-16_08h44.35.569,HF_wild_card,2022.2.4,MacIntel,60.0024001,5ec6e7ee42084e12736ac8d6,64d2fd46c836a06233681665,64dc7e53fbb02c379c4e5772,,,,,,,decisionTrl,resources/DB.BMP,resources/DG.BMP,WildCard_NonEx,-0.38496582,0.051293945,1,0,0,0.4983,optionLeft,55,1650,1,32,0,32,0,1,,,,,,,,,,,,,,,,,,,,,,,,,,,,,,,,,,,,,,,
,,,,,,,,2023-08-16_08h44.35.569,HF_wild_card,2022.2.4,MacIntel,60.0024001,5ec6e7ee42084e12736ac8d6,64d2fd46c836a06233681665,64dc7e53fbb02c379c4e5772,,,,,,,decisionTrl,resources/DY.BMP,resources/DB.BMP,Door3,-0.356787109,0.034287109,1,0,0,0.4826,optionLeft,70,1720,1,33,0,33,0,1,,,,,,,,,,,,,,,,,,,,,,,,,,,,,,,,,,,,,,,
,,,,,,,,2023-08-16_08h44.35.569,HF_wild_card,2022.2.4,MacIntel,60.0024001,5ec6e7ee42084e12736ac8d6,64d2fd46c836a06233681665,64dc7e53fbb02c379c4e5772,,,,,,,sngl,resources/Empty.png,resources/DB.BMP,WildCard_NonEx,0.367695312,0.012749023,1,0,0,1.0494,optionRight,55,1775,1,34,0,34,0,1,,,,,,,,,,,,,,,,,,,,,,,,,,,,,,,,,,,,,,,
,,,,,,,,2023-08-16_08h44.35.569,HF_wild_card,2022.2.4,MacIntel,60.0024001,5ec6e7ee42084e12736ac8d6,64d2fd46c836a06233681665,64dc7e53fbb02c379c4e5772,,,,,,,ctch,resources/DR.BMP,resources/DBN.BMP,Door4,-0.394443359,0.012480469,1,0,0,0.5987,optionLeft,80,1855,1,35,0,35,0,1,,,,,,,,,,,,,,,,,,,,,,,,,,,,,,,,,,,,,,,
,,,,,,,,2023-08-16_08h44.35.569,HF_wild_card,2022.2.4,MacIntel,60.0024001,5ec6e7ee42084e12736ac8d6,64d2fd46c836a06233681665,64dc7e53fbb02c379c4e5772,,,,,,,sngl,resources/DY.BMP,resources/Empty.png,Door3,-0.287626953,-0.000234375,1,0,0,0.907,optionLeft,70,1925,1,36,0,36,0,1,,,,,,,,,,,,,,,,,,,,,,,,,,,,,,,,,,,,,,,
,,,,,,,,2023-08-16_08h44.35.569,HF_wild_card,2022.2.4,MacIntel,60.0024001,5ec6e7ee42084e12736ac8d6,64d2fd46c836a06233681665,64dc7e53fbb02c379c4e5772,,,,,,,decisionTrl,resources/DB.BMP,resources/DY.BMP,WildCard_NonEx,-0.428935547,0.023666992,1,0,0,0.4685,optionLeft,55,1980,1,37,0,37,0,1,,,,,,,,,,,,,,,,,,,,,,,,,,,,,,,,,,,,,,,
,,,,,,,,2023-08-16_08h44.35.569,HF_wild_card,2022.2.4,MacIntel,60.0024001,5ec6e7ee42084e12736ac8d6,64d2fd46c836a06233681665,64dc7e53fbb02c379c4e5772,,,,,,,decisionTrl,resources/DG.BMP,resources/DBN.BMP,Door2,-0.282524414,0.002138672,1,0,0,0.6303,optionLeft,40,2020,1,38,0,38,0,1,,,,,,,,,,,,,,,,,,,,,,,,,,,,,,,,,,,,,,,
,,,,,,,,2023-08-16_08h44.35.569,HF_wild_card,2022.2.4,MacIntel,60.0024001,5ec6e7ee42084e12736ac8d6,64d2fd46c836a06233681665,64dc7e53fbb02c379c4e5772,,,,,,,ctch,resources/DY.BMP,resources/DG.BMP,Door3,-0.379897461,-0.008603516,1,0,0,0.4808,optionLeft,70,2090,1,39,0,39,0,1,,,,,,,,,,,,,,,,,,,,,,,,,,,,,,,,,,,,,,,
,,,,,,,,2023-08-16_08h44.35.569,HF_wild_card,2022.2.4,MacIntel,60.0024001,5ec6e7ee42084e12736ac8d6,64d2fd46c836a06233681665,64dc7e53fbb02c379c4e5772,,,,,,,ctch,resources/DG.BMP,resources/DY.BMP,Door2,-0.301157227,0.024838867,1,0,0,1.3817,optionLeft,20,2110,1,40,0,40,0,1,,,,,,,,,,,,,,,,,,,,,,,,,,,,,,,,,,,,,,,
,,,,,,,,2023-08-16_08h44.35.569,HF_wild_card,2022.2.4,MacIntel,60.0024001,5ec6e7ee42084e12736ac8d6,64d2fd46c836a06233681665,64dc7e53fbb02c379c4e5772,,,,,,,decisionTrl,resources/DR.BMP,resources/DY.BMP,Door3,0.30980957,0.000322266,1,0,0,0.5673,optionRight,70,2180,1,41,0,41,0,1,,,,,,,,,,,,,,,,,,,,,,,,,,,,,,,,,,,,,,,
,,,,,,,,2023-08-16_08h44.35.569,HF_wild_card,2022.2.4,MacIntel,60.0024001,5ec6e7ee42084e12736ac8d6,64d2fd46c836a06233681665,64dc7e53fbb02c379c4e5772,,,,,,,sngl,resources/Empty.png,resources/DBN.BMP,Door1,0.315878906,0.007768555,1,0,0,0.599,optionRight,30,2210,1,42,0,42,0,1,,,,,,,,,,,,,,,,,,,,,,,,,,,,,,,,,,,,,,,
,,,,,,,,2023-08-16_08h44.35.569,HF_wild_card,2022.2.4,MacIntel,60.0024001,5ec6e7ee42084e12736ac8d6,64d2fd46c836a06233681665,64dc7e53fbb02c379c4e5772,,,,,,,sngl,resources/DB.BMP,resources/Empty.png,WildCard_NonEx,-0.278256836,0.005683594,1,0,0,0.5804,optionLeft,55,2265,1,43,0,43,0,1,,,,,,,,,,,,,,,,,,,,,,,,,,,,,,,,,,,,,,,
,,,,,,,,2023-08-16_08h44.35.569,HF_wild_card,2022.2.4,MacIntel,60.0024001,5ec6e7ee42084e12736ac8d6,64d2fd46c836a06233681665,64dc7e53fbb02c379c4e5772,,,,,,,,,,,,,,,,,,,,,,,,,,0,0,0,0,1,,,,,,,,,,,,,,,,,,,,,,,,,,,,,,,,,,
,,,,,,,,2023-08-16_08h44.35.569,HF_wild_card,2022.2.4,MacIntel,60.0024001,5ec6e7ee42084e12736ac8d6,64d2fd46c836a06233681665,64dc7e53fbb02c379c4e5772,,,,,,,decisionTrl,resources/DBN.BMP,resources/DG.BMP,Door1,-0.349106445,-0.089399414,1,0,0,0.7717,optionLeft,30,2295,2,0,0,0,0,1,,,,,,,,,,,,,,,,,,,,,,,,,,,,,,,,,,,,,,,
,,,,,,,,2023-08-16_08h44.35.569,HF_wild_card,2022.2.4,MacIntel,60.0024001,5ec6e7ee42084e12736ac8d6,64d2fd46c836a06233681665,64dc7e53fbb02c379c4e5772,,,,,,,ctch,resources/DG.BMP,resources/DY.BMP,Door3,0.282475586,-0.013305664,1,0,0,1.5313,optionRight,70,2365,2,1,0,1,0,1,,,,,,,,,,,,,,,,,,,,,,,,,,,,,,,,,,,,,,,
,,,,,,,,2023-08-16_08h44.35.569,HF_wild_card,2022.2.4,MacIntel,60.0024001,5ec6e7ee42084e12736ac8d6,64d2fd46c836a06233681665,64dc7e53fbb02c379c4e5772,,,,,,,sngl,resources/Empty.png,resources/DBN.BMP,Door1,0.198994141,0.007558594,1,0,0,0.7669,optionRight,30,2395,2,2,0,2,0,1,,,,,,,,,,,,,,,,,,,,,,,,,,,,,,,,,,,,,,,
,,,,,,,,2023-08-16_08h44.35.569,HF_wild_card,2022.2.4,MacIntel,60.0024001,5ec6e7ee42084e12736ac8d6,64d2fd46c836a06233681665,64dc7e53fbb02c379c4e5772,,,,,,,sngl,resources/DY.BMP,resources/Empty.png,Door3,-0.326855469,0.009067383,1,0,0,0.4667,optionLeft,70,2465,2,3,0,3,0,1,,,,,,,,,,,,,,,,,,,,,,,,,,,,,,,,,,,,,,,
,,,,,,,,2023-08-16_08h44.35.569,HF_wild_card,2022.2.4,MacIntel,60.0024001,5ec6e7ee42084e12736ac8d6,64d2fd46c836a06233681665,64dc7e53fbb02c379c4e5772,,,,,,,ctch,resources/DBN.BMP,resources/DR.BMP,Door1,-0.309116211,0.015400391,1,0,0,0.6308,optionLeft,30,2495,2,4,0,4,0,1,,,,,,,,,,,,,,,,,,,,,,,,,,,,,,,,,,,,,,,
,,,,,,,,2023-08-16_08h44.35.569,HF_wild_card,2022.2.4,MacIntel,60.0024001,5ec6e7ee42084e12736ac8d6,64d2fd46c836a06233681665,64dc7e53fbb02c379c4e5772,,,,,,,ctch,resources/DR.BMP,resources/DBN.BMP,Door4,-0.491313477,-0.011538086,1,0,0,0.4966,optionLeft,60,2555,2,5,0,5,0,1,,,,,,,,,,,,,,,,,,,,,,,,,,,,,,,,,,,,,,,
,,,,,,,,2023-08-16_08h44.35.569,HF_wild_card,2022.2.4,MacIntel,60.0024001,5ec6e7ee42084e12736ac8d6,64d2fd46c836a06233681665,64dc7e53fbb02c379c4e5772,,,,,,,decisionTrl,resources/DR.BMP,resources/DY.BMP,Door4,-0.372421875,-0.013432617,1,0,0,0.4996,optionLeft,60,2615,2,6,0,6,0,1,,,,,,,,,,,,,,,,,,,,,,,,,,,,,,,,,,,,,,,
,,,,,,,,2023-08-16_08h44.35.569,HF_wild_card,2022.2.4,MacIntel,60.0024001,5ec6e7ee42084e12736ac8d6,64d2fd46c836a06233681665,64dc7e53fbb02c379c4e5772,,,,,,,decisionTrl,resources/DG.BMP,resources/DBN.BMP,Door2,-0.352026367,-0.024707031,1,0,0,0.4967,optionLeft,40,2655,2,7,0,7,0,1,,,,,,,,,,,,,,,,,,,,,,,,,,,,,,,,,,,,,,,
,,,,,,,,2023-08-16_08h44.35.569,HF_wild_card,2022.2.4,MacIntel,60.0024001,5ec6e7ee42084e12736ac8d6,64d2fd46c836a06233681665,64dc7e53fbb02c379c4e5772,,,,,,,decisionTrl,resources/DBN.BMP,resources/DG.BMP,Door1,-0.324907227,-0.003867187,1,0,0,0.465,optionLeft,30,2685,2,8,0,8,0,1,,,,,,,,,,,,,,,,,,,,,,,,,,,,,,,,,,,,,,,
,,,,,,,,2023-08-16_08h44.35.569,HF_wild_card,2022.2.4,MacIntel,60.0024001,5ec6e7ee42084e12736ac8d6,64d2fd46c836a06233681665,64dc7e53fbb02c379c4e5772,,,,,,,decisionTrl,resources/DB.BMP,resources/DY.BMP,Door3,0.415634766,-0.019672852,1,0,0,1.4968,optionRight,70,2755,2,9,0,9,0,1,,,,,,,,,,,,,,,,,,,,,,,,,,,,,,,,,,,,,,,
,,,,,,,,2023-08-16_08h44.35.569,HF_wild_card,2022.2.4,MacIntel,60.0024001,5ec6e7ee42084e12736ac8d6,64d2fd46c836a06233681665,64dc7e53fbb02c379c4e5772,,,,,,,ctch,resources/DY.BMP,resources/DG.BMP,Door3,-0.246870117,-0.034711914,1,0,0,0.7701,optionLeft,70,2825,2,10,0,10,0,1,,,,,,,,,,,,,,,,,,,,,,,,,,,,,,,,,,,,,,,
,,,,,,,,2023-08-16_08h44.35.569,HF_wild_card,2022.2.4,MacIntel,60.0024001,5ec6e7ee42084e12736ac8d6,64d2fd46c836a06233681665,64dc7e53fbb02c379c4e5772,,,,,,,decisionTrl,resources/DG.BMP,resources/DB.BMP,Door2,-0.369082031,-0.011445313,1,0,0,0.679,optionLeft,20,2845,2,11,0,11,0,1,,,,,,,,,,,,,,,,,,,,,,,,,,,,,,,,,,,,,,,
,,,,,,,,2023-08-16_08h44.35.569,HF_wild_card,2022.2.4,MacIntel,60.0024001,5ec6e7ee42084e12736ac8d6,64d2fd46c836a06233681665,64dc7e53fbb02c379c4e5772,,,,,,,decisionTrl,resources/DG.BMP,resources/DBN.BMP,Door1,0.270571289,-0.002880859,1,0,0,0.5973,optionRight,30,2875,2,12,0,12,0,1,,,,,,,,,,,,,,,,,,,,,,,,,,,,,,,,,,,,,,,
,,,,,,,,2023-08-16_08h44.35.569,HF_wild_card,2022.2.4,MacIntel,60.0024001,5ec6e7ee42084e12736ac8d6,64d2fd46c836a06233681665,64dc7e53fbb02c379c4e5772,,,,,,,decisionTrl,resources/DR.BMP,resources/DY.BMP,Door3,0.354536133,0.007988281,1,0,0,0.479,optionRight,70,2945,2,13,0,13,0,1,,,,,,,,,,,,,,,,,,,,,,,,,,,,,,,,,,,,,,,
,,,,,,,,2023-08-16_08h44.35.569,HF_wild_card,2022.2.4,MacIntel,60.0024001,5ec6e7ee42084e12736ac8d6,64d2fd46c836a06233681665,64dc7e53fbb02c379c4e5772,,,,,,,decisionTrl,resources/DG.BMP,resources/DBN.BMP,Door1,0.385737305,-0.028989258,1,0,0,0.6008,optionRight,30,2975,2,14,0,14,0,1,,,,,,,,,,,,,,,,,,,,,,,,,,,,,,,,,,,,,,,
,,,,,,,,2023-08-16_08h44.35.569,HF_wild_card,2022.2.4,MacIntel,60.0024001,5ec6e7ee42084e12736ac8d6,64d2fd46c836a06233681665,64dc7e53fbb02c379c4e5772,,,,,,,decisionTrl,resources/DY.BMP,resources/DR.BMP,Door3,-0.424121094,0.011000977,1,0,0,0.4666,optionLeft,70,3045,2,15,0,15,0,1,,,,,,,,,,,,,,,,,,,,,,,,,,,,,,,,,,,,,,,
,,,,,,,,2023-08-16_08h44.35.569,HF_wild_card,2022.2.4,MacIntel,60.0024001,5ec6e7ee42084e12736ac8d6,64d2fd46c836a06233681665,64dc7e53fbb02c379c4e5772,,,,,,,decisionTrl,resources/DY.BMP,resources/DB.BMP,Door3,-0.337387695,0.007563477,1,0,0,0.5844,optionLeft,70,3115,2,16,0,16,0,1,,,,,,,,,,,,,,,,,,,,,,,,,,,,,,,,,,,,,,,
,,,,,,,,2023-08-16_08h44.35.569,HF_wild_card,2022.2.4,MacIntel,60.0024001,5ec6e7ee42084e12736ac8d6,64d2fd46c836a06233681665,64dc7e53fbb02c379c4e5772,,,,,,,sngl,resources/DG.BMP,resources/Empty.png,Door2,-0.321118164,0.001958008,1,0,0,1.6816,optionLeft,20,3135,2,17,0,17,0,1,,,,,,,,,,,,,,,,,,,,,,,,,,,,,,,,,,,,,,,
,,,,,,,,2023-08-16_08h44.35.569,HF_wild_card,2022.2.4,MacIntel,60.0024001,5ec6e7ee42084e12736ac8d6,64d2fd46c836a06233681665,64dc7e53fbb02c379c4e5772,,,,,,,sngl,resources/DB.BMP,resources/Empty.png,WildCard_NonEx,-0.353759766,0.006523437,1,0,0,0.5178,optionLeft,45,3180,2,18,0,18,0,1,,,,,,,,,,,,,,,,,,,,,,,,,,,,,,,,,,,,,,,
,,,,,,,,2023-08-16_08h44.35.569,HF_wild_card,2022.2.4,MacIntel,60.0024001,5ec6e7ee42084e12736ac8d6,64d2fd46c836a06233681665,64dc7e53fbb02c379c4e5772,,,,,,,sngl,resources/DR.BMP,resources/Empty.png,Door4,-0.350737305,0.008383789,1,0,0,0.5118,optionLeft,60,3240,2,19,0,19,0,1,,,,,,,,,,,,,,,,,,,,,,,,,,,,,,,,,,,,,,,
,,,,,,,,2023-08-16_08h44.35.569,HF_wild_card,2022.2.4,MacIntel,60.0024001,5ec6e7ee42084e12736ac8d6,64d2fd46c836a06233681665,64dc7e53fbb02c379c4e5772,,,,,,,decisionTrl,resources/DY.BMP,resources/DR.BMP,Door4,0.296313477,-0.018901367,1,0,0,0.7314,optionRight,80,3320,2,20,0,20,0,1,,,,,,,,,,,,,,,,,,,,,,,,,,,,,,,,,,,,,,,
,,,,,,,,2023-08-16_08h44.35.569,HF_wild_card,2022.2.4,MacIntel,60.0024001,5ec6e7ee42084e12736ac8d6,64d2fd46c836a06233681665,64dc7e53fbb02c379c4e5772,,,,,,,decisionTrl,resources/DR.BMP,resources/DB.BMP,Door4,-0.298095703,-0.003061523,1,0,0,0.6462,optionLeft,80,3400,2,21,0,21,0,1,,,,,,,,,,,,,,,,,,,,,,,,,,,,,,,,,,,,,,,
,,,,,,,,2023-08-16_08h44.35.569,HF_wild_card,2022.2.4,MacIntel,60.0024001,5ec6e7ee42084e12736ac8d6,64d2fd46c836a06233681665,64dc7e53fbb02c379c4e5772,,,,,,,ctch,resources/DR.BMP,resources/DBN.BMP,Door4,-0.35453125,0.018540039,1,0,0,0.5158,optionLeft,60,3460,2,22,0,22,0,1,,,,,,,,,,,,,,,,,,,,,,,,,,,,,,,,,,,,,,,
,,,,,,,,2023-08-16_08h44.35.569,HF_wild_card,2022.2.4,MacIntel,60.0024001,5ec6e7ee42084e12736ac8d6,64d2fd46c836a06233681665,64dc7e53fbb02c379c4e5772,,,,,,,sngl,resources/Empty.png,resources/DG.BMP,Door2,0.349052734,0.01222168,1,0,0,0.5987,optionRight,40,3500,2,23,0,23,0,1,,,,,,,,,,,,,,,,,,,,,,,,,,,,,,,,,,,,,,,
,,,,,,,,2023-08-16_08h44.35.569,HF_wild_card,2022.2.4,MacIntel,60.0024001,5ec6e7ee42084e12736ac8d6,64d2fd46c836a06233681665,64dc7e53fbb02c379c4e5772,,,,,,,sngl,resources/Empty.png,resources/DR.BMP,Door4,0.34465332,-0.021206055,1,0,0,0.5982,optionRight,80,3580,2,24,0,24,0,1,,,,,,,,,,,,,,,,,,,,,,,,,,,,,,,,,,,,,,,
,,,,,,,,2023-08-16_08h44.35.569,HF_wild_card,2022.2.4,MacIntel,60.0024001,5ec6e7ee42084e12736ac8d6,64d2fd46c836a06233681665,64dc7e53fbb02c379c4e5772,,,,,,,decisionTrl,resources/DBN.BMP,resources/DG.BMP,Door1,-0.277900391,0.003857422,1,0,0,0.5357,optionLeft,30,3610,2,25,0,25,0,1,,,,,,,,,,,,,,,,,,,,,,,,,,,,,,,,,,,,,,,
,,,,,,,,2023-08-16_08h44.35.569,HF_wild_card,2022.2.4,MacIntel,60.0024001,5ec6e7ee42084e12736ac8d6,64d2fd46c836a06233681665,64dc7e53fbb02c379c4e5772,,,,,,,decisionTrl,resources/DB.BMP,resources/DG.BMP,WildCard_NonEx,-0.353012695,0.003325195,1,0,0,0.5671,optionLeft,55,3665,2,26,0,26,0,1,,,,,,,,,,,,,,,,,,,,,,,,,,,,,,,,,,,,,,,
,,,,,,,,2023-08-16_08h44.35.569,HF_wild_card,2022.2.4,MacIntel,60.0024001,5ec6e7ee42084e12736ac8d6,64d2fd46c836a06233681665,64dc7e53fbb02c379c4e5772,,,,,,,ctch,resources/DG.BMP,resources/DY.BMP,Door2,-0.309746094,0.020639648,1,0,0,0.5497,optionLeft,20,3685,2,27,0,27,0,1,,,,,,,,,,,,,,,,,,,,,,,,,,,,,,,,,,,,,,,
,,,,,,,,2023-08-16_08h44.35.569,HF_wild_card,2022.2.4,MacIntel,60.0024001,5ec6e7ee42084e12736ac8d6,64d2fd46c836a06233681665,64dc7e53fbb02c379c4e5772,,,,,,,decisionTrl,resources/DG.BMP,resources/DBN.BMP,Door2,-0.292480469,-0.002202148,1,0,0,0.516,optionLeft,20,3705,2,28,0,28,0,1,,,,,,,,,,,,,,,,,,,,,,,,,,,,,,,,,,,,,,,
,,,,,,,,2023-08-16_08h44.35.569,HF_wild_card,2022.2.4,MacIntel,60.0024001,5ec6e7ee42084e12736ac8d6,64d2fd46c836a06233681665,64dc7e53fbb02c379c4e5772,,,,,,,decisionTrl,resources/DR.BMP,resources/DY.BMP,Door3,0.401787109,-0.029301758,1,0,0,0.4687,optionRight,70,3775,2,29,0,29,0,1,,,,,,,,,,,,,,,,,,,,,,,,,,,,,,,,,,,,,,,
,,,,,,,,2023-08-16_08h44.35.569,HF_wild_card,2022.2.4,MacIntel,60.0024001,5ec6e7ee42084e12736ac8d6,64d2fd46c836a06233681665,64dc7e53fbb02c379c4e5772,,,,,,,decisionTrl,resources/DB.BMP,resources/DR.BMP,WildCard_NonEx,-0.288579102,0.00980957,1,0,0,0.9639,optionLeft,55,3830,2,30,0,30,0,1,,,,,,,,,,,,,,,,,,,,,,,,,,,,,,,,,,,,,,,
,,,,,,,,2023-08-16_08h44.35.569,HF_wild_card,2022.2.4,MacIntel,60.0024001,5ec6e7ee42084e12736ac8d6,64d2fd46c836a06233681665,64dc7e53fbb02c379c4e5772,,,,,,,decisionTrl,resources/DBN.BMP,resources/DG.BMP,Door2,0.418354492,-0.012338867,1,0,0,0.6488,optionRight,20,3850,2,31,0,31,0,1,,,,,,,,,,,,,,,,,,,,,,,,,,,,,,,,,,,,,,,
,,,,,,,,2023-08-16_08h44.35.569,HF_wild_card,2022.2.4,MacIntel,60.0024001,5ec6e7ee42084e12736ac8d6,64d2fd46c836a06233681665,64dc7e53fbb02c379c4e5772,,,,,,,ctch,resources/DY.BMP,resources/DG.BMP,Door3,-0.312832031,0.013125,1,0,0,0.7321,optionLeft,70,3920,2,32,0,32,0,1,,,,,,,,,,,,,,,,,,,,,,,,,,,,,,,,,,,,,,,
,,,,,,,,2023-08-16_08h44.35.569,HF_wild_card,2022.2.4,MacIntel,60.0024001,5ec6e7ee42084e12736ac8d6,64d2fd46c836a06233681665,64dc7e53fbb02c379c4e5772,,,,,,,sngl,resources/DB.BMP,resources/Empty.png,WildCard_NonEx,-0.378354492,-0.021333008,1,0,0,0.6978,optionLeft,55,3975,2,33,0,33,0,1,,,,,,,,,,,,,,,,,,,,,,,,,,,,,,,,,,,,,,,
,,,,,,,,2023-08-16_08h44.35.569,HF_wild_card,2022.2.4,MacIntel,60.0024001,5ec6e7ee42084e12736ac8d6,64d2fd46c836a06233681665,64dc7e53fbb02c379c4e5772,,,,,,,sngl,resources/Empty.png,resources/DB.BMP,WildCard_NonEx,0.369072266,-0.020322266,1,0,0,0.698,optionRight,55,4030,2,34,0,34,0,1,,,,,,,,,,,,,,,,,,,,,,,,,,,,,,,,,,,,,,,
,,,,,,,,2023-08-16_08h44.35.569,HF_wild_card,2022.2.4,MacIntel,60.0024001,5ec6e7ee42084e12736ac8d6,64d2fd46c836a06233681665,64dc7e53fbb02c379c4e5772,,,,,,,decisionTrl,resources/DBN.BMP,resources/DB.BMP,Door1,-0.324907227,0.004814453,1,0,0,1.8498,optionLeft,30,4060,2,35,0,35,0,1,,,,,,,,,,,,,,,,,,,,,,,,,,,,,,,,,,,,,,,
,,,,,,,,2023-08-16_08h44.35.569,HF_wild_card,2022.2.4,MacIntel,60.0024001,5ec6e7ee42084e12736ac8d6,64d2fd46c836a06233681665,64dc7e53fbb02c379c4e5772,,,,,,,sngl,resources/Empty.png,resources/DY.BMP,Door3,0.355488281,0.003149414,1,0,0,0.766,optionRight,70,4130,2,36,0,36,0,1,,,,,,,,,,,,,,,,,,,,,,,,,,,,,,,,,,,,,,,
,,,,,,,,2023-08-16_08h44.35.569,HF_wild_card,2022.2.4,MacIntel,60.0024001,5ec6e7ee42084e12736ac8d6,64d2fd46c836a06233681665,64dc7e53fbb02c379c4e5772,,,,,,,decisionTrl,resources/DB.BMP,resources/DBN.BMP,WildCard_NonEx,-0.247944336,-0.03234375,1,0,0,1.8633,optionLeft,55,4185,2,37,0,37,0,1,,,,,,,,,,,,,,,,,,,,,,,,,,,,,,,,,,,,,,,
,,,,,,,,2023-08-16_08h44.35.569,HF_wild_card,2022.2.4,MacIntel,60.0024001,5ec6e7ee42084e12736ac8d6,64d2fd46c836a06233681665,64dc7e53fbb02c379c4e5772,,,,,,,decisionTrl,resources/DY.BMP,resources/DR.BMP,Door4,0.369404297,0.003188477,1,0,0,1.5651,optionRight,80,4265,2,38,0,38,0,1,,,,,,,,,,,,,,,,,,,,,,,,,,,,,,,,,,,,,,,
,,,,,,,,2023-08-16_08h44.35.569,HF_wild_card,2022.2.4,MacIntel,60.0024001,5ec6e7ee42084e12736ac8d6,64d2fd46c836a06233681665,64dc7e53fbb02c379c4e5772,,,,,,,ctch,resources/DBN.BMP,resources/DR.BMP,Door4,0.361157227,-0.080708008,1,0,0,4.4632,optionRight,80,4345,2,39,0,39,0,1,,,,,,,,,,,,,,,,,,,,,,,,,,,,,,,,,,,,,,,
,,,,,,,,2023-08-16_08h44.35.569,HF_wild_card,2022.2.4,MacIntel,60.0024001,5ec6e7ee42084e12736ac8d6,64d2fd46c836a06233681665,64dc7e53fbb02c379c4e5772,,,,,,,sngl,resources/Empty.png,resources/DB.BMP,WildCard_NonEx,0.348798828,-0.023051758,1,0,0,0.8322,optionRight,45,4390,2,40,0,40,0,1,,,,,,,,,,,,,,,,,,,,,,,,,,,,,,,,,,,,,,,
,,,,,,,,2023-08-16_08h44.35.569,HF_wild_card,2022.2.4,MacIntel,60.0024001,5ec6e7ee42084e12736ac8d6,64d2fd46c836a06233681665,64dc7e53fbb02c379c4e5772,,,,,,,decisionTrl,resources/DR.BMP,resources/DY.BMP,Door4,-0.283266602,-0.005297852,1,0,0,1.0825,optionLeft,80,4470,2,41,0,41,0,1,,,,,,,,,,,,,,,,,,,,,,,,,,,,,,,,,,,,,,,
,,,,,,,,2023-08-16_08h44.35.569,HF_wild_card,2022.2.4,MacIntel,60.0024001,5ec6e7ee42084e12736ac8d6,64d2fd46c836a06233681665,64dc7e53fbb02c379c4e5772,,,,,,,decisionTrl,resources/DY.BMP,resources/DR.BMP,Door4,0.394433594,-0.039716797,1,0,0,0.7652,optionRight,80,4550,2,42,0,42,0,1,,,,,,,,,,,,,,,,,,,,,,,,,,,,,,,,,,,,,,,
,,,,,,,,2023-08-16_08h44.35.569,HF_wild_card,2022.2.4,MacIntel,60.0024001,5ec6e7ee42084e12736ac8d6,64d2fd46c836a06233681665,64dc7e53fbb02c379c4e5772,,,,,,,sngl,resources/DBN.BMP,resources/Empty.png,Door1,-0.311269531,0.02296875,1,0,0,0.6977,optionLeft,30,4580,2,43,0,43,0,1,,,,,,,,,,,,,,,,,,,,,,,,,,,,,,,,,,,,,,,
,,,,,,,,2023-08-16_08h44.35.569,HF_wild_card,2022.2.4,MacIntel,60.0024001,5ec6e7ee42084e12736ac8d6,64d2fd46c836a06233681665,64dc7e53fbb02c379c4e5772,,,,,,,,,,,,,,,,,,,,,,,,,,1,0,1,0,1,,,,,,,,,,,,,,,,,,,,,,,,,,,,,,,,,,
,,,,,,,,2023-08-16_08h44.35.569,HF_wild_card,2022.2.4,MacIntel,60.0024001,5ec6e7ee42084e12736ac8d6,64d2fd46c836a06233681665,64dc7e53fbb02c379c4e5772,,,,,,,sngl,resources/Empty.png,resources/DY.BMP,Door3,0.394863281,-0.083691406,1,0,0,0.9875,optionRight,70,4650,3,0,0,0,0,1,,,,,,,,,,,,,,,,,,,,,,,,,,,,,,,,,,,,,,,
,,,,,,,,2023-08-16_08h44.35.569,HF_wild_card,2022.2.4,MacIntel,60.0024001,5ec6e7ee42084e12736ac8d6,64d2fd46c836a06233681665,64dc7e53fbb02c379c4e5772,,,,,,,ctch,resources/DBN.BMP,resources/DR.BMP,Door4,0.397133789,-0.003134766,1,0,0,2.58,optionRight,80,4730,3,1,0,1,0,1,,,,,,,,,,,,,,,,,,,,,,,,,,,,,,,,,,,,,,,
,,,,,,,,2023-08-16_08h44.35.569,HF_wild_card,2022.2.4,MacIntel,60.0024001,5ec6e7ee42084e12736ac8d6,64d2fd46c836a06233681665,64dc7e53fbb02c379c4e5772,,,,,,,decisionTrl,resources/DR.BMP,resources/DY.BMP,Door4,-0.328842773,-0.006030273,1,0,0,0.8648,optionLeft,80,4810,3,2,0,2,0,1,,,,,,,,,,,,,,,,,,,,,,,,,,,,,,,,,,,,,,,
,,,,,,,,2023-08-16_08h44.35.569,HF_wild_card,2022.2.4,MacIntel,60.0024001,5ec6e7ee42084e12736ac8d6,64d2fd46c836a06233681665,64dc7e53fbb02c379c4e5772,,,,,,,decisionTrl,resources/DBN.BMP,resources/DG.BMP,Door2,0.343056641,-0.00909668,1,0,0,1.4473,optionRight,20,4830,3,3,0,3,0,1,,,,,,,,,,,,,,,,,,,,,,,,,,,,,,,,,,,,,,,
,,,,,,,,2023-08-16_08h44.35.569,HF_wild_card,2022.2.4,MacIntel,60.0024001,5ec6e7ee42084e12736ac8d6,64d2fd46c836a06233681665,64dc7e53fbb02c379c4e5772,,,,,,,decisionTrl,resources/DY.BMP,resources/DR.BMP,Door4,0.398984375,-0.0303125,1,0,0,1.4488,optionRight,80,4910,3,4,0,4,0,1,,,,,,,,,,,,,,,,,,,,,,,,,,,,,,,,,,,,,,,
,,,,,,,,2023-08-16_08h44.35.569,HF_wild_card,2022.2.4,MacIntel,60.0024001,5ec6e7ee42084e12736ac8d6,64d2fd46c836a06233681665,64dc7e53fbb02c379c4e5772,,,,,,,sngl,resources/Empty.png,resources/DR.BMP,Door4,0.340219727,0.017016602,1,0,0,0.6462,optionRight,60,4970,3,5,0,5,0,1,,,,,,,,,,,,,,,,,,,,,,,,,,,,,,,,,,,,,,,
,,,,,,,,2023-08-16_08h44.35.569,HF_wild_card,2022.2.4,MacIntel,60.0024001,5ec6e7ee42084e12736ac8d6,64d2fd46c836a06233681665,64dc7e53fbb02c379c4e5772,,,,,,,decisionTrl,resources/DBN.BMP,resources/DG.BMP,Door2,0.442509766,-0.033076172,1,0,0,1.7845,optionRight,20,4990,3,6,0,6,0,1,,,,,,,,,,,,,,,,,,,,,,,,,,,,,,,,,,,,,,,
,,,,,,,,2023-08-16_08h44.35.569,HF_wild_card,2022.2.4,MacIntel,60.0024001,5ec6e7ee42084e12736ac8d6,64d2fd46c836a06233681665,64dc7e53fbb02c379c4e5772,,,,,,,decisionTrl,resources/DG.BMP,resources/DBN.BMP,Door1,0.388027344,0.060317383,1,0,0,0.881,optionRight,30,5020,3,7,0,7,0,1,,,,,,,,,,,,,,,,,,,,,,,,,,,,,,,,,,,,,,,
,,,,,,,,2023-08-16_08h44.35.569,HF_wild_card,2022.2.4,MacIntel,60.0024001,5ec6e7ee42084e12736ac8d6,64d2fd46c836a06233681665,64dc7e53fbb02c379c4e5772,,,,,,,ctch,resources/DR.BMP,resources/DBN.BMP,Door4,-0.367822266,0.010581055,1,0,0,1.132,optionLeft,60,5080,3,8,0,8,0,1,,,,,,,,,,,,,,,,,,,,,,,,,,,,,,,,,,,,,,,
,,,,,,,,2023-08-16_08h44.35.569,HF_wild_card,2022.2.4,MacIntel,60.0024001,5ec6e7ee42084e12736ac8d6,64d2fd46c836a06233681665,64dc7e53fbb02c379c4e5772,,,,,,,decisionTrl,resources/DY.BMP,resources/DR.BMP,Door4,0.47925293,-0.020981445,1,0,0,1.1306,optionRight,60,5140,3,9,0,9,0,1,,,,,,,,,,,,,,,,,,,,,,,,,,,,,,,,,,,,,,,
,,,,,,,,2023-08-16_08h44.35.569,HF_wild_card,2022.2.4,MacIntel,60.0024001,5ec6e7ee42084e12736ac8d6,64d2fd46c836a06233681665,64dc7e53fbb02c379c4e5772,,,,,,,sngl,resources/Empty.png,resources/DB.BMP,WildCard_NonEx,0.450732422,0.003969727,1,0,0,0.7639,optionRight,45,5185,3,10,0,10,0,1,,,,,,,,,,,,,,,,,,,,,,,,,,,,,,,,,,,,,,,
,,,,,,,,2023-08-16_08h44.35.569,HF_wild_card,2022.2.4,MacIntel,60.0024001,5ec6e7ee42084e12736ac8d6,64d2fd46c836a06233681665,64dc7e53fbb02c379c4e5772,,,,,,,sngl,resources/Empty.png,resources/DBN.BMP,Door1,0.354985352,0.002822266,1,0,0,0.6967,optionRight,30,5215,3,11,0,11,0,1,,,,,,,,,,,,,,,,,,,,,,,,,,,,,,,,,,,,,,,
,,,,,,,,2023-08-16_08h44.35.569,HF_wild_card,2022.2.4,MacIntel,60.0024001,5ec6e7ee42084e12736ac8d6,64d2fd46c836a06233681665,64dc7e53fbb02c379c4e5772,,,,,,,decisionTrl,resources/DB.BMP,resources/DG.BMP,WildCard_NonEx,-0.369384766,0.005390625,1,0,0,1.1319,optionLeft,45,5260,3,12,0,12,0,1,,,,,,,,,,,,,,,,,,,,,,,,,,,,,,,,,,,,,,,
,,,,,,,,2023-08-16_08h44.35.569,HF_wild_card,2022.2.4,MacIntel,60.0024001,5ec6e7ee42084e12736ac8d6,64d2fd46c836a06233681665,64dc7e53fbb02c379c4e5772,,,,,,,decisionTrl,resources/DY.BMP,resources/DB.BMP,Door3,-0.384799805,0.000415039,1,0,0,1.2954,optionLeft,70,5330,3,13,0,13,0,1,,,,,,,,,,,,,,,,,,,,,,,,,,,,,,,,,,,,,,,
,,,,,,,,2023-08-16_08h44.35.569,HF_wild_card,2022.2.4,MacIntel,60.0024001,5ec6e7ee42084e12736ac8d6,64d2fd46c836a06233681665,64dc7e53fbb02c379c4e5772,,,,,,,decisionTrl,resources/DR.BMP,resources/DB.BMP,Door4,-0.344912109,0.005161133,1,0,0,1.3803,optionLeft,60,5390,3,14,0,14,0,1,,,,,,,,,,,,,,,,,,,,,,,,,,,,,,,,,,,,,,,
,,,,,,,,2023-08-16_08h44.35.569,HF_wild_card,2022.2.4,MacIntel,60.0024001,5ec6e7ee42084e12736ac8d6,64d2fd46c836a06233681665,64dc7e53fbb02c379c4e5772,,,,,,,sngl,resources/DR.BMP,resources/Empty.png,Door4,-0.30574707,-0.000483398,1,0,0,0.5982,optionLeft,80,5470,3,15,0,15,0,1,,,,,,,,,,,,,,,,,,,,,,,,,,,,,,,,,,,,,,,
,,,,,,,,2023-08-16_08h44.35.569,HF_wild_card,2022.2.4,MacIntel,60.0024001,5ec6e7ee42084e12736ac8d6,64d2fd46c836a06233681665,64dc7e53fbb02c379c4e5772,,,,,,,ctch,resources/DG.BMP,resources/DY.BMP,Door3,0.46609375,-0.011572266,1,0,0,1.0658,optionRight,70,5540,3,16,0,16,0,1,,,,,,,,,,,,,,,,,,,,,,,,,,,,,,,,,,,,,,,
,,,,,,,,2023-08-16_08h44.35.569,HF_wild_card,2022.2.4,MacIntel,60.0024001,5ec6e7ee42084e12736ac8d6,64d2fd46c836a06233681665,64dc7e53fbb02c379c4e5772,,,,,,,ctch,resources/DY.BMP,resources/DG.BMP,Door3,-0.357880859,-0.036572266,1,0,0,0.6324,optionLeft,70,5610,3,17,0,17,0,1,,,,,,,,,,,,,,,,,,,,,,,,,,,,,,,,,,,,,,,
,,,,,,,,2023-08-16_08h44.35.569,HF_wild_card,2022.2.4,MacIntel,60.0024001,5ec6e7ee42084e12736ac8d6,64d2fd46c836a06233681665,64dc7e53fbb02c379c4e5772,,,,,,,decisionTrl,resources/DB.BMP,resources/DBN.BMP,WildCard_NonEx,-0.309702148,0.00015625,1,0,0,1.7153,optionLeft,55,5665,3,18,0,18,0,1,,,,,,,,,,,,,,,,,,,,,,,,,,,,,,,,,,,,,,,
,,,,,,,,2023-08-16_08h44.35.569,HF_wild_card,2022.2.4,MacIntel,60.0024001,5ec6e7ee42084e12736ac8d6,64d2fd46c836a06233681665,64dc7e53fbb02c379c4e5772,,,,,,,sngl,resources/DB.BMP,resources/Empty.png,WildCard_NonEx,-0.458095703,-0.007753906,1,0,0,0.813,optionLeft,45,5710,3,19,0,19,0,1,,,,,,,,,,,,,,,,,,,,,,,,,,,,,,,,,,,,,,,
,,,,,,,,2023-08-16_08h44.35.569,HF_wild_card,2022.2.4,MacIntel,60.0024001,5ec6e7ee42084e12736ac8d6,64d2fd46c836a06233681665,64dc7e53fbb02c379c4e5772,,,,,,,decisionTrl,resources/DG.BMP,resources/DB.BMP,WildCard_NonEx,0.481987305,0.035488281,1,0,0,1.3,optionRight,45,5755,3,20,0,20,0,1,,,,,,,,,,,,,,,,,,,,,,,,,,,,,,,,,,,,,,,
,,,,,,,,2023-08-16_08h44.35.569,HF_wild_card,2022.2.4,MacIntel,60.0024001,5ec6e7ee42084e12736ac8d6,64d2fd46c836a06233681665,64dc7e53fbb02c379c4e5772,,,,,,,decisionTrl,resources/DR.BMP,resources/DY.BMP,Door4,-0.349399414,-0.085537109,1,0,0,1.3652,optionLeft,60,5815,3,21,0,21,0,1,,,,,,,,,,,,,,,,,,,,,,,,,,,,,,,,,,,,,,,
,,,,,,,,2023-08-16_08h44.35.569,HF_wild_card,2022.2.4,MacIntel,60.0024001,5ec6e7ee42084e12736ac8d6,64d2fd46c836a06233681665,64dc7e53fbb02c379c4e5772,,,,,,,decisionTrl,resources/DB.BMP,resources/DR.BMP,Door4,0.364291992,-0.01112793,1,0,0,0.7308,optionRight,60,5875,3,22,0,22,0,1,,,,,,,,,,,,,,,,,,,,,,,,,,,,,,,,,,,,,,,
,,,,,,,,2023-08-16_08h44.35.569,HF_wild_card,2022.2.4,MacIntel,60.0024001,5ec6e7ee42084e12736ac8d6,64d2fd46c836a06233681665,64dc7e53fbb02c379c4e5772,,,,,,,sngl,resources/Empty.png,resources/DB.BMP,WildCard_NonEx,0.339887695,0.002294922,1,0,0,0.7817,optionRight,55,5930,3,23,0,23,0,1,,,,,,,,,,,,,,,,,,,,,,,,,,,,,,,,,,,,,,,
,,,,,,,,2023-08-16_08h44.35.569,HF_wild_card,2022.2.4,MacIntel,60.0024001,5ec6e7ee42084e12736ac8d6,64d2fd46c836a06233681665,64dc7e53fbb02c379c4e5772,,,,,,,decisionTrl,resources/DG.BMP,resources/DBN.BMP,Door2,-0.318662109,-0.020024414,1,0,0,1.2134,optionLeft,20,5950,3,24,0,24,0,1,,,,,,,,,,,,,,,,,,,,,,,,,,,,,,,,,,,,,,,
,,,,,,,,2023-08-16_08h44.35.569,HF_wild_card,2022.2.4,MacIntel,60.0024001,5ec6e7ee42084e12736ac8d6,64d2fd46c836a06233681665,64dc7e53fbb02c379c4e5772,,,,,,,ctch,resources/DBN.BMP,resources/DR.BMP,Door4,0.427758789,-0.007744141,1,0,0,1.0316,optionRight,60,6010,3,25,0,25,0,1,,,,,,,,,,,,,,,,,,,,,,,,,,,,,,,,,,,,,,,
,,,,,,,,2023-08-16_08h44.35.569,HF_wild_card,2022.2.4,MacIntel,60.0024001,5ec6e7ee42084e12736ac8d6,64d2fd46c836a06233681665,64dc7e53fbb02c379c4e5772,,,,,,,ctch,resources/DY.BMP,resources/DG.BMP,Door3,-0.306455078,-0.009956055,1,0,0,1.3965,optionLeft,70,6080,3,26,0,26,0,1,,,,,,,,,,,,,,,,,,,,,,,,,,,,,,,,,,,,,,,
,,,,,,,,2023-08-16_08h44.35.569,HF_wild_card,2022.2.4,MacIntel,60.0024001,5ec6e7ee42084e12736ac8d6,64d2fd46c836a06233681665,64dc7e53fbb02c379c4e5772,,,,,,,decisionTrl,resources/DB.BMP,resources/DY.BMP,Door3,0.395908203,-0.050683594,1,0,0,1.2657,optionRight,70,6150,3,27,0,27,0,1,,,,,,,,,,,,,,,,,,,,,,,,,,,,,,,,,,,,,,,
,,,,,,,,2023-08-16_08h44.35.569,HF_wild_card,2022.2.4,MacIntel,60.0024001,5ec6e7ee42084e12736ac8d6,64d2fd46c836a06233681665,64dc7e53fbb02c379c4e5772,,,,,,,decisionTrl,resources/DG.BMP,resources/DBN.BMP,Door1,0.431401367,0.016171875,1,0,0,1.2979,optionRight,30,6180,3,28,0,28,0,1,,,,,,,,,,,,,,,,,,,,,,,,,,,,,,,,,,,,,,,
,,,,,,,,2023-08-16_08h44.35.569,HF_wild_card,2022.2.4,MacIntel,60.0024001,5ec6e7ee42084e12736ac8d6,64d2fd46c836a06233681665,64dc7e53fbb02c379c4e5772,,,,,,,decisionTrl,resources/DBN.BMP,resources/DG.BMP,Door2,0.48921875,0.007124023,1,0,0,1.6653,optionRight,20,6200,3,29,0,29,0,1,,,,,,,,,,,,,,,,,,,,,,,,,,,,,,,,,,,,,,,
,,,,,,,,2023-08-16_08h44.35.569,HF_wild_card,2022.2.4,MacIntel,60.0024001,5ec6e7ee42084e12736ac8d6,64d2fd46c836a06233681665,64dc7e53fbb02c379c4e5772,,,,,,,decisionTrl,resources/DG.BMP,resources/DBN.BMP,Door1,0.447231445,0.034853516,1,0,0,0.8655,optionRight,30,6230,3,30,0,30,0,1,,,,,,,,,,,,,,,,,,,,,,,,,,,,,,,,,,,,,,,
,,,,,,,,2023-08-16_08h44.35.569,HF_wild_card,2022.2.4,MacIntel,60.0024001,5ec6e7ee42084e12736ac8d6,64d2fd46c836a06233681665,64dc7e53fbb02c379c4e5772,,,,,,,decisionTrl,resources/DBN.BMP,resources/DG.BMP,Door1,-0.404804687,0.019165039,1,0,0,0.9649,optionLeft,30,6260,3,31,0,31,0,1,,,,,,,,,,,,,,,,,,,,,,,,,,,,,,,,,,,,,,,
,,,,,,,,2023-08-16_08h44.35.569,HF_wild_card,2022.2.4,MacIntel,60.0024001,5ec6e7ee42084e12736ac8d6,64d2fd46c836a06233681665,64dc7e53fbb02c379c4e5772,,,,,,,ctch,resources/DG.BMP,resources/DY.BMP,Door3,0.393745117,-0.015878906,1,0,0,0.9494,optionRight,70,6330,3,32,0,32,0,1,,,,,,,,,,,,,,,,,,,,,,,,,,,,,,,,,,,,,,,
,,,,,,,,2023-08-16_08h44.35.569,HF_wild_card,2022.2.4,MacIntel,60.0024001,5ec6e7ee42084e12736ac8d6,64d2fd46c836a06233681665,64dc7e53fbb02c379c4e5772,,,,,,,decisionTrl,resources/DY.BMP,resources/DR.BMP,Door4,0.420053711,-0.037241211,1,0,0,1.5512,optionRight,60,6390,3,33,0,33,0,1,,,,,,,,,,,,,,,,,,,,,,,,,,,,,,,,,,,,,,,
,,,,,,,,2023-08-16_08h44.35.569,HF_wild_card,2022.2.4,MacIntel,60.0024001,5ec6e7ee42084e12736ac8d6,64d2fd46c836a06233681665,64dc7e53fbb02c379c4e5772,,,,,,,sngl,resources/Empty.png,resources/DG.BMP,Door2,0.457460937,0.015180664,1,0,0,0.6846,optionRight,20,6410,3,34,0,34,0,1,,,,,,,,,,,,,,,,,,,,,,,,,,,,,,,,,,,,,,,
,,,,,,,,2023-08-16_08h44.35.569,HF_wild_card,2022.2.4,MacIntel,60.0024001,5ec6e7ee42084e12736ac8d6,64d2fd46c836a06233681665,64dc7e53fbb02c379c4e5772,,,,,,,sngl,resources/DB.BMP,resources/Empty.png,WildCard_NonEx,-0.47,0.012011719,1,0,0,0.6486,optionLeft,55,6465,3,35,0,35,0,1,,,,,,,,,,,,,,,,,,,,,,,,,,,,,,,,,,,,,,,
,,,,,,,,2023-08-16_08h44.35.569,HF_wild_card,2022.2.4,MacIntel,60.0024001,5ec6e7ee42084e12736ac8d6,64d2fd46c836a06233681665,64dc7e53fbb02c379c4e5772,,,,,,,sngl,resources/DG.BMP,resources/Empty.png,Door2,-0.35496582,0.002739258,1,0,0,0.6413,optionLeft,40,6505,3,36,0,36,0,1,,,,,,,,,,,,,,,,,,,,,,,,,,,,,,,,,,,,,,,
,,,,,,,,2023-08-16_08h44.35.569,HF_wild_card,2022.2.4,MacIntel,60.0024001,5ec6e7ee42084e12736ac8d6,64d2fd46c836a06233681665,64dc7e53fbb02c379c4e5772,,,,,,,decisionTrl,resources/DY.BMP,resources/DR.BMP,Door4,0.406103516,-0.041435547,1,0,0,1.5632,optionRight,60,6565,3,37,0,37,0,1,,,,,,,,,,,,,,,,,,,,,,,,,,,,,,,,,,,,,,,
,,,,,,,,2023-08-16_08h44.35.569,HF_wild_card,2022.2.4,MacIntel,60.0024001,5ec6e7ee42084e12736ac8d6,64d2fd46c836a06233681665,64dc7e53fbb02c379c4e5772,,,,,,,sngl,resources/DBN.BMP,resources/Empty.png,Door1,-0.392041016,0.009345703,1,0,0,0.6175,optionLeft,30,6595,3,38,0,38,0,1,,,,,,,,,,,,,,,,,,,,,,,,,,,,,,,,,,,,,,,
,,,,,,,,2023-08-16_08h44.35.569,HF_wild_card,2022.2.4,MacIntel,60.0024001,5ec6e7ee42084e12736ac8d6,64d2fd46c836a06233681665,64dc7e53fbb02c379c4e5772,,,,,,,decisionTrl,resources/DR.BMP,resources/DY.BMP,Door3,0.389135742,-0.032407227,1,0,0,1.1318,optionRight,70,6665,3,39,0,39,0,1,,,,,,,,,,,,,,,,,,,,,,,,,,,,,,,,,,,,,,,
,,,,,,,,2023-08-16_08h44.35.569,HF_wild_card,2022.2.4,MacIntel,60.0024001,5ec6e7ee42084e12736ac8d6,64d2fd46c836a06233681665,64dc7e53fbb02c379c4e5772,,,,,,,ctch,resources/DR.BMP,resources/DBN.BMP,Door4,-0.381826172,0.002763672,1,0,0,0.7629,optionLeft,80,6745,3,40,0,40,0,1,,,,,,,,,,,,,,,,,,,,,,,,,,,,,,,,,,,,,,,
,,,,,,,,2023-08-16_08h44.35.569,HF_wild_card,2022.2.4,MacIntel,60.0024001,5ec6e7ee42084e12736ac8d6,64d2fd46c836a06233681665,64dc7e53fbb02c379c4e5772,,,,,,,sngl,resources/DY.BMP,resources/Empty.png,Door3,-0.343789063,-0.010859375,1,0,0,0.6513,optionLeft,70,6815,3,41,0,41,0,1,,,,,,,,,,,,,,,,,,,,,,,,,,,,,,,,,,,,,,,
,,,,,,,,2023-08-16_08h44.35.569,HF_wild_card,2022.2.4,MacIntel,60.0024001,5ec6e7ee42084e12736ac8d6,64d2fd46c836a06233681665,64dc7e53fbb02c379c4e5772,,,,,,,decisionTrl,resources/DBN.BMP,resources/DB.BMP,WildCard_NonEx,0.388310547,-0.03831543,1,0,0,1.3666,optionRight,55,6870,3,42,0,42,0,1,,,,,,,,,,,,,,,,,,,,,,,,,,,,,,,,,,,,,,,
,,,,,,,,2023-08-16_08h44.35.569,HF_wild_card,2022.2.4,MacIntel,60.0024001,5ec6e7ee42084e12736ac8d6,64d2fd46c836a06233681665,64dc7e53fbb02c379c4e5772,,,,,,,decisionTrl,resources/DR.BMP,resources/DY.BMP,Door3,0.405390625,-0.007373047,1,0,0,1.3819,optionRight,70,6940,3,43,0,43,0,1,,,,,,,,,,,,,,,,,,,,,,,,,,,,,,,,,,,,,,,
,,,,,,,,2023-08-16_08h44.35.569,HF_wild_card,2022.2.4,MacIntel,60.0024001,5ec6e7ee42084e12736ac8d6,64d2fd46c836a06233681665,64dc7e53fbb02c379c4e5772,,,,,,,,,,,,,,,,,,,,,,,,,,2,0,2,0,1,,,,,,,,,,,,,,,,,,,,,,,,,,,,,,,,,,
,,,,,,,,2023-08-16_08h44.35.569,HF_wild_card,2022.2.4,MacIntel,60.0024001,5ec6e7ee42084e12736ac8d6,64d2fd46c836a06233681665,64dc7e53fbb02c379c4e5772,,,,,,,decisionTrl,resources/DR.BMP,resources/DY.BMP,Door4,-0.33875,4.88281E-05,1,0,0,1.5634,optionLeft,80,7020,4,0,0,0,0,1,,,,,,,,,,,,,,,,,,,,,,,,,,,,,,,,,,,,,,,
,,,,,,,,2023-08-16_08h44.35.569,HF_wild_card,2022.2.4,MacIntel,60.0024001,5ec6e7ee42084e12736ac8d6,64d2fd46c836a06233681665,64dc7e53fbb02c379c4e5772,,,,,,,ctch,resources/DR.BMP,resources/DBN.BMP,Door4,-0.370449219,-0.032915039,1,0,0,0.681,optionLeft,80,7100,4,1,0,1,0,1,,,,,,,,,,,,,,,,,,,,,,,,,,,,,,,,,,,,,,,
,,,,,,,,2023-08-16_08h44.35.569,HF_wild_card,2022.2.4,MacIntel,60.0024001,5ec6e7ee42084e12736ac8d6,64d2fd46c836a06233681665,64dc7e53fbb02c379c4e5772,,,,,,,sngl,resources/Empty.png,resources/DBN.BMP,Door1,0.455234375,0.033818359,1,0,0,0.7494,optionRight,30,7130,4,2,0,2,0,1,,,,,,,,,,,,,,,,,,,,,,,,,,,,,,,,,,,,,,,
,,,,,,,,2023-08-16_08h44.35.569,HF_wild_card,2022.2.4,MacIntel,60.0024001,5ec6e7ee42084e12736ac8d6,64d2fd46c836a06233681665,64dc7e53fbb02c379c4e5772,,,,,,,sngl,resources/DY.BMP,resources/Empty.png,Door3,-0.389580078,0.016220703,1,0,0,0.5495,optionLeft,70,7200,4,3,0,3,0,1,,,,,,,,,,,,,,,,,,,,,,,,,,,,,,,,,,,,,,,
,,,,,,,,2023-08-16_08h44.35.569,HF_wild_card,2022.2.4,MacIntel,60.0024001,5ec6e7ee42084e12736ac8d6,64d2fd46c836a06233681665,64dc7e53fbb02c379c4e5772,,,,,,,sngl,resources/DR.BMP,resources/Empty.png,Door4,-0.47097168,-0.015043945,1,0,0,0.6156,optionLeft,60,7260,4,4,0,4,0,1,,,,,,,,,,,,,,,,,,,,,,,,,,,,,,,,,,,,,,,
,,,,,,,,2023-08-16_08h44.35.569,HF_wild_card,2022.2.4,MacIntel,60.0024001,5ec6e7ee42084e12736ac8d6,64d2fd46c836a06233681665,64dc7e53fbb02c379c4e5772,,,,,,,decisionTrl,resources/DY.BMP,resources/DP.BMP,WildCard_Ex,0.424301758,-0.036616211,1,0,0,1.736,optionRight,5,7265,4,5,0,5,0,1,,,,,,,,,,,,,,,,,,,,,,,,,,,,,,,,,,,,,,,
,,,,,,,,2023-08-16_08h44.35.569,HF_wild_card,2022.2.4,MacIntel,60.0024001,5ec6e7ee42084e12736ac8d6,64d2fd46c836a06233681665,64dc7e53fbb02c379c4e5772,,,,,,,ctch,resources/DY.BMP,resources/DG.BMP,Door3,-0.391401367,-0.014018555,1,0,0,1.0804,optionLeft,70,7335,4,6,0,6,0,1,,,,,,,,,,,,,,,,,,,,,,,,,,,,,,,,,,,,,,,
,,,,,,,,2023-08-16_08h44.35.569,HF_wild_card,2022.2.4,MacIntel,60.0024001,5ec6e7ee42084e12736ac8d6,64d2fd46c836a06233681665,64dc7e53fbb02c379c4e5772,,,,,,,decisionTrl,resources/DG.BMP,resources/DP.BMP,Door2,-0.407763672,-0.019726562,1,0,0,1.5395,optionLeft,40,7375,4,7,0,7,0,1,,,,,,,,,,,,,,,,,,,,,,,,,,,,,,,,,,,,,,,
,,,,,,,,2023-08-16_08h44.35.569,HF_wild_card,2022.2.4,MacIntel,60.0024001,5ec6e7ee42084e12736ac8d6,64d2fd46c836a06233681665,64dc7e53fbb02c379c4e5772,,,,,,,decisionTrl,resources/DG.BMP,resources/DBN.BMP,Door2,-0.418999023,-0.000834961,1,0,0,0.8308,optionLeft,20,7395,4,8,0,8,0,1,,,,,,,,,,,,,,,,,,,,,,,,,,,,,,,,,,,,,,,
,,,,,,,,2023-08-16_08h44.35.569,HF_wild_card,2022.2.4,MacIntel,60.0024001,5ec6e7ee42084e12736ac8d6,64d2fd46c836a06233681665,64dc7e53fbb02c379c4e5772,,,,,,,decisionTrl,resources/DP.BMP,resources/DR.BMP,Door4,0.46300293,-0.016586914,1,0,0,1.0485,optionRight,60,7455,4,9,0,9,0,1,,,,,,,,,,,,,,,,,,,,,,,,,,,,,,,,,,,,,,,
,,,,,,,,2023-08-16_08h44.35.569,HF_wild_card,2022.2.4,MacIntel,60.0024001,5ec6e7ee42084e12736ac8d6,64d2fd46c836a06233681665,64dc7e53fbb02c379c4e5772,,,,,,,decisionTrl,resources/DBN.BMP,resources/DG.BMP,Door1,-0.369775391,-0.001728516,1,0,0,1.8958,optionLeft,30,7485,4,10,0,10,0,1,,,,,,,,,,,,,,,,,,,,,,,,,,,,,,,,,,,,,,,
,,,,,,,,2023-08-16_08h44.35.569,HF_wild_card,2022.2.4,MacIntel,60.0024001,5ec6e7ee42084e12736ac8d6,64d2fd46c836a06233681665,64dc7e53fbb02c379c4e5772,,,,,,,sngl,resources/Empty.png,resources/DY.BMP,Door3,0.383984375,-0.024433594,1,0,0,0.6793,optionRight,70,7555,4,11,0,11,0,1,,,,,,,,,,,,,,,,,,,,,,,,,,,,,,,,,,,,,,,
,,,,,,,,2023-08-16_08h44.35.569,HF_wild_card,2022.2.4,MacIntel,60.0024001,5ec6e7ee42084e12736ac8d6,64d2fd46c836a06233681665,64dc7e53fbb02c379c4e5772,,,,,,,sngl,resources/Empty.png,resources/DP.BMP,WildCard_Ex,0.481694336,-0.027006836,1,0,0,0.6645,optionRight,95,7650,4,12,0,12,0,1,,,,,,,,,,,,,,,,,,,,,,,,,,,,,,,,,,,,,,,
,,,,,,,,2023-08-16_08h44.35.569,HF_wild_card,2022.2.4,MacIntel,60.0024001,5ec6e7ee42084e12736ac8d6,64d2fd46c836a06233681665,64dc7e53fbb02c379c4e5772,,,,,,,sngl,resources/DP.BMP,resources/Empty.png,WildCard_Ex,-0.43121582,-0.028251953,1,0,0,0.633,optionLeft,5,7655,4,13,0,13,0,1,,,,,,,,,,,,,,,,,,,,,,,,,,,,,,,,,,,,,,,
,,,,,,,,2023-08-16_08h44.35.569,HF_wild_card,2022.2.4,MacIntel,60.0024001,5ec6e7ee42084e12736ac8d6,64d2fd46c836a06233681665,64dc7e53fbb02c379c4e5772,,,,,,,decisionTrl,resources/DP.BMP,resources/DG.BMP,WildCard_Ex,-0.356791992,-0.016845703,1,0,0,0.7978,optionLeft,5,7660,4,14,0,14,0,1,,,,,,,,,,,,,,,,,,,,,,,,,,,,,,,,,,,,,,,
,,,,,,,,2023-08-16_08h44.35.569,HF_wild_card,2022.2.4,MacIntel,60.0024001,5ec6e7ee42084e12736ac8d6,64d2fd46c836a06233681665,64dc7e53fbb02c379c4e5772,,,,,,,ctch,resources/DBN.BMP,resources/DR.BMP,Door4,0.432788086,-0.012460937,1,0,0,0.8646,optionRight,80,7740,4,15,0,15,0,1,,,,,,,,,,,,,,,,,,,,,,,,,,,,,,,,,,,,,,,
,,,,,,,,2023-08-16_08h44.35.569,HF_wild_card,2022.2.4,MacIntel,60.0024001,5ec6e7ee42084e12736ac8d6,64d2fd46c836a06233681665,64dc7e53fbb02c379c4e5772,,,,,,,decisionTrl,resources/DP.BMP,resources/DBN.BMP,Door1,0.370585938,0.027587891,1,0,0,1.9832,optionRight,30,7770,4,16,0,16,0,1,,,,,,,,,,,,,,,,,,,,,,,,,,,,,,,,,,,,,,,
,,,,,,,,2023-08-16_08h44.35.569,HF_wild_card,2022.2.4,MacIntel,60.0024001,5ec6e7ee42084e12736ac8d6,64d2fd46c836a06233681665,64dc7e53fbb02c379c4e5772,,,,,,,decisionTrl,resources/DR.BMP,resources/DP.BMP,WildCard_Ex,0.323120117,-0.011132813,1,0,0,0.8816,optionRight,95,7865,4,17,0,17,0,1,,,,,,,,,,,,,,,,,,,,,,,,,,,,,,,,,,,,,,,
,,,,,,,,2023-08-16_08h44.35.569,HF_wild_card,2022.2.4,MacIntel,60.0024001,5ec6e7ee42084e12736ac8d6,64d2fd46c836a06233681665,64dc7e53fbb02c379c4e5772,,,,,,,decisionTrl,resources/DR.BMP,resources/DY.BMP,Door3,0.426767578,-0.038540039,1,0,0,1.5133,optionRight,70,7935,4,18,0,18,0,1,,,,,,,,,,,,,,,,,,,,,,,,,,,,,,,,,,,,,,,
,,,,,,,,2023-08-16_08h44.35.569,HF_wild_card,2022.2.4,MacIntel,60.0024001,5ec6e7ee42084e12736ac8d6,64d2fd46c836a06233681665,64dc7e53fbb02c379c4e5772,,,,,,,ctch,resources/DG.BMP,resources/DY.BMP,Door3,0.389116211,-0.016894531,1,0,0,0.7826,optionRight,70,8005,4,19,0,19,0,1,,,,,,,,,,,,,,,,,,,,,,,,,,,,,,,,,,,,,,,
,,,,,,,,2023-08-16_08h44.35.569,HF_wild_card,2022.2.4,MacIntel,60.0024001,5ec6e7ee42084e12736ac8d6,64d2fd46c836a06233681665,64dc7e53fbb02c379c4e5772,,,,,,,ctch,resources/DY.BMP,resources/DG.BMP,Door3,-0.315332031,-0.028012695,1,0,0,1.131,optionLeft,70,8075,4,20,0,20,0,1,,,,,,,,,,,,,,,,,,,,,,,,,,,,,,,,,,,,,,,
,,,,,,,,2023-08-16_08h44.35.569,HF_wild_card,2022.2.4,MacIntel,60.0024001,5ec6e7ee42084e12736ac8d6,64d2fd46c836a06233681665,64dc7e53fbb02c379c4e5772,,,,,,,sngl,resources/Empty.png,resources/DR.BMP,Door4,0.436787109,0.007368164,1,0,0,0.8999,optionRight,80,8155,4,21,0,21,0,1,,,,,,,,,,,,,,,,,,,,,,,,,,,,,,,,,,,,,,,
,,,,,,,,2023-08-16_08h44.35.569,HF_wild_card,2022.2.4,MacIntel,60.0024001,5ec6e7ee42084e12736ac8d6,64d2fd46c836a06233681665,64dc7e53fbb02c379c4e5772,,,,,,,decisionTrl,resources/DG.BMP,resources/DBN.BMP,Door1,0.354199219,-0.016264648,1,0,0,1.7475,optionRight,30,8185,4,22,0,22,0,1,,,,,,,,,,,,,,,,,,,,,,,,,,,,,,,,,,,,,,,
,,,,,,,,2023-08-16_08h44.35.569,HF_wild_card,2022.2.4,MacIntel,60.0024001,5ec6e7ee42084e12736ac8d6,64d2fd46c836a06233681665,64dc7e53fbb02c379c4e5772,,,,,,,sngl,resources/Empty.png,resources/DG.BMP,Door2,0.469287109,-0.040932617,1,0,0,0.7626,optionRight,40,8225,4,23,0,23,0,1,,,,,,,,,,,,,,,,,,,,,,,,,,,,,,,,,,,,,,,
,,,,,,,,2023-08-16_08h44.35.569,HF_wild_card,2022.2.4,MacIntel,60.0024001,5ec6e7ee42084e12736ac8d6,64d2fd46c836a06233681665,64dc7e53fbb02c379c4e5772,,,,,,,decisionTrl,resources/DG.BMP,resources/DBN.BMP,Door1,0.395917969,0.002163086,1,0,0,1.0692,optionRight,30,8255,4,24,0,24,0,1,,,,,,,,,,,,,,,,,,,,,,,,,,,,,,,,,,,,,,,
,,,,,,,,2023-08-16_08h44.35.569,HF_wild_card,2022.2.4,MacIntel,60.0024001,5ec6e7ee42084e12736ac8d6,64d2fd46c836a06233681665,64dc7e53fbb02c379c4e5772,,,,,,,decisionTrl,resources/DP.BMP,resources/DY.BMP,Door3,0.384755859,-0.026313477,1,0,0,1.4644,optionRight,70,8325,4,25,0,25,0,1,,,,,,,,,,,,,,,,,,,,,,,,,,,,,,,,,,,,,,,
,,,,,,,,2023-08-16_08h44.35.569,HF_wild_card,2022.2.4,MacIntel,60.0024001,5ec6e7ee42084e12736ac8d6,64d2fd46c836a06233681665,64dc7e53fbb02c379c4e5772,,,,,,,decisionTrl,resources/DBN.BMP,resources/DG.BMP,Door2,0.456586914,-0.022651367,1,0,0,0.6994,optionRight,40,8365,4,26,0,26,0,1,,,,,,,,,,,,,,,,,,,,,,,,,,,,,,,,,,,,,,,
,,,,,,,,2023-08-16_08h44.35.569,HF_wild_card,2022.2.4,MacIntel,60.0024001,5ec6e7ee42084e12736ac8d6,64d2fd46c836a06233681665,64dc7e53fbb02c379c4e5772,,,,,,,decisionTrl,resources/DBN.BMP,resources/DG.BMP,Door2,0.473427734,-0.037851562,1,0,0,0.6145,optionRight,20,8385,4,27,0,27,0,1,,,,,,,,,,,,,,,,,,,,,,,,,,,,,,,,,,,,,,,
,,,,,,,,2023-08-16_08h44.35.569,HF_wild_card,2022.2.4,MacIntel,60.0024001,5ec6e7ee42084e12736ac8d6,64d2fd46c836a06233681665,64dc7e53fbb02c379c4e5772,,,,,,,ctch,resources/DBN.BMP,resources/DR.BMP,Door4,0.435385742,-0.024106445,1,0,0,0.8152,optionRight,80,8465,4,28,0,28,0,1,,,,,,,,,,,,,,,,,,,,,,,,,,,,,,,,,,,,,,,
,,,,,,,,2023-08-16_08h44.35.569,HF_wild_card,2022.2.4,MacIntel,60.0024001,5ec6e7ee42084e12736ac8d6,64d2fd46c836a06233681665,64dc7e53fbb02c379c4e5772,,,,,,,ctch,resources/DR.BMP,resources/DBN.BMP,Door4,-0.380302734,-0.038271484,1,0,0,1.5998,optionLeft,60,8525,4,29,0,29,0,1,,,,,,,,,,,,,,,,,,,,,,,,,,,,,,,,,,,,,,,
,,,,,,,,2023-08-16_08h44.35.569,HF_wild_card,2022.2.4,MacIntel,60.0024001,5ec6e7ee42084e12736ac8d6,64d2fd46c836a06233681665,64dc7e53fbb02c379c4e5772,,,,,,,decisionTrl,resources/DY.BMP,resources/DR.BMP,Door4,0.372036133,-0.004907227,1,0,0,1.099,optionRight,80,8605,4,30,0,30,0,1,,,,,,,,,,,,,,,,,,,,,,,,,,,,,,,,,,,,,,,
,,,,,,,,2023-08-16_08h44.35.569,HF_wild_card,2022.2.4,MacIntel,60.0024001,5ec6e7ee42084e12736ac8d6,64d2fd46c836a06233681665,64dc7e53fbb02c379c4e5772,,,,,,,decisionTrl,resources/DY.BMP,resources/DR.BMP,Door4,0.383364258,-0.006479492,1,0,0,1.4944,optionRight,60,8665,4,31,0,31,0,1,,,,,,,,,,,,,,,,,,,,,,,,,,,,,,,,,,,,,,,
,,,,,,,,2023-08-16_08h44.35.569,HF_wild_card,2022.2.4,MacIntel,60.0024001,5ec6e7ee42084e12736ac8d6,64d2fd46c836a06233681665,64dc7e53fbb02c379c4e5772,,,,,,,sngl,resources/DBN.BMP,resources/Empty.png,Door1,-0.405292969,-0.013066406,1,0,0,0.7131,optionLeft,30,8695,4,32,0,32,0,1,,,,,,,,,,,,,,,,,,,,,,,,,,,,,,,,,,,,,,,
,,,,,,,,2023-08-16_08h44.35.569,HF_wild_card,2022.2.4,MacIntel,60.0024001,5ec6e7ee42084e12736ac8d6,64d2fd46c836a06233681665,64dc7e53fbb02c379c4e5772,,,,,,,sngl,resources/DG.BMP,resources/Empty.png,Door2,-0.430488281,-0.028540039,1,0,0,0.6978,optionLeft,20,8715,4,33,0,33,0,1,,,,,,,,,,,,,,,,,,,,,,,,,,,,,,,,,,,,,,,
,,,,,,,,2023-08-16_08h44.35.569,HF_wild_card,2022.2.4,MacIntel,60.0024001,5ec6e7ee42084e12736ac8d6,64d2fd46c836a06233681665,64dc7e53fbb02c379c4e5772,,,,,,,decisionTrl,resources/DBN.BMP,resources/DG.BMP,Door2,0.383212891,-0.023598633,1,0,0,0.7733,optionRight,20,8735,4,34,0,34,0,1,,,,,,,,,,,,,,,,,,,,,,,,,,,,,,,,,,,,,,,
,,,,,,,,2023-08-16_08h44.35.569,HF_wild_card,2022.2.4,MacIntel,60.0024001,5ec6e7ee42084e12736ac8d6,64d2fd46c836a06233681665,64dc7e53fbb02c379c4e5772,,,,,,,sngl,resources/DP.BMP,resources/Empty.png,WildCard_Ex,-0.350834961,0.000913086,1,0,0,0.846,optionLeft,95,8830,4,35,0,35,0,1,,,,,,,,,,,,,,,,,,,,,,,,,,,,,,,,,,,,,,,
,,,,,,,,2023-08-16_08h44.35.569,HF_wild_card,2022.2.4,MacIntel,60.0024001,5ec6e7ee42084e12736ac8d6,64d2fd46c836a06233681665,64dc7e53fbb02c379c4e5772,,,,,,,ctch,resources/DG.BMP,resources/DY.BMP,Door3,0.389814453,-0.01465332,1,0,0,0.9007,optionRight,70,8900,4,36,0,36,0,1,,,,,,,,,,,,,,,,,,,,,,,,,,,,,,,,,,,,,,,
,,,,,,,,2023-08-16_08h44.35.569,HF_wild_card,2022.2.4,MacIntel,60.0024001,5ec6e7ee42084e12736ac8d6,64d2fd46c836a06233681665,64dc7e53fbb02c379c4e5772,,,,,,,decisionTrl,resources/DG.BMP,resources/DBN.BMP,Door1,0.395229492,0.003520508,1,0,0,1.3651,optionRight,30,8930,4,37,0,37,0,1,,,,,,,,,,,,,,,,,,,,,,,,,,,,,,,,,,,,,,,
,,,,,,,,2023-08-16_08h44.35.569,HF_wild_card,2022.2.4,MacIntel,60.0024001,5ec6e7ee42084e12736ac8d6,64d2fd46c836a06233681665,64dc7e53fbb02c379c4e5772,,,,,,,decisionTrl,resources/DY.BMP,resources/DR.BMP,Door4,0.411689453,-0.016401367,1,0,0,1.0152,optionRight,80,9010,4,38,0,38,0,1,,,,,,,,,,,,,,,,,,,,,,,,,,,,,,,,,,,,,,,
,,,,,,,,2023-08-16_08h44.35.569,HF_wild_card,2022.2.4,MacIntel,60.0024001,5ec6e7ee42084e12736ac8d6,64d2fd46c836a06233681665,64dc7e53fbb02c379c4e5772,,,,,,,decisionTrl,resources/DY.BMP,resources/DR.BMP,Door4,0.411445312,-0.074228516,1,0,0,0.6815,optionRight,60,9070,4,39,0,39,0,1,,,,,,,,,,,,,,,,,,,,,,,,,,,,,,,,,,,,,,,
,,,,,,,,2023-08-16_08h44.35.569,HF_wild_card,2022.2.4,MacIntel,60.0024001,5ec6e7ee42084e12736ac8d6,64d2fd46c836a06233681665,64dc7e53fbb02c379c4e5772,,,,,,,decisionTrl,resources/DR.BMP,resources/DY.BMP,Door3,0.456069336,-0.043237305,1,0,0,0.7486,optionRight,70,9140,4,40,0,40,0,1,,,,,,,,,,,,,,,,,,,,,,,,,,,,,,,,,,,,,,,
,,,,,,,,2023-08-16_08h44.35.569,HF_wild_card,2022.2.4,MacIntel,60.0024001,5ec6e7ee42084e12736ac8d6,64d2fd46c836a06233681665,64dc7e53fbb02c379c4e5772,,,,,,,decisionTrl,resources/DR.BMP,resources/DY.BMP,Door3,0.411044922,-0.006933594,1,0,0,1.2818,optionRight,70,9210,4,41,0,41,0,1,,,,,,,,,,,,,,,,,,,,,,,,,,,,,,,,,,,,,,,
,,,,,,,,2023-08-16_08h44.35.569,HF_wild_card,2022.2.4,MacIntel,60.0024001,5ec6e7ee42084e12736ac8d6,64d2fd46c836a06233681665,64dc7e53fbb02c379c4e5772,,,,,,,sngl,resources/Empty.png,resources/DP.BMP,WildCard_Ex,0.417197266,-0.032509766,1,0,0,0.8639,optionRight,5,9215,4,42,0,42,0,1,,,,,,,,,,,,,,,,,,,,,,,,,,,,,,,,,,,,,,,
,,,,,,,,2023-08-16_08h44.35.569,HF_wild_card,2022.2.4,MacIntel,60.0024001,5ec6e7ee42084e12736ac8d6,64d2fd46c836a06233681665,64dc7e53fbb02c379c4e5772,,,,,,,decisionTrl,resources/DBN.BMP,resources/DP.BMP,Door1,-0.383876953,-0.008623047,1,0,0,1.4495,optionLeft,30,9245,4,43,0,43,0,1,,,,,,,,,,,,,,,,,,,,,,,,,,,,,,,,,,,,,,,
,,,,,,,,2023-08-16_08h44.35.569,HF_wild_card,2022.2.4,MacIntel,60.0024001,5ec6e7ee42084e12736ac8d6,64d2fd46c836a06233681665,64dc7e53fbb02c379c4e5772,,,,,,,,,,,,,,,,,,,,,,,,,,3,0,3,0,1,,,,,,,,,,,,,,,,,,,,,,,,,,,,,,,,,,
,,,,,,,,2023-08-16_08h44.35.569,HF_wild_card,2022.2.4,MacIntel,60.0024001,5ec6e7ee42084e12736ac8d6,64d2fd46c836a06233681665,64dc7e53fbb02c379c4e5772,,,,,,,decisionTrl,resources/DR.BMP,resources/DP.BMP,WildCard_Ex,0.417368164,-0.008813477,1,0,0,0.7611,optionRight,5,9250,5,0,0,0,0,1,,,,,,,,,,,,,,,,,,,,,,,,,,,,,,,,,,,,,,,
,,,,,,,,2023-08-16_08h44.35.569,HF_wild_card,2022.2.4,MacIntel,60.0024001,5ec6e7ee42084e12736ac8d6,64d2fd46c836a06233681665,64dc7e53fbb02c379c4e5772,,,,,,,decisionTrl,resources/DR.BMP,resources/DY.BMP,Door3,0.433256836,0.001689453,1,0,0,0.8651,optionRight,70,9320,5,1,0,1,0,1,,,,,,,,,,,,,,,,,,,,,,,,,,,,,,,,,,,,,,,
,,,,,,,,2023-08-16_08h44.35.569,HF_wild_card,2022.2.4,MacIntel,60.0024001,5ec6e7ee42084e12736ac8d6,64d2fd46c836a06233681665,64dc7e53fbb02c379c4e5772,,,,,,,sngl,resources/DG.BMP,resources/Empty.png,Door2,-0.351137695,0.022368164,1,0,0,0.6986,optionLeft,40,9360,5,2,0,2,0,1,,,,,,,,,,,,,,,,,,,,,,,,,,,,,,,,,,,,,,,
,,,,,,,,2023-08-16_08h44.35.569,HF_wild_card,2022.2.4,MacIntel,60.0024001,5ec6e7ee42084e12736ac8d6,64d2fd46c836a06233681665,64dc7e53fbb02c379c4e5772,,,,,,,ctch,resources/DBN.BMP,resources/DR.BMP,Door4,0.379433594,0,1,0,0,0.9819,optionRight,80,9440,5,3,0,3,0,1,,,,,,,,,,,,,,,,,,,,,,,,,,,,,,,,,,,,,,,
,,,,,,,,2023-08-16_08h44.35.569,HF_wild_card,2022.2.4,MacIntel,60.0024001,5ec6e7ee42084e12736ac8d6,64d2fd46c836a06233681665,64dc7e53fbb02c379c4e5772,,,,,,,sngl,resources/Empty.png,resources/DBN.BMP,Door1,0.412124023,0.00612793,1,0,0,0.8492,optionRight,30,9470,5,4,0,4,0,1,,,,,,,,,,,,,,,,,,,,,,,,,,,,,,,,,,,,,,,
,,,,,,,,2023-08-16_08h44.35.569,HF_wild_card,2022.2.4,MacIntel,60.0024001,5ec6e7ee42084e12736ac8d6,64d2fd46c836a06233681665,64dc7e53fbb02c379c4e5772,,,,,,,decisionTrl,resources/DBN.BMP,resources/DG.BMP,Door2,0.383198242,-0.011723633,1,0,0,1.0982,optionRight,20,9490,5,5,0,5,0,1,,,,,,,,,,,,,,,,,,,,,,,,,,,,,,,,,,,,,,,
,,,,,,,,2023-08-16_08h44.35.569,HF_wild_card,2022.2.4,MacIntel,60.0024001,5ec6e7ee42084e12736ac8d6,64d2fd46c836a06233681665,64dc7e53fbb02c379c4e5772,,,,,,,ctch,resources/DR.BMP,resources/DBN.BMP,Door4,-0.40159668,-0.032167969,1,0,0,1.5154,optionLeft,60,9550,5,6,0,6,0,1,,,,,,,,,,,,,,,,,,,,,,,,,,,,,,,,,,,,,,,
,,,,,,,,2023-08-16_08h44.35.569,HF_wild_card,2022.2.4,MacIntel,60.0024001,5ec6e7ee42084e12736ac8d6,64d2fd46c836a06233681665,64dc7e53fbb02c379c4e5772,,,,,,,decisionTrl,resources/DY.BMP,resources/DR.BMP,Door4,0.376411133,-0.023227539,1,0,0,0.8917,optionRight,60,9610,5,7,0,7,0,1,,,,,,,,,,,,,,,,,,,,,,,,,,,,,,,,,,,,,,,
,,,,,,,,2023-08-16_08h44.35.569,HF_wild_card,2022.2.4,MacIntel,60.0024001,5ec6e7ee42084e12736ac8d6,64d2fd46c836a06233681665,64dc7e53fbb02c379c4e5772,,,,,,,decisionTrl,resources/DY.BMP,resources/DP.BMP,WildCard_Ex,0.420439453,-0.04159668,1,0,0,0.9653,optionRight,5,9615,5,8,0,8,0,1,,,,,,,,,,,,,,,,,,,,,,,,,,,,,,,,,,,,,,,
,,,,,,,,2023-08-16_08h44.35.569,HF_wild_card,2022.2.4,MacIntel,60.0024001,5ec6e7ee42084e12736ac8d6,64d2fd46c836a06233681665,64dc7e53fbb02c379c4e5772,,,,,,,sngl,resources/DP.BMP,resources/Empty.png,WildCard_Ex,-0.375366211,-0.017294922,1,0,0,0.8189,optionLeft,95,9710,5,9,0,9,0,1,,,,,,,,,,,,,,,,,,,,,,,,,,,,,,,,,,,,,,,
,,,,,,,,2023-08-16_08h44.35.569,HF_wild_card,2022.2.4,MacIntel,60.0024001,5ec6e7ee42084e12736ac8d6,64d2fd46c836a06233681665,64dc7e53fbb02c379c4e5772,,,,,,,decisionTrl,resources/DG.BMP,resources/DBN.BMP,Door1,0.373447266,-0.02769043,1,0,0,1.6502,optionRight,30,9740,5,10,0,10,0,1,,,,,,,,,,,,,,,,,,,,,,,,,,,,,,,,,,,,,,,
,,,,,,,,2023-08-16_08h44.35.569,HF_wild_card,2022.2.4,MacIntel,60.0024001,5ec6e7ee42084e12736ac8d6,64d2fd46c836a06233681665,64dc7e53fbb02c379c4e5772,,,,,,,sngl,resources/Empty.png,resources/DP.BMP,WildCard_Ex,0.403085937,-0.014594727,1,0,0,0.7666,optionRight,5,9745,5,11,0,11,0,1,,,,,,,,,,,,,,,,,,,,,,,,,,,,,,,,,,,,,,,
,,,,,,,,2023-08-16_08h44.35.569,HF_wild_card,2022.2.4,MacIntel,60.0024001,5ec6e7ee42084e12736ac8d6,64d2fd46c836a06233681665,64dc7e53fbb02c379c4e5772,,,,,,,sngl,resources/Empty.png,resources/DG.BMP,Door2,0.366401367,-0.019077148,1,0,0,0.7487,optionRight,20,9765,5,12,0,12,0,1,,,,,,,,,,,,,,,,,,,,,,,,,,,,,,,,,,,,,,,
,,,,,,,,2023-08-16_08h44.35.569,HF_wild_card,2022.2.4,MacIntel,60.0024001,5ec6e7ee42084e12736ac8d6,64d2fd46c836a06233681665,64dc7e53fbb02c379c4e5772,,,,,,,ctch,resources/DBN.BMP,resources/DR.BMP,Door4,0.383256836,-0.024262695,1,0,0,1.3339,optionRight,60,9825,5,13,0,13,0,1,,,,,,,,,,,,,,,,,,,,,,,,,,,,,,,,,,,,,,,
,,,,,,,,2023-08-16_08h44.35.569,HF_wild_card,2022.2.4,MacIntel,60.0024001,5ec6e7ee42084e12736ac8d6,64d2fd46c836a06233681665,64dc7e53fbb02c379c4e5772,,,,,,,sngl,resources/DP.BMP,resources/Empty.png,WildCard_Ex,-0.372485352,-0.036494141,1,0,0,0.7172,optionLeft,5,9830,5,14,0,14,0,1,,,,,,,,,,,,,,,,,,,,,,,,,,,,,,,,,,,,,,,
,,,,,,,,2023-08-16_08h44.35.569,HF_wild_card,2022.2.4,MacIntel,60.0024001,5ec6e7ee42084e12736ac8d6,64d2fd46c836a06233681665,64dc7e53fbb02c379c4e5772,,,,,,,sngl,resources/Empty.png,resources/DP.BMP,WildCard_Ex,0.469682617,-0.039038086,1,0,0,0.6654,optionRight,95,9925,5,15,0,15,0,1,,,,,,,,,,,,,,,,,,,,,,,,,,,,,,,,,,,,,,,
,,,,,,,,2023-08-16_08h44.35.569,HF_wild_card,2022.2.4,MacIntel,60.0024001,5ec6e7ee42084e12736ac8d6,64d2fd46c836a06233681665,64dc7e53fbb02c379c4e5772,,,,,,,sngl,resources/Empty.png,resources/DY.BMP,Door3,0.394106445,-0.015932617,1,0,0,0.7333,optionRight,70,9995,5,16,0,16,0,1,,,,,,,,,,,,,,,,,,,,,,,,,,,,,,,,,,,,,,,
,,,,,,,,2023-08-16_08h44.35.569,HF_wild_card,2022.2.4,MacIntel,60.0024001,5ec6e7ee42084e12736ac8d6,64d2fd46c836a06233681665,64dc7e53fbb02c379c4e5772,,,,,,,decisionTrl,resources/DR.BMP,resources/DY.BMP,Door4,-0.400444336,-0.017319336,1,0,0,1.5625,optionLeft,60,10055,5,17,0,17,0,1,,,,,,,,,,,,,,,,,,,,,,,,,,,,,,,,,,,,,,,
,,,,,,,,2023-08-16_08h44.35.569,HF_wild_card,2022.2.4,MacIntel,60.0024001,5ec6e7ee42084e12736ac8d6,64d2fd46c836a06233681665,64dc7e53fbb02c379c4e5772,,,,,,,decisionTrl,resources/DP.BMP,resources/DBN.BMP,WildCard_Ex,-0.373486328,-0.016157227,1,0,0,1.3317,optionLeft,95,10150,5,18,0,18,0,1,,,,,,,,,,,,,,,,,,,,,,,,,,,,,,,,,,,,,,,
,,,,,,,,2023-08-16_08h44.35.569,HF_wild_card,2022.2.4,MacIntel,60.0024001,5ec6e7ee42084e12736ac8d6,64d2fd46c836a06233681665,64dc7e53fbb02c379c4e5772,,,,,,,ctch,resources/DG.BMP,resources/DY.BMP,Door3,0.369189453,-0.053613281,1,0,0,0.9495,optionRight,70,10220,5,19,0,19,0,1,,,,,,,,,,,,,,,,,,,,,,,,,,,,,,,,,,,,,,,
,,,,,,,,2023-08-16_08h44.35.569,HF_wild_card,2022.2.4,MacIntel,60.0024001,5ec6e7ee42084e12736ac8d6,64d2fd46c836a06233681665,64dc7e53fbb02c379c4e5772,,,,,,,decisionTrl,resources/DY.BMP,resources/DR.BMP,Door4,0.410527344,0.003891602,1,0,0,0.9329,optionRight,80,10300,5,20,0,20,0,1,,,,,,,,,,,,,,,,,,,,,,,,,,,,,,,,,,,,,,,
,,,,,,,,2023-08-16_08h44.35.569,HF_wild_card,2022.2.4,MacIntel,60.0024001,5ec6e7ee42084e12736ac8d6,64d2fd46c836a06233681665,64dc7e53fbb02c379c4e5772,,,,,,,decisionTrl,resources/DBN.BMP,resources/DP.BMP,WildCard_Ex,0.396191406,-0.037451172,1,0,0,1.297,optionRight,5,10305,5,21,0,21,0,1,,,,,,,,,,,,,,,,,,,,,,,,,,,,,,,,,,,,,,,
,,,,,,,,2023-08-16_08h44.35.569,HF_wild_card,2022.2.4,MacIntel,60.0024001,5ec6e7ee42084e12736ac8d6,64d2fd46c836a06233681665,64dc7e53fbb02c379c4e5772,,,,,,,decisionTrl,resources/DG.BMP,resources/DBN.BMP,Door1,0.369262695,0.004541016,1,0,0,1.5318,optionRight,30,10335,5,22,0,22,0,1,,,,,,,,,,,,,,,,,,,,,,,,,,,,,,,,,,,,,,,
,,,,,,,,2023-08-16_08h44.35.569,HF_wild_card,2022.2.4,MacIntel,60.0024001,5ec6e7ee42084e12736ac8d6,64d2fd46c836a06233681665,64dc7e53fbb02c379c4e5772,,,,,,,sngl,resources/DBN.BMP,resources/Empty.png,Door1,-0.360761719,-0.005585937,1,0,0,0.6675,optionLeft,30,10365,5,23,0,23,0,1,,,,,,,,,,,,,,,,,,,,,,,,,,,,,,,,,,,,,,,
,,,,,,,,2023-08-16_08h44.35.569,HF_wild_card,2022.2.4,MacIntel,60.0024001,5ec6e7ee42084e12736ac8d6,64d2fd46c836a06233681665,64dc7e53fbb02c379c4e5772,,,,,,,sngl,resources/DY.BMP,resources/Empty.png,Door3,-0.330234375,-0.011430664,1,0,0,0.7823,optionLeft,70,10435,5,24,0,24,0,1,,,,,,,,,,,,,,,,,,,,,,,,,,,,,,,,,,,,,,,
,,,,,,,,2023-08-16_08h44.35.569,HF_wild_card,2022.2.4,MacIntel,60.0024001,5ec6e7ee42084e12736ac8d6,64d2fd46c836a06233681665,64dc7e53fbb02c379c4e5772,,,,,,,decisionTrl,resources/DP.BMP,resources/DR.BMP,WildCard_Ex,-0.374482422,-0.012641602,1,0,0,1.0494,optionLeft,95,10530,5,25,0,25,0,1,,,,,,,,,,,,,,,,,,,,,,,,,,,,,,,,,,,,,,,
,,,,,,,,2023-08-16_08h44.35.569,HF_wild_card,2022.2.4,MacIntel,60.0024001,5ec6e7ee42084e12736ac8d6,64d2fd46c836a06233681665,64dc7e53fbb02c379c4e5772,,,,,,,ctch,resources/DR.BMP,resources/DBN.BMP,Door4,-0.404667969,-0.016669922,1,0,0,0.9317,optionLeft,80,10610,5,26,0,26,0,1,,,,,,,,,,,,,,,,,,,,,,,,,,,,,,,,,,,,,,,
,,,,,,,,2023-08-16_08h44.35.569,HF_wild_card,2022.2.4,MacIntel,60.0024001,5ec6e7ee42084e12736ac8d6,64d2fd46c836a06233681665,64dc7e53fbb02c379c4e5772,,,,,,,decisionTrl,resources/DG.BMP,resources/DBN.BMP,Door1,0.37402832,-0.00175293,1,0,0,1.3175,optionRight,30,10640,5,27,0,27,0,1,,,,,,,,,,,,,,,,,,,,,,,,,,,,,,,,,,,,,,,
,,,,,,,,2023-08-16_08h44.35.569,HF_wild_card,2022.2.4,MacIntel,60.0024001,5ec6e7ee42084e12736ac8d6,64d2fd46c836a06233681665,64dc7e53fbb02c379c4e5772,,,,,,,ctch,resources/DY.BMP,resources/DG.BMP,Door3,-0.389458008,-0.036938477,1,0,0,1.2664,optionLeft,70,10710,5,28,0,28,0,1,,,,,,,,,,,,,,,,,,,,,,,,,,,,,,,,,,,,,,,
,,,,,,,,2023-08-16_08h44.35.569,HF_wild_card,2022.2.4,MacIntel,60.0024001,5ec6e7ee42084e12736ac8d6,64d2fd46c836a06233681665,64dc7e53fbb02c379c4e5772,,,,,,,decisionTrl,resources/DP.BMP,resources/DY.BMP,WildCard_Ex,-0.380976563,-0.028789063,1,0,0,1.4512,optionLeft,95,10805,5,29,0,29,0,1,,,,,,,,,,,,,,,,,,,,,,,,,,,,,,,,,,,,,,,
,,,,,,,,2023-08-16_08h44.35.569,HF_wild_card,2022.2.4,MacIntel,60.0024001,5ec6e7ee42084e12736ac8d6,64d2fd46c836a06233681665,64dc7e53fbb02c379c4e5772,,,,,,,decisionTrl,resources/DP.BMP,resources/DG.BMP,WildCard_Ex,-0.383398438,-0.002646484,1,0,0,0.8962,optionLeft,95,10900,5,30,0,30,0,1,,,,,,,,,,,,,,,,,,,,,,,,,,,,,,,,,,,,,,,
,,,,,,,,2023-08-16_08h44.35.569,HF_wild_card,2022.2.4,MacIntel,60.0024001,5ec6e7ee42084e12736ac8d6,64d2fd46c836a06233681665,64dc7e53fbb02c379c4e5772,,,,,,,decisionTrl,resources/DG.BMP,resources/DBN.BMP,Door2,-0.378266602,-0.036987305,1,0,0,1.2141,optionLeft,20,10920,5,31,0,31,0,1,,,,,,,,,,,,,,,,,,,,,,,,,,,,,,,,,,,,,,,
,,,,,,,,2023-08-16_08h44.35.569,HF_wild_card,2022.2.4,MacIntel,60.0024001,5ec6e7ee42084e12736ac8d6,64d2fd46c836a06233681665,64dc7e53fbb02c379c4e5772,,,,,,,decisionTrl,resources/DY.BMP,resources/DR.BMP,Door4,0.376245117,-0.025742187,1,0,0,1.6973,optionRight,80,11000,5,32,0,32,0,1,,,,,,,,,,,,,,,,,,,,,,,,,,,,,,,,,,,,,,,
,,,,,,,,2023-08-16_08h44.35.569,HF_wild_card,2022.2.4,MacIntel,60.0024001,5ec6e7ee42084e12736ac8d6,64d2fd46c836a06233681665,64dc7e53fbb02c379c4e5772,,,,,,,decisionTrl,resources/DR.BMP,resources/DY.BMP,Door3,0.344946289,-0.018574219,1,0,0,1.3473,optionRight,70,11070,5,33,0,33,0,1,,,,,,,,,,,,,,,,,,,,,,,,,,,,,,,,,,,,,,,
,,,,,,,,2023-08-16_08h44.35.569,HF_wild_card,2022.2.4,MacIntel,60.0024001,5ec6e7ee42084e12736ac8d6,64d2fd46c836a06233681665,64dc7e53fbb02c379c4e5772,,,,,,,decisionTrl,resources/DG.BMP,resources/DP.BMP,Door2,-0.38394043,-0.057016602,1,0,0,1.3489,optionLeft,40,11110,5,34,0,34,0,1,,,,,,,,,,,,,,,,,,,,,,,,,,,,,,,,,,,,,,,
,,,,,,,,2023-08-16_08h44.35.569,HF_wild_card,2022.2.4,MacIntel,60.0024001,5ec6e7ee42084e12736ac8d6,64d2fd46c836a06233681665,64dc7e53fbb02c379c4e5772,,,,,,,decisionTrl,resources/DBN.BMP,resources/DG.BMP,Door1,-0.379101562,-0.008876953,1,0,0,1.4631,optionLeft,30,11140,5,35,0,35,0,1,,,,,,,,,,,,,,,,,,,,,,,,,,,,,,,,,,,,,,,
,,,,,,,,2023-08-16_08h44.35.569,HF_wild_card,2022.2.4,MacIntel,60.0024001,5ec6e7ee42084e12736ac8d6,64d2fd46c836a06233681665,64dc7e53fbb02c379c4e5772,,,,,,,decisionTrl,resources/DBN.BMP,resources/DG.BMP,Door1,-0.325576172,-0.010732422,1,0,0,1.0158,optionLeft,30,11170,5,36,0,36,0,1,,,,,,,,,,,,,,,,,,,,,,,,,,,,,,,,,,,,,,,
,,,,,,,,2023-08-16_08h44.35.569,HF_wild_card,2022.2.4,MacIntel,60.0024001,5ec6e7ee42084e12736ac8d6,64d2fd46c836a06233681665,64dc7e53fbb02c379c4e5772,,,,,,,sngl,resources/Empty.png,resources/DR.BMP,Door4,0.436396484,0.015039063,1,0,0,0.6975,optionRight,60,11230,5,37,0,37,0,1,,,,,,,,,,,,,,,,,,,,,,,,,,,,,,,,,,,,,,,
,,,,,,,,2023-08-16_08h44.35.569,HF_wild_card,2022.2.4,MacIntel,60.0024001,5ec6e7ee42084e12736ac8d6,64d2fd46c836a06233681665,64dc7e53fbb02c379c4e5772,,,,,,,ctch,resources/DY.BMP,resources/DG.BMP,Door3,-0.423242187,-0.012773438,1,0,0,1.0794,optionLeft,70,11300,5,38,0,38,0,1,,,,,,,,,,,,,,,,,,,,,,,,,,,,,,,,,,,,,,,
,,,,,,,,2023-08-16_08h44.35.569,HF_wild_card,2022.2.4,MacIntel,60.0024001,5ec6e7ee42084e12736ac8d6,64d2fd46c836a06233681665,64dc7e53fbb02c379c4e5772,,,,,,,ctch,resources/DG.BMP,resources/DY.BMP,Door3,0.42703125,-0.014780273,1,0,0,1.6334,optionRight,70,11370,5,39,0,39,0,1,,,,,,,,,,,,,,,,,,,,,,,,,,,,,,,,,,,,,,,
,,,,,,,,2023-08-16_08h44.35.569,HF_wild_card,2022.2.4,MacIntel,60.0024001,5ec6e7ee42084e12736ac8d6,64d2fd46c836a06233681665,64dc7e53fbb02c379c4e5772,,,,,,,sngl,resources/DR.BMP,resources/Empty.png,Door4,-0.402563477,-0.02809082,1,0,0,0.6341,optionLeft,80,11450,5,40,0,40,0,1,,,,,,,,,,,,,,,,,,,,,,,,,,,,,,,,,,,,,,,
,,,,,,,,2023-08-16_08h44.35.569,HF_wild_card,2022.2.4,MacIntel,60.0024001,5ec6e7ee42084e12736ac8d6,64d2fd46c836a06233681665,64dc7e53fbb02c379c4e5772,,,,,,,decisionTrl,resources/DBN.BMP,resources/DG.BMP,Door1,-0.315371094,-0.013051758,1,0,0,1.1508,optionLeft,30,11480,5,41,0,41,0,1,,,,,,,,,,,,,,,,,,,,,,,,,,,,,,,,,,,,,,,
,,,,,,,,2023-08-16_08h44.35.569,HF_wild_card,2022.2.4,MacIntel,60.0024001,5ec6e7ee42084e12736ac8d6,64d2fd46c836a06233681665,64dc7e53fbb02c379c4e5772,,,,,,,decisionTrl,resources/DY.BMP,resources/DR.BMP,Door4,0.342973633,-0.054980469,1,0,0,1.7331,optionRight,60,11540,5,42,0,42,0,1,,,,,,,,,,,,,,,,,,,,,,,,,,,,,,,,,,,,,,,
,,,,,,,,2023-08-16_08h44.35.569,HF_wild_card,2022.2.4,MacIntel,60.0024001,5ec6e7ee42084e12736ac8d6,64d2fd46c836a06233681665,64dc7e53fbb02c379c4e5772,,,,,,,decisionTrl,resources/DR.BMP,resources/DY.BMP,Door3,0.446821289,-0.039038086,1,0,0,0.9819,optionRight,70,11610,5,43,0,43,0,1,,,,,,,,,,,,,,,,,,,,,,,,,,,,,,,,,,,,,,,
,,,,,,,,2023-08-16_08h44.35.569,HF_wild_card,2022.2.4,MacIntel,60.0024001,5ec6e7ee42084e12736ac8d6,64d2fd46c836a06233681665,64dc7e53fbb02c379c4e5772,,,,,,,,,,,,,,,,,,,,,,,,,,4,0,4,0,1,,,,,,,,,,,,,,,,,,,,,,,,,,,,,,,,,,
,,,,,,,,2023-08-16_08h44.35.569,HF_wild_card,2022.2.4,MacIntel,60.0024001,5ec6e7ee42084e12736ac8d6,64d2fd46c836a06233681665,64dc7e53fbb02c379c4e5772,,,,,,,ctch,resources/DG.BMP,resources/DY.BMP,Door3,0.430371094,-0.050166016,1,0,0,1.0348,optionRight,70,11680,6,0,0,0,0,1,,,,,,,,,,,,,,,,,,,,,,,,,,,,,,,,,,,,,,,
,,,,,,,,2023-08-16_08h44.35.569,HF_wild_card,2022.2.4,MacIntel,60.0024001,5ec6e7ee42084e12736ac8d6,64d2fd46c836a06233681665,64dc7e53fbb02c379c4e5772,,,,,,,decisionTrl,resources/DG.BMP,resources/DBN.BMP,Door1,0.384541016,0.009282227,1,0,0,1.0486,optionRight,30,11710,6,1,0,1,0,1,,,,,,,,,,,,,,,,,,,,,,,,,,,,,,,,,,,,,,,
,,,,,,,,2023-08-16_08h44.35.569,HF_wild_card,2022.2.4,MacIntel,60.0024001,5ec6e7ee42084e12736ac8d6,64d2fd46c836a06233681665,64dc7e53fbb02c379c4e5772,,,,,,,decisionTrl,resources/DY.BMP,resources/DR.BMP,Door4,0.482382812,-0.002412109,1,0,0,0.9523,optionRight,60,11770,6,2,0,2,0,1,,,,,,,,,,,,,,,,,,,,,,,,,,,,,,,,,,,,,,,
,,,,,,,,2023-08-16_08h44.35.569,HF_wild_card,2022.2.4,MacIntel,60.0024001,5ec6e7ee42084e12736ac8d6,64d2fd46c836a06233681665,64dc7e53fbb02c379c4e5772,,,,,,,ctch,resources/DBN.BMP,resources/DR.BMP,Door4,0.380102539,-0.029306641,1,0,0,0.7823,optionRight,60,11830,6,3,0,3,0,1,,,,,,,,,,,,,,,,,,,,,,,,,,,,,,,,,,,,,,,
,,,,,,,,2023-08-16_08h44.35.569,HF_wild_card,2022.2.4,MacIntel,60.0024001,5ec6e7ee42084e12736ac8d6,64d2fd46c836a06233681665,64dc7e53fbb02c379c4e5772,,,,,,,sngl,resources/Empty.png,resources/DY.BMP,Door3,0.447587891,-0.035205078,1,0,0,0.5806,optionRight,70,11900,6,4,0,4,0,1,,,,,,,,,,,,,,,,,,,,,,,,,,,,,,,,,,,,,,,
,,,,,,,,2023-08-16_08h44.35.569,HF_wild_card,2022.2.4,MacIntel,60.0024001,5ec6e7ee42084e12736ac8d6,64d2fd46c836a06233681665,64dc7e53fbb02c379c4e5772,,,,,,,ctch,resources/DY.BMP,resources/DG.BMP,Door3,-0.394643555,-0.028530273,1,0,0,0.9482,optionLeft,70,11970,6,5,0,5,0,1,,,,,,,,,,,,,,,,,,,,,,,,,,,,,,,,,,,,,,,
,,,,,,,,2023-08-16_08h44.35.569,HF_wild_card,2022.2.4,MacIntel,60.0024001,5ec6e7ee42084e12736ac8d6,64d2fd46c836a06233681665,64dc7e53fbb02c379c4e5772,,,,,,,decisionTrl,resources/DP.BMP,resources/DY.BMP,WildCard_Ex,-0.407685547,-0.042265625,1,0,0,1.1628,optionLeft,95,12065,6,6,0,6,0,1,,,,,,,,,,,,,,,,,,,,,,,,,,,,,,,,,,,,,,,
,,,,,,,,2023-08-16_08h44.35.569,HF_wild_card,2022.2.4,MacIntel,60.0024001,5ec6e7ee42084e12736ac8d6,64d2fd46c836a06233681665,64dc7e53fbb02c379c4e5772,,,,,,,sngl,resources/DP.BMP,resources/Empty.png,WildCard_Ex,-0.4553125,-0.005849609,1,0,0,0.7181,optionLeft,95,12160,6,7,0,7,0,1,,,,,,,,,,,,,,,,,,,,,,,,,,,,,,,,,,,,,,,
,,,,,,,,2023-08-16_08h44.35.569,HF_wild_card,2022.2.4,MacIntel,60.0024001,5ec6e7ee42084e12736ac8d6,64d2fd46c836a06233681665,64dc7e53fbb02c379c4e5772,,,,,,,ctch,resources/DR.BMP,resources/DBN.BMP,Door4,-0.394633789,-0.019599609,1,0,0,1.2989,optionLeft,80,12240,6,8,0,8,0,1,,,,,,,,,,,,,,,,,,,,,,,,,,,,,,,,,,,,,,,
,,,,,,,,2023-08-16_08h44.35.569,HF_wild_card,2022.2.4,MacIntel,60.0024001,5ec6e7ee42084e12736ac8d6,64d2fd46c836a06233681665,64dc7e53fbb02c379c4e5772,,,,,,,sngl,resources/Empty.png,resources/DR.BMP,Door4,0.414467773,-0.017983398,1,0,0,1.3308,optionRight,80,12320,6,9,0,9,0,1,,,,,,,,,,,,,,,,,,,,,,,,,,,,,,,,,,,,,,,
,,,,,,,,2023-08-16_08h44.35.569,HF_wild_card,2022.2.4,MacIntel,60.0024001,5ec6e7ee42084e12736ac8d6,64d2fd46c836a06233681665,64dc7e53fbb02c379c4e5772,,,,,,,decisionTrl,resources/DY.BMP,resources/DR.BMP,Door3,-0.378354492,-0.023955078,1,0,0,1.4803,optionLeft,70,12390,6,10,0,10,0,1,,,,,,,,,,,,,,,,,,,,,,,,,,,,,,,,,,,,,,,
,,,,,,,,2023-08-16_08h44.35.569,HF_wild_card,2022.2.4,MacIntel,60.0024001,5ec6e7ee42084e12736ac8d6,64d2fd46c836a06233681665,64dc7e53fbb02c379c4e5772,,,,,,,sngl,resources/DBN.BMP,resources/Empty.png,Door1,-0.422924805,-0.030644531,1,0,0,0.6996,optionLeft,30,12420,6,11,0,11,0,1,,,,,,,,,,,,,,,,,,,,,,,,,,,,,,,,,,,,,,,
,,,,,,,,2023-08-16_08h44.35.569,HF_wild_card,2022.2.4,MacIntel,60.0024001,5ec6e7ee42084e12736ac8d6,64d2fd46c836a06233681665,64dc7e53fbb02c379c4e5772,,,,,,,sngl,resources/DR.BMP,resources/Empty.png,Door4,-0.400795898,-0.022163086,1,0,0,0.6663,optionLeft,60,12480,6,12,0,12,0,1,,,,,,,,,,,,,,,,,,,,,,,,,,,,,,,,,,,,,,,
,,,,,,,,2023-08-16_08h44.35.569,HF_wild_card,2022.2.4,MacIntel,60.0024001,5ec6e7ee42084e12736ac8d6,64d2fd46c836a06233681665,64dc7e53fbb02c379c4e5772,,,,,,,ctch,resources/DG.BMP,resources/DY.BMP,Door3,0.634169922,-0.016835937,1,0,0,1.1189,optionRight,70,12550,6,13,0,13,0,1,,,,,,,,,,,,,,,,,,,,,,,,,,,,,,,,,,,,,,,
,,,,,,,,2023-08-16_08h44.35.569,HF_wild_card,2022.2.4,MacIntel,60.0024001,5ec6e7ee42084e12736ac8d6,64d2fd46c836a06233681665,64dc7e53fbb02c379c4e5772,,,,,,,ctch,resources/DR.BMP,resources/DBN.BMP,Door4,-0.408759766,0.008759766,1,0,0,0.7986,optionLeft,80,12630,6,14,0,14,0,1,,,,,,,,,,,,,,,,,,,,,,,,,,,,,,,,,,,,,,,
,,,,,,,,2023-08-16_08h44.35.569,HF_wild_card,2022.2.4,MacIntel,60.0024001,5ec6e7ee42084e12736ac8d6,64d2fd46c836a06233681665,64dc7e53fbb02c379c4e5772,,,,,,,decisionTrl,resources/DBN.BMP,resources/DP.BMP,Door1,-0.37409668,-0.015717773,1,0,0,1.4978,optionLeft,30,12660,6,15,0,15,0,1,,,,,,,,,,,,,,,,,,,,,,,,,,,,,,,,,,,,,,,
,,,,,,,,2023-08-16_08h44.35.569,HF_wild_card,2022.2.4,MacIntel,60.0024001,5ec6e7ee42084e12736ac8d6,64d2fd46c836a06233681665,64dc7e53fbb02c379c4e5772,,,,,,,sngl,resources/Empty.png,resources/DP.BMP,WildCard_Ex,0.379873047,-0.009702148,1,0,0,0.6317,optionRight,95,12755,6,16,0,16,0,1,,,,,,,,,,,,,,,,,,,,,,,,,,,,,,,,,,,,,,,
,,,,,,,,2023-08-16_08h44.35.569,HF_wild_card,2022.2.4,MacIntel,60.0024001,5ec6e7ee42084e12736ac8d6,64d2fd46c836a06233681665,64dc7e53fbb02c379c4e5772,,,,,,,decisionTrl,resources/DBN.BMP,resources/DG.BMP,Door1,-0.429833984,-0.018515625,1,0,0,1.2836,optionLeft,30,12785,6,17,0,17,0,1,,,,,,,,,,,,,,,,,,,,,,,,,,,,,,,,,,,,,,,
,,,,,,,,2023-08-16_08h44.35.569,HF_wild_card,2022.2.4,MacIntel,60.0024001,5ec6e7ee42084e12736ac8d6,64d2fd46c836a06233681665,64dc7e53fbb02c379c4e5772,,,,,,,decisionTrl,resources/DP.BMP,resources/DR.BMP,WildCard_Ex,-0.368286133,-0.015883789,1,0,0,1.2981,optionLeft,95,12880,6,18,0,18,0,1,,,,,,,,,,,,,,,,,,,,,,,,,,,,,,,,,,,,,,,
,,,,,,,,2023-08-16_08h44.35.569,HF_wild_card,2022.2.4,MacIntel,60.0024001,5ec6e7ee42084e12736ac8d6,64d2fd46c836a06233681665,64dc7e53fbb02c379c4e5772,,,,,,,decisionTrl,resources/DG.BMP,resources/DBN.BMP,Door1,0.304428711,-0.014082031,1,0,0,1.0186,optionRight,30,12910,6,19,0,19,0,1,,,,,,,,,,,,,,,,,,,,,,,,,,,,,,,,,,,,,,,
,,,,,,,,2023-08-16_08h44.35.569,HF_wild_card,2022.2.4,MacIntel,60.0024001,5ec6e7ee42084e12736ac8d6,64d2fd46c836a06233681665,64dc7e53fbb02c379c4e5772,,,,,,,decisionTrl,resources/DG.BMP,resources/DP.BMP,WildCard_Ex,0.48625,-0.010620117,1,0,0,0.981,optionRight,95,13005,6,20,0,20,0,1,,,,,,,,,,,,,,,,,,,,,,,,,,,,,,,,,,,,,,,
,,,,,,,,2023-08-16_08h44.35.569,HF_wild_card,2022.2.4,MacIntel,60.0024001,5ec6e7ee42084e12736ac8d6,64d2fd46c836a06233681665,64dc7e53fbb02c379c4e5772,,,,,,,ctch,resources/DBN.BMP,resources/DR.BMP,Door4,0.28918457,-0.039672852,1,0,0,0.9003,optionRight,80,13085,6,21,0,21,0,1,,,,,,,,,,,,,,,,,,,,,,,,,,,,,,,,,,,,,,,
,,,,,,,,2023-08-16_08h44.35.569,HF_wild_card,2022.2.4,MacIntel,60.0024001,5ec6e7ee42084e12736ac8d6,64d2fd46c836a06233681665,64dc7e53fbb02c379c4e5772,,,,,,,decisionTrl,resources/DBN.BMP,resources/DG.BMP,Door1,-0.399467773,-0.048671875,1,0,0,1.4297,optionLeft,30,13115,6,22,0,22,0,1,,,,,,,,,,,,,,,,,,,,,,,,,,,,,,,,,,,,,,,
,,,,,,,,2023-08-16_08h44.35.569,HF_wild_card,2022.2.4,MacIntel,60.0024001,5ec6e7ee42084e12736ac8d6,64d2fd46c836a06233681665,64dc7e53fbb02c379c4e5772,,,,,,,decisionTrl,resources/DP.BMP,resources/DBN.BMP,WildCard_Ex,-0.380810547,0.00090332,1,0,0,0.748,optionLeft,95,13210,6,23,0,23,0,1,,,,,,,,,,,,,,,,,,,,,,,,,,,,,,,,,,,,,,,
,,,,,,,,2023-08-16_08h44.35.569,HF_wild_card,2022.2.4,MacIntel,60.0024001,5ec6e7ee42084e12736ac8d6,64d2fd46c836a06233681665,64dc7e53fbb02c379c4e5772,,,,,,,sngl,resources/Empty.png,resources/DP.BMP,WildCard_Ex,0.480209961,-0.022373047,1,0,0,0.632,optionRight,5,13215,6,24,0,24,0,1,,,,,,,,,,,,,,,,,,,,,,,,,,,,,,,,,,,,,,,
,,,,,,,,2023-08-16_08h44.35.569,HF_wild_card,2022.2.4,MacIntel,60.0024001,5ec6e7ee42084e12736ac8d6,64d2fd46c836a06233681665,64dc7e53fbb02c379c4e5772,,,,,,,sngl,resources/DY.BMP,resources/Empty.png,Door3,-0.422485352,-0.025981445,1,0,0,0.6146,optionLeft,70,13285,6,25,0,25,0,1,,,,,,,,,,,,,,,,,,,,,,,,,,,,,,,,,,,,,,,
,,,,,,,,2023-08-16_08h44.35.569,HF_wild_card,2022.2.4,MacIntel,60.0024001,5ec6e7ee42084e12736ac8d6,64d2fd46c836a06233681665,64dc7e53fbb02c379c4e5772,,,,,,,sngl,resources/DG.BMP,resources/Empty.png,Door2,-0.367060547,-0.004633789,1,0,0,0.6471,optionLeft,20,13305,6,26,0,26,0,1,,,,,,,,,,,,,,,,,,,,,,,,,,,,,,,,,,,,,,,
,,,,,,,,2023-08-16_08h44.35.569,HF_wild_card,2022.2.4,MacIntel,60.0024001,5ec6e7ee42084e12736ac8d6,64d2fd46c836a06233681665,64dc7e53fbb02c379c4e5772,,,,,,,sngl,resources/Empty.png,resources/DG.BMP,Door2,0.42487793,-0.049169922,1,0,0,0.6487,optionRight,40,13345,6,27,0,27,0,1,,,,,,,,,,,,,,,,,,,,,,,,,,,,,,,,,,,,,,,
,,,,,,,,2023-08-16_08h44.35.569,HF_wild_card,2022.2.4,MacIntel,60.0024001,5ec6e7ee42084e12736ac8d6,64d2fd46c836a06233681665,64dc7e53fbb02c379c4e5772,,,,,,,sngl,resources/DP.BMP,resources/Empty.png,WildCard_Ex,-0.377851563,-0.016953125,1,0,0,0.6154,optionLeft,5,13350,6,28,0,28,0,1,,,,,,,,,,,,,,,,,,,,,,,,,,,,,,,,,,,,,,,
,,,,,,,,2023-08-16_08h44.35.569,HF_wild_card,2022.2.4,MacIntel,60.0024001,5ec6e7ee42084e12736ac8d6,64d2fd46c836a06233681665,64dc7e53fbb02c379c4e5772,,,,,,,decisionTrl,resources/DP.BMP,resources/DG.BMP,WildCard_Ex,-0.405268555,-0.026049805,1,0,0,0.7284,optionLeft,5,13355,6,29,0,29,0,1,,,,,,,,,,,,,,,,,,,,,,,,,,,,,,,,,,,,,,,
,,,,,,,,2023-08-16_08h44.35.569,HF_wild_card,2022.2.4,MacIntel,60.0024001,5ec6e7ee42084e12736ac8d6,64d2fd46c836a06233681665,64dc7e53fbb02c379c4e5772,,,,,,,decisionTrl,resources/DR.BMP,resources/DY.BMP,Door3,0.411337891,-0.037817383,1,0,0,1.3489,optionRight,70,13425,6,30,0,30,0,1,,,,,,,,,,,,,,,,,,,,,,,,,,,,,,,,,,,,,,,
,,,,,,,,2023-08-16_08h44.35.569,HF_wild_card,2022.2.4,MacIntel,60.0024001,5ec6e7ee42084e12736ac8d6,64d2fd46c836a06233681665,64dc7e53fbb02c379c4e5772,,,,,,,decisionTrl,resources/DBN.BMP,resources/DG.BMP,Door1,-0.368105469,-0.031943359,1,0,0,1.1976,optionLeft,30,13455,6,31,0,31,0,1,,,,,,,,,,,,,,,,,,,,,,,,,,,,,,,,,,,,,,,
,,,,,,,,2023-08-16_08h44.35.569,HF_wild_card,2022.2.4,MacIntel,60.0024001,5ec6e7ee42084e12736ac8d6,64d2fd46c836a06233681665,64dc7e53fbb02c379c4e5772,,,,,,,decisionTrl,resources/DG.BMP,resources/DBN.BMP,Door1,0.393457031,-0.002641602,1,0,0,1.3794,optionRight,30,13485,6,32,0,32,0,1,,,,,,,,,,,,,,,,,,,,,,,,,,,,,,,,,,,,,,,
,,,,,,,,2023-08-16_08h44.35.569,HF_wild_card,2022.2.4,MacIntel,60.0024001,5ec6e7ee42084e12736ac8d6,64d2fd46c836a06233681665,64dc7e53fbb02c379c4e5772,,,,,,,decisionTrl,resources/DR.BMP,resources/DY.BMP,Door3,0.334360352,-0.032192383,1,0,0,0.9333,optionRight,70,13555,6,33,0,33,0,1,,,,,,,,,,,,,,,,,,,,,,,,,,,,,,,,,,,,,,,
,,,,,,,,2023-08-16_08h44.35.569,HF_wild_card,2022.2.4,MacIntel,60.0024001,5ec6e7ee42084e12736ac8d6,64d2fd46c836a06233681665,64dc7e53fbb02c379c4e5772,,,,,,,decisionTrl,resources/DR.BMP,resources/DP.BMP,WildCard_Ex,0.308808594,-0.021279297,1,0,0,0.6954,optionRight,5,13560,6,34,0,34,0,1,,,,,,,,,,,,,,,,,,,,,,,,,,,,,,,,,,,,,,,
,,,,,,,,2023-08-16_08h44.35.569,HF_wild_card,2022.2.4,MacIntel,60.0024001,5ec6e7ee42084e12736ac8d6,64d2fd46c836a06233681665,64dc7e53fbb02c379c4e5772,,,,,,,decisionTrl,resources/DY.BMP,resources/DR.BMP,Door4,0.3896875,-0.041079102,1,0,0,0.6847,optionRight,80,13640,6,35,0,35,0,1,,,,,,,,,,,,,,,,,,,,,,,,,,,,,,,,,,,,,,,
,,,,,,,,2023-08-16_08h44.35.569,HF_wild_card,2022.2.4,MacIntel,60.0024001,5ec6e7ee42084e12736ac8d6,64d2fd46c836a06233681665,64dc7e53fbb02c379c4e5772,,,,,,,ctch,resources/DY.BMP,resources/DG.BMP,Door3,-0.368911133,0.012666016,1,0,0,0.849,optionLeft,70,13710,6,36,0,36,0,1,,,,,,,,,,,,,,,,,,,,,,,,,,,,,,,,,,,,,,,
,,,,,,,,2023-08-16_08h44.35.569,HF_wild_card,2022.2.4,MacIntel,60.0024001,5ec6e7ee42084e12736ac8d6,64d2fd46c836a06233681665,64dc7e53fbb02c379c4e5772,,,,,,,decisionTrl,resources/DR.BMP,resources/DY.BMP,Door3,0.443344727,-0.072143555,1,0,0,1.4801,optionRight,70,13780,6,37,0,37,0,1,,,,,,,,,,,,,,,,,,,,,,,,,,,,,,,,,,,,,,,
,,,,,,,,2023-08-16_08h44.35.569,HF_wild_card,2022.2.4,MacIntel,60.0024001,5ec6e7ee42084e12736ac8d6,64d2fd46c836a06233681665,64dc7e53fbb02c379c4e5772,,,,,,,decisionTrl,resources/DY.BMP,resources/DR.BMP,Door4,0.413349609,-0.037138672,1,0,0,1.5163,optionRight,60,13840,6,38,0,38,0,1,,,,,,,,,,,,,,,,,,,,,,,,,,,,,,,,,,,,,,,
,,,,,,,,2023-08-16_08h44.35.569,HF_wild_card,2022.2.4,MacIntel,60.0024001,5ec6e7ee42084e12736ac8d6,64d2fd46c836a06233681665,64dc7e53fbb02c379c4e5772,,,,,,,decisionTrl,resources/DY.BMP,resources/DP.BMP,WildCard_Ex,0.417895508,-0.049106445,1,0,0,0.949,optionRight,95,13935,6,39,0,39,0,1,,,,,,,,,,,,,,,,,,,,,,,,,,,,,,,,,,,,,,,
,,,,,,,,2023-08-16_08h44.35.569,HF_wild_card,2022.2.4,MacIntel,60.0024001,5ec6e7ee42084e12736ac8d6,64d2fd46c836a06233681665,64dc7e53fbb02c379c4e5772,,,,,,,decisionTrl,resources/DBN.BMP,resources/DG.BMP,Door1,-0.47828125,-0.044907227,1,0,0,2.4311,optionLeft,30,13965,6,40,0,40,0,1,,,,,,,,,,,,,,,,,,,,,,,,,,,,,,,,,,,,,,,
,,,,,,,,2023-08-16_08h44.35.569,HF_wild_card,2022.2.4,MacIntel,60.0024001,5ec6e7ee42084e12736ac8d6,64d2fd46c836a06233681665,64dc7e53fbb02c379c4e5772,,,,,,,decisionTrl,resources/DG.BMP,resources/DBN.BMP,Door1,0.342705078,-0.033417969,1,0,0,1.5492,optionRight,30,13995,6,41,0,41,0,1,,,,,,,,,,,,,,,,,,,,,,,,,,,,,,,,,,,,,,,
,,,,,,,,2023-08-16_08h44.35.569,HF_wild_card,2022.2.4,MacIntel,60.0024001,5ec6e7ee42084e12736ac8d6,64d2fd46c836a06233681665,64dc7e53fbb02c379c4e5772,,,,,,,decisionTrl,resources/DR.BMP,resources/DY.BMP,Door3,0.269907227,-0.034287109,1,0,0,1.2007,optionRight,70,14065,6,42,0,42,0,1,,,,,,,,,,,,,,,,,,,,,,,,,,,,,,,,,,,,,,,
,,,,,,,,2023-08-16_08h44.35.569,HF_wild_card,2022.2.4,MacIntel,60.0024001,5ec6e7ee42084e12736ac8d6,64d2fd46c836a06233681665,64dc7e53fbb02c379c4e5772,,,,,,,sngl,resources/Empty.png,resources/DBN.BMP,Door1,0.393344727,0.008833008,1,0,0,0.6501,optionRight,30,14095,6,43,0,43,0,1,,,,,,,,,,,,,,,,,,,,,,,,,,,,,,,,,,,,,,,
,,,,,,,,2023-08-16_08h44.35.569,HF_wild_card,2022.2.4,MacIntel,60.0024001,5ec6e7ee42084e12736ac8d6,64d2fd46c836a06233681665,64dc7e53fbb02c379c4e5772,,,,,,,,,,,,,,,,,,,,,,,,,,5,0,5,0,1,,,,,,,,,,,,,,,,,,,,,,,,,,,,,,,,,,
,,,,,,,,2023-08-16_08h44.35.569,HF_wild_card,2022.2.4,MacIntel,60.0024001,5ec6e7ee42084e12736ac8d6,64d2fd46c836a06233681665,64dc7e53fbb02c379c4e5772,,,,,,,decisionTrl,resources/DY.BMP,resources/DR.BMP,Door4,0.364394531,0.035683594,1,0,0,1.012,optionRight,60,14155,7,0,0,0,0,1,,,,,,,,,,,,,,,,,,,,,,,,,,,,,,,,,,,,,,,
,,,,,,,,2023-08-16_08h44.35.569,HF_wild_card,2022.2.4,MacIntel,60.0024001,5ec6e7ee42084e12736ac8d6,64d2fd46c836a06233681665,64dc7e53fbb02c379c4e5772,,,,,,,decisionTrl,resources/DG.BMP,resources/DBN.BMP,Door1,0.39527832,-0.010981445,1,0,0,1.0659,optionRight,30,14185,7,1,0,1,0,1,,,,,,,,,,,,,,,,,,,,,,,,,,,,,,,,,,,,,,,
,,,,,,,,2023-08-16_08h44.35.569,HF_wild_card,2022.2.4,MacIntel,60.0024001,5ec6e7ee42084e12736ac8d6,64d2fd46c836a06233681665,64dc7e53fbb02c379c4e5772,,,,,,,decisionTrl,resources/DY.BMP,resources/DR.BMP,Door4,0.455727539,-0.06996582,1,0,0,1.0014,optionRight,80,14265,7,2,0,2,0,1,,,,,,,,,,,,,,,,,,,,,,,,,,,,,,,,,,,,,,,
,,,,,,,,2023-08-16_08h44.35.569,HF_wild_card,2022.2.4,MacIntel,60.0024001,5ec6e7ee42084e12736ac8d6,64d2fd46c836a06233681665,64dc7e53fbb02c379c4e5772,,,,,,,decisionTrl,resources/DG.BMP,resources/DBN.BMP,Door1,0.356171875,-0.019741211,1,0,0,0.9163,optionRight,30,14295,7,3,0,3,0,1,,,,,,,,,,,,,,,,,,,,,,,,,,,,,,,,,,,,,,,
,,,,,,,,2023-08-16_08h44.35.569,HF_wild_card,2022.2.4,MacIntel,60.0024001,5ec6e7ee42084e12736ac8d6,64d2fd46c836a06233681665,64dc7e53fbb02c379c4e5772,,,,,,,decisionTrl,resources/DR.BMP,resources/DY.BMP,Door3,0.433120117,-0.047797852,1,0,0,1.1846,optionRight,70,14365,7,4,0,4,0,1,,,,,,,,,,,,,,,,,,,,,,,,,,,,,,,,,,,,,,,
,,,,,,,,2023-08-16_08h44.35.569,HF_wild_card,2022.2.4,MacIntel,60.0024001,5ec6e7ee42084e12736ac8d6,64d2fd46c836a06233681665,64dc7e53fbb02c379c4e5772,,,,,,,decisionTrl,resources/DR.BMP,resources/DY.BMP,Door3,0.425546875,-0.044643555,1,0,0,0.6315,optionRight,70,14435,7,5,0,5,0,1,,,,,,,,,,,,,,,,,,,,,,,,,,,,,,,,,,,,,,,
,,,,,,,,2023-08-16_08h44.35.569,HF_wild_card,2022.2.4,MacIntel,60.0024001,5ec6e7ee42084e12736ac8d6,64d2fd46c836a06233681665,64dc7e53fbb02c379c4e5772,,,,,,,ctch,resources/DY.BMP,resources/DG.BMP,Door3,-0.373081055,-0.007949219,1,0,0,1.0648,optionLeft,70,14505,7,6,0,6,0,1,,,,,,,,,,,,,,,,,,,,,,,,,,,,,,,,,,,,,,,
,,,,,,,,2023-08-16_08h44.35.569,HF_wild_card,2022.2.4,MacIntel,60.0024001,5ec6e7ee42084e12736ac8d6,64d2fd46c836a06233681665,64dc7e53fbb02c379c4e5772,,,,,,,decisionTrl,resources/DG.BMP,resources/DBN.BMP,Door1,0.460942383,-0.028432617,1,0,0,1.2023,optionRight,30,14535,7,7,0,7,0,1,,,,,,,,,,,,,,,,,,,,,,,,,,,,,,,,,,,,,,,
,,,,,,,,2023-08-16_08h44.35.569,HF_wild_card,2022.2.4,MacIntel,60.0024001,5ec6e7ee42084e12736ac8d6,64d2fd46c836a06233681665,64dc7e53fbb02c379c4e5772,,,,,,,decisionTrl,resources/DY.BMP,resources/DR.BMP,Door3,-0.345820313,-0.000859375,1,0,0,0.9158,optionLeft,70,14605,7,8,0,8,0,1,,,,,,,,,,,,,,,,,,,,,,,,,,,,,,,,,,,,,,,
,,,,,,,,2023-08-16_08h44.35.569,HF_wild_card,2022.2.4,MacIntel,60.0024001,5ec6e7ee42084e12736ac8d6,64d2fd46c836a06233681665,64dc7e53fbb02c379c4e5772,,,,,,,decisionTrl,resources/DG.BMP,resources/DBN.BMP,Door1,0.380874023,-0.043466797,1,0,0,0.9016,optionRight,30,14635,7,9,0,9,0,1,,,,,,,,,,,,,,,,,,,,,,,,,,,,,,,,,,,,,,,
,,,,,,,,2023-08-16_08h44.35.569,HF_wild_card,2022.2.4,MacIntel,60.0024001,5ec6e7ee42084e12736ac8d6,64d2fd46c836a06233681665,64dc7e53fbb02c379c4e5772,,,,,,,ctch,resources/DG.BMP,resources/DY.BMP,Door3,0.318793945,-0.058476563,1,0,0,1.0996,optionRight,70,14705,7,10,0,10,0,1,,,,,,,,,,,,,,,,,,,,,,,,,,,,,,,,,,,,,,,
,,,,,,,,2023-08-16_08h44.35.569,HF_wild_card,2022.2.4,MacIntel,60.0024001,5ec6e7ee42084e12736ac8d6,64d2fd46c836a06233681665,64dc7e53fbb02c379c4e5772,,,,,,,ctch,resources/DY.BMP,resources/DG.BMP,Door3,-0.377426758,-0.031484375,1,0,0,1.1162,optionLeft,70,14775,7,11,0,11,0,1,,,,,,,,,,,,,,,,,,,,,,,,,,,,,,,,,,,,,,,
,,,,,,,,2023-08-16_08h44.35.569,HF_wild_card,2022.2.4,MacIntel,60.0024001,5ec6e7ee42084e12736ac8d6,64d2fd46c836a06233681665,64dc7e53fbb02c379c4e5772,,,,,,,ctch,resources/DBN.BMP,resources/DR.BMP,Door4,0.384619141,-0.050722656,1,0,0,0.897,optionRight,80,14855,7,12,0,12,0,1,,,,,,,,,,,,,,,,,,,,,,,,,,,,,,,,,,,,,,,
,,,,,,,,2023-08-16_08h44.35.569,HF_wild_card,2022.2.4,MacIntel,60.0024001,5ec6e7ee42084e12736ac8d6,64d2fd46c836a06233681665,64dc7e53fbb02c379c4e5772,,,,,,,decisionTrl,resources/DR.BMP,resources/DY.BMP,Door3,0.378828125,-0.077929687,1,0,0,1.0146,optionRight,70,14925,7,13,0,13,0,1,,,,,,,,,,,,,,,,,,,,,,,,,,,,,,,,,,,,,,,
,,,,,,,,2023-08-16_08h44.35.569,HF_wild_card,2022.2.4,MacIntel,60.0024001,5ec6e7ee42084e12736ac8d6,64d2fd46c836a06233681665,64dc7e53fbb02c379c4e5772,,,,,,,ctch,resources/DG.BMP,resources/DY.BMP,Door3,0.418535156,-0.039775391,1,0,0,0.7666,optionRight,70,14995,7,14,0,14,0,1,,,,,,,,,,,,,,,,,,,,,,,,,,,,,,,,,,,,,,,
,,,,,,,,2023-08-16_08h44.35.569,HF_wild_card,2022.2.4,MacIntel,60.0024001,5ec6e7ee42084e12736ac8d6,64d2fd46c836a06233681665,64dc7e53fbb02c379c4e5772,,,,,,,decisionTrl,resources/DG.BMP,resources/DBN.BMP,Door1,0.489492188,-0.053886719,1,0,0,1.4638,optionRight,30,15025,7,15,0,15,0,1,,,,,,,,,,,,,,,,,,,,,,,,,,,,,,,,,,,,,,,
,,,,,,,,2023-08-16_08h44.35.569,HF_wild_card,2022.2.4,MacIntel,60.0024001,5ec6e7ee42084e12736ac8d6,64d2fd46c836a06233681665,64dc7e53fbb02c379c4e5772,,,,,,,decisionTrl,resources/DBN.BMP,resources/DG.BMP,Door1,-0.396884766,-0.018203125,1,0,0,1.0995,optionLeft,30,15055,7,16,0,16,0,1,,,,,,,,,,,,,,,,,,,,,,,,,,,,,,,,,,,,,,,
,,,,,,,,2023-08-16_08h44.35.569,HF_wild_card,2022.2.4,MacIntel,60.0024001,5ec6e7ee42084e12736ac8d6,64d2fd46c836a06233681665,64dc7e53fbb02c379c4e5772,,,,,,,decisionTrl,resources/DBN.BMP,resources/DG.BMP,Door1,-0.350249023,-0.044428711,1,0,0,0.9345,optionLeft,30,15085,7,17,0,17,0,1,,,,,,,,,,,,,,,,,,,,,,,,,,,,,,,,,,,,,,,
,,,,,,,,2023-08-16_08h44.35.569,HF_wild_card,2022.2.4,MacIntel,60.0024001,5ec6e7ee42084e12736ac8d6,64d2fd46c836a06233681665,64dc7e53fbb02c379c4e5772,,,,,,,decisionTrl,resources/DBN.BMP,resources/DG.BMP,Door1,-0.394956055,0.020849609,1,0,0,0.8143,optionLeft,30,15115,7,18,0,18,0,1,,,,,,,,,,,,,,,,,,,,,,,,,,,,,,,,,,,,,,,
,,,,,,,,2023-08-16_08h44.35.569,HF_wild_card,2022.2.4,MacIntel,60.0024001,5ec6e7ee42084e12736ac8d6,64d2fd46c836a06233681665,64dc7e53fbb02c379c4e5772,,,,,,,decisionTrl,resources/DR.BMP,resources/DY.BMP,Door3,0.385683594,-0.027426758,1,0,0,0.8975,optionRight,70,15185,7,19,0,19,0,1,,,,,,,,,,,,,,,,,,,,,,,,,,,,,,,,,,,,,,,
,,,,,,,,2023-08-16_08h44.35.569,HF_wild_card,2022.2.4,MacIntel,60.0024001,5ec6e7ee42084e12736ac8d6,64d2fd46c836a06233681665,64dc7e53fbb02c379c4e5772,,,,,,,decisionTrl,resources/DR.BMP,resources/DY.BMP,Door3,0.413334961,-0.050649414,1,0,0,0.7458,optionRight,70,15255,7,20,0,20,0,1,,,,,,,,,,,,,,,,,,,,,,,,,,,,,,,,,,,,,,,
,,,,,,,,2023-08-16_08h44.35.569,HF_wild_card,2022.2.4,MacIntel,60.0024001,5ec6e7ee42084e12736ac8d6,64d2fd46c836a06233681665,64dc7e53fbb02c379c4e5772,,,,,,,ctch,resources/DR.BMP,resources/DBN.BMP,Door4,-0.401816406,-0.032641602,1,0,0,0.6634,optionLeft,80,15335,7,21,0,21,0,1,,,,,,,,,,,,,,,,,,,,,,,,,,,,,,,,,,,,,,,
,,,,,,,,2023-08-16_08h44.35.569,HF_wild_card,2022.2.4,MacIntel,60.0024001,5ec6e7ee42084e12736ac8d6,64d2fd46c836a06233681665,64dc7e53fbb02c379c4e5772,,,,,,,decisionTrl,resources/DBN.BMP,resources/DG.BMP,Door1,-0.367524414,-0.051655273,1,0,0,0.7992,optionLeft,30,15365,7,22,0,22,0,1,,,,,,,,,,,,,,,,,,,,,,,,,,,,,,,,,,,,,,,
,,,,,,,,2023-08-16_08h44.35.569,HF_wild_card,2022.2.4,MacIntel,60.0024001,5ec6e7ee42084e12736ac8d6,64d2fd46c836a06233681665,64dc7e53fbb02c379c4e5772,,,,,,,decisionTrl,resources/DR.BMP,resources/DY.BMP,Door3,0.407192383,0.021459961,1,0,0,1.057,optionRight,70,15435,7,23,0,23,0,1,,,,,,,,,,,,,,,,,,,,,,,,,,,,,,,,,,,,,,,
,,,,,,,,2023-08-16_08h44.35.569,HF_wild_card,2022.2.4,MacIntel,60.0024001,5ec6e7ee42084e12736ac8d6,64d2fd46c836a06233681665,64dc7e53fbb02c379c4e5772,,,,,,,decisionTrl,resources/DY.BMP,resources/DR.BMP,Door3,-0.401328125,-0.028769531,1,0,0,0.9159,optionLeft,70,15505,7,24,0,24,0,1,,,,,,,,,,,,,,,,,,,,,,,,,,,,,,,,,,,,,,,
,,,,,,,,2023-08-16_08h44.35.569,HF_wild_card,2022.2.4,MacIntel,60.0024001,5ec6e7ee42084e12736ac8d6,64d2fd46c836a06233681665,64dc7e53fbb02c379c4e5772,,,,,,,decisionTrl,resources/DY.BMP,resources/DR.BMP,Door3,-0.421293945,-0.012211914,1,0,0,1.3857,optionLeft,70,15575,7,25,0,25,0,1,,,,,,,,,,,,,,,,,,,,,,,,,,,,,,,,,,,,,,,
,,,,,,,,2023-08-16_08h44.35.569,HF_wild_card,2022.2.4,MacIntel,60.0024001,5ec6e7ee42084e12736ac8d6,64d2fd46c836a06233681665,64dc7e53fbb02c379c4e5772,,,,,,,ctch,resources/DR.BMP,resources/DBN.BMP,Door4,-0.401162109,-0.015649414,1,0,0,1.2346,optionLeft,80,15655,7,26,0,26,0,1,,,,,,,,,,,,,,,,,,,,,,,,,,,,,,,,,,,,,,,
,,,,,,,,2023-08-16_08h44.35.569,HF_wild_card,2022.2.4,MacIntel,60.0024001,5ec6e7ee42084e12736ac8d6,64d2fd46c836a06233681665,64dc7e53fbb02c379c4e5772,,,,,,,decisionTrl,resources/DY.BMP,resources/DR.BMP,Door3,-0.395561523,0.018637695,1,0,0,0.9057,optionLeft,70,15725,7,27,0,27,0,1,,,,,,,,,,,,,,,,,,,,,,,,,,,,,,,,,,,,,,,
,,,,,,,,2023-08-16_08h44.35.569,HF_wild_card,2022.2.4,MacIntel,60.0024001,5ec6e7ee42084e12736ac8d6,64d2fd46c836a06233681665,64dc7e53fbb02c379c4e5772,,,,,,,ctch,resources/DBN.BMP,resources/DR.BMP,Door4,0.390566406,-0.075717773,1,0,0,1.5651,optionRight,60,15785,7,28,0,28,0,1,,,,,,,,,,,,,,,,,,,,,,,,,,,,,,,,,,,,,,,
,,,,,,,,2023-08-16_08h44.35.569,HF_wild_card,2022.2.4,MacIntel,60.0024001,5ec6e7ee42084e12736ac8d6,64d2fd46c836a06233681665,64dc7e53fbb02c379c4e5772,,,,,,,ctch,resources/DY.BMP,resources/DG.BMP,Door3,-0.390981445,-0.027070312,1,0,0,1.1658,optionLeft,70,15855,7,29,0,29,0,1,,,,,,,,,,,,,,,,,,,,,,,,,,,,,,,,,,,,,,,
,,,,,,,,2023-08-16_08h44.35.569,HF_wild_card,2022.2.4,MacIntel,60.0024001,5ec6e7ee42084e12736ac8d6,64d2fd46c836a06233681665,64dc7e53fbb02c379c4e5772,,,,,,,ctch,resources/DR.BMP,resources/DBN.BMP,Door4,-0.335561523,-0.027060547,1,0,0,0.9664,optionLeft,60,15915,7,30,0,30,0,1,,,,,,,,,,,,,,,,,,,,,,,,,,,,,,,,,,,,,,,
,,,,,,,,2023-08-16_08h44.35.569,HF_wild_card,2022.2.4,MacIntel,60.0024001,5ec6e7ee42084e12736ac8d6,64d2fd46c836a06233681665,64dc7e53fbb02c379c4e5772,,,,,,,decisionTrl,resources/DG.BMP,resources/DBN.BMP,Door2,-0.406787109,-0.041542969,1,0,0,1.9153,optionLeft,20,15935,7,31,0,31,0,1,,,,,,,,,,,,,,,,,,,,,,,,,,,,,,,,,,,,,,,
,,,,,,,,2023-08-16_08h44.35.569,HF_wild_card,2022.2.4,MacIntel,60.0024001,5ec6e7ee42084e12736ac8d6,64d2fd46c836a06233681665,64dc7e53fbb02c379c4e5772,,,,,,,ctch,resources/DBN.BMP,resources/DR.BMP,Door4,0.364355469,-0.061000977,1,0,0,0.8692,optionRight,60,15995,7,32,0,32,0,1,,,,,,,,,,,,,,,,,,,,,,,,,,,,,,,,,,,,,,,
,,,,,,,,2023-08-16_08h44.35.569,HF_wild_card,2022.2.4,MacIntel,60.0024001,5ec6e7ee42084e12736ac8d6,64d2fd46c836a06233681665,64dc7e53fbb02c379c4e5772,,,,,,,decisionTrl,resources/DBN.BMP,resources/DG.BMP,Door2,0.445253906,-0.026811523,1,0,0,1.0011,optionRight,20,16015,7,33,0,33,0,1,,,,,,,,,,,,,,,,,,,,,,,,,,,,,,,,,,,,,,,
,,,,,,,,2023-08-16_08h44.35.569,HF_wild_card,2022.2.4,MacIntel,60.0024001,5ec6e7ee42084e12736ac8d6,64d2fd46c836a06233681665,64dc7e53fbb02c379c4e5772,,,,,,,ctch,resources/DG.BMP,resources/DY.BMP,Door3,0.372456055,-0.069467773,1,0,0,0.9642,optionRight,70,16085,7,34,0,34,0,1,,,,,,,,,,,,,,,,,,,,,,,,,,,,,,,,,,,,,,,
,,,,,,,,2023-08-16_08h44.35.569,HF_wild_card,2022.2.4,MacIntel,60.0024001,5ec6e7ee42084e12736ac8d6,64d2fd46c836a06233681665,64dc7e53fbb02c379c4e5772,,,,,,,decisionTrl,resources/DBN.BMP,resources/DG.BMP,Door1,-0.457895508,-0.011333008,1,0,0,1.3966,optionLeft,30,16115,7,35,0,35,0,1,,,,,,,,,,,,,,,,,,,,,,,,,,,,,,,,,,,,,,,
,,,,,,,,2023-08-16_08h44.35.569,HF_wild_card,2022.2.4,MacIntel,60.0024001,5ec6e7ee42084e12736ac8d6,64d2fd46c836a06233681665,64dc7e53fbb02c379c4e5772,,,,,,,,,,,,,,,,,,,,,,,,,,6,0,6,0,1,,,,,,,,,,,,,,,,,,,,,,,,,,,,,,,,,,
,,,,,,,,2023-08-16_08h44.35.569,HF_wild_card,2022.2.4,MacIntel,60.0024001,5ec6e7ee42084e12736ac8d6,64d2fd46c836a06233681665,64dc7e53fbb02c379c4e5772,,,,,,,,,,,,,,,,,,,,,,,,,,,,,,,4,,,,,,,,,,,,,,,,,,,,,,,,,,,,,,,,,
,,,,,,,,2023-08-16_08h44.35.569,HF_wild_card,2022.2.4,MacIntel,60.0024001,5ec6e7ee42084e12736ac8d6,64d2fd46c836a06233681665,64dc7e53fbb02c379c4e5772,,,,,,,,,,,,,,,,,,,,,,,,,,,,,,,,,,,,,,,,,,,,,,,,,,,,,,,,,,,,,,,,
,,,,,,,,2023-08-16_08h44.35.569,HF_wild_card,2022.2.4,MacIntel,60.0024001,5ec6e7ee42084e12736ac8d6,64d2fd46c836a06233681665,64dc7e53fbb02c379c4e5772,,,,,,,,,,,,,,,,,,,,,,,,,,,,,,,,60,Door4,resources/DR.BMP,0,0,0,0,1,,,,,,,,,,,,,,,,,,,,,,,,,
,,,,,,,,2023-08-16_08h44.35.569,HF_wild_card,2022.2.4,MacIntel,60.0024001,5ec6e7ee42084e12736ac8d6,64d2fd46c836a06233681665,64dc7e53fbb02c379c4e5772,,,,,,,,,,,,,,,,,,,,,,,,,,,,,,,,70,Door3,resources/DY.BMP,1,0,1,0,1,,,,,,,,,,,,,,,,,,,,,,,,,
,,,,,,,,2023-08-16_08h44.35.569,HF_wild_card,2022.2.4,MacIntel,60.0024001,5ec6e7ee42084e12736ac8d6,64d2fd46c836a06233681665,64dc7e53fbb02c379c4e5772,,,,,,,,,,,,,,,,,,,,,,,,,,,,,,,,30,WC_nonExtreme,resources/DB.BMP,2,0,2,0,1,,,,,,,,,,,,,,,,,,,,,,,,,
,,,,,,,,2023-08-16_08h44.35.569,HF_wild_card,2022.2.4,MacIntel,60.0024001,5ec6e7ee42084e12736ac8d6,64d2fd46c836a06233681665,64dc7e53fbb02c379c4e5772,,,,,,,,,,,,,,,,,,,,,,,,,,,,,,,,95,WC_extreme,resources/DP.BMP,3,0,3,0,1,,,,,,,,,,,,,,,,,,,,,,,,,
