Condition,Low fixed image (Door1),Low risky image (Door2),High fixed image (Door3),High risky image (Door4),NonExtreme Wild Card 1,NonExtreme Wild Card 2,,date,expName,psychopyVersion,OS,frameRate,PROLIFIC_PID,STUDY_ID,SESSION_ID,mouse_2.x,mouse_2.y,mouse_2.leftButton,mouse_2.midButton,mouse_2.rightButton,mouse_2.clicked_name,Trial Type,Left Option Image,Right Option Image,Chosen Door,mouse.x,mouse.y,mouse.leftButton,mouse.midButton,mouse.rightButton,mouse.time,mouse.clicked_name,Feedback,Cumulative Reward,Block,trial.thisRepN,trial.thisTrialN,trial.thisN,trial.thisIndex,trial.ran,blocks.thisRepN,blocks.thisTrialN,blocks.thisN,blocks.thisIndex,blocks.ran,Money conversion,First Outcome Reported,Shown Door (First Outcome),Displayed Image (First Outcome),outcomes.thisRepN,outcomes.thisTrialN,outcomes.thisN,outcomes.thisIndex,outcomes.ran,judgments.thisRepN,judgments.thisTrialN,judgments.thisN,judgments.thisIndex,judgments.ran,freqMouse.x,freqMouse.y,freqMouse.leftButton,freqMouse.midButton,freqMouse.rightButton,freqMouse.clicked_name,FQJ for first outcome,FQJ for second outcome,Shown Door,Displayed Image,trials.thisRepN,trials.thisTrialN,trials.thisN,trials.thisIndex,trials.ran,judgBlock.thisRepN,judgBlock.thisTrialN,judgBlock.thisN,judgBlock.thisIndex,judgBlock.ran
2,resources/DBN.BMP,resources/DP.BMP,resources/DR.BMP,resources/DB.BMP,resources/DG.BMP,resources/DY.BMP,,2023-08-16_08h52.54.351,HF_wild_card,2022.2.4,Win32,58.82352941,596155a998cf77000106f8d8,64d2fd46c836a06233681665,64dc7f8454219764f686de82,,,,,,,,,,,,,,,,,,,,,,,,,,,,,,,,,,,,,,,,,,,,,,,,,,,,,,,,,,,,,,,,
,,,,,,,,2023-08-16_08h52.54.351,HF_wild_card,2022.2.4,Win32,58.82352941,596155a998cf77000106f8d8,64d2fd46c836a06233681665,64dc7f8454219764f686de82,-0.00462963,-0.422222222,1,0,0,agree,,,,,,,,,,,,,,,,,,,,,,,,,,,,,,,,,,,,,,,,,,,,,,,,,,,,,,,,,,
,,,,,,,,2023-08-16_08h52.54.351,HF_wild_card,2022.2.4,Win32,58.82352941,596155a998cf77000106f8d8,64d2fd46c836a06233681665,64dc7f8454219764f686de82,,,,,,,,,,,,,,,,,,,,,,,,,,,,,,,,,,,,,,,,,,,,,,,,,,,,,,,,,,,,,,,,
,,,,,,,,2023-08-16_08h52.54.351,HF_wild_card,2022.2.4,Win32,58.82352941,596155a998cf77000106f8d8,64d2fd46c836a06233681665,64dc7f8454219764f686de82,,,,,,,sngl,resources/DBN.BMP,resources/Empty.png,Door1,-0.437037037,0.002777778,1,0,0,1.846,optionLeft,30,30,1,0,0,0,0,1,,,,,,,,,,,,,,,,,,,,,,,,,,,,,,,,,,,,,,,
,,,,,,,,2023-08-16_08h52.54.351,HF_wild_card,2022.2.4,Win32,58.82352941,596155a998cf77000106f8d8,64d2fd46c836a06233681665,64dc7f8454219764f686de82,,,,,,,decisionTrl,resources/DR.BMP,resources/DB.BMP,Door3,-0.5,0.000925926,1,0,0,1.313,optionLeft,70,100,1,1,0,1,0,1,,,,,,,,,,,,,,,,,,,,,,,,,,,,,,,,,,,,,,,
,,,,,,,,2023-08-16_08h52.54.351,HF_wild_card,2022.2.4,Win32,58.82352941,596155a998cf77000106f8d8,64d2fd46c836a06233681665,64dc7f8454219764f686de82,,,,,,,decisionTrl,resources/DR.BMP,resources/DB.BMP,Door3,-0.381481481,0,1,0,0,0.814,optionLeft,70,170,1,2,0,2,0,1,,,,,,,,,,,,,,,,,,,,,,,,,,,,,,,,,,,,,,,
,,,,,,,,2023-08-16_08h52.54.351,HF_wild_card,2022.2.4,Win32,58.82352941,596155a998cf77000106f8d8,64d2fd46c836a06233681665,64dc7f8454219764f686de82,,,,,,,decisionTrl,resources/DB.BMP,resources/DR.BMP,Door3,0.291666667,-0.031481481,1,0,0,1.361,optionRight,70,240,1,3,0,3,0,1,,,,,,,,,,,,,,,,,,,,,,,,,,,,,,,,,,,,,,,
,,,,,,,,2023-08-16_08h52.54.351,HF_wild_card,2022.2.4,Win32,58.82352941,596155a998cf77000106f8d8,64d2fd46c836a06233681665,64dc7f8454219764f686de82,,,,,,,decisionTrl,resources/DBN.BMP,resources/DY.BMP,Door1,-0.413888889,-0.034259259,1,0,0,1.264,optionLeft,30,270,1,4,0,4,0,1,,,,,,,,,,,,,,,,,,,,,,,,,,,,,,,,,,,,,,,
,,,,,,,,2023-08-16_08h52.54.351,HF_wild_card,2022.2.4,Win32,58.82352941,596155a998cf77000106f8d8,64d2fd46c836a06233681665,64dc7f8454219764f686de82,,,,,,,decisionTrl,resources/DP.BMP,resources/DBN.BMP,Door1,0.268518519,-0.051851852,1,0,0,1.113,optionRight,30,300,1,5,0,5,0,1,,,,,,,,,,,,,,,,,,,,,,,,,,,,,,,,,,,,,,,
,,,,,,,,2023-08-16_08h52.54.351,HF_wild_card,2022.2.4,Win32,58.82352941,596155a998cf77000106f8d8,64d2fd46c836a06233681665,64dc7f8454219764f686de82,,,,,,,decisionTrl,resources/DP.BMP,resources/DBN.BMP,Door2,-0.344444444,-0.02037037,1,0,0,0.847,optionLeft,20,320,1,6,0,6,0,1,,,,,,,,,,,,,,,,,,,,,,,,,,,,,,,,,,,,,,,
,,,,,,,,2023-08-16_08h52.54.351,HF_wild_card,2022.2.4,Win32,58.82352941,596155a998cf77000106f8d8,64d2fd46c836a06233681665,64dc7f8454219764f686de82,,,,,,,decisionTrl,resources/DBN.BMP,resources/DP.BMP,Door1,-0.314814815,-0.051851852,1,0,0,1.131,optionLeft,30,350,1,7,0,7,0,1,,,,,,,,,,,,,,,,,,,,,,,,,,,,,,,,,,,,,,,
,,,,,,,,2023-08-16_08h52.54.351,HF_wild_card,2022.2.4,Win32,58.82352941,596155a998cf77000106f8d8,64d2fd46c836a06233681665,64dc7f8454219764f686de82,,,,,,,sngl,resources/DP.BMP,resources/Empty.png,Door2,-0.314814815,0.014814815,1,0,0,0.848,optionLeft,40,390,1,8,0,8,0,1,,,,,,,,,,,,,,,,,,,,,,,,,,,,,,,,,,,,,,,
,,,,,,,,2023-08-16_08h52.54.351,HF_wild_card,2022.2.4,Win32,58.82352941,596155a998cf77000106f8d8,64d2fd46c836a06233681665,64dc7f8454219764f686de82,,,,,,,decisionTrl,resources/DP.BMP,resources/DBN.BMP,Door2,-0.255555556,-0.046296296,1,0,0,1.045,optionLeft,20,410,1,9,0,9,0,1,,,,,,,,,,,,,,,,,,,,,,,,,,,,,,,,,,,,,,,
,,,,,,,,2023-08-16_08h52.54.351,HF_wild_card,2022.2.4,Win32,58.82352941,596155a998cf77000106f8d8,64d2fd46c836a06233681665,64dc7f8454219764f686de82,,,,,,,decisionTrl,resources/DP.BMP,resources/DY.BMP,WildCard_NonEx,0.332407407,-0.05,1,0,0,1.314,optionRight,55,465,1,10,0,10,0,1,,,,,,,,,,,,,,,,,,,,,,,,,,,,,,,,,,,,,,,
,,,,,,,,2023-08-16_08h52.54.351,HF_wild_card,2022.2.4,Win32,58.82352941,596155a998cf77000106f8d8,64d2fd46c836a06233681665,64dc7f8454219764f686de82,,,,,,,decisionTrl,resources/DR.BMP,resources/DY.BMP,WildCard_NonEx,0.349074074,-0.050925926,1,0,0,0.716,optionRight,55,520,1,11,0,11,0,1,,,,,,,,,,,,,,,,,,,,,,,,,,,,,,,,,,,,,,,
,,,,,,,,2023-08-16_08h52.54.351,HF_wild_card,2022.2.4,Win32,58.82352941,596155a998cf77000106f8d8,64d2fd46c836a06233681665,64dc7f8454219764f686de82,,,,,,,decisionTrl,resources/DB.BMP,resources/DR.BMP,Door4,-0.3,-0.052777778,1,0,0,1.38,optionLeft,60,580,1,12,0,12,0,1,,,,,,,,,,,,,,,,,,,,,,,,,,,,,,,,,,,,,,,
,,,,,,,,2023-08-16_08h52.54.351,HF_wild_card,2022.2.4,Win32,58.82352941,596155a998cf77000106f8d8,64d2fd46c836a06233681665,64dc7f8454219764f686de82,,,,,,,decisionTrl,resources/DY.BMP,resources/DP.BMP,WildCard_NonEx,-0.365740741,-0.047222222,1,0,0,1.863,optionLeft,45,625,1,13,0,13,0,1,,,,,,,,,,,,,,,,,,,,,,,,,,,,,,,,,,,,,,,
,,,,,,,,2023-08-16_08h52.54.351,HF_wild_card,2022.2.4,Win32,58.82352941,596155a998cf77000106f8d8,64d2fd46c836a06233681665,64dc7f8454219764f686de82,,,,,,,decisionTrl,resources/DY.BMP,resources/DB.BMP,Door4,0.450925926,-0.040740741,1,0,0,1.797,optionRight,60,685,1,14,0,14,0,1,,,,,,,,,,,,,,,,,,,,,,,,,,,,,,,,,,,,,,,
,,,,,,,,2023-08-16_08h52.54.351,HF_wild_card,2022.2.4,Win32,58.82352941,596155a998cf77000106f8d8,64d2fd46c836a06233681665,64dc7f8454219764f686de82,,,,,,,decisionTrl,resources/DBN.BMP,resources/DP.BMP,Door1,-0.367592593,-0.009259259,1,0,0,1.148,optionLeft,30,715,1,15,0,15,0,1,,,,,,,,,,,,,,,,,,,,,,,,,,,,,,,,,,,,,,,
,,,,,,,,2023-08-16_08h52.54.351,HF_wild_card,2022.2.4,Win32,58.82352941,596155a998cf77000106f8d8,64d2fd46c836a06233681665,64dc7f8454219764f686de82,,,,,,,decisionTrl,resources/DY.BMP,resources/DR.BMP,Door3,0.406481481,-0.008333333,1,0,0,1.748,optionRight,70,785,1,16,0,16,0,1,,,,,,,,,,,,,,,,,,,,,,,,,,,,,,,,,,,,,,,
,,,,,,,,2023-08-16_08h52.54.351,HF_wild_card,2022.2.4,Win32,58.82352941,596155a998cf77000106f8d8,64d2fd46c836a06233681665,64dc7f8454219764f686de82,,,,,,,sngl,resources/Empty.png,resources/DP.BMP,Door2,0.338888889,-0.012962963,1,0,0,0.996,optionRight,20,805,1,17,0,17,0,1,,,,,,,,,,,,,,,,,,,,,,,,,,,,,,,,,,,,,,,
,,,,,,,,2023-08-16_08h52.54.351,HF_wild_card,2022.2.4,Win32,58.82352941,596155a998cf77000106f8d8,64d2fd46c836a06233681665,64dc7f8454219764f686de82,,,,,,,ctch,resources/DBN.BMP,resources/DB.BMP,Door4,0.37037037,0.00462963,1,0,0,1.281,optionRight,60,865,1,18,0,18,0,1,,,,,,,,,,,,,,,,,,,,,,,,,,,,,,,,,,,,,,,
,,,,,,,,2023-08-16_08h52.54.351,HF_wild_card,2022.2.4,Win32,58.82352941,596155a998cf77000106f8d8,64d2fd46c836a06233681665,64dc7f8454219764f686de82,,,,,,,decisionTrl,resources/DBN.BMP,resources/DP.BMP,Door1,-0.377777778,0.049074074,1,0,0,1.063,optionLeft,30,895,1,19,0,19,0,1,,,,,,,,,,,,,,,,,,,,,,,,,,,,,,,,,,,,,,,
,,,,,,,,2023-08-16_08h52.54.351,HF_wild_card,2022.2.4,Win32,58.82352941,596155a998cf77000106f8d8,64d2fd46c836a06233681665,64dc7f8454219764f686de82,,,,,,,sngl,resources/Empty.png,resources/DBN.BMP,Door1,-0.298148148,0.023148148,1,0,0,1.497,optionRight,30,925,1,20,0,20,0,1,,,,,,,,,,,,,,,,,,,,,,,,,,,,,,,,,,,,,,,
,,,,,,,,2023-08-16_08h52.54.351,HF_wild_card,2022.2.4,Win32,58.82352941,596155a998cf77000106f8d8,64d2fd46c836a06233681665,64dc7f8454219764f686de82,,,,,,,sngl,resources/Empty.png,resources/DY.BMP,WildCard_NonEx,0.387962963,-0.02037037,1,0,0,1.013,optionRight,45,970,1,21,0,21,0,1,,,,,,,,,,,,,,,,,,,,,,,,,,,,,,,,,,,,,,,
,,,,,,,,2023-08-16_08h52.54.351,HF_wild_card,2022.2.4,Win32,58.82352941,596155a998cf77000106f8d8,64d2fd46c836a06233681665,64dc7f8454219764f686de82,,,,,,,sngl,resources/DR.BMP,resources/Empty.png,Door3,-0.403703704,-0.021296296,1,0,0,0.981,optionLeft,70,1040,1,22,0,22,0,1,,,,,,,,,,,,,,,,,,,,,,,,,,,,,,,,,,,,,,,
,,,,,,,,2023-08-16_08h52.54.351,HF_wild_card,2022.2.4,Win32,58.82352941,596155a998cf77000106f8d8,64d2fd46c836a06233681665,64dc7f8454219764f686de82,,,,,,,ctch,resources/DB.BMP,resources/DBN.BMP,Door4,-0.481481481,-0.022222222,1,0,0,1.198,optionLeft,60,1100,1,23,0,23,0,1,,,,,,,,,,,,,,,,,,,,,,,,,,,,,,,,,,,,,,,
,,,,,,,,2023-08-16_08h52.54.351,HF_wild_card,2022.2.4,Win32,58.82352941,596155a998cf77000106f8d8,64d2fd46c836a06233681665,64dc7f8454219764f686de82,,,,,,,decisionTrl,resources/DB.BMP,resources/DR.BMP,Door4,-0.382407407,-0.046296296,1,0,0,0.831,optionLeft,80,1180,1,24,0,24,0,1,,,,,,,,,,,,,,,,,,,,,,,,,,,,,,,,,,,,,,,
,,,,,,,,2023-08-16_08h52.54.351,HF_wild_card,2022.2.4,Win32,58.82352941,596155a998cf77000106f8d8,64d2fd46c836a06233681665,64dc7f8454219764f686de82,,,,,,,ctch,resources/DR.BMP,resources/DP.BMP,Door2,0.309259259,-0.036111111,1,0,0,1.206,optionRight,40,1220,1,25,0,25,0,1,,,,,,,,,,,,,,,,,,,,,,,,,,,,,,,,,,,,,,,
,,,,,,,,2023-08-16_08h52.54.351,HF_wild_card,2022.2.4,Win32,58.82352941,596155a998cf77000106f8d8,64d2fd46c836a06233681665,64dc7f8454219764f686de82,,,,,,,ctch,resources/DBN.BMP,resources/DB.BMP,Door4,0.359259259,-0.030555556,1,0,0,1.197,optionRight,60,1280,1,26,0,26,0,1,,,,,,,,,,,,,,,,,,,,,,,,,,,,,,,,,,,,,,,
,,,,,,,,2023-08-16_08h52.54.351,HF_wild_card,2022.2.4,Win32,58.82352941,596155a998cf77000106f8d8,64d2fd46c836a06233681665,64dc7f8454219764f686de82,,,,,,,sngl,resources/Empty.png,resources/DB.BMP,Door4,0.532407407,-0.012962963,1,0,0,0.715,optionRight,60,1340,1,27,0,27,0,1,,,,,,,,,,,,,,,,,,,,,,,,,,,,,,,,,,,,,,,
,,,,,,,,2023-08-16_08h52.54.351,HF_wild_card,2022.2.4,Win32,58.82352941,596155a998cf77000106f8d8,64d2fd46c836a06233681665,64dc7f8454219764f686de82,,,,,,,ctch,resources/DP.BMP,resources/DR.BMP,Door3,0.359259259,-0.032407407,1,0,0,1.548,optionRight,70,1410,1,28,0,28,0,1,,,,,,,,,,,,,,,,,,,,,,,,,,,,,,,,,,,,,,,
,,,,,,,,2023-08-16_08h52.54.351,HF_wild_card,2022.2.4,Win32,58.82352941,596155a998cf77000106f8d8,64d2fd46c836a06233681665,64dc7f8454219764f686de82,,,,,,,ctch,resources/DP.BMP,resources/DR.BMP,Door3,0.353703704,-0.012037037,1,0,0,1.732,optionRight,70,1480,1,29,0,29,0,1,,,,,,,,,,,,,,,,,,,,,,,,,,,,,,,,,,,,,,,
,,,,,,,,2023-08-16_08h52.54.351,HF_wild_card,2022.2.4,Win32,58.82352941,596155a998cf77000106f8d8,64d2fd46c836a06233681665,64dc7f8454219764f686de82,,,,,,,sngl,resources/DB.BMP,resources/Empty.png,Door4,-0.381481481,-0.000925926,1,0,0,1.348,optionLeft,80,1560,1,30,0,30,0,1,,,,,,,,,,,,,,,,,,,,,,,,,,,,,,,,,,,,,,,
,,,,,,,,2023-08-16_08h52.54.351,HF_wild_card,2022.2.4,Win32,58.82352941,596155a998cf77000106f8d8,64d2fd46c836a06233681665,64dc7f8454219764f686de82,,,,,,,decisionTrl,resources/DB.BMP,resources/DR.BMP,Door4,-0.342592593,-0.005555556,1,0,0,1.214,optionLeft,80,1640,1,31,0,31,0,1,,,,,,,,,,,,,,,,,,,,,,,,,,,,,,,,,,,,,,,
,,,,,,,,2023-08-16_08h52.54.351,HF_wild_card,2022.2.4,Win32,58.82352941,596155a998cf77000106f8d8,64d2fd46c836a06233681665,64dc7f8454219764f686de82,,,,,,,decisionTrl,resources/DP.BMP,resources/DBN.BMP,Door1,0.388888889,-0.010185185,1,0,0,1.68,optionRight,30,1670,1,32,0,32,0,1,,,,,,,,,,,,,,,,,,,,,,,,,,,,,,,,,,,,,,,
,,,,,,,,2023-08-16_08h52.54.351,HF_wild_card,2022.2.4,Win32,58.82352941,596155a998cf77000106f8d8,64d2fd46c836a06233681665,64dc7f8454219764f686de82,,,,,,,sngl,resources/Empty.png,resources/DR.BMP,Door3,0.439814815,-0.044444444,1,0,0,0.947,optionRight,70,1740,1,33,0,33,0,1,,,,,,,,,,,,,,,,,,,,,,,,,,,,,,,,,,,,,,,
,,,,,,,,2023-08-16_08h52.54.351,HF_wild_card,2022.2.4,Win32,58.82352941,596155a998cf77000106f8d8,64d2fd46c836a06233681665,64dc7f8454219764f686de82,,,,,,,decisionTrl,resources/DBN.BMP,resources/DP.BMP,Door1,-0.385185185,-0.037037037,1,0,0,1.362,optionLeft,30,1770,1,34,0,34,0,1,,,,,,,,,,,,,,,,,,,,,,,,,,,,,,,,,,,,,,,
,,,,,,,,2023-08-16_08h52.54.351,HF_wild_card,2022.2.4,Win32,58.82352941,596155a998cf77000106f8d8,64d2fd46c836a06233681665,64dc7f8454219764f686de82,,,,,,,decisionTrl,resources/DR.BMP,resources/DB.BMP,Door4,0.362037037,-0.073148148,1,0,0,0.915,optionRight,60,1830,1,35,0,35,0,1,,,,,,,,,,,,,,,,,,,,,,,,,,,,,,,,,,,,,,,
,,,,,,,,2023-08-16_08h52.54.351,HF_wild_card,2022.2.4,Win32,58.82352941,596155a998cf77000106f8d8,64d2fd46c836a06233681665,64dc7f8454219764f686de82,,,,,,,ctch,resources/DR.BMP,resources/DP.BMP,Door3,-0.385185185,-0.011111111,1,0,0,1.861,optionLeft,70,1900,1,36,0,36,0,1,,,,,,,,,,,,,,,,,,,,,,,,,,,,,,,,,,,,,,,
,,,,,,,,2023-08-16_08h52.54.351,HF_wild_card,2022.2.4,Win32,58.82352941,596155a998cf77000106f8d8,64d2fd46c836a06233681665,64dc7f8454219764f686de82,,,,,,,ctch,resources/DB.BMP,resources/DBN.BMP,Door4,-0.386111111,0.008333333,1,0,0,0.881,optionLeft,80,1980,1,37,0,37,0,1,,,,,,,,,,,,,,,,,,,,,,,,,,,,,,,,,,,,,,,
,,,,,,,,2023-08-16_08h52.54.351,HF_wild_card,2022.2.4,Win32,58.82352941,596155a998cf77000106f8d8,64d2fd46c836a06233681665,64dc7f8454219764f686de82,,,,,,,decisionTrl,resources/DB.BMP,resources/DY.BMP,Door4,-0.412037037,-0.012962963,1,0,0,1.16,optionLeft,60,2040,1,38,0,38,0,1,,,,,,,,,,,,,,,,,,,,,,,,,,,,,,,,,,,,,,,
,,,,,,,,2023-08-16_08h52.54.351,HF_wild_card,2022.2.4,Win32,58.82352941,596155a998cf77000106f8d8,64d2fd46c836a06233681665,64dc7f8454219764f686de82,,,,,,,sngl,resources/DY.BMP,resources/Empty.png,WildCard_NonEx,-0.394444444,0.027777778,1,0,0,0.731,optionLeft,45,2085,1,39,0,39,0,1,,,,,,,,,,,,,,,,,,,,,,,,,,,,,,,,,,,,,,,
,,,,,,,,2023-08-16_08h52.54.351,HF_wild_card,2022.2.4,Win32,58.82352941,596155a998cf77000106f8d8,64d2fd46c836a06233681665,64dc7f8454219764f686de82,,,,,,,sngl,resources/DY.BMP,resources/Empty.png,WildCard_NonEx,-0.272222222,0.018518519,1,0,0,0.732,optionLeft,55,2140,1,40,0,40,0,1,,,,,,,,,,,,,,,,,,,,,,,,,,,,,,,,,,,,,,,
,,,,,,,,2023-08-16_08h52.54.351,HF_wild_card,2022.2.4,Win32,58.82352941,596155a998cf77000106f8d8,64d2fd46c836a06233681665,64dc7f8454219764f686de82,,,,,,,decisionTrl,resources/DR.BMP,resources/DB.BMP,Door4,0.364814815,-0.040740741,1,0,0,0.815,optionRight,80,2220,1,41,0,41,0,1,,,,,,,,,,,,,,,,,,,,,,,,,,,,,,,,,,,,,,,
,,,,,,,,2023-08-16_08h52.54.351,HF_wild_card,2022.2.4,Win32,58.82352941,596155a998cf77000106f8d8,64d2fd46c836a06233681665,64dc7f8454219764f686de82,,,,,,,decisionTrl,resources/DY.BMP,resources/DBN.BMP,WildCard_NonEx,-0.332407407,-0.025925926,1,0,0,1.199,optionLeft,55,2275,1,42,0,42,0,1,,,,,,,,,,,,,,,,,,,,,,,,,,,,,,,,,,,,,,,
,,,,,,,,2023-08-16_08h52.54.351,HF_wild_card,2022.2.4,Win32,58.82352941,596155a998cf77000106f8d8,64d2fd46c836a06233681665,64dc7f8454219764f686de82,,,,,,,sngl,resources/Empty.png,resources/DY.BMP,WildCard_NonEx,0.348148148,-0.027777778,1,0,0,0.765,optionRight,55,2330,1,43,0,43,0,1,,,,,,,,,,,,,,,,,,,,,,,,,,,,,,,,,,,,,,,
,,,,,,,,2023-08-16_08h52.54.351,HF_wild_card,2022.2.4,Win32,58.82352941,596155a998cf77000106f8d8,64d2fd46c836a06233681665,64dc7f8454219764f686de82,,,,,,,,,,,,,,,,,,,,,,,,,,0,0,0,0,1,,,,,,,,,,,,,,,,,,,,,,,,,,,,,,,,,,
,,,,,,,,2023-08-16_08h52.54.351,HF_wild_card,2022.2.4,Win32,58.82352941,596155a998cf77000106f8d8,64d2fd46c836a06233681665,64dc7f8454219764f686de82,,,,,,,sngl,resources/Empty.png,resources/DY.BMP,WildCard_NonEx,0.473148148,0.012962963,1,0,0,0.908,optionRight,55,2385,2,0,0,0,0,1,,,,,,,,,,,,,,,,,,,,,,,,,,,,,,,,,,,,,,,
,,,,,,,,2023-08-16_08h52.54.351,HF_wild_card,2022.2.4,Win32,58.82352941,596155a998cf77000106f8d8,64d2fd46c836a06233681665,64dc7f8454219764f686de82,,,,,,,decisionTrl,resources/DY.BMP,resources/DP.BMP,Door2,0.280555556,-0.048148148,1,0,0,1.262,optionRight,40,2425,2,1,0,1,0,1,,,,,,,,,,,,,,,,,,,,,,,,,,,,,,,,,,,,,,,
,,,,,,,,2023-08-16_08h52.54.351,HF_wild_card,2022.2.4,Win32,58.82352941,596155a998cf77000106f8d8,64d2fd46c836a06233681665,64dc7f8454219764f686de82,,,,,,,decisionTrl,resources/DBN.BMP,resources/DP.BMP,Door1,-0.340740741,-0.015740741,1,0,0,0.698,optionLeft,30,2455,2,2,0,2,0,1,,,,,,,,,,,,,,,,,,,,,,,,,,,,,,,,,,,,,,,
,,,,,,,,2023-08-16_08h52.54.351,HF_wild_card,2022.2.4,Win32,58.82352941,596155a998cf77000106f8d8,64d2fd46c836a06233681665,64dc7f8454219764f686de82,,,,,,,decisionTrl,resources/DB.BMP,resources/DR.BMP,Door4,-0.324074074,-0.009259259,1,0,0,0.745,optionLeft,80,2535,2,3,0,3,0,1,,,,,,,,,,,,,,,,,,,,,,,,,,,,,,,,,,,,,,,
,,,,,,,,2023-08-16_08h52.54.351,HF_wild_card,2022.2.4,Win32,58.82352941,596155a998cf77000106f8d8,64d2fd46c836a06233681665,64dc7f8454219764f686de82,,,,,,,decisionTrl,resources/DBN.BMP,resources/DP.BMP,Door2,0.373148148,-0.058333333,1,0,0,1.114,optionRight,20,2555,2,4,0,4,0,1,,,,,,,,,,,,,,,,,,,,,,,,,,,,,,,,,,,,,,,
,,,,,,,,2023-08-16_08h52.54.351,HF_wild_card,2022.2.4,Win32,58.82352941,596155a998cf77000106f8d8,64d2fd46c836a06233681665,64dc7f8454219764f686de82,,,,,,,ctch,resources/DR.BMP,resources/DP.BMP,Door3,-0.283333333,-0.028703704,1,0,0,0.715,optionLeft,70,2625,2,5,0,5,0,1,,,,,,,,,,,,,,,,,,,,,,,,,,,,,,,,,,,,,,,
,,,,,,,,2023-08-16_08h52.54.351,HF_wild_card,2022.2.4,Win32,58.82352941,596155a998cf77000106f8d8,64d2fd46c836a06233681665,64dc7f8454219764f686de82,,,,,,,decisionTrl,resources/DB.BMP,resources/DY.BMP,Door4,-0.267592593,-0.025,1,0,0,0.715,optionLeft,60,2685,2,6,0,6,0,1,,,,,,,,,,,,,,,,,,,,,,,,,,,,,,,,,,,,,,,
,,,,,,,,2023-08-16_08h52.54.351,HF_wild_card,2022.2.4,Win32,58.82352941,596155a998cf77000106f8d8,64d2fd46c836a06233681665,64dc7f8454219764f686de82,,,,,,,decisionTrl,resources/DR.BMP,resources/DB.BMP,Door4,0.448148148,-0.074074074,1,0,0,0.863,optionRight,60,2745,2,7,0,7,0,1,,,,,,,,,,,,,,,,,,,,,,,,,,,,,,,,,,,,,,,
,,,,,,,,2023-08-16_08h52.54.351,HF_wild_card,2022.2.4,Win32,58.82352941,596155a998cf77000106f8d8,64d2fd46c836a06233681665,64dc7f8454219764f686de82,,,,,,,ctch,resources/DB.BMP,resources/DBN.BMP,Door4,-0.217592593,-0.015740741,1,0,0,0.615,optionLeft,80,2825,2,8,0,8,0,1,,,,,,,,,,,,,,,,,,,,,,,,,,,,,,,,,,,,,,,
,,,,,,,,2023-08-16_08h52.54.351,HF_wild_card,2022.2.4,Win32,58.82352941,596155a998cf77000106f8d8,64d2fd46c836a06233681665,64dc7f8454219764f686de82,,,,,,,sngl,resources/DY.BMP,resources/Empty.png,WildCard_NonEx,-0.262037037,-0.010185185,1,0,0,0.699,optionLeft,55,2880,2,9,0,9,0,1,,,,,,,,,,,,,,,,,,,,,,,,,,,,,,,,,,,,,,,
,,,,,,,,2023-08-16_08h52.54.351,HF_wild_card,2022.2.4,Win32,58.82352941,596155a998cf77000106f8d8,64d2fd46c836a06233681665,64dc7f8454219764f686de82,,,,,,,decisionTrl,resources/DBN.BMP,resources/DP.BMP,Door1,-0.34537037,-0.022222222,1,0,0,1.017,optionLeft,30,2910,2,10,0,10,0,1,,,,,,,,,,,,,,,,,,,,,,,,,,,,,,,,,,,,,,,
,,,,,,,,2023-08-16_08h52.54.351,HF_wild_card,2022.2.4,Win32,58.82352941,596155a998cf77000106f8d8,64d2fd46c836a06233681665,64dc7f8454219764f686de82,,,,,,,ctch,resources/DR.BMP,resources/DP.BMP,Door3,-0.338888889,-0.012962963,1,0,0,1.244,optionLeft,70,2980,2,11,0,11,0,1,,,,,,,,,,,,,,,,,,,,,,,,,,,,,,,,,,,,,,,
,,,,,,,,2023-08-16_08h52.54.351,HF_wild_card,2022.2.4,Win32,58.82352941,596155a998cf77000106f8d8,64d2fd46c836a06233681665,64dc7f8454219764f686de82,,,,,,,sngl,resources/DB.BMP,resources/Empty.png,Door4,-0.237962963,-0.009259259,1,0,0,0.699,optionLeft,60,3040,2,12,0,12,0,1,,,,,,,,,,,,,,,,,,,,,,,,,,,,,,,,,,,,,,,
,,,,,,,,2023-08-16_08h52.54.351,HF_wild_card,2022.2.4,Win32,58.82352941,596155a998cf77000106f8d8,64d2fd46c836a06233681665,64dc7f8454219764f686de82,,,,,,,decisionTrl,resources/DP.BMP,resources/DBN.BMP,Door1,0.337037037,0.030555556,1,0,0,1.064,optionRight,30,3070,2,13,0,13,0,1,,,,,,,,,,,,,,,,,,,,,,,,,,,,,,,,,,,,,,,
,,,,,,,,2023-08-16_08h52.54.351,HF_wild_card,2022.2.4,Win32,58.82352941,596155a998cf77000106f8d8,64d2fd46c836a06233681665,64dc7f8454219764f686de82,,,,,,,decisionTrl,resources/DR.BMP,resources/DB.BMP,Door4,0.324074074,-0.030555556,1,0,0,0.699,optionRight,80,3150,2,14,0,14,0,1,,,,,,,,,,,,,,,,,,,,,,,,,,,,,,,,,,,,,,,
,,,,,,,,2023-08-16_08h52.54.351,HF_wild_card,2022.2.4,Win32,58.82352941,596155a998cf77000106f8d8,64d2fd46c836a06233681665,64dc7f8454219764f686de82,,,,,,,decisionTrl,resources/DY.BMP,resources/DB.BMP,Door4,0.286111111,-0.012037037,1,0,0,0.765,optionRight,60,3210,2,15,0,15,0,1,,,,,,,,,,,,,,,,,,,,,,,,,,,,,,,,,,,,,,,
,,,,,,,,2023-08-16_08h52.54.351,HF_wild_card,2022.2.4,Win32,58.82352941,596155a998cf77000106f8d8,64d2fd46c836a06233681665,64dc7f8454219764f686de82,,,,,,,decisionTrl,resources/DR.BMP,resources/DY.BMP,Door3,-0.3,-0.010185185,1,0,0,1.298,optionLeft,70,3280,2,16,0,16,0,1,,,,,,,,,,,,,,,,,,,,,,,,,,,,,,,,,,,,,,,
,,,,,,,,2023-08-16_08h52.54.351,HF_wild_card,2022.2.4,Win32,58.82352941,596155a998cf77000106f8d8,64d2fd46c836a06233681665,64dc7f8454219764f686de82,,,,,,,sngl,resources/DP.BMP,resources/Empty.png,Door2,-0.398148148,-0.034259259,1,0,0,0.815,optionLeft,20,3300,2,17,0,17,0,1,,,,,,,,,,,,,,,,,,,,,,,,,,,,,,,,,,,,,,,
,,,,,,,,2023-08-16_08h52.54.351,HF_wild_card,2022.2.4,Win32,58.82352941,596155a998cf77000106f8d8,64d2fd46c836a06233681665,64dc7f8454219764f686de82,,,,,,,decisionTrl,resources/DB.BMP,resources/DR.BMP,Door4,-0.317592593,-0.003703704,1,0,0,0.765,optionLeft,60,3360,2,18,0,18,0,1,,,,,,,,,,,,,,,,,,,,,,,,,,,,,,,,,,,,,,,
,,,,,,,,2023-08-16_08h52.54.351,HF_wild_card,2022.2.4,Win32,58.82352941,596155a998cf77000106f8d8,64d2fd46c836a06233681665,64dc7f8454219764f686de82,,,,,,,ctch,resources/DB.BMP,resources/DBN.BMP,Door4,-0.297222222,0.028703704,1,0,0,0.58,optionLeft,80,3440,2,19,0,19,0,1,,,,,,,,,,,,,,,,,,,,,,,,,,,,,,,,,,,,,,,
,,,,,,,,2023-08-16_08h52.54.351,HF_wild_card,2022.2.4,Win32,58.82352941,596155a998cf77000106f8d8,64d2fd46c836a06233681665,64dc7f8454219764f686de82,,,,,,,decisionTrl,resources/DP.BMP,resources/DBN.BMP,Door1,0.243518519,0.002777778,1,0,0,1.03,optionRight,30,3470,2,20,0,20,0,1,,,,,,,,,,,,,,,,,,,,,,,,,,,,,,,,,,,,,,,
,,,,,,,,2023-08-16_08h52.54.351,HF_wild_card,2022.2.4,Win32,58.82352941,596155a998cf77000106f8d8,64d2fd46c836a06233681665,64dc7f8454219764f686de82,,,,,,,ctch,resources/DBN.BMP,resources/DB.BMP,Door4,0.287962963,-0.001851852,1,0,0,0.763,optionRight,80,3550,2,21,0,21,0,1,,,,,,,,,,,,,,,,,,,,,,,,,,,,,,,,,,,,,,,
,,,,,,,,2023-08-16_08h52.54.351,HF_wild_card,2022.2.4,Win32,58.82352941,596155a998cf77000106f8d8,64d2fd46c836a06233681665,64dc7f8454219764f686de82,,,,,,,decisionTrl,resources/DY.BMP,resources/DBN.BMP,Door1,0.337962963,0.013888889,1,0,0,1.383,optionRight,30,3580,2,22,0,22,0,1,,,,,,,,,,,,,,,,,,,,,,,,,,,,,,,,,,,,,,,
,,,,,,,,2023-08-16_08h52.54.351,HF_wild_card,2022.2.4,Win32,58.82352941,596155a998cf77000106f8d8,64d2fd46c836a06233681665,64dc7f8454219764f686de82,,,,,,,sngl,resources/Empty.png,resources/DB.BMP,Door4,0.338888889,0.00462963,1,0,0,0.732,optionRight,80,3660,2,23,0,23,0,1,,,,,,,,,,,,,,,,,,,,,,,,,,,,,,,,,,,,,,,
,,,,,,,,2023-08-16_08h52.54.351,HF_wild_card,2022.2.4,Win32,58.82352941,596155a998cf77000106f8d8,64d2fd46c836a06233681665,64dc7f8454219764f686de82,,,,,,,decisionTrl,resources/DP.BMP,resources/DBN.BMP,Door1,0.230555556,0.030555556,1,0,0,1.429,optionRight,30,3690,2,24,0,24,0,1,,,,,,,,,,,,,,,,,,,,,,,,,,,,,,,,,,,,,,,
,,,,,,,,2023-08-16_08h52.54.351,HF_wild_card,2022.2.4,Win32,58.82352941,596155a998cf77000106f8d8,64d2fd46c836a06233681665,64dc7f8454219764f686de82,,,,,,,ctch,resources/DP.BMP,resources/DR.BMP,Door2,-0.414814815,0.037962963,1,0,0,1.564,optionLeft,20,3710,2,25,0,25,0,1,,,,,,,,,,,,,,,,,,,,,,,,,,,,,,,,,,,,,,,
,,,,,,,,2023-08-16_08h52.54.351,HF_wild_card,2022.2.4,Win32,58.82352941,596155a998cf77000106f8d8,64d2fd46c836a06233681665,64dc7f8454219764f686de82,,,,,,,ctch,resources/DBN.BMP,resources/DB.BMP,Door4,0.343518519,0.00462963,1,0,0,0.781,optionRight,60,3770,2,26,0,26,0,1,,,,,,,,,,,,,,,,,,,,,,,,,,,,,,,,,,,,,,,
,,,,,,,,2023-08-16_08h52.54.351,HF_wild_card,2022.2.4,Win32,58.82352941,596155a998cf77000106f8d8,64d2fd46c836a06233681665,64dc7f8454219764f686de82,,,,,,,decisionTrl,resources/DR.BMP,resources/DB.BMP,Door4,0.302777778,-0.007407407,1,0,0,1.682,optionRight,80,3850,2,27,0,27,0,1,,,,,,,,,,,,,,,,,,,,,,,,,,,,,,,,,,,,,,,
,,,,,,,,2023-08-16_08h52.54.351,HF_wild_card,2022.2.4,Win32,58.82352941,596155a998cf77000106f8d8,64d2fd46c836a06233681665,64dc7f8454219764f686de82,,,,,,,decisionTrl,resources/DBN.BMP,resources/DP.BMP,Door1,-0.225925926,0.015740741,1,0,0,1.314,optionLeft,30,3880,2,28,0,28,0,1,,,,,,,,,,,,,,,,,,,,,,,,,,,,,,,,,,,,,,,
,,,,,,,,2023-08-16_08h52.54.351,HF_wild_card,2022.2.4,Win32,58.82352941,596155a998cf77000106f8d8,64d2fd46c836a06233681665,64dc7f8454219764f686de82,,,,,,,sngl,resources/Empty.png,resources/DY.BMP,WildCard_NonEx,0.185185185,-0.005555556,1,0,0,0.847,optionRight,45,3925,2,29,0,29,0,1,,,,,,,,,,,,,,,,,,,,,,,,,,,,,,,,,,,,,,,
,,,,,,,,2023-08-16_08h52.54.351,HF_wild_card,2022.2.4,Win32,58.82352941,596155a998cf77000106f8d8,64d2fd46c836a06233681665,64dc7f8454219764f686de82,,,,,,,decisionTrl,resources/DB.BMP,resources/DR.BMP,Door4,-0.228703704,0.021296296,1,0,0,0.616,optionLeft,60,3985,2,30,0,30,0,1,,,,,,,,,,,,,,,,,,,,,,,,,,,,,,,,,,,,,,,
,,,,,,,,2023-08-16_08h52.54.351,HF_wild_card,2022.2.4,Win32,58.82352941,596155a998cf77000106f8d8,64d2fd46c836a06233681665,64dc7f8454219764f686de82,,,,,,,sngl,resources/Empty.png,resources/DR.BMP,Door3,0.199074074,-0.001851852,1,0,0,0.931,optionRight,70,4055,2,31,0,31,0,1,,,,,,,,,,,,,,,,,,,,,,,,,,,,,,,,,,,,,,,
,,,,,,,,2023-08-16_08h52.54.351,HF_wild_card,2022.2.4,Win32,58.82352941,596155a998cf77000106f8d8,64d2fd46c836a06233681665,64dc7f8454219764f686de82,,,,,,,sngl,resources/Empty.png,resources/DBN.BMP,Door1,0.29537037,0.007407407,1,0,0,0.699,optionRight,30,4085,2,32,0,32,0,1,,,,,,,,,,,,,,,,,,,,,,,,,,,,,,,,,,,,,,,
,,,,,,,,2023-08-16_08h52.54.351,HF_wild_card,2022.2.4,Win32,58.82352941,596155a998cf77000106f8d8,64d2fd46c836a06233681665,64dc7f8454219764f686de82,,,,,,,decisionTrl,resources/DB.BMP,resources/DR.BMP,Door4,-0.197222222,0.003703704,1,0,0,0.646,optionLeft,60,4145,2,33,0,33,0,1,,,,,,,,,,,,,,,,,,,,,,,,,,,,,,,,,,,,,,,
,,,,,,,,2023-08-16_08h52.54.351,HF_wild_card,2022.2.4,Win32,58.82352941,596155a998cf77000106f8d8,64d2fd46c836a06233681665,64dc7f8454219764f686de82,,,,,,,sngl,resources/DR.BMP,resources/Empty.png,Door3,-0.223148148,-0.012962963,1,0,0,0.863,optionLeft,70,4215,2,34,0,34,0,1,,,,,,,,,,,,,,,,,,,,,,,,,,,,,,,,,,,,,,,
,,,,,,,,2023-08-16_08h52.54.351,HF_wild_card,2022.2.4,Win32,58.82352941,596155a998cf77000106f8d8,64d2fd46c836a06233681665,64dc7f8454219764f686de82,,,,,,,decisionTrl,resources/DY.BMP,resources/DR.BMP,WildCard_NonEx,-0.240740741,0.007407407,1,0,0,1.982,optionLeft,45,4260,2,35,0,35,0,1,,,,,,,,,,,,,,,,,,,,,,,,,,,,,,,,,,,,,,,
,,,,,,,,2023-08-16_08h52.54.351,HF_wild_card,2022.2.4,Win32,58.82352941,596155a998cf77000106f8d8,64d2fd46c836a06233681665,64dc7f8454219764f686de82,,,,,,,decisionTrl,resources/DP.BMP,resources/DY.BMP,WildCard_NonEx,0.27962963,-0.019444444,1,0,0,1.181,optionRight,45,4305,2,36,0,36,0,1,,,,,,,,,,,,,,,,,,,,,,,,,,,,,,,,,,,,,,,
,,,,,,,,2023-08-16_08h52.54.351,HF_wild_card,2022.2.4,Win32,58.82352941,596155a998cf77000106f8d8,64d2fd46c836a06233681665,64dc7f8454219764f686de82,,,,,,,decisionTrl,resources/DP.BMP,resources/DBN.BMP,Door1,0.258333333,-0.001851852,1,0,0,0.995,optionRight,30,4335,2,37,0,37,0,1,,,,,,,,,,,,,,,,,,,,,,,,,,,,,,,,,,,,,,,
,,,,,,,,2023-08-16_08h52.54.351,HF_wild_card,2022.2.4,Win32,58.82352941,596155a998cf77000106f8d8,64d2fd46c836a06233681665,64dc7f8454219764f686de82,,,,,,,sngl,resources/Empty.png,resources/DP.BMP,Door2,0.305555556,0.006481481,1,0,0,0.63,optionRight,40,4375,2,38,0,38,0,1,,,,,,,,,,,,,,,,,,,,,,,,,,,,,,,,,,,,,,,
,,,,,,,,2023-08-16_08h52.54.351,HF_wild_card,2022.2.4,Win32,58.82352941,596155a998cf77000106f8d8,64d2fd46c836a06233681665,64dc7f8454219764f686de82,,,,,,,decisionTrl,resources/DBN.BMP,resources/DY.BMP,Door1,-0.252777778,0.001851852,1,0,0,1.381,optionLeft,30,4405,2,39,0,39,0,1,,,,,,,,,,,,,,,,,,,,,,,,,,,,,,,,,,,,,,,
,,,,,,,,2023-08-16_08h52.54.351,HF_wild_card,2022.2.4,Win32,58.82352941,596155a998cf77000106f8d8,64d2fd46c836a06233681665,64dc7f8454219764f686de82,,,,,,,sngl,resources/DBN.BMP,resources/Empty.png,Door1,-0.296296296,0,1,0,0,0.647,optionLeft,30,4435,2,40,0,40,0,1,,,,,,,,,,,,,,,,,,,,,,,,,,,,,,,,,,,,,,,
,,,,,,,,2023-08-16_08h52.54.351,HF_wild_card,2022.2.4,Win32,58.82352941,596155a998cf77000106f8d8,64d2fd46c836a06233681665,64dc7f8454219764f686de82,,,,,,,sngl,resources/DY.BMP,resources/Empty.png,WildCard_NonEx,-0.247222222,-0.000925926,1,0,0,0.649,optionLeft,45,4480,2,41,0,41,0,1,,,,,,,,,,,,,,,,,,,,,,,,,,,,,,,,,,,,,,,
,,,,,,,,2023-08-16_08h52.54.351,HF_wild_card,2022.2.4,Win32,58.82352941,596155a998cf77000106f8d8,64d2fd46c836a06233681665,64dc7f8454219764f686de82,,,,,,,decisionTrl,resources/DR.BMP,resources/DB.BMP,Door4,0.25462963,-0.043518519,1,0,0,0.714,optionRight,80,4560,2,42,0,42,0,1,,,,,,,,,,,,,,,,,,,,,,,,,,,,,,,,,,,,,,,
,,,,,,,,2023-08-16_08h52.54.351,HF_wild_card,2022.2.4,Win32,58.82352941,596155a998cf77000106f8d8,64d2fd46c836a06233681665,64dc7f8454219764f686de82,,,,,,,ctch,resources/DP.BMP,resources/DR.BMP,Door2,-0.274074074,0.001851852,1,0,0,1.447,optionLeft,40,4600,2,43,0,43,0,1,,,,,,,,,,,,,,,,,,,,,,,,,,,,,,,,,,,,,,,
,,,,,,,,2023-08-16_08h52.54.351,HF_wild_card,2022.2.4,Win32,58.82352941,596155a998cf77000106f8d8,64d2fd46c836a06233681665,64dc7f8454219764f686de82,,,,,,,,,,,,,,,,,,,,,,,,,,1,0,1,0,1,,,,,,,,,,,,,,,,,,,,,,,,,,,,,,,,,,
,,,,,,,,2023-08-16_08h52.54.351,HF_wild_card,2022.2.4,Win32,58.82352941,596155a998cf77000106f8d8,64d2fd46c836a06233681665,64dc7f8454219764f686de82,,,,,,,ctch,resources/DP.BMP,resources/DR.BMP,Door2,-0.427970557,-0.116193481,1,0,0,1.362,optionLeft,40,4640,3,0,0,0,0,1,,,,,,,,,,,,,,,,,,,,,,,,,,,,,,,,,,,,,,,
,,,,,,,,2023-08-16_08h52.54.351,HF_wild_card,2022.2.4,Win32,58.82352941,596155a998cf77000106f8d8,64d2fd46c836a06233681665,64dc7f8454219764f686de82,,,,,,,decisionTrl,resources/DY.BMP,resources/DBN.BMP,Door1,0.208201893,-0.011041009,1,0,0,1.031,optionRight,30,4670,3,1,0,1,0,1,,,,,,,,,,,,,,,,,,,,,,,,,,,,,,,,,,,,,,,
,,,,,,,,2023-08-16_08h52.54.351,HF_wild_card,2022.2.4,Win32,58.82352941,596155a998cf77000106f8d8,64d2fd46c836a06233681665,64dc7f8454219764f686de82,,,,,,,ctch,resources/DB.BMP,resources/DBN.BMP,Door4,-0.29232387,-0.018401682,1,0,0,0.598,optionLeft,80,4750,3,2,0,2,0,1,,,,,,,,,,,,,,,,,,,,,,,,,,,,,,,,,,,,,,,
,,,,,,,,2023-08-16_08h52.54.351,HF_wild_card,2022.2.4,Win32,58.82352941,596155a998cf77000106f8d8,64d2fd46c836a06233681665,64dc7f8454219764f686de82,,,,,,,decisionTrl,resources/DR.BMP,resources/DB.BMP,Door4,0.291272345,-0.069926393,1,0,0,0.599,optionRight,80,4830,3,3,0,3,0,1,,,,,,,,,,,,,,,,,,,,,,,,,,,,,,,,,,,,,,,
,,,,,,,,2023-08-16_08h52.54.351,HF_wild_card,2022.2.4,Win32,58.82352941,596155a998cf77000106f8d8,64d2fd46c836a06233681665,64dc7f8454219764f686de82,,,,,,,decisionTrl,resources/DB.BMP,resources/DR.BMP,Door4,-0.257623554,0.023659306,1,0,0,0.663,optionLeft,80,4910,3,4,0,4,0,1,,,,,,,,,,,,,,,,,,,,,,,,,,,,,,,,,,,,,,,
,,,,,,,,2023-08-16_08h52.54.351,HF_wild_card,2022.2.4,Win32,58.82352941,596155a998cf77000106f8d8,64d2fd46c836a06233681665,64dc7f8454219764f686de82,,,,,,,decisionTrl,resources/DBN.BMP,resources/DY.BMP,WildCard_NonEx,0.316508938,-0.025762355,1,0,0,0.896,optionRight,55,4965,3,5,0,5,0,1,,,,,,,,,,,,,,,,,,,,,,,,,,,,,,,,,,,,,,,
,,,,,,,,2023-08-16_08h52.54.351,HF_wild_card,2022.2.4,Win32,58.82352941,596155a998cf77000106f8d8,64d2fd46c836a06233681665,64dc7f8454219764f686de82,,,,,,,decisionTrl,resources/DBN.BMP,resources/DP.BMP,Door2,0.40168244,0.025762355,1,0,0,0.966,optionRight,40,5005,3,6,0,6,0,1,,,,,,,,,,,,,,,,,,,,,,,,,,,,,,,,,,,,,,,
,,,,,,,,2023-08-16_08h52.54.351,HF_wild_card,2022.2.4,Win32,58.82352941,596155a998cf77000106f8d8,64d2fd46c836a06233681665,64dc7f8454219764f686de82,,,,,,,decisionTrl,resources/DP.BMP,resources/DBN.BMP,Door2,-0.459516299,0.070977918,1,0,0,0.83,optionLeft,40,5045,3,7,0,7,0,1,,,,,,,,,,,,,,,,,,,,,,,,,,,,,,,,,,,,,,,
,,,,,,,,2023-08-16_08h52.54.351,HF_wild_card,2022.2.4,Win32,58.82352941,596155a998cf77000106f8d8,64d2fd46c836a06233681665,64dc7f8454219764f686de82,,,,,,,sngl,resources/Empty.png,resources/DY.BMP,WildCard_NonEx,0.193480547,-0.007886435,1,0,0,0.698,optionRight,55,5100,3,8,0,8,0,1,,,,,,,,,,,,,,,,,,,,,,,,,,,,,,,,,,,,,,,
,,,,,,,,2023-08-16_08h52.54.351,HF_wild_card,2022.2.4,Win32,58.82352941,596155a998cf77000106f8d8,64d2fd46c836a06233681665,64dc7f8454219764f686de82,,,,,,,decisionTrl,resources/DR.BMP,resources/DB.BMP,Door4,0.412197687,0.00893796,1,0,0,0.798,optionRight,60,5160,3,9,0,9,0,1,,,,,,,,,,,,,,,,,,,,,,,,,,,,,,,,,,,,,,,
,,,,,,,,2023-08-16_08h52.54.351,HF_wild_card,2022.2.4,Win32,58.82352941,596155a998cf77000106f8d8,64d2fd46c836a06233681665,64dc7f8454219764f686de82,,,,,,,decisionTrl,resources/DB.BMP,resources/DR.BMP,Door4,-0.173501577,-0.002628812,1,0,0,0.663,optionLeft,80,5240,3,10,0,10,0,1,,,,,,,,,,,,,,,,,,,,,,,,,,,,,,,,,,,,,,,
,,,,,,,,2023-08-16_08h52.54.351,HF_wild_card,2022.2.4,Win32,58.82352941,596155a998cf77000106f8d8,64d2fd46c836a06233681665,64dc7f8454219764f686de82,,,,,,,sngl,resources/DY.BMP,resources/Empty.png,WildCard_NonEx,-0.217665615,-0.027865405,1,0,0,0.765,optionLeft,55,5295,3,11,0,11,0,1,,,,,,,,,,,,,,,,,,,,,,,,,,,,,,,,,,,,,,,
,,,,,,,,2023-08-16_08h52.54.351,HF_wild_card,2022.2.4,Win32,58.82352941,596155a998cf77000106f8d8,64d2fd46c836a06233681665,64dc7f8454219764f686de82,,,,,,,decisionTrl,resources/DP.BMP,resources/DY.BMP,Door2,-0.241850683,-0.023659306,1,0,0,1.298,optionLeft,20,5315,3,12,0,12,0,1,,,,,,,,,,,,,,,,,,,,,,,,,,,,,,,,,,,,,,,
,,,,,,,,2023-08-16_08h52.54.351,HF_wild_card,2022.2.4,Win32,58.82352941,596155a998cf77000106f8d8,64d2fd46c836a06233681665,64dc7f8454219764f686de82,,,,,,,sngl,resources/DY.BMP,resources/Empty.png,WildCard_NonEx,-0.25446898,-0.006834911,1,0,0,0.746,optionLeft,45,5360,3,13,0,13,0,1,,,,,,,,,,,,,,,,,,,,,,,,,,,,,,,,,,,,,,,
,,,,,,,,2023-08-16_08h52.54.351,HF_wild_card,2022.2.4,Win32,58.82352941,596155a998cf77000106f8d8,64d2fd46c836a06233681665,64dc7f8454219764f686de82,,,,,,,decisionTrl,resources/DB.BMP,resources/DR.BMP,Door3,0.282860147,-0.007886435,1,0,0,0.961,optionRight,70,5430,3,14,0,14,0,1,,,,,,,,,,,,,,,,,,,,,,,,,,,,,,,,,,,,,,,
,,,,,,,,2023-08-16_08h52.54.351,HF_wild_card,2022.2.4,Win32,58.82352941,596155a998cf77000106f8d8,64d2fd46c836a06233681665,64dc7f8454219764f686de82,,,,,,,sngl,resources/DP.BMP,resources/Empty.png,Door2,-0.213459516,-0.009989485,1,0,0,0.848,optionLeft,40,5470,3,15,0,15,0,1,,,,,,,,,,,,,,,,,,,,,,,,,,,,,,,,,,,,,,,
,,,,,,,,2023-08-16_08h52.54.351,HF_wild_card,2022.2.4,Win32,58.82352941,596155a998cf77000106f8d8,64d2fd46c836a06233681665,64dc7f8454219764f686de82,,,,,,,ctch,resources/DB.BMP,resources/DBN.BMP,Door1,0.247108307,-0.005783386,1,0,0,1.064,optionRight,30,5500,3,16,0,16,0,1,,,,,,,,,,,,,,,,,,,,,,,,,,,,,,,,,,,,,,,
,,,,,,,,2023-08-16_08h52.54.351,HF_wild_card,2022.2.4,Win32,58.82352941,596155a998cf77000106f8d8,64d2fd46c836a06233681665,64dc7f8454219764f686de82,,,,,,,decisionTrl,resources/DP.BMP,resources/DBN.BMP,Door1,0.304942166,-0.004731861,1,0,0,1.33,optionRight,30,5530,3,17,0,17,0,1,,,,,,,,,,,,,,,,,,,,,,,,,,,,,,,,,,,,,,,
,,,,,,,,2023-08-16_08h52.54.351,HF_wild_card,2022.2.4,Win32,58.82352941,596155a998cf77000106f8d8,64d2fd46c836a06233681665,64dc7f8454219764f686de82,,,,,,,sngl,resources/Empty.png,resources/DR.BMP,Door3,0.351209253,-0.016298633,1,0,0,0.88,optionRight,70,5600,3,18,0,18,0,1,,,,,,,,,,,,,,,,,,,,,,,,,,,,,,,,,,,,,,,
,,,,,,,,2023-08-16_08h52.54.351,HF_wild_card,2022.2.4,Win32,58.82352941,596155a998cf77000106f8d8,64d2fd46c836a06233681665,64dc7f8454219764f686de82,,,,,,,decisionTrl,resources/DBN.BMP,resources/DP.BMP,Door1,-0.188222923,-0.017350158,1,0,0,1.414,optionLeft,30,5630,3,19,0,19,0,1,,,,,,,,,,,,,,,,,,,,,,,,,,,,,,,,,,,,,,,
,,,,,,,,2023-08-16_08h52.54.351,HF_wild_card,2022.2.4,Win32,58.82352941,596155a998cf77000106f8d8,64d2fd46c836a06233681665,64dc7f8454219764f686de82,,,,,,,decisionTrl,resources/DB.BMP,resources/DR.BMP,Door4,-0.34384858,-0.02891693,1,0,0,0.78,optionLeft,80,5710,3,20,0,20,0,1,,,,,,,,,,,,,,,,,,,,,,,,,,,,,,,,,,,,,,,
,,,,,,,,2023-08-16_08h52.54.351,HF_wild_card,2022.2.4,Win32,58.82352941,596155a998cf77000106f8d8,64d2fd46c836a06233681665,64dc7f8454219764f686de82,,,,,,,ctch,resources/DBN.BMP,resources/DB.BMP,Door4,0.275499474,-0.015247108,1,0,0,0.747,optionRight,80,5790,3,21,0,21,0,1,,,,,,,,,,,,,,,,,,,,,,,,,,,,,,,,,,,,,,,
,,,,,,,,2023-08-16_08h52.54.351,HF_wild_card,2022.2.4,Win32,58.82352941,596155a998cf77000106f8d8,64d2fd46c836a06233681665,64dc7f8454219764f686de82,,,,,,,sngl,resources/Empty.png,resources/DB.BMP,Door4,0.248159832,-0.019453207,1,0,0,0.663,optionRight,60,5850,3,22,0,22,0,1,,,,,,,,,,,,,,,,,,,,,,,,,,,,,,,,,,,,,,,
,,,,,,,,2023-08-16_08h52.54.351,HF_wild_card,2022.2.4,Win32,58.82352941,596155a998cf77000106f8d8,64d2fd46c836a06233681665,64dc7f8454219764f686de82,,,,,,,ctch,resources/DBN.BMP,resources/DB.BMP,Door4,0.270241851,-0.00893796,1,0,0,0.648,optionRight,60,5910,3,23,0,23,0,1,,,,,,,,,,,,,,,,,,,,,,,,,,,,,,,,,,,,,,,
,,,,,,,,2023-08-16_08h52.54.351,HF_wild_card,2022.2.4,Win32,58.82352941,596155a998cf77000106f8d8,64d2fd46c836a06233681665,64dc7f8454219764f686de82,,,,,,,decisionTrl,resources/DY.BMP,resources/DP.BMP,WildCard_NonEx,-0.206098843,-0.006834911,1,0,0,1.112,optionLeft,55,5965,3,24,0,24,0,1,,,,,,,,,,,,,,,,,,,,,,,,,,,,,,,,,,,,,,,
,,,,,,,,2023-08-16_08h52.54.351,HF_wild_card,2022.2.4,Win32,58.82352941,596155a998cf77000106f8d8,64d2fd46c836a06233681665,64dc7f8454219764f686de82,,,,,,,decisionTrl,resources/DR.BMP,resources/DB.BMP,Door4,0.296529968,-0.007886435,1,0,0,1.547,optionRight,80,6045,3,25,0,25,0,1,,,,,,,,,,,,,,,,,,,,,,,,,,,,,,,,,,,,,,,
,,,,,,,,2023-08-16_08h52.54.351,HF_wild_card,2022.2.4,Win32,58.82352941,596155a998cf77000106f8d8,64d2fd46c836a06233681665,64dc7f8454219764f686de82,,,,,,,decisionTrl,resources/DBN.BMP,resources/DP.BMP,Door1,-0.329127234,0.023659306,1,0,0,1.247,optionLeft,30,6075,3,26,0,26,0,1,,,,,,,,,,,,,,,,,,,,,,,,,,,,,,,,,,,,,,,
,,,,,,,,2023-08-16_08h52.54.351,HF_wild_card,2022.2.4,Win32,58.82352941,596155a998cf77000106f8d8,64d2fd46c836a06233681665,64dc7f8454219764f686de82,,,,,,,decisionTrl,resources/DB.BMP,resources/DY.BMP,Door4,-0.240799159,-0.002628812,1,0,0,0.798,optionLeft,80,6155,3,27,0,27,0,1,,,,,,,,,,,,,,,,,,,,,,,,,,,,,,,,,,,,,,,
,,,,,,,,2023-08-16_08h52.54.351,HF_wild_card,2022.2.4,Win32,58.82352941,596155a998cf77000106f8d8,64d2fd46c836a06233681665,64dc7f8454219764f686de82,,,,,,,sngl,resources/DR.BMP,resources/Empty.png,Door3,-0.281808623,-0.003680336,1,0,0,0.613,optionLeft,70,6225,3,28,0,28,0,1,,,,,,,,,,,,,,,,,,,,,,,,,,,,,,,,,,,,,,,
,,,,,,,,2023-08-16_08h52.54.351,HF_wild_card,2022.2.4,Win32,58.82352941,596155a998cf77000106f8d8,64d2fd46c836a06233681665,64dc7f8454219764f686de82,,,,,,,decisionTrl,resources/DY.BMP,resources/DB.BMP,Door4,0.29232387,-0.009989485,1,0,0,0.881,optionRight,80,6305,3,29,0,29,0,1,,,,,,,,,,,,,,,,,,,,,,,,,,,,,,,,,,,,,,,
,,,,,,,,2023-08-16_08h52.54.351,HF_wild_card,2022.2.4,Win32,58.82352941,596155a998cf77000106f8d8,64d2fd46c836a06233681665,64dc7f8454219764f686de82,,,,,,,sngl,resources/DBN.BMP,resources/Empty.png,Door1,-0.173501577,-0.006834911,1,0,0,1.949,optionLeft,30,6335,3,30,0,30,0,1,,,,,,,,,,,,,,,,,,,,,,,,,,,,,,,,,,,,,,,
,,,,,,,,2023-08-16_08h52.54.351,HF_wild_card,2022.2.4,Win32,58.82352941,596155a998cf77000106f8d8,64d2fd46c836a06233681665,64dc7f8454219764f686de82,,,,,,,ctch,resources/DR.BMP,resources/DP.BMP,Door3,-0.231335436,-0.007886435,1,0,0,2.248,optionLeft,70,6405,3,31,0,31,0,1,,,,,,,,,,,,,,,,,,,,,,,,,,,,,,,,,,,,,,,
,,,,,,,,2023-08-16_08h52.54.351,HF_wild_card,2022.2.4,Win32,58.82352941,596155a998cf77000106f8d8,64d2fd46c836a06233681665,64dc7f8454219764f686de82,,,,,,,decisionTrl,resources/DP.BMP,resources/DBN.BMP,Door1,0.16298633,-0.032071504,1,0,0,1.381,optionRight,30,6435,3,32,0,32,0,1,,,,,,,,,,,,,,,,,,,,,,,,,,,,,,,,,,,,,,,
,,,,,,,,2023-08-16_08h52.54.351,HF_wild_card,2022.2.4,Win32,58.82352941,596155a998cf77000106f8d8,64d2fd46c836a06233681665,64dc7f8454219764f686de82,,,,,,,sngl,resources/Empty.png,resources/DY.BMP,WildCard_NonEx,0.205047319,-0.003680336,1,0,0,0.865,optionRight,45,6480,3,33,0,33,0,1,,,,,,,,,,,,,,,,,,,,,,,,,,,,,,,,,,,,,,,
,,,,,,,,2023-08-16_08h52.54.351,HF_wild_card,2022.2.4,Win32,58.82352941,596155a998cf77000106f8d8,64d2fd46c836a06233681665,64dc7f8454219764f686de82,,,,,,,decisionTrl,resources/DBN.BMP,resources/DP.BMP,Door1,-0.34384858,-0.050998948,1,0,0,1.247,optionLeft,30,6510,3,34,0,34,0,1,,,,,,,,,,,,,,,,,,,,,,,,,,,,,,,,,,,,,,,
,,,,,,,,2023-08-16_08h52.54.351,HF_wild_card,2022.2.4,Win32,58.82352941,596155a998cf77000106f8d8,64d2fd46c836a06233681665,64dc7f8454219764f686de82,,,,,,,ctch,resources/DP.BMP,resources/DR.BMP,Door3,0.231335436,-0.038380652,1,0,0,1.045,optionRight,70,6580,3,35,0,35,0,1,,,,,,,,,,,,,,,,,,,,,,,,,,,,,,,,,,,,,,,
,,,,,,,,2023-08-16_08h52.54.351,HF_wild_card,2022.2.4,Win32,58.82352941,596155a998cf77000106f8d8,64d2fd46c836a06233681665,64dc7f8454219764f686de82,,,,,,,ctch,resources/DR.BMP,resources/DP.BMP,Door3,-0.262881178,-0.019453207,1,0,0,1.065,optionLeft,70,6650,3,36,0,36,0,1,,,,,,,,,,,,,,,,,,,,,,,,,,,,,,,,,,,,,,,
,,,,,,,,2023-08-16_08h52.54.351,HF_wild_card,2022.2.4,Win32,58.82352941,596155a998cf77000106f8d8,64d2fd46c836a06233681665,64dc7f8454219764f686de82,,,,,,,decisionTrl,resources/DP.BMP,resources/DBN.BMP,Door1,0.205047319,-0.018401682,1,0,0,1.546,optionRight,30,6680,3,37,0,37,0,1,,,,,,,,,,,,,,,,,,,,,,,,,,,,,,,,,,,,,,,
,,,,,,,,2023-08-16_08h52.54.351,HF_wild_card,2022.2.4,Win32,58.82352941,596155a998cf77000106f8d8,64d2fd46c836a06233681665,64dc7f8454219764f686de82,,,,,,,decisionTrl,resources/DR.BMP,resources/DB.BMP,Door4,0.379600421,-0.050998948,1,0,0,0.807,optionRight,60,6740,3,38,0,38,0,1,,,,,,,,,,,,,,,,,,,,,,,,,,,,,,,,,,,,,,,
,,,,,,,,2023-08-16_08h52.54.351,HF_wild_card,2022.2.4,Win32,58.82352941,596155a998cf77000106f8d8,64d2fd46c836a06233681665,64dc7f8454219764f686de82,,,,,,,sngl,resources/Empty.png,resources/DP.BMP,Door2,0.279705573,-0.038380652,1,0,0,0.797,optionRight,20,6760,3,39,0,39,0,1,,,,,,,,,,,,,,,,,,,,,,,,,,,,,,,,,,,,,,,
,,,,,,,,2023-08-16_08h52.54.351,HF_wild_card,2022.2.4,Win32,58.82352941,596155a998cf77000106f8d8,64d2fd46c836a06233681665,64dc7f8454219764f686de82,,,,,,,decisionTrl,resources/DY.BMP,resources/DR.BMP,Door3,0.247108307,-0.016298633,1,0,0,1.233,optionRight,70,6830,3,40,0,40,0,1,,,,,,,,,,,,,,,,,,,,,,,,,,,,,,,,,,,,,,,
,,,,,,,,2023-08-16_08h52.54.351,HF_wild_card,2022.2.4,Win32,58.82352941,596155a998cf77000106f8d8,64d2fd46c836a06233681665,64dc7f8454219764f686de82,,,,,,,decisionTrl,resources/DR.BMP,resources/DY.BMP,Door3,-0.373291272,0.001577287,1,0,0,1.232,optionLeft,70,6900,3,41,0,41,0,1,,,,,,,,,,,,,,,,,,,,,,,,,,,,,,,,,,,,,,,
,,,,,,,,2023-08-16_08h52.54.351,HF_wild_card,2022.2.4,Win32,58.82352941,596155a998cf77000106f8d8,64d2fd46c836a06233681665,64dc7f8454219764f686de82,,,,,,,sngl,resources/DB.BMP,resources/Empty.png,Door4,-0.293375394,0.003680336,1,0,0,0.73,optionLeft,80,6980,3,42,0,42,0,1,,,,,,,,,,,,,,,,,,,,,,,,,,,,,,,,,,,,,,,
,,,,,,,,2023-08-16_08h52.54.351,HF_wild_card,2022.2.4,Win32,58.82352941,596155a998cf77000106f8d8,64d2fd46c836a06233681665,64dc7f8454219764f686de82,,,,,,,sngl,resources/Empty.png,resources/DBN.BMP,Door1,0.261829653,-0.002628812,1,0,0,0.728,optionRight,30,7010,3,43,0,43,0,1,,,,,,,,,,,,,,,,,,,,,,,,,,,,,,,,,,,,,,,
,,,,,,,,2023-08-16_08h52.54.351,HF_wild_card,2022.2.4,Win32,58.82352941,596155a998cf77000106f8d8,64d2fd46c836a06233681665,64dc7f8454219764f686de82,,,,,,,,,,,,,,,,,,,,,,,,,,2,0,2,0,1,,,,,,,,,,,,,,,,,,,,,,,,,,,,,,,,,,
,,,,,,,,2023-08-16_08h52.54.351,HF_wild_card,2022.2.4,Win32,58.82352941,596155a998cf77000106f8d8,64d2fd46c836a06233681665,64dc7f8454219764f686de82,,,,,,,decisionTrl,resources/DB.BMP,resources/DR.BMP,Door4,-0.321766562,-0.185594111,1,0,0,1.145,optionLeft,60,7070,4,0,0,0,0,1,,,,,,,,,,,,,,,,,,,,,,,,,,,,,,,,,,,,,,,
,,,,,,,,2023-08-16_08h52.54.351,HF_wild_card,2022.2.4,Win32,58.82352941,596155a998cf77000106f8d8,64d2fd46c836a06233681665,64dc7f8454219764f686de82,,,,,,,decisionTrl,resources/DB.BMP,resources/DG.BMP,Door4,-0.284963197,-0.045741325,1,0,0,0.765,optionLeft,80,7150,4,1,0,1,0,1,,,,,,,,,,,,,,,,,,,,,,,,,,,,,,,,,,,,,,,
,,,,,,,,2023-08-16_08h52.54.351,HF_wild_card,2022.2.4,Win32,58.82352941,596155a998cf77000106f8d8,64d2fd46c836a06233681665,64dc7f8454219764f686de82,,,,,,,decisionTrl,resources/DB.BMP,resources/DR.BMP,Door4,-0.293375394,-0.042586751,1,0,0,0.648,optionLeft,60,7210,4,2,0,2,0,1,,,,,,,,,,,,,,,,,,,,,,,,,,,,,,,,,,,,,,,
,,,,,,,,2023-08-16_08h52.54.351,HF_wild_card,2022.2.4,Win32,58.82352941,596155a998cf77000106f8d8,64d2fd46c836a06233681665,64dc7f8454219764f686de82,,,,,,,decisionTrl,resources/DBN.BMP,resources/DG.BMP,WildCard_Ex,0.276550999,-0.024710831,1,0,0,0.997,optionRight,45,7255,4,3,0,3,0,1,,,,,,,,,,,,,,,,,,,,,,,,,,,,,,,,,,,,,,,
,,,,,,,,2023-08-16_08h52.54.351,HF_wild_card,2022.2.4,Win32,58.82352941,596155a998cf77000106f8d8,64d2fd46c836a06233681665,64dc7f8454219764f686de82,,,,,,,decisionTrl,resources/DBN.BMP,resources/DP.BMP,Door1,-0.354363828,-0.039432177,1,0,0,1.214,optionLeft,30,7285,4,4,0,4,0,1,,,,,,,,,,,,,,,,,,,,,,,,,,,,,,,,,,,,,,,
,,,,,,,,2023-08-16_08h52.54.351,HF_wild_card,2022.2.4,Win32,58.82352941,596155a998cf77000106f8d8,64d2fd46c836a06233681665,64dc7f8454219764f686de82,,,,,,,ctch,resources/DB.BMP,resources/DBN.BMP,Door4,-0.219768665,-0.039432177,1,0,0,1.08,optionLeft,80,7365,4,5,0,5,0,1,,,,,,,,,,,,,,,,,,,,,,,,,,,,,,,,,,,,,,,
,,,,,,,,2023-08-16_08h52.54.351,HF_wild_card,2022.2.4,Win32,58.82352941,596155a998cf77000106f8d8,64d2fd46c836a06233681665,64dc7f8454219764f686de82,,,,,,,ctch,resources/DB.BMP,resources/DBN.BMP,Door4,-0.230283912,-0.023659306,1,0,0,0.624,optionLeft,60,7425,4,6,0,6,0,1,,,,,,,,,,,,,,,,,,,,,,,,,,,,,,,,,,,,,,,
,,,,,,,,2023-08-16_08h52.54.351,HF_wild_card,2022.2.4,Win32,58.82352941,596155a998cf77000106f8d8,64d2fd46c836a06233681665,64dc7f8454219764f686de82,,,,,,,sngl,resources/DG.BMP,resources/Empty.png,WildCard_Ex,-0.263932702,-0.025762355,1,0,0,0.93,optionLeft,55,7480,4,7,0,7,0,1,,,,,,,,,,,,,,,,,,,,,,,,,,,,,,,,,,,,,,,
,,,,,,,,2023-08-16_08h52.54.351,HF_wild_card,2022.2.4,Win32,58.82352941,596155a998cf77000106f8d8,64d2fd46c836a06233681665,64dc7f8454219764f686de82,,,,,,,decisionTrl,resources/DR.BMP,resources/DG.BMP,Door3,-0.257623554,-0.040483701,1,0,0,1.146,optionLeft,70,7550,4,8,0,8,0,1,,,,,,,,,,,,,,,,,,,,,,,,,,,,,,,,,,,,,,,
,,,,,,,,2023-08-16_08h52.54.351,HF_wild_card,2022.2.4,Win32,58.82352941,596155a998cf77000106f8d8,64d2fd46c836a06233681665,64dc7f8454219764f686de82,,,,,,,ctch,resources/DP.BMP,resources/DR.BMP,Door3,0.195583596,-0.018401682,1,0,0,1.381,optionRight,70,7620,4,9,0,9,0,1,,,,,,,,,,,,,,,,,,,,,,,,,,,,,,,,,,,,,,,
,,,,,,,,2023-08-16_08h52.54.351,HF_wild_card,2022.2.4,Win32,58.82352941,596155a998cf77000106f8d8,64d2fd46c836a06233681665,64dc7f8454219764f686de82,,,,,,,decisionTrl,resources/DBN.BMP,resources/DP.BMP,Door2,0.21871714,-0.037329127,1,0,0,1.497,optionRight,20,7640,4,10,0,10,0,1,,,,,,,,,,,,,,,,,,,,,,,,,,,,,,,,,,,,,,,
,,,,,,,,2023-08-16_08h52.54.351,HF_wild_card,2022.2.4,Win32,58.82352941,596155a998cf77000106f8d8,64d2fd46c836a06233681665,64dc7f8454219764f686de82,,,,,,,decisionTrl,resources/DP.BMP,resources/DBN.BMP,Door1,0.29022082,-0.013144059,1,0,0,0.664,optionRight,30,7670,4,11,0,11,0,1,,,,,,,,,,,,,,,,,,,,,,,,,,,,,,,,,,,,,,,
,,,,,,,,2023-08-16_08h52.54.351,HF_wild_card,2022.2.4,Win32,58.82352941,596155a998cf77000106f8d8,64d2fd46c836a06233681665,64dc7f8454219764f686de82,,,,,,,sngl,resources/Empty.png,resources/DP.BMP,Door2,0.312302839,-0.014195584,1,0,0,0.663,optionRight,40,7710,4,12,0,12,0,1,,,,,,,,,,,,,,,,,,,,,,,,,,,,,,,,,,,,,,,
,,,,,,,,2023-08-16_08h52.54.351,HF_wild_card,2022.2.4,Win32,58.82352941,596155a998cf77000106f8d8,64d2fd46c836a06233681665,64dc7f8454219764f686de82,,,,,,,decisionTrl,resources/DR.BMP,resources/DB.BMP,Door4,0.43743428,0.000525762,1,0,0,0.799,optionRight,60,7770,4,13,0,13,0,1,,,,,,,,,,,,,,,,,,,,,,,,,,,,,,,,,,,,,,,
,,,,,,,,2023-08-16_08h52.54.351,HF_wild_card,2022.2.4,Win32,58.82352941,596155a998cf77000106f8d8,64d2fd46c836a06233681665,64dc7f8454219764f686de82,,,,,,,decisionTrl,resources/DG.BMP,resources/DP.BMP,WildCard_Ex,-0.352260778,0.006834911,1,0,0,1.032,optionLeft,55,7825,4,14,0,14,0,1,,,,,,,,,,,,,,,,,,,,,,,,,,,,,,,,,,,,,,,
,,,,,,,,2023-08-16_08h52.54.351,HF_wild_card,2022.2.4,Win32,58.82352941,596155a998cf77000106f8d8,64d2fd46c836a06233681665,64dc7f8454219764f686de82,,,,,,,decisionTrl,resources/DB.BMP,resources/DR.BMP,Door4,-0.27444795,0.000525762,1,0,0,0.745,optionLeft,60,7885,4,15,0,15,0,1,,,,,,,,,,,,,,,,,,,,,,,,,,,,,,,,,,,,,,,
,,,,,,,,2023-08-16_08h52.54.351,HF_wild_card,2022.2.4,Win32,58.82352941,596155a998cf77000106f8d8,64d2fd46c836a06233681665,64dc7f8454219764f686de82,,,,,,,decisionTrl,resources/DG.BMP,resources/DB.BMP,Door4,0.297581493,-0.014195584,1,0,0,0.596,optionRight,60,7945,4,16,0,16,0,1,,,,,,,,,,,,,,,,,,,,,,,,,,,,,,,,,,,,,,,
,,,,,,,,2023-08-16_08h52.54.351,HF_wild_card,2022.2.4,Win32,58.82352941,596155a998cf77000106f8d8,64d2fd46c836a06233681665,64dc7f8454219764f686de82,,,,,,,decisionTrl,resources/DBN.BMP,resources/DP.BMP,Door1,-0.229232387,0.002628812,1,0,0,0.948,optionLeft,30,7975,4,17,0,17,0,1,,,,,,,,,,,,,,,,,,,,,,,,,,,,,,,,,,,,,,,
,,,,,,,,2023-08-16_08h52.54.351,HF_wild_card,2022.2.4,Win32,58.82352941,596155a998cf77000106f8d8,64d2fd46c836a06233681665,64dc7f8454219764f686de82,,,,,,,sngl,resources/DG.BMP,resources/Empty.png,WildCard_Ex,-0.263932702,-0.004731861,1,0,0,1.048,optionLeft,45,8020,4,18,0,18,0,1,,,,,,,,,,,,,,,,,,,,,,,,,,,,,,,,,,,,,,,
,,,,,,,,2023-08-16_08h52.54.351,HF_wild_card,2022.2.4,Win32,58.82352941,596155a998cf77000106f8d8,64d2fd46c836a06233681665,64dc7f8454219764f686de82,,,,,,,ctch,resources/DBN.BMP,resources/DB.BMP,Door4,0.222923239,-0.001577287,1,0,0,0.831,optionRight,60,8080,4,19,0,19,0,1,,,,,,,,,,,,,,,,,,,,,,,,,,,,,,,,,,,,,,,
,,,,,,,,2023-08-16_08h52.54.351,HF_wild_card,2022.2.4,Win32,58.82352941,596155a998cf77000106f8d8,64d2fd46c836a06233681665,64dc7f8454219764f686de82,,,,,,,decisionTrl,resources/DR.BMP,resources/DB.BMP,Door4,0.300736067,-0.019453207,1,0,0,0.697,optionRight,80,8160,4,20,0,20,0,1,,,,,,,,,,,,,,,,,,,,,,,,,,,,,,,,,,,,,,,
,,,,,,,,2023-08-16_08h52.54.351,HF_wild_card,2022.2.4,Win32,58.82352941,596155a998cf77000106f8d8,64d2fd46c836a06233681665,64dc7f8454219764f686de82,,,,,,,sngl,resources/Empty.png,resources/DB.BMP,Door4,0.278654048,-0.004731861,1,0,0,0.747,optionRight,80,8240,4,21,0,21,0,1,,,,,,,,,,,,,,,,,,,,,,,,,,,,,,,,,,,,,,,
,,,,,,,,2023-08-16_08h52.54.351,HF_wild_card,2022.2.4,Win32,58.82352941,596155a998cf77000106f8d8,64d2fd46c836a06233681665,64dc7f8454219764f686de82,,,,,,,sngl,resources/DR.BMP,resources/Empty.png,Door3,-0.112513144,-0.006834911,1,0,0,0.714,optionLeft,70,8310,4,22,0,22,0,1,,,,,,,,,,,,,,,,,,,,,,,,,,,,,,,,,,,,,,,
,,,,,,,,2023-08-16_08h52.54.351,HF_wild_card,2022.2.4,Win32,58.82352941,596155a998cf77000106f8d8,64d2fd46c836a06233681665,64dc7f8454219764f686de82,,,,,,,decisionTrl,resources/DP.BMP,resources/DBN.BMP,Door1,0.478443743,-0.014195584,1,0,0,1.147,optionRight,30,8340,4,23,0,23,0,1,,,,,,,,,,,,,,,,,,,,,,,,,,,,,,,,,,,,,,,
,,,,,,,,2023-08-16_08h52.54.351,HF_wild_card,2022.2.4,Win32,58.82352941,596155a998cf77000106f8d8,64d2fd46c836a06233681665,64dc7f8454219764f686de82,,,,,,,sngl,resources/Empty.png,resources/DG.BMP,WildCard_Ex,0.352260778,0.003680336,1,0,0,0.663,optionRight,45,8385,4,24,0,24,0,1,,,,,,,,,,,,,,,,,,,,,,,,,,,,,,,,,,,,,,,
,,,,,,,,2023-08-16_08h52.54.351,HF_wild_card,2022.2.4,Win32,58.82352941,596155a998cf77000106f8d8,64d2fd46c836a06233681665,64dc7f8454219764f686de82,,,,,,,ctch,resources/DBN.BMP,resources/DB.BMP,Door4,0.252365931,0.005783386,1,0,0,0.765,optionRight,80,8465,4,25,0,25,0,1,,,,,,,,,,,,,,,,,,,,,,,,,,,,,,,,,,,,,,,
,,,,,,,,2023-08-16_08h52.54.351,HF_wild_card,2022.2.4,Win32,58.82352941,596155a998cf77000106f8d8,64d2fd46c836a06233681665,64dc7f8454219764f686de82,,,,,,,decisionTrl,resources/DG.BMP,resources/DR.BMP,WildCard_Ex,-0.189274448,-0.023659306,1,0,0,1.079,optionLeft,55,8520,4,26,0,26,0,1,,,,,,,,,,,,,,,,,,,,,,,,,,,,,,,,,,,,,,,
,,,,,,,,2023-08-16_08h52.54.351,HF_wild_card,2022.2.4,Win32,58.82352941,596155a998cf77000106f8d8,64d2fd46c836a06233681665,64dc7f8454219764f686de82,,,,,,,ctch,resources/DP.BMP,resources/DR.BMP,Door3,0.338590957,-0.007886435,1,0,0,1.18,optionRight,70,8590,4,27,0,27,0,1,,,,,,,,,,,,,,,,,,,,,,,,,,,,,,,,,,,,,,,
,,,,,,,,2023-08-16_08h52.54.351,HF_wild_card,2022.2.4,Win32,58.82352941,596155a998cf77000106f8d8,64d2fd46c836a06233681665,64dc7f8454219764f686de82,,,,,,,decisionTrl,resources/DP.BMP,resources/DBN.BMP,Door2,-0.262881178,-0.000525762,1,0,0,1.481,optionLeft,40,8630,4,28,0,28,0,1,,,,,,,,,,,,,,,,,,,,,,,,,,,,,,,,,,,,,,,
,,,,,,,,2023-08-16_08h52.54.351,HF_wild_card,2022.2.4,Win32,58.82352941,596155a998cf77000106f8d8,64d2fd46c836a06233681665,64dc7f8454219764f686de82,,,,,,,decisionTrl,resources/DP.BMP,resources/DG.BMP,WildCard_Ex,0.253417455,-0.011041009,1,0,0,1.048,optionRight,45,8675,4,29,0,29,0,1,,,,,,,,,,,,,,,,,,,,,,,,,,,,,,,,,,,,,,,
,,,,,,,,2023-08-16_08h52.54.351,HF_wild_card,2022.2.4,Win32,58.82352941,596155a998cf77000106f8d8,64d2fd46c836a06233681665,64dc7f8454219764f686de82,,,,,,,decisionTrl,resources/DG.BMP,resources/DBN.BMP,Door1,0.360672976,0.014195584,1,0,0,1.031,optionRight,30,8705,4,30,0,30,0,1,,,,,,,,,,,,,,,,,,,,,,,,,,,,,,,,,,,,,,,
,,,,,,,,2023-08-16_08h52.54.351,HF_wild_card,2022.2.4,Win32,58.82352941,596155a998cf77000106f8d8,64d2fd46c836a06233681665,64dc7f8454219764f686de82,,,,,,,decisionTrl,resources/DR.BMP,resources/DB.BMP,Door4,0.269190326,0.000525762,1,0,0,0.565,optionRight,80,8785,4,31,0,31,0,1,,,,,,,,,,,,,,,,,,,,,,,,,,,,,,,,,,,,,,,
,,,,,,,,2023-08-16_08h52.54.351,HF_wild_card,2022.2.4,Win32,58.82352941,596155a998cf77000106f8d8,64d2fd46c836a06233681665,64dc7f8454219764f686de82,,,,,,,sngl,resources/Empty.png,resources/DR.BMP,Door3,0.336487907,-0.009989485,1,0,0,0.696,optionRight,70,8855,4,32,0,32,0,1,,,,,,,,,,,,,,,,,,,,,,,,,,,,,,,,,,,,,,,
,,,,,,,,2023-08-16_08h52.54.351,HF_wild_card,2022.2.4,Win32,58.82352941,596155a998cf77000106f8d8,64d2fd46c836a06233681665,64dc7f8454219764f686de82,,,,,,,sngl,resources/DB.BMP,resources/Empty.png,Door4,-0.356466877,0.036277603,1,0,0,0.865,optionLeft,60,8915,4,33,0,33,0,1,,,,,,,,,,,,,,,,,,,,,,,,,,,,,,,,,,,,,,,
,,,,,,,,2023-08-16_08h52.54.351,HF_wild_card,2022.2.4,Win32,58.82352941,596155a998cf77000106f8d8,64d2fd46c836a06233681665,64dc7f8454219764f686de82,,,,,,,decisionTrl,resources/DR.BMP,resources/DB.BMP,Door4,0.31019979,0.000525762,1,0,0,0.646,optionRight,60,8975,4,34,0,34,0,1,,,,,,,,,,,,,,,,,,,,,,,,,,,,,,,,,,,,,,,
,,,,,,,,2023-08-16_08h52.54.351,HF_wild_card,2022.2.4,Win32,58.82352941,596155a998cf77000106f8d8,64d2fd46c836a06233681665,64dc7f8454219764f686de82,,,,,,,sngl,resources/DBN.BMP,resources/Empty.png,Door1,-0.303890641,0.052050473,1,0,0,0.615,optionLeft,30,9005,4,35,0,35,0,1,,,,,,,,,,,,,,,,,,,,,,,,,,,,,,,,,,,,,,,
,,,,,,,,2023-08-16_08h52.54.351,HF_wild_card,2022.2.4,Win32,58.82352941,596155a998cf77000106f8d8,64d2fd46c836a06233681665,64dc7f8454219764f686de82,,,,,,,decisionTrl,resources/DP.BMP,resources/DBN.BMP,Door2,-0.194532072,-0.003680336,1,0,0,0.882,optionLeft,40,9045,4,36,0,36,0,1,,,,,,,,,,,,,,,,,,,,,,,,,,,,,,,,,,,,,,,
,,,,,,,,2023-08-16_08h52.54.351,HF_wild_card,2022.2.4,Win32,58.82352941,596155a998cf77000106f8d8,64d2fd46c836a06233681665,64dc7f8454219764f686de82,,,,,,,decisionTrl,resources/DB.BMP,resources/DR.BMP,Door4,-0.295478444,-0.018401682,1,0,0,0.748,optionLeft,80,9125,4,37,0,37,0,1,,,,,,,,,,,,,,,,,,,,,,,,,,,,,,,,,,,,,,,
,,,,,,,,2023-08-16_08h52.54.351,HF_wild_card,2022.2.4,Win32,58.82352941,596155a998cf77000106f8d8,64d2fd46c836a06233681665,64dc7f8454219764f686de82,,,,,,,sngl,resources/Empty.png,resources/DBN.BMP,Door1,0.238696109,-0.015247108,1,0,0,0.648,optionRight,30,9155,4,38,0,38,0,1,,,,,,,,,,,,,,,,,,,,,,,,,,,,,,,,,,,,,,,
,,,,,,,,2023-08-16_08h52.54.351,HF_wild_card,2022.2.4,Win32,58.82352941,596155a998cf77000106f8d8,64d2fd46c836a06233681665,64dc7f8454219764f686de82,,,,,,,sngl,resources/DP.BMP,resources/Empty.png,Door2,-0.538380652,0.119348055,1,0,0,0.715,optionLeft,20,9175,4,39,0,39,0,1,,,,,,,,,,,,,,,,,,,,,,,,,,,,,,,,,,,,,,,
,,,,,,,,2023-08-16_08h52.54.351,HF_wild_card,2022.2.4,Win32,58.82352941,596155a998cf77000106f8d8,64d2fd46c836a06233681665,64dc7f8454219764f686de82,,,,,,,sngl,resources/Empty.png,resources/DG.BMP,WildCard_Ex,0.332281809,-0.004731861,1,0,0,0.547,optionRight,55,9230,4,40,0,40,0,1,,,,,,,,,,,,,,,,,,,,,,,,,,,,,,,,,,,,,,,
,,,,,,,,2023-08-16_08h52.54.351,HF_wild_card,2022.2.4,Win32,58.82352941,596155a998cf77000106f8d8,64d2fd46c836a06233681665,64dc7f8454219764f686de82,,,,,,,decisionTrl,resources/DBN.BMP,resources/DP.BMP,Door1,-0.289169295,-0.006834911,1,0,0,1.197,optionLeft,30,9260,4,41,0,41,0,1,,,,,,,,,,,,,,,,,,,,,,,,,,,,,,,,,,,,,,,
,,,,,,,,2023-08-16_08h52.54.351,HF_wild_card,2022.2.4,Win32,58.82352941,596155a998cf77000106f8d8,64d2fd46c836a06233681665,64dc7f8454219764f686de82,,,,,,,ctch,resources/DR.BMP,resources/DP.BMP,Door2,0.283911672,-0.022607781,1,0,0,0.798,optionRight,40,9300,4,42,0,42,0,1,,,,,,,,,,,,,,,,,,,,,,,,,,,,,,,,,,,,,,,
,,,,,,,,2023-08-16_08h52.54.351,HF_wild_card,2022.2.4,Win32,58.82352941,596155a998cf77000106f8d8,64d2fd46c836a06233681665,64dc7f8454219764f686de82,,,,,,,ctch,resources/DR.BMP,resources/DP.BMP,Door2,0.21661409,-0.009989485,1,0,0,0.781,optionRight,40,9340,4,43,0,43,0,1,,,,,,,,,,,,,,,,,,,,,,,,,,,,,,,,,,,,,,,
,,,,,,,,2023-08-16_08h52.54.351,HF_wild_card,2022.2.4,Win32,58.82352941,596155a998cf77000106f8d8,64d2fd46c836a06233681665,64dc7f8454219764f686de82,,,,,,,,,,,,,,,,,,,,,,,,,,3,0,3,0,1,,,,,,,,,,,,,,,,,,,,,,,,,,,,,,,,,,
,,,,,,,,2023-08-16_08h52.54.351,HF_wild_card,2022.2.4,Win32,58.82352941,596155a998cf77000106f8d8,64d2fd46c836a06233681665,64dc7f8454219764f686de82,,,,,,,decisionTrl,resources/DG.BMP,resources/DBN.BMP,Door1,0.470031546,0.031019979,1,0,0,2.653,optionRight,30,9370,5,0,0,0,0,1,,,,,,,,,,,,,,,,,,,,,,,,,,,,,,,,,,,,,,,
,,,,,,,,2023-08-16_08h52.54.351,HF_wild_card,2022.2.4,Win32,58.82352941,596155a998cf77000106f8d8,64d2fd46c836a06233681665,64dc7f8454219764f686de82,,,,,,,ctch,resources/DP.BMP,resources/DR.BMP,Door2,-0.234490011,-0.021556257,1,0,0,1.48,optionLeft,40,9410,5,1,0,1,0,1,,,,,,,,,,,,,,,,,,,,,,,,,,,,,,,,,,,,,,,
,,,,,,,,2023-08-16_08h52.54.351,HF_wild_card,2022.2.4,Win32,58.82352941,596155a998cf77000106f8d8,64d2fd46c836a06233681665,64dc7f8454219764f686de82,,,,,,,ctch,resources/DB.BMP,resources/DBN.BMP,Door4,-0.34595163,-0.022607781,1,0,0,1.063,optionLeft,80,9490,5,2,0,2,0,1,,,,,,,,,,,,,,,,,,,,,,,,,,,,,,,,,,,,,,,
,,,,,,,,2023-08-16_08h52.54.351,HF_wild_card,2022.2.4,Win32,58.82352941,596155a998cf77000106f8d8,64d2fd46c836a06233681665,64dc7f8454219764f686de82,,,,,,,decisionTrl,resources/DB.BMP,resources/DG.BMP,Door4,-0.197686646,-0.013144059,1,0,0,0.564,optionLeft,60,9550,5,3,0,3,0,1,,,,,,,,,,,,,,,,,,,,,,,,,,,,,,,,,,,,,,,
,,,,,,,,2023-08-16_08h52.54.351,HF_wild_card,2022.2.4,Win32,58.82352941,596155a998cf77000106f8d8,64d2fd46c836a06233681665,64dc7f8454219764f686de82,,,,,,,sngl,resources/DB.BMP,resources/Empty.png,Door4,-0.230283912,-0.003680336,1,0,0,0.564,optionLeft,80,9630,5,4,0,4,0,1,,,,,,,,,,,,,,,,,,,,,,,,,,,,,,,,,,,,,,,
,,,,,,,,2023-08-16_08h52.54.351,HF_wild_card,2022.2.4,Win32,58.82352941,596155a998cf77000106f8d8,64d2fd46c836a06233681665,64dc7f8454219764f686de82,,,,,,,decisionTrl,resources/DB.BMP,resources/DR.BMP,Door4,-0.18086225,-0.012092534,1,0,0,0.564,optionLeft,80,9710,5,5,0,5,0,1,,,,,,,,,,,,,,,,,,,,,,,,,,,,,,,,,,,,,,,
,,,,,,,,2023-08-16_08h52.54.351,HF_wild_card,2022.2.4,Win32,58.82352941,596155a998cf77000106f8d8,64d2fd46c836a06233681665,64dc7f8454219764f686de82,,,,,,,sngl,resources/Empty.png,resources/DP.BMP,Door2,0.225026288,-0.019453207,1,0,0,0.629,optionRight,20,9730,5,6,0,6,0,1,,,,,,,,,,,,,,,,,,,,,,,,,,,,,,,,,,,,,,,
,,,,,,,,2023-08-16_08h52.54.351,HF_wild_card,2022.2.4,Win32,58.82352941,596155a998cf77000106f8d8,64d2fd46c836a06233681665,64dc7f8454219764f686de82,,,,,,,sngl,resources/Empty.png,resources/DB.BMP,Door4,0.202944269,-0.019453207,1,0,0,0.664,optionRight,60,9790,5,7,0,7,0,1,,,,,,,,,,,,,,,,,,,,,,,,,,,,,,,,,,,,,,,
,,,,,,,,2023-08-16_08h52.54.351,HF_wild_card,2022.2.4,Win32,58.82352941,596155a998cf77000106f8d8,64d2fd46c836a06233681665,64dc7f8454219764f686de82,,,,,,,decisionTrl,resources/DP.BMP,resources/DBN.BMP,Door1,0.318611987,-0.018401682,1,0,0,1.281,optionRight,30,9820,5,8,0,8,0,1,,,,,,,,,,,,,,,,,,,,,,,,,,,,,,,,,,,,,,,
,,,,,,,,2023-08-16_08h52.54.351,HF_wild_card,2022.2.4,Win32,58.82352941,596155a998cf77000106f8d8,64d2fd46c836a06233681665,64dc7f8454219764f686de82,,,,,,,decisionTrl,resources/DR.BMP,resources/DB.BMP,Door4,0.300736067,-0.021556257,1,0,0,0.78,optionRight,80,9900,5,9,0,9,0,1,,,,,,,,,,,,,,,,,,,,,,,,,,,,,,,,,,,,,,,
,,,,,,,,2023-08-16_08h52.54.351,HF_wild_card,2022.2.4,Win32,58.82352941,596155a998cf77000106f8d8,64d2fd46c836a06233681665,64dc7f8454219764f686de82,,,,,,,decisionTrl,resources/DB.BMP,resources/DR.BMP,Door4,-0.235541535,-0.013144059,1,0,0,0.581,optionLeft,60,9960,5,10,0,10,0,1,,,,,,,,,,,,,,,,,,,,,,,,,,,,,,,,,,,,,,,
,,,,,,,,2023-08-16_08h52.54.351,HF_wild_card,2022.2.4,Win32,58.82352941,596155a998cf77000106f8d8,64d2fd46c836a06233681665,64dc7f8454219764f686de82,,,,,,,ctch,resources/DR.BMP,resources/DP.BMP,Door2,0.299684543,-0.006834911,1,0,0,0.798,optionRight,20,9980,5,11,0,11,0,1,,,,,,,,,,,,,,,,,,,,,,,,,,,,,,,,,,,,,,,
,,,,,,,,2023-08-16_08h52.54.351,HF_wild_card,2022.2.4,Win32,58.82352941,596155a998cf77000106f8d8,64d2fd46c836a06233681665,64dc7f8454219764f686de82,,,,,,,decisionTrl,resources/DBN.BMP,resources/DP.BMP,Door1,-0.396424816,-0.001577287,1,0,0,0.645,optionLeft,30,10010,5,12,0,12,0,1,,,,,,,,,,,,,,,,,,,,,,,,,,,,,,,,,,,,,,,
,,,,,,,,2023-08-16_08h52.54.351,HF_wild_card,2022.2.4,Win32,58.82352941,596155a998cf77000106f8d8,64d2fd46c836a06233681665,64dc7f8454219764f686de82,,,,,,,decisionTrl,resources/DR.BMP,resources/DB.BMP,Door4,0.169295478,-0.012092534,1,0,0,0.781,optionRight,60,10070,5,13,0,13,0,1,,,,,,,,,,,,,,,,,,,,,,,,,,,,,,,,,,,,,,,
,,,,,,,,2023-08-16_08h52.54.351,HF_wild_card,2022.2.4,Win32,58.82352941,596155a998cf77000106f8d8,64d2fd46c836a06233681665,64dc7f8454219764f686de82,,,,,,,decisionTrl,resources/DG.BMP,resources/DP.BMP,Door2,0.251314406,0.001577287,1,0,0,0.613,optionRight,20,10090,5,14,0,14,0,1,,,,,,,,,,,,,,,,,,,,,,,,,,,,,,,,,,,,,,,
,,,,,,,,2023-08-16_08h52.54.351,HF_wild_card,2022.2.4,Win32,58.82352941,596155a998cf77000106f8d8,64d2fd46c836a06233681665,64dc7f8454219764f686de82,,,,,,,sngl,resources/Empty.png,resources/DG.BMP,WildCard_Ex,0.281808623,-0.000525762,1,0,0,0.664,optionRight,45,10135,5,15,0,15,0,1,,,,,,,,,,,,,,,,,,,,,,,,,,,,,,,,,,,,,,,
,,,,,,,,2023-08-16_08h52.54.351,HF_wild_card,2022.2.4,Win32,58.82352941,596155a998cf77000106f8d8,64d2fd46c836a06233681665,64dc7f8454219764f686de82,,,,,,,sngl,resources/Empty.png,resources/DR.BMP,Door3,0.263932702,0.002628812,1,0,0,0.707,optionRight,70,10205,5,16,0,16,0,1,,,,,,,,,,,,,,,,,,,,,,,,,,,,,,,,,,,,,,,
,,,,,,,,2023-08-16_08h52.54.351,HF_wild_card,2022.2.4,Win32,58.82352941,596155a998cf77000106f8d8,64d2fd46c836a06233681665,64dc7f8454219764f686de82,,,,,,,decisionTrl,resources/DBN.BMP,resources/DP.BMP,Door1,-0.348054679,-0.013144059,1,0,0,1.297,optionLeft,30,10235,5,17,0,17,0,1,,,,,,,,,,,,,,,,,,,,,,,,,,,,,,,,,,,,,,,
,,,,,,,,2023-08-16_08h52.54.351,HF_wild_card,2022.2.4,Win32,58.82352941,596155a998cf77000106f8d8,64d2fd46c836a06233681665,64dc7f8454219764f686de82,,,,,,,sngl,resources/DBN.BMP,resources/Empty.png,Door1,-0.262881178,-0.036277603,1,0,0,0.661,optionLeft,30,10265,5,18,0,18,0,1,,,,,,,,,,,,,,,,,,,,,,,,,,,,,,,,,,,,,,,
,,,,,,,,2023-08-16_08h52.54.351,HF_wild_card,2022.2.4,Win32,58.82352941,596155a998cf77000106f8d8,64d2fd46c836a06233681665,64dc7f8454219764f686de82,,,,,,,ctch,resources/DR.BMP,resources/DP.BMP,Door3,-0.322818086,0.000525762,1,0,0,0.797,optionLeft,70,10335,5,19,0,19,0,1,,,,,,,,,,,,,,,,,,,,,,,,,,,,,,,,,,,,,,,
,,,,,,,,2023-08-16_08h52.54.351,HF_wild_card,2022.2.4,Win32,58.82352941,596155a998cf77000106f8d8,64d2fd46c836a06233681665,64dc7f8454219764f686de82,,,,,,,sngl,resources/DG.BMP,resources/Empty.png,WildCard_Ex,-0.259726604,0.003680336,1,0,0,0.679,optionLeft,55,10390,5,20,0,20,0,1,,,,,,,,,,,,,,,,,,,,,,,,,,,,,,,,,,,,,,,
,,,,,,,,2023-08-16_08h52.54.351,HF_wild_card,2022.2.4,Win32,58.82352941,596155a998cf77000106f8d8,64d2fd46c836a06233681665,64dc7f8454219764f686de82,,,,,,,decisionTrl,resources/DP.BMP,resources/DG.BMP,WildCard_Ex,0.39957939,0.018401682,1,0,0,1.299,optionRight,45,10435,5,21,0,21,0,1,,,,,,,,,,,,,,,,,,,,,,,,,,,,,,,,,,,,,,,
,,,,,,,,2023-08-16_08h52.54.351,HF_wild_card,2022.2.4,Win32,58.82352941,596155a998cf77000106f8d8,64d2fd46c836a06233681665,64dc7f8454219764f686de82,,,,,,,decisionTrl,resources/DBN.BMP,resources/DP.BMP,Door1,-0.260778128,-0.009989485,1,0,0,0.996,optionLeft,30,10465,5,22,0,22,0,1,,,,,,,,,,,,,,,,,,,,,,,,,,,,,,,,,,,,,,,
,,,,,,,,2023-08-16_08h52.54.351,HF_wild_card,2022.2.4,Win32,58.82352941,596155a998cf77000106f8d8,64d2fd46c836a06233681665,64dc7f8454219764f686de82,,,,,,,decisionTrl,resources/DP.BMP,resources/DBN.BMP,Door1,0.222923239,-0.002628812,1,0,0,1.195,optionRight,30,10495,5,23,0,23,0,1,,,,,,,,,,,,,,,,,,,,,,,,,,,,,,,,,,,,,,,
,,,,,,,,2023-08-16_08h52.54.351,HF_wild_card,2022.2.4,Win32,58.82352941,596155a998cf77000106f8d8,64d2fd46c836a06233681665,64dc7f8454219764f686de82,,,,,,,sngl,resources/DR.BMP,resources/Empty.png,Door3,-0.156677182,-0.014195584,1,0,0,0.614,optionLeft,70,10565,5,24,0,24,0,1,,,,,,,,,,,,,,,,,,,,,,,,,,,,,,,,,,,,,,,
,,,,,,,,2023-08-16_08h52.54.351,HF_wild_card,2022.2.4,Win32,58.82352941,596155a998cf77000106f8d8,64d2fd46c836a06233681665,64dc7f8454219764f686de82,,,,,,,decisionTrl,resources/DG.BMP,resources/DR.BMP,WildCard_Ex,-0.238696109,-0.015247108,1,0,0,1.13,optionLeft,55,10620,5,25,0,25,0,1,,,,,,,,,,,,,,,,,,,,,,,,,,,,,,,,,,,,,,,
,,,,,,,,2023-08-16_08h52.54.351,HF_wild_card,2022.2.4,Win32,58.82352941,596155a998cf77000106f8d8,64d2fd46c836a06233681665,64dc7f8454219764f686de82,,,,,,,decisionTrl,resources/DB.BMP,resources/DR.BMP,Door4,-0.268138801,-0.015247108,1,0,0,0.929,optionLeft,60,10680,5,26,0,26,0,1,,,,,,,,,,,,,,,,,,,,,,,,,,,,,,,,,,,,,,,
,,,,,,,,2023-08-16_08h52.54.351,HF_wild_card,2022.2.4,Win32,58.82352941,596155a998cf77000106f8d8,64d2fd46c836a06233681665,64dc7f8454219764f686de82,,,,,,,sngl,resources/DG.BMP,resources/Empty.png,WildCard_Ex,-0.186119874,-0.021556257,1,0,0,0.715,optionLeft,45,10725,5,27,0,27,0,1,,,,,,,,,,,,,,,,,,,,,,,,,,,,,,,,,,,,,,,
,,,,,,,,2023-08-16_08h52.54.351,HF_wild_card,2022.2.4,Win32,58.82352941,596155a998cf77000106f8d8,64d2fd46c836a06233681665,64dc7f8454219764f686de82,,,,,,,ctch,resources/DBN.BMP,resources/DB.BMP,Door4,0.189274448,-0.012092534,1,0,0,0.897,optionRight,80,10805,5,28,0,28,0,1,,,,,,,,,,,,,,,,,,,,,,,,,,,,,,,,,,,,,,,
,,,,,,,,2023-08-16_08h52.54.351,HF_wild_card,2022.2.4,Win32,58.82352941,596155a998cf77000106f8d8,64d2fd46c836a06233681665,64dc7f8454219764f686de82,,,,,,,decisionTrl,resources/DP.BMP,resources/DBN.BMP,Door1,0.344900105,-0.047844374,1,0,0,0.831,optionRight,30,10835,5,29,0,29,0,1,,,,,,,,,,,,,,,,,,,,,,,,,,,,,,,,,,,,,,,
,,,,,,,,2023-08-16_08h52.54.351,HF_wild_card,2022.2.4,Win32,58.82352941,596155a998cf77000106f8d8,64d2fd46c836a06233681665,64dc7f8454219764f686de82,,,,,,,decisionTrl,resources/DBN.BMP,resources/DP.BMP,Door1,-0.276550999,-0.063617245,1,0,0,1.03,optionLeft,30,10865,5,30,0,30,0,1,,,,,,,,,,,,,,,,,,,,,,,,,,,,,,,,,,,,,,,
,,,,,,,,2023-08-16_08h52.54.351,HF_wild_card,2022.2.4,Win32,58.82352941,596155a998cf77000106f8d8,64d2fd46c836a06233681665,64dc7f8454219764f686de82,,,,,,,ctch,resources/DP.BMP,resources/DR.BMP,Door3,0.394321767,-0.007886435,1,0,0,1.296,optionRight,70,10935,5,31,0,31,0,1,,,,,,,,,,,,,,,,,,,,,,,,,,,,,,,,,,,,,,,
,,,,,,,,2023-08-16_08h52.54.351,HF_wild_card,2022.2.4,Win32,58.82352941,596155a998cf77000106f8d8,64d2fd46c836a06233681665,64dc7f8454219764f686de82,,,,,,,decisionTrl,resources/DP.BMP,resources/DBN.BMP,Door1,0.148264984,-0.007886435,1,0,0,0.88,optionRight,30,10965,5,32,0,32,0,1,,,,,,,,,,,,,,,,,,,,,,,,,,,,,,,,,,,,,,,
,,,,,,,,2023-08-16_08h52.54.351,HF_wild_card,2022.2.4,Win32,58.82352941,596155a998cf77000106f8d8,64d2fd46c836a06233681665,64dc7f8454219764f686de82,,,,,,,sngl,resources/Empty.png,resources/DBN.BMP,Door1,0.263932702,-0.002628812,1,0,0,0.698,optionRight,30,10995,5,33,0,33,0,1,,,,,,,,,,,,,,,,,,,,,,,,,,,,,,,,,,,,,,,
,,,,,,,,2023-08-16_08h52.54.351,HF_wild_card,2022.2.4,Win32,58.82352941,596155a998cf77000106f8d8,64d2fd46c836a06233681665,64dc7f8454219764f686de82,,,,,,,decisionTrl,resources/DG.BMP,resources/DB.BMP,Door4,0.23659306,-0.011041009,1,0,0,0.63,optionRight,80,11075,5,34,0,34,0,1,,,,,,,,,,,,,,,,,,,,,,,,,,,,,,,,,,,,,,,
,,,,,,,,2023-08-16_08h52.54.351,HF_wild_card,2022.2.4,Win32,58.82352941,596155a998cf77000106f8d8,64d2fd46c836a06233681665,64dc7f8454219764f686de82,,,,,,,decisionTrl,resources/DR.BMP,resources/DG.BMP,WildCard_Ex,0.232386961,-0.002628812,1,0,0,0.797,optionRight,55,11130,5,35,0,35,0,1,,,,,,,,,,,,,,,,,,,,,,,,,,,,,,,,,,,,,,,
,,,,,,,,2023-08-16_08h52.54.351,HF_wild_card,2022.2.4,Win32,58.82352941,596155a998cf77000106f8d8,64d2fd46c836a06233681665,64dc7f8454219764f686de82,,,,,,,decisionTrl,resources/DR.BMP,resources/DB.BMP,Door4,0.293375394,-0.019453207,1,0,0,0.665,optionRight,60,11190,5,36,0,36,0,1,,,,,,,,,,,,,,,,,,,,,,,,,,,,,,,,,,,,,,,
,,,,,,,,2023-08-16_08h52.54.351,HF_wild_card,2022.2.4,Win32,58.82352941,596155a998cf77000106f8d8,64d2fd46c836a06233681665,64dc7f8454219764f686de82,,,,,,,decisionTrl,resources/DBN.BMP,resources/DG.BMP,WildCard_Ex,0.219768665,-0.012092534,1,0,0,0.915,optionRight,45,11235,5,37,0,37,0,1,,,,,,,,,,,,,,,,,,,,,,,,,,,,,,,,,,,,,,,
,,,,,,,,2023-08-16_08h52.54.351,HF_wild_card,2022.2.4,Win32,58.82352941,596155a998cf77000106f8d8,64d2fd46c836a06233681665,64dc7f8454219764f686de82,,,,,,,sngl,resources/Empty.png,resources/DG.BMP,WildCard_Ex,0.262881178,0.016298633,1,0,0,0.631,optionRight,55,11290,5,38,0,38,0,1,,,,,,,,,,,,,,,,,,,,,,,,,,,,,,,,,,,,,,,
,,,,,,,,2023-08-16_08h52.54.351,HF_wild_card,2022.2.4,Win32,58.82352941,596155a998cf77000106f8d8,64d2fd46c836a06233681665,64dc7f8454219764f686de82,,,,,,,decisionTrl,resources/DR.BMP,resources/DB.BMP,Door4,0.299684543,-0.004731861,1,0,0,0.63,optionRight,80,11370,5,39,0,39,0,1,,,,,,,,,,,,,,,,,,,,,,,,,,,,,,,,,,,,,,,
,,,,,,,,2023-08-16_08h52.54.351,HF_wild_card,2022.2.4,Win32,58.82352941,596155a998cf77000106f8d8,64d2fd46c836a06233681665,64dc7f8454219764f686de82,,,,,,,decisionTrl,resources/DB.BMP,resources/DR.BMP,Door4,-0.250262881,0.007886435,1,0,0,0.914,optionLeft,60,11430,5,40,0,40,0,1,,,,,,,,,,,,,,,,,,,,,,,,,,,,,,,,,,,,,,,
,,,,,,,,2023-08-16_08h52.54.351,HF_wild_card,2022.2.4,Win32,58.82352941,596155a998cf77000106f8d8,64d2fd46c836a06233681665,64dc7f8454219764f686de82,,,,,,,sngl,resources/DP.BMP,resources/Empty.png,Door2,-0.268138801,-0.006834911,1,0,0,0.93,optionLeft,40,11470,5,41,0,41,0,1,,,,,,,,,,,,,,,,,,,,,,,,,,,,,,,,,,,,,,,
,,,,,,,,2023-08-16_08h52.54.351,HF_wild_card,2022.2.4,Win32,58.82352941,596155a998cf77000106f8d8,64d2fd46c836a06233681665,64dc7f8454219764f686de82,,,,,,,ctch,resources/DB.BMP,resources/DBN.BMP,Door4,-0.21871714,-0.006834911,1,0,0,0.696,optionLeft,80,11550,5,42,0,42,0,1,,,,,,,,,,,,,,,,,,,,,,,,,,,,,,,,,,,,,,,
,,,,,,,,2023-08-16_08h52.54.351,HF_wild_card,2022.2.4,Win32,58.82352941,596155a998cf77000106f8d8,64d2fd46c836a06233681665,64dc7f8454219764f686de82,,,,,,,ctch,resources/DBN.BMP,resources/DB.BMP,Door4,0.20084122,-0.014195584,1,0,0,0.629,optionRight,80,11630,5,43,0,43,0,1,,,,,,,,,,,,,,,,,,,,,,,,,,,,,,,,,,,,,,,
,,,,,,,,2023-08-16_08h52.54.351,HF_wild_card,2022.2.4,Win32,58.82352941,596155a998cf77000106f8d8,64d2fd46c836a06233681665,64dc7f8454219764f686de82,,,,,,,,,,,,,,,,,,,,,,,,,,4,0,4,0,1,,,,,,,,,,,,,,,,,,,,,,,,,,,,,,,,,,
,,,,,,,,2023-08-16_08h52.54.351,HF_wild_card,2022.2.4,Win32,58.82352941,596155a998cf77000106f8d8,64d2fd46c836a06233681665,64dc7f8454219764f686de82,,,,,,,decisionTrl,resources/DP.BMP,resources/DG.BMP,WildCard_Ex,0.431125131,0.021556257,1,0,0,1.428,optionRight,45,11675,6,0,0,0,0,1,,,,,,,,,,,,,,,,,,,,,,,,,,,,,,,,,,,,,,,
,,,,,,,,2023-08-16_08h52.54.351,HF_wild_card,2022.2.4,Win32,58.82352941,596155a998cf77000106f8d8,64d2fd46c836a06233681665,64dc7f8454219764f686de82,,,,,,,decisionTrl,resources/DP.BMP,resources/DBN.BMP,Door1,0.39957939,0.009989485,1,0,0,1.065,optionRight,30,11705,6,1,0,1,0,1,,,,,,,,,,,,,,,,,,,,,,,,,,,,,,,,,,,,,,,
,,,,,,,,2023-08-16_08h52.54.351,HF_wild_card,2022.2.4,Win32,58.82352941,596155a998cf77000106f8d8,64d2fd46c836a06233681665,64dc7f8454219764f686de82,,,,,,,sngl,resources/DB.BMP,resources/Empty.png,Door4,-0.210304942,0.000525762,1,0,0,0.664,optionLeft,60,11765,6,2,0,2,0,1,,,,,,,,,,,,,,,,,,,,,,,,,,,,,,,,,,,,,,,
,,,,,,,,2023-08-16_08h52.54.351,HF_wild_card,2022.2.4,Win32,58.82352941,596155a998cf77000106f8d8,64d2fd46c836a06233681665,64dc7f8454219764f686de82,,,,,,,ctch,resources/DBN.BMP,resources/DB.BMP,Door4,0.195583596,0.001577287,1,0,0,0.598,optionRight,60,11825,6,3,0,3,0,1,,,,,,,,,,,,,,,,,,,,,,,,,,,,,,,,,,,,,,,
,,,,,,,,2023-08-16_08h52.54.351,HF_wild_card,2022.2.4,Win32,58.82352941,596155a998cf77000106f8d8,64d2fd46c836a06233681665,64dc7f8454219764f686de82,,,,,,,ctch,resources/DBN.BMP,resources/DB.BMP,Door4,0.245005258,0.00893796,1,0,0,0.566,optionRight,80,11905,6,4,0,4,0,1,,,,,,,,,,,,,,,,,,,,,,,,,,,,,,,,,,,,,,,
,,,,,,,,2023-08-16_08h52.54.351,HF_wild_card,2022.2.4,Win32,58.82352941,596155a998cf77000106f8d8,64d2fd46c836a06233681665,64dc7f8454219764f686de82,,,,,,,decisionTrl,resources/DB.BMP,resources/DR.BMP,Door4,-0.201892744,0.025762355,1,0,0,0.629,optionLeft,60,11965,6,5,0,5,0,1,,,,,,,,,,,,,,,,,,,,,,,,,,,,,,,,,,,,,,,
,,,,,,,,2023-08-16_08h52.54.351,HF_wild_card,2022.2.4,Win32,58.82352941,596155a998cf77000106f8d8,64d2fd46c836a06233681665,64dc7f8454219764f686de82,,,,,,,decisionTrl,resources/DG.BMP,resources/DBN.BMP,Door1,0.296529968,0.015247108,1,0,0,1.014,optionRight,30,11995,6,6,0,6,0,1,,,,,,,,,,,,,,,,,,,,,,,,,,,,,,,,,,,,,,,
,,,,,,,,2023-08-16_08h52.54.351,HF_wild_card,2022.2.4,Win32,58.82352941,596155a998cf77000106f8d8,64d2fd46c836a06233681665,64dc7f8454219764f686de82,,,,,,,decisionTrl,resources/DR.BMP,resources/DB.BMP,Door4,0.262881178,-0.002628812,1,0,0,0.733,optionRight,80,12075,6,7,0,7,0,1,,,,,,,,,,,,,,,,,,,,,,,,,,,,,,,,,,,,,,,
,,,,,,,,2023-08-16_08h52.54.351,HF_wild_card,2022.2.4,Win32,58.82352941,596155a998cf77000106f8d8,64d2fd46c836a06233681665,64dc7f8454219764f686de82,,,,,,,decisionTrl,resources/DBN.BMP,resources/DP.BMP,Door1,-0.21661409,-0.006834911,1,0,0,0.948,optionLeft,30,12105,6,8,0,8,0,1,,,,,,,,,,,,,,,,,,,,,,,,,,,,,,,,,,,,,,,
,,,,,,,,2023-08-16_08h52.54.351,HF_wild_card,2022.2.4,Win32,58.82352941,596155a998cf77000106f8d8,64d2fd46c836a06233681665,64dc7f8454219764f686de82,,,,,,,sngl,resources/Empty.png,resources/DG.BMP,WildCard_Ex,0.459516299,-0.005783386,1,0,0,0.614,optionRight,55,12160,6,9,0,9,0,1,,,,,,,,,,,,,,,,,,,,,,,,,,,,,,,,,,,,,,,
,,,,,,,,2023-08-16_08h52.54.351,HF_wild_card,2022.2.4,Win32,58.82352941,596155a998cf77000106f8d8,64d2fd46c836a06233681665,64dc7f8454219764f686de82,,,,,,,ctch,resources/DP.BMP,resources/DR.BMP,Door2,-0.207150368,-0.007886435,1,0,0,0.714,optionLeft,40,12200,6,10,0,10,0,1,,,,,,,,,,,,,,,,,,,,,,,,,,,,,,,,,,,,,,,
,,,,,,,,2023-08-16_08h52.54.351,HF_wild_card,2022.2.4,Win32,58.82352941,596155a998cf77000106f8d8,64d2fd46c836a06233681665,64dc7f8454219764f686de82,,,,,,,sngl,resources/Empty.png,resources/DP.BMP,Door2,0.303890641,0.005783386,1,0,0,0.581,optionRight,40,12240,6,11,0,11,0,1,,,,,,,,,,,,,,,,,,,,,,,,,,,,,,,,,,,,,,,
,,,,,,,,2023-08-16_08h52.54.351,HF_wild_card,2022.2.4,Win32,58.82352941,596155a998cf77000106f8d8,64d2fd46c836a06233681665,64dc7f8454219764f686de82,,,,,,,decisionTrl,resources/DBN.BMP,resources/DP.BMP,Door2,0.284963197,0.022607781,1,0,0,0.745,optionRight,20,12260,6,12,0,12,0,1,,,,,,,,,,,,,,,,,,,,,,,,,,,,,,,,,,,,,,,
,,,,,,,,2023-08-16_08h52.54.351,HF_wild_card,2022.2.4,Win32,58.82352941,596155a998cf77000106f8d8,64d2fd46c836a06233681665,64dc7f8454219764f686de82,,,,,,,decisionTrl,resources/DB.BMP,resources/DR.BMP,Door4,-0.185068349,-0.020504732,1,0,0,1.115,optionLeft,60,12320,6,13,0,13,0,1,,,,,,,,,,,,,,,,,,,,,,,,,,,,,,,,,,,,,,,
,,,,,,,,2023-08-16_08h52.54.351,HF_wild_card,2022.2.4,Win32,58.82352941,596155a998cf77000106f8d8,64d2fd46c836a06233681665,64dc7f8454219764f686de82,,,,,,,ctch,resources/DB.BMP,resources/DBN.BMP,Door4,-0.250262881,-0.012092534,1,0,0,0.633,optionLeft,60,12380,6,14,0,14,0,1,,,,,,,,,,,,,,,,,,,,,,,,,,,,,,,,,,,,,,,
,,,,,,,,2023-08-16_08h52.54.351,HF_wild_card,2022.2.4,Win32,58.82352941,596155a998cf77000106f8d8,64d2fd46c836a06233681665,64dc7f8454219764f686de82,,,,,,,decisionTrl,resources/DR.BMP,resources/DB.BMP,Door4,0.222923239,-0.004731861,1,0,0,0.58,optionRight,60,12440,6,15,0,15,0,1,,,,,,,,,,,,,,,,,,,,,,,,,,,,,,,,,,,,,,,
,,,,,,,,2023-08-16_08h52.54.351,HF_wild_card,2022.2.4,Win32,58.82352941,596155a998cf77000106f8d8,64d2fd46c836a06233681665,64dc7f8454219764f686de82,,,,,,,decisionTrl,resources/DR.BMP,resources/DB.BMP,Door4,0.416403785,-0.0446898,1,0,0,0.665,optionRight,60,12500,6,16,0,16,0,1,,,,,,,,,,,,,,,,,,,,,,,,,,,,,,,,,,,,,,,
,,,,,,,,2023-08-16_08h52.54.351,HF_wild_card,2022.2.4,Win32,58.82352941,596155a998cf77000106f8d8,64d2fd46c836a06233681665,64dc7f8454219764f686de82,,,,,,,ctch,resources/DR.BMP,resources/DP.BMP,Door2,0.267087277,-0.009989485,1,0,0,1.114,optionRight,40,12540,6,17,0,17,0,1,,,,,,,,,,,,,,,,,,,,,,,,,,,,,,,,,,,,,,,
,,,,,,,,2023-08-16_08h52.54.351,HF_wild_card,2022.2.4,Win32,58.82352941,596155a998cf77000106f8d8,64d2fd46c836a06233681665,64dc7f8454219764f686de82,,,,,,,sngl,resources/DR.BMP,resources/Empty.png,Door3,-0.206098843,-0.001577287,1,0,0,0.697,optionLeft,70,12610,6,18,0,18,0,1,,,,,,,,,,,,,,,,,,,,,,,,,,,,,,,,,,,,,,,
,,,,,,,,2023-08-16_08h52.54.351,HF_wild_card,2022.2.4,Win32,58.82352941,596155a998cf77000106f8d8,64d2fd46c836a06233681665,64dc7f8454219764f686de82,,,,,,,decisionTrl,resources/DG.BMP,resources/DR.BMP,Door3,0.281808623,-0.014195584,1,0,0,0.578,optionRight,70,12680,6,19,0,19,0,1,,,,,,,,,,,,,,,,,,,,,,,,,,,,,,,,,,,,,,,
,,,,,,,,2023-08-16_08h52.54.351,HF_wild_card,2022.2.4,Win32,58.82352941,596155a998cf77000106f8d8,64d2fd46c836a06233681665,64dc7f8454219764f686de82,,,,,,,decisionTrl,resources/DR.BMP,resources/DB.BMP,Door4,0.327024185,-0.001577287,1,0,0,0.962,optionRight,60,12740,6,20,0,20,0,1,,,,,,,,,,,,,,,,,,,,,,,,,,,,,,,,,,,,,,,
,,,,,,,,2023-08-16_08h52.54.351,HF_wild_card,2022.2.4,Win32,58.82352941,596155a998cf77000106f8d8,64d2fd46c836a06233681665,64dc7f8454219764f686de82,,,,,,,decisionTrl,resources/DR.BMP,resources/DG.BMP,Door3,-0.348054679,0.006834911,1,0,0,0.848,optionLeft,70,12810,6,21,0,21,0,1,,,,,,,,,,,,,,,,,,,,,,,,,,,,,,,,,,,,,,,
,,,,,,,,2023-08-16_08h52.54.351,HF_wild_card,2022.2.4,Win32,58.82352941,596155a998cf77000106f8d8,64d2fd46c836a06233681665,64dc7f8454219764f686de82,,,,,,,decisionTrl,resources/DP.BMP,resources/DBN.BMP,Door1,0.230283912,-0.003680336,1,0,0,1.08,optionRight,30,12840,6,22,0,22,0,1,,,,,,,,,,,,,,,,,,,,,,,,,,,,,,,,,,,,,,,
,,,,,,,,2023-08-16_08h52.54.351,HF_wild_card,2022.2.4,Win32,58.82352941,596155a998cf77000106f8d8,64d2fd46c836a06233681665,64dc7f8454219764f686de82,,,,,,,decisionTrl,resources/DBN.BMP,resources/DP.BMP,Door2,0.205047319,-0.009989485,1,0,0,0.882,optionRight,40,12880,6,23,0,23,0,1,,,,,,,,,,,,,,,,,,,,,,,,,,,,,,,,,,,,,,,
,,,,,,,,2023-08-16_08h52.54.351,HF_wild_card,2022.2.4,Win32,58.82352941,596155a998cf77000106f8d8,64d2fd46c836a06233681665,64dc7f8454219764f686de82,,,,,,,sngl,resources/Empty.png,resources/DR.BMP,Door3,0.248159832,-0.004731861,1,0,0,0.682,optionRight,70,12950,6,24,0,24,0,1,,,,,,,,,,,,,,,,,,,,,,,,,,,,,,,,,,,,,,,
,,,,,,,,2023-08-16_08h52.54.351,HF_wild_card,2022.2.4,Win32,58.82352941,596155a998cf77000106f8d8,64d2fd46c836a06233681665,64dc7f8454219764f686de82,,,,,,,ctch,resources/DP.BMP,resources/DR.BMP,Door3,0.287066246,0.005783386,1,0,0,0.849,optionRight,70,13020,6,25,0,25,0,1,,,,,,,,,,,,,,,,,,,,,,,,,,,,,,,,,,,,,,,
,,,,,,,,2023-08-16_08h52.54.351,HF_wild_card,2022.2.4,Win32,58.82352941,596155a998cf77000106f8d8,64d2fd46c836a06233681665,64dc7f8454219764f686de82,,,,,,,ctch,resources/DB.BMP,resources/DBN.BMP,Door4,-0.205047319,0.014195584,1,0,0,1.279,optionLeft,80,13100,6,26,0,26,0,1,,,,,,,,,,,,,,,,,,,,,,,,,,,,,,,,,,,,,,,
,,,,,,,,2023-08-16_08h52.54.351,HF_wild_card,2022.2.4,Win32,58.82352941,596155a998cf77000106f8d8,64d2fd46c836a06233681665,64dc7f8454219764f686de82,,,,,,,sngl,resources/Empty.png,resources/DG.BMP,WildCard_Ex,0.240799159,0.012092534,1,0,0,0.647,optionRight,45,13145,6,27,0,27,0,1,,,,,,,,,,,,,,,,,,,,,,,,,,,,,,,,,,,,,,,
,,,,,,,,2023-08-16_08h52.54.351,HF_wild_card,2022.2.4,Win32,58.82352941,596155a998cf77000106f8d8,64d2fd46c836a06233681665,64dc7f8454219764f686de82,,,,,,,decisionTrl,resources/DP.BMP,resources/DBN.BMP,Door2,-0.286014721,0.024710831,1,0,0,0.982,optionLeft,20,13165,6,28,0,28,0,1,,,,,,,,,,,,,,,,,,,,,,,,,,,,,,,,,,,,,,,
,,,,,,,,2023-08-16_08h52.54.351,HF_wild_card,2022.2.4,Win32,58.82352941,596155a998cf77000106f8d8,64d2fd46c836a06233681665,64dc7f8454219764f686de82,,,,,,,decisionTrl,resources/DB.BMP,resources/DR.BMP,Door4,-0.269190326,-0.003680336,1,0,0,0.764,optionLeft,60,13225,6,29,0,29,0,1,,,,,,,,,,,,,,,,,,,,,,,,,,,,,,,,,,,,,,,
,,,,,,,,2023-08-16_08h52.54.351,HF_wild_card,2022.2.4,Win32,58.82352941,596155a998cf77000106f8d8,64d2fd46c836a06233681665,64dc7f8454219764f686de82,,,,,,,decisionTrl,resources/DP.BMP,resources/DBN.BMP,Door1,0.29022082,0.00893796,1,0,0,1.197,optionRight,30,13255,6,30,0,30,0,1,,,,,,,,,,,,,,,,,,,,,,,,,,,,,,,,,,,,,,,
,,,,,,,,2023-08-16_08h52.54.351,HF_wild_card,2022.2.4,Win32,58.82352941,596155a998cf77000106f8d8,64d2fd46c836a06233681665,64dc7f8454219764f686de82,,,,,,,sngl,resources/DP.BMP,resources/Empty.png,Door2,-0.190325973,-0.000525762,1,0,0,0.632,optionLeft,20,13275,6,31,0,31,0,1,,,,,,,,,,,,,,,,,,,,,,,,,,,,,,,,,,,,,,,
,,,,,,,,2023-08-16_08h52.54.351,HF_wild_card,2022.2.4,Win32,58.82352941,596155a998cf77000106f8d8,64d2fd46c836a06233681665,64dc7f8454219764f686de82,,,,,,,sngl,resources/DG.BMP,resources/Empty.png,WildCard_Ex,-0.238696109,0.00893796,1,0,0,0.681,optionLeft,55,13330,6,32,0,32,0,1,,,,,,,,,,,,,,,,,,,,,,,,,,,,,,,,,,,,,,,
,,,,,,,,2023-08-16_08h52.54.351,HF_wild_card,2022.2.4,Win32,58.82352941,596155a998cf77000106f8d8,64d2fd46c836a06233681665,64dc7f8454219764f686de82,,,,,,,ctch,resources/DR.BMP,resources/DP.BMP,Door3,-0.335436383,-0.012092534,1,0,0,1.132,optionLeft,70,13400,6,33,0,33,0,1,,,,,,,,,,,,,,,,,,,,,,,,,,,,,,,,,,,,,,,
,,,,,,,,2023-08-16_08h52.54.351,HF_wild_card,2022.2.4,Win32,58.82352941,596155a998cf77000106f8d8,64d2fd46c836a06233681665,64dc7f8454219764f686de82,,,,,,,decisionTrl,resources/DG.BMP,resources/DB.BMP,Door4,0.229232387,-0.007886435,1,0,0,0.863,optionRight,80,13480,6,34,0,34,0,1,,,,,,,,,,,,,,,,,,,,,,,,,,,,,,,,,,,,,,,
,,,,,,,,2023-08-16_08h52.54.351,HF_wild_card,2022.2.4,Win32,58.82352941,596155a998cf77000106f8d8,64d2fd46c836a06233681665,64dc7f8454219764f686de82,,,,,,,decisionTrl,resources/DG.BMP,resources/DP.BMP,WildCard_Ex,-0.273396425,0.003680336,1,0,0,0.98,optionLeft,55,13535,6,35,0,35,0,1,,,,,,,,,,,,,,,,,,,,,,,,,,,,,,,,,,,,,,,
,,,,,,,,2023-08-16_08h52.54.351,HF_wild_card,2022.2.4,Win32,58.82352941,596155a998cf77000106f8d8,64d2fd46c836a06233681665,64dc7f8454219764f686de82,,,,,,,sngl,resources/Empty.png,resources/DB.BMP,Door4,0.260778128,-0.005783386,1,0,0,0.727,optionRight,80,13615,6,36,0,36,0,1,,,,,,,,,,,,,,,,,,,,,,,,,,,,,,,,,,,,,,,
,,,,,,,,2023-08-16_08h52.54.351,HF_wild_card,2022.2.4,Win32,58.82352941,596155a998cf77000106f8d8,64d2fd46c836a06233681665,64dc7f8454219764f686de82,,,,,,,sngl,resources/Empty.png,resources/DBN.BMP,Door1,0.275499474,0.001577287,1,0,0,0.708,optionRight,30,13645,6,37,0,37,0,1,,,,,,,,,,,,,,,,,,,,,,,,,,,,,,,,,,,,,,,
,,,,,,,,2023-08-16_08h52.54.351,HF_wild_card,2022.2.4,Win32,58.82352941,596155a998cf77000106f8d8,64d2fd46c836a06233681665,64dc7f8454219764f686de82,,,,,,,sngl,resources/DBN.BMP,resources/Empty.png,Door1,-0.225026288,0.005783386,1,0,0,0.629,optionLeft,30,13675,6,38,0,38,0,1,,,,,,,,,,,,,,,,,,,,,,,,,,,,,,,,,,,,,,,
,,,,,,,,2023-08-16_08h52.54.351,HF_wild_card,2022.2.4,Win32,58.82352941,596155a998cf77000106f8d8,64d2fd46c836a06233681665,64dc7f8454219764f686de82,,,,,,,sngl,resources/DG.BMP,resources/Empty.png,WildCard_Ex,-0.270241851,-0.006834911,1,0,0,0.681,optionLeft,45,13720,6,39,0,39,0,1,,,,,,,,,,,,,,,,,,,,,,,,,,,,,,,,,,,,,,,
,,,,,,,,2023-08-16_08h52.54.351,HF_wild_card,2022.2.4,Win32,58.82352941,596155a998cf77000106f8d8,64d2fd46c836a06233681665,64dc7f8454219764f686de82,,,,,,,decisionTrl,resources/DB.BMP,resources/DG.BMP,Door4,-0.168243954,-0.006834911,1,0,0,0.861,optionLeft,80,13800,6,40,0,40,0,1,,,,,,,,,,,,,,,,,,,,,,,,,,,,,,,,,,,,,,,
,,,,,,,,2023-08-16_08h52.54.351,HF_wild_card,2022.2.4,Win32,58.82352941,596155a998cf77000106f8d8,64d2fd46c836a06233681665,64dc7f8454219764f686de82,,,,,,,decisionTrl,resources/DBN.BMP,resources/DP.BMP,Door1,-0.206098843,-0.005783386,1,0,0,1.095,optionLeft,30,13830,6,41,0,41,0,1,,,,,,,,,,,,,,,,,,,,,,,,,,,,,,,,,,,,,,,
,,,,,,,,2023-08-16_08h52.54.351,HF_wild_card,2022.2.4,Win32,58.82352941,596155a998cf77000106f8d8,64d2fd46c836a06233681665,64dc7f8454219764f686de82,,,,,,,decisionTrl,resources/DB.BMP,resources/DR.BMP,Door4,-0.284963197,-0.018401682,1,0,0,0.764,optionLeft,60,13890,6,42,0,42,0,1,,,,,,,,,,,,,,,,,,,,,,,,,,,,,,,,,,,,,,,
,,,,,,,,2023-08-16_08h52.54.351,HF_wild_card,2022.2.4,Win32,58.82352941,596155a998cf77000106f8d8,64d2fd46c836a06233681665,64dc7f8454219764f686de82,,,,,,,decisionTrl,resources/DBN.BMP,resources/DG.BMP,WildCard_Ex,0.220820189,-0.015247108,1,0,0,1.231,optionRight,45,13935,6,43,0,43,0,1,,,,,,,,,,,,,,,,,,,,,,,,,,,,,,,,,,,,,,,
,,,,,,,,2023-08-16_08h52.54.351,HF_wild_card,2022.2.4,Win32,58.82352941,596155a998cf77000106f8d8,64d2fd46c836a06233681665,64dc7f8454219764f686de82,,,,,,,,,,,,,,,,,,,,,,,,,,5,0,5,0,1,,,,,,,,,,,,,,,,,,,,,,,,,,,,,,,,,,
,,,,,,,,2023-08-16_08h52.54.351,HF_wild_card,2022.2.4,Win32,58.82352941,596155a998cf77000106f8d8,64d2fd46c836a06233681665,64dc7f8454219764f686de82,,,,,,,decisionTrl,resources/DR.BMP,resources/DB.BMP,Door4,0.312302839,-0.084647739,1,0,0,0.87,optionRight,60,13995,7,0,0,0,0,1,,,,,,,,,,,,,,,,,,,,,,,,,,,,,,,,,,,,,,,
,,,,,,,,2023-08-16_08h52.54.351,HF_wild_card,2022.2.4,Win32,58.82352941,596155a998cf77000106f8d8,64d2fd46c836a06233681665,64dc7f8454219764f686de82,,,,,,,decisionTrl,resources/DB.BMP,resources/DR.BMP,Door4,-0.262881178,-0.012092534,1,0,0,0.667,optionLeft,80,14075,7,1,0,1,0,1,,,,,,,,,,,,,,,,,,,,,,,,,,,,,,,,,,,,,,,
,,,,,,,,2023-08-16_08h52.54.351,HF_wild_card,2022.2.4,Win32,58.82352941,596155a998cf77000106f8d8,64d2fd46c836a06233681665,64dc7f8454219764f686de82,,,,,,,decisionTrl,resources/DP.BMP,resources/DBN.BMP,Door1,0.25446898,-0.007886435,1,0,0,1.149,optionRight,30,14105,7,2,0,2,0,1,,,,,,,,,,,,,,,,,,,,,,,,,,,,,,,,,,,,,,,
,,,,,,,,2023-08-16_08h52.54.351,HF_wild_card,2022.2.4,Win32,58.82352941,596155a998cf77000106f8d8,64d2fd46c836a06233681665,64dc7f8454219764f686de82,,,,,,,decisionTrl,resources/DP.BMP,resources/DBN.BMP,Door1,0.188222923,-0.019453207,1,0,0,1,optionRight,30,14135,7,3,0,3,0,1,,,,,,,,,,,,,,,,,,,,,,,,,,,,,,,,,,,,,,,
,,,,,,,,2023-08-16_08h52.54.351,HF_wild_card,2022.2.4,Win32,58.82352941,596155a998cf77000106f8d8,64d2fd46c836a06233681665,64dc7f8454219764f686de82,,,,,,,ctch,resources/DB.BMP,resources/DBN.BMP,Door4,-0.23659306,0.001577287,1,0,0,0.717,optionLeft,60,14195,7,4,0,4,0,1,,,,,,,,,,,,,,,,,,,,,,,,,,,,,,,,,,,,,,,
,,,,,,,,2023-08-16_08h52.54.351,HF_wild_card,2022.2.4,Win32,58.82352941,596155a998cf77000106f8d8,64d2fd46c836a06233681665,64dc7f8454219764f686de82,,,,,,,decisionTrl,resources/DB.BMP,resources/DR.BMP,Door4,-0.268138801,-0.016298633,1,0,0,0.584,optionLeft,80,14275,7,5,0,5,0,1,,,,,,,,,,,,,,,,,,,,,,,,,,,,,,,,,,,,,,,
,,,,,,,,2023-08-16_08h52.54.351,HF_wild_card,2022.2.4,Win32,58.82352941,596155a998cf77000106f8d8,64d2fd46c836a06233681665,64dc7f8454219764f686de82,,,,,,,ctch,resources/DB.BMP,resources/DBN.BMP,Door4,-0.206098843,-0.007886435,1,0,0,0.582,optionLeft,60,14335,7,6,0,6,0,1,,,,,,,,,,,,,,,,,,,,,,,,,,,,,,,,,,,,,,,
,,,,,,,,2023-08-16_08h52.54.351,HF_wild_card,2022.2.4,Win32,58.82352941,596155a998cf77000106f8d8,64d2fd46c836a06233681665,64dc7f8454219764f686de82,,,,,,,ctch,resources/DP.BMP,resources/DR.BMP,Door3,0.311251314,-0.04679285,1,0,0,1.313,optionRight,70,14405,7,7,0,7,0,1,,,,,,,,,,,,,,,,,,,,,,,,,,,,,,,,,,,,,,,
,,,,,,,,2023-08-16_08h52.54.351,HF_wild_card,2022.2.4,Win32,58.82352941,596155a998cf77000106f8d8,64d2fd46c836a06233681665,64dc7f8454219764f686de82,,,,,,,decisionTrl,resources/DBN.BMP,resources/DP.BMP,Door1,-0.181913775,-0.005783386,1,0,0,0.98,optionLeft,30,14435,7,8,0,8,0,1,,,,,,,,,,,,,,,,,,,,,,,,,,,,,,,,,,,,,,,
,,,,,,,,2023-08-16_08h52.54.351,HF_wild_card,2022.2.4,Win32,58.82352941,596155a998cf77000106f8d8,64d2fd46c836a06233681665,64dc7f8454219764f686de82,,,,,,,ctch,resources/DBN.BMP,resources/DB.BMP,Door4,0.2723449,-0.019453207,1,0,0,0.683,optionRight,80,14515,7,9,0,9,0,1,,,,,,,,,,,,,,,,,,,,,,,,,,,,,,,,,,,,,,,
,,,,,,,,2023-08-16_08h52.54.351,HF_wild_card,2022.2.4,Win32,58.82352941,596155a998cf77000106f8d8,64d2fd46c836a06233681665,64dc7f8454219764f686de82,,,,,,,decisionTrl,resources/DR.BMP,resources/DB.BMP,Door4,0.185068349,0.015247108,1,0,0,0.618,optionRight,80,14595,7,10,0,10,0,1,,,,,,,,,,,,,,,,,,,,,,,,,,,,,,,,,,,,,,,
,,,,,,,,2023-08-16_08h52.54.351,HF_wild_card,2022.2.4,Win32,58.82352941,596155a998cf77000106f8d8,64d2fd46c836a06233681665,64dc7f8454219764f686de82,,,,,,,ctch,resources/DBN.BMP,resources/DB.BMP,Door4,0.235541535,0.005783386,1,0,0,0.582,optionRight,80,14675,7,11,0,11,0,1,,,,,,,,,,,,,,,,,,,,,,,,,,,,,,,,,,,,,,,
,,,,,,,,2023-08-16_08h52.54.351,HF_wild_card,2022.2.4,Win32,58.82352941,596155a998cf77000106f8d8,64d2fd46c836a06233681665,64dc7f8454219764f686de82,,,,,,,decisionTrl,resources/DBN.BMP,resources/DP.BMP,Door1,-0.213459516,-0.001577287,1,0,0,1.398,optionLeft,30,14705,7,12,0,12,0,1,,,,,,,,,,,,,,,,,,,,,,,,,,,,,,,,,,,,,,,
,,,,,,,,2023-08-16_08h52.54.351,HF_wild_card,2022.2.4,Win32,58.82352941,596155a998cf77000106f8d8,64d2fd46c836a06233681665,64dc7f8454219764f686de82,,,,,,,ctch,resources/DB.BMP,resources/DBN.BMP,Door4,-0.311251314,0.016298633,1,0,0,0.733,optionLeft,60,14765,7,13,0,13,0,1,,,,,,,,,,,,,,,,,,,,,,,,,,,,,,,,,,,,,,,
,,,,,,,,2023-08-16_08h52.54.351,HF_wild_card,2022.2.4,Win32,58.82352941,596155a998cf77000106f8d8,64d2fd46c836a06233681665,64dc7f8454219764f686de82,,,,,,,decisionTrl,resources/DBN.BMP,resources/DP.BMP,Door1,-0.196635121,-0.002628812,1,0,0,1.051,optionLeft,30,14795,7,14,0,14,0,1,,,,,,,,,,,,,,,,,,,,,,,,,,,,,,,,,,,,,,,
,,,,,,,,2023-08-16_08h52.54.351,HF_wild_card,2022.2.4,Win32,58.82352941,596155a998cf77000106f8d8,64d2fd46c836a06233681665,64dc7f8454219764f686de82,,,,,,,ctch,resources/DR.BMP,resources/DP.BMP,Door3,-0.31019979,-0.005783386,1,0,0,0.981,optionLeft,70,14865,7,15,0,15,0,1,,,,,,,,,,,,,,,,,,,,,,,,,,,,,,,,,,,,,,,
,,,,,,,,2023-08-16_08h52.54.351,HF_wild_card,2022.2.4,Win32,58.82352941,596155a998cf77000106f8d8,64d2fd46c836a06233681665,64dc7f8454219764f686de82,,,,,,,decisionTrl,resources/DP.BMP,resources/DBN.BMP,Door1,0.238696109,-0.020504732,1,0,0,0.882,optionRight,30,14895,7,16,0,16,0,1,,,,,,,,,,,,,,,,,,,,,,,,,,,,,,,,,,,,,,,
,,,,,,,,2023-08-16_08h52.54.351,HF_wild_card,2022.2.4,Win32,58.82352941,596155a998cf77000106f8d8,64d2fd46c836a06233681665,64dc7f8454219764f686de82,,,,,,,decisionTrl,resources/DR.BMP,resources/DB.BMP,Door4,0.196635121,-0.011041009,1,0,0,0.734,optionRight,80,14975,7,17,0,17,0,1,,,,,,,,,,,,,,,,,,,,,,,,,,,,,,,,,,,,,,,
,,,,,,,,2023-08-16_08h52.54.351,HF_wild_card,2022.2.4,Win32,58.82352941,596155a998cf77000106f8d8,64d2fd46c836a06233681665,64dc7f8454219764f686de82,,,,,,,decisionTrl,resources/DB.BMP,resources/DR.BMP,Door4,-0.256572029,0.02681388,1,0,0,0.816,optionLeft,60,15035,7,18,0,18,0,1,,,,,,,,,,,,,,,,,,,,,,,,,,,,,,,,,,,,,,,
,,,,,,,,2023-08-16_08h52.54.351,HF_wild_card,2022.2.4,Win32,58.82352941,596155a998cf77000106f8d8,64d2fd46c836a06233681665,64dc7f8454219764f686de82,,,,,,,ctch,resources/DR.BMP,resources/DP.BMP,Door3,-0.263932702,0.019453207,1,0,0,0.951,optionLeft,70,15105,7,19,0,19,0,1,,,,,,,,,,,,,,,,,,,,,,,,,,,,,,,,,,,,,,,
,,,,,,,,2023-08-16_08h52.54.351,HF_wild_card,2022.2.4,Win32,58.82352941,596155a998cf77000106f8d8,64d2fd46c836a06233681665,64dc7f8454219764f686de82,,,,,,,ctch,resources/DP.BMP,resources/DR.BMP,Door3,0.220820189,-0.014195584,1,0,0,0.899,optionRight,70,15175,7,20,0,20,0,1,,,,,,,,,,,,,,,,,,,,,,,,,,,,,,,,,,,,,,,
,,,,,,,,2023-08-16_08h52.54.351,HF_wild_card,2022.2.4,Win32,58.82352941,596155a998cf77000106f8d8,64d2fd46c836a06233681665,64dc7f8454219764f686de82,,,,,,,ctch,resources/DBN.BMP,resources/DB.BMP,Door4,0.168243954,-0.004731861,1,0,0,0.766,optionRight,80,15255,7,21,0,21,0,1,,,,,,,,,,,,,,,,,,,,,,,,,,,,,,,,,,,,,,,
,,,,,,,,2023-08-16_08h52.54.351,HF_wild_card,2022.2.4,Win32,58.82352941,596155a998cf77000106f8d8,64d2fd46c836a06233681665,64dc7f8454219764f686de82,,,,,,,decisionTrl,resources/DP.BMP,resources/DBN.BMP,Door2,-0.221871714,0.036277603,1,0,0,0.666,optionLeft,20,15275,7,22,0,22,0,1,,,,,,,,,,,,,,,,,,,,,,,,,,,,,,,,,,,,,,,
,,,,,,,,2023-08-16_08h52.54.351,HF_wild_card,2022.2.4,Win32,58.82352941,596155a998cf77000106f8d8,64d2fd46c836a06233681665,64dc7f8454219764f686de82,,,,,,,decisionTrl,resources/DR.BMP,resources/DB.BMP,Door4,0.179810726,0.002628812,1,0,0,0.751,optionRight,80,15355,7,23,0,23,0,1,,,,,,,,,,,,,,,,,,,,,,,,,,,,,,,,,,,,,,,
,,,,,,,,2023-08-16_08h52.54.351,HF_wild_card,2022.2.4,Win32,58.82352941,596155a998cf77000106f8d8,64d2fd46c836a06233681665,64dc7f8454219764f686de82,,,,,,,decisionTrl,resources/DP.BMP,resources/DBN.BMP,Door1,0.297581493,-0.000525762,1,0,0,0.798,optionRight,30,15385,7,24,0,24,0,1,,,,,,,,,,,,,,,,,,,,,,,,,,,,,,,,,,,,,,,
,,,,,,,,2023-08-16_08h52.54.351,HF_wild_card,2022.2.4,Win32,58.82352941,596155a998cf77000106f8d8,64d2fd46c836a06233681665,64dc7f8454219764f686de82,,,,,,,decisionTrl,resources/DBN.BMP,resources/DP.BMP,Door1,-0.153522608,-0.004731861,1,0,0,0.751,optionLeft,30,15415,7,25,0,25,0,1,,,,,,,,,,,,,,,,,,,,,,,,,,,,,,,,,,,,,,,
,,,,,,,,2023-08-16_08h52.54.351,HF_wild_card,2022.2.4,Win32,58.82352941,596155a998cf77000106f8d8,64d2fd46c836a06233681665,64dc7f8454219764f686de82,,,,,,,decisionTrl,resources/DB.BMP,resources/DR.BMP,Door4,-0.189274448,0.024710831,1,0,0,0.732,optionLeft,60,15475,7,26,0,26,0,1,,,,,,,,,,,,,,,,,,,,,,,,,,,,,,,,,,,,,,,
,,,,,,,,2023-08-16_08h52.54.351,HF_wild_card,2022.2.4,Win32,58.82352941,596155a998cf77000106f8d8,64d2fd46c836a06233681665,64dc7f8454219764f686de82,,,,,,,decisionTrl,resources/DBN.BMP,resources/DP.BMP,Door1,-0.210304942,0.013144059,1,0,0,0.816,optionLeft,30,15505,7,27,0,27,0,1,,,,,,,,,,,,,,,,,,,,,,,,,,,,,,,,,,,,,,,
,,,,,,,,2023-08-16_08h52.54.351,HF_wild_card,2022.2.4,Win32,58.82352941,596155a998cf77000106f8d8,64d2fd46c836a06233681665,64dc7f8454219764f686de82,,,,,,,decisionTrl,resources/DR.BMP,resources/DB.BMP,Door4,0.226077813,-0.004731861,1,0,0,0.9,optionRight,80,15585,7,28,0,28,0,1,,,,,,,,,,,,,,,,,,,,,,,,,,,,,,,,,,,,,,,
,,,,,,,,2023-08-16_08h52.54.351,HF_wild_card,2022.2.4,Win32,58.82352941,596155a998cf77000106f8d8,64d2fd46c836a06233681665,64dc7f8454219764f686de82,,,,,,,ctch,resources/DP.BMP,resources/DR.BMP,Door3,0.199789695,0.002628812,1,0,0,1.133,optionRight,70,15655,7,29,0,29,0,1,,,,,,,,,,,,,,,,,,,,,,,,,,,,,,,,,,,,,,,
,,,,,,,,2023-08-16_08h52.54.351,HF_wild_card,2022.2.4,Win32,58.82352941,596155a998cf77000106f8d8,64d2fd46c836a06233681665,64dc7f8454219764f686de82,,,,,,,decisionTrl,resources/DP.BMP,resources/DBN.BMP,Door1,0.269190326,0.014195584,1,0,0,0.749,optionRight,30,15685,7,30,0,30,0,1,,,,,,,,,,,,,,,,,,,,,,,,,,,,,,,,,,,,,,,
,,,,,,,,2023-08-16_08h52.54.351,HF_wild_card,2022.2.4,Win32,58.82352941,596155a998cf77000106f8d8,64d2fd46c836a06233681665,64dc7f8454219764f686de82,,,,,,,decisionTrl,resources/DB.BMP,resources/DR.BMP,Door4,-0.188222923,0.040483701,1,0,0,0.684,optionLeft,60,15745,7,31,0,31,0,1,,,,,,,,,,,,,,,,,,,,,,,,,,,,,,,,,,,,,,,
,,,,,,,,2023-08-16_08h52.54.351,HF_wild_card,2022.2.4,Win32,58.82352941,596155a998cf77000106f8d8,64d2fd46c836a06233681665,64dc7f8454219764f686de82,,,,,,,decisionTrl,resources/DR.BMP,resources/DB.BMP,Door4,0.271293375,0.00893796,1,0,0,1.265,optionRight,80,15825,7,32,0,32,0,1,,,,,,,,,,,,,,,,,,,,,,,,,,,,,,,,,,,,,,,
,,,,,,,,2023-08-16_08h52.54.351,HF_wild_card,2022.2.4,Win32,58.82352941,596155a998cf77000106f8d8,64d2fd46c836a06233681665,64dc7f8454219764f686de82,,,,,,,decisionTrl,resources/DBN.BMP,resources/DP.BMP,Door1,-0.335436383,0.037329127,1,0,0,0.834,optionLeft,30,15855,7,33,0,33,0,1,,,,,,,,,,,,,,,,,,,,,,,,,,,,,,,,,,,,,,,
,,,,,,,,2023-08-16_08h52.54.351,HF_wild_card,2022.2.4,Win32,58.82352941,596155a998cf77000106f8d8,64d2fd46c836a06233681665,64dc7f8454219764f686de82,,,,,,,decisionTrl,resources/DB.BMP,resources/DR.BMP,Door4,-0.172450053,0.017350158,1,0,0,0.568,optionLeft,60,15915,7,34,0,34,0,1,,,,,,,,,,,,,,,,,,,,,,,,,,,,,,,,,,,,,,,
,,,,,,,,2023-08-16_08h52.54.351,HF_wild_card,2022.2.4,Win32,58.82352941,596155a998cf77000106f8d8,64d2fd46c836a06233681665,64dc7f8454219764f686de82,,,,,,,ctch,resources/DR.BMP,resources/DP.BMP,Door3,-0.267087277,0.023659306,1,0,0,0.833,optionLeft,70,15985,7,35,0,35,0,1,,,,,,,,,,,,,,,,,,,,,,,,,,,,,,,,,,,,,,,
,,,,,,,,2023-08-16_08h52.54.351,HF_wild_card,2022.2.4,Win32,58.82352941,596155a998cf77000106f8d8,64d2fd46c836a06233681665,64dc7f8454219764f686de82,,,,,,,,,,,,,,,,,,,,,,,,,,6,0,6,0,1,,,,,,,,,,,,,,,,,,,,,,,,,,,,,,,,,,
,,,,,,,,2023-08-16_08h52.54.351,HF_wild_card,2022.2.4,Win32,58.82352941,596155a998cf77000106f8d8,64d2fd46c836a06233681665,64dc7f8454219764f686de82,,,,,,,,,,,,,,,,,,,,,,,,,,,,,,,3,,,,,,,,,,,,,,,,,,,,,,,,,,,,,,,,,
,,,,,,,,2023-08-16_08h52.54.351,HF_wild_card,2022.2.4,Win32,58.82352941,596155a998cf77000106f8d8,64d2fd46c836a06233681665,64dc7f8454219764f686de82,,,,,,,,,,,,,,,,,,,,,,,,,,,,,,,,,,,,,,,,,,,,,,,,,,,,,,,,,,,,,,,,
,,,,,,,,2023-08-16_08h52.54.351,HF_wild_card,2022.2.4,Win32,58.82352941,596155a998cf77000106f8d8,64d2fd46c836a06233681665,64dc7f8454219764f686de82,,,,,,,,,,,,,,,,,,,,,,,,,,,,,,,,55,WC_nonExtreme,resources/DY.BMP,0,0,0,0,1,,,,,,,,,,,,,,,,,,,,,,,,,
,,,,,,,,2023-08-16_08h52.54.351,HF_wild_card,2022.2.4,Win32,58.82352941,596155a998cf77000106f8d8,64d2fd46c836a06233681665,64dc7f8454219764f686de82,,,,,,,,,,,,,,,,,,,,,,,,,,,,,,,,70,Door4,resources/DB.BMP,1,0,1,0,1,,,,,,,,,,,,,,,,,,,,,,,,,
,,,,,,,,2023-08-16_08h52.54.351,HF_wild_card,2022.2.4,Win32,58.82352941,596155a998cf77000106f8d8,64d2fd46c836a06233681665,64dc7f8454219764f686de82,,,,,,,,,,,,,,,,,,,,,,,,,,,,,,,,30,Door2,resources/DP.BMP,2,0,2,0,1,,,,,,,,,,,,,,,,,,,,,,,,,
,,,,,,,,2023-08-16_08h52.54.351,HF_wild_card,2022.2.4,Win32,58.82352941,596155a998cf77000106f8d8,64d2fd46c836a06233681665,64dc7f8454219764f686de82,,,,,,,,,,,,,,,,,,,,,,,,,,,,,,,,70,Door3,resources/DR.BMP,3,0,3,0,1,,,,,,,,,,,,,,,,,,,,,,,,,
,,,,,,,,2023-08-16_08h52.54.351,HF_wild_card,2022.2.4,Win32,58.82352941,596155a998cf77000106f8d8,64d2fd46c836a06233681665,64dc7f8454219764f686de82,,,,,,,,,,,,,,,,,,,,,,,,,,,,,,,,30,Door1,resources/DBN.BMP,4,0,4,0,1,,,,,,,,,,,,,,,,,,,,,,,,,
,,,,,,,,2023-08-16_08h52.54.351,HF_wild_card,2022.2.4,Win32,58.82352941,596155a998cf77000106f8d8,64d2fd46c836a06233681665,64dc7f8454219764f686de82,,,,,,,,,,,,,,,,,,,,,,,,,,,,,,,,50,WC_extreme,resources/DG.BMP,5,0,5,0,1,,,,,,,,,,,,,,,,,,,,,,,,,
,,,,,,,,2023-08-16_08h52.54.351,HF_wild_card,2022.2.4,Win32,58.82352941,596155a998cf77000106f8d8,64d2fd46c836a06233681665,64dc7f8454219764f686de82,,,,,,,,,,,,,,,,,,,,,,,,,,,,,,,,,,,,,,,,,,,,,,,,,,,,,,,,,,,,,,,,
,,,,,,,,2023-08-16_08h52.54.351,HF_wild_card,2022.2.4,Win32,58.82352941,596155a998cf77000106f8d8,64d2fd46c836a06233681665,64dc7f8454219764f686de82,,,,,,,,,,,,,,,,,,,,,,,,,,,,,,,,,,,,,,,,0,0,0,0,1,,,,,,,,,,,,,,,,,,,,
