Condition,Low fixed image (Door1),Low risky image (Door2),High fixed image (Door3),High risky image (Door4),NonExtreme Wild Card 1,NonExtreme Wild Card 2,,date,expName,psychopyVersion,OS,frameRate,PROLIFIC_PID,STUDY_ID,SESSION_ID,mouse_2.x,mouse_2.y,mouse_2.leftButton,mouse_2.midButton,mouse_2.rightButton,mouse_2.clicked_name,Trial Type,Left Option Image,Right Option Image,Chosen Door,mouse.x,mouse.y,mouse.leftButton,mouse.midButton,mouse.rightButton,mouse.time,mouse.clicked_name,Feedback,Cumulative Reward,Block,trial.thisRepN,trial.thisTrialN,trial.thisN,trial.thisIndex,trial.ran,blocks.thisRepN,blocks.thisTrialN,blocks.thisN,blocks.thisIndex,blocks.ran,Money conversion,First Outcome Reported,Shown Door (First Outcome),Displayed Image (First Outcome),outcomes.thisRepN,outcomes.thisTrialN,outcomes.thisN,outcomes.thisIndex,outcomes.ran,judgments.thisRepN,judgments.thisTrialN,judgments.thisN,judgments.thisIndex,judgments.ran,freqMouse.x,freqMouse.y,freqMouse.leftButton,freqMouse.midButton,freqMouse.rightButton,freqMouse.clicked_name,FQJ for first outcome,FQJ for second outcome,Shown Door,Displayed Image,trials.thisRepN,trials.thisTrialN,trials.thisN,trials.thisIndex,trials.ran,judgBlock.thisRepN,judgBlock.thisTrialN,judgBlock.thisN,judgBlock.thisIndex,judgBlock.ran
2,resources/DR.BMP,resources/DP.BMP,resources/DBN.BMP,resources/DB.BMP,resources/DG.BMP,resources/DY.BMP,,2023-08-16_09h09.13.517,HF_wild_card,2022.2.4,Win32,60.00960154,63e6378e04ade071ebf9ff9c,64d2fd46c836a06233681665,64dc8410e66544fd39be8975,,,,,,,,,,,,,,,,,,,,,,,,,,,,,,,,,,,,,,,,,,,,,,,,,,,,,,,,,,,,,,,,
,,,,,,,,2023-08-16_09h09.13.517,HF_wild_card,2022.2.4,Win32,60.00960154,63e6378e04ade071ebf9ff9c,64d2fd46c836a06233681665,64dc8410e66544fd39be8975,-0.002604167,-0.419270833,1,0,0,agree,,,,,,,,,,,,,,,,,,,,,,,,,,,,,,,,,,,,,,,,,,,,,,,,,,,,,,,,,,
,,,,,,,,2023-08-16_09h09.13.517,HF_wild_card,2022.2.4,Win32,60.00960154,63e6378e04ade071ebf9ff9c,64d2fd46c836a06233681665,64dc8410e66544fd39be8975,,,,,,,,,,,,,,,,,,,,,,,,,,,,,,,,,,,,,,,,,,,,,,,,,,,,,,,,,,,,,,,,
,,,,,,,,2023-08-16_09h09.13.517,HF_wild_card,2022.2.4,Win32,60.00960154,63e6378e04ade071ebf9ff9c,64d2fd46c836a06233681665,64dc8410e66544fd39be8975,,,,,,,ctch,resources/DP.BMP,resources/DBN.BMP,Door2,-0.01953125,-0.29296875,1,0,0,3.7839,optionLeft,20,20,1,0,0,0,0,1,,,,,,,,,,,,,,,,,,,,,,,,,,,,,,,,,,,,,,,
,,,,,,,,2023-08-16_09h09.13.517,HF_wild_card,2022.2.4,Win32,60.00960154,63e6378e04ade071ebf9ff9c,64d2fd46c836a06233681665,64dc8410e66544fd39be8975,,,,,,,decisionTrl,resources/DB.BMP,resources/DBN.BMP,Door3,0.333333333,-0.00390625,1,0,0,2.4418,optionRight,70,90,1,1,0,1,0,1,,,,,,,,,,,,,,,,,,,,,,,,,,,,,,,,,,,,,,,
,,,,,,,,2023-08-16_09h09.13.517,HF_wild_card,2022.2.4,Win32,60.00960154,63e6378e04ade071ebf9ff9c,64d2fd46c836a06233681665,64dc8410e66544fd39be8975,,,,,,,ctch,resources/DB.BMP,resources/DR.BMP,Door1,0.334635417,0.014322917,1,0,0,2.9934,optionRight,30,120,1,2,0,2,0,1,,,,,,,,,,,,,,,,,,,,,,,,,,,,,,,,,,,,,,,
,,,,,,,,2023-08-16_09h09.13.517,HF_wild_card,2022.2.4,Win32,60.00960154,63e6378e04ade071ebf9ff9c,64d2fd46c836a06233681665,64dc8410e66544fd39be8975,,,,,,,decisionTrl,resources/DP.BMP,resources/DR.BMP,Door2,-0.348958333,0.0390625,1,0,0,1.0597,optionLeft,40,160,1,3,0,3,0,1,,,,,,,,,,,,,,,,,,,,,,,,,,,,,,,,,,,,,,,
,,,,,,,,2023-08-16_09h09.13.517,HF_wild_card,2022.2.4,Win32,60.00960154,63e6378e04ade071ebf9ff9c,64d2fd46c836a06233681665,64dc8410e66544fd39be8975,,,,,,,decisionTrl,resources/DBN.BMP,resources/DY.BMP,WildCard_NonEx,0.541666667,0.078125,1,0,0,4.1912,optionRight,45,205,1,4,0,4,0,1,,,,,,,,,,,,,,,,,,,,,,,,,,,,,,,,,,,,,,,
,,,,,,,,2023-08-16_09h09.13.517,HF_wild_card,2022.2.4,Win32,60.00960154,63e6378e04ade071ebf9ff9c,64d2fd46c836a06233681665,64dc8410e66544fd39be8975,,,,,,,sngl,resources/Empty.png,resources/DY.BMP,WildCard_NonEx,0.5,-0.049479167,1,0,0,5.6753,optionRight,45,250,1,5,0,5,0,1,,,,,,,,,,,,,,,,,,,,,,,,,,,,,,,,,,,,,,,
,,,,,,,,2023-08-16_09h09.13.517,HF_wild_card,2022.2.4,Win32,60.00960154,63e6378e04ade071ebf9ff9c,64d2fd46c836a06233681665,64dc8410e66544fd39be8975,,,,,,,sngl,resources/Empty.png,resources/DY.BMP,WildCard_NonEx,0.1875,0.006510417,1,0,0,2.1878,optionRight,55,305,1,6,0,6,0,1,,,,,,,,,,,,,,,,,,,,,,,,,,,,,,,,,,,,,,,
,,,,,,,,2023-08-16_09h09.13.517,HF_wild_card,2022.2.4,Win32,60.00960154,63e6378e04ade071ebf9ff9c,64d2fd46c836a06233681665,64dc8410e66544fd39be8975,,,,,,,decisionTrl,resources/DR.BMP,resources/DP.BMP,Door1,-0.21875,-0.046875,1,0,0,6.7317,optionLeft,30,335,1,7,0,7,0,1,,,,,,,,,,,,,,,,,,,,,,,,,,,,,,,,,,,,,,,
,,,,,,,,2023-08-16_09h09.13.517,HF_wild_card,2022.2.4,Win32,60.00960154,63e6378e04ade071ebf9ff9c,64d2fd46c836a06233681665,64dc8410e66544fd39be8975,,,,,,,sngl,resources/Empty.png,resources/DP.BMP,Door2,0.423177083,0.0078125,1,0,0,3.9777,optionRight,20,355,1,8,0,8,0,1,,,,,,,,,,,,,,,,,,,,,,,,,,,,,,,,,,,,,,,
,,,,,,,,2023-08-16_09h09.13.517,HF_wild_card,2022.2.4,Win32,60.00960154,63e6378e04ade071ebf9ff9c,64d2fd46c836a06233681665,64dc8410e66544fd39be8975,,,,,,,sngl,resources/DBN.BMP,resources/Empty.png,Door3,-0.557291667,0.006510417,1,0,0,1.0461,optionLeft,70,425,1,9,0,9,0,1,,,,,,,,,,,,,,,,,,,,,,,,,,,,,,,,,,,,,,,
,,,,,,,,2023-08-16_09h09.13.517,HF_wild_card,2022.2.4,Win32,60.00960154,63e6378e04ade071ebf9ff9c,64d2fd46c836a06233681665,64dc8410e66544fd39be8975,,,,,,,ctch,resources/DR.BMP,resources/DB.BMP,Door4,0.001302083,0.0078125,1,0,0,2.3514,optionRight,80,505,1,10,0,10,0,1,,,,,,,,,,,,,,,,,,,,,,,,,,,,,,,,,,,,,,,
,,,,,,,,2023-08-16_09h09.13.517,HF_wild_card,2022.2.4,Win32,60.00960154,63e6378e04ade071ebf9ff9c,64d2fd46c836a06233681665,64dc8410e66544fd39be8975,,,,,,,decisionTrl,resources/DBN.BMP,resources/DB.BMP,Door3,-0.358072917,0.040364583,1,0,0,0.9619,optionLeft,70,575,1,11,0,11,0,1,,,,,,,,,,,,,,,,,,,,,,,,,,,,,,,,,,,,,,,
,,,,,,,,2023-08-16_09h09.13.517,HF_wild_card,2022.2.4,Win32,60.00960154,63e6378e04ade071ebf9ff9c,64d2fd46c836a06233681665,64dc8410e66544fd39be8975,,,,,,,sngl,resources/DY.BMP,resources/Empty.png,WildCard_NonEx,-0.287760417,-0.044270833,1,0,0,1.9175,optionLeft,55,630,1,12,0,12,0,1,,,,,,,,,,,,,,,,,,,,,,,,,,,,,,,,,,,,,,,
,,,,,,,,2023-08-16_09h09.13.517,HF_wild_card,2022.2.4,Win32,60.00960154,63e6378e04ade071ebf9ff9c,64d2fd46c836a06233681665,64dc8410e66544fd39be8975,,,,,,,decisionTrl,resources/DBN.BMP,resources/DB.BMP,Door4,0.35546875,0.020833333,1,0,0,0.8932,optionRight,60,690,1,13,0,13,0,1,,,,,,,,,,,,,,,,,,,,,,,,,,,,,,,,,,,,,,,
,,,,,,,,2023-08-16_09h09.13.517,HF_wild_card,2022.2.4,Win32,60.00960154,63e6378e04ade071ebf9ff9c,64d2fd46c836a06233681665,64dc8410e66544fd39be8975,,,,,,,decisionTrl,resources/DB.BMP,resources/DBN.BMP,Door4,-0.29296875,-0.03125,1,0,0,1.045,optionLeft,60,750,1,14,0,14,0,1,,,,,,,,,,,,,,,,,,,,,,,,,,,,,,,,,,,,,,,
,,,,,,,,2023-08-16_09h09.13.517,HF_wild_card,2022.2.4,Win32,60.00960154,63e6378e04ade071ebf9ff9c,64d2fd46c836a06233681665,64dc8410e66544fd39be8975,,,,,,,sngl,resources/Empty.png,resources/DBN.BMP,Door3,0.3515625,0.079427083,1,0,0,0.7924,optionRight,70,820,1,15,0,15,0,1,,,,,,,,,,,,,,,,,,,,,,,,,,,,,,,,,,,,,,,
,,,,,,,,2023-08-16_09h09.13.517,HF_wild_card,2022.2.4,Win32,60.00960154,63e6378e04ade071ebf9ff9c,64d2fd46c836a06233681665,64dc8410e66544fd39be8975,,,,,,,decisionTrl,resources/DR.BMP,resources/DP.BMP,Door1,-0.348958333,0.002604167,1,0,0,0.8549,optionLeft,30,850,1,16,0,16,0,1,,,,,,,,,,,,,,,,,,,,,,,,,,,,,,,,,,,,,,,
,,,,,,,,2023-08-16_09h09.13.517,HF_wild_card,2022.2.4,Win32,60.00960154,63e6378e04ade071ebf9ff9c,64d2fd46c836a06233681665,64dc8410e66544fd39be8975,,,,,,,sngl,resources/DP.BMP,resources/Empty.png,Door2,-0.342447917,-0.00390625,1,0,0,3.5165,optionLeft,40,890,1,17,0,17,0,1,,,,,,,,,,,,,,,,,,,,,,,,,,,,,,,,,,,,,,,
,,,,,,,,2023-08-16_09h09.13.517,HF_wild_card,2022.2.4,Win32,60.00960154,63e6378e04ade071ebf9ff9c,64d2fd46c836a06233681665,64dc8410e66544fd39be8975,,,,,,,sngl,resources/DR.BMP,resources/Empty.png,Door1,-0.368489583,-0.010416667,1,0,0,1.4622,optionLeft,30,920,1,18,0,18,0,1,,,,,,,,,,,,,,,,,,,,,,,,,,,,,,,,,,,,,,,
,,,,,,,,2023-08-16_09h09.13.517,HF_wild_card,2022.2.4,Win32,60.00960154,63e6378e04ade071ebf9ff9c,64d2fd46c836a06233681665,64dc8410e66544fd39be8975,,,,,,,decisionTrl,resources/DR.BMP,resources/DY.BMP,WildCard_NonEx,0.235677083,0.032552083,1,0,0,1.1462,optionRight,45,965,1,19,0,19,0,1,,,,,,,,,,,,,,,,,,,,,,,,,,,,,,,,,,,,,,,
,,,,,,,,2023-08-16_09h09.13.517,HF_wild_card,2022.2.4,Win32,60.00960154,63e6378e04ade071ebf9ff9c,64d2fd46c836a06233681665,64dc8410e66544fd39be8975,,,,,,,decisionTrl,resources/DR.BMP,resources/DP.BMP,Door1,-0.303385417,-0.013020833,1,0,0,0.8146,optionLeft,30,995,1,20,0,20,0,1,,,,,,,,,,,,,,,,,,,,,,,,,,,,,,,,,,,,,,,
,,,,,,,,2023-08-16_09h09.13.517,HF_wild_card,2022.2.4,Win32,60.00960154,63e6378e04ade071ebf9ff9c,64d2fd46c836a06233681665,64dc8410e66544fd39be8975,,,,,,,decisionTrl,resources/DB.BMP,resources/DY.BMP,WildCard_NonEx,0.23828125,0.052083333,1,0,0,0.8646,optionRight,45,1040,1,21,0,21,0,1,,,,,,,,,,,,,,,,,,,,,,,,,,,,,,,,,,,,,,,
,,,,,,,,2023-08-16_09h09.13.517,HF_wild_card,2022.2.4,Win32,60.00960154,63e6378e04ade071ebf9ff9c,64d2fd46c836a06233681665,64dc8410e66544fd39be8975,,,,,,,sngl,resources/Empty.png,resources/DR.BMP,Door1,0.212239583,0.149739583,1,0,0,3.2986,optionRight,30,1070,1,22,0,22,0,1,,,,,,,,,,,,,,,,,,,,,,,,,,,,,,,,,,,,,,,
,,,,,,,,2023-08-16_09h09.13.517,HF_wild_card,2022.2.4,Win32,60.00960154,63e6378e04ade071ebf9ff9c,64d2fd46c836a06233681665,64dc8410e66544fd39be8975,,,,,,,decisionTrl,resources/DBN.BMP,resources/DB.BMP,Door3,-0.276041667,0.029947917,1,0,0,0.7763,optionLeft,70,1140,1,23,0,23,0,1,,,,,,,,,,,,,,,,,,,,,,,,,,,,,,,,,,,,,,,
,,,,,,,,2023-08-16_09h09.13.517,HF_wild_card,2022.2.4,Win32,60.00960154,63e6378e04ade071ebf9ff9c,64d2fd46c836a06233681665,64dc8410e66544fd39be8975,,,,,,,decisionTrl,resources/DP.BMP,resources/DY.BMP,WildCard_NonEx,0.315104167,0.036458333,1,0,0,0.8644,optionRight,55,1195,1,24,0,24,0,1,,,,,,,,,,,,,,,,,,,,,,,,,,,,,,,,,,,,,,,
,,,,,,,,2023-08-16_09h09.13.517,HF_wild_card,2022.2.4,Win32,60.00960154,63e6378e04ade071ebf9ff9c,64d2fd46c836a06233681665,64dc8410e66544fd39be8975,,,,,,,decisionTrl,resources/DY.BMP,resources/DR.BMP,WildCard_NonEx,-0.268229167,-0.005208333,1,0,0,0.74,optionLeft,45,1240,1,25,0,25,0,1,,,,,,,,,,,,,,,,,,,,,,,,,,,,,,,,,,,,,,,
,,,,,,,,2023-08-16_09h09.13.517,HF_wild_card,2022.2.4,Win32,60.00960154,63e6378e04ade071ebf9ff9c,64d2fd46c836a06233681665,64dc8410e66544fd39be8975,,,,,,,ctch,resources/DBN.BMP,resources/DP.BMP,Door2,0.23828125,0.032552083,1,0,0,1.213,optionRight,20,1260,1,26,0,26,0,1,,,,,,,,,,,,,,,,,,,,,,,,,,,,,,,,,,,,,,,
,,,,,,,,2023-08-16_09h09.13.517,HF_wild_card,2022.2.4,Win32,60.00960154,63e6378e04ade071ebf9ff9c,64d2fd46c836a06233681665,64dc8410e66544fd39be8975,,,,,,,decisionTrl,resources/DY.BMP,resources/DBN.BMP,WildCard_NonEx,-0.2265625,0.048177083,1,0,0,0.9959,optionLeft,45,1305,1,27,0,27,0,1,,,,,,,,,,,,,,,,,,,,,,,,,,,,,,,,,,,,,,,
,,,,,,,,2023-08-16_09h09.13.517,HF_wild_card,2022.2.4,Win32,60.00960154,63e6378e04ade071ebf9ff9c,64d2fd46c836a06233681665,64dc8410e66544fd39be8975,,,,,,,ctch,resources/DBN.BMP,resources/DP.BMP,Door2,0.221354167,0.052083333,1,0,0,0.7777,optionRight,20,1325,1,28,0,28,0,1,,,,,,,,,,,,,,,,,,,,,,,,,,,,,,,,,,,,,,,
,,,,,,,,2023-08-16_09h09.13.517,HF_wild_card,2022.2.4,Win32,60.00960154,63e6378e04ade071ebf9ff9c,64d2fd46c836a06233681665,64dc8410e66544fd39be8975,,,,,,,decisionTrl,resources/DP.BMP,resources/DR.BMP,Door2,-0.212239583,0.065104167,1,0,0,1.0635,optionLeft,20,1345,1,29,0,29,0,1,,,,,,,,,,,,,,,,,,,,,,,,,,,,,,,,,,,,,,,
,,,,,,,,2023-08-16_09h09.13.517,HF_wild_card,2022.2.4,Win32,60.00960154,63e6378e04ade071ebf9ff9c,64d2fd46c836a06233681665,64dc8410e66544fd39be8975,,,,,,,decisionTrl,resources/DR.BMP,resources/DP.BMP,Door2,0.251302083,0.040364583,1,0,0,0.7785,optionRight,20,1365,1,30,0,30,0,1,,,,,,,,,,,,,,,,,,,,,,,,,,,,,,,,,,,,,,,
,,,,,,,,2023-08-16_09h09.13.517,HF_wild_card,2022.2.4,Win32,60.00960154,63e6378e04ade071ebf9ff9c,64d2fd46c836a06233681665,64dc8410e66544fd39be8975,,,,,,,decisionTrl,resources/DBN.BMP,resources/DB.BMP,Door3,-0.248697917,0.010416667,1,0,0,0.6784,optionLeft,70,1435,1,31,0,31,0,1,,,,,,,,,,,,,,,,,,,,,,,,,,,,,,,,,,,,,,,
,,,,,,,,2023-08-16_09h09.13.517,HF_wild_card,2022.2.4,Win32,60.00960154,63e6378e04ade071ebf9ff9c,64d2fd46c836a06233681665,64dc8410e66544fd39be8975,,,,,,,decisionTrl,resources/DP.BMP,resources/DR.BMP,Door2,-0.321614583,0.005208333,1,0,0,0.759,optionLeft,20,1455,1,32,0,32,0,1,,,,,,,,,,,,,,,,,,,,,,,,,,,,,,,,,,,,,,,
,,,,,,,,2023-08-16_09h09.13.517,HF_wild_card,2022.2.4,Win32,60.00960154,63e6378e04ade071ebf9ff9c,64d2fd46c836a06233681665,64dc8410e66544fd39be8975,,,,,,,decisionTrl,resources/DB.BMP,resources/DBN.BMP,Door3,0.192708333,0.006510417,1,0,0,0.6642,optionRight,70,1525,1,33,0,33,0,1,,,,,,,,,,,,,,,,,,,,,,,,,,,,,,,,,,,,,,,
,,,,,,,,2023-08-16_09h09.13.517,HF_wild_card,2022.2.4,Win32,60.00960154,63e6378e04ade071ebf9ff9c,64d2fd46c836a06233681665,64dc8410e66544fd39be8975,,,,,,,decisionTrl,resources/DY.BMP,resources/DP.BMP,Door2,0.290364583,0.022135417,1,0,0,0.6765,optionRight,20,1545,1,34,0,34,0,1,,,,,,,,,,,,,,,,,,,,,,,,,,,,,,,,,,,,,,,
,,,,,,,,2023-08-16_09h09.13.517,HF_wild_card,2022.2.4,Win32,60.00960154,63e6378e04ade071ebf9ff9c,64d2fd46c836a06233681665,64dc8410e66544fd39be8975,,,,,,,ctch,resources/DB.BMP,resources/DR.BMP,Door4,-0.217447917,0.049479167,1,0,0,0.6968,optionLeft,60,1605,1,35,0,35,0,1,,,,,,,,,,,,,,,,,,,,,,,,,,,,,,,,,,,,,,,
,,,,,,,,2023-08-16_09h09.13.517,HF_wild_card,2022.2.4,Win32,60.00960154,63e6378e04ade071ebf9ff9c,64d2fd46c836a06233681665,64dc8410e66544fd39be8975,,,,,,,ctch,resources/DP.BMP,resources/DBN.BMP,Door3,0.16015625,0.046875,1,0,0,0.7623,optionRight,70,1675,1,36,0,36,0,1,,,,,,,,,,,,,,,,,,,,,,,,,,,,,,,,,,,,,,,
,,,,,,,,2023-08-16_09h09.13.517,HF_wild_card,2022.2.4,Win32,60.00960154,63e6378e04ade071ebf9ff9c,64d2fd46c836a06233681665,64dc8410e66544fd39be8975,,,,,,,sngl,resources/DY.BMP,resources/Empty.png,WildCard_NonEx,-0.279947917,-0.00390625,1,0,0,0.7935,optionLeft,45,1720,1,37,0,37,0,1,,,,,,,,,,,,,,,,,,,,,,,,,,,,,,,,,,,,,,,
,,,,,,,,2023-08-16_09h09.13.517,HF_wild_card,2022.2.4,Win32,60.00960154,63e6378e04ade071ebf9ff9c,64d2fd46c836a06233681665,64dc8410e66544fd39be8975,,,,,,,ctch,resources/DR.BMP,resources/DB.BMP,Door4,0.265625,0.015625,1,0,0,0.5729,optionRight,80,1800,1,38,0,38,0,1,,,,,,,,,,,,,,,,,,,,,,,,,,,,,,,,,,,,,,,
,,,,,,,,2023-08-16_09h09.13.517,HF_wild_card,2022.2.4,Win32,60.00960154,63e6378e04ade071ebf9ff9c,64d2fd46c836a06233681665,64dc8410e66544fd39be8975,,,,,,,sngl,resources/DB.BMP,resources/Empty.png,Door4,-0.182291667,0.05859375,1,0,0,1.9458,optionLeft,80,1880,1,39,0,39,0,1,,,,,,,,,,,,,,,,,,,,,,,,,,,,,,,,,,,,,,,
,,,,,,,,2023-08-16_09h09.13.517,HF_wild_card,2022.2.4,Win32,60.00960154,63e6378e04ade071ebf9ff9c,64d2fd46c836a06233681665,64dc8410e66544fd39be8975,,,,,,,decisionTrl,resources/DB.BMP,resources/DBN.BMP,Door3,0.201822917,0.033854167,1,0,0,0.9299,optionRight,70,1950,1,40,0,40,0,1,,,,,,,,,,,,,,,,,,,,,,,,,,,,,,,,,,,,,,,
,,,,,,,,2023-08-16_09h09.13.517,HF_wild_card,2022.2.4,Win32,60.00960154,63e6378e04ade071ebf9ff9c,64d2fd46c836a06233681665,64dc8410e66544fd39be8975,,,,,,,decisionTrl,resources/DP.BMP,resources/DR.BMP,Door1,0.259114583,0.015625,1,0,0,0.845,optionRight,30,1980,1,41,0,41,0,1,,,,,,,,,,,,,,,,,,,,,,,,,,,,,,,,,,,,,,,
,,,,,,,,2023-08-16_09h09.13.517,HF_wild_card,2022.2.4,Win32,60.00960154,63e6378e04ade071ebf9ff9c,64d2fd46c836a06233681665,64dc8410e66544fd39be8975,,,,,,,sngl,resources/Empty.png,resources/DB.BMP,Door4,0.375,0.002604167,1,0,0,1.3266,optionRight,60,2040,1,42,0,42,0,1,,,,,,,,,,,,,,,,,,,,,,,,,,,,,,,,,,,,,,,
,,,,,,,,2023-08-16_09h09.13.517,HF_wild_card,2022.2.4,Win32,60.00960154,63e6378e04ade071ebf9ff9c,64d2fd46c836a06233681665,64dc8410e66544fd39be8975,,,,,,,decisionTrl,resources/DY.BMP,resources/DB.BMP,Door4,0.2890625,0.0078125,1,0,0,0.7462,optionRight,80,2120,1,43,0,43,0,1,,,,,,,,,,,,,,,,,,,,,,,,,,,,,,,,,,,,,,,
,,,,,,,,2023-08-16_09h09.13.517,HF_wild_card,2022.2.4,Win32,60.00960154,63e6378e04ade071ebf9ff9c,64d2fd46c836a06233681665,64dc8410e66544fd39be8975,,,,,,,,,,,,,,,,,,,,,,,,,,0,0,0,0,1,,,,,,,,,,,,,,,,,,,,,,,,,,,,,,,,,,
,,,,,,,,2023-08-16_09h09.13.517,HF_wild_card,2022.2.4,Win32,60.00960154,63e6378e04ade071ebf9ff9c,64d2fd46c836a06233681665,64dc8410e66544fd39be8975,,,,,,,sngl,resources/DR.BMP,resources/Empty.png,Door1,-0.427083333,0.032552083,1,0,0,1.7493,optionLeft,30,2150,2,0,0,0,0,1,,,,,,,,,,,,,,,,,,,,,,,,,,,,,,,,,,,,,,,
,,,,,,,,2023-08-16_09h09.13.517,HF_wild_card,2022.2.4,Win32,60.00960154,63e6378e04ade071ebf9ff9c,64d2fd46c836a06233681665,64dc8410e66544fd39be8975,,,,,,,decisionTrl,resources/DBN.BMP,resources/DY.BMP,WildCard_NonEx,0.223958333,0.052083333,1,0,0,4.2269,optionRight,45,2195,2,1,0,1,0,1,,,,,,,,,,,,,,,,,,,,,,,,,,,,,,,,,,,,,,,
,,,,,,,,2023-08-16_09h09.13.517,HF_wild_card,2022.2.4,Win32,60.00960154,63e6378e04ade071ebf9ff9c,64d2fd46c836a06233681665,64dc8410e66544fd39be8975,,,,,,,ctch,resources/DR.BMP,resources/DB.BMP,Door1,-0.315104167,0.03125,1,0,0,1.0926,optionLeft,30,2225,2,2,0,2,0,1,,,,,,,,,,,,,,,,,,,,,,,,,,,,,,,,,,,,,,,
,,,,,,,,2023-08-16_09h09.13.517,HF_wild_card,2022.2.4,Win32,60.00960154,63e6378e04ade071ebf9ff9c,64d2fd46c836a06233681665,64dc8410e66544fd39be8975,,,,,,,ctch,resources/DBN.BMP,resources/DP.BMP,Door2,0.233072917,0.036458333,1,0,0,0.7444,optionRight,40,2265,2,3,0,3,0,1,,,,,,,,,,,,,,,,,,,,,,,,,,,,,,,,,,,,,,,
,,,,,,,,2023-08-16_09h09.13.517,HF_wild_card,2022.2.4,Win32,60.00960154,63e6378e04ade071ebf9ff9c,64d2fd46c836a06233681665,64dc8410e66544fd39be8975,,,,,,,decisionTrl,resources/DY.BMP,resources/DBN.BMP,WildCard_NonEx,-0.244791667,0.005208333,1,0,0,0.6791,optionLeft,55,2320,2,4,0,4,0,1,,,,,,,,,,,,,,,,,,,,,,,,,,,,,,,,,,,,,,,
,,,,,,,,2023-08-16_09h09.13.517,HF_wild_card,2022.2.4,Win32,60.00960154,63e6378e04ade071ebf9ff9c,64d2fd46c836a06233681665,64dc8410e66544fd39be8975,,,,,,,sngl,resources/DY.BMP,resources/Empty.png,WildCard_NonEx,-0.37109375,0.171875,1,0,0,4.126,optionLeft,45,2365,2,5,0,5,0,1,,,,,,,,,,,,,,,,,,,,,,,,,,,,,,,,,,,,,,,
,,,,,,,,2023-08-16_09h09.13.517,HF_wild_card,2022.2.4,Win32,60.00960154,63e6378e04ade071ebf9ff9c,64d2fd46c836a06233681665,64dc8410e66544fd39be8975,,,,,,,decisionTrl,resources/DP.BMP,resources/DR.BMP,Door1,0.375,0.071614583,1,0,0,0.8759,optionRight,30,2395,2,6,0,6,0,1,,,,,,,,,,,,,,,,,,,,,,,,,,,,,,,,,,,,,,,
,,,,,,,,2023-08-16_09h09.13.517,HF_wild_card,2022.2.4,Win32,60.00960154,63e6378e04ade071ebf9ff9c,64d2fd46c836a06233681665,64dc8410e66544fd39be8975,,,,,,,sngl,resources/DY.BMP,resources/Empty.png,WildCard_NonEx,-0.223958333,0.033854167,1,0,0,0.743,optionLeft,55,2450,2,7,0,7,0,1,,,,,,,,,,,,,,,,,,,,,,,,,,,,,,,,,,,,,,,
,,,,,,,,2023-08-16_09h09.13.517,HF_wild_card,2022.2.4,Win32,60.00960154,63e6378e04ade071ebf9ff9c,64d2fd46c836a06233681665,64dc8410e66544fd39be8975,,,,,,,decisionTrl,resources/DB.BMP,resources/DBN.BMP,Door3,0.334635417,0.080729167,1,0,0,1.2063,optionRight,70,2520,2,8,0,8,0,1,,,,,,,,,,,,,,,,,,,,,,,,,,,,,,,,,,,,,,,
,,,,,,,,2023-08-16_09h09.13.517,HF_wild_card,2022.2.4,Win32,60.00960154,63e6378e04ade071ebf9ff9c,64d2fd46c836a06233681665,64dc8410e66544fd39be8975,,,,,,,decisionTrl,resources/DR.BMP,resources/DP.BMP,Door1,-0.321614583,0.087239583,1,0,0,6.9411,optionLeft,30,2550,2,9,0,9,0,1,,,,,,,,,,,,,,,,,,,,,,,,,,,,,,,,,,,,,,,
,,,,,,,,2023-08-16_09h09.13.517,HF_wild_card,2022.2.4,Win32,60.00960154,63e6378e04ade071ebf9ff9c,64d2fd46c836a06233681665,64dc8410e66544fd39be8975,,,,,,,ctch,resources/DR.BMP,resources/DB.BMP,Door4,0.248697917,0.024739583,1,0,0,1.2126,optionRight,60,2610,2,10,0,10,0,1,,,,,,,,,,,,,,,,,,,,,,,,,,,,,,,,,,,,,,,
,,,,,,,,2023-08-16_09h09.13.517,HF_wild_card,2022.2.4,Win32,60.00960154,63e6378e04ade071ebf9ff9c,64d2fd46c836a06233681665,64dc8410e66544fd39be8975,,,,,,,sngl,resources/Empty.png,resources/DBN.BMP,Door3,0.27734375,0.08203125,1,0,0,3.2915,optionRight,70,2680,2,11,0,11,0,1,,,,,,,,,,,,,,,,,,,,,,,,,,,,,,,,,,,,,,,
,,,,,,,,2023-08-16_09h09.13.517,HF_wild_card,2022.2.4,Win32,60.00960154,63e6378e04ade071ebf9ff9c,64d2fd46c836a06233681665,64dc8410e66544fd39be8975,,,,,,,decisionTrl,resources/DB.BMP,resources/DBN.BMP,Door4,-0.34375,-0.024739583,1,0,0,0.9341,optionLeft,80,2760,2,12,0,12,0,1,,,,,,,,,,,,,,,,,,,,,,,,,,,,,,,,,,,,,,,
,,,,,,,,2023-08-16_09h09.13.517,HF_wild_card,2022.2.4,Win32,60.00960154,63e6378e04ade071ebf9ff9c,64d2fd46c836a06233681665,64dc8410e66544fd39be8975,,,,,,,decisionTrl,resources/DY.BMP,resources/DP.BMP,Door2,0.255208333,0.0625,1,0,0,0.9527,optionRight,20,2780,2,13,0,13,0,1,,,,,,,,,,,,,,,,,,,,,,,,,,,,,,,,,,,,,,,
,,,,,,,,2023-08-16_09h09.13.517,HF_wild_card,2022.2.4,Win32,60.00960154,63e6378e04ade071ebf9ff9c,64d2fd46c836a06233681665,64dc8410e66544fd39be8975,,,,,,,decisionTrl,resources/DP.BMP,resources/DR.BMP,Door2,-0.3359375,0.015625,1,0,0,0.9455,optionLeft,20,2800,2,14,0,14,0,1,,,,,,,,,,,,,,,,,,,,,,,,,,,,,,,,,,,,,,,
,,,,,,,,2023-08-16_09h09.13.517,HF_wild_card,2022.2.4,Win32,60.00960154,63e6378e04ade071ebf9ff9c,64d2fd46c836a06233681665,64dc8410e66544fd39be8975,,,,,,,decisionTrl,resources/DB.BMP,resources/DY.BMP,WildCard_NonEx,0.213541667,0.028645833,1,0,0,0.8957,optionRight,55,2855,2,15,0,15,0,1,,,,,,,,,,,,,,,,,,,,,,,,,,,,,,,,,,,,,,,
,,,,,,,,2023-08-16_09h09.13.517,HF_wild_card,2022.2.4,Win32,60.00960154,63e6378e04ade071ebf9ff9c,64d2fd46c836a06233681665,64dc8410e66544fd39be8975,,,,,,,sngl,resources/Empty.png,resources/DR.BMP,Door1,0.388020833,0.087239583,1,0,0,5.3564,optionRight,30,2885,2,16,0,16,0,1,,,,,,,,,,,,,,,,,,,,,,,,,,,,,,,,,,,,,,,
,,,,,,,,2023-08-16_09h09.13.517,HF_wild_card,2022.2.4,Win32,60.00960154,63e6378e04ade071ebf9ff9c,64d2fd46c836a06233681665,64dc8410e66544fd39be8975,,,,,,,decisionTrl,resources/DBN.BMP,resources/DB.BMP,Door3,-0.338541667,-0.01953125,1,0,0,0.9593,optionLeft,70,2955,2,17,0,17,0,1,,,,,,,,,,,,,,,,,,,,,,,,,,,,,,,,,,,,,,,
,,,,,,,,2023-08-16_09h09.13.517,HF_wild_card,2022.2.4,Win32,60.00960154,63e6378e04ade071ebf9ff9c,64d2fd46c836a06233681665,64dc8410e66544fd39be8975,,,,,,,sngl,resources/DP.BMP,resources/Empty.png,Door2,-0.31640625,0.010416667,1,0,0,0.8916,optionLeft,20,2975,2,18,0,18,0,1,,,,,,,,,,,,,,,,,,,,,,,,,,,,,,,,,,,,,,,
,,,,,,,,2023-08-16_09h09.13.517,HF_wild_card,2022.2.4,Win32,60.00960154,63e6378e04ade071ebf9ff9c,64d2fd46c836a06233681665,64dc8410e66544fd39be8975,,,,,,,decisionTrl,resources/DR.BMP,resources/DP.BMP,Door2,0.401041667,0.01171875,1,0,0,0.7431,optionRight,20,2995,2,19,0,19,0,1,,,,,,,,,,,,,,,,,,,,,,,,,,,,,,,,,,,,,,,
,,,,,,,,2023-08-16_09h09.13.517,HF_wild_card,2022.2.4,Win32,60.00960154,63e6378e04ade071ebf9ff9c,64d2fd46c836a06233681665,64dc8410e66544fd39be8975,,,,,,,sngl,resources/Empty.png,resources/DY.BMP,WildCard_NonEx,0.276041667,0.053385417,1,0,0,2.0438,optionRight,55,3050,2,20,0,20,0,1,,,,,,,,,,,,,,,,,,,,,,,,,,,,,,,,,,,,,,,
,,,,,,,,2023-08-16_09h09.13.517,HF_wild_card,2022.2.4,Win32,60.00960154,63e6378e04ade071ebf9ff9c,64d2fd46c836a06233681665,64dc8410e66544fd39be8975,,,,,,,decisionTrl,resources/DR.BMP,resources/DY.BMP,Door1,-0.4765625,0.0546875,1,0,0,1.2594,optionLeft,30,3080,2,21,0,21,0,1,,,,,,,,,,,,,,,,,,,,,,,,,,,,,,,,,,,,,,,
,,,,,,,,2023-08-16_09h09.13.517,HF_wild_card,2022.2.4,Win32,60.00960154,63e6378e04ade071ebf9ff9c,64d2fd46c836a06233681665,64dc8410e66544fd39be8975,,,,,,,decisionTrl,resources/DBN.BMP,resources/DB.BMP,Door4,0.240885417,0.037760417,1,0,0,0.8935,optionRight,60,3140,2,22,0,22,0,1,,,,,,,,,,,,,,,,,,,,,,,,,,,,,,,,,,,,,,,
,,,,,,,,2023-08-16_09h09.13.517,HF_wild_card,2022.2.4,Win32,60.00960154,63e6378e04ade071ebf9ff9c,64d2fd46c836a06233681665,64dc8410e66544fd39be8975,,,,,,,sngl,resources/Empty.png,resources/DB.BMP,Door4,0.524739583,0.088541667,1,0,0,1.7769,optionRight,80,3220,2,23,0,23,0,1,,,,,,,,,,,,,,,,,,,,,,,,,,,,,,,,,,,,,,,
,,,,,,,,2023-08-16_09h09.13.517,HF_wild_card,2022.2.4,Win32,60.00960154,63e6378e04ade071ebf9ff9c,64d2fd46c836a06233681665,64dc8410e66544fd39be8975,,,,,,,sngl,resources/DB.BMP,resources/Empty.png,Door4,-0.463541667,0.15234375,1,0,0,1.0454,optionLeft,60,3280,2,24,0,24,0,1,,,,,,,,,,,,,,,,,,,,,,,,,,,,,,,,,,,,,,,
,,,,,,,,2023-08-16_09h09.13.517,HF_wild_card,2022.2.4,Win32,60.00960154,63e6378e04ade071ebf9ff9c,64d2fd46c836a06233681665,64dc8410e66544fd39be8975,,,,,,,ctch,resources/DBN.BMP,resources/DP.BMP,Door3,-0.319010417,0.130208333,1,0,0,1.4606,optionLeft,70,3350,2,25,0,25,0,1,,,,,,,,,,,,,,,,,,,,,,,,,,,,,,,,,,,,,,,
,,,,,,,,2023-08-16_09h09.13.517,HF_wild_card,2022.2.4,Win32,60.00960154,63e6378e04ade071ebf9ff9c,64d2fd46c836a06233681665,64dc8410e66544fd39be8975,,,,,,,decisionTrl,resources/DR.BMP,resources/DP.BMP,Door1,-0.243489583,0.088541667,1,0,0,0.8703,optionLeft,30,3380,2,26,0,26,0,1,,,,,,,,,,,,,,,,,,,,,,,,,,,,,,,,,,,,,,,
,,,,,,,,2023-08-16_09h09.13.517,HF_wild_card,2022.2.4,Win32,60.00960154,63e6378e04ade071ebf9ff9c,64d2fd46c836a06233681665,64dc8410e66544fd39be8975,,,,,,,ctch,resources/DB.BMP,resources/DR.BMP,Door1,0.341145833,0.0390625,1,0,0,0.6089,optionRight,30,3410,2,27,0,27,0,1,,,,,,,,,,,,,,,,,,,,,,,,,,,,,,,,,,,,,,,
,,,,,,,,2023-08-16_09h09.13.517,HF_wild_card,2022.2.4,Win32,60.00960154,63e6378e04ade071ebf9ff9c,64d2fd46c836a06233681665,64dc8410e66544fd39be8975,,,,,,,decisionTrl,resources/DBN.BMP,resources/DB.BMP,Door3,-0.2109375,0.080729167,1,0,0,0.8278,optionLeft,70,3480,2,28,0,28,0,1,,,,,,,,,,,,,,,,,,,,,,,,,,,,,,,,,,,,,,,
,,,,,,,,2023-08-16_09h09.13.517,HF_wild_card,2022.2.4,Win32,60.00960154,63e6378e04ade071ebf9ff9c,64d2fd46c836a06233681665,64dc8410e66544fd39be8975,,,,,,,decisionTrl,resources/DB.BMP,resources/DBN.BMP,Door4,-0.34375,0.0625,1,0,0,0.6263,optionLeft,60,3540,2,29,0,29,0,1,,,,,,,,,,,,,,,,,,,,,,,,,,,,,,,,,,,,,,,
,,,,,,,,2023-08-16_09h09.13.517,HF_wild_card,2022.2.4,Win32,60.00960154,63e6378e04ade071ebf9ff9c,64d2fd46c836a06233681665,64dc8410e66544fd39be8975,,,,,,,decisionTrl,resources/DP.BMP,resources/DR.BMP,Door2,-0.227864583,0.095052083,1,0,0,0.6909,optionLeft,40,3580,2,30,0,30,0,1,,,,,,,,,,,,,,,,,,,,,,,,,,,,,,,,,,,,,,,
,,,,,,,,2023-08-16_09h09.13.517,HF_wild_card,2022.2.4,Win32,60.00960154,63e6378e04ade071ebf9ff9c,64d2fd46c836a06233681665,64dc8410e66544fd39be8975,,,,,,,decisionTrl,resources/DR.BMP,resources/DP.BMP,Door1,-0.2109375,0.053385417,1,0,0,0.7261,optionLeft,30,3610,2,31,0,31,0,1,,,,,,,,,,,,,,,,,,,,,,,,,,,,,,,,,,,,,,,
,,,,,,,,2023-08-16_09h09.13.517,HF_wild_card,2022.2.4,Win32,60.00960154,63e6378e04ade071ebf9ff9c,64d2fd46c836a06233681665,64dc8410e66544fd39be8975,,,,,,,sngl,resources/DBN.BMP,resources/Empty.png,Door3,0.19921875,0.080729167,1,0,0,0.5266,optionLeft,70,3680,2,32,0,32,0,1,,,,,,,,,,,,,,,,,,,,,,,,,,,,,,,,,,,,,,,
,,,,,,,,2023-08-16_09h09.13.517,HF_wild_card,2022.2.4,Win32,60.00960154,63e6378e04ade071ebf9ff9c,64d2fd46c836a06233681665,64dc8410e66544fd39be8975,,,,,,,decisionTrl,resources/DP.BMP,resources/DR.BMP,Door2,-0.341145833,0.053385417,1,0,0,0.6308,optionLeft,20,3700,2,33,0,33,0,1,,,,,,,,,,,,,,,,,,,,,,,,,,,,,,,,,,,,,,,
,,,,,,,,2023-08-16_09h09.13.517,HF_wild_card,2022.2.4,Win32,60.00960154,63e6378e04ade071ebf9ff9c,64d2fd46c836a06233681665,64dc8410e66544fd39be8975,,,,,,,decisionTrl,resources/DY.BMP,resources/DB.BMP,Door4,0.216145833,0.063802083,1,0,0,0.7426,optionRight,80,3780,2,34,0,34,0,1,,,,,,,,,,,,,,,,,,,,,,,,,,,,,,,,,,,,,,,
,,,,,,,,2023-08-16_09h09.13.517,HF_wild_card,2022.2.4,Win32,60.00960154,63e6378e04ade071ebf9ff9c,64d2fd46c836a06233681665,64dc8410e66544fd39be8975,,,,,,,sngl,resources/Empty.png,resources/DY.BMP,WildCard_NonEx,0.25,0.100260417,1,0,0,0.6476,optionRight,45,3825,2,35,0,35,0,1,,,,,,,,,,,,,,,,,,,,,,,,,,,,,,,,,,,,,,,
,,,,,,,,2023-08-16_09h09.13.517,HF_wild_card,2022.2.4,Win32,60.00960154,63e6378e04ade071ebf9ff9c,64d2fd46c836a06233681665,64dc8410e66544fd39be8975,,,,,,,ctch,resources/DB.BMP,resources/DR.BMP,Door4,-0.26171875,0.063802083,1,0,0,0.8222,optionLeft,80,3905,2,36,0,36,0,1,,,,,,,,,,,,,,,,,,,,,,,,,,,,,,,,,,,,,,,
,,,,,,,,2023-08-16_09h09.13.517,HF_wild_card,2022.2.4,Win32,60.00960154,63e6378e04ade071ebf9ff9c,64d2fd46c836a06233681665,64dc8410e66544fd39be8975,,,,,,,decisionTrl,resources/DB.BMP,resources/DBN.BMP,Door3,0.40625,0.0546875,1,0,0,0.7441,optionRight,70,3975,2,37,0,37,0,1,,,,,,,,,,,,,,,,,,,,,,,,,,,,,,,,,,,,,,,
,,,,,,,,2023-08-16_09h09.13.517,HF_wild_card,2022.2.4,Win32,60.00960154,63e6378e04ade071ebf9ff9c,64d2fd46c836a06233681665,64dc8410e66544fd39be8975,,,,,,,sngl,resources/Empty.png,resources/DP.BMP,Door2,0.212239583,0.040364583,1,0,0,1.0923,optionRight,40,4015,2,38,0,38,0,1,,,,,,,,,,,,,,,,,,,,,,,,,,,,,,,,,,,,,,,
,,,,,,,,2023-08-16_09h09.13.517,HF_wild_card,2022.2.4,Win32,60.00960154,63e6378e04ade071ebf9ff9c,64d2fd46c836a06233681665,64dc8410e66544fd39be8975,,,,,,,decisionTrl,resources/DBN.BMP,resources/DB.BMP,Door3,-0.296875,0.041666667,1,0,0,0.7946,optionLeft,70,4085,2,39,0,39,0,1,,,,,,,,,,,,,,,,,,,,,,,,,,,,,,,,,,,,,,,
,,,,,,,,2023-08-16_09h09.13.517,HF_wild_card,2022.2.4,Win32,60.00960154,63e6378e04ade071ebf9ff9c,64d2fd46c836a06233681665,64dc8410e66544fd39be8975,,,,,,,decisionTrl,resources/DP.BMP,resources/DY.BMP,Door2,-0.296875,0.015625,1,0,0,0.8935,optionLeft,40,4125,2,40,0,40,0,1,,,,,,,,,,,,,,,,,,,,,,,,,,,,,,,,,,,,,,,
,,,,,,,,2023-08-16_09h09.13.517,HF_wild_card,2022.2.4,Win32,60.00960154,63e6378e04ade071ebf9ff9c,64d2fd46c836a06233681665,64dc8410e66544fd39be8975,,,,,,,decisionTrl,resources/DY.BMP,resources/DR.BMP,Door1,0.263020833,0.046875,1,0,0,0.6862,optionRight,30,4155,2,41,0,41,0,1,,,,,,,,,,,,,,,,,,,,,,,,,,,,,,,,,,,,,,,
,,,,,,,,2023-08-16_09h09.13.517,HF_wild_card,2022.2.4,Win32,60.00960154,63e6378e04ade071ebf9ff9c,64d2fd46c836a06233681665,64dc8410e66544fd39be8975,,,,,,,ctch,resources/DP.BMP,resources/DBN.BMP,Door2,-0.1953125,0.033854167,1,0,0,0.6626,optionLeft,40,4195,2,42,0,42,0,1,,,,,,,,,,,,,,,,,,,,,,,,,,,,,,,,,,,,,,,
,,,,,,,,2023-08-16_09h09.13.517,HF_wild_card,2022.2.4,Win32,60.00960154,63e6378e04ade071ebf9ff9c,64d2fd46c836a06233681665,64dc8410e66544fd39be8975,,,,,,,ctch,resources/DP.BMP,resources/DBN.BMP,Door3,0.234375,0.048177083,1,0,0,0.608,optionRight,70,4265,2,43,0,43,0,1,,,,,,,,,,,,,,,,,,,,,,,,,,,,,,,,,,,,,,,
,,,,,,,,2023-08-16_09h09.13.517,HF_wild_card,2022.2.4,Win32,60.00960154,63e6378e04ade071ebf9ff9c,64d2fd46c836a06233681665,64dc8410e66544fd39be8975,,,,,,,,,,,,,,,,,,,,,,,,,,1,0,1,0,1,,,,,,,,,,,,,,,,,,,,,,,,,,,,,,,,,,
,,,,,,,,2023-08-16_09h09.13.517,HF_wild_card,2022.2.4,Win32,60.00960154,63e6378e04ade071ebf9ff9c,64d2fd46c836a06233681665,64dc8410e66544fd39be8975,,,,,,,decisionTrl,resources/DP.BMP,resources/DR.BMP,Door2,-0.23828125,-0.03125,1,0,0,1.1245,optionLeft,40,4305,3,0,0,0,0,1,,,,,,,,,,,,,,,,,,,,,,,,,,,,,,,,,,,,,,,
,,,,,,,,2023-08-16_09h09.13.517,HF_wild_card,2022.2.4,Win32,60.00960154,63e6378e04ade071ebf9ff9c,64d2fd46c836a06233681665,64dc8410e66544fd39be8975,,,,,,,ctch,resources/DB.BMP,resources/DR.BMP,Door4,-0.2421875,0.029947917,1,0,0,0.6637,optionLeft,80,4385,3,1,0,1,0,1,,,,,,,,,,,,,,,,,,,,,,,,,,,,,,,,,,,,,,,
,,,,,,,,2023-08-16_09h09.13.517,HF_wild_card,2022.2.4,Win32,60.00960154,63e6378e04ade071ebf9ff9c,64d2fd46c836a06233681665,64dc8410e66544fd39be8975,,,,,,,decisionTrl,resources/DR.BMP,resources/DP.BMP,Door1,-0.36328125,0.115885417,1,0,0,0.5219,optionLeft,30,4415,3,2,0,2,0,1,,,,,,,,,,,,,,,,,,,,,,,,,,,,,,,,,,,,,,,
,,,,,,,,2023-08-16_09h09.13.517,HF_wild_card,2022.2.4,Win32,60.00960154,63e6378e04ade071ebf9ff9c,64d2fd46c836a06233681665,64dc8410e66544fd39be8975,,,,,,,ctch,resources/DP.BMP,resources/DBN.BMP,Door2,-0.260416667,0.078125,1,0,0,0.5595,optionLeft,40,4455,3,3,0,3,0,1,,,,,,,,,,,,,,,,,,,,,,,,,,,,,,,,,,,,,,,
,,,,,,,,2023-08-16_09h09.13.517,HF_wild_card,2022.2.4,Win32,60.00960154,63e6378e04ade071ebf9ff9c,64d2fd46c836a06233681665,64dc8410e66544fd39be8975,,,,,,,sngl,resources/Empty.png,resources/DBN.BMP,Door3,-0.208333333,0.08984375,1,0,0,0.5298,optionRight,70,4525,3,4,0,4,0,1,,,,,,,,,,,,,,,,,,,,,,,,,,,,,,,,,,,,,,,
,,,,,,,,2023-08-16_09h09.13.517,HF_wild_card,2022.2.4,Win32,60.00960154,63e6378e04ade071ebf9ff9c,64d2fd46c836a06233681665,64dc8410e66544fd39be8975,,,,,,,decisionTrl,resources/DR.BMP,resources/DP.BMP,Door2,0.260416667,0.09765625,1,0,0,0.6578,optionRight,20,4545,3,5,0,5,0,1,,,,,,,,,,,,,,,,,,,,,,,,,,,,,,,,,,,,,,,
,,,,,,,,2023-08-16_09h09.13.517,HF_wild_card,2022.2.4,Win32,60.00960154,63e6378e04ade071ebf9ff9c,64d2fd46c836a06233681665,64dc8410e66544fd39be8975,,,,,,,decisionTrl,resources/DBN.BMP,resources/DB.BMP,Door3,-0.256510417,0.049479167,1,0,0,0.4634,optionLeft,70,4615,3,6,0,6,0,1,,,,,,,,,,,,,,,,,,,,,,,,,,,,,,,,,,,,,,,
,,,,,,,,2023-08-16_09h09.13.517,HF_wild_card,2022.2.4,Win32,60.00960154,63e6378e04ade071ebf9ff9c,64d2fd46c836a06233681665,64dc8410e66544fd39be8975,,,,,,,decisionTrl,resources/DB.BMP,resources/DBN.BMP,Door4,-0.21484375,0.12109375,1,0,0,0.8971,optionLeft,60,4675,3,7,0,7,0,1,,,,,,,,,,,,,,,,,,,,,,,,,,,,,,,,,,,,,,,
,,,,,,,,2023-08-16_09h09.13.517,HF_wild_card,2022.2.4,Win32,60.00960154,63e6378e04ade071ebf9ff9c,64d2fd46c836a06233681665,64dc8410e66544fd39be8975,,,,,,,decisionTrl,resources/DB.BMP,resources/DBN.BMP,Door4,-0.209635417,0.08203125,1,0,0,0.8303,optionLeft,80,4755,3,8,0,8,0,1,,,,,,,,,,,,,,,,,,,,,,,,,,,,,,,,,,,,,,,
,,,,,,,,2023-08-16_09h09.13.517,HF_wild_card,2022.2.4,Win32,60.00960154,63e6378e04ade071ebf9ff9c,64d2fd46c836a06233681665,64dc8410e66544fd39be8975,,,,,,,decisionTrl,resources/DR.BMP,resources/DP.BMP,Door2,0.377604167,0.078125,1,0,0,1.0298,optionRight,40,4795,3,9,0,9,0,1,,,,,,,,,,,,,,,,,,,,,,,,,,,,,,,,,,,,,,,
,,,,,,,,2023-08-16_09h09.13.517,HF_wild_card,2022.2.4,Win32,60.00960154,63e6378e04ade071ebf9ff9c,64d2fd46c836a06233681665,64dc8410e66544fd39be8975,,,,,,,decisionTrl,resources/DBN.BMP,resources/DB.BMP,Door3,-0.161458333,0.044270833,1,0,0,1.287,optionLeft,70,4865,3,10,0,10,0,1,,,,,,,,,,,,,,,,,,,,,,,,,,,,,,,,,,,,,,,
,,,,,,,,2023-08-16_09h09.13.517,HF_wild_card,2022.2.4,Win32,60.00960154,63e6378e04ade071ebf9ff9c,64d2fd46c836a06233681665,64dc8410e66544fd39be8975,,,,,,,sngl,resources/Empty.png,resources/DY.BMP,WildCard_NonEx,0.188802083,0.040364583,1,0,0,1.1359,optionRight,45,4910,3,11,0,11,0,1,,,,,,,,,,,,,,,,,,,,,,,,,,,,,,,,,,,,,,,
,,,,,,,,2023-08-16_09h09.13.517,HF_wild_card,2022.2.4,Win32,60.00960154,63e6378e04ade071ebf9ff9c,64d2fd46c836a06233681665,64dc8410e66544fd39be8975,,,,,,,sngl,resources/DB.BMP,resources/Empty.png,Door4,-0.251302083,0.0390625,1,0,0,1.0139,optionLeft,80,4990,3,12,0,12,0,1,,,,,,,,,,,,,,,,,,,,,,,,,,,,,,,,,,,,,,,
,,,,,,,,2023-08-16_09h09.13.517,HF_wild_card,2022.2.4,Win32,60.00960154,63e6378e04ade071ebf9ff9c,64d2fd46c836a06233681665,64dc8410e66544fd39be8975,,,,,,,decisionTrl,resources/DBN.BMP,resources/DB.BMP,Door4,0.298177083,0.075520833,1,0,0,1.0742,optionRight,80,5070,3,13,0,13,0,1,,,,,,,,,,,,,,,,,,,,,,,,,,,,,,,,,,,,,,,
,,,,,,,,2023-08-16_09h09.13.517,HF_wild_card,2022.2.4,Win32,60.00960154,63e6378e04ade071ebf9ff9c,64d2fd46c836a06233681665,64dc8410e66544fd39be8975,,,,,,,sngl,resources/Empty.png,resources/DR.BMP,Door1,0.299479167,0.063802083,1,0,0,0.7479,optionRight,30,5100,3,14,0,14,0,1,,,,,,,,,,,,,,,,,,,,,,,,,,,,,,,,,,,,,,,
,,,,,,,,2023-08-16_09h09.13.517,HF_wild_card,2022.2.4,Win32,60.00960154,63e6378e04ade071ebf9ff9c,64d2fd46c836a06233681665,64dc8410e66544fd39be8975,,,,,,,ctch,resources/DR.BMP,resources/DB.BMP,Door4,0.588541667,0.053385417,1,0,0,1.1803,optionRight,60,5160,3,15,0,15,0,1,,,,,,,,,,,,,,,,,,,,,,,,,,,,,,,,,,,,,,,
,,,,,,,,2023-08-16_09h09.13.517,HF_wild_card,2022.2.4,Win32,60.00960154,63e6378e04ade071ebf9ff9c,64d2fd46c836a06233681665,64dc8410e66544fd39be8975,,,,,,,decisionTrl,resources/DY.BMP,resources/DB.BMP,WildCard_NonEx,-0.30078125,0.053385417,1,0,0,0.7133,optionLeft,45,5205,3,16,0,16,0,1,,,,,,,,,,,,,,,,,,,,,,,,,,,,,,,,,,,,,,,
,,,,,,,,2023-08-16_09h09.13.517,HF_wild_card,2022.2.4,Win32,60.00960154,63e6378e04ade071ebf9ff9c,64d2fd46c836a06233681665,64dc8410e66544fd39be8975,,,,,,,ctch,resources/DB.BMP,resources/DR.BMP,Door1,0.28125,0.08984375,1,0,0,0.5957,optionRight,30,5235,3,17,0,17,0,1,,,,,,,,,,,,,,,,,,,,,,,,,,,,,,,,,,,,,,,
,,,,,,,,2023-08-16_09h09.13.517,HF_wild_card,2022.2.4,Win32,60.00960154,63e6378e04ade071ebf9ff9c,64d2fd46c836a06233681665,64dc8410e66544fd39be8975,,,,,,,sngl,resources/DBN.BMP,resources/Empty.png,Door3,-0.106770833,0.122395833,1,0,0,0.5972,optionLeft,70,5305,3,18,0,18,0,1,,,,,,,,,,,,,,,,,,,,,,,,,,,,,,,,,,,,,,,
,,,,,,,,2023-08-16_09h09.13.517,HF_wild_card,2022.2.4,Win32,60.00960154,63e6378e04ade071ebf9ff9c,64d2fd46c836a06233681665,64dc8410e66544fd39be8975,,,,,,,ctch,resources/DR.BMP,resources/DB.BMP,Door1,-0.3203125,0.106770833,1,0,0,0.6146,optionLeft,30,5335,3,19,0,19,0,1,,,,,,,,,,,,,,,,,,,,,,,,,,,,,,,,,,,,,,,
,,,,,,,,2023-08-16_09h09.13.517,HF_wild_card,2022.2.4,Win32,60.00960154,63e6378e04ade071ebf9ff9c,64d2fd46c836a06233681665,64dc8410e66544fd39be8975,,,,,,,sngl,resources/DY.BMP,resources/Empty.png,WildCard_NonEx,-0.2734375,0.096354167,1,0,0,1.1626,optionLeft,55,5390,3,20,0,20,0,1,,,,,,,,,,,,,,,,,,,,,,,,,,,,,,,,,,,,,,,
,,,,,,,,2023-08-16_09h09.13.517,HF_wild_card,2022.2.4,Win32,60.00960154,63e6378e04ade071ebf9ff9c,64d2fd46c836a06233681665,64dc8410e66544fd39be8975,,,,,,,decisionTrl,resources/DB.BMP,resources/DY.BMP,Door4,-0.217447917,0.114583333,1,0,0,0.5611,optionLeft,60,5450,3,21,0,21,0,1,,,,,,,,,,,,,,,,,,,,,,,,,,,,,,,,,,,,,,,
,,,,,,,,2023-08-16_09h09.13.517,HF_wild_card,2022.2.4,Win32,60.00960154,63e6378e04ade071ebf9ff9c,64d2fd46c836a06233681665,64dc8410e66544fd39be8975,,,,,,,decisionTrl,resources/DR.BMP,resources/DP.BMP,Door2,0.248697917,0.048177083,1,0,0,0.584,optionRight,40,5490,3,22,0,22,0,1,,,,,,,,,,,,,,,,,,,,,,,,,,,,,,,,,,,,,,,
,,,,,,,,2023-08-16_09h09.13.517,HF_wild_card,2022.2.4,Win32,60.00960154,63e6378e04ade071ebf9ff9c,64d2fd46c836a06233681665,64dc8410e66544fd39be8975,,,,,,,sngl,resources/Empty.png,resources/DB.BMP,Door4,0.30859375,0.083333333,1,0,0,1.1938,optionRight,60,5550,3,23,0,23,0,1,,,,,,,,,,,,,,,,,,,,,,,,,,,,,,,,,,,,,,,
,,,,,,,,2023-08-16_09h09.13.517,HF_wild_card,2022.2.4,Win32,60.00960154,63e6378e04ade071ebf9ff9c,64d2fd46c836a06233681665,64dc8410e66544fd39be8975,,,,,,,decisionTrl,resources/DR.BMP,resources/DY.BMP,WildCard_NonEx,0.19921875,0.091145833,1,0,0,0.7629,optionRight,45,5595,3,24,0,24,0,1,,,,,,,,,,,,,,,,,,,,,,,,,,,,,,,,,,,,,,,
,,,,,,,,2023-08-16_09h09.13.517,HF_wild_card,2022.2.4,Win32,60.00960154,63e6378e04ade071ebf9ff9c,64d2fd46c836a06233681665,64dc8410e66544fd39be8975,,,,,,,sngl,resources/Empty.png,resources/DP.BMP,Door2,-0.270833333,0.095052083,1,0,0,0.5512,optionRight,20,5615,3,25,0,25,0,1,,,,,,,,,,,,,,,,,,,,,,,,,,,,,,,,,,,,,,,
,,,,,,,,2023-08-16_09h09.13.517,HF_wild_card,2022.2.4,Win32,60.00960154,63e6378e04ade071ebf9ff9c,64d2fd46c836a06233681665,64dc8410e66544fd39be8975,,,,,,,decisionTrl,resources/DP.BMP,resources/DR.BMP,Door2,-0.231770833,0.1640625,1,0,0,0.6834,optionLeft,20,5635,3,26,0,26,0,1,,,,,,,,,,,,,,,,,,,,,,,,,,,,,,,,,,,,,,,
,,,,,,,,2023-08-16_09h09.13.517,HF_wild_card,2022.2.4,Win32,60.00960154,63e6378e04ade071ebf9ff9c,64d2fd46c836a06233681665,64dc8410e66544fd39be8975,,,,,,,decisionTrl,resources/DB.BMP,resources/DBN.BMP,Door3,0.260416667,0.08984375,1,0,0,0.5901,optionRight,70,5705,3,27,0,27,0,1,,,,,,,,,,,,,,,,,,,,,,,,,,,,,,,,,,,,,,,
,,,,,,,,2023-08-16_09h09.13.517,HF_wild_card,2022.2.4,Win32,60.00960154,63e6378e04ade071ebf9ff9c,64d2fd46c836a06233681665,64dc8410e66544fd39be8975,,,,,,,decisionTrl,resources/DBN.BMP,resources/DY.BMP,WildCard_NonEx,0.307291667,0.083333333,1,0,0,0.6013,optionRight,45,5750,3,28,0,28,0,1,,,,,,,,,,,,,,,,,,,,,,,,,,,,,,,,,,,,,,,
,,,,,,,,2023-08-16_09h09.13.517,HF_wild_card,2022.2.4,Win32,60.00960154,63e6378e04ade071ebf9ff9c,64d2fd46c836a06233681665,64dc8410e66544fd39be8975,,,,,,,sngl,resources/DR.BMP,resources/Empty.png,Door1,-0.16015625,0.0625,1,0,0,0.6372,optionLeft,30,5780,3,29,0,29,0,1,,,,,,,,,,,,,,,,,,,,,,,,,,,,,,,,,,,,,,,
,,,,,,,,2023-08-16_09h09.13.517,HF_wild_card,2022.2.4,Win32,60.00960154,63e6378e04ade071ebf9ff9c,64d2fd46c836a06233681665,64dc8410e66544fd39be8975,,,,,,,decisionTrl,resources/DBN.BMP,resources/DB.BMP,Door4,0.25,0.053385417,1,0,0,0.9952,optionRight,60,5840,3,30,0,30,0,1,,,,,,,,,,,,,,,,,,,,,,,,,,,,,,,,,,,,,,,
,,,,,,,,2023-08-16_09h09.13.517,HF_wild_card,2022.2.4,Win32,60.00960154,63e6378e04ade071ebf9ff9c,64d2fd46c836a06233681665,64dc8410e66544fd39be8975,,,,,,,decisionTrl,resources/DY.BMP,resources/DR.BMP,Door1,0.104166667,0.063802083,1,0,0,0.744,optionRight,30,5870,3,31,0,31,0,1,,,,,,,,,,,,,,,,,,,,,,,,,,,,,,,,,,,,,,,
,,,,,,,,2023-08-16_09h09.13.517,HF_wild_card,2022.2.4,Win32,60.00960154,63e6378e04ade071ebf9ff9c,64d2fd46c836a06233681665,64dc8410e66544fd39be8975,,,,,,,decisionTrl,resources/DP.BMP,resources/DR.BMP,Door2,-0.1953125,0.053385417,1,0,0,0.8445,optionLeft,20,5890,3,32,0,32,0,1,,,,,,,,,,,,,,,,,,,,,,,,,,,,,,,,,,,,,,,
,,,,,,,,2023-08-16_09h09.13.517,HF_wild_card,2022.2.4,Win32,60.00960154,63e6378e04ade071ebf9ff9c,64d2fd46c836a06233681665,64dc8410e66544fd39be8975,,,,,,,decisionTrl,resources/DY.BMP,resources/DBN.BMP,Door3,0.213541667,0.057291667,1,0,0,0.832,optionRight,70,5960,3,33,0,33,0,1,,,,,,,,,,,,,,,,,,,,,,,,,,,,,,,,,,,,,,,
,,,,,,,,2023-08-16_09h09.13.517,HF_wild_card,2022.2.4,Win32,60.00960154,63e6378e04ade071ebf9ff9c,64d2fd46c836a06233681665,64dc8410e66544fd39be8975,,,,,,,decisionTrl,resources/DP.BMP,resources/DY.BMP,WildCard_NonEx,0.264322917,0.046875,1,0,0,0.8854,optionRight,55,6015,3,34,0,34,0,1,,,,,,,,,,,,,,,,,,,,,,,,,,,,,,,,,,,,,,,
,,,,,,,,2023-08-16_09h09.13.517,HF_wild_card,2022.2.4,Win32,60.00960154,63e6378e04ade071ebf9ff9c,64d2fd46c836a06233681665,64dc8410e66544fd39be8975,,,,,,,decisionTrl,resources/DY.BMP,resources/DP.BMP,WildCard_NonEx,-0.231770833,0.07421875,1,0,0,0.5957,optionLeft,55,6070,3,35,0,35,0,1,,,,,,,,,,,,,,,,,,,,,,,,,,,,,,,,,,,,,,,
,,,,,,,,2023-08-16_09h09.13.517,HF_wild_card,2022.2.4,Win32,60.00960154,63e6378e04ade071ebf9ff9c,64d2fd46c836a06233681665,64dc8410e66544fd39be8975,,,,,,,decisionTrl,resources/DP.BMP,resources/DR.BMP,Door2,-0.161458333,0.083333333,1,0,0,0.6773,optionLeft,20,6090,3,36,0,36,0,1,,,,,,,,,,,,,,,,,,,,,,,,,,,,,,,,,,,,,,,
,,,,,,,,2023-08-16_09h09.13.517,HF_wild_card,2022.2.4,Win32,60.00960154,63e6378e04ade071ebf9ff9c,64d2fd46c836a06233681665,64dc8410e66544fd39be8975,,,,,,,ctch,resources/DP.BMP,resources/DBN.BMP,Door3,0.1640625,0.053385417,1,0,0,0.5938,optionRight,70,6160,3,37,0,37,0,1,,,,,,,,,,,,,,,,,,,,,,,,,,,,,,,,,,,,,,,
,,,,,,,,2023-08-16_09h09.13.517,HF_wild_card,2022.2.4,Win32,60.00960154,63e6378e04ade071ebf9ff9c,64d2fd46c836a06233681665,64dc8410e66544fd39be8975,,,,,,,sngl,resources/DP.BMP,resources/Empty.png,Door2,-0.119791667,0.0390625,1,0,0,1.1912,optionLeft,40,6200,3,38,0,38,0,1,,,,,,,,,,,,,,,,,,,,,,,,,,,,,,,,,,,,,,,
,,,,,,,,2023-08-16_09h09.13.517,HF_wild_card,2022.2.4,Win32,60.00960154,63e6378e04ade071ebf9ff9c,64d2fd46c836a06233681665,64dc8410e66544fd39be8975,,,,,,,ctch,resources/DBN.BMP,resources/DP.BMP,Door2,0.213541667,0.08203125,1,0,0,0.6468,optionRight,20,6220,3,39,0,39,0,1,,,,,,,,,,,,,,,,,,,,,,,,,,,,,,,,,,,,,,,
,,,,,,,,2023-08-16_09h09.13.517,HF_wild_card,2022.2.4,Win32,60.00960154,63e6378e04ade071ebf9ff9c,64d2fd46c836a06233681665,64dc8410e66544fd39be8975,,,,,,,ctch,resources/DBN.BMP,resources/DP.BMP,Door3,-0.290364583,0.045572917,1,0,0,0.5435,optionLeft,70,6290,3,40,0,40,0,1,,,,,,,,,,,,,,,,,,,,,,,,,,,,,,,,,,,,,,,
,,,,,,,,2023-08-16_09h09.13.517,HF_wild_card,2022.2.4,Win32,60.00960154,63e6378e04ade071ebf9ff9c,64d2fd46c836a06233681665,64dc8410e66544fd39be8975,,,,,,,sngl,resources/Empty.png,resources/DY.BMP,WildCard_NonEx,0.229166667,0.022135417,1,0,0,1.2643,optionRight,55,6345,3,41,0,41,0,1,,,,,,,,,,,,,,,,,,,,,,,,,,,,,,,,,,,,,,,
,,,,,,,,2023-08-16_09h09.13.517,HF_wild_card,2022.2.4,Win32,60.00960154,63e6378e04ade071ebf9ff9c,64d2fd46c836a06233681665,64dc8410e66544fd39be8975,,,,,,,decisionTrl,resources/DB.BMP,resources/DBN.BMP,Door4,-0.17578125,0.05859375,1,0,0,0.6146,optionLeft,60,6405,3,42,0,42,0,1,,,,,,,,,,,,,,,,,,,,,,,,,,,,,,,,,,,,,,,
,,,,,,,,2023-08-16_09h09.13.517,HF_wild_card,2022.2.4,Win32,60.00960154,63e6378e04ade071ebf9ff9c,64d2fd46c836a06233681665,64dc8410e66544fd39be8975,,,,,,,sngl,resources/DY.BMP,resources/Empty.png,WildCard_NonEx,-0.23828125,0.078125,1,0,0,0.9607,optionLeft,45,6450,3,43,0,43,0,1,,,,,,,,,,,,,,,,,,,,,,,,,,,,,,,,,,,,,,,
,,,,,,,,2023-08-16_09h09.13.517,HF_wild_card,2022.2.4,Win32,60.00960154,63e6378e04ade071ebf9ff9c,64d2fd46c836a06233681665,64dc8410e66544fd39be8975,,,,,,,,,,,,,,,,,,,,,,,,,,2,0,2,0,1,,,,,,,,,,,,,,,,,,,,,,,,,,,,,,,,,,
,,,,,,,,2023-08-16_09h09.13.517,HF_wild_card,2022.2.4,Win32,60.00960154,63e6378e04ade071ebf9ff9c,64d2fd46c836a06233681665,64dc8410e66544fd39be8975,,,,,,,decisionTrl,resources/DP.BMP,resources/DR.BMP,Door1,0.196614583,-0.079427083,1,0,0,0.9334,optionRight,30,6480,4,0,0,0,0,1,,,,,,,,,,,,,,,,,,,,,,,,,,,,,,,,,,,,,,,
,,,,,,,,2023-08-16_09h09.13.517,HF_wild_card,2022.2.4,Win32,60.00960154,63e6378e04ade071ebf9ff9c,64d2fd46c836a06233681665,64dc8410e66544fd39be8975,,,,,,,decisionTrl,resources/DBN.BMP,resources/DB.BMP,Door3,-0.29296875,0.053385417,1,0,0,0.74,optionLeft,70,6550,4,1,0,1,0,1,,,,,,,,,,,,,,,,,,,,,,,,,,,,,,,,,,,,,,,
,,,,,,,,2023-08-16_09h09.13.517,HF_wild_card,2022.2.4,Win32,60.00960154,63e6378e04ade071ebf9ff9c,64d2fd46c836a06233681665,64dc8410e66544fd39be8975,,,,,,,decisionTrl,resources/DP.BMP,resources/DR.BMP,Door2,-0.516927083,0.080729167,1,0,0,1.0337,optionLeft,40,6590,4,2,0,2,0,1,,,,,,,,,,,,,,,,,,,,,,,,,,,,,,,,,,,,,,,
,,,,,,,,2023-08-16_09h09.13.517,HF_wild_card,2022.2.4,Win32,60.00960154,63e6378e04ade071ebf9ff9c,64d2fd46c836a06233681665,64dc8410e66544fd39be8975,,,,,,,ctch,resources/DP.BMP,resources/DBN.BMP,Door2,-0.493489583,0.162760417,1,0,0,0.8884,optionLeft,40,6630,4,3,0,3,0,1,,,,,,,,,,,,,,,,,,,,,,,,,,,,,,,,,,,,,,,
,,,,,,,,2023-08-16_09h09.13.517,HF_wild_card,2022.2.4,Win32,60.00960154,63e6378e04ade071ebf9ff9c,64d2fd46c836a06233681665,64dc8410e66544fd39be8975,,,,,,,sngl,resources/Empty.png,resources/DB.BMP,Door4,0.322916667,0.14453125,1,0,0,3.2077,optionRight,80,6710,4,4,0,4,0,1,,,,,,,,,,,,,,,,,,,,,,,,,,,,,,,,,,,,,,,
,,,,,,,,2023-08-16_09h09.13.517,HF_wild_card,2022.2.4,Win32,60.00960154,63e6378e04ade071ebf9ff9c,64d2fd46c836a06233681665,64dc8410e66544fd39be8975,,,,,,,sngl,resources/DR.BMP,resources/Empty.png,Door1,-0.287760417,0.065104167,1,0,0,0.9687,optionLeft,30,6740,4,5,0,5,0,1,,,,,,,,,,,,,,,,,,,,,,,,,,,,,,,,,,,,,,,
,,,,,,,,2023-08-16_09h09.13.517,HF_wild_card,2022.2.4,Win32,60.00960154,63e6378e04ade071ebf9ff9c,64d2fd46c836a06233681665,64dc8410e66544fd39be8975,,,,,,,decisionTrl,resources/DP.BMP,resources/DR.BMP,Door1,0.266927083,0.041666667,1,0,0,1.2631,optionRight,30,6770,4,6,0,6,0,1,,,,,,,,,,,,,,,,,,,,,,,,,,,,,,,,,,,,,,,
,,,,,,,,2023-08-16_09h09.13.517,HF_wild_card,2022.2.4,Win32,60.00960154,63e6378e04ade071ebf9ff9c,64d2fd46c836a06233681665,64dc8410e66544fd39be8975,,,,,,,ctch,resources/DB.BMP,resources/DR.BMP,Door4,-0.2578125,0.053385417,1,0,0,5.4129,optionLeft,60,6830,4,7,0,7,0,1,,,,,,,,,,,,,,,,,,,,,,,,,,,,,,,,,,,,,,,
,,,,,,,,2023-08-16_09h09.13.517,HF_wild_card,2022.2.4,Win32,60.00960154,63e6378e04ade071ebf9ff9c,64d2fd46c836a06233681665,64dc8410e66544fd39be8975,,,,,,,decisionTrl,resources/DBN.BMP,resources/DG.BMP,Door3,0.006510417,-0.00390625,1,0,0,1.8172,optionLeft,70,6900,4,8,0,8,0,1,,,,,,,,,,,,,,,,,,,,,,,,,,,,,,,,,,,,,,,
,,,,,,,,2023-08-16_09h09.13.517,HF_wild_card,2022.2.4,Win32,60.00960154,63e6378e04ade071ebf9ff9c,64d2fd46c836a06233681665,64dc8410e66544fd39be8975,,,,,,,ctch,resources/DBN.BMP,resources/DP.BMP,Door3,-0.395833333,-0.02734375,1,0,0,0.8365,optionLeft,70,6970,4,9,0,9,0,1,,,,,,,,,,,,,,,,,,,,,,,,,,,,,,,,,,,,,,,
,,,,,,,,2023-08-16_09h09.13.517,HF_wild_card,2022.2.4,Win32,60.00960154,63e6378e04ade071ebf9ff9c,64d2fd46c836a06233681665,64dc8410e66544fd39be8975,,,,,,,sngl,resources/DBN.BMP,resources/Empty.png,Door3,-0.24609375,0.0546875,1,0,0,0.7963,optionLeft,70,7040,4,10,0,10,0,1,,,,,,,,,,,,,,,,,,,,,,,,,,,,,,,,,,,,,,,
,,,,,,,,2023-08-16_09h09.13.517,HF_wild_card,2022.2.4,Win32,60.00960154,63e6378e04ade071ebf9ff9c,64d2fd46c836a06233681665,64dc8410e66544fd39be8975,,,,,,,decisionTrl,resources/DG.BMP,resources/DR.BMP,WildCard_Ex,-0.294270833,0.123697917,1,0,0,2.9253,optionLeft,55,7095,4,11,0,11,0,1,,,,,,,,,,,,,,,,,,,,,,,,,,,,,,,,,,,,,,,
,,,,,,,,2023-08-16_09h09.13.517,HF_wild_card,2022.2.4,Win32,60.00960154,63e6378e04ade071ebf9ff9c,64d2fd46c836a06233681665,64dc8410e66544fd39be8975,,,,,,,decisionTrl,resources/DP.BMP,resources/DR.BMP,Door1,0.381510417,0.061197917,1,0,0,1.0291,optionRight,30,7125,4,12,0,12,0,1,,,,,,,,,,,,,,,,,,,,,,,,,,,,,,,,,,,,,,,
,,,,,,,,2023-08-16_09h09.13.517,HF_wild_card,2022.2.4,Win32,60.00960154,63e6378e04ade071ebf9ff9c,64d2fd46c836a06233681665,64dc8410e66544fd39be8975,,,,,,,decisionTrl,resources/DBN.BMP,resources/DB.BMP,Door4,0.393229167,0.0390625,1,0,0,1.1596,optionRight,80,7205,4,13,0,13,0,1,,,,,,,,,,,,,,,,,,,,,,,,,,,,,,,,,,,,,,,
,,,,,,,,2023-08-16_09h09.13.517,HF_wild_card,2022.2.4,Win32,60.00960154,63e6378e04ade071ebf9ff9c,64d2fd46c836a06233681665,64dc8410e66544fd39be8975,,,,,,,sngl,resources/Empty.png,resources/DG.BMP,WildCard_Ex,0.290364583,0.020833333,1,0,0,1.0253,optionRight,55,7260,4,14,0,14,0,1,,,,,,,,,,,,,,,,,,,,,,,,,,,,,,,,,,,,,,,
,,,,,,,,2023-08-16_09h09.13.517,HF_wild_card,2022.2.4,Win32,60.00960154,63e6378e04ade071ebf9ff9c,64d2fd46c836a06233681665,64dc8410e66544fd39be8975,,,,,,,decisionTrl,resources/DP.BMP,resources/DG.BMP,Door2,-0.401041667,0.0625,1,0,0,0.9912,optionLeft,40,7300,4,15,0,15,0,1,,,,,,,,,,,,,,,,,,,,,,,,,,,,,,,,,,,,,,,
,,,,,,,,2023-08-16_09h09.13.517,HF_wild_card,2022.2.4,Win32,60.00960154,63e6378e04ade071ebf9ff9c,64d2fd46c836a06233681665,64dc8410e66544fd39be8975,,,,,,,decisionTrl,resources/DG.BMP,resources/DBN.BMP,Door3,0.255208333,0.108072917,1,0,0,2.2959,optionRight,70,7370,4,16,0,16,0,1,,,,,,,,,,,,,,,,,,,,,,,,,,,,,,,,,,,,,,,
,,,,,,,,2023-08-16_09h09.13.517,HF_wild_card,2022.2.4,Win32,60.00960154,63e6378e04ade071ebf9ff9c,64d2fd46c836a06233681665,64dc8410e66544fd39be8975,,,,,,,sngl,resources/DB.BMP,resources/Empty.png,Door4,-0.63671875,0.162760417,1,0,0,0.9759,optionLeft,60,7430,4,17,0,17,0,1,,,,,,,,,,,,,,,,,,,,,,,,,,,,,,,,,,,,,,,
,,,,,,,,2023-08-16_09h09.13.517,HF_wild_card,2022.2.4,Win32,60.00960154,63e6378e04ade071ebf9ff9c,64d2fd46c836a06233681665,64dc8410e66544fd39be8975,,,,,,,decisionTrl,resources/DBN.BMP,resources/DB.BMP,Door3,-0.173177083,0.127604167,1,0,0,2.1503,optionLeft,70,7500,4,18,0,18,0,1,,,,,,,,,,,,,,,,,,,,,,,,,,,,,,,,,,,,,,,
,,,,,,,,2023-08-16_09h09.13.517,HF_wild_card,2022.2.4,Win32,60.00960154,63e6378e04ade071ebf9ff9c,64d2fd46c836a06233681665,64dc8410e66544fd39be8975,,,,,,,sngl,resources/Empty.png,resources/DP.BMP,Door2,0.384114583,0.06640625,1,0,0,1.393,optionRight,40,7540,4,19,0,19,0,1,,,,,,,,,,,,,,,,,,,,,,,,,,,,,,,,,,,,,,,
,,,,,,,,2023-08-16_09h09.13.517,HF_wild_card,2022.2.4,Win32,60.00960154,63e6378e04ade071ebf9ff9c,64d2fd46c836a06233681665,64dc8410e66544fd39be8975,,,,,,,decisionTrl,resources/DR.BMP,resources/DP.BMP,Door1,-0.204427083,0.053385417,1,0,0,1.0275,optionLeft,30,7570,4,20,0,20,0,1,,,,,,,,,,,,,,,,,,,,,,,,,,,,,,,,,,,,,,,
,,,,,,,,2023-08-16_09h09.13.517,HF_wild_card,2022.2.4,Win32,60.00960154,63e6378e04ade071ebf9ff9c,64d2fd46c836a06233681665,64dc8410e66544fd39be8975,,,,,,,sngl,resources/DP.BMP,resources/Empty.png,Door2,-0.18359375,0.057291667,1,0,0,1.143,optionLeft,20,7590,4,21,0,21,0,1,,,,,,,,,,,,,,,,,,,,,,,,,,,,,,,,,,,,,,,
,,,,,,,,2023-08-16_09h09.13.517,HF_wild_card,2022.2.4,Win32,60.00960154,63e6378e04ade071ebf9ff9c,64d2fd46c836a06233681665,64dc8410e66544fd39be8975,,,,,,,decisionTrl,resources/DR.BMP,resources/DP.BMP,Door1,-0.2265625,0.095052083,1,0,0,1.3602,optionLeft,30,7620,4,22,0,22,0,1,,,,,,,,,,,,,,,,,,,,,,,,,,,,,,,,,,,,,,,
,,,,,,,,2023-08-16_09h09.13.517,HF_wild_card,2022.2.4,Win32,60.00960154,63e6378e04ade071ebf9ff9c,64d2fd46c836a06233681665,64dc8410e66544fd39be8975,,,,,,,ctch,resources/DB.BMP,resources/DR.BMP,Door4,-0.493489583,0.05859375,1,0,0,1.6083,optionLeft,60,7680,4,23,0,23,0,1,,,,,,,,,,,,,,,,,,,,,,,,,,,,,,,,,,,,,,,
,,,,,,,,2023-08-16_09h09.13.517,HF_wild_card,2022.2.4,Win32,60.00960154,63e6378e04ade071ebf9ff9c,64d2fd46c836a06233681665,64dc8410e66544fd39be8975,,,,,,,ctch,resources/DR.BMP,resources/DB.BMP,Door4,0.334635417,0.057291667,1,0,0,0.9767,optionRight,80,7760,4,24,0,24,0,1,,,,,,,,,,,,,,,,,,,,,,,,,,,,,,,,,,,,,,,
,,,,,,,,2023-08-16_09h09.13.517,HF_wild_card,2022.2.4,Win32,60.00960154,63e6378e04ade071ebf9ff9c,64d2fd46c836a06233681665,64dc8410e66544fd39be8975,,,,,,,decisionTrl,resources/DG.BMP,resources/DB.BMP,Door4,0.389322917,0.100260417,1,0,0,1.0346,optionRight,80,7840,4,25,0,25,0,1,,,,,,,,,,,,,,,,,,,,,,,,,,,,,,,,,,,,,,,
,,,,,,,,2023-08-16_09h09.13.517,HF_wild_card,2022.2.4,Win32,60.00960154,63e6378e04ade071ebf9ff9c,64d2fd46c836a06233681665,64dc8410e66544fd39be8975,,,,,,,ctch,resources/DBN.BMP,resources/DP.BMP,Door3,-0.236979167,0.123697917,1,0,0,1.1936,optionLeft,70,7910,4,26,0,26,0,1,,,,,,,,,,,,,,,,,,,,,,,,,,,,,,,,,,,,,,,
,,,,,,,,2023-08-16_09h09.13.517,HF_wild_card,2022.2.4,Win32,60.00960154,63e6378e04ade071ebf9ff9c,64d2fd46c836a06233681665,64dc8410e66544fd39be8975,,,,,,,ctch,resources/DR.BMP,resources/DB.BMP,Door4,0.79296875,0.106770833,1,0,0,1.0255,optionRight,80,7990,4,27,0,27,0,1,,,,,,,,,,,,,,,,,,,,,,,,,,,,,,,,,,,,,,,
,,,,,,,,2023-08-16_09h09.13.517,HF_wild_card,2022.2.4,Win32,60.00960154,63e6378e04ade071ebf9ff9c,64d2fd46c836a06233681665,64dc8410e66544fd39be8975,,,,,,,decisionTrl,resources/DG.BMP,resources/DP.BMP,WildCard_Ex,-0.1953125,0.131510417,1,0,0,1.4123,optionLeft,45,8035,4,28,0,28,0,1,,,,,,,,,,,,,,,,,,,,,,,,,,,,,,,,,,,,,,,
,,,,,,,,2023-08-16_09h09.13.517,HF_wild_card,2022.2.4,Win32,60.00960154,63e6378e04ade071ebf9ff9c,64d2fd46c836a06233681665,64dc8410e66544fd39be8975,,,,,,,decisionTrl,resources/DB.BMP,resources/DBN.BMP,Door4,-0.315104167,0.06640625,1,0,0,4.5232,optionLeft,60,8095,4,29,0,29,0,1,,,,,,,,,,,,,,,,,,,,,,,,,,,,,,,,,,,,,,,
,,,,,,,,2023-08-16_09h09.13.517,HF_wild_card,2022.2.4,Win32,60.00960154,63e6378e04ade071ebf9ff9c,64d2fd46c836a06233681665,64dc8410e66544fd39be8975,,,,,,,decisionTrl,resources/DB.BMP,resources/DBN.BMP,Door3,0.265625,0.075520833,1,0,0,0.8382,optionRight,70,8165,4,30,0,30,0,1,,,,,,,,,,,,,,,,,,,,,,,,,,,,,,,,,,,,,,,
,,,,,,,,2023-08-16_09h09.13.517,HF_wild_card,2022.2.4,Win32,60.00960154,63e6378e04ade071ebf9ff9c,64d2fd46c836a06233681665,64dc8410e66544fd39be8975,,,,,,,ctch,resources/DP.BMP,resources/DBN.BMP,Door3,0.190104167,0.10546875,1,0,0,1.2288,optionRight,70,8235,4,31,0,31,0,1,,,,,,,,,,,,,,,,,,,,,,,,,,,,,,,,,,,,,,,
,,,,,,,,2023-08-16_09h09.13.517,HF_wild_card,2022.2.4,Win32,60.00960154,63e6378e04ade071ebf9ff9c,64d2fd46c836a06233681665,64dc8410e66544fd39be8975,,,,,,,decisionTrl,resources/DBN.BMP,resources/DB.BMP,Door4,0.23046875,0.119791667,1,0,0,1.3908,optionRight,80,8315,4,32,0,32,0,1,,,,,,,,,,,,,,,,,,,,,,,,,,,,,,,,,,,,,,,
,,,,,,,,2023-08-16_09h09.13.517,HF_wild_card,2022.2.4,Win32,60.00960154,63e6378e04ade071ebf9ff9c,64d2fd46c836a06233681665,64dc8410e66544fd39be8975,,,,,,,decisionTrl,resources/DB.BMP,resources/DBN.BMP,Door4,-0.282552083,0.0703125,1,0,0,2.0812,optionLeft,60,8375,4,33,0,33,0,1,,,,,,,,,,,,,,,,,,,,,,,,,,,,,,,,,,,,,,,
,,,,,,,,2023-08-16_09h09.13.517,HF_wild_card,2022.2.4,Win32,60.00960154,63e6378e04ade071ebf9ff9c,64d2fd46c836a06233681665,64dc8410e66544fd39be8975,,,,,,,sngl,resources/Empty.png,resources/DBN.BMP,Door3,0.197916667,0.087239583,1,0,0,0.8076,optionRight,70,8445,4,34,0,34,0,1,,,,,,,,,,,,,,,,,,,,,,,,,,,,,,,,,,,,,,,
,,,,,,,,2023-08-16_09h09.13.517,HF_wild_card,2022.2.4,Win32,60.00960154,63e6378e04ade071ebf9ff9c,64d2fd46c836a06233681665,64dc8410e66544fd39be8975,,,,,,,decisionTrl,resources/DR.BMP,resources/DP.BMP,Door1,-0.407552083,0.048177083,1,0,0,1.3284,optionLeft,30,8475,4,35,0,35,0,1,,,,,,,,,,,,,,,,,,,,,,,,,,,,,,,,,,,,,,,
,,,,,,,,2023-08-16_09h09.13.517,HF_wild_card,2022.2.4,Win32,60.00960154,63e6378e04ade071ebf9ff9c,64d2fd46c836a06233681665,64dc8410e66544fd39be8975,,,,,,,decisionTrl,resources/DB.BMP,resources/DG.BMP,Door4,-0.2578125,0.14453125,1,0,0,1.3292,optionLeft,60,8535,4,36,0,36,0,1,,,,,,,,,,,,,,,,,,,,,,,,,,,,,,,,,,,,,,,
,,,,,,,,2023-08-16_09h09.13.517,HF_wild_card,2022.2.4,Win32,60.00960154,63e6378e04ade071ebf9ff9c,64d2fd46c836a06233681665,64dc8410e66544fd39be8975,,,,,,,decisionTrl,resources/DR.BMP,resources/DP.BMP,Door2,0.106770833,0.153645833,1,0,0,2.4806,optionRight,20,8555,4,37,0,37,0,1,,,,,,,,,,,,,,,,,,,,,,,,,,,,,,,,,,,,,,,
,,,,,,,,2023-08-16_09h09.13.517,HF_wild_card,2022.2.4,Win32,60.00960154,63e6378e04ade071ebf9ff9c,64d2fd46c836a06233681665,64dc8410e66544fd39be8975,,,,,,,sngl,resources/Empty.png,resources/DR.BMP,Door1,0.2578125,0.125,1,0,0,1.0915,optionRight,30,8585,4,38,0,38,0,1,,,,,,,,,,,,,,,,,,,,,,,,,,,,,,,,,,,,,,,
,,,,,,,,2023-08-16_09h09.13.517,HF_wild_card,2022.2.4,Win32,60.00960154,63e6378e04ade071ebf9ff9c,64d2fd46c836a06233681665,64dc8410e66544fd39be8975,,,,,,,sngl,resources/Empty.png,resources/DG.BMP,WildCard_Ex,0.15625,0.15625,1,0,0,1.2271,optionRight,45,8630,4,39,0,39,0,1,,,,,,,,,,,,,,,,,,,,,,,,,,,,,,,,,,,,,,,
,,,,,,,,2023-08-16_09h09.13.517,HF_wild_card,2022.2.4,Win32,60.00960154,63e6378e04ade071ebf9ff9c,64d2fd46c836a06233681665,64dc8410e66544fd39be8975,,,,,,,decisionTrl,resources/DB.BMP,resources/DBN.BMP,Door4,-0.194010417,0.0859375,1,0,0,1.5095,optionLeft,80,8710,4,40,0,40,0,1,,,,,,,,,,,,,,,,,,,,,,,,,,,,,,,,,,,,,,,
,,,,,,,,2023-08-16_09h09.13.517,HF_wild_card,2022.2.4,Win32,60.00960154,63e6378e04ade071ebf9ff9c,64d2fd46c836a06233681665,64dc8410e66544fd39be8975,,,,,,,sngl,resources/DG.BMP,resources/Empty.png,WildCard_Ex,-0.263020833,0.204427083,1,0,0,1.3783,optionLeft,55,8765,4,41,0,41,0,1,,,,,,,,,,,,,,,,,,,,,,,,,,,,,,,,,,,,,,,
,,,,,,,,2023-08-16_09h09.13.517,HF_wild_card,2022.2.4,Win32,60.00960154,63e6378e04ade071ebf9ff9c,64d2fd46c836a06233681665,64dc8410e66544fd39be8975,,,,,,,sngl,resources/DG.BMP,resources/Empty.png,WildCard_Ex,-0.28515625,0.115885417,1,0,0,1.0601,optionLeft,45,8810,4,42,0,42,0,1,,,,,,,,,,,,,,,,,,,,,,,,,,,,,,,,,,,,,,,
,,,,,,,,2023-08-16_09h09.13.517,HF_wild_card,2022.2.4,Win32,60.00960154,63e6378e04ade071ebf9ff9c,64d2fd46c836a06233681665,64dc8410e66544fd39be8975,,,,,,,decisionTrl,resources/DR.BMP,resources/DG.BMP,Door1,-0.233072917,0.18359375,1,0,0,1.8922,optionLeft,30,8840,4,43,0,43,0,1,,,,,,,,,,,,,,,,,,,,,,,,,,,,,,,,,,,,,,,
,,,,,,,,2023-08-16_09h09.13.517,HF_wild_card,2022.2.4,Win32,60.00960154,63e6378e04ade071ebf9ff9c,64d2fd46c836a06233681665,64dc8410e66544fd39be8975,,,,,,,,,,,,,,,,,,,,,,,,,,3,0,3,0,1,,,,,,,,,,,,,,,,,,,,,,,,,,,,,,,,,,
,,,,,,,,2023-08-16_09h09.13.517,HF_wild_card,2022.2.4,Win32,60.00960154,63e6378e04ade071ebf9ff9c,64d2fd46c836a06233681665,64dc8410e66544fd39be8975,,,,,,,decisionTrl,resources/DB.BMP,resources/DBN.BMP,Door4,-0.51171875,0.147135417,1,0,0,2.2786,optionLeft,80,8920,5,0,0,0,0,1,,,,,,,,,,,,,,,,,,,,,,,,,,,,,,,,,,,,,,,
,,,,,,,,2023-08-16_09h09.13.517,HF_wild_card,2022.2.4,Win32,60.00960154,63e6378e04ade071ebf9ff9c,64d2fd46c836a06233681665,64dc8410e66544fd39be8975,,,,,,,ctch,resources/DB.BMP,resources/DR.BMP,Door4,-0.186197917,0.153645833,1,0,0,1.3871,optionLeft,80,9000,5,1,0,1,0,1,,,,,,,,,,,,,,,,,,,,,,,,,,,,,,,,,,,,,,,
,,,,,,,,2023-08-16_09h09.13.517,HF_wild_card,2022.2.4,Win32,60.00960154,63e6378e04ade071ebf9ff9c,64d2fd46c836a06233681665,64dc8410e66544fd39be8975,,,,,,,decisionTrl,resources/DB.BMP,resources/DBN.BMP,Door4,-0.223958333,0.154947917,1,0,0,1.0362,optionLeft,60,9060,5,2,0,2,0,1,,,,,,,,,,,,,,,,,,,,,,,,,,,,,,,,,,,,,,,
,,,,,,,,2023-08-16_09h09.13.517,HF_wild_card,2022.2.4,Win32,60.00960154,63e6378e04ade071ebf9ff9c,64d2fd46c836a06233681665,64dc8410e66544fd39be8975,,,,,,,decisionTrl,resources/DP.BMP,resources/DR.BMP,Door2,-0.220052083,0.123697917,1,0,0,1.8395,optionLeft,20,9080,5,3,0,3,0,1,,,,,,,,,,,,,,,,,,,,,,,,,,,,,,,,,,,,,,,
,,,,,,,,2023-08-16_09h09.13.517,HF_wild_card,2022.2.4,Win32,60.00960154,63e6378e04ade071ebf9ff9c,64d2fd46c836a06233681665,64dc8410e66544fd39be8975,,,,,,,decisionTrl,resources/DR.BMP,resources/DP.BMP,Door2,0.3671875,0.15234375,1,0,0,2.125,optionRight,20,9100,5,4,0,4,0,1,,,,,,,,,,,,,,,,,,,,,,,,,,,,,,,,,,,,,,,
,,,,,,,,2023-08-16_09h09.13.517,HF_wild_card,2022.2.4,Win32,60.00960154,63e6378e04ade071ebf9ff9c,64d2fd46c836a06233681665,64dc8410e66544fd39be8975,,,,,,,sngl,resources/Empty.png,resources/DR.BMP,Door1,0.276041667,0.071614583,1,0,0,1.0074,optionRight,30,9130,5,5,0,5,0,1,,,,,,,,,,,,,,,,,,,,,,,,,,,,,,,,,,,,,,,
,,,,,,,,2023-08-16_09h09.13.517,HF_wild_card,2022.2.4,Win32,60.00960154,63e6378e04ade071ebf9ff9c,64d2fd46c836a06233681665,64dc8410e66544fd39be8975,,,,,,,decisionTrl,resources/DB.BMP,resources/DBN.BMP,Door4,-0.37109375,0.171875,1,0,0,1.078,optionLeft,60,9190,5,6,0,6,0,1,,,,,,,,,,,,,,,,,,,,,,,,,,,,,,,,,,,,,,,
,,,,,,,,2023-08-16_09h09.13.517,HF_wild_card,2022.2.4,Win32,60.00960154,63e6378e04ade071ebf9ff9c,64d2fd46c836a06233681665,64dc8410e66544fd39be8975,,,,,,,ctch,resources/DBN.BMP,resources/DP.BMP,Door3,-0.3671875,0.174479167,1,0,0,2.276,optionLeft,70,9260,5,7,0,7,0,1,,,,,,,,,,,,,,,,,,,,,,,,,,,,,,,,,,,,,,,
,,,,,,,,2023-08-16_09h09.13.517,HF_wild_card,2022.2.4,Win32,60.00960154,63e6378e04ade071ebf9ff9c,64d2fd46c836a06233681665,64dc8410e66544fd39be8975,,,,,,,sngl,resources/DP.BMP,resources/Empty.png,Door2,-0.2109375,0.1328125,1,0,0,0.9779,optionLeft,40,9300,5,8,0,8,0,1,,,,,,,,,,,,,,,,,,,,,,,,,,,,,,,,,,,,,,,
,,,,,,,,2023-08-16_09h09.13.517,HF_wild_card,2022.2.4,Win32,60.00960154,63e6378e04ade071ebf9ff9c,64d2fd46c836a06233681665,64dc8410e66544fd39be8975,,,,,,,decisionTrl,resources/DG.BMP,resources/DB.BMP,Door4,0.201822917,0.102864583,1,0,0,0.8791,optionRight,60,9360,5,9,0,9,0,1,,,,,,,,,,,,,,,,,,,,,,,,,,,,,,,,,,,,,,,
,,,,,,,,2023-08-16_09h09.13.517,HF_wild_card,2022.2.4,Win32,60.00960154,63e6378e04ade071ebf9ff9c,64d2fd46c836a06233681665,64dc8410e66544fd39be8975,,,,,,,decisionTrl,resources/DB.BMP,resources/DG.BMP,Door4,-0.329427083,0.131510417,1,0,0,1.0409,optionLeft,60,9420,5,10,0,10,0,1,,,,,,,,,,,,,,,,,,,,,,,,,,,,,,,,,,,,,,,
,,,,,,,,2023-08-16_09h09.13.517,HF_wild_card,2022.2.4,Win32,60.00960154,63e6378e04ade071ebf9ff9c,64d2fd46c836a06233681665,64dc8410e66544fd39be8975,,,,,,,ctch,resources/DR.BMP,resources/DB.BMP,Door4,0.201822917,0.08984375,1,0,0,1.0436,optionRight,80,9500,5,11,0,11,0,1,,,,,,,,,,,,,,,,,,,,,,,,,,,,,,,,,,,,,,,
,,,,,,,,2023-08-16_09h09.13.517,HF_wild_card,2022.2.4,Win32,60.00960154,63e6378e04ade071ebf9ff9c,64d2fd46c836a06233681665,64dc8410e66544fd39be8975,,,,,,,decisionTrl,resources/DR.BMP,resources/DP.BMP,Door1,-0.21484375,0.123697917,1,0,0,1.4247,optionLeft,30,9530,5,12,0,12,0,1,,,,,,,,,,,,,,,,,,,,,,,,,,,,,,,,,,,,,,,
,,,,,,,,2023-08-16_09h09.13.517,HF_wild_card,2022.2.4,Win32,60.00960154,63e6378e04ade071ebf9ff9c,64d2fd46c836a06233681665,64dc8410e66544fd39be8975,,,,,,,decisionTrl,resources/DG.BMP,resources/DBN.BMP,Door3,0.248697917,0.1328125,1,0,0,0.8827,optionRight,70,9600,5,13,0,13,0,1,,,,,,,,,,,,,,,,,,,,,,,,,,,,,,,,,,,,,,,
,,,,,,,,2023-08-16_09h09.13.517,HF_wild_card,2022.2.4,Win32,60.00960154,63e6378e04ade071ebf9ff9c,64d2fd46c836a06233681665,64dc8410e66544fd39be8975,,,,,,,sngl,resources/Empty.png,resources/DP.BMP,Door2,0.283854167,0.09375,1,0,0,2.3198,optionRight,20,9620,5,14,0,14,0,1,,,,,,,,,,,,,,,,,,,,,,,,,,,,,,,,,,,,,,,
,,,,,,,,2023-08-16_09h09.13.517,HF_wild_card,2022.2.4,Win32,60.00960154,63e6378e04ade071ebf9ff9c,64d2fd46c836a06233681665,64dc8410e66544fd39be8975,,,,,,,sngl,resources/DG.BMP,resources/Empty.png,WildCard_Ex,-0.223958333,0.125,1,0,0,1.0027,optionLeft,45,9665,5,15,0,15,0,1,,,,,,,,,,,,,,,,,,,,,,,,,,,,,,,,,,,,,,,
,,,,,,,,2023-08-16_09h09.13.517,HF_wild_card,2022.2.4,Win32,60.00960154,63e6378e04ade071ebf9ff9c,64d2fd46c836a06233681665,64dc8410e66544fd39be8975,,,,,,,ctch,resources/DP.BMP,resources/DBN.BMP,Door3,0.18359375,0.102864583,1,0,0,1.209,optionRight,70,9735,5,16,0,16,0,1,,,,,,,,,,,,,,,,,,,,,,,,,,,,,,,,,,,,,,,
,,,,,,,,2023-08-16_09h09.13.517,HF_wild_card,2022.2.4,Win32,60.00960154,63e6378e04ade071ebf9ff9c,64d2fd46c836a06233681665,64dc8410e66544fd39be8975,,,,,,,sngl,resources/Empty.png,resources/DG.BMP,WildCard_Ex,0.188802083,0.088541667,1,0,0,1.0787,optionRight,55,9790,5,17,0,17,0,1,,,,,,,,,,,,,,,,,,,,,,,,,,,,,,,,,,,,,,,
,,,,,,,,2023-08-16_09h09.13.517,HF_wild_card,2022.2.4,Win32,60.00960154,63e6378e04ade071ebf9ff9c,64d2fd46c836a06233681665,64dc8410e66544fd39be8975,,,,,,,decisionTrl,resources/DR.BMP,resources/DG.BMP,WildCard_Ex,0.265625,0.188802083,1,0,0,2.2807,optionRight,45,9835,5,18,0,18,0,1,,,,,,,,,,,,,,,,,,,,,,,,,,,,,,,,,,,,,,,
,,,,,,,,2023-08-16_09h09.13.517,HF_wild_card,2022.2.4,Win32,60.00960154,63e6378e04ade071ebf9ff9c,64d2fd46c836a06233681665,64dc8410e66544fd39be8975,,,,,,,decisionTrl,resources/DBN.BMP,resources/DG.BMP,Door3,-0.27734375,0.138020833,1,0,0,1.2661,optionLeft,70,9905,5,19,0,19,0,1,,,,,,,,,,,,,,,,,,,,,,,,,,,,,,,,,,,,,,,
,,,,,,,,2023-08-16_09h09.13.517,HF_wild_card,2022.2.4,Win32,60.00960154,63e6378e04ade071ebf9ff9c,64d2fd46c836a06233681665,64dc8410e66544fd39be8975,,,,,,,sngl,resources/DG.BMP,resources/Empty.png,WildCard_Ex,-0.359375,0.131510417,1,0,0,1.5317,optionLeft,55,9960,5,20,0,20,0,1,,,,,,,,,,,,,,,,,,,,,,,,,,,,,,,,,,,,,,,
,,,,,,,,2023-08-16_09h09.13.517,HF_wild_card,2022.2.4,Win32,60.00960154,63e6378e04ade071ebf9ff9c,64d2fd46c836a06233681665,64dc8410e66544fd39be8975,,,,,,,ctch,resources/DR.BMP,resources/DB.BMP,Door4,0.270833333,0.10546875,1,0,0,0.8837,optionRight,80,10040,5,21,0,21,0,1,,,,,,,,,,,,,,,,,,,,,,,,,,,,,,,,,,,,,,,
,,,,,,,,2023-08-16_09h09.13.517,HF_wild_card,2022.2.4,Win32,60.00960154,63e6378e04ade071ebf9ff9c,64d2fd46c836a06233681665,64dc8410e66544fd39be8975,,,,,,,decisionTrl,resources/DP.BMP,resources/DR.BMP,Door2,-0.2265625,0.091145833,1,0,0,2.6844,optionLeft,20,10060,5,22,0,22,0,1,,,,,,,,,,,,,,,,,,,,,,,,,,,,,,,,,,,,,,,
,,,,,,,,2023-08-16_09h09.13.517,HF_wild_card,2022.2.4,Win32,60.00960154,63e6378e04ade071ebf9ff9c,64d2fd46c836a06233681665,64dc8410e66544fd39be8975,,,,,,,decisionTrl,resources/DR.BMP,resources/DP.BMP,Door2,0.276041667,0.108072917,1,0,0,1.7566,optionRight,40,10100,5,23,0,23,0,1,,,,,,,,,,,,,,,,,,,,,,,,,,,,,,,,,,,,,,,
,,,,,,,,2023-08-16_09h09.13.517,HF_wild_card,2022.2.4,Win32,60.00960154,63e6378e04ade071ebf9ff9c,64d2fd46c836a06233681665,64dc8410e66544fd39be8975,,,,,,,sngl,resources/DB.BMP,resources/Empty.png,Door4,-0.30078125,0.18359375,1,0,0,1.2412,optionLeft,80,10180,5,24,0,24,0,1,,,,,,,,,,,,,,,,,,,,,,,,,,,,,,,,,,,,,,,
,,,,,,,,2023-08-16_09h09.13.517,HF_wild_card,2022.2.4,Win32,60.00960154,63e6378e04ade071ebf9ff9c,64d2fd46c836a06233681665,64dc8410e66544fd39be8975,,,,,,,sngl,resources/Empty.png,resources/DBN.BMP,Door3,0.140625,0.078125,1,0,0,1.4474,optionRight,70,10250,5,25,0,25,0,1,,,,,,,,,,,,,,,,,,,,,,,,,,,,,,,,,,,,,,,
,,,,,,,,2023-08-16_09h09.13.517,HF_wild_card,2022.2.4,Win32,60.00960154,63e6378e04ade071ebf9ff9c,64d2fd46c836a06233681665,64dc8410e66544fd39be8975,,,,,,,decisionTrl,resources/DBN.BMP,resources/DB.BMP,Door4,0.225260417,0.096354167,1,0,0,1.0942,optionRight,80,10330,5,26,0,26,0,1,,,,,,,,,,,,,,,,,,,,,,,,,,,,,,,,,,,,,,,
,,,,,,,,2023-08-16_09h09.13.517,HF_wild_card,2022.2.4,Win32,60.00960154,63e6378e04ade071ebf9ff9c,64d2fd46c836a06233681665,64dc8410e66544fd39be8975,,,,,,,ctch,resources/DP.BMP,resources/DBN.BMP,Door3,0.326822917,0.12109375,1,0,0,1.5215,optionRight,70,10400,5,27,0,27,0,1,,,,,,,,,,,,,,,,,,,,,,,,,,,,,,,,,,,,,,,
,,,,,,,,2023-08-16_09h09.13.517,HF_wild_card,2022.2.4,Win32,60.00960154,63e6378e04ade071ebf9ff9c,64d2fd46c836a06233681665,64dc8410e66544fd39be8975,,,,,,,decisionTrl,resources/DB.BMP,resources/DBN.BMP,Door4,-0.436197917,0.15234375,1,0,0,2.014,optionLeft,80,10480,5,28,0,28,0,1,,,,,,,,,,,,,,,,,,,,,,,,,,,,,,,,,,,,,,,
,,,,,,,,2023-08-16_09h09.13.517,HF_wild_card,2022.2.4,Win32,60.00960154,63e6378e04ade071ebf9ff9c,64d2fd46c836a06233681665,64dc8410e66544fd39be8975,,,,,,,decisionTrl,resources/DBN.BMP,resources/DB.BMP,Door4,0.296875,0.052083333,1,0,0,1.3428,optionRight,60,10540,5,29,0,29,0,1,,,,,,,,,,,,,,,,,,,,,,,,,,,,,,,,,,,,,,,
,,,,,,,,2023-08-16_09h09.13.517,HF_wild_card,2022.2.4,Win32,60.00960154,63e6378e04ade071ebf9ff9c,64d2fd46c836a06233681665,64dc8410e66544fd39be8975,,,,,,,decisionTrl,resources/DBN.BMP,resources/DB.BMP,Door3,-0.30859375,0.0625,1,0,0,2.1772,optionLeft,70,10610,5,30,0,30,0,1,,,,,,,,,,,,,,,,,,,,,,,,,,,,,,,,,,,,,,,
,,,,,,,,2023-08-16_09h09.13.517,HF_wild_card,2022.2.4,Win32,60.00960154,63e6378e04ade071ebf9ff9c,64d2fd46c836a06233681665,64dc8410e66544fd39be8975,,,,,,,decisionTrl,resources/DR.BMP,resources/DP.BMP,Door1,-0.216145833,0.049479167,1,0,0,2.0773,optionLeft,30,10640,5,31,0,31,0,1,,,,,,,,,,,,,,,,,,,,,,,,,,,,,,,,,,,,,,,
,,,,,,,,2023-08-16_09h09.13.517,HF_wild_card,2022.2.4,Win32,60.00960154,63e6378e04ade071ebf9ff9c,64d2fd46c836a06233681665,64dc8410e66544fd39be8975,,,,,,,decisionTrl,resources/DP.BMP,resources/DR.BMP,Door1,0.479166667,0.005208333,1,0,0,1.6749,optionRight,30,10670,5,32,0,32,0,1,,,,,,,,,,,,,,,,,,,,,,,,,,,,,,,,,,,,,,,
,,,,,,,,2023-08-16_09h09.13.517,HF_wild_card,2022.2.4,Win32,60.00960154,63e6378e04ade071ebf9ff9c,64d2fd46c836a06233681665,64dc8410e66544fd39be8975,,,,,,,sngl,resources/Empty.png,resources/DG.BMP,WildCard_Ex,0.17578125,0.053385417,1,0,0,1.06,optionRight,45,10715,5,33,0,33,0,1,,,,,,,,,,,,,,,,,,,,,,,,,,,,,,,,,,,,,,,
,,,,,,,,2023-08-16_09h09.13.517,HF_wild_card,2022.2.4,Win32,60.00960154,63e6378e04ade071ebf9ff9c,64d2fd46c836a06233681665,64dc8410e66544fd39be8975,,,,,,,sngl,resources/DR.BMP,resources/Empty.png,Door1,-0.41015625,0.131510417,1,0,0,0.9724,optionLeft,30,10745,5,34,0,34,0,1,,,,,,,,,,,,,,,,,,,,,,,,,,,,,,,,,,,,,,,
,,,,,,,,2023-08-16_09h09.13.517,HF_wild_card,2022.2.4,Win32,60.00960154,63e6378e04ade071ebf9ff9c,64d2fd46c836a06233681665,64dc8410e66544fd39be8975,,,,,,,ctch,resources/DB.BMP,resources/DR.BMP,Door4,-0.0078125,-0.002604167,1,0,0,0.2935,optionLeft,60,10805,5,35,0,35,0,1,,,,,,,,,,,,,,,,,,,,,,,,,,,,,,,,,,,,,,,
,,,,,,,,2023-08-16_09h09.13.517,HF_wild_card,2022.2.4,Win32,60.00960154,63e6378e04ade071ebf9ff9c,64d2fd46c836a06233681665,64dc8410e66544fd39be8975,,,,,,,decisionTrl,resources/DG.BMP,resources/DR.BMP,WildCard_Ex,-0.424479167,0.053385417,1,0,0,1.5264,optionLeft,45,10850,5,36,0,36,0,1,,,,,,,,,,,,,,,,,,,,,,,,,,,,,,,,,,,,,,,
,,,,,,,,2023-08-16_09h09.13.517,HF_wild_card,2022.2.4,Win32,60.00960154,63e6378e04ade071ebf9ff9c,64d2fd46c836a06233681665,64dc8410e66544fd39be8975,,,,,,,sngl,resources/DBN.BMP,resources/Empty.png,Door3,-0.223958333,0.08203125,1,0,0,1.1703,optionLeft,70,10920,5,37,0,37,0,1,,,,,,,,,,,,,,,,,,,,,,,,,,,,,,,,,,,,,,,
,,,,,,,,2023-08-16_09h09.13.517,HF_wild_card,2022.2.4,Win32,60.00960154,63e6378e04ade071ebf9ff9c,64d2fd46c836a06233681665,64dc8410e66544fd39be8975,,,,,,,decisionTrl,resources/DBN.BMP,resources/DB.BMP,Door4,0.333333333,0.00390625,1,0,0,1.9269,optionRight,60,10980,5,38,0,38,0,1,,,,,,,,,,,,,,,,,,,,,,,,,,,,,,,,,,,,,,,
,,,,,,,,2023-08-16_09h09.13.517,HF_wild_card,2022.2.4,Win32,60.00960154,63e6378e04ade071ebf9ff9c,64d2fd46c836a06233681665,64dc8410e66544fd39be8975,,,,,,,decisionTrl,resources/DP.BMP,resources/DG.BMP,WildCard_Ex,0.223958333,-0.020833333,1,0,0,1.2104,optionRight,55,11035,5,39,0,39,0,1,,,,,,,,,,,,,,,,,,,,,,,,,,,,,,,,,,,,,,,
,,,,,,,,2023-08-16_09h09.13.517,HF_wild_card,2022.2.4,Win32,60.00960154,63e6378e04ade071ebf9ff9c,64d2fd46c836a06233681665,64dc8410e66544fd39be8975,,,,,,,ctch,resources/DBN.BMP,resources/DP.BMP,Door3,-0.302083333,0.069010417,1,0,0,0.9524,optionLeft,70,11105,5,40,0,40,0,1,,,,,,,,,,,,,,,,,,,,,,,,,,,,,,,,,,,,,,,
,,,,,,,,2023-08-16_09h09.13.517,HF_wild_card,2022.2.4,Win32,60.00960154,63e6378e04ade071ebf9ff9c,64d2fd46c836a06233681665,64dc8410e66544fd39be8975,,,,,,,decisionTrl,resources/DG.BMP,resources/DP.BMP,WildCard_Ex,-0.311197917,0.063802083,1,0,0,1.311,optionLeft,45,11150,5,41,0,41,0,1,,,,,,,,,,,,,,,,,,,,,,,,,,,,,,,,,,,,,,,
,,,,,,,,2023-08-16_09h09.13.517,HF_wild_card,2022.2.4,Win32,60.00960154,63e6378e04ade071ebf9ff9c,64d2fd46c836a06233681665,64dc8410e66544fd39be8975,,,,,,,sngl,resources/Empty.png,resources/DB.BMP,Door4,0.377604167,0.033854167,1,0,0,0.6216,optionRight,60,11210,5,42,0,42,0,1,,,,,,,,,,,,,,,,,,,,,,,,,,,,,,,,,,,,,,,
,,,,,,,,2023-08-16_09h09.13.517,HF_wild_card,2022.2.4,Win32,60.00960154,63e6378e04ade071ebf9ff9c,64d2fd46c836a06233681665,64dc8410e66544fd39be8975,,,,,,,decisionTrl,resources/DP.BMP,resources/DR.BMP,Door1,0.376302083,0.161458333,1,0,0,1.4065,optionRight,30,11240,5,43,0,43,0,1,,,,,,,,,,,,,,,,,,,,,,,,,,,,,,,,,,,,,,,
,,,,,,,,2023-08-16_09h09.13.517,HF_wild_card,2022.2.4,Win32,60.00960154,63e6378e04ade071ebf9ff9c,64d2fd46c836a06233681665,64dc8410e66544fd39be8975,,,,,,,,,,,,,,,,,,,,,,,,,,4,0,4,0,1,,,,,,,,,,,,,,,,,,,,,,,,,,,,,,,,,,
,,,,,,,,2023-08-16_09h09.13.517,HF_wild_card,2022.2.4,Win32,60.00960154,63e6378e04ade071ebf9ff9c,64d2fd46c836a06233681665,64dc8410e66544fd39be8975,,,,,,,sngl,resources/DG.BMP,resources/Empty.png,WildCard_Ex,-0.248697917,0.040364583,1,0,0,1.3159,optionLeft,45,11285,6,0,0,0,0,1,,,,,,,,,,,,,,,,,,,,,,,,,,,,,,,,,,,,,,,
,,,,,,,,2023-08-16_09h09.13.517,HF_wild_card,2022.2.4,Win32,60.00960154,63e6378e04ade071ebf9ff9c,64d2fd46c836a06233681665,64dc8410e66544fd39be8975,,,,,,,ctch,resources/DB.BMP,resources/DR.BMP,Door4,-0.229166667,0.063802083,1,0,0,1.4201,optionLeft,80,11365,6,1,0,1,0,1,,,,,,,,,,,,,,,,,,,,,,,,,,,,,,,,,,,,,,,
,,,,,,,,2023-08-16_09h09.13.517,HF_wild_card,2022.2.4,Win32,60.00960154,63e6378e04ade071ebf9ff9c,64d2fd46c836a06233681665,64dc8410e66544fd39be8975,,,,,,,decisionTrl,resources/DP.BMP,resources/DR.BMP,Door2,-0.3828125,0.071614583,1,0,0,8.6216,optionLeft,40,11405,6,2,0,2,0,1,,,,,,,,,,,,,,,,,,,,,,,,,,,,,,,,,,,,,,,
,,,,,,,,2023-08-16_09h09.13.517,HF_wild_card,2022.2.4,Win32,60.00960154,63e6378e04ade071ebf9ff9c,64d2fd46c836a06233681665,64dc8410e66544fd39be8975,,,,,,,ctch,resources/DR.BMP,resources/DB.BMP,Door4,0.365885417,0.06640625,1,0,0,7.8112,optionRight,80,11485,6,3,0,3,0,1,,,,,,,,,,,,,,,,,,,,,,,,,,,,,,,,,,,,,,,
,,,,,,,,2023-08-16_09h09.13.517,HF_wild_card,2022.2.4,Win32,60.00960154,63e6378e04ade071ebf9ff9c,64d2fd46c836a06233681665,64dc8410e66544fd39be8975,,,,,,,decisionTrl,resources/DBN.BMP,resources/DB.BMP,Door4,0.283854167,0.040364583,1,0,0,1.078,optionRight,80,11565,6,4,0,4,0,1,,,,,,,,,,,,,,,,,,,,,,,,,,,,,,,,,,,,,,,
,,,,,,,,2023-08-16_09h09.13.517,HF_wild_card,2022.2.4,Win32,60.00960154,63e6378e04ade071ebf9ff9c,64d2fd46c836a06233681665,64dc8410e66544fd39be8975,,,,,,,decisionTrl,resources/DB.BMP,resources/DBN.BMP,Door4,-0.263020833,0.100260417,1,0,0,7.674,optionLeft,80,11645,6,5,0,5,0,1,,,,,,,,,,,,,,,,,,,,,,,,,,,,,,,,,,,,,,,
,,,,,,,,2023-08-16_09h09.13.517,HF_wild_card,2022.2.4,Win32,60.00960154,63e6378e04ade071ebf9ff9c,64d2fd46c836a06233681665,64dc8410e66544fd39be8975,,,,,,,decisionTrl,resources/DB.BMP,resources/DBN.BMP,Door4,0.005208333,0.0078125,1,0,0,3.4933,optionLeft,60,11705,6,6,0,6,0,1,,,,,,,,,,,,,,,,,,,,,,,,,,,,,,,,,,,,,,,
,,,,,,,,2023-08-16_09h09.13.517,HF_wild_card,2022.2.4,Win32,60.00960154,63e6378e04ade071ebf9ff9c,64d2fd46c836a06233681665,64dc8410e66544fd39be8975,,,,,,,ctch,resources/DR.BMP,resources/DB.BMP,Door4,0.213541667,0.00390625,1,0,0,0.8451,optionRight,60,11765,6,7,0,7,0,1,,,,,,,,,,,,,,,,,,,,,,,,,,,,,,,,,,,,,,,
,,,,,,,,2023-08-16_09h09.13.517,HF_wild_card,2022.2.4,Win32,60.00960154,63e6378e04ade071ebf9ff9c,64d2fd46c836a06233681665,64dc8410e66544fd39be8975,,,,,,,sngl,resources/Empty.png,resources/DG.BMP,WildCard_Ex,0.192708333,0.046875,1,0,0,1.2745,optionRight,45,11810,6,8,0,8,0,1,,,,,,,,,,,,,,,,,,,,,,,,,,,,,,,,,,,,,,,
,,,,,,,,2023-08-16_09h09.13.517,HF_wild_card,2022.2.4,Win32,60.00960154,63e6378e04ade071ebf9ff9c,64d2fd46c836a06233681665,64dc8410e66544fd39be8975,,,,,,,decisionTrl,resources/DB.BMP,resources/DG.BMP,Door4,-0.470052083,0.16015625,1,0,0,0.9767,optionLeft,80,11890,6,9,0,9,0,1,,,,,,,,,,,,,,,,,,,,,,,,,,,,,,,,,,,,,,,
,,,,,,,,2023-08-16_09h09.13.517,HF_wild_card,2022.2.4,Win32,60.00960154,63e6378e04ade071ebf9ff9c,64d2fd46c836a06233681665,64dc8410e66544fd39be8975,,,,,,,decisionTrl,resources/DR.BMP,resources/DP.BMP,Door1,-0.248697917,0.127604167,1,0,0,1.242,optionLeft,30,11920,6,10,0,10,0,1,,,,,,,,,,,,,,,,,,,,,,,,,,,,,,,,,,,,,,,
,,,,,,,,2023-08-16_09h09.13.517,HF_wild_card,2022.2.4,Win32,60.00960154,63e6378e04ade071ebf9ff9c,64d2fd46c836a06233681665,64dc8410e66544fd39be8975,,,,,,,ctch,resources/DBN.BMP,resources/DP.BMP,Door3,-0.295572917,0.115885417,1,0,0,1.222,optionLeft,70,11990,6,11,0,11,0,1,,,,,,,,,,,,,,,,,,,,,,,,,,,,,,,,,,,,,,,
,,,,,,,,2023-08-16_09h09.13.517,HF_wild_card,2022.2.4,Win32,60.00960154,63e6378e04ade071ebf9ff9c,64d2fd46c836a06233681665,64dc8410e66544fd39be8975,,,,,,,decisionTrl,resources/DG.BMP,resources/DP.BMP,WildCard_Ex,-0.360677083,0.02734375,1,0,0,1.4258,optionLeft,45,12035,6,12,0,12,0,1,,,,,,,,,,,,,,,,,,,,,,,,,,,,,,,,,,,,,,,
,,,,,,,,2023-08-16_09h09.13.517,HF_wild_card,2022.2.4,Win32,60.00960154,63e6378e04ade071ebf9ff9c,64d2fd46c836a06233681665,64dc8410e66544fd39be8975,,,,,,,decisionTrl,resources/DB.BMP,resources/DBN.BMP,Door4,-0.333333333,0.0703125,1,0,0,6.2214,optionLeft,80,12115,6,13,0,13,0,1,,,,,,,,,,,,,,,,,,,,,,,,,,,,,,,,,,,,,,,
,,,,,,,,2023-08-16_09h09.13.517,HF_wild_card,2022.2.4,Win32,60.00960154,63e6378e04ade071ebf9ff9c,64d2fd46c836a06233681665,64dc8410e66544fd39be8975,,,,,,,sngl,resources/Empty.png,resources/DB.BMP,Door4,0.368489583,-0.014322917,1,0,0,1.511,optionRight,80,12195,6,14,0,14,0,1,,,,,,,,,,,,,,,,,,,,,,,,,,,,,,,,,,,,,,,
,,,,,,,,2023-08-16_09h09.13.517,HF_wild_card,2022.2.4,Win32,60.00960154,63e6378e04ade071ebf9ff9c,64d2fd46c836a06233681665,64dc8410e66544fd39be8975,,,,,,,sngl,resources/Empty.png,resources/DBN.BMP,Door3,0.30078125,-0.033854167,1,0,0,1.2244,optionRight,70,12265,6,15,0,15,0,1,,,,,,,,,,,,,,,,,,,,,,,,,,,,,,,,,,,,,,,
,,,,,,,,2023-08-16_09h09.13.517,HF_wild_card,2022.2.4,Win32,60.00960154,63e6378e04ade071ebf9ff9c,64d2fd46c836a06233681665,64dc8410e66544fd39be8975,,,,,,,decisionTrl,resources/DR.BMP,resources/DP.BMP,Door1,-0.3203125,0.03125,1,0,0,1.4279,optionLeft,30,12295,6,16,0,16,0,1,,,,,,,,,,,,,,,,,,,,,,,,,,,,,,,,,,,,,,,
,,,,,,,,2023-08-16_09h09.13.517,HF_wild_card,2022.2.4,Win32,60.00960154,63e6378e04ade071ebf9ff9c,64d2fd46c836a06233681665,64dc8410e66544fd39be8975,,,,,,,decisionTrl,resources/DP.BMP,resources/DR.BMP,Door1,0.264322917,0.053385417,1,0,0,3.2596,optionRight,30,12325,6,17,0,17,0,1,,,,,,,,,,,,,,,,,,,,,,,,,,,,,,,,,,,,,,,
,,,,,,,,2023-08-16_09h09.13.517,HF_wild_card,2022.2.4,Win32,60.00960154,63e6378e04ade071ebf9ff9c,64d2fd46c836a06233681665,64dc8410e66544fd39be8975,,,,,,,sngl,resources/Empty.png,resources/DR.BMP,Door1,0.307291667,0.141927083,1,0,0,2.3333,optionRight,30,12355,6,18,0,18,0,1,,,,,,,,,,,,,,,,,,,,,,,,,,,,,,,,,,,,,,,
,,,,,,,,2023-08-16_09h09.13.517,HF_wild_card,2022.2.4,Win32,60.00960154,63e6378e04ade071ebf9ff9c,64d2fd46c836a06233681665,64dc8410e66544fd39be8975,,,,,,,decisionTrl,resources/DBN.BMP,resources/DG.BMP,Door3,-0.377604167,0.127604167,1,0,0,6.3063,optionLeft,70,12425,6,19,0,19,0,1,,,,,,,,,,,,,,,,,,,,,,,,,,,,,,,,,,,,,,,
,,,,,,,,2023-08-16_09h09.13.517,HF_wild_card,2022.2.4,Win32,60.00960154,63e6378e04ade071ebf9ff9c,64d2fd46c836a06233681665,64dc8410e66544fd39be8975,,,,,,,decisionTrl,resources/DR.BMP,resources/DP.BMP,Door1,-0.3515625,0.033854167,1,0,0,4.5175,optionLeft,30,12455,6,20,0,20,0,1,,,,,,,,,,,,,,,,,,,,,,,,,,,,,,,,,,,,,,,
,,,,,,,,2023-08-16_09h09.13.517,HF_wild_card,2022.2.4,Win32,60.00960154,63e6378e04ade071ebf9ff9c,64d2fd46c836a06233681665,64dc8410e66544fd39be8975,,,,,,,ctch,resources/DP.BMP,resources/DBN.BMP,Door3,0.388020833,0.002604167,1,0,0,1.0255,optionRight,70,12525,6,21,0,21,0,1,,,,,,,,,,,,,,,,,,,,,,,,,,,,,,,,,,,,,,,
,,,,,,,,2023-08-16_09h09.13.517,HF_wild_card,2022.2.4,Win32,60.00960154,63e6378e04ade071ebf9ff9c,64d2fd46c836a06233681665,64dc8410e66544fd39be8975,,,,,,,decisionTrl,resources/DP.BMP,resources/DG.BMP,WildCard_Ex,0.197916667,0.020833333,1,0,0,1.246,optionRight,55,12580,6,22,0,22,0,1,,,,,,,,,,,,,,,,,,,,,,,,,,,,,,,,,,,,,,,
,,,,,,,,2023-08-16_09h09.13.517,HF_wild_card,2022.2.4,Win32,60.00960154,63e6378e04ade071ebf9ff9c,64d2fd46c836a06233681665,64dc8410e66544fd39be8975,,,,,,,decisionTrl,resources/DG.BMP,resources/DR.BMP,Door1,0.22265625,0.048177083,1,0,0,1.4624,optionRight,30,12610,6,23,0,23,0,1,,,,,,,,,,,,,,,,,,,,,,,,,,,,,,,,,,,,,,,
,,,,,,,,2023-08-16_09h09.13.517,HF_wild_card,2022.2.4,Win32,60.00960154,63e6378e04ade071ebf9ff9c,64d2fd46c836a06233681665,64dc8410e66544fd39be8975,,,,,,,decisionTrl,resources/DBN.BMP,resources/DB.BMP,Door3,-0.19140625,0.0703125,1,0,0,1.0145,optionLeft,70,12680,6,24,0,24,0,1,,,,,,,,,,,,,,,,,,,,,,,,,,,,,,,,,,,,,,,
,,,,,,,,2023-08-16_09h09.13.517,HF_wild_card,2022.2.4,Win32,60.00960154,63e6378e04ade071ebf9ff9c,64d2fd46c836a06233681665,64dc8410e66544fd39be8975,,,,,,,decisionTrl,resources/DR.BMP,resources/DP.BMP,Door2,0.295572917,-0.0078125,1,0,0,0.6246,optionRight,20,12700,6,25,0,25,0,1,,,,,,,,,,,,,,,,,,,,,,,,,,,,,,,,,,,,,,,
,,,,,,,,2023-08-16_09h09.13.517,HF_wild_card,2022.2.4,Win32,60.00960154,63e6378e04ade071ebf9ff9c,64d2fd46c836a06233681665,64dc8410e66544fd39be8975,,,,,,,decisionTrl,resources/DR.BMP,resources/DG.BMP,Door1,-0.315104167,0.078125,1,0,0,1.0472,optionLeft,30,12730,6,26,0,26,0,1,,,,,,,,,,,,,,,,,,,,,,,,,,,,,,,,,,,,,,,
,,,,,,,,2023-08-16_09h09.13.517,HF_wild_card,2022.2.4,Win32,60.00960154,63e6378e04ade071ebf9ff9c,64d2fd46c836a06233681665,64dc8410e66544fd39be8975,,,,,,,decisionTrl,resources/DP.BMP,resources/DR.BMP,Door1,0.333333333,0.0703125,1,0,0,1.5532,optionRight,30,12760,6,27,0,27,0,1,,,,,,,,,,,,,,,,,,,,,,,,,,,,,,,,,,,,,,,
,,,,,,,,2023-08-16_09h09.13.517,HF_wild_card,2022.2.4,Win32,60.00960154,63e6378e04ade071ebf9ff9c,64d2fd46c836a06233681665,64dc8410e66544fd39be8975,,,,,,,ctch,resources/DB.BMP,resources/DR.BMP,Door4,-0.201822917,0.10546875,1,0,0,0.9332,optionLeft,60,12820,6,28,0,28,0,1,,,,,,,,,,,,,,,,,,,,,,,,,,,,,,,,,,,,,,,
,,,,,,,,2023-08-16_09h09.13.517,HF_wild_card,2022.2.4,Win32,60.00960154,63e6378e04ade071ebf9ff9c,64d2fd46c836a06233681665,64dc8410e66544fd39be8975,,,,,,,sngl,resources/DBN.BMP,resources/Empty.png,Door3,-0.194010417,0.045572917,1,0,0,0.975,optionLeft,70,12890,6,29,0,29,0,1,,,,,,,,,,,,,,,,,,,,,,,,,,,,,,,,,,,,,,,
,,,,,,,,2023-08-16_09h09.13.517,HF_wild_card,2022.2.4,Win32,60.00960154,63e6378e04ade071ebf9ff9c,64d2fd46c836a06233681665,64dc8410e66544fd39be8975,,,,,,,decisionTrl,resources/DBN.BMP,resources/DB.BMP,Door4,0.3046875,0.014322917,1,0,0,0.9142,optionRight,80,12970,6,30,0,30,0,1,,,,,,,,,,,,,,,,,,,,,,,,,,,,,,,,,,,,,,,
,,,,,,,,2023-08-16_09h09.13.517,HF_wild_card,2022.2.4,Win32,60.00960154,63e6378e04ade071ebf9ff9c,64d2fd46c836a06233681665,64dc8410e66544fd39be8975,,,,,,,sngl,resources/DG.BMP,resources/Empty.png,WildCard_Ex,-0.235677083,0.005208333,1,0,0,1.349,optionLeft,55,13025,6,31,0,31,0,1,,,,,,,,,,,,,,,,,,,,,,,,,,,,,,,,,,,,,,,
,,,,,,,,2023-08-16_09h09.13.517,HF_wild_card,2022.2.4,Win32,60.00960154,63e6378e04ade071ebf9ff9c,64d2fd46c836a06233681665,64dc8410e66544fd39be8975,,,,,,,sngl,resources/DP.BMP,resources/Empty.png,Door2,-0.186197917,0.095052083,1,0,0,1.2333,optionLeft,20,13045,6,32,0,32,0,1,,,,,,,,,,,,,,,,,,,,,,,,,,,,,,,,,,,,,,,
,,,,,,,,2023-08-16_09h09.13.517,HF_wild_card,2022.2.4,Win32,60.00960154,63e6378e04ade071ebf9ff9c,64d2fd46c836a06233681665,64dc8410e66544fd39be8975,,,,,,,sngl,resources/Empty.png,resources/DG.BMP,WildCard_Ex,0.216145833,-0.0078125,1,0,0,0.8405,optionRight,55,13100,6,33,0,33,0,1,,,,,,,,,,,,,,,,,,,,,,,,,,,,,,,,,,,,,,,
,,,,,,,,2023-08-16_09h09.13.517,HF_wild_card,2022.2.4,Win32,60.00960154,63e6378e04ade071ebf9ff9c,64d2fd46c836a06233681665,64dc8410e66544fd39be8975,,,,,,,sngl,resources/Empty.png,resources/DP.BMP,Door2,0.296875,0.078125,1,0,0,2.4421,optionRight,40,13140,6,34,0,34,0,1,,,,,,,,,,,,,,,,,,,,,,,,,,,,,,,,,,,,,,,
,,,,,,,,2023-08-16_09h09.13.517,HF_wild_card,2022.2.4,Win32,60.00960154,63e6378e04ade071ebf9ff9c,64d2fd46c836a06233681665,64dc8410e66544fd39be8975,,,,,,,sngl,resources/DB.BMP,resources/Empty.png,Door4,-0.294270833,0.041666667,1,0,0,0.8303,optionLeft,60,13200,6,35,0,35,0,1,,,,,,,,,,,,,,,,,,,,,,,,,,,,,,,,,,,,,,,
,,,,,,,,2023-08-16_09h09.13.517,HF_wild_card,2022.2.4,Win32,60.00960154,63e6378e04ade071ebf9ff9c,64d2fd46c836a06233681665,64dc8410e66544fd39be8975,,,,,,,decisionTrl,resources/DBN.BMP,resources/DB.BMP,Door4,0.399739583,0.072916667,1,0,0,1.0754,optionRight,60,13260,6,36,0,36,0,1,,,,,,,,,,,,,,,,,,,,,,,,,,,,,,,,,,,,,,,
,,,,,,,,2023-08-16_09h09.13.517,HF_wild_card,2022.2.4,Win32,60.00960154,63e6378e04ade071ebf9ff9c,64d2fd46c836a06233681665,64dc8410e66544fd39be8975,,,,,,,ctch,resources/DBN.BMP,resources/DP.BMP,Door3,-0.209635417,0.052083333,1,0,0,1.2571,optionLeft,70,13330,6,37,0,37,0,1,,,,,,,,,,,,,,,,,,,,,,,,,,,,,,,,,,,,,,,
,,,,,,,,2023-08-16_09h09.13.517,HF_wild_card,2022.2.4,Win32,60.00960154,63e6378e04ade071ebf9ff9c,64d2fd46c836a06233681665,64dc8410e66544fd39be8975,,,,,,,ctch,resources/DP.BMP,resources/DBN.BMP,Door3,0.389322917,0.029947917,1,0,0,1.0747,optionRight,70,13400,6,38,0,38,0,1,,,,,,,,,,,,,,,,,,,,,,,,,,,,,,,,,,,,,,,
,,,,,,,,2023-08-16_09h09.13.517,HF_wild_card,2022.2.4,Win32,60.00960154,63e6378e04ade071ebf9ff9c,64d2fd46c836a06233681665,64dc8410e66544fd39be8975,,,,,,,decisionTrl,resources/DP.BMP,resources/DR.BMP,Door1,0.265625,0.057291667,1,0,0,2.3897,optionRight,30,13430,6,39,0,39,0,1,,,,,,,,,,,,,,,,,,,,,,,,,,,,,,,,,,,,,,,
,,,,,,,,2023-08-16_09h09.13.517,HF_wild_card,2022.2.4,Win32,60.00960154,63e6378e04ade071ebf9ff9c,64d2fd46c836a06233681665,64dc8410e66544fd39be8975,,,,,,,decisionTrl,resources/DG.BMP,resources/DB.BMP,Door4,0.384114583,0.01953125,1,0,0,1.0193,optionRight,60,13490,6,40,0,40,0,1,,,,,,,,,,,,,,,,,,,,,,,,,,,,,,,,,,,,,,,
,,,,,,,,2023-08-16_09h09.13.517,HF_wild_card,2022.2.4,Win32,60.00960154,63e6378e04ade071ebf9ff9c,64d2fd46c836a06233681665,64dc8410e66544fd39be8975,,,,,,,decisionTrl,resources/DB.BMP,resources/DBN.BMP,Door4,-0.388020833,0.083333333,1,0,0,1.5424,optionLeft,60,13550,6,41,0,41,0,1,,,,,,,,,,,,,,,,,,,,,,,,,,,,,,,,,,,,,,,
,,,,,,,,2023-08-16_09h09.13.517,HF_wild_card,2022.2.4,Win32,60.00960154,63e6378e04ade071ebf9ff9c,64d2fd46c836a06233681665,64dc8410e66544fd39be8975,,,,,,,decisionTrl,resources/DG.BMP,resources/DBN.BMP,Door3,0.32421875,0.005208333,1,0,0,1.1421,optionRight,70,13620,6,42,0,42,0,1,,,,,,,,,,,,,,,,,,,,,,,,,,,,,,,,,,,,,,,
,,,,,,,,2023-08-16_09h09.13.517,HF_wild_card,2022.2.4,Win32,60.00960154,63e6378e04ade071ebf9ff9c,64d2fd46c836a06233681665,64dc8410e66544fd39be8975,,,,,,,sngl,resources/DR.BMP,resources/Empty.png,Door1,-0.265625,0.061197917,1,0,0,1.0051,optionLeft,30,13650,6,43,0,43,0,1,,,,,,,,,,,,,,,,,,,,,,,,,,,,,,,,,,,,,,,
,,,,,,,,2023-08-16_09h09.13.517,HF_wild_card,2022.2.4,Win32,60.00960154,63e6378e04ade071ebf9ff9c,64d2fd46c836a06233681665,64dc8410e66544fd39be8975,,,,,,,,,,,,,,,,,,,,,,,,,,5,0,5,0,1,,,,,,,,,,,,,,,,,,,,,,,,,,,,,,,,,,
,,,,,,,,2023-08-16_09h09.13.517,HF_wild_card,2022.2.4,Win32,60.00960154,63e6378e04ade071ebf9ff9c,64d2fd46c836a06233681665,64dc8410e66544fd39be8975,,,,,,,decisionTrl,resources/DP.BMP,resources/DR.BMP,Door1,0.307291667,0.216145833,1,0,0,4.937,optionRight,30,13680,7,0,0,0,0,1,,,,,,,,,,,,,,,,,,,,,,,,,,,,,,,,,,,,,,,
,,,,,,,,2023-08-16_09h09.13.517,HF_wild_card,2022.2.4,Win32,60.00960154,63e6378e04ade071ebf9ff9c,64d2fd46c836a06233681665,64dc8410e66544fd39be8975,,,,,,,decisionTrl,resources/DR.BMP,resources/DP.BMP,Door1,-0.359375,0.095052083,1,0,0,5.3994,optionLeft,30,13710,7,1,0,1,0,1,,,,,,,,,,,,,,,,,,,,,,,,,,,,,,,,,,,,,,,
,,,,,,,,2023-08-16_09h09.13.517,HF_wild_card,2022.2.4,Win32,60.00960154,63e6378e04ade071ebf9ff9c,64d2fd46c836a06233681665,64dc8410e66544fd39be8975,,,,,,,ctch,resources/DP.BMP,resources/DBN.BMP,Door3,0.208333333,0.049479167,1,0,0,1.2017,optionRight,70,13780,7,2,0,2,0,1,,,,,,,,,,,,,,,,,,,,,,,,,,,,,,,,,,,,,,,
,,,,,,,,2023-08-16_09h09.13.517,HF_wild_card,2022.2.4,Win32,60.00960154,63e6378e04ade071ebf9ff9c,64d2fd46c836a06233681665,64dc8410e66544fd39be8975,,,,,,,ctch,resources/DBN.BMP,resources/DP.BMP,Door3,-0.311197917,0.0390625,1,0,0,3.3572,optionLeft,70,13850,7,3,0,3,0,1,,,,,,,,,,,,,,,,,,,,,,,,,,,,,,,,,,,,,,,
,,,,,,,,2023-08-16_09h09.13.517,HF_wild_card,2022.2.4,Win32,60.00960154,63e6378e04ade071ebf9ff9c,64d2fd46c836a06233681665,64dc8410e66544fd39be8975,,,,,,,decisionTrl,resources/DBN.BMP,resources/DB.BMP,Door4,0.247395833,0.0625,1,0,0,3.2929,optionRight,60,13910,7,4,0,4,0,1,,,,,,,,,,,,,,,,,,,,,,,,,,,,,,,,,,,,,,,
,,,,,,,,2023-08-16_09h09.13.517,HF_wild_card,2022.2.4,Win32,60.00960154,63e6378e04ade071ebf9ff9c,64d2fd46c836a06233681665,64dc8410e66544fd39be8975,,,,,,,decisionTrl,resources/DB.BMP,resources/DBN.BMP,Door4,-0.2421875,0.0625,1,0,0,3.709,optionLeft,60,13970,7,5,0,5,0,1,,,,,,,,,,,,,,,,,,,,,,,,,,,,,,,,,,,,,,,
,,,,,,,,2023-08-16_09h09.13.517,HF_wild_card,2022.2.4,Win32,60.00960154,63e6378e04ade071ebf9ff9c,64d2fd46c836a06233681665,64dc8410e66544fd39be8975,,,,,,,decisionTrl,resources/DP.BMP,resources/DR.BMP,Door1,0.466145833,0.06640625,1,0,0,1.34,optionRight,30,14000,7,6,0,6,0,1,,,,,,,,,,,,,,,,,,,,,,,,,,,,,,,,,,,,,,,
,,,,,,,,2023-08-16_09h09.13.517,HF_wild_card,2022.2.4,Win32,60.00960154,63e6378e04ade071ebf9ff9c,64d2fd46c836a06233681665,64dc8410e66544fd39be8975,,,,,,,decisionTrl,resources/DP.BMP,resources/DR.BMP,Door2,-0.290364583,0.057291667,1,0,0,0.8488,optionLeft,40,14040,7,7,0,7,0,1,,,,,,,,,,,,,,,,,,,,,,,,,,,,,,,,,,,,,,,
,,,,,,,,2023-08-16_09h09.13.517,HF_wild_card,2022.2.4,Win32,60.00960154,63e6378e04ade071ebf9ff9c,64d2fd46c836a06233681665,64dc8410e66544fd39be8975,,,,,,,decisionTrl,resources/DBN.BMP,resources/DB.BMP,Door4,0.37109375,0.044270833,1,0,0,1.1176,optionRight,60,14100,7,8,0,8,0,1,,,,,,,,,,,,,,,,,,,,,,,,,,,,,,,,,,,,,,,
,,,,,,,,2023-08-16_09h09.13.517,HF_wild_card,2022.2.4,Win32,60.00960154,63e6378e04ade071ebf9ff9c,64d2fd46c836a06233681665,64dc8410e66544fd39be8975,,,,,,,ctch,resources/DR.BMP,resources/DB.BMP,Door4,0.268229167,0.006510417,1,0,0,0.9488,optionRight,80,14180,7,9,0,9,0,1,,,,,,,,,,,,,,,,,,,,,,,,,,,,,,,,,,,,,,,
,,,,,,,,2023-08-16_09h09.13.517,HF_wild_card,2022.2.4,Win32,60.00960154,63e6378e04ade071ebf9ff9c,64d2fd46c836a06233681665,64dc8410e66544fd39be8975,,,,,,,ctch,resources/DR.BMP,resources/DB.BMP,Door4,0.3984375,0.01953125,1,0,0,1.0777,optionRight,60,14240,7,10,0,10,0,1,,,,,,,,,,,,,,,,,,,,,,,,,,,,,,,,,,,,,,,
,,,,,,,,2023-08-16_09h09.13.517,HF_wild_card,2022.2.4,Win32,60.00960154,63e6378e04ade071ebf9ff9c,64d2fd46c836a06233681665,64dc8410e66544fd39be8975,,,,,,,decisionTrl,resources/DBN.BMP,resources/DB.BMP,Door4,0.463541667,0.006510417,1,0,0,0.8421,optionRight,60,14300,7,11,0,11,0,1,,,,,,,,,,,,,,,,,,,,,,,,,,,,,,,,,,,,,,,
,,,,,,,,2023-08-16_09h09.13.517,HF_wild_card,2022.2.4,Win32,60.00960154,63e6378e04ade071ebf9ff9c,64d2fd46c836a06233681665,64dc8410e66544fd39be8975,,,,,,,ctch,resources/DP.BMP,resources/DBN.BMP,Door3,0.265625,0.01171875,1,0,0,0.9982,optionRight,70,14370,7,12,0,12,0,1,,,,,,,,,,,,,,,,,,,,,,,,,,,,,,,,,,,,,,,
,,,,,,,,2023-08-16_09h09.13.517,HF_wild_card,2022.2.4,Win32,60.00960154,63e6378e04ade071ebf9ff9c,64d2fd46c836a06233681665,64dc8410e66544fd39be8975,,,,,,,ctch,resources/DBN.BMP,resources/DP.BMP,Door3,-0.373697917,0.08203125,1,0,0,0.991,optionLeft,70,14440,7,13,0,13,0,1,,,,,,,,,,,,,,,,,,,,,,,,,,,,,,,,,,,,,,,
,,,,,,,,2023-08-16_09h09.13.517,HF_wild_card,2022.2.4,Win32,60.00960154,63e6378e04ade071ebf9ff9c,64d2fd46c836a06233681665,64dc8410e66544fd39be8975,,,,,,,decisionTrl,resources/DB.BMP,resources/DBN.BMP,Door4,-0.28515625,-0.026041667,1,0,0,3.4715,optionLeft,80,14520,7,14,0,14,0,1,,,,,,,,,,,,,,,,,,,,,,,,,,,,,,,,,,,,,,,
,,,,,,,,2023-08-16_09h09.13.517,HF_wild_card,2022.2.4,Win32,60.00960154,63e6378e04ade071ebf9ff9c,64d2fd46c836a06233681665,64dc8410e66544fd39be8975,,,,,,,ctch,resources/DB.BMP,resources/DR.BMP,Door4,-0.369791667,-0.005208333,1,0,0,9.0709,optionLeft,80,14600,7,15,0,15,0,1,,,,,,,,,,,,,,,,,,,,,,,,,,,,,,,,,,,,,,,
,,,,,,,,2023-08-16_09h09.13.517,HF_wild_card,2022.2.4,Win32,60.00960154,63e6378e04ade071ebf9ff9c,64d2fd46c836a06233681665,64dc8410e66544fd39be8975,,,,,,,decisionTrl,resources/DR.BMP,resources/DP.BMP,Door1,-0.345052083,0.0390625,1,0,0,4.7099,optionLeft,30,14630,7,16,0,16,0,1,,,,,,,,,,,,,,,,,,,,,,,,,,,,,,,,,,,,,,,
,,,,,,,,2023-08-16_09h09.13.517,HF_wild_card,2022.2.4,Win32,60.00960154,63e6378e04ade071ebf9ff9c,64d2fd46c836a06233681665,64dc8410e66544fd39be8975,,,,,,,decisionTrl,resources/DB.BMP,resources/DBN.BMP,Door4,-0.229166667,0.037760417,1,0,0,1.2128,optionLeft,80,14710,7,17,0,17,0,1,,,,,,,,,,,,,,,,,,,,,,,,,,,,,,,,,,,,,,,
,,,,,,,,2023-08-16_09h09.13.517,HF_wild_card,2022.2.4,Win32,60.00960154,63e6378e04ade071ebf9ff9c,64d2fd46c836a06233681665,64dc8410e66544fd39be8975,,,,,,,decisionTrl,resources/DP.BMP,resources/DR.BMP,Door1,0.21484375,0.0390625,1,0,0,2.3745,optionRight,30,14740,7,18,0,18,0,1,,,,,,,,,,,,,,,,,,,,,,,,,,,,,,,,,,,,,,,
,,,,,,,,2023-08-16_09h09.13.517,HF_wild_card,2022.2.4,Win32,60.00960154,63e6378e04ade071ebf9ff9c,64d2fd46c836a06233681665,64dc8410e66544fd39be8975,,,,,,,decisionTrl,resources/DR.BMP,resources/DP.BMP,Door1,-0.424479167,-0.014322917,1,0,0,1.7413,optionLeft,30,14770,7,19,0,19,0,1,,,,,,,,,,,,,,,,,,,,,,,,,,,,,,,,,,,,,,,
,,,,,,,,2023-08-16_09h09.13.517,HF_wild_card,2022.2.4,Win32,60.00960154,63e6378e04ade071ebf9ff9c,64d2fd46c836a06233681665,64dc8410e66544fd39be8975,,,,,,,ctch,resources/DP.BMP,resources/DBN.BMP,Door3,0.3125,0.010416667,1,0,0,1.1621,optionRight,70,14840,7,20,0,20,0,1,,,,,,,,,,,,,,,,,,,,,,,,,,,,,,,,,,,,,,,
,,,,,,,,2023-08-16_09h09.13.517,HF_wild_card,2022.2.4,Win32,60.00960154,63e6378e04ade071ebf9ff9c,64d2fd46c836a06233681665,64dc8410e66544fd39be8975,,,,,,,ctch,resources/DBN.BMP,resources/DP.BMP,Door3,-0.283854167,0.080729167,1,0,0,2.0733,optionLeft,70,14910,7,21,0,21,0,1,,,,,,,,,,,,,,,,,,,,,,,,,,,,,,,,,,,,,,,
,,,,,,,,2023-08-16_09h09.13.517,HF_wild_card,2022.2.4,Win32,60.00960154,63e6378e04ade071ebf9ff9c,64d2fd46c836a06233681665,64dc8410e66544fd39be8975,,,,,,,decisionTrl,resources/DBN.BMP,resources/DB.BMP,Door4,0.005208333,0.006510417,1,0,0,1.3283,optionRight,80,14990,7,22,0,22,0,1,,,,,,,,,,,,,,,,,,,,,,,,,,,,,,,,,,,,,,,
,,,,,,,,2023-08-16_09h09.13.517,HF_wild_card,2022.2.4,Win32,60.00960154,63e6378e04ade071ebf9ff9c,64d2fd46c836a06233681665,64dc8410e66544fd39be8975,,,,,,,decisionTrl,resources/DR.BMP,resources/DP.BMP,Door1,-0.2421875,0.022135417,1,0,0,1.0978,optionLeft,30,15020,7,23,0,23,0,1,,,,,,,,,,,,,,,,,,,,,,,,,,,,,,,,,,,,,,,
,,,,,,,,2023-08-16_09h09.13.517,HF_wild_card,2022.2.4,Win32,60.00960154,63e6378e04ade071ebf9ff9c,64d2fd46c836a06233681665,64dc8410e66544fd39be8975,,,,,,,decisionTrl,resources/DBN.BMP,resources/DB.BMP,Door4,0.25,0.036458333,1,0,0,1.2131,optionRight,60,15080,7,24,0,24,0,1,,,,,,,,,,,,,,,,,,,,,,,,,,,,,,,,,,,,,,,
,,,,,,,,2023-08-16_09h09.13.517,HF_wild_card,2022.2.4,Win32,60.00960154,63e6378e04ade071ebf9ff9c,64d2fd46c836a06233681665,64dc8410e66544fd39be8975,,,,,,,decisionTrl,resources/DP.BMP,resources/DR.BMP,Door1,0.263020833,0.053385417,1,0,0,1.2125,optionRight,30,15110,7,25,0,25,0,1,,,,,,,,,,,,,,,,,,,,,,,,,,,,,,,,,,,,,,,
,,,,,,,,2023-08-16_09h09.13.517,HF_wild_card,2022.2.4,Win32,60.00960154,63e6378e04ade071ebf9ff9c,64d2fd46c836a06233681665,64dc8410e66544fd39be8975,,,,,,,ctch,resources/DB.BMP,resources/DR.BMP,Door4,-0.135416667,0.040364583,1,0,0,1.3958,optionLeft,80,15190,7,26,0,26,0,1,,,,,,,,,,,,,,,,,,,,,,,,,,,,,,,,,,,,,,,
,,,,,,,,2023-08-16_09h09.13.517,HF_wild_card,2022.2.4,Win32,60.00960154,63e6378e04ade071ebf9ff9c,64d2fd46c836a06233681665,64dc8410e66544fd39be8975,,,,,,,decisionTrl,resources/DR.BMP,resources/DP.BMP,Door1,-0.2265625,0.091145833,1,0,0,1.4284,optionLeft,30,15220,7,27,0,27,0,1,,,,,,,,,,,,,,,,,,,,,,,,,,,,,,,,,,,,,,,
,,,,,,,,2023-08-16_09h09.13.517,HF_wild_card,2022.2.4,Win32,60.00960154,63e6378e04ade071ebf9ff9c,64d2fd46c836a06233681665,64dc8410e66544fd39be8975,,,,,,,ctch,resources/DR.BMP,resources/DB.BMP,Door4,0.513020833,0.053385417,1,0,0,1.0777,optionRight,80,15300,7,28,0,28,0,1,,,,,,,,,,,,,,,,,,,,,,,,,,,,,,,,,,,,,,,
,,,,,,,,2023-08-16_09h09.13.517,HF_wild_card,2022.2.4,Win32,60.00960154,63e6378e04ade071ebf9ff9c,64d2fd46c836a06233681665,64dc8410e66544fd39be8975,,,,,,,decisionTrl,resources/DP.BMP,resources/DR.BMP,Door1,0.3515625,0.040364583,1,0,0,1.0161,optionRight,30,15330,7,29,0,29,0,1,,,,,,,,,,,,,,,,,,,,,,,,,,,,,,,,,,,,,,,
,,,,,,,,2023-08-16_09h09.13.517,HF_wild_card,2022.2.4,Win32,60.00960154,63e6378e04ade071ebf9ff9c,64d2fd46c836a06233681665,64dc8410e66544fd39be8975,,,,,,,decisionTrl,resources/DBN.BMP,resources/DB.BMP,Door4,0.485677083,-0.001302083,1,0,0,1.6466,optionRight,60,15390,7,30,0,30,0,1,,,,,,,,,,,,,,,,,,,,,,,,,,,,,,,,,,,,,,,
,,,,,,,,2023-08-16_09h09.13.517,HF_wild_card,2022.2.4,Win32,60.00960154,63e6378e04ade071ebf9ff9c,64d2fd46c836a06233681665,64dc8410e66544fd39be8975,,,,,,,decisionTrl,resources/DB.BMP,resources/DBN.BMP,Door4,-0.233072917,0.014322917,1,0,0,1.333,optionLeft,80,15470,7,31,0,31,0,1,,,,,,,,,,,,,,,,,,,,,,,,,,,,,,,,,,,,,,,
,,,,,,,,2023-08-16_09h09.13.517,HF_wild_card,2022.2.4,Win32,60.00960154,63e6378e04ade071ebf9ff9c,64d2fd46c836a06233681665,64dc8410e66544fd39be8975,,,,,,,decisionTrl,resources/DR.BMP,resources/DP.BMP,Door1,-0.342447917,0.020833333,1,0,0,1.2471,optionLeft,30,15500,7,32,0,32,0,1,,,,,,,,,,,,,,,,,,,,,,,,,,,,,,,,,,,,,,,
,,,,,,,,2023-08-16_09h09.13.517,HF_wild_card,2022.2.4,Win32,60.00960154,63e6378e04ade071ebf9ff9c,64d2fd46c836a06233681665,64dc8410e66544fd39be8975,,,,,,,decisionTrl,resources/DB.BMP,resources/DBN.BMP,Door4,-0.16796875,0.022135417,1,0,0,1.3803,optionLeft,80,15580,7,33,0,33,0,1,,,,,,,,,,,,,,,,,,,,,,,,,,,,,,,,,,,,,,,
,,,,,,,,2023-08-16_09h09.13.517,HF_wild_card,2022.2.4,Win32,60.00960154,63e6378e04ade071ebf9ff9c,64d2fd46c836a06233681665,64dc8410e66544fd39be8975,,,,,,,decisionTrl,resources/DB.BMP,resources/DBN.BMP,Door4,-0.1875,0.02734375,1,0,0,1.2799,optionLeft,80,15660,7,34,0,34,0,1,,,,,,,,,,,,,,,,,,,,,,,,,,,,,,,,,,,,,,,
,,,,,,,,2023-08-16_09h09.13.517,HF_wild_card,2022.2.4,Win32,60.00960154,63e6378e04ade071ebf9ff9c,64d2fd46c836a06233681665,64dc8410e66544fd39be8975,,,,,,,ctch,resources/DB.BMP,resources/DR.BMP,Door4,-0.231770833,0.005208333,1,0,0,1.2298,optionLeft,80,15740,7,35,0,35,0,1,,,,,,,,,,,,,,,,,,,,,,,,,,,,,,,,,,,,,,,
,,,,,,,,2023-08-16_09h09.13.517,HF_wild_card,2022.2.4,Win32,60.00960154,63e6378e04ade071ebf9ff9c,64d2fd46c836a06233681665,64dc8410e66544fd39be8975,,,,,,,,,,,,,,,,,,,,,,,,,,6,0,6,0,1,,,,,,,,,,,,,,,,,,,,,,,,,,,,,,,,,,
,,,,,,,,2023-08-16_09h09.13.517,HF_wild_card,2022.2.4,Win32,60.00960154,63e6378e04ade071ebf9ff9c,64d2fd46c836a06233681665,64dc8410e66544fd39be8975,,,,,,,,,,,,,,,,,,,,,,,,,,,,,,,3,,,,,,,,,,,,,,,,,,,,,,,,,,,,,,,,,
,,,,,,,,2023-08-16_09h09.13.517,HF_wild_card,2022.2.4,Win32,60.00960154,63e6378e04ade071ebf9ff9c,64d2fd46c836a06233681665,64dc8410e66544fd39be8975,,,,,,,,,,,,,,,,,,,,,,,,,,,,,,,,,,,,,,,,,,,,,,,,,,,,,,,,,,,,,,,,
,,,,,,,,2023-08-16_09h09.13.517,HF_wild_card,2022.2.4,Win32,60.00960154,63e6378e04ade071ebf9ff9c,64d2fd46c836a06233681665,64dc8410e66544fd39be8975,,,,,,,,,,,,,,,,,,,,,,,,,,,,,,,,20,WC_extreme,resources/DG.BMP,0,0,0,0,1,,,,,,,,,,,,,,,,,,,,,,,,,
,,,,,,,,2023-08-16_09h09.13.517,HF_wild_card,2022.2.4,Win32,60.00960154,63e6378e04ade071ebf9ff9c,64d2fd46c836a06233681665,64dc8410e66544fd39be8975,,,,,,,,,,,,,,,,,,,,,,,,,,,,,,,,30,WC_nonExtreme,resources/DY.BMP,1,0,1,0,1,,,,,,,,,,,,,,,,,,,,,,,,,
,,,,,,,,2023-08-16_09h09.13.517,HF_wild_card,2022.2.4,Win32,60.00960154,63e6378e04ade071ebf9ff9c,64d2fd46c836a06233681665,64dc8410e66544fd39be8975,,,,,,,,,,,,,,,,,,,,,,,,,,,,,,,,20,Door2,resources/DP.BMP,2,0,2,0,1,,,,,,,,,,,,,,,,,,,,,,,,,
,,,,,,,,2023-08-16_09h09.13.517,HF_wild_card,2022.2.4,Win32,60.00960154,63e6378e04ade071ebf9ff9c,64d2fd46c836a06233681665,64dc8410e66544fd39be8975,,,,,,,,,,,,,,,,,,,,,,,,,,,,,,,,70,Door3,resources/DBN.BMP,3,0,3,0,1,,,,,,,,,,,,,,,,,,,,,,,,,
,,,,,,,,2023-08-16_09h09.13.517,HF_wild_card,2022.2.4,Win32,60.00960154,63e6378e04ade071ebf9ff9c,64d2fd46c836a06233681665,64dc8410e66544fd39be8975,,,,,,,,,,,,,,,,,,,,,,,,,,,,,,,,80,Door4,resources/DB.BMP,4,0,4,0,1,,,,,,,,,,,,,,,,,,,,,,,,,
,,,,,,,,2023-08-16_09h09.13.517,HF_wild_card,2022.2.4,Win32,60.00960154,63e6378e04ade071ebf9ff9c,64d2fd46c836a06233681665,64dc8410e66544fd39be8975,,,,,,,,,,,,,,,,,,,,,,,,,,,,,,,,20,Door1,resources/DR.BMP,5,0,5,0,1,,,,,,,,,,,,,,,,,,,,,,,,,
,,,,,,,,2023-08-16_09h09.13.517,HF_wild_card,2022.2.4,Win32,60.00960154,63e6378e04ade071ebf9ff9c,64d2fd46c836a06233681665,64dc8410e66544fd39be8975,,,,,,,,,,,,,,,,,,,,,,,,,,,,,,,,,,,,,,,,,,,,,,,,,,,,,,,,,,,,,,,,
,,,,,,,,2023-08-16_09h09.13.517,HF_wild_card,2022.2.4,Win32,60.00960154,63e6378e04ade071ebf9ff9c,64d2fd46c836a06233681665,64dc8410e66544fd39be8975,,,,,,,,,,,,,,,,,,,,,,,,,,,,,,,,,,,,,,,,0,0,0,0,1,,,,,,,,,,,,,,,,,,,,
,,,,,,,,2023-08-16_09h09.13.517,HF_wild_card,2022.2.4,Win32,60.00960154,63e6378e04ade071ebf9ff9c,64d2fd46c836a06233681665,64dc8410e66544fd39be8975,,,,,,,,,,,,,,,,,,,,,,,,,,,,,,,,,,,,,,,,1,0,1,0,1,,,,,,,,,,,,,,,,,,,,
