Condition,Low fixed image (Door1),Low risky image (Door2),High fixed image (Door3),High risky image (Door4),NonExtreme Wild Card 1,NonExtreme Wild Card 2,,date,expName,psychopyVersion,OS,frameRate,PROLIFIC_PID,STUDY_ID,SESSION_ID,mouse_2.x,mouse_2.y,mouse_2.leftButton,mouse_2.midButton,mouse_2.rightButton,mouse_2.clicked_name,Trial Type,Left Option Image,Right Option Image,Chosen Door,mouse.x,mouse.y,mouse.leftButton,mouse.midButton,mouse.rightButton,mouse.time,mouse.clicked_name,Feedback,Cumulative Reward,Block,trial.thisRepN,trial.thisTrialN,trial.thisN,trial.thisIndex,trial.ran,blocks.thisRepN,blocks.thisTrialN,blocks.thisN,blocks.thisIndex,blocks.ran,Money conversion,First Outcome Reported,Shown Door (First Outcome),Displayed Image (First Outcome),outcomes.thisRepN,outcomes.thisTrialN,outcomes.thisN,outcomes.thisIndex,outcomes.ran,judgments.thisRepN,judgments.thisTrialN,judgments.thisN,judgments.thisIndex,judgments.ran,freqMouse.x,freqMouse.y,freqMouse.leftButton,freqMouse.midButton,freqMouse.rightButton,freqMouse.clicked_name,FQJ for first outcome,FQJ for second outcome,Shown Door,Displayed Image,trials.thisRepN,trials.thisTrialN,trials.thisN,trials.thisIndex,trials.ran,judgBlock.thisRepN,judgBlock.thisTrialN,judgBlock.thisN,judgBlock.thisIndex,judgBlock.ran
2,resources/DB.BMP,resources/DP.BMP,resources/DY.BMP,resources/DG.BMP,resources/DR.BMP,resources/DBN.BMP,,2023-08-06_08h22.56.840,HF_wild_card,2022.2.4,Win32,59.98080614,60deb63539c4fb727e50bd52,64ce5acb97489d65b14ecc7a,64cf494b89902ad06bf25140,,,,,,,,,,,,,,,,,,,,,,,,,,,,,,,,,,,,,,,,,,,,,,,,,,,,,,,,,,,,,,,,
,,,,,,,,2023-08-06_08h22.56.840,HF_wild_card,2022.2.4,Win32,59.98080614,60deb63539c4fb727e50bd52,64ce5acb97489d65b14ecc7a,64cf494b89902ad06bf25140,0.014784461,-0.42874836,1,0,0,agree,,,,,,,,,,,,,,,,,,,,,,,,,,,,,,,,,,,,,,,,,,,,,,,,,,,,,,,,,,
,,,,,,,,2023-08-06_08h22.56.840,HF_wild_card,2022.2.4,Win32,59.98080614,60deb63539c4fb727e50bd52,64ce5acb97489d65b14ecc7a,64cf494b89902ad06bf25140,,,,,,,,,,,,,,,,,,,,,,,,,,,,,,,,,,,,,,,,,,,,,,,,,,,,,,,,,,,,,,,,
,,,,,,,,2023-08-06_08h22.56.840,HF_wild_card,2022.2.4,Win32,59.98080614,60deb63539c4fb727e50bd52,64ce5acb97489d65b14ecc7a,64cf494b89902ad06bf25140,,,,,,,sngl,resources/DY.BMP,resources/Empty.png,Door3,-0.374690603,-0.066627601,1,0,0,4.7952,optionLeft,70,70,1,0,0,0,0,1,,,,,,,,,,,,,,,,,,,,,,,,,,,,,,,,,,,,,,,
,,,,,,,,2023-08-06_08h22.56.840,HF_wild_card,2022.2.4,Win32,59.98080614,60deb63539c4fb727e50bd52,64ce5acb97489d65b14ecc7a,64cf494b89902ad06bf25140,,,,,,,ctch,resources/DP.BMP,resources/DY.BMP,Door2,-0.378598391,-0.036667997,1,0,0,2.2565,optionLeft,40,110,1,1,0,1,0,1,,,,,,,,,,,,,,,,,,,,,,,,,,,,,,,,,,,,,,,
,,,,,,,,2023-08-06_08h22.56.840,HF_wild_card,2022.2.4,Win32,59.98080614,60deb63539c4fb727e50bd52,64ce5acb97489d65b14ecc7a,64cf494b89902ad06bf25140,,,,,,,ctch,resources/DG.BMP,resources/DB.BMP,Door1,0.419890678,0.027159035,1,0,0,1.2578,optionRight,30,140,1,2,0,2,0,1,,,,,,,,,,,,,,,,,,,,,,,,,,,,,,,,,,,,,,,
,,,,,,,,2023-08-06_08h22.56.840,HF_wild_card,2022.2.4,Win32,59.98080614,60deb63539c4fb727e50bd52,64ce5acb97489d65b14ecc7a,64cf494b89902ad06bf25140,,,,,,,sngl,resources/Empty.png,resources/DBN.BMP,WildCard_NonEx,0.492835775,0.001107183,1,0,0,2.9927,optionRight,45,185,1,3,0,3,0,1,,,,,,,,,,,,,,,,,,,,,,,,,,,,,,,,,,,,,,,
,,,,,,,,2023-08-06_08h22.56.840,HF_wild_card,2022.2.4,Win32,59.98080614,60deb63539c4fb727e50bd52,64ce5acb97489d65b14ecc7a,64cf494b89902ad06bf25140,,,,,,,sngl,resources/Empty.png,resources/DG.BMP,Door4,0.456363226,-0.011918742,1,0,0,1.453,optionRight,60,245,1,4,0,4,0,1,,,,,,,,,,,,,,,,,,,,,,,,,,,,,,,,,,,,,,,
,,,,,,,,2023-08-06_08h22.56.840,HF_wild_card,2022.2.4,Win32,59.98080614,60deb63539c4fb727e50bd52,64ce5acb97489d65b14ecc7a,64cf494b89902ad06bf25140,,,,,,,decisionTrl,resources/DG.BMP,resources/DY.BMP,Door3,0.440732073,-0.031457613,1,0,0,1.7474,optionRight,70,315,1,5,0,5,0,1,,,,,,,,,,,,,,,,,,,,,,,,,,,,,,,,,,,,,,,
,,,,,,,,2023-08-06_08h22.56.840,HF_wild_card,2022.2.4,Win32,59.98080614,60deb63539c4fb727e50bd52,64ce5acb97489d65b14ecc7a,64cf494b89902ad06bf25140,,,,,,,decisionTrl,resources/DG.BMP,resources/DY.BMP,Door3,0.38862837,-0.006708358,1,0,0,2.3648,optionRight,70,385,1,6,0,6,0,1,,,,,,,,,,,,,,,,,,,,,,,,,,,,,,,,,,,,,,,
,,,,,,,,2023-08-06_08h22.56.840,HF_wild_card,2022.2.4,Win32,59.98080614,60deb63539c4fb727e50bd52,64ce5acb97489d65b14ecc7a,64cf494b89902ad06bf25140,,,,,,,decisionTrl,resources/DY.BMP,resources/DG.BMP,Door4,0.456363226,0.04018496,1,0,0,0.9975,optionRight,80,465,1,7,0,7,0,1,,,,,,,,,,,,,,,,,,,,,,,,,,,,,,,,,,,,,,,
,,,,,,,,2023-08-06_08h22.56.840,HF_wild_card,2022.2.4,Win32,59.98080614,60deb63539c4fb727e50bd52,64ce5acb97489d65b14ecc7a,64cf494b89902ad06bf25140,,,,,,,decisionTrl,resources/DB.BMP,resources/DP.BMP,Door2,0.313078152,-0.005405833,1,0,0,1.4482,optionRight,20,485,1,8,0,8,0,1,,,,,,,,,,,,,,,,,,,,,,,,,,,,,,,,,,,,,,,
,,,,,,,,2023-08-06_08h22.56.840,HF_wild_card,2022.2.4,Win32,59.98080614,60deb63539c4fb727e50bd52,64ce5acb97489d65b14ecc7a,64cf494b89902ad06bf25140,,,,,,,ctch,resources/DY.BMP,resources/DP.BMP,Door2,0.280513285,-0.034062805,1,0,0,0.9588,optionRight,40,525,1,9,0,9,0,1,,,,,,,,,,,,,,,,,,,,,,,,,,,,,,,,,,,,,,,
,,,,,,,,2023-08-06_08h22.56.840,HF_wild_card,2022.2.4,Win32,59.98080614,60deb63539c4fb727e50bd52,64ce5acb97489d65b14ecc7a,64cf494b89902ad06bf25140,,,,,,,decisionTrl,resources/DB.BMP,resources/DP.BMP,Door2,0.413377733,-0.021036879,1,0,0,1.4588,optionRight,40,565,1,10,0,10,0,1,,,,,,,,,,,,,,,,,,,,,,,,,,,,,,,,,,,,,,,
,,,,,,,,2023-08-06_08h22.56.840,HF_wild_card,2022.2.4,Win32,59.98080614,60deb63539c4fb727e50bd52,64ce5acb97489d65b14ecc7a,64cf494b89902ad06bf25140,,,,,,,decisionTrl,resources/DY.BMP,resources/DG.BMP,Door3,-0.347336191,0.012830513,1,0,0,0.8594,optionLeft,70,635,1,11,0,11,0,1,,,,,,,,,,,,,,,,,,,,,,,,,,,,,,,,,,,,,,,
,,,,,,,,2023-08-06_08h22.56.840,HF_wild_card,2022.2.4,Win32,59.98080614,60deb63539c4fb727e50bd52,64ce5acb97489d65b14ecc7a,64cf494b89902ad06bf25140,,,,,,,decisionTrl,resources/DP.BMP,resources/DB.BMP,Door1,0.443337337,-0.101797625,1,0,0,1.0594,optionRight,30,665,1,12,0,12,0,1,,,,,,,,,,,,,,,,,,,,,,,,,,,,,,,,,,,,,,,
,,,,,,,,2023-08-06_08h22.56.840,HF_wild_card,2022.2.4,Win32,59.98080614,60deb63539c4fb727e50bd52,64ce5acb97489d65b14ecc7a,64cf494b89902ad06bf25140,,,,,,,ctch,resources/DG.BMP,resources/DB.BMP,Door4,-0.331705073,-0.021036879,1,0,0,1.1261,optionLeft,60,725,1,13,0,13,0,1,,,,,,,,,,,,,,,,,,,,,,,,,,,,,,,,,,,,,,,
,,,,,,,,2023-08-06_08h22.56.840,HF_wild_card,2022.2.4,Win32,59.98080614,60deb63539c4fb727e50bd52,64ce5acb97489d65b14ecc7a,64cf494b89902ad06bf25140,,,,,,,decisionTrl,resources/DBN.BMP,resources/DY.BMP,Door3,0.263579571,0.008922724,1,0,0,1.7697,optionRight,70,795,1,14,0,14,0,1,,,,,,,,,,,,,,,,,,,,,,,,,,,,,,,,,,,,,,,
,,,,,,,,2023-08-06_08h22.56.840,HF_wild_card,2022.2.4,Win32,59.98080614,60deb63539c4fb727e50bd52,64ce5acb97489d65b14ecc7a,64cf494b89902ad06bf25140,,,,,,,decisionTrl,resources/DY.BMP,resources/DBN.BMP,WildCard_NonEx,0.305262504,-0.032760209,1,0,0,1.6853,optionRight,45,840,1,15,0,15,0,1,,,,,,,,,,,,,,,,,,,,,,,,,,,,,,,,,,,,,,,
,,,,,,,,2023-08-06_08h22.56.840,HF_wild_card,2022.2.4,Win32,59.98080614,60deb63539c4fb727e50bd52,64ce5acb97489d65b14ecc7a,64cf494b89902ad06bf25140,,,,,,,decisionTrl,resources/DBN.BMP,resources/DG.BMP,Door4,0.507164368,-0.043180942,1,0,0,1.3419,optionRight,80,920,1,16,0,16,0,1,,,,,,,,,,,,,,,,,,,,,,,,,,,,,,,,,,,,,,,
,,,,,,,,2023-08-06_08h22.56.840,HF_wild_card,2022.2.4,Win32,59.98080614,60deb63539c4fb727e50bd52,64ce5acb97489d65b14ecc7a,64cf494b89902ad06bf25140,,,,,,,sngl,resources/Empty.png,resources/DY.BMP,Door3,-0.232708089,0.025856438,1,0,0,1.5077,optionRight,70,990,1,17,0,17,0,1,,,,,,,,,,,,,,,,,,,,,,,,,,,,,,,,,,,,,,,
,,,,,,,,2023-08-06_08h22.56.840,HF_wild_card,2022.2.4,Win32,59.98080614,60deb63539c4fb727e50bd52,64ce5acb97489d65b14ecc7a,64cf494b89902ad06bf25140,,,,,,,sngl,resources/Empty.png,resources/DBN.BMP,WildCard_NonEx,0.393838755,0.18998305,1,0,0,2.0952,optionRight,55,1045,1,18,0,18,0,1,,,,,,,,,,,,,,,,,,,,,,,,,,,,,,,,,,,,,,,
,,,,,,,,2023-08-06_08h22.56.840,HF_wild_card,2022.2.4,Win32,59.98080614,60deb63539c4fb727e50bd52,64ce5acb97489d65b14ecc7a,64cf494b89902ad06bf25140,,,,,,,sngl,resources/Empty.png,resources/DB.BMP,Door1,0.38602325,-0.045786134,1,0,0,2.3261,optionRight,30,1075,1,19,0,19,0,1,,,,,,,,,,,,,,,,,,,,,,,,,,,,,,,,,,,,,,,
,,,,,,,,2023-08-06_08h22.56.840,HF_wild_card,2022.2.4,Win32,59.98080614,60deb63539c4fb727e50bd52,64ce5acb97489d65b14ecc7a,64cf494b89902ad06bf25140,,,,,,,decisionTrl,resources/DY.BMP,resources/DG.BMP,Door3,-0.534909462,0.024553842,1,0,0,2.1838,optionLeft,70,1145,1,20,0,20,0,1,,,,,,,,,,,,,,,,,,,,,,,,,,,,,,,,,,,,,,,
,,,,,,,,2023-08-06_08h22.56.840,HF_wild_card,2022.2.4,Win32,59.98080614,60deb63539c4fb727e50bd52,64ce5acb97489d65b14ecc7a,64cf494b89902ad06bf25140,,,,,,,decisionTrl,resources/DY.BMP,resources/DG.BMP,Door4,0.310472889,-0.022339475,1,0,0,0.9447,optionRight,60,1205,1,21,0,21,0,1,,,,,,,,,,,,,,,,,,,,,,,,,,,,,,,,,,,,,,,
,,,,,,,,2023-08-06_08h22.56.840,HF_wild_card,2022.2.4,Win32,59.98080614,60deb63539c4fb727e50bd52,64ce5acb97489d65b14ecc7a,64cf494b89902ad06bf25140,,,,,,,ctch,resources/DB.BMP,resources/DG.BMP,Door4,-0.007359638,-0.00931355,1,0,0,0.2761,optionRight,60,1265,1,22,0,22,0,1,,,,,,,,,,,,,,,,,,,,,,,,,,,,,,,,,,,,,,,
,,,,,,,,2023-08-06_08h22.56.840,HF_wild_card,2022.2.4,Win32,59.98080614,60deb63539c4fb727e50bd52,64ce5acb97489d65b14ecc7a,64cf494b89902ad06bf25140,,,,,,,decisionTrl,resources/DP.BMP,resources/DBN.BMP,Door2,-0.270483198,-0.056206868,1,0,0,2.0854,optionLeft,40,1305,1,23,0,23,0,1,,,,,,,,,,,,,,,,,,,,,,,,,,,,,,,,,,,,,,,
,,,,,,,,2023-08-06_08h22.56.840,HF_wild_card,2022.2.4,Win32,59.98080614,60deb63539c4fb727e50bd52,64ce5acb97489d65b14ecc7a,64cf494b89902ad06bf25140,,,,,,,sngl,resources/DG.BMP,resources/Empty.png,Door4,-0.201445853,0.011527917,1,0,0,1.3846,optionLeft,80,1385,1,24,0,24,0,1,,,,,,,,,,,,,,,,,,,,,,,,,,,,,,,,,,,,,,,
,,,,,,,,2023-08-06_08h22.56.840,HF_wild_card,2022.2.4,Win32,59.98080614,60deb63539c4fb727e50bd52,64ce5acb97489d65b14ecc7a,64cf494b89902ad06bf25140,,,,,,,decisionTrl,resources/DP.BMP,resources/DB.BMP,Door1,0.336524811,-0.002800605,1,0,0,0.9585,optionRight,30,1415,1,25,0,25,0,1,,,,,,,,,,,,,,,,,,,,,,,,,,,,,,,,,,,,,,,
,,,,,,,,2023-08-06_08h22.56.840,HF_wild_card,2022.2.4,Win32,59.98080614,60deb63539c4fb727e50bd52,64ce5acb97489d65b14ecc7a,64cf494b89902ad06bf25140,,,,,,,ctch,resources/DB.BMP,resources/DG.BMP,Door4,0.402956964,0.011527917,1,0,0,1.1593,optionRight,80,1495,1,26,0,26,0,1,,,,,,,,,,,,,,,,,,,,,,,,,,,,,,,,,,,,,,,
,,,,,,,,2023-08-06_08h22.56.840,HF_wild_card,2022.2.4,Win32,59.98080614,60deb63539c4fb727e50bd52,64ce5acb97489d65b14ecc7a,64cf494b89902ad06bf25140,,,,,,,decisionTrl,resources/DP.BMP,resources/DB.BMP,Door1,0.421193238,-0.026247264,1,0,0,1.8444,optionRight,30,1525,1,27,0,27,0,1,,,,,,,,,,,,,,,,,,,,,,,,,,,,,,,,,,,,,,,
,,,,,,,,2023-08-06_08h22.56.840,HF_wild_card,2022.2.4,Win32,59.98080614,60deb63539c4fb727e50bd52,64ce5acb97489d65b14ecc7a,64cf494b89902ad06bf25140,,,,,,,sngl,resources/DBN.BMP,resources/Empty.png,WildCard_NonEx,-0.394229509,0.050605693,1,0,0,1.1757,optionLeft,55,1580,1,28,0,28,0,1,,,,,,,,,,,,,,,,,,,,,,,,,,,,,,,,,,,,,,,
,,,,,,,,2023-08-06_08h22.56.840,HF_wild_card,2022.2.4,Win32,59.98080614,60deb63539c4fb727e50bd52,64ce5acb97489d65b14ecc7a,64cf494b89902ad06bf25140,,,,,,,sngl,resources/DP.BMP,resources/Empty.png,Door2,-0.291324665,-0.018431687,1,0,0,1.6421,optionLeft,40,1620,1,29,0,29,0,1,,,,,,,,,,,,,,,,,,,,,,,,,,,,,,,,,,,,,,,
,,,,,,,,2023-08-06_08h22.56.840,HF_wild_card,2022.2.4,Win32,59.98080614,60deb63539c4fb727e50bd52,64ce5acb97489d65b14ecc7a,64cf494b89902ad06bf25140,,,,,,,ctch,resources/DY.BMP,resources/DP.BMP,Door2,0.352155822,-0.037970593,1,0,0,1.0924,optionRight,20,1640,1,30,0,30,0,1,,,,,,,,,,,,,,,,,,,,,,,,,,,,,,,,,,,,,,,
,,,,,,,,2023-08-06_08h22.56.840,HF_wild_card,2022.2.4,Win32,59.98080614,60deb63539c4fb727e50bd52,64ce5acb97489d65b14ecc7a,64cf494b89902ad06bf25140,,,,,,,decisionTrl,resources/DB.BMP,resources/DBN.BMP,WildCard_NonEx,0.391233634,0.064934215,1,0,0,2.0854,optionRight,55,1695,1,31,0,31,0,1,,,,,,,,,,,,,,,,,,,,,,,,,,,,,,,,,,,,,,,
,,,,,,,,2023-08-06_08h22.56.840,HF_wild_card,2022.2.4,Win32,59.98080614,60deb63539c4fb727e50bd52,64ce5acb97489d65b14ecc7a,64cf494b89902ad06bf25140,,,,,,,decisionTrl,resources/DG.BMP,resources/DY.BMP,Door4,-0.349941312,-0.024944668,1,0,0,0.8908,optionLeft,60,1755,1,32,0,32,0,1,,,,,,,,,,,,,,,,,,,,,,,,,,,,,,,,,,,,,,,
,,,,,,,,2023-08-06_08h22.56.840,HF_wild_card,2022.2.4,Win32,59.98080614,60deb63539c4fb727e50bd52,64ce5acb97489d65b14ecc7a,64cf494b89902ad06bf25140,,,,,,,decisionTrl,resources/DB.BMP,resources/DP.BMP,Door2,0.440732073,-0.050996555,1,0,0,0.9973,optionRight,20,1775,1,33,0,33,0,1,,,,,,,,,,,,,,,,,,,,,,,,,,,,,,,,,,,,,,,
,,,,,,,,2023-08-06_08h22.56.840,HF_wild_card,2022.2.4,Win32,59.98080614,60deb63539c4fb727e50bd52,64ce5acb97489d65b14ecc7a,64cf494b89902ad06bf25140,,,,,,,decisionTrl,resources/DBN.BMP,resources/DB.BMP,Door1,0.35997147,-0.032760209,1,0,0,1.659,optionRight,30,1805,1,34,0,34,0,1,,,,,,,,,,,,,,,,,,,,,,,,,,,,,,,,,,,,,,,
,,,,,,,,2023-08-06_08h22.56.840,HF_wild_card,2022.2.4,Win32,59.98080614,60deb63539c4fb727e50bd52,64ce5acb97489d65b14ecc7a,64cf494b89902ad06bf25140,,,,,,,sngl,resources/Empty.png,resources/DP.BMP,Door2,0.354761086,-0.019734283,1,0,0,1.0251,optionRight,20,1825,1,35,0,35,0,1,,,,,,,,,,,,,,,,,,,,,,,,,,,,,,,,,,,,,,,
,,,,,,,,2023-08-06_08h22.56.840,HF_wild_card,2022.2.4,Win32,59.98080614,60deb63539c4fb727e50bd52,64ce5acb97489d65b14ecc7a,64cf494b89902ad06bf25140,,,,,,,decisionTrl,resources/DBN.BMP,resources/DP.BMP,WildCard_NonEx,-0.339520614,-0.015826566,1,0,0,0.8913,optionLeft,55,1880,1,36,0,36,0,1,,,,,,,,,,,,,,,,,,,,,,,,,,,,,,,,,,,,,,,
,,,,,,,,2023-08-06_08h22.56.840,HF_wild_card,2022.2.4,Win32,59.98080614,60deb63539c4fb727e50bd52,64ce5acb97489d65b14ecc7a,64cf494b89902ad06bf25140,,,,,,,ctch,resources/DP.BMP,resources/DY.BMP,Door3,0.426403623,-0.04708873,1,0,0,1.1864,optionRight,70,1950,1,37,0,37,0,1,,,,,,,,,,,,,,,,,,,,,,,,,,,,,,,,,,,,,,,
,,,,,,,,2023-08-06_08h22.56.840,HF_wild_card,2022.2.4,Win32,59.98080614,60deb63539c4fb727e50bd52,64ce5acb97489d65b14ecc7a,64cf494b89902ad06bf25140,,,,,,,decisionTrl,resources/DB.BMP,resources/DP.BMP,Door1,-0.292627297,-0.040575821,1,0,0,1.3224,optionLeft,30,1980,1,38,0,38,0,1,,,,,,,,,,,,,,,,,,,,,,,,,,,,,,,,,,,,,,,
,,,,,,,,2023-08-06_08h22.56.840,HF_wild_card,2022.2.4,Win32,59.98080614,60deb63539c4fb727e50bd52,64ce5acb97489d65b14ecc7a,64cf494b89902ad06bf25140,,,,,,,sngl,resources/DB.BMP,resources/Empty.png,Door1,-0.207958798,-0.001498009,1,0,0,1.61,optionLeft,30,2010,1,39,0,39,0,1,,,,,,,,,,,,,,,,,,,,,,,,,,,,,,,,,,,,,,,
,,,,,,,,2023-08-06_08h22.56.840,HF_wild_card,2022.2.4,Win32,59.98080614,60deb63539c4fb727e50bd52,64ce5acb97489d65b14ecc7a,64cf494b89902ad06bf25140,,,,,,,decisionTrl,resources/DP.BMP,resources/DB.BMP,Door1,0.49934872,-0.023642072,1,0,0,1.0598,optionRight,30,2040,1,40,0,40,0,1,,,,,,,,,,,,,,,,,,,,,,,,,,,,,,,,,,,,,,,
,,,,,,,,2023-08-06_08h22.56.840,HF_wild_card,2022.2.4,Win32,59.98080614,60deb63539c4fb727e50bd52,64ce5acb97489d65b14ecc7a,64cf494b89902ad06bf25140,,,,,,,decisionTrl,resources/DG.BMP,resources/DY.BMP,Door3,0.336524811,-0.027549896,1,0,0,2.0499,optionRight,70,2110,1,41,0,41,0,1,,,,,,,,,,,,,,,,,,,,,,,,,,,,,,,,,,,,,,,
,,,,,,,,2023-08-06_08h22.56.840,HF_wild_card,2022.2.4,Win32,59.98080614,60deb63539c4fb727e50bd52,64ce5acb97489d65b14ecc7a,64cf494b89902ad06bf25140,,,,,,,decisionTrl,resources/DG.BMP,resources/DBN.BMP,Door4,-0.314771324,-0.022339475,1,0,0,1.3779,optionLeft,80,2190,1,42,0,42,0,1,,,,,,,,,,,,,,,,,,,,,,,,,,,,,,,,,,,,,,,
,,,,,,,,2023-08-06_08h22.56.840,HF_wild_card,2022.2.4,Win32,59.98080614,60deb63539c4fb727e50bd52,64ce5acb97489d65b14ecc7a,64cf494b89902ad06bf25140,,,,,,,sngl,resources/DBN.BMP,resources/Empty.png,WildCard_NonEx,-0.361664641,0.049303097,1,0,0,0.886,optionLeft,45,2235,1,43,0,43,0,1,,,,,,,,,,,,,,,,,,,,,,,,,,,,,,,,,,,,,,,
,,,,,,,,2023-08-06_08h22.56.840,HF_wild_card,2022.2.4,Win32,59.98080614,60deb63539c4fb727e50bd52,64ce5acb97489d65b14ecc7a,64cf494b89902ad06bf25140,,,,,,,,,,,,,,,,,,,,,,,,,,0,0,0,0,1,,,,,,,,,,,,,,,,,,,,,,,,,,,,,,,,,,
,,,,,,,,2023-08-06_08h22.56.840,HF_wild_card,2022.2.4,Win32,59.98080614,60deb63539c4fb727e50bd52,64ce5acb97489d65b14ecc7a,64cf494b89902ad06bf25140,,,,,,,decisionTrl,resources/DB.BMP,resources/DP.BMP,Door2,0.320893658,-0.066627601,1,0,0,1.6837,optionRight,40,2275,2,0,0,0,0,1,,,,,,,,,,,,,,,,,,,,,,,,,,,,,,,,,,,,,,,
,,,,,,,,2023-08-06_08h22.56.840,HF_wild_card,2022.2.4,Win32,59.98080614,60deb63539c4fb727e50bd52,64ce5acb97489d65b14ecc7a,64cf494b89902ad06bf25140,,,,,,,ctch,resources/DG.BMP,resources/DB.BMP,Door4,-0.356454328,0.006317496,1,0,0,0.8538,optionLeft,80,2355,2,1,0,1,0,1,,,,,,,,,,,,,,,,,,,,,,,,,,,,,,,,,,,,,,,
,,,,,,,,2023-08-06_08h22.56.840,HF_wild_card,2022.2.4,Win32,59.98080614,60deb63539c4fb727e50bd52,64ce5acb97489d65b14ecc7a,64cf494b89902ad06bf25140,,,,,,,decisionTrl,resources/DP.BMP,resources/DBN.BMP,WildCard_NonEx,0.447245018,0.031066751,1,0,0,1.1682,optionRight,45,2400,2,2,0,2,0,1,,,,,,,,,,,,,,,,,,,,,,,,,,,,,,,,,,,,,,,
,,,,,,,,2023-08-06_08h22.56.840,HF_wild_card,2022.2.4,Win32,59.98080614,60deb63539c4fb727e50bd52,64ce5acb97489d65b14ecc7a,64cf494b89902ad06bf25140,,,,,,,ctch,resources/DP.BMP,resources/DY.BMP,Door2,-0.455451277,0.027159035,1,0,0,0.8199,optionLeft,20,2420,2,3,0,3,0,1,,,,,,,,,,,,,,,,,,,,,,,,,,,,,,,,,,,,,,,
,,,,,,,,2023-08-06_08h22.56.840,HF_wild_card,2022.2.4,Win32,59.98080614,60deb63539c4fb727e50bd52,64ce5acb97489d65b14ecc7a,64cf494b89902ad06bf25140,,,,,,,decisionTrl,resources/DG.BMP,resources/DY.BMP,Door3,0.303959944,-0.004103237,1,0,0,0.8855,optionRight,70,2490,2,4,0,4,0,1,,,,,,,,,,,,,,,,,,,,,,,,,,,,,,,,,,,,,,,
,,,,,,,,2023-08-06_08h22.56.840,HF_wild_card,2022.2.4,Win32,59.98080614,60deb63539c4fb727e50bd52,64ce5acb97489d65b14ecc7a,64cf494b89902ad06bf25140,,,,,,,decisionTrl,resources/DY.BMP,resources/DG.BMP,Door4,0.370392096,-0.002800605,1,0,0,0.7919,optionRight,60,2550,2,5,0,5,0,1,,,,,,,,,,,,,,,,,,,,,,,,,,,,,,,,,,,,,,,
,,,,,,,,2023-08-06_08h22.56.840,HF_wild_card,2022.2.4,Win32,59.98080614,60deb63539c4fb727e50bd52,64ce5acb97489d65b14ecc7a,64cf494b89902ad06bf25140,,,,,,,decisionTrl,resources/DP.BMP,resources/DB.BMP,Door1,0.4003517,-0.053601747,1,0,0,1.2014,optionRight,30,2580,2,6,0,6,0,1,,,,,,,,,,,,,,,,,,,,,,,,,,,,,,,,,,,,,,,
,,,,,,,,2023-08-06_08h22.56.840,HF_wild_card,2022.2.4,Win32,59.98080614,60deb63539c4fb727e50bd52,64ce5acb97489d65b14ecc7a,64cf494b89902ad06bf25140,,,,,,,decisionTrl,resources/DP.BMP,resources/DB.BMP,Door2,-0.34082321,-0.015826566,1,0,0,1.7268,optionLeft,40,2620,2,7,0,7,0,1,,,,,,,,,,,,,,,,,,,,,,,,,,,,,,,,,,,,,,,
,,,,,,,,2023-08-06_08h22.56.840,HF_wild_card,2022.2.4,Win32,59.98080614,60deb63539c4fb727e50bd52,64ce5acb97489d65b14ecc7a,64cf494b89902ad06bf25140,,,,,,,decisionTrl,resources/DBN.BMP,resources/DG.BMP,WildCard_NonEx,-0.314771324,0.018040826,1,0,0,1.4095,optionLeft,45,2665,2,8,0,8,0,1,,,,,,,,,,,,,,,,,,,,,,,,,,,,,,,,,,,,,,,
,,,,,,,,2023-08-06_08h22.56.840,HF_wild_card,2022.2.4,Win32,59.98080614,60deb63539c4fb727e50bd52,64ce5acb97489d65b14ecc7a,64cf494b89902ad06bf25140,,,,,,,decisionTrl,resources/DG.BMP,resources/DY.BMP,Door3,0.319591097,-0.022339475,1,0,0,1.7933,optionRight,70,2735,2,9,0,9,0,1,,,,,,,,,,,,,,,,,,,,,,,,,,,,,,,,,,,,,,,
,,,,,,,,2023-08-06_08h22.56.840,HF_wild_card,2022.2.4,Win32,59.98080614,60deb63539c4fb727e50bd52,64ce5acb97489d65b14ecc7a,64cf494b89902ad06bf25140,,,,,,,sngl,resources/DBN.BMP,resources/Empty.png,WildCard_NonEx,-0.305653222,0.003712376,1,0,0,0.977,optionLeft,45,2780,2,10,0,10,0,1,,,,,,,,,,,,,,,,,,,,,,,,,,,,,,,,,,,,,,,
,,,,,,,,2023-08-06_08h22.56.840,HF_wild_card,2022.2.4,Win32,59.98080614,60deb63539c4fb727e50bd52,64ce5acb97489d65b14ecc7a,64cf494b89902ad06bf25140,,,,,,,decisionTrl,resources/DB.BMP,resources/DP.BMP,Door2,0.370392096,-0.04708873,1,0,0,1.5529,optionRight,40,2820,2,11,0,11,0,1,,,,,,,,,,,,,,,,,,,,,,,,,,,,,,,,,,,,,,,
,,,,,,,,2023-08-06_08h22.56.840,HF_wild_card,2022.2.4,Win32,59.98080614,60deb63539c4fb727e50bd52,64ce5acb97489d65b14ecc7a,64cf494b89902ad06bf25140,,,,,,,sngl,resources/DB.BMP,resources/Empty.png,Door1,0.141135892,-0.013221338,1,0,0,1.5435,optionLeft,30,2850,2,12,0,12,0,1,,,,,,,,,,,,,,,,,,,,,,,,,,,,,,,,,,,,,,,
,,,,,,,,2023-08-06_08h22.56.840,HF_wild_card,2022.2.4,Win32,59.98080614,60deb63539c4fb727e50bd52,64ce5acb97489d65b14ecc7a,64cf494b89902ad06bf25140,,,,,,,sngl,resources/Empty.png,resources/DB.BMP,Door1,0.419890678,-0.255503468,1,0,0,3.0259,optionRight,30,2880,2,13,0,13,0,1,,,,,,,,,,,,,,,,,,,,,,,,,,,,,,,,,,,,,,,
,,,,,,,,2023-08-06_08h22.56.840,HF_wild_card,2022.2.4,Win32,59.98080614,60deb63539c4fb727e50bd52,64ce5acb97489d65b14ecc7a,64cf494b89902ad06bf25140,,,,,,,sngl,resources/Empty.png,resources/DP.BMP,Door2,0.4003517,-0.010616146,1,0,0,0.7852,optionRight,40,2920,2,14,0,14,0,1,,,,,,,,,,,,,,,,,,,,,,,,,,,,,,,,,,,,,,,
,,,,,,,,2023-08-06_08h22.56.840,HF_wild_card,2022.2.4,Win32,59.98080614,60deb63539c4fb727e50bd52,64ce5acb97489d65b14ecc7a,64cf494b89902ad06bf25140,,,,,,,decisionTrl,resources/DG.BMP,resources/DY.BMP,Door3,0.279210653,0.049303097,1,0,0,1.5599,optionRight,70,2990,2,15,0,15,0,1,,,,,,,,,,,,,,,,,,,,,,,,,,,,,,,,,,,,,,,
,,,,,,,,2023-08-06_08h22.56.840,HF_wild_card,2022.2.4,Win32,59.98080614,60deb63539c4fb727e50bd52,64ce5acb97489d65b14ecc7a,64cf494b89902ad06bf25140,,,,,,,decisionTrl,resources/DBN.BMP,resources/DP.BMP,Door2,0.39904914,-0.060114656,1,0,0,1.4631,optionRight,20,3010,2,16,0,16,0,1,,,,,,,,,,,,,,,,,,,,,,,,,,,,,,,,,,,,,,,
,,,,,,,,2023-08-06_08h22.56.840,HF_wild_card,2022.2.4,Win32,59.98080614,60deb63539c4fb727e50bd52,64ce5acb97489d65b14ecc7a,64cf494b89902ad06bf25140,,,,,,,decisionTrl,resources/DB.BMP,resources/DP.BMP,Door1,-0.364269869,-0.080956123,1,0,0,0.96,optionLeft,30,3040,2,17,0,17,0,1,,,,,,,,,,,,,,,,,,,,,,,,,,,,,,,,,,,,,,,
,,,,,,,,2023-08-06_08h22.56.840,HF_wild_card,2022.2.4,Win32,59.98080614,60deb63539c4fb727e50bd52,64ce5acb97489d65b14ecc7a,64cf494b89902ad06bf25140,,,,,,,decisionTrl,resources/DY.BMP,resources/DG.BMP,Door4,0.479809885,0.016738301,1,0,0,0.9009,optionRight,60,3100,2,18,0,18,0,1,,,,,,,,,,,,,,,,,,,,,,,,,,,,,,,,,,,,,,,
,,,,,,,,2023-08-06_08h22.56.840,HF_wild_card,2022.2.4,Win32,59.98080614,60deb63539c4fb727e50bd52,64ce5acb97489d65b14ecc7a,64cf494b89902ad06bf25140,,,,,,,sngl,resources/DP.BMP,resources/Empty.png,Door2,-0.382506179,0.045395309,1,0,0,0.9095,optionLeft,20,3120,2,19,0,19,0,1,,,,,,,,,,,,,,,,,,,,,,,,,,,,,,,,,,,,,,,
,,,,,,,,2023-08-06_08h22.56.840,HF_wild_card,2022.2.4,Win32,59.98080614,60deb63539c4fb727e50bd52,64ce5acb97489d65b14ecc7a,64cf494b89902ad06bf25140,,,,,,,ctch,resources/DY.BMP,resources/DP.BMP,Door2,0.4003517,-0.057509464,1,0,0,0.9863,optionRight,40,3160,2,20,0,20,0,1,,,,,,,,,,,,,,,,,,,,,,,,,,,,,,,,,,,,,,,
,,,,,,,,2023-08-06_08h22.56.840,HF_wild_card,2022.2.4,Win32,59.98080614,60deb63539c4fb727e50bd52,64ce5acb97489d65b14ecc7a,64cf494b89902ad06bf25140,,,,,,,decisionTrl,resources/DBN.BMP,resources/DB.BMP,Door1,0.418588117,0.024553842,1,0,0,1.2401,optionRight,30,3190,2,21,0,21,0,1,,,,,,,,,,,,,,,,,,,,,,,,,,,,,,,,,,,,,,,
,,,,,,,,2023-08-06_08h22.56.840,HF_wild_card,2022.2.4,Win32,59.98080614,60deb63539c4fb727e50bd52,64ce5acb97489d65b14ecc7a,64cf494b89902ad06bf25140,,,,,,,ctch,resources/DG.BMP,resources/DB.BMP,Door1,0.496743599,-0.092679452,1,0,0,0.7672,optionRight,30,3220,2,22,0,22,0,1,,,,,,,,,,,,,,,,,,,,,,,,,,,,,,,,,,,,,,,
,,,,,,,,2023-08-06_08h22.56.840,HF_wild_card,2022.2.4,Win32,59.98080614,60deb63539c4fb727e50bd52,64ce5acb97489d65b14ecc7a,64cf494b89902ad06bf25140,,,,,,,decisionTrl,resources/DP.BMP,resources/DB.BMP,Door1,0.335222108,-0.05881206,1,0,0,0.8526,optionRight,30,3250,2,23,0,23,0,1,,,,,,,,,,,,,,,,,,,,,,,,,,,,,,,,,,,,,,,
,,,,,,,,2023-08-06_08h22.56.840,HF_wild_card,2022.2.4,Win32,59.98080614,60deb63539c4fb727e50bd52,64ce5acb97489d65b14ecc7a,64cf494b89902ad06bf25140,,,,,,,decisionTrl,resources/DY.BMP,resources/DG.BMP,Door4,0.455060666,-0.018431687,1,0,0,1.6683,optionRight,80,3330,2,24,0,24,0,1,,,,,,,,,,,,,,,,,,,,,,,,,,,,,,,,,,,,,,,
,,,,,,,,2023-08-06_08h22.56.840,HF_wild_card,2022.2.4,Win32,59.98080614,60deb63539c4fb727e50bd52,64ce5acb97489d65b14ecc7a,64cf494b89902ad06bf25140,,,,,,,sngl,resources/Empty.png,resources/DBN.BMP,WildCard_NonEx,0.344340317,0.001107183,1,0,0,0.9848,optionRight,45,3375,2,25,0,25,0,1,,,,,,,,,,,,,,,,,,,,,,,,,,,,,,,,,,,,,,,
,,,,,,,,2023-08-06_08h22.56.840,HF_wild_card,2022.2.4,Win32,59.98080614,60deb63539c4fb727e50bd52,64ce5acb97489d65b14ecc7a,64cf494b89902ad06bf25140,,,,,,,sngl,resources/Empty.png,resources/DY.BMP,Door3,0.35997147,-0.006708358,1,0,0,0.919,optionRight,70,3445,2,26,0,26,0,1,,,,,,,,,,,,,,,,,,,,,,,,,,,,,,,,,,,,,,,
,,,,,,,,2023-08-06_08h22.56.840,HF_wild_card,2022.2.4,Win32,59.98080614,60deb63539c4fb727e50bd52,64ce5acb97489d65b14ecc7a,64cf494b89902ad06bf25140,,,,,,,sngl,resources/DBN.BMP,resources/Empty.png,WildCard_NonEx,-0.37078285,0.045395309,1,0,0,0.8695,optionLeft,55,3500,2,27,0,27,0,1,,,,,,,,,,,,,,,,,,,,,,,,,,,,,,,,,,,,,,,
,,,,,,,,2023-08-06_08h22.56.840,HF_wild_card,2022.2.4,Win32,59.98080614,60deb63539c4fb727e50bd52,64ce5acb97489d65b14ecc7a,64cf494b89902ad06bf25140,,,,,,,decisionTrl,resources/DG.BMP,resources/DBN.BMP,Door4,-0.344730999,0.001107183,1,0,0,1.5459,optionLeft,60,3560,2,28,0,28,0,1,,,,,,,,,,,,,,,,,,,,,,,,,,,,,,,,,,,,,,,
,,,,,,,,2023-08-06_08h22.56.840,HF_wild_card,2022.2.4,Win32,59.98080614,60deb63539c4fb727e50bd52,64ce5acb97489d65b14ecc7a,64cf494b89902ad06bf25140,,,,,,,sngl,resources/Empty.png,resources/DG.BMP,Door4,0.418588117,0.018040826,1,0,0,4.1356,optionRight,80,3640,2,29,0,29,0,1,,,,,,,,,,,,,,,,,,,,,,,,,,,,,,,,,,,,,,,
,,,,,,,,2023-08-06_08h22.56.840,HF_wild_card,2022.2.4,Win32,59.98080614,60deb63539c4fb727e50bd52,64ce5acb97489d65b14ecc7a,64cf494b89902ad06bf25140,,,,,,,decisionTrl,resources/DB.BMP,resources/DP.BMP,Door1,-0.411163187,-0.045786134,1,0,0,2.387,optionLeft,30,3670,2,30,0,30,0,1,,,,,,,,,,,,,,,,,,,,,,,,,,,,,,,,,,,,,,,
,,,,,,,,2023-08-06_08h22.56.840,HF_wild_card,2022.2.4,Win32,59.98080614,60deb63539c4fb727e50bd52,64ce5acb97489d65b14ecc7a,64cf494b89902ad06bf25140,,,,,,,ctch,resources/DY.BMP,resources/DP.BMP,Door3,-0.353849136,0.034974576,1,0,0,2.116,optionLeft,70,3740,2,31,0,31,0,1,,,,,,,,,,,,,,,,,,,,,,,,,,,,,,,,,,,,,,,
,,,,,,,,2023-08-06_08h22.56.840,HF_wild_card,2022.2.4,Win32,59.98080614,60deb63539c4fb727e50bd52,64ce5acb97489d65b14ecc7a,64cf494b89902ad06bf25140,,,,,,,sngl,resources/Empty.png,resources/DBN.BMP,WildCard_NonEx,0.422495798,0.011527917,1,0,0,1.0446,optionRight,55,3795,2,32,0,32,0,1,,,,,,,,,,,,,,,,,,,,,,,,,,,,,,,,,,,,,,,
,,,,,,,,2023-08-06_08h22.56.840,HF_wild_card,2022.2.4,Win32,59.98080614,60deb63539c4fb727e50bd52,64ce5acb97489d65b14ecc7a,64cf494b89902ad06bf25140,,,,,,,decisionTrl,resources/DG.BMP,resources/DY.BMP,Door4,-0.381203583,0.077960069,1,0,0,1.1262,optionLeft,80,3875,2,33,0,33,0,1,,,,,,,,,,,,,,,,,,,,,,,,,,,,,,,,,,,,,,,
,,,,,,,,2023-08-06_08h22.56.840,HF_wild_card,2022.2.4,Win32,59.98080614,60deb63539c4fb727e50bd52,64ce5acb97489d65b14ecc7a,64cf494b89902ad06bf25140,,,,,,,decisionTrl,resources/DBN.BMP,resources/DY.BMP,Door3,0.478507325,-0.00931355,1,0,0,0.874,optionRight,70,3945,2,34,0,34,0,1,,,,,,,,,,,,,,,,,,,,,,,,,,,,,,,,,,,,,,,
,,,,,,,,2023-08-06_08h22.56.840,HF_wild_card,2022.2.4,Win32,59.98080614,60deb63539c4fb727e50bd52,64ce5acb97489d65b14ecc7a,64cf494b89902ad06bf25140,,,,,,,ctch,resources/DP.BMP,resources/DY.BMP,Door2,-0.346033595,-0.041878346,1,0,0,1.8144,optionLeft,40,3985,2,35,0,35,0,1,,,,,,,,,,,,,,,,,,,,,,,,,,,,,,,,,,,,,,,
,,,,,,,,2023-08-06_08h22.56.840,HF_wild_card,2022.2.4,Win32,59.98080614,60deb63539c4fb727e50bd52,64ce5acb97489d65b14ecc7a,64cf494b89902ad06bf25140,,,,,,,decisionTrl,resources/DY.BMP,resources/DG.BMP,Door4,0.382115426,0.008922724,1,0,0,1.1238,optionRight,80,4065,2,36,0,36,0,1,,,,,,,,,,,,,,,,,,,,,,,,,,,,,,,,,,,,,,,
,,,,,,,,2023-08-06_08h22.56.840,HF_wild_card,2022.2.4,Win32,59.98080614,60deb63539c4fb727e50bd52,64ce5acb97489d65b14ecc7a,64cf494b89902ad06bf25140,,,,,,,ctch,resources/DB.BMP,resources/DG.BMP,Door1,-0.392926913,-0.032760209,1,0,0,1.7361,optionLeft,30,4095,2,37,0,37,0,1,,,,,,,,,,,,,,,,,,,,,,,,,,,,,,,,,,,,,,,
,,,,,,,,2023-08-06_08h22.56.840,HF_wild_card,2022.2.4,Win32,59.98080614,60deb63539c4fb727e50bd52,64ce5acb97489d65b14ecc7a,64cf494b89902ad06bf25140,,,,,,,decisionTrl,resources/DB.BMP,resources/DBN.BMP,WildCard_NonEx,0.421193238,0.011527917,1,0,0,0.974,optionRight,55,4150,2,38,0,38,0,1,,,,,,,,,,,,,,,,,,,,,,,,,,,,,,,,,,,,,,,
,,,,,,,,2023-08-06_08h22.56.840,HF_wild_card,2022.2.4,Win32,59.98080614,60deb63539c4fb727e50bd52,64ce5acb97489d65b14ecc7a,64cf494b89902ad06bf25140,,,,,,,decisionTrl,resources/DY.BMP,resources/DBN.BMP,Door3,-0.379900987,-0.008010954,1,0,0,1.1586,optionLeft,70,4220,2,39,0,39,0,1,,,,,,,,,,,,,,,,,,,,,,,,,,,,,,,,,,,,,,,
,,,,,,,,2023-08-06_08h22.56.840,HF_wild_card,2022.2.4,Win32,59.98080614,60deb63539c4fb727e50bd52,64ce5acb97489d65b14ecc7a,64cf494b89902ad06bf25140,,,,,,,decisionTrl,resources/DP.BMP,resources/DB.BMP,Door1,0.404259524,-0.021036879,1,0,0,1.7349,optionRight,30,4250,2,40,0,40,0,1,,,,,,,,,,,,,,,,,,,,,,,,,,,,,,,,,,,,,,,
,,,,,,,,2023-08-06_08h22.56.840,HF_wild_card,2022.2.4,Win32,59.98080614,60deb63539c4fb727e50bd52,64ce5acb97489d65b14ecc7a,64cf494b89902ad06bf25140,,,,,,,ctch,resources/DB.BMP,resources/DG.BMP,Door4,0.363879151,-0.017129162,1,0,0,0.8859,optionRight,80,4330,2,41,0,41,0,1,,,,,,,,,,,,,,,,,,,,,,,,,,,,,,,,,,,,,,,
,,,,,,,,2023-08-06_08h22.56.840,HF_wild_card,2022.2.4,Win32,59.98080614,60deb63539c4fb727e50bd52,64ce5acb97489d65b14ecc7a,64cf494b89902ad06bf25140,,,,,,,sngl,resources/DG.BMP,resources/Empty.png,Door4,-0.330402477,-0.039273225,1,0,0,0.8098,optionLeft,60,4390,2,42,0,42,0,1,,,,,,,,,,,,,,,,,,,,,,,,,,,,,,,,,,,,,,,
,,,,,,,,2023-08-06_08h22.56.840,HF_wild_card,2022.2.4,Win32,59.98080614,60deb63539c4fb727e50bd52,64ce5acb97489d65b14ecc7a,64cf494b89902ad06bf25140,,,,,,,sngl,resources/DY.BMP,resources/Empty.png,Door3,-0.305653222,-0.028852492,1,0,0,0.8424,optionLeft,70,4460,2,43,0,43,0,1,,,,,,,,,,,,,,,,,,,,,,,,,,,,,,,,,,,,,,,
,,,,,,,,2023-08-06_08h22.56.840,HF_wild_card,2022.2.4,Win32,59.98080614,60deb63539c4fb727e50bd52,64ce5acb97489d65b14ecc7a,64cf494b89902ad06bf25140,,,,,,,,,,,,,,,,,,,,,,,,,,1,0,1,0,1,,,,,,,,,,,,,,,,,,,,,,,,,,,,,,,,,,
,,,,,,,,2023-08-06_08h22.56.840,HF_wild_card,2022.2.4,Win32,59.98080614,60deb63539c4fb727e50bd52,64ce5acb97489d65b14ecc7a,64cf494b89902ad06bf25140,,,,,,,decisionTrl,resources/DB.BMP,resources/DP.BMP,Door2,0.3091704,-0.105705378,1,0,0,2.1256,optionRight,20,4480,3,0,0,0,0,1,,,,,,,,,,,,,,,,,,,,,,,,,,,,,,,,,,,,,,,
,,,,,,,,2023-08-06_08h22.56.840,HF_wild_card,2022.2.4,Win32,59.98080614,60deb63539c4fb727e50bd52,64ce5acb97489d65b14ecc7a,64cf494b89902ad06bf25140,,,,,,,ctch,resources/DY.BMP,resources/DP.BMP,Door3,-0.391624317,-0.062719884,1,0,0,0.8112,optionLeft,70,4550,3,1,0,1,0,1,,,,,,,,,,,,,,,,,,,,,,,,,,,,,,,,,,,,,,,
,,,,,,,,2023-08-06_08h22.56.840,HF_wild_card,2022.2.4,Win32,59.98080614,60deb63539c4fb727e50bd52,64ce5acb97489d65b14ecc7a,64cf494b89902ad06bf25140,,,,,,,decisionTrl,resources/DY.BMP,resources/DBN.BMP,Door3,-0.313468727,-0.019734283,1,0,0,0.7269,optionLeft,70,4620,3,2,0,2,0,1,,,,,,,,,,,,,,,,,,,,,,,,,,,,,,,,,,,,,,,
,,,,,,,,2023-08-06_08h22.56.840,HF_wild_card,2022.2.4,Win32,59.98080614,60deb63539c4fb727e50bd52,64ce5acb97489d65b14ecc7a,64cf494b89902ad06bf25140,,,,,,,sngl,resources/DP.BMP,resources/Empty.png,Door2,-0.377295795,-0.024944668,1,0,0,0.9095,optionLeft,40,4660,3,3,0,3,0,1,,,,,,,,,,,,,,,,,,,,,,,,,,,,,,,,,,,,,,,
,,,,,,,,2023-08-06_08h22.56.840,HF_wild_card,2022.2.4,Win32,59.98080614,60deb63539c4fb727e50bd52,64ce5acb97489d65b14ecc7a,64cf494b89902ad06bf25140,,,,,,,decisionTrl,resources/DB.BMP,resources/DP.BMP,Door2,0.219291446,0.007620093,1,0,0,1.475,optionRight,20,4680,3,4,0,4,0,1,,,,,,,,,,,,,,,,,,,,,,,,,,,,,,,,,,,,,,,
,,,,,,,,2023-08-06_08h22.56.840,HF_wild_card,2022.2.4,Win32,59.98080614,60deb63539c4fb727e50bd52,64ce5acb97489d65b14ecc7a,64cf494b89902ad06bf25140,,,,,,,ctch,resources/DB.BMP,resources/DG.BMP,Door4,0.438126952,0.005014972,1,0,0,1.0588,optionRight,80,4760,3,5,0,5,0,1,,,,,,,,,,,,,,,,,,,,,,,,,,,,,,,,,,,,,,,
,,,,,,,,2023-08-06_08h22.56.840,HF_wild_card,2022.2.4,Win32,59.98080614,60deb63539c4fb727e50bd52,64ce5acb97489d65b14ecc7a,64cf494b89902ad06bf25140,,,,,,,decisionTrl,resources/DP.BMP,resources/DBN.BMP,Door2,-0.329099881,-0.041878346,1,0,0,1.3498,optionLeft,20,4780,3,6,0,6,0,1,,,,,,,,,,,,,,,,,,,,,,,,,,,,,,,,,,,,,,,
,,,,,,,,2023-08-06_08h22.56.840,HF_wild_card,2022.2.4,Win32,59.98080614,60deb63539c4fb727e50bd52,64ce5acb97489d65b14ecc7a,64cf494b89902ad06bf25140,,,,,,,decisionTrl,resources/DP.BMP,resources/DB.BMP,Door2,0.005666324,-0.004103237,1,0,0,1.0424,optionLeft,40,4820,3,7,0,7,0,1,,,,,,,,,,,,,,,,,,,,,,,,,,,,,,,,,,,,,,,
,,,,,,,,2023-08-06_08h22.56.840,HF_wild_card,2022.2.4,Win32,59.98080614,60deb63539c4fb727e50bd52,64ce5acb97489d65b14ecc7a,64cf494b89902ad06bf25140,,,,,,,sngl,resources/DBN.BMP,resources/Empty.png,WildCard_NonEx,-0.314771324,-0.04708873,1,0,0,0.7842,optionLeft,55,4875,3,8,0,8,0,1,,,,,,,,,,,,,,,,,,,,,,,,,,,,,,,,,,,,,,,
,,,,,,,,2023-08-06_08h22.56.840,HF_wild_card,2022.2.4,Win32,59.98080614,60deb63539c4fb727e50bd52,64ce5acb97489d65b14ecc7a,64cf494b89902ad06bf25140,,,,,,,decisionTrl,resources/DP.BMP,resources/DB.BMP,Door1,0.402956964,-0.131757229,1,0,0,1.1811,optionRight,30,4905,3,9,0,9,0,1,,,,,,,,,,,,,,,,,,,,,,,,,,,,,,,,,,,,,,,
,,,,,,,,2023-08-06_08h22.56.840,HF_wild_card,2022.2.4,Win32,59.98080614,60deb63539c4fb727e50bd52,64ce5acb97489d65b14ecc7a,64cf494b89902ad06bf25140,,,,,,,decisionTrl,resources/DG.BMP,resources/DY.BMP,Door4,-0.373387971,-0.060114656,1,0,0,1.1245,optionLeft,60,4965,3,10,0,10,0,1,,,,,,,,,,,,,,,,,,,,,,,,,,,,,,,,,,,,,,,
,,,,,,,,2023-08-06_08h22.56.840,HF_wild_card,2022.2.4,Win32,59.98080614,60deb63539c4fb727e50bd52,64ce5acb97489d65b14ecc7a,64cf494b89902ad06bf25140,,,,,,,sngl,resources/Empty.png,resources/DG.BMP,Door4,0.466783995,-0.049693923,1,0,0,0.7924,optionRight,60,5025,3,11,0,11,0,1,,,,,,,,,,,,,,,,,,,,,,,,,,,,,,,,,,,,,,,
,,,,,,,,2023-08-06_08h22.56.840,HF_wild_card,2022.2.4,Win32,59.98080614,60deb63539c4fb727e50bd52,64ce5acb97489d65b14ecc7a,64cf494b89902ad06bf25140,,,,,,,ctch,resources/DP.BMP,resources/DY.BMP,Door3,0.440732073,-0.015826566,1,0,0,1.1252,optionRight,70,5095,3,12,0,12,0,1,,,,,,,,,,,,,,,,,,,,,,,,,,,,,,,,,,,,,,,
,,,,,,,,2023-08-06_08h22.56.840,HF_wild_card,2022.2.4,Win32,59.98080614,60deb63539c4fb727e50bd52,64ce5acb97489d65b14ecc7a,64cf494b89902ad06bf25140,,,,,,,sngl,resources/DBN.BMP,resources/Empty.png,WildCard_NonEx,-0.333007669,0.016738301,1,0,0,0.8362,optionLeft,45,5140,3,13,0,13,0,1,,,,,,,,,,,,,,,,,,,,,,,,,,,,,,,,,,,,,,,
,,,,,,,,2023-08-06_08h22.56.840,HF_wild_card,2022.2.4,Win32,59.98080614,60deb63539c4fb727e50bd52,64ce5acb97489d65b14ecc7a,64cf494b89902ad06bf25140,,,,,,,ctch,resources/DB.BMP,resources/DG.BMP,Door4,0.48502027,-0.087469139,1,0,0,0.8866,optionRight,60,5200,3,14,0,14,0,1,,,,,,,,,,,,,,,,,,,,,,,,,,,,,,,,,,,,,,,
,,,,,,,,2023-08-06_08h22.56.840,HF_wild_card,2022.2.4,Win32,59.98080614,60deb63539c4fb727e50bd52,64ce5acb97489d65b14ecc7a,64cf494b89902ad06bf25140,,,,,,,decisionTrl,resources/DB.BMP,resources/DBN.BMP,WildCard_NonEx,0.401654403,0.041487485,1,0,0,0.8707,optionRight,45,5245,3,15,0,15,0,1,,,,,,,,,,,,,,,,,,,,,,,,,,,,,,,,,,,,,,,
,,,,,,,,2023-08-06_08h22.56.840,HF_wild_card,2022.2.4,Win32,59.98080614,60deb63539c4fb727e50bd52,64ce5acb97489d65b14ecc7a,64cf494b89902ad06bf25140,,,,,,,sngl,resources/DB.BMP,resources/Empty.png,Door1,-0.236615842,-0.056206868,1,0,0,0.9268,optionLeft,30,5275,3,16,0,16,0,1,,,,,,,,,,,,,,,,,,,,,,,,,,,,,,,,,,,,,,,
,,,,,,,,2023-08-06_08h22.56.840,HF_wild_card,2022.2.4,Win32,59.98080614,60deb63539c4fb727e50bd52,64ce5acb97489d65b14ecc7a,64cf494b89902ad06bf25140,,,,,,,ctch,resources/DP.BMP,resources/DY.BMP,Door3,0.468086556,-0.120033899,1,0,0,0.8862,optionRight,70,5345,3,17,0,17,0,1,,,,,,,,,,,,,,,,,,,,,,,,,,,,,,,,,,,,,,,
,,,,,,,,2023-08-06_08h22.56.840,HF_wild_card,2022.2.4,Win32,59.98080614,60deb63539c4fb727e50bd52,64ce5acb97489d65b14ecc7a,64cf494b89902ad06bf25140,,,,,,,decisionTrl,resources/DG.BMP,resources/DY.BMP,Door3,0.3716948,-0.052299151,1,0,0,0.9727,optionRight,70,5415,3,18,0,18,0,1,,,,,,,,,,,,,,,,,,,,,,,,,,,,,,,,,,,,,,,
,,,,,,,,2023-08-06_08h22.56.840,HF_wild_card,2022.2.4,Win32,59.98080614,60deb63539c4fb727e50bd52,64ce5acb97489d65b14ecc7a,64cf494b89902ad06bf25140,,,,,,,decisionTrl,resources/DY.BMP,resources/DG.BMP,Door4,0.365181712,-0.065325076,1,0,0,1.4202,optionRight,80,5495,3,19,0,19,0,1,,,,,,,,,,,,,,,,,,,,,,,,,,,,,,,,,,,,,,,
,,,,,,,,2023-08-06_08h22.56.840,HF_wild_card,2022.2.4,Win32,59.98080614,60deb63539c4fb727e50bd52,64ce5acb97489d65b14ecc7a,64cf494b89902ad06bf25140,,,,,,,sngl,resources/Empty.png,resources/DBN.BMP,WildCard_NonEx,0.479809885,-0.031457613,1,0,0,0.8433,optionRight,45,5540,3,20,0,20,0,1,,,,,,,,,,,,,,,,,,,,,,,,,,,,,,,,,,,,,,,
,,,,,,,,2023-08-06_08h22.56.840,HF_wild_card,2022.2.4,Win32,59.98080614,60deb63539c4fb727e50bd52,64ce5acb97489d65b14ecc7a,64cf494b89902ad06bf25140,,,,,,,decisionTrl,resources/DBN.BMP,resources/DG.BMP,Door4,0.525400642,0.014133109,1,0,0,1.1609,optionRight,80,5620,3,21,0,21,0,1,,,,,,,,,,,,,,,,,,,,,,,,,,,,,,,,,,,,,,,
,,,,,,,,2023-08-06_08h22.56.840,HF_wild_card,2022.2.4,Win32,59.98080614,60deb63539c4fb727e50bd52,64ce5acb97489d65b14ecc7a,64cf494b89902ad06bf25140,,,,,,,sngl,resources/Empty.png,resources/DP.BMP,Door2,0.300052263,-0.019734283,1,0,0,1.2263,optionRight,20,5640,3,22,0,22,0,1,,,,,,,,,,,,,,,,,,,,,,,,,,,,,,,,,,,,,,,
,,,,,,,,2023-08-06_08h22.56.840,HF_wild_card,2022.2.4,Win32,59.98080614,60deb63539c4fb727e50bd52,64ce5acb97489d65b14ecc7a,64cf494b89902ad06bf25140,,,,,,,sngl,resources/Empty.png,resources/DY.BMP,Door3,0.336524811,-0.043180942,1,0,0,0.8292,optionRight,70,5710,3,23,0,23,0,1,,,,,,,,,,,,,,,,,,,,,,,,,,,,,,,,,,,,,,,
,,,,,,,,2023-08-06_08h22.56.840,HF_wild_card,2022.2.4,Win32,59.98080614,60deb63539c4fb727e50bd52,64ce5acb97489d65b14ecc7a,64cf494b89902ad06bf25140,,,,,,,decisionTrl,resources/DB.BMP,resources/DP.BMP,Door2,0.262277082,-0.019734283,1,0,0,2.1932,optionRight,20,5730,3,24,0,24,0,1,,,,,,,,,,,,,,,,,,,,,,,,,,,,,,,,,,,,,,,
,,,,,,,,2023-08-06_08h22.56.840,HF_wild_card,2022.2.4,Win32,59.98080614,60deb63539c4fb727e50bd52,64ce5acb97489d65b14ecc7a,64cf494b89902ad06bf25140,,,,,,,decisionTrl,resources/DB.BMP,resources/DP.BMP,Door1,-0.39683463,-0.088771735,1,0,0,0.8101,optionLeft,30,5760,3,25,0,25,0,1,,,,,,,,,,,,,,,,,,,,,,,,,,,,,,,,,,,,,,,
,,,,,,,,2023-08-06_08h22.56.840,HF_wild_card,2022.2.4,Win32,59.98080614,60deb63539c4fb727e50bd52,64ce5acb97489d65b14ecc7a,64cf494b89902ad06bf25140,,,,,,,decisionTrl,resources/DY.BMP,resources/DG.BMP,Door4,0.29744707,-0.049693923,1,0,0,2.9372,optionRight,60,5820,3,26,0,26,0,1,,,,,,,,,,,,,,,,,,,,,,,,,,,,,,,,,,,,,,,
,,,,,,,,2023-08-06_08h22.56.840,HF_wild_card,2022.2.4,Win32,59.98080614,60deb63539c4fb727e50bd52,64ce5acb97489d65b14ecc7a,64cf494b89902ad06bf25140,,,,,,,decisionTrl,resources/DY.BMP,resources/DG.BMP,Door3,-0.353849136,0.024553842,1,0,0,0.7849,optionLeft,70,5890,3,27,0,27,0,1,,,,,,,,,,,,,,,,,,,,,,,,,,,,,,,,,,,,,,,
,,,,,,,,2023-08-06_08h22.56.840,HF_wild_card,2022.2.4,Win32,59.98080614,60deb63539c4fb727e50bd52,64ce5acb97489d65b14ecc7a,64cf494b89902ad06bf25140,,,,,,,decisionTrl,resources/DG.BMP,resources/DY.BMP,Door3,0.302657312,0.011527917,1,0,0,0.9956,optionRight,70,5960,3,28,0,28,0,1,,,,,,,,,,,,,,,,,,,,,,,,,,,,,,,,,,,,,,,
,,,,,,,,2023-08-06_08h22.56.840,HF_wild_card,2022.2.4,Win32,59.98080614,60deb63539c4fb727e50bd52,64ce5acb97489d65b14ecc7a,64cf494b89902ad06bf25140,,,,,,,sngl,resources/DG.BMP,resources/Empty.png,Door4,-0.266575445,0.031066751,1,0,0,1.0172,optionLeft,80,6040,3,29,0,29,0,1,,,,,,,,,,,,,,,,,,,,,,,,,,,,,,,,,,,,,,,
,,,,,,,,2023-08-06_08h22.56.840,HF_wild_card,2022.2.4,Win32,59.98080614,60deb63539c4fb727e50bd52,64ce5acb97489d65b14ecc7a,64cf494b89902ad06bf25140,,,,,,,decisionTrl,resources/DBN.BMP,resources/DB.BMP,WildCard_NonEx,-0.305653222,0.00240978,1,0,0,1.6071,optionLeft,55,6095,3,30,0,30,0,1,,,,,,,,,,,,,,,,,,,,,,,,,,,,,,,,,,,,,,,
,,,,,,,,2023-08-06_08h22.56.840,HF_wild_card,2022.2.4,Win32,59.98080614,60deb63539c4fb727e50bd52,64ce5acb97489d65b14ecc7a,64cf494b89902ad06bf25140,,,,,,,ctch,resources/DG.BMP,resources/DB.BMP,Door4,-0.318679148,-0.030155016,1,0,0,0.6918,optionLeft,60,6155,3,31,0,31,0,1,,,,,,,,,,,,,,,,,,,,,,,,,,,,,,,,,,,,,,,
,,,,,,,,2023-08-06_08h22.56.840,HF_wild_card,2022.2.4,Win32,59.98080614,60deb63539c4fb727e50bd52,64ce5acb97489d65b14ecc7a,64cf494b89902ad06bf25140,,,,,,,sngl,resources/Empty.png,resources/DBN.BMP,WildCard_NonEx,0.343037756,0.003712376,1,0,0,0.9256,optionRight,55,6210,3,32,0,32,0,1,,,,,,,,,,,,,,,,,,,,,,,,,,,,,,,,,,,,,,,
,,,,,,,,2023-08-06_08h22.56.840,HF_wild_card,2022.2.4,Win32,59.98080614,60deb63539c4fb727e50bd52,64ce5acb97489d65b14ecc7a,64cf494b89902ad06bf25140,,,,,,,decisionTrl,resources/DP.BMP,resources/DB.BMP,Door2,-0.353849136,-0.031457613,1,0,0,4.3785,optionLeft,20,6230,3,33,0,33,0,1,,,,,,,,,,,,,,,,,,,,,,,,,,,,,,,,,,,,,,,
,,,,,,,,2023-08-06_08h22.56.840,HF_wild_card,2022.2.4,Win32,59.98080614,60deb63539c4fb727e50bd52,64ce5acb97489d65b14ecc7a,64cf494b89902ad06bf25140,,,,,,,decisionTrl,resources/DG.BMP,resources/DY.BMP,Door3,0.24794856,-0.018431687,1,0,0,1.5095,optionRight,70,6300,3,34,0,34,0,1,,,,,,,,,,,,,,,,,,,,,,,,,,,,,,,,,,,,,,,
,,,,,,,,2023-08-06_08h22.56.840,HF_wild_card,2022.2.4,Win32,59.98080614,60deb63539c4fb727e50bd52,64ce5acb97489d65b14ecc7a,64cf494b89902ad06bf25140,,,,,,,decisionTrl,resources/DBN.BMP,resources/DY.BMP,Door3,0.313078152,-0.060114656,1,0,0,1.4294,optionRight,70,6370,3,35,0,35,0,1,,,,,,,,,,,,,,,,,,,,,,,,,,,,,,,,,,,,,,,
,,,,,,,,2023-08-06_08h22.56.840,HF_wild_card,2022.2.4,Win32,59.98080614,60deb63539c4fb727e50bd52,64ce5acb97489d65b14ecc7a,64cf494b89902ad06bf25140,,,,,,,ctch,resources/DG.BMP,resources/DB.BMP,Door4,-0.400742454,-0.004103237,1,0,0,1.4698,optionLeft,80,6450,3,36,0,36,0,1,,,,,,,,,,,,,,,,,,,,,,,,,,,,,,,,,,,,,,,
,,,,,,,,2023-08-06_08h22.56.840,HF_wild_card,2022.2.4,Win32,59.98080614,60deb63539c4fb727e50bd52,64ce5acb97489d65b14ecc7a,64cf494b89902ad06bf25140,,,,,,,decisionTrl,resources/DG.BMP,resources/DBN.BMP,Door4,-0.300442802,-0.000195413,1,0,0,1.0434,optionLeft,60,6510,3,37,0,37,0,1,,,,,,,,,,,,,,,,,,,,,,,,,,,,,,,,,,,,,,,
,,,,,,,,2023-08-06_08h22.56.840,HF_wild_card,2022.2.4,Win32,59.98080614,60deb63539c4fb727e50bd52,64ce5acb97489d65b14ecc7a,64cf494b89902ad06bf25140,,,,,,,sngl,resources/DY.BMP,resources/Empty.png,Door3,-0.372085375,-0.021036879,1,0,0,0.8354,optionLeft,70,6580,3,38,0,38,0,1,,,,,,,,,,,,,,,,,,,,,,,,,,,,,,,,,,,,,,,
,,,,,,,,2023-08-06_08h22.56.840,HF_wild_card,2022.2.4,Win32,59.98080614,60deb63539c4fb727e50bd52,64ce5acb97489d65b14ecc7a,64cf494b89902ad06bf25140,,,,,,,ctch,resources/DY.BMP,resources/DP.BMP,Door3,-0.375993199,0.003712376,1,0,0,0.9267,optionLeft,70,6650,3,39,0,39,0,1,,,,,,,,,,,,,,,,,,,,,,,,,,,,,,,,,,,,,,,
,,,,,,,,2023-08-06_08h22.56.840,HF_wild_card,2022.2.4,Win32,59.98080614,60deb63539c4fb727e50bd52,64ce5acb97489d65b14ecc7a,64cf494b89902ad06bf25140,,,,,,,sngl,resources/Empty.png,resources/DB.BMP,Door1,0.266184763,-0.069232793,1,0,0,2.4934,optionRight,30,6680,3,40,0,40,0,1,,,,,,,,,,,,,,,,,,,,,,,,,,,,,,,,,,,,,,,
,,,,,,,,2023-08-06_08h22.56.840,HF_wild_card,2022.2.4,Win32,59.98080614,60deb63539c4fb727e50bd52,64ce5acb97489d65b14ecc7a,64cf494b89902ad06bf25140,,,,,,,decisionTrl,resources/DY.BMP,resources/DG.BMP,Door4,0.234922528,0.011527917,1,0,0,1.2915,optionRight,80,6760,3,41,0,41,0,1,,,,,,,,,,,,,,,,,,,,,,,,,,,,,,,,,,,,,,,
,,,,,,,,2023-08-06_08h22.56.840,HF_wild_card,2022.2.4,Win32,59.98080614,60deb63539c4fb727e50bd52,64ce5acb97489d65b14ecc7a,64cf494b89902ad06bf25140,,,,,,,decisionTrl,resources/DBN.BMP,resources/DP.BMP,WildCard_NonEx,-0.33561279,0.016738301,1,0,0,1.7591,optionLeft,45,6805,3,42,0,42,0,1,,,,,,,,,,,,,,,,,,,,,,,,,,,,,,,,,,,,,,,
,,,,,,,,2023-08-06_08h22.56.840,HF_wild_card,2022.2.4,Win32,59.98080614,60deb63539c4fb727e50bd52,64ce5acb97489d65b14ecc7a,64cf494b89902ad06bf25140,,,,,,,decisionTrl,resources/DP.BMP,resources/DB.BMP,Door2,-0.349941312,-0.053601747,1,0,0,2.3368,optionLeft,40,6845,3,43,0,43,0,1,,,,,,,,,,,,,,,,,,,,,,,,,,,,,,,,,,,,,,,
,,,,,,,,2023-08-06_08h22.56.840,HF_wild_card,2022.2.4,Win32,59.98080614,60deb63539c4fb727e50bd52,64ce5acb97489d65b14ecc7a,64cf494b89902ad06bf25140,,,,,,,,,,,,,,,,,,,,,,,,,,2,0,2,0,1,,,,,,,,,,,,,,,,,,,,,,,,,,,,,,,,,,
,,,,,,,,2023-08-06_08h22.56.840,HF_wild_card,2022.2.4,Win32,59.98080614,60deb63539c4fb727e50bd52,64ce5acb97489d65b14ecc7a,64cf494b89902ad06bf25140,,,,,,,ctch,resources/DP.BMP,resources/DY.BMP,Door2,-0.184512139,-0.165624657,1,0,0,1.5383,optionLeft,40,6885,4,0,0,0,0,1,,,,,,,,,,,,,,,,,,,,,,,,,,,,,,,,,,,,,,,
,,,,,,,,2023-08-06_08h22.56.840,HF_wild_card,2022.2.4,Win32,59.98080614,60deb63539c4fb727e50bd52,64ce5acb97489d65b14ecc7a,64cf494b89902ad06bf25140,,,,,,,decisionTrl,resources/DR.BMP,resources/DG.BMP,Door4,0.448547721,-0.043180942,1,0,0,0.9374,optionRight,80,6965,4,1,0,1,0,1,,,,,,,,,,,,,,,,,,,,,,,,,,,,,,,,,,,,,,,
,,,,,,,,2023-08-06_08h22.56.840,HF_wild_card,2022.2.4,Win32,59.98080614,60deb63539c4fb727e50bd52,64ce5acb97489d65b14ecc7a,64cf494b89902ad06bf25140,,,,,,,decisionTrl,resources/DY.BMP,resources/DR.BMP,WildCard_Ex,0.395141458,-0.013221338,1,0,0,0.8594,optionRight,55,7020,4,2,0,2,0,1,,,,,,,,,,,,,,,,,,,,,,,,,,,,,,,,,,,,,,,
,,,,,,,,2023-08-06_08h22.56.840,HF_wild_card,2022.2.4,Win32,59.98080614,60deb63539c4fb727e50bd52,64ce5acb97489d65b14ecc7a,64cf494b89902ad06bf25140,,,,,,,sngl,resources/DR.BMP,resources/Empty.png,WildCard_Ex,-0.394229509,0.018040826,1,0,0,0.9425,optionLeft,45,7065,4,3,0,3,0,1,,,,,,,,,,,,,,,,,,,,,,,,,,,,,,,,,,,,,,,
,,,,,,,,2023-08-06_08h22.56.840,HF_wild_card,2022.2.4,Win32,59.98080614,60deb63539c4fb727e50bd52,64ce5acb97489d65b14ecc7a,64cf494b89902ad06bf25140,,,,,,,decisionTrl,resources/DP.BMP,resources/DB.BMP,Door1,0.324801482,-0.032760209,1,0,0,1.3853,optionRight,30,7095,4,4,0,4,0,1,,,,,,,,,,,,,,,,,,,,,,,,,,,,,,,,,,,,,,,
,,,,,,,,2023-08-06_08h22.56.840,HF_wild_card,2022.2.4,Win32,59.98080614,60deb63539c4fb727e50bd52,64ce5acb97489d65b14ecc7a,64cf494b89902ad06bf25140,,,,,,,decisionTrl,resources/DG.BMP,resources/DY.BMP,Door3,-0.017780335,-0.011918742,1,0,0,0.2943,optionRight,70,7165,4,5,0,5,0,1,,,,,,,,,,,,,,,,,,,,,,,,,,,,,,,,,,,,,,,
,,,,,,,,2023-08-06_08h22.56.840,HF_wild_card,2022.2.4,Win32,59.98080614,60deb63539c4fb727e50bd52,64ce5acb97489d65b14ecc7a,64cf494b89902ad06bf25140,,,,,,,ctch,resources/DP.BMP,resources/DY.BMP,Door3,0.333919548,0.024553842,1,0,0,0.8626,optionRight,70,7235,4,6,0,6,0,1,,,,,,,,,,,,,,,,,,,,,,,,,,,,,,,,,,,,,,,
,,,,,,,,2023-08-06_08h22.56.840,HF_wild_card,2022.2.4,Win32,59.98080614,60deb63539c4fb727e50bd52,64ce5acb97489d65b14ecc7a,64cf494b89902ad06bf25140,,,,,,,decisionTrl,resources/DR.BMP,resources/DB.BMP,WildCard_Ex,-0.22228732,-0.032760209,1,0,0,2.4018,optionLeft,55,7290,4,7,0,7,0,1,,,,,,,,,,,,,,,,,,,,,,,,,,,,,,,,,,,,,,,
,,,,,,,,2023-08-06_08h22.56.840,HF_wild_card,2022.2.4,Win32,59.98080614,60deb63539c4fb727e50bd52,64ce5acb97489d65b14ecc7a,64cf494b89902ad06bf25140,,,,,,,sngl,resources/DB.BMP,resources/Empty.png,Door1,-0.288719544,-0.044483538,1,0,0,1.1456,optionLeft,30,7320,4,8,0,8,0,1,,,,,,,,,,,,,,,,,,,,,,,,,,,,,,,,,,,,,,,
,,,,,,,,2023-08-06_08h22.56.840,HF_wild_card,2022.2.4,Win32,59.98080614,60deb63539c4fb727e50bd52,64ce5acb97489d65b14ecc7a,64cf494b89902ad06bf25140,,,,,,,decisionTrl,resources/DG.BMP,resources/DR.BMP,WildCard_Ex,0.314380713,-0.032760209,1,0,0,1.1197,optionRight,55,7375,4,9,0,9,0,1,,,,,,,,,,,,,,,,,,,,,,,,,,,,,,,,,,,,,,,
,,,,,,,,2023-08-06_08h22.56.840,HF_wild_card,2022.2.4,Win32,59.98080614,60deb63539c4fb727e50bd52,64ce5acb97489d65b14ecc7a,64cf494b89902ad06bf25140,,,,,,,sngl,resources/Empty.png,resources/DR.BMP,WildCard_Ex,0.457665787,-0.048391327,1,0,0,0.8502,optionRight,45,7420,4,10,0,10,0,1,,,,,,,,,,,,,,,,,,,,,,,,,,,,,,,,,,,,,,,
,,,,,,,,2023-08-06_08h22.56.840,HF_wild_card,2022.2.4,Win32,59.98080614,60deb63539c4fb727e50bd52,64ce5acb97489d65b14ecc7a,64cf494b89902ad06bf25140,,,,,,,ctch,resources/DY.BMP,resources/DP.BMP,Door3,-0.394229509,-0.04708873,1,0,0,1.1788,optionLeft,70,7490,4,11,0,11,0,1,,,,,,,,,,,,,,,,,,,,,,,,,,,,,,,,,,,,,,,
,,,,,,,,2023-08-06_08h22.56.840,HF_wild_card,2022.2.4,Win32,59.98080614,60deb63539c4fb727e50bd52,64ce5acb97489d65b14ecc7a,64cf494b89902ad06bf25140,,,,,,,decisionTrl,resources/DP.BMP,resources/DB.BMP,Door1,0.296144367,-0.062719884,1,0,0,3.009,optionRight,30,7520,4,12,0,12,0,1,,,,,,,,,,,,,,,,,,,,,,,,,,,,,,,,,,,,,,,
,,,,,,,,2023-08-06_08h22.56.840,HF_wild_card,2022.2.4,Win32,59.98080614,60deb63539c4fb727e50bd52,64ce5acb97489d65b14ecc7a,64cf494b89902ad06bf25140,,,,,,,ctch,resources/DG.BMP,resources/DB.BMP,Door4,-0.369480254,-0.014523934,1,0,0,0.8908,optionLeft,80,7600,4,13,0,13,0,1,,,,,,,,,,,,,,,,,,,,,,,,,,,,,,,,,,,,,,,
,,,,,,,,2023-08-06_08h22.56.840,HF_wild_card,2022.2.4,Win32,59.98080614,60deb63539c4fb727e50bd52,64ce5acb97489d65b14ecc7a,64cf494b89902ad06bf25140,,,,,,,decisionTrl,resources/DG.BMP,resources/DY.BMP,Door3,0.341735053,0.011527917,1,0,0,1.3809,optionRight,70,7670,4,14,0,14,0,1,,,,,,,,,,,,,,,,,,,,,,,,,,,,,,,,,,,,,,,
,,,,,,,,2023-08-06_08h22.56.840,HF_wild_card,2022.2.4,Win32,59.98080614,60deb63539c4fb727e50bd52,64ce5acb97489d65b14ecc7a,64cf494b89902ad06bf25140,,,,,,,sngl,resources/DG.BMP,resources/Empty.png,Door4,-0.398137261,-0.039273225,1,0,0,0.6592,optionLeft,60,7730,4,15,0,15,0,1,,,,,,,,,,,,,,,,,,,,,,,,,,,,,,,,,,,,,,,
,,,,,,,,2023-08-06_08h22.56.840,HF_wild_card,2022.2.4,Win32,59.98080614,60deb63539c4fb727e50bd52,64ce5acb97489d65b14ecc7a,64cf494b89902ad06bf25140,,,,,,,decisionTrl,resources/DR.BMP,resources/DP.BMP,WildCard_Ex,-0.291324665,-0.032760209,1,0,0,1.8509,optionLeft,55,7785,4,16,0,16,0,1,,,,,,,,,,,,,,,,,,,,,,,,,,,,,,,,,,,,,,,
,,,,,,,,2023-08-06_08h22.56.840,HF_wild_card,2022.2.4,Win32,59.98080614,60deb63539c4fb727e50bd52,64ce5acb97489d65b14ecc7a,64cf494b89902ad06bf25140,,,,,,,decisionTrl,resources/DB.BMP,resources/DP.BMP,Door1,-0.300442802,-0.071837985,1,0,0,4.1859,optionLeft,30,7815,4,17,0,17,0,1,,,,,,,,,,,,,,,,,,,,,,,,,,,,,,,,,,,,,,,
,,,,,,,,2023-08-06_08h22.56.840,HF_wild_card,2022.2.4,Win32,59.98080614,60deb63539c4fb727e50bd52,64ce5acb97489d65b14ecc7a,64cf494b89902ad06bf25140,,,,,,,ctch,resources/DB.BMP,resources/DG.BMP,Door4,0.382115426,-0.021036879,1,0,0,0.8261,optionRight,80,7895,4,18,0,18,0,1,,,,,,,,,,,,,,,,,,,,,,,,,,,,,,,,,,,,,,,
,,,,,,,,2023-08-06_08h22.56.840,HF_wild_card,2022.2.4,Win32,59.98080614,60deb63539c4fb727e50bd52,64ce5acb97489d65b14ecc7a,64cf494b89902ad06bf25140,,,,,,,ctch,resources/DG.BMP,resources/DB.BMP,Door4,-0.202748414,0.005014972,1,0,0,1.2852,optionLeft,60,7955,4,19,0,19,0,1,,,,,,,,,,,,,,,,,,,,,,,,,,,,,,,,,,,,,,,
,,,,,,,,2023-08-06_08h22.56.840,HF_wild_card,2022.2.4,Win32,59.98080614,60deb63539c4fb727e50bd52,64ce5acb97489d65b14ecc7a,64cf494b89902ad06bf25140,,,,,,,decisionTrl,resources/DP.BMP,resources/DR.BMP,WildCard_Ex,0.413377733,0.011527917,1,0,0,1.3833,optionRight,45,8000,4,20,0,20,0,1,,,,,,,,,,,,,,,,,,,,,,,,,,,,,,,,,,,,,,,
,,,,,,,,2023-08-06_08h22.56.840,HF_wild_card,2022.2.4,Win32,59.98080614,60deb63539c4fb727e50bd52,64ce5acb97489d65b14ecc7a,64cf494b89902ad06bf25140,,,,,,,decisionTrl,resources/DG.BMP,resources/DY.BMP,Door3,0.328709163,0.048000501,1,0,0,1.2766,optionRight,70,8070,4,21,0,21,0,1,,,,,,,,,,,,,,,,,,,,,,,,,,,,,,,,,,,,,,,
,,,,,,,,2023-08-06_08h22.56.840,HF_wild_card,2022.2.4,Win32,59.98080614,60deb63539c4fb727e50bd52,64ce5acb97489d65b14ecc7a,64cf494b89902ad06bf25140,,,,,,,decisionTrl,resources/DG.BMP,resources/DY.BMP,Door4,-0.333007669,-0.002800605,1,0,0,0.9933,optionLeft,60,8130,4,22,0,22,0,1,,,,,,,,,,,,,,,,,,,,,,,,,,,,,,,,,,,,,,,
,,,,,,,,2023-08-06_08h22.56.840,HF_wild_card,2022.2.4,Win32,59.98080614,60deb63539c4fb727e50bd52,64ce5acb97489d65b14ecc7a,64cf494b89902ad06bf25140,,,,,,,ctch,resources/DB.BMP,resources/DG.BMP,Door4,0.322196218,-0.001498009,1,0,0,0.8631,optionRight,80,8210,4,23,0,23,0,1,,,,,,,,,,,,,,,,,,,,,,,,,,,,,,,,,,,,,,,
,,,,,,,,2023-08-06_08h22.56.840,HF_wild_card,2022.2.4,Win32,59.98080614,60deb63539c4fb727e50bd52,64ce5acb97489d65b14ecc7a,64cf494b89902ad06bf25140,,,,,,,decisionTrl,resources/DB.BMP,resources/DP.BMP,Door2,0.504559104,-0.036667997,1,0,0,1.3428,optionRight,20,8230,4,24,0,24,0,1,,,,,,,,,,,,,,,,,,,,,,,,,,,,,,,,,,,,,,,
,,,,,,,,2023-08-06_08h22.56.840,HF_wild_card,2022.2.4,Win32,59.98080614,60deb63539c4fb727e50bd52,64ce5acb97489d65b14ecc7a,64cf494b89902ad06bf25140,,,,,,,decisionTrl,resources/DY.BMP,resources/DG.BMP,Door4,0.28702623,-0.101797625,1,0,0,1.9686,optionRight,60,8290,4,25,0,25,0,1,,,,,,,,,,,,,,,,,,,,,,,,,,,,,,,,,,,,,,,
,,,,,,,,2023-08-06_08h22.56.840,HF_wild_card,2022.2.4,Win32,59.98080614,60deb63539c4fb727e50bd52,64ce5acb97489d65b14ecc7a,64cf494b89902ad06bf25140,,,,,,,sngl,resources/DR.BMP,resources/Empty.png,WildCard_Ex,-0.405952838,-0.067930197,1,0,0,0.855,optionLeft,55,8345,4,26,0,26,0,1,,,,,,,,,,,,,,,,,,,,,,,,,,,,,,,,,,,,,,,
,,,,,,,,2023-08-06_08h22.56.840,HF_wild_card,2022.2.4,Win32,59.98080614,60deb63539c4fb727e50bd52,64ce5acb97489d65b14ecc7a,64cf494b89902ad06bf25140,,,,,,,decisionTrl,resources/DP.BMP,resources/DB.BMP,Door2,-0.418978692,-0.018431687,1,0,0,1.401,optionLeft,20,8365,4,27,0,27,0,1,,,,,,,,,,,,,,,,,,,,,,,,,,,,,,,,,,,,,,,
,,,,,,,,2023-08-06_08h22.56.840,HF_wild_card,2022.2.4,Win32,59.98080614,60deb63539c4fb727e50bd52,64ce5acb97489d65b14ecc7a,64cf494b89902ad06bf25140,,,,,,,decisionTrl,resources/DR.BMP,resources/DY.BMP,Door3,0.354761086,0.006317496,1,0,0,1.41,optionRight,70,8435,4,28,0,28,0,1,,,,,,,,,,,,,,,,,,,,,,,,,,,,,,,,,,,,,,,
,,,,,,,,2023-08-06_08h22.56.840,HF_wild_card,2022.2.4,Win32,59.98080614,60deb63539c4fb727e50bd52,64ce5acb97489d65b14ecc7a,64cf494b89902ad06bf25140,,,,,,,sngl,resources/Empty.png,resources/DB.BMP,Door1,0.323498778,0.010225321,1,0,0,0.9509,optionRight,30,8465,4,29,0,29,0,1,,,,,,,,,,,,,,,,,,,,,,,,,,,,,,,,,,,,,,,
,,,,,,,,2023-08-06_08h22.56.840,HF_wild_card,2022.2.4,Win32,59.98080614,60deb63539c4fb727e50bd52,64ce5acb97489d65b14ecc7a,64cf494b89902ad06bf25140,,,,,,,decisionTrl,resources/DB.BMP,resources/DR.BMP,WildCard_Ex,0.418588117,-0.018431687,1,0,0,1.4039,optionRight,55,8520,4,30,0,30,0,1,,,,,,,,,,,,,,,,,,,,,,,,,,,,,,,,,,,,,,,
,,,,,,,,2023-08-06_08h22.56.840,HF_wild_card,2022.2.4,Win32,59.98080614,60deb63539c4fb727e50bd52,64ce5acb97489d65b14ecc7a,64cf494b89902ad06bf25140,,,,,,,ctch,resources/DY.BMP,resources/DP.BMP,Door3,-0.377295795,-0.034062805,1,0,0,0.9098,optionLeft,70,8590,4,31,0,31,0,1,,,,,,,,,,,,,,,,,,,,,,,,,,,,,,,,,,,,,,,
,,,,,,,,2023-08-06_08h22.56.840,HF_wild_card,2022.2.4,Win32,59.98080614,60deb63539c4fb727e50bd52,64ce5acb97489d65b14ecc7a,64cf494b89902ad06bf25140,,,,,,,decisionTrl,resources/DY.BMP,resources/DG.BMP,Door4,0.397746579,-0.013221338,1,0,0,1.4955,optionRight,80,8670,4,32,0,32,0,1,,,,,,,,,,,,,,,,,,,,,,,,,,,,,,,,,,,,,,,
,,,,,,,,2023-08-06_08h22.56.840,HF_wild_card,2022.2.4,Win32,59.98080614,60deb63539c4fb727e50bd52,64ce5acb97489d65b14ecc7a,64cf494b89902ad06bf25140,,,,,,,decisionTrl,resources/DY.BMP,resources/DG.BMP,Door4,0.331314427,-0.006708358,1,0,0,0.9423,optionRight,60,8730,4,33,0,33,0,1,,,,,,,,,,,,,,,,,,,,,,,,,,,,,,,,,,,,,,,
,,,,,,,,2023-08-06_08h22.56.840,HF_wild_card,2022.2.4,Win32,59.98080614,60deb63539c4fb727e50bd52,64ce5acb97489d65b14ecc7a,64cf494b89902ad06bf25140,,,,,,,sngl,resources/DY.BMP,resources/Empty.png,Door3,-0.375993199,-0.074443213,1,0,0,0.7264,optionLeft,70,8800,4,34,0,34,0,1,,,,,,,,,,,,,,,,,,,,,,,,,,,,,,,,,,,,,,,
,,,,,,,,2023-08-06_08h22.56.840,HF_wild_card,2022.2.4,Win32,59.98080614,60deb63539c4fb727e50bd52,64ce5acb97489d65b14ecc7a,64cf494b89902ad06bf25140,,,,,,,sngl,resources/Empty.png,resources/DG.BMP,Door4,0.38862837,0.050605693,1,0,0,0.6822,optionRight,80,8880,4,35,0,35,0,1,,,,,,,,,,,,,,,,,,,,,,,,,,,,,,,,,,,,,,,
,,,,,,,,2023-08-06_08h22.56.840,HF_wild_card,2022.2.4,Win32,59.98080614,60deb63539c4fb727e50bd52,64ce5acb97489d65b14ecc7a,64cf494b89902ad06bf25140,,,,,,,sngl,resources/Empty.png,resources/DR.BMP,WildCard_Ex,0.363879151,0.024553842,1,0,0,0.7623,optionRight,55,8935,4,36,0,36,0,1,,,,,,,,,,,,,,,,,,,,,,,,,,,,,,,,,,,,,,,
,,,,,,,,2023-08-06_08h22.56.840,HF_wild_card,2022.2.4,Win32,59.98080614,60deb63539c4fb727e50bd52,64ce5acb97489d65b14ecc7a,64cf494b89902ad06bf25140,,,,,,,sngl,resources/DP.BMP,resources/Empty.png,Door2,-0.398137261,-0.086166543,1,0,0,0.7675,optionLeft,20,8955,4,37,0,37,0,1,,,,,,,,,,,,,,,,,,,,,,,,,,,,,,,,,,,,,,,
,,,,,,,,2023-08-06_08h22.56.840,HF_wild_card,2022.2.4,Win32,59.98080614,60deb63539c4fb727e50bd52,64ce5acb97489d65b14ecc7a,64cf494b89902ad06bf25140,,,,,,,decisionTrl,resources/DB.BMP,resources/DP.BMP,Door1,-0.333007669,-0.031457613,1,0,0,1.5922,optionLeft,30,8985,4,38,0,38,0,1,,,,,,,,,,,,,,,,,,,,,,,,,,,,,,,,,,,,,,,
,,,,,,,,2023-08-06_08h22.56.840,HF_wild_card,2022.2.4,Win32,59.98080614,60deb63539c4fb727e50bd52,64ce5acb97489d65b14ecc7a,64cf494b89902ad06bf25140,,,,,,,decisionTrl,resources/DY.BMP,resources/DG.BMP,Door3,-0.398137261,-0.017129162,1,0,0,1.4765,optionLeft,70,9055,4,39,0,39,0,1,,,,,,,,,,,,,,,,,,,,,,,,,,,,,,,,,,,,,,,
,,,,,,,,2023-08-06_08h22.56.840,HF_wild_card,2022.2.4,Win32,59.98080614,60deb63539c4fb727e50bd52,64ce5acb97489d65b14ecc7a,64cf494b89902ad06bf25140,,,,,,,sngl,resources/Empty.png,resources/DY.BMP,Door3,0.240132912,0.010225321,1,0,0,0.6763,optionRight,70,9125,4,40,0,40,0,1,,,,,,,,,,,,,,,,,,,,,,,,,,,,,,,,,,,,,,,
,,,,,,,,2023-08-06_08h22.56.840,HF_wild_card,2022.2.4,Win32,59.98080614,60deb63539c4fb727e50bd52,64ce5acb97489d65b14ecc7a,64cf494b89902ad06bf25140,,,,,,,decisionTrl,resources/DB.BMP,resources/DP.BMP,Door1,-0.336915386,-0.040575821,1,0,0,2.6243,optionLeft,30,9155,4,41,0,41,0,1,,,,,,,,,,,,,,,,,,,,,,,,,,,,,,,,,,,,,,,
,,,,,,,,2023-08-06_08h22.56.840,HF_wild_card,2022.2.4,Win32,59.98080614,60deb63539c4fb727e50bd52,64ce5acb97489d65b14ecc7a,64cf494b89902ad06bf25140,,,,,,,sngl,resources/Empty.png,resources/DP.BMP,Door2,0.264882274,0.05190829,1,0,0,2.9272,optionRight,40,9195,4,42,0,42,0,1,,,,,,,,,,,,,,,,,,,,,,,,,,,,,,,,,,,,,,,
,,,,,,,,2023-08-06_08h22.56.840,HF_wild_card,2022.2.4,Win32,59.98080614,60deb63539c4fb727e50bd52,64ce5acb97489d65b14ecc7a,64cf494b89902ad06bf25140,,,,,,,decisionTrl,resources/DP.BMP,resources/DB.BMP,Door1,-0.002149253,0.016738301,1,0,0,0.5443,optionRight,30,9225,4,43,0,43,0,1,,,,,,,,,,,,,,,,,,,,,,,,,,,,,,,,,,,,,,,
,,,,,,,,2023-08-06_08h22.56.840,HF_wild_card,2022.2.4,Win32,59.98080614,60deb63539c4fb727e50bd52,64ce5acb97489d65b14ecc7a,64cf494b89902ad06bf25140,,,,,,,,,,,,,,,,,,,,,,,,,,3,0,3,0,1,,,,,,,,,,,,,,,,,,,,,,,,,,,,,,,,,,
,,,,,,,,2023-08-06_08h22.56.840,HF_wild_card,2022.2.4,Win32,59.98080614,60deb63539c4fb727e50bd52,64ce5acb97489d65b14ecc7a,64cf494b89902ad06bf25140,,,,,,,decisionTrl,resources/DP.BMP,resources/DB.BMP,Door1,0.128110002,-0.09658724,1,0,0,1.8416,optionRight,30,9255,5,0,0,0,0,1,,,,,,,,,,,,,,,,,,,,,,,,,,,,,,,,,,,,,,,
,,,,,,,,2023-08-06_08h22.56.840,HF_wild_card,2022.2.4,Win32,59.98080614,60deb63539c4fb727e50bd52,64ce5acb97489d65b14ecc7a,64cf494b89902ad06bf25140,,,,,,,decisionTrl,resources/DB.BMP,resources/DP.BMP,Door1,-0.304350626,0.001107183,1,0,0,1.3291,optionLeft,30,9285,5,1,0,1,0,1,,,,,,,,,,,,,,,,,,,,,,,,,,,,,,,,,,,,,,,
,,,,,,,,2023-08-06_08h22.56.840,HF_wild_card,2022.2.4,Win32,59.98080614,60deb63539c4fb727e50bd52,64ce5acb97489d65b14ecc7a,64cf494b89902ad06bf25140,,,,,,,decisionTrl,resources/DY.BMP,resources/DG.BMP,Door3,-0.369480254,-0.030155016,1,0,0,1.3352,optionLeft,70,9355,5,2,0,2,0,1,,,,,,,,,,,,,,,,,,,,,,,,,,,,,,,,,,,,,,,
,,,,,,,,2023-08-06_08h22.56.840,HF_wild_card,2022.2.4,Win32,59.98080614,60deb63539c4fb727e50bd52,64ce5acb97489d65b14ecc7a,64cf494b89902ad06bf25140,,,,,,,decisionTrl,resources/DY.BMP,resources/DG.BMP,Door4,0.332616987,-0.030155016,1,0,0,0.6429,optionRight,60,9415,5,3,0,3,0,1,,,,,,,,,,,,,,,,,,,,,,,,,,,,,,,,,,,,,,,
,,,,,,,,2023-08-06_08h22.56.840,HF_wild_card,2022.2.4,Win32,59.98080614,60deb63539c4fb727e50bd52,64ce5acb97489d65b14ecc7a,64cf494b89902ad06bf25140,,,,,,,sngl,resources/Empty.png,resources/DY.BMP,Door3,0.340432492,0.007620093,1,0,0,0.7029,optionRight,70,9485,5,4,0,4,0,1,,,,,,,,,,,,,,,,,,,,,,,,,,,,,,,,,,,,,,,
,,,,,,,,2023-08-06_08h22.56.840,HF_wild_card,2022.2.4,Win32,59.98080614,60deb63539c4fb727e50bd52,64ce5acb97489d65b14ecc7a,64cf494b89902ad06bf25140,,,,,,,ctch,resources/DG.BMP,resources/DB.BMP,Door4,-0.286114352,-0.014523934,1,0,0,0.8423,optionLeft,80,9565,5,5,0,5,0,1,,,,,,,,,,,,,,,,,,,,,,,,,,,,,,,,,,,,,,,
,,,,,,,,2023-08-06_08h22.56.840,HF_wild_card,2022.2.4,Win32,59.98080614,60deb63539c4fb727e50bd52,64ce5acb97489d65b14ecc7a,64cf494b89902ad06bf25140,,,,,,,ctch,resources/DG.BMP,resources/DB.BMP,Door4,-0.319981744,-0.04708873,1,0,0,0.8928,optionLeft,80,9645,5,6,0,6,0,1,,,,,,,,,,,,,,,,,,,,,,,,,,,,,,,,,,,,,,,
,,,,,,,,2023-08-06_08h22.56.840,HF_wild_card,2022.2.4,Win32,59.98080614,60deb63539c4fb727e50bd52,64ce5acb97489d65b14ecc7a,64cf494b89902ad06bf25140,,,,,,,decisionTrl,resources/DP.BMP,resources/DB.BMP,Door1,0.391233634,0.027159035,1,0,0,2.0545,optionRight,30,9675,5,7,0,7,0,1,,,,,,,,,,,,,,,,,,,,,,,,,,,,,,,,,,,,,,,
,,,,,,,,2023-08-06_08h22.56.840,HF_wild_card,2022.2.4,Win32,59.98080614,60deb63539c4fb727e50bd52,64ce5acb97489d65b14ecc7a,64cf494b89902ad06bf25140,,,,,,,sngl,resources/DB.BMP,resources/Empty.png,Door1,-0.331705073,-0.024944668,1,0,0,0.943,optionLeft,30,9705,5,8,0,8,0,1,,,,,,,,,,,,,,,,,,,,,,,,,,,,,,,,,,,,,,,
,,,,,,,,2023-08-06_08h22.56.840,HF_wild_card,2022.2.4,Win32,59.98080614,60deb63539c4fb727e50bd52,64ce5acb97489d65b14ecc7a,64cf494b89902ad06bf25140,,,,,,,sngl,resources/Empty.png,resources/DR.BMP,WildCard_Ex,0.307867696,0.014133109,1,0,0,0.953,optionRight,45,9750,5,9,0,9,0,1,,,,,,,,,,,,,,,,,,,,,,,,,,,,,,,,,,,,,,,
,,,,,,,,2023-08-06_08h22.56.840,HF_wild_card,2022.2.4,Win32,59.98080614,60deb63539c4fb727e50bd52,64ce5acb97489d65b14ecc7a,64cf494b89902ad06bf25140,,,,,,,sngl,resources/Empty.png,resources/DB.BMP,Door1,0.361274031,-0.023642072,1,0,0,1.2425,optionRight,30,9780,5,10,0,10,0,1,,,,,,,,,,,,,,,,,,,,,,,,,,,,,,,,,,,,,,,
,,,,,,,,2023-08-06_08h22.56.840,HF_wild_card,2022.2.4,Win32,59.98080614,60deb63539c4fb727e50bd52,64ce5acb97489d65b14ecc7a,64cf494b89902ad06bf25140,,,,,,,ctch,resources/DY.BMP,resources/DP.BMP,Door3,-0.356454328,0.019343422,1,0,0,0.8906,optionLeft,70,9850,5,11,0,11,0,1,,,,,,,,,,,,,,,,,,,,,,,,,,,,,,,,,,,,,,,
,,,,,,,,2023-08-06_08h22.56.840,HF_wild_card,2022.2.4,Win32,59.98080614,60deb63539c4fb727e50bd52,64ce5acb97489d65b14ecc7a,64cf494b89902ad06bf25140,,,,,,,decisionTrl,resources/DG.BMP,resources/DY.BMP,Door3,0.375602481,-0.028852492,1,0,0,0.8426,optionRight,70,9920,5,12,0,12,0,1,,,,,,,,,,,,,,,,,,,,,,,,,,,,,,,,,,,,,,,
,,,,,,,,2023-08-06_08h22.56.840,HF_wild_card,2022.2.4,Win32,59.98080614,60deb63539c4fb727e50bd52,64ce5acb97489d65b14ecc7a,64cf494b89902ad06bf25140,,,,,,,decisionTrl,resources/DR.BMP,resources/DY.BMP,Door3,0.456363226,-0.053601747,1,0,0,1.1759,optionRight,70,9990,5,13,0,13,0,1,,,,,,,,,,,,,,,,,,,,,,,,,,,,,,,,,,,,,,,
,,,,,,,,2023-08-06_08h22.56.840,HF_wild_card,2022.2.4,Win32,59.98080614,60deb63539c4fb727e50bd52,64ce5acb97489d65b14ecc7a,64cf494b89902ad06bf25140,,,,,,,decisionTrl,resources/DG.BMP,resources/DR.BMP,Door4,-0.254852116,-0.045786134,1,0,0,1.3768,optionLeft,80,10070,5,14,0,14,0,1,,,,,,,,,,,,,,,,,,,,,,,,,,,,,,,,,,,,,,,
,,,,,,,,2023-08-06_08h22.56.840,HF_wild_card,2022.2.4,Win32,59.98080614,60deb63539c4fb727e50bd52,64ce5acb97489d65b14ecc7a,64cf494b89902ad06bf25140,,,,,,,decisionTrl,resources/DG.BMP,resources/DY.BMP,Door3,0.005666324,0.005014972,1,0,0,0.3597,optionRight,70,10140,5,15,0,15,0,1,,,,,,,,,,,,,,,,,,,,,,,,,,,,,,,,,,,,,,,
,,,,,,,,2023-08-06_08h22.56.840,HF_wild_card,2022.2.4,Win32,59.98080614,60deb63539c4fb727e50bd52,64ce5acb97489d65b14ecc7a,64cf494b89902ad06bf25140,,,,,,,decisionTrl,resources/DR.BMP,resources/DP.BMP,WildCard_Ex,-0.32128434,-0.005405833,1,0,0,0.9206,optionLeft,55,10195,5,16,0,16,0,1,,,,,,,,,,,,,,,,,,,,,,,,,,,,,,,,,,,,,,,
,,,,,,,,2023-08-06_08h22.56.840,HF_wild_card,2022.2.4,Win32,59.98080614,60deb63539c4fb727e50bd52,64ce5acb97489d65b14ecc7a,64cf494b89902ad06bf25140,,,,,,,decisionTrl,resources/DB.BMP,resources/DP.BMP,Door2,0.319591097,0.038882364,1,0,0,1.3447,optionRight,40,10235,5,17,0,17,0,1,,,,,,,,,,,,,,,,,,,,,,,,,,,,,,,,,,,,,,,
,,,,,,,,2023-08-06_08h22.56.840,HF_wild_card,2022.2.4,Win32,59.98080614,60deb63539c4fb727e50bd52,64ce5acb97489d65b14ecc7a,64cf494b89902ad06bf25140,,,,,,,sngl,resources/DR.BMP,resources/Empty.png,WildCard_Ex,-0.360362045,-0.00931355,1,0,0,0.7428,optionLeft,55,10290,5,18,0,18,0,1,,,,,,,,,,,,,,,,,,,,,,,,,,,,,,,,,,,,,,,
,,,,,,,,2023-08-06_08h22.56.840,HF_wild_card,2022.2.4,Win32,59.98080614,60deb63539c4fb727e50bd52,64ce5acb97489d65b14ecc7a,64cf494b89902ad06bf25140,,,,,,,decisionTrl,resources/DR.BMP,resources/DG.BMP,WildCard_Ex,-0.317376552,-0.050996555,1,0,0,1.1175,optionLeft,55,10345,5,19,0,19,0,1,,,,,,,,,,,,,,,,,,,,,,,,,,,,,,,,,,,,,,,
,,,,,,,,2023-08-06_08h22.56.840,HF_wild_card,2022.2.4,Win32,59.98080614,60deb63539c4fb727e50bd52,64ce5acb97489d65b14ecc7a,64cf494b89902ad06bf25140,,,,,,,decisionTrl,resources/DB.BMP,resources/DR.BMP,WildCard_Ex,0.349550701,-0.043180942,1,0,0,1.0084,optionRight,45,10390,5,20,0,20,0,1,,,,,,,,,,,,,,,,,,,,,,,,,,,,,,,,,,,,,,,
,,,,,,,,2023-08-06_08h22.56.840,HF_wild_card,2022.2.4,Win32,59.98080614,60deb63539c4fb727e50bd52,64ce5acb97489d65b14ecc7a,64cf494b89902ad06bf25140,,,,,,,decisionTrl,resources/DP.BMP,resources/DB.BMP,Door1,0.271395219,-0.010616146,1,0,0,1.4761,optionRight,30,10420,5,21,0,21,0,1,,,,,,,,,,,,,,,,,,,,,,,,,,,,,,,,,,,,,,,
,,,,,,,,2023-08-06_08h22.56.840,HF_wild_card,2022.2.4,Win32,59.98080614,60deb63539c4fb727e50bd52,64ce5acb97489d65b14ecc7a,64cf494b89902ad06bf25140,,,,,,,ctch,resources/DY.BMP,resources/DP.BMP,Door3,-0.316073955,-0.048391327,1,0,0,1.0003,optionLeft,70,10490,5,22,0,22,0,1,,,,,,,,,,,,,,,,,,,,,,,,,,,,,,,,,,,,,,,
,,,,,,,,2023-08-06_08h22.56.840,HF_wild_card,2022.2.4,Win32,59.98080614,60deb63539c4fb727e50bd52,64ce5acb97489d65b14ecc7a,64cf494b89902ad06bf25140,,,,,,,decisionTrl,resources/DY.BMP,resources/DG.BMP,Door3,-0.333007669,-0.006708358,1,0,0,1.493,optionLeft,70,10560,5,23,0,23,0,1,,,,,,,,,,,,,,,,,,,,,,,,,,,,,,,,,,,,,,,
,,,,,,,,2023-08-06_08h22.56.840,HF_wild_card,2022.2.4,Win32,59.98080614,60deb63539c4fb727e50bd52,64ce5acb97489d65b14ecc7a,64cf494b89902ad06bf25140,,,,,,,sngl,resources/DR.BMP,resources/Empty.png,WildCard_Ex,-0.198840661,-0.019734283,1,0,0,1.0266,optionLeft,45,10605,5,24,0,24,0,1,,,,,,,,,,,,,,,,,,,,,,,,,,,,,,,,,,,,,,,
,,,,,,,,2023-08-06_08h22.56.840,HF_wild_card,2022.2.4,Win32,59.98080614,60deb63539c4fb727e50bd52,64ce5acb97489d65b14ecc7a,64cf494b89902ad06bf25140,,,,,,,decisionTrl,resources/DB.BMP,resources/DP.BMP,Door1,-0.339520614,0.001107183,1,0,0,2.2919,optionLeft,30,10635,5,25,0,25,0,1,,,,,,,,,,,,,,,,,,,,,,,,,,,,,,,,,,,,,,,
,,,,,,,,2023-08-06_08h22.56.840,HF_wild_card,2022.2.4,Win32,59.98080614,60deb63539c4fb727e50bd52,64ce5acb97489d65b14ecc7a,64cf494b89902ad06bf25140,,,,,,,sngl,resources/DG.BMP,resources/Empty.png,Door4,-0.34082321,-0.070535389,1,0,0,0.8098,optionLeft,80,10715,5,26,0,26,0,1,,,,,,,,,,,,,,,,,,,,,,,,,,,,,,,,,,,,,,,
,,,,,,,,2023-08-06_08h22.56.840,HF_wild_card,2022.2.4,Win32,59.98080614,60deb63539c4fb727e50bd52,64ce5acb97489d65b14ecc7a,64cf494b89902ad06bf25140,,,,,,,decisionTrl,resources/DG.BMP,resources/DY.BMP,Door3,0.28702623,0.008922724,1,0,0,1.0264,optionRight,70,10785,5,27,0,27,0,1,,,,,,,,,,,,,,,,,,,,,,,,,,,,,,,,,,,,,,,
,,,,,,,,2023-08-06_08h22.56.840,HF_wild_card,2022.2.4,Win32,59.98080614,60deb63539c4fb727e50bd52,64ce5acb97489d65b14ecc7a,64cf494b89902ad06bf25140,,,,,,,decisionTrl,resources/DB.BMP,resources/DP.BMP,Door2,0.228409583,-0.035365401,1,0,0,2.0766,optionRight,40,10825,5,28,0,28,0,1,,,,,,,,,,,,,,,,,,,,,,,,,,,,,,,,,,,,,,,
,,,,,,,,2023-08-06_08h22.56.840,HF_wild_card,2022.2.4,Win32,59.98080614,60deb63539c4fb727e50bd52,64ce5acb97489d65b14ecc7a,64cf494b89902ad06bf25140,,,,,,,decisionTrl,resources/DY.BMP,resources/DR.BMP,Door3,0.005666324,0.014133109,1,0,0,0.3586,optionLeft,70,10895,5,29,0,29,0,1,,,,,,,,,,,,,,,,,,,,,,,,,,,,,,,,,,,,,,,
,,,,,,,,2023-08-06_08h22.56.840,HF_wild_card,2022.2.4,Win32,59.98080614,60deb63539c4fb727e50bd52,64ce5acb97489d65b14ecc7a,64cf494b89902ad06bf25140,,,,,,,decisionTrl,resources/DG.BMP,resources/DY.BMP,Door3,0.46027105,-0.028852492,1,0,0,1.2114,optionRight,70,10965,5,30,0,30,0,1,,,,,,,,,,,,,,,,,,,,,,,,,,,,,,,,,,,,,,,
,,,,,,,,2023-08-06_08h22.56.840,HF_wild_card,2022.2.4,Win32,59.98080614,60deb63539c4fb727e50bd52,64ce5acb97489d65b14ecc7a,64cf494b89902ad06bf25140,,,,,,,ctch,resources/DB.BMP,resources/DG.BMP,Door4,0.462876171,-0.049693923,1,0,0,0.8591,optionRight,60,11025,5,31,0,31,0,1,,,,,,,,,,,,,,,,,,,,,,,,,,,,,,,,,,,,,,,
,,,,,,,,2023-08-06_08h22.56.840,HF_wild_card,2022.2.4,Win32,59.98080614,60deb63539c4fb727e50bd52,64ce5acb97489d65b14ecc7a,64cf494b89902ad06bf25140,,,,,,,ctch,resources/DP.BMP,resources/DY.BMP,Door3,0.293539175,-0.014523934,1,0,0,1.0592,optionRight,70,11095,5,32,0,32,0,1,,,,,,,,,,,,,,,,,,,,,,,,,,,,,,,,,,,,,,,
,,,,,,,,2023-08-06_08h22.56.840,HF_wild_card,2022.2.4,Win32,59.98080614,60deb63539c4fb727e50bd52,64ce5acb97489d65b14ecc7a,64cf494b89902ad06bf25140,,,,,,,sngl,resources/Empty.png,resources/DP.BMP,Door2,0.322196218,0.019343422,1,0,0,1.0764,optionRight,20,11115,5,33,0,33,0,1,,,,,,,,,,,,,,,,,,,,,,,,,,,,,,,,,,,,,,,
,,,,,,,,2023-08-06_08h22.56.840,HF_wild_card,2022.2.4,Win32,59.98080614,60deb63539c4fb727e50bd52,64ce5acb97489d65b14ecc7a,64cf494b89902ad06bf25140,,,,,,,ctch,resources/DB.BMP,resources/DG.BMP,Door4,0.412075029,0.025856438,1,0,0,0.8612,optionRight,80,11195,5,34,0,34,0,1,,,,,,,,,,,,,,,,,,,,,,,,,,,,,,,,,,,,,,,
,,,,,,,,2023-08-06_08h22.56.840,HF_wild_card,2022.2.4,Win32,59.98080614,60deb63539c4fb727e50bd52,64ce5acb97489d65b14ecc7a,64cf494b89902ad06bf25140,,,,,,,decisionTrl,resources/DY.BMP,resources/DG.BMP,Door3,-0.325192057,0.023251246,1,0,0,1.4791,optionLeft,70,11265,5,35,0,35,0,1,,,,,,,,,,,,,,,,,,,,,,,,,,,,,,,,,,,,,,,
,,,,,,,,2023-08-06_08h22.56.840,HF_wild_card,2022.2.4,Win32,59.98080614,60deb63539c4fb727e50bd52,64ce5acb97489d65b14ecc7a,64cf494b89902ad06bf25140,,,,,,,decisionTrl,resources/DR.BMP,resources/DB.BMP,WildCard_Ex,-0.258759869,-0.069232793,1,0,0,1.1753,optionLeft,55,11320,5,36,0,36,0,1,,,,,,,,,,,,,,,,,,,,,,,,,,,,,,,,,,,,,,,
,,,,,,,,2023-08-06_08h22.56.840,HF_wild_card,2022.2.4,Win32,59.98080614,60deb63539c4fb727e50bd52,64ce5acb97489d65b14ecc7a,64cf494b89902ad06bf25140,,,,,,,sngl,resources/Empty.png,resources/DR.BMP,WildCard_Ex,0.240132912,-0.001498009,1,0,0,0.8085,optionRight,55,11375,5,37,0,37,0,1,,,,,,,,,,,,,,,,,,,,,,,,,,,,,,,,,,,,,,,
,,,,,,,,2023-08-06_08h22.56.840,HF_wild_card,2022.2.4,Win32,59.98080614,60deb63539c4fb727e50bd52,64ce5acb97489d65b14ecc7a,64cf494b89902ad06bf25140,,,,,,,decisionTrl,resources/DP.BMP,resources/DB.BMP,Door1,0.24794856,0.019343422,1,0,0,2.1518,optionRight,30,11405,5,38,0,38,0,1,,,,,,,,,,,,,,,,,,,,,,,,,,,,,,,,,,,,,,,
,,,,,,,,2023-08-06_08h22.56.840,HF_wild_card,2022.2.4,Win32,59.98080614,60deb63539c4fb727e50bd52,64ce5acb97489d65b14ecc7a,64cf494b89902ad06bf25140,,,,,,,sngl,resources/DP.BMP,resources/Empty.png,Door2,-0.201445853,-0.023642072,1,0,0,1.7661,optionLeft,40,11445,5,39,0,39,0,1,,,,,,,,,,,,,,,,,,,,,,,,,,,,,,,,,,,,,,,
,,,,,,,,2023-08-06_08h22.56.840,HF_wild_card,2022.2.4,Win32,59.98080614,60deb63539c4fb727e50bd52,64ce5acb97489d65b14ecc7a,64cf494b89902ad06bf25140,,,,,,,ctch,resources/DP.BMP,resources/DY.BMP,Door3,0.4003517,-0.002800605,1,0,0,1.0409,optionRight,70,11515,5,40,0,40,0,1,,,,,,,,,,,,,,,,,,,,,,,,,,,,,,,,,,,,,,,
,,,,,,,,2023-08-06_08h22.56.840,HF_wild_card,2022.2.4,Win32,59.98080614,60deb63539c4fb727e50bd52,64ce5acb97489d65b14ecc7a,64cf494b89902ad06bf25140,,,,,,,sngl,resources/DY.BMP,resources/Empty.png,Door3,-0.34082321,-0.036667997,1,0,0,0.8628,optionLeft,70,11585,5,41,0,41,0,1,,,,,,,,,,,,,,,,,,,,,,,,,,,,,,,,,,,,,,,
,,,,,,,,2023-08-06_08h22.56.840,HF_wild_card,2022.2.4,Win32,59.98080614,60deb63539c4fb727e50bd52,64ce5acb97489d65b14ecc7a,64cf494b89902ad06bf25140,,,,,,,sngl,resources/Empty.png,resources/DG.BMP,Door4,0.324801482,-0.011918742,1,0,0,0.9186,optionRight,60,11645,5,42,0,42,0,1,,,,,,,,,,,,,,,,,,,,,,,,,,,,,,,,,,,,,,,
,,,,,,,,2023-08-06_08h22.56.840,HF_wild_card,2022.2.4,Win32,59.98080614,60deb63539c4fb727e50bd52,64ce5acb97489d65b14ecc7a,64cf494b89902ad06bf25140,,,,,,,decisionTrl,resources/DP.BMP,resources/DR.BMP,WildCard_Ex,0.345642877,0.033671979,1,0,0,1.1703,optionRight,55,11700,5,43,0,43,0,1,,,,,,,,,,,,,,,,,,,,,,,,,,,,,,,,,,,,,,,
,,,,,,,,2023-08-06_08h22.56.840,HF_wild_card,2022.2.4,Win32,59.98080614,60deb63539c4fb727e50bd52,64ce5acb97489d65b14ecc7a,64cf494b89902ad06bf25140,,,,,,,,,,,,,,,,,,,,,,,,,,4,0,4,0,1,,,,,,,,,,,,,,,,,,,,,,,,,,,,,,,,,,
,,,,,,,,2023-08-06_08h22.56.840,HF_wild_card,2022.2.4,Win32,59.98080614,60deb63539c4fb727e50bd52,64ce5acb97489d65b14ecc7a,64cf494b89902ad06bf25140,,,,,,,decisionTrl,resources/DP.BMP,resources/DB.BMP,Door1,0.134622947,-0.230754249,1,0,0,2.1379,optionRight,30,11730,6,0,0,0,0,1,,,,,,,,,,,,,,,,,,,,,,,,,,,,,,,,,,,,,,,
,,,,,,,,2023-08-06_08h22.56.840,HF_wild_card,2022.2.4,Win32,59.98080614,60deb63539c4fb727e50bd52,64ce5acb97489d65b14ecc7a,64cf494b89902ad06bf25140,,,,,,,decisionTrl,resources/DP.BMP,resources/DB.BMP,Door1,0.284421038,-0.065325076,1,0,0,0.8707,optionRight,30,11760,6,1,0,1,0,1,,,,,,,,,,,,,,,,,,,,,,,,,,,,,,,,,,,,,,,
,,,,,,,,2023-08-06_08h22.56.840,HF_wild_card,2022.2.4,Win32,59.98080614,60deb63539c4fb727e50bd52,64ce5acb97489d65b14ecc7a,64cf494b89902ad06bf25140,,,,,,,sngl,resources/DG.BMP,resources/Empty.png,Door4,-0.404650242,-0.069232793,1,0,0,0.6289,optionLeft,60,11820,6,2,0,2,0,1,,,,,,,,,,,,,,,,,,,,,,,,,,,,,,,,,,,,,,,
,,,,,,,,2023-08-06_08h22.56.840,HF_wild_card,2022.2.4,Win32,59.98080614,60deb63539c4fb727e50bd52,64ce5acb97489d65b14ecc7a,64cf494b89902ad06bf25140,,,,,,,decisionTrl,resources/DP.BMP,resources/DR.BMP,WildCard_Ex,0.319591097,-0.045786134,1,0,0,1.3376,optionRight,55,11875,6,3,0,3,0,1,,,,,,,,,,,,,,,,,,,,,,,,,,,,,,,,,,,,,,,
,,,,,,,,2023-08-06_08h22.56.840,HF_wild_card,2022.2.4,Win32,59.98080614,60deb63539c4fb727e50bd52,64ce5acb97489d65b14ecc7a,64cf494b89902ad06bf25140,,,,,,,sngl,resources/Empty.png,resources/DR.BMP,WildCard_Ex,0.079914053,-0.002800605,1,0,0,0.9612,optionRight,45,11920,6,4,0,4,0,1,,,,,,,,,,,,,,,,,,,,,,,,,,,,,,,,,,,,,,,
,,,,,,,,2023-08-06_08h22.56.840,HF_wild_card,2022.2.4,Win32,59.98080614,60deb63539c4fb727e50bd52,64ce5acb97489d65b14ecc7a,64cf494b89902ad06bf25140,,,,,,,decisionTrl,resources/DR.BMP,resources/DP.BMP,WildCard_Ex,-0.27178583,-0.049693923,1,0,0,1.0927,optionLeft,45,11965,6,5,0,5,0,1,,,,,,,,,,,,,,,,,,,,,,,,,,,,,,,,,,,,,,,
,,,,,,,,2023-08-06_08h22.56.840,HF_wild_card,2022.2.4,Win32,59.98080614,60deb63539c4fb727e50bd52,64ce5acb97489d65b14ecc7a,64cf494b89902ad06bf25140,,,,,,,decisionTrl,resources/DG.BMP,resources/DY.BMP,Door3,0.262277082,-0.006708358,1,0,0,0.8615,optionRight,70,12035,6,6,0,6,0,1,,,,,,,,,,,,,,,,,,,,,,,,,,,,,,,,,,,,,,,
,,,,,,,,2023-08-06_08h22.56.840,HF_wild_card,2022.2.4,Win32,59.98080614,60deb63539c4fb727e50bd52,64ce5acb97489d65b14ecc7a,64cf494b89902ad06bf25140,,,,,,,ctch,resources/DY.BMP,resources/DP.BMP,Door3,-0.377295795,-0.05881206,1,0,0,0.8258,optionLeft,70,12105,6,7,0,7,0,1,,,,,,,,,,,,,,,,,,,,,,,,,,,,,,,,,,,,,,,
,,,,,,,,2023-08-06_08h22.56.840,HF_wild_card,2022.2.4,Win32,59.98080614,60deb63539c4fb727e50bd52,64ce5acb97489d65b14ecc7a,64cf494b89902ad06bf25140,,,,,,,sngl,resources/DR.BMP,resources/Empty.png,WildCard_Ex,-0.296535085,-0.060114656,1,0,0,0.7683,optionLeft,55,12160,6,8,0,8,0,1,,,,,,,,,,,,,,,,,,,,,,,,,,,,,,,,,,,,,,,
,,,,,,,,2023-08-06_08h22.56.840,HF_wild_card,2022.2.4,Win32,59.98080614,60deb63539c4fb727e50bd52,64ce5acb97489d65b14ecc7a,64cf494b89902ad06bf25140,,,,,,,sngl,resources/DB.BMP,resources/Empty.png,Door1,-0.276996215,-0.010616146,1,0,0,0.8262,optionLeft,30,12190,6,9,0,9,0,1,,,,,,,,,,,,,,,,,,,,,,,,,,,,,,,,,,,,,,,
,,,,,,,,2023-08-06_08h22.56.840,HF_wild_card,2022.2.4,Win32,59.98080614,60deb63539c4fb727e50bd52,64ce5acb97489d65b14ecc7a,64cf494b89902ad06bf25140,,,,,,,decisionTrl,resources/DG.BMP,resources/DY.BMP,Door3,-0.00084655,0.003712376,1,0,0,0.4412,optionRight,70,12260,6,10,0,10,0,1,,,,,,,,,,,,,,,,,,,,,,,,,,,,,,,,,,,,,,,
,,,,,,,,2023-08-06_08h22.56.840,HF_wild_card,2022.2.4,Win32,59.98080614,60deb63539c4fb727e50bd52,64ce5acb97489d65b14ecc7a,64cf494b89902ad06bf25140,,,,,,,ctch,resources/DG.BMP,resources/DB.BMP,Door4,-0.257457308,0.037579768,1,0,0,1.1693,optionLeft,60,12320,6,11,0,11,0,1,,,,,,,,,,,,,,,,,,,,,,,,,,,,,,,,,,,,,,,
,,,,,,,,2023-08-06_08h22.56.840,HF_wild_card,2022.2.4,Win32,59.98080614,60deb63539c4fb727e50bd52,64ce5acb97489d65b14ecc7a,64cf494b89902ad06bf25140,,,,,,,sngl,resources/Empty.png,resources/DG.BMP,Door4,0.258369186,0.041487485,1,0,0,0.8195,optionRight,80,12400,6,12,0,12,0,1,,,,,,,,,,,,,,,,,,,,,,,,,,,,,,,,,,,,,,,
,,,,,,,,2023-08-06_08h22.56.840,HF_wild_card,2022.2.4,Win32,59.98080614,60deb63539c4fb727e50bd52,64ce5acb97489d65b14ecc7a,64cf494b89902ad06bf25140,,,,,,,decisionTrl,resources/DG.BMP,resources/DY.BMP,Door3,0.332616987,0.020646054,1,0,0,1.1187,optionRight,70,12470,6,13,0,13,0,1,,,,,,,,,,,,,,,,,,,,,,,,,,,,,,,,,,,,,,,
,,,,,,,,2023-08-06_08h22.56.840,HF_wild_card,2022.2.4,Win32,59.98080614,60deb63539c4fb727e50bd52,64ce5acb97489d65b14ecc7a,64cf494b89902ad06bf25140,,,,,,,ctch,resources/DG.BMP,resources/DB.BMP,Door4,-0.299140277,-0.026247264,1,0,0,0.943,optionLeft,60,12530,6,14,0,14,0,1,,,,,,,,,,,,,,,,,,,,,,,,,,,,,,,,,,,,,,,
,,,,,,,,2023-08-06_08h22.56.840,HF_wild_card,2022.2.4,Win32,59.98080614,60deb63539c4fb727e50bd52,64ce5acb97489d65b14ecc7a,64cf494b89902ad06bf25140,,,,,,,decisionTrl,resources/DB.BMP,resources/DP.BMP,Door1,-0.314771324,-0.035365401,1,0,0,2.1035,optionLeft,30,12560,6,15,0,15,0,1,,,,,,,,,,,,,,,,,,,,,,,,,,,,,,,,,,,,,,,
,,,,,,,,2023-08-06_08h22.56.840,HF_wild_card,2022.2.4,Win32,59.98080614,60deb63539c4fb727e50bd52,64ce5acb97489d65b14ecc7a,64cf494b89902ad06bf25140,,,,,,,sngl,resources/DP.BMP,resources/Empty.png,Door2,-0.248339171,-0.035365401,1,0,0,1.0101,optionLeft,20,12580,6,16,0,16,0,1,,,,,,,,,,,,,,,,,,,,,,,,,,,,,,,,,,,,,,,
,,,,,,,,2023-08-06_08h22.56.840,HF_wild_card,2022.2.4,Win32,59.98080614,60deb63539c4fb727e50bd52,64ce5acb97489d65b14ecc7a,64cf494b89902ad06bf25140,,,,,,,ctch,resources/DP.BMP,resources/DY.BMP,Door3,0.340432492,-0.018431687,1,0,0,1.1104,optionRight,70,12650,6,17,0,17,0,1,,,,,,,,,,,,,,,,,,,,,,,,,,,,,,,,,,,,,,,
,,,,,,,,2023-08-06_08h22.56.840,HF_wild_card,2022.2.4,Win32,59.98080614,60deb63539c4fb727e50bd52,64ce5acb97489d65b14ecc7a,64cf494b89902ad06bf25140,,,,,,,decisionTrl,resources/DR.BMP,resources/DB.BMP,WildCard_Ex,-0.269180638,0.003712376,1,0,0,0.9949,optionLeft,55,12705,6,18,0,18,0,1,,,,,,,,,,,,,,,,,,,,,,,,,,,,,,,,,,,,,,,
,,,,,,,,2023-08-06_08h22.56.840,HF_wild_card,2022.2.4,Win32,59.98080614,60deb63539c4fb727e50bd52,64ce5acb97489d65b14ecc7a,64cf494b89902ad06bf25140,,,,,,,sngl,resources/Empty.png,resources/DB.BMP,Door1,0.219291446,-0.027549896,1,0,0,0.993,optionRight,30,12735,6,19,0,19,0,1,,,,,,,,,,,,,,,,,,,,,,,,,,,,,,,,,,,,,,,
,,,,,,,,2023-08-06_08h22.56.840,HF_wild_card,2022.2.4,Win32,59.98080614,60deb63539c4fb727e50bd52,64ce5acb97489d65b14ecc7a,64cf494b89902ad06bf25140,,,,,,,decisionTrl,resources/DY.BMP,resources/DG.BMP,Door3,-0.267878077,-0.06402248,1,0,0,1.1646,optionLeft,70,12805,6,20,0,20,0,1,,,,,,,,,,,,,,,,,,,,,,,,,,,,,,,,,,,,,,,
,,,,,,,,2023-08-06_08h22.56.840,HF_wild_card,2022.2.4,Win32,59.98080614,60deb63539c4fb727e50bd52,64ce5acb97489d65b14ecc7a,64cf494b89902ad06bf25140,,,,,,,sngl,resources/Empty.png,resources/DY.BMP,Door3,0.311775449,0.016738301,1,0,0,0.895,optionRight,70,12875,6,21,0,21,0,1,,,,,,,,,,,,,,,,,,,,,,,,,,,,,,,,,,,,,,,
,,,,,,,,2023-08-06_08h22.56.840,HF_wild_card,2022.2.4,Win32,59.98080614,60deb63539c4fb727e50bd52,64ce5acb97489d65b14ecc7a,64cf494b89902ad06bf25140,,,,,,,decisionTrl,resources/DY.BMP,resources/DG.BMP,Door3,0.013481972,-0.002800605,1,0,0,0.4089,optionLeft,70,12945,6,22,0,22,0,1,,,,,,,,,,,,,,,,,,,,,,,,,,,,,,,,,,,,,,,
,,,,,,,,2023-08-06_08h22.56.840,HF_wild_card,2022.2.4,Win32,59.98080614,60deb63539c4fb727e50bd52,64ce5acb97489d65b14ecc7a,64cf494b89902ad06bf25140,,,,,,,decisionTrl,resources/DB.BMP,resources/DP.BMP,Door1,-0.22098476,-0.054904271,1,0,0,1.6319,optionLeft,30,12975,6,23,0,23,0,1,,,,,,,,,,,,,,,,,,,,,,,,,,,,,,,,,,,,,,,
,,,,,,,,2023-08-06_08h22.56.840,HF_wild_card,2022.2.4,Win32,59.98080614,60deb63539c4fb727e50bd52,64ce5acb97489d65b14ecc7a,64cf494b89902ad06bf25140,,,,,,,decisionTrl,resources/DB.BMP,resources/DP.BMP,Door1,0.005666324,-0.000195413,1,0,0,0.3281,optionLeft,30,13005,6,24,0,24,0,1,,,,,,,,,,,,,,,,,,,,,,,,,,,,,,,,,,,,,,,
,,,,,,,,2023-08-06_08h22.56.840,HF_wild_card,2022.2.4,Win32,59.98080614,60deb63539c4fb727e50bd52,64ce5acb97489d65b14ecc7a,64cf494b89902ad06bf25140,,,,,,,decisionTrl,resources/DP.BMP,resources/DB.BMP,Door1,0.362576591,-0.030155016,1,0,0,1.0858,optionRight,30,13035,6,25,0,25,0,1,,,,,,,,,,,,,,,,,,,,,,,,,,,,,,,,,,,,,,,
,,,,,,,,2023-08-06_08h22.56.840,HF_wild_card,2022.2.4,Win32,59.98080614,60deb63539c4fb727e50bd52,64ce5acb97489d65b14ecc7a,64cf494b89902ad06bf25140,,,,,,,decisionTrl,resources/DB.BMP,resources/DP.BMP,Door1,-0.304350626,0.015435705,1,0,0,0.9686,optionLeft,30,13065,6,26,0,26,0,1,,,,,,,,,,,,,,,,,,,,,,,,,,,,,,,,,,,,,,,
,,,,,,,,2023-08-06_08h22.56.840,HF_wild_card,2022.2.4,Win32,59.98080614,60deb63539c4fb727e50bd52,64ce5acb97489d65b14ecc7a,64cf494b89902ad06bf25140,,,,,,,ctch,resources/DY.BMP,resources/DP.BMP,Door3,-0.454148752,0.006317496,1,0,0,0.8931,optionLeft,70,13135,6,27,0,27,0,1,,,,,,,,,,,,,,,,,,,,,,,,,,,,,,,,,,,,,,,
,,,,,,,,2023-08-06_08h22.56.840,HF_wild_card,2022.2.4,Win32,59.98080614,60deb63539c4fb727e50bd52,64ce5acb97489d65b14ecc7a,64cf494b89902ad06bf25140,,,,,,,decisionTrl,resources/DR.BMP,resources/DG.BMP,Door4,0.01087678,0.007620093,1,0,0,0.4092,optionRight,60,13195,6,28,0,28,0,1,,,,,,,,,,,,,,,,,,,,,,,,,,,,,,,,,,,,,,,
,,,,,,,,2023-08-06_08h22.56.840,HF_wild_card,2022.2.4,Win32,59.98080614,60deb63539c4fb727e50bd52,64ce5acb97489d65b14ecc7a,64cf494b89902ad06bf25140,,,,,,,decisionTrl,resources/DR.BMP,resources/DY.BMP,Door3,0.333919548,-0.050996555,1,0,0,1.7924,optionRight,70,13265,6,29,0,29,0,1,,,,,,,,,,,,,,,,,,,,,,,,,,,,,,,,,,,,,,,
,,,,,,,,2023-08-06_08h22.56.840,HF_wild_card,2022.2.4,Win32,59.98080614,60deb63539c4fb727e50bd52,64ce5acb97489d65b14ecc7a,64cf494b89902ad06bf25140,,,,,,,ctch,resources/DB.BMP,resources/DG.BMP,Door4,0.331314427,0.087078278,1,0,0,1.5334,optionRight,80,13345,6,30,0,30,0,1,,,,,,,,,,,,,,,,,,,,,,,,,,,,,,,,,,,,,,,
,,,,,,,,2023-08-06_08h22.56.840,HF_wild_card,2022.2.4,Win32,59.98080614,60deb63539c4fb727e50bd52,64ce5acb97489d65b14ecc7a,64cf494b89902ad06bf25140,,,,,,,decisionTrl,resources/DY.BMP,resources/DG.BMP,Door3,-0.437215038,-0.018431687,1,0,0,1.3539,optionLeft,70,13415,6,31,0,31,0,1,,,,,,,,,,,,,,,,,,,,,,,,,,,,,,,,,,,,,,,
,,,,,,,,2023-08-06_08h22.56.840,HF_wild_card,2022.2.4,Win32,59.98080614,60deb63539c4fb727e50bd52,64ce5acb97489d65b14ecc7a,64cf494b89902ad06bf25140,,,,,,,sngl,resources/DR.BMP,resources/Empty.png,WildCard_Ex,-0.377295795,-0.017129162,1,0,0,0.7204,optionLeft,45,13460,6,32,0,32,0,1,,,,,,,,,,,,,,,,,,,,,,,,,,,,,,,,,,,,,,,
,,,,,,,,2023-08-06_08h22.56.840,HF_wild_card,2022.2.4,Win32,59.98080614,60deb63539c4fb727e50bd52,64ce5acb97489d65b14ecc7a,64cf494b89902ad06bf25140,,,,,,,decisionTrl,resources/DP.BMP,resources/DB.BMP,Door1,0.349550701,-0.023642072,1,0,0,1.0467,optionRight,30,13490,6,33,0,33,0,1,,,,,,,,,,,,,,,,,,,,,,,,,,,,,,,,,,,,,,,
,,,,,,,,2023-08-06_08h22.56.840,HF_wild_card,2022.2.4,Win32,59.98080614,60deb63539c4fb727e50bd52,64ce5acb97489d65b14ecc7a,64cf494b89902ad06bf25140,,,,,,,sngl,resources/DY.BMP,resources/Empty.png,Door3,-0.339520614,-0.079653526,1,0,0,0.6864,optionLeft,70,13560,6,34,0,34,0,1,,,,,,,,,,,,,,,,,,,,,,,,,,,,,,,,,,,,,,,
,,,,,,,,2023-08-06_08h22.56.840,HF_wild_card,2022.2.4,Win32,59.98080614,60deb63539c4fb727e50bd52,64ce5acb97489d65b14ecc7a,64cf494b89902ad06bf25140,,,,,,,sngl,resources/Empty.png,resources/DP.BMP,Door2,0.38862837,-0.062719884,1,0,0,0.736,optionRight,40,13600,6,35,0,35,0,1,,,,,,,,,,,,,,,,,,,,,,,,,,,,,,,,,,,,,,,
,,,,,,,,2023-08-06_08h22.56.840,HF_wild_card,2022.2.4,Win32,59.98080614,60deb63539c4fb727e50bd52,64ce5acb97489d65b14ecc7a,64cf494b89902ad06bf25140,,,,,,,decisionTrl,resources/DG.BMP,resources/DR.BMP,Door4,-0.260062501,-0.010616146,1,0,0,2.6011,optionLeft,80,13680,6,36,0,36,0,1,,,,,,,,,,,,,,,,,,,,,,,,,,,,,,,,,,,,,,,
,,,,,,,,2023-08-06_08h22.56.840,HF_wild_card,2022.2.4,Win32,59.98080614,60deb63539c4fb727e50bd52,64ce5acb97489d65b14ecc7a,64cf494b89902ad06bf25140,,,,,,,decisionTrl,resources/DY.BMP,resources/DR.BMP,Door3,-0.237918402,-0.031457613,1,0,0,1.2261,optionLeft,70,13750,6,37,0,37,0,1,,,,,,,,,,,,,,,,,,,,,,,,,,,,,,,,,,,,,,,
,,,,,,,,2023-08-06_08h22.56.840,HF_wild_card,2022.2.4,Win32,59.98080614,60deb63539c4fb727e50bd52,64ce5acb97489d65b14ecc7a,64cf494b89902ad06bf25140,,,,,,,ctch,resources/DP.BMP,resources/DY.BMP,Door3,0.413377733,-0.018431687,1,0,0,0.8702,optionRight,70,13820,6,38,0,38,0,1,,,,,,,,,,,,,,,,,,,,,,,,,,,,,,,,,,,,,,,
,,,,,,,,2023-08-06_08h22.56.840,HF_wild_card,2022.2.4,Win32,59.98080614,60deb63539c4fb727e50bd52,64ce5acb97489d65b14ecc7a,64cf494b89902ad06bf25140,,,,,,,decisionTrl,resources/DY.BMP,resources/DG.BMP,Door3,-0.329099881,-0.06402248,1,0,0,1.9362,optionLeft,70,13890,6,39,0,39,0,1,,,,,,,,,,,,,,,,,,,,,,,,,,,,,,,,,,,,,,,
,,,,,,,,2023-08-06_08h22.56.840,HF_wild_card,2022.2.4,Win32,59.98080614,60deb63539c4fb727e50bd52,64ce5acb97489d65b14ecc7a,64cf494b89902ad06bf25140,,,,,,,sngl,resources/Empty.png,resources/DR.BMP,WildCard_Ex,-0.007359638,-0.021036879,1,0,0,0.3032,optionRight,55,13945,6,40,0,40,0,1,,,,,,,,,,,,,,,,,,,,,,,,,,,,,,,,,,,,,,,
,,,,,,,,2023-08-06_08h22.56.840,HF_wild_card,2022.2.4,Win32,59.98080614,60deb63539c4fb727e50bd52,64ce5acb97489d65b14ecc7a,64cf494b89902ad06bf25140,,,,,,,decisionTrl,resources/DG.BMP,resources/DY.BMP,Door3,0.336524811,-0.044483538,1,0,0,1.1865,optionRight,70,14015,6,41,0,41,0,1,,,,,,,,,,,,,,,,,,,,,,,,,,,,,,,,,,,,,,,
,,,,,,,,2023-08-06_08h22.56.840,HF_wild_card,2022.2.4,Win32,59.98080614,60deb63539c4fb727e50bd52,64ce5acb97489d65b14ecc7a,64cf494b89902ad06bf25140,,,,,,,decisionTrl,resources/DB.BMP,resources/DR.BMP,WildCard_Ex,0.391233634,-0.057509464,1,0,0,1.0757,optionRight,55,14070,6,42,0,42,0,1,,,,,,,,,,,,,,,,,,,,,,,,,,,,,,,,,,,,,,,
,,,,,,,,2023-08-06_08h22.56.840,HF_wild_card,2022.2.4,Win32,59.98080614,60deb63539c4fb727e50bd52,64ce5acb97489d65b14ecc7a,64cf494b89902ad06bf25140,,,,,,,ctch,resources/DB.BMP,resources/DG.BMP,Door4,0.401654403,-0.032760209,1,0,0,0.9755,optionRight,80,14150,6,43,0,43,0,1,,,,,,,,,,,,,,,,,,,,,,,,,,,,,,,,,,,,,,,
,,,,,,,,2023-08-06_08h22.56.840,HF_wild_card,2022.2.4,Win32,59.98080614,60deb63539c4fb727e50bd52,64ce5acb97489d65b14ecc7a,64cf494b89902ad06bf25140,,,,,,,,,,,,,,,,,,,,,,,,,,5,0,5,0,1,,,,,,,,,,,,,,,,,,,,,,,,,,,,,,,,,,
,,,,,,,,2023-08-06_08h22.56.840,HF_wild_card,2022.2.4,Win32,59.98080614,60deb63539c4fb727e50bd52,64ce5acb97489d65b14ecc7a,64cf494b89902ad06bf25140,,,,,,,decisionTrl,resources/DP.BMP,resources/DB.BMP,Door1,0.198449979,-0.163019464,1,0,0,1.4102,optionRight,30,14180,7,0,0,0,0,1,,,,,,,,,,,,,,,,,,,,,,,,,,,,,,,,,,,,,,,
,,,,,,,,2023-08-06_08h22.56.840,HF_wild_card,2022.2.4,Win32,59.98080614,60deb63539c4fb727e50bd52,64ce5acb97489d65b14ecc7a,64cf494b89902ad06bf25140,,,,,,,decisionTrl,resources/DP.BMP,resources/DB.BMP,Door1,0.339129932,-0.074443213,1,0,0,0.9047,optionRight,30,14210,7,1,0,1,0,1,,,,,,,,,,,,,,,,,,,,,,,,,,,,,,,,,,,,,,,
,,,,,,,,2023-08-06_08h22.56.840,HF_wild_card,2022.2.4,Win32,59.98080614,60deb63539c4fb727e50bd52,64ce5acb97489d65b14ecc7a,64cf494b89902ad06bf25140,,,,,,,decisionTrl,resources/DP.BMP,resources/DB.BMP,Door1,0.410772469,-0.082258719,1,0,0,0.8211,optionRight,30,14240,7,2,0,2,0,1,,,,,,,,,,,,,,,,,,,,,,,,,,,,,,,,,,,,,,,
,,,,,,,,2023-08-06_08h22.56.840,HF_wild_card,2022.2.4,Win32,59.98080614,60deb63539c4fb727e50bd52,64ce5acb97489d65b14ecc7a,64cf494b89902ad06bf25140,,,,,,,decisionTrl,resources/DY.BMP,resources/DG.BMP,Door3,-0.357756924,-0.037970593,1,0,0,0.8636,optionLeft,70,14310,7,3,0,3,0,1,,,,,,,,,,,,,,,,,,,,,,,,,,,,,,,,,,,,,,,
,,,,,,,,2023-08-06_08h22.56.840,HF_wild_card,2022.2.4,Win32,59.98080614,60deb63539c4fb727e50bd52,64ce5acb97489d65b14ecc7a,64cf494b89902ad06bf25140,,,,,,,decisionTrl,resources/DY.BMP,resources/DG.BMP,Door3,-0.426794305,-0.052299151,1,0,0,0.7397,optionLeft,70,14380,7,4,0,4,0,1,,,,,,,,,,,,,,,,,,,,,,,,,,,,,,,,,,,,,,,
,,,,,,,,2023-08-06_08h22.56.840,HF_wild_card,2022.2.4,Win32,59.98080614,60deb63539c4fb727e50bd52,64ce5acb97489d65b14ecc7a,64cf494b89902ad06bf25140,,,,,,,ctch,resources/DG.BMP,resources/DB.BMP,Door4,-0.314771324,0.034974576,1,0,0,1.4032,optionLeft,60,14440,7,5,0,5,0,1,,,,,,,,,,,,,,,,,,,,,,,,,,,,,,,,,,,,,,,
,,,,,,,,2023-08-06_08h22.56.840,HF_wild_card,2022.2.4,Win32,59.98080614,60deb63539c4fb727e50bd52,64ce5acb97489d65b14ecc7a,64cf494b89902ad06bf25140,,,,,,,decisionTrl,resources/DB.BMP,resources/DP.BMP,Door1,-0.249641732,-0.018431687,1,0,0,1.4807,optionLeft,30,14470,7,6,0,6,0,1,,,,,,,,,,,,,,,,,,,,,,,,,,,,,,,,,,,,,,,
,,,,,,,,2023-08-06_08h22.56.840,HF_wild_card,2022.2.4,Win32,59.98080614,60deb63539c4fb727e50bd52,64ce5acb97489d65b14ecc7a,64cf494b89902ad06bf25140,,,,,,,decisionTrl,resources/DB.BMP,resources/DP.BMP,Door1,-0.365572465,-0.023642072,1,0,0,1.2043,optionLeft,30,14500,7,7,0,7,0,1,,,,,,,,,,,,,,,,,,,,,,,,,,,,,,,,,,,,,,,
,,,,,,,,2023-08-06_08h22.56.840,HF_wild_card,2022.2.4,Win32,59.98080614,60deb63539c4fb727e50bd52,64ce5acb97489d65b14ecc7a,64cf494b89902ad06bf25140,,,,,,,decisionTrl,resources/DB.BMP,resources/DP.BMP,Door1,-0.359059521,-0.035365401,1,0,0,1.6245,optionLeft,30,14530,7,8,0,8,0,1,,,,,,,,,,,,,,,,,,,,,,,,,,,,,,,,,,,,,,,
,,,,,,,,2023-08-06_08h22.56.840,HF_wild_card,2022.2.4,Win32,59.98080614,60deb63539c4fb727e50bd52,64ce5acb97489d65b14ecc7a,64cf494b89902ad06bf25140,,,,,,,decisionTrl,resources/DY.BMP,resources/DG.BMP,Door3,-0.374690603,-0.041878346,1,0,0,1.0369,optionLeft,70,14600,7,9,0,9,0,1,,,,,,,,,,,,,,,,,,,,,,,,,,,,,,,,,,,,,,,
,,,,,,,,2023-08-06_08h22.56.840,HF_wild_card,2022.2.4,Win32,59.98080614,60deb63539c4fb727e50bd52,64ce5acb97489d65b14ecc7a,64cf494b89902ad06bf25140,,,,,,,decisionTrl,resources/DP.BMP,resources/DB.BMP,Door1,0.290933982,-0.044483538,1,0,0,1.7475,optionRight,30,14630,7,10,0,10,0,1,,,,,,,,,,,,,,,,,,,,,,,,,,,,,,,,,,,,,,,
,,,,,,,,2023-08-06_08h22.56.840,HF_wild_card,2022.2.4,Win32,59.98080614,60deb63539c4fb727e50bd52,64ce5acb97489d65b14ecc7a,64cf494b89902ad06bf25140,,,,,,,decisionTrl,resources/DG.BMP,resources/DY.BMP,Door3,0.296144367,-0.013221338,1,0,0,1.1782,optionRight,70,14700,7,11,0,11,0,1,,,,,,,,,,,,,,,,,,,,,,,,,,,,,,,,,,,,,,,
,,,,,,,,2023-08-06_08h22.56.840,HF_wild_card,2022.2.4,Win32,59.98080614,60deb63539c4fb727e50bd52,64ce5acb97489d65b14ecc7a,64cf494b89902ad06bf25140,,,,,,,decisionTrl,resources/DB.BMP,resources/DP.BMP,Door1,-0.313468727,0.011527917,1,0,0,1.9049,optionLeft,30,14730,7,12,0,12,0,1,,,,,,,,,,,,,,,,,,,,,,,,,,,,,,,,,,,,,,,
,,,,,,,,2023-08-06_08h22.56.840,HF_wild_card,2022.2.4,Win32,59.98080614,60deb63539c4fb727e50bd52,64ce5acb97489d65b14ecc7a,64cf494b89902ad06bf25140,,,,,,,ctch,resources/DY.BMP,resources/DP.BMP,Door3,-0.374690603,-0.019734283,1,0,0,0.823,optionLeft,70,14800,7,13,0,13,0,1,,,,,,,,,,,,,,,,,,,,,,,,,,,,,,,,,,,,,,,
,,,,,,,,2023-08-06_08h22.56.840,HF_wild_card,2022.2.4,Win32,59.98080614,60deb63539c4fb727e50bd52,64ce5acb97489d65b14ecc7a,64cf494b89902ad06bf25140,,,,,,,ctch,resources/DP.BMP,resources/DY.BMP,Door3,0.349550701,-0.092679452,1,0,0,0.8551,optionRight,70,14870,7,14,0,14,0,1,,,,,,,,,,,,,,,,,,,,,,,,,,,,,,,,,,,,,,,
,,,,,,,,2023-08-06_08h22.56.840,HF_wild_card,2022.2.4,Win32,59.98080614,60deb63539c4fb727e50bd52,64ce5acb97489d65b14ecc7a,64cf494b89902ad06bf25140,,,,,,,decisionTrl,resources/DG.BMP,resources/DY.BMP,Door3,0.453758249,-0.056206868,1,0,0,0.9956,optionRight,70,14940,7,15,0,15,0,1,,,,,,,,,,,,,,,,,,,,,,,,,,,,,,,,,,,,,,,
,,,,,,,,2023-08-06_08h22.56.840,HF_wild_card,2022.2.4,Win32,59.98080614,60deb63539c4fb727e50bd52,64ce5acb97489d65b14ecc7a,64cf494b89902ad06bf25140,,,,,,,decisionTrl,resources/DG.BMP,resources/DY.BMP,Door3,0.296144367,-0.021036879,1,0,0,1.0028,optionRight,70,15010,7,16,0,16,0,1,,,,,,,,,,,,,,,,,,,,,,,,,,,,,,,,,,,,,,,
,,,,,,,,2023-08-06_08h22.56.840,HF_wild_card,2022.2.4,Win32,59.98080614,60deb63539c4fb727e50bd52,64ce5acb97489d65b14ecc7a,64cf494b89902ad06bf25140,,,,,,,decisionTrl,resources/DY.BMP,resources/DG.BMP,Door3,-0.362967273,-0.032760209,1,0,0,1.2693,optionLeft,70,15080,7,17,0,17,0,1,,,,,,,,,,,,,,,,,,,,,,,,,,,,,,,,,,,,,,,
,,,,,,,,2023-08-06_08h22.56.840,HF_wild_card,2022.2.4,Win32,59.98080614,60deb63539c4fb727e50bd52,64ce5acb97489d65b14ecc7a,64cf494b89902ad06bf25140,,,,,,,ctch,resources/DB.BMP,resources/DG.BMP,Door4,0.341735053,0.008922724,1,0,0,1.1463,optionRight,60,15140,7,18,0,18,0,1,,,,,,,,,,,,,,,,,,,,,,,,,,,,,,,,,,,,,,,
,,,,,,,,2023-08-06_08h22.56.840,HF_wild_card,2022.2.4,Win32,59.98080614,60deb63539c4fb727e50bd52,64ce5acb97489d65b14ecc7a,64cf494b89902ad06bf25140,,,,,,,ctch,resources/DB.BMP,resources/DG.BMP,Door4,0.38602325,0.07144716,1,0,0,1.0712,optionRight,80,15220,7,19,0,19,0,1,,,,,,,,,,,,,,,,,,,,,,,,,,,,,,,,,,,,,,,
,,,,,,,,2023-08-06_08h22.56.840,HF_wild_card,2022.2.4,Win32,59.98080614,60deb63539c4fb727e50bd52,64ce5acb97489d65b14ecc7a,64cf494b89902ad06bf25140,,,,,,,decisionTrl,resources/DY.BMP,resources/DG.BMP,Door3,-0.514067995,-0.110915762,1,0,0,0.9027,optionLeft,70,15290,7,20,0,20,0,1,,,,,,,,,,,,,,,,,,,,,,,,,,,,,,,,,,,,,,,
,,,,,,,,2023-08-06_08h22.56.840,HF_wild_card,2022.2.4,Win32,59.98080614,60deb63539c4fb727e50bd52,64ce5acb97489d65b14ecc7a,64cf494b89902ad06bf25140,,,,,,,ctch,resources/DG.BMP,resources/DB.BMP,Door4,-0.254852116,-0.013221338,1,0,0,1.3117,optionLeft,60,15350,7,21,0,21,0,1,,,,,,,,,,,,,,,,,,,,,,,,,,,,,,,,,,,,,,,
,,,,,,,,2023-08-06_08h22.56.840,HF_wild_card,2022.2.4,Win32,59.98080614,60deb63539c4fb727e50bd52,64ce5acb97489d65b14ecc7a,64cf494b89902ad06bf25140,,,,,,,decisionTrl,resources/DG.BMP,resources/DY.BMP,Door3,0.436824392,-0.092679452,1,0,0,0.8798,optionRight,70,15420,7,22,0,22,0,1,,,,,,,,,,,,,,,,,,,,,,,,,,,,,,,,,,,,,,,
,,,,,,,,2023-08-06_08h22.56.840,HF_wild_card,2022.2.4,Win32,59.98080614,60deb63539c4fb727e50bd52,64ce5acb97489d65b14ecc7a,64cf494b89902ad06bf25140,,,,,,,ctch,resources/DY.BMP,resources/DP.BMP,Door3,-0.40204505,0.001107183,1,0,0,0.9955,optionLeft,70,15490,7,23,0,23,0,1,,,,,,,,,,,,,,,,,,,,,,,,,,,,,,,,,,,,,,,
,,,,,,,,2023-08-06_08h22.56.840,HF_wild_card,2022.2.4,Win32,59.98080614,60deb63539c4fb727e50bd52,64ce5acb97489d65b14ecc7a,64cf494b89902ad06bf25140,,,,,,,ctch,resources/DP.BMP,resources/DY.BMP,Door3,0.281815845,-0.006708358,1,0,0,0.9469,optionRight,70,15560,7,24,0,24,0,1,,,,,,,,,,,,,,,,,,,,,,,,,,,,,,,,,,,,,,,
,,,,,,,,2023-08-06_08h22.56.840,HF_wild_card,2022.2.4,Win32,59.98080614,60deb63539c4fb727e50bd52,64ce5acb97489d65b14ecc7a,64cf494b89902ad06bf25140,,,,,,,decisionTrl,resources/DP.BMP,resources/DB.BMP,Door1,0.520190258,0.067539336,1,0,0,1.8949,optionRight,30,15590,7,25,0,25,0,1,,,,,,,,,,,,,,,,,,,,,,,,,,,,,,,,,,,,,,,
,,,,,,,,2023-08-06_08h22.56.840,HF_wild_card,2022.2.4,Win32,59.98080614,60deb63539c4fb727e50bd52,64ce5acb97489d65b14ecc7a,64cf494b89902ad06bf25140,,,,,,,decisionTrl,resources/DB.BMP,resources/DP.BMP,Door1,-0.369480254,-0.018431687,1,0,0,2.1866,optionLeft,30,15620,7,26,0,26,0,1,,,,,,,,,,,,,,,,,,,,,,,,,,,,,,,,,,,,,,,
,,,,,,,,2023-08-06_08h22.56.840,HF_wild_card,2022.2.4,Win32,59.98080614,60deb63539c4fb727e50bd52,64ce5acb97489d65b14ecc7a,64cf494b89902ad06bf25140,,,,,,,decisionTrl,resources/DP.BMP,resources/DB.BMP,Door1,0.302657312,0.003712376,1,0,0,1.0644,optionRight,30,15650,7,27,0,27,0,1,,,,,,,,,,,,,,,,,,,,,,,,,,,,,,,,,,,,,,,
,,,,,,,,2023-08-06_08h22.56.840,HF_wild_card,2022.2.4,Win32,59.98080614,60deb63539c4fb727e50bd52,64ce5acb97489d65b14ecc7a,64cf494b89902ad06bf25140,,,,,,,decisionTrl,resources/DB.BMP,resources/DP.BMP,Door1,-0.32128434,-0.014523934,1,0,0,0.8289,optionLeft,30,15680,7,28,0,28,0,1,,,,,,,,,,,,,,,,,,,,,,,,,,,,,,,,,,,,,,,
,,,,,,,,2023-08-06_08h22.56.840,HF_wild_card,2022.2.4,Win32,59.98080614,60deb63539c4fb727e50bd52,64ce5acb97489d65b14ecc7a,64cf494b89902ad06bf25140,,,,,,,ctch,resources/DB.BMP,resources/DG.BMP,Door4,0.323498778,-0.014523934,1,0,0,0.8992,optionRight,80,15760,7,29,0,29,0,1,,,,,,,,,,,,,,,,,,,,,,,,,,,,,,,,,,,,,,,
,,,,,,,,2023-08-06_08h22.56.840,HF_wild_card,2022.2.4,Win32,59.98080614,60deb63539c4fb727e50bd52,64ce5acb97489d65b14ecc7a,64cf494b89902ad06bf25140,,,,,,,decisionTrl,resources/DY.BMP,resources/DG.BMP,Door3,-0.425491709,0.025856438,1,0,0,1.123,optionLeft,70,15830,7,30,0,30,0,1,,,,,,,,,,,,,,,,,,,,,,,,,,,,,,,,,,,,,,,
,,,,,,,,2023-08-06_08h22.56.840,HF_wild_card,2022.2.4,Win32,59.98080614,60deb63539c4fb727e50bd52,64ce5acb97489d65b14ecc7a,64cf494b89902ad06bf25140,,,,,,,decisionTrl,resources/DG.BMP,resources/DY.BMP,Door3,0.266184763,-0.031457613,1,0,0,0.8332,optionRight,70,15900,7,31,0,31,0,1,,,,,,,,,,,,,,,,,,,,,,,,,,,,,,,,,,,,,,,
,,,,,,,,2023-08-06_08h22.56.840,HF_wild_card,2022.2.4,Win32,59.98080614,60deb63539c4fb727e50bd52,64ce5acb97489d65b14ecc7a,64cf494b89902ad06bf25140,,,,,,,decisionTrl,resources/DG.BMP,resources/DY.BMP,Door3,0.349550701,-0.048391327,1,0,0,0.907,optionRight,70,15970,7,32,0,32,0,1,,,,,,,,,,,,,,,,,,,,,,,,,,,,,,,,,,,,,,,
,,,,,,,,2023-08-06_08h22.56.840,HF_wild_card,2022.2.4,Win32,59.98080614,60deb63539c4fb727e50bd52,64ce5acb97489d65b14ecc7a,64cf494b89902ad06bf25140,,,,,,,ctch,resources/DP.BMP,resources/DY.BMP,Door3,0.365181712,-0.061417252,1,0,0,0.9262,optionRight,70,16040,7,33,0,33,0,1,,,,,,,,,,,,,,,,,,,,,,,,,,,,,,,,,,,,,,,
,,,,,,,,2023-08-06_08h22.56.840,HF_wild_card,2022.2.4,Win32,59.98080614,60deb63539c4fb727e50bd52,64ce5acb97489d65b14ecc7a,64cf494b89902ad06bf25140,,,,,,,ctch,resources/DG.BMP,resources/DB.BMP,Door4,-0.310863607,0.031066751,1,0,0,1.2785,optionLeft,60,16100,7,34,0,34,0,1,,,,,,,,,,,,,,,,,,,,,,,,,,,,,,,,,,,,,,,
,,,,,,,,2023-08-06_08h22.56.840,HF_wild_card,2022.2.4,Win32,59.98080614,60deb63539c4fb727e50bd52,64ce5acb97489d65b14ecc7a,64cf494b89902ad06bf25140,,,,,,,ctch,resources/DY.BMP,resources/DP.BMP,Door3,-0.28481172,0.008922724,1,0,0,1.0123,optionLeft,70,16170,7,35,0,35,0,1,,,,,,,,,,,,,,,,,,,,,,,,,,,,,,,,,,,,,,,
,,,,,,,,2023-08-06_08h22.56.840,HF_wild_card,2022.2.4,Win32,59.98080614,60deb63539c4fb727e50bd52,64ce5acb97489d65b14ecc7a,64cf494b89902ad06bf25140,,,,,,,,,,,,,,,,,,,,,,,,,,6,0,6,0,1,,,,,,,,,,,,,,,,,,,,,,,,,,,,,,,,,,
,,,,,,,,2023-08-06_08h22.56.840,HF_wild_card,2022.2.4,Win32,59.98080614,60deb63539c4fb727e50bd52,64ce5acb97489d65b14ecc7a,64cf494b89902ad06bf25140,,,,,,,,,,,,,,,,,,,,,,,,,,,,,,,4,,,,,,,,,,,,,,,,,,,,,,,,,,,,,,,,,
,,,,,,,,2023-08-06_08h22.56.840,HF_wild_card,2022.2.4,Win32,59.98080614,60deb63539c4fb727e50bd52,64ce5acb97489d65b14ecc7a,64cf494b89902ad06bf25140,,,,,,,,,,,,,,,,,,,,,,,,,,,,,,,,,,,,,,,,,,,,,,,,,,,,,,,,,,,,,,,,
,,,,,,,,2023-08-06_08h22.56.840,HF_wild_card,2022.2.4,Win32,59.98080614,60deb63539c4fb727e50bd52,64ce5acb97489d65b14ecc7a,64cf494b89902ad06bf25140,,,,,,,,,,,,,,,,,,,,,,,,,,,,,,,,20,Door2,resources/DP.BMP,0,0,0,0,1,,,,,,,,,,,,,,,,,,,,,,,,,
,,,,,,,,2023-08-06_08h22.56.840,HF_wild_card,2022.2.4,Win32,59.98080614,60deb63539c4fb727e50bd52,64ce5acb97489d65b14ecc7a,64cf494b89902ad06bf25140,,,,,,,,,,,,,,,,,,,,,,,,,,,,,,,,80,Door3,resources/DY.BMP,1,0,1,0,1,,,,,,,,,,,,,,,,,,,,,,,,,
,,,,,,,,2023-08-06_08h22.56.840,HF_wild_card,2022.2.4,Win32,59.98080614,60deb63539c4fb727e50bd52,64ce5acb97489d65b14ecc7a,64cf494b89902ad06bf25140,,,,,,,,,,,,,,,,,,,,,,,,,,,,,,,,70,Door4,resources/DG.BMP,2,0,2,0,1,,,,,,,,,,,,,,,,,,,,,,,,,
,,,,,,,,2023-08-06_08h22.56.840,HF_wild_card,2022.2.4,Win32,59.98080614,60deb63539c4fb727e50bd52,64ce5acb97489d65b14ecc7a,64cf494b89902ad06bf25140,,,,,,,,,,,,,,,,,,,,,,,,,,,,,,,,40,WC_nonExtreme,resources/DBN.BMP,3,0,3,0,1,,,,,,,,,,,,,,,,,,,,,,,,,
,,,,,,,,2023-08-06_08h22.56.840,HF_wild_card,2022.2.4,Win32,59.98080614,60deb63539c4fb727e50bd52,64ce5acb97489d65b14ecc7a,64cf494b89902ad06bf25140,,,,,,,,,,,,,,,,,,,,,,,,,,,,,,,,55,WC_extreme,resources/DR.BMP,4,0,4,0,1,,,,,,,,,,,,,,,,,,,,,,,,,
,,,,,,,,2023-08-06_08h22.56.840,HF_wild_card,2022.2.4,Win32,59.98080614,60deb63539c4fb727e50bd52,64ce5acb97489d65b14ecc7a,64cf494b89902ad06bf25140,,,,,,,,,,,,,,,,,,,,,,,,,,,,,,,,30,Door1,resources/DB.BMP,5,0,5,0,1,,,,,,,,,,,,,,,,,,,,,,,,,
,,,,,,,,2023-08-06_08h22.56.840,HF_wild_card,2022.2.4,Win32,59.98080614,60deb63539c4fb727e50bd52,64ce5acb97489d65b14ecc7a,64cf494b89902ad06bf25140,,,,,,,,,,,,,,,,,,,,,,,,,,,,,,,,,,,,,,,,,,,,,,,,,,,,,,,,,,,,,,,,
