Condition,Low fixed image (Door1),Low risky image (Door2),High fixed image (Door3),High risky image (Door4),Extreme Wild Card,NonExtreme Wild Card,,date,expName,psychopyVersion,OS,frameRate,PROLIFIC_PID,STUDY_ID,SESSION_ID,mouse_2.x,mouse_2.y,mouse_2.leftButton,mouse_2.midButton,mouse_2.rightButton,mouse_2.clicked_name,Trial Type,Left Option Image,Right Option Image,Chosen Door,mouse.x,mouse.y,mouse.leftButton,mouse.midButton,mouse.rightButton,mouse.time,mouse.clicked_name,Feedback,Cumulative Reward,Block,trial.thisRepN,trial.thisTrialN,trial.thisN,trial.thisIndex,trial.ran,blocks.thisRepN,blocks.thisTrialN,blocks.thisN,blocks.thisIndex,blocks.ran,Money conversion,First Outcome Reported,Shown Door (First Outcome),Displayed Image (First Outcome),outcomes.thisRepN,outcomes.thisTrialN,outcomes.thisN,outcomes.thisIndex,outcomes.ran,judgments.thisRepN,judgments.thisTrialN,judgments.thisN,judgments.thisIndex,judgments.ran,freqMouse.x,freqMouse.y,freqMouse.leftButton,freqMouse.midButton,freqMouse.rightButton,freqMouse.clicked_name,FQJ for first outcome,FQJ for second outcome,Shown Door,Displayed Image,trials.thisRepN,trials.thisTrialN,trials.thisN,trials.thisIndex,trials.ran,judgBlock.thisRepN,judgBlock.thisTrialN,judgBlock.thisN,judgBlock.thisIndex,judgBlock.ran
0,resources/DY.BMP,resources/DBN.BMP,resources/DP.BMP,resources/DG.BMP,resources/DR.BMP,resources/DB.BMP,,2023-08-06_08h28.25.595,HF_wild_card,2022.2.4,Win32,61.21824304,5f27f6a0e13d4e05d048335f,64ce5acb97489d65b14ecc7a,64cf4b76ad8d311521dd96a8,,,,,,,,,,,,,,,,,,,,,,,,,,,,,,,,,,,,,,,,,,,,,,,,,,,,,,,,,,,,,,,,
,,,,,,,,2023-08-06_08h28.25.595,HF_wild_card,2022.2.4,Win32,61.21824304,5f27f6a0e13d4e05d048335f,64ce5acb97489d65b14ecc7a,64cf4b76ad8d311521dd96a8,0.000925926,-0.427777778,1,0,0,agree,,,,,,,,,,,,,,,,,,,,,,,,,,,,,,,,,,,,,,,,,,,,,,,,,,,,,,,,,,
,,,,,,,,2023-08-06_08h28.25.595,HF_wild_card,2022.2.4,Win32,61.21824304,5f27f6a0e13d4e05d048335f,64ce5acb97489d65b14ecc7a,64cf4b76ad8d311521dd96a8,,,,,,,,,,,,,,,,,,,,,,,,,,,,,,,,,,,,,,,,,,,,,,,,,,,,,,,,,,,,,,,,
,,,,,,,,2023-08-06_08h28.25.595,HF_wild_card,2022.2.4,Win32,61.21824304,5f27f6a0e13d4e05d048335f,64ce5acb97489d65b14ecc7a,64cf4b76ad8d311521dd96a8,,,,,,,ctch,resources/DY.BMP,resources/DG.BMP,Door4,0.357407407,-0.09537037,1,0,0,8.165,optionRight,80,80,1,0,0,0,0,1,,,,,,,,,,,,,,,,,,,,,,,,,,,,,,,,,,,,,,,
,,,,,,,,2023-08-06_08h28.25.595,HF_wild_card,2022.2.4,Win32,61.21824304,5f27f6a0e13d4e05d048335f,64ce5acb97489d65b14ecc7a,64cf4b76ad8d311521dd96a8,,,,,,,decisionTrl,resources/DP.BMP,resources/DR.BMP,WildCard_Ex,0.288888889,-0.039814815,1,0,0,7.449,optionRight,5,85,1,1,0,1,0,1,,,,,,,,,,,,,,,,,,,,,,,,,,,,,,,,,,,,,,,
,,,,,,,,2023-08-06_08h28.25.595,HF_wild_card,2022.2.4,Win32,61.21824304,5f27f6a0e13d4e05d048335f,64ce5acb97489d65b14ecc7a,64cf4b76ad8d311521dd96a8,,,,,,,sngl,resources/Empty.png,resources/DG.BMP,Door4,0.438888889,-0.049074074,1,0,0,2.0445,optionRight,60,145,1,2,0,2,0,1,,,,,,,,,,,,,,,,,,,,,,,,,,,,,,,,,,,,,,,
,,,,,,,,2023-08-06_08h28.25.595,HF_wild_card,2022.2.4,Win32,61.21824304,5f27f6a0e13d4e05d048335f,64ce5acb97489d65b14ecc7a,64cf4b76ad8d311521dd96a8,,,,,,,decisionTrl,resources/DR.BMP,resources/DP.BMP,Door3,0.325,-0.032407407,1,0,0,1.7314,optionRight,70,215,1,3,0,3,0,1,,,,,,,,,,,,,,,,,,,,,,,,,,,,,,,,,,,,,,,
,,,,,,,,2023-08-06_08h28.25.595,HF_wild_card,2022.2.4,Win32,61.21824304,5f27f6a0e13d4e05d048335f,64ce5acb97489d65b14ecc7a,64cf4b76ad8d311521dd96a8,,,,,,,ctch,resources/DG.BMP,resources/DY.BMP,Door4,-0.273148148,0,1,0,0,2.7593,optionLeft,80,295,1,4,0,4,0,1,,,,,,,,,,,,,,,,,,,,,,,,,,,,,,,,,,,,,,,
,,,,,,,,2023-08-06_08h28.25.595,HF_wild_card,2022.2.4,Win32,61.21824304,5f27f6a0e13d4e05d048335f,64ce5acb97489d65b14ecc7a,64cf4b76ad8d311521dd96a8,,,,,,,decisionTrl,resources/DR.BMP,resources/DY.BMP,Door1,0.352777778,-0.041666667,1,0,0,1.2025,optionRight,30,325,1,5,0,5,0,1,,,,,,,,,,,,,,,,,,,,,,,,,,,,,,,,,,,,,,,
,,,,,,,,2023-08-06_08h28.25.595,HF_wild_card,2022.2.4,Win32,61.21824304,5f27f6a0e13d4e05d048335f,64ce5acb97489d65b14ecc7a,64cf4b76ad8d311521dd96a8,,,,,,,decisionTrl,resources/DP.BMP,resources/DG.BMP,Door4,0.466666667,-0.040740741,1,0,0,1.4529,optionRight,80,405,1,6,0,6,0,1,,,,,,,,,,,,,,,,,,,,,,,,,,,,,,,,,,,,,,,
,,,,,,,,2023-08-06_08h28.25.595,HF_wild_card,2022.2.4,Win32,61.21824304,5f27f6a0e13d4e05d048335f,64ce5acb97489d65b14ecc7a,64cf4b76ad8d311521dd96a8,,,,,,,decisionTrl,resources/DG.BMP,resources/DP.BMP,Door4,-0.3,0.00462963,1,0,0,1.0232,optionLeft,80,485,1,7,0,7,0,1,,,,,,,,,,,,,,,,,,,,,,,,,,,,,,,,,,,,,,,
,,,,,,,,2023-08-06_08h28.25.595,HF_wild_card,2022.2.4,Win32,61.21824304,5f27f6a0e13d4e05d048335f,64ce5acb97489d65b14ecc7a,64cf4b76ad8d311521dd96a8,,,,,,,sngl,resources/DG.BMP,resources/Empty.png,Door4,-0.276851852,-0.007407407,1,0,0,0.909,optionLeft,80,565,1,8,0,8,0,1,,,,,,,,,,,,,,,,,,,,,,,,,,,,,,,,,,,,,,,
,,,,,,,,2023-08-06_08h28.25.595,HF_wild_card,2022.2.4,Win32,61.21824304,5f27f6a0e13d4e05d048335f,64ce5acb97489d65b14ecc7a,64cf4b76ad8d311521dd96a8,,,,,,,decisionTrl,resources/DG.BMP,resources/DP.BMP,Door4,-0.333333333,0,1,0,0,1.0291,optionLeft,60,625,1,9,0,9,0,1,,,,,,,,,,,,,,,,,,,,,,,,,,,,,,,,,,,,,,,
,,,,,,,,2023-08-06_08h28.25.595,HF_wild_card,2022.2.4,Win32,61.21824304,5f27f6a0e13d4e05d048335f,64ce5acb97489d65b14ecc7a,64cf4b76ad8d311521dd96a8,,,,,,,ctch,resources/DBN.BMP,resources/DP.BMP,Door2,-0.331481481,0.003703704,1,0,0,1.4801,optionLeft,20,645,1,10,0,10,0,1,,,,,,,,,,,,,,,,,,,,,,,,,,,,,,,,,,,,,,,
,,,,,,,,2023-08-06_08h28.25.595,HF_wild_card,2022.2.4,Win32,61.21824304,5f27f6a0e13d4e05d048335f,64ce5acb97489d65b14ecc7a,64cf4b76ad8d311521dd96a8,,,,,,,decisionTrl,resources/DP.BMP,resources/DG.BMP,Door3,-0.397222222,-0.008333333,1,0,0,1.0875,optionLeft,70,715,1,11,0,11,0,1,,,,,,,,,,,,,,,,,,,,,,,,,,,,,,,,,,,,,,,
,,,,,,,,2023-08-06_08h28.25.595,HF_wild_card,2022.2.4,Win32,61.21824304,5f27f6a0e13d4e05d048335f,64ce5acb97489d65b14ecc7a,64cf4b76ad8d311521dd96a8,,,,,,,decisionTrl,resources/DBN.BMP,resources/DY.BMP,Door1,0.312962963,-0.006481481,1,0,0,1.6703,optionRight,30,745,1,12,0,12,0,1,,,,,,,,,,,,,,,,,,,,,,,,,,,,,,,,,,,,,,,
,,,,,,,,2023-08-06_08h28.25.595,HF_wild_card,2022.2.4,Win32,61.21824304,5f27f6a0e13d4e05d048335f,64ce5acb97489d65b14ecc7a,64cf4b76ad8d311521dd96a8,,,,,,,decisionTrl,resources/DBN.BMP,resources/DY.BMP,Door2,-0.327777778,0.006481481,1,0,0,1.4617,optionLeft,40,785,1,13,0,13,0,1,,,,,,,,,,,,,,,,,,,,,,,,,,,,,,,,,,,,,,,
,,,,,,,,2023-08-06_08h28.25.595,HF_wild_card,2022.2.4,Win32,61.21824304,5f27f6a0e13d4e05d048335f,64ce5acb97489d65b14ecc7a,64cf4b76ad8d311521dd96a8,,,,,,,decisionTrl,resources/DG.BMP,resources/DP.BMP,Door3,0.363888889,-0.014814815,1,0,0,2.3483,optionRight,70,855,1,14,0,14,0,1,,,,,,,,,,,,,,,,,,,,,,,,,,,,,,,,,,,,,,,
,,,,,,,,2023-08-06_08h28.25.595,HF_wild_card,2022.2.4,Win32,61.21824304,5f27f6a0e13d4e05d048335f,64ce5acb97489d65b14ecc7a,64cf4b76ad8d311521dd96a8,,,,,,,sngl,resources/DBN.BMP,resources/Empty.png,Door2,-0.37037037,0.005555556,1,0,0,1.158,optionLeft,40,895,1,15,0,15,0,1,,,,,,,,,,,,,,,,,,,,,,,,,,,,,,,,,,,,,,,
,,,,,,,,2023-08-06_08h28.25.595,HF_wild_card,2022.2.4,Win32,61.21824304,5f27f6a0e13d4e05d048335f,64ce5acb97489d65b14ecc7a,64cf4b76ad8d311521dd96a8,,,,,,,sngl,resources/Empty.png,resources/DBN.BMP,Door2,0.302777778,-0.011111111,1,0,0,1.0317,optionRight,20,915,1,16,0,16,0,1,,,,,,,,,,,,,,,,,,,,,,,,,,,,,,,,,,,,,,,
,,,,,,,,2023-08-06_08h28.25.595,HF_wild_card,2022.2.4,Win32,61.21824304,5f27f6a0e13d4e05d048335f,64ce5acb97489d65b14ecc7a,64cf4b76ad8d311521dd96a8,,,,,,,decisionTrl,resources/DY.BMP,resources/DBN.BMP,Door1,-0.321296296,-0.005555556,1,0,0,1.1603,optionLeft,30,945,1,17,0,17,0,1,,,,,,,,,,,,,,,,,,,,,,,,,,,,,,,,,,,,,,,
,,,,,,,,2023-08-06_08h28.25.595,HF_wild_card,2022.2.4,Win32,61.21824304,5f27f6a0e13d4e05d048335f,64ce5acb97489d65b14ecc7a,64cf4b76ad8d311521dd96a8,,,,,,,decisionTrl,resources/DR.BMP,resources/DBN.BMP,Door2,0.347222222,-0.011111111,1,0,0,2.4996,optionRight,40,985,1,18,0,18,0,1,,,,,,,,,,,,,,,,,,,,,,,,,,,,,,,,,,,,,,,
,,,,,,,,2023-08-06_08h28.25.595,HF_wild_card,2022.2.4,Win32,61.21824304,5f27f6a0e13d4e05d048335f,64ce5acb97489d65b14ecc7a,64cf4b76ad8d311521dd96a8,,,,,,,sngl,resources/DR.BMP,resources/Empty.png,WildCard_Ex,-0.325925926,0.003703704,1,0,0,1.3369,optionLeft,95,1080,1,19,0,19,0,1,,,,,,,,,,,,,,,,,,,,,,,,,,,,,,,,,,,,,,,
,,,,,,,,2023-08-06_08h28.25.595,HF_wild_card,2022.2.4,Win32,61.21824304,5f27f6a0e13d4e05d048335f,64ce5acb97489d65b14ecc7a,64cf4b76ad8d311521dd96a8,,,,,,,decisionTrl,resources/DY.BMP,resources/DBN.BMP,Door1,-0.341666667,-0.005555556,1,0,0,1.2571,optionLeft,30,1110,1,20,0,20,0,1,,,,,,,,,,,,,,,,,,,,,,,,,,,,,,,,,,,,,,,
,,,,,,,,2023-08-06_08h28.25.595,HF_wild_card,2022.2.4,Win32,61.21824304,5f27f6a0e13d4e05d048335f,64ce5acb97489d65b14ecc7a,64cf4b76ad8d311521dd96a8,,,,,,,decisionTrl,resources/DP.BMP,resources/DG.BMP,Door4,0.336111111,-0.00462963,1,0,0,1.1785,optionRight,80,1190,1,21,0,21,0,1,,,,,,,,,,,,,,,,,,,,,,,,,,,,,,,,,,,,,,,
,,,,,,,,2023-08-06_08h28.25.595,HF_wild_card,2022.2.4,Win32,61.21824304,5f27f6a0e13d4e05d048335f,64ce5acb97489d65b14ecc7a,64cf4b76ad8d311521dd96a8,,,,,,,ctch,resources/DP.BMP,resources/DBN.BMP,Door3,-0.313888889,-0.005555556,1,0,0,1.6281,optionLeft,70,1260,1,22,0,22,0,1,,,,,,,,,,,,,,,,,,,,,,,,,,,,,,,,,,,,,,,
,,,,,,,,2023-08-06_08h28.25.595,HF_wild_card,2022.2.4,Win32,61.21824304,5f27f6a0e13d4e05d048335f,64ce5acb97489d65b14ecc7a,64cf4b76ad8d311521dd96a8,,,,,,,ctch,resources/DG.BMP,resources/DY.BMP,Door4,-0.350925926,-0.012037037,1,0,0,1.9246,optionLeft,60,1320,1,23,0,23,0,1,,,,,,,,,,,,,,,,,,,,,,,,,,,,,,,,,,,,,,,
,,,,,,,,2023-08-06_08h28.25.595,HF_wild_card,2022.2.4,Win32,61.21824304,5f27f6a0e13d4e05d048335f,64ce5acb97489d65b14ecc7a,64cf4b76ad8d311521dd96a8,,,,,,,sngl,resources/DY.BMP,resources/Empty.png,Door1,-0.25,-0.012037037,1,0,0,0.8681,optionLeft,30,1350,1,24,0,24,0,1,,,,,,,,,,,,,,,,,,,,,,,,,,,,,,,,,,,,,,,
,,,,,,,,2023-08-06_08h28.25.595,HF_wild_card,2022.2.4,Win32,61.21824304,5f27f6a0e13d4e05d048335f,64ce5acb97489d65b14ecc7a,64cf4b76ad8d311521dd96a8,,,,,,,sngl,resources/Empty.png,resources/DR.BMP,WildCard_Ex,0.362037037,-0.009259259,1,0,0,0.9976,optionRight,5,1355,1,25,0,25,0,1,,,,,,,,,,,,,,,,,,,,,,,,,,,,,,,,,,,,,,,
,,,,,,,,2023-08-06_08h28.25.595,HF_wild_card,2022.2.4,Win32,61.21824304,5f27f6a0e13d4e05d048335f,64ce5acb97489d65b14ecc7a,64cf4b76ad8d311521dd96a8,,,,,,,ctch,resources/DY.BMP,resources/DG.BMP,Door1,-0.312037037,-0.003703704,1,0,0,2.0227,optionLeft,30,1385,1,26,0,26,0,1,,,,,,,,,,,,,,,,,,,,,,,,,,,,,,,,,,,,,,,
,,,,,,,,2023-08-06_08h28.25.595,HF_wild_card,2022.2.4,Win32,61.21824304,5f27f6a0e13d4e05d048335f,64ce5acb97489d65b14ecc7a,64cf4b76ad8d311521dd96a8,,,,,,,decisionTrl,resources/DBN.BMP,resources/DY.BMP,Door2,-0.287962963,0.012962963,1,0,0,1.5431,optionLeft,40,1425,1,27,0,27,0,1,,,,,,,,,,,,,,,,,,,,,,,,,,,,,,,,,,,,,,,
,,,,,,,,2023-08-06_08h28.25.595,HF_wild_card,2022.2.4,Win32,61.21824304,5f27f6a0e13d4e05d048335f,64ce5acb97489d65b14ecc7a,64cf4b76ad8d311521dd96a8,,,,,,,ctch,resources/DBN.BMP,resources/DP.BMP,Door3,0.376851852,-0.018518519,1,0,0,2.3982,optionRight,70,1495,1,28,0,28,0,1,,,,,,,,,,,,,,,,,,,,,,,,,,,,,,,,,,,,,,,
,,,,,,,,2023-08-06_08h28.25.595,HF_wild_card,2022.2.4,Win32,61.21824304,5f27f6a0e13d4e05d048335f,64ce5acb97489d65b14ecc7a,64cf4b76ad8d311521dd96a8,,,,,,,decisionTrl,resources/DG.BMP,resources/DR.BMP,Door4,-0.302777778,0.001851852,1,0,0,1.3979,optionLeft,60,1555,1,29,0,29,0,1,,,,,,,,,,,,,,,,,,,,,,,,,,,,,,,,,,,,,,,
,,,,,,,,2023-08-06_08h28.25.595,HF_wild_card,2022.2.4,Win32,61.21824304,5f27f6a0e13d4e05d048335f,64ce5acb97489d65b14ecc7a,64cf4b76ad8d311521dd96a8,,,,,,,decisionTrl,resources/DY.BMP,resources/DBN.BMP,Door2,0.328703704,0.00462963,1,0,0,1.7863,optionRight,40,1595,1,30,0,30,0,1,,,,,,,,,,,,,,,,,,,,,,,,,,,,,,,,,,,,,,,
,,,,,,,,2023-08-06_08h28.25.595,HF_wild_card,2022.2.4,Win32,61.21824304,5f27f6a0e13d4e05d048335f,64ce5acb97489d65b14ecc7a,64cf4b76ad8d311521dd96a8,,,,,,,decisionTrl,resources/DBN.BMP,resources/DY.BMP,Door2,-0.315740741,0.006481481,1,0,0,1.1542,optionLeft,40,1635,1,31,0,31,0,1,,,,,,,,,,,,,,,,,,,,,,,,,,,,,,,,,,,,,,,
,,,,,,,,2023-08-06_08h28.25.595,HF_wild_card,2022.2.4,Win32,61.21824304,5f27f6a0e13d4e05d048335f,64ce5acb97489d65b14ecc7a,64cf4b76ad8d311521dd96a8,,,,,,,decisionTrl,resources/DY.BMP,resources/DR.BMP,WildCard_Ex,0.343518519,-0.00462963,1,0,0,1.6443,optionRight,95,1730,1,32,0,32,0,1,,,,,,,,,,,,,,,,,,,,,,,,,,,,,,,,,,,,,,,
,,,,,,,,2023-08-06_08h28.25.595,HF_wild_card,2022.2.4,Win32,61.21824304,5f27f6a0e13d4e05d048335f,64ce5acb97489d65b14ecc7a,64cf4b76ad8d311521dd96a8,,,,,,,sngl,resources/DP.BMP,resources/Empty.png,Door3,-0.35,0.00462963,1,0,0,1.0787,optionLeft,70,1800,1,33,0,33,0,1,,,,,,,,,,,,,,,,,,,,,,,,,,,,,,,,,,,,,,,
,,,,,,,,2023-08-06_08h28.25.595,HF_wild_card,2022.2.4,Win32,61.21824304,5f27f6a0e13d4e05d048335f,64ce5acb97489d65b14ecc7a,64cf4b76ad8d311521dd96a8,,,,,,,sngl,resources/Empty.png,resources/DY.BMP,Door1,0.390740741,-0.011111111,1,0,0,1.1137,optionRight,30,1830,1,34,0,34,0,1,,,,,,,,,,,,,,,,,,,,,,,,,,,,,,,,,,,,,,,
,,,,,,,,2023-08-06_08h28.25.595,HF_wild_card,2022.2.4,Win32,61.21824304,5f27f6a0e13d4e05d048335f,64ce5acb97489d65b14ecc7a,64cf4b76ad8d311521dd96a8,,,,,,,decisionTrl,resources/DG.BMP,resources/DP.BMP,Door4,-0.27037037,0.023148148,1,0,0,4.2443,optionLeft,80,1910,1,35,0,35,0,1,,,,,,,,,,,,,,,,,,,,,,,,,,,,,,,,,,,,,,,
,,,,,,,,2023-08-06_08h28.25.595,HF_wild_card,2022.2.4,Win32,61.21824304,5f27f6a0e13d4e05d048335f,64ce5acb97489d65b14ecc7a,64cf4b76ad8d311521dd96a8,,,,,,,decisionTrl,resources/DP.BMP,resources/DG.BMP,Door4,0.337962963,-0.00462963,1,0,0,1.1644,optionRight,80,1990,1,36,0,36,0,1,,,,,,,,,,,,,,,,,,,,,,,,,,,,,,,,,,,,,,,
,,,,,,,,2023-08-06_08h28.25.595,HF_wild_card,2022.2.4,Win32,61.21824304,5f27f6a0e13d4e05d048335f,64ce5acb97489d65b14ecc7a,64cf4b76ad8d311521dd96a8,,,,,,,sngl,resources/Empty.png,resources/DP.BMP,Door3,0.384259259,-0.005555556,1,0,0,0.8953,optionRight,70,2060,1,37,0,37,0,1,,,,,,,,,,,,,,,,,,,,,,,,,,,,,,,,,,,,,,,
,,,,,,,,2023-08-06_08h28.25.595,HF_wild_card,2022.2.4,Win32,61.21824304,5f27f6a0e13d4e05d048335f,64ce5acb97489d65b14ecc7a,64cf4b76ad8d311521dd96a8,,,,,,,decisionTrl,resources/DY.BMP,resources/DBN.BMP,Door2,0.334259259,0.008333333,1,0,0,1.3579,optionRight,20,2080,1,38,0,38,0,1,,,,,,,,,,,,,,,,,,,,,,,,,,,,,,,,,,,,,,,
,,,,,,,,2023-08-06_08h28.25.595,HF_wild_card,2022.2.4,Win32,61.21824304,5f27f6a0e13d4e05d048335f,64ce5acb97489d65b14ecc7a,64cf4b76ad8d311521dd96a8,,,,,,,decisionTrl,resources/DR.BMP,resources/DG.BMP,Door4,0.358333333,0.013888889,1,0,0,2.6375,optionRight,80,2160,1,39,0,39,0,1,,,,,,,,,,,,,,,,,,,,,,,,,,,,,,,,,,,,,,,
,,,,,,,,2023-08-06_08h28.25.595,HF_wild_card,2022.2.4,Win32,61.21824304,5f27f6a0e13d4e05d048335f,64ce5acb97489d65b14ecc7a,64cf4b76ad8d311521dd96a8,,,,,,,sngl,resources/Empty.png,resources/DR.BMP,WildCard_Ex,0.290740741,-0.010185185,1,0,0,1.2259,optionRight,95,2255,1,40,0,40,0,1,,,,,,,,,,,,,,,,,,,,,,,,,,,,,,,,,,,,,,,
,,,,,,,,2023-08-06_08h28.25.595,HF_wild_card,2022.2.4,Win32,61.21824304,5f27f6a0e13d4e05d048335f,64ce5acb97489d65b14ecc7a,64cf4b76ad8d311521dd96a8,,,,,,,sngl,resources/DR.BMP,resources/Empty.png,WildCard_Ex,-0.372222222,0.002777778,1,0,0,0.833,optionLeft,5,2260,1,41,0,41,0,1,,,,,,,,,,,,,,,,,,,,,,,,,,,,,,,,,,,,,,,
,,,,,,,,2023-08-06_08h28.25.595,HF_wild_card,2022.2.4,Win32,61.21824304,5f27f6a0e13d4e05d048335f,64ce5acb97489d65b14ecc7a,64cf4b76ad8d311521dd96a8,,,,,,,decisionTrl,resources/DBN.BMP,resources/DR.BMP,WildCard_Ex,0.308333333,0.007407407,1,0,0,1.2533,optionRight,5,2265,1,42,0,42,0,1,,,,,,,,,,,,,,,,,,,,,,,,,,,,,,,,,,,,,,,
,,,,,,,,2023-08-06_08h28.25.595,HF_wild_card,2022.2.4,Win32,61.21824304,5f27f6a0e13d4e05d048335f,64ce5acb97489d65b14ecc7a,64cf4b76ad8d311521dd96a8,,,,,,,ctch,resources/DP.BMP,resources/DBN.BMP,Door3,-0.401851852,0.007407407,1,0,0,1.4726,optionLeft,70,2335,1,43,0,43,0,1,,,,,,,,,,,,,,,,,,,,,,,,,,,,,,,,,,,,,,,
,,,,,,,,2023-08-06_08h28.25.595,HF_wild_card,2022.2.4,Win32,61.21824304,5f27f6a0e13d4e05d048335f,64ce5acb97489d65b14ecc7a,64cf4b76ad8d311521dd96a8,,,,,,,,,,,,,,,,,,,,,,,,,,0,0,0,0,1,,,,,,,,,,,,,,,,,,,,,,,,,,,,,,,,,,
,,,,,,,,2023-08-06_08h28.25.595,HF_wild_card,2022.2.4,Win32,61.21824304,5f27f6a0e13d4e05d048335f,64ce5acb97489d65b14ecc7a,64cf4b76ad8d311521dd96a8,,,,,,,sngl,resources/Empty.png,resources/DP.BMP,Door3,0.369444444,-0.112962963,1,0,0,2.2002,optionRight,70,2405,2,0,0,0,0,1,,,,,,,,,,,,,,,,,,,,,,,,,,,,,,,,,,,,,,,
,,,,,,,,2023-08-06_08h28.25.595,HF_wild_card,2022.2.4,Win32,61.21824304,5f27f6a0e13d4e05d048335f,64ce5acb97489d65b14ecc7a,64cf4b76ad8d311521dd96a8,,,,,,,decisionTrl,resources/DP.BMP,resources/DR.BMP,WildCard_Ex,0.362037037,-0.039814815,1,0,0,2.9709,optionRight,95,2500,2,1,0,1,0,1,,,,,,,,,,,,,,,,,,,,,,,,,,,,,,,,,,,,,,,
,,,,,,,,2023-08-06_08h28.25.595,HF_wild_card,2022.2.4,Win32,61.21824304,5f27f6a0e13d4e05d048335f,64ce5acb97489d65b14ecc7a,64cf4b76ad8d311521dd96a8,,,,,,,decisionTrl,resources/DG.BMP,resources/DP.BMP,Door4,-0.3,-0.012037037,1,0,0,1.1458,optionLeft,80,2580,2,2,0,2,0,1,,,,,,,,,,,,,,,,,,,,,,,,,,,,,,,,,,,,,,,
,,,,,,,,2023-08-06_08h28.25.595,HF_wild_card,2022.2.4,Win32,61.21824304,5f27f6a0e13d4e05d048335f,64ce5acb97489d65b14ecc7a,64cf4b76ad8d311521dd96a8,,,,,,,ctch,resources/DP.BMP,resources/DBN.BMP,Door3,-0.348148148,-0.007407407,1,0,0,1.4197,optionLeft,70,2650,2,3,0,3,0,1,,,,,,,,,,,,,,,,,,,,,,,,,,,,,,,,,,,,,,,
,,,,,,,,2023-08-06_08h28.25.595,HF_wild_card,2022.2.4,Win32,61.21824304,5f27f6a0e13d4e05d048335f,64ce5acb97489d65b14ecc7a,64cf4b76ad8d311521dd96a8,,,,,,,ctch,resources/DY.BMP,resources/DG.BMP,Door4,0.355555556,0,1,0,0,1.0579,optionRight,80,2730,2,4,0,4,0,1,,,,,,,,,,,,,,,,,,,,,,,,,,,,,,,,,,,,,,,
,,,,,,,,2023-08-06_08h28.25.595,HF_wild_card,2022.2.4,Win32,61.21824304,5f27f6a0e13d4e05d048335f,64ce5acb97489d65b14ecc7a,64cf4b76ad8d311521dd96a8,,,,,,,decisionTrl,resources/DR.BMP,resources/DBN.BMP,WildCard_Ex,-0.340740741,-0.000925926,1,0,0,1.1868,optionLeft,5,2735,2,5,0,5,0,1,,,,,,,,,,,,,,,,,,,,,,,,,,,,,,,,,,,,,,,
,,,,,,,,2023-08-06_08h28.25.595,HF_wild_card,2022.2.4,Win32,61.21824304,5f27f6a0e13d4e05d048335f,64ce5acb97489d65b14ecc7a,64cf4b76ad8d311521dd96a8,,,,,,,decisionTrl,resources/DP.BMP,resources/DG.BMP,Door4,0.344444444,-0.00462963,1,0,0,1.1551,optionRight,80,2815,2,6,0,6,0,1,,,,,,,,,,,,,,,,,,,,,,,,,,,,,,,,,,,,,,,
,,,,,,,,2023-08-06_08h28.25.595,HF_wild_card,2022.2.4,Win32,61.21824304,5f27f6a0e13d4e05d048335f,64ce5acb97489d65b14ecc7a,64cf4b76ad8d311521dd96a8,,,,,,,decisionTrl,resources/DY.BMP,resources/DBN.BMP,Door1,-0.308333333,0.009259259,1,0,0,2.339,optionLeft,30,2845,2,7,0,7,0,1,,,,,,,,,,,,,,,,,,,,,,,,,,,,,,,,,,,,,,,
,,,,,,,,2023-08-06_08h28.25.595,HF_wild_card,2022.2.4,Win32,61.21824304,5f27f6a0e13d4e05d048335f,64ce5acb97489d65b14ecc7a,64cf4b76ad8d311521dd96a8,,,,,,,sngl,resources/Empty.png,resources/DBN.BMP,Door2,0.40462963,-0.014814815,1,0,0,1.5771,optionRight,40,2885,2,8,0,8,0,1,,,,,,,,,,,,,,,,,,,,,,,,,,,,,,,,,,,,,,,
,,,,,,,,2023-08-06_08h28.25.595,HF_wild_card,2022.2.4,Win32,61.21824304,5f27f6a0e13d4e05d048335f,64ce5acb97489d65b14ecc7a,64cf4b76ad8d311521dd96a8,,,,,,,decisionTrl,resources/DY.BMP,resources/DBN.BMP,Door2,0.419444444,-0.002777778,1,0,0,1.3517,optionRight,40,2925,2,9,0,9,0,1,,,,,,,,,,,,,,,,,,,,,,,,,,,,,,,,,,,,,,,
,,,,,,,,2023-08-06_08h28.25.595,HF_wild_card,2022.2.4,Win32,61.21824304,5f27f6a0e13d4e05d048335f,64ce5acb97489d65b14ecc7a,64cf4b76ad8d311521dd96a8,,,,,,,decisionTrl,resources/DY.BMP,resources/DR.BMP,WildCard_Ex,0.34537037,-0.015740741,1,0,0,2.2614,optionRight,5,2930,2,10,0,10,0,1,,,,,,,,,,,,,,,,,,,,,,,,,,,,,,,,,,,,,,,
,,,,,,,,2023-08-06_08h28.25.595,HF_wild_card,2022.2.4,Win32,61.21824304,5f27f6a0e13d4e05d048335f,64ce5acb97489d65b14ecc7a,64cf4b76ad8d311521dd96a8,,,,,,,ctch,resources/DBN.BMP,resources/DP.BMP,Door3,0.372222222,0.003703704,1,0,0,1.2124,optionRight,70,3000,2,11,0,11,0,1,,,,,,,,,,,,,,,,,,,,,,,,,,,,,,,,,,,,,,,
,,,,,,,,2023-08-06_08h28.25.595,HF_wild_card,2022.2.4,Win32,61.21824304,5f27f6a0e13d4e05d048335f,64ce5acb97489d65b14ecc7a,64cf4b76ad8d311521dd96a8,,,,,,,ctch,resources/DY.BMP,resources/DG.BMP,Door4,0.466666667,-0.009259259,1,0,0,0.828,optionRight,80,3080,2,12,0,12,0,1,,,,,,,,,,,,,,,,,,,,,,,,,,,,,,,,,,,,,,,
,,,,,,,,2023-08-06_08h28.25.595,HF_wild_card,2022.2.4,Win32,61.21824304,5f27f6a0e13d4e05d048335f,64ce5acb97489d65b14ecc7a,64cf4b76ad8d311521dd96a8,,,,,,,ctch,resources/DBN.BMP,resources/DP.BMP,Door3,0.318518519,-0.005555556,1,0,0,1.2009,optionRight,70,3150,2,13,0,13,0,1,,,,,,,,,,,,,,,,,,,,,,,,,,,,,,,,,,,,,,,
,,,,,,,,2023-08-06_08h28.25.595,HF_wild_card,2022.2.4,Win32,61.21824304,5f27f6a0e13d4e05d048335f,64ce5acb97489d65b14ecc7a,64cf4b76ad8d311521dd96a8,,,,,,,decisionTrl,resources/DBN.BMP,resources/DY.BMP,Door2,-0.317592593,-0.012037037,1,0,0,1.3465,optionLeft,40,3190,2,14,0,14,0,1,,,,,,,,,,,,,,,,,,,,,,,,,,,,,,,,,,,,,,,
,,,,,,,,2023-08-06_08h28.25.595,HF_wild_card,2022.2.4,Win32,61.21824304,5f27f6a0e13d4e05d048335f,64ce5acb97489d65b14ecc7a,64cf4b76ad8d311521dd96a8,,,,,,,decisionTrl,resources/DG.BMP,resources/DR.BMP,Door4,-0.288888889,-0.019444444,1,0,0,1.0841,optionLeft,80,3270,2,15,0,15,0,1,,,,,,,,,,,,,,,,,,,,,,,,,,,,,,,,,,,,,,,
,,,,,,,,2023-08-06_08h28.25.595,HF_wild_card,2022.2.4,Win32,61.21824304,5f27f6a0e13d4e05d048335f,64ce5acb97489d65b14ecc7a,64cf4b76ad8d311521dd96a8,,,,,,,sngl,resources/Empty.png,resources/DR.BMP,WildCard_Ex,0.385185185,-0.012962963,1,0,0,0.7326,optionRight,95,3365,2,16,0,16,0,1,,,,,,,,,,,,,,,,,,,,,,,,,,,,,,,,,,,,,,,
,,,,,,,,2023-08-06_08h28.25.595,HF_wild_card,2022.2.4,Win32,61.21824304,5f27f6a0e13d4e05d048335f,64ce5acb97489d65b14ecc7a,64cf4b76ad8d311521dd96a8,,,,,,,decisionTrl,resources/DBN.BMP,resources/DY.BMP,Door1,0.382407407,-0.009259259,1,0,0,0.9175,optionRight,30,3395,2,17,0,17,0,1,,,,,,,,,,,,,,,,,,,,,,,,,,,,,,,,,,,,,,,
,,,,,,,,2023-08-06_08h28.25.595,HF_wild_card,2022.2.4,Win32,61.21824304,5f27f6a0e13d4e05d048335f,64ce5acb97489d65b14ecc7a,64cf4b76ad8d311521dd96a8,,,,,,,decisionTrl,resources/DY.BMP,resources/DBN.BMP,Door2,0.299074074,0.007407407,1,0,0,1.1115,optionRight,40,3435,2,18,0,18,0,1,,,,,,,,,,,,,,,,,,,,,,,,,,,,,,,,,,,,,,,
,,,,,,,,2023-08-06_08h28.25.595,HF_wild_card,2022.2.4,Win32,61.21824304,5f27f6a0e13d4e05d048335f,64ce5acb97489d65b14ecc7a,64cf4b76ad8d311521dd96a8,,,,,,,decisionTrl,resources/DP.BMP,resources/DG.BMP,Door4,0.342592593,0.006481481,1,0,0,2.3281,optionRight,60,3495,2,19,0,19,0,1,,,,,,,,,,,,,,,,,,,,,,,,,,,,,,,,,,,,,,,
,,,,,,,,2023-08-06_08h28.25.595,HF_wild_card,2022.2.4,Win32,61.21824304,5f27f6a0e13d4e05d048335f,64ce5acb97489d65b14ecc7a,64cf4b76ad8d311521dd96a8,,,,,,,decisionTrl,resources/DBN.BMP,resources/DY.BMP,Door1,0.293518519,0.007407407,1,0,0,1.4914,optionRight,30,3525,2,20,0,20,0,1,,,,,,,,,,,,,,,,,,,,,,,,,,,,,,,,,,,,,,,
,,,,,,,,2023-08-06_08h28.25.595,HF_wild_card,2022.2.4,Win32,61.21824304,5f27f6a0e13d4e05d048335f,64ce5acb97489d65b14ecc7a,64cf4b76ad8d311521dd96a8,,,,,,,decisionTrl,resources/DBN.BMP,resources/DR.BMP,WildCard_Ex,0.442592593,-0.000925926,1,0,0,1.1932,optionRight,5,3530,2,21,0,21,0,1,,,,,,,,,,,,,,,,,,,,,,,,,,,,,,,,,,,,,,,
,,,,,,,,2023-08-06_08h28.25.595,HF_wild_card,2022.2.4,Win32,61.21824304,5f27f6a0e13d4e05d048335f,64ce5acb97489d65b14ecc7a,64cf4b76ad8d311521dd96a8,,,,,,,decisionTrl,resources/DP.BMP,resources/DG.BMP,Door4,0.296296296,0.007407407,1,0,0,0.8216,optionRight,80,3610,2,22,0,22,0,1,,,,,,,,,,,,,,,,,,,,,,,,,,,,,,,,,,,,,,,
,,,,,,,,2023-08-06_08h28.25.595,HF_wild_card,2022.2.4,Win32,61.21824304,5f27f6a0e13d4e05d048335f,64ce5acb97489d65b14ecc7a,64cf4b76ad8d311521dd96a8,,,,,,,decisionTrl,resources/DG.BMP,resources/DP.BMP,Door4,-0.29537037,0.003703704,1,0,0,1.0118,optionLeft,80,3690,2,23,0,23,0,1,,,,,,,,,,,,,,,,,,,,,,,,,,,,,,,,,,,,,,,
,,,,,,,,2023-08-06_08h28.25.595,HF_wild_card,2022.2.4,Win32,61.21824304,5f27f6a0e13d4e05d048335f,64ce5acb97489d65b14ecc7a,64cf4b76ad8d311521dd96a8,,,,,,,decisionTrl,resources/DG.BMP,resources/DP.BMP,Door4,-0.338888889,0.008333333,1,0,0,0.8413,optionLeft,60,3750,2,24,0,24,0,1,,,,,,,,,,,,,,,,,,,,,,,,,,,,,,,,,,,,,,,
,,,,,,,,2023-08-06_08h28.25.595,HF_wild_card,2022.2.4,Win32,61.21824304,5f27f6a0e13d4e05d048335f,64ce5acb97489d65b14ecc7a,64cf4b76ad8d311521dd96a8,,,,,,,sngl,resources/Empty.png,resources/DR.BMP,WildCard_Ex,0.389814815,-0.003703704,1,0,0,0.9309,optionRight,5,3755,2,25,0,25,0,1,,,,,,,,,,,,,,,,,,,,,,,,,,,,,,,,,,,,,,,
,,,,,,,,2023-08-06_08h28.25.595,HF_wild_card,2022.2.4,Win32,61.21824304,5f27f6a0e13d4e05d048335f,64ce5acb97489d65b14ecc7a,64cf4b76ad8d311521dd96a8,,,,,,,sngl,resources/DR.BMP,resources/Empty.png,WildCard_Ex,-0.405555556,0.00462963,1,0,0,0.8902,optionLeft,95,3850,2,26,0,26,0,1,,,,,,,,,,,,,,,,,,,,,,,,,,,,,,,,,,,,,,,
,,,,,,,,2023-08-06_08h28.25.595,HF_wild_card,2022.2.4,Win32,61.21824304,5f27f6a0e13d4e05d048335f,64ce5acb97489d65b14ecc7a,64cf4b76ad8d311521dd96a8,,,,,,,decisionTrl,resources/DY.BMP,resources/DBN.BMP,Door1,-0.288888889,-0.003703704,1,0,0,1.0392,optionLeft,30,3880,2,27,0,27,0,1,,,,,,,,,,,,,,,,,,,,,,,,,,,,,,,,,,,,,,,
,,,,,,,,2023-08-06_08h28.25.595,HF_wild_card,2022.2.4,Win32,61.21824304,5f27f6a0e13d4e05d048335f,64ce5acb97489d65b14ecc7a,64cf4b76ad8d311521dd96a8,,,,,,,sngl,resources/DR.BMP,resources/Empty.png,WildCard_Ex,-0.294444444,0.001851852,1,0,0,0.824,optionLeft,5,3885,2,28,0,28,0,1,,,,,,,,,,,,,,,,,,,,,,,,,,,,,,,,,,,,,,,
,,,,,,,,2023-08-06_08h28.25.595,HF_wild_card,2022.2.4,Win32,61.21824304,5f27f6a0e13d4e05d048335f,64ce5acb97489d65b14ecc7a,64cf4b76ad8d311521dd96a8,,,,,,,sngl,resources/DY.BMP,resources/Empty.png,Door1,-0.357407407,0.000925926,1,0,0,0.8864,optionLeft,30,3915,2,29,0,29,0,1,,,,,,,,,,,,,,,,,,,,,,,,,,,,,,,,,,,,,,,
,,,,,,,,2023-08-06_08h28.25.595,HF_wild_card,2022.2.4,Win32,61.21824304,5f27f6a0e13d4e05d048335f,64ce5acb97489d65b14ecc7a,64cf4b76ad8d311521dd96a8,,,,,,,decisionTrl,resources/DR.BMP,resources/DG.BMP,Door4,0.402777778,-0.006481481,1,0,0,0.8979,optionRight,80,3995,2,30,0,30,0,1,,,,,,,,,,,,,,,,,,,,,,,,,,,,,,,,,,,,,,,
,,,,,,,,2023-08-06_08h28.25.595,HF_wild_card,2022.2.4,Win32,61.21824304,5f27f6a0e13d4e05d048335f,64ce5acb97489d65b14ecc7a,64cf4b76ad8d311521dd96a8,,,,,,,decisionTrl,resources/DR.BMP,resources/DY.BMP,WildCard_Ex,-0.400925926,0.007407407,1,0,0,1.5337,optionLeft,95,4090,2,31,0,31,0,1,,,,,,,,,,,,,,,,,,,,,,,,,,,,,,,,,,,,,,,
,,,,,,,,2023-08-06_08h28.25.595,HF_wild_card,2022.2.4,Win32,61.21824304,5f27f6a0e13d4e05d048335f,64ce5acb97489d65b14ecc7a,64cf4b76ad8d311521dd96a8,,,,,,,decisionTrl,resources/DG.BMP,resources/DP.BMP,Door4,-0.264814815,-0.00462963,1,0,0,1.0529,optionLeft,80,4170,2,32,0,32,0,1,,,,,,,,,,,,,,,,,,,,,,,,,,,,,,,,,,,,,,,
,,,,,,,,2023-08-06_08h28.25.595,HF_wild_card,2022.2.4,Win32,61.21824304,5f27f6a0e13d4e05d048335f,64ce5acb97489d65b14ecc7a,64cf4b76ad8d311521dd96a8,,,,,,,sngl,resources/DP.BMP,resources/Empty.png,Door3,-0.287037037,-0.001851852,1,0,0,0.9438,optionLeft,70,4240,2,33,0,33,0,1,,,,,,,,,,,,,,,,,,,,,,,,,,,,,,,,,,,,,,,
,,,,,,,,2023-08-06_08h28.25.595,HF_wild_card,2022.2.4,Win32,61.21824304,5f27f6a0e13d4e05d048335f,64ce5acb97489d65b14ecc7a,64cf4b76ad8d311521dd96a8,,,,,,,ctch,resources/DG.BMP,resources/DY.BMP,Door4,-0.423148148,-0.001851852,1,0,0,0.7784,optionLeft,80,4320,2,34,0,34,0,1,,,,,,,,,,,,,,,,,,,,,,,,,,,,,,,,,,,,,,,
,,,,,,,,2023-08-06_08h28.25.595,HF_wild_card,2022.2.4,Win32,61.21824304,5f27f6a0e13d4e05d048335f,64ce5acb97489d65b14ecc7a,64cf4b76ad8d311521dd96a8,,,,,,,sngl,resources/DBN.BMP,resources/Empty.png,Door2,-0.364814815,0.008333333,1,0,0,0.9205,optionLeft,20,4340,2,35,0,35,0,1,,,,,,,,,,,,,,,,,,,,,,,,,,,,,,,,,,,,,,,
,,,,,,,,2023-08-06_08h28.25.595,HF_wild_card,2022.2.4,Win32,61.21824304,5f27f6a0e13d4e05d048335f,64ce5acb97489d65b14ecc7a,64cf4b76ad8d311521dd96a8,,,,,,,decisionTrl,resources/DP.BMP,resources/DG.BMP,Door4,0.301851852,-0.023148148,1,0,0,1.965,optionRight,80,4420,2,36,0,36,0,1,,,,,,,,,,,,,,,,,,,,,,,,,,,,,,,,,,,,,,,
,,,,,,,,2023-08-06_08h28.25.595,HF_wild_card,2022.2.4,Win32,61.21824304,5f27f6a0e13d4e05d048335f,64ce5acb97489d65b14ecc7a,64cf4b76ad8d311521dd96a8,,,,,,,sngl,resources/Empty.png,resources/DG.BMP,Door4,0.390740741,-0.001851852,1,0,0,0.6885,optionRight,80,4500,2,37,0,37,0,1,,,,,,,,,,,,,,,,,,,,,,,,,,,,,,,,,,,,,,,
,,,,,,,,2023-08-06_08h28.25.595,HF_wild_card,2022.2.4,Win32,61.21824304,5f27f6a0e13d4e05d048335f,64ce5acb97489d65b14ecc7a,64cf4b76ad8d311521dd96a8,,,,,,,decisionTrl,resources/DR.BMP,resources/DP.BMP,WildCard_Ex,-0.308333333,-0.018518519,1,0,0,1.668,optionLeft,95,4595,2,38,0,38,0,1,,,,,,,,,,,,,,,,,,,,,,,,,,,,,,,,,,,,,,,
,,,,,,,,2023-08-06_08h28.25.595,HF_wild_card,2022.2.4,Win32,61.21824304,5f27f6a0e13d4e05d048335f,64ce5acb97489d65b14ecc7a,64cf4b76ad8d311521dd96a8,,,,,,,sngl,resources/Empty.png,resources/DY.BMP,Door1,0.296296296,-0.026851852,1,0,0,1.4609,optionRight,30,4625,2,39,0,39,0,1,,,,,,,,,,,,,,,,,,,,,,,,,,,,,,,,,,,,,,,
,,,,,,,,2023-08-06_08h28.25.595,HF_wild_card,2022.2.4,Win32,61.21824304,5f27f6a0e13d4e05d048335f,64ce5acb97489d65b14ecc7a,64cf4b76ad8d311521dd96a8,,,,,,,sngl,resources/DG.BMP,resources/Empty.png,Door4,-0.327777778,-0.012037037,1,0,0,0.6617,optionLeft,60,4685,2,40,0,40,0,1,,,,,,,,,,,,,,,,,,,,,,,,,,,,,,,,,,,,,,,
,,,,,,,,2023-08-06_08h28.25.595,HF_wild_card,2022.2.4,Win32,61.21824304,5f27f6a0e13d4e05d048335f,64ce5acb97489d65b14ecc7a,64cf4b76ad8d311521dd96a8,,,,,,,decisionTrl,resources/DBN.BMP,resources/DY.BMP,Door2,-0.348148148,-0.007407407,1,0,0,1.4289,optionLeft,40,4725,2,41,0,41,0,1,,,,,,,,,,,,,,,,,,,,,,,,,,,,,,,,,,,,,,,
,,,,,,,,2023-08-06_08h28.25.595,HF_wild_card,2022.2.4,Win32,61.21824304,5f27f6a0e13d4e05d048335f,64ce5acb97489d65b14ecc7a,64cf4b76ad8d311521dd96a8,,,,,,,ctch,resources/DP.BMP,resources/DBN.BMP,Door3,-0.391666667,-0.006481481,1,0,0,1.1102,optionLeft,70,4795,2,42,0,42,0,1,,,,,,,,,,,,,,,,,,,,,,,,,,,,,,,,,,,,,,,
,,,,,,,,2023-08-06_08h28.25.595,HF_wild_card,2022.2.4,Win32,61.21824304,5f27f6a0e13d4e05d048335f,64ce5acb97489d65b14ecc7a,64cf4b76ad8d311521dd96a8,,,,,,,ctch,resources/DG.BMP,resources/DY.BMP,Door4,-0.313888889,-0.002777778,1,0,0,0.882,optionLeft,80,4875,2,43,0,43,0,1,,,,,,,,,,,,,,,,,,,,,,,,,,,,,,,,,,,,,,,
,,,,,,,,2023-08-06_08h28.25.595,HF_wild_card,2022.2.4,Win32,61.21824304,5f27f6a0e13d4e05d048335f,64ce5acb97489d65b14ecc7a,64cf4b76ad8d311521dd96a8,,,,,,,,,,,,,,,,,,,,,,,,,,1,0,1,0,1,,,,,,,,,,,,,,,,,,,,,,,,,,,,,,,,,,
,,,,,,,,2023-08-06_08h28.25.595,HF_wild_card,2022.2.4,Win32,61.21824304,5f27f6a0e13d4e05d048335f,64ce5acb97489d65b14ecc7a,64cf4b76ad8d311521dd96a8,,,,,,,sngl,resources/Empty.png,resources/DBN.BMP,Door2,0.382407407,-0.099074074,1,0,0,2.7882,optionRight,20,4895,3,0,0,0,0,1,,,,,,,,,,,,,,,,,,,,,,,,,,,,,,,,,,,,,,,
,,,,,,,,2023-08-06_08h28.25.595,HF_wild_card,2022.2.4,Win32,61.21824304,5f27f6a0e13d4e05d048335f,64ce5acb97489d65b14ecc7a,64cf4b76ad8d311521dd96a8,,,,,,,decisionTrl,resources/DBN.BMP,resources/DY.BMP,Door1,0.375,-0.002777778,1,0,0,1.3102,optionRight,30,4925,3,1,0,1,0,1,,,,,,,,,,,,,,,,,,,,,,,,,,,,,,,,,,,,,,,
,,,,,,,,2023-08-06_08h28.25.595,HF_wild_card,2022.2.4,Win32,61.21824304,5f27f6a0e13d4e05d048335f,64ce5acb97489d65b14ecc7a,64cf4b76ad8d311521dd96a8,,,,,,,decisionTrl,resources/DP.BMP,resources/DR.BMP,Door3,-0.30462963,-0.00462963,1,0,0,1.8444,optionLeft,70,4995,3,2,0,2,0,1,,,,,,,,,,,,,,,,,,,,,,,,,,,,,,,,,,,,,,,
,,,,,,,,2023-08-06_08h28.25.595,HF_wild_card,2022.2.4,Win32,61.21824304,5f27f6a0e13d4e05d048335f,64ce5acb97489d65b14ecc7a,64cf4b76ad8d311521dd96a8,,,,,,,sngl,resources/Empty.png,resources/DG.BMP,Door4,0.418518519,-0.013888889,1,0,0,0.7244,optionRight,60,5055,3,3,0,3,0,1,,,,,,,,,,,,,,,,,,,,,,,,,,,,,,,,,,,,,,,
,,,,,,,,2023-08-06_08h28.25.595,HF_wild_card,2022.2.4,Win32,61.21824304,5f27f6a0e13d4e05d048335f,64ce5acb97489d65b14ecc7a,64cf4b76ad8d311521dd96a8,,,,,,,sngl,resources/Empty.png,resources/DY.BMP,Door1,0.386111111,-0.00462963,1,0,0,0.719,optionRight,30,5085,3,4,0,4,0,1,,,,,,,,,,,,,,,,,,,,,,,,,,,,,,,,,,,,,,,
,,,,,,,,2023-08-06_08h28.25.595,HF_wild_card,2022.2.4,Win32,61.21824304,5f27f6a0e13d4e05d048335f,64ce5acb97489d65b14ecc7a,64cf4b76ad8d311521dd96a8,,,,,,,sngl,resources/DBN.BMP,resources/Empty.png,Door2,-0.266666667,0.000925926,1,0,0,0.7313,optionLeft,40,5125,3,5,0,5,0,1,,,,,,,,,,,,,,,,,,,,,,,,,,,,,,,,,,,,,,,
,,,,,,,,2023-08-06_08h28.25.595,HF_wild_card,2022.2.4,Win32,61.21824304,5f27f6a0e13d4e05d048335f,64ce5acb97489d65b14ecc7a,64cf4b76ad8d311521dd96a8,,,,,,,decisionTrl,resources/DY.BMP,resources/DBN.BMP,Door1,-0.291666667,-0.006481481,1,0,0,1.3374,optionLeft,30,5155,3,6,0,6,0,1,,,,,,,,,,,,,,,,,,,,,,,,,,,,,,,,,,,,,,,
,,,,,,,,2023-08-06_08h28.25.595,HF_wild_card,2022.2.4,Win32,61.21824304,5f27f6a0e13d4e05d048335f,64ce5acb97489d65b14ecc7a,64cf4b76ad8d311521dd96a8,,,,,,,decisionTrl,resources/DBN.BMP,resources/DY.BMP,Door1,0.344444444,-0.013888889,1,0,0,1.1013,optionRight,30,5185,3,7,0,7,0,1,,,,,,,,,,,,,,,,,,,,,,,,,,,,,,,,,,,,,,,
,,,,,,,,2023-08-06_08h28.25.595,HF_wild_card,2022.2.4,Win32,61.21824304,5f27f6a0e13d4e05d048335f,64ce5acb97489d65b14ecc7a,64cf4b76ad8d311521dd96a8,,,,,,,decisionTrl,resources/DY.BMP,resources/DBN.BMP,Door2,0.338888889,-0.003703704,1,0,0,1.0307,optionRight,40,5225,3,8,0,8,0,1,,,,,,,,,,,,,,,,,,,,,,,,,,,,,,,,,,,,,,,
,,,,,,,,2023-08-06_08h28.25.595,HF_wild_card,2022.2.4,Win32,61.21824304,5f27f6a0e13d4e05d048335f,64ce5acb97489d65b14ecc7a,64cf4b76ad8d311521dd96a8,,,,,,,decisionTrl,resources/DP.BMP,resources/DG.BMP,Door3,-0.297222222,-0.011111111,1,0,0,1.8659,optionLeft,70,5295,3,9,0,9,0,1,,,,,,,,,,,,,,,,,,,,,,,,,,,,,,,,,,,,,,,
,,,,,,,,2023-08-06_08h28.25.595,HF_wild_card,2022.2.4,Win32,61.21824304,5f27f6a0e13d4e05d048335f,64ce5acb97489d65b14ecc7a,64cf4b76ad8d311521dd96a8,,,,,,,ctch,resources/DY.BMP,resources/DG.BMP,Door4,0.3,-0.008333333,1,0,0,1.0959,optionRight,80,5375,3,10,0,10,0,1,,,,,,,,,,,,,,,,,,,,,,,,,,,,,,,,,,,,,,,
,,,,,,,,2023-08-06_08h28.25.595,HF_wild_card,2022.2.4,Win32,61.21824304,5f27f6a0e13d4e05d048335f,64ce5acb97489d65b14ecc7a,64cf4b76ad8d311521dd96a8,,,,,,,sngl,resources/DR.BMP,resources/Empty.png,WildCard_Ex,-0.344444444,-0.013888889,1,0,0,0.7927,optionLeft,95,5470,3,11,0,11,0,1,,,,,,,,,,,,,,,,,,,,,,,,,,,,,,,,,,,,,,,
,,,,,,,,2023-08-06_08h28.25.595,HF_wild_card,2022.2.4,Win32,61.21824304,5f27f6a0e13d4e05d048335f,64ce5acb97489d65b14ecc7a,64cf4b76ad8d311521dd96a8,,,,,,,sngl,resources/DG.BMP,resources/Empty.png,Door4,-0.259259259,-0.000925926,1,0,0,0.8275,optionLeft,80,5550,3,12,0,12,0,1,,,,,,,,,,,,,,,,,,,,,,,,,,,,,,,,,,,,,,,
,,,,,,,,2023-08-06_08h28.25.595,HF_wild_card,2022.2.4,Win32,61.21824304,5f27f6a0e13d4e05d048335f,64ce5acb97489d65b14ecc7a,64cf4b76ad8d311521dd96a8,,,,,,,sngl,resources/DR.BMP,resources/Empty.png,WildCard_Ex,-0.285185185,-0.00462963,1,0,0,1.1675,optionLeft,5,5555,3,13,0,13,0,1,,,,,,,,,,,,,,,,,,,,,,,,,,,,,,,,,,,,,,,
,,,,,,,,2023-08-06_08h28.25.595,HF_wild_card,2022.2.4,Win32,61.21824304,5f27f6a0e13d4e05d048335f,64ce5acb97489d65b14ecc7a,64cf4b76ad8d311521dd96a8,,,,,,,decisionTrl,resources/DP.BMP,resources/DG.BMP,Door3,-0.330555556,-0.000925926,1,0,0,1.8351,optionLeft,70,5625,3,14,0,14,0,1,,,,,,,,,,,,,,,,,,,,,,,,,,,,,,,,,,,,,,,
,,,,,,,,2023-08-06_08h28.25.595,HF_wild_card,2022.2.4,Win32,61.21824304,5f27f6a0e13d4e05d048335f,64ce5acb97489d65b14ecc7a,64cf4b76ad8d311521dd96a8,,,,,,,ctch,resources/DG.BMP,resources/DY.BMP,Door4,-0.331481481,0,1,0,0,1.277,optionLeft,80,5705,3,15,0,15,0,1,,,,,,,,,,,,,,,,,,,,,,,,,,,,,,,,,,,,,,,
,,,,,,,,2023-08-06_08h28.25.595,HF_wild_card,2022.2.4,Win32,61.21824304,5f27f6a0e13d4e05d048335f,64ce5acb97489d65b14ecc7a,64cf4b76ad8d311521dd96a8,,,,,,,decisionTrl,resources/DY.BMP,resources/DR.BMP,WildCard_Ex,0.371296296,0.003703704,1,0,0,1.5941,optionRight,95,5800,3,16,0,16,0,1,,,,,,,,,,,,,,,,,,,,,,,,,,,,,,,,,,,,,,,
,,,,,,,,2023-08-06_08h28.25.595,HF_wild_card,2022.2.4,Win32,61.21824304,5f27f6a0e13d4e05d048335f,64ce5acb97489d65b14ecc7a,64cf4b76ad8d311521dd96a8,,,,,,,decisionTrl,resources/DBN.BMP,resources/DY.BMP,Door2,-0.35462963,0.008333333,1,0,0,1.0486,optionLeft,40,5840,3,17,0,17,0,1,,,,,,,,,,,,,,,,,,,,,,,,,,,,,,,,,,,,,,,
,,,,,,,,2023-08-06_08h28.25.595,HF_wild_card,2022.2.4,Win32,61.21824304,5f27f6a0e13d4e05d048335f,64ce5acb97489d65b14ecc7a,64cf4b76ad8d311521dd96a8,,,,,,,sngl,resources/Empty.png,resources/DR.BMP,WildCard_Ex,0.251851852,-0.015740741,1,0,0,0.9446,optionRight,95,5935,3,18,0,18,0,1,,,,,,,,,,,,,,,,,,,,,,,,,,,,,,,,,,,,,,,
,,,,,,,,2023-08-06_08h28.25.595,HF_wild_card,2022.2.4,Win32,61.21824304,5f27f6a0e13d4e05d048335f,64ce5acb97489d65b14ecc7a,64cf4b76ad8d311521dd96a8,,,,,,,decisionTrl,resources/DY.BMP,resources/DBN.BMP,Door1,-0.333333333,-0.003703704,1,0,0,1.534,optionLeft,30,5965,3,19,0,19,0,1,,,,,,,,,,,,,,,,,,,,,,,,,,,,,,,,,,,,,,,
,,,,,,,,2023-08-06_08h28.25.595,HF_wild_card,2022.2.4,Win32,61.21824304,5f27f6a0e13d4e05d048335f,64ce5acb97489d65b14ecc7a,64cf4b76ad8d311521dd96a8,,,,,,,decisionTrl,resources/DR.BMP,resources/DBN.BMP,Door2,0.275925926,-0.000925926,1,0,0,2.8045,optionRight,20,5985,3,20,0,20,0,1,,,,,,,,,,,,,,,,,,,,,,,,,,,,,,,,,,,,,,,
,,,,,,,,2023-08-06_08h28.25.595,HF_wild_card,2022.2.4,Win32,61.21824304,5f27f6a0e13d4e05d048335f,64ce5acb97489d65b14ecc7a,64cf4b76ad8d311521dd96a8,,,,,,,decisionTrl,resources/DY.BMP,resources/DBN.BMP,Door2,0.257407407,-0.000925926,1,0,0,1.5707,optionRight,40,6025,3,21,0,21,0,1,,,,,,,,,,,,,,,,,,,,,,,,,,,,,,,,,,,,,,,
,,,,,,,,2023-08-06_08h28.25.595,HF_wild_card,2022.2.4,Win32,61.21824304,5f27f6a0e13d4e05d048335f,64ce5acb97489d65b14ecc7a,64cf4b76ad8d311521dd96a8,,,,,,,decisionTrl,resources/DR.BMP,resources/DP.BMP,WildCard_Ex,-0.330555556,-0.007407407,1,0,0,1.0569,optionLeft,95,6120,3,22,0,22,0,1,,,,,,,,,,,,,,,,,,,,,,,,,,,,,,,,,,,,,,,
,,,,,,,,2023-08-06_08h28.25.595,HF_wild_card,2022.2.4,Win32,61.21824304,5f27f6a0e13d4e05d048335f,64ce5acb97489d65b14ecc7a,64cf4b76ad8d311521dd96a8,,,,,,,ctch,resources/DY.BMP,resources/DG.BMP,Door4,0.301851852,-0.007407407,1,0,0,0.9462,optionRight,60,6180,3,23,0,23,0,1,,,,,,,,,,,,,,,,,,,,,,,,,,,,,,,,,,,,,,,
,,,,,,,,2023-08-06_08h28.25.595,HF_wild_card,2022.2.4,Win32,61.21824304,5f27f6a0e13d4e05d048335f,64ce5acb97489d65b14ecc7a,64cf4b76ad8d311521dd96a8,,,,,,,decisionTrl,resources/DR.BMP,resources/DY.BMP,Door1,0.334259259,-0.010185185,1,0,0,1.8153,optionRight,30,6210,3,24,0,24,0,1,,,,,,,,,,,,,,,,,,,,,,,,,,,,,,,,,,,,,,,
,,,,,,,,2023-08-06_08h28.25.595,HF_wild_card,2022.2.4,Win32,61.21824304,5f27f6a0e13d4e05d048335f,64ce5acb97489d65b14ecc7a,64cf4b76ad8d311521dd96a8,,,,,,,decisionTrl,resources/DG.BMP,resources/DP.BMP,Door4,-0.294444444,-0.005555556,1,0,0,0.974,optionLeft,80,6290,3,25,0,25,0,1,,,,,,,,,,,,,,,,,,,,,,,,,,,,,,,,,,,,,,,
,,,,,,,,2023-08-06_08h28.25.595,HF_wild_card,2022.2.4,Win32,61.21824304,5f27f6a0e13d4e05d048335f,64ce5acb97489d65b14ecc7a,64cf4b76ad8d311521dd96a8,,,,,,,sngl,resources/Empty.png,resources/DP.BMP,Door3,0.403703704,-0.011111111,1,0,0,0.9678,optionRight,70,6360,3,26,0,26,0,1,,,,,,,,,,,,,,,,,,,,,,,,,,,,,,,,,,,,,,,
,,,,,,,,2023-08-06_08h28.25.595,HF_wild_card,2022.2.4,Win32,61.21824304,5f27f6a0e13d4e05d048335f,64ce5acb97489d65b14ecc7a,64cf4b76ad8d311521dd96a8,,,,,,,decisionTrl,resources/DP.BMP,resources/DG.BMP,Door4,0.343518519,-0.002777778,1,0,0,0.9301,optionRight,60,6420,3,27,0,27,0,1,,,,,,,,,,,,,,,,,,,,,,,,,,,,,,,,,,,,,,,
,,,,,,,,2023-08-06_08h28.25.595,HF_wild_card,2022.2.4,Win32,61.21824304,5f27f6a0e13d4e05d048335f,64ce5acb97489d65b14ecc7a,64cf4b76ad8d311521dd96a8,,,,,,,decisionTrl,resources/DG.BMP,resources/DR.BMP,WildCard_Ex,0.369444444,-0.000925926,1,0,0,0.8787,optionRight,95,6515,3,28,0,28,0,1,,,,,,,,,,,,,,,,,,,,,,,,,,,,,,,,,,,,,,,
,,,,,,,,2023-08-06_08h28.25.595,HF_wild_card,2022.2.4,Win32,61.21824304,5f27f6a0e13d4e05d048335f,64ce5acb97489d65b14ecc7a,64cf4b76ad8d311521dd96a8,,,,,,,decisionTrl,resources/DBN.BMP,resources/DR.BMP,WildCard_Ex,0.438888889,0.006481481,1,0,0,0.6867,optionRight,5,6520,3,29,0,29,0,1,,,,,,,,,,,,,,,,,,,,,,,,,,,,,,,,,,,,,,,
,,,,,,,,2023-08-06_08h28.25.595,HF_wild_card,2022.2.4,Win32,61.21824304,5f27f6a0e13d4e05d048335f,64ce5acb97489d65b14ecc7a,64cf4b76ad8d311521dd96a8,,,,,,,decisionTrl,resources/DR.BMP,resources/DG.BMP,WildCard_Ex,-0.310185185,-0.001851852,1,0,0,0.9784,optionLeft,5,6525,3,30,0,30,0,1,,,,,,,,,,,,,,,,,,,,,,,,,,,,,,,,,,,,,,,
,,,,,,,,2023-08-06_08h28.25.595,HF_wild_card,2022.2.4,Win32,61.21824304,5f27f6a0e13d4e05d048335f,64ce5acb97489d65b14ecc7a,64cf4b76ad8d311521dd96a8,,,,,,,decisionTrl,resources/DG.BMP,resources/DP.BMP,Door3,0.309259259,0.001851852,1,0,0,1.8386,optionRight,70,6595,3,31,0,31,0,1,,,,,,,,,,,,,,,,,,,,,,,,,,,,,,,,,,,,,,,
,,,,,,,,2023-08-06_08h28.25.595,HF_wild_card,2022.2.4,Win32,61.21824304,5f27f6a0e13d4e05d048335f,64ce5acb97489d65b14ecc7a,64cf4b76ad8d311521dd96a8,,,,,,,sngl,resources/DP.BMP,resources/Empty.png,Door3,-0.29537037,-0.000925926,1,0,0,1.1504,optionLeft,70,6665,3,32,0,32,0,1,,,,,,,,,,,,,,,,,,,,,,,,,,,,,,,,,,,,,,,
,,,,,,,,2023-08-06_08h28.25.595,HF_wild_card,2022.2.4,Win32,61.21824304,5f27f6a0e13d4e05d048335f,64ce5acb97489d65b14ecc7a,64cf4b76ad8d311521dd96a8,,,,,,,decisionTrl,resources/DG.BMP,resources/DP.BMP,Door4,-0.308333333,0.001851852,1,0,0,0.9099,optionLeft,60,6725,3,33,0,33,0,1,,,,,,,,,,,,,,,,,,,,,,,,,,,,,,,,,,,,,,,
,,,,,,,,2023-08-06_08h28.25.595,HF_wild_card,2022.2.4,Win32,61.21824304,5f27f6a0e13d4e05d048335f,64ce5acb97489d65b14ecc7a,64cf4b76ad8d311521dd96a8,,,,,,,decisionTrl,resources/DBN.BMP,resources/DY.BMP,Door2,-0.366666667,0.032407407,1,0,0,1.0864,optionLeft,20,6745,3,34,0,34,0,1,,,,,,,,,,,,,,,,,,,,,,,,,,,,,,,,,,,,,,,
,,,,,,,,2023-08-06_08h28.25.595,HF_wild_card,2022.2.4,Win32,61.21824304,5f27f6a0e13d4e05d048335f,64ce5acb97489d65b14ecc7a,64cf4b76ad8d311521dd96a8,,,,,,,decisionTrl,resources/DP.BMP,resources/DG.BMP,Door4,0.334259259,-0.000925926,1,0,0,1.2,optionRight,80,6825,3,35,0,35,0,1,,,,,,,,,,,,,,,,,,,,,,,,,,,,,,,,,,,,,,,
,,,,,,,,2023-08-06_08h28.25.595,HF_wild_card,2022.2.4,Win32,61.21824304,5f27f6a0e13d4e05d048335f,64ce5acb97489d65b14ecc7a,64cf4b76ad8d311521dd96a8,,,,,,,ctch,resources/DP.BMP,resources/DBN.BMP,Door3,-0.372222222,0.014814815,1,0,0,1.2274,optionLeft,70,6895,3,36,0,36,0,1,,,,,,,,,,,,,,,,,,,,,,,,,,,,,,,,,,,,,,,
,,,,,,,,2023-08-06_08h28.25.595,HF_wild_card,2022.2.4,Win32,61.21824304,5f27f6a0e13d4e05d048335f,64ce5acb97489d65b14ecc7a,64cf4b76ad8d311521dd96a8,,,,,,,ctch,resources/DBN.BMP,resources/DP.BMP,Door3,0.375,-0.005555556,1,0,0,0.7235,optionRight,70,6965,3,37,0,37,0,1,,,,,,,,,,,,,,,,,,,,,,,,,,,,,,,,,,,,,,,
,,,,,,,,2023-08-06_08h28.25.595,HF_wild_card,2022.2.4,Win32,61.21824304,5f27f6a0e13d4e05d048335f,64ce5acb97489d65b14ecc7a,64cf4b76ad8d311521dd96a8,,,,,,,ctch,resources/DG.BMP,resources/DY.BMP,Door4,-0.362037037,0.003703704,1,0,0,0.9843,optionLeft,60,7025,3,38,0,38,0,1,,,,,,,,,,,,,,,,,,,,,,,,,,,,,,,,,,,,,,,
,,,,,,,,2023-08-06_08h28.25.595,HF_wild_card,2022.2.4,Win32,61.21824304,5f27f6a0e13d4e05d048335f,64ce5acb97489d65b14ecc7a,64cf4b76ad8d311521dd96a8,,,,,,,decisionTrl,resources/DG.BMP,resources/DP.BMP,Door3,0.325,-0.007407407,1,0,0,1.4369,optionRight,70,7095,3,39,0,39,0,1,,,,,,,,,,,,,,,,,,,,,,,,,,,,,,,,,,,,,,,
,,,,,,,,2023-08-06_08h28.25.595,HF_wild_card,2022.2.4,Win32,61.21824304,5f27f6a0e13d4e05d048335f,64ce5acb97489d65b14ecc7a,64cf4b76ad8d311521dd96a8,,,,,,,sngl,resources/DY.BMP,resources/Empty.png,Door1,-0.361111111,0.005555556,1,0,0,0.7878,optionLeft,30,7125,3,40,0,40,0,1,,,,,,,,,,,,,,,,,,,,,,,,,,,,,,,,,,,,,,,
,,,,,,,,2023-08-06_08h28.25.595,HF_wild_card,2022.2.4,Win32,61.21824304,5f27f6a0e13d4e05d048335f,64ce5acb97489d65b14ecc7a,64cf4b76ad8d311521dd96a8,,,,,,,sngl,resources/Empty.png,resources/DR.BMP,WildCard_Ex,0.306481481,-0.000925926,1,0,0,0.696,optionRight,5,7130,3,41,0,41,0,1,,,,,,,,,,,,,,,,,,,,,,,,,,,,,,,,,,,,,,,
,,,,,,,,2023-08-06_08h28.25.595,HF_wild_card,2022.2.4,Win32,61.21824304,5f27f6a0e13d4e05d048335f,64ce5acb97489d65b14ecc7a,64cf4b76ad8d311521dd96a8,,,,,,,ctch,resources/DP.BMP,resources/DBN.BMP,Door3,-0.35,0.017592593,1,0,0,1.0775,optionLeft,70,7200,3,42,0,42,0,1,,,,,,,,,,,,,,,,,,,,,,,,,,,,,,,,,,,,,,,
,,,,,,,,2023-08-06_08h28.25.595,HF_wild_card,2022.2.4,Win32,61.21824304,5f27f6a0e13d4e05d048335f,64ce5acb97489d65b14ecc7a,64cf4b76ad8d311521dd96a8,,,,,,,ctch,resources/DBN.BMP,resources/DP.BMP,Door3,0.334259259,0.00462963,1,0,0,0.7962,optionRight,70,7270,3,43,0,43,0,1,,,,,,,,,,,,,,,,,,,,,,,,,,,,,,,,,,,,,,,
,,,,,,,,2023-08-06_08h28.25.595,HF_wild_card,2022.2.4,Win32,61.21824304,5f27f6a0e13d4e05d048335f,64ce5acb97489d65b14ecc7a,64cf4b76ad8d311521dd96a8,,,,,,,,,,,,,,,,,,,,,,,,,,2,0,2,0,1,,,,,,,,,,,,,,,,,,,,,,,,,,,,,,,,,,
,,,,,,,,2023-08-06_08h28.25.595,HF_wild_card,2022.2.4,Win32,61.21824304,5f27f6a0e13d4e05d048335f,64ce5acb97489d65b14ecc7a,64cf4b76ad8d311521dd96a8,,,,,,,decisionTrl,resources/DBN.BMP,resources/DY.BMP,Door1,0.396296296,-0.087962963,1,0,0,1.5204,optionRight,30,7300,4,0,0,0,0,1,,,,,,,,,,,,,,,,,,,,,,,,,,,,,,,,,,,,,,,
,,,,,,,,2023-08-06_08h28.25.595,HF_wild_card,2022.2.4,Win32,61.21824304,5f27f6a0e13d4e05d048335f,64ce5acb97489d65b14ecc7a,64cf4b76ad8d311521dd96a8,,,,,,,decisionTrl,resources/DBN.BMP,resources/DY.BMP,Door1,0.350925926,-0.012037037,1,0,0,0.9037,optionRight,30,7330,4,1,0,1,0,1,,,,,,,,,,,,,,,,,,,,,,,,,,,,,,,,,,,,,,,
,,,,,,,,2023-08-06_08h28.25.595,HF_wild_card,2022.2.4,Win32,61.21824304,5f27f6a0e13d4e05d048335f,64ce5acb97489d65b14ecc7a,64cf4b76ad8d311521dd96a8,,,,,,,decisionTrl,resources/DBN.BMP,resources/DB.BMP,WildCard_NonEx,0.382407407,-0.009259259,1,0,0,1.6757,optionRight,55,7385,4,2,0,2,0,1,,,,,,,,,,,,,,,,,,,,,,,,,,,,,,,,,,,,,,,
,,,,,,,,2023-08-06_08h28.25.595,HF_wild_card,2022.2.4,Win32,61.21824304,5f27f6a0e13d4e05d048335f,64ce5acb97489d65b14ecc7a,64cf4b76ad8d311521dd96a8,,,,,,,decisionTrl,resources/DG.BMP,resources/DP.BMP,Door3,0.389814815,-0.006481481,1,0,0,1.7807,optionRight,70,7455,4,3,0,3,0,1,,,,,,,,,,,,,,,,,,,,,,,,,,,,,,,,,,,,,,,
,,,,,,,,2023-08-06_08h28.25.595,HF_wild_card,2022.2.4,Win32,61.21824304,5f27f6a0e13d4e05d048335f,64ce5acb97489d65b14ecc7a,64cf4b76ad8d311521dd96a8,,,,,,,ctch,resources/DG.BMP,resources/DY.BMP,Door4,-0.299074074,0.002777778,1,0,0,0.896,optionLeft,80,7535,4,4,0,4,0,1,,,,,,,,,,,,,,,,,,,,,,,,,,,,,,,,,,,,,,,
,,,,,,,,2023-08-06_08h28.25.595,HF_wild_card,2022.2.4,Win32,61.21824304,5f27f6a0e13d4e05d048335f,64ce5acb97489d65b14ecc7a,64cf4b76ad8d311521dd96a8,,,,,,,decisionTrl,resources/DP.BMP,resources/DB.BMP,Door3,-0.339814815,-0.011111111,1,0,0,1.2201,optionLeft,70,7605,4,5,0,5,0,1,,,,,,,,,,,,,,,,,,,,,,,,,,,,,,,,,,,,,,,
,,,,,,,,2023-08-06_08h28.25.595,HF_wild_card,2022.2.4,Win32,61.21824304,5f27f6a0e13d4e05d048335f,64ce5acb97489d65b14ecc7a,64cf4b76ad8d311521dd96a8,,,,,,,sngl,resources/DB.BMP,resources/Empty.png,WildCard_NonEx,-0.341666667,-0.007407407,1,0,0,0.7836,optionLeft,45,7650,4,6,0,6,0,1,,,,,,,,,,,,,,,,,,,,,,,,,,,,,,,,,,,,,,,
,,,,,,,,2023-08-06_08h28.25.595,HF_wild_card,2022.2.4,Win32,61.21824304,5f27f6a0e13d4e05d048335f,64ce5acb97489d65b14ecc7a,64cf4b76ad8d311521dd96a8,,,,,,,ctch,resources/DP.BMP,resources/DBN.BMP,Door3,-0.384259259,-0.012962963,1,0,0,1.1125,optionLeft,70,7720,4,7,0,7,0,1,,,,,,,,,,,,,,,,,,,,,,,,,,,,,,,,,,,,,,,
,,,,,,,,2023-08-06_08h28.25.595,HF_wild_card,2022.2.4,Win32,61.21824304,5f27f6a0e13d4e05d048335f,64ce5acb97489d65b14ecc7a,64cf4b76ad8d311521dd96a8,,,,,,,decisionTrl,resources/DP.BMP,resources/DG.BMP,Door4,0.397222222,-0.023148148,1,0,0,1.2454,optionRight,60,7780,4,8,0,8,0,1,,,,,,,,,,,,,,,,,,,,,,,,,,,,,,,,,,,,,,,
,,,,,,,,2023-08-06_08h28.25.595,HF_wild_card,2022.2.4,Win32,61.21824304,5f27f6a0e13d4e05d048335f,64ce5acb97489d65b14ecc7a,64cf4b76ad8d311521dd96a8,,,,,,,sngl,resources/Empty.png,resources/DY.BMP,Door1,0.375925926,-0.021296296,1,0,0,0.6342,optionRight,30,7810,4,9,0,9,0,1,,,,,,,,,,,,,,,,,,,,,,,,,,,,,,,,,,,,,,,
,,,,,,,,2023-08-06_08h28.25.595,HF_wild_card,2022.2.4,Win32,61.21824304,5f27f6a0e13d4e05d048335f,64ce5acb97489d65b14ecc7a,64cf4b76ad8d311521dd96a8,,,,,,,sngl,resources/Empty.png,resources/DG.BMP,Door4,0.418518519,0.001851852,1,0,0,0.7287,optionRight,80,7890,4,10,0,10,0,1,,,,,,,,,,,,,,,,,,,,,,,,,,,,,,,,,,,,,,,
,,,,,,,,2023-08-06_08h28.25.595,HF_wild_card,2022.2.4,Win32,61.21824304,5f27f6a0e13d4e05d048335f,64ce5acb97489d65b14ecc7a,64cf4b76ad8d311521dd96a8,,,,,,,decisionTrl,resources/DB.BMP,resources/DY.BMP,WildCard_NonEx,-0.418518519,0.00462963,1,0,0,1.2346,optionLeft,45,7935,4,11,0,11,0,1,,,,,,,,,,,,,,,,,,,,,,,,,,,,,,,,,,,,,,,
,,,,,,,,2023-08-06_08h28.25.595,HF_wild_card,2022.2.4,Win32,61.21824304,5f27f6a0e13d4e05d048335f,64ce5acb97489d65b14ecc7a,64cf4b76ad8d311521dd96a8,,,,,,,ctch,resources/DY.BMP,resources/DG.BMP,Door4,0.361111111,-0.017592593,1,0,0,1.0182,optionRight,80,8015,4,12,0,12,0,1,,,,,,,,,,,,,,,,,,,,,,,,,,,,,,,,,,,,,,,
,,,,,,,,2023-08-06_08h28.25.595,HF_wild_card,2022.2.4,Win32,61.21824304,5f27f6a0e13d4e05d048335f,64ce5acb97489d65b14ecc7a,64cf4b76ad8d311521dd96a8,,,,,,,sngl,resources/DB.BMP,resources/Empty.png,WildCard_NonEx,-0.298148148,-0.006481481,1,0,0,0.6868,optionLeft,55,8070,4,13,0,13,0,1,,,,,,,,,,,,,,,,,,,,,,,,,,,,,,,,,,,,,,,
,,,,,,,,2023-08-06_08h28.25.595,HF_wild_card,2022.2.4,Win32,61.21824304,5f27f6a0e13d4e05d048335f,64ce5acb97489d65b14ecc7a,64cf4b76ad8d311521dd96a8,,,,,,,ctch,resources/DBN.BMP,resources/DP.BMP,Door3,0.364814815,-0.012037037,1,0,0,1.14,optionRight,70,8140,4,14,0,14,0,1,,,,,,,,,,,,,,,,,,,,,,,,,,,,,,,,,,,,,,,
,,,,,,,,2023-08-06_08h28.25.595,HF_wild_card,2022.2.4,Win32,61.21824304,5f27f6a0e13d4e05d048335f,64ce5acb97489d65b14ecc7a,64cf4b76ad8d311521dd96a8,,,,,,,decisionTrl,resources/DB.BMP,resources/DG.BMP,Door4,0.347222222,-0.006481481,1,0,0,1.235,optionRight,80,8220,4,15,0,15,0,1,,,,,,,,,,,,,,,,,,,,,,,,,,,,,,,,,,,,,,,
,,,,,,,,2023-08-06_08h28.25.595,HF_wild_card,2022.2.4,Win32,61.21824304,5f27f6a0e13d4e05d048335f,64ce5acb97489d65b14ecc7a,64cf4b76ad8d311521dd96a8,,,,,,,decisionTrl,resources/DB.BMP,resources/DBN.BMP,WildCard_NonEx,-0.289814815,-0.005555556,1,0,0,1.1518,optionLeft,55,8275,4,16,0,16,0,1,,,,,,,,,,,,,,,,,,,,,,,,,,,,,,,,,,,,,,,
,,,,,,,,2023-08-06_08h28.25.595,HF_wild_card,2022.2.4,Win32,61.21824304,5f27f6a0e13d4e05d048335f,64ce5acb97489d65b14ecc7a,64cf4b76ad8d311521dd96a8,,,,,,,ctch,resources/DY.BMP,resources/DG.BMP,Door4,0.315740741,-0.001851852,1,0,0,0.9721,optionRight,60,8335,4,17,0,17,0,1,,,,,,,,,,,,,,,,,,,,,,,,,,,,,,,,,,,,,,,
,,,,,,,,2023-08-06_08h28.25.595,HF_wild_card,2022.2.4,Win32,61.21824304,5f27f6a0e13d4e05d048335f,64ce5acb97489d65b14ecc7a,64cf4b76ad8d311521dd96a8,,,,,,,decisionTrl,resources/DBN.BMP,resources/DY.BMP,Door1,0.27037037,0.002777778,1,0,0,0.8844,optionRight,30,8365,4,18,0,18,0,1,,,,,,,,,,,,,,,,,,,,,,,,,,,,,,,,,,,,,,,
,,,,,,,,2023-08-06_08h28.25.595,HF_wild_card,2022.2.4,Win32,61.21824304,5f27f6a0e13d4e05d048335f,64ce5acb97489d65b14ecc7a,64cf4b76ad8d311521dd96a8,,,,,,,decisionTrl,resources/DBN.BMP,resources/DY.BMP,Door1,0.25462963,-0.001851852,1,0,0,0.9059,optionRight,30,8395,4,19,0,19,0,1,,,,,,,,,,,,,,,,,,,,,,,,,,,,,,,,,,,,,,,
,,,,,,,,2023-08-06_08h28.25.595,HF_wild_card,2022.2.4,Win32,61.21824304,5f27f6a0e13d4e05d048335f,64ce5acb97489d65b14ecc7a,64cf4b76ad8d311521dd96a8,,,,,,,decisionTrl,resources/DY.BMP,resources/DBN.BMP,Door1,-0.253703704,0.000925926,1,0,0,1.0068,optionLeft,30,8425,4,20,0,20,0,1,,,,,,,,,,,,,,,,,,,,,,,,,,,,,,,,,,,,,,,
,,,,,,,,2023-08-06_08h28.25.595,HF_wild_card,2022.2.4,Win32,61.21824304,5f27f6a0e13d4e05d048335f,64ce5acb97489d65b14ecc7a,64cf4b76ad8d311521dd96a8,,,,,,,decisionTrl,resources/DG.BMP,resources/DP.BMP,Door3,0.357407407,-0.012962963,1,0,0,1.9962,optionRight,70,8495,4,21,0,21,0,1,,,,,,,,,,,,,,,,,,,,,,,,,,,,,,,,,,,,,,,
,,,,,,,,2023-08-06_08h28.25.595,HF_wild_card,2022.2.4,Win32,61.21824304,5f27f6a0e13d4e05d048335f,64ce5acb97489d65b14ecc7a,64cf4b76ad8d311521dd96a8,,,,,,,decisionTrl,resources/DB.BMP,resources/DP.BMP,Door3,0.289814815,-0.010185185,1,0,0,0.9546,optionRight,70,8565,4,22,0,22,0,1,,,,,,,,,,,,,,,,,,,,,,,,,,,,,,,,,,,,,,,
,,,,,,,,2023-08-06_08h28.25.595,HF_wild_card,2022.2.4,Win32,61.21824304,5f27f6a0e13d4e05d048335f,64ce5acb97489d65b14ecc7a,64cf4b76ad8d311521dd96a8,,,,,,,sngl,resources/Empty.png,resources/DP.BMP,Door3,0.381481481,0.008333333,1,0,0,0.6536,optionRight,70,8635,4,23,0,23,0,1,,,,,,,,,,,,,,,,,,,,,,,,,,,,,,,,,,,,,,,
,,,,,,,,2023-08-06_08h28.25.595,HF_wild_card,2022.2.4,Win32,61.21824304,5f27f6a0e13d4e05d048335f,64ce5acb97489d65b14ecc7a,64cf4b76ad8d311521dd96a8,,,,,,,sngl,resources/Empty.png,resources/DBN.BMP,Door2,0.262037037,0.010185185,1,0,0,0.9369,optionRight,40,8675,4,24,0,24,0,1,,,,,,,,,,,,,,,,,,,,,,,,,,,,,,,,,,,,,,,
,,,,,,,,2023-08-06_08h28.25.595,HF_wild_card,2022.2.4,Win32,61.21824304,5f27f6a0e13d4e05d048335f,64ce5acb97489d65b14ecc7a,64cf4b76ad8d311521dd96a8,,,,,,,decisionTrl,resources/DY.BMP,resources/DBN.BMP,Door1,-0.321296296,0.012037037,1,0,0,1.3789,optionLeft,30,8705,4,25,0,25,0,1,,,,,,,,,,,,,,,,,,,,,,,,,,,,,,,,,,,,,,,
,,,,,,,,2023-08-06_08h28.25.595,HF_wild_card,2022.2.4,Win32,61.21824304,5f27f6a0e13d4e05d048335f,64ce5acb97489d65b14ecc7a,64cf4b76ad8d311521dd96a8,,,,,,,ctch,resources/DP.BMP,resources/DBN.BMP,Door3,-0.368518519,0.006481481,1,0,0,0.8179,optionLeft,70,8775,4,26,0,26,0,1,,,,,,,,,,,,,,,,,,,,,,,,,,,,,,,,,,,,,,,
,,,,,,,,2023-08-06_08h28.25.595,HF_wild_card,2022.2.4,Win32,61.21824304,5f27f6a0e13d4e05d048335f,64ce5acb97489d65b14ecc7a,64cf4b76ad8d311521dd96a8,,,,,,,sngl,resources/DBN.BMP,resources/Empty.png,Door2,-0.283333333,-0.015740741,1,0,0,0.6722,optionLeft,20,8795,4,27,0,27,0,1,,,,,,,,,,,,,,,,,,,,,,,,,,,,,,,,,,,,,,,
,,,,,,,,2023-08-06_08h28.25.595,HF_wild_card,2022.2.4,Win32,61.21824304,5f27f6a0e13d4e05d048335f,64ce5acb97489d65b14ecc7a,64cf4b76ad8d311521dd96a8,,,,,,,sngl,resources/Empty.png,resources/DB.BMP,WildCard_NonEx,0.32037037,-0.022222222,1,0,0,0.7149,optionRight,55,8850,4,28,0,28,0,1,,,,,,,,,,,,,,,,,,,,,,,,,,,,,,,,,,,,,,,
,,,,,,,,2023-08-06_08h28.25.595,HF_wild_card,2022.2.4,Win32,61.21824304,5f27f6a0e13d4e05d048335f,64ce5acb97489d65b14ecc7a,64cf4b76ad8d311521dd96a8,,,,,,,decisionTrl,resources/DP.BMP,resources/DG.BMP,Door4,0.301851852,-0.011111111,1,0,0,1.8815,optionRight,80,8930,4,29,0,29,0,1,,,,,,,,,,,,,,,,,,,,,,,,,,,,,,,,,,,,,,,
,,,,,,,,2023-08-06_08h28.25.595,HF_wild_card,2022.2.4,Win32,61.21824304,5f27f6a0e13d4e05d048335f,64ce5acb97489d65b14ecc7a,64cf4b76ad8d311521dd96a8,,,,,,,decisionTrl,resources/DP.BMP,resources/DG.BMP,Door4,0.348148148,-0.008333333,1,0,0,0.7689,optionRight,60,8990,4,30,0,30,0,1,,,,,,,,,,,,,,,,,,,,,,,,,,,,,,,,,,,,,,,
,,,,,,,,2023-08-06_08h28.25.595,HF_wild_card,2022.2.4,Win32,61.21824304,5f27f6a0e13d4e05d048335f,64ce5acb97489d65b14ecc7a,64cf4b76ad8d311521dd96a8,,,,,,,sngl,resources/Empty.png,resources/DB.BMP,WildCard_NonEx,0.37962963,-0.001851852,1,0,0,0.6731,optionRight,45,9035,4,31,0,31,0,1,,,,,,,,,,,,,,,,,,,,,,,,,,,,,,,,,,,,,,,
,,,,,,,,2023-08-06_08h28.25.595,HF_wild_card,2022.2.4,Win32,61.21824304,5f27f6a0e13d4e05d048335f,64ce5acb97489d65b14ecc7a,64cf4b76ad8d311521dd96a8,,,,,,,decisionTrl,resources/DG.BMP,resources/DP.BMP,Door3,0.388888889,-0.003703704,1,0,0,1.9647,optionRight,70,9105,4,32,0,32,0,1,,,,,,,,,,,,,,,,,,,,,,,,,,,,,,,,,,,,,,,
,,,,,,,,2023-08-06_08h28.25.595,HF_wild_card,2022.2.4,Win32,61.21824304,5f27f6a0e13d4e05d048335f,64ce5acb97489d65b14ecc7a,64cf4b76ad8d311521dd96a8,,,,,,,decisionTrl,resources/DG.BMP,resources/DB.BMP,Door4,-0.272222222,-0.00462963,1,0,0,1.0263,optionLeft,80,9185,4,33,0,33,0,1,,,,,,,,,,,,,,,,,,,,,,,,,,,,,,,,,,,,,,,
,,,,,,,,2023-08-06_08h28.25.595,HF_wild_card,2022.2.4,Win32,61.21824304,5f27f6a0e13d4e05d048335f,64ce5acb97489d65b14ecc7a,64cf4b76ad8d311521dd96a8,,,,,,,sngl,resources/DG.BMP,resources/Empty.png,Door4,-0.341666667,0,1,0,0,0.6329,optionLeft,60,9245,4,34,0,34,0,1,,,,,,,,,,,,,,,,,,,,,,,,,,,,,,,,,,,,,,,
,,,,,,,,2023-08-06_08h28.25.595,HF_wild_card,2022.2.4,Win32,61.21824304,5f27f6a0e13d4e05d048335f,64ce5acb97489d65b14ecc7a,64cf4b76ad8d311521dd96a8,,,,,,,decisionTrl,resources/DY.BMP,resources/DB.BMP,WildCard_NonEx,0.349074074,-0.007407407,1,0,0,1.3725,optionRight,45,9290,4,35,0,35,0,1,,,,,,,,,,,,,,,,,,,,,,,,,,,,,,,,,,,,,,,
,,,,,,,,2023-08-06_08h28.25.595,HF_wild_card,2022.2.4,Win32,61.21824304,5f27f6a0e13d4e05d048335f,64ce5acb97489d65b14ecc7a,64cf4b76ad8d311521dd96a8,,,,,,,decisionTrl,resources/DY.BMP,resources/DBN.BMP,Door1,-0.290740741,-0.012962963,1,0,0,0.9591,optionLeft,30,9320,4,36,0,36,0,1,,,,,,,,,,,,,,,,,,,,,,,,,,,,,,,,,,,,,,,
,,,,,,,,2023-08-06_08h28.25.595,HF_wild_card,2022.2.4,Win32,61.21824304,5f27f6a0e13d4e05d048335f,64ce5acb97489d65b14ecc7a,64cf4b76ad8d311521dd96a8,,,,,,,decisionTrl,resources/DG.BMP,resources/DP.BMP,Door3,0.337037037,0.000925926,1,0,0,1.3692,optionRight,70,9390,4,37,0,37,0,1,,,,,,,,,,,,,,,,,,,,,,,,,,,,,,,,,,,,,,,
,,,,,,,,2023-08-06_08h28.25.595,HF_wild_card,2022.2.4,Win32,61.21824304,5f27f6a0e13d4e05d048335f,64ce5acb97489d65b14ecc7a,64cf4b76ad8d311521dd96a8,,,,,,,decisionTrl,resources/DP.BMP,resources/DG.BMP,Door4,0.334259259,-0.008333333,1,0,0,1.0099,optionRight,80,9470,4,38,0,38,0,1,,,,,,,,,,,,,,,,,,,,,,,,,,,,,,,,,,,,,,,
,,,,,,,,2023-08-06_08h28.25.595,HF_wild_card,2022.2.4,Win32,61.21824304,5f27f6a0e13d4e05d048335f,64ce5acb97489d65b14ecc7a,64cf4b76ad8d311521dd96a8,,,,,,,sngl,resources/DP.BMP,resources/Empty.png,Door3,-0.263888889,-0.015740741,1,0,0,0.7775,optionLeft,70,9540,4,39,0,39,0,1,,,,,,,,,,,,,,,,,,,,,,,,,,,,,,,,,,,,,,,
,,,,,,,,2023-08-06_08h28.25.595,HF_wild_card,2022.2.4,Win32,61.21824304,5f27f6a0e13d4e05d048335f,64ce5acb97489d65b14ecc7a,64cf4b76ad8d311521dd96a8,,,,,,,ctch,resources/DBN.BMP,resources/DP.BMP,Door3,0.374074074,-0.005555556,1,0,0,0.9366,optionRight,70,9610,4,40,0,40,0,1,,,,,,,,,,,,,,,,,,,,,,,,,,,,,,,,,,,,,,,
,,,,,,,,2023-08-06_08h28.25.595,HF_wild_card,2022.2.4,Win32,61.21824304,5f27f6a0e13d4e05d048335f,64ce5acb97489d65b14ecc7a,64cf4b76ad8d311521dd96a8,,,,,,,sngl,resources/DY.BMP,resources/Empty.png,Door1,-0.287962963,-0.006481481,1,0,0,0.6265,optionLeft,30,9640,4,41,0,41,0,1,,,,,,,,,,,,,,,,,,,,,,,,,,,,,,,,,,,,,,,
,,,,,,,,2023-08-06_08h28.25.595,HF_wild_card,2022.2.4,Win32,61.21824304,5f27f6a0e13d4e05d048335f,64ce5acb97489d65b14ecc7a,64cf4b76ad8d311521dd96a8,,,,,,,decisionTrl,resources/DY.BMP,resources/DBN.BMP,Door1,-0.277777778,-0.005555556,1,0,0,0.9799,optionLeft,30,9670,4,42,0,42,0,1,,,,,,,,,,,,,,,,,,,,,,,,,,,,,,,,,,,,,,,
,,,,,,,,2023-08-06_08h28.25.595,HF_wild_card,2022.2.4,Win32,61.21824304,5f27f6a0e13d4e05d048335f,64ce5acb97489d65b14ecc7a,64cf4b76ad8d311521dd96a8,,,,,,,ctch,resources/DG.BMP,resources/DY.BMP,Door4,-0.328703704,-0.021296296,1,0,0,0.856,optionLeft,80,9750,4,43,0,43,0,1,,,,,,,,,,,,,,,,,,,,,,,,,,,,,,,,,,,,,,,
,,,,,,,,2023-08-06_08h28.25.595,HF_wild_card,2022.2.4,Win32,61.21824304,5f27f6a0e13d4e05d048335f,64ce5acb97489d65b14ecc7a,64cf4b76ad8d311521dd96a8,,,,,,,,,,,,,,,,,,,,,,,,,,3,0,3,0,1,,,,,,,,,,,,,,,,,,,,,,,,,,,,,,,,,,
,,,,,,,,2023-08-06_08h28.25.595,HF_wild_card,2022.2.4,Win32,61.21824304,5f27f6a0e13d4e05d048335f,64ce5acb97489d65b14ecc7a,64cf4b76ad8d311521dd96a8,,,,,,,decisionTrl,resources/DBN.BMP,resources/DY.BMP,Door1,0.424074074,-0.091666667,1,0,0,1.0595,optionRight,30,9780,5,0,0,0,0,1,,,,,,,,,,,,,,,,,,,,,,,,,,,,,,,,,,,,,,,
,,,,,,,,2023-08-06_08h28.25.595,HF_wild_card,2022.2.4,Win32,61.21824304,5f27f6a0e13d4e05d048335f,64ce5acb97489d65b14ecc7a,64cf4b76ad8d311521dd96a8,,,,,,,decisionTrl,resources/DBN.BMP,resources/DY.BMP,Door1,0.383333333,-0.009259259,1,0,0,0.884,optionRight,30,9810,5,1,0,1,0,1,,,,,,,,,,,,,,,,,,,,,,,,,,,,,,,,,,,,,,,
,,,,,,,,2023-08-06_08h28.25.595,HF_wild_card,2022.2.4,Win32,61.21824304,5f27f6a0e13d4e05d048335f,64ce5acb97489d65b14ecc7a,64cf4b76ad8d311521dd96a8,,,,,,,decisionTrl,resources/DG.BMP,resources/DP.BMP,Door4,-0.449074074,-0.005555556,1,0,0,0.8028,optionLeft,80,9890,5,2,0,2,0,1,,,,,,,,,,,,,,,,,,,,,,,,,,,,,,,,,,,,,,,
,,,,,,,,2023-08-06_08h28.25.595,HF_wild_card,2022.2.4,Win32,61.21824304,5f27f6a0e13d4e05d048335f,64ce5acb97489d65b14ecc7a,64cf4b76ad8d311521dd96a8,,,,,,,decisionTrl,resources/DP.BMP,resources/DG.BMP,Door4,0.333333333,-0.021296296,1,0,0,1.2141,optionRight,80,9970,5,3,0,3,0,1,,,,,,,,,,,,,,,,,,,,,,,,,,,,,,,,,,,,,,,
,,,,,,,,2023-08-06_08h28.25.595,HF_wild_card,2022.2.4,Win32,61.21824304,5f27f6a0e13d4e05d048335f,64ce5acb97489d65b14ecc7a,64cf4b76ad8d311521dd96a8,,,,,,,ctch,resources/DY.BMP,resources/DG.BMP,Door4,0.392592593,-0.021296296,1,0,0,0.6286,optionRight,60,10030,5,4,0,4,0,1,,,,,,,,,,,,,,,,,,,,,,,,,,,,,,,,,,,,,,,
,,,,,,,,2023-08-06_08h28.25.595,HF_wild_card,2022.2.4,Win32,61.21824304,5f27f6a0e13d4e05d048335f,64ce5acb97489d65b14ecc7a,64cf4b76ad8d311521dd96a8,,,,,,,decisionTrl,resources/DG.BMP,resources/DP.BMP,Door4,-0.364814815,-0.001851852,1,0,0,0.7466,optionLeft,80,10110,5,5,0,5,0,1,,,,,,,,,,,,,,,,,,,,,,,,,,,,,,,,,,,,,,,
,,,,,,,,2023-08-06_08h28.25.595,HF_wild_card,2022.2.4,Win32,61.21824304,5f27f6a0e13d4e05d048335f,64ce5acb97489d65b14ecc7a,64cf4b76ad8d311521dd96a8,,,,,,,ctch,resources/DBN.BMP,resources/DP.BMP,Door3,0.35462963,-0.011111111,1,0,0,0.7897,optionRight,70,10180,5,6,0,6,0,1,,,,,,,,,,,,,,,,,,,,,,,,,,,,,,,,,,,,,,,
,,,,,,,,2023-08-06_08h28.25.595,HF_wild_card,2022.2.4,Win32,61.21824304,5f27f6a0e13d4e05d048335f,64ce5acb97489d65b14ecc7a,64cf4b76ad8d311521dd96a8,,,,,,,decisionTrl,resources/DY.BMP,resources/DBN.BMP,Door1,-0.355555556,0.000925926,1,0,0,0.896,optionLeft,30,10210,5,7,0,7,0,1,,,,,,,,,,,,,,,,,,,,,,,,,,,,,,,,,,,,,,,
,,,,,,,,2023-08-06_08h28.25.595,HF_wild_card,2022.2.4,Win32,61.21824304,5f27f6a0e13d4e05d048335f,64ce5acb97489d65b14ecc7a,64cf4b76ad8d311521dd96a8,,,,,,,decisionTrl,resources/DY.BMP,resources/DBN.BMP,Door2,0.248148148,0.000925926,1,0,0,1.1285,optionRight,20,10230,5,8,0,8,0,1,,,,,,,,,,,,,,,,,,,,,,,,,,,,,,,,,,,,,,,
,,,,,,,,2023-08-06_08h28.25.595,HF_wild_card,2022.2.4,Win32,61.21824304,5f27f6a0e13d4e05d048335f,64ce5acb97489d65b14ecc7a,64cf4b76ad8d311521dd96a8,,,,,,,sngl,resources/Empty.png,resources/DB.BMP,WildCard_NonEx,0.352777778,-0.012037037,1,0,0,0.6682,optionRight,45,10275,5,9,0,9,0,1,,,,,,,,,,,,,,,,,,,,,,,,,,,,,,,,,,,,,,,
,,,,,,,,2023-08-06_08h28.25.595,HF_wild_card,2022.2.4,Win32,61.21824304,5f27f6a0e13d4e05d048335f,64ce5acb97489d65b14ecc7a,64cf4b76ad8d311521dd96a8,,,,,,,sngl,resources/DB.BMP,resources/Empty.png,WildCard_NonEx,-0.327777778,0.010185185,1,0,0,0.5924,optionLeft,55,10330,5,10,0,10,0,1,,,,,,,,,,,,,,,,,,,,,,,,,,,,,,,,,,,,,,,
,,,,,,,,2023-08-06_08h28.25.595,HF_wild_card,2022.2.4,Win32,61.21824304,5f27f6a0e13d4e05d048335f,64ce5acb97489d65b14ecc7a,64cf4b76ad8d311521dd96a8,,,,,,,decisionTrl,resources/DB.BMP,resources/DG.BMP,Door4,0.324074074,0.008333333,1,0,0,1.1653,optionRight,80,10410,5,11,0,11,0,1,,,,,,,,,,,,,,,,,,,,,,,,,,,,,,,,,,,,,,,
,,,,,,,,2023-08-06_08h28.25.595,HF_wild_card,2022.2.4,Win32,61.21824304,5f27f6a0e13d4e05d048335f,64ce5acb97489d65b14ecc7a,64cf4b76ad8d311521dd96a8,,,,,,,decisionTrl,resources/DG.BMP,resources/DB.BMP,Door4,-0.368518519,0.010185185,1,0,0,0.8794,optionLeft,60,10470,5,12,0,12,0,1,,,,,,,,,,,,,,,,,,,,,,,,,,,,,,,,,,,,,,,
,,,,,,,,2023-08-06_08h28.25.595,HF_wild_card,2022.2.4,Win32,61.21824304,5f27f6a0e13d4e05d048335f,64ce5acb97489d65b14ecc7a,64cf4b76ad8d311521dd96a8,,,,,,,ctch,resources/DG.BMP,resources/DY.BMP,Door4,-0.308333333,0.008333333,1,0,0,0.8072,optionLeft,60,10530,5,13,0,13,0,1,,,,,,,,,,,,,,,,,,,,,,,,,,,,,,,,,,,,,,,
,,,,,,,,2023-08-06_08h28.25.595,HF_wild_card,2022.2.4,Win32,61.21824304,5f27f6a0e13d4e05d048335f,64ce5acb97489d65b14ecc7a,64cf4b76ad8d311521dd96a8,,,,,,,ctch,resources/DY.BMP,resources/DG.BMP,Door4,0.276851852,-0.002777778,1,0,0,0.8445,optionRight,60,10590,5,14,0,14,0,1,,,,,,,,,,,,,,,,,,,,,,,,,,,,,,,,,,,,,,,
,,,,,,,,2023-08-06_08h28.25.595,HF_wild_card,2022.2.4,Win32,61.21824304,5f27f6a0e13d4e05d048335f,64ce5acb97489d65b14ecc7a,64cf4b76ad8d311521dd96a8,,,,,,,decisionTrl,resources/DY.BMP,resources/DBN.BMP,Door1,-0.314814815,0.002777778,1,0,0,0.8882,optionLeft,30,10620,5,15,0,15,0,1,,,,,,,,,,,,,,,,,,,,,,,,,,,,,,,,,,,,,,,
,,,,,,,,2023-08-06_08h28.25.595,HF_wild_card,2022.2.4,Win32,61.21824304,5f27f6a0e13d4e05d048335f,64ce5acb97489d65b14ecc7a,64cf4b76ad8d311521dd96a8,,,,,,,sngl,resources/Empty.png,resources/DG.BMP,Door4,0.336111111,-0.007407407,1,0,0,0.6701,optionRight,60,10680,5,16,0,16,0,1,,,,,,,,,,,,,,,,,,,,,,,,,,,,,,,,,,,,,,,
,,,,,,,,2023-08-06_08h28.25.595,HF_wild_card,2022.2.4,Win32,61.21824304,5f27f6a0e13d4e05d048335f,64ce5acb97489d65b14ecc7a,64cf4b76ad8d311521dd96a8,,,,,,,decisionTrl,resources/DP.BMP,resources/DG.BMP,Door4,0.239814815,0.012962963,1,0,0,1.5756,optionRight,80,10760,5,17,0,17,0,1,,,,,,,,,,,,,,,,,,,,,,,,,,,,,,,,,,,,,,,
,,,,,,,,2023-08-06_08h28.25.595,HF_wild_card,2022.2.4,Win32,61.21824304,5f27f6a0e13d4e05d048335f,64ce5acb97489d65b14ecc7a,64cf4b76ad8d311521dd96a8,,,,,,,decisionTrl,resources/DG.BMP,resources/DP.BMP,Door4,-0.358333333,0.012962963,1,0,0,0.6898,optionLeft,60,10820,5,18,0,18,0,1,,,,,,,,,,,,,,,,,,,,,,,,,,,,,,,,,,,,,,,
,,,,,,,,2023-08-06_08h28.25.595,HF_wild_card,2022.2.4,Win32,61.21824304,5f27f6a0e13d4e05d048335f,64ce5acb97489d65b14ecc7a,64cf4b76ad8d311521dd96a8,,,,,,,sngl,resources/DBN.BMP,resources/Empty.png,Door2,-0.266666667,0.019444444,1,0,0,0.7674,optionLeft,40,10860,5,19,0,19,0,1,,,,,,,,,,,,,,,,,,,,,,,,,,,,,,,,,,,,,,,
,,,,,,,,2023-08-06_08h28.25.595,HF_wild_card,2022.2.4,Win32,61.21824304,5f27f6a0e13d4e05d048335f,64ce5acb97489d65b14ecc7a,64cf4b76ad8d311521dd96a8,,,,,,,sngl,resources/Empty.png,resources/DB.BMP,WildCard_NonEx,0.280555556,-0.009259259,1,0,0,0.6772,optionRight,55,10915,5,20,0,20,0,1,,,,,,,,,,,,,,,,,,,,,,,,,,,,,,,,,,,,,,,
,,,,,,,,2023-08-06_08h28.25.595,HF_wild_card,2022.2.4,Win32,61.21824304,5f27f6a0e13d4e05d048335f,64ce5acb97489d65b14ecc7a,64cf4b76ad8d311521dd96a8,,,,,,,decisionTrl,resources/DBN.BMP,resources/DY.BMP,Door2,-0.274074074,0.012962963,1,0,0,1.4488,optionLeft,20,10935,5,21,0,21,0,1,,,,,,,,,,,,,,,,,,,,,,,,,,,,,,,,,,,,,,,
,,,,,,,,2023-08-06_08h28.25.595,HF_wild_card,2022.2.4,Win32,61.21824304,5f27f6a0e13d4e05d048335f,64ce5acb97489d65b14ecc7a,64cf4b76ad8d311521dd96a8,,,,,,,decisionTrl,resources/DP.BMP,resources/DG.BMP,Door4,0.30462963,-0.000925926,1,0,0,1.0681,optionRight,60,10995,5,22,0,22,0,1,,,,,,,,,,,,,,,,,,,,,,,,,,,,,,,,,,,,,,,
,,,,,,,,2023-08-06_08h28.25.595,HF_wild_card,2022.2.4,Win32,61.21824304,5f27f6a0e13d4e05d048335f,64ce5acb97489d65b14ecc7a,64cf4b76ad8d311521dd96a8,,,,,,,decisionTrl,resources/DB.BMP,resources/DBN.BMP,WildCard_NonEx,-0.335185185,0.002777778,1,0,0,1.1013,optionLeft,45,11040,5,23,0,23,0,1,,,,,,,,,,,,,,,,,,,,,,,,,,,,,,,,,,,,,,,
,,,,,,,,2023-08-06_08h28.25.595,HF_wild_card,2022.2.4,Win32,61.21824304,5f27f6a0e13d4e05d048335f,64ce5acb97489d65b14ecc7a,64cf4b76ad8d311521dd96a8,,,,,,,decisionTrl,resources/DY.BMP,resources/DB.BMP,WildCard_NonEx,0.324074074,-0.010185185,1,0,0,1.2115,optionRight,55,11095,5,24,0,24,0,1,,,,,,,,,,,,,,,,,,,,,,,,,,,,,,,,,,,,,,,
,,,,,,,,2023-08-06_08h28.25.595,HF_wild_card,2022.2.4,Win32,61.21824304,5f27f6a0e13d4e05d048335f,64ce5acb97489d65b14ecc7a,64cf4b76ad8d311521dd96a8,,,,,,,ctch,resources/DP.BMP,resources/DBN.BMP,Door3,-0.271296296,-0.008333333,1,0,0,1.2359,optionLeft,70,11165,5,25,0,25,0,1,,,,,,,,,,,,,,,,,,,,,,,,,,,,,,,,,,,,,,,
,,,,,,,,2023-08-06_08h28.25.595,HF_wild_card,2022.2.4,Win32,61.21824304,5f27f6a0e13d4e05d048335f,64ce5acb97489d65b14ecc7a,64cf4b76ad8d311521dd96a8,,,,,,,decisionTrl,resources/DY.BMP,resources/DBN.BMP,Door2,0.275,0.003703704,1,0,0,1.2046,optionRight,40,11205,5,26,0,26,0,1,,,,,,,,,,,,,,,,,,,,,,,,,,,,,,,,,,,,,,,
,,,,,,,,2023-08-06_08h28.25.595,HF_wild_card,2022.2.4,Win32,61.21824304,5f27f6a0e13d4e05d048335f,64ce5acb97489d65b14ecc7a,64cf4b76ad8d311521dd96a8,,,,,,,decisionTrl,resources/DP.BMP,resources/DB.BMP,Door3,-0.297222222,0,1,0,0,0.9437,optionLeft,70,11275,5,27,0,27,0,1,,,,,,,,,,,,,,,,,,,,,,,,,,,,,,,,,,,,,,,
,,,,,,,,2023-08-06_08h28.25.595,HF_wild_card,2022.2.4,Win32,61.21824304,5f27f6a0e13d4e05d048335f,64ce5acb97489d65b14ecc7a,64cf4b76ad8d311521dd96a8,,,,,,,decisionTrl,resources/DG.BMP,resources/DP.BMP,Door4,-0.344444444,-0.013888889,1,0,0,1.0251,optionLeft,60,11335,5,28,0,28,0,1,,,,,,,,,,,,,,,,,,,,,,,,,,,,,,,,,,,,,,,
,,,,,,,,2023-08-06_08h28.25.595,HF_wild_card,2022.2.4,Win32,61.21824304,5f27f6a0e13d4e05d048335f,64ce5acb97489d65b14ecc7a,64cf4b76ad8d311521dd96a8,,,,,,,sngl,resources/DP.BMP,resources/Empty.png,Door3,-0.277777778,0.000925926,1,0,0,0.7116,optionLeft,70,11405,5,29,0,29,0,1,,,,,,,,,,,,,,,,,,,,,,,,,,,,,,,,,,,,,,,
,,,,,,,,2023-08-06_08h28.25.595,HF_wild_card,2022.2.4,Win32,61.21824304,5f27f6a0e13d4e05d048335f,64ce5acb97489d65b14ecc7a,64cf4b76ad8d311521dd96a8,,,,,,,sngl,resources/DY.BMP,resources/Empty.png,Door1,-0.290740741,0.006481481,1,0,0,1.4173,optionLeft,30,11435,5,30,0,30,0,1,,,,,,,,,,,,,,,,,,,,,,,,,,,,,,,,,,,,,,,
,,,,,,,,2023-08-06_08h28.25.595,HF_wild_card,2022.2.4,Win32,61.21824304,5f27f6a0e13d4e05d048335f,64ce5acb97489d65b14ecc7a,64cf4b76ad8d311521dd96a8,,,,,,,sngl,resources/Empty.png,resources/DY.BMP,Door1,0.377777778,-0.013888889,1,0,0,0.596,optionRight,30,11465,5,31,0,31,0,1,,,,,,,,,,,,,,,,,,,,,,,,,,,,,,,,,,,,,,,
,,,,,,,,2023-08-06_08h28.25.595,HF_wild_card,2022.2.4,Win32,61.21824304,5f27f6a0e13d4e05d048335f,64ce5acb97489d65b14ecc7a,64cf4b76ad8d311521dd96a8,,,,,,,decisionTrl,resources/DP.BMP,resources/DG.BMP,Door4,0.388888889,0.001851852,1,0,0,1.7732,optionRight,60,11525,5,32,0,32,0,1,,,,,,,,,,,,,,,,,,,,,,,,,,,,,,,,,,,,,,,
,,,,,,,,2023-08-06_08h28.25.595,HF_wild_card,2022.2.4,Win32,61.21824304,5f27f6a0e13d4e05d048335f,64ce5acb97489d65b14ecc7a,64cf4b76ad8d311521dd96a8,,,,,,,ctch,resources/DBN.BMP,resources/DP.BMP,Door3,0.343518519,-0.006481481,1,0,0,1.047,optionRight,70,11595,5,33,0,33,0,1,,,,,,,,,,,,,,,,,,,,,,,,,,,,,,,,,,,,,,,
,,,,,,,,2023-08-06_08h28.25.595,HF_wild_card,2022.2.4,Win32,61.21824304,5f27f6a0e13d4e05d048335f,64ce5acb97489d65b14ecc7a,64cf4b76ad8d311521dd96a8,,,,,,,decisionTrl,resources/DB.BMP,resources/DP.BMP,Door3,0.299074074,-0.003703704,1,0,0,1.0789,optionRight,70,11665,5,34,0,34,0,1,,,,,,,,,,,,,,,,,,,,,,,,,,,,,,,,,,,,,,,
,,,,,,,,2023-08-06_08h28.25.595,HF_wild_card,2022.2.4,Win32,61.21824304,5f27f6a0e13d4e05d048335f,64ce5acb97489d65b14ecc7a,64cf4b76ad8d311521dd96a8,,,,,,,ctch,resources/DP.BMP,resources/DBN.BMP,Door3,-0.306481481,-0.005555556,1,0,0,1.0242,optionLeft,70,11735,5,35,0,35,0,1,,,,,,,,,,,,,,,,,,,,,,,,,,,,,,,,,,,,,,,
,,,,,,,,2023-08-06_08h28.25.595,HF_wild_card,2022.2.4,Win32,61.21824304,5f27f6a0e13d4e05d048335f,64ce5acb97489d65b14ecc7a,64cf4b76ad8d311521dd96a8,,,,,,,sngl,resources/DG.BMP,resources/Empty.png,Door4,-0.275925926,0.001851852,1,0,0,0.6936,optionLeft,80,11815,5,36,0,36,0,1,,,,,,,,,,,,,,,,,,,,,,,,,,,,,,,,,,,,,,,
,,,,,,,,2023-08-06_08h28.25.595,HF_wild_card,2022.2.4,Win32,61.21824304,5f27f6a0e13d4e05d048335f,64ce5acb97489d65b14ecc7a,64cf4b76ad8d311521dd96a8,,,,,,,sngl,resources/Empty.png,resources/DBN.BMP,Door2,0.319444444,0.009259259,1,0,0,0.624,optionRight,20,11835,5,37,0,37,0,1,,,,,,,,,,,,,,,,,,,,,,,,,,,,,,,,,,,,,,,
,,,,,,,,2023-08-06_08h28.25.595,HF_wild_card,2022.2.4,Win32,61.21824304,5f27f6a0e13d4e05d048335f,64ce5acb97489d65b14ecc7a,64cf4b76ad8d311521dd96a8,,,,,,,sngl,resources/DB.BMP,resources/Empty.png,WildCard_NonEx,-0.349074074,0.008333333,1,0,0,0.6038,optionLeft,45,11880,5,38,0,38,0,1,,,,,,,,,,,,,,,,,,,,,,,,,,,,,,,,,,,,,,,
,,,,,,,,2023-08-06_08h28.25.595,HF_wild_card,2022.2.4,Win32,61.21824304,5f27f6a0e13d4e05d048335f,64ce5acb97489d65b14ecc7a,64cf4b76ad8d311521dd96a8,,,,,,,ctch,resources/DG.BMP,resources/DY.BMP,Door4,-0.276851852,-0.009259259,1,0,0,0.795,optionLeft,60,11940,5,39,0,39,0,1,,,,,,,,,,,,,,,,,,,,,,,,,,,,,,,,,,,,,,,
,,,,,,,,2023-08-06_08h28.25.595,HF_wild_card,2022.2.4,Win32,61.21824304,5f27f6a0e13d4e05d048335f,64ce5acb97489d65b14ecc7a,64cf4b76ad8d311521dd96a8,,,,,,,sngl,resources/Empty.png,resources/DP.BMP,Door3,0.32037037,-0.025925926,1,0,0,0.7316,optionRight,70,12010,5,40,0,40,0,1,,,,,,,,,,,,,,,,,,,,,,,,,,,,,,,,,,,,,,,
,,,,,,,,2023-08-06_08h28.25.595,HF_wild_card,2022.2.4,Win32,61.21824304,5f27f6a0e13d4e05d048335f,64ce5acb97489d65b14ecc7a,64cf4b76ad8d311521dd96a8,,,,,,,decisionTrl,resources/DBN.BMP,resources/DY.BMP,Door1,0.303703704,-0.024074074,1,0,0,1.2296,optionRight,30,12040,5,41,0,41,0,1,,,,,,,,,,,,,,,,,,,,,,,,,,,,,,,,,,,,,,,
,,,,,,,,2023-08-06_08h28.25.595,HF_wild_card,2022.2.4,Win32,61.21824304,5f27f6a0e13d4e05d048335f,64ce5acb97489d65b14ecc7a,64cf4b76ad8d311521dd96a8,,,,,,,decisionTrl,resources/DBN.BMP,resources/DB.BMP,WildCard_NonEx,0.406481481,-0.006481481,1,0,0,0.7956,optionRight,55,12095,5,42,0,42,0,1,,,,,,,,,,,,,,,,,,,,,,,,,,,,,,,,,,,,,,,
,,,,,,,,2023-08-06_08h28.25.595,HF_wild_card,2022.2.4,Win32,61.21824304,5f27f6a0e13d4e05d048335f,64ce5acb97489d65b14ecc7a,64cf4b76ad8d311521dd96a8,,,,,,,decisionTrl,resources/DB.BMP,resources/DY.BMP,WildCard_NonEx,-0.271296296,-0.001851852,1,0,0,1.0329,optionLeft,45,12140,5,43,0,43,0,1,,,,,,,,,,,,,,,,,,,,,,,,,,,,,,,,,,,,,,,
,,,,,,,,2023-08-06_08h28.25.595,HF_wild_card,2022.2.4,Win32,61.21824304,5f27f6a0e13d4e05d048335f,64ce5acb97489d65b14ecc7a,64cf4b76ad8d311521dd96a8,,,,,,,,,,,,,,,,,,,,,,,,,,4,0,4,0,1,,,,,,,,,,,,,,,,,,,,,,,,,,,,,,,,,,
,,,,,,,,2023-08-06_08h28.25.595,HF_wild_card,2022.2.4,Win32,61.21824304,5f27f6a0e13d4e05d048335f,64ce5acb97489d65b14ecc7a,64cf4b76ad8d311521dd96a8,,,,,,,sngl,resources/DY.BMP,resources/Empty.png,Door1,-0.432407407,0.00462963,1,0,0,0.8165,optionLeft,30,12170,6,0,0,0,0,1,,,,,,,,,,,,,,,,,,,,,,,,,,,,,,,,,,,,,,,
,,,,,,,,2023-08-06_08h28.25.595,HF_wild_card,2022.2.4,Win32,61.21824304,5f27f6a0e13d4e05d048335f,64ce5acb97489d65b14ecc7a,64cf4b76ad8d311521dd96a8,,,,,,,decisionTrl,resources/DBN.BMP,resources/DY.BMP,Door1,0.348148148,-0.025925926,1,0,0,1.3894,optionRight,30,12200,6,1,0,1,0,1,,,,,,,,,,,,,,,,,,,,,,,,,,,,,,,,,,,,,,,
,,,,,,,,2023-08-06_08h28.25.595,HF_wild_card,2022.2.4,Win32,61.21824304,5f27f6a0e13d4e05d048335f,64ce5acb97489d65b14ecc7a,64cf4b76ad8d311521dd96a8,,,,,,,decisionTrl,resources/DY.BMP,resources/DBN.BMP,Door2,0.248148148,-0.012962963,1,0,0,1.0756,optionRight,20,12220,6,2,0,2,0,1,,,,,,,,,,,,,,,,,,,,,,,,,,,,,,,,,,,,,,,
,,,,,,,,2023-08-06_08h28.25.595,HF_wild_card,2022.2.4,Win32,61.21824304,5f27f6a0e13d4e05d048335f,64ce5acb97489d65b14ecc7a,64cf4b76ad8d311521dd96a8,,,,,,,decisionTrl,resources/DBN.BMP,resources/DB.BMP,WildCard_NonEx,0.409259259,-0.00462963,1,0,0,1.4788,optionRight,45,12265,6,3,0,3,0,1,,,,,,,,,,,,,,,,,,,,,,,,,,,,,,,,,,,,,,,
,,,,,,,,2023-08-06_08h28.25.595,HF_wild_card,2022.2.4,Win32,61.21824304,5f27f6a0e13d4e05d048335f,64ce5acb97489d65b14ecc7a,64cf4b76ad8d311521dd96a8,,,,,,,ctch,resources/DBN.BMP,resources/DP.BMP,Door3,0.396296296,0.000925926,1,0,0,0.9062,optionRight,70,12335,6,4,0,4,0,1,,,,,,,,,,,,,,,,,,,,,,,,,,,,,,,,,,,,,,,
,,,,,,,,2023-08-06_08h28.25.595,HF_wild_card,2022.2.4,Win32,61.21824304,5f27f6a0e13d4e05d048335f,64ce5acb97489d65b14ecc7a,64cf4b76ad8d311521dd96a8,,,,,,,decisionTrl,resources/DY.BMP,resources/DBN.BMP,Door1,-0.323148148,0.013888889,1,0,0,1.3363,optionLeft,30,12365,6,5,0,5,0,1,,,,,,,,,,,,,,,,,,,,,,,,,,,,,,,,,,,,,,,
,,,,,,,,2023-08-06_08h28.25.595,HF_wild_card,2022.2.4,Win32,61.21824304,5f27f6a0e13d4e05d048335f,64ce5acb97489d65b14ecc7a,64cf4b76ad8d311521dd96a8,,,,,,,sngl,resources/Empty.png,resources/DB.BMP,WildCard_NonEx,0.549074074,-0.019444444,1,0,0,0.5732,optionRight,55,12420,6,6,0,6,0,1,,,,,,,,,,,,,,,,,,,,,,,,,,,,,,,,,,,,,,,
,,,,,,,,2023-08-06_08h28.25.595,HF_wild_card,2022.2.4,Win32,61.21824304,5f27f6a0e13d4e05d048335f,64ce5acb97489d65b14ecc7a,64cf4b76ad8d311521dd96a8,,,,,,,sngl,resources/Empty.png,resources/DB.BMP,WildCard_NonEx,0.398148148,-0.010185185,1,0,0,0.5778,optionRight,45,12465,6,7,0,7,0,1,,,,,,,,,,,,,,,,,,,,,,,,,,,,,,,,,,,,,,,
,,,,,,,,2023-08-06_08h28.25.595,HF_wild_card,2022.2.4,Win32,61.21824304,5f27f6a0e13d4e05d048335f,64ce5acb97489d65b14ecc7a,64cf4b76ad8d311521dd96a8,,,,,,,decisionTrl,resources/DP.BMP,resources/DG.BMP,Door3,-0.3,0.00462963,1,0,0,1.3043,optionLeft,70,12535,6,8,0,8,0,1,,,,,,,,,,,,,,,,,,,,,,,,,,,,,,,,,,,,,,,
,,,,,,,,2023-08-06_08h28.25.595,HF_wild_card,2022.2.4,Win32,61.21824304,5f27f6a0e13d4e05d048335f,64ce5acb97489d65b14ecc7a,64cf4b76ad8d311521dd96a8,,,,,,,decisionTrl,resources/DY.BMP,resources/DBN.BMP,Door1,-0.346296296,0.035185185,1,0,0,1.3911,optionLeft,30,12565,6,9,0,9,0,1,,,,,,,,,,,,,,,,,,,,,,,,,,,,,,,,,,,,,,,
,,,,,,,,2023-08-06_08h28.25.595,HF_wild_card,2022.2.4,Win32,61.21824304,5f27f6a0e13d4e05d048335f,64ce5acb97489d65b14ecc7a,64cf4b76ad8d311521dd96a8,,,,,,,ctch,resources/DP.BMP,resources/DBN.BMP,Door3,-0.343518519,-0.02037037,1,0,0,0.7349,optionLeft,70,12635,6,10,0,10,0,1,,,,,,,,,,,,,,,,,,,,,,,,,,,,,,,,,,,,,,,
,,,,,,,,2023-08-06_08h28.25.595,HF_wild_card,2022.2.4,Win32,61.21824304,5f27f6a0e13d4e05d048335f,64ce5acb97489d65b14ecc7a,64cf4b76ad8d311521dd96a8,,,,,,,decisionTrl,resources/DP.BMP,resources/DG.BMP,Door4,0.351851852,-0.012037037,1,0,0,0.9877,optionRight,80,12715,6,11,0,11,0,1,,,,,,,,,,,,,,,,,,,,,,,,,,,,,,,,,,,,,,,
,,,,,,,,2023-08-06_08h28.25.595,HF_wild_card,2022.2.4,Win32,61.21824304,5f27f6a0e13d4e05d048335f,64ce5acb97489d65b14ecc7a,64cf4b76ad8d311521dd96a8,,,,,,,sngl,resources/DP.BMP,resources/Empty.png,Door3,-0.327777778,-0.006481481,1,0,0,0.7066,optionLeft,70,12785,6,12,0,12,0,1,,,,,,,,,,,,,,,,,,,,,,,,,,,,,,,,,,,,,,,
,,,,,,,,2023-08-06_08h28.25.595,HF_wild_card,2022.2.4,Win32,61.21824304,5f27f6a0e13d4e05d048335f,64ce5acb97489d65b14ecc7a,64cf4b76ad8d311521dd96a8,,,,,,,decisionTrl,resources/DB.BMP,resources/DP.BMP,Door3,0.360185185,-0.002777778,1,0,0,0.6512,optionRight,70,12855,6,13,0,13,0,1,,,,,,,,,,,,,,,,,,,,,,,,,,,,,,,,,,,,,,,
,,,,,,,,2023-08-06_08h28.25.595,HF_wild_card,2022.2.4,Win32,61.21824304,5f27f6a0e13d4e05d048335f,64ce5acb97489d65b14ecc7a,64cf4b76ad8d311521dd96a8,,,,,,,decisionTrl,resources/DB.BMP,resources/DBN.BMP,WildCard_NonEx,-0.334259259,-0.007407407,1,0,0,1.0238,optionLeft,45,12900,6,14,0,14,0,1,,,,,,,,,,,,,,,,,,,,,,,,,,,,,,,,,,,,,,,
,,,,,,,,2023-08-06_08h28.25.595,HF_wild_card,2022.2.4,Win32,61.21824304,5f27f6a0e13d4e05d048335f,64ce5acb97489d65b14ecc7a,64cf4b76ad8d311521dd96a8,,,,,,,decisionTrl,resources/DB.BMP,resources/DG.BMP,Door4,0.298148148,-0.010185185,1,0,0,0.8864,optionRight,60,12960,6,15,0,15,0,1,,,,,,,,,,,,,,,,,,,,,,,,,,,,,,,,,,,,,,,
,,,,,,,,2023-08-06_08h28.25.595,HF_wild_card,2022.2.4,Win32,61.21824304,5f27f6a0e13d4e05d048335f,64ce5acb97489d65b14ecc7a,64cf4b76ad8d311521dd96a8,,,,,,,decisionTrl,resources/DBN.BMP,resources/DY.BMP,Door2,-0.274074074,-0.007407407,1,0,0,0.8273,optionLeft,40,13000,6,16,0,16,0,1,,,,,,,,,,,,,,,,,,,,,,,,,,,,,,,,,,,,,,,
,,,,,,,,2023-08-06_08h28.25.595,HF_wild_card,2022.2.4,Win32,61.21824304,5f27f6a0e13d4e05d048335f,64ce5acb97489d65b14ecc7a,64cf4b76ad8d311521dd96a8,,,,,,,decisionTrl,resources/DB.BMP,resources/DY.BMP,WildCard_NonEx,-0.309259259,-0.012962963,1,0,0,0.9131,optionLeft,45,13045,6,17,0,17,0,1,,,,,,,,,,,,,,,,,,,,,,,,,,,,,,,,,,,,,,,
,,,,,,,,2023-08-06_08h28.25.595,HF_wild_card,2022.2.4,Win32,61.21824304,5f27f6a0e13d4e05d048335f,64ce5acb97489d65b14ecc7a,64cf4b76ad8d311521dd96a8,,,,,,,decisionTrl,resources/DY.BMP,resources/DB.BMP,WildCard_NonEx,0.349074074,-0.008333333,1,0,0,0.8084,optionRight,45,13090,6,18,0,18,0,1,,,,,,,,,,,,,,,,,,,,,,,,,,,,,,,,,,,,,,,
,,,,,,,,2023-08-06_08h28.25.595,HF_wild_card,2022.2.4,Win32,61.21824304,5f27f6a0e13d4e05d048335f,64ce5acb97489d65b14ecc7a,64cf4b76ad8d311521dd96a8,,,,,,,decisionTrl,resources/DBN.BMP,resources/DY.BMP,Door1,0.297222222,-0.001851852,1,0,0,1.0484,optionRight,30,13120,6,19,0,19,0,1,,,,,,,,,,,,,,,,,,,,,,,,,,,,,,,,,,,,,,,
,,,,,,,,2023-08-06_08h28.25.595,HF_wild_card,2022.2.4,Win32,61.21824304,5f27f6a0e13d4e05d048335f,64ce5acb97489d65b14ecc7a,64cf4b76ad8d311521dd96a8,,,,,,,sngl,resources/DB.BMP,resources/Empty.png,WildCard_NonEx,-0.311111111,0.005555556,1,0,0,0.5937,optionLeft,45,13165,6,20,0,20,0,1,,,,,,,,,,,,,,,,,,,,,,,,,,,,,,,,,,,,,,,
,,,,,,,,2023-08-06_08h28.25.595,HF_wild_card,2022.2.4,Win32,61.21824304,5f27f6a0e13d4e05d048335f,64ce5acb97489d65b14ecc7a,64cf4b76ad8d311521dd96a8,,,,,,,ctch,resources/DG.BMP,resources/DY.BMP,Door4,-0.334259259,0.007407407,1,0,0,0.7285,optionLeft,80,13245,6,21,0,21,0,1,,,,,,,,,,,,,,,,,,,,,,,,,,,,,,,,,,,,,,,
,,,,,,,,2023-08-06_08h28.25.595,HF_wild_card,2022.2.4,Win32,61.21824304,5f27f6a0e13d4e05d048335f,64ce5acb97489d65b14ecc7a,64cf4b76ad8d311521dd96a8,,,,,,,decisionTrl,resources/DP.BMP,resources/DG.BMP,Door4,0.299074074,-0.017592593,1,0,0,1.298,optionRight,60,13305,6,22,0,22,0,1,,,,,,,,,,,,,,,,,,,,,,,,,,,,,,,,,,,,,,,
,,,,,,,,2023-08-06_08h28.25.595,HF_wild_card,2022.2.4,Win32,61.21824304,5f27f6a0e13d4e05d048335f,64ce5acb97489d65b14ecc7a,64cf4b76ad8d311521dd96a8,,,,,,,decisionTrl,resources/DY.BMP,resources/DBN.BMP,Door1,-0.326851852,-0.003703704,1,0,0,0.8936,optionLeft,30,13335,6,23,0,23,0,1,,,,,,,,,,,,,,,,,,,,,,,,,,,,,,,,,,,,,,,
,,,,,,,,2023-08-06_08h28.25.595,HF_wild_card,2022.2.4,Win32,61.21824304,5f27f6a0e13d4e05d048335f,64ce5acb97489d65b14ecc7a,64cf4b76ad8d311521dd96a8,,,,,,,ctch,resources/DY.BMP,resources/DG.BMP,Door4,0.396296296,-0.013888889,1,0,0,0.8144,optionRight,80,13415,6,24,0,24,0,1,,,,,,,,,,,,,,,,,,,,,,,,,,,,,,,,,,,,,,,
,,,,,,,,2023-08-06_08h28.25.595,HF_wild_card,2022.2.4,Win32,61.21824304,5f27f6a0e13d4e05d048335f,64ce5acb97489d65b14ecc7a,64cf4b76ad8d311521dd96a8,,,,,,,decisionTrl,resources/DG.BMP,resources/DP.BMP,Door4,-0.37037037,0.036111111,1,0,0,0.9847,optionLeft,80,13495,6,25,0,25,0,1,,,,,,,,,,,,,,,,,,,,,,,,,,,,,,,,,,,,,,,
,,,,,,,,2023-08-06_08h28.25.595,HF_wild_card,2022.2.4,Win32,61.21824304,5f27f6a0e13d4e05d048335f,64ce5acb97489d65b14ecc7a,64cf4b76ad8d311521dd96a8,,,,,,,ctch,resources/DG.BMP,resources/DY.BMP,Door4,-0.251851852,0.037962963,1,0,0,0.6088,optionLeft,80,13575,6,26,0,26,0,1,,,,,,,,,,,,,,,,,,,,,,,,,,,,,,,,,,,,,,,
,,,,,,,,2023-08-06_08h28.25.595,HF_wild_card,2022.2.4,Win32,61.21824304,5f27f6a0e13d4e05d048335f,64ce5acb97489d65b14ecc7a,64cf4b76ad8d311521dd96a8,,,,,,,sngl,resources/DB.BMP,resources/Empty.png,WildCard_NonEx,-0.27037037,0.001851852,1,0,0,0.575,optionLeft,55,13630,6,27,0,27,0,1,,,,,,,,,,,,,,,,,,,,,,,,,,,,,,,,,,,,,,,
,,,,,,,,2023-08-06_08h28.25.595,HF_wild_card,2022.2.4,Win32,61.21824304,5f27f6a0e13d4e05d048335f,64ce5acb97489d65b14ecc7a,64cf4b76ad8d311521dd96a8,,,,,,,sngl,resources/Empty.png,resources/DP.BMP,Door3,0.344444444,-0.010185185,1,0,0,0.596,optionRight,70,13700,6,28,0,28,0,1,,,,,,,,,,,,,,,,,,,,,,,,,,,,,,,,,,,,,,,
,,,,,,,,2023-08-06_08h28.25.595,HF_wild_card,2022.2.4,Win32,61.21824304,5f27f6a0e13d4e05d048335f,64ce5acb97489d65b14ecc7a,64cf4b76ad8d311521dd96a8,,,,,,,decisionTrl,resources/DG.BMP,resources/DP.BMP,Door4,-0.274074074,0.000925926,1,0,0,0.7977,optionLeft,80,13780,6,29,0,29,0,1,,,,,,,,,,,,,,,,,,,,,,,,,,,,,,,,,,,,,,,
,,,,,,,,2023-08-06_08h28.25.595,HF_wild_card,2022.2.4,Win32,61.21824304,5f27f6a0e13d4e05d048335f,64ce5acb97489d65b14ecc7a,64cf4b76ad8d311521dd96a8,,,,,,,ctch,resources/DY.BMP,resources/DG.BMP,Door4,0.431481481,-0.017592593,1,0,0,0.6069,optionRight,80,13860,6,30,0,30,0,1,,,,,,,,,,,,,,,,,,,,,,,,,,,,,,,,,,,,,,,
,,,,,,,,2023-08-06_08h28.25.595,HF_wild_card,2022.2.4,Win32,61.21824304,5f27f6a0e13d4e05d048335f,64ce5acb97489d65b14ecc7a,64cf4b76ad8d311521dd96a8,,,,,,,sngl,resources/Empty.png,resources/DBN.BMP,Door2,0.355555556,-0.008333333,1,0,0,0.6208,optionRight,40,13900,6,31,0,31,0,1,,,,,,,,,,,,,,,,,,,,,,,,,,,,,,,,,,,,,,,
,,,,,,,,2023-08-06_08h28.25.595,HF_wild_card,2022.2.4,Win32,61.21824304,5f27f6a0e13d4e05d048335f,64ce5acb97489d65b14ecc7a,64cf4b76ad8d311521dd96a8,,,,,,,sngl,resources/DBN.BMP,resources/Empty.png,Door2,-0.286111111,0.012037037,1,0,0,0.5947,optionLeft,20,13920,6,32,0,32,0,1,,,,,,,,,,,,,,,,,,,,,,,,,,,,,,,,,,,,,,,
,,,,,,,,2023-08-06_08h28.25.595,HF_wild_card,2022.2.4,Win32,61.21824304,5f27f6a0e13d4e05d048335f,64ce5acb97489d65b14ecc7a,64cf4b76ad8d311521dd96a8,,,,,,,ctch,resources/DBN.BMP,resources/DP.BMP,Door3,0.350925926,-0.012962963,1,0,0,0.6627,optionRight,70,13990,6,33,0,33,0,1,,,,,,,,,,,,,,,,,,,,,,,,,,,,,,,,,,,,,,,
,,,,,,,,2023-08-06_08h28.25.595,HF_wild_card,2022.2.4,Win32,61.21824304,5f27f6a0e13d4e05d048335f,64ce5acb97489d65b14ecc7a,64cf4b76ad8d311521dd96a8,,,,,,,ctch,resources/DP.BMP,resources/DBN.BMP,Door3,-0.312037037,0.000925926,1,0,0,0.6945,optionLeft,70,14060,6,34,0,34,0,1,,,,,,,,,,,,,,,,,,,,,,,,,,,,,,,,,,,,,,,
,,,,,,,,2023-08-06_08h28.25.595,HF_wild_card,2022.2.4,Win32,61.21824304,5f27f6a0e13d4e05d048335f,64ce5acb97489d65b14ecc7a,64cf4b76ad8d311521dd96a8,,,,,,,decisionTrl,resources/DBN.BMP,resources/DY.BMP,Door1,0.388888889,-0.003703704,1,0,0,0.856,optionRight,30,14090,6,35,0,35,0,1,,,,,,,,,,,,,,,,,,,,,,,,,,,,,,,,,,,,,,,
,,,,,,,,2023-08-06_08h28.25.595,HF_wild_card,2022.2.4,Win32,61.21824304,5f27f6a0e13d4e05d048335f,64ce5acb97489d65b14ecc7a,64cf4b76ad8d311521dd96a8,,,,,,,sngl,resources/Empty.png,resources/DG.BMP,Door4,0.309259259,-0.00462963,1,0,0,0.5709,optionRight,80,14170,6,36,0,36,0,1,,,,,,,,,,,,,,,,,,,,,,,,,,,,,,,,,,,,,,,
,,,,,,,,2023-08-06_08h28.25.595,HF_wild_card,2022.2.4,Win32,61.21824304,5f27f6a0e13d4e05d048335f,64ce5acb97489d65b14ecc7a,64cf4b76ad8d311521dd96a8,,,,,,,decisionTrl,resources/DP.BMP,resources/DB.BMP,Door3,-0.305555556,-0.015740741,1,0,0,0.9448,optionLeft,70,14240,6,37,0,37,0,1,,,,,,,,,,,,,,,,,,,,,,,,,,,,,,,,,,,,,,,
,,,,,,,,2023-08-06_08h28.25.595,HF_wild_card,2022.2.4,Win32,61.21824304,5f27f6a0e13d4e05d048335f,64ce5acb97489d65b14ecc7a,64cf4b76ad8d311521dd96a8,,,,,,,decisionTrl,resources/DG.BMP,resources/DB.BMP,Door4,-0.273148148,-0.006481481,1,0,0,0.8005,optionLeft,60,14300,6,38,0,38,0,1,,,,,,,,,,,,,,,,,,,,,,,,,,,,,,,,,,,,,,,
,,,,,,,,2023-08-06_08h28.25.595,HF_wild_card,2022.2.4,Win32,61.21824304,5f27f6a0e13d4e05d048335f,64ce5acb97489d65b14ecc7a,64cf4b76ad8d311521dd96a8,,,,,,,decisionTrl,resources/DG.BMP,resources/DP.BMP,Door3,0.308333333,-0.001851852,1,0,0,0.8816,optionRight,70,14370,6,39,0,39,0,1,,,,,,,,,,,,,,,,,,,,,,,,,,,,,,,,,,,,,,,
,,,,,,,,2023-08-06_08h28.25.595,HF_wild_card,2022.2.4,Win32,61.21824304,5f27f6a0e13d4e05d048335f,64ce5acb97489d65b14ecc7a,64cf4b76ad8d311521dd96a8,,,,,,,decisionTrl,resources/DP.BMP,resources/DG.BMP,Door3,-0.309259259,0.010185185,1,0,0,0.6623,optionLeft,70,14440,6,40,0,40,0,1,,,,,,,,,,,,,,,,,,,,,,,,,,,,,,,,,,,,,,,
,,,,,,,,2023-08-06_08h28.25.595,HF_wild_card,2022.2.4,Win32,61.21824304,5f27f6a0e13d4e05d048335f,64ce5acb97489d65b14ecc7a,64cf4b76ad8d311521dd96a8,,,,,,,decisionTrl,resources/DG.BMP,resources/DP.BMP,Door3,0.4,-0.02037037,1,0,0,0.5926,optionRight,70,14510,6,41,0,41,0,1,,,,,,,,,,,,,,,,,,,,,,,,,,,,,,,,,,,,,,,
,,,,,,,,2023-08-06_08h28.25.595,HF_wild_card,2022.2.4,Win32,61.21824304,5f27f6a0e13d4e05d048335f,64ce5acb97489d65b14ecc7a,64cf4b76ad8d311521dd96a8,,,,,,,sngl,resources/Empty.png,resources/DY.BMP,Door1,0.362037037,-0.003703704,1,0,0,0.5952,optionRight,30,14540,6,42,0,42,0,1,,,,,,,,,,,,,,,,,,,,,,,,,,,,,,,,,,,,,,,
,,,,,,,,2023-08-06_08h28.25.595,HF_wild_card,2022.2.4,Win32,61.21824304,5f27f6a0e13d4e05d048335f,64ce5acb97489d65b14ecc7a,64cf4b76ad8d311521dd96a8,,,,,,,sngl,resources/DG.BMP,resources/Empty.png,Door4,-0.25462963,0.013888889,1,0,0,0.6176,optionLeft,60,14600,6,43,0,43,0,1,,,,,,,,,,,,,,,,,,,,,,,,,,,,,,,,,,,,,,,
,,,,,,,,2023-08-06_08h28.25.595,HF_wild_card,2022.2.4,Win32,61.21824304,5f27f6a0e13d4e05d048335f,64ce5acb97489d65b14ecc7a,64cf4b76ad8d311521dd96a8,,,,,,,,,,,,,,,,,,,,,,,,,,5,0,5,0,1,,,,,,,,,,,,,,,,,,,,,,,,,,,,,,,,,,
,,,,,,,,2023-08-06_08h28.25.595,HF_wild_card,2022.2.4,Win32,61.21824304,5f27f6a0e13d4e05d048335f,64ce5acb97489d65b14ecc7a,64cf4b76ad8d311521dd96a8,,,,,,,ctch,resources/DP.BMP,resources/DBN.BMP,Door3,-0.35462963,-0.026851852,1,0,0,0.9475,optionLeft,70,14670,7,0,0,0,0,1,,,,,,,,,,,,,,,,,,,,,,,,,,,,,,,,,,,,,,,
,,,,,,,,2023-08-06_08h28.25.595,HF_wild_card,2022.2.4,Win32,61.21824304,5f27f6a0e13d4e05d048335f,64ce5acb97489d65b14ecc7a,64cf4b76ad8d311521dd96a8,,,,,,,decisionTrl,resources/DP.BMP,resources/DG.BMP,Door3,-0.309259259,-0.007407407,1,0,0,1.1691,optionLeft,70,14740,7,1,0,1,0,1,,,,,,,,,,,,,,,,,,,,,,,,,,,,,,,,,,,,,,,
,,,,,,,,2023-08-06_08h28.25.595,HF_wild_card,2022.2.4,Win32,61.21824304,5f27f6a0e13d4e05d048335f,64ce5acb97489d65b14ecc7a,64cf4b76ad8d311521dd96a8,,,,,,,decisionTrl,resources/DY.BMP,resources/DBN.BMP,Door2,0.272222222,0.001851852,1,0,0,1.6009,optionRight,40,14780,7,2,0,2,0,1,,,,,,,,,,,,,,,,,,,,,,,,,,,,,,,,,,,,,,,
,,,,,,,,2023-08-06_08h28.25.595,HF_wild_card,2022.2.4,Win32,61.21824304,5f27f6a0e13d4e05d048335f,64ce5acb97489d65b14ecc7a,64cf4b76ad8d311521dd96a8,,,,,,,ctch,resources/DG.BMP,resources/DY.BMP,Door4,-0.317592593,-0.016666667,1,0,0,0.9642,optionLeft,80,14860,7,3,0,3,0,1,,,,,,,,,,,,,,,,,,,,,,,,,,,,,,,,,,,,,,,
,,,,,,,,2023-08-06_08h28.25.595,HF_wild_card,2022.2.4,Win32,61.21824304,5f27f6a0e13d4e05d048335f,64ce5acb97489d65b14ecc7a,64cf4b76ad8d311521dd96a8,,,,,,,ctch,resources/DP.BMP,resources/DBN.BMP,Door3,-0.318518519,-0.012037037,1,0,0,0.8876,optionLeft,70,14930,7,4,0,4,0,1,,,,,,,,,,,,,,,,,,,,,,,,,,,,,,,,,,,,,,,
,,,,,,,,2023-08-06_08h28.25.595,HF_wild_card,2022.2.4,Win32,61.21824304,5f27f6a0e13d4e05d048335f,64ce5acb97489d65b14ecc7a,64cf4b76ad8d311521dd96a8,,,,,,,decisionTrl,resources/DG.BMP,resources/DP.BMP,Door3,0.297222222,-0.015740741,1,0,0,0.8211,optionRight,70,15000,7,5,0,5,0,1,,,,,,,,,,,,,,,,,,,,,,,,,,,,,,,,,,,,,,,
,,,,,,,,2023-08-06_08h28.25.595,HF_wild_card,2022.2.4,Win32,61.21824304,5f27f6a0e13d4e05d048335f,64ce5acb97489d65b14ecc7a,64cf4b76ad8d311521dd96a8,,,,,,,decisionTrl,resources/DG.BMP,resources/DP.BMP,Door3,0.389814815,-0.027777778,1,0,0,0.6844,optionRight,70,15070,7,6,0,6,0,1,,,,,,,,,,,,,,,,,,,,,,,,,,,,,,,,,,,,,,,
,,,,,,,,2023-08-06_08h28.25.595,HF_wild_card,2022.2.4,Win32,61.21824304,5f27f6a0e13d4e05d048335f,64ce5acb97489d65b14ecc7a,64cf4b76ad8d311521dd96a8,,,,,,,decisionTrl,resources/DY.BMP,resources/DBN.BMP,Door1,-0.250925926,-0.021296296,1,0,0,1.6489,optionLeft,30,15100,7,7,0,7,0,1,,,,,,,,,,,,,,,,,,,,,,,,,,,,,,,,,,,,,,,
,,,,,,,,2023-08-06_08h28.25.595,HF_wild_card,2022.2.4,Win32,61.21824304,5f27f6a0e13d4e05d048335f,64ce5acb97489d65b14ecc7a,64cf4b76ad8d311521dd96a8,,,,,,,ctch,resources/DY.BMP,resources/DG.BMP,Door4,0.326851852,-0.012037037,1,0,0,0.8802,optionRight,80,15180,7,8,0,8,0,1,,,,,,,,,,,,,,,,,,,,,,,,,,,,,,,,,,,,,,,
,,,,,,,,2023-08-06_08h28.25.595,HF_wild_card,2022.2.4,Win32,61.21824304,5f27f6a0e13d4e05d048335f,64ce5acb97489d65b14ecc7a,64cf4b76ad8d311521dd96a8,,,,,,,decisionTrl,resources/DY.BMP,resources/DBN.BMP,Door2,0.321296296,-0.008333333,1,0,0,1.1635,optionRight,20,15200,7,9,0,9,0,1,,,,,,,,,,,,,,,,,,,,,,,,,,,,,,,,,,,,,,,
,,,,,,,,2023-08-06_08h28.25.595,HF_wild_card,2022.2.4,Win32,61.21824304,5f27f6a0e13d4e05d048335f,64ce5acb97489d65b14ecc7a,64cf4b76ad8d311521dd96a8,,,,,,,decisionTrl,resources/DG.BMP,resources/DP.BMP,Door3,0.341666667,-0.012962963,1,0,0,0.8463,optionRight,70,15270,7,10,0,10,0,1,,,,,,,,,,,,,,,,,,,,,,,,,,,,,,,,,,,,,,,
,,,,,,,,2023-08-06_08h28.25.595,HF_wild_card,2022.2.4,Win32,61.21824304,5f27f6a0e13d4e05d048335f,64ce5acb97489d65b14ecc7a,64cf4b76ad8d311521dd96a8,,,,,,,decisionTrl,resources/DP.BMP,resources/DG.BMP,Door3,-0.365740741,-0.000925926,1,0,0,0.6866,optionLeft,70,15340,7,11,0,11,0,1,,,,,,,,,,,,,,,,,,,,,,,,,,,,,,,,,,,,,,,
,,,,,,,,2023-08-06_08h28.25.595,HF_wild_card,2022.2.4,Win32,61.21824304,5f27f6a0e13d4e05d048335f,64ce5acb97489d65b14ecc7a,64cf4b76ad8d311521dd96a8,,,,,,,decisionTrl,resources/DBN.BMP,resources/DY.BMP,Door1,0.296296296,-0.007407407,1,0,0,1.0867,optionRight,30,15370,7,12,0,12,0,1,,,,,,,,,,,,,,,,,,,,,,,,,,,,,,,,,,,,,,,
,,,,,,,,2023-08-06_08h28.25.595,HF_wild_card,2022.2.4,Win32,61.21824304,5f27f6a0e13d4e05d048335f,64ce5acb97489d65b14ecc7a,64cf4b76ad8d311521dd96a8,,,,,,,decisionTrl,resources/DY.BMP,resources/DBN.BMP,Door2,0.308333333,0.000925926,1,0,0,1.2002,optionRight,40,15410,7,13,0,13,0,1,,,,,,,,,,,,,,,,,,,,,,,,,,,,,,,,,,,,,,,
,,,,,,,,2023-08-06_08h28.25.595,HF_wild_card,2022.2.4,Win32,61.21824304,5f27f6a0e13d4e05d048335f,64ce5acb97489d65b14ecc7a,64cf4b76ad8d311521dd96a8,,,,,,,decisionTrl,resources/DBN.BMP,resources/DY.BMP,Door1,0.199074074,-0.012962963,1,0,0,1.2653,optionRight,30,15440,7,14,0,14,0,1,,,,,,,,,,,,,,,,,,,,,,,,,,,,,,,,,,,,,,,
,,,,,,,,2023-08-06_08h28.25.595,HF_wild_card,2022.2.4,Win32,61.21824304,5f27f6a0e13d4e05d048335f,64ce5acb97489d65b14ecc7a,64cf4b76ad8d311521dd96a8,,,,,,,decisionTrl,resources/DP.BMP,resources/DG.BMP,Door3,-0.387037037,0.010185185,1,0,0,0.7036,optionLeft,70,15510,7,15,0,15,0,1,,,,,,,,,,,,,,,,,,,,,,,,,,,,,,,,,,,,,,,
,,,,,,,,2023-08-06_08h28.25.595,HF_wild_card,2022.2.4,Win32,61.21824304,5f27f6a0e13d4e05d048335f,64ce5acb97489d65b14ecc7a,64cf4b76ad8d311521dd96a8,,,,,,,ctch,resources/DY.BMP,resources/DG.BMP,Door4,0.322222222,0.003703704,1,0,0,1.1242,optionRight,60,15570,7,16,0,16,0,1,,,,,,,,,,,,,,,,,,,,,,,,,,,,,,,,,,,,,,,
,,,,,,,,2023-08-06_08h28.25.595,HF_wild_card,2022.2.4,Win32,61.21824304,5f27f6a0e13d4e05d048335f,64ce5acb97489d65b14ecc7a,64cf4b76ad8d311521dd96a8,,,,,,,decisionTrl,resources/DBN.BMP,resources/DY.BMP,Door1,0.25462963,-0.009259259,1,0,0,1.1174,optionRight,30,15600,7,17,0,17,0,1,,,,,,,,,,,,,,,,,,,,,,,,,,,,,,,,,,,,,,,
,,,,,,,,2023-08-06_08h28.25.595,HF_wild_card,2022.2.4,Win32,61.21824304,5f27f6a0e13d4e05d048335f,64ce5acb97489d65b14ecc7a,64cf4b76ad8d311521dd96a8,,,,,,,decisionTrl,resources/DBN.BMP,resources/DY.BMP,Door2,-0.32037037,0.008333333,1,0,0,0.7223,optionLeft,20,15620,7,18,0,18,0,1,,,,,,,,,,,,,,,,,,,,,,,,,,,,,,,,,,,,,,,
,,,,,,,,2023-08-06_08h28.25.595,HF_wild_card,2022.2.4,Win32,61.21824304,5f27f6a0e13d4e05d048335f,64ce5acb97489d65b14ecc7a,64cf4b76ad8d311521dd96a8,,,,,,,decisionTrl,resources/DP.BMP,resources/DG.BMP,Door4,0.338888889,0.001851852,1,0,0,0.947,optionRight,80,15700,7,19,0,19,0,1,,,,,,,,,,,,,,,,,,,,,,,,,,,,,,,,,,,,,,,
,,,,,,,,2023-08-06_08h28.25.595,HF_wild_card,2022.2.4,Win32,61.21824304,5f27f6a0e13d4e05d048335f,64ce5acb97489d65b14ecc7a,64cf4b76ad8d311521dd96a8,,,,,,,decisionTrl,resources/DP.BMP,resources/DG.BMP,Door3,-0.303703704,0.007407407,1,0,0,0.9,optionLeft,70,15770,7,20,0,20,0,1,,,,,,,,,,,,,,,,,,,,,,,,,,,,,,,,,,,,,,,
,,,,,,,,2023-08-06_08h28.25.595,HF_wild_card,2022.2.4,Win32,61.21824304,5f27f6a0e13d4e05d048335f,64ce5acb97489d65b14ecc7a,64cf4b76ad8d311521dd96a8,,,,,,,decisionTrl,resources/DG.BMP,resources/DP.BMP,Door3,0.277777778,-0.010185185,1,0,0,1.1523,optionRight,70,15840,7,21,0,21,0,1,,,,,,,,,,,,,,,,,,,,,,,,,,,,,,,,,,,,,,,
,,,,,,,,2023-08-06_08h28.25.595,HF_wild_card,2022.2.4,Win32,61.21824304,5f27f6a0e13d4e05d048335f,64ce5acb97489d65b14ecc7a,64cf4b76ad8d311521dd96a8,,,,,,,decisionTrl,resources/DY.BMP,resources/DBN.BMP,Door2,0.367592593,0.012962963,1,0,0,1.4611,optionRight,40,15880,7,22,0,22,0,1,,,,,,,,,,,,,,,,,,,,,,,,,,,,,,,,,,,,,,,
,,,,,,,,2023-08-06_08h28.25.595,HF_wild_card,2022.2.4,Win32,61.21824304,5f27f6a0e13d4e05d048335f,64ce5acb97489d65b14ecc7a,64cf4b76ad8d311521dd96a8,,,,,,,decisionTrl,resources/DG.BMP,resources/DP.BMP,Door4,-0.293518519,0.008333333,1,0,0,0.8077,optionLeft,60,15940,7,23,0,23,0,1,,,,,,,,,,,,,,,,,,,,,,,,,,,,,,,,,,,,,,,
,,,,,,,,2023-08-06_08h28.25.595,HF_wild_card,2022.2.4,Win32,61.21824304,5f27f6a0e13d4e05d048335f,64ce5acb97489d65b14ecc7a,64cf4b76ad8d311521dd96a8,,,,,,,ctch,resources/DBN.BMP,resources/DP.BMP,Door3,0.263888889,0.005555556,1,0,0,0.7302,optionRight,70,16010,7,24,0,24,0,1,,,,,,,,,,,,,,,,,,,,,,,,,,,,,,,,,,,,,,,
,,,,,,,,2023-08-06_08h28.25.595,HF_wild_card,2022.2.4,Win32,61.21824304,5f27f6a0e13d4e05d048335f,64ce5acb97489d65b14ecc7a,64cf4b76ad8d311521dd96a8,,,,,,,decisionTrl,resources/DBN.BMP,resources/DY.BMP,Door1,0.237962963,0.011111111,1,0,0,1.1534,optionRight,30,16040,7,25,0,25,0,1,,,,,,,,,,,,,,,,,,,,,,,,,,,,,,,,,,,,,,,
,,,,,,,,2023-08-06_08h28.25.595,HF_wild_card,2022.2.4,Win32,61.21824304,5f27f6a0e13d4e05d048335f,64ce5acb97489d65b14ecc7a,64cf4b76ad8d311521dd96a8,,,,,,,decisionTrl,resources/DY.BMP,resources/DBN.BMP,Door2,0.323148148,0.010185185,1,0,0,1.3152,optionRight,40,16080,7,26,0,26,0,1,,,,,,,,,,,,,,,,,,,,,,,,,,,,,,,,,,,,,,,
,,,,,,,,2023-08-06_08h28.25.595,HF_wild_card,2022.2.4,Win32,61.21824304,5f27f6a0e13d4e05d048335f,64ce5acb97489d65b14ecc7a,64cf4b76ad8d311521dd96a8,,,,,,,ctch,resources/DY.BMP,resources/DG.BMP,Door4,0.358333333,0.012037037,1,0,0,0.8056,optionRight,80,16160,7,27,0,27,0,1,,,,,,,,,,,,,,,,,,,,,,,,,,,,,,,,,,,,,,,
,,,,,,,,2023-08-06_08h28.25.595,HF_wild_card,2022.2.4,Win32,61.21824304,5f27f6a0e13d4e05d048335f,64ce5acb97489d65b14ecc7a,64cf4b76ad8d311521dd96a8,,,,,,,decisionTrl,resources/DP.BMP,resources/DG.BMP,Door3,-0.287037037,0.007407407,1,0,0,0.8897,optionLeft,70,16230,7,28,0,28,0,1,,,,,,,,,,,,,,,,,,,,,,,,,,,,,,,,,,,,,,,
,,,,,,,,2023-08-06_08h28.25.595,HF_wild_card,2022.2.4,Win32,61.21824304,5f27f6a0e13d4e05d048335f,64ce5acb97489d65b14ecc7a,64cf4b76ad8d311521dd96a8,,,,,,,decisionTrl,resources/DBN.BMP,resources/DY.BMP,Door1,0.206481481,-0.005555556,1,0,0,0.9299,optionRight,30,16260,7,29,0,29,0,1,,,,,,,,,,,,,,,,,,,,,,,,,,,,,,,,,,,,,,,
,,,,,,,,2023-08-06_08h28.25.595,HF_wild_card,2022.2.4,Win32,61.21824304,5f27f6a0e13d4e05d048335f,64ce5acb97489d65b14ecc7a,64cf4b76ad8d311521dd96a8,,,,,,,ctch,resources/DG.BMP,resources/DY.BMP,Door4,-0.27037037,0.002777778,1,0,0,1.0927,optionLeft,60,16320,7,30,0,30,0,1,,,,,,,,,,,,,,,,,,,,,,,,,,,,,,,,,,,,,,,
,,,,,,,,2023-08-06_08h28.25.595,HF_wild_card,2022.2.4,Win32,61.21824304,5f27f6a0e13d4e05d048335f,64ce5acb97489d65b14ecc7a,64cf4b76ad8d311521dd96a8,,,,,,,decisionTrl,resources/DG.BMP,resources/DP.BMP,Door3,0.290740741,-0.009259259,1,0,0,1.0472,optionRight,70,16390,7,31,0,31,0,1,,,,,,,,,,,,,,,,,,,,,,,,,,,,,,,,,,,,,,,
,,,,,,,,2023-08-06_08h28.25.595,HF_wild_card,2022.2.4,Win32,61.21824304,5f27f6a0e13d4e05d048335f,64ce5acb97489d65b14ecc7a,64cf4b76ad8d311521dd96a8,,,,,,,ctch,resources/DP.BMP,resources/DBN.BMP,Door3,-0.401851852,0.012037037,1,0,0,0.7284,optionLeft,70,16460,7,32,0,32,0,1,,,,,,,,,,,,,,,,,,,,,,,,,,,,,,,,,,,,,,,
,,,,,,,,2023-08-06_08h28.25.595,HF_wild_card,2022.2.4,Win32,61.21824304,5f27f6a0e13d4e05d048335f,64ce5acb97489d65b14ecc7a,64cf4b76ad8d311521dd96a8,,,,,,,ctch,resources/DBN.BMP,resources/DP.BMP,Door3,0.25,-0.008333333,1,0,0,0.6415,optionRight,70,16530,7,33,0,33,0,1,,,,,,,,,,,,,,,,,,,,,,,,,,,,,,,,,,,,,,,
,,,,,,,,2023-08-06_08h28.25.595,HF_wild_card,2022.2.4,Win32,61.21824304,5f27f6a0e13d4e05d048335f,64ce5acb97489d65b14ecc7a,64cf4b76ad8d311521dd96a8,,,,,,,ctch,resources/DG.BMP,resources/DY.BMP,Door4,-0.291666667,0.021296296,1,0,0,1.1497,optionLeft,60,16590,7,34,0,34,0,1,,,,,,,,,,,,,,,,,,,,,,,,,,,,,,,,,,,,,,,
,,,,,,,,2023-08-06_08h28.25.595,HF_wild_card,2022.2.4,Win32,61.21824304,5f27f6a0e13d4e05d048335f,64ce5acb97489d65b14ecc7a,64cf4b76ad8d311521dd96a8,,,,,,,ctch,resources/DBN.BMP,resources/DP.BMP,Door3,0.306481481,-0.016666667,1,0,0,0.6319,optionRight,70,16660,7,35,0,35,0,1,,,,,,,,,,,,,,,,,,,,,,,,,,,,,,,,,,,,,,,
,,,,,,,,2023-08-06_08h28.25.595,HF_wild_card,2022.2.4,Win32,61.21824304,5f27f6a0e13d4e05d048335f,64ce5acb97489d65b14ecc7a,64cf4b76ad8d311521dd96a8,,,,,,,,,,,,,,,,,,,,,,,,,,6,0,6,0,1,,,,,,,,,,,,,,,,,,,,,,,,,,,,,,,,,,
,,,,,,,,2023-08-06_08h28.25.595,HF_wild_card,2022.2.4,Win32,61.21824304,5f27f6a0e13d4e05d048335f,64ce5acb97489d65b14ecc7a,64cf4b76ad8d311521dd96a8,,,,,,,,,,,,,,,,,,,,,,,,,,,,,,,4,,,,,,,,,,,,,,,,,,,,,,,,,,,,,,,,,
,,,,,,,,2023-08-06_08h28.25.595,HF_wild_card,2022.2.4,Win32,61.21824304,5f27f6a0e13d4e05d048335f,64ce5acb97489d65b14ecc7a,64cf4b76ad8d311521dd96a8,,,,,,,,,,,,,,,,,,,,,,,,,,,,,,,,,,,,,,,,,,,,,,,,,,,,,,,,,,,,,,,,
,,,,,,,,2023-08-06_08h28.25.595,HF_wild_card,2022.2.4,Win32,61.21824304,5f27f6a0e13d4e05d048335f,64ce5acb97489d65b14ecc7a,64cf4b76ad8d311521dd96a8,,,,,,,,,,,,,,,,,,,,,,,,,,,,,,,,30,Door1,resources/DY.BMP,0,0,0,0,1,,,,,,,,,,,,,,,,,,,,,,,,,
,,,,,,,,2023-08-06_08h28.25.595,HF_wild_card,2022.2.4,Win32,61.21824304,5f27f6a0e13d4e05d048335f,64ce5acb97489d65b14ecc7a,64cf4b76ad8d311521dd96a8,,,,,,,,,,,,,,,,,,,,,,,,,,,,,,,,80,Door4,resources/DG.BMP,1,0,1,0,1,,,,,,,,,,,,,,,,,,,,,,,,,
,,,,,,,,2023-08-06_08h28.25.595,HF_wild_card,2022.2.4,Win32,61.21824304,5f27f6a0e13d4e05d048335f,64ce5acb97489d65b14ecc7a,64cf4b76ad8d311521dd96a8,,,,,,,,,,,,,,,,,,,,,,,,,,,,,,,,95,WC_extreme,resources/DR.BMP,2,0,2,0,1,,,,,,,,,,,,,,,,,,,,,,,,,
,,,,,,,,2023-08-06_08h28.25.595,HF_wild_card,2022.2.4,Win32,61.21824304,5f27f6a0e13d4e05d048335f,64ce5acb97489d65b14ecc7a,64cf4b76ad8d311521dd96a8,,,,,,,,,,,,,,,,,,,,,,,,,,,,,,,,70,Door3,resources/DP.BMP,3,0,3,0,1,,,,,,,,,,,,,,,,,,,,,,,,,
,,,,,,,,2023-08-06_08h28.25.595,HF_wild_card,2022.2.4,Win32,61.21824304,5f27f6a0e13d4e05d048335f,64ce5acb97489d65b14ecc7a,64cf4b76ad8d311521dd96a8,,,,,,,,,,,,,,,,,,,,,,,,,,,,,,,,55,WC_nonExtreme,resources/DB.BMP,4,0,4,0,1,,,,,,,,,,,,,,,,,,,,,,,,,
,,,,,,,,2023-08-06_08h28.25.595,HF_wild_card,2022.2.4,Win32,61.21824304,5f27f6a0e13d4e05d048335f,64ce5acb97489d65b14ecc7a,64cf4b76ad8d311521dd96a8,,,,,,,,,,,,,,,,,,,,,,,,,,,,,,,,40,Door2,resources/DBN.BMP,5,0,5,0,1,,,,,,,,,,,,,,,,,,,,,,,,,
,,,,,,,,2023-08-06_08h28.25.595,HF_wild_card,2022.2.4,Win32,61.21824304,5f27f6a0e13d4e05d048335f,64ce5acb97489d65b14ecc7a,64cf4b76ad8d311521dd96a8,,,,,,,,,,,,,,,,,,,,,,,,,,,,,,,,,,,,,,,,,,,,,,,,,,,,,,,,,,,,,,,,
