Condition,Low fixed image (Door1),Low risky image (Door2),High fixed image (Door3),High risky image (Door4),NonExtreme Wild Card 1,NonExtreme Wild Card 2,,date,expName,psychopyVersion,OS,frameRate,PROLIFIC_PID,STUDY_ID,SESSION_ID,mouse_2.x,mouse_2.y,mouse_2.leftButton,mouse_2.midButton,mouse_2.rightButton,mouse_2.clicked_name,Trial Type,Left Option Image,Right Option Image,Chosen Door,mouse.x,mouse.y,mouse.leftButton,mouse.midButton,mouse.rightButton,mouse.time,mouse.clicked_name,Feedback,Cumulative Reward,Block,trial.thisRepN,trial.thisTrialN,trial.thisN,trial.thisIndex,trial.ran,blocks.thisRepN,blocks.thisTrialN,blocks.thisN,blocks.thisIndex,blocks.ran,Money conversion,First Outcome Reported,Shown Door (First Outcome),Displayed Image (First Outcome),outcomes.thisRepN,outcomes.thisTrialN,outcomes.thisN,outcomes.thisIndex,outcomes.ran,judgments.thisRepN,judgments.thisTrialN,judgments.thisN,judgments.thisIndex,judgments.ran,freqMouse.x,freqMouse.y,freqMouse.leftButton,freqMouse.midButton,freqMouse.rightButton,freqMouse.clicked_name,FQJ for first outcome,FQJ for second outcome,Shown Door,Displayed Image,trials.thisRepN,trials.thisTrialN,trials.thisN,trials.thisIndex,trials.ran,judgBlock.thisRepN,judgBlock.thisTrialN,judgBlock.thisN,judgBlock.thisIndex,judgBlock.ran
2,resources/DR.BMP,resources/DP.BMP,resources/DB.BMP,resources/DBN.BMP,resources/DG.BMP,resources/DY.BMP,,2023-08-06_08h27.38.174,HF_wild_card,2022.2.4,Win32,61.22948812,60eb11e45f3e9cb0ae58a090,64ce5acb97489d65b14ecc7a,64cf48483c8673a31cdd9710,,,,,,,,,,,,,,,,,,,,,,,,,,,,,,,,,,,,,,,,,,,,,,,,,,,,,,,,,,,,,,,,
,,,,,,,,2023-08-06_08h27.38.174,HF_wild_card,2022.2.4,Win32,61.22948812,60eb11e45f3e9cb0ae58a090,64ce5acb97489d65b14ecc7a,64cf48483c8673a31cdd9710,0.008333347,-0.423148191,1,0,0,agree,,,,,,,,,,,,,,,,,,,,,,,,,,,,,,,,,,,,,,,,,,,,,,,,,,,,,,,,,,
,,,,,,,,2023-08-06_08h27.38.174,HF_wild_card,2022.2.4,Win32,61.22948812,60eb11e45f3e9cb0ae58a090,64ce5acb97489d65b14ecc7a,64cf48483c8673a31cdd9710,,,,,,,,,,,,,,,,,,,,,,,,,,,,,,,,,,,,,,,,,,,,,,,,,,,,,,,,,,,,,,,,
,,,,,,,,2023-08-06_08h27.38.174,HF_wild_card,2022.2.4,Win32,61.22948812,60eb11e45f3e9cb0ae58a090,64ce5acb97489d65b14ecc7a,64cf48483c8673a31cdd9710,,,,,,,ctch,resources/DP.BMP,resources/DB.BMP,Door3,0.388888889,-0.047222243,1,0,0,2.7452,optionRight,70,70,1,0,0,0,0,1,,,,,,,,,,,,,,,,,,,,,,,,,,,,,,,,,,,,,,,
,,,,,,,,2023-08-06_08h27.38.174,HF_wild_card,2022.2.4,Win32,61.22948812,60eb11e45f3e9cb0ae58a090,64ce5acb97489d65b14ecc7a,64cf48483c8673a31cdd9710,,,,,,,ctch,resources/DB.BMP,resources/DP.BMP,Door3,-0.424074067,-0.046296296,1,0,0,2.0227,optionLeft,70,140,1,1,0,1,0,1,,,,,,,,,,,,,,,,,,,,,,,,,,,,,,,,,,,,,,,
,,,,,,,,2023-08-06_08h27.38.174,HF_wild_card,2022.2.4,Win32,61.22948812,60eb11e45f3e9cb0ae58a090,64ce5acb97489d65b14ecc7a,64cf48483c8673a31cdd9710,,,,,,,sngl,resources/Empty.png,resources/DY.BMP,WildCard_NonEx,0.406481566,-0.076851845,1,0,0,1.5252,optionRight,45,185,1,2,0,2,0,1,,,,,,,,,,,,,,,,,,,,,,,,,,,,,,,,,,,,,,,
,,,,,,,,2023-08-06_08h27.38.174,HF_wild_card,2022.2.4,Win32,61.22948812,60eb11e45f3e9cb0ae58a090,64ce5acb97489d65b14ecc7a,64cf48483c8673a31cdd9710,,,,,,,decisionTrl,resources/DY.BMP,resources/DR.BMP,Door1,0.400925954,-0.048148155,1,0,0,1.6601,optionRight,30,215,1,3,0,3,0,1,,,,,,,,,,,,,,,,,,,,,,,,,,,,,,,,,,,,,,,
,,,,,,,,2023-08-06_08h27.38.174,HF_wild_card,2022.2.4,Win32,61.22948812,60eb11e45f3e9cb0ae58a090,64ce5acb97489d65b14ecc7a,64cf48483c8673a31cdd9710,,,,,,,decisionTrl,resources/DP.BMP,resources/DR.BMP,Door2,-0.38703703,-0.099074116,1,0,0,1.5429,optionLeft,40,255,1,4,0,4,0,1,,,,,,,,,,,,,,,,,,,,,,,,,,,,,,,,,,,,,,,
,,,,,,,,2023-08-06_08h27.38.174,HF_wild_card,2022.2.4,Win32,61.22948812,60eb11e45f3e9cb0ae58a090,64ce5acb97489d65b14ecc7a,64cf48483c8673a31cdd9710,,,,,,,ctch,resources/DR.BMP,resources/DBN.BMP,Door1,-0.404629637,-0.031481496,1,0,0,1.3815,optionLeft,30,285,1,5,0,5,0,1,,,,,,,,,,,,,,,,,,,,,,,,,,,,,,,,,,,,,,,
,,,,,,,,2023-08-06_08h27.38.174,HF_wild_card,2022.2.4,Win32,61.22948812,60eb11e45f3e9cb0ae58a090,64ce5acb97489d65b14ecc7a,64cf48483c8673a31cdd9710,,,,,,,ctch,resources/DB.BMP,resources/DP.BMP,Door3,-0.419444437,-0.049074067,1,0,0,1.0206,optionLeft,70,355,1,6,0,6,0,1,,,,,,,,,,,,,,,,,,,,,,,,,,,,,,,,,,,,,,,
,,,,,,,,2023-08-06_08h27.38.174,HF_wild_card,2022.2.4,Win32,61.22948812,60eb11e45f3e9cb0ae58a090,64ce5acb97489d65b14ecc7a,64cf48483c8673a31cdd9710,,,,,,,sngl,resources/DR.BMP,resources/Empty.png,Door1,-0.40370369,-0.051851873,1,0,0,1.7473,optionLeft,30,385,1,7,0,7,0,1,,,,,,,,,,,,,,,,,,,,,,,,,,,,,,,,,,,,,,,
,,,,,,,,2023-08-06_08h27.38.174,HF_wild_card,2022.2.4,Win32,61.22948812,60eb11e45f3e9cb0ae58a090,64ce5acb97489d65b14ecc7a,64cf48483c8673a31cdd9710,,,,,,,decisionTrl,resources/DY.BMP,resources/DP.BMP,WildCard_NonEx,-0.392592571,-0.006481489,1,0,0,1.4802,optionLeft,55,440,1,8,0,8,0,1,,,,,,,,,,,,,,,,,,,,,,,,,,,,,,,,,,,,,,,
,,,,,,,,2023-08-06_08h27.38.174,HF_wild_card,2022.2.4,Win32,61.22948812,60eb11e45f3e9cb0ae58a090,64ce5acb97489d65b14ecc7a,64cf48483c8673a31cdd9710,,,,,,,sngl,resources/DP.BMP,resources/Empty.png,Door2,-0.418518526,-0.069444444,1,0,0,1.0984,optionLeft,40,480,1,9,0,9,0,1,,,,,,,,,,,,,,,,,,,,,,,,,,,,,,,,,,,,,,,
,,,,,,,,2023-08-06_08h27.38.174,HF_wild_card,2022.2.4,Win32,61.22948812,60eb11e45f3e9cb0ae58a090,64ce5acb97489d65b14ecc7a,64cf48483c8673a31cdd9710,,,,,,,decisionTrl,resources/DR.BMP,resources/DP.BMP,Door2,0.391666695,-0.050000014,1,0,0,0.8583,optionRight,40,520,1,10,0,10,0,1,,,,,,,,,,,,,,,,,,,,,,,,,,,,,,,,,,,,,,,
,,,,,,,,2023-08-06_08h27.38.174,HF_wild_card,2022.2.4,Win32,61.22948812,60eb11e45f3e9cb0ae58a090,64ce5acb97489d65b14ecc7a,64cf48483c8673a31cdd9710,,,,,,,decisionTrl,resources/DBN.BMP,resources/DB.BMP,Door3,0.359259288,-0.041666667,1,0,0,1.0947,optionRight,70,590,1,11,0,11,0,1,,,,,,,,,,,,,,,,,,,,,,,,,,,,,,,,,,,,,,,
,,,,,,,,2023-08-06_08h27.38.174,HF_wild_card,2022.2.4,Win32,61.22948812,60eb11e45f3e9cb0ae58a090,64ce5acb97489d65b14ecc7a,64cf48483c8673a31cdd9710,,,,,,,decisionTrl,resources/DP.BMP,resources/DR.BMP,Door2,-0.362037023,-0.102777764,1,0,0,1.7853,optionLeft,20,610,1,12,0,12,0,1,,,,,,,,,,,,,,,,,,,,,,,,,,,,,,,,,,,,,,,
,,,,,,,,2023-08-06_08h27.38.174,HF_wild_card,2022.2.4,Win32,61.22948812,60eb11e45f3e9cb0ae58a090,64ce5acb97489d65b14ecc7a,64cf48483c8673a31cdd9710,,,,,,,decisionTrl,resources/DP.BMP,resources/DR.BMP,Door1,0.366666723,-0.050925926,1,0,0,1.3068,optionRight,30,640,1,13,0,13,0,1,,,,,,,,,,,,,,,,,,,,,,,,,,,,,,,,,,,,,,,
,,,,,,,,2023-08-06_08h27.38.174,HF_wild_card,2022.2.4,Win32,61.22948812,60eb11e45f3e9cb0ae58a090,64ce5acb97489d65b14ecc7a,64cf48483c8673a31cdd9710,,,,,,,decisionTrl,resources/DY.BMP,resources/DB.BMP,Door3,0.40833339,-0.032407407,1,0,0,0.9114,optionRight,70,710,1,14,0,14,0,1,,,,,,,,,,,,,,,,,,,,,,,,,,,,,,,,,,,,,,,
,,,,,,,,2023-08-06_08h27.38.174,HF_wild_card,2022.2.4,Win32,61.22948812,60eb11e45f3e9cb0ae58a090,64ce5acb97489d65b14ecc7a,64cf48483c8673a31cdd9710,,,,,,,decisionTrl,resources/DBN.BMP,resources/DB.BMP,Door4,-0.457407386,0.029629637,1,0,0,1.6244,optionLeft,80,790,1,15,0,15,0,1,,,,,,,,,,,,,,,,,,,,,,,,,,,,,,,,,,,,,,,
,,,,,,,,2023-08-06_08h27.38.174,HF_wild_card,2022.2.4,Win32,61.22948812,60eb11e45f3e9cb0ae58a090,64ce5acb97489d65b14ecc7a,64cf48483c8673a31cdd9710,,,,,,,decisionTrl,resources/DB.BMP,resources/DBN.BMP,Door4,0.392592677,0.005555541,1,0,0,1.0083,optionRight,80,870,1,16,0,16,0,1,,,,,,,,,,,,,,,,,,,,,,,,,,,,,,,,,,,,,,,
,,,,,,,,2023-08-06_08h27.38.174,HF_wild_card,2022.2.4,Win32,61.22948812,60eb11e45f3e9cb0ae58a090,64ce5acb97489d65b14ecc7a,64cf48483c8673a31cdd9710,,,,,,,ctch,resources/DP.BMP,resources/DB.BMP,Door3,0.381481453,-0.063888903,1,0,0,1.0738,optionRight,70,940,1,17,0,17,0,1,,,,,,,,,,,,,,,,,,,,,,,,,,,,,,,,,,,,,,,
,,,,,,,,2023-08-06_08h27.38.174,HF_wild_card,2022.2.4,Win32,61.22948812,60eb11e45f3e9cb0ae58a090,64ce5acb97489d65b14ecc7a,64cf48483c8673a31cdd9710,,,,,,,decisionTrl,resources/DR.BMP,resources/DP.BMP,Door1,-0.40648146,-0.060185185,1,0,0,2.2254,optionLeft,30,970,1,18,0,18,0,1,,,,,,,,,,,,,,,,,,,,,,,,,,,,,,,,,,,,,,,
,,,,,,,,2023-08-06_08h27.38.174,HF_wild_card,2022.2.4,Win32,61.22948812,60eb11e45f3e9cb0ae58a090,64ce5acb97489d65b14ecc7a,64cf48483c8673a31cdd9710,,,,,,,sngl,resources/DY.BMP,resources/Empty.png,WildCard_NonEx,-0.383333312,-0.025925919,1,0,0,0.9141,optionLeft,45,1015,1,19,0,19,0,1,,,,,,,,,,,,,,,,,,,,,,,,,,,,,,,,,,,,,,,
,,,,,,,,2023-08-06_08h27.38.174,HF_wild_card,2022.2.4,Win32,61.22948812,60eb11e45f3e9cb0ae58a090,64ce5acb97489d65b14ecc7a,64cf48483c8673a31cdd9710,,,,,,,decisionTrl,resources/DBN.BMP,resources/DY.BMP,Door4,-0.431481467,0.034259266,1,0,0,0.8215,optionLeft,60,1075,1,20,0,20,0,1,,,,,,,,,,,,,,,,,,,,,,,,,,,,,,,,,,,,,,,
,,,,,,,,2023-08-06_08h27.38.174,HF_wild_card,2022.2.4,Win32,61.22948812,60eb11e45f3e9cb0ae58a090,64ce5acb97489d65b14ecc7a,64cf48483c8673a31cdd9710,,,,,,,ctch,resources/DBN.BMP,resources/DR.BMP,Door4,-0.365740741,-0.013888889,1,0,0,1.058,optionLeft,60,1135,1,21,0,21,0,1,,,,,,,,,,,,,,,,,,,,,,,,,,,,,,,,,,,,,,,
,,,,,,,,2023-08-06_08h27.38.174,HF_wild_card,2022.2.4,Win32,61.22948812,60eb11e45f3e9cb0ae58a090,64ce5acb97489d65b14ecc7a,64cf48483c8673a31cdd9710,,,,,,,decisionTrl,resources/DB.BMP,resources/DBN.BMP,Door4,0.414814843,0.005555541,1,0,0,1.2256,optionRight,60,1195,1,22,0,22,0,1,,,,,,,,,,,,,,,,,,,,,,,,,,,,,,,,,,,,,,,
,,,,,,,,2023-08-06_08h27.38.174,HF_wild_card,2022.2.4,Win32,61.22948812,60eb11e45f3e9cb0ae58a090,64ce5acb97489d65b14ecc7a,64cf48483c8673a31cdd9710,,,,,,,sngl,resources/Empty.png,resources/DB.BMP,Door3,0.448148233,0.01203703,1,0,0,0.8913,optionRight,70,1265,1,23,0,23,0,1,,,,,,,,,,,,,,,,,,,,,,,,,,,,,,,,,,,,,,,
,,,,,,,,2023-08-06_08h27.38.174,HF_wild_card,2022.2.4,Win32,61.22948812,60eb11e45f3e9cb0ae58a090,64ce5acb97489d65b14ecc7a,64cf48483c8673a31cdd9710,,,,,,,decisionTrl,resources/DB.BMP,resources/DY.BMP,WildCard_NonEx,0.290740755,0.025925919,1,0,0,1.6587,optionRight,55,1320,1,24,0,24,0,1,,,,,,,,,,,,,,,,,,,,,,,,,,,,,,,,,,,,,,,
,,,,,,,,2023-08-06_08h27.38.174,HF_wild_card,2022.2.4,Win32,61.22948812,60eb11e45f3e9cb0ae58a090,64ce5acb97489d65b14ecc7a,64cf48483c8673a31cdd9710,,,,,,,decisionTrl,resources/DBN.BMP,resources/DB.BMP,Door4,-0.386111118,-0.002777771,1,0,0,1.703,optionLeft,60,1380,1,25,0,25,0,1,,,,,,,,,,,,,,,,,,,,,,,,,,,,,,,,,,,,,,,
,,,,,,,,2023-08-06_08h27.38.174,HF_wild_card,2022.2.4,Win32,61.22948812,60eb11e45f3e9cb0ae58a090,64ce5acb97489d65b14ecc7a,64cf48483c8673a31cdd9710,,,,,,,decisionTrl,resources/DP.BMP,resources/DR.BMP,Door2,-0.408333319,-0.077777792,1,0,0,1.9979,optionLeft,20,1400,1,26,0,26,0,1,,,,,,,,,,,,,,,,,,,,,,,,,,,,,,,,,,,,,,,
,,,,,,,,2023-08-06_08h27.38.174,HF_wild_card,2022.2.4,Win32,61.22948812,60eb11e45f3e9cb0ae58a090,64ce5acb97489d65b14ecc7a,64cf48483c8673a31cdd9710,,,,,,,ctch,resources/DBN.BMP,resources/DR.BMP,Door4,-0.339814822,-0.039814808,1,0,0,1.3393,optionLeft,60,1460,1,27,0,27,0,1,,,,,,,,,,,,,,,,,,,,,,,,,,,,,,,,,,,,,,,
,,,,,,,,2023-08-06_08h27.38.174,HF_wild_card,2022.2.4,Win32,61.22948812,60eb11e45f3e9cb0ae58a090,64ce5acb97489d65b14ecc7a,64cf48483c8673a31cdd9710,,,,,,,sngl,resources/DBN.BMP,resources/Empty.png,Door4,-0.405555548,0.02407406,1,0,0,0.892,optionLeft,80,1540,1,28,0,28,0,1,,,,,,,,,,,,,,,,,,,,,,,,,,,,,,,,,,,,,,,
,,,,,,,,2023-08-06_08h27.38.174,HF_wild_card,2022.2.4,Win32,61.22948812,60eb11e45f3e9cb0ae58a090,64ce5acb97489d65b14ecc7a,64cf48483c8673a31cdd9710,,,,,,,sngl,resources/Empty.png,resources/DP.BMP,Door2,0.320370427,-0.034259266,1,0,0,0.9752,optionRight,20,1560,1,29,0,29,0,1,,,,,,,,,,,,,,,,,,,,,,,,,,,,,,,,,,,,,,,
,,,,,,,,2023-08-06_08h27.38.174,HF_wild_card,2022.2.4,Win32,61.22948812,60eb11e45f3e9cb0ae58a090,64ce5acb97489d65b14ecc7a,64cf48483c8673a31cdd9710,,,,,,,decisionTrl,resources/DB.BMP,resources/DBN.BMP,Door3,-0.374074053,-0.034259266,1,0,0,1.425,optionLeft,70,1630,1,30,0,30,0,1,,,,,,,,,,,,,,,,,,,,,,,,,,,,,,,,,,,,,,,
,,,,,,,,2023-08-06_08h27.38.174,HF_wild_card,2022.2.4,Win32,61.22948812,60eb11e45f3e9cb0ae58a090,64ce5acb97489d65b14ecc7a,64cf48483c8673a31cdd9710,,,,,,,decisionTrl,resources/DR.BMP,resources/DY.BMP,WildCard_NonEx,0.435185185,-0.054629644,1,0,0,1.7226,optionRight,45,1675,1,31,0,31,0,1,,,,,,,,,,,,,,,,,,,,,,,,,,,,,,,,,,,,,,,
,,,,,,,,2023-08-06_08h27.38.174,HF_wild_card,2022.2.4,Win32,61.22948812,60eb11e45f3e9cb0ae58a090,64ce5acb97489d65b14ecc7a,64cf48483c8673a31cdd9710,,,,,,,sngl,resources/Empty.png,resources/DR.BMP,Door1,0.320370427,-0.033333355,1,0,0,0.8049,optionRight,30,1705,1,32,0,32,0,1,,,,,,,,,,,,,,,,,,,,,,,,,,,,,,,,,,,,,,,
,,,,,,,,2023-08-06_08h27.38.174,HF_wild_card,2022.2.4,Win32,61.22948812,60eb11e45f3e9cb0ae58a090,64ce5acb97489d65b14ecc7a,64cf48483c8673a31cdd9710,,,,,,,decisionTrl,resources/DY.BMP,resources/DBN.BMP,Door4,0.348148205,-0.002777771,1,0,0,0.9678,optionRight,80,1785,1,33,0,33,0,1,,,,,,,,,,,,,,,,,,,,,,,,,,,,,,,,,,,,,,,
,,,,,,,,2023-08-06_08h27.38.174,HF_wild_card,2022.2.4,Win32,61.22948812,60eb11e45f3e9cb0ae58a090,64ce5acb97489d65b14ecc7a,64cf48483c8673a31cdd9710,,,,,,,decisionTrl,resources/DBN.BMP,resources/DB.BMP,Door3,0.518518519,-0.064814815,1,0,0,2.2799,optionRight,70,1855,1,34,0,34,0,1,,,,,,,,,,,,,,,,,,,,,,,,,,,,,,,,,,,,,,,
,,,,,,,,2023-08-06_08h27.38.174,HF_wild_card,2022.2.4,Win32,61.22948812,60eb11e45f3e9cb0ae58a090,64ce5acb97489d65b14ecc7a,64cf48483c8673a31cdd9710,,,,,,,decisionTrl,resources/DP.BMP,resources/DY.BMP,Door2,-0.364814794,-0.050925926,1,0,0,1.7826,optionLeft,20,1875,1,35,0,35,0,1,,,,,,,,,,,,,,,,,,,,,,,,,,,,,,,,,,,,,,,
,,,,,,,,2023-08-06_08h27.38.174,HF_wild_card,2022.2.4,Win32,61.22948812,60eb11e45f3e9cb0ae58a090,64ce5acb97489d65b14ecc7a,64cf48483c8673a31cdd9710,,,,,,,sngl,resources/DB.BMP,resources/Empty.png,Door3,-0.387962942,-0.058333326,1,0,0,1.6824,optionLeft,70,1945,1,36,0,36,0,1,,,,,,,,,,,,,,,,,,,,,,,,,,,,,,,,,,,,,,,
,,,,,,,,2023-08-06_08h27.38.174,HF_wild_card,2022.2.4,Win32,61.22948812,60eb11e45f3e9cb0ae58a090,64ce5acb97489d65b14ecc7a,64cf48483c8673a31cdd9710,,,,,,,ctch,resources/DR.BMP,resources/DBN.BMP,Door4,0.310185185,0.009259259,1,0,0,1.2207,optionRight,60,2005,1,37,0,37,0,1,,,,,,,,,,,,,,,,,,,,,,,,,,,,,,,,,,,,,,,
,,,,,,,,2023-08-06_08h27.38.174,HF_wild_card,2022.2.4,Win32,61.22948812,60eb11e45f3e9cb0ae58a090,64ce5acb97489d65b14ecc7a,64cf48483c8673a31cdd9710,,,,,,,sngl,resources/Empty.png,resources/DBN.BMP,Door4,0.430555556,0.012962942,1,0,0,0.879,optionRight,60,2065,1,38,0,38,0,1,,,,,,,,,,,,,,,,,,,,,,,,,,,,,,,,,,,,,,,
,,,,,,,,2023-08-06_08h27.38.174,HF_wild_card,2022.2.4,Win32,61.22948812,60eb11e45f3e9cb0ae58a090,64ce5acb97489d65b14ecc7a,64cf48483c8673a31cdd9710,,,,,,,decisionTrl,resources/DB.BMP,resources/DBN.BMP,Door3,-0.419444437,-0.043518526,1,0,0,1.4117,optionLeft,70,2135,1,39,0,39,0,1,,,,,,,,,,,,,,,,,,,,,,,,,,,,,,,,,,,,,,,
,,,,,,,,2023-08-06_08h27.38.174,HF_wild_card,2022.2.4,Win32,61.22948812,60eb11e45f3e9cb0ae58a090,64ce5acb97489d65b14ecc7a,64cf48483c8673a31cdd9710,,,,,,,decisionTrl,resources/DR.BMP,resources/DP.BMP,Door1,-0.329629616,-0.042592614,1,0,0,1.8032,optionLeft,30,2165,1,40,0,40,0,1,,,,,,,,,,,,,,,,,,,,,,,,,,,,,,,,,,,,,,,
,,,,,,,,2023-08-06_08h27.38.174,HF_wild_card,2022.2.4,Win32,61.22948812,60eb11e45f3e9cb0ae58a090,64ce5acb97489d65b14ecc7a,64cf48483c8673a31cdd9710,,,,,,,decisionTrl,resources/DR.BMP,resources/DP.BMP,Door1,-0.35833334,-0.034259266,1,0,0,1.5751,optionLeft,30,2195,1,41,0,41,0,1,,,,,,,,,,,,,,,,,,,,,,,,,,,,,,,,,,,,,,,
,,,,,,,,2023-08-06_08h27.38.174,HF_wild_card,2022.2.4,Win32,61.22948812,60eb11e45f3e9cb0ae58a090,64ce5acb97489d65b14ecc7a,64cf48483c8673a31cdd9710,,,,,,,sngl,resources/Empty.png,resources/DY.BMP,WildCard_NonEx,0.32685188,-0.014814836,1,0,0,1.2667,optionRight,55,2250,1,42,0,42,0,1,,,,,,,,,,,,,,,,,,,,,,,,,,,,,,,,,,,,,,,
,,,,,,,,2023-08-06_08h27.38.174,HF_wild_card,2022.2.4,Win32,61.22948812,60eb11e45f3e9cb0ae58a090,64ce5acb97489d65b14ecc7a,64cf48483c8673a31cdd9710,,,,,,,sngl,resources/DY.BMP,resources/Empty.png,WildCard_NonEx,-0.365740741,0,1,0,0,0.7447,optionLeft,55,2305,1,43,0,43,0,1,,,,,,,,,,,,,,,,,,,,,,,,,,,,,,,,,,,,,,,
,,,,,,,,2023-08-06_08h27.38.174,HF_wild_card,2022.2.4,Win32,61.22948812,60eb11e45f3e9cb0ae58a090,64ce5acb97489d65b14ecc7a,64cf48483c8673a31cdd9710,,,,,,,,,,,,,,,,,,,,,,,,,,0,0,0,0,1,,,,,,,,,,,,,,,,,,,,,,,,,,,,,,,,,,
,,,,,,,,2023-08-06_08h27.38.174,HF_wild_card,2022.2.4,Win32,61.22948812,60eb11e45f3e9cb0ae58a090,64ce5acb97489d65b14ecc7a,64cf48483c8673a31cdd9710,,,,,,,decisionTrl,resources/DBN.BMP,resources/DB.BMP,Door4,-0.348148134,0.035185178,1,0,0,1.931,optionLeft,80,2385,2,0,0,0,0,1,,,,,,,,,,,,,,,,,,,,,,,,,,,,,,,,,,,,,,,
,,,,,,,,2023-08-06_08h27.38.174,HF_wild_card,2022.2.4,Win32,61.22948812,60eb11e45f3e9cb0ae58a090,64ce5acb97489d65b14ecc7a,64cf48483c8673a31cdd9710,,,,,,,sngl,resources/DB.BMP,resources/Empty.png,Door3,-0.458333333,-0.032407407,1,0,0,1.0066,optionLeft,70,2455,2,1,0,1,0,1,,,,,,,,,,,,,,,,,,,,,,,,,,,,,,,,,,,,,,,
,,,,,,,,2023-08-06_08h27.38.174,HF_wild_card,2022.2.4,Win32,61.22948812,60eb11e45f3e9cb0ae58a090,64ce5acb97489d65b14ecc7a,64cf48483c8673a31cdd9710,,,,,,,sngl,resources/Empty.png,resources/DY.BMP,WildCard_NonEx,0.324074074,0.000925912,1,0,0,0.8098,optionRight,55,2510,2,2,0,2,0,1,,,,,,,,,,,,,,,,,,,,,,,,,,,,,,,,,,,,,,,
,,,,,,,,2023-08-06_08h27.38.174,HF_wild_card,2022.2.4,Win32,61.22948812,60eb11e45f3e9cb0ae58a090,64ce5acb97489d65b14ecc7a,64cf48483c8673a31cdd9710,,,,,,,decisionTrl,resources/DB.BMP,resources/DY.BMP,Door3,-0.39907406,-0.047222243,1,0,0,1.5156,optionLeft,70,2580,2,3,0,3,0,1,,,,,,,,,,,,,,,,,,,,,,,,,,,,,,,,,,,,,,,
,,,,,,,,2023-08-06_08h27.38.174,HF_wild_card,2022.2.4,Win32,61.22948812,60eb11e45f3e9cb0ae58a090,64ce5acb97489d65b14ecc7a,64cf48483c8673a31cdd9710,,,,,,,ctch,resources/DR.BMP,resources/DBN.BMP,Door4,0.507407436,0.0074074,1,0,0,1.0245,optionRight,60,2640,2,4,0,4,0,1,,,,,,,,,,,,,,,,,,,,,,,,,,,,,,,,,,,,,,,
,,,,,,,,2023-08-06_08h27.38.174,HF_wild_card,2022.2.4,Win32,61.22948812,60eb11e45f3e9cb0ae58a090,64ce5acb97489d65b14ecc7a,64cf48483c8673a31cdd9710,,,,,,,decisionTrl,resources/DP.BMP,resources/DR.BMP,Door1,0.368518547,0.023148148,1,0,0,1.6291,optionRight,30,2670,2,5,0,5,0,1,,,,,,,,,,,,,,,,,,,,,,,,,,,,,,,,,,,,,,,
,,,,,,,,2023-08-06_08h27.38.174,HF_wild_card,2022.2.4,Win32,61.22948812,60eb11e45f3e9cb0ae58a090,64ce5acb97489d65b14ecc7a,64cf48483c8673a31cdd9710,,,,,,,decisionTrl,resources/DBN.BMP,resources/DY.BMP,Door4,-0.326851845,-0.062037044,1,0,0,1.1226,optionLeft,60,2730,2,6,0,6,0,1,,,,,,,,,,,,,,,,,,,,,,,,,,,,,,,,,,,,,,,
,,,,,,,,2023-08-06_08h27.38.174,HF_wild_card,2022.2.4,Win32,61.22948812,60eb11e45f3e9cb0ae58a090,64ce5acb97489d65b14ecc7a,64cf48483c8673a31cdd9710,,,,,,,ctch,resources/DB.BMP,resources/DP.BMP,Door3,-0.393518519,-0.067592586,1,0,0,0.9676,optionLeft,70,2800,2,7,0,7,0,1,,,,,,,,,,,,,,,,,,,,,,,,,,,,,,,,,,,,,,,
,,,,,,,,2023-08-06_08h27.38.174,HF_wild_card,2022.2.4,Win32,61.22948812,60eb11e45f3e9cb0ae58a090,64ce5acb97489d65b14ecc7a,64cf48483c8673a31cdd9710,,,,,,,sngl,resources/DBN.BMP,resources/Empty.png,Door4,-0.402777778,-0.029629637,1,0,0,0.7539,optionLeft,60,2860,2,8,0,8,0,1,,,,,,,,,,,,,,,,,,,,,,,,,,,,,,,,,,,,,,,
,,,,,,,,2023-08-06_08h27.38.174,HF_wild_card,2022.2.4,Win32,61.22948812,60eb11e45f3e9cb0ae58a090,64ce5acb97489d65b14ecc7a,64cf48483c8673a31cdd9710,,,,,,,sngl,resources/Empty.png,resources/DBN.BMP,Door4,0.41851849,-0.010185206,1,0,0,0.7762,optionRight,80,2940,2,9,0,9,0,1,,,,,,,,,,,,,,,,,,,,,,,,,,,,,,,,,,,,,,,
,,,,,,,,2023-08-06_08h27.38.174,HF_wild_card,2022.2.4,Win32,61.22948812,60eb11e45f3e9cb0ae58a090,64ce5acb97489d65b14ecc7a,64cf48483c8673a31cdd9710,,,,,,,sngl,resources/Empty.png,resources/DR.BMP,Door1,0.334259316,-0.037962984,1,0,0,1.067,optionRight,30,2970,2,10,0,10,0,1,,,,,,,,,,,,,,,,,,,,,,,,,,,,,,,,,,,,,,,
,,,,,,,,2023-08-06_08h27.38.174,HF_wild_card,2022.2.4,Win32,61.22948812,60eb11e45f3e9cb0ae58a090,64ce5acb97489d65b14ecc7a,64cf48483c8673a31cdd9710,,,,,,,decisionTrl,resources/DBN.BMP,resources/DB.BMP,Door4,-0.428703697,0.066666674,1,0,0,1.757,optionLeft,80,3050,2,11,0,11,0,1,,,,,,,,,,,,,,,,,,,,,,,,,,,,,,,,,,,,,,,
,,,,,,,,2023-08-06_08h27.38.174,HF_wild_card,2022.2.4,Win32,61.22948812,60eb11e45f3e9cb0ae58a090,64ce5acb97489d65b14ecc7a,64cf48483c8673a31cdd9710,,,,,,,ctch,resources/DP.BMP,resources/DB.BMP,Door3,0.411111196,-0.058333326,1,0,0,0.8952,optionRight,70,3120,2,12,0,12,0,1,,,,,,,,,,,,,,,,,,,,,,,,,,,,,,,,,,,,,,,
,,,,,,,,2023-08-06_08h27.38.174,HF_wild_card,2022.2.4,Win32,61.22948812,60eb11e45f3e9cb0ae58a090,64ce5acb97489d65b14ecc7a,64cf48483c8673a31cdd9710,,,,,,,decisionTrl,resources/DY.BMP,resources/DR.BMP,WildCard_NonEx,-0.327777757,-0.031481496,1,0,0,1.3655,optionLeft,55,3175,2,13,0,13,0,1,,,,,,,,,,,,,,,,,,,,,,,,,,,,,,,,,,,,,,,
,,,,,,,,2023-08-06_08h27.38.174,HF_wild_card,2022.2.4,Win32,61.22948812,60eb11e45f3e9cb0ae58a090,64ce5acb97489d65b14ecc7a,64cf48483c8673a31cdd9710,,,,,,,decisionTrl,resources/DP.BMP,resources/DY.BMP,WildCard_NonEx,0.365740741,-0.033333355,1,0,0,1.9459,optionRight,45,3220,2,14,0,14,0,1,,,,,,,,,,,,,,,,,,,,,,,,,,,,,,,,,,,,,,,
,,,,,,,,2023-08-06_08h27.38.174,HF_wild_card,2022.2.4,Win32,61.22948812,60eb11e45f3e9cb0ae58a090,64ce5acb97489d65b14ecc7a,64cf48483c8673a31cdd9710,,,,,,,decisionTrl,resources/DP.BMP,resources/DR.BMP,Door1,0.36018527,-0.01666666,1,0,0,1.6231,optionRight,30,3250,2,15,0,15,0,1,,,,,,,,,,,,,,,,,,,,,,,,,,,,,,,,,,,,,,,
,,,,,,,,2023-08-06_08h27.38.174,HF_wild_card,2022.2.4,Win32,61.22948812,60eb11e45f3e9cb0ae58a090,64ce5acb97489d65b14ecc7a,64cf48483c8673a31cdd9710,,,,,,,sngl,resources/Empty.png,resources/DP.BMP,Door2,0.407407407,-0.01203703,1,0,0,1.2852,optionRight,40,3290,2,16,0,16,0,1,,,,,,,,,,,,,,,,,,,,,,,,,,,,,,,,,,,,,,,
,,,,,,,,2023-08-06_08h27.38.174,HF_wild_card,2022.2.4,Win32,61.22948812,60eb11e45f3e9cb0ae58a090,64ce5acb97489d65b14ecc7a,64cf48483c8673a31cdd9710,,,,,,,ctch,resources/DB.BMP,resources/DP.BMP,Door3,-0.41111109,-0.014814836,1,0,0,0.9898,optionLeft,70,3360,2,17,0,17,0,1,,,,,,,,,,,,,,,,,,,,,,,,,,,,,,,,,,,,,,,
,,,,,,,,2023-08-06_08h27.38.174,HF_wild_card,2022.2.4,Win32,61.22948812,60eb11e45f3e9cb0ae58a090,64ce5acb97489d65b14ecc7a,64cf48483c8673a31cdd9710,,,,,,,ctch,resources/DR.BMP,resources/DBN.BMP,Door4,0.356481481,0.006481489,1,0,0,1.1837,optionRight,60,3420,2,18,0,18,0,1,,,,,,,,,,,,,,,,,,,,,,,,,,,,,,,,,,,,,,,
,,,,,,,,2023-08-06_08h27.38.174,HF_wild_card,2022.2.4,Win32,61.22948812,60eb11e45f3e9cb0ae58a090,64ce5acb97489d65b14ecc7a,64cf48483c8673a31cdd9710,,,,,,,sngl,resources/DY.BMP,resources/Empty.png,WildCard_NonEx,-0.373148141,0.0074074,1,0,0,1.31,optionLeft,55,3475,2,19,0,19,0,1,,,,,,,,,,,,,,,,,,,,,,,,,,,,,,,,,,,,,,,
,,,,,,,,2023-08-06_08h27.38.174,HF_wild_card,2022.2.4,Win32,61.22948812,60eb11e45f3e9cb0ae58a090,64ce5acb97489d65b14ecc7a,64cf48483c8673a31cdd9710,,,,,,,sngl,resources/DY.BMP,resources/Empty.png,WildCard_NonEx,-0.375,-0.024074095,1,0,0,0.8571,optionLeft,45,3520,2,20,0,20,0,1,,,,,,,,,,,,,,,,,,,,,,,,,,,,,,,,,,,,,,,
,,,,,,,,2023-08-06_08h27.38.174,HF_wild_card,2022.2.4,Win32,61.22948812,60eb11e45f3e9cb0ae58a090,64ce5acb97489d65b14ecc7a,64cf48483c8673a31cdd9710,,,,,,,decisionTrl,resources/DY.BMP,resources/DBN.BMP,Door4,0.307407379,0.013888889,1,0,0,0.9935,optionRight,80,3600,2,21,0,21,0,1,,,,,,,,,,,,,,,,,,,,,,,,,,,,,,,,,,,,,,,
,,,,,,,,2023-08-06_08h27.38.174,HF_wild_card,2022.2.4,Win32,61.22948812,60eb11e45f3e9cb0ae58a090,64ce5acb97489d65b14ecc7a,64cf48483c8673a31cdd9710,,,,,,,decisionTrl,resources/DB.BMP,resources/DBN.BMP,Door4,0.437037009,0.0074074,1,0,0,3.8887,optionRight,80,3680,2,22,0,22,0,1,,,,,,,,,,,,,,,,,,,,,,,,,,,,,,,,,,,,,,,
,,,,,,,,2023-08-06_08h27.38.174,HF_wild_card,2022.2.4,Win32,61.22948812,60eb11e45f3e9cb0ae58a090,64ce5acb97489d65b14ecc7a,64cf48483c8673a31cdd9710,,,,,,,decisionTrl,resources/DP.BMP,resources/DR.BMP,Door1,0.362962935,-0.021296289,1,0,0,1.5917,optionRight,30,3710,2,23,0,23,0,1,,,,,,,,,,,,,,,,,,,,,,,,,,,,,,,,,,,,,,,
,,,,,,,,2023-08-06_08h27.38.174,HF_wild_card,2022.2.4,Win32,61.22948812,60eb11e45f3e9cb0ae58a090,64ce5acb97489d65b14ecc7a,64cf48483c8673a31cdd9710,,,,,,,sngl,resources/Empty.png,resources/DB.BMP,Door3,0.411111196,-0.025925919,1,0,0,0.757,optionRight,70,3780,2,24,0,24,0,1,,,,,,,,,,,,,,,,,,,,,,,,,,,,,,,,,,,,,,,
,,,,,,,,2023-08-06_08h27.38.174,HF_wild_card,2022.2.4,Win32,61.22948812,60eb11e45f3e9cb0ae58a090,64ce5acb97489d65b14ecc7a,64cf48483c8673a31cdd9710,,,,,,,decisionTrl,resources/DP.BMP,resources/DR.BMP,Door1,0.380555612,-0.050000014,1,0,0,2.0753,optionRight,30,3810,2,25,0,25,0,1,,,,,,,,,,,,,,,,,,,,,,,,,,,,,,,,,,,,,,,
,,,,,,,,2023-08-06_08h27.38.174,HF_wild_card,2022.2.4,Win32,61.22948812,60eb11e45f3e9cb0ae58a090,64ce5acb97489d65b14ecc7a,64cf48483c8673a31cdd9710,,,,,,,decisionTrl,resources/DR.BMP,resources/DP.BMP,Door1,-0.454629616,-0.109259288,1,0,0,1.3809,optionLeft,30,3840,2,26,0,26,0,1,,,,,,,,,,,,,,,,,,,,,,,,,,,,,,,,,,,,,,,
,,,,,,,,2023-08-06_08h27.38.174,HF_wild_card,2022.2.4,Win32,61.22948812,60eb11e45f3e9cb0ae58a090,64ce5acb97489d65b14ecc7a,64cf48483c8673a31cdd9710,,,,,,,decisionTrl,resources/DR.BMP,resources/DY.BMP,WildCard_NonEx,0.433333362,-0.023148148,1,0,0,1.4304,optionRight,45,3885,2,27,0,27,0,1,,,,,,,,,,,,,,,,,,,,,,,,,,,,,,,,,,,,,,,
,,,,,,,,2023-08-06_08h27.38.174,HF_wild_card,2022.2.4,Win32,61.22948812,60eb11e45f3e9cb0ae58a090,64ce5acb97489d65b14ecc7a,64cf48483c8673a31cdd9710,,,,,,,sngl,resources/DR.BMP,resources/Empty.png,Door1,-0.290740755,-0.063888903,1,0,0,1.1328,optionLeft,30,3915,2,28,0,28,0,1,,,,,,,,,,,,,,,,,,,,,,,,,,,,,,,,,,,,,,,
,,,,,,,,2023-08-06_08h27.38.174,HF_wild_card,2022.2.4,Win32,61.22948812,60eb11e45f3e9cb0ae58a090,64ce5acb97489d65b14ecc7a,64cf48483c8673a31cdd9710,,,,,,,decisionTrl,resources/DB.BMP,resources/DBN.BMP,Door4,0.372222194,-0.002777771,1,0,0,2.2783,optionRight,80,3995,2,29,0,29,0,1,,,,,,,,,,,,,,,,,,,,,,,,,,,,,,,,,,,,,,,
,,,,,,,,2023-08-06_08h27.38.174,HF_wild_card,2022.2.4,Win32,61.22948812,60eb11e45f3e9cb0ae58a090,64ce5acb97489d65b14ecc7a,64cf48483c8673a31cdd9710,,,,,,,decisionTrl,resources/DB.BMP,resources/DBN.BMP,Door4,0.390740712,-0.023148148,1,0,0,2.1979,optionRight,60,4055,2,30,0,30,0,1,,,,,,,,,,,,,,,,,,,,,,,,,,,,,,,,,,,,,,,
,,,,,,,,2023-08-06_08h27.38.174,HF_wild_card,2022.2.4,Win32,61.22948812,60eb11e45f3e9cb0ae58a090,64ce5acb97489d65b14ecc7a,64cf48483c8673a31cdd9710,,,,,,,decisionTrl,resources/DY.BMP,resources/DP.BMP,WildCard_NonEx,-0.343518504,-0.057407414,1,0,0,1.3301,optionLeft,45,4100,2,31,0,31,0,1,,,,,,,,,,,,,,,,,,,,,,,,,,,,,,,,,,,,,,,
,,,,,,,,2023-08-06_08h27.38.174,HF_wild_card,2022.2.4,Win32,61.22948812,60eb11e45f3e9cb0ae58a090,64ce5acb97489d65b14ecc7a,64cf48483c8673a31cdd9710,,,,,,,decisionTrl,resources/DR.BMP,resources/DP.BMP,Door1,-0.387962942,-0.000925947,1,0,0,2.1292,optionLeft,30,4130,2,32,0,32,0,1,,,,,,,,,,,,,,,,,,,,,,,,,,,,,,,,,,,,,,,
,,,,,,,,2023-08-06_08h27.38.174,HF_wild_card,2022.2.4,Win32,61.22948812,60eb11e45f3e9cb0ae58a090,64ce5acb97489d65b14ecc7a,64cf48483c8673a31cdd9710,,,,,,,decisionTrl,resources/DBN.BMP,resources/DB.BMP,Door4,-0.451851845,-0.003703718,1,0,0,1.6626,optionLeft,60,4190,2,33,0,33,0,1,,,,,,,,,,,,,,,,,,,,,,,,,,,,,,,,,,,,,,,
,,,,,,,,2023-08-06_08h27.38.174,HF_wild_card,2022.2.4,Win32,61.22948812,60eb11e45f3e9cb0ae58a090,64ce5acb97489d65b14ecc7a,64cf48483c8673a31cdd9710,,,,,,,ctch,resources/DBN.BMP,resources/DR.BMP,Door4,-0.315740727,-0.035185178,1,0,0,1.0403,optionLeft,80,4270,2,34,0,34,0,1,,,,,,,,,,,,,,,,,,,,,,,,,,,,,,,,,,,,,,,
,,,,,,,,2023-08-06_08h27.38.174,HF_wild_card,2022.2.4,Win32,61.22948812,60eb11e45f3e9cb0ae58a090,64ce5acb97489d65b14ecc7a,64cf48483c8673a31cdd9710,,,,,,,decisionTrl,resources/DR.BMP,resources/DP.BMP,Door1,-0.337962963,-0.032407407,1,0,0,1.7262,optionLeft,30,4300,2,35,0,35,0,1,,,,,,,,,,,,,,,,,,,,,,,,,,,,,,,,,,,,,,,
,,,,,,,,2023-08-06_08h27.38.174,HF_wild_card,2022.2.4,Win32,61.22948812,60eb11e45f3e9cb0ae58a090,64ce5acb97489d65b14ecc7a,64cf48483c8673a31cdd9710,,,,,,,decisionTrl,resources/DBN.BMP,resources/DB.BMP,Door4,-0.356481481,-0.069444444,1,0,0,4.5249,optionLeft,60,4360,2,36,0,36,0,1,,,,,,,,,,,,,,,,,,,,,,,,,,,,,,,,,,,,,,,
,,,,,,,,2023-08-06_08h27.38.174,HF_wild_card,2022.2.4,Win32,61.22948812,60eb11e45f3e9cb0ae58a090,64ce5acb97489d65b14ecc7a,64cf48483c8673a31cdd9710,,,,,,,decisionTrl,resources/DR.BMP,resources/DP.BMP,Door1,-0.365740741,0,1,0,0,1.9966,optionLeft,30,4390,2,37,0,37,0,1,,,,,,,,,,,,,,,,,,,,,,,,,,,,,,,,,,,,,,,
,,,,,,,,2023-08-06_08h27.38.174,HF_wild_card,2022.2.4,Win32,61.22948812,60eb11e45f3e9cb0ae58a090,64ce5acb97489d65b14ecc7a,64cf48483c8673a31cdd9710,,,,,,,ctch,resources/DBN.BMP,resources/DR.BMP,Door4,-0.316666674,-0.018518519,1,0,0,1.791,optionLeft,60,4450,2,38,0,38,0,1,,,,,,,,,,,,,,,,,,,,,,,,,,,,,,,,,,,,,,,
,,,,,,,,2023-08-06_08h27.38.174,HF_wild_card,2022.2.4,Win32,61.22948812,60eb11e45f3e9cb0ae58a090,64ce5acb97489d65b14ecc7a,64cf48483c8673a31cdd9710,,,,,,,decisionTrl,resources/DY.BMP,resources/DB.BMP,Door3,0.350926011,-0.037962984,1,0,0,1.3248,optionRight,70,4520,2,39,0,39,0,1,,,,,,,,,,,,,,,,,,,,,,,,,,,,,,,,,,,,,,,
,,,,,,,,2023-08-06_08h27.38.174,HF_wild_card,2022.2.4,Win32,61.22948812,60eb11e45f3e9cb0ae58a090,64ce5acb97489d65b14ecc7a,64cf48483c8673a31cdd9710,,,,,,,sngl,resources/DP.BMP,resources/Empty.png,Door2,-0.350925905,-0.046296296,1,0,0,1.3992,optionLeft,20,4540,2,40,0,40,0,1,,,,,,,,,,,,,,,,,,,,,,,,,,,,,,,,,,,,,,,
,,,,,,,,2023-08-06_08h27.38.174,HF_wild_card,2022.2.4,Win32,61.22948812,60eb11e45f3e9cb0ae58a090,64ce5acb97489d65b14ecc7a,64cf48483c8673a31cdd9710,,,,,,,ctch,resources/DP.BMP,resources/DB.BMP,Door3,0.413888861,-0.058333326,1,0,0,0.9566,optionRight,70,4610,2,41,0,41,0,1,,,,,,,,,,,,,,,,,,,,,,,,,,,,,,,,,,,,,,,
,,,,,,,,2023-08-06_08h27.38.174,HF_wild_card,2022.2.4,Win32,61.22948812,60eb11e45f3e9cb0ae58a090,64ce5acb97489d65b14ecc7a,64cf48483c8673a31cdd9710,,,,,,,sngl,resources/Empty.png,resources/DY.BMP,WildCard_NonEx,0.301851908,0.001851859,1,0,0,0.7983,optionRight,45,4655,2,42,0,42,0,1,,,,,,,,,,,,,,,,,,,,,,,,,,,,,,,,,,,,,,,
,,,,,,,,2023-08-06_08h27.38.174,HF_wild_card,2022.2.4,Win32,61.22948812,60eb11e45f3e9cb0ae58a090,64ce5acb97489d65b14ecc7a,64cf48483c8673a31cdd9710,,,,,,,decisionTrl,resources/DB.BMP,resources/DBN.BMP,Door3,-0.496296282,-0.01666666,1,0,0,3.0571,optionLeft,70,4725,2,43,0,43,0,1,,,,,,,,,,,,,,,,,,,,,,,,,,,,,,,,,,,,,,,
,,,,,,,,2023-08-06_08h27.38.174,HF_wild_card,2022.2.4,Win32,61.22948812,60eb11e45f3e9cb0ae58a090,64ce5acb97489d65b14ecc7a,64cf48483c8673a31cdd9710,,,,,,,,,,,,,,,,,,,,,,,,,,1,0,1,0,1,,,,,,,,,,,,,,,,,,,,,,,,,,,,,,,,,,
,,,,,,,,2023-08-06_08h27.38.174,HF_wild_card,2022.2.4,Win32,61.22948812,60eb11e45f3e9cb0ae58a090,64ce5acb97489d65b14ecc7a,64cf48483c8673a31cdd9710,,,,,,,ctch,resources/DBN.BMP,resources/DR.BMP,Door4,-0.312962956,-0.086111104,1,0,0,1.3682,optionLeft,80,4805,3,0,0,0,0,1,,,,,,,,,,,,,,,,,,,,,,,,,,,,,,,,,,,,,,,
,,,,,,,,2023-08-06_08h27.38.174,HF_wild_card,2022.2.4,Win32,61.22948812,60eb11e45f3e9cb0ae58a090,64ce5acb97489d65b14ecc7a,64cf48483c8673a31cdd9710,,,,,,,decisionTrl,resources/DB.BMP,resources/DBN.BMP,Door3,-0.371296282,0.029629637,1,0,0,3.0242,optionLeft,70,4875,3,1,0,1,0,1,,,,,,,,,,,,,,,,,,,,,,,,,,,,,,,,,,,,,,,
,,,,,,,,2023-08-06_08h27.38.174,HF_wild_card,2022.2.4,Win32,61.22948812,60eb11e45f3e9cb0ae58a090,64ce5acb97489d65b14ecc7a,64cf48483c8673a31cdd9710,,,,,,,decisionTrl,resources/DBN.BMP,resources/DB.BMP,Door3,0.303703732,0.0074074,1,0,0,2.1407,optionRight,70,4945,3,2,0,2,0,1,,,,,,,,,,,,,,,,,,,,,,,,,,,,,,,,,,,,,,,
,,,,,,,,2023-08-06_08h27.38.174,HF_wild_card,2022.2.4,Win32,61.22948812,60eb11e45f3e9cb0ae58a090,64ce5acb97489d65b14ecc7a,64cf48483c8673a31cdd9710,,,,,,,sngl,resources/Empty.png,resources/DR.BMP,Door1,0.381481453,-0.026851866,1,0,0,0.9097,optionRight,30,4975,3,3,0,3,0,1,,,,,,,,,,,,,,,,,,,,,,,,,,,,,,,,,,,,,,,
,,,,,,,,2023-08-06_08h27.38.174,HF_wild_card,2022.2.4,Win32,61.22948812,60eb11e45f3e9cb0ae58a090,64ce5acb97489d65b14ecc7a,64cf48483c8673a31cdd9710,,,,,,,decisionTrl,resources/DB.BMP,resources/DBN.BMP,Door3,-0.298148155,-0.050000014,1,0,0,2.1142,optionLeft,70,5045,3,4,0,4,0,1,,,,,,,,,,,,,,,,,,,,,,,,,,,,,,,,,,,,,,,
,,,,,,,,2023-08-06_08h27.38.174,HF_wild_card,2022.2.4,Win32,61.22948812,60eb11e45f3e9cb0ae58a090,64ce5acb97489d65b14ecc7a,64cf48483c8673a31cdd9710,,,,,,,ctch,resources/DR.BMP,resources/DBN.BMP,Door4,0.373148176,-0.031481496,1,0,0,1.7818,optionRight,80,5125,3,5,0,5,0,1,,,,,,,,,,,,,,,,,,,,,,,,,,,,,,,,,,,,,,,
,,,,,,,,2023-08-06_08h27.38.174,HF_wild_card,2022.2.4,Win32,61.22948812,60eb11e45f3e9cb0ae58a090,64ce5acb97489d65b14ecc7a,64cf48483c8673a31cdd9710,,,,,,,decisionTrl,resources/DR.BMP,resources/DP.BMP,Door1,-0.340740734,-0.051851873,1,0,0,2.0015,optionLeft,30,5155,3,6,0,6,0,1,,,,,,,,,,,,,,,,,,,,,,,,,,,,,,,,,,,,,,,
,,,,,,,,2023-08-06_08h27.38.174,HF_wild_card,2022.2.4,Win32,61.22948812,60eb11e45f3e9cb0ae58a090,64ce5acb97489d65b14ecc7a,64cf48483c8673a31cdd9710,,,,,,,decisionTrl,resources/DY.BMP,resources/DB.BMP,Door3,0.482407464,-0.013888889,1,0,0,1.2868,optionRight,70,5225,3,7,0,7,0,1,,,,,,,,,,,,,,,,,,,,,,,,,,,,,,,,,,,,,,,
,,,,,,,,2023-08-06_08h27.38.174,HF_wild_card,2022.2.4,Win32,61.22948812,60eb11e45f3e9cb0ae58a090,64ce5acb97489d65b14ecc7a,64cf48483c8673a31cdd9710,,,,,,,decisionTrl,resources/DP.BMP,resources/DR.BMP,Door1,0.276851866,-0.033333355,1,0,0,1.4777,optionRight,30,5255,3,8,0,8,0,1,,,,,,,,,,,,,,,,,,,,,,,,,,,,,,,,,,,,,,,
,,,,,,,,2023-08-06_08h27.38.174,HF_wild_card,2022.2.4,Win32,61.22948812,60eb11e45f3e9cb0ae58a090,64ce5acb97489d65b14ecc7a,64cf48483c8673a31cdd9710,,,,,,,decisionTrl,resources/DBN.BMP,resources/DB.BMP,Door4,-0.419444437,-0.022222236,1,0,0,1.9426,optionLeft,80,5335,3,9,0,9,0,1,,,,,,,,,,,,,,,,,,,,,,,,,,,,,,,,,,,,,,,
,,,,,,,,2023-08-06_08h27.38.174,HF_wild_card,2022.2.4,Win32,61.22948812,60eb11e45f3e9cb0ae58a090,64ce5acb97489d65b14ecc7a,64cf48483c8673a31cdd9710,,,,,,,sngl,resources/Empty.png,resources/DP.BMP,Door2,0.448148233,-0.050925926,1,0,0,1.4232,optionRight,20,5355,3,10,0,10,0,1,,,,,,,,,,,,,,,,,,,,,,,,,,,,,,,,,,,,,,,
,,,,,,,,2023-08-06_08h27.38.174,HF_wild_card,2022.2.4,Win32,61.22948812,60eb11e45f3e9cb0ae58a090,64ce5acb97489d65b14ecc7a,64cf48483c8673a31cdd9710,,,,,,,ctch,resources/DP.BMP,resources/DB.BMP,Door3,0.521296325,-0.008333347,1,0,0,0.993,optionRight,70,5425,3,11,0,11,0,1,,,,,,,,,,,,,,,,,,,,,,,,,,,,,,,,,,,,,,,
,,,,,,,,2023-08-06_08h27.38.174,HF_wild_card,2022.2.4,Win32,61.22948812,60eb11e45f3e9cb0ae58a090,64ce5acb97489d65b14ecc7a,64cf48483c8673a31cdd9710,,,,,,,sngl,resources/Empty.png,resources/DY.BMP,WildCard_NonEx,0.45185188,-0.041666667,1,0,0,0.7416,optionRight,45,5470,3,12,0,12,0,1,,,,,,,,,,,,,,,,,,,,,,,,,,,,,,,,,,,,,,,
,,,,,,,,2023-08-06_08h27.38.174,HF_wild_card,2022.2.4,Win32,61.22948812,60eb11e45f3e9cb0ae58a090,64ce5acb97489d65b14ecc7a,64cf48483c8673a31cdd9710,,,,,,,decisionTrl,resources/DR.BMP,resources/DP.BMP,Door1,-0.433333326,-0.044444437,1,0,0,1.7066,optionLeft,30,5500,3,13,0,13,0,1,,,,,,,,,,,,,,,,,,,,,,,,,,,,,,,,,,,,,,,
,,,,,,,,2023-08-06_08h27.38.174,HF_wild_card,2022.2.4,Win32,61.22948812,60eb11e45f3e9cb0ae58a090,64ce5acb97489d65b14ecc7a,64cf48483c8673a31cdd9710,,,,,,,sngl,resources/Empty.png,resources/DBN.BMP,Door4,0.412037037,-0.059259273,1,0,0,13.4222,optionRight,60,5560,3,14,0,14,0,1,,,,,,,,,,,,,,,,,,,,,,,,,,,,,,,,,,,,,,,
,,,,,,,,2023-08-06_08h27.38.174,HF_wild_card,2022.2.4,Win32,61.22948812,60eb11e45f3e9cb0ae58a090,64ce5acb97489d65b14ecc7a,64cf48483c8673a31cdd9710,,,,,,,decisionTrl,resources/DR.BMP,resources/DP.BMP,Door1,-0.380555541,-0.104629658,1,0,0,1.3607,optionLeft,30,5590,3,15,0,15,0,1,,,,,,,,,,,,,,,,,,,,,,,,,,,,,,,,,,,,,,,
,,,,,,,,2023-08-06_08h27.38.174,HF_wild_card,2022.2.4,Win32,61.22948812,60eb11e45f3e9cb0ae58a090,64ce5acb97489d65b14ecc7a,64cf48483c8673a31cdd9710,,,,,,,ctch,resources/DBN.BMP,resources/DR.BMP,Door4,-0.339814822,0.033333319,1,0,0,4.4568,optionLeft,80,5670,3,16,0,16,0,1,,,,,,,,,,,,,,,,,,,,,,,,,,,,,,,,,,,,,,,
,,,,,,,,2023-08-06_08h27.38.174,HF_wild_card,2022.2.4,Win32,61.22948812,60eb11e45f3e9cb0ae58a090,64ce5acb97489d65b14ecc7a,64cf48483c8673a31cdd9710,,,,,,,decisionTrl,resources/DP.BMP,resources/DR.BMP,Door1,0.395370342,0.017592571,1,0,0,1.4912,optionRight,30,5700,3,17,0,17,0,1,,,,,,,,,,,,,,,,,,,,,,,,,,,,,,,,,,,,,,,
,,,,,,,,2023-08-06_08h27.38.174,HF_wild_card,2022.2.4,Win32,61.22948812,60eb11e45f3e9cb0ae58a090,64ce5acb97489d65b14ecc7a,64cf48483c8673a31cdd9710,,,,,,,decisionTrl,resources/DP.BMP,resources/DR.BMP,Door1,0.289814843,0.048148155,1,0,0,1.2612,optionRight,30,5730,3,18,0,18,0,1,,,,,,,,,,,,,,,,,,,,,,,,,,,,,,,,,,,,,,,
,,,,,,,,2023-08-06_08h27.38.174,HF_wild_card,2022.2.4,Win32,61.22948812,60eb11e45f3e9cb0ae58a090,64ce5acb97489d65b14ecc7a,64cf48483c8673a31cdd9710,,,,,,,sngl,resources/DP.BMP,resources/Empty.png,Door2,-0.453703704,-0.003703718,1,0,0,0.7612,optionLeft,40,5770,3,19,0,19,0,1,,,,,,,,,,,,,,,,,,,,,,,,,,,,,,,,,,,,,,,
,,,,,,,,2023-08-06_08h27.38.174,HF_wild_card,2022.2.4,Win32,61.22948812,60eb11e45f3e9cb0ae58a090,64ce5acb97489d65b14ecc7a,64cf48483c8673a31cdd9710,,,,,,,sngl,resources/DY.BMP,resources/Empty.png,WildCard_NonEx,-0.389814801,-0.022222236,1,0,0,1.07,optionLeft,55,5825,3,20,0,20,0,1,,,,,,,,,,,,,,,,,,,,,,,,,,,,,,,,,,,,,,,
,,,,,,,,2023-08-06_08h27.38.174,HF_wild_card,2022.2.4,Win32,61.22948812,60eb11e45f3e9cb0ae58a090,64ce5acb97489d65b14ecc7a,64cf48483c8673a31cdd9710,,,,,,,ctch,resources/DR.BMP,resources/DBN.BMP,Door4,0.27407406,-0.002777771,1,0,0,1.607,optionRight,60,5885,3,21,0,21,0,1,,,,,,,,,,,,,,,,,,,,,,,,,,,,,,,,,,,,,,,
,,,,,,,,2023-08-06_08h27.38.174,HF_wild_card,2022.2.4,Win32,61.22948812,60eb11e45f3e9cb0ae58a090,64ce5acb97489d65b14ecc7a,64cf48483c8673a31cdd9710,,,,,,,decisionTrl,resources/DP.BMP,resources/DR.BMP,Door2,-0.335185192,-0.050925926,1,0,0,1.7979,optionLeft,40,5925,3,22,0,22,0,1,,,,,,,,,,,,,,,,,,,,,,,,,,,,,,,,,,,,,,,
,,,,,,,,2023-08-06_08h27.38.174,HF_wild_card,2022.2.4,Win32,61.22948812,60eb11e45f3e9cb0ae58a090,64ce5acb97489d65b14ecc7a,64cf48483c8673a31cdd9710,,,,,,,sngl,resources/Empty.png,resources/DY.BMP,WildCard_NonEx,0.389814871,-0.021296289,1,0,0,0.726,optionRight,55,5980,3,23,0,23,0,1,,,,,,,,,,,,,,,,,,,,,,,,,,,,,,,,,,,,,,,
,,,,,,,,2023-08-06_08h27.38.174,HF_wild_card,2022.2.4,Win32,61.22948812,60eb11e45f3e9cb0ae58a090,64ce5acb97489d65b14ecc7a,64cf48483c8673a31cdd9710,,,,,,,sngl,resources/DBN.BMP,resources/Empty.png,Door4,-0.301851838,-0.015740748,1,0,0,2.5582,optionLeft,80,6060,3,24,0,24,0,1,,,,,,,,,,,,,,,,,,,,,,,,,,,,,,,,,,,,,,,
,,,,,,,,2023-08-06_08h27.38.174,HF_wild_card,2022.2.4,Win32,61.22948812,60eb11e45f3e9cb0ae58a090,64ce5acb97489d65b14ecc7a,64cf48483c8673a31cdd9710,,,,,,,ctch,resources/DP.BMP,resources/DB.BMP,Door3,0.296296296,-0.043518526,1,0,0,1.8583,optionRight,70,6130,3,25,0,25,0,1,,,,,,,,,,,,,,,,,,,,,,,,,,,,,,,,,,,,,,,
,,,,,,,,2023-08-06_08h27.38.174,HF_wild_card,2022.2.4,Win32,61.22948812,60eb11e45f3e9cb0ae58a090,64ce5acb97489d65b14ecc7a,64cf48483c8673a31cdd9710,,,,,,,sngl,resources/Empty.png,resources/DB.BMP,Door3,0.299074102,-0.01203703,1,0,0,0.9741,optionRight,70,6200,3,26,0,26,0,1,,,,,,,,,,,,,,,,,,,,,,,,,,,,,,,,,,,,,,,
,,,,,,,,2023-08-06_08h27.38.174,HF_wild_card,2022.2.4,Win32,61.22948812,60eb11e45f3e9cb0ae58a090,64ce5acb97489d65b14ecc7a,64cf48483c8673a31cdd9710,,,,,,,decisionTrl,resources/DB.BMP,resources/DBN.BMP,Door4,0.374074159,0.003703683,1,0,0,1.4527,optionRight,60,6260,3,27,0,27,0,1,,,,,,,,,,,,,,,,,,,,,,,,,,,,,,,,,,,,,,,
,,,,,,,,2023-08-06_08h27.38.174,HF_wild_card,2022.2.4,Win32,61.22948812,60eb11e45f3e9cb0ae58a090,64ce5acb97489d65b14ecc7a,64cf48483c8673a31cdd9710,,,,,,,decisionTrl,resources/DBN.BMP,resources/DY.BMP,Door4,-0.440740727,-0.031481496,1,0,0,1.1684,optionLeft,80,6340,3,28,0,28,0,1,,,,,,,,,,,,,,,,,,,,,,,,,,,,,,,,,,,,,,,
,,,,,,,,2023-08-06_08h27.38.174,HF_wild_card,2022.2.4,Win32,61.22948812,60eb11e45f3e9cb0ae58a090,64ce5acb97489d65b14ecc7a,64cf48483c8673a31cdd9710,,,,,,,ctch,resources/DB.BMP,resources/DP.BMP,Door3,-0.410185178,-0.035185178,1,0,0,1.7595,optionLeft,70,6410,3,29,0,29,0,1,,,,,,,,,,,,,,,,,,,,,,,,,,,,,,,,,,,,,,,
,,,,,,,,2023-08-06_08h27.38.174,HF_wild_card,2022.2.4,Win32,61.22948812,60eb11e45f3e9cb0ae58a090,64ce5acb97489d65b14ecc7a,64cf48483c8673a31cdd9710,,,,,,,sngl,resources/DY.BMP,resources/Empty.png,WildCard_NonEx,-0.27870369,-0.061111132,1,0,0,1.1683,optionLeft,45,6455,3,30,0,30,0,1,,,,,,,,,,,,,,,,,,,,,,,,,,,,,,,,,,,,,,,
,,,,,,,,2023-08-06_08h27.38.174,HF_wild_card,2022.2.4,Win32,61.22948812,60eb11e45f3e9cb0ae58a090,64ce5acb97489d65b14ecc7a,64cf48483c8673a31cdd9710,,,,,,,decisionTrl,resources/DR.BMP,resources/DP.BMP,Door2,0.323148233,-0.00462963,1,0,0,2.4746,optionRight,40,6495,3,31,0,31,0,1,,,,,,,,,,,,,,,,,,,,,,,,,,,,,,,,,,,,,,,
,,,,,,,,2023-08-06_08h27.38.174,HF_wild_card,2022.2.4,Win32,61.22948812,60eb11e45f3e9cb0ae58a090,64ce5acb97489d65b14ecc7a,64cf48483c8673a31cdd9710,,,,,,,decisionTrl,resources/DY.BMP,resources/DR.BMP,WildCard_NonEx,-0.339814822,-0.044444437,1,0,0,1.6629,optionLeft,55,6550,3,32,0,32,0,1,,,,,,,,,,,,,,,,,,,,,,,,,,,,,,,,,,,,,,,
,,,,,,,,2023-08-06_08h27.38.174,HF_wild_card,2022.2.4,Win32,61.22948812,60eb11e45f3e9cb0ae58a090,64ce5acb97489d65b14ecc7a,64cf48483c8673a31cdd9710,,,,,,,decisionTrl,resources/DBN.BMP,resources/DB.BMP,Door3,0.280555584,-0.030555548,1,0,0,2.2632,optionRight,70,6620,3,33,0,33,0,1,,,,,,,,,,,,,,,,,,,,,,,,,,,,,,,,,,,,,,,
,,,,,,,,2023-08-06_08h27.38.174,HF_wild_card,2022.2.4,Win32,61.22948812,60eb11e45f3e9cb0ae58a090,64ce5acb97489d65b14ecc7a,64cf48483c8673a31cdd9710,,,,,,,ctch,resources/DB.BMP,resources/DP.BMP,Door3,-0.299074067,-0.045370384,1,0,0,1.0887,optionLeft,70,6690,3,34,0,34,0,1,,,,,,,,,,,,,,,,,,,,,,,,,,,,,,,,,,,,,,,
,,,,,,,,2023-08-06_08h27.38.174,HF_wild_card,2022.2.4,Win32,61.22948812,60eb11e45f3e9cb0ae58a090,64ce5acb97489d65b14ecc7a,64cf48483c8673a31cdd9710,,,,,,,decisionTrl,resources/DBN.BMP,resources/DB.BMP,Door4,-0.334259245,0.034259266,1,0,0,1.7065,optionLeft,60,6750,3,35,0,35,0,1,,,,,,,,,,,,,,,,,,,,,,,,,,,,,,,,,,,,,,,
,,,,,,,,2023-08-06_08h27.38.174,HF_wild_card,2022.2.4,Win32,61.22948812,60eb11e45f3e9cb0ae58a090,64ce5acb97489d65b14ecc7a,64cf48483c8673a31cdd9710,,,,,,,decisionTrl,resources/DP.BMP,resources/DY.BMP,WildCard_NonEx,0.356481481,-0.014814836,1,0,0,2.2296,optionRight,55,6805,3,36,0,36,0,1,,,,,,,,,,,,,,,,,,,,,,,,,,,,,,,,,,,,,,,
,,,,,,,,2023-08-06_08h27.38.174,HF_wild_card,2022.2.4,Win32,61.22948812,60eb11e45f3e9cb0ae58a090,64ce5acb97489d65b14ecc7a,64cf48483c8673a31cdd9710,,,,,,,sngl,resources/DB.BMP,resources/Empty.png,Door3,-0.333333333,-0.024074095,1,0,0,1.5413,optionLeft,70,6875,3,37,0,37,0,1,,,,,,,,,,,,,,,,,,,,,,,,,,,,,,,,,,,,,,,
,,,,,,,,2023-08-06_08h27.38.174,HF_wild_card,2022.2.4,Win32,61.22948812,60eb11e45f3e9cb0ae58a090,64ce5acb97489d65b14ecc7a,64cf48483c8673a31cdd9710,,,,,,,decisionTrl,resources/DB.BMP,resources/DY.BMP,Door3,-0.509259259,-0.075925933,1,0,0,1.7614,optionLeft,70,6945,3,38,0,38,0,1,,,,,,,,,,,,,,,,,,,,,,,,,,,,,,,,,,,,,,,
,,,,,,,,2023-08-06_08h27.38.174,HF_wild_card,2022.2.4,Win32,61.22948812,60eb11e45f3e9cb0ae58a090,64ce5acb97489d65b14ecc7a,64cf48483c8673a31cdd9710,,,,,,,decisionTrl,resources/DY.BMP,resources/DP.BMP,WildCard_NonEx,-0.436111097,-0.019444466,1,0,0,1.6993,optionLeft,45,6990,3,39,0,39,0,1,,,,,,,,,,,,,,,,,,,,,,,,,,,,,,,,,,,,,,,
,,,,,,,,2023-08-06_08h27.38.174,HF_wild_card,2022.2.4,Win32,61.22948812,60eb11e45f3e9cb0ae58a090,64ce5acb97489d65b14ecc7a,64cf48483c8673a31cdd9710,,,,,,,decisionTrl,resources/DB.BMP,resources/DBN.BMP,Door4,0.268518519,-0.011111118,1,0,0,2.6761,optionRight,60,7050,3,40,0,40,0,1,,,,,,,,,,,,,,,,,,,,,,,,,,,,,,,,,,,,,,,
,,,,,,,,2023-08-06_08h27.38.174,HF_wild_card,2022.2.4,Win32,61.22948812,60eb11e45f3e9cb0ae58a090,64ce5acb97489d65b14ecc7a,64cf48483c8673a31cdd9710,,,,,,,decisionTrl,resources/DY.BMP,resources/DBN.BMP,Door4,0.32685188,-0.005555577,1,0,0,2.0771,optionRight,60,7110,3,41,0,41,0,1,,,,,,,,,,,,,,,,,,,,,,,,,,,,,,,,,,,,,,,
,,,,,,,,2023-08-06_08h27.38.174,HF_wild_card,2022.2.4,Win32,61.22948812,60eb11e45f3e9cb0ae58a090,64ce5acb97489d65b14ecc7a,64cf48483c8673a31cdd9710,,,,,,,decisionTrl,resources/DR.BMP,resources/DY.BMP,WildCard_NonEx,0.310185185,-0.060185185,1,0,0,1.382,optionRight,55,7165,3,42,0,42,0,1,,,,,,,,,,,,,,,,,,,,,,,,,,,,,,,,,,,,,,,
,,,,,,,,2023-08-06_08h27.38.174,HF_wild_card,2022.2.4,Win32,61.22948812,60eb11e45f3e9cb0ae58a090,64ce5acb97489d65b14ecc7a,64cf48483c8673a31cdd9710,,,,,,,sngl,resources/DR.BMP,resources/Empty.png,Door1,-0.347222222,-0.046296296,1,0,0,0.7974,optionLeft,30,7195,3,43,0,43,0,1,,,,,,,,,,,,,,,,,,,,,,,,,,,,,,,,,,,,,,,
,,,,,,,,2023-08-06_08h27.38.174,HF_wild_card,2022.2.4,Win32,61.22948812,60eb11e45f3e9cb0ae58a090,64ce5acb97489d65b14ecc7a,64cf48483c8673a31cdd9710,,,,,,,,,,,,,,,,,,,,,,,,,,2,0,2,0,1,,,,,,,,,,,,,,,,,,,,,,,,,,,,,,,,,,
,,,,,,,,2023-08-06_08h27.38.174,HF_wild_card,2022.2.4,Win32,61.22948812,60eb11e45f3e9cb0ae58a090,64ce5acb97489d65b14ecc7a,64cf48483c8673a31cdd9710,,,,,,,decisionTrl,resources/DG.BMP,resources/DB.BMP,WildCard_Ex,-0.332407386,0.01203703,1,0,0,2.5634,optionLeft,45,7240,4,0,0,0,0,1,,,,,,,,,,,,,,,,,,,,,,,,,,,,,,,,,,,,,,,
,,,,,,,,2023-08-06_08h27.38.174,HF_wild_card,2022.2.4,Win32,61.22948812,60eb11e45f3e9cb0ae58a090,64ce5acb97489d65b14ecc7a,64cf48483c8673a31cdd9710,,,,,,,ctch,resources/DB.BMP,resources/DP.BMP,Door3,-0.246296282,-0.056481503,1,0,0,1.0858,optionLeft,70,7310,4,1,0,1,0,1,,,,,,,,,,,,,,,,,,,,,,,,,,,,,,,,,,,,,,,
,,,,,,,,2023-08-06_08h27.38.174,HF_wild_card,2022.2.4,Win32,61.22948812,60eb11e45f3e9cb0ae58a090,64ce5acb97489d65b14ecc7a,64cf48483c8673a31cdd9710,,,,,,,sngl,resources/DG.BMP,resources/Empty.png,WildCard_Ex,-0.317592586,-0.048148155,1,0,0,1.0086,optionLeft,55,7365,4,2,0,2,0,1,,,,,,,,,,,,,,,,,,,,,,,,,,,,,,,,,,,,,,,
,,,,,,,,2023-08-06_08h27.38.174,HF_wild_card,2022.2.4,Win32,61.22948812,60eb11e45f3e9cb0ae58a090,64ce5acb97489d65b14ecc7a,64cf48483c8673a31cdd9710,,,,,,,decisionTrl,resources/DBN.BMP,resources/DB.BMP,Door4,-0.375,0.003703683,1,0,0,1.5025,optionLeft,80,7445,4,3,0,3,0,1,,,,,,,,,,,,,,,,,,,,,,,,,,,,,,,,,,,,,,,
,,,,,,,,2023-08-06_08h27.38.174,HF_wild_card,2022.2.4,Win32,61.22948812,60eb11e45f3e9cb0ae58a090,64ce5acb97489d65b14ecc7a,64cf48483c8673a31cdd9710,,,,,,,decisionTrl,resources/DBN.BMP,resources/DB.BMP,Door4,-0.324999986,-0.020370377,1,0,0,0.8414,optionLeft,80,7525,4,4,0,4,0,1,,,,,,,,,,,,,,,,,,,,,,,,,,,,,,,,,,,,,,,
,,,,,,,,2023-08-06_08h27.38.174,HF_wild_card,2022.2.4,Win32,61.22948812,60eb11e45f3e9cb0ae58a090,64ce5acb97489d65b14ecc7a,64cf48483c8673a31cdd9710,,,,,,,decisionTrl,resources/DR.BMP,resources/DG.BMP,WildCard_Ex,0.400925954,-0.048148155,1,0,0,1.9248,optionRight,45,7570,4,5,0,5,0,1,,,,,,,,,,,,,,,,,,,,,,,,,,,,,,,,,,,,,,,
,,,,,,,,2023-08-06_08h27.38.174,HF_wild_card,2022.2.4,Win32,61.22948812,60eb11e45f3e9cb0ae58a090,64ce5acb97489d65b14ecc7a,64cf48483c8673a31cdd9710,,,,,,,ctch,resources/DP.BMP,resources/DB.BMP,Door3,0.218518504,0.025000007,1,0,0,1.0252,optionRight,70,7640,4,6,0,6,0,1,,,,,,,,,,,,,,,,,,,,,,,,,,,,,,,,,,,,,,,
,,,,,,,,2023-08-06_08h27.38.174,HF_wild_card,2022.2.4,Win32,61.22948812,60eb11e45f3e9cb0ae58a090,64ce5acb97489d65b14ecc7a,64cf48483c8673a31cdd9710,,,,,,,decisionTrl,resources/DG.BMP,resources/DBN.BMP,Door4,0.252777806,-0.002777771,1,0,0,1.2083,optionRight,80,7720,4,7,0,7,0,1,,,,,,,,,,,,,,,,,,,,,,,,,,,,,,,,,,,,,,,
,,,,,,,,2023-08-06_08h27.38.174,HF_wild_card,2022.2.4,Win32,61.22948812,60eb11e45f3e9cb0ae58a090,64ce5acb97489d65b14ecc7a,64cf48483c8673a31cdd9710,,,,,,,decisionTrl,resources/DR.BMP,resources/DP.BMP,Door2,0.398148148,-0.034259266,1,0,0,1.3998,optionRight,40,7760,4,8,0,8,0,1,,,,,,,,,,,,,,,,,,,,,,,,,,,,,,,,,,,,,,,
,,,,,,,,2023-08-06_08h27.38.174,HF_wild_card,2022.2.4,Win32,61.22948812,60eb11e45f3e9cb0ae58a090,64ce5acb97489d65b14ecc7a,64cf48483c8673a31cdd9710,,,,,,,ctch,resources/DP.BMP,resources/DB.BMP,Door3,0.344444416,-0.00462963,1,0,0,1.3929,optionRight,70,7830,4,9,0,9,0,1,,,,,,,,,,,,,,,,,,,,,,,,,,,,,,,,,,,,,,,
,,,,,,,,2023-08-06_08h27.38.174,HF_wild_card,2022.2.4,Win32,61.22948812,60eb11e45f3e9cb0ae58a090,64ce5acb97489d65b14ecc7a,64cf48483c8673a31cdd9710,,,,,,,decisionTrl,resources/DB.BMP,resources/DBN.BMP,Door4,0.329629686,-0.011111118,1,0,0,1.1586,optionRight,80,7910,4,10,0,10,0,1,,,,,,,,,,,,,,,,,,,,,,,,,,,,,,,,,,,,,,,
,,,,,,,,2023-08-06_08h27.38.174,HF_wild_card,2022.2.4,Win32,61.22948812,60eb11e45f3e9cb0ae58a090,64ce5acb97489d65b14ecc7a,64cf48483c8673a31cdd9710,,,,,,,decisionTrl,resources/DBN.BMP,resources/DG.BMP,Door4,-0.413888896,-0.037962984,1,0,0,1.2738,optionLeft,80,7990,4,11,0,11,0,1,,,,,,,,,,,,,,,,,,,,,,,,,,,,,,,,,,,,,,,
,,,,,,,,2023-08-06_08h27.38.174,HF_wild_card,2022.2.4,Win32,61.22948812,60eb11e45f3e9cb0ae58a090,64ce5acb97489d65b14ecc7a,64cf48483c8673a31cdd9710,,,,,,,ctch,resources/DBN.BMP,resources/DR.BMP,Door4,-0.444444444,-0.033333355,1,0,0,0.8745,optionLeft,60,8050,4,12,0,12,0,1,,,,,,,,,,,,,,,,,,,,,,,,,,,,,,,,,,,,,,,
,,,,,,,,2023-08-06_08h27.38.174,HF_wild_card,2022.2.4,Win32,61.22948812,60eb11e45f3e9cb0ae58a090,64ce5acb97489d65b14ecc7a,64cf48483c8673a31cdd9710,,,,,,,decisionTrl,resources/DR.BMP,resources/DP.BMP,Door2,0.228703746,0.044444437,1,0,0,1.6293,optionRight,40,8090,4,13,0,13,0,1,,,,,,,,,,,,,,,,,,,,,,,,,,,,,,,,,,,,,,,
,,,,,,,,2023-08-06_08h27.38.174,HF_wild_card,2022.2.4,Win32,61.22948812,60eb11e45f3e9cb0ae58a090,64ce5acb97489d65b14ecc7a,64cf48483c8673a31cdd9710,,,,,,,decisionTrl,resources/DP.BMP,resources/DR.BMP,Door2,-0.349074081,-0.020370377,1,0,0,1.9204,optionLeft,20,8110,4,14,0,14,0,1,,,,,,,,,,,,,,,,,,,,,,,,,,,,,,,,,,,,,,,
,,,,,,,,2023-08-06_08h27.38.174,HF_wild_card,2022.2.4,Win32,61.22948812,60eb11e45f3e9cb0ae58a090,64ce5acb97489d65b14ecc7a,64cf48483c8673a31cdd9710,,,,,,,decisionTrl,resources/DBN.BMP,resources/DB.BMP,Door4,-0.295370384,0.013888889,1,0,0,2.287,optionLeft,60,8170,4,15,0,15,0,1,,,,,,,,,,,,,,,,,,,,,,,,,,,,,,,,,,,,,,,
,,,,,,,,2023-08-06_08h27.38.174,HF_wild_card,2022.2.4,Win32,61.22948812,60eb11e45f3e9cb0ae58a090,64ce5acb97489d65b14ecc7a,64cf48483c8673a31cdd9710,,,,,,,sngl,resources/Empty.png,resources/DP.BMP,Door2,0.295370384,-0.042592614,1,0,0,0.8074,optionRight,40,8210,4,16,0,16,0,1,,,,,,,,,,,,,,,,,,,,,,,,,,,,,,,,,,,,,,,
,,,,,,,,2023-08-06_08h27.38.174,HF_wild_card,2022.2.4,Win32,61.22948812,60eb11e45f3e9cb0ae58a090,64ce5acb97489d65b14ecc7a,64cf48483c8673a31cdd9710,,,,,,,ctch,resources/DR.BMP,resources/DBN.BMP,Door4,0.448148233,-0.001851859,1,0,0,1.1487,optionRight,60,8270,4,17,0,17,0,1,,,,,,,,,,,,,,,,,,,,,,,,,,,,,,,,,,,,,,,
,,,,,,,,2023-08-06_08h27.38.174,HF_wild_card,2022.2.4,Win32,61.22948812,60eb11e45f3e9cb0ae58a090,64ce5acb97489d65b14ecc7a,64cf48483c8673a31cdd9710,,,,,,,ctch,resources/DR.BMP,resources/DBN.BMP,Door4,0.506481453,-0.035185178,1,0,0,1.3046,optionRight,80,8350,4,18,0,18,0,1,,,,,,,,,,,,,,,,,,,,,,,,,,,,,,,,,,,,,,,
,,,,,,,,2023-08-06_08h27.38.174,HF_wild_card,2022.2.4,Win32,61.22948812,60eb11e45f3e9cb0ae58a090,64ce5acb97489d65b14ecc7a,64cf48483c8673a31cdd9710,,,,,,,sngl,resources/DP.BMP,resources/Empty.png,Door2,-0.319444444,0.000925912,1,0,0,1.2113,optionLeft,20,8370,4,19,0,19,0,1,,,,,,,,,,,,,,,,,,,,,,,,,,,,,,,,,,,,,,,
,,,,,,,,2023-08-06_08h27.38.174,HF_wild_card,2022.2.4,Win32,61.22948812,60eb11e45f3e9cb0ae58a090,64ce5acb97489d65b14ecc7a,64cf48483c8673a31cdd9710,,,,,,,decisionTrl,resources/DP.BMP,resources/DR.BMP,Door1,0.374074159,-0.072222215,1,0,0,1.1264,optionRight,30,8400,4,20,0,20,0,1,,,,,,,,,,,,,,,,,,,,,,,,,,,,,,,,,,,,,,,
,,,,,,,,2023-08-06_08h27.38.174,HF_wild_card,2022.2.4,Win32,61.22948812,60eb11e45f3e9cb0ae58a090,64ce5acb97489d65b14ecc7a,64cf48483c8673a31cdd9710,,,,,,,decisionTrl,resources/DP.BMP,resources/DR.BMP,Door2,-0.323148127,0.033333319,1,0,0,1.3748,optionLeft,20,8420,4,21,0,21,0,1,,,,,,,,,,,,,,,,,,,,,,,,,,,,,,,,,,,,,,,
,,,,,,,,2023-08-06_08h27.38.174,HF_wild_card,2022.2.4,Win32,61.22948812,60eb11e45f3e9cb0ae58a090,64ce5acb97489d65b14ecc7a,64cf48483c8673a31cdd9710,,,,,,,decisionTrl,resources/DP.BMP,resources/DG.BMP,WildCard_Ex,0.286111125,0.01944443,1,0,0,0.9464,optionRight,45,8465,4,22,0,22,0,1,,,,,,,,,,,,,,,,,,,,,,,,,,,,,,,,,,,,,,,
,,,,,,,,2023-08-06_08h27.38.174,HF_wild_card,2022.2.4,Win32,61.22948812,60eb11e45f3e9cb0ae58a090,64ce5acb97489d65b14ecc7a,64cf48483c8673a31cdd9710,,,,,,,sngl,resources/DG.BMP,resources/Empty.png,WildCard_Ex,-0.303703697,-0.038888896,1,0,0,1.2683,optionLeft,45,8510,4,23,0,23,0,1,,,,,,,,,,,,,,,,,,,,,,,,,,,,,,,,,,,,,,,
,,,,,,,,2023-08-06_08h27.38.174,HF_wild_card,2022.2.4,Win32,61.22948812,60eb11e45f3e9cb0ae58a090,64ce5acb97489d65b14ecc7a,64cf48483c8673a31cdd9710,,,,,,,decisionTrl,resources/DB.BMP,resources/DBN.BMP,Door4,0.390740712,-0.006481489,1,0,0,1.3226,optionRight,80,8590,4,24,0,24,0,1,,,,,,,,,,,,,,,,,,,,,,,,,,,,,,,,,,,,,,,
,,,,,,,,2023-08-06_08h27.38.174,HF_wild_card,2022.2.4,Win32,61.22948812,60eb11e45f3e9cb0ae58a090,64ce5acb97489d65b14ecc7a,64cf48483c8673a31cdd9710,,,,,,,sngl,resources/Empty.png,resources/DG.BMP,WildCard_Ex,0.412963019,0.003703683,1,0,0,0.7872,optionRight,55,8645,4,25,0,25,0,1,,,,,,,,,,,,,,,,,,,,,,,,,,,,,,,,,,,,,,,
,,,,,,,,2023-08-06_08h27.38.174,HF_wild_card,2022.2.4,Win32,61.22948812,60eb11e45f3e9cb0ae58a090,64ce5acb97489d65b14ecc7a,64cf48483c8673a31cdd9710,,,,,,,decisionTrl,resources/DP.BMP,resources/DR.BMP,Door1,0.292592578,-0.01666666,1,0,0,1.6293,optionRight,30,8675,4,26,0,26,0,1,,,,,,,,,,,,,,,,,,,,,,,,,,,,,,,,,,,,,,,
,,,,,,,,2023-08-06_08h27.38.174,HF_wild_card,2022.2.4,Win32,61.22948812,60eb11e45f3e9cb0ae58a090,64ce5acb97489d65b14ecc7a,64cf48483c8673a31cdd9710,,,,,,,ctch,resources/DBN.BMP,resources/DR.BMP,Door4,-0.271296254,0.013888889,1,0,0,1.0994,optionLeft,60,8735,4,27,0,27,0,1,,,,,,,,,,,,,,,,,,,,,,,,,,,,,,,,,,,,,,,
,,,,,,,,2023-08-06_08h27.38.174,HF_wild_card,2022.2.4,Win32,61.22948812,60eb11e45f3e9cb0ae58a090,64ce5acb97489d65b14ecc7a,64cf48483c8673a31cdd9710,,,,,,,decisionTrl,resources/DB.BMP,resources/DBN.BMP,Door4,0.455555527,0.075925933,1,0,0,1.378,optionRight,80,8815,4,28,0,28,0,1,,,,,,,,,,,,,,,,,,,,,,,,,,,,,,,,,,,,,,,
,,,,,,,,2023-08-06_08h27.38.174,HF_wild_card,2022.2.4,Win32,61.22948812,60eb11e45f3e9cb0ae58a090,64ce5acb97489d65b14ecc7a,64cf48483c8673a31cdd9710,,,,,,,sngl,resources/DB.BMP,resources/Empty.png,Door3,-0.416666667,0,1,0,0,0.9737,optionLeft,70,8885,4,29,0,29,0,1,,,,,,,,,,,,,,,,,,,,,,,,,,,,,,,,,,,,,,,
,,,,,,,,2023-08-06_08h27.38.174,HF_wild_card,2022.2.4,Win32,61.22948812,60eb11e45f3e9cb0ae58a090,64ce5acb97489d65b14ecc7a,64cf48483c8673a31cdd9710,,,,,,,sngl,resources/DBN.BMP,resources/Empty.png,Door4,-0.467592593,-0.026851866,1,0,0,3.6071,optionLeft,60,8945,4,30,0,30,0,1,,,,,,,,,,,,,,,,,,,,,,,,,,,,,,,,,,,,,,,
,,,,,,,,2023-08-06_08h27.38.174,HF_wild_card,2022.2.4,Win32,61.22948812,60eb11e45f3e9cb0ae58a090,64ce5acb97489d65b14ecc7a,64cf48483c8673a31cdd9710,,,,,,,ctch,resources/DB.BMP,resources/DP.BMP,Door3,-0.291666667,0,1,0,0,1.0452,optionLeft,70,9015,4,31,0,31,0,1,,,,,,,,,,,,,,,,,,,,,,,,,,,,,,,,,,,,,,,
,,,,,,,,2023-08-06_08h27.38.174,HF_wild_card,2022.2.4,Win32,61.22948812,60eb11e45f3e9cb0ae58a090,64ce5acb97489d65b14ecc7a,64cf48483c8673a31cdd9710,,,,,,,sngl,resources/Empty.png,resources/DB.BMP,Door3,0.454629686,-0.069444444,1,0,0,0.9563,optionRight,70,9085,4,32,0,32,0,1,,,,,,,,,,,,,,,,,,,,,,,,,,,,,,,,,,,,,,,
,,,,,,,,2023-08-06_08h27.38.174,HF_wild_card,2022.2.4,Win32,61.22948812,60eb11e45f3e9cb0ae58a090,64ce5acb97489d65b14ecc7a,64cf48483c8673a31cdd9710,,,,,,,sngl,resources/Empty.png,resources/DBN.BMP,Door4,0.425000085,-0.006481489,1,0,0,0.9242,optionRight,80,9165,4,33,0,33,0,1,,,,,,,,,,,,,,,,,,,,,,,,,,,,,,,,,,,,,,,
,,,,,,,,2023-08-06_08h27.38.174,HF_wild_card,2022.2.4,Win32,61.22948812,60eb11e45f3e9cb0ae58a090,64ce5acb97489d65b14ecc7a,64cf48483c8673a31cdd9710,,,,,,,sngl,resources/Empty.png,resources/DR.BMP,Door1,0.306481538,-0.028703725,1,0,0,0.9263,optionRight,30,9195,4,34,0,34,0,1,,,,,,,,,,,,,,,,,,,,,,,,,,,,,,,,,,,,,,,
,,,,,,,,2023-08-06_08h27.38.174,HF_wild_card,2022.2.4,Win32,61.22948812,60eb11e45f3e9cb0ae58a090,64ce5acb97489d65b14ecc7a,64cf48483c8673a31cdd9710,,,,,,,decisionTrl,resources/DR.BMP,resources/DP.BMP,Door2,0.301851908,0.014814801,1,0,0,1.7403,optionRight,40,9235,4,35,0,35,0,1,,,,,,,,,,,,,,,,,,,,,,,,,,,,,,,,,,,,,,,
,,,,,,,,2023-08-06_08h27.38.174,HF_wild_card,2022.2.4,Win32,61.22948812,60eb11e45f3e9cb0ae58a090,64ce5acb97489d65b14ecc7a,64cf48483c8673a31cdd9710,,,,,,,decisionTrl,resources/DB.BMP,resources/DG.BMP,Door3,-0.366666653,-0.012962977,1,0,0,1.0501,optionLeft,70,9305,4,36,0,36,0,1,,,,,,,,,,,,,,,,,,,,,,,,,,,,,,,,,,,,,,,
,,,,,,,,2023-08-06_08h27.38.174,HF_wild_card,2022.2.4,Win32,61.22948812,60eb11e45f3e9cb0ae58a090,64ce5acb97489d65b14ecc7a,64cf48483c8673a31cdd9710,,,,,,,sngl,resources/DR.BMP,resources/Empty.png,Door1,-0.351851852,-0.014814836,1,0,0,1.0588,optionLeft,30,9335,4,37,0,37,0,1,,,,,,,,,,,,,,,,,,,,,,,,,,,,,,,,,,,,,,,
,,,,,,,,2023-08-06_08h27.38.174,HF_wild_card,2022.2.4,Win32,61.22948812,60eb11e45f3e9cb0ae58a090,64ce5acb97489d65b14ecc7a,64cf48483c8673a31cdd9710,,,,,,,decisionTrl,resources/DG.BMP,resources/DR.BMP,WildCard_Ex,-0.36296297,-0.001851859,1,0,0,1.2834,optionLeft,55,9390,4,38,0,38,0,1,,,,,,,,,,,,,,,,,,,,,,,,,,,,,,,,,,,,,,,
,,,,,,,,2023-08-06_08h27.38.174,HF_wild_card,2022.2.4,Win32,61.22948812,60eb11e45f3e9cb0ae58a090,64ce5acb97489d65b14ecc7a,64cf48483c8673a31cdd9710,,,,,,,decisionTrl,resources/DBN.BMP,resources/DB.BMP,Door3,0.285185213,-0.082407422,1,0,0,1.6446,optionRight,70,9460,4,39,0,39,0,1,,,,,,,,,,,,,,,,,,,,,,,,,,,,,,,,,,,,,,,
,,,,,,,,2023-08-06_08h27.38.174,HF_wild_card,2022.2.4,Win32,61.22948812,60eb11e45f3e9cb0ae58a090,64ce5acb97489d65b14ecc7a,64cf48483c8673a31cdd9710,,,,,,,decisionTrl,resources/DG.BMP,resources/DP.BMP,WildCard_Ex,-0.381481489,-0.032407407,1,0,0,1.175,optionLeft,45,9505,4,40,0,40,0,1,,,,,,,,,,,,,,,,,,,,,,,,,,,,,,,,,,,,,,,
,,,,,,,,2023-08-06_08h27.38.174,HF_wild_card,2022.2.4,Win32,61.22948812,60eb11e45f3e9cb0ae58a090,64ce5acb97489d65b14ecc7a,64cf48483c8673a31cdd9710,,,,,,,decisionTrl,resources/DB.BMP,resources/DBN.BMP,Door4,0.300925926,0.006481489,1,0,0,1.0777,optionRight,60,9565,4,41,0,41,0,1,,,,,,,,,,,,,,,,,,,,,,,,,,,,,,,,,,,,,,,
,,,,,,,,2023-08-06_08h27.38.174,HF_wild_card,2022.2.4,Win32,61.22948812,60eb11e45f3e9cb0ae58a090,64ce5acb97489d65b14ecc7a,64cf48483c8673a31cdd9710,,,,,,,sngl,resources/Empty.png,resources/DG.BMP,WildCard_Ex,0.384259259,-0.006481489,1,0,0,1.004,optionRight,45,9610,4,42,0,42,0,1,,,,,,,,,,,,,,,,,,,,,,,,,,,,,,,,,,,,,,,
,,,,,,,,2023-08-06_08h27.38.174,HF_wild_card,2022.2.4,Win32,61.22948812,60eb11e45f3e9cb0ae58a090,64ce5acb97489d65b14ecc7a,64cf48483c8673a31cdd9710,,,,,,,decisionTrl,resources/DR.BMP,resources/DP.BMP,Door1,-0.473148134,-0.012962977,1,0,0,2.2578,optionLeft,30,9640,4,43,0,43,0,1,,,,,,,,,,,,,,,,,,,,,,,,,,,,,,,,,,,,,,,
,,,,,,,,2023-08-06_08h27.38.174,HF_wild_card,2022.2.4,Win32,61.22948812,60eb11e45f3e9cb0ae58a090,64ce5acb97489d65b14ecc7a,64cf48483c8673a31cdd9710,,,,,,,,,,,,,,,,,,,,,,,,,,3,0,3,0,1,,,,,,,,,,,,,,,,,,,,,,,,,,,,,,,,,,
,,,,,,,,2023-08-06_08h27.38.174,HF_wild_card,2022.2.4,Win32,61.22948812,60eb11e45f3e9cb0ae58a090,64ce5acb97489d65b14ecc7a,64cf48483c8673a31cdd9710,,,,,,,sngl,resources/Empty.png,resources/DG.BMP,WildCard_Ex,0.437037009,-0.082407422,1,0,0,1.1671,optionRight,45,9685,5,0,0,0,0,1,,,,,,,,,,,,,,,,,,,,,,,,,,,,,,,,,,,,,,,
,,,,,,,,2023-08-06_08h27.38.174,HF_wild_card,2022.2.4,Win32,61.22948812,60eb11e45f3e9cb0ae58a090,64ce5acb97489d65b14ecc7a,64cf48483c8673a31cdd9710,,,,,,,ctch,resources/DBN.BMP,resources/DR.BMP,Door4,-0.320370356,-0.075925933,1,0,0,1.0135,optionLeft,80,9765,5,1,0,1,0,1,,,,,,,,,,,,,,,,,,,,,,,,,,,,,,,,,,,,,,,
,,,,,,,,2023-08-06_08h27.38.174,HF_wild_card,2022.2.4,Win32,61.22948812,60eb11e45f3e9cb0ae58a090,64ce5acb97489d65b14ecc7a,64cf48483c8673a31cdd9710,,,,,,,decisionTrl,resources/DR.BMP,resources/DP.BMP,Door2,0.267592607,-0.036111125,1,0,0,1.5903,optionRight,40,9805,5,2,0,2,0,1,,,,,,,,,,,,,,,,,,,,,,,,,,,,,,,,,,,,,,,
,,,,,,,,2023-08-06_08h27.38.174,HF_wild_card,2022.2.4,Win32,61.22948812,60eb11e45f3e9cb0ae58a090,64ce5acb97489d65b14ecc7a,64cf48483c8673a31cdd9710,,,,,,,decisionTrl,resources/DP.BMP,resources/DR.BMP,Door2,-0.340740734,-0.049074067,1,0,0,1.1282,optionLeft,40,9845,5,3,0,3,0,1,,,,,,,,,,,,,,,,,,,,,,,,,,,,,,,,,,,,,,,
,,,,,,,,2023-08-06_08h27.38.174,HF_wild_card,2022.2.4,Win32,61.22948812,60eb11e45f3e9cb0ae58a090,64ce5acb97489d65b14ecc7a,64cf48483c8673a31cdd9710,,,,,,,sngl,resources/DB.BMP,resources/Empty.png,Door3,-0.24537037,-0.001851859,1,0,0,0.8821,optionLeft,70,9915,5,4,0,4,0,1,,,,,,,,,,,,,,,,,,,,,,,,,,,,,,,,,,,,,,,
,,,,,,,,2023-08-06_08h27.38.174,HF_wild_card,2022.2.4,Win32,61.22948812,60eb11e45f3e9cb0ae58a090,64ce5acb97489d65b14ecc7a,64cf48483c8673a31cdd9710,,,,,,,ctch,resources/DR.BMP,resources/DBN.BMP,Door4,0.328703704,-0.00462963,1,0,0,1.1678,optionRight,80,9995,5,5,0,5,0,1,,,,,,,,,,,,,,,,,,,,,,,,,,,,,,,,,,,,,,,
,,,,,,,,2023-08-06_08h27.38.174,HF_wild_card,2022.2.4,Win32,61.22948812,60eb11e45f3e9cb0ae58a090,64ce5acb97489d65b14ecc7a,64cf48483c8673a31cdd9710,,,,,,,decisionTrl,resources/DG.BMP,resources/DP.BMP,WildCard_Ex,-0.318518497,-0.006481489,1,0,0,1.0573,optionLeft,45,10040,5,6,0,6,0,1,,,,,,,,,,,,,,,,,,,,,,,,,,,,,,,,,,,,,,,
,,,,,,,,2023-08-06_08h27.38.174,HF_wild_card,2022.2.4,Win32,61.22948812,60eb11e45f3e9cb0ae58a090,64ce5acb97489d65b14ecc7a,64cf48483c8673a31cdd9710,,,,,,,decisionTrl,resources/DG.BMP,resources/DBN.BMP,Door4,0.390740712,0.029629637,1,0,0,1.2017,optionRight,60,10100,5,7,0,7,0,1,,,,,,,,,,,,,,,,,,,,,,,,,,,,,,,,,,,,,,,
,,,,,,,,2023-08-06_08h27.38.174,HF_wild_card,2022.2.4,Win32,61.22948812,60eb11e45f3e9cb0ae58a090,64ce5acb97489d65b14ecc7a,64cf48483c8673a31cdd9710,,,,,,,sngl,resources/Empty.png,resources/DBN.BMP,Door4,0.40370376,0.003703683,1,0,0,0.8389,optionRight,60,10160,5,8,0,8,0,1,,,,,,,,,,,,,,,,,,,,,,,,,,,,,,,,,,,,,,,
,,,,,,,,2023-08-06_08h27.38.174,HF_wild_card,2022.2.4,Win32,61.22948812,60eb11e45f3e9cb0ae58a090,64ce5acb97489d65b14ecc7a,64cf48483c8673a31cdd9710,,,,,,,decisionTrl,resources/DP.BMP,resources/DR.BMP,Door1,0.366666723,-0.029629637,1,0,0,3.5945,optionRight,30,10190,5,9,0,9,0,1,,,,,,,,,,,,,,,,,,,,,,,,,,,,,,,,,,,,,,,
,,,,,,,,2023-08-06_08h27.38.174,HF_wild_card,2022.2.4,Win32,61.22948812,60eb11e45f3e9cb0ae58a090,64ce5acb97489d65b14ecc7a,64cf48483c8673a31cdd9710,,,,,,,ctch,resources/DB.BMP,resources/DP.BMP,Door3,-0.387962942,-0.050925926,1,0,0,1.0255,optionLeft,70,10260,5,10,0,10,0,1,,,,,,,,,,,,,,,,,,,,,,,,,,,,,,,,,,,,,,,
,,,,,,,,2023-08-06_08h27.38.174,HF_wild_card,2022.2.4,Win32,61.22948812,60eb11e45f3e9cb0ae58a090,64ce5acb97489d65b14ecc7a,64cf48483c8673a31cdd9710,,,,,,,sngl,resources/Empty.png,resources/DB.BMP,Door3,0.304629714,-0.008333347,1,0,0,0.6919,optionRight,70,10330,5,11,0,11,0,1,,,,,,,,,,,,,,,,,,,,,,,,,,,,,,,,,,,,,,,
,,,,,,,,2023-08-06_08h27.38.174,HF_wild_card,2022.2.4,Win32,61.22948812,60eb11e45f3e9cb0ae58a090,64ce5acb97489d65b14ecc7a,64cf48483c8673a31cdd9710,,,,,,,decisionTrl,resources/DP.BMP,resources/DR.BMP,Door2,-0.322222215,-0.031481496,1,0,0,1.7491,optionLeft,40,10370,5,12,0,12,0,1,,,,,,,,,,,,,,,,,,,,,,,,,,,,,,,,,,,,,,,
,,,,,,,,2023-08-06_08h27.38.174,HF_wild_card,2022.2.4,Win32,61.22948812,60eb11e45f3e9cb0ae58a090,64ce5acb97489d65b14ecc7a,64cf48483c8673a31cdd9710,,,,,,,decisionTrl,resources/DB.BMP,resources/DG.BMP,Door3,-0.328703704,-0.01666666,1,0,0,1.2489,optionLeft,70,10440,5,13,0,13,0,1,,,,,,,,,,,,,,,,,,,,,,,,,,,,,,,,,,,,,,,
,,,,,,,,2023-08-06_08h27.38.174,HF_wild_card,2022.2.4,Win32,61.22948812,60eb11e45f3e9cb0ae58a090,64ce5acb97489d65b14ecc7a,64cf48483c8673a31cdd9710,,,,,,,decisionTrl,resources/DB.BMP,resources/DBN.BMP,Door4,0.19722225,-0.042592614,1,0,0,0.9961,optionRight,80,10520,5,14,0,14,0,1,,,,,,,,,,,,,,,,,,,,,,,,,,,,,,,,,,,,,,,
,,,,,,,,2023-08-06_08h27.38.174,HF_wild_card,2022.2.4,Win32,61.22948812,60eb11e45f3e9cb0ae58a090,64ce5acb97489d65b14ecc7a,64cf48483c8673a31cdd9710,,,,,,,sngl,resources/Empty.png,resources/DP.BMP,Door2,0.203703704,-0.035185178,1,0,0,0.8798,optionRight,20,10540,5,15,0,15,0,1,,,,,,,,,,,,,,,,,,,,,,,,,,,,,,,,,,,,,,,
,,,,,,,,2023-08-06_08h27.38.174,HF_wild_card,2022.2.4,Win32,61.22948812,60eb11e45f3e9cb0ae58a090,64ce5acb97489d65b14ecc7a,64cf48483c8673a31cdd9710,,,,,,,decisionTrl,resources/DG.BMP,resources/DB.BMP,Door3,0.317592621,-0.01203703,1,0,0,1.009,optionRight,70,10610,5,16,0,16,0,1,,,,,,,,,,,,,,,,,,,,,,,,,,,,,,,,,,,,,,,
,,,,,,,,2023-08-06_08h27.38.174,HF_wild_card,2022.2.4,Win32,61.22948812,60eb11e45f3e9cb0ae58a090,64ce5acb97489d65b14ecc7a,64cf48483c8673a31cdd9710,,,,,,,decisionTrl,resources/DR.BMP,resources/DP.BMP,Door2,0.393518519,0.033333319,1,0,0,1.4956,optionRight,40,10650,5,17,0,17,0,1,,,,,,,,,,,,,,,,,,,,,,,,,,,,,,,,,,,,,,,
,,,,,,,,2023-08-06_08h27.38.174,HF_wild_card,2022.2.4,Win32,61.22948812,60eb11e45f3e9cb0ae58a090,64ce5acb97489d65b14ecc7a,64cf48483c8673a31cdd9710,,,,,,,ctch,resources/DBN.BMP,resources/DR.BMP,Door4,-0.342592593,-0.013888889,1,0,0,1.1739,optionLeft,60,10710,5,18,0,18,0,1,,,,,,,,,,,,,,,,,,,,,,,,,,,,,,,,,,,,,,,
,,,,,,,,2023-08-06_08h27.38.174,HF_wild_card,2022.2.4,Win32,61.22948812,60eb11e45f3e9cb0ae58a090,64ce5acb97489d65b14ecc7a,64cf48483c8673a31cdd9710,,,,,,,decisionTrl,resources/DR.BMP,resources/DP.BMP,Door2,0.315740797,-0.052777785,1,0,0,1.725,optionRight,20,10730,5,19,0,19,0,1,,,,,,,,,,,,,,,,,,,,,,,,,,,,,,,,,,,,,,,
,,,,,,,,2023-08-06_08h27.38.174,HF_wild_card,2022.2.4,Win32,61.22948812,60eb11e45f3e9cb0ae58a090,64ce5acb97489d65b14ecc7a,64cf48483c8673a31cdd9710,,,,,,,decisionTrl,resources/DB.BMP,resources/DBN.BMP,Door4,0.414814843,-0.025925919,1,0,0,0.9721,optionRight,80,10810,5,20,0,20,0,1,,,,,,,,,,,,,,,,,,,,,,,,,,,,,,,,,,,,,,,
,,,,,,,,2023-08-06_08h27.38.174,HF_wild_card,2022.2.4,Win32,61.22948812,60eb11e45f3e9cb0ae58a090,64ce5acb97489d65b14ecc7a,64cf48483c8673a31cdd9710,,,,,,,decisionTrl,resources/DBN.BMP,resources/DB.BMP,Door3,0.387037065,0.01666666,1,0,0,1.4538,optionRight,70,10880,5,21,0,21,0,1,,,,,,,,,,,,,,,,,,,,,,,,,,,,,,,,,,,,,,,
,,,,,,,,2023-08-06_08h27.38.174,HF_wild_card,2022.2.4,Win32,61.22948812,60eb11e45f3e9cb0ae58a090,64ce5acb97489d65b14ecc7a,64cf48483c8673a31cdd9710,,,,,,,decisionTrl,resources/DB.BMP,resources/DBN.BMP,Door4,0.263888889,0.0074074,1,0,0,1.2882,optionRight,80,10960,5,22,0,22,0,1,,,,,,,,,,,,,,,,,,,,,,,,,,,,,,,,,,,,,,,
,,,,,,,,2023-08-06_08h27.38.174,HF_wild_card,2022.2.4,Win32,61.22948812,60eb11e45f3e9cb0ae58a090,64ce5acb97489d65b14ecc7a,64cf48483c8673a31cdd9710,,,,,,,ctch,resources/DP.BMP,resources/DB.BMP,Door3,0.383333418,0.002777771,1,0,0,1.0067,optionRight,70,11030,5,23,0,23,0,1,,,,,,,,,,,,,,,,,,,,,,,,,,,,,,,,,,,,,,,
,,,,,,,,2023-08-06_08h27.38.174,HF_wild_card,2022.2.4,Win32,61.22948812,60eb11e45f3e9cb0ae58a090,64ce5acb97489d65b14ecc7a,64cf48483c8673a31cdd9710,,,,,,,decisionTrl,resources/DBN.BMP,resources/DB.BMP,Door4,-0.36296297,-0.039814808,1,0,0,1.6776,optionLeft,60,11090,5,24,0,24,0,1,,,,,,,,,,,,,,,,,,,,,,,,,,,,,,,,,,,,,,,
,,,,,,,,2023-08-06_08h27.38.174,HF_wild_card,2022.2.4,Win32,61.22948812,60eb11e45f3e9cb0ae58a090,64ce5acb97489d65b14ecc7a,64cf48483c8673a31cdd9710,,,,,,,decisionTrl,resources/DB.BMP,resources/DBN.BMP,Door4,0.432407379,-0.002777771,1,0,0,0.974,optionRight,80,11170,5,25,0,25,0,1,,,,,,,,,,,,,,,,,,,,,,,,,,,,,,,,,,,,,,,
,,,,,,,,2023-08-06_08h27.38.174,HF_wild_card,2022.2.4,Win32,61.22948812,60eb11e45f3e9cb0ae58a090,64ce5acb97489d65b14ecc7a,64cf48483c8673a31cdd9710,,,,,,,sngl,resources/DBN.BMP,resources/Empty.png,Door4,-0.385185171,-0.015740748,1,0,0,0.7387,optionLeft,80,11250,5,26,0,26,0,1,,,,,,,,,,,,,,,,,,,,,,,,,,,,,,,,,,,,,,,
,,,,,,,,2023-08-06_08h27.38.174,HF_wild_card,2022.2.4,Win32,61.22948812,60eb11e45f3e9cb0ae58a090,64ce5acb97489d65b14ecc7a,64cf48483c8673a31cdd9710,,,,,,,decisionTrl,resources/DBN.BMP,resources/DB.BMP,Door3,0.26944443,0.001851859,1,0,0,1.2145,optionRight,70,11320,5,27,0,27,0,1,,,,,,,,,,,,,,,,,,,,,,,,,,,,,,,,,,,,,,,
,,,,,,,,2023-08-06_08h27.38.174,HF_wild_card,2022.2.4,Win32,61.22948812,60eb11e45f3e9cb0ae58a090,64ce5acb97489d65b14ecc7a,64cf48483c8673a31cdd9710,,,,,,,sngl,resources/Empty.png,resources/DR.BMP,Door1,0.330555527,-0.013888889,1,0,0,0.7783,optionRight,30,11350,5,28,0,28,0,1,,,,,,,,,,,,,,,,,,,,,,,,,,,,,,,,,,,,,,,
,,,,,,,,2023-08-06_08h27.38.174,HF_wild_card,2022.2.4,Win32,61.22948812,60eb11e45f3e9cb0ae58a090,64ce5acb97489d65b14ecc7a,64cf48483c8673a31cdd9710,,,,,,,decisionTrl,resources/DR.BMP,resources/DP.BMP,Door1,-0.255555541,-0.01666666,1,0,0,1.0046,optionLeft,30,11380,5,29,0,29,0,1,,,,,,,,,,,,,,,,,,,,,,,,,,,,,,,,,,,,,,,
,,,,,,,,2023-08-06_08h27.38.174,HF_wild_card,2022.2.4,Win32,61.22948812,60eb11e45f3e9cb0ae58a090,64ce5acb97489d65b14ecc7a,64cf48483c8673a31cdd9710,,,,,,,ctch,resources/DP.BMP,resources/DB.BMP,Door2,-0.276851866,-0.042592614,1,0,0,0.8312,optionLeft,20,11400,5,30,0,30,0,1,,,,,,,,,,,,,,,,,,,,,,,,,,,,,,,,,,,,,,,
,,,,,,,,2023-08-06_08h27.38.174,HF_wild_card,2022.2.4,Win32,61.22948812,60eb11e45f3e9cb0ae58a090,64ce5acb97489d65b14ecc7a,64cf48483c8673a31cdd9710,,,,,,,sngl,resources/DG.BMP,resources/Empty.png,WildCard_Ex,-0.400000007,-0.023148148,1,0,0,0.9613,optionLeft,55,11455,5,31,0,31,0,1,,,,,,,,,,,,,,,,,,,,,,,,,,,,,,,,,,,,,,,
,,,,,,,,2023-08-06_08h27.38.174,HF_wild_card,2022.2.4,Win32,61.22948812,60eb11e45f3e9cb0ae58a090,64ce5acb97489d65b14ecc7a,64cf48483c8673a31cdd9710,,,,,,,ctch,resources/DB.BMP,resources/DP.BMP,Door3,-0.478703711,-0.046296296,1,0,0,0.9009,optionLeft,70,11525,5,32,0,32,0,1,,,,,,,,,,,,,,,,,,,,,,,,,,,,,,,,,,,,,,,
,,,,,,,,2023-08-06_08h27.38.174,HF_wild_card,2022.2.4,Win32,61.22948812,60eb11e45f3e9cb0ae58a090,64ce5acb97489d65b14ecc7a,64cf48483c8673a31cdd9710,,,,,,,decisionTrl,resources/DBN.BMP,resources/DG.BMP,Door4,-0.449074074,-0.014814836,1,0,0,0.967,optionLeft,80,11605,5,33,0,33,0,1,,,,,,,,,,,,,,,,,,,,,,,,,,,,,,,,,,,,,,,
,,,,,,,,2023-08-06_08h27.38.174,HF_wild_card,2022.2.4,Win32,61.22948812,60eb11e45f3e9cb0ae58a090,64ce5acb97489d65b14ecc7a,64cf48483c8673a31cdd9710,,,,,,,decisionTrl,resources/DP.BMP,resources/DR.BMP,Door1,0.375925982,-0.000925947,1,0,0,2.091,optionRight,30,11635,5,34,0,34,0,1,,,,,,,,,,,,,,,,,,,,,,,,,,,,,,,,,,,,,,,
,,,,,,,,2023-08-06_08h27.38.174,HF_wild_card,2022.2.4,Win32,61.22948812,60eb11e45f3e9cb0ae58a090,64ce5acb97489d65b14ecc7a,64cf48483c8673a31cdd9710,,,,,,,sngl,resources/DP.BMP,resources/Empty.png,Door2,-0.487037023,-0.032407407,1,0,0,1.0614,optionLeft,40,11675,5,35,0,35,0,1,,,,,,,,,,,,,,,,,,,,,,,,,,,,,,,,,,,,,,,
,,,,,,,,2023-08-06_08h27.38.174,HF_wild_card,2022.2.4,Win32,61.22948812,60eb11e45f3e9cb0ae58a090,64ce5acb97489d65b14ecc7a,64cf48483c8673a31cdd9710,,,,,,,sngl,resources/Empty.png,resources/DG.BMP,WildCard_Ex,0.26944443,0.018518519,1,0,0,0.9419,optionRight,55,11730,5,36,0,36,0,1,,,,,,,,,,,,,,,,,,,,,,,,,,,,,,,,,,,,,,,
,,,,,,,,2023-08-06_08h27.38.174,HF_wild_card,2022.2.4,Win32,61.22948812,60eb11e45f3e9cb0ae58a090,64ce5acb97489d65b14ecc7a,64cf48483c8673a31cdd9710,,,,,,,sngl,resources/DR.BMP,resources/Empty.png,Door1,-0.275925884,-0.050000014,1,0,0,1.0248,optionLeft,30,11760,5,37,0,37,0,1,,,,,,,,,,,,,,,,,,,,,,,,,,,,,,,,,,,,,,,
,,,,,,,,2023-08-06_08h27.38.174,HF_wild_card,2022.2.4,Win32,61.22948812,60eb11e45f3e9cb0ae58a090,64ce5acb97489d65b14ecc7a,64cf48483c8673a31cdd9710,,,,,,,decisionTrl,resources/DBN.BMP,resources/DB.BMP,Door4,-0.244444459,0.010185171,1,0,0,2.1225,optionLeft,80,11840,5,38,0,38,0,1,,,,,,,,,,,,,,,,,,,,,,,,,,,,,,,,,,,,,,,
,,,,,,,,2023-08-06_08h27.38.174,HF_wild_card,2022.2.4,Win32,61.22948812,60eb11e45f3e9cb0ae58a090,64ce5acb97489d65b14ecc7a,64cf48483c8673a31cdd9710,,,,,,,decisionTrl,resources/DR.BMP,resources/DG.BMP,WildCard_Ex,0.275925954,0.01666666,1,0,0,1.182,optionRight,55,11895,5,39,0,39,0,1,,,,,,,,,,,,,,,,,,,,,,,,,,,,,,,,,,,,,,,
,,,,,,,,2023-08-06_08h27.38.174,HF_wild_card,2022.2.4,Win32,61.22948812,60eb11e45f3e9cb0ae58a090,64ce5acb97489d65b14ecc7a,64cf48483c8673a31cdd9710,,,,,,,sngl,resources/DG.BMP,resources/Empty.png,WildCard_Ex,-0.317592586,-0.045370384,1,0,0,1.0312,optionLeft,45,11940,5,40,0,40,0,1,,,,,,,,,,,,,,,,,,,,,,,,,,,,,,,,,,,,,,,
,,,,,,,,2023-08-06_08h27.38.174,HF_wild_card,2022.2.4,Win32,61.22948812,60eb11e45f3e9cb0ae58a090,64ce5acb97489d65b14ecc7a,64cf48483c8673a31cdd9710,,,,,,,decisionTrl,resources/DG.BMP,resources/DR.BMP,WildCard_Ex,-0.300925926,0.005555541,1,0,0,0.9797,optionLeft,45,11985,5,41,0,41,0,1,,,,,,,,,,,,,,,,,,,,,,,,,,,,,,,,,,,,,,,
,,,,,,,,2023-08-06_08h27.38.174,HF_wild_card,2022.2.4,Win32,61.22948812,60eb11e45f3e9cb0ae58a090,64ce5acb97489d65b14ecc7a,64cf48483c8673a31cdd9710,,,,,,,ctch,resources/DR.BMP,resources/DBN.BMP,Door4,0.299074102,-0.031481496,1,0,0,1.0117,optionRight,60,12045,5,42,0,42,0,1,,,,,,,,,,,,,,,,,,,,,,,,,,,,,,,,,,,,,,,
,,,,,,,,2023-08-06_08h27.38.174,HF_wild_card,2022.2.4,Win32,61.22948812,60eb11e45f3e9cb0ae58a090,64ce5acb97489d65b14ecc7a,64cf48483c8673a31cdd9710,,,,,,,decisionTrl,resources/DP.BMP,resources/DG.BMP,WildCard_Ex,0.319444444,0.018518519,1,0,0,1.3605,optionRight,55,12100,5,43,0,43,0,1,,,,,,,,,,,,,,,,,,,,,,,,,,,,,,,,,,,,,,,
,,,,,,,,2023-08-06_08h27.38.174,HF_wild_card,2022.2.4,Win32,61.22948812,60eb11e45f3e9cb0ae58a090,64ce5acb97489d65b14ecc7a,64cf48483c8673a31cdd9710,,,,,,,,,,,,,,,,,,,,,,,,,,4,0,4,0,1,,,,,,,,,,,,,,,,,,,,,,,,,,,,,,,,,,
,,,,,,,,2023-08-06_08h27.38.174,HF_wild_card,2022.2.4,Win32,61.22948812,60eb11e45f3e9cb0ae58a090,64ce5acb97489d65b14ecc7a,64cf48483c8673a31cdd9710,,,,,,,decisionTrl,resources/DB.BMP,resources/DBN.BMP,Door4,0.437962991,-0.127777806,1,0,0,1.5885,optionRight,80,12180,6,0,0,0,0,1,,,,,,,,,,,,,,,,,,,,,,,,,,,,,,,,,,,,,,,
,,,,,,,,2023-08-06_08h27.38.174,HF_wild_card,2022.2.4,Win32,61.22948812,60eb11e45f3e9cb0ae58a090,64ce5acb97489d65b14ecc7a,64cf48483c8673a31cdd9710,,,,,,,decisionTrl,resources/DG.BMP,resources/DBN.BMP,Door4,0.498148176,-0.015740748,1,0,0,1.0152,optionRight,80,12260,6,1,0,1,0,1,,,,,,,,,,,,,,,,,,,,,,,,,,,,,,,,,,,,,,,
,,,,,,,,2023-08-06_08h27.38.174,HF_wild_card,2022.2.4,Win32,61.22948812,60eb11e45f3e9cb0ae58a090,64ce5acb97489d65b14ecc7a,64cf48483c8673a31cdd9710,,,,,,,ctch,resources/DBN.BMP,resources/DR.BMP,Door4,-0.344444452,-0.031481496,1,0,0,1.1185,optionLeft,80,12340,6,2,0,2,0,1,,,,,,,,,,,,,,,,,,,,,,,,,,,,,,,,,,,,,,,
,,,,,,,,2023-08-06_08h27.38.174,HF_wild_card,2022.2.4,Win32,61.22948812,60eb11e45f3e9cb0ae58a090,64ce5acb97489d65b14ecc7a,64cf48483c8673a31cdd9710,,,,,,,sngl,resources/DB.BMP,resources/Empty.png,Door3,-0.429629608,-0.025925919,1,0,0,0.8406,optionLeft,70,12410,6,3,0,3,0,1,,,,,,,,,,,,,,,,,,,,,,,,,,,,,,,,,,,,,,,
,,,,,,,,2023-08-06_08h27.38.174,HF_wild_card,2022.2.4,Win32,61.22948812,60eb11e45f3e9cb0ae58a090,64ce5acb97489d65b14ecc7a,64cf48483c8673a31cdd9710,,,,,,,decisionTrl,resources/DP.BMP,resources/DR.BMP,Door2,-0.331481474,-0.051851873,1,0,0,1.4217,optionLeft,20,12430,6,4,0,4,0,1,,,,,,,,,,,,,,,,,,,,,,,,,,,,,,,,,,,,,,,
,,,,,,,,2023-08-06_08h27.38.174,HF_wild_card,2022.2.4,Win32,61.22948812,60eb11e45f3e9cb0ae58a090,64ce5acb97489d65b14ecc7a,64cf48483c8673a31cdd9710,,,,,,,decisionTrl,resources/DP.BMP,resources/DR.BMP,Door1,0.321296268,0.002777771,1,0,0,1.2106,optionRight,30,12460,6,5,0,5,0,1,,,,,,,,,,,,,,,,,,,,,,,,,,,,,,,,,,,,,,,
,,,,,,,,2023-08-06_08h27.38.174,HF_wild_card,2022.2.4,Win32,61.22948812,60eb11e45f3e9cb0ae58a090,64ce5acb97489d65b14ecc7a,64cf48483c8673a31cdd9710,,,,,,,sngl,resources/Empty.png,resources/DG.BMP,WildCard_Ex,0.436111168,-0.035185178,1,0,0,0.6799,optionRight,45,12505,6,6,0,6,0,1,,,,,,,,,,,,,,,,,,,,,,,,,,,,,,,,,,,,,,,
,,,,,,,,2023-08-06_08h27.38.174,HF_wild_card,2022.2.4,Win32,61.22948812,60eb11e45f3e9cb0ae58a090,64ce5acb97489d65b14ecc7a,64cf48483c8673a31cdd9710,,,,,,,sngl,resources/Empty.png,resources/DP.BMP,Door2,0.376851824,-0.033333355,1,0,0,1.4898,optionRight,40,12545,6,7,0,7,0,1,,,,,,,,,,,,,,,,,,,,,,,,,,,,,,,,,,,,,,,
,,,,,,,,2023-08-06_08h27.38.174,HF_wild_card,2022.2.4,Win32,61.22948812,60eb11e45f3e9cb0ae58a090,64ce5acb97489d65b14ecc7a,64cf48483c8673a31cdd9710,,,,,,,decisionTrl,resources/DR.BMP,resources/DG.BMP,WildCard_Ex,0.300000085,0.005555541,1,0,0,1.2074,optionRight,45,12590,6,8,0,8,0,1,,,,,,,,,,,,,,,,,,,,,,,,,,,,,,,,,,,,,,,
,,,,,,,,2023-08-06_08h27.38.174,HF_wild_card,2022.2.4,Win32,61.22948812,60eb11e45f3e9cb0ae58a090,64ce5acb97489d65b14ecc7a,64cf48483c8673a31cdd9710,,,,,,,ctch,resources/DP.BMP,resources/DB.BMP,Door3,0.345370399,-0.00462963,1,0,0,1.0255,optionRight,70,12660,6,9,0,9,0,1,,,,,,,,,,,,,,,,,,,,,,,,,,,,,,,,,,,,,,,
,,,,,,,,2023-08-06_08h27.38.174,HF_wild_card,2022.2.4,Win32,61.22948812,60eb11e45f3e9cb0ae58a090,64ce5acb97489d65b14ecc7a,64cf48483c8673a31cdd9710,,,,,,,decisionTrl,resources/DP.BMP,resources/DG.BMP,WildCard_Ex,0.45185188,0.045370349,1,0,0,1.9102,optionRight,55,12715,6,10,0,10,0,1,,,,,,,,,,,,,,,,,,,,,,,,,,,,,,,,,,,,,,,
,,,,,,,,2023-08-06_08h27.38.174,HF_wild_card,2022.2.4,Win32,61.22948812,60eb11e45f3e9cb0ae58a090,64ce5acb97489d65b14ecc7a,64cf48483c8673a31cdd9710,,,,,,,decisionTrl,resources/DBN.BMP,resources/DB.BMP,Door4,-0.261111083,-0.063888903,1,0,0,1.4411,optionLeft,80,12795,6,11,0,11,0,1,,,,,,,,,,,,,,,,,,,,,,,,,,,,,,,,,,,,,,,
,,,,,,,,2023-08-06_08h27.38.174,HF_wild_card,2022.2.4,Win32,61.22948812,60eb11e45f3e9cb0ae58a090,64ce5acb97489d65b14ecc7a,64cf48483c8673a31cdd9710,,,,,,,decisionTrl,resources/DBN.BMP,resources/DG.BMP,Door4,-0.336111104,-0.037037037,1,0,0,0.8751,optionLeft,60,12855,6,12,0,12,0,1,,,,,,,,,,,,,,,,,,,,,,,,,,,,,,,,,,,,,,,
,,,,,,,,2023-08-06_08h27.38.174,HF_wild_card,2022.2.4,Win32,61.22948812,60eb11e45f3e9cb0ae58a090,64ce5acb97489d65b14ecc7a,64cf48483c8673a31cdd9710,,,,,,,ctch,resources/DBN.BMP,resources/DR.BMP,Door4,-0.275925884,-0.053703697,1,0,0,1.0424,optionLeft,80,12935,6,13,0,13,0,1,,,,,,,,,,,,,,,,,,,,,,,,,,,,,,,,,,,,,,,
,,,,,,,,2023-08-06_08h27.38.174,HF_wild_card,2022.2.4,Win32,61.22948812,60eb11e45f3e9cb0ae58a090,64ce5acb97489d65b14ecc7a,64cf48483c8673a31cdd9710,,,,,,,decisionTrl,resources/DG.BMP,resources/DP.BMP,WildCard_Ex,-0.324999986,-0.046296296,1,0,0,1.8988,optionLeft,45,12980,6,14,0,14,0,1,,,,,,,,,,,,,,,,,,,,,,,,,,,,,,,,,,,,,,,
,,,,,,,,2023-08-06_08h27.38.174,HF_wild_card,2022.2.4,Win32,61.22948812,60eb11e45f3e9cb0ae58a090,64ce5acb97489d65b14ecc7a,64cf48483c8673a31cdd9710,,,,,,,sngl,resources/Empty.png,resources/DB.BMP,Door3,0.358333305,-0.037962984,1,0,0,0.7927,optionRight,70,13050,6,15,0,15,0,1,,,,,,,,,,,,,,,,,,,,,,,,,,,,,,,,,,,,,,,
,,,,,,,,2023-08-06_08h27.38.174,HF_wild_card,2022.2.4,Win32,61.22948812,60eb11e45f3e9cb0ae58a090,64ce5acb97489d65b14ecc7a,64cf48483c8673a31cdd9710,,,,,,,decisionTrl,resources/DB.BMP,resources/DBN.BMP,Door4,0.362962935,-0.015740748,1,0,0,1.0621,optionRight,80,13130,6,16,0,16,0,1,,,,,,,,,,,,,,,,,,,,,,,,,,,,,,,,,,,,,,,
,,,,,,,,2023-08-06_08h27.38.174,HF_wild_card,2022.2.4,Win32,61.22948812,60eb11e45f3e9cb0ae58a090,64ce5acb97489d65b14ecc7a,64cf48483c8673a31cdd9710,,,,,,,ctch,resources/DB.BMP,resources/DP.BMP,Door3,-0.303703697,-0.046296296,1,0,0,1.0667,optionLeft,70,13200,6,17,0,17,0,1,,,,,,,,,,,,,,,,,,,,,,,,,,,,,,,,,,,,,,,
,,,,,,,,2023-08-06_08h27.38.174,HF_wild_card,2022.2.4,Win32,61.22948812,60eb11e45f3e9cb0ae58a090,64ce5acb97489d65b14ecc7a,64cf48483c8673a31cdd9710,,,,,,,decisionTrl,resources/DB.BMP,resources/DBN.BMP,Door4,0.500925982,-0.029629637,1,0,0,1.19,optionRight,80,13280,6,18,0,18,0,1,,,,,,,,,,,,,,,,,,,,,,,,,,,,,,,,,,,,,,,
,,,,,,,,2023-08-06_08h27.38.174,HF_wild_card,2022.2.4,Win32,61.22948812,60eb11e45f3e9cb0ae58a090,64ce5acb97489d65b14ecc7a,64cf48483c8673a31cdd9710,,,,,,,sngl,resources/Empty.png,resources/DR.BMP,Door1,0.25,0.029629637,1,0,0,0.9769,optionRight,30,13310,6,19,0,19,0,1,,,,,,,,,,,,,,,,,,,,,,,,,,,,,,,,,,,,,,,
,,,,,,,,2023-08-06_08h27.38.174,HF_wild_card,2022.2.4,Win32,61.22948812,60eb11e45f3e9cb0ae58a090,64ce5acb97489d65b14ecc7a,64cf48483c8673a31cdd9710,,,,,,,decisionTrl,resources/DBN.BMP,resources/DB.BMP,Door3,0.442592621,-0.000925947,1,0,0,1.2782,optionRight,70,13380,6,20,0,20,0,1,,,,,,,,,,,,,,,,,,,,,,,,,,,,,,,,,,,,,,,
,,,,,,,,2023-08-06_08h27.38.174,HF_wild_card,2022.2.4,Win32,61.22948812,60eb11e45f3e9cb0ae58a090,64ce5acb97489d65b14ecc7a,64cf48483c8673a31cdd9710,,,,,,,ctch,resources/DR.BMP,resources/DBN.BMP,Door4,0.309259344,-0.0074074,1,0,0,1.5999,optionRight,80,13460,6,21,0,21,0,1,,,,,,,,,,,,,,,,,,,,,,,,,,,,,,,,,,,,,,,
,,,,,,,,2023-08-06_08h27.38.174,HF_wild_card,2022.2.4,Win32,61.22948812,60eb11e45f3e9cb0ae58a090,64ce5acb97489d65b14ecc7a,64cf48483c8673a31cdd9710,,,,,,,decisionTrl,resources/DP.BMP,resources/DR.BMP,Door1,0.345370399,0.008333312,1,0,0,2.3286,optionRight,30,13490,6,22,0,22,0,1,,,,,,,,,,,,,,,,,,,,,,,,,,,,,,,,,,,,,,,
,,,,,,,,2023-08-06_08h27.38.174,HF_wild_card,2022.2.4,Win32,61.22948812,60eb11e45f3e9cb0ae58a090,64ce5acb97489d65b14ecc7a,64cf48483c8673a31cdd9710,,,,,,,decisionTrl,resources/DG.BMP,resources/DB.BMP,Door3,0.306481538,0.023148148,1,0,0,1.1605,optionRight,70,13560,6,23,0,23,0,1,,,,,,,,,,,,,,,,,,,,,,,,,,,,,,,,,,,,,,,
,,,,,,,,2023-08-06_08h27.38.174,HF_wild_card,2022.2.4,Win32,61.22948812,60eb11e45f3e9cb0ae58a090,64ce5acb97489d65b14ecc7a,64cf48483c8673a31cdd9710,,,,,,,ctch,resources/DB.BMP,resources/DP.BMP,Door3,-0.275925884,-0.044444437,1,0,0,0.8107,optionLeft,70,13630,6,24,0,24,0,1,,,,,,,,,,,,,,,,,,,,,,,,,,,,,,,,,,,,,,,
,,,,,,,,2023-08-06_08h27.38.174,HF_wild_card,2022.2.4,Win32,61.22948812,60eb11e45f3e9cb0ae58a090,64ce5acb97489d65b14ecc7a,64cf48483c8673a31cdd9710,,,,,,,decisionTrl,resources/DB.BMP,resources/DBN.BMP,Door4,0.242592635,-0.015740748,1,0,0,0.8647,optionRight,80,13710,6,25,0,25,0,1,,,,,,,,,,,,,,,,,,,,,,,,,,,,,,,,,,,,,,,
,,,,,,,,2023-08-06_08h27.38.174,HF_wild_card,2022.2.4,Win32,61.22948812,60eb11e45f3e9cb0ae58a090,64ce5acb97489d65b14ecc7a,64cf48483c8673a31cdd9710,,,,,,,sngl,resources/DBN.BMP,resources/Empty.png,Door4,-0.433333326,-0.074074074,1,0,0,0.9444,optionLeft,60,13770,6,26,0,26,0,1,,,,,,,,,,,,,,,,,,,,,,,,,,,,,,,,,,,,,,,
,,,,,,,,2023-08-06_08h27.38.174,HF_wild_card,2022.2.4,Win32,61.22948812,60eb11e45f3e9cb0ae58a090,64ce5acb97489d65b14ecc7a,64cf48483c8673a31cdd9710,,,,,,,decisionTrl,resources/DB.BMP,resources/DG.BMP,Door3,-0.348148134,-0.062962956,1,0,0,0.8432,optionLeft,70,13840,6,27,0,27,0,1,,,,,,,,,,,,,,,,,,,,,,,,,,,,,,,,,,,,,,,
,,,,,,,,2023-08-06_08h27.38.174,HF_wild_card,2022.2.4,Win32,61.22948812,60eb11e45f3e9cb0ae58a090,64ce5acb97489d65b14ecc7a,64cf48483c8673a31cdd9710,,,,,,,sngl,resources/DG.BMP,resources/Empty.png,WildCard_Ex,-0.404629637,-0.040740755,1,0,0,0.8885,optionLeft,45,13885,6,28,0,28,0,1,,,,,,,,,,,,,,,,,,,,,,,,,,,,,,,,,,,,,,,
,,,,,,,,2023-08-06_08h27.38.174,HF_wild_card,2022.2.4,Win32,61.22948812,60eb11e45f3e9cb0ae58a090,64ce5acb97489d65b14ecc7a,64cf48483c8673a31cdd9710,,,,,,,sngl,resources/DP.BMP,resources/Empty.png,Door2,-0.388888889,-0.035185178,1,0,0,1.2741,optionLeft,20,13905,6,29,0,29,0,1,,,,,,,,,,,,,,,,,,,,,,,,,,,,,,,,,,,,,,,
,,,,,,,,2023-08-06_08h27.38.174,HF_wild_card,2022.2.4,Win32,61.22948812,60eb11e45f3e9cb0ae58a090,64ce5acb97489d65b14ecc7a,64cf48483c8673a31cdd9710,,,,,,,sngl,resources/Empty.png,resources/DG.BMP,WildCard_Ex,0.422222279,-0.030555548,1,0,0,0.9507,optionRight,55,13960,6,30,0,30,0,1,,,,,,,,,,,,,,,,,,,,,,,,,,,,,,,,,,,,,,,
,,,,,,,,2023-08-06_08h27.38.174,HF_wild_card,2022.2.4,Win32,61.22948812,60eb11e45f3e9cb0ae58a090,64ce5acb97489d65b14ecc7a,64cf48483c8673a31cdd9710,,,,,,,decisionTrl,resources/DG.BMP,resources/DR.BMP,WildCard_Ex,-0.262962977,-0.047222243,1,0,0,1.6416,optionLeft,45,14005,6,31,0,31,0,1,,,,,,,,,,,,,,,,,,,,,,,,,,,,,,,,,,,,,,,
,,,,,,,,2023-08-06_08h27.38.174,HF_wild_card,2022.2.4,Win32,61.22948812,60eb11e45f3e9cb0ae58a090,64ce5acb97489d65b14ecc7a,64cf48483c8673a31cdd9710,,,,,,,decisionTrl,resources/DR.BMP,resources/DP.BMP,Door2,0.441666638,-0.034259266,1,0,0,1.3668,optionRight,20,14025,6,32,0,32,0,1,,,,,,,,,,,,,,,,,,,,,,,,,,,,,,,,,,,,,,,
,,,,,,,,2023-08-06_08h27.38.174,HF_wild_card,2022.2.4,Win32,61.22948812,60eb11e45f3e9cb0ae58a090,64ce5acb97489d65b14ecc7a,64cf48483c8673a31cdd9710,,,,,,,decisionTrl,resources/DR.BMP,resources/DP.BMP,Door1,-0.339814822,-0.011111118,1,0,0,1.3894,optionLeft,30,14055,6,33,0,33,0,1,,,,,,,,,,,,,,,,,,,,,,,,,,,,,,,,,,,,,,,
,,,,,,,,2023-08-06_08h27.38.174,HF_wild_card,2022.2.4,Win32,61.22948812,60eb11e45f3e9cb0ae58a090,64ce5acb97489d65b14ecc7a,64cf48483c8673a31cdd9710,,,,,,,ctch,resources/DP.BMP,resources/DB.BMP,Door3,0.359259288,0.001851859,1,0,0,0.8917,optionRight,70,14125,6,34,0,34,0,1,,,,,,,,,,,,,,,,,,,,,,,,,,,,,,,,,,,,,,,
,,,,,,,,2023-08-06_08h27.38.174,HF_wild_card,2022.2.4,Win32,61.22948812,60eb11e45f3e9cb0ae58a090,64ce5acb97489d65b14ecc7a,64cf48483c8673a31cdd9710,,,,,,,sngl,resources/Empty.png,resources/DBN.BMP,Door4,0.500925982,-0.023148148,1,0,0,1.3918,optionRight,80,14205,6,35,0,35,0,1,,,,,,,,,,,,,,,,,,,,,,,,,,,,,,,,,,,,,,,
,,,,,,,,2023-08-06_08h27.38.174,HF_wild_card,2022.2.4,Win32,61.22948812,60eb11e45f3e9cb0ae58a090,64ce5acb97489d65b14ecc7a,64cf48483c8673a31cdd9710,,,,,,,decisionTrl,resources/DR.BMP,resources/DP.BMP,Door1,-0.40648146,-0.046296296,1,0,0,1.4068,optionLeft,30,14235,6,36,0,36,0,1,,,,,,,,,,,,,,,,,,,,,,,,,,,,,,,,,,,,,,,
,,,,,,,,2023-08-06_08h27.38.174,HF_wild_card,2022.2.4,Win32,61.22948812,60eb11e45f3e9cb0ae58a090,64ce5acb97489d65b14ecc7a,64cf48483c8673a31cdd9710,,,,,,,ctch,resources/DR.BMP,resources/DBN.BMP,Door4,0.397222307,0.029629637,1,0,0,0.9532,optionRight,80,14315,6,37,0,37,0,1,,,,,,,,,,,,,,,,,,,,,,,,,,,,,,,,,,,,,,,
,,,,,,,,2023-08-06_08h27.38.174,HF_wild_card,2022.2.4,Win32,61.22948812,60eb11e45f3e9cb0ae58a090,64ce5acb97489d65b14ecc7a,64cf48483c8673a31cdd9710,,,,,,,sngl,resources/DG.BMP,resources/Empty.png,WildCard_Ex,-0.287962949,-0.010185206,1,0,0,0.7738,optionLeft,55,14370,6,38,0,38,0,1,,,,,,,,,,,,,,,,,,,,,,,,,,,,,,,,,,,,,,,
,,,,,,,,2023-08-06_08h27.38.174,HF_wild_card,2022.2.4,Win32,61.22948812,60eb11e45f3e9cb0ae58a090,64ce5acb97489d65b14ecc7a,64cf48483c8673a31cdd9710,,,,,,,decisionTrl,resources/DR.BMP,resources/DP.BMP,Door1,-0.395370377,-0.005555577,1,0,0,2.1129,optionLeft,30,14400,6,39,0,39,0,1,,,,,,,,,,,,,,,,,,,,,,,,,,,,,,,,,,,,,,,
,,,,,,,,2023-08-06_08h27.38.174,HF_wild_card,2022.2.4,Win32,61.22948812,60eb11e45f3e9cb0ae58a090,64ce5acb97489d65b14ecc7a,64cf48483c8673a31cdd9710,,,,,,,sngl,resources/DR.BMP,resources/Empty.png,Door1,-0.276851866,-0.011111118,1,0,0,0.9752,optionLeft,30,14430,6,40,0,40,0,1,,,,,,,,,,,,,,,,,,,,,,,,,,,,,,,,,,,,,,,
,,,,,,,,2023-08-06_08h27.38.174,HF_wild_card,2022.2.4,Win32,61.22948812,60eb11e45f3e9cb0ae58a090,64ce5acb97489d65b14ecc7a,64cf48483c8673a31cdd9710,,,,,,,decisionTrl,resources/DP.BMP,resources/DR.BMP,Door1,0.258333347,-0.014814836,1,0,0,0.9578,optionRight,30,14460,6,41,0,41,0,1,,,,,,,,,,,,,,,,,,,,,,,,,,,,,,,,,,,,,,,
,,,,,,,,2023-08-06_08h27.38.174,HF_wild_card,2022.2.4,Win32,61.22948812,60eb11e45f3e9cb0ae58a090,64ce5acb97489d65b14ecc7a,64cf48483c8673a31cdd9710,,,,,,,decisionTrl,resources/DBN.BMP,resources/DB.BMP,Door4,-0.355555534,-0.012962977,1,0,0,1.6759,optionLeft,60,14520,6,42,0,42,0,1,,,,,,,,,,,,,,,,,,,,,,,,,,,,,,,,,,,,,,,
,,,,,,,,2023-08-06_08h27.38.174,HF_wild_card,2022.2.4,Win32,61.22948812,60eb11e45f3e9cb0ae58a090,64ce5acb97489d65b14ecc7a,64cf48483c8673a31cdd9710,,,,,,,decisionTrl,resources/DBN.BMP,resources/DB.BMP,Door3,0.350926011,-0.022222236,1,0,0,1.302,optionRight,70,14590,6,43,0,43,0,1,,,,,,,,,,,,,,,,,,,,,,,,,,,,,,,,,,,,,,,
,,,,,,,,2023-08-06_08h27.38.174,HF_wild_card,2022.2.4,Win32,61.22948812,60eb11e45f3e9cb0ae58a090,64ce5acb97489d65b14ecc7a,64cf48483c8673a31cdd9710,,,,,,,,,,,,,,,,,,,,,,,,,,5,0,5,0,1,,,,,,,,,,,,,,,,,,,,,,,,,,,,,,,,,,
,,,,,,,,2023-08-06_08h27.38.174,HF_wild_card,2022.2.4,Win32,61.22948812,60eb11e45f3e9cb0ae58a090,64ce5acb97489d65b14ecc7a,64cf48483c8673a31cdd9710,,,,,,,decisionTrl,resources/DR.BMP,resources/DP.BMP,Door1,-0.381481489,-0.075000021,1,0,0,1.8066,optionLeft,30,14620,7,0,0,0,0,1,,,,,,,,,,,,,,,,,,,,,,,,,,,,,,,,,,,,,,,
,,,,,,,,2023-08-06_08h27.38.174,HF_wild_card,2022.2.4,Win32,61.22948812,60eb11e45f3e9cb0ae58a090,64ce5acb97489d65b14ecc7a,64cf48483c8673a31cdd9710,,,,,,,decisionTrl,resources/DB.BMP,resources/DBN.BMP,Door4,0.36018527,0.000925912,1,0,0,1.5774,optionRight,60,14680,7,1,0,1,0,1,,,,,,,,,,,,,,,,,,,,,,,,,,,,,,,,,,,,,,,
,,,,,,,,2023-08-06_08h27.38.174,HF_wild_card,2022.2.4,Win32,61.22948812,60eb11e45f3e9cb0ae58a090,64ce5acb97489d65b14ecc7a,64cf48483c8673a31cdd9710,,,,,,,decisionTrl,resources/DR.BMP,resources/DP.BMP,Door1,-0.282407407,-0.0074074,1,0,0,1.4925,optionLeft,30,14710,7,2,0,2,0,1,,,,,,,,,,,,,,,,,,,,,,,,,,,,,,,,,,,,,,,
,,,,,,,,2023-08-06_08h27.38.174,HF_wild_card,2022.2.4,Win32,61.22948812,60eb11e45f3e9cb0ae58a090,64ce5acb97489d65b14ecc7a,64cf48483c8673a31cdd9710,,,,,,,ctch,resources/DB.BMP,resources/DP.BMP,Door3,-0.384259259,-0.015740748,1,0,0,0.9101,optionLeft,70,14780,7,3,0,3,0,1,,,,,,,,,,,,,,,,,,,,,,,,,,,,,,,,,,,,,,,
,,,,,,,,2023-08-06_08h27.38.174,HF_wild_card,2022.2.4,Win32,61.22948812,60eb11e45f3e9cb0ae58a090,64ce5acb97489d65b14ecc7a,64cf48483c8673a31cdd9710,,,,,,,ctch,resources/DBN.BMP,resources/DR.BMP,Door4,-0.511111118,0.029629637,1,0,0,0.9837,optionLeft,80,14860,7,4,0,4,0,1,,,,,,,,,,,,,,,,,,,,,,,,,,,,,,,,,,,,,,,
,,,,,,,,2023-08-06_08h27.38.174,HF_wild_card,2022.2.4,Win32,61.22948812,60eb11e45f3e9cb0ae58a090,64ce5acb97489d65b14ecc7a,64cf48483c8673a31cdd9710,,,,,,,decisionTrl,resources/DBN.BMP,resources/DB.BMP,Door3,0.460185157,-0.036111125,1,0,0,1.548,optionRight,70,14930,7,5,0,5,0,1,,,,,,,,,,,,,,,,,,,,,,,,,,,,,,,,,,,,,,,
,,,,,,,,2023-08-06_08h27.38.174,HF_wild_card,2022.2.4,Win32,61.22948812,60eb11e45f3e9cb0ae58a090,64ce5acb97489d65b14ecc7a,64cf48483c8673a31cdd9710,,,,,,,decisionTrl,resources/DP.BMP,resources/DR.BMP,Door1,0.319444444,-0.038888896,1,0,0,1.84,optionRight,30,14960,7,6,0,6,0,1,,,,,,,,,,,,,,,,,,,,,,,,,,,,,,,,,,,,,,,
,,,,,,,,2023-08-06_08h27.38.174,HF_wild_card,2022.2.4,Win32,61.22948812,60eb11e45f3e9cb0ae58a090,64ce5acb97489d65b14ecc7a,64cf48483c8673a31cdd9710,,,,,,,ctch,resources/DP.BMP,resources/DB.BMP,Door3,0.468518575,-0.031481496,1,0,0,1.3438,optionRight,70,15030,7,7,0,7,0,1,,,,,,,,,,,,,,,,,,,,,,,,,,,,,,,,,,,,,,,
,,,,,,,,2023-08-06_08h27.38.174,HF_wild_card,2022.2.4,Win32,61.22948812,60eb11e45f3e9cb0ae58a090,64ce5acb97489d65b14ecc7a,64cf48483c8673a31cdd9710,,,,,,,decisionTrl,resources/DR.BMP,resources/DP.BMP,Door1,-0.355555534,-0.006481489,1,0,0,1.028,optionLeft,30,15060,7,8,0,8,0,1,,,,,,,,,,,,,,,,,,,,,,,,,,,,,,,,,,,,,,,
,,,,,,,,2023-08-06_08h27.38.174,HF_wild_card,2022.2.4,Win32,61.22948812,60eb11e45f3e9cb0ae58a090,64ce5acb97489d65b14ecc7a,64cf48483c8673a31cdd9710,,,,,,,decisionTrl,resources/DR.BMP,resources/DP.BMP,Door1,-0.349074081,-0.063888903,1,0,0,0.8952,optionLeft,30,15090,7,9,0,9,0,1,,,,,,,,,,,,,,,,,,,,,,,,,,,,,,,,,,,,,,,
,,,,,,,,2023-08-06_08h27.38.174,HF_wild_card,2022.2.4,Win32,61.22948812,60eb11e45f3e9cb0ae58a090,64ce5acb97489d65b14ecc7a,64cf48483c8673a31cdd9710,,,,,,,decisionTrl,resources/DBN.BMP,resources/DB.BMP,Door3,0.290740755,-0.014814836,1,0,0,1.4419,optionRight,70,15160,7,10,0,10,0,1,,,,,,,,,,,,,,,,,,,,,,,,,,,,,,,,,,,,,,,
,,,,,,,,2023-08-06_08h27.38.174,HF_wild_card,2022.2.4,Win32,61.22948812,60eb11e45f3e9cb0ae58a090,64ce5acb97489d65b14ecc7a,64cf48483c8673a31cdd9710,,,,,,,decisionTrl,resources/DB.BMP,resources/DBN.BMP,Door4,0.222222222,-0.014814836,1,0,0,1.0848,optionRight,80,15240,7,11,0,11,0,1,,,,,,,,,,,,,,,,,,,,,,,,,,,,,,,,,,,,,,,
,,,,,,,,2023-08-06_08h27.38.174,HF_wild_card,2022.2.4,Win32,61.22948812,60eb11e45f3e9cb0ae58a090,64ce5acb97489d65b14ecc7a,64cf48483c8673a31cdd9710,,,,,,,ctch,resources/DP.BMP,resources/DB.BMP,Door3,0.341666751,-0.01203703,1,0,0,1.0617,optionRight,70,15310,7,12,0,12,0,1,,,,,,,,,,,,,,,,,,,,,,,,,,,,,,,,,,,,,,,
,,,,,,,,2023-08-06_08h27.38.174,HF_wild_card,2022.2.4,Win32,61.22948812,60eb11e45f3e9cb0ae58a090,64ce5acb97489d65b14ecc7a,64cf48483c8673a31cdd9710,,,,,,,decisionTrl,resources/DR.BMP,resources/DP.BMP,Door1,-0.384259259,-0.01666666,1,0,0,1.1307,optionLeft,30,15340,7,13,0,13,0,1,,,,,,,,,,,,,,,,,,,,,,,,,,,,,,,,,,,,,,,
,,,,,,,,2023-08-06_08h27.38.174,HF_wild_card,2022.2.4,Win32,61.22948812,60eb11e45f3e9cb0ae58a090,64ce5acb97489d65b14ecc7a,64cf48483c8673a31cdd9710,,,,,,,ctch,resources/DR.BMP,resources/DBN.BMP,Door4,0.356481481,0.02407406,1,0,0,1.026,optionRight,80,15420,7,14,0,14,0,1,,,,,,,,,,,,,,,,,,,,,,,,,,,,,,,,,,,,,,,
,,,,,,,,2023-08-06_08h27.38.174,HF_wild_card,2022.2.4,Win32,61.22948812,60eb11e45f3e9cb0ae58a090,64ce5acb97489d65b14ecc7a,64cf48483c8673a31cdd9710,,,,,,,ctch,resources/DB.BMP,resources/DP.BMP,Door3,-0.282407407,-0.031481496,1,0,0,0.8277,optionLeft,70,15490,7,15,0,15,0,1,,,,,,,,,,,,,,,,,,,,,,,,,,,,,,,,,,,,,,,
,,,,,,,,2023-08-06_08h27.38.174,HF_wild_card,2022.2.4,Win32,61.22948812,60eb11e45f3e9cb0ae58a090,64ce5acb97489d65b14ecc7a,64cf48483c8673a31cdd9710,,,,,,,decisionTrl,resources/DP.BMP,resources/DR.BMP,Door1,0.315740797,0.046296296,1,0,0,1.1258,optionRight,30,15520,7,16,0,16,0,1,,,,,,,,,,,,,,,,,,,,,,,,,,,,,,,,,,,,,,,
,,,,,,,,2023-08-06_08h27.38.174,HF_wild_card,2022.2.4,Win32,61.22948812,60eb11e45f3e9cb0ae58a090,64ce5acb97489d65b14ecc7a,64cf48483c8673a31cdd9710,,,,,,,decisionTrl,resources/DB.BMP,resources/DBN.BMP,Door4,0.339814787,0.02870369,1,0,0,0.8582,optionRight,60,15580,7,17,0,17,0,1,,,,,,,,,,,,,,,,,,,,,,,,,,,,,,,,,,,,,,,
,,,,,,,,2023-08-06_08h27.38.174,HF_wild_card,2022.2.4,Win32,61.22948812,60eb11e45f3e9cb0ae58a090,64ce5acb97489d65b14ecc7a,64cf48483c8673a31cdd9710,,,,,,,ctch,resources/DBN.BMP,resources/DR.BMP,Door4,-0.330555563,-0.062962956,1,0,0,0.8255,optionLeft,80,15660,7,18,0,18,0,1,,,,,,,,,,,,,,,,,,,,,,,,,,,,,,,,,,,,,,,
,,,,,,,,2023-08-06_08h27.38.174,HF_wild_card,2022.2.4,Win32,61.22948812,60eb11e45f3e9cb0ae58a090,64ce5acb97489d65b14ecc7a,64cf48483c8673a31cdd9710,,,,,,,decisionTrl,resources/DP.BMP,resources/DR.BMP,Door1,0.294444473,0.001851859,1,0,0,0.9938,optionRight,30,15690,7,19,0,19,0,1,,,,,,,,,,,,,,,,,,,,,,,,,,,,,,,,,,,,,,,
,,,,,,,,2023-08-06_08h27.38.174,HF_wild_card,2022.2.4,Win32,61.22948812,60eb11e45f3e9cb0ae58a090,64ce5acb97489d65b14ecc7a,64cf48483c8673a31cdd9710,,,,,,,decisionTrl,resources/DR.BMP,resources/DP.BMP,Door1,-0.350925905,-0.060185185,1,0,0,1.0896,optionLeft,30,15720,7,20,0,20,0,1,,,,,,,,,,,,,,,,,,,,,,,,,,,,,,,,,,,,,,,
,,,,,,,,2023-08-06_08h27.38.174,HF_wild_card,2022.2.4,Win32,61.22948812,60eb11e45f3e9cb0ae58a090,64ce5acb97489d65b14ecc7a,64cf48483c8673a31cdd9710,,,,,,,ctch,resources/DR.BMP,resources/DBN.BMP,Door4,0.362037094,0,1,0,0,0.9282,optionRight,80,15800,7,21,0,21,0,1,,,,,,,,,,,,,,,,,,,,,,,,,,,,,,,,,,,,,,,
,,,,,,,,2023-08-06_08h27.38.174,HF_wild_card,2022.2.4,Win32,61.22948812,60eb11e45f3e9cb0ae58a090,64ce5acb97489d65b14ecc7a,64cf48483c8673a31cdd9710,,,,,,,decisionTrl,resources/DB.BMP,resources/DBN.BMP,Door4,0.426851908,0.030555548,1,0,0,1.1501,optionRight,60,15860,7,22,0,22,0,1,,,,,,,,,,,,,,,,,,,,,,,,,,,,,,,,,,,,,,,
,,,,,,,,2023-08-06_08h27.38.174,HF_wild_card,2022.2.4,Win32,61.22948812,60eb11e45f3e9cb0ae58a090,64ce5acb97489d65b14ecc7a,64cf48483c8673a31cdd9710,,,,,,,decisionTrl,resources/DP.BMP,resources/DR.BMP,Door1,0.401851937,0.01944443,1,0,0,1.2266,optionRight,30,15890,7,23,0,23,0,1,,,,,,,,,,,,,,,,,,,,,,,,,,,,,,,,,,,,,,,
,,,,,,,,2023-08-06_08h27.38.174,HF_wild_card,2022.2.4,Win32,61.22948812,60eb11e45f3e9cb0ae58a090,64ce5acb97489d65b14ecc7a,64cf48483c8673a31cdd9710,,,,,,,decisionTrl,resources/DP.BMP,resources/DR.BMP,Door1,0.431481538,-0.013888889,1,0,0,1.3612,optionRight,30,15920,7,24,0,24,0,1,,,,,,,,,,,,,,,,,,,,,,,,,,,,,,,,,,,,,,,
,,,,,,,,2023-08-06_08h27.38.174,HF_wild_card,2022.2.4,Win32,61.22948812,60eb11e45f3e9cb0ae58a090,64ce5acb97489d65b14ecc7a,64cf48483c8673a31cdd9710,,,,,,,decisionTrl,resources/DBN.BMP,resources/DB.BMP,Door4,-0.37962963,-0.028703725,1,0,0,1.1936,optionLeft,60,15980,7,25,0,25,0,1,,,,,,,,,,,,,,,,,,,,,,,,,,,,,,,,,,,,,,,
,,,,,,,,2023-08-06_08h27.38.174,HF_wild_card,2022.2.4,Win32,61.22948812,60eb11e45f3e9cb0ae58a090,64ce5acb97489d65b14ecc7a,64cf48483c8673a31cdd9710,,,,,,,decisionTrl,resources/DB.BMP,resources/DBN.BMP,Door4,0.267592607,0.01203703,1,0,0,1.2093,optionRight,60,16040,7,26,0,26,0,1,,,,,,,,,,,,,,,,,,,,,,,,,,,,,,,,,,,,,,,
,,,,,,,,2023-08-06_08h27.38.174,HF_wild_card,2022.2.4,Win32,61.22948812,60eb11e45f3e9cb0ae58a090,64ce5acb97489d65b14ecc7a,64cf48483c8673a31cdd9710,,,,,,,ctch,resources/DR.BMP,resources/DBN.BMP,Door4,0.384259259,0.011111118,1,0,0,1.1239,optionRight,60,16100,7,27,0,27,0,1,,,,,,,,,,,,,,,,,,,,,,,,,,,,,,,,,,,,,,,
,,,,,,,,2023-08-06_08h27.38.174,HF_wild_card,2022.2.4,Win32,61.22948812,60eb11e45f3e9cb0ae58a090,64ce5acb97489d65b14ecc7a,64cf48483c8673a31cdd9710,,,,,,,ctch,resources/DB.BMP,resources/DP.BMP,Door3,-0.284259231,-0.024074095,1,0,0,0.811,optionLeft,70,16170,7,28,0,28,0,1,,,,,,,,,,,,,,,,,,,,,,,,,,,,,,,,,,,,,,,
,,,,,,,,2023-08-06_08h27.38.174,HF_wild_card,2022.2.4,Win32,61.22948812,60eb11e45f3e9cb0ae58a090,64ce5acb97489d65b14ecc7a,64cf48483c8673a31cdd9710,,,,,,,decisionTrl,resources/DBN.BMP,resources/DB.BMP,Door3,0.373148176,-0.024074095,1,0,0,1.6096,optionRight,70,16240,7,29,0,29,0,1,,,,,,,,,,,,,,,,,,,,,,,,,,,,,,,,,,,,,,,
,,,,,,,,2023-08-06_08h27.38.174,HF_wild_card,2022.2.4,Win32,61.22948812,60eb11e45f3e9cb0ae58a090,64ce5acb97489d65b14ecc7a,64cf48483c8673a31cdd9710,,,,,,,ctch,resources/DBN.BMP,resources/DR.BMP,Door4,-0.284259231,-0.041666667,1,0,0,0.793,optionLeft,80,16320,7,30,0,30,0,1,,,,,,,,,,,,,,,,,,,,,,,,,,,,,,,,,,,,,,,
,,,,,,,,2023-08-06_08h27.38.174,HF_wild_card,2022.2.4,Win32,61.22948812,60eb11e45f3e9cb0ae58a090,64ce5acb97489d65b14ecc7a,64cf48483c8673a31cdd9710,,,,,,,ctch,resources/DP.BMP,resources/DB.BMP,Door3,0.367592564,0.015740748,1,0,0,0.7585,optionRight,70,16390,7,31,0,31,0,1,,,,,,,,,,,,,,,,,,,,,,,,,,,,,,,,,,,,,,,
,,,,,,,,2023-08-06_08h27.38.174,HF_wild_card,2022.2.4,Win32,61.22948812,60eb11e45f3e9cb0ae58a090,64ce5acb97489d65b14ecc7a,64cf48483c8673a31cdd9710,,,,,,,decisionTrl,resources/DBN.BMP,resources/DB.BMP,Door4,-0.319444444,-0.054629644,1,0,0,1.0936,optionLeft,80,16470,7,32,0,32,0,1,,,,,,,,,,,,,,,,,,,,,,,,,,,,,,,,,,,,,,,
,,,,,,,,2023-08-06_08h27.38.174,HF_wild_card,2022.2.4,Win32,61.22948812,60eb11e45f3e9cb0ae58a090,64ce5acb97489d65b14ecc7a,64cf48483c8673a31cdd9710,,,,,,,decisionTrl,resources/DBN.BMP,resources/DB.BMP,Door4,-0.272222236,-0.064814815,1,0,0,0.9441,optionLeft,60,16530,7,33,0,33,0,1,,,,,,,,,,,,,,,,,,,,,,,,,,,,,,,,,,,,,,,
,,,,,,,,2023-08-06_08h27.38.174,HF_wild_card,2022.2.4,Win32,61.22948812,60eb11e45f3e9cb0ae58a090,64ce5acb97489d65b14ecc7a,64cf48483c8673a31cdd9710,,,,,,,decisionTrl,resources/DB.BMP,resources/DBN.BMP,Door4,0.327777863,0.037037037,1,0,0,1.1269,optionRight,80,16610,7,34,0,34,0,1,,,,,,,,,,,,,,,,,,,,,,,,,,,,,,,,,,,,,,,
,,,,,,,,2023-08-06_08h27.38.174,HF_wild_card,2022.2.4,Win32,61.22948812,60eb11e45f3e9cb0ae58a090,64ce5acb97489d65b14ecc7a,64cf48483c8673a31cdd9710,,,,,,,decisionTrl,resources/DP.BMP,resources/DR.BMP,Door1,0.354629658,-0.062037044,1,0,0,1.0782,optionRight,30,16640,7,35,0,35,0,1,,,,,,,,,,,,,,,,,,,,,,,,,,,,,,,,,,,,,,,
,,,,,,,,2023-08-06_08h27.38.174,HF_wild_card,2022.2.4,Win32,61.22948812,60eb11e45f3e9cb0ae58a090,64ce5acb97489d65b14ecc7a,64cf48483c8673a31cdd9710,,,,,,,,,,,,,,,,,,,,,,,,,,6,0,6,0,1,,,,,,,,,,,,,,,,,,,,,,,,,,,,,,,,,,
,,,,,,,,2023-08-06_08h27.38.174,HF_wild_card,2022.2.4,Win32,61.22948812,60eb11e45f3e9cb0ae58a090,64ce5acb97489d65b14ecc7a,64cf48483c8673a31cdd9710,,,,,,,,,,,,,,,,,,,,,,,,,,,,,,,4,,,,,,,,,,,,,,,,,,,,,,,,,,,,,,,,,
,,,,,,,,2023-08-06_08h27.38.174,HF_wild_card,2022.2.4,Win32,61.22948812,60eb11e45f3e9cb0ae58a090,64ce5acb97489d65b14ecc7a,64cf48483c8673a31cdd9710,,,,,,,,,,,,,,,,,,,,,,,,,,,,,,,,,,,,,,,,,,,,,,,,,,,,,,,,,,,,,,,,
,,,,,,,,2023-08-06_08h27.38.174,HF_wild_card,2022.2.4,Win32,61.22948812,60eb11e45f3e9cb0ae58a090,64ce5acb97489d65b14ecc7a,64cf48483c8673a31cdd9710,,,,,,,,,,,,,,,,,,,,,,,,,,,,,,,,55,WC_extreme,resources/DG.BMP,0,0,0,0,1,,,,,,,,,,,,,,,,,,,,,,,,,
,,,,,,,,2023-08-06_08h27.38.174,HF_wild_card,2022.2.4,Win32,61.22948812,60eb11e45f3e9cb0ae58a090,64ce5acb97489d65b14ecc7a,64cf48483c8673a31cdd9710,,,,,,,,,,,,,,,,,,,,,,,,,,,,,,,,80,Door4,resources/DBN.BMP,1,0,1,0,1,,,,,,,,,,,,,,,,,,,,,,,,,
,,,,,,,,2023-08-06_08h27.38.174,HF_wild_card,2022.2.4,Win32,61.22948812,60eb11e45f3e9cb0ae58a090,64ce5acb97489d65b14ecc7a,64cf48483c8673a31cdd9710,,,,,,,,,,,,,,,,,,,,,,,,,,,,,,,,20,Door2,resources/DP.BMP,2,0,2,0,1,,,,,,,,,,,,,,,,,,,,,,,,,
,,,,,,,,2023-08-06_08h27.38.174,HF_wild_card,2022.2.4,Win32,61.22948812,60eb11e45f3e9cb0ae58a090,64ce5acb97489d65b14ecc7a,64cf48483c8673a31cdd9710,,,,,,,,,,,,,,,,,,,,,,,,,,,,,,,,30,Door1,resources/DR.BMP,3,0,3,0,1,,,,,,,,,,,,,,,,,,,,,,,,,
,,,,,,,,2023-08-06_08h27.38.174,HF_wild_card,2022.2.4,Win32,61.22948812,60eb11e45f3e9cb0ae58a090,64ce5acb97489d65b14ecc7a,64cf48483c8673a31cdd9710,,,,,,,,,,,,,,,,,,,,,,,,,,,,,,,,70,Door3,resources/DB.BMP,4,0,4,0,1,,,,,,,,,,,,,,,,,,,,,,,,,
,,,,,,,,2023-08-06_08h27.38.174,HF_wild_card,2022.2.4,Win32,61.22948812,60eb11e45f3e9cb0ae58a090,64ce5acb97489d65b14ecc7a,64cf48483c8673a31cdd9710,,,,,,,,,,,,,,,,,,,,,,,,,,,,,,,,55,WC_nonExtreme,resources/DY.BMP,5,0,5,0,1,,,,,,,,,,,,,,,,,,,,,,,,,
,,,,,,,,2023-08-06_08h27.38.174,HF_wild_card,2022.2.4,Win32,61.22948812,60eb11e45f3e9cb0ae58a090,64ce5acb97489d65b14ecc7a,64cf48483c8673a31cdd9710,,,,,,,,,,,,,,,,,,,,,,,,,,,,,,,,,,,,,,,,,,,,,,,,,,,,,,,,,,,,,,,,
