Condition,Low fixed image (Door1),Low risky image (Door2),High fixed image (Door3),High risky image (Door4),Extreme Wild Card,NonExtreme Wild Card,,date,expName,psychopyVersion,OS,frameRate,PROLIFIC_PID,STUDY_ID,SESSION_ID,mouse_2.x,mouse_2.y,mouse_2.leftButton,mouse_2.midButton,mouse_2.rightButton,mouse_2.clicked_name,Trial Type,Left Option Image,Right Option Image,Chosen Door,mouse.x,mouse.y,mouse.leftButton,mouse.midButton,mouse.rightButton,mouse.time,mouse.clicked_name,Feedback,Cumulative Reward,Block,trial.thisRepN,trial.thisTrialN,trial.thisN,trial.thisIndex,trial.ran,blocks.thisRepN,blocks.thisTrialN,blocks.thisN,blocks.thisIndex,blocks.ran,Money conversion,First Outcome Reported,Shown Door (First Outcome),Displayed Image (First Outcome),outcomes.thisRepN,outcomes.thisTrialN,outcomes.thisN,outcomes.thisIndex,outcomes.ran,judgments.thisRepN,judgments.thisTrialN,judgments.thisN,judgments.thisIndex,judgments.ran,freqMouse.x,freqMouse.y,freqMouse.leftButton,freqMouse.midButton,freqMouse.rightButton,freqMouse.clicked_name,FQJ for first outcome,FQJ for second outcome,Shown Door,Displayed Image,trials.thisRepN,trials.thisTrialN,trials.thisN,trials.thisIndex,trials.ran,judgBlock.thisRepN,judgBlock.thisTrialN,judgBlock.thisN,judgBlock.thisIndex,judgBlock.ran
1,resources/DY.BMP,resources/DG.BMP,resources/DP.BMP,resources/DBN.BMP,resources/DR.BMP,resources/DB.BMP,,2023-08-13_02h09.00.777,HF_wild_card,2022.2.4,Win32,59.86590038,602160dd499ff3105e0635ef,64ce5acb97489d65b14ecc7a,64d82d0b63542afdd37bb4bf,,,,,,,,,,,,,,,,,,,,,,,,,,,,,,,,,,,,,,,,,,,,,,,,,,,,,,,,,,,,,,,,
,,,,,,,,2023-08-13_02h09.00.777,HF_wild_card,2022.2.4,Win32,59.86590038,602160dd499ff3105e0635ef,64ce5acb97489d65b14ecc7a,64d82d0b63542afdd37bb4bf,0.004768524,-0.425000076,1,0,0,agree,,,,,,,,,,,,,,,,,,,,,,,,,,,,,,,,,,,,,,,,,,,,,,,,,,,,,,,,,,
,,,,,,,,2023-08-13_02h09.00.777,HF_wild_card,2022.2.4,Win32,59.86590038,602160dd499ff3105e0635ef,64ce5acb97489d65b14ecc7a,64d82d0b63542afdd37bb4bf,,,,,,,,,,,,,,,,,,,,,,,,,,,,,,,,,,,,,,,,,,,,,,,,,,,,,,,,,,,,,,,,
,,,,,,,,2023-08-13_02h09.00.777,HF_wild_card,2022.2.4,Win32,59.86590038,602160dd499ff3105e0635ef,64ce5acb97489d65b14ecc7a,64d82d0b63542afdd37bb4bf,,,,,,,sngl,resources/DG.BMP,resources/Empty.png,Door2,-0.389675903,-0.035185204,1,0,0,6.9865,optionLeft,40,40,1,0,0,0,0,1,,,,,,,,,,,,,,,,,,,,,,,,,,,,,,,,,,,,,,,
,,,,,,,,2023-08-13_02h09.00.777,HF_wild_card,2022.2.4,Win32,59.86590038,602160dd499ff3105e0635ef,64ce5acb97489d65b14ecc7a,64d82d0b63542afdd37bb4bf,,,,,,,ctch,resources/DP.BMP,resources/DG.BMP,Door2,0.36217598,-0.050000038,1,0,0,6.7478,optionRight,40,80,1,1,0,1,0,1,,,,,,,,,,,,,,,,,,,,,,,,,,,,,,,,,,,,,,,
,,,,,,,,2023-08-13_02h09.00.777,HF_wild_card,2022.2.4,Win32,59.86590038,602160dd499ff3105e0635ef,64ce5acb97489d65b14ecc7a,64d82d0b63542afdd37bb4bf,,,,,,,decisionTrl,resources/DP.BMP,resources/DBN.BMP,Door4,0.378842545,-0.033333359,1,0,0,7.7527,optionRight,80,160,1,2,0,2,0,1,,,,,,,,,,,,,,,,,,,,,,,,,,,,,,,,,,,,,,,
,,,,,,,,2023-08-13_02h09.00.777,HF_wild_card,2022.2.4,Win32,59.86590038,602160dd499ff3105e0635ef,64ce5acb97489d65b14ecc7a,64d82d0b63542afdd37bb4bf,,,,,,,sngl,resources/Empty.png,resources/DB.BMP,WildCard_NonEx,0.393657532,-0.056481514,1,0,0,4.4449,optionRight,45,205,1,3,0,3,0,1,,,,,,,,,,,,,,,,,,,,,,,,,,,,,,,,,,,,,,,
,,,,,,,,2023-08-13_02h09.00.777,HF_wild_card,2022.2.4,Win32,59.86590038,602160dd499ff3105e0635ef,64ce5acb97489d65b14ecc7a,64d82d0b63542afdd37bb4bf,,,,,,,sngl,resources/DP.BMP,resources/Empty.png,Door3,-0.383194427,-0.072222252,1,0,0,3.9362,optionLeft,70,275,1,4,0,4,0,1,,,,,,,,,,,,,,,,,,,,,,,,,,,,,,,,,,,,,,,
,,,,,,,,2023-08-13_02h09.00.777,HF_wild_card,2022.2.4,Win32,59.86590038,602160dd499ff3105e0635ef,64ce5acb97489d65b14ecc7a,64d82d0b63542afdd37bb4bf,,,,,,,decisionTrl,resources/DB.BMP,resources/DP.BMP,WildCard_NonEx,-0.394305534,-0.053703728,1,0,0,4.1608,optionLeft,55,330,1,5,0,5,0,1,,,,,,,,,,,,,,,,,,,,,,,,,,,,,,,,,,,,,,,
,,,,,,,,2023-08-13_02h09.00.777,HF_wild_card,2022.2.4,Win32,59.86590038,602160dd499ff3105e0635ef,64ce5acb97489d65b14ecc7a,64d82d0b63542afdd37bb4bf,,,,,,,decisionTrl,resources/DBN.BMP,resources/DP.BMP,Door4,-0.345231438,-0.035185204,1,0,0,3.9658,optionLeft,80,410,1,6,0,6,0,1,,,,,,,,,,,,,,,,,,,,,,,,,,,,,,,,,,,,,,,
,,,,,,,,2023-08-13_02h09.00.777,HF_wild_card,2022.2.4,Win32,59.86590038,602160dd499ff3105e0635ef,64ce5acb97489d65b14ecc7a,64d82d0b63542afdd37bb4bf,,,,,,,decisionTrl,resources/DB.BMP,resources/DY.BMP,Door1,0.429768524,-0.054629669,1,0,0,4.0475,optionRight,30,440,1,7,0,7,0,1,,,,,,,,,,,,,,,,,,,,,,,,,,,,,,,,,,,,,,,
,,,,,,,,2023-08-13_02h09.00.777,HF_wild_card,2022.2.4,Win32,59.86590038,602160dd499ff3105e0635ef,64ce5acb97489d65b14ecc7a,64d82d0b63542afdd37bb4bf,,,,,,,decisionTrl,resources/DP.BMP,resources/DBN.BMP,Door4,0.396435242,-0.050000038,1,0,0,3.5747,optionRight,60,500,1,8,0,8,0,1,,,,,,,,,,,,,,,,,,,,,,,,,,,,,,,,,,,,,,,
,,,,,,,,2023-08-13_02h09.00.777,HF_wild_card,2022.2.4,Win32,59.86590038,602160dd499ff3105e0635ef,64ce5acb97489d65b14ecc7a,64d82d0b63542afdd37bb4bf,,,,,,,ctch,resources/DP.BMP,resources/DG.BMP,Door2,0.414027863,-0.036111145,1,0,0,6.4378,optionRight,20,520,1,9,0,9,0,1,,,,,,,,,,,,,,,,,,,,,,,,,,,,,,,,,,,,,,,
,,,,,,,,2023-08-13_02h09.00.777,HF_wild_card,2022.2.4,Win32,59.86590038,602160dd499ff3105e0635ef,64ce5acb97489d65b14ecc7a,64d82d0b63542afdd37bb4bf,,,,,,,decisionTrl,resources/DB.BMP,resources/DG.BMP,WildCard_NonEx,-0.374861069,-0.063888931,1,0,0,3.975,optionLeft,45,565,1,10,0,10,0,1,,,,,,,,,,,,,,,,,,,,,,,,,,,,,,,,,,,,,,,
,,,,,,,,2023-08-13_02h09.00.777,HF_wild_card,2022.2.4,Win32,59.86590038,602160dd499ff3105e0635ef,64ce5acb97489d65b14ecc7a,64d82d0b63542afdd37bb4bf,,,,,,,decisionTrl,resources/DBN.BMP,resources/DP.BMP,Door4,-0.374861069,-0.025000038,1,0,0,3.0489,optionLeft,60,625,1,11,0,11,0,1,,,,,,,,,,,,,,,,,,,,,,,,,,,,,,,,,,,,,,,
,,,,,,,,2023-08-13_02h09.00.777,HF_wild_card,2022.2.4,Win32,59.86590038,602160dd499ff3105e0635ef,64ce5acb97489d65b14ecc7a,64d82d0b63542afdd37bb4bf,,,,,,,ctch,resources/DG.BMP,resources/DP.BMP,Door2,-0.371157379,-0.043518562,1,0,0,5.3249,optionLeft,20,645,1,12,0,12,0,1,,,,,,,,,,,,,,,,,,,,,,,,,,,,,,,,,,,,,,,
,,,,,,,,2023-08-13_02h09.00.777,HF_wild_card,2022.2.4,Win32,59.86590038,602160dd499ff3105e0635ef,64ce5acb97489d65b14ecc7a,64d82d0b63542afdd37bb4bf,,,,,,,decisionTrl,resources/DG.BMP,resources/DY.BMP,Door1,0.409398193,-0.050925941,1,0,0,1.8602,optionRight,30,675,1,13,0,13,0,1,,,,,,,,,,,,,,,,,,,,,,,,,,,,,,,,,,,,,,,
,,,,,,,,2023-08-13_02h09.00.777,HF_wild_card,2022.2.4,Win32,59.86590038,602160dd499ff3105e0635ef,64ce5acb97489d65b14ecc7a,64d82d0b63542afdd37bb4bf,,,,,,,sngl,resources/Empty.png,resources/DBN.BMP,Door4,0.432546387,-0.045370407,1,0,0,1.5605,optionRight,60,735,1,14,0,14,0,1,,,,,,,,,,,,,,,,,,,,,,,,,,,,,,,,,,,,,,,
,,,,,,,,2023-08-13_02h09.00.777,HF_wild_card,2022.2.4,Win32,59.86590038,602160dd499ff3105e0635ef,64ce5acb97489d65b14ecc7a,64d82d0b63542afdd37bb4bf,,,,,,,sngl,resources/Empty.png,resources/DP.BMP,Door3,0.422360992,-0.056481514,1,0,0,2.1428,optionRight,70,805,1,15,0,15,0,1,,,,,,,,,,,,,,,,,,,,,,,,,,,,,,,,,,,,,,,
,,,,,,,,2023-08-13_02h09.00.777,HF_wild_card,2022.2.4,Win32,59.86590038,602160dd499ff3105e0635ef,64ce5acb97489d65b14ecc7a,64d82d0b63542afdd37bb4bf,,,,,,,sngl,resources/Empty.png,resources/DB.BMP,WildCard_NonEx,0.417731476,-0.052777748,1,0,0,2.0585,optionRight,55,860,1,16,0,16,0,1,,,,,,,,,,,,,,,,,,,,,,,,,,,,,,,,,,,,,,,
,,,,,,,,2023-08-13_02h09.00.777,HF_wild_card,2022.2.4,Win32,59.86590038,602160dd499ff3105e0635ef,64ce5acb97489d65b14ecc7a,64d82d0b63542afdd37bb4bf,,,,,,,sngl,resources/Empty.png,resources/DY.BMP,Door1,0.413101959,-0.027777748,1,0,0,1.4924,optionRight,30,890,1,17,0,17,0,1,,,,,,,,,,,,,,,,,,,,,,,,,,,,,,,,,,,,,,,
,,,,,,,,2023-08-13_02h09.00.777,HF_wild_card,2022.2.4,Win32,59.86590038,602160dd499ff3105e0635ef,64ce5acb97489d65b14ecc7a,64d82d0b63542afdd37bb4bf,,,,,,,decisionTrl,resources/DY.BMP,resources/DG.BMP,Door1,-0.345231438,-0.07129631,1,0,0,2.5823,optionLeft,30,920,1,18,0,18,0,1,,,,,,,,,,,,,,,,,,,,,,,,,,,,,,,,,,,,,,,
,,,,,,,,2023-08-13_02h09.00.777,HF_wild_card,2022.2.4,Win32,59.86590038,602160dd499ff3105e0635ef,64ce5acb97489d65b14ecc7a,64d82d0b63542afdd37bb4bf,,,,,,,decisionTrl,resources/DG.BMP,resources/DY.BMP,Door1,0.398287048,-0.075925941,1,0,0,2.2774,optionRight,30,950,1,19,0,19,0,1,,,,,,,,,,,,,,,,,,,,,,,,,,,,,,,,,,,,,,,
,,,,,,,,2023-08-13_02h09.00.777,HF_wild_card,2022.2.4,Win32,59.86590038,602160dd499ff3105e0635ef,64ce5acb97489d65b14ecc7a,64d82d0b63542afdd37bb4bf,,,,,,,decisionTrl,resources/DP.BMP,resources/DBN.BMP,Door4,0.392731476,-0.024074097,1,0,0,1.359,optionRight,80,1030,1,20,0,20,0,1,,,,,,,,,,,,,,,,,,,,,,,,,,,,,,,,,,,,,,,
,,,,,,,,2023-08-13_02h09.00.777,HF_wild_card,2022.2.4,Win32,59.86590038,602160dd499ff3105e0635ef,64ce5acb97489d65b14ecc7a,64d82d0b63542afdd37bb4bf,,,,,,,decisionTrl,resources/DY.BMP,resources/DG.BMP,Door1,-0.273935165,-0.018518486,1,0,0,1.925,optionLeft,30,1060,1,21,0,21,0,1,,,,,,,,,,,,,,,,,,,,,,,,,,,,,,,,,,,,,,,
,,,,,,,,2023-08-13_02h09.00.777,HF_wild_card,2022.2.4,Win32,59.86590038,602160dd499ff3105e0635ef,64ce5acb97489d65b14ecc7a,64d82d0b63542afdd37bb4bf,,,,,,,decisionTrl,resources/DG.BMP,resources/DB.BMP,WildCard_NonEx,0.426064911,-0.03796299,1,0,0,3.3689,optionRight,55,1115,1,22,0,22,0,1,,,,,,,,,,,,,,,,,,,,,,,,,,,,,,,,,,,,,,,
,,,,,,,,2023-08-13_02h09.00.777,HF_wild_card,2022.2.4,Win32,59.86590038,602160dd499ff3105e0635ef,64ce5acb97489d65b14ecc7a,64d82d0b63542afdd37bb4bf,,,,,,,decisionTrl,resources/DY.BMP,resources/DG.BMP,Door1,-0.34245369,-0.01296299,1,0,0,1.509,optionLeft,30,1145,1,23,0,23,0,1,,,,,,,,,,,,,,,,,,,,,,,,,,,,,,,,,,,,,,,
,,,,,,,,2023-08-13_02h09.00.777,HF_wild_card,2022.2.4,Win32,59.86590038,602160dd499ff3105e0635ef,64ce5acb97489d65b14ecc7a,64d82d0b63542afdd37bb4bf,,,,,,,decisionTrl,resources/DBN.BMP,resources/DP.BMP,Door4,-0.406342583,-0.019444466,1,0,0,1.5099,optionLeft,60,1205,1,24,0,24,0,1,,,,,,,,,,,,,,,,,,,,,,,,,,,,,,,,,,,,,,,
,,,,,,,,2023-08-13_02h09.00.777,HF_wild_card,2022.2.4,Win32,59.86590038,602160dd499ff3105e0635ef,64ce5acb97489d65b14ecc7a,64d82d0b63542afdd37bb4bf,,,,,,,ctch,resources/DBN.BMP,resources/DY.BMP,Door4,-0.355416641,-0.030555573,1,0,0,3.9932,optionLeft,80,1285,1,25,0,25,0,1,,,,,,,,,,,,,,,,,,,,,,,,,,,,,,,,,,,,,,,
,,,,,,,,2023-08-13_02h09.00.777,HF_wild_card,2022.2.4,Win32,59.86590038,602160dd499ff3105e0635ef,64ce5acb97489d65b14ecc7a,64d82d0b63542afdd37bb4bf,,,,,,,decisionTrl,resources/DG.BMP,resources/DY.BMP,Door1,0.40847229,-0.042592621,1,0,0,1.8089,optionRight,30,1315,1,26,0,26,0,1,,,,,,,,,,,,,,,,,,,,,,,,,,,,,,,,,,,,,,,
,,,,,,,,2023-08-13_02h09.00.777,HF_wild_card,2022.2.4,Win32,59.86590038,602160dd499ff3105e0635ef,64ce5acb97489d65b14ecc7a,64d82d0b63542afdd37bb4bf,,,,,,,decisionTrl,resources/DBN.BMP,resources/DB.BMP,Door4,-0.394305534,0.001851845,1,0,0,1.8084,optionLeft,60,1375,1,27,0,27,0,1,,,,,,,,,,,,,,,,,,,,,,,,,,,,,,,,,,,,,,,
,,,,,,,,2023-08-13_02h09.00.777,HF_wild_card,2022.2.4,Win32,59.86590038,602160dd499ff3105e0635ef,64ce5acb97489d65b14ecc7a,64d82d0b63542afdd37bb4bf,,,,,,,sngl,resources/DY.BMP,resources/Empty.png,Door1,-0.357268486,0.006481514,1,0,0,1.6428,optionLeft,30,1405,1,28,0,28,0,1,,,,,,,,,,,,,,,,,,,,,,,,,,,,,,,,,,,,,,,
,,,,,,,,2023-08-13_02h09.00.777,HF_wild_card,2022.2.4,Win32,59.86590038,602160dd499ff3105e0635ef,64ce5acb97489d65b14ecc7a,64d82d0b63542afdd37bb4bf,,,,,,,decisionTrl,resources/DB.BMP,resources/DBN.BMP,Door4,0.348287125,-0.038888931,1,0,0,1.8419,optionRight,80,1485,1,29,0,29,0,1,,,,,,,,,,,,,,,,,,,,,,,,,,,,,,,,,,,,,,,
,,,,,,,,2023-08-13_02h09.00.777,HF_wild_card,2022.2.4,Win32,59.86590038,602160dd499ff3105e0635ef,64ce5acb97489d65b14ecc7a,64d82d0b63542afdd37bb4bf,,,,,,,ctch,resources/DY.BMP,resources/DBN.BMP,Door4,0.374213028,0.013888855,1,0,0,3.8911,optionRight,60,1545,1,30,0,30,0,1,,,,,,,,,,,,,,,,,,,,,,,,,,,,,,,,,,,,,,,
,,,,,,,,2023-08-13_02h09.00.777,HF_wild_card,2022.2.4,Win32,59.86590038,602160dd499ff3105e0635ef,64ce5acb97489d65b14ecc7a,64d82d0b63542afdd37bb4bf,,,,,,,sngl,resources/DBN.BMP,resources/Empty.png,Door4,-0.348935165,-0.016666679,1,0,0,0.9779,optionLeft,80,1625,1,31,0,31,0,1,,,,,,,,,,,,,,,,,,,,,,,,,,,,,,,,,,,,,,,
,,,,,,,,2023-08-13_02h09.00.777,HF_wild_card,2022.2.4,Win32,59.86590038,602160dd499ff3105e0635ef,64ce5acb97489d65b14ecc7a,64d82d0b63542afdd37bb4bf,,,,,,,decisionTrl,resources/DP.BMP,resources/DBN.BMP,Door4,0.398287048,-0.03796299,1,0,0,1.6442,optionRight,80,1705,1,32,0,32,0,1,,,,,,,,,,,,,,,,,,,,,,,,,,,,,,,,,,,,,,,
,,,,,,,,2023-08-13_02h09.00.777,HF_wild_card,2022.2.4,Win32,59.86590038,602160dd499ff3105e0635ef,64ce5acb97489d65b14ecc7a,64d82d0b63542afdd37bb4bf,,,,,,,decisionTrl,resources/DG.BMP,resources/DY.BMP,Door1,0.419583435,-0.064814835,1,0,0,3.1428,optionRight,30,1735,1,33,0,33,0,1,,,,,,,,,,,,,,,,,,,,,,,,,,,,,,,,,,,,,,,
,,,,,,,,2023-08-13_02h09.00.777,HF_wild_card,2022.2.4,Win32,59.86590038,602160dd499ff3105e0635ef,64ce5acb97489d65b14ecc7a,64d82d0b63542afdd37bb4bf,,,,,,,decisionTrl,resources/DY.BMP,resources/DB.BMP,Door1,-0.360972252,-0.016666679,1,0,0,1.8113,optionLeft,30,1765,1,34,0,34,0,1,,,,,,,,,,,,,,,,,,,,,,,,,,,,,,,,,,,,,,,
,,,,,,,,2023-08-13_02h09.00.777,HF_wild_card,2022.2.4,Win32,59.86590038,602160dd499ff3105e0635ef,64ce5acb97489d65b14ecc7a,64d82d0b63542afdd37bb4bf,,,,,,,ctch,resources/DG.BMP,resources/DP.BMP,Door2,-0.346157379,-0.017592621,1,0,0,6.7661,optionLeft,20,1785,1,35,0,35,0,1,,,,,,,,,,,,,,,,,,,,,,,,,,,,,,,,,,,,,,,
,,,,,,,,2023-08-13_02h09.00.777,HF_wild_card,2022.2.4,Win32,59.86590038,602160dd499ff3105e0635ef,64ce5acb97489d65b14ecc7a,64d82d0b63542afdd37bb4bf,,,,,,,decisionTrl,resources/DP.BMP,resources/DB.BMP,WildCard_NonEx,0.365879669,-0.024074097,1,0,0,3.7914,optionRight,55,1840,1,36,0,36,0,1,,,,,,,,,,,,,,,,,,,,,,,,,,,,,,,,,,,,,,,
,,,,,,,,2023-08-13_02h09.00.777,HF_wild_card,2022.2.4,Win32,59.86590038,602160dd499ff3105e0635ef,64ce5acb97489d65b14ecc7a,64d82d0b63542afdd37bb4bf,,,,,,,sngl,resources/DB.BMP,resources/Empty.png,WildCard_NonEx,-0.370231514,-0.016666679,1,0,0,3.4398,optionLeft,55,1895,1,37,0,37,0,1,,,,,,,,,,,,,,,,,,,,,,,,,,,,,,,,,,,,,,,
,,,,,,,,2023-08-13_02h09.00.777,HF_wild_card,2022.2.4,Win32,59.86590038,602160dd499ff3105e0635ef,64ce5acb97489d65b14ecc7a,64d82d0b63542afdd37bb4bf,,,,,,,decisionTrl,resources/DBN.BMP,resources/DP.BMP,Door4,-0.366527748,-0.011111145,1,0,0,1.5765,optionLeft,60,1955,1,38,0,38,0,1,,,,,,,,,,,,,,,,,,,,,,,,,,,,,,,,,,,,,,,
,,,,,,,,2023-08-13_02h09.00.777,HF_wild_card,2022.2.4,Win32,59.86590038,602160dd499ff3105e0635ef,64ce5acb97489d65b14ecc7a,64d82d0b63542afdd37bb4bf,,,,,,,ctch,resources/DY.BMP,resources/DBN.BMP,Door4,0.319583282,-0.0342593,1,0,0,1.4762,optionRight,80,2035,1,39,0,39,0,1,,,,,,,,,,,,,,,,,,,,,,,,,,,,,,,,,,,,,,,
,,,,,,,,2023-08-13_02h09.00.777,HF_wild_card,2022.2.4,Win32,59.86590038,602160dd499ff3105e0635ef,64ce5acb97489d65b14ecc7a,64d82d0b63542afdd37bb4bf,,,,,,,sngl,resources/Empty.png,resources/DG.BMP,Door2,0.366805649,-0.030555573,1,0,0,1.0753,optionRight,20,2055,1,40,0,40,0,1,,,,,,,,,,,,,,,,,,,,,,,,,,,,,,,,,,,,,,,
,,,,,,,,2023-08-13_02h09.00.777,HF_wild_card,2022.2.4,Win32,59.86590038,602160dd499ff3105e0635ef,64ce5acb97489d65b14ecc7a,64d82d0b63542afdd37bb4bf,,,,,,,decisionTrl,resources/DY.BMP,resources/DG.BMP,Door1,-0.299861069,-0.032407417,1,0,0,1.5259,optionLeft,30,2085,1,41,0,41,0,1,,,,,,,,,,,,,,,,,,,,,,,,,,,,,,,,,,,,,,,
,,,,,,,,2023-08-13_02h09.00.777,HF_wild_card,2022.2.4,Win32,59.86590038,602160dd499ff3105e0635ef,64ce5acb97489d65b14ecc7a,64d82d0b63542afdd37bb4bf,,,,,,,ctch,resources/DBN.BMP,resources/DY.BMP,Door4,-0.332268486,-0.01296299,1,0,0,1.8919,optionLeft,60,2145,1,42,0,42,0,1,,,,,,,,,,,,,,,,,,,,,,,,,,,,,,,,,,,,,,,
,,,,,,,,2023-08-13_02h09.00.777,HF_wild_card,2022.2.4,Win32,59.86590038,602160dd499ff3105e0635ef,64ce5acb97489d65b14ecc7a,64d82d0b63542afdd37bb4bf,,,,,,,sngl,resources/DB.BMP,resources/Empty.png,WildCard_NonEx,-0.306342621,-0.018518486,1,0,0,1.3105,optionLeft,45,2190,1,43,0,43,0,1,,,,,,,,,,,,,,,,,,,,,,,,,,,,,,,,,,,,,,,
,,,,,,,,2023-08-13_02h09.00.777,HF_wild_card,2022.2.4,Win32,59.86590038,602160dd499ff3105e0635ef,64ce5acb97489d65b14ecc7a,64d82d0b63542afdd37bb4bf,,,,,,,,,,,,,,,,,,,,,,,,,,0,0,0,0,1,,,,,,,,,,,,,,,,,,,,,,,,,,,,,,,,,,
,,,,,,,,2023-08-13_02h09.00.777,HF_wild_card,2022.2.4,Win32,59.86590038,602160dd499ff3105e0635ef,64ce5acb97489d65b14ecc7a,64d82d0b63542afdd37bb4bf,,,,,,,decisionTrl,resources/DG.BMP,resources/DY.BMP,Door1,0.395509338,-0.072222252,1,0,0,2.5975,optionRight,30,2220,2,0,0,0,0,1,,,,,,,,,,,,,,,,,,,,,,,,,,,,,,,,,,,,,,,
,,,,,,,,2023-08-13_02h09.00.777,HF_wild_card,2022.2.4,Win32,59.86590038,602160dd499ff3105e0635ef,64ce5acb97489d65b14ecc7a,64d82d0b63542afdd37bb4bf,,,,,,,ctch,resources/DBN.BMP,resources/DY.BMP,Door4,-0.3544907,-0.039814835,1,0,0,1.1435,optionLeft,60,2280,2,1,0,1,0,1,,,,,,,,,,,,,,,,,,,,,,,,,,,,,,,,,,,,,,,
,,,,,,,,2023-08-13_02h09.00.777,HF_wild_card,2022.2.4,Win32,59.86590038,602160dd499ff3105e0635ef,64ce5acb97489d65b14ecc7a,64d82d0b63542afdd37bb4bf,,,,,,,sngl,resources/DG.BMP,resources/Empty.png,Door2,-0.387824059,-0.040740776,1,0,0,1.2268,optionLeft,20,2300,2,2,0,2,0,1,,,,,,,,,,,,,,,,,,,,,,,,,,,,,,,,,,,,,,,
,,,,,,,,2023-08-13_02h09.00.777,HF_wild_card,2022.2.4,Win32,59.86590038,602160dd499ff3105e0635ef,64ce5acb97489d65b14ecc7a,64d82d0b63542afdd37bb4bf,,,,,,,ctch,resources/DP.BMP,resources/DG.BMP,Door3,-0.318379593,-0.048148193,1,0,0,3.0416,optionLeft,70,2370,2,3,0,3,0,1,,,,,,,,,,,,,,,,,,,,,,,,,,,,,,,,,,,,,,,
,,,,,,,,2023-08-13_02h09.00.777,HF_wild_card,2022.2.4,Win32,59.86590038,602160dd499ff3105e0635ef,64ce5acb97489d65b14ecc7a,64d82d0b63542afdd37bb4bf,,,,,,,decisionTrl,resources/DB.BMP,resources/DG.BMP,WildCard_NonEx,-0.414675903,-0.040740776,1,0,0,1.4598,optionLeft,55,2425,2,4,0,4,0,1,,,,,,,,,,,,,,,,,,,,,,,,,,,,,,,,,,,,,,,
,,,,,,,,2023-08-13_02h09.00.777,HF_wild_card,2022.2.4,Win32,59.86590038,602160dd499ff3105e0635ef,64ce5acb97489d65b14ecc7a,64d82d0b63542afdd37bb4bf,,,,,,,decisionTrl,resources/DY.BMP,resources/DG.BMP,Door1,-0.348009224,-0.081481514,1,0,0,1.8264,optionLeft,30,2455,2,5,0,5,0,1,,,,,,,,,,,,,,,,,,,,,,,,,,,,,,,,,,,,,,,
,,,,,,,,2023-08-13_02h09.00.777,HF_wild_card,2022.2.4,Win32,59.86590038,602160dd499ff3105e0635ef,64ce5acb97489d65b14ecc7a,64d82d0b63542afdd37bb4bf,,,,,,,decisionTrl,resources/DY.BMP,resources/DG.BMP,Door1,-0.35078701,-0.027777748,1,0,0,1.4258,optionLeft,30,2485,2,6,0,6,0,1,,,,,,,,,,,,,,,,,,,,,,,,,,,,,,,,,,,,,,,
,,,,,,,,2023-08-13_02h09.00.777,HF_wild_card,2022.2.4,Win32,59.86590038,602160dd499ff3105e0635ef,64ce5acb97489d65b14ecc7a,64d82d0b63542afdd37bb4bf,,,,,,,decisionTrl,resources/DB.BMP,resources/DBN.BMP,Door4,0.390879669,-0.014814835,1,0,0,1.5589,optionRight,60,2545,2,7,0,7,0,1,,,,,,,,,,,,,,,,,,,,,,,,,,,,,,,,,,,,,,,
,,,,,,,,2023-08-13_02h09.00.777,HF_wild_card,2022.2.4,Win32,59.86590038,602160dd499ff3105e0635ef,64ce5acb97489d65b14ecc7a,64d82d0b63542afdd37bb4bf,,,,,,,decisionTrl,resources/DP.BMP,resources/DB.BMP,WildCard_NonEx,0.343657455,-0.020370407,1,0,0,4.9797,optionRight,55,2600,2,8,0,8,0,1,,,,,,,,,,,,,,,,,,,,,,,,,,,,,,,,,,,,,,,
,,,,,,,,2023-08-13_02h09.00.777,HF_wild_card,2022.2.4,Win32,59.86590038,602160dd499ff3105e0635ef,64ce5acb97489d65b14ecc7a,64d82d0b63542afdd37bb4bf,,,,,,,sngl,resources/Empty.png,resources/DY.BMP,Door1,0.372361145,-0.027777748,1,0,0,1.294,optionRight,30,2630,2,9,0,9,0,1,,,,,,,,,,,,,,,,,,,,,,,,,,,,,,,,,,,,,,,
,,,,,,,,2023-08-13_02h09.00.777,HF_wild_card,2022.2.4,Win32,59.86590038,602160dd499ff3105e0635ef,64ce5acb97489d65b14ecc7a,64d82d0b63542afdd37bb4bf,,,,,,,ctch,resources/DP.BMP,resources/DG.BMP,Door3,-0.358194427,-0.039814835,1,0,0,4.0731,optionLeft,70,2700,2,10,0,10,0,1,,,,,,,,,,,,,,,,,,,,,,,,,,,,,,,,,,,,,,,
,,,,,,,,2023-08-13_02h09.00.777,HF_wild_card,2022.2.4,Win32,59.86590038,602160dd499ff3105e0635ef,64ce5acb97489d65b14ecc7a,64d82d0b63542afdd37bb4bf,,,,,,,sngl,resources/Empty.png,resources/DB.BMP,WildCard_NonEx,0.431620483,-0.053703728,1,0,0,1.2423,optionRight,45,2745,2,11,0,11,0,1,,,,,,,,,,,,,,,,,,,,,,,,,,,,,,,,,,,,,,,
,,,,,,,,2023-08-13_02h09.00.777,HF_wild_card,2022.2.4,Win32,59.86590038,602160dd499ff3105e0635ef,64ce5acb97489d65b14ecc7a,64d82d0b63542afdd37bb4bf,,,,,,,decisionTrl,resources/DP.BMP,resources/DBN.BMP,Door4,0.364953766,-0.027777748,1,0,0,1.3261,optionRight,80,2825,2,12,0,12,0,1,,,,,,,,,,,,,,,,,,,,,,,,,,,,,,,,,,,,,,,
,,,,,,,,2023-08-13_02h09.00.777,HF_wild_card,2022.2.4,Win32,59.86590038,602160dd499ff3105e0635ef,64ce5acb97489d65b14ecc7a,64d82d0b63542afdd37bb4bf,,,,,,,decisionTrl,resources/DB.BMP,resources/DY.BMP,Door1,0.50569458,-0.044444466,1,0,0,1.8931,optionRight,30,2855,2,13,0,13,0,1,,,,,,,,,,,,,,,,,,,,,,,,,,,,,,,,,,,,,,,
,,,,,,,,2023-08-13_02h09.00.777,HF_wild_card,2022.2.4,Win32,59.86590038,602160dd499ff3105e0635ef,64ce5acb97489d65b14ecc7a,64d82d0b63542afdd37bb4bf,,,,,,,ctch,resources/DY.BMP,resources/DBN.BMP,Door4,0.426990814,-0.013888931,1,0,0,1.0975,optionRight,80,2935,2,14,0,14,0,1,,,,,,,,,,,,,,,,,,,,,,,,,,,,,,,,,,,,,,,
,,,,,,,,2023-08-13_02h09.00.777,HF_wild_card,2022.2.4,Win32,59.86590038,602160dd499ff3105e0635ef,64ce5acb97489d65b14ecc7a,64d82d0b63542afdd37bb4bf,,,,,,,decisionTrl,resources/DG.BMP,resources/DY.BMP,Door2,-0.362824059,-0.011111145,1,0,0,1.7761,optionLeft,20,2955,2,15,0,15,0,1,,,,,,,,,,,,,,,,,,,,,,,,,,,,,,,,,,,,,,,
,,,,,,,,2023-08-13_02h09.00.777,HF_wild_card,2022.2.4,Win32,59.86590038,602160dd499ff3105e0635ef,64ce5acb97489d65b14ecc7a,64d82d0b63542afdd37bb4bf,,,,,,,decisionTrl,resources/DG.BMP,resources/DY.BMP,Door1,0.400139008,-0.0592593,1,0,0,3.1096,optionRight,30,2985,2,16,0,16,0,1,,,,,,,,,,,,,,,,,,,,,,,,,,,,,,,,,,,,,,,
,,,,,,,,2023-08-13_02h09.00.777,HF_wild_card,2022.2.4,Win32,59.86590038,602160dd499ff3105e0635ef,64ce5acb97489d65b14ecc7a,64d82d0b63542afdd37bb4bf,,,,,,,decisionTrl,resources/DB.BMP,resources/DP.BMP,WildCard_NonEx,-0.344305534,-0.011111145,1,0,0,1.9102,optionLeft,55,3040,2,17,0,17,0,1,,,,,,,,,,,,,,,,,,,,,,,,,,,,,,,,,,,,,,,
,,,,,,,,2023-08-13_02h09.00.777,HF_wild_card,2022.2.4,Win32,59.86590038,602160dd499ff3105e0635ef,64ce5acb97489d65b14ecc7a,64d82d0b63542afdd37bb4bf,,,,,,,decisionTrl,resources/DY.BMP,resources/DB.BMP,Door1,-0.296157379,-0.041666679,1,0,0,1.8423,optionLeft,30,3070,2,18,0,18,0,1,,,,,,,,,,,,,,,,,,,,,,,,,,,,,,,,,,,,,,,
,,,,,,,,2023-08-13_02h09.00.777,HF_wild_card,2022.2.4,Win32,59.86590038,602160dd499ff3105e0635ef,64ce5acb97489d65b14ecc7a,64d82d0b63542afdd37bb4bf,,,,,,,sngl,resources/Empty.png,resources/DG.BMP,Door2,0.400139008,-0.052777748,1,0,0,0.9938,optionRight,40,3110,2,19,0,19,0,1,,,,,,,,,,,,,,,,,,,,,,,,,,,,,,,,,,,,,,,
,,,,,,,,2023-08-13_02h09.00.777,HF_wild_card,2022.2.4,Win32,59.86590038,602160dd499ff3105e0635ef,64ce5acb97489d65b14ecc7a,64d82d0b63542afdd37bb4bf,,,,,,,decisionTrl,resources/DG.BMP,resources/DY.BMP,Door1,0.401990814,-0.060185204,1,0,0,1.1774,optionRight,30,3140,2,20,0,20,0,1,,,,,,,,,,,,,,,,,,,,,,,,,,,,,,,,,,,,,,,
,,,,,,,,2023-08-13_02h09.00.777,HF_wild_card,2022.2.4,Win32,59.86590038,602160dd499ff3105e0635ef,64ce5acb97489d65b14ecc7a,64d82d0b63542afdd37bb4bf,,,,,,,decisionTrl,resources/DBN.BMP,resources/DP.BMP,Door4,-0.283194427,0.000925903,1,0,0,1.5796,optionLeft,80,3220,2,21,0,21,0,1,,,,,,,,,,,,,,,,,,,,,,,,,,,,,,,,,,,,,,,
,,,,,,,,2023-08-13_02h09.00.777,HF_wild_card,2022.2.4,Win32,59.86590038,602160dd499ff3105e0635ef,64ce5acb97489d65b14ecc7a,64d82d0b63542afdd37bb4bf,,,,,,,decisionTrl,resources/DP.BMP,resources/DBN.BMP,Door4,0.424212952,-0.042592621,1,0,0,0.9111,optionRight,80,3300,2,22,0,22,0,1,,,,,,,,,,,,,,,,,,,,,,,,,,,,,,,,,,,,,,,
,,,,,,,,2023-08-13_02h09.00.777,HF_wild_card,2022.2.4,Win32,59.86590038,602160dd499ff3105e0635ef,64ce5acb97489d65b14ecc7a,64d82d0b63542afdd37bb4bf,,,,,,,decisionTrl,resources/DP.BMP,resources/DBN.BMP,Door4,0.349213028,-0.032407417,1,0,0,1.1229,optionRight,60,3360,2,23,0,23,0,1,,,,,,,,,,,,,,,,,,,,,,,,,,,,,,,,,,,,,,,
,,,,,,,,2023-08-13_02h09.00.777,HF_wild_card,2022.2.4,Win32,59.86590038,602160dd499ff3105e0635ef,64ce5acb97489d65b14ecc7a,64d82d0b63542afdd37bb4bf,,,,,,,ctch,resources/DBN.BMP,resources/DY.BMP,Door4,-0.295231438,-0.032407417,1,0,0,1.1093,optionLeft,60,3420,2,24,0,24,0,1,,,,,,,,,,,,,,,,,,,,,,,,,,,,,,,,,,,,,,,
,,,,,,,,2023-08-13_02h09.00.777,HF_wild_card,2022.2.4,Win32,59.86590038,602160dd499ff3105e0635ef,64ce5acb97489d65b14ecc7a,64d82d0b63542afdd37bb4bf,,,,,,,decisionTrl,resources/DY.BMP,resources/DG.BMP,Door1,-0.416527748,-0.065740776,1,0,0,2.4081,optionLeft,30,3450,2,25,0,25,0,1,,,,,,,,,,,,,,,,,,,,,,,,,,,,,,,,,,,,,,,
,,,,,,,,2023-08-13_02h09.00.777,HF_wild_card,2022.2.4,Win32,59.86590038,602160dd499ff3105e0635ef,64ce5acb97489d65b14ecc7a,64d82d0b63542afdd37bb4bf,,,,,,,sngl,resources/Empty.png,resources/DBN.BMP,Door4,0.372361145,-0.073148193,1,0,0,0.893,optionRight,80,3530,2,26,0,26,0,1,,,,,,,,,,,,,,,,,,,,,,,,,,,,,,,,,,,,,,,
,,,,,,,,2023-08-13_02h09.00.777,HF_wild_card,2022.2.4,Win32,59.86590038,602160dd499ff3105e0635ef,64ce5acb97489d65b14ecc7a,64d82d0b63542afdd37bb4bf,,,,,,,sngl,resources/DY.BMP,resources/Empty.png,Door1,-0.340601807,-0.050925941,1,0,0,1.0765,optionLeft,30,3560,2,27,0,27,0,1,,,,,,,,,,,,,,,,,,,,,,,,,,,,,,,,,,,,,,,
,,,,,,,,2023-08-13_02h09.00.777,HF_wild_card,2022.2.4,Win32,59.86590038,602160dd499ff3105e0635ef,64ce5acb97489d65b14ecc7a,64d82d0b63542afdd37bb4bf,,,,,,,sngl,resources/Empty.png,resources/DP.BMP,Door3,0.38347229,-0.060185204,1,0,0,0.994,optionRight,70,3630,2,28,0,28,0,1,,,,,,,,,,,,,,,,,,,,,,,,,,,,,,,,,,,,,,,
,,,,,,,,2023-08-13_02h09.00.777,HF_wild_card,2022.2.4,Win32,59.86590038,602160dd499ff3105e0635ef,64ce5acb97489d65b14ecc7a,64d82d0b63542afdd37bb4bf,,,,,,,decisionTrl,resources/DBN.BMP,resources/DP.BMP,Door3,0.422360992,-0.081481514,1,0,0,2.2942,optionRight,70,3700,2,29,0,29,0,1,,,,,,,,,,,,,,,,,,,,,,,,,,,,,,,,,,,,,,,
,,,,,,,,2023-08-13_02h09.00.777,HF_wild_card,2022.2.4,Win32,59.86590038,602160dd499ff3105e0635ef,64ce5acb97489d65b14ecc7a,64d82d0b63542afdd37bb4bf,,,,,,,ctch,resources/DG.BMP,resources/DP.BMP,Door3,0.359398193,-0.06203701,1,0,0,1.3425,optionRight,70,3770,2,30,0,30,0,1,,,,,,,,,,,,,,,,,,,,,,,,,,,,,,,,,,,,,,,
,,,,,,,,2023-08-13_02h09.00.777,HF_wild_card,2022.2.4,Win32,59.86590038,602160dd499ff3105e0635ef,64ce5acb97489d65b14ecc7a,64d82d0b63542afdd37bb4bf,,,,,,,decisionTrl,resources/DBN.BMP,resources/DB.BMP,Door4,-0.270231438,-0.041666679,1,0,0,2.6887,optionLeft,80,3850,2,31,0,31,0,1,,,,,,,,,,,,,,,,,,,,,,,,,,,,,,,,,,,,,,,
,,,,,,,,2023-08-13_02h09.00.777,HF_wild_card,2022.2.4,Win32,59.86590038,602160dd499ff3105e0635ef,64ce5acb97489d65b14ecc7a,64d82d0b63542afdd37bb4bf,,,,,,,decisionTrl,resources/DBN.BMP,resources/DP.BMP,Door4,-0.305416641,-0.075000038,1,0,0,1.9273,optionLeft,60,3910,2,32,0,32,0,1,,,,,,,,,,,,,,,,,,,,,,,,,,,,,,,,,,,,,,,
,,,,,,,,2023-08-13_02h09.00.777,HF_wild_card,2022.2.4,Win32,59.86590038,602160dd499ff3105e0635ef,64ce5acb97489d65b14ecc7a,64d82d0b63542afdd37bb4bf,,,,,,,sngl,resources/DB.BMP,resources/Empty.png,WildCard_NonEx,-0.316527748,-0.101851883,1,0,0,1.4423,optionLeft,45,3955,2,33,0,33,0,1,,,,,,,,,,,,,,,,,,,,,,,,,,,,,,,,,,,,,,,
,,,,,,,,2023-08-13_02h09.00.777,HF_wild_card,2022.2.4,Win32,59.86590038,602160dd499ff3105e0635ef,64ce5acb97489d65b14ecc7a,64d82d0b63542afdd37bb4bf,,,,,,,sngl,resources/DBN.BMP,resources/Empty.png,Door4,0.018657532,-0.003703728,0,0,1,3.2595,optionLeft,60,4015,2,34,0,34,0,1,,,,,,,,,,,,,,,,,,,,,,,,,,,,,,,,,,,,,,,
,,,,,,,,2023-08-13_02h09.00.777,HF_wild_card,2022.2.4,Win32,59.86590038,602160dd499ff3105e0635ef,64ce5acb97489d65b14ecc7a,64d82d0b63542afdd37bb4bf,,,,,,,sngl,resources/DB.BMP,resources/Empty.png,WildCard_NonEx,-0.458194427,-0.091666641,1,0,0,2.4284,optionLeft,55,4070,2,35,0,35,0,1,,,,,,,,,,,,,,,,,,,,,,,,,,,,,,,,,,,,,,,
,,,,,,,,2023-08-13_02h09.00.777,HF_wild_card,2022.2.4,Win32,59.86590038,602160dd499ff3105e0635ef,64ce5acb97489d65b14ecc7a,64d82d0b63542afdd37bb4bf,,,,,,,decisionTrl,resources/DY.BMP,resources/DG.BMP,Door1,-0.333194427,-0.040740776,1,0,0,2.1279,optionLeft,30,4100,2,36,0,36,0,1,,,,,,,,,,,,,,,,,,,,,,,,,,,,,,,,,,,,,,,
,,,,,,,,2023-08-13_02h09.00.777,HF_wild_card,2022.2.4,Win32,59.86590038,602160dd499ff3105e0635ef,64ce5acb97489d65b14ecc7a,64d82d0b63542afdd37bb4bf,,,,,,,ctch,resources/DG.BMP,resources/DP.BMP,Door3,0.31217598,-0.050000038,1,0,0,1.3124,optionRight,70,4170,2,37,0,37,0,1,,,,,,,,,,,,,,,,,,,,,,,,,,,,,,,,,,,,,,,
,,,,,,,,2023-08-13_02h09.00.777,HF_wild_card,2022.2.4,Win32,59.86590038,602160dd499ff3105e0635ef,64ce5acb97489d65b14ecc7a,64d82d0b63542afdd37bb4bf,,,,,,,ctch,resources/DY.BMP,resources/DBN.BMP,Door4,0.447360992,-0.041666679,1,0,0,1.43,optionRight,80,4250,2,38,0,38,0,1,,,,,,,,,,,,,,,,,,,,,,,,,,,,,,,,,,,,,,,
,,,,,,,,2023-08-13_02h09.00.777,HF_wild_card,2022.2.4,Win32,59.86590038,602160dd499ff3105e0635ef,64ce5acb97489d65b14ecc7a,64d82d0b63542afdd37bb4bf,,,,,,,sngl,resources/DP.BMP,resources/Empty.png,Door3,-0.361898117,-0.031481514,1,0,0,1.1863,optionLeft,70,4320,2,39,0,39,0,1,,,,,,,,,,,,,,,,,,,,,,,,,,,,,,,,,,,,,,,
,,,,,,,,2023-08-13_02h09.00.777,HF_wild_card,2022.2.4,Win32,59.86590038,602160dd499ff3105e0635ef,64ce5acb97489d65b14ecc7a,64d82d0b63542afdd37bb4bf,,,,,,,decisionTrl,resources/DBN.BMP,resources/DP.BMP,Door4,-0.285972176,-0.037037048,1,0,0,1.8961,optionLeft,60,4380,2,40,0,40,0,1,,,,,,,,,,,,,,,,,,,,,,,,,,,,,,,,,,,,,,,
,,,,,,,,2023-08-13_02h09.00.777,HF_wild_card,2022.2.4,Win32,59.86590038,602160dd499ff3105e0635ef,64ce5acb97489d65b14ecc7a,64d82d0b63542afdd37bb4bf,,,,,,,decisionTrl,resources/DP.BMP,resources/DBN.BMP,Door4,0.403842468,-0.049074097,1,0,0,1.1949,optionRight,60,4440,2,41,0,41,0,1,,,,,,,,,,,,,,,,,,,,,,,,,,,,,,,,,,,,,,,
,,,,,,,,2023-08-13_02h09.00.777,HF_wild_card,2022.2.4,Win32,59.86590038,602160dd499ff3105e0635ef,64ce5acb97489d65b14ecc7a,64d82d0b63542afdd37bb4bf,,,,,,,sngl,resources/Empty.png,resources/DB.BMP,WildCard_NonEx,0.418657532,-0.056481514,1,0,0,0.8795,optionRight,55,4495,2,42,0,42,0,1,,,,,,,,,,,,,,,,,,,,,,,,,,,,,,,,,,,,,,,
,,,,,,,,2023-08-13_02h09.00.777,HF_wild_card,2022.2.4,Win32,59.86590038,602160dd499ff3105e0635ef,64ce5acb97489d65b14ecc7a,64d82d0b63542afdd37bb4bf,,,,,,,decisionTrl,resources/DG.BMP,resources/DB.BMP,WildCard_NonEx,0.339953766,-0.031481514,1,0,0,1.1625,optionRight,45,4540,2,43,0,43,0,1,,,,,,,,,,,,,,,,,,,,,,,,,,,,,,,,,,,,,,,
,,,,,,,,2023-08-13_02h09.00.777,HF_wild_card,2022.2.4,Win32,59.86590038,602160dd499ff3105e0635ef,64ce5acb97489d65b14ecc7a,64d82d0b63542afdd37bb4bf,,,,,,,,,,,,,,,,,,,,,,,,,,1,0,1,0,1,,,,,,,,,,,,,,,,,,,,,,,,,,,,,,,,,,
,,,,,,,,2023-08-13_02h09.00.777,HF_wild_card,2022.2.4,Win32,59.86590038,602160dd499ff3105e0635ef,64ce5acb97489d65b14ecc7a,64d82d0b63542afdd37bb4bf,,,,,,,ctch,resources/DBN.BMP,resources/DY.BMP,Door4,-0.313749962,-0.076851883,1,0,0,1.5522,optionLeft,80,4620,3,0,0,0,0,1,,,,,,,,,,,,,,,,,,,,,,,,,,,,,,,,,,,,,,,
,,,,,,,,2023-08-13_02h09.00.777,HF_wild_card,2022.2.4,Win32,59.86590038,602160dd499ff3105e0635ef,64ce5acb97489d65b14ecc7a,64d82d0b63542afdd37bb4bf,,,,,,,decisionTrl,resources/DY.BMP,resources/DG.BMP,Door1,-0.267453728,-0.061111145,1,0,0,1.8284,optionLeft,30,4650,3,1,0,1,0,1,,,,,,,,,,,,,,,,,,,,,,,,,,,,,,,,,,,,,,,
,,,,,,,,2023-08-13_02h09.00.777,HF_wild_card,2022.2.4,Win32,59.86590038,602160dd499ff3105e0635ef,64ce5acb97489d65b14ecc7a,64d82d0b63542afdd37bb4bf,,,,,,,sngl,resources/Empty.png,resources/DY.BMP,Door1,0.348287125,-0.04629631,1,0,0,0.9457,optionRight,30,4680,3,2,0,2,0,1,,,,,,,,,,,,,,,,,,,,,,,,,,,,,,,,,,,,,,,
,,,,,,,,2023-08-13_02h09.00.777,HF_wild_card,2022.2.4,Win32,59.86590038,602160dd499ff3105e0635ef,64ce5acb97489d65b14ecc7a,64d82d0b63542afdd37bb4bf,,,,,,,sngl,resources/Empty.png,resources/DB.BMP,WildCard_NonEx,0.452916718,-0.094444466,1,0,0,0.83,optionRight,55,4735,3,3,0,3,0,1,,,,,,,,,,,,,,,,,,,,,,,,,,,,,,,,,,,,,,,
,,,,,,,,2023-08-13_02h09.00.777,HF_wild_card,2022.2.4,Win32,59.86590038,602160dd499ff3105e0635ef,64ce5acb97489d65b14ecc7a,64d82d0b63542afdd37bb4bf,,,,,,,decisionTrl,resources/DB.BMP,resources/DBN.BMP,Door4,0.48625,-0.067592621,1,0,0,1.1288,optionRight,80,4815,3,4,0,4,0,1,,,,,,,,,,,,,,,,,,,,,,,,,,,,,,,,,,,,,,,
,,,,,,,,2023-08-13_02h09.00.777,HF_wild_card,2022.2.4,Win32,59.86590038,602160dd499ff3105e0635ef,64ce5acb97489d65b14ecc7a,64d82d0b63542afdd37bb4bf,,,,,,,decisionTrl,resources/DBN.BMP,resources/DP.BMP,Door4,-0.239675903,-0.044444466,1,0,0,0.9628,optionLeft,80,4895,3,5,0,5,0,1,,,,,,,,,,,,,,,,,,,,,,,,,,,,,,,,,,,,,,,
,,,,,,,,2023-08-13_02h09.00.777,HF_wild_card,2022.2.4,Win32,59.86590038,602160dd499ff3105e0635ef,64ce5acb97489d65b14ecc7a,64d82d0b63542afdd37bb4bf,,,,,,,ctch,resources/DY.BMP,resources/DBN.BMP,Door4,0.336250076,-0.054629669,1,0,0,0.9628,optionRight,60,4955,3,6,0,6,0,1,,,,,,,,,,,,,,,,,,,,,,,,,,,,,,,,,,,,,,,
,,,,,,,,2023-08-13_02h09.00.777,HF_wild_card,2022.2.4,Win32,59.86590038,602160dd499ff3105e0635ef,64ce5acb97489d65b14ecc7a,64d82d0b63542afdd37bb4bf,,,,,,,decisionTrl,resources/DG.BMP,resources/DY.BMP,Door2,-0.25078701,-0.036111145,1,0,0,2.0116,optionLeft,40,4995,3,7,0,7,0,1,,,,,,,,,,,,,,,,,,,,,,,,,,,,,,,,,,,,,,,
,,,,,,,,2023-08-13_02h09.00.777,HF_wild_card,2022.2.4,Win32,59.86590038,602160dd499ff3105e0635ef,64ce5acb97489d65b14ecc7a,64d82d0b63542afdd37bb4bf,,,,,,,ctch,resources/DP.BMP,resources/DG.BMP,Door3,-0.283194427,-0.040740776,1,0,0,1.5129,optionLeft,70,5065,3,8,0,8,0,1,,,,,,,,,,,,,,,,,,,,,,,,,,,,,,,,,,,,,,,
,,,,,,,,2023-08-13_02h09.00.777,HF_wild_card,2022.2.4,Win32,59.86590038,602160dd499ff3105e0635ef,64ce5acb97489d65b14ecc7a,64d82d0b63542afdd37bb4bf,,,,,,,decisionTrl,resources/DB.BMP,resources/DY.BMP,WildCard_NonEx,-0.267453728,-0.030555573,1,0,0,2.1453,optionLeft,45,5110,3,9,0,9,0,1,,,,,,,,,,,,,,,,,,,,,,,,,,,,,,,,,,,,,,,
,,,,,,,,2023-08-13_02h09.00.777,HF_wild_card,2022.2.4,Win32,59.86590038,602160dd499ff3105e0635ef,64ce5acb97489d65b14ecc7a,64d82d0b63542afdd37bb4bf,,,,,,,decisionTrl,resources/DP.BMP,resources/DBN.BMP,Door4,0.352916718,-0.025000038,1,0,0,1.8115,optionRight,60,5170,3,10,0,10,0,1,,,,,,,,,,,,,,,,,,,,,,,,,,,,,,,,,,,,,,,
,,,,,,,,2023-08-13_02h09.00.777,HF_wild_card,2022.2.4,Win32,59.86590038,602160dd499ff3105e0635ef,64ce5acb97489d65b14ecc7a,64d82d0b63542afdd37bb4bf,,,,,,,decisionTrl,resources/DY.BMP,resources/DG.BMP,Door1,-0.161898041,-0.045370407,1,0,0,1.2463,optionLeft,30,5200,3,11,0,11,0,1,,,,,,,,,,,,,,,,,,,,,,,,,,,,,,,,,,,,,,,
,,,,,,,,2023-08-13_02h09.00.777,HF_wild_card,2022.2.4,Win32,59.86590038,602160dd499ff3105e0635ef,64ce5acb97489d65b14ecc7a,64d82d0b63542afdd37bb4bf,,,,,,,sngl,resources/Empty.png,resources/DB.BMP,WildCard_NonEx,0.420509338,-0.048148193,1,0,0,0.846,optionRight,45,5245,3,12,0,12,0,1,,,,,,,,,,,,,,,,,,,,,,,,,,,,,,,,,,,,,,,
,,,,,,,,2023-08-13_02h09.00.777,HF_wild_card,2022.2.4,Win32,59.86590038,602160dd499ff3105e0635ef,64ce5acb97489d65b14ecc7a,64d82d0b63542afdd37bb4bf,,,,,,,decisionTrl,resources/DY.BMP,resources/DB.BMP,WildCard_NonEx,0.319583282,-0.066666679,1,0,0,1.1297,optionRight,45,5290,3,13,0,13,0,1,,,,,,,,,,,,,,,,,,,,,,,,,,,,,,,,,,,,,,,
,,,,,,,,2023-08-13_02h09.00.777,HF_wild_card,2022.2.4,Win32,59.86590038,602160dd499ff3105e0635ef,64ce5acb97489d65b14ecc7a,64d82d0b63542afdd37bb4bf,,,,,,,ctch,resources/DP.BMP,resources/DG.BMP,Door2,0.306620407,-0.054629669,1,0,0,1.7963,optionRight,20,5310,3,14,0,14,0,1,,,,,,,,,,,,,,,,,,,,,,,,,,,,,,,,,,,,,,,
,,,,,,,,2023-08-13_02h09.00.777,HF_wild_card,2022.2.4,Win32,59.86590038,602160dd499ff3105e0635ef,64ce5acb97489d65b14ecc7a,64d82d0b63542afdd37bb4bf,,,,,,,decisionTrl,resources/DY.BMP,resources/DG.BMP,Door1,-0.262824097,-0.024074097,1,0,0,1.0952,optionLeft,30,5340,3,15,0,15,0,1,,,,,,,,,,,,,,,,,,,,,,,,,,,,,,,,,,,,,,,
,,,,,,,,2023-08-13_02h09.00.777,HF_wild_card,2022.2.4,Win32,59.86590038,602160dd499ff3105e0635ef,64ce5acb97489d65b14ecc7a,64d82d0b63542afdd37bb4bf,,,,,,,sngl,resources/DB.BMP,resources/Empty.png,WildCard_NonEx,-0.23875,-0.044444466,1,0,0,0.9445,optionLeft,45,5385,3,16,0,16,0,1,,,,,,,,,,,,,,,,,,,,,,,,,,,,,,,,,,,,,,,
,,,,,,,,2023-08-13_02h09.00.777,HF_wild_card,2022.2.4,Win32,59.86590038,602160dd499ff3105e0635ef,64ce5acb97489d65b14ecc7a,64d82d0b63542afdd37bb4bf,,,,,,,sngl,resources/Empty.png,resources/DBN.BMP,Door4,0.510324097,-0.050925941,1,0,0,0.8974,optionRight,60,5445,3,17,0,17,0,1,,,,,,,,,,,,,,,,,,,,,,,,,,,,,,,,,,,,,,,
,,,,,,,,2023-08-13_02h09.00.777,HF_wild_card,2022.2.4,Win32,59.86590038,602160dd499ff3105e0635ef,64ce5acb97489d65b14ecc7a,64d82d0b63542afdd37bb4bf,,,,,,,decisionTrl,resources/DP.BMP,resources/DBN.BMP,Door4,0.365879669,-0.032407417,1,0,0,1.2794,optionRight,60,5505,3,18,0,18,0,1,,,,,,,,,,,,,,,,,,,,,,,,,,,,,,,,,,,,,,,
,,,,,,,,2023-08-13_02h09.00.777,HF_wild_card,2022.2.4,Win32,59.86590038,602160dd499ff3105e0635ef,64ce5acb97489d65b14ecc7a,64d82d0b63542afdd37bb4bf,,,,,,,decisionTrl,resources/DP.BMP,resources/DB.BMP,Door3,-0.261898117,-0.036111145,1,0,0,2.5277,optionLeft,70,5575,3,19,0,19,0,1,,,,,,,,,,,,,,,,,,,,,,,,,,,,,,,,,,,,,,,
,,,,,,,,2023-08-13_02h09.00.777,HF_wild_card,2022.2.4,Win32,59.86590038,602160dd499ff3105e0635ef,64ce5acb97489d65b14ecc7a,64d82d0b63542afdd37bb4bf,,,,,,,decisionTrl,resources/DBN.BMP,resources/DP.BMP,Door4,-0.290601807,-0.047222252,1,0,0,1.5788,optionLeft,80,5655,3,20,0,20,0,1,,,,,,,,,,,,,,,,,,,,,,,,,,,,,,,,,,,,,,,
,,,,,,,,2023-08-13_02h09.00.777,HF_wild_card,2022.2.4,Win32,59.86590038,602160dd499ff3105e0635ef,64ce5acb97489d65b14ecc7a,64d82d0b63542afdd37bb4bf,,,,,,,ctch,resources/DBN.BMP,resources/DY.BMP,Door4,-0.2794907,-0.052777748,1,0,0,1.3457,optionLeft,80,5735,3,21,0,21,0,1,,,,,,,,,,,,,,,,,,,,,,,,,,,,,,,,,,,,,,,
,,,,,,,,2023-08-13_02h09.00.777,HF_wild_card,2022.2.4,Win32,59.86590038,602160dd499ff3105e0635ef,64ce5acb97489d65b14ecc7a,64d82d0b63542afdd37bb4bf,,,,,,,decisionTrl,resources/DP.BMP,resources/DBN.BMP,Door4,0.350138931,-0.047222252,1,0,0,1.2287,optionRight,60,5795,3,22,0,22,0,1,,,,,,,,,,,,,,,,,,,,,,,,,,,,,,,,,,,,,,,
,,,,,,,,2023-08-13_02h09.00.777,HF_wild_card,2022.2.4,Win32,59.86590038,602160dd499ff3105e0635ef,64ce5acb97489d65b14ecc7a,64d82d0b63542afdd37bb4bf,,,,,,,ctch,resources/DG.BMP,resources/DP.BMP,Door3,0.325138931,-0.044444466,1,0,0,1.8777,optionRight,70,5865,3,23,0,23,0,1,,,,,,,,,,,,,,,,,,,,,,,,,,,,,,,,,,,,,,,
,,,,,,,,2023-08-13_02h09.00.777,HF_wild_card,2022.2.4,Win32,59.86590038,602160dd499ff3105e0635ef,64ce5acb97489d65b14ecc7a,64d82d0b63542afdd37bb4bf,,,,,,,sngl,resources/DB.BMP,resources/Empty.png,WildCard_NonEx,-0.259120331,-0.026851883,1,0,0,0.929,optionLeft,55,5920,3,24,0,24,0,1,,,,,,,,,,,,,,,,,,,,,,,,,,,,,,,,,,,,,,,
,,,,,,,,2023-08-13_02h09.00.777,HF_wild_card,2022.2.4,Win32,59.86590038,602160dd499ff3105e0635ef,64ce5acb97489d65b14ecc7a,64d82d0b63542afdd37bb4bf,,,,,,,ctch,resources/DY.BMP,resources/DBN.BMP,Door4,0.419583435,-0.053703728,1,0,0,1.3293,optionRight,60,5980,3,25,0,25,0,1,,,,,,,,,,,,,,,,,,,,,,,,,,,,,,,,,,,,,,,
,,,,,,,,2023-08-13_02h09.00.777,HF_wild_card,2022.2.4,Win32,59.86590038,602160dd499ff3105e0635ef,64ce5acb97489d65b14ecc7a,64d82d0b63542afdd37bb4bf,,,,,,,sngl,resources/Empty.png,resources/DG.BMP,Door2,0.43347229,-0.047222252,1,0,0,1.0634,optionRight,20,6000,3,26,0,26,0,1,,,,,,,,,,,,,,,,,,,,,,,,,,,,,,,,,,,,,,,
,,,,,,,,2023-08-13_02h09.00.777,HF_wild_card,2022.2.4,Win32,59.86590038,602160dd499ff3105e0635ef,64ce5acb97489d65b14ecc7a,64d82d0b63542afdd37bb4bf,,,,,,,sngl,resources/Empty.png,resources/DP.BMP,Door3,0.437176056,-0.050925941,1,0,0,1.08,optionRight,70,6070,3,27,0,27,0,1,,,,,,,,,,,,,,,,,,,,,,,,,,,,,,,,,,,,,,,
,,,,,,,,2023-08-13_02h09.00.777,HF_wild_card,2022.2.4,Win32,59.86590038,602160dd499ff3105e0635ef,64ce5acb97489d65b14ecc7a,64d82d0b63542afdd37bb4bf,,,,,,,decisionTrl,resources/DB.BMP,resources/DP.BMP,Door3,0.419583435,-0.051851883,1,0,0,1.7125,optionRight,70,6140,3,28,0,28,0,1,,,,,,,,,,,,,,,,,,,,,,,,,,,,,,,,,,,,,,,
,,,,,,,,2023-08-13_02h09.00.777,HF_wild_card,2022.2.4,Win32,59.86590038,602160dd499ff3105e0635ef,64ce5acb97489d65b14ecc7a,64d82d0b63542afdd37bb4bf,,,,,,,decisionTrl,resources/DP.BMP,resources/DBN.BMP,Door4,0.401990814,-0.06203701,1,0,0,1.7624,optionRight,80,6220,3,29,0,29,0,1,,,,,,,,,,,,,,,,,,,,,,,,,,,,,,,,,,,,,,,
,,,,,,,,2023-08-13_02h09.00.777,HF_wild_card,2022.2.4,Win32,59.86590038,602160dd499ff3105e0635ef,64ce5acb97489d65b14ecc7a,64d82d0b63542afdd37bb4bf,,,,,,,sngl,resources/DG.BMP,resources/Empty.png,Door2,-0.176712952,-0.017592621,1,0,0,1.2296,optionLeft,40,6260,3,30,0,30,0,1,,,,,,,,,,,,,,,,,,,,,,,,,,,,,,,,,,,,,,,
,,,,,,,,2023-08-13_02h09.00.777,HF_wild_card,2022.2.4,Win32,59.86590038,602160dd499ff3105e0635ef,64ce5acb97489d65b14ecc7a,64d82d0b63542afdd37bb4bf,,,,,,,sngl,resources/DBN.BMP,resources/Empty.png,Door4,-0.256342545,-0.007407417,1,0,0,1.1628,optionLeft,80,6340,3,31,0,31,0,1,,,,,,,,,,,,,,,,,,,,,,,,,,,,,,,,,,,,,,,
,,,,,,,,2023-08-13_02h09.00.777,HF_wild_card,2022.2.4,Win32,59.86590038,602160dd499ff3105e0635ef,64ce5acb97489d65b14ecc7a,64d82d0b63542afdd37bb4bf,,,,,,,decisionTrl,resources/DG.BMP,resources/DY.BMP,Door2,-0.295231438,-0.035185204,1,0,0,1.6113,optionLeft,20,6360,3,32,0,32,0,1,,,,,,,,,,,,,,,,,,,,,,,,,,,,,,,,,,,,,,,
,,,,,,,,2023-08-13_02h09.00.777,HF_wild_card,2022.2.4,Win32,59.86590038,602160dd499ff3105e0635ef,64ce5acb97489d65b14ecc7a,64d82d0b63542afdd37bb4bf,,,,,,,decisionTrl,resources/DBN.BMP,resources/DB.BMP,Door4,-0.252638855,-0.036111145,1,0,0,1.2786,optionLeft,80,6440,3,33,0,33,0,1,,,,,,,,,,,,,,,,,,,,,,,,,,,,,,,,,,,,,,,
,,,,,,,,2023-08-13_02h09.00.777,HF_wild_card,2022.2.4,Win32,59.86590038,602160dd499ff3105e0635ef,64ce5acb97489d65b14ecc7a,64d82d0b63542afdd37bb4bf,,,,,,,decisionTrl,resources/DG.BMP,resources/DY.BMP,Door2,-0.25171299,-0.049074097,1,0,0,1.5784,optionLeft,40,6480,3,34,0,34,0,1,,,,,,,,,,,,,,,,,,,,,,,,,,,,,,,,,,,,,,,
,,,,,,,,2023-08-13_02h09.00.777,HF_wild_card,2022.2.4,Win32,59.86590038,602160dd499ff3105e0635ef,64ce5acb97489d65b14ecc7a,64d82d0b63542afdd37bb4bf,,,,,,,decisionTrl,resources/DBN.BMP,resources/DP.BMP,Door4,-0.359120331,-0.057407379,1,0,0,1.2955,optionLeft,60,6540,3,35,0,35,0,1,,,,,,,,,,,,,,,,,,,,,,,,,,,,,,,,,,,,,,,
,,,,,,,,2023-08-13_02h09.00.777,HF_wild_card,2022.2.4,Win32,59.86590038,602160dd499ff3105e0635ef,64ce5acb97489d65b14ecc7a,64d82d0b63542afdd37bb4bf,,,,,,,decisionTrl,resources/DG.BMP,resources/DY.BMP,Door2,-0.159120255,-0.07129631,1,0,0,1.5208,optionLeft,40,6580,3,36,0,36,0,1,,,,,,,,,,,,,,,,,,,,,,,,,,,,,,,,,,,,,,,
,,,,,,,,2023-08-13_02h09.00.777,HF_wild_card,2022.2.4,Win32,59.86590038,602160dd499ff3105e0635ef,64ce5acb97489d65b14ecc7a,64d82d0b63542afdd37bb4bf,,,,,,,decisionTrl,resources/DY.BMP,resources/DG.BMP,Door2,0.435324097,-0.038888931,1,0,0,1.7116,optionRight,40,6620,3,37,0,37,0,1,,,,,,,,,,,,,,,,,,,,,,,,,,,,,,,,,,,,,,,
,,,,,,,,2023-08-13_02h09.00.777,HF_wild_card,2022.2.4,Win32,59.86590038,602160dd499ff3105e0635ef,64ce5acb97489d65b14ecc7a,64d82d0b63542afdd37bb4bf,,,,,,,decisionTrl,resources/DG.BMP,resources/DB.BMP,WildCard_NonEx,0.339953766,-0.065740776,1,0,0,1.2964,optionRight,55,6675,3,38,0,38,0,1,,,,,,,,,,,,,,,,,,,,,,,,,,,,,,,,,,,,,,,
,,,,,,,,2023-08-13_02h09.00.777,HF_wild_card,2022.2.4,Win32,59.86590038,602160dd499ff3105e0635ef,64ce5acb97489d65b14ecc7a,64d82d0b63542afdd37bb4bf,,,,,,,ctch,resources/DG.BMP,resources/DP.BMP,Door3,0.380694504,-0.039814835,1,0,0,1.1629,optionRight,70,6745,3,39,0,39,0,1,,,,,,,,,,,,,,,,,,,,,,,,,,,,,,,,,,,,,,,
,,,,,,,,2023-08-13_02h09.00.777,HF_wild_card,2022.2.4,Win32,59.86590038,602160dd499ff3105e0635ef,64ce5acb97489d65b14ecc7a,64d82d0b63542afdd37bb4bf,,,,,,,sngl,resources/DY.BMP,resources/Empty.png,Door1,-0.422083321,-0.06296299,1,0,0,0.9297,optionLeft,30,6775,3,40,0,40,0,1,,,,,,,,,,,,,,,,,,,,,,,,,,,,,,,,,,,,,,,
,,,,,,,,2023-08-13_02h09.00.777,HF_wild_card,2022.2.4,Win32,59.86590038,602160dd499ff3105e0635ef,64ce5acb97489d65b14ecc7a,64d82d0b63542afdd37bb4bf,,,,,,,sngl,resources/DP.BMP,resources/Empty.png,Door3,-0.463749962,-0.077777748,1,0,0,0.7468,optionLeft,70,6845,3,41,0,41,0,1,,,,,,,,,,,,,,,,,,,,,,,,,,,,,,,,,,,,,,,
,,,,,,,,2023-08-13_02h09.00.777,HF_wild_card,2022.2.4,Win32,59.86590038,602160dd499ff3105e0635ef,64ce5acb97489d65b14ecc7a,64d82d0b63542afdd37bb4bf,,,,,,,decisionTrl,resources/DB.BMP,resources/DG.BMP,WildCard_NonEx,-0.484120369,-0.080555573,1,0,0,1.7128,optionLeft,45,6890,3,42,0,42,0,1,,,,,,,,,,,,,,,,,,,,,,,,,,,,,,,,,,,,,,,
,,,,,,,,2023-08-13_02h09.00.777,HF_wild_card,2022.2.4,Win32,59.86590038,602160dd499ff3105e0635ef,64ce5acb97489d65b14ecc7a,64d82d0b63542afdd37bb4bf,,,,,,,decisionTrl,resources/DBN.BMP,resources/DP.BMP,Door4,-0.336898117,-0.035185204,1,0,0,0.9115,optionLeft,60,6950,3,43,0,43,0,1,,,,,,,,,,,,,,,,,,,,,,,,,,,,,,,,,,,,,,,
,,,,,,,,2023-08-13_02h09.00.777,HF_wild_card,2022.2.4,Win32,59.86590038,602160dd499ff3105e0635ef,64ce5acb97489d65b14ecc7a,64d82d0b63542afdd37bb4bf,,,,,,,,,,,,,,,,,,,,,,,,,,2,0,2,0,1,,,,,,,,,,,,,,,,,,,,,,,,,,,,,,,,,,
,,,,,,,,2023-08-13_02h09.00.777,HF_wild_card,2022.2.4,Win32,59.86590038,602160dd499ff3105e0635ef,64ce5acb97489d65b14ecc7a,64d82d0b63542afdd37bb4bf,,,,,,,decisionTrl,resources/DY.BMP,resources/DG.BMP,Door2,0.389027863,-0.132407455,1,0,0,1.8027,optionRight,20,6970,4,0,0,0,0,1,,,,,,,,,,,,,,,,,,,,,,,,,,,,,,,,,,,,,,,
,,,,,,,,2023-08-13_02h09.00.777,HF_wild_card,2022.2.4,Win32,59.86590038,602160dd499ff3105e0635ef,64ce5acb97489d65b14ecc7a,64d82d0b63542afdd37bb4bf,,,,,,,sngl,resources/Empty.png,resources/DR.BMP,WildCard_Ex,0.525139008,-0.188888931,1,0,0,0.8794,optionRight,95,7065,4,1,0,1,0,1,,,,,,,,,,,,,,,,,,,,,,,,,,,,,,,,,,,,,,,
,,,,,,,,2023-08-13_02h09.00.777,HF_wild_card,2022.2.4,Win32,59.86590038,602160dd499ff3105e0635ef,64ce5acb97489d65b14ecc7a,64d82d0b63542afdd37bb4bf,,,,,,,ctch,resources/DY.BMP,resources/DBN.BMP,Door4,0.474212952,-0.11296299,1,0,0,1.046,optionRight,60,7125,4,2,0,2,0,1,,,,,,,,,,,,,,,,,,,,,,,,,,,,,,,,,,,,,,,
,,,,,,,,2023-08-13_02h09.00.777,HF_wild_card,2022.2.4,Win32,59.86590038,602160dd499ff3105e0635ef,64ce5acb97489d65b14ecc7a,64d82d0b63542afdd37bb4bf,,,,,,,ctch,resources/DG.BMP,resources/DP.BMP,Door3,0.418657532,-0.116666641,1,0,0,1.5622,optionRight,70,7195,4,3,0,3,0,1,,,,,,,,,,,,,,,,,,,,,,,,,,,,,,,,,,,,,,,
,,,,,,,,2023-08-13_02h09.00.777,HF_wild_card,2022.2.4,Win32,59.86590038,602160dd499ff3105e0635ef,64ce5acb97489d65b14ecc7a,64d82d0b63542afdd37bb4bf,,,,,,,ctch,resources/DP.BMP,resources/DG.BMP,Door3,-0.309120331,-0.057407379,1,0,0,1.1795,optionLeft,70,7265,4,4,0,4,0,1,,,,,,,,,,,,,,,,,,,,,,,,,,,,,,,,,,,,,,,
,,,,,,,,2023-08-13_02h09.00.777,HF_wild_card,2022.2.4,Win32,59.86590038,602160dd499ff3105e0635ef,64ce5acb97489d65b14ecc7a,64d82d0b63542afdd37bb4bf,,,,,,,decisionTrl,resources/DR.BMP,resources/DY.BMP,WildCard_Ex,-0.434120331,-0.086111145,1,0,0,1.5623,optionLeft,95,7360,4,5,0,5,0,1,,,,,,,,,,,,,,,,,,,,,,,,,,,,,,,,,,,,,,,
,,,,,,,,2023-08-13_02h09.00.777,HF_wild_card,2022.2.4,Win32,59.86590038,602160dd499ff3105e0635ef,64ce5acb97489d65b14ecc7a,64d82d0b63542afdd37bb4bf,,,,,,,decisionTrl,resources/DG.BMP,resources/DY.BMP,Door2,-0.284120331,-0.079629669,1,0,0,2.3286,optionLeft,20,7380,4,6,0,6,0,1,,,,,,,,,,,,,,,,,,,,,,,,,,,,,,,,,,,,,,,
,,,,,,,,2023-08-13_02h09.00.777,HF_wild_card,2022.2.4,Win32,59.86590038,602160dd499ff3105e0635ef,64ce5acb97489d65b14ecc7a,64d82d0b63542afdd37bb4bf,,,,,,,decisionTrl,resources/DG.BMP,resources/DR.BMP,WildCard_Ex,0.357546387,-0.052777748,1,0,0,1.4959,optionRight,95,7475,4,7,0,7,0,1,,,,,,,,,,,,,,,,,,,,,,,,,,,,,,,,,,,,,,,
,,,,,,,,2023-08-13_02h09.00.777,HF_wild_card,2022.2.4,Win32,59.86590038,602160dd499ff3105e0635ef,64ce5acb97489d65b14ecc7a,64d82d0b63542afdd37bb4bf,,,,,,,decisionTrl,resources/DP.BMP,resources/DBN.BMP,Door4,0.40569458,-0.080555573,1,0,0,1.1119,optionRight,60,7535,4,8,0,8,0,1,,,,,,,,,,,,,,,,,,,,,,,,,,,,,,,,,,,,,,,
,,,,,,,,2023-08-13_02h09.00.777,HF_wild_card,2022.2.4,Win32,59.86590038,602160dd499ff3105e0635ef,64ce5acb97489d65b14ecc7a,64d82d0b63542afdd37bb4bf,,,,,,,ctch,resources/DP.BMP,resources/DG.BMP,Door3,-0.247083282,-0.033333359,1,0,0,1.7119,optionLeft,70,7605,4,9,0,9,0,1,,,,,,,,,,,,,,,,,,,,,,,,,,,,,,,,,,,,,,,
,,,,,,,,2023-08-13_02h09.00.777,HF_wild_card,2022.2.4,Win32,59.86590038,602160dd499ff3105e0635ef,64ce5acb97489d65b14ecc7a,64d82d0b63542afdd37bb4bf,,,,,,,decisionTrl,resources/DP.BMP,resources/DBN.BMP,Door4,0.427916718,-0.075925941,1,0,0,1.1789,optionRight,60,7665,4,10,0,10,0,1,,,,,,,,,,,,,,,,,,,,,,,,,,,,,,,,,,,,,,,
,,,,,,,,2023-08-13_02h09.00.777,HF_wild_card,2022.2.4,Win32,59.86590038,602160dd499ff3105e0635ef,64ce5acb97489d65b14ecc7a,64d82d0b63542afdd37bb4bf,,,,,,,sngl,resources/Empty.png,resources/DG.BMP,Door2,0.466805573,-0.061111145,1,0,0,1.296,optionRight,40,7705,4,11,0,11,0,1,,,,,,,,,,,,,,,,,,,,,,,,,,,,,,,,,,,,,,,
,,,,,,,,2023-08-13_02h09.00.777,HF_wild_card,2022.2.4,Win32,59.86590038,602160dd499ff3105e0635ef,64ce5acb97489d65b14ecc7a,64d82d0b63542afdd37bb4bf,,,,,,,sngl,resources/Empty.png,resources/DBN.BMP,Door4,0.50847229,-0.0592593,1,0,0,0.8133,optionRight,80,7785,4,12,0,12,0,1,,,,,,,,,,,,,,,,,,,,,,,,,,,,,,,,,,,,,,,
,,,,,,,,2023-08-13_02h09.00.777,HF_wild_card,2022.2.4,Win32,59.86590038,602160dd499ff3105e0635ef,64ce5acb97489d65b14ecc7a,64d82d0b63542afdd37bb4bf,,,,,,,sngl,resources/DR.BMP,resources/Empty.png,WildCard_Ex,-0.331342621,-0.026851883,1,0,0,1.795,optionLeft,95,7880,4,13,0,13,0,1,,,,,,,,,,,,,,,,,,,,,,,,,,,,,,,,,,,,,,,
,,,,,,,,2023-08-13_02h09.00.777,HF_wild_card,2022.2.4,Win32,59.86590038,602160dd499ff3105e0635ef,64ce5acb97489d65b14ecc7a,64d82d0b63542afdd37bb4bf,,,,,,,sngl,resources/DY.BMP,resources/Empty.png,Door1,-0.337824059,-0.011111145,1,0,0,1.3461,optionLeft,30,7910,4,14,0,14,0,1,,,,,,,,,,,,,,,,,,,,,,,,,,,,,,,,,,,,,,,
,,,,,,,,2023-08-13_02h09.00.777,HF_wild_card,2022.2.4,Win32,59.86590038,602160dd499ff3105e0635ef,64ce5acb97489d65b14ecc7a,64d82d0b63542afdd37bb4bf,,,,,,,decisionTrl,resources/DY.BMP,resources/DG.BMP,Door2,0.330694504,-0.050925941,1,0,0,1.3961,optionRight,20,7930,4,15,0,15,0,1,,,,,,,,,,,,,,,,,,,,,,,,,,,,,,,,,,,,,,,
,,,,,,,,2023-08-13_02h09.00.777,HF_wild_card,2022.2.4,Win32,59.86590038,602160dd499ff3105e0635ef,64ce5acb97489d65b14ecc7a,64d82d0b63542afdd37bb4bf,,,,,,,sngl,resources/DG.BMP,resources/Empty.png,Door2,-0.252638855,-0.014814835,1,0,0,0.9126,optionLeft,20,7950,4,16,0,16,0,1,,,,,,,,,,,,,,,,,,,,,,,,,,,,,,,,,,,,,,,
,,,,,,,,2023-08-13_02h09.00.777,HF_wild_card,2022.2.4,Win32,59.86590038,602160dd499ff3105e0635ef,64ce5acb97489d65b14ecc7a,64d82d0b63542afdd37bb4bf,,,,,,,sngl,resources/DBN.BMP,resources/Empty.png,Door4,-0.273009224,-0.041666679,1,0,0,1.0296,optionLeft,60,8010,4,17,0,17,0,1,,,,,,,,,,,,,,,,,,,,,,,,,,,,,,,,,,,,,,,
,,,,,,,,2023-08-13_02h09.00.777,HF_wild_card,2022.2.4,Win32,59.86590038,602160dd499ff3105e0635ef,64ce5acb97489d65b14ecc7a,64d82d0b63542afdd37bb4bf,,,,,,,ctch,resources/DBN.BMP,resources/DY.BMP,Door4,-0.280416641,-0.053703728,1,0,0,1.2296,optionLeft,80,8090,4,18,0,18,0,1,,,,,,,,,,,,,,,,,,,,,,,,,,,,,,,,,,,,,,,
,,,,,,,,2023-08-13_02h09.00.777,HF_wild_card,2022.2.4,Win32,59.86590038,602160dd499ff3105e0635ef,64ce5acb97489d65b14ecc7a,64d82d0b63542afdd37bb4bf,,,,,,,decisionTrl,resources/DY.BMP,resources/DG.BMP,Door1,-0.35078701,-0.094444466,1,0,0,2.5618,optionLeft,30,8120,4,19,0,19,0,1,,,,,,,,,,,,,,,,,,,,,,,,,,,,,,,,,,,,,,,
,,,,,,,,2023-08-13_02h09.00.777,HF_wild_card,2022.2.4,Win32,59.86590038,602160dd499ff3105e0635ef,64ce5acb97489d65b14ecc7a,64d82d0b63542afdd37bb4bf,,,,,,,decisionTrl,resources/DP.BMP,resources/DR.BMP,WildCard_Ex,0.227916718,-0.063888931,1,0,0,1.1621,optionRight,5,8125,4,20,0,20,0,1,,,,,,,,,,,,,,,,,,,,,,,,,,,,,,,,,,,,,,,
,,,,,,,,2023-08-13_02h09.00.777,HF_wild_card,2022.2.4,Win32,59.86590038,602160dd499ff3105e0635ef,64ce5acb97489d65b14ecc7a,64d82d0b63542afdd37bb4bf,,,,,,,decisionTrl,resources/DBN.BMP,resources/DP.BMP,Door4,-0.282268486,-0.044444466,1,0,0,1.4453,optionLeft,60,8185,4,21,0,21,0,1,,,,,,,,,,,,,,,,,,,,,,,,,,,,,,,,,,,,,,,
,,,,,,,,2023-08-13_02h09.00.777,HF_wild_card,2022.2.4,Win32,59.86590038,602160dd499ff3105e0635ef,64ce5acb97489d65b14ecc7a,64d82d0b63542afdd37bb4bf,,,,,,,decisionTrl,resources/DY.BMP,resources/DG.BMP,Door1,-0.368379593,-0.145370407,1,0,0,3.1445,optionLeft,30,8215,4,22,0,22,0,1,,,,,,,,,,,,,,,,,,,,,,,,,,,,,,,,,,,,,,,
,,,,,,,,2023-08-13_02h09.00.777,HF_wild_card,2022.2.4,Win32,59.86590038,602160dd499ff3105e0635ef,64ce5acb97489d65b14ecc7a,64d82d0b63542afdd37bb4bf,,,,,,,sngl,resources/DP.BMP,resources/Empty.png,Door3,-0.338749962,-0.122222252,1,0,0,1.3959,optionLeft,70,8285,4,23,0,23,0,1,,,,,,,,,,,,,,,,,,,,,,,,,,,,,,,,,,,,,,,
,,,,,,,,2023-08-13_02h09.00.777,HF_wild_card,2022.2.4,Win32,59.86590038,602160dd499ff3105e0635ef,64ce5acb97489d65b14ecc7a,64d82d0b63542afdd37bb4bf,,,,,,,decisionTrl,resources/DBN.BMP,resources/DR.BMP,WildCard_Ex,0.443657532,-0.114814835,1,0,0,5.1091,optionRight,5,8290,4,24,0,24,0,1,,,,,,,,,,,,,,,,,,,,,,,,,,,,,,,,,,,,,,,
,,,,,,,,2023-08-13_02h09.00.777,HF_wild_card,2022.2.4,Win32,59.86590038,602160dd499ff3105e0635ef,64ce5acb97489d65b14ecc7a,64d82d0b63542afdd37bb4bf,,,,,,,decisionTrl,resources/DR.BMP,resources/DP.BMP,WildCard_Ex,-0.267453728,-0.136111145,1,0,0,3.9266,optionLeft,5,8295,4,25,0,25,0,1,,,,,,,,,,,,,,,,,,,,,,,,,,,,,,,,,,,,,,,
,,,,,,,,2023-08-13_02h09.00.777,HF_wild_card,2022.2.4,Win32,59.86590038,602160dd499ff3105e0635ef,64ce5acb97489d65b14ecc7a,64d82d0b63542afdd37bb4bf,,,,,,,decisionTrl,resources/DG.BMP,resources/DY.BMP,Door1,0.281620407,-0.132407455,1,0,0,3.0945,optionRight,30,8325,4,26,0,26,0,1,,,,,,,,,,,,,,,,,,,,,,,,,,,,,,,,,,,,,,,
,,,,,,,,2023-08-13_02h09.00.777,HF_wild_card,2022.2.4,Win32,59.86590038,602160dd499ff3105e0635ef,64ce5acb97489d65b14ecc7a,64d82d0b63542afdd37bb4bf,,,,,,,decisionTrl,resources/DR.BMP,resources/DG.BMP,WildCard_Ex,-0.296157379,-0.114814835,1,0,0,5.6753,optionLeft,5,8330,4,27,0,27,0,1,,,,,,,,,,,,,,,,,,,,,,,,,,,,,,,,,,,,,,,
,,,,,,,,2023-08-13_02h09.00.777,HF_wild_card,2022.2.4,Win32,59.86590038,602160dd499ff3105e0635ef,64ce5acb97489d65b14ecc7a,64d82d0b63542afdd37bb4bf,,,,,,,decisionTrl,resources/DBN.BMP,resources/DP.BMP,Door4,-0.277638855,-0.108333359,1,0,0,1.1627,optionLeft,80,8410,4,28,0,28,0,1,,,,,,,,,,,,,,,,,,,,,,,,,,,,,,,,,,,,,,,
,,,,,,,,2023-08-13_02h09.00.777,HF_wild_card,2022.2.4,Win32,59.86590038,602160dd499ff3105e0635ef,64ce5acb97489d65b14ecc7a,64d82d0b63542afdd37bb4bf,,,,,,,decisionTrl,resources/DY.BMP,resources/DR.BMP,WildCard_Ex,0.300138931,-0.11296299,1,0,0,3.6098,optionRight,95,8505,4,29,0,29,0,1,,,,,,,,,,,,,,,,,,,,,,,,,,,,,,,,,,,,,,,
,,,,,,,,2023-08-13_02h09.00.777,HF_wild_card,2022.2.4,Win32,59.86590038,602160dd499ff3105e0635ef,64ce5acb97489d65b14ecc7a,64d82d0b63542afdd37bb4bf,,,,,,,decisionTrl,resources/DG.BMP,resources/DY.BMP,Door1,0.364027863,-0.082407379,1,0,0,3.1947,optionRight,30,8535,4,30,0,30,0,1,,,,,,,,,,,,,,,,,,,,,,,,,,,,,,,,,,,,,,,
,,,,,,,,2023-08-13_02h09.00.777,HF_wild_card,2022.2.4,Win32,59.86590038,602160dd499ff3105e0635ef,64ce5acb97489d65b14ecc7a,64d82d0b63542afdd37bb4bf,,,,,,,ctch,resources/DY.BMP,resources/DBN.BMP,Door4,0.438101959,-0.079629669,1,0,0,1.0952,optionRight,80,8615,4,31,0,31,0,1,,,,,,,,,,,,,,,,,,,,,,,,,,,,,,,,,,,,,,,
,,,,,,,,2023-08-13_02h09.00.777,HF_wild_card,2022.2.4,Win32,59.86590038,602160dd499ff3105e0635ef,64ce5acb97489d65b14ecc7a,64d82d0b63542afdd37bb4bf,,,,,,,decisionTrl,resources/DR.BMP,resources/DBN.BMP,WildCard_Ex,-0.295231438,-0.058333359,1,0,0,0.8797,optionLeft,5,8620,4,32,0,32,0,1,,,,,,,,,,,,,,,,,,,,,,,,,,,,,,,,,,,,,,,
,,,,,,,,2023-08-13_02h09.00.777,HF_wild_card,2022.2.4,Win32,59.86590038,602160dd499ff3105e0635ef,64ce5acb97489d65b14ecc7a,64d82d0b63542afdd37bb4bf,,,,,,,decisionTrl,resources/DG.BMP,resources/DY.BMP,Door1,0.372361145,-0.095370407,1,0,0,2.5946,optionRight,30,8650,4,33,0,33,0,1,,,,,,,,,,,,,,,,,,,,,,,,,,,,,,,,,,,,,,,
,,,,,,,,2023-08-13_02h09.00.777,HF_wild_card,2022.2.4,Win32,59.86590038,602160dd499ff3105e0635ef,64ce5acb97489d65b14ecc7a,64d82d0b63542afdd37bb4bf,,,,,,,ctch,resources/DG.BMP,resources/DP.BMP,Door3,0.314953766,-0.100000038,1,0,0,4.5758,optionRight,70,8720,4,34,0,34,0,1,,,,,,,,,,,,,,,,,,,,,,,,,,,,,,,,,,,,,,,
,,,,,,,,2023-08-13_02h09.00.777,HF_wild_card,2022.2.4,Win32,59.86590038,602160dd499ff3105e0635ef,64ce5acb97489d65b14ecc7a,64d82d0b63542afdd37bb4bf,,,,,,,sngl,resources/Empty.png,resources/DP.BMP,Door3,0.397360992,-0.15092598,1,0,0,0.8964,optionRight,70,8790,4,35,0,35,0,1,,,,,,,,,,,,,,,,,,,,,,,,,,,,,,,,,,,,,,,
,,,,,,,,2023-08-13_02h09.00.777,HF_wild_card,2022.2.4,Win32,59.86590038,602160dd499ff3105e0635ef,64ce5acb97489d65b14ecc7a,64d82d0b63542afdd37bb4bf,,,,,,,decisionTrl,resources/DP.BMP,resources/DBN.BMP,Door4,0.368657455,-0.077777748,1,0,0,1.2702,optionRight,80,8870,4,36,0,36,0,1,,,,,,,,,,,,,,,,,,,,,,,,,,,,,,,,,,,,,,,
,,,,,,,,2023-08-13_02h09.00.777,HF_wild_card,2022.2.4,Win32,59.86590038,602160dd499ff3105e0635ef,64ce5acb97489d65b14ecc7a,64d82d0b63542afdd37bb4bf,,,,,,,ctch,resources/DBN.BMP,resources/DY.BMP,Door4,-0.236898117,-0.015740776,1,0,0,1.2131,optionLeft,60,8930,4,37,0,37,0,1,,,,,,,,,,,,,,,,,,,,,,,,,,,,,,,,,,,,,,,
,,,,,,,,2023-08-13_02h09.00.777,HF_wild_card,2022.2.4,Win32,59.86590038,602160dd499ff3105e0635ef,64ce5acb97489d65b14ecc7a,64d82d0b63542afdd37bb4bf,,,,,,,decisionTrl,resources/DBN.BMP,resources/DP.BMP,Door4,-0.240601807,-0.049074097,1,0,0,0.9631,optionLeft,80,9010,4,38,0,38,0,1,,,,,,,,,,,,,,,,,,,,,,,,,,,,,,,,,,,,,,,
,,,,,,,,2023-08-13_02h09.00.777,HF_wild_card,2022.2.4,Win32,59.86590038,602160dd499ff3105e0635ef,64ce5acb97489d65b14ecc7a,64d82d0b63542afdd37bb4bf,,,,,,,sngl,resources/Empty.png,resources/DY.BMP,Door1,0.431620483,-0.079629669,1,0,0,2.2454,optionRight,30,9040,4,39,0,39,0,1,,,,,,,,,,,,,,,,,,,,,,,,,,,,,,,,,,,,,,,
,,,,,,,,2023-08-13_02h09.00.777,HF_wild_card,2022.2.4,Win32,59.86590038,602160dd499ff3105e0635ef,64ce5acb97489d65b14ecc7a,64d82d0b63542afdd37bb4bf,,,,,,,decisionTrl,resources/DP.BMP,resources/DBN.BMP,Door4,0.390879669,-0.098148193,1,0,0,1.6122,optionRight,60,9100,4,40,0,40,0,1,,,,,,,,,,,,,,,,,,,,,,,,,,,,,,,,,,,,,,,
,,,,,,,,2023-08-13_02h09.00.777,HF_wild_card,2022.2.4,Win32,59.86590038,602160dd499ff3105e0635ef,64ce5acb97489d65b14ecc7a,64d82d0b63542afdd37bb4bf,,,,,,,decisionTrl,resources/DBN.BMP,resources/DP.BMP,Door4,-0.19152771,-0.056481514,1,0,0,1.2793,optionLeft,60,9160,4,41,0,41,0,1,,,,,,,,,,,,,,,,,,,,,,,,,,,,,,,,,,,,,,,
,,,,,,,,2023-08-13_02h09.00.777,HF_wild_card,2022.2.4,Win32,59.86590038,602160dd499ff3105e0635ef,64ce5acb97489d65b14ecc7a,64d82d0b63542afdd37bb4bf,,,,,,,sngl,resources/Empty.png,resources/DR.BMP,WildCard_Ex,0.432546387,-0.111111145,1,0,0,1.254,optionRight,5,9165,4,42,0,42,0,1,,,,,,,,,,,,,,,,,,,,,,,,,,,,,,,,,,,,,,,
,,,,,,,,2023-08-13_02h09.00.777,HF_wild_card,2022.2.4,Win32,59.86590038,602160dd499ff3105e0635ef,64ce5acb97489d65b14ecc7a,64d82d0b63542afdd37bb4bf,,,,,,,sngl,resources/DR.BMP,resources/Empty.png,WildCard_Ex,-0.231342545,-0.037037048,1,0,0,1.5463,optionLeft,5,9170,4,43,0,43,0,1,,,,,,,,,,,,,,,,,,,,,,,,,,,,,,,,,,,,,,,
,,,,,,,,2023-08-13_02h09.00.777,HF_wild_card,2022.2.4,Win32,59.86590038,602160dd499ff3105e0635ef,64ce5acb97489d65b14ecc7a,64d82d0b63542afdd37bb4bf,,,,,,,,,,,,,,,,,,,,,,,,,,3,0,3,0,1,,,,,,,,,,,,,,,,,,,,,,,,,,,,,,,,,,
,,,,,,,,2023-08-13_02h09.00.777,HF_wild_card,2022.2.4,Win32,59.86590038,602160dd499ff3105e0635ef,64ce5acb97489d65b14ecc7a,64d82d0b63542afdd37bb4bf,,,,,,,decisionTrl,resources/DR.BMP,resources/DP.BMP,Door3,0.348287125,-0.077777748,1,0,0,4.5325,optionRight,70,9240,5,0,0,0,0,1,,,,,,,,,,,,,,,,,,,,,,,,,,,,,,,,,,,,,,,
,,,,,,,,2023-08-13_02h09.00.777,HF_wild_card,2022.2.4,Win32,59.86590038,602160dd499ff3105e0635ef,64ce5acb97489d65b14ecc7a,64d82d0b63542afdd37bb4bf,,,,,,,ctch,resources/DG.BMP,resources/DP.BMP,Door3,0.326990814,-0.06203701,1,0,0,1.9619,optionRight,70,9310,5,1,0,1,0,1,,,,,,,,,,,,,,,,,,,,,,,,,,,,,,,,,,,,,,,
,,,,,,,,2023-08-13_02h09.00.777,HF_wild_card,2022.2.4,Win32,59.86590038,602160dd499ff3105e0635ef,64ce5acb97489d65b14ecc7a,64d82d0b63542afdd37bb4bf,,,,,,,sngl,resources/DR.BMP,resources/Empty.png,WildCard_Ex,0.017731552,-0.051851883,1,0,0,1.2628,optionLeft,95,9405,5,2,0,2,0,1,,,,,,,,,,,,,,,,,,,,,,,,,,,,,,,,,,,,,,,
,,,,,,,,2023-08-13_02h09.00.777,HF_wild_card,2022.2.4,Win32,59.86590038,602160dd499ff3105e0635ef,64ce5acb97489d65b14ecc7a,64d82d0b63542afdd37bb4bf,,,,,,,decisionTrl,resources/DR.BMP,resources/DG.BMP,WildCard_Ex,-0.359120331,-0.037037048,1,0,0,4.094,optionLeft,95,9500,5,3,0,3,0,1,,,,,,,,,,,,,,,,,,,,,,,,,,,,,,,,,,,,,,,
,,,,,,,,2023-08-13_02h09.00.777,HF_wild_card,2022.2.4,Win32,59.86590038,602160dd499ff3105e0635ef,64ce5acb97489d65b14ecc7a,64d82d0b63542afdd37bb4bf,,,,,,,ctch,resources/DY.BMP,resources/DBN.BMP,Door4,0.3547686,-0.076851883,1,0,0,1.2627,optionRight,60,9560,5,4,0,4,0,1,,,,,,,,,,,,,,,,,,,,,,,,,,,,,,,,,,,,,,,
,,,,,,,,2023-08-13_02h09.00.777,HF_wild_card,2022.2.4,Win32,59.86590038,602160dd499ff3105e0635ef,64ce5acb97489d65b14ecc7a,64d82d0b63542afdd37bb4bf,,,,,,,sngl,resources/DG.BMP,resources/Empty.png,Door2,-0.204490738,-0.045370407,1,0,0,1.0621,optionLeft,40,9600,5,5,0,5,0,1,,,,,,,,,,,,,,,,,,,,,,,,,,,,,,,,,,,,,,,
,,,,,,,,2023-08-13_02h09.00.777,HF_wild_card,2022.2.4,Win32,59.86590038,602160dd499ff3105e0635ef,64ce5acb97489d65b14ecc7a,64d82d0b63542afdd37bb4bf,,,,,,,sngl,resources/Empty.png,resources/DR.BMP,WildCard_Ex,0.418657532,-0.088888931,1,0,0,0.9794,optionRight,95,9695,5,6,0,6,0,1,,,,,,,,,,,,,,,,,,,,,,,,,,,,,,,,,,,,,,,
,,,,,,,,2023-08-13_02h09.00.777,HF_wild_card,2022.2.4,Win32,59.86590038,602160dd499ff3105e0635ef,64ce5acb97489d65b14ecc7a,64d82d0b63542afdd37bb4bf,,,,,,,decisionTrl,resources/DG.BMP,resources/DY.BMP,Door2,-0.204490738,-0.055555573,1,0,0,2.1451,optionLeft,40,9735,5,7,0,7,0,1,,,,,,,,,,,,,,,,,,,,,,,,,,,,,,,,,,,,,,,
,,,,,,,,2023-08-13_02h09.00.777,HF_wild_card,2022.2.4,Win32,59.86590038,602160dd499ff3105e0635ef,64ce5acb97489d65b14ecc7a,64d82d0b63542afdd37bb4bf,,,,,,,sngl,resources/Empty.png,resources/DP.BMP,Door3,0.435324097,-0.091666641,1,0,0,0.8624,optionRight,70,9805,5,8,0,8,0,1,,,,,,,,,,,,,,,,,,,,,,,,,,,,,,,,,,,,,,,
,,,,,,,,2023-08-13_02h09.00.777,HF_wild_card,2022.2.4,Win32,59.86590038,602160dd499ff3105e0635ef,64ce5acb97489d65b14ecc7a,64d82d0b63542afdd37bb4bf,,,,,,,ctch,resources/DP.BMP,resources/DG.BMP,Door3,-0.2544907,-0.088888931,1,0,0,1.3288,optionLeft,70,9875,5,9,0,9,0,1,,,,,,,,,,,,,,,,,,,,,,,,,,,,,,,,,,,,,,,
,,,,,,,,2023-08-13_02h09.00.777,HF_wild_card,2022.2.4,Win32,59.86590038,602160dd499ff3105e0635ef,64ce5acb97489d65b14ecc7a,64d82d0b63542afdd37bb4bf,,,,,,,decisionTrl,resources/DBN.BMP,resources/DP.BMP,Door4,-0.323935165,-0.06296299,1,0,0,1.1796,optionLeft,80,9955,5,10,0,10,0,1,,,,,,,,,,,,,,,,,,,,,,,,,,,,,,,,,,,,,,,
,,,,,,,,2023-08-13_02h09.00.777,HF_wild_card,2022.2.4,Win32,59.86590038,602160dd499ff3105e0635ef,64ce5acb97489d65b14ecc7a,64d82d0b63542afdd37bb4bf,,,,,,,decisionTrl,resources/DR.BMP,resources/DBN.BMP,WildCard_Ex,-0.219305496,-0.100000038,1,0,0,2.2117,optionLeft,95,10050,5,11,0,11,0,1,,,,,,,,,,,,,,,,,,,,,,,,,,,,,,,,,,,,,,,
,,,,,,,,2023-08-13_02h09.00.777,HF_wild_card,2022.2.4,Win32,59.86590038,602160dd499ff3105e0635ef,64ce5acb97489d65b14ecc7a,64d82d0b63542afdd37bb4bf,,,,,,,decisionTrl,resources/DY.BMP,resources/DG.BMP,Door2,0.3297686,-0.041666679,1,0,0,2.0782,optionRight,40,10090,5,12,0,12,0,1,,,,,,,,,,,,,,,,,,,,,,,,,,,,,,,,,,,,,,,
,,,,,,,,2023-08-13_02h09.00.777,HF_wild_card,2022.2.4,Win32,59.86590038,602160dd499ff3105e0635ef,64ce5acb97489d65b14ecc7a,64d82d0b63542afdd37bb4bf,,,,,,,sngl,resources/Empty.png,resources/DR.BMP,WildCard_Ex,0.526064911,-0.08796299,1,0,0,1.6449,optionRight,5,10095,5,13,0,13,0,1,,,,,,,,,,,,,,,,,,,,,,,,,,,,,,,,,,,,,,,
,,,,,,,,2023-08-13_02h09.00.777,HF_wild_card,2022.2.4,Win32,59.86590038,602160dd499ff3105e0635ef,64ce5acb97489d65b14ecc7a,64d82d0b63542afdd37bb4bf,,,,,,,ctch,resources/DBN.BMP,resources/DY.BMP,Door4,-0.351712952,-0.033333359,1,0,0,1.7619,optionLeft,80,10175,5,14,0,14,0,1,,,,,,,,,,,,,,,,,,,,,,,,,,,,,,,,,,,,,,,
,,,,,,,,2023-08-13_02h09.00.777,HF_wild_card,2022.2.4,Win32,59.86590038,602160dd499ff3105e0635ef,64ce5acb97489d65b14ecc7a,64d82d0b63542afdd37bb4bf,,,,,,,sngl,resources/Empty.png,resources/DY.BMP,Door1,0.413101959,-0.121296272,1,0,0,1.1303,optionRight,30,10205,5,15,0,15,0,1,,,,,,,,,,,,,,,,,,,,,,,,,,,,,,,,,,,,,,,
,,,,,,,,2023-08-13_02h09.00.777,HF_wild_card,2022.2.4,Win32,59.86590038,602160dd499ff3105e0635ef,64ce5acb97489d65b14ecc7a,64d82d0b63542afdd37bb4bf,,,,,,,ctch,resources/DP.BMP,resources/DG.BMP,Door3,-0.286898117,-0.117592621,1,0,0,1.6793,optionLeft,70,10275,5,16,0,16,0,1,,,,,,,,,,,,,,,,,,,,,,,,,,,,,,,,,,,,,,,
,,,,,,,,2023-08-13_02h09.00.777,HF_wild_card,2022.2.4,Win32,59.86590038,602160dd499ff3105e0635ef,64ce5acb97489d65b14ecc7a,64d82d0b63542afdd37bb4bf,,,,,,,sngl,resources/DP.BMP,resources/Empty.png,Door3,-0.21375,-0.08796299,1,0,0,0.9131,optionLeft,70,10345,5,17,0,17,0,1,,,,,,,,,,,,,,,,,,,,,,,,,,,,,,,,,,,,,,,
,,,,,,,,2023-08-13_02h09.00.777,HF_wild_card,2022.2.4,Win32,59.86590038,602160dd499ff3105e0635ef,64ce5acb97489d65b14ecc7a,64d82d0b63542afdd37bb4bf,,,,,,,ctch,resources/DY.BMP,resources/DBN.BMP,Door4,0.421435242,-0.106481514,1,0,0,1.112,optionRight,60,10405,5,18,0,18,0,1,,,,,,,,,,,,,,,,,,,,,,,,,,,,,,,,,,,,,,,
,,,,,,,,2023-08-13_02h09.00.777,HF_wild_card,2022.2.4,Win32,59.86590038,602160dd499ff3105e0635ef,64ce5acb97489d65b14ecc7a,64d82d0b63542afdd37bb4bf,,,,,,,decisionTrl,resources/DBN.BMP,resources/DP.BMP,Door4,-0.328564796,-0.081481514,1,0,0,0.8965,optionLeft,60,10465,5,19,0,19,0,1,,,,,,,,,,,,,,,,,,,,,,,,,,,,,,,,,,,,,,,
,,,,,,,,2023-08-13_02h09.00.777,HF_wild_card,2022.2.4,Win32,59.86590038,602160dd499ff3105e0635ef,64ce5acb97489d65b14ecc7a,64d82d0b63542afdd37bb4bf,,,,,,,decisionTrl,resources/DY.BMP,resources/DG.BMP,Door2,0.33347229,-0.060185204,1,0,0,1.9446,optionRight,20,10485,5,20,0,20,0,1,,,,,,,,,,,,,,,,,,,,,,,,,,,,,,,,,,,,,,,
,,,,,,,,2023-08-13_02h09.00.777,HF_wild_card,2022.2.4,Win32,59.86590038,602160dd499ff3105e0635ef,64ce5acb97489d65b14ecc7a,64d82d0b63542afdd37bb4bf,,,,,,,decisionTrl,resources/DY.BMP,resources/DG.BMP,Door1,-0.255416641,-0.066666679,1,0,0,1.5949,optionLeft,30,10515,5,21,0,21,0,1,,,,,,,,,,,,,,,,,,,,,,,,,,,,,,,,,,,,,,,
,,,,,,,,2023-08-13_02h09.00.777,HF_wild_card,2022.2.4,Win32,59.86590038,602160dd499ff3105e0635ef,64ce5acb97489d65b14ecc7a,64d82d0b63542afdd37bb4bf,,,,,,,decisionTrl,resources/DBN.BMP,resources/DR.BMP,WildCard_Ex,0.454768524,-0.080555573,1,0,0,3.5941,optionRight,5,10520,5,22,0,22,0,1,,,,,,,,,,,,,,,,,,,,,,,,,,,,,,,,,,,,,,,
,,,,,,,,2023-08-13_02h09.00.777,HF_wild_card,2022.2.4,Win32,59.86590038,602160dd499ff3105e0635ef,64ce5acb97489d65b14ecc7a,64d82d0b63542afdd37bb4bf,,,,,,,decisionTrl,resources/DP.BMP,resources/DBN.BMP,Door4,0.36217598,-0.074074097,1,0,0,1.4785,optionRight,60,10580,5,23,0,23,0,1,,,,,,,,,,,,,,,,,,,,,,,,,,,,,,,,,,,,,,,
,,,,,,,,2023-08-13_02h09.00.777,HF_wild_card,2022.2.4,Win32,59.86590038,602160dd499ff3105e0635ef,64ce5acb97489d65b14ecc7a,64d82d0b63542afdd37bb4bf,,,,,,,sngl,resources/DBN.BMP,resources/Empty.png,Door4,-0.217453766,-0.057407379,1,0,0,0.7958,optionLeft,80,10660,5,24,0,24,0,1,,,,,,,,,,,,,,,,,,,,,,,,,,,,,,,,,,,,,,,
,,,,,,,,2023-08-13_02h09.00.777,HF_wild_card,2022.2.4,Win32,59.86590038,602160dd499ff3105e0635ef,64ce5acb97489d65b14ecc7a,64d82d0b63542afdd37bb4bf,,,,,,,ctch,resources/DBN.BMP,resources/DY.BMP,Door4,-0.3294907,-0.076851883,1,0,0,1.0291,optionLeft,80,10740,5,25,0,25,0,1,,,,,,,,,,,,,,,,,,,,,,,,,,,,,,,,,,,,,,,
,,,,,,,,2023-08-13_02h09.00.777,HF_wild_card,2022.2.4,Win32,59.86590038,602160dd499ff3105e0635ef,64ce5acb97489d65b14ecc7a,64d82d0b63542afdd37bb4bf,,,,,,,decisionTrl,resources/DG.BMP,resources/DR.BMP,WildCard_Ex,0.497360992,-0.09629631,1,0,0,2.2283,optionRight,95,10835,5,26,0,26,0,1,,,,,,,,,,,,,,,,,,,,,,,,,,,,,,,,,,,,,,,
,,,,,,,,2023-08-13_02h09.00.777,HF_wild_card,2022.2.4,Win32,59.86590038,602160dd499ff3105e0635ef,64ce5acb97489d65b14ecc7a,64d82d0b63542afdd37bb4bf,,,,,,,sngl,resources/Empty.png,resources/DG.BMP,Door2,0.401064911,-0.063888931,1,0,0,1.0455,optionRight,20,10855,5,27,0,27,0,1,,,,,,,,,,,,,,,,,,,,,,,,,,,,,,,,,,,,,,,
,,,,,,,,2023-08-13_02h09.00.777,HF_wild_card,2022.2.4,Win32,59.86590038,602160dd499ff3105e0635ef,64ce5acb97489d65b14ecc7a,64d82d0b63542afdd37bb4bf,,,,,,,sngl,resources/DY.BMP,resources/Empty.png,Door1,-0.173935242,-0.068518562,1,0,0,1.5375,optionLeft,30,10885,5,28,0,28,0,1,,,,,,,,,,,,,,,,,,,,,,,,,,,,,,,,,,,,,,,
,,,,,,,,2023-08-13_02h09.00.777,HF_wild_card,2022.2.4,Win32,59.86590038,602160dd499ff3105e0635ef,64ce5acb97489d65b14ecc7a,64d82d0b63542afdd37bb4bf,,,,,,,decisionTrl,resources/DBN.BMP,resources/DP.BMP,Door4,-0.246157379,-0.031481514,1,0,0,1.8369,optionLeft,60,10945,5,29,0,29,0,1,,,,,,,,,,,,,,,,,,,,,,,,,,,,,,,,,,,,,,,
,,,,,,,,2023-08-13_02h09.00.777,HF_wild_card,2022.2.4,Win32,59.86590038,602160dd499ff3105e0635ef,64ce5acb97489d65b14ecc7a,64d82d0b63542afdd37bb4bf,,,,,,,decisionTrl,resources/DY.BMP,resources/DR.BMP,WildCard_Ex,0.315879669,-0.057407379,1,0,0,1.7284,optionRight,5,10950,5,30,0,30,0,1,,,,,,,,,,,,,,,,,,,,,,,,,,,,,,,,,,,,,,,
,,,,,,,,2023-08-13_02h09.00.777,HF_wild_card,2022.2.4,Win32,59.86590038,602160dd499ff3105e0635ef,64ce5acb97489d65b14ecc7a,64d82d0b63542afdd37bb4bf,,,,,,,decisionTrl,resources/DR.BMP,resources/DY.BMP,WildCard_Ex,-0.281342545,-0.098148193,1,0,0,7.0077,optionLeft,5,10955,5,31,0,31,0,1,,,,,,,,,,,,,,,,,,,,,,,,,,,,,,,,,,,,,,,
,,,,,,,,2023-08-13_02h09.00.777,HF_wild_card,2022.2.4,Win32,59.86590038,602160dd499ff3105e0635ef,64ce5acb97489d65b14ecc7a,64d82d0b63542afdd37bb4bf,,,,,,,decisionTrl,resources/DP.BMP,resources/DR.BMP,Door3,-0.32671299,-0.149074097,1,0,0,2.2786,optionLeft,70,11025,5,32,0,32,0,1,,,,,,,,,,,,,,,,,,,,,,,,,,,,,,,,,,,,,,,
,,,,,,,,2023-08-13_02h09.00.777,HF_wild_card,2022.2.4,Win32,59.86590038,602160dd499ff3105e0635ef,64ce5acb97489d65b14ecc7a,64d82d0b63542afdd37bb4bf,,,,,,,decisionTrl,resources/DG.BMP,resources/DY.BMP,Door2,-0.365601883,-0.115740776,1,0,0,3.7105,optionLeft,40,11065,5,33,0,33,0,1,,,,,,,,,,,,,,,,,,,,,,,,,,,,,,,,,,,,,,,
,,,,,,,,2023-08-13_02h09.00.777,HF_wild_card,2022.2.4,Win32,59.86590038,602160dd499ff3105e0635ef,64ce5acb97489d65b14ecc7a,64d82d0b63542afdd37bb4bf,,,,,,,decisionTrl,resources/DP.BMP,resources/DBN.BMP,Door4,0.464027863,-0.091666641,1,0,0,1.0456,optionRight,80,11145,5,34,0,34,0,1,,,,,,,,,,,,,,,,,,,,,,,,,,,,,,,,,,,,,,,
,,,,,,,,2023-08-13_02h09.00.777,HF_wild_card,2022.2.4,Win32,59.86590038,602160dd499ff3105e0635ef,64ce5acb97489d65b14ecc7a,64d82d0b63542afdd37bb4bf,,,,,,,decisionTrl,resources/DP.BMP,resources/DBN.BMP,Door4,0.343657455,-0.06203701,1,0,0,1.0697,optionRight,60,11205,5,35,0,35,0,1,,,,,,,,,,,,,,,,,,,,,,,,,,,,,,,,,,,,,,,
,,,,,,,,2023-08-13_02h09.00.777,HF_wild_card,2022.2.4,Win32,59.86590038,602160dd499ff3105e0635ef,64ce5acb97489d65b14ecc7a,64d82d0b63542afdd37bb4bf,,,,,,,sngl,resources/DR.BMP,resources/Empty.png,WildCard_Ex,-0.366527748,-0.131481514,1,0,0,0.9635,optionLeft,5,11210,5,36,0,36,0,1,,,,,,,,,,,,,,,,,,,,,,,,,,,,,,,,,,,,,,,
,,,,,,,,2023-08-13_02h09.00.777,HF_wild_card,2022.2.4,Win32,59.86590038,602160dd499ff3105e0635ef,64ce5acb97489d65b14ecc7a,64d82d0b63542afdd37bb4bf,,,,,,,decisionTrl,resources/DY.BMP,resources/DG.BMP,Door1,-0.200786972,-0.094444466,1,0,0,2.2291,optionLeft,30,11240,5,37,0,37,0,1,,,,,,,,,,,,,,,,,,,,,,,,,,,,,,,,,,,,,,,
,,,,,,,,2023-08-13_02h09.00.777,HF_wild_card,2022.2.4,Win32,59.86590038,602160dd499ff3105e0635ef,64ce5acb97489d65b14ecc7a,64d82d0b63542afdd37bb4bf,,,,,,,ctch,resources/DG.BMP,resources/DP.BMP,Door3,0.286250076,-0.055555573,1,0,0,1.3291,optionRight,70,11310,5,38,0,38,0,1,,,,,,,,,,,,,,,,,,,,,,,,,,,,,,,,,,,,,,,
,,,,,,,,2023-08-13_02h09.00.777,HF_wild_card,2022.2.4,Win32,59.86590038,602160dd499ff3105e0635ef,64ce5acb97489d65b14ecc7a,64d82d0b63542afdd37bb4bf,,,,,,,decisionTrl,resources/DBN.BMP,resources/DP.BMP,Door4,-0.268379593,-0.053703728,1,0,0,1.0045,optionLeft,60,11370,5,39,0,39,0,1,,,,,,,,,,,,,,,,,,,,,,,,,,,,,,,,,,,,,,,
,,,,,,,,2023-08-13_02h09.00.777,HF_wild_card,2022.2.4,Win32,59.86590038,602160dd499ff3105e0635ef,64ce5acb97489d65b14ecc7a,64d82d0b63542afdd37bb4bf,,,,,,,decisionTrl,resources/DP.BMP,resources/DBN.BMP,Door4,0.377916718,-0.06296299,1,0,0,1.0122,optionRight,60,11430,5,40,0,40,0,1,,,,,,,,,,,,,,,,,,,,,,,,,,,,,,,,,,,,,,,
,,,,,,,,2023-08-13_02h09.00.777,HF_wild_card,2022.2.4,Win32,59.86590038,602160dd499ff3105e0635ef,64ce5acb97489d65b14ecc7a,64d82d0b63542afdd37bb4bf,,,,,,,decisionTrl,resources/DG.BMP,resources/DY.BMP,Door1,0.403842468,-0.125000038,1,0,0,5.8672,optionRight,30,11460,5,41,0,41,0,1,,,,,,,,,,,,,,,,,,,,,,,,,,,,,,,,,,,,,,,
,,,,,,,,2023-08-13_02h09.00.777,HF_wild_card,2022.2.4,Win32,59.86590038,602160dd499ff3105e0635ef,64ce5acb97489d65b14ecc7a,64d82d0b63542afdd37bb4bf,,,,,,,sngl,resources/Empty.png,resources/DBN.BMP,Door4,0.344583282,-0.085185204,1,0,0,0.7788,optionRight,60,11520,5,42,0,42,0,1,,,,,,,,,,,,,,,,,,,,,,,,,,,,,,,,,,,,,,,
,,,,,,,,2023-08-13_02h09.00.777,HF_wild_card,2022.2.4,Win32,59.86590038,602160dd499ff3105e0635ef,64ce5acb97489d65b14ecc7a,64d82d0b63542afdd37bb4bf,,,,,,,decisionTrl,resources/DG.BMP,resources/DY.BMP,Door1,0.327916718,-0.07129631,1,0,0,1.7454,optionRight,30,11550,5,43,0,43,0,1,,,,,,,,,,,,,,,,,,,,,,,,,,,,,,,,,,,,,,,
,,,,,,,,2023-08-13_02h09.00.777,HF_wild_card,2022.2.4,Win32,59.86590038,602160dd499ff3105e0635ef,64ce5acb97489d65b14ecc7a,64d82d0b63542afdd37bb4bf,,,,,,,,,,,,,,,,,,,,,,,,,,4,0,4,0,1,,,,,,,,,,,,,,,,,,,,,,,,,,,,,,,,,,
,,,,,,,,2023-08-13_02h09.00.777,HF_wild_card,2022.2.4,Win32,59.86590038,602160dd499ff3105e0635ef,64ce5acb97489d65b14ecc7a,64d82d0b63542afdd37bb4bf,,,,,,,sngl,resources/Empty.png,resources/DG.BMP,Door2,0.402916718,-0.111111145,1,0,0,1.4352,optionRight,40,11590,6,0,0,0,0,1,,,,,,,,,,,,,,,,,,,,,,,,,,,,,,,,,,,,,,,
,,,,,,,,2023-08-13_02h09.00.777,HF_wild_card,2022.2.4,Win32,59.86590038,602160dd499ff3105e0635ef,64ce5acb97489d65b14ecc7a,64d82d0b63542afdd37bb4bf,,,,,,,decisionTrl,resources/DP.BMP,resources/DBN.BMP,Door4,0.45569458,-0.092592621,1,0,0,1.2123,optionRight,60,11650,6,1,0,1,0,1,,,,,,,,,,,,,,,,,,,,,,,,,,,,,,,,,,,,,,,
,,,,,,,,2023-08-13_02h09.00.777,HF_wild_card,2022.2.4,Win32,59.86590038,602160dd499ff3105e0635ef,64ce5acb97489d65b14ecc7a,64d82d0b63542afdd37bb4bf,,,,,,,decisionTrl,resources/DY.BMP,resources/DG.BMP,Door2,0.428842468,-0.093518562,1,0,0,2.9119,optionRight,40,11690,6,2,0,2,0,1,,,,,,,,,,,,,,,,,,,,,,,,,,,,,,,,,,,,,,,
,,,,,,,,2023-08-13_02h09.00.777,HF_wild_card,2022.2.4,Win32,59.86590038,602160dd499ff3105e0635ef,64ce5acb97489d65b14ecc7a,64d82d0b63542afdd37bb4bf,,,,,,,sngl,resources/Empty.png,resources/DY.BMP,Door1,0.324213028,-0.090740776,1,0,0,0.8137,optionRight,30,11720,6,3,0,3,0,1,,,,,,,,,,,,,,,,,,,,,,,,,,,,,,,,,,,,,,,
,,,,,,,,2023-08-13_02h09.00.777,HF_wild_card,2022.2.4,Win32,59.86590038,602160dd499ff3105e0635ef,64ce5acb97489d65b14ecc7a,64d82d0b63542afdd37bb4bf,,,,,,,sngl,resources/DR.BMP,resources/Empty.png,WildCard_Ex,-0.473935127,0.018518486,1,0,0,1.0626,optionLeft,5,11725,6,4,0,4,0,1,,,,,,,,,,,,,,,,,,,,,,,,,,,,,,,,,,,,,,,
,,,,,,,,2023-08-13_02h09.00.777,HF_wild_card,2022.2.4,Win32,59.86590038,602160dd499ff3105e0635ef,64ce5acb97489d65b14ecc7a,64d82d0b63542afdd37bb4bf,,,,,,,sngl,resources/DY.BMP,resources/Empty.png,Door1,-0.423935127,-0.004629669,1,0,0,0.7478,optionLeft,30,11755,6,5,0,5,0,1,,,,,,,,,,,,,,,,,,,,,,,,,,,,,,,,,,,,,,,
,,,,,,,,2023-08-13_02h09.00.777,HF_wild_card,2022.2.4,Win32,59.86590038,602160dd499ff3105e0635ef,64ce5acb97489d65b14ecc7a,64d82d0b63542afdd37bb4bf,,,,,,,decisionTrl,resources/DY.BMP,resources/DR.BMP,WildCard_Ex,0.341805649,-0.061111145,1,0,0,1.3794,optionRight,5,11760,6,6,0,6,0,1,,,,,,,,,,,,,,,,,,,,,,,,,,,,,,,,,,,,,,,
,,,,,,,,2023-08-13_02h09.00.777,HF_wild_card,2022.2.4,Win32,59.86590038,602160dd499ff3105e0635ef,64ce5acb97489d65b14ecc7a,64d82d0b63542afdd37bb4bf,,,,,,,decisionTrl,resources/DR.BMP,resources/DY.BMP,WildCard_Ex,-0.268379593,0.002777748,1,0,0,1.4472,optionLeft,95,11855,6,7,0,7,0,1,,,,,,,,,,,,,,,,,,,,,,,,,,,,,,,,,,,,,,,
,,,,,,,,2023-08-13_02h09.00.777,HF_wild_card,2022.2.4,Win32,59.86590038,602160dd499ff3105e0635ef,64ce5acb97489d65b14ecc7a,64d82d0b63542afdd37bb4bf,,,,,,,decisionTrl,resources/DP.BMP,resources/DBN.BMP,Door4,0.28347229,-0.047222252,1,0,0,1.0796,optionRight,60,11915,6,8,0,8,0,1,,,,,,,,,,,,,,,,,,,,,,,,,,,,,,,,,,,,,,,
,,,,,,,,2023-08-13_02h09.00.777,HF_wild_card,2022.2.4,Win32,59.86590038,602160dd499ff3105e0635ef,64ce5acb97489d65b14ecc7a,64d82d0b63542afdd37bb4bf,,,,,,,decisionTrl,resources/DG.BMP,resources/DY.BMP,Door2,-0.220231476,-0.067592621,1,0,0,2.2452,optionLeft,20,11935,6,9,0,9,0,1,,,,,,,,,,,,,,,,,,,,,,,,,,,,,,,,,,,,,,,
,,,,,,,,2023-08-13_02h09.00.777,HF_wild_card,2022.2.4,Win32,59.86590038,602160dd499ff3105e0635ef,64ce5acb97489d65b14ecc7a,64d82d0b63542afdd37bb4bf,,,,,,,sngl,resources/DG.BMP,resources/Empty.png,Door2,-0.19152771,-0.04629631,1,0,0,0.9793,optionLeft,20,11955,6,10,0,10,0,1,,,,,,,,,,,,,,,,,,,,,,,,,,,,,,,,,,,,,,,
,,,,,,,,2023-08-13_02h09.00.777,HF_wild_card,2022.2.4,Win32,59.86590038,602160dd499ff3105e0635ef,64ce5acb97489d65b14ecc7a,64d82d0b63542afdd37bb4bf,,,,,,,ctch,resources/DY.BMP,resources/DBN.BMP,Door4,0.293657455,-0.074074097,1,0,0,1.3626,optionRight,60,12015,6,11,0,11,0,1,,,,,,,,,,,,,,,,,,,,,,,,,,,,,,,,,,,,,,,
,,,,,,,,2023-08-13_02h09.00.777,HF_wild_card,2022.2.4,Win32,59.86590038,602160dd499ff3105e0635ef,64ce5acb97489d65b14ecc7a,64d82d0b63542afdd37bb4bf,,,,,,,decisionTrl,resources/DP.BMP,resources/DR.BMP,WildCard_Ex,0.320509338,-0.050925941,1,0,0,1.9116,optionRight,5,12020,6,12,0,12,0,1,,,,,,,,,,,,,,,,,,,,,,,,,,,,,,,,,,,,,,,
,,,,,,,,2023-08-13_02h09.00.777,HF_wild_card,2022.2.4,Win32,59.86590038,602160dd499ff3105e0635ef,64ce5acb97489d65b14ecc7a,64d82d0b63542afdd37bb4bf,,,,,,,decisionTrl,resources/DY.BMP,resources/DG.BMP,Door2,0.314953766,-0.066666679,1,0,0,1.5122,optionRight,40,12060,6,13,0,13,0,1,,,,,,,,,,,,,,,,,,,,,,,,,,,,,,,,,,,,,,,
,,,,,,,,2023-08-13_02h09.00.777,HF_wild_card,2022.2.4,Win32,59.86590038,602160dd499ff3105e0635ef,64ce5acb97489d65b14ecc7a,64d82d0b63542afdd37bb4bf,,,,,,,ctch,resources/DY.BMP,resources/DBN.BMP,Door4,0.352916718,-0.055555573,1,0,0,0.9794,optionRight,80,12140,6,14,0,14,0,1,,,,,,,,,,,,,,,,,,,,,,,,,,,,,,,,,,,,,,,
,,,,,,,,2023-08-13_02h09.00.777,HF_wild_card,2022.2.4,Win32,59.86590038,602160dd499ff3105e0635ef,64ce5acb97489d65b14ecc7a,64d82d0b63542afdd37bb4bf,,,,,,,sngl,resources/DP.BMP,resources/Empty.png,Door3,-0.189675903,-0.050925941,1,0,0,1.0627,optionLeft,70,12210,6,15,0,15,0,1,,,,,,,,,,,,,,,,,,,,,,,,,,,,,,,,,,,,,,,
,,,,,,,,2023-08-13_02h09.00.777,HF_wild_card,2022.2.4,Win32,59.86590038,602160dd499ff3105e0635ef,64ce5acb97489d65b14ecc7a,64d82d0b63542afdd37bb4bf,,,,,,,ctch,resources/DBN.BMP,resources/DY.BMP,Door4,-0.281342545,-0.038888931,1,0,0,1.0795,optionLeft,80,12290,6,16,0,16,0,1,,,,,,,,,,,,,,,,,,,,,,,,,,,,,,,,,,,,,,,
,,,,,,,,2023-08-13_02h09.00.777,HF_wild_card,2022.2.4,Win32,59.86590038,602160dd499ff3105e0635ef,64ce5acb97489d65b14ecc7a,64d82d0b63542afdd37bb4bf,,,,,,,decisionTrl,resources/DY.BMP,resources/DG.BMP,Door1,-0.167453613,-0.031481514,1,0,0,2.4285,optionLeft,30,12320,6,17,0,17,0,1,,,,,,,,,,,,,,,,,,,,,,,,,,,,,,,,,,,,,,,
,,,,,,,,2023-08-13_02h09.00.777,HF_wild_card,2022.2.4,Win32,59.86590038,602160dd499ff3105e0635ef,64ce5acb97489d65b14ecc7a,64d82d0b63542afdd37bb4bf,,,,,,,decisionTrl,resources/DP.BMP,resources/DBN.BMP,Door4,0.268657455,-0.045370407,1,0,0,0.9959,optionRight,80,12400,6,18,0,18,0,1,,,,,,,,,,,,,,,,,,,,,,,,,,,,,,,,,,,,,,,
,,,,,,,,2023-08-13_02h09.00.777,HF_wild_card,2022.2.4,Win32,59.86590038,602160dd499ff3105e0635ef,64ce5acb97489d65b14ecc7a,64d82d0b63542afdd37bb4bf,,,,,,,sngl,resources/DBN.BMP,resources/Empty.png,Door4,-0.253564796,-0.031481514,1,0,0,0.8957,optionLeft,60,12460,6,19,0,19,0,1,,,,,,,,,,,,,,,,,,,,,,,,,,,,,,,,,,,,,,,
,,,,,,,,2023-08-13_02h09.00.777,HF_wild_card,2022.2.4,Win32,59.86590038,602160dd499ff3105e0635ef,64ce5acb97489d65b14ecc7a,64d82d0b63542afdd37bb4bf,,,,,,,ctch,resources/DP.BMP,resources/DG.BMP,Door3,-0.2794907,-0.039814835,1,0,0,1.4793,optionLeft,70,12530,6,20,0,20,0,1,,,,,,,,,,,,,,,,,,,,,,,,,,,,,,,,,,,,,,,
,,,,,,,,2023-08-13_02h09.00.777,HF_wild_card,2022.2.4,Win32,59.86590038,602160dd499ff3105e0635ef,64ce5acb97489d65b14ecc7a,64d82d0b63542afdd37bb4bf,,,,,,,decisionTrl,resources/DG.BMP,resources/DR.BMP,WildCard_Ex,0.295509338,-0.03796299,1,0,0,1.6123,optionRight,5,12535,6,21,0,21,0,1,,,,,,,,,,,,,,,,,,,,,,,,,,,,,,,,,,,,,,,
,,,,,,,,2023-08-13_02h09.00.777,HF_wild_card,2022.2.4,Win32,59.86590038,602160dd499ff3105e0635ef,64ce5acb97489d65b14ecc7a,64d82d0b63542afdd37bb4bf,,,,,,,decisionTrl,resources/DR.BMP,resources/DBN.BMP,WildCard_Ex,-0.296157379,-0.023148117,1,0,0,2.1286,optionLeft,5,12540,6,22,0,22,0,1,,,,,,,,,,,,,,,,,,,,,,,,,,,,,,,,,,,,,,,
,,,,,,,,2023-08-13_02h09.00.777,HF_wild_card,2022.2.4,Win32,59.86590038,602160dd499ff3105e0635ef,64ce5acb97489d65b14ecc7a,64d82d0b63542afdd37bb4bf,,,,,,,ctch,resources/DP.BMP,resources/DG.BMP,Door3,-0.210972214,-0.037037048,1,0,0,1.4456,optionLeft,70,12610,6,23,0,23,0,1,,,,,,,,,,,,,,,,,,,,,,,,,,,,,,,,,,,,,,,
,,,,,,,,2023-08-13_02h09.00.777,HF_wild_card,2022.2.4,Win32,59.86590038,602160dd499ff3105e0635ef,64ce5acb97489d65b14ecc7a,64d82d0b63542afdd37bb4bf,,,,,,,decisionTrl,resources/DG.BMP,resources/DY.BMP,Door2,-0.193379593,-0.038888931,1,0,0,1.4793,optionLeft,20,12630,6,24,0,24,0,1,,,,,,,,,,,,,,,,,,,,,,,,,,,,,,,,,,,,,,,
,,,,,,,,2023-08-13_02h09.00.777,HF_wild_card,2022.2.4,Win32,59.86590038,602160dd499ff3105e0635ef,64ce5acb97489d65b14ecc7a,64d82d0b63542afdd37bb4bf,,,,,,,decisionTrl,resources/DBN.BMP,resources/DP.BMP,Door4,-0.25078701,-0.050925941,1,0,0,0.9288,optionLeft,60,12690,6,25,0,25,0,1,,,,,,,,,,,,,,,,,,,,,,,,,,,,,,,,,,,,,,,
,,,,,,,,2023-08-13_02h09.00.777,HF_wild_card,2022.2.4,Win32,59.86590038,602160dd499ff3105e0635ef,64ce5acb97489d65b14ecc7a,64d82d0b63542afdd37bb4bf,,,,,,,ctch,resources/DG.BMP,resources/DP.BMP,Door3,0.361250076,-0.088888931,1,0,0,1.579,optionRight,70,12760,6,26,0,26,0,1,,,,,,,,,,,,,,,,,,,,,,,,,,,,,,,,,,,,,,,
,,,,,,,,2023-08-13_02h09.00.777,HF_wild_card,2022.2.4,Win32,59.86590038,602160dd499ff3105e0635ef,64ce5acb97489d65b14ecc7a,64d82d0b63542afdd37bb4bf,,,,,,,decisionTrl,resources/DP.BMP,resources/DBN.BMP,Door4,0.38532402,-0.100000038,1,0,0,1.0127,optionRight,60,12820,6,27,0,27,0,1,,,,,,,,,,,,,,,,,,,,,,,,,,,,,,,,,,,,,,,
,,,,,,,,2023-08-13_02h09.00.777,HF_wild_card,2022.2.4,Win32,59.86590038,602160dd499ff3105e0635ef,64ce5acb97489d65b14ecc7a,64d82d0b63542afdd37bb4bf,,,,,,,sngl,resources/DR.BMP,resources/Empty.png,WildCard_Ex,-0.298009224,-0.056481514,1,0,0,1.1296,optionLeft,95,12915,6,28,0,28,0,1,,,,,,,,,,,,,,,,,,,,,,,,,,,,,,,,,,,,,,,
,,,,,,,,2023-08-13_02h09.00.777,HF_wild_card,2022.2.4,Win32,59.86590038,602160dd499ff3105e0635ef,64ce5acb97489d65b14ecc7a,64d82d0b63542afdd37bb4bf,,,,,,,ctch,resources/DBN.BMP,resources/DY.BMP,Door4,-0.31745369,-0.073148193,1,0,0,1.1623,optionLeft,60,12975,6,29,0,29,0,1,,,,,,,,,,,,,,,,,,,,,,,,,,,,,,,,,,,,,,,
,,,,,,,,2023-08-13_02h09.00.777,HF_wild_card,2022.2.4,Win32,59.86590038,602160dd499ff3105e0635ef,64ce5acb97489d65b14ecc7a,64d82d0b63542afdd37bb4bf,,,,,,,decisionTrl,resources/DBN.BMP,resources/DR.BMP,WildCard_Ex,0.280694504,-0.075000038,1,0,0,2.2796,optionRight,5,12980,6,30,0,30,0,1,,,,,,,,,,,,,,,,,,,,,,,,,,,,,,,,,,,,,,,
,,,,,,,,2023-08-13_02h09.00.777,HF_wild_card,2022.2.4,Win32,59.86590038,602160dd499ff3105e0635ef,64ce5acb97489d65b14ecc7a,64d82d0b63542afdd37bb4bf,,,,,,,decisionTrl,resources/DBN.BMP,resources/DP.BMP,Door4,-0.239675903,-0.076851883,1,0,0,1.0286,optionLeft,80,13060,6,31,0,31,0,1,,,,,,,,,,,,,,,,,,,,,,,,,,,,,,,,,,,,,,,
,,,,,,,,2023-08-13_02h09.00.777,HF_wild_card,2022.2.4,Win32,59.86590038,602160dd499ff3105e0635ef,64ce5acb97489d65b14ecc7a,64d82d0b63542afdd37bb4bf,,,,,,,sngl,resources/Empty.png,resources/DBN.BMP,Door4,0.222361145,-0.039814835,1,0,0,0.8628,optionRight,80,13140,6,32,0,32,0,1,,,,,,,,,,,,,,,,,,,,,,,,,,,,,,,,,,,,,,,
,,,,,,,,2023-08-13_02h09.00.777,HF_wild_card,2022.2.4,Win32,59.86590038,602160dd499ff3105e0635ef,64ce5acb97489d65b14ecc7a,64d82d0b63542afdd37bb4bf,,,,,,,sngl,resources/Empty.png,resources/DR.BMP,WildCard_Ex,0.336250076,-0.093518562,1,0,0,0.8294,optionRight,95,13235,6,33,0,33,0,1,,,,,,,,,,,,,,,,,,,,,,,,,,,,,,,,,,,,,,,
,,,,,,,,2023-08-13_02h09.00.777,HF_wild_card,2022.2.4,Win32,59.86590038,602160dd499ff3105e0635ef,64ce5acb97489d65b14ecc7a,64d82d0b63542afdd37bb4bf,,,,,,,decisionTrl,resources/DG.BMP,resources/DY.BMP,Door2,-0.18875,-0.043518562,1,0,0,1.6129,optionLeft,40,13275,6,34,0,34,0,1,,,,,,,,,,,,,,,,,,,,,,,,,,,,,,,,,,,,,,,
,,,,,,,,2023-08-13_02h09.00.777,HF_wild_card,2022.2.4,Win32,59.86590038,602160dd499ff3105e0635ef,64ce5acb97489d65b14ecc7a,64d82d0b63542afdd37bb4bf,,,,,,,decisionTrl,resources/DR.BMP,resources/DG.BMP,WildCard_Ex,-0.210972214,-0.081481514,1,0,0,1.1636,optionLeft,95,13370,6,35,0,35,0,1,,,,,,,,,,,,,,,,,,,,,,,,,,,,,,,,,,,,,,,
,,,,,,,,2023-08-13_02h09.00.777,HF_wild_card,2022.2.4,Win32,59.86590038,602160dd499ff3105e0635ef,64ce5acb97489d65b14ecc7a,64d82d0b63542afdd37bb4bf,,,,,,,sngl,resources/Empty.png,resources/DP.BMP,Door3,0.246435242,-0.069444466,1,0,0,0.9126,optionRight,70,13440,6,36,0,36,0,1,,,,,,,,,,,,,,,,,,,,,,,,,,,,,,,,,,,,,,,
,,,,,,,,2023-08-13_02h09.00.777,HF_wild_card,2022.2.4,Win32,59.86590038,602160dd499ff3105e0635ef,64ce5acb97489d65b14ecc7a,64d82d0b63542afdd37bb4bf,,,,,,,decisionTrl,resources/DR.BMP,resources/DP.BMP,WildCard_Ex,-0.271157379,-0.077777748,1,0,0,1.9789,optionLeft,95,13535,6,37,0,37,0,1,,,,,,,,,,,,,,,,,,,,,,,,,,,,,,,,,,,,,,,
,,,,,,,,2023-08-13_02h09.00.777,HF_wild_card,2022.2.4,Win32,59.86590038,602160dd499ff3105e0635ef,64ce5acb97489d65b14ecc7a,64d82d0b63542afdd37bb4bf,,,,,,,sngl,resources/Empty.png,resources/DR.BMP,WildCard_Ex,0.277916718,-0.092592621,1,0,0,1.0458,optionRight,5,13540,6,38,0,38,0,1,,,,,,,,,,,,,,,,,,,,,,,,,,,,,,,,,,,,,,,
,,,,,,,,2023-08-13_02h09.00.777,HF_wild_card,2022.2.4,Win32,59.86590038,602160dd499ff3105e0635ef,64ce5acb97489d65b14ecc7a,64d82d0b63542afdd37bb4bf,,,,,,,decisionTrl,resources/DG.BMP,resources/DY.BMP,Door2,-0.210972214,-0.08703701,1,0,0,1.7128,optionLeft,20,13560,6,39,0,39,0,1,,,,,,,,,,,,,,,,,,,,,,,,,,,,,,,,,,,,,,,
,,,,,,,,2023-08-13_02h09.00.777,HF_wild_card,2022.2.4,Win32,59.86590038,602160dd499ff3105e0635ef,64ce5acb97489d65b14ecc7a,64d82d0b63542afdd37bb4bf,,,,,,,ctch,resources/DG.BMP,resources/DP.BMP,Door3,0.23532402,-0.155555496,1,0,0,1.1459,optionRight,70,13630,6,40,0,40,0,1,,,,,,,,,,,,,,,,,,,,,,,,,,,,,,,,,,,,,,,
,,,,,,,,2023-08-13_02h09.00.777,HF_wild_card,2022.2.4,Win32,59.86590038,602160dd499ff3105e0635ef,64ce5acb97489d65b14ecc7a,64d82d0b63542afdd37bb4bf,,,,,,,decisionTrl,resources/DBN.BMP,resources/DP.BMP,Door4,-0.263749962,-0.027777748,1,0,0,1.0294,optionLeft,60,13690,6,41,0,41,0,1,,,,,,,,,,,,,,,,,,,,,,,,,,,,,,,,,,,,,,,
,,,,,,,,2023-08-13_02h09.00.777,HF_wild_card,2022.2.4,Win32,59.86590038,602160dd499ff3105e0635ef,64ce5acb97489d65b14ecc7a,64d82d0b63542afdd37bb4bf,,,,,,,decisionTrl,resources/DBN.BMP,resources/DP.BMP,Door4,-0.21652771,-0.005555573,1,0,0,1.0631,optionLeft,60,13750,6,42,0,42,0,1,,,,,,,,,,,,,,,,,,,,,,,,,,,,,,,,,,,,,,,
,,,,,,,,2023-08-13_02h09.00.777,HF_wild_card,2022.2.4,Win32,59.86590038,602160dd499ff3105e0635ef,64ce5acb97489d65b14ecc7a,64d82d0b63542afdd37bb4bf,,,,,,,decisionTrl,resources/DY.BMP,resources/DG.BMP,Door1,-0.159120255,-0.050925941,1,0,0,1.8955,optionLeft,30,13780,6,43,0,43,0,1,,,,,,,,,,,,,,,,,,,,,,,,,,,,,,,,,,,,,,,
,,,,,,,,2023-08-13_02h09.00.777,HF_wild_card,2022.2.4,Win32,59.86590038,602160dd499ff3105e0635ef,64ce5acb97489d65b14ecc7a,64d82d0b63542afdd37bb4bf,,,,,,,,,,,,,,,,,,,,,,,,,,5,0,5,0,1,,,,,,,,,,,,,,,,,,,,,,,,,,,,,,,,,,
,,,,,,,,2023-08-13_02h09.00.777,HF_wild_card,2022.2.4,Win32,59.86590038,602160dd499ff3105e0635ef,64ce5acb97489d65b14ecc7a,64d82d0b63542afdd37bb4bf,,,,,,,decisionTrl,resources/DBN.BMP,resources/DP.BMP,Door4,-0.235046234,-0.069444466,1,0,0,1.7009,optionLeft,60,13840,7,0,0,0,0,1,,,,,,,,,,,,,,,,,,,,,,,,,,,,,,,,,,,,,,,
,,,,,,,,2023-08-13_02h09.00.777,HF_wild_card,2022.2.4,Win32,59.86590038,602160dd499ff3105e0635ef,64ce5acb97489d65b14ecc7a,64d82d0b63542afdd37bb4bf,,,,,,,decisionTrl,resources/DP.BMP,resources/DBN.BMP,Door4,0.442731476,-0.1342593,1,0,0,2.0206,optionRight,60,13900,7,1,0,1,0,1,,,,,,,,,,,,,,,,,,,,,,,,,,,,,,,,,,,,,,,
,,,,,,,,2023-08-13_02h09.00.777,HF_wild_card,2022.2.4,Win32,59.86590038,602160dd499ff3105e0635ef,64ce5acb97489d65b14ecc7a,64d82d0b63542afdd37bb4bf,,,,,,,decisionTrl,resources/DY.BMP,resources/DG.BMP,Door1,-0.263749962,-0.070370407,1,0,0,2.2962,optionLeft,30,13930,7,2,0,2,0,1,,,,,,,,,,,,,,,,,,,,,,,,,,,,,,,,,,,,,,,
,,,,,,,,2023-08-13_02h09.00.777,HF_wild_card,2022.2.4,Win32,59.86590038,602160dd499ff3105e0635ef,64ce5acb97489d65b14ecc7a,64d82d0b63542afdd37bb4bf,,,,,,,decisionTrl,resources/DBN.BMP,resources/DP.BMP,Door4,-0.255416641,-0.041666679,1,0,0,1.3132,optionLeft,80,14010,7,3,0,3,0,1,,,,,,,,,,,,,,,,,,,,,,,,,,,,,,,,,,,,,,,
,,,,,,,,2023-08-13_02h09.00.777,HF_wild_card,2022.2.4,Win32,59.86590038,602160dd499ff3105e0635ef,64ce5acb97489d65b14ecc7a,64d82d0b63542afdd37bb4bf,,,,,,,decisionTrl,resources/DY.BMP,resources/DG.BMP,Door1,-0.234120331,-0.069444466,1,0,0,1.7307,optionLeft,30,14040,7,4,0,4,0,1,,,,,,,,,,,,,,,,,,,,,,,,,,,,,,,,,,,,,,,
,,,,,,,,2023-08-13_02h09.00.777,HF_wild_card,2022.2.4,Win32,59.86590038,602160dd499ff3105e0635ef,64ce5acb97489d65b14ecc7a,64d82d0b63542afdd37bb4bf,,,,,,,ctch,resources/DY.BMP,resources/DBN.BMP,Door4,0.26032402,-0.075925941,1,0,0,1.2807,optionRight,60,14100,7,5,0,5,0,1,,,,,,,,,,,,,,,,,,,,,,,,,,,,,,,,,,,,,,,
,,,,,,,,2023-08-13_02h09.00.777,HF_wild_card,2022.2.4,Win32,59.86590038,602160dd499ff3105e0635ef,64ce5acb97489d65b14ecc7a,64d82d0b63542afdd37bb4bf,,,,,,,ctch,resources/DBN.BMP,resources/DY.BMP,Door4,-0.2794907,-0.043518562,1,0,0,0.9644,optionLeft,80,14180,7,6,0,6,0,1,,,,,,,,,,,,,,,,,,,,,,,,,,,,,,,,,,,,,,,
,,,,,,,,2023-08-13_02h09.00.777,HF_wild_card,2022.2.4,Win32,59.86590038,602160dd499ff3105e0635ef,64ce5acb97489d65b14ecc7a,64d82d0b63542afdd37bb4bf,,,,,,,decisionTrl,resources/DY.BMP,resources/DG.BMP,Door1,-0.207268524,-0.092592621,1,0,0,2.2374,optionLeft,30,14210,7,7,0,7,0,1,,,,,,,,,,,,,,,,,,,,,,,,,,,,,,,,,,,,,,,
,,,,,,,,2023-08-13_02h09.00.777,HF_wild_card,2022.2.4,Win32,59.86590038,602160dd499ff3105e0635ef,64ce5acb97489d65b14ecc7a,64d82d0b63542afdd37bb4bf,,,,,,,decisionTrl,resources/DP.BMP,resources/DBN.BMP,Door4,0.366805649,-0.100000038,1,0,0,1.1803,optionRight,60,14270,7,8,0,8,0,1,,,,,,,,,,,,,,,,,,,,,,,,,,,,,,,,,,,,,,,
,,,,,,,,2023-08-13_02h09.00.777,HF_wild_card,2022.2.4,Win32,59.86590038,602160dd499ff3105e0635ef,64ce5acb97489d65b14ecc7a,64d82d0b63542afdd37bb4bf,,,,,,,decisionTrl,resources/DBN.BMP,resources/DP.BMP,Door4,-0.335046272,-0.044444466,1,0,0,0.9812,optionLeft,60,14330,7,9,0,9,0,1,,,,,,,,,,,,,,,,,,,,,,,,,,,,,,,,,,,,,,,
,,,,,,,,2023-08-13_02h09.00.777,HF_wild_card,2022.2.4,Win32,59.86590038,602160dd499ff3105e0635ef,64ce5acb97489d65b14ecc7a,64d82d0b63542afdd37bb4bf,,,,,,,decisionTrl,resources/DG.BMP,resources/DY.BMP,Door1,0.372361145,-0.0842593,1,0,0,1.8638,optionRight,30,14360,7,10,0,10,0,1,,,,,,,,,,,,,,,,,,,,,,,,,,,,,,,,,,,,,,,
,,,,,,,,2023-08-13_02h09.00.777,HF_wild_card,2022.2.4,Win32,59.86590038,602160dd499ff3105e0635ef,64ce5acb97489d65b14ecc7a,64d82d0b63542afdd37bb4bf,,,,,,,ctch,resources/DG.BMP,resources/DP.BMP,Door3,0.325138931,-0.074074097,1,0,0,1.6293,optionRight,70,14430,7,11,0,11,0,1,,,,,,,,,,,,,,,,,,,,,,,,,,,,,,,,,,,,,,,
,,,,,,,,2023-08-13_02h09.00.777,HF_wild_card,2022.2.4,Win32,59.86590038,602160dd499ff3105e0635ef,64ce5acb97489d65b14ecc7a,64d82d0b63542afdd37bb4bf,,,,,,,decisionTrl,resources/DP.BMP,resources/DBN.BMP,Door4,0.493657532,-0.07129631,1,0,0,1.3795,optionRight,60,14490,7,12,0,12,0,1,,,,,,,,,,,,,,,,,,,,,,,,,,,,,,,,,,,,,,,
,,,,,,,,2023-08-13_02h09.00.777,HF_wild_card,2022.2.4,Win32,59.86590038,602160dd499ff3105e0635ef,64ce5acb97489d65b14ecc7a,64d82d0b63542afdd37bb4bf,,,,,,,ctch,resources/DP.BMP,resources/DG.BMP,Door3,-0.23782402,-0.08703701,1,0,0,1.7961,optionLeft,70,14560,7,13,0,13,0,1,,,,,,,,,,,,,,,,,,,,,,,,,,,,,,,,,,,,,,,
,,,,,,,,2023-08-13_02h09.00.777,HF_wild_card,2022.2.4,Win32,59.86590038,602160dd499ff3105e0635ef,64ce5acb97489d65b14ecc7a,64d82d0b63542afdd37bb4bf,,,,,,,ctch,resources/DBN.BMP,resources/DY.BMP,Door4,-0.377638855,-0.026851883,1,0,0,1.0638,optionLeft,60,14620,7,14,0,14,0,1,,,,,,,,,,,,,,,,,,,,,,,,,,,,,,,,,,,,,,,
,,,,,,,,2023-08-13_02h09.00.777,HF_wild_card,2022.2.4,Win32,59.86590038,602160dd499ff3105e0635ef,64ce5acb97489d65b14ecc7a,64d82d0b63542afdd37bb4bf,,,,,,,ctch,resources/DBN.BMP,resources/DY.BMP,Door4,-0.266527748,-0.022222252,1,0,0,1.1151,optionLeft,60,14680,7,15,0,15,0,1,,,,,,,,,,,,,,,,,,,,,,,,,,,,,,,,,,,,,,,
,,,,,,,,2023-08-13_02h09.00.777,HF_wild_card,2022.2.4,Win32,59.86590038,602160dd499ff3105e0635ef,64ce5acb97489d65b14ecc7a,64d82d0b63542afdd37bb4bf,,,,,,,decisionTrl,resources/DG.BMP,resources/DY.BMP,Door1,0.372361145,-0.072222252,1,0,0,1.5307,optionRight,30,14710,7,16,0,16,0,1,,,,,,,,,,,,,,,,,,,,,,,,,,,,,,,,,,,,,,,
,,,,,,,,2023-08-13_02h09.00.777,HF_wild_card,2022.2.4,Win32,59.86590038,602160dd499ff3105e0635ef,64ce5acb97489d65b14ecc7a,64d82d0b63542afdd37bb4bf,,,,,,,ctch,resources/DY.BMP,resources/DBN.BMP,Door4,0.378842545,-0.065740776,1,0,0,0.9976,optionRight,80,14790,7,17,0,17,0,1,,,,,,,,,,,,,,,,,,,,,,,,,,,,,,,,,,,,,,,
,,,,,,,,2023-08-13_02h09.00.777,HF_wild_card,2022.2.4,Win32,59.86590038,602160dd499ff3105e0635ef,64ce5acb97489d65b14ecc7a,64d82d0b63542afdd37bb4bf,,,,,,,ctch,resources/DY.BMP,resources/DBN.BMP,Door4,0.426990814,-0.075925941,1,0,0,0.9477,optionRight,80,14870,7,18,0,18,0,1,,,,,,,,,,,,,,,,,,,,,,,,,,,,,,,,,,,,,,,
,,,,,,,,2023-08-13_02h09.00.777,HF_wild_card,2022.2.4,Win32,59.86590038,602160dd499ff3105e0635ef,64ce5acb97489d65b14ecc7a,64d82d0b63542afdd37bb4bf,,,,,,,decisionTrl,resources/DBN.BMP,resources/DP.BMP,Door4,-0.331342621,-0.036111145,1,0,0,1.1975,optionLeft,80,14950,7,19,0,19,0,1,,,,,,,,,,,,,,,,,,,,,,,,,,,,,,,,,,,,,,,
,,,,,,,,2023-08-13_02h09.00.777,HF_wild_card,2022.2.4,Win32,59.86590038,602160dd499ff3105e0635ef,64ce5acb97489d65b14ecc7a,64d82d0b63542afdd37bb4bf,,,,,,,ctch,resources/DG.BMP,resources/DP.BMP,Door3,0.336250076,-0.02129631,1,0,0,1.4974,optionRight,70,15020,7,20,0,20,0,1,,,,,,,,,,,,,,,,,,,,,,,,,,,,,,,,,,,,,,,
,,,,,,,,2023-08-13_02h09.00.777,HF_wild_card,2022.2.4,Win32,59.86590038,602160dd499ff3105e0635ef,64ce5acb97489d65b14ecc7a,64d82d0b63542afdd37bb4bf,,,,,,,decisionTrl,resources/DY.BMP,resources/DG.BMP,Door1,-0.263749962,-0.012037048,1,0,0,1.3472,optionLeft,30,15050,7,21,0,21,0,1,,,,,,,,,,,,,,,,,,,,,,,,,,,,,,,,,,,,,,,
,,,,,,,,2023-08-13_02h09.00.777,HF_wild_card,2022.2.4,Win32,59.86590038,602160dd499ff3105e0635ef,64ce5acb97489d65b14ecc7a,64d82d0b63542afdd37bb4bf,,,,,,,ctch,resources/DP.BMP,resources/DG.BMP,Door3,-0.244305496,-0.010185204,1,0,0,1.2306,optionLeft,70,15120,7,22,0,22,0,1,,,,,,,,,,,,,,,,,,,,,,,,,,,,,,,,,,,,,,,
,,,,,,,,2023-08-13_02h09.00.777,HF_wild_card,2022.2.4,Win32,59.86590038,602160dd499ff3105e0635ef,64ce5acb97489d65b14ecc7a,64d82d0b63542afdd37bb4bf,,,,,,,decisionTrl,resources/DY.BMP,resources/DG.BMP,Door1,-0.248009262,-0.010185204,1,0,0,1.8632,optionLeft,30,15150,7,23,0,23,0,1,,,,,,,,,,,,,,,,,,,,,,,,,,,,,,,,,,,,,,,
,,,,,,,,2023-08-13_02h09.00.777,HF_wild_card,2022.2.4,Win32,59.86590038,602160dd499ff3105e0635ef,64ce5acb97489d65b14ecc7a,64d82d0b63542afdd37bb4bf,,,,,,,ctch,resources/DG.BMP,resources/DP.BMP,Door3,0.367731552,-0.049074097,1,0,0,1.5303,optionRight,70,15220,7,24,0,24,0,1,,,,,,,,,,,,,,,,,,,,,,,,,,,,,,,,,,,,,,,
,,,,,,,,2023-08-13_02h09.00.777,HF_wild_card,2022.2.4,Win32,59.86590038,602160dd499ff3105e0635ef,64ce5acb97489d65b14ecc7a,64d82d0b63542afdd37bb4bf,,,,,,,decisionTrl,resources/DG.BMP,resources/DY.BMP,Door1,0.426990814,-0.063888931,1,0,0,1.6048,optionRight,30,15250,7,25,0,25,0,1,,,,,,,,,,,,,,,,,,,,,,,,,,,,,,,,,,,,,,,
,,,,,,,,2023-08-13_02h09.00.777,HF_wild_card,2022.2.4,Win32,59.86590038,602160dd499ff3105e0635ef,64ce5acb97489d65b14ecc7a,64d82d0b63542afdd37bb4bf,,,,,,,ctch,resources/DP.BMP,resources/DG.BMP,Door3,-0.289675903,-0.055555573,1,0,0,1.1305,optionLeft,70,15320,7,26,0,26,0,1,,,,,,,,,,,,,,,,,,,,,,,,,,,,,,,,,,,,,,,
,,,,,,,,2023-08-13_02h09.00.777,HF_wild_card,2022.2.4,Win32,59.86590038,602160dd499ff3105e0635ef,64ce5acb97489d65b14ecc7a,64d82d0b63542afdd37bb4bf,,,,,,,decisionTrl,resources/DP.BMP,resources/DBN.BMP,Door4,0.3547686,-0.051851883,1,0,0,1.1971,optionRight,60,15380,7,27,0,27,0,1,,,,,,,,,,,,,,,,,,,,,,,,,,,,,,,,,,,,,,,
,,,,,,,,2023-08-13_02h09.00.777,HF_wild_card,2022.2.4,Win32,59.86590038,602160dd499ff3105e0635ef,64ce5acb97489d65b14ecc7a,64d82d0b63542afdd37bb4bf,,,,,,,decisionTrl,resources/DG.BMP,resources/DY.BMP,Door1,0.353842545,-0.090740776,1,0,0,1.6305,optionRight,30,15410,7,28,0,28,0,1,,,,,,,,,,,,,,,,,,,,,,,,,,,,,,,,,,,,,,,
,,,,,,,,2023-08-13_02h09.00.777,HF_wild_card,2022.2.4,Win32,59.86590038,602160dd499ff3105e0635ef,64ce5acb97489d65b14ecc7a,64d82d0b63542afdd37bb4bf,,,,,,,decisionTrl,resources/DP.BMP,resources/DBN.BMP,Door4,0.409398193,-0.03796299,1,0,0,1.1134,optionRight,80,15490,7,29,0,29,0,1,,,,,,,,,,,,,,,,,,,,,,,,,,,,,,,,,,,,,,,
,,,,,,,,2023-08-13_02h09.00.777,HF_wild_card,2022.2.4,Win32,59.86590038,602160dd499ff3105e0635ef,64ce5acb97489d65b14ecc7a,64d82d0b63542afdd37bb4bf,,,,,,,decisionTrl,resources/DBN.BMP,resources/DP.BMP,Door4,-0.328564796,-0.093518562,1,0,0,0.9801,optionLeft,80,15570,7,30,0,30,0,1,,,,,,,,,,,,,,,,,,,,,,,,,,,,,,,,,,,,,,,
,,,,,,,,2023-08-13_02h09.00.777,HF_wild_card,2022.2.4,Win32,59.86590038,602160dd499ff3105e0635ef,64ce5acb97489d65b14ecc7a,64d82d0b63542afdd37bb4bf,,,,,,,decisionTrl,resources/DG.BMP,resources/DY.BMP,Door1,0.270509338,-0.027777748,1,0,0,1.5214,optionRight,30,15600,7,31,0,31,0,1,,,,,,,,,,,,,,,,,,,,,,,,,,,,,,,,,,,,,,,
,,,,,,,,2023-08-13_02h09.00.777,HF_wild_card,2022.2.4,Win32,59.86590038,602160dd499ff3105e0635ef,64ce5acb97489d65b14ecc7a,64d82d0b63542afdd37bb4bf,,,,,,,decisionTrl,resources/DY.BMP,resources/DG.BMP,Door1,-0.27671299,-0.0342593,1,0,0,1.3298,optionLeft,30,15630,7,32,0,32,0,1,,,,,,,,,,,,,,,,,,,,,,,,,,,,,,,,,,,,,,,
,,,,,,,,2023-08-13_02h09.00.777,HF_wild_card,2022.2.4,Win32,59.86590038,602160dd499ff3105e0635ef,64ce5acb97489d65b14ecc7a,64d82d0b63542afdd37bb4bf,,,,,,,decisionTrl,resources/DP.BMP,resources/DBN.BMP,Door4,0.290879669,-0.002777786,1,0,0,1.4297,optionRight,60,15690,7,33,0,33,0,1,,,,,,,,,,,,,,,,,,,,,,,,,,,,,,,,,,,,,,,
,,,,,,,,2023-08-13_02h09.00.777,HF_wild_card,2022.2.4,Win32,59.86590038,602160dd499ff3105e0635ef,64ce5acb97489d65b14ecc7a,64d82d0b63542afdd37bb4bf,,,,,,,decisionTrl,resources/DBN.BMP,resources/DP.BMP,Door4,-0.3294907,-0.043518562,1,0,0,1.0308,optionLeft,60,15750,7,34,0,34,0,1,,,,,,,,,,,,,,,,,,,,,,,,,,,,,,,,,,,,,,,
,,,,,,,,2023-08-13_02h09.00.777,HF_wild_card,2022.2.4,Win32,59.86590038,602160dd499ff3105e0635ef,64ce5acb97489d65b14ecc7a,64d82d0b63542afdd37bb4bf,,,,,,,decisionTrl,resources/DG.BMP,resources/DY.BMP,Door1,0.371435242,-0.049074097,1,0,0,1.5712,optionRight,30,15780,7,35,0,35,0,1,,,,,,,,,,,,,,,,,,,,,,,,,,,,,,,,,,,,,,,
,,,,,,,,2023-08-13_02h09.00.777,HF_wild_card,2022.2.4,Win32,59.86590038,602160dd499ff3105e0635ef,64ce5acb97489d65b14ecc7a,64d82d0b63542afdd37bb4bf,,,,,,,,,,,,,,,,,,,,,,,,,,6,0,6,0,1,,,,,,,,,,,,,,,,,,,,,,,,,,,,,,,,,,
,,,,,,,,2023-08-13_02h09.00.777,HF_wild_card,2022.2.4,Win32,59.86590038,602160dd499ff3105e0635ef,64ce5acb97489d65b14ecc7a,64d82d0b63542afdd37bb4bf,,,,,,,,,,,,,,,,,,,,,,,,,,,,,,,3,,,,,,,,,,,,,,,,,,,,,,,,,,,,,,,,,
,,,,,,,,2023-08-13_02h09.00.777,HF_wild_card,2022.2.4,Win32,59.86590038,602160dd499ff3105e0635ef,64ce5acb97489d65b14ecc7a,64d82d0b63542afdd37bb4bf,,,,,,,,,,,,,,,,,,,,,,,,,,,,,,,,,,,,,,,,,,,,,,,,,,,,,,,,,,,,,,,,
,,,,,,,,2023-08-13_02h09.00.777,HF_wild_card,2022.2.4,Win32,59.86590038,602160dd499ff3105e0635ef,64ce5acb97489d65b14ecc7a,64d82d0b63542afdd37bb4bf,,,,,,,,,,,,,,,,,,,,,,,,,,,,,,,,95,WC_extreme,resources/DR.BMP,0,0,0,0,1,,,,,,,,,,,,,,,,,,,,,,,,,
,,,,,,,,2023-08-13_02h09.00.777,HF_wild_card,2022.2.4,Win32,59.86590038,602160dd499ff3105e0635ef,64ce5acb97489d65b14ecc7a,64d82d0b63542afdd37bb4bf,,,,,,,,,,,,,,,,,,,,,,,,,,,,,,,,60,WC_nonExtreme,resources/DB.BMP,1,0,1,0,1,,,,,,,,,,,,,,,,,,,,,,,,,
,,,,,,,,2023-08-13_02h09.00.777,HF_wild_card,2022.2.4,Win32,59.86590038,602160dd499ff3105e0635ef,64ce5acb97489d65b14ecc7a,64d82d0b63542afdd37bb4bf,,,,,,,,,,,,,,,,,,,,,,,,,,,,,,,,20,Door2,resources/DG.BMP,2,0,2,0,1,,,,,,,,,,,,,,,,,,,,,,,,,
,,,,,,,,2023-08-13_02h09.00.777,HF_wild_card,2022.2.4,Win32,59.86590038,602160dd499ff3105e0635ef,64ce5acb97489d65b14ecc7a,64d82d0b63542afdd37bb4bf,,,,,,,,,,,,,,,,,,,,,,,,,,,,,,,,60,Door4,resources/DBN.BMP,3,0,3,0,1,,,,,,,,,,,,,,,,,,,,,,,,,
,,,,,,,,2023-08-13_02h09.00.777,HF_wild_card,2022.2.4,Win32,59.86590038,602160dd499ff3105e0635ef,64ce5acb97489d65b14ecc7a,64d82d0b63542afdd37bb4bf,,,,,,,,,,,,,,,,,,,,,,,,,,,,,,,,30,Door1,resources/DY.BMP,4,0,4,0,1,,,,,,,,,,,,,,,,,,,,,,,,,
,,,,,,,,2023-08-13_02h09.00.777,HF_wild_card,2022.2.4,Win32,59.86590038,602160dd499ff3105e0635ef,64ce5acb97489d65b14ecc7a,64d82d0b63542afdd37bb4bf,,,,,,,,,,,,,,,,,,,,,,,,,,,,,,,,60,Door3,resources/DP.BMP,5,0,5,0,1,,,,,,,,,,,,,,,,,,,,,,,,,
