Condition,Low fixed image (Door1),Low risky image (Door2),High fixed image (Door3),High risky image (Door4),Extreme Wild Card,NonExtreme Wild Card,,date,expName,psychopyVersion,OS,frameRate,PROLIFIC_PID,STUDY_ID,SESSION_ID,mouse_2.x,mouse_2.y,mouse_2.leftButton,mouse_2.midButton,mouse_2.rightButton,mouse_2.clicked_name,Trial Type,Left Option Image,Right Option Image,Chosen Door,mouse.x,mouse.y,mouse.leftButton,mouse.midButton,mouse.rightButton,mouse.time,mouse.clicked_name,Feedback,Cumulative Reward,Block,trial.thisRepN,trial.thisTrialN,trial.thisN,trial.thisIndex,trial.ran,blocks.thisRepN,blocks.thisTrialN,blocks.thisN,blocks.thisIndex,blocks.ran,Money conversion,First Outcome Reported,Shown Door (First Outcome),Displayed Image (First Outcome),outcomes.thisRepN,outcomes.thisTrialN,outcomes.thisN,outcomes.thisIndex,outcomes.ran,judgments.thisRepN,judgments.thisTrialN,judgments.thisN,judgments.thisIndex,judgments.ran,freqMouse.x,freqMouse.y,freqMouse.leftButton,freqMouse.midButton,freqMouse.rightButton,freqMouse.clicked_name,trials.thisRepN,trials.thisTrialN,trials.thisN,trials.thisIndex,trials.ran,FQJ for first outcome,FQJ for second outcome,Shown Door,Displayed Image,judgBlock.thisRepN,judgBlock.thisTrialN,judgBlock.thisN,judgBlock.thisIndex,judgBlock.ran
1,resources/DP.BMP,resources/DY.BMP,resources/DR.BMP,resources/DB.BMP,resources/DBN.BMP,resources/DG.BMP,,2023-08-06_08h15.17.204,HF_wild_card,2022.2.4,MacIntel,29.85074627,5f5c9cd537f71148d341a0f2,64ce5acb97489d65b14ecc7a,64cf48565f20021d64852ce6,,,,,,,,,,,,,,,,,,,,,,,,,,,,,,,,,,,,,,,,,,,,,,,,,,,,,,,,,,,,,,,,
,,,,,,,,2023-08-06_08h15.17.204,HF_wild_card,2022.2.4,MacIntel,29.85074627,5f5c9cd537f71148d341a0f2,64ce5acb97489d65b14ecc7a,64cf48565f20021d64852ce6,0.024113475,-0.421985816,1,0,0,agree,,,,,,,,,,,,,,,,,,,,,,,,,,,,,,,,,,,,,,,,,,,,,,,,,,,,,,,,,,
,,,,,,,,2023-08-06_08h15.17.204,HF_wild_card,2022.2.4,MacIntel,29.85074627,5f5c9cd537f71148d341a0f2,64ce5acb97489d65b14ecc7a,64cf48565f20021d64852ce6,,,,,,,,,,,,,,,,,,,,,,,,,,,,,,,,,,,,,,,,,,,,,,,,,,,,,,,,,,,,,,,,
,,,,,,,,2023-08-06_08h15.17.204,HF_wild_card,2022.2.4,MacIntel,29.85074627,5f5c9cd537f71148d341a0f2,64ce5acb97489d65b14ecc7a,64cf48565f20021d64852ce6,,,,,,,sngl,resources/Empty.png,resources/DR.BMP,Door3,0.339007092,-0.068794326,1,0,0,1.588,optionRight,70,70,1,0,0,0,0,1,,,,,,,,,,,,,,,,,,,,,,,,,,,,,,,,,,,,,,,
,,,,,,,,2023-08-06_08h15.17.204,HF_wild_card,2022.2.4,MacIntel,29.85074627,5f5c9cd537f71148d341a0f2,64ce5acb97489d65b14ecc7a,64cf48565f20021d64852ce6,,,,,,,sngl,resources/DG.BMP,resources/Empty.png,WildCard_NonEx,-0.373049645,0.016312057,1,0,0,0.833,optionLeft,45,115,1,1,0,1,0,1,,,,,,,,,,,,,,,,,,,,,,,,,,,,,,,,,,,,,,,
,,,,,,,,2023-08-06_08h15.17.204,HF_wild_card,2022.2.4,MacIntel,29.85074627,5f5c9cd537f71148d341a0f2,64ce5acb97489d65b14ecc7a,64cf48565f20021d64852ce6,,,,,,,ctch,resources/DB.BMP,resources/DP.BMP,Door4,-0.303546099,-0.09858156,1,0,0,1.264,optionLeft,80,195,1,2,0,2,0,1,,,,,,,,,,,,,,,,,,,,,,,,,,,,,,,,,,,,,,,
,,,,,,,,2023-08-06_08h15.17.204,HF_wild_card,2022.2.4,MacIntel,29.85074627,5f5c9cd537f71148d341a0f2,64ce5acb97489d65b14ecc7a,64cf48565f20021d64852ce6,,,,,,,ctch,resources/DY.BMP,resources/DR.BMP,Door3,0.30212766,-0.039007092,1,0,0,0.611,optionRight,70,265,1,3,0,3,0,1,,,,,,,,,,,,,,,,,,,,,,,,,,,,,,,,,,,,,,,
,,,,,,,,2023-08-06_08h15.17.204,HF_wild_card,2022.2.4,MacIntel,29.85074627,5f5c9cd537f71148d341a0f2,64ce5acb97489d65b14ecc7a,64cf48565f20021d64852ce6,,,,,,,decisionTrl,resources/DP.BMP,resources/DY.BMP,Door2,0.492198582,-0.057446809,1,0,0,0.623,optionRight,40,305,1,4,0,4,0,1,,,,,,,,,,,,,,,,,,,,,,,,,,,,,,,,,,,,,,,
,,,,,,,,2023-08-06_08h15.17.204,HF_wild_card,2022.2.4,MacIntel,29.85074627,5f5c9cd537f71148d341a0f2,64ce5acb97489d65b14ecc7a,64cf48565f20021d64852ce6,,,,,,,decisionTrl,resources/DB.BMP,resources/DR.BMP,Door3,0.453900709,-0.05035461,1,0,0,0.987,optionRight,70,375,1,5,0,5,0,1,,,,,,,,,,,,,,,,,,,,,,,,,,,,,,,,,,,,,,,
,,,,,,,,2023-08-06_08h15.17.204,HF_wild_card,2022.2.4,MacIntel,29.85074627,5f5c9cd537f71148d341a0f2,64ce5acb97489d65b14ecc7a,64cf48565f20021d64852ce6,,,,,,,sngl,resources/DP.BMP,resources/Empty.png,Door1,-0.283687943,-0.027659574,1,0,0,0.613,optionLeft,30,405,1,6,0,6,0,1,,,,,,,,,,,,,,,,,,,,,,,,,,,,,,,,,,,,,,,
,,,,,,,,2023-08-06_08h15.17.204,HF_wild_card,2022.2.4,MacIntel,29.85074627,5f5c9cd537f71148d341a0f2,64ce5acb97489d65b14ecc7a,64cf48565f20021d64852ce6,,,,,,,ctch,resources/DP.BMP,resources/DB.BMP,Door4,0.30212766,-0.044680851,1,0,0,0.798,optionRight,60,465,1,7,0,7,0,1,,,,,,,,,,,,,,,,,,,,,,,,,,,,,,,,,,,,,,,
,,,,,,,,2023-08-06_08h15.17.204,HF_wild_card,2022.2.4,MacIntel,29.85074627,5f5c9cd537f71148d341a0f2,64ce5acb97489d65b14ecc7a,64cf48565f20021d64852ce6,,,,,,,decisionTrl,resources/DB.BMP,resources/DR.BMP,Door4,-0.262411348,-0.036170213,1,0,0,0.798,optionLeft,80,545,1,8,0,8,0,1,,,,,,,,,,,,,,,,,,,,,,,,,,,,,,,,,,,,,,,
,,,,,,,,2023-08-06_08h15.17.204,HF_wild_card,2022.2.4,MacIntel,29.85074627,5f5c9cd537f71148d341a0f2,64ce5acb97489d65b14ecc7a,64cf48565f20021d64852ce6,,,,,,,ctch,resources/DB.BMP,resources/DP.BMP,Door4,-0.270921986,-0.040425532,1,0,0,0.568,optionLeft,80,625,1,9,0,9,0,1,,,,,,,,,,,,,,,,,,,,,,,,,,,,,,,,,,,,,,,
,,,,,,,,2023-08-06_08h15.17.204,HF_wild_card,2022.2.4,MacIntel,29.85074627,5f5c9cd537f71148d341a0f2,64ce5acb97489d65b14ecc7a,64cf48565f20021d64852ce6,,,,,,,decisionTrl,resources/DR.BMP,resources/DB.BMP,Door4,0.212765957,-0.021985816,1,0,0,0.714,optionRight,80,705,1,10,0,10,0,1,,,,,,,,,,,,,,,,,,,,,,,,,,,,,,,,,,,,,,,
,,,,,,,,2023-08-06_08h15.17.204,HF_wild_card,2022.2.4,MacIntel,29.85074627,5f5c9cd537f71148d341a0f2,64ce5acb97489d65b14ecc7a,64cf48565f20021d64852ce6,,,,,,,decisionTrl,resources/DG.BMP,resources/DP.BMP,Door1,0.343262411,-0.020567376,1,0,0,0.662,optionRight,30,735,1,11,0,11,0,1,,,,,,,,,,,,,,,,,,,,,,,,,,,,,,,,,,,,,,,
,,,,,,,,2023-08-06_08h15.17.204,HF_wild_card,2022.2.4,MacIntel,29.85074627,5f5c9cd537f71148d341a0f2,64ce5acb97489d65b14ecc7a,64cf48565f20021d64852ce6,,,,,,,decisionTrl,resources/DY.BMP,resources/DP.BMP,Door2,-0.242553191,-0.033333333,1,0,0,0.656,optionLeft,40,775,1,12,0,12,0,1,,,,,,,,,,,,,,,,,,,,,,,,,,,,,,,,,,,,,,,
,,,,,,,,2023-08-06_08h15.17.204,HF_wild_card,2022.2.4,MacIntel,29.85074627,5f5c9cd537f71148d341a0f2,64ce5acb97489d65b14ecc7a,64cf48565f20021d64852ce6,,,,,,,decisionTrl,resources/DG.BMP,resources/DR.BMP,WildCard_NonEx,-0.283687943,-0.017730496,1,0,0,0.562,optionLeft,45,820,1,13,0,13,0,1,,,,,,,,,,,,,,,,,,,,,,,,,,,,,,,,,,,,,,,
,,,,,,,,2023-08-06_08h15.17.204,HF_wild_card,2022.2.4,MacIntel,29.85074627,5f5c9cd537f71148d341a0f2,64ce5acb97489d65b14ecc7a,64cf48565f20021d64852ce6,,,,,,,decisionTrl,resources/DP.BMP,resources/DG.BMP,Door1,-0.306382979,-0.021985816,1,0,0,1.192,optionLeft,30,850,1,14,0,14,0,1,,,,,,,,,,,,,,,,,,,,,,,,,,,,,,,,,,,,,,,
,,,,,,,,2023-08-06_08h15.17.204,HF_wild_card,2022.2.4,MacIntel,29.85074627,5f5c9cd537f71148d341a0f2,64ce5acb97489d65b14ecc7a,64cf48565f20021d64852ce6,,,,,,,decisionTrl,resources/DB.BMP,resources/DG.BMP,Door4,-0.422695035,-0.023404255,1,0,0,0.95,optionLeft,80,930,1,15,0,15,0,1,,,,,,,,,,,,,,,,,,,,,,,,,,,,,,,,,,,,,,,
,,,,,,,,2023-08-06_08h15.17.204,HF_wild_card,2022.2.4,MacIntel,29.85074627,5f5c9cd537f71148d341a0f2,64ce5acb97489d65b14ecc7a,64cf48565f20021d64852ce6,,,,,,,sngl,resources/Empty.png,resources/DB.BMP,Door4,0.341843972,-0.033333333,1,0,0,0.76,optionRight,60,990,1,16,0,16,0,1,,,,,,,,,,,,,,,,,,,,,,,,,,,,,,,,,,,,,,,
,,,,,,,,2023-08-06_08h15.17.204,HF_wild_card,2022.2.4,MacIntel,29.85074627,5f5c9cd537f71148d341a0f2,64ce5acb97489d65b14ecc7a,64cf48565f20021d64852ce6,,,,,,,decisionTrl,resources/DY.BMP,resources/DG.BMP,Door2,-0.296453901,-0.054609929,1,0,0,1.112,optionLeft,20,1010,1,17,0,17,0,1,,,,,,,,,,,,,,,,,,,,,,,,,,,,,,,,,,,,,,,
,,,,,,,,2023-08-06_08h15.17.204,HF_wild_card,2022.2.4,MacIntel,29.85074627,5f5c9cd537f71148d341a0f2,64ce5acb97489d65b14ecc7a,64cf48565f20021d64852ce6,,,,,,,decisionTrl,resources/DY.BMP,resources/DP.BMP,Door1,0.356028369,-0.044680851,1,0,0,0.648,optionRight,30,1040,1,18,0,18,0,1,,,,,,,,,,,,,,,,,,,,,,,,,,,,,,,,,,,,,,,
,,,,,,,,2023-08-06_08h15.17.204,HF_wild_card,2022.2.4,MacIntel,29.85074627,5f5c9cd537f71148d341a0f2,64ce5acb97489d65b14ecc7a,64cf48565f20021d64852ce6,,,,,,,decisionTrl,resources/DG.BMP,resources/DB.BMP,Door4,0.275177305,-0.041843972,1,0,0,0.848,optionRight,60,1100,1,19,0,19,0,1,,,,,,,,,,,,,,,,,,,,,,,,,,,,,,,,,,,,,,,
,,,,,,,,2023-08-06_08h15.17.204,HF_wild_card,2022.2.4,MacIntel,29.85074627,5f5c9cd537f71148d341a0f2,64ce5acb97489d65b14ecc7a,64cf48565f20021d64852ce6,,,,,,,sngl,resources/Empty.png,resources/DY.BMP,Door2,0.211347518,-0.013475177,1,0,0,0.763,optionRight,20,1120,1,20,0,20,0,1,,,,,,,,,,,,,,,,,,,,,,,,,,,,,,,,,,,,,,,
,,,,,,,,2023-08-06_08h15.17.204,HF_wild_card,2022.2.4,MacIntel,29.85074627,5f5c9cd537f71148d341a0f2,64ce5acb97489d65b14ecc7a,64cf48565f20021d64852ce6,,,,,,,ctch,resources/DY.BMP,resources/DR.BMP,Door3,0.273758865,-0.030496454,1,0,0,0.6,optionRight,70,1190,1,21,0,21,0,1,,,,,,,,,,,,,,,,,,,,,,,,,,,,,,,,,,,,,,,
,,,,,,,,2023-08-06_08h15.17.204,HF_wild_card,2022.2.4,MacIntel,29.85074627,5f5c9cd537f71148d341a0f2,64ce5acb97489d65b14ecc7a,64cf48565f20021d64852ce6,,,,,,,ctch,resources/DR.BMP,resources/DY.BMP,Door3,-0.286524823,-0.013475177,1,0,0,0.612,optionLeft,70,1260,1,22,0,22,0,1,,,,,,,,,,,,,,,,,,,,,,,,,,,,,,,,,,,,,,,
,,,,,,,,2023-08-06_08h15.17.204,HF_wild_card,2022.2.4,MacIntel,29.85074627,5f5c9cd537f71148d341a0f2,64ce5acb97489d65b14ecc7a,64cf48565f20021d64852ce6,,,,,,,sngl,resources/DR.BMP,resources/Empty.png,Door3,-0.388652482,0.013475177,1,0,0,0.48,optionLeft,70,1330,1,23,0,23,0,1,,,,,,,,,,,,,,,,,,,,,,,,,,,,,,,,,,,,,,,
,,,,,,,,2023-08-06_08h15.17.204,HF_wild_card,2022.2.4,MacIntel,29.85074627,5f5c9cd537f71148d341a0f2,64ce5acb97489d65b14ecc7a,64cf48565f20021d64852ce6,,,,,,,decisionTrl,resources/DP.BMP,resources/DY.BMP,Door2,0.39858156,-0.036170213,1,0,0,0.865,optionRight,40,1370,1,24,0,24,0,1,,,,,,,,,,,,,,,,,,,,,,,,,,,,,,,,,,,,,,,
,,,,,,,,2023-08-06_08h15.17.204,HF_wild_card,2022.2.4,MacIntel,29.85074627,5f5c9cd537f71148d341a0f2,64ce5acb97489d65b14ecc7a,64cf48565f20021d64852ce6,,,,,,,decisionTrl,resources/DR.BMP,resources/DG.BMP,Door3,-0.222695035,-0.036170213,1,0,0,0.779,optionLeft,70,1440,1,25,0,25,0,1,,,,,,,,,,,,,,,,,,,,,,,,,,,,,,,,,,,,,,,
,,,,,,,,2023-08-06_08h15.17.204,HF_wild_card,2022.2.4,MacIntel,29.85074627,5f5c9cd537f71148d341a0f2,64ce5acb97489d65b14ecc7a,64cf48565f20021d64852ce6,,,,,,,decisionTrl,resources/DP.BMP,resources/DY.BMP,Door2,0.466666667,-0.057446809,1,0,0,0.945,optionRight,40,1480,1,26,0,26,0,1,,,,,,,,,,,,,,,,,,,,,,,,,,,,,,,,,,,,,,,
,,,,,,,,2023-08-06_08h15.17.204,HF_wild_card,2022.2.4,MacIntel,29.85074627,5f5c9cd537f71148d341a0f2,64ce5acb97489d65b14ecc7a,64cf48565f20021d64852ce6,,,,,,,decisionTrl,resources/DY.BMP,resources/DP.BMP,Door2,-0.129078014,-0.026241135,1,0,0,0.613,optionLeft,40,1520,1,27,0,27,0,1,,,,,,,,,,,,,,,,,,,,,,,,,,,,,,,,,,,,,,,
,,,,,,,,2023-08-06_08h15.17.204,HF_wild_card,2022.2.4,MacIntel,29.85074627,5f5c9cd537f71148d341a0f2,64ce5acb97489d65b14ecc7a,64cf48565f20021d64852ce6,,,,,,,sngl,resources/DB.BMP,resources/Empty.png,Door4,-0.295035461,-0.023404255,1,0,0,0.625,optionLeft,80,1600,1,28,0,28,0,1,,,,,,,,,,,,,,,,,,,,,,,,,,,,,,,,,,,,,,,
,,,,,,,,2023-08-06_08h15.17.204,HF_wild_card,2022.2.4,MacIntel,29.85074627,5f5c9cd537f71148d341a0f2,64ce5acb97489d65b14ecc7a,64cf48565f20021d64852ce6,,,,,,,decisionTrl,resources/DR.BMP,resources/DB.BMP,Door4,0.307801418,-0.020567376,1,0,0,0.543,optionRight,80,1680,1,29,0,29,0,1,,,,,,,,,,,,,,,,,,,,,,,,,,,,,,,,,,,,,,,
,,,,,,,,2023-08-06_08h15.17.204,HF_wild_card,2022.2.4,MacIntel,29.85074627,5f5c9cd537f71148d341a0f2,64ce5acb97489d65b14ecc7a,64cf48565f20021d64852ce6,,,,,,,sngl,resources/Empty.png,resources/DG.BMP,WildCard_NonEx,0.385815603,-0.012056738,1,0,0,0.627,optionRight,55,1735,1,30,0,30,0,1,,,,,,,,,,,,,,,,,,,,,,,,,,,,,,,,,,,,,,,
,,,,,,,,2023-08-06_08h15.17.204,HF_wild_card,2022.2.4,MacIntel,29.85074627,5f5c9cd537f71148d341a0f2,64ce5acb97489d65b14ecc7a,64cf48565f20021d64852ce6,,,,,,,decisionTrl,resources/DR.BMP,resources/DB.BMP,Door4,0.270921986,-0.017730496,1,0,0,0.725,optionRight,80,1815,1,31,0,31,0,1,,,,,,,,,,,,,,,,,,,,,,,,,,,,,,,,,,,,,,,
,,,,,,,,2023-08-06_08h15.17.204,HF_wild_card,2022.2.4,MacIntel,29.85074627,5f5c9cd537f71148d341a0f2,64ce5acb97489d65b14ecc7a,64cf48565f20021d64852ce6,,,,,,,decisionTrl,resources/DY.BMP,resources/DP.BMP,Door2,-0.269503546,-0.024822695,1,0,0,0.789,optionLeft,40,1855,1,32,0,32,0,1,,,,,,,,,,,,,,,,,,,,,,,,,,,,,,,,,,,,,,,
,,,,,,,,2023-08-06_08h15.17.204,HF_wild_card,2022.2.4,MacIntel,29.85074627,5f5c9cd537f71148d341a0f2,64ce5acb97489d65b14ecc7a,64cf48565f20021d64852ce6,,,,,,,ctch,resources/DP.BMP,resources/DB.BMP,Door1,-0.255319149,-0.030496454,1,0,0,0.574,optionLeft,30,1885,1,33,0,33,0,1,,,,,,,,,,,,,,,,,,,,,,,,,,,,,,,,,,,,,,,
,,,,,,,,2023-08-06_08h15.17.204,HF_wild_card,2022.2.4,MacIntel,29.85074627,5f5c9cd537f71148d341a0f2,64ce5acb97489d65b14ecc7a,64cf48565f20021d64852ce6,,,,,,,decisionTrl,resources/DB.BMP,resources/DR.BMP,Door4,-0.253900709,-0.012056738,1,0,0,0.512,optionLeft,80,1965,1,34,0,34,0,1,,,,,,,,,,,,,,,,,,,,,,,,,,,,,,,,,,,,,,,
,,,,,,,,2023-08-06_08h15.17.204,HF_wild_card,2022.2.4,MacIntel,29.85074627,5f5c9cd537f71148d341a0f2,64ce5acb97489d65b14ecc7a,64cf48565f20021d64852ce6,,,,,,,decisionTrl,resources/DP.BMP,resources/DY.BMP,Door2,0.441134752,-0.05177305,1,0,0,1.077,optionRight,20,1985,1,35,0,35,0,1,,,,,,,,,,,,,,,,,,,,,,,,,,,,,,,,,,,,,,,
,,,,,,,,2023-08-06_08h15.17.204,HF_wild_card,2022.2.4,MacIntel,29.85074627,5f5c9cd537f71148d341a0f2,64ce5acb97489d65b14ecc7a,64cf48565f20021d64852ce6,,,,,,,sngl,resources/DY.BMP,resources/Empty.png,Door2,-0.197163121,-0.044680851,1,0,0,0.574,optionLeft,40,2025,1,36,0,36,0,1,,,,,,,,,,,,,,,,,,,,,,,,,,,,,,,,,,,,,,,
,,,,,,,,2023-08-06_08h15.17.204,HF_wild_card,2022.2.4,MacIntel,29.85074627,5f5c9cd537f71148d341a0f2,64ce5acb97489d65b14ecc7a,64cf48565f20021d64852ce6,,,,,,,decisionTrl,resources/DB.BMP,resources/DR.BMP,Door4,-0.211347518,-0.065957447,1,0,0,0.594,optionLeft,80,2105,1,37,0,37,0,1,,,,,,,,,,,,,,,,,,,,,,,,,,,,,,,,,,,,,,,
,,,,,,,,2023-08-06_08h15.17.204,HF_wild_card,2022.2.4,MacIntel,29.85074627,5f5c9cd537f71148d341a0f2,64ce5acb97489d65b14ecc7a,64cf48565f20021d64852ce6,,,,,,,sngl,resources/Empty.png,resources/DP.BMP,Door1,0.218439716,-0.041843972,1,0,0,0.697,optionRight,30,2135,1,38,0,38,0,1,,,,,,,,,,,,,,,,,,,,,,,,,,,,,,,,,,,,,,,
,,,,,,,,2023-08-06_08h15.17.204,HF_wild_card,2022.2.4,MacIntel,29.85074627,5f5c9cd537f71148d341a0f2,64ce5acb97489d65b14ecc7a,64cf48565f20021d64852ce6,,,,,,,decisionTrl,resources/DR.BMP,resources/DB.BMP,Door4,0.236879433,-0.040425532,1,0,0,0.68,optionRight,60,2195,1,39,0,39,0,1,,,,,,,,,,,,,,,,,,,,,,,,,,,,,,,,,,,,,,,
,,,,,,,,2023-08-06_08h15.17.204,HF_wild_card,2022.2.4,MacIntel,29.85074627,5f5c9cd537f71148d341a0f2,64ce5acb97489d65b14ecc7a,64cf48565f20021d64852ce6,,,,,,,sngl,resources/DG.BMP,resources/Empty.png,WildCard_NonEx,-0.175886525,-0.024822695,1,0,0,0.569,optionLeft,55,2250,1,40,0,40,0,1,,,,,,,,,,,,,,,,,,,,,,,,,,,,,,,,,,,,,,,
,,,,,,,,2023-08-06_08h15.17.204,HF_wild_card,2022.2.4,MacIntel,29.85074627,5f5c9cd537f71148d341a0f2,64ce5acb97489d65b14ecc7a,64cf48565f20021d64852ce6,,,,,,,sngl,resources/Empty.png,resources/DG.BMP,WildCard_NonEx,0.25248227,-0.058865248,1,0,0,0.494,optionRight,45,2295,1,41,0,41,0,1,,,,,,,,,,,,,,,,,,,,,,,,,,,,,,,,,,,,,,,
,,,,,,,,2023-08-06_08h15.17.204,HF_wild_card,2022.2.4,MacIntel,29.85074627,5f5c9cd537f71148d341a0f2,64ce5acb97489d65b14ecc7a,64cf48565f20021d64852ce6,,,,,,,decisionTrl,resources/DG.BMP,resources/DY.BMP,WildCard_NonEx,-0.168794326,-0.034751773,1,0,0,0.531,optionLeft,55,2350,1,42,0,42,0,1,,,,,,,,,,,,,,,,,,,,,,,,,,,,,,,,,,,,,,,
,,,,,,,,2023-08-06_08h15.17.204,HF_wild_card,2022.2.4,MacIntel,29.85074627,5f5c9cd537f71148d341a0f2,64ce5acb97489d65b14ecc7a,64cf48565f20021d64852ce6,,,,,,,ctch,resources/DR.BMP,resources/DY.BMP,Door2,0.289361702,-0.058865248,1,0,0,0.637,optionRight,20,2370,1,43,0,43,0,1,,,,,,,,,,,,,,,,,,,,,,,,,,,,,,,,,,,,,,,
,,,,,,,,2023-08-06_08h15.17.204,HF_wild_card,2022.2.4,MacIntel,29.85074627,5f5c9cd537f71148d341a0f2,64ce5acb97489d65b14ecc7a,64cf48565f20021d64852ce6,,,,,,,,,,,,,,,,,,,,,,,,,,0,0,0,0,1,,,,,,,,,,,,,,,,,,,,,,,,,,,,,,,,,,
,,,,,,,,2023-08-06_08h15.17.204,HF_wild_card,2022.2.4,MacIntel,29.85074627,5f5c9cd537f71148d341a0f2,64ce5acb97489d65b14ecc7a,64cf48565f20021d64852ce6,,,,,,,decisionTrl,resources/DR.BMP,resources/DB.BMP,Door4,0.262411348,-0.155319149,1,0,0,0.836,optionRight,80,2450,2,0,0,0,0,1,,,,,,,,,,,,,,,,,,,,,,,,,,,,,,,,,,,,,,,
,,,,,,,,2023-08-06_08h15.17.204,HF_wild_card,2022.2.4,MacIntel,29.85074627,5f5c9cd537f71148d341a0f2,64ce5acb97489d65b14ecc7a,64cf48565f20021d64852ce6,,,,,,,sngl,resources/Empty.png,resources/DG.BMP,WildCard_NonEx,0.231205674,-0.012056738,1,0,0,0.612,optionRight,55,2505,2,1,0,1,0,1,,,,,,,,,,,,,,,,,,,,,,,,,,,,,,,,,,,,,,,
,,,,,,,,2023-08-06_08h15.17.204,HF_wild_card,2022.2.4,MacIntel,29.85074627,5f5c9cd537f71148d341a0f2,64ce5acb97489d65b14ecc7a,64cf48565f20021d64852ce6,,,,,,,ctch,resources/DP.BMP,resources/DB.BMP,Door4,0.226950355,-0.026241135,1,0,0,0.66,optionRight,60,2565,2,2,0,2,0,1,,,,,,,,,,,,,,,,,,,,,,,,,,,,,,,,,,,,,,,
,,,,,,,,2023-08-06_08h15.17.204,HF_wild_card,2022.2.4,MacIntel,29.85074627,5f5c9cd537f71148d341a0f2,64ce5acb97489d65b14ecc7a,64cf48565f20021d64852ce6,,,,,,,decisionTrl,resources/DP.BMP,resources/DY.BMP,Door1,-0.202836879,-0.023404255,1,0,0,0.551,optionLeft,30,2595,2,3,0,3,0,1,,,,,,,,,,,,,,,,,,,,,,,,,,,,,,,,,,,,,,,
,,,,,,,,2023-08-06_08h15.17.204,HF_wild_card,2022.2.4,MacIntel,29.85074627,5f5c9cd537f71148d341a0f2,64ce5acb97489d65b14ecc7a,64cf48565f20021d64852ce6,,,,,,,sngl,resources/DR.BMP,resources/Empty.png,Door3,-0.219858156,-0.017730496,1,0,0,0.542,optionLeft,70,2665,2,4,0,4,0,1,,,,,,,,,,,,,,,,,,,,,,,,,,,,,,,,,,,,,,,
,,,,,,,,2023-08-06_08h15.17.204,HF_wild_card,2022.2.4,MacIntel,29.85074627,5f5c9cd537f71148d341a0f2,64ce5acb97489d65b14ecc7a,64cf48565f20021d64852ce6,,,,,,,decisionTrl,resources/DB.BMP,resources/DR.BMP,Door3,0.268085106,-0.036170213,1,0,0,0.545,optionRight,70,2735,2,5,0,5,0,1,,,,,,,,,,,,,,,,,,,,,,,,,,,,,,,,,,,,,,,
,,,,,,,,2023-08-06_08h15.17.204,HF_wild_card,2022.2.4,MacIntel,29.85074627,5f5c9cd537f71148d341a0f2,64ce5acb97489d65b14ecc7a,64cf48565f20021d64852ce6,,,,,,,ctch,resources/DB.BMP,resources/DP.BMP,Door4,-0.154609929,-0.043262411,1,0,0,0.598,optionLeft,80,2815,2,6,0,6,0,1,,,,,,,,,,,,,,,,,,,,,,,,,,,,,,,,,,,,,,,
,,,,,,,,2023-08-06_08h15.17.204,HF_wild_card,2022.2.4,MacIntel,29.85074627,5f5c9cd537f71148d341a0f2,64ce5acb97489d65b14ecc7a,64cf48565f20021d64852ce6,,,,,,,decisionTrl,resources/DY.BMP,resources/DP.BMP,Door1,0.2,-0.029078014,1,0,0,0.845,optionRight,30,2845,2,7,0,7,0,1,,,,,,,,,,,,,,,,,,,,,,,,,,,,,,,,,,,,,,,
,,,,,,,,2023-08-06_08h15.17.204,HF_wild_card,2022.2.4,MacIntel,29.85074627,5f5c9cd537f71148d341a0f2,64ce5acb97489d65b14ecc7a,64cf48565f20021d64852ce6,,,,,,,ctch,resources/DR.BMP,resources/DY.BMP,Door3,-0.182978723,-0.020567376,1,0,0,0.694,optionLeft,70,2915,2,8,0,8,0,1,,,,,,,,,,,,,,,,,,,,,,,,,,,,,,,,,,,,,,,
,,,,,,,,2023-08-06_08h15.17.204,HF_wild_card,2022.2.4,MacIntel,29.85074627,5f5c9cd537f71148d341a0f2,64ce5acb97489d65b14ecc7a,64cf48565f20021d64852ce6,,,,,,,ctch,resources/DR.BMP,resources/DY.BMP,Door3,-0.127659574,-0.063120567,1,0,0,0.543,optionLeft,70,2985,2,9,0,9,0,1,,,,,,,,,,,,,,,,,,,,,,,,,,,,,,,,,,,,,,,
,,,,,,,,2023-08-06_08h15.17.204,HF_wild_card,2022.2.4,MacIntel,29.85074627,5f5c9cd537f71148d341a0f2,64ce5acb97489d65b14ecc7a,64cf48565f20021d64852ce6,,,,,,,sngl,resources/Empty.png,resources/DB.BMP,Door4,0.269503546,-0.044680851,1,0,0,0.529,optionRight,80,3065,2,10,0,10,0,1,,,,,,,,,,,,,,,,,,,,,,,,,,,,,,,,,,,,,,,
,,,,,,,,2023-08-06_08h15.17.204,HF_wild_card,2022.2.4,MacIntel,29.85074627,5f5c9cd537f71148d341a0f2,64ce5acb97489d65b14ecc7a,64cf48565f20021d64852ce6,,,,,,,sngl,resources/Empty.png,resources/DY.BMP,Door2,0.209929078,-0.026241135,1,0,0,0.663,optionRight,40,3105,2,11,0,11,0,1,,,,,,,,,,,,,,,,,,,,,,,,,,,,,,,,,,,,,,,
,,,,,,,,2023-08-06_08h15.17.204,HF_wild_card,2022.2.4,MacIntel,29.85074627,5f5c9cd537f71148d341a0f2,64ce5acb97489d65b14ecc7a,64cf48565f20021d64852ce6,,,,,,,sngl,resources/Empty.png,resources/DP.BMP,Door1,0.2,-0.009219858,1,0,0,0.562,optionRight,30,3135,2,12,0,12,0,1,,,,,,,,,,,,,,,,,,,,,,,,,,,,,,,,,,,,,,,
,,,,,,,,2023-08-06_08h15.17.204,HF_wild_card,2022.2.4,MacIntel,29.85074627,5f5c9cd537f71148d341a0f2,64ce5acb97489d65b14ecc7a,64cf48565f20021d64852ce6,,,,,,,decisionTrl,resources/DY.BMP,resources/DP.BMP,Door2,-0.165957447,-0.030496454,1,0,0,0.563,optionLeft,40,3175,2,13,0,13,0,1,,,,,,,,,,,,,,,,,,,,,,,,,,,,,,,,,,,,,,,
,,,,,,,,2023-08-06_08h15.17.204,HF_wild_card,2022.2.4,MacIntel,29.85074627,5f5c9cd537f71148d341a0f2,64ce5acb97489d65b14ecc7a,64cf48565f20021d64852ce6,,,,,,,decisionTrl,resources/DG.BMP,resources/DB.BMP,Door4,0.310638298,-0.029078014,1,0,0,0.679,optionRight,60,3235,2,14,0,14,0,1,,,,,,,,,,,,,,,,,,,,,,,,,,,,,,,,,,,,,,,
,,,,,,,,2023-08-06_08h15.17.204,HF_wild_card,2022.2.4,MacIntel,29.85074627,5f5c9cd537f71148d341a0f2,64ce5acb97489d65b14ecc7a,64cf48565f20021d64852ce6,,,,,,,decisionTrl,resources/DR.BMP,resources/DB.BMP,Door4,0.290780142,-0.023404255,1,0,0,0.589,optionRight,80,3315,2,15,0,15,0,1,,,,,,,,,,,,,,,,,,,,,,,,,,,,,,,,,,,,,,,
,,,,,,,,2023-08-06_08h15.17.204,HF_wild_card,2022.2.4,MacIntel,29.85074627,5f5c9cd537f71148d341a0f2,64ce5acb97489d65b14ecc7a,64cf48565f20021d64852ce6,,,,,,,decisionTrl,resources/DY.BMP,resources/DP.BMP,Door2,-0.263829787,-0.034751773,1,0,0,1.326,optionLeft,20,3335,2,16,0,16,0,1,,,,,,,,,,,,,,,,,,,,,,,,,,,,,,,,,,,,,,,
,,,,,,,,2023-08-06_08h15.17.204,HF_wild_card,2022.2.4,MacIntel,29.85074627,5f5c9cd537f71148d341a0f2,64ce5acb97489d65b14ecc7a,64cf48565f20021d64852ce6,,,,,,,decisionTrl,resources/DP.BMP,resources/DY.BMP,Door1,-0.194326241,-0.007801418,1,0,0,0.673,optionLeft,30,3365,2,17,0,17,0,1,,,,,,,,,,,,,,,,,,,,,,,,,,,,,,,,,,,,,,,
,,,,,,,,2023-08-06_08h15.17.204,HF_wild_card,2022.2.4,MacIntel,29.85074627,5f5c9cd537f71148d341a0f2,64ce5acb97489d65b14ecc7a,64cf48565f20021d64852ce6,,,,,,,decisionTrl,resources/DB.BMP,resources/DR.BMP,Door4,-0.124822695,-0.040425532,1,0,0,0.612,optionLeft,60,3425,2,18,0,18,0,1,,,,,,,,,,,,,,,,,,,,,,,,,,,,,,,,,,,,,,,
,,,,,,,,2023-08-06_08h15.17.204,HF_wild_card,2022.2.4,MacIntel,29.85074627,5f5c9cd537f71148d341a0f2,64ce5acb97489d65b14ecc7a,64cf48565f20021d64852ce6,,,,,,,decisionTrl,resources/DG.BMP,resources/DY.BMP,WildCard_NonEx,-0.123404255,-0.012056738,1,0,0,0.727,optionLeft,55,3480,2,19,0,19,0,1,,,,,,,,,,,,,,,,,,,,,,,,,,,,,,,,,,,,,,,
,,,,,,,,2023-08-06_08h15.17.204,HF_wild_card,2022.2.4,MacIntel,29.85074627,5f5c9cd537f71148d341a0f2,64ce5acb97489d65b14ecc7a,64cf48565f20021d64852ce6,,,,,,,decisionTrl,resources/DB.BMP,resources/DR.BMP,Door4,-0.178723404,-0.04751773,1,0,0,0.564,optionLeft,80,3560,2,20,0,20,0,1,,,,,,,,,,,,,,,,,,,,,,,,,,,,,,,,,,,,,,,
,,,,,,,,2023-08-06_08h15.17.204,HF_wild_card,2022.2.4,MacIntel,29.85074627,5f5c9cd537f71148d341a0f2,64ce5acb97489d65b14ecc7a,64cf48565f20021d64852ce6,,,,,,,sngl,resources/DY.BMP,resources/Empty.png,Door2,-0.117730496,-0.036170213,1,0,0,0.644,optionLeft,20,3580,2,21,0,21,0,1,,,,,,,,,,,,,,,,,,,,,,,,,,,,,,,,,,,,,,,
,,,,,,,,2023-08-06_08h15.17.204,HF_wild_card,2022.2.4,MacIntel,29.85074627,5f5c9cd537f71148d341a0f2,64ce5acb97489d65b14ecc7a,64cf48565f20021d64852ce6,,,,,,,decisionTrl,resources/DP.BMP,resources/DY.BMP,Door1,-0.130496454,-0.029078014,1,0,0,0.709,optionLeft,30,3610,2,22,0,22,0,1,,,,,,,,,,,,,,,,,,,,,,,,,,,,,,,,,,,,,,,
,,,,,,,,2023-08-06_08h15.17.204,HF_wild_card,2022.2.4,MacIntel,29.85074627,5f5c9cd537f71148d341a0f2,64ce5acb97489d65b14ecc7a,64cf48565f20021d64852ce6,,,,,,,sngl,resources/DP.BMP,resources/Empty.png,Door1,0.221276596,-0.041843972,1,0,0,0.695,optionLeft,30,3640,2,23,0,23,0,1,,,,,,,,,,,,,,,,,,,,,,,,,,,,,,,,,,,,,,,
,,,,,,,,2023-08-06_08h15.17.204,HF_wild_card,2022.2.4,MacIntel,29.85074627,5f5c9cd537f71148d341a0f2,64ce5acb97489d65b14ecc7a,64cf48565f20021d64852ce6,,,,,,,sngl,resources/DB.BMP,resources/Empty.png,Door4,-0.219858156,-0.030496454,1,0,0,0.514,optionLeft,60,3700,2,24,0,24,0,1,,,,,,,,,,,,,,,,,,,,,,,,,,,,,,,,,,,,,,,
,,,,,,,,2023-08-06_08h15.17.204,HF_wild_card,2022.2.4,MacIntel,29.85074627,5f5c9cd537f71148d341a0f2,64ce5acb97489d65b14ecc7a,64cf48565f20021d64852ce6,,,,,,,sngl,resources/DG.BMP,resources/Empty.png,WildCard_NonEx,-0.285106383,-0.031914894,1,0,0,0.496,optionLeft,45,3745,2,25,0,25,0,1,,,,,,,,,,,,,,,,,,,,,,,,,,,,,,,,,,,,,,,
,,,,,,,,2023-08-06_08h15.17.204,HF_wild_card,2022.2.4,MacIntel,29.85074627,5f5c9cd537f71148d341a0f2,64ce5acb97489d65b14ecc7a,64cf48565f20021d64852ce6,,,,,,,sngl,resources/Empty.png,resources/DR.BMP,Door3,0.235460993,-0.037588652,1,0,0,0.491,optionRight,70,3815,2,26,0,26,0,1,,,,,,,,,,,,,,,,,,,,,,,,,,,,,,,,,,,,,,,
,,,,,,,,2023-08-06_08h15.17.204,HF_wild_card,2022.2.4,MacIntel,29.85074627,5f5c9cd537f71148d341a0f2,64ce5acb97489d65b14ecc7a,64cf48565f20021d64852ce6,,,,,,,decisionTrl,resources/DP.BMP,resources/DY.BMP,Door1,-0.217021277,-0.056028369,1,0,0,0.594,optionLeft,30,3845,2,27,0,27,0,1,,,,,,,,,,,,,,,,,,,,,,,,,,,,,,,,,,,,,,,
,,,,,,,,2023-08-06_08h15.17.204,HF_wild_card,2022.2.4,MacIntel,29.85074627,5f5c9cd537f71148d341a0f2,64ce5acb97489d65b14ecc7a,64cf48565f20021d64852ce6,,,,,,,decisionTrl,resources/DY.BMP,resources/DG.BMP,WildCard_NonEx,0.234042553,-0.009219858,1,0,0,0.647,optionRight,45,3890,2,28,0,28,0,1,,,,,,,,,,,,,,,,,,,,,,,,,,,,,,,,,,,,,,,
,,,,,,,,2023-08-06_08h15.17.204,HF_wild_card,2022.2.4,MacIntel,29.85074627,5f5c9cd537f71148d341a0f2,64ce5acb97489d65b14ecc7a,64cf48565f20021d64852ce6,,,,,,,decisionTrl,resources/DR.BMP,resources/DG.BMP,Door3,-0.319148936,-0.044680851,1,0,0,1.095,optionLeft,70,3960,2,29,0,29,0,1,,,,,,,,,,,,,,,,,,,,,,,,,,,,,,,,,,,,,,,
,,,,,,,,2023-08-06_08h15.17.204,HF_wild_card,2022.2.4,MacIntel,29.85074627,5f5c9cd537f71148d341a0f2,64ce5acb97489d65b14ecc7a,64cf48565f20021d64852ce6,,,,,,,decisionTrl,resources/DR.BMP,resources/DB.BMP,Door4,0.327659574,0.00212766,1,0,0,0.745,optionRight,80,4040,2,30,0,30,0,1,,,,,,,,,,,,,,,,,,,,,,,,,,,,,,,,,,,,,,,
,,,,,,,,2023-08-06_08h15.17.204,HF_wild_card,2022.2.4,MacIntel,29.85074627,5f5c9cd537f71148d341a0f2,64ce5acb97489d65b14ecc7a,64cf48565f20021d64852ce6,,,,,,,ctch,resources/DY.BMP,resources/DR.BMP,Door3,0.295035461,-0.019148936,1,0,0,0.86,optionRight,70,4110,2,31,0,31,0,1,,,,,,,,,,,,,,,,,,,,,,,,,,,,,,,,,,,,,,,
,,,,,,,,2023-08-06_08h15.17.204,HF_wild_card,2022.2.4,MacIntel,29.85074627,5f5c9cd537f71148d341a0f2,64ce5acb97489d65b14ecc7a,64cf48565f20021d64852ce6,,,,,,,sngl,resources/Empty.png,resources/DG.BMP,WildCard_NonEx,0.282269504,-0.014893617,1,0,0,0.595,optionRight,45,4155,2,32,0,32,0,1,,,,,,,,,,,,,,,,,,,,,,,,,,,,,,,,,,,,,,,
,,,,,,,,2023-08-06_08h15.17.204,HF_wild_card,2022.2.4,MacIntel,29.85074627,5f5c9cd537f71148d341a0f2,64ce5acb97489d65b14ecc7a,64cf48565f20021d64852ce6,,,,,,,decisionTrl,resources/DB.BMP,resources/DR.BMP,Door4,-0.202836879,-0.039007092,1,0,0,0.645,optionLeft,60,4215,2,33,0,33,0,1,,,,,,,,,,,,,,,,,,,,,,,,,,,,,,,,,,,,,,,
,,,,,,,,2023-08-06_08h15.17.204,HF_wild_card,2022.2.4,MacIntel,29.85074627,5f5c9cd537f71148d341a0f2,64ce5acb97489d65b14ecc7a,64cf48565f20021d64852ce6,,,,,,,decisionTrl,resources/DR.BMP,resources/DB.BMP,Door4,0.275177305,-0.024822695,1,0,0,0.598,optionRight,80,4295,2,34,0,34,0,1,,,,,,,,,,,,,,,,,,,,,,,,,,,,,,,,,,,,,,,
,,,,,,,,2023-08-06_08h15.17.204,HF_wild_card,2022.2.4,MacIntel,29.85074627,5f5c9cd537f71148d341a0f2,64ce5acb97489d65b14ecc7a,64cf48565f20021d64852ce6,,,,,,,decisionTrl,resources/DG.BMP,resources/DP.BMP,Door1,0.259574468,-0.013475177,1,0,0,0.725,optionRight,30,4325,2,35,0,35,0,1,,,,,,,,,,,,,,,,,,,,,,,,,,,,,,,,,,,,,,,
,,,,,,,,2023-08-06_08h15.17.204,HF_wild_card,2022.2.4,MacIntel,29.85074627,5f5c9cd537f71148d341a0f2,64ce5acb97489d65b14ecc7a,64cf48565f20021d64852ce6,,,,,,,ctch,resources/DB.BMP,resources/DP.BMP,Door4,-0.219858156,-0.039007092,1,0,0,0.571,optionLeft,80,4405,2,36,0,36,0,1,,,,,,,,,,,,,,,,,,,,,,,,,,,,,,,,,,,,,,,
,,,,,,,,2023-08-06_08h15.17.204,HF_wild_card,2022.2.4,MacIntel,29.85074627,5f5c9cd537f71148d341a0f2,64ce5acb97489d65b14ecc7a,64cf48565f20021d64852ce6,,,,,,,decisionTrl,resources/DY.BMP,resources/DP.BMP,Door1,0.214184397,-0.010638298,1,0,0,0.829,optionRight,30,4435,2,37,0,37,0,1,,,,,,,,,,,,,,,,,,,,,,,,,,,,,,,,,,,,,,,
,,,,,,,,2023-08-06_08h15.17.204,HF_wild_card,2022.2.4,MacIntel,29.85074627,5f5c9cd537f71148d341a0f2,64ce5acb97489d65b14ecc7a,64cf48565f20021d64852ce6,,,,,,,ctch,resources/DY.BMP,resources/DR.BMP,Door3,0.29929078,-0.016312057,1,0,0,0.922,optionRight,70,4505,2,38,0,38,0,1,,,,,,,,,,,,,,,,,,,,,,,,,,,,,,,,,,,,,,,
,,,,,,,,2023-08-06_08h15.17.204,HF_wild_card,2022.2.4,MacIntel,29.85074627,5f5c9cd537f71148d341a0f2,64ce5acb97489d65b14ecc7a,64cf48565f20021d64852ce6,,,,,,,ctch,resources/DP.BMP,resources/DB.BMP,Door4,0.224113475,-0.007801418,1,0,0,0.759,optionRight,80,4585,2,39,0,39,0,1,,,,,,,,,,,,,,,,,,,,,,,,,,,,,,,,,,,,,,,
,,,,,,,,2023-08-06_08h15.17.204,HF_wild_card,2022.2.4,MacIntel,29.85074627,5f5c9cd537f71148d341a0f2,64ce5acb97489d65b14ecc7a,64cf48565f20021d64852ce6,,,,,,,decisionTrl,resources/DB.BMP,resources/DG.BMP,Door4,-0.326241135,-0.010638298,1,0,0,0.894,optionLeft,60,4645,2,40,0,40,0,1,,,,,,,,,,,,,,,,,,,,,,,,,,,,,,,,,,,,,,,
,,,,,,,,2023-08-06_08h15.17.204,HF_wild_card,2022.2.4,MacIntel,29.85074627,5f5c9cd537f71148d341a0f2,64ce5acb97489d65b14ecc7a,64cf48565f20021d64852ce6,,,,,,,sngl,resources/DG.BMP,resources/Empty.png,WildCard_NonEx,-0.278014184,0.003546099,1,0,0,0.509,optionLeft,55,4700,2,41,0,41,0,1,,,,,,,,,,,,,,,,,,,,,,,,,,,,,,,,,,,,,,,
,,,,,,,,2023-08-06_08h15.17.204,HF_wild_card,2022.2.4,MacIntel,29.85074627,5f5c9cd537f71148d341a0f2,64ce5acb97489d65b14ecc7a,64cf48565f20021d64852ce6,,,,,,,decisionTrl,resources/DG.BMP,resources/DR.BMP,WildCard_NonEx,-0.185815603,-0.029078014,1,0,0,0.51,optionLeft,45,4745,2,42,0,42,0,1,,,,,,,,,,,,,,,,,,,,,,,,,,,,,,,,,,,,,,,
,,,,,,,,2023-08-06_08h15.17.204,HF_wild_card,2022.2.4,MacIntel,29.85074627,5f5c9cd537f71148d341a0f2,64ce5acb97489d65b14ecc7a,64cf48565f20021d64852ce6,,,,,,,decisionTrl,resources/DP.BMP,resources/DG.BMP,Door1,-0.225531915,-0.034751773,1,0,0,0.793,optionLeft,30,4775,2,43,0,43,0,1,,,,,,,,,,,,,,,,,,,,,,,,,,,,,,,,,,,,,,,
,,,,,,,,2023-08-06_08h15.17.204,HF_wild_card,2022.2.4,MacIntel,29.85074627,5f5c9cd537f71148d341a0f2,64ce5acb97489d65b14ecc7a,64cf48565f20021d64852ce6,,,,,,,,,,,,,,,,,,,,,,,,,,1,0,1,0,1,,,,,,,,,,,,,,,,,,,,,,,,,,,,,,,,,,
,,,,,,,,2023-08-06_08h15.17.204,HF_wild_card,2022.2.4,MacIntel,29.85074627,5f5c9cd537f71148d341a0f2,64ce5acb97489d65b14ecc7a,64cf48565f20021d64852ce6,,,,,,,sngl,resources/DB.BMP,resources/Empty.png,Door4,-0.217021277,-0.090070922,1,0,0,0.69,optionLeft,80,4855,3,0,0,0,0,1,,,,,,,,,,,,,,,,,,,,,,,,,,,,,,,,,,,,,,,
,,,,,,,,2023-08-06_08h15.17.204,HF_wild_card,2022.2.4,MacIntel,29.85074627,5f5c9cd537f71148d341a0f2,64ce5acb97489d65b14ecc7a,64cf48565f20021d64852ce6,,,,,,,decisionTrl,resources/DG.BMP,resources/DY.BMP,WildCard_NonEx,-0.154609929,-0.023404255,1,0,0,0.679,optionLeft,45,4900,3,1,0,1,0,1,,,,,,,,,,,,,,,,,,,,,,,,,,,,,,,,,,,,,,,
,,,,,,,,2023-08-06_08h15.17.204,HF_wild_card,2022.2.4,MacIntel,29.85074627,5f5c9cd537f71148d341a0f2,64ce5acb97489d65b14ecc7a,64cf48565f20021d64852ce6,,,,,,,decisionTrl,resources/DG.BMP,resources/DR.BMP,Door3,0.253900709,-0.004964539,1,0,0,0.544,optionRight,70,4970,3,2,0,2,0,1,,,,,,,,,,,,,,,,,,,,,,,,,,,,,,,,,,,,,,,
,,,,,,,,2023-08-06_08h15.17.204,HF_wild_card,2022.2.4,MacIntel,29.85074627,5f5c9cd537f71148d341a0f2,64ce5acb97489d65b14ecc7a,64cf48565f20021d64852ce6,,,,,,,ctch,resources/DY.BMP,resources/DR.BMP,Door3,0.269503546,-0.014893617,1,0,0,0.545,optionRight,70,5040,3,3,0,3,0,1,,,,,,,,,,,,,,,,,,,,,,,,,,,,,,,,,,,,,,,
,,,,,,,,2023-08-06_08h15.17.204,HF_wild_card,2022.2.4,MacIntel,29.85074627,5f5c9cd537f71148d341a0f2,64ce5acb97489d65b14ecc7a,64cf48565f20021d64852ce6,,,,,,,sngl,resources/DP.BMP,resources/Empty.png,Door1,-0.285106383,-0.006382979,1,0,0,0.483,optionLeft,30,5070,3,4,0,4,0,1,,,,,,,,,,,,,,,,,,,,,,,,,,,,,,,,,,,,,,,
,,,,,,,,2023-08-06_08h15.17.204,HF_wild_card,2022.2.4,MacIntel,29.85074627,5f5c9cd537f71148d341a0f2,64ce5acb97489d65b14ecc7a,64cf48565f20021d64852ce6,,,,,,,sngl,resources/DG.BMP,resources/Empty.png,WildCard_NonEx,-0.212765957,-0.021985816,1,0,0,0.543,optionLeft,55,5125,3,5,0,5,0,1,,,,,,,,,,,,,,,,,,,,,,,,,,,,,,,,,,,,,,,
,,,,,,,,2023-08-06_08h15.17.204,HF_wild_card,2022.2.4,MacIntel,29.85074627,5f5c9cd537f71148d341a0f2,64ce5acb97489d65b14ecc7a,64cf48565f20021d64852ce6,,,,,,,decisionTrl,resources/DY.BMP,resources/DP.BMP,Door1,0.236879433,-0.019148936,1,0,0,0.673,optionRight,30,5155,3,6,0,6,0,1,,,,,,,,,,,,,,,,,,,,,,,,,,,,,,,,,,,,,,,
,,,,,,,,2023-08-06_08h15.17.204,HF_wild_card,2022.2.4,MacIntel,29.85074627,5f5c9cd537f71148d341a0f2,64ce5acb97489d65b14ecc7a,64cf48565f20021d64852ce6,,,,,,,ctch,resources/DR.BMP,resources/DY.BMP,Door3,-0.15035461,-0.014893617,1,0,0,0.611,optionLeft,70,5225,3,7,0,7,0,1,,,,,,,,,,,,,,,,,,,,,,,,,,,,,,,,,,,,,,,
,,,,,,,,2023-08-06_08h15.17.204,HF_wild_card,2022.2.4,MacIntel,29.85074627,5f5c9cd537f71148d341a0f2,64ce5acb97489d65b14ecc7a,64cf48565f20021d64852ce6,,,,,,,sngl,resources/Empty.png,resources/DR.BMP,Door3,0.266666667,-0.017730496,1,0,0,0.525,optionRight,70,5295,3,8,0,8,0,1,,,,,,,,,,,,,,,,,,,,,,,,,,,,,,,,,,,,,,,
,,,,,,,,2023-08-06_08h15.17.204,HF_wild_card,2022.2.4,MacIntel,29.85074627,5f5c9cd537f71148d341a0f2,64ce5acb97489d65b14ecc7a,64cf48565f20021d64852ce6,,,,,,,decisionTrl,resources/DY.BMP,resources/DP.BMP,Door1,0.158865248,0.006382979,1,0,0,0.828,optionRight,30,5325,3,9,0,9,0,1,,,,,,,,,,,,,,,,,,,,,,,,,,,,,,,,,,,,,,,
,,,,,,,,2023-08-06_08h15.17.204,HF_wild_card,2022.2.4,MacIntel,29.85074627,5f5c9cd537f71148d341a0f2,64ce5acb97489d65b14ecc7a,64cf48565f20021d64852ce6,,,,,,,decisionTrl,resources/DP.BMP,resources/DG.BMP,WildCard_NonEx,0.222695035,-0.00070922,1,0,0,0.68,optionRight,45,5370,3,10,0,10,0,1,,,,,,,,,,,,,,,,,,,,,,,,,,,,,,,,,,,,,,,
,,,,,,,,2023-08-06_08h15.17.204,HF_wild_card,2022.2.4,MacIntel,29.85074627,5f5c9cd537f71148d341a0f2,64ce5acb97489d65b14ecc7a,64cf48565f20021d64852ce6,,,,,,,sngl,resources/Empty.png,resources/DP.BMP,Door1,0.241134752,0.012056738,1,0,0,0.58,optionRight,30,5400,3,11,0,11,0,1,,,,,,,,,,,,,,,,,,,,,,,,,,,,,,,,,,,,,,,
,,,,,,,,2023-08-06_08h15.17.204,HF_wild_card,2022.2.4,MacIntel,29.85074627,5f5c9cd537f71148d341a0f2,64ce5acb97489d65b14ecc7a,64cf48565f20021d64852ce6,,,,,,,decisionTrl,resources/DG.BMP,resources/DP.BMP,WildCard_NonEx,-0.214184397,-0.024822695,1,0,0,0.749,optionLeft,45,5445,3,12,0,12,0,1,,,,,,,,,,,,,,,,,,,,,,,,,,,,,,,,,,,,,,,
,,,,,,,,2023-08-06_08h15.17.204,HF_wild_card,2022.2.4,MacIntel,29.85074627,5f5c9cd537f71148d341a0f2,64ce5acb97489d65b14ecc7a,64cf48565f20021d64852ce6,,,,,,,sngl,resources/Empty.png,resources/DY.BMP,Door2,0.229787234,-0.013475177,1,0,0,0.558,optionRight,20,5465,3,13,0,13,0,1,,,,,,,,,,,,,,,,,,,,,,,,,,,,,,,,,,,,,,,
,,,,,,,,2023-08-06_08h15.17.204,HF_wild_card,2022.2.4,MacIntel,29.85074627,5f5c9cd537f71148d341a0f2,64ce5acb97489d65b14ecc7a,64cf48565f20021d64852ce6,,,,,,,decisionTrl,resources/DY.BMP,resources/DG.BMP,WildCard_NonEx,0.245390071,-0.00212766,1,0,0,0.586,optionRight,45,5510,3,14,0,14,0,1,,,,,,,,,,,,,,,,,,,,,,,,,,,,,,,,,,,,,,,
,,,,,,,,2023-08-06_08h15.17.204,HF_wild_card,2022.2.4,MacIntel,29.85074627,5f5c9cd537f71148d341a0f2,64ce5acb97489d65b14ecc7a,64cf48565f20021d64852ce6,,,,,,,decisionTrl,resources/DG.BMP,resources/DB.BMP,Door4,0.283687943,-0.00212766,1,0,0,0.685,optionRight,80,5590,3,15,0,15,0,1,,,,,,,,,,,,,,,,,,,,,,,,,,,,,,,,,,,,,,,
,,,,,,,,2023-08-06_08h15.17.204,HF_wild_card,2022.2.4,MacIntel,29.85074627,5f5c9cd537f71148d341a0f2,64ce5acb97489d65b14ecc7a,64cf48565f20021d64852ce6,,,,,,,decisionTrl,resources/DP.BMP,resources/DY.BMP,Door1,-0.163120567,-0.00212766,1,0,0,0.898,optionLeft,30,5620,3,16,0,16,0,1,,,,,,,,,,,,,,,,,,,,,,,,,,,,,,,,,,,,,,,
,,,,,,,,2023-08-06_08h15.17.204,HF_wild_card,2022.2.4,MacIntel,29.85074627,5f5c9cd537f71148d341a0f2,64ce5acb97489d65b14ecc7a,64cf48565f20021d64852ce6,,,,,,,ctch,resources/DB.BMP,resources/DP.BMP,Door4,-0.175886525,0.003546099,1,0,0,0.659,optionLeft,80,5700,3,17,0,17,0,1,,,,,,,,,,,,,,,,,,,,,,,,,,,,,,,,,,,,,,,
,,,,,,,,2023-08-06_08h15.17.204,HF_wild_card,2022.2.4,MacIntel,29.85074627,5f5c9cd537f71148d341a0f2,64ce5acb97489d65b14ecc7a,64cf48565f20021d64852ce6,,,,,,,decisionTrl,resources/DB.BMP,resources/DR.BMP,Door4,-0.144680851,-0.013475177,1,0,0,0.513,optionLeft,60,5760,3,18,0,18,0,1,,,,,,,,,,,,,,,,,,,,,,,,,,,,,,,,,,,,,,,
,,,,,,,,2023-08-06_08h15.17.204,HF_wild_card,2022.2.4,MacIntel,29.85074627,5f5c9cd537f71148d341a0f2,64ce5acb97489d65b14ecc7a,64cf48565f20021d64852ce6,,,,,,,decisionTrl,resources/DB.BMP,resources/DR.BMP,Door4,-0.153191489,-0.012056738,1,0,0,0.563,optionLeft,80,5840,3,19,0,19,0,1,,,,,,,,,,,,,,,,,,,,,,,,,,,,,,,,,,,,,,,
,,,,,,,,2023-08-06_08h15.17.204,HF_wild_card,2022.2.4,MacIntel,29.85074627,5f5c9cd537f71148d341a0f2,64ce5acb97489d65b14ecc7a,64cf48565f20021d64852ce6,,,,,,,ctch,resources/DB.BMP,resources/DP.BMP,Door4,-0.204255319,-0.010638298,1,0,0,0.546,optionLeft,60,5900,3,20,0,20,0,1,,,,,,,,,,,,,,,,,,,,,,,,,,,,,,,,,,,,,,,
,,,,,,,,2023-08-06_08h15.17.204,HF_wild_card,2022.2.4,MacIntel,29.85074627,5f5c9cd537f71148d341a0f2,64ce5acb97489d65b14ecc7a,64cf48565f20021d64852ce6,,,,,,,decisionTrl,resources/DR.BMP,resources/DG.BMP,Door3,-0.204255319,-0.017730496,1,0,0,1.165,optionLeft,70,5970,3,21,0,21,0,1,,,,,,,,,,,,,,,,,,,,,,,,,,,,,,,,,,,,,,,
,,,,,,,,2023-08-06_08h15.17.204,HF_wild_card,2022.2.4,MacIntel,29.85074627,5f5c9cd537f71148d341a0f2,64ce5acb97489d65b14ecc7a,64cf48565f20021d64852ce6,,,,,,,sngl,resources/DR.BMP,resources/Empty.png,Door3,-0.215602837,-0.00212766,1,0,0,0.48,optionLeft,70,6040,3,22,0,22,0,1,,,,,,,,,,,,,,,,,,,,,,,,,,,,,,,,,,,,,,,
,,,,,,,,2023-08-06_08h15.17.204,HF_wild_card,2022.2.4,MacIntel,29.85074627,5f5c9cd537f71148d341a0f2,64ce5acb97489d65b14ecc7a,64cf48565f20021d64852ce6,,,,,,,decisionTrl,resources/DR.BMP,resources/DB.BMP,Door4,0.364539007,-0.014893617,1,0,0,0.744,optionRight,60,6100,3,23,0,23,0,1,,,,,,,,,,,,,,,,,,,,,,,,,,,,,,,,,,,,,,,
,,,,,,,,2023-08-06_08h15.17.204,HF_wild_card,2022.2.4,MacIntel,29.85074627,5f5c9cd537f71148d341a0f2,64ce5acb97489d65b14ecc7a,64cf48565f20021d64852ce6,,,,,,,ctch,resources/DP.BMP,resources/DB.BMP,Door4,0.307801418,0.00212766,1,0,0,0.793,optionRight,80,6180,3,24,0,24,0,1,,,,,,,,,,,,,,,,,,,,,,,,,,,,,,,,,,,,,,,
,,,,,,,,2023-08-06_08h15.17.204,HF_wild_card,2022.2.4,MacIntel,29.85074627,5f5c9cd537f71148d341a0f2,64ce5acb97489d65b14ecc7a,64cf48565f20021d64852ce6,,,,,,,ctch,resources/DY.BMP,resources/DR.BMP,Door3,0.265248227,0.00070922,1,0,0,0.712,optionRight,70,6250,3,25,0,25,0,1,,,,,,,,,,,,,,,,,,,,,,,,,,,,,,,,,,,,,,,
,,,,,,,,2023-08-06_08h15.17.204,HF_wild_card,2022.2.4,MacIntel,29.85074627,5f5c9cd537f71148d341a0f2,64ce5acb97489d65b14ecc7a,64cf48565f20021d64852ce6,,,,,,,decisionTrl,resources/DR.BMP,resources/DB.BMP,Door3,-0.141843972,-0.006382979,1,0,0,0.957,optionLeft,70,6320,3,26,0,26,0,1,,,,,,,,,,,,,,,,,,,,,,,,,,,,,,,,,,,,,,,
,,,,,,,,2023-08-06_08h15.17.204,HF_wild_card,2022.2.4,MacIntel,29.85074627,5f5c9cd537f71148d341a0f2,64ce5acb97489d65b14ecc7a,64cf48565f20021d64852ce6,,,,,,,decisionTrl,resources/DP.BMP,resources/DY.BMP,Door1,-0.140425532,-0.027659574,1,0,0,1.276,optionLeft,30,6350,3,27,0,27,0,1,,,,,,,,,,,,,,,,,,,,,,,,,,,,,,,,,,,,,,,
,,,,,,,,2023-08-06_08h15.17.204,HF_wild_card,2022.2.4,MacIntel,29.85074627,5f5c9cd537f71148d341a0f2,64ce5acb97489d65b14ecc7a,64cf48565f20021d64852ce6,,,,,,,decisionTrl,resources/DB.BMP,resources/DR.BMP,Door4,-0.15035461,-0.010638298,1,0,0,0.793,optionLeft,60,6410,3,28,0,28,0,1,,,,,,,,,,,,,,,,,,,,,,,,,,,,,,,,,,,,,,,
,,,,,,,,2023-08-06_08h15.17.204,HF_wild_card,2022.2.4,MacIntel,29.85074627,5f5c9cd537f71148d341a0f2,64ce5acb97489d65b14ecc7a,64cf48565f20021d64852ce6,,,,,,,ctch,resources/DR.BMP,resources/DY.BMP,Door3,-0.156028369,-0.026241135,1,0,0,0.58,optionLeft,70,6480,3,29,0,29,0,1,,,,,,,,,,,,,,,,,,,,,,,,,,,,,,,,,,,,,,,
,,,,,,,,2023-08-06_08h15.17.204,HF_wild_card,2022.2.4,MacIntel,29.85074627,5f5c9cd537f71148d341a0f2,64ce5acb97489d65b14ecc7a,64cf48565f20021d64852ce6,,,,,,,ctch,resources/DP.BMP,resources/DB.BMP,Door4,0.234042553,-0.039007092,1,0,0,0.61,optionRight,60,6540,3,30,0,30,0,1,,,,,,,,,,,,,,,,,,,,,,,,,,,,,,,,,,,,,,,
,,,,,,,,2023-08-06_08h15.17.204,HF_wild_card,2022.2.4,MacIntel,29.85074627,5f5c9cd537f71148d341a0f2,64ce5acb97489d65b14ecc7a,64cf48565f20021d64852ce6,,,,,,,decisionTrl,resources/DY.BMP,resources/DP.BMP,Door1,0.168794326,-0.012056738,1,0,0,0.779,optionRight,30,6570,3,31,0,31,0,1,,,,,,,,,,,,,,,,,,,,,,,,,,,,,,,,,,,,,,,
,,,,,,,,2023-08-06_08h15.17.204,HF_wild_card,2022.2.4,MacIntel,29.85074627,5f5c9cd537f71148d341a0f2,64ce5acb97489d65b14ecc7a,64cf48565f20021d64852ce6,,,,,,,decisionTrl,resources/DP.BMP,resources/DY.BMP,Door2,0.334751773,-0.039007092,1,0,0,0.795,optionRight,40,6610,3,32,0,32,0,1,,,,,,,,,,,,,,,,,,,,,,,,,,,,,,,,,,,,,,,
,,,,,,,,2023-08-06_08h15.17.204,HF_wild_card,2022.2.4,MacIntel,29.85074627,5f5c9cd537f71148d341a0f2,64ce5acb97489d65b14ecc7a,64cf48565f20021d64852ce6,,,,,,,sngl,resources/Empty.png,resources/DG.BMP,WildCard_NonEx,0.232624113,0.00070922,1,0,0,0.628,optionRight,45,6655,3,33,0,33,0,1,,,,,,,,,,,,,,,,,,,,,,,,,,,,,,,,,,,,,,,
,,,,,,,,2023-08-06_08h15.17.204,HF_wild_card,2022.2.4,MacIntel,29.85074627,5f5c9cd537f71148d341a0f2,64ce5acb97489d65b14ecc7a,64cf48565f20021d64852ce6,,,,,,,decisionTrl,resources/DB.BMP,resources/DR.BMP,Door4,-0.15177305,-0.031914894,1,0,0,0.592,optionLeft,80,6735,3,34,0,34,0,1,,,,,,,,,,,,,,,,,,,,,,,,,,,,,,,,,,,,,,,
,,,,,,,,2023-08-06_08h15.17.204,HF_wild_card,2022.2.4,MacIntel,29.85074627,5f5c9cd537f71148d341a0f2,64ce5acb97489d65b14ecc7a,64cf48565f20021d64852ce6,,,,,,,decisionTrl,resources/DP.BMP,resources/DY.BMP,Door2,0.207092199,-0.036170213,1,0,0,0.829,optionRight,40,6775,3,35,0,35,0,1,,,,,,,,,,,,,,,,,,,,,,,,,,,,,,,,,,,,,,,
,,,,,,,,2023-08-06_08h15.17.204,HF_wild_card,2022.2.4,MacIntel,29.85074627,5f5c9cd537f71148d341a0f2,64ce5acb97489d65b14ecc7a,64cf48565f20021d64852ce6,,,,,,,sngl,resources/Empty.png,resources/DB.BMP,Door4,0.208510638,-0.020567376,1,0,0,0.579,optionRight,60,6835,3,36,0,36,0,1,,,,,,,,,,,,,,,,,,,,,,,,,,,,,,,,,,,,,,,
,,,,,,,,2023-08-06_08h15.17.204,HF_wild_card,2022.2.4,MacIntel,29.85074627,5f5c9cd537f71148d341a0f2,64ce5acb97489d65b14ecc7a,64cf48565f20021d64852ce6,,,,,,,decisionTrl,resources/DY.BMP,resources/DP.BMP,Door1,0.226950355,-0.010638298,1,0,0,0.81,optionRight,30,6865,3,37,0,37,0,1,,,,,,,,,,,,,,,,,,,,,,,,,,,,,,,,,,,,,,,
,,,,,,,,2023-08-06_08h15.17.204,HF_wild_card,2022.2.4,MacIntel,29.85074627,5f5c9cd537f71148d341a0f2,64ce5acb97489d65b14ecc7a,64cf48565f20021d64852ce6,,,,,,,sngl,resources/DY.BMP,resources/Empty.png,Door2,-0.167375887,-0.027659574,1,0,0,0.595,optionLeft,40,6905,3,38,0,38,0,1,,,,,,,,,,,,,,,,,,,,,,,,,,,,,,,,,,,,,,,
,,,,,,,,2023-08-06_08h15.17.204,HF_wild_card,2022.2.4,MacIntel,29.85074627,5f5c9cd537f71148d341a0f2,64ce5acb97489d65b14ecc7a,64cf48565f20021d64852ce6,,,,,,,sngl,resources/DG.BMP,resources/Empty.png,WildCard_NonEx,-0.174468085,-0.043262411,1,0,0,0.645,optionLeft,45,6950,3,39,0,39,0,1,,,,,,,,,,,,,,,,,,,,,,,,,,,,,,,,,,,,,,,
,,,,,,,,2023-08-06_08h15.17.204,HF_wild_card,2022.2.4,MacIntel,29.85074627,5f5c9cd537f71148d341a0f2,64ce5acb97489d65b14ecc7a,64cf48565f20021d64852ce6,,,,,,,decisionTrl,resources/DB.BMP,resources/DG.BMP,Door4,-0.202836879,-0.05177305,1,0,0,0.762,optionLeft,80,7030,3,40,0,40,0,1,,,,,,,,,,,,,,,,,,,,,,,,,,,,,,,,,,,,,,,
,,,,,,,,2023-08-06_08h15.17.204,HF_wild_card,2022.2.4,MacIntel,29.85074627,5f5c9cd537f71148d341a0f2,64ce5acb97489d65b14ecc7a,64cf48565f20021d64852ce6,,,,,,,decisionTrl,resources/DR.BMP,resources/DB.BMP,Door4,0.217021277,-0.030496454,1,0,0,0.588,optionRight,80,7110,3,41,0,41,0,1,,,,,,,,,,,,,,,,,,,,,,,,,,,,,,,,,,,,,,,
,,,,,,,,2023-08-06_08h15.17.204,HF_wild_card,2022.2.4,MacIntel,29.85074627,5f5c9cd537f71148d341a0f2,64ce5acb97489d65b14ecc7a,64cf48565f20021d64852ce6,,,,,,,decisionTrl,resources/DR.BMP,resources/DB.BMP,Door4,0.181560284,-0.017730496,1,0,0,0.612,optionRight,80,7190,3,42,0,42,0,1,,,,,,,,,,,,,,,,,,,,,,,,,,,,,,,,,,,,,,,
,,,,,,,,2023-08-06_08h15.17.204,HF_wild_card,2022.2.4,MacIntel,29.85074627,5f5c9cd537f71148d341a0f2,64ce5acb97489d65b14ecc7a,64cf48565f20021d64852ce6,,,,,,,sngl,resources/Empty.png,resources/DG.BMP,WildCard_NonEx,0.236879433,-0.004964539,1,0,0,0.591,optionRight,55,7245,3,43,0,43,0,1,,,,,,,,,,,,,,,,,,,,,,,,,,,,,,,,,,,,,,,
,,,,,,,,2023-08-06_08h15.17.204,HF_wild_card,2022.2.4,MacIntel,29.85074627,5f5c9cd537f71148d341a0f2,64ce5acb97489d65b14ecc7a,64cf48565f20021d64852ce6,,,,,,,,,,,,,,,,,,,,,,,,,,2,0,2,0,1,,,,,,,,,,,,,,,,,,,,,,,,,,,,,,,,,,
,,,,,,,,2023-08-06_08h15.17.204,HF_wild_card,2022.2.4,MacIntel,29.85074627,5f5c9cd537f71148d341a0f2,64ce5acb97489d65b14ecc7a,64cf48565f20021d64852ce6,,,,,,,sngl,resources/Empty.png,resources/DBN.BMP,WildCard_Ex,0.260992908,-0.026241135,1,0,0,1.659,optionRight,95,7340,4,0,0,0,0,1,,,,,,,,,,,,,,,,,,,,,,,,,,,,,,,,,,,,,,,
,,,,,,,,2023-08-06_08h15.17.204,HF_wild_card,2022.2.4,MacIntel,29.85074627,5f5c9cd537f71148d341a0f2,64ce5acb97489d65b14ecc7a,64cf48565f20021d64852ce6,,,,,,,ctch,resources/DY.BMP,resources/DR.BMP,Door3,0.2,-0.044680851,1,0,0,1.033,optionRight,70,7410,4,1,0,1,0,1,,,,,,,,,,,,,,,,,,,,,,,,,,,,,,,,,,,,,,,
,,,,,,,,2023-08-06_08h15.17.204,HF_wild_card,2022.2.4,MacIntel,29.85074627,5f5c9cd537f71148d341a0f2,64ce5acb97489d65b14ecc7a,64cf48565f20021d64852ce6,,,,,,,sngl,resources/Empty.png,resources/DR.BMP,Door3,0.222695035,-0.033333333,1,0,0,0.563,optionRight,70,7480,4,2,0,2,0,1,,,,,,,,,,,,,,,,,,,,,,,,,,,,,,,,,,,,,,,
,,,,,,,,2023-08-06_08h15.17.204,HF_wild_card,2022.2.4,MacIntel,29.85074627,5f5c9cd537f71148d341a0f2,64ce5acb97489d65b14ecc7a,64cf48565f20021d64852ce6,,,,,,,sngl,resources/DB.BMP,resources/Empty.png,Door4,-0.2,-0.040425532,1,0,0,0.548,optionLeft,60,7540,4,3,0,3,0,1,,,,,,,,,,,,,,,,,,,,,,,,,,,,,,,,,,,,,,,
,,,,,,,,2023-08-06_08h15.17.204,HF_wild_card,2022.2.4,MacIntel,29.85074627,5f5c9cd537f71148d341a0f2,64ce5acb97489d65b14ecc7a,64cf48565f20021d64852ce6,,,,,,,ctch,resources/DP.BMP,resources/DB.BMP,Door4,0.177304965,-0.016312057,1,0,0,0.843,optionRight,60,7600,4,4,0,4,0,1,,,,,,,,,,,,,,,,,,,,,,,,,,,,,,,,,,,,,,,
,,,,,,,,2023-08-06_08h15.17.204,HF_wild_card,2022.2.4,MacIntel,29.85074627,5f5c9cd537f71148d341a0f2,64ce5acb97489d65b14ecc7a,64cf48565f20021d64852ce6,,,,,,,decisionTrl,resources/DR.BMP,resources/DB.BMP,Door4,0.214184397,-0.019148936,1,0,0,0.546,optionRight,80,7680,4,5,0,5,0,1,,,,,,,,,,,,,,,,,,,,,,,,,,,,,,,,,,,,,,,
,,,,,,,,2023-08-06_08h15.17.204,HF_wild_card,2022.2.4,MacIntel,29.85074627,5f5c9cd537f71148d341a0f2,64ce5acb97489d65b14ecc7a,64cf48565f20021d64852ce6,,,,,,,sngl,resources/DBN.BMP,resources/Empty.png,WildCard_Ex,-0.205673759,-0.033333333,1,0,0,0.662,optionLeft,5,7685,4,6,0,6,0,1,,,,,,,,,,,,,,,,,,,,,,,,,,,,,,,,,,,,,,,
,,,,,,,,2023-08-06_08h15.17.204,HF_wild_card,2022.2.4,MacIntel,29.85074627,5f5c9cd537f71148d341a0f2,64ce5acb97489d65b14ecc7a,64cf48565f20021d64852ce6,,,,,,,ctch,resources/DB.BMP,resources/DP.BMP,Door4,-0.185815603,-0.023404255,1,0,0,0.657,optionLeft,60,7745,4,7,0,7,0,1,,,,,,,,,,,,,,,,,,,,,,,,,,,,,,,,,,,,,,,
,,,,,,,,2023-08-06_08h15.17.204,HF_wild_card,2022.2.4,MacIntel,29.85074627,5f5c9cd537f71148d341a0f2,64ce5acb97489d65b14ecc7a,64cf48565f20021d64852ce6,,,,,,,decisionTrl,resources/DP.BMP,resources/DY.BMP,Door2,0.235460993,-0.026241135,1,0,0,0.694,optionRight,40,7785,4,8,0,8,0,1,,,,,,,,,,,,,,,,,,,,,,,,,,,,,,,,,,,,,,,
,,,,,,,,2023-08-06_08h15.17.204,HF_wild_card,2022.2.4,MacIntel,29.85074627,5f5c9cd537f71148d341a0f2,64ce5acb97489d65b14ecc7a,64cf48565f20021d64852ce6,,,,,,,sngl,resources/Empty.png,resources/DBN.BMP,WildCard_Ex,0.24964539,-0.020567376,1,0,0,0.564,optionRight,5,7790,4,9,0,9,0,1,,,,,,,,,,,,,,,,,,,,,,,,,,,,,,,,,,,,,,,
,,,,,,,,2023-08-06_08h15.17.204,HF_wild_card,2022.2.4,MacIntel,29.85074627,5f5c9cd537f71148d341a0f2,64ce5acb97489d65b14ecc7a,64cf48565f20021d64852ce6,,,,,,,decisionTrl,resources/DB.BMP,resources/DR.BMP,Door4,-0.241134752,-0.039007092,1,0,0,0.594,optionLeft,60,7850,4,10,0,10,0,1,,,,,,,,,,,,,,,,,,,,,,,,,,,,,,,,,,,,,,,
,,,,,,,,2023-08-06_08h15.17.204,HF_wild_card,2022.2.4,MacIntel,29.85074627,5f5c9cd537f71148d341a0f2,64ce5acb97489d65b14ecc7a,64cf48565f20021d64852ce6,,,,,,,decisionTrl,resources/DY.BMP,resources/DP.BMP,Door2,-0.165957447,-0.009219858,1,0,0,0.664,optionLeft,40,7890,4,11,0,11,0,1,,,,,,,,,,,,,,,,,,,,,,,,,,,,,,,,,,,,,,,
,,,,,,,,2023-08-06_08h15.17.204,HF_wild_card,2022.2.4,MacIntel,29.85074627,5f5c9cd537f71148d341a0f2,64ce5acb97489d65b14ecc7a,64cf48565f20021d64852ce6,,,,,,,ctch,resources/DR.BMP,resources/DY.BMP,Door3,-0.154609929,-0.021985816,1,0,0,0.596,optionLeft,70,7960,4,12,0,12,0,1,,,,,,,,,,,,,,,,,,,,,,,,,,,,,,,,,,,,,,,
,,,,,,,,2023-08-06_08h15.17.204,HF_wild_card,2022.2.4,MacIntel,29.85074627,5f5c9cd537f71148d341a0f2,64ce5acb97489d65b14ecc7a,64cf48565f20021d64852ce6,,,,,,,decisionTrl,resources/DY.BMP,resources/DP.BMP,Door1,0.209929078,-0.05177305,1,0,0,0.847,optionRight,30,7990,4,13,0,13,0,1,,,,,,,,,,,,,,,,,,,,,,,,,,,,,,,,,,,,,,,
,,,,,,,,2023-08-06_08h15.17.204,HF_wild_card,2022.2.4,MacIntel,29.85074627,5f5c9cd537f71148d341a0f2,64ce5acb97489d65b14ecc7a,64cf48565f20021d64852ce6,,,,,,,ctch,resources/DB.BMP,resources/DP.BMP,Door4,-0.184397163,-0.016312057,1,0,0,0.76,optionLeft,80,8070,4,14,0,14,0,1,,,,,,,,,,,,,,,,,,,,,,,,,,,,,,,,,,,,,,,
,,,,,,,,2023-08-06_08h15.17.204,HF_wild_card,2022.2.4,MacIntel,29.85074627,5f5c9cd537f71148d341a0f2,64ce5acb97489d65b14ecc7a,64cf48565f20021d64852ce6,,,,,,,sngl,resources/Empty.png,resources/DY.BMP,Door2,0.141843972,-0.034751773,1,0,0,0.744,optionRight,40,8110,4,15,0,15,0,1,,,,,,,,,,,,,,,,,,,,,,,,,,,,,,,,,,,,,,,
,,,,,,,,2023-08-06_08h15.17.204,HF_wild_card,2022.2.4,MacIntel,29.85074627,5f5c9cd537f71148d341a0f2,64ce5acb97489d65b14ecc7a,64cf48565f20021d64852ce6,,,,,,,decisionTrl,resources/DBN.BMP,resources/DY.BMP,WildCard_Ex,-0.222695035,0.009219858,1,0,0,0.674,optionLeft,95,8205,4,16,0,16,0,1,,,,,,,,,,,,,,,,,,,,,,,,,,,,,,,,,,,,,,,
,,,,,,,,2023-08-06_08h15.17.204,HF_wild_card,2022.2.4,MacIntel,29.85074627,5f5c9cd537f71148d341a0f2,64ce5acb97489d65b14ecc7a,64cf48565f20021d64852ce6,,,,,,,decisionTrl,resources/DP.BMP,resources/DY.BMP,Door1,-0.104964539,-0.039007092,1,0,0,0.673,optionLeft,30,8235,4,17,0,17,0,1,,,,,,,,,,,,,,,,,,,,,,,,,,,,,,,,,,,,,,,
,,,,,,,,2023-08-06_08h15.17.204,HF_wild_card,2022.2.4,MacIntel,29.85074627,5f5c9cd537f71148d341a0f2,64ce5acb97489d65b14ecc7a,64cf48565f20021d64852ce6,,,,,,,decisionTrl,resources/DR.BMP,resources/DBN.BMP,Door3,-0.307801418,-0.027659574,1,0,0,0.811,optionLeft,70,8305,4,18,0,18,0,1,,,,,,,,,,,,,,,,,,,,,,,,,,,,,,,,,,,,,,,
,,,,,,,,2023-08-06_08h15.17.204,HF_wild_card,2022.2.4,MacIntel,29.85074627,5f5c9cd537f71148d341a0f2,64ce5acb97489d65b14ecc7a,64cf48565f20021d64852ce6,,,,,,,decisionTrl,resources/DR.BMP,resources/DB.BMP,Door4,0.292198582,-0.04893617,1,0,0,0.756,optionRight,80,8385,4,19,0,19,0,1,,,,,,,,,,,,,,,,,,,,,,,,,,,,,,,,,,,,,,,
,,,,,,,,2023-08-06_08h15.17.204,HF_wild_card,2022.2.4,MacIntel,29.85074627,5f5c9cd537f71148d341a0f2,64ce5acb97489d65b14ecc7a,64cf48565f20021d64852ce6,,,,,,,decisionTrl,resources/DBN.BMP,resources/DB.BMP,WildCard_Ex,-0.15035461,-0.029078014,1,0,0,0.628,optionLeft,95,8480,4,20,0,20,0,1,,,,,,,,,,,,,,,,,,,,,,,,,,,,,,,,,,,,,,,
,,,,,,,,2023-08-06_08h15.17.204,HF_wild_card,2022.2.4,MacIntel,29.85074627,5f5c9cd537f71148d341a0f2,64ce5acb97489d65b14ecc7a,64cf48565f20021d64852ce6,,,,,,,decisionTrl,resources/DY.BMP,resources/DBN.BMP,WildCard_Ex,0.226950355,-0.043262411,1,0,0,0.629,optionRight,95,8575,4,21,0,21,0,1,,,,,,,,,,,,,,,,,,,,,,,,,,,,,,,,,,,,,,,
,,,,,,,,2023-08-06_08h15.17.204,HF_wild_card,2022.2.4,MacIntel,29.85074627,5f5c9cd537f71148d341a0f2,64ce5acb97489d65b14ecc7a,64cf48565f20021d64852ce6,,,,,,,sngl,resources/DR.BMP,resources/Empty.png,Door3,-0.236879433,-0.020567376,1,0,0,0.527,optionLeft,70,8645,4,22,0,22,0,1,,,,,,,,,,,,,,,,,,,,,,,,,,,,,,,,,,,,,,,
,,,,,,,,2023-08-06_08h15.17.204,HF_wild_card,2022.2.4,MacIntel,29.85074627,5f5c9cd537f71148d341a0f2,64ce5acb97489d65b14ecc7a,64cf48565f20021d64852ce6,,,,,,,decisionTrl,resources/DR.BMP,resources/DB.BMP,Door4,0.211347518,-0.044680851,1,0,0,0.581,optionRight,80,8725,4,23,0,23,0,1,,,,,,,,,,,,,,,,,,,,,,,,,,,,,,,,,,,,,,,
,,,,,,,,2023-08-06_08h15.17.204,HF_wild_card,2022.2.4,MacIntel,29.85074627,5f5c9cd537f71148d341a0f2,64ce5acb97489d65b14ecc7a,64cf48565f20021d64852ce6,,,,,,,sngl,resources/DBN.BMP,resources/Empty.png,WildCard_Ex,-0.20141844,-0.019148936,1,0,0,0.558,optionLeft,95,8820,4,24,0,24,0,1,,,,,,,,,,,,,,,,,,,,,,,,,,,,,,,,,,,,,,,
,,,,,,,,2023-08-06_08h15.17.204,HF_wild_card,2022.2.4,MacIntel,29.85074627,5f5c9cd537f71148d341a0f2,64ce5acb97489d65b14ecc7a,64cf48565f20021d64852ce6,,,,,,,ctch,resources/DR.BMP,resources/DY.BMP,Door3,-0.116312057,-0.043262411,1,0,0,0.644,optionLeft,70,8890,4,25,0,25,0,1,,,,,,,,,,,,,,,,,,,,,,,,,,,,,,,,,,,,,,,
,,,,,,,,2023-08-06_08h15.17.204,HF_wild_card,2022.2.4,MacIntel,29.85074627,5f5c9cd537f71148d341a0f2,64ce5acb97489d65b14ecc7a,64cf48565f20021d64852ce6,,,,,,,decisionTrl,resources/DR.BMP,resources/DB.BMP,Door4,0.235460993,-0.043262411,1,0,0,0.577,optionRight,60,8950,4,26,0,26,0,1,,,,,,,,,,,,,,,,,,,,,,,,,,,,,,,,,,,,,,,
,,,,,,,,2023-08-06_08h15.17.204,HF_wild_card,2022.2.4,MacIntel,29.85074627,5f5c9cd537f71148d341a0f2,64ce5acb97489d65b14ecc7a,64cf48565f20021d64852ce6,,,,,,,decisionTrl,resources/DBN.BMP,resources/DR.BMP,WildCard_Ex,-0.211347518,-0.020567376,1,0,0,0.682,optionLeft,5,8955,4,27,0,27,0,1,,,,,,,,,,,,,,,,,,,,,,,,,,,,,,,,,,,,,,,
,,,,,,,,2023-08-06_08h15.17.204,HF_wild_card,2022.2.4,MacIntel,29.85074627,5f5c9cd537f71148d341a0f2,64ce5acb97489d65b14ecc7a,64cf48565f20021d64852ce6,,,,,,,decisionTrl,resources/DB.BMP,resources/DR.BMP,Door4,-0.234042553,-0.039007092,1,0,0,1.029,optionLeft,80,9035,4,28,0,28,0,1,,,,,,,,,,,,,,,,,,,,,,,,,,,,,,,,,,,,,,,
,,,,,,,,2023-08-06_08h15.17.204,HF_wild_card,2022.2.4,MacIntel,29.85074627,5f5c9cd537f71148d341a0f2,64ce5acb97489d65b14ecc7a,64cf48565f20021d64852ce6,,,,,,,decisionTrl,resources/DB.BMP,resources/DR.BMP,Door4,-0.141843972,-0.003546099,1,0,0,0.572,optionLeft,60,9095,4,29,0,29,0,1,,,,,,,,,,,,,,,,,,,,,,,,,,,,,,,,,,,,,,,
,,,,,,,,2023-08-06_08h15.17.204,HF_wild_card,2022.2.4,MacIntel,29.85074627,5f5c9cd537f71148d341a0f2,64ce5acb97489d65b14ecc7a,64cf48565f20021d64852ce6,,,,,,,decisionTrl,resources/DY.BMP,resources/DP.BMP,Door1,0.15035461,-0.020567376,1,0,0,0.778,optionRight,30,9125,4,30,0,30,0,1,,,,,,,,,,,,,,,,,,,,,,,,,,,,,,,,,,,,,,,
,,,,,,,,2023-08-06_08h15.17.204,HF_wild_card,2022.2.4,MacIntel,29.85074627,5f5c9cd537f71148d341a0f2,64ce5acb97489d65b14ecc7a,64cf48565f20021d64852ce6,,,,,,,decisionTrl,resources/DP.BMP,resources/DY.BMP,Door2,0.269503546,-0.033333333,1,0,0,0.797,optionRight,20,9145,4,31,0,31,0,1,,,,,,,,,,,,,,,,,,,,,,,,,,,,,,,,,,,,,,,
,,,,,,,,2023-08-06_08h15.17.204,HF_wild_card,2022.2.4,MacIntel,29.85074627,5f5c9cd537f71148d341a0f2,64ce5acb97489d65b14ecc7a,64cf48565f20021d64852ce6,,,,,,,decisionTrl,resources/DB.BMP,resources/DR.BMP,Door4,-0.168794326,-0.044680851,1,0,0,0.544,optionLeft,60,9205,4,32,0,32,0,1,,,,,,,,,,,,,,,,,,,,,,,,,,,,,,,,,,,,,,,
,,,,,,,,2023-08-06_08h15.17.204,HF_wild_card,2022.2.4,MacIntel,29.85074627,5f5c9cd537f71148d341a0f2,64ce5acb97489d65b14ecc7a,64cf48565f20021d64852ce6,,,,,,,decisionTrl,resources/DBN.BMP,resources/DP.BMP,WildCard_Ex,-0.231205674,-0.046099291,1,0,0,0.459,optionLeft,95,9300,4,33,0,33,0,1,,,,,,,,,,,,,,,,,,,,,,,,,,,,,,,,,,,,,,,
,,,,,,,,2023-08-06_08h15.17.204,HF_wild_card,2022.2.4,MacIntel,29.85074627,5f5c9cd537f71148d341a0f2,64ce5acb97489d65b14ecc7a,64cf48565f20021d64852ce6,,,,,,,ctch,resources/DY.BMP,resources/DR.BMP,Door2,-0.156028369,-0.058865248,1,0,0,0.562,optionLeft,40,9340,4,34,0,34,0,1,,,,,,,,,,,,,,,,,,,,,,,,,,,,,,,,,,,,,,,
,,,,,,,,2023-08-06_08h15.17.204,HF_wild_card,2022.2.4,MacIntel,29.85074627,5f5c9cd537f71148d341a0f2,64ce5acb97489d65b14ecc7a,64cf48565f20021d64852ce6,,,,,,,decisionTrl,resources/DP.BMP,resources/DY.BMP,Door2,0.24822695,-0.060283688,1,0,0,0.846,optionRight,20,9360,4,35,0,35,0,1,,,,,,,,,,,,,,,,,,,,,,,,,,,,,,,,,,,,,,,
,,,,,,,,2023-08-06_08h15.17.204,HF_wild_card,2022.2.4,MacIntel,29.85074627,5f5c9cd537f71148d341a0f2,64ce5acb97489d65b14ecc7a,64cf48565f20021d64852ce6,,,,,,,decisionTrl,resources/DP.BMP,resources/DBN.BMP,WildCard_Ex,0.226950355,-0.039007092,1,0,0,0.625,optionRight,95,9455,4,36,0,36,0,1,,,,,,,,,,,,,,,,,,,,,,,,,,,,,,,,,,,,,,,
,,,,,,,,2023-08-06_08h15.17.204,HF_wild_card,2022.2.4,MacIntel,29.85074627,5f5c9cd537f71148d341a0f2,64ce5acb97489d65b14ecc7a,64cf48565f20021d64852ce6,,,,,,,decisionTrl,resources/DB.BMP,resources/DBN.BMP,WildCard_Ex,0.219858156,-0.037588652,1,0,0,0.529,optionRight,5,9460,4,37,0,37,0,1,,,,,,,,,,,,,,,,,,,,,,,,,,,,,,,,,,,,,,,
,,,,,,,,2023-08-06_08h15.17.204,HF_wild_card,2022.2.4,MacIntel,29.85074627,5f5c9cd537f71148d341a0f2,64ce5acb97489d65b14ecc7a,64cf48565f20021d64852ce6,,,,,,,sngl,resources/Empty.png,resources/DB.BMP,Door4,0.2,-0.054609929,1,0,0,0.608,optionRight,80,9540,4,38,0,38,0,1,,,,,,,,,,,,,,,,,,,,,,,,,,,,,,,,,,,,,,,
,,,,,,,,2023-08-06_08h15.17.204,HF_wild_card,2022.2.4,MacIntel,29.85074627,5f5c9cd537f71148d341a0f2,64ce5acb97489d65b14ecc7a,64cf48565f20021d64852ce6,,,,,,,sngl,resources/Empty.png,resources/DP.BMP,Door1,0.276595745,-0.034751773,1,0,0,0.563,optionRight,30,9570,4,39,0,39,0,1,,,,,,,,,,,,,,,,,,,,,,,,,,,,,,,,,,,,,,,
,,,,,,,,2023-08-06_08h15.17.204,HF_wild_card,2022.2.4,MacIntel,29.85074627,5f5c9cd537f71148d341a0f2,64ce5acb97489d65b14ecc7a,64cf48565f20021d64852ce6,,,,,,,sngl,resources/DY.BMP,resources/Empty.png,Door2,-0.140425532,-0.031914894,1,0,0,0.508,optionLeft,20,9590,4,40,0,40,0,1,,,,,,,,,,,,,,,,,,,,,,,,,,,,,,,,,,,,,,,
,,,,,,,,2023-08-06_08h15.17.204,HF_wild_card,2022.2.4,MacIntel,29.85074627,5f5c9cd537f71148d341a0f2,64ce5acb97489d65b14ecc7a,64cf48565f20021d64852ce6,,,,,,,ctch,resources/DP.BMP,resources/DB.BMP,Door4,0.231205674,-0.037588652,1,0,0,0.563,optionRight,60,9650,4,41,0,41,0,1,,,,,,,,,,,,,,,,,,,,,,,,,,,,,,,,,,,,,,,
,,,,,,,,2023-08-06_08h15.17.204,HF_wild_card,2022.2.4,MacIntel,29.85074627,5f5c9cd537f71148d341a0f2,64ce5acb97489d65b14ecc7a,64cf48565f20021d64852ce6,,,,,,,sngl,resources/DP.BMP,resources/Empty.png,Door1,-0.170212766,-0.016312057,1,0,0,0.611,optionLeft,30,9680,4,42,0,42,0,1,,,,,,,,,,,,,,,,,,,,,,,,,,,,,,,,,,,,,,,
,,,,,,,,2023-08-06_08h15.17.204,HF_wild_card,2022.2.4,MacIntel,29.85074627,5f5c9cd537f71148d341a0f2,64ce5acb97489d65b14ecc7a,64cf48565f20021d64852ce6,,,,,,,decisionTrl,resources/DY.BMP,resources/DP.BMP,Door2,-0.157446809,-0.027659574,1,0,0,0.793,optionLeft,40,9720,4,43,0,43,0,1,,,,,,,,,,,,,,,,,,,,,,,,,,,,,,,,,,,,,,,
,,,,,,,,2023-08-06_08h15.17.204,HF_wild_card,2022.2.4,MacIntel,29.85074627,5f5c9cd537f71148d341a0f2,64ce5acb97489d65b14ecc7a,64cf48565f20021d64852ce6,,,,,,,,,,,,,,,,,,,,,,,,,,3,0,3,0,1,,,,,,,,,,,,,,,,,,,,,,,,,,,,,,,,,,
,,,,,,,,2023-08-06_08h15.17.204,HF_wild_card,2022.2.4,MacIntel,29.85074627,5f5c9cd537f71148d341a0f2,64ce5acb97489d65b14ecc7a,64cf48565f20021d64852ce6,,,,,,,sngl,resources/Empty.png,resources/DP.BMP,Door1,0.15035461,-0.175177305,1,0,0,0.594,optionRight,30,9750,5,0,0,0,0,1,,,,,,,,,,,,,,,,,,,,,,,,,,,,,,,,,,,,,,,
,,,,,,,,2023-08-06_08h15.17.204,HF_wild_card,2022.2.4,MacIntel,29.85074627,5f5c9cd537f71148d341a0f2,64ce5acb97489d65b14ecc7a,64cf48565f20021d64852ce6,,,,,,,sngl,resources/DP.BMP,resources/Empty.png,Door1,-0.260992908,-0.064539007,1,0,0,0.561,optionLeft,30,9780,5,1,0,1,0,1,,,,,,,,,,,,,,,,,,,,,,,,,,,,,,,,,,,,,,,
,,,,,,,,2023-08-06_08h15.17.204,HF_wild_card,2022.2.4,MacIntel,29.85074627,5f5c9cd537f71148d341a0f2,64ce5acb97489d65b14ecc7a,64cf48565f20021d64852ce6,,,,,,,decisionTrl,resources/DBN.BMP,resources/DY.BMP,WildCard_Ex,-0.184397163,-0.003546099,1,0,0,0.627,optionLeft,95,9875,5,2,0,2,0,1,,,,,,,,,,,,,,,,,,,,,,,,,,,,,,,,,,,,,,,
,,,,,,,,2023-08-06_08h15.17.204,HF_wild_card,2022.2.4,MacIntel,29.85074627,5f5c9cd537f71148d341a0f2,64ce5acb97489d65b14ecc7a,64cf48565f20021d64852ce6,,,,,,,ctch,resources/DR.BMP,resources/DY.BMP,Door3,-0.103546099,-0.030496454,1,0,0,0.656,optionLeft,70,9945,5,3,0,3,0,1,,,,,,,,,,,,,,,,,,,,,,,,,,,,,,,,,,,,,,,
,,,,,,,,2023-08-06_08h15.17.204,HF_wild_card,2022.2.4,MacIntel,29.85074627,5f5c9cd537f71148d341a0f2,64ce5acb97489d65b14ecc7a,64cf48565f20021d64852ce6,,,,,,,decisionTrl,resources/DB.BMP,resources/DR.BMP,Door4,-0.10070922,-0.021985816,1,0,0,0.604,optionLeft,80,10025,5,4,0,4,0,1,,,,,,,,,,,,,,,,,,,,,,,,,,,,,,,,,,,,,,,
,,,,,,,,2023-08-06_08h15.17.204,HF_wild_card,2022.2.4,MacIntel,29.85074627,5f5c9cd537f71148d341a0f2,64ce5acb97489d65b14ecc7a,64cf48565f20021d64852ce6,,,,,,,ctch,resources/DR.BMP,resources/DY.BMP,Door3,-0.083687943,-0.023404255,1,0,0,0.611,optionLeft,70,10095,5,5,0,5,0,1,,,,,,,,,,,,,,,,,,,,,,,,,,,,,,,,,,,,,,,
,,,,,,,,2023-08-06_08h15.17.204,HF_wild_card,2022.2.4,MacIntel,29.85074627,5f5c9cd537f71148d341a0f2,64ce5acb97489d65b14ecc7a,64cf48565f20021d64852ce6,,,,,,,sngl,resources/Empty.png,resources/DBN.BMP,WildCard_Ex,0.232624113,-0.036170213,1,0,0,0.547,optionRight,95,10190,5,6,0,6,0,1,,,,,,,,,,,,,,,,,,,,,,,,,,,,,,,,,,,,,,,
,,,,,,,,2023-08-06_08h15.17.204,HF_wild_card,2022.2.4,MacIntel,29.85074627,5f5c9cd537f71148d341a0f2,64ce5acb97489d65b14ecc7a,64cf48565f20021d64852ce6,,,,,,,decisionTrl,resources/DR.BMP,resources/DB.BMP,Door3,-0.286524823,0.026241135,1,0,0,1.384,optionLeft,70,10260,5,7,0,7,0,1,,,,,,,,,,,,,,,,,,,,,,,,,,,,,,,,,,,,,,,
,,,,,,,,2023-08-06_08h15.17.204,HF_wild_card,2022.2.4,MacIntel,29.85074627,5f5c9cd537f71148d341a0f2,64ce5acb97489d65b14ecc7a,64cf48565f20021d64852ce6,,,,,,,decisionTrl,resources/DR.BMP,resources/DB.BMP,Door4,0.19858156,-0.034751773,1,0,0,0.599,optionRight,80,10340,5,8,0,8,0,1,,,,,,,,,,,,,,,,,,,,,,,,,,,,,,,,,,,,,,,
,,,,,,,,2023-08-06_08h15.17.204,HF_wild_card,2022.2.4,MacIntel,29.85074627,5f5c9cd537f71148d341a0f2,64ce5acb97489d65b14ecc7a,64cf48565f20021d64852ce6,,,,,,,sngl,resources/DY.BMP,resources/Empty.png,Door2,-0.209929078,-0.00070922,1,0,0,0.531,optionLeft,40,10380,5,9,0,9,0,1,,,,,,,,,,,,,,,,,,,,,,,,,,,,,,,,,,,,,,,
,,,,,,,,2023-08-06_08h15.17.204,HF_wild_card,2022.2.4,MacIntel,29.85074627,5f5c9cd537f71148d341a0f2,64ce5acb97489d65b14ecc7a,64cf48565f20021d64852ce6,,,,,,,decisionTrl,resources/DBN.BMP,resources/DB.BMP,WildCard_Ex,-0.228368794,-0.007801418,1,0,0,0.634,optionLeft,5,10385,5,10,0,10,0,1,,,,,,,,,,,,,,,,,,,,,,,,,,,,,,,,,,,,,,,
,,,,,,,,2023-08-06_08h15.17.204,HF_wild_card,2022.2.4,MacIntel,29.85074627,5f5c9cd537f71148d341a0f2,64ce5acb97489d65b14ecc7a,64cf48565f20021d64852ce6,,,,,,,sngl,resources/DR.BMP,resources/Empty.png,Door3,-0.190070922,0.010638298,1,0,0,0.542,optionLeft,70,10455,5,11,0,11,0,1,,,,,,,,,,,,,,,,,,,,,,,,,,,,,,,,,,,,,,,
,,,,,,,,2023-08-06_08h15.17.204,HF_wild_card,2022.2.4,MacIntel,29.85074627,5f5c9cd537f71148d341a0f2,64ce5acb97489d65b14ecc7a,64cf48565f20021d64852ce6,,,,,,,decisionTrl,resources/DY.BMP,resources/DP.BMP,Door1,0.214184397,-0.041843972,1,0,0,0.746,optionRight,30,10485,5,12,0,12,0,1,,,,,,,,,,,,,,,,,,,,,,,,,,,,,,,,,,,,,,,
,,,,,,,,2023-08-06_08h15.17.204,HF_wild_card,2022.2.4,MacIntel,29.85074627,5f5c9cd537f71148d341a0f2,64ce5acb97489d65b14ecc7a,64cf48565f20021d64852ce6,,,,,,,decisionTrl,resources/DB.BMP,resources/DR.BMP,Door4,-0.154609929,-0.041843972,1,0,0,0.626,optionLeft,80,10565,5,13,0,13,0,1,,,,,,,,,,,,,,,,,,,,,,,,,,,,,,,,,,,,,,,
,,,,,,,,2023-08-06_08h15.17.204,HF_wild_card,2022.2.4,MacIntel,29.85074627,5f5c9cd537f71148d341a0f2,64ce5acb97489d65b14ecc7a,64cf48565f20021d64852ce6,,,,,,,ctch,resources/DY.BMP,resources/DR.BMP,Door3,0.229787234,-0.05035461,1,0,0,0.742,optionRight,70,10635,5,14,0,14,0,1,,,,,,,,,,,,,,,,,,,,,,,,,,,,,,,,,,,,,,,
,,,,,,,,2023-08-06_08h15.17.204,HF_wild_card,2022.2.4,MacIntel,29.85074627,5f5c9cd537f71148d341a0f2,64ce5acb97489d65b14ecc7a,64cf48565f20021d64852ce6,,,,,,,sngl,resources/DBN.BMP,resources/Empty.png,WildCard_Ex,-0.195744681,-0.029078014,1,0,0,0.528,optionLeft,95,10730,5,15,0,15,0,1,,,,,,,,,,,,,,,,,,,,,,,,,,,,,,,,,,,,,,,
,,,,,,,,2023-08-06_08h15.17.204,HF_wild_card,2022.2.4,MacIntel,29.85074627,5f5c9cd537f71148d341a0f2,64ce5acb97489d65b14ecc7a,64cf48565f20021d64852ce6,,,,,,,decisionTrl,resources/DB.BMP,resources/DR.BMP,Door4,-0.158865248,-0.036170213,1,0,0,0.695,optionLeft,80,10810,5,16,0,16,0,1,,,,,,,,,,,,,,,,,,,,,,,,,,,,,,,,,,,,,,,
,,,,,,,,2023-08-06_08h15.17.204,HF_wild_card,2022.2.4,MacIntel,29.85074627,5f5c9cd537f71148d341a0f2,64ce5acb97489d65b14ecc7a,64cf48565f20021d64852ce6,,,,,,,decisionTrl,resources/DR.BMP,resources/DB.BMP,Door4,0.194326241,-0.036170213,1,0,0,0.645,optionRight,60,10870,5,17,0,17,0,1,,,,,,,,,,,,,,,,,,,,,,,,,,,,,,,,,,,,,,,
,,,,,,,,2023-08-06_08h15.17.204,HF_wild_card,2022.2.4,MacIntel,29.85074627,5f5c9cd537f71148d341a0f2,64ce5acb97489d65b14ecc7a,64cf48565f20021d64852ce6,,,,,,,decisionTrl,resources/DY.BMP,resources/DP.BMP,Door2,-0.163120567,-0.036170213,1,0,0,0.993,optionLeft,20,10890,5,18,0,18,0,1,,,,,,,,,,,,,,,,,,,,,,,,,,,,,,,,,,,,,,,
,,,,,,,,2023-08-06_08h15.17.204,HF_wild_card,2022.2.4,MacIntel,29.85074627,5f5c9cd537f71148d341a0f2,64ce5acb97489d65b14ecc7a,64cf48565f20021d64852ce6,,,,,,,sngl,resources/Empty.png,resources/DY.BMP,Door2,0.164539007,-0.031914894,1,0,0,0.645,optionRight,20,10910,5,19,0,19,0,1,,,,,,,,,,,,,,,,,,,,,,,,,,,,,,,,,,,,,,,
,,,,,,,,2023-08-06_08h15.17.204,HF_wild_card,2022.2.4,MacIntel,29.85074627,5f5c9cd537f71148d341a0f2,64ce5acb97489d65b14ecc7a,64cf48565f20021d64852ce6,,,,,,,decisionTrl,resources/DY.BMP,resources/DP.BMP,Door1,0.14893617,-0.013475177,1,0,0,1.971,optionRight,30,10940,5,20,0,20,0,1,,,,,,,,,,,,,,,,,,,,,,,,,,,,,,,,,,,,,,,
,,,,,,,,2023-08-06_08h15.17.204,HF_wild_card,2022.2.4,MacIntel,29.85074627,5f5c9cd537f71148d341a0f2,64ce5acb97489d65b14ecc7a,64cf48565f20021d64852ce6,,,,,,,sngl,resources/Empty.png,resources/DR.BMP,Door3,0.253900709,-0.053191489,1,0,0,0.545,optionRight,70,11010,5,21,0,21,0,1,,,,,,,,,,,,,,,,,,,,,,,,,,,,,,,,,,,,,,,
,,,,,,,,2023-08-06_08h15.17.204,HF_wild_card,2022.2.4,MacIntel,29.85074627,5f5c9cd537f71148d341a0f2,64ce5acb97489d65b14ecc7a,64cf48565f20021d64852ce6,,,,,,,decisionTrl,resources/DBN.BMP,resources/DP.BMP,WildCard_Ex,-0.238297872,-0.013475177,1,0,0,0.66,optionLeft,5,11015,5,22,0,22,0,1,,,,,,,,,,,,,,,,,,,,,,,,,,,,,,,,,,,,,,,
,,,,,,,,2023-08-06_08h15.17.204,HF_wild_card,2022.2.4,MacIntel,29.85074627,5f5c9cd537f71148d341a0f2,64ce5acb97489d65b14ecc7a,64cf48565f20021d64852ce6,,,,,,,decisionTrl,resources/DR.BMP,resources/DB.BMP,Door4,0.217021277,-0.024822695,1,0,0,0.644,optionRight,80,11095,5,23,0,23,0,1,,,,,,,,,,,,,,,,,,,,,,,,,,,,,,,,,,,,,,,
,,,,,,,,2023-08-06_08h15.17.204,HF_wild_card,2022.2.4,MacIntel,29.85074627,5f5c9cd537f71148d341a0f2,64ce5acb97489d65b14ecc7a,64cf48565f20021d64852ce6,,,,,,,decisionTrl,resources/DP.BMP,resources/DY.BMP,Door1,-0.133333333,-0.030496454,1,0,0,0.61,optionLeft,30,11125,5,24,0,24,0,1,,,,,,,,,,,,,,,,,,,,,,,,,,,,,,,,,,,,,,,
,,,,,,,,2023-08-06_08h15.17.204,HF_wild_card,2022.2.4,MacIntel,29.85074627,5f5c9cd537f71148d341a0f2,64ce5acb97489d65b14ecc7a,64cf48565f20021d64852ce6,,,,,,,decisionTrl,resources/DBN.BMP,resources/DR.BMP,WildCard_Ex,-0.156028369,-0.024822695,1,0,0,0.595,optionLeft,95,11220,5,25,0,25,0,1,,,,,,,,,,,,,,,,,,,,,,,,,,,,,,,,,,,,,,,
,,,,,,,,2023-08-06_08h15.17.204,HF_wild_card,2022.2.4,MacIntel,29.85074627,5f5c9cd537f71148d341a0f2,64ce5acb97489d65b14ecc7a,64cf48565f20021d64852ce6,,,,,,,decisionTrl,resources/DR.BMP,resources/DBN.BMP,WildCard_Ex,0.184397163,-0.009219858,1,0,0,0.578,optionRight,95,11315,5,26,0,26,0,1,,,,,,,,,,,,,,,,,,,,,,,,,,,,,,,,,,,,,,,
,,,,,,,,2023-08-06_08h15.17.204,HF_wild_card,2022.2.4,MacIntel,29.85074627,5f5c9cd537f71148d341a0f2,64ce5acb97489d65b14ecc7a,64cf48565f20021d64852ce6,,,,,,,decisionTrl,resources/DP.BMP,resources/DBN.BMP,WildCard_Ex,0.160283688,0.00070922,1,0,0,0.577,optionRight,95,11410,5,27,0,27,0,1,,,,,,,,,,,,,,,,,,,,,,,,,,,,,,,,,,,,,,,
,,,,,,,,2023-08-06_08h15.17.204,HF_wild_card,2022.2.4,MacIntel,29.85074627,5f5c9cd537f71148d341a0f2,64ce5acb97489d65b14ecc7a,64cf48565f20021d64852ce6,,,,,,,ctch,resources/DB.BMP,resources/DP.BMP,Door4,-0.24964539,0.007801418,1,0,0,0.53,optionLeft,60,11470,5,28,0,28,0,1,,,,,,,,,,,,,,,,,,,,,,,,,,,,,,,,,,,,,,,
,,,,,,,,2023-08-06_08h15.17.204,HF_wild_card,2022.2.4,MacIntel,29.85074627,5f5c9cd537f71148d341a0f2,64ce5acb97489d65b14ecc7a,64cf48565f20021d64852ce6,,,,,,,ctch,resources/DP.BMP,resources/DB.BMP,Door1,-0.263829787,-0.004964539,1,0,0,0.412,optionLeft,30,11500,5,29,0,29,0,1,,,,,,,,,,,,,,,,,,,,,,,,,,,,,,,,,,,,,,,
,,,,,,,,2023-08-06_08h15.17.204,HF_wild_card,2022.2.4,MacIntel,29.85074627,5f5c9cd537f71148d341a0f2,64ce5acb97489d65b14ecc7a,64cf48565f20021d64852ce6,,,,,,,decisionTrl,resources/DY.BMP,resources/DP.BMP,Door1,0.219858156,-0.016312057,1,0,0,0.527,optionRight,30,11530,5,30,0,30,0,1,,,,,,,,,,,,,,,,,,,,,,,,,,,,,,,,,,,,,,,
,,,,,,,,2023-08-06_08h15.17.204,HF_wild_card,2022.2.4,MacIntel,29.85074627,5f5c9cd537f71148d341a0f2,64ce5acb97489d65b14ecc7a,64cf48565f20021d64852ce6,,,,,,,decisionTrl,resources/DP.BMP,resources/DY.BMP,Door1,-0.228368794,-0.00070922,1,0,0,0.412,optionLeft,30,11560,5,31,0,31,0,1,,,,,,,,,,,,,,,,,,,,,,,,,,,,,,,,,,,,,,,
,,,,,,,,2023-08-06_08h15.17.204,HF_wild_card,2022.2.4,MacIntel,29.85074627,5f5c9cd537f71148d341a0f2,64ce5acb97489d65b14ecc7a,64cf48565f20021d64852ce6,,,,,,,sngl,resources/Empty.png,resources/DBN.BMP,WildCard_Ex,0.292198582,-0.021985816,1,0,0,0.694,optionRight,5,11565,5,32,0,32,0,1,,,,,,,,,,,,,,,,,,,,,,,,,,,,,,,,,,,,,,,
,,,,,,,,2023-08-06_08h15.17.204,HF_wild_card,2022.2.4,MacIntel,29.85074627,5f5c9cd537f71148d341a0f2,64ce5acb97489d65b14ecc7a,64cf48565f20021d64852ce6,,,,,,,decisionTrl,resources/DP.BMP,resources/DY.BMP,Door1,-0.211347518,0.00070922,1,0,0,0.496,optionLeft,30,11595,5,33,0,33,0,1,,,,,,,,,,,,,,,,,,,,,,,,,,,,,,,,,,,,,,,
,,,,,,,,2023-08-06_08h15.17.204,HF_wild_card,2022.2.4,MacIntel,29.85074627,5f5c9cd537f71148d341a0f2,64ce5acb97489d65b14ecc7a,64cf48565f20021d64852ce6,,,,,,,ctch,resources/DB.BMP,resources/DP.BMP,Door4,-0.158865248,-0.014893617,1,0,0,0.527,optionLeft,60,11655,5,34,0,34,0,1,,,,,,,,,,,,,,,,,,,,,,,,,,,,,,,,,,,,,,,
,,,,,,,,2023-08-06_08h15.17.204,HF_wild_card,2022.2.4,MacIntel,29.85074627,5f5c9cd537f71148d341a0f2,64ce5acb97489d65b14ecc7a,64cf48565f20021d64852ce6,,,,,,,decisionTrl,resources/DB.BMP,resources/DBN.BMP,WildCard_Ex,0.30212766,-0.019148936,1,0,0,0.54,optionRight,95,11750,5,35,0,35,0,1,,,,,,,,,,,,,,,,,,,,,,,,,,,,,,,,,,,,,,,
,,,,,,,,2023-08-06_08h15.17.204,HF_wild_card,2022.2.4,MacIntel,29.85074627,5f5c9cd537f71148d341a0f2,64ce5acb97489d65b14ecc7a,64cf48565f20021d64852ce6,,,,,,,sngl,resources/DB.BMP,resources/Empty.png,Door4,-0.185815603,-0.020567376,1,0,0,0.508,optionLeft,80,11830,5,36,0,36,0,1,,,,,,,,,,,,,,,,,,,,,,,,,,,,,,,,,,,,,,,
,,,,,,,,2023-08-06_08h15.17.204,HF_wild_card,2022.2.4,MacIntel,29.85074627,5f5c9cd537f71148d341a0f2,64ce5acb97489d65b14ecc7a,64cf48565f20021d64852ce6,,,,,,,decisionTrl,resources/DY.BMP,resources/DBN.BMP,WildCard_Ex,0.255319149,-0.026241135,1,0,0,0.543,optionRight,5,11835,5,37,0,37,0,1,,,,,,,,,,,,,,,,,,,,,,,,,,,,,,,,,,,,,,,
,,,,,,,,2023-08-06_08h15.17.204,HF_wild_card,2022.2.4,MacIntel,29.85074627,5f5c9cd537f71148d341a0f2,64ce5acb97489d65b14ecc7a,64cf48565f20021d64852ce6,,,,,,,decisionTrl,resources/DP.BMP,resources/DY.BMP,Door1,-0.19858156,-0.017730496,1,0,0,0.551,optionLeft,30,11865,5,38,0,38,0,1,,,,,,,,,,,,,,,,,,,,,,,,,,,,,,,,,,,,,,,
,,,,,,,,2023-08-06_08h15.17.204,HF_wild_card,2022.2.4,MacIntel,29.85074627,5f5c9cd537f71148d341a0f2,64ce5acb97489d65b14ecc7a,64cf48565f20021d64852ce6,,,,,,,decisionTrl,resources/DB.BMP,resources/DR.BMP,Door3,0.232624113,-0.014893617,1,0,0,0.559,optionRight,70,11935,5,39,0,39,0,1,,,,,,,,,,,,,,,,,,,,,,,,,,,,,,,,,,,,,,,
,,,,,,,,2023-08-06_08h15.17.204,HF_wild_card,2022.2.4,MacIntel,29.85074627,5f5c9cd537f71148d341a0f2,64ce5acb97489d65b14ecc7a,64cf48565f20021d64852ce6,,,,,,,sngl,resources/DBN.BMP,resources/Empty.png,WildCard_Ex,-0.209929078,-0.017730496,1,0,0,0.489,optionLeft,5,11940,5,40,0,40,0,1,,,,,,,,,,,,,,,,,,,,,,,,,,,,,,,,,,,,,,,
,,,,,,,,2023-08-06_08h15.17.204,HF_wild_card,2022.2.4,MacIntel,29.85074627,5f5c9cd537f71148d341a0f2,64ce5acb97489d65b14ecc7a,64cf48565f20021d64852ce6,,,,,,,ctch,resources/DP.BMP,resources/DB.BMP,Door4,0.144680851,-0.020567376,1,0,0,0.627,optionRight,60,12000,5,41,0,41,0,1,,,,,,,,,,,,,,,,,,,,,,,,,,,,,,,,,,,,,,,
,,,,,,,,2023-08-06_08h15.17.204,HF_wild_card,2022.2.4,MacIntel,29.85074627,5f5c9cd537f71148d341a0f2,64ce5acb97489d65b14ecc7a,64cf48565f20021d64852ce6,,,,,,,ctch,resources/DY.BMP,resources/DR.BMP,Door2,-0.168794326,-0.036170213,1,0,0,0.507,optionLeft,40,12040,5,42,0,42,0,1,,,,,,,,,,,,,,,,,,,,,,,,,,,,,,,,,,,,,,,
,,,,,,,,2023-08-06_08h15.17.204,HF_wild_card,2022.2.4,MacIntel,29.85074627,5f5c9cd537f71148d341a0f2,64ce5acb97489d65b14ecc7a,64cf48565f20021d64852ce6,,,,,,,sngl,resources/Empty.png,resources/DB.BMP,Door4,0.235460993,-0.05035461,1,0,0,0.506,optionRight,60,12100,5,43,0,43,0,1,,,,,,,,,,,,,,,,,,,,,,,,,,,,,,,,,,,,,,,
,,,,,,,,2023-08-06_08h15.17.204,HF_wild_card,2022.2.4,MacIntel,29.85074627,5f5c9cd537f71148d341a0f2,64ce5acb97489d65b14ecc7a,64cf48565f20021d64852ce6,,,,,,,,,,,,,,,,,,,,,,,,,,4,0,4,0,1,,,,,,,,,,,,,,,,,,,,,,,,,,,,,,,,,,
,,,,,,,,2023-08-06_08h15.17.204,HF_wild_card,2022.2.4,MacIntel,29.85074627,5f5c9cd537f71148d341a0f2,64ce5acb97489d65b14ecc7a,64cf48565f20021d64852ce6,,,,,,,sngl,resources/DR.BMP,resources/Empty.png,Door3,-0.276595745,-0.033333333,1,0,0,0.575,optionLeft,70,12170,6,0,0,0,0,1,,,,,,,,,,,,,,,,,,,,,,,,,,,,,,,,,,,,,,,
,,,,,,,,2023-08-06_08h15.17.204,HF_wild_card,2022.2.4,MacIntel,29.85074627,5f5c9cd537f71148d341a0f2,64ce5acb97489d65b14ecc7a,64cf48565f20021d64852ce6,,,,,,,decisionTrl,resources/DB.BMP,resources/DR.BMP,Door4,-0.326241135,0.014893617,1,0,0,0.712,optionLeft,80,12250,6,1,0,1,0,1,,,,,,,,,,,,,,,,,,,,,,,,,,,,,,,,,,,,,,,
,,,,,,,,2023-08-06_08h15.17.204,HF_wild_card,2022.2.4,MacIntel,29.85074627,5f5c9cd537f71148d341a0f2,64ce5acb97489d65b14ecc7a,64cf48565f20021d64852ce6,,,,,,,decisionTrl,resources/DR.BMP,resources/DB.BMP,Door4,0.197163121,-0.064539007,1,0,0,0.637,optionRight,80,12330,6,2,0,2,0,1,,,,,,,,,,,,,,,,,,,,,,,,,,,,,,,,,,,,,,,
,,,,,,,,2023-08-06_08h15.17.204,HF_wild_card,2022.2.4,MacIntel,29.85074627,5f5c9cd537f71148d341a0f2,64ce5acb97489d65b14ecc7a,64cf48565f20021d64852ce6,,,,,,,decisionTrl,resources/DB.BMP,resources/DR.BMP,Door4,-0.187234043,0.019148936,1,0,0,0.555,optionLeft,80,12410,6,3,0,3,0,1,,,,,,,,,,,,,,,,,,,,,,,,,,,,,,,,,,,,,,,
,,,,,,,,2023-08-06_08h15.17.204,HF_wild_card,2022.2.4,MacIntel,29.85074627,5f5c9cd537f71148d341a0f2,64ce5acb97489d65b14ecc7a,64cf48565f20021d64852ce6,,,,,,,decisionTrl,resources/DY.BMP,resources/DP.BMP,Door1,0.204255319,0.006382979,1,0,0,0.645,optionRight,30,12440,6,4,0,4,0,1,,,,,,,,,,,,,,,,,,,,,,,,,,,,,,,,,,,,,,,
,,,,,,,,2023-08-06_08h15.17.204,HF_wild_card,2022.2.4,MacIntel,29.85074627,5f5c9cd537f71148d341a0f2,64ce5acb97489d65b14ecc7a,64cf48565f20021d64852ce6,,,,,,,decisionTrl,resources/DY.BMP,resources/DP.BMP,Door1,0.229787234,-0.024822695,1,0,0,0.531,optionRight,30,12470,6,5,0,5,0,1,,,,,,,,,,,,,,,,,,,,,,,,,,,,,,,,,,,,,,,
,,,,,,,,2023-08-06_08h15.17.204,HF_wild_card,2022.2.4,MacIntel,29.85074627,5f5c9cd537f71148d341a0f2,64ce5acb97489d65b14ecc7a,64cf48565f20021d64852ce6,,,,,,,sngl,resources/Empty.png,resources/DBN.BMP,WildCard_Ex,0.124822695,-0.013475177,1,0,0,0.544,optionRight,95,12565,6,6,0,6,0,1,,,,,,,,,,,,,,,,,,,,,,,,,,,,,,,,,,,,,,,
,,,,,,,,2023-08-06_08h15.17.204,HF_wild_card,2022.2.4,MacIntel,29.85074627,5f5c9cd537f71148d341a0f2,64ce5acb97489d65b14ecc7a,64cf48565f20021d64852ce6,,,,,,,decisionTrl,resources/DBN.BMP,resources/DR.BMP,WildCard_Ex,-0.184397163,-0.019148936,1,0,0,0.461,optionLeft,5,12570,6,7,0,7,0,1,,,,,,,,,,,,,,,,,,,,,,,,,,,,,,,,,,,,,,,
,,,,,,,,2023-08-06_08h15.17.204,HF_wild_card,2022.2.4,MacIntel,29.85074627,5f5c9cd537f71148d341a0f2,64ce5acb97489d65b14ecc7a,64cf48565f20021d64852ce6,,,,,,,decisionTrl,resources/DR.BMP,resources/DB.BMP,Door4,0.30212766,-0.037588652,1,0,0,0.659,optionRight,60,12630,6,8,0,8,0,1,,,,,,,,,,,,,,,,,,,,,,,,,,,,,,,,,,,,,,,
,,,,,,,,2023-08-06_08h15.17.204,HF_wild_card,2022.2.4,MacIntel,29.85074627,5f5c9cd537f71148d341a0f2,64ce5acb97489d65b14ecc7a,64cf48565f20021d64852ce6,,,,,,,decisionTrl,resources/DY.BMP,resources/DP.BMP,Door2,-0.194326241,-0.019148936,1,0,0,0.8,optionLeft,20,12650,6,9,0,9,0,1,,,,,,,,,,,,,,,,,,,,,,,,,,,,,,,,,,,,,,,
,,,,,,,,2023-08-06_08h15.17.204,HF_wild_card,2022.2.4,MacIntel,29.85074627,5f5c9cd537f71148d341a0f2,64ce5acb97489d65b14ecc7a,64cf48565f20021d64852ce6,,,,,,,decisionTrl,resources/DP.BMP,resources/DY.BMP,Door1,-0.182978723,-0.020567376,1,0,0,0.562,optionLeft,30,12680,6,10,0,10,0,1,,,,,,,,,,,,,,,,,,,,,,,,,,,,,,,,,,,,,,,
,,,,,,,,2023-08-06_08h15.17.204,HF_wild_card,2022.2.4,MacIntel,29.85074627,5f5c9cd537f71148d341a0f2,64ce5acb97489d65b14ecc7a,64cf48565f20021d64852ce6,,,,,,,sngl,resources/Empty.png,resources/DB.BMP,Door4,0.344680851,-0.017730496,1,0,0,0.544,optionRight,80,12760,6,11,0,11,0,1,,,,,,,,,,,,,,,,,,,,,,,,,,,,,,,,,,,,,,,
,,,,,,,,2023-08-06_08h15.17.204,HF_wild_card,2022.2.4,MacIntel,29.85074627,5f5c9cd537f71148d341a0f2,64ce5acb97489d65b14ecc7a,64cf48565f20021d64852ce6,,,,,,,sngl,resources/DP.BMP,resources/Empty.png,Door1,-0.181560284,-0.031914894,1,0,0,0.527,optionLeft,30,12790,6,12,0,12,0,1,,,,,,,,,,,,,,,,,,,,,,,,,,,,,,,,,,,,,,,
,,,,,,,,2023-08-06_08h15.17.204,HF_wild_card,2022.2.4,MacIntel,29.85074627,5f5c9cd537f71148d341a0f2,64ce5acb97489d65b14ecc7a,64cf48565f20021d64852ce6,,,,,,,decisionTrl,resources/DY.BMP,resources/DP.BMP,Door1,0.256737589,-0.044680851,1,0,0,0.643,optionRight,30,12820,6,13,0,13,0,1,,,,,,,,,,,,,,,,,,,,,,,,,,,,,,,,,,,,,,,
,,,,,,,,2023-08-06_08h15.17.204,HF_wild_card,2022.2.4,MacIntel,29.85074627,5f5c9cd537f71148d341a0f2,64ce5acb97489d65b14ecc7a,64cf48565f20021d64852ce6,,,,,,,ctch,resources/DP.BMP,resources/DB.BMP,Door4,0.253900709,-0.04751773,1,0,0,0.694,optionRight,80,12900,6,14,0,14,0,1,,,,,,,,,,,,,,,,,,,,,,,,,,,,,,,,,,,,,,,
,,,,,,,,2023-08-06_08h15.17.204,HF_wild_card,2022.2.4,MacIntel,29.85074627,5f5c9cd537f71148d341a0f2,64ce5acb97489d65b14ecc7a,64cf48565f20021d64852ce6,,,,,,,ctch,resources/DY.BMP,resources/DR.BMP,Door3,0.262411348,-0.084397163,1,0,0,0.663,optionRight,70,12970,6,15,0,15,0,1,,,,,,,,,,,,,,,,,,,,,,,,,,,,,,,,,,,,,,,
,,,,,,,,2023-08-06_08h15.17.204,HF_wild_card,2022.2.4,MacIntel,29.85074627,5f5c9cd537f71148d341a0f2,64ce5acb97489d65b14ecc7a,64cf48565f20021d64852ce6,,,,,,,decisionTrl,resources/DR.BMP,resources/DBN.BMP,WildCard_Ex,0.243971631,-0.037588652,1,0,0,0.632,optionRight,5,12975,6,16,0,16,0,1,,,,,,,,,,,,,,,,,,,,,,,,,,,,,,,,,,,,,,,
,,,,,,,,2023-08-06_08h15.17.204,HF_wild_card,2022.2.4,MacIntel,29.85074627,5f5c9cd537f71148d341a0f2,64ce5acb97489d65b14ecc7a,64cf48565f20021d64852ce6,,,,,,,decisionTrl,resources/DBN.BMP,resources/DP.BMP,WildCard_Ex,-0.312056738,0.003546099,1,0,0,0.543,optionLeft,95,13070,6,17,0,17,0,1,,,,,,,,,,,,,,,,,,,,,,,,,,,,,,,,,,,,,,,
,,,,,,,,2023-08-06_08h15.17.204,HF_wild_card,2022.2.4,MacIntel,29.85074627,5f5c9cd537f71148d341a0f2,64ce5acb97489d65b14ecc7a,64cf48565f20021d64852ce6,,,,,,,decisionTrl,resources/DY.BMP,resources/DBN.BMP,WildCard_Ex,0.368794326,-0.060283688,1,0,0,0.599,optionRight,95,13165,6,18,0,18,0,1,,,,,,,,,,,,,,,,,,,,,,,,,,,,,,,,,,,,,,,
,,,,,,,,2023-08-06_08h15.17.204,HF_wild_card,2022.2.4,MacIntel,29.85074627,5f5c9cd537f71148d341a0f2,64ce5acb97489d65b14ecc7a,64cf48565f20021d64852ce6,,,,,,,sngl,resources/DY.BMP,resources/Empty.png,Door2,-0.139007092,-0.009219858,1,0,0,0.646,optionLeft,20,13185,6,19,0,19,0,1,,,,,,,,,,,,,,,,,,,,,,,,,,,,,,,,,,,,,,,
,,,,,,,,2023-08-06_08h15.17.204,HF_wild_card,2022.2.4,MacIntel,29.85074627,5f5c9cd537f71148d341a0f2,64ce5acb97489d65b14ecc7a,64cf48565f20021d64852ce6,,,,,,,decisionTrl,resources/DBN.BMP,resources/DY.BMP,WildCard_Ex,-0.174468085,-0.003546099,1,0,0,0.592,optionLeft,5,13190,6,20,0,20,0,1,,,,,,,,,,,,,,,,,,,,,,,,,,,,,,,,,,,,,,,
,,,,,,,,2023-08-06_08h15.17.204,HF_wild_card,2022.2.4,MacIntel,29.85074627,5f5c9cd537f71148d341a0f2,64ce5acb97489d65b14ecc7a,64cf48565f20021d64852ce6,,,,,,,sngl,resources/Empty.png,resources/DP.BMP,Door1,0.219858156,-0.004964539,1,0,0,0.589,optionRight,30,13220,6,21,0,21,0,1,,,,,,,,,,,,,,,,,,,,,,,,,,,,,,,,,,,,,,,
,,,,,,,,2023-08-06_08h15.17.204,HF_wild_card,2022.2.4,MacIntel,29.85074627,5f5c9cd537f71148d341a0f2,64ce5acb97489d65b14ecc7a,64cf48565f20021d64852ce6,,,,,,,decisionTrl,resources/DR.BMP,resources/DB.BMP,Door4,0.234042553,-0.012056738,1,0,0,0.66,optionRight,60,13280,6,22,0,22,0,1,,,,,,,,,,,,,,,,,,,,,,,,,,,,,,,,,,,,,,,
,,,,,,,,2023-08-06_08h15.17.204,HF_wild_card,2022.2.4,MacIntel,29.85074627,5f5c9cd537f71148d341a0f2,64ce5acb97489d65b14ecc7a,64cf48565f20021d64852ce6,,,,,,,ctch,resources/DR.BMP,resources/DY.BMP,Door3,-0.226950355,0.003546099,1,0,0,0.782,optionLeft,70,13350,6,23,0,23,0,1,,,,,,,,,,,,,,,,,,,,,,,,,,,,,,,,,,,,,,,
,,,,,,,,2023-08-06_08h15.17.204,HF_wild_card,2022.2.4,MacIntel,29.85074627,5f5c9cd537f71148d341a0f2,64ce5acb97489d65b14ecc7a,64cf48565f20021d64852ce6,,,,,,,decisionTrl,resources/DR.BMP,resources/DB.BMP,Door4,0.228368794,-0.007801418,1,0,0,0.642,optionRight,60,13410,6,24,0,24,0,1,,,,,,,,,,,,,,,,,,,,,,,,,,,,,,,,,,,,,,,
,,,,,,,,2023-08-06_08h15.17.204,HF_wild_card,2022.2.4,MacIntel,29.85074627,5f5c9cd537f71148d341a0f2,64ce5acb97489d65b14ecc7a,64cf48565f20021d64852ce6,,,,,,,ctch,resources/DB.BMP,resources/DP.BMP,Door4,-0.327659574,0.009219858,1,0,0,0.593,optionLeft,60,13470,6,25,0,25,0,1,,,,,,,,,,,,,,,,,,,,,,,,,,,,,,,,,,,,,,,
,,,,,,,,2023-08-06_08h15.17.204,HF_wild_card,2022.2.4,MacIntel,29.85074627,5f5c9cd537f71148d341a0f2,64ce5acb97489d65b14ecc7a,64cf48565f20021d64852ce6,,,,,,,decisionTrl,resources/DBN.BMP,resources/DB.BMP,WildCard_Ex,-0.182978723,-0.023404255,1,0,0,0.626,optionLeft,95,13565,6,26,0,26,0,1,,,,,,,,,,,,,,,,,,,,,,,,,,,,,,,,,,,,,,,
,,,,,,,,2023-08-06_08h15.17.204,HF_wild_card,2022.2.4,MacIntel,29.85074627,5f5c9cd537f71148d341a0f2,64ce5acb97489d65b14ecc7a,64cf48565f20021d64852ce6,,,,,,,decisionTrl,resources/DB.BMP,resources/DR.BMP,Door4,-0.190070922,-0.026241135,1,0,0,0.565,optionLeft,80,13645,6,27,0,27,0,1,,,,,,,,,,,,,,,,,,,,,,,,,,,,,,,,,,,,,,,
,,,,,,,,2023-08-06_08h15.17.204,HF_wild_card,2022.2.4,MacIntel,29.85074627,5f5c9cd537f71148d341a0f2,64ce5acb97489d65b14ecc7a,64cf48565f20021d64852ce6,,,,,,,ctch,resources/DY.BMP,resources/DR.BMP,Door3,0.231205674,-0.04893617,1,0,0,0.713,optionRight,70,13715,6,28,0,28,0,1,,,,,,,,,,,,,,,,,,,,,,,,,,,,,,,,,,,,,,,
,,,,,,,,2023-08-06_08h15.17.204,HF_wild_card,2022.2.4,MacIntel,29.85074627,5f5c9cd537f71148d341a0f2,64ce5acb97489d65b14ecc7a,64cf48565f20021d64852ce6,,,,,,,sngl,resources/Empty.png,resources/DBN.BMP,WildCard_Ex,0.19858156,-0.012056738,1,0,0,0.561,optionRight,5,13720,6,29,0,29,0,1,,,,,,,,,,,,,,,,,,,,,,,,,,,,,,,,,,,,,,,
,,,,,,,,2023-08-06_08h15.17.204,HF_wild_card,2022.2.4,MacIntel,29.85074627,5f5c9cd537f71148d341a0f2,64ce5acb97489d65b14ecc7a,64cf48565f20021d64852ce6,,,,,,,decisionTrl,resources/DP.BMP,resources/DBN.BMP,WildCard_Ex,0.219858156,-0.031914894,1,0,0,0.695,optionRight,95,13815,6,30,0,30,0,1,,,,,,,,,,,,,,,,,,,,,,,,,,,,,,,,,,,,,,,
,,,,,,,,2023-08-06_08h15.17.204,HF_wild_card,2022.2.4,MacIntel,29.85074627,5f5c9cd537f71148d341a0f2,64ce5acb97489d65b14ecc7a,64cf48565f20021d64852ce6,,,,,,,decisionTrl,resources/DP.BMP,resources/DY.BMP,Door1,-0.283687943,-0.006382979,1,0,0,0.646,optionLeft,30,13845,6,31,0,31,0,1,,,,,,,,,,,,,,,,,,,,,,,,,,,,,,,,,,,,,,,
,,,,,,,,2023-08-06_08h15.17.204,HF_wild_card,2022.2.4,MacIntel,29.85074627,5f5c9cd537f71148d341a0f2,64ce5acb97489d65b14ecc7a,64cf48565f20021d64852ce6,,,,,,,decisionTrl,resources/DB.BMP,resources/DBN.BMP,WildCard_Ex,0.316312057,-0.029078014,1,0,0,0.612,optionRight,95,13940,6,32,0,32,0,1,,,,,,,,,,,,,,,,,,,,,,,,,,,,,,,,,,,,,,,
,,,,,,,,2023-08-06_08h15.17.204,HF_wild_card,2022.2.4,MacIntel,29.85074627,5f5c9cd537f71148d341a0f2,64ce5acb97489d65b14ecc7a,64cf48565f20021d64852ce6,,,,,,,sngl,resources/Empty.png,resources/DY.BMP,Door2,0.269503546,-0.014893617,1,0,0,0.614,optionRight,40,13980,6,33,0,33,0,1,,,,,,,,,,,,,,,,,,,,,,,,,,,,,,,,,,,,,,,
,,,,,,,,2023-08-06_08h15.17.204,HF_wild_card,2022.2.4,MacIntel,29.85074627,5f5c9cd537f71148d341a0f2,64ce5acb97489d65b14ecc7a,64cf48565f20021d64852ce6,,,,,,,decisionTrl,resources/DP.BMP,resources/DY.BMP,Door1,-0.228368794,-0.010638298,1,0,0,0.73,optionLeft,30,14010,6,34,0,34,0,1,,,,,,,,,,,,,,,,,,,,,,,,,,,,,,,,,,,,,,,
,,,,,,,,2023-08-06_08h15.17.204,HF_wild_card,2022.2.4,MacIntel,29.85074627,5f5c9cd537f71148d341a0f2,64ce5acb97489d65b14ecc7a,64cf48565f20021d64852ce6,,,,,,,sngl,resources/Empty.png,resources/DR.BMP,Door3,0.226950355,-0.010638298,1,0,0,0.626,optionRight,70,14080,6,35,0,35,0,1,,,,,,,,,,,,,,,,,,,,,,,,,,,,,,,,,,,,,,,
,,,,,,,,2023-08-06_08h15.17.204,HF_wild_card,2022.2.4,MacIntel,29.85074627,5f5c9cd537f71148d341a0f2,64ce5acb97489d65b14ecc7a,64cf48565f20021d64852ce6,,,,,,,ctch,resources/DB.BMP,resources/DP.BMP,Door4,-0.221276596,-0.026241135,1,0,0,0.56,optionLeft,60,14140,6,36,0,36,0,1,,,,,,,,,,,,,,,,,,,,,,,,,,,,,,,,,,,,,,,
,,,,,,,,2023-08-06_08h15.17.204,HF_wild_card,2022.2.4,MacIntel,29.85074627,5f5c9cd537f71148d341a0f2,64ce5acb97489d65b14ecc7a,64cf48565f20021d64852ce6,,,,,,,sngl,resources/DB.BMP,resources/Empty.png,Door4,-0.215602837,-0.041843972,1,0,0,0.529,optionLeft,60,14200,6,37,0,37,0,1,,,,,,,,,,,,,,,,,,,,,,,,,,,,,,,,,,,,,,,
,,,,,,,,2023-08-06_08h15.17.204,HF_wild_card,2022.2.4,MacIntel,29.85074627,5f5c9cd537f71148d341a0f2,64ce5acb97489d65b14ecc7a,64cf48565f20021d64852ce6,,,,,,,ctch,resources/DP.BMP,resources/DB.BMP,Door4,0.209929078,-0.026241135,1,0,0,0.592,optionRight,60,14260,6,38,0,38,0,1,,,,,,,,,,,,,,,,,,,,,,,,,,,,,,,,,,,,,,,
,,,,,,,,2023-08-06_08h15.17.204,HF_wild_card,2022.2.4,MacIntel,29.85074627,5f5c9cd537f71148d341a0f2,64ce5acb97489d65b14ecc7a,64cf48565f20021d64852ce6,,,,,,,decisionTrl,resources/DB.BMP,resources/DR.BMP,Door4,-0.170212766,-0.020567376,1,0,0,0.583,optionLeft,60,14320,6,39,0,39,0,1,,,,,,,,,,,,,,,,,,,,,,,,,,,,,,,,,,,,,,,
,,,,,,,,2023-08-06_08h15.17.204,HF_wild_card,2022.2.4,MacIntel,29.85074627,5f5c9cd537f71148d341a0f2,64ce5acb97489d65b14ecc7a,64cf48565f20021d64852ce6,,,,,,,sngl,resources/DBN.BMP,resources/Empty.png,WildCard_Ex,-0.236879433,-0.05035461,1,0,0,0.527,optionLeft,95,14415,6,40,0,40,0,1,,,,,,,,,,,,,,,,,,,,,,,,,,,,,,,,,,,,,,,
,,,,,,,,2023-08-06_08h15.17.204,HF_wild_card,2022.2.4,MacIntel,29.85074627,5f5c9cd537f71148d341a0f2,64ce5acb97489d65b14ecc7a,64cf48565f20021d64852ce6,,,,,,,decisionTrl,resources/DP.BMP,resources/DY.BMP,Door1,-0.238297872,-0.017730496,1,0,0,0.646,optionLeft,30,14445,6,41,0,41,0,1,,,,,,,,,,,,,,,,,,,,,,,,,,,,,,,,,,,,,,,
,,,,,,,,2023-08-06_08h15.17.204,HF_wild_card,2022.2.4,MacIntel,29.85074627,5f5c9cd537f71148d341a0f2,64ce5acb97489d65b14ecc7a,64cf48565f20021d64852ce6,,,,,,,ctch,resources/DR.BMP,resources/DY.BMP,Door3,-0.211347518,-0.007801418,1,0,0,0.643,optionLeft,70,14515,6,42,0,42,0,1,,,,,,,,,,,,,,,,,,,,,,,,,,,,,,,,,,,,,,,
,,,,,,,,2023-08-06_08h15.17.204,HF_wild_card,2022.2.4,MacIntel,29.85074627,5f5c9cd537f71148d341a0f2,64ce5acb97489d65b14ecc7a,64cf48565f20021d64852ce6,,,,,,,sngl,resources/DBN.BMP,resources/Empty.png,WildCard_Ex,-0.205673759,-0.007801418,1,0,0,0.492,optionLeft,5,14520,6,43,0,43,0,1,,,,,,,,,,,,,,,,,,,,,,,,,,,,,,,,,,,,,,,
,,,,,,,,2023-08-06_08h15.17.204,HF_wild_card,2022.2.4,MacIntel,29.85074627,5f5c9cd537f71148d341a0f2,64ce5acb97489d65b14ecc7a,64cf48565f20021d64852ce6,,,,,,,,,,,,,,,,,,,,,,,,,,5,0,5,0,1,,,,,,,,,,,,,,,,,,,,,,,,,,,,,,,,,,
,,,,,,,,2023-08-06_08h15.17.204,HF_wild_card,2022.2.4,MacIntel,29.85074627,5f5c9cd537f71148d341a0f2,64ce5acb97489d65b14ecc7a,64cf48565f20021d64852ce6,,,,,,,ctch,resources/DB.BMP,resources/DP.BMP,Door4,-0.336170213,-0.014893617,1,0,0,0.777,optionLeft,60,14580,7,0,0,0,0,1,,,,,,,,,,,,,,,,,,,,,,,,,,,,,,,,,,,,,,,
,,,,,,,,2023-08-06_08h15.17.204,HF_wild_card,2022.2.4,MacIntel,29.85074627,5f5c9cd537f71148d341a0f2,64ce5acb97489d65b14ecc7a,64cf48565f20021d64852ce6,,,,,,,ctch,resources/DY.BMP,resources/DR.BMP,Door3,0.241134752,-0.039007092,1,0,0,0.73,optionRight,70,14650,7,1,0,1,0,1,,,,,,,,,,,,,,,,,,,,,,,,,,,,,,,,,,,,,,,
,,,,,,,,2023-08-06_08h15.17.204,HF_wild_card,2022.2.4,MacIntel,29.85074627,5f5c9cd537f71148d341a0f2,64ce5acb97489d65b14ecc7a,64cf48565f20021d64852ce6,,,,,,,decisionTrl,resources/DB.BMP,resources/DR.BMP,Door4,-0.194326241,-0.036170213,1,0,0,0.513,optionLeft,60,14710,7,2,0,2,0,1,,,,,,,,,,,,,,,,,,,,,,,,,,,,,,,,,,,,,,,
,,,,,,,,2023-08-06_08h15.17.204,HF_wild_card,2022.2.4,MacIntel,29.85074627,5f5c9cd537f71148d341a0f2,64ce5acb97489d65b14ecc7a,64cf48565f20021d64852ce6,,,,,,,ctch,resources/DY.BMP,resources/DR.BMP,Door3,0.246808511,-0.058865248,1,0,0,0.749,optionRight,70,14780,7,3,0,3,0,1,,,,,,,,,,,,,,,,,,,,,,,,,,,,,,,,,,,,,,,
,,,,,,,,2023-08-06_08h15.17.204,HF_wild_card,2022.2.4,MacIntel,29.85074627,5f5c9cd537f71148d341a0f2,64ce5acb97489d65b14ecc7a,64cf48565f20021d64852ce6,,,,,,,decisionTrl,resources/DR.BMP,resources/DB.BMP,Door4,0.192907801,-0.039007092,1,0,0,1.107,optionRight,60,14840,7,4,0,4,0,1,,,,,,,,,,,,,,,,,,,,,,,,,,,,,,,,,,,,,,,
,,,,,,,,2023-08-06_08h15.17.204,HF_wild_card,2022.2.4,MacIntel,29.85074627,5f5c9cd537f71148d341a0f2,64ce5acb97489d65b14ecc7a,64cf48565f20021d64852ce6,,,,,,,decisionTrl,resources/DR.BMP,resources/DB.BMP,Door4,0.232624113,-0.037588652,1,0,0,0.516,optionRight,80,14920,7,5,0,5,0,1,,,,,,,,,,,,,,,,,,,,,,,,,,,,,,,,,,,,,,,
,,,,,,,,2023-08-06_08h15.17.204,HF_wild_card,2022.2.4,MacIntel,29.85074627,5f5c9cd537f71148d341a0f2,64ce5acb97489d65b14ecc7a,64cf48565f20021d64852ce6,,,,,,,decisionTrl,resources/DY.BMP,resources/DP.BMP,Door1,0.24964539,-0.026241135,1,0,0,0.785,optionRight,30,14950,7,6,0,6,0,1,,,,,,,,,,,,,,,,,,,,,,,,,,,,,,,,,,,,,,,
,,,,,,,,2023-08-06_08h15.17.204,HF_wild_card,2022.2.4,MacIntel,29.85074627,5f5c9cd537f71148d341a0f2,64ce5acb97489d65b14ecc7a,64cf48565f20021d64852ce6,,,,,,,ctch,resources/DR.BMP,resources/DY.BMP,Door3,-0.238297872,-0.014893617,1,0,0,0.615,optionLeft,70,15020,7,7,0,7,0,1,,,,,,,,,,,,,,,,,,,,,,,,,,,,,,,,,,,,,,,
,,,,,,,,2023-08-06_08h15.17.204,HF_wild_card,2022.2.4,MacIntel,29.85074627,5f5c9cd537f71148d341a0f2,64ce5acb97489d65b14ecc7a,64cf48565f20021d64852ce6,,,,,,,decisionTrl,resources/DP.BMP,resources/DY.BMP,Door1,-0.124822695,-0.029078014,1,0,0,0.594,optionLeft,30,15050,7,8,0,8,0,1,,,,,,,,,,,,,,,,,,,,,,,,,,,,,,,,,,,,,,,
,,,,,,,,2023-08-06_08h15.17.204,HF_wild_card,2022.2.4,MacIntel,29.85074627,5f5c9cd537f71148d341a0f2,64ce5acb97489d65b14ecc7a,64cf48565f20021d64852ce6,,,,,,,decisionTrl,resources/DR.BMP,resources/DB.BMP,Door4,0.246808511,-0.054609929,1,0,0,0.72,optionRight,60,15110,7,9,0,9,0,1,,,,,,,,,,,,,,,,,,,,,,,,,,,,,,,,,,,,,,,
,,,,,,,,2023-08-06_08h15.17.204,HF_wild_card,2022.2.4,MacIntel,29.85074627,5f5c9cd537f71148d341a0f2,64ce5acb97489d65b14ecc7a,64cf48565f20021d64852ce6,,,,,,,ctch,resources/DY.BMP,resources/DR.BMP,Door3,0.310638298,-0.021985816,1,0,0,1.209,optionRight,70,15180,7,10,0,10,0,1,,,,,,,,,,,,,,,,,,,,,,,,,,,,,,,,,,,,,,,
,,,,,,,,2023-08-06_08h15.17.204,HF_wild_card,2022.2.4,MacIntel,29.85074627,5f5c9cd537f71148d341a0f2,64ce5acb97489d65b14ecc7a,64cf48565f20021d64852ce6,,,,,,,decisionTrl,resources/DP.BMP,resources/DY.BMP,Door1,-0.157446809,-0.023404255,1,0,0,0.626,optionLeft,30,15210,7,11,0,11,0,1,,,,,,,,,,,,,,,,,,,,,,,,,,,,,,,,,,,,,,,
,,,,,,,,2023-08-06_08h15.17.204,HF_wild_card,2022.2.4,MacIntel,29.85074627,5f5c9cd537f71148d341a0f2,64ce5acb97489d65b14ecc7a,64cf48565f20021d64852ce6,,,,,,,decisionTrl,resources/DP.BMP,resources/DY.BMP,Door1,-0.195744681,-0.023404255,1,0,0,0.631,optionLeft,30,15240,7,12,0,12,0,1,,,,,,,,,,,,,,,,,,,,,,,,,,,,,,,,,,,,,,,
,,,,,,,,2023-08-06_08h15.17.204,HF_wild_card,2022.2.4,MacIntel,29.85074627,5f5c9cd537f71148d341a0f2,64ce5acb97489d65b14ecc7a,64cf48565f20021d64852ce6,,,,,,,decisionTrl,resources/DY.BMP,resources/DP.BMP,Door1,0.211347518,0.007801418,1,0,0,0.714,optionRight,30,15270,7,13,0,13,0,1,,,,,,,,,,,,,,,,,,,,,,,,,,,,,,,,,,,,,,,
,,,,,,,,2023-08-06_08h15.17.204,HF_wild_card,2022.2.4,MacIntel,29.85074627,5f5c9cd537f71148d341a0f2,64ce5acb97489d65b14ecc7a,64cf48565f20021d64852ce6,,,,,,,decisionTrl,resources/DB.BMP,resources/DR.BMP,Door4,-0.20141844,0.00212766,1,0,0,0.662,optionLeft,80,15350,7,14,0,14,0,1,,,,,,,,,,,,,,,,,,,,,,,,,,,,,,,,,,,,,,,
,,,,,,,,2023-08-06_08h15.17.204,HF_wild_card,2022.2.4,MacIntel,29.85074627,5f5c9cd537f71148d341a0f2,64ce5acb97489d65b14ecc7a,64cf48565f20021d64852ce6,,,,,,,decisionTrl,resources/DY.BMP,resources/DP.BMP,Door1,0.232624113,0.006382979,1,0,0,0.693,optionRight,30,15380,7,15,0,15,0,1,,,,,,,,,,,,,,,,,,,,,,,,,,,,,,,,,,,,,,,
,,,,,,,,2023-08-06_08h15.17.204,HF_wild_card,2022.2.4,MacIntel,29.85074627,5f5c9cd537f71148d341a0f2,64ce5acb97489d65b14ecc7a,64cf48565f20021d64852ce6,,,,,,,decisionTrl,resources/DY.BMP,resources/DP.BMP,Door1,0.224113475,-0.009219858,1,0,0,0.665,optionRight,30,15410,7,16,0,16,0,1,,,,,,,,,,,,,,,,,,,,,,,,,,,,,,,,,,,,,,,
,,,,,,,,2023-08-06_08h15.17.204,HF_wild_card,2022.2.4,MacIntel,29.85074627,5f5c9cd537f71148d341a0f2,64ce5acb97489d65b14ecc7a,64cf48565f20021d64852ce6,,,,,,,decisionTrl,resources/DY.BMP,resources/DP.BMP,Door1,0.258156028,-0.027659574,1,0,0,0.596,optionRight,30,15440,7,17,0,17,0,1,,,,,,,,,,,,,,,,,,,,,,,,,,,,,,,,,,,,,,,
,,,,,,,,2023-08-06_08h15.17.204,HF_wild_card,2022.2.4,MacIntel,29.85074627,5f5c9cd537f71148d341a0f2,64ce5acb97489d65b14ecc7a,64cf48565f20021d64852ce6,,,,,,,ctch,resources/DB.BMP,resources/DP.BMP,Door4,-0.280851064,-0.034751773,1,0,0,0.645,optionLeft,60,15500,7,18,0,18,0,1,,,,,,,,,,,,,,,,,,,,,,,,,,,,,,,,,,,,,,,
,,,,,,,,2023-08-06_08h15.17.204,HF_wild_card,2022.2.4,MacIntel,29.85074627,5f5c9cd537f71148d341a0f2,64ce5acb97489d65b14ecc7a,64cf48565f20021d64852ce6,,,,,,,decisionTrl,resources/DR.BMP,resources/DB.BMP,Door4,0.241134752,-0.014893617,1,0,0,0.763,optionRight,80,15580,7,19,0,19,0,1,,,,,,,,,,,,,,,,,,,,,,,,,,,,,,,,,,,,,,,
,,,,,,,,2023-08-06_08h15.17.204,HF_wild_card,2022.2.4,MacIntel,29.85074627,5f5c9cd537f71148d341a0f2,64ce5acb97489d65b14ecc7a,64cf48565f20021d64852ce6,,,,,,,decisionTrl,resources/DB.BMP,resources/DR.BMP,Door4,-0.236879433,-0.012056738,1,0,0,0.798,optionLeft,60,15640,7,20,0,20,0,1,,,,,,,,,,,,,,,,,,,,,,,,,,,,,,,,,,,,,,,
,,,,,,,,2023-08-06_08h15.17.204,HF_wild_card,2022.2.4,MacIntel,29.85074627,5f5c9cd537f71148d341a0f2,64ce5acb97489d65b14ecc7a,64cf48565f20021d64852ce6,,,,,,,ctch,resources/DP.BMP,resources/DB.BMP,Door4,0.20141844,-0.037588652,1,0,0,0.662,optionRight,60,15700,7,21,0,21,0,1,,,,,,,,,,,,,,,,,,,,,,,,,,,,,,,,,,,,,,,
,,,,,,,,2023-08-06_08h15.17.204,HF_wild_card,2022.2.4,MacIntel,29.85074627,5f5c9cd537f71148d341a0f2,64ce5acb97489d65b14ecc7a,64cf48565f20021d64852ce6,,,,,,,decisionTrl,resources/DR.BMP,resources/DB.BMP,Door4,0.194326241,-0.024822695,1,0,0,0.662,optionRight,80,15780,7,22,0,22,0,1,,,,,,,,,,,,,,,,,,,,,,,,,,,,,,,,,,,,,,,
,,,,,,,,2023-08-06_08h15.17.204,HF_wild_card,2022.2.4,MacIntel,29.85074627,5f5c9cd537f71148d341a0f2,64ce5acb97489d65b14ecc7a,64cf48565f20021d64852ce6,,,,,,,decisionTrl,resources/DB.BMP,resources/DR.BMP,Door4,-0.184397163,-0.029078014,1,0,0,0.58,optionLeft,80,15860,7,23,0,23,0,1,,,,,,,,,,,,,,,,,,,,,,,,,,,,,,,,,,,,,,,
,,,,,,,,2023-08-06_08h15.17.204,HF_wild_card,2022.2.4,MacIntel,29.85074627,5f5c9cd537f71148d341a0f2,64ce5acb97489d65b14ecc7a,64cf48565f20021d64852ce6,,,,,,,ctch,resources/DR.BMP,resources/DY.BMP,Door3,-0.114893617,-0.031914894,1,0,0,0.85,optionLeft,70,15930,7,24,0,24,0,1,,,,,,,,,,,,,,,,,,,,,,,,,,,,,,,,,,,,,,,
,,,,,,,,2023-08-06_08h15.17.204,HF_wild_card,2022.2.4,MacIntel,29.85074627,5f5c9cd537f71148d341a0f2,64ce5acb97489d65b14ecc7a,64cf48565f20021d64852ce6,,,,,,,decisionTrl,resources/DP.BMP,resources/DY.BMP,Door1,-0.158865248,-0.026241135,1,0,0,0.597,optionLeft,30,15960,7,25,0,25,0,1,,,,,,,,,,,,,,,,,,,,,,,,,,,,,,,,,,,,,,,
,,,,,,,,2023-08-06_08h15.17.204,HF_wild_card,2022.2.4,MacIntel,29.85074627,5f5c9cd537f71148d341a0f2,64ce5acb97489d65b14ecc7a,64cf48565f20021d64852ce6,,,,,,,decisionTrl,resources/DY.BMP,resources/DP.BMP,Door1,0.280851064,-0.034751773,1,0,0,0.665,optionRight,30,15990,7,26,0,26,0,1,,,,,,,,,,,,,,,,,,,,,,,,,,,,,,,,,,,,,,,
,,,,,,,,2023-08-06_08h15.17.204,HF_wild_card,2022.2.4,MacIntel,29.85074627,5f5c9cd537f71148d341a0f2,64ce5acb97489d65b14ecc7a,64cf48565f20021d64852ce6,,,,,,,ctch,resources/DB.BMP,resources/DP.BMP,Door4,-0.173049645,-0.026241135,1,0,0,0.645,optionLeft,60,16050,7,27,0,27,0,1,,,,,,,,,,,,,,,,,,,,,,,,,,,,,,,,,,,,,,,
,,,,,,,,2023-08-06_08h15.17.204,HF_wild_card,2022.2.4,MacIntel,29.85074627,5f5c9cd537f71148d341a0f2,64ce5acb97489d65b14ecc7a,64cf48565f20021d64852ce6,,,,,,,ctch,resources/DP.BMP,resources/DB.BMP,Door4,0.173049645,-0.039007092,1,0,0,0.891,optionRight,60,16110,7,28,0,28,0,1,,,,,,,,,,,,,,,,,,,,,,,,,,,,,,,,,,,,,,,
,,,,,,,,2023-08-06_08h15.17.204,HF_wild_card,2022.2.4,MacIntel,29.85074627,5f5c9cd537f71148d341a0f2,64ce5acb97489d65b14ecc7a,64cf48565f20021d64852ce6,,,,,,,decisionTrl,resources/DB.BMP,resources/DR.BMP,Door4,-0.19858156,-0.006382979,1,0,0,0.563,optionLeft,60,16170,7,29,0,29,0,1,,,,,,,,,,,,,,,,,,,,,,,,,,,,,,,,,,,,,,,
,,,,,,,,2023-08-06_08h15.17.204,HF_wild_card,2022.2.4,MacIntel,29.85074627,5f5c9cd537f71148d341a0f2,64ce5acb97489d65b14ecc7a,64cf48565f20021d64852ce6,,,,,,,decisionTrl,resources/DP.BMP,resources/DY.BMP,Door1,-0.160283688,-0.021985816,1,0,0,0.699,optionLeft,30,16200,7,30,0,30,0,1,,,,,,,,,,,,,,,,,,,,,,,,,,,,,,,,,,,,,,,
,,,,,,,,2023-08-06_08h15.17.204,HF_wild_card,2022.2.4,MacIntel,29.85074627,5f5c9cd537f71148d341a0f2,64ce5acb97489d65b14ecc7a,64cf48565f20021d64852ce6,,,,,,,ctch,resources/DR.BMP,resources/DY.BMP,Door3,-0.208510638,-0.036170213,1,0,0,0.729,optionLeft,70,16270,7,31,0,31,0,1,,,,,,,,,,,,,,,,,,,,,,,,,,,,,,,,,,,,,,,
,,,,,,,,2023-08-06_08h15.17.204,HF_wild_card,2022.2.4,MacIntel,29.85074627,5f5c9cd537f71148d341a0f2,64ce5acb97489d65b14ecc7a,64cf48565f20021d64852ce6,,,,,,,ctch,resources/DP.BMP,resources/DB.BMP,Door4,0.188652482,-0.040425532,1,0,0,0.761,optionRight,80,16350,7,32,0,32,0,1,,,,,,,,,,,,,,,,,,,,,,,,,,,,,,,,,,,,,,,
,,,,,,,,2023-08-06_08h15.17.204,HF_wild_card,2022.2.4,MacIntel,29.85074627,5f5c9cd537f71148d341a0f2,64ce5acb97489d65b14ecc7a,64cf48565f20021d64852ce6,,,,,,,decisionTrl,resources/DP.BMP,resources/DY.BMP,Door1,-0.171631206,-0.036170213,1,0,0,0.647,optionLeft,30,16380,7,33,0,33,0,1,,,,,,,,,,,,,,,,,,,,,,,,,,,,,,,,,,,,,,,
,,,,,,,,2023-08-06_08h15.17.204,HF_wild_card,2022.2.4,MacIntel,29.85074627,5f5c9cd537f71148d341a0f2,64ce5acb97489d65b14ecc7a,64cf48565f20021d64852ce6,,,,,,,decisionTrl,resources/DB.BMP,resources/DR.BMP,Door4,-0.146099291,-0.044680851,1,0,0,0.645,optionLeft,80,16460,7,34,0,34,0,1,,,,,,,,,,,,,,,,,,,,,,,,,,,,,,,,,,,,,,,
,,,,,,,,2023-08-06_08h15.17.204,HF_wild_card,2022.2.4,MacIntel,29.85074627,5f5c9cd537f71148d341a0f2,64ce5acb97489d65b14ecc7a,64cf48565f20021d64852ce6,,,,,,,decisionTrl,resources/DR.BMP,resources/DB.BMP,Door4,0.212765957,-0.021985816,1,0,0,0.677,optionRight,60,16520,7,35,0,35,0,1,,,,,,,,,,,,,,,,,,,,,,,,,,,,,,,,,,,,,,,
,,,,,,,,2023-08-06_08h15.17.204,HF_wild_card,2022.2.4,MacIntel,29.85074627,5f5c9cd537f71148d341a0f2,64ce5acb97489d65b14ecc7a,64cf48565f20021d64852ce6,,,,,,,,,,,,,,,,,,,,,,,,,,6,0,6,0,1,,,,,,,,,,,,,,,,,,,,,,,,,,,,,,,,,,
,,,,,,,,2023-08-06_08h15.17.204,HF_wild_card,2022.2.4,MacIntel,29.85074627,5f5c9cd537f71148d341a0f2,64ce5acb97489d65b14ecc7a,64cf48565f20021d64852ce6,,,,,,,,,,,,,,,,,,,,,,,,,,,,,,,4,,,,,,,,,,,,,,,,,,,,,,,,,,,,,,,,,
,,,,,,,,2023-08-06_08h15.17.204,HF_wild_card,2022.2.4,MacIntel,29.85074627,5f5c9cd537f71148d341a0f2,64ce5acb97489d65b14ecc7a,64cf48565f20021d64852ce6,,,,,,,,,,,,,,,,,,,,,,,,,,,,,,,,,,,,,,,,,,,,,,,,,,,,,,,,,,,,,,,,
,,,,,,,,2023-08-06_08h15.17.204,HF_wild_card,2022.2.4,MacIntel,29.85074627,5f5c9cd537f71148d341a0f2,64ce5acb97489d65b14ecc7a,64cf48565f20021d64852ce6,,,,,,,,,,,,,,,,,,,,,,,,,,,,,,,,80,Door4,resources/DB.BMP,0,0,0,0,1,,,,,,,,,,,,,,,,,,,,,,,,,
,,,,,,,,2023-08-06_08h15.17.204,HF_wild_card,2022.2.4,MacIntel,29.85074627,5f5c9cd537f71148d341a0f2,64ce5acb97489d65b14ecc7a,64cf48565f20021d64852ce6,,,,,,,,,,,,,,,,,,,,,,,,,,,,,,,,95,WC_extreme,resources/DBN.BMP,1,0,1,0,1,,,,,,,,,,,,,,,,,,,,,,,,,
,,,,,,,,2023-08-06_08h15.17.204,HF_wild_card,2022.2.4,MacIntel,29.85074627,5f5c9cd537f71148d341a0f2,64ce5acb97489d65b14ecc7a,64cf48565f20021d64852ce6,,,,,,,,,,,,,,,,,,,,,,,,,,,,,,,,55,WC_nonExtreme,resources/DG.BMP,2,0,2,0,1,,,,,,,,,,,,,,,,,,,,,,,,,
,,,,,,,,2023-08-06_08h15.17.204,HF_wild_card,2022.2.4,MacIntel,29.85074627,5f5c9cd537f71148d341a0f2,64ce5acb97489d65b14ecc7a,64cf48565f20021d64852ce6,,,,,,,,,,,,,,,,,,,,,,,,,,,,,,,,70,Door3,resources/DR.BMP,3,0,3,0,1,,,,,,,,,,,,,,,,,,,,,,,,,
