Condition,Low fixed image (Door1),Low risky image (Door2),High fixed image (Door3),High risky image (Door4),NonExtreme Wild Card 1,NonExtreme Wild Card 2,,date,expName,psychopyVersion,OS,frameRate,PROLIFIC_PID,STUDY_ID,SESSION_ID,mouse_2.x,mouse_2.y,mouse_2.leftButton,mouse_2.midButton,mouse_2.rightButton,mouse_2.clicked_name,Trial Type,Left Option Image,Right Option Image,Chosen Door,mouse.x,mouse.y,mouse.leftButton,mouse.midButton,mouse.rightButton,mouse.time,mouse.clicked_name,Feedback,Cumulative Reward,Block,trial.thisRepN,trial.thisTrialN,trial.thisN,trial.thisIndex,trial.ran,blocks.thisRepN,blocks.thisTrialN,blocks.thisN,blocks.thisIndex,blocks.ran,Money conversion,First Outcome Reported,Shown Door (First Outcome),Displayed Image (First Outcome),outcomes.thisRepN,outcomes.thisTrialN,outcomes.thisN,outcomes.thisIndex,outcomes.ran,judgments.thisRepN,judgments.thisTrialN,judgments.thisN,judgments.thisIndex,judgments.ran,freqMouse.x,freqMouse.y,freqMouse.leftButton,freqMouse.midButton,freqMouse.rightButton,freqMouse.clicked_name,FQJ for first outcome,FQJ for second outcome,Shown Door,Displayed Image,trials.thisRepN,trials.thisTrialN,trials.thisN,trials.thisIndex,trials.ran,judgBlock.thisRepN,judgBlock.thisTrialN,judgBlock.thisN,judgBlock.thisIndex,judgBlock.ran
2,resources/DBN.BMP,resources/DP.BMP,resources/DR.BMP,resources/DG.BMP,resources/DB.BMP,resources/DY.BMP,,2023-08-16_08h26.06.533,HF_wild_card,2022.2.4,MacIntel,62.5,60170c926648b891f9e5742f,64d2fd46c836a06233681665,64dc7951ef2cefcca3133bf9,,,,,,,,,,,,,,,,,,,,,,,,,,,,,,,,,,,,,,,,,,,,,,,,,,,,,,,,,,,,,,,,
,,,,,,,,2023-08-16_08h26.06.533,HF_wild_card,2022.2.4,MacIntel,62.5,60170c926648b891f9e5742f,64d2fd46c836a06233681665,64dc7951ef2cefcca3133bf9,0.016666667,-0.416666667,1,0,0,agree,,,,,,,,,,,,,,,,,,,,,,,,,,,,,,,,,,,,,,,,,,,,,,,,,,,,,,,,,,
,,,,,,,,2023-08-16_08h26.06.533,HF_wild_card,2022.2.4,MacIntel,62.5,60170c926648b891f9e5742f,64d2fd46c836a06233681665,64dc7951ef2cefcca3133bf9,,,,,,,,,,,,,,,,,,,,,,,,,,,,,,,,,,,,,,,,,,,,,,,,,,,,,,,,,,,,,,,,
,,,,,,,,2023-08-16_08h26.06.533,HF_wild_card,2022.2.4,MacIntel,62.5,60170c926648b891f9e5742f,64d2fd46c836a06233681665,64dc7951ef2cefcca3133bf9,,,,,,,decisionTrl,resources/DP.BMP,resources/DBN.BMP,Door2,-0.398888889,-0.038888889,1,0,0,2.768,optionLeft,20,20,1,0,0,0,0,1,,,,,,,,,,,,,,,,,,,,,,,,,,,,,,,,,,,,,,,
,,,,,,,,2023-08-16_08h26.06.533,HF_wild_card,2022.2.4,MacIntel,62.5,60170c926648b891f9e5742f,64d2fd46c836a06233681665,64dc7951ef2cefcca3133bf9,,,,,,,decisionTrl,resources/DBN.BMP,resources/DP.BMP,Door1,-0.276666667,0,1,0,0,2.675,optionLeft,30,50,1,1,0,1,0,1,,,,,,,,,,,,,,,,,,,,,,,,,,,,,,,,,,,,,,,
,,,,,,,,2023-08-16_08h26.06.533,HF_wild_card,2022.2.4,MacIntel,62.5,60170c926648b891f9e5742f,64d2fd46c836a06233681665,64dc7951ef2cefcca3133bf9,,,,,,,decisionTrl,resources/DBN.BMP,resources/DP.BMP,Door2,0.388888889,-0.038888889,1,0,0,1.529,optionRight,40,90,1,2,0,2,0,1,,,,,,,,,,,,,,,,,,,,,,,,,,,,,,,,,,,,,,,
,,,,,,,,2023-08-16_08h26.06.533,HF_wild_card,2022.2.4,MacIntel,62.5,60170c926648b891f9e5742f,64d2fd46c836a06233681665,64dc7951ef2cefcca3133bf9,,,,,,,decisionTrl,resources/DG.BMP,resources/DY.BMP,WildCard_NonEx,0.385555556,0.013333333,1,0,0,2.927,optionRight,55,145,1,3,0,3,0,1,,,,,,,,,,,,,,,,,,,,,,,,,,,,,,,,,,,,,,,
,,,,,,,,2023-08-16_08h26.06.533,HF_wild_card,2022.2.4,MacIntel,62.5,60170c926648b891f9e5742f,64d2fd46c836a06233681665,64dc7951ef2cefcca3133bf9,,,,,,,decisionTrl,resources/DY.BMP,resources/DG.BMP,Door4,0.405555556,-0.018888889,1,0,0,2.46,optionRight,80,225,1,4,0,4,0,1,,,,,,,,,,,,,,,,,,,,,,,,,,,,,,,,,,,,,,,
,,,,,,,,2023-08-16_08h26.06.533,HF_wild_card,2022.2.4,MacIntel,62.5,60170c926648b891f9e5742f,64d2fd46c836a06233681665,64dc7951ef2cefcca3133bf9,,,,,,,decisionTrl,resources/DP.BMP,resources/DY.BMP,Door2,-0.367777778,0.002222222,1,0,0,4.742,optionLeft,40,265,1,5,0,5,0,1,,,,,,,,,,,,,,,,,,,,,,,,,,,,,,,,,,,,,,,
,,,,,,,,2023-08-16_08h26.06.533,HF_wild_card,2022.2.4,MacIntel,62.5,60170c926648b891f9e5742f,64d2fd46c836a06233681665,64dc7951ef2cefcca3133bf9,,,,,,,decisionTrl,resources/DBN.BMP,resources/DY.BMP,WildCard_NonEx,0.317777778,0.015555556,1,0,0,2.179,optionRight,45,310,1,6,0,6,0,1,,,,,,,,,,,,,,,,,,,,,,,,,,,,,,,,,,,,,,,
,,,,,,,,2023-08-16_08h26.06.533,HF_wild_card,2022.2.4,MacIntel,62.5,60170c926648b891f9e5742f,64d2fd46c836a06233681665,64dc7951ef2cefcca3133bf9,,,,,,,decisionTrl,resources/DY.BMP,resources/DR.BMP,Door3,0.336666667,-0.013333333,1,0,0,2.144,optionRight,70,380,1,7,0,7,0,1,,,,,,,,,,,,,,,,,,,,,,,,,,,,,,,,,,,,,,,
,,,,,,,,2023-08-16_08h26.06.533,HF_wild_card,2022.2.4,MacIntel,62.5,60170c926648b891f9e5742f,64d2fd46c836a06233681665,64dc7951ef2cefcca3133bf9,,,,,,,sngl,resources/Empty.png,resources/DP.BMP,Door2,0.357777778,0.026666667,1,0,0,1.859,optionRight,20,400,1,8,0,8,0,1,,,,,,,,,,,,,,,,,,,,,,,,,,,,,,,,,,,,,,,
,,,,,,,,2023-08-16_08h26.06.533,HF_wild_card,2022.2.4,MacIntel,62.5,60170c926648b891f9e5742f,64d2fd46c836a06233681665,64dc7951ef2cefcca3133bf9,,,,,,,sngl,resources/DP.BMP,resources/Empty.png,Door2,-0.354444444,0.017777778,1,0,0,1.41,optionLeft,40,440,1,9,0,9,0,1,,,,,,,,,,,,,,,,,,,,,,,,,,,,,,,,,,,,,,,
,,,,,,,,2023-08-16_08h26.06.533,HF_wild_card,2022.2.4,MacIntel,62.5,60170c926648b891f9e5742f,64d2fd46c836a06233681665,64dc7951ef2cefcca3133bf9,,,,,,,ctch,resources/DBN.BMP,resources/DG.BMP,Door4,0.391111111,0.016666667,1,0,0,1.946,optionRight,80,520,1,10,0,10,0,1,,,,,,,,,,,,,,,,,,,,,,,,,,,,,,,,,,,,,,,
,,,,,,,,2023-08-16_08h26.06.533,HF_wild_card,2022.2.4,MacIntel,62.5,60170c926648b891f9e5742f,64d2fd46c836a06233681665,64dc7951ef2cefcca3133bf9,,,,,,,sngl,resources/Empty.png,resources/DY.BMP,WildCard_NonEx,0.364444444,0.03,1,0,0,1.428,optionRight,45,565,1,11,0,11,0,1,,,,,,,,,,,,,,,,,,,,,,,,,,,,,,,,,,,,,,,
,,,,,,,,2023-08-16_08h26.06.533,HF_wild_card,2022.2.4,MacIntel,62.5,60170c926648b891f9e5742f,64d2fd46c836a06233681665,64dc7951ef2cefcca3133bf9,,,,,,,sngl,resources/DG.BMP,resources/Empty.png,Door4,-0.382222222,0.044444444,1,0,0,2.561,optionLeft,80,645,1,12,0,12,0,1,,,,,,,,,,,,,,,,,,,,,,,,,,,,,,,,,,,,,,,
,,,,,,,,2023-08-16_08h26.06.533,HF_wild_card,2022.2.4,MacIntel,62.5,60170c926648b891f9e5742f,64d2fd46c836a06233681665,64dc7951ef2cefcca3133bf9,,,,,,,ctch,resources/DP.BMP,resources/DR.BMP,Door3,0.44,0.056666667,1,0,0,3.462,optionRight,70,715,1,13,0,13,0,1,,,,,,,,,,,,,,,,,,,,,,,,,,,,,,,,,,,,,,,
,,,,,,,,2023-08-16_08h26.06.533,HF_wild_card,2022.2.4,MacIntel,62.5,60170c926648b891f9e5742f,64d2fd46c836a06233681665,64dc7951ef2cefcca3133bf9,,,,,,,ctch,resources/DR.BMP,resources/DP.BMP,Door3,-0.34,-0.018888889,1,0,0,1.595,optionLeft,70,785,1,14,0,14,0,1,,,,,,,,,,,,,,,,,,,,,,,,,,,,,,,,,,,,,,,
,,,,,,,,2023-08-16_08h26.06.533,HF_wild_card,2022.2.4,MacIntel,62.5,60170c926648b891f9e5742f,64d2fd46c836a06233681665,64dc7951ef2cefcca3133bf9,,,,,,,decisionTrl,resources/DBN.BMP,resources/DP.BMP,Door2,0.36,-0.015555556,1,0,0,1.695,optionRight,20,805,1,15,0,15,0,1,,,,,,,,,,,,,,,,,,,,,,,,,,,,,,,,,,,,,,,
,,,,,,,,2023-08-16_08h26.06.533,HF_wild_card,2022.2.4,MacIntel,62.5,60170c926648b891f9e5742f,64d2fd46c836a06233681665,64dc7951ef2cefcca3133bf9,,,,,,,sngl,resources/Empty.png,resources/DBN.BMP,Door1,0.333333333,0.027777778,1,0,0,1.511,optionRight,30,835,1,16,0,16,0,1,,,,,,,,,,,,,,,,,,,,,,,,,,,,,,,,,,,,,,,
,,,,,,,,2023-08-16_08h26.06.533,HF_wild_card,2022.2.4,MacIntel,62.5,60170c926648b891f9e5742f,64d2fd46c836a06233681665,64dc7951ef2cefcca3133bf9,,,,,,,decisionTrl,resources/DR.BMP,resources/DG.BMP,Door3,-0.374444444,-0.002222222,1,0,0,2.278,optionLeft,70,905,1,17,0,17,0,1,,,,,,,,,,,,,,,,,,,,,,,,,,,,,,,,,,,,,,,
,,,,,,,,2023-08-16_08h26.06.533,HF_wild_card,2022.2.4,MacIntel,62.5,60170c926648b891f9e5742f,64d2fd46c836a06233681665,64dc7951ef2cefcca3133bf9,,,,,,,decisionTrl,resources/DR.BMP,resources/DG.BMP,Door3,-0.287777778,-0.003333333,1,0,0,1.245,optionLeft,70,975,1,18,0,18,0,1,,,,,,,,,,,,,,,,,,,,,,,,,,,,,,,,,,,,,,,
,,,,,,,,2023-08-16_08h26.06.533,HF_wild_card,2022.2.4,MacIntel,62.5,60170c926648b891f9e5742f,64d2fd46c836a06233681665,64dc7951ef2cefcca3133bf9,,,,,,,ctch,resources/DP.BMP,resources/DR.BMP,Door2,-0.354444444,0.006666667,1,0,0,2.012,optionLeft,20,995,1,19,0,19,0,1,,,,,,,,,,,,,,,,,,,,,,,,,,,,,,,,,,,,,,,
,,,,,,,,2023-08-16_08h26.06.533,HF_wild_card,2022.2.4,MacIntel,62.5,60170c926648b891f9e5742f,64d2fd46c836a06233681665,64dc7951ef2cefcca3133bf9,,,,,,,decisionTrl,resources/DY.BMP,resources/DBN.BMP,WildCard_NonEx,-0.283333333,-0.012222222,1,0,0,1.543,optionLeft,55,1050,1,20,0,20,0,1,,,,,,,,,,,,,,,,,,,,,,,,,,,,,,,,,,,,,,,
,,,,,,,,2023-08-16_08h26.06.533,HF_wild_card,2022.2.4,MacIntel,62.5,60170c926648b891f9e5742f,64d2fd46c836a06233681665,64dc7951ef2cefcca3133bf9,,,,,,,sngl,resources/DR.BMP,resources/Empty.png,Door3,-0.337777778,0.01,1,0,0,1.144,optionLeft,70,1120,1,21,0,21,0,1,,,,,,,,,,,,,,,,,,,,,,,,,,,,,,,,,,,,,,,
,,,,,,,,2023-08-16_08h26.06.533,HF_wild_card,2022.2.4,MacIntel,62.5,60170c926648b891f9e5742f,64d2fd46c836a06233681665,64dc7951ef2cefcca3133bf9,,,,,,,decisionTrl,resources/DBN.BMP,resources/DP.BMP,Door2,0.305555556,0.027777778,1,0,0,1.826,optionRight,40,1160,1,22,0,22,0,1,,,,,,,,,,,,,,,,,,,,,,,,,,,,,,,,,,,,,,,
,,,,,,,,2023-08-16_08h26.06.533,HF_wild_card,2022.2.4,MacIntel,62.5,60170c926648b891f9e5742f,64d2fd46c836a06233681665,64dc7951ef2cefcca3133bf9,,,,,,,decisionTrl,resources/DP.BMP,resources/DBN.BMP,Door2,-0.345555556,-0.011111111,1,0,0,1.277,optionLeft,40,1200,1,23,0,23,0,1,,,,,,,,,,,,,,,,,,,,,,,,,,,,,,,,,,,,,,,
,,,,,,,,2023-08-16_08h26.06.533,HF_wild_card,2022.2.4,MacIntel,62.5,60170c926648b891f9e5742f,64d2fd46c836a06233681665,64dc7951ef2cefcca3133bf9,,,,,,,ctch,resources/DBN.BMP,resources/DG.BMP,Door4,0.473333333,0.06,1,0,0,1.462,optionRight,80,1280,1,24,0,24,0,1,,,,,,,,,,,,,,,,,,,,,,,,,,,,,,,,,,,,,,,
,,,,,,,,2023-08-16_08h26.06.533,HF_wild_card,2022.2.4,MacIntel,62.5,60170c926648b891f9e5742f,64d2fd46c836a06233681665,64dc7951ef2cefcca3133bf9,,,,,,,decisionTrl,resources/DP.BMP,resources/DBN.BMP,Door2,-0.321111111,-0.015555556,1,0,0,1.278,optionLeft,20,1300,1,25,0,25,0,1,,,,,,,,,,,,,,,,,,,,,,,,,,,,,,,,,,,,,,,
,,,,,,,,2023-08-16_08h26.06.533,HF_wild_card,2022.2.4,MacIntel,62.5,60170c926648b891f9e5742f,64d2fd46c836a06233681665,64dc7951ef2cefcca3133bf9,,,,,,,decisionTrl,resources/DP.BMP,resources/DBN.BMP,Door2,-0.286666667,-0.016666667,1,0,0,1.378,optionLeft,40,1340,1,26,0,26,0,1,,,,,,,,,,,,,,,,,,,,,,,,,,,,,,,,,,,,,,,
,,,,,,,,2023-08-16_08h26.06.533,HF_wild_card,2022.2.4,MacIntel,62.5,60170c926648b891f9e5742f,64d2fd46c836a06233681665,64dc7951ef2cefcca3133bf9,,,,,,,sngl,resources/DY.BMP,resources/Empty.png,WildCard_NonEx,-0.297777778,-0.01,1,0,0,1.112,optionLeft,55,1395,1,27,0,27,0,1,,,,,,,,,,,,,,,,,,,,,,,,,,,,,,,,,,,,,,,
,,,,,,,,2023-08-16_08h26.06.533,HF_wild_card,2022.2.4,MacIntel,62.5,60170c926648b891f9e5742f,64d2fd46c836a06233681665,64dc7951ef2cefcca3133bf9,,,,,,,decisionTrl,resources/DY.BMP,resources/DP.BMP,Door2,0.342222222,-0.04,1,0,0,3.312,optionRight,20,1415,1,28,0,28,0,1,,,,,,,,,,,,,,,,,,,,,,,,,,,,,,,,,,,,,,,
,,,,,,,,2023-08-16_08h26.06.533,HF_wild_card,2022.2.4,MacIntel,62.5,60170c926648b891f9e5742f,64d2fd46c836a06233681665,64dc7951ef2cefcca3133bf9,,,,,,,decisionTrl,resources/DR.BMP,resources/DY.BMP,Door3,-0.307777778,0.032222222,1,0,0,1.146,optionLeft,70,1485,1,29,0,29,0,1,,,,,,,,,,,,,,,,,,,,,,,,,,,,,,,,,,,,,,,
,,,,,,,,2023-08-16_08h26.06.533,HF_wild_card,2022.2.4,MacIntel,62.5,60170c926648b891f9e5742f,64d2fd46c836a06233681665,64dc7951ef2cefcca3133bf9,,,,,,,decisionTrl,resources/DG.BMP,resources/DR.BMP,Door4,-0.326666667,0.016666667,1,0,0,1.845,optionLeft,80,1565,1,30,0,30,0,1,,,,,,,,,,,,,,,,,,,,,,,,,,,,,,,,,,,,,,,
,,,,,,,,2023-08-16_08h26.06.533,HF_wild_card,2022.2.4,MacIntel,62.5,60170c926648b891f9e5742f,64d2fd46c836a06233681665,64dc7951ef2cefcca3133bf9,,,,,,,ctch,resources/DG.BMP,resources/DBN.BMP,Door4,-0.283333333,-0.007777778,1,0,0,1.014,optionLeft,60,1625,1,31,0,31,0,1,,,,,,,,,,,,,,,,,,,,,,,,,,,,,,,,,,,,,,,
,,,,,,,,2023-08-16_08h26.06.533,HF_wild_card,2022.2.4,MacIntel,62.5,60170c926648b891f9e5742f,64d2fd46c836a06233681665,64dc7951ef2cefcca3133bf9,,,,,,,sngl,resources/Empty.png,resources/DR.BMP,Door3,0.304444444,0.007777778,1,0,0,1.163,optionRight,70,1695,1,32,0,32,0,1,,,,,,,,,,,,,,,,,,,,,,,,,,,,,,,,,,,,,,,
,,,,,,,,2023-08-16_08h26.06.533,HF_wild_card,2022.2.4,MacIntel,62.5,60170c926648b891f9e5742f,64d2fd46c836a06233681665,64dc7951ef2cefcca3133bf9,,,,,,,sngl,resources/DY.BMP,resources/Empty.png,WildCard_NonEx,-0.304444444,0.027777778,1,0,0,1.195,optionLeft,45,1740,1,33,0,33,0,1,,,,,,,,,,,,,,,,,,,,,,,,,,,,,,,,,,,,,,,
,,,,,,,,2023-08-16_08h26.06.533,HF_wild_card,2022.2.4,MacIntel,62.5,60170c926648b891f9e5742f,64d2fd46c836a06233681665,64dc7951ef2cefcca3133bf9,,,,,,,decisionTrl,resources/DR.BMP,resources/DG.BMP,Door4,0.327777778,-0.011111111,1,0,0,1.663,optionRight,80,1820,1,34,0,34,0,1,,,,,,,,,,,,,,,,,,,,,,,,,,,,,,,,,,,,,,,
,,,,,,,,2023-08-16_08h26.06.533,HF_wild_card,2022.2.4,MacIntel,62.5,60170c926648b891f9e5742f,64d2fd46c836a06233681665,64dc7951ef2cefcca3133bf9,,,,,,,ctch,resources/DR.BMP,resources/DP.BMP,Door2,0.253333333,0.016666667,1,0,0,1.496,optionRight,20,1840,1,35,0,35,0,1,,,,,,,,,,,,,,,,,,,,,,,,,,,,,,,,,,,,,,,
,,,,,,,,2023-08-16_08h26.06.533,HF_wild_card,2022.2.4,MacIntel,62.5,60170c926648b891f9e5742f,64d2fd46c836a06233681665,64dc7951ef2cefcca3133bf9,,,,,,,decisionTrl,resources/DG.BMP,resources/DR.BMP,Door3,0.327777778,-0.001111111,1,0,0,1.295,optionRight,70,1910,1,36,0,36,0,1,,,,,,,,,,,,,,,,,,,,,,,,,,,,,,,,,,,,,,,
,,,,,,,,2023-08-16_08h26.06.533,HF_wild_card,2022.2.4,MacIntel,62.5,60170c926648b891f9e5742f,64d2fd46c836a06233681665,64dc7951ef2cefcca3133bf9,,,,,,,sngl,resources/DBN.BMP,resources/Empty.png,Door1,-0.355555556,0.038888889,1,0,0,1.361,optionLeft,30,1940,1,37,0,37,0,1,,,,,,,,,,,,,,,,,,,,,,,,,,,,,,,,,,,,,,,
,,,,,,,,2023-08-16_08h26.06.533,HF_wild_card,2022.2.4,MacIntel,62.5,60170c926648b891f9e5742f,64d2fd46c836a06233681665,64dc7951ef2cefcca3133bf9,,,,,,,decisionTrl,resources/DR.BMP,resources/DG.BMP,Door4,0.372222222,0.023333333,1,0,0,1.796,optionRight,60,2000,1,38,0,38,0,1,,,,,,,,,,,,,,,,,,,,,,,,,,,,,,,,,,,,,,,
,,,,,,,,2023-08-16_08h26.06.533,HF_wild_card,2022.2.4,MacIntel,62.5,60170c926648b891f9e5742f,64d2fd46c836a06233681665,64dc7951ef2cefcca3133bf9,,,,,,,sngl,resources/Empty.png,resources/DY.BMP,WildCard_NonEx,0.378888889,-0.007777778,1,0,0,1.229,optionRight,55,2055,1,39,0,39,0,1,,,,,,,,,,,,,,,,,,,,,,,,,,,,,,,,,,,,,,,
,,,,,,,,2023-08-16_08h26.06.533,HF_wild_card,2022.2.4,MacIntel,62.5,60170c926648b891f9e5742f,64d2fd46c836a06233681665,64dc7951ef2cefcca3133bf9,,,,,,,sngl,resources/Empty.png,resources/DG.BMP,Door4,0.336666667,0.031111111,1,0,0,1.045,optionRight,60,2115,1,40,0,40,0,1,,,,,,,,,,,,,,,,,,,,,,,,,,,,,,,,,,,,,,,
,,,,,,,,2023-08-16_08h26.06.533,HF_wild_card,2022.2.4,MacIntel,62.5,60170c926648b891f9e5742f,64d2fd46c836a06233681665,64dc7951ef2cefcca3133bf9,,,,,,,decisionTrl,resources/DG.BMP,resources/DR.BMP,Door4,-0.305555556,0.027777778,1,0,0,1.778,optionLeft,60,2175,1,41,0,41,0,1,,,,,,,,,,,,,,,,,,,,,,,,,,,,,,,,,,,,,,,
,,,,,,,,2023-08-16_08h26.06.533,HF_wild_card,2022.2.4,MacIntel,62.5,60170c926648b891f9e5742f,64d2fd46c836a06233681665,64dc7951ef2cefcca3133bf9,,,,,,,decisionTrl,resources/DG.BMP,resources/DR.BMP,Door3,0.348888889,0.005555556,1,0,0,1.163,optionRight,70,2245,1,42,0,42,0,1,,,,,,,,,,,,,,,,,,,,,,,,,,,,,,,,,,,,,,,
,,,,,,,,2023-08-16_08h26.06.533,HF_wild_card,2022.2.4,MacIntel,62.5,60170c926648b891f9e5742f,64d2fd46c836a06233681665,64dc7951ef2cefcca3133bf9,,,,,,,ctch,resources/DG.BMP,resources/DBN.BMP,Door1,0.315555556,-0.001111111,1,0,0,2.044,optionRight,30,2275,1,43,0,43,0,1,,,,,,,,,,,,,,,,,,,,,,,,,,,,,,,,,,,,,,,
,,,,,,,,2023-08-16_08h26.06.533,HF_wild_card,2022.2.4,MacIntel,62.5,60170c926648b891f9e5742f,64d2fd46c836a06233681665,64dc7951ef2cefcca3133bf9,,,,,,,,,,,,,,,,,,,,,,,,,,0,0,0,0,1,,,,,,,,,,,,,,,,,,,,,,,,,,,,,,,,,,
,,,,,,,,2023-08-16_08h26.06.533,HF_wild_card,2022.2.4,MacIntel,62.5,60170c926648b891f9e5742f,64d2fd46c836a06233681665,64dc7951ef2cefcca3133bf9,,,,,,,decisionTrl,resources/DR.BMP,resources/DG.BMP,Door3,-0.293333333,0.045555556,1,0,0,3.922,optionLeft,70,2345,2,0,0,0,0,1,,,,,,,,,,,,,,,,,,,,,,,,,,,,,,,,,,,,,,,
,,,,,,,,2023-08-16_08h26.06.533,HF_wild_card,2022.2.4,MacIntel,62.5,60170c926648b891f9e5742f,64d2fd46c836a06233681665,64dc7951ef2cefcca3133bf9,,,,,,,decisionTrl,resources/DP.BMP,resources/DY.BMP,Door2,-0.268888889,-0.008888889,1,0,0,1.795,optionLeft,40,2385,2,1,0,1,0,1,,,,,,,,,,,,,,,,,,,,,,,,,,,,,,,,,,,,,,,
,,,,,,,,2023-08-16_08h26.06.533,HF_wild_card,2022.2.4,MacIntel,62.5,60170c926648b891f9e5742f,64d2fd46c836a06233681665,64dc7951ef2cefcca3133bf9,,,,,,,decisionTrl,resources/DP.BMP,resources/DBN.BMP,Door2,-0.307777778,-0.006666667,1,0,0,1.195,optionLeft,40,2425,2,2,0,2,0,1,,,,,,,,,,,,,,,,,,,,,,,,,,,,,,,,,,,,,,,
,,,,,,,,2023-08-16_08h26.06.533,HF_wild_card,2022.2.4,MacIntel,62.5,60170c926648b891f9e5742f,64d2fd46c836a06233681665,64dc7951ef2cefcca3133bf9,,,,,,,sngl,resources/Empty.png,resources/DR.BMP,Door3,0.308888889,-0.013333333,1,0,0,1.012,optionRight,70,2495,2,3,0,3,0,1,,,,,,,,,,,,,,,,,,,,,,,,,,,,,,,,,,,,,,,
,,,,,,,,2023-08-16_08h26.06.533,HF_wild_card,2022.2.4,MacIntel,62.5,60170c926648b891f9e5742f,64d2fd46c836a06233681665,64dc7951ef2cefcca3133bf9,,,,,,,ctch,resources/DBN.BMP,resources/DG.BMP,Door1,-0.254444444,0.042222222,1,0,0,2.144,optionLeft,30,2525,2,4,0,4,0,1,,,,,,,,,,,,,,,,,,,,,,,,,,,,,,,,,,,,,,,
,,,,,,,,2023-08-16_08h26.06.533,HF_wild_card,2022.2.4,MacIntel,62.5,60170c926648b891f9e5742f,64d2fd46c836a06233681665,64dc7951ef2cefcca3133bf9,,,,,,,decisionTrl,resources/DBN.BMP,resources/DP.BMP,Door2,0.355555556,-0.026666667,1,0,0,2.296,optionRight,20,2545,2,5,0,5,0,1,,,,,,,,,,,,,,,,,,,,,,,,,,,,,,,,,,,,,,,
,,,,,,,,2023-08-16_08h26.06.533,HF_wild_card,2022.2.4,MacIntel,62.5,60170c926648b891f9e5742f,64d2fd46c836a06233681665,64dc7951ef2cefcca3133bf9,,,,,,,sngl,resources/DY.BMP,resources/Empty.png,WildCard_NonEx,-0.306666667,0.02,1,0,0,1.047,optionLeft,55,2600,2,6,0,6,0,1,,,,,,,,,,,,,,,,,,,,,,,,,,,,,,,,,,,,,,,
,,,,,,,,2023-08-16_08h26.06.533,HF_wild_card,2022.2.4,MacIntel,62.5,60170c926648b891f9e5742f,64d2fd46c836a06233681665,64dc7951ef2cefcca3133bf9,,,,,,,decisionTrl,resources/DG.BMP,resources/DY.BMP,WildCard_NonEx,0.181111111,0.002222222,1,0,0,2.446,optionRight,45,2645,2,7,0,7,0,1,,,,,,,,,,,,,,,,,,,,,,,,,,,,,,,,,,,,,,,
,,,,,,,,2023-08-16_08h26.06.533,HF_wild_card,2022.2.4,MacIntel,62.5,60170c926648b891f9e5742f,64d2fd46c836a06233681665,64dc7951ef2cefcca3133bf9,,,,,,,sngl,resources/Empty.png,resources/DP.BMP,Door2,0.377777778,0.048888889,1,0,0,2.361,optionRight,40,2685,2,8,0,8,0,1,,,,,,,,,,,,,,,,,,,,,,,,,,,,,,,,,,,,,,,
,,,,,,,,2023-08-16_08h26.06.533,HF_wild_card,2022.2.4,MacIntel,62.5,60170c926648b891f9e5742f,64d2fd46c836a06233681665,64dc7951ef2cefcca3133bf9,,,,,,,sngl,resources/DY.BMP,resources/Empty.png,WildCard_NonEx,-0.271111111,0.004444444,1,0,0,1.08,optionLeft,45,2730,2,9,0,9,0,1,,,,,,,,,,,,,,,,,,,,,,,,,,,,,,,,,,,,,,,
,,,,,,,,2023-08-16_08h26.06.533,HF_wild_card,2022.2.4,MacIntel,62.5,60170c926648b891f9e5742f,64d2fd46c836a06233681665,64dc7951ef2cefcca3133bf9,,,,,,,decisionTrl,resources/DP.BMP,resources/DBN.BMP,Door2,-0.233333333,-0.026666667,1,0,0,4.129,optionLeft,40,2770,2,10,0,10,0,1,,,,,,,,,,,,,,,,,,,,,,,,,,,,,,,,,,,,,,,
,,,,,,,,2023-08-16_08h26.06.533,HF_wild_card,2022.2.4,MacIntel,62.5,60170c926648b891f9e5742f,64d2fd46c836a06233681665,64dc7951ef2cefcca3133bf9,,,,,,,decisionTrl,resources/DBN.BMP,resources/DP.BMP,Door2,0.317777778,0.006666667,1,0,0,1.212,optionRight,20,2790,2,11,0,11,0,1,,,,,,,,,,,,,,,,,,,,,,,,,,,,,,,,,,,,,,,
,,,,,,,,2023-08-16_08h26.06.533,HF_wild_card,2022.2.4,MacIntel,62.5,60170c926648b891f9e5742f,64d2fd46c836a06233681665,64dc7951ef2cefcca3133bf9,,,,,,,ctch,resources/DG.BMP,resources/DBN.BMP,Door4,-0.345555556,0.026666667,1,0,0,1.56,optionLeft,60,2850,2,12,0,12,0,1,,,,,,,,,,,,,,,,,,,,,,,,,,,,,,,,,,,,,,,
,,,,,,,,2023-08-16_08h26.06.533,HF_wild_card,2022.2.4,MacIntel,62.5,60170c926648b891f9e5742f,64d2fd46c836a06233681665,64dc7951ef2cefcca3133bf9,,,,,,,ctch,resources/DP.BMP,resources/DR.BMP,Door2,-0.24,0.015555556,1,0,0,1.229,optionLeft,20,2870,2,13,0,13,0,1,,,,,,,,,,,,,,,,,,,,,,,,,,,,,,,,,,,,,,,
,,,,,,,,2023-08-16_08h26.06.533,HF_wild_card,2022.2.4,MacIntel,62.5,60170c926648b891f9e5742f,64d2fd46c836a06233681665,64dc7951ef2cefcca3133bf9,,,,,,,decisionTrl,resources/DY.BMP,resources/DBN.BMP,WildCard_NonEx,-0.324444444,0.002222222,1,0,0,1.211,optionLeft,45,2915,2,14,0,14,0,1,,,,,,,,,,,,,,,,,,,,,,,,,,,,,,,,,,,,,,,
,,,,,,,,2023-08-16_08h26.06.533,HF_wild_card,2022.2.4,MacIntel,62.5,60170c926648b891f9e5742f,64d2fd46c836a06233681665,64dc7951ef2cefcca3133bf9,,,,,,,ctch,resources/DR.BMP,resources/DP.BMP,Door2,0.375555556,0.052222222,1,0,0,2.146,optionRight,40,2955,2,15,0,15,0,1,,,,,,,,,,,,,,,,,,,,,,,,,,,,,,,,,,,,,,,
,,,,,,,,2023-08-16_08h26.06.533,HF_wild_card,2022.2.4,MacIntel,62.5,60170c926648b891f9e5742f,64d2fd46c836a06233681665,64dc7951ef2cefcca3133bf9,,,,,,,sngl,resources/Empty.png,resources/DY.BMP,WildCard_NonEx,0.281111111,0.034444444,1,0,0,1.377,optionRight,45,3000,2,16,0,16,0,1,,,,,,,,,,,,,,,,,,,,,,,,,,,,,,,,,,,,,,,
,,,,,,,,2023-08-16_08h26.06.533,HF_wild_card,2022.2.4,MacIntel,62.5,60170c926648b891f9e5742f,64d2fd46c836a06233681665,64dc7951ef2cefcca3133bf9,,,,,,,decisionTrl,resources/DR.BMP,resources/DG.BMP,Door3,-0.333333333,-0.006666667,1,0,0,1.446,optionLeft,70,3070,2,17,0,17,0,1,,,,,,,,,,,,,,,,,,,,,,,,,,,,,,,,,,,,,,,
,,,,,,,,2023-08-16_08h26.06.533,HF_wild_card,2022.2.4,MacIntel,62.5,60170c926648b891f9e5742f,64d2fd46c836a06233681665,64dc7951ef2cefcca3133bf9,,,,,,,sngl,resources/DP.BMP,resources/Empty.png,Door2,-0.218888889,0.004444444,1,0,0,1.013,optionLeft,20,3090,2,18,0,18,0,1,,,,,,,,,,,,,,,,,,,,,,,,,,,,,,,,,,,,,,,
,,,,,,,,2023-08-16_08h26.06.533,HF_wild_card,2022.2.4,MacIntel,62.5,60170c926648b891f9e5742f,64d2fd46c836a06233681665,64dc7951ef2cefcca3133bf9,,,,,,,decisionTrl,resources/DR.BMP,resources/DY.BMP,WildCard_NonEx,0.268888889,-0.012222222,1,0,0,1.945,optionRight,45,3135,2,19,0,19,0,1,,,,,,,,,,,,,,,,,,,,,,,,,,,,,,,,,,,,,,,
,,,,,,,,2023-08-16_08h26.06.533,HF_wild_card,2022.2.4,MacIntel,62.5,60170c926648b891f9e5742f,64d2fd46c836a06233681665,64dc7951ef2cefcca3133bf9,,,,,,,decisionTrl,resources/DR.BMP,resources/DG.BMP,Door3,-0.208888889,-0.005555556,1,0,0,0.946,optionLeft,70,3205,2,20,0,20,0,1,,,,,,,,,,,,,,,,,,,,,,,,,,,,,,,,,,,,,,,
,,,,,,,,2023-08-16_08h26.06.533,HF_wild_card,2022.2.4,MacIntel,62.5,60170c926648b891f9e5742f,64d2fd46c836a06233681665,64dc7951ef2cefcca3133bf9,,,,,,,sngl,resources/Empty.png,resources/DBN.BMP,Door1,0.177777778,0.003333333,1,0,0,0.945,optionRight,30,3235,2,21,0,21,0,1,,,,,,,,,,,,,,,,,,,,,,,,,,,,,,,,,,,,,,,
,,,,,,,,2023-08-16_08h26.06.533,HF_wild_card,2022.2.4,MacIntel,62.5,60170c926648b891f9e5742f,64d2fd46c836a06233681665,64dc7951ef2cefcca3133bf9,,,,,,,decisionTrl,resources/DBN.BMP,resources/DP.BMP,Door2,0.233333333,-0.01,1,0,0,1.345,optionRight,40,3275,2,22,0,22,0,1,,,,,,,,,,,,,,,,,,,,,,,,,,,,,,,,,,,,,,,
,,,,,,,,2023-08-16_08h26.06.533,HF_wild_card,2022.2.4,MacIntel,62.5,60170c926648b891f9e5742f,64d2fd46c836a06233681665,64dc7951ef2cefcca3133bf9,,,,,,,decisionTrl,resources/DY.BMP,resources/DG.BMP,WildCard_NonEx,-0.215555556,-0.01,1,0,0,1.028,optionLeft,45,3320,2,23,0,23,0,1,,,,,,,,,,,,,,,,,,,,,,,,,,,,,,,,,,,,,,,
,,,,,,,,2023-08-16_08h26.06.533,HF_wild_card,2022.2.4,MacIntel,62.5,60170c926648b891f9e5742f,64d2fd46c836a06233681665,64dc7951ef2cefcca3133bf9,,,,,,,decisionTrl,resources/DG.BMP,resources/DR.BMP,Door3,0.3,-0.028888889,1,0,0,1.144,optionRight,70,3390,2,24,0,24,0,1,,,,,,,,,,,,,,,,,,,,,,,,,,,,,,,,,,,,,,,
,,,,,,,,2023-08-16_08h26.06.533,HF_wild_card,2022.2.4,MacIntel,62.5,60170c926648b891f9e5742f,64d2fd46c836a06233681665,64dc7951ef2cefcca3133bf9,,,,,,,ctch,resources/DBN.BMP,resources/DG.BMP,Door4,0.301111111,0,1,0,0,1.545,optionRight,60,3450,2,25,0,25,0,1,,,,,,,,,,,,,,,,,,,,,,,,,,,,,,,,,,,,,,,
,,,,,,,,2023-08-16_08h26.06.533,HF_wild_card,2022.2.4,MacIntel,62.5,60170c926648b891f9e5742f,64d2fd46c836a06233681665,64dc7951ef2cefcca3133bf9,,,,,,,decisionTrl,resources/DP.BMP,resources/DBN.BMP,Door2,-0.144444444,-0.007777778,1,0,0,1.18,optionLeft,20,3470,2,26,0,26,0,1,,,,,,,,,,,,,,,,,,,,,,,,,,,,,,,,,,,,,,,
,,,,,,,,2023-08-16_08h26.06.533,HF_wild_card,2022.2.4,MacIntel,62.5,60170c926648b891f9e5742f,64d2fd46c836a06233681665,64dc7951ef2cefcca3133bf9,,,,,,,sngl,resources/DBN.BMP,resources/Empty.png,Door1,-0.207777778,0.002222222,1,0,0,1.012,optionLeft,30,3500,2,27,0,27,0,1,,,,,,,,,,,,,,,,,,,,,,,,,,,,,,,,,,,,,,,
,,,,,,,,2023-08-16_08h26.06.533,HF_wild_card,2022.2.4,MacIntel,62.5,60170c926648b891f9e5742f,64d2fd46c836a06233681665,64dc7951ef2cefcca3133bf9,,,,,,,decisionTrl,resources/DR.BMP,resources/DG.BMP,Door4,0.223333333,-0.01,1,0,0,2.196,optionRight,60,3560,2,28,0,28,0,1,,,,,,,,,,,,,,,,,,,,,,,,,,,,,,,,,,,,,,,
,,,,,,,,2023-08-16_08h26.06.533,HF_wild_card,2022.2.4,MacIntel,62.5,60170c926648b891f9e5742f,64d2fd46c836a06233681665,64dc7951ef2cefcca3133bf9,,,,,,,decisionTrl,resources/DBN.BMP,resources/DP.BMP,Door2,0.228888889,-0.02,1,0,0,2.228,optionRight,40,3600,2,29,0,29,0,1,,,,,,,,,,,,,,,,,,,,,,,,,,,,,,,,,,,,,,,
,,,,,,,,2023-08-16_08h26.06.533,HF_wild_card,2022.2.4,MacIntel,62.5,60170c926648b891f9e5742f,64d2fd46c836a06233681665,64dc7951ef2cefcca3133bf9,,,,,,,sngl,resources/DG.BMP,resources/Empty.png,Door4,-0.307777778,0.042222222,1,0,0,1.195,optionLeft,60,3660,2,30,0,30,0,1,,,,,,,,,,,,,,,,,,,,,,,,,,,,,,,,,,,,,,,
,,,,,,,,2023-08-16_08h26.06.533,HF_wild_card,2022.2.4,MacIntel,62.5,60170c926648b891f9e5742f,64d2fd46c836a06233681665,64dc7951ef2cefcca3133bf9,,,,,,,decisionTrl,resources/DG.BMP,resources/DR.BMP,Door4,-0.203333333,0.007777778,1,0,0,1.078,optionLeft,60,3720,2,31,0,31,0,1,,,,,,,,,,,,,,,,,,,,,,,,,,,,,,,,,,,,,,,
,,,,,,,,2023-08-16_08h26.06.533,HF_wild_card,2022.2.4,MacIntel,62.5,60170c926648b891f9e5742f,64d2fd46c836a06233681665,64dc7951ef2cefcca3133bf9,,,,,,,sngl,resources/DR.BMP,resources/Empty.png,Door3,-0.171111111,0.013333333,1,0,0,0.995,optionLeft,70,3790,2,32,0,32,0,1,,,,,,,,,,,,,,,,,,,,,,,,,,,,,,,,,,,,,,,
,,,,,,,,2023-08-16_08h26.06.533,HF_wild_card,2022.2.4,MacIntel,62.5,60170c926648b891f9e5742f,64d2fd46c836a06233681665,64dc7951ef2cefcca3133bf9,,,,,,,ctch,resources/DP.BMP,resources/DR.BMP,Door2,-0.234444444,-0.032222222,1,0,0,3.475,optionLeft,20,3810,2,33,0,33,0,1,,,,,,,,,,,,,,,,,,,,,,,,,,,,,,,,,,,,,,,
,,,,,,,,2023-08-16_08h26.06.533,HF_wild_card,2022.2.4,MacIntel,62.5,60170c926648b891f9e5742f,64d2fd46c836a06233681665,64dc7951ef2cefcca3133bf9,,,,,,,decisionTrl,resources/DP.BMP,resources/DBN.BMP,Door2,-0.191111111,-0.071111111,1,0,0,1.345,optionLeft,20,3830,2,34,0,34,0,1,,,,,,,,,,,,,,,,,,,,,,,,,,,,,,,,,,,,,,,
,,,,,,,,2023-08-16_08h26.06.533,HF_wild_card,2022.2.4,MacIntel,62.5,60170c926648b891f9e5742f,64d2fd46c836a06233681665,64dc7951ef2cefcca3133bf9,,,,,,,ctch,resources/DG.BMP,resources/DBN.BMP,Door4,-0.143333333,-0.007777778,1,0,0,1.679,optionLeft,60,3890,2,35,0,35,0,1,,,,,,,,,,,,,,,,,,,,,,,,,,,,,,,,,,,,,,,
,,,,,,,,2023-08-16_08h26.06.533,HF_wild_card,2022.2.4,MacIntel,62.5,60170c926648b891f9e5742f,64d2fd46c836a06233681665,64dc7951ef2cefcca3133bf9,,,,,,,sngl,resources/Empty.png,resources/DY.BMP,WildCard_NonEx,0.214444444,-0.02,1,0,0,0.911,optionRight,55,3945,2,36,0,36,0,1,,,,,,,,,,,,,,,,,,,,,,,,,,,,,,,,,,,,,,,
,,,,,,,,2023-08-16_08h26.06.533,HF_wild_card,2022.2.4,MacIntel,62.5,60170c926648b891f9e5742f,64d2fd46c836a06233681665,64dc7951ef2cefcca3133bf9,,,,,,,decisionTrl,resources/DY.BMP,resources/DP.BMP,WildCard_NonEx,-0.163333333,-0.008888889,1,0,0,1.429,optionLeft,55,4000,2,37,0,37,0,1,,,,,,,,,,,,,,,,,,,,,,,,,,,,,,,,,,,,,,,
,,,,,,,,2023-08-16_08h26.06.533,HF_wild_card,2022.2.4,MacIntel,62.5,60170c926648b891f9e5742f,64d2fd46c836a06233681665,64dc7951ef2cefcca3133bf9,,,,,,,decisionTrl,resources/DG.BMP,resources/DR.BMP,Door4,-0.183333333,-0.032222222,1,0,0,1.096,optionLeft,80,4080,2,38,0,38,0,1,,,,,,,,,,,,,,,,,,,,,,,,,,,,,,,,,,,,,,,
,,,,,,,,2023-08-16_08h26.06.533,HF_wild_card,2022.2.4,MacIntel,62.5,60170c926648b891f9e5742f,64d2fd46c836a06233681665,64dc7951ef2cefcca3133bf9,,,,,,,decisionTrl,resources/DG.BMP,resources/DR.BMP,Door4,-0.184444444,-0.012222222,1,0,0,1.113,optionLeft,60,4140,2,39,0,39,0,1,,,,,,,,,,,,,,,,,,,,,,,,,,,,,,,,,,,,,,,
,,,,,,,,2023-08-16_08h26.06.533,HF_wild_card,2022.2.4,MacIntel,62.5,60170c926648b891f9e5742f,64d2fd46c836a06233681665,64dc7951ef2cefcca3133bf9,,,,,,,decisionTrl,resources/DBN.BMP,resources/DY.BMP,WildCard_NonEx,0.196666667,-0.001111111,1,0,0,1.296,optionRight,55,4195,2,40,0,40,0,1,,,,,,,,,,,,,,,,,,,,,,,,,,,,,,,,,,,,,,,
,,,,,,,,2023-08-16_08h26.06.533,HF_wild_card,2022.2.4,MacIntel,62.5,60170c926648b891f9e5742f,64d2fd46c836a06233681665,64dc7951ef2cefcca3133bf9,,,,,,,ctch,resources/DR.BMP,resources/DP.BMP,Door3,-0.195555556,-0.005555556,1,0,0,1.08,optionLeft,70,4265,2,41,0,41,0,1,,,,,,,,,,,,,,,,,,,,,,,,,,,,,,,,,,,,,,,
,,,,,,,,2023-08-16_08h26.06.533,HF_wild_card,2022.2.4,MacIntel,62.5,60170c926648b891f9e5742f,64d2fd46c836a06233681665,64dc7951ef2cefcca3133bf9,,,,,,,sngl,resources/Empty.png,resources/DG.BMP,Door4,0.18,-0.001111111,1,0,0,1.128,optionRight,80,4345,2,42,0,42,0,1,,,,,,,,,,,,,,,,,,,,,,,,,,,,,,,,,,,,,,,
,,,,,,,,2023-08-16_08h26.06.533,HF_wild_card,2022.2.4,MacIntel,62.5,60170c926648b891f9e5742f,64d2fd46c836a06233681665,64dc7951ef2cefcca3133bf9,,,,,,,decisionTrl,resources/DY.BMP,resources/DR.BMP,Door3,0.146666667,-0.001111111,1,0,0,1.895,optionRight,70,4415,2,43,0,43,0,1,,,,,,,,,,,,,,,,,,,,,,,,,,,,,,,,,,,,,,,
,,,,,,,,2023-08-16_08h26.06.533,HF_wild_card,2022.2.4,MacIntel,62.5,60170c926648b891f9e5742f,64d2fd46c836a06233681665,64dc7951ef2cefcca3133bf9,,,,,,,,,,,,,,,,,,,,,,,,,,1,0,1,0,1,,,,,,,,,,,,,,,,,,,,,,,,,,,,,,,,,,
,,,,,,,,2023-08-16_08h26.06.533,HF_wild_card,2022.2.4,MacIntel,62.5,60170c926648b891f9e5742f,64d2fd46c836a06233681665,64dc7951ef2cefcca3133bf9,,,,,,,sngl,resources/Empty.png,resources/DR.BMP,Door3,0.37,0.033333333,1,0,0,1.394,optionRight,70,4485,3,0,0,0,0,1,,,,,,,,,,,,,,,,,,,,,,,,,,,,,,,,,,,,,,,
,,,,,,,,2023-08-16_08h26.06.533,HF_wild_card,2022.2.4,MacIntel,62.5,60170c926648b891f9e5742f,64d2fd46c836a06233681665,64dc7951ef2cefcca3133bf9,,,,,,,sngl,resources/DG.BMP,resources/Empty.png,Door4,-0.233333333,0.008888889,1,0,0,0.862,optionLeft,80,4565,3,1,0,1,0,1,,,,,,,,,,,,,,,,,,,,,,,,,,,,,,,,,,,,,,,
,,,,,,,,2023-08-16_08h26.06.533,HF_wild_card,2022.2.4,MacIntel,62.5,60170c926648b891f9e5742f,64d2fd46c836a06233681665,64dc7951ef2cefcca3133bf9,,,,,,,decisionTrl,resources/DR.BMP,resources/DG.BMP,Door4,0.248888889,0.016666667,1,0,0,1.361,optionRight,80,4645,3,2,0,2,0,1,,,,,,,,,,,,,,,,,,,,,,,,,,,,,,,,,,,,,,,
,,,,,,,,2023-08-16_08h26.06.533,HF_wild_card,2022.2.4,MacIntel,62.5,60170c926648b891f9e5742f,64d2fd46c836a06233681665,64dc7951ef2cefcca3133bf9,,,,,,,ctch,resources/DG.BMP,resources/DBN.BMP,Door4,-0.222222222,-0.035555556,1,0,0,0.91,optionLeft,80,4725,3,3,0,3,0,1,,,,,,,,,,,,,,,,,,,,,,,,,,,,,,,,,,,,,,,
,,,,,,,,2023-08-16_08h26.06.533,HF_wild_card,2022.2.4,MacIntel,62.5,60170c926648b891f9e5742f,64d2fd46c836a06233681665,64dc7951ef2cefcca3133bf9,,,,,,,sngl,resources/Empty.png,resources/DBN.BMP,Door1,0.167777778,-0.005555556,1,0,0,1.113,optionRight,30,4755,3,4,0,4,0,1,,,,,,,,,,,,,,,,,,,,,,,,,,,,,,,,,,,,,,,
,,,,,,,,2023-08-16_08h26.06.533,HF_wild_card,2022.2.4,MacIntel,62.5,60170c926648b891f9e5742f,64d2fd46c836a06233681665,64dc7951ef2cefcca3133bf9,,,,,,,decisionTrl,resources/DBN.BMP,resources/DP.BMP,Door2,0.197777778,-0.032222222,1,0,0,2.163,optionRight,40,4795,3,5,0,5,0,1,,,,,,,,,,,,,,,,,,,,,,,,,,,,,,,,,,,,,,,
,,,,,,,,2023-08-16_08h26.06.533,HF_wild_card,2022.2.4,MacIntel,62.5,60170c926648b891f9e5742f,64d2fd46c836a06233681665,64dc7951ef2cefcca3133bf9,,,,,,,decisionTrl,resources/DG.BMP,resources/DR.BMP,Door4,-0.15,-0.014444444,1,0,0,1.512,optionLeft,60,4855,3,6,0,6,0,1,,,,,,,,,,,,,,,,,,,,,,,,,,,,,,,,,,,,,,,
,,,,,,,,2023-08-16_08h26.06.533,HF_wild_card,2022.2.4,MacIntel,62.5,60170c926648b891f9e5742f,64d2fd46c836a06233681665,64dc7951ef2cefcca3133bf9,,,,,,,decisionTrl,resources/DR.BMP,resources/DG.BMP,Door3,-0.186666667,-0.015555556,1,0,0,1.112,optionLeft,70,4925,3,7,0,7,0,1,,,,,,,,,,,,,,,,,,,,,,,,,,,,,,,,,,,,,,,
,,,,,,,,2023-08-16_08h26.06.533,HF_wild_card,2022.2.4,MacIntel,62.5,60170c926648b891f9e5742f,64d2fd46c836a06233681665,64dc7951ef2cefcca3133bf9,,,,,,,decisionTrl,resources/DR.BMP,resources/DG.BMP,Door4,0.258888889,0.01,1,0,0,1.063,optionRight,60,4985,3,8,0,8,0,1,,,,,,,,,,,,,,,,,,,,,,,,,,,,,,,,,,,,,,,
,,,,,,,,2023-08-16_08h26.06.533,HF_wild_card,2022.2.4,MacIntel,62.5,60170c926648b891f9e5742f,64d2fd46c836a06233681665,64dc7951ef2cefcca3133bf9,,,,,,,ctch,resources/DP.BMP,resources/DR.BMP,Door2,-0.165555556,0.003333333,1,0,0,1.946,optionLeft,40,5025,3,9,0,9,0,1,,,,,,,,,,,,,,,,,,,,,,,,,,,,,,,,,,,,,,,
,,,,,,,,2023-08-16_08h26.06.533,HF_wild_card,2022.2.4,MacIntel,62.5,60170c926648b891f9e5742f,64d2fd46c836a06233681665,64dc7951ef2cefcca3133bf9,,,,,,,decisionTrl,resources/DP.BMP,resources/DBN.BMP,Door1,0.3,0.038888889,1,0,0,1.447,optionRight,30,5055,3,10,0,10,0,1,,,,,,,,,,,,,,,,,,,,,,,,,,,,,,,,,,,,,,,
,,,,,,,,2023-08-16_08h26.06.533,HF_wild_card,2022.2.4,MacIntel,62.5,60170c926648b891f9e5742f,64d2fd46c836a06233681665,64dc7951ef2cefcca3133bf9,,,,,,,ctch,resources/DR.BMP,resources/DP.BMP,Door3,-0.135555556,-0.066666667,1,0,0,2.813,optionLeft,70,5125,3,11,0,11,0,1,,,,,,,,,,,,,,,,,,,,,,,,,,,,,,,,,,,,,,,
,,,,,,,,2023-08-16_08h26.06.533,HF_wild_card,2022.2.4,MacIntel,62.5,60170c926648b891f9e5742f,64d2fd46c836a06233681665,64dc7951ef2cefcca3133bf9,,,,,,,decisionTrl,resources/DBN.BMP,resources/DP.BMP,Door2,0.171111111,-0.043333333,1,0,0,1.796,optionRight,40,5165,3,12,0,12,0,1,,,,,,,,,,,,,,,,,,,,,,,,,,,,,,,,,,,,,,,
,,,,,,,,2023-08-16_08h26.06.533,HF_wild_card,2022.2.4,MacIntel,62.5,60170c926648b891f9e5742f,64d2fd46c836a06233681665,64dc7951ef2cefcca3133bf9,,,,,,,ctch,resources/DR.BMP,resources/DP.BMP,Door3,-0.163333333,0.004444444,1,0,0,2.646,optionLeft,70,5235,3,13,0,13,0,1,,,,,,,,,,,,,,,,,,,,,,,,,,,,,,,,,,,,,,,
,,,,,,,,2023-08-16_08h26.06.533,HF_wild_card,2022.2.4,MacIntel,62.5,60170c926648b891f9e5742f,64d2fd46c836a06233681665,64dc7951ef2cefcca3133bf9,,,,,,,sngl,resources/DY.BMP,resources/Empty.png,WildCard_NonEx,-0.162222222,0.007777778,1,0,0,0.961,optionLeft,55,5290,3,14,0,14,0,1,,,,,,,,,,,,,,,,,,,,,,,,,,,,,,,,,,,,,,,
,,,,,,,,2023-08-16_08h26.06.533,HF_wild_card,2022.2.4,MacIntel,62.5,60170c926648b891f9e5742f,64d2fd46c836a06233681665,64dc7951ef2cefcca3133bf9,,,,,,,decisionTrl,resources/DY.BMP,resources/DP.BMP,Door2,0.172222222,-0.021111111,1,0,0,2.878,optionRight,20,5310,3,15,0,15,0,1,,,,,,,,,,,,,,,,,,,,,,,,,,,,,,,,,,,,,,,
,,,,,,,,2023-08-16_08h26.06.533,HF_wild_card,2022.2.4,MacIntel,62.5,60170c926648b891f9e5742f,64d2fd46c836a06233681665,64dc7951ef2cefcca3133bf9,,,,,,,decisionTrl,resources/DP.BMP,resources/DBN.BMP,Door2,-0.146666667,0.014444444,1,0,0,2.147,optionLeft,20,5330,3,16,0,16,0,1,,,,,,,,,,,,,,,,,,,,,,,,,,,,,,,,,,,,,,,
,,,,,,,,2023-08-16_08h26.06.533,HF_wild_card,2022.2.4,MacIntel,62.5,60170c926648b891f9e5742f,64d2fd46c836a06233681665,64dc7951ef2cefcca3133bf9,,,,,,,ctch,resources/DBN.BMP,resources/DG.BMP,Door4,0.238888889,0.002222222,1,0,0,1.496,optionRight,80,5410,3,17,0,17,0,1,,,,,,,,,,,,,,,,,,,,,,,,,,,,,,,,,,,,,,,
,,,,,,,,2023-08-16_08h26.06.533,HF_wild_card,2022.2.4,MacIntel,62.5,60170c926648b891f9e5742f,64d2fd46c836a06233681665,64dc7951ef2cefcca3133bf9,,,,,,,decisionTrl,resources/DY.BMP,resources/DBN.BMP,WildCard_NonEx,-0.205555556,0.001111111,1,0,0,2.096,optionLeft,45,5455,3,18,0,18,0,1,,,,,,,,,,,,,,,,,,,,,,,,,,,,,,,,,,,,,,,
,,,,,,,,2023-08-16_08h26.06.533,HF_wild_card,2022.2.4,MacIntel,62.5,60170c926648b891f9e5742f,64d2fd46c836a06233681665,64dc7951ef2cefcca3133bf9,,,,,,,ctch,resources/DBN.BMP,resources/DG.BMP,Door4,0.223333333,0.037777778,1,0,0,1.83,optionRight,80,5535,3,19,0,19,0,1,,,,,,,,,,,,,,,,,,,,,,,,,,,,,,,,,,,,,,,
,,,,,,,,2023-08-16_08h26.06.533,HF_wild_card,2022.2.4,MacIntel,62.5,60170c926648b891f9e5742f,64d2fd46c836a06233681665,64dc7951ef2cefcca3133bf9,,,,,,,decisionTrl,resources/DP.BMP,resources/DY.BMP,Door2,-0.15,0.003333333,1,0,0,2.513,optionLeft,20,5555,3,20,0,20,0,1,,,,,,,,,,,,,,,,,,,,,,,,,,,,,,,,,,,,,,,
,,,,,,,,2023-08-16_08h26.06.533,HF_wild_card,2022.2.4,MacIntel,62.5,60170c926648b891f9e5742f,64d2fd46c836a06233681665,64dc7951ef2cefcca3133bf9,,,,,,,decisionTrl,resources/DG.BMP,resources/DY.BMP,Door4,-0.184444444,-0.014444444,1,0,0,2.147,optionLeft,60,5615,3,21,0,21,0,1,,,,,,,,,,,,,,,,,,,,,,,,,,,,,,,,,,,,,,,
,,,,,,,,2023-08-16_08h26.06.533,HF_wild_card,2022.2.4,MacIntel,62.5,60170c926648b891f9e5742f,64d2fd46c836a06233681665,64dc7951ef2cefcca3133bf9,,,,,,,decisionTrl,resources/DY.BMP,resources/DG.BMP,WildCard_NonEx,-0.122222222,-0.01,1,0,0,3.496,optionLeft,55,5670,3,22,0,22,0,1,,,,,,,,,,,,,,,,,,,,,,,,,,,,,,,,,,,,,,,
,,,,,,,,2023-08-16_08h26.06.533,HF_wild_card,2022.2.4,MacIntel,62.5,60170c926648b891f9e5742f,64d2fd46c836a06233681665,64dc7951ef2cefcca3133bf9,,,,,,,decisionTrl,resources/DP.BMP,resources/DBN.BMP,Door2,-0.163333333,0.005555556,1,0,0,1.463,optionLeft,20,5690,3,23,0,23,0,1,,,,,,,,,,,,,,,,,,,,,,,,,,,,,,,,,,,,,,,
,,,,,,,,2023-08-16_08h26.06.533,HF_wild_card,2022.2.4,MacIntel,62.5,60170c926648b891f9e5742f,64d2fd46c836a06233681665,64dc7951ef2cefcca3133bf9,,,,,,,sngl,resources/DR.BMP,resources/Empty.png,Door3,-0.198888889,0.007777778,1,0,0,1.028,optionLeft,70,5760,3,24,0,24,0,1,,,,,,,,,,,,,,,,,,,,,,,,,,,,,,,,,,,,,,,
,,,,,,,,2023-08-16_08h26.06.533,HF_wild_card,2022.2.4,MacIntel,62.5,60170c926648b891f9e5742f,64d2fd46c836a06233681665,64dc7951ef2cefcca3133bf9,,,,,,,decisionTrl,resources/DG.BMP,resources/DR.BMP,Door3,0.182222222,-0.002222222,1,0,0,1.514,optionRight,70,5830,3,25,0,25,0,1,,,,,,,,,,,,,,,,,,,,,,,,,,,,,,,,,,,,,,,
,,,,,,,,2023-08-16_08h26.06.533,HF_wild_card,2022.2.4,MacIntel,62.5,60170c926648b891f9e5742f,64d2fd46c836a06233681665,64dc7951ef2cefcca3133bf9,,,,,,,decisionTrl,resources/DY.BMP,resources/DR.BMP,WildCard_NonEx,-0.16,0.02,1,0,0,1.479,optionLeft,45,5875,3,26,0,26,0,1,,,,,,,,,,,,,,,,,,,,,,,,,,,,,,,,,,,,,,,
,,,,,,,,2023-08-16_08h26.06.533,HF_wild_card,2022.2.4,MacIntel,62.5,60170c926648b891f9e5742f,64d2fd46c836a06233681665,64dc7951ef2cefcca3133bf9,,,,,,,sngl,resources/Empty.png,resources/DP.BMP,Door2,0.142222222,-0.018888889,1,0,0,0.963,optionRight,20,5895,3,27,0,27,0,1,,,,,,,,,,,,,,,,,,,,,,,,,,,,,,,,,,,,,,,
,,,,,,,,2023-08-16_08h26.06.533,HF_wild_card,2022.2.4,MacIntel,62.5,60170c926648b891f9e5742f,64d2fd46c836a06233681665,64dc7951ef2cefcca3133bf9,,,,,,,sngl,resources/Empty.png,resources/DY.BMP,WildCard_NonEx,0.153333333,-0.008888889,1,0,0,1.313,optionRight,55,5950,3,28,0,28,0,1,,,,,,,,,,,,,,,,,,,,,,,,,,,,,,,,,,,,,,,
,,,,,,,,2023-08-16_08h26.06.533,HF_wild_card,2022.2.4,MacIntel,62.5,60170c926648b891f9e5742f,64d2fd46c836a06233681665,64dc7951ef2cefcca3133bf9,,,,,,,decisionTrl,resources/DBN.BMP,resources/DP.BMP,Door1,-0.182222222,0.011111111,1,0,0,2.112,optionLeft,30,5980,3,29,0,29,0,1,,,,,,,,,,,,,,,,,,,,,,,,,,,,,,,,,,,,,,,
,,,,,,,,2023-08-16_08h26.06.533,HF_wild_card,2022.2.4,MacIntel,62.5,60170c926648b891f9e5742f,64d2fd46c836a06233681665,64dc7951ef2cefcca3133bf9,,,,,,,decisionTrl,resources/DBN.BMP,resources/DP.BMP,Door1,-0.178888889,0.005555556,1,0,0,1.547,optionLeft,30,6010,3,30,0,30,0,1,,,,,,,,,,,,,,,,,,,,,,,,,,,,,,,,,,,,,,,
,,,,,,,,2023-08-16_08h26.06.533,HF_wild_card,2022.2.4,MacIntel,62.5,60170c926648b891f9e5742f,64d2fd46c836a06233681665,64dc7951ef2cefcca3133bf9,,,,,,,decisionTrl,resources/DBN.BMP,resources/DY.BMP,WildCard_NonEx,0.168888889,0.024444444,1,0,0,1.947,optionRight,55,6065,3,31,0,31,0,1,,,,,,,,,,,,,,,,,,,,,,,,,,,,,,,,,,,,,,,
,,,,,,,,2023-08-16_08h26.06.533,HF_wild_card,2022.2.4,MacIntel,62.5,60170c926648b891f9e5742f,64d2fd46c836a06233681665,64dc7951ef2cefcca3133bf9,,,,,,,sngl,resources/DBN.BMP,resources/Empty.png,Door1,-0.202222222,0.003333333,1,0,0,1.046,optionLeft,30,6095,3,32,0,32,0,1,,,,,,,,,,,,,,,,,,,,,,,,,,,,,,,,,,,,,,,
,,,,,,,,2023-08-16_08h26.06.533,HF_wild_card,2022.2.4,MacIntel,62.5,60170c926648b891f9e5742f,64d2fd46c836a06233681665,64dc7951ef2cefcca3133bf9,,,,,,,sngl,resources/DP.BMP,resources/Empty.png,Door2,-0.227777778,0.001111111,1,0,0,1.03,optionLeft,40,6135,3,33,0,33,0,1,,,,,,,,,,,,,,,,,,,,,,,,,,,,,,,,,,,,,,,
,,,,,,,,2023-08-16_08h26.06.533,HF_wild_card,2022.2.4,MacIntel,62.5,60170c926648b891f9e5742f,64d2fd46c836a06233681665,64dc7951ef2cefcca3133bf9,,,,,,,sngl,resources/DY.BMP,resources/Empty.png,WildCard_NonEx,-0.362222222,-0.016666667,1,0,0,2.277,optionLeft,45,6180,3,34,0,34,0,1,,,,,,,,,,,,,,,,,,,,,,,,,,,,,,,,,,,,,,,
,,,,,,,,2023-08-16_08h26.06.533,HF_wild_card,2022.2.4,MacIntel,62.5,60170c926648b891f9e5742f,64d2fd46c836a06233681665,64dc7951ef2cefcca3133bf9,,,,,,,ctch,resources/DG.BMP,resources/DBN.BMP,Door4,-0.346666667,-0.006666667,1,0,0,1.745,optionLeft,80,6260,3,35,0,35,0,1,,,,,,,,,,,,,,,,,,,,,,,,,,,,,,,,,,,,,,,
,,,,,,,,2023-08-16_08h26.06.533,HF_wild_card,2022.2.4,MacIntel,62.5,60170c926648b891f9e5742f,64d2fd46c836a06233681665,64dc7951ef2cefcca3133bf9,,,,,,,sngl,resources/Empty.png,resources/DG.BMP,Door4,0.411111111,-0.032222222,1,0,0,1.162,optionRight,60,6320,3,36,0,36,0,1,,,,,,,,,,,,,,,,,,,,,,,,,,,,,,,,,,,,,,,
,,,,,,,,2023-08-16_08h26.06.533,HF_wild_card,2022.2.4,MacIntel,62.5,60170c926648b891f9e5742f,64d2fd46c836a06233681665,64dc7951ef2cefcca3133bf9,,,,,,,decisionTrl,resources/DP.BMP,resources/DBN.BMP,Door1,0.186666667,0.037777778,1,0,0,2.145,optionRight,30,6350,3,37,0,37,0,1,,,,,,,,,,,,,,,,,,,,,,,,,,,,,,,,,,,,,,,
,,,,,,,,2023-08-16_08h26.06.533,HF_wild_card,2022.2.4,MacIntel,62.5,60170c926648b891f9e5742f,64d2fd46c836a06233681665,64dc7951ef2cefcca3133bf9,,,,,,,decisionTrl,resources/DR.BMP,resources/DY.BMP,Door3,-0.148888889,0.01,1,0,0,1.661,optionLeft,70,6420,3,38,0,38,0,1,,,,,,,,,,,,,,,,,,,,,,,,,,,,,,,,,,,,,,,
,,,,,,,,2023-08-16_08h26.06.533,HF_wild_card,2022.2.4,MacIntel,62.5,60170c926648b891f9e5742f,64d2fd46c836a06233681665,64dc7951ef2cefcca3133bf9,,,,,,,sngl,resources/Empty.png,resources/DY.BMP,WildCard_NonEx,0.174444444,0.008888889,1,0,0,0.946,optionRight,45,6465,3,39,0,39,0,1,,,,,,,,,,,,,,,,,,,,,,,,,,,,,,,,,,,,,,,
,,,,,,,,2023-08-16_08h26.06.533,HF_wild_card,2022.2.4,MacIntel,62.5,60170c926648b891f9e5742f,64d2fd46c836a06233681665,64dc7951ef2cefcca3133bf9,,,,,,,decisionTrl,resources/DR.BMP,resources/DG.BMP,Door3,-0.2,0.002222222,1,0,0,1.146,optionLeft,70,6535,3,40,0,40,0,1,,,,,,,,,,,,,,,,,,,,,,,,,,,,,,,,,,,,,,,
,,,,,,,,2023-08-16_08h26.06.533,HF_wild_card,2022.2.4,MacIntel,62.5,60170c926648b891f9e5742f,64d2fd46c836a06233681665,64dc7951ef2cefcca3133bf9,,,,,,,decisionTrl,resources/DG.BMP,resources/DR.BMP,Door3,0.18,0.036666667,1,0,0,1.545,optionRight,70,6605,3,41,0,41,0,1,,,,,,,,,,,,,,,,,,,,,,,,,,,,,,,,,,,,,,,
,,,,,,,,2023-08-16_08h26.06.533,HF_wild_card,2022.2.4,MacIntel,62.5,60170c926648b891f9e5742f,64d2fd46c836a06233681665,64dc7951ef2cefcca3133bf9,,,,,,,ctch,resources/DP.BMP,resources/DR.BMP,Door3,0.208888889,0.018888889,1,0,0,1.778,optionRight,70,6675,3,42,0,42,0,1,,,,,,,,,,,,,,,,,,,,,,,,,,,,,,,,,,,,,,,
,,,,,,,,2023-08-16_08h26.06.533,HF_wild_card,2022.2.4,MacIntel,62.5,60170c926648b891f9e5742f,64d2fd46c836a06233681665,64dc7951ef2cefcca3133bf9,,,,,,,decisionTrl,resources/DG.BMP,resources/DR.BMP,Door3,0.26,0.027777778,1,0,0,1.146,optionRight,70,6745,3,43,0,43,0,1,,,,,,,,,,,,,,,,,,,,,,,,,,,,,,,,,,,,,,,
,,,,,,,,2023-08-16_08h26.06.533,HF_wild_card,2022.2.4,MacIntel,62.5,60170c926648b891f9e5742f,64d2fd46c836a06233681665,64dc7951ef2cefcca3133bf9,,,,,,,,,,,,,,,,,,,,,,,,,,2,0,2,0,1,,,,,,,,,,,,,,,,,,,,,,,,,,,,,,,,,,
,,,,,,,,2023-08-16_08h26.06.533,HF_wild_card,2022.2.4,MacIntel,62.5,60170c926648b891f9e5742f,64d2fd46c836a06233681665,64dc7951ef2cefcca3133bf9,,,,,,,decisionTrl,resources/DP.BMP,resources/DBN.BMP,Door1,0.172222222,-0.085555556,1,0,0,2.191,optionRight,30,6775,4,0,0,0,0,1,,,,,,,,,,,,,,,,,,,,,,,,,,,,,,,,,,,,,,,
,,,,,,,,2023-08-16_08h26.06.533,HF_wild_card,2022.2.4,MacIntel,62.5,60170c926648b891f9e5742f,64d2fd46c836a06233681665,64dc7951ef2cefcca3133bf9,,,,,,,sngl,resources/Empty.png,resources/DBN.BMP,Door1,0.17,0.031111111,1,0,0,1.08,optionRight,30,6805,4,1,0,1,0,1,,,,,,,,,,,,,,,,,,,,,,,,,,,,,,,,,,,,,,,
,,,,,,,,2023-08-16_08h26.06.533,HF_wild_card,2022.2.4,MacIntel,62.5,60170c926648b891f9e5742f,64d2fd46c836a06233681665,64dc7951ef2cefcca3133bf9,,,,,,,decisionTrl,resources/DG.BMP,resources/DR.BMP,Door4,-0.122222222,0.047777778,1,0,0,3.045,optionLeft,60,6865,4,2,0,2,0,1,,,,,,,,,,,,,,,,,,,,,,,,,,,,,,,,,,,,,,,
,,,,,,,,2023-08-16_08h26.06.533,HF_wild_card,2022.2.4,MacIntel,62.5,60170c926648b891f9e5742f,64d2fd46c836a06233681665,64dc7951ef2cefcca3133bf9,,,,,,,ctch,resources/DBN.BMP,resources/DG.BMP,Door4,0.154444444,0.032222222,0,0,1,1.546,optionRight,60,6925,4,3,0,3,0,1,,,,,,,,,,,,,,,,,,,,,,,,,,,,,,,,,,,,,,,
,,,,,,,,2023-08-16_08h26.06.533,HF_wild_card,2022.2.4,MacIntel,62.5,60170c926648b891f9e5742f,64d2fd46c836a06233681665,64dc7951ef2cefcca3133bf9,,,,,,,decisionTrl,resources/DP.BMP,resources/DBN.BMP,Door1,-0.008888889,-0.003333333,0,0,1,0.128,optionRight,30,6955,4,4,0,4,0,1,,,,,,,,,,,,,,,,,,,,,,,,,,,,,,,,,,,,,,,
,,,,,,,,2023-08-16_08h26.06.533,HF_wild_card,2022.2.4,MacIntel,62.5,60170c926648b891f9e5742f,64d2fd46c836a06233681665,64dc7951ef2cefcca3133bf9,,,,,,,decisionTrl,resources/DB.BMP,resources/DBN.BMP,WildCard_Ex,0.003333333,0.003333333,0,0,1,0.129,optionLeft,55,7010,4,5,0,5,0,1,,,,,,,,,,,,,,,,,,,,,,,,,,,,,,,,,,,,,,,
,,,,,,,,2023-08-16_08h26.06.533,HF_wild_card,2022.2.4,MacIntel,62.5,60170c926648b891f9e5742f,64d2fd46c836a06233681665,64dc7951ef2cefcca3133bf9,,,,,,,decisionTrl,resources/DG.BMP,resources/DB.BMP,Door4,0.007777778,0.002222222,0,0,1,0.128,optionLeft,60,7070,4,6,0,6,0,1,,,,,,,,,,,,,,,,,,,,,,,,,,,,,,,,,,,,,,,
,,,,,,,,2023-08-16_08h26.06.533,HF_wild_card,2022.2.4,MacIntel,62.5,60170c926648b891f9e5742f,64d2fd46c836a06233681665,64dc7951ef2cefcca3133bf9,,,,,,,decisionTrl,resources/DBN.BMP,resources/DP.BMP,Door1,0.007777778,0.001111111,0,0,1,0.096,optionLeft,30,7100,4,7,0,7,0,1,,,,,,,,,,,,,,,,,,,,,,,,,,,,,,,,,,,,,,,
,,,,,,,,2023-08-16_08h26.06.533,HF_wild_card,2022.2.4,MacIntel,62.5,60170c926648b891f9e5742f,64d2fd46c836a06233681665,64dc7951ef2cefcca3133bf9,,,,,,,sngl,resources/DBN.BMP,resources/Empty.png,Door1,-0.011111111,0.006666667,0,0,1,0.095,optionLeft,30,7130,4,8,0,8,0,1,,,,,,,,,,,,,,,,,,,,,,,,,,,,,,,,,,,,,,,
,,,,,,,,2023-08-16_08h26.06.533,HF_wild_card,2022.2.4,MacIntel,62.5,60170c926648b891f9e5742f,64d2fd46c836a06233681665,64dc7951ef2cefcca3133bf9,,,,,,,decisionTrl,resources/DG.BMP,resources/DR.BMP,Door4,-0.003333333,-0.02,0,0,1,0.113,optionLeft,60,7190,4,9,0,9,0,1,,,,,,,,,,,,,,,,,,,,,,,,,,,,,,,,,,,,,,,
,,,,,,,,2023-08-16_08h26.06.533,HF_wild_card,2022.2.4,MacIntel,62.5,60170c926648b891f9e5742f,64d2fd46c836a06233681665,64dc7951ef2cefcca3133bf9,,,,,,,decisionTrl,resources/DG.BMP,resources/DR.BMP,Door3,0.005555556,-0.005555556,0,0,1,0.113,optionRight,70,7260,4,10,0,10,0,1,,,,,,,,,,,,,,,,,,,,,,,,,,,,,,,,,,,,,,,
,,,,,,,,2023-08-16_08h26.06.533,HF_wild_card,2022.2.4,MacIntel,62.5,60170c926648b891f9e5742f,64d2fd46c836a06233681665,64dc7951ef2cefcca3133bf9,,,,,,,decisionTrl,resources/DB.BMP,resources/DP.BMP,WildCard_Ex,0.001111111,0.003333333,0,0,1,0.095,optionLeft,45,7305,4,11,0,11,0,1,,,,,,,,,,,,,,,,,,,,,,,,,,,,,,,,,,,,,,,
,,,,,,,,2023-08-16_08h26.06.533,HF_wild_card,2022.2.4,MacIntel,62.5,60170c926648b891f9e5742f,64d2fd46c836a06233681665,64dc7951ef2cefcca3133bf9,,,,,,,ctch,resources/DP.BMP,resources/DR.BMP,Door3,0.007777778,-0.003333333,0,0,1,0.113,optionRight,70,7375,4,12,0,12,0,1,,,,,,,,,,,,,,,,,,,,,,,,,,,,,,,,,,,,,,,
,,,,,,,,2023-08-16_08h26.06.533,HF_wild_card,2022.2.4,MacIntel,62.5,60170c926648b891f9e5742f,64d2fd46c836a06233681665,64dc7951ef2cefcca3133bf9,,,,,,,decisionTrl,resources/DBN.BMP,resources/DB.BMP,WildCard_Ex,-0.014444444,-0.004444444,0,0,1,0.112,optionRight,45,7420,4,13,0,13,0,1,,,,,,,,,,,,,,,,,,,,,,,,,,,,,,,,,,,,,,,
,,,,,,,,2023-08-16_08h26.06.533,HF_wild_card,2022.2.4,MacIntel,62.5,60170c926648b891f9e5742f,64d2fd46c836a06233681665,64dc7951ef2cefcca3133bf9,,,,,,,decisionTrl,resources/DG.BMP,resources/DR.BMP,Door3,0,0.002222222,0,0,1,0.08,optionRight,70,7490,4,14,0,14,0,1,,,,,,,,,,,,,,,,,,,,,,,,,,,,,,,,,,,,,,,
,,,,,,,,2023-08-16_08h26.06.533,HF_wild_card,2022.2.4,MacIntel,62.5,60170c926648b891f9e5742f,64d2fd46c836a06233681665,64dc7951ef2cefcca3133bf9,,,,,,,decisionTrl,resources/DR.BMP,resources/DG.BMP,Door3,0.016666667,0.006666667,0,0,1,0.096,optionLeft,70,7560,4,15,0,15,0,1,,,,,,,,,,,,,,,,,,,,,,,,,,,,,,,,,,,,,,,
,,,,,,,,2023-08-16_08h26.06.533,HF_wild_card,2022.2.4,MacIntel,62.5,60170c926648b891f9e5742f,64d2fd46c836a06233681665,64dc7951ef2cefcca3133bf9,,,,,,,sngl,resources/Empty.png,resources/DB.BMP,WildCard_Ex,0.002222222,0.012222222,0,0,1,0.078,optionRight,45,7605,4,16,0,16,0,1,,,,,,,,,,,,,,,,,,,,,,,,,,,,,,,,,,,,,,,
,,,,,,,,2023-08-16_08h26.06.533,HF_wild_card,2022.2.4,MacIntel,62.5,60170c926648b891f9e5742f,64d2fd46c836a06233681665,64dc7951ef2cefcca3133bf9,,,,,,,ctch,resources/DR.BMP,resources/DP.BMP,Door3,0.01,-0.003333333,0,0,1,0.13,optionLeft,70,7675,4,17,0,17,0,1,,,,,,,,,,,,,,,,,,,,,,,,,,,,,,,,,,,,,,,
,,,,,,,,2023-08-16_08h26.06.533,HF_wild_card,2022.2.4,MacIntel,62.5,60170c926648b891f9e5742f,64d2fd46c836a06233681665,64dc7951ef2cefcca3133bf9,,,,,,,decisionTrl,resources/DP.BMP,resources/DB.BMP,WildCard_Ex,-0.008888889,0,0,0,1,0.078,optionRight,55,7730,4,18,0,18,0,1,,,,,,,,,,,,,,,,,,,,,,,,,,,,,,,,,,,,,,,
,,,,,,,,2023-08-16_08h26.06.533,HF_wild_card,2022.2.4,MacIntel,62.5,60170c926648b891f9e5742f,64d2fd46c836a06233681665,64dc7951ef2cefcca3133bf9,,,,,,,decisionTrl,resources/DR.BMP,resources/DG.BMP,Door3,0.004444444,-0.003333333,0,0,1,0.112,optionLeft,70,7800,4,19,0,19,0,1,,,,,,,,,,,,,,,,,,,,,,,,,,,,,,,,,,,,,,,
,,,,,,,,2023-08-16_08h26.06.533,HF_wild_card,2022.2.4,MacIntel,62.5,60170c926648b891f9e5742f,64d2fd46c836a06233681665,64dc7951ef2cefcca3133bf9,,,,,,,ctch,resources/DG.BMP,resources/DBN.BMP,Door4,0.015555556,-0.004444444,0,0,1,0.062,optionLeft,80,7880,4,20,0,20,0,1,,,,,,,,,,,,,,,,,,,,,,,,,,,,,,,,,,,,,,,
,,,,,,,,2023-08-16_08h26.06.533,HF_wild_card,2022.2.4,MacIntel,62.5,60170c926648b891f9e5742f,64d2fd46c836a06233681665,64dc7951ef2cefcca3133bf9,,,,,,,ctch,resources/DBN.BMP,resources/DG.BMP,Door4,-0.001111111,-0.006666667,0,0,1,0.061,optionRight,80,7960,4,21,0,21,0,1,,,,,,,,,,,,,,,,,,,,,,,,,,,,,,,,,,,,,,,
,,,,,,,,2023-08-16_08h26.06.533,HF_wild_card,2022.2.4,MacIntel,62.5,60170c926648b891f9e5742f,64d2fd46c836a06233681665,64dc7951ef2cefcca3133bf9,,,,,,,sngl,resources/DB.BMP,resources/Empty.png,WildCard_Ex,0.007777778,0.002222222,0,0,1,0.079,optionLeft,55,8015,4,22,0,22,0,1,,,,,,,,,,,,,,,,,,,,,,,,,,,,,,,,,,,,,,,
,,,,,,,,2023-08-16_08h26.06.533,HF_wild_card,2022.2.4,MacIntel,62.5,60170c926648b891f9e5742f,64d2fd46c836a06233681665,64dc7951ef2cefcca3133bf9,,,,,,,ctch,resources/DR.BMP,resources/DP.BMP,Door3,0.004444444,-0.001111111,0,0,1,0.128,optionLeft,70,8085,4,23,0,23,0,1,,,,,,,,,,,,,,,,,,,,,,,,,,,,,,,,,,,,,,,
,,,,,,,,2023-08-16_08h26.06.533,HF_wild_card,2022.2.4,MacIntel,62.5,60170c926648b891f9e5742f,64d2fd46c836a06233681665,64dc7951ef2cefcca3133bf9,,,,,,,decisionTrl,resources/DP.BMP,resources/DBN.BMP,Door2,0,-0.001111111,0,0,1,0.096,optionLeft,40,8125,4,24,0,24,0,1,,,,,,,,,,,,,,,,,,,,,,,,,,,,,,,,,,,,,,,
,,,,,,,,2023-08-16_08h26.06.533,HF_wild_card,2022.2.4,MacIntel,62.5,60170c926648b891f9e5742f,64d2fd46c836a06233681665,64dc7951ef2cefcca3133bf9,,,,,,,decisionTrl,resources/DBN.BMP,resources/DP.BMP,Door2,0.005555556,-0.003333333,0,0,1,0.113,optionRight,20,8145,4,25,0,25,0,1,,,,,,,,,,,,,,,,,,,,,,,,,,,,,,,,,,,,,,,
,,,,,,,,2023-08-16_08h26.06.533,HF_wild_card,2022.2.4,MacIntel,62.5,60170c926648b891f9e5742f,64d2fd46c836a06233681665,64dc7951ef2cefcca3133bf9,,,,,,,decisionTrl,resources/DB.BMP,resources/DR.BMP,Door3,0.01,0.003333333,0,0,1,0.062,optionRight,70,8215,4,26,0,26,0,1,,,,,,,,,,,,,,,,,,,,,,,,,,,,,,,,,,,,,,,
,,,,,,,,2023-08-16_08h26.06.533,HF_wild_card,2022.2.4,MacIntel,62.5,60170c926648b891f9e5742f,64d2fd46c836a06233681665,64dc7951ef2cefcca3133bf9,,,,,,,sngl,resources/DR.BMP,resources/Empty.png,Door3,-0.001111111,-0.007777778,0,0,1,0.096,optionLeft,70,8285,4,27,0,27,0,1,,,,,,,,,,,,,,,,,,,,,,,,,,,,,,,,,,,,,,,
,,,,,,,,2023-08-16_08h26.06.533,HF_wild_card,2022.2.4,MacIntel,62.5,60170c926648b891f9e5742f,64d2fd46c836a06233681665,64dc7951ef2cefcca3133bf9,,,,,,,sngl,resources/Empty.png,resources/DR.BMP,Door3,-0.004444444,-0.01,0,0,1,0.112,optionRight,70,8355,4,28,0,28,0,1,,,,,,,,,,,,,,,,,,,,,,,,,,,,,,,,,,,,,,,
,,,,,,,,2023-08-16_08h26.06.533,HF_wild_card,2022.2.4,MacIntel,62.5,60170c926648b891f9e5742f,64d2fd46c836a06233681665,64dc7951ef2cefcca3133bf9,,,,,,,ctch,resources/DG.BMP,resources/DBN.BMP,Door4,-0.006666667,-0.003333333,0,0,1,0.112,optionLeft,60,8415,4,29,0,29,0,1,,,,,,,,,,,,,,,,,,,,,,,,,,,,,,,,,,,,,,,
,,,,,,,,2023-08-16_08h26.06.533,HF_wild_card,2022.2.4,MacIntel,62.5,60170c926648b891f9e5742f,64d2fd46c836a06233681665,64dc7951ef2cefcca3133bf9,,,,,,,sngl,resources/DB.BMP,resources/Empty.png,WildCard_Ex,0.008888889,-0.006666667,0,0,1,0.079,optionLeft,45,8460,4,30,0,30,0,1,,,,,,,,,,,,,,,,,,,,,,,,,,,,,,,,,,,,,,,
,,,,,,,,2023-08-16_08h26.06.533,HF_wild_card,2022.2.4,MacIntel,62.5,60170c926648b891f9e5742f,64d2fd46c836a06233681665,64dc7951ef2cefcca3133bf9,,,,,,,decisionTrl,resources/DBN.BMP,resources/DP.BMP,Door2,0.001111111,-0.002222222,0,0,1,0.062,optionRight,20,8480,4,31,0,31,0,1,,,,,,,,,,,,,,,,,,,,,,,,,,,,,,,,,,,,,,,
,,,,,,,,2023-08-16_08h26.06.533,HF_wild_card,2022.2.4,MacIntel,62.5,60170c926648b891f9e5742f,64d2fd46c836a06233681665,64dc7951ef2cefcca3133bf9,,,,,,,sngl,resources/Empty.png,resources/DG.BMP,Door4,-0.005555556,-0.003333333,0,0,1,0.112,optionRight,80,8560,4,32,0,32,0,1,,,,,,,,,,,,,,,,,,,,,,,,,,,,,,,,,,,,,,,
,,,,,,,,2023-08-16_08h26.06.533,HF_wild_card,2022.2.4,MacIntel,62.5,60170c926648b891f9e5742f,64d2fd46c836a06233681665,64dc7951ef2cefcca3133bf9,,,,,,,sngl,resources/DG.BMP,resources/Empty.png,Door4,-0.001111111,0,0,0,1,0.08,optionLeft,60,8620,4,33,0,33,0,1,,,,,,,,,,,,,,,,,,,,,,,,,,,,,,,,,,,,,,,
,,,,,,,,2023-08-16_08h26.06.533,HF_wild_card,2022.2.4,MacIntel,62.5,60170c926648b891f9e5742f,64d2fd46c836a06233681665,64dc7951ef2cefcca3133bf9,,,,,,,decisionTrl,resources/DP.BMP,resources/DBN.BMP,Door2,0,-0.001111111,0,0,1,0.112,optionLeft,40,8660,4,34,0,34,0,1,,,,,,,,,,,,,,,,,,,,,,,,,,,,,,,,,,,,,,,
,,,,,,,,2023-08-16_08h26.06.533,HF_wild_card,2022.2.4,MacIntel,62.5,60170c926648b891f9e5742f,64d2fd46c836a06233681665,64dc7951ef2cefcca3133bf9,,,,,,,sngl,resources/DP.BMP,resources/Empty.png,Door2,0.004444444,-0.001111111,0,0,1,0.113,optionLeft,20,8680,4,35,0,35,0,1,,,,,,,,,,,,,,,,,,,,,,,,,,,,,,,,,,,,,,,
,,,,,,,,2023-08-16_08h26.06.533,HF_wild_card,2022.2.4,MacIntel,62.5,60170c926648b891f9e5742f,64d2fd46c836a06233681665,64dc7951ef2cefcca3133bf9,,,,,,,decisionTrl,resources/DR.BMP,resources/DB.BMP,Door3,-0.004444444,-0.006666667,0,0,1,0.146,optionLeft,70,8750,4,36,0,36,0,1,,,,,,,,,,,,,,,,,,,,,,,,,,,,,,,,,,,,,,,
,,,,,,,,2023-08-16_08h26.06.533,HF_wild_card,2022.2.4,MacIntel,62.5,60170c926648b891f9e5742f,64d2fd46c836a06233681665,64dc7951ef2cefcca3133bf9,,,,,,,decisionTrl,resources/DBN.BMP,resources/DP.BMP,Door1,0.001111111,-0.006666667,0,0,1,0.111,optionLeft,30,8780,4,37,0,37,0,1,,,,,,,,,,,,,,,,,,,,,,,,,,,,,,,,,,,,,,,
,,,,,,,,2023-08-16_08h26.06.533,HF_wild_card,2022.2.4,MacIntel,62.5,60170c926648b891f9e5742f,64d2fd46c836a06233681665,64dc7951ef2cefcca3133bf9,,,,,,,sngl,resources/Empty.png,resources/DP.BMP,Door2,-0.016666667,-0.001111111,0,0,1,0.111,optionRight,40,8820,4,38,0,38,0,1,,,,,,,,,,,,,,,,,,,,,,,,,,,,,,,,,,,,,,,
,,,,,,,,2023-08-16_08h26.06.533,HF_wild_card,2022.2.4,MacIntel,62.5,60170c926648b891f9e5742f,64d2fd46c836a06233681665,64dc7951ef2cefcca3133bf9,,,,,,,decisionTrl,resources/DR.BMP,resources/DG.BMP,Door3,0.002222222,-0.011111111,0,0,1,0.127,optionLeft,70,8890,4,39,0,39,0,1,,,,,,,,,,,,,,,,,,,,,,,,,,,,,,,,,,,,,,,
,,,,,,,,2023-08-16_08h26.06.533,HF_wild_card,2022.2.4,MacIntel,62.5,60170c926648b891f9e5742f,64d2fd46c836a06233681665,64dc7951ef2cefcca3133bf9,,,,,,,ctch,resources/DP.BMP,resources/DR.BMP,Door3,0,-0.002222222,0,0,1,0.095,optionRight,70,8960,4,40,0,40,0,1,,,,,,,,,,,,,,,,,,,,,,,,,,,,,,,,,,,,,,,
,,,,,,,,2023-08-16_08h26.06.533,HF_wild_card,2022.2.4,MacIntel,62.5,60170c926648b891f9e5742f,64d2fd46c836a06233681665,64dc7951ef2cefcca3133bf9,,,,,,,decisionTrl,resources/DR.BMP,resources/DG.BMP,Door4,0,-0.004444444,0,0,1,0.113,optionRight,60,9020,4,41,0,41,0,1,,,,,,,,,,,,,,,,,,,,,,,,,,,,,,,,,,,,,,,
,,,,,,,,2023-08-16_08h26.06.533,HF_wild_card,2022.2.4,MacIntel,62.5,60170c926648b891f9e5742f,64d2fd46c836a06233681665,64dc7951ef2cefcca3133bf9,,,,,,,decisionTrl,resources/DB.BMP,resources/DG.BMP,Door4,0.001111111,-0.006666667,0,0,1,0.113,optionRight,60,9080,4,42,0,42,0,1,,,,,,,,,,,,,,,,,,,,,,,,,,,,,,,,,,,,,,,
,,,,,,,,2023-08-16_08h26.06.533,HF_wild_card,2022.2.4,MacIntel,62.5,60170c926648b891f9e5742f,64d2fd46c836a06233681665,64dc7951ef2cefcca3133bf9,,,,,,,sngl,resources/Empty.png,resources/DB.BMP,WildCard_Ex,0.013333333,0.004444444,0,0,1,0.145,optionRight,55,9135,4,43,0,43,0,1,,,,,,,,,,,,,,,,,,,,,,,,,,,,,,,,,,,,,,,
,,,,,,,,2023-08-16_08h26.06.533,HF_wild_card,2022.2.4,MacIntel,62.5,60170c926648b891f9e5742f,64d2fd46c836a06233681665,64dc7951ef2cefcca3133bf9,,,,,,,,,,,,,,,,,,,,,,,,,,3,0,3,0,1,,,,,,,,,,,,,,,,,,,,,,,,,,,,,,,,,,
,,,,,,,,2023-08-16_08h26.06.533,HF_wild_card,2022.2.4,MacIntel,62.5,60170c926648b891f9e5742f,64d2fd46c836a06233681665,64dc7951ef2cefcca3133bf9,,,,,,,ctch,resources/DBN.BMP,resources/DG.BMP,Door4,-0.007777778,-0.293333333,0,0,1,0.077,optionRight,80,9215,5,0,0,0,0,1,,,,,,,,,,,,,,,,,,,,,,,,,,,,,,,,,,,,,,,
,,,,,,,,2023-08-16_08h26.06.533,HF_wild_card,2022.2.4,MacIntel,62.5,60170c926648b891f9e5742f,64d2fd46c836a06233681665,64dc7951ef2cefcca3133bf9,,,,,,,decisionTrl,resources/DG.BMP,resources/DR.BMP,Door4,-0.002222222,0.003333333,0,0,1,0.112,optionLeft,60,9275,5,1,0,1,0,1,,,,,,,,,,,,,,,,,,,,,,,,,,,,,,,,,,,,,,,
,,,,,,,,2023-08-16_08h26.06.533,HF_wild_card,2022.2.4,MacIntel,62.5,60170c926648b891f9e5742f,64d2fd46c836a06233681665,64dc7951ef2cefcca3133bf9,,,,,,,sngl,resources/DP.BMP,resources/Empty.png,Door2,0,0.005555556,0,0,1,0.095,optionLeft,40,9315,5,2,0,2,0,1,,,,,,,,,,,,,,,,,,,,,,,,,,,,,,,,,,,,,,,
,,,,,,,,2023-08-16_08h26.06.533,HF_wild_card,2022.2.4,MacIntel,62.5,60170c926648b891f9e5742f,64d2fd46c836a06233681665,64dc7951ef2cefcca3133bf9,,,,,,,decisionTrl,resources/DG.BMP,resources/DR.BMP,Door3,0.013333333,-0.007777778,0,0,1,0.062,optionRight,70,9385,5,3,0,3,0,1,,,,,,,,,,,,,,,,,,,,,,,,,,,,,,,,,,,,,,,
,,,,,,,,2023-08-16_08h26.06.533,HF_wild_card,2022.2.4,MacIntel,62.5,60170c926648b891f9e5742f,64d2fd46c836a06233681665,64dc7951ef2cefcca3133bf9,,,,,,,decisionTrl,resources/DG.BMP,resources/DR.BMP,Door4,0.014444444,-0.003333333,0,0,1,0.112,optionLeft,80,9465,5,4,0,4,0,1,,,,,,,,,,,,,,,,,,,,,,,,,,,,,,,,,,,,,,,
,,,,,,,,2023-08-16_08h26.06.533,HF_wild_card,2022.2.4,MacIntel,62.5,60170c926648b891f9e5742f,64d2fd46c836a06233681665,64dc7951ef2cefcca3133bf9,,,,,,,decisionTrl,resources/DG.BMP,resources/DR.BMP,Door4,-0.003333333,-0.002222222,0,0,1,0.111,optionLeft,60,9525,5,5,0,5,0,1,,,,,,,,,,,,,,,,,,,,,,,,,,,,,,,,,,,,,,,
,,,,,,,,2023-08-16_08h26.06.533,HF_wild_card,2022.2.4,MacIntel,62.5,60170c926648b891f9e5742f,64d2fd46c836a06233681665,64dc7951ef2cefcca3133bf9,,,,,,,sngl,resources/DB.BMP,resources/Empty.png,WildCard_Ex,0.012222222,-0.002222222,0,0,1,0.13,optionLeft,55,9580,5,6,0,6,0,1,,,,,,,,,,,,,,,,,,,,,,,,,,,,,,,,,,,,,,,
,,,,,,,,2023-08-16_08h26.06.533,HF_wild_card,2022.2.4,MacIntel,62.5,60170c926648b891f9e5742f,64d2fd46c836a06233681665,64dc7951ef2cefcca3133bf9,,,,,,,decisionTrl,resources/DR.BMP,resources/DB.BMP,Door3,0.011111111,-0.005555556,0,0,1,0.145,optionLeft,70,9650,5,7,0,7,0,1,,,,,,,,,,,,,,,,,,,,,,,,,,,,,,,,,,,,,,,
,,,,,,,,2023-08-16_08h26.06.533,HF_wild_card,2022.2.4,MacIntel,62.5,60170c926648b891f9e5742f,64d2fd46c836a06233681665,64dc7951ef2cefcca3133bf9,,,,,,,decisionTrl,resources/DBN.BMP,resources/DP.BMP,Door2,0.001111111,-0.003333333,0,0,1,0.13,optionRight,20,9670,5,8,0,8,0,1,,,,,,,,,,,,,,,,,,,,,,,,,,,,,,,,,,,,,,,
,,,,,,,,2023-08-16_08h26.06.533,HF_wild_card,2022.2.4,MacIntel,62.5,60170c926648b891f9e5742f,64d2fd46c836a06233681665,64dc7951ef2cefcca3133bf9,,,,,,,decisionTrl,resources/DP.BMP,resources/DBN.BMP,Door2,-0.001111111,-0.012222222,0,0,1,0.129,optionLeft,20,9690,5,9,0,9,0,1,,,,,,,,,,,,,,,,,,,,,,,,,,,,,,,,,,,,,,,
,,,,,,,,2023-08-16_08h26.06.533,HF_wild_card,2022.2.4,MacIntel,62.5,60170c926648b891f9e5742f,64d2fd46c836a06233681665,64dc7951ef2cefcca3133bf9,,,,,,,ctch,resources/DR.BMP,resources/DP.BMP,Door3,-0.004444444,-0.007777778,0,0,1,0.112,optionLeft,70,9760,5,10,0,10,0,1,,,,,,,,,,,,,,,,,,,,,,,,,,,,,,,,,,,,,,,
,,,,,,,,2023-08-16_08h26.06.533,HF_wild_card,2022.2.4,MacIntel,62.5,60170c926648b891f9e5742f,64d2fd46c836a06233681665,64dc7951ef2cefcca3133bf9,,,,,,,sngl,resources/DR.BMP,resources/Empty.png,Door3,0.003333333,-0.007777778,0,0,1,0.096,optionLeft,70,9830,5,11,0,11,0,1,,,,,,,,,,,,,,,,,,,,,,,,,,,,,,,,,,,,,,,
,,,,,,,,2023-08-16_08h26.06.533,HF_wild_card,2022.2.4,MacIntel,62.5,60170c926648b891f9e5742f,64d2fd46c836a06233681665,64dc7951ef2cefcca3133bf9,,,,,,,decisionTrl,resources/DP.BMP,resources/DBN.BMP,Door2,-0.007777778,-0.004444444,0,0,1,0.114,optionLeft,20,9850,5,12,0,12,0,1,,,,,,,,,,,,,,,,,,,,,,,,,,,,,,,,,,,,,,,
,,,,,,,,2023-08-16_08h26.06.533,HF_wild_card,2022.2.4,MacIntel,62.5,60170c926648b891f9e5742f,64d2fd46c836a06233681665,64dc7951ef2cefcca3133bf9,,,,,,,sngl,resources/Empty.png,resources/DB.BMP,WildCard_Ex,0.012222222,0.001111111,0,0,1,0.128,optionRight,45,9895,5,13,0,13,0,1,,,,,,,,,,,,,,,,,,,,,,,,,,,,,,,,,,,,,,,
,,,,,,,,2023-08-16_08h26.06.533,HF_wild_card,2022.2.4,MacIntel,62.5,60170c926648b891f9e5742f,64d2fd46c836a06233681665,64dc7951ef2cefcca3133bf9,,,,,,,decisionTrl,resources/DP.BMP,resources/DB.BMP,WildCard_Ex,0.007777778,-0.008888889,0,0,1,0.11,optionRight,55,9950,5,14,0,14,0,1,,,,,,,,,,,,,,,,,,,,,,,,,,,,,,,,,,,,,,,
,,,,,,,,2023-08-16_08h26.06.533,HF_wild_card,2022.2.4,MacIntel,62.5,60170c926648b891f9e5742f,64d2fd46c836a06233681665,64dc7951ef2cefcca3133bf9,,,,,,,ctch,resources/DG.BMP,resources/DBN.BMP,Door4,0.012222222,-0.006666667,0,0,1,0.063,optionLeft,80,10030,5,15,0,15,0,1,,,,,,,,,,,,,,,,,,,,,,,,,,,,,,,,,,,,,,,
,,,,,,,,2023-08-16_08h26.06.533,HF_wild_card,2022.2.4,MacIntel,62.5,60170c926648b891f9e5742f,64d2fd46c836a06233681665,64dc7951ef2cefcca3133bf9,,,,,,,decisionTrl,resources/DB.BMP,resources/DBN.BMP,WildCard_Ex,0.017777778,0.006666667,0,0,1,0.096,optionLeft,45,10075,5,16,0,16,0,1,,,,,,,,,,,,,,,,,,,,,,,,,,,,,,,,,,,,,,,
,,,,,,,,2023-08-16_08h26.06.533,HF_wild_card,2022.2.4,MacIntel,62.5,60170c926648b891f9e5742f,64d2fd46c836a06233681665,64dc7951ef2cefcca3133bf9,,,,,,,sngl,resources/DB.BMP,resources/Empty.png,WildCard_Ex,0.005555556,-0.001111111,0,0,1,0.13,optionLeft,45,10120,5,17,0,17,0,1,,,,,,,,,,,,,,,,,,,,,,,,,,,,,,,,,,,,,,,
,,,,,,,,2023-08-16_08h26.06.533,HF_wild_card,2022.2.4,MacIntel,62.5,60170c926648b891f9e5742f,64d2fd46c836a06233681665,64dc7951ef2cefcca3133bf9,,,,,,,decisionTrl,resources/DB.BMP,resources/DP.BMP,Door2,0.001111111,-0.015555556,0,0,1,0.112,optionRight,40,10160,5,18,0,18,0,1,,,,,,,,,,,,,,,,,,,,,,,,,,,,,,,,,,,,,,,
,,,,,,,,2023-08-16_08h26.06.533,HF_wild_card,2022.2.4,MacIntel,62.5,60170c926648b891f9e5742f,64d2fd46c836a06233681665,64dc7951ef2cefcca3133bf9,,,,,,,decisionTrl,resources/DR.BMP,resources/DG.BMP,Door3,0.01,-0.006666667,0,0,1,0.146,optionLeft,70,10230,5,19,0,19,0,1,,,,,,,,,,,,,,,,,,,,,,,,,,,,,,,,,,,,,,,
,,,,,,,,2023-08-16_08h26.06.533,HF_wild_card,2022.2.4,MacIntel,62.5,60170c926648b891f9e5742f,64d2fd46c836a06233681665,64dc7951ef2cefcca3133bf9,,,,,,,ctch,resources/DP.BMP,resources/DR.BMP,Door3,-0.013333333,0,0,0,1,0.13,optionRight,70,10300,5,20,0,20,0,1,,,,,,,,,,,,,,,,,,,,,,,,,,,,,,,,,,,,,,,
,,,,,,,,2023-08-16_08h26.06.533,HF_wild_card,2022.2.4,MacIntel,62.5,60170c926648b891f9e5742f,64d2fd46c836a06233681665,64dc7951ef2cefcca3133bf9,,,,,,,sngl,resources/Empty.png,resources/DR.BMP,Door3,-0.005555556,0.002222222,0,0,1,0.146,optionRight,70,10370,5,21,0,21,0,1,,,,,,,,,,,,,,,,,,,,,,,,,,,,,,,,,,,,,,,
,,,,,,,,2023-08-16_08h26.06.533,HF_wild_card,2022.2.4,MacIntel,62.5,60170c926648b891f9e5742f,64d2fd46c836a06233681665,64dc7951ef2cefcca3133bf9,,,,,,,decisionTrl,resources/DG.BMP,resources/DB.BMP,Door4,-0.002222222,-0.008888889,0,0,1,0.112,optionLeft,80,10450,5,22,0,22,0,1,,,,,,,,,,,,,,,,,,,,,,,,,,,,,,,,,,,,,,,
,,,,,,,,2023-08-16_08h26.06.533,HF_wild_card,2022.2.4,MacIntel,62.5,60170c926648b891f9e5742f,64d2fd46c836a06233681665,64dc7951ef2cefcca3133bf9,,,,,,,ctch,resources/DG.BMP,resources/DBN.BMP,Door4,-0.003333333,-0.005555556,0,0,1,0.096,optionLeft,80,10530,5,23,0,23,0,1,,,,,,,,,,,,,,,,,,,,,,,,,,,,,,,,,,,,,,,
,,,,,,,,2023-08-16_08h26.06.533,HF_wild_card,2022.2.4,MacIntel,62.5,60170c926648b891f9e5742f,64d2fd46c836a06233681665,64dc7951ef2cefcca3133bf9,,,,,,,decisionTrl,resources/DB.BMP,resources/DG.BMP,Door4,-0.008888889,0,0,0,1,0.09,optionRight,60,10590,5,24,0,24,0,1,,,,,,,,,,,,,,,,,,,,,,,,,,,,,,,,,,,,,,,
,,,,,,,,2023-08-16_08h26.06.533,HF_wild_card,2022.2.4,MacIntel,62.5,60170c926648b891f9e5742f,64d2fd46c836a06233681665,64dc7951ef2cefcca3133bf9,,,,,,,decisionTrl,resources/DR.BMP,resources/DG.BMP,Door4,-0.006666667,0.012222222,0,0,1,0.127,optionRight,60,10650,5,25,0,25,0,1,,,,,,,,,,,,,,,,,,,,,,,,,,,,,,,,,,,,,,,
,,,,,,,,2023-08-16_08h26.06.533,HF_wild_card,2022.2.4,MacIntel,62.5,60170c926648b891f9e5742f,64d2fd46c836a06233681665,64dc7951ef2cefcca3133bf9,,,,,,,sngl,resources/Empty.png,resources/DB.BMP,WildCard_Ex,-0.002222222,0.001111111,0,0,1,0.128,optionRight,55,10705,5,26,0,26,0,1,,,,,,,,,,,,,,,,,,,,,,,,,,,,,,,,,,,,,,,
,,,,,,,,2023-08-16_08h26.06.533,HF_wild_card,2022.2.4,MacIntel,62.5,60170c926648b891f9e5742f,64d2fd46c836a06233681665,64dc7951ef2cefcca3133bf9,,,,,,,sngl,resources/Empty.png,resources/DG.BMP,Door4,0.001111111,-0.006666667,0,0,1,0.079,optionRight,60,10765,5,27,0,27,0,1,,,,,,,,,,,,,,,,,,,,,,,,,,,,,,,,,,,,,,,
,,,,,,,,2023-08-16_08h26.06.533,HF_wild_card,2022.2.4,MacIntel,62.5,60170c926648b891f9e5742f,64d2fd46c836a06233681665,64dc7951ef2cefcca3133bf9,,,,,,,ctch,resources/DP.BMP,resources/DR.BMP,Door3,-0.003333333,0.002222222,0,0,1,0.111,optionRight,70,10835,5,28,0,28,0,1,,,,,,,,,,,,,,,,,,,,,,,,,,,,,,,,,,,,,,,
,,,,,,,,2023-08-16_08h26.06.533,HF_wild_card,2022.2.4,MacIntel,62.5,60170c926648b891f9e5742f,64d2fd46c836a06233681665,64dc7951ef2cefcca3133bf9,,,,,,,decisionTrl,resources/DP.BMP,resources/DBN.BMP,Door2,0.008888889,0.008888889,0,0,1,0.129,optionLeft,40,10875,5,29,0,29,0,1,,,,,,,,,,,,,,,,,,,,,,,,,,,,,,,,,,,,,,,
,,,,,,,,2023-08-16_08h26.06.533,HF_wild_card,2022.2.4,MacIntel,62.5,60170c926648b891f9e5742f,64d2fd46c836a06233681665,64dc7951ef2cefcca3133bf9,,,,,,,decisionTrl,resources/DBN.BMP,resources/DP.BMP,Door2,0.013333333,0.001111111,0,0,1,0.13,optionRight,40,10915,5,30,0,30,0,1,,,,,,,,,,,,,,,,,,,,,,,,,,,,,,,,,,,,,,,
,,,,,,,,2023-08-16_08h26.06.533,HF_wild_card,2022.2.4,MacIntel,62.5,60170c926648b891f9e5742f,64d2fd46c836a06233681665,64dc7951ef2cefcca3133bf9,,,,,,,decisionTrl,resources/DP.BMP,resources/DBN.BMP,Door2,0.006666667,0.005555556,0,0,1,0.112,optionLeft,40,10955,5,31,0,31,0,1,,,,,,,,,,,,,,,,,,,,,,,,,,,,,,,,,,,,,,,
,,,,,,,,2023-08-16_08h26.06.533,HF_wild_card,2022.2.4,MacIntel,62.5,60170c926648b891f9e5742f,64d2fd46c836a06233681665,64dc7951ef2cefcca3133bf9,,,,,,,sngl,resources/Empty.png,resources/DP.BMP,Door2,-0.002222222,0.004444444,0,0,1,0.096,optionRight,20,10975,5,32,0,32,0,1,,,,,,,,,,,,,,,,,,,,,,,,,,,,,,,,,,,,,,,
,,,,,,,,2023-08-16_08h26.06.533,HF_wild_card,2022.2.4,MacIntel,62.5,60170c926648b891f9e5742f,64d2fd46c836a06233681665,64dc7951ef2cefcca3133bf9,,,,,,,ctch,resources/DR.BMP,resources/DP.BMP,Door3,0.005555556,-0.001111111,0,0,1,0.112,optionLeft,70,11045,5,33,0,33,0,1,,,,,,,,,,,,,,,,,,,,,,,,,,,,,,,,,,,,,,,
,,,,,,,,2023-08-16_08h26.06.533,HF_wild_card,2022.2.4,MacIntel,62.5,60170c926648b891f9e5742f,64d2fd46c836a06233681665,64dc7951ef2cefcca3133bf9,,,,,,,sngl,resources/DBN.BMP,resources/Empty.png,Door1,0.012222222,-0.005555556,0,0,1,0.111,optionLeft,30,11075,5,34,0,34,0,1,,,,,,,,,,,,,,,,,,,,,,,,,,,,,,,,,,,,,,,
,,,,,,,,2023-08-16_08h26.06.533,HF_wild_card,2022.2.4,MacIntel,62.5,60170c926648b891f9e5742f,64d2fd46c836a06233681665,64dc7951ef2cefcca3133bf9,,,,,,,decisionTrl,resources/DBN.BMP,resources/DP.BMP,Door2,-0.005555556,0.001111111,0,0,1,0.112,optionRight,20,11095,5,35,0,35,0,1,,,,,,,,,,,,,,,,,,,,,,,,,,,,,,,,,,,,,,,
,,,,,,,,2023-08-16_08h26.06.533,HF_wild_card,2022.2.4,MacIntel,62.5,60170c926648b891f9e5742f,64d2fd46c836a06233681665,64dc7951ef2cefcca3133bf9,,,,,,,ctch,resources/DBN.BMP,resources/DG.BMP,Door4,0.015555556,0,0,0,1,0.128,optionRight,80,11175,5,36,0,36,0,1,,,,,,,,,,,,,,,,,,,,,,,,,,,,,,,,,,,,,,,
,,,,,,,,2023-08-16_08h26.06.533,HF_wild_card,2022.2.4,MacIntel,62.5,60170c926648b891f9e5742f,64d2fd46c836a06233681665,64dc7951ef2cefcca3133bf9,,,,,,,decisionTrl,resources/DR.BMP,resources/DG.BMP,Door4,0.01,-0.002222222,0,0,1,0.112,optionRight,60,11235,5,37,0,37,0,1,,,,,,,,,,,,,,,,,,,,,,,,,,,,,,,,,,,,,,,
,,,,,,,,2023-08-16_08h26.06.533,HF_wild_card,2022.2.4,MacIntel,62.5,60170c926648b891f9e5742f,64d2fd46c836a06233681665,64dc7951ef2cefcca3133bf9,,,,,,,decisionTrl,resources/DBN.BMP,resources/DB.BMP,WildCard_Ex,0.01,-0.011111111,0,0,1,0.128,optionRight,55,11290,5,38,0,38,0,1,,,,,,,,,,,,,,,,,,,,,,,,,,,,,,,,,,,,,,,
,,,,,,,,2023-08-16_08h26.06.533,HF_wild_card,2022.2.4,MacIntel,62.5,60170c926648b891f9e5742f,64d2fd46c836a06233681665,64dc7951ef2cefcca3133bf9,,,,,,,sngl,resources/Empty.png,resources/DBN.BMP,Door1,0.001111111,-0.014444444,0,0,1,0.162,optionRight,30,11320,5,39,0,39,0,1,,,,,,,,,,,,,,,,,,,,,,,,,,,,,,,,,,,,,,,
,,,,,,,,2023-08-16_08h26.06.533,HF_wild_card,2022.2.4,MacIntel,62.5,60170c926648b891f9e5742f,64d2fd46c836a06233681665,64dc7951ef2cefcca3133bf9,,,,,,,decisionTrl,resources/DB.BMP,resources/DR.BMP,Door3,0.006666667,-0.002222222,0,0,1,0.127,optionRight,70,11390,5,40,0,40,0,1,,,,,,,,,,,,,,,,,,,,,,,,,,,,,,,,,,,,,,,
,,,,,,,,2023-08-16_08h26.06.533,HF_wild_card,2022.2.4,MacIntel,62.5,60170c926648b891f9e5742f,64d2fd46c836a06233681665,64dc7951ef2cefcca3133bf9,,,,,,,decisionTrl,resources/DBN.BMP,resources/DP.BMP,Door2,0.012222222,0.002222222,0,0,1,0.113,optionRight,40,11430,5,41,0,41,0,1,,,,,,,,,,,,,,,,,,,,,,,,,,,,,,,,,,,,,,,
,,,,,,,,2023-08-16_08h26.06.533,HF_wild_card,2022.2.4,MacIntel,62.5,60170c926648b891f9e5742f,64d2fd46c836a06233681665,64dc7951ef2cefcca3133bf9,,,,,,,sngl,resources/DG.BMP,resources/Empty.png,Door4,0.006666667,-0.003333333,0,0,1,0.113,optionLeft,80,11510,5,42,0,42,0,1,,,,,,,,,,,,,,,,,,,,,,,,,,,,,,,,,,,,,,,
,,,,,,,,2023-08-16_08h26.06.533,HF_wild_card,2022.2.4,MacIntel,62.5,60170c926648b891f9e5742f,64d2fd46c836a06233681665,64dc7951ef2cefcca3133bf9,,,,,,,decisionTrl,resources/DR.BMP,resources/DG.BMP,Door4,0.003333333,0.005555556,0,0,1,0.162,optionRight,80,11590,5,43,0,43,0,1,,,,,,,,,,,,,,,,,,,,,,,,,,,,,,,,,,,,,,,
,,,,,,,,2023-08-16_08h26.06.533,HF_wild_card,2022.2.4,MacIntel,62.5,60170c926648b891f9e5742f,64d2fd46c836a06233681665,64dc7951ef2cefcca3133bf9,,,,,,,,,,,,,,,,,,,,,,,,,,4,0,4,0,1,,,,,,,,,,,,,,,,,,,,,,,,,,,,,,,,,,
,,,,,,,,2023-08-16_08h26.06.533,HF_wild_card,2022.2.4,MacIntel,62.5,60170c926648b891f9e5742f,64d2fd46c836a06233681665,64dc7951ef2cefcca3133bf9,,,,,,,decisionTrl,resources/DB.BMP,resources/DG.BMP,Door4,0.008888889,-0.296666667,0,0,1,0.112,optionRight,80,11670,6,0,0,0,0,1,,,,,,,,,,,,,,,,,,,,,,,,,,,,,,,,,,,,,,,
,,,,,,,,2023-08-16_08h26.06.533,HF_wild_card,2022.2.4,MacIntel,62.5,60170c926648b891f9e5742f,64d2fd46c836a06233681665,64dc7951ef2cefcca3133bf9,,,,,,,sngl,resources/Empty.png,resources/DB.BMP,WildCard_Ex,0.001111111,-0.012222222,0,0,1,0.112,optionRight,45,11715,6,1,0,1,0,1,,,,,,,,,,,,,,,,,,,,,,,,,,,,,,,,,,,,,,,
,,,,,,,,2023-08-16_08h26.06.533,HF_wild_card,2022.2.4,MacIntel,62.5,60170c926648b891f9e5742f,64d2fd46c836a06233681665,64dc7951ef2cefcca3133bf9,,,,,,,decisionTrl,resources/DB.BMP,resources/DR.BMP,Door3,0.004444444,-0.004444444,0,0,1,0.095,optionRight,70,11785,6,2,0,2,0,1,,,,,,,,,,,,,,,,,,,,,,,,,,,,,,,,,,,,,,,
,,,,,,,,2023-08-16_08h26.06.533,HF_wild_card,2022.2.4,MacIntel,62.5,60170c926648b891f9e5742f,64d2fd46c836a06233681665,64dc7951ef2cefcca3133bf9,,,,,,,decisionTrl,resources/DP.BMP,resources/DBN.BMP,Door1,0.014444444,0.002222222,0,0,1,0.095,optionRight,30,11815,6,3,0,3,0,1,,,,,,,,,,,,,,,,,,,,,,,,,,,,,,,,,,,,,,,
,,,,,,,,2023-08-16_08h26.06.533,HF_wild_card,2022.2.4,MacIntel,62.5,60170c926648b891f9e5742f,64d2fd46c836a06233681665,64dc7951ef2cefcca3133bf9,,,,,,,sngl,resources/Empty.png,resources/DP.BMP,Door2,0.004444444,-0.003333333,0,0,1,0.144,optionRight,40,11855,6,4,0,4,0,1,,,,,,,,,,,,,,,,,,,,,,,,,,,,,,,,,,,,,,,
,,,,,,,,2023-08-16_08h26.06.533,HF_wild_card,2022.2.4,MacIntel,62.5,60170c926648b891f9e5742f,64d2fd46c836a06233681665,64dc7951ef2cefcca3133bf9,,,,,,,decisionTrl,resources/DP.BMP,resources/DBN.BMP,Door1,0.008888889,-0.005555556,0,0,1,0.144,optionRight,30,11885,6,5,0,5,0,1,,,,,,,,,,,,,,,,,,,,,,,,,,,,,,,,,,,,,,,
,,,,,,,,2023-08-16_08h26.06.533,HF_wild_card,2022.2.4,MacIntel,62.5,60170c926648b891f9e5742f,64d2fd46c836a06233681665,64dc7951ef2cefcca3133bf9,,,,,,,decisionTrl,resources/DBN.BMP,resources/DP.BMP,Door2,0.006666667,0,0,0,1,0.129,optionRight,40,11925,6,6,0,6,0,1,,,,,,,,,,,,,,,,,,,,,,,,,,,,,,,,,,,,,,,
,,,,,,,,2023-08-16_08h26.06.533,HF_wild_card,2022.2.4,MacIntel,62.5,60170c926648b891f9e5742f,64d2fd46c836a06233681665,64dc7951ef2cefcca3133bf9,,,,,,,sngl,resources/Empty.png,resources/DB.BMP,WildCard_Ex,0.014444444,-0.002222222,0,0,1,0.128,optionRight,55,11980,6,7,0,7,0,1,,,,,,,,,,,,,,,,,,,,,,,,,,,,,,,,,,,,,,,
,,,,,,,,2023-08-16_08h26.06.533,HF_wild_card,2022.2.4,MacIntel,62.5,60170c926648b891f9e5742f,64d2fd46c836a06233681665,64dc7951ef2cefcca3133bf9,,,,,,,ctch,resources/DBN.BMP,resources/DG.BMP,Door4,0.008888889,0.001111111,0,0,1,0.146,optionRight,60,12040,6,8,0,8,0,1,,,,,,,,,,,,,,,,,,,,,,,,,,,,,,,,,,,,,,,
,,,,,,,,2023-08-16_08h26.06.533,HF_wild_card,2022.2.4,MacIntel,62.5,60170c926648b891f9e5742f,64d2fd46c836a06233681665,64dc7951ef2cefcca3133bf9,,,,,,,decisionTrl,resources/DG.BMP,resources/DB.BMP,Door4,0.014444444,-0.004444444,0,0,1,0.111,optionLeft,60,12100,6,9,0,9,0,1,,,,,,,,,,,,,,,,,,,,,,,,,,,,,,,,,,,,,,,
,,,,,,,,2023-08-16_08h26.06.533,HF_wild_card,2022.2.4,MacIntel,62.5,60170c926648b891f9e5742f,64d2fd46c836a06233681665,64dc7951ef2cefcca3133bf9,,,,,,,decisionTrl,resources/DR.BMP,resources/DG.BMP,Door4,-0.003333333,-0.005555556,0,0,1,0.112,optionRight,80,12180,6,10,0,10,0,1,,,,,,,,,,,,,,,,,,,,,,,,,,,,,,,,,,,,,,,
,,,,,,,,2023-08-16_08h26.06.533,HF_wild_card,2022.2.4,MacIntel,62.5,60170c926648b891f9e5742f,64d2fd46c836a06233681665,64dc7951ef2cefcca3133bf9,,,,,,,decisionTrl,resources/DG.BMP,resources/DR.BMP,Door4,-0.007777778,-0.003333333,0,0,1,0.13,optionLeft,60,12240,6,11,0,11,0,1,,,,,,,,,,,,,,,,,,,,,,,,,,,,,,,,,,,,,,,
,,,,,,,,2023-08-16_08h26.06.533,HF_wild_card,2022.2.4,MacIntel,62.5,60170c926648b891f9e5742f,64d2fd46c836a06233681665,64dc7951ef2cefcca3133bf9,,,,,,,sngl,resources/DG.BMP,resources/Empty.png,Door4,-0.007777778,-0.008888889,0,0,1,0.096,optionLeft,60,12300,6,12,0,12,0,1,,,,,,,,,,,,,,,,,,,,,,,,,,,,,,,,,,,,,,,
,,,,,,,,2023-08-16_08h26.06.533,HF_wild_card,2022.2.4,MacIntel,62.5,60170c926648b891f9e5742f,64d2fd46c836a06233681665,64dc7951ef2cefcca3133bf9,,,,,,,decisionTrl,resources/DP.BMP,resources/DBN.BMP,Door1,0.007777778,0.001111111,0,0,1,0.145,optionRight,30,12330,6,13,0,13,0,1,,,,,,,,,,,,,,,,,,,,,,,,,,,,,,,,,,,,,,,
,,,,,,,,2023-08-16_08h26.06.533,HF_wild_card,2022.2.4,MacIntel,62.5,60170c926648b891f9e5742f,64d2fd46c836a06233681665,64dc7951ef2cefcca3133bf9,,,,,,,decisionTrl,resources/DG.BMP,resources/DR.BMP,Door3,0.011111111,-0.008888889,0,0,1,0.114,optionRight,70,12400,6,14,0,14,0,1,,,,,,,,,,,,,,,,,,,,,,,,,,,,,,,,,,,,,,,
,,,,,,,,2023-08-16_08h26.06.533,HF_wild_card,2022.2.4,MacIntel,62.5,60170c926648b891f9e5742f,64d2fd46c836a06233681665,64dc7951ef2cefcca3133bf9,,,,,,,ctch,resources/DBN.BMP,resources/DG.BMP,Door4,0.006666667,0,0,0,1,0.079,optionRight,80,12480,6,15,0,15,0,1,,,,,,,,,,,,,,,,,,,,,,,,,,,,,,,,,,,,,,,
,,,,,,,,2023-08-16_08h26.06.533,HF_wild_card,2022.2.4,MacIntel,62.5,60170c926648b891f9e5742f,64d2fd46c836a06233681665,64dc7951ef2cefcca3133bf9,,,,,,,sngl,resources/DB.BMP,resources/Empty.png,WildCard_Ex,0.008888889,0,0,0,1,0.113,optionLeft,55,12535,6,16,0,16,0,1,,,,,,,,,,,,,,,,,,,,,,,,,,,,,,,,,,,,,,,
,,,,,,,,2023-08-16_08h26.06.533,HF_wild_card,2022.2.4,MacIntel,62.5,60170c926648b891f9e5742f,64d2fd46c836a06233681665,64dc7951ef2cefcca3133bf9,,,,,,,decisionTrl,resources/DBN.BMP,resources/DB.BMP,WildCard_Ex,-0.004444444,-0.008888889,0,0,1,0.129,optionRight,45,12580,6,17,0,17,0,1,,,,,,,,,,,,,,,,,,,,,,,,,,,,,,,,,,,,,,,
,,,,,,,,2023-08-16_08h26.06.533,HF_wild_card,2022.2.4,MacIntel,62.5,60170c926648b891f9e5742f,64d2fd46c836a06233681665,64dc7951ef2cefcca3133bf9,,,,,,,decisionTrl,resources/DBN.BMP,resources/DP.BMP,Door2,0.012222222,-0.005555556,0,0,1,0.095,optionRight,20,12600,6,18,0,18,0,1,,,,,,,,,,,,,,,,,,,,,,,,,,,,,,,,,,,,,,,
,,,,,,,,2023-08-16_08h26.06.533,HF_wild_card,2022.2.4,MacIntel,62.5,60170c926648b891f9e5742f,64d2fd46c836a06233681665,64dc7951ef2cefcca3133bf9,,,,,,,decisionTrl,resources/DR.BMP,resources/DB.BMP,Door3,0,-0.005555556,0,0,1,0.112,optionLeft,70,12670,6,19,0,19,0,1,,,,,,,,,,,,,,,,,,,,,,,,,,,,,,,,,,,,,,,
,,,,,,,,2023-08-16_08h26.06.533,HF_wild_card,2022.2.4,MacIntel,62.5,60170c926648b891f9e5742f,64d2fd46c836a06233681665,64dc7951ef2cefcca3133bf9,,,,,,,sngl,resources/Empty.png,resources/DG.BMP,Door4,0.013333333,0.008888889,0,0,1,0.113,optionRight,80,12750,6,20,0,20,0,1,,,,,,,,,,,,,,,,,,,,,,,,,,,,,,,,,,,,,,,
,,,,,,,,2023-08-16_08h26.06.533,HF_wild_card,2022.2.4,MacIntel,62.5,60170c926648b891f9e5742f,64d2fd46c836a06233681665,64dc7951ef2cefcca3133bf9,,,,,,,ctch,resources/DP.BMP,resources/DR.BMP,Door3,-0.018888889,-0.006666667,0,0,1,0.129,optionRight,70,12820,6,21,0,21,0,1,,,,,,,,,,,,,,,,,,,,,,,,,,,,,,,,,,,,,,,
,,,,,,,,2023-08-16_08h26.06.533,HF_wild_card,2022.2.4,MacIntel,62.5,60170c926648b891f9e5742f,64d2fd46c836a06233681665,64dc7951ef2cefcca3133bf9,,,,,,,decisionTrl,resources/DR.BMP,resources/DG.BMP,Door4,0.005555556,-0.006666667,0,0,1,0.095,optionRight,60,12880,6,22,0,22,0,1,,,,,,,,,,,,,,,,,,,,,,,,,,,,,,,,,,,,,,,
,,,,,,,,2023-08-16_08h26.06.533,HF_wild_card,2022.2.4,MacIntel,62.5,60170c926648b891f9e5742f,64d2fd46c836a06233681665,64dc7951ef2cefcca3133bf9,,,,,,,sngl,resources/Empty.png,resources/DBN.BMP,Door1,0.002222222,-0.004444444,0,0,1,0.096,optionRight,30,12910,6,23,0,23,0,1,,,,,,,,,,,,,,,,,,,,,,,,,,,,,,,,,,,,,,,
,,,,,,,,2023-08-16_08h26.06.533,HF_wild_card,2022.2.4,MacIntel,62.5,60170c926648b891f9e5742f,64d2fd46c836a06233681665,64dc7951ef2cefcca3133bf9,,,,,,,decisionTrl,resources/DG.BMP,resources/DR.BMP,Door4,0.005555556,-0.007777778,0,0,1,0.129,optionLeft,60,12970,6,24,0,24,0,1,,,,,,,,,,,,,,,,,,,,,,,,,,,,,,,,,,,,,,,
,,,,,,,,2023-08-16_08h26.06.533,HF_wild_card,2022.2.4,MacIntel,62.5,60170c926648b891f9e5742f,64d2fd46c836a06233681665,64dc7951ef2cefcca3133bf9,,,,,,,ctch,resources/DG.BMP,resources/DBN.BMP,Door4,0.008888889,-0.003333333,0,0,1,0.097,optionLeft,60,13030,6,25,0,25,0,1,,,,,,,,,,,,,,,,,,,,,,,,,,,,,,,,,,,,,,,
,,,,,,,,2023-08-16_08h26.06.533,HF_wild_card,2022.2.4,MacIntel,62.5,60170c926648b891f9e5742f,64d2fd46c836a06233681665,64dc7951ef2cefcca3133bf9,,,,,,,decisionTrl,resources/DP.BMP,resources/DBN.BMP,Door1,0.003333333,0.007777778,0,0,1,0.144,optionRight,30,13060,6,26,0,26,0,1,,,,,,,,,,,,,,,,,,,,,,,,,,,,,,,,,,,,,,,
,,,,,,,,2023-08-16_08h26.06.533,HF_wild_card,2022.2.4,MacIntel,62.5,60170c926648b891f9e5742f,64d2fd46c836a06233681665,64dc7951ef2cefcca3133bf9,,,,,,,decisionTrl,resources/DBN.BMP,resources/DP.BMP,Door2,0.003333333,0,0,0,1,0.096,optionRight,40,13100,6,27,0,27,0,1,,,,,,,,,,,,,,,,,,,,,,,,,,,,,,,,,,,,,,,
,,,,,,,,2023-08-16_08h26.06.533,HF_wild_card,2022.2.4,MacIntel,62.5,60170c926648b891f9e5742f,64d2fd46c836a06233681665,64dc7951ef2cefcca3133bf9,,,,,,,decisionTrl,resources/DR.BMP,resources/DG.BMP,Door4,0.004444444,0.006666667,0,0,1,0.144,optionRight,60,13160,6,28,0,28,0,1,,,,,,,,,,,,,,,,,,,,,,,,,,,,,,,,,,,,,,,
,,,,,,,,2023-08-16_08h26.06.533,HF_wild_card,2022.2.4,MacIntel,62.5,60170c926648b891f9e5742f,64d2fd46c836a06233681665,64dc7951ef2cefcca3133bf9,,,,,,,ctch,resources/DP.BMP,resources/DR.BMP,Door3,0.004444444,-0.001111111,0,0,1,0.062,optionRight,70,13230,6,29,0,29,0,1,,,,,,,,,,,,,,,,,,,,,,,,,,,,,,,,,,,,,,,
,,,,,,,,2023-08-16_08h26.06.533,HF_wild_card,2022.2.4,MacIntel,62.5,60170c926648b891f9e5742f,64d2fd46c836a06233681665,64dc7951ef2cefcca3133bf9,,,,,,,decisionTrl,resources/DB.BMP,resources/DP.BMP,WildCard_Ex,0.007777778,0.003333333,0,0,1,0.096,optionLeft,45,13275,6,30,0,30,0,1,,,,,,,,,,,,,,,,,,,,,,,,,,,,,,,,,,,,,,,
,,,,,,,,2023-08-16_08h26.06.533,HF_wild_card,2022.2.4,MacIntel,62.5,60170c926648b891f9e5742f,64d2fd46c836a06233681665,64dc7951ef2cefcca3133bf9,,,,,,,sngl,resources/DP.BMP,resources/Empty.png,Door2,0.005555556,0.002222222,0,0,1,0.095,optionLeft,20,13295,6,31,0,31,0,1,,,,,,,,,,,,,,,,,,,,,,,,,,,,,,,,,,,,,,,
,,,,,,,,2023-08-16_08h26.06.533,HF_wild_card,2022.2.4,MacIntel,62.5,60170c926648b891f9e5742f,64d2fd46c836a06233681665,64dc7951ef2cefcca3133bf9,,,,,,,decisionTrl,resources/DG.BMP,resources/DR.BMP,Door4,-0.002222222,0.004444444,0,0,1,0.129,optionLeft,60,13355,6,32,0,32,0,1,,,,,,,,,,,,,,,,,,,,,,,,,,,,,,,,,,,,,,,
,,,,,,,,2023-08-16_08h26.06.533,HF_wild_card,2022.2.4,MacIntel,62.5,60170c926648b891f9e5742f,64d2fd46c836a06233681665,64dc7951ef2cefcca3133bf9,,,,,,,sngl,resources/DR.BMP,resources/Empty.png,Door3,0.004444444,0.014444444,0,0,1,0.129,optionLeft,70,13425,6,33,0,33,0,1,,,,,,,,,,,,,,,,,,,,,,,,,,,,,,,,,,,,,,,
,,,,,,,,2023-08-16_08h26.06.533,HF_wild_card,2022.2.4,MacIntel,62.5,60170c926648b891f9e5742f,64d2fd46c836a06233681665,64dc7951ef2cefcca3133bf9,,,,,,,decisionTrl,resources/DBN.BMP,resources/DP.BMP,Door1,0.011111111,-0.014444444,0,0,1,0.114,optionLeft,30,13455,6,34,0,34,0,1,,,,,,,,,,,,,,,,,,,,,,,,,,,,,,,,,,,,,,,
,,,,,,,,2023-08-16_08h26.06.533,HF_wild_card,2022.2.4,MacIntel,62.5,60170c926648b891f9e5742f,64d2fd46c836a06233681665,64dc7951ef2cefcca3133bf9,,,,,,,decisionTrl,resources/DP.BMP,resources/DB.BMP,WildCard_Ex,0.013333333,0.008888889,0,0,1,0.129,optionRight,45,13500,6,35,0,35,0,1,,,,,,,,,,,,,,,,,,,,,,,,,,,,,,,,,,,,,,,
,,,,,,,,2023-08-16_08h26.06.533,HF_wild_card,2022.2.4,MacIntel,62.5,60170c926648b891f9e5742f,64d2fd46c836a06233681665,64dc7951ef2cefcca3133bf9,,,,,,,sngl,resources/Empty.png,resources/DR.BMP,Door3,0,-0.004444444,0,0,1,0.127,optionRight,70,13570,6,36,0,36,0,1,,,,,,,,,,,,,,,,,,,,,,,,,,,,,,,,,,,,,,,
,,,,,,,,2023-08-16_08h26.06.533,HF_wild_card,2022.2.4,MacIntel,62.5,60170c926648b891f9e5742f,64d2fd46c836a06233681665,64dc7951ef2cefcca3133bf9,,,,,,,decisionTrl,resources/DB.BMP,resources/DBN.BMP,WildCard_Ex,-0.016666667,0.007777778,0,0,1,0.145,optionLeft,45,13615,6,37,0,37,0,1,,,,,,,,,,,,,,,,,,,,,,,,,,,,,,,,,,,,,,,
,,,,,,,,2023-08-16_08h26.06.533,HF_wild_card,2022.2.4,MacIntel,62.5,60170c926648b891f9e5742f,64d2fd46c836a06233681665,64dc7951ef2cefcca3133bf9,,,,,,,sngl,resources/DBN.BMP,resources/Empty.png,Door1,-0.011111111,0.001111111,0,0,1,0.095,optionLeft,30,13645,6,38,0,38,0,1,,,,,,,,,,,,,,,,,,,,,,,,,,,,,,,,,,,,,,,
,,,,,,,,2023-08-16_08h26.06.533,HF_wild_card,2022.2.4,MacIntel,62.5,60170c926648b891f9e5742f,64d2fd46c836a06233681665,64dc7951ef2cefcca3133bf9,,,,,,,ctch,resources/DR.BMP,resources/DP.BMP,Door3,0.005555556,-0.001111111,0,0,1,0.079,optionLeft,70,13715,6,39,0,39,0,1,,,,,,,,,,,,,,,,,,,,,,,,,,,,,,,,,,,,,,,
,,,,,,,,2023-08-16_08h26.06.533,HF_wild_card,2022.2.4,MacIntel,62.5,60170c926648b891f9e5742f,64d2fd46c836a06233681665,64dc7951ef2cefcca3133bf9,,,,,,,ctch,resources/DR.BMP,resources/DP.BMP,Door3,0.006666667,-0.002222222,0,0,1,0.063,optionLeft,70,13785,6,40,0,40,0,1,,,,,,,,,,,,,,,,,,,,,,,,,,,,,,,,,,,,,,,
,,,,,,,,2023-08-16_08h26.06.533,HF_wild_card,2022.2.4,MacIntel,62.5,60170c926648b891f9e5742f,64d2fd46c836a06233681665,64dc7951ef2cefcca3133bf9,,,,,,,sngl,resources/DB.BMP,resources/Empty.png,WildCard_Ex,0,-0.001111111,0,0,1,0.095,optionLeft,45,13830,6,41,0,41,0,1,,,,,,,,,,,,,,,,,,,,,,,,,,,,,,,,,,,,,,,
,,,,,,,,2023-08-16_08h26.06.533,HF_wild_card,2022.2.4,MacIntel,62.5,60170c926648b891f9e5742f,64d2fd46c836a06233681665,64dc7951ef2cefcca3133bf9,,,,,,,decisionTrl,resources/DR.BMP,resources/DG.BMP,Door4,-0.002222222,0.006666667,0,0,1,0.095,optionRight,80,13910,6,42,0,42,0,1,,,,,,,,,,,,,,,,,,,,,,,,,,,,,,,,,,,,,,,
,,,,,,,,2023-08-16_08h26.06.533,HF_wild_card,2022.2.4,MacIntel,62.5,60170c926648b891f9e5742f,64d2fd46c836a06233681665,64dc7951ef2cefcca3133bf9,,,,,,,ctch,resources/DG.BMP,resources/DBN.BMP,Door4,-0.015555556,-0.006666667,0,0,1,0.145,optionLeft,80,13990,6,43,0,43,0,1,,,,,,,,,,,,,,,,,,,,,,,,,,,,,,,,,,,,,,,
,,,,,,,,2023-08-16_08h26.06.533,HF_wild_card,2022.2.4,MacIntel,62.5,60170c926648b891f9e5742f,64d2fd46c836a06233681665,64dc7951ef2cefcca3133bf9,,,,,,,,,,,,,,,,,,,,,,,,,,5,0,5,0,1,,,,,,,,,,,,,,,,,,,,,,,,,,,,,,,,,,
,,,,,,,,2023-08-16_08h26.06.533,HF_wild_card,2022.2.4,MacIntel,62.5,60170c926648b891f9e5742f,64d2fd46c836a06233681665,64dc7951ef2cefcca3133bf9,,,,,,,decisionTrl,resources/DP.BMP,resources/DBN.BMP,Door2,-0.158888889,-0.226666667,1,0,1,1.475,optionLeft,40,14030,7,0,0,0,0,1,,,,,,,,,,,,,,,,,,,,,,,,,,,,,,,,,,,,,,,
,,,,,,,,2023-08-16_08h26.06.533,HF_wild_card,2022.2.4,MacIntel,62.5,60170c926648b891f9e5742f,64d2fd46c836a06233681665,64dc7951ef2cefcca3133bf9,,,,,,,decisionTrl,resources/DG.BMP,resources/DR.BMP,Door4,-0.007777778,-0.004444444,0,0,1,0.148,optionLeft,60,14090,7,1,0,1,0,1,,,,,,,,,,,,,,,,,,,,,,,,,,,,,,,,,,,,,,,
,,,,,,,,2023-08-16_08h26.06.533,HF_wild_card,2022.2.4,MacIntel,62.5,60170c926648b891f9e5742f,64d2fd46c836a06233681665,64dc7951ef2cefcca3133bf9,,,,,,,decisionTrl,resources/DG.BMP,resources/DR.BMP,Door4,-0.006666667,0,0,0,1,0.098,optionLeft,80,14170,7,2,0,2,0,1,,,,,,,,,,,,,,,,,,,,,,,,,,,,,,,,,,,,,,,
,,,,,,,,2023-08-16_08h26.06.533,HF_wild_card,2022.2.4,MacIntel,62.5,60170c926648b891f9e5742f,64d2fd46c836a06233681665,64dc7951ef2cefcca3133bf9,,,,,,,decisionTrl,resources/DG.BMP,resources/DR.BMP,Door4,0.011111111,0.004444444,0,0,1,0.1,optionLeft,80,14250,7,3,0,3,0,1,,,,,,,,,,,,,,,,,,,,,,,,,,,,,,,,,,,,,,,
,,,,,,,,2023-08-16_08h26.06.533,HF_wild_card,2022.2.4,MacIntel,62.5,60170c926648b891f9e5742f,64d2fd46c836a06233681665,64dc7951ef2cefcca3133bf9,,,,,,,decisionTrl,resources/DG.BMP,resources/DR.BMP,Door4,-0.011111111,0.007777778,0,0,1,0.133,optionLeft,80,14330,7,4,0,4,0,1,,,,,,,,,,,,,,,,,,,,,,,,,,,,,,,,,,,,,,,
,,,,,,,,2023-08-16_08h26.06.533,HF_wild_card,2022.2.4,MacIntel,62.5,60170c926648b891f9e5742f,64d2fd46c836a06233681665,64dc7951ef2cefcca3133bf9,,,,,,,decisionTrl,resources/DP.BMP,resources/DBN.BMP,Door1,0.01,-0.007777778,0,0,1,0.099,optionRight,30,14360,7,5,0,5,0,1,,,,,,,,,,,,,,,,,,,,,,,,,,,,,,,,,,,,,,,
,,,,,,,,2023-08-16_08h26.06.533,HF_wild_card,2022.2.4,MacIntel,62.5,60170c926648b891f9e5742f,64d2fd46c836a06233681665,64dc7951ef2cefcca3133bf9,,,,,,,decisionTrl,resources/DP.BMP,resources/DBN.BMP,Door1,0.003333333,-0.004444444,0,0,1,0.115,optionRight,30,14390,7,6,0,6,0,1,,,,,,,,,,,,,,,,,,,,,,,,,,,,,,,,,,,,,,,
,,,,,,,,2023-08-16_08h26.06.533,HF_wild_card,2022.2.4,MacIntel,62.5,60170c926648b891f9e5742f,64d2fd46c836a06233681665,64dc7951ef2cefcca3133bf9,,,,,,,decisionTrl,resources/DBN.BMP,resources/DP.BMP,Door1,-0.004444444,0,0,0,1,0.082,optionLeft,30,14420,7,7,0,7,0,1,,,,,,,,,,,,,,,,,,,,,,,,,,,,,,,,,,,,,,,
,,,,,,,,2023-08-16_08h26.06.533,HF_wild_card,2022.2.4,MacIntel,62.5,60170c926648b891f9e5742f,64d2fd46c836a06233681665,64dc7951ef2cefcca3133bf9,,,,,,,decisionTrl,resources/DBN.BMP,resources/DP.BMP,Door1,0.011111111,0.011111111,0,0,1,0.099,optionLeft,30,14450,7,8,0,8,0,1,,,,,,,,,,,,,,,,,,,,,,,,,,,,,,,,,,,,,,,
,,,,,,,,2023-08-16_08h26.06.533,HF_wild_card,2022.2.4,MacIntel,62.5,60170c926648b891f9e5742f,64d2fd46c836a06233681665,64dc7951ef2cefcca3133bf9,,,,,,,ctch,resources/DP.BMP,resources/DR.BMP,Door3,-0.011111111,-0.004444444,0,0,1,0.098,optionRight,70,14520,7,9,0,9,0,1,,,,,,,,,,,,,,,,,,,,,,,,,,,,,,,,,,,,,,,
,,,,,,,,2023-08-16_08h26.06.533,HF_wild_card,2022.2.4,MacIntel,62.5,60170c926648b891f9e5742f,64d2fd46c836a06233681665,64dc7951ef2cefcca3133bf9,,,,,,,decisionTrl,resources/DP.BMP,resources/DBN.BMP,Door1,-0.004444444,0.003333333,0,0,1,0.115,optionRight,30,14550,7,10,0,10,0,1,,,,,,,,,,,,,,,,,,,,,,,,,,,,,,,,,,,,,,,
,,,,,,,,2023-08-16_08h26.06.533,HF_wild_card,2022.2.4,MacIntel,62.5,60170c926648b891f9e5742f,64d2fd46c836a06233681665,64dc7951ef2cefcca3133bf9,,,,,,,decisionTrl,resources/DR.BMP,resources/DG.BMP,Door4,0.007777778,-0.002222222,0,0,1,0.098,optionRight,80,14630,7,11,0,11,0,1,,,,,,,,,,,,,,,,,,,,,,,,,,,,,,,,,,,,,,,
,,,,,,,,2023-08-16_08h26.06.533,HF_wild_card,2022.2.4,MacIntel,62.5,60170c926648b891f9e5742f,64d2fd46c836a06233681665,64dc7951ef2cefcca3133bf9,,,,,,,ctch,resources/DBN.BMP,resources/DG.BMP,Door4,-0.008888889,-0.01,0,0,1,0.116,optionRight,60,14690,7,12,0,12,0,1,,,,,,,,,,,,,,,,,,,,,,,,,,,,,,,,,,,,,,,
,,,,,,,,2023-08-16_08h26.06.533,HF_wild_card,2022.2.4,MacIntel,62.5,60170c926648b891f9e5742f,64d2fd46c836a06233681665,64dc7951ef2cefcca3133bf9,,,,,,,decisionTrl,resources/DR.BMP,resources/DG.BMP,Door4,-0.01,0.01,0,0,1,0.115,optionRight,60,14750,7,13,0,13,0,1,,,,,,,,,,,,,,,,,,,,,,,,,,,,,,,,,,,,,,,
,,,,,,,,2023-08-16_08h26.06.533,HF_wild_card,2022.2.4,MacIntel,62.5,60170c926648b891f9e5742f,64d2fd46c836a06233681665,64dc7951ef2cefcca3133bf9,,,,,,,decisionTrl,resources/DBN.BMP,resources/DP.BMP,Door1,0.004444444,0.001111111,0,0,1,0.083,optionLeft,30,14780,7,14,0,14,0,1,,,,,,,,,,,,,,,,,,,,,,,,,,,,,,,,,,,,,,,
,,,,,,,,2023-08-16_08h26.06.533,HF_wild_card,2022.2.4,MacIntel,62.5,60170c926648b891f9e5742f,64d2fd46c836a06233681665,64dc7951ef2cefcca3133bf9,,,,,,,ctch,resources/DP.BMP,resources/DR.BMP,Door3,-0.01,-0.007777778,0,0,1,0.133,optionRight,70,14850,7,15,0,15,0,1,,,,,,,,,,,,,,,,,,,,,,,,,,,,,,,,,,,,,,,
,,,,,,,,2023-08-16_08h26.06.533,HF_wild_card,2022.2.4,MacIntel,62.5,60170c926648b891f9e5742f,64d2fd46c836a06233681665,64dc7951ef2cefcca3133bf9,,,,,,,decisionTrl,resources/DBN.BMP,resources/DP.BMP,Door1,0.011111111,0.001111111,0,0,1,0.099,optionLeft,30,14880,7,16,0,16,0,1,,,,,,,,,,,,,,,,,,,,,,,,,,,,,,,,,,,,,,,
,,,,,,,,2023-08-16_08h26.06.533,HF_wild_card,2022.2.4,MacIntel,62.5,60170c926648b891f9e5742f,64d2fd46c836a06233681665,64dc7951ef2cefcca3133bf9,,,,,,,decisionTrl,resources/DR.BMP,resources/DG.BMP,Door4,0.011111111,0.001111111,0,0,1,0.081,optionRight,60,14940,7,17,0,17,0,1,,,,,,,,,,,,,,,,,,,,,,,,,,,,,,,,,,,,,,,
,,,,,,,,2023-08-16_08h26.06.533,HF_wild_card,2022.2.4,MacIntel,62.5,60170c926648b891f9e5742f,64d2fd46c836a06233681665,64dc7951ef2cefcca3133bf9,,,,,,,decisionTrl,resources/DBN.BMP,resources/DP.BMP,Door1,0,0.001111111,0,0,1,0.101,optionLeft,30,14970,7,18,0,18,0,1,,,,,,,,,,,,,,,,,,,,,,,,,,,,,,,,,,,,,,,
,,,,,,,,2023-08-16_08h26.06.533,HF_wild_card,2022.2.4,MacIntel,62.5,60170c926648b891f9e5742f,64d2fd46c836a06233681665,64dc7951ef2cefcca3133bf9,,,,,,,decisionTrl,resources/DG.BMP,resources/DR.BMP,Door4,0,-0.003333333,0,0,1,0.083,optionLeft,60,15030,7,19,0,19,0,1,,,,,,,,,,,,,,,,,,,,,,,,,,,,,,,,,,,,,,,
,,,,,,,,2023-08-16_08h26.06.533,HF_wild_card,2022.2.4,MacIntel,62.5,60170c926648b891f9e5742f,64d2fd46c836a06233681665,64dc7951ef2cefcca3133bf9,,,,,,,ctch,resources/DP.BMP,resources/DR.BMP,Door3,-0.007777778,0,0,0,1,0.116,optionRight,70,15100,7,20,0,20,0,1,,,,,,,,,,,,,,,,,,,,,,,,,,,,,,,,,,,,,,,
,,,,,,,,2023-08-16_08h26.06.533,HF_wild_card,2022.2.4,MacIntel,62.5,60170c926648b891f9e5742f,64d2fd46c836a06233681665,64dc7951ef2cefcca3133bf9,,,,,,,ctch,resources/DR.BMP,resources/DP.BMP,Door3,0.001111111,-0.005555556,0,0,1,0.083,optionLeft,70,15170,7,21,0,21,0,1,,,,,,,,,,,,,,,,,,,,,,,,,,,,,,,,,,,,,,,
,,,,,,,,2023-08-16_08h26.06.533,HF_wild_card,2022.2.4,MacIntel,62.5,60170c926648b891f9e5742f,64d2fd46c836a06233681665,64dc7951ef2cefcca3133bf9,,,,,,,ctch,resources/DG.BMP,resources/DBN.BMP,Door4,-0.004444444,-0.001111111,0,0,1,0.101,optionLeft,80,15250,7,22,0,22,0,1,,,,,,,,,,,,,,,,,,,,,,,,,,,,,,,,,,,,,,,
,,,,,,,,2023-08-16_08h26.06.533,HF_wild_card,2022.2.4,MacIntel,62.5,60170c926648b891f9e5742f,64d2fd46c836a06233681665,64dc7951ef2cefcca3133bf9,,,,,,,decisionTrl,resources/DG.BMP,resources/DR.BMP,Door4,-0.01,0.006666667,0,0,1,0.167,optionLeft,80,15330,7,23,0,23,0,1,,,,,,,,,,,,,,,,,,,,,,,,,,,,,,,,,,,,,,,
,,,,,,,,2023-08-16_08h26.06.533,HF_wild_card,2022.2.4,MacIntel,62.5,60170c926648b891f9e5742f,64d2fd46c836a06233681665,64dc7951ef2cefcca3133bf9,,,,,,,decisionTrl,resources/DBN.BMP,resources/DP.BMP,Door1,0.016666667,0.002222222,0,0,1,0.099,optionLeft,30,15360,7,24,0,24,0,1,,,,,,,,,,,,,,,,,,,,,,,,,,,,,,,,,,,,,,,
,,,,,,,,2023-08-16_08h26.06.533,HF_wild_card,2022.2.4,MacIntel,62.5,60170c926648b891f9e5742f,64d2fd46c836a06233681665,64dc7951ef2cefcca3133bf9,,,,,,,decisionTrl,resources/DP.BMP,resources/DBN.BMP,Door1,-0.006666667,-0.005555556,0,0,1,0.115,optionRight,30,15390,7,25,0,25,0,1,,,,,,,,,,,,,,,,,,,,,,,,,,,,,,,,,,,,,,,
,,,,,,,,2023-08-16_08h26.06.533,HF_wild_card,2022.2.4,MacIntel,62.5,60170c926648b891f9e5742f,64d2fd46c836a06233681665,64dc7951ef2cefcca3133bf9,,,,,,,ctch,resources/DG.BMP,resources/DBN.BMP,Door4,0,-0.01,0,0,1,0.1,optionLeft,80,15470,7,26,0,26,0,1,,,,,,,,,,,,,,,,,,,,,,,,,,,,,,,,,,,,,,,
,,,,,,,,2023-08-16_08h26.06.533,HF_wild_card,2022.2.4,MacIntel,62.5,60170c926648b891f9e5742f,64d2fd46c836a06233681665,64dc7951ef2cefcca3133bf9,,,,,,,ctch,resources/DR.BMP,resources/DP.BMP,Door3,-0.001111111,0.004444444,0,0,1,0.115,optionLeft,70,15540,7,27,0,27,0,1,,,,,,,,,,,,,,,,,,,,,,,,,,,,,,,,,,,,,,,
,,,,,,,,2023-08-16_08h26.06.533,HF_wild_card,2022.2.4,MacIntel,62.5,60170c926648b891f9e5742f,64d2fd46c836a06233681665,64dc7951ef2cefcca3133bf9,,,,,,,ctch,resources/DR.BMP,resources/DP.BMP,Door3,-0.003333333,-0.003333333,0,0,1,0.083,optionLeft,70,15610,7,28,0,28,0,1,,,,,,,,,,,,,,,,,,,,,,,,,,,,,,,,,,,,,,,
,,,,,,,,2023-08-16_08h26.06.533,HF_wild_card,2022.2.4,MacIntel,62.5,60170c926648b891f9e5742f,64d2fd46c836a06233681665,64dc7951ef2cefcca3133bf9,,,,,,,ctch,resources/DBN.BMP,resources/DG.BMP,Door4,0.002222222,0.005555556,0,0,1,0.099,optionRight,80,15690,7,29,0,29,0,1,,,,,,,,,,,,,,,,,,,,,,,,,,,,,,,,,,,,,,,
,,,,,,,,2023-08-16_08h26.06.533,HF_wild_card,2022.2.4,MacIntel,62.5,60170c926648b891f9e5742f,64d2fd46c836a06233681665,64dc7951ef2cefcca3133bf9,,,,,,,ctch,resources/DBN.BMP,resources/DG.BMP,Door4,0.003333333,-0.005555556,0,0,1,0.066,optionRight,80,15770,7,30,0,30,0,1,,,,,,,,,,,,,,,,,,,,,,,,,,,,,,,,,,,,,,,
,,,,,,,,2023-08-16_08h26.06.533,HF_wild_card,2022.2.4,MacIntel,62.5,60170c926648b891f9e5742f,64d2fd46c836a06233681665,64dc7951ef2cefcca3133bf9,,,,,,,decisionTrl,resources/DR.BMP,resources/DG.BMP,Door4,-0.011111111,0.001111111,0,0,1,0.1,optionRight,80,15850,7,31,0,31,0,1,,,,,,,,,,,,,,,,,,,,,,,,,,,,,,,,,,,,,,,
,,,,,,,,2023-08-16_08h26.06.533,HF_wild_card,2022.2.4,MacIntel,62.5,60170c926648b891f9e5742f,64d2fd46c836a06233681665,64dc7951ef2cefcca3133bf9,,,,,,,decisionTrl,resources/DR.BMP,resources/DG.BMP,Door4,0.002222222,-0.004444444,0,0,1,0.082,optionRight,60,15910,7,32,0,32,0,1,,,,,,,,,,,,,,,,,,,,,,,,,,,,,,,,,,,,,,,
,,,,,,,,2023-08-16_08h26.06.533,HF_wild_card,2022.2.4,MacIntel,62.5,60170c926648b891f9e5742f,64d2fd46c836a06233681665,64dc7951ef2cefcca3133bf9,,,,,,,decisionTrl,resources/DP.BMP,resources/DBN.BMP,Door1,0,0.001111111,0,0,1,0.283,optionRight,30,15940,7,33,0,33,0,1,,,,,,,,,,,,,,,,,,,,,,,,,,,,,,,,,,,,,,,
,,,,,,,,2023-08-16_08h26.06.533,HF_wild_card,2022.2.4,MacIntel,62.5,60170c926648b891f9e5742f,64d2fd46c836a06233681665,64dc7951ef2cefcca3133bf9,,,,,,,ctch,resources/DG.BMP,resources/DBN.BMP,Door4,0.001111111,-0.005555556,0,0,1,0.083,optionLeft,60,16000,7,34,0,34,0,1,,,,,,,,,,,,,,,,,,,,,,,,,,,,,,,,,,,,,,,
,,,,,,,,2023-08-16_08h26.06.533,HF_wild_card,2022.2.4,MacIntel,62.5,60170c926648b891f9e5742f,64d2fd46c836a06233681665,64dc7951ef2cefcca3133bf9,,,,,,,decisionTrl,resources/DR.BMP,resources/DG.BMP,Door4,0.014444444,0.007777778,0,0,1,0.099,optionRight,60,16060,7,35,0,35,0,1,,,,,,,,,,,,,,,,,,,,,,,,,,,,,,,,,,,,,,,
,,,,,,,,2023-08-16_08h26.06.533,HF_wild_card,2022.2.4,MacIntel,62.5,60170c926648b891f9e5742f,64d2fd46c836a06233681665,64dc7951ef2cefcca3133bf9,,,,,,,,,,,,,,,,,,,,,,,,,,6,0,6,0,1,,,,,,,,,,,,,,,,,,,,,,,,,,,,,,,,,,
,,,,,,,,2023-08-16_08h26.06.533,HF_wild_card,2022.2.4,MacIntel,62.5,60170c926648b891f9e5742f,64d2fd46c836a06233681665,64dc7951ef2cefcca3133bf9,,,,,,,,,,,,,,,,,,,,,,,,,,,,,,,4,,,,,,,,,,,,,,,,,,,,,,,,,,,,,,,,,
,,,,,,,,2023-08-16_08h26.06.533,HF_wild_card,2022.2.4,MacIntel,62.5,60170c926648b891f9e5742f,64d2fd46c836a06233681665,64dc7951ef2cefcca3133bf9,,,,,,,,,,,,,,,,,,,,,,,,,,,,,,,,,,,,,,,,,,,,,,,,,,,,,,,,,,,,,,,,
,,,,,,,,2023-08-16_08h26.06.533,HF_wild_card,2022.2.4,MacIntel,62.5,60170c926648b891f9e5742f,64d2fd46c836a06233681665,64dc7951ef2cefcca3133bf9,,,,,,,,,,,,,,,,,,,,,,,,,,,,,,,,20,Door1,resources/DBN.BMP,0,0,0,0,1,,,,,,,,,,,,,,,,,,,,,,,,,
,,,,,,,,2023-08-16_08h26.06.533,HF_wild_card,2022.2.4,MacIntel,62.5,60170c926648b891f9e5742f,64d2fd46c836a06233681665,64dc7951ef2cefcca3133bf9,,,,,,,,,,,,,,,,,,,,,,,,,,,,,,,,80,Door4,resources/DG.BMP,1,0,1,0,1,,,,,,,,,,,,,,,,,,,,,,,,,
,,,,,,,,2023-08-16_08h26.06.533,HF_wild_card,2022.2.4,MacIntel,62.5,60170c926648b891f9e5742f,64d2fd46c836a06233681665,64dc7951ef2cefcca3133bf9,,,,,,,,,,,,,,,,,,,,,,,,,,,,,,,,45,WC_nonExtreme,resources/DY.BMP,2,0,2,0,1,,,,,,,,,,,,,,,,,,,,,,,,,
,,,,,,,,2023-08-16_08h26.06.533,HF_wild_card,2022.2.4,MacIntel,62.5,60170c926648b891f9e5742f,64d2fd46c836a06233681665,64dc7951ef2cefcca3133bf9,,,,,,,,,,,,,,,,,,,,,,,,,,,,,,,,60,WC_extreme,resources/DB.BMP,3,0,3,0,1,,,,,,,,,,,,,,,,,,,,,,,,,
,,,,,,,,2023-08-16_08h26.06.533,HF_wild_card,2022.2.4,MacIntel,62.5,60170c926648b891f9e5742f,64d2fd46c836a06233681665,64dc7951ef2cefcca3133bf9,,,,,,,,,,,,,,,,,,,,,,,,,,,,,,,,20,Door2,resources/DP.BMP,4,0,4,0,1,,,,,,,,,,,,,,,,,,,,,,,,,
,,,,,,,,2023-08-16_08h26.06.533,HF_wild_card,2022.2.4,MacIntel,62.5,60170c926648b891f9e5742f,64d2fd46c836a06233681665,64dc7951ef2cefcca3133bf9,,,,,,,,,,,,,,,,,,,,,,,,,,,,,,,,60,Door3,resources/DR.BMP,5,0,5,0,1,,,,,,,,,,,,,,,,,,,,,,,,,
,,,,,,,,2023-08-16_08h26.06.533,HF_wild_card,2022.2.4,MacIntel,62.5,60170c926648b891f9e5742f,64d2fd46c836a06233681665,64dc7951ef2cefcca3133bf9,,,,,,,,,,,,,,,,,,,,,,,,,,,,,,,,,,,,,,,,,,,,,,,,,,,,,,,,,,,,,,,,
,,,,,,,,2023-08-16_08h26.06.533,HF_wild_card,2022.2.4,MacIntel,62.5,60170c926648b891f9e5742f,64d2fd46c836a06233681665,64dc7951ef2cefcca3133bf9,,,,,,,,,,,,,,,,,,,,,,,,,,,,,,,,,,,,,,,,0,0,0,0,1,,,,,,,,,,,,,,,,,,,,
,,,,,,,,2023-08-16_08h26.06.533,HF_wild_card,2022.2.4,MacIntel,62.5,60170c926648b891f9e5742f,64d2fd46c836a06233681665,64dc7951ef2cefcca3133bf9,,,,,,,,,,,,,,,,,,,,,,,,,,,,,,,,,,,,,,,,1,0,1,0,1,,,,,,,,,,,,,,,,,,,,
,,,,,,,,2023-08-16_08h26.06.533,HF_wild_card,2022.2.4,MacIntel,62.5,60170c926648b891f9e5742f,64d2fd46c836a06233681665,64dc7951ef2cefcca3133bf9,,,,,,,,,,,,,,,,,,,,,,,,,,,,,,,,,,,,,,,,,,,,,-0.284444444,-0.428888889,1,0,1,yes,50%,50%,Door3,resources/DR.BMP,0,0,0,0,1,,,,,
,,,,,,,,2023-08-16_08h26.06.533,HF_wild_card,2022.2.4,MacIntel,62.5,60170c926648b891f9e5742f,64d2fd46c836a06233681665,64dc7951ef2cefcca3133bf9,,,,,,,,,,,,,,,,,,,,,,,,,,,,,,,,,,,,,,,,,,,,,,,,,,,,,,,,,,,,0,0,0,0,1
,,,,,,,,2023-08-16_08h26.06.533,HF_wild_card,2022.2.4,MacIntel,62.5,60170c926648b891f9e5742f,64d2fd46c836a06233681665,64dc7951ef2cefcca3133bf9,,,,,,,,,,,,,,,,,,,,,,,,,,,,,,,,,,,,,,,,0,0,0,0,1,,,,,,,,,,,,,,,,,,,,
,,,,,,,,2023-08-16_08h26.06.533,HF_wild_card,2022.2.4,MacIntel,62.5,60170c926648b891f9e5742f,64d2fd46c836a06233681665,64dc7951ef2cefcca3133bf9,,,,,,,,,,,,,,,,,,,,,,,,,,,,,,,,,,,,,,,,1,0,1,0,1,,,,,,,,,,,,,,,,,,,,
,,,,,,,,2023-08-16_08h26.06.533,HF_wild_card,2022.2.4,MacIntel,62.5,60170c926648b891f9e5742f,64d2fd46c836a06233681665,64dc7951ef2cefcca3133bf9,,,,,,,,,,,,,,,,,,,,,,,,,,,,,,,,,,,,,,,,,,,,,-0.285555556,-0.398888889,1,0,1,yes,100%,0%,Door1,resources/DBN.BMP,0,0,0,0,1,,,,,
,,,,,,,,2023-08-16_08h26.06.533,HF_wild_card,2022.2.4,MacIntel,62.5,60170c926648b891f9e5742f,64d2fd46c836a06233681665,64dc7951ef2cefcca3133bf9,,,,,,,,,,,,,,,,,,,,,,,,,,,,,,,,,,,,,,,,,,,,,,,,,,,,,,,,,,,,1,0,1,0,1
,,,,,,,,2023-08-16_08h26.06.533,HF_wild_card,2022.2.4,MacIntel,62.5,60170c926648b891f9e5742f,64d2fd46c836a06233681665,64dc7951ef2cefcca3133bf9,,,,,,,,,,,,,,,,,,,,,,,,,,,,,,,,,,,,,,,,0,0,0,0,1,,,,,,,,,,,,,,,,,,,,
