Condition,Low fixed image (Door1),Low risky image (Door2),High fixed image (Door3),High risky image (Door4),Extreme Wild Card,NonExtreme Wild Card,,date,expName,psychopyVersion,OS,frameRate,PROLIFIC_PID,STUDY_ID,SESSION_ID,mouse_2.x,mouse_2.y,mouse_2.leftButton,mouse_2.midButton,mouse_2.rightButton,mouse_2.clicked_name,Trial Type,Left Option Image,Right Option Image,Chosen Door,mouse.x,mouse.y,mouse.leftButton,mouse.midButton,mouse.rightButton,mouse.time,mouse.clicked_name,Feedback,Cumulative Reward,Block,trial.thisRepN,trial.thisTrialN,trial.thisN,trial.thisIndex,trial.ran,blocks.thisRepN,blocks.thisTrialN,blocks.thisN,blocks.thisIndex,blocks.ran,Money conversion,First Outcome Reported,Shown Door (First Outcome),Displayed Image (First Outcome),outcomes.thisRepN,outcomes.thisTrialN,outcomes.thisN,outcomes.thisIndex,outcomes.ran,judgments.thisRepN,judgments.thisTrialN,judgments.thisN,judgments.thisIndex,judgments.ran,freqMouse.x,freqMouse.y,freqMouse.leftButton,freqMouse.midButton,freqMouse.rightButton,freqMouse.clicked_name,FQJ for first outcome,FQJ for second outcome,Shown Door,Displayed Image,trials.thisRepN,trials.thisTrialN,trials.thisN,trials.thisIndex,trials.ran,judgBlock.thisRepN,judgBlock.thisTrialN,judgBlock.thisN,judgBlock.thisIndex,judgBlock.ran
1,resources/DBN.BMP,resources/DP.BMP,resources/DB.BMP,resources/DG.BMP,resources/DY.BMP,resources/DR.BMP,,2023-08-06_08h15.44.503,HF_wild_card,2022.2.4,Win32,29.9832094,60e03b37c87de3cc083b358b,64ce5acb97489d65b14ecc7a,64cf488975e78ea91669567c,,,,,,,,,,,,,,,,,,,,,,,,,,,,,,,,,,,,,,,,,,,,,,,,,,,,,,,,,,,,,,,,
,,,,,,,,2023-08-06_08h15.44.503,HF_wild_card,2022.2.4,Win32,29.9832094,60e03b37c87de3cc083b358b,64ce5acb97489d65b14ecc7a,64cf488975e78ea91669567c,-0.002777735,-0.418518561,1,0,0,agree,,,,,,,,,,,,,,,,,,,,,,,,,,,,,,,,,,,,,,,,,,,,,,,,,,,,,,,,,,
,,,,,,,,2023-08-06_08h15.44.503,HF_wild_card,2022.2.4,Win32,29.9832094,60e03b37c87de3cc083b358b,64ce5acb97489d65b14ecc7a,64cf488975e78ea91669567c,,,,,,,,,,,,,,,,,,,,,,,,,,,,,,,,,,,,,,,,,,,,,,,,,,,,,,,,,,,,,,,,
,,,,,,,,2023-08-06_08h15.44.503,HF_wild_card,2022.2.4,Win32,29.9832094,60e03b37c87de3cc083b358b,64ce5acb97489d65b14ecc7a,64cf488975e78ea91669567c,,,,,,,sngl,resources/Empty.png,resources/DBN.BMP,Door1,-0.047222208,-0.275000042,1,0,0,1.2499,optionRight,30,30,1,0,0,0,0,1,,,,,,,,,,,,,,,,,,,,,,,,,,,,,,,,,,,,,,,
,,,,,,,,2023-08-06_08h15.44.503,HF_wild_card,2022.2.4,Win32,29.9832094,60e03b37c87de3cc083b358b,64ce5acb97489d65b14ecc7a,64cf488975e78ea91669567c,,,,,,,decisionTrl,resources/DB.BMP,resources/DG.BMP,Door4,0.242592635,-0.040740755,1,0,0,3.4579,optionRight,80,110,1,1,0,1,0,1,,,,,,,,,,,,,,,,,,,,,,,,,,,,,,,,,,,,,,,
,,,,,,,,2023-08-06_08h15.44.503,HF_wild_card,2022.2.4,Win32,29.9832094,60e03b37c87de3cc083b358b,64ce5acb97489d65b14ecc7a,64cf488975e78ea91669567c,,,,,,,decisionTrl,resources/DP.BMP,resources/DR.BMP,Door2,-0.246296282,-0.138888889,1,0,0,1.8766,optionLeft,40,150,1,2,0,2,0,1,,,,,,,,,,,,,,,,,,,,,,,,,,,,,,,,,,,,,,,
,,,,,,,,2023-08-06_08h15.44.503,HF_wild_card,2022.2.4,Win32,29.9832094,60e03b37c87de3cc083b358b,64ce5acb97489d65b14ecc7a,64cf488975e78ea91669567c,,,,,,,ctch,resources/DBN.BMP,resources/DG.BMP,Door4,0.243518547,-0.040740755,1,0,0,1.1435,optionRight,80,230,1,3,0,3,0,1,,,,,,,,,,,,,,,,,,,,,,,,,,,,,,,,,,,,,,,
,,,,,,,,2023-08-06_08h15.44.503,HF_wild_card,2022.2.4,Win32,29.9832094,60e03b37c87de3cc083b358b,64ce5acb97489d65b14ecc7a,64cf488975e78ea91669567c,,,,,,,decisionTrl,resources/DR.BMP,resources/DP.BMP,Door2,0.215740769,-0.028703725,1,0,0,0.9928,optionRight,40,270,1,4,0,4,0,1,,,,,,,,,,,,,,,,,,,,,,,,,,,,,,,,,,,,,,,
,,,,,,,,2023-08-06_08h15.44.503,HF_wild_card,2022.2.4,Win32,29.9832094,60e03b37c87de3cc083b358b,64ce5acb97489d65b14ecc7a,64cf488975e78ea91669567c,,,,,,,decisionTrl,resources/DP.BMP,resources/DBN.BMP,Door1,0.270370413,-0.071296303,1,0,0,1.6602,optionRight,30,300,1,5,0,5,0,1,,,,,,,,,,,,,,,,,,,,,,,,,,,,,,,,,,,,,,,
,,,,,,,,2023-08-06_08h15.44.503,HF_wild_card,2022.2.4,Win32,29.9832094,60e03b37c87de3cc083b358b,64ce5acb97489d65b14ecc7a,64cf488975e78ea91669567c,,,,,,,decisionTrl,resources/DB.BMP,resources/DG.BMP,Door4,0.310185185,-0.087037051,1,0,0,1.5609,optionRight,80,380,1,6,0,6,0,1,,,,,,,,,,,,,,,,,,,,,,,,,,,,,,,,,,,,,,,
,,,,,,,,2023-08-06_08h15.44.503,HF_wild_card,2022.2.4,Win32,29.9832094,60e03b37c87de3cc083b358b,64ce5acb97489d65b14ecc7a,64cf488975e78ea91669567c,,,,,,,decisionTrl,resources/DG.BMP,resources/DB.BMP,Door4,-0.349999993,-0.006481489,1,0,0,3.0592,optionLeft,80,460,1,7,0,7,0,1,,,,,,,,,,,,,,,,,,,,,,,,,,,,,,,,,,,,,,,
,,,,,,,,2023-08-06_08h15.44.503,HF_wild_card,2022.2.4,Win32,29.9832094,60e03b37c87de3cc083b358b,64ce5acb97489d65b14ecc7a,64cf488975e78ea91669567c,,,,,,,decisionTrl,resources/DB.BMP,resources/DG.BMP,Door4,0.199999986,-0.104629658,1,0,0,1.1097,optionRight,60,520,1,8,0,8,0,1,,,,,,,,,,,,,,,,,,,,,,,,,,,,,,,,,,,,,,,
,,,,,,,,2023-08-06_08h15.44.503,HF_wild_card,2022.2.4,Win32,29.9832094,60e03b37c87de3cc083b358b,64ce5acb97489d65b14ecc7a,64cf488975e78ea91669567c,,,,,,,decisionTrl,resources/DB.BMP,resources/DR.BMP,WildCard_NonEx,0.23055557,-0.025000007,1,0,0,1.2107,optionRight,55,575,1,9,0,9,0,1,,,,,,,,,,,,,,,,,,,,,,,,,,,,,,,,,,,,,,,
,,,,,,,,2023-08-06_08h15.44.503,HF_wild_card,2022.2.4,Win32,29.9832094,60e03b37c87de3cc083b358b,64ce5acb97489d65b14ecc7a,64cf488975e78ea91669567c,,,,,,,decisionTrl,resources/DG.BMP,resources/DB.BMP,Door4,-0.291666667,-0.029629637,1,0,0,0.938,optionLeft,60,635,1,10,0,10,0,1,,,,,,,,,,,,,,,,,,,,,,,,,,,,,,,,,,,,,,,
,,,,,,,,2023-08-06_08h15.44.503,HF_wild_card,2022.2.4,Win32,29.9832094,60e03b37c87de3cc083b358b,64ce5acb97489d65b14ecc7a,64cf488975e78ea91669567c,,,,,,,decisionTrl,resources/DG.BMP,resources/DR.BMP,Door4,-0.27407406,-0.168518561,1,0,0,1.2776,optionLeft,60,695,1,11,0,11,0,1,,,,,,,,,,,,,,,,,,,,,,,,,,,,,,,,,,,,,,,
,,,,,,,,2023-08-06_08h15.44.503,HF_wild_card,2022.2.4,Win32,29.9832094,60e03b37c87de3cc083b358b,64ce5acb97489d65b14ecc7a,64cf488975e78ea91669567c,,,,,,,ctch,resources/DG.BMP,resources/DBN.BMP,Door4,-0.205555527,-0.024074095,1,0,0,1.8931,optionLeft,80,775,1,12,0,12,0,1,,,,,,,,,,,,,,,,,,,,,,,,,,,,,,,,,,,,,,,
,,,,,,,,2023-08-06_08h15.44.503,HF_wild_card,2022.2.4,Win32,29.9832094,60e03b37c87de3cc083b358b,64ce5acb97489d65b14ecc7a,64cf488975e78ea91669567c,,,,,,,sngl,resources/DP.BMP,resources/Empty.png,Door2,-0.182407379,-0.018518519,1,0,0,1.5933,optionLeft,40,815,1,13,0,13,0,1,,,,,,,,,,,,,,,,,,,,,,,,,,,,,,,,,,,,,,,
,,,,,,,,2023-08-06_08h15.44.503,HF_wild_card,2022.2.4,Win32,29.9832094,60e03b37c87de3cc083b358b,64ce5acb97489d65b14ecc7a,64cf488975e78ea91669567c,,,,,,,sngl,resources/Empty.png,resources/DR.BMP,WildCard_NonEx,0.131481524,-0.005555577,1,0,0,1.2112,optionRight,55,870,1,14,0,14,0,1,,,,,,,,,,,,,,,,,,,,,,,,,,,,,,,,,,,,,,,
,,,,,,,,2023-08-06_08h15.44.503,HF_wild_card,2022.2.4,Win32,29.9832094,60e03b37c87de3cc083b358b,64ce5acb97489d65b14ecc7a,64cf488975e78ea91669567c,,,,,,,decisionTrl,resources/DBN.BMP,resources/DP.BMP,Door2,0.363888917,-0.050925926,1,0,0,0.9939,optionRight,40,910,1,15,0,15,0,1,,,,,,,,,,,,,,,,,,,,,,,,,,,,,,,,,,,,,,,
,,,,,,,,2023-08-06_08h15.44.503,HF_wild_card,2022.2.4,Win32,29.9832094,60e03b37c87de3cc083b358b,64ce5acb97489d65b14ecc7a,64cf488975e78ea91669567c,,,,,,,decisionTrl,resources/DBN.BMP,resources/DP.BMP,Door2,0.26944443,-0.027777778,1,0,0,0.6588,optionRight,20,930,1,16,0,16,0,1,,,,,,,,,,,,,,,,,,,,,,,,,,,,,,,,,,,,,,,
,,,,,,,,2023-08-06_08h15.44.503,HF_wild_card,2022.2.4,Win32,29.9832094,60e03b37c87de3cc083b358b,64ce5acb97489d65b14ecc7a,64cf488975e78ea91669567c,,,,,,,decisionTrl,resources/DBN.BMP,resources/DP.BMP,Door2,0.195370356,-0.009259259,1,0,0,1.11,optionRight,40,970,1,17,0,17,0,1,,,,,,,,,,,,,,,,,,,,,,,,,,,,,,,,,,,,,,,
,,,,,,,,2023-08-06_08h15.44.503,HF_wild_card,2022.2.4,Win32,29.9832094,60e03b37c87de3cc083b358b,64ce5acb97489d65b14ecc7a,64cf488975e78ea91669567c,,,,,,,decisionTrl,resources/DR.BMP,resources/DB.BMP,WildCard_NonEx,-0.273148148,-0.017592607,1,0,0,1.2275,optionLeft,55,1025,1,18,0,18,0,1,,,,,,,,,,,,,,,,,,,,,,,,,,,,,,,,,,,,,,,
,,,,,,,,2023-08-06_08h15.44.503,HF_wild_card,2022.2.4,Win32,29.9832094,60e03b37c87de3cc083b358b,64ce5acb97489d65b14ecc7a,64cf488975e78ea91669567c,,,,,,,decisionTrl,resources/DG.BMP,resources/DB.BMP,Door4,-0.200925898,-0.010185206,1,0,0,8.9953,optionLeft,60,1085,1,19,0,19,0,1,,,,,,,,,,,,,,,,,,,,,,,,,,,,,,,,,,,,,,,
,,,,,,,,2023-08-06_08h15.44.503,HF_wild_card,2022.2.4,Win32,29.9832094,60e03b37c87de3cc083b358b,64ce5acb97489d65b14ecc7a,64cf488975e78ea91669567c,,,,,,,decisionTrl,resources/DB.BMP,resources/DG.BMP,Door4,0.436111168,-0.001851859,1,0,0,5.973,optionRight,60,1145,1,20,0,20,0,1,,,,,,,,,,,,,,,,,,,,,,,,,,,,,,,,,,,,,,,
,,,,,,,,2023-08-06_08h15.44.503,HF_wild_card,2022.2.4,Win32,29.9832094,60e03b37c87de3cc083b358b,64ce5acb97489d65b14ecc7a,64cf488975e78ea91669567c,,,,,,,decisionTrl,resources/DG.BMP,resources/DB.BMP,Door4,-0.176851838,-0.020370377,1,0,0,0.9452,optionLeft,80,1225,1,21,0,21,0,1,,,,,,,,,,,,,,,,,,,,,,,,,,,,,,,,,,,,,,,
,,,,,,,,2023-08-06_08h15.44.503,HF_wild_card,2022.2.4,Win32,29.9832094,60e03b37c87de3cc083b358b,64ce5acb97489d65b14ecc7a,64cf488975e78ea91669567c,,,,,,,sngl,resources/Empty.png,resources/DB.BMP,Door3,0.003703718,-0.018518519,1,0,0,0.9104,optionRight,70,1295,1,22,0,22,0,1,,,,,,,,,,,,,,,,,,,,,,,,,,,,,,,,,,,,,,,
,,,,,,,,2023-08-06_08h15.44.503,HF_wild_card,2022.2.4,Win32,29.9832094,60e03b37c87de3cc083b358b,64ce5acb97489d65b14ecc7a,64cf488975e78ea91669567c,,,,,,,ctch,resources/DP.BMP,resources/DB.BMP,Door2,-0.202777792,-0.021296289,1,0,0,0.81,optionLeft,40,1335,1,23,0,23,0,1,,,,,,,,,,,,,,,,,,,,,,,,,,,,,,,,,,,,,,,
,,,,,,,,2023-08-06_08h15.44.503,HF_wild_card,2022.2.4,Win32,29.9832094,60e03b37c87de3cc083b358b,64ce5acb97489d65b14ecc7a,64cf488975e78ea91669567c,,,,,,,decisionTrl,resources/DBN.BMP,resources/DP.BMP,Door2,0.212037051,-0.014814836,1,0,0,0.8816,optionRight,40,1375,1,24,0,24,0,1,,,,,,,,,,,,,,,,,,,,,,,,,,,,,,,,,,,,,,,
,,,,,,,,2023-08-06_08h15.44.503,HF_wild_card,2022.2.4,Win32,29.9832094,60e03b37c87de3cc083b358b,64ce5acb97489d65b14ecc7a,64cf488975e78ea91669567c,,,,,,,decisionTrl,resources/DP.BMP,resources/DBN.BMP,Door2,-0.228703675,-0.058333326,1,0,0,1.0002,optionLeft,20,1395,1,25,0,25,0,1,,,,,,,,,,,,,,,,,,,,,,,,,,,,,,,,,,,,,,,
,,,,,,,,2023-08-06_08h15.44.503,HF_wild_card,2022.2.4,Win32,29.9832094,60e03b37c87de3cc083b358b,64ce5acb97489d65b14ecc7a,64cf488975e78ea91669567c,,,,,,,ctch,resources/DP.BMP,resources/DB.BMP,Door2,-0.264814801,-0.111111111,1,0,0,0.8778,optionLeft,20,1415,1,26,0,26,0,1,,,,,,,,,,,,,,,,,,,,,,,,,,,,,,,,,,,,,,,
,,,,,,,,2023-08-06_08h15.44.503,HF_wild_card,2022.2.4,Win32,29.9832094,60e03b37c87de3cc083b358b,64ce5acb97489d65b14ecc7a,64cf488975e78ea91669567c,,,,,,,sngl,resources/Empty.png,resources/DP.BMP,Door2,0.163888931,-0.022222236,1,0,0,1.0599,optionRight,20,1435,1,27,0,27,0,1,,,,,,,,,,,,,,,,,,,,,,,,,,,,,,,,,,,,,,,
,,,,,,,,2023-08-06_08h15.44.503,HF_wild_card,2022.2.4,Win32,29.9832094,60e03b37c87de3cc083b358b,64ce5acb97489d65b14ecc7a,64cf488975e78ea91669567c,,,,,,,decisionTrl,resources/DR.BMP,resources/DG.BMP,Door4,0.209259245,-0.048148155,1,0,0,0.827,optionRight,80,1515,1,28,0,28,0,1,,,,,,,,,,,,,,,,,,,,,,,,,,,,,,,,,,,,,,,
,,,,,,,,2023-08-06_08h15.44.503,HF_wild_card,2022.2.4,Win32,29.9832094,60e03b37c87de3cc083b358b,64ce5acb97489d65b14ecc7a,64cf488975e78ea91669567c,,,,,,,sngl,resources/Empty.png,resources/DR.BMP,WildCard_NonEx,0.178703732,-0.026851866,1,0,0,0.8957,optionRight,45,1560,1,29,0,29,0,1,,,,,,,,,,,,,,,,,,,,,,,,,,,,,,,,,,,,,,,
,,,,,,,,2023-08-06_08h15.44.503,HF_wild_card,2022.2.4,Win32,29.9832094,60e03b37c87de3cc083b358b,64ce5acb97489d65b14ecc7a,64cf488975e78ea91669567c,,,,,,,ctch,resources/DB.BMP,resources/DP.BMP,Door2,0.222222222,-0.067592586,1,0,0,0.8104,optionRight,40,1600,1,30,0,30,0,1,,,,,,,,,,,,,,,,,,,,,,,,,,,,,,,,,,,,,,,
,,,,,,,,2023-08-06_08h15.44.503,HF_wild_card,2022.2.4,Win32,29.9832094,60e03b37c87de3cc083b358b,64ce5acb97489d65b14ecc7a,64cf488975e78ea91669567c,,,,,,,sngl,resources/DBN.BMP,resources/Empty.png,Door1,-0.012036995,-0.000925947,1,0,0,1.6443,optionLeft,30,1630,1,31,0,31,0,1,,,,,,,,,,,,,,,,,,,,,,,,,,,,,,,,,,,,,,,
,,,,,,,,2023-08-06_08h15.44.503,HF_wild_card,2022.2.4,Win32,29.9832094,60e03b37c87de3cc083b358b,64ce5acb97489d65b14ecc7a,64cf488975e78ea91669567c,,,,,,,ctch,resources/DG.BMP,resources/DBN.BMP,Door4,-0.248148106,-0.086111104,1,0,0,0.996,optionLeft,80,1710,1,32,0,32,0,1,,,,,,,,,,,,,,,,,,,,,,,,,,,,,,,,,,,,,,,
,,,,,,,,2023-08-06_08h15.44.503,HF_wild_card,2022.2.4,Win32,29.9832094,60e03b37c87de3cc083b358b,64ce5acb97489d65b14ecc7a,64cf488975e78ea91669567c,,,,,,,sngl,resources/DR.BMP,resources/Empty.png,WildCard_NonEx,-0.206481439,-0.075925933,1,0,0,0.8475,optionLeft,55,1765,1,33,0,33,0,1,,,,,,,,,,,,,,,,,,,,,,,,,,,,,,,,,,,,,,,
,,,,,,,,2023-08-06_08h15.44.503,HF_wild_card,2022.2.4,Win32,29.9832094,60e03b37c87de3cc083b358b,64ce5acb97489d65b14ecc7a,64cf488975e78ea91669567c,,,,,,,decisionTrl,resources/DBN.BMP,resources/DR.BMP,WildCard_NonEx,0.217592593,-0.025925919,1,0,0,2.3119,optionRight,45,1810,1,34,0,34,0,1,,,,,,,,,,,,,,,,,,,,,,,,,,,,,,,,,,,,,,,
,,,,,,,,2023-08-06_08h15.44.503,HF_wild_card,2022.2.4,Win32,29.9832094,60e03b37c87de3cc083b358b,64ce5acb97489d65b14ecc7a,64cf488975e78ea91669567c,,,,,,,ctch,resources/DB.BMP,resources/DP.BMP,Door2,0.18240745,-0.054629644,1,0,0,1.1582,optionRight,20,1830,1,35,0,35,0,1,,,,,,,,,,,,,,,,,,,,,,,,,,,,,,,,,,,,,,,
,,,,,,,,2023-08-06_08h15.44.503,HF_wild_card,2022.2.4,Win32,29.9832094,60e03b37c87de3cc083b358b,64ce5acb97489d65b14ecc7a,64cf488975e78ea91669567c,,,,,,,decisionTrl,resources/DP.BMP,resources/DBN.BMP,Door2,-0.186111097,-0.118518547,1,0,0,1.7101,optionLeft,40,1870,1,36,0,36,0,1,,,,,,,,,,,,,,,,,,,,,,,,,,,,,,,,,,,,,,,
,,,,,,,,2023-08-06_08h15.44.503,HF_wild_card,2022.2.4,Win32,29.9832094,60e03b37c87de3cc083b358b,64ce5acb97489d65b14ecc7a,64cf488975e78ea91669567c,,,,,,,decisionTrl,resources/DP.BMP,resources/DBN.BMP,Door2,-0.010185171,-0.011111118,1,0,0,2.8263,optionLeft,40,1910,1,37,0,37,0,1,,,,,,,,,,,,,,,,,,,,,,,,,,,,,,,,,,,,,,,
,,,,,,,,2023-08-06_08h15.44.503,HF_wild_card,2022.2.4,Win32,29.9832094,60e03b37c87de3cc083b358b,64ce5acb97489d65b14ecc7a,64cf488975e78ea91669567c,,,,,,,sngl,resources/Empty.png,resources/DG.BMP,Door4,0.215740769,-0.063888903,1,0,0,0.8445,optionRight,60,1970,1,38,0,38,0,1,,,,,,,,,,,,,,,,,,,,,,,,,,,,,,,,,,,,,,,
,,,,,,,,2023-08-06_08h15.44.503,HF_wild_card,2022.2.4,Win32,29.9832094,60e03b37c87de3cc083b358b,64ce5acb97489d65b14ecc7a,64cf488975e78ea91669567c,,,,,,,sngl,resources/DB.BMP,resources/Empty.png,Door3,-0.264814801,-0.089814822,1,0,0,0.7604,optionLeft,70,2040,1,39,0,39,0,1,,,,,,,,,,,,,,,,,,,,,,,,,,,,,,,,,,,,,,,
,,,,,,,,2023-08-06_08h15.44.503,HF_wild_card,2022.2.4,Win32,29.9832094,60e03b37c87de3cc083b358b,64ce5acb97489d65b14ecc7a,64cf488975e78ea91669567c,,,,,,,sngl,resources/DG.BMP,resources/Empty.png,Door4,-0.312962956,-0.025925919,1,0,0,0.629,optionLeft,80,2120,1,40,0,40,0,1,,,,,,,,,,,,,,,,,,,,,,,,,,,,,,,,,,,,,,,
,,,,,,,,2023-08-06_08h15.44.503,HF_wild_card,2022.2.4,Win32,29.9832094,60e03b37c87de3cc083b358b,64ce5acb97489d65b14ecc7a,64cf488975e78ea91669567c,,,,,,,sngl,resources/DR.BMP,resources/Empty.png,WildCard_NonEx,-0.234259217,0.045370349,1,0,0,0.8439,optionLeft,45,2165,1,41,0,41,0,1,,,,,,,,,,,,,,,,,,,,,,,,,,,,,,,,,,,,,,,
,,,,,,,,2023-08-06_08h15.44.503,HF_wild_card,2022.2.4,Win32,29.9832094,60e03b37c87de3cc083b358b,64ce5acb97489d65b14ecc7a,64cf488975e78ea91669567c,,,,,,,ctch,resources/DBN.BMP,resources/DG.BMP,Door4,0.240740741,-0.046296296,1,0,0,0.8974,optionRight,60,2225,1,42,0,42,0,1,,,,,,,,,,,,,,,,,,,,,,,,,,,,,,,,,,,,,,,
,,,,,,,,2023-08-06_08h15.44.503,HF_wild_card,2022.2.4,Win32,29.9832094,60e03b37c87de3cc083b358b,64ce5acb97489d65b14ecc7a,64cf488975e78ea91669567c,,,,,,,decisionTrl,resources/DR.BMP,resources/DBN.BMP,WildCard_NonEx,-0.335185192,0.005555541,1,0,0,0.9434,optionLeft,55,2280,1,43,0,43,0,1,,,,,,,,,,,,,,,,,,,,,,,,,,,,,,,,,,,,,,,
,,,,,,,,2023-08-06_08h15.44.503,HF_wild_card,2022.2.4,Win32,29.9832094,60e03b37c87de3cc083b358b,64ce5acb97489d65b14ecc7a,64cf488975e78ea91669567c,,,,,,,,,,,,,,,,,,,,,,,,,,0,0,0,0,1,,,,,,,,,,,,,,,,,,,,,,,,,,,,,,,,,,
,,,,,,,,2023-08-06_08h15.44.503,HF_wild_card,2022.2.4,Win32,29.9832094,60e03b37c87de3cc083b358b,64ce5acb97489d65b14ecc7a,64cf488975e78ea91669567c,,,,,,,decisionTrl,resources/DG.BMP,resources/DB.BMP,Door4,-0.194444444,-0.199074074,1,0,0,1.0801,optionLeft,60,2340,2,0,0,0,0,1,,,,,,,,,,,,,,,,,,,,,,,,,,,,,,,,,,,,,,,
,,,,,,,,2023-08-06_08h15.44.503,HF_wild_card,2022.2.4,Win32,29.9832094,60e03b37c87de3cc083b358b,64ce5acb97489d65b14ecc7a,64cf488975e78ea91669567c,,,,,,,ctch,resources/DP.BMP,resources/DB.BMP,Door2,-0.22129631,-0.121296282,1,0,0,1.0279,optionLeft,40,2380,2,1,0,1,0,1,,,,,,,,,,,,,,,,,,,,,,,,,,,,,,,,,,,,,,,
,,,,,,,,2023-08-06_08h15.44.503,HF_wild_card,2022.2.4,Win32,29.9832094,60e03b37c87de3cc083b358b,64ce5acb97489d65b14ecc7a,64cf488975e78ea91669567c,,,,,,,ctch,resources/DBN.BMP,resources/DG.BMP,Door4,0.313888974,-0.005555577,1,0,0,2.2616,optionRight,60,2440,2,2,0,2,0,1,,,,,,,,,,,,,,,,,,,,,,,,,,,,,,,,,,,,,,,
,,,,,,,,2023-08-06_08h15.44.503,HF_wild_card,2022.2.4,Win32,29.9832094,60e03b37c87de3cc083b358b,64ce5acb97489d65b14ecc7a,64cf488975e78ea91669567c,,,,,,,sngl,resources/DB.BMP,resources/Empty.png,Door3,-0.212037051,-0.010185206,1,0,0,1.0252,optionLeft,70,2510,2,3,0,3,0,1,,,,,,,,,,,,,,,,,,,,,,,,,,,,,,,,,,,,,,,
,,,,,,,,2023-08-06_08h15.44.503,HF_wild_card,2022.2.4,Win32,29.9832094,60e03b37c87de3cc083b358b,64ce5acb97489d65b14ecc7a,64cf488975e78ea91669567c,,,,,,,decisionTrl,resources/DB.BMP,resources/DG.BMP,Door4,0.20185188,-0.067592586,1,0,0,0.8105,optionRight,80,2590,2,4,0,4,0,1,,,,,,,,,,,,,,,,,,,,,,,,,,,,,,,,,,,,,,,
,,,,,,,,2023-08-06_08h15.44.503,HF_wild_card,2022.2.4,Win32,29.9832094,60e03b37c87de3cc083b358b,64ce5acb97489d65b14ecc7a,64cf488975e78ea91669567c,,,,,,,decisionTrl,resources/DP.BMP,resources/DR.BMP,Door2,-0.405555548,-0.137962977,1,0,0,1.1947,optionLeft,20,2610,2,5,0,5,0,1,,,,,,,,,,,,,,,,,,,,,,,,,,,,,,,,,,,,,,,
,,,,,,,,2023-08-06_08h15.44.503,HF_wild_card,2022.2.4,Win32,29.9832094,60e03b37c87de3cc083b358b,64ce5acb97489d65b14ecc7a,64cf488975e78ea91669567c,,,,,,,decisionTrl,resources/DG.BMP,resources/DB.BMP,Door4,-0.16851849,-0.025925919,1,0,0,0.9438,optionLeft,80,2690,2,6,0,6,0,1,,,,,,,,,,,,,,,,,,,,,,,,,,,,,,,,,,,,,,,
,,,,,,,,2023-08-06_08h15.44.503,HF_wild_card,2022.2.4,Win32,29.9832094,60e03b37c87de3cc083b358b,64ce5acb97489d65b14ecc7a,64cf488975e78ea91669567c,,,,,,,decisionTrl,resources/DR.BMP,resources/DBN.BMP,WildCard_NonEx,-0.212962963,-0.054629644,1,0,0,0.896,optionLeft,55,2745,2,7,0,7,0,1,,,,,,,,,,,,,,,,,,,,,,,,,,,,,,,,,,,,,,,
,,,,,,,,2023-08-06_08h15.44.503,HF_wild_card,2022.2.4,Win32,29.9832094,60e03b37c87de3cc083b358b,64ce5acb97489d65b14ecc7a,64cf488975e78ea91669567c,,,,,,,decisionTrl,resources/DP.BMP,resources/DBN.BMP,Door2,-0.152777778,-0.025000007,1,0,0,0.7445,optionLeft,40,2785,2,8,0,8,0,1,,,,,,,,,,,,,,,,,,,,,,,,,,,,,,,,,,,,,,,
,,,,,,,,2023-08-06_08h15.44.503,HF_wild_card,2022.2.4,Win32,29.9832094,60e03b37c87de3cc083b358b,64ce5acb97489d65b14ecc7a,64cf488975e78ea91669567c,,,,,,,decisionTrl,resources/DP.BMP,resources/DBN.BMP,Door2,-0.145370342,-0.09629631,1,0,0,0.8612,optionLeft,20,2805,2,9,0,9,0,1,,,,,,,,,,,,,,,,,,,,,,,,,,,,,,,,,,,,,,,
,,,,,,,,2023-08-06_08h15.44.503,HF_wild_card,2022.2.4,Win32,29.9832094,60e03b37c87de3cc083b358b,64ce5acb97489d65b14ecc7a,64cf488975e78ea91669567c,,,,,,,sngl,resources/Empty.png,resources/DR.BMP,WildCard_NonEx,0.121296282,-0.072222215,1,0,0,0.8438,optionRight,55,2860,2,10,0,10,0,1,,,,,,,,,,,,,,,,,,,,,,,,,,,,,,,,,,,,,,,
,,,,,,,,2023-08-06_08h15.44.503,HF_wild_card,2022.2.4,Win32,29.9832094,60e03b37c87de3cc083b358b,64ce5acb97489d65b14ecc7a,64cf488975e78ea91669567c,,,,,,,ctch,resources/DB.BMP,resources/DP.BMP,Door2,0.242592635,-0.050925926,1,0,0,0.8937,optionRight,40,2900,2,11,0,11,0,1,,,,,,,,,,,,,,,,,,,,,,,,,,,,,,,,,,,,,,,
,,,,,,,,2023-08-06_08h15.44.503,HF_wild_card,2022.2.4,Win32,29.9832094,60e03b37c87de3cc083b358b,64ce5acb97489d65b14ecc7a,64cf488975e78ea91669567c,,,,,,,sngl,resources/Empty.png,resources/DP.BMP,Door2,0.195370356,-0.018518519,1,0,0,0.8623,optionRight,40,2940,2,12,0,12,0,1,,,,,,,,,,,,,,,,,,,,,,,,,,,,,,,,,,,,,,,
,,,,,,,,2023-08-06_08h15.44.503,HF_wild_card,2022.2.4,Win32,29.9832094,60e03b37c87de3cc083b358b,64ce5acb97489d65b14ecc7a,64cf488975e78ea91669567c,,,,,,,decisionTrl,resources/DG.BMP,resources/DB.BMP,Door4,-0.339814822,-0.042592614,1,0,0,1.827,optionLeft,80,3020,2,13,0,13,0,1,,,,,,,,,,,,,,,,,,,,,,,,,,,,,,,,,,,,,,,
,,,,,,,,2023-08-06_08h15.44.503,HF_wild_card,2022.2.4,Win32,29.9832094,60e03b37c87de3cc083b358b,64ce5acb97489d65b14ecc7a,64cf488975e78ea91669567c,,,,,,,decisionTrl,resources/DG.BMP,resources/DB.BMP,Door4,-0.157407407,-0.001851859,1,0,0,2.1517,optionLeft,60,3080,2,14,0,14,0,1,,,,,,,,,,,,,,,,,,,,,,,,,,,,,,,,,,,,,,,
,,,,,,,,2023-08-06_08h15.44.503,HF_wild_card,2022.2.4,Win32,29.9832094,60e03b37c87de3cc083b358b,64ce5acb97489d65b14ecc7a,64cf488975e78ea91669567c,,,,,,,ctch,resources/DG.BMP,resources/DBN.BMP,Door4,-0.23055557,-0.050925926,1,0,0,0.7489,optionLeft,80,3160,2,15,0,15,0,1,,,,,,,,,,,,,,,,,,,,,,,,,,,,,,,,,,,,,,,
,,,,,,,,2023-08-06_08h15.44.503,HF_wild_card,2022.2.4,Win32,29.9832094,60e03b37c87de3cc083b358b,64ce5acb97489d65b14ecc7a,64cf488975e78ea91669567c,,,,,,,sngl,resources/Empty.png,resources/DR.BMP,WildCard_NonEx,0.211111139,-0.002777771,1,0,0,0.9453,optionRight,45,3205,2,16,0,16,0,1,,,,,,,,,,,,,,,,,,,,,,,,,,,,,,,,,,,,,,,
,,,,,,,,2023-08-06_08h15.44.503,HF_wild_card,2022.2.4,Win32,29.9832094,60e03b37c87de3cc083b358b,64ce5acb97489d65b14ecc7a,64cf488975e78ea91669567c,,,,,,,sngl,resources/DR.BMP,resources/Empty.png,WildCard_NonEx,-0.248148106,-0.090740734,1,0,0,0.7454,optionLeft,45,3250,2,17,0,17,0,1,,,,,,,,,,,,,,,,,,,,,,,,,,,,,,,,,,,,,,,
,,,,,,,,2023-08-06_08h15.44.503,HF_wild_card,2022.2.4,Win32,29.9832094,60e03b37c87de3cc083b358b,64ce5acb97489d65b14ecc7a,64cf488975e78ea91669567c,,,,,,,sngl,resources/Empty.png,resources/DBN.BMP,Door1,0.295370384,-0.051851873,1,0,0,0.761,optionRight,30,3280,2,18,0,18,0,1,,,,,,,,,,,,,,,,,,,,,,,,,,,,,,,,,,,,,,,
,,,,,,,,2023-08-06_08h15.44.503,HF_wild_card,2022.2.4,Win32,29.9832094,60e03b37c87de3cc083b358b,64ce5acb97489d65b14ecc7a,64cf488975e78ea91669567c,,,,,,,decisionTrl,resources/DG.BMP,resources/DR.BMP,Door4,-0.261111083,-0.066666674,1,0,0,0.727,optionLeft,60,3340,2,19,0,19,0,1,,,,,,,,,,,,,,,,,,,,,,,,,,,,,,,,,,,,,,,
,,,,,,,,2023-08-06_08h15.44.503,HF_wild_card,2022.2.4,Win32,29.9832094,60e03b37c87de3cc083b358b,64ce5acb97489d65b14ecc7a,64cf488975e78ea91669567c,,,,,,,ctch,resources/DP.BMP,resources/DB.BMP,Door2,-0.162037037,0.020370377,1,0,0,0.7792,optionLeft,40,3380,2,20,0,20,0,1,,,,,,,,,,,,,,,,,,,,,,,,,,,,,,,,,,,,,,,
,,,,,,,,2023-08-06_08h15.44.503,HF_wild_card,2022.2.4,Win32,29.9832094,60e03b37c87de3cc083b358b,64ce5acb97489d65b14ecc7a,64cf488975e78ea91669567c,,,,,,,decisionTrl,resources/DP.BMP,resources/DBN.BMP,Door2,-0.251851824,0.009259259,1,0,0,0.7445,optionLeft,20,3400,2,21,0,21,0,1,,,,,,,,,,,,,,,,,,,,,,,,,,,,,,,,,,,,,,,
,,,,,,,,2023-08-06_08h15.44.503,HF_wild_card,2022.2.4,Win32,29.9832094,60e03b37c87de3cc083b358b,64ce5acb97489d65b14ecc7a,64cf488975e78ea91669567c,,,,,,,sngl,resources/DG.BMP,resources/Empty.png,Door4,-0.161111125,-0.050000014,1,0,0,0.8606,optionLeft,60,3460,2,22,0,22,0,1,,,,,,,,,,,,,,,,,,,,,,,,,,,,,,,,,,,,,,,
,,,,,,,,2023-08-06_08h15.44.503,HF_wild_card,2022.2.4,Win32,29.9832094,60e03b37c87de3cc083b358b,64ce5acb97489d65b14ecc7a,64cf488975e78ea91669567c,,,,,,,sngl,resources/Empty.png,resources/DB.BMP,Door3,0.23055557,-0.039814808,1,0,0,3.7792,optionRight,70,3530,2,23,0,23,0,1,,,,,,,,,,,,,,,,,,,,,,,,,,,,,,,,,,,,,,,
,,,,,,,,2023-08-06_08h15.44.503,HF_wild_card,2022.2.4,Win32,29.9832094,60e03b37c87de3cc083b358b,64ce5acb97489d65b14ecc7a,64cf488975e78ea91669567c,,,,,,,decisionTrl,resources/DBN.BMP,resources/DP.BMP,Door2,0.313888974,-0.00462963,1,0,0,1.1447,optionRight,40,3570,2,24,0,24,0,1,,,,,,,,,,,,,,,,,,,,,,,,,,,,,,,,,,,,,,,
,,,,,,,,2023-08-06_08h15.44.503,HF_wild_card,2022.2.4,Win32,29.9832094,60e03b37c87de3cc083b358b,64ce5acb97489d65b14ecc7a,64cf488975e78ea91669567c,,,,,,,decisionTrl,resources/DBN.BMP,resources/DP.BMP,Door2,0.205555598,-0.044444437,1,0,0,0.8618,optionRight,40,3610,2,25,0,25,0,1,,,,,,,,,,,,,,,,,,,,,,,,,,,,,,,,,,,,,,,
,,,,,,,,2023-08-06_08h15.44.503,HF_wild_card,2022.2.4,Win32,29.9832094,60e03b37c87de3cc083b358b,64ce5acb97489d65b14ecc7a,64cf488975e78ea91669567c,,,,,,,decisionTrl,resources/DR.BMP,resources/DG.BMP,Door4,0.107407393,-0.017592607,1,0,0,0.8108,optionRight,60,3670,2,26,0,26,0,1,,,,,,,,,,,,,,,,,,,,,,,,,,,,,,,,,,,,,,,
,,,,,,,,2023-08-06_08h15.44.503,HF_wild_card,2022.2.4,Win32,29.9832094,60e03b37c87de3cc083b358b,64ce5acb97489d65b14ecc7a,64cf488975e78ea91669567c,,,,,,,decisionTrl,resources/DP.BMP,resources/DBN.BMP,Door2,-0.169444402,-0.059259273,1,0,0,1.0277,optionLeft,20,3690,2,27,0,27,0,1,,,,,,,,,,,,,,,,,,,,,,,,,,,,,,,,,,,,,,,
,,,,,,,,2023-08-06_08h15.44.503,HF_wild_card,2022.2.4,Win32,29.9832094,60e03b37c87de3cc083b358b,64ce5acb97489d65b14ecc7a,64cf488975e78ea91669567c,,,,,,,ctch,resources/DB.BMP,resources/DP.BMP,Door2,0.208333333,0.006481489,1,0,0,0.9773,optionRight,40,3730,2,28,0,28,0,1,,,,,,,,,,,,,,,,,,,,,,,,,,,,,,,,,,,,,,,
,,,,,,,,2023-08-06_08h15.44.503,HF_wild_card,2022.2.4,Win32,29.9832094,60e03b37c87de3cc083b358b,64ce5acb97489d65b14ecc7a,64cf488975e78ea91669567c,,,,,,,sngl,resources/DP.BMP,resources/Empty.png,Door2,-0.290740755,-0.040740755,1,0,0,1.1784,optionLeft,20,3750,2,29,0,29,0,1,,,,,,,,,,,,,,,,,,,,,,,,,,,,,,,,,,,,,,,
,,,,,,,,2023-08-06_08h15.44.503,HF_wild_card,2022.2.4,Win32,29.9832094,60e03b37c87de3cc083b358b,64ce5acb97489d65b14ecc7a,64cf488975e78ea91669567c,,,,,,,sngl,resources/Empty.png,resources/DG.BMP,Door4,0.36018527,-0.018518519,1,0,0,0.9604,optionRight,80,3830,2,30,0,30,0,1,,,,,,,,,,,,,,,,,,,,,,,,,,,,,,,,,,,,,,,
,,,,,,,,2023-08-06_08h15.44.503,HF_wild_card,2022.2.4,Win32,29.9832094,60e03b37c87de3cc083b358b,64ce5acb97489d65b14ecc7a,64cf488975e78ea91669567c,,,,,,,ctch,resources/DBN.BMP,resources/DG.BMP,Door4,0.185185185,0.022222201,1,0,0,1.2366,optionRight,60,3890,2,31,0,31,0,1,,,,,,,,,,,,,,,,,,,,,,,,,,,,,,,,,,,,,,,
,,,,,,,,2023-08-06_08h15.44.503,HF_wild_card,2022.2.4,Win32,29.9832094,60e03b37c87de3cc083b358b,64ce5acb97489d65b14ecc7a,64cf488975e78ea91669567c,,,,,,,decisionTrl,resources/DBN.BMP,resources/DP.BMP,Door2,0.40370376,-0.123148176,1,0,0,0.8784,optionRight,20,3910,2,32,0,32,0,1,,,,,,,,,,,,,,,,,,,,,,,,,,,,,,,,,,,,,,,
,,,,,,,,2023-08-06_08h15.44.503,HF_wild_card,2022.2.4,Win32,29.9832094,60e03b37c87de3cc083b358b,64ce5acb97489d65b14ecc7a,64cf488975e78ea91669567c,,,,,,,decisionTrl,resources/DB.BMP,resources/DG.BMP,Door4,0.229629658,-0.036111125,1,0,0,0.9093,optionRight,80,3990,2,33,0,33,0,1,,,,,,,,,,,,,,,,,,,,,,,,,,,,,,,,,,,,,,,
,,,,,,,,2023-08-06_08h15.44.503,HF_wild_card,2022.2.4,Win32,29.9832094,60e03b37c87de3cc083b358b,64ce5acb97489d65b14ecc7a,64cf488975e78ea91669567c,,,,,,,decisionTrl,resources/DB.BMP,resources/DG.BMP,Door4,0.327777863,0.011111118,1,0,0,2.6955,optionRight,80,4070,2,34,0,34,0,1,,,,,,,,,,,,,,,,,,,,,,,,,,,,,,,,,,,,,,,
,,,,,,,,2023-08-06_08h15.44.503,HF_wild_card,2022.2.4,Win32,29.9832094,60e03b37c87de3cc083b358b,64ce5acb97489d65b14ecc7a,64cf488975e78ea91669567c,,,,,,,decisionTrl,resources/DR.BMP,resources/DP.BMP,Door2,0.29814812,-0.032407407,1,0,0,2.2945,optionRight,40,4110,2,35,0,35,0,1,,,,,,,,,,,,,,,,,,,,,,,,,,,,,,,,,,,,,,,
,,,,,,,,2023-08-06_08h15.44.503,HF_wild_card,2022.2.4,Win32,29.9832094,60e03b37c87de3cc083b358b,64ce5acb97489d65b14ecc7a,64cf488975e78ea91669567c,,,,,,,decisionTrl,resources/DB.BMP,resources/DR.BMP,WildCard_NonEx,0.27870369,-0.036111125,1,0,0,1.502,optionRight,45,4155,2,36,0,36,0,1,,,,,,,,,,,,,,,,,,,,,,,,,,,,,,,,,,,,,,,
,,,,,,,,2023-08-06_08h15.44.503,HF_wild_card,2022.2.4,Win32,29.9832094,60e03b37c87de3cc083b358b,64ce5acb97489d65b14ecc7a,64cf488975e78ea91669567c,,,,,,,decisionTrl,resources/DB.BMP,resources/DG.BMP,Door4,0.189814815,-0.071296303,1,0,0,1.2291,optionRight,60,4215,2,37,0,37,0,1,,,,,,,,,,,,,,,,,,,,,,,,,,,,,,,,,,,,,,,
,,,,,,,,2023-08-06_08h15.44.503,HF_wild_card,2022.2.4,Win32,29.9832094,60e03b37c87de3cc083b358b,64ce5acb97489d65b14ecc7a,64cf488975e78ea91669567c,,,,,,,decisionTrl,resources/DR.BMP,resources/DB.BMP,WildCard_NonEx,-0.313888868,-0.063888903,1,0,0,2.063,optionLeft,45,4260,2,38,0,38,0,1,,,,,,,,,,,,,,,,,,,,,,,,,,,,,,,,,,,,,,,
,,,,,,,,2023-08-06_08h15.44.503,HF_wild_card,2022.2.4,Win32,29.9832094,60e03b37c87de3cc083b358b,64ce5acb97489d65b14ecc7a,64cf488975e78ea91669567c,,,,,,,sngl,resources/DR.BMP,resources/Empty.png,WildCard_NonEx,-0.17314812,-0.022222236,1,0,0,0.8442,optionLeft,55,4315,2,39,0,39,0,1,,,,,,,,,,,,,,,,,,,,,,,,,,,,,,,,,,,,,,,
,,,,,,,,2023-08-06_08h15.44.503,HF_wild_card,2022.2.4,Win32,29.9832094,60e03b37c87de3cc083b358b,64ce5acb97489d65b14ecc7a,64cf488975e78ea91669567c,,,,,,,decisionTrl,resources/DBN.BMP,resources/DP.BMP,Door2,0.231481481,-0.050000014,1,0,0,1.1714,optionRight,20,4335,2,40,0,40,0,1,,,,,,,,,,,,,,,,,,,,,,,,,,,,,,,,,,,,,,,
,,,,,,,,2023-08-06_08h15.44.503,HF_wild_card,2022.2.4,Win32,29.9832094,60e03b37c87de3cc083b358b,64ce5acb97489d65b14ecc7a,64cf488975e78ea91669567c,,,,,,,sngl,resources/DBN.BMP,resources/Empty.png,Door1,-0.22592594,-0.029629637,1,0,0,1.3606,optionLeft,30,4365,2,41,0,41,0,1,,,,,,,,,,,,,,,,,,,,,,,,,,,,,,,,,,,,,,,
,,,,,,,,2023-08-06_08h15.44.503,HF_wild_card,2022.2.4,Win32,29.9832094,60e03b37c87de3cc083b358b,64ce5acb97489d65b14ecc7a,64cf488975e78ea91669567c,,,,,,,decisionTrl,resources/DBN.BMP,resources/DR.BMP,WildCard_NonEx,0.325925898,-0.060185185,1,0,0,0.7283,optionRight,55,4420,2,42,0,42,0,1,,,,,,,,,,,,,,,,,,,,,,,,,,,,,,,,,,,,,,,
,,,,,,,,2023-08-06_08h15.44.503,HF_wild_card,2022.2.4,Win32,29.9832094,60e03b37c87de3cc083b358b,64ce5acb97489d65b14ecc7a,64cf488975e78ea91669567c,,,,,,,ctch,resources/DG.BMP,resources/DBN.BMP,Door4,-0.264814801,-0.122222265,1,0,0,1.3938,optionLeft,80,4500,2,43,0,43,0,1,,,,,,,,,,,,,,,,,,,,,,,,,,,,,,,,,,,,,,,
,,,,,,,,2023-08-06_08h15.44.503,HF_wild_card,2022.2.4,Win32,29.9832094,60e03b37c87de3cc083b358b,64ce5acb97489d65b14ecc7a,64cf488975e78ea91669567c,,,,,,,,,,,,,,,,,,,,,,,,,,1,0,1,0,1,,,,,,,,,,,,,,,,,,,,,,,,,,,,,,,,,,
,,,,,,,,2023-08-06_08h15.44.503,HF_wild_card,2022.2.4,Win32,29.9832094,60e03b37c87de3cc083b358b,64ce5acb97489d65b14ecc7a,64cf488975e78ea91669567c,,,,,,,sngl,resources/Empty.png,resources/DR.BMP,WildCard_NonEx,0.253703718,-0.113888917,1,0,0,1.1783,optionRight,55,4555,3,0,0,0,0,1,,,,,,,,,,,,,,,,,,,,,,,,,,,,,,,,,,,,,,,
,,,,,,,,2023-08-06_08h15.44.503,HF_wild_card,2022.2.4,Win32,29.9832094,60e03b37c87de3cc083b358b,64ce5acb97489d65b14ecc7a,64cf488975e78ea91669567c,,,,,,,decisionTrl,resources/DBN.BMP,resources/DP.BMP,Door2,0.193518533,-0.035185178,1,0,0,0.7772,optionRight,40,4595,3,1,0,1,0,1,,,,,,,,,,,,,,,,,,,,,,,,,,,,,,,,,,,,,,,
,,,,,,,,2023-08-06_08h15.44.503,HF_wild_card,2022.2.4,Win32,29.9832094,60e03b37c87de3cc083b358b,64ce5acb97489d65b14ecc7a,64cf488975e78ea91669567c,,,,,,,ctch,resources/DP.BMP,resources/DB.BMP,Door2,-0.248148106,-0.003703718,1,0,0,1.0287,optionLeft,40,4635,3,2,0,2,0,1,,,,,,,,,,,,,,,,,,,,,,,,,,,,,,,,,,,,,,,
,,,,,,,,2023-08-06_08h15.44.503,HF_wild_card,2022.2.4,Win32,29.9832094,60e03b37c87de3cc083b358b,64ce5acb97489d65b14ecc7a,64cf488975e78ea91669567c,,,,,,,sngl,resources/Empty.png,resources/DBN.BMP,Door1,0.234259288,-0.022222236,1,0,0,0.6263,optionRight,30,4665,3,3,0,3,0,1,,,,,,,,,,,,,,,,,,,,,,,,,,,,,,,,,,,,,,,
,,,,,,,,2023-08-06_08h15.44.503,HF_wild_card,2022.2.4,Win32,29.9832094,60e03b37c87de3cc083b358b,64ce5acb97489d65b14ecc7a,64cf488975e78ea91669567c,,,,,,,ctch,resources/DG.BMP,resources/DBN.BMP,Door4,-0.187962921,-0.010185206,1,0,0,0.8932,optionLeft,60,4725,3,4,0,4,0,1,,,,,,,,,,,,,,,,,,,,,,,,,,,,,,,,,,,,,,,
,,,,,,,,2023-08-06_08h15.44.503,HF_wild_card,2022.2.4,Win32,29.9832094,60e03b37c87de3cc083b358b,64ce5acb97489d65b14ecc7a,64cf488975e78ea91669567c,,,,,,,decisionTrl,resources/DP.BMP,resources/DBN.BMP,Door2,-0.262036995,-0.057407414,1,0,0,0.8947,optionLeft,40,4765,3,5,0,5,0,1,,,,,,,,,,,,,,,,,,,,,,,,,,,,,,,,,,,,,,,
,,,,,,,,2023-08-06_08h15.44.503,HF_wild_card,2022.2.4,Win32,29.9832094,60e03b37c87de3cc083b358b,64ce5acb97489d65b14ecc7a,64cf488975e78ea91669567c,,,,,,,ctch,resources/DBN.BMP,resources/DG.BMP,Door4,0.24537037,-0.023148148,1,0,0,0.8284,optionRight,60,4825,3,6,0,6,0,1,,,,,,,,,,,,,,,,,,,,,,,,,,,,,,,,,,,,,,,
,,,,,,,,2023-08-06_08h15.44.503,HF_wild_card,2022.2.4,Win32,29.9832094,60e03b37c87de3cc083b358b,64ce5acb97489d65b14ecc7a,64cf488975e78ea91669567c,,,,,,,ctch,resources/DG.BMP,resources/DBN.BMP,Door4,-0.160185143,-0.039814808,1,0,0,0.7633,optionLeft,60,4885,3,7,0,7,0,1,,,,,,,,,,,,,,,,,,,,,,,,,,,,,,,,,,,,,,,
,,,,,,,,2023-08-06_08h15.44.503,HF_wild_card,2022.2.4,Win32,29.9832094,60e03b37c87de3cc083b358b,64ce5acb97489d65b14ecc7a,64cf488975e78ea91669567c,,,,,,,decisionTrl,resources/DP.BMP,resources/DBN.BMP,Door1,0.233333376,-0.039814808,1,0,0,0.761,optionRight,30,4915,3,8,0,8,0,1,,,,,,,,,,,,,,,,,,,,,,,,,,,,,,,,,,,,,,,
,,,,,,,,2023-08-06_08h15.44.503,HF_wild_card,2022.2.4,Win32,29.9832094,60e03b37c87de3cc083b358b,64ce5acb97489d65b14ecc7a,64cf488975e78ea91669567c,,,,,,,decisionTrl,resources/DBN.BMP,resources/DP.BMP,Door2,0.217592593,-0.027777778,1,0,0,1.1093,optionRight,40,4955,3,9,0,9,0,1,,,,,,,,,,,,,,,,,,,,,,,,,,,,,,,,,,,,,,,
,,,,,,,,2023-08-06_08h15.44.503,HF_wild_card,2022.2.4,Win32,29.9832094,60e03b37c87de3cc083b358b,64ce5acb97489d65b14ecc7a,64cf488975e78ea91669567c,,,,,,,ctch,resources/DP.BMP,resources/DB.BMP,Door2,-0.262962977,-0.094444487,1,0,0,0.8113,optionLeft,40,4995,3,10,0,10,0,1,,,,,,,,,,,,,,,,,,,,,,,,,,,,,,,,,,,,,,,
,,,,,,,,2023-08-06_08h15.44.503,HF_wild_card,2022.2.4,Win32,29.9832094,60e03b37c87de3cc083b358b,64ce5acb97489d65b14ecc7a,64cf488975e78ea91669567c,,,,,,,decisionTrl,resources/DBN.BMP,resources/DP.BMP,Door2,0.285185213,-0.043518526,1,0,0,0.8779,optionRight,20,5015,3,11,0,11,0,1,,,,,,,,,,,,,,,,,,,,,,,,,,,,,,,,,,,,,,,
,,,,,,,,2023-08-06_08h15.44.503,HF_wild_card,2022.2.4,Win32,29.9832094,60e03b37c87de3cc083b358b,64ce5acb97489d65b14ecc7a,64cf488975e78ea91669567c,,,,,,,ctch,resources/DBN.BMP,resources/DG.BMP,Door4,0.315740797,-0.033333355,1,0,0,0.9655,optionRight,60,5075,3,12,0,12,0,1,,,,,,,,,,,,,,,,,,,,,,,,,,,,,,,,,,,,,,,
,,,,,,,,2023-08-06_08h15.44.503,HF_wild_card,2022.2.4,Win32,29.9832094,60e03b37c87de3cc083b358b,64ce5acb97489d65b14ecc7a,64cf488975e78ea91669567c,,,,,,,decisionTrl,resources/DG.BMP,resources/DB.BMP,Door4,-0.171296296,-0.041666667,1,0,0,1.0458,optionLeft,60,5135,3,13,0,13,0,1,,,,,,,,,,,,,,,,,,,,,,,,,,,,,,,,,,,,,,,
,,,,,,,,2023-08-06_08h15.44.503,HF_wild_card,2022.2.4,Win32,29.9832094,60e03b37c87de3cc083b358b,64ce5acb97489d65b14ecc7a,64cf488975e78ea91669567c,,,,,,,decisionTrl,resources/DB.BMP,resources/DG.BMP,Door4,0.292592578,-0.063888903,1,0,0,1.3268,optionRight,60,5195,3,14,0,14,0,1,,,,,,,,,,,,,,,,,,,,,,,,,,,,,,,,,,,,,,,
,,,,,,,,2023-08-06_08h15.44.503,HF_wild_card,2022.2.4,Win32,29.9832094,60e03b37c87de3cc083b358b,64ce5acb97489d65b14ecc7a,64cf488975e78ea91669567c,,,,,,,sngl,resources/DP.BMP,resources/Empty.png,Door2,-0.14907406,-0.018518519,1,0,0,1.178,optionLeft,40,5235,3,15,0,15,0,1,,,,,,,,,,,,,,,,,,,,,,,,,,,,,,,,,,,,,,,
,,,,,,,,2023-08-06_08h15.44.503,HF_wild_card,2022.2.4,Win32,29.9832094,60e03b37c87de3cc083b358b,64ce5acb97489d65b14ecc7a,64cf488975e78ea91669567c,,,,,,,decisionTrl,resources/DG.BMP,resources/DB.BMP,Door4,-0.191666638,-0.027777778,1,0,0,0.8109,optionLeft,80,5315,3,16,0,16,0,1,,,,,,,,,,,,,,,,,,,,,,,,,,,,,,,,,,,,,,,
,,,,,,,,2023-08-06_08h15.44.503,HF_wild_card,2022.2.4,Win32,29.9832094,60e03b37c87de3cc083b358b,64ce5acb97489d65b14ecc7a,64cf488975e78ea91669567c,,,,,,,ctch,resources/DB.BMP,resources/DP.BMP,Door2,0.224074116,-0.081481474,1,0,0,1.5103,optionRight,40,5355,3,17,0,17,0,1,,,,,,,,,,,,,,,,,,,,,,,,,,,,,,,,,,,,,,,
,,,,,,,,2023-08-06_08h15.44.503,HF_wild_card,2022.2.4,Win32,29.9832094,60e03b37c87de3cc083b358b,64ce5acb97489d65b14ecc7a,64cf488975e78ea91669567c,,,,,,,sngl,resources/Empty.png,resources/DP.BMP,Door2,0.156481496,-0.054629644,1,0,0,0.7773,optionRight,20,5375,3,18,0,18,0,1,,,,,,,,,,,,,,,,,,,,,,,,,,,,,,,,,,,,,,,
,,,,,,,,2023-08-06_08h15.44.503,HF_wild_card,2022.2.4,Win32,29.9832094,60e03b37c87de3cc083b358b,64ce5acb97489d65b14ecc7a,64cf488975e78ea91669567c,,,,,,,decisionTrl,resources/DB.BMP,resources/DG.BMP,Door4,0.235185199,-0.041666667,1,0,0,0.9603,optionRight,80,5455,3,19,0,19,0,1,,,,,,,,,,,,,,,,,,,,,,,,,,,,,,,,,,,,,,,
,,,,,,,,2023-08-06_08h15.44.503,HF_wild_card,2022.2.4,Win32,29.9832094,60e03b37c87de3cc083b358b,64ce5acb97489d65b14ecc7a,64cf488975e78ea91669567c,,,,,,,decisionTrl,resources/DP.BMP,resources/DR.BMP,Door2,-0.264814801,0.008333312,1,0,0,0.8441,optionLeft,40,5495,3,20,0,20,0,1,,,,,,,,,,,,,,,,,,,,,,,,,,,,,,,,,,,,,,,
,,,,,,,,2023-08-06_08h15.44.503,HF_wild_card,2022.2.4,Win32,29.9832094,60e03b37c87de3cc083b358b,64ce5acb97489d65b14ecc7a,64cf488975e78ea91669567c,,,,,,,decisionTrl,resources/DG.BMP,resources/DB.BMP,Door4,-0.255555541,-0.044444437,1,0,0,0.8936,optionLeft,60,5555,3,21,0,21,0,1,,,,,,,,,,,,,,,,,,,,,,,,,,,,,,,,,,,,,,,
,,,,,,,,2023-08-06_08h15.44.503,HF_wild_card,2022.2.4,Win32,29.9832094,60e03b37c87de3cc083b358b,64ce5acb97489d65b14ecc7a,64cf488975e78ea91669567c,,,,,,,ctch,resources/DB.BMP,resources/DP.BMP,Door2,0.162037037,-0.063888903,1,0,0,1.0612,optionRight,40,5595,3,22,0,22,0,1,,,,,,,,,,,,,,,,,,,,,,,,,,,,,,,,,,,,,,,
,,,,,,,,2023-08-06_08h15.44.503,HF_wild_card,2022.2.4,Win32,29.9832094,60e03b37c87de3cc083b358b,64ce5acb97489d65b14ecc7a,64cf488975e78ea91669567c,,,,,,,decisionTrl,resources/DR.BMP,resources/DP.BMP,Door2,0.234259288,-0.006481489,1,0,0,0.8775,optionRight,40,5635,3,23,0,23,0,1,,,,,,,,,,,,,,,,,,,,,,,,,,,,,,,,,,,,,,,
,,,,,,,,2023-08-06_08h15.44.503,HF_wild_card,2022.2.4,Win32,29.9832094,60e03b37c87de3cc083b358b,64ce5acb97489d65b14ecc7a,64cf488975e78ea91669567c,,,,,,,sngl,resources/Empty.png,resources/DR.BMP,WildCard_NonEx,0.309259344,-0.100000028,1,0,0,0.8267,optionRight,45,5680,3,24,0,24,0,1,,,,,,,,,,,,,,,,,,,,,,,,,,,,,,,,,,,,,,,
,,,,,,,,2023-08-06_08h15.44.503,HF_wild_card,2022.2.4,Win32,29.9832094,60e03b37c87de3cc083b358b,64ce5acb97489d65b14ecc7a,64cf488975e78ea91669567c,,,,,,,sngl,resources/Empty.png,resources/DG.BMP,Door4,0.275000042,0.01666666,1,0,0,0.7936,optionRight,60,5740,3,25,0,25,0,1,,,,,,,,,,,,,,,,,,,,,,,,,,,,,,,,,,,,,,,
,,,,,,,,2023-08-06_08h15.44.503,HF_wild_card,2022.2.4,Win32,29.9832094,60e03b37c87de3cc083b358b,64ce5acb97489d65b14ecc7a,64cf488975e78ea91669567c,,,,,,,sngl,resources/DR.BMP,resources/Empty.png,WildCard_NonEx,-0.165740755,-0.046296296,1,0,0,0.7441,optionLeft,45,5785,3,26,0,26,0,1,,,,,,,,,,,,,,,,,,,,,,,,,,,,,,,,,,,,,,,
,,,,,,,,2023-08-06_08h15.44.503,HF_wild_card,2022.2.4,Win32,29.9832094,60e03b37c87de3cc083b358b,64ce5acb97489d65b14ecc7a,64cf488975e78ea91669567c,,,,,,,decisionTrl,resources/DR.BMP,resources/DG.BMP,Door4,0.231481481,-0.018518519,1,0,0,1.0277,optionRight,80,5865,3,27,0,27,0,1,,,,,,,,,,,,,,,,,,,,,,,,,,,,,,,,,,,,,,,
,,,,,,,,2023-08-06_08h15.44.503,HF_wild_card,2022.2.4,Win32,29.9832094,60e03b37c87de3cc083b358b,64ce5acb97489d65b14ecc7a,64cf488975e78ea91669567c,,,,,,,decisionTrl,resources/DBN.BMP,resources/DP.BMP,Door2,0.300000085,-0.125,1,0,0,1.2267,optionRight,20,5885,3,28,0,28,0,1,,,,,,,,,,,,,,,,,,,,,,,,,,,,,,,,,,,,,,,
,,,,,,,,2023-08-06_08h15.44.503,HF_wild_card,2022.2.4,Win32,29.9832094,60e03b37c87de3cc083b358b,64ce5acb97489d65b14ecc7a,64cf488975e78ea91669567c,,,,,,,decisionTrl,resources/DP.BMP,resources/DBN.BMP,Door2,-0.162962949,0.003703683,1,0,0,1.2278,optionLeft,40,5925,3,29,0,29,0,1,,,,,,,,,,,,,,,,,,,,,,,,,,,,,,,,,,,,,,,
,,,,,,,,2023-08-06_08h15.44.503,HF_wild_card,2022.2.4,Win32,29.9832094,60e03b37c87de3cc083b358b,64ce5acb97489d65b14ecc7a,64cf488975e78ea91669567c,,,,,,,decisionTrl,resources/DB.BMP,resources/DG.BMP,Door4,0.293518561,-0.063888903,1,0,0,0.7942,optionRight,80,6005,3,30,0,30,0,1,,,,,,,,,,,,,,,,,,,,,,,,,,,,,,,,,,,,,,,
,,,,,,,,2023-08-06_08h15.44.503,HF_wild_card,2022.2.4,Win32,29.9832094,60e03b37c87de3cc083b358b,64ce5acb97489d65b14ecc7a,64cf488975e78ea91669567c,,,,,,,decisionTrl,resources/DB.BMP,resources/DG.BMP,Door4,0.299074102,-0.040740755,1,0,0,0.8724,optionRight,60,6065,3,31,0,31,0,1,,,,,,,,,,,,,,,,,,,,,,,,,,,,,,,,,,,,,,,
,,,,,,,,2023-08-06_08h15.44.503,HF_wild_card,2022.2.4,Win32,29.9832094,60e03b37c87de3cc083b358b,64ce5acb97489d65b14ecc7a,64cf488975e78ea91669567c,,,,,,,decisionTrl,resources/DR.BMP,resources/DBN.BMP,WildCard_NonEx,-0.176851838,0.008333312,1,0,0,1.1498,optionLeft,45,6110,3,32,0,32,0,1,,,,,,,,,,,,,,,,,,,,,,,,,,,,,,,,,,,,,,,
,,,,,,,,2023-08-06_08h15.44.503,HF_wild_card,2022.2.4,Win32,29.9832094,60e03b37c87de3cc083b358b,64ce5acb97489d65b14ecc7a,64cf488975e78ea91669567c,,,,,,,sngl,resources/DBN.BMP,resources/Empty.png,Door1,-0.296296296,0.01944443,1,0,0,2.2478,optionLeft,30,6140,3,33,0,33,0,1,,,,,,,,,,,,,,,,,,,,,,,,,,,,,,,,,,,,,,,
,,,,,,,,2023-08-06_08h15.44.503,HF_wild_card,2022.2.4,Win32,29.9832094,60e03b37c87de3cc083b358b,64ce5acb97489d65b14ecc7a,64cf488975e78ea91669567c,,,,,,,decisionTrl,resources/DG.BMP,resources/DB.BMP,Door4,-0.169444402,0.027777778,1,0,0,2.7952,optionLeft,60,6200,3,34,0,34,0,1,,,,,,,,,,,,,,,,,,,,,,,,,,,,,,,,,,,,,,,
,,,,,,,,2023-08-06_08h15.44.503,HF_wild_card,2022.2.4,Win32,29.9832094,60e03b37c87de3cc083b358b,64ce5acb97489d65b14ecc7a,64cf488975e78ea91669567c,,,,,,,decisionTrl,resources/DB.BMP,resources/DR.BMP,WildCard_NonEx,0.286111125,-0.051851873,1,0,0,1.2223,optionRight,55,6255,3,35,0,35,0,1,,,,,,,,,,,,,,,,,,,,,,,,,,,,,,,,,,,,,,,
,,,,,,,,2023-08-06_08h15.44.503,HF_wild_card,2022.2.4,Win32,29.9832094,60e03b37c87de3cc083b358b,64ce5acb97489d65b14ecc7a,64cf488975e78ea91669567c,,,,,,,sngl,resources/DB.BMP,resources/Empty.png,Door3,-0.257407365,0.006481489,1,0,0,1.8407,optionLeft,70,6325,3,36,0,36,0,1,,,,,,,,,,,,,,,,,,,,,,,,,,,,,,,,,,,,,,,
,,,,,,,,2023-08-06_08h15.44.503,HF_wild_card,2022.2.4,Win32,29.9832094,60e03b37c87de3cc083b358b,64ce5acb97489d65b14ecc7a,64cf488975e78ea91669567c,,,,,,,decisionTrl,resources/DP.BMP,resources/DBN.BMP,Door2,-0.262962977,0.017592571,1,0,0,0.9955,optionLeft,40,6365,3,37,0,37,0,1,,,,,,,,,,,,,,,,,,,,,,,,,,,,,,,,,,,,,,,
,,,,,,,,2023-08-06_08h15.44.503,HF_wild_card,2022.2.4,Win32,29.9832094,60e03b37c87de3cc083b358b,64ce5acb97489d65b14ecc7a,64cf488975e78ea91669567c,,,,,,,sngl,resources/Empty.png,resources/DB.BMP,Door3,0.116666653,-0.027777778,1,0,0,0.6792,optionRight,70,6435,3,38,0,38,0,1,,,,,,,,,,,,,,,,,,,,,,,,,,,,,,,,,,,,,,,
,,,,,,,,2023-08-06_08h15.44.503,HF_wild_card,2022.2.4,Win32,29.9832094,60e03b37c87de3cc083b358b,64ce5acb97489d65b14ecc7a,64cf488975e78ea91669567c,,,,,,,decisionTrl,resources/DR.BMP,resources/DB.BMP,WildCard_NonEx,-0.229629587,-0.037962984,1,0,0,0.7457,optionLeft,55,6490,3,39,0,39,0,1,,,,,,,,,,,,,,,,,,,,,,,,,,,,,,,,,,,,,,,
,,,,,,,,2023-08-06_08h15.44.503,HF_wild_card,2022.2.4,Win32,29.9832094,60e03b37c87de3cc083b358b,64ce5acb97489d65b14ecc7a,64cf488975e78ea91669567c,,,,,,,sngl,resources/DR.BMP,resources/Empty.png,WildCard_NonEx,-0.274999972,-0.002777771,1,0,0,0.7273,optionLeft,55,6545,3,40,0,40,0,1,,,,,,,,,,,,,,,,,,,,,,,,,,,,,,,,,,,,,,,
,,,,,,,,2023-08-06_08h15.44.503,HF_wild_card,2022.2.4,Win32,29.9832094,60e03b37c87de3cc083b358b,64ce5acb97489d65b14ecc7a,64cf488975e78ea91669567c,,,,,,,sngl,resources/DG.BMP,resources/Empty.png,Door4,-0.12962963,0.083333333,1,0,0,1.5121,optionLeft,80,6625,3,41,0,41,0,1,,,,,,,,,,,,,,,,,,,,,,,,,,,,,,,,,,,,,,,
,,,,,,,,2023-08-06_08h15.44.503,HF_wild_card,2022.2.4,Win32,29.9832094,60e03b37c87de3cc083b358b,64ce5acb97489d65b14ecc7a,64cf488975e78ea91669567c,,,,,,,decisionTrl,resources/DBN.BMP,resources/DR.BMP,WildCard_NonEx,0.155555584,0.006481489,1,0,0,2.9948,optionRight,55,6680,3,42,0,42,0,1,,,,,,,,,,,,,,,,,,,,,,,,,,,,,,,,,,,,,,,
,,,,,,,,2023-08-06_08h15.44.503,HF_wild_card,2022.2.4,Win32,29.9832094,60e03b37c87de3cc083b358b,64ce5acb97489d65b14ecc7a,64cf488975e78ea91669567c,,,,,,,decisionTrl,resources/DG.BMP,resources/DR.BMP,WildCard_NonEx,0.337037122,-0.025925919,1,0,0,1.212,optionRight,55,6735,3,43,0,43,0,1,,,,,,,,,,,,,,,,,,,,,,,,,,,,,,,,,,,,,,,
,,,,,,,,2023-08-06_08h15.44.503,HF_wild_card,2022.2.4,Win32,29.9832094,60e03b37c87de3cc083b358b,64ce5acb97489d65b14ecc7a,64cf488975e78ea91669567c,,,,,,,,,,,,,,,,,,,,,,,,,,2,0,2,0,1,,,,,,,,,,,,,,,,,,,,,,,,,,,,,,,,,,
,,,,,,,,2023-08-06_08h15.44.503,HF_wild_card,2022.2.4,Win32,29.9832094,60e03b37c87de3cc083b358b,64ce5acb97489d65b14ecc7a,64cf488975e78ea91669567c,,,,,,,decisionTrl,resources/DBN.BMP,resources/DP.BMP,Door2,0.137037065,-0.110185199,1,0,0,0.9884,optionRight,40,6775,4,0,0,0,0,1,,,,,,,,,,,,,,,,,,,,,,,,,,,,,,,,,,,,,,,
,,,,,,,,2023-08-06_08h15.44.503,HF_wild_card,2022.2.4,Win32,29.9832094,60e03b37c87de3cc083b358b,64ce5acb97489d65b14ecc7a,64cf488975e78ea91669567c,,,,,,,sngl,resources/DG.BMP,resources/Empty.png,Door4,-0.146296254,-0.030555548,1,0,0,0.6401,optionLeft,60,6835,4,1,0,1,0,1,,,,,,,,,,,,,,,,,,,,,,,,,,,,,,,,,,,,,,,
,,,,,,,,2023-08-06_08h15.44.503,HF_wild_card,2022.2.4,Win32,29.9832094,60e03b37c87de3cc083b358b,64ce5acb97489d65b14ecc7a,64cf488975e78ea91669567c,,,,,,,ctch,resources/DB.BMP,resources/DP.BMP,Door2,0.141666695,-0.037962984,1,0,0,0.7958,optionRight,20,6855,4,2,0,2,0,1,,,,,,,,,,,,,,,,,,,,,,,,,,,,,,,,,,,,,,,
,,,,,,,,2023-08-06_08h15.44.503,HF_wild_card,2022.2.4,Win32,29.9832094,60e03b37c87de3cc083b358b,64ce5acb97489d65b14ecc7a,64cf488975e78ea91669567c,,,,,,,decisionTrl,resources/DP.BMP,resources/DY.BMP,WildCard_Ex,0.217592593,-0.017592607,1,0,0,0.9449,optionRight,95,6950,4,3,0,3,0,1,,,,,,,,,,,,,,,,,,,,,,,,,,,,,,,,,,,,,,,
,,,,,,,,2023-08-06_08h15.44.503,HF_wild_card,2022.2.4,Win32,29.9832094,60e03b37c87de3cc083b358b,64ce5acb97489d65b14ecc7a,64cf488975e78ea91669567c,,,,,,,decisionTrl,resources/DP.BMP,resources/DBN.BMP,Door2,-0.215740698,0.014814801,1,0,0,0.8621,optionLeft,40,6990,4,4,0,4,0,1,,,,,,,,,,,,,,,,,,,,,,,,,,,,,,,,,,,,,,,
,,,,,,,,2023-08-06_08h15.44.503,HF_wild_card,2022.2.4,Win32,29.9832094,60e03b37c87de3cc083b358b,64ce5acb97489d65b14ecc7a,64cf488975e78ea91669567c,,,,,,,sngl,resources/Empty.png,resources/DY.BMP,WildCard_Ex,0.377777806,0.053703697,1,0,0,1.6958,optionRight,5,6995,4,5,0,5,0,1,,,,,,,,,,,,,,,,,,,,,,,,,,,,,,,,,,,,,,,
,,,,,,,,2023-08-06_08h15.44.503,HF_wild_card,2022.2.4,Win32,29.9832094,60e03b37c87de3cc083b358b,64ce5acb97489d65b14ecc7a,64cf488975e78ea91669567c,,,,,,,ctch,resources/DBN.BMP,resources/DG.BMP,Door4,0.262037065,-0.01666666,1,0,0,0.8456,optionRight,60,7055,4,6,0,6,0,1,,,,,,,,,,,,,,,,,,,,,,,,,,,,,,,,,,,,,,,
,,,,,,,,2023-08-06_08h15.44.503,HF_wild_card,2022.2.4,Win32,29.9832094,60e03b37c87de3cc083b358b,64ce5acb97489d65b14ecc7a,64cf488975e78ea91669567c,,,,,,,decisionTrl,resources/DBN.BMP,resources/DP.BMP,Door2,0.304629714,-0.025000007,1,0,0,0.8788,optionRight,20,7075,4,7,0,7,0,1,,,,,,,,,,,,,,,,,,,,,,,,,,,,,,,,,,,,,,,
,,,,,,,,2023-08-06_08h15.44.503,HF_wild_card,2022.2.4,Win32,29.9832094,60e03b37c87de3cc083b358b,64ce5acb97489d65b14ecc7a,64cf488975e78ea91669567c,,,,,,,decisionTrl,resources/DBN.BMP,resources/DP.BMP,Door2,0.283333319,-0.036111125,1,0,0,0.679,optionRight,40,7115,4,8,0,8,0,1,,,,,,,,,,,,,,,,,,,,,,,,,,,,,,,,,,,,,,,
,,,,,,,,2023-08-06_08h15.44.503,HF_wild_card,2022.2.4,Win32,29.9832094,60e03b37c87de3cc083b358b,64ce5acb97489d65b14ecc7a,64cf488975e78ea91669567c,,,,,,,decisionTrl,resources/DB.BMP,resources/DG.BMP,Door4,0.258333347,-0.029629637,1,0,0,0.7123,optionRight,60,7175,4,9,0,9,0,1,,,,,,,,,,,,,,,,,,,,,,,,,,,,,,,,,,,,,,,
,,,,,,,,2023-08-06_08h15.44.503,HF_wild_card,2022.2.4,Win32,29.9832094,60e03b37c87de3cc083b358b,64ce5acb97489d65b14ecc7a,64cf488975e78ea91669567c,,,,,,,decisionTrl,resources/DP.BMP,resources/DBN.BMP,Door2,-0.422222208,-0.051851873,1,0,0,1.3528,optionLeft,20,7195,4,10,0,10,0,1,,,,,,,,,,,,,,,,,,,,,,,,,,,,,,,,,,,,,,,
,,,,,,,,2023-08-06_08h15.44.503,HF_wild_card,2022.2.4,Win32,29.9832094,60e03b37c87de3cc083b358b,64ce5acb97489d65b14ecc7a,64cf488975e78ea91669567c,,,,,,,decisionTrl,resources/DB.BMP,resources/DG.BMP,Door4,0.249074088,-0.009259259,1,0,0,0.9774,optionRight,80,7275,4,11,0,11,0,1,,,,,,,,,,,,,,,,,,,,,,,,,,,,,,,,,,,,,,,
,,,,,,,,2023-08-06_08h15.44.503,HF_wild_card,2022.2.4,Win32,29.9832094,60e03b37c87de3cc083b358b,64ce5acb97489d65b14ecc7a,64cf488975e78ea91669567c,,,,,,,decisionTrl,resources/DP.BMP,resources/DBN.BMP,Door2,-0.322222215,-0.083333333,1,0,0,0.894,optionLeft,40,7315,4,12,0,12,0,1,,,,,,,,,,,,,,,,,,,,,,,,,,,,,,,,,,,,,,,
,,,,,,,,2023-08-06_08h15.44.503,HF_wild_card,2022.2.4,Win32,29.9832094,60e03b37c87de3cc083b358b,64ce5acb97489d65b14ecc7a,64cf488975e78ea91669567c,,,,,,,decisionTrl,resources/DY.BMP,resources/DP.BMP,WildCard_Ex,-0.186111097,-0.026851866,1,0,0,1.0285,optionLeft,5,7320,4,13,0,13,0,1,,,,,,,,,,,,,,,,,,,,,,,,,,,,,,,,,,,,,,,
,,,,,,,,2023-08-06_08h15.44.503,HF_wild_card,2022.2.4,Win32,29.9832094,60e03b37c87de3cc083b358b,64ce5acb97489d65b14ecc7a,64cf488975e78ea91669567c,,,,,,,sngl,resources/Empty.png,resources/DP.BMP,Door2,0.185185185,-0.050925926,1,0,0,0.7281,optionRight,40,7360,4,14,0,14,0,1,,,,,,,,,,,,,,,,,,,,,,,,,,,,,,,,,,,,,,,
,,,,,,,,2023-08-06_08h15.44.503,HF_wild_card,2022.2.4,Win32,29.9832094,60e03b37c87de3cc083b358b,64ce5acb97489d65b14ecc7a,64cf488975e78ea91669567c,,,,,,,decisionTrl,resources/DBN.BMP,resources/DY.BMP,WildCard_Ex,0.235185199,-0.049074067,1,0,0,0.7441,optionRight,5,7365,4,15,0,15,0,1,,,,,,,,,,,,,,,,,,,,,,,,,,,,,,,,,,,,,,,
,,,,,,,,2023-08-06_08h15.44.503,HF_wild_card,2022.2.4,Win32,29.9832094,60e03b37c87de3cc083b358b,64ce5acb97489d65b14ecc7a,64cf488975e78ea91669567c,,,,,,,sngl,resources/DB.BMP,resources/Empty.png,Door3,-0.10092594,-0.019444466,1,0,0,0.8968,optionLeft,70,7435,4,16,0,16,0,1,,,,,,,,,,,,,,,,,,,,,,,,,,,,,,,,,,,,,,,
,,,,,,,,2023-08-06_08h15.44.503,HF_wild_card,2022.2.4,Win32,29.9832094,60e03b37c87de3cc083b358b,64ce5acb97489d65b14ecc7a,64cf488975e78ea91669567c,,,,,,,ctch,resources/DG.BMP,resources/DBN.BMP,Door4,-0.266666624,-0.092592593,1,0,0,1.0788,optionLeft,80,7515,4,17,0,17,0,1,,,,,,,,,,,,,,,,,,,,,,,,,,,,,,,,,,,,,,,
,,,,,,,,2023-08-06_08h15.44.503,HF_wild_card,2022.2.4,Win32,29.9832094,60e03b37c87de3cc083b358b,64ce5acb97489d65b14ecc7a,64cf488975e78ea91669567c,,,,,,,ctch,resources/DG.BMP,resources/DBN.BMP,Door4,-0.140740712,-0.057407414,1,0,0,0.9617,optionLeft,80,7595,4,18,0,18,0,1,,,,,,,,,,,,,,,,,,,,,,,,,,,,,,,,,,,,,,,
,,,,,,,,2023-08-06_08h15.44.503,HF_wild_card,2022.2.4,Win32,29.9832094,60e03b37c87de3cc083b358b,64ce5acb97489d65b14ecc7a,64cf488975e78ea91669567c,,,,,,,sngl,resources/DY.BMP,resources/Empty.png,WildCard_Ex,-0.159259231,0.021296289,1,0,0,0.8441,optionLeft,5,7600,4,19,0,19,0,1,,,,,,,,,,,,,,,,,,,,,,,,,,,,,,,,,,,,,,,
,,,,,,,,2023-08-06_08h15.44.503,HF_wild_card,2022.2.4,Win32,29.9832094,60e03b37c87de3cc083b358b,64ce5acb97489d65b14ecc7a,64cf488975e78ea91669567c,,,,,,,ctch,resources/DBN.BMP,resources/DG.BMP,Door1,-0.258333347,-0.036111125,1,0,0,0.8791,optionLeft,30,7630,4,20,0,20,0,1,,,,,,,,,,,,,,,,,,,,,,,,,,,,,,,,,,,,,,,
,,,,,,,,2023-08-06_08h15.44.503,HF_wild_card,2022.2.4,Win32,29.9832094,60e03b37c87de3cc083b358b,64ce5acb97489d65b14ecc7a,64cf488975e78ea91669567c,,,,,,,decisionTrl,resources/DY.BMP,resources/DB.BMP,Door3,0.20648151,-0.023148148,1,0,0,1.2287,optionRight,70,7700,4,21,0,21,0,1,,,,,,,,,,,,,,,,,,,,,,,,,,,,,,,,,,,,,,,
,,,,,,,,2023-08-06_08h15.44.503,HF_wild_card,2022.2.4,Win32,29.9832094,60e03b37c87de3cc083b358b,64ce5acb97489d65b14ecc7a,64cf488975e78ea91669567c,,,,,,,decisionTrl,resources/DB.BMP,resources/DY.BMP,Door3,-0.208333333,0.002777771,1,0,0,0.8293,optionLeft,70,7770,4,22,0,22,0,1,,,,,,,,,,,,,,,,,,,,,,,,,,,,,,,,,,,,,,,
,,,,,,,,2023-08-06_08h15.44.503,HF_wild_card,2022.2.4,Win32,29.9832094,60e03b37c87de3cc083b358b,64ce5acb97489d65b14ecc7a,64cf488975e78ea91669567c,,,,,,,sngl,resources/Empty.png,resources/DG.BMP,Door4,0.286111125,-0.001851859,1,0,0,0.8952,optionRight,80,7850,4,23,0,23,0,1,,,,,,,,,,,,,,,,,,,,,,,,,,,,,,,,,,,,,,,
,,,,,,,,2023-08-06_08h15.44.503,HF_wild_card,2022.2.4,Win32,29.9832094,60e03b37c87de3cc083b358b,64ce5acb97489d65b14ecc7a,64cf488975e78ea91669567c,,,,,,,decisionTrl,resources/DP.BMP,resources/DBN.BMP,Door1,0.390740712,0.000925912,1,0,0,1.3629,optionRight,30,7880,4,24,0,24,0,1,,,,,,,,,,,,,,,,,,,,,,,,,,,,,,,,,,,,,,,
,,,,,,,,2023-08-06_08h15.44.503,HF_wild_card,2022.2.4,Win32,29.9832094,60e03b37c87de3cc083b358b,64ce5acb97489d65b14ecc7a,64cf488975e78ea91669567c,,,,,,,sngl,resources/Empty.png,resources/DB.BMP,Door3,0.399074131,-0.077777792,1,0,0,0.8608,optionRight,70,7950,4,25,0,25,0,1,,,,,,,,,,,,,,,,,,,,,,,,,,,,,,,,,,,,,,,
,,,,,,,,2023-08-06_08h15.44.503,HF_wild_card,2022.2.4,Win32,29.9832094,60e03b37c87de3cc083b358b,64ce5acb97489d65b14ecc7a,64cf488975e78ea91669567c,,,,,,,decisionTrl,resources/DG.BMP,resources/DY.BMP,Door4,-0.169444402,-0.005555577,1,0,0,0.9777,optionLeft,60,8010,4,26,0,26,0,1,,,,,,,,,,,,,,,,,,,,,,,,,,,,,,,,,,,,,,,
,,,,,,,,2023-08-06_08h15.44.503,HF_wild_card,2022.2.4,Win32,29.9832094,60e03b37c87de3cc083b358b,64ce5acb97489d65b14ecc7a,64cf488975e78ea91669567c,,,,,,,sngl,resources/DBN.BMP,resources/Empty.png,Door1,-0.158333319,-0.005555577,1,0,0,0.8112,optionLeft,30,8040,4,27,0,27,0,1,,,,,,,,,,,,,,,,,,,,,,,,,,,,,,,,,,,,,,,
,,,,,,,,2023-08-06_08h15.44.503,HF_wild_card,2022.2.4,Win32,29.9832094,60e03b37c87de3cc083b358b,64ce5acb97489d65b14ecc7a,64cf488975e78ea91669567c,,,,,,,sngl,resources/DY.BMP,resources/Empty.png,WildCard_Ex,-0.219444416,-0.028703725,1,0,0,0.8609,optionLeft,95,8135,4,28,0,28,0,1,,,,,,,,,,,,,,,,,,,,,,,,,,,,,,,,,,,,,,,
,,,,,,,,2023-08-06_08h15.44.503,HF_wild_card,2022.2.4,Win32,29.9832094,60e03b37c87de3cc083b358b,64ce5acb97489d65b14ecc7a,64cf488975e78ea91669567c,,,,,,,sngl,resources/Empty.png,resources/DBN.BMP,Door1,0.23055557,0.018518519,1,0,0,0.7456,optionRight,30,8165,4,29,0,29,0,1,,,,,,,,,,,,,,,,,,,,,,,,,,,,,,,,,,,,,,,
,,,,,,,,2023-08-06_08h15.44.503,HF_wild_card,2022.2.4,Win32,29.9832094,60e03b37c87de3cc083b358b,64ce5acb97489d65b14ecc7a,64cf488975e78ea91669567c,,,,,,,decisionTrl,resources/DB.BMP,resources/DG.BMP,Door3,-0.39444443,-0.029629637,1,0,0,1.2436,optionLeft,70,8235,4,30,0,30,0,1,,,,,,,,,,,,,,,,,,,,,,,,,,,,,,,,,,,,,,,
,,,,,,,,2023-08-06_08h15.44.503,HF_wild_card,2022.2.4,Win32,29.9832094,60e03b37c87de3cc083b358b,64ce5acb97489d65b14ecc7a,64cf488975e78ea91669567c,,,,,,,decisionTrl,resources/DG.BMP,resources/DB.BMP,Door3,0.157407407,-0.033333355,1,0,0,1.4111,optionRight,70,8305,4,31,0,31,0,1,,,,,,,,,,,,,,,,,,,,,,,,,,,,,,,,,,,,,,,
,,,,,,,,2023-08-06_08h15.44.503,HF_wild_card,2022.2.4,Win32,29.9832094,60e03b37c87de3cc083b358b,64ce5acb97489d65b14ecc7a,64cf488975e78ea91669567c,,,,,,,ctch,resources/DB.BMP,resources/DP.BMP,Door3,-0.244444459,0.018518519,1,0,0,0.744,optionLeft,70,8375,4,32,0,32,0,1,,,,,,,,,,,,,,,,,,,,,,,,,,,,,,,,,,,,,,,
,,,,,,,,2023-08-06_08h15.44.503,HF_wild_card,2022.2.4,Win32,29.9832094,60e03b37c87de3cc083b358b,64ce5acb97489d65b14ecc7a,64cf488975e78ea91669567c,,,,,,,decisionTrl,resources/DBN.BMP,resources/DP.BMP,Door1,-0.211111069,0.057407414,1,0,0,1.1779,optionLeft,30,8405,4,33,0,33,0,1,,,,,,,,,,,,,,,,,,,,,,,,,,,,,,,,,,,,,,,
,,,,,,,,2023-08-06_08h15.44.503,HF_wild_card,2022.2.4,Win32,29.9832094,60e03b37c87de3cc083b358b,64ce5acb97489d65b14ecc7a,64cf488975e78ea91669567c,,,,,,,decisionTrl,resources/DY.BMP,resources/DBN.BMP,Door1,0.210185228,-0.036111125,1,0,0,0.827,optionRight,30,8435,4,34,0,34,0,1,,,,,,,,,,,,,,,,,,,,,,,,,,,,,,,,,,,,,,,
,,,,,,,,2023-08-06_08h15.44.503,HF_wild_card,2022.2.4,Win32,29.9832094,60e03b37c87de3cc083b358b,64ce5acb97489d65b14ecc7a,64cf488975e78ea91669567c,,,,,,,ctch,resources/DP.BMP,resources/DB.BMP,Door3,0.33148151,-0.089814822,1,0,0,0.8785,optionRight,70,8505,4,35,0,35,0,1,,,,,,,,,,,,,,,,,,,,,,,,,,,,,,,,,,,,,,,
,,,,,,,,2023-08-06_08h15.44.503,HF_wild_card,2022.2.4,Win32,29.9832094,60e03b37c87de3cc083b358b,64ce5acb97489d65b14ecc7a,64cf488975e78ea91669567c,,,,,,,decisionTrl,resources/DG.BMP,resources/DB.BMP,Door3,0.108333376,-0.010185206,1,0,0,0.9942,optionRight,70,8575,4,36,0,36,0,1,,,,,,,,,,,,,,,,,,,,,,,,,,,,,,,,,,,,,,,
,,,,,,,,2023-08-06_08h15.44.503,HF_wild_card,2022.2.4,Win32,29.9832094,60e03b37c87de3cc083b358b,64ce5acb97489d65b14ecc7a,64cf488975e78ea91669567c,,,,,,,sngl,resources/DP.BMP,resources/Empty.png,Door2,-0.166666667,-0.003703718,1,0,0,1.0442,optionLeft,20,8595,4,37,0,37,0,1,,,,,,,,,,,,,,,,,,,,,,,,,,,,,,,,,,,,,,,
,,,,,,,,2023-08-06_08h15.44.503,HF_wild_card,2022.2.4,Win32,29.9832094,60e03b37c87de3cc083b358b,64ce5acb97489d65b14ecc7a,64cf488975e78ea91669567c,,,,,,,decisionTrl,resources/DY.BMP,resources/DG.BMP,Door4,0.214814857,-0.008333347,1,0,0,0.8619,optionRight,60,8655,4,38,0,38,0,1,,,,,,,,,,,,,,,,,,,,,,,,,,,,,,,,,,,,,,,
,,,,,,,,2023-08-06_08h15.44.503,HF_wild_card,2022.2.4,Win32,29.9832094,60e03b37c87de3cc083b358b,64ce5acb97489d65b14ecc7a,64cf488975e78ea91669567c,,,,,,,decisionTrl,resources/DG.BMP,resources/DB.BMP,Door3,0.212962963,-0.033333355,1,0,0,0.8599,optionRight,70,8725,4,39,0,39,0,1,,,,,,,,,,,,,,,,,,,,,,,,,,,,,,,,,,,,,,,
,,,,,,,,2023-08-06_08h15.44.503,HF_wild_card,2022.2.4,Win32,29.9832094,60e03b37c87de3cc083b358b,64ce5acb97489d65b14ecc7a,64cf488975e78ea91669567c,,,,,,,sngl,resources/Empty.png,resources/DY.BMP,WildCard_Ex,0.271296325,-0.020370377,1,0,0,1.1604,optionRight,95,8820,4,40,0,40,0,1,,,,,,,,,,,,,,,,,,,,,,,,,,,,,,,,,,,,,,,
,,,,,,,,2023-08-06_08h15.44.503,HF_wild_card,2022.2.4,Win32,29.9832094,60e03b37c87de3cc083b358b,64ce5acb97489d65b14ecc7a,64cf488975e78ea91669567c,,,,,,,decisionTrl,resources/DB.BMP,resources/DG.BMP,Door3,-0.300925926,0.063888868,1,0,0,0.9448,optionLeft,70,8890,4,41,0,41,0,1,,,,,,,,,,,,,,,,,,,,,,,,,,,,,,,,,,,,,,,
,,,,,,,,2023-08-06_08h15.44.503,HF_wild_card,2022.2.4,Win32,29.9832094,60e03b37c87de3cc083b358b,64ce5acb97489d65b14ecc7a,64cf488975e78ea91669567c,,,,,,,decisionTrl,resources/DG.BMP,resources/DB.BMP,Door3,0.225000028,-0.003703718,1,0,0,0.7609,optionRight,70,8960,4,42,0,42,0,1,,,,,,,,,,,,,,,,,,,,,,,,,,,,,,,,,,,,,,,
,,,,,,,,2023-08-06_08h15.44.503,HF_wild_card,2022.2.4,Win32,29.9832094,60e03b37c87de3cc083b358b,64ce5acb97489d65b14ecc7a,64cf488975e78ea91669567c,,,,,,,ctch,resources/DP.BMP,resources/DB.BMP,Door3,0.257407436,-0.012962977,1,0,0,0.7943,optionRight,70,9030,4,43,0,43,0,1,,,,,,,,,,,,,,,,,,,,,,,,,,,,,,,,,,,,,,,
,,,,,,,,2023-08-06_08h15.44.503,HF_wild_card,2022.2.4,Win32,29.9832094,60e03b37c87de3cc083b358b,64ce5acb97489d65b14ecc7a,64cf488975e78ea91669567c,,,,,,,,,,,,,,,,,,,,,,,,,,3,0,3,0,1,,,,,,,,,,,,,,,,,,,,,,,,,,,,,,,,,,
,,,,,,,,2023-08-06_08h15.44.503,HF_wild_card,2022.2.4,Win32,29.9832094,60e03b37c87de3cc083b358b,64ce5acb97489d65b14ecc7a,64cf488975e78ea91669567c,,,,,,,decisionTrl,resources/DY.BMP,resources/DB.BMP,Door3,0.164814843,-0.176851838,1,0,0,1.6593,optionRight,70,9100,5,0,0,0,0,1,,,,,,,,,,,,,,,,,,,,,,,,,,,,,,,,,,,,,,,
,,,,,,,,2023-08-06_08h15.44.503,HF_wild_card,2022.2.4,Win32,29.9832094,60e03b37c87de3cc083b358b,64ce5acb97489d65b14ecc7a,64cf488975e78ea91669567c,,,,,,,sngl,resources/DBN.BMP,resources/Empty.png,Door1,-0.14444443,-0.006481489,1,0,0,0.7603,optionLeft,30,9130,5,1,0,1,0,1,,,,,,,,,,,,,,,,,,,,,,,,,,,,,,,,,,,,,,,
,,,,,,,,2023-08-06_08h15.44.503,HF_wild_card,2022.2.4,Win32,29.9832094,60e03b37c87de3cc083b358b,64ce5acb97489d65b14ecc7a,64cf488975e78ea91669567c,,,,,,,decisionTrl,resources/DG.BMP,resources/DB.BMP,Door3,0.185185185,0.02870369,1,0,0,0.7461,optionRight,70,9200,5,2,0,2,0,1,,,,,,,,,,,,,,,,,,,,,,,,,,,,,,,,,,,,,,,
,,,,,,,,2023-08-06_08h15.44.503,HF_wild_card,2022.2.4,Win32,29.9832094,60e03b37c87de3cc083b358b,64ce5acb97489d65b14ecc7a,64cf488975e78ea91669567c,,,,,,,sngl,resources/DP.BMP,resources/Empty.png,Door2,-0.201851809,-0.010185206,1,0,0,0.6775,optionLeft,40,9240,5,3,0,3,0,1,,,,,,,,,,,,,,,,,,,,,,,,,,,,,,,,,,,,,,,
,,,,,,,,2023-08-06_08h15.44.503,HF_wild_card,2022.2.4,Win32,29.9832094,60e03b37c87de3cc083b358b,64ce5acb97489d65b14ecc7a,64cf488975e78ea91669567c,,,,,,,decisionTrl,resources/DG.BMP,resources/DY.BMP,WildCard_Ex,0.19722225,-0.013888889,1,0,0,1.0945,optionRight,5,9245,5,4,0,4,0,1,,,,,,,,,,,,,,,,,,,,,,,,,,,,,,,,,,,,,,,
,,,,,,,,2023-08-06_08h15.44.503,HF_wild_card,2022.2.4,Win32,29.9832094,60e03b37c87de3cc083b358b,64ce5acb97489d65b14ecc7a,64cf488975e78ea91669567c,,,,,,,ctch,resources/DG.BMP,resources/DBN.BMP,Door4,-0.226851852,0.030555548,1,0,0,1.1606,optionLeft,80,9325,5,5,0,5,0,1,,,,,,,,,,,,,,,,,,,,,,,,,,,,,,,,,,,,,,,
,,,,,,,,2023-08-06_08h15.44.503,HF_wild_card,2022.2.4,Win32,29.9832094,60e03b37c87de3cc083b358b,64ce5acb97489d65b14ecc7a,64cf488975e78ea91669567c,,,,,,,sngl,resources/DY.BMP,resources/Empty.png,WildCard_Ex,-0.199999986,0.006481489,1,0,0,0.8127,optionLeft,5,9330,5,6,0,6,0,1,,,,,,,,,,,,,,,,,,,,,,,,,,,,,,,,,,,,,,,
,,,,,,,,2023-08-06_08h15.44.503,HF_wild_card,2022.2.4,Win32,29.9832094,60e03b37c87de3cc083b358b,64ce5acb97489d65b14ecc7a,64cf488975e78ea91669567c,,,,,,,decisionTrl,resources/DP.BMP,resources/DBN.BMP,Door2,-0.14444443,0.047222208,1,0,0,1.1446,optionLeft,20,9350,5,7,0,7,0,1,,,,,,,,,,,,,,,,,,,,,,,,,,,,,,,,,,,,,,,
,,,,,,,,2023-08-06_08h15.44.503,HF_wild_card,2022.2.4,Win32,29.9832094,60e03b37c87de3cc083b358b,64ce5acb97489d65b14ecc7a,64cf488975e78ea91669567c,,,,,,,sngl,resources/Empty.png,resources/DY.BMP,WildCard_Ex,0.187037079,0.021296289,1,0,0,0.6777,optionRight,95,9445,5,8,0,8,0,1,,,,,,,,,,,,,,,,,,,,,,,,,,,,,,,,,,,,,,,
,,,,,,,,2023-08-06_08h15.44.503,HF_wild_card,2022.2.4,Win32,29.9832094,60e03b37c87de3cc083b358b,64ce5acb97489d65b14ecc7a,64cf488975e78ea91669567c,,,,,,,decisionTrl,resources/DB.BMP,resources/DG.BMP,Door3,-0.224999958,0.026851831,1,0,0,0.894,optionLeft,70,9515,5,9,0,9,0,1,,,,,,,,,,,,,,,,,,,,,,,,,,,,,,,,,,,,,,,
,,,,,,,,2023-08-06_08h15.44.503,HF_wild_card,2022.2.4,Win32,29.9832094,60e03b37c87de3cc083b358b,64ce5acb97489d65b14ecc7a,64cf488975e78ea91669567c,,,,,,,sngl,resources/Empty.png,resources/DP.BMP,Door2,0.150925954,0.015740748,1,0,0,0.7604,optionRight,20,9535,5,10,0,10,0,1,,,,,,,,,,,,,,,,,,,,,,,,,,,,,,,,,,,,,,,
,,,,,,,,2023-08-06_08h15.44.503,HF_wild_card,2022.2.4,Win32,29.9832094,60e03b37c87de3cc083b358b,64ce5acb97489d65b14ecc7a,64cf488975e78ea91669567c,,,,,,,decisionTrl,resources/DP.BMP,resources/DBN.BMP,Door2,-0.279629601,0.062037044,1,0,0,0.8277,optionLeft,20,9555,5,11,0,11,0,1,,,,,,,,,,,,,,,,,,,,,,,,,,,,,,,,,,,,,,,
,,,,,,,,2023-08-06_08h15.44.503,HF_wild_card,2022.2.4,Win32,29.9832094,60e03b37c87de3cc083b358b,64ce5acb97489d65b14ecc7a,64cf488975e78ea91669567c,,,,,,,decisionTrl,resources/DP.BMP,resources/DBN.BMP,Door2,-0.180555556,-0.027777778,1,0,0,0.7608,optionLeft,40,9595,5,12,0,12,0,1,,,,,,,,,,,,,,,,,,,,,,,,,,,,,,,,,,,,,,,
,,,,,,,,2023-08-06_08h15.44.503,HF_wild_card,2022.2.4,Win32,29.9832094,60e03b37c87de3cc083b358b,64ce5acb97489d65b14ecc7a,64cf488975e78ea91669567c,,,,,,,sngl,resources/Empty.png,resources/DG.BMP,Door4,0.188888903,0.027777778,1,0,0,0.7942,optionRight,60,9655,5,13,0,13,0,1,,,,,,,,,,,,,,,,,,,,,,,,,,,,,,,,,,,,,,,
,,,,,,,,2023-08-06_08h15.44.503,HF_wild_card,2022.2.4,Win32,29.9832094,60e03b37c87de3cc083b358b,64ce5acb97489d65b14ecc7a,64cf488975e78ea91669567c,,,,,,,ctch,resources/DP.BMP,resources/DB.BMP,Door3,0.216666681,-0.035185178,1,0,0,1.3126,optionRight,70,9725,5,14,0,14,0,1,,,,,,,,,,,,,,,,,,,,,,,,,,,,,,,,,,,,,,,
,,,,,,,,2023-08-06_08h15.44.503,HF_wild_card,2022.2.4,Win32,29.9832094,60e03b37c87de3cc083b358b,64ce5acb97489d65b14ecc7a,64cf488975e78ea91669567c,,,,,,,ctch,resources/DP.BMP,resources/DB.BMP,Door3,0.219444487,0.015740748,1,0,0,0.6774,optionRight,70,9795,5,15,0,15,0,1,,,,,,,,,,,,,,,,,,,,,,,,,,,,,,,,,,,,,,,
,,,,,,,,2023-08-06_08h15.44.503,HF_wild_card,2022.2.4,Win32,29.9832094,60e03b37c87de3cc083b358b,64ce5acb97489d65b14ecc7a,64cf488975e78ea91669567c,,,,,,,decisionTrl,resources/DBN.BMP,resources/DP.BMP,Door2,0.250925912,-0.015740748,1,0,0,1.8598,optionRight,40,9835,5,16,0,16,0,1,,,,,,,,,,,,,,,,,,,,,,,,,,,,,,,,,,,,,,,
,,,,,,,,2023-08-06_08h15.44.503,HF_wild_card,2022.2.4,Win32,29.9832094,60e03b37c87de3cc083b358b,64ce5acb97489d65b14ecc7a,64cf488975e78ea91669567c,,,,,,,decisionTrl,resources/DB.BMP,resources/DG.BMP,Door3,-0.440740727,-0.009259259,1,0,0,0.9259,optionLeft,70,9905,5,17,0,17,0,1,,,,,,,,,,,,,,,,,,,,,,,,,,,,,,,,,,,,,,,
,,,,,,,,2023-08-06_08h15.44.503,HF_wild_card,2022.2.4,Win32,29.9832094,60e03b37c87de3cc083b358b,64ce5acb97489d65b14ecc7a,64cf488975e78ea91669567c,,,,,,,decisionTrl,resources/DBN.BMP,resources/DP.BMP,Door2,0.233333376,0.012962942,1,0,0,0.9121,optionRight,40,9945,5,18,0,18,0,1,,,,,,,,,,,,,,,,,,,,,,,,,,,,,,,,,,,,,,,
,,,,,,,,2023-08-06_08h15.44.503,HF_wild_card,2022.2.4,Win32,29.9832094,60e03b37c87de3cc083b358b,64ce5acb97489d65b14ecc7a,64cf488975e78ea91669567c,,,,,,,decisionTrl,resources/DB.BMP,resources/DY.BMP,Door3,-0.284259231,0.101851852,1,0,0,0.9456,optionLeft,70,10015,5,19,0,19,0,1,,,,,,,,,,,,,,,,,,,,,,,,,,,,,,,,,,,,,,,
,,,,,,,,2023-08-06_08h15.44.503,HF_wild_card,2022.2.4,Win32,29.9832094,60e03b37c87de3cc083b358b,64ce5acb97489d65b14ecc7a,64cf488975e78ea91669567c,,,,,,,sngl,resources/DG.BMP,resources/Empty.png,Door4,-0.180555556,0.033333319,1,0,0,0.8472,optionLeft,80,10095,5,20,0,20,0,1,,,,,,,,,,,,,,,,,,,,,,,,,,,,,,,,,,,,,,,
,,,,,,,,2023-08-06_08h15.44.503,HF_wild_card,2022.2.4,Win32,29.9832094,60e03b37c87de3cc083b358b,64ce5acb97489d65b14ecc7a,64cf488975e78ea91669567c,,,,,,,ctch,resources/DG.BMP,resources/DBN.BMP,Door4,-0.244444459,0.027777778,1,0,0,0.7454,optionLeft,60,10155,5,21,0,21,0,1,,,,,,,,,,,,,,,,,,,,,,,,,,,,,,,,,,,,,,,
,,,,,,,,2023-08-06_08h15.44.503,HF_wild_card,2022.2.4,Win32,29.9832094,60e03b37c87de3cc083b358b,64ce5acb97489d65b14ecc7a,64cf488975e78ea91669567c,,,,,,,decisionTrl,resources/DBN.BMP,resources/DP.BMP,Door2,0.190740727,0.029629637,1,0,0,1.3688,optionRight,20,10175,5,22,0,22,0,1,,,,,,,,,,,,,,,,,,,,,,,,,,,,,,,,,,,,,,,
,,,,,,,,2023-08-06_08h15.44.503,HF_wild_card,2022.2.4,Win32,29.9832094,60e03b37c87de3cc083b358b,64ce5acb97489d65b14ecc7a,64cf488975e78ea91669567c,,,,,,,sngl,resources/Empty.png,resources/DY.BMP,WildCard_Ex,0.300925926,-0.014814836,1,0,0,0.661,optionRight,5,10180,5,23,0,23,0,1,,,,,,,,,,,,,,,,,,,,,,,,,,,,,,,,,,,,,,,
,,,,,,,,2023-08-06_08h15.44.503,HF_wild_card,2022.2.4,Win32,29.9832094,60e03b37c87de3cc083b358b,64ce5acb97489d65b14ecc7a,64cf488975e78ea91669567c,,,,,,,sngl,resources/Empty.png,resources/DBN.BMP,Door1,0.171296296,-0.00462963,1,0,0,0.7283,optionRight,30,10210,5,24,0,24,0,1,,,,,,,,,,,,,,,,,,,,,,,,,,,,,,,,,,,,,,,
,,,,,,,,2023-08-06_08h15.44.503,HF_wild_card,2022.2.4,Win32,29.9832094,60e03b37c87de3cc083b358b,64ce5acb97489d65b14ecc7a,64cf488975e78ea91669567c,,,,,,,sngl,resources/DY.BMP,resources/Empty.png,WildCard_Ex,-0.224999958,-0.023148148,1,0,0,0.7613,optionLeft,95,10305,5,25,0,25,0,1,,,,,,,,,,,,,,,,,,,,,,,,,,,,,,,,,,,,,,,
,,,,,,,,2023-08-06_08h15.44.503,HF_wild_card,2022.2.4,Win32,29.9832094,60e03b37c87de3cc083b358b,64ce5acb97489d65b14ecc7a,64cf488975e78ea91669567c,,,,,,,decisionTrl,resources/DG.BMP,resources/DB.BMP,Door3,0.235185199,-0.053703697,1,0,0,0.9108,optionRight,70,10375,5,26,0,26,0,1,,,,,,,,,,,,,,,,,,,,,,,,,,,,,,,,,,,,,,,
,,,,,,,,2023-08-06_08h15.44.503,HF_wild_card,2022.2.4,Win32,29.9832094,60e03b37c87de3cc083b358b,64ce5acb97489d65b14ecc7a,64cf488975e78ea91669567c,,,,,,,ctch,resources/DB.BMP,resources/DP.BMP,Door3,-0.253703718,-0.103703746,1,0,0,0.9038,optionLeft,70,10445,5,27,0,27,0,1,,,,,,,,,,,,,,,,,,,,,,,,,,,,,,,,,,,,,,,
,,,,,,,,2023-08-06_08h15.44.503,HF_wild_card,2022.2.4,Win32,29.9832094,60e03b37c87de3cc083b358b,64ce5acb97489d65b14ecc7a,64cf488975e78ea91669567c,,,,,,,ctch,resources/DBN.BMP,resources/DG.BMP,Door4,0.273148148,-0.039814808,1,0,0,0.7804,optionRight,80,10525,5,28,0,28,0,1,,,,,,,,,,,,,,,,,,,,,,,,,,,,,,,,,,,,,,,
,,,,,,,,2023-08-06_08h15.44.503,HF_wild_card,2022.2.4,Win32,29.9832094,60e03b37c87de3cc083b358b,64ce5acb97489d65b14ecc7a,64cf488975e78ea91669567c,,,,,,,sngl,resources/Empty.png,resources/DB.BMP,Door3,0.216666681,0.01944443,1,0,0,0.7189,optionRight,70,10595,5,29,0,29,0,1,,,,,,,,,,,,,,,,,,,,,,,,,,,,,,,,,,,,,,,
,,,,,,,,2023-08-06_08h15.44.503,HF_wild_card,2022.2.4,Win32,29.9832094,60e03b37c87de3cc083b358b,64ce5acb97489d65b14ecc7a,64cf488975e78ea91669567c,,,,,,,ctch,resources/DB.BMP,resources/DP.BMP,Door3,-0.132407365,-0.033333355,1,0,0,1.0131,optionLeft,70,10665,5,30,0,30,0,1,,,,,,,,,,,,,,,,,,,,,,,,,,,,,,,,,,,,,,,
,,,,,,,,2023-08-06_08h15.44.503,HF_wild_card,2022.2.4,Win32,29.9832094,60e03b37c87de3cc083b358b,64ce5acb97489d65b14ecc7a,64cf488975e78ea91669567c,,,,,,,decisionTrl,resources/DY.BMP,resources/DBN.BMP,Door1,0.321296268,0.054629608,1,0,0,0.9469,optionRight,30,10695,5,31,0,31,0,1,,,,,,,,,,,,,,,,,,,,,,,,,,,,,,,,,,,,,,,
,,,,,,,,2023-08-06_08h15.44.503,HF_wild_card,2022.2.4,Win32,29.9832094,60e03b37c87de3cc083b358b,64ce5acb97489d65b14ecc7a,64cf488975e78ea91669567c,,,,,,,decisionTrl,resources/DP.BMP,resources/DBN.BMP,Door2,-0.23055557,0.000925912,1,0,0,0.6955,optionLeft,40,10735,5,32,0,32,0,1,,,,,,,,,,,,,,,,,,,,,,,,,,,,,,,,,,,,,,,
,,,,,,,,2023-08-06_08h15.44.503,HF_wild_card,2022.2.4,Win32,29.9832094,60e03b37c87de3cc083b358b,64ce5acb97489d65b14ecc7a,64cf488975e78ea91669567c,,,,,,,decisionTrl,resources/DB.BMP,resources/DG.BMP,Door3,-0.189814815,-0.01203703,1,0,0,0.7141,optionLeft,70,10805,5,33,0,33,0,1,,,,,,,,,,,,,,,,,,,,,,,,,,,,,,,,,,,,,,,
,,,,,,,,2023-08-06_08h15.44.503,HF_wild_card,2022.2.4,Win32,29.9832094,60e03b37c87de3cc083b358b,64ce5acb97489d65b14ecc7a,64cf488975e78ea91669567c,,,,,,,ctch,resources/DBN.BMP,resources/DG.BMP,Door4,0.421296296,0.000925912,1,0,0,0.9801,optionRight,60,10865,5,34,0,34,0,1,,,,,,,,,,,,,,,,,,,,,,,,,,,,,,,,,,,,,,,
,,,,,,,,2023-08-06_08h15.44.503,HF_wild_card,2022.2.4,Win32,29.9832094,60e03b37c87de3cc083b358b,64ce5acb97489d65b14ecc7a,64cf488975e78ea91669567c,,,,,,,decisionTrl,resources/DB.BMP,resources/DG.BMP,Door3,-0.15370369,-0.003703718,1,0,0,0.6474,optionLeft,70,10935,5,35,0,35,0,1,,,,,,,,,,,,,,,,,,,,,,,,,,,,,,,,,,,,,,,
,,,,,,,,2023-08-06_08h15.44.503,HF_wild_card,2022.2.4,Win32,29.9832094,60e03b37c87de3cc083b358b,64ce5acb97489d65b14ecc7a,64cf488975e78ea91669567c,,,,,,,sngl,resources/DB.BMP,resources/Empty.png,Door3,-0.330555563,-0.085185192,1,0,0,0.7354,optionLeft,70,11005,5,36,0,36,0,1,,,,,,,,,,,,,,,,,,,,,,,,,,,,,,,,,,,,,,,
,,,,,,,,2023-08-06_08h15.44.503,HF_wild_card,2022.2.4,Win32,29.9832094,60e03b37c87de3cc083b358b,64ce5acb97489d65b14ecc7a,64cf488975e78ea91669567c,,,,,,,decisionTrl,resources/DBN.BMP,resources/DY.BMP,Door1,-0.299074067,0.035185178,1,0,0,1.0812,optionLeft,30,11035,5,37,0,37,0,1,,,,,,,,,,,,,,,,,,,,,,,,,,,,,,,,,,,,,,,
,,,,,,,,2023-08-06_08h15.44.503,HF_wild_card,2022.2.4,Win32,29.9832094,60e03b37c87de3cc083b358b,64ce5acb97489d65b14ecc7a,64cf488975e78ea91669567c,,,,,,,decisionTrl,resources/DBN.BMP,resources/DP.BMP,Door2,0.202777792,0.049074067,1,0,0,0.7759,optionRight,20,11055,5,38,0,38,0,1,,,,,,,,,,,,,,,,,,,,,,,,,,,,,,,,,,,,,,,
,,,,,,,,2023-08-06_08h15.44.503,HF_wild_card,2022.2.4,Win32,29.9832094,60e03b37c87de3cc083b358b,64ce5acb97489d65b14ecc7a,64cf488975e78ea91669567c,,,,,,,decisionTrl,resources/DP.BMP,resources/DY.BMP,Door2,-0.133333347,0.021296289,1,0,0,0.8599,optionLeft,20,11075,5,39,0,39,0,1,,,,,,,,,,,,,,,,,,,,,,,,,,,,,,,,,,,,,,,
,,,,,,,,2023-08-06_08h15.44.503,HF_wild_card,2022.2.4,Win32,29.9832094,60e03b37c87de3cc083b358b,64ce5acb97489d65b14ecc7a,64cf488975e78ea91669567c,,,,,,,decisionTrl,resources/DY.BMP,resources/DG.BMP,WildCard_Ex,-0.205555527,-0.023148148,1,0,0,0.7475,optionLeft,5,11080,5,40,0,40,0,1,,,,,,,,,,,,,,,,,,,,,,,,,,,,,,,,,,,,,,,
,,,,,,,,2023-08-06_08h15.44.503,HF_wild_card,2022.2.4,Win32,29.9832094,60e03b37c87de3cc083b358b,64ce5acb97489d65b14ecc7a,64cf488975e78ea91669567c,,,,,,,decisionTrl,resources/DG.BMP,resources/DB.BMP,Door3,0.287962949,0.034259266,1,0,0,0.6144,optionRight,70,11150,5,41,0,41,0,1,,,,,,,,,,,,,,,,,,,,,,,,,,,,,,,,,,,,,,,
,,,,,,,,2023-08-06_08h15.44.503,HF_wild_card,2022.2.4,Win32,29.9832094,60e03b37c87de3cc083b358b,64ce5acb97489d65b14ecc7a,64cf488975e78ea91669567c,,,,,,,decisionTrl,resources/DY.BMP,resources/DP.BMP,Door2,0.134259259,0.118518511,1,0,0,1.1632,optionRight,40,11190,5,42,0,42,0,1,,,,,,,,,,,,,,,,,,,,,,,,,,,,,,,,,,,,,,,
,,,,,,,,2023-08-06_08h15.44.503,HF_wild_card,2022.2.4,Win32,29.9832094,60e03b37c87de3cc083b358b,64ce5acb97489d65b14ecc7a,64cf488975e78ea91669567c,,,,,,,decisionTrl,resources/DG.BMP,resources/DB.BMP,Door3,0.179629644,0.118518511,1,0,0,0.8517,optionRight,70,11260,5,43,0,43,0,1,,,,,,,,,,,,,,,,,,,,,,,,,,,,,,,,,,,,,,,
,,,,,,,,2023-08-06_08h15.44.503,HF_wild_card,2022.2.4,Win32,29.9832094,60e03b37c87de3cc083b358b,64ce5acb97489d65b14ecc7a,64cf488975e78ea91669567c,,,,,,,,,,,,,,,,,,,,,,,,,,4,0,4,0,1,,,,,,,,,,,,,,,,,,,,,,,,,,,,,,,,,,
,,,,,,,,2023-08-06_08h15.44.503,HF_wild_card,2022.2.4,Win32,29.9832094,60e03b37c87de3cc083b358b,64ce5acb97489d65b14ecc7a,64cf488975e78ea91669567c,,,,,,,sngl,resources/DY.BMP,resources/Empty.png,WildCard_Ex,-0.240740741,-0.079629651,1,0,0,1.7701,optionLeft,5,11265,6,0,0,0,0,1,,,,,,,,,,,,,,,,,,,,,,,,,,,,,,,,,,,,,,,
,,,,,,,,2023-08-06_08h15.44.503,HF_wild_card,2022.2.4,Win32,29.9832094,60e03b37c87de3cc083b358b,64ce5acb97489d65b14ecc7a,64cf488975e78ea91669567c,,,,,,,sngl,resources/Empty.png,resources/DG.BMP,Door4,0.270370413,0.013888889,1,0,0,0.8138,optionRight,80,11345,6,1,0,1,0,1,,,,,,,,,,,,,,,,,,,,,,,,,,,,,,,,,,,,,,,
,,,,,,,,2023-08-06_08h15.44.503,HF_wild_card,2022.2.4,Win32,29.9832094,60e03b37c87de3cc083b358b,64ce5acb97489d65b14ecc7a,64cf488975e78ea91669567c,,,,,,,decisionTrl,resources/DG.BMP,resources/DB.BMP,Door3,0.407407407,0.090740734,1,0,0,0.9329,optionRight,70,11415,6,2,0,2,0,1,,,,,,,,,,,,,,,,,,,,,,,,,,,,,,,,,,,,,,,
,,,,,,,,2023-08-06_08h15.44.503,HF_wild_card,2022.2.4,Win32,29.9832094,60e03b37c87de3cc083b358b,64ce5acb97489d65b14ecc7a,64cf488975e78ea91669567c,,,,,,,ctch,resources/DB.BMP,resources/DP.BMP,Door3,-0.252777735,0.015740748,1,0,0,0.9055,optionLeft,70,11485,6,3,0,3,0,1,,,,,,,,,,,,,,,,,,,,,,,,,,,,,,,,,,,,,,,
,,,,,,,,2023-08-06_08h15.44.503,HF_wild_card,2022.2.4,Win32,29.9832094,60e03b37c87de3cc083b358b,64ce5acb97489d65b14ecc7a,64cf488975e78ea91669567c,,,,,,,decisionTrl,resources/DP.BMP,resources/DBN.BMP,Door2,-0.176851838,0.048148155,1,0,0,0.7466,optionLeft,20,11505,6,4,0,4,0,1,,,,,,,,,,,,,,,,,,,,,,,,,,,,,,,,,,,,,,,
,,,,,,,,2023-08-06_08h15.44.503,HF_wild_card,2022.2.4,Win32,29.9832094,60e03b37c87de3cc083b358b,64ce5acb97489d65b14ecc7a,64cf488975e78ea91669567c,,,,,,,decisionTrl,resources/DBN.BMP,resources/DP.BMP,Door1,-0.214814787,0.104629623,1,0,0,0.7139,optionLeft,30,11535,6,5,0,5,0,1,,,,,,,,,,,,,,,,,,,,,,,,,,,,,,,,,,,,,,,
,,,,,,,,2023-08-06_08h15.44.503,HF_wild_card,2022.2.4,Win32,29.9832094,60e03b37c87de3cc083b358b,64ce5acb97489d65b14ecc7a,64cf488975e78ea91669567c,,,,,,,decisionTrl,resources/DB.BMP,resources/DG.BMP,Door3,-0.201851809,0.051851838,1,0,0,0.7523,optionLeft,70,11605,6,6,0,6,0,1,,,,,,,,,,,,,,,,,,,,,,,,,,,,,,,,,,,,,,,
,,,,,,,,2023-08-06_08h15.44.503,HF_wild_card,2022.2.4,Win32,29.9832094,60e03b37c87de3cc083b358b,64ce5acb97489d65b14ecc7a,64cf488975e78ea91669567c,,,,,,,decisionTrl,resources/DG.BMP,resources/DB.BMP,Door3,0.290740755,0.116666653,1,0,0,0.8589,optionRight,70,11675,6,7,0,7,0,1,,,,,,,,,,,,,,,,,,,,,,,,,,,,,,,,,,,,,,,
,,,,,,,,2023-08-06_08h15.44.503,HF_wild_card,2022.2.4,Win32,29.9832094,60e03b37c87de3cc083b358b,64ce5acb97489d65b14ecc7a,64cf488975e78ea91669567c,,,,,,,decisionTrl,resources/DP.BMP,resources/DBN.BMP,Door2,-0.237037023,0.063888868,1,0,0,0.981,optionLeft,40,11715,6,8,0,8,0,1,,,,,,,,,,,,,,,,,,,,,,,,,,,,,,,,,,,,,,,
,,,,,,,,2023-08-06_08h15.44.503,HF_wild_card,2022.2.4,Win32,29.9832094,60e03b37c87de3cc083b358b,64ce5acb97489d65b14ecc7a,64cf488975e78ea91669567c,,,,,,,decisionTrl,resources/DBN.BMP,resources/DP.BMP,Door2,0.30277775,0.102777764,1,0,0,1.2147,optionRight,20,11735,6,9,0,9,0,1,,,,,,,,,,,,,,,,,,,,,,,,,,,,,,,,,,,,,,,
,,,,,,,,2023-08-06_08h15.44.503,HF_wild_card,2022.2.4,Win32,29.9832094,60e03b37c87de3cc083b358b,64ce5acb97489d65b14ecc7a,64cf488975e78ea91669567c,,,,,,,ctch,resources/DBN.BMP,resources/DG.BMP,Door1,-0.17314812,0.074999986,1,0,0,0.6475,optionLeft,30,11765,6,10,0,10,0,1,,,,,,,,,,,,,,,,,,,,,,,,,,,,,,,,,,,,,,,
,,,,,,,,2023-08-06_08h15.44.503,HF_wild_card,2022.2.4,Win32,29.9832094,60e03b37c87de3cc083b358b,64ce5acb97489d65b14ecc7a,64cf488975e78ea91669567c,,,,,,,ctch,resources/DBN.BMP,resources/DG.BMP,Door4,0.350000028,0.11296297,1,0,0,0.7043,optionRight,60,11825,6,11,0,11,0,1,,,,,,,,,,,,,,,,,,,,,,,,,,,,,,,,,,,,,,,
,,,,,,,,2023-08-06_08h15.44.503,HF_wild_card,2022.2.4,Win32,29.9832094,60e03b37c87de3cc083b358b,64ce5acb97489d65b14ecc7a,64cf488975e78ea91669567c,,,,,,,sngl,resources/Empty.png,resources/DP.BMP,Door2,0.186111097,0.064814815,1,0,0,0.8253,optionRight,40,11865,6,12,0,12,0,1,,,,,,,,,,,,,,,,,,,,,,,,,,,,,,,,,,,,,,,
,,,,,,,,2023-08-06_08h15.44.503,HF_wild_card,2022.2.4,Win32,29.9832094,60e03b37c87de3cc083b358b,64ce5acb97489d65b14ecc7a,64cf488975e78ea91669567c,,,,,,,decisionTrl,resources/DY.BMP,resources/DBN.BMP,Door1,0.237037023,0.111111111,1,0,0,1.026,optionRight,30,11895,6,13,0,13,0,1,,,,,,,,,,,,,,,,,,,,,,,,,,,,,,,,,,,,,,,
,,,,,,,,2023-08-06_08h15.44.503,HF_wild_card,2022.2.4,Win32,29.9832094,60e03b37c87de3cc083b358b,64ce5acb97489d65b14ecc7a,64cf488975e78ea91669567c,,,,,,,decisionTrl,resources/DB.BMP,resources/DG.BMP,Door3,-0.212037051,0.01203703,1,0,0,0.7595,optionLeft,70,11965,6,14,0,14,0,1,,,,,,,,,,,,,,,,,,,,,,,,,,,,,,,,,,,,,,,
,,,,,,,,2023-08-06_08h15.44.503,HF_wild_card,2022.2.4,Win32,29.9832094,60e03b37c87de3cc083b358b,64ce5acb97489d65b14ecc7a,64cf488975e78ea91669567c,,,,,,,decisionTrl,resources/DP.BMP,resources/DBN.BMP,Door2,-0.228703675,0.053703697,1,0,0,0.7912,optionLeft,20,11985,6,15,0,15,0,1,,,,,,,,,,,,,,,,,,,,,,,,,,,,,,,,,,,,,,,
,,,,,,,,2023-08-06_08h15.44.503,HF_wild_card,2022.2.4,Win32,29.9832094,60e03b37c87de3cc083b358b,64ce5acb97489d65b14ecc7a,64cf488975e78ea91669567c,,,,,,,decisionTrl,resources/DB.BMP,resources/DG.BMP,Door4,0.118518547,0.056481467,1,0,0,0.8089,optionRight,60,12045,6,16,0,16,0,1,,,,,,,,,,,,,,,,,,,,,,,,,,,,,,,,,,,,,,,
,,,,,,,,2023-08-06_08h15.44.503,HF_wild_card,2022.2.4,Win32,29.9832094,60e03b37c87de3cc083b358b,64ce5acb97489d65b14ecc7a,64cf488975e78ea91669567c,,,,,,,decisionTrl,resources/DBN.BMP,resources/DY.BMP,Door1,-0.207407422,0.063888868,1,0,0,0.9473,optionLeft,30,12075,6,17,0,17,0,1,,,,,,,,,,,,,,,,,,,,,,,,,,,,,,,,,,,,,,,
,,,,,,,,2023-08-06_08h15.44.503,HF_wild_card,2022.2.4,Win32,29.9832094,60e03b37c87de3cc083b358b,64ce5acb97489d65b14ecc7a,64cf488975e78ea91669567c,,,,,,,sngl,resources/DP.BMP,resources/Empty.png,Door2,-0.130555541,0.008333312,1,0,0,0.7003,optionLeft,20,12095,6,18,0,18,0,1,,,,,,,,,,,,,,,,,,,,,,,,,,,,,,,,,,,,,,,
,,,,,,,,2023-08-06_08h15.44.503,HF_wild_card,2022.2.4,Win32,29.9832094,60e03b37c87de3cc083b358b,64ce5acb97489d65b14ecc7a,64cf488975e78ea91669567c,,,,,,,decisionTrl,resources/DP.BMP,resources/DY.BMP,Door2,-0.164814772,0.03611109,1,0,0,0.9271,optionLeft,40,12135,6,19,0,19,0,1,,,,,,,,,,,,,,,,,,,,,,,,,,,,,,,,,,,,,,,
,,,,,,,,2023-08-06_08h15.44.503,HF_wild_card,2022.2.4,Win32,29.9832094,60e03b37c87de3cc083b358b,64ce5acb97489d65b14ecc7a,64cf488975e78ea91669567c,,,,,,,decisionTrl,resources/DB.BMP,resources/DG.BMP,Door3,-0.121296282,0.002777771,1,0,0,0.7144,optionLeft,70,12205,6,20,0,20,0,1,,,,,,,,,,,,,,,,,,,,,,,,,,,,,,,,,,,,,,,
,,,,,,,,2023-08-06_08h15.44.503,HF_wild_card,2022.2.4,Win32,29.9832094,60e03b37c87de3cc083b358b,64ce5acb97489d65b14ecc7a,64cf488975e78ea91669567c,,,,,,,ctch,resources/DP.BMP,resources/DB.BMP,Door3,0.237037023,0.032407407,1,0,0,0.7921,optionRight,70,12275,6,21,0,21,0,1,,,,,,,,,,,,,,,,,,,,,,,,,,,,,,,,,,,,,,,
,,,,,,,,2023-08-06_08h15.44.503,HF_wild_card,2022.2.4,Win32,29.9832094,60e03b37c87de3cc083b358b,64ce5acb97489d65b14ecc7a,64cf488975e78ea91669567c,,,,,,,decisionTrl,resources/DY.BMP,resources/DP.BMP,Door2,0.232407393,0.092592593,1,0,0,1.2783,optionRight,40,12315,6,22,0,22,0,1,,,,,,,,,,,,,,,,,,,,,,,,,,,,,,,,,,,,,,,
,,,,,,,,2023-08-06_08h15.44.503,HF_wild_card,2022.2.4,Win32,29.9832094,60e03b37c87de3cc083b358b,64ce5acb97489d65b14ecc7a,64cf488975e78ea91669567c,,,,,,,decisionTrl,resources/DP.BMP,resources/DBN.BMP,Door2,-0.400000007,0.105555534,1,0,0,1.6143,optionLeft,20,12335,6,23,0,23,0,1,,,,,,,,,,,,,,,,,,,,,,,,,,,,,,,,,,,,,,,
,,,,,,,,2023-08-06_08h15.44.503,HF_wild_card,2022.2.4,Win32,29.9832094,60e03b37c87de3cc083b358b,64ce5acb97489d65b14ecc7a,64cf488975e78ea91669567c,,,,,,,decisionTrl,resources/DG.BMP,resources/DB.BMP,Door3,0.287962949,0.053703697,1,0,0,0.8634,optionRight,70,12405,6,24,0,24,0,1,,,,,,,,,,,,,,,,,,,,,,,,,,,,,,,,,,,,,,,
,,,,,,,,2023-08-06_08h15.44.503,HF_wild_card,2022.2.4,Win32,29.9832094,60e03b37c87de3cc083b358b,64ce5acb97489d65b14ecc7a,64cf488975e78ea91669567c,,,,,,,decisionTrl,resources/DG.BMP,resources/DY.BMP,Door4,-0.161111125,-0.058333326,1,0,0,0.9084,optionLeft,60,12465,6,25,0,25,0,1,,,,,,,,,,,,,,,,,,,,,,,,,,,,,,,,,,,,,,,
,,,,,,,,2023-08-06_08h15.44.503,HF_wild_card,2022.2.4,Win32,29.9832094,60e03b37c87de3cc083b358b,64ce5acb97489d65b14ecc7a,64cf488975e78ea91669567c,,,,,,,sngl,resources/Empty.png,resources/DBN.BMP,Door1,0.211111139,0.074999986,1,0,0,0.7362,optionRight,30,12495,6,26,0,26,0,1,,,,,,,,,,,,,,,,,,,,,,,,,,,,,,,,,,,,,,,
,,,,,,,,2023-08-06_08h15.44.503,HF_wild_card,2022.2.4,Win32,29.9832094,60e03b37c87de3cc083b358b,64ce5acb97489d65b14ecc7a,64cf488975e78ea91669567c,,,,,,,decisionTrl,resources/DBN.BMP,resources/DP.BMP,Door1,-0.386111118,-0.001851859,1,0,0,0.6804,optionLeft,30,12525,6,27,0,27,0,1,,,,,,,,,,,,,,,,,,,,,,,,,,,,,,,,,,,,,,,
,,,,,,,,2023-08-06_08h15.44.503,HF_wild_card,2022.2.4,Win32,29.9832094,60e03b37c87de3cc083b358b,64ce5acb97489d65b14ecc7a,64cf488975e78ea91669567c,,,,,,,sngl,resources/Empty.png,resources/DY.BMP,WildCard_Ex,0.154629672,0.013888889,1,0,0,1.0025,optionRight,5,12530,6,28,0,28,0,1,,,,,,,,,,,,,,,,,,,,,,,,,,,,,,,,,,,,,,,
,,,,,,,,2023-08-06_08h15.44.503,HF_wild_card,2022.2.4,Win32,29.9832094,60e03b37c87de3cc083b358b,64ce5acb97489d65b14ecc7a,64cf488975e78ea91669567c,,,,,,,decisionTrl,resources/DB.BMP,resources/DY.BMP,Door3,-0.258333347,0.049074067,1,0,0,0.9802,optionLeft,70,12600,6,29,0,29,0,1,,,,,,,,,,,,,,,,,,,,,,,,,,,,,,,,,,,,,,,
,,,,,,,,2023-08-06_08h15.44.503,HF_wild_card,2022.2.4,Win32,29.9832094,60e03b37c87de3cc083b358b,64ce5acb97489d65b14ecc7a,64cf488975e78ea91669567c,,,,,,,ctch,resources/DG.BMP,resources/DBN.BMP,Door1,0.23055557,0.087037016,1,0,0,0.9602,optionRight,30,12630,6,30,0,30,0,1,,,,,,,,,,,,,,,,,,,,,,,,,,,,,,,,,,,,,,,
,,,,,,,,2023-08-06_08h15.44.503,HF_wild_card,2022.2.4,Win32,29.9832094,60e03b37c87de3cc083b358b,64ce5acb97489d65b14ecc7a,64cf488975e78ea91669567c,,,,,,,sngl,resources/DB.BMP,resources/Empty.png,Door3,-0.282407407,0.000925912,1,0,0,0.6757,optionLeft,70,12700,6,31,0,31,0,1,,,,,,,,,,,,,,,,,,,,,,,,,,,,,,,,,,,,,,,
,,,,,,,,2023-08-06_08h15.44.503,HF_wild_card,2022.2.4,Win32,29.9832094,60e03b37c87de3cc083b358b,64ce5acb97489d65b14ecc7a,64cf488975e78ea91669567c,,,,,,,ctch,resources/DP.BMP,resources/DB.BMP,Door3,0.275000042,0.059259238,1,0,0,0.9807,optionRight,70,12770,6,32,0,32,0,1,,,,,,,,,,,,,,,,,,,,,,,,,,,,,,,,,,,,,,,
,,,,,,,,2023-08-06_08h15.44.503,HF_wild_card,2022.2.4,Win32,29.9832094,60e03b37c87de3cc083b358b,64ce5acb97489d65b14ecc7a,64cf488975e78ea91669567c,,,,,,,sngl,resources/DG.BMP,resources/Empty.png,Door4,-0.306481467,0.068518497,1,0,0,0.7482,optionLeft,60,12830,6,33,0,33,0,1,,,,,,,,,,,,,,,,,,,,,,,,,,,,,,,,,,,,,,,
,,,,,,,,2023-08-06_08h15.44.503,HF_wild_card,2022.2.4,Win32,29.9832094,60e03b37c87de3cc083b358b,64ce5acb97489d65b14ecc7a,64cf488975e78ea91669567c,,,,,,,ctch,resources/DG.BMP,resources/DBN.BMP,Door4,-0.349999993,0.148148148,1,0,0,1.7304,optionLeft,60,12890,6,34,0,34,0,1,,,,,,,,,,,,,,,,,,,,,,,,,,,,,,,,,,,,,,,
,,,,,,,,2023-08-06_08h15.44.503,HF_wild_card,2022.2.4,Win32,29.9832094,60e03b37c87de3cc083b358b,64ce5acb97489d65b14ecc7a,64cf488975e78ea91669567c,,,,,,,sngl,resources/DY.BMP,resources/Empty.png,WildCard_Ex,-0.139814801,0.010185171,1,0,0,0.9302,optionLeft,95,12985,6,35,0,35,0,1,,,,,,,,,,,,,,,,,,,,,,,,,,,,,,,,,,,,,,,
,,,,,,,,2023-08-06_08h15.44.503,HF_wild_card,2022.2.4,Win32,29.9832094,60e03b37c87de3cc083b358b,64ce5acb97489d65b14ecc7a,64cf488975e78ea91669567c,,,,,,,decisionTrl,resources/DY.BMP,resources/DG.BMP,Door4,0.136111153,0.034259266,1,0,0,0.7741,optionRight,80,13065,6,36,0,36,0,1,,,,,,,,,,,,,,,,,,,,,,,,,,,,,,,,,,,,,,,
,,,,,,,,2023-08-06_08h15.44.503,HF_wild_card,2022.2.4,Win32,29.9832094,60e03b37c87de3cc083b358b,64ce5acb97489d65b14ecc7a,64cf488975e78ea91669567c,,,,,,,decisionTrl,resources/DBN.BMP,resources/DP.BMP,Door1,-0.157407407,0.074074074,1,0,0,1.0422,optionLeft,30,13095,6,37,0,37,0,1,,,,,,,,,,,,,,,,,,,,,,,,,,,,,,,,,,,,,,,
,,,,,,,,2023-08-06_08h15.44.503,HF_wild_card,2022.2.4,Win32,29.9832094,60e03b37c87de3cc083b358b,64ce5acb97489d65b14ecc7a,64cf488975e78ea91669567c,,,,,,,ctch,resources/DB.BMP,resources/DP.BMP,Door3,-0.170370384,0.081481474,1,0,0,0.9974,optionLeft,70,13165,6,38,0,38,0,1,,,,,,,,,,,,,,,,,,,,,,,,,,,,,,,,,,,,,,,
,,,,,,,,2023-08-06_08h15.44.503,HF_wild_card,2022.2.4,Win32,29.9832094,60e03b37c87de3cc083b358b,64ce5acb97489d65b14ecc7a,64cf488975e78ea91669567c,,,,,,,sngl,resources/Empty.png,resources/DB.BMP,Door3,0.186111097,0.044444437,1,0,0,0.8419,optionRight,70,13235,6,39,0,39,0,1,,,,,,,,,,,,,,,,,,,,,,,,,,,,,,,,,,,,,,,
,,,,,,,,2023-08-06_08h15.44.503,HF_wild_card,2022.2.4,Win32,29.9832094,60e03b37c87de3cc083b358b,64ce5acb97489d65b14ecc7a,64cf488975e78ea91669567c,,,,,,,decisionTrl,resources/DG.BMP,resources/DB.BMP,Door3,0.193518533,0.003703683,1,0,0,0.9869,optionRight,70,13305,6,40,0,40,0,1,,,,,,,,,,,,,,,,,,,,,,,,,,,,,,,,,,,,,,,
,,,,,,,,2023-08-06_08h15.44.503,HF_wild_card,2022.2.4,Win32,29.9832094,60e03b37c87de3cc083b358b,64ce5acb97489d65b14ecc7a,64cf488975e78ea91669567c,,,,,,,sngl,resources/DBN.BMP,resources/Empty.png,Door1,-0.195370356,0.032407407,1,0,0,0.9518,optionLeft,30,13335,6,41,0,41,0,1,,,,,,,,,,,,,,,,,,,,,,,,,,,,,,,,,,,,,,,
,,,,,,,,2023-08-06_08h15.44.503,HF_wild_card,2022.2.4,Win32,29.9832094,60e03b37c87de3cc083b358b,64ce5acb97489d65b14ecc7a,64cf488975e78ea91669567c,,,,,,,decisionTrl,resources/DY.BMP,resources/DB.BMP,Door3,0.146296325,0.006481489,1,0,0,0.7309,optionRight,70,13405,6,42,0,42,0,1,,,,,,,,,,,,,,,,,,,,,,,,,,,,,,,,,,,,,,,
,,,,,,,,2023-08-06_08h15.44.503,HF_wild_card,2022.2.4,Win32,29.9832094,60e03b37c87de3cc083b358b,64ce5acb97489d65b14ecc7a,64cf488975e78ea91669567c,,,,,,,sngl,resources/Empty.png,resources/DY.BMP,WildCard_Ex,0.184259273,0.01666666,1,0,0,0.7594,optionRight,95,13500,6,43,0,43,0,1,,,,,,,,,,,,,,,,,,,,,,,,,,,,,,,,,,,,,,,
,,,,,,,,2023-08-06_08h15.44.503,HF_wild_card,2022.2.4,Win32,29.9832094,60e03b37c87de3cc083b358b,64ce5acb97489d65b14ecc7a,64cf488975e78ea91669567c,,,,,,,,,,,,,,,,,,,,,,,,,,5,0,5,0,1,,,,,,,,,,,,,,,,,,,,,,,,,,,,,,,,,,
,,,,,,,,2023-08-06_08h15.44.503,HF_wild_card,2022.2.4,Win32,29.9832094,60e03b37c87de3cc083b358b,64ce5acb97489d65b14ecc7a,64cf488975e78ea91669567c,,,,,,,decisionTrl,resources/DP.BMP,resources/DBN.BMP,Door2,-0.215740698,0.037962949,1,0,0,2.002,optionLeft,40,13540,7,0,0,0,0,1,,,,,,,,,,,,,,,,,,,,,,,,,,,,,,,,,,,,,,,
,,,,,,,,2023-08-06_08h15.44.503,HF_wild_card,2022.2.4,Win32,29.9832094,60e03b37c87de3cc083b358b,64ce5acb97489d65b14ecc7a,64cf488975e78ea91669567c,,,,,,,decisionTrl,resources/DG.BMP,resources/DB.BMP,Door3,0.35555564,-0.001851859,1,0,0,0.8316,optionRight,70,13610,7,1,0,1,0,1,,,,,,,,,,,,,,,,,,,,,,,,,,,,,,,,,,,,,,,
,,,,,,,,2023-08-06_08h15.44.503,HF_wild_card,2022.2.4,Win32,29.9832094,60e03b37c87de3cc083b358b,64ce5acb97489d65b14ecc7a,64cf488975e78ea91669567c,,,,,,,ctch,resources/DG.BMP,resources/DBN.BMP,Door4,-0.190740727,-0.014814836,1,0,0,0.7489,optionLeft,60,13670,7,2,0,2,0,1,,,,,,,,,,,,,,,,,,,,,,,,,,,,,,,,,,,,,,,
,,,,,,,,2023-08-06_08h15.44.503,HF_wild_card,2022.2.4,Win32,29.9832094,60e03b37c87de3cc083b358b,64ce5acb97489d65b14ecc7a,64cf488975e78ea91669567c,,,,,,,ctch,resources/DP.BMP,resources/DB.BMP,Door3,0.22129631,-0.043518526,1,0,0,0.748,optionRight,70,13740,7,3,0,3,0,1,,,,,,,,,,,,,,,,,,,,,,,,,,,,,,,,,,,,,,,
,,,,,,,,2023-08-06_08h15.44.503,HF_wild_card,2022.2.4,Win32,29.9832094,60e03b37c87de3cc083b358b,64ce5acb97489d65b14ecc7a,64cf488975e78ea91669567c,,,,,,,ctch,resources/DB.BMP,resources/DP.BMP,Door3,-0.193518533,-0.006481489,1,0,0,0.699,optionLeft,70,13810,7,4,0,4,0,1,,,,,,,,,,,,,,,,,,,,,,,,,,,,,,,,,,,,,,,
,,,,,,,,2023-08-06_08h15.44.503,HF_wild_card,2022.2.4,Win32,29.9832094,60e03b37c87de3cc083b358b,64ce5acb97489d65b14ecc7a,64cf488975e78ea91669567c,,,,,,,decisionTrl,resources/DP.BMP,resources/DBN.BMP,Door2,-0.182407379,0.074074074,1,0,0,0.9709,optionLeft,20,13830,7,5,0,5,0,1,,,,,,,,,,,,,,,,,,,,,,,,,,,,,,,,,,,,,,,
,,,,,,,,2023-08-06_08h15.44.503,HF_wild_card,2022.2.4,Win32,29.9832094,60e03b37c87de3cc083b358b,64ce5acb97489d65b14ecc7a,64cf488975e78ea91669567c,,,,,,,decisionTrl,resources/DB.BMP,resources/DG.BMP,Door3,-0.099999958,0.044444437,1,0,0,0.8983,optionLeft,70,13900,7,6,0,6,0,1,,,,,,,,,,,,,,,,,,,,,,,,,,,,,,,,,,,,,,,
,,,,,,,,2023-08-06_08h15.44.503,HF_wild_card,2022.2.4,Win32,29.9832094,60e03b37c87de3cc083b358b,64ce5acb97489d65b14ecc7a,64cf488975e78ea91669567c,,,,,,,ctch,resources/DG.BMP,resources/DBN.BMP,Door4,-0.131481453,0.042592578,1,0,0,0.6817,optionLeft,80,13980,7,7,0,7,0,1,,,,,,,,,,,,,,,,,,,,,,,,,,,,,,,,,,,,,,,
,,,,,,,,2023-08-06_08h15.44.503,HF_wild_card,2022.2.4,Win32,29.9832094,60e03b37c87de3cc083b358b,64ce5acb97489d65b14ecc7a,64cf488975e78ea91669567c,,,,,,,decisionTrl,resources/DB.BMP,resources/DG.BMP,Door3,-0.207407422,0.052777785,1,0,0,0.7148,optionLeft,70,14050,7,8,0,8,0,1,,,,,,,,,,,,,,,,,,,,,,,,,,,,,,,,,,,,,,,
,,,,,,,,2023-08-06_08h15.44.503,HF_wild_card,2022.2.4,Win32,29.9832094,60e03b37c87de3cc083b358b,64ce5acb97489d65b14ecc7a,64cf488975e78ea91669567c,,,,,,,ctch,resources/DB.BMP,resources/DP.BMP,Door3,-0.176851838,0.04074072,1,0,0,0.6694,optionLeft,70,14120,7,9,0,9,0,1,,,,,,,,,,,,,,,,,,,,,,,,,,,,,,,,,,,,,,,
,,,,,,,,2023-08-06_08h15.44.503,HF_wild_card,2022.2.4,Win32,29.9832094,60e03b37c87de3cc083b358b,64ce5acb97489d65b14ecc7a,64cf488975e78ea91669567c,,,,,,,decisionTrl,resources/DG.BMP,resources/DB.BMP,Door3,0.277777778,0.022222201,1,0,0,1.1485,optionRight,70,14190,7,10,0,10,0,1,,,,,,,,,,,,,,,,,,,,,,,,,,,,,,,,,,,,,,,
,,,,,,,,2023-08-06_08h15.44.503,HF_wild_card,2022.2.4,Win32,29.9832094,60e03b37c87de3cc083b358b,64ce5acb97489d65b14ecc7a,64cf488975e78ea91669567c,,,,,,,decisionTrl,resources/DBN.BMP,resources/DP.BMP,Door2,0.203703704,0.00462963,1,0,0,1.9318,optionRight,40,14230,7,11,0,11,0,1,,,,,,,,,,,,,,,,,,,,,,,,,,,,,,,,,,,,,,,
,,,,,,,,2023-08-06_08h15.44.503,HF_wild_card,2022.2.4,Win32,29.9832094,60e03b37c87de3cc083b358b,64ce5acb97489d65b14ecc7a,64cf488975e78ea91669567c,,,,,,,decisionTrl,resources/DG.BMP,resources/DB.BMP,Door3,0.174074102,0.012962942,1,0,0,0.7524,optionRight,70,14300,7,12,0,12,0,1,,,,,,,,,,,,,,,,,,,,,,,,,,,,,,,,,,,,,,,
,,,,,,,,2023-08-06_08h15.44.503,HF_wild_card,2022.2.4,Win32,29.9832094,60e03b37c87de3cc083b358b,64ce5acb97489d65b14ecc7a,64cf488975e78ea91669567c,,,,,,,ctch,resources/DP.BMP,resources/DB.BMP,Door3,0.22129631,0.02870369,1,0,0,0.7781,optionRight,70,14370,7,13,0,13,0,1,,,,,,,,,,,,,,,,,,,,,,,,,,,,,,,,,,,,,,,
,,,,,,,,2023-08-06_08h15.44.503,HF_wild_card,2022.2.4,Win32,29.9832094,60e03b37c87de3cc083b358b,64ce5acb97489d65b14ecc7a,64cf488975e78ea91669567c,,,,,,,decisionTrl,resources/DP.BMP,resources/DBN.BMP,Door2,-0.421296296,0.099999993,1,0,0,1.5652,optionLeft,20,14390,7,14,0,14,0,1,,,,,,,,,,,,,,,,,,,,,,,,,,,,,,,,,,,,,,,
,,,,,,,,2023-08-06_08h15.44.503,HF_wild_card,2022.2.4,Win32,29.9832094,60e03b37c87de3cc083b358b,64ce5acb97489d65b14ecc7a,64cf488975e78ea91669567c,,,,,,,decisionTrl,resources/DP.BMP,resources/DBN.BMP,Door2,-0.222222222,0.062037044,1,0,0,0.7112,optionLeft,40,14430,7,15,0,15,0,1,,,,,,,,,,,,,,,,,,,,,,,,,,,,,,,,,,,,,,,
,,,,,,,,2023-08-06_08h15.44.503,HF_wild_card,2022.2.4,Win32,29.9832094,60e03b37c87de3cc083b358b,64ce5acb97489d65b14ecc7a,64cf488975e78ea91669567c,,,,,,,decisionTrl,resources/DP.BMP,resources/DBN.BMP,Door2,-0.209259245,0.044444437,1,0,0,0.7153,optionLeft,40,14470,7,16,0,16,0,1,,,,,,,,,,,,,,,,,,,,,,,,,,,,,,,,,,,,,,,
,,,,,,,,2023-08-06_08h15.44.503,HF_wild_card,2022.2.4,Win32,29.9832094,60e03b37c87de3cc083b358b,64ce5acb97489d65b14ecc7a,64cf488975e78ea91669567c,,,,,,,decisionTrl,resources/DG.BMP,resources/DB.BMP,Door3,0.20185188,0.001851859,1,0,0,0.9034,optionRight,70,14540,7,17,0,17,0,1,,,,,,,,,,,,,,,,,,,,,,,,,,,,,,,,,,,,,,,
,,,,,,,,2023-08-06_08h15.44.503,HF_wild_card,2022.2.4,Win32,29.9832094,60e03b37c87de3cc083b358b,64ce5acb97489d65b14ecc7a,64cf488975e78ea91669567c,,,,,,,decisionTrl,resources/DG.BMP,resources/DB.BMP,Door3,0.17777782,0.010185171,1,0,0,0.6489,optionRight,70,14610,7,18,0,18,0,1,,,,,,,,,,,,,,,,,,,,,,,,,,,,,,,,,,,,,,,
,,,,,,,,2023-08-06_08h15.44.503,HF_wild_card,2022.2.4,Win32,29.9832094,60e03b37c87de3cc083b358b,64ce5acb97489d65b14ecc7a,64cf488975e78ea91669567c,,,,,,,decisionTrl,resources/DBN.BMP,resources/DP.BMP,Door2,0.287962949,0.048148155,1,0,0,1.1101,optionRight,40,14650,7,19,0,19,0,1,,,,,,,,,,,,,,,,,,,,,,,,,,,,,,,,,,,,,,,
,,,,,,,,2023-08-06_08h15.44.503,HF_wild_card,2022.2.4,Win32,29.9832094,60e03b37c87de3cc083b358b,64ce5acb97489d65b14ecc7a,64cf488975e78ea91669567c,,,,,,,decisionTrl,resources/DB.BMP,resources/DG.BMP,Door3,-0.148148148,-0.045370384,1,0,0,0.9447,optionLeft,70,14720,7,20,0,20,0,1,,,,,,,,,,,,,,,,,,,,,,,,,,,,,,,,,,,,,,,
,,,,,,,,2023-08-06_08h15.44.503,HF_wild_card,2022.2.4,Win32,29.9832094,60e03b37c87de3cc083b358b,64ce5acb97489d65b14ecc7a,64cf488975e78ea91669567c,,,,,,,decisionTrl,resources/DP.BMP,resources/DBN.BMP,Door2,-0.179629644,0.043518526,1,0,0,1.0946,optionLeft,20,14740,7,21,0,21,0,1,,,,,,,,,,,,,,,,,,,,,,,,,,,,,,,,,,,,,,,
,,,,,,,,2023-08-06_08h15.44.503,HF_wild_card,2022.2.4,Win32,29.9832094,60e03b37c87de3cc083b358b,64ce5acb97489d65b14ecc7a,64cf488975e78ea91669567c,,,,,,,decisionTrl,resources/DG.BMP,resources/DB.BMP,Door3,0.294444473,-0.087037051,1,0,0,2.7321,optionRight,70,14810,7,22,0,22,0,1,,,,,,,,,,,,,,,,,,,,,,,,,,,,,,,,,,,,,,,
,,,,,,,,2023-08-06_08h15.44.503,HF_wild_card,2022.2.4,Win32,29.9832094,60e03b37c87de3cc083b358b,64ce5acb97489d65b14ecc7a,64cf488975e78ea91669567c,,,,,,,decisionTrl,resources/DB.BMP,resources/DG.BMP,Door3,-0.182407379,-0.134259259,1,0,0,0.7985,optionLeft,70,14880,7,23,0,23,0,1,,,,,,,,,,,,,,,,,,,,,,,,,,,,,,,,,,,,,,,
,,,,,,,,2023-08-06_08h15.44.503,HF_wild_card,2022.2.4,Win32,29.9832094,60e03b37c87de3cc083b358b,64ce5acb97489d65b14ecc7a,64cf488975e78ea91669567c,,,,,,,decisionTrl,resources/DBN.BMP,resources/DP.BMP,Door2,0.270370413,-0.037962984,1,0,0,0.7707,optionRight,20,14900,7,24,0,24,0,1,,,,,,,,,,,,,,,,,,,,,,,,,,,,,,,,,,,,,,,
,,,,,,,,2023-08-06_08h15.44.503,HF_wild_card,2022.2.4,Win32,29.9832094,60e03b37c87de3cc083b358b,64ce5acb97489d65b14ecc7a,64cf488975e78ea91669567c,,,,,,,ctch,resources/DBN.BMP,resources/DG.BMP,Door4,0.255555541,-0.062962956,1,0,0,0.7741,optionRight,60,14960,7,25,0,25,0,1,,,,,,,,,,,,,,,,,,,,,,,,,,,,,,,,,,,,,,,
,,,,,,,,2023-08-06_08h15.44.503,HF_wild_card,2022.2.4,Win32,29.9832094,60e03b37c87de3cc083b358b,64ce5acb97489d65b14ecc7a,64cf488975e78ea91669567c,,,,,,,ctch,resources/DG.BMP,resources/DBN.BMP,Door4,-0.316666674,-0.069444444,1,0,0,0.6647,optionLeft,80,15040,7,26,0,26,0,1,,,,,,,,,,,,,,,,,,,,,,,,,,,,,,,,,,,,,,,
,,,,,,,,2023-08-06_08h15.44.503,HF_wild_card,2022.2.4,Win32,29.9832094,60e03b37c87de3cc083b358b,64ce5acb97489d65b14ecc7a,64cf488975e78ea91669567c,,,,,,,ctch,resources/DBN.BMP,resources/DG.BMP,Door4,0.361111111,-0.092592593,1,0,0,0.9159,optionRight,80,15120,7,27,0,27,0,1,,,,,,,,,,,,,,,,,,,,,,,,,,,,,,,,,,,,,,,
,,,,,,,,2023-08-06_08h15.44.503,HF_wild_card,2022.2.4,Win32,29.9832094,60e03b37c87de3cc083b358b,64ce5acb97489d65b14ecc7a,64cf488975e78ea91669567c,,,,,,,decisionTrl,resources/DB.BMP,resources/DG.BMP,Door3,-0.140740712,-0.049074067,1,0,0,0.8986,optionLeft,70,15190,7,28,0,28,0,1,,,,,,,,,,,,,,,,,,,,,,,,,,,,,,,,,,,,,,,
,,,,,,,,2023-08-06_08h15.44.503,HF_wild_card,2022.2.4,Win32,29.9832094,60e03b37c87de3cc083b358b,64ce5acb97489d65b14ecc7a,64cf488975e78ea91669567c,,,,,,,ctch,resources/DBN.BMP,resources/DG.BMP,Door4,0.30277775,-0.107407393,1,0,0,1.048,optionRight,60,15250,7,29,0,29,0,1,,,,,,,,,,,,,,,,,,,,,,,,,,,,,,,,,,,,,,,
,,,,,,,,2023-08-06_08h15.44.503,HF_wild_card,2022.2.4,Win32,29.9832094,60e03b37c87de3cc083b358b,64ce5acb97489d65b14ecc7a,64cf488975e78ea91669567c,,,,,,,ctch,resources/DB.BMP,resources/DP.BMP,Door3,-0.227777764,0.000925912,1,0,0,0.7992,optionLeft,70,15320,7,30,0,30,0,1,,,,,,,,,,,,,,,,,,,,,,,,,,,,,,,,,,,,,,,
,,,,,,,,2023-08-06_08h15.44.503,HF_wild_card,2022.2.4,Win32,29.9832094,60e03b37c87de3cc083b358b,64ce5acb97489d65b14ecc7a,64cf488975e78ea91669567c,,,,,,,decisionTrl,resources/DBN.BMP,resources/DP.BMP,Door2,0.141666695,-0.024074095,1,0,0,0.7147,optionRight,40,15360,7,31,0,31,0,1,,,,,,,,,,,,,,,,,,,,,,,,,,,,,,,,,,,,,,,
,,,,,,,,2023-08-06_08h15.44.503,HF_wild_card,2022.2.4,Win32,29.9832094,60e03b37c87de3cc083b358b,64ce5acb97489d65b14ecc7a,64cf488975e78ea91669567c,,,,,,,decisionTrl,resources/DB.BMP,resources/DG.BMP,Door3,-0.17314812,-0.00462963,1,0,0,0.7316,optionLeft,70,15430,7,32,0,32,0,1,,,,,,,,,,,,,,,,,,,,,,,,,,,,,,,,,,,,,,,
,,,,,,,,2023-08-06_08h15.44.503,HF_wild_card,2022.2.4,Win32,29.9832094,60e03b37c87de3cc083b358b,64ce5acb97489d65b14ecc7a,64cf488975e78ea91669567c,,,,,,,decisionTrl,resources/DBN.BMP,resources/DP.BMP,Door2,0.189814815,-0.056481503,1,0,0,1.0097,optionRight,40,15470,7,33,0,33,0,1,,,,,,,,,,,,,,,,,,,,,,,,,,,,,,,,,,,,,,,
,,,,,,,,2023-08-06_08h15.44.503,HF_wild_card,2022.2.4,Win32,29.9832094,60e03b37c87de3cc083b358b,64ce5acb97489d65b14ecc7a,64cf488975e78ea91669567c,,,,,,,decisionTrl,resources/DBN.BMP,resources/DP.BMP,Door2,0.284259302,-0.093518504,1,0,0,0.6611,optionRight,40,15510,7,34,0,34,0,1,,,,,,,,,,,,,,,,,,,,,,,,,,,,,,,,,,,,,,,
,,,,,,,,2023-08-06_08h15.44.503,HF_wild_card,2022.2.4,Win32,29.9832094,60e03b37c87de3cc083b358b,64ce5acb97489d65b14ecc7a,64cf488975e78ea91669567c,,,,,,,ctch,resources/DP.BMP,resources/DB.BMP,Door3,0.236111111,0.000925912,1,0,0,0.8152,optionRight,70,15580,7,35,0,35,0,1,,,,,,,,,,,,,,,,,,,,,,,,,,,,,,,,,,,,,,,
,,,,,,,,2023-08-06_08h15.44.503,HF_wild_card,2022.2.4,Win32,29.9832094,60e03b37c87de3cc083b358b,64ce5acb97489d65b14ecc7a,64cf488975e78ea91669567c,,,,,,,,,,,,,,,,,,,,,,,,,,6,0,6,0,1,,,,,,,,,,,,,,,,,,,,,,,,,,,,,,,,,,
,,,,,,,,2023-08-06_08h15.44.503,HF_wild_card,2022.2.4,Win32,29.9832094,60e03b37c87de3cc083b358b,64ce5acb97489d65b14ecc7a,64cf488975e78ea91669567c,,,,,,,,,,,,,,,,,,,,,,,,,,,,,,,3,,,,,,,,,,,,,,,,,,,,,,,,,,,,,,,,,
,,,,,,,,2023-08-06_08h15.44.503,HF_wild_card,2022.2.4,Win32,29.9832094,60e03b37c87de3cc083b358b,64ce5acb97489d65b14ecc7a,64cf488975e78ea91669567c,,,,,,,,,,,,,,,,,,,,,,,,,,,,,,,,,,,,,,,,,,,,,,,,,,,,,,,,,,,,,,,,
,,,,,,,,2023-08-06_08h15.44.503,HF_wild_card,2022.2.4,Win32,29.9832094,60e03b37c87de3cc083b358b,64ce5acb97489d65b14ecc7a,64cf488975e78ea91669567c,,,,,,,,,,,,,,,,,,,,,,,,,,,,,,,,30,Door2,resources/DP.BMP,0,0,0,0,1,,,,,,,,,,,,,,,,,,,,,,,,,
,,,,,,,,2023-08-06_08h15.44.503,HF_wild_card,2022.2.4,Win32,29.9832094,60e03b37c87de3cc083b358b,64ce5acb97489d65b14ecc7a,64cf488975e78ea91669567c,,,,,,,,,,,,,,,,,,,,,,,,,,,,,,,,70,Door3,resources/DB.BMP,1,0,1,0,1,,,,,,,,,,,,,,,,,,,,,,,,,
,,,,,,,,2023-08-06_08h15.44.503,HF_wild_card,2022.2.4,Win32,29.9832094,60e03b37c87de3cc083b358b,64ce5acb97489d65b14ecc7a,64cf488975e78ea91669567c,,,,,,,,,,,,,,,,,,,,,,,,,,,,,,,,30,Door1,resources/DBN.BMP,2,0,2,0,1,,,,,,,,,,,,,,,,,,,,,,,,,
,,,,,,,,2023-08-06_08h15.44.503,HF_wild_card,2022.2.4,Win32,29.9832094,60e03b37c87de3cc083b358b,64ce5acb97489d65b14ecc7a,64cf488975e78ea91669567c,,,,,,,,,,,,,,,,,,,,,,,,,,,,,,,,60,WC_nonExtreme,resources/DR.BMP,3,0,3,0,1,,,,,,,,,,,,,,,,,,,,,,,,,
,,,,,,,,2023-08-06_08h15.44.503,HF_wild_card,2022.2.4,Win32,29.9832094,60e03b37c87de3cc083b358b,64ce5acb97489d65b14ecc7a,64cf488975e78ea91669567c,,,,,,,,,,,,,,,,,,,,,,,,,,,,,,,,30,Door4,resources/DG.BMP,4,0,4,0,1,,,,,,,,,,,,,,,,,,,,,,,,,
,,,,,,,,2023-08-06_08h15.44.503,HF_wild_card,2022.2.4,Win32,29.9832094,60e03b37c87de3cc083b358b,64ce5acb97489d65b14ecc7a,64cf488975e78ea91669567c,,,,,,,,,,,,,,,,,,,,,,,,,,,,,,,,5,WC_extreme,resources/DY.BMP,5,0,5,0,1,,,,,,,,,,,,,,,,,,,,,,,,,
,,,,,,,,2023-08-06_08h15.44.503,HF_wild_card,2022.2.4,Win32,29.9832094,60e03b37c87de3cc083b358b,64ce5acb97489d65b14ecc7a,64cf488975e78ea91669567c,,,,,,,,,,,,,,,,,,,,,,,,,,,,,,,,,,,,,,,,,,,,,,,,,,,,,,,,,,,,,,,,
,,,,,,,,2023-08-06_08h15.44.503,HF_wild_card,2022.2.4,Win32,29.9832094,60e03b37c87de3cc083b358b,64ce5acb97489d65b14ecc7a,64cf488975e78ea91669567c,,,,,,,,,,,,,,,,,,,,,,,,,,,,,,,,,,,,,,,,0,0,0,0,1,,,,,,,,,,,,,,,,,,,,
