Condition,Low fixed image (Door1),Low risky image (Door2),High fixed image (Door3),High risky image (Door4),NonExtreme Wild Card 1,NonExtreme Wild Card 2,,date,expName,psychopyVersion,OS,frameRate,PROLIFIC_PID,STUDY_ID,SESSION_ID,mouse_2.x,mouse_2.y,mouse_2.leftButton,mouse_2.midButton,mouse_2.rightButton,mouse_2.clicked_name,Trial Type,Left Option Image,Right Option Image,Chosen Door,mouse.x,mouse.y,mouse.leftButton,mouse.midButton,mouse.rightButton,mouse.time,mouse.clicked_name,Feedback,Cumulative Reward,Block,trial.thisRepN,trial.thisTrialN,trial.thisN,trial.thisIndex,trial.ran,blocks.thisRepN,blocks.thisTrialN,blocks.thisN,blocks.thisIndex,blocks.ran,Money conversion,First Outcome Reported,Shown Door (First Outcome),Displayed Image (First Outcome),outcomes.thisRepN,outcomes.thisTrialN,outcomes.thisN,outcomes.thisIndex,outcomes.ran,judgments.thisRepN,judgments.thisTrialN,judgments.thisN,judgments.thisIndex,judgments.ran,freqMouse.x,freqMouse.y,freqMouse.leftButton,freqMouse.midButton,freqMouse.rightButton,freqMouse.clicked_name,FQJ for first outcome,FQJ for second outcome,Shown Door,Displayed Image,trials.thisRepN,trials.thisTrialN,trials.thisN,trials.thisIndex,trials.ran,judgBlock.thisRepN,judgBlock.thisTrialN,judgBlock.thisN,judgBlock.thisIndex,judgBlock.ran
2,resources/DBN.BMP,resources/DG.BMP,resources/DR.BMP,resources/DP.BMP,resources/DB.BMP,resources/DY.BMP,,2023-08-24_08h15.03.102,HF_wild_card,2022.2.4,Win32,19.83103954,5d809e67bfa8460017d9c934,64e63663dbcaf322d2eec8da,64e702af6d57a321564976c6,,,,,,,,,,,,,,,,,,,,,,,,,,,,,,,,,,,,,,,,,,,,,,,,,,,,,,,,,,,,,,,,
,,,,,,,,2023-08-24_08h15.03.102,HF_wild_card,2022.2.4,Win32,19.83103954,5d809e67bfa8460017d9c934,64e63663dbcaf322d2eec8da,64e702af6d57a321564976c6,-0.016927083,-0.411458333,1,0,0,agree,,,,,,,,,,,,,,,,,,,,,,,,,,,,,,,,,,,,,,,,,,,,,,,,,,,,,,,,,,
,,,,,,,,2023-08-24_08h15.03.102,HF_wild_card,2022.2.4,Win32,19.83103954,5d809e67bfa8460017d9c934,64e63663dbcaf322d2eec8da,64e702af6d57a321564976c6,,,,,,,,,,,,,,,,,,,,,,,,,,,,,,,,,,,,,,,,,,,,,,,,,,,,,,,,,,,,,,,,
,,,,,,,,2023-08-24_08h15.03.102,HF_wild_card,2022.2.4,Win32,19.83103954,5d809e67bfa8460017d9c934,64e63663dbcaf322d2eec8da,64e702af6d57a321564976c6,,,,,,,decisionTrl,resources/DBN.BMP,resources/DG.BMP,Door1,-0.23828125,-0.171875,1,0,0,7.5279,optionLeft,30,30,1,0,0,0,0,1,,,,,,,,,,,,,,,,,,,,,,,,,,,,,,,,,,,,,,,
,,,,,,,,2023-08-24_08h15.03.102,HF_wild_card,2022.2.4,Win32,19.83103954,5d809e67bfa8460017d9c934,64e63663dbcaf322d2eec8da,64e702af6d57a321564976c6,,,,,,,sngl,resources/Empty.png,resources/DBN.BMP,Door1,-0.057291667,0.098958333,1,0,0,9.0298,optionRight,30,60,1,1,0,1,0,1,,,,,,,,,,,,,,,,,,,,,,,,,,,,,,,,,,,,,,,
,,,,,,,,2023-08-24_08h15.03.102,HF_wild_card,2022.2.4,Win32,19.83103954,5d809e67bfa8460017d9c934,64e63663dbcaf322d2eec8da,64e702af6d57a321564976c6,,,,,,,decisionTrl,resources/DG.BMP,resources/DBN.BMP,Door1,0.26953125,0.006510417,1,0,0,4.6046,optionRight,30,90,1,2,0,2,0,1,,,,,,,,,,,,,,,,,,,,,,,,,,,,,,,,,,,,,,,
,,,,,,,,2023-08-24_08h15.03.102,HF_wild_card,2022.2.4,Win32,19.83103954,5d809e67bfa8460017d9c934,64e63663dbcaf322d2eec8da,64e702af6d57a321564976c6,,,,,,,decisionTrl,resources/DG.BMP,resources/DY.BMP,Door2,-0.263020833,-0.0234375,1,0,0,3.5304,optionLeft,20,110,1,3,0,3,0,1,,,,,,,,,,,,,,,,,,,,,,,,,,,,,,,,,,,,,,,
,,,,,,,,2023-08-24_08h15.03.102,HF_wild_card,2022.2.4,Win32,19.83103954,5d809e67bfa8460017d9c934,64e63663dbcaf322d2eec8da,64e702af6d57a321564976c6,,,,,,,sngl,resources/Empty.png,resources/DY.BMP,WildCard_NonEx,0.229166667,-0.013020833,1,0,0,2.4831,optionRight,45,155,1,4,0,4,0,1,,,,,,,,,,,,,,,,,,,,,,,,,,,,,,,,,,,,,,,
,,,,,,,,2023-08-24_08h15.03.102,HF_wild_card,2022.2.4,Win32,19.83103954,5d809e67bfa8460017d9c934,64e63663dbcaf322d2eec8da,64e702af6d57a321564976c6,,,,,,,decisionTrl,resources/DP.BMP,resources/DY.BMP,WildCard_NonEx,0.260416667,-0.032552083,1,0,0,3.3224,optionRight,45,200,1,5,0,5,0,1,,,,,,,,,,,,,,,,,,,,,,,,,,,,,,,,,,,,,,,
,,,,,,,,2023-08-24_08h15.03.102,HF_wild_card,2022.2.4,Win32,19.83103954,5d809e67bfa8460017d9c934,64e63663dbcaf322d2eec8da,64e702af6d57a321564976c6,,,,,,,sngl,resources/DY.BMP,resources/Empty.png,WildCard_NonEx,-0.28515625,-0.0234375,1,0,0,2.4787,optionLeft,55,255,1,6,0,6,0,1,,,,,,,,,,,,,,,,,,,,,,,,,,,,,,,,,,,,,,,
,,,,,,,,2023-08-24_08h15.03.102,HF_wild_card,2022.2.4,Win32,19.83103954,5d809e67bfa8460017d9c934,64e63663dbcaf322d2eec8da,64e702af6d57a321564976c6,,,,,,,decisionTrl,resources/DP.BMP,resources/DR.BMP,Door4,-0.217447917,-0.041666667,1,0,0,3.061,optionLeft,80,335,1,7,0,7,0,1,,,,,,,,,,,,,,,,,,,,,,,,,,,,,,,,,,,,,,,
,,,,,,,,2023-08-24_08h15.03.102,HF_wild_card,2022.2.4,Win32,19.83103954,5d809e67bfa8460017d9c934,64e63663dbcaf322d2eec8da,64e702af6d57a321564976c6,,,,,,,sngl,resources/DG.BMP,resources/Empty.png,Door2,-0.25390625,0,1,0,0,3.4169,optionLeft,40,375,1,8,0,8,0,1,,,,,,,,,,,,,,,,,,,,,,,,,,,,,,,,,,,,,,,
,,,,,,,,2023-08-24_08h15.03.102,HF_wild_card,2022.2.4,Win32,19.83103954,5d809e67bfa8460017d9c934,64e63663dbcaf322d2eec8da,64e702af6d57a321564976c6,,,,,,,decisionTrl,resources/DG.BMP,resources/DBN.BMP,Door2,-0.16796875,-0.002604167,1,0,0,2.7822,optionLeft,20,395,1,9,0,9,0,1,,,,,,,,,,,,,,,,,,,,,,,,,,,,,,,,,,,,,,,
,,,,,,,,2023-08-24_08h15.03.102,HF_wild_card,2022.2.4,Win32,19.83103954,5d809e67bfa8460017d9c934,64e63663dbcaf322d2eec8da,64e702af6d57a321564976c6,,,,,,,decisionTrl,resources/DR.BMP,resources/DY.BMP,WildCard_NonEx,0.407552083,-0.002604167,1,0,0,1.9076,optionRight,55,450,1,10,0,10,0,1,,,,,,,,,,,,,,,,,,,,,,,,,,,,,,,,,,,,,,,
,,,,,,,,2023-08-24_08h15.03.102,HF_wild_card,2022.2.4,Win32,19.83103954,5d809e67bfa8460017d9c934,64e63663dbcaf322d2eec8da,64e702af6d57a321564976c6,,,,,,,decisionTrl,resources/DBN.BMP,resources/DG.BMP,Door2,0.225260417,0.016927083,1,0,0,1.8727,optionRight,40,490,1,11,0,11,0,1,,,,,,,,,,,,,,,,,,,,,,,,,,,,,,,,,,,,,,,
,,,,,,,,2023-08-24_08h15.03.102,HF_wild_card,2022.2.4,Win32,19.83103954,5d809e67bfa8460017d9c934,64e63663dbcaf322d2eec8da,64e702af6d57a321564976c6,,,,,,,sngl,resources/Empty.png,resources/DR.BMP,Door3,0.334635417,0.02734375,1,0,0,1.4589,optionRight,70,560,1,12,0,12,0,1,,,,,,,,,,,,,,,,,,,,,,,,,,,,,,,,,,,,,,,
,,,,,,,,2023-08-24_08h15.03.102,HF_wild_card,2022.2.4,Win32,19.83103954,5d809e67bfa8460017d9c934,64e63663dbcaf322d2eec8da,64e702af6d57a321564976c6,,,,,,,sngl,resources/Empty.png,resources/DY.BMP,WildCard_NonEx,0.263020833,-0.010416667,1,0,0,2.394,optionRight,55,615,1,13,0,13,0,1,,,,,,,,,,,,,,,,,,,,,,,,,,,,,,,,,,,,,,,
,,,,,,,,2023-08-24_08h15.03.102,HF_wild_card,2022.2.4,Win32,19.83103954,5d809e67bfa8460017d9c934,64e63663dbcaf322d2eec8da,64e702af6d57a321564976c6,,,,,,,decisionTrl,resources/DY.BMP,resources/DP.BMP,WildCard_NonEx,-0.298177083,-0.03125,1,0,0,3.2413,optionLeft,45,660,1,14,0,14,0,1,,,,,,,,,,,,,,,,,,,,,,,,,,,,,,,,,,,,,,,
,,,,,,,,2023-08-24_08h15.03.102,HF_wild_card,2022.2.4,Win32,19.83103954,5d809e67bfa8460017d9c934,64e63663dbcaf322d2eec8da,64e702af6d57a321564976c6,,,,,,,sngl,resources/DR.BMP,resources/Empty.png,Door3,-0.299479167,-0.0703125,1,0,0,1.3869,optionLeft,70,730,1,15,0,15,0,1,,,,,,,,,,,,,,,,,,,,,,,,,,,,,,,,,,,,,,,
,,,,,,,,2023-08-24_08h15.03.102,HF_wild_card,2022.2.4,Win32,19.83103954,5d809e67bfa8460017d9c934,64e63663dbcaf322d2eec8da,64e702af6d57a321564976c6,,,,,,,decisionTrl,resources/DY.BMP,resources/DG.BMP,Door2,0.322916667,-0.024739583,1,0,0,1.7108,optionRight,20,750,1,16,0,16,0,1,,,,,,,,,,,,,,,,,,,,,,,,,,,,,,,,,,,,,,,
,,,,,,,,2023-08-24_08h15.03.102,HF_wild_card,2022.2.4,Win32,19.83103954,5d809e67bfa8460017d9c934,64e63663dbcaf322d2eec8da,64e702af6d57a321564976c6,,,,,,,decisionTrl,resources/DR.BMP,resources/DP.BMP,Door4,0.358072917,-0.0234375,1,0,0,1.6033,optionRight,80,830,1,17,0,17,0,1,,,,,,,,,,,,,,,,,,,,,,,,,,,,,,,,,,,,,,,
,,,,,,,,2023-08-24_08h15.03.102,HF_wild_card,2022.2.4,Win32,19.83103954,5d809e67bfa8460017d9c934,64e63663dbcaf322d2eec8da,64e702af6d57a321564976c6,,,,,,,decisionTrl,resources/DBN.BMP,resources/DY.BMP,Door1,-0.34375,-0.053385417,1,0,0,1.5426,optionLeft,30,860,1,18,0,18,0,1,,,,,,,,,,,,,,,,,,,,,,,,,,,,,,,,,,,,,,,
,,,,,,,,2023-08-24_08h15.03.102,HF_wild_card,2022.2.4,Win32,19.83103954,5d809e67bfa8460017d9c934,64e63663dbcaf322d2eec8da,64e702af6d57a321564976c6,,,,,,,ctch,resources/DBN.BMP,resources/DP.BMP,Door4,0.388020833,-0.049479167,1,0,0,1.5141,optionRight,80,940,1,19,0,19,0,1,,,,,,,,,,,,,,,,,,,,,,,,,,,,,,,,,,,,,,,
,,,,,,,,2023-08-24_08h15.03.102,HF_wild_card,2022.2.4,Win32,19.83103954,5d809e67bfa8460017d9c934,64e63663dbcaf322d2eec8da,64e702af6d57a321564976c6,,,,,,,decisionTrl,resources/DY.BMP,resources/DBN.BMP,WildCard_NonEx,-0.2890625,-0.036458333,1,0,0,2.7935,optionLeft,55,995,1,20,0,20,0,1,,,,,,,,,,,,,,,,,,,,,,,,,,,,,,,,,,,,,,,
,,,,,,,,2023-08-24_08h15.03.102,HF_wild_card,2022.2.4,Win32,19.83103954,5d809e67bfa8460017d9c934,64e63663dbcaf322d2eec8da,64e702af6d57a321564976c6,,,,,,,ctch,resources/DG.BMP,resources/DR.BMP,Door3,0.399739583,-0.041666667,1,0,0,3.0596,optionRight,70,1065,1,21,0,21,0,1,,,,,,,,,,,,,,,,,,,,,,,,,,,,,,,,,,,,,,,
,,,,,,,,2023-08-24_08h15.03.102,HF_wild_card,2022.2.4,Win32,19.83103954,5d809e67bfa8460017d9c934,64e63663dbcaf322d2eec8da,64e702af6d57a321564976c6,,,,,,,decisionTrl,resources/DG.BMP,resources/DBN.BMP,Door2,-0.294270833,-0.009114583,1,0,0,2.2863,optionLeft,20,1085,1,22,0,22,0,1,,,,,,,,,,,,,,,,,,,,,,,,,,,,,,,,,,,,,,,
,,,,,,,,2023-08-24_08h15.03.102,HF_wild_card,2022.2.4,Win32,19.83103954,5d809e67bfa8460017d9c934,64e63663dbcaf322d2eec8da,64e702af6d57a321564976c6,,,,,,,ctch,resources/DP.BMP,resources/DBN.BMP,Door4,-0.302083333,-0.053385417,1,0,0,1.387,optionLeft,80,1165,1,23,0,23,0,1,,,,,,,,,,,,,,,,,,,,,,,,,,,,,,,,,,,,,,,
,,,,,,,,2023-08-24_08h15.03.102,HF_wild_card,2022.2.4,Win32,19.83103954,5d809e67bfa8460017d9c934,64e63663dbcaf322d2eec8da,64e702af6d57a321564976c6,,,,,,,sngl,resources/Empty.png,resources/DG.BMP,Door2,0.446614583,-0.033854167,1,0,0,1.6874,optionRight,20,1185,1,24,0,24,0,1,,,,,,,,,,,,,,,,,,,,,,,,,,,,,,,,,,,,,,,
,,,,,,,,2023-08-24_08h15.03.102,HF_wild_card,2022.2.4,Win32,19.83103954,5d809e67bfa8460017d9c934,64e63663dbcaf322d2eec8da,64e702af6d57a321564976c6,,,,,,,ctch,resources/DG.BMP,resources/DR.BMP,Door3,0.41015625,-0.022135417,1,0,0,1.6349,optionRight,70,1255,1,25,0,25,0,1,,,,,,,,,,,,,,,,,,,,,,,,,,,,,,,,,,,,,,,
,,,,,,,,2023-08-24_08h15.03.102,HF_wild_card,2022.2.4,Win32,19.83103954,5d809e67bfa8460017d9c934,64e63663dbcaf322d2eec8da,64e702af6d57a321564976c6,,,,,,,sngl,resources/DBN.BMP,resources/Empty.png,Door1,-0.384114583,-0.072916667,1,0,0,1.682,optionLeft,30,1285,1,26,0,26,0,1,,,,,,,,,,,,,,,,,,,,,,,,,,,,,,,,,,,,,,,
,,,,,,,,2023-08-24_08h15.03.102,HF_wild_card,2022.2.4,Win32,19.83103954,5d809e67bfa8460017d9c934,64e63663dbcaf322d2eec8da,64e702af6d57a321564976c6,,,,,,,ctch,resources/DP.BMP,resources/DBN.BMP,Door4,-0.34765625,-0.072916667,1,0,0,1.3543,optionLeft,80,1365,1,27,0,27,0,1,,,,,,,,,,,,,,,,,,,,,,,,,,,,,,,,,,,,,,,
,,,,,,,,2023-08-24_08h15.03.102,HF_wild_card,2022.2.4,Win32,19.83103954,5d809e67bfa8460017d9c934,64e63663dbcaf322d2eec8da,64e702af6d57a321564976c6,,,,,,,decisionTrl,resources/DG.BMP,resources/DBN.BMP,Door1,0.272135417,0,1,0,0,4.0696,optionRight,30,1395,1,28,0,28,0,1,,,,,,,,,,,,,,,,,,,,,,,,,,,,,,,,,,,,,,,
,,,,,,,,2023-08-24_08h15.03.102,HF_wild_card,2022.2.4,Win32,19.83103954,5d809e67bfa8460017d9c934,64e63663dbcaf322d2eec8da,64e702af6d57a321564976c6,,,,,,,decisionTrl,resources/DY.BMP,resources/DR.BMP,WildCard_NonEx,-0.389322917,-0.05859375,1,0,0,4.8015,optionLeft,45,1440,1,29,0,29,0,1,,,,,,,,,,,,,,,,,,,,,,,,,,,,,,,,,,,,,,,
,,,,,,,,2023-08-24_08h15.03.102,HF_wild_card,2022.2.4,Win32,19.83103954,5d809e67bfa8460017d9c934,64e63663dbcaf322d2eec8da,64e702af6d57a321564976c6,,,,,,,decisionTrl,resources/DR.BMP,resources/DP.BMP,Door4,0.420572917,-0.067708333,1,0,0,1.7379,optionRight,60,1500,1,30,0,30,0,1,,,,,,,,,,,,,,,,,,,,,,,,,,,,,,,,,,,,,,,
,,,,,,,,2023-08-24_08h15.03.102,HF_wild_card,2022.2.4,Win32,19.83103954,5d809e67bfa8460017d9c934,64e63663dbcaf322d2eec8da,64e702af6d57a321564976c6,,,,,,,decisionTrl,resources/DP.BMP,resources/DR.BMP,Door3,0.36328125,-0.022135417,1,0,0,1.7312,optionRight,70,1570,1,31,0,31,0,1,,,,,,,,,,,,,,,,,,,,,,,,,,,,,,,,,,,,,,,
,,,,,,,,2023-08-24_08h15.03.102,HF_wild_card,2022.2.4,Win32,19.83103954,5d809e67bfa8460017d9c934,64e63663dbcaf322d2eec8da,64e702af6d57a321564976c6,,,,,,,sngl,resources/Empty.png,resources/DP.BMP,Door4,0.38671875,-0.049479167,1,0,0,1.5151,optionRight,60,1630,1,32,0,32,0,1,,,,,,,,,,,,,,,,,,,,,,,,,,,,,,,,,,,,,,,
,,,,,,,,2023-08-24_08h15.03.102,HF_wild_card,2022.2.4,Win32,19.83103954,5d809e67bfa8460017d9c934,64e63663dbcaf322d2eec8da,64e702af6d57a321564976c6,,,,,,,decisionTrl,resources/DR.BMP,resources/DP.BMP,Door3,-0.317708333,-0.0859375,1,0,0,5.8048,optionLeft,70,1700,1,33,0,33,0,1,,,,,,,,,,,,,,,,,,,,,,,,,,,,,,,,,,,,,,,
,,,,,,,,2023-08-24_08h15.03.102,HF_wild_card,2022.2.4,Win32,19.83103954,5d809e67bfa8460017d9c934,64e63663dbcaf322d2eec8da,64e702af6d57a321564976c6,,,,,,,sngl,resources/DP.BMP,resources/Empty.png,Door4,-0.359375,-0.053385417,1,0,0,1.4753,optionLeft,80,1780,1,34,0,34,0,1,,,,,,,,,,,,,,,,,,,,,,,,,,,,,,,,,,,,,,,
,,,,,,,,2023-08-24_08h15.03.102,HF_wild_card,2022.2.4,Win32,19.83103954,5d809e67bfa8460017d9c934,64e63663dbcaf322d2eec8da,64e702af6d57a321564976c6,,,,,,,decisionTrl,resources/DP.BMP,resources/DR.BMP,Door4,-0.248697917,-0.044270833,1,0,0,1.8365,optionLeft,80,1860,1,35,0,35,0,1,,,,,,,,,,,,,,,,,,,,,,,,,,,,,,,,,,,,,,,
,,,,,,,,2023-08-24_08h15.03.102,HF_wild_card,2022.2.4,Win32,19.83103954,5d809e67bfa8460017d9c934,64e63663dbcaf322d2eec8da,64e702af6d57a321564976c6,,,,,,,ctch,resources/DR.BMP,resources/DG.BMP,Door3,-0.322916667,-0.061197917,1,0,0,2.0652,optionLeft,70,1930,1,36,0,36,0,1,,,,,,,,,,,,,,,,,,,,,,,,,,,,,,,,,,,,,,,
,,,,,,,,2023-08-24_08h15.03.102,HF_wild_card,2022.2.4,Win32,19.83103954,5d809e67bfa8460017d9c934,64e63663dbcaf322d2eec8da,64e702af6d57a321564976c6,,,,,,,ctch,resources/DR.BMP,resources/DG.BMP,Door3,-0.313802083,-0.061197917,1,0,0,2.0563,optionLeft,70,2000,1,37,0,37,0,1,,,,,,,,,,,,,,,,,,,,,,,,,,,,,,,,,,,,,,,
,,,,,,,,2023-08-24_08h15.03.102,HF_wild_card,2022.2.4,Win32,19.83103954,5d809e67bfa8460017d9c934,64e63663dbcaf322d2eec8da,64e702af6d57a321564976c6,,,,,,,decisionTrl,resources/DBN.BMP,resources/DG.BMP,Door2,0.375,-0.0703125,1,0,0,1.6508,optionRight,20,2020,1,38,0,38,0,1,,,,,,,,,,,,,,,,,,,,,,,,,,,,,,,,,,,,,,,
,,,,,,,,2023-08-24_08h15.03.102,HF_wild_card,2022.2.4,Win32,19.83103954,5d809e67bfa8460017d9c934,64e63663dbcaf322d2eec8da,64e702af6d57a321564976c6,,,,,,,decisionTrl,resources/DP.BMP,resources/DR.BMP,Door4,-0.283854167,-0.0390625,1,0,0,3.9533,optionLeft,80,2100,1,39,0,39,0,1,,,,,,,,,,,,,,,,,,,,,,,,,,,,,,,,,,,,,,,
,,,,,,,,2023-08-24_08h15.03.102,HF_wild_card,2022.2.4,Win32,19.83103954,5d809e67bfa8460017d9c934,64e63663dbcaf322d2eec8da,64e702af6d57a321564976c6,,,,,,,decisionTrl,resources/DBN.BMP,resources/DG.BMP,Door1,-0.346354167,-0.037760417,1,0,0,1.9916,optionLeft,30,2130,1,40,0,40,0,1,,,,,,,,,,,,,,,,,,,,,,,,,,,,,,,,,,,,,,,
,,,,,,,,2023-08-24_08h15.03.102,HF_wild_card,2022.2.4,Win32,19.83103954,5d809e67bfa8460017d9c934,64e63663dbcaf322d2eec8da,64e702af6d57a321564976c6,,,,,,,ctch,resources/DBN.BMP,resources/DP.BMP,Door4,0.455729167,-0.053385417,1,0,0,1.3466,optionRight,80,2210,1,41,0,41,0,1,,,,,,,,,,,,,,,,,,,,,,,,,,,,,,,,,,,,,,,
,,,,,,,,2023-08-24_08h15.03.102,HF_wild_card,2022.2.4,Win32,19.83103954,5d809e67bfa8460017d9c934,64e63663dbcaf322d2eec8da,64e702af6d57a321564976c6,,,,,,,decisionTrl,resources/DR.BMP,resources/DP.BMP,Door4,0.294270833,-0.055989583,1,0,0,1.4645,optionRight,80,2290,1,42,0,42,0,1,,,,,,,,,,,,,,,,,,,,,,,,,,,,,,,,,,,,,,,
,,,,,,,,2023-08-24_08h15.03.102,HF_wild_card,2022.2.4,Win32,19.83103954,5d809e67bfa8460017d9c934,64e63663dbcaf322d2eec8da,64e702af6d57a321564976c6,,,,,,,sngl,resources/DY.BMP,resources/Empty.png,WildCard_NonEx,-0.24609375,-0.02734375,1,0,0,1.7474,optionLeft,45,2335,1,43,0,43,0,1,,,,,,,,,,,,,,,,,,,,,,,,,,,,,,,,,,,,,,,
,,,,,,,,2023-08-24_08h15.03.102,HF_wild_card,2022.2.4,Win32,19.83103954,5d809e67bfa8460017d9c934,64e63663dbcaf322d2eec8da,64e702af6d57a321564976c6,,,,,,,,,,,,,,,,,,,,,,,,,,0,0,0,0,1,,,,,,,,,,,,,,,,,,,,,,,,,,,,,,,,,,
,,,,,,,,2023-08-24_08h15.03.102,HF_wild_card,2022.2.4,Win32,19.83103954,5d809e67bfa8460017d9c934,64e63663dbcaf322d2eec8da,64e702af6d57a321564976c6,,,,,,,sngl,resources/DY.BMP,resources/Empty.png,WildCard_NonEx,-0.341145833,-0.079427083,1,0,0,1.6136,optionLeft,45,2380,2,0,0,0,0,1,,,,,,,,,,,,,,,,,,,,,,,,,,,,,,,,,,,,,,,
,,,,,,,,2023-08-24_08h15.03.102,HF_wild_card,2022.2.4,Win32,19.83103954,5d809e67bfa8460017d9c934,64e63663dbcaf322d2eec8da,64e702af6d57a321564976c6,,,,,,,decisionTrl,resources/DBN.BMP,resources/DG.BMP,Door1,-0.326822917,-0.032552083,1,0,0,3.2983,optionLeft,30,2410,2,1,0,1,0,1,,,,,,,,,,,,,,,,,,,,,,,,,,,,,,,,,,,,,,,
,,,,,,,,2023-08-24_08h15.03.102,HF_wild_card,2022.2.4,Win32,19.83103954,5d809e67bfa8460017d9c934,64e63663dbcaf322d2eec8da,64e702af6d57a321564976c6,,,,,,,sngl,resources/Empty.png,resources/DY.BMP,WildCard_NonEx,0.364583333,-0.018229167,1,0,0,1.2354,optionRight,45,2455,2,2,0,2,0,1,,,,,,,,,,,,,,,,,,,,,,,,,,,,,,,,,,,,,,,
,,,,,,,,2023-08-24_08h15.03.102,HF_wild_card,2022.2.4,Win32,19.83103954,5d809e67bfa8460017d9c934,64e63663dbcaf322d2eec8da,64e702af6d57a321564976c6,,,,,,,ctch,resources/DR.BMP,resources/DG.BMP,Door3,0.0078125,0.002604167,1,0,0,0.2807,optionLeft,70,2525,2,3,0,3,0,1,,,,,,,,,,,,,,,,,,,,,,,,,,,,,,,,,,,,,,,
,,,,,,,,2023-08-24_08h15.03.102,HF_wild_card,2022.2.4,Win32,19.83103954,5d809e67bfa8460017d9c934,64e63663dbcaf322d2eec8da,64e702af6d57a321564976c6,,,,,,,decisionTrl,resources/DBN.BMP,resources/DG.BMP,Door2,0.196614583,0.029947917,1,0,0,2.0651,optionRight,40,2565,2,4,0,4,0,1,,,,,,,,,,,,,,,,,,,,,,,,,,,,,,,,,,,,,,,
,,,,,,,,2023-08-24_08h15.03.102,HF_wild_card,2022.2.4,Win32,19.83103954,5d809e67bfa8460017d9c934,64e63663dbcaf322d2eec8da,64e702af6d57a321564976c6,,,,,,,decisionTrl,resources/DP.BMP,resources/DR.BMP,Door4,-0.447916667,-0.057291667,1,0,0,1.3239,optionLeft,80,2645,2,5,0,5,0,1,,,,,,,,,,,,,,,,,,,,,,,,,,,,,,,,,,,,,,,
,,,,,,,,2023-08-24_08h15.03.102,HF_wild_card,2022.2.4,Win32,19.83103954,5d809e67bfa8460017d9c934,64e63663dbcaf322d2eec8da,64e702af6d57a321564976c6,,,,,,,sngl,resources/Empty.png,resources/DP.BMP,Door4,0.421875,-0.009114583,1,0,0,1.2093,optionRight,80,2725,2,6,0,6,0,1,,,,,,,,,,,,,,,,,,,,,,,,,,,,,,,,,,,,,,,
,,,,,,,,2023-08-24_08h15.03.102,HF_wild_card,2022.2.4,Win32,19.83103954,5d809e67bfa8460017d9c934,64e63663dbcaf322d2eec8da,64e702af6d57a321564976c6,,,,,,,sngl,resources/Empty.png,resources/DR.BMP,Door3,0.313802083,0,1,0,0,1.4009,optionRight,70,2795,2,7,0,7,0,1,,,,,,,,,,,,,,,,,,,,,,,,,,,,,,,,,,,,,,,
,,,,,,,,2023-08-24_08h15.03.102,HF_wild_card,2022.2.4,Win32,19.83103954,5d809e67bfa8460017d9c934,64e63663dbcaf322d2eec8da,64e702af6d57a321564976c6,,,,,,,sngl,resources/DR.BMP,resources/Empty.png,Door3,-0.317708333,-0.026041667,1,0,0,1.2821,optionLeft,70,2865,2,8,0,8,0,1,,,,,,,,,,,,,,,,,,,,,,,,,,,,,,,,,,,,,,,
,,,,,,,,2023-08-24_08h15.03.102,HF_wild_card,2022.2.4,Win32,19.83103954,5d809e67bfa8460017d9c934,64e63663dbcaf322d2eec8da,64e702af6d57a321564976c6,,,,,,,decisionTrl,resources/DY.BMP,resources/DP.BMP,Door4,0.381510417,-0.0390625,1,0,0,1.2405,optionRight,60,2925,2,9,0,9,0,1,,,,,,,,,,,,,,,,,,,,,,,,,,,,,,,,,,,,,,,
,,,,,,,,2023-08-24_08h15.03.102,HF_wild_card,2022.2.4,Win32,19.83103954,5d809e67bfa8460017d9c934,64e63663dbcaf322d2eec8da,64e702af6d57a321564976c6,,,,,,,decisionTrl,resources/DR.BMP,resources/DP.BMP,Door4,0.37109375,-0.078125,1,0,0,1.5246,optionRight,60,2985,2,10,0,10,0,1,,,,,,,,,,,,,,,,,,,,,,,,,,,,,,,,,,,,,,,
,,,,,,,,2023-08-24_08h15.03.102,HF_wild_card,2022.2.4,Win32,19.83103954,5d809e67bfa8460017d9c934,64e63663dbcaf322d2eec8da,64e702af6d57a321564976c6,,,,,,,decisionTrl,resources/DG.BMP,resources/DBN.BMP,Door1,0.252604167,0.041666667,1,0,0,2.2351,optionRight,30,3015,2,11,0,11,0,1,,,,,,,,,,,,,,,,,,,,,,,,,,,,,,,,,,,,,,,
,,,,,,,,2023-08-24_08h15.03.102,HF_wild_card,2022.2.4,Win32,19.83103954,5d809e67bfa8460017d9c934,64e63663dbcaf322d2eec8da,64e702af6d57a321564976c6,,,,,,,decisionTrl,resources/DR.BMP,resources/DP.BMP,Door3,-0.330729167,-0.026041667,1,0,0,1.4525,optionLeft,70,3085,2,12,0,12,0,1,,,,,,,,,,,,,,,,,,,,,,,,,,,,,,,,,,,,,,,
,,,,,,,,2023-08-24_08h15.03.102,HF_wild_card,2022.2.4,Win32,19.83103954,5d809e67bfa8460017d9c934,64e63663dbcaf322d2eec8da,64e702af6d57a321564976c6,,,,,,,decisionTrl,resources/DG.BMP,resources/DBN.BMP,Door1,0.328125,0.01953125,1,0,0,2.5352,optionRight,30,3115,2,13,0,13,0,1,,,,,,,,,,,,,,,,,,,,,,,,,,,,,,,,,,,,,,,
,,,,,,,,2023-08-24_08h15.03.102,HF_wild_card,2022.2.4,Win32,19.83103954,5d809e67bfa8460017d9c934,64e63663dbcaf322d2eec8da,64e702af6d57a321564976c6,,,,,,,sngl,resources/DP.BMP,resources/Empty.png,Door4,-0.274739583,-0.03515625,1,0,0,1.2487,optionLeft,60,3175,2,14,0,14,0,1,,,,,,,,,,,,,,,,,,,,,,,,,,,,,,,,,,,,,,,
,,,,,,,,2023-08-24_08h15.03.102,HF_wild_card,2022.2.4,Win32,19.83103954,5d809e67bfa8460017d9c934,64e63663dbcaf322d2eec8da,64e702af6d57a321564976c6,,,,,,,decisionTrl,resources/DBN.BMP,resources/DG.BMP,Door2,0.23828125,-0.02734375,1,0,0,2.5814,optionRight,20,3195,2,15,0,15,0,1,,,,,,,,,,,,,,,,,,,,,,,,,,,,,,,,,,,,,,,
,,,,,,,,2023-08-24_08h15.03.102,HF_wild_card,2022.2.4,Win32,19.83103954,5d809e67bfa8460017d9c934,64e63663dbcaf322d2eec8da,64e702af6d57a321564976c6,,,,,,,ctch,resources/DBN.BMP,resources/DP.BMP,Door4,0.354166667,0.013020833,1,0,0,1.4206,optionRight,60,3255,2,16,0,16,0,1,,,,,,,,,,,,,,,,,,,,,,,,,,,,,,,,,,,,,,,
,,,,,,,,2023-08-24_08h15.03.102,HF_wild_card,2022.2.4,Win32,19.83103954,5d809e67bfa8460017d9c934,64e63663dbcaf322d2eec8da,64e702af6d57a321564976c6,,,,,,,ctch,resources/DR.BMP,resources/DG.BMP,Door3,-0.270833333,-0.01953125,1,0,0,1.8467,optionLeft,70,3325,2,17,0,17,0,1,,,,,,,,,,,,,,,,,,,,,,,,,,,,,,,,,,,,,,,
,,,,,,,,2023-08-24_08h15.03.102,HF_wild_card,2022.2.4,Win32,19.83103954,5d809e67bfa8460017d9c934,64e63663dbcaf322d2eec8da,64e702af6d57a321564976c6,,,,,,,ctch,resources/DBN.BMP,resources/DP.BMP,Door4,0.372395833,-0.071614583,1,0,0,1.4955,optionRight,80,3405,2,18,0,18,0,1,,,,,,,,,,,,,,,,,,,,,,,,,,,,,,,,,,,,,,,
,,,,,,,,2023-08-24_08h15.03.102,HF_wild_card,2022.2.4,Win32,19.83103954,5d809e67bfa8460017d9c934,64e63663dbcaf322d2eec8da,64e702af6d57a321564976c6,,,,,,,ctch,resources/DG.BMP,resources/DR.BMP,Door3,0.334635417,0.002604167,1,0,0,2.5364,optionRight,70,3475,2,19,0,19,0,1,,,,,,,,,,,,,,,,,,,,,,,,,,,,,,,,,,,,,,,
,,,,,,,,2023-08-24_08h15.03.102,HF_wild_card,2022.2.4,Win32,19.83103954,5d809e67bfa8460017d9c934,64e63663dbcaf322d2eec8da,64e702af6d57a321564976c6,,,,,,,sngl,resources/DG.BMP,resources/Empty.png,Door2,-0.296875,-0.013020833,1,0,0,1.3177,optionLeft,20,3495,2,20,0,20,0,1,,,,,,,,,,,,,,,,,,,,,,,,,,,,,,,,,,,,,,,
,,,,,,,,2023-08-24_08h15.03.102,HF_wild_card,2022.2.4,Win32,19.83103954,5d809e67bfa8460017d9c934,64e63663dbcaf322d2eec8da,64e702af6d57a321564976c6,,,,,,,sngl,resources/Empty.png,resources/DY.BMP,WildCard_NonEx,0.364583333,-0.00390625,1,0,0,1.3011,optionRight,55,3550,2,21,0,21,0,1,,,,,,,,,,,,,,,,,,,,,,,,,,,,,,,,,,,,,,,
,,,,,,,,2023-08-24_08h15.03.102,HF_wild_card,2022.2.4,Win32,19.83103954,5d809e67bfa8460017d9c934,64e63663dbcaf322d2eec8da,64e702af6d57a321564976c6,,,,,,,sngl,resources/DY.BMP,resources/Empty.png,WildCard_NonEx,-0.3203125,-0.01953125,1,0,0,1.2734,optionLeft,55,3605,2,22,0,22,0,1,,,,,,,,,,,,,,,,,,,,,,,,,,,,,,,,,,,,,,,
,,,,,,,,2023-08-24_08h15.03.102,HF_wild_card,2022.2.4,Win32,19.83103954,5d809e67bfa8460017d9c934,64e63663dbcaf322d2eec8da,64e702af6d57a321564976c6,,,,,,,sngl,resources/Empty.png,resources/DBN.BMP,Door1,0.313802083,0.013020833,1,0,0,1.4256,optionRight,30,3635,2,23,0,23,0,1,,,,,,,,,,,,,,,,,,,,,,,,,,,,,,,,,,,,,,,
,,,,,,,,2023-08-24_08h15.03.102,HF_wild_card,2022.2.4,Win32,19.83103954,5d809e67bfa8460017d9c934,64e63663dbcaf322d2eec8da,64e702af6d57a321564976c6,,,,,,,decisionTrl,resources/DP.BMP,resources/DY.BMP,Door4,-0.248697917,-0.020833333,1,0,0,3.7238,optionLeft,80,3715,2,24,0,24,0,1,,,,,,,,,,,,,,,,,,,,,,,,,,,,,,,,,,,,,,,
,,,,,,,,2023-08-24_08h15.03.102,HF_wild_card,2022.2.4,Win32,19.83103954,5d809e67bfa8460017d9c934,64e63663dbcaf322d2eec8da,64e702af6d57a321564976c6,,,,,,,decisionTrl,resources/DP.BMP,resources/DR.BMP,Door4,-0.25390625,-0.022135417,1,0,0,1.6491,optionLeft,60,3775,2,25,0,25,0,1,,,,,,,,,,,,,,,,,,,,,,,,,,,,,,,,,,,,,,,
,,,,,,,,2023-08-24_08h15.03.102,HF_wild_card,2022.2.4,Win32,19.83103954,5d809e67bfa8460017d9c934,64e63663dbcaf322d2eec8da,64e702af6d57a321564976c6,,,,,,,decisionTrl,resources/DY.BMP,resources/DG.BMP,WildCard_NonEx,-0.25390625,-0.010416667,1,0,0,2.4468,optionLeft,45,3820,2,26,0,26,0,1,,,,,,,,,,,,,,,,,,,,,,,,,,,,,,,,,,,,,,,
,,,,,,,,2023-08-24_08h15.03.102,HF_wild_card,2022.2.4,Win32,19.83103954,5d809e67bfa8460017d9c934,64e63663dbcaf322d2eec8da,64e702af6d57a321564976c6,,,,,,,decisionTrl,resources/DBN.BMP,resources/DG.BMP,Door2,0.315104167,-0.014322917,1,0,0,1.8044,optionRight,40,3860,2,27,0,27,0,1,,,,,,,,,,,,,,,,,,,,,,,,,,,,,,,,,,,,,,,
,,,,,,,,2023-08-24_08h15.03.102,HF_wild_card,2022.2.4,Win32,19.83103954,5d809e67bfa8460017d9c934,64e63663dbcaf322d2eec8da,64e702af6d57a321564976c6,,,,,,,decisionTrl,resources/DY.BMP,resources/DBN.BMP,WildCard_NonEx,-0.342447917,-0.020833333,1,0,0,1.5489,optionLeft,45,3905,2,28,0,28,0,1,,,,,,,,,,,,,,,,,,,,,,,,,,,,,,,,,,,,,,,
,,,,,,,,2023-08-24_08h15.03.102,HF_wild_card,2022.2.4,Win32,19.83103954,5d809e67bfa8460017d9c934,64e63663dbcaf322d2eec8da,64e702af6d57a321564976c6,,,,,,,decisionTrl,resources/DG.BMP,resources/DY.BMP,WildCard_NonEx,0.243489583,-0.010416667,1,0,0,2.6526,optionRight,55,3960,2,29,0,29,0,1,,,,,,,,,,,,,,,,,,,,,,,,,,,,,,,,,,,,,,,
,,,,,,,,2023-08-24_08h15.03.102,HF_wild_card,2022.2.4,Win32,19.83103954,5d809e67bfa8460017d9c934,64e63663dbcaf322d2eec8da,64e702af6d57a321564976c6,,,,,,,sngl,resources/DBN.BMP,resources/Empty.png,Door1,-0.3671875,0.036458333,1,0,0,1.373,optionLeft,30,3990,2,30,0,30,0,1,,,,,,,,,,,,,,,,,,,,,,,,,,,,,,,,,,,,,,,
,,,,,,,,2023-08-24_08h15.03.102,HF_wild_card,2022.2.4,Win32,19.83103954,5d809e67bfa8460017d9c934,64e63663dbcaf322d2eec8da,64e702af6d57a321564976c6,,,,,,,sngl,resources/Empty.png,resources/DG.BMP,Door2,0.2734375,0.006510417,1,0,0,1.3898,optionRight,40,4030,2,31,0,31,0,1,,,,,,,,,,,,,,,,,,,,,,,,,,,,,,,,,,,,,,,
,,,,,,,,2023-08-24_08h15.03.102,HF_wild_card,2022.2.4,Win32,19.83103954,5d809e67bfa8460017d9c934,64e63663dbcaf322d2eec8da,64e702af6d57a321564976c6,,,,,,,ctch,resources/DG.BMP,resources/DR.BMP,Door3,0.283854167,-0.026041667,1,0,0,2.173,optionRight,70,4100,2,32,0,32,0,1,,,,,,,,,,,,,,,,,,,,,,,,,,,,,,,,,,,,,,,
,,,,,,,,2023-08-24_08h15.03.102,HF_wild_card,2022.2.4,Win32,19.83103954,5d809e67bfa8460017d9c934,64e63663dbcaf322d2eec8da,64e702af6d57a321564976c6,,,,,,,decisionTrl,resources/DG.BMP,resources/DBN.BMP,Door2,-0.393229167,-0.0703125,1,0,0,2.7275,optionLeft,20,4120,2,33,0,33,0,1,,,,,,,,,,,,,,,,,,,,,,,,,,,,,,,,,,,,,,,
,,,,,,,,2023-08-24_08h15.03.102,HF_wild_card,2022.2.4,Win32,19.83103954,5d809e67bfa8460017d9c934,64e63663dbcaf322d2eec8da,64e702af6d57a321564976c6,,,,,,,decisionTrl,resources/DP.BMP,resources/DR.BMP,Door4,-0.328125,0.006510417,1,0,0,1.701,optionLeft,80,4200,2,34,0,34,0,1,,,,,,,,,,,,,,,,,,,,,,,,,,,,,,,,,,,,,,,
,,,,,,,,2023-08-24_08h15.03.102,HF_wild_card,2022.2.4,Win32,19.83103954,5d809e67bfa8460017d9c934,64e63663dbcaf322d2eec8da,64e702af6d57a321564976c6,,,,,,,decisionTrl,resources/DBN.BMP,resources/DY.BMP,WildCard_NonEx,0.295572917,-0.009114583,1,0,0,1.9328,optionRight,55,4255,2,35,0,35,0,1,,,,,,,,,,,,,,,,,,,,,,,,,,,,,,,,,,,,,,,
,,,,,,,,2023-08-24_08h15.03.102,HF_wild_card,2022.2.4,Win32,19.83103954,5d809e67bfa8460017d9c934,64e63663dbcaf322d2eec8da,64e702af6d57a321564976c6,,,,,,,ctch,resources/DP.BMP,resources/DBN.BMP,Door4,-0.30859375,0.002604167,1,0,0,1.3932,optionLeft,80,4335,2,36,0,36,0,1,,,,,,,,,,,,,,,,,,,,,,,,,,,,,,,,,,,,,,,
,,,,,,,,2023-08-24_08h15.03.102,HF_wild_card,2022.2.4,Win32,19.83103954,5d809e67bfa8460017d9c934,64e63663dbcaf322d2eec8da,64e702af6d57a321564976c6,,,,,,,decisionTrl,resources/DG.BMP,resources/DBN.BMP,Door1,0.2734375,0.048177083,1,0,0,1.958,optionRight,30,4365,2,37,0,37,0,1,,,,,,,,,,,,,,,,,,,,,,,,,,,,,,,,,,,,,,,
,,,,,,,,2023-08-24_08h15.03.102,HF_wild_card,2022.2.4,Win32,19.83103954,5d809e67bfa8460017d9c934,64e63663dbcaf322d2eec8da,64e702af6d57a321564976c6,,,,,,,decisionTrl,resources/DR.BMP,resources/DP.BMP,Door4,0.40625,-0.029947917,1,0,0,1.6571,optionRight,60,4425,2,38,0,38,0,1,,,,,,,,,,,,,,,,,,,,,,,,,,,,,,,,,,,,,,,
,,,,,,,,2023-08-24_08h15.03.102,HF_wild_card,2022.2.4,Win32,19.83103954,5d809e67bfa8460017d9c934,64e63663dbcaf322d2eec8da,64e702af6d57a321564976c6,,,,,,,decisionTrl,resources/DR.BMP,resources/DY.BMP,Door3,-0.329427083,-0.026041667,1,0,0,1.6057,optionLeft,70,4495,2,39,0,39,0,1,,,,,,,,,,,,,,,,,,,,,,,,,,,,,,,,,,,,,,,
,,,,,,,,2023-08-24_08h15.03.102,HF_wild_card,2022.2.4,Win32,19.83103954,5d809e67bfa8460017d9c934,64e63663dbcaf322d2eec8da,64e702af6d57a321564976c6,,,,,,,decisionTrl,resources/DY.BMP,resources/DR.BMP,Door3,0.364583333,-0.0078125,1,0,0,2.234,optionRight,70,4565,2,40,0,40,0,1,,,,,,,,,,,,,,,,,,,,,,,,,,,,,,,,,,,,,,,
,,,,,,,,2023-08-24_08h15.03.102,HF_wild_card,2022.2.4,Win32,19.83103954,5d809e67bfa8460017d9c934,64e63663dbcaf322d2eec8da,64e702af6d57a321564976c6,,,,,,,decisionTrl,resources/DR.BMP,resources/DP.BMP,Door4,0.319010417,-0.00390625,1,0,0,1.2595,optionRight,80,4645,2,41,0,41,0,1,,,,,,,,,,,,,,,,,,,,,,,,,,,,,,,,,,,,,,,
,,,,,,,,2023-08-24_08h15.03.102,HF_wild_card,2022.2.4,Win32,19.83103954,5d809e67bfa8460017d9c934,64e63663dbcaf322d2eec8da,64e702af6d57a321564976c6,,,,,,,ctch,resources/DP.BMP,resources/DBN.BMP,Door4,-0.348958333,-0.03125,1,0,0,1.386,optionLeft,60,4705,2,42,0,42,0,1,,,,,,,,,,,,,,,,,,,,,,,,,,,,,,,,,,,,,,,
,,,,,,,,2023-08-24_08h15.03.102,HF_wild_card,2022.2.4,Win32,19.83103954,5d809e67bfa8460017d9c934,64e63663dbcaf322d2eec8da,64e702af6d57a321564976c6,,,,,,,decisionTrl,resources/DP.BMP,resources/DR.BMP,Door4,-0.2578125,-0.006510417,1,0,0,1.4682,optionLeft,80,4785,2,43,0,43,0,1,,,,,,,,,,,,,,,,,,,,,,,,,,,,,,,,,,,,,,,
,,,,,,,,2023-08-24_08h15.03.102,HF_wild_card,2022.2.4,Win32,19.83103954,5d809e67bfa8460017d9c934,64e63663dbcaf322d2eec8da,64e702af6d57a321564976c6,,,,,,,,,,,,,,,,,,,,,,,,,,1,0,1,0,1,,,,,,,,,,,,,,,,,,,,,,,,,,,,,,,,,,
,,,,,,,,2023-08-24_08h15.03.102,HF_wild_card,2022.2.4,Win32,19.83103954,5d809e67bfa8460017d9c934,64e63663dbcaf322d2eec8da,64e702af6d57a321564976c6,,,,,,,sngl,resources/DR.BMP,resources/Empty.png,Door3,-0.360677083,-0.045572917,1,0,0,1.5366,optionLeft,70,4855,3,0,0,0,0,1,,,,,,,,,,,,,,,,,,,,,,,,,,,,,,,,,,,,,,,
,,,,,,,,2023-08-24_08h15.03.102,HF_wild_card,2022.2.4,Win32,19.83103954,5d809e67bfa8460017d9c934,64e63663dbcaf322d2eec8da,64e702af6d57a321564976c6,,,,,,,decisionTrl,resources/DY.BMP,resources/DG.BMP,WildCard_NonEx,-0.30078125,0.03125,1,0,0,1.9298,optionLeft,45,4900,3,1,0,1,0,1,,,,,,,,,,,,,,,,,,,,,,,,,,,,,,,,,,,,,,,
,,,,,,,,2023-08-24_08h15.03.102,HF_wild_card,2022.2.4,Win32,19.83103954,5d809e67bfa8460017d9c934,64e63663dbcaf322d2eec8da,64e702af6d57a321564976c6,,,,,,,decisionTrl,resources/DBN.BMP,resources/DG.BMP,Door1,-0.307291667,0.016927083,1,0,0,1.9746,optionLeft,30,4930,3,2,0,2,0,1,,,,,,,,,,,,,,,,,,,,,,,,,,,,,,,,,,,,,,,
,,,,,,,,2023-08-24_08h15.03.102,HF_wild_card,2022.2.4,Win32,19.83103954,5d809e67bfa8460017d9c934,64e63663dbcaf322d2eec8da,64e702af6d57a321564976c6,,,,,,,ctch,resources/DG.BMP,resources/DR.BMP,Door3,0.325520833,-0.020833333,1,0,0,1.3208,optionRight,70,5000,3,3,0,3,0,1,,,,,,,,,,,,,,,,,,,,,,,,,,,,,,,,,,,,,,,
,,,,,,,,2023-08-24_08h15.03.102,HF_wild_card,2022.2.4,Win32,19.83103954,5d809e67bfa8460017d9c934,64e63663dbcaf322d2eec8da,64e702af6d57a321564976c6,,,,,,,ctch,resources/DR.BMP,resources/DG.BMP,Door3,-0.25390625,-0.006510417,1,0,0,1.6686,optionLeft,70,5070,3,4,0,4,0,1,,,,,,,,,,,,,,,,,,,,,,,,,,,,,,,,,,,,,,,
,,,,,,,,2023-08-24_08h15.03.102,HF_wild_card,2022.2.4,Win32,19.83103954,5d809e67bfa8460017d9c934,64e63663dbcaf322d2eec8da,64e702af6d57a321564976c6,,,,,,,decisionTrl,resources/DR.BMP,resources/DP.BMP,Door4,0.37890625,-0.010416667,1,0,0,1.2249,optionRight,80,5150,3,5,0,5,0,1,,,,,,,,,,,,,,,,,,,,,,,,,,,,,,,,,,,,,,,
,,,,,,,,2023-08-24_08h15.03.102,HF_wild_card,2022.2.4,Win32,19.83103954,5d809e67bfa8460017d9c934,64e63663dbcaf322d2eec8da,64e702af6d57a321564976c6,,,,,,,ctch,resources/DBN.BMP,resources/DP.BMP,Door4,0.325520833,-0.0078125,1,0,0,1.3564,optionRight,60,5210,3,6,0,6,0,1,,,,,,,,,,,,,,,,,,,,,,,,,,,,,,,,,,,,,,,
,,,,,,,,2023-08-24_08h15.03.102,HF_wild_card,2022.2.4,Win32,19.83103954,5d809e67bfa8460017d9c934,64e63663dbcaf322d2eec8da,64e702af6d57a321564976c6,,,,,,,decisionTrl,resources/DP.BMP,resources/DR.BMP,Door4,-0.28515625,0.009114583,1,0,0,2.6061,optionLeft,60,5270,3,7,0,7,0,1,,,,,,,,,,,,,,,,,,,,,,,,,,,,,,,,,,,,,,,
,,,,,,,,2023-08-24_08h15.03.102,HF_wild_card,2022.2.4,Win32,19.83103954,5d809e67bfa8460017d9c934,64e63663dbcaf322d2eec8da,64e702af6d57a321564976c6,,,,,,,sngl,resources/DBN.BMP,resources/Empty.png,Door1,-0.34765625,0.020833333,1,0,0,1.2477,optionLeft,30,5300,3,8,0,8,0,1,,,,,,,,,,,,,,,,,,,,,,,,,,,,,,,,,,,,,,,
,,,,,,,,2023-08-24_08h15.03.102,HF_wild_card,2022.2.4,Win32,19.83103954,5d809e67bfa8460017d9c934,64e63663dbcaf322d2eec8da,64e702af6d57a321564976c6,,,,,,,sngl,resources/DY.BMP,resources/Empty.png,WildCard_NonEx,-0.39453125,0.00390625,1,0,0,1.4225,optionLeft,55,5355,3,9,0,9,0,1,,,,,,,,,,,,,,,,,,,,,,,,,,,,,,,,,,,,,,,
,,,,,,,,2023-08-24_08h15.03.102,HF_wild_card,2022.2.4,Win32,19.83103954,5d809e67bfa8460017d9c934,64e63663dbcaf322d2eec8da,64e702af6d57a321564976c6,,,,,,,decisionTrl,resources/DBN.BMP,resources/DG.BMP,Door2,0.34375,0.022135417,1,0,0,2.7142,optionRight,40,5395,3,10,0,10,0,1,,,,,,,,,,,,,,,,,,,,,,,,,,,,,,,,,,,,,,,
,,,,,,,,2023-08-24_08h15.03.102,HF_wild_card,2022.2.4,Win32,19.83103954,5d809e67bfa8460017d9c934,64e63663dbcaf322d2eec8da,64e702af6d57a321564976c6,,,,,,,decisionTrl,resources/DY.BMP,resources/DP.BMP,Door4,0.428385417,0.026041667,1,0,0,1.5062,optionRight,60,5455,3,11,0,11,0,1,,,,,,,,,,,,,,,,,,,,,,,,,,,,,,,,,,,,,,,
,,,,,,,,2023-08-24_08h15.03.102,HF_wild_card,2022.2.4,Win32,19.83103954,5d809e67bfa8460017d9c934,64e63663dbcaf322d2eec8da,64e702af6d57a321564976c6,,,,,,,ctch,resources/DG.BMP,resources/DR.BMP,Door3,0.2890625,0.065104167,1,0,0,1.5317,optionRight,70,5525,3,12,0,12,0,1,,,,,,,,,,,,,,,,,,,,,,,,,,,,,,,,,,,,,,,
,,,,,,,,2023-08-24_08h15.03.102,HF_wild_card,2022.2.4,Win32,19.83103954,5d809e67bfa8460017d9c934,64e63663dbcaf322d2eec8da,64e702af6d57a321564976c6,,,,,,,sngl,resources/DY.BMP,resources/Empty.png,WildCard_NonEx,-0.260416667,-0.001302083,1,0,0,1.2828,optionLeft,45,5570,3,13,0,13,0,1,,,,,,,,,,,,,,,,,,,,,,,,,,,,,,,,,,,,,,,
,,,,,,,,2023-08-24_08h15.03.102,HF_wild_card,2022.2.4,Win32,19.83103954,5d809e67bfa8460017d9c934,64e63663dbcaf322d2eec8da,64e702af6d57a321564976c6,,,,,,,decisionTrl,resources/DR.BMP,resources/DP.BMP,Door4,0.391927083,-0.033854167,1,0,0,1.125,optionRight,60,5630,3,14,0,14,0,1,,,,,,,,,,,,,,,,,,,,,,,,,,,,,,,,,,,,,,,
,,,,,,,,2023-08-24_08h15.03.102,HF_wild_card,2022.2.4,Win32,19.83103954,5d809e67bfa8460017d9c934,64e63663dbcaf322d2eec8da,64e702af6d57a321564976c6,,,,,,,ctch,resources/DP.BMP,resources/DBN.BMP,Door4,-0.375,-0.014322917,1,0,0,1.3335,optionLeft,80,5710,3,15,0,15,0,1,,,,,,,,,,,,,,,,,,,,,,,,,,,,,,,,,,,,,,,
,,,,,,,,2023-08-24_08h15.03.102,HF_wild_card,2022.2.4,Win32,19.83103954,5d809e67bfa8460017d9c934,64e63663dbcaf322d2eec8da,64e702af6d57a321564976c6,,,,,,,decisionTrl,resources/DR.BMP,resources/DP.BMP,Door3,-0.20703125,-0.033854167,1,0,0,1.9611,optionLeft,70,5780,3,16,0,16,0,1,,,,,,,,,,,,,,,,,,,,,,,,,,,,,,,,,,,,,,,
,,,,,,,,2023-08-24_08h15.03.102,HF_wild_card,2022.2.4,Win32,19.83103954,5d809e67bfa8460017d9c934,64e63663dbcaf322d2eec8da,64e702af6d57a321564976c6,,,,,,,sngl,resources/Empty.png,resources/DBN.BMP,Door1,0.35546875,0.040364583,1,0,0,1.159,optionRight,30,5810,3,17,0,17,0,1,,,,,,,,,,,,,,,,,,,,,,,,,,,,,,,,,,,,,,,
,,,,,,,,2023-08-24_08h15.03.102,HF_wild_card,2022.2.4,Win32,19.83103954,5d809e67bfa8460017d9c934,64e63663dbcaf322d2eec8da,64e702af6d57a321564976c6,,,,,,,decisionTrl,resources/DG.BMP,resources/DY.BMP,WildCard_NonEx,0.4375,0.001302083,1,0,0,2.356,optionRight,45,5855,3,18,0,18,0,1,,,,,,,,,,,,,,,,,,,,,,,,,,,,,,,,,,,,,,,
,,,,,,,,2023-08-24_08h15.03.102,HF_wild_card,2022.2.4,Win32,19.83103954,5d809e67bfa8460017d9c934,64e63663dbcaf322d2eec8da,64e702af6d57a321564976c6,,,,,,,decisionTrl,resources/DBN.BMP,resources/DG.BMP,Door1,-0.352864583,0.016927083,1,0,0,2.1826,optionLeft,30,5885,3,19,0,19,0,1,,,,,,,,,,,,,,,,,,,,,,,,,,,,,,,,,,,,,,,
,,,,,,,,2023-08-24_08h15.03.102,HF_wild_card,2022.2.4,Win32,19.83103954,5d809e67bfa8460017d9c934,64e63663dbcaf322d2eec8da,64e702af6d57a321564976c6,,,,,,,decisionTrl,resources/DY.BMP,resources/DR.BMP,Door3,0.302083333,-0.033854167,1,0,0,1.6063,optionRight,70,5955,3,20,0,20,0,1,,,,,,,,,,,,,,,,,,,,,,,,,,,,,,,,,,,,,,,
,,,,,,,,2023-08-24_08h15.03.102,HF_wild_card,2022.2.4,Win32,19.83103954,5d809e67bfa8460017d9c934,64e63663dbcaf322d2eec8da,64e702af6d57a321564976c6,,,,,,,decisionTrl,resources/DG.BMP,resources/DBN.BMP,Door1,0.274739583,0.045572917,1,0,0,2.453,optionRight,30,5985,3,21,0,21,0,1,,,,,,,,,,,,,,,,,,,,,,,,,,,,,,,,,,,,,,,
,,,,,,,,2023-08-24_08h15.03.102,HF_wild_card,2022.2.4,Win32,19.83103954,5d809e67bfa8460017d9c934,64e63663dbcaf322d2eec8da,64e702af6d57a321564976c6,,,,,,,decisionTrl,resources/DP.BMP,resources/DR.BMP,Door4,-0.416666667,0.0078125,1,0,0,1.4279,optionLeft,80,6065,3,22,0,22,0,1,,,,,,,,,,,,,,,,,,,,,,,,,,,,,,,,,,,,,,,
,,,,,,,,2023-08-24_08h15.03.102,HF_wild_card,2022.2.4,Win32,19.83103954,5d809e67bfa8460017d9c934,64e63663dbcaf322d2eec8da,64e702af6d57a321564976c6,,,,,,,sngl,resources/Empty.png,resources/DG.BMP,Door2,0.3671875,0.022135417,1,0,0,1.3648,optionRight,20,6085,3,23,0,23,0,1,,,,,,,,,,,,,,,,,,,,,,,,,,,,,,,,,,,,,,,
,,,,,,,,2023-08-24_08h15.03.102,HF_wild_card,2022.2.4,Win32,19.83103954,5d809e67bfa8460017d9c934,64e63663dbcaf322d2eec8da,64e702af6d57a321564976c6,,,,,,,sngl,resources/Empty.png,resources/DR.BMP,Door3,0.28125,0.0078125,1,0,0,1.8282,optionRight,70,6155,3,24,0,24,0,1,,,,,,,,,,,,,,,,,,,,,,,,,,,,,,,,,,,,,,,
,,,,,,,,2023-08-24_08h15.03.102,HF_wild_card,2022.2.4,Win32,19.83103954,5d809e67bfa8460017d9c934,64e63663dbcaf322d2eec8da,64e702af6d57a321564976c6,,,,,,,ctch,resources/DBN.BMP,resources/DP.BMP,Door4,0.368489583,-0.00390625,1,0,0,1.9983,optionRight,60,6215,3,25,0,25,0,1,,,,,,,,,,,,,,,,,,,,,,,,,,,,,,,,,,,,,,,
,,,,,,,,2023-08-24_08h15.03.102,HF_wild_card,2022.2.4,Win32,19.83103954,5d809e67bfa8460017d9c934,64e63663dbcaf322d2eec8da,64e702af6d57a321564976c6,,,,,,,sngl,resources/Empty.png,resources/DY.BMP,WildCard_NonEx,0.32421875,-0.0078125,1,0,0,1.1599,optionRight,45,6260,3,26,0,26,0,1,,,,,,,,,,,,,,,,,,,,,,,,,,,,,,,,,,,,,,,
,,,,,,,,2023-08-24_08h15.03.102,HF_wild_card,2022.2.4,Win32,19.83103954,5d809e67bfa8460017d9c934,64e63663dbcaf322d2eec8da,64e702af6d57a321564976c6,,,,,,,sngl,resources/Empty.png,resources/DY.BMP,WildCard_NonEx,0.26953125,0.0546875,1,0,0,1.0985,optionRight,55,6315,3,27,0,27,0,1,,,,,,,,,,,,,,,,,,,,,,,,,,,,,,,,,,,,,,,
,,,,,,,,2023-08-24_08h15.03.102,HF_wild_card,2022.2.4,Win32,19.83103954,5d809e67bfa8460017d9c934,64e63663dbcaf322d2eec8da,64e702af6d57a321564976c6,,,,,,,decisionTrl,resources/DR.BMP,resources/DY.BMP,Door3,-0.399739583,-0.009114583,1,0,0,1.9816,optionLeft,70,6385,3,28,0,28,0,1,,,,,,,,,,,,,,,,,,,,,,,,,,,,,,,,,,,,,,,
,,,,,,,,2023-08-24_08h15.03.102,HF_wild_card,2022.2.4,Win32,19.83103954,5d809e67bfa8460017d9c934,64e63663dbcaf322d2eec8da,64e702af6d57a321564976c6,,,,,,,sngl,resources/DG.BMP,resources/Empty.png,Door2,-0.27734375,-0.024739583,1,0,0,1.4152,optionLeft,40,6425,3,29,0,29,0,1,,,,,,,,,,,,,,,,,,,,,,,,,,,,,,,,,,,,,,,
,,,,,,,,2023-08-24_08h15.03.102,HF_wild_card,2022.2.4,Win32,19.83103954,5d809e67bfa8460017d9c934,64e63663dbcaf322d2eec8da,64e702af6d57a321564976c6,,,,,,,decisionTrl,resources/DBN.BMP,resources/DY.BMP,WildCard_NonEx,0.272135417,0.022135417,1,0,0,2.1402,optionRight,45,6470,3,30,0,30,0,1,,,,,,,,,,,,,,,,,,,,,,,,,,,,,,,,,,,,,,,
,,,,,,,,2023-08-24_08h15.03.102,HF_wild_card,2022.2.4,Win32,19.83103954,5d809e67bfa8460017d9c934,64e63663dbcaf322d2eec8da,64e702af6d57a321564976c6,,,,,,,decisionTrl,resources/DP.BMP,resources/DR.BMP,Door4,-0.348958333,-0.009114583,1,0,0,1.4268,optionLeft,60,6530,3,31,0,31,0,1,,,,,,,,,,,,,,,,,,,,,,,,,,,,,,,,,,,,,,,
,,,,,,,,2023-08-24_08h15.03.102,HF_wild_card,2022.2.4,Win32,19.83103954,5d809e67bfa8460017d9c934,64e63663dbcaf322d2eec8da,64e702af6d57a321564976c6,,,,,,,decisionTrl,resources/DP.BMP,resources/DY.BMP,Door4,-0.359375,-0.015625,1,0,0,1.4402,optionLeft,80,6610,3,32,0,32,0,1,,,,,,,,,,,,,,,,,,,,,,,,,,,,,,,,,,,,,,,
,,,,,,,,2023-08-24_08h15.03.102,HF_wild_card,2022.2.4,Win32,19.83103954,5d809e67bfa8460017d9c934,64e63663dbcaf322d2eec8da,64e702af6d57a321564976c6,,,,,,,decisionTrl,resources/DG.BMP,resources/DBN.BMP,Door2,-0.205729167,0.00390625,1,0,0,2.5432,optionLeft,40,6650,3,33,0,33,0,1,,,,,,,,,,,,,,,,,,,,,,,,,,,,,,,,,,,,,,,
,,,,,,,,2023-08-24_08h15.03.102,HF_wild_card,2022.2.4,Win32,19.83103954,5d809e67bfa8460017d9c934,64e63663dbcaf322d2eec8da,64e702af6d57a321564976c6,,,,,,,sngl,resources/Empty.png,resources/DP.BMP,Door4,0.35546875,0.010416667,1,0,0,1.2404,optionRight,60,6710,3,34,0,34,0,1,,,,,,,,,,,,,,,,,,,,,,,,,,,,,,,,,,,,,,,
,,,,,,,,2023-08-24_08h15.03.102,HF_wild_card,2022.2.4,Win32,19.83103954,5d809e67bfa8460017d9c934,64e63663dbcaf322d2eec8da,64e702af6d57a321564976c6,,,,,,,decisionTrl,resources/DBN.BMP,resources/DG.BMP,Door2,0.35546875,0.0234375,1,0,0,1.7803,optionRight,40,6750,3,35,0,35,0,1,,,,,,,,,,,,,,,,,,,,,,,,,,,,,,,,,,,,,,,
,,,,,,,,2023-08-24_08h15.03.102,HF_wild_card,2022.2.4,Win32,19.83103954,5d809e67bfa8460017d9c934,64e63663dbcaf322d2eec8da,64e702af6d57a321564976c6,,,,,,,decisionTrl,resources/DY.BMP,resources/DBN.BMP,WildCard_NonEx,-0.471354167,0.013020833,1,0,0,1.4404,optionLeft,45,6795,3,36,0,36,0,1,,,,,,,,,,,,,,,,,,,,,,,,,,,,,,,,,,,,,,,
,,,,,,,,2023-08-24_08h15.03.102,HF_wild_card,2022.2.4,Win32,19.83103954,5d809e67bfa8460017d9c934,64e63663dbcaf322d2eec8da,64e702af6d57a321564976c6,,,,,,,decisionTrl,resources/DR.BMP,resources/DP.BMP,Door4,0.364583333,-0.037760417,1,0,0,1.4378,optionRight,60,6855,3,37,0,37,0,1,,,,,,,,,,,,,,,,,,,,,,,,,,,,,,,,,,,,,,,
,,,,,,,,2023-08-24_08h15.03.102,HF_wild_card,2022.2.4,Win32,19.83103954,5d809e67bfa8460017d9c934,64e63663dbcaf322d2eec8da,64e702af6d57a321564976c6,,,,,,,sngl,resources/DP.BMP,resources/Empty.png,Door4,-0.317708333,0.013020833,1,0,0,1.2059,optionLeft,80,6935,3,38,0,38,0,1,,,,,,,,,,,,,,,,,,,,,,,,,,,,,,,,,,,,,,,
,,,,,,,,2023-08-24_08h15.03.102,HF_wild_card,2022.2.4,Win32,19.83103954,5d809e67bfa8460017d9c934,64e63663dbcaf322d2eec8da,64e702af6d57a321564976c6,,,,,,,ctch,resources/DR.BMP,resources/DG.BMP,Door3,-0.40625,-0.028645833,1,0,0,1.4334,optionLeft,70,7005,3,39,0,39,0,1,,,,,,,,,,,,,,,,,,,,,,,,,,,,,,,,,,,,,,,
,,,,,,,,2023-08-24_08h15.03.102,HF_wild_card,2022.2.4,Win32,19.83103954,5d809e67bfa8460017d9c934,64e63663dbcaf322d2eec8da,64e702af6d57a321564976c6,,,,,,,ctch,resources/DP.BMP,resources/DBN.BMP,Door4,-0.3515625,-0.01953125,1,0,0,1.2248,optionLeft,80,7085,3,40,0,40,0,1,,,,,,,,,,,,,,,,,,,,,,,,,,,,,,,,,,,,,,,
,,,,,,,,2023-08-24_08h15.03.102,HF_wild_card,2022.2.4,Win32,19.83103954,5d809e67bfa8460017d9c934,64e63663dbcaf322d2eec8da,64e702af6d57a321564976c6,,,,,,,decisionTrl,resources/DG.BMP,resources/DBN.BMP,Door2,-0.345052083,-0.053385417,1,0,0,2.0196,optionLeft,20,7105,3,41,0,41,0,1,,,,,,,,,,,,,,,,,,,,,,,,,,,,,,,,,,,,,,,
,,,,,,,,2023-08-24_08h15.03.102,HF_wild_card,2022.2.4,Win32,19.83103954,5d809e67bfa8460017d9c934,64e63663dbcaf322d2eec8da,64e702af6d57a321564976c6,,,,,,,decisionTrl,resources/DG.BMP,resources/DBN.BMP,Door1,0.217447917,0.002604167,1,0,0,1.5922,optionRight,30,7135,3,42,0,42,0,1,,,,,,,,,,,,,,,,,,,,,,,,,,,,,,,,,,,,,,,
,,,,,,,,2023-08-24_08h15.03.102,HF_wild_card,2022.2.4,Win32,19.83103954,5d809e67bfa8460017d9c934,64e63663dbcaf322d2eec8da,64e702af6d57a321564976c6,,,,,,,decisionTrl,resources/DP.BMP,resources/DR.BMP,Door4,-0.34765625,0.005208333,1,0,0,1.7553,optionLeft,60,7195,3,43,0,43,0,1,,,,,,,,,,,,,,,,,,,,,,,,,,,,,,,,,,,,,,,
,,,,,,,,2023-08-24_08h15.03.102,HF_wild_card,2022.2.4,Win32,19.83103954,5d809e67bfa8460017d9c934,64e63663dbcaf322d2eec8da,64e702af6d57a321564976c6,,,,,,,,,,,,,,,,,,,,,,,,,,2,0,2,0,1,,,,,,,,,,,,,,,,,,,,,,,,,,,,,,,,,,
,,,,,,,,2023-08-24_08h15.03.102,HF_wild_card,2022.2.4,Win32,19.83103954,5d809e67bfa8460017d9c934,64e63663dbcaf322d2eec8da,64e702af6d57a321564976c6,,,,,,,sngl,resources/Empty.png,resources/DB.BMP,WildCard_Ex,0.44921875,-0.0234375,1,0,0,2.0878,optionRight,55,7250,4,0,0,0,0,1,,,,,,,,,,,,,,,,,,,,,,,,,,,,,,,,,,,,,,,
,,,,,,,,2023-08-24_08h15.03.102,HF_wild_card,2022.2.4,Win32,19.83103954,5d809e67bfa8460017d9c934,64e63663dbcaf322d2eec8da,64e702af6d57a321564976c6,,,,,,,sngl,resources/DG.BMP,resources/Empty.png,Door2,-0.29296875,-0.005208333,1,0,0,1.2577,optionLeft,20,7270,4,1,0,1,0,1,,,,,,,,,,,,,,,,,,,,,,,,,,,,,,,,,,,,,,,
,,,,,,,,2023-08-24_08h15.03.102,HF_wild_card,2022.2.4,Win32,19.83103954,5d809e67bfa8460017d9c934,64e63663dbcaf322d2eec8da,64e702af6d57a321564976c6,,,,,,,ctch,resources/DP.BMP,resources/DBN.BMP,Door4,-0.403645833,-0.040364583,1,0,0,1.4478,optionLeft,80,7350,4,2,0,2,0,1,,,,,,,,,,,,,,,,,,,,,,,,,,,,,,,,,,,,,,,
,,,,,,,,2023-08-24_08h15.03.102,HF_wild_card,2022.2.4,Win32,19.83103954,5d809e67bfa8460017d9c934,64e63663dbcaf322d2eec8da,64e702af6d57a321564976c6,,,,,,,decisionTrl,resources/DBN.BMP,resources/DG.BMP,Door2,0.36328125,-0.022135417,1,0,0,1.417,optionRight,20,7370,4,3,0,3,0,1,,,,,,,,,,,,,,,,,,,,,,,,,,,,,,,,,,,,,,,
,,,,,,,,2023-08-24_08h15.03.102,HF_wild_card,2022.2.4,Win32,19.83103954,5d809e67bfa8460017d9c934,64e63663dbcaf322d2eec8da,64e702af6d57a321564976c6,,,,,,,decisionTrl,resources/DR.BMP,resources/DB.BMP,Door3,-0.380208333,-0.037760417,1,0,0,1.3612,optionLeft,70,7440,4,4,0,4,0,1,,,,,,,,,,,,,,,,,,,,,,,,,,,,,,,,,,,,,,,
,,,,,,,,2023-08-24_08h15.03.102,HF_wild_card,2022.2.4,Win32,19.83103954,5d809e67bfa8460017d9c934,64e63663dbcaf322d2eec8da,64e702af6d57a321564976c6,,,,,,,decisionTrl,resources/DG.BMP,resources/DBN.BMP,Door2,-0.240885417,0.002604167,1,0,0,1.952,optionLeft,20,7460,4,5,0,5,0,1,,,,,,,,,,,,,,,,,,,,,,,,,,,,,,,,,,,,,,,
,,,,,,,,2023-08-24_08h15.03.102,HF_wild_card,2022.2.4,Win32,19.83103954,5d809e67bfa8460017d9c934,64e63663dbcaf322d2eec8da,64e702af6d57a321564976c6,,,,,,,decisionTrl,resources/DB.BMP,resources/DR.BMP,WildCard_Ex,-0.3046875,-0.001302083,1,0,0,1.5432,optionLeft,55,7515,4,6,0,6,0,1,,,,,,,,,,,,,,,,,,,,,,,,,,,,,,,,,,,,,,,
,,,,,,,,2023-08-24_08h15.03.102,HF_wild_card,2022.2.4,Win32,19.83103954,5d809e67bfa8460017d9c934,64e63663dbcaf322d2eec8da,64e702af6d57a321564976c6,,,,,,,ctch,resources/DBN.BMP,resources/DP.BMP,Door4,0.423177083,-0.032552083,1,0,0,1.2827,optionRight,60,7575,4,7,0,7,0,1,,,,,,,,,,,,,,,,,,,,,,,,,,,,,,,,,,,,,,,
,,,,,,,,2023-08-24_08h15.03.102,HF_wild_card,2022.2.4,Win32,19.83103954,5d809e67bfa8460017d9c934,64e63663dbcaf322d2eec8da,64e702af6d57a321564976c6,,,,,,,decisionTrl,resources/DP.BMP,resources/DR.BMP,Door3,0.28125,0.0234375,1,0,0,1.6471,optionRight,70,7645,4,8,0,8,0,1,,,,,,,,,,,,,,,,,,,,,,,,,,,,,,,,,,,,,,,
,,,,,,,,2023-08-24_08h15.03.102,HF_wild_card,2022.2.4,Win32,19.83103954,5d809e67bfa8460017d9c934,64e63663dbcaf322d2eec8da,64e702af6d57a321564976c6,,,,,,,ctch,resources/DBN.BMP,resources/DP.BMP,Door4,0.350260417,0.002604167,1,0,0,1.3775,optionRight,80,7725,4,9,0,9,0,1,,,,,,,,,,,,,,,,,,,,,,,,,,,,,,,,,,,,,,,
,,,,,,,,2023-08-24_08h15.03.102,HF_wild_card,2022.2.4,Win32,19.83103954,5d809e67bfa8460017d9c934,64e63663dbcaf322d2eec8da,64e702af6d57a321564976c6,,,,,,,decisionTrl,resources/DB.BMP,resources/DBN.BMP,WildCard_Ex,-0.35546875,-0.005208333,1,0,0,1.6033,optionLeft,45,7770,4,10,0,10,0,1,,,,,,,,,,,,,,,,,,,,,,,,,,,,,,,,,,,,,,,
,,,,,,,,2023-08-24_08h15.03.102,HF_wild_card,2022.2.4,Win32,19.83103954,5d809e67bfa8460017d9c934,64e63663dbcaf322d2eec8da,64e702af6d57a321564976c6,,,,,,,sngl,resources/Empty.png,resources/DB.BMP,WildCard_Ex,0.317708333,-0.00390625,1,0,0,1.1044,optionRight,45,7815,4,11,0,11,0,1,,,,,,,,,,,,,,,,,,,,,,,,,,,,,,,,,,,,,,,
,,,,,,,,2023-08-24_08h15.03.102,HF_wild_card,2022.2.4,Win32,19.83103954,5d809e67bfa8460017d9c934,64e63663dbcaf322d2eec8da,64e702af6d57a321564976c6,,,,,,,sngl,resources/DP.BMP,resources/Empty.png,Door4,-0.29296875,-0.001302083,1,0,0,1.2183,optionLeft,60,7875,4,12,0,12,0,1,,,,,,,,,,,,,,,,,,,,,,,,,,,,,,,,,,,,,,,
,,,,,,,,2023-08-24_08h15.03.102,HF_wild_card,2022.2.4,Win32,19.83103954,5d809e67bfa8460017d9c934,64e63663dbcaf322d2eec8da,64e702af6d57a321564976c6,,,,,,,ctch,resources/DG.BMP,resources/DR.BMP,Door3,0.307291667,-0.013020833,1,0,0,2.1539,optionRight,70,7945,4,13,0,13,0,1,,,,,,,,,,,,,,,,,,,,,,,,,,,,,,,,,,,,,,,
,,,,,,,,2023-08-24_08h15.03.102,HF_wild_card,2022.2.4,Win32,19.83103954,5d809e67bfa8460017d9c934,64e63663dbcaf322d2eec8da,64e702af6d57a321564976c6,,,,,,,decisionTrl,resources/DBN.BMP,resources/DG.BMP,Door2,0.342447917,0.029947917,1,0,0,2.2231,optionRight,40,7985,4,14,0,14,0,1,,,,,,,,,,,,,,,,,,,,,,,,,,,,,,,,,,,,,,,
,,,,,,,,2023-08-24_08h15.03.102,HF_wild_card,2022.2.4,Win32,19.83103954,5d809e67bfa8460017d9c934,64e63663dbcaf322d2eec8da,64e702af6d57a321564976c6,,,,,,,ctch,resources/DR.BMP,resources/DG.BMP,Door3,-0.365885417,-0.026041667,1,0,0,1.6923,optionLeft,70,8055,4,15,0,15,0,1,,,,,,,,,,,,,,,,,,,,,,,,,,,,,,,,,,,,,,,
,,,,,,,,2023-08-24_08h15.03.102,HF_wild_card,2022.2.4,Win32,19.83103954,5d809e67bfa8460017d9c934,64e63663dbcaf322d2eec8da,64e702af6d57a321564976c6,,,,,,,decisionTrl,resources/DG.BMP,resources/DB.BMP,WildCard_Ex,0.223958333,-0.0234375,1,0,0,2.2959,optionRight,55,8110,4,16,0,16,0,1,,,,,,,,,,,,,,,,,,,,,,,,,,,,,,,,,,,,,,,
,,,,,,,,2023-08-24_08h15.03.102,HF_wild_card,2022.2.4,Win32,19.83103954,5d809e67bfa8460017d9c934,64e63663dbcaf322d2eec8da,64e702af6d57a321564976c6,,,,,,,decisionTrl,resources/DR.BMP,resources/DP.BMP,Door4,0.337239583,-0.020833333,1,0,0,1.5855,optionRight,60,8170,4,17,0,17,0,1,,,,,,,,,,,,,,,,,,,,,,,,,,,,,,,,,,,,,,,
,,,,,,,,2023-08-24_08h15.03.102,HF_wild_card,2022.2.4,Win32,19.83103954,5d809e67bfa8460017d9c934,64e63663dbcaf322d2eec8da,64e702af6d57a321564976c6,,,,,,,decisionTrl,resources/DR.BMP,resources/DP.BMP,Door4,0.182291667,-0.016927083,1,0,0,2.0164,optionRight,80,8250,4,18,0,18,0,1,,,,,,,,,,,,,,,,,,,,,,,,,,,,,,,,,,,,,,,
,,,,,,,,2023-08-24_08h15.03.102,HF_wild_card,2022.2.4,Win32,19.83103954,5d809e67bfa8460017d9c934,64e63663dbcaf322d2eec8da,64e702af6d57a321564976c6,,,,,,,decisionTrl,resources/DBN.BMP,resources/DB.BMP,WildCard_Ex,0.311197917,-0.024739583,1,0,0,1.5422,optionRight,55,8305,4,19,0,19,0,1,,,,,,,,,,,,,,,,,,,,,,,,,,,,,,,,,,,,,,,
,,,,,,,,2023-08-24_08h15.03.102,HF_wild_card,2022.2.4,Win32,19.83103954,5d809e67bfa8460017d9c934,64e63663dbcaf322d2eec8da,64e702af6d57a321564976c6,,,,,,,sngl,resources/DR.BMP,resources/Empty.png,Door3,-0.365885417,-0.04296875,1,0,0,1.3093,optionLeft,70,8375,4,20,0,20,0,1,,,,,,,,,,,,,,,,,,,,,,,,,,,,,,,,,,,,,,,
,,,,,,,,2023-08-24_08h15.03.102,HF_wild_card,2022.2.4,Win32,19.83103954,5d809e67bfa8460017d9c934,64e63663dbcaf322d2eec8da,64e702af6d57a321564976c6,,,,,,,decisionTrl,resources/DR.BMP,resources/DP.BMP,Door4,0.256510417,-0.02734375,1,0,0,1.721,optionRight,80,8455,4,21,0,21,0,1,,,,,,,,,,,,,,,,,,,,,,,,,,,,,,,,,,,,,,,
,,,,,,,,2023-08-24_08h15.03.102,HF_wild_card,2022.2.4,Win32,19.83103954,5d809e67bfa8460017d9c934,64e63663dbcaf322d2eec8da,64e702af6d57a321564976c6,,,,,,,sngl,resources/DBN.BMP,resources/Empty.png,Door1,-0.388020833,-0.033854167,1,0,0,1.2184,optionLeft,30,8485,4,22,0,22,0,1,,,,,,,,,,,,,,,,,,,,,,,,,,,,,,,,,,,,,,,
,,,,,,,,2023-08-24_08h15.03.102,HF_wild_card,2022.2.4,Win32,19.83103954,5d809e67bfa8460017d9c934,64e63663dbcaf322d2eec8da,64e702af6d57a321564976c6,,,,,,,sngl,resources/Empty.png,resources/DR.BMP,Door3,0.305989583,0.03125,1,0,0,1.1144,optionRight,70,8555,4,23,0,23,0,1,,,,,,,,,,,,,,,,,,,,,,,,,,,,,,,,,,,,,,,
,,,,,,,,2023-08-24_08h15.03.102,HF_wild_card,2022.2.4,Win32,19.83103954,5d809e67bfa8460017d9c934,64e63663dbcaf322d2eec8da,64e702af6d57a321564976c6,,,,,,,ctch,resources/DR.BMP,resources/DG.BMP,Door3,-0.305989583,-0.028645833,1,0,0,2.7398,optionLeft,70,8625,4,24,0,24,0,1,,,,,,,,,,,,,,,,,,,,,,,,,,,,,,,,,,,,,,,
,,,,,,,,2023-08-24_08h15.03.102,HF_wild_card,2022.2.4,Win32,19.83103954,5d809e67bfa8460017d9c934,64e63663dbcaf322d2eec8da,64e702af6d57a321564976c6,,,,,,,decisionTrl,resources/DBN.BMP,resources/DG.BMP,Door2,0.26953125,-0.02734375,1,0,0,1.9118,optionRight,20,8645,4,25,0,25,0,1,,,,,,,,,,,,,,,,,,,,,,,,,,,,,,,,,,,,,,,
,,,,,,,,2023-08-24_08h15.03.102,HF_wild_card,2022.2.4,Win32,19.83103954,5d809e67bfa8460017d9c934,64e63663dbcaf322d2eec8da,64e702af6d57a321564976c6,,,,,,,decisionTrl,resources/DR.BMP,resources/DP.BMP,Door4,0.260416667,-0.002604167,1,0,0,1.5769,optionRight,60,8705,4,26,0,26,0,1,,,,,,,,,,,,,,,,,,,,,,,,,,,,,,,,,,,,,,,
,,,,,,,,2023-08-24_08h15.03.102,HF_wild_card,2022.2.4,Win32,19.83103954,5d809e67bfa8460017d9c934,64e63663dbcaf322d2eec8da,64e702af6d57a321564976c6,,,,,,,decisionTrl,resources/DG.BMP,resources/DBN.BMP,Door2,-0.247395833,0.024739583,1,0,0,4.1569,optionLeft,20,8725,4,27,0,27,0,1,,,,,,,,,,,,,,,,,,,,,,,,,,,,,,,,,,,,,,,
,,,,,,,,2023-08-24_08h15.03.102,HF_wild_card,2022.2.4,Win32,19.83103954,5d809e67bfa8460017d9c934,64e63663dbcaf322d2eec8da,64e702af6d57a321564976c6,,,,,,,sngl,resources/Empty.png,resources/DP.BMP,Door4,0.354166667,-0.002604167,1,0,0,1.1688,optionRight,80,8805,4,28,0,28,0,1,,,,,,,,,,,,,,,,,,,,,,,,,,,,,,,,,,,,,,,
,,,,,,,,2023-08-24_08h15.03.102,HF_wild_card,2022.2.4,Win32,19.83103954,5d809e67bfa8460017d9c934,64e63663dbcaf322d2eec8da,64e702af6d57a321564976c6,,,,,,,sngl,resources/Empty.png,resources/DG.BMP,Door2,0.30078125,0.03125,1,0,0,1.1099,optionRight,40,8845,4,29,0,29,0,1,,,,,,,,,,,,,,,,,,,,,,,,,,,,,,,,,,,,,,,
,,,,,,,,2023-08-24_08h15.03.102,HF_wild_card,2022.2.4,Win32,19.83103954,5d809e67bfa8460017d9c934,64e63663dbcaf322d2eec8da,64e702af6d57a321564976c6,,,,,,,sngl,resources/Empty.png,resources/DBN.BMP,Door1,0.412760417,0.102864583,1,0,0,1.1456,optionRight,30,8875,4,30,0,30,0,1,,,,,,,,,,,,,,,,,,,,,,,,,,,,,,,,,,,,,,,
,,,,,,,,2023-08-24_08h15.03.102,HF_wild_card,2022.2.4,Win32,19.83103954,5d809e67bfa8460017d9c934,64e63663dbcaf322d2eec8da,64e702af6d57a321564976c6,,,,,,,sngl,resources/DB.BMP,resources/Empty.png,WildCard_Ex,-0.295572917,-0.0234375,1,0,0,1.1517,optionLeft,45,8920,4,31,0,31,0,1,,,,,,,,,,,,,,,,,,,,,,,,,,,,,,,,,,,,,,,
,,,,,,,,2023-08-24_08h15.03.102,HF_wild_card,2022.2.4,Win32,19.83103954,5d809e67bfa8460017d9c934,64e63663dbcaf322d2eec8da,64e702af6d57a321564976c6,,,,,,,decisionTrl,resources/DB.BMP,resources/DP.BMP,Door4,0.345052083,0.00390625,1,0,0,1.3734,optionRight,60,8980,4,32,0,32,0,1,,,,,,,,,,,,,,,,,,,,,,,,,,,,,,,,,,,,,,,
,,,,,,,,2023-08-24_08h15.03.102,HF_wild_card,2022.2.4,Win32,19.83103954,5d809e67bfa8460017d9c934,64e63663dbcaf322d2eec8da,64e702af6d57a321564976c6,,,,,,,decisionTrl,resources/DP.BMP,resources/DB.BMP,Door4,-0.3046875,-0.063802083,1,0,0,1.6687,optionLeft,60,9040,4,33,0,33,0,1,,,,,,,,,,,,,,,,,,,,,,,,,,,,,,,,,,,,,,,
,,,,,,,,2023-08-24_08h15.03.102,HF_wild_card,2022.2.4,Win32,19.83103954,5d809e67bfa8460017d9c934,64e63663dbcaf322d2eec8da,64e702af6d57a321564976c6,,,,,,,decisionTrl,resources/DP.BMP,resources/DR.BMP,Door3,0.278645833,0.00390625,1,0,0,2.0673,optionRight,70,9110,4,34,0,34,0,1,,,,,,,,,,,,,,,,,,,,,,,,,,,,,,,,,,,,,,,
,,,,,,,,2023-08-24_08h15.03.102,HF_wild_card,2022.2.4,Win32,19.83103954,5d809e67bfa8460017d9c934,64e63663dbcaf322d2eec8da,64e702af6d57a321564976c6,,,,,,,decisionTrl,resources/DG.BMP,resources/DBN.BMP,Door1,0.208333333,0.05078125,1,0,0,3.082,optionRight,30,9140,4,35,0,35,0,1,,,,,,,,,,,,,,,,,,,,,,,,,,,,,,,,,,,,,,,
,,,,,,,,2023-08-24_08h15.03.102,HF_wild_card,2022.2.4,Win32,19.83103954,5d809e67bfa8460017d9c934,64e63663dbcaf322d2eec8da,64e702af6d57a321564976c6,,,,,,,decisionTrl,resources/DBN.BMP,resources/DG.BMP,Door2,0.23046875,0.026041667,1,0,0,2.0436,optionRight,40,9180,4,36,0,36,0,1,,,,,,,,,,,,,,,,,,,,,,,,,,,,,,,,,,,,,,,
,,,,,,,,2023-08-24_08h15.03.102,HF_wild_card,2022.2.4,Win32,19.83103954,5d809e67bfa8460017d9c934,64e63663dbcaf322d2eec8da,64e702af6d57a321564976c6,,,,,,,decisionTrl,resources/DP.BMP,resources/DR.BMP,Door4,-0.3125,-0.015625,1,0,0,1.5603,optionLeft,60,9240,4,37,0,37,0,1,,,,,,,,,,,,,,,,,,,,,,,,,,,,,,,,,,,,,,,
,,,,,,,,2023-08-24_08h15.03.102,HF_wild_card,2022.2.4,Win32,19.83103954,5d809e67bfa8460017d9c934,64e63663dbcaf322d2eec8da,64e702af6d57a321564976c6,,,,,,,decisionTrl,resources/DG.BMP,resources/DBN.BMP,Door2,-0.334635417,-0.069010417,1,0,0,1.6626,optionLeft,40,9280,4,38,0,38,0,1,,,,,,,,,,,,,,,,,,,,,,,,,,,,,,,,,,,,,,,
,,,,,,,,2023-08-24_08h15.03.102,HF_wild_card,2022.2.4,Win32,19.83103954,5d809e67bfa8460017d9c934,64e63663dbcaf322d2eec8da,64e702af6d57a321564976c6,,,,,,,sngl,resources/DB.BMP,resources/Empty.png,WildCard_Ex,-0.315104167,-0.044270833,1,0,0,1.164,optionLeft,55,9335,4,39,0,39,0,1,,,,,,,,,,,,,,,,,,,,,,,,,,,,,,,,,,,,,,,
,,,,,,,,2023-08-24_08h15.03.102,HF_wild_card,2022.2.4,Win32,19.83103954,5d809e67bfa8460017d9c934,64e63663dbcaf322d2eec8da,64e702af6d57a321564976c6,,,,,,,ctch,resources/DP.BMP,resources/DBN.BMP,Door4,-0.3515625,-0.040364583,1,0,0,1.4644,optionLeft,80,9415,4,40,0,40,0,1,,,,,,,,,,,,,,,,,,,,,,,,,,,,,,,,,,,,,,,
,,,,,,,,2023-08-24_08h15.03.102,HF_wild_card,2022.2.4,Win32,19.83103954,5d809e67bfa8460017d9c934,64e63663dbcaf322d2eec8da,64e702af6d57a321564976c6,,,,,,,ctch,resources/DG.BMP,resources/DR.BMP,Door3,0.326822917,0.0234375,1,0,0,1.9468,optionRight,70,9485,4,41,0,41,0,1,,,,,,,,,,,,,,,,,,,,,,,,,,,,,,,,,,,,,,,
,,,,,,,,2023-08-24_08h15.03.102,HF_wild_card,2022.2.4,Win32,19.83103954,5d809e67bfa8460017d9c934,64e63663dbcaf322d2eec8da,64e702af6d57a321564976c6,,,,,,,decisionTrl,resources/DP.BMP,resources/DR.BMP,Door4,-0.295572917,-0.015625,1,0,0,1.8437,optionLeft,60,9545,4,42,0,42,0,1,,,,,,,,,,,,,,,,,,,,,,,,,,,,,,,,,,,,,,,
,,,,,,,,2023-08-24_08h15.03.102,HF_wild_card,2022.2.4,Win32,19.83103954,5d809e67bfa8460017d9c934,64e63663dbcaf322d2eec8da,64e702af6d57a321564976c6,,,,,,,decisionTrl,resources/DB.BMP,resources/DG.BMP,WildCard_Ex,-0.278645833,-0.024739583,1,0,0,1.8627,optionLeft,45,9590,4,43,0,43,0,1,,,,,,,,,,,,,,,,,,,,,,,,,,,,,,,,,,,,,,,
,,,,,,,,2023-08-24_08h15.03.102,HF_wild_card,2022.2.4,Win32,19.83103954,5d809e67bfa8460017d9c934,64e63663dbcaf322d2eec8da,64e702af6d57a321564976c6,,,,,,,,,,,,,,,,,,,,,,,,,,3,0,3,0,1,,,,,,,,,,,,,,,,,,,,,,,,,,,,,,,,,,
,,,,,,,,2023-08-24_08h15.03.102,HF_wild_card,2022.2.4,Win32,19.83103954,5d809e67bfa8460017d9c934,64e63663dbcaf322d2eec8da,64e702af6d57a321564976c6,,,,,,,sngl,resources/Empty.png,resources/DB.BMP,WildCard_Ex,0.41796875,-0.044270833,1,0,0,1.8003,optionRight,45,9635,5,0,0,0,0,1,,,,,,,,,,,,,,,,,,,,,,,,,,,,,,,,,,,,,,,
,,,,,,,,2023-08-24_08h15.03.102,HF_wild_card,2022.2.4,Win32,19.83103954,5d809e67bfa8460017d9c934,64e63663dbcaf322d2eec8da,64e702af6d57a321564976c6,,,,,,,ctch,resources/DP.BMP,resources/DBN.BMP,Door4,-0.399739583,-0.0390625,1,0,0,1.3028,optionLeft,80,9715,5,1,0,1,0,1,,,,,,,,,,,,,,,,,,,,,,,,,,,,,,,,,,,,,,,
,,,,,,,,2023-08-24_08h15.03.102,HF_wild_card,2022.2.4,Win32,19.83103954,5d809e67bfa8460017d9c934,64e63663dbcaf322d2eec8da,64e702af6d57a321564976c6,,,,,,,sngl,resources/Empty.png,resources/DP.BMP,Door4,0.401041667,0.067708333,1,0,0,1.1517,optionRight,60,9775,5,2,0,2,0,1,,,,,,,,,,,,,,,,,,,,,,,,,,,,,,,,,,,,,,,
,,,,,,,,2023-08-24_08h15.03.102,HF_wild_card,2022.2.4,Win32,19.83103954,5d809e67bfa8460017d9c934,64e63663dbcaf322d2eec8da,64e702af6d57a321564976c6,,,,,,,sngl,resources/DB.BMP,resources/Empty.png,WildCard_Ex,-0.283854167,-0.03125,1,0,0,1.1336,optionLeft,45,9820,5,3,0,3,0,1,,,,,,,,,,,,,,,,,,,,,,,,,,,,,,,,,,,,,,,
,,,,,,,,2023-08-24_08h15.03.102,HF_wild_card,2022.2.4,Win32,19.83103954,5d809e67bfa8460017d9c934,64e63663dbcaf322d2eec8da,64e702af6d57a321564976c6,,,,,,,decisionTrl,resources/DP.BMP,resources/DR.BMP,Door4,-0.467447917,-0.078125,1,0,0,1.4235,optionLeft,60,9880,5,4,0,4,0,1,,,,,,,,,,,,,,,,,,,,,,,,,,,,,,,,,,,,,,,
,,,,,,,,2023-08-24_08h15.03.102,HF_wild_card,2022.2.4,Win32,19.83103954,5d809e67bfa8460017d9c934,64e63663dbcaf322d2eec8da,64e702af6d57a321564976c6,,,,,,,decisionTrl,resources/DB.BMP,resources/DG.BMP,WildCard_Ex,-0.356770833,-0.088541667,1,0,0,1.4761,optionLeft,55,9935,5,5,0,5,0,1,,,,,,,,,,,,,,,,,,,,,,,,,,,,,,,,,,,,,,,
,,,,,,,,2023-08-24_08h15.03.102,HF_wild_card,2022.2.4,Win32,19.83103954,5d809e67bfa8460017d9c934,64e63663dbcaf322d2eec8da,64e702af6d57a321564976c6,,,,,,,decisionTrl,resources/DG.BMP,resources/DB.BMP,WildCard_Ex,0.321614583,0.036458333,1,0,0,1.6257,optionRight,45,9980,5,6,0,6,0,1,,,,,,,,,,,,,,,,,,,,,,,,,,,,,,,,,,,,,,,
,,,,,,,,2023-08-24_08h15.03.102,HF_wild_card,2022.2.4,Win32,19.83103954,5d809e67bfa8460017d9c934,64e63663dbcaf322d2eec8da,64e702af6d57a321564976c6,,,,,,,sngl,resources/DP.BMP,resources/Empty.png,Door4,-0.26171875,-0.020833333,1,0,0,1.2182,optionLeft,80,10060,5,7,0,7,0,1,,,,,,,,,,,,,,,,,,,,,,,,,,,,,,,,,,,,,,,
,,,,,,,,2023-08-24_08h15.03.102,HF_wild_card,2022.2.4,Win32,19.83103954,5d809e67bfa8460017d9c934,64e63663dbcaf322d2eec8da,64e702af6d57a321564976c6,,,,,,,ctch,resources/DR.BMP,resources/DG.BMP,Door3,-0.294270833,-0.010416667,1,0,0,1.7354,optionLeft,70,10130,5,8,0,8,0,1,,,,,,,,,,,,,,,,,,,,,,,,,,,,,,,,,,,,,,,
,,,,,,,,2023-08-24_08h15.03.102,HF_wild_card,2022.2.4,Win32,19.83103954,5d809e67bfa8460017d9c934,64e63663dbcaf322d2eec8da,64e702af6d57a321564976c6,,,,,,,decisionTrl,resources/DR.BMP,resources/DP.BMP,Door4,0.203125,0.024739583,1,0,0,2.6297,optionRight,60,10190,5,9,0,9,0,1,,,,,,,,,,,,,,,,,,,,,,,,,,,,,,,,,,,,,,,
,,,,,,,,2023-08-24_08h15.03.102,HF_wild_card,2022.2.4,Win32,19.83103954,5d809e67bfa8460017d9c934,64e63663dbcaf322d2eec8da,64e702af6d57a321564976c6,,,,,,,decisionTrl,resources/DBN.BMP,resources/DG.BMP,Door2,0.223958333,0.088541667,1,0,0,2.9112,optionRight,20,10210,5,10,0,10,0,1,,,,,,,,,,,,,,,,,,,,,,,,,,,,,,,,,,,,,,,
,,,,,,,,2023-08-24_08h15.03.102,HF_wild_card,2022.2.4,Win32,19.83103954,5d809e67bfa8460017d9c934,64e63663dbcaf322d2eec8da,64e702af6d57a321564976c6,,,,,,,sngl,resources/DG.BMP,resources/Empty.png,Door2,-0.1953125,-0.028645833,1,0,0,1.2044,optionLeft,40,10250,5,11,0,11,0,1,,,,,,,,,,,,,,,,,,,,,,,,,,,,,,,,,,,,,,,
,,,,,,,,2023-08-24_08h15.03.102,HF_wild_card,2022.2.4,Win32,19.83103954,5d809e67bfa8460017d9c934,64e63663dbcaf322d2eec8da,64e702af6d57a321564976c6,,,,,,,sngl,resources/DBN.BMP,resources/Empty.png,Door1,-0.255208333,-0.026041667,1,0,0,2.3958,optionLeft,30,10280,5,12,0,12,0,1,,,,,,,,,,,,,,,,,,,,,,,,,,,,,,,,,,,,,,,
,,,,,,,,2023-08-24_08h15.03.102,HF_wild_card,2022.2.4,Win32,19.83103954,5d809e67bfa8460017d9c934,64e63663dbcaf322d2eec8da,64e702af6d57a321564976c6,,,,,,,sngl,resources/Empty.png,resources/DR.BMP,Door3,0.294270833,0.0546875,1,0,0,1.1493,optionRight,70,10350,5,13,0,13,0,1,,,,,,,,,,,,,,,,,,,,,,,,,,,,,,,,,,,,,,,
,,,,,,,,2023-08-24_08h15.03.102,HF_wild_card,2022.2.4,Win32,19.83103954,5d809e67bfa8460017d9c934,64e63663dbcaf322d2eec8da,64e702af6d57a321564976c6,,,,,,,ctch,resources/DG.BMP,resources/DR.BMP,Door3,0.184895833,0.020833333,1,0,0,2.5792,optionRight,70,10420,5,14,0,14,0,1,,,,,,,,,,,,,,,,,,,,,,,,,,,,,,,,,,,,,,,
,,,,,,,,2023-08-24_08h15.03.102,HF_wild_card,2022.2.4,Win32,19.83103954,5d809e67bfa8460017d9c934,64e63663dbcaf322d2eec8da,64e702af6d57a321564976c6,,,,,,,decisionTrl,resources/DBN.BMP,resources/DB.BMP,WildCard_Ex,0.309895833,0.009114583,1,0,0,1.3536,optionRight,45,10465,5,15,0,15,0,1,,,,,,,,,,,,,,,,,,,,,,,,,,,,,,,,,,,,,,,
,,,,,,,,2023-08-24_08h15.03.102,HF_wild_card,2022.2.4,Win32,19.83103954,5d809e67bfa8460017d9c934,64e63663dbcaf322d2eec8da,64e702af6d57a321564976c6,,,,,,,sngl,resources/Empty.png,resources/DB.BMP,WildCard_Ex,0.2734375,0.044270833,1,0,0,1.0729,optionRight,55,10520,5,16,0,16,0,1,,,,,,,,,,,,,,,,,,,,,,,,,,,,,,,,,,,,,,,
,,,,,,,,2023-08-24_08h15.03.102,HF_wild_card,2022.2.4,Win32,19.83103954,5d809e67bfa8460017d9c934,64e63663dbcaf322d2eec8da,64e702af6d57a321564976c6,,,,,,,decisionTrl,resources/DG.BMP,resources/DBN.BMP,Door2,-0.294270833,-0.022135417,1,0,0,1.4404,optionLeft,40,10560,5,17,0,17,0,1,,,,,,,,,,,,,,,,,,,,,,,,,,,,,,,,,,,,,,,
,,,,,,,,2023-08-24_08h15.03.102,HF_wild_card,2022.2.4,Win32,19.83103954,5d809e67bfa8460017d9c934,64e63663dbcaf322d2eec8da,64e702af6d57a321564976c6,,,,,,,ctch,resources/DP.BMP,resources/DBN.BMP,Door4,-0.356770833,-0.037760417,1,0,0,1.3716,optionLeft,80,10640,5,18,0,18,0,1,,,,,,,,,,,,,,,,,,,,,,,,,,,,,,,,,,,,,,,
,,,,,,,,2023-08-24_08h15.03.102,HF_wild_card,2022.2.4,Win32,19.83103954,5d809e67bfa8460017d9c934,64e63663dbcaf322d2eec8da,64e702af6d57a321564976c6,,,,,,,sngl,resources/DR.BMP,resources/Empty.png,Door3,-0.30859375,-0.037760417,1,0,0,1.2201,optionLeft,70,10710,5,19,0,19,0,1,,,,,,,,,,,,,,,,,,,,,,,,,,,,,,,,,,,,,,,
,,,,,,,,2023-08-24_08h15.03.102,HF_wild_card,2022.2.4,Win32,19.83103954,5d809e67bfa8460017d9c934,64e63663dbcaf322d2eec8da,64e702af6d57a321564976c6,,,,,,,decisionTrl,resources/DG.BMP,resources/DBN.BMP,Door1,0.256510417,0.0390625,1,0,0,3.0821,optionRight,30,10740,5,20,0,20,0,1,,,,,,,,,,,,,,,,,,,,,,,,,,,,,,,,,,,,,,,
,,,,,,,,2023-08-24_08h15.03.102,HF_wild_card,2022.2.4,Win32,19.83103954,5d809e67bfa8460017d9c934,64e63663dbcaf322d2eec8da,64e702af6d57a321564976c6,,,,,,,decisionTrl,resources/DG.BMP,resources/DBN.BMP,Door1,0.225260417,0.046875,1,0,0,1.4844,optionRight,30,10770,5,21,0,21,0,1,,,,,,,,,,,,,,,,,,,,,,,,,,,,,,,,,,,,,,,
,,,,,,,,2023-08-24_08h15.03.102,HF_wild_card,2022.2.4,Win32,19.83103954,5d809e67bfa8460017d9c934,64e63663dbcaf322d2eec8da,64e702af6d57a321564976c6,,,,,,,decisionTrl,resources/DG.BMP,resources/DBN.BMP,Door1,0.256510417,0.071614583,1,0,0,1.2626,optionRight,30,10800,5,22,0,22,0,1,,,,,,,,,,,,,,,,,,,,,,,,,,,,,,,,,,,,,,,
,,,,,,,,2023-08-24_08h15.03.102,HF_wild_card,2022.2.4,Win32,19.83103954,5d809e67bfa8460017d9c934,64e63663dbcaf322d2eec8da,64e702af6d57a321564976c6,,,,,,,ctch,resources/DBN.BMP,resources/DP.BMP,Door4,0.34765625,0.033854167,1,0,0,1.4442,optionRight,80,10880,5,23,0,23,0,1,,,,,,,,,,,,,,,,,,,,,,,,,,,,,,,,,,,,,,,
,,,,,,,,2023-08-24_08h15.03.102,HF_wild_card,2022.2.4,Win32,19.83103954,5d809e67bfa8460017d9c934,64e63663dbcaf322d2eec8da,64e702af6d57a321564976c6,,,,,,,sngl,resources/DB.BMP,resources/Empty.png,WildCard_Ex,-0.319010417,-0.037760417,1,0,0,1.3242,optionLeft,55,10935,5,24,0,24,0,1,,,,,,,,,,,,,,,,,,,,,,,,,,,,,,,,,,,,,,,
,,,,,,,,2023-08-24_08h15.03.102,HF_wild_card,2022.2.4,Win32,19.83103954,5d809e67bfa8460017d9c934,64e63663dbcaf322d2eec8da,64e702af6d57a321564976c6,,,,,,,decisionTrl,resources/DP.BMP,resources/DR.BMP,Door3,0.239583333,0.053385417,1,0,0,2.9618,optionRight,70,11005,5,25,0,25,0,1,,,,,,,,,,,,,,,,,,,,,,,,,,,,,,,,,,,,,,,
,,,,,,,,2023-08-24_08h15.03.102,HF_wild_card,2022.2.4,Win32,19.83103954,5d809e67bfa8460017d9c934,64e63663dbcaf322d2eec8da,64e702af6d57a321564976c6,,,,,,,decisionTrl,resources/DP.BMP,resources/DR.BMP,Door3,0.209635417,0.0234375,1,0,0,1.9581,optionRight,70,11075,5,26,0,26,0,1,,,,,,,,,,,,,,,,,,,,,,,,,,,,,,,,,,,,,,,
,,,,,,,,2023-08-24_08h15.03.102,HF_wild_card,2022.2.4,Win32,19.83103954,5d809e67bfa8460017d9c934,64e63663dbcaf322d2eec8da,64e702af6d57a321564976c6,,,,,,,decisionTrl,resources/DR.BMP,resources/DP.BMP,Door3,-0.334635417,-0.026041667,1,0,0,1.9577,optionLeft,70,11145,5,27,0,27,0,1,,,,,,,,,,,,,,,,,,,,,,,,,,,,,,,,,,,,,,,
,,,,,,,,2023-08-24_08h15.03.102,HF_wild_card,2022.2.4,Win32,19.83103954,5d809e67bfa8460017d9c934,64e63663dbcaf322d2eec8da,64e702af6d57a321564976c6,,,,,,,decisionTrl,resources/DP.BMP,resources/DR.BMP,Door3,0.205729167,0.014322917,1,0,0,1.7823,optionRight,70,11215,5,28,0,28,0,1,,,,,,,,,,,,,,,,,,,,,,,,,,,,,,,,,,,,,,,
,,,,,,,,2023-08-24_08h15.03.102,HF_wild_card,2022.2.4,Win32,19.83103954,5d809e67bfa8460017d9c934,64e63663dbcaf322d2eec8da,64e702af6d57a321564976c6,,,,,,,decisionTrl,resources/DB.BMP,resources/DP.BMP,Door4,0.208333333,0.0234375,1,0,0,2.0697,optionRight,80,11295,5,29,0,29,0,1,,,,,,,,,,,,,,,,,,,,,,,,,,,,,,,,,,,,,,,
,,,,,,,,2023-08-24_08h15.03.102,HF_wild_card,2022.2.4,Win32,19.83103954,5d809e67bfa8460017d9c934,64e63663dbcaf322d2eec8da,64e702af6d57a321564976c6,,,,,,,decisionTrl,resources/DR.BMP,resources/DP.BMP,Door4,0.2578125,-0.00390625,1,0,0,1.8623,optionRight,80,11375,5,30,0,30,0,1,,,,,,,,,,,,,,,,,,,,,,,,,,,,,,,,,,,,,,,
,,,,,,,,2023-08-24_08h15.03.102,HF_wild_card,2022.2.4,Win32,19.83103954,5d809e67bfa8460017d9c934,64e63663dbcaf322d2eec8da,64e702af6d57a321564976c6,,,,,,,decisionTrl,resources/DBN.BMP,resources/DG.BMP,Door1,-0.354166667,-0.0625,1,0,0,2.1936,optionLeft,30,11405,5,31,0,31,0,1,,,,,,,,,,,,,,,,,,,,,,,,,,,,,,,,,,,,,,,
,,,,,,,,2023-08-24_08h15.03.102,HF_wild_card,2022.2.4,Win32,19.83103954,5d809e67bfa8460017d9c934,64e63663dbcaf322d2eec8da,64e702af6d57a321564976c6,,,,,,,sngl,resources/Empty.png,resources/DG.BMP,Door2,0.200520833,0.041666667,1,0,0,1.5565,optionRight,20,11425,5,32,0,32,0,1,,,,,,,,,,,,,,,,,,,,,,,,,,,,,,,,,,,,,,,
,,,,,,,,2023-08-24_08h15.03.102,HF_wild_card,2022.2.4,Win32,19.83103954,5d809e67bfa8460017d9c934,64e63663dbcaf322d2eec8da,64e702af6d57a321564976c6,,,,,,,decisionTrl,resources/DR.BMP,resources/DP.BMP,Door3,-0.317708333,-0.03515625,1,0,0,2.7006,optionLeft,70,11495,5,33,0,33,0,1,,,,,,,,,,,,,,,,,,,,,,,,,,,,,,,,,,,,,,,
,,,,,,,,2023-08-24_08h15.03.102,HF_wild_card,2022.2.4,Win32,19.83103954,5d809e67bfa8460017d9c934,64e63663dbcaf322d2eec8da,64e702af6d57a321564976c6,,,,,,,ctch,resources/DR.BMP,resources/DG.BMP,Door3,-0.265625,-0.01171875,1,0,0,2.1801,optionLeft,70,11565,5,34,0,34,0,1,,,,,,,,,,,,,,,,,,,,,,,,,,,,,,,,,,,,,,,
,,,,,,,,2023-08-24_08h15.03.102,HF_wild_card,2022.2.4,Win32,19.83103954,5d809e67bfa8460017d9c934,64e63663dbcaf322d2eec8da,64e702af6d57a321564976c6,,,,,,,decisionTrl,resources/DBN.BMP,resources/DG.BMP,Door1,-0.227864583,-0.015625,1,0,0,2.2936,optionLeft,30,11595,5,35,0,35,0,1,,,,,,,,,,,,,,,,,,,,,,,,,,,,,,,,,,,,,,,
,,,,,,,,2023-08-24_08h15.03.102,HF_wild_card,2022.2.4,Win32,19.83103954,5d809e67bfa8460017d9c934,64e63663dbcaf322d2eec8da,64e702af6d57a321564976c6,,,,,,,decisionTrl,resources/DBN.BMP,resources/DG.BMP,Door1,-0.247395833,0,1,0,0,1.2445,optionLeft,30,11625,5,36,0,36,0,1,,,,,,,,,,,,,,,,,,,,,,,,,,,,,,,,,,,,,,,
,,,,,,,,2023-08-24_08h15.03.102,HF_wild_card,2022.2.4,Win32,19.83103954,5d809e67bfa8460017d9c934,64e63663dbcaf322d2eec8da,64e702af6d57a321564976c6,,,,,,,sngl,resources/Empty.png,resources/DBN.BMP,Door1,0.264322917,0.045572917,1,0,0,1.3803,optionRight,30,11655,5,37,0,37,0,1,,,,,,,,,,,,,,,,,,,,,,,,,,,,,,,,,,,,,,,
,,,,,,,,2023-08-24_08h15.03.102,HF_wild_card,2022.2.4,Win32,19.83103954,5d809e67bfa8460017d9c934,64e63663dbcaf322d2eec8da,64e702af6d57a321564976c6,,,,,,,decisionTrl,resources/DR.BMP,resources/DB.BMP,Door3,-0.234375,0.01953125,1,0,0,1.9183,optionLeft,70,11725,5,38,0,38,0,1,,,,,,,,,,,,,,,,,,,,,,,,,,,,,,,,,,,,,,,
,,,,,,,,2023-08-24_08h15.03.102,HF_wild_card,2022.2.4,Win32,19.83103954,5d809e67bfa8460017d9c934,64e63663dbcaf322d2eec8da,64e702af6d57a321564976c6,,,,,,,decisionTrl,resources/DB.BMP,resources/DR.BMP,Door3,0.360677083,0.020833333,1,0,0,1.8951,optionRight,70,11795,5,39,0,39,0,1,,,,,,,,,,,,,,,,,,,,,,,,,,,,,,,,,,,,,,,
,,,,,,,,2023-08-24_08h15.03.102,HF_wild_card,2022.2.4,Win32,19.83103954,5d809e67bfa8460017d9c934,64e63663dbcaf322d2eec8da,64e702af6d57a321564976c6,,,,,,,decisionTrl,resources/DB.BMP,resources/DBN.BMP,WildCard_Ex,-0.256510417,-0.020833333,1,0,0,1.8644,optionLeft,45,11840,5,40,0,40,0,1,,,,,,,,,,,,,,,,,,,,,,,,,,,,,,,,,,,,,,,
,,,,,,,,2023-08-24_08h15.03.102,HF_wild_card,2022.2.4,Win32,19.83103954,5d809e67bfa8460017d9c934,64e63663dbcaf322d2eec8da,64e702af6d57a321564976c6,,,,,,,ctch,resources/DG.BMP,resources/DR.BMP,Door3,0.30078125,0.015625,1,0,0,1.8552,optionRight,70,11910,5,41,0,41,0,1,,,,,,,,,,,,,,,,,,,,,,,,,,,,,,,,,,,,,,,
,,,,,,,,2023-08-24_08h15.03.102,HF_wild_card,2022.2.4,Win32,19.83103954,5d809e67bfa8460017d9c934,64e63663dbcaf322d2eec8da,64e702af6d57a321564976c6,,,,,,,ctch,resources/DBN.BMP,resources/DP.BMP,Door4,0.311197917,0.02734375,1,0,0,1.3716,optionRight,60,11970,5,42,0,42,0,1,,,,,,,,,,,,,,,,,,,,,,,,,,,,,,,,,,,,,,,
,,,,,,,,2023-08-24_08h15.03.102,HF_wild_card,2022.2.4,Win32,19.83103954,5d809e67bfa8460017d9c934,64e63663dbcaf322d2eec8da,64e702af6d57a321564976c6,,,,,,,decisionTrl,resources/DP.BMP,resources/DB.BMP,Door4,-0.359375,-0.03125,1,0,0,1.824,optionLeft,60,12030,5,43,0,43,0,1,,,,,,,,,,,,,,,,,,,,,,,,,,,,,,,,,,,,,,,
,,,,,,,,2023-08-24_08h15.03.102,HF_wild_card,2022.2.4,Win32,19.83103954,5d809e67bfa8460017d9c934,64e63663dbcaf322d2eec8da,64e702af6d57a321564976c6,,,,,,,,,,,,,,,,,,,,,,,,,,4,0,4,0,1,,,,,,,,,,,,,,,,,,,,,,,,,,,,,,,,,,
,,,,,,,,2023-08-24_08h15.03.102,HF_wild_card,2022.2.4,Win32,19.83103954,5d809e67bfa8460017d9c934,64e63663dbcaf322d2eec8da,64e702af6d57a321564976c6,,,,,,,decisionTrl,resources/DBN.BMP,resources/DG.BMP,Door1,-0.205729167,-0.127604167,1,0,0,2.3143,optionLeft,30,12060,6,0,0,0,0,1,,,,,,,,,,,,,,,,,,,,,,,,,,,,,,,,,,,,,,,
,,,,,,,,2023-08-24_08h15.03.102,HF_wild_card,2022.2.4,Win32,19.83103954,5d809e67bfa8460017d9c934,64e63663dbcaf322d2eec8da,64e702af6d57a321564976c6,,,,,,,decisionTrl,resources/DB.BMP,resources/DBN.BMP,WildCard_Ex,-0.342447917,-0.032552083,1,0,0,1.3878,optionLeft,45,12105,6,1,0,1,0,1,,,,,,,,,,,,,,,,,,,,,,,,,,,,,,,,,,,,,,,
,,,,,,,,2023-08-24_08h15.03.102,HF_wild_card,2022.2.4,Win32,19.83103954,5d809e67bfa8460017d9c934,64e63663dbcaf322d2eec8da,64e702af6d57a321564976c6,,,,,,,sngl,resources/DR.BMP,resources/Empty.png,Door3,-0.321614583,-0.0234375,1,0,0,1.6553,optionLeft,70,12175,6,2,0,2,0,1,,,,,,,,,,,,,,,,,,,,,,,,,,,,,,,,,,,,,,,
,,,,,,,,2023-08-24_08h15.03.102,HF_wild_card,2022.2.4,Win32,19.83103954,5d809e67bfa8460017d9c934,64e63663dbcaf322d2eec8da,64e702af6d57a321564976c6,,,,,,,decisionTrl,resources/DG.BMP,resources/DBN.BMP,Door1,0.21484375,0.052083333,1,0,0,2.0256,optionRight,30,12205,6,3,0,3,0,1,,,,,,,,,,,,,,,,,,,,,,,,,,,,,,,,,,,,,,,
,,,,,,,,2023-08-24_08h15.03.102,HF_wild_card,2022.2.4,Win32,19.83103954,5d809e67bfa8460017d9c934,64e63663dbcaf322d2eec8da,64e702af6d57a321564976c6,,,,,,,decisionTrl,resources/DR.BMP,resources/DP.BMP,Door3,-0.256510417,0.020833333,1,0,0,4.7428,optionLeft,70,12275,6,4,0,4,0,1,,,,,,,,,,,,,,,,,,,,,,,,,,,,,,,,,,,,,,,
,,,,,,,,2023-08-24_08h15.03.102,HF_wild_card,2022.2.4,Win32,19.83103954,5d809e67bfa8460017d9c934,64e63663dbcaf322d2eec8da,64e702af6d57a321564976c6,,,,,,,decisionTrl,resources/DP.BMP,resources/DB.BMP,Door4,-0.233072917,-0.041666667,1,0,0,2.0579,optionLeft,80,12355,6,5,0,5,0,1,,,,,,,,,,,,,,,,,,,,,,,,,,,,,,,,,,,,,,,
,,,,,,,,2023-08-24_08h15.03.102,HF_wild_card,2022.2.4,Win32,19.83103954,5d809e67bfa8460017d9c934,64e63663dbcaf322d2eec8da,64e702af6d57a321564976c6,,,,,,,sngl,resources/Empty.png,resources/DR.BMP,Door3,0.27734375,0.01953125,1,0,0,1.4016,optionRight,70,12425,6,6,0,6,0,1,,,,,,,,,,,,,,,,,,,,,,,,,,,,,,,,,,,,,,,
,,,,,,,,2023-08-24_08h15.03.102,HF_wild_card,2022.2.4,Win32,19.83103954,5d809e67bfa8460017d9c934,64e63663dbcaf322d2eec8da,64e702af6d57a321564976c6,,,,,,,sngl,resources/Empty.png,resources/DB.BMP,WildCard_Ex,0.259114583,0.02734375,1,0,0,1.3479,optionRight,45,12470,6,7,0,7,0,1,,,,,,,,,,,,,,,,,,,,,,,,,,,,,,,,,,,,,,,
,,,,,,,,2023-08-24_08h15.03.102,HF_wild_card,2022.2.4,Win32,19.83103954,5d809e67bfa8460017d9c934,64e63663dbcaf322d2eec8da,64e702af6d57a321564976c6,,,,,,,decisionTrl,resources/DBN.BMP,resources/DB.BMP,WildCard_Ex,0.260416667,0.032552083,1,0,0,1.3092,optionRight,45,12515,6,8,0,8,0,1,,,,,,,,,,,,,,,,,,,,,,,,,,,,,,,,,,,,,,,
,,,,,,,,2023-08-24_08h15.03.102,HF_wild_card,2022.2.4,Win32,19.83103954,5d809e67bfa8460017d9c934,64e63663dbcaf322d2eec8da,64e702af6d57a321564976c6,,,,,,,sngl,resources/Empty.png,resources/DG.BMP,Door2,0.223958333,0.026041667,1,0,0,2.4329,optionRight,40,12555,6,9,0,9,0,1,,,,,,,,,,,,,,,,,,,,,,,,,,,,,,,,,,,,,,,
,,,,,,,,2023-08-24_08h15.03.102,HF_wild_card,2022.2.4,Win32,19.83103954,5d809e67bfa8460017d9c934,64e63663dbcaf322d2eec8da,64e702af6d57a321564976c6,,,,,,,ctch,resources/DBN.BMP,resources/DP.BMP,Door4,0.24609375,0.036458333,1,0,0,1.2737,optionRight,60,12615,6,10,0,10,0,1,,,,,,,,,,,,,,,,,,,,,,,,,,,,,,,,,,,,,,,
,,,,,,,,2023-08-24_08h15.03.102,HF_wild_card,2022.2.4,Win32,19.83103954,5d809e67bfa8460017d9c934,64e63663dbcaf322d2eec8da,64e702af6d57a321564976c6,,,,,,,sngl,resources/Empty.png,resources/DBN.BMP,Door1,0.28125,0.065104167,1,0,0,1.4306,optionRight,30,12645,6,11,0,11,0,1,,,,,,,,,,,,,,,,,,,,,,,,,,,,,,,,,,,,,,,
,,,,,,,,2023-08-24_08h15.03.102,HF_wild_card,2022.2.4,Win32,19.83103954,5d809e67bfa8460017d9c934,64e63663dbcaf322d2eec8da,64e702af6d57a321564976c6,,,,,,,ctch,resources/DR.BMP,resources/DG.BMP,Door3,-0.365885417,-0.041666667,1,0,0,1.786,optionLeft,70,12715,6,12,0,12,0,1,,,,,,,,,,,,,,,,,,,,,,,,,,,,,,,,,,,,,,,
,,,,,,,,2023-08-24_08h15.03.102,HF_wild_card,2022.2.4,Win32,19.83103954,5d809e67bfa8460017d9c934,64e63663dbcaf322d2eec8da,64e702af6d57a321564976c6,,,,,,,decisionTrl,resources/DG.BMP,resources/DBN.BMP,Door1,0.17578125,0.052083333,1,0,0,2.2969,optionRight,30,12745,6,13,0,13,0,1,,,,,,,,,,,,,,,,,,,,,,,,,,,,,,,,,,,,,,,
,,,,,,,,2023-08-24_08h15.03.102,HF_wild_card,2022.2.4,Win32,19.83103954,5d809e67bfa8460017d9c934,64e63663dbcaf322d2eec8da,64e702af6d57a321564976c6,,,,,,,sngl,resources/DBN.BMP,resources/Empty.png,Door1,-0.29296875,-0.020833333,1,0,0,1.2523,optionLeft,30,12775,6,14,0,14,0,1,,,,,,,,,,,,,,,,,,,,,,,,,,,,,,,,,,,,,,,
,,,,,,,,2023-08-24_08h15.03.102,HF_wild_card,2022.2.4,Win32,19.83103954,5d809e67bfa8460017d9c934,64e63663dbcaf322d2eec8da,64e702af6d57a321564976c6,,,,,,,decisionTrl,resources/DBN.BMP,resources/DG.BMP,Door2,0.256510417,0.020833333,1,0,0,1.3598,optionRight,40,12815,6,15,0,15,0,1,,,,,,,,,,,,,,,,,,,,,,,,,,,,,,,,,,,,,,,
,,,,,,,,2023-08-24_08h15.03.102,HF_wild_card,2022.2.4,Win32,19.83103954,5d809e67bfa8460017d9c934,64e63663dbcaf322d2eec8da,64e702af6d57a321564976c6,,,,,,,decisionTrl,resources/DP.BMP,resources/DR.BMP,Door4,-0.217447917,-0.020833333,1,0,0,2.4825,optionLeft,60,12875,6,16,0,16,0,1,,,,,,,,,,,,,,,,,,,,,,,,,,,,,,,,,,,,,,,
,,,,,,,,2023-08-24_08h15.03.102,HF_wild_card,2022.2.4,Win32,19.83103954,5d809e67bfa8460017d9c934,64e63663dbcaf322d2eec8da,64e702af6d57a321564976c6,,,,,,,ctch,resources/DG.BMP,resources/DR.BMP,Door3,0.209635417,-0.005208333,1,0,0,1.618,optionRight,70,12945,6,17,0,17,0,1,,,,,,,,,,,,,,,,,,,,,,,,,,,,,,,,,,,,,,,
,,,,,,,,2023-08-24_08h15.03.102,HF_wild_card,2022.2.4,Win32,19.83103954,5d809e67bfa8460017d9c934,64e63663dbcaf322d2eec8da,64e702af6d57a321564976c6,,,,,,,ctch,resources/DBN.BMP,resources/DP.BMP,Door4,0.165364583,0.00390625,1,0,0,1.2732,optionRight,80,13025,6,18,0,18,0,1,,,,,,,,,,,,,,,,,,,,,,,,,,,,,,,,,,,,,,,
,,,,,,,,2023-08-24_08h15.03.102,HF_wild_card,2022.2.4,Win32,19.83103954,5d809e67bfa8460017d9c934,64e63663dbcaf322d2eec8da,64e702af6d57a321564976c6,,,,,,,sngl,resources/Empty.png,resources/DB.BMP,WildCard_Ex,0.205729167,0.020833333,1,0,0,1.3178,optionRight,55,13080,6,19,0,19,0,1,,,,,,,,,,,,,,,,,,,,,,,,,,,,,,,,,,,,,,,
,,,,,,,,2023-08-24_08h15.03.102,HF_wild_card,2022.2.4,Win32,19.83103954,5d809e67bfa8460017d9c934,64e63663dbcaf322d2eec8da,64e702af6d57a321564976c6,,,,,,,decisionTrl,resources/DB.BMP,resources/DR.BMP,Door3,0.264322917,0.041666667,1,0,0,1.9298,optionRight,70,13150,6,20,0,20,0,1,,,,,,,,,,,,,,,,,,,,,,,,,,,,,,,,,,,,,,,
,,,,,,,,2023-08-24_08h15.03.102,HF_wild_card,2022.2.4,Win32,19.83103954,5d809e67bfa8460017d9c934,64e63663dbcaf322d2eec8da,64e702af6d57a321564976c6,,,,,,,decisionTrl,resources/DR.BMP,resources/DP.BMP,Door4,0.216145833,0.02734375,1,0,0,1.1591,optionRight,60,13210,6,21,0,21,0,1,,,,,,,,,,,,,,,,,,,,,,,,,,,,,,,,,,,,,,,
,,,,,,,,2023-08-24_08h15.03.102,HF_wild_card,2022.2.4,Win32,19.83103954,5d809e67bfa8460017d9c934,64e63663dbcaf322d2eec8da,64e702af6d57a321564976c6,,,,,,,sngl,resources/DG.BMP,resources/Empty.png,Door2,-0.325520833,-0.0390625,1,0,0,1.5702,optionLeft,20,13230,6,22,0,22,0,1,,,,,,,,,,,,,,,,,,,,,,,,,,,,,,,,,,,,,,,
,,,,,,,,2023-08-24_08h15.03.102,HF_wild_card,2022.2.4,Win32,19.83103954,5d809e67bfa8460017d9c934,64e63663dbcaf322d2eec8da,64e702af6d57a321564976c6,,,,,,,ctch,resources/DG.BMP,resources/DR.BMP,Door3,0.213541667,0.020833333,1,0,0,1.3569,optionRight,70,13300,6,23,0,23,0,1,,,,,,,,,,,,,,,,,,,,,,,,,,,,,,,,,,,,,,,
,,,,,,,,2023-08-24_08h15.03.102,HF_wild_card,2022.2.4,Win32,19.83103954,5d809e67bfa8460017d9c934,64e63663dbcaf322d2eec8da,64e702af6d57a321564976c6,,,,,,,decisionTrl,resources/DG.BMP,resources/DBN.BMP,Door1,0.23046875,0.076822917,1,0,0,2.3608,optionRight,30,13330,6,24,0,24,0,1,,,,,,,,,,,,,,,,,,,,,,,,,,,,,,,,,,,,,,,
,,,,,,,,2023-08-24_08h15.03.102,HF_wild_card,2022.2.4,Win32,19.83103954,5d809e67bfa8460017d9c934,64e63663dbcaf322d2eec8da,64e702af6d57a321564976c6,,,,,,,decisionTrl,resources/DBN.BMP,resources/DG.BMP,Door2,0.140625,0.041666667,1,0,0,2.237,optionRight,40,13370,6,25,0,25,0,1,,,,,,,,,,,,,,,,,,,,,,,,,,,,,,,,,,,,,,,
,,,,,,,,2023-08-24_08h15.03.102,HF_wild_card,2022.2.4,Win32,19.83103954,5d809e67bfa8460017d9c934,64e63663dbcaf322d2eec8da,64e702af6d57a321564976c6,,,,,,,decisionTrl,resources/DR.BMP,resources/DP.BMP,Door4,0.266927083,0.024739583,1,0,0,1.7315,optionRight,80,13450,6,26,0,26,0,1,,,,,,,,,,,,,,,,,,,,,,,,,,,,,,,,,,,,,,,
,,,,,,,,2023-08-24_08h15.03.102,HF_wild_card,2022.2.4,Win32,19.83103954,5d809e67bfa8460017d9c934,64e63663dbcaf322d2eec8da,64e702af6d57a321564976c6,,,,,,,decisionTrl,resources/DP.BMP,resources/DR.BMP,Door3,0.178385417,0.0078125,1,0,0,1.5351,optionRight,70,13520,6,27,0,27,0,1,,,,,,,,,,,,,,,,,,,,,,,,,,,,,,,,,,,,,,,
,,,,,,,,2023-08-24_08h15.03.102,HF_wild_card,2022.2.4,Win32,19.83103954,5d809e67bfa8460017d9c934,64e63663dbcaf322d2eec8da,64e702af6d57a321564976c6,,,,,,,decisionTrl,resources/DG.BMP,resources/DBN.BMP,Door1,0.209635417,0.065104167,1,0,0,1.9354,optionRight,30,13550,6,28,0,28,0,1,,,,,,,,,,,,,,,,,,,,,,,,,,,,,,,,,,,,,,,
,,,,,,,,2023-08-24_08h15.03.102,HF_wild_card,2022.2.4,Win32,19.83103954,5d809e67bfa8460017d9c934,64e63663dbcaf322d2eec8da,64e702af6d57a321564976c6,,,,,,,ctch,resources/DP.BMP,resources/DBN.BMP,Door4,-0.239583333,-0.01171875,1,0,0,1.7624,optionLeft,60,13610,6,29,0,29,0,1,,,,,,,,,,,,,,,,,,,,,,,,,,,,,,,,,,,,,,,
,,,,,,,,2023-08-24_08h15.03.102,HF_wild_card,2022.2.4,Win32,19.83103954,5d809e67bfa8460017d9c934,64e63663dbcaf322d2eec8da,64e702af6d57a321564976c6,,,,,,,decisionTrl,resources/DP.BMP,resources/DR.BMP,Door3,0.122395833,0.018229167,1,0,0,3.5361,optionRight,70,13680,6,30,0,30,0,1,,,,,,,,,,,,,,,,,,,,,,,,,,,,,,,,,,,,,,,
,,,,,,,,2023-08-24_08h15.03.102,HF_wild_card,2022.2.4,Win32,19.83103954,5d809e67bfa8460017d9c934,64e63663dbcaf322d2eec8da,64e702af6d57a321564976c6,,,,,,,decisionTrl,resources/DR.BMP,resources/DB.BMP,Door3,-0.244791667,0.006510417,1,0,0,2.0948,optionLeft,70,13750,6,31,0,31,0,1,,,,,,,,,,,,,,,,,,,,,,,,,,,,,,,,,,,,,,,
,,,,,,,,2023-08-24_08h15.03.102,HF_wild_card,2022.2.4,Win32,19.83103954,5d809e67bfa8460017d9c934,64e63663dbcaf322d2eec8da,64e702af6d57a321564976c6,,,,,,,ctch,resources/DP.BMP,resources/DBN.BMP,Door4,-0.26171875,-0.036458333,1,0,0,1.6104,optionLeft,60,13810,6,32,0,32,0,1,,,,,,,,,,,,,,,,,,,,,,,,,,,,,,,,,,,,,,,
,,,,,,,,2023-08-24_08h15.03.102,HF_wild_card,2022.2.4,Win32,19.83103954,5d809e67bfa8460017d9c934,64e63663dbcaf322d2eec8da,64e702af6d57a321564976c6,,,,,,,ctch,resources/DR.BMP,resources/DG.BMP,Door3,-0.25390625,-0.024739583,1,0,0,2.2093,optionLeft,70,13880,6,33,0,33,0,1,,,,,,,,,,,,,,,,,,,,,,,,,,,,,,,,,,,,,,,
,,,,,,,,2023-08-24_08h15.03.102,HF_wild_card,2022.2.4,Win32,19.83103954,5d809e67bfa8460017d9c934,64e63663dbcaf322d2eec8da,64e702af6d57a321564976c6,,,,,,,sngl,resources/DP.BMP,resources/Empty.png,Door4,-0.296875,-0.076822917,1,0,0,1.1561,optionLeft,60,13940,6,34,0,34,0,1,,,,,,,,,,,,,,,,,,,,,,,,,,,,,,,,,,,,,,,
,,,,,,,,2023-08-24_08h15.03.102,HF_wild_card,2022.2.4,Win32,19.83103954,5d809e67bfa8460017d9c934,64e63663dbcaf322d2eec8da,64e702af6d57a321564976c6,,,,,,,decisionTrl,resources/DP.BMP,resources/DR.BMP,Door3,0.1875,0.033854167,1,0,0,1.9426,optionRight,70,14010,6,35,0,35,0,1,,,,,,,,,,,,,,,,,,,,,,,,,,,,,,,,,,,,,,,
,,,,,,,,2023-08-24_08h15.03.102,HF_wild_card,2022.2.4,Win32,19.83103954,5d809e67bfa8460017d9c934,64e63663dbcaf322d2eec8da,64e702af6d57a321564976c6,,,,,,,decisionTrl,resources/DB.BMP,resources/DP.BMP,Door4,0.260416667,0.049479167,1,0,0,1.6461,optionRight,80,14090,6,36,0,36,0,1,,,,,,,,,,,,,,,,,,,,,,,,,,,,,,,,,,,,,,,
,,,,,,,,2023-08-24_08h15.03.102,HF_wild_card,2022.2.4,Win32,19.83103954,5d809e67bfa8460017d9c934,64e63663dbcaf322d2eec8da,64e702af6d57a321564976c6,,,,,,,sngl,resources/Empty.png,resources/DP.BMP,Door4,0.21875,0.045572917,1,0,0,1.2096,optionRight,80,14170,6,37,0,37,0,1,,,,,,,,,,,,,,,,,,,,,,,,,,,,,,,,,,,,,,,
,,,,,,,,2023-08-24_08h15.03.102,HF_wild_card,2022.2.4,Win32,19.83103954,5d809e67bfa8460017d9c934,64e63663dbcaf322d2eec8da,64e702af6d57a321564976c6,,,,,,,decisionTrl,resources/DBN.BMP,resources/DG.BMP,Door1,-0.265625,-0.014322917,1,0,0,2.0236,optionLeft,30,14200,6,38,0,38,0,1,,,,,,,,,,,,,,,,,,,,,,,,,,,,,,,,,,,,,,,
,,,,,,,,2023-08-24_08h15.03.102,HF_wild_card,2022.2.4,Win32,19.83103954,5d809e67bfa8460017d9c934,64e63663dbcaf322d2eec8da,64e702af6d57a321564976c6,,,,,,,sngl,resources/DB.BMP,resources/Empty.png,WildCard_Ex,-0.2109375,-0.0234375,1,0,0,1.2297,optionLeft,45,14245,6,39,0,39,0,1,,,,,,,,,,,,,,,,,,,,,,,,,,,,,,,,,,,,,,,
,,,,,,,,2023-08-24_08h15.03.102,HF_wild_card,2022.2.4,Win32,19.83103954,5d809e67bfa8460017d9c934,64e63663dbcaf322d2eec8da,64e702af6d57a321564976c6,,,,,,,decisionTrl,resources/DR.BMP,resources/DP.BMP,Door4,0.23046875,0.092447917,1,0,0,2.1702,optionRight,60,14305,6,40,0,40,0,1,,,,,,,,,,,,,,,,,,,,,,,,,,,,,,,,,,,,,,,
,,,,,,,,2023-08-24_08h15.03.102,HF_wild_card,2022.2.4,Win32,19.83103954,5d809e67bfa8460017d9c934,64e63663dbcaf322d2eec8da,64e702af6d57a321564976c6,,,,,,,decisionTrl,resources/DG.BMP,resources/DB.BMP,WildCard_Ex,0.184895833,0.0390625,1,0,0,1.8202,optionRight,55,14360,6,41,0,41,0,1,,,,,,,,,,,,,,,,,,,,,,,,,,,,,,,,,,,,,,,
,,,,,,,,2023-08-24_08h15.03.102,HF_wild_card,2022.2.4,Win32,19.83103954,5d809e67bfa8460017d9c934,64e63663dbcaf322d2eec8da,64e702af6d57a321564976c6,,,,,,,sngl,resources/DB.BMP,resources/Empty.png,WildCard_Ex,-0.239583333,-0.024739583,1,0,0,1.2725,optionLeft,55,14415,6,42,0,42,0,1,,,,,,,,,,,,,,,,,,,,,,,,,,,,,,,,,,,,,,,
,,,,,,,,2023-08-24_08h15.03.102,HF_wild_card,2022.2.4,Win32,19.83103954,5d809e67bfa8460017d9c934,64e63663dbcaf322d2eec8da,64e702af6d57a321564976c6,,,,,,,decisionTrl,resources/DB.BMP,resources/DG.BMP,WildCard_Ex,-0.264322917,-0.020833333,1,0,0,1.5098,optionLeft,45,14460,6,43,0,43,0,1,,,,,,,,,,,,,,,,,,,,,,,,,,,,,,,,,,,,,,,
,,,,,,,,2023-08-24_08h15.03.102,HF_wild_card,2022.2.4,Win32,19.83103954,5d809e67bfa8460017d9c934,64e63663dbcaf322d2eec8da,64e702af6d57a321564976c6,,,,,,,,,,,,,,,,,,,,,,,,,,5,0,5,0,1,,,,,,,,,,,,,,,,,,,,,,,,,,,,,,,,,,
,,,,,,,,2023-08-24_08h15.03.102,HF_wild_card,2022.2.4,Win32,19.83103954,5d809e67bfa8460017d9c934,64e63663dbcaf322d2eec8da,64e702af6d57a321564976c6,,,,,,,decisionTrl,resources/DBN.BMP,resources/DG.BMP,Door2,0.209635417,-0.088541667,1,0,0,1.9325,optionRight,40,14500,7,0,0,0,0,1,,,,,,,,,,,,,,,,,,,,,,,,,,,,,,,,,,,,,,,
,,,,,,,,2023-08-24_08h15.03.102,HF_wild_card,2022.2.4,Win32,19.83103954,5d809e67bfa8460017d9c934,64e63663dbcaf322d2eec8da,64e702af6d57a321564976c6,,,,,,,decisionTrl,resources/DP.BMP,resources/DR.BMP,Door4,-0.197916667,0.015625,1,0,0,1.5555,optionLeft,60,14560,7,1,0,1,0,1,,,,,,,,,,,,,,,,,,,,,,,,,,,,,,,,,,,,,,,
,,,,,,,,2023-08-24_08h15.03.102,HF_wild_card,2022.2.4,Win32,19.83103954,5d809e67bfa8460017d9c934,64e63663dbcaf322d2eec8da,64e702af6d57a321564976c6,,,,,,,ctch,resources/DR.BMP,resources/DG.BMP,Door3,-0.247395833,-0.018229167,1,0,0,1.687,optionLeft,70,14630,7,2,0,2,0,1,,,,,,,,,,,,,,,,,,,,,,,,,,,,,,,,,,,,,,,
,,,,,,,,2023-08-24_08h15.03.102,HF_wild_card,2022.2.4,Win32,19.83103954,5d809e67bfa8460017d9c934,64e63663dbcaf322d2eec8da,64e702af6d57a321564976c6,,,,,,,decisionTrl,resources/DBN.BMP,resources/DG.BMP,Door1,-0.225260417,-0.01171875,1,0,0,2.1586,optionLeft,30,14660,7,3,0,3,0,1,,,,,,,,,,,,,,,,,,,,,,,,,,,,,,,,,,,,,,,
,,,,,,,,2023-08-24_08h15.03.102,HF_wild_card,2022.2.4,Win32,19.83103954,5d809e67bfa8460017d9c934,64e63663dbcaf322d2eec8da,64e702af6d57a321564976c6,,,,,,,ctch,resources/DG.BMP,resources/DR.BMP,Door3,0.34765625,0.0234375,1,0,0,1.4623,optionRight,70,14730,7,4,0,4,0,1,,,,,,,,,,,,,,,,,,,,,,,,,,,,,,,,,,,,,,,
,,,,,,,,2023-08-24_08h15.03.102,HF_wild_card,2022.2.4,Win32,19.83103954,5d809e67bfa8460017d9c934,64e63663dbcaf322d2eec8da,64e702af6d57a321564976c6,,,,,,,decisionTrl,resources/DP.BMP,resources/DR.BMP,Door4,-0.212239583,-0.002604167,1,0,0,1.3116,optionLeft,80,14810,7,5,0,5,0,1,,,,,,,,,,,,,,,,,,,,,,,,,,,,,,,,,,,,,,,
,,,,,,,,2023-08-24_08h15.03.102,HF_wild_card,2022.2.4,Win32,19.83103954,5d809e67bfa8460017d9c934,64e63663dbcaf322d2eec8da,64e702af6d57a321564976c6,,,,,,,decisionTrl,resources/DG.BMP,resources/DBN.BMP,Door1,0.17578125,0.053385417,1,0,0,3.1363,optionRight,30,14840,7,6,0,6,0,1,,,,,,,,,,,,,,,,,,,,,,,,,,,,,,,,,,,,,,,
,,,,,,,,2023-08-24_08h15.03.102,HF_wild_card,2022.2.4,Win32,19.83103954,5d809e67bfa8460017d9c934,64e63663dbcaf322d2eec8da,64e702af6d57a321564976c6,,,,,,,decisionTrl,resources/DR.BMP,resources/DP.BMP,Door4,0.34765625,0.032552083,1,0,0,1.4639,optionRight,60,14900,7,7,0,7,0,1,,,,,,,,,,,,,,,,,,,,,,,,,,,,,,,,,,,,,,,
,,,,,,,,2023-08-24_08h15.03.102,HF_wild_card,2022.2.4,Win32,19.83103954,5d809e67bfa8460017d9c934,64e63663dbcaf322d2eec8da,64e702af6d57a321564976c6,,,,,,,decisionTrl,resources/DG.BMP,resources/DBN.BMP,Door2,-0.294270833,-0.010416667,1,0,0,1.4201,optionLeft,20,14920,7,8,0,8,0,1,,,,,,,,,,,,,,,,,,,,,,,,,,,,,,,,,,,,,,,
,,,,,,,,2023-08-24_08h15.03.102,HF_wild_card,2022.2.4,Win32,19.83103954,5d809e67bfa8460017d9c934,64e63663dbcaf322d2eec8da,64e702af6d57a321564976c6,,,,,,,ctch,resources/DR.BMP,resources/DG.BMP,Door3,-0.32421875,0.005208333,1,0,0,1.6479,optionLeft,70,14990,7,9,0,9,0,1,,,,,,,,,,,,,,,,,,,,,,,,,,,,,,,,,,,,,,,
,,,,,,,,2023-08-24_08h15.03.102,HF_wild_card,2022.2.4,Win32,19.83103954,5d809e67bfa8460017d9c934,64e63663dbcaf322d2eec8da,64e702af6d57a321564976c6,,,,,,,decisionTrl,resources/DP.BMP,resources/DR.BMP,Door4,-0.376302083,0.001302083,1,0,0,1.2135,optionLeft,80,15070,7,10,0,10,0,1,,,,,,,,,,,,,,,,,,,,,,,,,,,,,,,,,,,,,,,
,,,,,,,,2023-08-24_08h15.03.102,HF_wild_card,2022.2.4,Win32,19.83103954,5d809e67bfa8460017d9c934,64e63663dbcaf322d2eec8da,64e702af6d57a321564976c6,,,,,,,decisionTrl,resources/DG.BMP,resources/DBN.BMP,Door1,0.321614583,0.102864583,1,0,0,1.8511,optionRight,30,15100,7,11,0,11,0,1,,,,,,,,,,,,,,,,,,,,,,,,,,,,,,,,,,,,,,,
,,,,,,,,2023-08-24_08h15.03.102,HF_wild_card,2022.2.4,Win32,19.83103954,5d809e67bfa8460017d9c934,64e63663dbcaf322d2eec8da,64e702af6d57a321564976c6,,,,,,,decisionTrl,resources/DBN.BMP,resources/DG.BMP,Door1,-0.19140625,-0.018229167,1,0,0,1.9594,optionLeft,30,15130,7,12,0,12,0,1,,,,,,,,,,,,,,,,,,,,,,,,,,,,,,,,,,,,,,,
,,,,,,,,2023-08-24_08h15.03.102,HF_wild_card,2022.2.4,Win32,19.83103954,5d809e67bfa8460017d9c934,64e63663dbcaf322d2eec8da,64e702af6d57a321564976c6,,,,,,,decisionTrl,resources/DBN.BMP,resources/DG.BMP,Door2,0.186197917,0.005208333,1,0,0,1.3666,optionRight,20,15150,7,13,0,13,0,1,,,,,,,,,,,,,,,,,,,,,,,,,,,,,,,,,,,,,,,
,,,,,,,,2023-08-24_08h15.03.102,HF_wild_card,2022.2.4,Win32,19.83103954,5d809e67bfa8460017d9c934,64e63663dbcaf322d2eec8da,64e702af6d57a321564976c6,,,,,,,decisionTrl,resources/DR.BMP,resources/DP.BMP,Door4,0.309895833,-0.001302083,1,0,0,1.2877,optionRight,60,15210,7,14,0,14,0,1,,,,,,,,,,,,,,,,,,,,,,,,,,,,,,,,,,,,,,,
,,,,,,,,2023-08-24_08h15.03.102,HF_wild_card,2022.2.4,Win32,19.83103954,5d809e67bfa8460017d9c934,64e63663dbcaf322d2eec8da,64e702af6d57a321564976c6,,,,,,,ctch,resources/DG.BMP,resources/DR.BMP,Door3,0.330729167,0.0390625,1,0,0,1.4617,optionRight,70,15280,7,15,0,15,0,1,,,,,,,,,,,,,,,,,,,,,,,,,,,,,,,,,,,,,,,
,,,,,,,,2023-08-24_08h15.03.102,HF_wild_card,2022.2.4,Win32,19.83103954,5d809e67bfa8460017d9c934,64e63663dbcaf322d2eec8da,64e702af6d57a321564976c6,,,,,,,decisionTrl,resources/DR.BMP,resources/DP.BMP,Door4,0.251302083,0.0234375,1,0,0,1.9931,optionRight,60,15340,7,16,0,16,0,1,,,,,,,,,,,,,,,,,,,,,,,,,,,,,,,,,,,,,,,
,,,,,,,,2023-08-24_08h15.03.102,HF_wild_card,2022.2.4,Win32,19.83103954,5d809e67bfa8460017d9c934,64e63663dbcaf322d2eec8da,64e702af6d57a321564976c6,,,,,,,ctch,resources/DP.BMP,resources/DBN.BMP,Door4,-0.307291667,-0.052083333,1,0,0,1.5378,optionLeft,60,15400,7,17,0,17,0,1,,,,,,,,,,,,,,,,,,,,,,,,,,,,,,,,,,,,,,,
,,,,,,,,2023-08-24_08h15.03.102,HF_wild_card,2022.2.4,Win32,19.83103954,5d809e67bfa8460017d9c934,64e63663dbcaf322d2eec8da,64e702af6d57a321564976c6,,,,,,,ctch,resources/DP.BMP,resources/DBN.BMP,Door4,-0.26953125,0.0078125,1,0,0,1.2513,optionLeft,80,15480,7,18,0,18,0,1,,,,,,,,,,,,,,,,,,,,,,,,,,,,,,,,,,,,,,,
,,,,,,,,2023-08-24_08h15.03.102,HF_wild_card,2022.2.4,Win32,19.83103954,5d809e67bfa8460017d9c934,64e63663dbcaf322d2eec8da,64e702af6d57a321564976c6,,,,,,,decisionTrl,resources/DG.BMP,resources/DBN.BMP,Door1,0.208333333,0.087239583,1,0,0,2.8607,optionRight,30,15510,7,19,0,19,0,1,,,,,,,,,,,,,,,,,,,,,,,,,,,,,,,,,,,,,,,
,,,,,,,,2023-08-24_08h15.03.102,HF_wild_card,2022.2.4,Win32,19.83103954,5d809e67bfa8460017d9c934,64e63663dbcaf322d2eec8da,64e702af6d57a321564976c6,,,,,,,ctch,resources/DBN.BMP,resources/DP.BMP,Door4,0.279947917,0.0390625,1,0,0,1.4007,optionRight,80,15590,7,20,0,20,0,1,,,,,,,,,,,,,,,,,,,,,,,,,,,,,,,,,,,,,,,
,,,,,,,,2023-08-24_08h15.03.102,HF_wild_card,2022.2.4,Win32,19.83103954,5d809e67bfa8460017d9c934,64e63663dbcaf322d2eec8da,64e702af6d57a321564976c6,,,,,,,decisionTrl,resources/DP.BMP,resources/DR.BMP,Door3,0.20703125,0.083333333,1,0,0,2.7742,optionRight,70,15660,7,21,0,21,0,1,,,,,,,,,,,,,,,,,,,,,,,,,,,,,,,,,,,,,,,
,,,,,,,,2023-08-24_08h15.03.102,HF_wild_card,2022.2.4,Win32,19.83103954,5d809e67bfa8460017d9c934,64e63663dbcaf322d2eec8da,64e702af6d57a321564976c6,,,,,,,decisionTrl,resources/DR.BMP,resources/DP.BMP,Door4,0.2734375,0.029947917,1,0,0,1.1576,optionRight,60,15720,7,22,0,22,0,1,,,,,,,,,,,,,,,,,,,,,,,,,,,,,,,,,,,,,,,
,,,,,,,,2023-08-24_08h15.03.102,HF_wild_card,2022.2.4,Win32,19.83103954,5d809e67bfa8460017d9c934,64e63663dbcaf322d2eec8da,64e702af6d57a321564976c6,,,,,,,decisionTrl,resources/DR.BMP,resources/DP.BMP,Door4,0.205729167,0.018229167,1,0,0,1.1978,optionRight,60,15780,7,23,0,23,0,1,,,,,,,,,,,,,,,,,,,,,,,,,,,,,,,,,,,,,,,
,,,,,,,,2023-08-24_08h15.03.102,HF_wild_card,2022.2.4,Win32,19.83103954,5d809e67bfa8460017d9c934,64e63663dbcaf322d2eec8da,64e702af6d57a321564976c6,,,,,,,ctch,resources/DG.BMP,resources/DR.BMP,Door3,0.296875,0.049479167,1,0,0,1.7176,optionRight,70,15850,7,24,0,24,0,1,,,,,,,,,,,,,,,,,,,,,,,,,,,,,,,,,,,,,,,
,,,,,,,,2023-08-24_08h15.03.102,HF_wild_card,2022.2.4,Win32,19.83103954,5d809e67bfa8460017d9c934,64e63663dbcaf322d2eec8da,64e702af6d57a321564976c6,,,,,,,decisionTrl,resources/DG.BMP,resources/DBN.BMP,Door1,0.23828125,0.1171875,1,0,0,1.9811,optionRight,30,15880,7,25,0,25,0,1,,,,,,,,,,,,,,,,,,,,,,,,,,,,,,,,,,,,,,,
,,,,,,,,2023-08-24_08h15.03.102,HF_wild_card,2022.2.4,Win32,19.83103954,5d809e67bfa8460017d9c934,64e63663dbcaf322d2eec8da,64e702af6d57a321564976c6,,,,,,,decisionTrl,resources/DR.BMP,resources/DP.BMP,Door4,0.2890625,0.059895833,1,0,0,1.4622,optionRight,60,15940,7,26,0,26,0,1,,,,,,,,,,,,,,,,,,,,,,,,,,,,,,,,,,,,,,,
,,,,,,,,2023-08-24_08h15.03.102,HF_wild_card,2022.2.4,Win32,19.83103954,5d809e67bfa8460017d9c934,64e63663dbcaf322d2eec8da,64e702af6d57a321564976c6,,,,,,,ctch,resources/DP.BMP,resources/DBN.BMP,Door4,-0.326822917,-0.016927083,1,0,0,1.4017,optionLeft,60,16000,7,27,0,27,0,1,,,,,,,,,,,,,,,,,,,,,,,,,,,,,,,,,,,,,,,
,,,,,,,,2023-08-24_08h15.03.102,HF_wild_card,2022.2.4,Win32,19.83103954,5d809e67bfa8460017d9c934,64e63663dbcaf322d2eec8da,64e702af6d57a321564976c6,,,,,,,decisionTrl,resources/DBN.BMP,resources/DG.BMP,Door1,-0.33203125,-0.014322917,1,0,0,2.695,optionLeft,30,16030,7,28,0,28,0,1,,,,,,,,,,,,,,,,,,,,,,,,,,,,,,,,,,,,,,,
,,,,,,,,2023-08-24_08h15.03.102,HF_wild_card,2022.2.4,Win32,19.83103954,5d809e67bfa8460017d9c934,64e63663dbcaf322d2eec8da,64e702af6d57a321564976c6,,,,,,,decisionTrl,resources/DP.BMP,resources/DR.BMP,Door4,-0.372395833,0.03125,1,0,0,1.5036,optionLeft,60,16090,7,29,0,29,0,1,,,,,,,,,,,,,,,,,,,,,,,,,,,,,,,,,,,,,,,
,,,,,,,,2023-08-24_08h15.03.102,HF_wild_card,2022.2.4,Win32,19.83103954,5d809e67bfa8460017d9c934,64e63663dbcaf322d2eec8da,64e702af6d57a321564976c6,,,,,,,decisionTrl,resources/DP.BMP,resources/DR.BMP,Door4,-0.33203125,-0.06640625,1,0,0,2.5657,optionLeft,60,16150,7,30,0,30,0,1,,,,,,,,,,,,,,,,,,,,,,,,,,,,,,,,,,,,,,,
,,,,,,,,2023-08-24_08h15.03.102,HF_wild_card,2022.2.4,Win32,19.83103954,5d809e67bfa8460017d9c934,64e63663dbcaf322d2eec8da,64e702af6d57a321564976c6,,,,,,,decisionTrl,resources/DBN.BMP,resources/DG.BMP,Door1,-0.319010417,0.11328125,1,0,0,2.0823,optionLeft,30,16180,7,31,0,31,0,1,,,,,,,,,,,,,,,,,,,,,,,,,,,,,,,,,,,,,,,
,,,,,,,,2023-08-24_08h15.03.102,HF_wild_card,2022.2.4,Win32,19.83103954,5d809e67bfa8460017d9c934,64e63663dbcaf322d2eec8da,64e702af6d57a321564976c6,,,,,,,decisionTrl,resources/DG.BMP,resources/DBN.BMP,Door1,0.21484375,0.080729167,1,0,0,2.508,optionRight,30,16210,7,32,0,32,0,1,,,,,,,,,,,,,,,,,,,,,,,,,,,,,,,,,,,,,,,
,,,,,,,,2023-08-24_08h15.03.102,HF_wild_card,2022.2.4,Win32,19.83103954,5d809e67bfa8460017d9c934,64e63663dbcaf322d2eec8da,64e702af6d57a321564976c6,,,,,,,ctch,resources/DBN.BMP,resources/DP.BMP,Door4,0.25,0.01953125,1,0,0,1.2092,optionRight,80,16290,7,33,0,33,0,1,,,,,,,,,,,,,,,,,,,,,,,,,,,,,,,,,,,,,,,
,,,,,,,,2023-08-24_08h15.03.102,HF_wild_card,2022.2.4,Win32,19.83103954,5d809e67bfa8460017d9c934,64e63663dbcaf322d2eec8da,64e702af6d57a321564976c6,,,,,,,ctch,resources/DR.BMP,resources/DG.BMP,Door3,-0.38671875,-0.028645833,1,0,0,1.5697,optionLeft,70,16360,7,34,0,34,0,1,,,,,,,,,,,,,,,,,,,,,,,,,,,,,,,,,,,,,,,
,,,,,,,,2023-08-24_08h15.03.102,HF_wild_card,2022.2.4,Win32,19.83103954,5d809e67bfa8460017d9c934,64e63663dbcaf322d2eec8da,64e702af6d57a321564976c6,,,,,,,ctch,resources/DBN.BMP,resources/DP.BMP,Door4,0.177083333,0.0078125,1,0,0,1.21,optionRight,80,16440,7,35,0,35,0,1,,,,,,,,,,,,,,,,,,,,,,,,,,,,,,,,,,,,,,,
,,,,,,,,2023-08-24_08h15.03.102,HF_wild_card,2022.2.4,Win32,19.83103954,5d809e67bfa8460017d9c934,64e63663dbcaf322d2eec8da,64e702af6d57a321564976c6,,,,,,,,,,,,,,,,,,,,,,,,,,6,0,6,0,1,,,,,,,,,,,,,,,,,,,,,,,,,,,,,,,,,,
,,,,,,,,2023-08-24_08h15.03.102,HF_wild_card,2022.2.4,Win32,19.83103954,5d809e67bfa8460017d9c934,64e63663dbcaf322d2eec8da,64e702af6d57a321564976c6,,,,,,,,,,,,,,,,,,,,,,,,,,,,,,,4,,,,,,,,,,,,,,,,,,,,,,,,,,,,,,,,,
,,,,,,,,2023-08-24_08h15.03.102,HF_wild_card,2022.2.4,Win32,19.83103954,5d809e67bfa8460017d9c934,64e63663dbcaf322d2eec8da,64e702af6d57a321564976c6,,,,,,,,,,,,,,,,,,,,,,,,,,,,,,,,,,,,,,,,,,,,,,,,,,,,,,,,,,,,,,,,
,,,,,,,,2023-08-24_08h15.03.102,HF_wild_card,2022.2.4,Win32,19.83103954,5d809e67bfa8460017d9c934,64e63663dbcaf322d2eec8da,64e702af6d57a321564976c6,,,,,,,,,,,,,,,,,,,,,,,,,,,,,,,,70,Door3,resources/DR.BMP,0,0,0,0,1,,,,,,,,,,,,,,,,,,,,,,,,,
,,,,,,,,2023-08-24_08h15.03.102,HF_wild_card,2022.2.4,Win32,19.83103954,5d809e67bfa8460017d9c934,64e63663dbcaf322d2eec8da,64e702af6d57a321564976c6,,,,,,,,,,,,,,,,,,,,,,,,,,,,,,,,40,Door2,resources/DG.BMP,1,0,1,0,1,,,,,,,,,,,,,,,,,,,,,,,,,
,,,,,,,,2023-08-24_08h15.03.102,HF_wild_card,2022.2.4,Win32,19.83103954,5d809e67bfa8460017d9c934,64e63663dbcaf322d2eec8da,64e702af6d57a321564976c6,,,,,,,,,,,,,,,,,,,,,,,,,,,,,,,,30,Door1,resources/DBN.BMP,2,0,2,0,1,,,,,,,,,,,,,,,,,,,,,,,,,
,,,,,,,,2023-08-24_08h15.03.102,HF_wild_card,2022.2.4,Win32,19.83103954,5d809e67bfa8460017d9c934,64e63663dbcaf322d2eec8da,64e702af6d57a321564976c6,,,,,,,,,,,,,,,,,,,,,,,,,,,,,,,,55,WC_extreme,resources/DB.BMP,3,0,3,0,1,,,,,,,,,,,,,,,,,,,,,,,,,
,,,,,,,,2023-08-24_08h15.03.102,HF_wild_card,2022.2.4,Win32,19.83103954,5d809e67bfa8460017d9c934,64e63663dbcaf322d2eec8da,64e702af6d57a321564976c6,,,,,,,,,,,,,,,,,,,,,,,,,,,,,,,,30,WC_nonExtreme,resources/DY.BMP,4,0,4,0,1,,,,,,,,,,,,,,,,,,,,,,,,,
,,,,,,,,2023-08-24_08h15.03.102,HF_wild_card,2022.2.4,Win32,19.83103954,5d809e67bfa8460017d9c934,64e63663dbcaf322d2eec8da,64e702af6d57a321564976c6,,,,,,,,,,,,,,,,,,,,,,,,,,,,,,,,80,Door4,resources/DP.BMP,5,0,5,0,1,,,,,,,,,,,,,,,,,,,,,,,,,
,,,,,,,,2023-08-24_08h15.03.102,HF_wild_card,2022.2.4,Win32,19.83103954,5d809e67bfa8460017d9c934,64e63663dbcaf322d2eec8da,64e702af6d57a321564976c6,,,,,,,,,,,,,,,,,,,,,,,,,,,,,,,,,,,,,,,,,,,,,,,,,,,,,,,,,,,,,,,,
,,,,,,,,2023-08-24_08h15.03.102,HF_wild_card,2022.2.4,Win32,19.83103954,5d809e67bfa8460017d9c934,64e63663dbcaf322d2eec8da,64e702af6d57a321564976c6,,,,,,,,,,,,,,,,,,,,,,,,,,,,,,,,,,,,,,,,0,0,0,0,1,,,,,,,,,,,,,,,,,,,,
