Condition,Low fixed image (Door1),Low risky image (Door2),High fixed image (Door3),High risky image (Door4),NonExtreme Wild Card 1,NonExtreme Wild Card 2,,date,expName,psychopyVersion,OS,frameRate,PROLIFIC_PID,STUDY_ID,SESSION_ID,mouse_2.x,mouse_2.y,mouse_2.leftButton,mouse_2.midButton,mouse_2.rightButton,mouse_2.clicked_name,Trial Type,Left Option Image,Right Option Image,Chosen Door,mouse.x,mouse.y,mouse.leftButton,mouse.midButton,mouse.rightButton,mouse.time,mouse.clicked_name,Feedback,Cumulative Reward,Block,trial.thisRepN,trial.thisTrialN,trial.thisN,trial.thisIndex,trial.ran,blocks.thisRepN,blocks.thisTrialN,blocks.thisN,blocks.thisIndex,blocks.ran,Money conversion,First Outcome Reported,Shown Door (First Outcome),Displayed Image (First Outcome),outcomes.thisRepN,outcomes.thisTrialN,outcomes.thisN,outcomes.thisIndex,outcomes.ran,judgments.thisRepN,judgments.thisTrialN,judgments.thisN,judgments.thisIndex,judgments.ran,freqMouse.x,freqMouse.y,freqMouse.leftButton,freqMouse.midButton,freqMouse.rightButton,freqMouse.clicked_name,FQJ for first outcome,FQJ for second outcome,Shown Door,Displayed Image,trials.thisRepN,trials.thisTrialN,trials.thisN,trials.thisIndex,trials.ran,judgBlock.thisRepN,judgBlock.thisTrialN,judgBlock.thisN,judgBlock.thisIndex,judgBlock.ran
2,resources/DBN.BMP,resources/DY.BMP,resources/DP.BMP,resources/DG.BMP,resources/DB.BMP,resources/DR.BMP,,2023-08-16_08h37.13.087,HF_wild_card,2022.2.4,Win32,59.93407252,5d6bfd6f3a9682001bd62534,64d2fd46c836a06233681665,64dc7c92e20c1d6b74a08da3,,,,,,,,,,,,,,,,,,,,,,,,,,,,,,,,,,,,,,,,,,,,,,,,,,,,,,,,,,,,,,,,
,,,,,,,,2023-08-16_08h37.13.087,HF_wild_card,2022.2.4,Win32,59.93407252,5d6bfd6f3a9682001bd62534,64d2fd46c836a06233681665,64dc7c92e20c1d6b74a08da3,0.006510417,-0.415364583,1,0,0,agree,,,,,,,,,,,,,,,,,,,,,,,,,,,,,,,,,,,,,,,,,,,,,,,,,,,,,,,,,,
,,,,,,,,2023-08-16_08h37.13.087,HF_wild_card,2022.2.4,Win32,59.93407252,5d6bfd6f3a9682001bd62534,64d2fd46c836a06233681665,64dc7c92e20c1d6b74a08da3,,,,,,,,,,,,,,,,,,,,,,,,,,,,,,,,,,,,,,,,,,,,,,,,,,,,,,,,,,,,,,,,
,,,,,,,,2023-08-16_08h37.13.087,HF_wild_card,2022.2.4,Win32,59.93407252,5d6bfd6f3a9682001bd62534,64d2fd46c836a06233681665,64dc7c92e20c1d6b74a08da3,,,,,,,decisionTrl,resources/DP.BMP,resources/DR.BMP,WildCard_NonEx,0.341145833,-0.079427083,1,0,0,3.0791,optionRight,55,55,1,0,0,0,0,1,,,,,,,,,,,,,,,,,,,,,,,,,,,,,,,,,,,,,,,
,,,,,,,,2023-08-16_08h37.13.087,HF_wild_card,2022.2.4,Win32,59.93407252,5d6bfd6f3a9682001bd62534,64d2fd46c836a06233681665,64dc7c92e20c1d6b74a08da3,,,,,,,decisionTrl,resources/DBN.BMP,resources/DY.BMP,Door2,0.354166667,-0.029947917,1,0,0,3.2628,optionRight,20,75,1,1,0,1,0,1,,,,,,,,,,,,,,,,,,,,,,,,,,,,,,,,,,,,,,,
,,,,,,,,2023-08-16_08h37.13.087,HF_wild_card,2022.2.4,Win32,59.93407252,5d6bfd6f3a9682001bd62534,64d2fd46c836a06233681665,64dc7c92e20c1d6b74a08da3,,,,,,,decisionTrl,resources/DP.BMP,resources/DG.BMP,Door3,-0.384114583,-0.0625,1,0,0,3.1523,optionLeft,70,145,1,2,0,2,0,1,,,,,,,,,,,,,,,,,,,,,,,,,,,,,,,,,,,,,,,
,,,,,,,,2023-08-16_08h37.13.087,HF_wild_card,2022.2.4,Win32,59.93407252,5d6bfd6f3a9682001bd62534,64d2fd46c836a06233681665,64dc7c92e20c1d6b74a08da3,,,,,,,decisionTrl,resources/DR.BMP,resources/DP.BMP,Door3,0.381510417,-0.010416667,1,0,0,3.2375,optionRight,70,215,1,3,0,3,0,1,,,,,,,,,,,,,,,,,,,,,,,,,,,,,,,,,,,,,,,
,,,,,,,,2023-08-16_08h37.13.087,HF_wild_card,2022.2.4,Win32,59.93407252,5d6bfd6f3a9682001bd62534,64d2fd46c836a06233681665,64dc7c92e20c1d6b74a08da3,,,,,,,decisionTrl,resources/DBN.BMP,resources/DY.BMP,Door2,0.390625,-0.045572917,1,0,0,2.6097,optionRight,40,255,1,4,0,4,0,1,,,,,,,,,,,,,,,,,,,,,,,,,,,,,,,,,,,,,,,
,,,,,,,,2023-08-16_08h37.13.087,HF_wild_card,2022.2.4,Win32,59.93407252,5d6bfd6f3a9682001bd62534,64d2fd46c836a06233681665,64dc7c92e20c1d6b74a08da3,,,,,,,sngl,resources/DR.BMP,resources/Empty.png,WildCard_NonEx,-0.430989583,-0.006510417,1,0,0,1.8578,optionLeft,45,300,1,5,0,5,0,1,,,,,,,,,,,,,,,,,,,,,,,,,,,,,,,,,,,,,,,
,,,,,,,,2023-08-16_08h37.13.087,HF_wild_card,2022.2.4,Win32,59.93407252,5d6bfd6f3a9682001bd62534,64d2fd46c836a06233681665,64dc7c92e20c1d6b74a08da3,,,,,,,ctch,resources/DP.BMP,resources/DY.BMP,Door2,0.389322917,-0.0625,1,0,0,2.9429,optionRight,40,340,1,6,0,6,0,1,,,,,,,,,,,,,,,,,,,,,,,,,,,,,,,,,,,,,,,
,,,,,,,,2023-08-16_08h37.13.087,HF_wild_card,2022.2.4,Win32,59.93407252,5d6bfd6f3a9682001bd62534,64d2fd46c836a06233681665,64dc7c92e20c1d6b74a08da3,,,,,,,decisionTrl,resources/DBN.BMP,resources/DY.BMP,Door2,0.36328125,-0.0078125,1,0,0,3.1741,optionRight,20,360,1,7,0,7,0,1,,,,,,,,,,,,,,,,,,,,,,,,,,,,,,,,,,,,,,,
,,,,,,,,2023-08-16_08h37.13.087,HF_wild_card,2022.2.4,Win32,59.93407252,5d6bfd6f3a9682001bd62534,64d2fd46c836a06233681665,64dc7c92e20c1d6b74a08da3,,,,,,,ctch,resources/DG.BMP,resources/DBN.BMP,Door1,0.385416667,0.13671875,1,0,0,2.4591,optionRight,30,390,1,8,0,8,0,1,,,,,,,,,,,,,,,,,,,,,,,,,,,,,,,,,,,,,,,
,,,,,,,,2023-08-16_08h37.13.087,HF_wild_card,2022.2.4,Win32,59.93407252,5d6bfd6f3a9682001bd62534,64d2fd46c836a06233681665,64dc7c92e20c1d6b74a08da3,,,,,,,ctch,resources/DP.BMP,resources/DY.BMP,Door2,0.338541667,0.018229167,1,0,0,2.707,optionRight,20,410,1,9,0,9,0,1,,,,,,,,,,,,,,,,,,,,,,,,,,,,,,,,,,,,,,,
,,,,,,,,2023-08-16_08h37.13.087,HF_wild_card,2022.2.4,Win32,59.93407252,5d6bfd6f3a9682001bd62534,64d2fd46c836a06233681665,64dc7c92e20c1d6b74a08da3,,,,,,,sngl,resources/DY.BMP,resources/Empty.png,Door2,-0.330729167,-0.010416667,1,0,0,1.473,optionLeft,40,450,1,10,0,10,0,1,,,,,,,,,,,,,,,,,,,,,,,,,,,,,,,,,,,,,,,
,,,,,,,,2023-08-16_08h37.13.087,HF_wild_card,2022.2.4,Win32,59.93407252,5d6bfd6f3a9682001bd62534,64d2fd46c836a06233681665,64dc7c92e20c1d6b74a08da3,,,,,,,decisionTrl,resources/DR.BMP,resources/DG.BMP,Door4,0.346354167,-0.010416667,1,0,0,2.3283,optionRight,60,510,1,11,0,11,0,1,,,,,,,,,,,,,,,,,,,,,,,,,,,,,,,,,,,,,,,
,,,,,,,,2023-08-16_08h37.13.087,HF_wild_card,2022.2.4,Win32,59.93407252,5d6bfd6f3a9682001bd62534,64d2fd46c836a06233681665,64dc7c92e20c1d6b74a08da3,,,,,,,decisionTrl,resources/DP.BMP,resources/DG.BMP,Door3,-0.348958333,-0.040364583,1,0,0,2.8908,optionLeft,70,580,1,12,0,12,0,1,,,,,,,,,,,,,,,,,,,,,,,,,,,,,,,,,,,,,,,
,,,,,,,,2023-08-16_08h37.13.087,HF_wild_card,2022.2.4,Win32,59.93407252,5d6bfd6f3a9682001bd62534,64d2fd46c836a06233681665,64dc7c92e20c1d6b74a08da3,,,,,,,decisionTrl,resources/DP.BMP,resources/DG.BMP,Door3,-0.3984375,-0.02734375,1,0,0,1.7793,optionLeft,70,650,1,13,0,13,0,1,,,,,,,,,,,,,,,,,,,,,,,,,,,,,,,,,,,,,,,
,,,,,,,,2023-08-16_08h37.13.087,HF_wild_card,2022.2.4,Win32,59.93407252,5d6bfd6f3a9682001bd62534,64d2fd46c836a06233681665,64dc7c92e20c1d6b74a08da3,,,,,,,ctch,resources/DBN.BMP,resources/DG.BMP,Door4,0.4609375,-0.016927083,1,0,0,1.4424,optionRight,60,710,1,14,0,14,0,1,,,,,,,,,,,,,,,,,,,,,,,,,,,,,,,,,,,,,,,
,,,,,,,,2023-08-16_08h37.13.087,HF_wild_card,2022.2.4,Win32,59.93407252,5d6bfd6f3a9682001bd62534,64d2fd46c836a06233681665,64dc7c92e20c1d6b74a08da3,,,,,,,decisionTrl,resources/DG.BMP,resources/DR.BMP,WildCard_NonEx,0.313802083,-0.044270833,1,0,0,2.2276,optionRight,45,755,1,15,0,15,0,1,,,,,,,,,,,,,,,,,,,,,,,,,,,,,,,,,,,,,,,
,,,,,,,,2023-08-16_08h37.13.087,HF_wild_card,2022.2.4,Win32,59.93407252,5d6bfd6f3a9682001bd62534,64d2fd46c836a06233681665,64dc7c92e20c1d6b74a08da3,,,,,,,sngl,resources/Empty.png,resources/DBN.BMP,Door1,0.361979167,0.033854167,1,0,0,1.3438,optionRight,30,785,1,16,0,16,0,1,,,,,,,,,,,,,,,,,,,,,,,,,,,,,,,,,,,,,,,
,,,,,,,,2023-08-16_08h37.13.087,HF_wild_card,2022.2.4,Win32,59.93407252,5d6bfd6f3a9682001bd62534,64d2fd46c836a06233681665,64dc7c92e20c1d6b74a08da3,,,,,,,ctch,resources/DG.BMP,resources/DBN.BMP,Door4,-0.408854167,-0.024739583,1,0,0,1.7235,optionLeft,80,865,1,17,0,17,0,1,,,,,,,,,,,,,,,,,,,,,,,,,,,,,,,,,,,,,,,
,,,,,,,,2023-08-16_08h37.13.087,HF_wild_card,2022.2.4,Win32,59.93407252,5d6bfd6f3a9682001bd62534,64d2fd46c836a06233681665,64dc7c92e20c1d6b74a08da3,,,,,,,sngl,resources/Empty.png,resources/DG.BMP,Door4,0.315104167,-0.022135417,1,0,0,1.1468,optionRight,60,925,1,18,0,18,0,1,,,,,,,,,,,,,,,,,,,,,,,,,,,,,,,,,,,,,,,
,,,,,,,,2023-08-16_08h37.13.087,HF_wild_card,2022.2.4,Win32,59.93407252,5d6bfd6f3a9682001bd62534,64d2fd46c836a06233681665,64dc7c92e20c1d6b74a08da3,,,,,,,sngl,resources/DR.BMP,resources/Empty.png,WildCard_NonEx,-0.322916667,-0.032552083,1,0,0,1.2252,optionLeft,55,980,1,19,0,19,0,1,,,,,,,,,,,,,,,,,,,,,,,,,,,,,,,,,,,,,,,
,,,,,,,,2023-08-16_08h37.13.087,HF_wild_card,2022.2.4,Win32,59.93407252,5d6bfd6f3a9682001bd62534,64d2fd46c836a06233681665,64dc7c92e20c1d6b74a08da3,,,,,,,decisionTrl,resources/DG.BMP,resources/DP.BMP,Door3,0.302083333,0.013020833,1,0,0,1.4259,optionRight,70,1050,1,20,0,20,0,1,,,,,,,,,,,,,,,,,,,,,,,,,,,,,,,,,,,,,,,
,,,,,,,,2023-08-16_08h37.13.087,HF_wild_card,2022.2.4,Win32,59.93407252,5d6bfd6f3a9682001bd62534,64d2fd46c836a06233681665,64dc7c92e20c1d6b74a08da3,,,,,,,decisionTrl,resources/DY.BMP,resources/DBN.BMP,Door2,-0.372395833,-0.02734375,1,0,0,1.6412,optionLeft,40,1090,1,21,0,21,0,1,,,,,,,,,,,,,,,,,,,,,,,,,,,,,,,,,,,,,,,
,,,,,,,,2023-08-16_08h37.13.087,HF_wild_card,2022.2.4,Win32,59.93407252,5d6bfd6f3a9682001bd62534,64d2fd46c836a06233681665,64dc7c92e20c1d6b74a08da3,,,,,,,decisionTrl,resources/DY.BMP,resources/DBN.BMP,Door2,-0.373697917,-0.026041667,1,0,0,1.4046,optionLeft,40,1130,1,22,0,22,0,1,,,,,,,,,,,,,,,,,,,,,,,,,,,,,,,,,,,,,,,
,,,,,,,,2023-08-16_08h37.13.087,HF_wild_card,2022.2.4,Win32,59.93407252,5d6bfd6f3a9682001bd62534,64d2fd46c836a06233681665,64dc7c92e20c1d6b74a08da3,,,,,,,ctch,resources/DY.BMP,resources/DP.BMP,Door3,0.4140625,-0.01953125,1,0,0,1.6722,optionRight,70,1200,1,23,0,23,0,1,,,,,,,,,,,,,,,,,,,,,,,,,,,,,,,,,,,,,,,
,,,,,,,,2023-08-16_08h37.13.087,HF_wild_card,2022.2.4,Win32,59.93407252,5d6bfd6f3a9682001bd62534,64d2fd46c836a06233681665,64dc7c92e20c1d6b74a08da3,,,,,,,decisionTrl,resources/DBN.BMP,resources/DY.BMP,Door2,0.341145833,-0.055989583,1,0,0,1.9784,optionRight,20,1220,1,24,0,24,0,1,,,,,,,,,,,,,,,,,,,,,,,,,,,,,,,,,,,,,,,
,,,,,,,,2023-08-16_08h37.13.087,HF_wild_card,2022.2.4,Win32,59.93407252,5d6bfd6f3a9682001bd62534,64d2fd46c836a06233681665,64dc7c92e20c1d6b74a08da3,,,,,,,sngl,resources/DBN.BMP,resources/Empty.png,Door1,-0.302083333,-0.0078125,1,0,0,4.1554,optionLeft,30,1250,1,25,0,25,0,1,,,,,,,,,,,,,,,,,,,,,,,,,,,,,,,,,,,,,,,
,,,,,,,,2023-08-16_08h37.13.087,HF_wild_card,2022.2.4,Win32,59.93407252,5d6bfd6f3a9682001bd62534,64d2fd46c836a06233681665,64dc7c92e20c1d6b74a08da3,,,,,,,sngl,resources/Empty.png,resources/DP.BMP,Door3,0.397135417,-0.063802083,1,0,0,1.2756,optionRight,70,1320,1,26,0,26,0,1,,,,,,,,,,,,,,,,,,,,,,,,,,,,,,,,,,,,,,,
,,,,,,,,2023-08-16_08h37.13.087,HF_wild_card,2022.2.4,Win32,59.93407252,5d6bfd6f3a9682001bd62534,64d2fd46c836a06233681665,64dc7c92e20c1d6b74a08da3,,,,,,,ctch,resources/DBN.BMP,resources/DG.BMP,Door4,0.319010417,-0.006510417,1,0,0,1.5099,optionRight,60,1380,1,27,0,27,0,1,,,,,,,,,,,,,,,,,,,,,,,,,,,,,,,,,,,,,,,
,,,,,,,,2023-08-16_08h37.13.087,HF_wild_card,2022.2.4,Win32,59.93407252,5d6bfd6f3a9682001bd62534,64d2fd46c836a06233681665,64dc7c92e20c1d6b74a08da3,,,,,,,ctch,resources/DY.BMP,resources/DP.BMP,Door3,0.33203125,-0.024739583,1,0,0,2.5807,optionRight,70,1450,1,28,0,28,0,1,,,,,,,,,,,,,,,,,,,,,,,,,,,,,,,,,,,,,,,
,,,,,,,,2023-08-16_08h37.13.087,HF_wild_card,2022.2.4,Win32,59.93407252,5d6bfd6f3a9682001bd62534,64d2fd46c836a06233681665,64dc7c92e20c1d6b74a08da3,,,,,,,decisionTrl,resources/DR.BMP,resources/DY.BMP,Door2,0.279947917,-0.063802083,1,0,0,1.7399,optionRight,40,1490,1,29,0,29,0,1,,,,,,,,,,,,,,,,,,,,,,,,,,,,,,,,,,,,,,,
,,,,,,,,2023-08-16_08h37.13.087,HF_wild_card,2022.2.4,Win32,59.93407252,5d6bfd6f3a9682001bd62534,64d2fd46c836a06233681665,64dc7c92e20c1d6b74a08da3,,,,,,,decisionTrl,resources/DG.BMP,resources/DP.BMP,Door3,0.309895833,-0.0546875,1,0,0,1.4916,optionRight,70,1560,1,30,0,30,0,1,,,,,,,,,,,,,,,,,,,,,,,,,,,,,,,,,,,,,,,
,,,,,,,,2023-08-16_08h37.13.087,HF_wild_card,2022.2.4,Win32,59.93407252,5d6bfd6f3a9682001bd62534,64d2fd46c836a06233681665,64dc7c92e20c1d6b74a08da3,,,,,,,decisionTrl,resources/DY.BMP,resources/DBN.BMP,Door2,-0.479166667,-0.055989583,1,0,0,1.4082,optionLeft,20,1580,1,31,0,31,0,1,,,,,,,,,,,,,,,,,,,,,,,,,,,,,,,,,,,,,,,
,,,,,,,,2023-08-16_08h37.13.087,HF_wild_card,2022.2.4,Win32,59.93407252,5d6bfd6f3a9682001bd62534,64d2fd46c836a06233681665,64dc7c92e20c1d6b74a08da3,,,,,,,decisionTrl,resources/DBN.BMP,resources/DR.BMP,WildCard_NonEx,0.283854167,-0.059895833,1,0,0,1.6916,optionRight,55,1635,1,32,0,32,0,1,,,,,,,,,,,,,,,,,,,,,,,,,,,,,,,,,,,,,,,
,,,,,,,,2023-08-16_08h37.13.087,HF_wild_card,2022.2.4,Win32,59.93407252,5d6bfd6f3a9682001bd62534,64d2fd46c836a06233681665,64dc7c92e20c1d6b74a08da3,,,,,,,decisionTrl,resources/DG.BMP,resources/DP.BMP,Door3,0.330729167,-0.006510417,1,0,0,2.3081,optionRight,70,1705,1,33,0,33,0,1,,,,,,,,,,,,,,,,,,,,,,,,,,,,,,,,,,,,,,,
,,,,,,,,2023-08-16_08h37.13.087,HF_wild_card,2022.2.4,Win32,59.93407252,5d6bfd6f3a9682001bd62534,64d2fd46c836a06233681665,64dc7c92e20c1d6b74a08da3,,,,,,,sngl,resources/Empty.png,resources/DR.BMP,WildCard_NonEx,0.41796875,-0.05859375,1,0,0,0.9321,optionRight,55,1760,1,34,0,34,0,1,,,,,,,,,,,,,,,,,,,,,,,,,,,,,,,,,,,,,,,
,,,,,,,,2023-08-16_08h37.13.087,HF_wild_card,2022.2.4,Win32,59.93407252,5d6bfd6f3a9682001bd62534,64d2fd46c836a06233681665,64dc7c92e20c1d6b74a08da3,,,,,,,decisionTrl,resources/DR.BMP,resources/DBN.BMP,WildCard_NonEx,-0.428385417,-0.076822917,1,0,0,1.3428,optionLeft,45,1805,1,35,0,35,0,1,,,,,,,,,,,,,,,,,,,,,,,,,,,,,,,,,,,,,,,
,,,,,,,,2023-08-16_08h37.13.087,HF_wild_card,2022.2.4,Win32,59.93407252,5d6bfd6f3a9682001bd62534,64d2fd46c836a06233681665,64dc7c92e20c1d6b74a08da3,,,,,,,sngl,resources/DP.BMP,resources/Empty.png,Door3,-0.337239583,0.005208333,1,0,0,2.2572,optionLeft,70,1875,1,36,0,36,0,1,,,,,,,,,,,,,,,,,,,,,,,,,,,,,,,,,,,,,,,
,,,,,,,,2023-08-16_08h37.13.087,HF_wild_card,2022.2.4,Win32,59.93407252,5d6bfd6f3a9682001bd62534,64d2fd46c836a06233681665,64dc7c92e20c1d6b74a08da3,,,,,,,decisionTrl,resources/DP.BMP,resources/DG.BMP,Door3,-0.322916667,-0.029947917,1,0,0,1.4829,optionLeft,70,1945,1,37,0,37,0,1,,,,,,,,,,,,,,,,,,,,,,,,,,,,,,,,,,,,,,,
,,,,,,,,2023-08-16_08h37.13.087,HF_wild_card,2022.2.4,Win32,59.93407252,5d6bfd6f3a9682001bd62534,64d2fd46c836a06233681665,64dc7c92e20c1d6b74a08da3,,,,,,,decisionTrl,resources/DY.BMP,resources/DR.BMP,Door2,-0.375,-0.024739583,1,0,0,7.1306,optionLeft,40,1985,1,38,0,38,0,1,,,,,,,,,,,,,,,,,,,,,,,,,,,,,,,,,,,,,,,
,,,,,,,,2023-08-16_08h37.13.087,HF_wild_card,2022.2.4,Win32,59.93407252,5d6bfd6f3a9682001bd62534,64d2fd46c836a06233681665,64dc7c92e20c1d6b74a08da3,,,,,,,decisionTrl,resources/DY.BMP,resources/DBN.BMP,Door2,-0.37109375,-0.053385417,1,0,0,1.2742,optionLeft,40,2025,1,39,0,39,0,1,,,,,,,,,,,,,,,,,,,,,,,,,,,,,,,,,,,,,,,
,,,,,,,,2023-08-16_08h37.13.087,HF_wild_card,2022.2.4,Win32,59.93407252,5d6bfd6f3a9682001bd62534,64d2fd46c836a06233681665,64dc7c92e20c1d6b74a08da3,,,,,,,sngl,resources/DG.BMP,resources/Empty.png,Door4,-0.391927083,-0.03515625,1,0,0,1.0096,optionLeft,80,2105,1,40,0,40,0,1,,,,,,,,,,,,,,,,,,,,,,,,,,,,,,,,,,,,,,,
,,,,,,,,2023-08-16_08h37.13.087,HF_wild_card,2022.2.4,Win32,59.93407252,5d6bfd6f3a9682001bd62534,64d2fd46c836a06233681665,64dc7c92e20c1d6b74a08da3,,,,,,,sngl,resources/Empty.png,resources/DY.BMP,Door2,0.473958333,-0.020833333,1,0,0,1.3502,optionRight,20,2125,1,41,0,41,0,1,,,,,,,,,,,,,,,,,,,,,,,,,,,,,,,,,,,,,,,
,,,,,,,,2023-08-16_08h37.13.087,HF_wild_card,2022.2.4,Win32,59.93407252,5d6bfd6f3a9682001bd62534,64d2fd46c836a06233681665,64dc7c92e20c1d6b74a08da3,,,,,,,decisionTrl,resources/DG.BMP,resources/DP.BMP,Door3,0.3828125,-0.014322917,1,0,0,1.7095,optionRight,70,2195,1,42,0,42,0,1,,,,,,,,,,,,,,,,,,,,,,,,,,,,,,,,,,,,,,,
,,,,,,,,2023-08-16_08h37.13.087,HF_wild_card,2022.2.4,Win32,59.93407252,5d6bfd6f3a9682001bd62534,64d2fd46c836a06233681665,64dc7c92e20c1d6b74a08da3,,,,,,,sngl,resources/Empty.png,resources/DR.BMP,WildCard_NonEx,0.37109375,-0.028645833,1,0,0,0.965,optionRight,45,2240,1,43,0,43,0,1,,,,,,,,,,,,,,,,,,,,,,,,,,,,,,,,,,,,,,,
,,,,,,,,2023-08-16_08h37.13.087,HF_wild_card,2022.2.4,Win32,59.93407252,5d6bfd6f3a9682001bd62534,64d2fd46c836a06233681665,64dc7c92e20c1d6b74a08da3,,,,,,,,,,,,,,,,,,,,,,,,,,0,0,0,0,1,,,,,,,,,,,,,,,,,,,,,,,,,,,,,,,,,,
,,,,,,,,2023-08-16_08h37.13.087,HF_wild_card,2022.2.4,Win32,59.93407252,5d6bfd6f3a9682001bd62534,64d2fd46c836a06233681665,64dc7c92e20c1d6b74a08da3,,,,,,,decisionTrl,resources/DY.BMP,resources/DBN.BMP,Door2,-0.411458333,0.009114583,1,0,0,1.4419,optionLeft,20,2260,2,0,0,0,0,1,,,,,,,,,,,,,,,,,,,,,,,,,,,,,,,,,,,,,,,
,,,,,,,,2023-08-16_08h37.13.087,HF_wild_card,2022.2.4,Win32,59.93407252,5d6bfd6f3a9682001bd62534,64d2fd46c836a06233681665,64dc7c92e20c1d6b74a08da3,,,,,,,decisionTrl,resources/DY.BMP,resources/DBN.BMP,Door2,-0.307291667,-0.010416667,1,0,0,1.1431,optionLeft,40,2300,2,1,0,1,0,1,,,,,,,,,,,,,,,,,,,,,,,,,,,,,,,,,,,,,,,
,,,,,,,,2023-08-16_08h37.13.087,HF_wild_card,2022.2.4,Win32,59.93407252,5d6bfd6f3a9682001bd62534,64d2fd46c836a06233681665,64dc7c92e20c1d6b74a08da3,,,,,,,decisionTrl,resources/DG.BMP,resources/DP.BMP,Door3,0.369791667,-0.022135417,1,0,0,4.0545,optionRight,70,2370,2,2,0,2,0,1,,,,,,,,,,,,,,,,,,,,,,,,,,,,,,,,,,,,,,,
,,,,,,,,2023-08-16_08h37.13.087,HF_wild_card,2022.2.4,Win32,59.93407252,5d6bfd6f3a9682001bd62534,64d2fd46c836a06233681665,64dc7c92e20c1d6b74a08da3,,,,,,,ctch,resources/DBN.BMP,resources/DG.BMP,Door4,0.368489583,0.002604167,1,0,0,3.0067,optionRight,60,2430,2,3,0,3,0,1,,,,,,,,,,,,,,,,,,,,,,,,,,,,,,,,,,,,,,,
,,,,,,,,2023-08-16_08h37.13.087,HF_wild_card,2022.2.4,Win32,59.93407252,5d6bfd6f3a9682001bd62534,64d2fd46c836a06233681665,64dc7c92e20c1d6b74a08da3,,,,,,,sngl,resources/DBN.BMP,resources/Empty.png,Door1,-0.32421875,-0.013020833,1,0,0,1.2094,optionLeft,30,2460,2,4,0,4,0,1,,,,,,,,,,,,,,,,,,,,,,,,,,,,,,,,,,,,,,,
,,,,,,,,2023-08-16_08h37.13.087,HF_wild_card,2022.2.4,Win32,59.93407252,5d6bfd6f3a9682001bd62534,64d2fd46c836a06233681665,64dc7c92e20c1d6b74a08da3,,,,,,,ctch,resources/DG.BMP,resources/DBN.BMP,Door4,-0.337239583,-0.005208333,1,0,0,1.376,optionLeft,60,2520,2,5,0,5,0,1,,,,,,,,,,,,,,,,,,,,,,,,,,,,,,,,,,,,,,,
,,,,,,,,2023-08-16_08h37.13.087,HF_wild_card,2022.2.4,Win32,59.93407252,5d6bfd6f3a9682001bd62534,64d2fd46c836a06233681665,64dc7c92e20c1d6b74a08da3,,,,,,,decisionTrl,resources/DP.BMP,resources/DG.BMP,Door3,-0.4140625,0.001302083,1,0,0,1.4234,optionLeft,70,2590,2,6,0,6,0,1,,,,,,,,,,,,,,,,,,,,,,,,,,,,,,,,,,,,,,,
,,,,,,,,2023-08-16_08h37.13.087,HF_wild_card,2022.2.4,Win32,59.93407252,5d6bfd6f3a9682001bd62534,64d2fd46c836a06233681665,64dc7c92e20c1d6b74a08da3,,,,,,,ctch,resources/DBN.BMP,resources/DG.BMP,Door4,0.462239583,-0.001302083,1,0,0,1.3087,optionRight,60,2650,2,7,0,7,0,1,,,,,,,,,,,,,,,,,,,,,,,,,,,,,,,,,,,,,,,
,,,,,,,,2023-08-16_08h37.13.087,HF_wild_card,2022.2.4,Win32,59.93407252,5d6bfd6f3a9682001bd62534,64d2fd46c836a06233681665,64dc7c92e20c1d6b74a08da3,,,,,,,sngl,resources/DG.BMP,resources/Empty.png,Door4,-0.364583333,-0.018229167,1,0,0,1.0129,optionLeft,60,2710,2,8,0,8,0,1,,,,,,,,,,,,,,,,,,,,,,,,,,,,,,,,,,,,,,,
,,,,,,,,2023-08-16_08h37.13.087,HF_wild_card,2022.2.4,Win32,59.93407252,5d6bfd6f3a9682001bd62534,64d2fd46c836a06233681665,64dc7c92e20c1d6b74a08da3,,,,,,,decisionTrl,resources/DP.BMP,resources/DG.BMP,Door3,-0.34765625,-0.10546875,1,0,0,1.1775,optionLeft,70,2780,2,9,0,9,0,1,,,,,,,,,,,,,,,,,,,,,,,,,,,,,,,,,,,,,,,
,,,,,,,,2023-08-16_08h37.13.087,HF_wild_card,2022.2.4,Win32,59.93407252,5d6bfd6f3a9682001bd62534,64d2fd46c836a06233681665,64dc7c92e20c1d6b74a08da3,,,,,,,sngl,resources/Empty.png,resources/DBN.BMP,Door1,0.364583333,0.03125,1,0,0,1.093,optionRight,30,2810,2,10,0,10,0,1,,,,,,,,,,,,,,,,,,,,,,,,,,,,,,,,,,,,,,,
,,,,,,,,2023-08-16_08h37.13.087,HF_wild_card,2022.2.4,Win32,59.93407252,5d6bfd6f3a9682001bd62534,64d2fd46c836a06233681665,64dc7c92e20c1d6b74a08da3,,,,,,,decisionTrl,resources/DR.BMP,resources/DG.BMP,WildCard_NonEx,-0.309895833,-0.067708333,1,0,0,1.2097,optionLeft,45,2855,2,11,0,11,0,1,,,,,,,,,,,,,,,,,,,,,,,,,,,,,,,,,,,,,,,
,,,,,,,,2023-08-16_08h37.13.087,HF_wild_card,2022.2.4,Win32,59.93407252,5d6bfd6f3a9682001bd62534,64d2fd46c836a06233681665,64dc7c92e20c1d6b74a08da3,,,,,,,sngl,resources/DR.BMP,resources/Empty.png,WildCard_NonEx,-0.36328125,-0.01171875,1,0,0,1.1347,optionLeft,45,2900,2,12,0,12,0,1,,,,,,,,,,,,,,,,,,,,,,,,,,,,,,,,,,,,,,,
,,,,,,,,2023-08-16_08h37.13.087,HF_wild_card,2022.2.4,Win32,59.93407252,5d6bfd6f3a9682001bd62534,64d2fd46c836a06233681665,64dc7c92e20c1d6b74a08da3,,,,,,,decisionTrl,resources/DY.BMP,resources/DBN.BMP,Door2,-0.342447917,-0.00390625,1,0,0,1.3091,optionLeft,40,2940,2,13,0,13,0,1,,,,,,,,,,,,,,,,,,,,,,,,,,,,,,,,,,,,,,,
,,,,,,,,2023-08-16_08h37.13.087,HF_wild_card,2022.2.4,Win32,59.93407252,5d6bfd6f3a9682001bd62534,64d2fd46c836a06233681665,64dc7c92e20c1d6b74a08da3,,,,,,,sngl,resources/Empty.png,resources/DG.BMP,Door4,0.325520833,0.0078125,1,0,0,0.9802,optionRight,80,3020,2,14,0,14,0,1,,,,,,,,,,,,,,,,,,,,,,,,,,,,,,,,,,,,,,,
,,,,,,,,2023-08-16_08h37.13.087,HF_wild_card,2022.2.4,Win32,59.93407252,5d6bfd6f3a9682001bd62534,64d2fd46c836a06233681665,64dc7c92e20c1d6b74a08da3,,,,,,,decisionTrl,resources/DP.BMP,resources/DR.BMP,WildCard_NonEx,0.291666667,-0.044270833,1,0,0,1.7825,optionRight,45,3065,2,15,0,15,0,1,,,,,,,,,,,,,,,,,,,,,,,,,,,,,,,,,,,,,,,
,,,,,,,,2023-08-16_08h37.13.087,HF_wild_card,2022.2.4,Win32,59.93407252,5d6bfd6f3a9682001bd62534,64d2fd46c836a06233681665,64dc7c92e20c1d6b74a08da3,,,,,,,decisionTrl,resources/DG.BMP,resources/DP.BMP,Door3,0.45703125,-0.072916667,1,0,0,9.216,optionRight,70,3135,2,16,0,16,0,1,,,,,,,,,,,,,,,,,,,,,,,,,,,,,,,,,,,,,,,
,,,,,,,,2023-08-16_08h37.13.087,HF_wild_card,2022.2.4,Win32,59.93407252,5d6bfd6f3a9682001bd62534,64d2fd46c836a06233681665,64dc7c92e20c1d6b74a08da3,,,,,,,decisionTrl,resources/DBN.BMP,resources/DR.BMP,WildCard_NonEx,0.311197917,-0.014322917,1,0,0,1.8735,optionRight,45,3180,2,17,0,17,0,1,,,,,,,,,,,,,,,,,,,,,,,,,,,,,,,,,,,,,,,
,,,,,,,,2023-08-16_08h37.13.087,HF_wild_card,2022.2.4,Win32,59.93407252,5d6bfd6f3a9682001bd62534,64d2fd46c836a06233681665,64dc7c92e20c1d6b74a08da3,,,,,,,sngl,resources/DP.BMP,resources/Empty.png,Door3,-0.372395833,-0.057291667,1,0,0,0.9144,optionLeft,70,3250,2,18,0,18,0,1,,,,,,,,,,,,,,,,,,,,,,,,,,,,,,,,,,,,,,,
,,,,,,,,2023-08-16_08h37.13.087,HF_wild_card,2022.2.4,Win32,59.93407252,5d6bfd6f3a9682001bd62534,64d2fd46c836a06233681665,64dc7c92e20c1d6b74a08da3,,,,,,,sngl,resources/Empty.png,resources/DR.BMP,WildCard_NonEx,0.330729167,0.002604167,1,0,0,0.9286,optionRight,55,3305,2,19,0,19,0,1,,,,,,,,,,,,,,,,,,,,,,,,,,,,,,,,,,,,,,,
,,,,,,,,2023-08-16_08h37.13.087,HF_wild_card,2022.2.4,Win32,59.93407252,5d6bfd6f3a9682001bd62534,64d2fd46c836a06233681665,64dc7c92e20c1d6b74a08da3,,,,,,,decisionTrl,resources/DY.BMP,resources/DBN.BMP,Door2,-0.475260417,-0.024739583,1,0,0,4.0093,optionLeft,40,3345,2,20,0,20,0,1,,,,,,,,,,,,,,,,,,,,,,,,,,,,,,,,,,,,,,,
,,,,,,,,2023-08-16_08h37.13.087,HF_wild_card,2022.2.4,Win32,59.93407252,5d6bfd6f3a9682001bd62534,64d2fd46c836a06233681665,64dc7c92e20c1d6b74a08da3,,,,,,,ctch,resources/DY.BMP,resources/DP.BMP,Door3,0.372395833,-0.08984375,1,0,0,3.9278,optionRight,70,3415,2,21,0,21,0,1,,,,,,,,,,,,,,,,,,,,,,,,,,,,,,,,,,,,,,,
,,,,,,,,2023-08-16_08h37.13.087,HF_wild_card,2022.2.4,Win32,59.93407252,5d6bfd6f3a9682001bd62534,64d2fd46c836a06233681665,64dc7c92e20c1d6b74a08da3,,,,,,,ctch,resources/DG.BMP,resources/DBN.BMP,Door4,-0.25,0.002604167,1,0,0,1.4412,optionLeft,80,3495,2,22,0,22,0,1,,,,,,,,,,,,,,,,,,,,,,,,,,,,,,,,,,,,,,,
,,,,,,,,2023-08-16_08h37.13.087,HF_wild_card,2022.2.4,Win32,59.93407252,5d6bfd6f3a9682001bd62534,64d2fd46c836a06233681665,64dc7c92e20c1d6b74a08da3,,,,,,,decisionTrl,resources/DY.BMP,resources/DR.BMP,WildCard_NonEx,0.3125,0.0625,1,0,0,8.1836,optionRight,45,3540,2,23,0,23,0,1,,,,,,,,,,,,,,,,,,,,,,,,,,,,,,,,,,,,,,,
,,,,,,,,2023-08-16_08h37.13.087,HF_wild_card,2022.2.4,Win32,59.93407252,5d6bfd6f3a9682001bd62534,64d2fd46c836a06233681665,64dc7c92e20c1d6b74a08da3,,,,,,,decisionTrl,resources/DR.BMP,resources/DP.BMP,Door3,0.251302083,-0.026041667,1,0,0,1.4171,optionRight,70,3610,2,24,0,24,0,1,,,,,,,,,,,,,,,,,,,,,,,,,,,,,,,,,,,,,,,
,,,,,,,,2023-08-16_08h37.13.087,HF_wild_card,2022.2.4,Win32,59.93407252,5d6bfd6f3a9682001bd62534,64d2fd46c836a06233681665,64dc7c92e20c1d6b74a08da3,,,,,,,ctch,resources/DP.BMP,resources/DY.BMP,Door3,-0.33203125,-0.02734375,1,0,0,1.3291,optionLeft,70,3680,2,25,0,25,0,1,,,,,,,,,,,,,,,,,,,,,,,,,,,,,,,,,,,,,,,
,,,,,,,,2023-08-16_08h37.13.087,HF_wild_card,2022.2.4,Win32,59.93407252,5d6bfd6f3a9682001bd62534,64d2fd46c836a06233681665,64dc7c92e20c1d6b74a08da3,,,,,,,decisionTrl,resources/DP.BMP,resources/DG.BMP,Door3,-0.34765625,-0.024739583,1,0,0,1.0108,optionLeft,70,3750,2,26,0,26,0,1,,,,,,,,,,,,,,,,,,,,,,,,,,,,,,,,,,,,,,,
,,,,,,,,2023-08-16_08h37.13.087,HF_wild_card,2022.2.4,Win32,59.93407252,5d6bfd6f3a9682001bd62534,64d2fd46c836a06233681665,64dc7c92e20c1d6b74a08da3,,,,,,,decisionTrl,resources/DBN.BMP,resources/DY.BMP,Door2,0.37109375,-0.01171875,1,0,0,1.2813,optionRight,40,3790,2,27,0,27,0,1,,,,,,,,,,,,,,,,,,,,,,,,,,,,,,,,,,,,,,,
,,,,,,,,2023-08-16_08h37.13.087,HF_wild_card,2022.2.4,Win32,59.93407252,5d6bfd6f3a9682001bd62534,64d2fd46c836a06233681665,64dc7c92e20c1d6b74a08da3,,,,,,,sngl,resources/Empty.png,resources/DR.BMP,WildCard_NonEx,0.384114583,-0.005208333,1,0,0,3.2192,optionRight,45,3835,2,28,0,28,0,1,,,,,,,,,,,,,,,,,,,,,,,,,,,,,,,,,,,,,,,
,,,,,,,,2023-08-16_08h37.13.087,HF_wild_card,2022.2.4,Win32,59.93407252,5d6bfd6f3a9682001bd62534,64d2fd46c836a06233681665,64dc7c92e20c1d6b74a08da3,,,,,,,sngl,resources/Empty.png,resources/DP.BMP,Door3,0.341145833,-0.048177083,1,0,0,1.2898,optionRight,70,3905,2,29,0,29,0,1,,,,,,,,,,,,,,,,,,,,,,,,,,,,,,,,,,,,,,,
,,,,,,,,2023-08-16_08h37.13.087,HF_wild_card,2022.2.4,Win32,59.93407252,5d6bfd6f3a9682001bd62534,64d2fd46c836a06233681665,64dc7c92e20c1d6b74a08da3,,,,,,,decisionTrl,resources/DR.BMP,resources/DY.BMP,Door2,0.364583333,-0.033854167,1,0,0,3.7462,optionRight,40,3945,2,30,0,30,0,1,,,,,,,,,,,,,,,,,,,,,,,,,,,,,,,,,,,,,,,
,,,,,,,,2023-08-16_08h37.13.087,HF_wild_card,2022.2.4,Win32,59.93407252,5d6bfd6f3a9682001bd62534,64d2fd46c836a06233681665,64dc7c92e20c1d6b74a08da3,,,,,,,ctch,resources/DY.BMP,resources/DP.BMP,Door3,0.372395833,-0.013020833,1,0,0,5.2824,optionRight,70,4015,2,31,0,31,0,1,,,,,,,,,,,,,,,,,,,,,,,,,,,,,,,,,,,,,,,
,,,,,,,,2023-08-16_08h37.13.087,HF_wild_card,2022.2.4,Win32,59.93407252,5d6bfd6f3a9682001bd62534,64d2fd46c836a06233681665,64dc7c92e20c1d6b74a08da3,,,,,,,sngl,resources/DY.BMP,resources/Empty.png,Door2,-0.346354167,-0.0078125,1,0,0,1.4364,optionLeft,20,4035,2,32,0,32,0,1,,,,,,,,,,,,,,,,,,,,,,,,,,,,,,,,,,,,,,,
,,,,,,,,2023-08-16_08h37.13.087,HF_wild_card,2022.2.4,Win32,59.93407252,5d6bfd6f3a9682001bd62534,64d2fd46c836a06233681665,64dc7c92e20c1d6b74a08da3,,,,,,,decisionTrl,resources/DG.BMP,resources/DR.BMP,WildCard_NonEx,0.430989583,-0.061197917,1,0,0,2.2758,optionRight,45,4080,2,33,0,33,0,1,,,,,,,,,,,,,,,,,,,,,,,,,,,,,,,,,,,,,,,
,,,,,,,,2023-08-16_08h37.13.087,HF_wild_card,2022.2.4,Win32,59.93407252,5d6bfd6f3a9682001bd62534,64d2fd46c836a06233681665,64dc7c92e20c1d6b74a08da3,,,,,,,sngl,resources/DR.BMP,resources/Empty.png,WildCard_NonEx,-0.375,-0.03515625,1,0,0,1.1485,optionLeft,55,4135,2,34,0,34,0,1,,,,,,,,,,,,,,,,,,,,,,,,,,,,,,,,,,,,,,,
,,,,,,,,2023-08-16_08h37.13.087,HF_wild_card,2022.2.4,Win32,59.93407252,5d6bfd6f3a9682001bd62534,64d2fd46c836a06233681665,64dc7c92e20c1d6b74a08da3,,,,,,,ctch,resources/DP.BMP,resources/DY.BMP,Door3,-0.373697917,-0.06640625,1,0,0,1.0278,optionLeft,70,4205,2,35,0,35,0,1,,,,,,,,,,,,,,,,,,,,,,,,,,,,,,,,,,,,,,,
,,,,,,,,2023-08-16_08h37.13.087,HF_wild_card,2022.2.4,Win32,59.93407252,5d6bfd6f3a9682001bd62534,64d2fd46c836a06233681665,64dc7c92e20c1d6b74a08da3,,,,,,,decisionTrl,resources/DR.BMP,resources/DBN.BMP,WildCard_NonEx,-0.377604167,-0.020833333,1,0,0,3.1937,optionLeft,45,4250,2,36,0,36,0,1,,,,,,,,,,,,,,,,,,,,,,,,,,,,,,,,,,,,,,,
,,,,,,,,2023-08-16_08h37.13.087,HF_wild_card,2022.2.4,Win32,59.93407252,5d6bfd6f3a9682001bd62534,64d2fd46c836a06233681665,64dc7c92e20c1d6b74a08da3,,,,,,,decisionTrl,resources/DP.BMP,resources/DG.BMP,Door3,-0.3671875,0.002604167,1,0,0,2.9839,optionLeft,70,4320,2,37,0,37,0,1,,,,,,,,,,,,,,,,,,,,,,,,,,,,,,,,,,,,,,,
,,,,,,,,2023-08-16_08h37.13.087,HF_wild_card,2022.2.4,Win32,59.93407252,5d6bfd6f3a9682001bd62534,64d2fd46c836a06233681665,64dc7c92e20c1d6b74a08da3,,,,,,,sngl,resources/Empty.png,resources/DY.BMP,Door2,0.354166667,0.00390625,1,0,0,2.2086,optionRight,40,4360,2,38,0,38,0,1,,,,,,,,,,,,,,,,,,,,,,,,,,,,,,,,,,,,,,,
,,,,,,,,2023-08-16_08h37.13.087,HF_wild_card,2022.2.4,Win32,59.93407252,5d6bfd6f3a9682001bd62534,64d2fd46c836a06233681665,64dc7c92e20c1d6b74a08da3,,,,,,,decisionTrl,resources/DBN.BMP,resources/DY.BMP,Door2,0.436197917,0.01953125,1,0,0,1.9764,optionRight,40,4400,2,39,0,39,0,1,,,,,,,,,,,,,,,,,,,,,,,,,,,,,,,,,,,,,,,
,,,,,,,,2023-08-16_08h37.13.087,HF_wild_card,2022.2.4,Win32,59.93407252,5d6bfd6f3a9682001bd62534,64d2fd46c836a06233681665,64dc7c92e20c1d6b74a08da3,,,,,,,decisionTrl,resources/DBN.BMP,resources/DY.BMP,Door2,0.397135417,0.016927083,1,0,0,3.5777,optionRight,40,4440,2,40,0,40,0,1,,,,,,,,,,,,,,,,,,,,,,,,,,,,,,,,,,,,,,,
,,,,,,,,2023-08-16_08h37.13.087,HF_wild_card,2022.2.4,Win32,59.93407252,5d6bfd6f3a9682001bd62534,64d2fd46c836a06233681665,64dc7c92e20c1d6b74a08da3,,,,,,,decisionTrl,resources/DBN.BMP,resources/DY.BMP,Door2,0.356770833,0.00390625,1,0,0,2.3956,optionRight,20,4460,2,41,0,41,0,1,,,,,,,,,,,,,,,,,,,,,,,,,,,,,,,,,,,,,,,
,,,,,,,,2023-08-16_08h37.13.087,HF_wild_card,2022.2.4,Win32,59.93407252,5d6bfd6f3a9682001bd62534,64d2fd46c836a06233681665,64dc7c92e20c1d6b74a08da3,,,,,,,decisionTrl,resources/DG.BMP,resources/DP.BMP,Door3,0.266927083,-0.022135417,1,0,0,4.3602,optionRight,70,4530,2,42,0,42,0,1,,,,,,,,,,,,,,,,,,,,,,,,,,,,,,,,,,,,,,,
,,,,,,,,2023-08-16_08h37.13.087,HF_wild_card,2022.2.4,Win32,59.93407252,5d6bfd6f3a9682001bd62534,64d2fd46c836a06233681665,64dc7c92e20c1d6b74a08da3,,,,,,,decisionTrl,resources/DG.BMP,resources/DP.BMP,Door3,0.354166667,0.014322917,1,0,0,2.1051,optionRight,70,4600,2,43,0,43,0,1,,,,,,,,,,,,,,,,,,,,,,,,,,,,,,,,,,,,,,,
,,,,,,,,2023-08-16_08h37.13.087,HF_wild_card,2022.2.4,Win32,59.93407252,5d6bfd6f3a9682001bd62534,64d2fd46c836a06233681665,64dc7c92e20c1d6b74a08da3,,,,,,,,,,,,,,,,,,,,,,,,,,1,0,1,0,1,,,,,,,,,,,,,,,,,,,,,,,,,,,,,,,,,,
,,,,,,,,2023-08-16_08h37.13.087,HF_wild_card,2022.2.4,Win32,59.93407252,5d6bfd6f3a9682001bd62534,64d2fd46c836a06233681665,64dc7c92e20c1d6b74a08da3,,,,,,,decisionTrl,resources/DG.BMP,resources/DP.BMP,Door3,0.42578125,-0.194010417,1,0,0,1.5582,optionRight,70,4670,3,0,0,0,0,1,,,,,,,,,,,,,,,,,,,,,,,,,,,,,,,,,,,,,,,
,,,,,,,,2023-08-16_08h37.13.087,HF_wild_card,2022.2.4,Win32,59.93407252,5d6bfd6f3a9682001bd62534,64d2fd46c836a06233681665,64dc7c92e20c1d6b74a08da3,,,,,,,ctch,resources/DBN.BMP,resources/DG.BMP,Door4,0.380208333,-0.04296875,1,0,0,0.9937,optionRight,80,4750,3,1,0,1,0,1,,,,,,,,,,,,,,,,,,,,,,,,,,,,,,,,,,,,,,,
,,,,,,,,2023-08-16_08h37.13.087,HF_wild_card,2022.2.4,Win32,59.93407252,5d6bfd6f3a9682001bd62534,64d2fd46c836a06233681665,64dc7c92e20c1d6b74a08da3,,,,,,,sngl,resources/Empty.png,resources/DP.BMP,Door3,0.408854167,-0.049479167,1,0,0,0.8779,optionRight,70,4820,3,2,0,2,0,1,,,,,,,,,,,,,,,,,,,,,,,,,,,,,,,,,,,,,,,
,,,,,,,,2023-08-16_08h37.13.087,HF_wild_card,2022.2.4,Win32,59.93407252,5d6bfd6f3a9682001bd62534,64d2fd46c836a06233681665,64dc7c92e20c1d6b74a08da3,,,,,,,ctch,resources/DBN.BMP,resources/DG.BMP,Door4,0.462239583,-0.044270833,1,0,0,1.0168,optionRight,80,4900,3,3,0,3,0,1,,,,,,,,,,,,,,,,,,,,,,,,,,,,,,,,,,,,,,,
,,,,,,,,2023-08-16_08h37.13.087,HF_wild_card,2022.2.4,Win32,59.93407252,5d6bfd6f3a9682001bd62534,64d2fd46c836a06233681665,64dc7c92e20c1d6b74a08da3,,,,,,,decisionTrl,resources/DBN.BMP,resources/DY.BMP,Door2,0.483072917,-0.069010417,1,0,0,0.9296,optionRight,40,4940,3,4,0,4,0,1,,,,,,,,,,,,,,,,,,,,,,,,,,,,,,,,,,,,,,,
,,,,,,,,2023-08-16_08h37.13.087,HF_wild_card,2022.2.4,Win32,59.93407252,5d6bfd6f3a9682001bd62534,64d2fd46c836a06233681665,64dc7c92e20c1d6b74a08da3,,,,,,,sngl,resources/Empty.png,resources/DG.BMP,Door4,0.342447917,-0.036458333,1,0,0,0.9284,optionRight,60,5000,3,5,0,5,0,1,,,,,,,,,,,,,,,,,,,,,,,,,,,,,,,,,,,,,,,
,,,,,,,,2023-08-16_08h37.13.087,HF_wild_card,2022.2.4,Win32,59.93407252,5d6bfd6f3a9682001bd62534,64d2fd46c836a06233681665,64dc7c92e20c1d6b74a08da3,,,,,,,ctch,resources/DG.BMP,resources/DBN.BMP,Door4,-0.315104167,0.041666667,1,0,0,1.0932,optionLeft,80,5080,3,6,0,6,0,1,,,,,,,,,,,,,,,,,,,,,,,,,,,,,,,,,,,,,,,
,,,,,,,,2023-08-16_08h37.13.087,HF_wild_card,2022.2.4,Win32,59.93407252,5d6bfd6f3a9682001bd62534,64d2fd46c836a06233681665,64dc7c92e20c1d6b74a08da3,,,,,,,sngl,resources/Empty.png,resources/DBN.BMP,Door1,0.424479167,-0.00390625,1,0,0,0.8917,optionRight,30,5110,3,7,0,7,0,1,,,,,,,,,,,,,,,,,,,,,,,,,,,,,,,,,,,,,,,
,,,,,,,,2023-08-16_08h37.13.087,HF_wild_card,2022.2.4,Win32,59.93407252,5d6bfd6f3a9682001bd62534,64d2fd46c836a06233681665,64dc7c92e20c1d6b74a08da3,,,,,,,decisionTrl,resources/DR.BMP,resources/DG.BMP,WildCard_NonEx,-0.338541667,-0.01953125,1,0,0,2.189,optionLeft,45,5155,3,8,0,8,0,1,,,,,,,,,,,,,,,,,,,,,,,,,,,,,,,,,,,,,,,
,,,,,,,,2023-08-16_08h37.13.087,HF_wild_card,2022.2.4,Win32,59.93407252,5d6bfd6f3a9682001bd62534,64d2fd46c836a06233681665,64dc7c92e20c1d6b74a08da3,,,,,,,decisionTrl,resources/DR.BMP,resources/DBN.BMP,WildCard_NonEx,-0.41015625,-0.03515625,1,0,0,1.4095,optionLeft,55,5210,3,9,0,9,0,1,,,,,,,,,,,,,,,,,,,,,,,,,,,,,,,,,,,,,,,
,,,,,,,,2023-08-16_08h37.13.087,HF_wild_card,2022.2.4,Win32,59.93407252,5d6bfd6f3a9682001bd62534,64d2fd46c836a06233681665,64dc7c92e20c1d6b74a08da3,,,,,,,decisionTrl,resources/DY.BMP,resources/DBN.BMP,Door2,-0.270833333,-0.006510417,1,0,0,1.2785,optionLeft,20,5230,3,10,0,10,0,1,,,,,,,,,,,,,,,,,,,,,,,,,,,,,,,,,,,,,,,
,,,,,,,,2023-08-16_08h37.13.087,HF_wild_card,2022.2.4,Win32,59.93407252,5d6bfd6f3a9682001bd62534,64d2fd46c836a06233681665,64dc7c92e20c1d6b74a08da3,,,,,,,decisionTrl,resources/DY.BMP,resources/DR.BMP,Door2,-0.3828125,-0.014322917,1,0,0,2.1619,optionLeft,40,5270,3,11,0,11,0,1,,,,,,,,,,,,,,,,,,,,,,,,,,,,,,,,,,,,,,,
,,,,,,,,2023-08-16_08h37.13.087,HF_wild_card,2022.2.4,Win32,59.93407252,5d6bfd6f3a9682001bd62534,64d2fd46c836a06233681665,64dc7c92e20c1d6b74a08da3,,,,,,,decisionTrl,resources/DBN.BMP,resources/DR.BMP,WildCard_NonEx,0.319010417,-0.037760417,1,0,0,1.1436,optionRight,55,5325,3,12,0,12,0,1,,,,,,,,,,,,,,,,,,,,,,,,,,,,,,,,,,,,,,,
,,,,,,,,2023-08-16_08h37.13.087,HF_wild_card,2022.2.4,Win32,59.93407252,5d6bfd6f3a9682001bd62534,64d2fd46c836a06233681665,64dc7c92e20c1d6b74a08da3,,,,,,,decisionTrl,resources/DP.BMP,resources/DG.BMP,Door3,-0.428385417,-0.046875,1,0,0,1.5246,optionLeft,70,5395,3,13,0,13,0,1,,,,,,,,,,,,,,,,,,,,,,,,,,,,,,,,,,,,,,,
,,,,,,,,2023-08-16_08h37.13.087,HF_wild_card,2022.2.4,Win32,59.93407252,5d6bfd6f3a9682001bd62534,64d2fd46c836a06233681665,64dc7c92e20c1d6b74a08da3,,,,,,,decisionTrl,resources/DBN.BMP,resources/DY.BMP,Door2,0.453125,-0.016927083,1,0,0,4.5301,optionRight,40,5435,3,14,0,14,0,1,,,,,,,,,,,,,,,,,,,,,,,,,,,,,,,,,,,,,,,
,,,,,,,,2023-08-16_08h37.13.087,HF_wild_card,2022.2.4,Win32,59.93407252,5d6bfd6f3a9682001bd62534,64d2fd46c836a06233681665,64dc7c92e20c1d6b74a08da3,,,,,,,decisionTrl,resources/DP.BMP,resources/DG.BMP,Door3,-0.352864583,-0.037760417,1,0,0,7.3084,optionLeft,70,5505,3,15,0,15,0,1,,,,,,,,,,,,,,,,,,,,,,,,,,,,,,,,,,,,,,,
,,,,,,,,2023-08-16_08h37.13.087,HF_wild_card,2022.2.4,Win32,59.93407252,5d6bfd6f3a9682001bd62534,64d2fd46c836a06233681665,64dc7c92e20c1d6b74a08da3,,,,,,,decisionTrl,resources/DY.BMP,resources/DBN.BMP,Door2,-0.380208333,0.020833333,1,0,0,1.4822,optionLeft,20,5525,3,16,0,16,0,1,,,,,,,,,,,,,,,,,,,,,,,,,,,,,,,,,,,,,,,
,,,,,,,,2023-08-16_08h37.13.087,HF_wild_card,2022.2.4,Win32,59.93407252,5d6bfd6f3a9682001bd62534,64d2fd46c836a06233681665,64dc7c92e20c1d6b74a08da3,,,,,,,decisionTrl,resources/DP.BMP,resources/DR.BMP,Door3,-0.395833333,-0.016927083,1,0,0,0.985,optionLeft,70,5595,3,17,0,17,0,1,,,,,,,,,,,,,,,,,,,,,,,,,,,,,,,,,,,,,,,
,,,,,,,,2023-08-16_08h37.13.087,HF_wild_card,2022.2.4,Win32,59.93407252,5d6bfd6f3a9682001bd62534,64d2fd46c836a06233681665,64dc7c92e20c1d6b74a08da3,,,,,,,decisionTrl,resources/DR.BMP,resources/DP.BMP,Door3,0.33203125,-0.01171875,1,0,0,1.1349,optionRight,70,5665,3,18,0,18,0,1,,,,,,,,,,,,,,,,,,,,,,,,,,,,,,,,,,,,,,,
,,,,,,,,2023-08-16_08h37.13.087,HF_wild_card,2022.2.4,Win32,59.93407252,5d6bfd6f3a9682001bd62534,64d2fd46c836a06233681665,64dc7c92e20c1d6b74a08da3,,,,,,,decisionTrl,resources/DP.BMP,resources/DG.BMP,Door3,-0.35546875,-0.015625,1,0,0,1.1834,optionLeft,70,5735,3,19,0,19,0,1,,,,,,,,,,,,,,,,,,,,,,,,,,,,,,,,,,,,,,,
,,,,,,,,2023-08-16_08h37.13.087,HF_wild_card,2022.2.4,Win32,59.93407252,5d6bfd6f3a9682001bd62534,64d2fd46c836a06233681665,64dc7c92e20c1d6b74a08da3,,,,,,,ctch,resources/DG.BMP,resources/DBN.BMP,Door4,-0.319010417,-0.013020833,1,0,0,1.1782,optionLeft,80,5815,3,20,0,20,0,1,,,,,,,,,,,,,,,,,,,,,,,,,,,,,,,,,,,,,,,
,,,,,,,,2023-08-16_08h37.13.087,HF_wild_card,2022.2.4,Win32,59.93407252,5d6bfd6f3a9682001bd62534,64d2fd46c836a06233681665,64dc7c92e20c1d6b74a08da3,,,,,,,sngl,resources/DR.BMP,resources/Empty.png,WildCard_NonEx,-0.395833333,-0.0390625,1,0,0,0.9136,optionLeft,45,5860,3,21,0,21,0,1,,,,,,,,,,,,,,,,,,,,,,,,,,,,,,,,,,,,,,,
,,,,,,,,2023-08-16_08h37.13.087,HF_wild_card,2022.2.4,Win32,59.93407252,5d6bfd6f3a9682001bd62534,64d2fd46c836a06233681665,64dc7c92e20c1d6b74a08da3,,,,,,,decisionTrl,resources/DG.BMP,resources/DP.BMP,Door3,0.423177083,-0.01953125,1,0,0,0.9099,optionRight,70,5930,3,22,0,22,0,1,,,,,,,,,,,,,,,,,,,,,,,,,,,,,,,,,,,,,,,
,,,,,,,,2023-08-16_08h37.13.087,HF_wild_card,2022.2.4,Win32,59.93407252,5d6bfd6f3a9682001bd62534,64d2fd46c836a06233681665,64dc7c92e20c1d6b74a08da3,,,,,,,ctch,resources/DP.BMP,resources/DY.BMP,Door3,-0.322916667,-0.0390625,1,0,0,3.5619,optionLeft,70,6000,3,23,0,23,0,1,,,,,,,,,,,,,,,,,,,,,,,,,,,,,,,,,,,,,,,
,,,,,,,,2023-08-16_08h37.13.087,HF_wild_card,2022.2.4,Win32,59.93407252,5d6bfd6f3a9682001bd62534,64d2fd46c836a06233681665,64dc7c92e20c1d6b74a08da3,,,,,,,ctch,resources/DY.BMP,resources/DP.BMP,Door3,0.341145833,-0.037760417,1,0,0,0.9273,optionRight,70,6070,3,24,0,24,0,1,,,,,,,,,,,,,,,,,,,,,,,,,,,,,,,,,,,,,,,
,,,,,,,,2023-08-16_08h37.13.087,HF_wild_card,2022.2.4,Win32,59.93407252,5d6bfd6f3a9682001bd62534,64d2fd46c836a06233681665,64dc7c92e20c1d6b74a08da3,,,,,,,decisionTrl,resources/DG.BMP,resources/DR.BMP,Door4,-0.436197917,-0.110677083,1,0,0,1.8588,optionLeft,80,6150,3,25,0,25,0,1,,,,,,,,,,,,,,,,,,,,,,,,,,,,,,,,,,,,,,,
,,,,,,,,2023-08-16_08h37.13.087,HF_wild_card,2022.2.4,Win32,59.93407252,5d6bfd6f3a9682001bd62534,64d2fd46c836a06233681665,64dc7c92e20c1d6b74a08da3,,,,,,,ctch,resources/DY.BMP,resources/DP.BMP,Door3,0.330729167,-0.053385417,1,0,0,1.1442,optionRight,70,6220,3,26,0,26,0,1,,,,,,,,,,,,,,,,,,,,,,,,,,,,,,,,,,,,,,,
,,,,,,,,2023-08-16_08h37.13.087,HF_wild_card,2022.2.4,Win32,59.93407252,5d6bfd6f3a9682001bd62534,64d2fd46c836a06233681665,64dc7c92e20c1d6b74a08da3,,,,,,,ctch,resources/DP.BMP,resources/DY.BMP,Door3,-0.33984375,-0.016927083,1,0,0,1.0304,optionLeft,70,6290,3,27,0,27,0,1,,,,,,,,,,,,,,,,,,,,,,,,,,,,,,,,,,,,,,,
,,,,,,,,2023-08-16_08h37.13.087,HF_wild_card,2022.2.4,Win32,59.93407252,5d6bfd6f3a9682001bd62534,64d2fd46c836a06233681665,64dc7c92e20c1d6b74a08da3,,,,,,,decisionTrl,resources/DY.BMP,resources/DBN.BMP,Door2,-0.359375,-0.03515625,1,0,0,1.3424,optionLeft,40,6330,3,28,0,28,0,1,,,,,,,,,,,,,,,,,,,,,,,,,,,,,,,,,,,,,,,
,,,,,,,,2023-08-16_08h37.13.087,HF_wild_card,2022.2.4,Win32,59.93407252,5d6bfd6f3a9682001bd62534,64d2fd46c836a06233681665,64dc7c92e20c1d6b74a08da3,,,,,,,sngl,resources/DP.BMP,resources/Empty.png,Door3,-0.372395833,-0.013020833,1,0,0,0.9132,optionLeft,70,6400,3,29,0,29,0,1,,,,,,,,,,,,,,,,,,,,,,,,,,,,,,,,,,,,,,,
,,,,,,,,2023-08-16_08h37.13.087,HF_wild_card,2022.2.4,Win32,59.93407252,5d6bfd6f3a9682001bd62534,64d2fd46c836a06233681665,64dc7c92e20c1d6b74a08da3,,,,,,,sngl,resources/DY.BMP,resources/Empty.png,Door2,-0.350260417,0.002604167,1,0,0,0.9121,optionLeft,40,6440,3,30,0,30,0,1,,,,,,,,,,,,,,,,,,,,,,,,,,,,,,,,,,,,,,,
,,,,,,,,2023-08-16_08h37.13.087,HF_wild_card,2022.2.4,Win32,59.93407252,5d6bfd6f3a9682001bd62534,64d2fd46c836a06233681665,64dc7c92e20c1d6b74a08da3,,,,,,,sngl,resources/DBN.BMP,resources/Empty.png,Door1,-0.364583333,-0.009114583,1,0,0,0.9756,optionLeft,30,6470,3,31,0,31,0,1,,,,,,,,,,,,,,,,,,,,,,,,,,,,,,,,,,,,,,,
,,,,,,,,2023-08-16_08h37.13.087,HF_wild_card,2022.2.4,Win32,59.93407252,5d6bfd6f3a9682001bd62534,64d2fd46c836a06233681665,64dc7c92e20c1d6b74a08da3,,,,,,,decisionTrl,resources/DY.BMP,resources/DBN.BMP,Door2,-0.350260417,-0.0078125,1,0,0,1.241,optionLeft,40,6510,3,32,0,32,0,1,,,,,,,,,,,,,,,,,,,,,,,,,,,,,,,,,,,,,,,
,,,,,,,,2023-08-16_08h37.13.087,HF_wild_card,2022.2.4,Win32,59.93407252,5d6bfd6f3a9682001bd62534,64d2fd46c836a06233681665,64dc7c92e20c1d6b74a08da3,,,,,,,decisionTrl,resources/DBN.BMP,resources/DY.BMP,Door2,0.334635417,-0.053385417,1,0,0,1.0627,optionRight,40,6550,3,33,0,33,0,1,,,,,,,,,,,,,,,,,,,,,,,,,,,,,,,,,,,,,,,
,,,,,,,,2023-08-16_08h37.13.087,HF_wild_card,2022.2.4,Win32,59.93407252,5d6bfd6f3a9682001bd62534,64d2fd46c836a06233681665,64dc7c92e20c1d6b74a08da3,,,,,,,sngl,resources/Empty.png,resources/DR.BMP,WildCard_NonEx,0.29296875,-0.057291667,1,0,0,0.9179,optionRight,55,6605,3,34,0,34,0,1,,,,,,,,,,,,,,,,,,,,,,,,,,,,,,,,,,,,,,,
,,,,,,,,2023-08-16_08h37.13.087,HF_wild_card,2022.2.4,Win32,59.93407252,5d6bfd6f3a9682001bd62534,64d2fd46c836a06233681665,64dc7c92e20c1d6b74a08da3,,,,,,,sngl,resources/Empty.png,resources/DR.BMP,WildCard_NonEx,0.294270833,-0.040364583,1,0,0,0.9642,optionRight,45,6650,3,35,0,35,0,1,,,,,,,,,,,,,,,,,,,,,,,,,,,,,,,,,,,,,,,
,,,,,,,,2023-08-16_08h37.13.087,HF_wild_card,2022.2.4,Win32,59.93407252,5d6bfd6f3a9682001bd62534,64d2fd46c836a06233681665,64dc7c92e20c1d6b74a08da3,,,,,,,sngl,resources/DR.BMP,resources/Empty.png,WildCard_NonEx,-0.359375,-0.002604167,1,0,0,0.8765,optionLeft,55,6705,3,36,0,36,0,1,,,,,,,,,,,,,,,,,,,,,,,,,,,,,,,,,,,,,,,
,,,,,,,,2023-08-16_08h37.13.087,HF_wild_card,2022.2.4,Win32,59.93407252,5d6bfd6f3a9682001bd62534,64d2fd46c836a06233681665,64dc7c92e20c1d6b74a08da3,,,,,,,decisionTrl,resources/DG.BMP,resources/DP.BMP,Door3,0.411458333,-0.037760417,1,0,0,0.943,optionRight,70,6775,3,37,0,37,0,1,,,,,,,,,,,,,,,,,,,,,,,,,,,,,,,,,,,,,,,
,,,,,,,,2023-08-16_08h37.13.087,HF_wild_card,2022.2.4,Win32,59.93407252,5d6bfd6f3a9682001bd62534,64d2fd46c836a06233681665,64dc7c92e20c1d6b74a08da3,,,,,,,sngl,resources/Empty.png,resources/DY.BMP,Door2,0.278645833,-0.04296875,1,0,0,0.9262,optionRight,20,6795,3,38,0,38,0,1,,,,,,,,,,,,,,,,,,,,,,,,,,,,,,,,,,,,,,,
,,,,,,,,2023-08-16_08h37.13.087,HF_wild_card,2022.2.4,Win32,59.93407252,5d6bfd6f3a9682001bd62534,64d2fd46c836a06233681665,64dc7c92e20c1d6b74a08da3,,,,,,,decisionTrl,resources/DG.BMP,resources/DP.BMP,Door4,-0.376302083,-0.053385417,1,0,0,1.1926,optionLeft,60,6855,3,39,0,39,0,1,,,,,,,,,,,,,,,,,,,,,,,,,,,,,,,,,,,,,,,
,,,,,,,,2023-08-16_08h37.13.087,HF_wild_card,2022.2.4,Win32,59.93407252,5d6bfd6f3a9682001bd62534,64d2fd46c836a06233681665,64dc7c92e20c1d6b74a08da3,,,,,,,decisionTrl,resources/DBN.BMP,resources/DY.BMP,Door2,0.30078125,-0.0703125,1,0,0,1.1929,optionRight,20,6875,3,40,0,40,0,1,,,,,,,,,,,,,,,,,,,,,,,,,,,,,,,,,,,,,,,
,,,,,,,,2023-08-16_08h37.13.087,HF_wild_card,2022.2.4,Win32,59.93407252,5d6bfd6f3a9682001bd62534,64d2fd46c836a06233681665,64dc7c92e20c1d6b74a08da3,,,,,,,sngl,resources/DG.BMP,resources/Empty.png,Door4,-0.311197917,0.01953125,1,0,0,0.9776,optionLeft,80,6955,3,41,0,41,0,1,,,,,,,,,,,,,,,,,,,,,,,,,,,,,,,,,,,,,,,
,,,,,,,,2023-08-16_08h37.13.087,HF_wild_card,2022.2.4,Win32,59.93407252,5d6bfd6f3a9682001bd62534,64d2fd46c836a06233681665,64dc7c92e20c1d6b74a08da3,,,,,,,decisionTrl,resources/DP.BMP,resources/DG.BMP,Door3,-0.321614583,-0.020833333,1,0,0,1.7929,optionLeft,70,7025,3,42,0,42,0,1,,,,,,,,,,,,,,,,,,,,,,,,,,,,,,,,,,,,,,,
,,,,,,,,2023-08-16_08h37.13.087,HF_wild_card,2022.2.4,Win32,59.93407252,5d6bfd6f3a9682001bd62534,64d2fd46c836a06233681665,64dc7c92e20c1d6b74a08da3,,,,,,,decisionTrl,resources/DR.BMP,resources/DY.BMP,Door2,0.317708333,-0.040364583,1,0,0,1.3851,optionRight,20,7045,3,43,0,43,0,1,,,,,,,,,,,,,,,,,,,,,,,,,,,,,,,,,,,,,,,
,,,,,,,,2023-08-16_08h37.13.087,HF_wild_card,2022.2.4,Win32,59.93407252,5d6bfd6f3a9682001bd62534,64d2fd46c836a06233681665,64dc7c92e20c1d6b74a08da3,,,,,,,,,,,,,,,,,,,,,,,,,,2,0,2,0,1,,,,,,,,,,,,,,,,,,,,,,,,,,,,,,,,,,
,,,,,,,,2023-08-16_08h37.13.087,HF_wild_card,2022.2.4,Win32,59.93407252,5d6bfd6f3a9682001bd62534,64d2fd46c836a06233681665,64dc7c92e20c1d6b74a08da3,,,,,,,decisionTrl,resources/DG.BMP,resources/DP.BMP,Door3,0.30078125,-0.134114583,1,0,0,1.2127,optionRight,70,7115,4,0,0,0,0,1,,,,,,,,,,,,,,,,,,,,,,,,,,,,,,,,,,,,,,,
,,,,,,,,2023-08-16_08h37.13.087,HF_wild_card,2022.2.4,Win32,59.93407252,5d6bfd6f3a9682001bd62534,64d2fd46c836a06233681665,64dc7c92e20c1d6b74a08da3,,,,,,,decisionTrl,resources/DB.BMP,resources/DBN.BMP,WildCard_Ex,-0.333333333,-0.046875,1,0,0,1.5418,optionLeft,55,7170,4,1,0,1,0,1,,,,,,,,,,,,,,,,,,,,,,,,,,,,,,,,,,,,,,,
,,,,,,,,2023-08-16_08h37.13.087,HF_wild_card,2022.2.4,Win32,59.93407252,5d6bfd6f3a9682001bd62534,64d2fd46c836a06233681665,64dc7c92e20c1d6b74a08da3,,,,,,,decisionTrl,resources/DY.BMP,resources/DBN.BMP,Door2,-0.376302083,-0.014322917,1,0,0,1.104,optionLeft,20,7190,4,2,0,2,0,1,,,,,,,,,,,,,,,,,,,,,,,,,,,,,,,,,,,,,,,
,,,,,,,,2023-08-16_08h37.13.087,HF_wild_card,2022.2.4,Win32,59.93407252,5d6bfd6f3a9682001bd62534,64d2fd46c836a06233681665,64dc7c92e20c1d6b74a08da3,,,,,,,sngl,resources/DB.BMP,resources/Empty.png,WildCard_Ex,-0.388020833,-0.002604167,1,0,0,0.9613,optionLeft,45,7235,4,3,0,3,0,1,,,,,,,,,,,,,,,,,,,,,,,,,,,,,,,,,,,,,,,
,,,,,,,,2023-08-16_08h37.13.087,HF_wild_card,2022.2.4,Win32,59.93407252,5d6bfd6f3a9682001bd62534,64d2fd46c836a06233681665,64dc7c92e20c1d6b74a08da3,,,,,,,decisionTrl,resources/DP.BMP,resources/DG.BMP,Door3,-0.416666667,-0.075520833,1,0,0,2.139,optionLeft,70,7305,4,4,0,4,0,1,,,,,,,,,,,,,,,,,,,,,,,,,,,,,,,,,,,,,,,
,,,,,,,,2023-08-16_08h37.13.087,HF_wild_card,2022.2.4,Win32,59.93407252,5d6bfd6f3a9682001bd62534,64d2fd46c836a06233681665,64dc7c92e20c1d6b74a08da3,,,,,,,sngl,resources/Empty.png,resources/DG.BMP,Door4,0.299479167,-0.016927083,1,0,0,0.9493,optionRight,80,7385,4,5,0,5,0,1,,,,,,,,,,,,,,,,,,,,,,,,,,,,,,,,,,,,,,,
,,,,,,,,2023-08-16_08h37.13.087,HF_wild_card,2022.2.4,Win32,59.93407252,5d6bfd6f3a9682001bd62534,64d2fd46c836a06233681665,64dc7c92e20c1d6b74a08da3,,,,,,,sngl,resources/Empty.png,resources/DB.BMP,WildCard_Ex,0.428385417,0.002604167,1,0,0,0.9926,optionRight,45,7430,4,6,0,6,0,1,,,,,,,,,,,,,,,,,,,,,,,,,,,,,,,,,,,,,,,
,,,,,,,,2023-08-16_08h37.13.087,HF_wild_card,2022.2.4,Win32,59.93407252,5d6bfd6f3a9682001bd62534,64d2fd46c836a06233681665,64dc7c92e20c1d6b74a08da3,,,,,,,sngl,resources/DG.BMP,resources/Empty.png,Door4,-0.279947917,-0.013020833,1,0,0,1.5598,optionLeft,60,7490,4,7,0,7,0,1,,,,,,,,,,,,,,,,,,,,,,,,,,,,,,,,,,,,,,,
,,,,,,,,2023-08-16_08h37.13.087,HF_wild_card,2022.2.4,Win32,59.93407252,5d6bfd6f3a9682001bd62534,64d2fd46c836a06233681665,64dc7c92e20c1d6b74a08da3,,,,,,,ctch,resources/DY.BMP,resources/DP.BMP,Door3,0.315104167,-0.069010417,1,0,0,1.0065,optionRight,70,7560,4,8,0,8,0,1,,,,,,,,,,,,,,,,,,,,,,,,,,,,,,,,,,,,,,,
,,,,,,,,2023-08-16_08h37.13.087,HF_wild_card,2022.2.4,Win32,59.93407252,5d6bfd6f3a9682001bd62534,64d2fd46c836a06233681665,64dc7c92e20c1d6b74a08da3,,,,,,,decisionTrl,resources/DG.BMP,resources/DP.BMP,Door3,0.3203125,-0.046875,1,0,0,1.0108,optionRight,70,7630,4,9,0,9,0,1,,,,,,,,,,,,,,,,,,,,,,,,,,,,,,,,,,,,,,,
,,,,,,,,2023-08-16_08h37.13.087,HF_wild_card,2022.2.4,Win32,59.93407252,5d6bfd6f3a9682001bd62534,64d2fd46c836a06233681665,64dc7c92e20c1d6b74a08da3,,,,,,,sngl,resources/DB.BMP,resources/Empty.png,WildCard_Ex,-0.311197917,0.001302083,1,0,0,1.0271,optionLeft,55,7685,4,10,0,10,0,1,,,,,,,,,,,,,,,,,,,,,,,,,,,,,,,,,,,,,,,
,,,,,,,,2023-08-16_08h37.13.087,HF_wild_card,2022.2.4,Win32,59.93407252,5d6bfd6f3a9682001bd62534,64d2fd46c836a06233681665,64dc7c92e20c1d6b74a08da3,,,,,,,sngl,resources/DY.BMP,resources/Empty.png,Door2,-0.430989583,-0.014322917,1,0,0,1.0607,optionLeft,20,7705,4,11,0,11,0,1,,,,,,,,,,,,,,,,,,,,,,,,,,,,,,,,,,,,,,,
,,,,,,,,2023-08-16_08h37.13.087,HF_wild_card,2022.2.4,Win32,59.93407252,5d6bfd6f3a9682001bd62534,64d2fd46c836a06233681665,64dc7c92e20c1d6b74a08da3,,,,,,,decisionTrl,resources/DBN.BMP,resources/DB.BMP,WildCard_Ex,0.303385417,-0.001302083,1,0,0,1.3193,optionRight,55,7760,4,12,0,12,0,1,,,,,,,,,,,,,,,,,,,,,,,,,,,,,,,,,,,,,,,
,,,,,,,,2023-08-16_08h37.13.087,HF_wild_card,2022.2.4,Win32,59.93407252,5d6bfd6f3a9682001bd62534,64d2fd46c836a06233681665,64dc7c92e20c1d6b74a08da3,,,,,,,decisionTrl,resources/DP.BMP,resources/DB.BMP,Door3,-0.401041667,-0.03125,1,0,0,1.2087,optionLeft,70,7830,4,13,0,13,0,1,,,,,,,,,,,,,,,,,,,,,,,,,,,,,,,,,,,,,,,
,,,,,,,,2023-08-16_08h37.13.087,HF_wild_card,2022.2.4,Win32,59.93407252,5d6bfd6f3a9682001bd62534,64d2fd46c836a06233681665,64dc7c92e20c1d6b74a08da3,,,,,,,decisionTrl,resources/DG.BMP,resources/DP.BMP,Door3,0.360677083,-0.044270833,1,0,0,0.9758,optionRight,70,7900,4,14,0,14,0,1,,,,,,,,,,,,,,,,,,,,,,,,,,,,,,,,,,,,,,,
,,,,,,,,2023-08-16_08h37.13.087,HF_wild_card,2022.2.4,Win32,59.93407252,5d6bfd6f3a9682001bd62534,64d2fd46c836a06233681665,64dc7c92e20c1d6b74a08da3,,,,,,,decisionTrl,resources/DP.BMP,resources/DG.BMP,Door3,-0.4453125,-0.0234375,1,0,0,0.9432,optionLeft,70,7970,4,15,0,15,0,1,,,,,,,,,,,,,,,,,,,,,,,,,,,,,,,,,,,,,,,
,,,,,,,,2023-08-16_08h37.13.087,HF_wild_card,2022.2.4,Win32,59.93407252,5d6bfd6f3a9682001bd62534,64d2fd46c836a06233681665,64dc7c92e20c1d6b74a08da3,,,,,,,decisionTrl,resources/DP.BMP,resources/DG.BMP,Door3,-0.389322917,-0.020833333,1,0,0,1.021,optionLeft,70,8040,4,16,0,16,0,1,,,,,,,,,,,,,,,,,,,,,,,,,,,,,,,,,,,,,,,
,,,,,,,,2023-08-16_08h37.13.087,HF_wild_card,2022.2.4,Win32,59.93407252,5d6bfd6f3a9682001bd62534,64d2fd46c836a06233681665,64dc7c92e20c1d6b74a08da3,,,,,,,decisionTrl,resources/DB.BMP,resources/DG.BMP,Door4,0.3984375,-0.020833333,1,0,0,2.3687,optionRight,60,8100,4,17,0,17,0,1,,,,,,,,,,,,,,,,,,,,,,,,,,,,,,,,,,,,,,,
,,,,,,,,2023-08-16_08h37.13.087,HF_wild_card,2022.2.4,Win32,59.93407252,5d6bfd6f3a9682001bd62534,64d2fd46c836a06233681665,64dc7c92e20c1d6b74a08da3,,,,,,,sngl,resources/DBN.BMP,resources/Empty.png,Door1,-0.317708333,-0.00390625,1,0,0,1.1917,optionLeft,30,8130,4,18,0,18,0,1,,,,,,,,,,,,,,,,,,,,,,,,,,,,,,,,,,,,,,,
,,,,,,,,2023-08-16_08h37.13.087,HF_wild_card,2022.2.4,Win32,59.93407252,5d6bfd6f3a9682001bd62534,64d2fd46c836a06233681665,64dc7c92e20c1d6b74a08da3,,,,,,,decisionTrl,resources/DBN.BMP,resources/DY.BMP,Door2,0.407552083,-0.041666667,1,0,0,1.2807,optionRight,40,8170,4,19,0,19,0,1,,,,,,,,,,,,,,,,,,,,,,,,,,,,,,,,,,,,,,,
,,,,,,,,2023-08-16_08h37.13.087,HF_wild_card,2022.2.4,Win32,59.93407252,5d6bfd6f3a9682001bd62534,64d2fd46c836a06233681665,64dc7c92e20c1d6b74a08da3,,,,,,,decisionTrl,resources/DP.BMP,resources/DG.BMP,Door3,-0.399739583,-0.001302083,1,0,0,1.012,optionLeft,70,8240,4,20,0,20,0,1,,,,,,,,,,,,,,,,,,,,,,,,,,,,,,,,,,,,,,,
,,,,,,,,2023-08-16_08h37.13.087,HF_wild_card,2022.2.4,Win32,59.93407252,5d6bfd6f3a9682001bd62534,64d2fd46c836a06233681665,64dc7c92e20c1d6b74a08da3,,,,,,,ctch,resources/DP.BMP,resources/DY.BMP,Door3,-0.403645833,0.029947917,1,0,0,1.0405,optionLeft,70,8310,4,21,0,21,0,1,,,,,,,,,,,,,,,,,,,,,,,,,,,,,,,,,,,,,,,
,,,,,,,,2023-08-16_08h37.13.087,HF_wild_card,2022.2.4,Win32,59.93407252,5d6bfd6f3a9682001bd62534,64d2fd46c836a06233681665,64dc7c92e20c1d6b74a08da3,,,,,,,sngl,resources/Empty.png,resources/DBN.BMP,Door1,0.407552083,0.028645833,1,0,0,0.9295,optionRight,30,8340,4,22,0,22,0,1,,,,,,,,,,,,,,,,,,,,,,,,,,,,,,,,,,,,,,,
,,,,,,,,2023-08-16_08h37.13.087,HF_wild_card,2022.2.4,Win32,59.93407252,5d6bfd6f3a9682001bd62534,64d2fd46c836a06233681665,64dc7c92e20c1d6b74a08da3,,,,,,,sngl,resources/Empty.png,resources/DB.BMP,WildCard_Ex,0.358072917,-0.069010417,1,0,0,0.9107,optionRight,55,8395,4,23,0,23,0,1,,,,,,,,,,,,,,,,,,,,,,,,,,,,,,,,,,,,,,,
,,,,,,,,2023-08-16_08h37.13.087,HF_wild_card,2022.2.4,Win32,59.93407252,5d6bfd6f3a9682001bd62534,64d2fd46c836a06233681665,64dc7c92e20c1d6b74a08da3,,,,,,,ctch,resources/DBN.BMP,resources/DG.BMP,Door4,0.377604167,-0.0390625,1,0,0,1.3806,optionRight,80,8475,4,24,0,24,0,1,,,,,,,,,,,,,,,,,,,,,,,,,,,,,,,,,,,,,,,
,,,,,,,,2023-08-16_08h37.13.087,HF_wild_card,2022.2.4,Win32,59.93407252,5d6bfd6f3a9682001bd62534,64d2fd46c836a06233681665,64dc7c92e20c1d6b74a08da3,,,,,,,ctch,resources/DP.BMP,resources/DY.BMP,Door3,-0.352864583,-0.028645833,1,0,0,0.9669,optionLeft,70,8545,4,25,0,25,0,1,,,,,,,,,,,,,,,,,,,,,,,,,,,,,,,,,,,,,,,
,,,,,,,,2023-08-16_08h37.13.087,HF_wild_card,2022.2.4,Win32,59.93407252,5d6bfd6f3a9682001bd62534,64d2fd46c836a06233681665,64dc7c92e20c1d6b74a08da3,,,,,,,decisionTrl,resources/DY.BMP,resources/DB.BMP,WildCard_Ex,0.35546875,-0.0234375,1,0,0,2.7451,optionRight,55,8600,4,26,0,26,0,1,,,,,,,,,,,,,,,,,,,,,,,,,,,,,,,,,,,,,,,
,,,,,,,,2023-08-16_08h37.13.087,HF_wild_card,2022.2.4,Win32,59.93407252,5d6bfd6f3a9682001bd62534,64d2fd46c836a06233681665,64dc7c92e20c1d6b74a08da3,,,,,,,sngl,resources/DP.BMP,resources/Empty.png,Door3,-0.41796875,-0.048177083,1,0,0,0.911,optionLeft,70,8670,4,27,0,27,0,1,,,,,,,,,,,,,,,,,,,,,,,,,,,,,,,,,,,,,,,
,,,,,,,,2023-08-16_08h37.13.087,HF_wild_card,2022.2.4,Win32,59.93407252,5d6bfd6f3a9682001bd62534,64d2fd46c836a06233681665,64dc7c92e20c1d6b74a08da3,,,,,,,decisionTrl,resources/DBN.BMP,resources/DY.BMP,Door2,0.416666667,0.002604167,1,0,0,1.088,optionRight,40,8710,4,28,0,28,0,1,,,,,,,,,,,,,,,,,,,,,,,,,,,,,,,,,,,,,,,
,,,,,,,,2023-08-16_08h37.13.087,HF_wild_card,2022.2.4,Win32,59.93407252,5d6bfd6f3a9682001bd62534,64d2fd46c836a06233681665,64dc7c92e20c1d6b74a08da3,,,,,,,sngl,resources/Empty.png,resources/DP.BMP,Door3,0.41796875,-0.01171875,1,0,0,1.0597,optionRight,70,8780,4,29,0,29,0,1,,,,,,,,,,,,,,,,,,,,,,,,,,,,,,,,,,,,,,,
,,,,,,,,2023-08-16_08h37.13.087,HF_wild_card,2022.2.4,Win32,59.93407252,5d6bfd6f3a9682001bd62534,64d2fd46c836a06233681665,64dc7c92e20c1d6b74a08da3,,,,,,,decisionTrl,resources/DG.BMP,resources/DB.BMP,WildCard_Ex,0.305989583,-0.002604167,1,0,0,1.1977,optionRight,45,8825,4,30,0,30,0,1,,,,,,,,,,,,,,,,,,,,,,,,,,,,,,,,,,,,,,,
,,,,,,,,2023-08-16_08h37.13.087,HF_wild_card,2022.2.4,Win32,59.93407252,5d6bfd6f3a9682001bd62534,64d2fd46c836a06233681665,64dc7c92e20c1d6b74a08da3,,,,,,,decisionTrl,resources/DBN.BMP,resources/DY.BMP,Door2,0.337239583,0.010416667,1,0,0,1.6917,optionRight,20,8845,4,31,0,31,0,1,,,,,,,,,,,,,,,,,,,,,,,,,,,,,,,,,,,,,,,
,,,,,,,,2023-08-16_08h37.13.087,HF_wild_card,2022.2.4,Win32,59.93407252,5d6bfd6f3a9682001bd62534,64d2fd46c836a06233681665,64dc7c92e20c1d6b74a08da3,,,,,,,decisionTrl,resources/DY.BMP,resources/DBN.BMP,Door2,-0.342447917,-0.049479167,1,0,0,1.0212,optionLeft,40,8885,4,32,0,32,0,1,,,,,,,,,,,,,,,,,,,,,,,,,,,,,,,,,,,,,,,
,,,,,,,,2023-08-16_08h37.13.087,HF_wild_card,2022.2.4,Win32,59.93407252,5d6bfd6f3a9682001bd62534,64d2fd46c836a06233681665,64dc7c92e20c1d6b74a08da3,,,,,,,decisionTrl,resources/DY.BMP,resources/DBN.BMP,Door2,-0.360677083,-0.049479167,1,0,0,1.0528,optionLeft,20,8905,4,33,0,33,0,1,,,,,,,,,,,,,,,,,,,,,,,,,,,,,,,,,,,,,,,
,,,,,,,,2023-08-16_08h37.13.087,HF_wild_card,2022.2.4,Win32,59.93407252,5d6bfd6f3a9682001bd62534,64d2fd46c836a06233681665,64dc7c92e20c1d6b74a08da3,,,,,,,decisionTrl,resources/DB.BMP,resources/DP.BMP,Door3,0.356770833,0.00390625,1,0,0,1.243,optionRight,70,8975,4,34,0,34,0,1,,,,,,,,,,,,,,,,,,,,,,,,,,,,,,,,,,,,,,,
,,,,,,,,2023-08-16_08h37.13.087,HF_wild_card,2022.2.4,Win32,59.93407252,5d6bfd6f3a9682001bd62534,64d2fd46c836a06233681665,64dc7c92e20c1d6b74a08da3,,,,,,,ctch,resources/DY.BMP,resources/DP.BMP,Door3,0.3671875,-0.01171875,1,0,0,0.9175,optionRight,70,9045,4,35,0,35,0,1,,,,,,,,,,,,,,,,,,,,,,,,,,,,,,,,,,,,,,,
,,,,,,,,2023-08-16_08h37.13.087,HF_wild_card,2022.2.4,Win32,59.93407252,5d6bfd6f3a9682001bd62534,64d2fd46c836a06233681665,64dc7c92e20c1d6b74a08da3,,,,,,,decisionTrl,resources/DB.BMP,resources/DY.BMP,Door2,0.493489583,-0.014322917,1,0,0,2.161,optionRight,40,9085,4,36,0,36,0,1,,,,,,,,,,,,,,,,,,,,,,,,,,,,,,,,,,,,,,,
,,,,,,,,2023-08-16_08h37.13.087,HF_wild_card,2022.2.4,Win32,59.93407252,5d6bfd6f3a9682001bd62534,64d2fd46c836a06233681665,64dc7c92e20c1d6b74a08da3,,,,,,,ctch,resources/DG.BMP,resources/DBN.BMP,Door4,-0.375,-0.024739583,1,0,0,1.3069,optionLeft,60,9145,4,37,0,37,0,1,,,,,,,,,,,,,,,,,,,,,,,,,,,,,,,,,,,,,,,
,,,,,,,,2023-08-16_08h37.13.087,HF_wild_card,2022.2.4,Win32,59.93407252,5d6bfd6f3a9682001bd62534,64d2fd46c836a06233681665,64dc7c92e20c1d6b74a08da3,,,,,,,ctch,resources/DG.BMP,resources/DBN.BMP,Door4,-0.369791667,-0.0234375,1,0,0,1.2215,optionLeft,80,9225,4,38,0,38,0,1,,,,,,,,,,,,,,,,,,,,,,,,,,,,,,,,,,,,,,,
,,,,,,,,2023-08-16_08h37.13.087,HF_wild_card,2022.2.4,Win32,59.93407252,5d6bfd6f3a9682001bd62534,64d2fd46c836a06233681665,64dc7c92e20c1d6b74a08da3,,,,,,,decisionTrl,resources/DBN.BMP,resources/DY.BMP,Door2,0.270833333,-0.020833333,1,0,0,1.325,optionRight,40,9265,4,39,0,39,0,1,,,,,,,,,,,,,,,,,,,,,,,,,,,,,,,,,,,,,,,
,,,,,,,,2023-08-16_08h37.13.087,HF_wild_card,2022.2.4,Win32,59.93407252,5d6bfd6f3a9682001bd62534,64d2fd46c836a06233681665,64dc7c92e20c1d6b74a08da3,,,,,,,ctch,resources/DBN.BMP,resources/DG.BMP,Door4,0.4375,0.078125,1,0,0,1.6431,optionRight,60,9325,4,40,0,40,0,1,,,,,,,,,,,,,,,,,,,,,,,,,,,,,,,,,,,,,,,
,,,,,,,,2023-08-16_08h37.13.087,HF_wild_card,2022.2.4,Win32,59.93407252,5d6bfd6f3a9682001bd62534,64d2fd46c836a06233681665,64dc7c92e20c1d6b74a08da3,,,,,,,decisionTrl,resources/DY.BMP,resources/DBN.BMP,Door2,-0.282552083,-0.037760417,1,0,0,1.076,optionLeft,20,9345,4,41,0,41,0,1,,,,,,,,,,,,,,,,,,,,,,,,,,,,,,,,,,,,,,,
,,,,,,,,2023-08-16_08h37.13.087,HF_wild_card,2022.2.4,Win32,59.93407252,5d6bfd6f3a9682001bd62534,64d2fd46c836a06233681665,64dc7c92e20c1d6b74a08da3,,,,,,,sngl,resources/Empty.png,resources/DY.BMP,Door2,0.313802083,-0.03515625,1,0,0,0.9772,optionRight,40,9385,4,42,0,42,0,1,,,,,,,,,,,,,,,,,,,,,,,,,,,,,,,,,,,,,,,
,,,,,,,,2023-08-16_08h37.13.087,HF_wild_card,2022.2.4,Win32,59.93407252,5d6bfd6f3a9682001bd62534,64d2fd46c836a06233681665,64dc7c92e20c1d6b74a08da3,,,,,,,decisionTrl,resources/DG.BMP,resources/DP.BMP,Door3,0.3359375,-0.005208333,1,0,0,1.27,optionRight,70,9455,4,43,0,43,0,1,,,,,,,,,,,,,,,,,,,,,,,,,,,,,,,,,,,,,,,
,,,,,,,,2023-08-16_08h37.13.087,HF_wild_card,2022.2.4,Win32,59.93407252,5d6bfd6f3a9682001bd62534,64d2fd46c836a06233681665,64dc7c92e20c1d6b74a08da3,,,,,,,,,,,,,,,,,,,,,,,,,,3,0,3,0,1,,,,,,,,,,,,,,,,,,,,,,,,,,,,,,,,,,
,,,,,,,,2023-08-16_08h37.13.087,HF_wild_card,2022.2.4,Win32,59.93407252,5d6bfd6f3a9682001bd62534,64d2fd46c836a06233681665,64dc7c92e20c1d6b74a08da3,,,,,,,decisionTrl,resources/DY.BMP,resources/DB.BMP,WildCard_Ex,0.256510417,-0.102864583,1,0,0,1.9924,optionRight,45,9500,5,0,0,0,0,1,,,,,,,,,,,,,,,,,,,,,,,,,,,,,,,,,,,,,,,
,,,,,,,,2023-08-16_08h37.13.087,HF_wild_card,2022.2.4,Win32,59.93407252,5d6bfd6f3a9682001bd62534,64d2fd46c836a06233681665,64dc7c92e20c1d6b74a08da3,,,,,,,sngl,resources/DG.BMP,resources/Empty.png,Door4,-0.3359375,0.013020833,1,0,0,0.9927,optionLeft,80,9580,5,1,0,1,0,1,,,,,,,,,,,,,,,,,,,,,,,,,,,,,,,,,,,,,,,
,,,,,,,,2023-08-16_08h37.13.087,HF_wild_card,2022.2.4,Win32,59.93407252,5d6bfd6f3a9682001bd62534,64d2fd46c836a06233681665,64dc7c92e20c1d6b74a08da3,,,,,,,decisionTrl,resources/DP.BMP,resources/DG.BMP,Door3,-0.44140625,-0.053385417,1,0,0,1.6296,optionLeft,70,9650,5,2,0,2,0,1,,,,,,,,,,,,,,,,,,,,,,,,,,,,,,,,,,,,,,,
,,,,,,,,2023-08-16_08h37.13.087,HF_wild_card,2022.2.4,Win32,59.93407252,5d6bfd6f3a9682001bd62534,64d2fd46c836a06233681665,64dc7c92e20c1d6b74a08da3,,,,,,,sngl,resources/Empty.png,resources/DG.BMP,Door4,0.299479167,0.0234375,1,0,0,0.954,optionRight,60,9710,5,3,0,3,0,1,,,,,,,,,,,,,,,,,,,,,,,,,,,,,,,,,,,,,,,
,,,,,,,,2023-08-16_08h37.13.087,HF_wild_card,2022.2.4,Win32,59.93407252,5d6bfd6f3a9682001bd62534,64d2fd46c836a06233681665,64dc7c92e20c1d6b74a08da3,,,,,,,sngl,resources/Empty.png,resources/DBN.BMP,Door1,0.385416667,0.03515625,1,0,0,0.8714,optionRight,30,9740,5,4,0,4,0,1,,,,,,,,,,,,,,,,,,,,,,,,,,,,,,,,,,,,,,,
,,,,,,,,2023-08-16_08h37.13.087,HF_wild_card,2022.2.4,Win32,59.93407252,5d6bfd6f3a9682001bd62534,64d2fd46c836a06233681665,64dc7c92e20c1d6b74a08da3,,,,,,,ctch,resources/DP.BMP,resources/DY.BMP,Door3,-0.37890625,-0.020833333,1,0,0,1.0096,optionLeft,70,9810,5,5,0,5,0,1,,,,,,,,,,,,,,,,,,,,,,,,,,,,,,,,,,,,,,,
,,,,,,,,2023-08-16_08h37.13.087,HF_wild_card,2022.2.4,Win32,59.93407252,5d6bfd6f3a9682001bd62534,64d2fd46c836a06233681665,64dc7c92e20c1d6b74a08da3,,,,,,,decisionTrl,resources/DG.BMP,resources/DB.BMP,Door4,-0.322916667,-0.053385417,1,0,0,1.9883,optionLeft,80,9890,5,6,0,6,0,1,,,,,,,,,,,,,,,,,,,,,,,,,,,,,,,,,,,,,,,
,,,,,,,,2023-08-16_08h37.13.087,HF_wild_card,2022.2.4,Win32,59.93407252,5d6bfd6f3a9682001bd62534,64d2fd46c836a06233681665,64dc7c92e20c1d6b74a08da3,,,,,,,decisionTrl,resources/DB.BMP,resources/DBN.BMP,WildCard_Ex,-0.276041667,-0.041666667,1,0,0,1.2628,optionLeft,45,9935,5,7,0,7,0,1,,,,,,,,,,,,,,,,,,,,,,,,,,,,,,,,,,,,,,,
,,,,,,,,2023-08-16_08h37.13.087,HF_wild_card,2022.2.4,Win32,59.93407252,5d6bfd6f3a9682001bd62534,64d2fd46c836a06233681665,64dc7c92e20c1d6b74a08da3,,,,,,,decisionTrl,resources/DBN.BMP,resources/DY.BMP,Door2,0.3203125,0.029947917,1,0,0,2.2721,optionRight,40,9975,5,8,0,8,0,1,,,,,,,,,,,,,,,,,,,,,,,,,,,,,,,,,,,,,,,
,,,,,,,,2023-08-16_08h37.13.087,HF_wild_card,2022.2.4,Win32,59.93407252,5d6bfd6f3a9682001bd62534,64d2fd46c836a06233681665,64dc7c92e20c1d6b74a08da3,,,,,,,decisionTrl,resources/DP.BMP,resources/DG.BMP,Door3,-0.361979167,-0.040364583,1,0,0,2.234,optionLeft,70,10045,5,9,0,9,0,1,,,,,,,,,,,,,,,,,,,,,,,,,,,,,,,,,,,,,,,
,,,,,,,,2023-08-16_08h37.13.087,HF_wild_card,2022.2.4,Win32,59.93407252,5d6bfd6f3a9682001bd62534,64d2fd46c836a06233681665,64dc7c92e20c1d6b74a08da3,,,,,,,ctch,resources/DP.BMP,resources/DY.BMP,Door3,-0.377604167,-0.033854167,1,0,0,1.0442,optionLeft,70,10115,5,10,0,10,0,1,,,,,,,,,,,,,,,,,,,,,,,,,,,,,,,,,,,,,,,
,,,,,,,,2023-08-16_08h37.13.087,HF_wild_card,2022.2.4,Win32,59.93407252,5d6bfd6f3a9682001bd62534,64d2fd46c836a06233681665,64dc7c92e20c1d6b74a08da3,,,,,,,sngl,resources/Empty.png,resources/DB.BMP,WildCard_Ex,0.315104167,-0.013020833,1,0,0,0.9823,optionRight,55,10170,5,11,0,11,0,1,,,,,,,,,,,,,,,,,,,,,,,,,,,,,,,,,,,,,,,
,,,,,,,,2023-08-16_08h37.13.087,HF_wild_card,2022.2.4,Win32,59.93407252,5d6bfd6f3a9682001bd62534,64d2fd46c836a06233681665,64dc7c92e20c1d6b74a08da3,,,,,,,ctch,resources/DY.BMP,resources/DP.BMP,Door3,0.424479167,0.006510417,1,0,0,1.8255,optionRight,70,10240,5,12,0,12,0,1,,,,,,,,,,,,,,,,,,,,,,,,,,,,,,,,,,,,,,,
,,,,,,,,2023-08-16_08h37.13.087,HF_wild_card,2022.2.4,Win32,59.93407252,5d6bfd6f3a9682001bd62534,64d2fd46c836a06233681665,64dc7c92e20c1d6b74a08da3,,,,,,,sngl,resources/Empty.png,resources/DY.BMP,Door2,0.330729167,0.016927083,1,0,0,1.0099,optionRight,20,10260,5,13,0,13,0,1,,,,,,,,,,,,,,,,,,,,,,,,,,,,,,,,,,,,,,,
,,,,,,,,2023-08-16_08h37.13.087,HF_wild_card,2022.2.4,Win32,59.93407252,5d6bfd6f3a9682001bd62534,64d2fd46c836a06233681665,64dc7c92e20c1d6b74a08da3,,,,,,,decisionTrl,resources/DBN.BMP,resources/DB.BMP,WildCard_Ex,0.291666667,-0.03515625,1,0,0,1.2753,optionRight,45,10305,5,14,0,14,0,1,,,,,,,,,,,,,,,,,,,,,,,,,,,,,,,,,,,,,,,
,,,,,,,,2023-08-16_08h37.13.087,HF_wild_card,2022.2.4,Win32,59.93407252,5d6bfd6f3a9682001bd62534,64d2fd46c836a06233681665,64dc7c92e20c1d6b74a08da3,,,,,,,sngl,resources/DB.BMP,resources/Empty.png,WildCard_Ex,-0.268229167,-0.022135417,1,0,0,1.0172,optionLeft,45,10350,5,15,0,15,0,1,,,,,,,,,,,,,,,,,,,,,,,,,,,,,,,,,,,,,,,
,,,,,,,,2023-08-16_08h37.13.087,HF_wild_card,2022.2.4,Win32,59.93407252,5d6bfd6f3a9682001bd62534,64d2fd46c836a06233681665,64dc7c92e20c1d6b74a08da3,,,,,,,decisionTrl,resources/DG.BMP,resources/DP.BMP,Door3,0.315104167,0.018229167,1,0,0,1.0584,optionRight,70,10420,5,16,0,16,0,1,,,,,,,,,,,,,,,,,,,,,,,,,,,,,,,,,,,,,,,
,,,,,,,,2023-08-16_08h37.13.087,HF_wild_card,2022.2.4,Win32,59.93407252,5d6bfd6f3a9682001bd62534,64d2fd46c836a06233681665,64dc7c92e20c1d6b74a08da3,,,,,,,decisionTrl,resources/DY.BMP,resources/DBN.BMP,Door2,-0.385416667,-0.018229167,1,0,0,0.9432,optionLeft,40,10460,5,17,0,17,0,1,,,,,,,,,,,,,,,,,,,,,,,,,,,,,,,,,,,,,,,
,,,,,,,,2023-08-16_08h37.13.087,HF_wild_card,2022.2.4,Win32,59.93407252,5d6bfd6f3a9682001bd62534,64d2fd46c836a06233681665,64dc7c92e20c1d6b74a08da3,,,,,,,decisionTrl,resources/DP.BMP,resources/DG.BMP,Door3,-0.356770833,-0.049479167,1,0,0,0.8923,optionLeft,70,10530,5,18,0,18,0,1,,,,,,,,,,,,,,,,,,,,,,,,,,,,,,,,,,,,,,,
,,,,,,,,2023-08-16_08h37.13.087,HF_wild_card,2022.2.4,Win32,59.93407252,5d6bfd6f3a9682001bd62534,64d2fd46c836a06233681665,64dc7c92e20c1d6b74a08da3,,,,,,,sngl,resources/DY.BMP,resources/Empty.png,Door2,-0.270833333,-0.028645833,1,0,0,0.9052,optionLeft,40,10570,5,19,0,19,0,1,,,,,,,,,,,,,,,,,,,,,,,,,,,,,,,,,,,,,,,
,,,,,,,,2023-08-16_08h37.13.087,HF_wild_card,2022.2.4,Win32,59.93407252,5d6bfd6f3a9682001bd62534,64d2fd46c836a06233681665,64dc7c92e20c1d6b74a08da3,,,,,,,decisionTrl,resources/DG.BMP,resources/DP.BMP,Door3,0.385416667,-0.01171875,1,0,0,1.0449,optionRight,70,10640,5,20,0,20,0,1,,,,,,,,,,,,,,,,,,,,,,,,,,,,,,,,,,,,,,,
,,,,,,,,2023-08-16_08h37.13.087,HF_wild_card,2022.2.4,Win32,59.93407252,5d6bfd6f3a9682001bd62534,64d2fd46c836a06233681665,64dc7c92e20c1d6b74a08da3,,,,,,,decisionTrl,resources/DP.BMP,resources/DG.BMP,Door3,-0.337239583,-0.072916667,1,0,0,1.4904,optionLeft,70,10710,5,21,0,21,0,1,,,,,,,,,,,,,,,,,,,,,,,,,,,,,,,,,,,,,,,
,,,,,,,,2023-08-16_08h37.13.087,HF_wild_card,2022.2.4,Win32,59.93407252,5d6bfd6f3a9682001bd62534,64d2fd46c836a06233681665,64dc7c92e20c1d6b74a08da3,,,,,,,ctch,resources/DBN.BMP,resources/DG.BMP,Door4,0.372395833,0.020833333,1,0,0,1.6901,optionRight,60,10770,5,22,0,22,0,1,,,,,,,,,,,,,,,,,,,,,,,,,,,,,,,,,,,,,,,
,,,,,,,,2023-08-16_08h37.13.087,HF_wild_card,2022.2.4,Win32,59.93407252,5d6bfd6f3a9682001bd62534,64d2fd46c836a06233681665,64dc7c92e20c1d6b74a08da3,,,,,,,decisionTrl,resources/DG.BMP,resources/DP.BMP,Door3,0.399739583,0,1,0,0,1.0587,optionRight,70,10840,5,23,0,23,0,1,,,,,,,,,,,,,,,,,,,,,,,,,,,,,,,,,,,,,,,
,,,,,,,,2023-08-16_08h37.13.087,HF_wild_card,2022.2.4,Win32,59.93407252,5d6bfd6f3a9682001bd62534,64d2fd46c836a06233681665,64dc7c92e20c1d6b74a08da3,,,,,,,decisionTrl,resources/DP.BMP,resources/DB.BMP,Door3,-0.342447917,-0.01953125,1,0,0,1.0244,optionLeft,70,10910,5,24,0,24,0,1,,,,,,,,,,,,,,,,,,,,,,,,,,,,,,,,,,,,,,,
,,,,,,,,2023-08-16_08h37.13.087,HF_wild_card,2022.2.4,Win32,59.93407252,5d6bfd6f3a9682001bd62534,64d2fd46c836a06233681665,64dc7c92e20c1d6b74a08da3,,,,,,,sngl,resources/DB.BMP,resources/Empty.png,WildCard_Ex,-0.307291667,-0.032552083,1,0,0,0.9772,optionLeft,55,10965,5,25,0,25,0,1,,,,,,,,,,,,,,,,,,,,,,,,,,,,,,,,,,,,,,,
,,,,,,,,2023-08-16_08h37.13.087,HF_wild_card,2022.2.4,Win32,59.93407252,5d6bfd6f3a9682001bd62534,64d2fd46c836a06233681665,64dc7c92e20c1d6b74a08da3,,,,,,,sngl,resources/Empty.png,resources/DP.BMP,Door3,0.358072917,-0.0078125,1,0,0,1.0117,optionRight,70,11035,5,26,0,26,0,1,,,,,,,,,,,,,,,,,,,,,,,,,,,,,,,,,,,,,,,
,,,,,,,,2023-08-16_08h37.13.087,HF_wild_card,2022.2.4,Win32,59.93407252,5d6bfd6f3a9682001bd62534,64d2fd46c836a06233681665,64dc7c92e20c1d6b74a08da3,,,,,,,decisionTrl,resources/DBN.BMP,resources/DY.BMP,Door2,0.282552083,0.048177083,1,0,0,1.2177,optionRight,20,11055,5,27,0,27,0,1,,,,,,,,,,,,,,,,,,,,,,,,,,,,,,,,,,,,,,,
,,,,,,,,2023-08-16_08h37.13.087,HF_wild_card,2022.2.4,Win32,59.93407252,5d6bfd6f3a9682001bd62534,64d2fd46c836a06233681665,64dc7c92e20c1d6b74a08da3,,,,,,,decisionTrl,resources/DB.BMP,resources/DP.BMP,Door3,0.3359375,0,1,0,0,1.1916,optionRight,70,11125,5,28,0,28,0,1,,,,,,,,,,,,,,,,,,,,,,,,,,,,,,,,,,,,,,,
,,,,,,,,2023-08-16_08h37.13.087,HF_wild_card,2022.2.4,Win32,59.93407252,5d6bfd6f3a9682001bd62534,64d2fd46c836a06233681665,64dc7c92e20c1d6b74a08da3,,,,,,,ctch,resources/DG.BMP,resources/DBN.BMP,Door4,-0.39453125,-0.055989583,1,0,0,0.9938,optionLeft,80,11205,5,29,0,29,0,1,,,,,,,,,,,,,,,,,,,,,,,,,,,,,,,,,,,,,,,
,,,,,,,,2023-08-16_08h37.13.087,HF_wild_card,2022.2.4,Win32,59.93407252,5d6bfd6f3a9682001bd62534,64d2fd46c836a06233681665,64dc7c92e20c1d6b74a08da3,,,,,,,ctch,resources/DG.BMP,resources/DBN.BMP,Door4,-0.30078125,-0.02734375,1,0,0,2.5836,optionLeft,60,11265,5,30,0,30,0,1,,,,,,,,,,,,,,,,,,,,,,,,,,,,,,,,,,,,,,,
,,,,,,,,2023-08-16_08h37.13.087,HF_wild_card,2022.2.4,Win32,59.93407252,5d6bfd6f3a9682001bd62534,64d2fd46c836a06233681665,64dc7c92e20c1d6b74a08da3,,,,,,,decisionTrl,resources/DY.BMP,resources/DBN.BMP,Door2,-0.376302083,-0.048177083,1,0,0,0.9269,optionLeft,20,11285,5,31,0,31,0,1,,,,,,,,,,,,,,,,,,,,,,,,,,,,,,,,,,,,,,,
,,,,,,,,2023-08-16_08h37.13.087,HF_wild_card,2022.2.4,Win32,59.93407252,5d6bfd6f3a9682001bd62534,64d2fd46c836a06233681665,64dc7c92e20c1d6b74a08da3,,,,,,,sngl,resources/DP.BMP,resources/Empty.png,Door3,-0.315104167,-0.028645833,1,0,0,0.8717,optionLeft,70,11355,5,32,0,32,0,1,,,,,,,,,,,,,,,,,,,,,,,,,,,,,,,,,,,,,,,
,,,,,,,,2023-08-16_08h37.13.087,HF_wild_card,2022.2.4,Win32,59.93407252,5d6bfd6f3a9682001bd62534,64d2fd46c836a06233681665,64dc7c92e20c1d6b74a08da3,,,,,,,ctch,resources/DY.BMP,resources/DP.BMP,Door3,0.278645833,-0.014322917,1,0,0,1.0603,optionRight,70,11425,5,33,0,33,0,1,,,,,,,,,,,,,,,,,,,,,,,,,,,,,,,,,,,,,,,
,,,,,,,,2023-08-16_08h37.13.087,HF_wild_card,2022.2.4,Win32,59.93407252,5d6bfd6f3a9682001bd62534,64d2fd46c836a06233681665,64dc7c92e20c1d6b74a08da3,,,,,,,decisionTrl,resources/DBN.BMP,resources/DY.BMP,Door2,0.35546875,-0.028645833,1,0,0,1.16,optionRight,20,11445,5,34,0,34,0,1,,,,,,,,,,,,,,,,,,,,,,,,,,,,,,,,,,,,,,,
,,,,,,,,2023-08-16_08h37.13.087,HF_wild_card,2022.2.4,Win32,59.93407252,5d6bfd6f3a9682001bd62534,64d2fd46c836a06233681665,64dc7c92e20c1d6b74a08da3,,,,,,,sngl,resources/Empty.png,resources/DB.BMP,WildCard_Ex,0.389322917,0.022135417,1,0,0,2.1922,optionRight,45,11490,5,35,0,35,0,1,,,,,,,,,,,,,,,,,,,,,,,,,,,,,,,,,,,,,,,
,,,,,,,,2023-08-16_08h37.13.087,HF_wild_card,2022.2.4,Win32,59.93407252,5d6bfd6f3a9682001bd62534,64d2fd46c836a06233681665,64dc7c92e20c1d6b74a08da3,,,,,,,decisionTrl,resources/DY.BMP,resources/DBN.BMP,Door2,-0.399739583,-0.02734375,1,0,0,0.9423,optionLeft,40,11530,5,36,0,36,0,1,,,,,,,,,,,,,,,,,,,,,,,,,,,,,,,,,,,,,,,
,,,,,,,,2023-08-16_08h37.13.087,HF_wild_card,2022.2.4,Win32,59.93407252,5d6bfd6f3a9682001bd62534,64d2fd46c836a06233681665,64dc7c92e20c1d6b74a08da3,,,,,,,decisionTrl,resources/DG.BMP,resources/DP.BMP,Door3,0.31640625,-0.006510417,1,0,0,1.0799,optionRight,70,11600,5,37,0,37,0,1,,,,,,,,,,,,,,,,,,,,,,,,,,,,,,,,,,,,,,,
,,,,,,,,2023-08-16_08h37.13.087,HF_wild_card,2022.2.4,Win32,59.93407252,5d6bfd6f3a9682001bd62534,64d2fd46c836a06233681665,64dc7c92e20c1d6b74a08da3,,,,,,,decisionTrl,resources/DY.BMP,resources/DBN.BMP,Door2,-0.337239583,-0.052083333,1,0,0,0.9383,optionLeft,20,11620,5,38,0,38,0,1,,,,,,,,,,,,,,,,,,,,,,,,,,,,,,,,,,,,,,,
,,,,,,,,2023-08-16_08h37.13.087,HF_wild_card,2022.2.4,Win32,59.93407252,5d6bfd6f3a9682001bd62534,64d2fd46c836a06233681665,64dc7c92e20c1d6b74a08da3,,,,,,,decisionTrl,resources/DB.BMP,resources/DY.BMP,WildCard_Ex,-0.3515625,-0.06640625,1,0,0,0.9766,optionLeft,45,11665,5,39,0,39,0,1,,,,,,,,,,,,,,,,,,,,,,,,,,,,,,,,,,,,,,,
,,,,,,,,2023-08-16_08h37.13.087,HF_wild_card,2022.2.4,Win32,59.93407252,5d6bfd6f3a9682001bd62534,64d2fd46c836a06233681665,64dc7c92e20c1d6b74a08da3,,,,,,,sngl,resources/DBN.BMP,resources/Empty.png,Door1,-0.283854167,-0.006510417,1,0,0,1.0263,optionLeft,30,11695,5,40,0,40,0,1,,,,,,,,,,,,,,,,,,,,,,,,,,,,,,,,,,,,,,,
,,,,,,,,2023-08-16_08h37.13.087,HF_wild_card,2022.2.4,Win32,59.93407252,5d6bfd6f3a9682001bd62534,64d2fd46c836a06233681665,64dc7c92e20c1d6b74a08da3,,,,,,,decisionTrl,resources/DBN.BMP,resources/DY.BMP,Door2,0.30859375,-0.001302083,1,0,0,1.1256,optionRight,40,11735,5,41,0,41,0,1,,,,,,,,,,,,,,,,,,,,,,,,,,,,,,,,,,,,,,,
,,,,,,,,2023-08-16_08h37.13.087,HF_wild_card,2022.2.4,Win32,59.93407252,5d6bfd6f3a9682001bd62534,64d2fd46c836a06233681665,64dc7c92e20c1d6b74a08da3,,,,,,,decisionTrl,resources/DB.BMP,resources/DG.BMP,Door4,0.305989583,-0.0390625,1,0,0,1.3223,optionRight,80,11815,5,42,0,42,0,1,,,,,,,,,,,,,,,,,,,,,,,,,,,,,,,,,,,,,,,
,,,,,,,,2023-08-16_08h37.13.087,HF_wild_card,2022.2.4,Win32,59.93407252,5d6bfd6f3a9682001bd62534,64d2fd46c836a06233681665,64dc7c92e20c1d6b74a08da3,,,,,,,ctch,resources/DBN.BMP,resources/DG.BMP,Door4,0.276041667,0,1,0,0,1.0427,optionRight,80,11895,5,43,0,43,0,1,,,,,,,,,,,,,,,,,,,,,,,,,,,,,,,,,,,,,,,
,,,,,,,,2023-08-16_08h37.13.087,HF_wild_card,2022.2.4,Win32,59.93407252,5d6bfd6f3a9682001bd62534,64d2fd46c836a06233681665,64dc7c92e20c1d6b74a08da3,,,,,,,,,,,,,,,,,,,,,,,,,,4,0,4,0,1,,,,,,,,,,,,,,,,,,,,,,,,,,,,,,,,,,
,,,,,,,,2023-08-16_08h37.13.087,HF_wild_card,2022.2.4,Win32,59.93407252,5d6bfd6f3a9682001bd62534,64d2fd46c836a06233681665,64dc7c92e20c1d6b74a08da3,,,,,,,decisionTrl,resources/DP.BMP,resources/DG.BMP,Door3,-0.380208333,-0.102864583,1,0,0,1.9897,optionLeft,70,11965,6,0,0,0,0,1,,,,,,,,,,,,,,,,,,,,,,,,,,,,,,,,,,,,,,,
,,,,,,,,2023-08-16_08h37.13.087,HF_wild_card,2022.2.4,Win32,59.93407252,5d6bfd6f3a9682001bd62534,64d2fd46c836a06233681665,64dc7c92e20c1d6b74a08da3,,,,,,,sngl,resources/DBN.BMP,resources/Empty.png,Door1,-0.282552083,-0.028645833,1,0,0,0.9257,optionLeft,30,11995,6,1,0,1,0,1,,,,,,,,,,,,,,,,,,,,,,,,,,,,,,,,,,,,,,,
,,,,,,,,2023-08-16_08h37.13.087,HF_wild_card,2022.2.4,Win32,59.93407252,5d6bfd6f3a9682001bd62534,64d2fd46c836a06233681665,64dc7c92e20c1d6b74a08da3,,,,,,,decisionTrl,resources/DB.BMP,resources/DY.BMP,Door2,0.311197917,0.010416667,1,0,0,1.3573,optionRight,20,12015,6,2,0,2,0,1,,,,,,,,,,,,,,,,,,,,,,,,,,,,,,,,,,,,,,,
,,,,,,,,2023-08-16_08h37.13.087,HF_wild_card,2022.2.4,Win32,59.93407252,5d6bfd6f3a9682001bd62534,64d2fd46c836a06233681665,64dc7c92e20c1d6b74a08da3,,,,,,,decisionTrl,resources/DP.BMP,resources/DG.BMP,Door3,-0.401041667,-0.071614583,1,0,0,1.2274,optionLeft,70,12085,6,3,0,3,0,1,,,,,,,,,,,,,,,,,,,,,,,,,,,,,,,,,,,,,,,
,,,,,,,,2023-08-16_08h37.13.087,HF_wild_card,2022.2.4,Win32,59.93407252,5d6bfd6f3a9682001bd62534,64d2fd46c836a06233681665,64dc7c92e20c1d6b74a08da3,,,,,,,decisionTrl,resources/DB.BMP,resources/DG.BMP,Door4,0.338541667,0.00390625,1,0,0,1.4588,optionRight,60,12145,6,4,0,4,0,1,,,,,,,,,,,,,,,,,,,,,,,,,,,,,,,,,,,,,,,
,,,,,,,,2023-08-16_08h37.13.087,HF_wild_card,2022.2.4,Win32,59.93407252,5d6bfd6f3a9682001bd62534,64d2fd46c836a06233681665,64dc7c92e20c1d6b74a08da3,,,,,,,sngl,resources/Empty.png,resources/DY.BMP,Door2,0.375,-0.013020833,1,0,0,0.9422,optionRight,40,12185,6,5,0,5,0,1,,,,,,,,,,,,,,,,,,,,,,,,,,,,,,,,,,,,,,,
,,,,,,,,2023-08-16_08h37.13.087,HF_wild_card,2022.2.4,Win32,59.93407252,5d6bfd6f3a9682001bd62534,64d2fd46c836a06233681665,64dc7c92e20c1d6b74a08da3,,,,,,,decisionTrl,resources/DY.BMP,resources/DBN.BMP,Door2,-0.41015625,-0.0390625,1,0,0,0.9912,optionLeft,40,12225,6,6,0,6,0,1,,,,,,,,,,,,,,,,,,,,,,,,,,,,,,,,,,,,,,,
,,,,,,,,2023-08-16_08h37.13.087,HF_wild_card,2022.2.4,Win32,59.93407252,5d6bfd6f3a9682001bd62534,64d2fd46c836a06233681665,64dc7c92e20c1d6b74a08da3,,,,,,,decisionTrl,resources/DP.BMP,resources/DB.BMP,Door3,-0.459635417,-0.044270833,1,0,0,1.3248,optionLeft,70,12295,6,7,0,7,0,1,,,,,,,,,,,,,,,,,,,,,,,,,,,,,,,,,,,,,,,
,,,,,,,,2023-08-16_08h37.13.087,HF_wild_card,2022.2.4,Win32,59.93407252,5d6bfd6f3a9682001bd62534,64d2fd46c836a06233681665,64dc7c92e20c1d6b74a08da3,,,,,,,sngl,resources/DG.BMP,resources/Empty.png,Door4,-0.365885417,-0.016927083,1,0,0,1.3264,optionLeft,60,12355,6,8,0,8,0,1,,,,,,,,,,,,,,,,,,,,,,,,,,,,,,,,,,,,,,,
,,,,,,,,2023-08-16_08h37.13.087,HF_wild_card,2022.2.4,Win32,59.93407252,5d6bfd6f3a9682001bd62534,64d2fd46c836a06233681665,64dc7c92e20c1d6b74a08da3,,,,,,,decisionTrl,resources/DG.BMP,resources/DP.BMP,Door3,0.390625,0.01171875,1,0,0,1.1581,optionRight,70,12425,6,9,0,9,0,1,,,,,,,,,,,,,,,,,,,,,,,,,,,,,,,,,,,,,,,
,,,,,,,,2023-08-16_08h37.13.087,HF_wild_card,2022.2.4,Win32,59.93407252,5d6bfd6f3a9682001bd62534,64d2fd46c836a06233681665,64dc7c92e20c1d6b74a08da3,,,,,,,sngl,resources/DP.BMP,resources/Empty.png,Door3,-0.41796875,-0.0390625,1,0,0,1.4456,optionLeft,70,12495,6,10,0,10,0,1,,,,,,,,,,,,,,,,,,,,,,,,,,,,,,,,,,,,,,,
,,,,,,,,2023-08-16_08h37.13.087,HF_wild_card,2022.2.4,Win32,59.93407252,5d6bfd6f3a9682001bd62534,64d2fd46c836a06233681665,64dc7c92e20c1d6b74a08da3,,,,,,,decisionTrl,resources/DG.BMP,resources/DB.BMP,Door4,-0.4609375,0.014322917,1,0,0,2.1544,optionLeft,60,12555,6,11,0,11,0,1,,,,,,,,,,,,,,,,,,,,,,,,,,,,,,,,,,,,,,,
,,,,,,,,2023-08-16_08h37.13.087,HF_wild_card,2022.2.4,Win32,59.93407252,5d6bfd6f3a9682001bd62534,64d2fd46c836a06233681665,64dc7c92e20c1d6b74a08da3,,,,,,,decisionTrl,resources/DB.BMP,resources/DBN.BMP,WildCard_Ex,-0.346354167,-0.040364583,1,0,0,1.096,optionLeft,45,12600,6,12,0,12,0,1,,,,,,,,,,,,,,,,,,,,,,,,,,,,,,,,,,,,,,,
,,,,,,,,2023-08-16_08h37.13.087,HF_wild_card,2022.2.4,Win32,59.93407252,5d6bfd6f3a9682001bd62534,64d2fd46c836a06233681665,64dc7c92e20c1d6b74a08da3,,,,,,,sngl,resources/DY.BMP,resources/Empty.png,Door2,-0.328125,-0.06640625,1,0,0,0.8947,optionLeft,20,12620,6,13,0,13,0,1,,,,,,,,,,,,,,,,,,,,,,,,,,,,,,,,,,,,,,,
,,,,,,,,2023-08-16_08h37.13.087,HF_wild_card,2022.2.4,Win32,59.93407252,5d6bfd6f3a9682001bd62534,64d2fd46c836a06233681665,64dc7c92e20c1d6b74a08da3,,,,,,,decisionTrl,resources/DB.BMP,resources/DP.BMP,Door3,0.384114583,0.022135417,1,0,0,1.076,optionRight,70,12690,6,14,0,14,0,1,,,,,,,,,,,,,,,,,,,,,,,,,,,,,,,,,,,,,,,
,,,,,,,,2023-08-16_08h37.13.087,HF_wild_card,2022.2.4,Win32,59.93407252,5d6bfd6f3a9682001bd62534,64d2fd46c836a06233681665,64dc7c92e20c1d6b74a08da3,,,,,,,decisionTrl,resources/DBN.BMP,resources/DY.BMP,Door2,0.321614583,-0.010416667,1,0,0,1.4708,optionRight,20,12710,6,15,0,15,0,1,,,,,,,,,,,,,,,,,,,,,,,,,,,,,,,,,,,,,,,
,,,,,,,,2023-08-16_08h37.13.087,HF_wild_card,2022.2.4,Win32,59.93407252,5d6bfd6f3a9682001bd62534,64d2fd46c836a06233681665,64dc7c92e20c1d6b74a08da3,,,,,,,sngl,resources/Empty.png,resources/DB.BMP,WildCard_Ex,0.361979167,-0.010416667,1,0,0,0.9532,optionRight,45,12755,6,16,0,16,0,1,,,,,,,,,,,,,,,,,,,,,,,,,,,,,,,,,,,,,,,
,,,,,,,,2023-08-16_08h37.13.087,HF_wild_card,2022.2.4,Win32,59.93407252,5d6bfd6f3a9682001bd62534,64d2fd46c836a06233681665,64dc7c92e20c1d6b74a08da3,,,,,,,decisionTrl,resources/DG.BMP,resources/DP.BMP,Door4,-0.36328125,-0.024739583,1,0,0,1.087,optionLeft,60,12815,6,17,0,17,0,1,,,,,,,,,,,,,,,,,,,,,,,,,,,,,,,,,,,,,,,
,,,,,,,,2023-08-16_08h37.13.087,HF_wild_card,2022.2.4,Win32,59.93407252,5d6bfd6f3a9682001bd62534,64d2fd46c836a06233681665,64dc7c92e20c1d6b74a08da3,,,,,,,decisionTrl,resources/DY.BMP,resources/DBN.BMP,Door2,-0.265625,-0.013020833,1,0,0,1.2927,optionLeft,20,12835,6,18,0,18,0,1,,,,,,,,,,,,,,,,,,,,,,,,,,,,,,,,,,,,,,,
,,,,,,,,2023-08-16_08h37.13.087,HF_wild_card,2022.2.4,Win32,59.93407252,5d6bfd6f3a9682001bd62534,64d2fd46c836a06233681665,64dc7c92e20c1d6b74a08da3,,,,,,,decisionTrl,resources/DBN.BMP,resources/DB.BMP,WildCard_Ex,0.305989583,0.013020833,1,0,0,0.9993,optionRight,55,12890,6,19,0,19,0,1,,,,,,,,,,,,,,,,,,,,,,,,,,,,,,,,,,,,,,,
,,,,,,,,2023-08-16_08h37.13.087,HF_wild_card,2022.2.4,Win32,59.93407252,5d6bfd6f3a9682001bd62534,64d2fd46c836a06233681665,64dc7c92e20c1d6b74a08da3,,,,,,,decisionTrl,resources/DP.BMP,resources/DG.BMP,Door3,-0.28125,-0.032552083,1,0,0,1.4581,optionLeft,70,12960,6,20,0,20,0,1,,,,,,,,,,,,,,,,,,,,,,,,,,,,,,,,,,,,,,,
,,,,,,,,2023-08-16_08h37.13.087,HF_wild_card,2022.2.4,Win32,59.93407252,5d6bfd6f3a9682001bd62534,64d2fd46c836a06233681665,64dc7c92e20c1d6b74a08da3,,,,,,,decisionTrl,resources/DBN.BMP,resources/DY.BMP,Door2,0.259114583,0.009114583,1,0,0,1.5892,optionRight,40,13000,6,21,0,21,0,1,,,,,,,,,,,,,,,,,,,,,,,,,,,,,,,,,,,,,,,
,,,,,,,,2023-08-16_08h37.13.087,HF_wild_card,2022.2.4,Win32,59.93407252,5d6bfd6f3a9682001bd62534,64d2fd46c836a06233681665,64dc7c92e20c1d6b74a08da3,,,,,,,sngl,resources/DB.BMP,resources/Empty.png,WildCard_Ex,-0.29296875,-0.032552083,1,0,0,1.0224,optionLeft,55,13055,6,22,0,22,0,1,,,,,,,,,,,,,,,,,,,,,,,,,,,,,,,,,,,,,,,
,,,,,,,,2023-08-16_08h37.13.087,HF_wild_card,2022.2.4,Win32,59.93407252,5d6bfd6f3a9682001bd62534,64d2fd46c836a06233681665,64dc7c92e20c1d6b74a08da3,,,,,,,ctch,resources/DP.BMP,resources/DY.BMP,Door3,-0.334635417,-0.033854167,1,0,0,0.9331,optionLeft,70,13125,6,23,0,23,0,1,,,,,,,,,,,,,,,,,,,,,,,,,,,,,,,,,,,,,,,
,,,,,,,,2023-08-16_08h37.13.087,HF_wild_card,2022.2.4,Win32,59.93407252,5d6bfd6f3a9682001bd62534,64d2fd46c836a06233681665,64dc7c92e20c1d6b74a08da3,,,,,,,decisionTrl,resources/DP.BMP,resources/DG.BMP,Door3,-0.302083333,-0.006510417,1,0,0,1.4089,optionLeft,70,13195,6,24,0,24,0,1,,,,,,,,,,,,,,,,,,,,,,,,,,,,,,,,,,,,,,,
,,,,,,,,2023-08-16_08h37.13.087,HF_wild_card,2022.2.4,Win32,59.93407252,5d6bfd6f3a9682001bd62534,64d2fd46c836a06233681665,64dc7c92e20c1d6b74a08da3,,,,,,,sngl,resources/DB.BMP,resources/Empty.png,WildCard_Ex,-0.307291667,-0.052083333,1,0,0,0.9806,optionLeft,45,13240,6,25,0,25,0,1,,,,,,,,,,,,,,,,,,,,,,,,,,,,,,,,,,,,,,,
,,,,,,,,2023-08-16_08h37.13.087,HF_wild_card,2022.2.4,Win32,59.93407252,5d6bfd6f3a9682001bd62534,64d2fd46c836a06233681665,64dc7c92e20c1d6b74a08da3,,,,,,,ctch,resources/DY.BMP,resources/DP.BMP,Door3,0.407552083,0.015625,1,0,0,4.6749,optionRight,70,13310,6,26,0,26,0,1,,,,,,,,,,,,,,,,,,,,,,,,,,,,,,,,,,,,,,,
,,,,,,,,2023-08-16_08h37.13.087,HF_wild_card,2022.2.4,Win32,59.93407252,5d6bfd6f3a9682001bd62534,64d2fd46c836a06233681665,64dc7c92e20c1d6b74a08da3,,,,,,,decisionTrl,resources/DBN.BMP,resources/DY.BMP,Door2,0.341145833,-0.006510417,1,0,0,1.1613,optionRight,40,13350,6,27,0,27,0,1,,,,,,,,,,,,,,,,,,,,,,,,,,,,,,,,,,,,,,,
,,,,,,,,2023-08-16_08h37.13.087,HF_wild_card,2022.2.4,Win32,59.93407252,5d6bfd6f3a9682001bd62534,64d2fd46c836a06233681665,64dc7c92e20c1d6b74a08da3,,,,,,,decisionTrl,resources/DBN.BMP,resources/DY.BMP,Door2,0.27734375,0.006510417,1,0,0,2.1467,optionRight,40,13390,6,28,0,28,0,1,,,,,,,,,,,,,,,,,,,,,,,,,,,,,,,,,,,,,,,
,,,,,,,,2023-08-16_08h37.13.087,HF_wild_card,2022.2.4,Win32,59.93407252,5d6bfd6f3a9682001bd62534,64d2fd46c836a06233681665,64dc7c92e20c1d6b74a08da3,,,,,,,ctch,resources/DP.BMP,resources/DY.BMP,Door3,-0.390625,-0.010416667,1,0,0,2.209,optionLeft,70,13460,6,29,0,29,0,1,,,,,,,,,,,,,,,,,,,,,,,,,,,,,,,,,,,,,,,
,,,,,,,,2023-08-16_08h37.13.087,HF_wild_card,2022.2.4,Win32,59.93407252,5d6bfd6f3a9682001bd62534,64d2fd46c836a06233681665,64dc7c92e20c1d6b74a08da3,,,,,,,decisionTrl,resources/DY.BMP,resources/DB.BMP,Door2,-0.321614583,-0.005208333,1,0,0,2.9908,optionLeft,40,13500,6,30,0,30,0,1,,,,,,,,,,,,,,,,,,,,,,,,,,,,,,,,,,,,,,,
,,,,,,,,2023-08-16_08h37.13.087,HF_wild_card,2022.2.4,Win32,59.93407252,5d6bfd6f3a9682001bd62534,64d2fd46c836a06233681665,64dc7c92e20c1d6b74a08da3,,,,,,,decisionTrl,resources/DG.BMP,resources/DP.BMP,Door3,0.424479167,-0.0390625,1,0,0,1.6985,optionRight,70,13570,6,31,0,31,0,1,,,,,,,,,,,,,,,,,,,,,,,,,,,,,,,,,,,,,,,
,,,,,,,,2023-08-16_08h37.13.087,HF_wild_card,2022.2.4,Win32,59.93407252,5d6bfd6f3a9682001bd62534,64d2fd46c836a06233681665,64dc7c92e20c1d6b74a08da3,,,,,,,sngl,resources/Empty.png,resources/DP.BMP,Door3,0.342447917,-0.07421875,1,0,0,4.4768,optionRight,70,13640,6,32,0,32,0,1,,,,,,,,,,,,,,,,,,,,,,,,,,,,,,,,,,,,,,,
,,,,,,,,2023-08-16_08h37.13.087,HF_wild_card,2022.2.4,Win32,59.93407252,5d6bfd6f3a9682001bd62534,64d2fd46c836a06233681665,64dc7c92e20c1d6b74a08da3,,,,,,,ctch,resources/DG.BMP,resources/DBN.BMP,Door4,-0.311197917,0.033854167,1,0,0,3.057,optionLeft,80,13720,6,33,0,33,0,1,,,,,,,,,,,,,,,,,,,,,,,,,,,,,,,,,,,,,,,
,,,,,,,,2023-08-16_08h37.13.087,HF_wild_card,2022.2.4,Win32,59.93407252,5d6bfd6f3a9682001bd62534,64d2fd46c836a06233681665,64dc7c92e20c1d6b74a08da3,,,,,,,sngl,resources/Empty.png,resources/DB.BMP,WildCard_Ex,0.39453125,-0.016927083,1,0,0,1.4744,optionRight,55,13775,6,34,0,34,0,1,,,,,,,,,,,,,,,,,,,,,,,,,,,,,,,,,,,,,,,
,,,,,,,,2023-08-16_08h37.13.087,HF_wild_card,2022.2.4,Win32,59.93407252,5d6bfd6f3a9682001bd62534,64d2fd46c836a06233681665,64dc7c92e20c1d6b74a08da3,,,,,,,ctch,resources/DBN.BMP,resources/DG.BMP,Door4,0.397135417,-0.020833333,1,0,0,1.4626,optionRight,60,13835,6,35,0,35,0,1,,,,,,,,,,,,,,,,,,,,,,,,,,,,,,,,,,,,,,,
,,,,,,,,2023-08-16_08h37.13.087,HF_wild_card,2022.2.4,Win32,59.93407252,5d6bfd6f3a9682001bd62534,64d2fd46c836a06233681665,64dc7c92e20c1d6b74a08da3,,,,,,,sngl,resources/Empty.png,resources/DG.BMP,Door4,0.395833333,-0.029947917,1,0,0,1.0723,optionRight,80,13915,6,36,0,36,0,1,,,,,,,,,,,,,,,,,,,,,,,,,,,,,,,,,,,,,,,
,,,,,,,,2023-08-16_08h37.13.087,HF_wild_card,2022.2.4,Win32,59.93407252,5d6bfd6f3a9682001bd62534,64d2fd46c836a06233681665,64dc7c92e20c1d6b74a08da3,,,,,,,sngl,resources/Empty.png,resources/DBN.BMP,Door1,0.403645833,0,1,0,0,1.0295,optionRight,30,13945,6,37,0,37,0,1,,,,,,,,,,,,,,,,,,,,,,,,,,,,,,,,,,,,,,,
,,,,,,,,2023-08-16_08h37.13.087,HF_wild_card,2022.2.4,Win32,59.93407252,5d6bfd6f3a9682001bd62534,64d2fd46c836a06233681665,64dc7c92e20c1d6b74a08da3,,,,,,,decisionTrl,resources/DY.BMP,resources/DBN.BMP,Door2,-0.30859375,-0.002604167,1,0,0,1.2271,optionLeft,40,13985,6,38,0,38,0,1,,,,,,,,,,,,,,,,,,,,,,,,,,,,,,,,,,,,,,,
,,,,,,,,2023-08-16_08h37.13.087,HF_wild_card,2022.2.4,Win32,59.93407252,5d6bfd6f3a9682001bd62534,64d2fd46c836a06233681665,64dc7c92e20c1d6b74a08da3,,,,,,,ctch,resources/DG.BMP,resources/DBN.BMP,Door4,-0.287760417,-0.01171875,1,0,0,1.4056,optionLeft,60,14045,6,39,0,39,0,1,,,,,,,,,,,,,,,,,,,,,,,,,,,,,,,,,,,,,,,
,,,,,,,,2023-08-16_08h37.13.087,HF_wild_card,2022.2.4,Win32,59.93407252,5d6bfd6f3a9682001bd62534,64d2fd46c836a06233681665,64dc7c92e20c1d6b74a08da3,,,,,,,decisionTrl,resources/DG.BMP,resources/DP.BMP,Door3,0.506510417,-0.015625,1,0,0,2.0665,optionRight,70,14115,6,40,0,40,0,1,,,,,,,,,,,,,,,,,,,,,,,,,,,,,,,,,,,,,,,
,,,,,,,,2023-08-16_08h37.13.087,HF_wild_card,2022.2.4,Win32,59.93407252,5d6bfd6f3a9682001bd62534,64d2fd46c836a06233681665,64dc7c92e20c1d6b74a08da3,,,,,,,ctch,resources/DBN.BMP,resources/DG.BMP,Door4,0.428385417,-0.084635417,1,0,0,1.1935,optionRight,60,14175,6,41,0,41,0,1,,,,,,,,,,,,,,,,,,,,,,,,,,,,,,,,,,,,,,,
,,,,,,,,2023-08-16_08h37.13.087,HF_wild_card,2022.2.4,Win32,59.93407252,5d6bfd6f3a9682001bd62534,64d2fd46c836a06233681665,64dc7c92e20c1d6b74a08da3,,,,,,,ctch,resources/DY.BMP,resources/DP.BMP,Door3,0.365885417,-0.03515625,1,0,0,1.3096,optionRight,70,14245,6,42,0,42,0,1,,,,,,,,,,,,,,,,,,,,,,,,,,,,,,,,,,,,,,,
,,,,,,,,2023-08-16_08h37.13.087,HF_wild_card,2022.2.4,Win32,59.93407252,5d6bfd6f3a9682001bd62534,64d2fd46c836a06233681665,64dc7c92e20c1d6b74a08da3,,,,,,,decisionTrl,resources/DY.BMP,resources/DBN.BMP,Door2,-0.272135417,0.0234375,1,0,0,1.4596,optionLeft,40,14285,6,43,0,43,0,1,,,,,,,,,,,,,,,,,,,,,,,,,,,,,,,,,,,,,,,
,,,,,,,,2023-08-16_08h37.13.087,HF_wild_card,2022.2.4,Win32,59.93407252,5d6bfd6f3a9682001bd62534,64d2fd46c836a06233681665,64dc7c92e20c1d6b74a08da3,,,,,,,,,,,,,,,,,,,,,,,,,,5,0,5,0,1,,,,,,,,,,,,,,,,,,,,,,,,,,,,,,,,,,
,,,,,,,,2023-08-16_08h37.13.087,HF_wild_card,2022.2.4,Win32,59.93407252,5d6bfd6f3a9682001bd62534,64d2fd46c836a06233681665,64dc7c92e20c1d6b74a08da3,,,,,,,ctch,resources/DP.BMP,resources/DY.BMP,Door3,-0.37109375,-0.032552083,1,0,0,1.0858,optionLeft,70,14355,7,0,0,0,0,1,,,,,,,,,,,,,,,,,,,,,,,,,,,,,,,,,,,,,,,
,,,,,,,,2023-08-16_08h37.13.087,HF_wild_card,2022.2.4,Win32,59.93407252,5d6bfd6f3a9682001bd62534,64d2fd46c836a06233681665,64dc7c92e20c1d6b74a08da3,,,,,,,decisionTrl,resources/DG.BMP,resources/DP.BMP,Door3,0.4375,-0.045572917,1,0,0,1.0253,optionRight,70,14425,7,1,0,1,0,1,,,,,,,,,,,,,,,,,,,,,,,,,,,,,,,,,,,,,,,
,,,,,,,,2023-08-16_08h37.13.087,HF_wild_card,2022.2.4,Win32,59.93407252,5d6bfd6f3a9682001bd62534,64d2fd46c836a06233681665,64dc7c92e20c1d6b74a08da3,,,,,,,decisionTrl,resources/DY.BMP,resources/DBN.BMP,Door2,-0.3359375,0.02734375,1,0,0,1.4235,optionLeft,40,14465,7,2,0,2,0,1,,,,,,,,,,,,,,,,,,,,,,,,,,,,,,,,,,,,,,,
,,,,,,,,2023-08-16_08h37.13.087,HF_wild_card,2022.2.4,Win32,59.93407252,5d6bfd6f3a9682001bd62534,64d2fd46c836a06233681665,64dc7c92e20c1d6b74a08da3,,,,,,,decisionTrl,resources/DY.BMP,resources/DBN.BMP,Door2,-0.329427083,0.05078125,1,0,0,1.845,optionLeft,20,14485,7,3,0,3,0,1,,,,,,,,,,,,,,,,,,,,,,,,,,,,,,,,,,,,,,,
,,,,,,,,2023-08-16_08h37.13.087,HF_wild_card,2022.2.4,Win32,59.93407252,5d6bfd6f3a9682001bd62534,64d2fd46c836a06233681665,64dc7c92e20c1d6b74a08da3,,,,,,,decisionTrl,resources/DG.BMP,resources/DP.BMP,Door3,0.419270833,-0.001302083,1,0,0,1.2773,optionRight,70,14555,7,4,0,4,0,1,,,,,,,,,,,,,,,,,,,,,,,,,,,,,,,,,,,,,,,
,,,,,,,,2023-08-16_08h37.13.087,HF_wild_card,2022.2.4,Win32,59.93407252,5d6bfd6f3a9682001bd62534,64d2fd46c836a06233681665,64dc7c92e20c1d6b74a08da3,,,,,,,ctch,resources/DG.BMP,resources/DBN.BMP,Door4,-0.309895833,-0.014322917,1,0,0,1.9121,optionLeft,80,14635,7,5,0,5,0,1,,,,,,,,,,,,,,,,,,,,,,,,,,,,,,,,,,,,,,,
,,,,,,,,2023-08-16_08h37.13.087,HF_wild_card,2022.2.4,Win32,59.93407252,5d6bfd6f3a9682001bd62534,64d2fd46c836a06233681665,64dc7c92e20c1d6b74a08da3,,,,,,,ctch,resources/DP.BMP,resources/DY.BMP,Door3,-0.341145833,-0.010416667,1,0,0,1.1276,optionLeft,70,14705,7,6,0,6,0,1,,,,,,,,,,,,,,,,,,,,,,,,,,,,,,,,,,,,,,,
,,,,,,,,2023-08-16_08h37.13.087,HF_wild_card,2022.2.4,Win32,59.93407252,5d6bfd6f3a9682001bd62534,64d2fd46c836a06233681665,64dc7c92e20c1d6b74a08da3,,,,,,,decisionTrl,resources/DBN.BMP,resources/DY.BMP,Door2,0.4375,0.010416667,1,0,0,1.269,optionRight,40,14745,7,7,0,7,0,1,,,,,,,,,,,,,,,,,,,,,,,,,,,,,,,,,,,,,,,
,,,,,,,,2023-08-16_08h37.13.087,HF_wild_card,2022.2.4,Win32,59.93407252,5d6bfd6f3a9682001bd62534,64d2fd46c836a06233681665,64dc7c92e20c1d6b74a08da3,,,,,,,decisionTrl,resources/DP.BMP,resources/DG.BMP,Door3,-0.33984375,-0.0078125,1,0,0,1.5779,optionLeft,70,14815,7,8,0,8,0,1,,,,,,,,,,,,,,,,,,,,,,,,,,,,,,,,,,,,,,,
,,,,,,,,2023-08-16_08h37.13.087,HF_wild_card,2022.2.4,Win32,59.93407252,5d6bfd6f3a9682001bd62534,64d2fd46c836a06233681665,64dc7c92e20c1d6b74a08da3,,,,,,,decisionTrl,resources/DBN.BMP,resources/DY.BMP,Door2,0.4140625,-0.00390625,1,0,0,1.2287,optionRight,20,14835,7,9,0,9,0,1,,,,,,,,,,,,,,,,,,,,,,,,,,,,,,,,,,,,,,,
,,,,,,,,2023-08-16_08h37.13.087,HF_wild_card,2022.2.4,Win32,59.93407252,5d6bfd6f3a9682001bd62534,64d2fd46c836a06233681665,64dc7c92e20c1d6b74a08da3,,,,,,,ctch,resources/DY.BMP,resources/DP.BMP,Door3,0.27734375,-0.029947917,1,0,0,1.283,optionRight,70,14905,7,10,0,10,0,1,,,,,,,,,,,,,,,,,,,,,,,,,,,,,,,,,,,,,,,
,,,,,,,,2023-08-16_08h37.13.087,HF_wild_card,2022.2.4,Win32,59.93407252,5d6bfd6f3a9682001bd62534,64d2fd46c836a06233681665,64dc7c92e20c1d6b74a08da3,,,,,,,ctch,resources/DP.BMP,resources/DY.BMP,Door3,-0.298177083,0.002604167,1,0,0,1.6924,optionLeft,70,14975,7,11,0,11,0,1,,,,,,,,,,,,,,,,,,,,,,,,,,,,,,,,,,,,,,,
,,,,,,,,2023-08-16_08h37.13.087,HF_wild_card,2022.2.4,Win32,59.93407252,5d6bfd6f3a9682001bd62534,64d2fd46c836a06233681665,64dc7c92e20c1d6b74a08da3,,,,,,,decisionTrl,resources/DY.BMP,resources/DBN.BMP,Door2,-0.3359375,0.009114583,1,0,0,1.3638,optionLeft,40,15015,7,12,0,12,0,1,,,,,,,,,,,,,,,,,,,,,,,,,,,,,,,,,,,,,,,
,,,,,,,,2023-08-16_08h37.13.087,HF_wild_card,2022.2.4,Win32,59.93407252,5d6bfd6f3a9682001bd62534,64d2fd46c836a06233681665,64dc7c92e20c1d6b74a08da3,,,,,,,decisionTrl,resources/DP.BMP,resources/DG.BMP,Door3,-0.385416667,-0.001302083,1,0,0,1.2786,optionLeft,70,15085,7,13,0,13,0,1,,,,,,,,,,,,,,,,,,,,,,,,,,,,,,,,,,,,,,,
,,,,,,,,2023-08-16_08h37.13.087,HF_wild_card,2022.2.4,Win32,59.93407252,5d6bfd6f3a9682001bd62534,64d2fd46c836a06233681665,64dc7c92e20c1d6b74a08da3,,,,,,,ctch,resources/DBN.BMP,resources/DG.BMP,Door4,0.404947917,0.015625,1,0,0,1.3287,optionRight,80,15165,7,14,0,14,0,1,,,,,,,,,,,,,,,,,,,,,,,,,,,,,,,,,,,,,,,
,,,,,,,,2023-08-16_08h37.13.087,HF_wild_card,2022.2.4,Win32,59.93407252,5d6bfd6f3a9682001bd62534,64d2fd46c836a06233681665,64dc7c92e20c1d6b74a08da3,,,,,,,decisionTrl,resources/DBN.BMP,resources/DY.BMP,Door2,0.446614583,-0.002604167,1,0,0,1.3114,optionRight,20,15185,7,15,0,15,0,1,,,,,,,,,,,,,,,,,,,,,,,,,,,,,,,,,,,,,,,
,,,,,,,,2023-08-16_08h37.13.087,HF_wild_card,2022.2.4,Win32,59.93407252,5d6bfd6f3a9682001bd62534,64d2fd46c836a06233681665,64dc7c92e20c1d6b74a08da3,,,,,,,decisionTrl,resources/DP.BMP,resources/DG.BMP,Door3,-0.358072917,-0.01171875,1,0,0,1.491,optionLeft,70,15255,7,16,0,16,0,1,,,,,,,,,,,,,,,,,,,,,,,,,,,,,,,,,,,,,,,
,,,,,,,,2023-08-16_08h37.13.087,HF_wild_card,2022.2.4,Win32,59.93407252,5d6bfd6f3a9682001bd62534,64d2fd46c836a06233681665,64dc7c92e20c1d6b74a08da3,,,,,,,decisionTrl,resources/DY.BMP,resources/DBN.BMP,Door2,-0.3125,0.015625,1,0,0,1.328,optionLeft,40,15295,7,17,0,17,0,1,,,,,,,,,,,,,,,,,,,,,,,,,,,,,,,,,,,,,,,
,,,,,,,,2023-08-16_08h37.13.087,HF_wild_card,2022.2.4,Win32,59.93407252,5d6bfd6f3a9682001bd62534,64d2fd46c836a06233681665,64dc7c92e20c1d6b74a08da3,,,,,,,decisionTrl,resources/DG.BMP,resources/DP.BMP,Door3,0.35546875,-0.037760417,1,0,0,1.2288,optionRight,70,15365,7,18,0,18,0,1,,,,,,,,,,,,,,,,,,,,,,,,,,,,,,,,,,,,,,,
,,,,,,,,2023-08-16_08h37.13.087,HF_wild_card,2022.2.4,Win32,59.93407252,5d6bfd6f3a9682001bd62534,64d2fd46c836a06233681665,64dc7c92e20c1d6b74a08da3,,,,,,,ctch,resources/DBN.BMP,resources/DG.BMP,Door4,0.381510417,0.005208333,1,0,0,1.0684,optionRight,80,15445,7,19,0,19,0,1,,,,,,,,,,,,,,,,,,,,,,,,,,,,,,,,,,,,,,,
,,,,,,,,2023-08-16_08h37.13.087,HF_wild_card,2022.2.4,Win32,59.93407252,5d6bfd6f3a9682001bd62534,64d2fd46c836a06233681665,64dc7c92e20c1d6b74a08da3,,,,,,,decisionTrl,resources/DG.BMP,resources/DP.BMP,Door3,0.3828125,-0.005208333,1,0,0,0.9936,optionRight,70,15515,7,20,0,20,0,1,,,,,,,,,,,,,,,,,,,,,,,,,,,,,,,,,,,,,,,
,,,,,,,,2023-08-16_08h37.13.087,HF_wild_card,2022.2.4,Win32,59.93407252,5d6bfd6f3a9682001bd62534,64d2fd46c836a06233681665,64dc7c92e20c1d6b74a08da3,,,,,,,ctch,resources/DG.BMP,resources/DBN.BMP,Door4,-0.338541667,0.015625,1,0,0,1.3779,optionLeft,80,15595,7,21,0,21,0,1,,,,,,,,,,,,,,,,,,,,,,,,,,,,,,,,,,,,,,,
,,,,,,,,2023-08-16_08h37.13.087,HF_wild_card,2022.2.4,Win32,59.93407252,5d6bfd6f3a9682001bd62534,64d2fd46c836a06233681665,64dc7c92e20c1d6b74a08da3,,,,,,,ctch,resources/DY.BMP,resources/DP.BMP,Door3,0.329427083,0,1,0,0,1.1781,optionRight,70,15665,7,22,0,22,0,1,,,,,,,,,,,,,,,,,,,,,,,,,,,,,,,,,,,,,,,
,,,,,,,,2023-08-16_08h37.13.087,HF_wild_card,2022.2.4,Win32,59.93407252,5d6bfd6f3a9682001bd62534,64d2fd46c836a06233681665,64dc7c92e20c1d6b74a08da3,,,,,,,decisionTrl,resources/DBN.BMP,resources/DY.BMP,Door2,0.28515625,-0.033854167,1,0,0,1.2258,optionRight,40,15705,7,23,0,23,0,1,,,,,,,,,,,,,,,,,,,,,,,,,,,,,,,,,,,,,,,
,,,,,,,,2023-08-16_08h37.13.087,HF_wild_card,2022.2.4,Win32,59.93407252,5d6bfd6f3a9682001bd62534,64d2fd46c836a06233681665,64dc7c92e20c1d6b74a08da3,,,,,,,decisionTrl,resources/DG.BMP,resources/DP.BMP,Door3,0.3359375,-0.048177083,1,0,0,1.7711,optionRight,70,15775,7,24,0,24,0,1,,,,,,,,,,,,,,,,,,,,,,,,,,,,,,,,,,,,,,,
,,,,,,,,2023-08-16_08h37.13.087,HF_wild_card,2022.2.4,Win32,59.93407252,5d6bfd6f3a9682001bd62534,64d2fd46c836a06233681665,64dc7c92e20c1d6b74a08da3,,,,,,,decisionTrl,resources/DY.BMP,resources/DBN.BMP,Door2,-0.35546875,-0.032552083,1,0,0,2.5933,optionLeft,20,15795,7,25,0,25,0,1,,,,,,,,,,,,,,,,,,,,,,,,,,,,,,,,,,,,,,,
,,,,,,,,2023-08-16_08h37.13.087,HF_wild_card,2022.2.4,Win32,59.93407252,5d6bfd6f3a9682001bd62534,64d2fd46c836a06233681665,64dc7c92e20c1d6b74a08da3,,,,,,,decisionTrl,resources/DP.BMP,resources/DG.BMP,Door3,-0.333333333,-0.013020833,1,0,0,1.3522,optionLeft,70,15865,7,26,0,26,0,1,,,,,,,,,,,,,,,,,,,,,,,,,,,,,,,,,,,,,,,
,,,,,,,,2023-08-16_08h37.13.087,HF_wild_card,2022.2.4,Win32,59.93407252,5d6bfd6f3a9682001bd62534,64d2fd46c836a06233681665,64dc7c92e20c1d6b74a08da3,,,,,,,decisionTrl,resources/DP.BMP,resources/DG.BMP,Door3,-0.397135417,-0.014322917,1,0,0,1.2113,optionLeft,70,15935,7,27,0,27,0,1,,,,,,,,,,,,,,,,,,,,,,,,,,,,,,,,,,,,,,,
,,,,,,,,2023-08-16_08h37.13.087,HF_wild_card,2022.2.4,Win32,59.93407252,5d6bfd6f3a9682001bd62534,64d2fd46c836a06233681665,64dc7c92e20c1d6b74a08da3,,,,,,,decisionTrl,resources/DY.BMP,resources/DBN.BMP,Door2,-0.384114583,-0.005208333,1,0,0,1.1282,optionLeft,20,15955,7,28,0,28,0,1,,,,,,,,,,,,,,,,,,,,,,,,,,,,,,,,,,,,,,,
,,,,,,,,2023-08-16_08h37.13.087,HF_wild_card,2022.2.4,Win32,59.93407252,5d6bfd6f3a9682001bd62534,64d2fd46c836a06233681665,64dc7c92e20c1d6b74a08da3,,,,,,,decisionTrl,resources/DP.BMP,resources/DG.BMP,Door3,-0.34765625,-0.037760417,1,0,0,1.2456,optionLeft,70,16025,7,29,0,29,0,1,,,,,,,,,,,,,,,,,,,,,,,,,,,,,,,,,,,,,,,
,,,,,,,,2023-08-16_08h37.13.087,HF_wild_card,2022.2.4,Win32,59.93407252,5d6bfd6f3a9682001bd62534,64d2fd46c836a06233681665,64dc7c92e20c1d6b74a08da3,,,,,,,decisionTrl,resources/DBN.BMP,resources/DY.BMP,Door2,0.376302083,0.013020833,1,0,0,1.3944,optionRight,40,16065,7,30,0,30,0,1,,,,,,,,,,,,,,,,,,,,,,,,,,,,,,,,,,,,,,,
,,,,,,,,2023-08-16_08h37.13.087,HF_wild_card,2022.2.4,Win32,59.93407252,5d6bfd6f3a9682001bd62534,64d2fd46c836a06233681665,64dc7c92e20c1d6b74a08da3,,,,,,,decisionTrl,resources/DG.BMP,resources/DP.BMP,Door3,0.3515625,-0.029947917,1,0,0,2.06,optionRight,70,16135,7,31,0,31,0,1,,,,,,,,,,,,,,,,,,,,,,,,,,,,,,,,,,,,,,,
,,,,,,,,2023-08-16_08h37.13.087,HF_wild_card,2022.2.4,Win32,59.93407252,5d6bfd6f3a9682001bd62534,64d2fd46c836a06233681665,64dc7c92e20c1d6b74a08da3,,,,,,,ctch,resources/DG.BMP,resources/DBN.BMP,Door4,-0.3203125,0.002604167,1,0,0,1.1008,optionLeft,80,16215,7,32,0,32,0,1,,,,,,,,,,,,,,,,,,,,,,,,,,,,,,,,,,,,,,,
,,,,,,,,2023-08-16_08h37.13.087,HF_wild_card,2022.2.4,Win32,59.93407252,5d6bfd6f3a9682001bd62534,64d2fd46c836a06233681665,64dc7c92e20c1d6b74a08da3,,,,,,,ctch,resources/DY.BMP,resources/DP.BMP,Door3,0.33984375,-0.0234375,1,0,0,1.2948,optionRight,70,16285,7,33,0,33,0,1,,,,,,,,,,,,,,,,,,,,,,,,,,,,,,,,,,,,,,,
,,,,,,,,2023-08-16_08h37.13.087,HF_wild_card,2022.2.4,Win32,59.93407252,5d6bfd6f3a9682001bd62534,64d2fd46c836a06233681665,64dc7c92e20c1d6b74a08da3,,,,,,,decisionTrl,resources/DBN.BMP,resources/DY.BMP,Door2,0.41796875,0.014322917,1,0,0,1.1132,optionRight,20,16305,7,34,0,34,0,1,,,,,,,,,,,,,,,,,,,,,,,,,,,,,,,,,,,,,,,
,,,,,,,,2023-08-16_08h37.13.087,HF_wild_card,2022.2.4,Win32,59.93407252,5d6bfd6f3a9682001bd62534,64d2fd46c836a06233681665,64dc7c92e20c1d6b74a08da3,,,,,,,ctch,resources/DBN.BMP,resources/DG.BMP,Door4,0.438802083,0.014322917,1,0,0,1.2131,optionRight,60,16365,7,35,0,35,0,1,,,,,,,,,,,,,,,,,,,,,,,,,,,,,,,,,,,,,,,
,,,,,,,,2023-08-16_08h37.13.087,HF_wild_card,2022.2.4,Win32,59.93407252,5d6bfd6f3a9682001bd62534,64d2fd46c836a06233681665,64dc7c92e20c1d6b74a08da3,,,,,,,,,,,,,,,,,,,,,,,,,,6,0,6,0,1,,,,,,,,,,,,,,,,,,,,,,,,,,,,,,,,,,
,,,,,,,,2023-08-16_08h37.13.087,HF_wild_card,2022.2.4,Win32,59.93407252,5d6bfd6f3a9682001bd62534,64d2fd46c836a06233681665,64dc7c92e20c1d6b74a08da3,,,,,,,,,,,,,,,,,,,,,,,,,,,,,,,4,,,,,,,,,,,,,,,,,,,,,,,,,,,,,,,,,
,,,,,,,,2023-08-16_08h37.13.087,HF_wild_card,2022.2.4,Win32,59.93407252,5d6bfd6f3a9682001bd62534,64d2fd46c836a06233681665,64dc7c92e20c1d6b74a08da3,,,,,,,,,,,,,,,,,,,,,,,,,,,,,,,,,,,,,,,,,,,,,,,,,,,,,,,,,,,,,,,,
,,,,,,,,2023-08-16_08h37.13.087,HF_wild_card,2022.2.4,Win32,59.93407252,5d6bfd6f3a9682001bd62534,64d2fd46c836a06233681665,64dc7c92e20c1d6b74a08da3,,,,,,,,,,,,,,,,,,,,,,,,,,,,,,,,40,Door2,resources/DY.BMP,0,0,0,0,1,,,,,,,,,,,,,,,,,,,,,,,,,
,,,,,,,,2023-08-16_08h37.13.087,HF_wild_card,2022.2.4,Win32,59.93407252,5d6bfd6f3a9682001bd62534,64d2fd46c836a06233681665,64dc7c92e20c1d6b74a08da3,,,,,,,,,,,,,,,,,,,,,,,,,,,,,,,,70,Door3,resources/DP.BMP,1,0,1,0,1,,,,,,,,,,,,,,,,,,,,,,,,,
,,,,,,,,2023-08-16_08h37.13.087,HF_wild_card,2022.2.4,Win32,59.93407252,5d6bfd6f3a9682001bd62534,64d2fd46c836a06233681665,64dc7c92e20c1d6b74a08da3,,,,,,,,,,,,,,,,,,,,,,,,,,,,,,,,55,WC_extreme,resources/DB.BMP,2,0,2,0,1,,,,,,,,,,,,,,,,,,,,,,,,,
,,,,,,,,2023-08-16_08h37.13.087,HF_wild_card,2022.2.4,Win32,59.93407252,5d6bfd6f3a9682001bd62534,64d2fd46c836a06233681665,64dc7c92e20c1d6b74a08da3,,,,,,,,,,,,,,,,,,,,,,,,,,,,,,,,20,Door1,resources/DBN.BMP,3,0,3,0,1,,,,,,,,,,,,,,,,,,,,,,,,,
,,,,,,,,2023-08-16_08h37.13.087,HF_wild_card,2022.2.4,Win32,59.93407252,5d6bfd6f3a9682001bd62534,64d2fd46c836a06233681665,64dc7c92e20c1d6b74a08da3,,,,,,,,,,,,,,,,,,,,,,,,,,,,,,,,20,WC_nonExtreme,resources/DR.BMP,4,0,4,0,1,,,,,,,,,,,,,,,,,,,,,,,,,
,,,,,,,,2023-08-16_08h37.13.087,HF_wild_card,2022.2.4,Win32,59.93407252,5d6bfd6f3a9682001bd62534,64d2fd46c836a06233681665,64dc7c92e20c1d6b74a08da3,,,,,,,,,,,,,,,,,,,,,,,,,,,,,,,,80,Door4,resources/DG.BMP,5,0,5,0,1,,,,,,,,,,,,,,,,,,,,,,,,,
,,,,,,,,2023-08-16_08h37.13.087,HF_wild_card,2022.2.4,Win32,59.93407252,5d6bfd6f3a9682001bd62534,64d2fd46c836a06233681665,64dc7c92e20c1d6b74a08da3,,,,,,,,,,,,,,,,,,,,,,,,,,,,,,,,,,,,,,,,,,,,,,,,,,,,,,,,,,,,,,,,
,,,,,,,,2023-08-16_08h37.13.087,HF_wild_card,2022.2.4,Win32,59.93407252,5d6bfd6f3a9682001bd62534,64d2fd46c836a06233681665,64dc7c92e20c1d6b74a08da3,,,,,,,,,,,,,,,,,,,,,,,,,,,,,,,,,,,,,,,,0,0,0,0,1,,,,,,,,,,,,,,,,,,,,
